"Event.Index","UTC.Timestamp","UTC.Date.and.Time","Local.Timestamp","Local.Timezone","Local.Date.and.Time","Experiment.ID","Experiment.Version","Tree.Node.Key","Repeat.Key","Schedule.ID","Participant.Private.ID","Participant.Starting.Group","Participant.Status","Participant.Completion.Code","Participant.External.Session.ID","Participant.Device.Type","Participant.Device","Participant.OS","Participant.Browser","Participant.Monitor.Size","Participant.Viewport.Size","Checkpoint","Room.ID","Room.Order","Task.Name","Task.Version","branch.hkzp","order.ot79","branch.mcuq","branch.4fv7","randomiser.k5rb","randomiser.rz7w","Spreadsheet","Current.Spreadsheet","Trial.Number","Display","Screen","Screen.ID","Screen.Counter","Response.Type","Response","Onset.Time","Clock.Time","Reaction.Time","Absolute.Onset.Time","Absolute.Clock.Time","Absolute.Reaction.Time","Correct","Response.Onset","Response.Duration","Proportion","Tag","Component.Name","Object.Name","Object.Number","Object.ID","Spreadsheet..display","Spreadsheet..Emo","Spreadsheet..LHS_Lab","Spreadsheet..RHS_Lab","Spreadsheet..rand_M","Spreadsheet..Answer","Spreadsheet..C_points","Spreadsheet..L_points","Spreadsheet..W_points","Spreadsheet..rand_G","Manipulation..Spreadsheet","Store..Choice","Store..total","Store..total_score","Store..pounds","Store..total_money","Store..partA","Store..MoneyReward","Store..pointsPR","Random_ID"
"1",1730467124663,"01/11/2024 13:18:44",1730467124663,0,"01/11/2024 13:18:44",193496,6,"task-napx",NA,41048034,11986013,NA,"complete",NA,"6724cd3c613e6534e0c95a7e","computer","Desktop or Laptop","Mac OS 10.15.7","Chrome 129.0.0.0","1440x900","1440x812",NA,NA,0,"Gambling_GBO",15,"In","ABKCJDIEHFG",NA,"In","HM_OCT","seq3","Gamble_Rand_Seq3","Gamble_Rand_Seq3",NA,"","","",NA,"info","START SUBSYSTEM base.component.fullscreenSubsystem",NA,NA,NA,NA,NA,NA,0,NA,NA,NA,NA,"","",NA,"","","","","",NA,"",NA,NA,NA,NA,NA,"",NA,NA,NA,NA,NA,NA,NA,"MDPRF05688"
"2",1730467124683,"01/11/2024 13:18:44",1730467124683,0,"01/11/2024 13:18:44",193496,6,"task-napx",NA,41048034,11986013,NA,"complete",NA,"6724cd3c613e6534e0c95a7e","computer","Desktop or Laptop","Mac OS 10.15.7","Chrome 129.0.0.0","1440x900","1440x812",NA,NA,0,"Gambling_GBO",15,"In","ABKCJDIEHFG",NA,"In","HM_OCT","seq3","Gamble_Rand_Seq3","Gamble_Rand_Seq3",NA,"","","",NA,"info","SUBSYSTEM READY base.component.fullscreenSubsystem",NA,NA,NA,NA,NA,NA,0,NA,NA,NA,NA,"","",NA,"","","","","",NA,"",NA,NA,NA,NA,NA,"",NA,NA,NA,NA,NA,NA,NA,"MDPRF05688"
"3",1730467124746,"01/11/2024 13:18:44",1730467124746,0,"01/11/2024 13:18:44",193496,6,"task-napx",NA,41048034,11986013,NA,"complete",NA,"6724cd3c613e6534e0c95a7e","computer","Desktop or Laptop","Mac OS 10.15.7","Chrome 129.0.0.0","1440x900","1440x812",NA,NA,0,"Gambling_GBO",15,"In","ABKCJDIEHFG",NA,"In","HM_OCT","seq3","Gamble_Rand_Seq3","Gamble_Rand_Seq3",NA,"","","",NA,"info","BEGIN",NA,NA,NA,NA,NA,NA,0,NA,NA,NA,NA,"","",NA,"","","","","",NA,"",NA,NA,NA,NA,NA,"",NA,NA,NA,NA,NA,NA,NA,"MDPRF05688"
"4",1730467188764,"01/11/2024 13:19:48",1730467188764,0,"01/11/2024 13:19:48",193496,6,"task-napx",NA,41048034,11986013,NA,"complete",NA,"6724cd3c613e6534e0c95a7e","computer","Desktop or Laptop","Mac OS 10.15.7","Chrome 129.0.0.0","1440x900","1440x812",NA,NA,0,"Gambling_GBO",15,"In","ABKCJDIEHFG",NA,"In","HM_OCT","seq3","Gamble_Rand_Seq3","Gamble_Rand_Seq3",1,"Intro","Screen 1","u1aumm",1,"continue","",64113.0999999821,64104.5,64113.0999999821,64113.0999999821,64104.5,64113.0999999821,1,64113.0999999821,0,0,NA,"Click To Continue","Continue Button",2,"object-37171","Intro","","","",NA,"",NA,NA,NA,NA,NA,"",NA,NA,NA,NA,NA,NA,NA,"MDPRF05688"
"5",1730467194029,"01/11/2024 13:19:54",1730467194029,0,"01/11/2024 13:19:54",193496,6,"task-napx",NA,41048034,11986013,NA,"complete",NA,"6724cd3c613e6534e0c95a7e","computer","Desktop or Laptop","Mac OS 10.15.7","Chrome 129.0.0.0","1440x900","1440x812",NA,NA,0,"Gambling_GBO",15,"In","ABKCJDIEHFG",NA,"In","HM_OCT","seq3","Gamble_Rand_Seq3","Gamble_Rand_Seq3",1,"Instructions","Screen 1","rfymdc",1,"continue","",5274.59999998212,5267,5274.59999998212,5274.59999998212,5267,5274.59999998212,1,5274.59999998212,0,0,NA,"Click To Continue","Continue Button",2,"object-3","Instructions","","","",NA,"",NA,NA,NA,NA,NA,"",NA,NA,NA,NA,NA,NA,NA,"MDPRF05688"
"6",1730467196828,"01/11/2024 13:19:56",1730467196828,0,"01/11/2024 13:19:56",193496,6,"task-napx",NA,41048034,11986013,NA,"complete",NA,"6724cd3c613e6534e0c95a7e","computer","Desktop or Laptop","Mac OS 10.15.7","Chrome 129.0.0.0","1440x900","1440x812",NA,NA,0,"Gambling_GBO",15,"In","ABKCJDIEHFG",NA,"In","HM_OCT","seq3","Gamble_Rand_Seq3","Gamble_Rand_Seq3",1,"Instructions","Screen 2","x2kpu8",2,"continue","",2806.89999999404,2799,2806.89999999404,2806.89999999404,2799,2806.89999999404,1,2806.89999999404,0,0,NA,"Click To Continue","Continue Button",2,"object-22021","Instructions","","","",NA,"",NA,NA,NA,NA,NA,"",NA,NA,NA,NA,NA,NA,NA,"MDPRF05688"
"7",1730467237884,"01/11/2024 13:20:37",1730467237884,0,"01/11/2024 13:20:37",193496,6,"task-napx",NA,41048034,11986013,NA,"complete",NA,"6724cd3c613e6534e0c95a7e","computer","Desktop or Laptop","Mac OS 10.15.7","Chrome 129.0.0.0","1440x900","1440x812",NA,NA,0,"Gambling_GBO",15,"In","ABKCJDIEHFG",NA,"In","HM_OCT","seq3","Gamble_Rand_Seq3","Gamble_Rand_Seq3",1,"Instructions","Screen 3","o6zm7t",3,"continue","",41062.4999999881,41053.8,41062.4999999881,41062.4999999881,41053.8,41062.4999999881,1,41062.4999999881,0,0,NA,"Click To Continue","Continue Button",2,"object-225","Instructions","","","",NA,"",NA,NA,NA,NA,NA,"",NA,NA,NA,NA,NA,NA,NA,"MDPRF05688"
"8",1730467241579,"01/11/2024 13:20:41",1730467241579,0,"01/11/2024 13:20:41",193496,6,"task-napx",NA,41048034,11986013,NA,"complete",NA,"6724cd3c613e6534e0c95a7e","computer","Desktop or Laptop","Mac OS 10.15.7","Chrome 129.0.0.0","1440x900","1440x812",NA,NA,0,"Gambling_GBO",15,"In","ABKCJDIEHFG",NA,"In","HM_OCT","seq3","Gamble_Rand_Seq3","Gamble_Rand_Seq3",1,"Instructions","Screen 4","3hq7c2",4,"response","back",3699.69999999998,3683.39999999999,3699.69999999998,3699.69999999998,3683.39999999999,3699.69999999998,1,3699.69999999998,0,0,NA,"Click Response","Back Button",2,"object-229","Instructions","","","",NA,"",NA,NA,NA,NA,NA,"",NA,NA,NA,NA,NA,NA,NA,"MDPRF05688"
"9",1730467243935,"01/11/2024 13:20:43",1730467243935,0,"01/11/2024 13:20:43",193496,6,"task-napx",NA,41048034,11986013,NA,"complete",NA,"6724cd3c613e6534e0c95a7e","computer","Desktop or Laptop","Mac OS 10.15.7","Chrome 129.0.0.0","1440x900","1440x812",NA,NA,0,"Gambling_GBO",15,"In","ABKCJDIEHFG",NA,"In","HM_OCT","seq3","Gamble_Rand_Seq3","Gamble_Rand_Seq3",1,"Instructions","Screen 3","o6zm7t",5,"continue","",2376.29999998808,2367.20000000001,2376.29999998808,2376.29999998808,2367.20000000001,2376.29999998808,1,2376.29999998808,0,0,NA,"Click To Continue","Continue Button",2,"object-225","Instructions","","","",NA,"",NA,NA,NA,NA,NA,"",NA,NA,NA,NA,NA,NA,NA,"MDPRF05688"
"10",1730467246635,"01/11/2024 13:20:46",1730467246635,0,"01/11/2024 13:20:46",193496,6,"task-napx",NA,41048034,11986013,NA,"complete",NA,"6724cd3c613e6534e0c95a7e","computer","Desktop or Laptop","Mac OS 10.15.7","Chrome 129.0.0.0","1440x900","1440x812",NA,NA,0,"Gambling_GBO",15,"In","ABKCJDIEHFG",NA,"In","HM_OCT","seq3","Gamble_Rand_Seq3","Gamble_Rand_Seq3",1,"Instructions","Screen 4","3hq7c2",6,"continue","",2708.39999999999,2700.09999999999,2708.39999999999,2708.39999999999,2700.09999999999,2708.39999999999,1,2708.39999999999,0,0,NA,"Click To Continue","Continue Button",4,"object-380","Instructions","","","",NA,"",NA,NA,NA,NA,NA,"",NA,NA,NA,NA,NA,NA,NA,"MDPRF05688"
"11",1730467253436,"01/11/2024 13:20:53",1730467253436,0,"01/11/2024 13:20:53",193496,6,"task-napx",NA,41048034,11986013,NA,"complete",NA,"6724cd3c613e6534e0c95a7e","computer","Desktop or Laptop","Mac OS 10.15.7","Chrome 129.0.0.0","1440x900","1440x812",NA,NA,0,"Gambling_GBO",15,"In","ABKCJDIEHFG",NA,"In","HM_OCT","seq3","Gamble_Rand_Seq3","Gamble_Rand_Seq3",1,"Instructions","Screen 5","5jisqh",7,"continue","",6809.09999998212,6799.40000000001,6809.09999998212,6809.09999998212,6799.40000000001,6809.09999998212,1,6809.09999998212,0,0,NA,"Click To Continue","Continue Button",2,"object-233","Instructions","","","",NA,"",NA,NA,NA,NA,NA,"",NA,NA,NA,NA,NA,NA,NA,"MDPRF05688"
"12",1730467254768,"01/11/2024 13:20:54",1730467254768,0,"01/11/2024 13:20:54",193496,6,"task-napx",NA,41048034,11986013,NA,"complete",NA,"6724cd3c613e6534e0c95a7e","computer","Desktop or Laptop","Mac OS 10.15.7","Chrome 129.0.0.0","1440x900","1440x812",NA,NA,0,"Gambling_GBO",15,"In","ABKCJDIEHFG",NA,"In","HM_OCT","seq3","Gamble_Rand_Seq3","Gamble_Rand_Seq3",1,"Instructions","Screen 6","13xe5l",8,"continue","",1342.39999999999,1334.5,1342.39999999999,1342.39999999999,1334.5,1342.39999999999,1,1342.39999999999,0,0,NA,"Click To Continue","Continue Button",2,"object-237","Instructions","","","",NA,"",NA,NA,NA,NA,NA,"",NA,NA,NA,NA,NA,NA,NA,"MDPRF05688"
"13",1730467258120,"01/11/2024 13:20:58",1730467258120,0,"01/11/2024 13:20:58",193496,6,"task-napx",NA,41048034,11986013,NA,"complete",NA,"6724cd3c613e6534e0c95a7e","computer","Desktop or Laptop","Mac OS 10.15.7","Chrome 129.0.0.0","1440x900","1440x812",NA,NA,0,"Gambling_GBO",15,"In","ABKCJDIEHFG",NA,"In","HM_OCT","seq3","Gamble_Rand_Seq3","Gamble_Rand_Seq3",1,"Instructions","Screen 7","re2b58",9,"continue","",3358.99999999403,3349.89999999999,3358.99999999403,3358.99999999403,3349.89999999999,3358.99999999403,1,3358.99999999403,0,0,NA,"Click To Continue","Continue Button",2,"object-241","Instructions","","","",NA,"",NA,NA,NA,NA,NA,"",NA,NA,NA,NA,NA,NA,NA,"MDPRF05688"
"14",1730467258139,"01/11/2024 13:20:58",1730467258139,0,"01/11/2024 13:20:58",193496,6,"task-napx",NA,41048034,11986013,NA,"complete",NA,"6724cd3c613e6534e0c95a7e","computer","Desktop or Laptop","Mac OS 10.15.7","Chrome 129.0.0.0","1440x900","1440x812",NA,NA,0,"Gambling_GBO",15,"In","ABKCJDIEHFG",NA,"In","HM_OCT","seq3","Gamble_Rand_Seq3","Gamble_Rand_Seq3",1,"Rating","Screen 1","hx8b5a",1,"info","",16.2999999999884,0,16.2999999999884,16.2999999999884,0,16.2999999999884,1,16.2999999999884,0,0,NA,"Slider","MoodSlider",2,"object-243","Rating","bored","not bored","bored",1,"",NA,NA,NA,NA,NA,"",NA,NA,NA,NA,NA,NA,NA,"MDPRF05688"
"15",1730467261103,"01/11/2024 13:21:01",1730467261103,0,"01/11/2024 13:21:01",193496,6,"task-napx",NA,41048034,11986013,NA,"complete",NA,"6724cd3c613e6534e0c95a7e","computer","Desktop or Laptop","Mac OS 10.15.7","Chrome 129.0.0.0","1440x900","1440x812",NA,NA,0,"Gambling_GBO",15,"In","ABKCJDIEHFG",NA,"In","HM_OCT","seq3","Gamble_Rand_Seq3","Gamble_Rand_Seq3",1,"Rating","Screen 1","hx8b5a",1,"continue","",2992.19999998808,2983.60000000001,2992.19999998808,2992.19999998808,2983.60000000001,2992.19999998808,1,2992.19999998808,0,0,NA,"Click To Continue","Continue Button",3,"object-25","Rating","bored","not bored","bored",1,"",NA,NA,NA,NA,NA,"",NA,NA,NA,NA,NA,NA,NA,"MDPRF05688"
"16",1730467261105,"01/11/2024 13:21:01",1730467261105,0,"01/11/2024 13:21:01",193496,6,"task-napx",NA,41048034,11986013,NA,"complete",NA,"6724cd3c613e6534e0c95a7e","computer","Desktop or Laptop","Mac OS 10.15.7","Chrome 129.0.0.0","1440x900","1440x812",NA,NA,0,"Gambling_GBO",15,"In","ABKCJDIEHFG",NA,"In","HM_OCT","seq3","Gamble_Rand_Seq3","Gamble_Rand_Seq3",1,"Rating","Screen 1","hx8b5a",1,"response","35",1950.60000000001,2983.60000000001,2993.79999998212,1950.60000000001,2983.60000000001,2993.79999998212,1,1950.60000000001,1043.19999998211,0,NA,"Slider","MoodSlider",2,"object-243","Rating","bored","not bored","bored",1,"",NA,NA,NA,NA,NA,"",NA,NA,NA,NA,NA,NA,NA,"MDPRF05688"
"17",1730467261120,"01/11/2024 13:21:01",1730467261120,0,"01/11/2024 13:21:01",193496,6,"task-napx",NA,41048034,11986013,NA,"complete",NA,"6724cd3c613e6534e0c95a7e","computer","Desktop or Laptop","Mac OS 10.15.7","Chrome 129.0.0.0","1440x900","1440x812",NA,NA,0,"Gambling_GBO",15,"In","ABKCJDIEHFG",NA,"In","HM_OCT","seq3","Gamble_Rand_Seq3","Gamble_Rand_Seq3",2,"Rating","Screen 1","hx8b5a",1,"info","",16.8000000000175,0,16.8000000000175,16.8000000000175,0,16.8000000000175,1,16.8000000000175,0,0,NA,"Slider","MoodSlider",2,"object-243","Rating","frustrated","not frustrated","frustrated",1,"",NA,NA,NA,NA,NA,"",NA,NA,NA,NA,NA,NA,NA,"MDPRF05688"
"18",1730467263053,"01/11/2024 13:21:03",1730467263053,0,"01/11/2024 13:21:03",193496,6,"task-napx",NA,41048034,11986013,NA,"complete",NA,"6724cd3c613e6534e0c95a7e","computer","Desktop or Laptop","Mac OS 10.15.7","Chrome 129.0.0.0","1440x900","1440x812",NA,NA,0,"Gambling_GBO",15,"In","ABKCJDIEHFG",NA,"In","HM_OCT","seq3","Gamble_Rand_Seq3","Gamble_Rand_Seq3",2,"Rating","Screen 1","hx8b5a",1,"continue","",1958.39999999999,1950.39999999999,1958.39999999999,1958.39999999999,1950.39999999999,1958.39999999999,1,1958.39999999999,0,0,NA,"Click To Continue","Continue Button",3,"object-25","Rating","frustrated","not frustrated","frustrated",1,"",NA,NA,NA,NA,NA,"",NA,NA,NA,NA,NA,NA,NA,"MDPRF05688"
"19",1730467263053,"01/11/2024 13:21:03",1730467263053,0,"01/11/2024 13:21:03",193496,6,"task-napx",NA,41048034,11986013,NA,"complete",NA,"6724cd3c613e6534e0c95a7e","computer","Desktop or Laptop","Mac OS 10.15.7","Chrome 129.0.0.0","1440x900","1440x812",NA,NA,0,"Gambling_GBO",15,"In","ABKCJDIEHFG",NA,"In","HM_OCT","seq3","Gamble_Rand_Seq3","Gamble_Rand_Seq3",2,"Rating","Screen 1","hx8b5a",1,"response","35",950.299999999988,1950.39999999999,1959.09999998807,950.299999999988,1950.39999999999,1959.09999998807,1,950.299999999988,1008.79999998808,0,NA,"Slider","MoodSlider",2,"object-243","Rating","frustrated","not frustrated","frustrated",1,"",NA,NA,NA,NA,NA,"",NA,NA,NA,NA,NA,NA,NA,"MDPRF05688"
"20",1730467263069,"01/11/2024 13:21:03",1730467263069,0,"01/11/2024 13:21:03",193496,6,"task-napx",NA,41048034,11986013,NA,"complete",NA,"6724cd3c613e6534e0c95a7e","computer","Desktop or Laptop","Mac OS 10.15.7","Chrome 129.0.0.0","1440x900","1440x812",NA,NA,0,"Gambling_GBO",15,"In","ABKCJDIEHFG",NA,"In","HM_OCT","seq3","Gamble_Rand_Seq3","Gamble_Rand_Seq3",3,"Rating","Screen 1","hx8b5a",1,"info","",16.7000000000116,0,16.7000000000116,16.7000000000116,0,16.7000000000116,1,16.7000000000116,0,0,NA,"Slider","MoodSlider",2,"object-243","Rating","happy","not happy","happy",1,"",NA,NA,NA,NA,NA,"",NA,NA,NA,NA,NA,NA,NA,"MDPRF05688"
"21",1730467264936,"01/11/2024 13:21:04",1730467264936,0,"01/11/2024 13:21:04",193496,6,"task-napx",NA,41048034,11986013,NA,"complete",NA,"6724cd3c613e6534e0c95a7e","computer","Desktop or Laptop","Mac OS 10.15.7","Chrome 129.0.0.0","1440x900","1440x812",NA,NA,0,"Gambling_GBO",15,"In","ABKCJDIEHFG",NA,"In","HM_OCT","seq3","Gamble_Rand_Seq3","Gamble_Rand_Seq3",3,"Rating","Screen 1","hx8b5a",1,"continue","",1891.59999999404,1883.20000000001,1891.59999999404,1891.59999999404,1883.20000000001,1891.59999999404,1,1891.59999999404,0,0,NA,"Click To Continue","Continue Button",3,"object-25","Rating","happy","not happy","happy",1,"",NA,NA,NA,NA,NA,"",NA,NA,NA,NA,NA,NA,NA,"MDPRF05688"
"22",1730467264944,"01/11/2024 13:21:04",1730467264944,0,"01/11/2024 13:21:04",193496,6,"task-napx",NA,41048034,11986013,NA,"complete",NA,"6724cd3c613e6534e0c95a7e","computer","Desktop or Laptop","Mac OS 10.15.7","Chrome 129.0.0.0","1440x900","1440x812",NA,NA,0,"Gambling_GBO",15,"In","ABKCJDIEHFG",NA,"In","HM_OCT","seq3","Gamble_Rand_Seq3","Gamble_Rand_Seq3",3,"Rating","Screen 1","hx8b5a",1,"response","47",1132.39999999999,1883.20000000001,1899.09999999404,1132.39999999999,1883.20000000001,1899.09999999404,1,1132.39999999999,766.699999994045,0,NA,"Slider","MoodSlider",2,"object-243","Rating","happy","not happy","happy",1,"",NA,NA,NA,NA,NA,"",NA,NA,NA,NA,NA,NA,NA,"MDPRF05688"
"23",1730467266896,"01/11/2024 13:21:06",1730467266896,0,"01/11/2024 13:21:06",193496,6,"task-napx",NA,41048034,11986013,NA,"complete",NA,"6724cd3c613e6534e0c95a7e","computer","Desktop or Laptop","Mac OS 10.15.7","Chrome 129.0.0.0","1440x900","1440x812",NA,NA,0,"Gambling_GBO",15,"In","ABKCJDIEHFG",NA,"In","HM_OCT","seq3","Gamble_Rand_Seq3","Gamble_Rand_Seq3",1,"lossB","Screen 1","a4fynh",1,"continue","",1967.09999999998,1967.09999999998,1967.09999999998,1967.09999999998,1967.09999999998,1967.09999999998,1,1967.09999999998,0,0,NA,"Fixation Timing","Fixation",1,"object-113","lossB","","","",NA,"Right",2,1,4,1,NA,"",NA,NA,NA,NA,NA,NA,NA,"MDPRF05688"
"24",1730467271075,"01/11/2024 13:21:11",1730467271075,0,"01/11/2024 13:21:11",193496,6,"task-napx",NA,41048034,11986013,NA,"complete",NA,"6724cd3c613e6534e0c95a7e","computer","Desktop or Laptop","Mac OS 10.15.7","Chrome 129.0.0.0","1440x900","1440x812",NA,NA,0,"Gambling_GBO",15,"In","ABKCJDIEHFG",NA,"In","HM_OCT","seq3","Gamble_Rand_Seq3","Gamble_Rand_Seq3",1,"lossB","choice","k9qq8f",2,"response","Left",4178.70000000001,4165.80000000002,4178.70000000001,4178.70000000001,4165.80000000002,4178.70000000001,0,4178.70000000001,0,0,NA,"Keyboard Response","KeyResponseC",5,"object-199","lossB","","","",NA,"Right",2,1,4,1,NA,"Left",NA,2,NA,NA,NA,NA,2,"MDPRF05688"
"25",1730467276073,"01/11/2024 13:21:16",1730467276073,0,"01/11/2024 13:21:16",193496,6,"task-napx",NA,41048034,11986013,NA,"complete",NA,"6724cd3c613e6534e0c95a7e","computer","Desktop or Laptop","Mac OS 10.15.7","Chrome 129.0.0.0","1440x900","1440x812",NA,NA,0,"Gambling_GBO",15,"In","ABKCJDIEHFG",NA,"In","HM_OCT","seq3","Gamble_Rand_Seq3","Gamble_Rand_Seq3",1,"lossB","certain","rptf8c",3,"timedOut","",5012.29999997615,5000.79999999999,5012.29999997615,5012.29999997615,5000.79999999999,5012.29999997615,1,5012.29999997615,0,0,NA,"Time Limit","screen",0,"screen","lossB","","","",NA,"Right",2,1,4,1,NA,"Left",NA,2,NA,NA,NA,NA,2,"MDPRF05688"
"26",1730467276087,"01/11/2024 13:21:16",1730467276087,0,"01/11/2024 13:21:16",193496,6,"task-napx",NA,41048034,11986013,NA,"complete",NA,"6724cd3c613e6534e0c95a7e","computer","Desktop or Laptop","Mac OS 10.15.7","Chrome 129.0.0.0","1440x900","1440x812",NA,NA,0,"Gambling_GBO",15,"In","ABKCJDIEHFG",NA,"In","HM_OCT","seq3","Gamble_Rand_Seq3","Gamble_Rand_Seq3",4,"Rating","Screen 1","hx8b5a",1,"info","",16.1000000000058,0,16.1000000000058,16.1000000000058,0,16.1000000000058,1,16.1000000000058,0,0,NA,"Slider","MoodSlider",2,"object-243","Rating","happy","not happy","happy",2,"",NA,NA,NA,NA,NA,"Left",NA,2,NA,NA,NA,NA,2,"MDPRF05688"
"27",1730467278754,"01/11/2024 13:21:18",1730467278754,0,"01/11/2024 13:21:18",193496,6,"task-napx",NA,41048034,11986013,NA,"complete",NA,"6724cd3c613e6534e0c95a7e","computer","Desktop or Laptop","Mac OS 10.15.7","Chrome 129.0.0.0","1440x900","1440x812",NA,NA,0,"Gambling_GBO",15,"In","ABKCJDIEHFG",NA,"In","HM_OCT","seq3","Gamble_Rand_Seq3","Gamble_Rand_Seq3",4,"Rating","Screen 1","hx8b5a",1,"continue","",2692.19999999405,2684.20000000001,2692.19999999405,2692.19999999405,2684.20000000001,2692.19999999405,1,2692.19999999405,0,0,NA,"Click To Continue","Continue Button",3,"object-25","Rating","happy","not happy","happy",2,"",NA,NA,NA,NA,NA,"Left",NA,2,NA,NA,NA,NA,2,"MDPRF05688"
"28",1730467278755,"01/11/2024 13:21:18",1730467278755,0,"01/11/2024 13:21:18",193496,6,"task-napx",NA,41048034,11986013,NA,"complete",NA,"6724cd3c613e6534e0c95a7e","computer","Desktop or Laptop","Mac OS 10.15.7","Chrome 129.0.0.0","1440x900","1440x812",NA,NA,0,"Gambling_GBO",15,"In","ABKCJDIEHFG",NA,"In","HM_OCT","seq3","Gamble_Rand_Seq3","Gamble_Rand_Seq3",4,"Rating","Screen 1","hx8b5a",1,"response","55",1733.39999999999,2684.20000000001,2692.69999999405,1733.39999999999,2684.20000000001,2692.69999999405,1,1733.39999999999,959.299999994051,0,NA,"Slider","MoodSlider",2,"object-243","Rating","happy","not happy","happy",2,"",NA,NA,NA,NA,NA,"Left",NA,2,NA,NA,NA,NA,2,"MDPRF05688"
"29",1730467278768,"01/11/2024 13:21:18",1730467278768,0,"01/11/2024 13:21:18",193496,6,"task-napx",NA,41048034,11986013,NA,"complete",NA,"6724cd3c613e6534e0c95a7e","computer","Desktop or Laptop","Mac OS 10.15.7","Chrome 129.0.0.0","1440x900","1440x812",NA,NA,0,"Gambling_GBO",15,"In","ABKCJDIEHFG",NA,"In","HM_OCT","seq3","Gamble_Rand_Seq3","Gamble_Rand_Seq3",5,"Rating","Screen 1","hx8b5a",1,"info","",17.5,0,17.5,17.5,0,17.5,1,17.5,0,0,NA,"Slider","MoodSlider",2,"object-243","Rating","frustrated","not frustrated","frustrated",2,"",NA,NA,NA,NA,NA,"Left",NA,2,NA,NA,NA,NA,2,"MDPRF05688"
"30",1730467280203,"01/11/2024 13:21:20",1730467280203,0,"01/11/2024 13:21:20",193496,6,"task-napx",NA,41048034,11986013,NA,"complete",NA,"6724cd3c613e6534e0c95a7e","computer","Desktop or Laptop","Mac OS 10.15.7","Chrome 129.0.0.0","1440x900","1440x812",NA,NA,0,"Gambling_GBO",15,"In","ABKCJDIEHFG",NA,"In","HM_OCT","seq3","Gamble_Rand_Seq3","Gamble_Rand_Seq3",5,"Rating","Screen 1","hx8b5a",1,"continue","",1457.19999998211,1449.10000000001,1457.19999998211,1457.19999998211,1449.10000000001,1457.19999998211,1,1457.19999998211,0,0,NA,"Click To Continue","Continue Button",3,"object-25","Rating","frustrated","not frustrated","frustrated",2,"",NA,NA,NA,NA,NA,"Left",NA,2,NA,NA,NA,NA,2,"MDPRF05688"
"31",1730467280204,"01/11/2024 13:21:20",1730467280204,0,"01/11/2024 13:21:20",193496,6,"task-napx",NA,41048034,11986013,NA,"complete",NA,"6724cd3c613e6534e0c95a7e","computer","Desktop or Laptop","Mac OS 10.15.7","Chrome 129.0.0.0","1440x900","1440x812",NA,NA,0,"Gambling_GBO",15,"In","ABKCJDIEHFG",NA,"In","HM_OCT","seq3","Gamble_Rand_Seq3","Gamble_Rand_Seq3",5,"Rating","Screen 1","hx8b5a",1,"response","33",965.699999999982,1449.10000000001,1457.49999999403,965.699999999982,1449.10000000001,1457.49999999403,1,965.699999999982,491.799999994051,0,NA,"Slider","MoodSlider",2,"object-243","Rating","frustrated","not frustrated","frustrated",2,"",NA,NA,NA,NA,NA,"Left",NA,2,NA,NA,NA,NA,2,"MDPRF05688"
"32",1730467280213,"01/11/2024 13:21:20",1730467280213,0,"01/11/2024 13:21:20",193496,6,"task-napx",NA,41048034,11986013,NA,"complete",NA,"6724cd3c613e6534e0c95a7e","computer","Desktop or Laptop","Mac OS 10.15.7","Chrome 129.0.0.0","1440x900","1440x812",NA,NA,0,"Gambling_GBO",15,"In","ABKCJDIEHFG",NA,"In","HM_OCT","seq3","Gamble_Rand_Seq3","Gamble_Rand_Seq3",6,"Rating","Screen 1","hx8b5a",1,"info","",16.6000000000058,0,16.6000000000058,16.6000000000058,0,16.6000000000058,1,16.6000000000058,0,0,NA,"Slider","MoodSlider",2,"object-243","Rating","bored","not bored","bored",2,"",NA,NA,NA,NA,NA,"Left",NA,2,NA,NA,NA,NA,2,"MDPRF05688"
"33",1730467281588,"01/11/2024 13:21:21",1730467281588,0,"01/11/2024 13:21:21",193496,6,"task-napx",NA,41048034,11986013,NA,"complete",NA,"6724cd3c613e6534e0c95a7e","computer","Desktop or Laptop","Mac OS 10.15.7","Chrome 129.0.0.0","1440x900","1440x812",NA,NA,0,"Gambling_GBO",15,"In","ABKCJDIEHFG",NA,"In","HM_OCT","seq3","Gamble_Rand_Seq3","Gamble_Rand_Seq3",6,"Rating","Screen 1","hx8b5a",1,"continue","",1392.49999998807,1383.59999999998,1392.49999998807,1392.49999998807,1383.59999999998,1392.49999998807,1,1392.49999998807,0,0,NA,"Click To Continue","Continue Button",3,"object-25","Rating","bored","not bored","bored",2,"",NA,NA,NA,NA,NA,"Left",NA,2,NA,NA,NA,NA,2,"MDPRF05688"
"34",1730467281589,"01/11/2024 13:21:21",1730467281589,0,"01/11/2024 13:21:21",193496,6,"task-napx",NA,41048034,11986013,NA,"complete",NA,"6724cd3c613e6534e0c95a7e","computer","Desktop or Laptop","Mac OS 10.15.7","Chrome 129.0.0.0","1440x900","1440x812",NA,NA,0,"Gambling_GBO",15,"In","ABKCJDIEHFG",NA,"In","HM_OCT","seq3","Gamble_Rand_Seq3","Gamble_Rand_Seq3",6,"Rating","Screen 1","hx8b5a",1,"response","38",950.399999999994,1383.59999999998,1393.29999999999,950.399999999994,1383.59999999998,1393.29999999999,1,950.399999999994,442.899999999994,0,NA,"Slider","MoodSlider",2,"object-243","Rating","bored","not bored","bored",2,"",NA,NA,NA,NA,NA,"Left",NA,2,NA,NA,NA,NA,2,"MDPRF05688"
"35",1730467283547,"01/11/2024 13:21:23",1730467283547,0,"01/11/2024 13:21:23",193496,6,"task-napx",NA,41048034,11986013,NA,"complete",NA,"6724cd3c613e6534e0c95a7e","computer","Desktop or Laptop","Mac OS 10.15.7","Chrome 129.0.0.0","1440x900","1440x812",NA,NA,0,"Gambling_GBO",15,"In","ABKCJDIEHFG",NA,"In","HM_OCT","seq3","Gamble_Rand_Seq3","Gamble_Rand_Seq3",2,"lossB","Screen 1","a4fynh",1,"continue","",1967.40000000002,1967.40000000002,1967.40000000002,1967.40000000002,1967.40000000002,1967.40000000002,1,1967.40000000002,0,0,NA,"Fixation Timing","Fixation",1,"object-113","lossB","","","",NA,"Right",-3.67,-4,-3,2,NA,"Left",NA,2,NA,NA,NA,NA,2,"MDPRF05688"
"36",1730467290215,"01/11/2024 13:21:30",1730467290215,0,"01/11/2024 13:21:30",193496,6,"task-napx",NA,41048034,11986013,NA,"complete",NA,"6724cd3c613e6534e0c95a7e","computer","Desktop or Laptop","Mac OS 10.15.7","Chrome 129.0.0.0","1440x900","1440x812",NA,NA,0,"Gambling_GBO",15,"In","ABKCJDIEHFG",NA,"In","HM_OCT","seq3","Gamble_Rand_Seq3","Gamble_Rand_Seq3",2,"lossB","choice","k9qq8f",2,"response","Right",6666.19999997615,6650.59999999998,6666.19999997615,6666.19999997615,6650.59999999998,6666.19999997615,1,6666.19999997615,0,0,NA,"Keyboard Response","KeyResponseG",6,"object-200","lossB","","","",NA,"Right",-3.67,-4,-3,2,NA,"Right",NA,-2,NA,NA,NA,NA,-4,"MDPRF05688"
"37",1730467294200,"01/11/2024 13:21:34",1730467294200,0,"01/11/2024 13:21:34",193496,6,"task-napx",NA,41048034,11986013,NA,"complete",NA,"6724cd3c613e6534e0c95a7e","computer","Desktop or Laptop","Mac OS 10.15.7","Chrome 129.0.0.0","1440x900","1440x812",NA,NA,0,"Gambling_GBO",15,"In","ABKCJDIEHFG",NA,"In","HM_OCT","seq3","Gamble_Rand_Seq3","Gamble_Rand_Seq3",2,"lossB","gamble","tpcid5",3,"timedOut","",4000.89999998809,4000.30000000002,4000.89999998809,4000.89999998809,4000.30000000002,4000.89999998809,1,4000.89999998809,0,0,NA,"Time Limit","screen",0,"screen","lossB","","","",NA,"Right",-3.67,-4,-3,2,NA,"Right",NA,-2,NA,NA,NA,NA,-4,"MDPRF05688"
"38",1730467295201,"01/11/2024 13:21:35",1730467295201,0,"01/11/2024 13:21:35",193496,6,"task-napx",NA,41048034,11986013,NA,"complete",NA,"6724cd3c613e6534e0c95a7e","computer","Desktop or Laptop","Mac OS 10.15.7","Chrome 129.0.0.0","1440x900","1440x812",NA,NA,0,"Gambling_GBO",15,"In","ABKCJDIEHFG",NA,"In","HM_OCT","seq3","Gamble_Rand_Seq3","Gamble_Rand_Seq3",2,"lossB","loss","2apfzp",4,"timedOut","",1000.69999998211,1000.10000000001,1000.69999998211,1000.69999998211,1000.10000000001,1000.69999998211,1,1000.69999998211,0,0,NA,"Time Limit","screen",0,"screen","lossB","","","",NA,"Right",-3.67,-4,-3,2,NA,"Right",NA,-2,NA,NA,NA,NA,-4,"MDPRF05688"
"39",1730467295216,"01/11/2024 13:21:35",1730467295216,0,"01/11/2024 13:21:35",193496,6,"task-napx",NA,41048034,11986013,NA,"complete",NA,"6724cd3c613e6534e0c95a7e","computer","Desktop or Laptop","Mac OS 10.15.7","Chrome 129.0.0.0","1440x900","1440x812",NA,NA,0,"Gambling_GBO",15,"In","ABKCJDIEHFG",NA,"In","HM_OCT","seq3","Gamble_Rand_Seq3","Gamble_Rand_Seq3",7,"Rating","Screen 1","hx8b5a",1,"info","",15.7999999999884,0,15.7999999999884,15.7999999999884,0,15.7999999999884,1,15.7999999999884,0,0,NA,"Slider","MoodSlider",2,"object-243","Rating","bored","not bored","bored",3,"",NA,NA,NA,NA,NA,"Right",NA,-2,NA,NA,NA,NA,-4,"MDPRF05688"
"40",1730467297295,"01/11/2024 13:21:37",1730467297295,0,"01/11/2024 13:21:37",193496,6,"task-napx",NA,41048034,11986013,NA,"complete",NA,"6724cd3c613e6534e0c95a7e","computer","Desktop or Laptop","Mac OS 10.15.7","Chrome 129.0.0.0","1440x900","1440x812",NA,NA,0,"Gambling_GBO",15,"In","ABKCJDIEHFG",NA,"In","HM_OCT","seq3","Gamble_Rand_Seq3","Gamble_Rand_Seq3",7,"Rating","Screen 1","hx8b5a",1,"continue","",2091.69999997615,2083.39999999999,2091.69999997615,2091.69999997615,2083.39999999999,2091.69999997615,1,2091.69999997615,0,0,NA,"Click To Continue","Continue Button",3,"object-25","Rating","bored","not bored","bored",3,"",NA,NA,NA,NA,NA,"Right",NA,-2,NA,NA,NA,NA,-4,"MDPRF05688"
"41",1730467297295,"01/11/2024 13:21:37",1730467297295,0,"01/11/2024 13:21:37",193496,6,"task-napx",NA,41048034,11986013,NA,"complete",NA,"6724cd3c613e6534e0c95a7e","computer","Desktop or Laptop","Mac OS 10.15.7","Chrome 129.0.0.0","1440x900","1440x812",NA,NA,0,"Gambling_GBO",15,"In","ABKCJDIEHFG",NA,"In","HM_OCT","seq3","Gamble_Rand_Seq3","Gamble_Rand_Seq3",7,"Rating","Screen 1","hx8b5a",1,"response","28",1483.39999999999,2083.39999999999,2092.29999999999,1483.39999999999,2083.39999999999,2092.29999999999,1,1483.39999999999,608.899999999994,0,NA,"Slider","MoodSlider",2,"object-243","Rating","bored","not bored","bored",3,"",NA,NA,NA,NA,NA,"Right",NA,-2,NA,NA,NA,NA,-4,"MDPRF05688"
"42",1730467297310,"01/11/2024 13:21:37",1730467297310,0,"01/11/2024 13:21:37",193496,6,"task-napx",NA,41048034,11986013,NA,"complete",NA,"6724cd3c613e6534e0c95a7e","computer","Desktop or Laptop","Mac OS 10.15.7","Chrome 129.0.0.0","1440x900","1440x812",NA,NA,0,"Gambling_GBO",15,"In","ABKCJDIEHFG",NA,"In","HM_OCT","seq3","Gamble_Rand_Seq3","Gamble_Rand_Seq3",8,"Rating","Screen 1","hx8b5a",1,"info","",17.7000000000116,0,17.7000000000116,17.7000000000116,0,17.7000000000116,1,17.7000000000116,0,0,NA,"Slider","MoodSlider",2,"object-243","Rating","frustrated","not frustrated","frustrated",3,"",NA,NA,NA,NA,NA,"Right",NA,-2,NA,NA,NA,NA,-4,"MDPRF05688"
"43",1730467298529,"01/11/2024 13:21:38",1730467298529,0,"01/11/2024 13:21:38",193496,6,"task-napx",NA,41048034,11986013,NA,"complete",NA,"6724cd3c613e6534e0c95a7e","computer","Desktop or Laptop","Mac OS 10.15.7","Chrome 129.0.0.0","1440x900","1440x812",NA,NA,0,"Gambling_GBO",15,"In","ABKCJDIEHFG",NA,"In","HM_OCT","seq3","Gamble_Rand_Seq3","Gamble_Rand_Seq3",8,"Rating","Screen 1","hx8b5a",1,"continue","",1241.29999997615,1233.39999999999,1241.29999997615,1241.29999997615,1233.39999999999,1241.29999997615,1,1241.29999997615,0,0,NA,"Click To Continue","Continue Button",3,"object-25","Rating","frustrated","not frustrated","frustrated",3,"",NA,NA,NA,NA,NA,"Right",NA,-2,NA,NA,NA,NA,-4,"MDPRF05688"
"44",1730467298530,"01/11/2024 13:21:38",1730467298530,0,"01/11/2024 13:21:38",193496,6,"task-napx",NA,41048034,11986013,NA,"complete",NA,"6724cd3c613e6534e0c95a7e","computer","Desktop or Laptop","Mac OS 10.15.7","Chrome 129.0.0.0","1440x900","1440x812",NA,NA,0,"Gambling_GBO",15,"In","ABKCJDIEHFG",NA,"In","HM_OCT","seq3","Gamble_Rand_Seq3","Gamble_Rand_Seq3",8,"Rating","Screen 1","hx8b5a",1,"response","41",799.299999999988,1233.39999999999,1241.99999999403,799.299999999988,1233.39999999999,1241.99999999403,1,799.299999999988,442.699999994045,0,NA,"Slider","MoodSlider",2,"object-243","Rating","frustrated","not frustrated","frustrated",3,"",NA,NA,NA,NA,NA,"Right",NA,-2,NA,NA,NA,NA,-4,"MDPRF05688"
"45",1730467298545,"01/11/2024 13:21:38",1730467298545,0,"01/11/2024 13:21:38",193496,6,"task-napx",NA,41048034,11986013,NA,"complete",NA,"6724cd3c613e6534e0c95a7e","computer","Desktop or Laptop","Mac OS 10.15.7","Chrome 129.0.0.0","1440x900","1440x812",NA,NA,0,"Gambling_GBO",15,"In","ABKCJDIEHFG",NA,"In","HM_OCT","seq3","Gamble_Rand_Seq3","Gamble_Rand_Seq3",9,"Rating","Screen 1","hx8b5a",1,"info","",16.7000000000116,0,16.7000000000116,16.7000000000116,0,16.7000000000116,1,16.7000000000116,0,0,NA,"Slider","MoodSlider",2,"object-243","Rating","happy","not happy","happy",3,"",NA,NA,NA,NA,NA,"Right",NA,-2,NA,NA,NA,NA,-4,"MDPRF05688"
"46",1730467300465,"01/11/2024 13:21:40",1730467300465,0,"01/11/2024 13:21:40",193496,6,"task-napx",NA,41048034,11986013,NA,"complete",NA,"6724cd3c613e6534e0c95a7e","computer","Desktop or Laptop","Mac OS 10.15.7","Chrome 129.0.0.0","1440x900","1440x812",NA,NA,0,"Gambling_GBO",15,"In","ABKCJDIEHFG",NA,"In","HM_OCT","seq3","Gamble_Rand_Seq3","Gamble_Rand_Seq3",9,"Rating","Screen 1","hx8b5a",1,"continue","",1941.69999998808,1933.5,1941.69999998808,1941.69999998808,1933.5,1941.69999998808,1,1941.69999998808,0,0,NA,"Click To Continue","Continue Button",3,"object-25","Rating","happy","not happy","happy",3,"",NA,NA,NA,NA,NA,"Right",NA,-2,NA,NA,NA,NA,-4,"MDPRF05688"
"47",1730467300473,"01/11/2024 13:21:40",1730467300473,0,"01/11/2024 13:21:40",193496,6,"task-napx",NA,41048034,11986013,NA,"complete",NA,"6724cd3c613e6534e0c95a7e","computer","Desktop or Laptop","Mac OS 10.15.7","Chrome 129.0.0.0","1440x900","1440x812",NA,NA,0,"Gambling_GBO",15,"In","ABKCJDIEHFG",NA,"In","HM_OCT","seq3","Gamble_Rand_Seq3","Gamble_Rand_Seq3",9,"Rating","Screen 1","hx8b5a",1,"response","56",1016.79999999999,1933.5,1949.89999997616,1016.79999999999,1933.5,1949.89999997616,1,1016.79999999999,933.09999997617,0,NA,"Slider","MoodSlider",2,"object-243","Rating","happy","not happy","happy",3,"",NA,NA,NA,NA,NA,"Right",NA,-2,NA,NA,NA,NA,-4,"MDPRF05688"
"48",1730467302425,"01/11/2024 13:21:42",1730467302425,0,"01/11/2024 13:21:42",193496,6,"task-napx",NA,41048034,11986013,NA,"complete",NA,"6724cd3c613e6534e0c95a7e","computer","Desktop or Laptop","Mac OS 10.15.7","Chrome 129.0.0.0","1440x900","1440x812",NA,NA,0,"Gambling_GBO",15,"In","ABKCJDIEHFG",NA,"In","HM_OCT","seq3","Gamble_Rand_Seq3","Gamble_Rand_Seq3",1,"winB","Screen 1","pkkyi8",1,"continue","",1966.39999999999,1966.39999999999,1966.39999999999,1966.39999999999,1966.39999999999,1966.39999999999,1,1966.39999999999,0,0,NA,"Fixation Timing","Fixation",1,"object-246","winB","","","",NA,"Right",0.33,0,1,3,NA,"Right",NA,-2,NA,NA,NA,NA,-4,"MDPRF05688"
"49",1730467305602,"01/11/2024 13:21:45",1730467305602,0,"01/11/2024 13:21:45",193496,6,"task-napx",NA,41048034,11986013,NA,"complete",NA,"6724cd3c613e6534e0c95a7e","computer","Desktop or Laptop","Mac OS 10.15.7","Chrome 129.0.0.0","1440x900","1440x812",NA,NA,0,"Gambling_GBO",15,"In","ABKCJDIEHFG",NA,"In","HM_OCT","seq3","Gamble_Rand_Seq3","Gamble_Rand_Seq3",1,"winB","choice","5lszbx",2,"response","Right",3173.60000000001,3167.20000000001,3173.60000000001,3173.60000000001,3167.20000000001,3173.60000000001,1,3173.60000000001,0,0,NA,"Keyboard Response","KeyResponseG",6,"object-256","winB","","","",NA,"Right",0.33,0,1,3,NA,"Right",NA,-1,NA,NA,NA,NA,1,"MDPRF05688"
"50",1730467309597,"01/11/2024 13:21:49",1730467309597,0,"01/11/2024 13:21:49",193496,6,"task-napx",NA,41048034,11986013,NA,"complete",NA,"6724cd3c613e6534e0c95a7e","computer","Desktop or Laptop","Mac OS 10.15.7","Chrome 129.0.0.0","1440x900","1440x812",NA,NA,0,"Gambling_GBO",15,"In","ABKCJDIEHFG",NA,"In","HM_OCT","seq3","Gamble_Rand_Seq3","Gamble_Rand_Seq3",1,"winB","gamble","17lgr3",3,"timedOut","",4001.19999998211,4000.5,4001.19999998211,4001.19999998211,4000.5,4001.19999998211,1,4001.19999998211,0,0,NA,"Time Limit","screen",0,"screen","winB","","","",NA,"Right",0.33,0,1,3,NA,"Right",NA,-1,NA,NA,NA,NA,1,"MDPRF05688"
"51",1730467310598,"01/11/2024 13:21:50",1730467310598,0,"01/11/2024 13:21:50",193496,6,"task-napx",NA,41048034,11986013,NA,"complete",NA,"6724cd3c613e6534e0c95a7e","computer","Desktop or Laptop","Mac OS 10.15.7","Chrome 129.0.0.0","1440x900","1440x812",NA,NA,0,"Gambling_GBO",15,"In","ABKCJDIEHFG",NA,"In","HM_OCT","seq3","Gamble_Rand_Seq3","Gamble_Rand_Seq3",1,"winB","win","dzz5jr",4,"timedOut","",1000.69999998211,1000,1000.69999998211,1000.69999998211,1000,1000.69999998211,1,1000.69999998211,0,0,NA,"Time Limit","screen",0,"screen","winB","","","",NA,"Right",0.33,0,1,3,NA,"Right",NA,-1,NA,NA,NA,NA,1,"MDPRF05688"
"52",1730467310616,"01/11/2024 13:21:50",1730467310616,0,"01/11/2024 13:21:50",193496,6,"task-napx",NA,41048034,11986013,NA,"complete",NA,"6724cd3c613e6534e0c95a7e","computer","Desktop or Laptop","Mac OS 10.15.7","Chrome 129.0.0.0","1440x900","1440x812",NA,NA,0,"Gambling_GBO",15,"In","ABKCJDIEHFG",NA,"In","HM_OCT","seq3","Gamble_Rand_Seq3","Gamble_Rand_Seq3",10,"Rating","Screen 1","hx8b5a",1,"info","",16.7000000000116,0,16.7000000000116,16.7000000000116,0,16.7000000000116,1,16.7000000000116,0,0,NA,"Slider","MoodSlider",2,"object-243","Rating","happy","not happy","happy",4,"",NA,NA,NA,NA,NA,"Right",NA,-1,NA,NA,NA,NA,1,"MDPRF05688"
"53",1730467312457,"01/11/2024 13:21:52",1730467312457,0,"01/11/2024 13:21:52",193496,6,"task-napx",NA,41048034,11986013,NA,"complete",NA,"6724cd3c613e6534e0c95a7e","computer","Desktop or Laptop","Mac OS 10.15.7","Chrome 129.0.0.0","1440x900","1440x812",NA,NA,0,"Gambling_GBO",15,"In","ABKCJDIEHFG",NA,"In","HM_OCT","seq3","Gamble_Rand_Seq3","Gamble_Rand_Seq3",10,"Rating","Screen 1","hx8b5a",1,"continue","",1858.39999999999,1849.89999999999,1858.39999999999,1858.39999999999,1849.89999999999,1858.39999999999,1,1858.39999999999,0,0,NA,"Click To Continue","Continue Button",3,"object-25","Rating","happy","not happy","happy",4,"",NA,NA,NA,NA,NA,"Right",NA,-1,NA,NA,NA,NA,1,"MDPRF05688"
"54",1730467312457,"01/11/2024 13:21:52",1730467312457,0,"01/11/2024 13:21:52",193496,6,"task-napx",NA,41048034,11986013,NA,"complete",NA,"6724cd3c613e6534e0c95a7e","computer","Desktop or Laptop","Mac OS 10.15.7","Chrome 129.0.0.0","1440x900","1440x812",NA,NA,0,"Gambling_GBO",15,"In","ABKCJDIEHFG",NA,"In","HM_OCT","seq3","Gamble_Rand_Seq3","Gamble_Rand_Seq3",10,"Rating","Screen 1","hx8b5a",1,"response","79",1216.10000000001,1849.89999999999,1859.09999998807,1216.10000000001,1849.89999999999,1859.09999998807,1,1216.10000000001,642.999999988067,0,NA,"Slider","MoodSlider",2,"object-243","Rating","happy","not happy","happy",4,"",NA,NA,NA,NA,NA,"Right",NA,-1,NA,NA,NA,NA,1,"MDPRF05688"
"55",1730467312470,"01/11/2024 13:21:52",1730467312470,0,"01/11/2024 13:21:52",193496,6,"task-napx",NA,41048034,11986013,NA,"complete",NA,"6724cd3c613e6534e0c95a7e","computer","Desktop or Laptop","Mac OS 10.15.7","Chrome 129.0.0.0","1440x900","1440x812",NA,NA,0,"Gambling_GBO",15,"In","ABKCJDIEHFG",NA,"In","HM_OCT","seq3","Gamble_Rand_Seq3","Gamble_Rand_Seq3",11,"Rating","Screen 1","hx8b5a",1,"info","",17.1000000000058,0,17.1000000000058,17.1000000000058,0,17.1000000000058,1,17.1000000000058,0,0,NA,"Slider","MoodSlider",2,"object-243","Rating","bored","not bored","bored",4,"",NA,NA,NA,NA,NA,"Right",NA,-1,NA,NA,NA,NA,1,"MDPRF05688"
"56",1730467313907,"01/11/2024 13:21:53",1730467313907,0,"01/11/2024 13:21:53",193496,6,"task-napx",NA,41048034,11986013,NA,"complete",NA,"6724cd3c613e6534e0c95a7e","computer","Desktop or Laptop","Mac OS 10.15.7","Chrome 129.0.0.0","1440x900","1440x812",NA,NA,0,"Gambling_GBO",15,"In","ABKCJDIEHFG",NA,"In","HM_OCT","seq3","Gamble_Rand_Seq3","Gamble_Rand_Seq3",11,"Rating","Screen 1","hx8b5a",1,"continue","",1458.5,1450.29999999999,1458.5,1458.5,1450.29999999999,1458.5,1,1458.5,0,0,NA,"Click To Continue","Continue Button",3,"object-25","Rating","bored","not bored","bored",4,"",NA,NA,NA,NA,NA,"Right",NA,-1,NA,NA,NA,NA,1,"MDPRF05688"
"57",1730467313908,"01/11/2024 13:21:53",1730467313908,0,"01/11/2024 13:21:53",193496,6,"task-napx",NA,41048034,11986013,NA,"complete",NA,"6724cd3c613e6534e0c95a7e","computer","Desktop or Laptop","Mac OS 10.15.7","Chrome 129.0.0.0","1440x900","1440x812",NA,NA,0,"Gambling_GBO",15,"In","ABKCJDIEHFG",NA,"In","HM_OCT","seq3","Gamble_Rand_Seq3","Gamble_Rand_Seq3",11,"Rating","Screen 1","hx8b5a",1,"response","29",866.899999999994,1450.29999999999,1459.39999997616,866.899999999994,1450.29999999999,1459.39999997616,1,866.899999999994,592.499999976164,0,NA,"Slider","MoodSlider",2,"object-243","Rating","bored","not bored","bored",4,"",NA,NA,NA,NA,NA,"Right",NA,-1,NA,NA,NA,NA,1,"MDPRF05688"
"58",1730467313921,"01/11/2024 13:21:53",1730467313921,0,"01/11/2024 13:21:53",193496,6,"task-napx",NA,41048034,11986013,NA,"complete",NA,"6724cd3c613e6534e0c95a7e","computer","Desktop or Laptop","Mac OS 10.15.7","Chrome 129.0.0.0","1440x900","1440x812",NA,NA,0,"Gambling_GBO",15,"In","ABKCJDIEHFG",NA,"In","HM_OCT","seq3","Gamble_Rand_Seq3","Gamble_Rand_Seq3",12,"Rating","Screen 1","hx8b5a",1,"info","",16.6999999999825,0,16.6999999999825,16.6999999999825,0,16.6999999999825,1,16.6999999999825,0,0,NA,"Slider","MoodSlider",2,"object-243","Rating","frustrated","not frustrated","frustrated",4,"",NA,NA,NA,NA,NA,"Right",NA,-1,NA,NA,NA,NA,1,"MDPRF05688"
"59",1730467315191,"01/11/2024 13:21:55",1730467315191,0,"01/11/2024 13:21:55",193496,6,"task-napx",NA,41048034,11986013,NA,"complete",NA,"6724cd3c613e6534e0c95a7e","computer","Desktop or Laptop","Mac OS 10.15.7","Chrome 129.0.0.0","1440x900","1440x812",NA,NA,0,"Gambling_GBO",15,"In","ABKCJDIEHFG",NA,"In","HM_OCT","seq3","Gamble_Rand_Seq3","Gamble_Rand_Seq3",12,"Rating","Screen 1","hx8b5a",1,"continue","",1291.49999998213,1282.5,1291.49999998213,1291.49999998213,1282.5,1291.49999998213,1,1291.49999998213,0,0,NA,"Click To Continue","Continue Button",3,"object-25","Rating","frustrated","not frustrated","frustrated",4,"",NA,NA,NA,NA,NA,"Right",NA,-1,NA,NA,NA,NA,1,"MDPRF05688"
"60",1730467315192,"01/11/2024 13:21:55",1730467315192,0,"01/11/2024 13:21:55",193496,6,"task-napx",NA,41048034,11986013,NA,"complete",NA,"6724cd3c613e6534e0c95a7e","computer","Desktop or Laptop","Mac OS 10.15.7","Chrome 129.0.0.0","1440x900","1440x812",NA,NA,0,"Gambling_GBO",15,"In","ABKCJDIEHFG",NA,"In","HM_OCT","seq3","Gamble_Rand_Seq3","Gamble_Rand_Seq3",12,"Rating","Screen 1","hx8b5a",1,"response","35",616.700000000012,1282.5,1292.29999999405,616.700000000012,1282.5,1292.29999999405,1,616.700000000012,675.59999999404,0,NA,"Slider","MoodSlider",2,"object-243","Rating","frustrated","not frustrated","frustrated",4,"",NA,NA,NA,NA,NA,"Right",NA,-1,NA,NA,NA,NA,1,"MDPRF05688"
"61",1730467317150,"01/11/2024 13:21:57",1730467317150,0,"01/11/2024 13:21:57",193496,6,"task-napx",NA,41048034,11986013,NA,"complete",NA,"6724cd3c613e6534e0c95a7e","computer","Desktop or Laptop","Mac OS 10.15.7","Chrome 129.0.0.0","1440x900","1440x812",NA,NA,0,"Gambling_GBO",15,"In","ABKCJDIEHFG",NA,"In","HM_OCT","seq3","Gamble_Rand_Seq3","Gamble_Rand_Seq3",2,"winB","Screen 1","pkkyi8",1,"continue","",1967.60000000001,1967.60000000001,1967.60000000001,1967.60000000001,1967.60000000001,1967.60000000001,1,1967.60000000001,0,0,NA,"Fixation Timing","Fixation",1,"object-246","winB","","","",NA,"Right",-2,-3,0,4,NA,"Right",NA,-1,NA,NA,NA,NA,1,"MDPRF05688"
"62",1730467320776,"01/11/2024 13:22:00",1730467320776,0,"01/11/2024 13:22:00",193496,6,"task-napx",NA,41048034,11986013,NA,"complete",NA,"6724cd3c613e6534e0c95a7e","computer","Desktop or Laptop","Mac OS 10.15.7","Chrome 129.0.0.0","1440x900","1440x812",NA,NA,0,"Gambling_GBO",15,"In","ABKCJDIEHFG",NA,"In","HM_OCT","seq3","Gamble_Rand_Seq3","Gamble_Rand_Seq3",2,"winB","choice","5lszbx",2,"response","Right",3623.89999998212,3616.20000000001,3623.89999998212,3623.89999998212,3616.20000000001,3623.89999998212,1,3623.89999998212,0,0,NA,"Keyboard Response","KeyResponseG",6,"object-256","winB","","","",NA,"Right",-2,-3,0,4,NA,"Right",NA,-1,NA,NA,NA,NA,0,"MDPRF05688"
"63",1730467324771,"01/11/2024 13:22:04",1730467324771,0,"01/11/2024 13:22:04",193496,6,"task-napx",NA,41048034,11986013,NA,"complete",NA,"6724cd3c613e6534e0c95a7e","computer","Desktop or Laptop","Mac OS 10.15.7","Chrome 129.0.0.0","1440x900","1440x812",NA,NA,0,"Gambling_GBO",15,"In","ABKCJDIEHFG",NA,"In","HM_OCT","seq3","Gamble_Rand_Seq3","Gamble_Rand_Seq3",2,"winB","gamble","17lgr3",3,"timedOut","",4003.29999997615,4000.5,4003.29999997615,4003.29999997615,4000.5,4003.29999997615,1,4003.29999997615,0,0,NA,"Time Limit","screen",0,"screen","winB","","","",NA,"Right",-2,-3,0,4,NA,"Right",NA,-1,NA,NA,NA,NA,0,"MDPRF05688"
"64",1730467325770,"01/11/2024 13:22:05",1730467325770,0,"01/11/2024 13:22:05",193496,6,"task-napx",NA,41048034,11986013,NA,"complete",NA,"6724cd3c613e6534e0c95a7e","computer","Desktop or Laptop","Mac OS 10.15.7","Chrome 129.0.0.0","1440x900","1440x812",NA,NA,0,"Gambling_GBO",15,"In","ABKCJDIEHFG",NA,"In","HM_OCT","seq3","Gamble_Rand_Seq3","Gamble_Rand_Seq3",2,"winB","win","dzz5jr",4,"timedOut","",1001.29999997615,1000.60000000001,1001.29999997615,1001.29999997615,1000.60000000001,1001.29999997615,1,1001.29999997615,0,0,NA,"Time Limit","screen",0,"screen","winB","","","",NA,"Right",-2,-3,0,4,NA,"Right",NA,-1,NA,NA,NA,NA,0,"MDPRF05688"
"65",1730467325785,"01/11/2024 13:22:05",1730467325785,0,"01/11/2024 13:22:05",193496,6,"task-napx",NA,41048034,11986013,NA,"complete",NA,"6724cd3c613e6534e0c95a7e","computer","Desktop or Laptop","Mac OS 10.15.7","Chrome 129.0.0.0","1440x900","1440x812",NA,NA,0,"Gambling_GBO",15,"In","ABKCJDIEHFG",NA,"In","HM_OCT","seq3","Gamble_Rand_Seq3","Gamble_Rand_Seq3",13,"Rating","Screen 1","hx8b5a",1,"info","",15.599999982107,0,15.599999982107,15.599999982107,0,15.599999982107,1,15.599999982107,0,0,NA,"Slider","MoodSlider",2,"object-243","Rating","bored","not bored","bored",5,"",NA,NA,NA,NA,NA,"Right",NA,-1,NA,NA,NA,NA,0,"MDPRF05688"
"66",1730467327828,"01/11/2024 13:22:07",1730467327828,0,"01/11/2024 13:22:07",193496,6,"task-napx",NA,41048034,11986013,NA,"complete",NA,"6724cd3c613e6534e0c95a7e","computer","Desktop or Laptop","Mac OS 10.15.7","Chrome 129.0.0.0","1440x900","1440x812",NA,NA,0,"Gambling_GBO",15,"In","ABKCJDIEHFG",NA,"In","HM_OCT","seq3","Gamble_Rand_Seq3","Gamble_Rand_Seq3",13,"Rating","Screen 1","hx8b5a",1,"continue","",2058.19999997615,2050.19999999998,2058.19999997615,2058.19999997615,2050.19999999998,2058.19999997615,1,2058.19999997615,0,0,NA,"Click To Continue","Continue Button",3,"object-25","Rating","bored","not bored","bored",5,"",NA,NA,NA,NA,NA,"Right",NA,-1,NA,NA,NA,NA,0,"MDPRF05688"
"67",1730467327829,"01/11/2024 13:22:07",1730467327829,0,"01/11/2024 13:22:07",193496,6,"task-napx",NA,41048034,11986013,NA,"complete",NA,"6724cd3c613e6534e0c95a7e","computer","Desktop or Laptop","Mac OS 10.15.7","Chrome 129.0.0.0","1440x900","1440x812",NA,NA,0,"Gambling_GBO",15,"In","ABKCJDIEHFG",NA,"In","HM_OCT","seq3","Gamble_Rand_Seq3","Gamble_Rand_Seq3",13,"Rating","Screen 1","hx8b5a",1,"response","28",1132.39999999999,2050.19999999998,2058.89999999403,1132.39999999999,2050.19999999998,2058.89999999403,1,1132.39999999999,926.499999994034,0,NA,"Slider","MoodSlider",2,"object-243","Rating","bored","not bored","bored",5,"",NA,NA,NA,NA,NA,"Right",NA,-1,NA,NA,NA,NA,0,"MDPRF05688"
"68",1730467327842,"01/11/2024 13:22:07",1730467327842,0,"01/11/2024 13:22:07",193496,6,"task-napx",NA,41048034,11986013,NA,"complete",NA,"6724cd3c613e6534e0c95a7e","computer","Desktop or Laptop","Mac OS 10.15.7","Chrome 129.0.0.0","1440x900","1440x812",NA,NA,0,"Gambling_GBO",15,"In","ABKCJDIEHFG",NA,"In","HM_OCT","seq3","Gamble_Rand_Seq3","Gamble_Rand_Seq3",14,"Rating","Screen 1","hx8b5a",1,"info","",16.6999999999825,0,16.6999999999825,16.6999999999825,0,16.6999999999825,1,16.6999999999825,0,0,NA,"Slider","MoodSlider",2,"object-243","Rating","frustrated","not frustrated","frustrated",5,"",NA,NA,NA,NA,NA,"Right",NA,-1,NA,NA,NA,NA,0,"MDPRF05688"
"69",1730467330946,"01/11/2024 13:22:10",1730467330946,0,"01/11/2024 13:22:10",193496,6,"task-napx",NA,41048034,11986013,NA,"complete",NA,"6724cd3c613e6534e0c95a7e","computer","Desktop or Laptop","Mac OS 10.15.7","Chrome 129.0.0.0","1440x900","1440x812",NA,NA,0,"Gambling_GBO",15,"In","ABKCJDIEHFG",NA,"In","HM_OCT","seq3","Gamble_Rand_Seq3","Gamble_Rand_Seq3",14,"Rating","Screen 1","hx8b5a",1,"continue","",3124.89999998212,3116.80000000002,3124.89999998212,3124.89999998212,3116.80000000002,3124.89999998212,1,3124.89999998212,0,0,NA,"Click To Continue","Continue Button",3,"object-25","Rating","frustrated","not frustrated","frustrated",5,"",NA,NA,NA,NA,NA,"Right",NA,-1,NA,NA,NA,NA,0,"MDPRF05688"
"70",1730467330952,"01/11/2024 13:22:10",1730467330952,0,"01/11/2024 13:22:10",193496,6,"task-napx",NA,41048034,11986013,NA,"complete",NA,"6724cd3c613e6534e0c95a7e","computer","Desktop or Laptop","Mac OS 10.15.7","Chrome 129.0.0.0","1440x900","1440x812",NA,NA,0,"Gambling_GBO",15,"In","ABKCJDIEHFG",NA,"In","HM_OCT","seq3","Gamble_Rand_Seq3","Gamble_Rand_Seq3",14,"Rating","Screen 1","hx8b5a",1,"response","16",1133.39999999999,3116.80000000002,3130.99999997616,1133.39999999999,3116.80000000002,3130.99999997616,1,1133.39999999999,1997.59999997617,0,NA,"Slider","MoodSlider",2,"object-243","Rating","frustrated","not frustrated","frustrated",5,"",NA,NA,NA,NA,NA,"Right",NA,-1,NA,NA,NA,NA,0,"MDPRF05688"
"71",1730467330963,"01/11/2024 13:22:10",1730467330963,0,"01/11/2024 13:22:10",193496,6,"task-napx",NA,41048034,11986013,NA,"complete",NA,"6724cd3c613e6534e0c95a7e","computer","Desktop or Laptop","Mac OS 10.15.7","Chrome 129.0.0.0","1440x900","1440x812",NA,NA,0,"Gambling_GBO",15,"In","ABKCJDIEHFG",NA,"In","HM_OCT","seq3","Gamble_Rand_Seq3","Gamble_Rand_Seq3",15,"Rating","Screen 1","hx8b5a",1,"info","",16.6000000000058,0,16.6000000000058,16.6000000000058,0,16.6000000000058,1,16.6000000000058,0,0,NA,"Slider","MoodSlider",2,"object-243","Rating","happy","not happy","happy",5,"",NA,NA,NA,NA,NA,"Right",NA,-1,NA,NA,NA,NA,0,"MDPRF05688"
"72",1730467332162,"01/11/2024 13:22:12",1730467332162,0,"01/11/2024 13:22:12",193496,6,"task-napx",NA,41048034,11986013,NA,"complete",NA,"6724cd3c613e6534e0c95a7e","computer","Desktop or Laptop","Mac OS 10.15.7","Chrome 129.0.0.0","1440x900","1440x812",NA,NA,0,"Gambling_GBO",15,"In","ABKCJDIEHFG",NA,"In","HM_OCT","seq3","Gamble_Rand_Seq3","Gamble_Rand_Seq3",15,"Rating","Screen 1","hx8b5a",1,"continue","",1224.59999998211,1216.79999999999,1224.59999998211,1224.59999998211,1216.79999999999,1224.59999998211,1,1224.59999998211,0,0,NA,"Click To Continue","Continue Button",3,"object-25","Rating","happy","not happy","happy",5,"",NA,NA,NA,NA,NA,"Right",NA,-1,NA,NA,NA,NA,0,"MDPRF05688"
"73",1730467332163,"01/11/2024 13:22:12",1730467332163,0,"01/11/2024 13:22:12",193496,6,"task-napx",NA,41048034,11986013,NA,"complete",NA,"6724cd3c613e6534e0c95a7e","computer","Desktop or Laptop","Mac OS 10.15.7","Chrome 129.0.0.0","1440x900","1440x812",NA,NA,0,"Gambling_GBO",15,"In","ABKCJDIEHFG",NA,"In","HM_OCT","seq3","Gamble_Rand_Seq3","Gamble_Rand_Seq3",15,"Rating","Screen 1","hx8b5a",1,"response","80",649.699999999983,1216.79999999999,1225.09999998211,649.699999999983,1216.79999999999,1225.09999998211,1,649.699999999983,575.399999982124,0,NA,"Slider","MoodSlider",2,"object-243","Rating","happy","not happy","happy",5,"",NA,NA,NA,NA,NA,"Right",NA,-1,NA,NA,NA,NA,0,"MDPRF05688"
"74",1730467334122,"01/11/2024 13:22:14",1730467334122,0,"01/11/2024 13:22:14",193496,6,"task-napx",NA,41048034,11986013,NA,"complete",NA,"6724cd3c613e6534e0c95a7e","computer","Desktop or Laptop","Mac OS 10.15.7","Chrome 129.0.0.0","1440x900","1440x812",NA,NA,0,"Gambling_GBO",15,"In","ABKCJDIEHFG",NA,"In","HM_OCT","seq3","Gamble_Rand_Seq3","Gamble_Rand_Seq3",1,"lossT","Screen 1","2oxi65",1,"continue","",1966.79999999999,1966.79999999999,1966.79999999999,1966.79999999999,1966.79999999999,1966.79999999999,1,1966.79999999999,0,0,NA,"Fixation Timing","Fixation",1,"object-354","lossT","","","",NA,"Right",0.33,-1,3,5,NA,"Right",NA,-1,NA,NA,NA,NA,0,"MDPRF05688"
"75",1730467336699,"01/11/2024 13:22:16",1730467336699,0,"01/11/2024 13:22:16",193496,6,"task-napx",NA,41048034,11986013,NA,"complete",NA,"6724cd3c613e6534e0c95a7e","computer","Desktop or Laptop","Mac OS 10.15.7","Chrome 129.0.0.0","1440x900","1440x812",NA,NA,0,"Gambling_GBO",15,"In","ABKCJDIEHFG",NA,"In","HM_OCT","seq3","Gamble_Rand_Seq3","Gamble_Rand_Seq3",1,"lossT","choice","zjftf8",2,"response","Right",2575.89999998809,2566.80000000002,2575.89999998809,2575.89999998809,2566.80000000002,2575.89999998809,1,2575.89999998809,0,0,NA,"Keyboard Response","KeyResponseG",6,"object-352","lossT","","","",NA,"Right",0.33,-1,3,5,NA,"Right",NA,-2,NA,NA,NA,NA,-1,"MDPRF05688"
"76",1730467340690,"01/11/2024 13:22:20",1730467340690,0,"01/11/2024 13:22:20",193496,6,"task-napx",NA,41048034,11986013,NA,"complete",NA,"6724cd3c613e6534e0c95a7e","computer","Desktop or Laptop","Mac OS 10.15.7","Chrome 129.0.0.0","1440x900","1440x812",NA,NA,0,"Gambling_GBO",15,"In","ABKCJDIEHFG",NA,"In","HM_OCT","seq3","Gamble_Rand_Seq3","Gamble_Rand_Seq3",1,"lossT","gamble","h5bf9r",3,"timedOut","",4000.89999999999,4000.29999999999,4000.89999999999,4000.89999999999,4000.29999999999,4000.89999999999,1,4000.89999999999,0,0,NA,"Time Limit","screen",0,"screen","lossT","","","",NA,"Right",0.33,-1,3,5,NA,"Right",NA,-2,NA,NA,NA,NA,-1,"MDPRF05688"
"77",1730467341690,"01/11/2024 13:22:21",1730467341690,0,"01/11/2024 13:22:21",193496,6,"task-napx",NA,41048034,11986013,NA,"complete",NA,"6724cd3c613e6534e0c95a7e","computer","Desktop or Laptop","Mac OS 10.15.7","Chrome 129.0.0.0","1440x900","1440x812",NA,NA,0,"Gambling_GBO",15,"In","ABKCJDIEHFG",NA,"In","HM_OCT","seq3","Gamble_Rand_Seq3","Gamble_Rand_Seq3",1,"lossT","loss","kmnw8b",4,"timedOut","",1000.69999999405,1000,1000.69999999405,1000.69999999405,1000,1000.69999999405,1,1000.69999999405,0,0,NA,"Time Limit","screen",0,"screen","lossT","","","",NA,"Right",0.33,-1,3,5,NA,"Right",NA,-2,NA,NA,NA,NA,-1,"MDPRF05688"
"78",1730467341709,"01/11/2024 13:22:21",1730467341709,0,"01/11/2024 13:22:21",193496,6,"task-napx",NA,41048034,11986013,NA,"complete",NA,"6724cd3c613e6534e0c95a7e","computer","Desktop or Laptop","Mac OS 10.15.7","Chrome 129.0.0.0","1440x900","1440x812",NA,NA,0,"Gambling_GBO",15,"In","ABKCJDIEHFG",NA,"In","HM_OCT","seq3","Gamble_Rand_Seq3","Gamble_Rand_Seq3",16,"Rating","Screen 1","hx8b5a",1,"info","",16.6000000000058,0,16.6000000000058,16.6000000000058,0,16.6000000000058,1,16.6000000000058,0,0,NA,"Slider","MoodSlider",2,"object-243","Rating","frustrated","not frustrated","frustrated",6,"",NA,NA,NA,NA,NA,"Right",NA,-2,NA,NA,NA,NA,-1,"MDPRF05688"
"79",1730467343598,"01/11/2024 13:22:23",1730467343598,0,"01/11/2024 13:22:23",193496,6,"task-napx",NA,41048034,11986013,NA,"complete",NA,"6724cd3c613e6534e0c95a7e","computer","Desktop or Laptop","Mac OS 10.15.7","Chrome 129.0.0.0","1440x900","1440x812",NA,NA,0,"Gambling_GBO",15,"In","ABKCJDIEHFG",NA,"In","HM_OCT","seq3","Gamble_Rand_Seq3","Gamble_Rand_Seq3",16,"Rating","Screen 1","hx8b5a",1,"continue","",1908.19999999405,1900.39999999999,1908.19999999405,1908.19999999405,1900.39999999999,1908.19999999405,1,1908.19999999405,0,0,NA,"Click To Continue","Continue Button",3,"object-25","Rating","frustrated","not frustrated","frustrated",6,"",NA,NA,NA,NA,NA,"Right",NA,-2,NA,NA,NA,NA,-1,"MDPRF05688"
"80",1730467343598,"01/11/2024 13:22:23",1730467343598,0,"01/11/2024 13:22:23",193496,6,"task-napx",NA,41048034,11986013,NA,"complete",NA,"6724cd3c613e6534e0c95a7e","computer","Desktop or Laptop","Mac OS 10.15.7","Chrome 129.0.0.0","1440x900","1440x812",NA,NA,0,"Gambling_GBO",15,"In","ABKCJDIEHFG",NA,"In","HM_OCT","seq3","Gamble_Rand_Seq3","Gamble_Rand_Seq3",16,"Rating","Screen 1","hx8b5a",1,"response","47",1350.10000000001,1900.39999999999,1908.69999999405,1350.10000000001,1900.39999999999,1908.69999999405,1,1350.10000000001,558.59999999404,0,NA,"Slider","MoodSlider",2,"object-243","Rating","frustrated","not frustrated","frustrated",6,"",NA,NA,NA,NA,NA,"Right",NA,-2,NA,NA,NA,NA,-1,"MDPRF05688"
"81",1730467343609,"01/11/2024 13:22:23",1730467343609,0,"01/11/2024 13:22:23",193496,6,"task-napx",NA,41048034,11986013,NA,"complete",NA,"6724cd3c613e6534e0c95a7e","computer","Desktop or Laptop","Mac OS 10.15.7","Chrome 129.0.0.0","1440x900","1440x812",NA,NA,0,"Gambling_GBO",15,"In","ABKCJDIEHFG",NA,"In","HM_OCT","seq3","Gamble_Rand_Seq3","Gamble_Rand_Seq3",17,"Rating","Screen 1","hx8b5a",1,"info","",16.7999999999884,0,16.7999999999884,16.7999999999884,0,16.7999999999884,1,16.7999999999884,0,0,NA,"Slider","MoodSlider",2,"object-243","Rating","bored","not bored","bored",6,"",NA,NA,NA,NA,NA,"Right",NA,-2,NA,NA,NA,NA,-1,"MDPRF05688"
"82",1730467345481,"01/11/2024 13:22:25",1730467345481,0,"01/11/2024 13:22:25",193496,6,"task-napx",NA,41048034,11986013,NA,"complete",NA,"6724cd3c613e6534e0c95a7e","computer","Desktop or Laptop","Mac OS 10.15.7","Chrome 129.0.0.0","1440x900","1440x812",NA,NA,0,"Gambling_GBO",15,"In","ABKCJDIEHFG",NA,"In","HM_OCT","seq3","Gamble_Rand_Seq3","Gamble_Rand_Seq3",17,"Rating","Screen 1","hx8b5a",1,"continue","",1891.29999999405,1882.20000000001,1891.29999999405,1891.29999999405,1882.20000000001,1891.29999999405,1,1891.29999999405,0,0,NA,"Click To Continue","Continue Button",3,"object-25","Rating","bored","not bored","bored",6,"",NA,NA,NA,NA,NA,"Right",NA,-2,NA,NA,NA,NA,-1,"MDPRF05688"
"83",1730467345482,"01/11/2024 13:22:25",1730467345482,0,"01/11/2024 13:22:25",193496,6,"task-napx",NA,41048034,11986013,NA,"complete",NA,"6724cd3c613e6534e0c95a7e","computer","Desktop or Laptop","Mac OS 10.15.7","Chrome 129.0.0.0","1440x900","1440x812",NA,NA,0,"Gambling_GBO",15,"In","ABKCJDIEHFG",NA,"In","HM_OCT","seq3","Gamble_Rand_Seq3","Gamble_Rand_Seq3",17,"Rating","Screen 1","hx8b5a",1,"response","19",1299.90000000002,1882.20000000001,1891.89999998809,1299.90000000002,1882.20000000001,1891.89999998809,1,1299.90000000002,591.999999988067,0,NA,"Slider","MoodSlider",2,"object-243","Rating","bored","not bored","bored",6,"",NA,NA,NA,NA,NA,"Right",NA,-2,NA,NA,NA,NA,-1,"MDPRF05688"
"84",1730467345496,"01/11/2024 13:22:25",1730467345496,0,"01/11/2024 13:22:25",193496,6,"task-napx",NA,41048034,11986013,NA,"complete",NA,"6724cd3c613e6534e0c95a7e","computer","Desktop or Laptop","Mac OS 10.15.7","Chrome 129.0.0.0","1440x900","1440x812",NA,NA,0,"Gambling_GBO",15,"In","ABKCJDIEHFG",NA,"In","HM_OCT","seq3","Gamble_Rand_Seq3","Gamble_Rand_Seq3",18,"Rating","Screen 1","hx8b5a",1,"info","",16.3999999999942,0,16.3999999999942,16.3999999999942,0,16.3999999999942,1,16.3999999999942,0,0,NA,"Slider","MoodSlider",2,"object-243","Rating","happy","not happy","happy",6,"",NA,NA,NA,NA,NA,"Right",NA,-2,NA,NA,NA,NA,-1,"MDPRF05688"
"85",1730467347214,"01/11/2024 13:22:27",1730467347214,0,"01/11/2024 13:22:27",193496,6,"task-napx",NA,41048034,11986013,NA,"complete",NA,"6724cd3c613e6534e0c95a7e","computer","Desktop or Laptop","Mac OS 10.15.7","Chrome 129.0.0.0","1440x900","1440x812",NA,NA,0,"Gambling_GBO",15,"In","ABKCJDIEHFG",NA,"In","HM_OCT","seq3","Gamble_Rand_Seq3","Gamble_Rand_Seq3",18,"Rating","Screen 1","hx8b5a",1,"continue","",1741.19999998808,1734.39999999999,1741.19999998808,1741.19999998808,1734.39999999999,1741.19999998808,1,1741.19999998808,0,0,NA,"Click To Continue","Continue Button",3,"object-25","Rating","happy","not happy","happy",6,"",NA,NA,NA,NA,NA,"Right",NA,-2,NA,NA,NA,NA,-1,"MDPRF05688"
"86",1730467347214,"01/11/2024 13:22:27",1730467347214,0,"01/11/2024 13:22:27",193496,6,"task-napx",NA,41048034,11986013,NA,"complete",NA,"6724cd3c613e6534e0c95a7e","computer","Desktop or Laptop","Mac OS 10.15.7","Chrome 129.0.0.0","1440x900","1440x812",NA,NA,0,"Gambling_GBO",15,"In","ABKCJDIEHFG",NA,"In","HM_OCT","seq3","Gamble_Rand_Seq3","Gamble_Rand_Seq3",18,"Rating","Screen 1","hx8b5a",1,"response","65",1250.10000000001,1734.39999999999,1741.69999998808,1250.10000000001,1734.39999999999,1741.69999998808,1,1250.10000000001,491.599999988073,0,NA,"Slider","MoodSlider",2,"object-243","Rating","happy","not happy","happy",6,"",NA,NA,NA,NA,NA,"Right",NA,-2,NA,NA,NA,NA,-1,"MDPRF05688"
"87",1730467349174,"01/11/2024 13:22:29",1730467349174,0,"01/11/2024 13:22:29",193496,6,"task-napx",NA,41048034,11986013,NA,"complete",NA,"6724cd3c613e6534e0c95a7e","computer","Desktop or Laptop","Mac OS 10.15.7","Chrome 129.0.0.0","1440x900","1440x812",NA,NA,0,"Gambling_GBO",15,"In","ABKCJDIEHFG",NA,"In","HM_OCT","seq3","Gamble_Rand_Seq3","Gamble_Rand_Seq3",3,"winB","Screen 1","pkkyi8",1,"continue","",1966.89999999999,1966.89999999999,1966.89999999999,1966.89999999999,1966.89999999999,1966.89999999999,1,1966.89999999999,0,0,NA,"Fixation Timing","Fixation",1,"object-246","winB","","","",NA,"Right",1,0,3,6,NA,"Right",NA,-2,NA,NA,NA,NA,-1,"MDPRF05688"
"88",1730467350451,"01/11/2024 13:22:30",1730467350451,0,"01/11/2024 13:22:30",193496,6,"task-napx",NA,41048034,11986013,NA,"complete",NA,"6724cd3c613e6534e0c95a7e","computer","Desktop or Laptop","Mac OS 10.15.7","Chrome 129.0.0.0","1440x900","1440x812",NA,NA,0,"Gambling_GBO",15,"In","ABKCJDIEHFG",NA,"In","HM_OCT","seq3","Gamble_Rand_Seq3","Gamble_Rand_Seq3",3,"winB","choice","5lszbx",2,"response","Right",1274.99999998213,1266.70000000001,1274.99999998213,1274.99999998213,1266.70000000001,1274.99999998213,1,1274.99999998213,0,0,NA,"Keyboard Response","KeyResponseG",6,"object-256","winB","","","",NA,"Right",1,0,3,6,NA,"Right",NA,1,NA,NA,NA,NA,3,"MDPRF05688"
"89",1730467354442,"01/11/2024 13:22:34",1730467354442,0,"01/11/2024 13:22:34",193496,6,"task-napx",NA,41048034,11986013,NA,"complete",NA,"6724cd3c613e6534e0c95a7e","computer","Desktop or Laptop","Mac OS 10.15.7","Chrome 129.0.0.0","1440x900","1440x812",NA,NA,0,"Gambling_GBO",15,"In","ABKCJDIEHFG",NA,"In","HM_OCT","seq3","Gamble_Rand_Seq3","Gamble_Rand_Seq3",3,"winB","gamble","17lgr3",3,"timedOut","",4000.89999997616,4000.29999999999,4000.89999997616,4000.89999997616,4000.29999999999,4000.89999997616,1,4000.89999997616,0,0,NA,"Time Limit","screen",0,"screen","winB","","","",NA,"Right",1,0,3,6,NA,"Right",NA,1,NA,NA,NA,NA,3,"MDPRF05688"
"90",1730467355442,"01/11/2024 13:22:35",1730467355442,0,"01/11/2024 13:22:35",193496,6,"task-napx",NA,41048034,11986013,NA,"complete",NA,"6724cd3c613e6534e0c95a7e","computer","Desktop or Laptop","Mac OS 10.15.7","Chrome 129.0.0.0","1440x900","1440x812",NA,NA,0,"Gambling_GBO",15,"In","ABKCJDIEHFG",NA,"In","HM_OCT","seq3","Gamble_Rand_Seq3","Gamble_Rand_Seq3",3,"winB","win","dzz5jr",4,"timedOut","",1000.49999998213,999.900000000023,1000.49999998213,1000.49999998213,999.900000000023,1000.49999998213,1,1000.49999998213,0,0,NA,"Time Limit","screen",0,"screen","winB","","","",NA,"Right",1,0,3,6,NA,"Right",NA,1,NA,NA,NA,NA,3,"MDPRF05688"
"91",1730467355455,"01/11/2024 13:22:35",1730467355455,0,"01/11/2024 13:22:35",193496,6,"task-napx",NA,41048034,11986013,NA,"complete",NA,"6724cd3c613e6534e0c95a7e","computer","Desktop or Laptop","Mac OS 10.15.7","Chrome 129.0.0.0","1440x900","1440x812",NA,NA,0,"Gambling_GBO",15,"In","ABKCJDIEHFG",NA,"In","HM_OCT","seq3","Gamble_Rand_Seq3","Gamble_Rand_Seq3",19,"Rating","Screen 1","hx8b5a",1,"info","",13.7999999999884,0,13.7999999999884,13.7999999999884,0,13.7999999999884,1,13.7999999999884,0,0,NA,"Slider","MoodSlider",2,"object-243","Rating","happy","not happy","happy",7,"",NA,NA,NA,NA,NA,"Right",NA,1,NA,NA,NA,NA,3,"MDPRF05688"
"92",1730467359217,"01/11/2024 13:22:39",1730467359217,0,"01/11/2024 13:22:39",193496,6,"task-napx",NA,41048034,11986013,NA,"complete",NA,"6724cd3c613e6534e0c95a7e","computer","Desktop or Laptop","Mac OS 10.15.7","Chrome 129.0.0.0","1440x900","1440x812",NA,NA,0,"Gambling_GBO",15,"In","ABKCJDIEHFG",NA,"In","HM_OCT","seq3","Gamble_Rand_Seq3","Gamble_Rand_Seq3",19,"Rating","Screen 1","hx8b5a",1,"continue","",3775.39999999403,3766.89999999999,3775.39999999403,3775.39999999403,3766.89999999999,3775.39999999403,1,3775.39999999403,0,0,NA,"Click To Continue","Continue Button",3,"object-25","Rating","happy","not happy","happy",7,"",NA,NA,NA,NA,NA,"Right",NA,1,NA,NA,NA,NA,3,"MDPRF05688"
"93",1730467359218,"01/11/2024 13:22:39",1730467359218,0,"01/11/2024 13:22:39",193496,6,"task-napx",NA,41048034,11986013,NA,"complete",NA,"6724cd3c613e6534e0c95a7e","computer","Desktop or Laptop","Mac OS 10.15.7","Chrome 129.0.0.0","1440x900","1440x812",NA,NA,0,"Gambling_GBO",15,"In","ABKCJDIEHFG",NA,"In","HM_OCT","seq3","Gamble_Rand_Seq3","Gamble_Rand_Seq3",19,"Rating","Screen 1","hx8b5a",1,"response","78",1733.69999999998,3766.89999999999,3776.69999997615,1733.69999999998,3766.89999999999,3776.69999997615,1,1733.69999999998,2042.99999997616,0,NA,"Slider","MoodSlider",2,"object-243","Rating","happy","not happy","happy",7,"",NA,NA,NA,NA,NA,"Right",NA,1,NA,NA,NA,NA,3,"MDPRF05688"
"94",1730467359230,"01/11/2024 13:22:39",1730467359230,0,"01/11/2024 13:22:39",193496,6,"task-napx",NA,41048034,11986013,NA,"complete",NA,"6724cd3c613e6534e0c95a7e","computer","Desktop or Laptop","Mac OS 10.15.7","Chrome 129.0.0.0","1440x900","1440x812",NA,NA,0,"Gambling_GBO",15,"In","ABKCJDIEHFG",NA,"In","HM_OCT","seq3","Gamble_Rand_Seq3","Gamble_Rand_Seq3",20,"Rating","Screen 1","hx8b5a",1,"info","",16.3999999999942,0,16.3999999999942,16.3999999999942,0,16.3999999999942,1,16.3999999999942,0,0,NA,"Slider","MoodSlider",2,"object-243","Rating","frustrated","not frustrated","frustrated",7,"",NA,NA,NA,NA,NA,"Right",NA,1,NA,NA,NA,NA,3,"MDPRF05688"
"95",1730467362550,"01/11/2024 13:22:42",1730467362550,0,"01/11/2024 13:22:42",193496,6,"task-napx",NA,41048034,11986013,NA,"complete",NA,"6724cd3c613e6534e0c95a7e","computer","Desktop or Laptop","Mac OS 10.15.7","Chrome 129.0.0.0","1440x900","1440x812",NA,NA,0,"Gambling_GBO",15,"In","ABKCJDIEHFG",NA,"In","HM_OCT","seq3","Gamble_Rand_Seq3","Gamble_Rand_Seq3",20,"Rating","Screen 1","hx8b5a",1,"continue","",3341.89999999999,3332.69999999998,3341.89999999999,3341.89999999999,3332.69999999998,3341.89999999999,1,3341.89999999999,0,0,NA,"Click To Continue","Continue Button",3,"object-25","Rating","frustrated","not frustrated","frustrated",7,"",NA,NA,NA,NA,NA,"Right",NA,1,NA,NA,NA,NA,3,"MDPRF05688"
"96",1730467362551,"01/11/2024 13:22:42",1730467362551,0,"01/11/2024 13:22:42",193496,6,"task-napx",NA,41048034,11986013,NA,"complete",NA,"6724cd3c613e6534e0c95a7e","computer","Desktop or Laptop","Mac OS 10.15.7","Chrome 129.0.0.0","1440x900","1440x812",NA,NA,0,"Gambling_GBO",15,"In","ABKCJDIEHFG",NA,"In","HM_OCT","seq3","Gamble_Rand_Seq3","Gamble_Rand_Seq3",20,"Rating","Screen 1","hx8b5a",1,"response","36",2682.89999999999,3332.69999999998,3342.59999998807,2682.89999999999,3332.69999999998,3342.59999998807,1,2682.89999999999,659.699999988079,0,NA,"Slider","MoodSlider",2,"object-243","Rating","frustrated","not frustrated","frustrated",7,"",NA,NA,NA,NA,NA,"Right",NA,1,NA,NA,NA,NA,3,"MDPRF05688"
"97",1730467362566,"01/11/2024 13:22:42",1730467362566,0,"01/11/2024 13:22:42",193496,6,"task-napx",NA,41048034,11986013,NA,"complete",NA,"6724cd3c613e6534e0c95a7e","computer","Desktop or Laptop","Mac OS 10.15.7","Chrome 129.0.0.0","1440x900","1440x812",NA,NA,0,"Gambling_GBO",15,"In","ABKCJDIEHFG",NA,"In","HM_OCT","seq3","Gamble_Rand_Seq3","Gamble_Rand_Seq3",21,"Rating","Screen 1","hx8b5a",1,"info","",16.6999999999825,0,16.6999999999825,16.6999999999825,0,16.6999999999825,1,16.6999999999825,0,0,NA,"Slider","MoodSlider",2,"object-243","Rating","bored","not bored","bored",7,"",NA,NA,NA,NA,NA,"Right",NA,1,NA,NA,NA,NA,3,"MDPRF05688"
"98",1730467364300,"01/11/2024 13:22:44",1730467364300,0,"01/11/2024 13:22:44",193496,6,"task-napx",NA,41048034,11986013,NA,"complete",NA,"6724cd3c613e6534e0c95a7e","computer","Desktop or Laptop","Mac OS 10.15.7","Chrome 129.0.0.0","1440x900","1440x812",NA,NA,0,"Gambling_GBO",15,"In","ABKCJDIEHFG",NA,"In","HM_OCT","seq3","Gamble_Rand_Seq3","Gamble_Rand_Seq3",21,"Rating","Screen 1","hx8b5a",1,"continue","",1759.29999999405,1751,1759.29999999405,1759.29999999405,1751,1759.29999999405,1,1759.29999999405,0,0,NA,"Click To Continue","Continue Button",3,"object-25","Rating","bored","not bored","bored",7,"",NA,NA,NA,NA,NA,"Right",NA,1,NA,NA,NA,NA,3,"MDPRF05688"
"99",1730467364301,"01/11/2024 13:22:44",1730467364301,0,"01/11/2024 13:22:44",193496,6,"task-napx",NA,41048034,11986013,NA,"complete",NA,"6724cd3c613e6534e0c95a7e","computer","Desktop or Laptop","Mac OS 10.15.7","Chrome 129.0.0.0","1440x900","1440x812",NA,NA,0,"Gambling_GBO",15,"In","ABKCJDIEHFG",NA,"In","HM_OCT","seq3","Gamble_Rand_Seq3","Gamble_Rand_Seq3",21,"Rating","Screen 1","hx8b5a",1,"response","35",1100.30000000002,1751,1759.99999998213,1100.30000000002,1751,1759.99999998213,1,1100.30000000002,659.699999982113,0,NA,"Slider","MoodSlider",2,"object-243","Rating","bored","not bored","bored",7,"",NA,NA,NA,NA,NA,"Right",NA,1,NA,NA,NA,NA,3,"MDPRF05688"
"100",1730467366261,"01/11/2024 13:22:46",1730467366261,0,"01/11/2024 13:22:46",193496,6,"task-napx",NA,41048034,11986013,NA,"complete",NA,"6724cd3c613e6534e0c95a7e","computer","Desktop or Laptop","Mac OS 10.15.7","Chrome 129.0.0.0","1440x900","1440x812",NA,NA,0,"Gambling_GBO",15,"In","ABKCJDIEHFG",NA,"In","HM_OCT","seq3","Gamble_Rand_Seq3","Gamble_Rand_Seq3",1,"winT","Screen 1","np5pnj",1,"continue","",1966.20000000001,1966.20000000001,1966.20000000001,1966.20000000001,1966.20000000001,1966.20000000001,1,1966.20000000001,0,0,NA,"Fixation Timing","Fixation",1,"object-304","winT","","","",NA,"Right",2,1,4,7,NA,"Right",NA,1,NA,NA,NA,NA,3,"MDPRF05688"
"101",1730467367856,"01/11/2024 13:22:47",1730467367856,0,"01/11/2024 13:22:47",193496,6,"task-napx",NA,41048034,11986013,NA,"complete",NA,"6724cd3c613e6534e0c95a7e","computer","Desktop or Laptop","Mac OS 10.15.7","Chrome 129.0.0.0","1440x900","1440x812",NA,NA,0,"Gambling_GBO",15,"In","ABKCJDIEHFG",NA,"In","HM_OCT","seq3","Gamble_Rand_Seq3","Gamble_Rand_Seq3",1,"winT","choice","gu8zgx",2,"response","Right",1595.79999998212,1583.39999999999,1595.79999998212,1595.79999998212,1583.39999999999,1595.79999998212,1,1595.79999998212,0,0,NA,"Keyboard Response","KeyResponseG",6,"object-326","winT","","","",NA,"Right",2,1,4,7,NA,"Right",NA,5,NA,NA,NA,NA,4,"MDPRF05688"
"102",1730467371844,"01/11/2024 13:22:51",1730467371844,0,"01/11/2024 13:22:51",193496,6,"task-napx",NA,41048034,11986013,NA,"complete",NA,"6724cd3c613e6534e0c95a7e","computer","Desktop or Laptop","Mac OS 10.15.7","Chrome 129.0.0.0","1440x900","1440x812",NA,NA,0,"Gambling_GBO",15,"In","ABKCJDIEHFG",NA,"In","HM_OCT","seq3","Gamble_Rand_Seq3","Gamble_Rand_Seq3",1,"winT","gamble","1lb69u",3,"timedOut","",4001.69999999404,4001.10000000001,4001.69999999404,4001.69999999404,4001.10000000001,4001.69999999404,1,4001.69999999404,0,0,NA,"Time Limit","screen",0,"screen","winT","","","",NA,"Right",2,1,4,7,NA,"Right",NA,5,NA,NA,NA,NA,4,"MDPRF05688"
"103",1730467372844,"01/11/2024 13:22:52",1730467372844,0,"01/11/2024 13:22:52",193496,6,"task-napx",NA,41048034,11986013,NA,"complete",NA,"6724cd3c613e6534e0c95a7e","computer","Desktop or Laptop","Mac OS 10.15.7","Chrome 129.0.0.0","1440x900","1440x812",NA,NA,0,"Gambling_GBO",15,"In","ABKCJDIEHFG",NA,"In","HM_OCT","seq3","Gamble_Rand_Seq3","Gamble_Rand_Seq3",1,"winT","win","dhtsbv",4,"timedOut","",1000.69999998808,1000.10000000001,1000.69999998808,1000.69999998808,1000.10000000001,1000.69999998808,1,1000.69999998808,0,0,NA,"Time Limit","screen",0,"screen","winT","","","",NA,"Right",2,1,4,7,NA,"Right",NA,5,NA,NA,NA,NA,4,"MDPRF05688"
"104",1730467372857,"01/11/2024 13:22:52",1730467372857,0,"01/11/2024 13:22:52",193496,6,"task-napx",NA,41048034,11986013,NA,"complete",NA,"6724cd3c613e6534e0c95a7e","computer","Desktop or Laptop","Mac OS 10.15.7","Chrome 129.0.0.0","1440x900","1440x812",NA,NA,0,"Gambling_GBO",15,"In","ABKCJDIEHFG",NA,"In","HM_OCT","seq3","Gamble_Rand_Seq3","Gamble_Rand_Seq3",22,"Rating","Screen 1","hx8b5a",1,"info","",14.1999999821128,0,14.1999999821128,14.1999999821128,0,14.1999999821128,1,14.1999999821128,0,0,NA,"Slider","MoodSlider",2,"object-243","Rating","frustrated","not frustrated","frustrated",8,"",NA,NA,NA,NA,NA,"Right",NA,5,NA,NA,NA,NA,4,"MDPRF05688"
"105",1730467375602,"01/11/2024 13:22:55",1730467375602,0,"01/11/2024 13:22:55",193496,6,"task-napx",NA,41048034,11986013,NA,"complete",NA,"6724cd3c613e6534e0c95a7e","computer","Desktop or Laptop","Mac OS 10.15.7","Chrome 129.0.0.0","1440x900","1440x812",NA,NA,0,"Gambling_GBO",15,"In","ABKCJDIEHFG",NA,"In","HM_OCT","seq3","Gamble_Rand_Seq3","Gamble_Rand_Seq3",22,"Rating","Screen 1","hx8b5a",1,"continue","",2758.29999997615,2750.19999999998,2758.29999997615,2758.29999997615,2750.19999999998,2758.29999997615,1,2758.29999997615,0,0,NA,"Click To Continue","Continue Button",3,"object-25","Rating","frustrated","not frustrated","frustrated",8,"",NA,NA,NA,NA,NA,"Right",NA,5,NA,NA,NA,NA,4,"MDPRF05688"
"106",1730467375603,"01/11/2024 13:22:55",1730467375603,0,"01/11/2024 13:22:55",193496,6,"task-napx",NA,41048034,11986013,NA,"complete",NA,"6724cd3c613e6534e0c95a7e","computer","Desktop or Laptop","Mac OS 10.15.7","Chrome 129.0.0.0","1440x900","1440x812",NA,NA,0,"Gambling_GBO",15,"In","ABKCJDIEHFG",NA,"In","HM_OCT","seq3","Gamble_Rand_Seq3","Gamble_Rand_Seq3",22,"Rating","Screen 1","hx8b5a",1,"response","22",2066.79999999999,2750.19999999998,2759.09999998807,2066.79999999999,2750.19999999998,2759.09999998807,1,2066.79999999999,692.299999988085,0,NA,"Slider","MoodSlider",2,"object-243","Rating","frustrated","not frustrated","frustrated",8,"",NA,NA,NA,NA,NA,"Right",NA,5,NA,NA,NA,NA,4,"MDPRF05688"
"107",1730467375618,"01/11/2024 13:22:55",1730467375618,0,"01/11/2024 13:22:55",193496,6,"task-napx",NA,41048034,11986013,NA,"complete",NA,"6724cd3c613e6534e0c95a7e","computer","Desktop or Laptop","Mac OS 10.15.7","Chrome 129.0.0.0","1440x900","1440x812",NA,NA,0,"Gambling_GBO",15,"In","ABKCJDIEHFG",NA,"In","HM_OCT","seq3","Gamble_Rand_Seq3","Gamble_Rand_Seq3",23,"Rating","Screen 1","hx8b5a",1,"info","",16.5999999999767,0,16.5999999999767,16.5999999999767,0,16.5999999999767,1,16.5999999999767,0,0,NA,"Slider","MoodSlider",2,"object-243","Rating","happy","not happy","happy",8,"",NA,NA,NA,NA,NA,"Right",NA,5,NA,NA,NA,NA,4,"MDPRF05688"
"108",1730467377151,"01/11/2024 13:22:57",1730467377151,0,"01/11/2024 13:22:57",193496,6,"task-napx",NA,41048034,11986013,NA,"complete",NA,"6724cd3c613e6534e0c95a7e","computer","Desktop or Laptop","Mac OS 10.15.7","Chrome 129.0.0.0","1440x900","1440x812",NA,NA,0,"Gambling_GBO",15,"In","ABKCJDIEHFG",NA,"In","HM_OCT","seq3","Gamble_Rand_Seq3","Gamble_Rand_Seq3",23,"Rating","Screen 1","hx8b5a",1,"continue","",1557.09999997617,1549.90000000002,1557.09999997617,1557.09999997617,1549.90000000002,1557.09999997617,1,1557.09999997617,0,0,NA,"Click To Continue","Continue Button",3,"object-25","Rating","happy","not happy","happy",8,"",NA,NA,NA,NA,NA,"Right",NA,5,NA,NA,NA,NA,4,"MDPRF05688"
"109",1730467377154,"01/11/2024 13:22:57",1730467377154,0,"01/11/2024 13:22:57",193496,6,"task-napx",NA,41048034,11986013,NA,"complete",NA,"6724cd3c613e6534e0c95a7e","computer","Desktop or Laptop","Mac OS 10.15.7","Chrome 129.0.0.0","1440x900","1440x812",NA,NA,0,"Gambling_GBO",15,"In","ABKCJDIEHFG",NA,"In","HM_OCT","seq3","Gamble_Rand_Seq3","Gamble_Rand_Seq3",23,"Rating","Screen 1","hx8b5a",1,"response","75",800,1549.90000000002,1560.70000000001,800,1549.90000000002,1560.70000000001,1,800,760.700000000012,0,NA,"Slider","MoodSlider",2,"object-243","Rating","happy","not happy","happy",8,"",NA,NA,NA,NA,NA,"Right",NA,5,NA,NA,NA,NA,4,"MDPRF05688"
"110",1730467377164,"01/11/2024 13:22:57",1730467377164,0,"01/11/2024 13:22:57",193496,6,"task-napx",NA,41048034,11986013,NA,"complete",NA,"6724cd3c613e6534e0c95a7e","computer","Desktop or Laptop","Mac OS 10.15.7","Chrome 129.0.0.0","1440x900","1440x812",NA,NA,0,"Gambling_GBO",15,"In","ABKCJDIEHFG",NA,"In","HM_OCT","seq3","Gamble_Rand_Seq3","Gamble_Rand_Seq3",24,"Rating","Screen 1","hx8b5a",1,"info","",16.6000000000058,0,16.6000000000058,16.6000000000058,0,16.6000000000058,1,16.6000000000058,0,0,NA,"Slider","MoodSlider",2,"object-243","Rating","bored","not bored","bored",8,"",NA,NA,NA,NA,NA,"Right",NA,5,NA,NA,NA,NA,4,"MDPRF05688"
"111",1730467378985,"01/11/2024 13:22:58",1730467378985,0,"01/11/2024 13:22:58",193496,6,"task-napx",NA,41048034,11986013,NA,"complete",NA,"6724cd3c613e6534e0c95a7e","computer","Desktop or Laptop","Mac OS 10.15.7","Chrome 129.0.0.0","1440x900","1440x812",NA,NA,0,"Gambling_GBO",15,"In","ABKCJDIEHFG",NA,"In","HM_OCT","seq3","Gamble_Rand_Seq3","Gamble_Rand_Seq3",24,"Rating","Screen 1","hx8b5a",1,"continue","",1840.89999999403,1833.09999999998,1840.89999999403,1840.89999999403,1833.09999999998,1840.89999999403,1,1840.89999999403,0,0,NA,"Click To Continue","Continue Button",3,"object-25","Rating","bored","not bored","bored",8,"",NA,NA,NA,NA,NA,"Right",NA,5,NA,NA,NA,NA,4,"MDPRF05688"
"112",1730467378985,"01/11/2024 13:22:58",1730467378985,0,"01/11/2024 13:22:58",193496,6,"task-napx",NA,41048034,11986013,NA,"complete",NA,"6724cd3c613e6534e0c95a7e","computer","Desktop or Laptop","Mac OS 10.15.7","Chrome 129.0.0.0","1440x900","1440x812",NA,NA,0,"Gambling_GBO",15,"In","ABKCJDIEHFG",NA,"In","HM_OCT","seq3","Gamble_Rand_Seq3","Gamble_Rand_Seq3",24,"Rating","Screen 1","hx8b5a",1,"response","34",1065.79999999999,1833.09999999998,1841.29999999999,1065.79999999999,1833.09999999998,1841.29999999999,1,1065.79999999999,775.5,0,NA,"Slider","MoodSlider",2,"object-243","Rating","bored","not bored","bored",8,"",NA,NA,NA,NA,NA,"Right",NA,5,NA,NA,NA,NA,4,"MDPRF05688"
"113",1730467380945,"01/11/2024 13:23:00",1730467380945,0,"01/11/2024 13:23:00",193496,6,"task-napx",NA,41048034,11986013,NA,"complete",NA,"6724cd3c613e6534e0c95a7e","computer","Desktop or Laptop","Mac OS 10.15.7","Chrome 129.0.0.0","1440x900","1440x812",NA,NA,0,"Gambling_GBO",15,"In","ABKCJDIEHFG",NA,"In","HM_OCT","seq3","Gamble_Rand_Seq3","Gamble_Rand_Seq3",2,"lossT","Screen 1","2oxi65",1,"continue","",1966.60000000001,1966.60000000001,1966.60000000001,1966.60000000001,1966.60000000001,1966.60000000001,1,1966.60000000001,0,0,NA,"Fixation Timing","Fixation",1,"object-354","lossT","","","",NA,"Right",-4.33,-5,-3,8,NA,"Right",NA,5,NA,NA,NA,NA,4,"MDPRF05688"
"114",1730467384687,"01/11/2024 13:23:04",1730467384687,0,"01/11/2024 13:23:04",193496,6,"task-napx",NA,41048034,11986013,NA,"complete",NA,"6724cd3c613e6534e0c95a7e","computer","Desktop or Laptop","Mac OS 10.15.7","Chrome 129.0.0.0","1440x900","1440x812",NA,NA,0,"Gambling_GBO",15,"In","ABKCJDIEHFG",NA,"In","HM_OCT","seq3","Gamble_Rand_Seq3","Gamble_Rand_Seq3",2,"lossT","choice","zjftf8",2,"response","Right",3741.79999998808,3733.19999999998,3741.79999998808,3741.79999998808,3733.19999999998,3741.79999998808,1,3741.79999998808,0,0,NA,"Keyboard Response","KeyResponseG",6,"object-352","lossT","","","",NA,"Right",-4.33,-5,-3,8,NA,"Right",NA,0,NA,NA,NA,NA,-5,"MDPRF05688"
"115",1730467388679,"01/11/2024 13:23:08",1730467388679,0,"01/11/2024 13:23:08",193496,6,"task-napx",NA,41048034,11986013,NA,"complete",NA,"6724cd3c613e6534e0c95a7e","computer","Desktop or Laptop","Mac OS 10.15.7","Chrome 129.0.0.0","1440x900","1440x812",NA,NA,0,"Gambling_GBO",15,"In","ABKCJDIEHFG",NA,"In","HM_OCT","seq3","Gamble_Rand_Seq3","Gamble_Rand_Seq3",2,"lossT","gamble","h5bf9r",3,"timedOut","",4002.19999998214,4001.40000000002,4002.19999998214,4002.19999998214,4001.40000000002,4002.19999998214,1,4002.19999998214,0,0,NA,"Time Limit","screen",0,"screen","lossT","","","",NA,"Right",-4.33,-5,-3,8,NA,"Right",NA,0,NA,NA,NA,NA,-5,"MDPRF05688"
"116",1730467389679,"01/11/2024 13:23:09",1730467389679,0,"01/11/2024 13:23:09",193496,6,"task-napx",NA,41048034,11986013,NA,"complete",NA,"6724cd3c613e6534e0c95a7e","computer","Desktop or Laptop","Mac OS 10.15.7","Chrome 129.0.0.0","1440x900","1440x812",NA,NA,0,"Gambling_GBO",15,"In","ABKCJDIEHFG",NA,"In","HM_OCT","seq3","Gamble_Rand_Seq3","Gamble_Rand_Seq3",2,"lossT","loss","kmnw8b",4,"timedOut","",1000.79999998212,999.099999999977,1000.79999998212,1000.79999998212,999.099999999977,1000.79999998212,1,1000.79999998212,0,0,NA,"Time Limit","screen",0,"screen","lossT","","","",NA,"Right",-4.33,-5,-3,8,NA,"Right",NA,0,NA,NA,NA,NA,-5,"MDPRF05688"
"117",1730467389694,"01/11/2024 13:23:09",1730467389694,0,"01/11/2024 13:23:09",193496,6,"task-napx",NA,41048034,11986013,NA,"complete",NA,"6724cd3c613e6534e0c95a7e","computer","Desktop or Laptop","Mac OS 10.15.7","Chrome 129.0.0.0","1440x900","1440x812",NA,NA,0,"Gambling_GBO",15,"In","ABKCJDIEHFG",NA,"In","HM_OCT","seq3","Gamble_Rand_Seq3","Gamble_Rand_Seq3",25,"Rating","Screen 1","hx8b5a",1,"info","",15.6999999999534,0,15.6999999999534,15.6999999999534,0,15.6999999999534,1,15.6999999999534,0,0,NA,"Slider","MoodSlider",2,"object-243","Rating","bored","not bored","bored",9,"",NA,NA,NA,NA,NA,"Right",NA,0,NA,NA,NA,NA,-5,"MDPRF05688"
"118",1730467391954,"01/11/2024 13:23:11",1730467391954,0,"01/11/2024 13:23:11",193496,6,"task-napx",NA,41048034,11986013,NA,"complete",NA,"6724cd3c613e6534e0c95a7e","computer","Desktop or Laptop","Mac OS 10.15.7","Chrome 129.0.0.0","1440x900","1440x812",NA,NA,0,"Gambling_GBO",15,"In","ABKCJDIEHFG",NA,"In","HM_OCT","seq3","Gamble_Rand_Seq3","Gamble_Rand_Seq3",25,"Rating","Screen 1","hx8b5a",1,"continue","",2276.40000000002,2267.10000000003,2276.40000000002,2276.40000000002,2267.10000000003,2276.40000000002,1,2276.40000000002,0,0,NA,"Click To Continue","Continue Button",3,"object-25","Rating","bored","not bored","bored",9,"",NA,NA,NA,NA,NA,"Right",NA,0,NA,NA,NA,NA,-5,"MDPRF05688"
"119",1730467391954,"01/11/2024 13:23:11",1730467391954,0,"01/11/2024 13:23:11",193496,6,"task-napx",NA,41048034,11986013,NA,"complete",NA,"6724cd3c613e6534e0c95a7e","computer","Desktop or Laptop","Mac OS 10.15.7","Chrome 129.0.0.0","1440x900","1440x812",NA,NA,0,"Gambling_GBO",15,"In","ABKCJDIEHFG",NA,"In","HM_OCT","seq3","Gamble_Rand_Seq3","Gamble_Rand_Seq3",25,"Rating","Screen 1","hx8b5a",1,"response","37",1767.70000000001,2267.10000000003,2276.99999999406,1767.70000000001,2267.10000000003,2276.99999999406,1,1767.70000000001,509.299999994051,0,NA,"Slider","MoodSlider",2,"object-243","Rating","bored","not bored","bored",9,"",NA,NA,NA,NA,NA,"Right",NA,0,NA,NA,NA,NA,-5,"MDPRF05688"
"120",1730467391966,"01/11/2024 13:23:11",1730467391966,0,"01/11/2024 13:23:11",193496,6,"task-napx",NA,41048034,11986013,NA,"complete",NA,"6724cd3c613e6534e0c95a7e","computer","Desktop or Laptop","Mac OS 10.15.7","Chrome 129.0.0.0","1440x900","1440x812",NA,NA,0,"Gambling_GBO",15,"In","ABKCJDIEHFG",NA,"In","HM_OCT","seq3","Gamble_Rand_Seq3","Gamble_Rand_Seq3",26,"Rating","Screen 1","hx8b5a",1,"info","",17.1000000000349,0,17.1000000000349,17.1000000000349,0,17.1000000000349,1,17.1000000000349,0,0,NA,"Slider","MoodSlider",2,"object-243","Rating","happy","not happy","happy",9,"",NA,NA,NA,NA,NA,"Right",NA,0,NA,NA,NA,NA,-5,"MDPRF05688"
"121",1730467394903,"01/11/2024 13:23:14",1730467394903,0,"01/11/2024 13:23:14",193496,6,"task-napx",NA,41048034,11986013,NA,"complete",NA,"6724cd3c613e6534e0c95a7e","computer","Desktop or Laptop","Mac OS 10.15.7","Chrome 129.0.0.0","1440x900","1440x812",NA,NA,0,"Gambling_GBO",15,"In","ABKCJDIEHFG",NA,"In","HM_OCT","seq3","Gamble_Rand_Seq3","Gamble_Rand_Seq3",26,"Rating","Screen 1","hx8b5a",1,"continue","",2958.29999999999,2950.79999999999,2958.29999999999,2958.29999999999,2950.79999999999,2958.29999999999,1,2958.29999999999,0,0,NA,"Click To Continue","Continue Button",3,"object-25","Rating","happy","not happy","happy",9,"",NA,NA,NA,NA,NA,"Right",NA,0,NA,NA,NA,NA,-5,"MDPRF05688"
"122",1730467394903,"01/11/2024 13:23:14",1730467394903,0,"01/11/2024 13:23:14",193496,6,"task-napx",NA,41048034,11986013,NA,"complete",NA,"6724cd3c613e6534e0c95a7e","computer","Desktop or Laptop","Mac OS 10.15.7","Chrome 129.0.0.0","1440x900","1440x812",NA,NA,0,"Gambling_GBO",15,"In","ABKCJDIEHFG",NA,"In","HM_OCT","seq3","Gamble_Rand_Seq3","Gamble_Rand_Seq3",26,"Rating","Screen 1","hx8b5a",1,"response","64",1683.70000000001,2950.79999999999,2958.69999997615,1683.70000000001,2950.79999999999,2958.69999997615,1,1683.70000000001,1274.99999997613,0,NA,"Slider","MoodSlider",2,"object-243","Rating","happy","not happy","happy",9,"",NA,NA,NA,NA,NA,"Right",NA,0,NA,NA,NA,NA,-5,"MDPRF05688"
"123",1730467394912,"01/11/2024 13:23:14",1730467394912,0,"01/11/2024 13:23:14",193496,6,"task-napx",NA,41048034,11986013,NA,"complete",NA,"6724cd3c613e6534e0c95a7e","computer","Desktop or Laptop","Mac OS 10.15.7","Chrome 129.0.0.0","1440x900","1440x812",NA,NA,0,"Gambling_GBO",15,"In","ABKCJDIEHFG",NA,"In","HM_OCT","seq3","Gamble_Rand_Seq3","Gamble_Rand_Seq3",27,"Rating","Screen 1","hx8b5a",1,"info","",16.5999999940395,0,16.5999999940395,16.5999999940395,0,16.5999999940395,1,16.5999999940395,0,0,NA,"Slider","MoodSlider",2,"object-243","Rating","frustrated","not frustrated","frustrated",9,"",NA,NA,NA,NA,NA,"Right",NA,0,NA,NA,NA,NA,-5,"MDPRF05688"
"124",1730467396354,"01/11/2024 13:23:16",1730467396354,0,"01/11/2024 13:23:16",193496,6,"task-napx",NA,41048034,11986013,NA,"complete",NA,"6724cd3c613e6534e0c95a7e","computer","Desktop or Laptop","Mac OS 10.15.7","Chrome 129.0.0.0","1440x900","1440x812",NA,NA,0,"Gambling_GBO",15,"In","ABKCJDIEHFG",NA,"In","HM_OCT","seq3","Gamble_Rand_Seq3","Gamble_Rand_Seq3",27,"Rating","Screen 1","hx8b5a",1,"continue","",1458.69999998808,1449.70000000001,1458.69999998808,1458.69999998808,1449.70000000001,1458.69999998808,1,1458.69999998808,0,0,NA,"Click To Continue","Continue Button",3,"object-25","Rating","frustrated","not frustrated","frustrated",9,"",NA,NA,NA,NA,NA,"Right",NA,0,NA,NA,NA,NA,-5,"MDPRF05688"
"125",1730467396355,"01/11/2024 13:23:16",1730467396355,0,"01/11/2024 13:23:16",193496,6,"task-napx",NA,41048034,11986013,NA,"complete",NA,"6724cd3c613e6534e0c95a7e","computer","Desktop or Laptop","Mac OS 10.15.7","Chrome 129.0.0.0","1440x900","1440x812",NA,NA,0,"Gambling_GBO",15,"In","ABKCJDIEHFG",NA,"In","HM_OCT","seq3","Gamble_Rand_Seq3","Gamble_Rand_Seq3",27,"Rating","Screen 1","hx8b5a",1,"response","40",866,1449.70000000001,1459.79999998212,866,1449.70000000001,1459.79999998212,1,866,593.799999982119,0,NA,"Slider","MoodSlider",2,"object-243","Rating","frustrated","not frustrated","frustrated",9,"",NA,NA,NA,NA,NA,"Right",NA,0,NA,NA,NA,NA,-5,"MDPRF05688"
"126",1730467398313,"01/11/2024 13:23:18",1730467398313,0,"01/11/2024 13:23:18",193496,6,"task-napx",NA,41048034,11986013,NA,"complete",NA,"6724cd3c613e6534e0c95a7e","computer","Desktop or Laptop","Mac OS 10.15.7","Chrome 129.0.0.0","1440x900","1440x812",NA,NA,0,"Gambling_GBO",15,"In","ABKCJDIEHFG",NA,"In","HM_OCT","seq3","Gamble_Rand_Seq3","Gamble_Rand_Seq3",4,"winB","Screen 1","pkkyi8",1,"continue","",1967.29999999999,1967.29999999999,1967.29999999999,1967.29999999999,1967.29999999999,1967.29999999999,1,1967.29999999999,0,0,NA,"Fixation Timing","Fixation",1,"object-246","winB","","","",NA,"Right",1.33,1,2,9,NA,"Right",NA,0,NA,NA,NA,NA,-5,"MDPRF05688"
"127",1730467401607,"01/11/2024 13:23:21",1730467401607,0,"01/11/2024 13:23:21",193496,6,"task-napx",NA,41048034,11986013,NA,"complete",NA,"6724cd3c613e6534e0c95a7e","computer","Desktop or Laptop","Mac OS 10.15.7","Chrome 129.0.0.0","1440x900","1440x812",NA,NA,0,"Gambling_GBO",15,"In","ABKCJDIEHFG",NA,"In","HM_OCT","seq3","Gamble_Rand_Seq3","Gamble_Rand_Seq3",4,"winB","choice","5lszbx",2,"response","Right",3293.19999998808,3283.5,3293.19999998808,3293.19999998808,3283.5,3293.19999998808,1,3293.19999998808,0,0,NA,"Keyboard Response","KeyResponseG",6,"object-256","winB","","","",NA,"Right",1.33,1,2,9,NA,"Right",NA,2,NA,NA,NA,NA,2,"MDPRF05688"
"128",1730467405598,"01/11/2024 13:23:25",1730467405598,0,"01/11/2024 13:23:25",193496,6,"task-napx",NA,41048034,11986013,NA,"complete",NA,"6724cd3c613e6534e0c95a7e","computer","Desktop or Laptop","Mac OS 10.15.7","Chrome 129.0.0.0","1440x900","1440x812",NA,NA,0,"Gambling_GBO",15,"In","ABKCJDIEHFG",NA,"In","HM_OCT","seq3","Gamble_Rand_Seq3","Gamble_Rand_Seq3",4,"winB","gamble","17lgr3",3,"timedOut","",4001.79999998212,3999.79999999999,4001.79999998212,4001.79999998212,3999.79999999999,4001.79999998212,1,4001.79999998212,0,0,NA,"Time Limit","screen",0,"screen","winB","","","",NA,"Right",1.33,1,2,9,NA,"Right",NA,2,NA,NA,NA,NA,2,"MDPRF05688"
"129",1730467406596,"01/11/2024 13:23:26",1730467406596,0,"01/11/2024 13:23:26",193496,6,"task-napx",NA,41048034,11986013,NA,"complete",NA,"6724cd3c613e6534e0c95a7e","computer","Desktop or Laptop","Mac OS 10.15.7","Chrome 129.0.0.0","1440x900","1440x812",NA,NA,0,"Gambling_GBO",15,"In","ABKCJDIEHFG",NA,"In","HM_OCT","seq3","Gamble_Rand_Seq3","Gamble_Rand_Seq3",4,"winB","win","dzz5jr",4,"timedOut","",999.99999998213,999.5,999.99999998213,999.99999998213,999.5,999.99999998213,1,999.99999998213,0,0,NA,"Time Limit","screen",0,"screen","winB","","","",NA,"Right",1.33,1,2,9,NA,"Right",NA,2,NA,NA,NA,NA,2,"MDPRF05688"
"130",1730467406606,"01/11/2024 13:23:26",1730467406606,0,"01/11/2024 13:23:26",193496,6,"task-napx",NA,41048034,11986013,NA,"complete",NA,"6724cd3c613e6534e0c95a7e","computer","Desktop or Laptop","Mac OS 10.15.7","Chrome 129.0.0.0","1440x900","1440x812",NA,NA,0,"Gambling_GBO",15,"In","ABKCJDIEHFG",NA,"In","HM_OCT","seq3","Gamble_Rand_Seq3","Gamble_Rand_Seq3",28,"Rating","Screen 1","hx8b5a",1,"info","",10.4999999821302,0,10.4999999821302,10.4999999821302,0,10.4999999821302,1,10.4999999821302,0,0,NA,"Slider","MoodSlider",2,"object-243","Rating","bored","not bored","bored",10,"",NA,NA,NA,NA,NA,"Right",NA,2,NA,NA,NA,NA,2,"MDPRF05688"
"131",1730467409023,"01/11/2024 13:23:29",1730467409023,0,"01/11/2024 13:23:29",193496,6,"task-napx",NA,41048034,11986013,NA,"complete",NA,"6724cd3c613e6534e0c95a7e","computer","Desktop or Laptop","Mac OS 10.15.7","Chrome 129.0.0.0","1440x900","1440x812",NA,NA,0,"Gambling_GBO",15,"In","ABKCJDIEHFG",NA,"In","HM_OCT","seq3","Gamble_Rand_Seq3","Gamble_Rand_Seq3",28,"Rating","Screen 1","hx8b5a",1,"continue","",2426.79999999405,2417.29999999999,2426.79999999405,2426.79999999405,2417.29999999999,2426.79999999405,1,2426.79999999405,0,0,NA,"Click To Continue","Continue Button",3,"object-25","Rating","bored","not bored","bored",10,"",NA,NA,NA,NA,NA,"Right",NA,2,NA,NA,NA,NA,2,"MDPRF05688"
"132",1730467409024,"01/11/2024 13:23:29",1730467409024,0,"01/11/2024 13:23:29",193496,6,"task-napx",NA,41048034,11986013,NA,"complete",NA,"6724cd3c613e6534e0c95a7e","computer","Desktop or Laptop","Mac OS 10.15.7","Chrome 129.0.0.0","1440x900","1440x812",NA,NA,0,"Gambling_GBO",15,"In","ABKCJDIEHFG",NA,"In","HM_OCT","seq3","Gamble_Rand_Seq3","Gamble_Rand_Seq3",28,"Rating","Screen 1","hx8b5a",1,"response","40",1217.70000000001,2417.29999999999,2427.99999998213,1217.70000000001,2417.29999999999,2427.99999998213,1,1217.70000000001,1210.29999998212,0,NA,"Slider","MoodSlider",2,"object-243","Rating","bored","not bored","bored",10,"",NA,NA,NA,NA,NA,"Right",NA,2,NA,NA,NA,NA,2,"MDPRF05688"
"133",1730467409035,"01/11/2024 13:23:29",1730467409035,0,"01/11/2024 13:23:29",193496,6,"task-napx",NA,41048034,11986013,NA,"complete",NA,"6724cd3c613e6534e0c95a7e","computer","Desktop or Laptop","Mac OS 10.15.7","Chrome 129.0.0.0","1440x900","1440x812",NA,NA,0,"Gambling_GBO",15,"In","ABKCJDIEHFG",NA,"In","HM_OCT","seq3","Gamble_Rand_Seq3","Gamble_Rand_Seq3",29,"Rating","Screen 1","hx8b5a",1,"info","",16.0999999999767,0,16.0999999999767,16.0999999999767,0,16.0999999999767,1,16.0999999999767,0,0,NA,"Slider","MoodSlider",2,"object-243","Rating","happy","not happy","happy",10,"",NA,NA,NA,NA,NA,"Right",NA,2,NA,NA,NA,NA,2,"MDPRF05688"
"134",1730467411372,"01/11/2024 13:23:31",1730467411372,0,"01/11/2024 13:23:31",193496,6,"task-napx",NA,41048034,11986013,NA,"complete",NA,"6724cd3c613e6534e0c95a7e","computer","Desktop or Laptop","Mac OS 10.15.7","Chrome 129.0.0.0","1440x900","1440x812",NA,NA,0,"Gambling_GBO",15,"In","ABKCJDIEHFG",NA,"In","HM_OCT","seq3","Gamble_Rand_Seq3","Gamble_Rand_Seq3",29,"Rating","Screen 1","hx8b5a",1,"continue","",2359.0999999881,2350.70000000001,2359.0999999881,2359.0999999881,2350.70000000001,2359.0999999881,1,2359.0999999881,0,0,NA,"Click To Continue","Continue Button",3,"object-25","Rating","happy","not happy","happy",10,"",NA,NA,NA,NA,NA,"Right",NA,2,NA,NA,NA,NA,2,"MDPRF05688"
"135",1730467411373,"01/11/2024 13:23:31",1730467411373,0,"01/11/2024 13:23:31",193496,6,"task-napx",NA,41048034,11986013,NA,"complete",NA,"6724cd3c613e6534e0c95a7e","computer","Desktop or Laptop","Mac OS 10.15.7","Chrome 129.0.0.0","1440x900","1440x812",NA,NA,0,"Gambling_GBO",15,"In","ABKCJDIEHFG",NA,"In","HM_OCT","seq3","Gamble_Rand_Seq3","Gamble_Rand_Seq3",29,"Rating","Screen 1","hx8b5a",1,"response","61",1717.40000000002,2350.70000000001,2359.79999997618,1717.40000000002,2350.70000000001,2359.79999997618,1,1717.40000000002,642.399999976158,0,NA,"Slider","MoodSlider",2,"object-243","Rating","happy","not happy","happy",10,"",NA,NA,NA,NA,NA,"Right",NA,2,NA,NA,NA,NA,2,"MDPRF05688"
"136",1730467411386,"01/11/2024 13:23:31",1730467411386,0,"01/11/2024 13:23:31",193496,6,"task-napx",NA,41048034,11986013,NA,"complete",NA,"6724cd3c613e6534e0c95a7e","computer","Desktop or Laptop","Mac OS 10.15.7","Chrome 129.0.0.0","1440x900","1440x812",NA,NA,0,"Gambling_GBO",15,"In","ABKCJDIEHFG",NA,"In","HM_OCT","seq3","Gamble_Rand_Seq3","Gamble_Rand_Seq3",30,"Rating","Screen 1","hx8b5a",1,"info","",16.5999999999767,0,16.5999999999767,16.5999999999767,0,16.5999999999767,1,16.5999999999767,0,0,NA,"Slider","MoodSlider",2,"object-243","Rating","frustrated","not frustrated","frustrated",10,"",NA,NA,NA,NA,NA,"Right",NA,2,NA,NA,NA,NA,2,"MDPRF05688"
"137",1730467412873,"01/11/2024 13:23:32",1730467412873,0,"01/11/2024 13:23:32",193496,6,"task-napx",NA,41048034,11986013,NA,"complete",NA,"6724cd3c613e6534e0c95a7e","computer","Desktop or Laptop","Mac OS 10.15.7","Chrome 129.0.0.0","1440x900","1440x812",NA,NA,0,"Gambling_GBO",15,"In","ABKCJDIEHFG",NA,"In","HM_OCT","seq3","Gamble_Rand_Seq3","Gamble_Rand_Seq3",30,"Rating","Screen 1","hx8b5a",1,"continue","",1509.20000000001,1499.70000000001,1509.20000000001,1509.20000000001,1499.70000000001,1509.20000000001,1,1509.20000000001,0,0,NA,"Click To Continue","Continue Button",3,"object-25","Rating","frustrated","not frustrated","frustrated",10,"",NA,NA,NA,NA,NA,"Right",NA,2,NA,NA,NA,NA,2,"MDPRF05688"
"138",1730467412881,"01/11/2024 13:23:32",1730467412881,0,"01/11/2024 13:23:32",193496,6,"task-napx",NA,41048034,11986013,NA,"complete",NA,"6724cd3c613e6534e0c95a7e","computer","Desktop or Laptop","Mac OS 10.15.7","Chrome 129.0.0.0","1440x900","1440x812",NA,NA,0,"Gambling_GBO",15,"In","ABKCJDIEHFG",NA,"In","HM_OCT","seq3","Gamble_Rand_Seq3","Gamble_Rand_Seq3",30,"Rating","Screen 1","hx8b5a",1,"response","37",816.700000000012,1499.70000000001,1516.40000000002,816.700000000012,1499.70000000001,1516.40000000002,1,816.700000000012,699.700000000012,0,NA,"Slider","MoodSlider",2,"object-243","Rating","frustrated","not frustrated","frustrated",10,"",NA,NA,NA,NA,NA,"Right",NA,2,NA,NA,NA,NA,2,"MDPRF05688"
"139",1730467414831,"01/11/2024 13:23:34",1730467414831,0,"01/11/2024 13:23:34",193496,6,"task-napx",NA,41048034,11986013,NA,"complete",NA,"6724cd3c613e6534e0c95a7e","computer","Desktop or Laptop","Mac OS 10.15.7","Chrome 129.0.0.0","1440x900","1440x812",NA,NA,0,"Gambling_GBO",15,"In","ABKCJDIEHFG",NA,"In","HM_OCT","seq3","Gamble_Rand_Seq3","Gamble_Rand_Seq3",2,"winT","Screen 1","np5pnj",1,"continue","",1967.20000000001,1967.20000000001,1967.20000000001,1967.20000000001,1967.20000000001,1967.20000000001,1,1967.20000000001,0,0,NA,"Fixation Timing","Fixation",1,"object-304","winT","","","",NA,"Right",2.67,2,4,10,NA,"Right",NA,2,NA,NA,NA,NA,2,"MDPRF05688"
"140",1730467416619,"01/11/2024 13:23:36",1730467416619,0,"01/11/2024 13:23:36",193496,6,"task-napx",NA,41048034,11986013,NA,"complete",NA,"6724cd3c613e6534e0c95a7e","computer","Desktop or Laptop","Mac OS 10.15.7","Chrome 129.0.0.0","1440x900","1440x812",NA,NA,0,"Gambling_GBO",15,"In","ABKCJDIEHFG",NA,"In","HM_OCT","seq3","Gamble_Rand_Seq3","Gamble_Rand_Seq3",2,"winT","choice","gu8zgx",2,"response","Right",1786.69999997615,1782.39999999997,1786.69999997615,1786.69999997615,1782.39999999997,1786.69999997615,1,1786.69999997615,0,0,NA,"Keyboard Response","KeyResponseG",6,"object-326","winT","","","",NA,"Right",2.67,2,4,10,NA,"Right",NA,6,NA,NA,NA,NA,4,"MDPRF05688"
"141",1730467420615,"01/11/2024 13:23:40",1730467420615,0,"01/11/2024 13:23:40",193496,6,"task-napx",NA,41048034,11986013,NA,"complete",NA,"6724cd3c613e6534e0c95a7e","computer","Desktop or Laptop","Mac OS 10.15.7","Chrome 129.0.0.0","1440x900","1440x812",NA,NA,0,"Gambling_GBO",15,"In","ABKCJDIEHFG",NA,"In","HM_OCT","seq3","Gamble_Rand_Seq3","Gamble_Rand_Seq3",2,"winT","gamble","1lb69u",3,"timedOut","",4001.90000000002,4001.40000000002,4001.90000000002,4001.90000000002,4001.40000000002,4001.90000000002,1,4001.90000000002,0,0,NA,"Time Limit","screen",0,"screen","winT","","","",NA,"Right",2.67,2,4,10,NA,"Right",NA,6,NA,NA,NA,NA,4,"MDPRF05688"
"142",1730467421615,"01/11/2024 13:23:41",1730467421615,0,"01/11/2024 13:23:41",193496,6,"task-napx",NA,41048034,11986013,NA,"complete",NA,"6724cd3c613e6534e0c95a7e","computer","Desktop or Laptop","Mac OS 10.15.7","Chrome 129.0.0.0","1440x900","1440x812",NA,NA,0,"Gambling_GBO",15,"In","ABKCJDIEHFG",NA,"In","HM_OCT","seq3","Gamble_Rand_Seq3","Gamble_Rand_Seq3",2,"winT","win","dhtsbv",4,"timedOut","",1000.19999998808,999,1000.19999998808,1000.19999998808,999,1000.19999998808,1,1000.19999998808,0,0,NA,"Time Limit","screen",0,"screen","winT","","","",NA,"Right",2.67,2,4,10,NA,"Right",NA,6,NA,NA,NA,NA,4,"MDPRF05688"
"143",1730467421630,"01/11/2024 13:23:41",1730467421630,0,"01/11/2024 13:23:41",193496,6,"task-napx",NA,41048034,11986013,NA,"complete",NA,"6724cd3c613e6534e0c95a7e","computer","Desktop or Laptop","Mac OS 10.15.7","Chrome 129.0.0.0","1440x900","1440x812",NA,NA,0,"Gambling_GBO",15,"In","ABKCJDIEHFG",NA,"In","HM_OCT","seq3","Gamble_Rand_Seq3","Gamble_Rand_Seq3",31,"Rating","Screen 1","hx8b5a",1,"info","",16.4000000000233,0,16.4000000000233,16.4000000000233,0,16.4000000000233,1,16.4000000000233,0,0,NA,"Slider","MoodSlider",2,"object-243","Rating","happy","not happy","happy",11,"",NA,NA,NA,NA,NA,"Right",NA,6,NA,NA,NA,NA,4,"MDPRF05688"
"144",1730467423741,"01/11/2024 13:23:43",1730467423741,0,"01/11/2024 13:23:43",193496,6,"task-napx",NA,41048034,11986013,NA,"complete",NA,"6724cd3c613e6534e0c95a7e","computer","Desktop or Laptop","Mac OS 10.15.7","Chrome 129.0.0.0","1440x900","1440x812",NA,NA,0,"Gambling_GBO",15,"In","ABKCJDIEHFG",NA,"In","HM_OCT","seq3","Gamble_Rand_Seq3","Gamble_Rand_Seq3",31,"Rating","Screen 1","hx8b5a",1,"continue","",2127.29999998212,2117.5,2127.29999998212,2127.29999998212,2117.5,2127.29999998212,1,2127.29999998212,0,0,NA,"Click To Continue","Continue Button",3,"object-25","Rating","happy","not happy","happy",11,"",NA,NA,NA,NA,NA,"Right",NA,6,NA,NA,NA,NA,4,"MDPRF05688"
"145",1730467423747,"01/11/2024 13:23:43",1730467423747,0,"01/11/2024 13:23:43",193496,6,"task-napx",NA,41048034,11986013,NA,"complete",NA,"6724cd3c613e6534e0c95a7e","computer","Desktop or Laptop","Mac OS 10.15.7","Chrome 129.0.0.0","1440x900","1440x812",NA,NA,0,"Gambling_GBO",15,"In","ABKCJDIEHFG",NA,"In","HM_OCT","seq3","Gamble_Rand_Seq3","Gamble_Rand_Seq3",31,"Rating","Screen 1","hx8b5a",1,"response","85",933.5,2117.5,2132.89999997616,933.5,2117.5,2132.89999997616,1,933.5,1199.39999997616,0,NA,"Slider","MoodSlider",2,"object-243","Rating","happy","not happy","happy",11,"",NA,NA,NA,NA,NA,"Right",NA,6,NA,NA,NA,NA,4,"MDPRF05688"
"146",1730467423759,"01/11/2024 13:23:43",1730467423759,0,"01/11/2024 13:23:43",193496,6,"task-napx",NA,41048034,11986013,NA,"complete",NA,"6724cd3c613e6534e0c95a7e","computer","Desktop or Laptop","Mac OS 10.15.7","Chrome 129.0.0.0","1440x900","1440x812",NA,NA,0,"Gambling_GBO",15,"In","ABKCJDIEHFG",NA,"In","HM_OCT","seq3","Gamble_Rand_Seq3","Gamble_Rand_Seq3",32,"Rating","Screen 1","hx8b5a",1,"info","",16.2999999999884,0,16.2999999999884,16.2999999999884,0,16.2999999999884,1,16.2999999999884,0,0,NA,"Slider","MoodSlider",2,"object-243","Rating","frustrated","not frustrated","frustrated",11,"",NA,NA,NA,NA,NA,"Right",NA,6,NA,NA,NA,NA,4,"MDPRF05688"
"147",1730467425891,"01/11/2024 13:23:45",1730467425891,0,"01/11/2024 13:23:45",193496,6,"task-napx",NA,41048034,11986013,NA,"complete",NA,"6724cd3c613e6534e0c95a7e","computer","Desktop or Laptop","Mac OS 10.15.7","Chrome 129.0.0.0","1440x900","1440x812",NA,NA,0,"Gambling_GBO",15,"In","ABKCJDIEHFG",NA,"In","HM_OCT","seq3","Gamble_Rand_Seq3","Gamble_Rand_Seq3",32,"Rating","Screen 1","hx8b5a",1,"continue","",2159.39999997616,2150.09999999998,2159.39999997616,2159.39999997616,2150.09999999998,2159.39999997616,1,2159.39999997616,0,0,NA,"Click To Continue","Continue Button",3,"object-25","Rating","frustrated","not frustrated","frustrated",11,"",NA,NA,NA,NA,NA,"Right",NA,6,NA,NA,NA,NA,4,"MDPRF05688"
"148",1730467425892,"01/11/2024 13:23:45",1730467425892,0,"01/11/2024 13:23:45",193496,6,"task-napx",NA,41048034,11986013,NA,"complete",NA,"6724cd3c613e6534e0c95a7e","computer","Desktop or Laptop","Mac OS 10.15.7","Chrome 129.0.0.0","1440x900","1440x812",NA,NA,0,"Gambling_GBO",15,"In","ABKCJDIEHFG",NA,"In","HM_OCT","seq3","Gamble_Rand_Seq3","Gamble_Rand_Seq3",32,"Rating","Screen 1","hx8b5a",1,"response","36",800.400000000023,2150.09999999998,2160.19999998808,800.400000000023,2150.09999999998,2160.19999998808,1,800.400000000023,1359.79999998806,0,NA,"Slider","MoodSlider",2,"object-243","Rating","frustrated","not frustrated","frustrated",11,"",NA,NA,NA,NA,NA,"Right",NA,6,NA,NA,NA,NA,4,"MDPRF05688"
