"Event.Index","UTC.Timestamp","UTC.Date.and.Time","Local.Timestamp","Local.Timezone","Local.Date.and.Time","Experiment.ID","Experiment.Version","Tree.Node.Key","Repeat.Key","Schedule.ID","Participant.Private.ID","Participant.Starting.Group","Participant.Status","Participant.Completion.Code","Participant.External.Session.ID","Participant.Device.Type","Participant.Device","Participant.OS","Participant.Browser","Participant.Monitor.Size","Participant.Viewport.Size","Checkpoint","Room.ID","Room.Order","Task.Name","Task.Version","branch.hkzp","order.ot79","branch.mcuq","branch.4fv7","randomiser.k5rb","randomiser.rz7w","Spreadsheet","Current.Spreadsheet","Trial.Number","Display","Screen","Screen.ID","Screen.Counter","Response.Type","Response","Onset.Time","Clock.Time","Reaction.Time","Absolute.Onset.Time","Absolute.Clock.Time","Absolute.Reaction.Time","Correct","Response.Onset","Response.Duration","Proportion","Tag","Component.Name","Object.Name","Object.Number","Object.ID","Spreadsheet..display","Spreadsheet..Emo","Spreadsheet..LHS_Lab","Spreadsheet..RHS_Lab","Spreadsheet..rand_M","Spreadsheet..Answer","Spreadsheet..C_points","Spreadsheet..L_points","Spreadsheet..W_points","Spreadsheet..rand_G","Manipulation..Spreadsheet","Store..Choice","Store..total","Store..total_score","Store..pounds","Store..total_money","Store..partA","Store..MoneyReward","Store..pointsPR","Random_ID"
"1",1730467287210,"01/11/2024 13:21:27",1730467287210,0,"01/11/2024 13:21:27",193496,6,"task-nt36",NA,41048070,11986070,NA,"complete",NA,"6724cfd1b1886425b73159eb","computer","Desktop or Laptop","Mac OS 10.15.7","Chrome 129.0.0.0","1470x956","1470x832",NA,NA,0,"Gambling_GBO",15,"In","EFDGCHBIAJK",NA,"In","MH_OCT","seq2","Gamble_Rand_Seq2","Gamble_Rand_Seq2",NA,"","","",NA,"info","START SUBSYSTEM base.component.fullscreenSubsystem",NA,NA,NA,NA,NA,NA,0,NA,NA,NA,NA,"","",NA,"","","","","",NA,"",NA,NA,NA,NA,NA,"",NA,NA,NA,NA,NA,NA,NA,"MDPRF67412"
"2",1730467287222,"01/11/2024 13:21:27",1730467287222,0,"01/11/2024 13:21:27",193496,6,"task-nt36",NA,41048070,11986070,NA,"complete",NA,"6724cfd1b1886425b73159eb","computer","Desktop or Laptop","Mac OS 10.15.7","Chrome 129.0.0.0","1470x956","1470x832",NA,NA,0,"Gambling_GBO",15,"In","EFDGCHBIAJK",NA,"In","MH_OCT","seq2","Gamble_Rand_Seq2","Gamble_Rand_Seq2",NA,"","","",NA,"info","SUBSYSTEM READY base.component.fullscreenSubsystem",NA,NA,NA,NA,NA,NA,0,NA,NA,NA,NA,"","",NA,"","","","","",NA,"",NA,NA,NA,NA,NA,"",NA,NA,NA,NA,NA,NA,NA,"MDPRF67412"
"3",1730467287243,"01/11/2024 13:21:27",1730467287243,0,"01/11/2024 13:21:27",193496,6,"task-nt36",NA,41048070,11986070,NA,"complete",NA,"6724cfd1b1886425b73159eb","computer","Desktop or Laptop","Mac OS 10.15.7","Chrome 129.0.0.0","1470x956","1470x832",NA,NA,0,"Gambling_GBO",15,"In","EFDGCHBIAJK",NA,"In","MH_OCT","seq2","Gamble_Rand_Seq2","Gamble_Rand_Seq2",NA,"","","",NA,"info","BEGIN",NA,NA,NA,NA,NA,NA,0,NA,NA,NA,NA,"","",NA,"","","","","",NA,"",NA,NA,NA,NA,NA,"",NA,NA,NA,NA,NA,NA,NA,"MDPRF67412"
"4",1730467291370,"01/11/2024 13:21:31",1730467291370,0,"01/11/2024 13:21:31",193496,6,"task-nt36",NA,41048070,11986070,NA,"complete",NA,"6724cfd1b1886425b73159eb","computer","Desktop or Laptop","Mac OS 10.15.7","Chrome 129.0.0.0","1470x956","1470x832",NA,NA,0,"Gambling_GBO",15,"In","EFDGCHBIAJK",NA,"In","MH_OCT","seq2","Gamble_Rand_Seq2","Gamble_Rand_Seq2",1,"Intro","Screen 1","u1aumm",1,"continue","",4179.37800014305,4166.578,4179.37800014305,4179.37800014305,4166.578,4179.37800014305,1,4179.37800014305,0,0,NA,"Click To Continue","Continue Button",2,"object-37171","Intro","","","",NA,"",NA,NA,NA,NA,NA,"",NA,NA,NA,NA,NA,NA,NA,"MDPRF67412"
"5",1730467298344,"01/11/2024 13:21:38",1730467298344,0,"01/11/2024 13:21:38",193496,6,"task-nt36",NA,41048070,11986070,NA,"complete",NA,"6724cfd1b1886425b73159eb","computer","Desktop or Laptop","Mac OS 10.15.7","Chrome 129.0.0.0","1470x956","1470x832",NA,NA,0,"Gambling_GBO",15,"In","EFDGCHBIAJK",NA,"In","MH_OCT","seq2","Gamble_Rand_Seq2","Gamble_Rand_Seq2",1,"Instructions","Screen 1","rfymdc",1,"continue","",6987.30000014305,6982.4,6987.30000014305,6987.30000014305,6982.4,6987.30000014305,1,6987.30000014305,0,0,NA,"Click To Continue","Continue Button",2,"object-3","Instructions","","","",NA,"",NA,NA,NA,NA,NA,"",NA,NA,NA,NA,NA,NA,NA,"MDPRF67412"
"6",1730467302552,"01/11/2024 13:21:42",1730467302552,0,"01/11/2024 13:21:42",193496,6,"task-nt36",NA,41048070,11986070,NA,"complete",NA,"6724cfd1b1886425b73159eb","computer","Desktop or Laptop","Mac OS 10.15.7","Chrome 129.0.0.0","1470x956","1470x832",NA,NA,0,"Gambling_GBO",15,"In","EFDGCHBIAJK",NA,"In","MH_OCT","seq2","Gamble_Rand_Seq2","Gamble_Rand_Seq2",1,"Instructions","Screen 2","x2kpu8",2,"continue","",4212.90000014305,4201,4212.90000014305,4212.90000014305,4201,4212.90000014305,1,4212.90000014305,0,0,NA,"Click To Continue","Continue Button",2,"object-22021","Instructions","","","",NA,"",NA,NA,NA,NA,NA,"",NA,NA,NA,NA,NA,NA,NA,"MDPRF67412"
"7",1730467304951,"01/11/2024 13:21:44",1730467304951,0,"01/11/2024 13:21:44",193496,6,"task-nt36",NA,41048070,11986070,NA,"complete",NA,"6724cfd1b1886425b73159eb","computer","Desktop or Laptop","Mac OS 10.15.7","Chrome 129.0.0.0","1470x956","1470x832",NA,NA,0,"Gambling_GBO",15,"In","EFDGCHBIAJK",NA,"In","MH_OCT","seq2","Gamble_Rand_Seq2","Gamble_Rand_Seq2",1,"Instructions","Screen 3","o6zm7t",3,"continue","",2411.10000019073,2399.9,2411.10000019073,2411.10000019073,2399.9,2411.10000019073,1,2411.10000019073,0,0,NA,"Click To Continue","Continue Button",2,"object-225","Instructions","","","",NA,"",NA,NA,NA,NA,NA,"",NA,NA,NA,NA,NA,NA,NA,"MDPRF67412"
"8",1730467308046,"01/11/2024 13:21:48",1730467308046,0,"01/11/2024 13:21:48",193496,6,"task-nt36",NA,41048070,11986070,NA,"complete",NA,"6724cfd1b1886425b73159eb","computer","Desktop or Laptop","Mac OS 10.15.7","Chrome 129.0.0.0","1470x956","1470x832",NA,NA,0,"Gambling_GBO",15,"In","EFDGCHBIAJK",NA,"In","MH_OCT","seq2","Gamble_Rand_Seq2","Gamble_Rand_Seq2",1,"Instructions","Screen 4","3hq7c2",4,"continue","",3106.00000014305,3100,3106.00000014305,3106.00000014305,3100,3106.00000014305,1,3106.00000014305,0,0,NA,"Click To Continue","Continue Button",4,"object-380","Instructions","","","",NA,"",NA,NA,NA,NA,NA,"",NA,NA,NA,NA,NA,NA,NA,"MDPRF67412"
"9",1730467318057,"01/11/2024 13:21:58",1730467318057,0,"01/11/2024 13:21:58",193496,6,"task-nt36",NA,41048070,11986070,NA,"complete",NA,"6724cfd1b1886425b73159eb","computer","Desktop or Laptop","Mac OS 10.15.7","Chrome 129.0.0.0","1470x956","1470x832",NA,NA,0,"Gambling_GBO",15,"In","EFDGCHBIAJK",NA,"In","MH_OCT","seq2","Gamble_Rand_Seq2","Gamble_Rand_Seq2",1,"Instructions","Screen 5","5jisqh",5,"continue","",10016.5,9999.9,10016.5,10016.5,9999.9,10016.5,1,10016.5,0,0,NA,"Click To Continue","Continue Button",2,"object-233","Instructions","","","",NA,"",NA,NA,NA,NA,NA,"",NA,NA,NA,NA,NA,NA,NA,"MDPRF67412"
"10",1730467319906,"01/11/2024 13:21:59",1730467319906,0,"01/11/2024 13:21:59",193496,6,"task-nt36",NA,41048070,11986070,NA,"complete",NA,"6724cfd1b1886425b73159eb","computer","Desktop or Laptop","Mac OS 10.15.7","Chrome 129.0.0.0","1470x956","1470x832",NA,NA,0,"Gambling_GBO",15,"In","EFDGCHBIAJK",NA,"In","MH_OCT","seq2","Gamble_Rand_Seq2","Gamble_Rand_Seq2",1,"Instructions","Screen 6","13xe5l",6,"continue","",1866,1850.1,1866,1866,1850.1,1866,1,1866,0,0,NA,"Click To Continue","Continue Button",2,"object-237","Instructions","","","",NA,"",NA,NA,NA,NA,NA,"",NA,NA,NA,NA,NA,NA,NA,"MDPRF67412"
"11",1730467323406,"01/11/2024 13:22:03",1730467323406,0,"01/11/2024 13:22:03",193496,6,"task-nt36",NA,41048070,11986070,NA,"complete",NA,"6724cfd1b1886425b73159eb","computer","Desktop or Laptop","Mac OS 10.15.7","Chrome 129.0.0.0","1470x956","1470x832",NA,NA,0,"Gambling_GBO",15,"In","EFDGCHBIAJK",NA,"In","MH_OCT","seq2","Gamble_Rand_Seq2","Gamble_Rand_Seq2",1,"Instructions","Screen 7","re2b58",7,"continue","",3516.6,3499.9,3516.6,3516.6,3499.9,3516.6,1,3516.6,0,0,NA,"Click To Continue","Continue Button",2,"object-241","Instructions","","","",NA,"",NA,NA,NA,NA,NA,"",NA,NA,NA,NA,NA,NA,NA,"MDPRF67412"
"12",1730467323417,"01/11/2024 13:22:03",1730467323417,0,"01/11/2024 13:22:03",193496,6,"task-nt36",NA,41048070,11986070,NA,"complete",NA,"6724cfd1b1886425b73159eb","computer","Desktop or Laptop","Mac OS 10.15.7","Chrome 129.0.0.0","1470x956","1470x832",NA,NA,0,"Gambling_GBO",15,"In","EFDGCHBIAJK",NA,"In","MH_OCT","seq2","Gamble_Rand_Seq2","Gamble_Rand_Seq2",1,"Rating","Screen 1","hx8b5a",1,"info","",16.6999999999971,0,16.6999999999971,16.6999999999971,0,16.6999999999971,1,16.6999999999971,0,0,NA,"Slider","MoodSlider",2,"object-243","Rating","bored","not bored","bored",1,"",NA,NA,NA,NA,NA,"",NA,NA,NA,NA,NA,NA,NA,"MDPRF67412"
"13",1730467325974,"01/11/2024 13:22:05",1730467325974,0,"01/11/2024 13:22:05",193496,6,"task-nt36",NA,41048070,11986070,NA,"complete",NA,"6724cfd1b1886425b73159eb","computer","Desktop or Laptop","Mac OS 10.15.7","Chrome 129.0.0.0","1470x956","1470x832",NA,NA,0,"Gambling_GBO",15,"In","EFDGCHBIAJK",NA,"In","MH_OCT","seq2","Gamble_Rand_Seq2","Gamble_Rand_Seq2",1,"Rating","Screen 1","hx8b5a",1,"continue","",2584.30000019073,2583.3,2584.30000019073,2584.30000019073,2583.3,2584.30000019073,1,2584.30000019073,0,0,NA,"Click To Continue","Continue Button",3,"object-25","Rating","bored","not bored","bored",1,"",NA,NA,NA,NA,NA,"",NA,NA,NA,NA,NA,NA,NA,"MDPRF67412"
"14",1730467325974,"01/11/2024 13:22:05",1730467325974,0,"01/11/2024 13:22:05",193496,6,"task-nt36",NA,41048070,11986070,NA,"complete",NA,"6724cfd1b1886425b73159eb","computer","Desktop or Laptop","Mac OS 10.15.7","Chrome 129.0.0.0","1470x956","1470x832",NA,NA,0,"Gambling_GBO",15,"In","EFDGCHBIAJK",NA,"In","MH_OCT","seq2","Gamble_Rand_Seq2","Gamble_Rand_Seq2",1,"Rating","Screen 1","hx8b5a",1,"response","13",1900,2583.3,2584.80000019073,1900,2583.3,2584.80000019073,1,1900,684.800000190735,0,NA,"Slider","MoodSlider",2,"object-243","Rating","bored","not bored","bored",1,"",NA,NA,NA,NA,NA,"",NA,NA,NA,NA,NA,NA,NA,"MDPRF67412"
"15",1730467325981,"01/11/2024 13:22:05",1730467325981,0,"01/11/2024 13:22:05",193496,6,"task-nt36",NA,41048070,11986070,NA,"complete",NA,"6724cfd1b1886425b73159eb","computer","Desktop or Laptop","Mac OS 10.15.7","Chrome 129.0.0.0","1470x956","1470x832",NA,NA,0,"Gambling_GBO",15,"In","EFDGCHBIAJK",NA,"In","MH_OCT","seq2","Gamble_Rand_Seq2","Gamble_Rand_Seq2",2,"Rating","Screen 1","hx8b5a",1,"info","",7.69999999999709,0,7.69999999999709,7.69999999999709,0,7.69999999999709,1,7.69999999999709,0,0,NA,"Slider","MoodSlider",2,"object-243","Rating","frustrated","not frustrated","frustrated",1,"",NA,NA,NA,NA,NA,"",NA,NA,NA,NA,NA,NA,NA,"MDPRF67412"
"16",1730467328366,"01/11/2024 13:22:08",1730467328366,0,"01/11/2024 13:22:08",193496,6,"task-nt36",NA,41048070,11986070,NA,"complete",NA,"6724cfd1b1886425b73159eb","computer","Desktop or Laptop","Mac OS 10.15.7","Chrome 129.0.0.0","1470x956","1470x832",NA,NA,0,"Gambling_GBO",15,"In","EFDGCHBIAJK",NA,"In","MH_OCT","seq2","Gamble_Rand_Seq2","Gamble_Rand_Seq2",2,"Rating","Screen 1","hx8b5a",1,"continue","",2393.00000019073,2383.3,2393.00000019073,2393.00000019073,2383.3,2393.00000019073,1,2393.00000019073,0,0,NA,"Click To Continue","Continue Button",3,"object-25","Rating","frustrated","not frustrated","frustrated",1,"",NA,NA,NA,NA,NA,"",NA,NA,NA,NA,NA,NA,NA,"MDPRF67412"
"17",1730467328368,"01/11/2024 13:22:08",1730467328368,0,"01/11/2024 13:22:08",193496,6,"task-nt36",NA,41048070,11986070,NA,"complete",NA,"6724cfd1b1886425b73159eb","computer","Desktop or Laptop","Mac OS 10.15.7","Chrome 129.0.0.0","1470x956","1470x832",NA,NA,0,"Gambling_GBO",15,"In","EFDGCHBIAJK",NA,"In","MH_OCT","seq2","Gamble_Rand_Seq2","Gamble_Rand_Seq2",2,"Rating","Screen 1","hx8b5a",1,"response","12",1100,2383.3,2395.60000009536,1100,2383.3,2395.60000009536,1,1100,1295.60000009536,0,NA,"Slider","MoodSlider",2,"object-243","Rating","frustrated","not frustrated","frustrated",1,"",NA,NA,NA,NA,NA,"",NA,NA,NA,NA,NA,NA,NA,"MDPRF67412"
"18",1730467328374,"01/11/2024 13:22:08",1730467328374,0,"01/11/2024 13:22:08",193496,6,"task-nt36",NA,41048070,11986070,NA,"complete",NA,"6724cfd1b1886425b73159eb","computer","Desktop or Laptop","Mac OS 10.15.7","Chrome 129.0.0.0","1470x956","1470x832",NA,NA,0,"Gambling_GBO",15,"In","EFDGCHBIAJK",NA,"In","MH_OCT","seq2","Gamble_Rand_Seq2","Gamble_Rand_Seq2",3,"Rating","Screen 1","hx8b5a",1,"info","",16.6999999999971,0,16.6999999999971,16.6999999999971,0,16.6999999999971,1,16.6999999999971,0,0,NA,"Slider","MoodSlider",2,"object-243","Rating","happy","not happy","happy",1,"",NA,NA,NA,NA,NA,"",NA,NA,NA,NA,NA,NA,NA,"MDPRF67412"
"19",1730467330811,"01/11/2024 13:22:10",1730467330811,0,"01/11/2024 13:22:10",193496,6,"task-nt36",NA,41048070,11986070,NA,"complete",NA,"6724cfd1b1886425b73159eb","computer","Desktop or Laptop","Mac OS 10.15.7","Chrome 129.0.0.0","1470x956","1470x832",NA,NA,0,"Gambling_GBO",15,"In","EFDGCHBIAJK",NA,"In","MH_OCT","seq2","Gamble_Rand_Seq2","Gamble_Rand_Seq2",3,"Rating","Screen 1","hx8b5a",1,"continue","",2454.60000004769,2450,2454.60000004769,2454.60000004769,2450,2454.60000004769,1,2454.60000004769,0,0,NA,"Click To Continue","Continue Button",3,"object-25","Rating","happy","not happy","happy",1,"",NA,NA,NA,NA,NA,"",NA,NA,NA,NA,NA,NA,NA,"MDPRF67412"
"20",1730467330811,"01/11/2024 13:22:10",1730467330811,0,"01/11/2024 13:22:10",193496,6,"task-nt36",NA,41048070,11986070,NA,"complete",NA,"6724cfd1b1886425b73159eb","computer","Desktop or Laptop","Mac OS 10.15.7","Chrome 129.0.0.0","1470x956","1470x832",NA,NA,0,"Gambling_GBO",15,"In","EFDGCHBIAJK",NA,"In","MH_OCT","seq2","Gamble_Rand_Seq2","Gamble_Rand_Seq2",3,"Rating","Screen 1","hx8b5a",1,"response","83",1700,2450,2455.00000014305,1700,2450,2455.00000014305,1,1700,755.000000143053,0,NA,"Slider","MoodSlider",2,"object-243","Rating","happy","not happy","happy",1,"",NA,NA,NA,NA,NA,"",NA,NA,NA,NA,NA,NA,NA,"MDPRF67412"
"21",1730467332773,"01/11/2024 13:22:12",1730467332773,0,"01/11/2024 13:22:12",193496,6,"task-nt36",NA,41048070,11986070,NA,"complete",NA,"6724cfd1b1886425b73159eb","computer","Desktop or Laptop","Mac OS 10.15.7","Chrome 129.0.0.0","1470x956","1470x832",NA,NA,0,"Gambling_GBO",15,"In","EFDGCHBIAJK",NA,"In","MH_OCT","seq2","Gamble_Rand_Seq2","Gamble_Rand_Seq2",1,"lossB","Screen 1","a4fynh",1,"continue","",1966.7,1966.7,1966.7,1966.7,1966.7,1966.7,1,1966.7,0,0,NA,"Fixation Timing","Fixation",1,"object-113","lossB","","","",NA,"Right",-4.67,-5,-4,1,NA,"",NA,NA,NA,NA,NA,NA,NA,"MDPRF67412"
"22",1730467334526,"01/11/2024 13:22:14",1730467334526,0,"01/11/2024 13:22:14",193496,6,"task-nt36",NA,41048070,11986070,NA,"complete",NA,"6724cfd1b1886425b73159eb","computer","Desktop or Laptop","Mac OS 10.15.7","Chrome 129.0.0.0","1470x956","1470x832",NA,NA,0,"Gambling_GBO",15,"In","EFDGCHBIAJK",NA,"In","MH_OCT","seq2","Gamble_Rand_Seq2","Gamble_Rand_Seq2",1,"lossB","choice","k9qq8f",2,"response","Right",1752.00000019073,1750,1752.00000019073,1752.00000019073,1750,1752.00000019073,1,1752.00000019073,0,0,NA,"Keyboard Response","KeyResponseG",6,"object-200","lossB","","","",NA,"Right",-4.67,-5,-4,1,NA,"Right",NA,-5,NA,NA,NA,NA,-5,"MDPRF67412"
"23",1730467338524,"01/11/2024 13:22:18",1730467338524,0,"01/11/2024 13:22:18",193496,6,"task-nt36",NA,41048070,11986070,NA,"complete",NA,"6724cfd1b1886425b73159eb","computer","Desktop or Laptop","Mac OS 10.15.7","Chrome 129.0.0.0","1470x956","1470x832",NA,NA,0,"Gambling_GBO",15,"In","EFDGCHBIAJK",NA,"In","MH_OCT","seq2","Gamble_Rand_Seq2","Gamble_Rand_Seq2",1,"lossB","gamble","tpcid5",3,"timedOut","",4000.60000009536,3999.89999999999,4000.60000009536,4000.60000009536,3999.89999999999,4000.60000009536,1,4000.60000009536,0,0,NA,"Time Limit","screen",0,"screen","lossB","","","",NA,"Right",-4.67,-5,-4,1,NA,"Right",NA,-5,NA,NA,NA,NA,-5,"MDPRF67412"
"24",1730467339523,"01/11/2024 13:22:19",1730467339523,0,"01/11/2024 13:22:19",193496,6,"task-nt36",NA,41048070,11986070,NA,"complete",NA,"6724cfd1b1886425b73159eb","computer","Desktop or Laptop","Mac OS 10.15.7","Chrome 129.0.0.0","1470x956","1470x832",NA,NA,0,"Gambling_GBO",15,"In","EFDGCHBIAJK",NA,"In","MH_OCT","seq2","Gamble_Rand_Seq2","Gamble_Rand_Seq2",1,"lossB","loss","2apfzp",4,"timedOut","",1000.3,1000,1000.3,1000.3,1000,1000.3,1,1000.3,0,0,NA,"Time Limit","screen",0,"screen","lossB","","","",NA,"Right",-4.67,-5,-4,1,NA,"Right",NA,-5,NA,NA,NA,NA,-5,"MDPRF67412"
"25",1730467339534,"01/11/2024 13:22:19",1730467339534,0,"01/11/2024 13:22:19",193496,6,"task-nt36",NA,41048070,11986070,NA,"complete",NA,"6724cfd1b1886425b73159eb","computer","Desktop or Laptop","Mac OS 10.15.7","Chrome 129.0.0.0","1470x956","1470x832",NA,NA,0,"Gambling_GBO",15,"In","EFDGCHBIAJK",NA,"In","MH_OCT","seq2","Gamble_Rand_Seq2","Gamble_Rand_Seq2",4,"Rating","Screen 1","hx8b5a",1,"info","",11.7000000953703,0,11.7000000953703,11.7000000953703,0,11.7000000953703,1,11.7000000953703,0,0,NA,"Slider","MoodSlider",2,"object-243","Rating","bored","not bored","bored",2,"",NA,NA,NA,NA,NA,"Right",NA,-5,NA,NA,NA,NA,-5,"MDPRF67412"
"26",1730467342021,"01/11/2024 13:22:22",1730467342021,0,"01/11/2024 13:22:22",193496,6,"task-nt36",NA,41048070,11986070,NA,"complete",NA,"6724cfd1b1886425b73159eb","computer","Desktop or Laptop","Mac OS 10.15.7","Chrome 129.0.0.0","1470x956","1470x832",NA,NA,0,"Gambling_GBO",15,"In","EFDGCHBIAJK",NA,"In","MH_OCT","seq2","Gamble_Rand_Seq2","Gamble_Rand_Seq2",4,"Rating","Screen 1","hx8b5a",1,"continue","",2498.60000019074,2483.3,2498.60000019074,2498.60000019074,2483.3,2498.60000019074,1,2498.60000019074,0,0,NA,"Click To Continue","Continue Button",3,"object-25","Rating","bored","not bored","bored",2,"",NA,NA,NA,NA,NA,"Right",NA,-5,NA,NA,NA,NA,-5,"MDPRF67412"
"27",1730467342021,"01/11/2024 13:22:22",1730467342021,0,"01/11/2024 13:22:22",193496,6,"task-nt36",NA,41048070,11986070,NA,"complete",NA,"6724cfd1b1886425b73159eb","computer","Desktop or Laptop","Mac OS 10.15.7","Chrome 129.0.0.0","1470x956","1470x832",NA,NA,0,"Gambling_GBO",15,"In","EFDGCHBIAJK",NA,"In","MH_OCT","seq2","Gamble_Rand_Seq2","Gamble_Rand_Seq2",4,"Rating","Screen 1","hx8b5a",1,"response","13",1683.4,2483.3,2498.90000014305,1683.4,2483.3,2498.90000014305,1,1683.4,815.500000143053,0,NA,"Slider","MoodSlider",2,"object-243","Rating","bored","not bored","bored",2,"",NA,NA,NA,NA,NA,"Right",NA,-5,NA,NA,NA,NA,-5,"MDPRF67412"
"28",1730467342026,"01/11/2024 13:22:22",1730467342026,0,"01/11/2024 13:22:22",193496,6,"task-nt36",NA,41048070,11986070,NA,"complete",NA,"6724cfd1b1886425b73159eb","computer","Desktop or Laptop","Mac OS 10.15.7","Chrome 129.0.0.0","1470x956","1470x832",NA,NA,0,"Gambling_GBO",15,"In","EFDGCHBIAJK",NA,"In","MH_OCT","seq2","Gamble_Rand_Seq2","Gamble_Rand_Seq2",5,"Rating","Screen 1","hx8b5a",1,"info","",16.6999999999971,0,16.6999999999971,16.6999999999971,0,16.6999999999971,1,16.6999999999971,0,0,NA,"Slider","MoodSlider",2,"object-243","Rating","frustrated","not frustrated","frustrated",2,"",NA,NA,NA,NA,NA,"Right",NA,-5,NA,NA,NA,NA,-5,"MDPRF67412"
"29",1730467344191,"01/11/2024 13:22:24",1730467344191,0,"01/11/2024 13:22:24",193496,6,"task-nt36",NA,41048070,11986070,NA,"complete",NA,"6724cfd1b1886425b73159eb","computer","Desktop or Laptop","Mac OS 10.15.7","Chrome 129.0.0.0","1470x956","1470x832",NA,NA,0,"Gambling_GBO",15,"In","EFDGCHBIAJK",NA,"In","MH_OCT","seq2","Gamble_Rand_Seq2","Gamble_Rand_Seq2",5,"Rating","Screen 1","hx8b5a",1,"continue","",2185.5,2182.3,2185.5,2185.5,2182.3,2185.5,1,2185.5,0,0,NA,"Click To Continue","Continue Button",3,"object-25","Rating","frustrated","not frustrated","frustrated",2,"",NA,NA,NA,NA,NA,"Right",NA,-5,NA,NA,NA,NA,-5,"MDPRF67412"
"30",1730467344192,"01/11/2024 13:22:24",1730467344192,0,"01/11/2024 13:22:24",193496,6,"task-nt36",NA,41048070,11986070,NA,"complete",NA,"6724cfd1b1886425b73159eb","computer","Desktop or Laptop","Mac OS 10.15.7","Chrome 129.0.0.0","1470x956","1470x832",NA,NA,0,"Gambling_GBO",15,"In","EFDGCHBIAJK",NA,"In","MH_OCT","seq2","Gamble_Rand_Seq2","Gamble_Rand_Seq2",5,"Rating","Screen 1","hx8b5a",1,"response","20",1400,2182.3,2185.90000009537,1400,2182.3,2185.90000009537,1,1400,785.900000095367,0,NA,"Slider","MoodSlider",2,"object-243","Rating","frustrated","not frustrated","frustrated",2,"",NA,NA,NA,NA,NA,"Right",NA,-5,NA,NA,NA,NA,-5,"MDPRF67412"
"31",1730467344197,"01/11/2024 13:22:24",1730467344197,0,"01/11/2024 13:22:24",193496,6,"task-nt36",NA,41048070,11986070,NA,"complete",NA,"6724cfd1b1886425b73159eb","computer","Desktop or Laptop","Mac OS 10.15.7","Chrome 129.0.0.0","1470x956","1470x832",NA,NA,0,"Gambling_GBO",15,"In","EFDGCHBIAJK",NA,"In","MH_OCT","seq2","Gamble_Rand_Seq2","Gamble_Rand_Seq2",6,"Rating","Screen 1","hx8b5a",1,"info","",9.00000019073195,0,9.00000019073195,9.00000019073195,0,9.00000019073195,1,9.00000019073195,0,0,NA,"Slider","MoodSlider",2,"object-243","Rating","happy","not happy","happy",2,"",NA,NA,NA,NA,NA,"Right",NA,-5,NA,NA,NA,NA,-5,"MDPRF67412"
"32",1730467346386,"01/11/2024 13:22:26",1730467346386,0,"01/11/2024 13:22:26",193496,6,"task-nt36",NA,41048070,11986070,NA,"complete",NA,"6724cfd1b1886425b73159eb","computer","Desktop or Laptop","Mac OS 10.15.7","Chrome 129.0.0.0","1470x956","1470x832",NA,NA,0,"Gambling_GBO",15,"In","EFDGCHBIAJK",NA,"In","MH_OCT","seq2","Gamble_Rand_Seq2","Gamble_Rand_Seq2",6,"Rating","Screen 1","hx8b5a",1,"continue","",2198.2,2184.39999999999,2198.2,2198.2,2184.39999999999,2198.2,1,2198.2,0,0,NA,"Click To Continue","Continue Button",3,"object-25","Rating","happy","not happy","happy",2,"",NA,NA,NA,NA,NA,"Right",NA,-5,NA,NA,NA,NA,-5,"MDPRF67412"
"33",1730467346387,"01/11/2024 13:22:26",1730467346387,0,"01/11/2024 13:22:26",193496,6,"task-nt36",NA,41048070,11986070,NA,"complete",NA,"6724cfd1b1886425b73159eb","computer","Desktop or Laptop","Mac OS 10.15.7","Chrome 129.0.0.0","1470x956","1470x832",NA,NA,0,"Gambling_GBO",15,"In","EFDGCHBIAJK",NA,"In","MH_OCT","seq2","Gamble_Rand_Seq2","Gamble_Rand_Seq2",6,"Rating","Screen 1","hx8b5a",1,"response","85",1551,2184.39999999999,2198.80000014305,1551,2184.39999999999,2198.80000014305,1,1551,647.800000143048,0,NA,"Slider","MoodSlider",2,"object-243","Rating","happy","not happy","happy",2,"",NA,NA,NA,NA,NA,"Right",NA,-5,NA,NA,NA,NA,-5,"MDPRF67412"
"34",1730467348340,"01/11/2024 13:22:28",1730467348340,0,"01/11/2024 13:22:28",193496,6,"task-nt36",NA,41048070,11986070,NA,"complete",NA,"6724cfd1b1886425b73159eb","computer","Desktop or Laptop","Mac OS 10.15.7","Chrome 129.0.0.0","1470x956","1470x832",NA,NA,0,"Gambling_GBO",15,"In","EFDGCHBIAJK",NA,"In","MH_OCT","seq2","Gamble_Rand_Seq2","Gamble_Rand_Seq2",1,"winT","Screen 1","np5pnj",1,"continue","",1966.60000000001,1966.60000000001,1966.60000000001,1966.60000000001,1966.60000000001,1966.60000000001,1,1966.60000000001,0,0,NA,"Fixation Timing","Fixation",1,"object-304","winT","","","",NA,"Right",-3.67,-4,-3,2,NA,"Right",NA,-5,NA,NA,NA,NA,-5,"MDPRF67412"
"35",1730467350323,"01/11/2024 13:22:30",1730467350323,0,"01/11/2024 13:22:30",193496,6,"task-nt36",NA,41048070,11986070,NA,"complete",NA,"6724cfd1b1886425b73159eb","computer","Desktop or Laptop","Mac OS 10.15.7","Chrome 129.0.0.0","1470x956","1470x832",NA,NA,0,"Gambling_GBO",15,"In","EFDGCHBIAJK",NA,"In","MH_OCT","seq2","Gamble_Rand_Seq2","Gamble_Rand_Seq2",1,"winT","choice","gu8zgx",2,"response","Left",1983.2,1966.6,1983.2,1983.2,1966.6,1983.2,0,1983.2,0,0,NA,"Keyboard Response","KeyResponseC",5,"object-325","winT","","","",NA,"Right",-3.67,-4,-3,2,NA,"Left",NA,-8.67,NA,NA,NA,NA,-3.67,"MDPRF67412"
"36",1730467355306,"01/11/2024 13:22:35",1730467355306,0,"01/11/2024 13:22:35",193496,6,"task-nt36",NA,41048070,11986070,NA,"complete",NA,"6724cfd1b1886425b73159eb","computer","Desktop or Laptop","Mac OS 10.15.7","Chrome 129.0.0.0","1470x956","1470x832",NA,NA,0,"Gambling_GBO",15,"In","EFDGCHBIAJK",NA,"In","MH_OCT","seq2","Gamble_Rand_Seq2","Gamble_Rand_Seq2",1,"winT","certain","q11kp8",3,"timedOut","",5000.30000004768,4999.99999999999,5000.30000004768,5000.30000004768,4999.99999999999,5000.30000004768,1,5000.30000004768,0,0,NA,"Time Limit","screen",0,"screen","winT","","","",NA,"Right",-3.67,-4,-3,2,NA,"Left",NA,-8.67,NA,NA,NA,NA,-3.67,"MDPRF67412"
"37",1730467355317,"01/11/2024 13:22:35",1730467355317,0,"01/11/2024 13:22:35",193496,6,"task-nt36",NA,41048070,11986070,NA,"complete",NA,"6724cfd1b1886425b73159eb","computer","Desktop or Laptop","Mac OS 10.15.7","Chrome 129.0.0.0","1470x956","1470x832",NA,NA,0,"Gambling_GBO",15,"In","EFDGCHBIAJK",NA,"In","MH_OCT","seq2","Gamble_Rand_Seq2","Gamble_Rand_Seq2",7,"Rating","Screen 1","hx8b5a",1,"info","",11.1000000000058,0,11.1000000000058,11.1000000000058,0,11.1000000000058,1,11.1000000000058,0,0,NA,"Slider","MoodSlider",2,"object-243","Rating","bored","not bored","bored",3,"",NA,NA,NA,NA,NA,"Left",NA,-8.67,NA,NA,NA,NA,-3.67,"MDPRF67412"
"38",1730467357653,"01/11/2024 13:22:37",1730467357653,0,"01/11/2024 13:22:37",193496,6,"task-nt36",NA,41048070,11986070,NA,"complete",NA,"6724cfd1b1886425b73159eb","computer","Desktop or Laptop","Mac OS 10.15.7","Chrome 129.0.0.0","1470x956","1470x832",NA,NA,0,"Gambling_GBO",15,"In","EFDGCHBIAJK",NA,"In","MH_OCT","seq2","Gamble_Rand_Seq2","Gamble_Rand_Seq2",7,"Rating","Screen 1","hx8b5a",1,"continue","",2347.20000014306,2333.3,2347.20000014306,2347.20000014306,2333.3,2347.20000014306,1,2347.20000014306,0,0,NA,"Click To Continue","Continue Button",3,"object-25","Rating","bored","not bored","bored",3,"",NA,NA,NA,NA,NA,"Left",NA,-8.67,NA,NA,NA,NA,-3.67,"MDPRF67412"
"39",1730467357653,"01/11/2024 13:22:37",1730467357653,0,"01/11/2024 13:22:37",193496,6,"task-nt36",NA,41048070,11986070,NA,"complete",NA,"6724cfd1b1886425b73159eb","computer","Desktop or Laptop","Mac OS 10.15.7","Chrome 129.0.0.0","1470x956","1470x832",NA,NA,0,"Gambling_GBO",15,"In","EFDGCHBIAJK",NA,"In","MH_OCT","seq2","Gamble_Rand_Seq2","Gamble_Rand_Seq2",7,"Rating","Screen 1","hx8b5a",1,"response","12",1500,2333.3,2347.70000014306,1500,2333.3,2347.70000014306,1,1500,847.700000143057,0,NA,"Slider","MoodSlider",2,"object-243","Rating","bored","not bored","bored",3,"",NA,NA,NA,NA,NA,"Left",NA,-8.67,NA,NA,NA,NA,-3.67,"MDPRF67412"
"40",1730467357659,"01/11/2024 13:22:37",1730467357659,0,"01/11/2024 13:22:37",193496,6,"task-nt36",NA,41048070,11986070,NA,"complete",NA,"6724cfd1b1886425b73159eb","computer","Desktop or Laptop","Mac OS 10.15.7","Chrome 129.0.0.0","1470x956","1470x832",NA,NA,0,"Gambling_GBO",15,"In","EFDGCHBIAJK",NA,"In","MH_OCT","seq2","Gamble_Rand_Seq2","Gamble_Rand_Seq2",8,"Rating","Screen 1","hx8b5a",1,"info","",16.6999999999971,0,16.6999999999971,16.6999999999971,0,16.6999999999971,1,16.6999999999971,0,0,NA,"Slider","MoodSlider",2,"object-243","Rating","frustrated","not frustrated","frustrated",3,"",NA,NA,NA,NA,NA,"Left",NA,-8.67,NA,NA,NA,NA,-3.67,"MDPRF67412"
"41",1730467359684,"01/11/2024 13:22:39",1730467359684,0,"01/11/2024 13:22:39",193496,6,"task-nt36",NA,41048070,11986070,NA,"complete",NA,"6724cfd1b1886425b73159eb","computer","Desktop or Laptop","Mac OS 10.15.7","Chrome 129.0.0.0","1470x956","1470x832",NA,NA,0,"Gambling_GBO",15,"In","EFDGCHBIAJK",NA,"In","MH_OCT","seq2","Gamble_Rand_Seq2","Gamble_Rand_Seq2",8,"Rating","Screen 1","hx8b5a",1,"continue","",2045.20000009537,2033.3,2045.20000009537,2045.20000009537,2033.3,2045.20000009537,1,2045.20000009537,0,0,NA,"Click To Continue","Continue Button",3,"object-25","Rating","frustrated","not frustrated","frustrated",3,"",NA,NA,NA,NA,NA,"Left",NA,-8.67,NA,NA,NA,NA,-3.67,"MDPRF67412"
"42",1730467359684,"01/11/2024 13:22:39",1730467359684,0,"01/11/2024 13:22:39",193496,6,"task-nt36",NA,41048070,11986070,NA,"complete",NA,"6724cfd1b1886425b73159eb","computer","Desktop or Laptop","Mac OS 10.15.7","Chrome 129.0.0.0","1470x956","1470x832",NA,NA,0,"Gambling_GBO",15,"In","EFDGCHBIAJK",NA,"In","MH_OCT","seq2","Gamble_Rand_Seq2","Gamble_Rand_Seq2",8,"Rating","Screen 1","hx8b5a",1,"response","17",1315.7,2033.3,2045.50000004769,1315.7,2033.3,2045.50000004769,1,1315.7,729.80000004769,0,NA,"Slider","MoodSlider",2,"object-243","Rating","frustrated","not frustrated","frustrated",3,"",NA,NA,NA,NA,NA,"Left",NA,-8.67,NA,NA,NA,NA,-3.67,"MDPRF67412"
"43",1730467359690,"01/11/2024 13:22:39",1730467359690,0,"01/11/2024 13:22:39",193496,6,"task-nt36",NA,41048070,11986070,NA,"complete",NA,"6724cfd1b1886425b73159eb","computer","Desktop or Laptop","Mac OS 10.15.7","Chrome 129.0.0.0","1470x956","1470x832",NA,NA,0,"Gambling_GBO",15,"In","EFDGCHBIAJK",NA,"In","MH_OCT","seq2","Gamble_Rand_Seq2","Gamble_Rand_Seq2",9,"Rating","Screen 1","hx8b5a",1,"info","",16.6000000000058,0,16.6000000000058,16.6000000000058,0,16.6000000000058,1,16.6000000000058,0,0,NA,"Slider","MoodSlider",2,"object-243","Rating","happy","not happy","happy",3,"",NA,NA,NA,NA,NA,"Left",NA,-8.67,NA,NA,NA,NA,-3.67,"MDPRF67412"
"44",1730467361389,"01/11/2024 13:22:41",1730467361389,0,"01/11/2024 13:22:41",193496,6,"task-nt36",NA,41048070,11986070,NA,"complete",NA,"6724cfd1b1886425b73159eb","computer","Desktop or Laptop","Mac OS 10.15.7","Chrome 129.0.0.0","1470x956","1470x832",NA,NA,0,"Gambling_GBO",15,"In","EFDGCHBIAJK",NA,"In","MH_OCT","seq2","Gamble_Rand_Seq2","Gamble_Rand_Seq2",9,"Rating","Screen 1","hx8b5a",1,"continue","",1716.60000000001,1700,1716.60000000001,1716.60000000001,1700,1716.60000000001,1,1716.60000000001,0,0,NA,"Click To Continue","Continue Button",3,"object-25","Rating","happy","not happy","happy",3,"",NA,NA,NA,NA,NA,"Left",NA,-8.67,NA,NA,NA,NA,-3.67,"MDPRF67412"
"45",1730467361391,"01/11/2024 13:22:41",1730467361391,0,"01/11/2024 13:22:41",193496,6,"task-nt36",NA,41048070,11986070,NA,"complete",NA,"6724cfd1b1886425b73159eb","computer","Desktop or Laptop","Mac OS 10.15.7","Chrome 129.0.0.0","1470x956","1470x832",NA,NA,0,"Gambling_GBO",15,"In","EFDGCHBIAJK",NA,"In","MH_OCT","seq2","Gamble_Rand_Seq2","Gamble_Rand_Seq2",9,"Rating","Screen 1","hx8b5a",1,"response","79",1015.7,1700,1716.60000000001,1015.7,1700,1716.60000000001,1,1015.7,700.900000000009,0,NA,"Slider","MoodSlider",2,"object-243","Rating","happy","not happy","happy",3,"",NA,NA,NA,NA,NA,"Left",NA,-8.67,NA,NA,NA,NA,-3.67,"MDPRF67412"
"46",1730467363340,"01/11/2024 13:22:43",1730467363340,0,"01/11/2024 13:22:43",193496,6,"task-nt36",NA,41048070,11986070,NA,"complete",NA,"6724cfd1b1886425b73159eb","computer","Desktop or Laptop","Mac OS 10.15.7","Chrome 129.0.0.0","1470x956","1470x832",NA,NA,0,"Gambling_GBO",15,"In","EFDGCHBIAJK",NA,"In","MH_OCT","seq2","Gamble_Rand_Seq2","Gamble_Rand_Seq2",2,"lossB","Screen 1","a4fynh",1,"continue","",1966.2,1966.2,1966.2,1966.2,1966.2,1966.2,1,1966.2,0,0,NA,"Fixation Timing","Fixation",1,"object-113","lossB","","","",NA,"Right",-4.33,-5,-3,3,NA,"Left",NA,-8.67,NA,NA,NA,NA,-3.67,"MDPRF67412"
"47",1730467365176,"01/11/2024 13:22:45",1730467365176,0,"01/11/2024 13:22:45",193496,6,"task-nt36",NA,41048070,11986070,NA,"complete",NA,"6724cfd1b1886425b73159eb","computer","Desktop or Laptop","Mac OS 10.15.7","Chrome 129.0.0.0","1470x956","1470x832",NA,NA,0,"Gambling_GBO",15,"In","EFDGCHBIAJK",NA,"In","MH_OCT","seq2","Gamble_Rand_Seq2","Gamble_Rand_Seq2",2,"lossB","choice","k9qq8f",2,"response","Left",1836.70000009537,1833.3,1836.70000009537,1836.70000009537,1833.3,1836.70000009537,0,1836.70000009537,0,0,NA,"Keyboard Response","KeyResponseC",5,"object-199","lossB","","","",NA,"Right",-4.33,-5,-3,3,NA,"Left",NA,-13,NA,NA,NA,NA,-4.33,"MDPRF67412"
"48",1730467370172,"01/11/2024 13:22:50",1730467370172,0,"01/11/2024 13:22:50",193496,6,"task-nt36",NA,41048070,11986070,NA,"complete",NA,"6724cfd1b1886425b73159eb","computer","Desktop or Laptop","Mac OS 10.15.7","Chrome 129.0.0.0","1470x956","1470x832",NA,NA,0,"Gambling_GBO",15,"In","EFDGCHBIAJK",NA,"In","MH_OCT","seq2","Gamble_Rand_Seq2","Gamble_Rand_Seq2",2,"lossB","certain","rptf8c",3,"timedOut","",5000.80000019073,5000.60000000001,5000.80000019073,5000.80000019073,5000.60000000001,5000.80000019073,1,5000.80000019073,0,0,NA,"Time Limit","screen",0,"screen","lossB","","","",NA,"Right",-4.33,-5,-3,3,NA,"Left",NA,-13,NA,NA,NA,NA,-4.33,"MDPRF67412"
"49",1730467370182,"01/11/2024 13:22:50",1730467370182,0,"01/11/2024 13:22:50",193496,6,"task-nt36",NA,41048070,11986070,NA,"complete",NA,"6724cfd1b1886425b73159eb","computer","Desktop or Laptop","Mac OS 10.15.7","Chrome 129.0.0.0","1470x956","1470x832",NA,NA,0,"Gambling_GBO",15,"In","EFDGCHBIAJK",NA,"In","MH_OCT","seq2","Gamble_Rand_Seq2","Gamble_Rand_Seq2",10,"Rating","Screen 1","hx8b5a",1,"info","",10.3000000953616,0,10.3000000953616,10.3000000953616,0,10.3000000953616,1,10.3000000953616,0,0,NA,"Slider","MoodSlider",2,"object-243","Rating","frustrated","not frustrated","frustrated",4,"",NA,NA,NA,NA,NA,"Left",NA,-13,NA,NA,NA,NA,-4.33,"MDPRF67412"
"50",1730467372180,"01/11/2024 13:22:52",1730467372180,0,"01/11/2024 13:22:52",193496,6,"task-nt36",NA,41048070,11986070,NA,"complete",NA,"6724cfd1b1886425b73159eb","computer","Desktop or Laptop","Mac OS 10.15.7","Chrome 129.0.0.0","1470x956","1470x832",NA,NA,0,"Gambling_GBO",15,"In","EFDGCHBIAJK",NA,"In","MH_OCT","seq2","Gamble_Rand_Seq2","Gamble_Rand_Seq2",10,"Rating","Screen 1","hx8b5a",1,"continue","",2008.00000014305,1999.79999999999,2008.00000014305,2008.00000014305,1999.79999999999,2008.00000014305,1,2008.00000014305,0,0,NA,"Click To Continue","Continue Button",3,"object-25","Rating","frustrated","not frustrated","frustrated",4,"",NA,NA,NA,NA,NA,"Left",NA,-13,NA,NA,NA,NA,-4.33,"MDPRF67412"
"51",1730467372182,"01/11/2024 13:22:52",1730467372182,0,"01/11/2024 13:22:52",193496,6,"task-nt36",NA,41048070,11986070,NA,"complete",NA,"6724cfd1b1886425b73159eb","computer","Desktop or Laptop","Mac OS 10.15.7","Chrome 129.0.0.0","1470x956","1470x832",NA,NA,0,"Gambling_GBO",15,"In","EFDGCHBIAJK",NA,"In","MH_OCT","seq2","Gamble_Rand_Seq2","Gamble_Rand_Seq2",10,"Rating","Screen 1","hx8b5a",1,"response","16",1116.59999999999,1999.79999999999,2009.89999999999,1116.59999999999,1999.79999999999,2009.89999999999,1,1116.59999999999,893.300000000003,0,NA,"Slider","MoodSlider",2,"object-243","Rating","frustrated","not frustrated","frustrated",4,"",NA,NA,NA,NA,NA,"Left",NA,-13,NA,NA,NA,NA,-4.33,"MDPRF67412"
"52",1730467372187,"01/11/2024 13:22:52",1730467372187,0,"01/11/2024 13:22:52",193496,6,"task-nt36",NA,41048070,11986070,NA,"complete",NA,"6724cfd1b1886425b73159eb","computer","Desktop or Laptop","Mac OS 10.15.7","Chrome 129.0.0.0","1470x956","1470x832",NA,NA,0,"Gambling_GBO",15,"In","EFDGCHBIAJK",NA,"In","MH_OCT","seq2","Gamble_Rand_Seq2","Gamble_Rand_Seq2",11,"Rating","Screen 1","hx8b5a",1,"info","",14.8000000476895,0,14.8000000476895,14.8000000476895,0,14.8000000476895,1,14.8000000476895,0,0,NA,"Slider","MoodSlider",2,"object-243","Rating","bored","not bored","bored",4,"",NA,NA,NA,NA,NA,"Left",NA,-13,NA,NA,NA,NA,-4.33,"MDPRF67412"
"53",1730467373608,"01/11/2024 13:22:53",1730467373608,0,"01/11/2024 13:22:53",193496,6,"task-nt36",NA,41048070,11986070,NA,"complete",NA,"6724cfd1b1886425b73159eb","computer","Desktop or Laptop","Mac OS 10.15.7","Chrome 129.0.0.0","1470x956","1470x832",NA,NA,0,"Gambling_GBO",15,"In","EFDGCHBIAJK",NA,"In","MH_OCT","seq2","Gamble_Rand_Seq2","Gamble_Rand_Seq2",11,"Rating","Screen 1","hx8b5a",1,"continue","",1436.40000019074,1432.3,1436.40000019074,1436.40000019074,1432.3,1436.40000019074,1,1436.40000019074,0,0,NA,"Click To Continue","Continue Button",3,"object-25","Rating","bored","not bored","bored",4,"",NA,NA,NA,NA,NA,"Left",NA,-13,NA,NA,NA,NA,-4.33,"MDPRF67412"
"54",1730467373608,"01/11/2024 13:22:53",1730467373608,0,"01/11/2024 13:22:53",193496,6,"task-nt36",NA,41048070,11986070,NA,"complete",NA,"6724cfd1b1886425b73159eb","computer","Desktop or Laptop","Mac OS 10.15.7","Chrome 129.0.0.0","1470x956","1470x832",NA,NA,0,"Gambling_GBO",15,"In","EFDGCHBIAJK",NA,"In","MH_OCT","seq2","Gamble_Rand_Seq2","Gamble_Rand_Seq2",11,"Rating","Screen 1","hx8b5a",1,"response","12",850,1432.3,1436.60000000001,850,1432.3,1436.60000000001,1,850,586.600000000006,0,NA,"Slider","MoodSlider",2,"object-243","Rating","bored","not bored","bored",4,"",NA,NA,NA,NA,NA,"Left",NA,-13,NA,NA,NA,NA,-4.33,"MDPRF67412"
"55",1730467373613,"01/11/2024 13:22:53",1730467373613,0,"01/11/2024 13:22:53",193496,6,"task-nt36",NA,41048070,11986070,NA,"complete",NA,"6724cfd1b1886425b73159eb","computer","Desktop or Laptop","Mac OS 10.15.7","Chrome 129.0.0.0","1470x956","1470x832",NA,NA,0,"Gambling_GBO",15,"In","EFDGCHBIAJK",NA,"In","MH_OCT","seq2","Gamble_Rand_Seq2","Gamble_Rand_Seq2",12,"Rating","Screen 1","hx8b5a",1,"info","",8.90000014305406,0,8.90000014305406,8.90000014305406,0,8.90000014305406,1,8.90000014305406,0,0,NA,"Slider","MoodSlider",2,"object-243","Rating","happy","not happy","happy",4,"",NA,NA,NA,NA,NA,"Left",NA,-13,NA,NA,NA,NA,-4.33,"MDPRF67412"
"56",1730467375834,"01/11/2024 13:22:55",1730467375834,0,"01/11/2024 13:22:55",193496,6,"task-nt36",NA,41048070,11986070,NA,"complete",NA,"6724cfd1b1886425b73159eb","computer","Desktop or Laptop","Mac OS 10.15.7","Chrome 129.0.0.0","1470x956","1470x832",NA,NA,0,"Gambling_GBO",15,"In","EFDGCHBIAJK",NA,"In","MH_OCT","seq2","Gamble_Rand_Seq2","Gamble_Rand_Seq2",12,"Rating","Screen 1","hx8b5a",1,"continue","",2230.3,2217.7,2230.3,2230.3,2217.7,2230.3,1,2230.3,0,0,NA,"Click To Continue","Continue Button",3,"object-25","Rating","happy","not happy","happy",4,"",NA,NA,NA,NA,NA,"Left",NA,-13,NA,NA,NA,NA,-4.33,"MDPRF67412"
"57",1730467375835,"01/11/2024 13:22:55",1730467375835,0,"01/11/2024 13:22:55",193496,6,"task-nt36",NA,41048070,11986070,NA,"complete",NA,"6724cfd1b1886425b73159eb","computer","Desktop or Laptop","Mac OS 10.15.7","Chrome 129.0.0.0","1470x956","1470x832",NA,NA,0,"Gambling_GBO",15,"In","EFDGCHBIAJK",NA,"In","MH_OCT","seq2","Gamble_Rand_Seq2","Gamble_Rand_Seq2",12,"Rating","Screen 1","hx8b5a",1,"response","79",1466.7,2217.7,2230.60000019074,1466.7,2217.7,2230.60000019074,1,1466.7,763.900000190741,0,NA,"Slider","MoodSlider",2,"object-243","Rating","happy","not happy","happy",4,"",NA,NA,NA,NA,NA,"Left",NA,-13,NA,NA,NA,NA,-4.33,"MDPRF67412"
"58",1730467377789,"01/11/2024 13:22:57",1730467377789,0,"01/11/2024 13:22:57",193496,6,"task-nt36",NA,41048070,11986070,NA,"complete",NA,"6724cfd1b1886425b73159eb","computer","Desktop or Laptop","Mac OS 10.15.7","Chrome 129.0.0.0","1470x956","1470x832",NA,NA,0,"Gambling_GBO",15,"In","EFDGCHBIAJK",NA,"In","MH_OCT","seq2","Gamble_Rand_Seq2","Gamble_Rand_Seq2",3,"lossB","Screen 1","a4fynh",1,"continue","",1966.70000000001,1966.70000000001,1966.70000000001,1966.70000000001,1966.70000000001,1966.70000000001,1,1966.70000000001,0,0,NA,"Fixation Timing","Fixation",1,"object-113","lossB","","","",NA,"Right",4,3,6,4,NA,"Left",NA,-13,NA,NA,NA,NA,-4.33,"MDPRF67412"
"59",1730467379100,"01/11/2024 13:22:59",1730467379100,0,"01/11/2024 13:22:59",193496,6,"task-nt36",NA,41048070,11986070,NA,"complete",NA,"6724cfd1b1886425b73159eb","computer","Desktop or Laptop","Mac OS 10.15.7","Chrome 129.0.0.0","1470x956","1470x832",NA,NA,0,"Gambling_GBO",15,"In","EFDGCHBIAJK",NA,"In","MH_OCT","seq2","Gamble_Rand_Seq2","Gamble_Rand_Seq2",3,"lossB","choice","k9qq8f",2,"response","Right",1311.30000009536,1299.89999999999,1311.30000009536,1311.30000009536,1299.89999999999,1311.30000009536,1,1311.30000009536,0,0,NA,"Keyboard Response","KeyResponseG",6,"object-200","lossB","","","",NA,"Right",4,3,6,4,NA,"Right",NA,-10,NA,NA,NA,NA,3,"MDPRF67412"
"60",1730467383089,"01/11/2024 13:23:03",1730467383089,0,"01/11/2024 13:23:03",193496,6,"task-nt36",NA,41048070,11986070,NA,"complete",NA,"6724cfd1b1886425b73159eb","computer","Desktop or Laptop","Mac OS 10.15.7","Chrome 129.0.0.0","1470x956","1470x832",NA,NA,0,"Gambling_GBO",15,"In","EFDGCHBIAJK",NA,"In","MH_OCT","seq2","Gamble_Rand_Seq2","Gamble_Rand_Seq2",3,"lossB","gamble","tpcid5",3,"timedOut","",4000.20000004768,4000.10000000001,4000.20000004768,4000.20000004768,4000.10000000001,4000.20000004768,1,4000.20000004768,0,0,NA,"Time Limit","screen",0,"screen","lossB","","","",NA,"Right",4,3,6,4,NA,"Right",NA,-10,NA,NA,NA,NA,3,"MDPRF67412"
"61",1730467384089,"01/11/2024 13:23:04",1730467384089,0,"01/11/2024 13:23:04",193496,6,"task-nt36",NA,41048070,11986070,NA,"complete",NA,"6724cfd1b1886425b73159eb","computer","Desktop or Laptop","Mac OS 10.15.7","Chrome 129.0.0.0","1470x956","1470x832",NA,NA,0,"Gambling_GBO",15,"In","EFDGCHBIAJK",NA,"In","MH_OCT","seq2","Gamble_Rand_Seq2","Gamble_Rand_Seq2",3,"lossB","loss","2apfzp",4,"timedOut","",1000.00000014305,999.899999999994,1000.00000014305,1000.00000014305,999.899999999994,1000.00000014305,1,1000.00000014305,0,0,NA,"Time Limit","screen",0,"screen","lossB","","","",NA,"Right",4,3,6,4,NA,"Right",NA,-10,NA,NA,NA,NA,3,"MDPRF67412"
"62",1730467384094,"01/11/2024 13:23:04",1730467384094,0,"01/11/2024 13:23:04",193496,6,"task-nt36",NA,41048070,11986070,NA,"complete",NA,"6724cfd1b1886425b73159eb","computer","Desktop or Laptop","Mac OS 10.15.7","Chrome 129.0.0.0","1470x956","1470x832",NA,NA,0,"Gambling_GBO",15,"In","EFDGCHBIAJK",NA,"In","MH_OCT","seq2","Gamble_Rand_Seq2","Gamble_Rand_Seq2",13,"Rating","Screen 1","hx8b5a",1,"info","",6,0,6,6,0,6,1,6,0,0,NA,"Slider","MoodSlider",2,"object-243","Rating","happy","not happy","happy",5,"",NA,NA,NA,NA,NA,"Right",NA,-10,NA,NA,NA,NA,3,"MDPRF67412"
"63",1730467387871,"01/11/2024 13:23:07",1730467387871,0,"01/11/2024 13:23:07",193496,6,"task-nt36",NA,41048070,11986070,NA,"complete",NA,"6724cfd1b1886425b73159eb","computer","Desktop or Laptop","Mac OS 10.15.7","Chrome 129.0.0.0","1470x956","1470x832",NA,NA,0,"Gambling_GBO",15,"In","EFDGCHBIAJK",NA,"In","MH_OCT","seq2","Gamble_Rand_Seq2","Gamble_Rand_Seq2",13,"Rating","Screen 1","hx8b5a",1,"continue","",3783.20000004768,3782.3,3783.20000004768,3783.20000004768,3782.3,3783.20000004768,1,3783.20000004768,0,0,NA,"Click To Continue","Continue Button",3,"object-25","Rating","happy","not happy","happy",5,"",NA,NA,NA,NA,NA,"Right",NA,-10,NA,NA,NA,NA,3,"MDPRF67412"
"64",1730467387872,"01/11/2024 13:23:07",1730467387872,0,"01/11/2024 13:23:07",193496,6,"task-nt36",NA,41048070,11986070,NA,"complete",NA,"6724cfd1b1886425b73159eb","computer","Desktop or Laptop","Mac OS 10.15.7","Chrome 129.0.0.0","1470x956","1470x832",NA,NA,0,"Gambling_GBO",15,"In","EFDGCHBIAJK",NA,"In","MH_OCT","seq2","Gamble_Rand_Seq2","Gamble_Rand_Seq2",13,"Rating","Screen 1","hx8b5a",1,"response","77",3066.60000000001,3782.3,3783.5,3066.60000000001,3782.3,3783.5,1,3066.60000000001,716.899999999994,0,NA,"Slider","MoodSlider",2,"object-243","Rating","happy","not happy","happy",5,"",NA,NA,NA,NA,NA,"Right",NA,-10,NA,NA,NA,NA,3,"MDPRF67412"
"65",1730467387876,"01/11/2024 13:23:07",1730467387876,0,"01/11/2024 13:23:07",193496,6,"task-nt36",NA,41048070,11986070,NA,"complete",NA,"6724cfd1b1886425b73159eb","computer","Desktop or Laptop","Mac OS 10.15.7","Chrome 129.0.0.0","1470x956","1470x832",NA,NA,0,"Gambling_GBO",15,"In","EFDGCHBIAJK",NA,"In","MH_OCT","seq2","Gamble_Rand_Seq2","Gamble_Rand_Seq2",14,"Rating","Screen 1","hx8b5a",1,"info","",5.50000019073195,0,5.50000019073195,5.50000019073195,0,5.50000019073195,1,5.50000019073195,0,0,NA,"Slider","MoodSlider",2,"object-243","Rating","bored","not bored","bored",5,"",NA,NA,NA,NA,NA,"Right",NA,-10,NA,NA,NA,NA,3,"MDPRF67412"
"66",1730467389536,"01/11/2024 13:23:09",1730467389536,0,"01/11/2024 13:23:09",193496,6,"task-nt36",NA,41048070,11986070,NA,"complete",NA,"6724cfd1b1886425b73159eb","computer","Desktop or Laptop","Mac OS 10.15.7","Chrome 129.0.0.0","1470x956","1470x832",NA,NA,0,"Gambling_GBO",15,"In","EFDGCHBIAJK",NA,"In","MH_OCT","seq2","Gamble_Rand_Seq2","Gamble_Rand_Seq2",14,"Rating","Screen 1","hx8b5a",1,"continue","",1665.00000019073,1650,1665.00000019073,1665.00000019073,1650,1665.00000019073,1,1665.00000019073,0,0,NA,"Click To Continue","Continue Button",3,"object-25","Rating","bored","not bored","bored",5,"",NA,NA,NA,NA,NA,"Right",NA,-10,NA,NA,NA,NA,3,"MDPRF67412"
"67",1730467389536,"01/11/2024 13:23:09",1730467389536,0,"01/11/2024 13:23:09",193496,6,"task-nt36",NA,41048070,11986070,NA,"complete",NA,"6724cfd1b1886425b73159eb","computer","Desktop or Laptop","Mac OS 10.15.7","Chrome 129.0.0.0","1470x956","1470x832",NA,NA,0,"Gambling_GBO",15,"In","EFDGCHBIAJK",NA,"In","MH_OCT","seq2","Gamble_Rand_Seq2","Gamble_Rand_Seq2",14,"Rating","Screen 1","hx8b5a",1,"response","17",1017.59999999999,1650,1665.60000009536,1017.59999999999,1650,1665.60000009536,1,1017.59999999999,648.000000095373,0,NA,"Slider","MoodSlider",2,"object-243","Rating","bored","not bored","bored",5,"",NA,NA,NA,NA,NA,"Right",NA,-10,NA,NA,NA,NA,3,"MDPRF67412"
"68",1730467389542,"01/11/2024 13:23:09",1730467389542,0,"01/11/2024 13:23:09",193496,6,"task-nt36",NA,41048070,11986070,NA,"complete",NA,"6724cfd1b1886425b73159eb","computer","Desktop or Laptop","Mac OS 10.15.7","Chrome 129.0.0.0","1470x956","1470x832",NA,NA,0,"Gambling_GBO",15,"In","EFDGCHBIAJK",NA,"In","MH_OCT","seq2","Gamble_Rand_Seq2","Gamble_Rand_Seq2",15,"Rating","Screen 1","hx8b5a",1,"info","",16.6999999999971,0,16.6999999999971,16.6999999999971,0,16.6999999999971,1,16.6999999999971,0,0,NA,"Slider","MoodSlider",2,"object-243","Rating","frustrated","not frustrated","frustrated",5,"",NA,NA,NA,NA,NA,"Right",NA,-10,NA,NA,NA,NA,3,"MDPRF67412"
"69",1730467390882,"01/11/2024 13:23:10",1730467390882,0,"01/11/2024 13:23:10",193496,6,"task-nt36",NA,41048070,11986070,NA,"complete",NA,"6724cfd1b1886425b73159eb","computer","Desktop or Laptop","Mac OS 10.15.7","Chrome 129.0.0.0","1470x956","1470x832",NA,NA,0,"Gambling_GBO",15,"In","EFDGCHBIAJK",NA,"In","MH_OCT","seq2","Gamble_Rand_Seq2","Gamble_Rand_Seq2",15,"Rating","Screen 1","hx8b5a",1,"continue","",1361.00000019073,1350,1361.00000019073,1361.00000019073,1350,1361.00000019073,1,1361.00000019073,0,0,NA,"Click To Continue","Continue Button",3,"object-25","Rating","frustrated","not frustrated","frustrated",5,"",NA,NA,NA,NA,NA,"Right",NA,-10,NA,NA,NA,NA,3,"MDPRF67412"
"70",1730467390882,"01/11/2024 13:23:10",1730467390882,0,"01/11/2024 13:23:10",193496,6,"task-nt36",NA,41048070,11986070,NA,"complete",NA,"6724cfd1b1886425b73159eb","computer","Desktop or Laptop","Mac OS 10.15.7","Chrome 129.0.0.0","1470x956","1470x832",NA,NA,0,"Gambling_GBO",15,"In","EFDGCHBIAJK",NA,"In","MH_OCT","seq2","Gamble_Rand_Seq2","Gamble_Rand_Seq2",15,"Rating","Screen 1","hx8b5a",1,"response","12",767.699999999997,1350,1361.50000019073,767.699999999997,1350,1361.50000019073,1,767.699999999997,593.800000190735,0,NA,"Slider","MoodSlider",2,"object-243","Rating","frustrated","not frustrated","frustrated",5,"",NA,NA,NA,NA,NA,"Right",NA,-10,NA,NA,NA,NA,3,"MDPRF67412"
"71",1730467392839,"01/11/2024 13:23:12",1730467392839,0,"01/11/2024 13:23:12",193496,6,"task-nt36",NA,41048070,11986070,NA,"complete",NA,"6724cfd1b1886425b73159eb","computer","Desktop or Laptop","Mac OS 10.15.7","Chrome 129.0.0.0","1470x956","1470x832",NA,NA,0,"Gambling_GBO",15,"In","EFDGCHBIAJK",NA,"In","MH_OCT","seq2","Gamble_Rand_Seq2","Gamble_Rand_Seq2",1,"winB","Screen 1","pkkyi8",1,"continue","",1967.59999999999,1967.59999999999,1967.59999999999,1967.59999999999,1967.59999999999,1967.59999999999,1,1967.59999999999,0,0,NA,"Fixation Timing","Fixation",1,"object-246","winB","","","",NA,"Right",-1,-2,1,5,NA,"Right",NA,-10,NA,NA,NA,NA,3,"MDPRF67412"
"72",1730467395031,"01/11/2024 13:23:15",1730467395031,0,"01/11/2024 13:23:15",193496,6,"task-nt36",NA,41048070,11986070,NA,"complete",NA,"6724cfd1b1886425b73159eb","computer","Desktop or Laptop","Mac OS 10.15.7","Chrome 129.0.0.0","1470x956","1470x832",NA,NA,0,"Gambling_GBO",15,"In","EFDGCHBIAJK",NA,"In","MH_OCT","seq2","Gamble_Rand_Seq2","Gamble_Rand_Seq2",1,"winB","choice","5lszbx",2,"response","Left",2191.90000019074,2183.40000000001,2191.90000019074,2191.90000019074,2183.40000000001,2191.90000019074,0,2191.90000019074,0,0,NA,"Keyboard Response","KeyResponseC",5,"object-255","winB","","","",NA,"Right",-1,-2,1,5,NA,"Left",NA,-11,NA,NA,NA,NA,-1,"MDPRF67412"
"73",1730467400075,"01/11/2024 13:23:20",1730467400075,0,"01/11/2024 13:23:20",193496,6,"task-nt36",NA,41048070,11986070,NA,"complete",NA,"6724cfd1b1886425b73159eb","computer","Desktop or Laptop","Mac OS 10.15.7","Chrome 129.0.0.0","1470x956","1470x832",NA,NA,0,"Gambling_GBO",15,"In","EFDGCHBIAJK",NA,"In","MH_OCT","seq2","Gamble_Rand_Seq2","Gamble_Rand_Seq2",1,"winB","certain","nw4etn",3,"timedOut","",5000.7,4999.89999999999,5000.7,5000.7,4999.89999999999,5000.7,1,5000.7,0,0,NA,"Time Limit","screen",0,"screen","winB","","","",NA,"Right",-1,-2,1,5,NA,"Left",NA,-11,NA,NA,NA,NA,-1,"MDPRF67412"
"74",1730467400082,"01/11/2024 13:23:20",1730467400082,0,"01/11/2024 13:23:20",193496,6,"task-nt36",NA,41048070,11986070,NA,"complete",NA,"6724cfd1b1886425b73159eb","computer","Desktop or Laptop","Mac OS 10.15.7","Chrome 129.0.0.0","1470x956","1470x832",NA,NA,0,"Gambling_GBO",15,"In","EFDGCHBIAJK",NA,"In","MH_OCT","seq2","Gamble_Rand_Seq2","Gamble_Rand_Seq2",16,"Rating","Screen 1","hx8b5a",1,"info","",8.00000004768663,0,8.00000004768663,8.00000004768663,0,8.00000004768663,1,8.00000004768663,0,0,NA,"Slider","MoodSlider",2,"object-243","Rating","bored","not bored","bored",6,"",NA,NA,NA,NA,NA,"Left",NA,-11,NA,NA,NA,NA,-1,"MDPRF67412"
"75",1730467401829,"01/11/2024 13:23:21",1730467401829,0,"01/11/2024 13:23:21",193496,6,"task-nt36",NA,41048070,11986070,NA,"complete",NA,"6724cfd1b1886425b73159eb","computer","Desktop or Laptop","Mac OS 10.15.7","Chrome 129.0.0.0","1470x956","1470x832",NA,NA,0,"Gambling_GBO",15,"In","EFDGCHBIAJK",NA,"In","MH_OCT","seq2","Gamble_Rand_Seq2","Gamble_Rand_Seq2",16,"Rating","Screen 1","hx8b5a",1,"continue","",1755.20000009537,1749,1755.20000009537,1755.20000009537,1749,1755.20000009537,1,1755.20000009537,0,0,NA,"Click To Continue","Continue Button",3,"object-25","Rating","bored","not bored","bored",6,"",NA,NA,NA,NA,NA,"Left",NA,-11,NA,NA,NA,NA,-1,"MDPRF67412"
"76",1730467401830,"01/11/2024 13:23:21",1730467401830,0,"01/11/2024 13:23:21",193496,6,"task-nt36",NA,41048070,11986070,NA,"complete",NA,"6724cfd1b1886425b73159eb","computer","Desktop or Laptop","Mac OS 10.15.7","Chrome 129.0.0.0","1470x956","1470x832",NA,NA,0,"Gambling_GBO",15,"In","EFDGCHBIAJK",NA,"In","MH_OCT","seq2","Gamble_Rand_Seq2","Gamble_Rand_Seq2",16,"Rating","Screen 1","hx8b5a",1,"response","15",983.300000000003,1749,1755.50000004769,983.300000000003,1749,1755.50000004769,1,983.300000000003,772.200000047684,0,NA,"Slider","MoodSlider",2,"object-243","Rating","bored","not bored","bored",6,"",NA,NA,NA,NA,NA,"Left",NA,-11,NA,NA,NA,NA,-1,"MDPRF67412"
"77",1730467401835,"01/11/2024 13:23:21",1730467401835,0,"01/11/2024 13:23:21",193496,6,"task-nt36",NA,41048070,11986070,NA,"complete",NA,"6724cfd1b1886425b73159eb","computer","Desktop or Laptop","Mac OS 10.15.7","Chrome 129.0.0.0","1470x956","1470x832",NA,NA,0,"Gambling_GBO",15,"In","EFDGCHBIAJK",NA,"In","MH_OCT","seq2","Gamble_Rand_Seq2","Gamble_Rand_Seq2",17,"Rating","Screen 1","hx8b5a",1,"info","",11.7000000953703,0,11.7000000953703,11.7000000953703,0,11.7000000953703,1,11.7000000953703,0,0,NA,"Slider","MoodSlider",2,"object-243","Rating","happy","not happy","happy",6,"",NA,NA,NA,NA,NA,"Left",NA,-11,NA,NA,NA,NA,-1,"MDPRF67412"
"78",1730467404563,"01/11/2024 13:23:24",1730467404563,0,"01/11/2024 13:23:24",193496,6,"task-nt36",NA,41048070,11986070,NA,"complete",NA,"6724cfd1b1886425b73159eb","computer","Desktop or Laptop","Mac OS 10.15.7","Chrome 129.0.0.0","1470x956","1470x832",NA,NA,0,"Gambling_GBO",15,"In","EFDGCHBIAJK",NA,"In","MH_OCT","seq2","Gamble_Rand_Seq2","Gamble_Rand_Seq2",17,"Rating","Screen 1","hx8b5a",1,"continue","",2739.60000019074,2734.3,2739.60000019074,2739.60000019074,2734.3,2739.60000019074,1,2739.60000019074,0,0,NA,"Click To Continue","Continue Button",3,"object-25","Rating","happy","not happy","happy",6,"",NA,NA,NA,NA,NA,"Left",NA,-11,NA,NA,NA,NA,-1,"MDPRF67412"
"79",1730467404563,"01/11/2024 13:23:24",1730467404563,0,"01/11/2024 13:23:24",193496,6,"task-nt36",NA,41048070,11986070,NA,"complete",NA,"6724cfd1b1886425b73159eb","computer","Desktop or Laptop","Mac OS 10.15.7","Chrome 129.0.0.0","1470x956","1470x832",NA,NA,0,"Gambling_GBO",15,"In","EFDGCHBIAJK",NA,"In","MH_OCT","seq2","Gamble_Rand_Seq2","Gamble_Rand_Seq2",17,"Rating","Screen 1","hx8b5a",1,"response","82",1984.3,2734.3,2740.10000019074,1984.3,2734.3,2740.10000019074,1,1984.3,755.800000190735,0,NA,"Slider","MoodSlider",2,"object-243","Rating","happy","not happy","happy",6,"",NA,NA,NA,NA,NA,"Left",NA,-11,NA,NA,NA,NA,-1,"MDPRF67412"
"80",1730467404569,"01/11/2024 13:23:24",1730467404569,0,"01/11/2024 13:23:24",193496,6,"task-nt36",NA,41048070,11986070,NA,"complete",NA,"6724cfd1b1886425b73159eb","computer","Desktop or Laptop","Mac OS 10.15.7","Chrome 129.0.0.0","1470x956","1470x832",NA,NA,0,"Gambling_GBO",15,"In","EFDGCHBIAJK",NA,"In","MH_OCT","seq2","Gamble_Rand_Seq2","Gamble_Rand_Seq2",18,"Rating","Screen 1","hx8b5a",1,"info","",12.2000000476837,0,12.2000000476837,12.2000000476837,0,12.2000000476837,1,12.2000000476837,0,0,NA,"Slider","MoodSlider",2,"object-243","Rating","frustrated","not frustrated","frustrated",6,"",NA,NA,NA,NA,NA,"Left",NA,-11,NA,NA,NA,NA,-1,"MDPRF67412"
"81",1730467406274,"01/11/2024 13:23:26",1730467406274,0,"01/11/2024 13:23:26",193496,6,"task-nt36",NA,41048070,11986070,NA,"complete",NA,"6724cfd1b1886425b73159eb","computer","Desktop or Laptop","Mac OS 10.15.7","Chrome 129.0.0.0","1470x956","1470x832",NA,NA,0,"Gambling_GBO",15,"In","EFDGCHBIAJK",NA,"In","MH_OCT","seq2","Gamble_Rand_Seq2","Gamble_Rand_Seq2",18,"Rating","Screen 1","hx8b5a",1,"continue","",1717.10000014305,1716.60000000001,1717.10000014305,1717.10000014305,1716.60000000001,1717.10000014305,1,1717.10000014305,0,0,NA,"Click To Continue","Continue Button",3,"object-25","Rating","frustrated","not frustrated","frustrated",6,"",NA,NA,NA,NA,NA,"Left",NA,-11,NA,NA,NA,NA,-1,"MDPRF67412"
"82",1730467406277,"01/11/2024 13:23:26",1730467406277,0,"01/11/2024 13:23:26",193496,6,"task-nt36",NA,41048070,11986070,NA,"complete",NA,"6724cfd1b1886425b73159eb","computer","Desktop or Laptop","Mac OS 10.15.7","Chrome 129.0.0.0","1470x956","1470x832",NA,NA,0,"Gambling_GBO",15,"In","EFDGCHBIAJK",NA,"In","MH_OCT","seq2","Gamble_Rand_Seq2","Gamble_Rand_Seq2",18,"Rating","Screen 1","hx8b5a",1,"response","19",965.699999999997,1716.60000000001,1719.80000019073,965.699999999997,1716.60000000001,1719.80000019073,1,965.699999999997,754.100000190738,0,NA,"Slider","MoodSlider",2,"object-243","Rating","frustrated","not frustrated","frustrated",6,"",NA,NA,NA,NA,NA,"Left",NA,-11,NA,NA,NA,NA,-1,"MDPRF67412"
"83",1730467408241,"01/11/2024 13:23:28",1730467408241,0,"01/11/2024 13:23:28",193496,6,"task-nt36",NA,41048070,11986070,NA,"complete",NA,"6724cfd1b1886425b73159eb","computer","Desktop or Laptop","Mac OS 10.15.7","Chrome 129.0.0.0","1470x956","1470x832",NA,NA,0,"Gambling_GBO",15,"In","EFDGCHBIAJK",NA,"In","MH_OCT","seq2","Gamble_Rand_Seq2","Gamble_Rand_Seq2",2,"winT","Screen 1","np5pnj",1,"continue","",1966.7,1966.7,1966.7,1966.7,1966.7,1966.7,1,1966.7,0,0,NA,"Fixation Timing","Fixation",1,"object-304","winT","","","",NA,"Right",4.67,3,8,6,NA,"Left",NA,-11,NA,NA,NA,NA,-1,"MDPRF67412"
"84",1730467410753,"01/11/2024 13:23:30",1730467410753,0,"01/11/2024 13:23:30",193496,6,"task-nt36",NA,41048070,11986070,NA,"complete",NA,"6724cfd1b1886425b73159eb","computer","Desktop or Laptop","Mac OS 10.15.7","Chrome 129.0.0.0","1470x956","1470x832",NA,NA,0,"Gambling_GBO",15,"In","EFDGCHBIAJK",NA,"In","MH_OCT","seq2","Gamble_Rand_Seq2","Gamble_Rand_Seq2",2,"winT","choice","gu8zgx",2,"response","Right",2511.60000009536,2500,2511.60000009536,2511.60000009536,2500,2511.60000009536,1,2511.60000009536,0,0,NA,"Keyboard Response","KeyResponseG",6,"object-326","winT","","","",NA,"Right",4.67,3,8,6,NA,"Right",NA,-3,NA,NA,NA,NA,8,"MDPRF67412"
"85",1730467414741,"01/11/2024 13:23:34",1730467414741,0,"01/11/2024 13:23:34",193496,6,"task-nt36",NA,41048070,11986070,NA,"complete",NA,"6724cfd1b1886425b73159eb","computer","Desktop or Laptop","Mac OS 10.15.7","Chrome 129.0.0.0","1470x956","1470x832",NA,NA,0,"Gambling_GBO",15,"In","EFDGCHBIAJK",NA,"In","MH_OCT","seq2","Gamble_Rand_Seq2","Gamble_Rand_Seq2",2,"winT","gamble","1lb69u",3,"timedOut","",4000.2,4000,4000.2,4000.2,4000,4000.2,1,4000.2,0,0,NA,"Time Limit","screen",0,"screen","winT","","","",NA,"Right",4.67,3,8,6,NA,"Right",NA,-3,NA,NA,NA,NA,8,"MDPRF67412"
"86",1730467415741,"01/11/2024 13:23:35",1730467415741,0,"01/11/2024 13:23:35",193496,6,"task-nt36",NA,41048070,11986070,NA,"complete",NA,"6724cfd1b1886425b73159eb","computer","Desktop or Laptop","Mac OS 10.15.7","Chrome 129.0.0.0","1470x956","1470x832",NA,NA,0,"Gambling_GBO",15,"In","EFDGCHBIAJK",NA,"In","MH_OCT","seq2","Gamble_Rand_Seq2","Gamble_Rand_Seq2",2,"winT","win","dhtsbv",4,"timedOut","",1000.30000014305,1000,1000.30000014305,1000.30000014305,1000,1000.30000014305,1,1000.30000014305,0,0,NA,"Time Limit","screen",0,"screen","winT","","","",NA,"Right",4.67,3,8,6,NA,"Right",NA,-3,NA,NA,NA,NA,8,"MDPRF67412"
"87",1730467415750,"01/11/2024 13:23:35",1730467415750,0,"01/11/2024 13:23:35",193496,6,"task-nt36",NA,41048070,11986070,NA,"complete",NA,"6724cfd1b1886425b73159eb","computer","Desktop or Laptop","Mac OS 10.15.7","Chrome 129.0.0.0","1470x956","1470x832",NA,NA,0,"Gambling_GBO",15,"In","EFDGCHBIAJK",NA,"In","MH_OCT","seq2","Gamble_Rand_Seq2","Gamble_Rand_Seq2",19,"Rating","Screen 1","hx8b5a",1,"info","",9.60000009536452,0,9.60000009536452,9.60000009536452,0,9.60000009536452,1,9.60000009536452,0,0,NA,"Slider","MoodSlider",2,"object-243","Rating","frustrated","not frustrated","frustrated",7,"",NA,NA,NA,NA,NA,"Right",NA,-3,NA,NA,NA,NA,8,"MDPRF67412"
"88",1730467418945,"01/11/2024 13:23:38",1730467418945,0,"01/11/2024 13:23:38",193496,6,"task-nt36",NA,41048070,11986070,NA,"complete",NA,"6724cfd1b1886425b73159eb","computer","Desktop or Laptop","Mac OS 10.15.7","Chrome 129.0.0.0","1470x956","1470x832",NA,NA,0,"Gambling_GBO",15,"In","EFDGCHBIAJK",NA,"In","MH_OCT","seq2","Gamble_Rand_Seq2","Gamble_Rand_Seq2",19,"Rating","Screen 1","hx8b5a",1,"continue","",3203.90000004768,3199.90000000001,3203.90000004768,3203.90000004768,3199.90000000001,3203.90000004768,1,3203.90000004768,0,0,NA,"Click To Continue","Continue Button",3,"object-25","Rating","frustrated","not frustrated","frustrated",7,"",NA,NA,NA,NA,NA,"Right",NA,-3,NA,NA,NA,NA,8,"MDPRF67412"
"89",1730467418948,"01/11/2024 13:23:38",1730467418948,0,"01/11/2024 13:23:38",193496,6,"task-nt36",NA,41048070,11986070,NA,"complete",NA,"6724cfd1b1886425b73159eb","computer","Desktop or Laptop","Mac OS 10.15.7","Chrome 129.0.0.0","1470x956","1470x832",NA,NA,0,"Gambling_GBO",15,"In","EFDGCHBIAJK",NA,"In","MH_OCT","seq2","Gamble_Rand_Seq2","Gamble_Rand_Seq2",19,"Rating","Screen 1","hx8b5a",1,"response","16",1699.99999999999,3199.90000000001,3207.60000009536,1699.99999999999,3199.90000000001,3207.60000009536,1,1699.99999999999,1507.60000009538,0,NA,"Slider","MoodSlider",2,"object-243","Rating","frustrated","not frustrated","frustrated",7,"",NA,NA,NA,NA,NA,"Right",NA,-3,NA,NA,NA,NA,8,"MDPRF67412"
"90",1730467418956,"01/11/2024 13:23:38",1730467418956,0,"01/11/2024 13:23:38",193496,6,"task-nt36",NA,41048070,11986070,NA,"complete",NA,"6724cfd1b1886425b73159eb","computer","Desktop or Laptop","Mac OS 10.15.7","Chrome 129.0.0.0","1470x956","1470x832",NA,NA,0,"Gambling_GBO",15,"In","EFDGCHBIAJK",NA,"In","MH_OCT","seq2","Gamble_Rand_Seq2","Gamble_Rand_Seq2",20,"Rating","Screen 1","hx8b5a",1,"info","",15.5000000476721,0,15.5000000476721,15.5000000476721,0,15.5000000476721,1,15.5000000476721,0,0,NA,"Slider","MoodSlider",2,"object-243","Rating","bored","not bored","bored",7,"",NA,NA,NA,NA,NA,"Right",NA,-3,NA,NA,NA,NA,8,"MDPRF67412"
"91",1730467420860,"01/11/2024 13:23:40",1730467420860,0,"01/11/2024 13:23:40",193496,6,"task-nt36",NA,41048070,11986070,NA,"complete",NA,"6724cfd1b1886425b73159eb","computer","Desktop or Laptop","Mac OS 10.15.7","Chrome 129.0.0.0","1470x956","1470x832",NA,NA,0,"Gambling_GBO",15,"In","EFDGCHBIAJK",NA,"In","MH_OCT","seq2","Gamble_Rand_Seq2","Gamble_Rand_Seq2",20,"Rating","Screen 1","hx8b5a",1,"continue","",1919.50000004767,1916.69999999998,1919.50000004767,1919.50000004767,1916.69999999998,1919.50000004767,1,1919.50000004767,0,0,NA,"Click To Continue","Continue Button",3,"object-25","Rating","bored","not bored","bored",7,"",NA,NA,NA,NA,NA,"Right",NA,-3,NA,NA,NA,NA,8,"MDPRF67412"
"92",1730467420860,"01/11/2024 13:23:40",1730467420860,0,"01/11/2024 13:23:40",193496,6,"task-nt36",NA,41048070,11986070,NA,"complete",NA,"6724cfd1b1886425b73159eb","computer","Desktop or Laptop","Mac OS 10.15.7","Chrome 129.0.0.0","1470x956","1470x832",NA,NA,0,"Gambling_GBO",15,"In","EFDGCHBIAJK",NA,"In","MH_OCT","seq2","Gamble_Rand_Seq2","Gamble_Rand_Seq2",20,"Rating","Screen 1","hx8b5a",1,"response","16",1015.79999999999,1916.69999999998,1919.79999999999,1015.79999999999,1916.69999999998,1919.79999999999,1,1015.79999999999,904,0,NA,"Slider","MoodSlider",2,"object-243","Rating","bored","not bored","bored",7,"",NA,NA,NA,NA,NA,"Right",NA,-3,NA,NA,NA,NA,8,"MDPRF67412"
"93",1730467420865,"01/11/2024 13:23:40",1730467420865,0,"01/11/2024 13:23:40",193496,6,"task-nt36",NA,41048070,11986070,NA,"complete",NA,"6724cfd1b1886425b73159eb","computer","Desktop or Laptop","Mac OS 10.15.7","Chrome 129.0.0.0","1470x956","1470x832",NA,NA,0,"Gambling_GBO",15,"In","EFDGCHBIAJK",NA,"In","MH_OCT","seq2","Gamble_Rand_Seq2","Gamble_Rand_Seq2",21,"Rating","Screen 1","hx8b5a",1,"info","",7.70000014305697,0,7.70000014305697,7.70000014305697,0,7.70000014305697,1,7.70000014305697,0,0,NA,"Slider","MoodSlider",2,"object-243","Rating","happy","not happy","happy",7,"",NA,NA,NA,NA,NA,"Right",NA,-3,NA,NA,NA,NA,8,"MDPRF67412"
"94",1730467422859,"01/11/2024 13:23:42",1730467422859,0,"01/11/2024 13:23:42",193496,6,"task-nt36",NA,41048070,11986070,NA,"complete",NA,"6724cfd1b1886425b73159eb","computer","Desktop or Laptop","Mac OS 10.15.7","Chrome 129.0.0.0","1470x956","1470x832",NA,NA,0,"Gambling_GBO",15,"In","EFDGCHBIAJK",NA,"In","MH_OCT","seq2","Gamble_Rand_Seq2","Gamble_Rand_Seq2",21,"Rating","Screen 1","hx8b5a",1,"continue","",2001.10000000001,1999,2001.10000000001,2001.10000000001,1999,2001.10000000001,1,2001.10000000001,0,0,NA,"Click To Continue","Continue Button",3,"object-25","Rating","happy","not happy","happy",7,"",NA,NA,NA,NA,NA,"Right",NA,-3,NA,NA,NA,NA,8,"MDPRF67412"
"95",1730467422859,"01/11/2024 13:23:42",1730467422859,0,"01/11/2024 13:23:42",193496,6,"task-nt36",NA,41048070,11986070,NA,"complete",NA,"6724cfd1b1886425b73159eb","computer","Desktop or Laptop","Mac OS 10.15.7","Chrome 129.0.0.0","1470x956","1470x832",NA,NA,0,"Gambling_GBO",15,"In","EFDGCHBIAJK",NA,"In","MH_OCT","seq2","Gamble_Rand_Seq2","Gamble_Rand_Seq2",21,"Rating","Screen 1","hx8b5a",1,"response","72",1233.30000000002,1999,2001.50000009537,1233.30000000002,1999,2001.50000009537,1,1233.30000000002,768.200000095356,0,NA,"Slider","MoodSlider",2,"object-243","Rating","happy","not happy","happy",7,"",NA,NA,NA,NA,NA,"Right",NA,-3,NA,NA,NA,NA,8,"MDPRF67412"
"96",1730467424824,"01/11/2024 13:23:44",1730467424824,0,"01/11/2024 13:23:44",193496,6,"task-nt36",NA,41048070,11986070,NA,"complete",NA,"6724cfd1b1886425b73159eb","computer","Desktop or Laptop","Mac OS 10.15.7","Chrome 129.0.0.0","1470x956","1470x832",NA,NA,0,"Gambling_GBO",15,"In","EFDGCHBIAJK",NA,"In","MH_OCT","seq2","Gamble_Rand_Seq2","Gamble_Rand_Seq2",4,"lossB","Screen 1","a4fynh",1,"continue","",1967.60000000001,1967.60000000001,1967.60000000001,1967.60000000001,1967.60000000001,1967.60000000001,1,1967.60000000001,0,0,NA,"Fixation Timing","Fixation",1,"object-113","lossB","","","",NA,"Right",-3.33,-5,0,7,NA,"Right",NA,-3,NA,NA,NA,NA,8,"MDPRF67412"
"97",1730467428131,"01/11/2024 13:23:48",1730467428131,0,"01/11/2024 13:23:48",193496,6,"task-nt36",NA,41048070,11986070,NA,"complete",NA,"6724cfd1b1886425b73159eb","computer","Desktop or Laptop","Mac OS 10.15.7","Chrome 129.0.0.0","1470x956","1470x832",NA,NA,0,"Gambling_GBO",15,"In","EFDGCHBIAJK",NA,"In","MH_OCT","seq2","Gamble_Rand_Seq2","Gamble_Rand_Seq2",4,"lossB","choice","k9qq8f",2,"response","Left",3306.10000014305,3300,3306.10000014305,3306.10000014305,3300,3306.10000014305,0,3306.10000014305,0,0,NA,"Keyboard Response","KeyResponseC",5,"object-199","lossB","","","",NA,"Right",-3.33,-5,0,7,NA,"Left",NA,-6.33,NA,NA,NA,NA,-3.33,"MDPRF67412"
"98",1730467433124,"01/11/2024 13:23:53",1730467433124,0,"01/11/2024 13:23:53",193496,6,"task-nt36",NA,41048070,11986070,NA,"complete",NA,"6724cfd1b1886425b73159eb","computer","Desktop or Laptop","Mac OS 10.15.7","Chrome 129.0.0.0","1470x956","1470x832",NA,NA,0,"Gambling_GBO",15,"In","EFDGCHBIAJK",NA,"In","MH_OCT","seq2","Gamble_Rand_Seq2","Gamble_Rand_Seq2",4,"lossB","certain","rptf8c",3,"timedOut","",5000.20000004768,5000,5000.20000004768,5000.20000004768,5000,5000.20000004768,1,5000.20000004768,0,0,NA,"Time Limit","screen",0,"screen","lossB","","","",NA,"Right",-3.33,-5,0,7,NA,"Left",NA,-6.33,NA,NA,NA,NA,-3.33,"MDPRF67412"
"99",1730467433135,"01/11/2024 13:23:53",1730467433135,0,"01/11/2024 13:23:53",193496,6,"task-nt36",NA,41048070,11986070,NA,"complete",NA,"6724cfd1b1886425b73159eb","computer","Desktop or Laptop","Mac OS 10.15.7","Chrome 129.0.0.0","1470x956","1470x832",NA,NA,0,"Gambling_GBO",15,"In","EFDGCHBIAJK",NA,"In","MH_OCT","seq2","Gamble_Rand_Seq2","Gamble_Rand_Seq2",22,"Rating","Screen 1","hx8b5a",1,"info","",11.4000000953674,0,11.4000000953674,11.4000000953674,0,11.4000000953674,1,11.4000000953674,0,0,NA,"Slider","MoodSlider",2,"object-243","Rating","bored","not bored","bored",8,"",NA,NA,NA,NA,NA,"Left",NA,-6.33,NA,NA,NA,NA,-3.33,"MDPRF67412"
"100",1730467435100,"01/11/2024 13:23:55",1730467435100,0,"01/11/2024 13:23:55",193496,6,"task-nt36",NA,41048070,11986070,NA,"complete",NA,"6724cfd1b1886425b73159eb","computer","Desktop or Laptop","Mac OS 10.15.7","Chrome 129.0.0.0","1470x956","1470x832",NA,NA,0,"Gambling_GBO",15,"In","EFDGCHBIAJK",NA,"In","MH_OCT","seq2","Gamble_Rand_Seq2","Gamble_Rand_Seq2",22,"Rating","Screen 1","hx8b5a",1,"continue","",1975.5,1966.60000000001,1975.5,1975.5,1966.60000000001,1975.5,1,1975.5,0,0,NA,"Click To Continue","Continue Button",3,"object-25","Rating","bored","not bored","bored",8,"",NA,NA,NA,NA,NA,"Left",NA,-6.33,NA,NA,NA,NA,-3.33,"MDPRF67412"
"101",1730467435100,"01/11/2024 13:23:55",1730467435100,0,"01/11/2024 13:23:55",193496,6,"task-nt36",NA,41048070,11986070,NA,"complete",NA,"6724cfd1b1886425b73159eb","computer","Desktop or Laptop","Mac OS 10.15.7","Chrome 129.0.0.0","1470x956","1470x832",NA,NA,0,"Gambling_GBO",15,"In","EFDGCHBIAJK",NA,"In","MH_OCT","seq2","Gamble_Rand_Seq2","Gamble_Rand_Seq2",22,"Rating","Screen 1","hx8b5a",1,"response","14",1249,1966.60000000001,1975.90000009537,1249,1966.60000000001,1975.90000009537,1,1249,726.900000095367,0,NA,"Slider","MoodSlider",2,"object-243","Rating","bored","not bored","bored",8,"",NA,NA,NA,NA,NA,"Left",NA,-6.33,NA,NA,NA,NA,-3.33,"MDPRF67412"
"102",1730467435104,"01/11/2024 13:23:55",1730467435104,0,"01/11/2024 13:23:55",193496,6,"task-nt36",NA,41048070,11986070,NA,"complete",NA,"6724cfd1b1886425b73159eb","computer","Desktop or Laptop","Mac OS 10.15.7","Chrome 129.0.0.0","1470x956","1470x832",NA,NA,0,"Gambling_GBO",15,"In","EFDGCHBIAJK",NA,"In","MH_OCT","seq2","Gamble_Rand_Seq2","Gamble_Rand_Seq2",23,"Rating","Screen 1","hx8b5a",1,"info","",13.6000000476779,0,13.6000000476779,13.6000000476779,0,13.6000000476779,1,13.6000000476779,0,0,NA,"Slider","MoodSlider",2,"object-243","Rating","happy","not happy","happy",8,"",NA,NA,NA,NA,NA,"Left",NA,-6.33,NA,NA,NA,NA,-3.33,"MDPRF67412"
"103",1730467436846,"01/11/2024 13:23:56",1730467436846,0,"01/11/2024 13:23:56",193496,6,"task-nt36",NA,41048070,11986070,NA,"complete",NA,"6724cfd1b1886425b73159eb","computer","Desktop or Laptop","Mac OS 10.15.7","Chrome 129.0.0.0","1470x956","1470x832",NA,NA,0,"Gambling_GBO",15,"In","EFDGCHBIAJK",NA,"In","MH_OCT","seq2","Gamble_Rand_Seq2","Gamble_Rand_Seq2",23,"Rating","Screen 1","hx8b5a",1,"continue","",1755.20000019073,1750,1755.20000019073,1755.20000019073,1750,1755.20000019073,1,1755.20000019073,0,0,NA,"Click To Continue","Continue Button",3,"object-25","Rating","happy","not happy","happy",8,"",NA,NA,NA,NA,NA,"Left",NA,-6.33,NA,NA,NA,NA,-3.33,"MDPRF67412"
"104",1730467436846,"01/11/2024 13:23:56",1730467436846,0,"01/11/2024 13:23:56",193496,6,"task-nt36",NA,41048070,11986070,NA,"complete",NA,"6724cfd1b1886425b73159eb","computer","Desktop or Laptop","Mac OS 10.15.7","Chrome 129.0.0.0","1470x956","1470x832",NA,NA,0,"Gambling_GBO",15,"In","EFDGCHBIAJK",NA,"In","MH_OCT","seq2","Gamble_Rand_Seq2","Gamble_Rand_Seq2",23,"Rating","Screen 1","hx8b5a",1,"response","75",1065.69999999998,1750,1755.60000004768,1065.69999999998,1750,1755.60000004768,1,1065.69999999998,689.900000047695,0,NA,"Slider","MoodSlider",2,"object-243","Rating","happy","not happy","happy",8,"",NA,NA,NA,NA,NA,"Left",NA,-6.33,NA,NA,NA,NA,-3.33,"MDPRF67412"
"105",1730467436851,"01/11/2024 13:23:56",1730467436851,0,"01/11/2024 13:23:56",193496,6,"task-nt36",NA,41048070,11986070,NA,"complete",NA,"6724cfd1b1886425b73159eb","computer","Desktop or Laptop","Mac OS 10.15.7","Chrome 129.0.0.0","1470x956","1470x832",NA,NA,0,"Gambling_GBO",15,"In","EFDGCHBIAJK",NA,"In","MH_OCT","seq2","Gamble_Rand_Seq2","Gamble_Rand_Seq2",24,"Rating","Screen 1","hx8b5a",1,"info","",10.5000001430453,0,10.5000001430453,10.5000001430453,0,10.5000001430453,1,10.5000001430453,0,0,NA,"Slider","MoodSlider",2,"object-243","Rating","frustrated","not frustrated","frustrated",8,"",NA,NA,NA,NA,NA,"Left",NA,-6.33,NA,NA,NA,NA,-3.33,"MDPRF67412"
"106",1730467438820,"01/11/2024 13:23:58",1730467438820,0,"01/11/2024 13:23:58",193496,6,"task-nt36",NA,41048070,11986070,NA,"complete",NA,"6724cfd1b1886425b73159eb","computer","Desktop or Laptop","Mac OS 10.15.7","Chrome 129.0.0.0","1470x956","1470x832",NA,NA,0,"Gambling_GBO",15,"In","EFDGCHBIAJK",NA,"In","MH_OCT","seq2","Gamble_Rand_Seq2","Gamble_Rand_Seq2",24,"Rating","Screen 1","hx8b5a",1,"continue","",1979.20000019073,1965.69999999998,1979.20000019073,1979.20000019073,1965.69999999998,1979.20000019073,1,1979.20000019073,0,0,NA,"Click To Continue","Continue Button",3,"object-25","Rating","frustrated","not frustrated","frustrated",8,"",NA,NA,NA,NA,NA,"Left",NA,-6.33,NA,NA,NA,NA,-3.33,"MDPRF67412"
"107",1730467438820,"01/11/2024 13:23:58",1730467438820,0,"01/11/2024 13:23:58",193496,6,"task-nt36",NA,41048070,11986070,NA,"complete",NA,"6724cfd1b1886425b73159eb","computer","Desktop or Laptop","Mac OS 10.15.7","Chrome 129.0.0.0","1470x956","1470x832",NA,NA,0,"Gambling_GBO",15,"In","EFDGCHBIAJK",NA,"In","MH_OCT","seq2","Gamble_Rand_Seq2","Gamble_Rand_Seq2",24,"Rating","Screen 1","hx8b5a",1,"response","16",1366.60000000001,1965.69999999998,1979.70000019073,1366.60000000001,1965.69999999998,1979.70000019073,1,1366.60000000001,613.100000190723,0,NA,"Slider","MoodSlider",2,"object-243","Rating","frustrated","not frustrated","frustrated",8,"",NA,NA,NA,NA,NA,"Left",NA,-6.33,NA,NA,NA,NA,-3.33,"MDPRF67412"
"108",1730467440774,"01/11/2024 13:24:00",1730467440774,0,"01/11/2024 13:24:00",193496,6,"task-nt36",NA,41048070,11986070,NA,"complete",NA,"6724cfd1b1886425b73159eb","computer","Desktop or Laptop","Mac OS 10.15.7","Chrome 129.0.0.0","1470x956","1470x832",NA,NA,0,"Gambling_GBO",15,"In","EFDGCHBIAJK",NA,"In","MH_OCT","seq2","Gamble_Rand_Seq2","Gamble_Rand_Seq2",1,"lossT","Screen 1","2oxi65",1,"continue","",1967.60000000001,1967.60000000001,1967.60000000001,1967.60000000001,1967.60000000001,1967.60000000001,1,1967.60000000001,0,0,NA,"Fixation Timing","Fixation",1,"object-354","lossT","","","",NA,"Right",3,2,5,8,NA,"Left",NA,-6.33,NA,NA,NA,NA,-3.33,"MDPRF67412"
"109",1730467443471,"01/11/2024 13:24:03",1730467443471,0,"01/11/2024 13:24:03",193496,6,"task-nt36",NA,41048070,11986070,NA,"complete",NA,"6724cfd1b1886425b73159eb","computer","Desktop or Laptop","Mac OS 10.15.7","Chrome 129.0.0.0","1470x956","1470x832",NA,NA,0,"Gambling_GBO",15,"In","EFDGCHBIAJK",NA,"In","MH_OCT","seq2","Gamble_Rand_Seq2","Gamble_Rand_Seq2",1,"lossT","choice","zjftf8",2,"response","Right",2696.20000014306,2683.30000000002,2696.20000014306,2696.20000014306,2683.30000000002,2696.20000014306,1,2696.20000014306,0,0,NA,"Keyboard Response","KeyResponseG",6,"object-352","lossT","","","",NA,"Right",3,2,5,8,NA,"Right",NA,-4.33,NA,NA,NA,NA,2,"MDPRF67412"
"110",1730467447457,"01/11/2024 13:24:07",1730467447457,0,"01/11/2024 13:24:07",193496,6,"task-nt36",NA,41048070,11986070,NA,"complete",NA,"6724cfd1b1886425b73159eb","computer","Desktop or Laptop","Mac OS 10.15.7","Chrome 129.0.0.0","1470x956","1470x832",NA,NA,0,"Gambling_GBO",15,"In","EFDGCHBIAJK",NA,"In","MH_OCT","seq2","Gamble_Rand_Seq2","Gamble_Rand_Seq2",1,"lossT","gamble","h5bf9r",3,"timedOut","",4000.20000009536,3999.89999999999,4000.20000009536,4000.20000009536,3999.89999999999,4000.20000009536,1,4000.20000009536,0,0,NA,"Time Limit","screen",0,"screen","lossT","","","",NA,"Right",3,2,5,8,NA,"Right",NA,-4.33,NA,NA,NA,NA,2,"MDPRF67412"
"111",1730467448457,"01/11/2024 13:24:08",1730467448457,0,"01/11/2024 13:24:08",193496,6,"task-nt36",NA,41048070,11986070,NA,"complete",NA,"6724cfd1b1886425b73159eb","computer","Desktop or Laptop","Mac OS 10.15.7","Chrome 129.0.0.0","1470x956","1470x832",NA,NA,0,"Gambling_GBO",15,"In","EFDGCHBIAJK",NA,"In","MH_OCT","seq2","Gamble_Rand_Seq2","Gamble_Rand_Seq2",1,"lossT","loss","kmnw8b",4,"timedOut","",1000.20000019073,1000,1000.20000019073,1000.20000019073,1000,1000.20000019073,1,1000.20000019073,0,0,NA,"Time Limit","screen",0,"screen","lossT","","","",NA,"Right",3,2,5,8,NA,"Right",NA,-4.33,NA,NA,NA,NA,2,"MDPRF67412"
"112",1730467448467,"01/11/2024 13:24:08",1730467448467,0,"01/11/2024 13:24:08",193496,6,"task-nt36",NA,41048070,11986070,NA,"complete",NA,"6724cfd1b1886425b73159eb","computer","Desktop or Laptop","Mac OS 10.15.7","Chrome 129.0.0.0","1470x956","1470x832",NA,NA,0,"Gambling_GBO",15,"In","EFDGCHBIAJK",NA,"In","MH_OCT","seq2","Gamble_Rand_Seq2","Gamble_Rand_Seq2",25,"Rating","Screen 1","hx8b5a",1,"info","",10.3999999999942,0,10.3999999999942,10.3999999999942,0,10.3999999999942,1,10.3999999999942,0,0,NA,"Slider","MoodSlider",2,"object-243","Rating","bored","not bored","bored",9,"",NA,NA,NA,NA,NA,"Right",NA,-4.33,NA,NA,NA,NA,2,"MDPRF67412"
"113",1730467450494,"01/11/2024 13:24:10",1730467450494,0,"01/11/2024 13:24:10",193496,6,"task-nt36",NA,41048070,11986070,NA,"complete",NA,"6724cfd1b1886425b73159eb","computer","Desktop or Laptop","Mac OS 10.15.7","Chrome 129.0.0.0","1470x956","1470x832",NA,NA,0,"Gambling_GBO",15,"In","EFDGCHBIAJK",NA,"In","MH_OCT","seq2","Gamble_Rand_Seq2","Gamble_Rand_Seq2",25,"Rating","Screen 1","hx8b5a",1,"continue","",2037.10000004768,2033.39999999999,2037.10000004768,2037.10000004768,2033.39999999999,2037.10000004768,1,2037.10000004768,0,0,NA,"Click To Continue","Continue Button",3,"object-25","Rating","bored","not bored","bored",9,"",NA,NA,NA,NA,NA,"Right",NA,-4.33,NA,NA,NA,NA,2,"MDPRF67412"
"114",1730467450494,"01/11/2024 13:24:10",1730467450494,0,"01/11/2024 13:24:10",193496,6,"task-nt36",NA,41048070,11986070,NA,"complete",NA,"6724cfd1b1886425b73159eb","computer","Desktop or Laptop","Mac OS 10.15.7","Chrome 129.0.0.0","1470x956","1470x832",NA,NA,0,"Gambling_GBO",15,"In","EFDGCHBIAJK",NA,"In","MH_OCT","seq2","Gamble_Rand_Seq2","Gamble_Rand_Seq2",25,"Rating","Screen 1","hx8b5a",1,"response","18",1250.10000000001,2033.39999999999,2037.39999999999,1250.10000000001,2033.39999999999,2037.39999999999,1,1250.10000000001,787.299999999988,0,NA,"Slider","MoodSlider",2,"object-243","Rating","bored","not bored","bored",9,"",NA,NA,NA,NA,NA,"Right",NA,-4.33,NA,NA,NA,NA,2,"MDPRF67412"
"115",1730467450499,"01/11/2024 13:24:10",1730467450499,0,"01/11/2024 13:24:10",193496,6,"task-nt36",NA,41048070,11986070,NA,"complete",NA,"6724cfd1b1886425b73159eb","computer","Desktop or Laptop","Mac OS 10.15.7","Chrome 129.0.0.0","1470x956","1470x832",NA,NA,0,"Gambling_GBO",15,"In","EFDGCHBIAJK",NA,"In","MH_OCT","seq2","Gamble_Rand_Seq2","Gamble_Rand_Seq2",26,"Rating","Screen 1","hx8b5a",1,"info","",8.30000019073486,0,8.30000019073486,8.30000019073486,0,8.30000019073486,1,8.30000019073486,0,0,NA,"Slider","MoodSlider",2,"object-243","Rating","frustrated","not frustrated","frustrated",9,"",NA,NA,NA,NA,NA,"Right",NA,-4.33,NA,NA,NA,NA,2,"MDPRF67412"
"116",1730467452483,"01/11/2024 13:24:12",1730467452483,0,"01/11/2024 13:24:12",193496,6,"task-nt36",NA,41048070,11986070,NA,"complete",NA,"6724cfd1b1886425b73159eb","computer","Desktop or Laptop","Mac OS 10.15.7","Chrome 129.0.0.0","1470x956","1470x832",NA,NA,0,"Gambling_GBO",15,"In","EFDGCHBIAJK",NA,"In","MH_OCT","seq2","Gamble_Rand_Seq2","Gamble_Rand_Seq2",26,"Rating","Screen 1","hx8b5a",1,"continue","",1992.90000009537,1983.29999999999,1992.90000009537,1992.90000009537,1983.29999999999,1992.90000009537,1,1992.90000009537,0,0,NA,"Click To Continue","Continue Button",3,"object-25","Rating","frustrated","not frustrated","frustrated",9,"",NA,NA,NA,NA,NA,"Right",NA,-4.33,NA,NA,NA,NA,2,"MDPRF67412"
"117",1730467452484,"01/11/2024 13:24:12",1730467452484,0,"01/11/2024 13:24:12",193496,6,"task-nt36",NA,41048070,11986070,NA,"complete",NA,"6724cfd1b1886425b73159eb","computer","Desktop or Laptop","Mac OS 10.15.7","Chrome 129.0.0.0","1470x956","1470x832",NA,NA,0,"Gambling_GBO",15,"In","EFDGCHBIAJK",NA,"In","MH_OCT","seq2","Gamble_Rand_Seq2","Gamble_Rand_Seq2",26,"Rating","Screen 1","hx8b5a",1,"response","17",1182.29999999999,1983.29999999999,1993.40000009537,1182.29999999999,1983.29999999999,1993.40000009537,1,1182.29999999999,811.100000095379,0,NA,"Slider","MoodSlider",2,"object-243","Rating","frustrated","not frustrated","frustrated",9,"",NA,NA,NA,NA,NA,"Right",NA,-4.33,NA,NA,NA,NA,2,"MDPRF67412"
"118",1730467452490,"01/11/2024 13:24:12",1730467452490,0,"01/11/2024 13:24:12",193496,6,"task-nt36",NA,41048070,11986070,NA,"complete",NA,"6724cfd1b1886425b73159eb","computer","Desktop or Laptop","Mac OS 10.15.7","Chrome 129.0.0.0","1470x956","1470x832",NA,NA,0,"Gambling_GBO",15,"In","EFDGCHBIAJK",NA,"In","MH_OCT","seq2","Gamble_Rand_Seq2","Gamble_Rand_Seq2",27,"Rating","Screen 1","hx8b5a",1,"info","",15.8000001430628,0,15.8000001430628,15.8000001430628,0,15.8000001430628,1,15.8000001430628,0,0,NA,"Slider","MoodSlider",2,"object-243","Rating","happy","not happy","happy",9,"",NA,NA,NA,NA,NA,"Right",NA,-4.33,NA,NA,NA,NA,2,"MDPRF67412"
"119",1730467454245,"01/11/2024 13:24:14",1730467454245,0,"01/11/2024 13:24:14",193496,6,"task-nt36",NA,41048070,11986070,NA,"complete",NA,"6724cfd1b1886425b73159eb","computer","Desktop or Laptop","Mac OS 10.15.7","Chrome 129.0.0.0","1470x956","1470x832",NA,NA,0,"Gambling_GBO",15,"In","EFDGCHBIAJK",NA,"In","MH_OCT","seq2","Gamble_Rand_Seq2","Gamble_Rand_Seq2",27,"Rating","Screen 1","hx8b5a",1,"continue","",1771.30000014306,1766.60000000001,1771.30000014306,1771.30000014306,1766.60000000001,1771.30000014306,1,1771.30000014306,0,0,NA,"Click To Continue","Continue Button",3,"object-25","Rating","happy","not happy","happy",9,"",NA,NA,NA,NA,NA,"Right",NA,-4.33,NA,NA,NA,NA,2,"MDPRF67412"
"120",1730467454248,"01/11/2024 13:24:14",1730467454248,0,"01/11/2024 13:24:14",193496,6,"task-nt36",NA,41048070,11986070,NA,"complete",NA,"6724cfd1b1886425b73159eb","computer","Desktop or Laptop","Mac OS 10.15.7","Chrome 129.0.0.0","1470x956","1470x832",NA,NA,0,"Gambling_GBO",15,"In","EFDGCHBIAJK",NA,"In","MH_OCT","seq2","Gamble_Rand_Seq2","Gamble_Rand_Seq2",27,"Rating","Screen 1","hx8b5a",1,"response","76",1049,1766.60000000001,1774.4000000477,1049,1766.60000000001,1774.4000000477,1,1049,725.400000047695,0,NA,"Slider","MoodSlider",2,"object-243","Rating","happy","not happy","happy",9,"",NA,NA,NA,NA,NA,"Right",NA,-4.33,NA,NA,NA,NA,2,"MDPRF67412"
"121",1730467456207,"01/11/2024 13:24:16",1730467456207,0,"01/11/2024 13:24:16",193496,6,"task-nt36",NA,41048070,11986070,NA,"complete",NA,"6724cfd1b1886425b73159eb","computer","Desktop or Laptop","Mac OS 10.15.7","Chrome 129.0.0.0","1470x956","1470x832",NA,NA,0,"Gambling_GBO",15,"In","EFDGCHBIAJK",NA,"In","MH_OCT","seq2","Gamble_Rand_Seq2","Gamble_Rand_Seq2",2,"lossT","Screen 1","2oxi65",1,"continue","",1966.70000000001,1966.70000000001,1966.70000000001,1966.70000000001,1966.70000000001,1966.70000000001,1,1966.70000000001,0,0,NA,"Fixation Timing","Fixation",1,"object-354","lossT","","","",NA,"Right",-3.67,-4,-3,9,NA,"Right",NA,-4.33,NA,NA,NA,NA,2,"MDPRF67412"
"122",1730467458455,"01/11/2024 13:24:18",1730467458455,0,"01/11/2024 13:24:18",193496,6,"task-nt36",NA,41048070,11986070,NA,"complete",NA,"6724cfd1b1886425b73159eb","computer","Desktop or Laptop","Mac OS 10.15.7","Chrome 129.0.0.0","1470x956","1470x832",NA,NA,0,"Gambling_GBO",15,"In","EFDGCHBIAJK",NA,"In","MH_OCT","seq2","Gamble_Rand_Seq2","Gamble_Rand_Seq2",2,"lossT","choice","zjftf8",2,"response","Left",2246.80000009536,2233.29999999999,2246.80000009536,2246.80000009536,2233.29999999999,2246.80000009536,0,2246.80000009536,0,0,NA,"Keyboard Response","KeyResponseC",5,"object-351","lossT","","","",NA,"Right",-3.67,-4,-3,9,NA,"Left",NA,-8,NA,NA,NA,NA,-3.67,"MDPRF67412"
"123",1730467463441,"01/11/2024 13:24:23",1730467463441,0,"01/11/2024 13:24:23",193496,6,"task-nt36",NA,41048070,11986070,NA,"complete",NA,"6724cfd1b1886425b73159eb","computer","Desktop or Laptop","Mac OS 10.15.7","Chrome 129.0.0.0","1470x956","1470x832",NA,NA,0,"Gambling_GBO",15,"In","EFDGCHBIAJK",NA,"In","MH_OCT","seq2","Gamble_Rand_Seq2","Gamble_Rand_Seq2",2,"lossT","certain","uaykj9",3,"timedOut","",5000.30000004769,5000,5000.30000004769,5000.30000004769,5000,5000.30000004769,1,5000.30000004769,0,0,NA,"Time Limit","screen",0,"screen","lossT","","","",NA,"Right",-3.67,-4,-3,9,NA,"Left",NA,-8,NA,NA,NA,NA,-3.67,"MDPRF67412"
"124",1730467463447,"01/11/2024 13:24:23",1730467463447,0,"01/11/2024 13:24:23",193496,6,"task-nt36",NA,41048070,11986070,NA,"complete",NA,"6724cfd1b1886425b73159eb","computer","Desktop or Laptop","Mac OS 10.15.7","Chrome 129.0.0.0","1470x956","1470x832",NA,NA,0,"Gambling_GBO",15,"In","EFDGCHBIAJK",NA,"In","MH_OCT","seq2","Gamble_Rand_Seq2","Gamble_Rand_Seq2",28,"Rating","Screen 1","hx8b5a",1,"info","",7.10000000000582,0,7.10000000000582,7.10000000000582,0,7.10000000000582,1,7.10000000000582,0,0,NA,"Slider","MoodSlider",2,"object-243","Rating","happy","not happy","happy",10,"",NA,NA,NA,NA,NA,"Left",NA,-8,NA,NA,NA,NA,-3.67,"MDPRF67412"
"125",1730467465172,"01/11/2024 13:24:25",1730467465172,0,"01/11/2024 13:24:25",193496,6,"task-nt36",NA,41048070,11986070,NA,"complete",NA,"6724cfd1b1886425b73159eb","computer","Desktop or Laptop","Mac OS 10.15.7","Chrome 129.0.0.0","1470x956","1470x832",NA,NA,0,"Gambling_GBO",15,"In","EFDGCHBIAJK",NA,"In","MH_OCT","seq2","Gamble_Rand_Seq2","Gamble_Rand_Seq2",28,"Rating","Screen 1","hx8b5a",1,"continue","",1731.80000004769,1716.60000000001,1731.80000004769,1731.80000004769,1716.60000000001,1731.80000004769,1,1731.80000004769,0,0,NA,"Click To Continue","Continue Button",3,"object-25","Rating","happy","not happy","happy",10,"",NA,NA,NA,NA,NA,"Left",NA,-8,NA,NA,NA,NA,-3.67,"MDPRF67412"
"126",1730467465174,"01/11/2024 13:24:25",1730467465174,0,"01/11/2024 13:24:25",193496,6,"task-nt36",NA,41048070,11986070,NA,"complete",NA,"6724cfd1b1886425b73159eb","computer","Desktop or Laptop","Mac OS 10.15.7","Chrome 129.0.0.0","1470x956","1470x832",NA,NA,0,"Gambling_GBO",15,"In","EFDGCHBIAJK",NA,"In","MH_OCT","seq2","Gamble_Rand_Seq2","Gamble_Rand_Seq2",28,"Rating","Screen 1","hx8b5a",1,"response","16",932.300000000018,1716.60000000001,1733.70000014306,932.300000000018,1716.60000000001,1733.70000014306,1,932.300000000018,801.40000014304,0,NA,"Slider","MoodSlider",2,"object-243","Rating","happy","not happy","happy",10,"",NA,NA,NA,NA,NA,"Left",NA,-8,NA,NA,NA,NA,-3.67,"MDPRF67412"
"127",1730467465178,"01/11/2024 13:24:25",1730467465178,0,"01/11/2024 13:24:25",193496,6,"task-nt36",NA,41048070,11986070,NA,"complete",NA,"6724cfd1b1886425b73159eb","computer","Desktop or Laptop","Mac OS 10.15.7","Chrome 129.0.0.0","1470x956","1470x832",NA,NA,0,"Gambling_GBO",15,"In","EFDGCHBIAJK",NA,"In","MH_OCT","seq2","Gamble_Rand_Seq2","Gamble_Rand_Seq2",29,"Rating","Screen 1","hx8b5a",1,"info","",17.7000000000116,0,17.7000000000116,17.7000000000116,0,17.7000000000116,1,17.7000000000116,0,0,NA,"Slider","MoodSlider",2,"object-243","Rating","frustrated","not frustrated","frustrated",10,"",NA,NA,NA,NA,NA,"Left",NA,-8,NA,NA,NA,NA,-3.67,"MDPRF67412"
"128",1730467467456,"01/11/2024 13:24:27",1730467467456,0,"01/11/2024 13:24:27",193496,6,"task-nt36",NA,41048070,11986070,NA,"complete",NA,"6724cfd1b1886425b73159eb","computer","Desktop or Laptop","Mac OS 10.15.7","Chrome 129.0.0.0","1470x956","1470x832",NA,NA,0,"Gambling_GBO",15,"In","EFDGCHBIAJK",NA,"In","MH_OCT","seq2","Gamble_Rand_Seq2","Gamble_Rand_Seq2",29,"Rating","Screen 1","hx8b5a",1,"continue","",2298.09999999998,2282.39999999999,2298.09999999998,2298.09999999998,2282.39999999999,2298.09999999998,1,2298.09999999998,0,0,NA,"Click To Continue","Continue Button",3,"object-25","Rating","frustrated","not frustrated","frustrated",10,"",NA,NA,NA,NA,NA,"Left",NA,-8,NA,NA,NA,NA,-3.67,"MDPRF67412"
"129",1730467467456,"01/11/2024 13:24:27",1730467467456,0,"01/11/2024 13:24:27",193496,6,"task-nt36",NA,41048070,11986070,NA,"complete",NA,"6724cfd1b1886425b73159eb","computer","Desktop or Laptop","Mac OS 10.15.7","Chrome 129.0.0.0","1470x956","1470x832",NA,NA,0,"Gambling_GBO",15,"In","EFDGCHBIAJK",NA,"In","MH_OCT","seq2","Gamble_Rand_Seq2","Gamble_Rand_Seq2",29,"Rating","Screen 1","hx8b5a",1,"response","20",1650,2282.39999999999,2298.09999999998,1650,2282.39999999999,2298.09999999998,1,1650,648.099999999977,0,NA,"Slider","MoodSlider",2,"object-243","Rating","frustrated","not frustrated","frustrated",10,"",NA,NA,NA,NA,NA,"Left",NA,-8,NA,NA,NA,NA,-3.67,"MDPRF67412"
"130",1730467467461,"01/11/2024 13:24:27",1730467467461,0,"01/11/2024 13:24:27",193496,6,"task-nt36",NA,41048070,11986070,NA,"complete",NA,"6724cfd1b1886425b73159eb","computer","Desktop or Laptop","Mac OS 10.15.7","Chrome 129.0.0.0","1470x956","1470x832",NA,NA,0,"Gambling_GBO",15,"In","EFDGCHBIAJK",NA,"In","MH_OCT","seq2","Gamble_Rand_Seq2","Gamble_Rand_Seq2",30,"Rating","Screen 1","hx8b5a",1,"info","",15.6999999999825,0,15.6999999999825,15.6999999999825,0,15.6999999999825,1,15.6999999999825,0,0,NA,"Slider","MoodSlider",2,"object-243","Rating","bored","not bored","bored",10,"",NA,NA,NA,NA,NA,"Left",NA,-8,NA,NA,NA,NA,-3.67,"MDPRF67412"
"131",1730467470099,"01/11/2024 13:24:30",1730467470099,0,"01/11/2024 13:24:30",193496,6,"task-nt36",NA,41048070,11986070,NA,"complete",NA,"6724cfd1b1886425b73159eb","computer","Desktop or Laptop","Mac OS 10.15.7","Chrome 129.0.0.0","1470x956","1470x832",NA,NA,0,"Gambling_GBO",15,"In","EFDGCHBIAJK",NA,"In","MH_OCT","seq2","Gamble_Rand_Seq2","Gamble_Rand_Seq2",30,"Rating","Screen 1","hx8b5a",1,"continue","",2659.80000004769,2650.89999999999,2659.80000004769,2659.80000004769,2650.89999999999,2659.80000004769,1,2659.80000004769,0,0,NA,"Click To Continue","Continue Button",3,"object-25","Rating","bored","not bored","bored",10,"",NA,NA,NA,NA,NA,"Left",NA,-8,NA,NA,NA,NA,-3.67,"MDPRF67412"
"132",1730467470100,"01/11/2024 13:24:30",1730467470100,0,"01/11/2024 13:24:30",193496,6,"task-nt36",NA,41048070,11986070,NA,"complete",NA,"6724cfd1b1886425b73159eb","computer","Desktop or Laptop","Mac OS 10.15.7","Chrome 129.0.0.0","1470x956","1470x832",NA,NA,0,"Gambling_GBO",15,"In","EFDGCHBIAJK",NA,"In","MH_OCT","seq2","Gamble_Rand_Seq2","Gamble_Rand_Seq2",30,"Rating","Screen 1","hx8b5a",1,"response","53",2034.20000000001,2650.89999999999,2660.30000004769,2034.20000000001,2650.89999999999,2660.30000004769,1,2034.20000000001,626.100000047678,0,NA,"Slider","MoodSlider",2,"object-243","Rating","bored","not bored","bored",10,"",NA,NA,NA,NA,NA,"Left",NA,-8,NA,NA,NA,NA,-3.67,"MDPRF67412"
"133",1730467472057,"01/11/2024 13:24:32",1730467472057,0,"01/11/2024 13:24:32",193496,6,"task-nt36",NA,41048070,11986070,NA,"complete",NA,"6724cfd1b1886425b73159eb","computer","Desktop or Laptop","Mac OS 10.15.7","Chrome 129.0.0.0","1470x956","1470x832",NA,NA,0,"Gambling_GBO",15,"In","EFDGCHBIAJK",NA,"In","MH_OCT","seq2","Gamble_Rand_Seq2","Gamble_Rand_Seq2",3,"winT","Screen 1","np5pnj",1,"continue","",1965.70000000001,1965.70000000001,1965.70000000001,1965.70000000001,1965.70000000001,1965.70000000001,1,1965.70000000001,0,0,NA,"Fixation Timing","Fixation",1,"object-304","winT","","","",NA,"Right",1.67,1,3,10,NA,"Left",NA,-8,NA,NA,NA,NA,-3.67,"MDPRF67412"
"134",1730467473480,"01/11/2024 13:24:33",1730467473480,0,"01/11/2024 13:24:33",193496,6,"task-nt36",NA,41048070,11986070,NA,"complete",NA,"6724cfd1b1886425b73159eb","computer","Desktop or Laptop","Mac OS 10.15.7","Chrome 129.0.0.0","1470x956","1470x832",NA,NA,0,"Gambling_GBO",15,"In","EFDGCHBIAJK",NA,"In","MH_OCT","seq2","Gamble_Rand_Seq2","Gamble_Rand_Seq2",3,"winT","choice","gu8zgx",2,"response","Right",1423.80000019073,1417.60000000001,1423.80000019073,1423.80000019073,1417.60000000001,1423.80000019073,1,1423.80000019073,0,0,NA,"Keyboard Response","KeyResponseG",6,"object-326","winT","","","",NA,"Right",1.67,1,3,10,NA,"Right",NA,-5,NA,NA,NA,NA,3,"MDPRF67412"
"135",1730467477474,"01/11/2024 13:24:37",1730467477474,0,"01/11/2024 13:24:37",193496,6,"task-nt36",NA,41048070,11986070,NA,"complete",NA,"6724cfd1b1886425b73159eb","computer","Desktop or Laptop","Mac OS 10.15.7","Chrome 129.0.0.0","1470x956","1470x832",NA,NA,0,"Gambling_GBO",15,"In","EFDGCHBIAJK",NA,"In","MH_OCT","seq2","Gamble_Rand_Seq2","Gamble_Rand_Seq2",3,"winT","gamble","1lb69u",3,"timedOut","",4000.20000019073,4000,4000.20000019073,4000.20000019073,4000,4000.20000019073,1,4000.20000019073,0,0,NA,"Time Limit","screen",0,"screen","winT","","","",NA,"Right",1.67,1,3,10,NA,"Right",NA,-5,NA,NA,NA,NA,3,"MDPRF67412"
"136",1730467478473,"01/11/2024 13:24:38",1730467478473,0,"01/11/2024 13:24:38",193496,6,"task-nt36",NA,41048070,11986070,NA,"complete",NA,"6724cfd1b1886425b73159eb","computer","Desktop or Laptop","Mac OS 10.15.7","Chrome 129.0.0.0","1470x956","1470x832",NA,NA,0,"Gambling_GBO",15,"In","EFDGCHBIAJK",NA,"In","MH_OCT","seq2","Gamble_Rand_Seq2","Gamble_Rand_Seq2",3,"winT","win","dhtsbv",4,"timedOut","",999.800000095362,999.699999999982,999.800000095362,999.800000095362,999.699999999982,999.800000095362,1,999.800000095362,0,0,NA,"Time Limit","screen",0,"screen","winT","","","",NA,"Right",1.67,1,3,10,NA,"Right",NA,-5,NA,NA,NA,NA,3,"MDPRF67412"
"137",1730467478477,"01/11/2024 13:24:38",1730467478477,0,"01/11/2024 13:24:38",193496,6,"task-nt36",NA,41048070,11986070,NA,"complete",NA,"6724cfd1b1886425b73159eb","computer","Desktop or Laptop","Mac OS 10.15.7","Chrome 129.0.0.0","1470x956","1470x832",NA,NA,0,"Gambling_GBO",15,"In","EFDGCHBIAJK",NA,"In","MH_OCT","seq2","Gamble_Rand_Seq2","Gamble_Rand_Seq2",31,"Rating","Screen 1","hx8b5a",1,"info","",3.5000001907465,0,3.5000001907465,3.5000001907465,0,3.5000001907465,1,3.5000001907465,0,0,NA,"Slider","MoodSlider",2,"object-243","Rating","bored","not bored","bored",11,"",NA,NA,NA,NA,NA,"Right",NA,-5,NA,NA,NA,NA,3,"MDPRF67412"
"138",1730467484277,"01/11/2024 13:24:44",1730467484277,0,"01/11/2024 13:24:44",193496,6,"task-nt36",NA,41048070,11986070,NA,"complete",NA,"6724cfd1b1886425b73159eb","computer","Desktop or Laptop","Mac OS 10.15.7","Chrome 129.0.0.0","1470x956","1470x832",NA,NA,0,"Gambling_GBO",15,"In","EFDGCHBIAJK",NA,"In","MH_OCT","seq2","Gamble_Rand_Seq2","Gamble_Rand_Seq2",31,"Rating","Screen 1","hx8b5a",1,"continue","",5803.50000019075,5800.20000000001,5803.50000019075,5803.50000019075,5800.20000000001,5803.50000019075,1,5803.50000019075,0,0,NA,"Click To Continue","Continue Button",3,"object-25","Rating","bored","not bored","bored",11,"",NA,NA,NA,NA,NA,"Right",NA,-5,NA,NA,NA,NA,3,"MDPRF67412"
"139",1730467484277,"01/11/2024 13:24:44",1730467484277,0,"01/11/2024 13:24:44",193496,6,"task-nt36",NA,41048070,11986070,NA,"complete",NA,"6724cfd1b1886425b73159eb","computer","Desktop or Laptop","Mac OS 10.15.7","Chrome 129.0.0.0","1470x956","1470x832",NA,NA,0,"Gambling_GBO",15,"In","EFDGCHBIAJK",NA,"In","MH_OCT","seq2","Gamble_Rand_Seq2","Gamble_Rand_Seq2",31,"Rating","Screen 1","hx8b5a",1,"response","22",5016,5800.20000000001,5803.9000000477,5016,5800.20000000001,5803.9000000477,1,5016,787.900000047695,0,NA,"Slider","MoodSlider",2,"object-243","Rating","bored","not bored","bored",11,"",NA,NA,NA,NA,NA,"Right",NA,-5,NA,NA,NA,NA,3,"MDPRF67412"
"140",1730467484281,"01/11/2024 13:24:44",1730467484281,0,"01/11/2024 13:24:44",193496,6,"task-nt36",NA,41048070,11986070,NA,"complete",NA,"6724cfd1b1886425b73159eb","computer","Desktop or Laptop","Mac OS 10.15.7","Chrome 129.0.0.0","1470x956","1470x832",NA,NA,0,"Gambling_GBO",15,"In","EFDGCHBIAJK",NA,"In","MH_OCT","seq2","Gamble_Rand_Seq2","Gamble_Rand_Seq2",32,"Rating","Screen 1","hx8b5a",1,"info","",7.5,0,7.5,7.5,0,7.5,1,7.5,0,0,NA,"Slider","MoodSlider",2,"object-243","Rating","frustrated","not frustrated","frustrated",11,"",NA,NA,NA,NA,NA,"Right",NA,-5,NA,NA,NA,NA,3,"MDPRF67412"
"141",1730467486528,"01/11/2024 13:24:46",1730467486528,0,"01/11/2024 13:24:46",193496,6,"task-nt36",NA,41048070,11986070,NA,"complete",NA,"6724cfd1b1886425b73159eb","computer","Desktop or Laptop","Mac OS 10.15.7","Chrome 129.0.0.0","1470x956","1470x832",NA,NA,0,"Gambling_GBO",15,"In","EFDGCHBIAJK",NA,"In","MH_OCT","seq2","Gamble_Rand_Seq2","Gamble_Rand_Seq2",32,"Rating","Screen 1","hx8b5a",1,"continue","",2254.90000009537,2250,2254.90000009537,2254.90000009537,2250,2254.90000009537,1,2254.90000009537,0,0,NA,"Click To Continue","Continue Button",3,"object-25","Rating","frustrated","not frustrated","frustrated",11,"",NA,NA,NA,NA,NA,"Right",NA,-5,NA,NA,NA,NA,3,"MDPRF67412"
"142",1730467486529,"01/11/2024 13:24:46",1730467486529,0,"01/11/2024 13:24:46",193496,6,"task-nt36",NA,41048070,11986070,NA,"complete",NA,"6724cfd1b1886425b73159eb","computer","Desktop or Laptop","Mac OS 10.15.7","Chrome 129.0.0.0","1470x956","1470x832",NA,NA,0,"Gambling_GBO",15,"In","EFDGCHBIAJK",NA,"In","MH_OCT","seq2","Gamble_Rand_Seq2","Gamble_Rand_Seq2",32,"Rating","Screen 1","hx8b5a",1,"response","20",1515.70000000001,2250,2255.30000019073,1515.70000000001,2250,2255.30000019073,1,1515.70000000001,739.600000190723,0,NA,"Slider","MoodSlider",2,"object-243","Rating","frustrated","not frustrated","frustrated",11,"",NA,NA,NA,NA,NA,"Right",NA,-5,NA,NA,NA,NA,3,"MDPRF67412"
"143",1730467486533,"01/11/2024 13:24:46",1730467486533,0,"01/11/2024 13:24:46",193496,6,"task-nt36",NA,41048070,11986070,NA,"complete",NA,"6724cfd1b1886425b73159eb","computer","Desktop or Laptop","Mac OS 10.15.7","Chrome 129.0.0.0","1470x956","1470x832",NA,NA,0,"Gambling_GBO",15,"In","EFDGCHBIAJK",NA,"In","MH_OCT","seq2","Gamble_Rand_Seq2","Gamble_Rand_Seq2",33,"Rating","Screen 1","hx8b5a",1,"info","",9.10000014305115,0,9.10000014305115,9.10000014305115,0,9.10000014305115,1,9.10000014305115,0,0,NA,"Slider","MoodSlider",2,"object-243","Rating","happy","not happy","happy",11,"",NA,NA,NA,NA,NA,"Right",NA,-5,NA,NA,NA,NA,3,"MDPRF67412"
"144",1730467488184,"01/11/2024 13:24:48",1730467488184,0,"01/11/2024 13:24:48",193496,6,"task-nt36",NA,41048070,11986070,NA,"complete",NA,"6724cfd1b1886425b73159eb","computer","Desktop or Laptop","Mac OS 10.15.7","Chrome 129.0.0.0","1470x956","1470x832",NA,NA,0,"Gambling_GBO",15,"In","EFDGCHBIAJK",NA,"In","MH_OCT","seq2","Gamble_Rand_Seq2","Gamble_Rand_Seq2",33,"Rating","Screen 1","hx8b5a",1,"continue","",1660.5,1649.70000000001,1660.5,1660.5,1649.70000000001,1660.5,1,1660.5,0,0,NA,"Click To Continue","Continue Button",3,"object-25","Rating","happy","not happy","happy",11,"",NA,NA,NA,NA,NA,"Right",NA,-5,NA,NA,NA,NA,3,"MDPRF67412"
"145",1730467488186,"01/11/2024 13:24:48",1730467488186,0,"01/11/2024 13:24:48",193496,6,"task-nt36",NA,41048070,11986070,NA,"complete",NA,"6724cfd1b1886425b73159eb","computer","Desktop or Laptop","Mac OS 10.15.7","Chrome 129.0.0.0","1470x956","1470x832",NA,NA,0,"Gambling_GBO",15,"In","EFDGCHBIAJK",NA,"In","MH_OCT","seq2","Gamble_Rand_Seq2","Gamble_Rand_Seq2",33,"Rating","Screen 1","hx8b5a",1,"response","64",933.299999999988,1649.70000000001,1662.90000009537,933.299999999988,1649.70000000001,1662.90000009537,1,933.299999999988,729.600000095379,0,NA,"Slider","MoodSlider",2,"object-243","Rating","happy","not happy","happy",11,"",NA,NA,NA,NA,NA,"Right",NA,-5,NA,NA,NA,NA,3,"MDPRF67412"
"146",1730467490140,"01/11/2024 13:24:50",1730467490140,0,"01/11/2024 13:24:50",193496,6,"task-nt36",NA,41048070,11986070,NA,"complete",NA,"6724cfd1b1886425b73159eb","computer","Desktop or Laptop","Mac OS 10.15.7","Chrome 129.0.0.0","1470x956","1470x832",NA,NA,0,"Gambling_GBO",15,"In","EFDGCHBIAJK",NA,"In","MH_OCT","seq2","Gamble_Rand_Seq2","Gamble_Rand_Seq2",2,"winB","Screen 1","pkkyi8",1,"continue","",1966,1966,1966,1966,1966,1966,1,1966,0,0,NA,"Fixation Timing","Fixation",1,"object-246","winB","","","",NA,"Right",2.67,2,4,11,NA,"Right",NA,-5,NA,NA,NA,NA,3,"MDPRF67412"
"147",1730467492544,"01/11/2024 13:24:52",1730467492544,0,"01/11/2024 13:24:52",193496,6,"task-nt36",NA,41048070,11986070,NA,"complete",NA,"6724cfd1b1886425b73159eb","computer","Desktop or Laptop","Mac OS 10.15.7","Chrome 129.0.0.0","1470x956","1470x832",NA,NA,0,"Gambling_GBO",15,"In","EFDGCHBIAJK",NA,"In","MH_OCT","seq2","Gamble_Rand_Seq2","Gamble_Rand_Seq2",2,"winB","choice","5lszbx",2,"response","Right",2404.60000019072,2401,2404.60000019072,2404.60000019072,2401,2404.60000019072,1,2404.60000019072,0,0,NA,"Keyboard Response","KeyResponseG",6,"object-256","winB","","","",NA,"Right",2.67,2,4,11,NA,"Right",NA,-1,NA,NA,NA,NA,4,"MDPRF67412"
"148",1730467496541,"01/11/2024 13:24:56",1730467496541,0,"01/11/2024 13:24:56",193496,6,"task-nt36",NA,41048070,11986070,NA,"complete",NA,"6724cfd1b1886425b73159eb","computer","Desktop or Laptop","Mac OS 10.15.7","Chrome 129.0.0.0","1470x956","1470x832",NA,NA,0,"Gambling_GBO",15,"In","EFDGCHBIAJK",NA,"In","MH_OCT","seq2","Gamble_Rand_Seq2","Gamble_Rand_Seq2",2,"winB","gamble","17lgr3",3,"timedOut","",4000.40000014304,3999.89999999999,4000.40000014304,4000.40000014304,3999.89999999999,4000.40000014304,1,4000.40000014304,0,0,NA,"Time Limit","screen",0,"screen","winB","","","",NA,"Right",2.67,2,4,11,NA,"Right",NA,-1,NA,NA,NA,NA,4,"MDPRF67412"
"149",1730467497541,"01/11/2024 13:24:57",1730467497541,0,"01/11/2024 13:24:57",193496,6,"task-nt36",NA,41048070,11986070,NA,"complete",NA,"6724cfd1b1886425b73159eb","computer","Desktop or Laptop","Mac OS 10.15.7","Chrome 129.0.0.0","1470x956","1470x832",NA,NA,0,"Gambling_GBO",15,"In","EFDGCHBIAJK",NA,"In","MH_OCT","seq2","Gamble_Rand_Seq2","Gamble_Rand_Seq2",2,"winB","win","dzz5jr",4,"timedOut","",1000.30000009536,1000,1000.30000009536,1000.30000009536,1000,1000.30000009536,1,1000.30000009536,0,0,NA,"Time Limit","screen",0,"screen","winB","","","",NA,"Right",2.67,2,4,11,NA,"Right",NA,-1,NA,NA,NA,NA,4,"MDPRF67412"
"150",1730467497551,"01/11/2024 13:24:57",1730467497551,0,"01/11/2024 13:24:57",193496,6,"task-nt36",NA,41048070,11986070,NA,"complete",NA,"6724cfd1b1886425b73159eb","computer","Desktop or Laptop","Mac OS 10.15.7","Chrome 129.0.0.0","1470x956","1470x832",NA,NA,0,"Gambling_GBO",15,"In","EFDGCHBIAJK",NA,"In","MH_OCT","seq2","Gamble_Rand_Seq2","Gamble_Rand_Seq2",34,"Rating","Screen 1","hx8b5a",1,"info","",10.8000000953616,0,10.8000000953616,10.8000000953616,0,10.8000000953616,1,10.8000000953616,0,0,NA,"Slider","MoodSlider",2,"object-243","Rating","frustrated","not frustrated","frustrated",12,"",NA,NA,NA,NA,NA,"Right",NA,-1,NA,NA,NA,NA,4,"MDPRF67412"
"151",1730467503360,"01/11/2024 13:25:03",1730467503360,0,"01/11/2024 13:25:03",193496,6,"task-nt36",NA,41048070,11986070,NA,"complete",NA,"6724cfd1b1886425b73159eb","computer","Desktop or Laptop","Mac OS 10.15.7","Chrome 129.0.0.0","1470x956","1470x832",NA,NA,0,"Gambling_GBO",15,"In","EFDGCHBIAJK",NA,"In","MH_OCT","seq2","Gamble_Rand_Seq2","Gamble_Rand_Seq2",34,"Rating","Screen 1","hx8b5a",1,"continue","",5819.80000009536,5815.69999999998,5819.80000009536,5819.80000009536,5815.69999999998,5819.80000009536,1,5819.80000009536,0,0,NA,"Click To Continue","Continue Button",3,"object-25","Rating","frustrated","not frustrated","frustrated",12,"",NA,NA,NA,NA,NA,"Right",NA,-1,NA,NA,NA,NA,4,"MDPRF67412"
