"Event.Index","UTC.Timestamp","UTC.Date.and.Time","Local.Timestamp","Local.Timezone","Local.Date.and.Time","Experiment.ID","Experiment.Version","Tree.Node.Key","Repeat.Key","Schedule.ID","Participant.Private.ID","Participant.Starting.Group","Participant.Status","Participant.Completion.Code","Participant.External.Session.ID","Participant.Device.Type","Participant.Device","Participant.OS","Participant.Browser","Participant.Monitor.Size","Participant.Viewport.Size","Checkpoint","Room.ID","Room.Order","Task.Name","Task.Version","branch.hkzp","order.ot79","branch.mcuq","branch.4fv7","randomiser.k5rb","randomiser.rz7w","Spreadsheet","Current.Spreadsheet","Trial.Number","Display","Screen","Screen.ID","Screen.Counter","Response.Type","Response","Onset.Time","Clock.Time","Reaction.Time","Absolute.Onset.Time","Absolute.Clock.Time","Absolute.Reaction.Time","Correct","Response.Onset","Response.Duration","Proportion","Tag","Component.Name","Object.Name","Object.Number","Object.ID","Spreadsheet..display","Spreadsheet..Emo","Spreadsheet..LHS_Lab","Spreadsheet..RHS_Lab","Spreadsheet..rand_M","Spreadsheet..Answer","Spreadsheet..C_points","Spreadsheet..L_points","Spreadsheet..W_points","Spreadsheet..rand_G","Manipulation..Spreadsheet","Store..Choice","Store..total","Store..total_score","Store..pounds","Store..total_money","Store..partA","Store..MoneyReward","Store..pointsPR","Random_ID"
"1",1730467894208,"01/11/2024 13:31:34",1730467894208,0,"01/11/2024 13:31:34",193496,6,"task-nkoa",NA,41048297,11986103,NA,"complete",NA,"6724d1189a4ebf6cba59225c","computer","Desktop or Laptop","Mac OS 10.15.7","Chrome 130.0.0.0","1440x900","1440x778",NA,NA,0,"Gambling_GBO",15,"In","GHFIEJDKCAB",NA,"In","MH_OCT","seq5","Gamble_Rand_Seq5","Gamble_Rand_Seq5",NA,"","","",NA,"info","START SUBSYSTEM base.component.fullscreenSubsystem",NA,NA,NA,NA,NA,NA,0,NA,NA,NA,NA,"","",NA,"","","","","",NA,"",NA,NA,NA,NA,NA,"",NA,NA,NA,NA,NA,NA,NA,"MDPRF14083"
"2",1730467894218,"01/11/2024 13:31:34",1730467894218,0,"01/11/2024 13:31:34",193496,6,"task-nkoa",NA,41048297,11986103,NA,"complete",NA,"6724d1189a4ebf6cba59225c","computer","Desktop or Laptop","Mac OS 10.15.7","Chrome 130.0.0.0","1440x900","1440x778",NA,NA,0,"Gambling_GBO",15,"In","GHFIEJDKCAB",NA,"In","MH_OCT","seq5","Gamble_Rand_Seq5","Gamble_Rand_Seq5",NA,"","","",NA,"info","SUBSYSTEM READY base.component.fullscreenSubsystem",NA,NA,NA,NA,NA,NA,0,NA,NA,NA,NA,"","",NA,"","","","","",NA,"",NA,NA,NA,NA,NA,"",NA,NA,NA,NA,NA,NA,NA,"MDPRF14083"
"3",1730467894248,"01/11/2024 13:31:34",1730467894248,0,"01/11/2024 13:31:34",193496,6,"task-nkoa",NA,41048297,11986103,NA,"complete",NA,"6724d1189a4ebf6cba59225c","computer","Desktop or Laptop","Mac OS 10.15.7","Chrome 130.0.0.0","1440x900","1440x778",NA,NA,0,"Gambling_GBO",15,"In","GHFIEJDKCAB",NA,"In","MH_OCT","seq5","Gamble_Rand_Seq5","Gamble_Rand_Seq5",NA,"","","",NA,"info","BEGIN",NA,NA,NA,NA,NA,NA,0,NA,NA,NA,NA,"","",NA,"","","","","",NA,"",NA,NA,NA,NA,NA,"",NA,NA,NA,NA,NA,NA,NA,"MDPRF14083"
"4",1730467897106,"01/11/2024 13:31:37",1730467897106,0,"01/11/2024 13:31:37",193496,6,"task-nkoa",NA,41048297,11986103,NA,"complete",NA,"6724d1189a4ebf6cba59225c","computer","Desktop or Laptop","Mac OS 10.15.7","Chrome 130.0.0.0","1440x900","1440x778",NA,NA,0,"Gambling_GBO",15,"In","GHFIEJDKCAB",NA,"In","MH_OCT","seq5","Gamble_Rand_Seq5","Gamble_Rand_Seq5",1,"Intro","Screen 1","u1aumm",1,"continue","",2915.234,2904.634,2915.234,2915.234,2904.634,2915.234,1,2915.234,0,0,NA,"Click To Continue","Continue Button",2,"object-37171","Intro","","","",NA,"",NA,NA,NA,NA,NA,"",NA,NA,NA,NA,NA,NA,NA,"MDPRF14083"
"5",1730467906603,"01/11/2024 13:31:46",1730467906603,0,"01/11/2024 13:31:46",193496,6,"task-nkoa",NA,41048297,11986103,NA,"complete",NA,"6724d1189a4ebf6cba59225c","computer","Desktop or Laptop","Mac OS 10.15.7","Chrome 130.0.0.0","1440x900","1440x778",NA,NA,0,"Gambling_GBO",15,"In","GHFIEJDKCAB",NA,"In","MH_OCT","seq5","Gamble_Rand_Seq5","Gamble_Rand_Seq5",1,"Instructions","Screen 1","rfymdc",1,"continue","",9507.49999999851,9499,9507.49999999851,9507.49999999851,9499,9507.49999999851,1,9507.49999999851,0,0,NA,"Click To Continue","Continue Button",2,"object-3","Instructions","","","",NA,"",NA,NA,NA,NA,NA,"",NA,NA,NA,NA,NA,NA,NA,"MDPRF14083"
"6",1730467912166,"01/11/2024 13:31:52",1730467912166,0,"01/11/2024 13:31:52",193496,6,"task-nkoa",NA,41048297,11986103,NA,"complete",NA,"6724d1189a4ebf6cba59225c","computer","Desktop or Laptop","Mac OS 10.15.7","Chrome 130.0.0.0","1440x900","1440x778",NA,NA,0,"Gambling_GBO",15,"In","GHFIEJDKCAB",NA,"In","MH_OCT","seq5","Gamble_Rand_Seq5","Gamble_Rand_Seq5",1,"Instructions","Screen 2","x2kpu8",2,"continue","",5571.20000000149,5566.2,5571.20000000149,5571.20000000149,5566.2,5571.20000000149,1,5571.20000000149,0,0,NA,"Click To Continue","Continue Button",2,"object-22021","Instructions","","","",NA,"",NA,NA,NA,NA,NA,"",NA,NA,NA,NA,NA,NA,NA,"MDPRF14083"
"7",1730467913924,"01/11/2024 13:31:53",1730467913924,0,"01/11/2024 13:31:53",193496,6,"task-nkoa",NA,41048297,11986103,NA,"complete",NA,"6724d1189a4ebf6cba59225c","computer","Desktop or Laptop","Mac OS 10.15.7","Chrome 130.0.0.0","1440x900","1440x778",NA,NA,0,"Gambling_GBO",15,"In","GHFIEJDKCAB",NA,"In","MH_OCT","seq5","Gamble_Rand_Seq5","Gamble_Rand_Seq5",1,"Instructions","Screen 3","o6zm7t",3,"continue","",1763.19999999702,1750.3,1763.19999999702,1763.19999999702,1750.3,1763.19999999702,1,1763.19999999702,0,0,NA,"Click To Continue","Continue Button",2,"object-225","Instructions","","","",NA,"",NA,NA,NA,NA,NA,"",NA,NA,NA,NA,NA,NA,NA,"MDPRF14083"
"8",1730467915609,"01/11/2024 13:31:55",1730467915609,0,"01/11/2024 13:31:55",193496,6,"task-nkoa",NA,41048297,11986103,NA,"complete",NA,"6724d1189a4ebf6cba59225c","computer","Desktop or Laptop","Mac OS 10.15.7","Chrome 130.0.0.0","1440x900","1440x778",NA,NA,0,"Gambling_GBO",15,"In","GHFIEJDKCAB",NA,"In","MH_OCT","seq5","Gamble_Rand_Seq5","Gamble_Rand_Seq5",1,"Instructions","Screen 4","3hq7c2",4,"continue","",1698.20000000149,1693.7,1698.20000000149,1698.20000000149,1693.7,1698.20000000149,1,1698.20000000149,0,0,NA,"Click To Continue","Continue Button",4,"object-380","Instructions","","","",NA,"",NA,NA,NA,NA,NA,"",NA,NA,NA,NA,NA,NA,NA,"MDPRF14083"
"9",1730467919548,"01/11/2024 13:31:59",1730467919548,0,"01/11/2024 13:31:59",193496,6,"task-nkoa",NA,41048297,11986103,NA,"complete",NA,"6724d1189a4ebf6cba59225c","computer","Desktop or Laptop","Mac OS 10.15.7","Chrome 130.0.0.0","1440x900","1440x778",NA,NA,0,"Gambling_GBO",15,"In","GHFIEJDKCAB",NA,"In","MH_OCT","seq5","Gamble_Rand_Seq5","Gamble_Rand_Seq5",1,"Instructions","Screen 5","5jisqh",5,"continue","",3942.79999999851,3931.5,3942.79999999851,3942.79999999851,3931.5,3942.79999999851,1,3942.79999999851,0,0,NA,"Click To Continue","Continue Button",2,"object-233","Instructions","","","",NA,"",NA,NA,NA,NA,NA,"",NA,NA,NA,NA,NA,NA,NA,"MDPRF14083"
"10",1730467920445,"01/11/2024 13:32:00",1730467920445,0,"01/11/2024 13:32:00",193496,6,"task-nkoa",NA,41048297,11986103,NA,"complete",NA,"6724d1189a4ebf6cba59225c","computer","Desktop or Laptop","Mac OS 10.15.7","Chrome 130.0.0.0","1440x900","1440x778",NA,NA,0,"Gambling_GBO",15,"In","GHFIEJDKCAB",NA,"In","MH_OCT","seq5","Gamble_Rand_Seq5","Gamble_Rand_Seq5",1,"Instructions","Screen 6","13xe5l",6,"continue","",909.000000001492,904.5,909.000000001492,909.000000001492,904.5,909.000000001492,1,909.000000001492,0,0,NA,"Click To Continue","Continue Button",2,"object-237","Instructions","","","",NA,"",NA,NA,NA,NA,NA,"",NA,NA,NA,NA,NA,NA,NA,"MDPRF14083"
"11",1730467928290,"01/11/2024 13:32:08",1730467928290,0,"01/11/2024 13:32:08",193496,6,"task-nkoa",NA,41048297,11986103,NA,"complete",NA,"6724d1189a4ebf6cba59225c","computer","Desktop or Laptop","Mac OS 10.15.7","Chrome 130.0.0.0","1440x900","1440x778",NA,NA,0,"Gambling_GBO",15,"In","GHFIEJDKCAB",NA,"In","MH_OCT","seq5","Gamble_Rand_Seq5","Gamble_Rand_Seq5",1,"Instructions","Screen 7","re2b58",7,"continue","",7849.19999999702,7842.4,7849.19999999702,7849.19999999702,7842.4,7849.19999999702,1,7849.19999999702,0,0,NA,"Click To Continue","Continue Button",2,"object-241","Instructions","","","",NA,"",NA,NA,NA,NA,NA,"",NA,NA,NA,NA,NA,NA,NA,"MDPRF14083"
"12",1730467928305,"01/11/2024 13:32:08",1730467928305,0,"01/11/2024 13:32:08",193496,6,"task-nkoa",NA,41048297,11986103,NA,"complete",NA,"6724d1189a4ebf6cba59225c","computer","Desktop or Laptop","Mac OS 10.15.7","Chrome 130.0.0.0","1440x900","1440x778",NA,NA,0,"Gambling_GBO",15,"In","GHFIEJDKCAB",NA,"In","MH_OCT","seq5","Gamble_Rand_Seq5","Gamble_Rand_Seq5",1,"Rating","Screen 1","hx8b5a",1,"info","",16.5999999999985,0,16.5999999999985,16.5999999999985,0,16.5999999999985,1,16.5999999999985,0,0,NA,"Slider","MoodSlider",2,"object-243","Rating","frustrated","not frustrated","frustrated",1,"",NA,NA,NA,NA,NA,"",NA,NA,NA,NA,NA,NA,NA,"MDPRF14083"
"13",1730467930896,"01/11/2024 13:32:10",1730467930896,0,"01/11/2024 13:32:10",193496,6,"task-nkoa",NA,41048297,11986103,NA,"complete",NA,"6724d1189a4ebf6cba59225c","computer","Desktop or Laptop","Mac OS 10.15.7","Chrome 130.0.0.0","1440x900","1440x778",NA,NA,0,"Gambling_GBO",15,"In","GHFIEJDKCAB",NA,"In","MH_OCT","seq5","Gamble_Rand_Seq5","Gamble_Rand_Seq5",1,"Rating","Screen 1","hx8b5a",1,"continue","",2612.19999999553,2597.6,2612.19999999553,2612.19999999553,2597.6,2612.19999999553,1,2612.19999999553,0,0,NA,"Click To Continue","Continue Button",3,"object-25","Rating","frustrated","not frustrated","frustrated",1,"",NA,NA,NA,NA,NA,"",NA,NA,NA,NA,NA,NA,NA,"MDPRF14083"
"14",1730467930900,"01/11/2024 13:32:10",1730467930900,0,"01/11/2024 13:32:10",193496,6,"task-nkoa",NA,41048297,11986103,NA,"complete",NA,"6724d1189a4ebf6cba59225c","computer","Desktop or Laptop","Mac OS 10.15.7","Chrome 130.0.0.0","1440x900","1440x778",NA,NA,0,"Gambling_GBO",15,"In","GHFIEJDKCAB",NA,"In","MH_OCT","seq5","Gamble_Rand_Seq5","Gamble_Rand_Seq5",1,"Rating","Screen 1","hx8b5a",1,"response","0",1604.1,2597.6,2613.7,1604.1,2597.6,2613.7,1,1604.1,1009.6,0,NA,"Slider","MoodSlider",2,"object-243","Rating","frustrated","not frustrated","frustrated",1,"",NA,NA,NA,NA,NA,"",NA,NA,NA,NA,NA,NA,NA,"MDPRF14083"
"15",1730467930912,"01/11/2024 13:32:10",1730467930912,0,"01/11/2024 13:32:10",193496,6,"task-nkoa",NA,41048297,11986103,NA,"complete",NA,"6724d1189a4ebf6cba59225c","computer","Desktop or Laptop","Mac OS 10.15.7","Chrome 130.0.0.0","1440x900","1440x778",NA,NA,0,"Gambling_GBO",15,"In","GHFIEJDKCAB",NA,"In","MH_OCT","seq5","Gamble_Rand_Seq5","Gamble_Rand_Seq5",2,"Rating","Screen 1","hx8b5a",1,"info","",16.0999999999985,0,16.0999999999985,16.0999999999985,0,16.0999999999985,1,16.0999999999985,0,0,NA,"Slider","MoodSlider",2,"object-243","Rating","happy","not happy","happy",1,"",NA,NA,NA,NA,NA,"",NA,NA,NA,NA,NA,NA,NA,"MDPRF14083"
"16",1730467933234,"01/11/2024 13:32:13",1730467933234,0,"01/11/2024 13:32:13",193496,6,"task-nkoa",NA,41048297,11986103,NA,"complete",NA,"6724d1189a4ebf6cba59225c","computer","Desktop or Laptop","Mac OS 10.15.7","Chrome 130.0.0.0","1440x900","1440x778",NA,NA,0,"Gambling_GBO",15,"In","GHFIEJDKCAB",NA,"In","MH_OCT","seq5","Gamble_Rand_Seq5","Gamble_Rand_Seq5",2,"Rating","Screen 1","hx8b5a",1,"continue","",2353.09999999553,2337.1,2353.09999999553,2353.09999999553,2337.1,2353.09999999553,1,2353.09999999553,0,0,NA,"Click To Continue","Continue Button",3,"object-25","Rating","happy","not happy","happy",1,"",NA,NA,NA,NA,NA,"",NA,NA,NA,NA,NA,NA,NA,"MDPRF14083"
"17",1730467933235,"01/11/2024 13:32:13",1730467933235,0,"01/11/2024 13:32:13",193496,6,"task-nkoa",NA,41048297,11986103,NA,"complete",NA,"6724d1189a4ebf6cba59225c","computer","Desktop or Laptop","Mac OS 10.15.7","Chrome 130.0.0.0","1440x900","1440x778",NA,NA,0,"Gambling_GBO",15,"In","GHFIEJDKCAB",NA,"In","MH_OCT","seq5","Gamble_Rand_Seq5","Gamble_Rand_Seq5",2,"Rating","Screen 1","hx8b5a",1,"response","77",1409.9,2337.1,2353.2,1409.9,2337.1,2353.2,1,1409.9,943.299999999996,0,NA,"Slider","MoodSlider",2,"object-243","Rating","happy","not happy","happy",1,"",NA,NA,NA,NA,NA,"",NA,NA,NA,NA,NA,NA,NA,"MDPRF14083"
"18",1730467933247,"01/11/2024 13:32:13",1730467933247,0,"01/11/2024 13:32:13",193496,6,"task-nkoa",NA,41048297,11986103,NA,"complete",NA,"6724d1189a4ebf6cba59225c","computer","Desktop or Laptop","Mac OS 10.15.7","Chrome 130.0.0.0","1440x900","1440x778",NA,NA,0,"Gambling_GBO",15,"In","GHFIEJDKCAB",NA,"In","MH_OCT","seq5","Gamble_Rand_Seq5","Gamble_Rand_Seq5",3,"Rating","Screen 1","hx8b5a",1,"info","",16.0999999999985,0,16.0999999999985,16.0999999999985,0,16.0999999999985,1,16.0999999999985,0,0,NA,"Slider","MoodSlider",2,"object-243","Rating","bored","not bored","bored",1,"",NA,NA,NA,NA,NA,"",NA,NA,NA,NA,NA,NA,NA,"MDPRF14083"
"19",1730467935556,"01/11/2024 13:32:15",1730467935556,0,"01/11/2024 13:32:15",193496,6,"task-nkoa",NA,41048297,11986103,NA,"complete",NA,"6724d1189a4ebf6cba59225c","computer","Desktop or Laptop","Mac OS 10.15.7","Chrome 130.0.0.0","1440x900","1440x778",NA,NA,0,"Gambling_GBO",15,"In","GHFIEJDKCAB",NA,"In","MH_OCT","seq5","Gamble_Rand_Seq5","Gamble_Rand_Seq5",3,"Rating","Screen 1","hx8b5a",1,"continue","",2337.8,2322.60000000001,2337.8,2337.8,2322.60000000001,2337.8,1,2337.8,0,0,NA,"Click To Continue","Continue Button",3,"object-25","Rating","bored","not bored","bored",1,"",NA,NA,NA,NA,NA,"",NA,NA,NA,NA,NA,NA,NA,"MDPRF14083"
"20",1730467935557,"01/11/2024 13:32:15",1730467935557,0,"01/11/2024 13:32:15",193496,6,"task-nkoa",NA,41048297,11986103,NA,"complete",NA,"6724d1189a4ebf6cba59225c","computer","Desktop or Laptop","Mac OS 10.15.7","Chrome 130.0.0.0","1440x900","1440x778",NA,NA,0,"Gambling_GBO",15,"In","GHFIEJDKCAB",NA,"In","MH_OCT","seq5","Gamble_Rand_Seq5","Gamble_Rand_Seq5",3,"Rating","Screen 1","hx8b5a",1,"response","33",1099.4,2322.60000000001,2338.59999999702,1099.4,2322.60000000001,2338.59999999702,1,1099.4,1239.19999999702,0,NA,"Slider","MoodSlider",2,"object-243","Rating","bored","not bored","bored",1,"",NA,NA,NA,NA,NA,"",NA,NA,NA,NA,NA,NA,NA,"MDPRF14083"
"21",1730467937508,"01/11/2024 13:32:17",1730467937508,0,"01/11/2024 13:32:17",193496,6,"task-nkoa",NA,41048297,11986103,NA,"complete",NA,"6724d1189a4ebf6cba59225c","computer","Desktop or Laptop","Mac OS 10.15.7","Chrome 130.0.0.0","1440x900","1440x778",NA,NA,0,"Gambling_GBO",15,"In","GHFIEJDKCAB",NA,"In","MH_OCT","seq5","Gamble_Rand_Seq5","Gamble_Rand_Seq5",1,"lossB","Screen 1","a4fynh",1,"continue","",1966.5,1966.5,1966.5,1966.5,1966.5,1966.5,1,1966.5,0,0,NA,"Fixation Timing","Fixation",1,"object-113","lossB","","","",NA,"Right",-1.33,-2,0,1,NA,"",NA,NA,NA,NA,NA,NA,NA,"MDPRF14083"
"22",1730467939130,"01/11/2024 13:32:19",1730467939130,0,"01/11/2024 13:32:19",193496,6,"task-nkoa",NA,41048297,11986103,NA,"complete",NA,"6724d1189a4ebf6cba59225c","computer","Desktop or Laptop","Mac OS 10.15.7","Chrome 130.0.0.0","1440x900","1440x778",NA,NA,0,"Gambling_GBO",15,"In","GHFIEJDKCAB",NA,"In","MH_OCT","seq5","Gamble_Rand_Seq5","Gamble_Rand_Seq5",1,"lossB","choice","k9qq8f",2,"response","Right",1620.39999999553,1605.2,1620.39999999553,1620.39999999553,1605.2,1620.39999999553,1,1620.39999999553,0,0,NA,"Keyboard Response","KeyResponseG",6,"object-200","lossB","","","",NA,"Right",-1.33,-2,0,1,NA,"Right",NA,-2,NA,NA,NA,NA,-2,"MDPRF14083"
"23",1730467943116,"01/11/2024 13:32:23",1730467943116,0,"01/11/2024 13:32:23",193496,6,"task-nkoa",NA,41048297,11986103,NA,"complete",NA,"6724d1189a4ebf6cba59225c","computer","Desktop or Laptop","Mac OS 10.15.7","Chrome 130.0.0.0","1440x900","1440x778",NA,NA,0,"Gambling_GBO",15,"In","GHFIEJDKCAB",NA,"In","MH_OCT","seq5","Gamble_Rand_Seq5","Gamble_Rand_Seq5",1,"lossB","gamble","tpcid5",3,"timedOut","",4003,4001.5,4003,4003,4001.5,4003,1,4003,0,0,NA,"Time Limit","screen",0,"screen","lossB","","","",NA,"Right",-1.33,-2,0,1,NA,"Right",NA,-2,NA,NA,NA,NA,-2,"MDPRF14083"
"24",1730467944121,"01/11/2024 13:32:24",1730467944121,0,"01/11/2024 13:32:24",193496,6,"task-nkoa",NA,41048297,11986103,NA,"complete",NA,"6724d1189a4ebf6cba59225c","computer","Desktop or Laptop","Mac OS 10.15.7","Chrome 130.0.0.0","1440x900","1440x778",NA,NA,0,"Gambling_GBO",15,"In","GHFIEJDKCAB",NA,"In","MH_OCT","seq5","Gamble_Rand_Seq5","Gamble_Rand_Seq5",1,"lossB","loss","2apfzp",4,"timedOut","",1006.89999999851,1006.6,1006.89999999851,1006.89999999851,1006.6,1006.89999999851,1,1006.89999999851,0,0,NA,"Time Limit","screen",0,"screen","lossB","","","",NA,"Right",-1.33,-2,0,1,NA,"Right",NA,-2,NA,NA,NA,NA,-2,"MDPRF14083"
"25",1730467944132,"01/11/2024 13:32:24",1730467944132,0,"01/11/2024 13:32:24",193496,6,"task-nkoa",NA,41048297,11986103,NA,"complete",NA,"6724d1189a4ebf6cba59225c","computer","Desktop or Laptop","Mac OS 10.15.7","Chrome 130.0.0.0","1440x900","1440x778",NA,NA,0,"Gambling_GBO",15,"In","GHFIEJDKCAB",NA,"In","MH_OCT","seq5","Gamble_Rand_Seq5","Gamble_Rand_Seq5",4,"Rating","Screen 1","hx8b5a",1,"info","",11.0999999955311,0,11.0999999955311,11.0999999955311,0,11.0999999955311,1,11.0999999955311,0,0,NA,"Slider","MoodSlider",2,"object-243","Rating","bored","not bored","bored",2,"",NA,NA,NA,NA,NA,"Right",NA,-2,NA,NA,NA,NA,-2,"MDPRF14083"
"26",1730467948639,"01/11/2024 13:32:28",1730467948639,0,"01/11/2024 13:32:28",193496,6,"task-nkoa",NA,41048297,11986103,NA,"complete",NA,"6724d1189a4ebf6cba59225c","computer","Desktop or Laptop","Mac OS 10.15.7","Chrome 130.0.0.0","1440x900","1440x778",NA,NA,0,"Gambling_GBO",15,"In","GHFIEJDKCAB",NA,"In","MH_OCT","seq5","Gamble_Rand_Seq5","Gamble_Rand_Seq5",4,"Rating","Screen 1","hx8b5a",1,"continue","",4517.59999999553,4508.6,4517.59999999553,4517.59999999553,4508.6,4517.59999999553,1,4517.59999999553,0,0,NA,"Click To Continue","Continue Button",3,"object-25","Rating","bored","not bored","bored",2,"",NA,NA,NA,NA,NA,"Right",NA,-2,NA,NA,NA,NA,-2,"MDPRF14083"
"27",1730467948639,"01/11/2024 13:32:28",1730467948639,0,"01/11/2024 13:32:28",193496,6,"task-nkoa",NA,41048297,11986103,NA,"complete",NA,"6724d1189a4ebf6cba59225c","computer","Desktop or Laptop","Mac OS 10.15.7","Chrome 130.0.0.0","1440x900","1440x778",NA,NA,0,"Gambling_GBO",15,"In","GHFIEJDKCAB",NA,"In","MH_OCT","seq5","Gamble_Rand_Seq5","Gamble_Rand_Seq5",4,"Rating","Screen 1","hx8b5a",1,"response","30",3294.6,4508.6,4518.00000000149,3294.6,4508.6,4518.00000000149,1,3294.6,1223.40000000149,0,NA,"Slider","MoodSlider",2,"object-243","Rating","bored","not bored","bored",2,"",NA,NA,NA,NA,NA,"Right",NA,-2,NA,NA,NA,NA,-2,"MDPRF14083"
"28",1730467948650,"01/11/2024 13:32:28",1730467948650,0,"01/11/2024 13:32:28",193496,6,"task-nkoa",NA,41048297,11986103,NA,"complete",NA,"6724d1189a4ebf6cba59225c","computer","Desktop or Laptop","Mac OS 10.15.7","Chrome 130.0.0.0","1440x900","1440x778",NA,NA,0,"Gambling_GBO",15,"In","GHFIEJDKCAB",NA,"In","MH_OCT","seq5","Gamble_Rand_Seq5","Gamble_Rand_Seq5",5,"Rating","Screen 1","hx8b5a",1,"info","",16.5999999999985,0,16.5999999999985,16.5999999999985,0,16.5999999999985,1,16.5999999999985,0,0,NA,"Slider","MoodSlider",2,"object-243","Rating","happy","not happy","happy",2,"",NA,NA,NA,NA,NA,"Right",NA,-2,NA,NA,NA,NA,-2,"MDPRF14083"
"29",1730467951939,"01/11/2024 13:32:31",1730467951939,0,"01/11/2024 13:32:31",193496,6,"task-nkoa",NA,41048297,11986103,NA,"complete",NA,"6724d1189a4ebf6cba59225c","computer","Desktop or Laptop","Mac OS 10.15.7","Chrome 130.0.0.0","1440x900","1440x778",NA,NA,0,"Gambling_GBO",15,"In","GHFIEJDKCAB",NA,"In","MH_OCT","seq5","Gamble_Rand_Seq5","Gamble_Rand_Seq5",5,"Rating","Screen 1","hx8b5a",1,"continue","",3308.69999999851,3295.4,3308.69999999851,3308.69999999851,3295.4,3308.69999999851,1,3308.69999999851,0,0,NA,"Click To Continue","Continue Button",3,"object-25","Rating","happy","not happy","happy",2,"",NA,NA,NA,NA,NA,"Right",NA,-2,NA,NA,NA,NA,-2,"MDPRF14083"
"30",1730467951939,"01/11/2024 13:32:31",1730467951939,0,"01/11/2024 13:32:31",193496,6,"task-nkoa",NA,41048297,11986103,NA,"complete",NA,"6724d1189a4ebf6cba59225c","computer","Desktop or Laptop","Mac OS 10.15.7","Chrome 130.0.0.0","1440x900","1440x778",NA,NA,0,"Gambling_GBO",15,"In","GHFIEJDKCAB",NA,"In","MH_OCT","seq5","Gamble_Rand_Seq5","Gamble_Rand_Seq5",5,"Rating","Screen 1","hx8b5a",1,"response","57",1240.60000000001,3295.4,3309.3,1240.60000000001,3295.4,3309.3,1,1240.60000000001,2068.7,0,NA,"Slider","MoodSlider",2,"object-243","Rating","happy","not happy","happy",2,"",NA,NA,NA,NA,NA,"Right",NA,-2,NA,NA,NA,NA,-2,"MDPRF14083"
"31",1730467951950,"01/11/2024 13:32:31",1730467951950,0,"01/11/2024 13:32:31",193496,6,"task-nkoa",NA,41048297,11986103,NA,"complete",NA,"6724d1189a4ebf6cba59225c","computer","Desktop or Laptop","Mac OS 10.15.7","Chrome 130.0.0.0","1440x900","1440x778",NA,NA,0,"Gambling_GBO",15,"In","GHFIEJDKCAB",NA,"In","MH_OCT","seq5","Gamble_Rand_Seq5","Gamble_Rand_Seq5",6,"Rating","Screen 1","hx8b5a",1,"info","",16.6999999999971,0,16.6999999999971,16.6999999999971,0,16.6999999999971,1,16.6999999999971,0,0,NA,"Slider","MoodSlider",2,"object-243","Rating","frustrated","not frustrated","frustrated",2,"",NA,NA,NA,NA,NA,"Right",NA,-2,NA,NA,NA,NA,-2,"MDPRF14083"
"32",1730467954253,"01/11/2024 13:32:34",1730467954253,0,"01/11/2024 13:32:34",193496,6,"task-nkoa",NA,41048297,11986103,NA,"complete",NA,"6724d1189a4ebf6cba59225c","computer","Desktop or Laptop","Mac OS 10.15.7","Chrome 130.0.0.0","1440x900","1440x778",NA,NA,0,"Gambling_GBO",15,"In","GHFIEJDKCAB",NA,"In","MH_OCT","seq5","Gamble_Rand_Seq5","Gamble_Rand_Seq5",6,"Rating","Screen 1","hx8b5a",1,"continue","",2327.00000000149,2320.1,2327.00000000149,2327.00000000149,2320.1,2327.00000000149,1,2327.00000000149,0,0,NA,"Click To Continue","Continue Button",3,"object-25","Rating","frustrated","not frustrated","frustrated",2,"",NA,NA,NA,NA,NA,"Right",NA,-2,NA,NA,NA,NA,-2,"MDPRF14083"
"33",1730467954259,"01/11/2024 13:32:34",1730467954259,0,"01/11/2024 13:32:34",193496,6,"task-nkoa",NA,41048297,11986103,NA,"complete",NA,"6724d1189a4ebf6cba59225c","computer","Desktop or Laptop","Mac OS 10.15.7","Chrome 130.0.0.0","1440x900","1440x778",NA,NA,0,"Gambling_GBO",15,"In","GHFIEJDKCAB",NA,"In","MH_OCT","seq5","Gamble_Rand_Seq5","Gamble_Rand_Seq5",6,"Rating","Screen 1","hx8b5a",1,"response","8",1212.3,2320.1,2333.29999999851,1212.3,2320.1,2333.29999999851,1,1212.3,1120.99999999851,0,NA,"Slider","MoodSlider",2,"object-243","Rating","frustrated","not frustrated","frustrated",2,"",NA,NA,NA,NA,NA,"Right",NA,-2,NA,NA,NA,NA,-2,"MDPRF14083"
"34",1730467956229,"01/11/2024 13:32:36",1730467956229,0,"01/11/2024 13:32:36",193496,6,"task-nkoa",NA,41048297,11986103,NA,"complete",NA,"6724d1189a4ebf6cba59225c","computer","Desktop or Laptop","Mac OS 10.15.7","Chrome 130.0.0.0","1440x900","1440x778",NA,NA,0,"Gambling_GBO",15,"In","GHFIEJDKCAB",NA,"In","MH_OCT","seq5","Gamble_Rand_Seq5","Gamble_Rand_Seq5",2,"lossB","Screen 1","a4fynh",1,"continue","",1983,1983,1983,1983,1983,1983,1,1983,0,0,NA,"Fixation Timing","Fixation",1,"object-113","lossB","","","",NA,"Right",-3.67,-4,-3,2,NA,"Right",NA,-2,NA,NA,NA,NA,-2,"MDPRF14083"
"35",1730467959127,"01/11/2024 13:32:39",1730467959127,0,"01/11/2024 13:32:39",193496,6,"task-nkoa",NA,41048297,11986103,NA,"complete",NA,"6724d1189a4ebf6cba59225c","computer","Desktop or Laptop","Mac OS 10.15.7","Chrome 130.0.0.0","1440x900","1440x778",NA,NA,0,"Gambling_GBO",15,"In","GHFIEJDKCAB",NA,"In","MH_OCT","seq5","Gamble_Rand_Seq5","Gamble_Rand_Seq5",2,"lossB","choice","k9qq8f",2,"response","Right",2897.19999999851,2894.7,2897.19999999851,2897.19999999851,2894.7,2897.19999999851,1,2897.19999999851,0,0,NA,"Keyboard Response","KeyResponseG",6,"object-200","lossB","","","",NA,"Right",-3.67,-4,-3,2,NA,"Right",NA,-6,NA,NA,NA,NA,-4,"MDPRF14083"
"36",1730467963123,"01/11/2024 13:32:43",1730467963123,0,"01/11/2024 13:32:43",193496,6,"task-nkoa",NA,41048297,11986103,NA,"complete",NA,"6724d1189a4ebf6cba59225c","computer","Desktop or Laptop","Mac OS 10.15.7","Chrome 130.0.0.0","1440x900","1440x778",NA,NA,0,"Gambling_GBO",15,"In","GHFIEJDKCAB",NA,"In","MH_OCT","seq5","Gamble_Rand_Seq5","Gamble_Rand_Seq5",2,"lossB","gamble","tpcid5",3,"timedOut","",3999.60000000001,3999.40000000001,3999.60000000001,3999.60000000001,3999.40000000001,3999.60000000001,1,3999.60000000001,0,0,NA,"Time Limit","screen",0,"screen","lossB","","","",NA,"Right",-3.67,-4,-3,2,NA,"Right",NA,-6,NA,NA,NA,NA,-4,"MDPRF14083"
"37",1730467964129,"01/11/2024 13:32:44",1730467964129,0,"01/11/2024 13:32:44",193496,6,"task-nkoa",NA,41048297,11986103,NA,"complete",NA,"6724d1189a4ebf6cba59225c","computer","Desktop or Laptop","Mac OS 10.15.7","Chrome 130.0.0.0","1440x900","1440x778",NA,NA,0,"Gambling_GBO",15,"In","GHFIEJDKCAB",NA,"In","MH_OCT","seq5","Gamble_Rand_Seq5","Gamble_Rand_Seq5",2,"lossB","loss","2apfzp",4,"timedOut","",1006.09999999851,1005.7,1006.09999999851,1006.09999999851,1005.7,1006.09999999851,1,1006.09999999851,0,0,NA,"Time Limit","screen",0,"screen","lossB","","","",NA,"Right",-3.67,-4,-3,2,NA,"Right",NA,-6,NA,NA,NA,NA,-4,"MDPRF14083"
"38",1730467964142,"01/11/2024 13:32:44",1730467964142,0,"01/11/2024 13:32:44",193496,6,"task-nkoa",NA,41048297,11986103,NA,"complete",NA,"6724d1189a4ebf6cba59225c","computer","Desktop or Laptop","Mac OS 10.15.7","Chrome 130.0.0.0","1440x900","1440x778",NA,NA,0,"Gambling_GBO",15,"In","GHFIEJDKCAB",NA,"In","MH_OCT","seq5","Gamble_Rand_Seq5","Gamble_Rand_Seq5",7,"Rating","Screen 1","hx8b5a",1,"info","",13.2999999970198,0,13.2999999970198,13.2999999970198,0,13.2999999970198,1,13.2999999970198,0,0,NA,"Slider","MoodSlider",2,"object-243","Rating","bored","not bored","bored",3,"",NA,NA,NA,NA,NA,"Right",NA,-6,NA,NA,NA,NA,-4,"MDPRF14083"
"39",1730467968607,"01/11/2024 13:32:48",1730467968607,0,"01/11/2024 13:32:48",193496,6,"task-nkoa",NA,41048297,11986103,NA,"complete",NA,"6724d1189a4ebf6cba59225c","computer","Desktop or Laptop","Mac OS 10.15.7","Chrome 130.0.0.0","1440x900","1440x778",NA,NA,0,"Gambling_GBO",15,"In","GHFIEJDKCAB",NA,"In","MH_OCT","seq5","Gamble_Rand_Seq5","Gamble_Rand_Seq5",7,"Rating","Screen 1","hx8b5a",1,"continue","",4478.5,4463.89999999999,4478.5,4478.5,4463.89999999999,4478.5,1,4478.5,0,0,NA,"Click To Continue","Continue Button",3,"object-25","Rating","bored","not bored","bored",3,"",NA,NA,NA,NA,NA,"Right",NA,-6,NA,NA,NA,NA,-4,"MDPRF14083"
"40",1730467968612,"01/11/2024 13:32:48",1730467968612,0,"01/11/2024 13:32:48",193496,6,"task-nkoa",NA,41048297,11986103,NA,"complete",NA,"6724d1189a4ebf6cba59225c","computer","Desktop or Laptop","Mac OS 10.15.7","Chrome 130.0.0.0","1440x900","1440x778",NA,NA,0,"Gambling_GBO",15,"In","GHFIEJDKCAB",NA,"In","MH_OCT","seq5","Gamble_Rand_Seq5","Gamble_Rand_Seq5",7,"Rating","Screen 1","hx8b5a",1,"response","31",1940.2,4463.89999999999,4480.59999999999,1940.2,4463.89999999999,4480.59999999999,1,1940.2,2540.39999999999,0,NA,"Slider","MoodSlider",2,"object-243","Rating","bored","not bored","bored",3,"",NA,NA,NA,NA,NA,"Right",NA,-6,NA,NA,NA,NA,-4,"MDPRF14083"
"41",1730467968622,"01/11/2024 13:32:48",1730467968622,0,"01/11/2024 13:32:48",193496,6,"task-nkoa",NA,41048297,11986103,NA,"complete",NA,"6724d1189a4ebf6cba59225c","computer","Desktop or Laptop","Mac OS 10.15.7","Chrome 130.0.0.0","1440x900","1440x778",NA,NA,0,"Gambling_GBO",15,"In","GHFIEJDKCAB",NA,"In","MH_OCT","seq5","Gamble_Rand_Seq5","Gamble_Rand_Seq5",8,"Rating","Screen 1","hx8b5a",1,"info","",16.6999999999971,0,16.6999999999971,16.6999999999971,0,16.6999999999971,1,16.6999999999971,0,0,NA,"Slider","MoodSlider",2,"object-243","Rating","frustrated","not frustrated","frustrated",3,"",NA,NA,NA,NA,NA,"Right",NA,-6,NA,NA,NA,NA,-4,"MDPRF14083"
"42",1730467971541,"01/11/2024 13:32:51",1730467971541,0,"01/11/2024 13:32:51",193496,6,"task-nkoa",NA,41048297,11986103,NA,"complete",NA,"6724d1189a4ebf6cba59225c","computer","Desktop or Laptop","Mac OS 10.15.7","Chrome 130.0.0.0","1440x900","1440x778",NA,NA,0,"Gambling_GBO",15,"In","GHFIEJDKCAB",NA,"In","MH_OCT","seq5","Gamble_Rand_Seq5","Gamble_Rand_Seq5",8,"Rating","Screen 1","hx8b5a",1,"continue","",2948.7000000015,2935,2948.7000000015,2948.7000000015,2935,2948.7000000015,1,2948.7000000015,0,0,NA,"Click To Continue","Continue Button",3,"object-25","Rating","frustrated","not frustrated","frustrated",3,"",NA,NA,NA,NA,NA,"Right",NA,-6,NA,NA,NA,NA,-4,"MDPRF14083"
"43",1730467971542,"01/11/2024 13:32:51",1730467971542,0,"01/11/2024 13:32:51",193496,6,"task-nkoa",NA,41048297,11986103,NA,"complete",NA,"6724d1189a4ebf6cba59225c","computer","Desktop or Laptop","Mac OS 10.15.7","Chrome 130.0.0.0","1440x900","1440x778",NA,NA,0,"Gambling_GBO",15,"In","GHFIEJDKCAB",NA,"In","MH_OCT","seq5","Gamble_Rand_Seq5","Gamble_Rand_Seq5",8,"Rating","Screen 1","hx8b5a",1,"response","9",1899.70000000001,2935,2949.10000000001,1899.70000000001,2935,2949.10000000001,1,1899.70000000001,1049.39999999999,0,NA,"Slider","MoodSlider",2,"object-243","Rating","frustrated","not frustrated","frustrated",3,"",NA,NA,NA,NA,NA,"Right",NA,-6,NA,NA,NA,NA,-4,"MDPRF14083"
"44",1730467971552,"01/11/2024 13:32:51",1730467971552,0,"01/11/2024 13:32:51",193496,6,"task-nkoa",NA,41048297,11986103,NA,"complete",NA,"6724d1189a4ebf6cba59225c","computer","Desktop or Laptop","Mac OS 10.15.7","Chrome 130.0.0.0","1440x900","1440x778",NA,NA,0,"Gambling_GBO",15,"In","GHFIEJDKCAB",NA,"In","MH_OCT","seq5","Gamble_Rand_Seq5","Gamble_Rand_Seq5",9,"Rating","Screen 1","hx8b5a",1,"info","",16.6999999999971,0,16.6999999999971,16.6999999999971,0,16.6999999999971,1,16.6999999999971,0,0,NA,"Slider","MoodSlider",2,"object-243","Rating","happy","not happy","happy",3,"",NA,NA,NA,NA,NA,"Right",NA,-6,NA,NA,NA,NA,-4,"MDPRF14083"
"45",1730467976073,"01/11/2024 13:32:56",1730467976073,0,"01/11/2024 13:32:56",193496,6,"task-nkoa",NA,41048297,11986103,NA,"complete",NA,"6724d1189a4ebf6cba59225c","computer","Desktop or Laptop","Mac OS 10.15.7","Chrome 130.0.0.0","1440x900","1440x778",NA,NA,0,"Gambling_GBO",15,"In","GHFIEJDKCAB",NA,"In","MH_OCT","seq5","Gamble_Rand_Seq5","Gamble_Rand_Seq5",9,"Rating","Screen 1","hx8b5a",1,"continue","",4545.60000000001,4540.3,4545.60000000001,4545.60000000001,4540.3,4545.60000000001,1,4545.60000000001,0,0,NA,"Click To Continue","Continue Button",3,"object-25","Rating","happy","not happy","happy",3,"",NA,NA,NA,NA,NA,"Right",NA,-6,NA,NA,NA,NA,-4,"MDPRF14083"
"46",1730467976074,"01/11/2024 13:32:56",1730467976074,0,"01/11/2024 13:32:56",193496,6,"task-nkoa",NA,41048297,11986103,NA,"complete",NA,"6724d1189a4ebf6cba59225c","computer","Desktop or Laptop","Mac OS 10.15.7","Chrome 130.0.0.0","1440x900","1440x778",NA,NA,0,"Gambling_GBO",15,"In","GHFIEJDKCAB",NA,"In","MH_OCT","seq5","Gamble_Rand_Seq5","Gamble_Rand_Seq5",9,"Rating","Screen 1","hx8b5a",1,"response","61",2841.5,4540.3,4546.29999999554,2841.5,4540.3,4546.29999999554,1,2841.5,1704.79999999554,0,NA,"Slider","MoodSlider",2,"object-243","Rating","happy","not happy","happy",3,"",NA,NA,NA,NA,NA,"Right",NA,-6,NA,NA,NA,NA,-4,"MDPRF14083"
"47",1730467978054,"01/11/2024 13:32:58",1730467978054,0,"01/11/2024 13:32:58",193496,6,"task-nkoa",NA,41048297,11986103,NA,"complete",NA,"6724d1189a4ebf6cba59225c","computer","Desktop or Laptop","Mac OS 10.15.7","Chrome 130.0.0.0","1440x900","1440x778",NA,NA,0,"Gambling_GBO",15,"In","GHFIEJDKCAB",NA,"In","MH_OCT","seq5","Gamble_Rand_Seq5","Gamble_Rand_Seq5",1,"winT","Screen 1","np5pnj",1,"continue","",1985.3,1985.3,1985.3,1985.3,1985.3,1985.3,1,1985.3,0,0,NA,"Fixation Timing","Fixation",1,"object-304","winT","","","",NA,"Right",-2.67,-3,-2,3,NA,"Right",NA,-6,NA,NA,NA,NA,-4,"MDPRF14083"
"48",1730467979857,"01/11/2024 13:32:59",1730467979857,0,"01/11/2024 13:32:59",193496,6,"task-nkoa",NA,41048297,11986103,NA,"complete",NA,"6724d1189a4ebf6cba59225c","computer","Desktop or Laptop","Mac OS 10.15.7","Chrome 130.0.0.0","1440x900","1440x778",NA,NA,0,"Gambling_GBO",15,"In","GHFIEJDKCAB",NA,"In","MH_OCT","seq5","Gamble_Rand_Seq5","Gamble_Rand_Seq5",1,"winT","choice","gu8zgx",2,"response","Right",1803,1793.5,1803,1803,1793.5,1803,1,1803,0,0,NA,"Keyboard Response","KeyResponseG",6,"object-326","winT","","","",NA,"Right",-2.67,-3,-2,3,NA,"Right",NA,-8,NA,NA,NA,NA,-2,"MDPRF14083"
"49",1730467983846,"01/11/2024 13:33:03",1730467983846,0,"01/11/2024 13:33:03",193496,6,"task-nkoa",NA,41048297,11986103,NA,"complete",NA,"6724d1189a4ebf6cba59225c","computer","Desktop or Laptop","Mac OS 10.15.7","Chrome 130.0.0.0","1440x900","1440x778",NA,NA,0,"Gambling_GBO",15,"In","GHFIEJDKCAB",NA,"In","MH_OCT","seq5","Gamble_Rand_Seq5","Gamble_Rand_Seq5",1,"winT","gamble","1lb69u",3,"timedOut","",3998.5,3998.3,3998.5,3998.5,3998.3,3998.5,1,3998.5,0,0,NA,"Time Limit","screen",0,"screen","winT","","","",NA,"Right",-2.67,-3,-2,3,NA,"Right",NA,-8,NA,NA,NA,NA,-2,"MDPRF14083"
"50",1730467984852,"01/11/2024 13:33:04",1730467984852,0,"01/11/2024 13:33:04",193496,6,"task-nkoa",NA,41048297,11986103,NA,"complete",NA,"6724d1189a4ebf6cba59225c","computer","Desktop or Laptop","Mac OS 10.15.7","Chrome 130.0.0.0","1440x900","1440x778",NA,NA,0,"Gambling_GBO",15,"In","GHFIEJDKCAB",NA,"In","MH_OCT","seq5","Gamble_Rand_Seq5","Gamble_Rand_Seq5",1,"winT","win","dhtsbv",4,"timedOut","",1006.30000000149,1006,1006.30000000149,1006.30000000149,1006,1006.30000000149,1,1006.30000000149,0,0,NA,"Time Limit","screen",0,"screen","winT","","","",NA,"Right",-2.67,-3,-2,3,NA,"Right",NA,-8,NA,NA,NA,NA,-2,"MDPRF14083"
"51",1730467984861,"01/11/2024 13:33:04",1730467984861,0,"01/11/2024 13:33:04",193496,6,"task-nkoa",NA,41048297,11986103,NA,"complete",NA,"6724d1189a4ebf6cba59225c","computer","Desktop or Laptop","Mac OS 10.15.7","Chrome 130.0.0.0","1440x900","1440x778",NA,NA,0,"Gambling_GBO",15,"In","GHFIEJDKCAB",NA,"In","MH_OCT","seq5","Gamble_Rand_Seq5","Gamble_Rand_Seq5",10,"Rating","Screen 1","hx8b5a",1,"info","",9.39999999552674,0,9.39999999552674,9.39999999552674,0,9.39999999552674,1,9.39999999552674,0,0,NA,"Slider","MoodSlider",2,"object-243","Rating","frustrated","not frustrated","frustrated",4,"",NA,NA,NA,NA,NA,"Right",NA,-8,NA,NA,NA,NA,-2,"MDPRF14083"
"52",1730467988838,"01/11/2024 13:33:08",1730467988838,0,"01/11/2024 13:33:08",193496,6,"task-nkoa",NA,41048297,11986103,NA,"complete",NA,"6724d1189a4ebf6cba59225c","computer","Desktop or Laptop","Mac OS 10.15.7","Chrome 130.0.0.0","1440x900","1440x778",NA,NA,0,"Gambling_GBO",15,"In","GHFIEJDKCAB",NA,"In","MH_OCT","seq5","Gamble_Rand_Seq5","Gamble_Rand_Seq5",10,"Rating","Screen 1","hx8b5a",1,"continue","",3986.2,3983.8,3986.2,3986.2,3983.8,3986.2,1,3986.2,0,0,NA,"Click To Continue","Continue Button",3,"object-25","Rating","frustrated","not frustrated","frustrated",4,"",NA,NA,NA,NA,NA,"Right",NA,-8,NA,NA,NA,NA,-2,"MDPRF14083"
"53",1730467988838,"01/11/2024 13:33:08",1730467988838,0,"01/11/2024 13:33:08",193496,6,"task-nkoa",NA,41048297,11986103,NA,"complete",NA,"6724d1189a4ebf6cba59225c","computer","Desktop or Laptop","Mac OS 10.15.7","Chrome 130.0.0.0","1440x900","1440x778",NA,NA,0,"Gambling_GBO",15,"In","GHFIEJDKCAB",NA,"In","MH_OCT","seq5","Gamble_Rand_Seq5","Gamble_Rand_Seq5",10,"Rating","Screen 1","hx8b5a",1,"response","0",2078.5,3983.8,3986.80000000149,2078.5,3983.8,3986.80000000149,1,2078.5,1908.30000000149,0,NA,"Slider","MoodSlider",2,"object-243","Rating","frustrated","not frustrated","frustrated",4,"",NA,NA,NA,NA,NA,"Right",NA,-8,NA,NA,NA,NA,-2,"MDPRF14083"
"54",1730467988848,"01/11/2024 13:33:08",1730467988848,0,"01/11/2024 13:33:08",193496,6,"task-nkoa",NA,41048297,11986103,NA,"complete",NA,"6724d1189a4ebf6cba59225c","computer","Desktop or Laptop","Mac OS 10.15.7","Chrome 130.0.0.0","1440x900","1440x778",NA,NA,0,"Gambling_GBO",15,"In","GHFIEJDKCAB",NA,"In","MH_OCT","seq5","Gamble_Rand_Seq5","Gamble_Rand_Seq5",11,"Rating","Screen 1","hx8b5a",1,"info","",12.7999999985041,0,12.7999999985041,12.7999999985041,0,12.7999999985041,1,12.7999999985041,0,0,NA,"Slider","MoodSlider",2,"object-243","Rating","bored","not bored","bored",4,"",NA,NA,NA,NA,NA,"Right",NA,-8,NA,NA,NA,NA,-2,"MDPRF14083"
"55",1730467991771,"01/11/2024 13:33:11",1730467991771,0,"01/11/2024 13:33:11",193496,6,"task-nkoa",NA,41048297,11986103,NA,"complete",NA,"6724d1189a4ebf6cba59225c","computer","Desktop or Laptop","Mac OS 10.15.7","Chrome 130.0.0.0","1440x900","1440x778",NA,NA,0,"Gambling_GBO",15,"In","GHFIEJDKCAB",NA,"In","MH_OCT","seq5","Gamble_Rand_Seq5","Gamble_Rand_Seq5",11,"Rating","Screen 1","hx8b5a",1,"continue","",2934.89999999999,2924.09999999999,2934.89999999999,2934.89999999999,2924.09999999999,2934.89999999999,1,2934.89999999999,0,0,NA,"Click To Continue","Continue Button",3,"object-25","Rating","bored","not bored","bored",4,"",NA,NA,NA,NA,NA,"Right",NA,-8,NA,NA,NA,NA,-2,"MDPRF14083"
"56",1730467991775,"01/11/2024 13:33:11",1730467991775,0,"01/11/2024 13:33:11",193496,6,"task-nkoa",NA,41048297,11986103,NA,"complete",NA,"6724d1189a4ebf6cba59225c","computer","Desktop or Laptop","Mac OS 10.15.7","Chrome 130.0.0.0","1440x900","1440x778",NA,NA,0,"Gambling_GBO",15,"In","GHFIEJDKCAB",NA,"In","MH_OCT","seq5","Gamble_Rand_Seq5","Gamble_Rand_Seq5",11,"Rating","Screen 1","hx8b5a",1,"response","29",1701.7,2924.09999999999,2939.7999999985,1701.7,2924.09999999999,2939.7999999985,1,1701.7,1238.09999999851,0,NA,"Slider","MoodSlider",2,"object-243","Rating","bored","not bored","bored",4,"",NA,NA,NA,NA,NA,"Right",NA,-8,NA,NA,NA,NA,-2,"MDPRF14083"
"57",1730467991785,"01/11/2024 13:33:11",1730467991785,0,"01/11/2024 13:33:11",193496,6,"task-nkoa",NA,41048297,11986103,NA,"complete",NA,"6724d1189a4ebf6cba59225c","computer","Desktop or Laptop","Mac OS 10.15.7","Chrome 130.0.0.0","1440x900","1440x778",NA,NA,0,"Gambling_GBO",15,"In","GHFIEJDKCAB",NA,"In","MH_OCT","seq5","Gamble_Rand_Seq5","Gamble_Rand_Seq5",12,"Rating","Screen 1","hx8b5a",1,"info","",16.6999999999971,0,16.6999999999971,16.6999999999971,0,16.6999999999971,1,16.6999999999971,0,0,NA,"Slider","MoodSlider",2,"object-243","Rating","happy","not happy","happy",4,"",NA,NA,NA,NA,NA,"Right",NA,-8,NA,NA,NA,NA,-2,"MDPRF14083"
"58",1730467995429,"01/11/2024 13:33:15",1730467995429,0,"01/11/2024 13:33:15",193496,6,"task-nkoa",NA,41048297,11986103,NA,"complete",NA,"6724d1189a4ebf6cba59225c","computer","Desktop or Laptop","Mac OS 10.15.7","Chrome 130.0.0.0","1440x900","1440x778",NA,NA,0,"Gambling_GBO",15,"In","GHFIEJDKCAB",NA,"In","MH_OCT","seq5","Gamble_Rand_Seq5","Gamble_Rand_Seq5",12,"Rating","Screen 1","hx8b5a",1,"continue","",3669.49999999553,3663.7,3669.49999999553,3669.49999999553,3663.7,3669.49999999553,1,3669.49999999553,0,0,NA,"Click To Continue","Continue Button",3,"object-25","Rating","happy","not happy","happy",4,"",NA,NA,NA,NA,NA,"Right",NA,-8,NA,NA,NA,NA,-2,"MDPRF14083"
"59",1730467995430,"01/11/2024 13:33:15",1730467995430,0,"01/11/2024 13:33:15",193496,6,"task-nkoa",NA,41048297,11986103,NA,"complete",NA,"6724d1189a4ebf6cba59225c","computer","Desktop or Laptop","Mac OS 10.15.7","Chrome 130.0.0.0","1440x900","1440x778",NA,NA,0,"Gambling_GBO",15,"In","GHFIEJDKCAB",NA,"In","MH_OCT","seq5","Gamble_Rand_Seq5","Gamble_Rand_Seq5",12,"Rating","Screen 1","hx8b5a",1,"response","66",2587,3663.7,3670.09999999702,2587,3663.7,3670.09999999702,1,2587,1083.09999999702,0,NA,"Slider","MoodSlider",2,"object-243","Rating","happy","not happy","happy",4,"",NA,NA,NA,NA,NA,"Right",NA,-8,NA,NA,NA,NA,-2,"MDPRF14083"
"60",1730467997397,"01/11/2024 13:33:17",1730467997397,0,"01/11/2024 13:33:17",193496,6,"task-nkoa",NA,41048297,11986103,NA,"complete",NA,"6724d1189a4ebf6cba59225c","computer","Desktop or Laptop","Mac OS 10.15.7","Chrome 130.0.0.0","1440x900","1440x778",NA,NA,0,"Gambling_GBO",15,"In","GHFIEJDKCAB",NA,"In","MH_OCT","seq5","Gamble_Rand_Seq5","Gamble_Rand_Seq5",1,"lossT","Screen 1","2oxi65",1,"continue","",1973.40000000001,1973.40000000001,1973.40000000001,1973.40000000001,1973.40000000001,1973.40000000001,1,1973.40000000001,0,0,NA,"Fixation Timing","Fixation",1,"object-354","lossT","","","",NA,"Right",1.67,1,3,4,NA,"Right",NA,-8,NA,NA,NA,NA,-2,"MDPRF14083"
"61",1730467999415,"01/11/2024 13:33:19",1730467999415,0,"01/11/2024 13:33:19",193496,6,"task-nkoa",NA,41048297,11986103,NA,"complete",NA,"6724d1189a4ebf6cba59225c","computer","Desktop or Laptop","Mac OS 10.15.7","Chrome 130.0.0.0","1440x900","1440x778",NA,NA,0,"Gambling_GBO",15,"In","GHFIEJDKCAB",NA,"In","MH_OCT","seq5","Gamble_Rand_Seq5","Gamble_Rand_Seq5",1,"lossT","choice","zjftf8",2,"response","Right",2017.49999999702,2009.5,2017.49999999702,2017.49999999702,2009.5,2017.49999999702,1,2017.49999999702,0,0,NA,"Keyboard Response","KeyResponseG",6,"object-352","lossT","","","",NA,"Right",1.67,1,3,4,NA,"Right",NA,-7,NA,NA,NA,NA,1,"MDPRF14083"
"62",1730468003407,"01/11/2024 13:33:23",1730468003407,0,"01/11/2024 13:33:23",193496,6,"task-nkoa",NA,41048297,11986103,NA,"complete",NA,"6724d1189a4ebf6cba59225c","computer","Desktop or Laptop","Mac OS 10.15.7","Chrome 130.0.0.0","1440x900","1440x778",NA,NA,0,"Gambling_GBO",15,"In","GHFIEJDKCAB",NA,"In","MH_OCT","seq5","Gamble_Rand_Seq5","Gamble_Rand_Seq5",1,"lossT","gamble","h5bf9r",3,"timedOut","",4000.39999999553,4000.2,4000.39999999553,4000.39999999553,4000.2,4000.39999999553,1,4000.39999999553,0,0,NA,"Time Limit","screen",0,"screen","lossT","","","",NA,"Right",1.67,1,3,4,NA,"Right",NA,-7,NA,NA,NA,NA,1,"MDPRF14083"
"63",1730468004413,"01/11/2024 13:33:24",1730468004413,0,"01/11/2024 13:33:24",193496,6,"task-nkoa",NA,41048297,11986103,NA,"complete",NA,"6724d1189a4ebf6cba59225c","computer","Desktop or Laptop","Mac OS 10.15.7","Chrome 130.0.0.0","1440x900","1440x778",NA,NA,0,"Gambling_GBO",15,"In","GHFIEJDKCAB",NA,"In","MH_OCT","seq5","Gamble_Rand_Seq5","Gamble_Rand_Seq5",1,"lossT","loss","kmnw8b",4,"timedOut","",1006,1005.8,1006,1006,1005.8,1006,1,1006,0,0,NA,"Time Limit","screen",0,"screen","lossT","","","",NA,"Right",1.67,1,3,4,NA,"Right",NA,-7,NA,NA,NA,NA,1,"MDPRF14083"
"64",1730468004424,"01/11/2024 13:33:24",1730468004424,0,"01/11/2024 13:33:24",193496,6,"task-nkoa",NA,41048297,11986103,NA,"complete",NA,"6724d1189a4ebf6cba59225c","computer","Desktop or Laptop","Mac OS 10.15.7","Chrome 130.0.0.0","1440x900","1440x778",NA,NA,0,"Gambling_GBO",15,"In","GHFIEJDKCAB",NA,"In","MH_OCT","seq5","Gamble_Rand_Seq5","Gamble_Rand_Seq5",13,"Rating","Screen 1","hx8b5a",1,"info","",11.8999999955267,0,11.8999999955267,11.8999999955267,0,11.8999999955267,1,11.8999999955267,0,0,NA,"Slider","MoodSlider",2,"object-243","Rating","bored","not bored","bored",5,"",NA,NA,NA,NA,NA,"Right",NA,-7,NA,NA,NA,NA,1,"MDPRF14083"
"65",1730468007994,"01/11/2024 13:33:27",1730468007994,0,"01/11/2024 13:33:27",193496,6,"task-nkoa",NA,41048297,11986103,NA,"complete",NA,"6724d1189a4ebf6cba59225c","computer","Desktop or Laptop","Mac OS 10.15.7","Chrome 130.0.0.0","1440x900","1440x778",NA,NA,0,"Gambling_GBO",15,"In","GHFIEJDKCAB",NA,"In","MH_OCT","seq5","Gamble_Rand_Seq5","Gamble_Rand_Seq5",13,"Rating","Screen 1","hx8b5a",1,"continue","",3580.89999999553,3578.09999999999,3580.89999999553,3580.89999999553,3578.09999999999,3580.89999999553,1,3580.89999999553,0,0,NA,"Click To Continue","Continue Button",3,"object-25","Rating","bored","not bored","bored",5,"",NA,NA,NA,NA,NA,"Right",NA,-7,NA,NA,NA,NA,1,"MDPRF14083"
"66",1730468007994,"01/11/2024 13:33:27",1730468007994,0,"01/11/2024 13:33:27",193496,6,"task-nkoa",NA,41048297,11986103,NA,"complete",NA,"6724d1189a4ebf6cba59225c","computer","Desktop or Laptop","Mac OS 10.15.7","Chrome 130.0.0.0","1440x900","1440x778",NA,NA,0,"Gambling_GBO",15,"In","GHFIEJDKCAB",NA,"In","MH_OCT","seq5","Gamble_Rand_Seq5","Gamble_Rand_Seq5",13,"Rating","Screen 1","hx8b5a",1,"response","30",2577,3578.09999999999,3581.49999999702,2577,3578.09999999999,3581.49999999702,1,2577,1004.49999999702,0,NA,"Slider","MoodSlider",2,"object-243","Rating","bored","not bored","bored",5,"",NA,NA,NA,NA,NA,"Right",NA,-7,NA,NA,NA,NA,1,"MDPRF14083"
"67",1730468008003,"01/11/2024 13:33:28",1730468008003,0,"01/11/2024 13:33:28",193496,6,"task-nkoa",NA,41048297,11986103,NA,"complete",NA,"6724d1189a4ebf6cba59225c","computer","Desktop or Laptop","Mac OS 10.15.7","Chrome 130.0.0.0","1440x900","1440x778",NA,NA,0,"Gambling_GBO",15,"In","GHFIEJDKCAB",NA,"In","MH_OCT","seq5","Gamble_Rand_Seq5","Gamble_Rand_Seq5",14,"Rating","Screen 1","hx8b5a",1,"info","",12.7000000014959,0,12.7000000014959,12.7000000014959,0,12.7000000014959,1,12.7000000014959,0,0,NA,"Slider","MoodSlider",2,"object-243","Rating","frustrated","not frustrated","frustrated",5,"",NA,NA,NA,NA,NA,"Right",NA,-7,NA,NA,NA,NA,1,"MDPRF14083"
"68",1730468010363,"01/11/2024 13:33:30",1730468010363,0,"01/11/2024 13:33:30",193496,6,"task-nkoa",NA,41048297,11986103,NA,"complete",NA,"6724d1189a4ebf6cba59225c","computer","Desktop or Laptop","Mac OS 10.15.7","Chrome 130.0.0.0","1440x900","1440x778",NA,NA,0,"Gambling_GBO",15,"In","GHFIEJDKCAB",NA,"In","MH_OCT","seq5","Gamble_Rand_Seq5","Gamble_Rand_Seq5",14,"Rating","Screen 1","hx8b5a",1,"continue","",2372.39999999703,2356.5,2372.39999999703,2372.39999999703,2356.5,2372.39999999703,1,2372.39999999703,0,0,NA,"Click To Continue","Continue Button",3,"object-25","Rating","frustrated","not frustrated","frustrated",5,"",NA,NA,NA,NA,NA,"Right",NA,-7,NA,NA,NA,NA,1,"MDPRF14083"
"69",1730468010364,"01/11/2024 13:33:30",1730468010364,0,"01/11/2024 13:33:30",193496,6,"task-nkoa",NA,41048297,11986103,NA,"complete",NA,"6724d1189a4ebf6cba59225c","computer","Desktop or Laptop","Mac OS 10.15.7","Chrome 130.0.0.0","1440x900","1440x778",NA,NA,0,"Gambling_GBO",15,"In","GHFIEJDKCAB",NA,"In","MH_OCT","seq5","Gamble_Rand_Seq5","Gamble_Rand_Seq5",14,"Rating","Screen 1","hx8b5a",1,"response","0",1369.3,2356.5,2372.59999999999,1369.3,2356.5,2372.59999999999,1,1369.3,1003.29999999999,0,NA,"Slider","MoodSlider",2,"object-243","Rating","frustrated","not frustrated","frustrated",5,"",NA,NA,NA,NA,NA,"Right",NA,-7,NA,NA,NA,NA,1,"MDPRF14083"
"70",1730468010373,"01/11/2024 13:33:30",1730468010373,0,"01/11/2024 13:33:30",193496,6,"task-nkoa",NA,41048297,11986103,NA,"complete",NA,"6724d1189a4ebf6cba59225c","computer","Desktop or Laptop","Mac OS 10.15.7","Chrome 130.0.0.0","1440x900","1440x778",NA,NA,0,"Gambling_GBO",15,"In","GHFIEJDKCAB",NA,"In","MH_OCT","seq5","Gamble_Rand_Seq5","Gamble_Rand_Seq5",15,"Rating","Screen 1","hx8b5a",1,"info","",16.0999999999913,0,16.0999999999913,16.0999999999913,0,16.0999999999913,1,16.0999999999913,0,0,NA,"Slider","MoodSlider",2,"object-243","Rating","happy","not happy","happy",5,"",NA,NA,NA,NA,NA,"Right",NA,-7,NA,NA,NA,NA,1,"MDPRF14083"
"71",1730468014657,"01/11/2024 13:33:34",1730468014657,0,"01/11/2024 13:33:34",193496,6,"task-nkoa",NA,41048297,11986103,NA,"complete",NA,"6724d1189a4ebf6cba59225c","computer","Desktop or Laptop","Mac OS 10.15.7","Chrome 130.0.0.0","1440x900","1440x778",NA,NA,0,"Gambling_GBO",15,"In","GHFIEJDKCAB",NA,"In","MH_OCT","seq5","Gamble_Rand_Seq5","Gamble_Rand_Seq5",15,"Rating","Screen 1","hx8b5a",1,"continue","",4309.2,4292.3,4309.2,4309.2,4292.3,4309.2,1,4309.2,0,0,NA,"Click To Continue","Continue Button",3,"object-25","Rating","happy","not happy","happy",5,"",NA,NA,NA,NA,NA,"Right",NA,-7,NA,NA,NA,NA,1,"MDPRF14083"
"72",1730468014664,"01/11/2024 13:33:34",1730468014664,0,"01/11/2024 13:33:34",193496,6,"task-nkoa",NA,41048297,11986103,NA,"complete",NA,"6724d1189a4ebf6cba59225c","computer","Desktop or Laptop","Mac OS 10.15.7","Chrome 130.0.0.0","1440x900","1440x778",NA,NA,0,"Gambling_GBO",15,"In","GHFIEJDKCAB",NA,"In","MH_OCT","seq5","Gamble_Rand_Seq5","Gamble_Rand_Seq5",15,"Rating","Screen 1","hx8b5a",1,"response","65",1727.40000000001,4292.3,4309.2,1727.40000000001,4292.3,4309.2,1,1727.40000000001,2581.79999999999,0,NA,"Slider","MoodSlider",2,"object-243","Rating","happy","not happy","happy",5,"",NA,NA,NA,NA,NA,"Right",NA,-7,NA,NA,NA,NA,1,"MDPRF14083"
"73",1730468016609,"01/11/2024 13:33:36",1730468016609,0,"01/11/2024 13:33:36",193496,6,"task-nkoa",NA,41048297,11986103,NA,"complete",NA,"6724d1189a4ebf6cba59225c","computer","Desktop or Laptop","Mac OS 10.15.7","Chrome 130.0.0.0","1440x900","1440x778",NA,NA,0,"Gambling_GBO",15,"In","GHFIEJDKCAB",NA,"In","MH_OCT","seq5","Gamble_Rand_Seq5","Gamble_Rand_Seq5",2,"lossT","Screen 1","2oxi65",1,"continue","",1969.3,1969.3,1969.3,1969.3,1969.3,1969.3,1,1969.3,0,0,NA,"Fixation Timing","Fixation",1,"object-354","lossT","","","",NA,"Right",-1.67,-2,-1,5,NA,"Right",NA,-7,NA,NA,NA,NA,1,"MDPRF14083"
"74",1730468019363,"01/11/2024 13:33:39",1730468019363,0,"01/11/2024 13:33:39",193496,6,"task-nkoa",NA,41048297,11986103,NA,"complete",NA,"6724d1189a4ebf6cba59225c","computer","Desktop or Laptop","Mac OS 10.15.7","Chrome 130.0.0.0","1440x900","1440x778",NA,NA,0,"Gambling_GBO",15,"In","GHFIEJDKCAB",NA,"In","MH_OCT","seq5","Gamble_Rand_Seq5","Gamble_Rand_Seq5",2,"lossT","choice","zjftf8",2,"response","Left",2753.10000000149,2742.60000000001,2753.10000000149,2753.10000000149,2742.60000000001,2753.10000000149,0,2753.10000000149,0,0,NA,"Keyboard Response","KeyResponseC",5,"object-351","lossT","","","",NA,"Right",-1.67,-2,-1,5,NA,"Left",NA,-8.67,NA,NA,NA,NA,-1.67,"MDPRF14083"
"75",1730468024353,"01/11/2024 13:33:44",1730468024353,0,"01/11/2024 13:33:44",193496,6,"task-nkoa",NA,41048297,11986103,NA,"complete",NA,"6724d1189a4ebf6cba59225c","computer","Desktop or Laptop","Mac OS 10.15.7","Chrome 130.0.0.0","1440x900","1440x778",NA,NA,0,"Gambling_GBO",15,"In","GHFIEJDKCAB",NA,"In","MH_OCT","seq5","Gamble_Rand_Seq5","Gamble_Rand_Seq5",2,"lossT","certain","uaykj9",3,"timedOut","",5001.50000000148,5001.09999999999,5001.50000000148,5001.50000000148,5001.09999999999,5001.50000000148,1,5001.50000000148,0,0,NA,"Time Limit","screen",0,"screen","lossT","","","",NA,"Right",-1.67,-2,-1,5,NA,"Left",NA,-8.67,NA,NA,NA,NA,-1.67,"MDPRF14083"
"76",1730468024364,"01/11/2024 13:33:44",1730468024364,0,"01/11/2024 13:33:44",193496,6,"task-nkoa",NA,41048297,11986103,NA,"complete",NA,"6724d1189a4ebf6cba59225c","computer","Desktop or Laptop","Mac OS 10.15.7","Chrome 130.0.0.0","1440x900","1440x778",NA,NA,0,"Gambling_GBO",15,"In","GHFIEJDKCAB",NA,"In","MH_OCT","seq5","Gamble_Rand_Seq5","Gamble_Rand_Seq5",16,"Rating","Screen 1","hx8b5a",1,"info","",10.8000000000029,0,10.8000000000029,10.8000000000029,0,10.8000000000029,1,10.8000000000029,0,0,NA,"Slider","MoodSlider",2,"object-243","Rating","frustrated","not frustrated","frustrated",6,"",NA,NA,NA,NA,NA,"Left",NA,-8.67,NA,NA,NA,NA,-1.67,"MDPRF14083"
"77",1730468026932,"01/11/2024 13:33:46",1730468026932,0,"01/11/2024 13:33:46",193496,6,"task-nkoa",NA,41048297,11986103,NA,"complete",NA,"6724d1189a4ebf6cba59225c","computer","Desktop or Laptop","Mac OS 10.15.7","Chrome 130.0.0.0","1440x900","1440x778",NA,NA,0,"Gambling_GBO",15,"In","GHFIEJDKCAB",NA,"In","MH_OCT","seq5","Gamble_Rand_Seq5","Gamble_Rand_Seq5",16,"Rating","Screen 1","hx8b5a",1,"continue","",2578.59999999702,2567.2,2578.59999999702,2578.59999999702,2567.2,2578.59999999702,1,2578.59999999702,0,0,NA,"Click To Continue","Continue Button",3,"object-25","Rating","frustrated","not frustrated","frustrated",6,"",NA,NA,NA,NA,NA,"Left",NA,-8.67,NA,NA,NA,NA,-1.67,"MDPRF14083"
"78",1730468026936,"01/11/2024 13:33:46",1730468026936,0,"01/11/2024 13:33:46",193496,6,"task-nkoa",NA,41048297,11986103,NA,"complete",NA,"6724d1189a4ebf6cba59225c","computer","Desktop or Laptop","Mac OS 10.15.7","Chrome 130.0.0.0","1440x900","1440x778",NA,NA,0,"Gambling_GBO",15,"In","GHFIEJDKCAB",NA,"In","MH_OCT","seq5","Gamble_Rand_Seq5","Gamble_Rand_Seq5",16,"Rating","Screen 1","hx8b5a",1,"response","3",1437.7,2567.2,2583.19999999851,1437.7,2567.2,2583.19999999851,1,1437.7,1145.49999999852,0,NA,"Slider","MoodSlider",2,"object-243","Rating","frustrated","not frustrated","frustrated",6,"",NA,NA,NA,NA,NA,"Left",NA,-8.67,NA,NA,NA,NA,-1.67,"MDPRF14083"
"79",1730468026946,"01/11/2024 13:33:46",1730468026946,0,"01/11/2024 13:33:46",193496,6,"task-nkoa",NA,41048297,11986103,NA,"complete",NA,"6724d1189a4ebf6cba59225c","computer","Desktop or Laptop","Mac OS 10.15.7","Chrome 130.0.0.0","1440x900","1440x778",NA,NA,0,"Gambling_GBO",15,"In","GHFIEJDKCAB",NA,"In","MH_OCT","seq5","Gamble_Rand_Seq5","Gamble_Rand_Seq5",17,"Rating","Screen 1","hx8b5a",1,"info","",16.6000000000058,0,16.6000000000058,16.6000000000058,0,16.6000000000058,1,16.6000000000058,0,0,NA,"Slider","MoodSlider",2,"object-243","Rating","happy","not happy","happy",6,"",NA,NA,NA,NA,NA,"Left",NA,-8.67,NA,NA,NA,NA,-1.67,"MDPRF14083"
"80",1730468030208,"01/11/2024 13:33:50",1730468030208,0,"01/11/2024 13:33:50",193496,6,"task-nkoa",NA,41048297,11986103,NA,"complete",NA,"6724d1189a4ebf6cba59225c","computer","Desktop or Laptop","Mac OS 10.15.7","Chrome 130.0.0.0","1440x900","1440x778",NA,NA,0,"Gambling_GBO",15,"In","GHFIEJDKCAB",NA,"In","MH_OCT","seq5","Gamble_Rand_Seq5","Gamble_Rand_Seq5",17,"Rating","Screen 1","hx8b5a",1,"continue","",3287.7000000015,3285.70000000001,3287.7000000015,3287.7000000015,3285.70000000001,3287.7000000015,1,3287.7000000015,0,0,NA,"Click To Continue","Continue Button",3,"object-25","Rating","happy","not happy","happy",6,"",NA,NA,NA,NA,NA,"Left",NA,-8.67,NA,NA,NA,NA,-1.67,"MDPRF14083"
"81",1730468030209,"01/11/2024 13:33:50",1730468030209,0,"01/11/2024 13:33:50",193496,6,"task-nkoa",NA,41048297,11986103,NA,"complete",NA,"6724d1189a4ebf6cba59225c","computer","Desktop or Laptop","Mac OS 10.15.7","Chrome 130.0.0.0","1440x900","1440x778",NA,NA,0,"Gambling_GBO",15,"In","GHFIEJDKCAB",NA,"In","MH_OCT","seq5","Gamble_Rand_Seq5","Gamble_Rand_Seq5",17,"Rating","Screen 1","hx8b5a",1,"response","60",2063.89999999999,3285.70000000001,3288.39999999703,2063.89999999999,3285.70000000001,3288.39999999703,1,2063.89999999999,1224.49999999703,0,NA,"Slider","MoodSlider",2,"object-243","Rating","happy","not happy","happy",6,"",NA,NA,NA,NA,NA,"Left",NA,-8.67,NA,NA,NA,NA,-1.67,"MDPRF14083"
"82",1730468030221,"01/11/2024 13:33:50",1730468030221,0,"01/11/2024 13:33:50",193496,6,"task-nkoa",NA,41048297,11986103,NA,"complete",NA,"6724d1189a4ebf6cba59225c","computer","Desktop or Laptop","Mac OS 10.15.7","Chrome 130.0.0.0","1440x900","1440x778",NA,NA,0,"Gambling_GBO",15,"In","GHFIEJDKCAB",NA,"In","MH_OCT","seq5","Gamble_Rand_Seq5","Gamble_Rand_Seq5",18,"Rating","Screen 1","hx8b5a",1,"info","",14.5999999955238,0,14.5999999955238,14.5999999955238,0,14.5999999955238,1,14.5999999955238,0,0,NA,"Slider","MoodSlider",2,"object-243","Rating","bored","not bored","bored",6,"",NA,NA,NA,NA,NA,"Left",NA,-8.67,NA,NA,NA,NA,-1.67,"MDPRF14083"
"83",1730468033643,"01/11/2024 13:33:53",1730468033643,0,"01/11/2024 13:33:53",193496,6,"task-nkoa",NA,41048297,11986103,NA,"complete",NA,"6724d1189a4ebf6cba59225c","computer","Desktop or Laptop","Mac OS 10.15.7","Chrome 130.0.0.0","1440x900","1440x778",NA,NA,0,"Gambling_GBO",15,"In","GHFIEJDKCAB",NA,"In","MH_OCT","seq5","Gamble_Rand_Seq5","Gamble_Rand_Seq5",18,"Rating","Screen 1","hx8b5a",1,"continue","",3437.00000000148,3431.19999999998,3437.00000000148,3437.00000000148,3431.19999999998,3437.00000000148,1,3437.00000000148,0,0,NA,"Click To Continue","Continue Button",3,"object-25","Rating","bored","not bored","bored",6,"",NA,NA,NA,NA,NA,"Left",NA,-8.67,NA,NA,NA,NA,-1.67,"MDPRF14083"
"84",1730468033644,"01/11/2024 13:33:53",1730468033644,0,"01/11/2024 13:33:53",193496,6,"task-nkoa",NA,41048297,11986103,NA,"complete",NA,"6724d1189a4ebf6cba59225c","computer","Desktop or Laptop","Mac OS 10.15.7","Chrome 130.0.0.0","1440x900","1440x778",NA,NA,0,"Gambling_GBO",15,"In","GHFIEJDKCAB",NA,"In","MH_OCT","seq5","Gamble_Rand_Seq5","Gamble_Rand_Seq5",18,"Rating","Screen 1","hx8b5a",1,"response","29",1112.29999999999,3431.19999999998,3437.69999999701,1112.29999999999,3431.19999999998,3437.69999999701,1,1112.29999999999,2325.39999999703,0,NA,"Slider","MoodSlider",2,"object-243","Rating","bored","not bored","bored",6,"",NA,NA,NA,NA,NA,"Left",NA,-8.67,NA,NA,NA,NA,-1.67,"MDPRF14083"
"85",1730468035620,"01/11/2024 13:33:55",1730468035620,0,"01/11/2024 13:33:55",193496,6,"task-nkoa",NA,41048297,11986103,NA,"complete",NA,"6724d1189a4ebf6cba59225c","computer","Desktop or Laptop","Mac OS 10.15.7","Chrome 130.0.0.0","1440x900","1440x778",NA,NA,0,"Gambling_GBO",15,"In","GHFIEJDKCAB",NA,"In","MH_OCT","seq5","Gamble_Rand_Seq5","Gamble_Rand_Seq5",2,"winT","Screen 1","np5pnj",1,"continue","",1982.5,1982.5,1982.5,1982.5,1982.5,1982.5,1,1982.5,0,0,NA,"Fixation Timing","Fixation",1,"object-304","winT","","","",NA,"Right",0.33,-1,3,6,NA,"Left",NA,-8.67,NA,NA,NA,NA,-1.67,"MDPRF14083"
"86",1730468037127,"01/11/2024 13:33:57",1730468037127,0,"01/11/2024 13:33:57",193496,6,"task-nkoa",NA,41048297,11986103,NA,"complete",NA,"6724d1189a4ebf6cba59225c","computer","Desktop or Laptop","Mac OS 10.15.7","Chrome 130.0.0.0","1440x900","1440x778",NA,NA,0,"Gambling_GBO",15,"In","GHFIEJDKCAB",NA,"In","MH_OCT","seq5","Gamble_Rand_Seq5","Gamble_Rand_Seq5",2,"winT","choice","gu8zgx",2,"response","Right",1505.99999999703,1493.10000000001,1505.99999999703,1505.99999999703,1493.10000000001,1505.99999999703,1,1505.99999999703,0,0,NA,"Keyboard Response","KeyResponseG",6,"object-326","winT","","","",NA,"Right",0.33,-1,3,6,NA,"Right",NA,-5.67,NA,NA,NA,NA,3,"MDPRF14083"
"87",1730468041113,"01/11/2024 13:34:01",1730468041113,0,"01/11/2024 13:34:01",193496,6,"task-nkoa",NA,41048297,11986103,NA,"complete",NA,"6724d1189a4ebf6cba59225c","computer","Desktop or Laptop","Mac OS 10.15.7","Chrome 130.0.0.0","1440x900","1440x778",NA,NA,0,"Gambling_GBO",15,"In","GHFIEJDKCAB",NA,"In","MH_OCT","seq5","Gamble_Rand_Seq5","Gamble_Rand_Seq5",2,"winT","gamble","1lb69u",3,"timedOut","",3999.89999999703,3998.5,3999.89999999703,3999.89999999703,3998.5,3999.89999999703,1,3999.89999999703,0,0,NA,"Time Limit","screen",0,"screen","winT","","","",NA,"Right",0.33,-1,3,6,NA,"Right",NA,-5.67,NA,NA,NA,NA,3,"MDPRF14083"
"88",1730468042106,"01/11/2024 13:34:02",1730468042106,0,"01/11/2024 13:34:02",193496,6,"task-nkoa",NA,41048297,11986103,NA,"complete",NA,"6724d1189a4ebf6cba59225c","computer","Desktop or Laptop","Mac OS 10.15.7","Chrome 130.0.0.0","1440x900","1440x778",NA,NA,0,"Gambling_GBO",15,"In","GHFIEJDKCAB",NA,"In","MH_OCT","seq5","Gamble_Rand_Seq5","Gamble_Rand_Seq5",2,"winT","win","dhtsbv",4,"timedOut","",993.899999997026,993.700000000012,993.899999997026,993.899999997026,993.700000000012,993.899999997026,1,993.899999997026,0,0,NA,"Time Limit","screen",0,"screen","winT","","","",NA,"Right",0.33,-1,3,6,NA,"Right",NA,-5.67,NA,NA,NA,NA,3,"MDPRF14083"
"89",1730468042117,"01/11/2024 13:34:02",1730468042117,0,"01/11/2024 13:34:02",193496,6,"task-nkoa",NA,41048297,11986103,NA,"complete",NA,"6724d1189a4ebf6cba59225c","computer","Desktop or Laptop","Mac OS 10.15.7","Chrome 130.0.0.0","1440x900","1440x778",NA,NA,0,"Gambling_GBO",15,"In","GHFIEJDKCAB",NA,"In","MH_OCT","seq5","Gamble_Rand_Seq5","Gamble_Rand_Seq5",19,"Rating","Screen 1","hx8b5a",1,"info","",11.0999999955238,0,11.0999999955238,11.0999999955238,0,11.0999999955238,1,11.0999999955238,0,0,NA,"Slider","MoodSlider",2,"object-243","Rating","frustrated","not frustrated","frustrated",7,"",NA,NA,NA,NA,NA,"Right",NA,-5.67,NA,NA,NA,NA,3,"MDPRF14083"
"90",1730468044637,"01/11/2024 13:34:04",1730468044637,0,"01/11/2024 13:34:04",193496,6,"task-nkoa",NA,41048297,11986103,NA,"complete",NA,"6724d1189a4ebf6cba59225c","computer","Desktop or Laptop","Mac OS 10.15.7","Chrome 130.0.0.0","1440x900","1440x778",NA,NA,0,"Gambling_GBO",15,"In","GHFIEJDKCAB",NA,"In","MH_OCT","seq5","Gamble_Rand_Seq5","Gamble_Rand_Seq5",19,"Rating","Screen 1","hx8b5a",1,"continue","",2531.69999999701,2520.69999999998,2531.69999999701,2531.69999999701,2520.69999999998,2531.69999999701,1,2531.69999999701,0,0,NA,"Click To Continue","Continue Button",3,"object-25","Rating","frustrated","not frustrated","frustrated",7,"",NA,NA,NA,NA,NA,"Right",NA,-5.67,NA,NA,NA,NA,3,"MDPRF14083"
"91",1730468044638,"01/11/2024 13:34:04",1730468044638,0,"01/11/2024 13:34:04",193496,6,"task-nkoa",NA,41048297,11986103,NA,"complete",NA,"6724d1189a4ebf6cba59225c","computer","Desktop or Laptop","Mac OS 10.15.7","Chrome 130.0.0.0","1440x900","1440x778",NA,NA,0,"Gambling_GBO",15,"In","GHFIEJDKCAB",NA,"In","MH_OCT","seq5","Gamble_Rand_Seq5","Gamble_Rand_Seq5",19,"Rating","Screen 1","hx8b5a",1,"response","0",1827.69999999998,2520.69999999998,2532.39999999999,1827.69999999998,2520.69999999998,2532.39999999999,1,1827.69999999998,704.700000000012,0,NA,"Slider","MoodSlider",2,"object-243","Rating","frustrated","not frustrated","frustrated",7,"",NA,NA,NA,NA,NA,"Right",NA,-5.67,NA,NA,NA,NA,3,"MDPRF14083"
"92",1730468044647,"01/11/2024 13:34:04",1730468044647,0,"01/11/2024 13:34:04",193496,6,"task-nkoa",NA,41048297,11986103,NA,"complete",NA,"6724d1189a4ebf6cba59225c","computer","Desktop or Laptop","Mac OS 10.15.7","Chrome 130.0.0.0","1440x900","1440x778",NA,NA,0,"Gambling_GBO",15,"In","GHFIEJDKCAB",NA,"In","MH_OCT","seq5","Gamble_Rand_Seq5","Gamble_Rand_Seq5",20,"Rating","Screen 1","hx8b5a",1,"info","",16.5999999999767,0,16.5999999999767,16.5999999999767,0,16.5999999999767,1,16.5999999999767,0,0,NA,"Slider","MoodSlider",2,"object-243","Rating","happy","not happy","happy",7,"",NA,NA,NA,NA,NA,"Right",NA,-5.67,NA,NA,NA,NA,3,"MDPRF14083"
"93",1730468046816,"01/11/2024 13:34:06",1730468046816,0,"01/11/2024 13:34:06",193496,6,"task-nkoa",NA,41048297,11986103,NA,"complete",NA,"6724d1189a4ebf6cba59225c","computer","Desktop or Laptop","Mac OS 10.15.7","Chrome 130.0.0.0","1440x900","1440x778",NA,NA,0,"Gambling_GBO",15,"In","GHFIEJDKCAB",NA,"In","MH_OCT","seq5","Gamble_Rand_Seq5","Gamble_Rand_Seq5",20,"Rating","Screen 1","hx8b5a",1,"continue","",2189.20000000001,2179.70000000001,2189.20000000001,2189.20000000001,2179.70000000001,2189.20000000001,1,2189.20000000001,0,0,NA,"Click To Continue","Continue Button",3,"object-25","Rating","happy","not happy","happy",7,"",NA,NA,NA,NA,NA,"Right",NA,-5.67,NA,NA,NA,NA,3,"MDPRF14083"
"94",1730468046816,"01/11/2024 13:34:06",1730468046816,0,"01/11/2024 13:34:06",193496,6,"task-nkoa",NA,41048297,11986103,NA,"complete",NA,"6724d1189a4ebf6cba59225c","computer","Desktop or Laptop","Mac OS 10.15.7","Chrome 130.0.0.0","1440x900","1440x778",NA,NA,0,"Gambling_GBO",15,"In","GHFIEJDKCAB",NA,"In","MH_OCT","seq5","Gamble_Rand_Seq5","Gamble_Rand_Seq5",20,"Rating","Screen 1","hx8b5a",1,"response","69",1260.5,2179.70000000001,2189.89999999554,1260.5,2179.70000000001,2189.89999999554,1,1260.5,929.399999995541,0,NA,"Slider","MoodSlider",2,"object-243","Rating","happy","not happy","happy",7,"",NA,NA,NA,NA,NA,"Right",NA,-5.67,NA,NA,NA,NA,3,"MDPRF14083"
"95",1730468046825,"01/11/2024 13:34:06",1730468046825,0,"01/11/2024 13:34:06",193496,6,"task-nkoa",NA,41048297,11986103,NA,"complete",NA,"6724d1189a4ebf6cba59225c","computer","Desktop or Laptop","Mac OS 10.15.7","Chrome 130.0.0.0","1440x900","1440x778",NA,NA,0,"Gambling_GBO",15,"In","GHFIEJDKCAB",NA,"In","MH_OCT","seq5","Gamble_Rand_Seq5","Gamble_Rand_Seq5",21,"Rating","Screen 1","hx8b5a",1,"info","",16.7999999999884,0,16.7999999999884,16.7999999999884,0,16.7999999999884,1,16.7999999999884,0,0,NA,"Slider","MoodSlider",2,"object-243","Rating","bored","not bored","bored",7,"",NA,NA,NA,NA,NA,"Right",NA,-5.67,NA,NA,NA,NA,3,"MDPRF14083"
"96",1730468051214,"01/11/2024 13:34:11",1730468051214,0,"01/11/2024 13:34:11",193496,6,"task-nkoa",NA,41048297,11986103,NA,"complete",NA,"6724d1189a4ebf6cba59225c","computer","Desktop or Laptop","Mac OS 10.15.7","Chrome 130.0.0.0","1440x900","1440x778",NA,NA,0,"Gambling_GBO",15,"In","GHFIEJDKCAB",NA,"In","MH_OCT","seq5","Gamble_Rand_Seq5","Gamble_Rand_Seq5",21,"Rating","Screen 1","hx8b5a",1,"continue","",4407.69999999553,4400.5,4407.69999999553,4407.69999999553,4400.5,4407.69999999553,1,4407.69999999553,0,0,NA,"Click To Continue","Continue Button",3,"object-25","Rating","bored","not bored","bored",7,"",NA,NA,NA,NA,NA,"Right",NA,-5.67,NA,NA,NA,NA,3,"MDPRF14083"
"97",1730468051222,"01/11/2024 13:34:11",1730468051222,0,"01/11/2024 13:34:11",193496,6,"task-nkoa",NA,41048297,11986103,NA,"complete",NA,"6724d1189a4ebf6cba59225c","computer","Desktop or Laptop","Mac OS 10.15.7","Chrome 130.0.0.0","1440x900","1440x778",NA,NA,0,"Gambling_GBO",15,"In","GHFIEJDKCAB",NA,"In","MH_OCT","seq5","Gamble_Rand_Seq5","Gamble_Rand_Seq5",21,"Rating","Screen 1","hx8b5a",1,"response","30",993,4400.5,4416.10000000149,993,4400.5,4416.10000000149,1,993,3423.10000000149,0,NA,"Slider","MoodSlider",2,"object-243","Rating","bored","not bored","bored",7,"",NA,NA,NA,NA,NA,"Right",NA,-5.67,NA,NA,NA,NA,3,"MDPRF14083"
"98",1730468053187,"01/11/2024 13:34:13",1730468053187,0,"01/11/2024 13:34:13",193496,6,"task-nkoa",NA,41048297,11986103,NA,"complete",NA,"6724d1189a4ebf6cba59225c","computer","Desktop or Laptop","Mac OS 10.15.7","Chrome 130.0.0.0","1440x900","1440x778",NA,NA,0,"Gambling_GBO",15,"In","GHFIEJDKCAB",NA,"In","MH_OCT","seq5","Gamble_Rand_Seq5","Gamble_Rand_Seq5",3,"lossB","Screen 1","a4fynh",1,"continue","",1979.79999999999,1979.79999999999,1979.79999999999,1979.79999999999,1979.79999999999,1979.79999999999,1,1979.79999999999,0,0,NA,"Fixation Timing","Fixation",1,"object-113","lossB","","","",NA,"Right",-2,-3,0,7,NA,"Right",NA,-5.67,NA,NA,NA,NA,3,"MDPRF14083"
"99",1730468056190,"01/11/2024 13:34:16",1730468056190,0,"01/11/2024 13:34:16",193496,6,"task-nkoa",NA,41048297,11986103,NA,"complete",NA,"6724d1189a4ebf6cba59225c","computer","Desktop or Laptop","Mac OS 10.15.7","Chrome 130.0.0.0","1440x900","1440x778",NA,NA,0,"Gambling_GBO",15,"In","GHFIEJDKCAB",NA,"In","MH_OCT","seq5","Gamble_Rand_Seq5","Gamble_Rand_Seq5",3,"lossB","choice","k9qq8f",2,"response","Right",3002.59999999852,2995.70000000001,3002.59999999852,3002.59999999852,2995.70000000001,3002.59999999852,1,3002.59999999852,0,0,NA,"Keyboard Response","KeyResponseG",6,"object-200","lossB","","","",NA,"Right",-2,-3,0,7,NA,"Right",NA,-8.67,NA,NA,NA,NA,-3,"MDPRF14083"
"100",1730468060181,"01/11/2024 13:34:20",1730468060181,0,"01/11/2024 13:34:20",193496,6,"task-nkoa",NA,41048297,11986103,NA,"complete",NA,"6724d1189a4ebf6cba59225c","computer","Desktop or Laptop","Mac OS 10.15.7","Chrome 130.0.0.0","1440x900","1440x778",NA,NA,0,"Gambling_GBO",15,"In","GHFIEJDKCAB",NA,"In","MH_OCT","seq5","Gamble_Rand_Seq5","Gamble_Rand_Seq5",3,"lossB","gamble","tpcid5",3,"timedOut","",3998.79999999702,3998.5,3998.79999999702,3998.79999999702,3998.5,3998.79999999702,1,3998.79999999702,0,0,NA,"Time Limit","screen",0,"screen","lossB","","","",NA,"Right",-2,-3,0,7,NA,"Right",NA,-8.67,NA,NA,NA,NA,-3,"MDPRF14083"
"101",1730468061187,"01/11/2024 13:34:21",1730468061187,0,"01/11/2024 13:34:21",193496,6,"task-nkoa",NA,41048297,11986103,NA,"complete",NA,"6724d1189a4ebf6cba59225c","computer","Desktop or Laptop","Mac OS 10.15.7","Chrome 130.0.0.0","1440x900","1440x778",NA,NA,0,"Gambling_GBO",15,"In","GHFIEJDKCAB",NA,"In","MH_OCT","seq5","Gamble_Rand_Seq5","Gamble_Rand_Seq5",3,"lossB","loss","2apfzp",4,"timedOut","",1006.39999999851,1006.10000000001,1006.39999999851,1006.39999999851,1006.10000000001,1006.39999999851,1,1006.39999999851,0,0,NA,"Time Limit","screen",0,"screen","lossB","","","",NA,"Right",-2,-3,0,7,NA,"Right",NA,-8.67,NA,NA,NA,NA,-3,"MDPRF14083"
"102",1730468061197,"01/11/2024 13:34:21",1730468061197,0,"01/11/2024 13:34:21",193496,6,"task-nkoa",NA,41048297,11986103,NA,"complete",NA,"6724d1189a4ebf6cba59225c","computer","Desktop or Laptop","Mac OS 10.15.7","Chrome 130.0.0.0","1440x900","1440x778",NA,NA,0,"Gambling_GBO",15,"In","GHFIEJDKCAB",NA,"In","MH_OCT","seq5","Gamble_Rand_Seq5","Gamble_Rand_Seq5",22,"Rating","Screen 1","hx8b5a",1,"info","",10.2999999985041,0,10.2999999985041,10.2999999985041,0,10.2999999985041,1,10.2999999985041,0,0,NA,"Slider","MoodSlider",2,"object-243","Rating","happy","not happy","happy",8,"",NA,NA,NA,NA,NA,"Right",NA,-8.67,NA,NA,NA,NA,-3,"MDPRF14083"
"103",1730468064142,"01/11/2024 13:34:24",1730468064142,0,"01/11/2024 13:34:24",193496,6,"task-nkoa",NA,41048297,11986103,NA,"complete",NA,"6724d1189a4ebf6cba59225c","computer","Desktop or Laptop","Mac OS 10.15.7","Chrome 130.0.0.0","1440x900","1440x778",NA,NA,0,"Gambling_GBO",15,"In","GHFIEJDKCAB",NA,"In","MH_OCT","seq5","Gamble_Rand_Seq5","Gamble_Rand_Seq5",22,"Rating","Screen 1","hx8b5a",1,"continue","",2954.89999999999,2951.89999999999,2954.89999999999,2954.89999999999,2951.89999999999,2954.89999999999,1,2954.89999999999,0,0,NA,"Click To Continue","Continue Button",3,"object-25","Rating","happy","not happy","happy",8,"",NA,NA,NA,NA,NA,"Right",NA,-8.67,NA,NA,NA,NA,-3,"MDPRF14083"
"104",1730468064148,"01/11/2024 13:34:24",1730468064148,0,"01/11/2024 13:34:24",193496,6,"task-nkoa",NA,41048297,11986103,NA,"complete",NA,"6724d1189a4ebf6cba59225c","computer","Desktop or Laptop","Mac OS 10.15.7","Chrome 130.0.0.0","1440x900","1440x778",NA,NA,0,"Gambling_GBO",15,"In","GHFIEJDKCAB",NA,"In","MH_OCT","seq5","Gamble_Rand_Seq5","Gamble_Rand_Seq5",22,"Rating","Screen 1","hx8b5a",1,"response","59",1708.19999999998,2951.89999999999,2960.59999999552,1708.19999999998,2951.89999999999,2960.59999999552,1,1708.19999999998,1252.39999999554,0,NA,"Slider","MoodSlider",2,"object-243","Rating","happy","not happy","happy",8,"",NA,NA,NA,NA,NA,"Right",NA,-8.67,NA,NA,NA,NA,-3,"MDPRF14083"
"105",1730468064159,"01/11/2024 13:34:24",1730468064159,0,"01/11/2024 13:34:24",193496,6,"task-nkoa",NA,41048297,11986103,NA,"complete",NA,"6724d1189a4ebf6cba59225c","computer","Desktop or Laptop","Mac OS 10.15.7","Chrome 130.0.0.0","1440x900","1440x778",NA,NA,0,"Gambling_GBO",15,"In","GHFIEJDKCAB",NA,"In","MH_OCT","seq5","Gamble_Rand_Seq5","Gamble_Rand_Seq5",23,"Rating","Screen 1","hx8b5a",1,"info","",16.3999999999942,0,16.3999999999942,16.3999999999942,0,16.3999999999942,1,16.3999999999942,0,0,NA,"Slider","MoodSlider",2,"object-243","Rating","bored","not bored","bored",8,"",NA,NA,NA,NA,NA,"Right",NA,-8.67,NA,NA,NA,NA,-3,"MDPRF14083"
"106",1730468067331,"01/11/2024 13:34:27",1730468067331,0,"01/11/2024 13:34:27",193496,6,"task-nkoa",NA,41048297,11986103,NA,"complete",NA,"6724d1189a4ebf6cba59225c","computer","Desktop or Laptop","Mac OS 10.15.7","Chrome 130.0.0.0","1440x900","1440x778",NA,NA,0,"Gambling_GBO",15,"In","GHFIEJDKCAB",NA,"In","MH_OCT","seq5","Gamble_Rand_Seq5","Gamble_Rand_Seq5",23,"Rating","Screen 1","hx8b5a",1,"continue","",3191.89999999851,3184,3191.89999999851,3191.89999999851,3184,3191.89999999851,1,3191.89999999851,0,0,NA,"Click To Continue","Continue Button",3,"object-25","Rating","bored","not bored","bored",8,"",NA,NA,NA,NA,NA,"Right",NA,-8.67,NA,NA,NA,NA,-3,"MDPRF14083"
"107",1730468067332,"01/11/2024 13:34:27",1730468067332,0,"01/11/2024 13:34:27",193496,6,"task-nkoa",NA,41048297,11986103,NA,"complete",NA,"6724d1189a4ebf6cba59225c","computer","Desktop or Laptop","Mac OS 10.15.7","Chrome 130.0.0.0","1440x900","1440x778",NA,NA,0,"Gambling_GBO",15,"In","GHFIEJDKCAB",NA,"In","MH_OCT","seq5","Gamble_Rand_Seq5","Gamble_Rand_Seq5",23,"Rating","Screen 1","hx8b5a",1,"response","33",1216.10000000001,3184,3192.39999999851,1216.10000000001,3184,3192.39999999851,1,1216.10000000001,1976.2999999985,0,NA,"Slider","MoodSlider",2,"object-243","Rating","bored","not bored","bored",8,"",NA,NA,NA,NA,NA,"Right",NA,-8.67,NA,NA,NA,NA,-3,"MDPRF14083"
"108",1730468067341,"01/11/2024 13:34:27",1730468067341,0,"01/11/2024 13:34:27",193496,6,"task-nkoa",NA,41048297,11986103,NA,"complete",NA,"6724d1189a4ebf6cba59225c","computer","Desktop or Laptop","Mac OS 10.15.7","Chrome 130.0.0.0","1440x900","1440x778",NA,NA,0,"Gambling_GBO",15,"In","GHFIEJDKCAB",NA,"In","MH_OCT","seq5","Gamble_Rand_Seq5","Gamble_Rand_Seq5",24,"Rating","Screen 1","hx8b5a",1,"info","",16.7000000000116,0,16.7000000000116,16.7000000000116,0,16.7000000000116,1,16.7000000000116,0,0,NA,"Slider","MoodSlider",2,"object-243","Rating","frustrated","not frustrated","frustrated",8,"",NA,NA,NA,NA,NA,"Right",NA,-8.67,NA,NA,NA,NA,-3,"MDPRF14083"
"109",1730468069015,"01/11/2024 13:34:29",1730468069015,0,"01/11/2024 13:34:29",193496,6,"task-nkoa",NA,41048297,11986103,NA,"complete",NA,"6724d1189a4ebf6cba59225c","computer","Desktop or Laptop","Mac OS 10.15.7","Chrome 130.0.0.0","1440x900","1440x778",NA,NA,0,"Gambling_GBO",15,"In","GHFIEJDKCAB",NA,"In","MH_OCT","seq5","Gamble_Rand_Seq5","Gamble_Rand_Seq5",24,"Rating","Screen 1","hx8b5a",1,"continue","",1691.89999999851,1679,1691.89999999851,1691.89999999851,1679,1691.89999999851,1,1691.89999999851,0,0,NA,"Click To Continue","Continue Button",3,"object-25","Rating","frustrated","not frustrated","frustrated",8,"",NA,NA,NA,NA,NA,"Right",NA,-8.67,NA,NA,NA,NA,-3,"MDPRF14083"
"110",1730468069016,"01/11/2024 13:34:29",1730468069016,0,"01/11/2024 13:34:29",193496,6,"task-nkoa",NA,41048297,11986103,NA,"complete",NA,"6724d1189a4ebf6cba59225c","computer","Desktop or Laptop","Mac OS 10.15.7","Chrome 130.0.0.0","1440x900","1440x778",NA,NA,0,"Gambling_GBO",15,"In","GHFIEJDKCAB",NA,"In","MH_OCT","seq5","Gamble_Rand_Seq5","Gamble_Rand_Seq5",24,"Rating","Screen 1","hx8b5a",1,"response","11",942.200000000012,1679,1692.60000000149,942.200000000012,1679,1692.60000000149,1,942.200000000012,750.400000001478,0,NA,"Slider","MoodSlider",2,"object-243","Rating","frustrated","not frustrated","frustrated",8,"",NA,NA,NA,NA,NA,"Right",NA,-8.67,NA,NA,NA,NA,-3,"MDPRF14083"
"111",1730468070978,"01/11/2024 13:34:30",1730468070978,0,"01/11/2024 13:34:30",193496,6,"task-nkoa",NA,41048297,11986103,NA,"complete",NA,"6724d1189a4ebf6cba59225c","computer","Desktop or Laptop","Mac OS 10.15.7","Chrome 130.0.0.0","1440x900","1440x778",NA,NA,0,"Gambling_GBO",15,"In","GHFIEJDKCAB",NA,"In","MH_OCT","seq5","Gamble_Rand_Seq5","Gamble_Rand_Seq5",3,"lossT","Screen 1","2oxi65",1,"continue","",1975.70000000001,1975.70000000001,1975.70000000001,1975.70000000001,1975.70000000001,1975.70000000001,1,1975.70000000001,0,0,NA,"Fixation Timing","Fixation",1,"object-354","lossT","","","",NA,"Right",-1.67,-3,1,8,NA,"Right",NA,-8.67,NA,NA,NA,NA,-3,"MDPRF14083"
"112",1730468072691,"01/11/2024 13:34:32",1730468072691,0,"01/11/2024 13:34:32",193496,6,"task-nkoa",NA,41048297,11986103,NA,"complete",NA,"6724d1189a4ebf6cba59225c","computer","Desktop or Laptop","Mac OS 10.15.7","Chrome 130.0.0.0","1440x900","1440x778",NA,NA,0,"Gambling_GBO",15,"In","GHFIEJDKCAB",NA,"In","MH_OCT","seq5","Gamble_Rand_Seq5","Gamble_Rand_Seq5",3,"lossT","choice","zjftf8",2,"response","Right",1711.79999999999,1708,1711.79999999999,1711.79999999999,1708,1711.79999999999,1,1711.79999999999,0,0,NA,"Keyboard Response","KeyResponseG",6,"object-352","lossT","","","",NA,"Right",-1.67,-3,1,8,NA,"Right",NA,-11.67,NA,NA,NA,NA,-3,"MDPRF14083"
"113",1730468076686,"01/11/2024 13:34:36",1730468076686,0,"01/11/2024 13:34:36",193496,6,"task-nkoa",NA,41048297,11986103,NA,"complete",NA,"6724d1189a4ebf6cba59225c","computer","Desktop or Laptop","Mac OS 10.15.7","Chrome 130.0.0.0","1440x900","1440x778",NA,NA,0,"Gambling_GBO",15,"In","GHFIEJDKCAB",NA,"In","MH_OCT","seq5","Gamble_Rand_Seq5","Gamble_Rand_Seq5",3,"lossT","gamble","h5bf9r",3,"timedOut","",4000.1999999985,4000,4000.1999999985,4000.1999999985,4000,4000.1999999985,1,4000.1999999985,0,0,NA,"Time Limit","screen",0,"screen","lossT","","","",NA,"Right",-1.67,-3,1,8,NA,"Right",NA,-11.67,NA,NA,NA,NA,-3,"MDPRF14083"
"114",1730468077692,"01/11/2024 13:34:37",1730468077692,0,"01/11/2024 13:34:37",193496,6,"task-nkoa",NA,41048297,11986103,NA,"complete",NA,"6724d1189a4ebf6cba59225c","computer","Desktop or Laptop","Mac OS 10.15.7","Chrome 130.0.0.0","1440x900","1440x778",NA,NA,0,"Gambling_GBO",15,"In","GHFIEJDKCAB",NA,"In","MH_OCT","seq5","Gamble_Rand_Seq5","Gamble_Rand_Seq5",3,"lossT","loss","kmnw8b",4,"timedOut","",1005.90000000148,1005.59999999998,1005.90000000148,1005.90000000148,1005.59999999998,1005.90000000148,1,1005.90000000148,0,0,NA,"Time Limit","screen",0,"screen","lossT","","","",NA,"Right",-1.67,-3,1,8,NA,"Right",NA,-11.67,NA,NA,NA,NA,-3,"MDPRF14083"
"115",1730468077701,"01/11/2024 13:34:37",1730468077701,0,"01/11/2024 13:34:37",193496,6,"task-nkoa",NA,41048297,11986103,NA,"complete",NA,"6724d1189a4ebf6cba59225c","computer","Desktop or Laptop","Mac OS 10.15.7","Chrome 130.0.0.0","1440x900","1440x778",NA,NA,0,"Gambling_GBO",15,"In","GHFIEJDKCAB",NA,"In","MH_OCT","seq5","Gamble_Rand_Seq5","Gamble_Rand_Seq5",25,"Rating","Screen 1","hx8b5a",1,"info","",9.39999999554129,0,9.39999999554129,9.39999999554129,0,9.39999999554129,1,9.39999999554129,0,0,NA,"Slider","MoodSlider",2,"object-243","Rating","bored","not bored","bored",9,"",NA,NA,NA,NA,NA,"Right",NA,-11.67,NA,NA,NA,NA,-3,"MDPRF14083"
"116",1730468082948,"01/11/2024 13:34:42",1730468082948,0,"01/11/2024 13:34:42",193496,6,"task-nkoa",NA,41048297,11986103,NA,"complete",NA,"6724d1189a4ebf6cba59225c","computer","Desktop or Laptop","Mac OS 10.15.7","Chrome 130.0.0.0","1440x900","1440x778",NA,NA,0,"Gambling_GBO",15,"In","GHFIEJDKCAB",NA,"In","MH_OCT","seq5","Gamble_Rand_Seq5","Gamble_Rand_Seq5",25,"Rating","Screen 1","hx8b5a",1,"continue","",5255.59999999852,5252.70000000001,5255.59999999852,5255.59999999852,5252.70000000001,5255.59999999852,1,5255.59999999852,0,0,NA,"Click To Continue","Continue Button",3,"object-25","Rating","bored","not bored","bored",9,"",NA,NA,NA,NA,NA,"Right",NA,-11.67,NA,NA,NA,NA,-3,"MDPRF14083"
"117",1730468082948,"01/11/2024 13:34:42",1730468082948,0,"01/11/2024 13:34:42",193496,6,"task-nkoa",NA,41048297,11986103,NA,"complete",NA,"6724d1189a4ebf6cba59225c","computer","Desktop or Laptop","Mac OS 10.15.7","Chrome 130.0.0.0","1440x900","1440x778",NA,NA,0,"Gambling_GBO",15,"In","GHFIEJDKCAB",NA,"In","MH_OCT","seq5","Gamble_Rand_Seq5","Gamble_Rand_Seq5",25,"Rating","Screen 1","hx8b5a",1,"response","32",2982.5,5252.70000000001,5256.09999999852,2982.5,5252.70000000001,5256.09999999852,1,2982.5,2273.59999999852,0,NA,"Slider","MoodSlider",2,"object-243","Rating","bored","not bored","bored",9,"",NA,NA,NA,NA,NA,"Right",NA,-11.67,NA,NA,NA,NA,-3,"MDPRF14083"
"118",1730468082958,"01/11/2024 13:34:42",1730468082958,0,"01/11/2024 13:34:42",193496,6,"task-nkoa",NA,41048297,11986103,NA,"complete",NA,"6724d1189a4ebf6cba59225c","computer","Desktop or Laptop","Mac OS 10.15.7","Chrome 130.0.0.0","1440x900","1440x778",NA,NA,0,"Gambling_GBO",15,"In","GHFIEJDKCAB",NA,"In","MH_OCT","seq5","Gamble_Rand_Seq5","Gamble_Rand_Seq5",26,"Rating","Screen 1","hx8b5a",1,"info","",13.1999999955297,0,13.1999999955297,13.1999999955297,0,13.1999999955297,1,13.1999999955297,0,0,NA,"Slider","MoodSlider",2,"object-243","Rating","frustrated","not frustrated","frustrated",9,"",NA,NA,NA,NA,NA,"Right",NA,-11.67,NA,NA,NA,NA,-3,"MDPRF14083"
"119",1730468085604,"01/11/2024 13:34:45",1730468085604,0,"01/11/2024 13:34:45",193496,6,"task-nkoa",NA,41048297,11986103,NA,"complete",NA,"6724d1189a4ebf6cba59225c","computer","Desktop or Laptop","Mac OS 10.15.7","Chrome 130.0.0.0","1440x900","1440x778",NA,NA,0,"Gambling_GBO",15,"In","GHFIEJDKCAB",NA,"In","MH_OCT","seq5","Gamble_Rand_Seq5","Gamble_Rand_Seq5",26,"Rating","Screen 1","hx8b5a",1,"continue","",2659.60000000149,2643.39999999999,2659.60000000149,2659.60000000149,2643.39999999999,2659.60000000149,1,2659.60000000149,0,0,NA,"Click To Continue","Continue Button",3,"object-25","Rating","frustrated","not frustrated","frustrated",9,"",NA,NA,NA,NA,NA,"Right",NA,-11.67,NA,NA,NA,NA,-3,"MDPRF14083"
"120",1730468085605,"01/11/2024 13:34:45",1730468085605,0,"01/11/2024 13:34:45",193496,6,"task-nkoa",NA,41048297,11986103,NA,"complete",NA,"6724d1189a4ebf6cba59225c","computer","Desktop or Laptop","Mac OS 10.15.7","Chrome 130.0.0.0","1440x900","1440x778",NA,NA,0,"Gambling_GBO",15,"In","GHFIEJDKCAB",NA,"In","MH_OCT","seq5","Gamble_Rand_Seq5","Gamble_Rand_Seq5",26,"Rating","Screen 1","hx8b5a",1,"response","6",1749.39999999999,2643.39999999999,2660.29999999702,1749.39999999999,2643.39999999999,2660.29999999702,1,1749.39999999999,910.899999997026,0,NA,"Slider","MoodSlider",2,"object-243","Rating","frustrated","not frustrated","frustrated",9,"",NA,NA,NA,NA,NA,"Right",NA,-11.67,NA,NA,NA,NA,-3,"MDPRF14083"
"121",1730468085614,"01/11/2024 13:34:45",1730468085614,0,"01/11/2024 13:34:45",193496,6,"task-nkoa",NA,41048297,11986103,NA,"complete",NA,"6724d1189a4ebf6cba59225c","computer","Desktop or Laptop","Mac OS 10.15.7","Chrome 130.0.0.0","1440x900","1440x778",NA,NA,0,"Gambling_GBO",15,"In","GHFIEJDKCAB",NA,"In","MH_OCT","seq5","Gamble_Rand_Seq5","Gamble_Rand_Seq5",27,"Rating","Screen 1","hx8b5a",1,"info","",17.6000000000058,0,17.6000000000058,17.6000000000058,0,17.6000000000058,1,17.6000000000058,0,0,NA,"Slider","MoodSlider",2,"object-243","Rating","happy","not happy","happy",9,"",NA,NA,NA,NA,NA,"Right",NA,-11.67,NA,NA,NA,NA,-3,"MDPRF14083"
"122",1730468087839,"01/11/2024 13:34:47",1730468087839,0,"01/11/2024 13:34:47",193496,6,"task-nkoa",NA,41048297,11986103,NA,"complete",NA,"6724d1189a4ebf6cba59225c","computer","Desktop or Laptop","Mac OS 10.15.7","Chrome 130.0.0.0","1440x900","1440x778",NA,NA,0,"Gambling_GBO",15,"In","GHFIEJDKCAB",NA,"In","MH_OCT","seq5","Gamble_Rand_Seq5","Gamble_Rand_Seq5",27,"Rating","Screen 1","hx8b5a",1,"continue","",2250.89999999703,2249.80000000002,2250.89999999703,2250.89999999703,2249.80000000002,2250.89999999703,1,2250.89999999703,0,0,NA,"Click To Continue","Continue Button",3,"object-25","Rating","happy","not happy","happy",9,"",NA,NA,NA,NA,NA,"Right",NA,-11.67,NA,NA,NA,NA,-3,"MDPRF14083"
"123",1730468087845,"01/11/2024 13:34:47",1730468087845,0,"01/11/2024 13:34:47",193496,6,"task-nkoa",NA,41048297,11986103,NA,"complete",NA,"6724d1189a4ebf6cba59225c","computer","Desktop or Laptop","Mac OS 10.15.7","Chrome 130.0.0.0","1440x900","1440x778",NA,NA,0,"Gambling_GBO",15,"In","GHFIEJDKCAB",NA,"In","MH_OCT","seq5","Gamble_Rand_Seq5","Gamble_Rand_Seq5",27,"Rating","Screen 1","hx8b5a",1,"response","62",1060,2249.80000000002,2257.29999999554,1060,2249.80000000002,2257.29999999554,1,1060,1197.29999999554,0,NA,"Slider","MoodSlider",2,"object-243","Rating","happy","not happy","happy",9,"",NA,NA,NA,NA,NA,"Right",NA,-11.67,NA,NA,NA,NA,-3,"MDPRF14083"
"124",1730468089817,"01/11/2024 13:34:49",1730468089817,0,"01/11/2024 13:34:49",193496,6,"task-nkoa",NA,41048297,11986103,NA,"complete",NA,"6724d1189a4ebf6cba59225c","computer","Desktop or Laptop","Mac OS 10.15.7","Chrome 130.0.0.0","1440x900","1440x778",NA,NA,0,"Gambling_GBO",15,"In","GHFIEJDKCAB",NA,"In","MH_OCT","seq5","Gamble_Rand_Seq5","Gamble_Rand_Seq5",1,"winB","Screen 1","pkkyi8",1,"continue","",1978.69999999998,1978.69999999998,1978.69999999998,1978.69999999998,1978.69999999998,1978.69999999998,1,1978.69999999998,0,0,NA,"Fixation Timing","Fixation",1,"object-246","winB","","","",NA,"Right",3.67,3,5,9,NA,"Right",NA,-11.67,NA,NA,NA,NA,-3,"MDPRF14083"
"125",1730468092688,"01/11/2024 13:34:52",1730468092688,0,"01/11/2024 13:34:52",193496,6,"task-nkoa",NA,41048297,11986103,NA,"complete",NA,"6724d1189a4ebf6cba59225c","computer","Desktop or Laptop","Mac OS 10.15.7","Chrome 130.0.0.0","1440x900","1440x778",NA,NA,0,"Gambling_GBO",15,"In","GHFIEJDKCAB",NA,"In","MH_OCT","seq5","Gamble_Rand_Seq5","Gamble_Rand_Seq5",1,"winB","choice","5lszbx",2,"response","Right",2870.49999999852,2862.60000000001,2870.49999999852,2870.49999999852,2862.60000000001,2870.49999999852,1,2870.49999999852,0,0,NA,"Keyboard Response","KeyResponseG",6,"object-256","winB","","","",NA,"Right",3.67,3,5,9,NA,"Right",NA,-6.67,NA,NA,NA,NA,5,"MDPRF14083"
"126",1730468096678,"01/11/2024 13:34:56",1730468096678,0,"01/11/2024 13:34:56",193496,6,"task-nkoa",NA,41048297,11986103,NA,"complete",NA,"6724d1189a4ebf6cba59225c","computer","Desktop or Laptop","Mac OS 10.15.7","Chrome 130.0.0.0","1440x900","1440x778",NA,NA,0,"Gambling_GBO",15,"In","GHFIEJDKCAB",NA,"In","MH_OCT","seq5","Gamble_Rand_Seq5","Gamble_Rand_Seq5",1,"winB","gamble","17lgr3",3,"timedOut","",3998.5,3998.29999999999,3998.5,3998.5,3998.29999999999,3998.5,1,3998.5,0,0,NA,"Time Limit","screen",0,"screen","winB","","","",NA,"Right",3.67,3,5,9,NA,"Right",NA,-6.67,NA,NA,NA,NA,5,"MDPRF14083"
"127",1730468097684,"01/11/2024 13:34:57",1730468097684,0,"01/11/2024 13:34:57",193496,6,"task-nkoa",NA,41048297,11986103,NA,"complete",NA,"6724d1189a4ebf6cba59225c","computer","Desktop or Laptop","Mac OS 10.15.7","Chrome 130.0.0.0","1440x900","1440x778",NA,NA,0,"Gambling_GBO",15,"In","GHFIEJDKCAB",NA,"In","MH_OCT","seq5","Gamble_Rand_Seq5","Gamble_Rand_Seq5",1,"winB","win","dzz5jr",4,"timedOut","",1006.59999999852,1005.10000000001,1006.59999999852,1006.59999999852,1005.10000000001,1006.59999999852,1,1006.59999999852,0,0,NA,"Time Limit","screen",0,"screen","winB","","","",NA,"Right",3.67,3,5,9,NA,"Right",NA,-6.67,NA,NA,NA,NA,5,"MDPRF14083"
"128",1730468097694,"01/11/2024 13:34:57",1730468097694,0,"01/11/2024 13:34:57",193496,6,"task-nkoa",NA,41048297,11986103,NA,"complete",NA,"6724d1189a4ebf6cba59225c","computer","Desktop or Laptop","Mac OS 10.15.7","Chrome 130.0.0.0","1440x900","1440x778",NA,NA,0,"Gambling_GBO",15,"In","GHFIEJDKCAB",NA,"In","MH_OCT","seq5","Gamble_Rand_Seq5","Gamble_Rand_Seq5",28,"Rating","Screen 1","hx8b5a",1,"info","",11.3999999970256,0,11.3999999970256,11.3999999970256,0,11.3999999970256,1,11.3999999970256,0,0,NA,"Slider","MoodSlider",2,"object-243","Rating","happy","not happy","happy",10,"",NA,NA,NA,NA,NA,"Right",NA,-6.67,NA,NA,NA,NA,5,"MDPRF14083"
"129",1730468101285,"01/11/2024 13:35:01",1730468101285,0,"01/11/2024 13:35:01",193496,6,"task-nkoa",NA,41048297,11986103,NA,"complete",NA,"6724d1189a4ebf6cba59225c","computer","Desktop or Laptop","Mac OS 10.15.7","Chrome 130.0.0.0","1440x900","1440x778",NA,NA,0,"Gambling_GBO",15,"In","GHFIEJDKCAB",NA,"In","MH_OCT","seq5","Gamble_Rand_Seq5","Gamble_Rand_Seq5",28,"Rating","Screen 1","hx8b5a",1,"continue","",3601.49999999852,3598.80000000002,3601.49999999852,3601.49999999852,3598.80000000002,3601.49999999852,1,3601.49999999852,0,0,NA,"Click To Continue","Continue Button",3,"object-25","Rating","happy","not happy","happy",10,"",NA,NA,NA,NA,NA,"Right",NA,-6.67,NA,NA,NA,NA,5,"MDPRF14083"
"130",1730468101290,"01/11/2024 13:35:01",1730468101290,0,"01/11/2024 13:35:01",193496,6,"task-nkoa",NA,41048297,11986103,NA,"complete",NA,"6724d1189a4ebf6cba59225c","computer","Desktop or Laptop","Mac OS 10.15.7","Chrome 130.0.0.0","1440x900","1440x778",NA,NA,0,"Gambling_GBO",15,"In","GHFIEJDKCAB",NA,"In","MH_OCT","seq5","Gamble_Rand_Seq5","Gamble_Rand_Seq5",28,"Rating","Screen 1","hx8b5a",1,"response","81",1554.89999999999,3598.80000000002,3606.39999999703,1554.89999999999,3598.80000000002,3606.39999999703,1,1554.89999999999,2051.49999999703,0,NA,"Slider","MoodSlider",2,"object-243","Rating","happy","not happy","happy",10,"",NA,NA,NA,NA,NA,"Right",NA,-6.67,NA,NA,NA,NA,5,"MDPRF14083"
"131",1730468101301,"01/11/2024 13:35:01",1730468101301,0,"01/11/2024 13:35:01",193496,6,"task-nkoa",NA,41048297,11986103,NA,"complete",NA,"6724d1189a4ebf6cba59225c","computer","Desktop or Laptop","Mac OS 10.15.7","Chrome 130.0.0.0","1440x900","1440x778",NA,NA,0,"Gambling_GBO",15,"In","GHFIEJDKCAB",NA,"In","MH_OCT","seq5","Gamble_Rand_Seq5","Gamble_Rand_Seq5",29,"Rating","Screen 1","hx8b5a",1,"info","",16.7000000000116,0,16.7000000000116,16.7000000000116,0,16.7000000000116,1,16.7000000000116,0,0,NA,"Slider","MoodSlider",2,"object-243","Rating","frustrated","not frustrated","frustrated",10,"",NA,NA,NA,NA,NA,"Right",NA,-6.67,NA,NA,NA,NA,5,"MDPRF14083"
"132",1730468106151,"01/11/2024 13:35:06",1730468106151,0,"01/11/2024 13:35:06",193496,6,"task-nkoa",NA,41048297,11986103,NA,"complete",NA,"6724d1189a4ebf6cba59225c","computer","Desktop or Laptop","Mac OS 10.15.7","Chrome 130.0.0.0","1440x900","1440x778",NA,NA,0,"Gambling_GBO",15,"In","GHFIEJDKCAB",NA,"In","MH_OCT","seq5","Gamble_Rand_Seq5","Gamble_Rand_Seq5",29,"Rating","Screen 1","hx8b5a",1,"continue","",4868.99999999552,4864.79999999999,4868.99999999552,4868.99999999552,4864.79999999999,4868.99999999552,1,4868.99999999552,0,0,NA,"Click To Continue","Continue Button",3,"object-25","Rating","frustrated","not frustrated","frustrated",10,"",NA,NA,NA,NA,NA,"Right",NA,-6.67,NA,NA,NA,NA,5,"MDPRF14083"
"133",1730468106152,"01/11/2024 13:35:06",1730468106152,0,"01/11/2024 13:35:06",193496,6,"task-nkoa",NA,41048297,11986103,NA,"complete",NA,"6724d1189a4ebf6cba59225c","computer","Desktop or Laptop","Mac OS 10.15.7","Chrome 130.0.0.0","1440x900","1440x778",NA,NA,0,"Gambling_GBO",15,"In","GHFIEJDKCAB",NA,"In","MH_OCT","seq5","Gamble_Rand_Seq5","Gamble_Rand_Seq5",29,"Rating","Screen 1","hx8b5a",1,"response","0",2871,4864.79999999999,4869.59999999701,2871,4864.79999999999,4869.59999999701,1,2871,1998.59999999701,0,NA,"Slider","MoodSlider",2,"object-243","Rating","frustrated","not frustrated","frustrated",10,"",NA,NA,NA,NA,NA,"Right",NA,-6.67,NA,NA,NA,NA,5,"MDPRF14083"
"134",1730468106160,"01/11/2024 13:35:06",1730468106160,0,"01/11/2024 13:35:06",193496,6,"task-nkoa",NA,41048297,11986103,NA,"complete",NA,"6724d1189a4ebf6cba59225c","computer","Desktop or Laptop","Mac OS 10.15.7","Chrome 130.0.0.0","1440x900","1440x778",NA,NA,0,"Gambling_GBO",15,"In","GHFIEJDKCAB",NA,"In","MH_OCT","seq5","Gamble_Rand_Seq5","Gamble_Rand_Seq5",30,"Rating","Screen 1","hx8b5a",1,"info","",12.8999999985099,0,12.8999999985099,12.8999999985099,0,12.8999999985099,1,12.8999999985099,0,0,NA,"Slider","MoodSlider",2,"object-243","Rating","bored","not bored","bored",10,"",NA,NA,NA,NA,NA,"Right",NA,-6.67,NA,NA,NA,NA,5,"MDPRF14083"
"135",1730468109044,"01/11/2024 13:35:09",1730468109044,0,"01/11/2024 13:35:09",193496,6,"task-nkoa",NA,41048297,11986103,NA,"complete",NA,"6724d1189a4ebf6cba59225c","computer","Desktop or Laptop","Mac OS 10.15.7","Chrome 130.0.0.0","1440x900","1440x778",NA,NA,0,"Gambling_GBO",15,"In","GHFIEJDKCAB",NA,"In","MH_OCT","seq5","Gamble_Rand_Seq5","Gamble_Rand_Seq5",30,"Rating","Screen 1","hx8b5a",1,"continue","",2896.69999999553,2880.5,2896.69999999553,2896.69999999553,2880.5,2896.69999999553,1,2896.69999999553,0,0,NA,"Click To Continue","Continue Button",3,"object-25","Rating","bored","not bored","bored",10,"",NA,NA,NA,NA,NA,"Right",NA,-6.67,NA,NA,NA,NA,5,"MDPRF14083"
"136",1730468109044,"01/11/2024 13:35:09",1730468109044,0,"01/11/2024 13:35:09",193496,6,"task-nkoa",NA,41048297,11986103,NA,"complete",NA,"6724d1189a4ebf6cba59225c","computer","Desktop or Laptop","Mac OS 10.15.7","Chrome 130.0.0.0","1440x900","1440x778",NA,NA,0,"Gambling_GBO",15,"In","GHFIEJDKCAB",NA,"In","MH_OCT","seq5","Gamble_Rand_Seq5","Gamble_Rand_Seq5",30,"Rating","Screen 1","hx8b5a",1,"response","25",1935.79999999999,2880.5,2897.10000000001,1935.79999999999,2880.5,2897.10000000001,1,1935.79999999999,961.300000000018,0,NA,"Slider","MoodSlider",2,"object-243","Rating","bored","not bored","bored",10,"",NA,NA,NA,NA,NA,"Right",NA,-6.67,NA,NA,NA,NA,5,"MDPRF14083"
"137",1730468111005,"01/11/2024 13:35:11",1730468111005,0,"01/11/2024 13:35:11",193496,6,"task-nkoa",NA,41048297,11986103,NA,"complete",NA,"6724d1189a4ebf6cba59225c","computer","Desktop or Laptop","Mac OS 10.15.7","Chrome 130.0.0.0","1440x900","1440x778",NA,NA,0,"Gambling_GBO",15,"In","GHFIEJDKCAB",NA,"In","MH_OCT","seq5","Gamble_Rand_Seq5","Gamble_Rand_Seq5",4,"lossT","Screen 1","2oxi65",1,"continue","",1977.39999999999,1977.39999999999,1977.39999999999,1977.39999999999,1977.39999999999,1977.39999999999,1,1977.39999999999,0,0,NA,"Fixation Timing","Fixation",1,"object-354","lossT","","","",NA,"Right",-2,-3,0,10,NA,"Right",NA,-6.67,NA,NA,NA,NA,5,"MDPRF14083"
"138",1730468113662,"01/11/2024 13:35:13",1730468113662,0,"01/11/2024 13:35:13",193496,6,"task-nkoa",NA,41048297,11986103,NA,"complete",NA,"6724d1189a4ebf6cba59225c","computer","Desktop or Laptop","Mac OS 10.15.7","Chrome 130.0.0.0","1440x900","1440x778",NA,NA,0,"Gambling_GBO",15,"In","GHFIEJDKCAB",NA,"In","MH_OCT","seq5","Gamble_Rand_Seq5","Gamble_Rand_Seq5",4,"lossT","choice","zjftf8",2,"response","Right",2656.79999999554,2645.20000000001,2656.79999999554,2656.79999999554,2645.20000000001,2656.79999999554,1,2656.79999999554,0,0,NA,"Keyboard Response","KeyResponseG",6,"object-352","lossT","","","",NA,"Right",-2,-3,0,10,NA,"Right",NA,-9.67,NA,NA,NA,NA,-3,"MDPRF14083"
"139",1730468117648,"01/11/2024 13:35:17",1730468117648,0,"01/11/2024 13:35:17",193496,6,"task-nkoa",NA,41048297,11986103,NA,"complete",NA,"6724d1189a4ebf6cba59225c","computer","Desktop or Laptop","Mac OS 10.15.7","Chrome 130.0.0.0","1440x900","1440x778",NA,NA,0,"Gambling_GBO",15,"In","GHFIEJDKCAB",NA,"In","MH_OCT","seq5","Gamble_Rand_Seq5","Gamble_Rand_Seq5",4,"lossT","gamble","h5bf9r",3,"timedOut","",3998.00000000148,3996.60000000001,3998.00000000148,3998.00000000148,3996.60000000001,3998.00000000148,1,3998.00000000148,0,0,NA,"Time Limit","screen",0,"screen","lossT","","","",NA,"Right",-2,-3,0,10,NA,"Right",NA,-9.67,NA,NA,NA,NA,-3,"MDPRF14083"
"140",1730468118654,"01/11/2024 13:35:18",1730468118654,0,"01/11/2024 13:35:18",193496,6,"task-nkoa",NA,41048297,11986103,NA,"complete",NA,"6724d1189a4ebf6cba59225c","computer","Desktop or Laptop","Mac OS 10.15.7","Chrome 130.0.0.0","1440x900","1440x778",NA,NA,0,"Gambling_GBO",15,"In","GHFIEJDKCAB",NA,"In","MH_OCT","seq5","Gamble_Rand_Seq5","Gamble_Rand_Seq5",4,"lossT","loss","kmnw8b",4,"timedOut","",1007.1999999985,1006.89999999999,1007.1999999985,1007.1999999985,1006.89999999999,1007.1999999985,1,1007.1999999985,0,0,NA,"Time Limit","screen",0,"screen","lossT","","","",NA,"Right",-2,-3,0,10,NA,"Right",NA,-9.67,NA,NA,NA,NA,-3,"MDPRF14083"
"141",1730468118664,"01/11/2024 13:35:18",1730468118664,0,"01/11/2024 13:35:18",193496,6,"task-nkoa",NA,41048297,11986103,NA,"complete",NA,"6724d1189a4ebf6cba59225c","computer","Desktop or Laptop","Mac OS 10.15.7","Chrome 130.0.0.0","1440x900","1440x778",NA,NA,0,"Gambling_GBO",15,"In","GHFIEJDKCAB",NA,"In","MH_OCT","seq5","Gamble_Rand_Seq5","Gamble_Rand_Seq5",31,"Rating","Screen 1","hx8b5a",1,"info","",10.3999999999942,0,10.3999999999942,10.3999999999942,0,10.3999999999942,1,10.3999999999942,0,0,NA,"Slider","MoodSlider",2,"object-243","Rating","happy","not happy","happy",11,"",NA,NA,NA,NA,NA,"Right",NA,-9.67,NA,NA,NA,NA,-3,"MDPRF14083"
"142",1730468120805,"01/11/2024 13:35:20",1730468120805,0,"01/11/2024 13:35:20",193496,6,"task-nkoa",NA,41048297,11986103,NA,"complete",NA,"6724d1189a4ebf6cba59225c","computer","Desktop or Laptop","Mac OS 10.15.7","Chrome 130.0.0.0","1440x900","1440x778",NA,NA,0,"Gambling_GBO",15,"In","GHFIEJDKCAB",NA,"In","MH_OCT","seq5","Gamble_Rand_Seq5","Gamble_Rand_Seq5",31,"Rating","Screen 1","hx8b5a",1,"continue","",2151.09999999552,2146.10000000001,2151.09999999552,2151.09999999552,2146.10000000001,2151.09999999552,1,2151.09999999552,0,0,NA,"Click To Continue","Continue Button",3,"object-25","Rating","happy","not happy","happy",11,"",NA,NA,NA,NA,NA,"Right",NA,-9.67,NA,NA,NA,NA,-3,"MDPRF14083"
"143",1730468120806,"01/11/2024 13:35:20",1730468120806,0,"01/11/2024 13:35:20",193496,6,"task-nkoa",NA,41048297,11986103,NA,"complete",NA,"6724d1189a4ebf6cba59225c","computer","Desktop or Laptop","Mac OS 10.15.7","Chrome 130.0.0.0","1440x900","1440x778",NA,NA,0,"Gambling_GBO",15,"In","GHFIEJDKCAB",NA,"In","MH_OCT","seq5","Gamble_Rand_Seq5","Gamble_Rand_Seq5",31,"Rating","Screen 1","hx8b5a",1,"response","58",1411.79999999999,2146.10000000001,2151.69999999701,1411.79999999999,2146.10000000001,2151.69999999701,1,1411.79999999999,739.899999997026,0,NA,"Slider","MoodSlider",2,"object-243","Rating","happy","not happy","happy",11,"",NA,NA,NA,NA,NA,"Right",NA,-9.67,NA,NA,NA,NA,-3,"MDPRF14083"
"144",1730468120817,"01/11/2024 13:35:20",1730468120817,0,"01/11/2024 13:35:20",193496,6,"task-nkoa",NA,41048297,11986103,NA,"complete",NA,"6724d1189a4ebf6cba59225c","computer","Desktop or Laptop","Mac OS 10.15.7","Chrome 130.0.0.0","1440x900","1440x778",NA,NA,0,"Gambling_GBO",15,"In","GHFIEJDKCAB",NA,"In","MH_OCT","seq5","Gamble_Rand_Seq5","Gamble_Rand_Seq5",32,"Rating","Screen 1","hx8b5a",1,"info","",16.6000000000058,0,16.6000000000058,16.6000000000058,0,16.6000000000058,1,16.6000000000058,0,0,NA,"Slider","MoodSlider",2,"object-243","Rating","bored","not bored","bored",11,"",NA,NA,NA,NA,NA,"Right",NA,-9.67,NA,NA,NA,NA,-3,"MDPRF14083"
"145",1730468124279,"01/11/2024 13:35:24",1730468124279,0,"01/11/2024 13:35:24",193496,6,"task-nkoa",NA,41048297,11986103,NA,"complete",NA,"6724d1189a4ebf6cba59225c","computer","Desktop or Laptop","Mac OS 10.15.7","Chrome 130.0.0.0","1440x900","1440x778",NA,NA,0,"Gambling_GBO",15,"In","GHFIEJDKCAB",NA,"In","MH_OCT","seq5","Gamble_Rand_Seq5","Gamble_Rand_Seq5",32,"Rating","Screen 1","hx8b5a",1,"continue","",3478.59999999701,3476.29999999999,3478.59999999701,3478.59999999701,3476.29999999999,3478.59999999701,1,3478.59999999701,0,0,NA,"Click To Continue","Continue Button",3,"object-25","Rating","bored","not bored","bored",11,"",NA,NA,NA,NA,NA,"Right",NA,-9.67,NA,NA,NA,NA,-3,"MDPRF14083"
"146",1730468124284,"01/11/2024 13:35:24",1730468124284,0,"01/11/2024 13:35:24",193496,6,"task-nkoa",NA,41048297,11986103,NA,"complete",NA,"6724d1189a4ebf6cba59225c","computer","Desktop or Laptop","Mac OS 10.15.7","Chrome 130.0.0.0","1440x900","1440x778",NA,NA,0,"Gambling_GBO",15,"In","GHFIEJDKCAB",NA,"In","MH_OCT","seq5","Gamble_Rand_Seq5","Gamble_Rand_Seq5",32,"Rating","Screen 1","hx8b5a",1,"response","35",1230.5,3476.29999999999,3483.6999999985,1230.5,3476.29999999999,3483.6999999985,1,1230.5,2253.1999999985,0,NA,"Slider","MoodSlider",2,"object-243","Rating","bored","not bored","bored",11,"",NA,NA,NA,NA,NA,"Right",NA,-9.67,NA,NA,NA,NA,-3,"MDPRF14083"
"147",1730468124294,"01/11/2024 13:35:24",1730468124294,0,"01/11/2024 13:35:24",193496,6,"task-nkoa",NA,41048297,11986103,NA,"complete",NA,"6724d1189a4ebf6cba59225c","computer","Desktop or Laptop","Mac OS 10.15.7","Chrome 130.0.0.0","1440x900","1440x778",NA,NA,0,"Gambling_GBO",15,"In","GHFIEJDKCAB",NA,"In","MH_OCT","seq5","Gamble_Rand_Seq5","Gamble_Rand_Seq5",33,"Rating","Screen 1","hx8b5a",1,"info","",16.2000000000116,0,16.2000000000116,16.2000000000116,0,16.2000000000116,1,16.2000000000116,0,0,NA,"Slider","MoodSlider",2,"object-243","Rating","frustrated","not frustrated","frustrated",11,"",NA,NA,NA,NA,NA,"Right",NA,-9.67,NA,NA,NA,NA,-3,"MDPRF14083"
"148",1730468126799,"01/11/2024 13:35:26",1730468126799,0,"01/11/2024 13:35:26",193496,6,"task-nkoa",NA,41048297,11986103,NA,"complete",NA,"6724d1189a4ebf6cba59225c","computer","Desktop or Laptop","Mac OS 10.15.7","Chrome 130.0.0.0","1440x900","1440x778",NA,NA,0,"Gambling_GBO",15,"In","GHFIEJDKCAB",NA,"In","MH_OCT","seq5","Gamble_Rand_Seq5","Gamble_Rand_Seq5",33,"Rating","Screen 1","hx8b5a",1,"continue","",2522.60000000149,2507.39999999999,2522.60000000149,2522.60000000149,2507.39999999999,2522.60000000149,1,2522.60000000149,0,0,NA,"Click To Continue","Continue Button",3,"object-25","Rating","frustrated","not frustrated","frustrated",11,"",NA,NA,NA,NA,NA,"Right",NA,-9.67,NA,NA,NA,NA,-3,"MDPRF14083"
"149",1730468126800,"01/11/2024 13:35:26",1730468126800,0,"01/11/2024 13:35:26",193496,6,"task-nkoa",NA,41048297,11986103,NA,"complete",NA,"6724d1189a4ebf6cba59225c","computer","Desktop or Laptop","Mac OS 10.15.7","Chrome 130.0.0.0","1440x900","1440x778",NA,NA,0,"Gambling_GBO",15,"In","GHFIEJDKCAB",NA,"In","MH_OCT","seq5","Gamble_Rand_Seq5","Gamble_Rand_Seq5",33,"Rating","Screen 1","hx8b5a",1,"response","13",1763.5,2507.39999999999,2523.39999999851,1763.5,2507.39999999999,2523.39999999851,1,1763.5,759.89999999851,0,NA,"Slider","MoodSlider",2,"object-243","Rating","frustrated","not frustrated","frustrated",11,"",NA,NA,NA,NA,NA,"Right",NA,-9.67,NA,NA,NA,NA,-3,"MDPRF14083"
"150",1730468128752,"01/11/2024 13:35:28",1730468128752,0,"01/11/2024 13:35:28",193496,6,"task-nkoa",NA,41048297,11986103,NA,"complete",NA,"6724d1189a4ebf6cba59225c","computer","Desktop or Laptop","Mac OS 10.15.7","Chrome 130.0.0.0","1440x900","1440x778",NA,NA,0,"Gambling_GBO",15,"In","GHFIEJDKCAB",NA,"In","MH_OCT","seq5","Gamble_Rand_Seq5","Gamble_Rand_Seq5",3,"winT","Screen 1","np5pnj",1,"continue","",1968.20000000001,1968.20000000001,1968.20000000001,1968.20000000001,1968.20000000001,1968.20000000001,1,1968.20000000001,0,0,NA,"Fixation Timing","Fixation",1,"object-304","winT","","","",NA,"Right",-2.33,-3,-1,11,NA,"Right",NA,-9.67,NA,NA,NA,NA,-3,"MDPRF14083"
"151",1730468130636,"01/11/2024 13:35:30",1730468130636,0,"01/11/2024 13:35:30",193496,6,"task-nkoa",NA,41048297,11986103,NA,"complete",NA,"6724d1189a4ebf6cba59225c","computer","Desktop or Laptop","Mac OS 10.15.7","Chrome 130.0.0.0","1440x900","1440x778",NA,NA,0,"Gambling_GBO",15,"In","GHFIEJDKCAB",NA,"In","MH_OCT","seq5","Gamble_Rand_Seq5","Gamble_Rand_Seq5",3,"winT","choice","gu8zgx",2,"response","Right",1883.2999999985,1878.5,1883.2999999985,1883.2999999985,1878.5,1883.2999999985,1,1883.2999999985,0,0,NA,"Keyboard Response","KeyResponseG",6,"object-326","winT","","","",NA,"Right",-2.33,-3,-1,11,NA,"Right",NA,-10.67,NA,NA,NA,NA,-1,"MDPRF14083"
