"Event.Index","UTC.Timestamp","UTC.Date.and.Time","Local.Timestamp","Local.Timezone","Local.Date.and.Time","Experiment.ID","Experiment.Version","Tree.Node.Key","Repeat.Key","Schedule.ID","Participant.Private.ID","Participant.Starting.Group","Participant.Status","Participant.Completion.Code","Participant.External.Session.ID","Participant.Device.Type","Participant.Device","Participant.OS","Participant.Browser","Participant.Monitor.Size","Participant.Viewport.Size","Checkpoint","Room.ID","Room.Order","Task.Name","Task.Version","branch.hkzp","order.ot79","branch.mcuq","branch.4fv7","randomiser.k5rb","randomiser.rz7w","Spreadsheet","Current.Spreadsheet","Trial.Number","Display","Screen","Screen.ID","Screen.Counter","Response.Type","Response","Onset.Time","Clock.Time","Reaction.Time","Absolute.Onset.Time","Absolute.Clock.Time","Absolute.Reaction.Time","Correct","Response.Onset","Response.Duration","Proportion","Tag","Component.Name","Object.Name","Object.Number","Object.ID","Spreadsheet..display","Spreadsheet..Emo","Spreadsheet..LHS_Lab","Spreadsheet..RHS_Lab","Spreadsheet..rand_M","Spreadsheet..Answer","Spreadsheet..C_points","Spreadsheet..L_points","Spreadsheet..W_points","Spreadsheet..rand_G","Manipulation..Spreadsheet","Store..Choice","Store..total","Store..total_score","Store..pounds","Store..total_money","Store..partA","Store..MoneyReward","Store..pointsPR","Random_ID"
"1",1730467536392,"01/11/2024 13:25:36",1730467536392,0,"01/11/2024 13:25:36",193496,6,"task-7wst",NA,41048155,11986060,NA,"complete",NA,"6724cde33934138679257f61","computer","Desktop or Laptop","Windows 10","Chrome 130.0.0.0","1494x934","1494x882",NA,NA,0,"Gambling_GBO",15,"In","DECFBGAHKIJ",NA,"In","HM_OCT","seq1","Gamble_Rand_Seq1","Gamble_Rand_Seq1",NA,"","","",NA,"info","START SUBSYSTEM base.component.fullscreenSubsystem",NA,NA,NA,NA,NA,NA,0,NA,NA,NA,NA,"","",NA,"","","","","",NA,"",NA,NA,NA,NA,NA,"",NA,NA,NA,NA,NA,NA,NA,"MDPRF38095"
"2",1730467536408,"01/11/2024 13:25:36",1730467536408,0,"01/11/2024 13:25:36",193496,6,"task-7wst",NA,41048155,11986060,NA,"complete",NA,"6724cde33934138679257f61","computer","Desktop or Laptop","Windows 10","Chrome 130.0.0.0","1494x934","1494x882",NA,NA,0,"Gambling_GBO",15,"In","DECFBGAHKIJ",NA,"In","HM_OCT","seq1","Gamble_Rand_Seq1","Gamble_Rand_Seq1",NA,"","","",NA,"info","SUBSYSTEM READY base.component.fullscreenSubsystem",NA,NA,NA,NA,NA,NA,0,NA,NA,NA,NA,"","",NA,"","","","","",NA,"",NA,NA,NA,NA,NA,"",NA,NA,NA,NA,NA,NA,NA,"MDPRF38095"
"3",1730467536454,"01/11/2024 13:25:36",1730467536454,0,"01/11/2024 13:25:36",193496,6,"task-7wst",NA,41048155,11986060,NA,"complete",NA,"6724cde33934138679257f61","computer","Desktop or Laptop","Windows 10","Chrome 130.0.0.0","1494x934","1494x882",NA,NA,0,"Gambling_GBO",15,"In","DECFBGAHKIJ",NA,"In","HM_OCT","seq1","Gamble_Rand_Seq1","Gamble_Rand_Seq1",NA,"","","",NA,"info","BEGIN",NA,NA,NA,NA,NA,NA,0,NA,NA,NA,NA,"","",NA,"","","","","",NA,"",NA,NA,NA,NA,NA,"",NA,NA,NA,NA,NA,NA,NA,"MDPRF38095"
"4",1730467539038,"01/11/2024 13:25:39",1730467539038,0,"01/11/2024 13:25:39",193496,6,"task-7wst",NA,41048155,11986060,NA,"complete",NA,"6724cde33934138679257f61","computer","Desktop or Laptop","Windows 10","Chrome 130.0.0.0","1494x934","1494x882",NA,NA,0,"Gambling_GBO",15,"In","DECFBGAHKIJ",NA,"In","HM_OCT","seq1","Gamble_Rand_Seq1","Gamble_Rand_Seq1",1,"Intro","Screen 1","u1aumm",1,"continue","",4402.29999999702,4385.4,4402.29999999702,4402.29999999702,4385.4,4402.29999999702,1,4402.29999999702,0,0,NA,"Click To Continue","Continue Button",2,"object-37171","Intro","","","",NA,"",NA,NA,NA,NA,NA,"",NA,NA,NA,NA,NA,NA,NA,"MDPRF38095"
"5",1730467546341,"01/11/2024 13:25:46",1730467546341,0,"01/11/2024 13:25:46",193496,6,"task-7wst",NA,41048155,11986060,NA,"complete",NA,"6724cde33934138679257f61","computer","Desktop or Laptop","Windows 10","Chrome 130.0.0.0","1494x934","1494x882",NA,NA,0,"Gambling_GBO",15,"In","DECFBGAHKIJ",NA,"In","HM_OCT","seq1","Gamble_Rand_Seq1","Gamble_Rand_Seq1",1,"Instructions","Screen 1","rfymdc",1,"continue","",7320.6,7315.2,7320.6,7320.6,7315.2,7320.6,1,7320.6,0,0,NA,"Click To Continue","Continue Button",2,"object-3","Instructions","","","",NA,"",NA,NA,NA,NA,NA,"",NA,NA,NA,NA,NA,NA,NA,"MDPRF38095"
"6",1730467551638,"01/11/2024 13:25:51",1730467551638,0,"01/11/2024 13:25:51",193496,6,"task-7wst",NA,41048155,11986060,NA,"complete",NA,"6724cde33934138679257f61","computer","Desktop or Laptop","Windows 10","Chrome 130.0.0.0","1494x934","1494x882",NA,NA,0,"Gambling_GBO",15,"In","DECFBGAHKIJ",NA,"In","HM_OCT","seq1","Gamble_Rand_Seq1","Gamble_Rand_Seq1",1,"Instructions","Screen 2","x2kpu8",2,"continue","",5301,5283.9,5301,5301,5283.9,5301,1,5301,0,0,NA,"Click To Continue","Continue Button",2,"object-22021","Instructions","","","",NA,"",NA,NA,NA,NA,NA,"",NA,NA,NA,NA,NA,NA,NA,"MDPRF38095"
"7",1730467553725,"01/11/2024 13:25:53",1730467553725,0,"01/11/2024 13:25:53",193496,6,"task-7wst",NA,41048155,11986060,NA,"complete",NA,"6724cde33934138679257f61","computer","Desktop or Laptop","Windows 10","Chrome 130.0.0.0","1494x934","1494x882",NA,NA,0,"Gambling_GBO",15,"In","DECFBGAHKIJ",NA,"In","HM_OCT","seq1","Gamble_Rand_Seq1","Gamble_Rand_Seq1",1,"Instructions","Screen 3","o6zm7t",3,"continue","",2099.8,2083.7,2099.8,2099.8,2083.7,2099.8,1,2099.8,0,0,NA,"Click To Continue","Continue Button",2,"object-225","Instructions","","","",NA,"",NA,NA,NA,NA,NA,"",NA,NA,NA,NA,NA,NA,NA,"MDPRF38095"
"8",1730467555334,"01/11/2024 13:25:55",1730467555334,0,"01/11/2024 13:25:55",193496,6,"task-7wst",NA,41048155,11986060,NA,"complete",NA,"6724cde33934138679257f61","computer","Desktop or Laptop","Windows 10","Chrome 130.0.0.0","1494x934","1494x882",NA,NA,0,"Gambling_GBO",15,"In","DECFBGAHKIJ",NA,"In","HM_OCT","seq1","Gamble_Rand_Seq1","Gamble_Rand_Seq1",1,"Instructions","Screen 4","3hq7c2",4,"continue","",1630.09999999702,1615.9,1630.09999999702,1630.09999999702,1615.9,1630.09999999702,1,1630.09999999702,0,0,NA,"Click To Continue","Continue Button",4,"object-380","Instructions","","","",NA,"",NA,NA,NA,NA,NA,"",NA,NA,NA,NA,NA,NA,NA,"MDPRF38095"
"9",1730467564176,"01/11/2024 13:26:04",1730467564176,0,"01/11/2024 13:26:04",193496,6,"task-7wst",NA,41048155,11986060,NA,"complete",NA,"6724cde33934138679257f61","computer","Desktop or Laptop","Windows 10","Chrome 130.0.0.0","1494x934","1494x882",NA,NA,0,"Gambling_GBO",15,"In","DECFBGAHKIJ",NA,"In","HM_OCT","seq1","Gamble_Rand_Seq1","Gamble_Rand_Seq1",1,"Instructions","Screen 5","5jisqh",5,"continue","",8800.6,8784.1,8800.6,8800.6,8784.1,8800.6,1,8800.6,0,0,NA,"Click To Continue","Continue Button",2,"object-233","Instructions","","","",NA,"",NA,NA,NA,NA,NA,"",NA,NA,NA,NA,NA,NA,NA,"MDPRF38095"
"10",1730467565825,"01/11/2024 13:26:05",1730467565825,0,"01/11/2024 13:26:05",193496,6,"task-7wst",NA,41048155,11986060,NA,"complete",NA,"6724cde33934138679257f61","computer","Desktop or Laptop","Windows 10","Chrome 130.0.0.0","1494x934","1494x882",NA,NA,0,"Gambling_GBO",15,"In","DECFBGAHKIJ",NA,"In","HM_OCT","seq1","Gamble_Rand_Seq1","Gamble_Rand_Seq1",1,"Instructions","Screen 6","13xe5l",6,"continue","",1718.2,1700.4,1718.2,1718.2,1700.4,1718.2,1,1718.2,0,0,NA,"Click To Continue","Continue Button",2,"object-237","Instructions","","","",NA,"",NA,NA,NA,NA,NA,"",NA,NA,NA,NA,NA,NA,NA,"MDPRF38095"
"11",1730467571662,"01/11/2024 13:26:11",1730467571662,0,"01/11/2024 13:26:11",193496,6,"task-7wst",NA,41048155,11986060,NA,"complete",NA,"6724cde33934138679257f61","computer","Desktop or Laptop","Windows 10","Chrome 130.0.0.0","1494x934","1494x882",NA,NA,0,"Gambling_GBO",15,"In","DECFBGAHKIJ",NA,"In","HM_OCT","seq1","Gamble_Rand_Seq1","Gamble_Rand_Seq1",1,"Instructions","Screen 7","re2b58",7,"continue","",5858.19999999702,5848.4,5858.19999999702,5858.19999999702,5848.4,5858.19999999702,1,5858.19999999702,0,0,NA,"Click To Continue","Continue Button",2,"object-241","Instructions","","","",NA,"",NA,NA,NA,NA,NA,"",NA,NA,NA,NA,NA,NA,NA,"MDPRF38095"
"12",1730467571676,"01/11/2024 13:26:11",1730467571676,0,"01/11/2024 13:26:11",193496,6,"task-7wst",NA,41048155,11986060,NA,"complete",NA,"6724cde33934138679257f61","computer","Desktop or Laptop","Windows 10","Chrome 130.0.0.0","1494x934","1494x882",NA,NA,0,"Gambling_GBO",15,"In","DECFBGAHKIJ",NA,"In","HM_OCT","seq1","Gamble_Rand_Seq1","Gamble_Rand_Seq1",1,"Rating","Screen 1","hx8b5a",1,"info","",16.5999999999985,0,16.5999999999985,16.5999999999985,0,16.5999999999985,1,16.5999999999985,0,0,NA,"Slider","MoodSlider",2,"object-243","Rating","bored","not bored","bored",1,"",NA,NA,NA,NA,NA,"",NA,NA,NA,NA,NA,NA,NA,"MDPRF38095"
"13",1730467576359,"01/11/2024 13:26:16",1730467576359,0,"01/11/2024 13:26:16",193496,6,"task-7wst",NA,41048155,11986060,NA,"complete",NA,"6724cde33934138679257f61","computer","Desktop or Laptop","Windows 10","Chrome 130.0.0.0","1494x934","1494x882",NA,NA,0,"Gambling_GBO",15,"In","DECFBGAHKIJ",NA,"In","HM_OCT","seq1","Gamble_Rand_Seq1","Gamble_Rand_Seq1",1,"Rating","Screen 1","hx8b5a",1,"continue","",4707.19999999553,4700.8,4707.19999999553,4707.19999999553,4700.8,4707.19999999553,1,4707.19999999553,0,0,NA,"Click To Continue","Continue Button",3,"object-25","Rating","bored","not bored","bored",1,"",NA,NA,NA,NA,NA,"",NA,NA,NA,NA,NA,NA,NA,"MDPRF38095"
"14",1730467576363,"01/11/2024 13:26:16",1730467576363,0,"01/11/2024 13:26:16",193496,6,"task-7wst",NA,41048155,11986060,NA,"complete",NA,"6724cde33934138679257f61","computer","Desktop or Laptop","Windows 10","Chrome 130.0.0.0","1494x934","1494x882",NA,NA,0,"Gambling_GBO",15,"In","DECFBGAHKIJ",NA,"In","HM_OCT","seq1","Gamble_Rand_Seq1","Gamble_Rand_Seq1",1,"Rating","Screen 1","hx8b5a",1,"response","27",3633.2,4700.8,4710.69999999553,3633.2,4700.8,4710.69999999553,1,3633.2,1077.49999999553,0,NA,"Slider","MoodSlider",2,"object-243","Rating","bored","not bored","bored",1,"",NA,NA,NA,NA,NA,"",NA,NA,NA,NA,NA,NA,NA,"MDPRF38095"
"15",1730467576376,"01/11/2024 13:26:16",1730467576376,0,"01/11/2024 13:26:16",193496,6,"task-7wst",NA,41048155,11986060,NA,"complete",NA,"6724cde33934138679257f61","computer","Desktop or Laptop","Windows 10","Chrome 130.0.0.0","1494x934","1494x882",NA,NA,0,"Gambling_GBO",15,"In","DECFBGAHKIJ",NA,"In","HM_OCT","seq1","Gamble_Rand_Seq1","Gamble_Rand_Seq1",2,"Rating","Screen 1","hx8b5a",1,"info","",17.2000000000044,0,17.2000000000044,17.2000000000044,0,17.2000000000044,1,17.2000000000044,0,0,NA,"Slider","MoodSlider",2,"object-243","Rating","happy","not happy","happy",1,"",NA,NA,NA,NA,NA,"",NA,NA,NA,NA,NA,NA,NA,"MDPRF38095"
"16",1730467580198,"01/11/2024 13:26:20",1730467580198,0,"01/11/2024 13:26:20",193496,6,"task-7wst",NA,41048155,11986060,NA,"complete",NA,"6724cde33934138679257f61","computer","Desktop or Laptop","Windows 10","Chrome 130.0.0.0","1494x934","1494x882",NA,NA,0,"Gambling_GBO",15,"In","DECFBGAHKIJ",NA,"In","HM_OCT","seq1","Gamble_Rand_Seq1","Gamble_Rand_Seq1",2,"Rating","Screen 1","hx8b5a",1,"continue","",3844.99999999702,3832.5,3844.99999999702,3844.99999999702,3832.5,3844.99999999702,1,3844.99999999702,0,0,NA,"Click To Continue","Continue Button",3,"object-25","Rating","happy","not happy","happy",1,"",NA,NA,NA,NA,NA,"",NA,NA,NA,NA,NA,NA,NA,"MDPRF38095"
"17",1730467580199,"01/11/2024 13:26:20",1730467580199,0,"01/11/2024 13:26:20",193496,6,"task-7wst",NA,41048155,11986060,NA,"complete",NA,"6724cde33934138679257f61","computer","Desktop or Laptop","Windows 10","Chrome 130.0.0.0","1494x934","1494x882",NA,NA,0,"Gambling_GBO",15,"In","DECFBGAHKIJ",NA,"In","HM_OCT","seq1","Gamble_Rand_Seq1","Gamble_Rand_Seq1",2,"Rating","Screen 1","hx8b5a",1,"response","71",2750.5,3832.5,3845.7,2750.5,3832.5,3845.7,1,2750.5,1095.2,0,NA,"Slider","MoodSlider",2,"object-243","Rating","happy","not happy","happy",1,"",NA,NA,NA,NA,NA,"",NA,NA,NA,NA,NA,NA,NA,"MDPRF38095"
"18",1730467580207,"01/11/2024 13:26:20",1730467580207,0,"01/11/2024 13:26:20",193496,6,"task-7wst",NA,41048155,11986060,NA,"complete",NA,"6724cde33934138679257f61","computer","Desktop or Laptop","Windows 10","Chrome 130.0.0.0","1494x934","1494x882",NA,NA,0,"Gambling_GBO",15,"In","DECFBGAHKIJ",NA,"In","HM_OCT","seq1","Gamble_Rand_Seq1","Gamble_Rand_Seq1",3,"Rating","Screen 1","hx8b5a",1,"info","",17,0,17,17,0,17,1,17,0,0,NA,"Slider","MoodSlider",2,"object-243","Rating","frustrated","not frustrated","frustrated",1,"",NA,NA,NA,NA,NA,"",NA,NA,NA,NA,NA,NA,NA,"MDPRF38095"
"19",1730467582538,"01/11/2024 13:26:22",1730467582538,0,"01/11/2024 13:26:22",193496,6,"task-7wst",NA,41048155,11986060,NA,"complete",NA,"6724cde33934138679257f61","computer","Desktop or Laptop","Windows 10","Chrome 130.0.0.0","1494x934","1494x882",NA,NA,0,"Gambling_GBO",15,"In","DECFBGAHKIJ",NA,"In","HM_OCT","seq1","Gamble_Rand_Seq1","Gamble_Rand_Seq1",3,"Rating","Screen 1","hx8b5a",1,"continue","",2351.99999999702,2349.8,2351.99999999702,2351.99999999702,2349.8,2351.99999999702,1,2351.99999999702,0,0,NA,"Click To Continue","Continue Button",3,"object-25","Rating","frustrated","not frustrated","frustrated",1,"",NA,NA,NA,NA,NA,"",NA,NA,NA,NA,NA,NA,NA,"MDPRF38095"
"20",1730467582538,"01/11/2024 13:26:22",1730467582538,0,"01/11/2024 13:26:22",193496,6,"task-7wst",NA,41048155,11986060,NA,"complete",NA,"6724cde33934138679257f61","computer","Desktop or Laptop","Windows 10","Chrome 130.0.0.0","1494x934","1494x882",NA,NA,0,"Gambling_GBO",15,"In","DECFBGAHKIJ",NA,"In","HM_OCT","seq1","Gamble_Rand_Seq1","Gamble_Rand_Seq1",3,"Rating","Screen 1","hx8b5a",1,"response","16",1417.7,2349.8,2352.79999999404,1417.7,2349.8,2352.79999999404,1,1417.7,935.09999999404,0,NA,"Slider","MoodSlider",2,"object-243","Rating","frustrated","not frustrated","frustrated",1,"",NA,NA,NA,NA,NA,"",NA,NA,NA,NA,NA,NA,NA,"MDPRF38095"
"21",1730467584502,"01/11/2024 13:26:24",1730467584502,0,"01/11/2024 13:26:24",193496,6,"task-7wst",NA,41048155,11986060,NA,"complete",NA,"6724cde33934138679257f61","computer","Desktop or Laptop","Windows 10","Chrome 130.0.0.0","1494x934","1494x882",NA,NA,0,"Gambling_GBO",15,"In","DECFBGAHKIJ",NA,"In","HM_OCT","seq1","Gamble_Rand_Seq1","Gamble_Rand_Seq1",1,"lossB","Screen 1","a4fynh",1,"continue","",1966.5,1966.5,1966.5,1966.5,1966.5,1966.5,1,1966.5,0,0,NA,"Fixation Timing","Fixation",1,"object-113","lossB","","","",NA,"Right",-6,-7,-4,1,NA,"",NA,NA,NA,NA,NA,NA,NA,"MDPRF38095"
"22",1730467588439,"01/11/2024 13:26:28",1730467588439,0,"01/11/2024 13:26:28",193496,6,"task-7wst",NA,41048155,11986060,NA,"complete",NA,"6724cde33934138679257f61","computer","Desktop or Laptop","Windows 10","Chrome 130.0.0.0","1494x934","1494x882",NA,NA,0,"Gambling_GBO",15,"In","DECFBGAHKIJ",NA,"In","HM_OCT","seq1","Gamble_Rand_Seq1","Gamble_Rand_Seq1",1,"lossB","choice","k9qq8f",2,"response","Right",3934,3917.4,3934,3934,3917.4,3934,1,3934,0,0,NA,"Keyboard Response","KeyResponseG",6,"object-200","lossB","","","",NA,"Right",-6,-7,-4,1,NA,"Right",NA,-7,NA,NA,NA,NA,-7,"MDPRF38095"
"23",1730467592420,"01/11/2024 13:26:32",1730467592420,0,"01/11/2024 13:26:32",193496,6,"task-7wst",NA,41048155,11986060,NA,"complete",NA,"6724cde33934138679257f61","computer","Desktop or Laptop","Windows 10","Chrome 130.0.0.0","1494x934","1494x882",NA,NA,0,"Gambling_GBO",15,"In","DECFBGAHKIJ",NA,"In","HM_OCT","seq1","Gamble_Rand_Seq1","Gamble_Rand_Seq1",1,"lossB","gamble","tpcid5",3,"timedOut","",4000.89999999851,3999.4,4000.89999999851,4000.89999999851,3999.4,4000.89999999851,1,4000.89999999851,0,0,NA,"Time Limit","screen",0,"screen","lossB","","","",NA,"Right",-6,-7,-4,1,NA,"Right",NA,-7,NA,NA,NA,NA,-7,"MDPRF38095"
"24",1730467593420,"01/11/2024 13:26:33",1730467593420,0,"01/11/2024 13:26:33",193496,6,"task-7wst",NA,41048155,11986060,NA,"complete",NA,"6724cde33934138679257f61","computer","Desktop or Laptop","Windows 10","Chrome 130.0.0.0","1494x934","1494x882",NA,NA,0,"Gambling_GBO",15,"In","DECFBGAHKIJ",NA,"In","HM_OCT","seq1","Gamble_Rand_Seq1","Gamble_Rand_Seq1",1,"lossB","loss","2apfzp",4,"timedOut","",1001.49999999851,1000.5,1001.49999999851,1001.49999999851,1000.5,1001.49999999851,1,1001.49999999851,0,0,NA,"Time Limit","screen",0,"screen","lossB","","","",NA,"Right",-6,-7,-4,1,NA,"Right",NA,-7,NA,NA,NA,NA,-7,"MDPRF38095"
"25",1730467593430,"01/11/2024 13:26:33",1730467593430,0,"01/11/2024 13:26:33",193496,6,"task-7wst",NA,41048155,11986060,NA,"complete",NA,"6724cde33934138679257f61","computer","Desktop or Laptop","Windows 10","Chrome 130.0.0.0","1494x934","1494x882",NA,NA,0,"Gambling_GBO",15,"In","DECFBGAHKIJ",NA,"In","HM_OCT","seq1","Gamble_Rand_Seq1","Gamble_Rand_Seq1",4,"Rating","Screen 1","hx8b5a",1,"info","",11.4999999985084,0,11.4999999985084,11.4999999985084,0,11.4999999985084,1,11.4999999985084,0,0,NA,"Slider","MoodSlider",2,"object-243","Rating","frustrated","not frustrated","frustrated",2,"",NA,NA,NA,NA,NA,"Right",NA,-7,NA,NA,NA,NA,-7,"MDPRF38095"
"26",1730467597524,"01/11/2024 13:26:37",1730467597524,0,"01/11/2024 13:26:37",193496,6,"task-7wst",NA,41048155,11986060,NA,"complete",NA,"6724cde33934138679257f61","computer","Desktop or Laptop","Windows 10","Chrome 130.0.0.0","1494x934","1494x882",NA,NA,0,"Gambling_GBO",15,"In","DECFBGAHKIJ",NA,"In","HM_OCT","seq1","Gamble_Rand_Seq1","Gamble_Rand_Seq1",4,"Rating","Screen 1","hx8b5a",1,"continue","",4105.19999999404,4100.5,4105.19999999404,4105.19999999404,4100.5,4105.19999999404,1,4105.19999999404,0,0,NA,"Click To Continue","Continue Button",3,"object-25","Rating","frustrated","not frustrated","frustrated",2,"",NA,NA,NA,NA,NA,"Right",NA,-7,NA,NA,NA,NA,-7,"MDPRF38095"
"27",1730467597525,"01/11/2024 13:26:37",1730467597525,0,"01/11/2024 13:26:37",193496,6,"task-7wst",NA,41048155,11986060,NA,"complete",NA,"6724cde33934138679257f61","computer","Desktop or Laptop","Windows 10","Chrome 130.0.0.0","1494x934","1494x882",NA,NA,0,"Gambling_GBO",15,"In","DECFBGAHKIJ",NA,"In","HM_OCT","seq1","Gamble_Rand_Seq1","Gamble_Rand_Seq1",4,"Rating","Screen 1","hx8b5a",1,"response","21",3132.8,4100.5,4105.6,3132.8,4100.5,4105.6,1,3132.8,972.800000000003,0,NA,"Slider","MoodSlider",2,"object-243","Rating","frustrated","not frustrated","frustrated",2,"",NA,NA,NA,NA,NA,"Right",NA,-7,NA,NA,NA,NA,-7,"MDPRF38095"
"28",1730467597533,"01/11/2024 13:26:37",1730467597533,0,"01/11/2024 13:26:37",193496,6,"task-7wst",NA,41048155,11986060,NA,"complete",NA,"6724cde33934138679257f61","computer","Desktop or Laptop","Windows 10","Chrome 130.0.0.0","1494x934","1494x882",NA,NA,0,"Gambling_GBO",15,"In","DECFBGAHKIJ",NA,"In","HM_OCT","seq1","Gamble_Rand_Seq1","Gamble_Rand_Seq1",5,"Rating","Screen 1","hx8b5a",1,"info","",13.6999999940381,0,13.6999999940381,13.6999999940381,0,13.6999999940381,1,13.6999999940381,0,0,NA,"Slider","MoodSlider",2,"object-243","Rating","bored","not bored","bored",2,"",NA,NA,NA,NA,NA,"Right",NA,-7,NA,NA,NA,NA,-7,"MDPRF38095"
"29",1730467602347,"01/11/2024 13:26:42",1730467602347,0,"01/11/2024 13:26:42",193496,6,"task-7wst",NA,41048155,11986060,NA,"complete",NA,"6724cde33934138679257f61","computer","Desktop or Laptop","Windows 10","Chrome 130.0.0.0","1494x934","1494x882",NA,NA,0,"Gambling_GBO",15,"In","DECFBGAHKIJ",NA,"In","HM_OCT","seq1","Gamble_Rand_Seq1","Gamble_Rand_Seq1",5,"Rating","Screen 1","hx8b5a",1,"continue","",4827.89999999702,4815.49999999999,4827.89999999702,4827.89999999702,4815.49999999999,4827.89999999702,1,4827.89999999702,0,0,NA,"Click To Continue","Continue Button",3,"object-25","Rating","bored","not bored","bored",2,"",NA,NA,NA,NA,NA,"Right",NA,-7,NA,NA,NA,NA,-7,"MDPRF38095"
"30",1730467602352,"01/11/2024 13:26:42",1730467602352,0,"01/11/2024 13:26:42",193496,6,"task-7wst",NA,41048155,11986060,NA,"complete",NA,"6724cde33934138679257f61","computer","Desktop or Laptop","Windows 10","Chrome 130.0.0.0","1494x934","1494x882",NA,NA,0,"Gambling_GBO",15,"In","DECFBGAHKIJ",NA,"In","HM_OCT","seq1","Gamble_Rand_Seq1","Gamble_Rand_Seq1",5,"Rating","Screen 1","hx8b5a",1,"response","24",3748.7,4815.49999999999,4832.29999999553,3748.7,4815.49999999999,4832.29999999553,1,3748.7,1083.59999999552,0,NA,"Slider","MoodSlider",2,"object-243","Rating","bored","not bored","bored",2,"",NA,NA,NA,NA,NA,"Right",NA,-7,NA,NA,NA,NA,-7,"MDPRF38095"
"31",1730467602361,"01/11/2024 13:26:42",1730467602361,0,"01/11/2024 13:26:42",193496,6,"task-7wst",NA,41048155,11986060,NA,"complete",NA,"6724cde33934138679257f61","computer","Desktop or Laptop","Windows 10","Chrome 130.0.0.0","1494x934","1494x882",NA,NA,0,"Gambling_GBO",15,"In","DECFBGAHKIJ",NA,"In","HM_OCT","seq1","Gamble_Rand_Seq1","Gamble_Rand_Seq1",6,"Rating","Screen 1","hx8b5a",1,"info","",16.7999999999884,0,16.7999999999884,16.7999999999884,0,16.7999999999884,1,16.7999999999884,0,0,NA,"Slider","MoodSlider",2,"object-243","Rating","happy","not happy","happy",2,"",NA,NA,NA,NA,NA,"Right",NA,-7,NA,NA,NA,NA,-7,"MDPRF38095"
"32",1730467606190,"01/11/2024 13:26:46",1730467606190,0,"01/11/2024 13:26:46",193496,6,"task-7wst",NA,41048155,11986060,NA,"complete",NA,"6724cde33934138679257f61","computer","Desktop or Laptop","Windows 10","Chrome 130.0.0.0","1494x934","1494x882",NA,NA,0,"Gambling_GBO",15,"In","DECFBGAHKIJ",NA,"In","HM_OCT","seq1","Gamble_Rand_Seq1","Gamble_Rand_Seq1",6,"Rating","Screen 1","hx8b5a",1,"continue","",3854.69999999404,3850.20000000001,3854.69999999404,3854.69999999404,3850.20000000001,3854.69999999404,1,3854.69999999404,0,0,NA,"Click To Continue","Continue Button",3,"object-25","Rating","happy","not happy","happy",2,"",NA,NA,NA,NA,NA,"Right",NA,-7,NA,NA,NA,NA,-7,"MDPRF38095"
"33",1730467606190,"01/11/2024 13:26:46",1730467606190,0,"01/11/2024 13:26:46",193496,6,"task-7wst",NA,41048155,11986060,NA,"complete",NA,"6724cde33934138679257f61","computer","Desktop or Laptop","Windows 10","Chrome 130.0.0.0","1494x934","1494x882",NA,NA,0,"Gambling_GBO",15,"In","DECFBGAHKIJ",NA,"In","HM_OCT","seq1","Gamble_Rand_Seq1","Gamble_Rand_Seq1",6,"Rating","Screen 1","hx8b5a",1,"response","75",2849.90000000001,3850.20000000001,3855.49999999852,2849.90000000001,3850.20000000001,3855.49999999852,1,2849.90000000001,1005.59999999851,0,NA,"Slider","MoodSlider",2,"object-243","Rating","happy","not happy","happy",2,"",NA,NA,NA,NA,NA,"Right",NA,-7,NA,NA,NA,NA,-7,"MDPRF38095"
"34",1730467608159,"01/11/2024 13:26:48",1730467608159,0,"01/11/2024 13:26:48",193496,6,"task-7wst",NA,41048155,11986060,NA,"complete",NA,"6724cde33934138679257f61","computer","Desktop or Laptop","Windows 10","Chrome 130.0.0.0","1494x934","1494x882",NA,NA,0,"Gambling_GBO",15,"In","DECFBGAHKIJ",NA,"In","HM_OCT","seq1","Gamble_Rand_Seq1","Gamble_Rand_Seq1",2,"lossB","Screen 1","a4fynh",1,"continue","",1966.2,1966.2,1966.2,1966.2,1966.2,1966.2,1,1966.2,0,0,NA,"Fixation Timing","Fixation",1,"object-113","lossB","","","",NA,"Right",1,0,3,2,NA,"Right",NA,-7,NA,NA,NA,NA,-7,"MDPRF38095"
"35",1730467611510,"01/11/2024 13:26:51",1730467611510,0,"01/11/2024 13:26:51",193496,6,"task-7wst",NA,41048155,11986060,NA,"complete",NA,"6724cde33934138679257f61","computer","Desktop or Laptop","Windows 10","Chrome 130.0.0.0","1494x934","1494x882",NA,NA,0,"Gambling_GBO",15,"In","DECFBGAHKIJ",NA,"In","HM_OCT","seq1","Gamble_Rand_Seq1","Gamble_Rand_Seq1",2,"lossB","choice","k9qq8f",2,"response","Left",3357.79999999404,3350.7,3357.79999999404,3357.79999999404,3350.7,3357.79999999404,0,3357.79999999404,0,0,NA,"Keyboard Response","KeyResponseC",5,"object-199","lossB","","","",NA,"Right",1,0,3,2,NA,"Left",NA,-6,NA,NA,NA,NA,1,"MDPRF38095"
"36",1730467616503,"01/11/2024 13:26:56",1730467616503,0,"01/11/2024 13:26:56",193496,6,"task-7wst",NA,41048155,11986060,NA,"complete",NA,"6724cde33934138679257f61","computer","Desktop or Laptop","Windows 10","Chrome 130.0.0.0","1494x934","1494x882",NA,NA,0,"Gambling_GBO",15,"In","DECFBGAHKIJ",NA,"In","HM_OCT","seq1","Gamble_Rand_Seq1","Gamble_Rand_Seq1",2,"lossB","certain","rptf8c",3,"timedOut","",5001.09999999404,5000.39999999999,5001.09999999404,5001.09999999404,5000.39999999999,5001.09999999404,1,5001.09999999404,0,0,NA,"Time Limit","screen",0,"screen","lossB","","","",NA,"Right",1,0,3,2,NA,"Left",NA,-6,NA,NA,NA,NA,1,"MDPRF38095"
"37",1730467616516,"01/11/2024 13:26:56",1730467616516,0,"01/11/2024 13:26:56",193496,6,"task-7wst",NA,41048155,11986060,NA,"complete",NA,"6724cde33934138679257f61","computer","Desktop or Laptop","Windows 10","Chrome 130.0.0.0","1494x934","1494x882",NA,NA,0,"Gambling_GBO",15,"In","DECFBGAHKIJ",NA,"In","HM_OCT","seq1","Gamble_Rand_Seq1","Gamble_Rand_Seq1",7,"Rating","Screen 1","hx8b5a",1,"info","",13.1999999940454,0,13.1999999940454,13.1999999940454,0,13.1999999940454,1,13.1999999940454,0,0,NA,"Slider","MoodSlider",2,"object-243","Rating","frustrated","not frustrated","frustrated",3,"",NA,NA,NA,NA,NA,"Left",NA,-6,NA,NA,NA,NA,1,"MDPRF38095"
"38",1730467622672,"01/11/2024 13:27:02",1730467622672,0,"01/11/2024 13:27:02",193496,6,"task-7wst",NA,41048155,11986060,NA,"complete",NA,"6724cde33934138679257f61","computer","Desktop or Laptop","Windows 10","Chrome 130.0.0.0","1494x934","1494x882",NA,NA,0,"Gambling_GBO",15,"In","DECFBGAHKIJ",NA,"In","HM_OCT","seq1","Gamble_Rand_Seq1","Gamble_Rand_Seq1",7,"Rating","Screen 1","hx8b5a",1,"continue","",6169.49999999852,6165.60000000001,6169.49999999852,6169.49999999852,6165.60000000001,6169.49999999852,1,6169.49999999852,0,0,NA,"Click To Continue","Continue Button",3,"object-25","Rating","frustrated","not frustrated","frustrated",3,"",NA,NA,NA,NA,NA,"Left",NA,-6,NA,NA,NA,NA,1,"MDPRF38095"
"39",1730467622673,"01/11/2024 13:27:02",1730467622673,0,"01/11/2024 13:27:02",193496,6,"task-7wst",NA,41048155,11986060,NA,"complete",NA,"6724cde33934138679257f61","computer","Desktop or Laptop","Windows 10","Chrome 130.0.0.0","1494x934","1494x882",NA,NA,0,"Gambling_GBO",15,"In","DECFBGAHKIJ",NA,"In","HM_OCT","seq1","Gamble_Rand_Seq1","Gamble_Rand_Seq1",7,"Rating","Screen 1","hx8b5a",1,"response","26",5149.5,6165.60000000001,6170.69999999405,5149.5,6165.60000000001,6170.69999999405,1,5149.5,1021.19999999405,0,NA,"Slider","MoodSlider",2,"object-243","Rating","frustrated","not frustrated","frustrated",3,"",NA,NA,NA,NA,NA,"Left",NA,-6,NA,NA,NA,NA,1,"MDPRF38095"
"40",1730467622683,"01/11/2024 13:27:02",1730467622683,0,"01/11/2024 13:27:02",193496,6,"task-7wst",NA,41048155,11986060,NA,"complete",NA,"6724cde33934138679257f61","computer","Desktop or Laptop","Windows 10","Chrome 130.0.0.0","1494x934","1494x882",NA,NA,0,"Gambling_GBO",15,"In","DECFBGAHKIJ",NA,"In","HM_OCT","seq1","Gamble_Rand_Seq1","Gamble_Rand_Seq1",8,"Rating","Screen 1","hx8b5a",1,"info","",15,0,15,15,0,15,1,15,0,0,NA,"Slider","MoodSlider",2,"object-243","Rating","happy","not happy","happy",3,"",NA,NA,NA,NA,NA,"Left",NA,-6,NA,NA,NA,NA,1,"MDPRF38095"
"41",1730467625976,"01/11/2024 13:27:05",1730467625976,0,"01/11/2024 13:27:05",193496,6,"task-7wst",NA,41048155,11986060,NA,"complete",NA,"6724cde33934138679257f61","computer","Desktop or Laptop","Windows 10","Chrome 130.0.0.0","1494x934","1494x882",NA,NA,0,"Gambling_GBO",15,"In","DECFBGAHKIJ",NA,"In","HM_OCT","seq1","Gamble_Rand_Seq1","Gamble_Rand_Seq1",8,"Rating","Screen 1","hx8b5a",1,"continue","",3307.79999999702,3300.7,3307.79999999702,3307.79999999702,3300.7,3307.79999999702,1,3307.79999999702,0,0,NA,"Click To Continue","Continue Button",3,"object-25","Rating","happy","not happy","happy",3,"",NA,NA,NA,NA,NA,"Left",NA,-6,NA,NA,NA,NA,1,"MDPRF38095"
"42",1730467625976,"01/11/2024 13:27:05",1730467625976,0,"01/11/2024 13:27:05",193496,6,"task-7wst",NA,41048155,11986060,NA,"complete",NA,"6724cde33934138679257f61","computer","Desktop or Laptop","Windows 10","Chrome 130.0.0.0","1494x934","1494x882",NA,NA,0,"Gambling_GBO",15,"In","DECFBGAHKIJ",NA,"In","HM_OCT","seq1","Gamble_Rand_Seq1","Gamble_Rand_Seq1",8,"Rating","Screen 1","hx8b5a",1,"response","68",1633.2,3300.7,3308.39999999851,1633.2,3300.7,3308.39999999851,1,1633.2,1675.19999999851,0,NA,"Slider","MoodSlider",2,"object-243","Rating","happy","not happy","happy",3,"",NA,NA,NA,NA,NA,"Left",NA,-6,NA,NA,NA,NA,1,"MDPRF38095"
"43",1730467625988,"01/11/2024 13:27:05",1730467625988,0,"01/11/2024 13:27:05",193496,6,"task-7wst",NA,41048155,11986060,NA,"complete",NA,"6724cde33934138679257f61","computer","Desktop or Laptop","Windows 10","Chrome 130.0.0.0","1494x934","1494x882",NA,NA,0,"Gambling_GBO",15,"In","DECFBGAHKIJ",NA,"In","HM_OCT","seq1","Gamble_Rand_Seq1","Gamble_Rand_Seq1",9,"Rating","Screen 1","hx8b5a",1,"info","",17.5999999999913,0,17.5999999999913,17.5999999999913,0,17.5999999999913,1,17.5999999999913,0,0,NA,"Slider","MoodSlider",2,"object-243","Rating","bored","not bored","bored",3,"",NA,NA,NA,NA,NA,"Left",NA,-6,NA,NA,NA,NA,1,"MDPRF38095"
"44",1730467628100,"01/11/2024 13:27:08",1730467628100,0,"01/11/2024 13:27:08",193496,6,"task-7wst",NA,41048155,11986060,NA,"complete",NA,"6724cde33934138679257f61","computer","Desktop or Laptop","Windows 10","Chrome 130.0.0.0","1494x934","1494x882",NA,NA,0,"Gambling_GBO",15,"In","DECFBGAHKIJ",NA,"In","HM_OCT","seq1","Gamble_Rand_Seq1","Gamble_Rand_Seq1",9,"Rating","Screen 1","hx8b5a",1,"continue","",2131.59999999702,2116,2131.59999999702,2131.59999999702,2116,2131.59999999702,1,2131.59999999702,0,0,NA,"Click To Continue","Continue Button",3,"object-25","Rating","bored","not bored","bored",3,"",NA,NA,NA,NA,NA,"Left",NA,-6,NA,NA,NA,NA,1,"MDPRF38095"
"45",1730467628105,"01/11/2024 13:27:08",1730467628105,0,"01/11/2024 13:27:08",193496,6,"task-7wst",NA,41048155,11986060,NA,"complete",NA,"6724cde33934138679257f61","computer","Desktop or Laptop","Windows 10","Chrome 130.0.0.0","1494x934","1494x882",NA,NA,0,"Gambling_GBO",15,"In","DECFBGAHKIJ",NA,"In","HM_OCT","seq1","Gamble_Rand_Seq1","Gamble_Rand_Seq1",9,"Rating","Screen 1","hx8b5a",1,"response","28",1282.60000000001,2116,2132.2,1282.60000000001,2116,2132.2,1,1282.60000000001,849.599999999991,0,NA,"Slider","MoodSlider",2,"object-243","Rating","bored","not bored","bored",3,"",NA,NA,NA,NA,NA,"Left",NA,-6,NA,NA,NA,NA,1,"MDPRF38095"
"46",1730467630051,"01/11/2024 13:27:10",1730467630051,0,"01/11/2024 13:27:10",193496,6,"task-7wst",NA,41048155,11986060,NA,"complete",NA,"6724cde33934138679257f61","computer","Desktop or Laptop","Windows 10","Chrome 130.0.0.0","1494x934","1494x882",NA,NA,0,"Gambling_GBO",15,"In","DECFBGAHKIJ",NA,"In","HM_OCT","seq1","Gamble_Rand_Seq1","Gamble_Rand_Seq1",1,"winB","Screen 1","pkkyi8",1,"continue","",1966.3,1966.3,1966.3,1966.3,1966.3,1966.3,1,1966.3,0,0,NA,"Fixation Timing","Fixation",1,"object-246","winB","","","",NA,"Right",-1,-2,1,3,NA,"Left",NA,-6,NA,NA,NA,NA,1,"MDPRF38095"
"47",1730467634803,"01/11/2024 13:27:14",1730467634803,0,"01/11/2024 13:27:14",193496,6,"task-7wst",NA,41048155,11986060,NA,"complete",NA,"6724cde33934138679257f61","computer","Desktop or Laptop","Windows 10","Chrome 130.0.0.0","1494x934","1494x882",NA,NA,0,"Gambling_GBO",15,"In","DECFBGAHKIJ",NA,"In","HM_OCT","seq1","Gamble_Rand_Seq1","Gamble_Rand_Seq1",1,"winB","choice","5lszbx",2,"response","Right",4749.40000000001,4733.3,4749.40000000001,4749.40000000001,4733.3,4749.40000000001,1,4749.40000000001,0,0,NA,"Keyboard Response","KeyResponseG",6,"object-256","winB","","","",NA,"Right",-1,-2,1,3,NA,"Right",NA,-5,NA,NA,NA,NA,1,"MDPRF38095"
"48",1730467638786,"01/11/2024 13:27:18",1730467638786,0,"01/11/2024 13:27:18",193496,6,"task-7wst",NA,41048155,11986060,NA,"complete",NA,"6724cde33934138679257f61","computer","Desktop or Laptop","Windows 10","Chrome 130.0.0.0","1494x934","1494x882",NA,NA,0,"Gambling_GBO",15,"In","DECFBGAHKIJ",NA,"In","HM_OCT","seq1","Gamble_Rand_Seq1","Gamble_Rand_Seq1",1,"winB","gamble","17lgr3",3,"timedOut","",4001.79999999404,4000.5,4001.79999999404,4001.79999999404,4000.5,4001.79999999404,1,4001.79999999404,0,0,NA,"Time Limit","screen",0,"screen","winB","","","",NA,"Right",-1,-2,1,3,NA,"Right",NA,-5,NA,NA,NA,NA,1,"MDPRF38095"
"49",1730467639785,"01/11/2024 13:27:19",1730467639785,0,"01/11/2024 13:27:19",193496,6,"task-7wst",NA,41048155,11986060,NA,"complete",NA,"6724cde33934138679257f61","computer","Desktop or Laptop","Windows 10","Chrome 130.0.0.0","1494x934","1494x882",NA,NA,0,"Gambling_GBO",15,"In","DECFBGAHKIJ",NA,"In","HM_OCT","seq1","Gamble_Rand_Seq1","Gamble_Rand_Seq1",1,"winB","win","dzz5jr",4,"timedOut","",999.999999997017,999.5,999.999999997017,999.999999997017,999.5,999.999999997017,1,999.999999997017,0,0,NA,"Time Limit","screen",0,"screen","winB","","","",NA,"Right",-1,-2,1,3,NA,"Right",NA,-5,NA,NA,NA,NA,1,"MDPRF38095"
"50",1730467639795,"01/11/2024 13:27:19",1730467639795,0,"01/11/2024 13:27:19",193496,6,"task-7wst",NA,41048155,11986060,NA,"complete",NA,"6724cde33934138679257f61","computer","Desktop or Laptop","Windows 10","Chrome 130.0.0.0","1494x934","1494x882",NA,NA,0,"Gambling_GBO",15,"In","DECFBGAHKIJ",NA,"In","HM_OCT","seq1","Gamble_Rand_Seq1","Gamble_Rand_Seq1",10,"Rating","Screen 1","hx8b5a",1,"info","",10.8999999955267,0,10.8999999955267,10.8999999955267,0,10.8999999955267,1,10.8999999955267,0,0,NA,"Slider","MoodSlider",2,"object-243","Rating","happy","not happy","happy",4,"",NA,NA,NA,NA,NA,"Right",NA,-5,NA,NA,NA,NA,1,"MDPRF38095"
"51",1730467643323,"01/11/2024 13:27:23",1730467643323,0,"01/11/2024 13:27:23",193496,6,"task-7wst",NA,41048155,11986060,NA,"complete",NA,"6724cde33934138679257f61","computer","Desktop or Laptop","Windows 10","Chrome 130.0.0.0","1494x934","1494x882",NA,NA,0,"Gambling_GBO",15,"In","DECFBGAHKIJ",NA,"In","HM_OCT","seq1","Gamble_Rand_Seq1","Gamble_Rand_Seq1",10,"Rating","Screen 1","hx8b5a",1,"continue","",3534.8,3517.8,3534.8,3534.8,3517.8,3534.8,1,3534.8,0,0,NA,"Click To Continue","Continue Button",3,"object-25","Rating","happy","not happy","happy",4,"",NA,NA,NA,NA,NA,"Right",NA,-5,NA,NA,NA,NA,1,"MDPRF38095"
"52",1730467643323,"01/11/2024 13:27:23",1730467643323,0,"01/11/2024 13:27:23",193496,6,"task-7wst",NA,41048155,11986060,NA,"complete",NA,"6724cde33934138679257f61","computer","Desktop or Laptop","Windows 10","Chrome 130.0.0.0","1494x934","1494x882",NA,NA,0,"Gambling_GBO",15,"In","DECFBGAHKIJ",NA,"In","HM_OCT","seq1","Gamble_Rand_Seq1","Gamble_Rand_Seq1",10,"Rating","Screen 1","hx8b5a",1,"response","76",2700.8,3517.8,3534.8,2700.8,3517.8,3534.8,1,2700.8,834,0,NA,"Slider","MoodSlider",2,"object-243","Rating","happy","not happy","happy",4,"",NA,NA,NA,NA,NA,"Right",NA,-5,NA,NA,NA,NA,1,"MDPRF38095"
"53",1730467643332,"01/11/2024 13:27:23",1730467643332,0,"01/11/2024 13:27:23",193496,6,"task-7wst",NA,41048155,11986060,NA,"complete",NA,"6724cde33934138679257f61","computer","Desktop or Laptop","Windows 10","Chrome 130.0.0.0","1494x934","1494x882",NA,NA,0,"Gambling_GBO",15,"In","DECFBGAHKIJ",NA,"In","HM_OCT","seq1","Gamble_Rand_Seq1","Gamble_Rand_Seq1",11,"Rating","Screen 1","hx8b5a",1,"info","",17,0,17,17,0,17,1,17,0,0,NA,"Slider","MoodSlider",2,"object-243","Rating","bored","not bored","bored",4,"",NA,NA,NA,NA,NA,"Right",NA,-5,NA,NA,NA,NA,1,"MDPRF38095"
"54",1730467646360,"01/11/2024 13:27:26",1730467646360,0,"01/11/2024 13:27:26",193496,6,"task-7wst",NA,41048155,11986060,NA,"complete",NA,"6724cde33934138679257f61","computer","Desktop or Laptop","Windows 10","Chrome 130.0.0.0","1494x934","1494x882",NA,NA,0,"Gambling_GBO",15,"In","DECFBGAHKIJ",NA,"In","HM_OCT","seq1","Gamble_Rand_Seq1","Gamble_Rand_Seq1",11,"Rating","Screen 1","hx8b5a",1,"continue","",3058.09999999552,3052.89999999999,3058.09999999552,3058.09999999552,3052.89999999999,3058.09999999552,1,3058.09999999552,0,0,NA,"Click To Continue","Continue Button",3,"object-25","Rating","bored","not bored","bored",4,"",NA,NA,NA,NA,NA,"Right",NA,-5,NA,NA,NA,NA,1,"MDPRF38095"
"55",1730467646361,"01/11/2024 13:27:26",1730467646361,0,"01/11/2024 13:27:26",193496,6,"task-7wst",NA,41048155,11986060,NA,"complete",NA,"6724cde33934138679257f61","computer","Desktop or Laptop","Windows 10","Chrome 130.0.0.0","1494x934","1494x882",NA,NA,0,"Gambling_GBO",15,"In","DECFBGAHKIJ",NA,"In","HM_OCT","seq1","Gamble_Rand_Seq1","Gamble_Rand_Seq1",11,"Rating","Screen 1","hx8b5a",1,"response","27",1748.7,3052.89999999999,3058.7999999985,1748.7,3052.89999999999,3058.7999999985,1,1748.7,1310.09999999851,0,NA,"Slider","MoodSlider",2,"object-243","Rating","bored","not bored","bored",4,"",NA,NA,NA,NA,NA,"Right",NA,-5,NA,NA,NA,NA,1,"MDPRF38095"
"56",1730467646369,"01/11/2024 13:27:26",1730467646369,0,"01/11/2024 13:27:26",193496,6,"task-7wst",NA,41048155,11986060,NA,"complete",NA,"6724cde33934138679257f61","computer","Desktop or Laptop","Windows 10","Chrome 130.0.0.0","1494x934","1494x882",NA,NA,0,"Gambling_GBO",15,"In","DECFBGAHKIJ",NA,"In","HM_OCT","seq1","Gamble_Rand_Seq1","Gamble_Rand_Seq1",12,"Rating","Screen 1","hx8b5a",1,"info","",13.6999999955297,0,13.6999999955297,13.6999999955297,0,13.6999999955297,1,13.6999999955297,0,0,NA,"Slider","MoodSlider",2,"object-243","Rating","frustrated","not frustrated","frustrated",4,"",NA,NA,NA,NA,NA,"Right",NA,-5,NA,NA,NA,NA,1,"MDPRF38095"
"57",1730467650241,"01/11/2024 13:27:30",1730467650241,0,"01/11/2024 13:27:30",193496,6,"task-7wst",NA,41048155,11986060,NA,"complete",NA,"6724cde33934138679257f61","computer","Desktop or Laptop","Windows 10","Chrome 130.0.0.0","1494x934","1494x882",NA,NA,0,"Gambling_GBO",15,"In","DECFBGAHKIJ",NA,"In","HM_OCT","seq1","Gamble_Rand_Seq1","Gamble_Rand_Seq1",12,"Rating","Screen 1","hx8b5a",1,"continue","",3886.29999999702,3880.3,3886.29999999702,3886.29999999702,3880.3,3886.29999999702,1,3886.29999999702,0,0,NA,"Click To Continue","Continue Button",3,"object-25","Rating","frustrated","not frustrated","frustrated",4,"",NA,NA,NA,NA,NA,"Right",NA,-5,NA,NA,NA,NA,1,"MDPRF38095"
"58",1730467650248,"01/11/2024 13:27:30",1730467650248,0,"01/11/2024 13:27:30",193496,6,"task-7wst",NA,41048155,11986060,NA,"complete",NA,"6724cde33934138679257f61","computer","Desktop or Laptop","Windows 10","Chrome 130.0.0.0","1494x934","1494x882",NA,NA,0,"Gambling_GBO",15,"In","DECFBGAHKIJ",NA,"In","HM_OCT","seq1","Gamble_Rand_Seq1","Gamble_Rand_Seq1",12,"Rating","Screen 1","hx8b5a",1,"response","16",2312.89999999999,3880.3,3892.5,2312.89999999999,3880.3,3892.5,1,2312.89999999999,1579.60000000001,0,NA,"Slider","MoodSlider",2,"object-243","Rating","frustrated","not frustrated","frustrated",4,"",NA,NA,NA,NA,NA,"Right",NA,-5,NA,NA,NA,NA,1,"MDPRF38095"
"59",1730467652202,"01/11/2024 13:27:32",1730467652202,0,"01/11/2024 13:27:32",193496,6,"task-7wst",NA,41048155,11986060,NA,"complete",NA,"6724cde33934138679257f61","computer","Desktop or Laptop","Windows 10","Chrome 130.0.0.0","1494x934","1494x882",NA,NA,0,"Gambling_GBO",15,"In","DECFBGAHKIJ",NA,"In","HM_OCT","seq1","Gamble_Rand_Seq1","Gamble_Rand_Seq1",2,"winB","Screen 1","pkkyi8",1,"continue","",1966.09999999999,1966.09999999999,1966.09999999999,1966.09999999999,1966.09999999999,1966.09999999999,1,1966.09999999999,0,0,NA,"Fixation Timing","Fixation",1,"object-246","winB","","","",NA,"Right",-2.67,-4,0,4,NA,"Right",NA,-5,NA,NA,NA,NA,1,"MDPRF38095"
"60",1730467668558,"01/11/2024 13:27:48",1730467668558,0,"01/11/2024 13:27:48",193496,6,"task-7wst",NA,41048155,11986060,NA,"complete",NA,"6724cde33934138679257f61","computer","Desktop or Laptop","Windows 10","Chrome 130.0.0.0","1494x934","1494x882",NA,NA,0,"Gambling_GBO",15,"In","DECFBGAHKIJ",NA,"In","HM_OCT","seq1","Gamble_Rand_Seq1","Gamble_Rand_Seq1",2,"winB","choice","5lszbx",2,"response","Left",16355.9999999985,16349.6,16355.9999999985,16355.9999999985,16349.6,16355.9999999985,0,16355.9999999985,0,0,NA,"Keyboard Response","KeyResponseC",5,"object-255","winB","","","",NA,"Right",-2.67,-4,0,4,NA,"Left",NA,-7.67,NA,NA,NA,NA,-2.67,"MDPRF38095"
"61",1730467673552,"01/11/2024 13:27:53",1730467673552,0,"01/11/2024 13:27:53",193496,6,"task-7wst",NA,41048155,11986060,NA,"complete",NA,"6724cde33934138679257f61","computer","Desktop or Laptop","Windows 10","Chrome 130.0.0.0","1494x934","1494x882",NA,NA,0,"Gambling_GBO",15,"In","DECFBGAHKIJ",NA,"In","HM_OCT","seq1","Gamble_Rand_Seq1","Gamble_Rand_Seq1",2,"winB","certain","nw4etn",3,"timedOut","",5000.39999999851,4999.60000000001,5000.39999999851,5000.39999999851,4999.60000000001,5000.39999999851,1,5000.39999999851,0,0,NA,"Time Limit","screen",0,"screen","winB","","","",NA,"Right",-2.67,-4,0,4,NA,"Left",NA,-7.67,NA,NA,NA,NA,-2.67,"MDPRF38095"
"62",1730467673564,"01/11/2024 13:27:53",1730467673564,0,"01/11/2024 13:27:53",193496,6,"task-7wst",NA,41048155,11986060,NA,"complete",NA,"6724cde33934138679257f61","computer","Desktop or Laptop","Windows 10","Chrome 130.0.0.0","1494x934","1494x882",NA,NA,0,"Gambling_GBO",15,"In","DECFBGAHKIJ",NA,"In","HM_OCT","seq1","Gamble_Rand_Seq1","Gamble_Rand_Seq1",13,"Rating","Screen 1","hx8b5a",1,"info","",13.6999999970139,0,13.6999999970139,13.6999999970139,0,13.6999999970139,1,13.6999999970139,0,0,NA,"Slider","MoodSlider",2,"object-243","Rating","bored","not bored","bored",5,"",NA,NA,NA,NA,NA,"Left",NA,-7.67,NA,NA,NA,NA,-2.67,"MDPRF38095"
"63",1730467677767,"01/11/2024 13:27:57",1730467677767,0,"01/11/2024 13:27:57",193496,6,"task-7wst",NA,41048155,11986060,NA,"complete",NA,"6724cde33934138679257f61","computer","Desktop or Laptop","Windows 10","Chrome 130.0.0.0","1494x934","1494x882",NA,NA,0,"Gambling_GBO",15,"In","DECFBGAHKIJ",NA,"In","HM_OCT","seq1","Gamble_Rand_Seq1","Gamble_Rand_Seq1",13,"Rating","Screen 1","hx8b5a",1,"continue","",4215.7999999985,4199.79999999999,4215.7999999985,4215.7999999985,4199.79999999999,4215.7999999985,1,4215.7999999985,0,0,NA,"Click To Continue","Continue Button",3,"object-25","Rating","bored","not bored","bored",5,"",NA,NA,NA,NA,NA,"Left",NA,-7.67,NA,NA,NA,NA,-2.67,"MDPRF38095"
"64",1730467677767,"01/11/2024 13:27:57",1730467677767,0,"01/11/2024 13:27:57",193496,6,"task-7wst",NA,41048155,11986060,NA,"complete",NA,"6724cde33934138679257f61","computer","Desktop or Laptop","Windows 10","Chrome 130.0.0.0","1494x934","1494x882",NA,NA,0,"Gambling_GBO",15,"In","DECFBGAHKIJ",NA,"In","HM_OCT","seq1","Gamble_Rand_Seq1","Gamble_Rand_Seq1",13,"Rating","Screen 1","hx8b5a",1,"response","13",2949.89999999999,4199.79999999999,4215.79999999999,2949.89999999999,4199.79999999999,4215.79999999999,1,2949.89999999999,1265.89999999999,0,NA,"Slider","MoodSlider",2,"object-243","Rating","bored","not bored","bored",5,"",NA,NA,NA,NA,NA,"Left",NA,-7.67,NA,NA,NA,NA,-2.67,"MDPRF38095"
"65",1730467677777,"01/11/2024 13:27:57",1730467677777,0,"01/11/2024 13:27:57",193496,6,"task-7wst",NA,41048155,11986060,NA,"complete",NA,"6724cde33934138679257f61","computer","Desktop or Laptop","Windows 10","Chrome 130.0.0.0","1494x934","1494x882",NA,NA,0,"Gambling_GBO",15,"In","DECFBGAHKIJ",NA,"In","HM_OCT","seq1","Gamble_Rand_Seq1","Gamble_Rand_Seq1",14,"Rating","Screen 1","hx8b5a",1,"info","",16,0,16,16,0,16,1,16,0,0,NA,"Slider","MoodSlider",2,"object-243","Rating","happy","not happy","happy",5,"",NA,NA,NA,NA,NA,"Left",NA,-7.67,NA,NA,NA,NA,-2.67,"MDPRF38095"
"66",1730467683788,"01/11/2024 13:28:03",1730467683788,0,"01/11/2024 13:28:03",193496,6,"task-7wst",NA,41048155,11986060,NA,"complete",NA,"6724cde33934138679257f61","computer","Desktop or Laptop","Windows 10","Chrome 130.0.0.0","1494x934","1494x882",NA,NA,0,"Gambling_GBO",15,"In","DECFBGAHKIJ",NA,"In","HM_OCT","seq1","Gamble_Rand_Seq1","Gamble_Rand_Seq1",14,"Rating","Screen 1","hx8b5a",1,"continue","",6036.89999999703,6033.30000000002,6036.89999999703,6036.89999999703,6033.30000000002,6036.89999999703,1,6036.89999999703,0,0,NA,"Click To Continue","Continue Button",3,"object-25","Rating","happy","not happy","happy",5,"",NA,NA,NA,NA,NA,"Left",NA,-7.67,NA,NA,NA,NA,-2.67,"MDPRF38095"
"67",1730467683791,"01/11/2024 13:28:03",1730467683791,0,"01/11/2024 13:28:03",193496,6,"task-7wst",NA,41048155,11986060,NA,"complete",NA,"6724cde33934138679257f61","computer","Desktop or Laptop","Windows 10","Chrome 130.0.0.0","1494x934","1494x882",NA,NA,0,"Gambling_GBO",15,"In","DECFBGAHKIJ",NA,"In","HM_OCT","seq1","Gamble_Rand_Seq1","Gamble_Rand_Seq1",14,"Rating","Screen 1","hx8b5a",1,"response","80",5100.30000000002,6033.30000000002,6040.39999999703,5100.30000000002,6033.30000000002,6040.39999999703,1,5100.30000000002,940.099999997008,0,NA,"Slider","MoodSlider",2,"object-243","Rating","happy","not happy","happy",5,"",NA,NA,NA,NA,NA,"Left",NA,-7.67,NA,NA,NA,NA,-2.67,"MDPRF38095"
"68",1730467683801,"01/11/2024 13:28:03",1730467683801,0,"01/11/2024 13:28:03",193496,6,"task-7wst",NA,41048155,11986060,NA,"complete",NA,"6724cde33934138679257f61","computer","Desktop or Laptop","Windows 10","Chrome 130.0.0.0","1494x934","1494x882",NA,NA,0,"Gambling_GBO",15,"In","DECFBGAHKIJ",NA,"In","HM_OCT","seq1","Gamble_Rand_Seq1","Gamble_Rand_Seq1",15,"Rating","Screen 1","hx8b5a",1,"info","",15.8000000000175,0,15.8000000000175,15.8000000000175,0,15.8000000000175,1,15.8000000000175,0,0,NA,"Slider","MoodSlider",2,"object-243","Rating","frustrated","not frustrated","frustrated",5,"",NA,NA,NA,NA,NA,"Left",NA,-7.67,NA,NA,NA,NA,-2.67,"MDPRF38095"
"69",1730467687050,"01/11/2024 13:28:07",1730467687050,0,"01/11/2024 13:28:07",193496,6,"task-7wst",NA,41048155,11986060,NA,"complete",NA,"6724cde33934138679257f61","computer","Desktop or Laptop","Windows 10","Chrome 130.0.0.0","1494x934","1494x882",NA,NA,0,"Gambling_GBO",15,"In","DECFBGAHKIJ",NA,"In","HM_OCT","seq1","Gamble_Rand_Seq1","Gamble_Rand_Seq1",15,"Rating","Screen 1","hx8b5a",1,"continue","",3265.59999999701,3250,3265.59999999701,3265.59999999701,3250,3265.59999999701,1,3265.59999999701,0,0,NA,"Click To Continue","Continue Button",3,"object-25","Rating","frustrated","not frustrated","frustrated",5,"",NA,NA,NA,NA,NA,"Left",NA,-7.67,NA,NA,NA,NA,-2.67,"MDPRF38095"
"70",1730467687050,"01/11/2024 13:28:07",1730467687050,0,"01/11/2024 13:28:07",193496,6,"task-7wst",NA,41048155,11986060,NA,"complete",NA,"6724cde33934138679257f61","computer","Desktop or Laptop","Windows 10","Chrome 130.0.0.0","1494x934","1494x882",NA,NA,0,"Gambling_GBO",15,"In","DECFBGAHKIJ",NA,"In","HM_OCT","seq1","Gamble_Rand_Seq1","Gamble_Rand_Seq1",15,"Rating","Screen 1","hx8b5a",1,"response","8",1733.39999999999,3250,3266.09999999701,1733.39999999999,3250,3266.09999999701,1,1733.39999999999,1532.69999999701,0,NA,"Slider","MoodSlider",2,"object-243","Rating","frustrated","not frustrated","frustrated",5,"",NA,NA,NA,NA,NA,"Left",NA,-7.67,NA,NA,NA,NA,-2.67,"MDPRF38095"
"71",1730467689002,"01/11/2024 13:28:09",1730467689002,0,"01/11/2024 13:28:09",193496,6,"task-7wst",NA,41048155,11986060,NA,"complete",NA,"6724cde33934138679257f61","computer","Desktop or Laptop","Windows 10","Chrome 130.0.0.0","1494x934","1494x882",NA,NA,0,"Gambling_GBO",15,"In","DECFBGAHKIJ",NA,"In","HM_OCT","seq1","Gamble_Rand_Seq1","Gamble_Rand_Seq1",1,"winT","Screen 1","np5pnj",1,"continue","",1967.19999999998,1967.19999999998,1967.19999999998,1967.19999999998,1967.19999999998,1967.19999999998,1,1967.19999999998,0,0,NA,"Fixation Timing","Fixation",1,"object-304","winT","","","",NA,"Right",-2,-3,0,5,NA,"Left",NA,-7.67,NA,NA,NA,NA,-2.67,"MDPRF38095"
"72",1730467695688,"01/11/2024 13:28:15",1730467695688,0,"01/11/2024 13:28:15",193496,6,"task-7wst",NA,41048155,11986060,NA,"complete",NA,"6724cde33934138679257f61","computer","Desktop or Laptop","Windows 10","Chrome 130.0.0.0","1494x934","1494x882",NA,NA,0,"Gambling_GBO",15,"In","DECFBGAHKIJ",NA,"In","HM_OCT","seq1","Gamble_Rand_Seq1","Gamble_Rand_Seq1",1,"winT","choice","gu8zgx",2,"response","Left",6683.80000000002,6666.80000000002,6683.80000000002,6683.80000000002,6666.80000000002,6683.80000000002,0,6683.80000000002,0,0,NA,"Keyboard Response","KeyResponseC",5,"object-325","winT","","","",NA,"Right",-2,-3,0,5,NA,"Left",NA,-9.67,NA,NA,NA,NA,-2,"MDPRF38095"
"73",1730467700669,"01/11/2024 13:28:20",1730467700669,0,"01/11/2024 13:28:20",193496,6,"task-7wst",NA,41048155,11986060,NA,"complete",NA,"6724cde33934138679257f61","computer","Desktop or Laptop","Windows 10","Chrome 130.0.0.0","1494x934","1494x882",NA,NA,0,"Gambling_GBO",15,"In","DECFBGAHKIJ",NA,"In","HM_OCT","seq1","Gamble_Rand_Seq1","Gamble_Rand_Seq1",1,"winT","certain","q11kp8",3,"timedOut","",5000.6999999985,4999.69999999998,5000.6999999985,5000.6999999985,4999.69999999998,5000.6999999985,1,5000.6999999985,0,0,NA,"Time Limit","screen",0,"screen","winT","","","",NA,"Right",-2,-3,0,5,NA,"Left",NA,-9.67,NA,NA,NA,NA,-2,"MDPRF38095"
"74",1730467700677,"01/11/2024 13:28:20",1730467700677,0,"01/11/2024 13:28:20",193496,6,"task-7wst",NA,41048155,11986060,NA,"complete",NA,"6724cde33934138679257f61","computer","Desktop or Laptop","Windows 10","Chrome 130.0.0.0","1494x934","1494x882",NA,NA,0,"Gambling_GBO",15,"In","DECFBGAHKIJ",NA,"In","HM_OCT","seq1","Gamble_Rand_Seq1","Gamble_Rand_Seq1",16,"Rating","Screen 1","hx8b5a",1,"info","",8.9999999985157,0,8.9999999985157,8.9999999985157,0,8.9999999985157,1,8.9999999985157,0,0,NA,"Slider","MoodSlider",2,"object-243","Rating","frustrated","not frustrated","frustrated",6,"",NA,NA,NA,NA,NA,"Left",NA,-9.67,NA,NA,NA,NA,-2,"MDPRF38095"
"75",1730467708982,"01/11/2024 13:28:28",1730467708982,0,"01/11/2024 13:28:28",193496,6,"task-7wst",NA,41048155,11986060,NA,"complete",NA,"6724cde33934138679257f61","computer","Desktop or Laptop","Windows 10","Chrome 130.0.0.0","1494x934","1494x882",NA,NA,0,"Gambling_GBO",15,"In","DECFBGAHKIJ",NA,"In","HM_OCT","seq1","Gamble_Rand_Seq1","Gamble_Rand_Seq1",16,"Rating","Screen 1","hx8b5a",1,"continue","",8314.19999999405,8299.60000000001,8314.19999999405,8314.19999999405,8299.60000000001,8314.19999999405,1,8314.19999999405,0,0,NA,"Click To Continue","Continue Button",3,"object-25","Rating","frustrated","not frustrated","frustrated",6,"",NA,NA,NA,NA,NA,"Left",NA,-9.67,NA,NA,NA,NA,-2,"MDPRF38095"
"76",1730467708986,"01/11/2024 13:28:28",1730467708986,0,"01/11/2024 13:28:28",193496,6,"task-7wst",NA,41048155,11986060,NA,"complete",NA,"6724cde33934138679257f61","computer","Desktop or Laptop","Windows 10","Chrome 130.0.0.0","1494x934","1494x882",NA,NA,0,"Gambling_GBO",15,"In","DECFBGAHKIJ",NA,"In","HM_OCT","seq1","Gamble_Rand_Seq1","Gamble_Rand_Seq1",16,"Rating","Screen 1","hx8b5a",1,"response","12",6116.10000000001,8299.60000000001,8315.80000000002,6116.10000000001,8299.60000000001,8315.80000000002,1,6116.10000000001,2199.70000000001,0,NA,"Slider","MoodSlider",2,"object-243","Rating","frustrated","not frustrated","frustrated",6,"",NA,NA,NA,NA,NA,"Left",NA,-9.67,NA,NA,NA,NA,-2,"MDPRF38095"
"77",1730467708993,"01/11/2024 13:28:28",1730467708993,0,"01/11/2024 13:28:28",193496,6,"task-7wst",NA,41048155,11986060,NA,"complete",NA,"6724cde33934138679257f61","computer","Desktop or Laptop","Windows 10","Chrome 130.0.0.0","1494x934","1494x882",NA,NA,0,"Gambling_GBO",15,"In","DECFBGAHKIJ",NA,"In","HM_OCT","seq1","Gamble_Rand_Seq1","Gamble_Rand_Seq1",17,"Rating","Screen 1","hx8b5a",1,"info","",16.2000000000116,0,16.2000000000116,16.2000000000116,0,16.2000000000116,1,16.2000000000116,0,0,NA,"Slider","MoodSlider",2,"object-243","Rating","bored","not bored","bored",6,"",NA,NA,NA,NA,NA,"Left",NA,-9.67,NA,NA,NA,NA,-2,"MDPRF38095"
"78",1730467713015,"01/11/2024 13:28:33",1730467713015,0,"01/11/2024 13:28:33",193496,6,"task-7wst",NA,41048155,11986060,NA,"complete",NA,"6724cde33934138679257f61","computer","Desktop or Laptop","Windows 10","Chrome 130.0.0.0","1494x934","1494x882",NA,NA,0,"Gambling_GBO",15,"In","DECFBGAHKIJ",NA,"In","HM_OCT","seq1","Gamble_Rand_Seq1","Gamble_Rand_Seq1",17,"Rating","Screen 1","hx8b5a",1,"continue","",4047.5,4034,4047.5,4047.5,4034,4047.5,1,4047.5,0,0,NA,"Click To Continue","Continue Button",3,"object-25","Rating","bored","not bored","bored",6,"",NA,NA,NA,NA,NA,"Left",NA,-9.67,NA,NA,NA,NA,-2,"MDPRF38095"
"79",1730467713016,"01/11/2024 13:28:33",1730467713016,0,"01/11/2024 13:28:33",193496,6,"task-7wst",NA,41048155,11986060,NA,"complete",NA,"6724cde33934138679257f61","computer","Desktop or Laptop","Windows 10","Chrome 130.0.0.0","1494x934","1494x882",NA,NA,0,"Gambling_GBO",15,"In","DECFBGAHKIJ",NA,"In","HM_OCT","seq1","Gamble_Rand_Seq1","Gamble_Rand_Seq1",17,"Rating","Screen 1","hx8b5a",1,"response","17",2982.79999999999,4034,4048.29999999702,2982.79999999999,4034,4048.29999999702,1,2982.79999999999,1065.49999999703,0,NA,"Slider","MoodSlider",2,"object-243","Rating","bored","not bored","bored",6,"",NA,NA,NA,NA,NA,"Left",NA,-9.67,NA,NA,NA,NA,-2,"MDPRF38095"
"80",1730467713025,"01/11/2024 13:28:33",1730467713025,0,"01/11/2024 13:28:33",193496,6,"task-7wst",NA,41048155,11986060,NA,"complete",NA,"6724cde33934138679257f61","computer","Desktop or Laptop","Windows 10","Chrome 130.0.0.0","1494x934","1494x882",NA,NA,0,"Gambling_GBO",15,"In","DECFBGAHKIJ",NA,"In","HM_OCT","seq1","Gamble_Rand_Seq1","Gamble_Rand_Seq1",18,"Rating","Screen 1","hx8b5a",1,"info","",17.7000000000116,0,17.7000000000116,17.7000000000116,0,17.7000000000116,1,17.7000000000116,0,0,NA,"Slider","MoodSlider",2,"object-243","Rating","happy","not happy","happy",6,"",NA,NA,NA,NA,NA,"Left",NA,-9.67,NA,NA,NA,NA,-2,"MDPRF38095"
"81",1730467723010,"01/11/2024 13:28:43",1730467723010,0,"01/11/2024 13:28:43",193496,6,"task-7wst",NA,41048155,11986060,NA,"complete",NA,"6724cde33934138679257f61","computer","Desktop or Laptop","Windows 10","Chrome 130.0.0.0","1494x934","1494x882",NA,NA,0,"Gambling_GBO",15,"In","DECFBGAHKIJ",NA,"In","HM_OCT","seq1","Gamble_Rand_Seq1","Gamble_Rand_Seq1",18,"Rating","Screen 1","hx8b5a",1,"continue","",10008.099999994,10000.3,10008.099999994,10008.099999994,10000.3,10008.099999994,1,10008.099999994,0,0,NA,"Click To Continue","Continue Button",3,"object-25","Rating","happy","not happy","happy",6,"",NA,NA,NA,NA,NA,"Left",NA,-9.67,NA,NA,NA,NA,-2,"MDPRF38095"
"82",1730467723014,"01/11/2024 13:28:43",1730467723014,0,"01/11/2024 13:28:43",193496,6,"task-7wst",NA,41048155,11986060,NA,"complete",NA,"6724cde33934138679257f61","computer","Desktop or Laptop","Windows 10","Chrome 130.0.0.0","1494x934","1494x882",NA,NA,0,"Gambling_GBO",15,"In","DECFBGAHKIJ",NA,"In","HM_OCT","seq1","Gamble_Rand_Seq1","Gamble_Rand_Seq1",18,"Rating","Screen 1","hx8b5a",1,"response","69",6565.39999999999,10000.3,10012.299999997,6565.39999999999,10000.3,10012.299999997,1,6565.39999999999,3446.89999999703,0,NA,"Slider","MoodSlider",2,"object-243","Rating","happy","not happy","happy",6,"",NA,NA,NA,NA,NA,"Left",NA,-9.67,NA,NA,NA,NA,-2,"MDPRF38095"
"83",1730467724968,"01/11/2024 13:28:44",1730467724968,0,"01/11/2024 13:28:44",193496,6,"task-7wst",NA,41048155,11986060,NA,"complete",NA,"6724cde33934138679257f61","computer","Desktop or Laptop","Windows 10","Chrome 130.0.0.0","1494x934","1494x882",NA,NA,0,"Gambling_GBO",15,"In","DECFBGAHKIJ",NA,"In","HM_OCT","seq1","Gamble_Rand_Seq1","Gamble_Rand_Seq1",3,"lossB","Screen 1","a4fynh",1,"continue","",1965.80000000002,1965.80000000002,1965.80000000002,1965.80000000002,1965.80000000002,1965.80000000002,1,1965.80000000002,0,0,NA,"Fixation Timing","Fixation",1,"object-113","lossB","","","",NA,"Right",0.67,-1,4,6,NA,"Left",NA,-9.67,NA,NA,NA,NA,-2,"MDPRF38095"
"84",1730467735346,"01/11/2024 13:28:55",1730467735346,0,"01/11/2024 13:28:55",193496,6,"task-7wst",NA,41048155,11986060,NA,"complete",NA,"6724cde33934138679257f61","computer","Desktop or Laptop","Windows 10","Chrome 130.0.0.0","1494x934","1494x882",NA,NA,0,"Gambling_GBO",15,"In","DECFBGAHKIJ",NA,"In","HM_OCT","seq1","Gamble_Rand_Seq1","Gamble_Rand_Seq1",3,"lossB","choice","k9qq8f",2,"response","Left",10376.4,10366.4,10376.4,10376.4,10366.4,10376.4,0,10376.4,0,0,NA,"Keyboard Response","KeyResponseC",5,"object-199","lossB","","","",NA,"Right",0.67,-1,4,6,NA,"Left",NA,-9,NA,NA,NA,NA,0.67,"MDPRF38095"
"85",1730467740334,"01/11/2024 13:29:00",1730467740334,0,"01/11/2024 13:29:00",193496,6,"task-7wst",NA,41048155,11986060,NA,"complete",NA,"6724cde33934138679257f61","computer","Desktop or Laptop","Windows 10","Chrome 130.0.0.0","1494x934","1494x882",NA,NA,0,"Gambling_GBO",15,"In","DECFBGAHKIJ",NA,"In","HM_OCT","seq1","Gamble_Rand_Seq1","Gamble_Rand_Seq1",3,"lossB","certain","rptf8c",3,"timedOut","",5000.09999999404,4999.29999999999,5000.09999999404,5000.09999999404,4999.29999999999,5000.09999999404,1,5000.09999999404,0,0,NA,"Time Limit","screen",0,"screen","lossB","","","",NA,"Right",0.67,-1,4,6,NA,"Left",NA,-9,NA,NA,NA,NA,0.67,"MDPRF38095"
"86",1730467740342,"01/11/2024 13:29:00",1730467740342,0,"01/11/2024 13:29:00",193496,6,"task-7wst",NA,41048155,11986060,NA,"complete",NA,"6724cde33934138679257f61","computer","Desktop or Laptop","Windows 10","Chrome 130.0.0.0","1494x934","1494x882",NA,NA,0,"Gambling_GBO",15,"In","DECFBGAHKIJ",NA,"In","HM_OCT","seq1","Gamble_Rand_Seq1","Gamble_Rand_Seq1",19,"Rating","Screen 1","hx8b5a",1,"info","",9.09999999852152,0,9.09999999852152,9.09999999852152,0,9.09999999852152,1,9.09999999852152,0,0,NA,"Slider","MoodSlider",2,"object-243","Rating","happy","not happy","happy",7,"",NA,NA,NA,NA,NA,"Left",NA,-9,NA,NA,NA,NA,0.67,"MDPRF38095"
"87",1730467748381,"01/11/2024 13:29:08",1730467748381,0,"01/11/2024 13:29:08",193496,6,"task-7wst",NA,41048155,11986060,NA,"complete",NA,"6724cde33934138679257f61","computer","Desktop or Laptop","Windows 10","Chrome 130.0.0.0","1494x934","1494x882",NA,NA,0,"Gambling_GBO",15,"In","DECFBGAHKIJ",NA,"In","HM_OCT","seq1","Gamble_Rand_Seq1","Gamble_Rand_Seq1",19,"Rating","Screen 1","hx8b5a",1,"continue","",8047.59999999852,8034.70000000001,8047.59999999852,8047.59999999852,8034.70000000001,8047.59999999852,1,8047.59999999852,0,0,NA,"Click To Continue","Continue Button",3,"object-25","Rating","happy","not happy","happy",7,"",NA,NA,NA,NA,NA,"Left",NA,-9,NA,NA,NA,NA,0.67,"MDPRF38095"
"88",1730467748384,"01/11/2024 13:29:08",1730467748384,0,"01/11/2024 13:29:08",193496,6,"task-7wst",NA,41048155,11986060,NA,"complete",NA,"6724cde33934138679257f61","computer","Desktop or Laptop","Windows 10","Chrome 130.0.0.0","1494x934","1494x882",NA,NA,0,"Gambling_GBO",15,"In","DECFBGAHKIJ",NA,"In","HM_OCT","seq1","Gamble_Rand_Seq1","Gamble_Rand_Seq1",19,"Rating","Screen 1","hx8b5a",1,"response","74",2283.40000000002,8034.70000000001,8050.89999999554,2283.40000000002,8034.70000000001,8050.89999999554,1,2283.40000000002,5767.49999999552,0,NA,"Slider","MoodSlider",2,"object-243","Rating","happy","not happy","happy",7,"",NA,NA,NA,NA,NA,"Left",NA,-9,NA,NA,NA,NA,0.67,"MDPRF38095"
"89",1730467748394,"01/11/2024 13:29:08",1730467748394,0,"01/11/2024 13:29:08",193496,6,"task-7wst",NA,41048155,11986060,NA,"complete",NA,"6724cde33934138679257f61","computer","Desktop or Laptop","Windows 10","Chrome 130.0.0.0","1494x934","1494x882",NA,NA,0,"Gambling_GBO",15,"In","DECFBGAHKIJ",NA,"In","HM_OCT","seq1","Gamble_Rand_Seq1","Gamble_Rand_Seq1",20,"Rating","Screen 1","hx8b5a",1,"info","",16.7999999999884,0,16.7999999999884,16.7999999999884,0,16.7999999999884,1,16.7999999999884,0,0,NA,"Slider","MoodSlider",2,"object-243","Rating","frustrated","not frustrated","frustrated",7,"",NA,NA,NA,NA,NA,"Left",NA,-9,NA,NA,NA,NA,0.67,"MDPRF38095"
"90",1730467763507,"01/11/2024 13:29:23",1730467763507,0,"01/11/2024 13:29:23",193496,6,"task-7wst",NA,41048155,11986060,NA,"complete",NA,"6724cde33934138679257f61","computer","Desktop or Laptop","Windows 10","Chrome 130.0.0.0","1494x934","1494x882",NA,NA,0,"Gambling_GBO",15,"In","DECFBGAHKIJ",NA,"In","HM_OCT","seq1","Gamble_Rand_Seq1","Gamble_Rand_Seq1",20,"Rating","Screen 1","hx8b5a",1,"continue","",15139.799999997,15132.5,15139.799999997,15139.799999997,15132.5,15139.799999997,1,15139.799999997,0,0,NA,"Click To Continue","Continue Button",3,"object-25","Rating","frustrated","not frustrated","frustrated",7,"",NA,NA,NA,NA,NA,"Left",NA,-9,NA,NA,NA,NA,0.67,"MDPRF38095"
"91",1730467763512,"01/11/2024 13:29:23",1730467763512,0,"01/11/2024 13:29:23",193496,6,"task-7wst",NA,41048155,11986060,NA,"complete",NA,"6724cde33934138679257f61","computer","Desktop or Laptop","Windows 10","Chrome 130.0.0.0","1494x934","1494x882",NA,NA,0,"Gambling_GBO",15,"In","DECFBGAHKIJ",NA,"In","HM_OCT","seq1","Gamble_Rand_Seq1","Gamble_Rand_Seq1",20,"Rating","Screen 1","hx8b5a",1,"response","25",11999.3,15132.5,15144,11999.3,15132.5,15144,1,11999.3,3144.70000000001,0,NA,"Slider","MoodSlider",2,"object-243","Rating","frustrated","not frustrated","frustrated",7,"",NA,NA,NA,NA,NA,"Left",NA,-9,NA,NA,NA,NA,0.67,"MDPRF38095"
"92",1730467763519,"01/11/2024 13:29:23",1730467763519,0,"01/11/2024 13:29:23",193496,6,"task-7wst",NA,41048155,11986060,NA,"complete",NA,"6724cde33934138679257f61","computer","Desktop or Laptop","Windows 10","Chrome 130.0.0.0","1494x934","1494x882",NA,NA,0,"Gambling_GBO",15,"In","DECFBGAHKIJ",NA,"In","HM_OCT","seq1","Gamble_Rand_Seq1","Gamble_Rand_Seq1",21,"Rating","Screen 1","hx8b5a",1,"info","",16.8999999999942,0,16.8999999999942,16.8999999999942,0,16.8999999999942,1,16.8999999999942,0,0,NA,"Slider","MoodSlider",2,"object-243","Rating","bored","not bored","bored",7,"",NA,NA,NA,NA,NA,"Left",NA,-9,NA,NA,NA,NA,0.67,"MDPRF38095"
"93",1730467768119,"01/11/2024 13:29:28",1730467768119,0,"01/11/2024 13:29:28",193496,6,"task-7wst",NA,41048155,11986060,NA,"complete",NA,"6724cde33934138679257f61","computer","Desktop or Laptop","Windows 10","Chrome 130.0.0.0","1494x934","1494x882",NA,NA,0,"Gambling_GBO",15,"In","DECFBGAHKIJ",NA,"In","HM_OCT","seq1","Gamble_Rand_Seq1","Gamble_Rand_Seq1",21,"Rating","Screen 1","hx8b5a",1,"continue","",4616.5,4599.89999999999,4616.5,4616.5,4599.89999999999,4616.5,1,4616.5,0,0,NA,"Click To Continue","Continue Button",3,"object-25","Rating","bored","not bored","bored",7,"",NA,NA,NA,NA,NA,"Left",NA,-9,NA,NA,NA,NA,0.67,"MDPRF38095"
"94",1730467768120,"01/11/2024 13:29:28",1730467768120,0,"01/11/2024 13:29:28",193496,6,"task-7wst",NA,41048155,11986060,NA,"complete",NA,"6724cde33934138679257f61","computer","Desktop or Laptop","Windows 10","Chrome 130.0.0.0","1494x934","1494x882",NA,NA,0,"Gambling_GBO",15,"In","DECFBGAHKIJ",NA,"In","HM_OCT","seq1","Gamble_Rand_Seq1","Gamble_Rand_Seq1",21,"Rating","Screen 1","hx8b5a",1,"response","17",3149.79999999999,4599.89999999999,4616.5,3149.79999999999,4599.89999999999,4616.5,1,3149.79999999999,1466.70000000001,0,NA,"Slider","MoodSlider",2,"object-243","Rating","bored","not bored","bored",7,"",NA,NA,NA,NA,NA,"Left",NA,-9,NA,NA,NA,NA,0.67,"MDPRF38095"
"95",1730467770051,"01/11/2024 13:29:30",1730467770051,0,"01/11/2024 13:29:30",193496,6,"task-7wst",NA,41048155,11986060,NA,"complete",NA,"6724cde33934138679257f61","computer","Desktop or Laptop","Windows 10","Chrome 130.0.0.0","1494x934","1494x882",NA,NA,0,"Gambling_GBO",15,"In","DECFBGAHKIJ",NA,"In","HM_OCT","seq1","Gamble_Rand_Seq1","Gamble_Rand_Seq1",1,"lossT","Screen 1","2oxi65",1,"continue","",1949.20000000001,1949.20000000001,1949.20000000001,1949.20000000001,1949.20000000001,1949.20000000001,1,1949.20000000001,0,0,NA,"Fixation Timing","Fixation",1,"object-354","lossT","","","",NA,"Right",-0.33,-1,1,7,NA,"Left",NA,-9,NA,NA,NA,NA,0.67,"MDPRF38095"
"96",1730467772401,"01/11/2024 13:29:32",1730467772401,0,"01/11/2024 13:29:32",193496,6,"task-7wst",NA,41048155,11986060,NA,"complete",NA,"6724cde33934138679257f61","computer","Desktop or Laptop","Windows 10","Chrome 130.0.0.0","1494x934","1494x882",NA,NA,0,"Gambling_GBO",15,"In","DECFBGAHKIJ",NA,"In","HM_OCT","seq1","Gamble_Rand_Seq1","Gamble_Rand_Seq1",1,"lossT","choice","zjftf8",2,"response","Right",2350.70000000001,2334,2350.70000000001,2350.70000000001,2334,2350.70000000001,1,2350.70000000001,0,0,NA,"Keyboard Response","KeyResponseG",6,"object-352","lossT","","","",NA,"Right",-0.33,-1,1,7,NA,"Right",NA,-10,NA,NA,NA,NA,-1,"MDPRF38095"
"97",1730467776384,"01/11/2024 13:29:36",1730467776384,0,"01/11/2024 13:29:36",193496,6,"task-7wst",NA,41048155,11986060,NA,"complete",NA,"6724cde33934138679257f61","computer","Desktop or Laptop","Windows 10","Chrome 130.0.0.0","1494x934","1494x882",NA,NA,0,"Gambling_GBO",15,"In","DECFBGAHKIJ",NA,"In","HM_OCT","seq1","Gamble_Rand_Seq1","Gamble_Rand_Seq1",1,"lossT","gamble","h5bf9r",3,"timedOut","",4000.7999999985,4000,4000.7999999985,4000.7999999985,4000,4000.7999999985,1,4000.7999999985,0,0,NA,"Time Limit","screen",0,"screen","lossT","","","",NA,"Right",-0.33,-1,1,7,NA,"Right",NA,-10,NA,NA,NA,NA,-1,"MDPRF38095"
"98",1730467777384,"01/11/2024 13:29:37",1730467777384,0,"01/11/2024 13:29:37",193496,6,"task-7wst",NA,41048155,11986060,NA,"complete",NA,"6724cde33934138679257f61","computer","Desktop or Laptop","Windows 10","Chrome 130.0.0.0","1494x934","1494x882",NA,NA,0,"Gambling_GBO",15,"In","DECFBGAHKIJ",NA,"In","HM_OCT","seq1","Gamble_Rand_Seq1","Gamble_Rand_Seq1",1,"lossT","loss","kmnw8b",4,"timedOut","",1000.7999999985,999.799999999988,1000.7999999985,1000.7999999985,999.799999999988,1000.7999999985,1,1000.7999999985,0,0,NA,"Time Limit","screen",0,"screen","lossT","","","",NA,"Right",-0.33,-1,1,7,NA,"Right",NA,-10,NA,NA,NA,NA,-1,"MDPRF38095"
"99",1730467777394,"01/11/2024 13:29:37",1730467777394,0,"01/11/2024 13:29:37",193496,6,"task-7wst",NA,41048155,11986060,NA,"complete",NA,"6724cde33934138679257f61","computer","Desktop or Laptop","Windows 10","Chrome 130.0.0.0","1494x934","1494x882",NA,NA,0,"Gambling_GBO",15,"In","DECFBGAHKIJ",NA,"In","HM_OCT","seq1","Gamble_Rand_Seq1","Gamble_Rand_Seq1",22,"Rating","Screen 1","hx8b5a",1,"info","",10.6999999940454,0,10.6999999940454,10.6999999940454,0,10.6999999940454,1,10.6999999940454,0,0,NA,"Slider","MoodSlider",2,"object-243","Rating","happy","not happy","happy",8,"",NA,NA,NA,NA,NA,"Right",NA,-10,NA,NA,NA,NA,-1,"MDPRF38095"
"100",1730467789269,"01/11/2024 13:29:49",1730467789269,0,"01/11/2024 13:29:49",193496,6,"task-7wst",NA,41048155,11986060,NA,"complete",NA,"6724cde33934138679257f61","computer","Desktop or Laptop","Windows 10","Chrome 130.0.0.0","1494x934","1494x882",NA,NA,0,"Gambling_GBO",15,"In","DECFBGAHKIJ",NA,"In","HM_OCT","seq1","Gamble_Rand_Seq1","Gamble_Rand_Seq1",22,"Rating","Screen 1","hx8b5a",1,"continue","",11885.7999999955,11882.5,11885.7999999955,11885.7999999955,11882.5,11885.7999999955,1,11885.7999999955,0,0,NA,"Click To Continue","Continue Button",3,"object-25","Rating","happy","not happy","happy",8,"",NA,NA,NA,NA,NA,"Right",NA,-10,NA,NA,NA,NA,-1,"MDPRF38095"
"101",1730467789271,"01/11/2024 13:29:49",1730467789271,0,"01/11/2024 13:29:49",193496,6,"task-7wst",NA,41048155,11986060,NA,"complete",NA,"6724cde33934138679257f61","computer","Desktop or Laptop","Windows 10","Chrome 130.0.0.0","1494x934","1494x882",NA,NA,0,"Gambling_GBO",15,"In","DECFBGAHKIJ",NA,"In","HM_OCT","seq1","Gamble_Rand_Seq1","Gamble_Rand_Seq1",22,"Rating","Screen 1","hx8b5a",1,"response","80",10616.8,11882.5,11888.399999997,10616.8,11882.5,11888.399999997,1,10616.8,1271.59999999701,0,NA,"Slider","MoodSlider",2,"object-243","Rating","happy","not happy","happy",8,"",NA,NA,NA,NA,NA,"Right",NA,-10,NA,NA,NA,NA,-1,"MDPRF38095"
"102",1730467789280,"01/11/2024 13:29:49",1730467789280,0,"01/11/2024 13:29:49",193496,6,"task-7wst",NA,41048155,11986060,NA,"complete",NA,"6724cde33934138679257f61","computer","Desktop or Laptop","Windows 10","Chrome 130.0.0.0","1494x934","1494x882",NA,NA,0,"Gambling_GBO",15,"In","DECFBGAHKIJ",NA,"In","HM_OCT","seq1","Gamble_Rand_Seq1","Gamble_Rand_Seq1",23,"Rating","Screen 1","hx8b5a",1,"info","",14.2999999955355,0,14.2999999955355,14.2999999955355,0,14.2999999955355,1,14.2999999955355,0,0,NA,"Slider","MoodSlider",2,"object-243","Rating","bored","not bored","bored",8,"",NA,NA,NA,NA,NA,"Right",NA,-10,NA,NA,NA,NA,-1,"MDPRF38095"
"103",1730467791870,"01/11/2024 13:29:51",1730467791870,0,"01/11/2024 13:29:51",193496,6,"task-7wst",NA,41048155,11986060,NA,"complete",NA,"6724cde33934138679257f61","computer","Desktop or Laptop","Windows 10","Chrome 130.0.0.0","1494x934","1494x882",NA,NA,0,"Gambling_GBO",15,"In","DECFBGAHKIJ",NA,"In","HM_OCT","seq1","Gamble_Rand_Seq1","Gamble_Rand_Seq1",23,"Rating","Screen 1","hx8b5a",1,"continue","",2604.99999999852,2600.30000000002,2604.99999999852,2604.99999999852,2600.30000000002,2604.99999999852,1,2604.99999999852,0,0,NA,"Click To Continue","Continue Button",3,"object-25","Rating","bored","not bored","bored",8,"",NA,NA,NA,NA,NA,"Right",NA,-10,NA,NA,NA,NA,-1,"MDPRF38095"
"104",1730467791871,"01/11/2024 13:29:51",1730467791871,0,"01/11/2024 13:29:51",193496,6,"task-7wst",NA,41048155,11986060,NA,"complete",NA,"6724cde33934138679257f61","computer","Desktop or Laptop","Windows 10","Chrome 130.0.0.0","1494x934","1494x882",NA,NA,0,"Gambling_GBO",15,"In","DECFBGAHKIJ",NA,"In","HM_OCT","seq1","Gamble_Rand_Seq1","Gamble_Rand_Seq1",23,"Rating","Screen 1","hx8b5a",1,"response","24",1516.70000000001,2600.30000000002,2605.49999999852,1516.70000000001,2600.30000000002,2605.49999999852,1,1516.70000000001,1088.7999999985,0,NA,"Slider","MoodSlider",2,"object-243","Rating","bored","not bored","bored",8,"",NA,NA,NA,NA,NA,"Right",NA,-10,NA,NA,NA,NA,-1,"MDPRF38095"
"105",1730467791878,"01/11/2024 13:29:51",1730467791878,0,"01/11/2024 13:29:51",193496,6,"task-7wst",NA,41048155,11986060,NA,"complete",NA,"6724cde33934138679257f61","computer","Desktop or Laptop","Windows 10","Chrome 130.0.0.0","1494x934","1494x882",NA,NA,0,"Gambling_GBO",15,"In","DECFBGAHKIJ",NA,"In","HM_OCT","seq1","Gamble_Rand_Seq1","Gamble_Rand_Seq1",24,"Rating","Screen 1","hx8b5a",1,"info","",12.499999995518,0,12.499999995518,12.499999995518,0,12.499999995518,1,12.499999995518,0,0,NA,"Slider","MoodSlider",2,"object-243","Rating","frustrated","not frustrated","frustrated",8,"",NA,NA,NA,NA,NA,"Right",NA,-10,NA,NA,NA,NA,-1,"MDPRF38095"
"106",1730467794700,"01/11/2024 13:29:54",1730467794700,0,"01/11/2024 13:29:54",193496,6,"task-7wst",NA,41048155,11986060,NA,"complete",NA,"6724cde33934138679257f61","computer","Desktop or Laptop","Windows 10","Chrome 130.0.0.0","1494x934","1494x882",NA,NA,0,"Gambling_GBO",15,"In","DECFBGAHKIJ",NA,"In","HM_OCT","seq1","Gamble_Rand_Seq1","Gamble_Rand_Seq1",24,"Rating","Screen 1","hx8b5a",1,"continue","",2833.10000000001,2816.5,2833.10000000001,2833.10000000001,2816.5,2833.10000000001,1,2833.10000000001,0,0,NA,"Click To Continue","Continue Button",3,"object-25","Rating","frustrated","not frustrated","frustrated",8,"",NA,NA,NA,NA,NA,"Right",NA,-10,NA,NA,NA,NA,-1,"MDPRF38095"
"107",1730467794700,"01/11/2024 13:29:54",1730467794700,0,"01/11/2024 13:29:54",193496,6,"task-7wst",NA,41048155,11986060,NA,"complete",NA,"6724cde33934138679257f61","computer","Desktop or Laptop","Windows 10","Chrome 130.0.0.0","1494x934","1494x882",NA,NA,0,"Gambling_GBO",15,"In","DECFBGAHKIJ",NA,"In","HM_OCT","seq1","Gamble_Rand_Seq1","Gamble_Rand_Seq1",24,"Rating","Screen 1","hx8b5a",1,"response","22",1967.59999999998,2816.5,2833.10000000001,1967.59999999998,2816.5,2833.10000000001,1,1967.59999999998,865.500000000029,0,NA,"Slider","MoodSlider",2,"object-243","Rating","frustrated","not frustrated","frustrated",8,"",NA,NA,NA,NA,NA,"Right",NA,-10,NA,NA,NA,NA,-1,"MDPRF38095"
"108",1730467796651,"01/11/2024 13:29:56",1730467796651,0,"01/11/2024 13:29:56",193496,6,"task-7wst",NA,41048155,11986060,NA,"complete",NA,"6724cde33934138679257f61","computer","Desktop or Laptop","Windows 10","Chrome 130.0.0.0","1494x934","1494x882",NA,NA,0,"Gambling_GBO",15,"In","DECFBGAHKIJ",NA,"In","HM_OCT","seq1","Gamble_Rand_Seq1","Gamble_Rand_Seq1",2,"winT","Screen 1","np5pnj",1,"continue","",1967.29999999999,1967.29999999999,1967.29999999999,1967.29999999999,1967.29999999999,1967.29999999999,1,1967.29999999999,0,0,NA,"Fixation Timing","Fixation",1,"object-304","winT","","","",NA,"Right",1.33,0,4,8,NA,"Right",NA,-10,NA,NA,NA,NA,-1,"MDPRF38095"
"109",1730467800712,"01/11/2024 13:30:00",1730467800712,0,"01/11/2024 13:30:00",193496,6,"task-7wst",NA,41048155,11986060,NA,"complete",NA,"6724cde33934138679257f61","computer","Desktop or Laptop","Windows 10","Chrome 130.0.0.0","1494x934","1494x882",NA,NA,0,"Gambling_GBO",15,"In","DECFBGAHKIJ",NA,"In","HM_OCT","seq1","Gamble_Rand_Seq1","Gamble_Rand_Seq1",2,"winT","choice","gu8zgx",2,"response","Right",4061.69999999553,4049.70000000001,4061.69999999553,4061.69999999553,4049.70000000001,4061.69999999553,1,4061.69999999553,0,0,NA,"Keyboard Response","KeyResponseG",6,"object-326","winT","","","",NA,"Right",1.33,0,4,8,NA,"Right",NA,-6,NA,NA,NA,NA,4,"MDPRF38095"
"110",1730467804700,"01/11/2024 13:30:04",1730467804700,0,"01/11/2024 13:30:04",193496,6,"task-7wst",NA,41048155,11986060,NA,"complete",NA,"6724cde33934138679257f61","computer","Desktop or Laptop","Windows 10","Chrome 130.0.0.0","1494x934","1494x882",NA,NA,0,"Gambling_GBO",15,"In","DECFBGAHKIJ",NA,"In","HM_OCT","seq1","Gamble_Rand_Seq1","Gamble_Rand_Seq1",2,"winT","gamble","1lb69u",3,"timedOut","",4001.09999999701,4000.09999999998,4001.09999999701,4001.09999999701,4000.09999999998,4001.09999999701,1,4001.09999999701,0,0,NA,"Time Limit","screen",0,"screen","winT","","","",NA,"Right",1.33,0,4,8,NA,"Right",NA,-6,NA,NA,NA,NA,4,"MDPRF38095"
"111",1730467805700,"01/11/2024 13:30:05",1730467805700,0,"01/11/2024 13:30:05",193496,6,"task-7wst",NA,41048155,11986060,NA,"complete",NA,"6724cde33934138679257f61","computer","Desktop or Laptop","Windows 10","Chrome 130.0.0.0","1494x934","1494x882",NA,NA,0,"Gambling_GBO",15,"In","DECFBGAHKIJ",NA,"In","HM_OCT","seq1","Gamble_Rand_Seq1","Gamble_Rand_Seq1",2,"winT","win","dhtsbv",4,"timedOut","",1000.99999999703,1000,1000.99999999703,1000.99999999703,1000,1000.99999999703,1,1000.99999999703,0,0,NA,"Time Limit","screen",0,"screen","winT","","","",NA,"Right",1.33,0,4,8,NA,"Right",NA,-6,NA,NA,NA,NA,4,"MDPRF38095"
"112",1730467805709,"01/11/2024 13:30:05",1730467805709,0,"01/11/2024 13:30:05",193496,6,"task-7wst",NA,41048155,11986060,NA,"complete",NA,"6724cde33934138679257f61","computer","Desktop or Laptop","Windows 10","Chrome 130.0.0.0","1494x934","1494x882",NA,NA,0,"Gambling_GBO",15,"In","DECFBGAHKIJ",NA,"In","HM_OCT","seq1","Gamble_Rand_Seq1","Gamble_Rand_Seq1",25,"Rating","Screen 1","hx8b5a",1,"info","",9.29999999405118,0,9.29999999405118,9.29999999405118,0,9.29999999405118,1,9.29999999405118,0,0,NA,"Slider","MoodSlider",2,"object-243","Rating","happy","not happy","happy",9,"",NA,NA,NA,NA,NA,"Right",NA,-6,NA,NA,NA,NA,4,"MDPRF38095"
"113",1730467814200,"01/11/2024 13:30:14",1730467814200,0,"01/11/2024 13:30:14",193496,6,"task-7wst",NA,41048155,11986060,NA,"complete",NA,"6724cde33934138679257f61","computer","Desktop or Laptop","Windows 10","Chrome 130.0.0.0","1494x934","1494x882",NA,NA,0,"Gambling_GBO",15,"In","DECFBGAHKIJ",NA,"In","HM_OCT","seq1","Gamble_Rand_Seq1","Gamble_Rand_Seq1",25,"Rating","Screen 1","hx8b5a",1,"continue","",8500.49999999703,8483.90000000002,8500.49999999703,8500.49999999703,8483.90000000002,8500.49999999703,1,8500.49999999703,0,0,NA,"Click To Continue","Continue Button",3,"object-25","Rating","happy","not happy","happy",9,"",NA,NA,NA,NA,NA,"Right",NA,-6,NA,NA,NA,NA,4,"MDPRF38095"
"114",1730467814203,"01/11/2024 13:30:14",1730467814203,0,"01/11/2024 13:30:14",193496,6,"task-7wst",NA,41048155,11986060,NA,"complete",NA,"6724cde33934138679257f61","computer","Desktop or Laptop","Windows 10","Chrome 130.0.0.0","1494x934","1494x882",NA,NA,0,"Gambling_GBO",15,"In","DECFBGAHKIJ",NA,"In","HM_OCT","seq1","Gamble_Rand_Seq1","Gamble_Rand_Seq1",25,"Rating","Screen 1","hx8b5a",1,"response","71",6500.10000000003,8483.90000000002,8500.70000000001,6500.10000000003,8483.90000000002,8500.70000000001,1,6500.10000000003,2000.59999999998,0,NA,"Slider","MoodSlider",2,"object-243","Rating","happy","not happy","happy",9,"",NA,NA,NA,NA,NA,"Right",NA,-6,NA,NA,NA,NA,4,"MDPRF38095"
"115",1730467814210,"01/11/2024 13:30:14",1730467814210,0,"01/11/2024 13:30:14",193496,6,"task-7wst",NA,41048155,11986060,NA,"complete",NA,"6724cde33934138679257f61","computer","Desktop or Laptop","Windows 10","Chrome 130.0.0.0","1494x934","1494x882",NA,NA,0,"Gambling_GBO",15,"In","DECFBGAHKIJ",NA,"In","HM_OCT","seq1","Gamble_Rand_Seq1","Gamble_Rand_Seq1",26,"Rating","Screen 1","hx8b5a",1,"info","",16.7999999999884,0,16.7999999999884,16.7999999999884,0,16.7999999999884,1,16.7999999999884,0,0,NA,"Slider","MoodSlider",2,"object-243","Rating","bored","not bored","bored",9,"",NA,NA,NA,NA,NA,"Right",NA,-6,NA,NA,NA,NA,4,"MDPRF38095"
"116",1730467818409,"01/11/2024 13:30:18",1730467818409,0,"01/11/2024 13:30:18",193496,6,"task-7wst",NA,41048155,11986060,NA,"complete",NA,"6724cde33934138679257f61","computer","Desktop or Laptop","Windows 10","Chrome 130.0.0.0","1494x934","1494x882",NA,NA,0,"Gambling_GBO",15,"In","DECFBGAHKIJ",NA,"In","HM_OCT","seq1","Gamble_Rand_Seq1","Gamble_Rand_Seq1",26,"Rating","Screen 1","hx8b5a",1,"continue","",4225.29999999999,4216.29999999999,4225.29999999999,4225.29999999999,4216.29999999999,4225.29999999999,1,4225.29999999999,0,0,NA,"Click To Continue","Continue Button",3,"object-25","Rating","bored","not bored","bored",9,"",NA,NA,NA,NA,NA,"Right",NA,-6,NA,NA,NA,NA,4,"MDPRF38095"
"117",1730467818409,"01/11/2024 13:30:18",1730467818409,0,"01/11/2024 13:30:18",193496,6,"task-7wst",NA,41048155,11986060,NA,"complete",NA,"6724cde33934138679257f61","computer","Desktop or Laptop","Windows 10","Chrome 130.0.0.0","1494x934","1494x882",NA,NA,0,"Gambling_GBO",15,"In","DECFBGAHKIJ",NA,"In","HM_OCT","seq1","Gamble_Rand_Seq1","Gamble_Rand_Seq1",26,"Rating","Screen 1","hx8b5a",1,"response","13",2181.89999999997,4216.29999999999,4225.79999999999,2181.89999999997,4216.29999999999,4225.79999999999,1,2181.89999999997,2043.90000000002,0,NA,"Slider","MoodSlider",2,"object-243","Rating","bored","not bored","bored",9,"",NA,NA,NA,NA,NA,"Right",NA,-6,NA,NA,NA,NA,4,"MDPRF38095"
"118",1730467818418,"01/11/2024 13:30:18",1730467818418,0,"01/11/2024 13:30:18",193496,6,"task-7wst",NA,41048155,11986060,NA,"complete",NA,"6724cde33934138679257f61","computer","Desktop or Laptop","Windows 10","Chrome 130.0.0.0","1494x934","1494x882",NA,NA,0,"Gambling_GBO",15,"In","DECFBGAHKIJ",NA,"In","HM_OCT","seq1","Gamble_Rand_Seq1","Gamble_Rand_Seq1",27,"Rating","Screen 1","hx8b5a",1,"info","",17.2000000000116,0,17.2000000000116,17.2000000000116,0,17.2000000000116,1,17.2000000000116,0,0,NA,"Slider","MoodSlider",2,"object-243","Rating","frustrated","not frustrated","frustrated",9,"",NA,NA,NA,NA,NA,"Right",NA,-6,NA,NA,NA,NA,4,"MDPRF38095"
"119",1730467822223,"01/11/2024 13:30:22",1730467822223,0,"01/11/2024 13:30:22",193496,6,"task-7wst",NA,41048155,11986060,NA,"complete",NA,"6724cde33934138679257f61","computer","Desktop or Laptop","Windows 10","Chrome 130.0.0.0","1494x934","1494x882",NA,NA,0,"Gambling_GBO",15,"In","DECFBGAHKIJ",NA,"In","HM_OCT","seq1","Gamble_Rand_Seq1","Gamble_Rand_Seq1",27,"Rating","Screen 1","hx8b5a",1,"continue","",3823.19999999553,3815.5,3823.19999999553,3823.19999999553,3815.5,3823.19999999553,1,3823.19999999553,0,0,NA,"Click To Continue","Continue Button",3,"object-25","Rating","frustrated","not frustrated","frustrated",9,"",NA,NA,NA,NA,NA,"Right",NA,-6,NA,NA,NA,NA,4,"MDPRF38095"
"120",1730467822224,"01/11/2024 13:30:22",1730467822224,0,"01/11/2024 13:30:22",193496,6,"task-7wst",NA,41048155,11986060,NA,"complete",NA,"6724cde33934138679257f61","computer","Desktop or Laptop","Windows 10","Chrome 130.0.0.0","1494x934","1494x882",NA,NA,0,"Gambling_GBO",15,"In","DECFBGAHKIJ",NA,"In","HM_OCT","seq1","Gamble_Rand_Seq1","Gamble_Rand_Seq1",27,"Rating","Screen 1","hx8b5a",1,"response","15",2299.79999999999,3815.5,3824.09999999404,2299.79999999999,3815.5,3824.09999999404,1,2299.79999999999,1524.29999999405,0,NA,"Slider","MoodSlider",2,"object-243","Rating","frustrated","not frustrated","frustrated",9,"",NA,NA,NA,NA,NA,"Right",NA,-6,NA,NA,NA,NA,4,"MDPRF38095"
"121",1730467824183,"01/11/2024 13:30:24",1730467824183,0,"01/11/2024 13:30:24",193496,6,"task-7wst",NA,41048155,11986060,NA,"complete",NA,"6724cde33934138679257f61","computer","Desktop or Laptop","Windows 10","Chrome 130.0.0.0","1494x934","1494x882",NA,NA,0,"Gambling_GBO",15,"In","DECFBGAHKIJ",NA,"In","HM_OCT","seq1","Gamble_Rand_Seq1","Gamble_Rand_Seq1",3,"winT","Screen 1","np5pnj",1,"continue","",1967.40000000002,1967.40000000002,1967.40000000002,1967.40000000002,1967.40000000002,1967.40000000002,1,1967.40000000002,0,0,NA,"Fixation Timing","Fixation",1,"object-304","winT","","","",NA,"Right",1.67,0,5,9,NA,"Right",NA,-6,NA,NA,NA,NA,4,"MDPRF38095"
"122",1730467825907,"01/11/2024 13:30:25",1730467825907,0,"01/11/2024 13:30:25",193496,6,"task-7wst",NA,41048155,11986060,NA,"complete",NA,"6724cde33934138679257f61","computer","Desktop or Laptop","Windows 10","Chrome 130.0.0.0","1494x934","1494x882",NA,NA,0,"Gambling_GBO",15,"In","DECFBGAHKIJ",NA,"In","HM_OCT","seq1","Gamble_Rand_Seq1","Gamble_Rand_Seq1",3,"winT","choice","gu8zgx",2,"response","Right",1723.69999999402,1716.59999999998,1723.69999999402,1723.69999999402,1716.59999999998,1723.69999999402,1,1723.69999999402,0,0,NA,"Keyboard Response","KeyResponseG",6,"object-326","winT","","","",NA,"Right",1.67,0,5,9,NA,"Right",NA,-1,NA,NA,NA,NA,5,"MDPRF38095"
"123",1730467829900,"01/11/2024 13:30:29",1730467829900,0,"01/11/2024 13:30:29",193496,6,"task-7wst",NA,41048155,11986060,NA,"complete",NA,"6724cde33934138679257f61","computer","Desktop or Laptop","Windows 10","Chrome 130.0.0.0","1494x934","1494x882",NA,NA,0,"Gambling_GBO",15,"In","DECFBGAHKIJ",NA,"In","HM_OCT","seq1","Gamble_Rand_Seq1","Gamble_Rand_Seq1",3,"winT","gamble","1lb69u",3,"timedOut","",4000.79999999702,3999.90000000002,4000.79999999702,4000.79999999702,3999.90000000002,4000.79999999702,1,4000.79999999702,0,0,NA,"Time Limit","screen",0,"screen","winT","","","",NA,"Right",1.67,0,5,9,NA,"Right",NA,-1,NA,NA,NA,NA,5,"MDPRF38095"
"124",1730467830900,"01/11/2024 13:30:30",1730467830900,0,"01/11/2024 13:30:30",193496,6,"task-7wst",NA,41048155,11986060,NA,"complete",NA,"6724cde33934138679257f61","computer","Desktop or Laptop","Windows 10","Chrome 130.0.0.0","1494x934","1494x882",NA,NA,0,"Gambling_GBO",15,"In","DECFBGAHKIJ",NA,"In","HM_OCT","seq1","Gamble_Rand_Seq1","Gamble_Rand_Seq1",3,"winT","win","dhtsbv",4,"timedOut","",1000.899999997,1000.09999999998,1000.899999997,1000.899999997,1000.09999999998,1000.899999997,1,1000.899999997,0,0,NA,"Time Limit","screen",0,"screen","winT","","","",NA,"Right",1.67,0,5,9,NA,"Right",NA,-1,NA,NA,NA,NA,5,"MDPRF38095"
"125",1730467830909,"01/11/2024 13:30:30",1730467830909,0,"01/11/2024 13:30:30",193496,6,"task-7wst",NA,41048155,11986060,NA,"complete",NA,"6724cde33934138679257f61","computer","Desktop or Laptop","Windows 10","Chrome 130.0.0.0","1494x934","1494x882",NA,NA,0,"Gambling_GBO",15,"In","DECFBGAHKIJ",NA,"In","HM_OCT","seq1","Gamble_Rand_Seq1","Gamble_Rand_Seq1",28,"Rating","Screen 1","hx8b5a",1,"info","",9.89999999850988,0,9.89999999850988,9.89999999850988,0,9.89999999850988,1,9.89999999850988,0,0,NA,"Slider","MoodSlider",2,"object-243","Rating","happy","not happy","happy",10,"",NA,NA,NA,NA,NA,"Right",NA,-1,NA,NA,NA,NA,5,"MDPRF38095"
"126",1730467839637,"01/11/2024 13:30:39",1730467839637,0,"01/11/2024 13:30:39",193496,6,"task-7wst",NA,41048155,11986060,NA,"complete",NA,"6724cde33934138679257f61","computer","Desktop or Laptop","Windows 10","Chrome 130.0.0.0","1494x934","1494x882",NA,NA,0,"Gambling_GBO",15,"In","DECFBGAHKIJ",NA,"In","HM_OCT","seq1","Gamble_Rand_Seq1","Gamble_Rand_Seq1",28,"Rating","Screen 1","hx8b5a",1,"continue","",8734.09999999998,8717,8734.09999999998,8734.09999999998,8717,8734.09999999998,1,8734.09999999998,0,0,NA,"Click To Continue","Continue Button",3,"object-25","Rating","happy","not happy","happy",10,"",NA,NA,NA,NA,NA,"Right",NA,-1,NA,NA,NA,NA,5,"MDPRF38095"
"127",1730467839641,"01/11/2024 13:30:39",1730467839641,0,"01/11/2024 13:30:39",193496,6,"task-7wst",NA,41048155,11986060,NA,"complete",NA,"6724cde33934138679257f61","computer","Desktop or Laptop","Windows 10","Chrome 130.0.0.0","1494x934","1494x882",NA,NA,0,"Gambling_GBO",15,"In","DECFBGAHKIJ",NA,"In","HM_OCT","seq1","Gamble_Rand_Seq1","Gamble_Rand_Seq1",28,"Rating","Screen 1","hx8b5a",1,"response","80",7266.79999999999,8717,8734.09999999998,7266.79999999999,8717,8734.09999999998,1,7266.79999999999,1467.29999999999,0,NA,"Slider","MoodSlider",2,"object-243","Rating","happy","not happy","happy",10,"",NA,NA,NA,NA,NA,"Right",NA,-1,NA,NA,NA,NA,5,"MDPRF38095"
"128",1730467839647,"01/11/2024 13:30:39",1730467839647,0,"01/11/2024 13:30:39",193496,6,"task-7wst",NA,41048155,11986060,NA,"complete",NA,"6724cde33934138679257f61","computer","Desktop or Laptop","Windows 10","Chrome 130.0.0.0","1494x934","1494x882",NA,NA,0,"Gambling_GBO",15,"In","DECFBGAHKIJ",NA,"In","HM_OCT","seq1","Gamble_Rand_Seq1","Gamble_Rand_Seq1",29,"Rating","Screen 1","hx8b5a",1,"info","",17.0999999999767,0,17.0999999999767,17.0999999999767,0,17.0999999999767,1,17.0999999999767,0,0,NA,"Slider","MoodSlider",2,"object-243","Rating","bored","not bored","bored",10,"",NA,NA,NA,NA,NA,"Right",NA,-1,NA,NA,NA,NA,5,"MDPRF38095"
"129",1730467848722,"01/11/2024 13:30:48",1730467848722,0,"01/11/2024 13:30:48",193496,6,"task-7wst",NA,41048155,11986060,NA,"complete",NA,"6724cde33934138679257f61","computer","Desktop or Laptop","Windows 10","Chrome 130.0.0.0","1494x934","1494x882",NA,NA,0,"Gambling_GBO",15,"In","DECFBGAHKIJ",NA,"In","HM_OCT","seq1","Gamble_Rand_Seq1","Gamble_Rand_Seq1",29,"Rating","Screen 1","hx8b5a",1,"continue","",9105.69999999553,9098.79999999999,9105.69999999553,9105.69999999553,9098.79999999999,9105.69999999553,1,9105.69999999553,0,0,NA,"Click To Continue","Continue Button",3,"object-25","Rating","bored","not bored","bored",10,"",NA,NA,NA,NA,NA,"Right",NA,-1,NA,NA,NA,NA,5,"MDPRF38095"
"130",1730467848723,"01/11/2024 13:30:48",1730467848723,0,"01/11/2024 13:30:48",193496,6,"task-7wst",NA,41048155,11986060,NA,"complete",NA,"6724cde33934138679257f61","computer","Desktop or Laptop","Windows 10","Chrome 130.0.0.0","1494x934","1494x882",NA,NA,0,"Gambling_GBO",15,"In","DECFBGAHKIJ",NA,"In","HM_OCT","seq1","Gamble_Rand_Seq1","Gamble_Rand_Seq1",29,"Rating","Screen 1","hx8b5a",1,"response","24",8116.29999999999,9098.79999999999,9106.5,8116.29999999999,9098.79999999999,9106.5,1,8116.29999999999,990.200000000012,0,NA,"Slider","MoodSlider",2,"object-243","Rating","bored","not bored","bored",10,"",NA,NA,NA,NA,NA,"Right",NA,-1,NA,NA,NA,NA,5,"MDPRF38095"
"131",1730467848730,"01/11/2024 13:30:48",1730467848730,0,"01/11/2024 13:30:48",193496,6,"task-7wst",NA,41048155,11986060,NA,"complete",NA,"6724cde33934138679257f61","computer","Desktop or Laptop","Windows 10","Chrome 130.0.0.0","1494x934","1494x882",NA,NA,0,"Gambling_GBO",15,"In","DECFBGAHKIJ",NA,"In","HM_OCT","seq1","Gamble_Rand_Seq1","Gamble_Rand_Seq1",30,"Rating","Screen 1","hx8b5a",1,"info","",15.2999999940512,0,15.2999999940512,15.2999999940512,0,15.2999999940512,1,15.2999999940512,0,0,NA,"Slider","MoodSlider",2,"object-243","Rating","frustrated","not frustrated","frustrated",10,"",NA,NA,NA,NA,NA,"Right",NA,-1,NA,NA,NA,NA,5,"MDPRF38095"
"132",1730467852304,"01/11/2024 13:30:52",1730467852304,0,"01/11/2024 13:30:52",193496,6,"task-7wst",NA,41048155,11986060,NA,"complete",NA,"6724cde33934138679257f61","computer","Desktop or Laptop","Windows 10","Chrome 130.0.0.0","1494x934","1494x882",NA,NA,0,"Gambling_GBO",15,"In","DECFBGAHKIJ",NA,"In","HM_OCT","seq1","Gamble_Rand_Seq1","Gamble_Rand_Seq1",30,"Rating","Screen 1","hx8b5a",1,"continue","",3589.20000000001,3583.10000000003,3589.20000000001,3589.20000000001,3583.10000000003,3589.20000000001,1,3589.20000000001,0,0,NA,"Click To Continue","Continue Button",3,"object-25","Rating","frustrated","not frustrated","frustrated",10,"",NA,NA,NA,NA,NA,"Right",NA,-1,NA,NA,NA,NA,5,"MDPRF38095"
"133",1730467852308,"01/11/2024 13:30:52",1730467852308,0,"01/11/2024 13:30:52",193496,6,"task-7wst",NA,41048155,11986060,NA,"complete",NA,"6724cde33934138679257f61","computer","Desktop or Laptop","Windows 10","Chrome 130.0.0.0","1494x934","1494x882",NA,NA,0,"Gambling_GBO",15,"In","DECFBGAHKIJ",NA,"In","HM_OCT","seq1","Gamble_Rand_Seq1","Gamble_Rand_Seq1",30,"Rating","Screen 1","hx8b5a",1,"response","18",2717.60000000003,3583.10000000003,3593.29999999405,2717.60000000003,3583.10000000003,3593.29999999405,1,2717.60000000003,875.699999994016,0,NA,"Slider","MoodSlider",2,"object-243","Rating","frustrated","not frustrated","frustrated",10,"",NA,NA,NA,NA,NA,"Right",NA,-1,NA,NA,NA,NA,5,"MDPRF38095"
"134",1730467854266,"01/11/2024 13:30:54",1730467854266,0,"01/11/2024 13:30:54",193496,6,"task-7wst",NA,41048155,11986060,NA,"complete",NA,"6724cde33934138679257f61","computer","Desktop or Laptop","Windows 10","Chrome 130.0.0.0","1494x934","1494x882",NA,NA,0,"Gambling_GBO",15,"In","DECFBGAHKIJ",NA,"In","HM_OCT","seq1","Gamble_Rand_Seq1","Gamble_Rand_Seq1",3,"winB","Screen 1","pkkyi8",1,"continue","",1967.39999999997,1967.39999999997,1967.39999999997,1967.39999999997,1967.39999999997,1967.39999999997,1,1967.39999999997,0,0,NA,"Fixation Timing","Fixation",1,"object-246","winB","","","",NA,"Right",4.33,4,5,10,NA,"Right",NA,-1,NA,NA,NA,NA,5,"MDPRF38095"
"135",1730467859843,"01/11/2024 13:30:59",1730467859843,0,"01/11/2024 13:30:59",193496,6,"task-7wst",NA,41048155,11986060,NA,"complete",NA,"6724cde33934138679257f61","computer","Desktop or Laptop","Windows 10","Chrome 130.0.0.0","1494x934","1494x882",NA,NA,0,"Gambling_GBO",15,"In","DECFBGAHKIJ",NA,"In","HM_OCT","seq1","Gamble_Rand_Seq1","Gamble_Rand_Seq1",3,"winB","choice","5lszbx",2,"response","Right",5576.79999999405,5566.10000000003,5576.79999999405,5576.79999999405,5566.10000000003,5576.79999999405,1,5576.79999999405,0,0,NA,"Keyboard Response","KeyResponseG",6,"object-256","winB","","","",NA,"Right",4.33,4,5,10,NA,"Right",NA,4,NA,NA,NA,NA,5,"MDPRF38095"
"136",1730467863834,"01/11/2024 13:31:03",1730467863834,0,"01/11/2024 13:31:03",193496,6,"task-7wst",NA,41048155,11986060,NA,"complete",NA,"6724cde33934138679257f61","computer","Desktop or Laptop","Windows 10","Chrome 130.0.0.0","1494x934","1494x882",NA,NA,0,"Gambling_GBO",15,"In","DECFBGAHKIJ",NA,"In","HM_OCT","seq1","Gamble_Rand_Seq1","Gamble_Rand_Seq1",3,"winB","gamble","17lgr3",3,"timedOut","",4002.79999999551,4000.39999999997,4002.79999999551,4002.79999999551,4000.39999999997,4002.79999999551,1,4002.79999999551,0,0,NA,"Time Limit","screen",0,"screen","winB","","","",NA,"Right",4.33,4,5,10,NA,"Right",NA,4,NA,NA,NA,NA,5,"MDPRF38095"
"137",1730467864832,"01/11/2024 13:31:04",1730467864832,0,"01/11/2024 13:31:04",193496,6,"task-7wst",NA,41048155,11986060,NA,"complete",NA,"6724cde33934138679257f61","computer","Desktop or Laptop","Windows 10","Chrome 130.0.0.0","1494x934","1494x882",NA,NA,0,"Gambling_GBO",15,"In","DECFBGAHKIJ",NA,"In","HM_OCT","seq1","Gamble_Rand_Seq1","Gamble_Rand_Seq1",3,"winB","win","dzz5jr",4,"timedOut","",999.899999995541,999.299999999988,999.899999995541,999.899999995541,999.299999999988,999.899999995541,1,999.899999995541,0,0,NA,"Time Limit","screen",0,"screen","winB","","","",NA,"Right",4.33,4,5,10,NA,"Right",NA,4,NA,NA,NA,NA,5,"MDPRF38095"
"138",1730467864840,"01/11/2024 13:31:04",1730467864840,0,"01/11/2024 13:31:04",193496,6,"task-7wst",NA,41048155,11986060,NA,"complete",NA,"6724cde33934138679257f61","computer","Desktop or Laptop","Windows 10","Chrome 130.0.0.0","1494x934","1494x882",NA,NA,0,"Gambling_GBO",15,"In","DECFBGAHKIJ",NA,"In","HM_OCT","seq1","Gamble_Rand_Seq1","Gamble_Rand_Seq1",31,"Rating","Screen 1","hx8b5a",1,"info","",9.09999999555294,0,9.09999999555294,9.09999999555294,0,9.09999999555294,1,9.09999999555294,0,0,NA,"Slider","MoodSlider",2,"object-243","Rating","happy","not happy","happy",11,"",NA,NA,NA,NA,NA,"Right",NA,4,NA,NA,NA,NA,5,"MDPRF38095"
"139",1730467870330,"01/11/2024 13:31:10",1730467870330,0,"01/11/2024 13:31:10",193496,6,"task-7wst",NA,41048155,11986060,NA,"complete",NA,"6724cde33934138679257f61","computer","Desktop or Laptop","Windows 10","Chrome 130.0.0.0","1494x934","1494x882",NA,NA,0,"Gambling_GBO",15,"In","DECFBGAHKIJ",NA,"In","HM_OCT","seq1","Gamble_Rand_Seq1","Gamble_Rand_Seq1",31,"Rating","Screen 1","hx8b5a",1,"continue","",5498.29999999853,5484,5498.29999999853,5498.29999999853,5484,5498.29999999853,1,5498.29999999853,0,0,NA,"Click To Continue","Continue Button",3,"object-25","Rating","happy","not happy","happy",11,"",NA,NA,NA,NA,NA,"Right",NA,4,NA,NA,NA,NA,5,"MDPRF38095"
"140",1730467870330,"01/11/2024 13:31:10",1730467870330,0,"01/11/2024 13:31:10",193496,6,"task-7wst",NA,41048155,11986060,NA,"complete",NA,"6724cde33934138679257f61","computer","Desktop or Laptop","Windows 10","Chrome 130.0.0.0","1494x934","1494x882",NA,NA,0,"Gambling_GBO",15,"In","DECFBGAHKIJ",NA,"In","HM_OCT","seq1","Gamble_Rand_Seq1","Gamble_Rand_Seq1",31,"Rating","Screen 1","hx8b5a",1,"response","76",4533.40000000002,5484,5498.79999999853,4533.40000000002,5484,5498.79999999853,1,4533.40000000002,965.39999999851,0,NA,"Slider","MoodSlider",2,"object-243","Rating","happy","not happy","happy",11,"",NA,NA,NA,NA,NA,"Right",NA,4,NA,NA,NA,NA,5,"MDPRF38095"
"141",1730467870337,"01/11/2024 13:31:10",1730467870337,0,"01/11/2024 13:31:10",193496,6,"task-7wst",NA,41048155,11986060,NA,"complete",NA,"6724cde33934138679257f61","computer","Desktop or Laptop","Windows 10","Chrome 130.0.0.0","1494x934","1494x882",NA,NA,0,"Gambling_GBO",15,"In","DECFBGAHKIJ",NA,"In","HM_OCT","seq1","Gamble_Rand_Seq1","Gamble_Rand_Seq1",32,"Rating","Screen 1","hx8b5a",1,"info","",16,0,16,16,0,16,1,16,0,0,NA,"Slider","MoodSlider",2,"object-243","Rating","bored","not bored","bored",11,"",NA,NA,NA,NA,NA,"Right",NA,4,NA,NA,NA,NA,5,"MDPRF38095"
"142",1730467873256,"01/11/2024 13:31:13",1730467873256,0,"01/11/2024 13:31:13",193496,6,"task-7wst",NA,41048155,11986060,NA,"complete",NA,"6724cde33934138679257f61","computer","Desktop or Laptop","Windows 10","Chrome 130.0.0.0","1494x934","1494x882",NA,NA,0,"Gambling_GBO",15,"In","DECFBGAHKIJ",NA,"In","HM_OCT","seq1","Gamble_Rand_Seq1","Gamble_Rand_Seq1",32,"Rating","Screen 1","hx8b5a",1,"continue","",2940.59999999555,2933.40000000002,2940.59999999555,2940.59999999555,2933.40000000002,2940.59999999555,1,2940.59999999555,0,0,NA,"Click To Continue","Continue Button",3,"object-25","Rating","bored","not bored","bored",11,"",NA,NA,NA,NA,NA,"Right",NA,4,NA,NA,NA,NA,5,"MDPRF38095"
"143",1730467873257,"01/11/2024 13:31:13",1730467873257,0,"01/11/2024 13:31:13",193496,6,"task-7wst",NA,41048155,11986060,NA,"complete",NA,"6724cde33934138679257f61","computer","Desktop or Laptop","Windows 10","Chrome 130.0.0.0","1494x934","1494x882",NA,NA,0,"Gambling_GBO",15,"In","DECFBGAHKIJ",NA,"In","HM_OCT","seq1","Gamble_Rand_Seq1","Gamble_Rand_Seq1",32,"Rating","Screen 1","hx8b5a",1,"response","13",1433.20000000001,2933.40000000002,2941.69999999704,1433.20000000001,2933.40000000002,2941.69999999704,1,1433.20000000001,1508.49999999703,0,NA,"Slider","MoodSlider",2,"object-243","Rating","bored","not bored","bored",11,"",NA,NA,NA,NA,NA,"Right",NA,4,NA,NA,NA,NA,5,"MDPRF38095"
"144",1730467873267,"01/11/2024 13:31:13",1730467873267,0,"01/11/2024 13:31:13",193496,6,"task-7wst",NA,41048155,11986060,NA,"complete",NA,"6724cde33934138679257f61","computer","Desktop or Laptop","Windows 10","Chrome 130.0.0.0","1494x934","1494x882",NA,NA,0,"Gambling_GBO",15,"In","DECFBGAHKIJ",NA,"In","HM_OCT","seq1","Gamble_Rand_Seq1","Gamble_Rand_Seq1",33,"Rating","Screen 1","hx8b5a",1,"info","",17.2000000000116,0,17.2000000000116,17.2000000000116,0,17.2000000000116,1,17.2000000000116,0,0,NA,"Slider","MoodSlider",2,"object-243","Rating","frustrated","not frustrated","frustrated",11,"",NA,NA,NA,NA,NA,"Right",NA,4,NA,NA,NA,NA,5,"MDPRF38095"
"145",1730467875626,"01/11/2024 13:31:15",1730467875626,0,"01/11/2024 13:31:15",193496,6,"task-7wst",NA,41048155,11986060,NA,"complete",NA,"6724cde33934138679257f61","computer","Desktop or Laptop","Windows 10","Chrome 130.0.0.0","1494x934","1494x882",NA,NA,0,"Gambling_GBO",15,"In","DECFBGAHKIJ",NA,"In","HM_OCT","seq1","Gamble_Rand_Seq1","Gamble_Rand_Seq1",33,"Rating","Screen 1","hx8b5a",1,"continue","",2377.39999999851,2366.20000000001,2377.39999999851,2377.39999999851,2366.20000000001,2377.39999999851,1,2377.39999999851,0,0,NA,"Click To Continue","Continue Button",3,"object-25","Rating","frustrated","not frustrated","frustrated",11,"",NA,NA,NA,NA,NA,"Right",NA,4,NA,NA,NA,NA,5,"MDPRF38095"
"146",1730467875631,"01/11/2024 13:31:15",1730467875631,0,"01/11/2024 13:31:15",193496,6,"task-7wst",NA,41048155,11986060,NA,"complete",NA,"6724cde33934138679257f61","computer","Desktop or Laptop","Windows 10","Chrome 130.0.0.0","1494x934","1494x882",NA,NA,0,"Gambling_GBO",15,"In","DECFBGAHKIJ",NA,"In","HM_OCT","seq1","Gamble_Rand_Seq1","Gamble_Rand_Seq1",33,"Rating","Screen 1","hx8b5a",1,"response","10",1300.09999999998,2366.20000000001,2382.69999999553,1300.09999999998,2366.20000000001,2382.69999999553,1,1300.09999999998,1082.59999999555,0,NA,"Slider","MoodSlider",2,"object-243","Rating","frustrated","not frustrated","frustrated",11,"",NA,NA,NA,NA,NA,"Right",NA,4,NA,NA,NA,NA,5,"MDPRF38095"
"147",1730467877582,"01/11/2024 13:31:17",1730467877582,0,"01/11/2024 13:31:17",193496,6,"task-7wst",NA,41048155,11986060,NA,"complete",NA,"6724cde33934138679257f61","computer","Desktop or Laptop","Windows 10","Chrome 130.0.0.0","1494x934","1494x882",NA,NA,0,"Gambling_GBO",15,"In","DECFBGAHKIJ",NA,"In","HM_OCT","seq1","Gamble_Rand_Seq1","Gamble_Rand_Seq1",4,"lossB","Screen 1","a4fynh",1,"continue","",1966.29999999999,1966.29999999999,1966.29999999999,1966.29999999999,1966.29999999999,1966.29999999999,1,1966.29999999999,0,0,NA,"Fixation Timing","Fixation",1,"object-113","lossB","","","",NA,"Right",-1.67,-3,1,11,NA,"Right",NA,4,NA,NA,NA,NA,5,"MDPRF38095"
"148",1730467880128,"01/11/2024 13:31:20",1730467880128,0,"01/11/2024 13:31:20",193496,6,"task-7wst",NA,41048155,11986060,NA,"complete",NA,"6724cde33934138679257f61","computer","Desktop or Laptop","Windows 10","Chrome 130.0.0.0","1494x934","1494x882",NA,NA,0,"Gambling_GBO",15,"In","DECFBGAHKIJ",NA,"In","HM_OCT","seq1","Gamble_Rand_Seq1","Gamble_Rand_Seq1",4,"lossB","choice","k9qq8f",2,"response","Left",2546.29999999702,2533.90000000002,2546.29999999702,2546.29999999702,2533.90000000002,2546.29999999702,0,2546.29999999702,0,0,NA,"Keyboard Response","KeyResponseC",5,"object-199","lossB","","","",NA,"Right",-1.67,-3,1,11,NA,"Left",NA,2.33,NA,NA,NA,NA,-1.67,"MDPRF38095"
"149",1730467885116,"01/11/2024 13:31:25",1730467885116,0,"01/11/2024 13:31:25",193496,6,"task-7wst",NA,41048155,11986060,NA,"complete",NA,"6724cde33934138679257f61","computer","Desktop or Laptop","Windows 10","Chrome 130.0.0.0","1494x934","1494x882",NA,NA,0,"Gambling_GBO",15,"In","DECFBGAHKIJ",NA,"In","HM_OCT","seq1","Gamble_Rand_Seq1","Gamble_Rand_Seq1",4,"lossB","certain","rptf8c",3,"timedOut","",5001.09999999998,4999.89999999997,5001.09999999998,5001.09999999998,4999.89999999997,5001.09999999998,1,5001.09999999998,0,0,NA,"Time Limit","screen",0,"screen","lossB","","","",NA,"Right",-1.67,-3,1,11,NA,"Left",NA,2.33,NA,NA,NA,NA,-1.67,"MDPRF38095"
"150",1730467885125,"01/11/2024 13:31:25",1730467885125,0,"01/11/2024 13:31:25",193496,6,"task-7wst",NA,41048155,11986060,NA,"complete",NA,"6724cde33934138679257f61","computer","Desktop or Laptop","Windows 10","Chrome 130.0.0.0","1494x934","1494x882",NA,NA,0,"Gambling_GBO",15,"In","DECFBGAHKIJ",NA,"In","HM_OCT","seq1","Gamble_Rand_Seq1","Gamble_Rand_Seq1",34,"Rating","Screen 1","hx8b5a",1,"info","",10.2999999940512,0,10.2999999940512,10.2999999940512,0,10.2999999940512,1,10.2999999940512,0,0,NA,"Slider","MoodSlider",2,"object-243","Rating","happy","not happy","happy",12,"",NA,NA,NA,NA,NA,"Left",NA,2.33,NA,NA,NA,NA,-1.67,"MDPRF38095"
"151",1730467894750,"01/11/2024 13:31:34",1730467894750,0,"01/11/2024 13:31:34",193496,6,"task-7wst",NA,41048155,11986060,NA,"complete",NA,"6724cde33934138679257f61","computer","Desktop or Laptop","Windows 10","Chrome 130.0.0.0","1494x934","1494x882",NA,NA,0,"Gambling_GBO",15,"In","DECFBGAHKIJ",NA,"In","HM_OCT","seq1","Gamble_Rand_Seq1","Gamble_Rand_Seq1",34,"Rating","Screen 1","hx8b5a",1,"continue","",9632.09999999998,9616.29999999999,9632.09999999998,9632.09999999998,9616.29999999999,9632.09999999998,1,9632.09999999998,0,0,NA,"Click To Continue","Continue Button",3,"object-25","Rating","happy","not happy","happy",12,"",NA,NA,NA,NA,NA,"Left",NA,2.33,NA,NA,NA,NA,-1.67,"MDPRF38095"
"152",1730467894754,"01/11/2024 13:31:34",1730467894754,0,"01/11/2024 13:31:34",193496,6,"task-7wst",NA,41048155,11986060,NA,"complete",NA,"6724cde33934138679257f61","computer","Desktop or Laptop","Windows 10","Chrome 130.0.0.0","1494x934","1494x882",NA,NA,0,"Gambling_GBO",15,"In","DECFBGAHKIJ",NA,"In","HM_OCT","seq1","Gamble_Rand_Seq1","Gamble_Rand_Seq1",34,"Rating","Screen 1","hx8b5a",1,"response","75",8800.10000000003,9616.29999999999,9632.09999999998,8800.10000000003,9616.29999999999,9632.09999999998,1,8800.10000000003,831.999999999942,0,NA,"Slider","MoodSlider",2,"object-243","Rating","happy","not happy","happy",12,"",NA,NA,NA,NA,NA,"Left",NA,2.33,NA,NA,NA,NA,-1.67,"MDPRF38095"
