"Event.Index","UTC.Timestamp","UTC.Date.and.Time","Local.Timestamp","Local.Timezone","Local.Date.and.Time","Experiment.ID","Experiment.Version","Tree.Node.Key","Repeat.Key","Schedule.ID","Participant.Private.ID","Participant.Starting.Group","Participant.Status","Participant.Completion.Code","Participant.External.Session.ID","Participant.Device.Type","Participant.Device","Participant.OS","Participant.Browser","Participant.Monitor.Size","Participant.Viewport.Size","Checkpoint","Room.ID","Room.Order","Task.Name","Task.Version","branch.hkzp","order.ot79","branch.mcuq","branch.4fv7","randomiser.k5rb","randomiser.rz7w","Spreadsheet","Current.Spreadsheet","Trial.Number","Display","Screen","Screen.ID","Screen.Counter","Response.Type","Response","Onset.Time","Clock.Time","Reaction.Time","Absolute.Onset.Time","Absolute.Clock.Time","Absolute.Reaction.Time","Correct","Response.Onset","Response.Duration","Proportion","Tag","Component.Name","Object.Name","Object.Number","Object.ID","Spreadsheet..display","Spreadsheet..Emo","Spreadsheet..LHS_Lab","Spreadsheet..RHS_Lab","Spreadsheet..rand_M","Spreadsheet..Answer","Spreadsheet..C_points","Spreadsheet..L_points","Spreadsheet..W_points","Spreadsheet..rand_G","Manipulation..Spreadsheet","Store..Choice","Store..total","Store..total_score","Store..pounds","Store..total_money","Store..partA","Store..MoneyReward","Store..pointsPR","Random_ID"
"1",1730468807093,"01/11/2024 13:46:47",1730468807093,0,"01/11/2024 13:46:47",193496,6,"task-nz4r",NA,41048921,11986016,NA,"complete",NA,"6724cd42a22f88c072cebf93","computer","Desktop or Laptop","Windows 10","Chrome 130.0.0.0","1280x720","1280x720",NA,NA,0,"Gambling_GBO",15,"In","BCADKEJFIGH",NA,"In","MH_OCT","seq4","Gamble_Rand_Seq4","Gamble_Rand_Seq4",NA,"","","",NA,"info","START SUBSYSTEM base.component.fullscreenSubsystem",NA,NA,NA,NA,NA,NA,0,NA,NA,NA,NA,"","",NA,"","","","","",NA,"",NA,NA,NA,NA,NA,"",NA,NA,NA,NA,NA,NA,NA,"MDPRF56321"
"2",1730468807119,"01/11/2024 13:46:47",1730468807119,0,"01/11/2024 13:46:47",193496,6,"task-nz4r",NA,41048921,11986016,NA,"complete",NA,"6724cd42a22f88c072cebf93","computer","Desktop or Laptop","Windows 10","Chrome 130.0.0.0","1280x720","1280x720",NA,NA,0,"Gambling_GBO",15,"In","BCADKEJFIGH",NA,"In","MH_OCT","seq4","Gamble_Rand_Seq4","Gamble_Rand_Seq4",NA,"","","",NA,"info","SUBSYSTEM READY base.component.fullscreenSubsystem",NA,NA,NA,NA,NA,NA,0,NA,NA,NA,NA,"","",NA,"","","","","",NA,"",NA,NA,NA,NA,NA,"",NA,NA,NA,NA,NA,NA,NA,"MDPRF56321"
"3",1730468807185,"01/11/2024 13:46:47",1730468807185,0,"01/11/2024 13:46:47",193496,6,"task-nz4r",NA,41048921,11986016,NA,"complete",NA,"6724cd42a22f88c072cebf93","computer","Desktop or Laptop","Windows 10","Chrome 130.0.0.0","1280x720","1280x720",NA,NA,0,"Gambling_GBO",15,"In","BCADKEJFIGH",NA,"In","MH_OCT","seq4","Gamble_Rand_Seq4","Gamble_Rand_Seq4",NA,"","","",NA,"info","BEGIN",NA,NA,NA,NA,NA,NA,0,NA,NA,NA,NA,"","",NA,"","","","","",NA,"",NA,NA,NA,NA,NA,"",NA,NA,NA,NA,NA,NA,NA,"MDPRF56321"
"4",1730468817878,"01/11/2024 13:46:57",1730468817878,0,"01/11/2024 13:46:57",193496,6,"task-nz4r",NA,41048921,11986016,NA,"complete",NA,"6724cd42a22f88c072cebf93","computer","Desktop or Laptop","Windows 10","Chrome 130.0.0.0","1280x720","1280x720",NA,NA,0,"Gambling_GBO",15,"In","BCADKEJFIGH",NA,"In","MH_OCT","seq4","Gamble_Rand_Seq4","Gamble_Rand_Seq4",1,"Intro","Screen 1","u1aumm",1,"continue","",10804.5,10794.6,10804.5,10804.5,10794.6,10804.5,1,10804.5,0,0,NA,"Click To Continue","Continue Button",2,"object-37171","Intro","","","",NA,"",NA,NA,NA,NA,NA,"",NA,NA,NA,NA,NA,NA,NA,"MDPRF56321"
"5",1730468838379,"01/11/2024 13:47:18",1730468838379,0,"01/11/2024 13:47:18",193496,6,"task-nz4r",NA,41048921,11986016,NA,"complete",NA,"6724cd42a22f88c072cebf93","computer","Desktop or Laptop","Windows 10","Chrome 130.0.0.0","1280x720","1280x720",NA,NA,0,"Gambling_GBO",15,"In","BCADKEJFIGH",NA,"In","MH_OCT","seq4","Gamble_Rand_Seq4","Gamble_Rand_Seq4",1,"Instructions","Screen 1","rfymdc",1,"continue","",20508.6,20492,20508.6,20508.6,20492,20508.6,1,20508.6,0,0,NA,"Click To Continue","Continue Button",2,"object-3","Instructions","","","",NA,"",NA,NA,NA,NA,NA,"",NA,NA,NA,NA,NA,NA,NA,"MDPRF56321"
"6",1730468853023,"01/11/2024 13:47:33",1730468853023,0,"01/11/2024 13:47:33",193496,6,"task-nz4r",NA,41048921,11986016,NA,"complete",NA,"6724cd42a22f88c072cebf93","computer","Desktop or Laptop","Windows 10","Chrome 130.0.0.0","1280x720","1280x720",NA,NA,0,"Gambling_GBO",15,"In","BCADKEJFIGH",NA,"In","MH_OCT","seq4","Gamble_Rand_Seq4","Gamble_Rand_Seq4",1,"Instructions","Screen 2","x2kpu8",2,"continue","",14662.5999999285,14653.9,14662.5999999285,14662.5999999285,14653.9,14662.5999999285,1,14662.5999999285,0,0,NA,"Click To Continue","Continue Button",2,"object-22021","Instructions","","","",NA,"",NA,NA,NA,NA,NA,"",NA,NA,NA,NA,NA,NA,NA,"MDPRF56321"
"7",1730468868836,"01/11/2024 13:47:48",1730468868836,0,"01/11/2024 13:47:48",193496,6,"task-nz4r",NA,41048921,11986016,NA,"complete",NA,"6724cd42a22f88c072cebf93","computer","Desktop or Laptop","Windows 10","Chrome 130.0.0.0","1280x720","1280x720",NA,NA,0,"Gambling_GBO",15,"In","BCADKEJFIGH",NA,"In","MH_OCT","seq4","Gamble_Rand_Seq4","Gamble_Rand_Seq4",1,"Instructions","Screen 3","o6zm7t",3,"continue","",15821.2999999523,15817.8,15821.2999999523,15821.2999999523,15817.8,15821.2999999523,1,15821.2999999523,0,0,NA,"Click To Continue","Continue Button",2,"object-225","Instructions","","","",NA,"",NA,NA,NA,NA,NA,"",NA,NA,NA,NA,NA,NA,NA,"MDPRF56321"
"8",1730468873371,"01/11/2024 13:47:53",1730468873371,0,"01/11/2024 13:47:53",193496,6,"task-nz4r",NA,41048921,11986016,NA,"complete",NA,"6724cd42a22f88c072cebf93","computer","Desktop or Laptop","Windows 10","Chrome 130.0.0.0","1280x720","1280x720",NA,NA,0,"Gambling_GBO",15,"In","BCADKEJFIGH",NA,"In","MH_OCT","seq4","Gamble_Rand_Seq4","Gamble_Rand_Seq4",1,"Instructions","Screen 4","3hq7c2",4,"continue","",4538.80000002384,4524.3,4538.80000002384,4538.80000002384,4524.3,4538.80000002384,1,4538.80000002384,0,0,NA,"Click To Continue","Continue Button",4,"object-380","Instructions","","","",NA,"",NA,NA,NA,NA,NA,"",NA,NA,NA,NA,NA,NA,NA,"MDPRF56321"
"9",1730468887710,"01/11/2024 13:48:07",1730468887710,0,"01/11/2024 13:48:07",193496,6,"task-nz4r",NA,41048921,11986016,NA,"complete",NA,"6724cd42a22f88c072cebf93","computer","Desktop or Laptop","Windows 10","Chrome 130.0.0.0","1280x720","1280x720",NA,NA,0,"Gambling_GBO",15,"In","BCADKEJFIGH",NA,"In","MH_OCT","seq4","Gamble_Rand_Seq4","Gamble_Rand_Seq4",1,"Instructions","Screen 5","5jisqh",5,"continue","",14353.9,14337.7,14353.9,14353.9,14337.7,14353.9,1,14353.9,0,0,NA,"Click To Continue","Continue Button",2,"object-233","Instructions","","","",NA,"",NA,NA,NA,NA,NA,"",NA,NA,NA,NA,NA,NA,NA,"MDPRF56321"
"10",1730468891580,"01/11/2024 13:48:11",1730468891580,0,"01/11/2024 13:48:11",193496,6,"task-nz4r",NA,41048921,11986016,NA,"complete",NA,"6724cd42a22f88c072cebf93","computer","Desktop or Laptop","Windows 10","Chrome 130.0.0.0","1280x720","1280x720",NA,NA,0,"Gambling_GBO",15,"In","BCADKEJFIGH",NA,"In","MH_OCT","seq4","Gamble_Rand_Seq4","Gamble_Rand_Seq4",1,"Instructions","Screen 6","13xe5l",6,"continue","",3886.2,3875.59999999999,3886.2,3886.2,3875.59999999999,3886.2,1,3886.2,0,0,NA,"Click To Continue","Continue Button",2,"object-237","Instructions","","","",NA,"",NA,NA,NA,NA,NA,"",NA,NA,NA,NA,NA,NA,NA,"MDPRF56321"
"11",1730468900424,"01/11/2024 13:48:20",1730468900424,0,"01/11/2024 13:48:20",193496,6,"task-nz4r",NA,41048921,11986016,NA,"complete",NA,"6724cd42a22f88c072cebf93","computer","Desktop or Laptop","Windows 10","Chrome 130.0.0.0","1280x720","1280x720",NA,NA,0,"Gambling_GBO",15,"In","BCADKEJFIGH",NA,"In","MH_OCT","seq4","Gamble_Rand_Seq4","Gamble_Rand_Seq4",1,"Instructions","Screen 7","re2b58",7,"response","back",8854.49999997616,8848.8,8854.49999997616,8854.49999997616,8848.8,8854.49999997616,1,8854.49999997616,0,0,NA,"Click Response","Back Button",3,"object-383","Instructions","","","",NA,"",NA,NA,NA,NA,NA,"",NA,NA,NA,NA,NA,NA,NA,"MDPRF56321"
"12",1730468901220,"01/11/2024 13:48:21",1730468901220,0,"01/11/2024 13:48:21",193496,6,"task-nz4r",NA,41048921,11986016,NA,"complete",NA,"6724cd42a22f88c072cebf93","computer","Desktop or Laptop","Windows 10","Chrome 130.0.0.0","1280x720","1280x720",NA,NA,0,"Gambling_GBO",15,"In","BCADKEJFIGH",NA,"In","MH_OCT","seq4","Gamble_Rand_Seq4","Gamble_Rand_Seq4",1,"Instructions","Screen 6","13xe5l",8,"response","back",801.699999976161,798.400000000009,801.699999976161,801.699999976161,798.400000000009,801.699999976161,1,801.699999976161,0,0,NA,"Click Response","Back Button",4,"object-382","Instructions","","","",NA,"",NA,NA,NA,NA,NA,"",NA,NA,NA,NA,NA,NA,NA,"MDPRF56321"
"13",1730468902157,"01/11/2024 13:48:22",1730468902157,0,"01/11/2024 13:48:22",193496,6,"task-nz4r",NA,41048921,11986016,NA,"complete",NA,"6724cd42a22f88c072cebf93","computer","Desktop or Laptop","Windows 10","Chrome 130.0.0.0","1280x720","1280x720",NA,NA,0,"Gambling_GBO",15,"In","BCADKEJFIGH",NA,"In","MH_OCT","seq4","Gamble_Rand_Seq4","Gamble_Rand_Seq4",1,"Instructions","Screen 5","5jisqh",9,"response","back",940.899999999994,931.299999999988,940.899999999994,940.899999999994,931.299999999988,940.899999999994,1,940.899999999994,0,0,NA,"Click Response","Back Button",4,"object-381","Instructions","","","",NA,"",NA,NA,NA,NA,NA,"",NA,NA,NA,NA,NA,NA,NA,"MDPRF56321"
"14",1730468909467,"01/11/2024 13:48:29",1730468909467,0,"01/11/2024 13:48:29",193496,6,"task-nz4r",NA,41048921,11986016,NA,"complete",NA,"6724cd42a22f88c072cebf93","computer","Desktop or Laptop","Windows 10","Chrome 130.0.0.0","1280x720","1280x720",NA,NA,0,"Gambling_GBO",15,"In","BCADKEJFIGH",NA,"In","MH_OCT","seq4","Gamble_Rand_Seq4","Gamble_Rand_Seq4",1,"Instructions","Screen 4","3hq7c2",10,"response","back",7318.30000000002,7301.90000000001,7318.30000000002,7318.30000000002,7301.90000000001,7318.30000000002,1,7318.30000000002,0,0,NA,"Click Response","Back Button",2,"object-229","Instructions","","","",NA,"",NA,NA,NA,NA,NA,"",NA,NA,NA,NA,NA,NA,NA,"MDPRF56321"
"15",1730468912670,"01/11/2024 13:48:32",1730468912670,0,"01/11/2024 13:48:32",193496,6,"task-nz4r",NA,41048921,11986016,NA,"complete",NA,"6724cd42a22f88c072cebf93","computer","Desktop or Laptop","Windows 10","Chrome 130.0.0.0","1280x720","1280x720",NA,NA,0,"Gambling_GBO",15,"In","BCADKEJFIGH",NA,"In","MH_OCT","seq4","Gamble_Rand_Seq4","Gamble_Rand_Seq4",1,"Instructions","Screen 3","o6zm7t",11,"response","back",3220.30000002384,3210.2,3220.30000002384,3220.30000002384,3210.2,3220.30000002384,1,3220.30000002384,0,0,NA,"Click Response","Back Button",4,"object-379","Instructions","","","",NA,"",NA,NA,NA,NA,NA,"",NA,NA,NA,NA,NA,NA,NA,"MDPRF56321"
"16",1730468914533,"01/11/2024 13:48:34",1730468914533,0,"01/11/2024 13:48:34",193496,6,"task-nz4r",NA,41048921,11986016,NA,"complete",NA,"6724cd42a22f88c072cebf93","computer","Desktop or Laptop","Windows 10","Chrome 130.0.0.0","1280x720","1280x720",NA,NA,0,"Gambling_GBO",15,"In","BCADKEJFIGH",NA,"In","MH_OCT","seq4","Gamble_Rand_Seq4","Gamble_Rand_Seq4",1,"Instructions","Screen 2","x2kpu8",12,"continue","",1873.10000002384,1862.89999999999,1873.10000002384,1873.10000002384,1862.89999999999,1873.10000002384,1,1873.10000002384,0,0,NA,"Click To Continue","Continue Button",2,"object-22021","Instructions","","","",NA,"",NA,NA,NA,NA,NA,"",NA,NA,NA,NA,NA,NA,NA,"MDPRF56321"
"17",1730468915399,"01/11/2024 13:48:35",1730468915399,0,"01/11/2024 13:48:35",193496,6,"task-nz4r",NA,41048921,11986016,NA,"complete",NA,"6724cd42a22f88c072cebf93","computer","Desktop or Laptop","Windows 10","Chrome 130.0.0.0","1280x720","1280x720",NA,NA,0,"Gambling_GBO",15,"In","BCADKEJFIGH",NA,"In","MH_OCT","seq4","Gamble_Rand_Seq4","Gamble_Rand_Seq4",1,"Instructions","Screen 3","o6zm7t",13,"continue","",876.499999976164,865,876.499999976164,876.499999976164,865,876.499999976164,1,876.499999976164,0,0,NA,"Click To Continue","Continue Button",2,"object-225","Instructions","","","",NA,"",NA,NA,NA,NA,NA,"",NA,NA,NA,NA,NA,NA,NA,"MDPRF56321"
"18",1730468916123,"01/11/2024 13:48:36",1730468916123,0,"01/11/2024 13:48:36",193496,6,"task-nz4r",NA,41048921,11986016,NA,"complete",NA,"6724cd42a22f88c072cebf93","computer","Desktop or Laptop","Windows 10","Chrome 130.0.0.0","1280x720","1280x720",NA,NA,0,"Gambling_GBO",15,"In","BCADKEJFIGH",NA,"In","MH_OCT","seq4","Gamble_Rand_Seq4","Gamble_Rand_Seq4",1,"Instructions","Screen 4","3hq7c2",14,"continue","",735.499999976164,731.900000000009,735.499999976164,735.499999976164,731.900000000009,735.499999976164,1,735.499999976164,0,0,NA,"Click To Continue","Continue Button",4,"object-380","Instructions","","","",NA,"",NA,NA,NA,NA,NA,"",NA,NA,NA,NA,NA,NA,NA,"MDPRF56321"
"19",1730468916961,"01/11/2024 13:48:36",1730468916961,0,"01/11/2024 13:48:36",193496,6,"task-nz4r",NA,41048921,11986016,NA,"complete",NA,"6724cd42a22f88c072cebf93","computer","Desktop or Laptop","Windows 10","Chrome 130.0.0.0","1280x720","1280x720",NA,NA,0,"Gambling_GBO",15,"In","BCADKEJFIGH",NA,"In","MH_OCT","seq4","Gamble_Rand_Seq4","Gamble_Rand_Seq4",1,"Instructions","Screen 5","5jisqh",15,"continue","",841.800000023839,831.599999999991,841.800000023839,841.800000023839,831.599999999991,841.800000023839,1,841.800000023839,0,0,NA,"Click To Continue","Continue Button",2,"object-233","Instructions","","","",NA,"",NA,NA,NA,NA,NA,"",NA,NA,NA,NA,NA,NA,NA,"MDPRF56321"
"20",1730468918079,"01/11/2024 13:48:38",1730468918079,0,"01/11/2024 13:48:38",193496,6,"task-nz4r",NA,41048921,11986016,NA,"complete",NA,"6724cd42a22f88c072cebf93","computer","Desktop or Laptop","Windows 10","Chrome 130.0.0.0","1280x720","1280x720",NA,NA,0,"Gambling_GBO",15,"In","BCADKEJFIGH",NA,"In","MH_OCT","seq4","Gamble_Rand_Seq4","Gamble_Rand_Seq4",1,"Instructions","Screen 6","13xe5l",16,"continue","",1127.89999995232,1114.5,1127.89999995232,1127.89999995232,1114.5,1127.89999995232,1,1127.89999995232,0,0,NA,"Click To Continue","Continue Button",2,"object-237","Instructions","","","",NA,"",NA,NA,NA,NA,NA,"",NA,NA,NA,NA,NA,NA,NA,"MDPRF56321"
"21",1730468919218,"01/11/2024 13:48:39",1730468919218,0,"01/11/2024 13:48:39",193496,6,"task-nz4r",NA,41048921,11986016,NA,"complete",NA,"6724cd42a22f88c072cebf93","computer","Desktop or Laptop","Windows 10","Chrome 130.0.0.0","1280x720","1280x720",NA,NA,0,"Gambling_GBO",15,"In","BCADKEJFIGH",NA,"In","MH_OCT","seq4","Gamble_Rand_Seq4","Gamble_Rand_Seq4",1,"Instructions","Screen 7","re2b58",17,"continue","",1152.70000002385,1147.70000000001,1152.70000002385,1152.70000002385,1147.70000000001,1152.70000002385,1,1152.70000002385,0,0,NA,"Click To Continue","Continue Button",2,"object-241","Instructions","","","",NA,"",NA,NA,NA,NA,NA,"",NA,NA,NA,NA,NA,NA,NA,"MDPRF56321"
"22",1730468919240,"01/11/2024 13:48:39",1730468919240,0,"01/11/2024 13:48:39",193496,6,"task-nz4r",NA,41048921,11986016,NA,"complete",NA,"6724cd42a22f88c072cebf93","computer","Desktop or Laptop","Windows 10","Chrome 130.0.0.0","1280x720","1280x720",NA,NA,0,"Gambling_GBO",15,"In","BCADKEJFIGH",NA,"In","MH_OCT","seq4","Gamble_Rand_Seq4","Gamble_Rand_Seq4",1,"Rating","Screen 1","hx8b5a",1,"info","",16.7000000000116,0,16.7000000000116,16.7000000000116,0,16.7000000000116,1,16.7000000000116,0,0,NA,"Slider","MoodSlider",2,"object-243","Rating","happy","not happy","happy",1,"",NA,NA,NA,NA,NA,"",NA,NA,NA,NA,NA,NA,NA,"MDPRF56321"
"23",1730468923053,"01/11/2024 13:48:43",1730468923053,0,"01/11/2024 13:48:43",193496,6,"task-nz4r",NA,41048921,11986016,NA,"complete",NA,"6724cd42a22f88c072cebf93","computer","Desktop or Laptop","Windows 10","Chrome 130.0.0.0","1280x720","1280x720",NA,NA,0,"Gambling_GBO",15,"In","BCADKEJFIGH",NA,"In","MH_OCT","seq4","Gamble_Rand_Seq4","Gamble_Rand_Seq4",1,"Rating","Screen 1","hx8b5a",1,"continue","",3839.09999992847,3825.5,3839.09999992847,3839.09999992847,3825.5,3839.09999992847,1,3839.09999992847,0,0,NA,"Click To Continue","Continue Button",3,"object-25","Rating","happy","not happy","happy",1,"",NA,NA,NA,NA,NA,"",NA,NA,NA,NA,NA,NA,NA,"MDPRF56321"
"24",1730468923060,"01/11/2024 13:48:43",1730468923060,0,"01/11/2024 13:48:43",193496,6,"task-nz4r",NA,41048921,11986016,NA,"complete",NA,"6724cd42a22f88c072cebf93","computer","Desktop or Laptop","Windows 10","Chrome 130.0.0.0","1280x720","1280x720",NA,NA,0,"Gambling_GBO",15,"In","BCADKEJFIGH",NA,"In","MH_OCT","seq4","Gamble_Rand_Seq4","Gamble_Rand_Seq4",1,"Rating","Screen 1","hx8b5a",1,"response","51",2810.89999999999,3825.5,3842.20000000001,2810.89999999999,3825.5,3842.20000000001,1,2810.89999999999,1031.30000000002,0,NA,"Slider","MoodSlider",2,"object-243","Rating","happy","not happy","happy",1,"",NA,NA,NA,NA,NA,"",NA,NA,NA,NA,NA,NA,NA,"MDPRF56321"
"25",1730468923083,"01/11/2024 13:48:43",1730468923083,0,"01/11/2024 13:48:43",193496,6,"task-nz4r",NA,41048921,11986016,NA,"complete",NA,"6724cd42a22f88c072cebf93","computer","Desktop or Laptop","Windows 10","Chrome 130.0.0.0","1280x720","1280x720",NA,NA,0,"Gambling_GBO",15,"In","BCADKEJFIGH",NA,"In","MH_OCT","seq4","Gamble_Rand_Seq4","Gamble_Rand_Seq4",2,"Rating","Screen 1","hx8b5a",1,"info","",16.7000000000116,0,16.7000000000116,16.7000000000116,0,16.7000000000116,1,16.7000000000116,0,0,NA,"Slider","MoodSlider",2,"object-243","Rating","frustrated","not frustrated","frustrated",1,"",NA,NA,NA,NA,NA,"",NA,NA,NA,NA,NA,NA,NA,"MDPRF56321"
"26",1730468926470,"01/11/2024 13:48:46",1730468926470,0,"01/11/2024 13:48:46",193496,6,"task-nz4r",NA,41048921,11986016,NA,"complete",NA,"6724cd42a22f88c072cebf93","computer","Desktop or Laptop","Windows 10","Chrome 130.0.0.0","1280x720","1280x720",NA,NA,0,"Gambling_GBO",15,"In","BCADKEJFIGH",NA,"In","MH_OCT","seq4","Gamble_Rand_Seq4","Gamble_Rand_Seq4",2,"Rating","Screen 1","hx8b5a",1,"continue","",3431.09999992847,3426.39999999999,3431.09999992847,3431.09999992847,3426.39999999999,3431.09999992847,1,3431.09999992847,0,0,NA,"Click To Continue","Continue Button",3,"object-25","Rating","frustrated","not frustrated","frustrated",1,"",NA,NA,NA,NA,NA,"",NA,NA,NA,NA,NA,NA,NA,"MDPRF56321"
"27",1730468926471,"01/11/2024 13:48:46",1730468926471,0,"01/11/2024 13:48:46",193496,6,"task-nz4r",NA,41048921,11986016,NA,"complete",NA,"6724cd42a22f88c072cebf93","computer","Desktop or Laptop","Windows 10","Chrome 130.0.0.0","1280x720","1280x720",NA,NA,0,"Gambling_GBO",15,"In","BCADKEJFIGH",NA,"In","MH_OCT","seq4","Gamble_Rand_Seq4","Gamble_Rand_Seq4",2,"Rating","Screen 1","hx8b5a",1,"response","67",2345.39999999999,3426.39999999999,3431.69999995231,2345.39999999999,3426.39999999999,3431.69999995231,1,2345.39999999999,1086.29999995232,0,NA,"Slider","MoodSlider",2,"object-243","Rating","frustrated","not frustrated","frustrated",1,"",NA,NA,NA,NA,NA,"",NA,NA,NA,NA,NA,NA,NA,"MDPRF56321"
"28",1730468926486,"01/11/2024 13:48:46",1730468926486,0,"01/11/2024 13:48:46",193496,6,"task-nz4r",NA,41048921,11986016,NA,"complete",NA,"6724cd42a22f88c072cebf93","computer","Desktop or Laptop","Windows 10","Chrome 130.0.0.0","1280x720","1280x720",NA,NA,0,"Gambling_GBO",15,"In","BCADKEJFIGH",NA,"In","MH_OCT","seq4","Gamble_Rand_Seq4","Gamble_Rand_Seq4",3,"Rating","Screen 1","hx8b5a",1,"info","",16.5,0,16.5,16.5,0,16.5,1,16.5,0,0,NA,"Slider","MoodSlider",2,"object-243","Rating","bored","not bored","bored",1,"",NA,NA,NA,NA,NA,"",NA,NA,NA,NA,NA,NA,NA,"MDPRF56321"
"29",1730468931494,"01/11/2024 13:48:51",1730468931494,0,"01/11/2024 13:48:51",193496,6,"task-nz4r",NA,41048921,11986016,NA,"complete",NA,"6724cd42a22f88c072cebf93","computer","Desktop or Laptop","Windows 10","Chrome 130.0.0.0","1280x720","1280x720",NA,NA,0,"Gambling_GBO",15,"In","BCADKEJFIGH",NA,"In","MH_OCT","seq4","Gamble_Rand_Seq4","Gamble_Rand_Seq4",3,"Rating","Screen 1","hx8b5a",1,"continue","",5028.29999995232,5023.39999999999,5028.29999995232,5028.29999995232,5023.39999999999,5028.29999995232,1,5028.29999995232,0,0,NA,"Click To Continue","Continue Button",3,"object-25","Rating","bored","not bored","bored",1,"",NA,NA,NA,NA,NA,"",NA,NA,NA,NA,NA,NA,NA,"MDPRF56321"
"30",1730468931495,"01/11/2024 13:48:51",1730468931495,0,"01/11/2024 13:48:51",193496,6,"task-nz4r",NA,41048921,11986016,NA,"complete",NA,"6724cd42a22f88c072cebf93","computer","Desktop or Laptop","Windows 10","Chrome 130.0.0.0","1280x720","1280x720",NA,NA,0,"Gambling_GBO",15,"In","BCADKEJFIGH",NA,"In","MH_OCT","seq4","Gamble_Rand_Seq4","Gamble_Rand_Seq4",3,"Rating","Screen 1","hx8b5a",1,"response","18",2312,5023.39999999999,5029.29999995232,2312,5023.39999999999,5029.29999995232,1,2312,2717.29999995232,0,NA,"Slider","MoodSlider",2,"object-243","Rating","bored","not bored","bored",1,"",NA,NA,NA,NA,NA,"",NA,NA,NA,NA,NA,NA,NA,"MDPRF56321"
"31",1730468933452,"01/11/2024 13:48:53",1730468933452,0,"01/11/2024 13:48:53",193496,6,"task-nz4r",NA,41048921,11986016,NA,"complete",NA,"6724cd42a22f88c072cebf93","computer","Desktop or Laptop","Windows 10","Chrome 130.0.0.0","1280x720","1280x720",NA,NA,0,"Gambling_GBO",15,"In","BCADKEJFIGH",NA,"In","MH_OCT","seq4","Gamble_Rand_Seq4","Gamble_Rand_Seq4",1,"winB","Screen 1","pkkyi8",1,"continue","",1962.60000000001,1962.60000000001,1962.60000000001,1962.60000000001,1962.60000000001,1962.60000000001,1,1962.60000000001,0,0,NA,"Fixation Timing","Fixation",1,"object-246","winB","","","",NA,"Right",0.33,0,1,1,NA,"",NA,NA,NA,NA,NA,NA,NA,"MDPRF56321"
"32",1730468934624,"01/11/2024 13:48:54",1730468934624,0,"01/11/2024 13:48:54",193496,6,"task-nz4r",NA,41048921,11986016,NA,"complete",NA,"6724cd42a22f88c072cebf93","computer","Desktop or Laptop","Windows 10","Chrome 130.0.0.0","1280x720","1280x720",NA,NA,0,"Gambling_GBO",15,"In","BCADKEJFIGH",NA,"In","MH_OCT","seq4","Gamble_Rand_Seq4","Gamble_Rand_Seq4",1,"winB","choice","5lszbx",2,"response","Left",1165.60000000001,1148.3,1165.60000000001,1165.60000000001,1148.3,1165.60000000001,0,1165.60000000001,0,0,NA,"Keyboard Response","KeyResponseC",5,"object-255","winB","","","",NA,"Right",0.33,0,1,1,NA,"Left",NA,0.33,NA,NA,NA,NA,0.33,"MDPRF56321"
"33",1730468939606,"01/11/2024 13:48:59",1730468939606,0,"01/11/2024 13:48:59",193496,6,"task-nz4r",NA,41048921,11986016,NA,"complete",NA,"6724cd42a22f88c072cebf93","computer","Desktop or Laptop","Windows 10","Chrome 130.0.0.0","1280x720","1280x720",NA,NA,0,"Gambling_GBO",15,"In","BCADKEJFIGH",NA,"In","MH_OCT","seq4","Gamble_Rand_Seq4","Gamble_Rand_Seq4",1,"winB","certain","nw4etn",3,"timedOut","",5006.7,5005.90000000001,5006.7,5006.7,5005.90000000001,5006.7,1,5006.7,0,0,NA,"Time Limit","screen",0,"screen","winB","","","",NA,"Right",0.33,0,1,1,NA,"Left",NA,0.33,NA,NA,NA,NA,0.33,"MDPRF56321"
"34",1730468939623,"01/11/2024 13:48:59",1730468939623,0,"01/11/2024 13:48:59",193496,6,"task-nz4r",NA,41048921,11986016,NA,"complete",NA,"6724cd42a22f88c072cebf93","computer","Desktop or Laptop","Windows 10","Chrome 130.0.0.0","1280x720","1280x720",NA,NA,0,"Gambling_GBO",15,"In","BCADKEJFIGH",NA,"In","MH_OCT","seq4","Gamble_Rand_Seq4","Gamble_Rand_Seq4",4,"Rating","Screen 1","hx8b5a",1,"info","",16.5,0,16.5,16.5,0,16.5,1,16.5,0,0,NA,"Slider","MoodSlider",2,"object-243","Rating","bored","not bored","bored",2,"",NA,NA,NA,NA,NA,"Left",NA,0.33,NA,NA,NA,NA,0.33,"MDPRF56321"
"35",1730468945080,"01/11/2024 13:49:05",1730468945080,0,"01/11/2024 13:49:05",193496,6,"task-nz4r",NA,41048921,11986016,NA,"complete",NA,"6724cd42a22f88c072cebf93","computer","Desktop or Laptop","Windows 10","Chrome 130.0.0.0","1280x720","1280x720",NA,NA,0,"Gambling_GBO",15,"In","BCADKEJFIGH",NA,"In","MH_OCT","seq4","Gamble_Rand_Seq4","Gamble_Rand_Seq4",4,"Rating","Screen 1","hx8b5a",1,"continue","",5474.0999999523,5472.19999999998,5474.0999999523,5474.0999999523,5472.19999999998,5474.0999999523,1,5474.0999999523,0,0,NA,"Click To Continue","Continue Button",3,"object-25","Rating","bored","not bored","bored",2,"",NA,NA,NA,NA,NA,"Left",NA,0.33,NA,NA,NA,NA,0.33,"MDPRF56321"
"36",1730468945083,"01/11/2024 13:49:05",1730468945083,0,"01/11/2024 13:49:05",193496,6,"task-nz4r",NA,41048921,11986016,NA,"complete",NA,"6724cd42a22f88c072cebf93","computer","Desktop or Laptop","Windows 10","Chrome 130.0.0.0","1280x720","1280x720",NA,NA,0,"Gambling_GBO",15,"In","BCADKEJFIGH",NA,"In","MH_OCT","seq4","Gamble_Rand_Seq4","Gamble_Rand_Seq4",4,"Rating","Screen 1","hx8b5a",1,"response","18",3892.19999999998,5472.19999999998,5477.5999999523,3892.19999999998,5472.19999999998,5477.5999999523,1,3892.19999999998,1585.39999995232,0,NA,"Slider","MoodSlider",2,"object-243","Rating","bored","not bored","bored",2,"",NA,NA,NA,NA,NA,"Left",NA,0.33,NA,NA,NA,NA,0.33,"MDPRF56321"
"37",1730468945099,"01/11/2024 13:49:05",1730468945099,0,"01/11/2024 13:49:05",193496,6,"task-nz4r",NA,41048921,11986016,NA,"complete",NA,"6724cd42a22f88c072cebf93","computer","Desktop or Laptop","Windows 10","Chrome 130.0.0.0","1280x720","1280x720",NA,NA,0,"Gambling_GBO",15,"In","BCADKEJFIGH",NA,"In","MH_OCT","seq4","Gamble_Rand_Seq4","Gamble_Rand_Seq4",5,"Rating","Screen 1","hx8b5a",1,"info","",16.6999999999825,0,16.6999999999825,16.6999999999825,0,16.6999999999825,1,16.6999999999825,0,0,NA,"Slider","MoodSlider",2,"object-243","Rating","happy","not happy","happy",2,"",NA,NA,NA,NA,NA,"Left",NA,0.33,NA,NA,NA,NA,0.33,"MDPRF56321"
"38",1730468948577,"01/11/2024 13:49:08",1730468948577,0,"01/11/2024 13:49:08",193496,6,"task-nz4r",NA,41048921,11986016,NA,"complete",NA,"6724cd42a22f88c072cebf93","computer","Desktop or Laptop","Windows 10","Chrome 130.0.0.0","1280x720","1280x720",NA,NA,0,"Gambling_GBO",15,"In","BCADKEJFIGH",NA,"In","MH_OCT","seq4","Gamble_Rand_Seq4","Gamble_Rand_Seq4",5,"Rating","Screen 1","hx8b5a",1,"continue","",3498.99999997616,3493,3498.99999997616,3498.99999997616,3493,3498.99999997616,1,3498.99999997616,0,0,NA,"Click To Continue","Continue Button",3,"object-25","Rating","happy","not happy","happy",2,"",NA,NA,NA,NA,NA,"Left",NA,0.33,NA,NA,NA,NA,0.33,"MDPRF56321"
"39",1730468948577,"01/11/2024 13:49:08",1730468948577,0,"01/11/2024 13:49:08",193496,6,"task-nz4r",NA,41048921,11986016,NA,"complete",NA,"6724cd42a22f88c072cebf93","computer","Desktop or Laptop","Windows 10","Chrome 130.0.0.0","1280x720","1280x720",NA,NA,0,"Gambling_GBO",15,"In","BCADKEJFIGH",NA,"In","MH_OCT","seq4","Gamble_Rand_Seq4","Gamble_Rand_Seq4",5,"Rating","Screen 1","hx8b5a",1,"response","28",2596.39999999999,3493,3499.70000002385,2596.39999999999,3493,3499.70000002385,1,2596.39999999999,903.300000023854,0,NA,"Slider","MoodSlider",2,"object-243","Rating","happy","not happy","happy",2,"",NA,NA,NA,NA,NA,"Left",NA,0.33,NA,NA,NA,NA,0.33,"MDPRF56321"
"40",1730468948593,"01/11/2024 13:49:08",1730468948593,0,"01/11/2024 13:49:08",193496,6,"task-nz4r",NA,41048921,11986016,NA,"complete",NA,"6724cd42a22f88c072cebf93","computer","Desktop or Laptop","Windows 10","Chrome 130.0.0.0","1280x720","1280x720",NA,NA,0,"Gambling_GBO",15,"In","BCADKEJFIGH",NA,"In","MH_OCT","seq4","Gamble_Rand_Seq4","Gamble_Rand_Seq4",6,"Rating","Screen 1","hx8b5a",1,"info","",16.5,0,16.5,16.5,0,16.5,1,16.5,0,0,NA,"Slider","MoodSlider",2,"object-243","Rating","frustrated","not frustrated","frustrated",2,"",NA,NA,NA,NA,NA,"Left",NA,0.33,NA,NA,NA,NA,0.33,"MDPRF56321"
"41",1730468950611,"01/11/2024 13:49:10",1730468950611,0,"01/11/2024 13:49:10",193496,6,"task-nz4r",NA,41048921,11986016,NA,"complete",NA,"6724cd42a22f88c072cebf93","computer","Desktop or Laptop","Windows 10","Chrome 130.0.0.0","1280x720","1280x720",NA,NA,0,"Gambling_GBO",15,"In","BCADKEJFIGH",NA,"In","MH_OCT","seq4","Gamble_Rand_Seq4","Gamble_Rand_Seq4",6,"Rating","Screen 1","hx8b5a",1,"continue","",2040.60000000001,2029.30000000002,2040.60000000001,2040.60000000001,2029.30000000002,2040.60000000001,1,2040.60000000001,0,0,NA,"Click To Continue","Continue Button",3,"object-25","Rating","frustrated","not frustrated","frustrated",2,"",NA,NA,NA,NA,NA,"Left",NA,0.33,NA,NA,NA,NA,0.33,"MDPRF56321"
"42",1730468950612,"01/11/2024 13:49:10",1730468950612,0,"01/11/2024 13:49:10",193496,6,"task-nz4r",NA,41048921,11986016,NA,"complete",NA,"6724cd42a22f88c072cebf93","computer","Desktop or Laptop","Windows 10","Chrome 130.0.0.0","1280x720","1280x720",NA,NA,0,"Gambling_GBO",15,"In","BCADKEJFIGH",NA,"In","MH_OCT","seq4","Gamble_Rand_Seq4","Gamble_Rand_Seq4",6,"Rating","Screen 1","hx8b5a",1,"response","81",1181,2029.30000000002,2041.39999995232,1181,2029.30000000002,2041.39999995232,1,1181,860.399999952322,0,NA,"Slider","MoodSlider",2,"object-243","Rating","frustrated","not frustrated","frustrated",2,"",NA,NA,NA,NA,NA,"Left",NA,0.33,NA,NA,NA,NA,0.33,"MDPRF56321"
"43",1730468952563,"01/11/2024 13:49:12",1730468952563,0,"01/11/2024 13:49:12",193496,6,"task-nz4r",NA,41048921,11986016,NA,"complete",NA,"6724cd42a22f88c072cebf93","computer","Desktop or Laptop","Windows 10","Chrome 130.0.0.0","1280x720","1280x720",NA,NA,0,"Gambling_GBO",15,"In","BCADKEJFIGH",NA,"In","MH_OCT","seq4","Gamble_Rand_Seq4","Gamble_Rand_Seq4",1,"lossB","Screen 1","a4fynh",1,"continue","",1962.69999999998,1962.69999999998,1962.69999999998,1962.69999999998,1962.69999999998,1962.69999999998,1,1962.69999999998,0,0,NA,"Fixation Timing","Fixation",1,"object-113","lossB","","","",NA,"Right",2,1,4,2,NA,"Left",NA,0.33,NA,NA,NA,NA,0.33,"MDPRF56321"
"44",1730468954028,"01/11/2024 13:49:14",1730468954028,0,"01/11/2024 13:49:14",193496,6,"task-nz4r",NA,41048921,11986016,NA,"complete",NA,"6724cd42a22f88c072cebf93","computer","Desktop or Laptop","Windows 10","Chrome 130.0.0.0","1280x720","1280x720",NA,NA,0,"Gambling_GBO",15,"In","BCADKEJFIGH",NA,"In","MH_OCT","seq4","Gamble_Rand_Seq4","Gamble_Rand_Seq4",1,"lossB","choice","k9qq8f",2,"response","Left",1462.89999995232,1447,1462.89999995232,1462.89999995232,1447,1462.89999995232,0,1462.89999995232,0,0,NA,"Keyboard Response","KeyResponseC",5,"object-199","lossB","","","",NA,"Right",2,1,4,2,NA,"Left",NA,2.33,NA,NA,NA,NA,2,"MDPRF56321"
"45",1730468959017,"01/11/2024 13:49:19",1730468959017,0,"01/11/2024 13:49:19",193496,6,"task-nz4r",NA,41048921,11986016,NA,"complete",NA,"6724cd42a22f88c072cebf93","computer","Desktop or Laptop","Windows 10","Chrome 130.0.0.0","1280x720","1280x720",NA,NA,0,"Gambling_GBO",15,"In","BCADKEJFIGH",NA,"In","MH_OCT","seq4","Gamble_Rand_Seq4","Gamble_Rand_Seq4",1,"lossB","certain","rptf8c",3,"timedOut","",5007.29999992848,5006.60000000001,5007.29999992848,5007.29999992848,5006.60000000001,5007.29999992848,1,5007.29999992848,0,0,NA,"Time Limit","screen",0,"screen","lossB","","","",NA,"Right",2,1,4,2,NA,"Left",NA,2.33,NA,NA,NA,NA,2,"MDPRF56321"
"46",1730468959045,"01/11/2024 13:49:19",1730468959045,0,"01/11/2024 13:49:19",193496,6,"task-nz4r",NA,41048921,11986016,NA,"complete",NA,"6724cd42a22f88c072cebf93","computer","Desktop or Laptop","Windows 10","Chrome 130.0.0.0","1280x720","1280x720",NA,NA,0,"Gambling_GBO",15,"In","BCADKEJFIGH",NA,"In","MH_OCT","seq4","Gamble_Rand_Seq4","Gamble_Rand_Seq4",7,"Rating","Screen 1","hx8b5a",1,"info","",16.6000000000058,0,16.6000000000058,16.6000000000058,0,16.6000000000058,1,16.6000000000058,0,0,NA,"Slider","MoodSlider",2,"object-243","Rating","frustrated","not frustrated","frustrated",3,"",NA,NA,NA,NA,NA,"Left",NA,2.33,NA,NA,NA,NA,2,"MDPRF56321"
"47",1730468961474,"01/11/2024 13:49:21",1730468961474,0,"01/11/2024 13:49:21",193496,6,"task-nz4r",NA,41048921,11986016,NA,"complete",NA,"6724cd42a22f88c072cebf93","computer","Desktop or Laptop","Windows 10","Chrome 130.0.0.0","1280x720","1280x720",NA,NA,0,"Gambling_GBO",15,"In","BCADKEJFIGH",NA,"In","MH_OCT","seq4","Gamble_Rand_Seq4","Gamble_Rand_Seq4",7,"Rating","Screen 1","hx8b5a",1,"continue","",2457.19999992847,2445.10000000001,2457.19999992847,2457.19999992847,2445.10000000001,2457.19999992847,1,2457.19999992847,0,0,NA,"Click To Continue","Continue Button",3,"object-25","Rating","frustrated","not frustrated","frustrated",3,"",NA,NA,NA,NA,NA,"Left",NA,2.33,NA,NA,NA,NA,2,"MDPRF56321"
"48",1730468961474,"01/11/2024 13:49:21",1730468961474,0,"01/11/2024 13:49:21",193496,6,"task-nz4r",NA,41048921,11986016,NA,"complete",NA,"6724cd42a22f88c072cebf93","computer","Desktop or Laptop","Windows 10","Chrome 130.0.0.0","1280x720","1280x720",NA,NA,0,"Gambling_GBO",15,"In","BCADKEJFIGH",NA,"In","MH_OCT","seq4","Gamble_Rand_Seq4","Gamble_Rand_Seq4",7,"Rating","Screen 1","hx8b5a",1,"response","73",1596.70000000001,2445.10000000001,2457.69999992847,1596.70000000001,2445.10000000001,2457.69999992847,1,1596.70000000001,860.999999928463,0,NA,"Slider","MoodSlider",2,"object-243","Rating","frustrated","not frustrated","frustrated",3,"",NA,NA,NA,NA,NA,"Left",NA,2.33,NA,NA,NA,NA,2,"MDPRF56321"
"49",1730468961489,"01/11/2024 13:49:21",1730468961489,0,"01/11/2024 13:49:21",193496,6,"task-nz4r",NA,41048921,11986016,NA,"complete",NA,"6724cd42a22f88c072cebf93","computer","Desktop or Laptop","Windows 10","Chrome 130.0.0.0","1280x720","1280x720",NA,NA,0,"Gambling_GBO",15,"In","BCADKEJFIGH",NA,"In","MH_OCT","seq4","Gamble_Rand_Seq4","Gamble_Rand_Seq4",8,"Rating","Screen 1","hx8b5a",1,"info","",16.7000000000116,0,16.7000000000116,16.7000000000116,0,16.7000000000116,1,16.7000000000116,0,0,NA,"Slider","MoodSlider",2,"object-243","Rating","happy","not happy","happy",3,"",NA,NA,NA,NA,NA,"Left",NA,2.33,NA,NA,NA,NA,2,"MDPRF56321"
"50",1730468967800,"01/11/2024 13:49:27",1730468967800,0,"01/11/2024 13:49:27",193496,6,"task-nz4r",NA,41048921,11986016,NA,"complete",NA,"6724cd42a22f88c072cebf93","computer","Desktop or Laptop","Windows 10","Chrome 130.0.0.0","1280x720","1280x720",NA,NA,0,"Gambling_GBO",15,"In","BCADKEJFIGH",NA,"In","MH_OCT","seq4","Gamble_Rand_Seq4","Gamble_Rand_Seq4",8,"Rating","Screen 1","hx8b5a",1,"continue","",6338.79999997615,6337.19999999998,6338.79999997615,6338.79999997615,6337.19999999998,6338.79999997615,1,6338.79999997615,0,0,NA,"Click To Continue","Continue Button",3,"object-25","Rating","happy","not happy","happy",3,"",NA,NA,NA,NA,NA,"Left",NA,2.33,NA,NA,NA,NA,2,"MDPRF56321"
"51",1730468967801,"01/11/2024 13:49:27",1730468967801,0,"01/11/2024 13:49:27",193496,6,"task-nz4r",NA,41048921,11986016,NA,"complete",NA,"6724cd42a22f88c072cebf93","computer","Desktop or Laptop","Windows 10","Chrome 130.0.0.0","1280x720","1280x720",NA,NA,0,"Gambling_GBO",15,"In","BCADKEJFIGH",NA,"In","MH_OCT","seq4","Gamble_Rand_Seq4","Gamble_Rand_Seq4",8,"Rating","Screen 1","hx8b5a",1,"response","77",3027.19999999998,6337.19999999998,6339.69999995231,3027.19999999998,6337.19999999998,6339.69999995231,1,3027.19999999998,3312.49999995233,0,NA,"Slider","MoodSlider",2,"object-243","Rating","happy","not happy","happy",3,"",NA,NA,NA,NA,NA,"Left",NA,2.33,NA,NA,NA,NA,2,"MDPRF56321"
"52",1730468967816,"01/11/2024 13:49:27",1730468967816,0,"01/11/2024 13:49:27",193496,6,"task-nz4r",NA,41048921,11986016,NA,"complete",NA,"6724cd42a22f88c072cebf93","computer","Desktop or Laptop","Windows 10","Chrome 130.0.0.0","1280x720","1280x720",NA,NA,0,"Gambling_GBO",15,"In","BCADKEJFIGH",NA,"In","MH_OCT","seq4","Gamble_Rand_Seq4","Gamble_Rand_Seq4",9,"Rating","Screen 1","hx8b5a",1,"info","",16.6999999999825,0,16.6999999999825,16.6999999999825,0,16.6999999999825,1,16.6999999999825,0,0,NA,"Slider","MoodSlider",2,"object-243","Rating","bored","not bored","bored",3,"",NA,NA,NA,NA,NA,"Left",NA,2.33,NA,NA,NA,NA,2,"MDPRF56321"
"53",1730468970775,"01/11/2024 13:49:30",1730468970775,0,"01/11/2024 13:49:30",193496,6,"task-nz4r",NA,41048921,11986016,NA,"complete",NA,"6724cd42a22f88c072cebf93","computer","Desktop or Laptop","Windows 10","Chrome 130.0.0.0","1280x720","1280x720",NA,NA,0,"Gambling_GBO",15,"In","BCADKEJFIGH",NA,"In","MH_OCT","seq4","Gamble_Rand_Seq4","Gamble_Rand_Seq4",9,"Rating","Screen 1","hx8b5a",1,"continue","",2975.89999992849,2960.70000000001,2975.89999992849,2975.89999992849,2960.70000000001,2975.89999992849,1,2975.89999992849,0,0,NA,"Click To Continue","Continue Button",3,"object-25","Rating","bored","not bored","bored",3,"",NA,NA,NA,NA,NA,"Left",NA,2.33,NA,NA,NA,NA,2,"MDPRF56321"
"54",1730468970781,"01/11/2024 13:49:30",1730468970781,0,"01/11/2024 13:49:30",193496,6,"task-nz4r",NA,41048921,11986016,NA,"complete",NA,"6724cd42a22f88c072cebf93","computer","Desktop or Laptop","Windows 10","Chrome 130.0.0.0","1280x720","1280x720",NA,NA,0,"Gambling_GBO",15,"In","BCADKEJFIGH",NA,"In","MH_OCT","seq4","Gamble_Rand_Seq4","Gamble_Rand_Seq4",9,"Rating","Screen 1","hx8b5a",1,"response","19",2195.80000000002,2960.70000000001,2977.20000000001,2195.80000000002,2960.70000000001,2977.20000000001,1,2195.80000000002,781.399999999994,0,NA,"Slider","MoodSlider",2,"object-243","Rating","bored","not bored","bored",3,"",NA,NA,NA,NA,NA,"Left",NA,2.33,NA,NA,NA,NA,2,"MDPRF56321"
"55",1730468972723,"01/11/2024 13:49:32",1730468972723,0,"01/11/2024 13:49:32",193496,6,"task-nz4r",NA,41048921,11986016,NA,"complete",NA,"6724cd42a22f88c072cebf93","computer","Desktop or Laptop","Windows 10","Chrome 130.0.0.0","1280x720","1280x720",NA,NA,0,"Gambling_GBO",15,"In","BCADKEJFIGH",NA,"In","MH_OCT","seq4","Gamble_Rand_Seq4","Gamble_Rand_Seq4",1,"lossT","Screen 1","2oxi65",1,"continue","",1962.70000000001,1962.70000000001,1962.70000000001,1962.70000000001,1962.70000000001,1962.70000000001,1,1962.70000000001,0,0,NA,"Fixation Timing","Fixation",1,"object-354","lossT","","","",NA,"Right",0.33,-1,3,3,NA,"Left",NA,2.33,NA,NA,NA,NA,2,"MDPRF56321"
"56",1730468974333,"01/11/2024 13:49:34",1730468974333,0,"01/11/2024 13:49:34",193496,6,"task-nz4r",NA,41048921,11986016,NA,"complete",NA,"6724cd42a22f88c072cebf93","computer","Desktop or Laptop","Windows 10","Chrome 130.0.0.0","1280x720","1280x720",NA,NA,0,"Gambling_GBO",15,"In","BCADKEJFIGH",NA,"In","MH_OCT","seq4","Gamble_Rand_Seq4","Gamble_Rand_Seq4",1,"lossT","choice","zjftf8",2,"response","Right",1608.40000002383,1596.69999999998,1608.40000002383,1608.40000002383,1596.69999999998,1608.40000002383,1,1608.40000002383,0,0,NA,"Keyboard Response","KeyResponseG",6,"object-352","lossT","","","",NA,"Right",0.33,-1,3,3,NA,"Right",NA,1.33,NA,NA,NA,NA,-1,"MDPRF56321"
"57",1730468978312,"01/11/2024 13:49:38",1730468978312,0,"01/11/2024 13:49:38",193496,6,"task-nz4r",NA,41048921,11986016,NA,"complete",NA,"6724cd42a22f88c072cebf93","computer","Desktop or Laptop","Windows 10","Chrome 130.0.0.0","1280x720","1280x720",NA,NA,0,"Gambling_GBO",15,"In","BCADKEJFIGH",NA,"In","MH_OCT","seq4","Gamble_Rand_Seq4","Gamble_Rand_Seq4",1,"lossT","gamble","h5bf9r",3,"timedOut","",3992.79999992848,3992,3992.79999992848,3992.79999992848,3992,3992.79999992848,1,3992.79999992848,0,0,NA,"Time Limit","screen",0,"screen","lossT","","","",NA,"Right",0.33,-1,3,3,NA,"Right",NA,1.33,NA,NA,NA,NA,-1,"MDPRF56321"
"58",1730468979309,"01/11/2024 13:49:39",1730468979309,0,"01/11/2024 13:49:39",193496,6,"task-nz4r",NA,41048921,11986016,NA,"complete",NA,"6724cd42a22f88c072cebf93","computer","Desktop or Laptop","Windows 10","Chrome 130.0.0.0","1280x720","1280x720",NA,NA,0,"Gambling_GBO",15,"In","BCADKEJFIGH",NA,"In","MH_OCT","seq4","Gamble_Rand_Seq4","Gamble_Rand_Seq4",1,"lossT","loss","kmnw8b",4,"timedOut","",998.700000023848,998.100000000006,998.700000023848,998.700000023848,998.100000000006,998.700000023848,1,998.700000023848,0,0,NA,"Time Limit","screen",0,"screen","lossT","","","",NA,"Right",0.33,-1,3,3,NA,"Right",NA,1.33,NA,NA,NA,NA,-1,"MDPRF56321"
"59",1730468979324,"01/11/2024 13:49:39",1730468979324,0,"01/11/2024 13:49:39",193496,6,"task-nz4r",NA,41048921,11986016,NA,"complete",NA,"6724cd42a22f88c072cebf93","computer","Desktop or Laptop","Windows 10","Chrome 130.0.0.0","1280x720","1280x720",NA,NA,0,"Gambling_GBO",15,"In","BCADKEJFIGH",NA,"In","MH_OCT","seq4","Gamble_Rand_Seq4","Gamble_Rand_Seq4",10,"Rating","Screen 1","hx8b5a",1,"info","",15.5,0,15.5,15.5,0,15.5,1,15.5,0,0,NA,"Slider","MoodSlider",2,"object-243","Rating","bored","not bored","bored",4,"",NA,NA,NA,NA,NA,"Right",NA,1.33,NA,NA,NA,NA,-1,"MDPRF56321"
"60",1730468988116,"01/11/2024 13:49:48",1730468988116,0,"01/11/2024 13:49:48",193496,6,"task-nz4r",NA,41048921,11986016,NA,"complete",NA,"6724cd42a22f88c072cebf93","computer","Desktop or Laptop","Windows 10","Chrome 130.0.0.0","1280x720","1280x720",NA,NA,0,"Gambling_GBO",15,"In","BCADKEJFIGH",NA,"In","MH_OCT","seq4","Gamble_Rand_Seq4","Gamble_Rand_Seq4",10,"Rating","Screen 1","hx8b5a",1,"continue","",8807,8798.79999999999,8807,8807,8798.79999999999,8807,1,8807,0,0,NA,"Click To Continue","Continue Button",3,"object-25","Rating","bored","not bored","bored",4,"",NA,NA,NA,NA,NA,"Right",NA,1.33,NA,NA,NA,NA,-1,"MDPRF56321"
"61",1730468988121,"01/11/2024 13:49:48",1730468988121,0,"01/11/2024 13:49:48",193496,6,"task-nz4r",NA,41048921,11986016,NA,"complete",NA,"6724cd42a22f88c072cebf93","computer","Desktop or Laptop","Windows 10","Chrome 130.0.0.0","1280x720","1280x720",NA,NA,0,"Gambling_GBO",15,"In","BCADKEJFIGH",NA,"In","MH_OCT","seq4","Gamble_Rand_Seq4","Gamble_Rand_Seq4",10,"Rating","Screen 1","hx8b5a",1,"response","8",7501.29999999999,8798.79999999999,8812.10000002384,7501.29999999999,8798.79999999999,8812.10000002384,1,7501.29999999999,1310.80000002385,0,NA,"Slider","MoodSlider",2,"object-243","Rating","bored","not bored","bored",4,"",NA,NA,NA,NA,NA,"Right",NA,1.33,NA,NA,NA,NA,-1,"MDPRF56321"
"62",1730468988135,"01/11/2024 13:49:48",1730468988135,0,"01/11/2024 13:49:48",193496,6,"task-nz4r",NA,41048921,11986016,NA,"complete",NA,"6724cd42a22f88c072cebf93","computer","Desktop or Laptop","Windows 10","Chrome 130.0.0.0","1280x720","1280x720",NA,NA,0,"Gambling_GBO",15,"In","BCADKEJFIGH",NA,"In","MH_OCT","seq4","Gamble_Rand_Seq4","Gamble_Rand_Seq4",11,"Rating","Screen 1","hx8b5a",1,"info","",16.6999999999825,0,16.6999999999825,16.6999999999825,0,16.6999999999825,1,16.6999999999825,0,0,NA,"Slider","MoodSlider",2,"object-243","Rating","frustrated","not frustrated","frustrated",4,"",NA,NA,NA,NA,NA,"Right",NA,1.33,NA,NA,NA,NA,-1,"MDPRF56321"
"63",1730468990688,"01/11/2024 13:49:50",1730468990688,0,"01/11/2024 13:49:50",193496,6,"task-nz4r",NA,41048921,11986016,NA,"complete",NA,"6724cd42a22f88c072cebf93","computer","Desktop or Laptop","Windows 10","Chrome 130.0.0.0","1280x720","1280x720",NA,NA,0,"Gambling_GBO",15,"In","BCADKEJFIGH",NA,"In","MH_OCT","seq4","Gamble_Rand_Seq4","Gamble_Rand_Seq4",11,"Rating","Screen 1","hx8b5a",1,"continue","",2580.70000000001,2578.10000000001,2580.70000000001,2580.70000000001,2578.10000000001,2580.70000000001,1,2580.70000000001,0,0,NA,"Click To Continue","Continue Button",3,"object-25","Rating","frustrated","not frustrated","frustrated",4,"",NA,NA,NA,NA,NA,"Right",NA,1.33,NA,NA,NA,NA,-1,"MDPRF56321"
"64",1730468990689,"01/11/2024 13:49:50",1730468990689,0,"01/11/2024 13:49:50",193496,6,"task-nz4r",NA,41048921,11986016,NA,"complete",NA,"6724cd42a22f88c072cebf93","computer","Desktop or Laptop","Windows 10","Chrome 130.0.0.0","1280x720","1280x720",NA,NA,0,"Gambling_GBO",15,"In","BCADKEJFIGH",NA,"In","MH_OCT","seq4","Gamble_Rand_Seq4","Gamble_Rand_Seq4",11,"Rating","Screen 1","hx8b5a",1,"response","74",1746.5,2578.10000000001,2581.39999992849,1746.5,2578.10000000001,2581.39999992849,1,1746.5,834.899999928486,0,NA,"Slider","MoodSlider",2,"object-243","Rating","frustrated","not frustrated","frustrated",4,"",NA,NA,NA,NA,NA,"Right",NA,1.33,NA,NA,NA,NA,-1,"MDPRF56321"
"65",1730468990704,"01/11/2024 13:49:50",1730468990704,0,"01/11/2024 13:49:50",193496,6,"task-nz4r",NA,41048921,11986016,NA,"complete",NA,"6724cd42a22f88c072cebf93","computer","Desktop or Laptop","Windows 10","Chrome 130.0.0.0","1280x720","1280x720",NA,NA,0,"Gambling_GBO",15,"In","BCADKEJFIGH",NA,"In","MH_OCT","seq4","Gamble_Rand_Seq4","Gamble_Rand_Seq4",12,"Rating","Screen 1","hx8b5a",1,"info","",16.5,0,16.5,16.5,0,16.5,1,16.5,0,0,NA,"Slider","MoodSlider",2,"object-243","Rating","happy","not happy","happy",4,"",NA,NA,NA,NA,NA,"Right",NA,1.33,NA,NA,NA,NA,-1,"MDPRF56321"
"66",1730468994285,"01/11/2024 13:49:54",1730468994285,0,"01/11/2024 13:49:54",193496,6,"task-nz4r",NA,41048921,11986016,NA,"complete",NA,"6724cd42a22f88c072cebf93","computer","Desktop or Laptop","Windows 10","Chrome 130.0.0.0","1280x720","1280x720",NA,NA,0,"Gambling_GBO",15,"In","BCADKEJFIGH",NA,"In","MH_OCT","seq4","Gamble_Rand_Seq4","Gamble_Rand_Seq4",12,"Rating","Screen 1","hx8b5a",1,"continue","",3599.39999995232,3592.80000000002,3599.39999995232,3599.39999995232,3592.80000000002,3599.39999995232,1,3599.39999995232,0,0,NA,"Click To Continue","Continue Button",3,"object-25","Rating","happy","not happy","happy",4,"",NA,NA,NA,NA,NA,"Right",NA,1.33,NA,NA,NA,NA,-1,"MDPRF56321"
"67",1730468994286,"01/11/2024 13:49:54",1730468994286,0,"01/11/2024 13:49:54",193496,6,"task-nz4r",NA,41048921,11986016,NA,"complete",NA,"6724cd42a22f88c072cebf93","computer","Desktop or Laptop","Windows 10","Chrome 130.0.0.0","1280x720","1280x720",NA,NA,0,"Gambling_GBO",15,"In","BCADKEJFIGH",NA,"In","MH_OCT","seq4","Gamble_Rand_Seq4","Gamble_Rand_Seq4",12,"Rating","Screen 1","hx8b5a",1,"response","54",2578.20000000001,3592.80000000002,3600.10000000001,2578.20000000001,3592.80000000002,3600.10000000001,1,2578.20000000001,1021.89999999999,0,NA,"Slider","MoodSlider",2,"object-243","Rating","happy","not happy","happy",4,"",NA,NA,NA,NA,NA,"Right",NA,1.33,NA,NA,NA,NA,-1,"MDPRF56321"
"68",1730468996242,"01/11/2024 13:49:56",1730468996242,0,"01/11/2024 13:49:56",193496,6,"task-nz4r",NA,41048921,11986016,NA,"complete",NA,"6724cd42a22f88c072cebf93","computer","Desktop or Laptop","Windows 10","Chrome 130.0.0.0","1280x720","1280x720",NA,NA,0,"Gambling_GBO",15,"In","BCADKEJFIGH",NA,"In","MH_OCT","seq4","Gamble_Rand_Seq4","Gamble_Rand_Seq4",2,"winB","Screen 1","pkkyi8",1,"continue","",1962.69999999998,1962.69999999998,1962.69999999998,1962.69999999998,1962.69999999998,1962.69999999998,1,1962.69999999998,0,0,NA,"Fixation Timing","Fixation",1,"object-246","winB","","","",NA,"Right",-3,-4,-1,4,NA,"Right",NA,1.33,NA,NA,NA,NA,-1,"MDPRF56321"
"69",1730468998814,"01/11/2024 13:49:58",1730468998814,0,"01/11/2024 13:49:58",193496,6,"task-nz4r",NA,41048921,11986016,NA,"complete",NA,"6724cd42a22f88c072cebf93","computer","Desktop or Laptop","Windows 10","Chrome 130.0.0.0","1280x720","1280x720",NA,NA,0,"Gambling_GBO",15,"In","BCADKEJFIGH",NA,"In","MH_OCT","seq4","Gamble_Rand_Seq4","Gamble_Rand_Seq4",2,"winB","choice","5lszbx",2,"response","Right",2571.10000000001,2561.5,2571.10000000001,2571.10000000001,2561.5,2571.10000000001,1,2571.10000000001,0,0,NA,"Keyboard Response","KeyResponseG",6,"object-256","winB","","","",NA,"Right",-3,-4,-1,4,NA,"Right",NA,0.33,NA,NA,NA,NA,-1,"MDPRF56321"
"70",1730469002795,"01/11/2024 13:50:02",1730469002795,0,"01/11/2024 13:50:02",193496,6,"task-nz4r",NA,41048921,11986016,NA,"complete",NA,"6724cd42a22f88c072cebf93","computer","Desktop or Laptop","Windows 10","Chrome 130.0.0.0","1280x720","1280x720",NA,NA,0,"Gambling_GBO",15,"In","BCADKEJFIGH",NA,"In","MH_OCT","seq4","Gamble_Rand_Seq4","Gamble_Rand_Seq4",2,"winB","gamble","17lgr3",3,"timedOut","",3992.49999997616,3991.89999999999,3992.49999997616,3992.49999997616,3991.89999999999,3992.49999997616,1,3992.49999997616,0,0,NA,"Time Limit","screen",0,"screen","winB","","","",NA,"Right",-3,-4,-1,4,NA,"Right",NA,0.33,NA,NA,NA,NA,-1,"MDPRF56321"
"71",1730469003793,"01/11/2024 13:50:03",1730469003793,0,"01/11/2024 13:50:03",193496,6,"task-nz4r",NA,41048921,11986016,NA,"complete",NA,"6724cd42a22f88c072cebf93","computer","Desktop or Laptop","Windows 10","Chrome 130.0.0.0","1280x720","1280x720",NA,NA,0,"Gambling_GBO",15,"In","BCADKEJFIGH",NA,"In","MH_OCT","seq4","Gamble_Rand_Seq4","Gamble_Rand_Seq4",2,"winB","win","dzz5jr",4,"timedOut","",998.59999997617,998.100000000006,998.59999997617,998.59999997617,998.100000000006,998.59999997617,1,998.59999997617,0,0,NA,"Time Limit","screen",0,"screen","winB","","","",NA,"Right",-3,-4,-1,4,NA,"Right",NA,0.33,NA,NA,NA,NA,-1,"MDPRF56321"
"72",1730469003810,"01/11/2024 13:50:03",1730469003810,0,"01/11/2024 13:50:03",193496,6,"task-nz4r",NA,41048921,11986016,NA,"complete",NA,"6724cd42a22f88c072cebf93","computer","Desktop or Laptop","Windows 10","Chrome 130.0.0.0","1280x720","1280x720",NA,NA,0,"Gambling_GBO",15,"In","BCADKEJFIGH",NA,"In","MH_OCT","seq4","Gamble_Rand_Seq4","Gamble_Rand_Seq4",13,"Rating","Screen 1","hx8b5a",1,"info","",16.6999999999825,0,16.6999999999825,16.6999999999825,0,16.6999999999825,1,16.6999999999825,0,0,NA,"Slider","MoodSlider",2,"object-243","Rating","happy","not happy","happy",5,"",NA,NA,NA,NA,NA,"Right",NA,0.33,NA,NA,NA,NA,-1,"MDPRF56321"
"73",1730469006738,"01/11/2024 13:50:06",1730469006738,0,"01/11/2024 13:50:06",193496,6,"task-nz4r",NA,41048921,11986016,NA,"complete",NA,"6724cd42a22f88c072cebf93","computer","Desktop or Laptop","Windows 10","Chrome 130.0.0.0","1280x720","1280x720",NA,NA,0,"Gambling_GBO",15,"In","BCADKEJFIGH",NA,"In","MH_OCT","seq4","Gamble_Rand_Seq4","Gamble_Rand_Seq4",13,"Rating","Screen 1","hx8b5a",1,"continue","",2945.29999992848,2943.89999999999,2945.29999992848,2945.29999992848,2943.89999999999,2945.29999992848,1,2945.29999992848,0,0,NA,"Click To Continue","Continue Button",3,"object-25","Rating","happy","not happy","happy",5,"",NA,NA,NA,NA,NA,"Right",NA,0.33,NA,NA,NA,NA,-1,"MDPRF56321"
"74",1730469006739,"01/11/2024 13:50:06",1730469006739,0,"01/11/2024 13:50:06",193496,6,"task-nz4r",NA,41048921,11986016,NA,"complete",NA,"6724cd42a22f88c072cebf93","computer","Desktop or Laptop","Windows 10","Chrome 130.0.0.0","1280x720","1280x720",NA,NA,0,"Gambling_GBO",15,"In","BCADKEJFIGH",NA,"In","MH_OCT","seq4","Gamble_Rand_Seq4","Gamble_Rand_Seq4",13,"Rating","Screen 1","hx8b5a",1,"response","82",2145.60000000001,2943.89999999999,2945.89999995232,2145.60000000001,2943.89999999999,2945.89999995232,1,2145.60000000001,800.299999952316,0,NA,"Slider","MoodSlider",2,"object-243","Rating","happy","not happy","happy",5,"",NA,NA,NA,NA,NA,"Right",NA,0.33,NA,NA,NA,NA,-1,"MDPRF56321"
"75",1730469006752,"01/11/2024 13:50:06",1730469006752,0,"01/11/2024 13:50:06",193496,6,"task-nz4r",NA,41048921,11986016,NA,"complete",NA,"6724cd42a22f88c072cebf93","computer","Desktop or Laptop","Windows 10","Chrome 130.0.0.0","1280x720","1280x720",NA,NA,0,"Gambling_GBO",15,"In","BCADKEJFIGH",NA,"In","MH_OCT","seq4","Gamble_Rand_Seq4","Gamble_Rand_Seq4",14,"Rating","Screen 1","hx8b5a",1,"info","",14.9999999523279,0,14.9999999523279,14.9999999523279,0,14.9999999523279,1,14.9999999523279,0,0,NA,"Slider","MoodSlider",2,"object-243","Rating","frustrated","not frustrated","frustrated",5,"",NA,NA,NA,NA,NA,"Right",NA,0.33,NA,NA,NA,NA,-1,"MDPRF56321"
"76",1730469009984,"01/11/2024 13:50:09",1730469009984,0,"01/11/2024 13:50:09",193496,6,"task-nz4r",NA,41048921,11986016,NA,"complete",NA,"6724cd42a22f88c072cebf93","computer","Desktop or Laptop","Windows 10","Chrome 130.0.0.0","1280x720","1280x720",NA,NA,0,"Gambling_GBO",15,"In","BCADKEJFIGH",NA,"In","MH_OCT","seq4","Gamble_Rand_Seq4","Gamble_Rand_Seq4",14,"Rating","Screen 1","hx8b5a",1,"continue","",3247.39999992849,3243.5,3247.39999992849,3247.39999992849,3243.5,3247.39999992849,1,3247.39999992849,0,0,NA,"Click To Continue","Continue Button",3,"object-25","Rating","frustrated","not frustrated","frustrated",5,"",NA,NA,NA,NA,NA,"Right",NA,0.33,NA,NA,NA,NA,-1,"MDPRF56321"
"77",1730469009989,"01/11/2024 13:50:09",1730469009989,0,"01/11/2024 13:50:09",193496,6,"task-nz4r",NA,41048921,11986016,NA,"complete",NA,"6724cd42a22f88c072cebf93","computer","Desktop or Laptop","Windows 10","Chrome 130.0.0.0","1280x720","1280x720",NA,NA,0,"Gambling_GBO",15,"In","BCADKEJFIGH",NA,"In","MH_OCT","seq4","Gamble_Rand_Seq4","Gamble_Rand_Seq4",14,"Rating","Screen 1","hx8b5a",1,"response","12",2228.90000000002,3243.5,3252.70000000001,2228.90000000002,3243.5,3252.70000000001,1,2228.90000000002,1023.79999999999,0,NA,"Slider","MoodSlider",2,"object-243","Rating","frustrated","not frustrated","frustrated",5,"",NA,NA,NA,NA,NA,"Right",NA,0.33,NA,NA,NA,NA,-1,"MDPRF56321"
"78",1730469010003,"01/11/2024 13:50:10",1730469010003,0,"01/11/2024 13:50:10",193496,6,"task-nz4r",NA,41048921,11986016,NA,"complete",NA,"6724cd42a22f88c072cebf93","computer","Desktop or Laptop","Windows 10","Chrome 130.0.0.0","1280x720","1280x720",NA,NA,0,"Gambling_GBO",15,"In","BCADKEJFIGH",NA,"In","MH_OCT","seq4","Gamble_Rand_Seq4","Gamble_Rand_Seq4",15,"Rating","Screen 1","hx8b5a",1,"info","",16.6999999999825,0,16.6999999999825,16.6999999999825,0,16.6999999999825,1,16.6999999999825,0,0,NA,"Slider","MoodSlider",2,"object-243","Rating","bored","not bored","bored",5,"",NA,NA,NA,NA,NA,"Right",NA,0.33,NA,NA,NA,NA,-1,"MDPRF56321"
"79",1730469013739,"01/11/2024 13:50:13",1730469013739,0,"01/11/2024 13:50:13",193496,6,"task-nz4r",NA,41048921,11986016,NA,"complete",NA,"6724cd42a22f88c072cebf93","computer","Desktop or Laptop","Windows 10","Chrome 130.0.0.0","1280x720","1280x720",NA,NA,0,"Gambling_GBO",15,"In","BCADKEJFIGH",NA,"In","MH_OCT","seq4","Gamble_Rand_Seq4","Gamble_Rand_Seq4",15,"Rating","Screen 1","hx8b5a",1,"continue","",3758.80000002385,3742.40000000002,3758.80000002385,3758.80000002385,3742.40000000002,3758.80000002385,1,3758.80000002385,0,0,NA,"Click To Continue","Continue Button",3,"object-25","Rating","bored","not bored","bored",5,"",NA,NA,NA,NA,NA,"Right",NA,0.33,NA,NA,NA,NA,-1,"MDPRF56321"
"80",1730469013740,"01/11/2024 13:50:13",1730469013740,0,"01/11/2024 13:50:13",193496,6,"task-nz4r",NA,41048921,11986016,NA,"complete",NA,"6724cd42a22f88c072cebf93","computer","Desktop or Laptop","Windows 10","Chrome 130.0.0.0","1280x720","1280x720",NA,NA,0,"Gambling_GBO",15,"In","BCADKEJFIGH",NA,"In","MH_OCT","seq4","Gamble_Rand_Seq4","Gamble_Rand_Seq4",15,"Rating","Screen 1","hx8b5a",1,"response","47",1846.30000000002,3742.40000000002,3759.00000000003,1846.30000000002,3742.40000000002,3759.00000000003,1,1846.30000000002,1912.70000000001,0,NA,"Slider","MoodSlider",2,"object-243","Rating","bored","not bored","bored",5,"",NA,NA,NA,NA,NA,"Right",NA,0.33,NA,NA,NA,NA,-1,"MDPRF56321"
"81",1730469015686,"01/11/2024 13:50:15",1730469015686,0,"01/11/2024 13:50:15",193496,6,"task-nz4r",NA,41048921,11986016,NA,"complete",NA,"6724cd42a22f88c072cebf93","computer","Desktop or Laptop","Windows 10","Chrome 130.0.0.0","1280x720","1280x720",NA,NA,0,"Gambling_GBO",15,"In","BCADKEJFIGH",NA,"In","MH_OCT","seq4","Gamble_Rand_Seq4","Gamble_Rand_Seq4",2,"lossT","Screen 1","2oxi65",1,"continue","",1962.79999999999,1962.79999999999,1962.79999999999,1962.79999999999,1962.79999999999,1962.79999999999,1,1962.79999999999,0,0,NA,"Fixation Timing","Fixation",1,"object-354","lossT","","","",NA,"Right",3.33,2,6,5,NA,"Right",NA,0.33,NA,NA,NA,NA,-1,"MDPRF56321"
"82",1730469017529,"01/11/2024 13:50:17",1730469017529,0,"01/11/2024 13:50:17",193496,6,"task-nz4r",NA,41048921,11986016,NA,"complete",NA,"6724cd42a22f88c072cebf93","computer","Desktop or Laptop","Windows 10","Chrome 130.0.0.0","1280x720","1280x720",NA,NA,0,"Gambling_GBO",15,"In","BCADKEJFIGH",NA,"In","MH_OCT","seq4","Gamble_Rand_Seq4","Gamble_Rand_Seq4",2,"lossT","choice","zjftf8",2,"response","Left",1841.60000002384,1829.70000000001,1841.60000002384,1841.60000002384,1829.70000000001,1841.60000002384,0,1841.60000002384,0,0,NA,"Keyboard Response","KeyResponseC",5,"object-351","lossT","","","",NA,"Right",3.33,2,6,5,NA,"Left",NA,3.66,NA,NA,NA,NA,3.33,"MDPRF56321"
"83",1730469022522,"01/11/2024 13:50:22",1730469022522,0,"01/11/2024 13:50:22",193496,6,"task-nz4r",NA,41048921,11986016,NA,"complete",NA,"6724cd42a22f88c072cebf93","computer","Desktop or Laptop","Windows 10","Chrome 130.0.0.0","1280x720","1280x720",NA,NA,0,"Gambling_GBO",15,"In","BCADKEJFIGH",NA,"In","MH_OCT","seq4","Gamble_Rand_Seq4","Gamble_Rand_Seq4",2,"lossT","certain","uaykj9",3,"timedOut","",5007.29999999999,5006.5,5007.29999999999,5007.29999999999,5006.5,5007.29999999999,1,5007.29999999999,0,0,NA,"Time Limit","screen",0,"screen","lossT","","","",NA,"Right",3.33,2,6,5,NA,"Left",NA,3.66,NA,NA,NA,NA,3.33,"MDPRF56321"
"84",1730469022545,"01/11/2024 13:50:22",1730469022545,0,"01/11/2024 13:50:22",193496,6,"task-nz4r",NA,41048921,11986016,NA,"complete",NA,"6724cd42a22f88c072cebf93","computer","Desktop or Laptop","Windows 10","Chrome 130.0.0.0","1280x720","1280x720",NA,NA,0,"Gambling_GBO",15,"In","BCADKEJFIGH",NA,"In","MH_OCT","seq4","Gamble_Rand_Seq4","Gamble_Rand_Seq4",16,"Rating","Screen 1","hx8b5a",1,"info","",16.6000000000058,0,16.6000000000058,16.6000000000058,0,16.6000000000058,1,16.6000000000058,0,0,NA,"Slider","MoodSlider",2,"object-243","Rating","frustrated","not frustrated","frustrated",6,"",NA,NA,NA,NA,NA,"Left",NA,3.66,NA,NA,NA,NA,3.33,"MDPRF56321"
"85",1730469028319,"01/11/2024 13:50:28",1730469028319,0,"01/11/2024 13:50:28",193496,6,"task-nz4r",NA,41048921,11986016,NA,"complete",NA,"6724cd42a22f88c072cebf93","computer","Desktop or Laptop","Windows 10","Chrome 130.0.0.0","1280x720","1280x720",NA,NA,0,"Gambling_GBO",15,"In","BCADKEJFIGH",NA,"In","MH_OCT","seq4","Gamble_Rand_Seq4","Gamble_Rand_Seq4",16,"Rating","Screen 1","hx8b5a",1,"continue","",5797.69999997615,5788.29999999999,5797.69999997615,5797.69999997615,5788.29999999999,5797.69999997615,1,5797.69999997615,0,0,NA,"Click To Continue","Continue Button",3,"object-25","Rating","frustrated","not frustrated","frustrated",6,"",NA,NA,NA,NA,NA,"Left",NA,3.66,NA,NA,NA,NA,3.33,"MDPRF56321"
"86",1730469028320,"01/11/2024 13:50:28",1730469028320,0,"01/11/2024 13:50:28",193496,6,"task-nz4r",NA,41048921,11986016,NA,"complete",NA,"6724cd42a22f88c072cebf93","computer","Desktop or Laptop","Windows 10","Chrome 130.0.0.0","1280x720","1280x720",NA,NA,0,"Gambling_GBO",15,"In","BCADKEJFIGH",NA,"In","MH_OCT","seq4","Gamble_Rand_Seq4","Gamble_Rand_Seq4",16,"Rating","Screen 1","hx8b5a",1,"response","10",4773.59999999998,5788.29999999999,5798.19999997615,4773.59999999998,5788.29999999999,5798.19999997615,1,4773.59999999998,1024.59999997617,0,NA,"Slider","MoodSlider",2,"object-243","Rating","frustrated","not frustrated","frustrated",6,"",NA,NA,NA,NA,NA,"Left",NA,3.66,NA,NA,NA,NA,3.33,"MDPRF56321"
"87",1730469028332,"01/11/2024 13:50:28",1730469028332,0,"01/11/2024 13:50:28",193496,6,"task-nz4r",NA,41048921,11986016,NA,"complete",NA,"6724cd42a22f88c072cebf93","computer","Desktop or Laptop","Windows 10","Chrome 130.0.0.0","1280x720","1280x720",NA,NA,0,"Gambling_GBO",15,"In","BCADKEJFIGH",NA,"In","MH_OCT","seq4","Gamble_Rand_Seq4","Gamble_Rand_Seq4",17,"Rating","Screen 1","hx8b5a",1,"info","",16.6000000000058,0,16.6000000000058,16.6000000000058,0,16.6000000000058,1,16.6000000000058,0,0,NA,"Slider","MoodSlider",2,"object-243","Rating","happy","not happy","happy",6,"",NA,NA,NA,NA,NA,"Left",NA,3.66,NA,NA,NA,NA,3.33,"MDPRF56321"
"88",1730469032354,"01/11/2024 13:50:32",1730469032354,0,"01/11/2024 13:50:32",193496,6,"task-nz4r",NA,41048921,11986016,NA,"complete",NA,"6724cd42a22f88c072cebf93","computer","Desktop or Laptop","Windows 10","Chrome 130.0.0.0","1280x720","1280x720",NA,NA,0,"Gambling_GBO",15,"In","BCADKEJFIGH",NA,"In","MH_OCT","seq4","Gamble_Rand_Seq4","Gamble_Rand_Seq4",17,"Rating","Screen 1","hx8b5a",1,"continue","",4043.69999992847,4041.70000000001,4043.69999992847,4043.69999992847,4041.70000000001,4043.69999992847,1,4043.69999992847,0,0,NA,"Click To Continue","Continue Button",3,"object-25","Rating","happy","not happy","happy",6,"",NA,NA,NA,NA,NA,"Left",NA,3.66,NA,NA,NA,NA,3.33,"MDPRF56321"
"89",1730469032354,"01/11/2024 13:50:32",1730469032354,0,"01/11/2024 13:50:32",193496,6,"task-nz4r",NA,41048921,11986016,NA,"complete",NA,"6724cd42a22f88c072cebf93","computer","Desktop or Laptop","Windows 10","Chrome 130.0.0.0","1280x720","1280x720",NA,NA,0,"Gambling_GBO",15,"In","BCADKEJFIGH",NA,"In","MH_OCT","seq4","Gamble_Rand_Seq4","Gamble_Rand_Seq4",17,"Rating","Screen 1","hx8b5a",1,"response","75",1447,4041.70000000001,4044.5,1447,4041.70000000001,4044.5,1,1447,2597.5,0,NA,"Slider","MoodSlider",2,"object-243","Rating","happy","not happy","happy",6,"",NA,NA,NA,NA,NA,"Left",NA,3.66,NA,NA,NA,NA,3.33,"MDPRF56321"
"90",1730469032368,"01/11/2024 13:50:32",1730469032368,0,"01/11/2024 13:50:32",193496,6,"task-nz4r",NA,41048921,11986016,NA,"complete",NA,"6724cd42a22f88c072cebf93","computer","Desktop or Laptop","Windows 10","Chrome 130.0.0.0","1280x720","1280x720",NA,NA,0,"Gambling_GBO",15,"In","BCADKEJFIGH",NA,"In","MH_OCT","seq4","Gamble_Rand_Seq4","Gamble_Rand_Seq4",18,"Rating","Screen 1","hx8b5a",1,"info","",16.0999999523046,0,16.0999999523046,16.0999999523046,0,16.0999999523046,1,16.0999999523046,0,0,NA,"Slider","MoodSlider",2,"object-243","Rating","bored","not bored","bored",6,"",NA,NA,NA,NA,NA,"Left",NA,3.66,NA,NA,NA,NA,3.33,"MDPRF56321"
"91",1730469035929,"01/11/2024 13:50:35",1730469035929,0,"01/11/2024 13:50:35",193496,6,"task-nz4r",NA,41048921,11986016,NA,"complete",NA,"6724cd42a22f88c072cebf93","computer","Desktop or Laptop","Windows 10","Chrome 130.0.0.0","1280x720","1280x720",NA,NA,0,"Gambling_GBO",15,"In","BCADKEJFIGH",NA,"In","MH_OCT","seq4","Gamble_Rand_Seq4","Gamble_Rand_Seq4",18,"Rating","Screen 1","hx8b5a",1,"continue","",3576.10000000001,3559.5,3576.10000000001,3576.10000000001,3559.5,3576.10000000001,1,3576.10000000001,0,0,NA,"Click To Continue","Continue Button",3,"object-25","Rating","bored","not bored","bored",6,"",NA,NA,NA,NA,NA,"Left",NA,3.66,NA,NA,NA,NA,3.33,"MDPRF56321"
"92",1730469035935,"01/11/2024 13:50:35",1730469035935,0,"01/11/2024 13:50:35",193496,6,"task-nz4r",NA,41048921,11986016,NA,"complete",NA,"6724cd42a22f88c072cebf93","computer","Desktop or Laptop","Windows 10","Chrome 130.0.0.0","1280x720","1280x720",NA,NA,0,"Gambling_GBO",15,"In","BCADKEJFIGH",NA,"In","MH_OCT","seq4","Gamble_Rand_Seq4","Gamble_Rand_Seq4",18,"Rating","Screen 1","hx8b5a",1,"response","23",1962.69999999998,3559.5,3576.10000000001,1962.69999999998,3559.5,3576.10000000001,1,1962.69999999998,1613.40000000002,0,NA,"Slider","MoodSlider",2,"object-243","Rating","bored","not bored","bored",6,"",NA,NA,NA,NA,NA,"Left",NA,3.66,NA,NA,NA,NA,3.33,"MDPRF56321"
"93",1730469037875,"01/11/2024 13:50:37",1730469037875,0,"01/11/2024 13:50:37",193496,6,"task-nz4r",NA,41048921,11986016,NA,"complete",NA,"6724cd42a22f88c072cebf93","computer","Desktop or Laptop","Windows 10","Chrome 130.0.0.0","1280x720","1280x720",NA,NA,0,"Gambling_GBO",15,"In","BCADKEJFIGH",NA,"In","MH_OCT","seq4","Gamble_Rand_Seq4","Gamble_Rand_Seq4",1,"winT","Screen 1","np5pnj",1,"continue","",1963,1963,1963,1963,1963,1963,1,1963,0,0,NA,"Fixation Timing","Fixation",1,"object-304","winT","","","",NA,"Right",-0.67,-2,2,6,NA,"Left",NA,3.66,NA,NA,NA,NA,3.33,"MDPRF56321"
"94",1730469039662,"01/11/2024 13:50:39",1730469039662,0,"01/11/2024 13:50:39",193496,6,"task-nz4r",NA,41048921,11986016,NA,"complete",NA,"6724cd42a22f88c072cebf93","computer","Desktop or Laptop","Windows 10","Chrome 130.0.0.0","1280x720","1280x720",NA,NA,0,"Gambling_GBO",15,"In","BCADKEJFIGH",NA,"In","MH_OCT","seq4","Gamble_Rand_Seq4","Gamble_Rand_Seq4",1,"winT","choice","gu8zgx",2,"response","Right",1786.49999992846,1779.5,1786.49999992846,1786.49999992846,1779.5,1786.49999992846,1,1786.49999992846,0,0,NA,"Keyboard Response","KeyResponseG",6,"object-326","winT","","","",NA,"Right",-0.67,-2,2,6,NA,"Right",NA,5.66,NA,NA,NA,NA,2,"MDPRF56321"
"95",1730469043646,"01/11/2024 13:50:43",1730469043646,0,"01/11/2024 13:50:43",193496,6,"task-nz4r",NA,41048921,11986016,NA,"complete",NA,"6724cd42a22f88c072cebf93","computer","Desktop or Laptop","Windows 10","Chrome 130.0.0.0","1280x720","1280x720",NA,NA,0,"Gambling_GBO",15,"In","BCADKEJFIGH",NA,"In","MH_OCT","seq4","Gamble_Rand_Seq4","Gamble_Rand_Seq4",1,"winT","gamble","1lb69u",3,"timedOut","",3992.5999999523,3992,3992.5999999523,3992.5999999523,3992,3992.5999999523,1,3992.5999999523,0,0,NA,"Time Limit","screen",0,"screen","winT","","","",NA,"Right",-0.67,-2,2,6,NA,"Right",NA,5.66,NA,NA,NA,NA,2,"MDPRF56321"
"96",1730469044644,"01/11/2024 13:50:44",1730469044644,0,"01/11/2024 13:50:44",193496,6,"task-nz4r",NA,41048921,11986016,NA,"complete",NA,"6724cd42a22f88c072cebf93","computer","Desktop or Laptop","Windows 10","Chrome 130.0.0.0","1280x720","1280x720",NA,NA,0,"Gambling_GBO",15,"In","BCADKEJFIGH",NA,"In","MH_OCT","seq4","Gamble_Rand_Seq4","Gamble_Rand_Seq4",1,"winT","win","dhtsbv",4,"timedOut","",998.599999952305,998,998.599999952305,998.599999952305,998,998.599999952305,1,998.599999952305,0,0,NA,"Time Limit","screen",0,"screen","winT","","","",NA,"Right",-0.67,-2,2,6,NA,"Right",NA,5.66,NA,NA,NA,NA,2,"MDPRF56321"
"97",1730469044657,"01/11/2024 13:50:44",1730469044657,0,"01/11/2024 13:50:44",193496,6,"task-nz4r",NA,41048921,11986016,NA,"complete",NA,"6724cd42a22f88c072cebf93","computer","Desktop or Laptop","Windows 10","Chrome 130.0.0.0","1280x720","1280x720",NA,NA,0,"Gambling_GBO",15,"In","BCADKEJFIGH",NA,"In","MH_OCT","seq4","Gamble_Rand_Seq4","Gamble_Rand_Seq4",19,"Rating","Screen 1","hx8b5a",1,"info","",13.1999999761465,0,13.1999999761465,13.1999999761465,0,13.1999999761465,1,13.1999999761465,0,0,NA,"Slider","MoodSlider",2,"object-243","Rating","happy","not happy","happy",7,"",NA,NA,NA,NA,NA,"Right",NA,5.66,NA,NA,NA,NA,2,"MDPRF56321"
"98",1730469047192,"01/11/2024 13:50:47",1730469047192,0,"01/11/2024 13:50:47",193496,6,"task-nz4r",NA,41048921,11986016,NA,"complete",NA,"6724cd42a22f88c072cebf93","computer","Desktop or Laptop","Windows 10","Chrome 130.0.0.0","1280x720","1280x720",NA,NA,0,"Gambling_GBO",15,"In","BCADKEJFIGH",NA,"In","MH_OCT","seq4","Gamble_Rand_Seq4","Gamble_Rand_Seq4",19,"Rating","Screen 1","hx8b5a",1,"continue","",2548.40000002383,2544.69999999998,2548.40000002383,2548.40000002383,2544.69999999998,2548.40000002383,1,2548.40000002383,0,0,NA,"Click To Continue","Continue Button",3,"object-25","Rating","happy","not happy","happy",7,"",NA,NA,NA,NA,NA,"Right",NA,5.66,NA,NA,NA,NA,2,"MDPRF56321"
"99",1730469047197,"01/11/2024 13:50:47",1730469047197,0,"01/11/2024 13:50:47",193496,6,"task-nz4r",NA,41048921,11986016,NA,"complete",NA,"6724cd42a22f88c072cebf93","computer","Desktop or Laptop","Windows 10","Chrome 130.0.0.0","1280x720","1280x720",NA,NA,0,"Gambling_GBO",15,"In","BCADKEJFIGH",NA,"In","MH_OCT","seq4","Gamble_Rand_Seq4","Gamble_Rand_Seq4",19,"Rating","Screen 1","hx8b5a",1,"response","93",1679.79999999999,2544.69999999998,2553.69999997615,1679.79999999999,2544.69999999998,2553.69999997615,1,1679.79999999999,873.899999976158,0,NA,"Slider","MoodSlider",2,"object-243","Rating","happy","not happy","happy",7,"",NA,NA,NA,NA,NA,"Right",NA,5.66,NA,NA,NA,NA,2,"MDPRF56321"
"100",1730469047213,"01/11/2024 13:50:47",1730469047213,0,"01/11/2024 13:50:47",193496,6,"task-nz4r",NA,41048921,11986016,NA,"complete",NA,"6724cd42a22f88c072cebf93","computer","Desktop or Laptop","Windows 10","Chrome 130.0.0.0","1280x720","1280x720",NA,NA,0,"Gambling_GBO",15,"In","BCADKEJFIGH",NA,"In","MH_OCT","seq4","Gamble_Rand_Seq4","Gamble_Rand_Seq4",20,"Rating","Screen 1","hx8b5a",1,"info","",16.5,0,16.5,16.5,0,16.5,1,16.5,0,0,NA,"Slider","MoodSlider",2,"object-243","Rating","frustrated","not frustrated","frustrated",7,"",NA,NA,NA,NA,NA,"Right",NA,5.66,NA,NA,NA,NA,2,"MDPRF56321"
"101",1730469049642,"01/11/2024 13:50:49",1730469049642,0,"01/11/2024 13:50:49",193496,6,"task-nz4r",NA,41048921,11986016,NA,"complete",NA,"6724cd42a22f88c072cebf93","computer","Desktop or Laptop","Windows 10","Chrome 130.0.0.0","1280x720","1280x720",NA,NA,0,"Gambling_GBO",15,"In","BCADKEJFIGH",NA,"In","MH_OCT","seq4","Gamble_Rand_Seq4","Gamble_Rand_Seq4",20,"Rating","Screen 1","hx8b5a",1,"continue","",2454.10000000001,2445.20000000001,2454.10000000001,2454.10000000001,2445.20000000001,2454.10000000001,1,2454.10000000001,0,0,NA,"Click To Continue","Continue Button",3,"object-25","Rating","frustrated","not frustrated","frustrated",7,"",NA,NA,NA,NA,NA,"Right",NA,5.66,NA,NA,NA,NA,2,"MDPRF56321"
"102",1730469049643,"01/11/2024 13:50:49",1730469049643,0,"01/11/2024 13:50:49",193496,6,"task-nz4r",NA,41048921,11986016,NA,"complete",NA,"6724cd42a22f88c072cebf93","computer","Desktop or Laptop","Windows 10","Chrome 130.0.0.0","1280x720","1280x720",NA,NA,0,"Gambling_GBO",15,"In","BCADKEJFIGH",NA,"In","MH_OCT","seq4","Gamble_Rand_Seq4","Gamble_Rand_Seq4",20,"Rating","Screen 1","hx8b5a",1,"response","0",1097.89999999999,2445.20000000001,2454.70000002385,1097.89999999999,2445.20000000001,2454.70000002385,1,1097.89999999999,1356.80000002385,0,NA,"Slider","MoodSlider",2,"object-243","Rating","frustrated","not frustrated","frustrated",7,"",NA,NA,NA,NA,NA,"Right",NA,5.66,NA,NA,NA,NA,2,"MDPRF56321"
"103",1730469049657,"01/11/2024 13:50:49",1730469049657,0,"01/11/2024 13:50:49",193496,6,"task-nz4r",NA,41048921,11986016,NA,"complete",NA,"6724cd42a22f88c072cebf93","computer","Desktop or Laptop","Windows 10","Chrome 130.0.0.0","1280x720","1280x720",NA,NA,0,"Gambling_GBO",15,"In","BCADKEJFIGH",NA,"In","MH_OCT","seq4","Gamble_Rand_Seq4","Gamble_Rand_Seq4",21,"Rating","Screen 1","hx8b5a",1,"info","",16.7000000000116,0,16.7000000000116,16.7000000000116,0,16.7000000000116,1,16.7000000000116,0,0,NA,"Slider","MoodSlider",2,"object-243","Rating","bored","not bored","bored",7,"",NA,NA,NA,NA,NA,"Right",NA,5.66,NA,NA,NA,NA,2,"MDPRF56321"
"104",1730469053777,"01/11/2024 13:50:53",1730469053777,0,"01/11/2024 13:50:53",193496,6,"task-nz4r",NA,41048921,11986016,NA,"complete",NA,"6724cd42a22f88c072cebf93","computer","Desktop or Laptop","Windows 10","Chrome 130.0.0.0","1280x720","1280x720",NA,NA,0,"Gambling_GBO",15,"In","BCADKEJFIGH",NA,"In","MH_OCT","seq4","Gamble_Rand_Seq4","Gamble_Rand_Seq4",21,"Rating","Screen 1","hx8b5a",1,"continue","",4143.59999992847,4141.60000000001,4143.59999992847,4143.59999992847,4141.60000000001,4143.59999992847,1,4143.59999992847,0,0,NA,"Click To Continue","Continue Button",3,"object-25","Rating","bored","not bored","bored",7,"",NA,NA,NA,NA,NA,"Right",NA,5.66,NA,NA,NA,NA,2,"MDPRF56321"
"105",1730469053778,"01/11/2024 13:50:53",1730469053778,0,"01/11/2024 13:50:53",193496,6,"task-nz4r",NA,41048921,11986016,NA,"complete",NA,"6724cd42a22f88c072cebf93","computer","Desktop or Laptop","Windows 10","Chrome 130.0.0.0","1280x720","1280x720",NA,NA,0,"Gambling_GBO",15,"In","BCADKEJFIGH",NA,"In","MH_OCT","seq4","Gamble_Rand_Seq4","Gamble_Rand_Seq4",21,"Rating","Screen 1","hx8b5a",1,"response","15",2827.60000000001,4141.60000000001,4144.39999999999,2827.60000000001,4141.60000000001,4144.39999999999,1,2827.60000000001,1316.79999999999,0,NA,"Slider","MoodSlider",2,"object-243","Rating","bored","not bored","bored",7,"",NA,NA,NA,NA,NA,"Right",NA,5.66,NA,NA,NA,NA,2,"MDPRF56321"
"106",1730469055738,"01/11/2024 13:50:55",1730469055738,0,"01/11/2024 13:50:55",193496,6,"task-nz4r",NA,41048921,11986016,NA,"complete",NA,"6724cd42a22f88c072cebf93","computer","Desktop or Laptop","Windows 10","Chrome 130.0.0.0","1280x720","1280x720",NA,NA,0,"Gambling_GBO",15,"In","BCADKEJFIGH",NA,"In","MH_OCT","seq4","Gamble_Rand_Seq4","Gamble_Rand_Seq4",2,"lossB","Screen 1","a4fynh",1,"continue","",1962.69999999998,1962.69999999998,1962.69999999998,1962.69999999998,1962.69999999998,1962.69999999998,1,1962.69999999998,0,0,NA,"Fixation Timing","Fixation",1,"object-113","lossB","","","",NA,"Right",-6,-7,-4,7,NA,"Right",NA,5.66,NA,NA,NA,NA,2,"MDPRF56321"
"107",1730469058628,"01/11/2024 13:50:58",1730469058628,0,"01/11/2024 13:50:58",193496,6,"task-nz4r",NA,41048921,11986016,NA,"complete",NA,"6724cd42a22f88c072cebf93","computer","Desktop or Laptop","Windows 10","Chrome 130.0.0.0","1280x720","1280x720",NA,NA,0,"Gambling_GBO",15,"In","BCADKEJFIGH",NA,"In","MH_OCT","seq4","Gamble_Rand_Seq4","Gamble_Rand_Seq4",2,"lossB","choice","k9qq8f",2,"response","Right",2888.99999997616,2877.60000000001,2888.99999997616,2888.99999997616,2877.60000000001,2888.99999997616,1,2888.99999997616,0,0,NA,"Keyboard Response","KeyResponseG",6,"object-200","lossB","","","",NA,"Right",-6,-7,-4,7,NA,"Right",NA,-1.34,NA,NA,NA,NA,-7,"MDPRF56321"
"108",1730469062608,"01/11/2024 13:51:02",1730469062608,0,"01/11/2024 13:51:02",193496,6,"task-nz4r",NA,41048921,11986016,NA,"complete",NA,"6724cd42a22f88c072cebf93","computer","Desktop or Laptop","Windows 10","Chrome 130.0.0.0","1280x720","1280x720",NA,NA,0,"Gambling_GBO",15,"In","BCADKEJFIGH",NA,"In","MH_OCT","seq4","Gamble_Rand_Seq4","Gamble_Rand_Seq4",2,"lossB","gamble","tpcid5",3,"timedOut","",3992.69999992847,3991.89999999999,3992.69999992847,3992.69999992847,3991.89999999999,3992.69999992847,1,3992.69999992847,0,0,NA,"Time Limit","screen",0,"screen","lossB","","","",NA,"Right",-6,-7,-4,7,NA,"Right",NA,-1.34,NA,NA,NA,NA,-7,"MDPRF56321"
"109",1730469063606,"01/11/2024 13:51:03",1730469063606,0,"01/11/2024 13:51:03",193496,6,"task-nz4r",NA,41048921,11986016,NA,"complete",NA,"6724cd42a22f88c072cebf93","computer","Desktop or Laptop","Windows 10","Chrome 130.0.0.0","1280x720","1280x720",NA,NA,0,"Gambling_GBO",15,"In","BCADKEJFIGH",NA,"In","MH_OCT","seq4","Gamble_Rand_Seq4","Gamble_Rand_Seq4",2,"lossB","loss","2apfzp",4,"timedOut","",998.700000023848,998,998.700000023848,998.700000023848,998,998.700000023848,1,998.700000023848,0,0,NA,"Time Limit","screen",0,"screen","lossB","","","",NA,"Right",-6,-7,-4,7,NA,"Right",NA,-1.34,NA,NA,NA,NA,-7,"MDPRF56321"
"110",1730469063620,"01/11/2024 13:51:03",1730469063620,0,"01/11/2024 13:51:03",193496,6,"task-nz4r",NA,41048921,11986016,NA,"complete",NA,"6724cd42a22f88c072cebf93","computer","Desktop or Laptop","Windows 10","Chrome 130.0.0.0","1280x720","1280x720",NA,NA,0,"Gambling_GBO",15,"In","BCADKEJFIGH",NA,"In","MH_OCT","seq4","Gamble_Rand_Seq4","Gamble_Rand_Seq4",22,"Rating","Screen 1","hx8b5a",1,"info","",14.499999976164,0,14.499999976164,14.499999976164,0,14.499999976164,1,14.499999976164,0,0,NA,"Slider","MoodSlider",2,"object-243","Rating","happy","not happy","happy",8,"",NA,NA,NA,NA,NA,"Right",NA,-1.34,NA,NA,NA,NA,-7,"MDPRF56321"
"111",1730469067283,"01/11/2024 13:51:07",1730469067283,0,"01/11/2024 13:51:07",193496,6,"task-nz4r",NA,41048921,11986016,NA,"complete",NA,"6724cd42a22f88c072cebf93","computer","Desktop or Laptop","Windows 10","Chrome 130.0.0.0","1280x720","1280x720",NA,NA,0,"Gambling_GBO",15,"In","BCADKEJFIGH",NA,"In","MH_OCT","seq4","Gamble_Rand_Seq4","Gamble_Rand_Seq4",22,"Rating","Screen 1","hx8b5a",1,"continue","",3677.29999992848,3675.89999999999,3677.29999992848,3677.29999992848,3675.89999999999,3677.29999992848,1,3677.29999992848,0,0,NA,"Click To Continue","Continue Button",3,"object-25","Rating","happy","not happy","happy",8,"",NA,NA,NA,NA,NA,"Right",NA,-1.34,NA,NA,NA,NA,-7,"MDPRF56321"
"112",1730469067283,"01/11/2024 13:51:07",1730469067283,0,"01/11/2024 13:51:07",193496,6,"task-nz4r",NA,41048921,11986016,NA,"complete",NA,"6724cd42a22f88c072cebf93","computer","Desktop or Laptop","Windows 10","Chrome 130.0.0.0","1280x720","1280x720",NA,NA,0,"Gambling_GBO",15,"In","BCADKEJFIGH",NA,"In","MH_OCT","seq4","Gamble_Rand_Seq4","Gamble_Rand_Seq4",22,"Rating","Screen 1","hx8b5a",1,"response","9",2644.70000000001,3675.89999999999,3678.20000002385,2644.70000000001,3675.89999999999,3678.20000002385,1,2644.70000000001,1033.50000002384,0,NA,"Slider","MoodSlider",2,"object-243","Rating","happy","not happy","happy",8,"",NA,NA,NA,NA,NA,"Right",NA,-1.34,NA,NA,NA,NA,-7,"MDPRF56321"
"113",1730469067297,"01/11/2024 13:51:07",1730469067297,0,"01/11/2024 13:51:07",193496,6,"task-nz4r",NA,41048921,11986016,NA,"complete",NA,"6724cd42a22f88c072cebf93","computer","Desktop or Laptop","Windows 10","Chrome 130.0.0.0","1280x720","1280x720",NA,NA,0,"Gambling_GBO",15,"In","BCADKEJFIGH",NA,"In","MH_OCT","seq4","Gamble_Rand_Seq4","Gamble_Rand_Seq4",23,"Rating","Screen 1","hx8b5a",1,"info","",15.5999999761698,0,15.5999999761698,15.5999999761698,0,15.5999999761698,1,15.5999999761698,0,0,NA,"Slider","MoodSlider",2,"object-243","Rating","bored","not bored","bored",8,"",NA,NA,NA,NA,NA,"Right",NA,-1.34,NA,NA,NA,NA,-7,"MDPRF56321"
"114",1730469072198,"01/11/2024 13:51:12",1730469072198,0,"01/11/2024 13:51:12",193496,6,"task-nz4r",NA,41048921,11986016,NA,"complete",NA,"6724cd42a22f88c072cebf93","computer","Desktop or Laptop","Windows 10","Chrome 130.0.0.0","1280x720","1280x720",NA,NA,0,"Gambling_GBO",15,"In","BCADKEJFIGH",NA,"In","MH_OCT","seq4","Gamble_Rand_Seq4","Gamble_Rand_Seq4",23,"Rating","Screen 1","hx8b5a",1,"continue","",4916.49999995233,4906.79999999999,4916.49999995233,4916.49999995233,4906.79999999999,4916.49999995233,1,4916.49999995233,0,0,NA,"Click To Continue","Continue Button",3,"object-25","Rating","bored","not bored","bored",8,"",NA,NA,NA,NA,NA,"Right",NA,-1.34,NA,NA,NA,NA,-7,"MDPRF56321"
"115",1730469072203,"01/11/2024 13:51:12",1730469072203,0,"01/11/2024 13:51:12",193496,6,"task-nz4r",NA,41048921,11986016,NA,"complete",NA,"6724cd42a22f88c072cebf93","computer","Desktop or Laptop","Windows 10","Chrome 130.0.0.0","1280x720","1280x720",NA,NA,0,"Gambling_GBO",15,"In","BCADKEJFIGH",NA,"In","MH_OCT","seq4","Gamble_Rand_Seq4","Gamble_Rand_Seq4",23,"Rating","Screen 1","hx8b5a",1,"response","0",3343.20000000001,4906.79999999999,4921.80000002385,3343.20000000001,4906.79999999999,4921.80000002385,1,3343.20000000001,1578.60000002384,0,NA,"Slider","MoodSlider",2,"object-243","Rating","bored","not bored","bored",8,"",NA,NA,NA,NA,NA,"Right",NA,-1.34,NA,NA,NA,NA,-7,"MDPRF56321"
"116",1730469072215,"01/11/2024 13:51:12",1730469072215,0,"01/11/2024 13:51:12",193496,6,"task-nz4r",NA,41048921,11986016,NA,"complete",NA,"6724cd42a22f88c072cebf93","computer","Desktop or Laptop","Windows 10","Chrome 130.0.0.0","1280x720","1280x720",NA,NA,0,"Gambling_GBO",15,"In","BCADKEJFIGH",NA,"In","MH_OCT","seq4","Gamble_Rand_Seq4","Gamble_Rand_Seq4",24,"Rating","Screen 1","hx8b5a",1,"info","",16.5999999999767,0,16.5999999999767,16.5999999999767,0,16.5999999999767,1,16.5999999999767,0,0,NA,"Slider","MoodSlider",2,"object-243","Rating","frustrated","not frustrated","frustrated",8,"",NA,NA,NA,NA,NA,"Right",NA,-1.34,NA,NA,NA,NA,-7,"MDPRF56321"
"117",1730469074927,"01/11/2024 13:51:14",1730469074927,0,"01/11/2024 13:51:14",193496,6,"task-nz4r",NA,41048921,11986016,NA,"complete",NA,"6724cd42a22f88c072cebf93","computer","Desktop or Laptop","Windows 10","Chrome 130.0.0.0","1280x720","1280x720",NA,NA,0,"Gambling_GBO",15,"In","BCADKEJFIGH",NA,"In","MH_OCT","seq4","Gamble_Rand_Seq4","Gamble_Rand_Seq4",24,"Rating","Screen 1","hx8b5a",1,"continue","",2739.29999997618,2727.80000000005,2739.29999997618,2739.29999997618,2727.80000000005,2739.29999997618,1,2739.29999997618,0,0,NA,"Click To Continue","Continue Button",3,"object-25","Rating","frustrated","not frustrated","frustrated",8,"",NA,NA,NA,NA,NA,"Right",NA,-1.34,NA,NA,NA,NA,-7,"MDPRF56321"
"118",1730469074928,"01/11/2024 13:51:14",1730469074928,0,"01/11/2024 13:51:14",193496,6,"task-nz4r",NA,41048921,11986016,NA,"complete",NA,"6724cd42a22f88c072cebf93","computer","Desktop or Laptop","Windows 10","Chrome 130.0.0.0","1280x720","1280x720",NA,NA,0,"Gambling_GBO",15,"In","BCADKEJFIGH",NA,"In","MH_OCT","seq4","Gamble_Rand_Seq4","Gamble_Rand_Seq4",24,"Rating","Screen 1","hx8b5a",1,"response","98",1763.10000000003,2727.80000000005,2739.90000000002,1763.10000000003,2727.80000000005,2739.90000000002,1,1763.10000000003,976.799999999988,0,NA,"Slider","MoodSlider",2,"object-243","Rating","frustrated","not frustrated","frustrated",8,"",NA,NA,NA,NA,NA,"Right",NA,-1.34,NA,NA,NA,NA,-7,"MDPRF56321"
"119",1730469076879,"01/11/2024 13:51:16",1730469076879,0,"01/11/2024 13:51:16",193496,6,"task-nz4r",NA,41048921,11986016,NA,"complete",NA,"6724cd42a22f88c072cebf93","computer","Desktop or Laptop","Windows 10","Chrome 130.0.0.0","1280x720","1280x720",NA,NA,0,"Gambling_GBO",15,"In","BCADKEJFIGH",NA,"In","MH_OCT","seq4","Gamble_Rand_Seq4","Gamble_Rand_Seq4",3,"lossT","Screen 1","2oxi65",1,"continue","",1962.69999999995,1962.69999999995,1962.69999999995,1962.69999999995,1962.69999999995,1962.69999999995,1,1962.69999999995,0,0,NA,"Fixation Timing","Fixation",1,"object-354","lossT","","","",NA,"Right",2,1,4,8,NA,"Right",NA,-1.34,NA,NA,NA,NA,-7,"MDPRF56321"
"120",1730469079102,"01/11/2024 13:51:19",1730469079102,0,"01/11/2024 13:51:19",193496,6,"task-nz4r",NA,41048921,11986016,NA,"complete",NA,"6724cd42a22f88c072cebf93","computer","Desktop or Laptop","Windows 10","Chrome 130.0.0.0","1280x720","1280x720",NA,NA,0,"Gambling_GBO",15,"In","BCADKEJFIGH",NA,"In","MH_OCT","seq4","Gamble_Rand_Seq4","Gamble_Rand_Seq4",3,"lossT","choice","zjftf8",2,"response","Right",2222.0999999285,2212.30000000005,2222.0999999285,2222.0999999285,2212.30000000005,2222.0999999285,1,2222.0999999285,0,0,NA,"Keyboard Response","KeyResponseG",6,"object-352","lossT","","","",NA,"Right",2,1,4,8,NA,"Right",NA,-0.34,NA,NA,NA,NA,1,"MDPRF56321"
"121",1730469083083,"01/11/2024 13:51:23",1730469083083,0,"01/11/2024 13:51:23",193496,6,"task-nz4r",NA,41048921,11986016,NA,"complete",NA,"6724cd42a22f88c072cebf93","computer","Desktop or Laptop","Windows 10","Chrome 130.0.0.0","1280x720","1280x720",NA,NA,0,"Gambling_GBO",15,"In","BCADKEJFIGH",NA,"In","MH_OCT","seq4","Gamble_Rand_Seq4","Gamble_Rand_Seq4",3,"lossT","gamble","h5bf9r",3,"timedOut","",3992.39999995229,3991.79999999999,3992.39999995229,3992.39999995229,3991.79999999999,3992.39999995229,1,3992.39999995229,0,0,NA,"Time Limit","screen",0,"screen","lossT","","","",NA,"Right",2,1,4,8,NA,"Right",NA,-0.34,NA,NA,NA,NA,1,"MDPRF56321"
"122",1730469084081,"01/11/2024 13:51:24",1730469084081,0,"01/11/2024 13:51:24",193496,6,"task-nz4r",NA,41048921,11986016,NA,"complete",NA,"6724cd42a22f88c072cebf93","computer","Desktop or Laptop","Windows 10","Chrome 130.0.0.0","1280x720","1280x720",NA,NA,0,"Gambling_GBO",15,"In","BCADKEJFIGH",NA,"In","MH_OCT","seq4","Gamble_Rand_Seq4","Gamble_Rand_Seq4",3,"lossT","loss","kmnw8b",4,"timedOut","",998.599999952305,998,998.599999952305,998.599999952305,998,998.599999952305,1,998.599999952305,0,0,NA,"Time Limit","screen",0,"screen","lossT","","","",NA,"Right",2,1,4,8,NA,"Right",NA,-0.34,NA,NA,NA,NA,1,"MDPRF56321"
"123",1730469084093,"01/11/2024 13:51:24",1730469084093,0,"01/11/2024 13:51:24",193496,6,"task-nz4r",NA,41048921,11986016,NA,"complete",NA,"6724cd42a22f88c072cebf93","computer","Desktop or Laptop","Windows 10","Chrome 130.0.0.0","1280x720","1280x720",NA,NA,0,"Gambling_GBO",15,"In","BCADKEJFIGH",NA,"In","MH_OCT","seq4","Gamble_Rand_Seq4","Gamble_Rand_Seq4",25,"Rating","Screen 1","hx8b5a",1,"info","",12.4999999284628,0,12.4999999284628,12.4999999284628,0,12.4999999284628,1,12.4999999284628,0,0,NA,"Slider","MoodSlider",2,"object-243","Rating","bored","not bored","bored",9,"",NA,NA,NA,NA,NA,"Right",NA,-0.34,NA,NA,NA,NA,1,"MDPRF56321"
"124",1730469087258,"01/11/2024 13:51:27",1730469087258,0,"01/11/2024 13:51:27",193496,6,"task-nz4r",NA,41048921,11986016,NA,"complete",NA,"6724cd42a22f88c072cebf93","computer","Desktop or Laptop","Windows 10","Chrome 130.0.0.0","1280x720","1280x720",NA,NA,0,"Gambling_GBO",15,"In","BCADKEJFIGH",NA,"In","MH_OCT","seq4","Gamble_Rand_Seq4","Gamble_Rand_Seq4",25,"Rating","Screen 1","hx8b5a",1,"continue","",3176.89999999997,3160.29999999999,3176.89999999997,3176.89999999997,3160.29999999999,3176.89999999997,1,3176.89999999997,0,0,NA,"Click To Continue","Continue Button",3,"object-25","Rating","bored","not bored","bored",9,"",NA,NA,NA,NA,NA,"Right",NA,-0.34,NA,NA,NA,NA,1,"MDPRF56321"
"125",1730469087259,"01/11/2024 13:51:27",1730469087259,0,"01/11/2024 13:51:27",193496,6,"task-nz4r",NA,41048921,11986016,NA,"complete",NA,"6724cd42a22f88c072cebf93","computer","Desktop or Laptop","Windows 10","Chrome 130.0.0.0","1280x720","1280x720",NA,NA,0,"Gambling_GBO",15,"In","BCADKEJFIGH",NA,"In","MH_OCT","seq4","Gamble_Rand_Seq4","Gamble_Rand_Seq4",25,"Rating","Screen 1","hx8b5a",1,"response","6",2345.29999999999,3160.29999999999,3176.89999999997,2345.29999999999,3160.29999999999,3176.89999999997,1,2345.29999999999,831.599999999977,0,NA,"Slider","MoodSlider",2,"object-243","Rating","bored","not bored","bored",9,"",NA,NA,NA,NA,NA,"Right",NA,-0.34,NA,NA,NA,NA,1,"MDPRF56321"
"126",1730469087269,"01/11/2024 13:51:27",1730469087269,0,"01/11/2024 13:51:27",193496,6,"task-nz4r",NA,41048921,11986016,NA,"complete",NA,"6724cd42a22f88c072cebf93","computer","Desktop or Laptop","Windows 10","Chrome 130.0.0.0","1280x720","1280x720",NA,NA,0,"Gambling_GBO",15,"In","BCADKEJFIGH",NA,"In","MH_OCT","seq4","Gamble_Rand_Seq4","Gamble_Rand_Seq4",26,"Rating","Screen 1","hx8b5a",1,"info","",16.5999999999767,0,16.5999999999767,16.5999999999767,0,16.5999999999767,1,16.5999999999767,0,0,NA,"Slider","MoodSlider",2,"object-243","Rating","frustrated","not frustrated","frustrated",9,"",NA,NA,NA,NA,NA,"Right",NA,-0.34,NA,NA,NA,NA,1,"MDPRF56321"
"127",1730469090654,"01/11/2024 13:51:30",1730469090654,0,"01/11/2024 13:51:30",193496,6,"task-nz4r",NA,41048921,11986016,NA,"complete",NA,"6724cd42a22f88c072cebf93","computer","Desktop or Laptop","Windows 10","Chrome 130.0.0.0","1280x720","1280x720",NA,NA,0,"Gambling_GBO",15,"In","BCADKEJFIGH",NA,"In","MH_OCT","seq4","Gamble_Rand_Seq4","Gamble_Rand_Seq4",26,"Rating","Screen 1","hx8b5a",1,"continue","",3413.10000002384,3409.90000000002,3413.10000002384,3413.10000002384,3409.90000000002,3413.10000002384,1,3413.10000002384,0,0,NA,"Click To Continue","Continue Button",3,"object-25","Rating","frustrated","not frustrated","frustrated",9,"",NA,NA,NA,NA,NA,"Right",NA,-0.34,NA,NA,NA,NA,1,"MDPRF56321"
"128",1730469090655,"01/11/2024 13:51:30",1730469090655,0,"01/11/2024 13:51:30",193496,6,"task-nz4r",NA,41048921,11986016,NA,"complete",NA,"6724cd42a22f88c072cebf93","computer","Desktop or Laptop","Windows 10","Chrome 130.0.0.0","1280x720","1280x720",NA,NA,0,"Gambling_GBO",15,"In","BCADKEJFIGH",NA,"In","MH_OCT","seq4","Gamble_Rand_Seq4","Gamble_Rand_Seq4",26,"Rating","Screen 1","hx8b5a",1,"response","73",2345.29999999999,3409.90000000002,3413.79999995232,2345.29999999999,3409.90000000002,3413.79999995232,1,2345.29999999999,1068.49999995233,0,NA,"Slider","MoodSlider",2,"object-243","Rating","frustrated","not frustrated","frustrated",9,"",NA,NA,NA,NA,NA,"Right",NA,-0.34,NA,NA,NA,NA,1,"MDPRF56321"
"129",1730469090666,"01/11/2024 13:51:30",1730469090666,0,"01/11/2024 13:51:30",193496,6,"task-nz4r",NA,41048921,11986016,NA,"complete",NA,"6724cd42a22f88c072cebf93","computer","Desktop or Laptop","Windows 10","Chrome 130.0.0.0","1280x720","1280x720",NA,NA,0,"Gambling_GBO",15,"In","BCADKEJFIGH",NA,"In","MH_OCT","seq4","Gamble_Rand_Seq4","Gamble_Rand_Seq4",27,"Rating","Screen 1","hx8b5a",1,"info","",14.899999952293,0,14.899999952293,14.899999952293,0,14.899999952293,1,14.899999952293,0,0,NA,"Slider","MoodSlider",2,"object-243","Rating","happy","not happy","happy",9,"",NA,NA,NA,NA,NA,"Right",NA,-0.34,NA,NA,NA,NA,1,"MDPRF56321"
"130",1730469093849,"01/11/2024 13:51:33",1730469093849,0,"01/11/2024 13:51:33",193496,6,"task-nz4r",NA,41048921,11986016,NA,"complete",NA,"6724cd42a22f88c072cebf93","computer","Desktop or Laptop","Windows 10","Chrome 130.0.0.0","1280x720","1280x720",NA,NA,0,"Gambling_GBO",15,"In","BCADKEJFIGH",NA,"In","MH_OCT","seq4","Gamble_Rand_Seq4","Gamble_Rand_Seq4",27,"Rating","Screen 1","hx8b5a",1,"continue","",3198.49999997613,3193.39999999997,3198.49999997613,3198.49999997613,3193.39999999997,3198.49999997613,1,3198.49999997613,0,0,NA,"Click To Continue","Continue Button",3,"object-25","Rating","happy","not happy","happy",9,"",NA,NA,NA,NA,NA,"Right",NA,-0.34,NA,NA,NA,NA,1,"MDPRF56321"
"131",1730469093856,"01/11/2024 13:51:33",1730469093856,0,"01/11/2024 13:51:33",193496,6,"task-nz4r",NA,41048921,11986016,NA,"complete",NA,"6724cd42a22f88c072cebf93","computer","Desktop or Laptop","Windows 10","Chrome 130.0.0.0","1280x720","1280x720",NA,NA,0,"Gambling_GBO",15,"In","BCADKEJFIGH",NA,"In","MH_OCT","seq4","Gamble_Rand_Seq4","Gamble_Rand_Seq4",27,"Rating","Screen 1","hx8b5a",1,"response","14",1929.29999999999,3193.39999999997,3204.99999997613,1929.29999999999,3193.39999999997,3204.99999997613,1,1929.29999999999,1275.69999997615,0,NA,"Slider","MoodSlider",2,"object-243","Rating","happy","not happy","happy",9,"",NA,NA,NA,NA,NA,"Right",NA,-0.34,NA,NA,NA,NA,1,"MDPRF56321"
"132",1730469095808,"01/11/2024 13:51:35",1730469095808,0,"01/11/2024 13:51:35",193496,6,"task-nz4r",NA,41048921,11986016,NA,"complete",NA,"6724cd42a22f88c072cebf93","computer","Desktop or Laptop","Windows 10","Chrome 130.0.0.0","1280x720","1280x720",NA,NA,0,"Gambling_GBO",15,"In","BCADKEJFIGH",NA,"In","MH_OCT","seq4","Gamble_Rand_Seq4","Gamble_Rand_Seq4",3,"winB","Screen 1","pkkyi8",1,"continue","",1962.79999999999,1962.79999999999,1962.79999999999,1962.79999999999,1962.79999999999,1962.79999999999,1,1962.79999999999,0,0,NA,"Fixation Timing","Fixation",1,"object-246","winB","","","",NA,"Right",-1.33,-3,2,9,NA,"Right",NA,-0.34,NA,NA,NA,NA,1,"MDPRF56321"
"133",1730469099159,"01/11/2024 13:51:39",1730469099159,0,"01/11/2024 13:51:39",193496,6,"task-nz4r",NA,41048921,11986016,NA,"complete",NA,"6724cd42a22f88c072cebf93","computer","Desktop or Laptop","Windows 10","Chrome 130.0.0.0","1280x720","1280x720",NA,NA,0,"Gambling_GBO",15,"In","BCADKEJFIGH",NA,"In","MH_OCT","seq4","Gamble_Rand_Seq4","Gamble_Rand_Seq4",3,"winB","choice","5lszbx",2,"response","Left",3351.19999995234,3343.20000000001,3351.19999995234,3351.19999995234,3343.20000000001,3351.19999995234,0,3351.19999995234,0,0,NA,"Keyboard Response","KeyResponseC",5,"object-255","winB","","","",NA,"Right",-1.33,-3,2,9,NA,"Left",NA,-1.67,NA,NA,NA,NA,-1.33,"MDPRF56321"
"134",1730469104157,"01/11/2024 13:51:44",1730469104157,0,"01/11/2024 13:51:44",193496,6,"task-nz4r",NA,41048921,11986016,NA,"complete",NA,"6724cd42a22f88c072cebf93","computer","Desktop or Laptop","Windows 10","Chrome 130.0.0.0","1280x720","1280x720",NA,NA,0,"Gambling_GBO",15,"In","BCADKEJFIGH",NA,"In","MH_OCT","seq4","Gamble_Rand_Seq4","Gamble_Rand_Seq4",3,"winB","certain","nw4etn",3,"timedOut","",5007.20000000001,5006.60000000003,5007.20000000001,5007.20000000001,5006.60000000003,5007.20000000001,1,5007.20000000001,0,0,NA,"Time Limit","screen",0,"screen","winB","","","",NA,"Right",-1.33,-3,2,9,NA,"Left",NA,-1.67,NA,NA,NA,NA,-1.33,"MDPRF56321"
"135",1730469104176,"01/11/2024 13:51:44",1730469104176,0,"01/11/2024 13:51:44",193496,6,"task-nz4r",NA,41048921,11986016,NA,"complete",NA,"6724cd42a22f88c072cebf93","computer","Desktop or Laptop","Windows 10","Chrome 130.0.0.0","1280x720","1280x720",NA,NA,0,"Gambling_GBO",15,"In","BCADKEJFIGH",NA,"In","MH_OCT","seq4","Gamble_Rand_Seq4","Gamble_Rand_Seq4",28,"Rating","Screen 1","hx8b5a",1,"info","",16.6000000000349,0,16.6000000000349,16.6000000000349,0,16.6000000000349,1,16.6000000000349,0,0,NA,"Slider","MoodSlider",2,"object-243","Rating","bored","not bored","bored",10,"",NA,NA,NA,NA,NA,"Left",NA,-1.67,NA,NA,NA,NA,-1.33,"MDPRF56321"
"136",1730469111619,"01/11/2024 13:51:51",1730469111619,0,"01/11/2024 13:51:51",193496,6,"task-nz4r",NA,41048921,11986016,NA,"complete",NA,"6724cd42a22f88c072cebf93","computer","Desktop or Laptop","Windows 10","Chrome 130.0.0.0","1280x720","1280x720",NA,NA,0,"Gambling_GBO",15,"In","BCADKEJFIGH",NA,"In","MH_OCT","seq4","Gamble_Rand_Seq4","Gamble_Rand_Seq4",28,"Rating","Screen 1","hx8b5a",1,"continue","",7461.89999995229,7451.59999999998,7461.89999995229,7461.89999995229,7451.59999999998,7461.89999995229,1,7461.89999995229,0,0,NA,"Click To Continue","Continue Button",3,"object-25","Rating","bored","not bored","bored",10,"",NA,NA,NA,NA,NA,"Left",NA,-1.67,NA,NA,NA,NA,-1.33,"MDPRF56321"
"137",1730469111619,"01/11/2024 13:51:51",1730469111619,0,"01/11/2024 13:51:51",193496,6,"task-nz4r",NA,41048921,11986016,NA,"complete",NA,"6724cd42a22f88c072cebf93","computer","Desktop or Laptop","Windows 10","Chrome 130.0.0.0","1280x720","1280x720",NA,NA,0,"Gambling_GBO",15,"In","BCADKEJFIGH",NA,"In","MH_OCT","seq4","Gamble_Rand_Seq4","Gamble_Rand_Seq4",28,"Rating","Screen 1","hx8b5a",1,"response","6",5272.79999999999,7451.59999999998,7462.59999999998,5272.79999999999,7451.59999999998,7462.59999999998,1,5272.79999999999,2189.79999999999,0,NA,"Slider","MoodSlider",2,"object-243","Rating","bored","not bored","bored",10,"",NA,NA,NA,NA,NA,"Left",NA,-1.67,NA,NA,NA,NA,-1.33,"MDPRF56321"
"138",1730469111634,"01/11/2024 13:51:51",1730469111634,0,"01/11/2024 13:51:51",193496,6,"task-nz4r",NA,41048921,11986016,NA,"complete",NA,"6724cd42a22f88c072cebf93","computer","Desktop or Laptop","Windows 10","Chrome 130.0.0.0","1280x720","1280x720",NA,NA,0,"Gambling_GBO",15,"In","BCADKEJFIGH",NA,"In","MH_OCT","seq4","Gamble_Rand_Seq4","Gamble_Rand_Seq4",29,"Rating","Screen 1","hx8b5a",1,"info","",16.5999999999767,0,16.5999999999767,16.5999999999767,0,16.5999999999767,1,16.5999999999767,0,0,NA,"Slider","MoodSlider",2,"object-243","Rating","happy","not happy","happy",10,"",NA,NA,NA,NA,NA,"Left",NA,-1.67,NA,NA,NA,NA,-1.33,"MDPRF56321"
"139",1730469116025,"01/11/2024 13:51:56",1730469116025,0,"01/11/2024 13:51:56",193496,6,"task-nz4r",NA,41048921,11986016,NA,"complete",NA,"6724cd42a22f88c072cebf93","computer","Desktop or Laptop","Windows 10","Chrome 130.0.0.0","1280x720","1280x720",NA,NA,0,"Gambling_GBO",15,"In","BCADKEJFIGH",NA,"In","MH_OCT","seq4","Gamble_Rand_Seq4","Gamble_Rand_Seq4",29,"Rating","Screen 1","hx8b5a",1,"continue","",4416.60000002384,4407.70000000001,4416.60000002384,4416.60000002384,4407.70000000001,4416.60000002384,1,4416.60000002384,0,0,NA,"Click To Continue","Continue Button",3,"object-25","Rating","happy","not happy","happy",10,"",NA,NA,NA,NA,NA,"Left",NA,-1.67,NA,NA,NA,NA,-1.33,"MDPRF56321"
"140",1730469116029,"01/11/2024 13:51:56",1730469116029,0,"01/11/2024 13:51:56",193496,6,"task-nz4r",NA,41048921,11986016,NA,"complete",NA,"6724cd42a22f88c072cebf93","computer","Desktop or Laptop","Windows 10","Chrome 130.0.0.0","1280x720","1280x720",NA,NA,0,"Gambling_GBO",15,"In","BCADKEJFIGH",NA,"In","MH_OCT","seq4","Gamble_Rand_Seq4","Gamble_Rand_Seq4",29,"Rating","Screen 1","hx8b5a",1,"response","55",1164.29999999999,4407.70000000001,4420.60000002384,1164.29999999999,4407.70000000001,4420.60000002384,1,1164.29999999999,3256.30000002385,0,NA,"Slider","MoodSlider",2,"object-243","Rating","happy","not happy","happy",10,"",NA,NA,NA,NA,NA,"Left",NA,-1.67,NA,NA,NA,NA,-1.33,"MDPRF56321"
"141",1730469116042,"01/11/2024 13:51:56",1730469116042,0,"01/11/2024 13:51:56",193496,6,"task-nz4r",NA,41048921,11986016,NA,"complete",NA,"6724cd42a22f88c072cebf93","computer","Desktop or Laptop","Windows 10","Chrome 130.0.0.0","1280x720","1280x720",NA,NA,0,"Gambling_GBO",15,"In","BCADKEJFIGH",NA,"In","MH_OCT","seq4","Gamble_Rand_Seq4","Gamble_Rand_Seq4",30,"Rating","Screen 1","hx8b5a",1,"info","",16.6000000000349,0,16.6000000000349,16.6000000000349,0,16.6000000000349,1,16.6000000000349,0,0,NA,"Slider","MoodSlider",2,"object-243","Rating","frustrated","not frustrated","frustrated",10,"",NA,NA,NA,NA,NA,"Left",NA,-1.67,NA,NA,NA,NA,-1.33,"MDPRF56321"
"142",1730469118927,"01/11/2024 13:51:58",1730469118927,0,"01/11/2024 13:51:58",193496,6,"task-nz4r",NA,41048921,11986016,NA,"complete",NA,"6724cd42a22f88c072cebf93","computer","Desktop or Laptop","Windows 10","Chrome 130.0.0.0","1280x720","1280x720",NA,NA,0,"Gambling_GBO",15,"In","BCADKEJFIGH",NA,"In","MH_OCT","seq4","Gamble_Rand_Seq4","Gamble_Rand_Seq4",30,"Rating","Screen 1","hx8b5a",1,"continue","",2910.70000000001,2894.20000000001,2910.70000000001,2910.70000000001,2894.20000000001,2910.70000000001,1,2910.70000000001,0,0,NA,"Click To Continue","Continue Button",3,"object-25","Rating","frustrated","not frustrated","frustrated",10,"",NA,NA,NA,NA,NA,"Left",NA,-1.67,NA,NA,NA,NA,-1.33,"MDPRF56321"
"143",1730469118928,"01/11/2024 13:51:58",1730469118928,0,"01/11/2024 13:51:58",193496,6,"task-nz4r",NA,41048921,11986016,NA,"complete",NA,"6724cd42a22f88c072cebf93","computer","Desktop or Laptop","Windows 10","Chrome 130.0.0.0","1280x720","1280x720",NA,NA,0,"Gambling_GBO",15,"In","BCADKEJFIGH",NA,"In","MH_OCT","seq4","Gamble_Rand_Seq4","Gamble_Rand_Seq4",30,"Rating","Screen 1","hx8b5a",1,"response","49",1646.70000000001,2894.20000000001,2910.70000000001,1646.70000000001,2894.20000000001,2910.70000000001,1,1646.70000000001,1264,0,NA,"Slider","MoodSlider",2,"object-243","Rating","frustrated","not frustrated","frustrated",10,"",NA,NA,NA,NA,NA,"Left",NA,-1.67,NA,NA,NA,NA,-1.33,"MDPRF56321"
"144",1730469120874,"01/11/2024 13:52:00",1730469120874,0,"01/11/2024 13:52:00",193496,6,"task-nz4r",NA,41048921,11986016,NA,"complete",NA,"6724cd42a22f88c072cebf93","computer","Desktop or Laptop","Windows 10","Chrome 130.0.0.0","1280x720","1280x720",NA,NA,0,"Gambling_GBO",15,"In","BCADKEJFIGH",NA,"In","MH_OCT","seq4","Gamble_Rand_Seq4","Gamble_Rand_Seq4",2,"winT","Screen 1","np5pnj",1,"continue","",1962.69999999995,1962.69999999995,1962.69999999995,1962.69999999995,1962.69999999995,1962.69999999995,1,1962.69999999995,0,0,NA,"Fixation Timing","Fixation",1,"object-304","winT","","","",NA,"Right",-2.33,-3,-1,10,NA,"Left",NA,-1.67,NA,NA,NA,NA,-1.33,"MDPRF56321"
"145",1730469122316,"01/11/2024 13:52:02",1730469122316,0,"01/11/2024 13:52:02",193496,6,"task-nz4r",NA,41048921,11986016,NA,"complete",NA,"6724cd42a22f88c072cebf93","computer","Desktop or Laptop","Windows 10","Chrome 130.0.0.0","1280x720","1280x720",NA,NA,0,"Gambling_GBO",15,"In","BCADKEJFIGH",NA,"In","MH_OCT","seq4","Gamble_Rand_Seq4","Gamble_Rand_Seq4",2,"winT","choice","gu8zgx",2,"response","Right",1441.50000002387,1430.5,1441.50000002387,1441.50000002387,1430.5,1441.50000002387,1,1441.50000002387,0,0,NA,"Keyboard Response","KeyResponseG",6,"object-326","winT","","","",NA,"Right",-2.33,-3,-1,10,NA,"Right",NA,-2.67,NA,NA,NA,NA,-1,"MDPRF56321"
"146",1730469126297,"01/11/2024 13:52:06",1730469126297,0,"01/11/2024 13:52:06",193496,6,"task-nz4r",NA,41048921,11986016,NA,"complete",NA,"6724cd42a22f88c072cebf93","computer","Desktop or Laptop","Windows 10","Chrome 130.0.0.0","1280x720","1280x720",NA,NA,0,"Gambling_GBO",15,"In","BCADKEJFIGH",NA,"In","MH_OCT","seq4","Gamble_Rand_Seq4","Gamble_Rand_Seq4",2,"winT","gamble","1lb69u",3,"timedOut","",3993.0999999285,3992.5,3993.0999999285,3993.0999999285,3992.5,3993.0999999285,1,3993.0999999285,0,0,NA,"Time Limit","screen",0,"screen","winT","","","",NA,"Right",-2.33,-3,-1,10,NA,"Right",NA,-2.67,NA,NA,NA,NA,-1,"MDPRF56321"
"147",1730469127294,"01/11/2024 13:52:07",1730469127294,0,"01/11/2024 13:52:07",193496,6,"task-nz4r",NA,41048921,11986016,NA,"complete",NA,"6724cd42a22f88c072cebf93","computer","Desktop or Laptop","Windows 10","Chrome 130.0.0.0","1280x720","1280x720",NA,NA,0,"Gambling_GBO",15,"In","BCADKEJFIGH",NA,"In","MH_OCT","seq4","Gamble_Rand_Seq4","Gamble_Rand_Seq4",2,"winT","win","dhtsbv",4,"timedOut","",998.000000023865,997.400000000023,998.000000023865,998.000000023865,997.400000000023,998.000000023865,1,998.000000023865,0,0,NA,"Time Limit","screen",0,"screen","winT","","","",NA,"Right",-2.33,-3,-1,10,NA,"Right",NA,-2.67,NA,NA,NA,NA,-1,"MDPRF56321"
"148",1730469127307,"01/11/2024 13:52:07",1730469127307,0,"01/11/2024 13:52:07",193496,6,"task-nz4r",NA,41048921,11986016,NA,"complete",NA,"6724cd42a22f88c072cebf93","computer","Desktop or Laptop","Windows 10","Chrome 130.0.0.0","1280x720","1280x720",NA,NA,0,"Gambling_GBO",15,"In","BCADKEJFIGH",NA,"In","MH_OCT","seq4","Gamble_Rand_Seq4","Gamble_Rand_Seq4",31,"Rating","Screen 1","hx8b5a",1,"info","",14,0,14,14,0,14,1,14,0,0,NA,"Slider","MoodSlider",2,"object-243","Rating","happy","not happy","happy",11,"",NA,NA,NA,NA,NA,"Right",NA,-2.67,NA,NA,NA,NA,-1,"MDPRF56321"
"149",1730469130284,"01/11/2024 13:52:10",1730469130284,0,"01/11/2024 13:52:10",193496,6,"task-nz4r",NA,41048921,11986016,NA,"complete",NA,"6724cd42a22f88c072cebf93","computer","Desktop or Laptop","Windows 10","Chrome 130.0.0.0","1280x720","1280x720",NA,NA,0,"Gambling_GBO",15,"In","BCADKEJFIGH",NA,"In","MH_OCT","seq4","Gamble_Rand_Seq4","Gamble_Rand_Seq4",31,"Rating","Screen 1","hx8b5a",1,"continue","",2990.5,2977.29999999999,2990.5,2990.5,2977.29999999999,2990.5,1,2990.5,0,0,NA,"Click To Continue","Continue Button",3,"object-25","Rating","happy","not happy","happy",11,"",NA,NA,NA,NA,NA,"Right",NA,-2.67,NA,NA,NA,NA,-1,"MDPRF56321"
"150",1730469130284,"01/11/2024 13:52:10",1730469130284,0,"01/11/2024 13:52:10",193496,6,"task-nz4r",NA,41048921,11986016,NA,"complete",NA,"6724cd42a22f88c072cebf93","computer","Desktop or Laptop","Windows 10","Chrome 130.0.0.0","1280x720","1280x720",NA,NA,0,"Gambling_GBO",15,"In","BCADKEJFIGH",NA,"In","MH_OCT","seq4","Gamble_Rand_Seq4","Gamble_Rand_Seq4",31,"Rating","Screen 1","hx8b5a",1,"response","76",2228.70000000001,2977.29999999999,2991.10000002384,2228.70000000001,2977.29999999999,2991.10000002384,1,2228.70000000001,762.40000002383,0,NA,"Slider","MoodSlider",2,"object-243","Rating","happy","not happy","happy",11,"",NA,NA,NA,NA,NA,"Right",NA,-2.67,NA,NA,NA,NA,-1,"MDPRF56321"
