"Event.Index","UTC.Timestamp","UTC.Date.and.Time","Local.Timestamp","Local.Timezone","Local.Date.and.Time","Experiment.ID","Experiment.Version","Tree.Node.Key","Repeat.Key","Schedule.ID","Participant.Private.ID","Participant.Starting.Group","Participant.Status","Participant.Completion.Code","Participant.External.Session.ID","Participant.Device.Type","Participant.Device","Participant.OS","Participant.Browser","Participant.Monitor.Size","Participant.Viewport.Size","Checkpoint","Room.ID","Room.Order","Task.Name","Task.Version","branch.hkzp","order.ot79","branch.mcuq","randomiser.a4zk","branch.4fv7","Spreadsheet","Trial.Number","Display","Screen","Screen.ID","Screen.Counter","Response.Type","Response","Onset.Time","Clock.Time","Reaction.Time","Absolute.Onset.Time","Absolute.Clock.Time","Absolute.Reaction.Time","Correct","Response.Onset","Response.Duration","Proportion","Tag","Component.Name","Object.Name","Object.Number","Object.ID","Spreadsheet..display","Manipulation..Spreadsheet","Random_ID"
"1",1695933640136,"28/09/2023 20:40:40",1695919240136,-4,"28/09/2023 12:40:40",144339,5,"questionnaire-uu2n",NA,31929062,9442805,NA,"complete","nzogaj","3H8DHMCCWFAAVH2HY2UROQR82JDDKE","computer","Desktop or Laptop","Windows 10","Chrome 109.0.0.0","820x615","820x506",NA,NA,0,"BIQ (Charlotte)",2,"In","KLJAIBHCGDFE",NA,"LH","In","Spreadsheet1",NA,"","","",NA,"5","BEGIN",NA,NA,NA,NA,NA,NA,0,NA,NA,NA,NA,"","",NA,"","",NA,"SUPAMT92039"
"2",1695933668232,"28/09/2023 20:41:08",1695919268232,-4,"28/09/2023 12:41:08",144339,5,"questionnaire-uu2n",NA,31929062,9442805,NA,"complete","nzogaj","3H8DHMCCWFAAVH2HY2UROQR82JDDKE","computer","Desktop or Laptop","Windows 10","Chrome 109.0.0.0","820x615","820x506",NA,NA,0,"BIQ (Charlotte)",2,"In","KLJAIBHCGDFE",NA,"LH","In","Spreadsheet1",1,"BIQ","Screen 1","9dh6eq",1,"continue","",28109.9969999046,28087.686,28109.9969999046,28109.9969999046,28087.686,28109.9969999046,1,28109.9969999046,0,0,NA,"Click To Continue","Continue Button",23,"object-48","BIQ",NA,"SUPAMT92039"
"3",1695933668235,"28/09/2023 20:41:08",1695919268235,-4,"28/09/2023 12:41:08",144339,5,"questionnaire-uu2n",NA,31929062,9442805,NA,"complete","nzogaj","3H8DHMCCWFAAVH2HY2UROQR82JDDKE","computer","Desktop or Laptop","Windows 10","Chrome 109.0.0.0","820x615","820x506",NA,NA,0,"BIQ (Charlotte)",2,"In","KLJAIBHCGDFE",NA,"LH","In","Spreadsheet1",1,"BIQ","Screen 1","9dh6eq",1,"response","5",18973.146,28087.686,28118.683,18973.146,28087.686,28118.683,1,18973.146,9145.537,0,NA,"Rating Scale","Rating Scale",3,"object-5","BIQ",NA,"SUPAMT92039"
"4",1695933668235,"28/09/2023 20:41:08",1695919268235,-4,"28/09/2023 12:41:08",144339,5,"questionnaire-uu2n",NA,31929062,9442805,NA,"complete","nzogaj","3H8DHMCCWFAAVH2HY2UROQR82JDDKE","computer","Desktop or Laptop","Windows 10","Chrome 109.0.0.0","820x615","820x506",NA,NA,0,"BIQ (Charlotte)",2,"In","KLJAIBHCGDFE",NA,"LH","In","Spreadsheet1",1,"BIQ","Screen 1","9dh6eq",1,"response","6",24119.439,28087.686,28118.683,24119.439,28087.686,28118.683,1,24119.439,3999.244,0,NA,"Rating Scale","Rating Scale",10,"object-18","BIQ",NA,"SUPAMT92039"
"5",1695933668236,"28/09/2023 20:41:08",1695919268236,-4,"28/09/2023 12:41:08",144339,5,"questionnaire-uu2n",NA,31929062,9442805,NA,"complete","nzogaj","3H8DHMCCWFAAVH2HY2UROQR82JDDKE","computer","Desktop or Laptop","Windows 10","Chrome 109.0.0.0","820x615","820x506",NA,NA,0,"BIQ (Charlotte)",2,"In","KLJAIBHCGDFE",NA,"LH","In","Spreadsheet1",1,"BIQ","Screen 1","9dh6eq",1,"response","4",25204.478,28087.686,28118.683,25204.478,28087.686,28118.683,1,25204.478,2914.205,0,NA,"Rating Scale","Rating Scale",17,"object-80","BIQ",NA,"SUPAMT92039"
"6",1695933679446,"28/09/2023 20:41:19",1695919279446,-4,"28/09/2023 12:41:19",144339,5,"questionnaire-uu2n",NA,31929062,9442805,NA,"complete","nzogaj","3H8DHMCCWFAAVH2HY2UROQR82JDDKE","computer","Desktop or Laptop","Windows 10","Chrome 109.0.0.0","820x615","820x506",NA,NA,0,"BIQ (Charlotte)",2,"In","KLJAIBHCGDFE",NA,"LH","In","Spreadsheet1",1,"BIQ","Screen 2","o21mwi",2,"continue","",11242.4109998093,11222.639,11242.4109998093,11242.4109998093,11222.639,11242.4109998093,1,11242.4109998093,0,0,NA,"Click To Continue","Continue Button",22,"object-50","BIQ",NA,"SUPAMT92039"
"7",1695933679451,"28/09/2023 20:41:19",1695919279451,-4,"28/09/2023 12:41:19",144339,5,"questionnaire-uu2n",NA,31929062,9442805,NA,"complete","nzogaj","3H8DHMCCWFAAVH2HY2UROQR82JDDKE","computer","Desktop or Laptop","Windows 10","Chrome 109.0.0.0","820x615","820x506",NA,NA,0,"BIQ (Charlotte)",2,"In","KLJAIBHCGDFE",NA,"LH","In","Spreadsheet1",1,"BIQ","Screen 2","o21mwi",2,"response","5",6572.334,11222.639,11246.9109998093,6572.334,11222.639,11246.9109998093,1,6572.334,4674.57699980927,0,NA,"Rating Scale","Rating Scale",2,"object-259","BIQ",NA,"SUPAMT92039"
"8",1695933679452,"28/09/2023 20:41:19",1695919279452,-4,"28/09/2023 12:41:19",144339,5,"questionnaire-uu2n",NA,31929062,9442805,NA,"complete","nzogaj","3H8DHMCCWFAAVH2HY2UROQR82JDDKE","computer","Desktop or Laptop","Windows 10","Chrome 109.0.0.0","820x615","820x506",NA,NA,0,"BIQ (Charlotte)",2,"In","KLJAIBHCGDFE",NA,"LH","In","Spreadsheet1",1,"BIQ","Screen 2","o21mwi",2,"response","7",7750.316,11222.639,11247.9109998093,7750.316,11222.639,11247.9109998093,1,7750.316,3497.59499980926,0,NA,"Rating Scale","Rating Scale",9,"object-36","BIQ",NA,"SUPAMT92039"
"9",1695933679453,"28/09/2023 20:41:19",1695919279453,-4,"28/09/2023 12:41:19",144339,5,"questionnaire-uu2n",NA,31929062,9442805,NA,"complete","nzogaj","3H8DHMCCWFAAVH2HY2UROQR82JDDKE","computer","Desktop or Laptop","Windows 10","Chrome 109.0.0.0","820x615","820x506",NA,NA,0,"BIQ (Charlotte)",2,"In","KLJAIBHCGDFE",NA,"LH","In","Spreadsheet1",1,"BIQ","Screen 2","o21mwi",2,"response","3",10199.578,11222.639,11248.9109998093,10199.578,11222.639,11248.9109998093,1,10199.578,1049.33299980927,0,NA,"Rating Scale","Rating Scale",16,"object-86","BIQ",NA,"SUPAMT92039"
"10",1695933692037,"28/09/2023 20:41:32",1695919292037,-4,"28/09/2023 12:41:32",144339,5,"questionnaire-uu2n",NA,31929062,9442805,NA,"complete","nzogaj","3H8DHMCCWFAAVH2HY2UROQR82JDDKE","computer","Desktop or Laptop","Windows 10","Chrome 109.0.0.0","820x615","820x506",NA,NA,0,"BIQ (Charlotte)",2,"In","KLJAIBHCGDFE",NA,"LH","In","Spreadsheet1",1,"BIQ","Screen 3","iz3the",3,"continue","",12611.2719998093,12586.646,12611.2719998093,12611.2719998093,12586.646,12611.2719998093,1,12611.2719998093,0,0,NA,"Click To Continue","Continue Button",22,"object-73","BIQ",NA,"SUPAMT92039"
"11",1695933692040,"28/09/2023 20:41:32",1695919292040,-4,"28/09/2023 12:41:32",144339,5,"questionnaire-uu2n",NA,31929062,9442805,NA,"complete","nzogaj","3H8DHMCCWFAAVH2HY2UROQR82JDDKE","computer","Desktop or Laptop","Windows 10","Chrome 109.0.0.0","820x615","820x506",NA,NA,0,"BIQ (Charlotte)",2,"In","KLJAIBHCGDFE",NA,"LH","In","Spreadsheet1",1,"BIQ","Screen 3","iz3the",3,"response","5",4743.223,12586.646,12613.9719996185,4743.223,12586.646,12613.9719996185,1,4743.223,7870.74899961853,0,NA,"Rating Scale","Rating Scale",2,"object-53","BIQ",NA,"SUPAMT92039"
"12",1695933692041,"28/09/2023 20:41:32",1695919292041,-4,"28/09/2023 12:41:32",144339,5,"questionnaire-uu2n",NA,31929062,9442805,NA,"complete","nzogaj","3H8DHMCCWFAAVH2HY2UROQR82JDDKE","computer","Desktop or Laptop","Windows 10","Chrome 109.0.0.0","820x615","820x506",NA,NA,0,"BIQ (Charlotte)",2,"In","KLJAIBHCGDFE",NA,"LH","In","Spreadsheet1",1,"BIQ","Screen 3","iz3the",3,"response","6",7130.385,12586.646,12614.4719996185,7130.385,12586.646,12614.4719996185,1,7130.385,5484.08699961853,0,NA,"Rating Scale","Rating Scale",9,"object-60","BIQ",NA,"SUPAMT92039"
"13",1695933692041,"28/09/2023 20:41:32",1695919292041,-4,"28/09/2023 12:41:32",144339,5,"questionnaire-uu2n",NA,31929062,9442805,NA,"complete","nzogaj","3H8DHMCCWFAAVH2HY2UROQR82JDDKE","computer","Desktop or Laptop","Windows 10","Chrome 109.0.0.0","820x615","820x506",NA,NA,0,"BIQ (Charlotte)",2,"In","KLJAIBHCGDFE",NA,"LH","In","Spreadsheet1",1,"BIQ","Screen 3","iz3the",3,"response","5",9920.492,12586.646,12614.9719996185,9920.492,12586.646,12614.9719996185,1,9920.492,2694.47999961853,0,NA,"Rating Scale","Rating Scale",16,"object-67","BIQ",NA,"SUPAMT92039"
"14",1695933692046,"28/09/2023 20:41:32",1695919292046,-4,"28/09/2023 12:41:32",144339,5,"questionnaire-uu2n",NA,31929062,9442805,NA,"complete","nzogaj","3H8DHMCCWFAAVH2HY2UROQR82JDDKE","computer","Desktop or Laptop","Windows 10","Chrome 109.0.0.0","820x615","820x506",NA,NA,0,"BIQ (Charlotte)",2,"In","KLJAIBHCGDFE",NA,"LH","In","Spreadsheet1",NA,"","","",NA,"5","END",NA,NA,NA,NA,NA,NA,0,NA,NA,NA,NA,"","",NA,"","",NA,"SUPAMT92039"
"1",1695943811327,"28/09/2023 23:30:11",1695918611327,-7,"28/09/2023 09:30:11",144339,5,"questionnaire-uu2n",NA,31928727,9442807,NA,"complete","itszap","3QEMNNSB23YM02VXF85IKLMMWZD7D2","computer","Desktop or Laptop","Windows 10","Chrome 117.0.0.0","1920x1080","1920x941",NA,NA,0,"BIQ (Charlotte)",2,"In","ABLCKDJEIFHG",NA,"LH","In","Spreadsheet1",NA,"","","",NA,"5","BEGIN",NA,NA,NA,NA,NA,NA,0,NA,NA,NA,NA,"","",NA,"","",NA,"SUPAMT70702"
"2",1695943837969,"28/09/2023 23:30:37",1695918637969,-7,"28/09/2023 09:30:37",144339,5,"questionnaire-uu2n",NA,31928727,9442807,NA,"complete","itszap","3QEMNNSB23YM02VXF85IKLMMWZD7D2","computer","Desktop or Laptop","Windows 10","Chrome 117.0.0.0","1920x1080","1920x941",NA,NA,0,"BIQ (Charlotte)",2,"In","ABLCKDJEIFHG",NA,"LH","In","Spreadsheet1",1,"BIQ","Screen 1","9dh6eq",1,"continue","",26656.992,26650.929,26656.992,26656.992,26650.929,26656.992,1,26656.992,0,0,NA,"Click To Continue","Continue Button",23,"object-48","BIQ",NA,"SUPAMT70702"
"3",1695943837971,"28/09/2023 23:30:37",1695918637971,-7,"28/09/2023 09:30:37",144339,5,"questionnaire-uu2n",NA,31928727,9442807,NA,"complete","itszap","3QEMNNSB23YM02VXF85IKLMMWZD7D2","computer","Desktop or Laptop","Windows 10","Chrome 117.0.0.0","1920x1080","1920x941",NA,NA,0,"BIQ (Charlotte)",2,"In","ABLCKDJEIFHG",NA,"LH","In","Spreadsheet1",1,"BIQ","Screen 1","9dh6eq",1,"response","7",13482.922,26650.929,26656.992,13482.922,26650.929,26656.992,1,13482.922,13174.07,0,NA,"Rating Scale","Rating Scale",3,"object-5","BIQ",NA,"SUPAMT70702"
"4",1695943837971,"28/09/2023 23:30:37",1695918637971,-7,"28/09/2023 09:30:37",144339,5,"questionnaire-uu2n",NA,31928727,9442807,NA,"complete","itszap","3QEMNNSB23YM02VXF85IKLMMWZD7D2","computer","Desktop or Laptop","Windows 10","Chrome 117.0.0.0","1920x1080","1920x941",NA,NA,0,"BIQ (Charlotte)",2,"In","ABLCKDJEIFHG",NA,"LH","In","Spreadsheet1",1,"BIQ","Screen 1","9dh6eq",1,"response","4",17134.33,26650.929,26656.992,17134.33,26650.929,26656.992,1,17134.33,9522.662,0,NA,"Rating Scale","Rating Scale",10,"object-18","BIQ",NA,"SUPAMT70702"
"5",1695943837971,"28/09/2023 23:30:37",1695918637971,-7,"28/09/2023 09:30:37",144339,5,"questionnaire-uu2n",NA,31928727,9442807,NA,"complete","itszap","3QEMNNSB23YM02VXF85IKLMMWZD7D2","computer","Desktop or Laptop","Windows 10","Chrome 117.0.0.0","1920x1080","1920x941",NA,NA,0,"BIQ (Charlotte)",2,"In","ABLCKDJEIFHG",NA,"LH","In","Spreadsheet1",1,"BIQ","Screen 1","9dh6eq",1,"response","3",21780.371,26650.929,26656.992,21780.371,26650.929,26656.992,1,21780.371,4876.621,0,NA,"Rating Scale","Rating Scale",17,"object-80","BIQ",NA,"SUPAMT70702"
"6",1695943862480,"28/09/2023 23:31:02",1695918662480,-7,"28/09/2023 09:31:02",144339,5,"questionnaire-uu2n",NA,31928727,9442807,NA,"complete","itszap","3QEMNNSB23YM02VXF85IKLMMWZD7D2","computer","Desktop or Laptop","Windows 10","Chrome 117.0.0.0","1920x1080","1920x941",NA,NA,0,"BIQ (Charlotte)",2,"In","ABLCKDJEIFHG",NA,"LH","In","Spreadsheet1",1,"BIQ","Screen 2","o21mwi",2,"continue","",24518.3419999993,24516.46,24518.3419999993,24518.3419999993,24516.46,24518.3419999993,1,24518.3419999993,0,0,NA,"Click To Continue","Continue Button",22,"object-50","BIQ",NA,"SUPAMT70702"
"7",1695943862482,"28/09/2023 23:31:02",1695918662482,-7,"28/09/2023 09:31:02",144339,5,"questionnaire-uu2n",NA,31928727,9442807,NA,"complete","itszap","3QEMNNSB23YM02VXF85IKLMMWZD7D2","computer","Desktop or Laptop","Windows 10","Chrome 117.0.0.0","1920x1080","1920x941",NA,NA,0,"BIQ (Charlotte)",2,"In","ABLCKDJEIFHG",NA,"LH","In","Spreadsheet1",1,"BIQ","Screen 2","o21mwi",2,"response","7",7090.501,24516.46,24520.142,7090.501,24516.46,24520.142,1,7090.501,17429.641,0,NA,"Rating Scale","Rating Scale",2,"object-259","BIQ",NA,"SUPAMT70702"
"8",1695943862482,"28/09/2023 23:31:02",1695918662482,-7,"28/09/2023 09:31:02",144339,5,"questionnaire-uu2n",NA,31928727,9442807,NA,"complete","itszap","3QEMNNSB23YM02VXF85IKLMMWZD7D2","computer","Desktop or Laptop","Windows 10","Chrome 117.0.0.0","1920x1080","1920x941",NA,NA,0,"BIQ (Charlotte)",2,"In","ABLCKDJEIFHG",NA,"LH","In","Spreadsheet1",1,"BIQ","Screen 2","o21mwi",2,"response","4",11475.744,24516.46,24520.5420000004,11475.744,24516.46,24520.5420000004,1,11475.744,13044.7980000004,0,NA,"Rating Scale","Rating Scale",9,"object-36","BIQ",NA,"SUPAMT70702"
"9",1695943862482,"28/09/2023 23:31:02",1695918662482,-7,"28/09/2023 09:31:02",144339,5,"questionnaire-uu2n",NA,31928727,9442807,NA,"complete","itszap","3QEMNNSB23YM02VXF85IKLMMWZD7D2","computer","Desktop or Laptop","Windows 10","Chrome 117.0.0.0","1920x1080","1920x941",NA,NA,0,"BIQ (Charlotte)",2,"In","ABLCKDJEIFHG",NA,"LH","In","Spreadsheet1",1,"BIQ","Screen 2","o21mwi",2,"response","4",23928.046,24516.46,24520.8419999993,23928.046,24516.46,24520.8419999993,1,23928.046,592.795999999253,0,NA,"Rating Scale","Rating Scale",16,"object-86","BIQ",NA,"SUPAMT70702"
"10",1695943881157,"28/09/2023 23:31:21",1695918681157,-7,"28/09/2023 09:31:21",144339,5,"questionnaire-uu2n",NA,31928727,9442807,NA,"complete","itszap","3QEMNNSB23YM02VXF85IKLMMWZD7D2","computer","Desktop or Laptop","Windows 10","Chrome 117.0.0.0","1920x1080","1920x941",NA,NA,0,"BIQ (Charlotte)",2,"In","ABLCKDJEIFHG",NA,"LH","In","Spreadsheet1",1,"BIQ","Screen 3","iz3the",3,"continue","",18678.8819999993,18675.429,18678.8819999993,18678.8819999993,18675.429,18678.8819999993,1,18678.8819999993,0,0,NA,"Click To Continue","Continue Button",22,"object-73","BIQ",NA,"SUPAMT70702"
"11",1695943881159,"28/09/2023 23:31:21",1695918681159,-7,"28/09/2023 09:31:21",144339,5,"questionnaire-uu2n",NA,31928727,9442807,NA,"complete","itszap","3QEMNNSB23YM02VXF85IKLMMWZD7D2","computer","Desktop or Laptop","Windows 10","Chrome 117.0.0.0","1920x1080","1920x941",NA,NA,0,"BIQ (Charlotte)",2,"In","ABLCKDJEIFHG",NA,"LH","In","Spreadsheet1",1,"BIQ","Screen 3","iz3the",3,"response","2",7278.443,18675.429,18680.9819999989,7278.443,18675.429,18680.9819999989,1,7278.443,11402.5389999989,0,NA,"Rating Scale","Rating Scale",2,"object-53","BIQ",NA,"SUPAMT70702"
"12",1695943881159,"28/09/2023 23:31:21",1695918681159,-7,"28/09/2023 09:31:21",144339,5,"questionnaire-uu2n",NA,31928727,9442807,NA,"complete","itszap","3QEMNNSB23YM02VXF85IKLMMWZD7D2","computer","Desktop or Laptop","Windows 10","Chrome 117.0.0.0","1920x1080","1920x941",NA,NA,0,"BIQ (Charlotte)",2,"In","ABLCKDJEIFHG",NA,"LH","In","Spreadsheet1",1,"BIQ","Screen 3","iz3the",3,"response","4",10905.545,18675.429,18681.3819999993,10905.545,18675.429,18681.3819999993,1,10905.545,7775.83699999926,0,NA,"Rating Scale","Rating Scale",9,"object-60","BIQ",NA,"SUPAMT70702"
"13",1695943881159,"28/09/2023 23:31:21",1695918681159,-7,"28/09/2023 09:31:21",144339,5,"questionnaire-uu2n",NA,31928727,9442807,NA,"complete","itszap","3QEMNNSB23YM02VXF85IKLMMWZD7D2","computer","Desktop or Laptop","Windows 10","Chrome 117.0.0.0","1920x1080","1920x941",NA,NA,0,"BIQ (Charlotte)",2,"In","ABLCKDJEIFHG",NA,"LH","In","Spreadsheet1",1,"BIQ","Screen 3","iz3the",3,"response","3",15521.426,18675.429,18681.549,15521.426,18675.429,18681.549,1,15521.426,3160.12300000001,0,NA,"Rating Scale","Rating Scale",16,"object-67","BIQ",NA,"SUPAMT70702"
"14",1695943881163,"28/09/2023 23:31:21",1695918681163,-7,"28/09/2023 09:31:21",144339,5,"questionnaire-uu2n",NA,31928727,9442807,NA,"complete","itszap","3QEMNNSB23YM02VXF85IKLMMWZD7D2","computer","Desktop or Laptop","Windows 10","Chrome 117.0.0.0","1920x1080","1920x941",NA,NA,0,"BIQ (Charlotte)",2,"In","ABLCKDJEIFHG",NA,"LH","In","Spreadsheet1",NA,"","","",NA,"5","END",NA,NA,NA,NA,NA,NA,0,NA,NA,NA,NA,"","",NA,"","",NA,"SUPAMT70702"
"1",1695946883783,"29/09/2023 00:21:23",1695932483783,-4,"28/09/2023 16:21:23",144339,5,"questionnaire-uu2n",NA,31928521,9442809,NA,"complete","qsflpm","3I2PTA7R3ZT4KQ6M3O0BOPY7LY2KQQ","computer","Desktop or Laptop","Windows 10","Chrome 115.0.0.0","1280x1024","1280x875",NA,NA,0,"BIQ (Charlotte)",2,"In","FGEHDICJBKAL",NA,"HL","In","Spreadsheet1",NA,"","","",NA,"5","BEGIN",NA,NA,NA,NA,NA,NA,0,NA,NA,NA,NA,"","",NA,"","",NA,"SUPAMT59946"
"2",1695946927327,"29/09/2023 00:22:07",1695932527327,-4,"28/09/2023 16:22:07",144339,5,"questionnaire-uu2n",NA,31928521,9442809,NA,"complete","qsflpm","3I2PTA7R3ZT4KQ6M3O0BOPY7LY2KQQ","computer","Desktop or Laptop","Windows 10","Chrome 115.0.0.0","1280x1024","1280x875",NA,NA,0,"BIQ (Charlotte)",2,"In","FGEHDICJBKAL",NA,"HL","In","Spreadsheet1",1,"BIQ","Screen 1","9dh6eq",1,"continue","",43558.89,43542.224,43558.89,43558.89,43542.224,43558.89,1,43558.89,0,0,NA,"Click To Continue","Continue Button",23,"object-48","BIQ",NA,"SUPAMT59946"
"3",1695946927331,"29/09/2023 00:22:07",1695932527331,-4,"28/09/2023 16:22:07",144339,5,"questionnaire-uu2n",NA,31928521,9442809,NA,"complete","qsflpm","3I2PTA7R3ZT4KQ6M3O0BOPY7LY2KQQ","computer","Desktop or Laptop","Windows 10","Chrome 115.0.0.0","1280x1024","1280x875",NA,NA,0,"BIQ (Charlotte)",2,"In","FGEHDICJBKAL",NA,"HL","In","Spreadsheet1",1,"BIQ","Screen 1","9dh6eq",1,"response","5",12380.196,43542.224,43558.89,12380.196,43542.224,43558.89,1,12380.196,31178.694,0,NA,"Rating Scale","Rating Scale",3,"object-5","BIQ",NA,"SUPAMT59946"
"4",1695946927332,"29/09/2023 00:22:07",1695932527332,-4,"28/09/2023 16:22:07",144339,5,"questionnaire-uu2n",NA,31928521,9442809,NA,"complete","qsflpm","3I2PTA7R3ZT4KQ6M3O0BOPY7LY2KQQ","computer","Desktop or Laptop","Windows 10","Chrome 115.0.0.0","1280x1024","1280x875",NA,NA,0,"BIQ (Charlotte)",2,"In","FGEHDICJBKAL",NA,"HL","In","Spreadsheet1",1,"BIQ","Screen 1","9dh6eq",1,"response","4",32821.98,43542.224,43558.89,32821.98,43542.224,43558.89,1,32821.98,10736.91,0,NA,"Rating Scale","Rating Scale",10,"object-18","BIQ",NA,"SUPAMT59946"
"5",1695946927332,"29/09/2023 00:22:07",1695932527332,-4,"28/09/2023 16:22:07",144339,5,"questionnaire-uu2n",NA,31928521,9442809,NA,"complete","qsflpm","3I2PTA7R3ZT4KQ6M3O0BOPY7LY2KQQ","computer","Desktop or Laptop","Windows 10","Chrome 115.0.0.0","1280x1024","1280x875",NA,NA,0,"BIQ (Charlotte)",2,"In","FGEHDICJBKAL",NA,"HL","In","Spreadsheet1",1,"BIQ","Screen 1","9dh6eq",1,"response","6",40717.584,43542.224,43558.89,40717.584,43542.224,43558.89,1,40717.584,2841.306,0,NA,"Rating Scale","Rating Scale",17,"object-80","BIQ",NA,"SUPAMT59946"
"6",1695946950769,"29/09/2023 00:22:30",1695932550769,-4,"28/09/2023 16:22:30",144339,5,"questionnaire-uu2n",NA,31928521,9442809,NA,"complete","qsflpm","3I2PTA7R3ZT4KQ6M3O0BOPY7LY2KQQ","computer","Desktop or Laptop","Windows 10","Chrome 115.0.0.0","1280x1024","1280x875",NA,NA,0,"BIQ (Charlotte)",2,"In","FGEHDICJBKAL",NA,"HL","In","Spreadsheet1",1,"BIQ","Screen 2","o21mwi",2,"continue","",23462.5580002861,23447.616,23462.5580002861,23462.5580002861,23447.616,23462.5580002861,1,23462.5580002861,0,0,NA,"Click To Continue","Continue Button",22,"object-50","BIQ",NA,"SUPAMT59946"
"7",1695946950772,"29/09/2023 00:22:30",1695932550772,-4,"28/09/2023 16:22:30",144339,5,"questionnaire-uu2n",NA,31928521,9442809,NA,"complete","qsflpm","3I2PTA7R3ZT4KQ6M3O0BOPY7LY2KQQ","computer","Desktop or Laptop","Windows 10","Chrome 115.0.0.0","1280x1024","1280x875",NA,NA,0,"BIQ (Charlotte)",2,"In","FGEHDICJBKAL",NA,"HL","In","Spreadsheet1",1,"BIQ","Screen 2","o21mwi",2,"response","5",9926.75,23447.616,23464.282,9926.75,23447.616,23464.282,1,9926.75,13537.532,0,NA,"Rating Scale","Rating Scale",2,"object-259","BIQ",NA,"SUPAMT59946"
"8",1695946950772,"29/09/2023 00:22:30",1695932550772,-4,"28/09/2023 16:22:30",144339,5,"questionnaire-uu2n",NA,31928521,9442809,NA,"complete","qsflpm","3I2PTA7R3ZT4KQ6M3O0BOPY7LY2KQQ","computer","Desktop or Laptop","Windows 10","Chrome 115.0.0.0","1280x1024","1280x875",NA,NA,0,"BIQ (Charlotte)",2,"In","FGEHDICJBKAL",NA,"HL","In","Spreadsheet1",1,"BIQ","Screen 2","o21mwi",2,"response","6",15623.893,23447.616,23464.282,15623.893,23447.616,23464.282,1,15623.893,7840.389,0,NA,"Rating Scale","Rating Scale",9,"object-36","BIQ",NA,"SUPAMT59946"
"9",1695946950773,"29/09/2023 00:22:30",1695932550773,-4,"28/09/2023 16:22:30",144339,5,"questionnaire-uu2n",NA,31928521,9442809,NA,"complete","qsflpm","3I2PTA7R3ZT4KQ6M3O0BOPY7LY2KQQ","computer","Desktop or Laptop","Windows 10","Chrome 115.0.0.0","1280x1024","1280x875",NA,NA,0,"BIQ (Charlotte)",2,"In","FGEHDICJBKAL",NA,"HL","In","Spreadsheet1",1,"BIQ","Screen 2","o21mwi",2,"response","5",22513.07,23447.616,23464.282,22513.07,23447.616,23464.282,1,22513.07,951.212,0,NA,"Rating Scale","Rating Scale",16,"object-86","BIQ",NA,"SUPAMT59946"
"10",1695946959913,"29/09/2023 00:22:39",1695932559913,-4,"28/09/2023 16:22:39",144339,5,"questionnaire-uu2n",NA,31928521,9442809,NA,"complete","qsflpm","3I2PTA7R3ZT4KQ6M3O0BOPY7LY2KQQ","computer","Desktop or Laptop","Windows 10","Chrome 115.0.0.0","1280x1024","1280x875",NA,NA,0,"BIQ (Charlotte)",2,"In","FGEHDICJBKAL",NA,"HL","In","Spreadsheet1",1,"BIQ","Screen 3","iz3the",3,"continue","",9159.242,9152.23299999999,9159.242,9159.242,9152.23299999999,9159.242,1,9159.242,0,0,NA,"Click To Continue","Continue Button",22,"object-73","BIQ",NA,"SUPAMT59946"
"11",1695946959914,"29/09/2023 00:22:39",1695932559914,-4,"28/09/2023 16:22:39",144339,5,"questionnaire-uu2n",NA,31928521,9442809,NA,"complete","qsflpm","3I2PTA7R3ZT4KQ6M3O0BOPY7LY2KQQ","computer","Desktop or Laptop","Windows 10","Chrome 115.0.0.0","1280x1024","1280x875",NA,NA,0,"BIQ (Charlotte)",2,"In","FGEHDICJBKAL",NA,"HL","In","Spreadsheet1",1,"BIQ","Screen 3","iz3the",3,"response","7",2661.818,9152.23299999999,9159.84200038147,2661.818,9152.23299999999,9159.84200038147,1,2661.818,6498.02400038147,0,NA,"Rating Scale","Rating Scale",2,"object-53","BIQ",NA,"SUPAMT59946"
"12",1695946959914,"29/09/2023 00:22:39",1695932559914,-4,"28/09/2023 16:22:39",144339,5,"questionnaire-uu2n",NA,31928521,9442809,NA,"complete","qsflpm","3I2PTA7R3ZT4KQ6M3O0BOPY7LY2KQQ","computer","Desktop or Laptop","Windows 10","Chrome 115.0.0.0","1280x1024","1280x875",NA,NA,0,"BIQ (Charlotte)",2,"In","FGEHDICJBKAL",NA,"HL","In","Spreadsheet1",1,"BIQ","Screen 3","iz3the",3,"response","7",4943.128,9152.23299999999,9160.34200038147,4943.128,9152.23299999999,9160.34200038147,1,4943.128,4217.21400038147,0,NA,"Rating Scale","Rating Scale",9,"object-60","BIQ",NA,"SUPAMT59946"
"13",1695946959915,"29/09/2023 00:22:39",1695932559915,-4,"28/09/2023 16:22:39",144339,5,"questionnaire-uu2n",NA,31928521,9442809,NA,"complete","qsflpm","3I2PTA7R3ZT4KQ6M3O0BOPY7LY2KQQ","computer","Desktop or Laptop","Windows 10","Chrome 115.0.0.0","1280x1024","1280x875",NA,NA,0,"BIQ (Charlotte)",2,"In","FGEHDICJBKAL",NA,"HL","In","Spreadsheet1",1,"BIQ","Screen 3","iz3the",3,"response","7",7753.272,9152.23299999999,9160.84200038147,7753.272,9152.23299999999,9160.84200038147,1,7753.272,1407.57000038147,0,NA,"Rating Scale","Rating Scale",16,"object-67","BIQ",NA,"SUPAMT59946"
"14",1695946959920,"29/09/2023 00:22:39",1695932559920,-4,"28/09/2023 16:22:39",144339,5,"questionnaire-uu2n",NA,31928521,9442809,NA,"complete","qsflpm","3I2PTA7R3ZT4KQ6M3O0BOPY7LY2KQQ","computer","Desktop or Laptop","Windows 10","Chrome 115.0.0.0","1280x1024","1280x875",NA,NA,0,"BIQ (Charlotte)",2,"In","FGEHDICJBKAL",NA,"HL","In","Spreadsheet1",NA,"","","",NA,"5","END",NA,NA,NA,NA,NA,NA,0,NA,NA,NA,NA,"","",NA,"","",NA,"SUPAMT59946"
"1",1695932815251,"28/09/2023 20:26:55",1695918415251,-4,"28/09/2023 12:26:55",144339,5,"questionnaire-uu2n",NA,31928624,9442808,NA,"complete","hzvgmg","3AMW0RGHOJ1KSKQA0OD2GCP1AXLNP7","computer","Desktop or Laptop","Windows 8.1","Chrome 109.0.0.0","1366x768","1366x625",NA,NA,0,"BIQ (Charlotte)",2,"In","EFDGCHBIAJLK",NA,"LH","In","Spreadsheet1",NA,"","","",NA,"5","BEGIN",NA,NA,NA,NA,NA,NA,0,NA,NA,NA,NA,"","",NA,"","",NA,"SUPAMT36184"
"2",1695932986601,"28/09/2023 20:29:46",1695918586601,-4,"28/09/2023 12:29:46",144339,5,"questionnaire-uu2n",NA,31928624,9442808,NA,"complete","hzvgmg","3AMW0RGHOJ1KSKQA0OD2GCP1AXLNP7","computer","Desktop or Laptop","Windows 8.1","Chrome 109.0.0.0","1366x768","1366x625",NA,NA,0,"BIQ (Charlotte)",2,"In","EFDGCHBIAJLK",NA,"LH","In","Spreadsheet1",1,"BIQ","Screen 1","9dh6eq",1,"continue","",171367,171343.75,171367,171367,171343.75,171367,1,171367,0,0,NA,"Click To Continue","Continue Button",23,"object-48","BIQ",NA,"SUPAMT36184"
"3",1695932986604,"28/09/2023 20:29:46",1695918586604,-4,"28/09/2023 12:29:46",144339,5,"questionnaire-uu2n",NA,31928624,9442808,NA,"complete","hzvgmg","3AMW0RGHOJ1KSKQA0OD2GCP1AXLNP7","computer","Desktop or Laptop","Windows 8.1","Chrome 109.0.0.0","1366x768","1366x625",NA,NA,0,"BIQ (Charlotte)",2,"In","EFDGCHBIAJLK",NA,"LH","In","Spreadsheet1",1,"BIQ","Screen 1","9dh6eq",1,"response","4",115687.5,171343.75,171375,115687.5,171343.75,171375,1,115687.5,55687.5,0,NA,"Rating Scale","Rating Scale",3,"object-5","BIQ",NA,"SUPAMT36184"
"4",1695932986605,"28/09/2023 20:29:46",1695918586605,-4,"28/09/2023 12:29:46",144339,5,"questionnaire-uu2n",NA,31928624,9442808,NA,"complete","hzvgmg","3AMW0RGHOJ1KSKQA0OD2GCP1AXLNP7","computer","Desktop or Laptop","Windows 8.1","Chrome 109.0.0.0","1366x768","1366x625",NA,NA,0,"BIQ (Charlotte)",2,"In","EFDGCHBIAJLK",NA,"LH","In","Spreadsheet1",1,"BIQ","Screen 1","9dh6eq",1,"response","4",155156.25,171343.75,171375,155156.25,171343.75,171375,1,155156.25,16218.75,0,NA,"Rating Scale","Rating Scale",10,"object-18","BIQ",NA,"SUPAMT36184"
"5",1695932986605,"28/09/2023 20:29:46",1695918586605,-4,"28/09/2023 12:29:46",144339,5,"questionnaire-uu2n",NA,31928624,9442808,NA,"complete","hzvgmg","3AMW0RGHOJ1KSKQA0OD2GCP1AXLNP7","computer","Desktop or Laptop","Windows 8.1","Chrome 109.0.0.0","1366x768","1366x625",NA,NA,0,"BIQ (Charlotte)",2,"In","EFDGCHBIAJLK",NA,"LH","In","Spreadsheet1",1,"BIQ","Screen 1","9dh6eq",1,"response","2",167125,171343.75,171375,167125,171343.75,171375,1,167125,4250,0,NA,"Rating Scale","Rating Scale",17,"object-80","BIQ",NA,"SUPAMT36184"
"6",1695933036572,"28/09/2023 20:30:36",1695918636572,-4,"28/09/2023 12:30:36",144339,5,"questionnaire-uu2n",NA,31928624,9442808,NA,"complete","hzvgmg","3AMW0RGHOJ1KSKQA0OD2GCP1AXLNP7","computer","Desktop or Laptop","Windows 8.1","Chrome 109.0.0.0","1366x768","1366x625",NA,NA,0,"BIQ (Charlotte)",2,"In","EFDGCHBIAJLK",NA,"LH","In","Spreadsheet1",1,"BIQ","Screen 2","o21mwi",2,"continue","",49999.25,49968.75,49999.25,49999.25,49968.75,49999.25,1,49999.25,0,0,NA,"Click To Continue","Continue Button",22,"object-50","BIQ",NA,"SUPAMT36184"
"7",1695933036575,"28/09/2023 20:30:36",1695918636575,-4,"28/09/2023 12:30:36",144339,5,"questionnaire-uu2n",NA,31928624,9442808,NA,"complete","hzvgmg","3AMW0RGHOJ1KSKQA0OD2GCP1AXLNP7","computer","Desktop or Laptop","Windows 8.1","Chrome 109.0.0.0","1366x768","1366x625",NA,NA,0,"BIQ (Charlotte)",2,"In","EFDGCHBIAJLK",NA,"LH","In","Spreadsheet1",1,"BIQ","Screen 2","o21mwi",2,"response","7",21906.25,49968.75,50000,21906.25,49968.75,50000,1,21906.25,28093.75,0,NA,"Rating Scale","Rating Scale",2,"object-259","BIQ",NA,"SUPAMT36184"
"8",1695933036575,"28/09/2023 20:30:36",1695918636575,-4,"28/09/2023 12:30:36",144339,5,"questionnaire-uu2n",NA,31928624,9442808,NA,"complete","hzvgmg","3AMW0RGHOJ1KSKQA0OD2GCP1AXLNP7","computer","Desktop or Laptop","Windows 8.1","Chrome 109.0.0.0","1366x768","1366x625",NA,NA,0,"BIQ (Charlotte)",2,"In","EFDGCHBIAJLK",NA,"LH","In","Spreadsheet1",1,"BIQ","Screen 2","o21mwi",2,"response","6",37156.25,49968.75,50000,37156.25,49968.75,50000,1,37156.25,12843.75,0,NA,"Rating Scale","Rating Scale",9,"object-36","BIQ",NA,"SUPAMT36184"
"9",1695933036576,"28/09/2023 20:30:36",1695918636576,-4,"28/09/2023 12:30:36",144339,5,"questionnaire-uu2n",NA,31928624,9442808,NA,"complete","hzvgmg","3AMW0RGHOJ1KSKQA0OD2GCP1AXLNP7","computer","Desktop or Laptop","Windows 8.1","Chrome 109.0.0.0","1366x768","1366x625",NA,NA,0,"BIQ (Charlotte)",2,"In","EFDGCHBIAJLK",NA,"LH","In","Spreadsheet1",1,"BIQ","Screen 2","o21mwi",2,"response","4",48000,49968.75,50000,48000,49968.75,50000,1,48000,2000,0,NA,"Rating Scale","Rating Scale",16,"object-86","BIQ",NA,"SUPAMT36184"
"10",1695933118113,"28/09/2023 20:31:58",1695918718113,-4,"28/09/2023 12:31:58",144339,5,"questionnaire-uu2n",NA,31928624,9442808,NA,"complete","hzvgmg","3AMW0RGHOJ1KSKQA0OD2GCP1AXLNP7","computer","Desktop or Laptop","Windows 8.1","Chrome 109.0.0.0","1366x768","1366x625",NA,NA,0,"BIQ (Charlotte)",2,"In","EFDGCHBIAJLK",NA,"LH","In","Spreadsheet1",1,"BIQ","Screen 3","iz3the",3,"continue","",81571.5,81562.5,81571.5,81571.5,81562.5,81571.5,1,81571.5,0,0,NA,"Click To Continue","Continue Button",22,"object-73","BIQ",NA,"SUPAMT36184"
"11",1695933118116,"28/09/2023 20:31:58",1695918718116,-4,"28/09/2023 12:31:58",144339,5,"questionnaire-uu2n",NA,31928624,9442808,NA,"complete","hzvgmg","3AMW0RGHOJ1KSKQA0OD2GCP1AXLNP7","computer","Desktop or Laptop","Windows 8.1","Chrome 109.0.0.0","1366x768","1366x625",NA,NA,0,"BIQ (Charlotte)",2,"In","EFDGCHBIAJLK",NA,"LH","In","Spreadsheet1",1,"BIQ","Screen 3","iz3the",3,"response","2",51562.5,81562.5,81574.5,51562.5,81562.5,81574.5,1,51562.5,30012,0,NA,"Rating Scale","Rating Scale",2,"object-53","BIQ",NA,"SUPAMT36184"
"12",1695933118116,"28/09/2023 20:31:58",1695918718116,-4,"28/09/2023 12:31:58",144339,5,"questionnaire-uu2n",NA,31928624,9442808,NA,"complete","hzvgmg","3AMW0RGHOJ1KSKQA0OD2GCP1AXLNP7","computer","Desktop or Laptop","Windows 8.1","Chrome 109.0.0.0","1366x768","1366x625",NA,NA,0,"BIQ (Charlotte)",2,"In","EFDGCHBIAJLK",NA,"LH","In","Spreadsheet1",1,"BIQ","Screen 3","iz3the",3,"response","5",69562.5,81562.5,81574.5,69562.5,81562.5,81574.5,1,69562.5,12012,0,NA,"Rating Scale","Rating Scale",9,"object-60","BIQ",NA,"SUPAMT36184"
"13",1695933118117,"28/09/2023 20:31:58",1695918718117,-4,"28/09/2023 12:31:58",144339,5,"questionnaire-uu2n",NA,31928624,9442808,NA,"complete","hzvgmg","3AMW0RGHOJ1KSKQA0OD2GCP1AXLNP7","computer","Desktop or Laptop","Windows 8.1","Chrome 109.0.0.0","1366x768","1366x625",NA,NA,0,"BIQ (Charlotte)",2,"In","EFDGCHBIAJLK",NA,"LH","In","Spreadsheet1",1,"BIQ","Screen 3","iz3the",3,"response","8",76062.5,81562.5,81575.5,76062.5,81562.5,81575.5,1,76062.5,5513,0,NA,"Rating Scale","Rating Scale",16,"object-67","BIQ",NA,"SUPAMT36184"
"14",1695933118122,"28/09/2023 20:31:58",1695918718122,-4,"28/09/2023 12:31:58",144339,5,"questionnaire-uu2n",NA,31928624,9442808,NA,"complete","hzvgmg","3AMW0RGHOJ1KSKQA0OD2GCP1AXLNP7","computer","Desktop or Laptop","Windows 8.1","Chrome 109.0.0.0","1366x768","1366x625",NA,NA,0,"BIQ (Charlotte)",2,"In","EFDGCHBIAJLK",NA,"LH","In","Spreadsheet1",NA,"","","",NA,"5","END",NA,NA,NA,NA,NA,NA,0,NA,NA,NA,NA,"","",NA,"","",NA,"SUPAMT36184"
"1",1695944277910,"28/09/2023 23:37:57",1695919077910,-7,"28/09/2023 09:37:57",144339,5,"questionnaire-uu2n",NA,31928970,9442810,NA,"complete","xaoupi","3EFVCAY5L9833208Z9JZ1JDUC3G8J4","computer","Desktop or Laptop","Windows 8.1","Chrome 109.0.0.0","1366x768","914x563",NA,NA,0,"BIQ (Charlotte)",2,"In","DECFBGAHLIKJ",NA,"LH","In","Spreadsheet1",NA,"","","",NA,"5","BEGIN",NA,NA,NA,NA,NA,NA,0,NA,NA,NA,NA,"","",NA,"","",NA,"SUPAMT86355"
"2",1695944352325,"28/09/2023 23:39:12",1695919152325,-7,"28/09/2023 09:39:12",144339,5,"questionnaire-uu2n",NA,31928970,9442810,NA,"complete","xaoupi","3EFVCAY5L9833208Z9JZ1JDUC3G8J4","computer","Desktop or Laptop","Windows 8.1","Chrome 109.0.0.0","1366x768","914x563",NA,NA,0,"BIQ (Charlotte)",2,"In","DECFBGAHLIKJ",NA,"LH","In","Spreadsheet1",1,"BIQ","Screen 1","9dh6eq",1,"continue","",74437.5,74406.25,74437.5,74437.5,74406.25,74437.5,1,74437.5,0,0,NA,"Click To Continue","Continue Button",23,"object-48","BIQ",NA,"SUPAMT86355"
"3",1695944352328,"28/09/2023 23:39:12",1695919152328,-7,"28/09/2023 09:39:12",144339,5,"questionnaire-uu2n",NA,31928970,9442810,NA,"complete","xaoupi","3EFVCAY5L9833208Z9JZ1JDUC3G8J4","computer","Desktop or Laptop","Windows 8.1","Chrome 109.0.0.0","1366x768","914x563",NA,NA,0,"BIQ (Charlotte)",2,"In","DECFBGAHLIKJ",NA,"LH","In","Spreadsheet1",1,"BIQ","Screen 1","9dh6eq",1,"response","7",26343.75,74406.25,74437.5,26343.75,74406.25,74437.5,1,26343.75,48093.75,0,NA,"Rating Scale","Rating Scale",3,"object-5","BIQ",NA,"SUPAMT86355"
"4",1695944352328,"28/09/2023 23:39:12",1695919152328,-7,"28/09/2023 09:39:12",144339,5,"questionnaire-uu2n",NA,31928970,9442810,NA,"complete","xaoupi","3EFVCAY5L9833208Z9JZ1JDUC3G8J4","computer","Desktop or Laptop","Windows 8.1","Chrome 109.0.0.0","1366x768","914x563",NA,NA,0,"BIQ (Charlotte)",2,"In","DECFBGAHLIKJ",NA,"LH","In","Spreadsheet1",1,"BIQ","Screen 1","9dh6eq",1,"response","4",61625,74406.25,74437.5,61625,74406.25,74437.5,1,61625,12812.5,0,NA,"Rating Scale","Rating Scale",10,"object-18","BIQ",NA,"SUPAMT86355"
"5",1695944352329,"28/09/2023 23:39:12",1695919152329,-7,"28/09/2023 09:39:12",144339,5,"questionnaire-uu2n",NA,31928970,9442810,NA,"complete","xaoupi","3EFVCAY5L9833208Z9JZ1JDUC3G8J4","computer","Desktop or Laptop","Windows 8.1","Chrome 109.0.0.0","1366x768","914x563",NA,NA,0,"BIQ (Charlotte)",2,"In","DECFBGAHLIKJ",NA,"LH","In","Spreadsheet1",1,"BIQ","Screen 1","9dh6eq",1,"response","6",66125,74406.25,74437.5,66125,74406.25,74437.5,1,66125,8312.5,0,NA,"Rating Scale","Rating Scale",17,"object-80","BIQ",NA,"SUPAMT86355"
"6",1695944356221,"28/09/2023 23:39:16",1695919156221,-7,"28/09/2023 09:39:16",144339,5,"questionnaire-uu2n",NA,31928970,9442810,NA,"complete","xaoupi","3EFVCAY5L9833208Z9JZ1JDUC3G8J4","computer","Desktop or Laptop","Windows 8.1","Chrome 109.0.0.0","1366x768","914x563",NA,NA,0,"BIQ (Charlotte)",2,"In","DECFBGAHLIKJ",NA,"LH","In","Spreadsheet1",1,"BIQ","Screen 2","o21mwi",2,"continue","",3933,3906.25,3933,3933,3906.25,3933,1,3933,0,0,NA,"Click To Continue","Continue Button",22,"object-50","BIQ",NA,"SUPAMT86355"
"7",1695944356222,"28/09/2023 23:39:16",1695919156222,-7,"28/09/2023 09:39:16",144339,5,"questionnaire-uu2n",NA,31928970,9442810,NA,"complete","xaoupi","3EFVCAY5L9833208Z9JZ1JDUC3G8J4","computer","Desktop or Laptop","Windows 8.1","Chrome 109.0.0.0","1366x768","914x563",NA,NA,0,"BIQ (Charlotte)",2,"In","DECFBGAHLIKJ",NA,"LH","In","Spreadsheet1",1,"BIQ","Screen 2","o21mwi",2,"response","6",2125,3906.25,3935,2125,3906.25,3935,1,2125,1810,0,NA,"Rating Scale","Rating Scale",2,"object-259","BIQ",NA,"SUPAMT86355"
"8",1695944356222,"28/09/2023 23:39:16",1695919156222,-7,"28/09/2023 09:39:16",144339,5,"questionnaire-uu2n",NA,31928970,9442810,NA,"complete","xaoupi","3EFVCAY5L9833208Z9JZ1JDUC3G8J4","computer","Desktop or Laptop","Windows 8.1","Chrome 109.0.0.0","1366x768","914x563",NA,NA,0,"BIQ (Charlotte)",2,"In","DECFBGAHLIKJ",NA,"LH","In","Spreadsheet1",1,"BIQ","Screen 2","o21mwi",2,"response","4",2687.5,3906.25,3935,2687.5,3906.25,3935,1,2687.5,1247.5,0,NA,"Rating Scale","Rating Scale",9,"object-36","BIQ",NA,"SUPAMT86355"
"9",1695944356222,"28/09/2023 23:39:16",1695919156222,-7,"28/09/2023 09:39:16",144339,5,"questionnaire-uu2n",NA,31928970,9442810,NA,"complete","xaoupi","3EFVCAY5L9833208Z9JZ1JDUC3G8J4","computer","Desktop or Laptop","Windows 8.1","Chrome 109.0.0.0","1366x768","914x563",NA,NA,0,"BIQ (Charlotte)",2,"In","DECFBGAHLIKJ",NA,"LH","In","Spreadsheet1",1,"BIQ","Screen 2","o21mwi",2,"response","6",3437.5,3906.25,3935,3437.5,3906.25,3935,1,3437.5,497.5,0,NA,"Rating Scale","Rating Scale",16,"object-86","BIQ",NA,"SUPAMT86355"
"10",1695944359940,"28/09/2023 23:39:19",1695919159940,-7,"28/09/2023 09:39:19",144339,5,"questionnaire-uu2n",NA,31928970,9442810,NA,"complete","xaoupi","3EFVCAY5L9833208Z9JZ1JDUC3G8J4","computer","Desktop or Laptop","Windows 8.1","Chrome 109.0.0.0","1366x768","914x563",NA,NA,0,"BIQ (Charlotte)",2,"In","DECFBGAHLIKJ",NA,"LH","In","Spreadsheet1",1,"BIQ","Screen 3","iz3the",3,"continue","",3746.75,3718.75,3746.75,3746.75,3718.75,3746.75,1,3746.75,0,0,NA,"Click To Continue","Continue Button",22,"object-73","BIQ",NA,"SUPAMT86355"
"11",1695944359941,"28/09/2023 23:39:19",1695919159941,-7,"28/09/2023 09:39:19",144339,5,"questionnaire-uu2n",NA,31928970,9442810,NA,"complete","xaoupi","3EFVCAY5L9833208Z9JZ1JDUC3G8J4","computer","Desktop or Laptop","Windows 8.1","Chrome 109.0.0.0","1366x768","914x563",NA,NA,0,"BIQ (Charlotte)",2,"In","DECFBGAHLIKJ",NA,"LH","In","Spreadsheet1",1,"BIQ","Screen 3","iz3the",3,"response","6",1937.5,3718.75,3747.75,1937.5,3718.75,3747.75,1,1937.5,1810.25,0,NA,"Rating Scale","Rating Scale",2,"object-53","BIQ",NA,"SUPAMT86355"
"12",1695944359941,"28/09/2023 23:39:19",1695919159941,-7,"28/09/2023 09:39:19",144339,5,"questionnaire-uu2n",NA,31928970,9442810,NA,"complete","xaoupi","3EFVCAY5L9833208Z9JZ1JDUC3G8J4","computer","Desktop or Laptop","Windows 8.1","Chrome 109.0.0.0","1366x768","914x563",NA,NA,0,"BIQ (Charlotte)",2,"In","DECFBGAHLIKJ",NA,"LH","In","Spreadsheet1",1,"BIQ","Screen 3","iz3the",3,"response","4",2437.5,3718.75,3747.75,2437.5,3718.75,3747.75,1,2437.5,1310.25,0,NA,"Rating Scale","Rating Scale",9,"object-60","BIQ",NA,"SUPAMT86355"
"13",1695944359942,"28/09/2023 23:39:19",1695919159942,-7,"28/09/2023 09:39:19",144339,5,"questionnaire-uu2n",NA,31928970,9442810,NA,"complete","xaoupi","3EFVCAY5L9833208Z9JZ1JDUC3G8J4","computer","Desktop or Laptop","Windows 8.1","Chrome 109.0.0.0","1366x768","914x563",NA,NA,0,"BIQ (Charlotte)",2,"In","DECFBGAHLIKJ",NA,"LH","In","Spreadsheet1",1,"BIQ","Screen 3","iz3the",3,"response","6",2906.25,3718.75,3748.75,2906.25,3718.75,3748.75,1,2906.25,842.5,0,NA,"Rating Scale","Rating Scale",16,"object-67","BIQ",NA,"SUPAMT86355"
"14",1695944359947,"28/09/2023 23:39:19",1695919159947,-7,"28/09/2023 09:39:19",144339,5,"questionnaire-uu2n",NA,31928970,9442810,NA,"complete","xaoupi","3EFVCAY5L9833208Z9JZ1JDUC3G8J4","computer","Desktop or Laptop","Windows 8.1","Chrome 109.0.0.0","1366x768","914x563",NA,NA,0,"BIQ (Charlotte)",2,"In","DECFBGAHLIKJ",NA,"LH","In","Spreadsheet1",NA,"","","",NA,"5","END",NA,NA,NA,NA,NA,NA,0,NA,NA,NA,NA,"","",NA,"","",NA,"SUPAMT86355"
"1",1695932663951,"28/09/2023 20:24:23",1695918263951,-4,"28/09/2023 12:24:23",144339,5,"questionnaire-uu2n",NA,31928566,9442823,NA,"complete","tqgdxz","33PPO7FEC1EJPMCTYZ9FBACVAFODI3","computer","Desktop or Laptop","Windows 10","Chrome 116.0.0.0","1280x1024","1280x907",NA,NA,0,"BIQ (Charlotte)",2,"In","HIGJFKELDACB",NA,"HL","In","Spreadsheet1",NA,"","","",NA,"5","BEGIN",NA,NA,NA,NA,NA,NA,0,NA,NA,NA,NA,"","",NA,"","",NA,"SUPAMT08258"
"2",1695932669157,"28/09/2023 20:24:29",1695918269157,-4,"28/09/2023 12:24:29",144339,5,"questionnaire-uu2n",NA,31928566,9442823,NA,"complete","tqgdxz","33PPO7FEC1EJPMCTYZ9FBACVAFODI3","computer","Desktop or Laptop","Windows 10","Chrome 116.0.0.0","1280x1024","1280x907",NA,NA,0,"BIQ (Charlotte)",2,"In","HIGJFKELDACB",NA,"HL","In","Spreadsheet1",1,"BIQ","Screen 1","9dh6eq",1,"continue","",5230.04600009537,5218.123,5230.04600009537,5230.04600009537,5218.123,5230.04600009537,1,5230.04600009537,0,0,NA,"Click To Continue","Continue Button",23,"object-48","BIQ",NA,"SUPAMT08258"
"3",1695932669157,"28/09/2023 20:24:29",1695918269157,-4,"28/09/2023 12:24:29",144339,5,"questionnaire-uu2n",NA,31928566,9442823,NA,"complete","tqgdxz","33PPO7FEC1EJPMCTYZ9FBACVAFODI3","computer","Desktop or Laptop","Windows 10","Chrome 116.0.0.0","1280x1024","1280x907",NA,NA,0,"BIQ (Charlotte)",2,"In","HIGJFKELDACB",NA,"HL","In","Spreadsheet1",1,"BIQ","Screen 1","9dh6eq",1,"response","5",1745.758,5218.123,5231.74600014305,1745.758,5218.123,5231.74600014305,1,1745.758,3485.98800014305,0,NA,"Rating Scale","Rating Scale",3,"object-5","BIQ",NA,"SUPAMT08258"
"4",1695932669158,"28/09/2023 20:24:29",1695918269158,-4,"28/09/2023 12:24:29",144339,5,"questionnaire-uu2n",NA,31928566,9442823,NA,"complete","tqgdxz","33PPO7FEC1EJPMCTYZ9FBACVAFODI3","computer","Desktop or Laptop","Windows 10","Chrome 116.0.0.0","1280x1024","1280x907",NA,NA,0,"BIQ (Charlotte)",2,"In","HIGJFKELDACB",NA,"HL","In","Spreadsheet1",1,"BIQ","Screen 1","9dh6eq",1,"response","4",2327.401,5218.123,5232.04600009537,2327.401,5218.123,5232.04600009537,1,2327.401,2904.64500009537,0,NA,"Rating Scale","Rating Scale",10,"object-18","BIQ",NA,"SUPAMT08258"
"5",1695932669158,"28/09/2023 20:24:29",1695918269158,-4,"28/09/2023 12:24:29",144339,5,"questionnaire-uu2n",NA,31928566,9442823,NA,"complete","tqgdxz","33PPO7FEC1EJPMCTYZ9FBACVAFODI3","computer","Desktop or Laptop","Windows 10","Chrome 116.0.0.0","1280x1024","1280x907",NA,NA,0,"BIQ (Charlotte)",2,"In","HIGJFKELDACB",NA,"HL","In","Spreadsheet1",1,"BIQ","Screen 1","9dh6eq",1,"response","5",2956.875,5218.123,5232.44600019074,2956.875,5218.123,5232.44600019074,1,2956.875,2275.57100019074,0,NA,"Rating Scale","Rating Scale",17,"object-80","BIQ",NA,"SUPAMT08258"
"6",1695932673154,"28/09/2023 20:24:33",1695918273154,-4,"28/09/2023 12:24:33",144339,5,"questionnaire-uu2n",NA,31928566,9442823,NA,"complete","tqgdxz","33PPO7FEC1EJPMCTYZ9FBACVAFODI3","computer","Desktop or Laptop","Windows 10","Chrome 116.0.0.0","1280x1024","1280x907",NA,NA,0,"BIQ (Charlotte)",2,"In","HIGJFKELDACB",NA,"HL","In","Spreadsheet1",1,"BIQ","Screen 2","o21mwi",2,"continue","",4010.523,3998.75,4010.523,4010.523,3998.75,4010.523,1,4010.523,0,0,NA,"Click To Continue","Continue Button",22,"object-50","BIQ",NA,"SUPAMT08258"
"7",1695932673155,"28/09/2023 20:24:33",1695918273155,-4,"28/09/2023 12:24:33",144339,5,"questionnaire-uu2n",NA,31928566,9442823,NA,"complete","tqgdxz","33PPO7FEC1EJPMCTYZ9FBACVAFODI3","computer","Desktop or Laptop","Windows 10","Chrome 116.0.0.0","1280x1024","1280x907",NA,NA,0,"BIQ (Charlotte)",2,"In","HIGJFKELDACB",NA,"HL","In","Spreadsheet1",1,"BIQ","Screen 2","o21mwi",2,"response","5",1778.745,3998.75,4011.12300014305,1778.745,3998.75,4011.12300014305,1,1778.745,2232.37800014305,0,NA,"Rating Scale","Rating Scale",2,"object-259","BIQ",NA,"SUPAMT08258"
"8",1695932673155,"28/09/2023 20:24:33",1695918273155,-4,"28/09/2023 12:24:33",144339,5,"questionnaire-uu2n",NA,31928566,9442823,NA,"complete","tqgdxz","33PPO7FEC1EJPMCTYZ9FBACVAFODI3","computer","Desktop or Laptop","Windows 10","Chrome 116.0.0.0","1280x1024","1280x907",NA,NA,0,"BIQ (Charlotte)",2,"In","HIGJFKELDACB",NA,"HL","In","Spreadsheet1",1,"BIQ","Screen 2","o21mwi",2,"response","4",2437.125,3998.75,4011.523,2437.125,3998.75,4011.523,1,2437.125,1574.398,0,NA,"Rating Scale","Rating Scale",9,"object-36","BIQ",NA,"SUPAMT08258"
"9",1695932673156,"28/09/2023 20:24:33",1695918273156,-4,"28/09/2023 12:24:33",144339,5,"questionnaire-uu2n",NA,31928566,9442823,NA,"complete","tqgdxz","33PPO7FEC1EJPMCTYZ9FBACVAFODI3","computer","Desktop or Laptop","Windows 10","Chrome 116.0.0.0","1280x1024","1280x907",NA,NA,0,"BIQ (Charlotte)",2,"In","HIGJFKELDACB",NA,"HL","In","Spreadsheet1",1,"BIQ","Screen 2","o21mwi",2,"response","4",3387.772,3998.75,4012.023,3387.772,3998.75,4012.023,1,3387.772,624.251,0,NA,"Rating Scale","Rating Scale",16,"object-86","BIQ",NA,"SUPAMT08258"
"10",1695932676723,"28/09/2023 20:24:36",1695918276723,-4,"28/09/2023 12:24:36",144339,5,"questionnaire-uu2n",NA,31928566,9442823,NA,"complete","tqgdxz","33PPO7FEC1EJPMCTYZ9FBACVAFODI3","computer","Desktop or Laptop","Windows 10","Chrome 116.0.0.0","1280x1024","1280x907",NA,NA,0,"BIQ (Charlotte)",2,"In","HIGJFKELDACB",NA,"HL","In","Spreadsheet1",1,"BIQ","Screen 3","iz3the",3,"continue","",3580.47300004768,3568.051,3580.47300004768,3580.47300004768,3568.051,3580.47300004768,1,3580.47300004768,0,0,NA,"Click To Continue","Continue Button",22,"object-73","BIQ",NA,"SUPAMT08258"
"11",1695932676729,"28/09/2023 20:24:36",1695918276729,-4,"28/09/2023 12:24:36",144339,5,"questionnaire-uu2n",NA,31928566,9442823,NA,"complete","tqgdxz","33PPO7FEC1EJPMCTYZ9FBACVAFODI3","computer","Desktop or Laptop","Windows 10","Chrome 116.0.0.0","1280x1024","1280x907",NA,NA,0,"BIQ (Charlotte)",2,"In","HIGJFKELDACB",NA,"HL","In","Spreadsheet1",1,"BIQ","Screen 3","iz3the",3,"response","5",1516.204,3568.051,3584.717,1516.204,3568.051,3584.717,1,1516.204,2068.513,0,NA,"Rating Scale","Rating Scale",2,"object-53","BIQ",NA,"SUPAMT08258"
"12",1695932676730,"28/09/2023 20:24:36",1695918276730,-4,"28/09/2023 12:24:36",144339,5,"questionnaire-uu2n",NA,31928566,9442823,NA,"complete","tqgdxz","33PPO7FEC1EJPMCTYZ9FBACVAFODI3","computer","Desktop or Laptop","Windows 10","Chrome 116.0.0.0","1280x1024","1280x907",NA,NA,0,"BIQ (Charlotte)",2,"In","HIGJFKELDACB",NA,"HL","In","Spreadsheet1",1,"BIQ","Screen 3","iz3the",3,"response","4",2104.855,3568.051,3584.717,2104.855,3568.051,3584.717,1,2104.855,1479.862,0,NA,"Rating Scale","Rating Scale",9,"object-60","BIQ",NA,"SUPAMT08258"
"13",1695932676731,"28/09/2023 20:24:36",1695918276731,-4,"28/09/2023 12:24:36",144339,5,"questionnaire-uu2n",NA,31928566,9442823,NA,"complete","tqgdxz","33PPO7FEC1EJPMCTYZ9FBACVAFODI3","computer","Desktop or Laptop","Windows 10","Chrome 116.0.0.0","1280x1024","1280x907",NA,NA,0,"BIQ (Charlotte)",2,"In","HIGJFKELDACB",NA,"HL","In","Spreadsheet1",1,"BIQ","Screen 3","iz3the",3,"response","4",2696.029,3568.051,3584.717,2696.029,3568.051,3584.717,1,2696.029,888.688000000002,0,NA,"Rating Scale","Rating Scale",16,"object-67","BIQ",NA,"SUPAMT08258"
"14",1695932676733,"28/09/2023 20:24:36",1695918276733,-4,"28/09/2023 12:24:36",144339,5,"questionnaire-uu2n",NA,31928566,9442823,NA,"complete","tqgdxz","33PPO7FEC1EJPMCTYZ9FBACVAFODI3","computer","Desktop or Laptop","Windows 10","Chrome 116.0.0.0","1280x1024","1280x907",NA,NA,0,"BIQ (Charlotte)",2,"In","HIGJFKELDACB",NA,"HL","In","Spreadsheet1",NA,"","","",NA,"5","END",NA,NA,NA,NA,NA,NA,0,NA,NA,NA,NA,"","",NA,"","",NA,"SUPAMT08258"
"1",1695933011595,"28/09/2023 20:30:11",1695918611595,-4,"28/09/2023 12:30:11",144339,5,"questionnaire-uu2n",NA,31928719,9442813,NA,"complete","kkaoze","3O6CYIULEJ0N7J7K9B3JM1PRBQGUW0","computer","Desktop or Laptop","Windows 10","Chrome 115.0.0.0","1280x1024","1280x875",NA,NA,0,"BIQ (Charlotte)",2,"In","BCADLEKFJGIH",NA,"LH","In","Spreadsheet1",NA,"","","",NA,"5","BEGIN",NA,NA,NA,NA,NA,NA,0,NA,NA,NA,NA,"","",NA,"","",NA,"SUPAMT40282"
"2",1695933024524,"28/09/2023 20:30:24",1695918624524,-4,"28/09/2023 12:30:24",144339,5,"questionnaire-uu2n",NA,31928719,9442813,NA,"complete","kkaoze","3O6CYIULEJ0N7J7K9B3JM1PRBQGUW0","computer","Desktop or Laptop","Windows 10","Chrome 115.0.0.0","1280x1024","1280x875",NA,NA,0,"BIQ (Charlotte)",2,"In","BCADLEKFJGIH",NA,"LH","In","Spreadsheet1",1,"BIQ","Screen 1","9dh6eq",1,"continue","",12929.921,12913.255,12929.921,12929.921,12913.255,12929.921,1,12929.921,0,0,NA,"Click To Continue","Continue Button",23,"object-48","BIQ",NA,"SUPAMT40282"
"3",1695933024527,"28/09/2023 20:30:24",1695918624527,-4,"28/09/2023 12:30:24",144339,5,"questionnaire-uu2n",NA,31928719,9442813,NA,"complete","kkaoze","3O6CYIULEJ0N7J7K9B3JM1PRBQGUW0","computer","Desktop or Laptop","Windows 10","Chrome 115.0.0.0","1280x1024","1280x875",NA,NA,0,"BIQ (Charlotte)",2,"In","BCADLEKFJGIH",NA,"LH","In","Spreadsheet1",1,"BIQ","Screen 1","9dh6eq",1,"response","8",3575.898,12913.255,12929.921,3575.898,12913.255,12929.921,1,3575.898,9354.023,0,NA,"Rating Scale","Rating Scale",3,"object-5","BIQ",NA,"SUPAMT40282"
"4",1695933024527,"28/09/2023 20:30:24",1695918624527,-4,"28/09/2023 12:30:24",144339,5,"questionnaire-uu2n",NA,31928719,9442813,NA,"complete","kkaoze","3O6CYIULEJ0N7J7K9B3JM1PRBQGUW0","computer","Desktop or Laptop","Windows 10","Chrome 115.0.0.0","1280x1024","1280x875",NA,NA,0,"BIQ (Charlotte)",2,"In","BCADLEKFJGIH",NA,"LH","In","Spreadsheet1",1,"BIQ","Screen 1","9dh6eq",1,"response","7",6343.184,12913.255,12929.921,6343.184,12913.255,12929.921,1,6343.184,6586.737,0,NA,"Rating Scale","Rating Scale",10,"object-18","BIQ",NA,"SUPAMT40282"
"5",1695933024528,"28/09/2023 20:30:24",1695918624528,-4,"28/09/2023 12:30:24",144339,5,"questionnaire-uu2n",NA,31928719,9442813,NA,"complete","kkaoze","3O6CYIULEJ0N7J7K9B3JM1PRBQGUW0","computer","Desktop or Laptop","Windows 10","Chrome 115.0.0.0","1280x1024","1280x875",NA,NA,0,"BIQ (Charlotte)",2,"In","BCADLEKFJGIH",NA,"LH","In","Spreadsheet1",1,"BIQ","Screen 1","9dh6eq",1,"response","8",7527.628,12913.255,12929.921,7527.628,12913.255,12929.921,1,7527.628,5402.293,0,NA,"Rating Scale","Rating Scale",17,"object-80","BIQ",NA,"SUPAMT40282"
"6",1695933036017,"28/09/2023 20:30:36",1695918636017,-4,"28/09/2023 12:30:36",144339,5,"questionnaire-uu2n",NA,31928719,9442813,NA,"complete","kkaoze","3O6CYIULEJ0N7J7K9B3JM1PRBQGUW0","computer","Desktop or Laptop","Windows 10","Chrome 115.0.0.0","1280x1024","1280x875",NA,NA,0,"BIQ (Charlotte)",2,"In","BCADLEKFJGIH",NA,"LH","In","Spreadsheet1",1,"BIQ","Screen 2","o21mwi",2,"continue","",11520.5980000954,11507.331,11520.5980000954,11520.5980000954,11507.331,11520.5980000954,1,11520.5980000954,0,0,NA,"Click To Continue","Continue Button",22,"object-50","BIQ",NA,"SUPAMT40282"
"7",1695933036020,"28/09/2023 20:30:36",1695918636020,-4,"28/09/2023 12:30:36",144339,5,"questionnaire-uu2n",NA,31928719,9442813,NA,"complete","kkaoze","3O6CYIULEJ0N7J7K9B3JM1PRBQGUW0","computer","Desktop or Laptop","Windows 10","Chrome 115.0.0.0","1280x1024","1280x875",NA,NA,0,"BIQ (Charlotte)",2,"In","BCADLEKFJGIH",NA,"LH","In","Spreadsheet1",1,"BIQ","Screen 2","o21mwi",2,"response","8",2432.941,11507.331,11523.198,2432.941,11507.331,11523.198,1,2432.941,9090.257,0,NA,"Rating Scale","Rating Scale",2,"object-259","BIQ",NA,"SUPAMT40282"
"8",1695933036020,"28/09/2023 20:30:36",1695918636020,-4,"28/09/2023 12:30:36",144339,5,"questionnaire-uu2n",NA,31928719,9442813,NA,"complete","kkaoze","3O6CYIULEJ0N7J7K9B3JM1PRBQGUW0","computer","Desktop or Laptop","Windows 10","Chrome 115.0.0.0","1280x1024","1280x875",NA,NA,0,"BIQ (Charlotte)",2,"In","BCADLEKFJGIH",NA,"LH","In","Spreadsheet1",1,"BIQ","Screen 2","o21mwi",2,"response","7",3687.104,11507.331,11523.7979999046,3687.104,11507.331,11523.7979999046,1,3687.104,7836.69399990463,0,NA,"Rating Scale","Rating Scale",9,"object-36","BIQ",NA,"SUPAMT40282"
"9",1695933036021,"28/09/2023 20:30:36",1695918636021,-4,"28/09/2023 12:30:36",144339,5,"questionnaire-uu2n",NA,31928719,9442813,NA,"complete","kkaoze","3O6CYIULEJ0N7J7K9B3JM1PRBQGUW0","computer","Desktop or Laptop","Windows 10","Chrome 115.0.0.0","1280x1024","1280x875",NA,NA,0,"BIQ (Charlotte)",2,"In","BCADLEKFJGIH",NA,"LH","In","Spreadsheet1",1,"BIQ","Screen 2","o21mwi",2,"response","8",6597.321,11507.331,11523.997,6597.321,11507.331,11523.997,1,6597.321,4926.676,0,NA,"Rating Scale","Rating Scale",16,"object-86","BIQ",NA,"SUPAMT40282"
"10",1695933044553,"28/09/2023 20:30:44",1695918644553,-4,"28/09/2023 12:30:44",144339,5,"questionnaire-uu2n",NA,31928719,9442813,NA,"complete","kkaoze","3O6CYIULEJ0N7J7K9B3JM1PRBQGUW0","computer","Desktop or Laptop","Windows 10","Chrome 115.0.0.0","1280x1024","1280x875",NA,NA,0,"BIQ (Charlotte)",2,"In","BCADLEKFJGIH",NA,"LH","In","Spreadsheet1",1,"BIQ","Screen 3","iz3the",3,"continue","",8548.867,8544.235,8548.867,8548.867,8544.235,8548.867,1,8548.867,0,0,NA,"Click To Continue","Continue Button",22,"object-73","BIQ",NA,"SUPAMT40282"
"11",1695933044553,"28/09/2023 20:30:44",1695918644553,-4,"28/09/2023 12:30:44",144339,5,"questionnaire-uu2n",NA,31928719,9442813,NA,"complete","kkaoze","3O6CYIULEJ0N7J7K9B3JM1PRBQGUW0","computer","Desktop or Laptop","Windows 10","Chrome 115.0.0.0","1280x1024","1280x875",NA,NA,0,"BIQ (Charlotte)",2,"In","BCADLEKFJGIH",NA,"LH","In","Spreadsheet1",1,"BIQ","Screen 3","iz3the",3,"response","8",4209.187,8544.235,8549.76700009537,4209.187,8544.235,8549.76700009537,1,4209.187,4340.58000009537,0,NA,"Rating Scale","Rating Scale",2,"object-53","BIQ",NA,"SUPAMT40282"
"12",1695933044554,"28/09/2023 20:30:44",1695918644554,-4,"28/09/2023 12:30:44",144339,5,"questionnaire-uu2n",NA,31928719,9442813,NA,"complete","kkaoze","3O6CYIULEJ0N7J7K9B3JM1PRBQGUW0","computer","Desktop or Laptop","Windows 10","Chrome 115.0.0.0","1280x1024","1280x875",NA,NA,0,"BIQ (Charlotte)",2,"In","BCADLEKFJGIH",NA,"LH","In","Spreadsheet1",1,"BIQ","Screen 3","iz3the",3,"response","7",4764.326,8544.235,8550.16700019073,4764.326,8544.235,8550.16700019073,1,4764.326,3785.84100019073,0,NA,"Rating Scale","Rating Scale",9,"object-60","BIQ",NA,"SUPAMT40282"
"13",1695933044554,"28/09/2023 20:30:44",1695918644554,-4,"28/09/2023 12:30:44",144339,5,"questionnaire-uu2n",NA,31928719,9442813,NA,"complete","kkaoze","3O6CYIULEJ0N7J7K9B3JM1PRBQGUW0","computer","Desktop or Laptop","Windows 10","Chrome 115.0.0.0","1280x1024","1280x875",NA,NA,0,"BIQ (Charlotte)",2,"In","BCADLEKFJGIH",NA,"LH","In","Spreadsheet1",1,"BIQ","Screen 3","iz3the",3,"response","8",5548.367,8544.235,8550.66700019073,5548.367,8544.235,8550.66700019073,1,5548.367,3002.30000019073,0,NA,"Rating Scale","Rating Scale",16,"object-67","BIQ",NA,"SUPAMT40282"
"14",1695933044559,"28/09/2023 20:30:44",1695918644559,-4,"28/09/2023 12:30:44",144339,5,"questionnaire-uu2n",NA,31928719,9442813,NA,"complete","kkaoze","3O6CYIULEJ0N7J7K9B3JM1PRBQGUW0","computer","Desktop or Laptop","Windows 10","Chrome 115.0.0.0","1280x1024","1280x875",NA,NA,0,"BIQ (Charlotte)",2,"In","BCADLEKFJGIH",NA,"LH","In","Spreadsheet1",NA,"","","",NA,"5","END",NA,NA,NA,NA,NA,NA,0,NA,NA,NA,NA,"","",NA,"","",NA,"SUPAMT40282"
"1",1695933145415,"28/09/2023 20:32:25",1695918745415,-4,"28/09/2023 12:32:25",144339,5,"questionnaire-uu2n",NA,31928772,9442812,NA,"complete","fbdsgd","3LOTDFNYADYYO1AUEM8K01OO132FWN","computer","Desktop or Laptop","Windows 10","Chrome 117.0.0.0","1366x768","1366x619",NA,NA,0,"BIQ (Charlotte)",2,"In","CDBEAFLGKHJI",NA,"HL","In","Spreadsheet1",NA,"","","",NA,"5","BEGIN",NA,NA,NA,NA,NA,NA,0,NA,NA,NA,NA,"","",NA,"","",NA,"SUPAMT41237"
"2",1695933216564,"28/09/2023 20:33:36",1695918816564,-4,"28/09/2023 12:33:36",144339,5,"questionnaire-uu2n",NA,31928772,9442812,NA,"complete","fbdsgd","3LOTDFNYADYYO1AUEM8K01OO132FWN","computer","Desktop or Laptop","Windows 10","Chrome 117.0.0.0","1366x768","1366x619",NA,NA,0,"BIQ (Charlotte)",2,"In","CDBEAFLGKHJI",NA,"HL","In","Spreadsheet1",1,"BIQ","Screen 1","9dh6eq",1,"continue","",75862,75844.25,75862,75862,75844.25,75862,1,75862,0,0,NA,"Click To Continue","Continue Button",23,"object-48","BIQ",NA,"SUPAMT41237"
"3",1695933216567,"28/09/2023 20:33:36",1695918816567,-4,"28/09/2023 12:33:36",144339,5,"questionnaire-uu2n",NA,31928772,9442812,NA,"complete","fbdsgd","3LOTDFNYADYYO1AUEM8K01OO132FWN","computer","Desktop or Laptop","Windows 10","Chrome 117.0.0.0","1366x768","1366x619",NA,NA,0,"BIQ (Charlotte)",2,"In","CDBEAFLGKHJI",NA,"HL","In","Spreadsheet1",1,"BIQ","Screen 1","9dh6eq",1,"response","6",36188,75844.25,75868,36188,75844.25,75868,1,36188,39680,0,NA,"Rating Scale","Rating Scale",3,"object-5","BIQ",NA,"SUPAMT41237"
"4",1695933216567,"28/09/2023 20:33:36",1695918816567,-4,"28/09/2023 12:33:36",144339,5,"questionnaire-uu2n",NA,31928772,9442812,NA,"complete","fbdsgd","3LOTDFNYADYYO1AUEM8K01OO132FWN","computer","Desktop or Laptop","Windows 10","Chrome 117.0.0.0","1366x768","1366x619",NA,NA,0,"BIQ (Charlotte)",2,"In","CDBEAFLGKHJI",NA,"HL","In","Spreadsheet1",1,"BIQ","Screen 1","9dh6eq",1,"response","8",37000.5,75844.25,75869,37000.5,75844.25,75869,1,37000.5,38868.5,0,NA,"Rating Scale","Rating Scale",10,"object-18","BIQ",NA,"SUPAMT41237"
"5",1695933216568,"28/09/2023 20:33:36",1695918816568,-4,"28/09/2023 12:33:36",144339,5,"questionnaire-uu2n",NA,31928772,9442812,NA,"complete","fbdsgd","3LOTDFNYADYYO1AUEM8K01OO132FWN","computer","Desktop or Laptop","Windows 10","Chrome 117.0.0.0","1366x768","1366x619",NA,NA,0,"BIQ (Charlotte)",2,"In","CDBEAFLGKHJI",NA,"HL","In","Spreadsheet1",1,"BIQ","Screen 1","9dh6eq",1,"response","0",54781.75,75844.25,75870,54781.75,75844.25,75870,1,54781.75,21088.25,0,NA,"Rating Scale","Rating Scale",17,"object-80","BIQ",NA,"SUPAMT41237"
"6",1695933223586,"28/09/2023 20:33:43",1695918823586,-4,"28/09/2023 12:33:43",144339,5,"questionnaire-uu2n",NA,31928772,9442812,NA,"complete","fbdsgd","3LOTDFNYADYYO1AUEM8K01OO132FWN","computer","Desktop or Laptop","Windows 10","Chrome 117.0.0.0","1366x768","1366x619",NA,NA,0,"BIQ (Charlotte)",2,"In","CDBEAFLGKHJI",NA,"HL","In","Spreadsheet1",1,"BIQ","Screen 2","o21mwi",2,"continue","",7042.75,7031.25,7042.75,7042.75,7031.25,7042.75,1,7042.75,0,0,NA,"Click To Continue","Continue Button",22,"object-50","BIQ",NA,"SUPAMT41237"
"7",1695933223586,"28/09/2023 20:33:43",1695918823586,-4,"28/09/2023 12:33:43",144339,5,"questionnaire-uu2n",NA,31928772,9442812,NA,"complete","fbdsgd","3LOTDFNYADYYO1AUEM8K01OO132FWN","computer","Desktop or Laptop","Windows 10","Chrome 117.0.0.0","1366x768","1366x619",NA,NA,0,"BIQ (Charlotte)",2,"In","CDBEAFLGKHJI",NA,"HL","In","Spreadsheet1",1,"BIQ","Screen 2","o21mwi",2,"response","8",4218.75,7031.25,7043.75,4218.75,7031.25,7043.75,1,4218.75,2825,0,NA,"Rating Scale","Rating Scale",2,"object-259","BIQ",NA,"SUPAMT41237"
"8",1695933223586,"28/09/2023 20:33:43",1695918823586,-4,"28/09/2023 12:33:43",144339,5,"questionnaire-uu2n",NA,31928772,9442812,NA,"complete","fbdsgd","3LOTDFNYADYYO1AUEM8K01OO132FWN","computer","Desktop or Laptop","Windows 10","Chrome 117.0.0.0","1366x768","1366x619",NA,NA,0,"BIQ (Charlotte)",2,"In","CDBEAFLGKHJI",NA,"HL","In","Spreadsheet1",1,"BIQ","Screen 2","o21mwi",2,"response","7",5375,7031.25,7043.75,5375,7031.25,7043.75,1,5375,1668.75,0,NA,"Rating Scale","Rating Scale",9,"object-36","BIQ",NA,"SUPAMT41237"
"9",1695933223587,"28/09/2023 20:33:43",1695918823587,-4,"28/09/2023 12:33:43",144339,5,"questionnaire-uu2n",NA,31928772,9442812,NA,"complete","fbdsgd","3LOTDFNYADYYO1AUEM8K01OO132FWN","computer","Desktop or Laptop","Windows 10","Chrome 117.0.0.0","1366x768","1366x619",NA,NA,0,"BIQ (Charlotte)",2,"In","CDBEAFLGKHJI",NA,"HL","In","Spreadsheet1",1,"BIQ","Screen 2","o21mwi",2,"response","6",6156.25,7031.25,7044.75,6156.25,7031.25,7044.75,1,6156.25,888.5,0,NA,"Rating Scale","Rating Scale",16,"object-86","BIQ",NA,"SUPAMT41237"
"10",1695933237382,"28/09/2023 20:33:57",1695918837382,-4,"28/09/2023 12:33:57",144339,5,"questionnaire-uu2n",NA,31928772,9442812,NA,"complete","fbdsgd","3LOTDFNYADYYO1AUEM8K01OO132FWN","computer","Desktop or Laptop","Windows 10","Chrome 117.0.0.0","1366x768","1366x619",NA,NA,0,"BIQ (Charlotte)",2,"In","CDBEAFLGKHJI",NA,"HL","In","Spreadsheet1",1,"BIQ","Screen 3","iz3the",3,"continue","",13809.5,13781.25,13809.5,13809.5,13781.25,13809.5,1,13809.5,0,0,NA,"Click To Continue","Continue Button",22,"object-73","BIQ",NA,"SUPAMT41237"
"11",1695933237386,"28/09/2023 20:33:57",1695918837386,-4,"28/09/2023 12:33:57",144339,5,"questionnaire-uu2n",NA,31928772,9442812,NA,"complete","fbdsgd","3LOTDFNYADYYO1AUEM8K01OO132FWN","computer","Desktop or Laptop","Windows 10","Chrome 117.0.0.0","1366x768","1366x619",NA,NA,0,"BIQ (Charlotte)",2,"In","CDBEAFLGKHJI",NA,"HL","In","Spreadsheet1",1,"BIQ","Screen 3","iz3the",3,"response","6",10937.5,13781.25,13812.5,10937.5,13781.25,13812.5,1,10937.5,2875,0,NA,"Rating Scale","Rating Scale",2,"object-53","BIQ",NA,"SUPAMT41237"
"12",1695933237387,"28/09/2023 20:33:57",1695918837387,-4,"28/09/2023 12:33:57",144339,5,"questionnaire-uu2n",NA,31928772,9442812,NA,"complete","fbdsgd","3LOTDFNYADYYO1AUEM8K01OO132FWN","computer","Desktop or Laptop","Windows 10","Chrome 117.0.0.0","1366x768","1366x619",NA,NA,0,"BIQ (Charlotte)",2,"In","CDBEAFLGKHJI",NA,"HL","In","Spreadsheet1",1,"BIQ","Screen 3","iz3the",3,"response","5",11656.25,13781.25,13812.5,11656.25,13781.25,13812.5,1,11656.25,2156.25,0,NA,"Rating Scale","Rating Scale",9,"object-60","BIQ",NA,"SUPAMT41237"
"13",1695933237388,"28/09/2023 20:33:57",1695918837388,-4,"28/09/2023 12:33:57",144339,5,"questionnaire-uu2n",NA,31928772,9442812,NA,"complete","fbdsgd","3LOTDFNYADYYO1AUEM8K01OO132FWN","computer","Desktop or Laptop","Windows 10","Chrome 117.0.0.0","1366x768","1366x619",NA,NA,0,"BIQ (Charlotte)",2,"In","CDBEAFLGKHJI",NA,"HL","In","Spreadsheet1",1,"BIQ","Screen 3","iz3the",3,"response","6",12312.5,13781.25,13812.5,12312.5,13781.25,13812.5,1,12312.5,1500,0,NA,"Rating Scale","Rating Scale",16,"object-67","BIQ",NA,"SUPAMT41237"
"14",1695933237392,"28/09/2023 20:33:57",1695918837392,-4,"28/09/2023 12:33:57",144339,5,"questionnaire-uu2n",NA,31928772,9442812,NA,"complete","fbdsgd","3LOTDFNYADYYO1AUEM8K01OO132FWN","computer","Desktop or Laptop","Windows 10","Chrome 117.0.0.0","1366x768","1366x619",NA,NA,0,"BIQ (Charlotte)",2,"In","CDBEAFLGKHJI",NA,"HL","In","Spreadsheet1",NA,"","","",NA,"5","END",NA,NA,NA,NA,NA,NA,0,NA,NA,NA,NA,"","",NA,"","",NA,"SUPAMT41237"
"1",1695944324572,"28/09/2023 23:38:44",1695919124572,-7,"28/09/2023 09:38:44",144339,5,"questionnaire-uu2n",NA,31928998,9442821,NA,"complete","xfkcrc","37M28K1J0WCHMQTNW73DXAJP2RGAJA","computer","Desktop or Laptop","Windows 10","Chrome 117.0.0.0","2048x1152","1638x802",NA,NA,0,"BIQ (Charlotte)",2,"In","JKILHAGBFCED",NA,"HL","In","Spreadsheet1",NA,"","","",NA,"5","BEGIN",NA,NA,NA,NA,NA,NA,0,NA,NA,NA,NA,"","",NA,"","",NA,"SUPAMT87014"
"2",1695944361390,"28/09/2023 23:39:21",1695919161390,-7,"28/09/2023 09:39:21",144339,5,"questionnaire-uu2n",NA,31928998,9442821,NA,"complete","xfkcrc","37M28K1J0WCHMQTNW73DXAJP2RGAJA","computer","Desktop or Laptop","Windows 10","Chrome 117.0.0.0","2048x1152","1638x802",NA,NA,0,"BIQ (Charlotte)",2,"In","JKILHAGBFCED",NA,"HL","In","Spreadsheet1",1,"BIQ","Screen 1","9dh6eq",1,"continue","",40820.9000000358,40816.084,40820.9000000358,40820.9000000358,40816.084,40820.9000000358,1,40820.9000000358,0,0,NA,"Click To Continue","Continue Button",23,"object-48","BIQ",NA,"SUPAMT87014"
"3",1695944361392,"28/09/2023 23:39:21",1695919161392,-7,"28/09/2023 09:39:21",144339,5,"questionnaire-uu2n",NA,31928998,9442821,NA,"complete","xfkcrc","37M28K1J0WCHMQTNW73DXAJP2RGAJA","computer","Desktop or Laptop","Windows 10","Chrome 117.0.0.0","2048x1152","1638x802",NA,NA,0,"BIQ (Charlotte)",2,"In","JKILHAGBFCED",NA,"HL","In","Spreadsheet1",1,"BIQ","Screen 1","9dh6eq",1,"response","6",16596.56,40816.084,40823.033,16596.56,40816.084,40823.033,1,16596.56,24226.473,0,NA,"Rating Scale","Rating Scale",3,"object-5","BIQ",NA,"SUPAMT87014"
"4",1695944361392,"28/09/2023 23:39:21",1695919161392,-7,"28/09/2023 09:39:21",144339,5,"questionnaire-uu2n",NA,31928998,9442821,NA,"complete","xfkcrc","37M28K1J0WCHMQTNW73DXAJP2RGAJA","computer","Desktop or Laptop","Windows 10","Chrome 117.0.0.0","2048x1152","1638x802",NA,NA,0,"BIQ (Charlotte)",2,"In","JKILHAGBFCED",NA,"HL","In","Spreadsheet1",1,"BIQ","Screen 1","9dh6eq",1,"response","7",22062.802,40816.084,40823.033,22062.802,40816.084,40823.033,1,22062.802,18760.231,0,NA,"Rating Scale","Rating Scale",10,"object-18","BIQ",NA,"SUPAMT87014"
"5",1695944361392,"28/09/2023 23:39:21",1695919161392,-7,"28/09/2023 09:39:21",144339,5,"questionnaire-uu2n",NA,31928998,9442821,NA,"complete","xfkcrc","37M28K1J0WCHMQTNW73DXAJP2RGAJA","computer","Desktop or Laptop","Windows 10","Chrome 117.0.0.0","2048x1152","1638x802",NA,NA,0,"BIQ (Charlotte)",2,"In","JKILHAGBFCED",NA,"HL","In","Spreadsheet1",1,"BIQ","Screen 1","9dh6eq",1,"response","1",28133.301,40816.084,40823.033,28133.301,40816.084,40823.033,1,28133.301,12689.732,0,NA,"Rating Scale","Rating Scale",17,"object-80","BIQ",NA,"SUPAMT87014"
"6",1695944379407,"28/09/2023 23:39:39",1695919179407,-7,"28/09/2023 09:39:39",144339,5,"questionnaire-uu2n",NA,31928998,9442821,NA,"complete","xfkcrc","37M28K1J0WCHMQTNW73DXAJP2RGAJA","computer","Desktop or Laptop","Windows 10","Chrome 117.0.0.0","2048x1152","1638x802",NA,NA,0,"BIQ (Charlotte)",2,"In","JKILHAGBFCED",NA,"HL","In","Spreadsheet1",1,"BIQ","Screen 2","o21mwi",2,"continue","",18024.8160000358,18024.01,18024.8160000358,18024.8160000358,18024.01,18024.8160000358,1,18024.8160000358,0,0,NA,"Click To Continue","Continue Button",22,"object-50","BIQ",NA,"SUPAMT87014"
"7",1695944379409,"28/09/2023 23:39:39",1695919179409,-7,"28/09/2023 09:39:39",144339,5,"questionnaire-uu2n",NA,31928998,9442821,NA,"complete","xfkcrc","37M28K1J0WCHMQTNW73DXAJP2RGAJA","computer","Desktop or Laptop","Windows 10","Chrome 117.0.0.0","2048x1152","1638x802",NA,NA,0,"BIQ (Charlotte)",2,"In","JKILHAGBFCED",NA,"HL","In","Spreadsheet1",1,"BIQ","Screen 2","o21mwi",2,"response","7",3771.50599999999,18024.01,18026.416,3771.50599999999,18024.01,18026.416,1,3771.50599999999,14254.91,0,NA,"Rating Scale","Rating Scale",2,"object-259","BIQ",NA,"SUPAMT87014"
"8",1695944379409,"28/09/2023 23:39:39",1695919179409,-7,"28/09/2023 09:39:39",144339,5,"questionnaire-uu2n",NA,31928998,9442821,NA,"complete","xfkcrc","37M28K1J0WCHMQTNW73DXAJP2RGAJA","computer","Desktop or Laptop","Windows 10","Chrome 117.0.0.0","2048x1152","1638x802",NA,NA,0,"BIQ (Charlotte)",2,"In","JKILHAGBFCED",NA,"HL","In","Spreadsheet1",1,"BIQ","Screen 2","o21mwi",2,"response","1",5619.05,18024.01,18026.6159999881,5619.05,18024.01,18026.6159999881,1,5619.05,12407.5659999881,0,NA,"Rating Scale","Rating Scale",9,"object-36","BIQ",NA,"SUPAMT87014"
"9",1695944379409,"28/09/2023 23:39:39",1695919179409,-7,"28/09/2023 09:39:39",144339,5,"questionnaire-uu2n",NA,31928998,9442821,NA,"complete","xfkcrc","37M28K1J0WCHMQTNW73DXAJP2RGAJA","computer","Desktop or Laptop","Windows 10","Chrome 117.0.0.0","2048x1152","1638x802",NA,NA,0,"BIQ (Charlotte)",2,"In","JKILHAGBFCED",NA,"HL","In","Spreadsheet1",1,"BIQ","Screen 2","o21mwi",2,"response","7",16794.614,18024.01,18026.8160000358,16794.614,18024.01,18026.8160000358,1,16794.614,1232.20200003577,0,NA,"Rating Scale","Rating Scale",16,"object-86","BIQ",NA,"SUPAMT87014"
"10",1695944389588,"28/09/2023 23:39:49",1695919189588,-7,"28/09/2023 09:39:49",144339,5,"questionnaire-uu2n",NA,31928998,9442821,NA,"complete","xfkcrc","37M28K1J0WCHMQTNW73DXAJP2RGAJA","computer","Desktop or Laptop","Windows 10","Chrome 117.0.0.0","2048x1152","1638x802",NA,NA,0,"BIQ (Charlotte)",2,"In","JKILHAGBFCED",NA,"HL","In","Spreadsheet1",1,"BIQ","Screen 3","iz3the",3,"continue","",10182.0060000238,10175.385,10182.0060000238,10182.0060000238,10175.385,10182.0060000238,1,10182.0060000238,0,0,NA,"Click To Continue","Continue Button",22,"object-73","BIQ",NA,"SUPAMT87014"
"11",1695944389590,"28/09/2023 23:39:49",1695919189590,-7,"28/09/2023 09:39:49",144339,5,"questionnaire-uu2n",NA,31928998,9442821,NA,"complete","xfkcrc","37M28K1J0WCHMQTNW73DXAJP2RGAJA","computer","Desktop or Laptop","Windows 10","Chrome 117.0.0.0","2048x1152","1638x802",NA,NA,0,"BIQ (Charlotte)",2,"In","JKILHAGBFCED",NA,"HL","In","Spreadsheet1",1,"BIQ","Screen 3","iz3the",3,"response","0",3764.543,10175.385,10182.332,3764.543,10175.385,10182.332,1,3764.543,6417.789,0,NA,"Rating Scale","Rating Scale",2,"object-53","BIQ",NA,"SUPAMT87014"
"12",1695944389590,"28/09/2023 23:39:49",1695919189590,-7,"28/09/2023 09:39:49",144339,5,"questionnaire-uu2n",NA,31928998,9442821,NA,"complete","xfkcrc","37M28K1J0WCHMQTNW73DXAJP2RGAJA","computer","Desktop or Laptop","Windows 10","Chrome 117.0.0.0","2048x1152","1638x802",NA,NA,0,"BIQ (Charlotte)",2,"In","JKILHAGBFCED",NA,"HL","In","Spreadsheet1",1,"BIQ","Screen 3","iz3the",3,"response","1",6952.603,10175.385,10182.332,6952.603,10175.385,10182.332,1,6952.603,3229.72900000001,0,NA,"Rating Scale","Rating Scale",9,"object-60","BIQ",NA,"SUPAMT87014"
"13",1695944389590,"28/09/2023 23:39:49",1695919189590,-7,"28/09/2023 09:39:49",144339,5,"questionnaire-uu2n",NA,31928998,9442821,NA,"complete","xfkcrc","37M28K1J0WCHMQTNW73DXAJP2RGAJA","computer","Desktop or Laptop","Windows 10","Chrome 117.0.0.0","2048x1152","1638x802",NA,NA,0,"BIQ (Charlotte)",2,"In","JKILHAGBFCED",NA,"HL","In","Spreadsheet1",1,"BIQ","Screen 3","iz3the",3,"response","1",9293.284,10175.385,10182.332,9293.284,10175.385,10182.332,1,9293.284,889.04800000001,0,NA,"Rating Scale","Rating Scale",16,"object-67","BIQ",NA,"SUPAMT87014"
"14",1695944389593,"28/09/2023 23:39:49",1695919189593,-7,"28/09/2023 09:39:49",144339,5,"questionnaire-uu2n",NA,31928998,9442821,NA,"complete","xfkcrc","37M28K1J0WCHMQTNW73DXAJP2RGAJA","computer","Desktop or Laptop","Windows 10","Chrome 117.0.0.0","2048x1152","1638x802",NA,NA,0,"BIQ (Charlotte)",2,"In","JKILHAGBFCED",NA,"HL","In","Spreadsheet1",NA,"","","",NA,"5","END",NA,NA,NA,NA,NA,NA,0,NA,NA,NA,NA,"","",NA,"","",NA,"SUPAMT87014"
"1",1695944496632,"28/09/2023 23:41:36",1695919296632,-7,"28/09/2023 09:41:36",144339,5,"questionnaire-uu2n",NA,31929086,9442815,NA,"complete","uhjmax","3VE8AYVF8SWNY0ECGJSEMLL2JWZF88","computer","Desktop or Laptop","Windows 10","Chrome 117.0.0.0","1920x1080","1920x931",NA,NA,0,"BIQ (Charlotte)",2,"In","BCADLEKFJGIH",NA,"HL","In","Spreadsheet1",NA,"","","",NA,"5","BEGIN",NA,NA,NA,NA,NA,NA,0,NA,NA,NA,NA,"","",NA,"","",NA,"SUPAMT14988"
"2",1695944526824,"28/09/2023 23:42:06",1695919326824,-7,"28/09/2023 09:42:06",144339,5,"questionnaire-uu2n",NA,31929086,9442815,NA,"complete","uhjmax","3VE8AYVF8SWNY0ECGJSEMLL2JWZF88","computer","Desktop or Laptop","Windows 10","Chrome 117.0.0.0","1920x1080","1920x931",NA,NA,0,"BIQ (Charlotte)",2,"In","BCADLEKFJGIH",NA,"HL","In","Spreadsheet1",1,"BIQ","Screen 1","9dh6eq",1,"continue","",36032,36003,36032,36032,36003,36032,1,36032,0,0,NA,"Click To Continue","Continue Button",23,"object-48","BIQ",NA,"SUPAMT14988"
"3",1695944526827,"28/09/2023 23:42:06",1695919326827,-7,"28/09/2023 09:42:06",144339,5,"questionnaire-uu2n",NA,31929086,9442815,NA,"complete","uhjmax","3VE8AYVF8SWNY0ECGJSEMLL2JWZF88","computer","Desktop or Laptop","Windows 10","Chrome 117.0.0.0","1920x1080","1920x931",NA,NA,0,"BIQ (Charlotte)",2,"In","BCADLEKFJGIH",NA,"HL","In","Spreadsheet1",1,"BIQ","Screen 1","9dh6eq",1,"response","5",14190.5,36003,36034.25,14190.5,36003,36034.25,1,14190.5,21843.75,0,NA,"Rating Scale","Rating Scale",3,"object-5","BIQ",NA,"SUPAMT14988"
"4",1695944526827,"28/09/2023 23:42:06",1695919326827,-7,"28/09/2023 09:42:06",144339,5,"questionnaire-uu2n",NA,31929086,9442815,NA,"complete","uhjmax","3VE8AYVF8SWNY0ECGJSEMLL2JWZF88","computer","Desktop or Laptop","Windows 10","Chrome 117.0.0.0","1920x1080","1920x931",NA,NA,0,"BIQ (Charlotte)",2,"In","BCADLEKFJGIH",NA,"HL","In","Spreadsheet1",1,"BIQ","Screen 1","9dh6eq",1,"response","3",15378,36003,36034.25,15378,36003,36034.25,1,15378,20656.25,0,NA,"Rating Scale","Rating Scale",10,"object-18","BIQ",NA,"SUPAMT14988"
"5",1695944526828,"28/09/2023 23:42:06",1695919326828,-7,"28/09/2023 09:42:06",144339,5,"questionnaire-uu2n",NA,31929086,9442815,NA,"complete","uhjmax","3VE8AYVF8SWNY0ECGJSEMLL2JWZF88","computer","Desktop or Laptop","Windows 10","Chrome 117.0.0.0","1920x1080","1920x931",NA,NA,0,"BIQ (Charlotte)",2,"In","BCADLEKFJGIH",NA,"HL","In","Spreadsheet1",1,"BIQ","Screen 1","9dh6eq",1,"response","5",33628,36003,36034.25,33628,36003,36034.25,1,33628,2406.25,0,NA,"Rating Scale","Rating Scale",17,"object-80","BIQ",NA,"SUPAMT14988"
"6",1695944554958,"28/09/2023 23:42:34",1695919354958,-7,"28/09/2023 09:42:34",144339,5,"questionnaire-uu2n",NA,31929086,9442815,NA,"complete","uhjmax","3VE8AYVF8SWNY0ECGJSEMLL2JWZF88","computer","Desktop or Laptop","Windows 10","Chrome 117.0.0.0","1920x1080","1920x931",NA,NA,0,"BIQ (Charlotte)",2,"In","BCADLEKFJGIH",NA,"HL","In","Spreadsheet1",1,"BIQ","Screen 2","o21mwi",2,"continue","",28167,28156.25,28167,28167,28156.25,28167,1,28167,0,0,NA,"Click To Continue","Continue Button",22,"object-50","BIQ",NA,"SUPAMT14988"
"7",1695944554961,"28/09/2023 23:42:34",1695919354961,-7,"28/09/2023 09:42:34",144339,5,"questionnaire-uu2n",NA,31929086,9442815,NA,"complete","uhjmax","3VE8AYVF8SWNY0ECGJSEMLL2JWZF88","computer","Desktop or Laptop","Windows 10","Chrome 117.0.0.0","1920x1080","1920x931",NA,NA,0,"BIQ (Charlotte)",2,"In","BCADLEKFJGIH",NA,"HL","In","Spreadsheet1",1,"BIQ","Screen 2","o21mwi",2,"response","6",6031.25,28156.25,28169,6031.25,28156.25,28169,1,6031.25,22137.75,0,NA,"Rating Scale","Rating Scale",2,"object-259","BIQ",NA,"SUPAMT14988"
"8",1695944554961,"28/09/2023 23:42:34",1695919354961,-7,"28/09/2023 09:42:34",144339,5,"questionnaire-uu2n",NA,31929086,9442815,NA,"complete","uhjmax","3VE8AYVF8SWNY0ECGJSEMLL2JWZF88","computer","Desktop or Laptop","Windows 10","Chrome 117.0.0.0","1920x1080","1920x931",NA,NA,0,"BIQ (Charlotte)",2,"In","BCADLEKFJGIH",NA,"HL","In","Spreadsheet1",1,"BIQ","Screen 2","o21mwi",2,"response","2",15156.25,28156.25,28170,15156.25,28156.25,28170,1,15156.25,13013.75,0,NA,"Rating Scale","Rating Scale",9,"object-36","BIQ",NA,"SUPAMT14988"
"9",1695944554962,"28/09/2023 23:42:34",1695919354962,-7,"28/09/2023 09:42:34",144339,5,"questionnaire-uu2n",NA,31929086,9442815,NA,"complete","uhjmax","3VE8AYVF8SWNY0ECGJSEMLL2JWZF88","computer","Desktop or Laptop","Windows 10","Chrome 117.0.0.0","1920x1080","1920x931",NA,NA,0,"BIQ (Charlotte)",2,"In","BCADLEKFJGIH",NA,"HL","In","Spreadsheet1",1,"BIQ","Screen 2","o21mwi",2,"response","5",27468.75,28156.25,28171,27468.75,28156.25,28171,1,27468.75,702.25,0,NA,"Rating Scale","Rating Scale",16,"object-86","BIQ",NA,"SUPAMT14988"
"10",1695944571125,"28/09/2023 23:42:51",1695919371125,-7,"28/09/2023 09:42:51",144339,5,"questionnaire-uu2n",NA,31929086,9442815,NA,"complete","uhjmax","3VE8AYVF8SWNY0ECGJSEMLL2JWZF88","computer","Desktop or Laptop","Windows 10","Chrome 117.0.0.0","1920x1080","1920x931",NA,NA,0,"BIQ (Charlotte)",2,"In","BCADLEKFJGIH",NA,"HL","In","Spreadsheet1",1,"BIQ","Screen 3","iz3the",3,"continue","",16176.75,16156.25,16176.75,16176.75,16156.25,16176.75,1,16176.75,0,0,NA,"Click To Continue","Continue Button",22,"object-73","BIQ",NA,"SUPAMT14988"
"11",1695944571129,"28/09/2023 23:42:51",1695919371129,-7,"28/09/2023 09:42:51",144339,5,"questionnaire-uu2n",NA,31929086,9442815,NA,"complete","uhjmax","3VE8AYVF8SWNY0ECGJSEMLL2JWZF88","computer","Desktop or Laptop","Windows 10","Chrome 117.0.0.0","1920x1080","1920x931",NA,NA,0,"BIQ (Charlotte)",2,"In","BCADLEKFJGIH",NA,"HL","In","Spreadsheet1",1,"BIQ","Screen 3","iz3the",3,"response","6",10593.75,16156.25,16180.75,10593.75,16156.25,16180.75,1,10593.75,5587,0,NA,"Rating Scale","Rating Scale",2,"object-53","BIQ",NA,"SUPAMT14988"
"12",1695944571129,"28/09/2023 23:42:51",1695919371129,-7,"28/09/2023 09:42:51",144339,5,"questionnaire-uu2n",NA,31929086,9442815,NA,"complete","uhjmax","3VE8AYVF8SWNY0ECGJSEMLL2JWZF88","computer","Desktop or Laptop","Windows 10","Chrome 117.0.0.0","1920x1080","1920x931",NA,NA,0,"BIQ (Charlotte)",2,"In","BCADLEKFJGIH",NA,"HL","In","Spreadsheet1",1,"BIQ","Screen 3","iz3the",3,"response","3",13500,16156.25,16181.75,13500,16156.25,16181.75,1,13500,2681.75,0,NA,"Rating Scale","Rating Scale",9,"object-60","BIQ",NA,"SUPAMT14988"
"13",1695944571130,"28/09/2023 23:42:51",1695919371130,-7,"28/09/2023 09:42:51",144339,5,"questionnaire-uu2n",NA,31929086,9442815,NA,"complete","uhjmax","3VE8AYVF8SWNY0ECGJSEMLL2JWZF88","computer","Desktop or Laptop","Windows 10","Chrome 117.0.0.0","1920x1080","1920x931",NA,NA,0,"BIQ (Charlotte)",2,"In","BCADLEKFJGIH",NA,"HL","In","Spreadsheet1",1,"BIQ","Screen 3","iz3the",3,"response","6",15500,16156.25,16182.75,15500,16156.25,16182.75,1,15500,682.75,0,NA,"Rating Scale","Rating Scale",16,"object-67","BIQ",NA,"SUPAMT14988"
"14",1695944571134,"28/09/2023 23:42:51",1695919371134,-7,"28/09/2023 09:42:51",144339,5,"questionnaire-uu2n",NA,31929086,9442815,NA,"complete","uhjmax","3VE8AYVF8SWNY0ECGJSEMLL2JWZF88","computer","Desktop or Laptop","Windows 10","Chrome 117.0.0.0","1920x1080","1920x931",NA,NA,0,"BIQ (Charlotte)",2,"In","BCADLEKFJGIH",NA,"HL","In","Spreadsheet1",NA,"","","",NA,"5","END",NA,NA,NA,NA,NA,NA,0,NA,NA,NA,NA,"","",NA,"","",NA,"SUPAMT14988"
"1",1695932774740,"28/09/2023 20:26:14",1695918374740,-4,"28/09/2023 12:26:14",144339,5,"questionnaire-uu2n",NA,31928606,9442826,NA,"complete","ivnzmx","31N2WW6R9XP1X38642XIV4DR3A7F3G","computer","Desktop or Laptop","Windows 8.1","Chrome 109.0.0.0","1364x768","1364x657",NA,NA,0,"BIQ (Charlotte)",2,"In","IJHKGLFAEBDC",NA,"HL","In","Spreadsheet1",NA,"","","",NA,"5","BEGIN",NA,NA,NA,NA,NA,NA,0,NA,NA,NA,NA,"","",NA,"","",NA,"SUPAMT37474"
"2",1695932783120,"28/09/2023 20:26:23",1695918383120,-4,"28/09/2023 12:26:23",144339,5,"questionnaire-uu2n",NA,31928606,9442826,NA,"complete","ivnzmx","31N2WW6R9XP1X38642XIV4DR3A7F3G","computer","Desktop or Laptop","Windows 8.1","Chrome 109.0.0.0","1364x768","1364x657",NA,NA,0,"BIQ (Charlotte)",2,"In","IJHKGLFAEBDC",NA,"HL","In","Spreadsheet1",1,"BIQ","Screen 1","9dh6eq",1,"continue","",8398.9900002861,8385.126,8398.9900002861,8398.9900002861,8385.126,8398.9900002861,1,8398.9900002861,0,0,NA,"Click To Continue","Continue Button",23,"object-48","BIQ",NA,"SUPAMT37474"
"3",1695932783121,"28/09/2023 20:26:23",1695918383121,-4,"28/09/2023 12:26:23",144339,5,"questionnaire-uu2n",NA,31928606,9442826,NA,"complete","ivnzmx","31N2WW6R9XP1X38642XIV4DR3A7F3G","computer","Desktop or Laptop","Windows 8.1","Chrome 109.0.0.0","1364x768","1364x657",NA,NA,0,"BIQ (Charlotte)",2,"In","IJHKGLFAEBDC",NA,"HL","In","Spreadsheet1",1,"BIQ","Screen 1","9dh6eq",1,"response","4",4828.361,8385.126,8400.59000019074,4828.361,8385.126,8400.59000019074,1,4828.361,3572.22900019074,0,NA,"Rating Scale","Rating Scale",3,"object-5","BIQ",NA,"SUPAMT37474"
"4",1695932783121,"28/09/2023 20:26:23",1695918383121,-4,"28/09/2023 12:26:23",144339,5,"questionnaire-uu2n",NA,31928606,9442826,NA,"complete","ivnzmx","31N2WW6R9XP1X38642XIV4DR3A7F3G","computer","Desktop or Laptop","Windows 8.1","Chrome 109.0.0.0","1364x768","1364x657",NA,NA,0,"BIQ (Charlotte)",2,"In","IJHKGLFAEBDC",NA,"HL","In","Spreadsheet1",1,"BIQ","Screen 1","9dh6eq",1,"response","3",6313.195,8385.126,8400.9900002861,6313.195,8385.126,8400.9900002861,1,6313.195,2087.7950002861,0,NA,"Rating Scale","Rating Scale",10,"object-18","BIQ",NA,"SUPAMT37474"
"5",1695932783121,"28/09/2023 20:26:23",1695918383121,-4,"28/09/2023 12:26:23",144339,5,"questionnaire-uu2n",NA,31928606,9442826,NA,"complete","ivnzmx","31N2WW6R9XP1X38642XIV4DR3A7F3G","computer","Desktop or Laptop","Windows 8.1","Chrome 109.0.0.0","1364x768","1364x657",NA,NA,0,"BIQ (Charlotte)",2,"In","IJHKGLFAEBDC",NA,"HL","In","Spreadsheet1",1,"BIQ","Screen 1","9dh6eq",1,"response","3",7734.242,8385.126,8401.38999990463,7734.242,8385.126,8401.38999990463,1,7734.242,667.147999904634,0,NA,"Rating Scale","Rating Scale",17,"object-80","BIQ",NA,"SUPAMT37474"
"6",1695932790336,"28/09/2023 20:26:30",1695918390336,-4,"28/09/2023 12:26:30",144339,5,"questionnaire-uu2n",NA,31928606,9442826,NA,"complete","ivnzmx","31N2WW6R9XP1X38642XIV4DR3A7F3G","computer","Desktop or Laptop","Windows 8.1","Chrome 109.0.0.0","1364x768","1364x657",NA,NA,0,"BIQ (Charlotte)",2,"In","IJHKGLFAEBDC",NA,"HL","In","Spreadsheet1",1,"BIQ","Screen 2","o21mwi",2,"continue","",7230.96400019073,7208.875,7230.96400019073,7230.96400019073,7208.875,7230.96400019073,1,7230.96400019073,0,0,NA,"Click To Continue","Continue Button",22,"object-50","BIQ",NA,"SUPAMT37474"
"7",1695932790340,"28/09/2023 20:26:30",1695918390340,-4,"28/09/2023 12:26:30",144339,5,"questionnaire-uu2n",NA,31928606,9442826,NA,"complete","ivnzmx","31N2WW6R9XP1X38642XIV4DR3A7F3G","computer","Desktop or Laptop","Windows 8.1","Chrome 109.0.0.0","1364x768","1364x657",NA,NA,0,"BIQ (Charlotte)",2,"In","IJHKGLFAEBDC",NA,"HL","In","Spreadsheet1",1,"BIQ","Screen 2","o21mwi",2,"response","5",3281.213,7208.875,7234.664,3281.213,7208.875,7234.664,1,3281.213,3953.451,0,NA,"Rating Scale","Rating Scale",2,"object-259","BIQ",NA,"SUPAMT37474"
"8",1695932790340,"28/09/2023 20:26:30",1695918390340,-4,"28/09/2023 12:26:30",144339,5,"questionnaire-uu2n",NA,31928606,9442826,NA,"complete","ivnzmx","31N2WW6R9XP1X38642XIV4DR3A7F3G","computer","Desktop or Laptop","Windows 8.1","Chrome 109.0.0.0","1364x768","1364x657",NA,NA,0,"BIQ (Charlotte)",2,"In","IJHKGLFAEBDC",NA,"HL","In","Spreadsheet1",1,"BIQ","Screen 2","o21mwi",2,"response","3",5045.294,7208.875,7235.06400009537,5045.294,7208.875,7235.06400009537,1,5045.294,2189.77000009537,0,NA,"Rating Scale","Rating Scale",9,"object-36","BIQ",NA,"SUPAMT37474"
"9",1695932790341,"28/09/2023 20:26:30",1695918390341,-4,"28/09/2023 12:26:30",144339,5,"questionnaire-uu2n",NA,31928606,9442826,NA,"complete","ivnzmx","31N2WW6R9XP1X38642XIV4DR3A7F3G","computer","Desktop or Laptop","Windows 8.1","Chrome 109.0.0.0","1364x768","1364x657",NA,NA,0,"BIQ (Charlotte)",2,"In","IJHKGLFAEBDC",NA,"HL","In","Spreadsheet1",1,"BIQ","Screen 2","o21mwi",2,"response","6",6717.318,7208.875,7236.06400009537,6717.318,7208.875,7236.06400009537,1,6717.318,518.746000095369,0,NA,"Rating Scale","Rating Scale",16,"object-86","BIQ",NA,"SUPAMT37474"
"10",1695932795026,"28/09/2023 20:26:35",1695918395026,-4,"28/09/2023 12:26:35",144339,5,"questionnaire-uu2n",NA,31928606,9442826,NA,"complete","ivnzmx","31N2WW6R9XP1X38642XIV4DR3A7F3G","computer","Desktop or Laptop","Windows 8.1","Chrome 109.0.0.0","1364x768","1364x657",NA,NA,0,"BIQ (Charlotte)",2,"In","IJHKGLFAEBDC",NA,"HL","In","Spreadsheet1",1,"BIQ","Screen 3","iz3the",3,"continue","",4712.08900019074,4695.527,4712.08900019074,4712.08900019074,4695.527,4712.08900019074,1,4712.08900019074,0,0,NA,"Click To Continue","Continue Button",22,"object-73","BIQ",NA,"SUPAMT37474"
"11",1695932795027,"28/09/2023 20:26:35",1695918395027,-4,"28/09/2023 12:26:35",144339,5,"questionnaire-uu2n",NA,31928606,9442826,NA,"complete","ivnzmx","31N2WW6R9XP1X38642XIV4DR3A7F3G","computer","Desktop or Laptop","Windows 8.1","Chrome 109.0.0.0","1364x768","1364x657",NA,NA,0,"BIQ (Charlotte)",2,"In","IJHKGLFAEBDC",NA,"HL","In","Spreadsheet1",1,"BIQ","Screen 3","iz3the",3,"response","6",1855.403,4695.527,4712.4890002861,1855.403,4695.527,4712.4890002861,1,1855.403,2857.0860002861,0,NA,"Rating Scale","Rating Scale",2,"object-53","BIQ",NA,"SUPAMT37474"
"12",1695932795027,"28/09/2023 20:26:35",1695918395027,-4,"28/09/2023 12:26:35",144339,5,"questionnaire-uu2n",NA,31928606,9442826,NA,"complete","ivnzmx","31N2WW6R9XP1X38642XIV4DR3A7F3G","computer","Desktop or Laptop","Windows 8.1","Chrome 109.0.0.0","1364x768","1364x657",NA,NA,0,"BIQ (Charlotte)",2,"In","IJHKGLFAEBDC",NA,"HL","In","Spreadsheet1",1,"BIQ","Screen 3","iz3the",3,"response","4",3489.604,4695.527,4713.08900019074,3489.604,4695.527,4713.08900019074,1,3489.604,1223.48500019074,0,NA,"Rating Scale","Rating Scale",9,"object-60","BIQ",NA,"SUPAMT37474"
"13",1695932795028,"28/09/2023 20:26:35",1695918395028,-4,"28/09/2023 12:26:35",144339,5,"questionnaire-uu2n",NA,31928606,9442826,NA,"complete","ivnzmx","31N2WW6R9XP1X38642XIV4DR3A7F3G","computer","Desktop or Laptop","Windows 8.1","Chrome 109.0.0.0","1364x768","1364x657",NA,NA,0,"BIQ (Charlotte)",2,"In","IJHKGLFAEBDC",NA,"HL","In","Spreadsheet1",1,"BIQ","Screen 3","iz3the",3,"response","5",3953.884,4695.527,4713.4890002861,3953.884,4695.527,4713.4890002861,1,3953.884,759.605000286101,0,NA,"Rating Scale","Rating Scale",16,"object-67","BIQ",NA,"SUPAMT37474"
"14",1695932795032,"28/09/2023 20:26:35",1695918395032,-4,"28/09/2023 12:26:35",144339,5,"questionnaire-uu2n",NA,31928606,9442826,NA,"complete","ivnzmx","31N2WW6R9XP1X38642XIV4DR3A7F3G","computer","Desktop or Laptop","Windows 8.1","Chrome 109.0.0.0","1364x768","1364x657",NA,NA,0,"BIQ (Charlotte)",2,"In","IJHKGLFAEBDC",NA,"HL","In","Spreadsheet1",NA,"","","",NA,"5","END",NA,NA,NA,NA,NA,NA,0,NA,NA,NA,NA,"","",NA,"","",NA,"SUPAMT37474"
"1",1695947761320,"29/09/2023 00:36:01",1695933361320,-4,"28/09/2023 16:36:01",144339,5,"questionnaire-uu2n",NA,31928950,9442854,NA,"complete","exnbum","378XPAWRUICLRF9HEPIDL94PPCTAI0","computer","Desktop or Laptop","Windows 10","Chrome 115.0.0.0","1280x1024","1280x907",NA,NA,0,"BIQ (Charlotte)",2,"In","CDBEAFLGKHJI",NA,"LH","In","Spreadsheet1",NA,"","","",NA,"5","BEGIN",NA,NA,NA,NA,NA,NA,0,NA,NA,NA,NA,"","",NA,"","",NA,"SUPAMT61143"
"2",1695947778727,"29/09/2023 00:36:18",1695933378727,-4,"28/09/2023 16:36:18",144339,5,"questionnaire-uu2n",NA,31928950,9442854,NA,"complete","exnbum","378XPAWRUICLRF9HEPIDL94PPCTAI0","computer","Desktop or Laptop","Windows 10","Chrome 115.0.0.0","1280x1024","1280x907",NA,NA,0,"BIQ (Charlotte)",2,"In","CDBEAFLGKHJI",NA,"LH","In","Spreadsheet1",1,"BIQ","Screen 1","9dh6eq",1,"continue","",17412.6119999046,17403.558,17412.6119999046,17412.6119999046,17403.558,17412.6119999046,1,17412.6119999046,0,0,NA,"Click To Continue","Continue Button",23,"object-48","BIQ",NA,"SUPAMT61143"
"3",1695947778729,"29/09/2023 00:36:18",1695933378729,-4,"28/09/2023 16:36:18",144339,5,"questionnaire-uu2n",NA,31928950,9442854,NA,"complete","exnbum","378XPAWRUICLRF9HEPIDL94PPCTAI0","computer","Desktop or Laptop","Windows 10","Chrome 115.0.0.0","1280x1024","1280x907",NA,NA,0,"BIQ (Charlotte)",2,"In","CDBEAFLGKHJI",NA,"LH","In","Spreadsheet1",1,"BIQ","Screen 1","9dh6eq",1,"response","5",8597.686,17403.558,17420.224,8597.686,17403.558,17420.224,1,8597.686,8822.53799999999,0,NA,"Rating Scale","Rating Scale",3,"object-5","BIQ",NA,"SUPAMT61143"
"4",1695947778730,"29/09/2023 00:36:18",1695933378730,-4,"28/09/2023 16:36:18",144339,5,"questionnaire-uu2n",NA,31928950,9442854,NA,"complete","exnbum","378XPAWRUICLRF9HEPIDL94PPCTAI0","computer","Desktop or Laptop","Windows 10","Chrome 115.0.0.0","1280x1024","1280x907",NA,NA,0,"BIQ (Charlotte)",2,"In","CDBEAFLGKHJI",NA,"LH","In","Spreadsheet1",1,"BIQ","Screen 1","9dh6eq",1,"response","4",12950.028,17403.558,17420.224,12950.028,17403.558,17420.224,1,12950.028,4470.19599999999,0,NA,"Rating Scale","Rating Scale",10,"object-18","BIQ",NA,"SUPAMT61143"
"5",1695947778730,"29/09/2023 00:36:18",1695933378730,-4,"28/09/2023 16:36:18",144339,5,"questionnaire-uu2n",NA,31928950,9442854,NA,"complete","exnbum","378XPAWRUICLRF9HEPIDL94PPCTAI0","computer","Desktop or Laptop","Windows 10","Chrome 115.0.0.0","1280x1024","1280x907",NA,NA,0,"BIQ (Charlotte)",2,"In","CDBEAFLGKHJI",NA,"LH","In","Spreadsheet1",1,"BIQ","Screen 1","9dh6eq",1,"response","3",15504.268,17403.558,17420.224,15504.268,17403.558,17420.224,1,15504.268,1915.95599999999,0,NA,"Rating Scale","Rating Scale",17,"object-80","BIQ",NA,"SUPAMT61143"
"6",1695947787333,"29/09/2023 00:36:27",1695933387333,-4,"28/09/2023 16:36:27",144339,5,"questionnaire-uu2n",NA,31928950,9442854,NA,"complete","exnbum","378XPAWRUICLRF9HEPIDL94PPCTAI0","computer","Desktop or Laptop","Windows 10","Chrome 115.0.0.0","1280x1024","1280x907",NA,NA,0,"BIQ (Charlotte)",2,"In","CDBEAFLGKHJI",NA,"LH","In","Spreadsheet1",1,"BIQ","Screen 2","o21mwi",2,"continue","",8621.55399990463,8608.793,8621.55399990463,8621.55399990463,8608.793,8621.55399990463,1,8621.55399990463,0,0,NA,"Click To Continue","Continue Button",22,"object-50","BIQ",NA,"SUPAMT61143"
"7",1695947787334,"29/09/2023 00:36:27",1695933387334,-4,"28/09/2023 16:36:27",144339,5,"questionnaire-uu2n",NA,31928950,9442854,NA,"complete","exnbum","378XPAWRUICLRF9HEPIDL94PPCTAI0","computer","Desktop or Laptop","Windows 10","Chrome 115.0.0.0","1280x1024","1280x907",NA,NA,0,"BIQ (Charlotte)",2,"In","CDBEAFLGKHJI",NA,"LH","In","Spreadsheet1",1,"BIQ","Screen 2","o21mwi",2,"response","4",4663.399,8608.793,8622.15399980927,4663.399,8608.793,8622.15399980927,1,4663.399,3958.75499980927,0,NA,"Rating Scale","Rating Scale",2,"object-259","BIQ",NA,"SUPAMT61143"
"8",1695947787334,"29/09/2023 00:36:27",1695933387334,-4,"28/09/2023 16:36:27",144339,5,"questionnaire-uu2n",NA,31928950,9442854,NA,"complete","exnbum","378XPAWRUICLRF9HEPIDL94PPCTAI0","computer","Desktop or Laptop","Windows 10","Chrome 115.0.0.0","1280x1024","1280x907",NA,NA,0,"BIQ (Charlotte)",2,"In","CDBEAFLGKHJI",NA,"LH","In","Spreadsheet1",1,"BIQ","Screen 2","o21mwi",2,"response","5",5909.639,8608.793,8622.7539997139,5909.639,8608.793,8622.7539997139,1,5909.639,2713.1149997139,0,NA,"Rating Scale","Rating Scale",9,"object-36","BIQ",NA,"SUPAMT61143"
"9",1695947787335,"29/09/2023 00:36:27",1695933387335,-4,"28/09/2023 16:36:27",144339,5,"questionnaire-uu2n",NA,31928950,9442854,NA,"complete","exnbum","378XPAWRUICLRF9HEPIDL94PPCTAI0","computer","Desktop or Laptop","Windows 10","Chrome 115.0.0.0","1280x1024","1280x907",NA,NA,0,"BIQ (Charlotte)",2,"In","CDBEAFLGKHJI",NA,"LH","In","Spreadsheet1",1,"BIQ","Screen 2","o21mwi",2,"response","4",6783.094,8608.793,8623.2539997139,6783.094,8608.793,8623.2539997139,1,6783.094,1840.1599997139,0,NA,"Rating Scale","Rating Scale",16,"object-86","BIQ",NA,"SUPAMT61143"
"10",1695947793278,"29/09/2023 00:36:33",1695933393278,-4,"28/09/2023 16:36:33",144339,5,"questionnaire-uu2n",NA,31928950,9442854,NA,"complete","exnbum","378XPAWRUICLRF9HEPIDL94PPCTAI0","computer","Desktop or Laptop","Windows 10","Chrome 115.0.0.0","1280x1024","1280x907",NA,NA,0,"BIQ (Charlotte)",2,"In","CDBEAFLGKHJI",NA,"LH","In","Spreadsheet1",1,"BIQ","Screen 3","iz3the",3,"continue","",5957.161,5948.043,5957.161,5957.161,5948.043,5957.161,1,5957.161,0,0,NA,"Click To Continue","Continue Button",22,"object-73","BIQ",NA,"SUPAMT61143"
"11",1695947793282,"29/09/2023 00:36:33",1695933393282,-4,"28/09/2023 16:36:33",144339,5,"questionnaire-uu2n",NA,31928950,9442854,NA,"complete","exnbum","378XPAWRUICLRF9HEPIDL94PPCTAI0","computer","Desktop or Laptop","Windows 10","Chrome 115.0.0.0","1280x1024","1280x907",NA,NA,0,"BIQ (Charlotte)",2,"In","CDBEAFLGKHJI",NA,"LH","In","Spreadsheet1",1,"BIQ","Screen 3","iz3the",3,"response","4",2242.353,5948.043,5961.26099990463,2242.353,5948.043,5961.26099990463,1,2242.353,3718.90799990463,0,NA,"Rating Scale","Rating Scale",2,"object-53","BIQ",NA,"SUPAMT61143"
"12",1695947793282,"29/09/2023 00:36:33",1695933393282,-4,"28/09/2023 16:36:33",144339,5,"questionnaire-uu2n",NA,31928950,9442854,NA,"complete","exnbum","378XPAWRUICLRF9HEPIDL94PPCTAI0","computer","Desktop or Laptop","Windows 10","Chrome 115.0.0.0","1280x1024","1280x907",NA,NA,0,"BIQ (Charlotte)",2,"In","CDBEAFLGKHJI",NA,"LH","In","Spreadsheet1",1,"BIQ","Screen 3","iz3the",3,"response","4",3909.097,5948.043,5961.9609997139,3909.097,5948.043,5961.9609997139,1,3909.097,2052.8639997139,0,NA,"Rating Scale","Rating Scale",9,"object-60","BIQ",NA,"SUPAMT61143"
"13",1695947793283,"29/09/2023 00:36:33",1695933393283,-4,"28/09/2023 16:36:33",144339,5,"questionnaire-uu2n",NA,31928950,9442854,NA,"complete","exnbum","378XPAWRUICLRF9HEPIDL94PPCTAI0","computer","Desktop or Laptop","Windows 10","Chrome 115.0.0.0","1280x1024","1280x907",NA,NA,0,"BIQ (Charlotte)",2,"In","CDBEAFLGKHJI",NA,"LH","In","Spreadsheet1",1,"BIQ","Screen 3","iz3the",3,"response","4",4530.812,5948.043,5962.56099961853,4530.812,5948.043,5962.56099961853,1,4530.812,1431.74899961853,0,NA,"Rating Scale","Rating Scale",16,"object-67","BIQ",NA,"SUPAMT61143"
"14",1695947793288,"29/09/2023 00:36:33",1695933393288,-4,"28/09/2023 16:36:33",144339,5,"questionnaire-uu2n",NA,31928950,9442854,NA,"complete","exnbum","378XPAWRUICLRF9HEPIDL94PPCTAI0","computer","Desktop or Laptop","Windows 10","Chrome 115.0.0.0","1280x1024","1280x907",NA,NA,0,"BIQ (Charlotte)",2,"In","CDBEAFLGKHJI",NA,"LH","In","Spreadsheet1",NA,"","","",NA,"5","END",NA,NA,NA,NA,NA,NA,0,NA,NA,NA,NA,"","",NA,"","",NA,"SUPAMT61143"
"1",1695933500049,"28/09/2023 20:38:20",1695919100049,-4,"28/09/2023 12:38:20",144339,5,"questionnaire-uu2n",NA,31928982,9442902,NA,"complete","kexyno","3I7DHKZYGTZ4BIVAILLBA1BBH6ZF57","computer","Desktop or Laptop","Windows 10","Chrome 115.0.0.0","1364x768","1364x651",NA,NA,0,"BIQ (Charlotte)",2,"In","EFDGCHBIAJLK",NA,"HL","In","Spreadsheet1",NA,"","","",NA,"5","BEGIN",NA,NA,NA,NA,NA,NA,0,NA,NA,NA,NA,"","",NA,"","",NA,"SUPAMT45944"
"2",1695933594990,"28/09/2023 20:39:54",1695919194990,-4,"28/09/2023 12:39:54",144339,5,"questionnaire-uu2n",NA,31928982,9442902,NA,"complete","kexyno","3I7DHKZYGTZ4BIVAILLBA1BBH6ZF57","computer","Desktop or Laptop","Windows 10","Chrome 115.0.0.0","1364x768","1364x651",NA,NA,0,"BIQ (Charlotte)",2,"In","EFDGCHBIAJLK",NA,"HL","In","Spreadsheet1",1,"BIQ","Screen 1","9dh6eq",1,"continue","",97717.5999999046,97704.4,97717.5999999046,97717.5999999046,97704.4,97717.5999999046,1,97717.5999999046,0,0,NA,"Click To Continue","Continue Button",23,"object-48","BIQ",NA,"SUPAMT45944"
"3",1695933594993,"28/09/2023 20:39:54",1695919194993,-4,"28/09/2023 12:39:54",144339,5,"questionnaire-uu2n",NA,31928982,9442902,NA,"complete","kexyno","3I7DHKZYGTZ4BIVAILLBA1BBH6ZF57","computer","Desktop or Laptop","Windows 10","Chrome 115.0.0.0","1364x768","1364x651",NA,NA,0,"BIQ (Charlotte)",2,"In","EFDGCHBIAJLK",NA,"HL","In","Spreadsheet1",1,"BIQ","Screen 1","9dh6eq",1,"response","7",5596.265,97704.4,97721.066,5596.265,97704.4,97721.066,1,5596.265,92124.801,0,NA,"Rating Scale","Rating Scale",3,"object-5","BIQ",NA,"SUPAMT45944"
"4",1695933594994,"28/09/2023 20:39:54",1695919194994,-4,"28/09/2023 12:39:54",144339,5,"questionnaire-uu2n",NA,31928982,9442902,NA,"complete","kexyno","3I7DHKZYGTZ4BIVAILLBA1BBH6ZF57","computer","Desktop or Laptop","Windows 10","Chrome 115.0.0.0","1364x768","1364x651",NA,NA,0,"BIQ (Charlotte)",2,"In","EFDGCHBIAJLK",NA,"HL","In","Spreadsheet1",1,"BIQ","Screen 1","9dh6eq",1,"response","6",7659.15,97704.4,97721.066,7659.15,97704.4,97721.066,1,7659.15,90061.916,0,NA,"Rating Scale","Rating Scale",10,"object-18","BIQ",NA,"SUPAMT45944"
"5",1695933594994,"28/09/2023 20:39:54",1695919194994,-4,"28/09/2023 12:39:54",144339,5,"questionnaire-uu2n",NA,31928982,9442902,NA,"complete","kexyno","3I7DHKZYGTZ4BIVAILLBA1BBH6ZF57","computer","Desktop or Laptop","Windows 10","Chrome 115.0.0.0","1364x768","1364x651",NA,NA,0,"BIQ (Charlotte)",2,"In","EFDGCHBIAJLK",NA,"HL","In","Spreadsheet1",1,"BIQ","Screen 1","9dh6eq",1,"response","8",9763.288,97704.4,97721.066,9763.288,97704.4,97721.066,1,9763.288,87957.778,0,NA,"Rating Scale","Rating Scale",17,"object-80","BIQ",NA,"SUPAMT45944"
"6",1695933600776,"28/09/2023 20:40:00",1695919200776,-4,"28/09/2023 12:40:00",144339,5,"questionnaire-uu2n",NA,31928982,9442902,NA,"complete","kexyno","3I7DHKZYGTZ4BIVAILLBA1BBH6ZF57","computer","Desktop or Laptop","Windows 10","Chrome 115.0.0.0","1364x768","1364x651",NA,NA,0,"BIQ (Charlotte)",2,"In","EFDGCHBIAJLK",NA,"HL","In","Spreadsheet1",1,"BIQ","Screen 2","o21mwi",2,"continue","",5803.924,5787.258,5803.924,5803.924,5787.258,5803.924,1,5803.924,0,0,NA,"Click To Continue","Continue Button",22,"object-50","BIQ",NA,"SUPAMT45944"
"7",1695933600776,"28/09/2023 20:40:00",1695919200776,-4,"28/09/2023 12:40:00",144339,5,"questionnaire-uu2n",NA,31928982,9442902,NA,"complete","kexyno","3I7DHKZYGTZ4BIVAILLBA1BBH6ZF57","computer","Desktop or Laptop","Windows 10","Chrome 115.0.0.0","1364x768","1364x651",NA,NA,0,"BIQ (Charlotte)",2,"In","EFDGCHBIAJLK",NA,"HL","In","Spreadsheet1",1,"BIQ","Screen 2","o21mwi",2,"response","8",2555.49800000001,5787.258,5803.924,2555.49800000001,5787.258,5803.924,1,2555.49800000001,3248.42599999999,0,NA,"Rating Scale","Rating Scale",2,"object-259","BIQ",NA,"SUPAMT45944"
"8",1695933600777,"28/09/2023 20:40:00",1695919200777,-4,"28/09/2023 12:40:00",144339,5,"questionnaire-uu2n",NA,31928982,9442902,NA,"complete","kexyno","3I7DHKZYGTZ4BIVAILLBA1BBH6ZF57","computer","Desktop or Laptop","Windows 10","Chrome 115.0.0.0","1364x768","1364x651",NA,NA,0,"BIQ (Charlotte)",2,"In","EFDGCHBIAJLK",NA,"HL","In","Spreadsheet1",1,"BIQ","Screen 2","o21mwi",2,"response","7",3397.18700000001,5787.258,5803.924,3397.18700000001,5787.258,5803.924,1,3397.18700000001,2406.73699999999,0,NA,"Rating Scale","Rating Scale",9,"object-36","BIQ",NA,"SUPAMT45944"
"9",1695933600777,"28/09/2023 20:40:00",1695919200777,-4,"28/09/2023 12:40:00",144339,5,"questionnaire-uu2n",NA,31928982,9442902,NA,"complete","kexyno","3I7DHKZYGTZ4BIVAILLBA1BBH6ZF57","computer","Desktop or Laptop","Windows 10","Chrome 115.0.0.0","1364x768","1364x651",NA,NA,0,"BIQ (Charlotte)",2,"In","EFDGCHBIAJLK",NA,"HL","In","Spreadsheet1",1,"BIQ","Screen 2","o21mwi",2,"response","8",3981.015,5787.258,5803.924,3981.015,5787.258,5803.924,1,3981.015,1822.909,0,NA,"Rating Scale","Rating Scale",16,"object-86","BIQ",NA,"SUPAMT45944"
"10",1695933622455,"28/09/2023 20:40:22",1695919222455,-4,"28/09/2023 12:40:22",144339,5,"questionnaire-uu2n",NA,31928982,9442902,NA,"complete","kexyno","3I7DHKZYGTZ4BIVAILLBA1BBH6ZF57","computer","Desktop or Laptop","Windows 10","Chrome 115.0.0.0","1364x768","1364x651",NA,NA,0,"BIQ (Charlotte)",2,"In","EFDGCHBIAJLK",NA,"HL","In","Spreadsheet1",1,"BIQ","Screen 3","iz3the",3,"continue","",21696.122,21679.456,21696.122,21696.122,21679.456,21696.122,1,21696.122,0,0,NA,"Click To Continue","Continue Button",22,"object-73","BIQ",NA,"SUPAMT45944"
"11",1695933622458,"28/09/2023 20:40:22",1695919222458,-4,"28/09/2023 12:40:22",144339,5,"questionnaire-uu2n",NA,31928982,9442902,NA,"complete","kexyno","3I7DHKZYGTZ4BIVAILLBA1BBH6ZF57","computer","Desktop or Laptop","Windows 10","Chrome 115.0.0.0","1364x768","1364x651",NA,NA,0,"BIQ (Charlotte)",2,"In","EFDGCHBIAJLK",NA,"HL","In","Spreadsheet1",1,"BIQ","Screen 3","iz3the",3,"response","6",2896.90400000001,21679.456,21696.122,2896.90400000001,21679.456,21696.122,1,2896.90400000001,18799.218,0,NA,"Rating Scale","Rating Scale",2,"object-53","BIQ",NA,"SUPAMT45944"
"12",1695933622459,"28/09/2023 20:40:22",1695919222459,-4,"28/09/2023 12:40:22",144339,5,"questionnaire-uu2n",NA,31928982,9442902,NA,"complete","kexyno","3I7DHKZYGTZ4BIVAILLBA1BBH6ZF57","computer","Desktop or Laptop","Windows 10","Chrome 115.0.0.0","1364x768","1364x651",NA,NA,0,"BIQ (Charlotte)",2,"In","EFDGCHBIAJLK",NA,"HL","In","Spreadsheet1",1,"BIQ","Screen 3","iz3the",3,"response","8",4849.08900000001,21679.456,21696.122,4849.08900000001,21679.456,21696.122,1,4849.08900000001,16847.033,0,NA,"Rating Scale","Rating Scale",9,"object-60","BIQ",NA,"SUPAMT45944"
"13",1695933622459,"28/09/2023 20:40:22",1695919222459,-4,"28/09/2023 12:40:22",144339,5,"questionnaire-uu2n",NA,31928982,9442902,NA,"complete","kexyno","3I7DHKZYGTZ4BIVAILLBA1BBH6ZF57","computer","Desktop or Laptop","Windows 10","Chrome 115.0.0.0","1364x768","1364x651",NA,NA,0,"BIQ (Charlotte)",2,"In","EFDGCHBIAJLK",NA,"HL","In","Spreadsheet1",1,"BIQ","Screen 3","iz3the",3,"response","8",5511.60100000001,21679.456,21696.122,5511.60100000001,21679.456,21696.122,1,5511.60100000001,16184.521,0,NA,"Rating Scale","Rating Scale",16,"object-67","BIQ",NA,"SUPAMT45944"
"14",1695933622465,"28/09/2023 20:40:22",1695919222465,-4,"28/09/2023 12:40:22",144339,5,"questionnaire-uu2n",NA,31928982,9442902,NA,"complete","kexyno","3I7DHKZYGTZ4BIVAILLBA1BBH6ZF57","computer","Desktop or Laptop","Windows 10","Chrome 115.0.0.0","1364x768","1364x651",NA,NA,0,"BIQ (Charlotte)",2,"In","EFDGCHBIAJLK",NA,"HL","In","Spreadsheet1",NA,"","","",NA,"5","END",NA,NA,NA,NA,NA,NA,0,NA,NA,NA,NA,"","",NA,"","",NA,"SUPAMT45944"
"1",1695933613076,"28/09/2023 20:40:13",1695919213076,-4,"28/09/2023 12:40:13",144339,5,"questionnaire-uu2n",NA,31929044,9442974,NA,"complete","masueh","3WMOAN2SRHWXX4N6M0M1M4EJWLMNVS","computer","Desktop or Laptop","Windows 10","Chrome 117.0.0.0","1364x768","1364x651",NA,NA,0,"BIQ (Charlotte)",2,"In","FGEHDICJBKAL",NA,"LH","In","Spreadsheet1",NA,"","","",NA,"5","BEGIN",NA,NA,NA,NA,NA,NA,0,NA,NA,NA,NA,"","",NA,"","",NA,"SUPAMT92404"
"2",1695933619840,"28/09/2023 20:40:19",1695919219840,-4,"28/09/2023 12:40:19",144339,5,"questionnaire-uu2n",NA,31929044,9442974,NA,"complete","masueh","3WMOAN2SRHWXX4N6M0M1M4EJWLMNVS","computer","Desktop or Laptop","Windows 10","Chrome 117.0.0.0","1364x768","1364x651",NA,NA,0,"BIQ (Charlotte)",2,"In","FGEHDICJBKAL",NA,"LH","In","Spreadsheet1",1,"BIQ","Screen 1","9dh6eq",1,"continue","",6774.905,6763.704,6774.905,6774.905,6763.704,6774.905,1,6774.905,0,0,NA,"Click To Continue","Continue Button",23,"object-48","BIQ",NA,"SUPAMT92404"
"3",1695933619840,"28/09/2023 20:40:19",1695919219840,-4,"28/09/2023 12:40:19",144339,5,"questionnaire-uu2n",NA,31929044,9442974,NA,"complete","masueh","3WMOAN2SRHWXX4N6M0M1M4EJWLMNVS","computer","Desktop or Laptop","Windows 10","Chrome 117.0.0.0","1364x768","1364x651",NA,NA,0,"BIQ (Charlotte)",2,"In","FGEHDICJBKAL",NA,"LH","In","Spreadsheet1",1,"BIQ","Screen 1","9dh6eq",1,"response","4",5005.099,6763.704,6776.30500009537,5005.099,6763.704,6776.30500009537,1,5005.099,1771.20600009537,0,NA,"Rating Scale","Rating Scale",3,"object-5","BIQ",NA,"SUPAMT92404"
