"Event.Index","UTC.Timestamp","UTC.Date.and.Time","Local.Timestamp","Local.Timezone","Local.Date.and.Time","Experiment.ID","Experiment.Version","Tree.Node.Key","Repeat.Key","Schedule.ID","Participant.Private.ID","Participant.Starting.Group","Participant.Status","Participant.Completion.Code","Participant.External.Session.ID","Participant.Device.Type","Participant.Device","Participant.OS","Participant.Browser","Participant.Monitor.Size","Participant.Viewport.Size","Checkpoint","Room.ID","Room.Order","Task.Name","Task.Version","branch.hkzp","order.ot79","branch.mcuq","Spreadsheet","Trial.Number","Display","Screen","Screen.ID","Screen.Counter","Response.Type","Response","Onset.Time","Clock.Time","Reaction.Time","Absolute.Onset.Time","Absolute.Clock.Time","Absolute.Reaction.Time","Correct","Response.Onset","Response.Duration","Proportion","Tag","Component.Name","Object.Name","Object.Number","Object.ID","Spreadsheet..display","Manipulation..Spreadsheet","Random_ID"
"1",1694024289685,"06/09/2023 18:18:09",1694009889685,-4,"06/09/2023 10:18:09",142246,8,"questionnaire-uu2n",NA,31534019,9331540,NA,"complete","mdhysq","30LB5CDZNI9BLS09MR96WYV2B5IZ0X","computer","Desktop or Laptop","Windows 10","Chrome 116.0.0.0","1280x1024","1280x875",NA,NA,0,"BIQ (Charlotte)",2,"In","ABKCJDIEHFG",NA,"Spreadsheet1",NA,"","","",NA,"5","BEGIN",NA,NA,NA,NA,NA,NA,0,NA,NA,NA,NA,"","",NA,"","",NA,"SUPAMT52969"
"2",1694024346866,"06/09/2023 18:19:06",1694009946866,-4,"06/09/2023 10:19:06",142246,8,"questionnaire-uu2n",NA,31534019,9331540,NA,"complete","mdhysq","30LB5CDZNI9BLS09MR96WYV2B5IZ0X","computer","Desktop or Laptop","Windows 10","Chrome 116.0.0.0","1280x1024","1280x875",NA,NA,0,"BIQ (Charlotte)",2,"In","ABKCJDIEHFG",NA,"Spreadsheet1",1,"BIQ","Screen 1","9dh6eq",1,"continue","",57187.655,57184.017,57187.655,57187.655,57184.017,57187.655,1,57187.655,0,0,NA,"Click To Continue","Continue Button",23,"object-48","BIQ",NA,"SUPAMT52969"
"3",1694024346869,"06/09/2023 18:19:06",1694009946869,-4,"06/09/2023 10:19:06",142246,8,"questionnaire-uu2n",NA,31534019,9331540,NA,"complete","mdhysq","30LB5CDZNI9BLS09MR96WYV2B5IZ0X","computer","Desktop or Laptop","Windows 10","Chrome 116.0.0.0","1280x1024","1280x875",NA,NA,0,"BIQ (Charlotte)",2,"In","ABKCJDIEHFG",NA,"Spreadsheet1",1,"BIQ","Screen 1","9dh6eq",1,"response","7",10444.515,57184.017,57196.155,10444.515,57184.017,57196.155,1,10444.515,46751.64,0,NA,"Rating Scale","Rating Scale",3,"object-5","BIQ",NA,"SUPAMT52969"
"4",1694024346869,"06/09/2023 18:19:06",1694009946869,-4,"06/09/2023 10:19:06",142246,8,"questionnaire-uu2n",NA,31534019,9331540,NA,"complete","mdhysq","30LB5CDZNI9BLS09MR96WYV2B5IZ0X","computer","Desktop or Laptop","Windows 10","Chrome 116.0.0.0","1280x1024","1280x875",NA,NA,0,"BIQ (Charlotte)",2,"In","ABKCJDIEHFG",NA,"Spreadsheet1",1,"BIQ","Screen 1","9dh6eq",1,"response","7",17616.57,57184.017,57196.5549999762,17616.57,57184.017,57196.5549999762,1,17616.57,39579.9849999762,0,NA,"Rating Scale","Rating Scale",10,"object-18","BIQ",NA,"SUPAMT52969"
"5",1694024346869,"06/09/2023 18:19:06",1694009946869,-4,"06/09/2023 10:19:06",142246,8,"questionnaire-uu2n",NA,31534019,9331540,NA,"complete","mdhysq","30LB5CDZNI9BLS09MR96WYV2B5IZ0X","computer","Desktop or Laptop","Windows 10","Chrome 116.0.0.0","1280x1024","1280x875",NA,NA,0,"BIQ (Charlotte)",2,"In","ABKCJDIEHFG",NA,"Spreadsheet1",1,"BIQ","Screen 1","9dh6eq",1,"response","1",27862.843,57184.017,57196.9549999523,27862.843,57184.017,57196.9549999523,1,27862.843,29334.1119999523,0,NA,"Rating Scale","Rating Scale",17,"object-80","BIQ",NA,"SUPAMT52969"
"6",1694024532901,"06/09/2023 18:22:12",1694010132901,-4,"06/09/2023 10:22:12",142246,8,"questionnaire-uu2n",NA,31534019,9331540,NA,"complete","mdhysq","30LB5CDZNI9BLS09MR96WYV2B5IZ0X","computer","Desktop or Laptop","Windows 10","Chrome 116.0.0.0","1280x1024","1280x875",NA,NA,0,"BIQ (Charlotte)",2,"In","ABKCJDIEHFG",NA,"Spreadsheet1",1,"BIQ","Screen 2","o21mwi",2,"continue","",186044.238000024,186028.952,186044.238000024,186044.238000024,186028.952,186044.238000024,1,186044.238000024,0,0,NA,"Click To Continue","Continue Button",22,"object-50","BIQ",NA,"SUPAMT52969"
"7",1694024532904,"06/09/2023 18:22:12",1694010132904,-4,"06/09/2023 10:22:12",142246,8,"questionnaire-uu2n",NA,31534019,9331540,NA,"complete","mdhysq","30LB5CDZNI9BLS09MR96WYV2B5IZ0X","computer","Desktop or Laptop","Windows 10","Chrome 116.0.0.0","1280x1024","1280x875",NA,NA,0,"BIQ (Charlotte)",2,"In","ABKCJDIEHFG",NA,"Spreadsheet1",1,"BIQ","Screen 2","o21mwi",2,"response","8",8443.194,186028.952,186045.618,8443.194,186028.952,186045.618,1,8443.194,177602.424,0,NA,"Rating Scale","Rating Scale",2,"object-259","BIQ",NA,"SUPAMT52969"
"8",1694024532904,"06/09/2023 18:22:12",1694010132904,-4,"06/09/2023 10:22:12",142246,8,"questionnaire-uu2n",NA,31534019,9331540,NA,"complete","mdhysq","30LB5CDZNI9BLS09MR96WYV2B5IZ0X","computer","Desktop or Laptop","Windows 10","Chrome 116.0.0.0","1280x1024","1280x875",NA,NA,0,"BIQ (Charlotte)",2,"In","ABKCJDIEHFG",NA,"Spreadsheet1",1,"BIQ","Screen 2","o21mwi",2,"response","6",178669.149,186028.952,186045.618,178669.149,186028.952,186045.618,1,178669.149,7376.46900000004,0,NA,"Rating Scale","Rating Scale",9,"object-36","BIQ",NA,"SUPAMT52969"
"9",1694024532905,"06/09/2023 18:22:12",1694010132905,-4,"06/09/2023 10:22:12",142246,8,"questionnaire-uu2n",NA,31534019,9331540,NA,"complete","mdhysq","30LB5CDZNI9BLS09MR96WYV2B5IZ0X","computer","Desktop or Laptop","Windows 10","Chrome 116.0.0.0","1280x1024","1280x875",NA,NA,0,"BIQ (Charlotte)",2,"In","ABKCJDIEHFG",NA,"Spreadsheet1",1,"BIQ","Screen 2","o21mwi",2,"response","6",184633.486,186028.952,186045.618,184633.486,186028.952,186045.618,1,184633.486,1412.13200000004,0,NA,"Rating Scale","Rating Scale",16,"object-86","BIQ",NA,"SUPAMT52969"
"10",1694024582828,"06/09/2023 18:23:02",1694010182828,-4,"06/09/2023 10:23:02",142246,8,"questionnaire-uu2n",NA,31534019,9331540,NA,"complete","mdhysq","30LB5CDZNI9BLS09MR96WYV2B5IZ0X","computer","Desktop or Laptop","Windows 10","Chrome 116.0.0.0","1280x1024","1280x875",NA,NA,0,"BIQ (Charlotte)",2,"In","ABKCJDIEHFG",NA,"Spreadsheet1",1,"BIQ","Screen 3","iz3the",3,"continue","",49942.186,49925.791,49942.186,49942.186,49925.791,49942.186,1,49942.186,0,0,NA,"Click To Continue","Continue Button",22,"object-73","BIQ",NA,"SUPAMT52969"
"11",1694024582830,"06/09/2023 18:23:02",1694010182830,-4,"06/09/2023 10:23:02",142246,8,"questionnaire-uu2n",NA,31534019,9331540,NA,"complete","mdhysq","30LB5CDZNI9BLS09MR96WYV2B5IZ0X","computer","Desktop or Laptop","Windows 10","Chrome 116.0.0.0","1280x1024","1280x875",NA,NA,0,"BIQ (Charlotte)",2,"In","ABKCJDIEHFG",NA,"Spreadsheet1",1,"BIQ","Screen 3","iz3the",3,"response","5",23979.968,49925.791,49942.4569999999,23979.968,49925.791,49942.4569999999,1,23979.968,25962.4889999999,0,NA,"Rating Scale","Rating Scale",2,"object-53","BIQ",NA,"SUPAMT52969"
"12",1694024582831,"06/09/2023 18:23:02",1694010182831,-4,"06/09/2023 10:23:02",142246,8,"questionnaire-uu2n",NA,31534019,9331540,NA,"complete","mdhysq","30LB5CDZNI9BLS09MR96WYV2B5IZ0X","computer","Desktop or Laptop","Windows 10","Chrome 116.0.0.0","1280x1024","1280x875",NA,NA,0,"BIQ (Charlotte)",2,"In","ABKCJDIEHFG",NA,"Spreadsheet1",1,"BIQ","Screen 3","iz3the",3,"response","6",38444.755,49925.791,49942.4569999999,38444.755,49925.791,49942.4569999999,1,38444.755,11497.7019999999,0,NA,"Rating Scale","Rating Scale",9,"object-60","BIQ",NA,"SUPAMT52969"
"13",1694024582831,"06/09/2023 18:23:02",1694010182831,-4,"06/09/2023 10:23:02",142246,8,"questionnaire-uu2n",NA,31534019,9331540,NA,"complete","mdhysq","30LB5CDZNI9BLS09MR96WYV2B5IZ0X","computer","Desktop or Laptop","Windows 10","Chrome 116.0.0.0","1280x1024","1280x875",NA,NA,0,"BIQ (Charlotte)",2,"In","ABKCJDIEHFG",NA,"Spreadsheet1",1,"BIQ","Screen 3","iz3the",3,"response","6",47908.06,49925.791,49942.4569999999,47908.06,49925.791,49942.4569999999,1,47908.06,2034.39699999994,0,NA,"Rating Scale","Rating Scale",16,"object-67","BIQ",NA,"SUPAMT52969"
"14",1694024582833,"06/09/2023 18:23:02",1694010182833,-4,"06/09/2023 10:23:02",142246,8,"questionnaire-uu2n",NA,31534019,9331540,NA,"complete","mdhysq","30LB5CDZNI9BLS09MR96WYV2B5IZ0X","computer","Desktop or Laptop","Windows 10","Chrome 116.0.0.0","1280x1024","1280x875",NA,NA,0,"BIQ (Charlotte)",2,"In","ABKCJDIEHFG",NA,"Spreadsheet1",NA,"","","",NA,"5","END",NA,NA,NA,NA,NA,NA,0,NA,NA,NA,NA,"","",NA,"","",NA,"SUPAMT52969"
"1",1694024364918,"06/09/2023 18:19:24",1694009964918,-4,"06/09/2023 10:19:24",142246,8,"questionnaire-uu2n",NA,31534049,9331580,NA,"complete","aszmrz","3DI28L7YXGDDHMUVMNZTPTDUSRPE1J","computer","Desktop or Laptop","Windows 8.1","Chrome 109.0.0.0","1366x768","1366x625",NA,NA,0,"BIQ (Charlotte)",2,"In","BCADKEJFIGH",NA,"Spreadsheet1",NA,"","","",NA,"5","BEGIN",NA,NA,NA,NA,NA,NA,0,NA,NA,NA,NA,"","",NA,"","",NA,"SUPAMT58485"
"2",1694024429711,"06/09/2023 18:20:29",1694010029711,-4,"06/09/2023 10:20:29",142246,8,"questionnaire-uu2n",NA,31534049,9331580,NA,"complete","aszmrz","3DI28L7YXGDDHMUVMNZTPTDUSRPE1J","computer","Desktop or Laptop","Windows 8.1","Chrome 109.0.0.0","1366x768","1366x625",NA,NA,0,"BIQ (Charlotte)",2,"In","BCADKEJFIGH",NA,"Spreadsheet1",1,"BIQ","Screen 1","9dh6eq",1,"continue","",64802.25,64781.25,64802.25,64802.25,64781.25,64802.25,1,64802.25,0,0,NA,"Click To Continue","Continue Button",23,"object-48","BIQ",NA,"SUPAMT58485"
"3",1694024429714,"06/09/2023 18:20:29",1694010029714,-4,"06/09/2023 10:20:29",142246,8,"questionnaire-uu2n",NA,31534049,9331580,NA,"complete","aszmrz","3DI28L7YXGDDHMUVMNZTPTDUSRPE1J","computer","Desktop or Laptop","Windows 8.1","Chrome 109.0.0.0","1366x768","1366x625",NA,NA,0,"BIQ (Charlotte)",2,"In","BCADKEJFIGH",NA,"Spreadsheet1",1,"BIQ","Screen 1","9dh6eq",1,"response","4",42125,64781.25,64808.25,42125,64781.25,64808.25,1,42125,22683.25,0,NA,"Rating Scale","Rating Scale",3,"object-5","BIQ",NA,"SUPAMT58485"
"4",1694024429714,"06/09/2023 18:20:29",1694010029714,-4,"06/09/2023 10:20:29",142246,8,"questionnaire-uu2n",NA,31534049,9331580,NA,"complete","aszmrz","3DI28L7YXGDDHMUVMNZTPTDUSRPE1J","computer","Desktop or Laptop","Windows 8.1","Chrome 109.0.0.0","1366x768","1366x625",NA,NA,0,"BIQ (Charlotte)",2,"In","BCADKEJFIGH",NA,"Spreadsheet1",1,"BIQ","Screen 1","9dh6eq",1,"response","7",57031.25,64781.25,64808.25,57031.25,64781.25,64808.25,1,57031.25,7777,0,NA,"Rating Scale","Rating Scale",10,"object-18","BIQ",NA,"SUPAMT58485"
"5",1694024429714,"06/09/2023 18:20:29",1694010029714,-4,"06/09/2023 10:20:29",142246,8,"questionnaire-uu2n",NA,31534049,9331580,NA,"complete","aszmrz","3DI28L7YXGDDHMUVMNZTPTDUSRPE1J","computer","Desktop or Laptop","Windows 8.1","Chrome 109.0.0.0","1366x768","1366x625",NA,NA,0,"BIQ (Charlotte)",2,"In","BCADKEJFIGH",NA,"Spreadsheet1",1,"BIQ","Screen 1","9dh6eq",1,"response","6",63531.25,64781.25,64808.25,63531.25,64781.25,64808.25,1,63531.25,1277,0,NA,"Rating Scale","Rating Scale",17,"object-80","BIQ",NA,"SUPAMT58485"
"6",1694024450596,"06/09/2023 18:20:50",1694010050596,-4,"06/09/2023 10:20:50",142246,8,"questionnaire-uu2n",NA,31534049,9331580,NA,"complete","aszmrz","3DI28L7YXGDDHMUVMNZTPTDUSRPE1J","computer","Desktop or Laptop","Windows 8.1","Chrome 109.0.0.0","1366x768","1366x625",NA,NA,0,"BIQ (Charlotte)",2,"In","BCADKEJFIGH",NA,"Spreadsheet1",1,"BIQ","Screen 2","o21mwi",2,"continue","",20909,20906.25,20909,20909,20906.25,20909,1,20909,0,0,NA,"Click To Continue","Continue Button",22,"object-50","BIQ",NA,"SUPAMT58485"
"7",1694024450599,"06/09/2023 18:20:50",1694010050599,-4,"06/09/2023 10:20:50",142246,8,"questionnaire-uu2n",NA,31534049,9331580,NA,"complete","aszmrz","3DI28L7YXGDDHMUVMNZTPTDUSRPE1J","computer","Desktop or Laptop","Windows 8.1","Chrome 109.0.0.0","1366x768","1366x625",NA,NA,0,"BIQ (Charlotte)",2,"In","BCADKEJFIGH",NA,"Spreadsheet1",1,"BIQ","Screen 2","o21mwi",2,"response","6",6531.25,20906.25,20912,6531.25,20906.25,20912,1,6531.25,14380.75,0,NA,"Rating Scale","Rating Scale",2,"object-259","BIQ",NA,"SUPAMT58485"
"8",1694024450600,"06/09/2023 18:20:50",1694010050600,-4,"06/09/2023 10:20:50",142246,8,"questionnaire-uu2n",NA,31534049,9331580,NA,"complete","aszmrz","3DI28L7YXGDDHMUVMNZTPTDUSRPE1J","computer","Desktop or Laptop","Windows 8.1","Chrome 109.0.0.0","1366x768","1366x625",NA,NA,0,"BIQ (Charlotte)",2,"In","BCADKEJFIGH",NA,"Spreadsheet1",1,"BIQ","Screen 2","o21mwi",2,"response","2",11187.5,20906.25,20912,11187.5,20906.25,20912,1,11187.5,9724.5,0,NA,"Rating Scale","Rating Scale",9,"object-36","BIQ",NA,"SUPAMT58485"
"9",1694024450600,"06/09/2023 18:20:50",1694010050600,-4,"06/09/2023 10:20:50",142246,8,"questionnaire-uu2n",NA,31534049,9331580,NA,"complete","aszmrz","3DI28L7YXGDDHMUVMNZTPTDUSRPE1J","computer","Desktop or Laptop","Windows 8.1","Chrome 109.0.0.0","1366x768","1366x625",NA,NA,0,"BIQ (Charlotte)",2,"In","BCADKEJFIGH",NA,"Spreadsheet1",1,"BIQ","Screen 2","o21mwi",2,"response","3",20343.75,20906.25,20913,20343.75,20906.25,20913,1,20343.75,569.25,0,NA,"Rating Scale","Rating Scale",16,"object-86","BIQ",NA,"SUPAMT58485"
"10",1694024477815,"06/09/2023 18:21:17",1694010077815,-4,"06/09/2023 10:21:17",142246,8,"questionnaire-uu2n",NA,31534049,9331580,NA,"complete","aszmrz","3DI28L7YXGDDHMUVMNZTPTDUSRPE1J","computer","Desktop or Laptop","Windows 8.1","Chrome 109.0.0.0","1366x768","1366x625",NA,NA,0,"BIQ (Charlotte)",2,"In","BCADKEJFIGH",NA,"Spreadsheet1",1,"BIQ","Screen 3","iz3the",3,"continue","",27221.75,27218.75,27221.75,27221.75,27218.75,27221.75,1,27221.75,0,0,NA,"Click To Continue","Continue Button",22,"object-73","BIQ",NA,"SUPAMT58485"
"11",1694024477819,"06/09/2023 18:21:17",1694010077819,-4,"06/09/2023 10:21:17",142246,8,"questionnaire-uu2n",NA,31534049,9331580,NA,"complete","aszmrz","3DI28L7YXGDDHMUVMNZTPTDUSRPE1J","computer","Desktop or Laptop","Windows 8.1","Chrome 109.0.0.0","1366x768","1366x625",NA,NA,0,"BIQ (Charlotte)",2,"In","BCADKEJFIGH",NA,"Spreadsheet1",1,"BIQ","Screen 3","iz3the",3,"response","2",19875,27218.75,27225.75,19875,27218.75,27225.75,1,19875,7350.75,0,NA,"Rating Scale","Rating Scale",2,"object-53","BIQ",NA,"SUPAMT58485"
"12",1694024477820,"06/09/2023 18:21:17",1694010077820,-4,"06/09/2023 10:21:17",142246,8,"questionnaire-uu2n",NA,31534049,9331580,NA,"complete","aszmrz","3DI28L7YXGDDHMUVMNZTPTDUSRPE1J","computer","Desktop or Laptop","Windows 8.1","Chrome 109.0.0.0","1366x768","1366x625",NA,NA,0,"BIQ (Charlotte)",2,"In","BCADKEJFIGH",NA,"Spreadsheet1",1,"BIQ","Screen 3","iz3the",3,"response","6",23750,27218.75,27226.75,23750,27218.75,27226.75,1,23750,3476.75,0,NA,"Rating Scale","Rating Scale",9,"object-60","BIQ",NA,"SUPAMT58485"
"13",1694024477820,"06/09/2023 18:21:17",1694010077820,-4,"06/09/2023 10:21:17",142246,8,"questionnaire-uu2n",NA,31534049,9331580,NA,"complete","aszmrz","3DI28L7YXGDDHMUVMNZTPTDUSRPE1J","computer","Desktop or Laptop","Windows 8.1","Chrome 109.0.0.0","1366x768","1366x625",NA,NA,0,"BIQ (Charlotte)",2,"In","BCADKEJFIGH",NA,"Spreadsheet1",1,"BIQ","Screen 3","iz3the",3,"response","7",26531.25,27218.75,27226.75,26531.25,27218.75,27226.75,1,26531.25,695.5,0,NA,"Rating Scale","Rating Scale",16,"object-67","BIQ",NA,"SUPAMT58485"
"14",1694024477825,"06/09/2023 18:21:17",1694010077825,-4,"06/09/2023 10:21:17",142246,8,"questionnaire-uu2n",NA,31534049,9331580,NA,"complete","aszmrz","3DI28L7YXGDDHMUVMNZTPTDUSRPE1J","computer","Desktop or Laptop","Windows 8.1","Chrome 109.0.0.0","1366x768","1366x625",NA,NA,0,"BIQ (Charlotte)",2,"In","BCADKEJFIGH",NA,"Spreadsheet1",NA,"","","",NA,"5","END",NA,NA,NA,NA,NA,NA,0,NA,NA,NA,NA,"","",NA,"","",NA,"SUPAMT58485"
"1",1694045916196,"07/09/2023 00:18:36",1694031516196,-4,"06/09/2023 16:18:36",142246,8,"questionnaire-uu2n",NA,31533989,9331600,NA,"complete","zxbeud","3L0KT67Y8KFBHBAGZ7Q7SXSJZIJSY1","computer","Desktop or Laptop","Windows 10","Chrome 116.0.0.0","1366x768","1366x619",NA,NA,0,"BIQ (Charlotte)",2,"In","CDBEAFKGJHI",NA,"Spreadsheet1",NA,"","","",NA,"5","BEGIN",NA,NA,NA,NA,NA,NA,0,NA,NA,NA,NA,"","",NA,"","",NA,"SUPAMT04349"
"2",1694045927196,"07/09/2023 00:18:47",1694031527196,-4,"06/09/2023 16:18:47",142246,8,"questionnaire-uu2n",NA,31533989,9331600,NA,"complete","zxbeud","3L0KT67Y8KFBHBAGZ7Q7SXSJZIJSY1","computer","Desktop or Laptop","Windows 10","Chrome 116.0.0.0","1366x768","1366x619",NA,NA,0,"BIQ (Charlotte)",2,"In","CDBEAFKGJHI",NA,"Spreadsheet1",1,"BIQ","Screen 1","9dh6eq",1,"continue","",11006.2680000119,10986.666,11006.2680000119,11006.2680000119,10986.666,11006.2680000119,1,11006.2680000119,0,0,NA,"Click To Continue","Continue Button",23,"object-48","BIQ",NA,"SUPAMT04349"
"3",1694045927199,"07/09/2023 00:18:47",1694031527199,-4,"06/09/2023 16:18:47",142246,8,"questionnaire-uu2n",NA,31533989,9331600,NA,"complete","zxbeud","3L0KT67Y8KFBHBAGZ7Q7SXSJZIJSY1","computer","Desktop or Laptop","Windows 10","Chrome 116.0.0.0","1366x768","1366x619",NA,NA,0,"BIQ (Charlotte)",2,"In","CDBEAFKGJHI",NA,"Spreadsheet1",1,"BIQ","Screen 1","9dh6eq",1,"response","6",5098.078,10986.666,11013.6680000179,5098.078,10986.666,11013.6680000179,1,5098.078,5915.59000001788,0,NA,"Rating Scale","Rating Scale",3,"object-5","BIQ",NA,"SUPAMT04349"
"4",1694045927199,"07/09/2023 00:18:47",1694031527199,-4,"06/09/2023 16:18:47",142246,8,"questionnaire-uu2n",NA,31533989,9331600,NA,"complete","zxbeud","3L0KT67Y8KFBHBAGZ7Q7SXSJZIJSY1","computer","Desktop or Laptop","Windows 10","Chrome 116.0.0.0","1366x768","1366x619",NA,NA,0,"BIQ (Charlotte)",2,"In","CDBEAFKGJHI",NA,"Spreadsheet1",1,"BIQ","Screen 1","9dh6eq",1,"response","4",6705.303,10986.666,11014.067999994,6705.303,10986.666,11014.067999994,1,6705.303,4308.76499999404,0,NA,"Rating Scale","Rating Scale",10,"object-18","BIQ",NA,"SUPAMT04349"
"5",1694045927199,"07/09/2023 00:18:47",1694031527199,-4,"06/09/2023 16:18:47",142246,8,"questionnaire-uu2n",NA,31533989,9331600,NA,"complete","zxbeud","3L0KT67Y8KFBHBAGZ7Q7SXSJZIJSY1","computer","Desktop or Laptop","Windows 10","Chrome 116.0.0.0","1366x768","1366x619",NA,NA,0,"BIQ (Charlotte)",2,"In","CDBEAFKGJHI",NA,"Spreadsheet1",1,"BIQ","Screen 1","9dh6eq",1,"response","6",7548.103,10986.666,11014.368000006,7548.103,10986.666,11014.368000006,1,7548.103,3466.26500000596,0,NA,"Rating Scale","Rating Scale",17,"object-80","BIQ",NA,"SUPAMT04349"
"6",1694045931982,"07/09/2023 00:18:51",1694031531982,-4,"06/09/2023 16:18:51",142246,8,"questionnaire-uu2n",NA,31533989,9331600,NA,"complete","zxbeud","3L0KT67Y8KFBHBAGZ7Q7SXSJZIJSY1","computer","Desktop or Laptop","Windows 10","Chrome 116.0.0.0","1366x768","1366x619",NA,NA,0,"BIQ (Charlotte)",2,"In","CDBEAFKGJHI",NA,"Spreadsheet1",1,"BIQ","Screen 2","o21mwi",2,"continue","",4810.10200001192,4806.785,4810.10200001192,4810.10200001192,4806.785,4810.10200001192,1,4810.10200001192,0,0,NA,"Click To Continue","Continue Button",22,"object-50","BIQ",NA,"SUPAMT04349"
"7",1694045931983,"07/09/2023 00:18:51",1694031531983,-4,"06/09/2023 16:18:51",142246,8,"questionnaire-uu2n",NA,31533989,9331600,NA,"complete","zxbeud","3L0KT67Y8KFBHBAGZ7Q7SXSJZIJSY1","computer","Desktop or Laptop","Windows 10","Chrome 116.0.0.0","1366x768","1366x619",NA,NA,0,"BIQ (Charlotte)",2,"In","CDBEAFKGJHI",NA,"Spreadsheet1",1,"BIQ","Screen 2","o21mwi",2,"response","6",2176.035,4806.785,4811.302,2176.035,4806.785,4811.302,1,2176.035,2635.267,0,NA,"Rating Scale","Rating Scale",2,"object-259","BIQ",NA,"SUPAMT04349"
"8",1694045931984,"07/09/2023 00:18:51",1694031531984,-4,"06/09/2023 16:18:51",142246,8,"questionnaire-uu2n",NA,31533989,9331600,NA,"complete","zxbeud","3L0KT67Y8KFBHBAGZ7Q7SXSJZIJSY1","computer","Desktop or Laptop","Windows 10","Chrome 116.0.0.0","1366x768","1366x619",NA,NA,0,"BIQ (Charlotte)",2,"In","CDBEAFKGJHI",NA,"Spreadsheet1",1,"BIQ","Screen 2","o21mwi",2,"response","4",2950.776,4806.785,4812.20200000596,2950.776,4806.785,4812.20200000596,1,2950.776,1861.42600000596,0,NA,"Rating Scale","Rating Scale",9,"object-36","BIQ",NA,"SUPAMT04349"
"9",1694045931985,"07/09/2023 00:18:51",1694031531985,-4,"06/09/2023 16:18:51",142246,8,"questionnaire-uu2n",NA,31533989,9331600,NA,"complete","zxbeud","3L0KT67Y8KFBHBAGZ7Q7SXSJZIJSY1","computer","Desktop or Laptop","Windows 10","Chrome 116.0.0.0","1366x768","1366x619",NA,NA,0,"BIQ (Charlotte)",2,"In","CDBEAFKGJHI",NA,"Spreadsheet1",1,"BIQ","Screen 2","o21mwi",2,"response","5",3752.735,4806.785,4813.00200001788,3752.735,4806.785,4813.00200001788,1,3752.735,1060.26700001788,0,NA,"Rating Scale","Rating Scale",16,"object-86","BIQ",NA,"SUPAMT04349"
"10",1694045936371,"07/09/2023 00:18:56",1694031536371,-4,"06/09/2023 16:18:56",142246,8,"questionnaire-uu2n",NA,31533989,9331600,NA,"complete","zxbeud","3L0KT67Y8KFBHBAGZ7Q7SXSJZIJSY1","computer","Desktop or Laptop","Windows 10","Chrome 116.0.0.0","1366x768","1366x619",NA,NA,0,"BIQ (Charlotte)",2,"In","CDBEAFKGJHI",NA,"Spreadsheet1",1,"BIQ","Screen 3","iz3the",3,"continue","",4392.517,4369.031,4392.517,4392.517,4369.031,4392.517,1,4392.517,0,0,NA,"Click To Continue","Continue Button",22,"object-73","BIQ",NA,"SUPAMT04349"
"11",1694045936372,"07/09/2023 00:18:56",1694031536372,-4,"06/09/2023 16:18:56",142246,8,"questionnaire-uu2n",NA,31533989,9331600,NA,"complete","zxbeud","3L0KT67Y8KFBHBAGZ7Q7SXSJZIJSY1","computer","Desktop or Laptop","Windows 10","Chrome 116.0.0.0","1366x768","1366x619",NA,NA,0,"BIQ (Charlotte)",2,"In","CDBEAFKGJHI",NA,"Spreadsheet1",1,"BIQ","Screen 3","iz3the",3,"response","6",1612.394,4369.031,4393.31700001192,1612.394,4369.031,4393.31700001192,1,1612.394,2780.92300001192,0,NA,"Rating Scale","Rating Scale",2,"object-53","BIQ",NA,"SUPAMT04349"
"12",1694045936372,"07/09/2023 00:18:56",1694031536372,-4,"06/09/2023 16:18:56",142246,8,"questionnaire-uu2n",NA,31533989,9331600,NA,"complete","zxbeud","3L0KT67Y8KFBHBAGZ7Q7SXSJZIJSY1","computer","Desktop or Laptop","Windows 10","Chrome 116.0.0.0","1366x768","1366x619",NA,NA,0,"BIQ (Charlotte)",2,"In","CDBEAFKGJHI",NA,"Spreadsheet1",1,"BIQ","Screen 3","iz3the",3,"response","6",2292.216,4369.031,4393.91700000596,2292.216,4369.031,4393.91700000596,1,2292.216,2101.70100000596,0,NA,"Rating Scale","Rating Scale",9,"object-60","BIQ",NA,"SUPAMT04349"
"13",1694045936373,"07/09/2023 00:18:56",1694031536373,-4,"06/09/2023 16:18:56",142246,8,"questionnaire-uu2n",NA,31533989,9331600,NA,"complete","zxbeud","3L0KT67Y8KFBHBAGZ7Q7SXSJZIJSY1","computer","Desktop or Laptop","Windows 10","Chrome 116.0.0.0","1366x768","1366x619",NA,NA,0,"BIQ (Charlotte)",2,"In","CDBEAFKGJHI",NA,"Spreadsheet1",1,"BIQ","Screen 3","iz3the",3,"response","5",3125.425,4369.031,4394.517,3125.425,4369.031,4394.517,1,3125.425,1269.092,0,NA,"Rating Scale","Rating Scale",16,"object-67","BIQ",NA,"SUPAMT04349"
"14",1694045936375,"07/09/2023 00:18:56",1694031536375,-4,"06/09/2023 16:18:56",142246,8,"questionnaire-uu2n",NA,31533989,9331600,NA,"complete","zxbeud","3L0KT67Y8KFBHBAGZ7Q7SXSJZIJSY1","computer","Desktop or Laptop","Windows 10","Chrome 116.0.0.0","1366x768","1366x619",NA,NA,0,"BIQ (Charlotte)",2,"In","CDBEAFKGJHI",NA,"Spreadsheet1",NA,"","","",NA,"5","END",NA,NA,NA,NA,NA,NA,0,NA,NA,NA,NA,"","",NA,"","",NA,"SUPAMT04349"
"1",1694028667238,"06/09/2023 19:31:07",1694010667238,-5,"06/09/2023 09:31:07",142246,8,"questionnaire-uu2n",NA,31534541,9331688,NA,"complete","wqkjju","3IKZ72A5BAF8171GMLHX4IBX77HNFI","computer","Desktop or Laptop","Windows 10","Chrome 116.0.0.0","1707x960","1366x668",NA,NA,0,"BIQ (Charlotte)",2,"In","EFDGCHBIAJK",NA,"Spreadsheet1",NA,"","","",NA,"5","BEGIN",NA,NA,NA,NA,NA,NA,0,NA,NA,NA,NA,"","",NA,"","",NA,"SUPAMT54694"
"2",1694028735305,"06/09/2023 19:32:15",1694010735305,-5,"06/09/2023 09:32:15",142246,8,"questionnaire-uu2n",NA,31534541,9331688,NA,"complete","wqkjju","3IKZ72A5BAF8171GMLHX4IBX77HNFI","computer","Desktop or Laptop","Windows 10","Chrome 116.0.0.0","1707x960","1366x668",NA,NA,0,"BIQ (Charlotte)",2,"In","EFDGCHBIAJK",NA,"Spreadsheet1",1,"BIQ","Screen 1","9dh6eq",1,"continue","",68077.501,68059.727,68077.501,68077.501,68059.727,68077.501,1,68077.501,0,0,NA,"Click To Continue","Continue Button",23,"object-48","BIQ",NA,"SUPAMT54694"
"3",1694028735306,"06/09/2023 19:32:15",1694010735306,-5,"06/09/2023 09:32:15",142246,8,"questionnaire-uu2n",NA,31534541,9331688,NA,"complete","wqkjju","3IKZ72A5BAF8171GMLHX4IBX77HNFI","computer","Desktop or Laptop","Windows 10","Chrome 116.0.0.0","1707x960","1366x668",NA,NA,0,"BIQ (Charlotte)",2,"In","EFDGCHBIAJK",NA,"Spreadsheet1",1,"BIQ","Screen 1","9dh6eq",1,"response","4",56604.615,68059.727,68077.587,56604.615,68059.727,68077.587,1,56604.615,11472.972,0,NA,"Rating Scale","Rating Scale",3,"object-5","BIQ",NA,"SUPAMT54694"
"4",1694028735307,"06/09/2023 19:32:15",1694010735307,-5,"06/09/2023 09:32:15",142246,8,"questionnaire-uu2n",NA,31534541,9331688,NA,"complete","wqkjju","3IKZ72A5BAF8171GMLHX4IBX77HNFI","computer","Desktop or Laptop","Windows 10","Chrome 116.0.0.0","1707x960","1366x668",NA,NA,0,"BIQ (Charlotte)",2,"In","EFDGCHBIAJK",NA,"Spreadsheet1",1,"BIQ","Screen 1","9dh6eq",1,"response","2",63251.08,68059.727,68077.587,63251.08,68059.727,68077.587,1,63251.08,4826.507,0,NA,"Rating Scale","Rating Scale",10,"object-18","BIQ",NA,"SUPAMT54694"
"5",1694028735307,"06/09/2023 19:32:15",1694010735307,-5,"06/09/2023 09:32:15",142246,8,"questionnaire-uu2n",NA,31534541,9331688,NA,"complete","wqkjju","3IKZ72A5BAF8171GMLHX4IBX77HNFI","computer","Desktop or Laptop","Windows 10","Chrome 116.0.0.0","1707x960","1366x668",NA,NA,0,"BIQ (Charlotte)",2,"In","EFDGCHBIAJK",NA,"Spreadsheet1",1,"BIQ","Screen 1","9dh6eq",1,"response","2",67095.725,68059.727,68077.587,67095.725,68059.727,68077.587,1,67095.725,981.861999999994,0,NA,"Rating Scale","Rating Scale",17,"object-80","BIQ",NA,"SUPAMT54694"
"6",1694028754932,"06/09/2023 19:32:34",1694010754932,-5,"06/09/2023 09:32:34",142246,8,"questionnaire-uu2n",NA,31534541,9331688,NA,"complete","wqkjju","3IKZ72A5BAF8171GMLHX4IBX77HNFI","computer","Desktop or Laptop","Windows 10","Chrome 116.0.0.0","1707x960","1366x668",NA,NA,0,"BIQ (Charlotte)",2,"In","EFDGCHBIAJK",NA,"Spreadsheet1",1,"BIQ","Screen 2","o21mwi",2,"continue","",19647.0739999998,19639.011,19647.0739999998,19647.0739999998,19639.011,19647.0739999998,1,19647.0739999998,0,0,NA,"Click To Continue","Continue Button",22,"object-50","BIQ",NA,"SUPAMT54694"
"7",1694028754933,"06/09/2023 19:32:34",1694010754933,-5,"06/09/2023 09:32:34",142246,8,"questionnaire-uu2n",NA,31534541,9331688,NA,"complete","wqkjju","3IKZ72A5BAF8171GMLHX4IBX77HNFI","computer","Desktop or Laptop","Windows 10","Chrome 116.0.0.0","1707x960","1366x668",NA,NA,0,"BIQ (Charlotte)",2,"In","EFDGCHBIAJK",NA,"Spreadsheet1",1,"BIQ","Screen 2","o21mwi",2,"response","8",6842.757,19639.011,19648.6740000004,6842.757,19639.011,19648.6740000004,1,6842.757,12805.9170000004,0,NA,"Rating Scale","Rating Scale",2,"object-259","BIQ",NA,"SUPAMT54694"
"8",1694028754934,"06/09/2023 19:32:34",1694010754934,-5,"06/09/2023 09:32:34",142246,8,"questionnaire-uu2n",NA,31534541,9331688,NA,"complete","wqkjju","3IKZ72A5BAF8171GMLHX4IBX77HNFI","computer","Desktop or Laptop","Windows 10","Chrome 116.0.0.0","1707x960","1366x668",NA,NA,0,"BIQ (Charlotte)",2,"In","EFDGCHBIAJK",NA,"Spreadsheet1",1,"BIQ","Screen 2","o21mwi",2,"response","2",11122.465,19639.011,19648.9740000002,11122.465,19639.011,19648.9740000002,1,11122.465,8526.50900000018,0,NA,"Rating Scale","Rating Scale",9,"object-36","BIQ",NA,"SUPAMT54694"
"9",1694028754934,"06/09/2023 19:32:34",1694010754934,-5,"06/09/2023 09:32:34",142246,8,"questionnaire-uu2n",NA,31534541,9331688,NA,"complete","wqkjju","3IKZ72A5BAF8171GMLHX4IBX77HNFI","computer","Desktop or Laptop","Windows 10","Chrome 116.0.0.0","1707x960","1366x668",NA,NA,0,"BIQ (Charlotte)",2,"In","EFDGCHBIAJK",NA,"Spreadsheet1",1,"BIQ","Screen 2","o21mwi",2,"response","0",18599.258,19639.011,19649.274,18599.258,19639.011,19649.274,1,18599.258,1050.016,0,NA,"Rating Scale","Rating Scale",16,"object-86","BIQ",NA,"SUPAMT54694"
"10",1694028766146,"06/09/2023 19:32:46",1694010766146,-5,"06/09/2023 09:32:46",142246,8,"questionnaire-uu2n",NA,31534541,9331688,NA,"complete","wqkjju","3IKZ72A5BAF8171GMLHX4IBX77HNFI","computer","Desktop or Laptop","Windows 10","Chrome 116.0.0.0","1707x960","1366x668",NA,NA,0,"BIQ (Charlotte)",2,"In","EFDGCHBIAJK",NA,"Spreadsheet1",1,"BIQ","Screen 3","iz3the",3,"continue","",11222.763,11213.329,11222.763,11222.763,11213.329,11222.763,1,11222.763,0,0,NA,"Click To Continue","Continue Button",22,"object-73","BIQ",NA,"SUPAMT54694"
"11",1694028766148,"06/09/2023 19:32:46",1694010766148,-5,"06/09/2023 09:32:46",142246,8,"questionnaire-uu2n",NA,31534541,9331688,NA,"complete","wqkjju","3IKZ72A5BAF8171GMLHX4IBX77HNFI","computer","Desktop or Laptop","Windows 10","Chrome 116.0.0.0","1707x960","1366x668",NA,NA,0,"BIQ (Charlotte)",2,"In","EFDGCHBIAJK",NA,"Spreadsheet1",1,"BIQ","Screen 3","iz3the",3,"response","0",5033.82000000001,11213.329,11224.263,5033.82000000001,11213.329,11224.263,1,5033.82000000001,6190.443,0,NA,"Rating Scale","Rating Scale",2,"object-53","BIQ",NA,"SUPAMT54694"
"12",1694028766148,"06/09/2023 19:32:46",1694010766148,-5,"06/09/2023 09:32:46",142246,8,"questionnaire-uu2n",NA,31534541,9331688,NA,"complete","wqkjju","3IKZ72A5BAF8171GMLHX4IBX77HNFI","computer","Desktop or Laptop","Windows 10","Chrome 116.0.0.0","1707x960","1366x668",NA,NA,0,"BIQ (Charlotte)",2,"In","EFDGCHBIAJK",NA,"Spreadsheet1",1,"BIQ","Screen 3","iz3the",3,"response","0",7637.02200000001,11213.329,11224.4630000002,7637.02200000001,11213.329,11224.4630000002,1,7637.02200000001,3587.44100000018,0,NA,"Rating Scale","Rating Scale",9,"object-60","BIQ",NA,"SUPAMT54694"
"13",1694028766148,"06/09/2023 19:32:46",1694010766148,-5,"06/09/2023 09:32:46",142246,8,"questionnaire-uu2n",NA,31534541,9331688,NA,"complete","wqkjju","3IKZ72A5BAF8171GMLHX4IBX77HNFI","computer","Desktop or Laptop","Windows 10","Chrome 116.0.0.0","1707x960","1366x668",NA,NA,0,"BIQ (Charlotte)",2,"In","EFDGCHBIAJK",NA,"Spreadsheet1",1,"BIQ","Screen 3","iz3the",3,"response","0",10189.196,11213.329,11224.6630000004,10189.196,11213.329,11224.6630000004,1,10189.196,1035.46700000037,0,NA,"Rating Scale","Rating Scale",16,"object-67","BIQ",NA,"SUPAMT54694"
"14",1694028766149,"06/09/2023 19:32:46",1694010766149,-5,"06/09/2023 09:32:46",142246,8,"questionnaire-uu2n",NA,31534541,9331688,NA,"complete","wqkjju","3IKZ72A5BAF8171GMLHX4IBX77HNFI","computer","Desktop or Laptop","Windows 10","Chrome 116.0.0.0","1707x960","1366x668",NA,NA,0,"BIQ (Charlotte)",2,"In","EFDGCHBIAJK",NA,"Spreadsheet1",NA,"","","",NA,"5","END",NA,NA,NA,NA,NA,NA,0,NA,NA,NA,NA,"","",NA,"","",NA,"SUPAMT54694"
"1",1694025310800,"06/09/2023 18:35:10",1694010910800,-4,"06/09/2023 10:35:10",142246,8,"questionnaire-uu2n",NA,31534698,9331703,NA,"complete","hieajp","3HVVDCPGTKRCWBNVO7VX22O5Z7KTYO","computer","Desktop or Laptop","Windows 10","Chrome 116.0.0.0","1366x768","1517x765",NA,NA,0,"BIQ (Charlotte)",2,"In","FGEHDICJBKA",NA,"Spreadsheet1",NA,"","","",NA,"5","BEGIN",NA,NA,NA,NA,NA,NA,0,NA,NA,NA,NA,"","",NA,"","",NA,"SUPAMT05187"
"2",1694025342957,"06/09/2023 18:35:42",1694010942957,-4,"06/09/2023 10:35:42",142246,8,"questionnaire-uu2n",NA,31534698,9331703,NA,"complete","hieajp","3HVVDCPGTKRCWBNVO7VX22O5Z7KTYO","computer","Desktop or Laptop","Windows 10","Chrome 116.0.0.0","1366x768","1517x765",NA,NA,0,"BIQ (Charlotte)",2,"In","FGEHDICJBKA",NA,"Spreadsheet1",1,"BIQ","Screen 1","9dh6eq",1,"continue","",32193.3309999523,32176.977,32193.3309999523,32193.3309999523,32176.977,32193.3309999523,1,32193.3309999523,0,0,NA,"Click To Continue","Continue Button",23,"object-48","BIQ",NA,"SUPAMT05187"
"3",1694025342960,"06/09/2023 18:35:42",1694010942960,-4,"06/09/2023 10:35:42",142246,8,"questionnaire-uu2n",NA,31534698,9331703,NA,"complete","hieajp","3HVVDCPGTKRCWBNVO7VX22O5Z7KTYO","computer","Desktop or Laptop","Windows 10","Chrome 116.0.0.0","1366x768","1517x765",NA,NA,0,"BIQ (Charlotte)",2,"In","FGEHDICJBKA",NA,"Spreadsheet1",1,"BIQ","Screen 1","9dh6eq",1,"response","6",8998.136,32176.977,32193.649,8998.136,32176.977,32193.649,1,8998.136,23195.513,0,NA,"Rating Scale","Rating Scale",3,"object-5","BIQ",NA,"SUPAMT05187"
"4",1694025342961,"06/09/2023 18:35:42",1694010942961,-4,"06/09/2023 10:35:42",142246,8,"questionnaire-uu2n",NA,31534698,9331703,NA,"complete","hieajp","3HVVDCPGTKRCWBNVO7VX22O5Z7KTYO","computer","Desktop or Laptop","Windows 10","Chrome 116.0.0.0","1366x768","1517x765",NA,NA,0,"BIQ (Charlotte)",2,"In","FGEHDICJBKA",NA,"Spreadsheet1",1,"BIQ","Screen 1","9dh6eq",1,"response","7",14080.493,32176.977,32193.649,14080.493,32176.977,32193.649,1,14080.493,18113.156,0,NA,"Rating Scale","Rating Scale",10,"object-18","BIQ",NA,"SUPAMT05187"
"5",1694025342962,"06/09/2023 18:35:42",1694010942962,-4,"06/09/2023 10:35:42",142246,8,"questionnaire-uu2n",NA,31534698,9331703,NA,"complete","hieajp","3HVVDCPGTKRCWBNVO7VX22O5Z7KTYO","computer","Desktop or Laptop","Windows 10","Chrome 116.0.0.0","1366x768","1517x765",NA,NA,0,"BIQ (Charlotte)",2,"In","FGEHDICJBKA",NA,"Spreadsheet1",1,"BIQ","Screen 1","9dh6eq",1,"response","0",27361.234,32176.977,32193.649,27361.234,32176.977,32193.649,1,27361.234,4832.41500000001,0,NA,"Rating Scale","Rating Scale",17,"object-80","BIQ",NA,"SUPAMT05187"
"6",1694025359480,"06/09/2023 18:35:59",1694010959480,-4,"06/09/2023 10:35:59",142246,8,"questionnaire-uu2n",NA,31534698,9331703,NA,"complete","hieajp","3HVVDCPGTKRCWBNVO7VX22O5Z7KTYO","computer","Desktop or Laptop","Windows 10","Chrome 116.0.0.0","1366x768","1517x765",NA,NA,0,"BIQ (Charlotte)",2,"In","FGEHDICJBKA",NA,"Spreadsheet1",1,"BIQ","Screen 2","o21mwi",2,"continue","",16539.054,16530.238,16539.054,16539.054,16530.238,16539.054,1,16539.054,0,0,NA,"Click To Continue","Continue Button",22,"object-50","BIQ",NA,"SUPAMT05187"
"7",1694025359489,"06/09/2023 18:35:59",1694010959489,-4,"06/09/2023 10:35:59",142246,8,"questionnaire-uu2n",NA,31534698,9331703,NA,"complete","hieajp","3HVVDCPGTKRCWBNVO7VX22O5Z7KTYO","computer","Desktop or Laptop","Windows 10","Chrome 116.0.0.0","1366x768","1517x765",NA,NA,0,"BIQ (Charlotte)",2,"In","FGEHDICJBKA",NA,"Spreadsheet1",1,"BIQ","Screen 2","o21mwi",2,"response","7",3965.91,16530.238,16546.885,3965.91,16530.238,16546.885,1,3965.91,12580.975,0,NA,"Rating Scale","Rating Scale",2,"object-259","BIQ",NA,"SUPAMT05187"
"8",1694025359492,"06/09/2023 18:35:59",1694010959492,-4,"06/09/2023 10:35:59",142246,8,"questionnaire-uu2n",NA,31534698,9331703,NA,"complete","hieajp","3HVVDCPGTKRCWBNVO7VX22O5Z7KTYO","computer","Desktop or Laptop","Windows 10","Chrome 116.0.0.0","1366x768","1517x765",NA,NA,0,"BIQ (Charlotte)",2,"In","FGEHDICJBKA",NA,"Spreadsheet1",1,"BIQ","Screen 2","o21mwi",2,"response","1",12247.703,16530.238,16546.885,12247.703,16530.238,16546.885,1,12247.703,4299.18200000001,0,NA,"Rating Scale","Rating Scale",9,"object-36","BIQ",NA,"SUPAMT05187"
"9",1694025359494,"06/09/2023 18:35:59",1694010959494,-4,"06/09/2023 10:35:59",142246,8,"questionnaire-uu2n",NA,31534698,9331703,NA,"complete","hieajp","3HVVDCPGTKRCWBNVO7VX22O5Z7KTYO","computer","Desktop or Laptop","Windows 10","Chrome 116.0.0.0","1366x768","1517x765",NA,NA,0,"BIQ (Charlotte)",2,"In","FGEHDICJBKA",NA,"Spreadsheet1",1,"BIQ","Screen 2","o21mwi",2,"response","0",15413.669,16530.238,16546.885,15413.669,16530.238,16546.885,1,15413.669,1133.21600000001,0,NA,"Rating Scale","Rating Scale",16,"object-86","BIQ",NA,"SUPAMT05187"
"10",1694025372111,"06/09/2023 18:36:12",1694010972111,-4,"06/09/2023 10:36:12",142246,8,"questionnaire-uu2n",NA,31534698,9331703,NA,"complete","hieajp","3HVVDCPGTKRCWBNVO7VX22O5Z7KTYO","computer","Desktop or Laptop","Windows 10","Chrome 116.0.0.0","1366x768","1517x765",NA,NA,0,"BIQ (Charlotte)",2,"In","FGEHDICJBKA",NA,"Spreadsheet1",1,"BIQ","Screen 3","iz3the",3,"continue","",12639.816,12630.817,12639.816,12639.816,12630.817,12639.816,1,12639.816,0,0,NA,"Click To Continue","Continue Button",22,"object-73","BIQ",NA,"SUPAMT05187"
"11",1694025372120,"06/09/2023 18:36:12",1694010972120,-4,"06/09/2023 10:36:12",142246,8,"questionnaire-uu2n",NA,31534698,9331703,NA,"complete","hieajp","3HVVDCPGTKRCWBNVO7VX22O5Z7KTYO","computer","Desktop or Laptop","Windows 10","Chrome 116.0.0.0","1366x768","1517x765",NA,NA,0,"BIQ (Charlotte)",2,"In","FGEHDICJBKA",NA,"Spreadsheet1",1,"BIQ","Screen 3","iz3the",3,"response","0",3132.634,12630.817,12647.483,3132.634,12630.817,12647.483,1,3132.634,9514.849,0,NA,"Rating Scale","Rating Scale",2,"object-53","BIQ",NA,"SUPAMT05187"
"12",1694025372123,"06/09/2023 18:36:12",1694010972123,-4,"06/09/2023 10:36:12",142246,8,"questionnaire-uu2n",NA,31534698,9331703,NA,"complete","hieajp","3HVVDCPGTKRCWBNVO7VX22O5Z7KTYO","computer","Desktop or Laptop","Windows 10","Chrome 116.0.0.0","1366x768","1517x765",NA,NA,0,"BIQ (Charlotte)",2,"In","FGEHDICJBKA",NA,"Spreadsheet1",1,"BIQ","Screen 3","iz3the",3,"response","1",6631.932,12630.817,12647.483,6631.932,12630.817,12647.483,1,6631.932,6015.55099999999,0,NA,"Rating Scale","Rating Scale",9,"object-60","BIQ",NA,"SUPAMT05187"
"13",1694025372126,"06/09/2023 18:36:12",1694010972126,-4,"06/09/2023 10:36:12",142246,8,"questionnaire-uu2n",NA,31534698,9331703,NA,"complete","hieajp","3HVVDCPGTKRCWBNVO7VX22O5Z7KTYO","computer","Desktop or Laptop","Windows 10","Chrome 116.0.0.0","1366x768","1517x765",NA,NA,0,"BIQ (Charlotte)",2,"In","FGEHDICJBKA",NA,"Spreadsheet1",1,"BIQ","Screen 3","iz3the",3,"response","0",11647.732,12630.817,12647.483,11647.732,12630.817,12647.483,1,11647.732,999.750999999997,0,NA,"Rating Scale","Rating Scale",16,"object-67","BIQ",NA,"SUPAMT05187"
"14",1694025372133,"06/09/2023 18:36:12",1694010972133,-4,"06/09/2023 10:36:12",142246,8,"questionnaire-uu2n",NA,31534698,9331703,NA,"complete","hieajp","3HVVDCPGTKRCWBNVO7VX22O5Z7KTYO","computer","Desktop or Laptop","Windows 10","Chrome 116.0.0.0","1366x768","1517x765",NA,NA,0,"BIQ (Charlotte)",2,"In","FGEHDICJBKA",NA,"Spreadsheet1",NA,"","","",NA,"5","END",NA,NA,NA,NA,NA,NA,0,NA,NA,NA,NA,"","",NA,"","",NA,"SUPAMT05187"
"1",1694052251954,"07/09/2023 02:04:11",1694037851954,-4,"06/09/2023 18:04:11",142246,8,"questionnaire-uu2n",NA,31536778,9332062,NA,"complete","jkjqop","3BV8HQ2ZZ205YVEGCO9OO6EKE2KA6O","computer","Desktop or Laptop","Windows 10","Chrome 116.0.0.0","1366x768","1366x619",NA,NA,0,"BIQ (Charlotte)",2,"In","GHFIEJDKCAB",NA,"Spreadsheet1",NA,"","","",NA,"5","BEGIN",NA,NA,NA,NA,NA,NA,0,NA,NA,NA,NA,"","",NA,"","",NA,"SUPAMT57890"
"2",1694052257108,"07/09/2023 02:04:17",1694037857108,-4,"06/09/2023 18:04:17",142246,8,"questionnaire-uu2n",NA,31536778,9332062,NA,"complete","jkjqop","3BV8HQ2ZZ205YVEGCO9OO6EKE2KA6O","computer","Desktop or Laptop","Windows 10","Chrome 116.0.0.0","1366x768","1366x619",NA,NA,0,"BIQ (Charlotte)",2,"In","GHFIEJDKCAB",NA,"Spreadsheet1",1,"BIQ","Screen 1","9dh6eq",1,"continue","",5183.33500002384,5167.155,5183.33500002384,5183.33500002384,5167.155,5183.33500002384,1,5183.33500002384,0,0,NA,"Click To Continue","Continue Button",23,"object-48","BIQ",NA,"SUPAMT57890"
"3",1694052257109,"07/09/2023 02:04:17",1694037857109,-4,"06/09/2023 18:04:17",142246,8,"questionnaire-uu2n",NA,31536778,9332062,NA,"complete","jkjqop","3BV8HQ2ZZ205YVEGCO9OO6EKE2KA6O","computer","Desktop or Laptop","Windows 10","Chrome 116.0.0.0","1366x768","1366x619",NA,NA,0,"BIQ (Charlotte)",2,"In","GHFIEJDKCAB",NA,"Spreadsheet1",1,"BIQ","Screen 1","9dh6eq",1,"response","5",2040.102,5167.155,5188.33500002384,2040.102,5167.155,5188.33500002384,1,2040.102,3148.23300002384,0,NA,"Rating Scale","Rating Scale",3,"object-5","BIQ",NA,"SUPAMT57890"
"4",1694052257109,"07/09/2023 02:04:17",1694037857109,-4,"06/09/2023 18:04:17",142246,8,"questionnaire-uu2n",NA,31536778,9332062,NA,"complete","jkjqop","3BV8HQ2ZZ205YVEGCO9OO6EKE2KA6O","computer","Desktop or Laptop","Windows 10","Chrome 116.0.0.0","1366x768","1366x619",NA,NA,0,"BIQ (Charlotte)",2,"In","GHFIEJDKCAB",NA,"Spreadsheet1",1,"BIQ","Screen 1","9dh6eq",1,"response","6",2660.149,5167.155,5188.63500000596,2660.149,5167.155,5188.63500000596,1,2660.149,2528.48600000596,0,NA,"Rating Scale","Rating Scale",10,"object-18","BIQ",NA,"SUPAMT57890"
"5",1694052257109,"07/09/2023 02:04:17",1694037857109,-4,"06/09/2023 18:04:17",142246,8,"questionnaire-uu2n",NA,31536778,9332062,NA,"complete","jkjqop","3BV8HQ2ZZ205YVEGCO9OO6EKE2KA6O","computer","Desktop or Laptop","Windows 10","Chrome 116.0.0.0","1366x768","1366x619",NA,NA,0,"BIQ (Charlotte)",2,"In","GHFIEJDKCAB",NA,"Spreadsheet1",1,"BIQ","Screen 1","9dh6eq",1,"response","5",4393.68,5167.155,5188.93500001788,4393.68,5167.155,5188.93500001788,1,4393.68,795.255000017882,0,NA,"Rating Scale","Rating Scale",17,"object-80","BIQ",NA,"SUPAMT57890"
"6",1694052262044,"07/09/2023 02:04:22",1694037862044,-4,"06/09/2023 18:04:22",142246,8,"questionnaire-uu2n",NA,31536778,9332062,NA,"complete","jkjqop","3BV8HQ2ZZ205YVEGCO9OO6EKE2KA6O","computer","Desktop or Laptop","Windows 10","Chrome 116.0.0.0","1366x768","1366x619",NA,NA,0,"BIQ (Charlotte)",2,"In","GHFIEJDKCAB",NA,"Spreadsheet1",1,"BIQ","Screen 2","o21mwi",2,"continue","",4955.98000000596,4953.276,4955.98000000596,4955.98000000596,4953.276,4955.98000000596,1,4955.98000000596,0,0,NA,"Click To Continue","Continue Button",22,"object-50","BIQ",NA,"SUPAMT57890"
"7",1694052262046,"07/09/2023 02:04:22",1694037862046,-4,"06/09/2023 18:04:22",142246,8,"questionnaire-uu2n",NA,31536778,9332062,NA,"complete","jkjqop","3BV8HQ2ZZ205YVEGCO9OO6EKE2KA6O","computer","Desktop or Laptop","Windows 10","Chrome 116.0.0.0","1366x768","1366x619",NA,NA,0,"BIQ (Charlotte)",2,"In","GHFIEJDKCAB",NA,"Spreadsheet1",1,"BIQ","Screen 2","o21mwi",2,"response","6",1638.991,4953.276,4958.18000002384,1638.991,4953.276,4958.18000002384,1,1638.991,3319.18900002384,0,NA,"Rating Scale","Rating Scale",2,"object-259","BIQ",NA,"SUPAMT57890"
"8",1694052262046,"07/09/2023 02:04:22",1694037862046,-4,"06/09/2023 18:04:22",142246,8,"questionnaire-uu2n",NA,31536778,9332062,NA,"complete","jkjqop","3BV8HQ2ZZ205YVEGCO9OO6EKE2KA6O","computer","Desktop or Laptop","Windows 10","Chrome 116.0.0.0","1366x768","1366x619",NA,NA,0,"BIQ (Charlotte)",2,"In","GHFIEJDKCAB",NA,"Spreadsheet1",1,"BIQ","Screen 2","o21mwi",2,"response","6",4055.916,4953.276,4958.58,4055.916,4953.276,4958.58,1,4055.916,902.664000000001,0,NA,"Rating Scale","Rating Scale",9,"object-36","BIQ",NA,"SUPAMT57890"
"9",1694052262046,"07/09/2023 02:04:22",1694037862046,-4,"06/09/2023 18:04:22",142246,8,"questionnaire-uu2n",NA,31536778,9332062,NA,"complete","jkjqop","3BV8HQ2ZZ205YVEGCO9OO6EKE2KA6O","computer","Desktop or Laptop","Windows 10","Chrome 116.0.0.0","1366x768","1366x619",NA,NA,0,"BIQ (Charlotte)",2,"In","GHFIEJDKCAB",NA,"Spreadsheet1",1,"BIQ","Screen 2","o21mwi",2,"response","5",3156.741,4953.276,4958.98000000596,3156.741,4953.276,4958.98000000596,1,3156.741,1802.23900000596,0,NA,"Rating Scale","Rating Scale",16,"object-86","BIQ",NA,"SUPAMT57890"
"10",1694052278330,"07/09/2023 02:04:38",1694037878330,-4,"06/09/2023 18:04:38",142246,8,"questionnaire-uu2n",NA,31536778,9332062,NA,"complete","jkjqop","3BV8HQ2ZZ205YVEGCO9OO6EKE2KA6O","computer","Desktop or Laptop","Windows 10","Chrome 116.0.0.0","1366x768","1366x619",NA,NA,0,"BIQ (Charlotte)",2,"In","GHFIEJDKCAB",NA,"Spreadsheet1",1,"BIQ","Screen 3","iz3the",3,"continue","",16288.704000006,16279.318,16288.704000006,16288.704000006,16279.318,16288.704000006,1,16288.704000006,0,0,NA,"Click To Continue","Continue Button",22,"object-73","BIQ",NA,"SUPAMT57890"
"11",1694052278332,"07/09/2023 02:04:38",1694037878332,-4,"06/09/2023 18:04:38",142246,8,"questionnaire-uu2n",NA,31536778,9332062,NA,"complete","jkjqop","3BV8HQ2ZZ205YVEGCO9OO6EKE2KA6O","computer","Desktop or Laptop","Windows 10","Chrome 116.0.0.0","1366x768","1366x619",NA,NA,0,"BIQ (Charlotte)",2,"In","GHFIEJDKCAB",NA,"Spreadsheet1",1,"BIQ","Screen 3","iz3the",3,"response","5",14020.132,16279.318,16290.804,14020.132,16279.318,16290.804,1,14020.132,2270.672,0,NA,"Rating Scale","Rating Scale",2,"object-53","BIQ",NA,"SUPAMT57890"
"12",1694052278332,"07/09/2023 02:04:38",1694037878332,-4,"06/09/2023 18:04:38",142246,8,"questionnaire-uu2n",NA,31536778,9332062,NA,"complete","jkjqop","3BV8HQ2ZZ205YVEGCO9OO6EKE2KA6O","computer","Desktop or Laptop","Windows 10","Chrome 116.0.0.0","1366x768","1366x619",NA,NA,0,"BIQ (Charlotte)",2,"In","GHFIEJDKCAB",NA,"Spreadsheet1",1,"BIQ","Screen 3","iz3the",3,"response","6",15011.083,16279.318,16291.304,15011.083,16279.318,16291.304,1,15011.083,1280.221,0,NA,"Rating Scale","Rating Scale",9,"object-60","BIQ",NA,"SUPAMT57890"
"13",1694052278332,"07/09/2023 02:04:38",1694037878332,-4,"06/09/2023 18:04:38",142246,8,"questionnaire-uu2n",NA,31536778,9332062,NA,"complete","jkjqop","3BV8HQ2ZZ205YVEGCO9OO6EKE2KA6O","computer","Desktop or Laptop","Windows 10","Chrome 116.0.0.0","1366x768","1366x619",NA,NA,0,"BIQ (Charlotte)",2,"In","GHFIEJDKCAB",NA,"Spreadsheet1",1,"BIQ","Screen 3","iz3the",3,"response","6",15612.395,16279.318,16291.804,15612.395,16279.318,16291.804,1,15612.395,679.409,0,NA,"Rating Scale","Rating Scale",16,"object-67","BIQ",NA,"SUPAMT57890"
"14",1694052278334,"07/09/2023 02:04:38",1694037878334,-4,"06/09/2023 18:04:38",142246,8,"questionnaire-uu2n",NA,31536778,9332062,NA,"complete","jkjqop","3BV8HQ2ZZ205YVEGCO9OO6EKE2KA6O","computer","Desktop or Laptop","Windows 10","Chrome 116.0.0.0","1366x768","1366x619",NA,NA,0,"BIQ (Charlotte)",2,"In","GHFIEJDKCAB",NA,"Spreadsheet1",NA,"","","",NA,"5","END",NA,NA,NA,NA,NA,NA,0,NA,NA,NA,NA,"","",NA,"","",NA,"SUPAMT57890"
"1",1694043233011,"06/09/2023 23:33:53",1694028833011,-4,"06/09/2023 15:33:53",142246,8,"questionnaire-uu2n",NA,31542225,9332792,NA,"complete","ovgzzt","3TS1AR6UQWDJYM9T6E088LP77EKF7F","computer","Desktop or Laptop","Mac OS 10.15.7","Chrome 116.0.0.0","1728x1117","1352x878",NA,NA,0,"BIQ (Charlotte)",2,"In","IJHKGAFBECD",NA,"Spreadsheet1",NA,"","","",NA,"5","BEGIN",NA,NA,NA,NA,NA,NA,0,NA,NA,NA,NA,"","",NA,"","",NA,"SUPAMT82251"
"2",1694043261473,"06/09/2023 23:34:21",1694028861473,-4,"06/09/2023 15:34:21",142246,8,"questionnaire-uu2n",NA,31542225,9332792,NA,"complete","ovgzzt","3TS1AR6UQWDJYM9T6E088LP77EKF7F","computer","Desktop or Laptop","Mac OS 10.15.7","Chrome 116.0.0.0","1728x1117","1352x878",NA,NA,0,"BIQ (Charlotte)",2,"In","IJHKGAFBECD",NA,"Spreadsheet1",1,"BIQ","Screen 1","9dh6eq",1,"continue","",28476.2480000001,28470.798,28476.2480000001,28476.2480000001,28470.798,28476.2480000001,1,28476.2480000001,0,0,NA,"Click To Continue","Continue Button",23,"object-48","BIQ",NA,"SUPAMT82251"
"3",1694043261476,"06/09/2023 23:34:21",1694028861476,-4,"06/09/2023 15:34:21",142246,8,"questionnaire-uu2n",NA,31542225,9332792,NA,"complete","ovgzzt","3TS1AR6UQWDJYM9T6E088LP77EKF7F","computer","Desktop or Laptop","Mac OS 10.15.7","Chrome 116.0.0.0","1728x1117","1352x878",NA,NA,0,"BIQ (Charlotte)",2,"In","IJHKGAFBECD",NA,"Spreadsheet1",1,"BIQ","Screen 1","9dh6eq",1,"response","7",15450.114,28470.798,28479.131,15450.114,28470.798,28479.131,1,15450.114,13029.017,0,NA,"Rating Scale","Rating Scale",3,"object-5","BIQ",NA,"SUPAMT82251"
"4",1694043261476,"06/09/2023 23:34:21",1694028861476,-4,"06/09/2023 15:34:21",142246,8,"questionnaire-uu2n",NA,31542225,9332792,NA,"complete","ovgzzt","3TS1AR6UQWDJYM9T6E088LP77EKF7F","computer","Desktop or Laptop","Mac OS 10.15.7","Chrome 116.0.0.0","1728x1117","1352x878",NA,NA,0,"BIQ (Charlotte)",2,"In","IJHKGAFBECD",NA,"Spreadsheet1",1,"BIQ","Screen 1","9dh6eq",1,"response","1",23321.004,28470.798,28479.131,23321.004,28470.798,28479.131,1,23321.004,5158.127,0,NA,"Rating Scale","Rating Scale",10,"object-18","BIQ",NA,"SUPAMT82251"
"5",1694043261476,"06/09/2023 23:34:21",1694028861476,-4,"06/09/2023 15:34:21",142246,8,"questionnaire-uu2n",NA,31542225,9332792,NA,"complete","ovgzzt","3TS1AR6UQWDJYM9T6E088LP77EKF7F","computer","Desktop or Laptop","Mac OS 10.15.7","Chrome 116.0.0.0","1728x1117","1352x878",NA,NA,0,"BIQ (Charlotte)",2,"In","IJHKGAFBECD",NA,"Spreadsheet1",1,"BIQ","Screen 1","9dh6eq",1,"response","2",27437.506,28470.798,28479.131,27437.506,28470.798,28479.131,1,27437.506,1041.625,0,NA,"Rating Scale","Rating Scale",17,"object-80","BIQ",NA,"SUPAMT82251"
"6",1694043286492,"06/09/2023 23:34:46",1694028886492,-4,"06/09/2023 15:34:46",142246,8,"questionnaire-uu2n",NA,31542225,9332792,NA,"complete","ovgzzt","3TS1AR6UQWDJYM9T6E088LP77EKF7F","computer","Desktop or Laptop","Mac OS 10.15.7","Chrome 116.0.0.0","1728x1117","1352x878",NA,NA,0,"BIQ (Charlotte)",2,"In","IJHKGAFBECD",NA,"Spreadsheet1",1,"BIQ","Screen 2","o21mwi",2,"continue","",25020.934,25012.601,25020.934,25020.934,25012.601,25020.934,1,25020.934,0,0,NA,"Click To Continue","Continue Button",22,"object-50","BIQ",NA,"SUPAMT82251"
"7",1694043286495,"06/09/2023 23:34:46",1694028886495,-4,"06/09/2023 15:34:46",142246,8,"questionnaire-uu2n",NA,31542225,9332792,NA,"complete","ovgzzt","3TS1AR6UQWDJYM9T6E088LP77EKF7F","computer","Desktop or Laptop","Mac OS 10.15.7","Chrome 116.0.0.0","1728x1117","1352x878",NA,NA,0,"BIQ (Charlotte)",2,"In","IJHKGAFBECD",NA,"Spreadsheet1",1,"BIQ","Screen 2","o21mwi",2,"response","6",8270.871,25012.601,25020.934,8270.871,25012.601,25020.934,1,8270.871,16750.063,0,NA,"Rating Scale","Rating Scale",2,"object-259","BIQ",NA,"SUPAMT82251"
"8",1694043286496,"06/09/2023 23:34:46",1694028886496,-4,"06/09/2023 15:34:46",142246,8,"questionnaire-uu2n",NA,31542225,9332792,NA,"complete","ovgzzt","3TS1AR6UQWDJYM9T6E088LP77EKF7F","computer","Desktop or Laptop","Mac OS 10.15.7","Chrome 116.0.0.0","1728x1117","1352x878",NA,NA,0,"BIQ (Charlotte)",2,"In","IJHKGAFBECD",NA,"Spreadsheet1",1,"BIQ","Screen 2","o21mwi",2,"response","2",16145.924,25012.601,25020.934,16145.924,25012.601,25020.934,1,16145.924,8875.01,0,NA,"Rating Scale","Rating Scale",9,"object-36","BIQ",NA,"SUPAMT82251"
"9",1694043286496,"06/09/2023 23:34:46",1694028886496,-4,"06/09/2023 15:34:46",142246,8,"questionnaire-uu2n",NA,31542225,9332792,NA,"complete","ovgzzt","3TS1AR6UQWDJYM9T6E088LP77EKF7F","computer","Desktop or Laptop","Mac OS 10.15.7","Chrome 116.0.0.0","1728x1117","1352x878",NA,NA,0,"BIQ (Charlotte)",2,"In","IJHKGAFBECD",NA,"Spreadsheet1",1,"BIQ","Screen 2","o21mwi",2,"response","0",24245.6,25012.601,25020.934,24245.6,25012.601,25020.934,1,24245.6,775.333999999995,0,NA,"Rating Scale","Rating Scale",16,"object-86","BIQ",NA,"SUPAMT82251"
"10",1694043300670,"06/09/2023 23:35:00",1694028900670,-4,"06/09/2023 15:35:00",142246,8,"questionnaire-uu2n",NA,31542225,9332792,NA,"complete","ovgzzt","3TS1AR6UQWDJYM9T6E088LP77EKF7F","computer","Desktop or Laptop","Mac OS 10.15.7","Chrome 116.0.0.0","1728x1117","1352x878",NA,NA,0,"BIQ (Charlotte)",2,"In","IJHKGAFBECD",NA,"Spreadsheet1",1,"BIQ","Screen 3","iz3the",3,"continue","",14189.5489999998,14183.135,14189.5489999998,14189.5489999998,14183.135,14189.5489999998,1,14189.5489999998,0,0,NA,"Click To Continue","Continue Button",22,"object-73","BIQ",NA,"SUPAMT82251"
"11",1694043300673,"06/09/2023 23:35:00",1694028900673,-4,"06/09/2023 15:35:00",142246,8,"questionnaire-uu2n",NA,31542225,9332792,NA,"complete","ovgzzt","3TS1AR6UQWDJYM9T6E088LP77EKF7F","computer","Desktop or Laptop","Mac OS 10.15.7","Chrome 116.0.0.0","1728x1117","1352x878",NA,NA,0,"BIQ (Charlotte)",2,"In","IJHKGAFBECD",NA,"Spreadsheet1",1,"BIQ","Screen 3","iz3the",3,"response","0",4949.802,14183.135,14191.468,4949.802,14183.135,14191.468,1,4949.802,9241.666,0,NA,"Rating Scale","Rating Scale",2,"object-53","BIQ",NA,"SUPAMT82251"
"12",1694043300674,"06/09/2023 23:35:00",1694028900674,-4,"06/09/2023 15:35:00",142246,8,"questionnaire-uu2n",NA,31542225,9332792,NA,"complete","ovgzzt","3TS1AR6UQWDJYM9T6E088LP77EKF7F","computer","Desktop or Laptop","Mac OS 10.15.7","Chrome 116.0.0.0","1728x1117","1352x878",NA,NA,0,"BIQ (Charlotte)",2,"In","IJHKGAFBECD",NA,"Spreadsheet1",1,"BIQ","Screen 3","iz3the",3,"response","2",7341.37300000001,14183.135,14191.468,7341.37300000001,14183.135,14191.468,1,7341.37300000001,6850.09499999999,0,NA,"Rating Scale","Rating Scale",9,"object-60","BIQ",NA,"SUPAMT82251"
"13",1694043300674,"06/09/2023 23:35:00",1694028900674,-4,"06/09/2023 15:35:00",142246,8,"questionnaire-uu2n",NA,31542225,9332792,NA,"complete","ovgzzt","3TS1AR6UQWDJYM9T6E088LP77EKF7F","computer","Desktop or Laptop","Mac OS 10.15.7","Chrome 116.0.0.0","1728x1117","1352x878",NA,NA,0,"BIQ (Charlotte)",2,"In","IJHKGAFBECD",NA,"Spreadsheet1",1,"BIQ","Screen 3","iz3the",3,"response","0",13608.158,14183.135,14191.468,13608.158,14183.135,14191.468,1,13608.158,583.309999999998,0,NA,"Rating Scale","Rating Scale",16,"object-67","BIQ",NA,"SUPAMT82251"
"14",1694043300676,"06/09/2023 23:35:00",1694028900676,-4,"06/09/2023 15:35:00",142246,8,"questionnaire-uu2n",NA,31542225,9332792,NA,"complete","ovgzzt","3TS1AR6UQWDJYM9T6E088LP77EKF7F","computer","Desktop or Laptop","Mac OS 10.15.7","Chrome 116.0.0.0","1728x1117","1352x878",NA,NA,0,"BIQ (Charlotte)",2,"In","IJHKGAFBECD",NA,"Spreadsheet1",NA,"","","",NA,"5","END",NA,NA,NA,NA,NA,NA,0,NA,NA,NA,NA,"","",NA,"","",NA,"SUPAMT82251"
"1",1694050853776,"07/09/2023 01:40:53",1694036453776,-4,"06/09/2023 17:40:53",142246,8,"questionnaire-uu2n",NA,31544899,9333115,NA,"complete","gaylyz","3NXNZ5RS1GWAXCIG3S0GYP3W3W279N","computer","Desktop or Laptop","Windows 10","Chrome 116.0.0.0","1280x720","1280x603",NA,NA,0,"BIQ (Charlotte)",2,"In","JKIAHBGCFDE",NA,"Spreadsheet1",NA,"","","",NA,"5","BEGIN",NA,NA,NA,NA,NA,NA,0,NA,NA,NA,NA,"","",NA,"","",NA,"SUPAMT39501"
"2",1694050877235,"07/09/2023 01:41:17",1694036477235,-4,"06/09/2023 17:41:17",142246,8,"questionnaire-uu2n",NA,31544899,9333115,NA,"complete","gaylyz","3NXNZ5RS1GWAXCIG3S0GYP3W3W279N","computer","Desktop or Laptop","Windows 10","Chrome 116.0.0.0","1280x720","1280x603",NA,NA,0,"BIQ (Charlotte)",2,"In","JKIAHBGCFDE",NA,"Spreadsheet1",1,"BIQ","Screen 1","9dh6eq",1,"continue","",23482.1,23472.188,23482.1,23482.1,23472.188,23482.1,1,23482.1,0,0,NA,"Click To Continue","Continue Button",23,"object-48","BIQ",NA,"SUPAMT39501"
"3",1694050877239,"07/09/2023 01:41:17",1694036477239,-4,"06/09/2023 17:41:17",142246,8,"questionnaire-uu2n",NA,31544899,9333115,NA,"complete","gaylyz","3NXNZ5RS1GWAXCIG3S0GYP3W3W279N","computer","Desktop or Laptop","Windows 10","Chrome 116.0.0.0","1280x720","1280x603",NA,NA,0,"BIQ (Charlotte)",2,"In","JKIAHBGCFDE",NA,"Spreadsheet1",1,"BIQ","Screen 1","9dh6eq",1,"response","4",7468.363,23472.188,23488.1,7468.363,23472.188,23488.1,1,7468.363,16019.737,0,NA,"Rating Scale","Rating Scale",3,"object-5","BIQ",NA,"SUPAMT39501"
"4",1694050877242,"07/09/2023 01:41:17",1694036477242,-4,"06/09/2023 17:41:17",142246,8,"questionnaire-uu2n",NA,31544899,9333115,NA,"complete","gaylyz","3NXNZ5RS1GWAXCIG3S0GYP3W3W279N","computer","Desktop or Laptop","Windows 10","Chrome 116.0.0.0","1280x720","1280x603",NA,NA,0,"BIQ (Charlotte)",2,"In","JKIAHBGCFDE",NA,"Spreadsheet1",1,"BIQ","Screen 1","9dh6eq",1,"response","7",19287.579,23472.188,23488.844,19287.579,23472.188,23488.844,1,19287.579,4201.265,0,NA,"Rating Scale","Rating Scale",10,"object-18","BIQ",NA,"SUPAMT39501"
"5",1694050877243,"07/09/2023 01:41:17",1694036477243,-4,"06/09/2023 17:41:17",142246,8,"questionnaire-uu2n",NA,31544899,9333115,NA,"complete","gaylyz","3NXNZ5RS1GWAXCIG3S0GYP3W3W279N","computer","Desktop or Laptop","Windows 10","Chrome 116.0.0.0","1280x720","1280x603",NA,NA,0,"BIQ (Charlotte)",2,"In","JKIAHBGCFDE",NA,"Spreadsheet1",1,"BIQ","Screen 1","9dh6eq",1,"response","1",22054.911,23472.188,23488.844,22054.911,23472.188,23488.844,1,22054.911,1433.933,0,NA,"Rating Scale","Rating Scale",17,"object-80","BIQ",NA,"SUPAMT39501"
"6",1694050892671,"07/09/2023 01:41:32",1694036492671,-4,"06/09/2023 17:41:32",142246,8,"questionnaire-uu2n",NA,31544899,9333115,NA,"complete","gaylyz","3NXNZ5RS1GWAXCIG3S0GYP3W3W279N","computer","Desktop or Laptop","Windows 10","Chrome 116.0.0.0","1280x720","1280x603",NA,NA,0,"BIQ (Charlotte)",2,"In","JKIAHBGCFDE",NA,"Spreadsheet1",1,"BIQ","Screen 2","o21mwi",2,"continue","",15448.1119999955,15436.481,15448.1119999955,15448.1119999955,15436.481,15448.1119999955,1,15448.1119999955,0,0,NA,"Click To Continue","Continue Button",22,"object-50","BIQ",NA,"SUPAMT39501"
"7",1694050892676,"07/09/2023 01:41:32",1694036492676,-4,"06/09/2023 17:41:32",142246,8,"questionnaire-uu2n",NA,31544899,9333115,NA,"complete","gaylyz","3NXNZ5RS1GWAXCIG3S0GYP3W3W279N","computer","Desktop or Laptop","Windows 10","Chrome 116.0.0.0","1280x720","1280x603",NA,NA,0,"BIQ (Charlotte)",2,"In","JKIAHBGCFDE",NA,"Spreadsheet1",1,"BIQ","Screen 2","o21mwi",2,"response","8",8934.95,15436.481,15452.511999994,8934.95,15436.481,15452.511999994,1,8934.95,6517.56199999404,0,NA,"Rating Scale","Rating Scale",2,"object-259","BIQ",NA,"SUPAMT39501"
"8",1694050892677,"07/09/2023 01:41:32",1694036492677,-4,"06/09/2023 17:41:32",142246,8,"questionnaire-uu2n",NA,31544899,9333115,NA,"complete","gaylyz","3NXNZ5RS1GWAXCIG3S0GYP3W3W279N","computer","Desktop or Laptop","Windows 10","Chrome 116.0.0.0","1280x720","1280x603",NA,NA,0,"BIQ (Charlotte)",2,"In","JKIAHBGCFDE",NA,"Spreadsheet1",1,"BIQ","Screen 2","o21mwi",2,"response","0",10652.355,15436.481,15453.185,10652.355,15436.481,15453.185,1,10652.355,4800.83000000001,0,NA,"Rating Scale","Rating Scale",9,"object-36","BIQ",NA,"SUPAMT39501"
"9",1694050892678,"07/09/2023 01:41:32",1694036492678,-4,"06/09/2023 17:41:32",142246,8,"questionnaire-uu2n",NA,31544899,9333115,NA,"complete","gaylyz","3NXNZ5RS1GWAXCIG3S0GYP3W3W279N","computer","Desktop or Laptop","Windows 10","Chrome 116.0.0.0","1280x720","1280x603",NA,NA,0,"BIQ (Charlotte)",2,"In","JKIAHBGCFDE",NA,"Spreadsheet1",1,"BIQ","Screen 2","o21mwi",2,"response","1",13219.227,15436.481,15453.185,13219.227,15436.481,15453.185,1,13219.227,2233.95800000001,0,NA,"Rating Scale","Rating Scale",16,"object-86","BIQ",NA,"SUPAMT39501"
"10",1694050899436,"07/09/2023 01:41:39",1694036499436,-4,"06/09/2023 17:41:39",142246,8,"questionnaire-uu2n",NA,31544899,9333115,NA,"complete","gaylyz","3NXNZ5RS1GWAXCIG3S0GYP3W3W279N","computer","Desktop or Laptop","Windows 10","Chrome 116.0.0.0","1280x720","1280x603",NA,NA,0,"BIQ (Charlotte)",2,"In","JKIAHBGCFDE",NA,"Spreadsheet1",1,"BIQ","Screen 3","iz3the",3,"continue","",6776.83099999851,6768.037,6776.83099999851,6776.83099999851,6768.037,6776.83099999851,1,6776.83099999851,0,0,NA,"Click To Continue","Continue Button",22,"object-73","BIQ",NA,"SUPAMT39501"
"11",1694050899437,"07/09/2023 01:41:39",1694036499437,-4,"06/09/2023 17:41:39",142246,8,"questionnaire-uu2n",NA,31544899,9333115,NA,"complete","gaylyz","3NXNZ5RS1GWAXCIG3S0GYP3W3W279N","computer","Desktop or Laptop","Windows 10","Chrome 116.0.0.0","1280x720","1280x603",NA,NA,0,"BIQ (Charlotte)",2,"In","JKIAHBGCFDE",NA,"Spreadsheet1",1,"BIQ","Screen 3","iz3the",3,"response","0",3684.00399999999,6768.037,6777.53099999404,3684.00399999999,6768.037,6777.53099999404,1,3684.00399999999,3093.52699999404,0,NA,"Rating Scale","Rating Scale",2,"object-53","BIQ",NA,"SUPAMT39501"
"12",1694050899437,"07/09/2023 01:41:39",1694036499437,-4,"06/09/2023 17:41:39",142246,8,"questionnaire-uu2n",NA,31544899,9333115,NA,"complete","gaylyz","3NXNZ5RS1GWAXCIG3S0GYP3W3W279N","computer","Desktop or Laptop","Windows 10","Chrome 116.0.0.0","1280x720","1280x603",NA,NA,0,"BIQ (Charlotte)",2,"In","JKIAHBGCFDE",NA,"Spreadsheet1",1,"BIQ","Screen 3","iz3the",3,"response","0",4434.543,6768.037,6778.03099999404,4434.543,6768.037,6778.03099999404,1,4434.543,2343.48799999404,0,NA,"Rating Scale","Rating Scale",9,"object-60","BIQ",NA,"SUPAMT39501"
"13",1694050899439,"07/09/2023 01:41:39",1694036499439,-4,"06/09/2023 17:41:39",142246,8,"questionnaire-uu2n",NA,31544899,9333115,NA,"complete","gaylyz","3NXNZ5RS1GWAXCIG3S0GYP3W3W279N","computer","Desktop or Laptop","Windows 10","Chrome 116.0.0.0","1280x720","1280x603",NA,NA,0,"BIQ (Charlotte)",2,"In","JKIAHBGCFDE",NA,"Spreadsheet1",1,"BIQ","Screen 3","iz3the",3,"response","0",5617.793,6768.037,6779.931,5617.793,6768.037,6779.931,1,5617.793,1162.138,0,NA,"Rating Scale","Rating Scale",16,"object-67","BIQ",NA,"SUPAMT39501"
"14",1694050899441,"07/09/2023 01:41:39",1694036499441,-4,"06/09/2023 17:41:39",142246,8,"questionnaire-uu2n",NA,31544899,9333115,NA,"complete","gaylyz","3NXNZ5RS1GWAXCIG3S0GYP3W3W279N","computer","Desktop or Laptop","Windows 10","Chrome 116.0.0.0","1280x720","1280x603",NA,NA,0,"BIQ (Charlotte)",2,"In","JKIAHBGCFDE",NA,"Spreadsheet1",NA,"","","",NA,"5","END",NA,NA,NA,NA,NA,NA,0,NA,NA,NA,NA,"","",NA,"","",NA,"SUPAMT39501"
"1",1694121770945,"07/09/2023 21:22:50",1694107370945,-4,"07/09/2023 13:22:50",142246,8,"questionnaire-uu2n",NA,31560346,9335361,NA,"complete","oycgnz","3X31TUMD73LRNS4N39MX2O3E1OUL1H","computer","Desktop or Laptop","Windows 10","Chrome 116.0.0.0","1366x768","1366x619",NA,NA,0,"BIQ (Charlotte)",2,"In","KAJBICHDGEF",NA,"Spreadsheet1",NA,"","","",NA,"5","BEGIN",NA,NA,NA,NA,NA,NA,0,NA,NA,NA,NA,"","",NA,"","",NA,"SUPAMT58446"
"2",1694121788236,"07/09/2023 21:23:08",1694107388236,-4,"07/09/2023 13:23:08",142246,8,"questionnaire-uu2n",NA,31560346,9335361,NA,"complete","oycgnz","3X31TUMD73LRNS4N39MX2O3E1OUL1H","computer","Desktop or Laptop","Windows 10","Chrome 116.0.0.0","1366x768","1366x619",NA,NA,0,"BIQ (Charlotte)",2,"In","KAJBICHDGEF",NA,"Spreadsheet1",1,"BIQ","Screen 1","9dh6eq",1,"continue","",17309.5,17281.25,17309.5,17309.5,17281.25,17309.5,1,17309.5,0,0,NA,"Click To Continue","Continue Button",23,"object-48","BIQ",NA,"SUPAMT58446"
"3",1694121788239,"07/09/2023 21:23:08",1694107388239,-4,"07/09/2023 13:23:08",142246,8,"questionnaire-uu2n",NA,31560346,9335361,NA,"complete","oycgnz","3X31TUMD73LRNS4N39MX2O3E1OUL1H","computer","Desktop or Laptop","Windows 10","Chrome 116.0.0.0","1366x768","1366x619",NA,NA,0,"BIQ (Charlotte)",2,"In","KAJBICHDGEF",NA,"Spreadsheet1",1,"BIQ","Screen 1","9dh6eq",1,"response","6",3125,17281.25,17312.5,3125,17281.25,17312.5,1,3125,14187.5,0,NA,"Rating Scale","Rating Scale",3,"object-5","BIQ",NA,"SUPAMT58446"
"4",1694121788240,"07/09/2023 21:23:08",1694107388240,-4,"07/09/2023 13:23:08",142246,8,"questionnaire-uu2n",NA,31560346,9335361,NA,"complete","oycgnz","3X31TUMD73LRNS4N39MX2O3E1OUL1H","computer","Desktop or Laptop","Windows 10","Chrome 116.0.0.0","1366x768","1366x619",NA,NA,0,"BIQ (Charlotte)",2,"In","KAJBICHDGEF",NA,"Spreadsheet1",1,"BIQ","Screen 1","9dh6eq",1,"response","8",5093.75,17281.25,17312.5,5093.75,17281.25,17312.5,1,5093.75,12218.75,0,NA,"Rating Scale","Rating Scale",10,"object-18","BIQ",NA,"SUPAMT58446"
"5",1694121788241,"07/09/2023 21:23:08",1694107388241,-4,"07/09/2023 13:23:08",142246,8,"questionnaire-uu2n",NA,31560346,9335361,NA,"complete","oycgnz","3X31TUMD73LRNS4N39MX2O3E1OUL1H","computer","Desktop or Laptop","Windows 10","Chrome 116.0.0.0","1366x768","1366x619",NA,NA,0,"BIQ (Charlotte)",2,"In","KAJBICHDGEF",NA,"Spreadsheet1",1,"BIQ","Screen 1","9dh6eq",1,"response","6",6437.5,17281.25,17312.5,6437.5,17281.25,17312.5,1,6437.5,10875,0,NA,"Rating Scale","Rating Scale",17,"object-80","BIQ",NA,"SUPAMT58446"
"6",1694121792937,"07/09/2023 21:23:12",1694107392937,-4,"07/09/2023 13:23:12",142246,8,"questionnaire-uu2n",NA,31560346,9335361,NA,"complete","oycgnz","3X31TUMD73LRNS4N39MX2O3E1OUL1H","computer","Desktop or Laptop","Windows 10","Chrome 116.0.0.0","1366x768","1366x619",NA,NA,0,"BIQ (Charlotte)",2,"In","KAJBICHDGEF",NA,"Spreadsheet1",1,"BIQ","Screen 2","o21mwi",2,"continue","",4718.75,4687.5,4718.75,4718.75,4687.5,4718.75,1,4718.75,0,0,NA,"Click To Continue","Continue Button",22,"object-50","BIQ",NA,"SUPAMT58446"
"7",1694121792938,"07/09/2023 21:23:12",1694107392938,-4,"07/09/2023 13:23:12",142246,8,"questionnaire-uu2n",NA,31560346,9335361,NA,"complete","oycgnz","3X31TUMD73LRNS4N39MX2O3E1OUL1H","computer","Desktop or Laptop","Windows 10","Chrome 116.0.0.0","1366x768","1366x619",NA,NA,0,"BIQ (Charlotte)",2,"In","KAJBICHDGEF",NA,"Spreadsheet1",1,"BIQ","Screen 2","o21mwi",2,"response","5",2343.75,4687.5,4718.75,2343.75,4687.5,4718.75,1,2343.75,2375,0,NA,"Rating Scale","Rating Scale",2,"object-259","BIQ",NA,"SUPAMT58446"
"8",1694121792938,"07/09/2023 21:23:12",1694107392938,-4,"07/09/2023 13:23:12",142246,8,"questionnaire-uu2n",NA,31560346,9335361,NA,"complete","oycgnz","3X31TUMD73LRNS4N39MX2O3E1OUL1H","computer","Desktop or Laptop","Windows 10","Chrome 116.0.0.0","1366x768","1366x619",NA,NA,0,"BIQ (Charlotte)",2,"In","KAJBICHDGEF",NA,"Spreadsheet1",1,"BIQ","Screen 2","o21mwi",2,"response","7",3093.75,4687.5,4718.75,3093.75,4687.5,4718.75,1,3093.75,1625,0,NA,"Rating Scale","Rating Scale",9,"object-36","BIQ",NA,"SUPAMT58446"
"9",1694121792938,"07/09/2023 21:23:12",1694107392938,-4,"07/09/2023 13:23:12",142246,8,"questionnaire-uu2n",NA,31560346,9335361,NA,"complete","oycgnz","3X31TUMD73LRNS4N39MX2O3E1OUL1H","computer","Desktop or Laptop","Windows 10","Chrome 116.0.0.0","1366x768","1366x619",NA,NA,0,"BIQ (Charlotte)",2,"In","KAJBICHDGEF",NA,"Spreadsheet1",1,"BIQ","Screen 2","o21mwi",2,"response","7",3781.25,4687.5,4718.75,3781.25,4687.5,4718.75,1,3781.25,937.5,0,NA,"Rating Scale","Rating Scale",16,"object-86","BIQ",NA,"SUPAMT58446"
"10",1694121796797,"07/09/2023 21:23:16",1694107396797,-4,"07/09/2023 13:23:16",142246,8,"questionnaire-uu2n",NA,31560346,9335361,NA,"complete","oycgnz","3X31TUMD73LRNS4N39MX2O3E1OUL1H","computer","Desktop or Laptop","Windows 10","Chrome 116.0.0.0","1366x768","1366x619",NA,NA,0,"BIQ (Charlotte)",2,"In","KAJBICHDGEF",NA,"Spreadsheet1",1,"BIQ","Screen 3","iz3the",3,"continue","",3902.75,3875,3902.75,3902.75,3875,3902.75,1,3902.75,0,0,NA,"Click To Continue","Continue Button",22,"object-73","BIQ",NA,"SUPAMT58446"
"11",1694121796798,"07/09/2023 21:23:16",1694107396798,-4,"07/09/2023 13:23:16",142246,8,"questionnaire-uu2n",NA,31560346,9335361,NA,"complete","oycgnz","3X31TUMD73LRNS4N39MX2O3E1OUL1H","computer","Desktop or Laptop","Windows 10","Chrome 116.0.0.0","1366x768","1366x619",NA,NA,0,"BIQ (Charlotte)",2,"In","KAJBICHDGEF",NA,"Spreadsheet1",1,"BIQ","Screen 3","iz3the",3,"response","4",1843.75,3875,3903.75,1843.75,3875,3903.75,1,1843.75,2060,0,NA,"Rating Scale","Rating Scale",2,"object-53","BIQ",NA,"SUPAMT58446"
"12",1694121796798,"07/09/2023 21:23:16",1694107396798,-4,"07/09/2023 13:23:16",142246,8,"questionnaire-uu2n",NA,31560346,9335361,NA,"complete","oycgnz","3X31TUMD73LRNS4N39MX2O3E1OUL1H","computer","Desktop or Laptop","Windows 10","Chrome 116.0.0.0","1366x768","1366x619",NA,NA,0,"BIQ (Charlotte)",2,"In","KAJBICHDGEF",NA,"Spreadsheet1",1,"BIQ","Screen 3","iz3the",3,"response","8",2531.25,3875,3903.75,2531.25,3875,3903.75,1,2531.25,1372.5,0,NA,"Rating Scale","Rating Scale",9,"object-60","BIQ",NA,"SUPAMT58446"
"13",1694121796799,"07/09/2023 21:23:16",1694107396799,-4,"07/09/2023 13:23:16",142246,8,"questionnaire-uu2n",NA,31560346,9335361,NA,"complete","oycgnz","3X31TUMD73LRNS4N39MX2O3E1OUL1H","computer","Desktop or Laptop","Windows 10","Chrome 116.0.0.0","1366x768","1366x619",NA,NA,0,"BIQ (Charlotte)",2,"In","KAJBICHDGEF",NA,"Spreadsheet1",1,"BIQ","Screen 3","iz3the",3,"response","7",3375,3875,3904.75,3375,3875,3904.75,1,3375,529.75,0,NA,"Rating Scale","Rating Scale",16,"object-67","BIQ",NA,"SUPAMT58446"
"14",1694121796801,"07/09/2023 21:23:16",1694107396801,-4,"07/09/2023 13:23:16",142246,8,"questionnaire-uu2n",NA,31560346,9335361,NA,"complete","oycgnz","3X31TUMD73LRNS4N39MX2O3E1OUL1H","computer","Desktop or Laptop","Windows 10","Chrome 116.0.0.0","1366x768","1366x619",NA,NA,0,"BIQ (Charlotte)",2,"In","KAJBICHDGEF",NA,"Spreadsheet1",NA,"","","",NA,"5","END",NA,NA,NA,NA,NA,NA,0,NA,NA,NA,NA,"","",NA,"","",NA,"SUPAMT58446"
"1",1694119202826,"07/09/2023 20:40:02",1694104802826,-4,"07/09/2023 12:40:02",142246,8,"questionnaire-uu2n",NA,31568112,9337068,NA,"complete","mevyjh","3ZGVPD4G6ZGC11X0KTXGG9X76JLZTJ","computer","Desktop or Laptop","Windows 10","Chrome 116.0.0.0","1366x768","1366x619",NA,NA,0,"BIQ (Charlotte)",2,"In","ABKCJDIEHFG",NA,"Spreadsheet1",NA,"","","",NA,"5","BEGIN",NA,NA,NA,NA,NA,NA,0,NA,NA,NA,NA,"","",NA,"","",NA,"SUPAMT28732"
"2",1694119226546,"07/09/2023 20:40:26",1694104826546,-4,"07/09/2023 12:40:26",142246,8,"questionnaire-uu2n",NA,31568112,9337068,NA,"complete","mevyjh","3ZGVPD4G6ZGC11X0KTXGG9X76JLZTJ","computer","Desktop or Laptop","Windows 10","Chrome 116.0.0.0","1366x768","1366x619",NA,NA,0,"BIQ (Charlotte)",2,"In","ABKCJDIEHFG",NA,"Spreadsheet1",1,"BIQ","Screen 1","9dh6eq",1,"continue","",23738.6330000477,23733.853,23738.6330000477,23738.6330000477,23733.853,23738.6330000477,1,23738.6330000477,0,0,NA,"Click To Continue","Continue Button",23,"object-48","BIQ",NA,"SUPAMT28732"
"3",1694119226548,"07/09/2023 20:40:26",1694104826548,-4,"07/09/2023 12:40:26",142246,8,"questionnaire-uu2n",NA,31568112,9337068,NA,"complete","mevyjh","3ZGVPD4G6ZGC11X0KTXGG9X76JLZTJ","computer","Desktop or Laptop","Windows 10","Chrome 116.0.0.0","1366x768","1366x619",NA,NA,0,"BIQ (Charlotte)",2,"In","ABKCJDIEHFG",NA,"Spreadsheet1",1,"BIQ","Screen 1","9dh6eq",1,"response","5",17827.126,23733.853,23742.033000143,17827.126,23733.853,23742.033000143,1,17827.126,5914.90700014305,0,NA,"Rating Scale","Rating Scale",3,"object-5","BIQ",NA,"SUPAMT28732"
"4",1694119226548,"07/09/2023 20:40:26",1694104826548,-4,"07/09/2023 12:40:26",142246,8,"questionnaire-uu2n",NA,31568112,9337068,NA,"complete","mevyjh","3ZGVPD4G6ZGC11X0KTXGG9X76JLZTJ","computer","Desktop or Laptop","Windows 10","Chrome 116.0.0.0","1366x768","1366x619",NA,NA,0,"BIQ (Charlotte)",2,"In","ABKCJDIEHFG",NA,"Spreadsheet1",1,"BIQ","Screen 1","9dh6eq",1,"response","6",19582.884,23733.853,23742.433,19582.884,23733.853,23742.433,1,19582.884,4159.549,0,NA,"Rating Scale","Rating Scale",10,"object-18","BIQ",NA,"SUPAMT28732"
"5",1694119226549,"07/09/2023 20:40:26",1694104826549,-4,"07/09/2023 12:40:26",142246,8,"questionnaire-uu2n",NA,31568112,9337068,NA,"complete","mevyjh","3ZGVPD4G6ZGC11X0KTXGG9X76JLZTJ","computer","Desktop or Laptop","Windows 10","Chrome 116.0.0.0","1366x768","1366x619",NA,NA,0,"BIQ (Charlotte)",2,"In","ABKCJDIEHFG",NA,"Spreadsheet1",1,"BIQ","Screen 1","9dh6eq",1,"response","5",20159.549,23733.853,23742.7329999523,20159.549,23733.853,23742.7329999523,1,20159.549,3583.18399995231,0,NA,"Rating Scale","Rating Scale",17,"object-80","BIQ",NA,"SUPAMT28732"
"6",1694119234124,"07/09/2023 20:40:34",1694104834124,-4,"07/09/2023 12:40:34",142246,8,"questionnaire-uu2n",NA,31568112,9337068,NA,"complete","mevyjh","3ZGVPD4G6ZGC11X0KTXGG9X76JLZTJ","computer","Desktop or Laptop","Windows 10","Chrome 116.0.0.0","1366x768","1366x619",NA,NA,0,"BIQ (Charlotte)",2,"In","ABKCJDIEHFG",NA,"Spreadsheet1",1,"BIQ","Screen 2","o21mwi",2,"continue","",7583.98000009537,7568.096,7583.98000009537,7583.98000009537,7568.096,7583.98000009537,1,7583.98000009537,0,0,NA,"Click To Continue","Continue Button",22,"object-50","BIQ",NA,"SUPAMT28732"
"7",1694119234125,"07/09/2023 20:40:34",1694104834125,-4,"07/09/2023 12:40:34",142246,8,"questionnaire-uu2n",NA,31568112,9337068,NA,"complete","mevyjh","3ZGVPD4G6ZGC11X0KTXGG9X76JLZTJ","computer","Desktop or Laptop","Windows 10","Chrome 116.0.0.0","1366x768","1366x619",NA,NA,0,"BIQ (Charlotte)",2,"In","ABKCJDIEHFG",NA,"Spreadsheet1",1,"BIQ","Screen 2","o21mwi",2,"response","5",2172.651,7568.096,7584.76200000001,2172.651,7568.096,7584.76200000001,1,2172.651,5412.11100000001,0,NA,"Rating Scale","Rating Scale",2,"object-259","BIQ",NA,"SUPAMT28732"
"8",1694119234125,"07/09/2023 20:40:34",1694104834125,-4,"07/09/2023 12:40:34",142246,8,"questionnaire-uu2n",NA,31568112,9337068,NA,"complete","mevyjh","3ZGVPD4G6ZGC11X0KTXGG9X76JLZTJ","computer","Desktop or Laptop","Windows 10","Chrome 116.0.0.0","1366x768","1366x619",NA,NA,0,"BIQ (Charlotte)",2,"In","ABKCJDIEHFG",NA,"Spreadsheet1",1,"BIQ","Screen 2","o21mwi",2,"response","6",3323.24,7568.096,7584.76200000001,3323.24,7568.096,7584.76200000001,1,3323.24,4261.52200000001,0,NA,"Rating Scale","Rating Scale",9,"object-36","BIQ",NA,"SUPAMT28732"
"9",1694119234126,"07/09/2023 20:40:34",1694104834126,-4,"07/09/2023 12:40:34",142246,8,"questionnaire-uu2n",NA,31568112,9337068,NA,"complete","mevyjh","3ZGVPD4G6ZGC11X0KTXGG9X76JLZTJ","computer","Desktop or Laptop","Windows 10","Chrome 116.0.0.0","1366x768","1366x619",NA,NA,0,"BIQ (Charlotte)",2,"In","ABKCJDIEHFG",NA,"Spreadsheet1",1,"BIQ","Screen 2","o21mwi",2,"response","5",4285.959,7568.096,7584.76200000001,4285.959,7568.096,7584.76200000001,1,4285.959,3298.80300000001,0,NA,"Rating Scale","Rating Scale",16,"object-86","BIQ",NA,"SUPAMT28732"
"10",1694119239032,"07/09/2023 20:40:39",1694104839032,-4,"07/09/2023 12:40:39",142246,8,"questionnaire-uu2n",NA,31568112,9337068,NA,"complete","mevyjh","3ZGVPD4G6ZGC11X0KTXGG9X76JLZTJ","computer","Desktop or Laptop","Windows 10","Chrome 116.0.0.0","1366x768","1366x619",NA,NA,0,"BIQ (Charlotte)",2,"In","ABKCJDIEHFG",NA,"Spreadsheet1",1,"BIQ","Screen 3","iz3the",3,"continue","",4923.78399995231,4919.89799999999,4923.78399995231,4923.78399995231,4919.89799999999,4923.78399995231,1,4923.78399995231,0,0,NA,"Click To Continue","Continue Button",22,"object-73","BIQ",NA,"SUPAMT28732"
"11",1694119239036,"07/09/2023 20:40:39",1694104839036,-4,"07/09/2023 12:40:39",142246,8,"questionnaire-uu2n",NA,31568112,9337068,NA,"complete","mevyjh","3ZGVPD4G6ZGC11X0KTXGG9X76JLZTJ","computer","Desktop or Laptop","Windows 10","Chrome 116.0.0.0","1366x768","1366x619",NA,NA,0,"BIQ (Charlotte)",2,"In","ABKCJDIEHFG",NA,"Spreadsheet1",1,"BIQ","Screen 3","iz3the",3,"response","5",1797.172,4919.89799999999,4927.78399995231,1797.172,4919.89799999999,4927.78399995231,1,1797.172,3130.61199995231,0,NA,"Rating Scale","Rating Scale",2,"object-53","BIQ",NA,"SUPAMT28732"
"12",1694119239036,"07/09/2023 20:40:39",1694104839036,-4,"07/09/2023 12:40:39",142246,8,"questionnaire-uu2n",NA,31568112,9337068,NA,"complete","mevyjh","3ZGVPD4G6ZGC11X0KTXGG9X76JLZTJ","computer","Desktop or Laptop","Windows 10","Chrome 116.0.0.0","1366x768","1366x619",NA,NA,0,"BIQ (Charlotte)",2,"In","ABKCJDIEHFG",NA,"Spreadsheet1",1,"BIQ","Screen 3","iz3the",3,"response","6",2805.549,4919.89799999999,4928.28399995231,2805.549,4919.89799999999,4928.28399995231,1,2805.549,2122.73499995231,0,NA,"Rating Scale","Rating Scale",9,"object-60","BIQ",NA,"SUPAMT28732"
"13",1694119239037,"07/09/2023 20:40:39",1694104839037,-4,"07/09/2023 12:40:39",142246,8,"questionnaire-uu2n",NA,31568112,9337068,NA,"complete","mevyjh","3ZGVPD4G6ZGC11X0KTXGG9X76JLZTJ","computer","Desktop or Laptop","Windows 10","Chrome 116.0.0.0","1366x768","1366x619",NA,NA,0,"BIQ (Charlotte)",2,"In","ABKCJDIEHFG",NA,"Spreadsheet1",1,"BIQ","Screen 3","iz3the",3,"response","5",3501.658,4919.89799999999,4928.78399995231,3501.658,4919.89799999999,4928.78399995231,1,3501.658,1427.12599995232,0,NA,"Rating Scale","Rating Scale",16,"object-67","BIQ",NA,"SUPAMT28732"
"14",1694119239039,"07/09/2023 20:40:39",1694104839039,-4,"07/09/2023 12:40:39",142246,8,"questionnaire-uu2n",NA,31568112,9337068,NA,"complete","mevyjh","3ZGVPD4G6ZGC11X0KTXGG9X76JLZTJ","computer","Desktop or Laptop","Windows 10","Chrome 116.0.0.0","1366x768","1366x619",NA,NA,0,"BIQ (Charlotte)",2,"In","ABKCJDIEHFG",NA,"Spreadsheet1",NA,"","","",NA,"5","END",NA,NA,NA,NA,NA,NA,0,NA,NA,NA,NA,"","",NA,"","",NA,"SUPAMT28732"
"1",1694163687887,"08/09/2023 09:01:27",1694149287887,-4,"08/09/2023 01:01:27",142246,8,"questionnaire-uu2n",NA,31578797,9339308,NA,"complete","yyjdxn","34BBWHLWHGAIYSCKFUE53Y1GER9WIZ","computer","Desktop or Laptop","Windows 10","Chrome 116.0.0.0","1280x720","1280x571",NA,NA,0,"BIQ (Charlotte)",2,"In","BCADKEJFIGH",NA,"Spreadsheet1",NA,"","","",NA,"5","BEGIN",NA,NA,NA,NA,NA,NA,0,NA,NA,NA,NA,"","",NA,"","",NA,"SUPAMT93300"
"2",1694163723327,"08/09/2023 09:02:03",1694149323327,-4,"08/09/2023 01:02:03",142246,8,"questionnaire-uu2n",NA,31578797,9339308,NA,"complete","yyjdxn","34BBWHLWHGAIYSCKFUE53Y1GER9WIZ","computer","Desktop or Laptop","Windows 10","Chrome 116.0.0.0","1280x720","1280x571",NA,NA,0,"BIQ (Charlotte)",2,"In","BCADKEJFIGH",NA,"Spreadsheet1",1,"BIQ","Screen 1","9dh6eq",1,"continue","",35465.209999994,35449.397,35465.209999994,35465.209999994,35449.397,35465.209999994,1,35465.209999994,0,0,NA,"Click To Continue","Continue Button",23,"object-48","BIQ",NA,"SUPAMT93300"
"3",1694163723331,"08/09/2023 09:02:03",1694149323331,-4,"08/09/2023 01:02:03",142246,8,"questionnaire-uu2n",NA,31578797,9339308,NA,"complete","yyjdxn","34BBWHLWHGAIYSCKFUE53Y1GER9WIZ","computer","Desktop or Laptop","Windows 10","Chrome 116.0.0.0","1280x720","1280x571",NA,NA,0,"BIQ (Charlotte)",2,"In","BCADKEJFIGH",NA,"Spreadsheet1",1,"BIQ","Screen 1","9dh6eq",1,"response","8",11083.132,35449.397,35466.077,11083.132,35449.397,35466.077,1,11083.132,24382.945,0,NA,"Rating Scale","Rating Scale",3,"object-5","BIQ",NA,"SUPAMT93300"
"4",1694163723332,"08/09/2023 09:02:03",1694149323332,-4,"08/09/2023 01:02:03",142246,8,"questionnaire-uu2n",NA,31578797,9339308,NA,"complete","yyjdxn","34BBWHLWHGAIYSCKFUE53Y1GER9WIZ","computer","Desktop or Laptop","Windows 10","Chrome 116.0.0.0","1280x720","1280x571",NA,NA,0,"BIQ (Charlotte)",2,"In","BCADKEJFIGH",NA,"Spreadsheet1",1,"BIQ","Screen 1","9dh6eq",1,"response","6",25866.658,35449.397,35466.077,25866.658,35449.397,35466.077,1,25866.658,9599.41899999999,0,NA,"Rating Scale","Rating Scale",10,"object-18","BIQ",NA,"SUPAMT93300"
"5",1694163723333,"08/09/2023 09:02:03",1694149323333,-4,"08/09/2023 01:02:03",142246,8,"questionnaire-uu2n",NA,31578797,9339308,NA,"complete","yyjdxn","34BBWHLWHGAIYSCKFUE53Y1GER9WIZ","computer","Desktop or Laptop","Windows 10","Chrome 116.0.0.0","1280x720","1280x571",NA,NA,0,"BIQ (Charlotte)",2,"In","BCADKEJFIGH",NA,"Spreadsheet1",1,"BIQ","Screen 1","9dh6eq",1,"response","0",30866.112,35449.397,35466.077,30866.112,35449.397,35466.077,1,30866.112,4599.96499999999,0,NA,"Rating Scale","Rating Scale",17,"object-80","BIQ",NA,"SUPAMT93300"
"6",1694163738251,"08/09/2023 09:02:18",1694149338251,-4,"08/09/2023 01:02:18",142246,8,"questionnaire-uu2n",NA,31578797,9339308,NA,"complete","yyjdxn","34BBWHLWHGAIYSCKFUE53Y1GER9WIZ","computer","Desktop or Laptop","Windows 10","Chrome 116.0.0.0","1280x720","1280x571",NA,NA,0,"BIQ (Charlotte)",2,"In","BCADKEJFIGH",NA,"Spreadsheet1",1,"BIQ","Screen 2","o21mwi",2,"continue","",14947.6129999911,14933.124,14947.6129999911,14947.6129999911,14933.124,14947.6129999911,1,14947.6129999911,0,0,NA,"Click To Continue","Continue Button",22,"object-50","BIQ",NA,"SUPAMT93300"
"7",1694163738255,"08/09/2023 09:02:18",1694149338255,-4,"08/09/2023 01:02:18",142246,8,"questionnaire-uu2n",NA,31578797,9339308,NA,"complete","yyjdxn","34BBWHLWHGAIYSCKFUE53Y1GER9WIZ","computer","Desktop or Laptop","Windows 10","Chrome 116.0.0.0","1280x720","1280x571",NA,NA,0,"BIQ (Charlotte)",2,"In","BCADKEJFIGH",NA,"Spreadsheet1",1,"BIQ","Screen 2","o21mwi",2,"response","8",3799.914,14933.124,14949.333,3799.914,14933.124,14949.333,1,3799.914,11149.419,0,NA,"Rating Scale","Rating Scale",2,"object-259","BIQ",NA,"SUPAMT93300"
"8",1694163738256,"08/09/2023 09:02:18",1694149338256,-4,"08/09/2023 01:02:18",142246,8,"questionnaire-uu2n",NA,31578797,9339308,NA,"complete","yyjdxn","34BBWHLWHGAIYSCKFUE53Y1GER9WIZ","computer","Desktop or Laptop","Windows 10","Chrome 116.0.0.0","1280x720","1280x571",NA,NA,0,"BIQ (Charlotte)",2,"In","BCADKEJFIGH",NA,"Spreadsheet1",1,"BIQ","Screen 2","o21mwi",2,"response","0",7849.821,14933.124,14949.333,7849.821,14933.124,14949.333,1,7849.821,7099.512,0,NA,"Rating Scale","Rating Scale",9,"object-36","BIQ",NA,"SUPAMT93300"
"9",1694163738257,"08/09/2023 09:02:18",1694149338257,-4,"08/09/2023 01:02:18",142246,8,"questionnaire-uu2n",NA,31578797,9339308,NA,"complete","yyjdxn","34BBWHLWHGAIYSCKFUE53Y1GER9WIZ","computer","Desktop or Laptop","Windows 10","Chrome 116.0.0.0","1280x720","1280x571",NA,NA,0,"BIQ (Charlotte)",2,"In","BCADKEJFIGH",NA,"Spreadsheet1",1,"BIQ","Screen 2","o21mwi",2,"response","0",12316.42,14933.124,14949.333,12316.42,14933.124,14949.333,1,12316.42,2632.913,0,NA,"Rating Scale","Rating Scale",16,"object-86","BIQ",NA,"SUPAMT93300"
"10",1694163751504,"08/09/2023 09:02:31",1694149351504,-4,"08/09/2023 01:02:31",142246,8,"questionnaire-uu2n",NA,31578797,9339308,NA,"complete","yyjdxn","34BBWHLWHGAIYSCKFUE53Y1GER9WIZ","computer","Desktop or Laptop","Windows 10","Chrome 116.0.0.0","1280x720","1280x571",NA,NA,0,"BIQ (Charlotte)",2,"In","BCADKEJFIGH",NA,"Spreadsheet1",1,"BIQ","Screen 3","iz3the",3,"continue","",13266.53,13249.793,13266.53,13266.53,13249.793,13266.53,1,13266.53,0,0,NA,"Click To Continue","Continue Button",22,"object-73","BIQ",NA,"SUPAMT93300"
"11",1694163751508,"08/09/2023 09:02:31",1694149351508,-4,"08/09/2023 01:02:31",142246,8,"questionnaire-uu2n",NA,31578797,9339308,NA,"complete","yyjdxn","34BBWHLWHGAIYSCKFUE53Y1GER9WIZ","computer","Desktop or Laptop","Windows 10","Chrome 116.0.0.0","1280x720","1280x571",NA,NA,0,"BIQ (Charlotte)",2,"In","BCADKEJFIGH",NA,"Spreadsheet1",1,"BIQ","Screen 3","iz3the",3,"response","0",3183.198,13249.793,13266.53,3183.198,13249.793,13266.53,1,3183.198,10083.332,0,NA,"Rating Scale","Rating Scale",2,"object-53","BIQ",NA,"SUPAMT93300"
"12",1694163751510,"08/09/2023 09:02:31",1694149351510,-4,"08/09/2023 01:02:31",142246,8,"questionnaire-uu2n",NA,31578797,9339308,NA,"complete","yyjdxn","34BBWHLWHGAIYSCKFUE53Y1GER9WIZ","computer","Desktop or Laptop","Windows 10","Chrome 116.0.0.0","1280x720","1280x571",NA,NA,0,"BIQ (Charlotte)",2,"In","BCADKEJFIGH",NA,"Spreadsheet1",1,"BIQ","Screen 3","iz3the",3,"response","0",7516.654,13249.793,13266.53,7516.654,13249.793,13266.53,1,7516.654,5749.87599999999,0,NA,"Rating Scale","Rating Scale",9,"object-60","BIQ",NA,"SUPAMT93300"
"13",1694163751511,"08/09/2023 09:02:31",1694149351511,-4,"08/09/2023 01:02:31",142246,8,"questionnaire-uu2n",NA,31578797,9339308,NA,"complete","yyjdxn","34BBWHLWHGAIYSCKFUE53Y1GER9WIZ","computer","Desktop or Laptop","Windows 10","Chrome 116.0.0.0","1280x720","1280x571",NA,NA,0,"BIQ (Charlotte)",2,"In","BCADKEJFIGH",NA,"Spreadsheet1",1,"BIQ","Screen 3","iz3the",3,"response","0",12433.016,13249.793,13266.53,12433.016,13249.793,13266.53,1,12433.016,833.513999999996,0,NA,"Rating Scale","Rating Scale",16,"object-67","BIQ",NA,"SUPAMT93300"
"14",1694163751514,"08/09/2023 09:02:31",1694149351514,-4,"08/09/2023 01:02:31",142246,8,"questionnaire-uu2n",NA,31578797,9339308,NA,"complete","yyjdxn","34BBWHLWHGAIYSCKFUE53Y1GER9WIZ","computer","Desktop or Laptop","Windows 10","Chrome 116.0.0.0","1280x720","1280x571",NA,NA,0,"BIQ (Charlotte)",2,"In","BCADKEJFIGH",NA,"Spreadsheet1",NA,"","","",NA,"5","END",NA,NA,NA,NA,NA,NA,0,NA,NA,NA,NA,"","",NA,"","",NA,"SUPAMT93300"
"1",1694195430143,"08/09/2023 17:50:30",1694181030143,-4,"08/09/2023 09:50:30",142246,8,"questionnaire-uu2n",NA,31590312,9340880,NA,"complete","oxnwwu","3OS4RQUCRFE60YCJJVCODNB3Q4CFB2","computer","Desktop or Laptop","Windows 10","Chrome 116.0.0.0","1360x768","907x413",NA,NA,0,"BIQ (Charlotte)",2,"In","DECFBGAHKIJ",NA,"Spreadsheet1",NA,"","","",NA,"5","BEGIN",NA,NA,NA,NA,NA,NA,0,NA,NA,NA,NA,"","",NA,"","",NA,"SUPAMT78887"
"2",1694195484434,"08/09/2023 17:51:24",1694181084434,-4,"08/09/2023 09:51:24",142246,8,"questionnaire-uu2n",NA,31590312,9340880,NA,"complete","oxnwwu","3OS4RQUCRFE60YCJJVCODNB3Q4CFB2","computer","Desktop or Laptop","Windows 10","Chrome 116.0.0.0","1360x768","907x413",NA,NA,0,"BIQ (Charlotte)",2,"In","DECFBGAHKIJ",NA,"Spreadsheet1",1,"BIQ","Screen 1","9dh6eq",1,"continue","",54318.12,54301.458,54318.12,54318.12,54301.458,54318.12,1,54318.12,0,0,NA,"Click To Continue","Continue Button",23,"object-48","BIQ",NA,"SUPAMT78887"
"3",1694195493814,"08/09/2023 17:51:33",1694181093814,-4,"08/09/2023 09:51:33",142246,8,"questionnaire-uu2n",NA,31590312,9340880,NA,"complete","oxnwwu","3OS4RQUCRFE60YCJJVCODNB3Q4CFB2","computer","Desktop or Laptop","Windows 10","Chrome 116.0.0.0","1360x768","907x413",NA,NA,0,"BIQ (Charlotte)",2,"In","DECFBGAHKIJ",NA,"Spreadsheet1",1,"BIQ","Screen 1","9dh6eq",1,"continue","",63719.488,63715.488,63719.488,63719.488,63715.488,63719.488,1,63719.488,0,0,NA,"Click To Continue","Continue Button",23,"object-48","BIQ",NA,"SUPAMT78887"
"4",1694195493817,"08/09/2023 17:51:33",1694181093817,-4,"08/09/2023 09:51:33",142246,8,"questionnaire-uu2n",NA,31590312,9340880,NA,"complete","oxnwwu","3OS4RQUCRFE60YCJJVCODNB3Q4CFB2","computer","Desktop or Laptop","Windows 10","Chrome 116.0.0.0","1360x768","907x413",NA,NA,0,"BIQ (Charlotte)",2,"In","DECFBGAHKIJ",NA,"Spreadsheet1",1,"BIQ","Screen 1","9dh6eq",1,"response","6",59366.706,63715.488,63722.488,59366.706,63715.488,63722.488,1,59366.706,4355.78200000001,0,NA,"Rating Scale","Rating Scale",3,"object-5","BIQ",NA,"SUPAMT78887"
"5",1694195493818,"08/09/2023 17:51:33",1694181093818,-4,"08/09/2023 09:51:33",142246,8,"questionnaire-uu2n",NA,31590312,9340880,NA,"complete","oxnwwu","3OS4RQUCRFE60YCJJVCODNB3Q4CFB2","computer","Desktop or Laptop","Windows 10","Chrome 116.0.0.0","1360x768","907x413",NA,NA,0,"BIQ (Charlotte)",2,"In","DECFBGAHKIJ",NA,"Spreadsheet1",1,"BIQ","Screen 1","9dh6eq",1,"response","8",42271.494,63715.488,63723.488,42271.494,63715.488,63723.488,1,42271.494,21451.994,0,NA,"Rating Scale","Rating Scale",10,"object-18","BIQ",NA,"SUPAMT78887"
"6",1694195493819,"08/09/2023 17:51:33",1694181093819,-4,"08/09/2023 09:51:33",142246,8,"questionnaire-uu2n",NA,31590312,9340880,NA,"complete","oxnwwu","3OS4RQUCRFE60YCJJVCODNB3Q4CFB2","computer","Desktop or Laptop","Windows 10","Chrome 116.0.0.0","1360x768","907x413",NA,NA,0,"BIQ (Charlotte)",2,"In","DECFBGAHKIJ",NA,"Spreadsheet1",1,"BIQ","Screen 1","9dh6eq",1,"response","0",53335.062,63715.488,63724.488,53335.062,63715.488,63724.488,1,53335.062,10389.426,0,NA,"Rating Scale","Rating Scale",17,"object-80","BIQ",NA,"SUPAMT78887"
"7",1694195558574,"08/09/2023 17:52:38",1694181158574,-4,"08/09/2023 09:52:38",142246,8,"questionnaire-uu2n",NA,31590312,9340880,NA,"complete","oxnwwu","3OS4RQUCRFE60YCJJVCODNB3Q4CFB2","computer","Desktop or Laptop","Windows 10","Chrome 116.0.0.0","1360x768","907x413",NA,NA,0,"BIQ (Charlotte)",2,"In","DECFBGAHKIJ",NA,"Spreadsheet1",1,"BIQ","Screen 2","o21mwi",2,"continue","",64764,64748.532,64764,64764,64748.532,64764,1,64764,0,0,NA,"Click To Continue","Continue Button",22,"object-50","BIQ",NA,"SUPAMT78887"
"8",1694195558586,"08/09/2023 17:52:38",1694181158586,-4,"08/09/2023 09:52:38",142246,8,"questionnaire-uu2n",NA,31590312,9340880,NA,"complete","oxnwwu","3OS4RQUCRFE60YCJJVCODNB3Q4CFB2","computer","Desktop or Laptop","Windows 10","Chrome 116.0.0.0","1360x768","907x413",NA,NA,0,"BIQ (Charlotte)",2,"In","DECFBGAHKIJ",NA,"Spreadsheet1",1,"BIQ","Screen 2","o21mwi",2,"response","7",14979.138,64748.532,64765.194,14979.138,64748.532,64765.194,1,14979.138,49786.056,0,NA,"Rating Scale","Rating Scale",2,"object-259","BIQ",NA,"SUPAMT78887"
"9",1694195558588,"08/09/2023 17:52:38",1694181158588,-4,"08/09/2023 09:52:38",142246,8,"questionnaire-uu2n",NA,31590312,9340880,NA,"complete","oxnwwu","3OS4RQUCRFE60YCJJVCODNB3Q4CFB2","computer","Desktop or Laptop","Windows 10","Chrome 116.0.0.0","1360x768","907x413",NA,NA,0,"BIQ (Charlotte)",2,"In","DECFBGAHKIJ",NA,"Spreadsheet1",1,"BIQ","Screen 2","o21mwi",2,"response","0",62049.288,64748.532,64765.194,62049.288,64748.532,64765.194,1,62049.288,2715.90600000002,0,NA,"Rating Scale","Rating Scale",9,"object-36","BIQ",NA,"SUPAMT78887"
"10",1694195558590,"08/09/2023 17:52:38",1694181158590,-4,"08/09/2023 09:52:38",142246,8,"questionnaire-uu2n",NA,31590312,9340880,NA,"complete","oxnwwu","3OS4RQUCRFE60YCJJVCODNB3Q4CFB2","computer","Desktop or Laptop","Windows 10","Chrome 116.0.0.0","1360x768","907x413",NA,NA,0,"BIQ (Charlotte)",2,"In","DECFBGAHKIJ",NA,"Spreadsheet1",1,"BIQ","Screen 2","o21mwi",2,"response","4",63532.206,64748.532,64765.194,63532.206,64748.532,64765.194,1,63532.206,1232.98800000001,0,NA,"Rating Scale","Rating Scale",16,"object-86","BIQ",NA,"SUPAMT78887"
"11",1694195606196,"08/09/2023 17:53:26",1694181206196,-4,"08/09/2023 09:53:26",142246,8,"questionnaire-uu2n",NA,31590312,9340880,NA,"complete","oxnwwu","3OS4RQUCRFE60YCJJVCODNB3Q4CFB2","computer","Desktop or Laptop","Windows 10","Chrome 116.0.0.0","1360x768","907x413",NA,NA,0,"BIQ (Charlotte)",2,"In","DECFBGAHKIJ",NA,"Spreadsheet1",1,"BIQ","Screen 3","iz3the",3,"continue","",47636.658,47619.996,47636.658,47636.658,47619.996,47636.658,1,47636.658,0,0,NA,"Click To Continue","Continue Button",22,"object-73","BIQ",NA,"SUPAMT78887"
"12",1694195606202,"08/09/2023 17:53:26",1694181206202,-4,"08/09/2023 09:53:26",142246,8,"questionnaire-uu2n",NA,31590312,9340880,NA,"complete","oxnwwu","3OS4RQUCRFE60YCJJVCODNB3Q4CFB2","computer","Desktop or Laptop","Windows 10","Chrome 116.0.0.0","1360x768","907x413",NA,NA,0,"BIQ (Charlotte)",2,"In","DECFBGAHKIJ",NA,"Spreadsheet1",1,"BIQ","Screen 3","iz3the",3,"response","0",18778.074,47619.996,47636.658,18778.074,47619.996,47636.658,1,18778.074,28858.584,0,NA,"Rating Scale","Rating Scale",2,"object-53","BIQ",NA,"SUPAMT78887"
"13",1694195606203,"08/09/2023 17:53:26",1694181206203,-4,"08/09/2023 09:53:26",142246,8,"questionnaire-uu2n",NA,31590312,9340880,NA,"complete","oxnwwu","3OS4RQUCRFE60YCJJVCODNB3Q4CFB2","computer","Desktop or Laptop","Windows 10","Chrome 116.0.0.0","1360x768","907x413",NA,NA,0,"BIQ (Charlotte)",2,"In","DECFBGAHKIJ",NA,"Spreadsheet1",1,"BIQ","Screen 3","iz3the",3,"response","2",46387.008,47619.996,47636.658,46387.008,47619.996,47636.658,1,46387.008,1249.64999999997,0,NA,"Rating Scale","Rating Scale",9,"object-60","BIQ",NA,"SUPAMT78887"
"14",1694195606204,"08/09/2023 17:53:26",1694181206204,-4,"08/09/2023 09:53:26",142246,8,"questionnaire-uu2n",NA,31590312,9340880,NA,"complete","oxnwwu","3OS4RQUCRFE60YCJJVCODNB3Q4CFB2","computer","Desktop or Laptop","Windows 10","Chrome 116.0.0.0","1360x768","907x413",NA,NA,0,"BIQ (Charlotte)",2,"In","DECFBGAHKIJ",NA,"Spreadsheet1",1,"BIQ","Screen 3","iz3the",3,"response","6",36573.09,47619.996,47636.658,36573.09,47619.996,47636.658,1,36573.09,11063.568,0,NA,"Rating Scale","Rating Scale",16,"object-67","BIQ",NA,"SUPAMT78887"
"15",1694195606210,"08/09/2023 17:53:26",1694181206210,-4,"08/09/2023 09:53:26",142246,8,"questionnaire-uu2n",NA,31590312,9340880,NA,"complete","oxnwwu","3OS4RQUCRFE60YCJJVCODNB3Q4CFB2","computer","Desktop or Laptop","Windows 10","Chrome 116.0.0.0","1360x768","907x413",NA,NA,0,"BIQ (Charlotte)",2,"In","DECFBGAHKIJ",NA,"Spreadsheet1",NA,"","","",NA,"5","END",NA,NA,NA,NA,NA,NA,0,NA,NA,NA,NA,"","",NA,"","",NA,"SUPAMT78887"
"1",1694195749943,"08/09/2023 17:55:49",1694181349943,-4,"08/09/2023 09:55:49",142246,8,"questionnaire-uu2n",NA,31590457,9340886,NA,"complete","vvfnsq","3PZDLQMM0ZK599SD90TC4ONWXHL2CG","computer","Desktop or Laptop","Windows 10","Chrome 116.0.0.0","1366x768","1366x619",NA,NA,0,"BIQ (Charlotte)",2,"In","EFDGCHBIAJK",NA,"Spreadsheet1",NA,"","","",NA,"5","BEGIN",NA,NA,NA,NA,NA,NA,0,NA,NA,NA,NA,"","",NA,"","",NA,"SUPAMT73359"
"2",1694195781893,"08/09/2023 17:56:21",1694181381893,-4,"08/09/2023 09:56:21",142246,8,"questionnaire-uu2n",NA,31590457,9340886,NA,"complete","vvfnsq","3PZDLQMM0ZK599SD90TC4ONWXHL2CG","computer","Desktop or Laptop","Windows 10","Chrome 116.0.0.0","1366x768","1366x619",NA,NA,0,"BIQ (Charlotte)",2,"In","EFDGCHBIAJK",NA,"Spreadsheet1",1,"BIQ","Screen 1","9dh6eq",1,"continue","",31968.75,31937.5,31968.75,31968.75,31937.5,31968.75,1,31968.75,0,0,NA,"Click To Continue","Continue Button",23,"object-48","BIQ",NA,"SUPAMT73359"
"3",1694195781895,"08/09/2023 17:56:21",1694181381895,-4,"08/09/2023 09:56:21",142246,8,"questionnaire-uu2n",NA,31590457,9340886,NA,"complete","vvfnsq","3PZDLQMM0ZK599SD90TC4ONWXHL2CG","computer","Desktop or Laptop","Windows 10","Chrome 116.0.0.0","1366x768","1366x619",NA,NA,0,"BIQ (Charlotte)",2,"In","EFDGCHBIAJK",NA,"Spreadsheet1",1,"BIQ","Screen 1","9dh6eq",1,"response","5",10375,31937.5,31968.75,10375,31937.5,31968.75,1,10375,21593.75,0,NA,"Rating Scale","Rating Scale",3,"object-5","BIQ",NA,"SUPAMT73359"
"4",1694195781895,"08/09/2023 17:56:21",1694181381895,-4,"08/09/2023 09:56:21",142246,8,"questionnaire-uu2n",NA,31590457,9340886,NA,"complete","vvfnsq","3PZDLQMM0ZK599SD90TC4ONWXHL2CG","computer","Desktop or Laptop","Windows 10","Chrome 116.0.0.0","1366x768","1366x619",NA,NA,0,"BIQ (Charlotte)",2,"In","EFDGCHBIAJK",NA,"Spreadsheet1",1,"BIQ","Screen 1","9dh6eq",1,"response","7",10937.5,31937.5,31968.75,10937.5,31937.5,31968.75,1,10937.5,21031.25,0,NA,"Rating Scale","Rating Scale",10,"object-18","BIQ",NA,"SUPAMT73359"
"5",1694195781896,"08/09/2023 17:56:21",1694181381896,-4,"08/09/2023 09:56:21",142246,8,"questionnaire-uu2n",NA,31590457,9340886,NA,"complete","vvfnsq","3PZDLQMM0ZK599SD90TC4ONWXHL2CG","computer","Desktop or Laptop","Windows 10","Chrome 116.0.0.0","1366x768","1366x619",NA,NA,0,"BIQ (Charlotte)",2,"In","EFDGCHBIAJK",NA,"Spreadsheet1",1,"BIQ","Screen 1","9dh6eq",1,"response","6",27062.5,31937.5,31968.75,27062.5,31937.5,31968.75,1,27062.5,4906.25,0,NA,"Rating Scale","Rating Scale",17,"object-80","BIQ",NA,"SUPAMT73359"
"6",1694195785873,"08/09/2023 17:56:25",1694181385873,-4,"08/09/2023 09:56:25",142246,8,"questionnaire-uu2n",NA,31590457,9340886,NA,"complete","vvfnsq","3PZDLQMM0ZK599SD90TC4ONWXHL2CG","computer","Desktop or Laptop","Windows 10","Chrome 116.0.0.0","1366x768","1366x619",NA,NA,0,"BIQ (Charlotte)",2,"In","EFDGCHBIAJK",NA,"Spreadsheet1",1,"BIQ","Screen 2","o21mwi",2,"continue","",4021.25,4000,4021.25,4021.25,4000,4021.25,1,4021.25,0,0,NA,"Click To Continue","Continue Button",22,"object-50","BIQ",NA,"SUPAMT73359"
"7",1694195785874,"08/09/2023 17:56:25",1694181385874,-4,"08/09/2023 09:56:25",142246,8,"questionnaire-uu2n",NA,31590457,9340886,NA,"complete","vvfnsq","3PZDLQMM0ZK599SD90TC4ONWXHL2CG","computer","Desktop or Laptop","Windows 10","Chrome 116.0.0.0","1366x768","1366x619",NA,NA,0,"BIQ (Charlotte)",2,"In","EFDGCHBIAJK",NA,"Spreadsheet1",1,"BIQ","Screen 2","o21mwi",2,"response","6",1656.25,4000,4022.25,1656.25,4000,4022.25,1,1656.25,2366,0,NA,"Rating Scale","Rating Scale",2,"object-259","BIQ",NA,"SUPAMT73359"
"8",1694195785874,"08/09/2023 17:56:25",1694181385874,-4,"08/09/2023 09:56:25",142246,8,"questionnaire-uu2n",NA,31590457,9340886,NA,"complete","vvfnsq","3PZDLQMM0ZK599SD90TC4ONWXHL2CG","computer","Desktop or Laptop","Windows 10","Chrome 116.0.0.0","1366x768","1366x619",NA,NA,0,"BIQ (Charlotte)",2,"In","EFDGCHBIAJK",NA,"Spreadsheet1",1,"BIQ","Screen 2","o21mwi",2,"response","5",2281.25,4000,4022.25,2281.25,4000,4022.25,1,2281.25,1741,0,NA,"Rating Scale","Rating Scale",9,"object-36","BIQ",NA,"SUPAMT73359"
"9",1694195785874,"08/09/2023 17:56:25",1694181385874,-4,"08/09/2023 09:56:25",142246,8,"questionnaire-uu2n",NA,31590457,9340886,NA,"complete","vvfnsq","3PZDLQMM0ZK599SD90TC4ONWXHL2CG","computer","Desktop or Laptop","Windows 10","Chrome 116.0.0.0","1366x768","1366x619",NA,NA,0,"BIQ (Charlotte)",2,"In","EFDGCHBIAJK",NA,"Spreadsheet1",1,"BIQ","Screen 2","o21mwi",2,"response","6",2781.25,4000,4022.25,2781.25,4000,4022.25,1,2781.25,1241,0,NA,"Rating Scale","Rating Scale",16,"object-86","BIQ",NA,"SUPAMT73359"
"10",1694195788425,"08/09/2023 17:56:28",1694181388425,-4,"08/09/2023 09:56:28",142246,8,"questionnaire-uu2n",NA,31590457,9340886,NA,"complete","vvfnsq","3PZDLQMM0ZK599SD90TC4ONWXHL2CG","computer","Desktop or Laptop","Windows 10","Chrome 116.0.0.0","1366x768","1366x619",NA,NA,0,"BIQ (Charlotte)",2,"In","EFDGCHBIAJK",NA,"Spreadsheet1",1,"BIQ","Screen 3","iz3the",3,"continue","",2573.25,2562.5,2573.25,2573.25,2562.5,2573.25,1,2573.25,0,0,NA,"Click To Continue","Continue Button",22,"object-73","BIQ",NA,"SUPAMT73359"
"11",1694195788425,"08/09/2023 17:56:28",1694181388425,-4,"08/09/2023 09:56:28",142246,8,"questionnaire-uu2n",NA,31590457,9340886,NA,"complete","vvfnsq","3PZDLQMM0ZK599SD90TC4ONWXHL2CG","computer","Desktop or Laptop","Windows 10","Chrome 116.0.0.0","1366x768","1366x619",NA,NA,0,"BIQ (Charlotte)",2,"In","EFDGCHBIAJK",NA,"Spreadsheet1",1,"BIQ","Screen 3","iz3the",3,"response","5",1187.5,2562.5,2573.25,1187.5,2562.5,2573.25,1,1187.5,1385.75,0,NA,"Rating Scale","Rating Scale",2,"object-53","BIQ",NA,"SUPAMT73359"
"12",1694195788426,"08/09/2023 17:56:28",1694181388426,-4,"08/09/2023 09:56:28",142246,8,"questionnaire-uu2n",NA,31590457,9340886,NA,"complete","vvfnsq","3PZDLQMM0ZK599SD90TC4ONWXHL2CG","computer","Desktop or Laptop","Windows 10","Chrome 116.0.0.0","1366x768","1366x619",NA,NA,0,"BIQ (Charlotte)",2,"In","EFDGCHBIAJK",NA,"Spreadsheet1",1,"BIQ","Screen 3","iz3the",3,"response","6",1687.5,2562.5,2574.25,1687.5,2562.5,2574.25,1,1687.5,886.75,0,NA,"Rating Scale","Rating Scale",9,"object-60","BIQ",NA,"SUPAMT73359"
"13",1694195788426,"08/09/2023 17:56:28",1694181388426,-4,"08/09/2023 09:56:28",142246,8,"questionnaire-uu2n",NA,31590457,9340886,NA,"complete","vvfnsq","3PZDLQMM0ZK599SD90TC4ONWXHL2CG","computer","Desktop or Laptop","Windows 10","Chrome 116.0.0.0","1366x768","1366x619",NA,NA,0,"BIQ (Charlotte)",2,"In","EFDGCHBIAJK",NA,"Spreadsheet1",1,"BIQ","Screen 3","iz3the",3,"response","5",2062.5,2562.5,2574.25,2062.5,2562.5,2574.25,1,2062.5,511.75,0,NA,"Rating Scale","Rating Scale",16,"object-67","BIQ",NA,"SUPAMT73359"
"14",1694195788428,"08/09/2023 17:56:28",1694181388428,-4,"08/09/2023 09:56:28",142246,8,"questionnaire-uu2n",NA,31590457,9340886,NA,"complete","vvfnsq","3PZDLQMM0ZK599SD90TC4ONWXHL2CG","computer","Desktop or Laptop","Windows 10","Chrome 116.0.0.0","1366x768","1366x619",NA,NA,0,"BIQ (Charlotte)",2,"In","EFDGCHBIAJK",NA,"Spreadsheet1",NA,"","","",NA,"5","END",NA,NA,NA,NA,NA,NA,0,NA,NA,NA,NA,"","",NA,"","",NA,"SUPAMT73359"
"1",1694195866670,"08/09/2023 17:57:46",1694181466670,-4,"08/09/2023 09:57:46",142246,8,"questionnaire-uu2n",NA,31590508,9340873,NA,"complete","bwsfxs","3907X2AHF64O3Y1HE5FIOOM3XJHP21","computer","Desktop or Laptop","Windows 10","Chrome 116.0.0.0","1910x1055","1248x889",NA,NA,0,"BIQ (Charlotte)",2,"In","CDBEAFKGJHI",NA,"Spreadsheet1",NA,"","","",NA,"5","BEGIN",NA,NA,NA,NA,NA,NA,0,NA,NA,NA,NA,"","",NA,"","",NA,"SUPAMT96542"
"2",1694195987415,"08/09/2023 17:59:47",1694181587415,-4,"08/09/2023 09:59:47",142246,8,"questionnaire-uu2n",NA,31590508,9340873,NA,"complete","bwsfxs","3907X2AHF64O3Y1HE5FIOOM3XJHP21","computer","Desktop or Laptop","Windows 10","Chrome 116.0.0.0","1910x1055","1910x906",NA,NA,0,"BIQ (Charlotte)",2,"In","CDBEAFKGJHI",NA,"Spreadsheet1",1,"BIQ","Screen 1","9dh6eq",1,"continue","",120778.502,120761.836,120778.502,120778.502,120761.836,120778.502,1,120778.502,0,0,NA,"Click To Continue","Continue Button",23,"object-48","BIQ",NA,"SUPAMT96542"
"3",1694195987421,"08/09/2023 17:59:47",1694181587421,-4,"08/09/2023 09:59:47",142246,8,"questionnaire-uu2n",NA,31590508,9340873,NA,"complete","bwsfxs","3907X2AHF64O3Y1HE5FIOOM3XJHP21","computer","Desktop or Laptop","Windows 10","Chrome 116.0.0.0","1910x1055","1910x906",NA,NA,0,"BIQ (Charlotte)",2,"In","CDBEAFKGJHI",NA,"Spreadsheet1",1,"BIQ","Screen 1","9dh6eq",1,"response","7",31265.416,120761.836,120778.502,31265.416,120761.836,120778.502,1,31265.416,89513.086,0,NA,"Rating Scale","Rating Scale",3,"object-5","BIQ",NA,"SUPAMT96542"
"4",1694195987422,"08/09/2023 17:59:47",1694181587422,-4,"08/09/2023 09:59:47",142246,8,"questionnaire-uu2n",NA,31590508,9340873,NA,"complete","bwsfxs","3907X2AHF64O3Y1HE5FIOOM3XJHP21","computer","Desktop or Laptop","Windows 10","Chrome 116.0.0.0","1910x1055","1910x906",NA,NA,0,"BIQ (Charlotte)",2,"In","CDBEAFKGJHI",NA,"Spreadsheet1",1,"BIQ","Screen 1","9dh6eq",1,"response","8",105445.782,120761.836,120778.502,105445.782,120761.836,120778.502,1,105445.782,15332.72,0,NA,"Rating Scale","Rating Scale",10,"object-18","BIQ",NA,"SUPAMT96542"
"5",1694195987422,"08/09/2023 17:59:47",1694181587422,-4,"08/09/2023 09:59:47",142246,8,"questionnaire-uu2n",NA,31590508,9340873,NA,"complete","bwsfxs","3907X2AHF64O3Y1HE5FIOOM3XJHP21","computer","Desktop or Laptop","Windows 10","Chrome 116.0.0.0","1910x1055","1910x906",NA,NA,0,"BIQ (Charlotte)",2,"In","CDBEAFKGJHI",NA,"Spreadsheet1",1,"BIQ","Screen 1","9dh6eq",1,"response","0",118628.588,120761.836,120778.502,118628.588,120761.836,120778.502,1,118628.588,2149.91399999999,0,NA,"Rating Scale","Rating Scale",17,"object-80","BIQ",NA,"SUPAMT96542"
"6",1694196054301,"08/09/2023 18:00:54",1694181654301,-4,"08/09/2023 10:00:54",142246,8,"questionnaire-uu2n",NA,31590508,9340873,NA,"complete","bwsfxs","3907X2AHF64O3Y1HE5FIOOM3XJHP21","computer","Desktop or Laptop","Windows 10","Chrome 116.0.0.0","1910x1055","1248x889",NA,NA,0,"BIQ (Charlotte)",2,"In","CDBEAFKGJHI",NA,"Spreadsheet1",1,"BIQ","Screen 2","o21mwi",2,"continue","",66913.44,66897.324,66913.44,66913.44,66897.324,66913.44,1,66913.44,0,0,NA,"Click To Continue","Continue Button",22,"object-50","BIQ",NA,"SUPAMT96542"
