"Event.Index","UTC.Timestamp","UTC.Date.and.Time","Local.Timestamp","Local.Timezone","Local.Date.and.Time","Experiment.ID","Experiment.Version","Tree.Node.Key","Repeat.Key","Schedule.ID","Participant.Private.ID","Participant.Starting.Group","Participant.Status","Participant.Completion.Code","Participant.External.Session.ID","Participant.Device.Type","Participant.Device","Participant.OS","Participant.Browser","Participant.Monitor.Size","Participant.Viewport.Size","Checkpoint","Room.ID","Room.Order","Task.Name","Task.Version","branch.hkzp","order.ot79","branch.mcuq","randomiser.a4zk","Spreadsheet","Trial.Number","Display","Screen","Screen.ID","Screen.Counter","Response.Type","Response","Onset.Time","Clock.Time","Reaction.Time","Absolute.Onset.Time","Absolute.Clock.Time","Absolute.Reaction.Time","Correct","Response.Onset","Response.Duration","Proportion","Tag","Component.Name","Object.Name","Object.Number","Object.ID","Spreadsheet..display","Manipulation..Spreadsheet","Random_ID"
"1",1695735322851,"26/09/2023 13:35:22",1695720922851,-4,"26/09/2023 05:35:22",144339,3,"questionnaire-uu2n",NA,31871814,9423269,NA,"complete","xwepsk","3L4D84MIL5RWWD112DD5EW6TE7TJHM","computer","Desktop or Laptop","Windows 10","Chrome 116.0.0.0","1280x800","1280x683",NA,NA,0,"BIQ (Charlotte)",2,"In","JKIAHBGCFDE",NA,"LH","Spreadsheet1",NA,"","","",NA,"5","BEGIN",NA,NA,NA,NA,NA,NA,0,NA,NA,NA,NA,"","",NA,"","",NA,"SUPAMT97669"
"2",1695735333288,"26/09/2023 13:35:33",1695720933288,-4,"26/09/2023 05:35:33",144339,3,"questionnaire-uu2n",NA,31871814,9423269,NA,"complete","xwepsk","3L4D84MIL5RWWD112DD5EW6TE7TJHM","computer","Desktop or Laptop","Windows 10","Chrome 116.0.0.0","1280x800","1280x683",NA,NA,0,"BIQ (Charlotte)",2,"In","JKIAHBGCFDE",NA,"LH","Spreadsheet1",1,"BIQ","Screen 1","9dh6eq",1,"continue","",10461.797,10445.131,10461.797,10461.797,10445.131,10461.797,1,10461.797,0,0,NA,"Click To Continue","Continue Button",23,"object-48","BIQ",NA,"SUPAMT97669"
"3",1695735333293,"26/09/2023 13:35:33",1695720933293,-4,"26/09/2023 05:35:33",144339,3,"questionnaire-uu2n",NA,31871814,9423269,NA,"complete","xwepsk","3L4D84MIL5RWWD112DD5EW6TE7TJHM","computer","Desktop or Laptop","Windows 10","Chrome 116.0.0.0","1280x800","1280x683",NA,NA,0,"BIQ (Charlotte)",2,"In","JKIAHBGCFDE",NA,"LH","Spreadsheet1",1,"BIQ","Screen 1","9dh6eq",1,"response","6",2621.474,10445.131,10461.797,2621.474,10445.131,10461.797,1,2621.474,7840.323,0,NA,"Rating Scale","Rating Scale",3,"object-5","BIQ",NA,"SUPAMT97669"
"4",1695735333294,"26/09/2023 13:35:33",1695720933294,-4,"26/09/2023 05:35:33",144339,3,"questionnaire-uu2n",NA,31871814,9423269,NA,"complete","xwepsk","3L4D84MIL5RWWD112DD5EW6TE7TJHM","computer","Desktop or Laptop","Windows 10","Chrome 116.0.0.0","1280x800","1280x683",NA,NA,0,"BIQ (Charlotte)",2,"In","JKIAHBGCFDE",NA,"LH","Spreadsheet1",1,"BIQ","Screen 1","9dh6eq",1,"response","5",3339.794,10445.131,10461.797,3339.794,10445.131,10461.797,1,3339.794,7122.003,0,NA,"Rating Scale","Rating Scale",10,"object-18","BIQ",NA,"SUPAMT97669"
"5",1695735333294,"26/09/2023 13:35:33",1695720933294,-4,"26/09/2023 05:35:33",144339,3,"questionnaire-uu2n",NA,31871814,9423269,NA,"complete","xwepsk","3L4D84MIL5RWWD112DD5EW6TE7TJHM","computer","Desktop or Laptop","Windows 10","Chrome 116.0.0.0","1280x800","1280x683",NA,NA,0,"BIQ (Charlotte)",2,"In","JKIAHBGCFDE",NA,"LH","Spreadsheet1",1,"BIQ","Screen 1","9dh6eq",1,"response","7",5058.808,10445.131,10461.797,5058.808,10445.131,10461.797,1,5058.808,5402.989,0,NA,"Rating Scale","Rating Scale",17,"object-80","BIQ",NA,"SUPAMT97669"
"6",1695735337422,"26/09/2023 13:35:37",1695720937422,-4,"26/09/2023 05:35:37",144339,3,"questionnaire-uu2n",NA,31871814,9423269,NA,"complete","xwepsk","3L4D84MIL5RWWD112DD5EW6TE7TJHM","computer","Desktop or Laptop","Windows 10","Chrome 116.0.0.0","1280x800","1280x683",NA,NA,0,"BIQ (Charlotte)",2,"In","JKIAHBGCFDE",NA,"LH","Spreadsheet1",1,"BIQ","Screen 2","o21mwi",2,"continue","",4151.39199998808,4148.11,4151.39199998808,4151.39199998808,4148.11,4151.39199998808,1,4151.39199998808,0,0,NA,"Click To Continue","Continue Button",22,"object-50","BIQ",NA,"SUPAMT97669"
"7",1695735337423,"26/09/2023 13:35:37",1695720937423,-4,"26/09/2023 05:35:37",144339,3,"questionnaire-uu2n",NA,31871814,9423269,NA,"complete","xwepsk","3L4D84MIL5RWWD112DD5EW6TE7TJHM","computer","Desktop or Laptop","Windows 10","Chrome 116.0.0.0","1280x800","1280x683",NA,NA,0,"BIQ (Charlotte)",2,"In","JKIAHBGCFDE",NA,"LH","Spreadsheet1",1,"BIQ","Screen 2","o21mwi",2,"response","7",2140.403,4148.11,4152.39199998808,2140.403,4148.11,4152.39199998808,1,2140.403,2011.98899998808,0,NA,"Rating Scale","Rating Scale",2,"object-259","BIQ",NA,"SUPAMT97669"
"8",1695735337423,"26/09/2023 13:35:37",1695720937423,-4,"26/09/2023 05:35:37",144339,3,"questionnaire-uu2n",NA,31871814,9423269,NA,"complete","xwepsk","3L4D84MIL5RWWD112DD5EW6TE7TJHM","computer","Desktop or Laptop","Windows 10","Chrome 116.0.0.0","1280x800","1280x683",NA,NA,0,"BIQ (Charlotte)",2,"In","JKIAHBGCFDE",NA,"LH","Spreadsheet1",1,"BIQ","Screen 2","o21mwi",2,"response","6",2724.734,4148.11,4152.89199998808,2724.734,4148.11,4152.89199998808,1,2724.734,1428.15799998808,0,NA,"Rating Scale","Rating Scale",9,"object-36","BIQ",NA,"SUPAMT97669"
"9",1695735337424,"26/09/2023 13:35:37",1695720937424,-4,"26/09/2023 05:35:37",144339,3,"questionnaire-uu2n",NA,31871814,9423269,NA,"complete","xwepsk","3L4D84MIL5RWWD112DD5EW6TE7TJHM","computer","Desktop or Laptop","Windows 10","Chrome 116.0.0.0","1280x800","1280x683",NA,NA,0,"BIQ (Charlotte)",2,"In","JKIAHBGCFDE",NA,"LH","Spreadsheet1",1,"BIQ","Screen 2","o21mwi",2,"response","7",3292.251,4148.11,4153.39199998808,3292.251,4148.11,4153.39199998808,1,3292.251,861.14099998808,0,NA,"Rating Scale","Rating Scale",16,"object-86","BIQ",NA,"SUPAMT97669"
"10",1695735340932,"26/09/2023 13:35:40",1695720940932,-4,"26/09/2023 05:35:40",144339,3,"questionnaire-uu2n",NA,31871814,9423269,NA,"complete","xwepsk","3L4D84MIL5RWWD112DD5EW6TE7TJHM","computer","Desktop or Laptop","Windows 10","Chrome 116.0.0.0","1280x800","1280x683",NA,NA,0,"BIQ (Charlotte)",2,"In","JKIAHBGCFDE",NA,"LH","Spreadsheet1",1,"BIQ","Screen 3","iz3the",3,"continue","",3513.68199999404,3497.504,3513.68199999404,3513.68199999404,3497.504,3513.68199999404,1,3513.68199999404,0,0,NA,"Click To Continue","Continue Button",22,"object-73","BIQ",NA,"SUPAMT97669"
"11",1695735340933,"26/09/2023 13:35:40",1695720940933,-4,"26/09/2023 05:35:40",144339,3,"questionnaire-uu2n",NA,31871814,9423269,NA,"complete","xwepsk","3L4D84MIL5RWWD112DD5EW6TE7TJHM","computer","Desktop or Laptop","Windows 10","Chrome 116.0.0.0","1280x800","1280x683",NA,NA,0,"BIQ (Charlotte)",2,"In","JKIAHBGCFDE",NA,"LH","Spreadsheet1",1,"BIQ","Screen 3","iz3the",3,"response","7",1455.982,3497.504,3514.16999999999,1455.982,3497.504,3514.16999999999,1,1455.982,2058.18799999999,0,NA,"Rating Scale","Rating Scale",2,"object-53","BIQ",NA,"SUPAMT97669"
"12",1695735340934,"26/09/2023 13:35:40",1695720940934,-4,"26/09/2023 05:35:40",144339,3,"questionnaire-uu2n",NA,31871814,9423269,NA,"complete","xwepsk","3L4D84MIL5RWWD112DD5EW6TE7TJHM","computer","Desktop or Laptop","Windows 10","Chrome 116.0.0.0","1280x800","1280x683",NA,NA,0,"BIQ (Charlotte)",2,"In","JKIAHBGCFDE",NA,"LH","Spreadsheet1",1,"BIQ","Screen 3","iz3the",3,"response","6",1987.055,3497.504,3514.16999999999,1987.055,3497.504,3514.16999999999,1,1987.055,1527.11499999999,0,NA,"Rating Scale","Rating Scale",9,"object-60","BIQ",NA,"SUPAMT97669"
"13",1695735340934,"26/09/2023 13:35:40",1695720940934,-4,"26/09/2023 05:35:40",144339,3,"questionnaire-uu2n",NA,31871814,9423269,NA,"complete","xwepsk","3L4D84MIL5RWWD112DD5EW6TE7TJHM","computer","Desktop or Laptop","Windows 10","Chrome 116.0.0.0","1280x800","1280x683",NA,NA,0,"BIQ (Charlotte)",2,"In","JKIAHBGCFDE",NA,"LH","Spreadsheet1",1,"BIQ","Screen 3","iz3the",3,"response","6",2637.328,3497.504,3514.16999999999,2637.328,3497.504,3514.16999999999,1,2637.328,876.841999999997,0,NA,"Rating Scale","Rating Scale",16,"object-67","BIQ",NA,"SUPAMT97669"
"14",1695735340936,"26/09/2023 13:35:40",1695720940936,-4,"26/09/2023 05:35:40",144339,3,"questionnaire-uu2n",NA,31871814,9423269,NA,"complete","xwepsk","3L4D84MIL5RWWD112DD5EW6TE7TJHM","computer","Desktop or Laptop","Windows 10","Chrome 116.0.0.0","1280x800","1280x683",NA,NA,0,"BIQ (Charlotte)",2,"In","JKIAHBGCFDE",NA,"LH","Spreadsheet1",NA,"","","",NA,"5","END",NA,NA,NA,NA,NA,NA,0,NA,NA,NA,NA,"","",NA,"","",NA,"SUPAMT97669"
"1",1695736226612,"26/09/2023 13:50:26",1695721826612,-4,"26/09/2023 05:50:26",144339,3,"questionnaire-uu2n",NA,31872097,9423329,NA,"complete","fcmvkc","336YQZE831DAHSNR48PO5RVKDSXM5C","computer","Desktop or Laptop","Windows 10","Chrome 114.0.0.0","1280x800","1280x657",NA,NA,0,"BIQ (Charlotte)",2,"In","KAJBICHDGEF",NA,"LH","Spreadsheet1",NA,"","","",NA,"5","BEGIN",NA,NA,NA,NA,NA,NA,0,NA,NA,NA,NA,"","",NA,"","",NA,"SUPAMT65935"
"2",1695736234291,"26/09/2023 13:50:34",1695721834291,-4,"26/09/2023 05:50:34",144339,3,"questionnaire-uu2n",NA,31872097,9423329,NA,"complete","fcmvkc","336YQZE831DAHSNR48PO5RVKDSXM5C","computer","Desktop or Laptop","Windows 10","Chrome 114.0.0.0","1280x800","1280x657",NA,NA,0,"BIQ (Charlotte)",2,"In","KAJBICHDGEF",NA,"LH","Spreadsheet1",1,"BIQ","Screen 1","9dh6eq",1,"continue","",7692.34,7679.877,7692.34,7692.34,7679.877,7692.34,1,7692.34,0,0,NA,"Click To Continue","Continue Button",23,"object-48","BIQ",NA,"SUPAMT65935"
"3",1695736234292,"26/09/2023 13:50:34",1695721834292,-4,"26/09/2023 05:50:34",144339,3,"questionnaire-uu2n",NA,31872097,9423329,NA,"complete","fcmvkc","336YQZE831DAHSNR48PO5RVKDSXM5C","computer","Desktop or Laptop","Windows 10","Chrome 114.0.0.0","1280x800","1280x657",NA,NA,0,"BIQ (Charlotte)",2,"In","KAJBICHDGEF",NA,"LH","Spreadsheet1",1,"BIQ","Screen 1","9dh6eq",1,"response","7",3948.045,7679.877,7694.14000019074,3948.045,7679.877,7694.14000019074,1,3948.045,3746.09500019073,0,NA,"Rating Scale","Rating Scale",3,"object-5","BIQ",NA,"SUPAMT65935"
"4",1695736234292,"26/09/2023 13:50:34",1695721834292,-4,"26/09/2023 05:50:34",144339,3,"questionnaire-uu2n",NA,31872097,9423329,NA,"complete","fcmvkc","336YQZE831DAHSNR48PO5RVKDSXM5C","computer","Desktop or Laptop","Windows 10","Chrome 114.0.0.0","1280x800","1280x657",NA,NA,0,"BIQ (Charlotte)",2,"In","KAJBICHDGEF",NA,"LH","Spreadsheet1",1,"BIQ","Screen 1","9dh6eq",1,"response","5",4496.014,7679.877,7694.64000019074,4496.014,7679.877,7694.64000019074,1,4496.014,3198.62600019073,0,NA,"Rating Scale","Rating Scale",10,"object-18","BIQ",NA,"SUPAMT65935"
"5",1695736234293,"26/09/2023 13:50:34",1695721834293,-4,"26/09/2023 05:50:34",144339,3,"questionnaire-uu2n",NA,31872097,9423329,NA,"complete","fcmvkc","336YQZE831DAHSNR48PO5RVKDSXM5C","computer","Desktop or Laptop","Windows 10","Chrome 114.0.0.0","1280x800","1280x657",NA,NA,0,"BIQ (Charlotte)",2,"In","KAJBICHDGEF",NA,"LH","Spreadsheet1",1,"BIQ","Screen 1","9dh6eq",1,"response","6",6169.746,7679.877,7695.03999980927,6169.746,7679.877,7695.03999980927,1,6169.746,1525.29399980926,0,NA,"Rating Scale","Rating Scale",17,"object-80","BIQ",NA,"SUPAMT65935"
"6",1695736238706,"26/09/2023 13:50:38",1695721838706,-4,"26/09/2023 05:50:38",144339,3,"questionnaire-uu2n",NA,31872097,9423329,NA,"complete","fcmvkc","336YQZE831DAHSNR48PO5RVKDSXM5C","computer","Desktop or Laptop","Windows 10","Chrome 114.0.0.0","1280x800","1280x657",NA,NA,0,"BIQ (Charlotte)",2,"In","KAJBICHDGEF",NA,"LH","Spreadsheet1",1,"BIQ","Screen 2","o21mwi",2,"continue","",4428.3630005722,4422.756,4428.3630005722,4428.3630005722,4422.756,4428.3630005722,1,4428.3630005722,0,0,NA,"Click To Continue","Continue Button",22,"object-50","BIQ",NA,"SUPAMT65935"
"7",1695736238709,"26/09/2023 13:50:38",1695721838709,-4,"26/09/2023 05:50:38",144339,3,"questionnaire-uu2n",NA,31872097,9423329,NA,"complete","fcmvkc","336YQZE831DAHSNR48PO5RVKDSXM5C","computer","Desktop or Laptop","Windows 10","Chrome 114.0.0.0","1280x800","1280x657",NA,NA,0,"BIQ (Charlotte)",2,"In","KAJBICHDGEF",NA,"LH","Spreadsheet1",1,"BIQ","Screen 2","o21mwi",2,"response","6",1812.298,4422.756,4431.06300038147,1812.298,4422.756,4431.06300038147,1,1812.298,2618.76500038147,0,NA,"Rating Scale","Rating Scale",2,"object-259","BIQ",NA,"SUPAMT65935"
"8",1695736238709,"26/09/2023 13:50:38",1695721838709,-4,"26/09/2023 05:50:38",144339,3,"questionnaire-uu2n",NA,31872097,9423329,NA,"complete","fcmvkc","336YQZE831DAHSNR48PO5RVKDSXM5C","computer","Desktop or Laptop","Windows 10","Chrome 114.0.0.0","1280x800","1280x657",NA,NA,0,"BIQ (Charlotte)",2,"In","KAJBICHDGEF",NA,"LH","Spreadsheet1",1,"BIQ","Screen 2","o21mwi",2,"response","7",2544.618,4422.756,4431.56300038147,2544.618,4422.756,4431.56300038147,1,2544.618,1886.94500038147,0,NA,"Rating Scale","Rating Scale",9,"object-36","BIQ",NA,"SUPAMT65935"
"9",1695736238710,"26/09/2023 13:50:38",1695721838710,-4,"26/09/2023 05:50:38",144339,3,"questionnaire-uu2n",NA,31872097,9423329,NA,"complete","fcmvkc","336YQZE831DAHSNR48PO5RVKDSXM5C","computer","Desktop or Laptop","Windows 10","Chrome 114.0.0.0","1280x800","1280x657",NA,NA,0,"BIQ (Charlotte)",2,"In","KAJBICHDGEF",NA,"LH","Spreadsheet1",1,"BIQ","Screen 2","o21mwi",2,"response","6",3152.711,4422.756,4432.06300038147,3152.711,4422.756,4432.06300038147,1,3152.711,1279.35200038147,0,NA,"Rating Scale","Rating Scale",16,"object-86","BIQ",NA,"SUPAMT65935"
"10",1695736241674,"26/09/2023 13:50:41",1695721841674,-4,"26/09/2023 05:50:41",144339,3,"questionnaire-uu2n",NA,31872097,9423329,NA,"complete","fcmvkc","336YQZE831DAHSNR48PO5RVKDSXM5C","computer","Desktop or Laptop","Windows 10","Chrome 114.0.0.0","1280x800","1280x657",NA,NA,0,"BIQ (Charlotte)",2,"In","KAJBICHDGEF",NA,"LH","Spreadsheet1",1,"BIQ","Screen 3","iz3the",3,"continue","",2973.50700019073,2968.304,2973.50700019073,2973.50700019073,2968.304,2973.50700019073,1,2973.50700019073,0,0,NA,"Click To Continue","Continue Button",22,"object-73","BIQ",NA,"SUPAMT65935"
"11",1695736241675,"26/09/2023 13:50:41",1695721841675,-4,"26/09/2023 05:50:41",144339,3,"questionnaire-uu2n",NA,31872097,9423329,NA,"complete","fcmvkc","336YQZE831DAHSNR48PO5RVKDSXM5C","computer","Desktop or Laptop","Windows 10","Chrome 114.0.0.0","1280x800","1280x657",NA,NA,0,"BIQ (Charlotte)",2,"In","KAJBICHDGEF",NA,"LH","Spreadsheet1",1,"BIQ","Screen 3","iz3the",3,"response","6",1694.814,2968.304,2974.30700038147,1694.814,2968.304,2974.30700038147,1,1694.814,1279.49300038147,0,NA,"Rating Scale","Rating Scale",2,"object-53","BIQ",NA,"SUPAMT65935"
"12",1695736241675,"26/09/2023 13:50:41",1695721841675,-4,"26/09/2023 05:50:41",144339,3,"questionnaire-uu2n",NA,31872097,9423329,NA,"complete","fcmvkc","336YQZE831DAHSNR48PO5RVKDSXM5C","computer","Desktop or Laptop","Windows 10","Chrome 114.0.0.0","1280x800","1280x657",NA,NA,0,"BIQ (Charlotte)",2,"In","KAJBICHDGEF",NA,"LH","Spreadsheet1",1,"BIQ","Screen 3","iz3the",3,"response","7",2081.57,2968.304,2974.707,2081.57,2968.304,2974.707,1,2081.57,893.136999999999,0,NA,"Rating Scale","Rating Scale",9,"object-60","BIQ",NA,"SUPAMT65935"
"13",1695736241676,"26/09/2023 13:50:41",1695721841676,-4,"26/09/2023 05:50:41",144339,3,"questionnaire-uu2n",NA,31872097,9423329,NA,"complete","fcmvkc","336YQZE831DAHSNR48PO5RVKDSXM5C","computer","Desktop or Laptop","Windows 10","Chrome 114.0.0.0","1280x800","1280x657",NA,NA,0,"BIQ (Charlotte)",2,"In","KAJBICHDGEF",NA,"LH","Spreadsheet1",1,"BIQ","Screen 3","iz3the",3,"response","6",2417.772,2968.304,2975.207,2417.772,2968.304,2975.207,1,2417.772,557.435000000001,0,NA,"Rating Scale","Rating Scale",16,"object-67","BIQ",NA,"SUPAMT65935"
"14",1695736241677,"26/09/2023 13:50:41",1695721841677,-4,"26/09/2023 05:50:41",144339,3,"questionnaire-uu2n",NA,31872097,9423329,NA,"complete","fcmvkc","336YQZE831DAHSNR48PO5RVKDSXM5C","computer","Desktop or Laptop","Windows 10","Chrome 114.0.0.0","1280x800","1280x657",NA,NA,0,"BIQ (Charlotte)",2,"In","KAJBICHDGEF",NA,"LH","Spreadsheet1",NA,"","","",NA,"5","END",NA,NA,NA,NA,NA,NA,0,NA,NA,NA,NA,"","",NA,"","",NA,"SUPAMT65935"
"1",1695736466241,"26/09/2023 13:54:26",1695722066241,-4,"26/09/2023 05:54:26",144339,3,"questionnaire-uu2n",NA,31872174,9423356,NA,"complete","ektyic","3NQL1CS15X7R93RKT2VC3KCQZQDYVL","computer","Desktop or Laptop","Windows 10","Chrome 114.0.0.0","1366x768","1366x625",NA,NA,0,"BIQ (Charlotte)",2,"In","ABKCJDIEHFG",NA,"HL","Spreadsheet1",NA,"","","",NA,"5","BEGIN",NA,NA,NA,NA,NA,NA,0,NA,NA,NA,NA,"","",NA,"","",NA,"SUPAMT73133"
"2",1695736496425,"26/09/2023 13:54:56",1695722096425,-4,"26/09/2023 05:54:56",144339,3,"questionnaire-uu2n",NA,31872174,9423356,NA,"complete","ektyic","3NQL1CS15X7R93RKT2VC3KCQZQDYVL","computer","Desktop or Laptop","Windows 10","Chrome 114.0.0.0","1366x768","1366x625",NA,NA,0,"BIQ (Charlotte)",2,"In","ABKCJDIEHFG",NA,"HL","Spreadsheet1",1,"BIQ","Screen 1","9dh6eq",1,"continue","",30196.5539998093,30188.798,30196.5539998093,30196.5539998093,30188.798,30196.5539998093,1,30196.5539998093,0,0,NA,"Click To Continue","Continue Button",23,"object-48","BIQ",NA,"SUPAMT73133"
"3",1695736496428,"26/09/2023 13:54:56",1695722096428,-4,"26/09/2023 05:54:56",144339,3,"questionnaire-uu2n",NA,31872174,9423356,NA,"complete","ektyic","3NQL1CS15X7R93RKT2VC3KCQZQDYVL","computer","Desktop or Laptop","Windows 10","Chrome 114.0.0.0","1366x768","1366x625",NA,NA,0,"BIQ (Charlotte)",2,"In","ABKCJDIEHFG",NA,"HL","Spreadsheet1",1,"BIQ","Screen 1","9dh6eq",1,"response","2",3905.022,30188.798,30201.0539998093,3905.022,30188.798,30201.0539998093,1,3905.022,26296.0319998093,0,NA,"Rating Scale","Rating Scale",3,"object-5","BIQ",NA,"SUPAMT73133"
"4",1695736496429,"26/09/2023 13:54:56",1695722096429,-4,"26/09/2023 05:54:56",144339,3,"questionnaire-uu2n",NA,31872174,9423356,NA,"complete","ektyic","3NQL1CS15X7R93RKT2VC3KCQZQDYVL","computer","Desktop or Laptop","Windows 10","Chrome 114.0.0.0","1366x768","1366x625",NA,NA,0,"BIQ (Charlotte)",2,"In","ABKCJDIEHFG",NA,"HL","Spreadsheet1",1,"BIQ","Screen 1","9dh6eq",1,"response","4",6453.071,30188.798,30201.5539998093,6453.071,30188.798,30201.5539998093,1,6453.071,23748.4829998093,0,NA,"Rating Scale","Rating Scale",10,"object-18","BIQ",NA,"SUPAMT73133"
"5",1695736496429,"26/09/2023 13:54:56",1695722096429,-4,"26/09/2023 05:54:56",144339,3,"questionnaire-uu2n",NA,31872174,9423356,NA,"complete","ektyic","3NQL1CS15X7R93RKT2VC3KCQZQDYVL","computer","Desktop or Laptop","Windows 10","Chrome 114.0.0.0","1366x768","1366x625",NA,NA,0,"BIQ (Charlotte)",2,"In","ABKCJDIEHFG",NA,"HL","Spreadsheet1",1,"BIQ","Screen 1","9dh6eq",1,"response","6",12791.71,30188.798,30201.9540003815,12791.71,30188.798,30201.9540003815,1,12791.71,17410.2440003815,0,NA,"Rating Scale","Rating Scale",17,"object-80","BIQ",NA,"SUPAMT73133"
"6",1695736506346,"26/09/2023 13:55:06",1695722106346,-4,"26/09/2023 05:55:06",144339,3,"questionnaire-uu2n",NA,31872174,9423356,NA,"complete","ektyic","3NQL1CS15X7R93RKT2VC3KCQZQDYVL","computer","Desktop or Laptop","Windows 10","Chrome 114.0.0.0","1366x768","1366x625",NA,NA,0,"BIQ (Charlotte)",2,"In","ABKCJDIEHFG",NA,"HL","Spreadsheet1",1,"BIQ","Screen 2","o21mwi",2,"continue","",9929.556,9925.856,9929.556,9929.556,9925.856,9929.556,1,9929.556,0,0,NA,"Click To Continue","Continue Button",22,"object-50","BIQ",NA,"SUPAMT73133"
"7",1695736506346,"26/09/2023 13:55:06",1695722106346,-4,"26/09/2023 05:55:06",144339,3,"questionnaire-uu2n",NA,31872174,9423356,NA,"complete","ektyic","3NQL1CS15X7R93RKT2VC3KCQZQDYVL","computer","Desktop or Laptop","Windows 10","Chrome 114.0.0.0","1366x768","1366x625",NA,NA,0,"BIQ (Charlotte)",2,"In","ABKCJDIEHFG",NA,"HL","Spreadsheet1",1,"BIQ","Screen 2","o21mwi",2,"response","2",3090.95499999999,9925.856,9930.056,3090.95499999999,9925.856,9930.056,1,3090.95499999999,6839.101,0,NA,"Rating Scale","Rating Scale",2,"object-259","BIQ",NA,"SUPAMT73133"
"8",1695736506347,"26/09/2023 13:55:06",1695722106347,-4,"26/09/2023 05:55:06",144339,3,"questionnaire-uu2n",NA,31872174,9423356,NA,"complete","ektyic","3NQL1CS15X7R93RKT2VC3KCQZQDYVL","computer","Desktop or Laptop","Windows 10","Chrome 114.0.0.0","1366x768","1366x625",NA,NA,0,"BIQ (Charlotte)",2,"In","ABKCJDIEHFG",NA,"HL","Spreadsheet1",1,"BIQ","Screen 2","o21mwi",2,"response","4",4167.041,9925.856,9930.556,4167.041,9925.856,9930.556,1,4167.041,5763.515,0,NA,"Rating Scale","Rating Scale",9,"object-36","BIQ",NA,"SUPAMT73133"
"9",1695736506347,"26/09/2023 13:55:06",1695722106347,-4,"26/09/2023 05:55:06",144339,3,"questionnaire-uu2n",NA,31872174,9423356,NA,"complete","ektyic","3NQL1CS15X7R93RKT2VC3KCQZQDYVL","computer","Desktop or Laptop","Windows 10","Chrome 114.0.0.0","1366x768","1366x625",NA,NA,0,"BIQ (Charlotte)",2,"In","ABKCJDIEHFG",NA,"HL","Spreadsheet1",1,"BIQ","Screen 2","o21mwi",2,"response","4",5289.707,9925.856,9931.15600038147,5289.707,9925.856,9931.15600038147,1,5289.707,4641.44900038147,0,NA,"Rating Scale","Rating Scale",16,"object-86","BIQ",NA,"SUPAMT73133"
"10",1695736511880,"26/09/2023 13:55:11",1695722111880,-4,"26/09/2023 05:55:11",144339,3,"questionnaire-uu2n",NA,31872174,9423356,NA,"complete","ektyic","3NQL1CS15X7R93RKT2VC3KCQZQDYVL","computer","Desktop or Laptop","Windows 10","Chrome 114.0.0.0","1366x768","1366x625",NA,NA,0,"BIQ (Charlotte)",2,"In","ABKCJDIEHFG",NA,"HL","Spreadsheet1",1,"BIQ","Screen 3","iz3the",3,"continue","",5537.89999980926,5533.82999999999,5537.89999980926,5537.89999980926,5533.82999999999,5537.89999980926,1,5537.89999980926,0,0,NA,"Click To Continue","Continue Button",22,"object-73","BIQ",NA,"SUPAMT73133"
"11",1695736511884,"26/09/2023 13:55:11",1695722111884,-4,"26/09/2023 05:55:11",144339,3,"questionnaire-uu2n",NA,31872174,9423356,NA,"complete","ektyic","3NQL1CS15X7R93RKT2VC3KCQZQDYVL","computer","Desktop or Laptop","Windows 10","Chrome 114.0.0.0","1366x768","1366x625",NA,NA,0,"BIQ (Charlotte)",2,"In","ABKCJDIEHFG",NA,"HL","Spreadsheet1",1,"BIQ","Screen 3","iz3the",3,"response","5",2396.534,5533.82999999999,5541.89999980926,2396.534,5533.82999999999,5541.89999980926,1,2396.534,3145.36599980926,0,NA,"Rating Scale","Rating Scale",2,"object-53","BIQ",NA,"SUPAMT73133"
"12",1695736511884,"26/09/2023 13:55:11",1695722111884,-4,"26/09/2023 05:55:11",144339,3,"questionnaire-uu2n",NA,31872174,9423356,NA,"complete","ektyic","3NQL1CS15X7R93RKT2VC3KCQZQDYVL","computer","Desktop or Laptop","Windows 10","Chrome 114.0.0.0","1366x768","1366x625",NA,NA,0,"BIQ (Charlotte)",2,"In","ABKCJDIEHFG",NA,"HL","Spreadsheet1",1,"BIQ","Screen 3","iz3the",3,"response","4",3357.212,5533.82999999999,5542.59999961853,3357.212,5533.82999999999,5542.59999961853,1,3357.212,2185.38799961853,0,NA,"Rating Scale","Rating Scale",9,"object-60","BIQ",NA,"SUPAMT73133"
"13",1695736511885,"26/09/2023 13:55:11",1695722111885,-4,"26/09/2023 05:55:11",144339,3,"questionnaire-uu2n",NA,31872174,9423356,NA,"complete","ektyic","3NQL1CS15X7R93RKT2VC3KCQZQDYVL","computer","Desktop or Laptop","Windows 10","Chrome 114.0.0.0","1366x768","1366x625",NA,NA,0,"BIQ (Charlotte)",2,"In","ABKCJDIEHFG",NA,"HL","Spreadsheet1",1,"BIQ","Screen 3","iz3the",3,"response","6",4177.285,5533.82999999999,5543.00000019073,4177.285,5533.82999999999,5543.00000019073,1,4177.285,1365.71500019074,0,NA,"Rating Scale","Rating Scale",16,"object-67","BIQ",NA,"SUPAMT73133"
"14",1695736511890,"26/09/2023 13:55:11",1695722111890,-4,"26/09/2023 05:55:11",144339,3,"questionnaire-uu2n",NA,31872174,9423356,NA,"complete","ektyic","3NQL1CS15X7R93RKT2VC3KCQZQDYVL","computer","Desktop or Laptop","Windows 10","Chrome 114.0.0.0","1366x768","1366x625",NA,NA,0,"BIQ (Charlotte)",2,"In","ABKCJDIEHFG",NA,"HL","Spreadsheet1",NA,"","","",NA,"5","END",NA,NA,NA,NA,NA,NA,0,NA,NA,NA,NA,"","",NA,"","",NA,"SUPAMT73133"
"1",1695736944084,"26/09/2023 14:02:24",1695722544084,-4,"26/09/2023 06:02:24",144339,3,"questionnaire-uu2n",NA,31872323,9423398,NA,"complete","efepow","3S96KQ6I9S39Y0S4SB8JPHE4KHRTDS","computer","Desktop or Laptop","Windows 10","Chrome 114.0.0.0","1366x768","1366x625",NA,NA,0,"BIQ (Charlotte)",2,"In","BCADKEJFIGH",NA,"HL","Spreadsheet1",NA,"","","",NA,"5","BEGIN",NA,NA,NA,NA,NA,NA,0,NA,NA,NA,NA,"","",NA,"","",NA,"SUPAMT11912"
"2",1695736958039,"26/09/2023 14:02:38",1695722558039,-4,"26/09/2023 06:02:38",144339,3,"questionnaire-uu2n",NA,31872323,9423398,NA,"complete","efepow","3S96KQ6I9S39Y0S4SB8JPHE4KHRTDS","computer","Desktop or Laptop","Windows 10","Chrome 114.0.0.0","1366x768","1366x625",NA,NA,0,"BIQ (Charlotte)",2,"In","BCADKEJFIGH",NA,"HL","Spreadsheet1",1,"BIQ","Screen 1","9dh6eq",1,"continue","",13970.5680001907,13964.625,13970.5680001907,13970.5680001907,13964.625,13970.5680001907,1,13970.5680001907,0,0,NA,"Click To Continue","Continue Button",23,"object-48","BIQ",NA,"SUPAMT11912"
"3",1695736959597,"26/09/2023 14:02:39",1695722559597,-4,"26/09/2023 06:02:39",144339,3,"questionnaire-uu2n",NA,31872323,9423398,NA,"complete","efepow","3S96KQ6I9S39Y0S4SB8JPHE4KHRTDS","computer","Desktop or Laptop","Windows 10","Chrome 114.0.0.0","1366x768","1366x625",NA,NA,0,"BIQ (Charlotte)",2,"In","BCADKEJFIGH",NA,"HL","Spreadsheet1",1,"BIQ","Screen 1","9dh6eq",1,"continue","",15529.768,15523.487,15529.768,15529.768,15523.487,15529.768,1,15529.768,0,0,NA,"Click To Continue","Continue Button",23,"object-48","BIQ",NA,"SUPAMT11912"
"4",1695736959598,"26/09/2023 14:02:39",1695722559598,-4,"26/09/2023 06:02:39",144339,3,"questionnaire-uu2n",NA,31872323,9423398,NA,"complete","efepow","3S96KQ6I9S39Y0S4SB8JPHE4KHRTDS","computer","Desktop or Laptop","Windows 10","Chrome 114.0.0.0","1366x768","1366x625",NA,NA,0,"BIQ (Charlotte)",2,"In","BCADKEJFIGH",NA,"HL","Spreadsheet1",1,"BIQ","Screen 1","9dh6eq",1,"response","6",11928.925,15523.487,15530.6680005722,11928.925,15523.487,15530.6680005722,1,11928.925,3601.74300057221,0,NA,"Rating Scale","Rating Scale",3,"object-5","BIQ",NA,"SUPAMT11912"
"5",1695736959598,"26/09/2023 14:02:39",1695722559598,-4,"26/09/2023 06:02:39",144339,3,"questionnaire-uu2n",NA,31872323,9423398,NA,"complete","efepow","3S96KQ6I9S39Y0S4SB8JPHE4KHRTDS","computer","Desktop or Laptop","Windows 10","Chrome 114.0.0.0","1366x768","1366x625",NA,NA,0,"BIQ (Charlotte)",2,"In","BCADKEJFIGH",NA,"HL","Spreadsheet1",1,"BIQ","Screen 1","9dh6eq",1,"response","5",12391.429,15523.487,15531.0680001907,12391.429,15523.487,15531.0680001907,1,12391.429,3139.63900019073,0,NA,"Rating Scale","Rating Scale",10,"object-18","BIQ",NA,"SUPAMT11912"
"6",1695736959599,"26/09/2023 14:02:39",1695722559599,-4,"26/09/2023 06:02:39",144339,3,"questionnaire-uu2n",NA,31872323,9423398,NA,"complete","efepow","3S96KQ6I9S39Y0S4SB8JPHE4KHRTDS","computer","Desktop or Laptop","Windows 10","Chrome 114.0.0.0","1366x768","1366x625",NA,NA,0,"BIQ (Charlotte)",2,"In","BCADKEJFIGH",NA,"HL","Spreadsheet1",1,"BIQ","Screen 1","9dh6eq",1,"response","6",14818.293,15523.487,15531.6680005722,14818.293,15523.487,15531.6680005722,1,14818.293,713.375000572203,0,NA,"Rating Scale","Rating Scale",17,"object-80","BIQ",NA,"SUPAMT11912"
"7",1695736964294,"26/09/2023 14:02:44",1695722564294,-4,"26/09/2023 06:02:44",144339,3,"questionnaire-uu2n",NA,31872323,9423398,NA,"complete","efepow","3S96KQ6I9S39Y0S4SB8JPHE4KHRTDS","computer","Desktop or Laptop","Windows 10","Chrome 114.0.0.0","1366x768","1366x625",NA,NA,0,"BIQ (Charlotte)",2,"In","BCADKEJFIGH",NA,"HL","Spreadsheet1",1,"BIQ","Screen 2","o21mwi",2,"continue","",4703.48100076294,4698.781,4703.48100076294,4703.48100076294,4698.781,4703.48100076294,1,4703.48100076294,0,0,NA,"Click To Continue","Continue Button",22,"object-50","BIQ",NA,"SUPAMT11912"
"8",1695736964295,"26/09/2023 14:02:44",1695722564295,-4,"26/09/2023 06:02:44",144339,3,"questionnaire-uu2n",NA,31872323,9423398,NA,"complete","efepow","3S96KQ6I9S39Y0S4SB8JPHE4KHRTDS","computer","Desktop or Laptop","Windows 10","Chrome 114.0.0.0","1366x768","1366x625",NA,NA,0,"BIQ (Charlotte)",2,"In","BCADKEJFIGH",NA,"HL","Spreadsheet1",1,"BIQ","Screen 2","o21mwi",2,"response","5",3101.628,4698.781,4704.08100019073,3101.628,4698.781,4704.08100019073,1,3101.628,1602.45300019073,0,NA,"Rating Scale","Rating Scale",2,"object-259","BIQ",NA,"SUPAMT11912"
"9",1695736964295,"26/09/2023 14:02:44",1695722564295,-4,"26/09/2023 06:02:44",144339,3,"questionnaire-uu2n",NA,31872323,9423398,NA,"complete","efepow","3S96KQ6I9S39Y0S4SB8JPHE4KHRTDS","computer","Desktop or Laptop","Windows 10","Chrome 114.0.0.0","1366x768","1366x625",NA,NA,0,"BIQ (Charlotte)",2,"In","BCADKEJFIGH",NA,"HL","Spreadsheet1",1,"BIQ","Screen 2","o21mwi",2,"response","6",3611.792,4698.781,4704.58100019073,3611.792,4698.781,4704.58100019073,1,3611.792,1092.78900019074,0,NA,"Rating Scale","Rating Scale",9,"object-36","BIQ",NA,"SUPAMT11912"
"10",1695736964296,"26/09/2023 14:02:44",1695722564296,-4,"26/09/2023 06:02:44",144339,3,"questionnaire-uu2n",NA,31872323,9423398,NA,"complete","efepow","3S96KQ6I9S39Y0S4SB8JPHE4KHRTDS","computer","Desktop or Laptop","Windows 10","Chrome 114.0.0.0","1366x768","1366x625",NA,NA,0,"BIQ (Charlotte)",2,"In","BCADKEJFIGH",NA,"HL","Spreadsheet1",1,"BIQ","Screen 2","o21mwi",2,"response","5",4174.293,4698.781,4705.281,4174.293,4698.781,4705.281,1,4174.293,530.988000000001,0,NA,"Rating Scale","Rating Scale",16,"object-86","BIQ",NA,"SUPAMT11912"
"11",1695736968164,"26/09/2023 14:02:48",1695722568164,-4,"26/09/2023 06:02:48",144339,3,"questionnaire-uu2n",NA,31872323,9423398,NA,"complete","efepow","3S96KQ6I9S39Y0S4SB8JPHE4KHRTDS","computer","Desktop or Laptop","Windows 10","Chrome 114.0.0.0","1366x768","1366x625",NA,NA,0,"BIQ (Charlotte)",2,"In","BCADKEJFIGH",NA,"HL","Spreadsheet1",1,"BIQ","Screen 3","iz3the",3,"continue","",3873.753,3857.087,3873.753,3873.753,3857.087,3873.753,1,3873.753,0,0,NA,"Click To Continue","Continue Button",22,"object-73","BIQ",NA,"SUPAMT11912"
"12",1695736968168,"26/09/2023 14:02:48",1695722568168,-4,"26/09/2023 06:02:48",144339,3,"questionnaire-uu2n",NA,31872323,9423398,NA,"complete","efepow","3S96KQ6I9S39Y0S4SB8JPHE4KHRTDS","computer","Desktop or Laptop","Windows 10","Chrome 114.0.0.0","1366x768","1366x625",NA,NA,0,"BIQ (Charlotte)",2,"In","BCADKEJFIGH",NA,"HL","Spreadsheet1",1,"BIQ","Screen 3","iz3the",3,"response","6",2479.203,3857.087,3873.753,2479.203,3857.087,3873.753,1,2479.203,1394.55,0,NA,"Rating Scale","Rating Scale",2,"object-53","BIQ",NA,"SUPAMT11912"
"13",1695736968168,"26/09/2023 14:02:48",1695722568168,-4,"26/09/2023 06:02:48",144339,3,"questionnaire-uu2n",NA,31872323,9423398,NA,"complete","efepow","3S96KQ6I9S39Y0S4SB8JPHE4KHRTDS","computer","Desktop or Laptop","Windows 10","Chrome 114.0.0.0","1366x768","1366x625",NA,NA,0,"BIQ (Charlotte)",2,"In","BCADKEJFIGH",NA,"HL","Spreadsheet1",1,"BIQ","Screen 3","iz3the",3,"response","5",2953.693,3857.087,3873.753,2953.693,3857.087,3873.753,1,2953.693,920.060000000001,0,NA,"Rating Scale","Rating Scale",9,"object-60","BIQ",NA,"SUPAMT11912"
"14",1695736968169,"26/09/2023 14:02:48",1695722568169,-4,"26/09/2023 06:02:48",144339,3,"questionnaire-uu2n",NA,31872323,9423398,NA,"complete","efepow","3S96KQ6I9S39Y0S4SB8JPHE4KHRTDS","computer","Desktop or Laptop","Windows 10","Chrome 114.0.0.0","1366x768","1366x625",NA,NA,0,"BIQ (Charlotte)",2,"In","BCADKEJFIGH",NA,"HL","Spreadsheet1",1,"BIQ","Screen 3","iz3the",3,"response","6",3335.221,3857.087,3873.753,3335.221,3857.087,3873.753,1,3335.221,538.531999999999,0,NA,"Rating Scale","Rating Scale",16,"object-67","BIQ",NA,"SUPAMT11912"
"15",1695736968174,"26/09/2023 14:02:48",1695722568174,-4,"26/09/2023 06:02:48",144339,3,"questionnaire-uu2n",NA,31872323,9423398,NA,"complete","efepow","3S96KQ6I9S39Y0S4SB8JPHE4KHRTDS","computer","Desktop or Laptop","Windows 10","Chrome 114.0.0.0","1366x768","1366x625",NA,NA,0,"BIQ (Charlotte)",2,"In","BCADKEJFIGH",NA,"HL","Spreadsheet1",NA,"","","",NA,"5","END",NA,NA,NA,NA,NA,NA,0,NA,NA,NA,NA,"","",NA,"","",NA,"SUPAMT11912"
"1",1695748762911,"26/09/2023 17:19:22",1695723562911,-7,"26/09/2023 03:19:22",144339,3,"questionnaire-uu2n",NA,31872773,9423485,NA,"complete","mpskad","3LEIZ60CDPYTHMOMMNSZP9WVES69ZF","computer","Desktop or Laptop","Windows 10","Chrome 117.0.0.0","1364x768","1364x651",NA,NA,0,"BIQ (Charlotte)",2,"In","CDBEAFKGJHI",NA,"LH","Spreadsheet1",NA,"","","",NA,"5","BEGIN",NA,NA,NA,NA,NA,NA,0,NA,NA,NA,NA,"","",NA,"","",NA,"SUPAMT79593"
"2",1695748768570,"26/09/2023 17:19:28",1695723568570,-7,"26/09/2023 03:19:28",144339,3,"questionnaire-uu2n",NA,31872773,9423485,NA,"complete","mpskad","3LEIZ60CDPYTHMOMMNSZP9WVES69ZF","computer","Desktop or Laptop","Windows 10","Chrome 117.0.0.0","1364x768","1364x651",NA,NA,0,"BIQ (Charlotte)",2,"In","CDBEAFKGJHI",NA,"LH","Spreadsheet1",1,"BIQ","Screen 1","9dh6eq",1,"continue","",5653.5,5625,5653.5,5653.5,5625,5653.5,1,5653.5,0,0,NA,"Click To Continue","Continue Button",23,"object-48","BIQ",NA,"SUPAMT79593"
"3",1695748768570,"26/09/2023 17:19:28",1695723568570,-7,"26/09/2023 03:19:28",144339,3,"questionnaire-uu2n",NA,31872773,9423485,NA,"complete","mpskad","3LEIZ60CDPYTHMOMMNSZP9WVES69ZF","computer","Desktop or Laptop","Windows 10","Chrome 117.0.0.0","1364x768","1364x651",NA,NA,0,"BIQ (Charlotte)",2,"In","CDBEAFKGJHI",NA,"LH","Spreadsheet1",1,"BIQ","Screen 1","9dh6eq",1,"response","5",1437.5,5625,5656.25,1437.5,5625,5656.25,1,1437.5,4218.75,0,NA,"Rating Scale","Rating Scale",3,"object-5","BIQ",NA,"SUPAMT79593"
"4",1695748768571,"26/09/2023 17:19:28",1695723568571,-7,"26/09/2023 03:19:28",144339,3,"questionnaire-uu2n",NA,31872773,9423485,NA,"complete","mpskad","3LEIZ60CDPYTHMOMMNSZP9WVES69ZF","computer","Desktop or Laptop","Windows 10","Chrome 117.0.0.0","1364x768","1364x651",NA,NA,0,"BIQ (Charlotte)",2,"In","CDBEAFKGJHI",NA,"LH","Spreadsheet1",1,"BIQ","Screen 1","9dh6eq",1,"response","4",2218.75,5625,5656.25,2218.75,5625,5656.25,1,2218.75,3437.5,0,NA,"Rating Scale","Rating Scale",10,"object-18","BIQ",NA,"SUPAMT79593"
"5",1695748768571,"26/09/2023 17:19:28",1695723568571,-7,"26/09/2023 03:19:28",144339,3,"questionnaire-uu2n",NA,31872773,9423485,NA,"complete","mpskad","3LEIZ60CDPYTHMOMMNSZP9WVES69ZF","computer","Desktop or Laptop","Windows 10","Chrome 117.0.0.0","1364x768","1364x651",NA,NA,0,"BIQ (Charlotte)",2,"In","CDBEAFKGJHI",NA,"LH","Spreadsheet1",1,"BIQ","Screen 1","9dh6eq",1,"response","5",2781.25,5625,5656.25,2781.25,5625,5656.25,1,2781.25,2875,0,NA,"Rating Scale","Rating Scale",17,"object-80","BIQ",NA,"SUPAMT79593"
"6",1695748772072,"26/09/2023 17:19:32",1695723572072,-7,"26/09/2023 03:19:32",144339,3,"questionnaire-uu2n",NA,31872773,9423485,NA,"complete","mpskad","3LEIZ60CDPYTHMOMMNSZP9WVES69ZF","computer","Desktop or Laptop","Windows 10","Chrome 117.0.0.0","1364x768","1364x651",NA,NA,0,"BIQ (Charlotte)",2,"In","CDBEAFKGJHI",NA,"LH","Spreadsheet1",1,"BIQ","Screen 2","o21mwi",2,"continue","",3548.5,3531.25,3548.5,3548.5,3531.25,3548.5,1,3548.5,0,0,NA,"Click To Continue","Continue Button",22,"object-50","BIQ",NA,"SUPAMT79593"
"7",1695748772073,"26/09/2023 17:19:32",1695723572073,-7,"26/09/2023 03:19:32",144339,3,"questionnaire-uu2n",NA,31872773,9423485,NA,"complete","mpskad","3LEIZ60CDPYTHMOMMNSZP9WVES69ZF","computer","Desktop or Laptop","Windows 10","Chrome 117.0.0.0","1364x768","1364x651",NA,NA,0,"BIQ (Charlotte)",2,"In","CDBEAFKGJHI",NA,"LH","Spreadsheet1",1,"BIQ","Screen 2","o21mwi",2,"response","5",1656.25,3531.25,3549.5,1656.25,3531.25,3549.5,1,1656.25,1893.25,0,NA,"Rating Scale","Rating Scale",2,"object-259","BIQ",NA,"SUPAMT79593"
"8",1695748772073,"26/09/2023 17:19:32",1695723572073,-7,"26/09/2023 03:19:32",144339,3,"questionnaire-uu2n",NA,31872773,9423485,NA,"complete","mpskad","3LEIZ60CDPYTHMOMMNSZP9WVES69ZF","computer","Desktop or Laptop","Windows 10","Chrome 117.0.0.0","1364x768","1364x651",NA,NA,0,"BIQ (Charlotte)",2,"In","CDBEAFKGJHI",NA,"LH","Spreadsheet1",1,"BIQ","Screen 2","o21mwi",2,"response","4",2375,3531.25,3549.5,2375,3531.25,3549.5,1,2375,1174.5,0,NA,"Rating Scale","Rating Scale",9,"object-36","BIQ",NA,"SUPAMT79593"
"9",1695748772073,"26/09/2023 17:19:32",1695723572073,-7,"26/09/2023 03:19:32",144339,3,"questionnaire-uu2n",NA,31872773,9423485,NA,"complete","mpskad","3LEIZ60CDPYTHMOMMNSZP9WVES69ZF","computer","Desktop or Laptop","Windows 10","Chrome 117.0.0.0","1364x768","1364x651",NA,NA,0,"BIQ (Charlotte)",2,"In","CDBEAFKGJHI",NA,"LH","Spreadsheet1",1,"BIQ","Screen 2","o21mwi",2,"response","5",2781.25,3531.25,3549.5,2781.25,3531.25,3549.5,1,2781.25,768.25,0,NA,"Rating Scale","Rating Scale",16,"object-86","BIQ",NA,"SUPAMT79593"
"10",1695748776117,"26/09/2023 17:19:36",1695723576117,-7,"26/09/2023 03:19:36",144339,3,"questionnaire-uu2n",NA,31872773,9423485,NA,"complete","mpskad","3LEIZ60CDPYTHMOMMNSZP9WVES69ZF","computer","Desktop or Laptop","Windows 10","Chrome 117.0.0.0","1364x768","1364x651",NA,NA,0,"BIQ (Charlotte)",2,"In","CDBEAFKGJHI",NA,"LH","Spreadsheet1",1,"BIQ","Screen 3","iz3the",3,"continue","",4058.25,4031.25,4058.25,4058.25,4031.25,4058.25,1,4058.25,0,0,NA,"Click To Continue","Continue Button",22,"object-73","BIQ",NA,"SUPAMT79593"
"11",1695748776122,"26/09/2023 17:19:36",1695723576122,-7,"26/09/2023 03:19:36",144339,3,"questionnaire-uu2n",NA,31872773,9423485,NA,"complete","mpskad","3LEIZ60CDPYTHMOMMNSZP9WVES69ZF","computer","Desktop or Laptop","Windows 10","Chrome 117.0.0.0","1364x768","1364x651",NA,NA,0,"BIQ (Charlotte)",2,"In","CDBEAFKGJHI",NA,"LH","Spreadsheet1",1,"BIQ","Screen 3","iz3the",3,"response","5",2625,4031.25,4062.5,2625,4031.25,4062.5,1,2625,1437.5,0,NA,"Rating Scale","Rating Scale",2,"object-53","BIQ",NA,"SUPAMT79593"
"12",1695748776122,"26/09/2023 17:19:36",1695723576122,-7,"26/09/2023 03:19:36",144339,3,"questionnaire-uu2n",NA,31872773,9423485,NA,"complete","mpskad","3LEIZ60CDPYTHMOMMNSZP9WVES69ZF","computer","Desktop or Laptop","Windows 10","Chrome 117.0.0.0","1364x768","1364x651",NA,NA,0,"BIQ (Charlotte)",2,"In","CDBEAFKGJHI",NA,"LH","Spreadsheet1",1,"BIQ","Screen 3","iz3the",3,"response","6",3093.75,4031.25,4062.5,3093.75,4031.25,4062.5,1,3093.75,968.75,0,NA,"Rating Scale","Rating Scale",9,"object-60","BIQ",NA,"SUPAMT79593"
"13",1695748776122,"26/09/2023 17:19:36",1695723576122,-7,"26/09/2023 03:19:36",144339,3,"questionnaire-uu2n",NA,31872773,9423485,NA,"complete","mpskad","3LEIZ60CDPYTHMOMMNSZP9WVES69ZF","computer","Desktop or Laptop","Windows 10","Chrome 117.0.0.0","1364x768","1364x651",NA,NA,0,"BIQ (Charlotte)",2,"In","CDBEAFKGJHI",NA,"LH","Spreadsheet1",1,"BIQ","Screen 3","iz3the",3,"response","5",3593.75,4031.25,4062.5,3593.75,4031.25,4062.5,1,3593.75,468.75,0,NA,"Rating Scale","Rating Scale",16,"object-67","BIQ",NA,"SUPAMT79593"
"14",1695748776126,"26/09/2023 17:19:36",1695723576126,-7,"26/09/2023 03:19:36",144339,3,"questionnaire-uu2n",NA,31872773,9423485,NA,"complete","mpskad","3LEIZ60CDPYTHMOMMNSZP9WVES69ZF","computer","Desktop or Laptop","Windows 10","Chrome 117.0.0.0","1364x768","1364x651",NA,NA,0,"BIQ (Charlotte)",2,"In","CDBEAFKGJHI",NA,"LH","Spreadsheet1",NA,"","","",NA,"5","END",NA,NA,NA,NA,NA,NA,0,NA,NA,NA,NA,"","",NA,"","",NA,"SUPAMT79593"
"1",1695759775781,"26/09/2023 20:22:55",1695745375781,-4,"26/09/2023 12:22:55",144339,3,"questionnaire-uu2n",NA,31872952,9423554,NA,"complete","wofrqc","","computer","Desktop or Laptop","Windows 10","Chrome 116.0.0.0","1280x1024","1280x875",NA,NA,0,"BIQ (Charlotte)",2,"In","FGEHDICJBKA",NA,"LH","Spreadsheet1",NA,"","","",NA,"5","BEGIN",NA,NA,NA,NA,NA,NA,0,NA,NA,NA,NA,"","",NA,"","",NA,"SUPAMT72194"
"2",1695759781417,"26/09/2023 20:23:01",1695745381417,-4,"26/09/2023 12:23:01",144339,3,"questionnaire-uu2n",NA,31872952,9423554,NA,"complete","wofrqc","","computer","Desktop or Laptop","Windows 10","Chrome 116.0.0.0","1280x1024","1280x875",NA,NA,0,"BIQ (Charlotte)",2,"In","FGEHDICJBKA",NA,"LH","Spreadsheet1",1,"BIQ","Screen 1","9dh6eq",1,"continue","",5672.245,5642.987,5672.245,5672.245,5642.987,5672.245,1,5672.245,0,0,NA,"Click To Continue","Continue Button",23,"object-48","BIQ",NA,NA
"3",1695759781418,"26/09/2023 20:23:01",1695745381418,-4,"26/09/2023 12:23:01",144339,3,"questionnaire-uu2n",NA,31872952,9423554,NA,"complete","wofrqc","","computer","Desktop or Laptop","Windows 10","Chrome 116.0.0.0","1280x1024","1280x875",NA,NA,0,"BIQ (Charlotte)",2,"In","FGEHDICJBKA",NA,"LH","Spreadsheet1",1,"BIQ","Screen 1","9dh6eq",1,"response","5",2007.002,5642.987,5674.236,2007.002,5642.987,5674.236,1,2007.002,3667.234,0,NA,"Rating Scale","Rating Scale",3,"object-5","BIQ",NA,NA
"4",1695759781419,"26/09/2023 20:23:01",1695745381419,-4,"26/09/2023 12:23:01",144339,3,"questionnaire-uu2n",NA,31872952,9423554,NA,"complete","wofrqc","","computer","Desktop or Laptop","Windows 10","Chrome 116.0.0.0","1280x1024","1280x875",NA,NA,0,"BIQ (Charlotte)",2,"In","FGEHDICJBKA",NA,"LH","Spreadsheet1",1,"BIQ","Screen 1","9dh6eq",1,"response","6",4181.534,5642.987,5674.236,4181.534,5642.987,5674.236,1,4181.534,1492.702,0,NA,"Rating Scale","Rating Scale",10,"object-18","BIQ",NA,NA
"5",1695759781419,"26/09/2023 20:23:01",1695745381419,-4,"26/09/2023 12:23:01",144339,3,"questionnaire-uu2n",NA,31872952,9423554,NA,"complete","wofrqc","","computer","Desktop or Laptop","Windows 10","Chrome 116.0.0.0","1280x1024","1280x875",NA,NA,0,"BIQ (Charlotte)",2,"In","FGEHDICJBKA",NA,"LH","Spreadsheet1",1,"BIQ","Screen 1","9dh6eq",1,"response","5",3031.445,5642.987,5674.236,3031.445,5642.987,5674.236,1,3031.445,2642.791,0,NA,"Rating Scale","Rating Scale",17,"object-80","BIQ",NA,NA
"6",1695759785357,"26/09/2023 20:23:05",1695745385357,-4,"26/09/2023 12:23:05",144339,3,"questionnaire-uu2n",NA,31872952,9423554,NA,"complete","wofrqc","","computer","Desktop or Laptop","Windows 10","Chrome 116.0.0.0","1280x1024","1280x875",NA,NA,0,"BIQ (Charlotte)",2,"In","FGEHDICJBKA",NA,"LH","Spreadsheet1",1,"BIQ","Screen 2","o21mwi",2,"continue","",3971.05799995232,3958.792,3971.05799995232,3971.05799995232,3958.792,3971.05799995232,1,3971.05799995232,0,0,NA,"Click To Continue","Continue Button",22,"object-50","BIQ",NA,NA
"7",1695759785358,"26/09/2023 20:23:05",1695745385358,-4,"26/09/2023 12:23:05",144339,3,"questionnaire-uu2n",NA,31872952,9423554,NA,"complete","wofrqc","","computer","Desktop or Laptop","Windows 10","Chrome 116.0.0.0","1280x1024","1280x875",NA,NA,0,"BIQ (Charlotte)",2,"In","FGEHDICJBKA",NA,"LH","Spreadsheet1",1,"BIQ","Screen 2","o21mwi",2,"response","5",1817.776,3958.792,3972.258,1817.776,3958.792,3972.258,1,1817.776,2154.482,0,NA,"Rating Scale","Rating Scale",2,"object-259","BIQ",NA,NA
"8",1695759785359,"26/09/2023 20:23:05",1695745385359,-4,"26/09/2023 12:23:05",144339,3,"questionnaire-uu2n",NA,31872952,9423554,NA,"complete","wofrqc","","computer","Desktop or Laptop","Windows 10","Chrome 116.0.0.0","1280x1024","1280x875",NA,NA,0,"BIQ (Charlotte)",2,"In","FGEHDICJBKA",NA,"LH","Spreadsheet1",1,"BIQ","Screen 2","o21mwi",2,"response","6",2559.072,3958.792,3973.05799995232,2559.072,3958.792,3973.05799995232,1,2559.072,1413.98599995232,0,NA,"Rating Scale","Rating Scale",9,"object-36","BIQ",NA,NA
"9",1695759785360,"26/09/2023 20:23:05",1695745385360,-4,"26/09/2023 12:23:05",144339,3,"questionnaire-uu2n",NA,31872952,9423554,NA,"complete","wofrqc","","computer","Desktop or Laptop","Windows 10","Chrome 116.0.0.0","1280x1024","1280x875",NA,NA,0,"BIQ (Charlotte)",2,"In","FGEHDICJBKA",NA,"LH","Spreadsheet1",1,"BIQ","Screen 2","o21mwi",2,"response","6",3025.3,3958.792,3973.85799990463,3025.3,3958.792,3973.85799990463,1,3025.3,948.557999904633,0,NA,"Rating Scale","Rating Scale",16,"object-86","BIQ",NA,NA
"10",1695759788910,"26/09/2023 20:23:08",1695745388910,-4,"26/09/2023 12:23:08",144339,3,"questionnaire-uu2n",NA,31872952,9423554,NA,"complete","wofrqc","","computer","Desktop or Laptop","Windows 10","Chrome 116.0.0.0","1280x1024","1280x875",NA,NA,0,"BIQ (Charlotte)",2,"In","FGEHDICJBKA",NA,"LH","Spreadsheet1",1,"BIQ","Screen 3","iz3the",3,"continue","",3565.26599995232,3552.905,3565.26599995232,3565.26599995232,3552.905,3565.26599995232,1,3565.26599995232,0,0,NA,"Click To Continue","Continue Button",22,"object-73","BIQ",NA,NA
"11",1695759788919,"26/09/2023 20:23:08",1695745388919,-4,"26/09/2023 12:23:08",144339,3,"questionnaire-uu2n",NA,31872952,9423554,NA,"complete","wofrqc","","computer","Desktop or Laptop","Windows 10","Chrome 116.0.0.0","1280x1024","1280x875",NA,NA,0,"BIQ (Charlotte)",2,"In","FGEHDICJBKA",NA,"LH","Spreadsheet1",1,"BIQ","Screen 3","iz3the",3,"response","6",1452.007,3552.905,3574.26599995232,1452.007,3552.905,3574.26599995232,1,1452.007,2122.25899995232,0,NA,"Rating Scale","Rating Scale",2,"object-53","BIQ",NA,NA
"12",1695759788920,"26/09/2023 20:23:08",1695745388920,-4,"26/09/2023 12:23:08",144339,3,"questionnaire-uu2n",NA,31872952,9423554,NA,"complete","wofrqc","","computer","Desktop or Laptop","Windows 10","Chrome 116.0.0.0","1280x1024","1280x875",NA,NA,0,"BIQ (Charlotte)",2,"In","FGEHDICJBKA",NA,"LH","Spreadsheet1",1,"BIQ","Screen 3","iz3the",3,"response","5",2068.983,3552.905,3574.966,2068.983,3552.905,3574.966,1,2068.983,1505.983,0,NA,"Rating Scale","Rating Scale",9,"object-60","BIQ",NA,NA
"13",1695759788920,"26/09/2023 20:23:08",1695745388920,-4,"26/09/2023 12:23:08",144339,3,"questionnaire-uu2n",NA,31872952,9423554,NA,"complete","wofrqc","","computer","Desktop or Laptop","Windows 10","Chrome 116.0.0.0","1280x1024","1280x875",NA,NA,0,"BIQ (Charlotte)",2,"In","FGEHDICJBKA",NA,"LH","Spreadsheet1",1,"BIQ","Screen 3","iz3the",3,"response","6",2562.314,3552.905,3575.466,2562.314,3552.905,3575.466,1,2562.314,1013.152,0,NA,"Rating Scale","Rating Scale",16,"object-67","BIQ",NA,NA
"14",1695759788922,"26/09/2023 20:23:08",1695745388922,-4,"26/09/2023 12:23:08",144339,3,"questionnaire-uu2n",NA,31872952,9423554,NA,"complete","wofrqc","","computer","Desktop or Laptop","Windows 10","Chrome 116.0.0.0","1280x1024","1280x875",NA,NA,0,"BIQ (Charlotte)",2,"In","FGEHDICJBKA",NA,"LH","Spreadsheet1",NA,"","","",NA,"5","END",NA,NA,NA,NA,NA,NA,0,NA,NA,NA,NA,"","",NA,"","",NA,NA
"1",1695738153453,"26/09/2023 14:22:33",1695723753453,-4,"26/09/2023 06:22:33",144339,3,"questionnaire-uu2n",NA,31872960,9423504,NA,"complete","pkqdmp","3WOKGM4L77FZMOM2KIYPG0OYRK9O0G","computer","Desktop or Laptop","Windows 10","Chrome 116.0.0.0","1364x768","1364x651",NA,NA,0,"BIQ (Charlotte)",2,"In","DECFBGAHKIJ",NA,"HL","Spreadsheet1",NA,"","","",NA,"5","BEGIN",NA,NA,NA,NA,NA,NA,0,NA,NA,NA,NA,"","",NA,"","",NA,"SUPAMT63428"
"2",1695738167875,"26/09/2023 14:22:47",1695723767875,-4,"26/09/2023 06:22:47",144339,3,"questionnaire-uu2n",NA,31872960,9423504,NA,"complete","pkqdmp","3WOKGM4L77FZMOM2KIYPG0OYRK9O0G","computer","Desktop or Laptop","Windows 10","Chrome 116.0.0.0","1364x768","1364x651",NA,NA,0,"BIQ (Charlotte)",2,"In","DECFBGAHKIJ",NA,"HL","Spreadsheet1",1,"BIQ","Screen 1","9dh6eq",1,"continue","",14440.117,14423.451,14440.117,14440.117,14423.451,14440.117,1,14440.117,0,0,NA,"Click To Continue","Continue Button",23,"object-48","BIQ",NA,"SUPAMT63428"
"3",1695738167878,"26/09/2023 14:22:47",1695723767878,-4,"26/09/2023 06:22:47",144339,3,"questionnaire-uu2n",NA,31872960,9423504,NA,"complete","pkqdmp","3WOKGM4L77FZMOM2KIYPG0OYRK9O0G","computer","Desktop or Laptop","Windows 10","Chrome 116.0.0.0","1364x768","1364x651",NA,NA,0,"BIQ (Charlotte)",2,"In","DECFBGAHKIJ",NA,"HL","Spreadsheet1",1,"BIQ","Screen 1","9dh6eq",1,"response","3",9053.453,14423.451,14440.117,9053.453,14423.451,14440.117,1,9053.453,5386.664,0,NA,"Rating Scale","Rating Scale",3,"object-5","BIQ",NA,"SUPAMT63428"
"4",1695738167879,"26/09/2023 14:22:47",1695723767879,-4,"26/09/2023 06:22:47",144339,3,"questionnaire-uu2n",NA,31872960,9423504,NA,"complete","pkqdmp","3WOKGM4L77FZMOM2KIYPG0OYRK9O0G","computer","Desktop or Laptop","Windows 10","Chrome 116.0.0.0","1364x768","1364x651",NA,NA,0,"BIQ (Charlotte)",2,"In","DECFBGAHKIJ",NA,"HL","Spreadsheet1",1,"BIQ","Screen 1","9dh6eq",1,"response","3",11548.243,14423.451,14440.117,11548.243,14423.451,14440.117,1,11548.243,2891.874,0,NA,"Rating Scale","Rating Scale",10,"object-18","BIQ",NA,"SUPAMT63428"
"5",1695738167880,"26/09/2023 14:22:47",1695723767880,-4,"26/09/2023 06:22:47",144339,3,"questionnaire-uu2n",NA,31872960,9423504,NA,"complete","pkqdmp","3WOKGM4L77FZMOM2KIYPG0OYRK9O0G","computer","Desktop or Laptop","Windows 10","Chrome 116.0.0.0","1364x768","1364x651",NA,NA,0,"BIQ (Charlotte)",2,"In","DECFBGAHKIJ",NA,"HL","Spreadsheet1",1,"BIQ","Screen 1","9dh6eq",1,"response","5",13435.753,14423.451,14440.117,13435.753,14423.451,14440.117,1,13435.753,1004.364,0,NA,"Rating Scale","Rating Scale",17,"object-80","BIQ",NA,"SUPAMT63428"
"6",1695738182770,"26/09/2023 14:23:02",1695723782770,-4,"26/09/2023 06:23:02",144339,3,"questionnaire-uu2n",NA,31872960,9423504,NA,"complete","pkqdmp","3WOKGM4L77FZMOM2KIYPG0OYRK9O0G","computer","Desktop or Laptop","Windows 10","Chrome 116.0.0.0","1364x768","1364x651",NA,NA,0,"BIQ (Charlotte)",2,"In","DECFBGAHKIJ",NA,"HL","Spreadsheet1",1,"BIQ","Screen 2","o21mwi",2,"continue","",14917.2720000954,14912.999,14917.2720000954,14917.2720000954,14912.999,14917.2720000954,1,14917.2720000954,0,0,NA,"Click To Continue","Continue Button",22,"object-50","BIQ",NA,"SUPAMT63428"
"7",1695738182773,"26/09/2023 14:23:02",1695723782773,-4,"26/09/2023 06:23:02",144339,3,"questionnaire-uu2n",NA,31872960,9423504,NA,"complete","pkqdmp","3WOKGM4L77FZMOM2KIYPG0OYRK9O0G","computer","Desktop or Laptop","Windows 10","Chrome 116.0.0.0","1364x768","1364x651",NA,NA,0,"BIQ (Charlotte)",2,"In","DECFBGAHKIJ",NA,"HL","Spreadsheet1",1,"BIQ","Screen 2","o21mwi",2,"response","2",7600.408,14912.999,14921.1719999523,7600.408,14912.999,14921.1719999523,1,7600.408,7320.76399995232,0,NA,"Rating Scale","Rating Scale",2,"object-259","BIQ",NA,"SUPAMT63428"
"8",1695738182774,"26/09/2023 14:23:02",1695723782774,-4,"26/09/2023 06:23:02",144339,3,"questionnaire-uu2n",NA,31872960,9423504,NA,"complete","pkqdmp","3WOKGM4L77FZMOM2KIYPG0OYRK9O0G","computer","Desktop or Laptop","Windows 10","Chrome 116.0.0.0","1364x768","1364x651",NA,NA,0,"BIQ (Charlotte)",2,"In","DECFBGAHKIJ",NA,"HL","Spreadsheet1",1,"BIQ","Screen 2","o21mwi",2,"response","2",10531.95,14912.999,14921.7720000954,10531.95,14912.999,14921.7720000954,1,10531.95,4389.82200009537,0,NA,"Rating Scale","Rating Scale",9,"object-36","BIQ",NA,"SUPAMT63428"
"9",1695738182774,"26/09/2023 14:23:02",1695723782774,-4,"26/09/2023 06:23:02",144339,3,"questionnaire-uu2n",NA,31872960,9423504,NA,"complete","pkqdmp","3WOKGM4L77FZMOM2KIYPG0OYRK9O0G","computer","Desktop or Laptop","Windows 10","Chrome 116.0.0.0","1364x768","1364x651",NA,NA,0,"BIQ (Charlotte)",2,"In","DECFBGAHKIJ",NA,"HL","Spreadsheet1",1,"BIQ","Screen 2","o21mwi",2,"response","7",12075.06,14912.999,14922.372,12075.06,14912.999,14922.372,1,12075.06,2847.312,0,NA,"Rating Scale","Rating Scale",16,"object-86","BIQ",NA,"SUPAMT63428"
"10",1695738195159,"26/09/2023 14:23:15",1695723795159,-4,"26/09/2023 06:23:15",144339,3,"questionnaire-uu2n",NA,31872960,9423504,NA,"complete","pkqdmp","3WOKGM4L77FZMOM2KIYPG0OYRK9O0G","computer","Desktop or Laptop","Windows 10","Chrome 116.0.0.0","1364x768","1364x651",NA,NA,0,"BIQ (Charlotte)",2,"In","DECFBGAHKIJ",NA,"HL","Spreadsheet1",1,"BIQ","Screen 3","iz3the",3,"continue","",12393.873,12387.679,12393.873,12393.873,12387.679,12393.873,1,12393.873,0,0,NA,"Click To Continue","Continue Button",22,"object-73","BIQ",NA,"SUPAMT63428"
"11",1695738195162,"26/09/2023 14:23:15",1695723795162,-4,"26/09/2023 06:23:15",144339,3,"questionnaire-uu2n",NA,31872960,9423504,NA,"complete","pkqdmp","3WOKGM4L77FZMOM2KIYPG0OYRK9O0G","computer","Desktop or Laptop","Windows 10","Chrome 116.0.0.0","1364x768","1364x651",NA,NA,0,"BIQ (Charlotte)",2,"In","DECFBGAHKIJ",NA,"HL","Spreadsheet1",1,"BIQ","Screen 3","iz3the",3,"response","8",8071.627,12387.679,12396.6729999523,8071.627,12387.679,12396.6729999523,1,8071.627,4325.04599995232,0,NA,"Rating Scale","Rating Scale",2,"object-53","BIQ",NA,"SUPAMT63428"
"12",1695738195163,"26/09/2023 14:23:15",1695723795163,-4,"26/09/2023 06:23:15",144339,3,"questionnaire-uu2n",NA,31872960,9423504,NA,"complete","pkqdmp","3WOKGM4L77FZMOM2KIYPG0OYRK9O0G","computer","Desktop or Laptop","Windows 10","Chrome 116.0.0.0","1364x768","1364x651",NA,NA,0,"BIQ (Charlotte)",2,"In","DECFBGAHKIJ",NA,"HL","Spreadsheet1",1,"BIQ","Screen 3","iz3the",3,"response","8",8818.022,12387.679,12397.5730000477,8818.022,12387.679,12397.5730000477,1,8818.022,3579.55100004769,0,NA,"Rating Scale","Rating Scale",9,"object-60","BIQ",NA,"SUPAMT63428"
"13",1695738195163,"26/09/2023 14:23:15",1695723795163,-4,"26/09/2023 06:23:15",144339,3,"questionnaire-uu2n",NA,31872960,9423504,NA,"complete","pkqdmp","3WOKGM4L77FZMOM2KIYPG0OYRK9O0G","computer","Desktop or Laptop","Windows 10","Chrome 116.0.0.0","1364x768","1364x651",NA,NA,0,"BIQ (Charlotte)",2,"In","DECFBGAHKIJ",NA,"HL","Spreadsheet1",1,"BIQ","Screen 3","iz3the",3,"response","8",9646.931,12387.679,12398.2730000954,9646.931,12387.679,12398.2730000954,1,9646.931,2751.34200009537,0,NA,"Rating Scale","Rating Scale",16,"object-67","BIQ",NA,"SUPAMT63428"
"14",1695738195167,"26/09/2023 14:23:15",1695723795167,-4,"26/09/2023 06:23:15",144339,3,"questionnaire-uu2n",NA,31872960,9423504,NA,"complete","pkqdmp","3WOKGM4L77FZMOM2KIYPG0OYRK9O0G","computer","Desktop or Laptop","Windows 10","Chrome 116.0.0.0","1364x768","1364x651",NA,NA,0,"BIQ (Charlotte)",2,"In","DECFBGAHKIJ",NA,"HL","Spreadsheet1",NA,"","","",NA,"5","END",NA,NA,NA,NA,NA,NA,0,NA,NA,NA,NA,"","",NA,"","",NA,"SUPAMT63428"
"1",1695738269110,"26/09/2023 14:24:29",1695723869110,-4,"26/09/2023 06:24:29",144339,3,"questionnaire-uu2n",NA,31872967,9423547,NA,"complete","eymrir","3FE2ERCCZ372A5QM13DFV1P6ZSDOPF","computer","Desktop or Laptop","Windows 10","Chrome 116.0.0.0","1366x768","1366x619",NA,NA,0,"BIQ (Charlotte)",2,"In","EFDGCHBIAJK",NA,"HL","Spreadsheet1",NA,"","","",NA,"5","BEGIN",NA,NA,NA,NA,NA,NA,0,NA,NA,NA,NA,"","",NA,"","",NA,"SUPAMT54374"
"2",1695738290653,"26/09/2023 14:24:50",1695723890653,-4,"26/09/2023 06:24:50",144339,3,"questionnaire-uu2n",NA,31872967,9423547,NA,"complete","eymrir","3FE2ERCCZ372A5QM13DFV1P6ZSDOPF","computer","Desktop or Laptop","Windows 10","Chrome 116.0.0.0","1366x768","1366x619",NA,NA,0,"BIQ (Charlotte)",2,"In","EFDGCHBIAJK",NA,"HL","Spreadsheet1",1,"BIQ","Screen 1","9dh6eq",1,"continue","",21555.6530000477,21549.792,21555.6530000477,21555.6530000477,21549.792,21555.6530000477,1,21555.6530000477,0,0,NA,"Click To Continue","Continue Button",23,"object-48","BIQ",NA,"SUPAMT54374"
"3",1695738290657,"26/09/2023 14:24:50",1695723890657,-4,"26/09/2023 06:24:50",144339,3,"questionnaire-uu2n",NA,31872967,9423547,NA,"complete","eymrir","3FE2ERCCZ372A5QM13DFV1P6ZSDOPF","computer","Desktop or Laptop","Windows 10","Chrome 116.0.0.0","1366x768","1366x619",NA,NA,0,"BIQ (Charlotte)",2,"In","EFDGCHBIAJK",NA,"HL","Spreadsheet1",1,"BIQ","Screen 1","9dh6eq",1,"response","3",2144.775,21549.792,21566.458,2144.775,21549.792,21566.458,1,2144.775,19421.683,0,NA,"Rating Scale","Rating Scale",3,"object-5","BIQ",NA,"SUPAMT54374"
"4",1695738290658,"26/09/2023 14:24:50",1695723890658,-4,"26/09/2023 06:24:50",144339,3,"questionnaire-uu2n",NA,31872967,9423547,NA,"complete","eymrir","3FE2ERCCZ372A5QM13DFV1P6ZSDOPF","computer","Desktop or Laptop","Windows 10","Chrome 116.0.0.0","1366x768","1366x619",NA,NA,0,"BIQ (Charlotte)",2,"In","EFDGCHBIAJK",NA,"HL","Spreadsheet1",1,"BIQ","Screen 1","9dh6eq",1,"response","0",8771.141,21549.792,21566.458,8771.141,21549.792,21566.458,1,8771.141,12795.317,0,NA,"Rating Scale","Rating Scale",10,"object-18","BIQ",NA,"SUPAMT54374"
"5",1695738290658,"26/09/2023 14:24:50",1695723890658,-4,"26/09/2023 06:24:50",144339,3,"questionnaire-uu2n",NA,31872967,9423547,NA,"complete","eymrir","3FE2ERCCZ372A5QM13DFV1P6ZSDOPF","computer","Desktop or Laptop","Windows 10","Chrome 116.0.0.0","1366x768","1366x619",NA,NA,0,"BIQ (Charlotte)",2,"In","EFDGCHBIAJK",NA,"HL","Spreadsheet1",1,"BIQ","Screen 1","9dh6eq",1,"response","0",20642.418,21549.792,21566.458,20642.418,21549.792,21566.458,1,20642.418,924.040000000001,0,NA,"Rating Scale","Rating Scale",17,"object-80","BIQ",NA,"SUPAMT54374"
"6",1695738304794,"26/09/2023 14:25:04",1695723904794,-4,"26/09/2023 06:25:04",144339,3,"questionnaire-uu2n",NA,31872967,9423547,NA,"complete","eymrir","3FE2ERCCZ372A5QM13DFV1P6ZSDOPF","computer","Desktop or Laptop","Windows 10","Chrome 116.0.0.0","1366x768","1366x619",NA,NA,0,"BIQ (Charlotte)",2,"In","EFDGCHBIAJK",NA,"HL","Spreadsheet1",1,"BIQ","Screen 2","o21mwi",2,"continue","",14153.761000143,14138.215,14153.761000143,14153.761000143,14138.215,14153.761000143,1,14153.761000143,0,0,NA,"Click To Continue","Continue Button",22,"object-50","BIQ",NA,"SUPAMT54374"
"7",1695738304799,"26/09/2023 14:25:04",1695723904799,-4,"26/09/2023 06:25:04",144339,3,"questionnaire-uu2n",NA,31872967,9423547,NA,"complete","eymrir","3FE2ERCCZ372A5QM13DFV1P6ZSDOPF","computer","Desktop or Laptop","Windows 10","Chrome 116.0.0.0","1366x768","1366x619",NA,NA,0,"BIQ (Charlotte)",2,"In","EFDGCHBIAJK",NA,"HL","Spreadsheet1",1,"BIQ","Screen 2","o21mwi",2,"response","1",4005.005,14138.215,14154.881,4005.005,14138.215,14154.881,1,4005.005,10149.876,0,NA,"Rating Scale","Rating Scale",2,"object-259","BIQ",NA,"SUPAMT54374"
"8",1695738304799,"26/09/2023 14:25:04",1695723904799,-4,"26/09/2023 06:25:04",144339,3,"questionnaire-uu2n",NA,31872967,9423547,NA,"complete","eymrir","3FE2ERCCZ372A5QM13DFV1P6ZSDOPF","computer","Desktop or Laptop","Windows 10","Chrome 116.0.0.0","1366x768","1366x619",NA,NA,0,"BIQ (Charlotte)",2,"In","EFDGCHBIAJK",NA,"HL","Spreadsheet1",1,"BIQ","Screen 2","o21mwi",2,"response","0",9320.975,14138.215,14154.881,9320.975,14138.215,14154.881,1,9320.975,4833.906,0,NA,"Rating Scale","Rating Scale",9,"object-36","BIQ",NA,"SUPAMT54374"
"9",1695738304800,"26/09/2023 14:25:04",1695723904800,-4,"26/09/2023 06:25:04",144339,3,"questionnaire-uu2n",NA,31872967,9423547,NA,"complete","eymrir","3FE2ERCCZ372A5QM13DFV1P6ZSDOPF","computer","Desktop or Laptop","Windows 10","Chrome 116.0.0.0","1366x768","1366x619",NA,NA,0,"BIQ (Charlotte)",2,"In","EFDGCHBIAJK",NA,"HL","Spreadsheet1",1,"BIQ","Screen 2","o21mwi",2,"response","1",12123.598,14138.215,14154.881,12123.598,14138.215,14154.881,1,12123.598,2031.283,0,NA,"Rating Scale","Rating Scale",16,"object-86","BIQ",NA,"SUPAMT54374"
"10",1695738322118,"26/09/2023 14:25:22",1695723922118,-4,"26/09/2023 06:25:22",144339,3,"questionnaire-uu2n",NA,31872967,9423547,NA,"complete","eymrir","3FE2ERCCZ372A5QM13DFV1P6ZSDOPF","computer","Desktop or Laptop","Windows 10","Chrome 116.0.0.0","1366x768","1366x619",NA,NA,0,"BIQ (Charlotte)",2,"In","EFDGCHBIAJK",NA,"HL","Spreadsheet1",1,"BIQ","Screen 3","iz3the",3,"continue","",17340.6460000477,17333.084,17340.6460000477,17340.6460000477,17333.084,17340.6460000477,1,17340.6460000477,0,0,NA,"Click To Continue","Continue Button",22,"object-73","BIQ",NA,"SUPAMT54374"
"11",1695738322121,"26/09/2023 14:25:22",1695723922121,-4,"26/09/2023 06:25:22",144339,3,"questionnaire-uu2n",NA,31872967,9423547,NA,"complete","eymrir","3FE2ERCCZ372A5QM13DFV1P6ZSDOPF","computer","Desktop or Laptop","Windows 10","Chrome 116.0.0.0","1366x768","1366x619",NA,NA,0,"BIQ (Charlotte)",2,"In","EFDGCHBIAJK",NA,"HL","Spreadsheet1",1,"BIQ","Screen 3","iz3the",3,"response","5",8880.37,17333.084,17343.5460001431,8880.37,17333.084,17343.5460001431,1,8880.37,8463.17600014305,0,NA,"Rating Scale","Rating Scale",2,"object-53","BIQ",NA,"SUPAMT54374"
"12",1695738322122,"26/09/2023 14:25:22",1695723922122,-4,"26/09/2023 06:25:22",144339,3,"questionnaire-uu2n",NA,31872967,9423547,NA,"complete","eymrir","3FE2ERCCZ372A5QM13DFV1P6ZSDOPF","computer","Desktop or Laptop","Windows 10","Chrome 116.0.0.0","1366x768","1366x619",NA,NA,0,"BIQ (Charlotte)",2,"In","EFDGCHBIAJK",NA,"HL","Spreadsheet1",1,"BIQ","Screen 3","iz3the",3,"response","1",13252.03,17333.084,17344.1460000477,13252.03,17333.084,17344.1460000477,1,13252.03,4092.11600004768,0,NA,"Rating Scale","Rating Scale",9,"object-60","BIQ",NA,"SUPAMT54374"
"13",1695738322122,"26/09/2023 14:25:22",1695723922122,-4,"26/09/2023 06:25:22",144339,3,"questionnaire-uu2n",NA,31872967,9423547,NA,"complete","eymrir","3FE2ERCCZ372A5QM13DFV1P6ZSDOPF","computer","Desktop or Laptop","Windows 10","Chrome 116.0.0.0","1366x768","1366x619",NA,NA,0,"BIQ (Charlotte)",2,"In","EFDGCHBIAJK",NA,"HL","Spreadsheet1",1,"BIQ","Screen 3","iz3the",3,"response","2",14214.524,17333.084,17344.5460001431,14214.524,17333.084,17344.5460001431,1,14214.524,3130.02200014305,0,NA,"Rating Scale","Rating Scale",16,"object-67","BIQ",NA,"SUPAMT54374"
"14",1695738322124,"26/09/2023 14:25:22",1695723922124,-4,"26/09/2023 06:25:22",144339,3,"questionnaire-uu2n",NA,31872967,9423547,NA,"complete","eymrir","3FE2ERCCZ372A5QM13DFV1P6ZSDOPF","computer","Desktop or Laptop","Windows 10","Chrome 116.0.0.0","1366x768","1366x619",NA,NA,0,"BIQ (Charlotte)",2,"In","EFDGCHBIAJK",NA,"HL","Spreadsheet1",NA,"","","",NA,"5","END",NA,NA,NA,NA,NA,NA,0,NA,NA,NA,NA,"","",NA,"","",NA,"SUPAMT54374"
"1",1695738105324,"26/09/2023 14:21:45",1695723705324,-4,"26/09/2023 06:21:45",144339,3,"questionnaire-uu2n",NA,31873066,9423559,NA,"complete","iuwqvk","374TNBHA8HUZ4VV37312XXDIIYYYQR","computer","Desktop or Laptop","Windows 10","Chrome 114.0.0.0","1280x800","1280x657",NA,NA,0,"BIQ (Charlotte)",2,"In","GHFIEJDKCAB",NA,"LH","Spreadsheet1",NA,"","","",NA,"5","BEGIN",NA,NA,NA,NA,NA,NA,0,NA,NA,NA,NA,"","",NA,"","",NA,"SUPAMT62293"
"2",1695738122225,"26/09/2023 14:22:02",1695723722225,-4,"26/09/2023 06:22:02",144339,3,"questionnaire-uu2n",NA,31873066,9423559,NA,"complete","iuwqvk","374TNBHA8HUZ4VV37312XXDIIYYYQR","computer","Desktop or Laptop","Windows 10","Chrome 114.0.0.0","1280x800","1280x657",NA,NA,0,"BIQ (Charlotte)",2,"In","GHFIEJDKCAB",NA,"LH","Spreadsheet1",1,"BIQ","Screen 1","9dh6eq",1,"continue","",16918.618,16901.952,16918.618,16918.618,16901.952,16918.618,1,16918.618,0,0,NA,"Click To Continue","Continue Button",23,"object-48","BIQ",NA,"SUPAMT62293"
"3",1695738122228,"26/09/2023 14:22:02",1695723722228,-4,"26/09/2023 06:22:02",144339,3,"questionnaire-uu2n",NA,31873066,9423559,NA,"complete","iuwqvk","374TNBHA8HUZ4VV37312XXDIIYYYQR","computer","Desktop or Laptop","Windows 10","Chrome 114.0.0.0","1280x800","1280x657",NA,NA,0,"BIQ (Charlotte)",2,"In","GHFIEJDKCAB",NA,"LH","Spreadsheet1",1,"BIQ","Screen 1","9dh6eq",1,"response","6",15132.629,16901.952,16918.618,15132.629,16901.952,16918.618,1,15132.629,1785.989,0,NA,"Rating Scale","Rating Scale",3,"object-5","BIQ",NA,"SUPAMT62293"
"4",1695738122229,"26/09/2023 14:22:02",1695723722229,-4,"26/09/2023 06:22:02",144339,3,"questionnaire-uu2n",NA,31873066,9423559,NA,"complete","iuwqvk","374TNBHA8HUZ4VV37312XXDIIYYYQR","computer","Desktop or Laptop","Windows 10","Chrome 114.0.0.0","1280x800","1280x657",NA,NA,0,"BIQ (Charlotte)",2,"In","GHFIEJDKCAB",NA,"LH","Spreadsheet1",1,"BIQ","Screen 1","9dh6eq",1,"response","7",15881.358,16901.952,16918.618,15881.358,16901.952,16918.618,1,15881.358,1037.25999999999,0,NA,"Rating Scale","Rating Scale",10,"object-18","BIQ",NA,"SUPAMT62293"
"5",1695738122229,"26/09/2023 14:22:02",1695723722229,-4,"26/09/2023 06:22:02",144339,3,"questionnaire-uu2n",NA,31873066,9423559,NA,"complete","iuwqvk","374TNBHA8HUZ4VV37312XXDIIYYYQR","computer","Desktop or Laptop","Windows 10","Chrome 114.0.0.0","1280x800","1280x657",NA,NA,0,"BIQ (Charlotte)",2,"In","GHFIEJDKCAB",NA,"LH","Spreadsheet1",1,"BIQ","Screen 1","9dh6eq",1,"response","6",16515.743,16901.952,16918.618,16515.743,16901.952,16918.618,1,16515.743,402.874999999993,0,NA,"Rating Scale","Rating Scale",17,"object-80","BIQ",NA,"SUPAMT62293"
"6",1695738125760,"26/09/2023 14:22:05",1695723725760,-4,"26/09/2023 06:22:05",144339,3,"questionnaire-uu2n",NA,31873066,9423559,NA,"complete","iuwqvk","374TNBHA8HUZ4VV37312XXDIIYYYQR","computer","Desktop or Laptop","Windows 10","Chrome 114.0.0.0","1280x800","1280x657",NA,NA,0,"BIQ (Charlotte)",2,"In","GHFIEJDKCAB",NA,"LH","Spreadsheet1",1,"BIQ","Screen 2","o21mwi",2,"continue","",3553.98400019074,3539.892,3553.98400019074,3553.98400019074,3539.892,3553.98400019074,1,3553.98400019074,0,0,NA,"Click To Continue","Continue Button",22,"object-50","BIQ",NA,"SUPAMT62293"
"7",1695738125760,"26/09/2023 14:22:05",1695723725760,-4,"26/09/2023 06:22:05",144339,3,"questionnaire-uu2n",NA,31873066,9423559,NA,"complete","iuwqvk","374TNBHA8HUZ4VV37312XXDIIYYYQR","computer","Desktop or Laptop","Windows 10","Chrome 114.0.0.0","1280x800","1280x657",NA,NA,0,"BIQ (Charlotte)",2,"In","GHFIEJDKCAB",NA,"LH","Spreadsheet1",1,"BIQ","Screen 2","o21mwi",2,"response","6",2083.089,3539.892,3554.48400019074,2083.089,3539.892,3554.48400019074,1,2083.089,1471.39500019074,0,NA,"Rating Scale","Rating Scale",2,"object-259","BIQ",NA,"SUPAMT62293"
"8",1695738125761,"26/09/2023 14:22:05",1695723725761,-4,"26/09/2023 06:22:05",144339,3,"questionnaire-uu2n",NA,31873066,9423559,NA,"complete","iuwqvk","374TNBHA8HUZ4VV37312XXDIIYYYQR","computer","Desktop or Laptop","Windows 10","Chrome 114.0.0.0","1280x800","1280x657",NA,NA,0,"BIQ (Charlotte)",2,"In","GHFIEJDKCAB",NA,"LH","Spreadsheet1",1,"BIQ","Screen 2","o21mwi",2,"response","5",2548.214,3539.892,3555.08399961853,2548.214,3539.892,3555.08399961853,1,2548.214,1006.86999961853,0,NA,"Rating Scale","Rating Scale",9,"object-36","BIQ",NA,"SUPAMT62293"
"9",1695738125761,"26/09/2023 14:22:05",1695723725761,-4,"26/09/2023 06:22:05",144339,3,"questionnaire-uu2n",NA,31873066,9423559,NA,"complete","iuwqvk","374TNBHA8HUZ4VV37312XXDIIYYYQR","computer","Desktop or Laptop","Windows 10","Chrome 114.0.0.0","1280x800","1280x657",NA,NA,0,"BIQ (Charlotte)",2,"In","GHFIEJDKCAB",NA,"LH","Spreadsheet1",1,"BIQ","Screen 2","o21mwi",2,"response","6",3096.392,3539.892,3555.58399961853,3096.392,3539.892,3555.58399961853,1,3096.392,459.191999618532,0,NA,"Rating Scale","Rating Scale",16,"object-86","BIQ",NA,"SUPAMT62293"
"10",1695738128727,"26/09/2023 14:22:08",1695723728727,-4,"26/09/2023 06:22:08",144339,3,"questionnaire-uu2n",NA,31873066,9423559,NA,"complete","iuwqvk","374TNBHA8HUZ4VV37312XXDIIYYYQR","computer","Desktop or Laptop","Windows 10","Chrome 114.0.0.0","1280x800","1280x657",NA,NA,0,"BIQ (Charlotte)",2,"In","GHFIEJDKCAB",NA,"LH","Spreadsheet1",1,"BIQ","Screen 3","iz3the",3,"continue","",2981.8919994278,2975.054,2981.8919994278,2981.8919994278,2975.054,2981.8919994278,1,2981.8919994278,0,0,NA,"Click To Continue","Continue Button",22,"object-73","BIQ",NA,"SUPAMT62293"
"11",1695738128728,"26/09/2023 14:22:08",1695723728728,-4,"26/09/2023 06:22:08",144339,3,"questionnaire-uu2n",NA,31873066,9423559,NA,"complete","iuwqvk","374TNBHA8HUZ4VV37312XXDIIYYYQR","computer","Desktop or Laptop","Windows 10","Chrome 114.0.0.0","1280x800","1280x657",NA,NA,0,"BIQ (Charlotte)",2,"In","GHFIEJDKCAB",NA,"LH","Spreadsheet1",1,"BIQ","Screen 3","iz3the",3,"response","5",1582.842,2975.054,2982.69199961853,1582.842,2975.054,2982.69199961853,1,1582.842,1399.84999961853,0,NA,"Rating Scale","Rating Scale",2,"object-53","BIQ",NA,"SUPAMT62293"
"12",1695738128729,"26/09/2023 14:22:08",1695723728729,-4,"26/09/2023 06:22:08",144339,3,"questionnaire-uu2n",NA,31873066,9423559,NA,"complete","iuwqvk","374TNBHA8HUZ4VV37312XXDIIYYYQR","computer","Desktop or Laptop","Windows 10","Chrome 114.0.0.0","1280x800","1280x657",NA,NA,0,"BIQ (Charlotte)",2,"In","GHFIEJDKCAB",NA,"LH","Spreadsheet1",1,"BIQ","Screen 3","iz3the",3,"response","6",2081.02,2975.054,2983.292,2081.02,2975.054,2983.292,1,2081.02,902.272000000001,0,NA,"Rating Scale","Rating Scale",9,"object-60","BIQ",NA,"SUPAMT62293"
"13",1695738128729,"26/09/2023 14:22:08",1695723728729,-4,"26/09/2023 06:22:08",144339,3,"questionnaire-uu2n",NA,31873066,9423559,NA,"complete","iuwqvk","374TNBHA8HUZ4VV37312XXDIIYYYQR","computer","Desktop or Laptop","Windows 10","Chrome 114.0.0.0","1280x800","1280x657",NA,NA,0,"BIQ (Charlotte)",2,"In","GHFIEJDKCAB",NA,"LH","Spreadsheet1",1,"BIQ","Screen 3","iz3the",3,"response","5",2510.202,2975.054,2983.792,2510.202,2975.054,2983.792,1,2510.202,473.59,0,NA,"Rating Scale","Rating Scale",16,"object-67","BIQ",NA,"SUPAMT62293"
"14",1695738128731,"26/09/2023 14:22:08",1695723728731,-4,"26/09/2023 06:22:08",144339,3,"questionnaire-uu2n",NA,31873066,9423559,NA,"complete","iuwqvk","374TNBHA8HUZ4VV37312XXDIIYYYQR","computer","Desktop or Laptop","Windows 10","Chrome 114.0.0.0","1280x800","1280x657",NA,NA,0,"BIQ (Charlotte)",2,"In","GHFIEJDKCAB",NA,"LH","Spreadsheet1",NA,"","","",NA,"5","END",NA,NA,NA,NA,NA,NA,0,NA,NA,NA,NA,"","",NA,"","",NA,"SUPAMT62293"
"1",1695738622135,"26/09/2023 14:30:22",1695724222135,-4,"26/09/2023 06:30:22",144339,3,"questionnaire-uu2n",NA,31873335,9423601,NA,"complete","urqnky","3WSELTNVR91B0TPS81HHZG6YZE2TAY","computer","Desktop or Laptop","Windows 10","Chrome 116.0.0.0","1364x768","1364x651",NA,NA,0,"BIQ (Charlotte)",2,"In","HIGJFKEADBC",NA,"LH","Spreadsheet1",NA,"","","",NA,"5","BEGIN",NA,NA,NA,NA,NA,NA,0,NA,NA,NA,NA,"","",NA,"","",NA,"SUPAMT21106"
"2",1695738629811,"26/09/2023 14:30:29",1695724229811,-4,"26/09/2023 06:30:29",144339,3,"questionnaire-uu2n",NA,31873335,9423601,NA,"complete","urqnky","3WSELTNVR91B0TPS81HHZG6YZE2TAY","computer","Desktop or Laptop","Windows 10","Chrome 116.0.0.0","1364x768","1364x651",NA,NA,0,"BIQ (Charlotte)",2,"In","HIGJFKEADBC",NA,"LH","Spreadsheet1",1,"BIQ","Screen 1","9dh6eq",1,"continue","",7685.69899980926,7676.162,7685.69899980926,7685.69899980926,7676.162,7685.69899980926,1,7685.69899980926,0,0,NA,"Click To Continue","Continue Button",23,"object-48","BIQ",NA,"SUPAMT21106"
"3",1695738629812,"26/09/2023 14:30:29",1695724229812,-4,"26/09/2023 06:30:29",144339,3,"questionnaire-uu2n",NA,31873335,9423601,NA,"complete","urqnky","3WSELTNVR91B0TPS81HHZG6YZE2TAY","computer","Desktop or Laptop","Windows 10","Chrome 116.0.0.0","1364x768","1364x651",NA,NA,0,"BIQ (Charlotte)",2,"In","HIGJFKEADBC",NA,"LH","Spreadsheet1",1,"BIQ","Screen 1","9dh6eq",1,"response","5",3294.855,7676.162,7687.29899995232,3294.855,7676.162,7687.29899995232,1,3294.855,4392.44399995232,0,NA,"Rating Scale","Rating Scale",3,"object-5","BIQ",NA,"SUPAMT21106"
"4",1695738629812,"26/09/2023 14:30:29",1695724229812,-4,"26/09/2023 06:30:29",144339,3,"questionnaire-uu2n",NA,31873335,9423601,NA,"complete","urqnky","3WSELTNVR91B0TPS81HHZG6YZE2TAY","computer","Desktop or Laptop","Windows 10","Chrome 116.0.0.0","1364x768","1364x651",NA,NA,0,"BIQ (Charlotte)",2,"In","HIGJFKEADBC",NA,"LH","Spreadsheet1",1,"BIQ","Screen 1","9dh6eq",1,"response","4",3978.702,7676.162,7687.69899980926,3978.702,7676.162,7687.69899980926,1,3978.702,3708.99699980926,0,NA,"Rating Scale","Rating Scale",10,"object-18","BIQ",NA,"SUPAMT21106"
"5",1695738629813,"26/09/2023 14:30:29",1695724229813,-4,"26/09/2023 06:30:29",144339,3,"questionnaire-uu2n",NA,31873335,9423601,NA,"complete","urqnky","3WSELTNVR91B0TPS81HHZG6YZE2TAY","computer","Desktop or Laptop","Windows 10","Chrome 116.0.0.0","1364x768","1364x651",NA,NA,0,"BIQ (Charlotte)",2,"In","HIGJFKEADBC",NA,"LH","Spreadsheet1",1,"BIQ","Screen 1","9dh6eq",1,"response","5",4503.193,7676.162,7687.999,4503.193,7676.162,7687.999,1,4503.193,3184.806,0,NA,"Rating Scale","Rating Scale",17,"object-80","BIQ",NA,"SUPAMT21106"
"6",1695738635130,"26/09/2023 14:30:35",1695724235130,-4,"26/09/2023 06:30:35",144339,3,"questionnaire-uu2n",NA,31873335,9423601,NA,"complete","urqnky","3WSELTNVR91B0TPS81HHZG6YZE2TAY","computer","Desktop or Laptop","Windows 10","Chrome 116.0.0.0","1364x768","1364x651",NA,NA,0,"BIQ (Charlotte)",2,"In","HIGJFKEADBC",NA,"LH","Spreadsheet1",1,"BIQ","Screen 2","o21mwi",2,"continue","",5328.837,5325.857,5328.837,5328.837,5325.857,5328.837,1,5328.837,0,0,NA,"Click To Continue","Continue Button",22,"object-50","BIQ",NA,"SUPAMT21106"
"7",1695738635133,"26/09/2023 14:30:35",1695724235133,-4,"26/09/2023 06:30:35",144339,3,"questionnaire-uu2n",NA,31873335,9423601,NA,"complete","urqnky","3WSELTNVR91B0TPS81HHZG6YZE2TAY","computer","Desktop or Laptop","Windows 10","Chrome 116.0.0.0","1364x768","1364x651",NA,NA,0,"BIQ (Charlotte)",2,"In","HIGJFKEADBC",NA,"LH","Spreadsheet1",1,"BIQ","Screen 2","o21mwi",2,"response","5",3394.569,5325.857,5331.73699985695,3394.569,5325.857,5331.73699985695,1,3394.569,1937.16799985695,0,NA,"Rating Scale","Rating Scale",2,"object-259","BIQ",NA,"SUPAMT21106"
"8",1695738635133,"26/09/2023 14:30:35",1695724235133,-4,"26/09/2023 06:30:35",144339,3,"questionnaire-uu2n",NA,31873335,9423601,NA,"complete","urqnky","3WSELTNVR91B0TPS81HHZG6YZE2TAY","computer","Desktop or Laptop","Windows 10","Chrome 116.0.0.0","1364x768","1364x651",NA,NA,0,"BIQ (Charlotte)",2,"In","HIGJFKEADBC",NA,"LH","Spreadsheet1",1,"BIQ","Screen 2","o21mwi",2,"response","4",3771.4,5325.857,5332.03699980926,3771.4,5325.857,5332.03699980926,1,3771.4,1560.63699980927,0,NA,"Rating Scale","Rating Scale",9,"object-36","BIQ",NA,"SUPAMT21106"
"9",1695738635133,"26/09/2023 14:30:35",1695724235133,-4,"26/09/2023 06:30:35",144339,3,"questionnaire-uu2n",NA,31873335,9423601,NA,"complete","urqnky","3WSELTNVR91B0TPS81HHZG6YZE2TAY","computer","Desktop or Laptop","Windows 10","Chrome 116.0.0.0","1364x768","1364x651",NA,NA,0,"BIQ (Charlotte)",2,"In","HIGJFKEADBC",NA,"LH","Spreadsheet1",1,"BIQ","Screen 2","o21mwi",2,"response","5",4805.783,5325.857,5332.43699990463,4805.783,5325.857,5332.43699990463,1,4805.783,526.653999904633,0,NA,"Rating Scale","Rating Scale",16,"object-86","BIQ",NA,"SUPAMT21106"
"10",1695738637929,"26/09/2023 14:30:37",1695724237929,-4,"26/09/2023 06:30:37",144339,3,"questionnaire-uu2n",NA,31873335,9423601,NA,"complete","urqnky","3WSELTNVR91B0TPS81HHZG6YZE2TAY","computer","Desktop or Laptop","Windows 10","Chrome 116.0.0.0","1364x768","1364x651",NA,NA,0,"BIQ (Charlotte)",2,"In","HIGJFKEADBC",NA,"LH","Spreadsheet1",1,"BIQ","Screen 3","iz3the",3,"continue","",2802.37999985695,2798.205,2802.37999985695,2802.37999985695,2798.205,2802.37999985695,1,2802.37999985695,0,0,NA,"Click To Continue","Continue Button",22,"object-73","BIQ",NA,"SUPAMT21106"
"11",1695738637930,"26/09/2023 14:30:37",1695724237930,-4,"26/09/2023 06:30:37",144339,3,"questionnaire-uu2n",NA,31873335,9423601,NA,"complete","urqnky","3WSELTNVR91B0TPS81HHZG6YZE2TAY","computer","Desktop or Laptop","Windows 10","Chrome 116.0.0.0","1364x768","1364x651",NA,NA,0,"BIQ (Charlotte)",2,"In","HIGJFKEADBC",NA,"LH","Spreadsheet1",1,"BIQ","Screen 3","iz3the",3,"response","5",1410.936,2798.205,2803.07999990463,1410.936,2798.205,2803.07999990463,1,1410.936,1392.14399990463,0,NA,"Rating Scale","Rating Scale",2,"object-53","BIQ",NA,"SUPAMT21106"
"12",1695738637930,"26/09/2023 14:30:37",1695724237930,-4,"26/09/2023 06:30:37",144339,3,"questionnaire-uu2n",NA,31873335,9423601,NA,"complete","urqnky","3WSELTNVR91B0TPS81HHZG6YZE2TAY","computer","Desktop or Laptop","Windows 10","Chrome 116.0.0.0","1364x768","1364x651",NA,NA,0,"BIQ (Charlotte)",2,"In","HIGJFKEADBC",NA,"LH","Spreadsheet1",1,"BIQ","Screen 3","iz3the",3,"response","6",1854.449,2798.205,2803.48,1854.449,2798.205,2803.48,1,1854.449,949.030999999999,0,NA,"Rating Scale","Rating Scale",9,"object-60","BIQ",NA,"SUPAMT21106"
"13",1695738637931,"26/09/2023 14:30:37",1695724237931,-4,"26/09/2023 06:30:37",144339,3,"questionnaire-uu2n",NA,31873335,9423601,NA,"complete","urqnky","3WSELTNVR91B0TPS81HHZG6YZE2TAY","computer","Desktop or Laptop","Windows 10","Chrome 116.0.0.0","1364x768","1364x651",NA,NA,0,"BIQ (Charlotte)",2,"In","HIGJFKEADBC",NA,"LH","Spreadsheet1",1,"BIQ","Screen 3","iz3the",3,"response","5",2226.327,2798.205,2803.87999985695,2226.327,2798.205,2803.87999985695,1,2226.327,577.552999856947,0,NA,"Rating Scale","Rating Scale",16,"object-67","BIQ",NA,"SUPAMT21106"
"14",1695738637932,"26/09/2023 14:30:37",1695724237932,-4,"26/09/2023 06:30:37",144339,3,"questionnaire-uu2n",NA,31873335,9423601,NA,"complete","urqnky","3WSELTNVR91B0TPS81HHZG6YZE2TAY","computer","Desktop or Laptop","Windows 10","Chrome 116.0.0.0","1364x768","1364x651",NA,NA,0,"BIQ (Charlotte)",2,"In","HIGJFKEADBC",NA,"LH","Spreadsheet1",NA,"","","",NA,"5","END",NA,NA,NA,NA,NA,NA,0,NA,NA,NA,NA,"","",NA,"","",NA,"SUPAMT21106"
"1",1695738794338,"26/09/2023 14:33:14",1695724394338,-4,"26/09/2023 06:33:14",144339,3,"questionnaire-uu2n",NA,31873443,9423600,NA,"complete","ldjdhr","","computer","Desktop or Laptop","Windows 10","Chrome 116.0.0.0","1280x1024","1280x875",NA,NA,0,"BIQ (Charlotte)",2,"In","IJHKGAFBECD",NA,"HL","Spreadsheet1",NA,"","","",NA,"5","BEGIN",NA,NA,NA,NA,NA,NA,0,NA,NA,NA,NA,"","",NA,"","",NA,NA
"2",1695738802416,"26/09/2023 14:33:22",1695724402416,-4,"26/09/2023 06:33:22",144339,3,"questionnaire-uu2n",NA,31873443,9423600,NA,"complete","ldjdhr","","computer","Desktop or Laptop","Windows 10","Chrome 116.0.0.0","1280x1024","1280x875",NA,NA,0,"BIQ (Charlotte)",2,"In","IJHKGAFBECD",NA,"HL","Spreadsheet1",1,"BIQ","Screen 1","9dh6eq",1,"continue","",8091.852,8075.865,8091.852,8091.852,8075.865,8091.852,1,8091.852,0,0,NA,"Click To Continue","Continue Button",23,"object-48","BIQ",NA,NA
"3",1695738802417,"26/09/2023 14:33:22",1695724402417,-4,"26/09/2023 06:33:22",144339,3,"questionnaire-uu2n",NA,31873443,9423600,NA,"complete","ldjdhr","","computer","Desktop or Laptop","Windows 10","Chrome 116.0.0.0","1280x1024","1280x875",NA,NA,0,"BIQ (Charlotte)",2,"In","IJHKGAFBECD",NA,"HL","Spreadsheet1",1,"BIQ","Screen 1","9dh6eq",1,"response","3",2181.545,8075.865,8092.531,2181.545,8075.865,8092.531,1,2181.545,5910.986,0,NA,"Rating Scale","Rating Scale",3,"object-5","BIQ",NA,NA
"4",1695738802417,"26/09/2023 14:33:22",1695724402417,-4,"26/09/2023 06:33:22",144339,3,"questionnaire-uu2n",NA,31873443,9423600,NA,"complete","ldjdhr","","computer","Desktop or Laptop","Windows 10","Chrome 116.0.0.0","1280x1024","1280x875",NA,NA,0,"BIQ (Charlotte)",2,"In","IJHKGAFBECD",NA,"HL","Spreadsheet1",1,"BIQ","Screen 1","9dh6eq",1,"response","4",2833.352,8075.865,8092.531,2833.352,8075.865,8092.531,1,2833.352,5259.179,0,NA,"Rating Scale","Rating Scale",10,"object-18","BIQ",NA,NA
"5",1695738802417,"26/09/2023 14:33:22",1695724402417,-4,"26/09/2023 06:33:22",144339,3,"questionnaire-uu2n",NA,31873443,9423600,NA,"complete","ldjdhr","","computer","Desktop or Laptop","Windows 10","Chrome 116.0.0.0","1280x1024","1280x875",NA,NA,0,"BIQ (Charlotte)",2,"In","IJHKGAFBECD",NA,"HL","Spreadsheet1",1,"BIQ","Screen 1","9dh6eq",1,"response","5",4780.189,8075.865,8092.531,4780.189,8075.865,8092.531,1,4780.189,3312.342,0,NA,"Rating Scale","Rating Scale",17,"object-80","BIQ",NA,NA
"6",1695738805784,"26/09/2023 14:33:25",1695724405784,-4,"26/09/2023 06:33:25",144339,3,"questionnaire-uu2n",NA,31873443,9423600,NA,"complete","ldjdhr","","computer","Desktop or Laptop","Windows 10","Chrome 116.0.0.0","1280x1024","1280x875",NA,NA,0,"BIQ (Charlotte)",2,"In","IJHKGAFBECD",NA,"HL","Spreadsheet1",1,"BIQ","Screen 2","o21mwi",2,"continue","",3384.08699990463,3370.401,3384.08699990463,3384.08699990463,3370.401,3384.08699990463,1,3384.08699990463,0,0,NA,"Click To Continue","Continue Button",22,"object-50","BIQ",NA,NA
"7",1695738805786,"26/09/2023 14:33:25",1695724405786,-4,"26/09/2023 06:33:25",144339,3,"questionnaire-uu2n",NA,31873443,9423600,NA,"complete","ldjdhr","","computer","Desktop or Laptop","Windows 10","Chrome 116.0.0.0","1280x1024","1280x875",NA,NA,0,"BIQ (Charlotte)",2,"In","IJHKGAFBECD",NA,"HL","Spreadsheet1",1,"BIQ","Screen 2","o21mwi",2,"response","5",1663.004,3370.401,3386.68700004768,1663.004,3370.401,3386.68700004768,1,1663.004,1723.68300004768,0,NA,"Rating Scale","Rating Scale",2,"object-259","BIQ",NA,NA
"8",1695738805787,"26/09/2023 14:33:25",1695724405787,-4,"26/09/2023 06:33:25",144339,3,"questionnaire-uu2n",NA,31873443,9423600,NA,"complete","ldjdhr","","computer","Desktop or Laptop","Windows 10","Chrome 116.0.0.0","1280x1024","1280x875",NA,NA,0,"BIQ (Charlotte)",2,"In","IJHKGAFBECD",NA,"HL","Spreadsheet1",1,"BIQ","Screen 2","o21mwi",2,"response","4",2390.135,3370.401,3387.067,2390.135,3370.401,3387.067,1,2390.135,996.932000000002,0,NA,"Rating Scale","Rating Scale",9,"object-36","BIQ",NA,NA
"9",1695738805787,"26/09/2023 14:33:25",1695724405787,-4,"26/09/2023 06:33:25",144339,3,"questionnaire-uu2n",NA,31873443,9423600,NA,"complete","ldjdhr","","computer","Desktop or Laptop","Windows 10","Chrome 116.0.0.0","1280x1024","1280x875",NA,NA,0,"BIQ (Charlotte)",2,"In","IJHKGAFBECD",NA,"HL","Spreadsheet1",1,"BIQ","Screen 2","o21mwi",2,"response","4",2912.349,3370.401,3387.067,2912.349,3370.401,3387.067,1,2912.349,474.718000000001,0,NA,"Rating Scale","Rating Scale",16,"object-86","BIQ",NA,NA
"10",1695738809656,"26/09/2023 14:33:29",1695724409656,-4,"26/09/2023 06:33:29",144339,3,"questionnaire-uu2n",NA,31873443,9423600,NA,"complete","ldjdhr","","computer","Desktop or Laptop","Windows 10","Chrome 116.0.0.0","1280x1024","1280x875",NA,NA,0,"BIQ (Charlotte)",2,"In","IJHKGAFBECD",NA,"HL","Spreadsheet1",1,"BIQ","Screen 3","iz3the",3,"continue","",3886.28600004768,3880.202,3886.28600004768,3886.28600004768,3880.202,3886.28600004768,1,3886.28600004768,0,0,NA,"Click To Continue","Continue Button",22,"object-73","BIQ",NA,NA
"11",1695738809657,"26/09/2023 14:33:29",1695724409657,-4,"26/09/2023 06:33:29",144339,3,"questionnaire-uu2n",NA,31873443,9423600,NA,"complete","ldjdhr","","computer","Desktop or Laptop","Windows 10","Chrome 116.0.0.0","1280x1024","1280x875",NA,NA,0,"BIQ (Charlotte)",2,"In","IJHKGAFBECD",NA,"HL","Spreadsheet1",1,"BIQ","Screen 3","iz3the",3,"response","4",1183.907,3880.202,3886.78600004768,1183.907,3880.202,3886.78600004768,1,1183.907,2702.87900004768,0,NA,"Rating Scale","Rating Scale",2,"object-53","BIQ",NA,NA
"12",1695738809657,"26/09/2023 14:33:29",1695724409657,-4,"26/09/2023 06:33:29",144339,3,"questionnaire-uu2n",NA,31873443,9423600,NA,"complete","ldjdhr","","computer","Desktop or Laptop","Windows 10","Chrome 116.0.0.0","1280x1024","1280x875",NA,NA,0,"BIQ (Charlotte)",2,"In","IJHKGAFBECD",NA,"HL","Spreadsheet1",1,"BIQ","Screen 3","iz3the",3,"response","5",1935.168,3880.202,3887.18599990463,1935.168,3880.202,3887.18599990463,1,1935.168,1952.01799990463,0,NA,"Rating Scale","Rating Scale",9,"object-60","BIQ",NA,NA
"13",1695738809657,"26/09/2023 14:33:29",1695724409657,-4,"26/09/2023 06:33:29",144339,3,"questionnaire-uu2n",NA,31873443,9423600,NA,"complete","ldjdhr","","computer","Desktop or Laptop","Windows 10","Chrome 116.0.0.0","1280x1024","1280x875",NA,NA,0,"BIQ (Charlotte)",2,"In","IJHKGAFBECD",NA,"HL","Spreadsheet1",1,"BIQ","Screen 3","iz3the",3,"response","4",3126.506,3880.202,3887.38599995232,3126.506,3880.202,3887.38599995232,1,3126.506,760.879999952318,0,NA,"Rating Scale","Rating Scale",16,"object-67","BIQ",NA,NA
"14",1695738809659,"26/09/2023 14:33:29",1695724409659,-4,"26/09/2023 06:33:29",144339,3,"questionnaire-uu2n",NA,31873443,9423600,NA,"complete","ldjdhr","","computer","Desktop or Laptop","Windows 10","Chrome 116.0.0.0","1280x1024","1280x875",NA,NA,0,"BIQ (Charlotte)",2,"In","IJHKGAFBECD",NA,"HL","Spreadsheet1",NA,"","","",NA,"5","END",NA,NA,NA,NA,NA,NA,0,NA,NA,NA,NA,"","",NA,"","",NA,NA
"1",1695742374204,"26/09/2023 15:32:54",1695727974204,-4,"26/09/2023 07:32:54",144339,3,"questionnaire-uu2n",NA,31874498,9423917,NA,"complete","jvufrg","3QUO65DNQ0NF2AYIIPC957C579JUOV","computer","Desktop or Laptop","Windows 10","Chrome 116.0.0.0","1366x768","1366x619",NA,NA,0,"BIQ (Charlotte)",2,"In","JKIAHBGCFDE",NA,"LH","Spreadsheet1",NA,"","","",NA,"5","BEGIN",NA,NA,NA,NA,NA,NA,0,NA,NA,NA,NA,"","",NA,"","",NA,"SUPAMT62780"
"2",1695742378144,"26/09/2023 15:32:58",1695727978144,-4,"26/09/2023 07:32:58",144339,3,"questionnaire-uu2n",NA,31874498,9423917,NA,"complete","jvufrg","3QUO65DNQ0NF2AYIIPC957C579JUOV","computer","Desktop or Laptop","Windows 10","Chrome 116.0.0.0","1366x768","1366x619",NA,NA,0,"BIQ (Charlotte)",2,"In","JKIAHBGCFDE",NA,"LH","Spreadsheet1",1,"BIQ","Screen 1","9dh6eq",1,"continue","",3957.22100019074,3945.055,3957.22100019074,3957.22100019074,3945.055,3957.22100019074,1,3957.22100019074,0,0,NA,"Click To Continue","Continue Button",23,"object-48","BIQ",NA,"SUPAMT62780"
"3",1695742378145,"26/09/2023 15:32:58",1695727978145,-4,"26/09/2023 07:32:58",144339,3,"questionnaire-uu2n",NA,31874498,9423917,NA,"complete","jvufrg","3QUO65DNQ0NF2AYIIPC957C579JUOV","computer","Desktop or Laptop","Windows 10","Chrome 116.0.0.0","1366x768","1366x619",NA,NA,0,"BIQ (Charlotte)",2,"In","JKIAHBGCFDE",NA,"LH","Spreadsheet1",1,"BIQ","Screen 1","9dh6eq",1,"response","6",2473.316,3945.055,3959.52099990463,2473.316,3945.055,3959.52099990463,1,2473.316,1486.20499990463,0,NA,"Rating Scale","Rating Scale",3,"object-5","BIQ",NA,"SUPAMT62780"
"4",1695742378145,"26/09/2023 15:32:58",1695727978145,-4,"26/09/2023 07:32:58",144339,3,"questionnaire-uu2n",NA,31874498,9423917,NA,"complete","jvufrg","3QUO65DNQ0NF2AYIIPC957C579JUOV","computer","Desktop or Laptop","Windows 10","Chrome 116.0.0.0","1366x768","1366x619",NA,NA,0,"BIQ (Charlotte)",2,"In","JKIAHBGCFDE",NA,"LH","Spreadsheet1",1,"BIQ","Screen 1","9dh6eq",1,"response","7",3148.367,3945.055,3959.82100009537,3148.367,3945.055,3959.82100009537,1,3148.367,811.454000095368,0,NA,"Rating Scale","Rating Scale",10,"object-18","BIQ",NA,"SUPAMT62780"
"5",1695742378146,"26/09/2023 15:32:58",1695727978146,-4,"26/09/2023 07:32:58",144339,3,"questionnaire-uu2n",NA,31874498,9423917,NA,"complete","jvufrg","3QUO65DNQ0NF2AYIIPC957C579JUOV","computer","Desktop or Laptop","Windows 10","Chrome 116.0.0.0","1366x768","1366x619",NA,NA,0,"BIQ (Charlotte)",2,"In","JKIAHBGCFDE",NA,"LH","Spreadsheet1",1,"BIQ","Screen 1","9dh6eq",1,"response","6",3539.711,3945.055,3960.32100009537,3539.711,3945.055,3960.32100009537,1,3539.711,420.610000095367,0,NA,"Rating Scale","Rating Scale",17,"object-80","BIQ",NA,"SUPAMT62780"
"6",1695742381912,"26/09/2023 15:33:01",1695727981912,-4,"26/09/2023 07:33:01",144339,3,"questionnaire-uu2n",NA,31874498,9423917,NA,"complete","jvufrg","3QUO65DNQ0NF2AYIIPC957C579JUOV","computer","Desktop or Laptop","Windows 10","Chrome 116.0.0.0","1366x768","1366x619",NA,NA,0,"BIQ (Charlotte)",2,"In","JKIAHBGCFDE",NA,"LH","Spreadsheet1",1,"BIQ","Screen 2","o21mwi",2,"continue","",3779.46599990463,3772.688,3779.46599990463,3779.46599990463,3772.688,3779.46599990463,1,3779.46599990463,0,0,NA,"Click To Continue","Continue Button",22,"object-50","BIQ",NA,"SUPAMT62780"
"7",1695742381913,"26/09/2023 15:33:01",1695727981913,-4,"26/09/2023 07:33:01",144339,3,"questionnaire-uu2n",NA,31874498,9423917,NA,"complete","jvufrg","3QUO65DNQ0NF2AYIIPC957C579JUOV","computer","Desktop or Laptop","Windows 10","Chrome 116.0.0.0","1366x768","1366x619",NA,NA,0,"BIQ (Charlotte)",2,"In","JKIAHBGCFDE",NA,"LH","Spreadsheet1",1,"BIQ","Screen 2","o21mwi",2,"response","5",1747.686,3772.688,3780.366,1747.686,3772.688,3780.366,1,1747.686,2032.68,0,NA,"Rating Scale","Rating Scale",2,"object-259","BIQ",NA,"SUPAMT62780"
"8",1695742381913,"26/09/2023 15:33:01",1695727981913,-4,"26/09/2023 07:33:01",144339,3,"questionnaire-uu2n",NA,31874498,9423917,NA,"complete","jvufrg","3QUO65DNQ0NF2AYIIPC957C579JUOV","computer","Desktop or Laptop","Windows 10","Chrome 116.0.0.0","1366x768","1366x619",NA,NA,0,"BIQ (Charlotte)",2,"In","JKIAHBGCFDE",NA,"LH","Spreadsheet1",1,"BIQ","Screen 2","o21mwi",2,"response","7",2289.03,3772.688,3780.96599990463,2289.03,3772.688,3780.96599990463,1,2289.03,1491.93599990463,0,NA,"Rating Scale","Rating Scale",9,"object-36","BIQ",NA,"SUPAMT62780"
"9",1695742381914,"26/09/2023 15:33:01",1695727981914,-4,"26/09/2023 07:33:01",144339,3,"questionnaire-uu2n",NA,31874498,9423917,NA,"complete","jvufrg","3QUO65DNQ0NF2AYIIPC957C579JUOV","computer","Desktop or Laptop","Windows 10","Chrome 116.0.0.0","1366x768","1366x619",NA,NA,0,"BIQ (Charlotte)",2,"In","JKIAHBGCFDE",NA,"LH","Spreadsheet1",1,"BIQ","Screen 2","o21mwi",2,"response","6",3054.714,3772.688,3781.5660002861,3054.714,3772.688,3781.5660002861,1,3054.714,726.852000286102,0,NA,"Rating Scale","Rating Scale",16,"object-86","BIQ",NA,"SUPAMT62780"
"10",1695742384872,"26/09/2023 15:33:04",1695727984872,-4,"26/09/2023 07:33:04",144339,3,"questionnaire-uu2n",NA,31874498,9423917,NA,"complete","jvufrg","3QUO65DNQ0NF2AYIIPC957C579JUOV","computer","Desktop or Laptop","Windows 10","Chrome 116.0.0.0","1366x768","1366x619",NA,NA,0,"BIQ (Charlotte)",2,"In","JKIAHBGCFDE",NA,"LH","Spreadsheet1",1,"BIQ","Screen 3","iz3the",3,"continue","",2966.8780002861,2956.65,2966.8780002861,2966.8780002861,2956.65,2966.8780002861,1,2966.8780002861,0,0,NA,"Click To Continue","Continue Button",22,"object-73","BIQ",NA,"SUPAMT62780"
"11",1695742384878,"26/09/2023 15:33:04",1695727984878,-4,"26/09/2023 07:33:04",144339,3,"questionnaire-uu2n",NA,31874498,9423917,NA,"complete","jvufrg","3QUO65DNQ0NF2AYIIPC957C579JUOV","computer","Desktop or Laptop","Windows 10","Chrome 116.0.0.0","1366x768","1366x619",NA,NA,0,"BIQ (Charlotte)",2,"In","JKIAHBGCFDE",NA,"LH","Spreadsheet1",1,"BIQ","Screen 3","iz3the",3,"response","6",1361.304,2956.65,2973.27799990463,1361.304,2956.65,2973.27799990463,1,1361.304,1611.97399990463,0,NA,"Rating Scale","Rating Scale",2,"object-53","BIQ",NA,"SUPAMT62780"
"12",1695742384879,"26/09/2023 15:33:04",1695727984879,-4,"26/09/2023 07:33:04",144339,3,"questionnaire-uu2n",NA,31874498,9423917,NA,"complete","jvufrg","3QUO65DNQ0NF2AYIIPC957C579JUOV","computer","Desktop or Laptop","Windows 10","Chrome 116.0.0.0","1366x768","1366x619",NA,NA,0,"BIQ (Charlotte)",2,"In","JKIAHBGCFDE",NA,"LH","Spreadsheet1",1,"BIQ","Screen 3","iz3the",3,"response","5",1811.985,2956.65,2973.316,1811.985,2956.65,2973.316,1,1811.985,1161.331,0,NA,"Rating Scale","Rating Scale",9,"object-60","BIQ",NA,"SUPAMT62780"
"13",1695742384879,"26/09/2023 15:33:04",1695727984879,-4,"26/09/2023 07:33:04",144339,3,"questionnaire-uu2n",NA,31874498,9423917,NA,"complete","jvufrg","3QUO65DNQ0NF2AYIIPC957C579JUOV","computer","Desktop or Laptop","Windows 10","Chrome 116.0.0.0","1366x768","1366x619",NA,NA,0,"BIQ (Charlotte)",2,"In","JKIAHBGCFDE",NA,"LH","Spreadsheet1",1,"BIQ","Screen 3","iz3the",3,"response","6",2367.699,2956.65,2973.316,2367.699,2956.65,2973.316,1,2367.699,605.616999999998,0,NA,"Rating Scale","Rating Scale",16,"object-67","BIQ",NA,"SUPAMT62780"
"14",1695742384882,"26/09/2023 15:33:04",1695727984882,-4,"26/09/2023 07:33:04",144339,3,"questionnaire-uu2n",NA,31874498,9423917,NA,"complete","jvufrg","3QUO65DNQ0NF2AYIIPC957C579JUOV","computer","Desktop or Laptop","Windows 10","Chrome 116.0.0.0","1366x768","1366x619",NA,NA,0,"BIQ (Charlotte)",2,"In","JKIAHBGCFDE",NA,"LH","Spreadsheet1",NA,"","","",NA,"5","END",NA,NA,NA,NA,NA,NA,0,NA,NA,NA,NA,"","",NA,"","",NA,"SUPAMT62780"
"1",1695746968624,"26/09/2023 16:49:28",1695728968624,-5,"26/09/2023 06:49:28",144339,3,"questionnaire-uu2n",NA,31875188,9423966,NA,"complete","lcxvvn","336YQZE831DAHSNR48PO5RVKDS5M5K","computer","Desktop or Laptop","Windows 10","Chrome 116.0.0.0","1536x864","1536x715",NA,NA,0,"BIQ (Charlotte)",2,"In","KAJBICHDGEF",NA,"HL","Spreadsheet1",NA,"","","",NA,"5","BEGIN",NA,NA,NA,NA,NA,NA,0,NA,NA,NA,NA,"","",NA,"","",NA,"SUPAMT07312"
"2",1695746992301,"26/09/2023 16:49:52",1695728992301,-5,"26/09/2023 06:49:52",144339,3,"questionnaire-uu2n",NA,31875188,9423966,NA,"complete","lcxvvn","336YQZE831DAHSNR48PO5RVKDS5M5K","computer","Desktop or Laptop","Windows 10","Chrome 116.0.0.0","1536x864","1536x715",NA,NA,0,"BIQ (Charlotte)",2,"In","KAJBICHDGEF",NA,"HL","Spreadsheet1",1,"BIQ","Screen 1","9dh6eq",1,"continue","",23710.25,23687.5,23710.25,23710.25,23687.5,23710.25,1,23710.25,0,0,NA,"Click To Continue","Continue Button",23,"object-48","BIQ",NA,"SUPAMT07312"
"3",1695746992305,"26/09/2023 16:49:52",1695728992305,-5,"26/09/2023 06:49:52",144339,3,"questionnaire-uu2n",NA,31875188,9423966,NA,"complete","lcxvvn","336YQZE831DAHSNR48PO5RVKDS5M5K","computer","Desktop or Laptop","Windows 10","Chrome 116.0.0.0","1536x864","1536x715",NA,NA,0,"BIQ (Charlotte)",2,"In","KAJBICHDGEF",NA,"HL","Spreadsheet1",1,"BIQ","Screen 1","9dh6eq",1,"response","6",8187.5,23687.5,23718.75,8187.5,23687.5,23718.75,1,8187.5,15531.25,0,NA,"Rating Scale","Rating Scale",3,"object-5","BIQ",NA,"SUPAMT07312"
"4",1695746992306,"26/09/2023 16:49:52",1695728992306,-5,"26/09/2023 06:49:52",144339,3,"questionnaire-uu2n",NA,31875188,9423966,NA,"complete","lcxvvn","336YQZE831DAHSNR48PO5RVKDS5M5K","computer","Desktop or Laptop","Windows 10","Chrome 116.0.0.0","1536x864","1536x715",NA,NA,0,"BIQ (Charlotte)",2,"In","KAJBICHDGEF",NA,"HL","Spreadsheet1",1,"BIQ","Screen 1","9dh6eq",1,"response","6",8875,23687.5,23718.75,8875,23687.5,23718.75,1,8875,14843.75,0,NA,"Rating Scale","Rating Scale",10,"object-18","BIQ",NA,"SUPAMT07312"
"5",1695746992318,"26/09/2023 16:49:52",1695728992318,-5,"26/09/2023 06:49:52",144339,3,"questionnaire-uu2n",NA,31875188,9423966,NA,"complete","lcxvvn","336YQZE831DAHSNR48PO5RVKDS5M5K","computer","Desktop or Laptop","Windows 10","Chrome 116.0.0.0","1536x864","1536x715",NA,NA,0,"BIQ (Charlotte)",2,"In","KAJBICHDGEF",NA,"HL","Spreadsheet1",1,"BIQ","Screen 1","9dh6eq",1,"response","7",9437.5,23687.5,23718.75,9437.5,23687.5,23718.75,1,9437.5,14281.25,0,NA,"Rating Scale","Rating Scale",17,"object-80","BIQ",NA,"SUPAMT07312"
"6",1695746992457,"26/09/2023 16:49:52",1695728992457,-5,"26/09/2023 06:49:52",144339,3,"questionnaire-uu2n",NA,31875188,9423966,NA,"complete","lcxvvn","336YQZE831DAHSNR48PO5RVKDS5M5K","computer","Desktop or Laptop","Windows 10","Chrome 116.0.0.0","1536x864","1536x715",NA,NA,0,"BIQ (Charlotte)",2,"In","KAJBICHDGEF",NA,"HL","Spreadsheet1",1,"BIQ","Screen 2","o21mwi",2,"continue","",186.75,156.25,186.75,186.75,156.25,186.75,1,186.75,0,0,NA,"Click To Continue","Continue Button",22,"object-50","BIQ",NA,"SUPAMT07312"
"7",1695746997103,"26/09/2023 16:49:57",1695728997103,-5,"26/09/2023 06:49:57",144339,3,"questionnaire-uu2n",NA,31875188,9423966,NA,"complete","lcxvvn","336YQZE831DAHSNR48PO5RVKDS5M5K","computer","Desktop or Laptop","Windows 10","Chrome 116.0.0.0","1536x864","1536x715",NA,NA,0,"BIQ (Charlotte)",2,"In","KAJBICHDGEF",NA,"HL","Spreadsheet1",1,"BIQ","Screen 2","o21mwi",2,"continue","",4831.75,4812.5,4831.75,4831.75,4812.5,4831.75,1,4831.75,0,0,NA,"Click To Continue","Continue Button",22,"object-50","BIQ",NA,"SUPAMT07312"
"8",1695746997103,"26/09/2023 16:49:57",1695728997103,-5,"26/09/2023 06:49:57",144339,3,"questionnaire-uu2n",NA,31875188,9423966,NA,"complete","lcxvvn","336YQZE831DAHSNR48PO5RVKDS5M5K","computer","Desktop or Laptop","Windows 10","Chrome 116.0.0.0","1536x864","1536x715",NA,NA,0,"BIQ (Charlotte)",2,"In","KAJBICHDGEF",NA,"HL","Spreadsheet1",1,"BIQ","Screen 2","o21mwi",2,"response","6",1968.75,4812.5,4832.75,1968.75,4812.5,4832.75,1,1968.75,2864,0,NA,"Rating Scale","Rating Scale",2,"object-259","BIQ",NA,"SUPAMT07312"
"9",1695746997103,"26/09/2023 16:49:57",1695728997103,-5,"26/09/2023 06:49:57",144339,3,"questionnaire-uu2n",NA,31875188,9423966,NA,"complete","lcxvvn","336YQZE831DAHSNR48PO5RVKDS5M5K","computer","Desktop or Laptop","Windows 10","Chrome 116.0.0.0","1536x864","1536x715",NA,NA,0,"BIQ (Charlotte)",2,"In","KAJBICHDGEF",NA,"HL","Spreadsheet1",1,"BIQ","Screen 2","o21mwi",2,"response","5",2593.75,4812.5,4832.75,2593.75,4812.5,4832.75,1,2593.75,2239,0,NA,"Rating Scale","Rating Scale",9,"object-36","BIQ",NA,"SUPAMT07312"
"10",1695746997104,"26/09/2023 16:49:57",1695728997104,-5,"26/09/2023 06:49:57",144339,3,"questionnaire-uu2n",NA,31875188,9423966,NA,"complete","lcxvvn","336YQZE831DAHSNR48PO5RVKDS5M5K","computer","Desktop or Laptop","Windows 10","Chrome 116.0.0.0","1536x864","1536x715",NA,NA,0,"BIQ (Charlotte)",2,"In","KAJBICHDGEF",NA,"HL","Spreadsheet1",1,"BIQ","Screen 2","o21mwi",2,"response","6",3312.5,4812.5,4833.75,3312.5,4812.5,4833.75,1,3312.5,1521.25,0,NA,"Rating Scale","Rating Scale",16,"object-86","BIQ",NA,"SUPAMT07312"
"11",1695746997226,"26/09/2023 16:49:57",1695728997226,-5,"26/09/2023 06:49:57",144339,3,"questionnaire-uu2n",NA,31875188,9423966,NA,"complete","lcxvvn","336YQZE831DAHSNR48PO5RVKDS5M5K","computer","Desktop or Laptop","Windows 10","Chrome 116.0.0.0","1536x864","1536x715",NA,NA,0,"BIQ (Charlotte)",2,"In","KAJBICHDGEF",NA,"HL","Spreadsheet1",1,"BIQ","Screen 3","iz3the",3,"continue","",142.25,125,142.25,142.25,125,142.25,1,142.25,0,0,NA,"Click To Continue","Continue Button",22,"object-73","BIQ",NA,"SUPAMT07312"
"12",1695747001514,"26/09/2023 16:50:01",1695729001514,-5,"26/09/2023 06:50:01",144339,3,"questionnaire-uu2n",NA,31875188,9423966,NA,"complete","lcxvvn","336YQZE831DAHSNR48PO5RVKDS5M5K","computer","Desktop or Laptop","Windows 10","Chrome 116.0.0.0","1536x864","1536x715",NA,NA,0,"BIQ (Charlotte)",2,"In","KAJBICHDGEF",NA,"HL","Spreadsheet1",1,"BIQ","Screen 3","iz3the",3,"continue","",4431.25,4406.25,4431.25,4431.25,4406.25,4431.25,1,4431.25,0,0,NA,"Click To Continue","Continue Button",22,"object-73","BIQ",NA,"SUPAMT07312"
"13",1695747001515,"26/09/2023 16:50:01",1695729001515,-5,"26/09/2023 06:50:01",144339,3,"questionnaire-uu2n",NA,31875188,9423966,NA,"complete","lcxvvn","336YQZE831DAHSNR48PO5RVKDS5M5K","computer","Desktop or Laptop","Windows 10","Chrome 116.0.0.0","1536x864","1536x715",NA,NA,0,"BIQ (Charlotte)",2,"In","KAJBICHDGEF",NA,"HL","Spreadsheet1",1,"BIQ","Screen 3","iz3the",3,"response","7",2187.5,4406.25,4432.25,2187.5,4406.25,4432.25,1,2187.5,2244.75,0,NA,"Rating Scale","Rating Scale",2,"object-53","BIQ",NA,"SUPAMT07312"
"14",1695747001517,"26/09/2023 16:50:01",1695729001517,-5,"26/09/2023 06:50:01",144339,3,"questionnaire-uu2n",NA,31875188,9423966,NA,"complete","lcxvvn","336YQZE831DAHSNR48PO5RVKDS5M5K","computer","Desktop or Laptop","Windows 10","Chrome 116.0.0.0","1536x864","1536x715",NA,NA,0,"BIQ (Charlotte)",2,"In","KAJBICHDGEF",NA,"HL","Spreadsheet1",1,"BIQ","Screen 3","iz3the",3,"response","6",2812.5,4406.25,4433.25,2812.5,4406.25,4433.25,1,2812.5,1620.75,0,NA,"Rating Scale","Rating Scale",9,"object-60","BIQ",NA,"SUPAMT07312"
"15",1695747001518,"26/09/2023 16:50:01",1695729001518,-5,"26/09/2023 06:50:01",144339,3,"questionnaire-uu2n",NA,31875188,9423966,NA,"complete","lcxvvn","336YQZE831DAHSNR48PO5RVKDS5M5K","computer","Desktop or Laptop","Windows 10","Chrome 116.0.0.0","1536x864","1536x715",NA,NA,0,"BIQ (Charlotte)",2,"In","KAJBICHDGEF",NA,"HL","Spreadsheet1",1,"BIQ","Screen 3","iz3the",3,"response","6",3218.75,4406.25,4435.25,3218.75,4406.25,4435.25,1,3218.75,1216.5,0,NA,"Rating Scale","Rating Scale",16,"object-67","BIQ",NA,"SUPAMT07312"
"16",1695747001520,"26/09/2023 16:50:01",1695729001520,-5,"26/09/2023 06:50:01",144339,3,"questionnaire-uu2n",NA,31875188,9423966,NA,"complete","lcxvvn","336YQZE831DAHSNR48PO5RVKDS5M5K","computer","Desktop or Laptop","Windows 10","Chrome 116.0.0.0","1536x864","1536x715",NA,NA,0,"BIQ (Charlotte)",2,"In","KAJBICHDGEF",NA,"HL","Spreadsheet1",NA,"","","",NA,"5","END",NA,NA,NA,NA,NA,NA,0,NA,NA,NA,NA,"","",NA,"","",NA,"SUPAMT07312"
"1",1695743834261,"26/09/2023 15:57:14",1695729434261,-4,"26/09/2023 07:57:14",144339,3,"questionnaire-uu2n",NA,31875451,9424039,NA,"complete","hqggqg","34Q075JO13CEQWF1EG0E44BQY9Z106","computer","Desktop or Laptop","Windows 10","Chrome 116.0.0.0","1366x768","1350x582",NA,NA,0,"BIQ (Charlotte)",2,"In","ABKCJDIEHFG",NA,"HL","Spreadsheet1",NA,"","","",NA,"5","BEGIN",NA,NA,NA,NA,NA,NA,0,NA,NA,NA,NA,"","",NA,"","",NA,"SUPAMT95465"
"2",1695743865133,"26/09/2023 15:57:45",1695729465133,-4,"26/09/2023 07:57:45",144339,3,"questionnaire-uu2n",NA,31875451,9424039,NA,"complete","hqggqg","34Q075JO13CEQWF1EG0E44BQY9Z106","computer","Desktop or Laptop","Windows 10","Chrome 116.0.0.0","1366x768","1350x582",NA,NA,0,"BIQ (Charlotte)",2,"In","ABKCJDIEHFG",NA,"HL","Spreadsheet1",1,"BIQ","Screen 1","9dh6eq",1,"continue","",30869.334,30865.432,30869.334,30869.334,30865.432,30869.334,1,30869.334,0,0,NA,"Click To Continue","Continue Button",23,"object-48","BIQ",NA,"SUPAMT95465"
"3",1695743865135,"26/09/2023 15:57:45",1695729465135,-4,"26/09/2023 07:57:45",144339,3,"questionnaire-uu2n",NA,31875451,9424039,NA,"complete","hqggqg","34Q075JO13CEQWF1EG0E44BQY9Z106","computer","Desktop or Laptop","Windows 10","Chrome 116.0.0.0","1366x768","1350x582",NA,NA,0,"BIQ (Charlotte)",2,"In","ABKCJDIEHFG",NA,"HL","Spreadsheet1",1,"BIQ","Screen 1","9dh6eq",1,"response","0",27915.55,30865.432,30872.334,27915.55,30865.432,30872.334,1,27915.55,2956.784,0,NA,"Rating Scale","Rating Scale",3,"object-5","BIQ",NA,"SUPAMT95465"
"4",1695743865135,"26/09/2023 15:57:45",1695729465135,-4,"26/09/2023 07:57:45",144339,3,"questionnaire-uu2n",NA,31875451,9424039,NA,"complete","hqggqg","34Q075JO13CEQWF1EG0E44BQY9Z106","computer","Desktop or Laptop","Windows 10","Chrome 116.0.0.0","1366x768","1350x582",NA,NA,0,"BIQ (Charlotte)",2,"In","ABKCJDIEHFG",NA,"HL","Spreadsheet1",1,"BIQ","Screen 1","9dh6eq",1,"response","0",27182.246,30865.432,30872.334,27182.246,30865.432,30872.334,1,27182.246,3690.088,0,NA,"Rating Scale","Rating Scale",10,"object-18","BIQ",NA,"SUPAMT95465"
