"Event.Index","UTC.Timestamp","UTC.Date.and.Time","Local.Timestamp","Local.Timezone","Local.Date.and.Time","Experiment.ID","Experiment.Version","Tree.Node.Key","Repeat.Key","Schedule.ID","Participant.Private.ID","Participant.Starting.Group","Participant.Status","Participant.Completion.Code","Participant.External.Session.ID","Participant.Device.Type","Participant.Device","Participant.OS","Participant.Browser","Participant.Monitor.Size","Participant.Viewport.Size","Checkpoint","Room.ID","Room.Order","Task.Name","Task.Version","branch.hkzp","order.ot79","branch.mcuq","Spreadsheet","Trial.Number","Display","Screen","Screen.ID","Screen.Counter","Response.Type","Response","Onset.Time","Clock.Time","Reaction.Time","Absolute.Onset.Time","Absolute.Clock.Time","Absolute.Reaction.Time","Correct","Response.Onset","Response.Duration","Proportion","Tag","Component.Name","Object.Name","Object.Number","Object.ID","Spreadsheet..display","Manipulation..Spreadsheet","Random_ID"
"1",1694118642819,"07/09/2023 20:30:42",1694093442819,-7,"07/09/2023 06:30:42",142342,3,"questionnaire-uu2n",NA,31560529,9335366,NA,"complete","xjntzu","3R9WASFE25F2IWFZP9SRZ5I6H7LZFF","computer","Desktop or Laptop","Windows 10","Chrome 116.0.0.0","1366x768","1366x619",NA,NA,0,"BIQ (Charlotte)",2,"In","ABKCJDIEHFG",NA,"Spreadsheet1",NA,"","","",NA,"5","BEGIN",NA,NA,NA,NA,NA,NA,0,NA,NA,NA,NA,"","",NA,"","",NA,"SUPAMT03527"
"2",1694118684265,"07/09/2023 20:31:24",1694093484265,-7,"07/09/2023 06:31:24",142342,3,"questionnaire-uu2n",NA,31560529,9335366,NA,"complete","xjntzu","3R9WASFE25F2IWFZP9SRZ5I6H7LZFF","computer","Desktop or Laptop","Windows 10","Chrome 116.0.0.0","1366x768","1366x619",NA,NA,0,"BIQ (Charlotte)",2,"In","ABKCJDIEHFG",NA,"Spreadsheet1",1,"BIQ","Screen 1","9dh6eq",1,"continue","",41465.5,41437.5,41465.5,41465.5,41437.5,41465.5,1,41465.5,0,0,NA,"Click To Continue","Continue Button",23,"object-48","BIQ",NA,"SUPAMT03527"
"3",1694118689688,"07/09/2023 20:31:29",1694093489688,-7,"07/09/2023 06:31:29",142342,3,"questionnaire-uu2n",NA,31560529,9335366,NA,"complete","xjntzu","3R9WASFE25F2IWFZP9SRZ5I6H7LZFF","computer","Desktop or Laptop","Windows 10","Chrome 116.0.0.0","1366x768","1366x619",NA,NA,0,"BIQ (Charlotte)",2,"In","ABKCJDIEHFG",NA,"Spreadsheet1",1,"BIQ","Screen 1","9dh6eq",1,"continue","",46890.5,46875,46890.5,46890.5,46875,46890.5,1,46890.5,0,0,NA,"Click To Continue","Continue Button",23,"object-48","BIQ",NA,"SUPAMT03527"
"4",1694118689689,"07/09/2023 20:31:29",1694093489689,-7,"07/09/2023 06:31:29",142342,3,"questionnaire-uu2n",NA,31560529,9335366,NA,"complete","xjntzu","3R9WASFE25F2IWFZP9SRZ5I6H7LZFF","computer","Desktop or Laptop","Windows 10","Chrome 116.0.0.0","1366x768","1366x619",NA,NA,0,"BIQ (Charlotte)",2,"In","ABKCJDIEHFG",NA,"Spreadsheet1",1,"BIQ","Screen 1","9dh6eq",1,"response","5",23875,46875,46890.5,23875,46875,46890.5,1,23875,23015.5,0,NA,"Rating Scale","Rating Scale",3,"object-5","BIQ",NA,"SUPAMT03527"
"5",1694118689689,"07/09/2023 20:31:29",1694093489689,-7,"07/09/2023 06:31:29",142342,3,"questionnaire-uu2n",NA,31560529,9335366,NA,"complete","xjntzu","3R9WASFE25F2IWFZP9SRZ5I6H7LZFF","computer","Desktop or Laptop","Windows 10","Chrome 116.0.0.0","1366x768","1366x619",NA,NA,0,"BIQ (Charlotte)",2,"In","ABKCJDIEHFG",NA,"Spreadsheet1",1,"BIQ","Screen 1","9dh6eq",1,"response","3",30593.75,46875,46891.5,30593.75,46875,46891.5,1,30593.75,16297.75,0,NA,"Rating Scale","Rating Scale",10,"object-18","BIQ",NA,"SUPAMT03527"
"6",1694118689690,"07/09/2023 20:31:29",1694093489690,-7,"07/09/2023 06:31:29",142342,3,"questionnaire-uu2n",NA,31560529,9335366,NA,"complete","xjntzu","3R9WASFE25F2IWFZP9SRZ5I6H7LZFF","computer","Desktop or Laptop","Windows 10","Chrome 116.0.0.0","1366x768","1366x619",NA,NA,0,"BIQ (Charlotte)",2,"In","ABKCJDIEHFG",NA,"Spreadsheet1",1,"BIQ","Screen 1","9dh6eq",1,"response","6",45687.5,46875,46892.5,45687.5,46875,46892.5,1,45687.5,1205,0,NA,"Rating Scale","Rating Scale",17,"object-80","BIQ",NA,"SUPAMT03527"
"7",1694118706768,"07/09/2023 20:31:46",1694093506768,-7,"07/09/2023 06:31:46",142342,3,"questionnaire-uu2n",NA,31560529,9335366,NA,"complete","xjntzu","3R9WASFE25F2IWFZP9SRZ5I6H7LZFF","computer","Desktop or Laptop","Windows 10","Chrome 116.0.0.0","1366x768","1366x619",NA,NA,0,"BIQ (Charlotte)",2,"In","ABKCJDIEHFG",NA,"Spreadsheet1",1,"BIQ","Screen 2","o21mwi",2,"continue","",17093.75,17062.5,17093.75,17093.75,17062.5,17093.75,1,17093.75,0,0,NA,"Click To Continue","Continue Button",22,"object-50","BIQ",NA,"SUPAMT03527"
"8",1694118706772,"07/09/2023 20:31:46",1694093506772,-7,"07/09/2023 06:31:46",142342,3,"questionnaire-uu2n",NA,31560529,9335366,NA,"complete","xjntzu","3R9WASFE25F2IWFZP9SRZ5I6H7LZFF","computer","Desktop or Laptop","Windows 10","Chrome 116.0.0.0","1366x768","1366x619",NA,NA,0,"BIQ (Charlotte)",2,"In","ABKCJDIEHFG",NA,"Spreadsheet1",1,"BIQ","Screen 2","o21mwi",2,"response","6",3187.5,17062.5,17093.75,3187.5,17062.5,17093.75,1,3187.5,13906.25,0,NA,"Rating Scale","Rating Scale",2,"object-259","BIQ",NA,"SUPAMT03527"
"9",1694118706772,"07/09/2023 20:31:46",1694093506772,-7,"07/09/2023 06:31:46",142342,3,"questionnaire-uu2n",NA,31560529,9335366,NA,"complete","xjntzu","3R9WASFE25F2IWFZP9SRZ5I6H7LZFF","computer","Desktop or Laptop","Windows 10","Chrome 116.0.0.0","1366x768","1366x619",NA,NA,0,"BIQ (Charlotte)",2,"In","ABKCJDIEHFG",NA,"Spreadsheet1",1,"BIQ","Screen 2","o21mwi",2,"response","6",6125,17062.5,17093.75,6125,17062.5,17093.75,1,6125,10968.75,0,NA,"Rating Scale","Rating Scale",9,"object-36","BIQ",NA,"SUPAMT03527"
"10",1694118706773,"07/09/2023 20:31:46",1694093506773,-7,"07/09/2023 06:31:46",142342,3,"questionnaire-uu2n",NA,31560529,9335366,NA,"complete","xjntzu","3R9WASFE25F2IWFZP9SRZ5I6H7LZFF","computer","Desktop or Laptop","Windows 10","Chrome 116.0.0.0","1366x768","1366x619",NA,NA,0,"BIQ (Charlotte)",2,"In","ABKCJDIEHFG",NA,"Spreadsheet1",1,"BIQ","Screen 2","o21mwi",2,"response","4",7468.75,17062.5,17093.75,7468.75,17062.5,17093.75,1,7468.75,9625,0,NA,"Rating Scale","Rating Scale",16,"object-86","BIQ",NA,"SUPAMT03527"
"11",1694118713511,"07/09/2023 20:31:53",1694093513511,-7,"07/09/2023 06:31:53",142342,3,"questionnaire-uu2n",NA,31560529,9335366,NA,"complete","xjntzu","3R9WASFE25F2IWFZP9SRZ5I6H7LZFF","computer","Desktop or Laptop","Windows 10","Chrome 116.0.0.0","1366x768","1366x619",NA,NA,0,"BIQ (Charlotte)",2,"In","ABKCJDIEHFG",NA,"Spreadsheet1",1,"BIQ","Screen 3","iz3the",3,"continue","",6776,6750,6776,6776,6750,6776,1,6776,0,0,NA,"Click To Continue","Continue Button",22,"object-73","BIQ",NA,"SUPAMT03527"
"12",1694118713512,"07/09/2023 20:31:53",1694093513512,-7,"07/09/2023 06:31:53",142342,3,"questionnaire-uu2n",NA,31560529,9335366,NA,"complete","xjntzu","3R9WASFE25F2IWFZP9SRZ5I6H7LZFF","computer","Desktop or Laptop","Windows 10","Chrome 116.0.0.0","1366x768","1366x619",NA,NA,0,"BIQ (Charlotte)",2,"In","ABKCJDIEHFG",NA,"Spreadsheet1",1,"BIQ","Screen 3","iz3the",3,"response","7",2906.25,6750,6777,2906.25,6750,6777,1,2906.25,3870.75,0,NA,"Rating Scale","Rating Scale",2,"object-53","BIQ",NA,"SUPAMT03527"
"13",1694118713512,"07/09/2023 20:31:53",1694093513512,-7,"07/09/2023 06:31:53",142342,3,"questionnaire-uu2n",NA,31560529,9335366,NA,"complete","xjntzu","3R9WASFE25F2IWFZP9SRZ5I6H7LZFF","computer","Desktop or Laptop","Windows 10","Chrome 116.0.0.0","1366x768","1366x619",NA,NA,0,"BIQ (Charlotte)",2,"In","ABKCJDIEHFG",NA,"Spreadsheet1",1,"BIQ","Screen 3","iz3the",3,"response","6",5375,6750,6777,5375,6750,6777,1,5375,1402,0,NA,"Rating Scale","Rating Scale",9,"object-60","BIQ",NA,"SUPAMT03527"
"14",1694118713513,"07/09/2023 20:31:53",1694093513513,-7,"07/09/2023 06:31:53",142342,3,"questionnaire-uu2n",NA,31560529,9335366,NA,"complete","xjntzu","3R9WASFE25F2IWFZP9SRZ5I6H7LZFF","computer","Desktop or Laptop","Windows 10","Chrome 116.0.0.0","1366x768","1366x619",NA,NA,0,"BIQ (Charlotte)",2,"In","ABKCJDIEHFG",NA,"Spreadsheet1",1,"BIQ","Screen 3","iz3the",3,"response","4",4781.25,6750,6778,4781.25,6750,6778,1,4781.25,1996.75,0,NA,"Rating Scale","Rating Scale",16,"object-67","BIQ",NA,"SUPAMT03527"
"15",1694118713515,"07/09/2023 20:31:53",1694093513515,-7,"07/09/2023 06:31:53",142342,3,"questionnaire-uu2n",NA,31560529,9335366,NA,"complete","xjntzu","3R9WASFE25F2IWFZP9SRZ5I6H7LZFF","computer","Desktop or Laptop","Windows 10","Chrome 116.0.0.0","1366x768","1366x619",NA,NA,0,"BIQ (Charlotte)",2,"In","ABKCJDIEHFG",NA,"Spreadsheet1",NA,"","","",NA,"5","END",NA,NA,NA,NA,NA,NA,0,NA,NA,NA,NA,"","",NA,"","",NA,"SUPAMT03527"
"1",1694125387575,"07/09/2023 22:23:07",1694107387575,-5,"07/09/2023 12:23:07",142342,3,"questionnaire-uu2n",NA,31569681,9337329,NA,"complete","ownfuv","378XPAWRUICLRF9HEPIDL94PMQ8IAC","computer","Desktop or Laptop","Windows 10","Chrome 116.0.0.0","1536x864","1234x731",NA,NA,0,"BIQ (Charlotte)",2,"In","CDBEAFKGJHI",NA,"Spreadsheet1",NA,"","","",NA,"5","BEGIN",NA,NA,NA,NA,NA,NA,0,NA,NA,NA,NA,"","",NA,"","",NA,"SUPAMT50322"
"2",1694125401247,"07/09/2023 22:23:21",1694107401247,-5,"07/09/2023 12:23:21",142342,3,"questionnaire-uu2n",NA,31569681,9337329,NA,"complete","ownfuv","378XPAWRUICLRF9HEPIDL94PMQ8IAC","computer","Desktop or Laptop","Windows 10","Chrome 116.0.0.0","1536x864","1234x731",NA,NA,0,"BIQ (Charlotte)",2,"In","CDBEAFKGJHI",NA,"Spreadsheet1",1,"BIQ","Screen 1","9dh6eq",1,"continue","",13686.1000000004,13683.315,13686.1000000004,13686.1000000004,13683.315,13686.1000000004,1,13686.1000000004,0,0,NA,"Click To Continue","Continue Button",23,"object-48","BIQ",NA,"SUPAMT50322"
"3",1694125401248,"07/09/2023 22:23:21",1694107401248,-5,"07/09/2023 12:23:21",142342,3,"questionnaire-uu2n",NA,31569681,9337329,NA,"complete","ownfuv","378XPAWRUICLRF9HEPIDL94PMQ8IAC","computer","Desktop or Laptop","Windows 10","Chrome 116.0.0.0","1536x864","1234x731",NA,NA,0,"BIQ (Charlotte)",2,"In","CDBEAFKGJHI",NA,"Spreadsheet1",1,"BIQ","Screen 1","9dh6eq",1,"response","4",3591.727,13683.315,13688.1000000004,3591.727,13683.315,13688.1000000004,1,3591.727,10096.3730000004,0,NA,"Rating Scale","Rating Scale",3,"object-5","BIQ",NA,"SUPAMT50322"
"4",1694125401249,"07/09/2023 22:23:21",1694107401249,-5,"07/09/2023 12:23:21",142342,3,"questionnaire-uu2n",NA,31569681,9337329,NA,"complete","ownfuv","378XPAWRUICLRF9HEPIDL94PMQ8IAC","computer","Desktop or Laptop","Windows 10","Chrome 116.0.0.0","1536x864","1234x731",NA,NA,0,"BIQ (Charlotte)",2,"In","CDBEAFKGJHI",NA,"Spreadsheet1",1,"BIQ","Screen 1","9dh6eq",1,"response","7",7100.054,13683.315,13688.2999999996,7100.054,13683.315,13688.2999999996,1,7100.054,6588.24599999963,0,NA,"Rating Scale","Rating Scale",10,"object-18","BIQ",NA,"SUPAMT50322"
"5",1694125401249,"07/09/2023 22:23:21",1694107401249,-5,"07/09/2023 12:23:21",142342,3,"questionnaire-uu2n",NA,31569681,9337329,NA,"complete","ownfuv","378XPAWRUICLRF9HEPIDL94PMQ8IAC","computer","Desktop or Laptop","Windows 10","Chrome 116.0.0.0","1536x864","1234x731",NA,NA,0,"BIQ (Charlotte)",2,"In","CDBEAFKGJHI",NA,"Spreadsheet1",1,"BIQ","Screen 1","9dh6eq",1,"response","1",8716.693,13683.315,13688.6000000004,8716.693,13683.315,13688.6000000004,1,8716.693,4971.90700000037,0,NA,"Rating Scale","Rating Scale",17,"object-80","BIQ",NA,"SUPAMT50322"
"6",1694125412326,"07/09/2023 22:23:32",1694107412326,-5,"07/09/2023 12:23:32",142342,3,"questionnaire-uu2n",NA,31569681,9337329,NA,"complete","ownfuv","378XPAWRUICLRF9HEPIDL94PMQ8IAC","computer","Desktop or Laptop","Windows 10","Chrome 116.0.0.0","1536x864","1234x731",NA,NA,0,"BIQ (Charlotte)",2,"In","CDBEAFKGJHI",NA,"Spreadsheet1",1,"BIQ","Screen 2","o21mwi",2,"continue","",11081.6850000007,11074.91,11081.6850000007,11081.6850000007,11074.91,11081.6850000007,1,11081.6850000007,0,0,NA,"Click To Continue","Continue Button",22,"object-50","BIQ",NA,"SUPAMT50322"
"7",1694125412328,"07/09/2023 22:23:32",1694107412328,-5,"07/09/2023 12:23:32",142342,3,"questionnaire-uu2n",NA,31569681,9337329,NA,"complete","ownfuv","378XPAWRUICLRF9HEPIDL94PMQ8IAC","computer","Desktop or Laptop","Windows 10","Chrome 116.0.0.0","1536x864","1234x731",NA,NA,0,"BIQ (Charlotte)",2,"In","CDBEAFKGJHI",NA,"Spreadsheet1",1,"BIQ","Screen 2","o21mwi",2,"response","7",4291.64,11074.91,11083.24,4291.64,11074.91,11083.24,1,4291.64,6791.6,0,NA,"Rating Scale","Rating Scale",2,"object-259","BIQ",NA,"SUPAMT50322"
"8",1694125412329,"07/09/2023 22:23:32",1694107412329,-5,"07/09/2023 12:23:32",142342,3,"questionnaire-uu2n",NA,31569681,9337329,NA,"complete","ownfuv","378XPAWRUICLRF9HEPIDL94PMQ8IAC","computer","Desktop or Laptop","Windows 10","Chrome 116.0.0.0","1536x864","1234x731",NA,NA,0,"BIQ (Charlotte)",2,"In","CDBEAFKGJHI",NA,"Spreadsheet1",1,"BIQ","Screen 2","o21mwi",2,"response","1",6183.302,11074.91,11083.24,6183.302,11074.91,11083.24,1,6183.302,4899.938,0,NA,"Rating Scale","Rating Scale",9,"object-36","BIQ",NA,"SUPAMT50322"
"9",1694125412329,"07/09/2023 22:23:32",1694107412329,-5,"07/09/2023 12:23:32",142342,3,"questionnaire-uu2n",NA,31569681,9337329,NA,"complete","ownfuv","378XPAWRUICLRF9HEPIDL94PMQ8IAC","computer","Desktop or Laptop","Windows 10","Chrome 116.0.0.0","1536x864","1234x731",NA,NA,0,"BIQ (Charlotte)",2,"In","CDBEAFKGJHI",NA,"Spreadsheet1",1,"BIQ","Screen 2","o21mwi",2,"response","1",7774.964,11074.91,11083.24,7774.964,11074.91,11083.24,1,7774.964,3308.276,0,NA,"Rating Scale","Rating Scale",16,"object-86","BIQ",NA,"SUPAMT50322"
"10",1694125432186,"07/09/2023 22:23:52",1694107432186,-5,"07/09/2023 12:23:52",142342,3,"questionnaire-uu2n",NA,31569681,9337329,NA,"complete","ownfuv","378XPAWRUICLRF9HEPIDL94PMQ8IAC","computer","Desktop or Laptop","Windows 10","Chrome 116.0.0.0","1536x864","1234x731",NA,NA,0,"BIQ (Charlotte)",2,"In","CDBEAFKGJHI",NA,"Spreadsheet1",1,"BIQ","Screen 3","iz3the",3,"continue","",19866.563,19858.215,19866.563,19866.563,19858.215,19866.563,1,19866.563,0,0,NA,"Click To Continue","Continue Button",22,"object-73","BIQ",NA,"SUPAMT50322"
"11",1694125432188,"07/09/2023 22:23:52",1694107432188,-5,"07/09/2023 12:23:52",142342,3,"questionnaire-uu2n",NA,31569681,9337329,NA,"complete","ownfuv","378XPAWRUICLRF9HEPIDL94PMQ8IAC","computer","Desktop or Laptop","Windows 10","Chrome 116.0.0.0","1536x864","1234x731",NA,NA,0,"BIQ (Charlotte)",2,"In","CDBEAFKGJHI",NA,"Spreadsheet1",1,"BIQ","Screen 3","iz3the",3,"response","0",19191.537,19858.215,19866.563,19191.537,19858.215,19866.563,1,19191.537,675.025999999998,0,NA,"Rating Scale","Rating Scale",2,"object-53","BIQ",NA,"SUPAMT50322"
"12",1694125432188,"07/09/2023 22:23:52",1694107432188,-5,"07/09/2023 12:23:52",142342,3,"questionnaire-uu2n",NA,31569681,9337329,NA,"complete","ownfuv","378XPAWRUICLRF9HEPIDL94PMQ8IAC","computer","Desktop or Laptop","Windows 10","Chrome 116.0.0.0","1536x864","1234x731",NA,NA,0,"BIQ (Charlotte)",2,"In","CDBEAFKGJHI",NA,"Spreadsheet1",1,"BIQ","Screen 3","iz3the",3,"response","1",17116.552,19858.215,19866.563,17116.552,19858.215,19866.563,1,17116.552,2750.011,0,NA,"Rating Scale","Rating Scale",9,"object-60","BIQ",NA,"SUPAMT50322"
"13",1694125432189,"07/09/2023 22:23:52",1694107432189,-5,"07/09/2023 12:23:52",142342,3,"questionnaire-uu2n",NA,31569681,9337329,NA,"complete","ownfuv","378XPAWRUICLRF9HEPIDL94PMQ8IAC","computer","Desktop or Laptop","Windows 10","Chrome 116.0.0.0","1536x864","1234x731",NA,NA,0,"BIQ (Charlotte)",2,"In","CDBEAFKGJHI",NA,"Spreadsheet1",1,"BIQ","Screen 3","iz3the",3,"response","4",16666.558,19858.215,19866.563,16666.558,19858.215,19866.563,1,16666.558,3200.005,0,NA,"Rating Scale","Rating Scale",16,"object-67","BIQ",NA,"SUPAMT50322"
"14",1694125432189,"07/09/2023 22:23:52",1694107432189,-5,"07/09/2023 12:23:52",142342,3,"questionnaire-uu2n",NA,31569681,9337329,NA,"complete","ownfuv","378XPAWRUICLRF9HEPIDL94PMQ8IAC","computer","Desktop or Laptop","Windows 10","Chrome 116.0.0.0","1536x864","1234x731",NA,NA,0,"BIQ (Charlotte)",2,"In","CDBEAFKGJHI",NA,"Spreadsheet1",NA,"","","",NA,"5","END",NA,NA,NA,NA,NA,NA,0,NA,NA,NA,NA,"","",NA,"","",NA,"SUPAMT50322"
"1",1694123659306,"07/09/2023 21:54:19",1694109259306,-4,"07/09/2023 13:54:19",142342,3,"questionnaire-uu2n",NA,31571401,9337506,NA,"complete","wvfrhs","3VNL7UK1XLI6WK60JH39DHHPWNMFTQ","computer","Desktop or Laptop","Windows 10","Chrome 116.0.0.0","1600x900","1225x726",NA,NA,0,"BIQ (Charlotte)",2,"In","DECFBGAHKIJ",NA,"Spreadsheet1",NA,"","","",NA,"5","BEGIN",NA,NA,NA,NA,NA,NA,0,NA,NA,NA,NA,"","",NA,"","",NA,"SUPAMT34462"
"2",1694123668449,"07/09/2023 21:54:28",1694109268449,-4,"07/09/2023 13:54:28",142342,3,"questionnaire-uu2n",NA,31571401,9337506,NA,"complete","wvfrhs","3VNL7UK1XLI6WK60JH39DHHPWNMFTQ","computer","Desktop or Laptop","Windows 10","Chrome 116.0.0.0","1600x900","1225x726",NA,NA,0,"BIQ (Charlotte)",2,"In","DECFBGAHKIJ",NA,"Spreadsheet1",1,"BIQ","Screen 1","9dh6eq",1,"continue","",9158.64100019074,9143.624,9158.64100019074,9158.64100019074,9143.624,9158.64100019074,1,9158.64100019074,0,0,NA,"Click To Continue","Continue Button",23,"object-48","BIQ",NA,"SUPAMT34462"
"3",1694123668450,"07/09/2023 21:54:28",1694109268450,-4,"07/09/2023 13:54:28",142342,3,"questionnaire-uu2n",NA,31571401,9337506,NA,"complete","wvfrhs","3VNL7UK1XLI6WK60JH39DHHPWNMFTQ","computer","Desktop or Laptop","Windows 10","Chrome 116.0.0.0","1600x900","1225x726",NA,NA,0,"BIQ (Charlotte)",2,"In","DECFBGAHKIJ",NA,"Spreadsheet1",1,"BIQ","Screen 1","9dh6eq",1,"response","2",2511.909,9143.624,9160.29,2511.909,9143.624,9160.29,1,2511.909,6648.381,0,NA,"Rating Scale","Rating Scale",3,"object-5","BIQ",NA,"SUPAMT34462"
"4",1694123668450,"07/09/2023 21:54:28",1694109268450,-4,"07/09/2023 13:54:28",142342,3,"questionnaire-uu2n",NA,31571401,9337506,NA,"complete","wvfrhs","3VNL7UK1XLI6WK60JH39DHHPWNMFTQ","computer","Desktop or Laptop","Windows 10","Chrome 116.0.0.0","1600x900","1225x726",NA,NA,0,"BIQ (Charlotte)",2,"In","DECFBGAHKIJ",NA,"Spreadsheet1",1,"BIQ","Screen 1","9dh6eq",1,"response","3",6692.949,9143.624,9160.29,6692.949,9143.624,9160.29,1,6692.949,2467.341,0,NA,"Rating Scale","Rating Scale",10,"object-18","BIQ",NA,"SUPAMT34462"
"5",1694123668451,"07/09/2023 21:54:28",1694109268451,-4,"07/09/2023 13:54:28",142342,3,"questionnaire-uu2n",NA,31571401,9337506,NA,"complete","wvfrhs","3VNL7UK1XLI6WK60JH39DHHPWNMFTQ","computer","Desktop or Laptop","Windows 10","Chrome 116.0.0.0","1600x900","1225x726",NA,NA,0,"BIQ (Charlotte)",2,"In","DECFBGAHKIJ",NA,"Spreadsheet1",1,"BIQ","Screen 1","9dh6eq",1,"response","3",7479.678,9143.624,9160.29,7479.678,9143.624,9160.29,1,7479.678,1680.612,0,NA,"Rating Scale","Rating Scale",17,"object-80","BIQ",NA,"SUPAMT34462"
"6",1694123673511,"07/09/2023 21:54:33",1694109273511,-4,"07/09/2023 13:54:33",142342,3,"questionnaire-uu2n",NA,31571401,9337506,NA,"complete","wvfrhs","3VNL7UK1XLI6WK60JH39DHHPWNMFTQ","computer","Desktop or Laptop","Windows 10","Chrome 116.0.0.0","1600x900","1225x726",NA,NA,0,"BIQ (Charlotte)",2,"In","DECFBGAHKIJ",NA,"Spreadsheet1",1,"BIQ","Screen 2","o21mwi",2,"continue","",5077.91700004768,5072.718,5077.91700004768,5077.91700004768,5072.718,5077.91700004768,1,5077.91700004768,0,0,NA,"Click To Continue","Continue Button",22,"object-50","BIQ",NA,"SUPAMT34462"
"7",1694123673515,"07/09/2023 21:54:33",1694109273515,-4,"07/09/2023 13:54:33",142342,3,"questionnaire-uu2n",NA,31571401,9337506,NA,"complete","wvfrhs","3VNL7UK1XLI6WK60JH39DHHPWNMFTQ","computer","Desktop or Laptop","Windows 10","Chrome 116.0.0.0","1600x900","1225x726",NA,NA,0,"BIQ (Charlotte)",2,"In","DECFBGAHKIJ",NA,"Spreadsheet1",1,"BIQ","Screen 2","o21mwi",2,"response","3",2055.193,5072.718,5081.61700009537,2055.193,5072.718,5081.61700009537,1,2055.193,3026.42400009537,0,NA,"Rating Scale","Rating Scale",2,"object-259","BIQ",NA,"SUPAMT34462"
"8",1694123673515,"07/09/2023 21:54:33",1694109273515,-4,"07/09/2023 13:54:33",142342,3,"questionnaire-uu2n",NA,31571401,9337506,NA,"complete","wvfrhs","3VNL7UK1XLI6WK60JH39DHHPWNMFTQ","computer","Desktop or Laptop","Windows 10","Chrome 116.0.0.0","1600x900","1225x726",NA,NA,0,"BIQ (Charlotte)",2,"In","DECFBGAHKIJ",NA,"Spreadsheet1",1,"BIQ","Screen 2","o21mwi",2,"response","3",3061.542,5072.718,5082.11700009537,3061.542,5072.718,5082.11700009537,1,3061.542,2020.57500009537,0,NA,"Rating Scale","Rating Scale",9,"object-36","BIQ",NA,"SUPAMT34462"
"9",1694123673516,"07/09/2023 21:54:33",1694109273516,-4,"07/09/2023 13:54:33",142342,3,"questionnaire-uu2n",NA,31571401,9337506,NA,"complete","wvfrhs","3VNL7UK1XLI6WK60JH39DHHPWNMFTQ","computer","Desktop or Laptop","Windows 10","Chrome 116.0.0.0","1600x900","1225x726",NA,NA,0,"BIQ (Charlotte)",2,"In","DECFBGAHKIJ",NA,"Spreadsheet1",1,"BIQ","Screen 2","o21mwi",2,"response","3",3867.007,5072.718,5082.61700009537,3867.007,5072.718,5082.61700009537,1,3867.007,1215.61000009537,0,NA,"Rating Scale","Rating Scale",16,"object-86","BIQ",NA,"SUPAMT34462"
"10",1694123673619,"07/09/2023 21:54:33",1694109273619,-4,"07/09/2023 13:54:33",142342,3,"questionnaire-uu2n",NA,31571401,9337506,NA,"complete","wvfrhs","3VNL7UK1XLI6WK60JH39DHHPWNMFTQ","computer","Desktop or Laptop","Windows 10","Chrome 116.0.0.0","1600x900","1225x726",NA,NA,0,"BIQ (Charlotte)",2,"In","DECFBGAHKIJ",NA,"Spreadsheet1",1,"BIQ","Screen 3","iz3the",3,"continue","",112.699000047684,96.6889999999985,112.699000047684,112.699000047684,96.6889999999985,112.699000047684,1,112.699000047684,0,0,NA,"Click To Continue","Continue Button",22,"object-73","BIQ",NA,"SUPAMT34462"
"11",1694123677506,"07/09/2023 21:54:37",1694109277506,-4,"07/09/2023 13:54:37",142342,3,"questionnaire-uu2n",NA,31571401,9337506,NA,"complete","wvfrhs","3VNL7UK1XLI6WK60JH39DHHPWNMFTQ","computer","Desktop or Laptop","Windows 10","Chrome 116.0.0.0","1600x900","1225x726",NA,NA,0,"BIQ (Charlotte)",2,"In","DECFBGAHKIJ",NA,"Spreadsheet1",1,"BIQ","Screen 3","iz3the",3,"continue","",4000.499,3992.329,4000.499,4000.499,3992.329,4000.499,1,4000.499,0,0,NA,"Click To Continue","Continue Button",22,"object-73","BIQ",NA,"SUPAMT34462"
"12",1694123677507,"07/09/2023 21:54:37",1694109277507,-4,"07/09/2023 13:54:37",142342,3,"questionnaire-uu2n",NA,31571401,9337506,NA,"complete","wvfrhs","3VNL7UK1XLI6WK60JH39DHHPWNMFTQ","computer","Desktop or Laptop","Windows 10","Chrome 116.0.0.0","1600x900","1225x726",NA,NA,0,"BIQ (Charlotte)",2,"In","DECFBGAHKIJ",NA,"Spreadsheet1",1,"BIQ","Screen 3","iz3the",3,"response","3",1900.651,3992.329,4001.09900014305,1900.651,3992.329,4001.09900014305,1,1900.651,2100.44800014305,0,NA,"Rating Scale","Rating Scale",2,"object-53","BIQ",NA,"SUPAMT34462"
"13",1694123677507,"07/09/2023 21:54:37",1694109277507,-4,"07/09/2023 13:54:37",142342,3,"questionnaire-uu2n",NA,31571401,9337506,NA,"complete","wvfrhs","3VNL7UK1XLI6WK60JH39DHHPWNMFTQ","computer","Desktop or Laptop","Windows 10","Chrome 116.0.0.0","1600x900","1225x726",NA,NA,0,"BIQ (Charlotte)",2,"In","DECFBGAHKIJ",NA,"Spreadsheet1",1,"BIQ","Screen 3","iz3the",3,"response","4",2481.838,3992.329,4001.499,2481.838,3992.329,4001.499,1,2481.838,1519.661,0,NA,"Rating Scale","Rating Scale",9,"object-60","BIQ",NA,"SUPAMT34462"
"14",1694123677508,"07/09/2023 21:54:37",1694109277508,-4,"07/09/2023 13:54:37",142342,3,"questionnaire-uu2n",NA,31571401,9337506,NA,"complete","wvfrhs","3VNL7UK1XLI6WK60JH39DHHPWNMFTQ","computer","Desktop or Laptop","Windows 10","Chrome 116.0.0.0","1600x900","1225x726",NA,NA,0,"BIQ (Charlotte)",2,"In","DECFBGAHKIJ",NA,"Spreadsheet1",1,"BIQ","Screen 3","iz3the",3,"response","3",3070.216,3992.329,4001.89900009537,3070.216,3992.329,4001.89900009537,1,3070.216,931.683000095367,0,NA,"Rating Scale","Rating Scale",16,"object-67","BIQ",NA,"SUPAMT34462"
"15",1694123677510,"07/09/2023 21:54:37",1694109277510,-4,"07/09/2023 13:54:37",142342,3,"questionnaire-uu2n",NA,31571401,9337506,NA,"complete","wvfrhs","3VNL7UK1XLI6WK60JH39DHHPWNMFTQ","computer","Desktop or Laptop","Windows 10","Chrome 116.0.0.0","1600x900","1225x726",NA,NA,0,"BIQ (Charlotte)",2,"In","DECFBGAHKIJ",NA,"Spreadsheet1",NA,"","","",NA,"5","END",NA,NA,NA,NA,NA,NA,0,NA,NA,NA,NA,"","",NA,"","",NA,"SUPAMT34462"
"1",1694126215930,"07/09/2023 22:36:55",1694111815930,-4,"07/09/2023 14:36:55",142342,3,"questionnaire-uu2n",NA,31573005,9337754,NA,"complete","xkyeqk","3TVRFO09GQEZDTPGA274XX7F4ZSXLU","computer","Desktop or Laptop","Windows 10","Chrome 116.0.0.0","1366x768","1366x619",NA,NA,0,"BIQ (Charlotte)",2,"In","EFDGCHBIAJK",NA,"Spreadsheet1",NA,"","","",NA,"5","BEGIN",NA,NA,NA,NA,NA,NA,0,NA,NA,NA,NA,"","",NA,"","",NA,"SUPAMT65847"
"2",1694126238810,"07/09/2023 22:37:18",1694111838810,-4,"07/09/2023 14:37:18",142342,3,"questionnaire-uu2n",NA,31573005,9337754,NA,"complete","xkyeqk","3TVRFO09GQEZDTPGA274XX7F4ZSXLU","computer","Desktop or Laptop","Windows 10","Chrome 116.0.0.0","1366x768","1366x619",NA,NA,0,"BIQ (Charlotte)",2,"In","EFDGCHBIAJK",NA,"Spreadsheet1",1,"BIQ","Screen 1","9dh6eq",1,"continue","",22893.140000003,22881.912,22893.140000003,22893.140000003,22881.912,22893.140000003,1,22893.140000003,0,0,NA,"Click To Continue","Continue Button",23,"object-48","BIQ",NA,"SUPAMT65847"
"3",1694126238812,"07/09/2023 22:37:18",1694111838812,-4,"07/09/2023 14:37:18",142342,3,"questionnaire-uu2n",NA,31573005,9337754,NA,"complete","xkyeqk","3TVRFO09GQEZDTPGA274XX7F4ZSXLU","computer","Desktop or Laptop","Windows 10","Chrome 116.0.0.0","1366x768","1366x619",NA,NA,0,"BIQ (Charlotte)",2,"In","EFDGCHBIAJK",NA,"Spreadsheet1",1,"BIQ","Screen 1","9dh6eq",1,"response","5",20329.564,22881.912,22895.5400000089,20329.564,22881.912,22895.5400000089,1,20329.564,2565.97600000894,0,NA,"Rating Scale","Rating Scale",3,"object-5","BIQ",NA,"SUPAMT65847"
"4",1694126238812,"07/09/2023 22:37:18",1694111838812,-4,"07/09/2023 14:37:18",142342,3,"questionnaire-uu2n",NA,31573005,9337754,NA,"complete","xkyeqk","3TVRFO09GQEZDTPGA274XX7F4ZSXLU","computer","Desktop or Laptop","Windows 10","Chrome 116.0.0.0","1366x768","1366x619",NA,NA,0,"BIQ (Charlotte)",2,"In","EFDGCHBIAJK",NA,"Spreadsheet1",1,"BIQ","Screen 1","9dh6eq",1,"response","6",20893.487,22881.912,22895.94,20893.487,22881.912,22895.94,1,20893.487,2002.453,0,NA,"Rating Scale","Rating Scale",10,"object-18","BIQ",NA,"SUPAMT65847"
"5",1694126238812,"07/09/2023 22:37:18",1694111838812,-4,"07/09/2023 14:37:18",142342,3,"questionnaire-uu2n",NA,31573005,9337754,NA,"complete","xkyeqk","3TVRFO09GQEZDTPGA274XX7F4ZSXLU","computer","Desktop or Laptop","Windows 10","Chrome 116.0.0.0","1366x768","1366x619",NA,NA,0,"BIQ (Charlotte)",2,"In","EFDGCHBIAJK",NA,"Spreadsheet1",1,"BIQ","Screen 1","9dh6eq",1,"response","5",21711.203,22881.912,22896.239999997,21711.203,22881.912,22896.239999997,1,21711.203,1185.03699999702,0,NA,"Rating Scale","Rating Scale",17,"object-80","BIQ",NA,"SUPAMT65847"
"6",1694126241665,"07/09/2023 22:37:21",1694111841665,-4,"07/09/2023 14:37:21",142342,3,"questionnaire-uu2n",NA,31573005,9337754,NA,"complete","xkyeqk","3TVRFO09GQEZDTPGA274XX7F4ZSXLU","computer","Desktop or Laptop","Windows 10","Chrome 116.0.0.0","1366x768","1366x619",NA,NA,0,"BIQ (Charlotte)",2,"In","EFDGCHBIAJK",NA,"Spreadsheet1",1,"BIQ","Screen 2","o21mwi",2,"continue","",2866.62800000894,2860.989,2866.62800000894,2866.62800000894,2860.989,2866.62800000894,1,2866.62800000894,0,0,NA,"Click To Continue","Continue Button",22,"object-50","BIQ",NA,"SUPAMT65847"
"7",1694126241665,"07/09/2023 22:37:21",1694111841665,-4,"07/09/2023 14:37:21",142342,3,"questionnaire-uu2n",NA,31573005,9337754,NA,"complete","xkyeqk","3TVRFO09GQEZDTPGA274XX7F4ZSXLU","computer","Desktop or Laptop","Windows 10","Chrome 116.0.0.0","1366x768","1366x619",NA,NA,0,"BIQ (Charlotte)",2,"In","EFDGCHBIAJK",NA,"Spreadsheet1",1,"BIQ","Screen 2","o21mwi",2,"response","6",1256.443,2860.989,2867.028,1256.443,2860.989,2867.028,1,1256.443,1610.585,0,NA,"Rating Scale","Rating Scale",2,"object-259","BIQ",NA,"SUPAMT65847"
"8",1694126241665,"07/09/2023 22:37:21",1694111841665,-4,"07/09/2023 14:37:21",142342,3,"questionnaire-uu2n",NA,31573005,9337754,NA,"complete","xkyeqk","3TVRFO09GQEZDTPGA274XX7F4ZSXLU","computer","Desktop or Laptop","Windows 10","Chrome 116.0.0.0","1366x768","1366x619",NA,NA,0,"BIQ (Charlotte)",2,"In","EFDGCHBIAJK",NA,"Spreadsheet1",1,"BIQ","Screen 2","o21mwi",2,"response","6",1738.016,2860.989,2867.32799999702,1738.016,2860.989,2867.32799999702,1,1738.016,1129.31199999702,0,NA,"Rating Scale","Rating Scale",9,"object-36","BIQ",NA,"SUPAMT65847"
"9",1694126241666,"07/09/2023 22:37:21",1694111841666,-4,"07/09/2023 14:37:21",142342,3,"questionnaire-uu2n",NA,31573005,9337754,NA,"complete","xkyeqk","3TVRFO09GQEZDTPGA274XX7F4ZSXLU","computer","Desktop or Laptop","Windows 10","Chrome 116.0.0.0","1366x768","1366x619",NA,NA,0,"BIQ (Charlotte)",2,"In","EFDGCHBIAJK",NA,"Spreadsheet1",1,"BIQ","Screen 2","o21mwi",2,"response","5",2383.098,2860.989,2867.72800000298,2383.098,2860.989,2867.72800000298,1,2383.098,484.63000000298,0,NA,"Rating Scale","Rating Scale",16,"object-86","BIQ",NA,"SUPAMT65847"
"10",1694126244648,"07/09/2023 22:37:24",1694111844648,-4,"07/09/2023 14:37:24",142342,3,"questionnaire-uu2n",NA,31573005,9337754,NA,"complete","xkyeqk","3TVRFO09GQEZDTPGA274XX7F4ZSXLU","computer","Desktop or Laptop","Windows 10","Chrome 116.0.0.0","1366x768","1366x619",NA,NA,0,"BIQ (Charlotte)",2,"In","EFDGCHBIAJK",NA,"Spreadsheet1",1,"BIQ","Screen 3","iz3the",3,"continue","",2989.13900000894,2982.295,2989.13900000894,2989.13900000894,2982.295,2989.13900000894,1,2989.13900000894,0,0,NA,"Click To Continue","Continue Button",22,"object-73","BIQ",NA,"SUPAMT65847"
"11",1694126244649,"07/09/2023 22:37:24",1694111844649,-4,"07/09/2023 14:37:24",142342,3,"questionnaire-uu2n",NA,31573005,9337754,NA,"complete","xkyeqk","3TVRFO09GQEZDTPGA274XX7F4ZSXLU","computer","Desktop or Laptop","Windows 10","Chrome 116.0.0.0","1366x768","1366x619",NA,NA,0,"BIQ (Charlotte)",2,"In","EFDGCHBIAJK",NA,"Spreadsheet1",1,"BIQ","Screen 3","iz3the",3,"response","6",1246.657,2982.295,2989.83899999702,1246.657,2982.295,2989.83899999702,1,1246.657,1743.18199999702,0,NA,"Rating Scale","Rating Scale",2,"object-53","BIQ",NA,"SUPAMT65847"
"12",1694126244649,"07/09/2023 22:37:24",1694111844649,-4,"07/09/2023 14:37:24",142342,3,"questionnaire-uu2n",NA,31573005,9337754,NA,"complete","xkyeqk","3TVRFO09GQEZDTPGA274XX7F4ZSXLU","computer","Desktop or Laptop","Windows 10","Chrome 116.0.0.0","1366x768","1366x619",NA,NA,0,"BIQ (Charlotte)",2,"In","EFDGCHBIAJK",NA,"Spreadsheet1",1,"BIQ","Screen 3","iz3the",3,"response","6",1957.824,2982.295,2990.33899999702,1957.824,2982.295,2990.33899999702,1,1957.824,1032.51499999702,0,NA,"Rating Scale","Rating Scale",9,"object-60","BIQ",NA,"SUPAMT65847"
"13",1694126244650,"07/09/2023 22:37:24",1694111844650,-4,"07/09/2023 14:37:24",142342,3,"questionnaire-uu2n",NA,31573005,9337754,NA,"complete","xkyeqk","3TVRFO09GQEZDTPGA274XX7F4ZSXLU","computer","Desktop or Laptop","Windows 10","Chrome 116.0.0.0","1366x768","1366x619",NA,NA,0,"BIQ (Charlotte)",2,"In","EFDGCHBIAJK",NA,"Spreadsheet1",1,"BIQ","Screen 3","iz3the",3,"response","5",2418.38,2982.295,2990.63900000894,2418.38,2982.295,2990.63900000894,1,2418.38,572.25900000894,0,NA,"Rating Scale","Rating Scale",16,"object-67","BIQ",NA,"SUPAMT65847"
"14",1694126244651,"07/09/2023 22:37:24",1694111844651,-4,"07/09/2023 14:37:24",142342,3,"questionnaire-uu2n",NA,31573005,9337754,NA,"complete","xkyeqk","3TVRFO09GQEZDTPGA274XX7F4ZSXLU","computer","Desktop or Laptop","Windows 10","Chrome 116.0.0.0","1366x768","1366x619",NA,NA,0,"BIQ (Charlotte)",2,"In","EFDGCHBIAJK",NA,"Spreadsheet1",NA,"","","",NA,"5","END",NA,NA,NA,NA,NA,NA,0,NA,NA,NA,NA,"","",NA,"","",NA,"SUPAMT65847"
"1",1694137933224,"08/09/2023 01:52:13",1694112733224,-7,"07/09/2023 11:52:13",142342,3,"questionnaire-uu2n",NA,31573475,9338143,NA,"complete","zvfati","","computer","Desktop or Laptop","Windows 10","Chrome 109.0.0.0","1366x768","1366x625",NA,NA,0,"BIQ (Charlotte)",2,"In","FGEHDICJBKA",NA,"Spreadsheet1",NA,"","","",NA,"5","BEGIN",NA,NA,NA,NA,NA,NA,0,NA,NA,NA,NA,"","",NA,"","",NA,"SUPAMT73359"
"2",1694138170782,"08/09/2023 01:56:10",1694112970782,-7,"07/09/2023 11:56:10",142342,3,"questionnaire-uu2n",NA,31573475,9338143,NA,"complete","zvfati","","computer","Desktop or Laptop","Windows 10","Chrome 109.0.0.0","1366x768","1366x625",NA,NA,0,"BIQ (Charlotte)",2,"In","FGEHDICJBKA",NA,"Spreadsheet1",1,"BIQ","Screen 1","9dh6eq",1,"continue","",237571,237562.5,237571,237571,237562.5,237571,1,237571,0,0,NA,"Click To Continue","Continue Button",23,"object-48","BIQ",NA,"SUPAMT75922"
"3",1694138170787,"08/09/2023 01:56:10",1694112970787,-7,"07/09/2023 11:56:10",142342,3,"questionnaire-uu2n",NA,31573475,9338143,NA,"complete","zvfati","","computer","Desktop or Laptop","Windows 10","Chrome 109.0.0.0","1366x768","1366x625",NA,NA,0,"BIQ (Charlotte)",2,"In","FGEHDICJBKA",NA,"Spreadsheet1",1,"BIQ","Screen 1","9dh6eq",1,"response","3",80593.75,237562.5,237581,80593.75,237562.5,237581,1,80593.75,156987.25,0,NA,"Rating Scale","Rating Scale",3,"object-5","BIQ",NA,"SUPAMT43489"
"4",1694138170788,"08/09/2023 01:56:10",1694112970788,-7,"07/09/2023 11:56:10",142342,3,"questionnaire-uu2n",NA,31573475,9338143,NA,"complete","zvfati","","computer","Desktop or Laptop","Windows 10","Chrome 109.0.0.0","1366x768","1366x625",NA,NA,0,"BIQ (Charlotte)",2,"In","FGEHDICJBKA",NA,"Spreadsheet1",1,"BIQ","Screen 1","9dh6eq",1,"response","8",192218.75,237562.5,237582,192218.75,237562.5,237582,1,192218.75,45363.25,0,NA,"Rating Scale","Rating Scale",10,"object-18","BIQ",NA,"SUPAMT28707"
"5",1694138170789,"08/09/2023 01:56:10",1694112970789,-7,"07/09/2023 11:56:10",142342,3,"questionnaire-uu2n",NA,31573475,9338143,NA,"complete","zvfati","","computer","Desktop or Laptop","Windows 10","Chrome 109.0.0.0","1366x768","1366x625",NA,NA,0,"BIQ (Charlotte)",2,"In","FGEHDICJBKA",NA,"Spreadsheet1",1,"BIQ","Screen 1","9dh6eq",1,"response","0",234406.25,237562.5,237583,234406.25,237562.5,237583,1,234406.25,3176.75,0,NA,"Rating Scale","Rating Scale",17,"object-80","BIQ",NA,"SUPAMT71082"
"6",1694138312222,"08/09/2023 01:58:32",1694113112222,-7,"07/09/2023 11:58:32",142342,3,"questionnaire-uu2n",NA,31573475,9338143,NA,"complete","zvfati","","computer","Desktop or Laptop","Windows 10","Chrome 109.0.0.0","1366x768","1366x625",NA,NA,0,"BIQ (Charlotte)",2,"In","FGEHDICJBKA",NA,"Spreadsheet1",1,"BIQ","Screen 2","o21mwi",2,"continue","",141453.5,141437.5,141453.5,141453.5,141437.5,141453.5,1,141453.5,0,0,NA,"Click To Continue","Continue Button",22,"object-50","BIQ",NA,"SUPAMT73219"
"7",1694138312226,"08/09/2023 01:58:32",1694113112226,-7,"07/09/2023 11:58:32",142342,3,"questionnaire-uu2n",NA,31573475,9338143,NA,"complete","zvfati","","computer","Desktop or Laptop","Windows 10","Chrome 109.0.0.0","1366x768","1366x625",NA,NA,0,"BIQ (Charlotte)",2,"In","FGEHDICJBKA",NA,"Spreadsheet1",1,"BIQ","Screen 2","o21mwi",2,"response","8",13687.5,141437.5,141457.5,13687.5,141437.5,141457.5,1,13687.5,127770,0,NA,"Rating Scale","Rating Scale",2,"object-259","BIQ",NA,"SUPAMT87900"
"8",1694138312227,"08/09/2023 01:58:32",1694113112227,-7,"07/09/2023 11:58:32",142342,3,"questionnaire-uu2n",NA,31573475,9338143,NA,"complete","zvfati","","computer","Desktop or Laptop","Windows 10","Chrome 109.0.0.0","1366x768","1366x625",NA,NA,0,"BIQ (Charlotte)",2,"In","FGEHDICJBKA",NA,"Spreadsheet1",1,"BIQ","Screen 2","o21mwi",2,"response","6",18031.25,141437.5,141457.5,18031.25,141437.5,141457.5,1,18031.25,123426.25,0,NA,"Rating Scale","Rating Scale",9,"object-36","BIQ",NA,"SUPAMT62848"
"9",1694138312227,"08/09/2023 01:58:32",1694113112227,-7,"07/09/2023 11:58:32",142342,3,"questionnaire-uu2n",NA,31573475,9338143,NA,"complete","zvfati","","computer","Desktop or Laptop","Windows 10","Chrome 109.0.0.0","1366x768","1366x625",NA,NA,0,"BIQ (Charlotte)",2,"In","FGEHDICJBKA",NA,"Spreadsheet1",1,"BIQ","Screen 2","o21mwi",2,"response","8",139375,141437.5,141458.5,139375,141437.5,141458.5,1,139375,2083.5,0,NA,"Rating Scale","Rating Scale",16,"object-86","BIQ",NA,"SUPAMT36338"
"10",1694138548947,"08/09/2023 02:02:28",1694113348947,-7,"07/09/2023 12:02:28",142342,3,"questionnaire-uu2n",NA,31573475,9338143,NA,"complete","zvfati","","computer","Desktop or Laptop","Windows 10","Chrome 109.0.0.0","1366x768","1366x625",NA,NA,0,"BIQ (Charlotte)",2,"In","FGEHDICJBKA",NA,"Spreadsheet1",1,"BIQ","Screen 3","iz3the",3,"continue","",236740,236718.75,236740,236740,236718.75,236740,1,236740,0,0,NA,"Click To Continue","Continue Button",22,"object-73","BIQ",NA,"SUPAMT72992"
"11",1694138548949,"08/09/2023 02:02:28",1694113348949,-7,"07/09/2023 12:02:28",142342,3,"questionnaire-uu2n",NA,31573475,9338143,NA,"complete","zvfati","","computer","Desktop or Laptop","Windows 10","Chrome 109.0.0.0","1366x768","1366x625",NA,NA,0,"BIQ (Charlotte)",2,"In","FGEHDICJBKA",NA,"Spreadsheet1",1,"BIQ","Screen 3","iz3the",3,"response","6",156375,236718.75,236743,156375,236718.75,236743,1,156375,80368,0,NA,"Rating Scale","Rating Scale",2,"object-53","BIQ",NA,"SUPAMT06078"
"12",1694138548950,"08/09/2023 02:02:28",1694113348950,-7,"07/09/2023 12:02:28",142342,3,"questionnaire-uu2n",NA,31573475,9338143,NA,"complete","zvfati","","computer","Desktop or Laptop","Windows 10","Chrome 109.0.0.0","1366x768","1366x625",NA,NA,0,"BIQ (Charlotte)",2,"In","FGEHDICJBKA",NA,"Spreadsheet1",1,"BIQ","Screen 3","iz3the",3,"response","8",162875,236718.75,236744,162875,236718.75,236744,1,162875,73869,0,NA,"Rating Scale","Rating Scale",9,"object-60","BIQ",NA,"SUPAMT80434"
"13",1694138548950,"08/09/2023 02:02:28",1694113348950,-7,"07/09/2023 12:02:28",142342,3,"questionnaire-uu2n",NA,31573475,9338143,NA,"complete","zvfati","","computer","Desktop or Laptop","Windows 10","Chrome 109.0.0.0","1366x768","1366x625",NA,NA,0,"BIQ (Charlotte)",2,"In","FGEHDICJBKA",NA,"Spreadsheet1",1,"BIQ","Screen 3","iz3the",3,"response","6",235250,236718.75,236744,235250,236718.75,236744,1,235250,1494,0,NA,"Rating Scale","Rating Scale",16,"object-67","BIQ",NA,"SUPAMT78837"
"14",1694138548956,"08/09/2023 02:02:28",1694113348956,-7,"07/09/2023 12:02:28",142342,3,"questionnaire-uu2n",NA,31573475,9338143,NA,"complete","zvfati","","computer","Desktop or Laptop","Windows 10","Chrome 109.0.0.0","1366x768","1366x625",NA,NA,0,"BIQ (Charlotte)",2,"In","FGEHDICJBKA",NA,"Spreadsheet1",NA,"","","",NA,"5","END",NA,NA,NA,NA,NA,NA,0,NA,NA,NA,NA,"","",NA,"","",NA,"SUPAMT84358"
"1",1694129794399,"07/09/2023 23:36:34",1694115394399,-4,"07/09/2023 15:36:34",142342,3,"questionnaire-uu2n",NA,31574464,9338259,NA,"complete","gnzhav","3X1FV8S5J3QRNC6KZW96WK5MS3KGVI","computer","Desktop or Laptop","Windows 10","Chrome 116.0.0.0","1366x768","1366x619",NA,NA,0,"BIQ (Charlotte)",2,"In","GHFIEJDKCAB",NA,"Spreadsheet1",NA,"","","",NA,"5","BEGIN",NA,NA,NA,NA,NA,NA,0,NA,NA,NA,NA,"","",NA,"","",NA,"SUPAMT16716"
"2",1694129798024,"07/09/2023 23:36:38",1694115398024,-4,"07/09/2023 15:36:38",142342,3,"questionnaire-uu2n",NA,31574464,9338259,NA,"complete","gnzhav","3X1FV8S5J3QRNC6KZW96WK5MS3KGVI","computer","Desktop or Laptop","Windows 10","Chrome 116.0.0.0","1366x768","1366x619",NA,NA,0,"BIQ (Charlotte)",2,"In","GHFIEJDKCAB",NA,"Spreadsheet1",1,"BIQ","Screen 1","9dh6eq",1,"continue","",5884.60000000894,5868.909,5884.60000000894,5884.60000000894,5868.909,5884.60000000894,1,5884.60000000894,0,0,NA,"Click To Continue","Continue Button",23,"object-48","BIQ",NA,"SUPAMT16716"
"3",1694129798025,"07/09/2023 23:36:38",1694115398025,-4,"07/09/2023 15:36:38",142342,3,"questionnaire-uu2n",NA,31574464,9338259,NA,"complete","gnzhav","3X1FV8S5J3QRNC6KZW96WK5MS3KGVI","computer","Desktop or Laptop","Windows 10","Chrome 116.0.0.0","1366x768","1366x619",NA,NA,0,"BIQ (Charlotte)",2,"In","GHFIEJDKCAB",NA,"Spreadsheet1",1,"BIQ","Screen 1","9dh6eq",1,"response","6",4138.917,5868.909,5885.575,4138.917,5868.909,5885.575,1,4138.917,1746.658,0,NA,"Rating Scale","Rating Scale",3,"object-5","BIQ",NA,"SUPAMT16716"
"4",1694129798025,"07/09/2023 23:36:38",1694115398025,-4,"07/09/2023 15:36:38",142342,3,"questionnaire-uu2n",NA,31574464,9338259,NA,"complete","gnzhav","3X1FV8S5J3QRNC6KZW96WK5MS3KGVI","computer","Desktop or Laptop","Windows 10","Chrome 116.0.0.0","1366x768","1366x619",NA,NA,0,"BIQ (Charlotte)",2,"In","GHFIEJDKCAB",NA,"Spreadsheet1",1,"BIQ","Screen 1","9dh6eq",1,"response","6",4725.799,5868.909,5885.575,4725.799,5868.909,5885.575,1,4725.799,1159.776,0,NA,"Rating Scale","Rating Scale",10,"object-18","BIQ",NA,"SUPAMT16716"
"5",1694129798025,"07/09/2023 23:36:38",1694115398025,-4,"07/09/2023 15:36:38",142342,3,"questionnaire-uu2n",NA,31574464,9338259,NA,"complete","gnzhav","3X1FV8S5J3QRNC6KZW96WK5MS3KGVI","computer","Desktop or Laptop","Windows 10","Chrome 116.0.0.0","1366x768","1366x619",NA,NA,0,"BIQ (Charlotte)",2,"In","GHFIEJDKCAB",NA,"Spreadsheet1",1,"BIQ","Screen 1","9dh6eq",1,"response","5",5225.824,5868.909,5885.575,5225.824,5868.909,5885.575,1,5225.824,659.750999999999,0,NA,"Rating Scale","Rating Scale",17,"object-80","BIQ",NA,"SUPAMT16716"
"6",1694129802118,"07/09/2023 23:36:42",1694115402118,-4,"07/09/2023 15:36:42",142342,3,"questionnaire-uu2n",NA,31574464,9338259,NA,"complete","gnzhav","3X1FV8S5J3QRNC6KZW96WK5MS3KGVI","computer","Desktop or Laptop","Windows 10","Chrome 116.0.0.0","1366x768","1366x619",NA,NA,0,"BIQ (Charlotte)",2,"In","GHFIEJDKCAB",NA,"Spreadsheet1",1,"BIQ","Screen 2","o21mwi",2,"continue","",4109.69100000894,4106.158,4109.69100000894,4109.69100000894,4106.158,4109.69100000894,1,4109.69100000894,0,0,NA,"Click To Continue","Continue Button",22,"object-50","BIQ",NA,"SUPAMT16716"
"7",1694129802118,"07/09/2023 23:36:42",1694115402118,-4,"07/09/2023 15:36:42",142342,3,"questionnaire-uu2n",NA,31574464,9338259,NA,"complete","gnzhav","3X1FV8S5J3QRNC6KZW96WK5MS3KGVI","computer","Desktop or Laptop","Windows 10","Chrome 116.0.0.0","1366x768","1366x619",NA,NA,0,"BIQ (Charlotte)",2,"In","GHFIEJDKCAB",NA,"Spreadsheet1",1,"BIQ","Screen 2","o21mwi",2,"response","6",1825.812,4106.158,4110.19100000894,1825.812,4106.158,4110.19100000894,1,1825.812,2284.37900000894,0,NA,"Rating Scale","Rating Scale",2,"object-259","BIQ",NA,"SUPAMT16716"
"8",1694129802118,"07/09/2023 23:36:42",1694115402118,-4,"07/09/2023 15:36:42",142342,3,"questionnaire-uu2n",NA,31574464,9338259,NA,"complete","gnzhav","3X1FV8S5J3QRNC6KZW96WK5MS3KGVI","computer","Desktop or Laptop","Windows 10","Chrome 116.0.0.0","1366x768","1366x619",NA,NA,0,"BIQ (Charlotte)",2,"In","GHFIEJDKCAB",NA,"Spreadsheet1",1,"BIQ","Screen 2","o21mwi",2,"response","5",2691.583,4106.158,4110.49100000596,2691.583,4106.158,4110.49100000596,1,2691.583,1418.90800000596,0,NA,"Rating Scale","Rating Scale",9,"object-36","BIQ",NA,"SUPAMT16716"
"9",1694129802119,"07/09/2023 23:36:42",1694115402119,-4,"07/09/2023 15:36:42",142342,3,"questionnaire-uu2n",NA,31574464,9338259,NA,"complete","gnzhav","3X1FV8S5J3QRNC6KZW96WK5MS3KGVI","computer","Desktop or Laptop","Windows 10","Chrome 116.0.0.0","1366x768","1366x619",NA,NA,0,"BIQ (Charlotte)",2,"In","GHFIEJDKCAB",NA,"Spreadsheet1",1,"BIQ","Screen 2","o21mwi",2,"response","6",3268.202,4106.158,4110.89099999702,3268.202,4106.158,4110.89099999702,1,3268.202,842.688999997019,0,NA,"Rating Scale","Rating Scale",16,"object-86","BIQ",NA,"SUPAMT16716"
"10",1694129805719,"07/09/2023 23:36:45",1694115405719,-4,"07/09/2023 15:36:45",142342,3,"questionnaire-uu2n",NA,31574464,9338259,NA,"complete","gnzhav","3X1FV8S5J3QRNC6KZW96WK5MS3KGVI","computer","Desktop or Laptop","Windows 10","Chrome 116.0.0.0","1366x768","1366x619",NA,NA,0,"BIQ (Charlotte)",2,"In","GHFIEJDKCAB",NA,"Spreadsheet1",1,"BIQ","Screen 3","iz3the",3,"continue","",3604.333,3587.667,3604.333,3604.333,3587.667,3604.333,1,3604.333,0,0,NA,"Click To Continue","Continue Button",22,"object-73","BIQ",NA,"SUPAMT16716"
"11",1694129805722,"07/09/2023 23:36:45",1694115405722,-4,"07/09/2023 15:36:45",142342,3,"questionnaire-uu2n",NA,31574464,9338259,NA,"complete","gnzhav","3X1FV8S5J3QRNC6KZW96WK5MS3KGVI","computer","Desktop or Laptop","Windows 10","Chrome 116.0.0.0","1366x768","1366x619",NA,NA,0,"BIQ (Charlotte)",2,"In","GHFIEJDKCAB",NA,"Spreadsheet1",1,"BIQ","Screen 3","iz3the",3,"response","6",1186.564,3587.667,3604.333,1186.564,3587.667,3604.333,1,1186.564,2417.769,0,NA,"Rating Scale","Rating Scale",2,"object-53","BIQ",NA,"SUPAMT16716"
"12",1694129805722,"07/09/2023 23:36:45",1694115405722,-4,"07/09/2023 15:36:45",142342,3,"questionnaire-uu2n",NA,31574464,9338259,NA,"complete","gnzhav","3X1FV8S5J3QRNC6KZW96WK5MS3KGVI","computer","Desktop or Laptop","Windows 10","Chrome 116.0.0.0","1366x768","1366x619",NA,NA,0,"BIQ (Charlotte)",2,"In","GHFIEJDKCAB",NA,"Spreadsheet1",1,"BIQ","Screen 3","iz3the",3,"response","5",1839.26,3587.667,3604.333,1839.26,3587.667,3604.333,1,1839.26,1765.073,0,NA,"Rating Scale","Rating Scale",9,"object-60","BIQ",NA,"SUPAMT16716"
"13",1694129805723,"07/09/2023 23:36:45",1694115405723,-4,"07/09/2023 15:36:45",142342,3,"questionnaire-uu2n",NA,31574464,9338259,NA,"complete","gnzhav","3X1FV8S5J3QRNC6KZW96WK5MS3KGVI","computer","Desktop or Laptop","Windows 10","Chrome 116.0.0.0","1366x768","1366x619",NA,NA,0,"BIQ (Charlotte)",2,"In","GHFIEJDKCAB",NA,"Spreadsheet1",1,"BIQ","Screen 3","iz3the",3,"response","6",2347.655,3587.667,3604.333,2347.655,3587.667,3604.333,1,2347.655,1256.678,0,NA,"Rating Scale","Rating Scale",16,"object-67","BIQ",NA,"SUPAMT16716"
"14",1694129805724,"07/09/2023 23:36:45",1694115405724,-4,"07/09/2023 15:36:45",142342,3,"questionnaire-uu2n",NA,31574464,9338259,NA,"complete","gnzhav","3X1FV8S5J3QRNC6KZW96WK5MS3KGVI","computer","Desktop or Laptop","Windows 10","Chrome 116.0.0.0","1366x768","1366x619",NA,NA,0,"BIQ (Charlotte)",2,"In","GHFIEJDKCAB",NA,"Spreadsheet1",NA,"","","",NA,"5","END",NA,NA,NA,NA,NA,NA,0,NA,NA,NA,NA,"","",NA,"","",NA,"SUPAMT16716"
"1",1694153824318,"08/09/2023 06:17:04",1694128624318,-7,"07/09/2023 16:17:04",142342,3,"questionnaire-uu2n",NA,31577551,9339002,NA,"complete","eddpzh","3HMVI3QICPRBNRBMMOBNWW5AA5A1Y5","computer","Desktop or Laptop","Windows 10","Chrome 116.0.0.0","1366x768","1366x651",NA,NA,0,"BIQ (Charlotte)",2,"In","HIGJFKEADBC",NA,"Spreadsheet1",NA,"","","",NA,"5","BEGIN",NA,NA,NA,NA,NA,NA,0,NA,NA,NA,NA,"","",NA,"","",NA,"SUPAMT43003"
"2",1694153838023,"08/09/2023 06:17:18",1694128638023,-7,"07/09/2023 16:17:18",142342,3,"questionnaire-uu2n",NA,31577551,9339002,NA,"complete","eddpzh","3HMVI3QICPRBNRBMMOBNWW5AA5A1Y5","computer","Desktop or Laptop","Windows 10","Chrome 116.0.0.0","1366x768","1366x651",NA,NA,0,"BIQ (Charlotte)",2,"In","HIGJFKEADBC",NA,"Spreadsheet1",1,"BIQ","Screen 1","9dh6eq",1,"continue","",13737.9,13732.784,13737.9,13737.9,13732.784,13737.9,1,13737.9,0,0,NA,"Click To Continue","Continue Button",23,"object-48","BIQ",NA,"SUPAMT43003"
"3",1694153838026,"08/09/2023 06:17:18",1694128638026,-7,"07/09/2023 16:17:18",142342,3,"questionnaire-uu2n",NA,31577551,9339002,NA,"complete","eddpzh","3HMVI3QICPRBNRBMMOBNWW5AA5A1Y5","computer","Desktop or Laptop","Windows 10","Chrome 116.0.0.0","1366x768","1366x651",NA,NA,0,"BIQ (Charlotte)",2,"In","HIGJFKEADBC",NA,"Spreadsheet1",1,"BIQ","Screen 1","9dh6eq",1,"response","3",6033.092,13732.784,13744.9,6033.092,13732.784,13744.9,1,6033.092,7711.808,0,NA,"Rating Scale","Rating Scale",3,"object-5","BIQ",NA,"SUPAMT43003"
"4",1694153838026,"08/09/2023 06:17:18",1694128638026,-7,"07/09/2023 16:17:18",142342,3,"questionnaire-uu2n",NA,31577551,9339002,NA,"complete","eddpzh","3HMVI3QICPRBNRBMMOBNWW5AA5A1Y5","computer","Desktop or Laptop","Windows 10","Chrome 116.0.0.0","1366x768","1366x651",NA,NA,0,"BIQ (Charlotte)",2,"In","HIGJFKEADBC",NA,"Spreadsheet1",1,"BIQ","Screen 1","9dh6eq",1,"response","2",8216.338,13732.784,13744.9,8216.338,13732.784,13744.9,1,8216.338,5528.562,0,NA,"Rating Scale","Rating Scale",10,"object-18","BIQ",NA,"SUPAMT43003"
"5",1694153838027,"08/09/2023 06:17:18",1694128638027,-7,"07/09/2023 16:17:18",142342,3,"questionnaire-uu2n",NA,31577551,9339002,NA,"complete","eddpzh","3HMVI3QICPRBNRBMMOBNWW5AA5A1Y5","computer","Desktop or Laptop","Windows 10","Chrome 116.0.0.0","1366x768","1366x651",NA,NA,0,"BIQ (Charlotte)",2,"In","HIGJFKEADBC",NA,"Spreadsheet1",1,"BIQ","Screen 1","9dh6eq",1,"response","3",9966.268,13732.784,13745.9,9966.268,13732.784,13745.9,1,9966.268,3779.632,0,NA,"Rating Scale","Rating Scale",17,"object-80","BIQ",NA,"SUPAMT43003"
"6",1694153847289,"08/09/2023 06:17:27",1694128647289,-7,"07/09/2023 16:17:27",142342,3,"questionnaire-uu2n",NA,31577551,9339002,NA,"complete","eddpzh","3HMVI3QICPRBNRBMMOBNWW5AA5A1Y5","computer","Desktop or Laptop","Windows 10","Chrome 116.0.0.0","1366x768","1366x651",NA,NA,0,"BIQ (Charlotte)",2,"In","HIGJFKEADBC",NA,"Spreadsheet1",1,"BIQ","Screen 2","o21mwi",2,"continue","",9275.116,9266.296,9275.116,9275.116,9266.296,9275.116,1,9275.116,0,0,NA,"Click To Continue","Continue Button",22,"object-50","BIQ",NA,"SUPAMT43003"
"7",1694153847290,"08/09/2023 06:17:27",1694128647290,-7,"07/09/2023 16:17:27",142342,3,"questionnaire-uu2n",NA,31577551,9339002,NA,"complete","eddpzh","3HMVI3QICPRBNRBMMOBNWW5AA5A1Y5","computer","Desktop or Laptop","Windows 10","Chrome 116.0.0.0","1366x768","1366x651",NA,NA,0,"BIQ (Charlotte)",2,"In","HIGJFKEADBC",NA,"Spreadsheet1",1,"BIQ","Screen 2","o21mwi",2,"response","5",2516.566,9266.296,9276.116,2516.566,9266.296,9276.116,1,2516.566,6759.55,0,NA,"Rating Scale","Rating Scale",2,"object-259","BIQ",NA,"SUPAMT43003"
"8",1694153847291,"08/09/2023 06:17:27",1694128647291,-7,"07/09/2023 16:17:27",142342,3,"questionnaire-uu2n",NA,31577551,9339002,NA,"complete","eddpzh","3HMVI3QICPRBNRBMMOBNWW5AA5A1Y5","computer","Desktop or Laptop","Windows 10","Chrome 116.0.0.0","1366x768","1366x651",NA,NA,0,"BIQ (Charlotte)",2,"In","HIGJFKEADBC",NA,"Spreadsheet1",1,"BIQ","Screen 2","o21mwi",2,"response","7",4366.492,9266.296,9277.116,4366.492,9266.296,9277.116,1,4366.492,4910.624,0,NA,"Rating Scale","Rating Scale",9,"object-36","BIQ",NA,"SUPAMT43003"
"9",1694153847292,"08/09/2023 06:17:27",1694128647292,-7,"07/09/2023 16:17:27",142342,3,"questionnaire-uu2n",NA,31577551,9339002,NA,"complete","eddpzh","3HMVI3QICPRBNRBMMOBNWW5AA5A1Y5","computer","Desktop or Laptop","Windows 10","Chrome 116.0.0.0","1366x768","1366x651",NA,NA,0,"BIQ (Charlotte)",2,"In","HIGJFKEADBC",NA,"Spreadsheet1",1,"BIQ","Screen 2","o21mwi",2,"response","3",7099.716,9266.296,9278.116,7099.716,9266.296,9278.116,1,7099.716,2178.4,0,NA,"Rating Scale","Rating Scale",16,"object-86","BIQ",NA,"SUPAMT43003"
"10",1694153856467,"08/09/2023 06:17:36",1694128656467,-7,"07/09/2023 16:17:36",142342,3,"questionnaire-uu2n",NA,31577551,9339002,NA,"complete","eddpzh","3HMVI3QICPRBNRBMMOBNWW5AA5A1Y5","computer","Desktop or Laptop","Windows 10","Chrome 116.0.0.0","1366x768","1366x651",NA,NA,0,"BIQ (Charlotte)",2,"In","HIGJFKEADBC",NA,"Spreadsheet1",1,"BIQ","Screen 3","iz3the",3,"continue","",9182.96600000001,9166.3,9182.96600000001,9182.96600000001,9166.3,9182.96600000001,1,9182.96600000001,0,0,NA,"Click To Continue","Continue Button",22,"object-73","BIQ",NA,"SUPAMT43003"
"11",1694153856480,"08/09/2023 06:17:36",1694128656480,-7,"07/09/2023 16:17:36",142342,3,"questionnaire-uu2n",NA,31577551,9339002,NA,"complete","eddpzh","3HMVI3QICPRBNRBMMOBNWW5AA5A1Y5","computer","Desktop or Laptop","Windows 10","Chrome 116.0.0.0","1366x768","1366x651",NA,NA,0,"BIQ (Charlotte)",2,"In","HIGJFKEADBC",NA,"Spreadsheet1",1,"BIQ","Screen 3","iz3the",3,"response","6",2533.232,9166.3,9182.96600000001,2533.232,9166.3,9182.96600000001,1,2533.232,6649.73400000001,0,NA,"Rating Scale","Rating Scale",2,"object-53","BIQ",NA,"SUPAMT43003"
"12",1694153856480,"08/09/2023 06:17:36",1694128656480,-7,"07/09/2023 16:17:36",142342,3,"questionnaire-uu2n",NA,31577551,9339002,NA,"complete","eddpzh","3HMVI3QICPRBNRBMMOBNWW5AA5A1Y5","computer","Desktop or Laptop","Windows 10","Chrome 116.0.0.0","1366x768","1366x651",NA,NA,0,"BIQ (Charlotte)",2,"In","HIGJFKEADBC",NA,"Spreadsheet1",1,"BIQ","Screen 3","iz3the",3,"response","7",4566.484,9166.3,9182.96600000001,4566.484,9166.3,9182.96600000001,1,4566.484,4616.48200000001,0,NA,"Rating Scale","Rating Scale",9,"object-60","BIQ",NA,"SUPAMT43003"
"13",1694153856480,"08/09/2023 06:17:36",1694128656480,-7,"07/09/2023 16:17:36",142342,3,"questionnaire-uu2n",NA,31577551,9339002,NA,"complete","eddpzh","3HMVI3QICPRBNRBMMOBNWW5AA5A1Y5","computer","Desktop or Laptop","Windows 10","Chrome 116.0.0.0","1366x768","1366x651",NA,NA,0,"BIQ (Charlotte)",2,"In","HIGJFKEADBC",NA,"Spreadsheet1",1,"BIQ","Screen 3","iz3the",3,"response","6",7249.71,9166.3,9182.96600000001,7249.71,9166.3,9182.96600000001,1,7249.71,1933.25600000001,0,NA,"Rating Scale","Rating Scale",16,"object-67","BIQ",NA,"SUPAMT43003"
"14",1694153856486,"08/09/2023 06:17:36",1694128656486,-7,"07/09/2023 16:17:36",142342,3,"questionnaire-uu2n",NA,31577551,9339002,NA,"complete","eddpzh","3HMVI3QICPRBNRBMMOBNWW5AA5A1Y5","computer","Desktop or Laptop","Windows 10","Chrome 116.0.0.0","1366x768","1366x651",NA,NA,0,"BIQ (Charlotte)",2,"In","HIGJFKEADBC",NA,"Spreadsheet1",NA,"","","",NA,"5","END",NA,NA,NA,NA,NA,NA,0,NA,NA,NA,NA,"","",NA,"","",NA,"SUPAMT43003"
"1",1694195106830,"08/09/2023 17:45:06",1694180706830,-4,"08/09/2023 09:45:06",142342,3,"questionnaire-uu2n",NA,31590184,9340882,NA,"complete","kjtsxz","3DBQWDE4YCXGZA8RG94OI6KKIZ6N5A","computer","Desktop or Laptop","Windows 10","Chrome 116.0.0.0","1366x768","1366x619",NA,NA,0,"BIQ (Charlotte)",2,"In","JKIAHBGCFDE",NA,"Spreadsheet1",NA,"","","",NA,"5","BEGIN",NA,NA,NA,NA,NA,NA,0,NA,NA,NA,NA,"","",NA,"","",NA,"SUPAMT12467"
"2",1694195112105,"08/09/2023 17:45:12",1694180712105,-4,"08/09/2023 09:45:12",142342,3,"questionnaire-uu2n",NA,31590184,9340882,NA,"complete","kjtsxz","3DBQWDE4YCXGZA8RG94OI6KKIZ6N5A","computer","Desktop or Laptop","Windows 10","Chrome 116.0.0.0","1366x768","1366x619",NA,NA,0,"BIQ (Charlotte)",2,"In","JKIAHBGCFDE",NA,"Spreadsheet1",1,"BIQ","Screen 1","9dh6eq",1,"continue","",5308,5281.25,5308,5308,5281.25,5308,1,5308,0,0,NA,"Click To Continue","Continue Button",23,"object-48","BIQ",NA,"SUPAMT12467"
"3",1694195112106,"08/09/2023 17:45:12",1694180712106,-4,"08/09/2023 09:45:12",142342,3,"questionnaire-uu2n",NA,31590184,9340882,NA,"complete","kjtsxz","3DBQWDE4YCXGZA8RG94OI6KKIZ6N5A","computer","Desktop or Laptop","Windows 10","Chrome 116.0.0.0","1366x768","1366x619",NA,NA,0,"BIQ (Charlotte)",2,"In","JKIAHBGCFDE",NA,"Spreadsheet1",1,"BIQ","Screen 1","9dh6eq",1,"response","5",2812.5,5281.25,5309,2812.5,5281.25,5309,1,2812.5,2496.5,0,NA,"Rating Scale","Rating Scale",3,"object-5","BIQ",NA,"SUPAMT12467"
"4",1694195112107,"08/09/2023 17:45:12",1694180712107,-4,"08/09/2023 09:45:12",142342,3,"questionnaire-uu2n",NA,31590184,9340882,NA,"complete","kjtsxz","3DBQWDE4YCXGZA8RG94OI6KKIZ6N5A","computer","Desktop or Laptop","Windows 10","Chrome 116.0.0.0","1366x768","1366x619",NA,NA,0,"BIQ (Charlotte)",2,"In","JKIAHBGCFDE",NA,"Spreadsheet1",1,"BIQ","Screen 1","9dh6eq",1,"response","6",3375,5281.25,5310,3375,5281.25,5310,1,3375,1935,0,NA,"Rating Scale","Rating Scale",10,"object-18","BIQ",NA,"SUPAMT12467"
"5",1694195112107,"08/09/2023 17:45:12",1694180712107,-4,"08/09/2023 09:45:12",142342,3,"questionnaire-uu2n",NA,31590184,9340882,NA,"complete","kjtsxz","3DBQWDE4YCXGZA8RG94OI6KKIZ6N5A","computer","Desktop or Laptop","Windows 10","Chrome 116.0.0.0","1366x768","1366x619",NA,NA,0,"BIQ (Charlotte)",2,"In","JKIAHBGCFDE",NA,"Spreadsheet1",1,"BIQ","Screen 1","9dh6eq",1,"response","7",3906.25,5281.25,5310,3906.25,5281.25,5310,1,3906.25,1403.75,0,NA,"Rating Scale","Rating Scale",17,"object-80","BIQ",NA,"SUPAMT12467"
"6",1694195120525,"08/09/2023 17:45:20",1694180720525,-4,"08/09/2023 09:45:20",142342,3,"questionnaire-uu2n",NA,31590184,9340882,NA,"complete","kjtsxz","3DBQWDE4YCXGZA8RG94OI6KKIZ6N5A","computer","Desktop or Laptop","Windows 10","Chrome 116.0.0.0","1366x768","1366x619",NA,NA,0,"BIQ (Charlotte)",2,"In","JKIAHBGCFDE",NA,"Spreadsheet1",1,"BIQ","Screen 2","o21mwi",2,"continue","",8437.5,8406.25,8437.5,8437.5,8406.25,8437.5,1,8437.5,0,0,NA,"Click To Continue","Continue Button",22,"object-50","BIQ",NA,"SUPAMT12467"
"7",1694195120529,"08/09/2023 17:45:20",1694180720529,-4,"08/09/2023 09:45:20",142342,3,"questionnaire-uu2n",NA,31590184,9340882,NA,"complete","kjtsxz","3DBQWDE4YCXGZA8RG94OI6KKIZ6N5A","computer","Desktop or Laptop","Windows 10","Chrome 116.0.0.0","1366x768","1366x619",NA,NA,0,"BIQ (Charlotte)",2,"In","JKIAHBGCFDE",NA,"Spreadsheet1",1,"BIQ","Screen 2","o21mwi",2,"response","7",5093.75,8406.25,8437.5,5093.75,8406.25,8437.5,1,5093.75,3343.75,0,NA,"Rating Scale","Rating Scale",2,"object-259","BIQ",NA,"SUPAMT12467"
"8",1694195120530,"08/09/2023 17:45:20",1694180720530,-4,"08/09/2023 09:45:20",142342,3,"questionnaire-uu2n",NA,31590184,9340882,NA,"complete","kjtsxz","3DBQWDE4YCXGZA8RG94OI6KKIZ6N5A","computer","Desktop or Laptop","Windows 10","Chrome 116.0.0.0","1366x768","1366x619",NA,NA,0,"BIQ (Charlotte)",2,"In","JKIAHBGCFDE",NA,"Spreadsheet1",1,"BIQ","Screen 2","o21mwi",2,"response","5",5625,8406.25,8437.5,5625,8406.25,8437.5,1,5625,2812.5,0,NA,"Rating Scale","Rating Scale",9,"object-36","BIQ",NA,"SUPAMT12467"
"9",1694195120530,"08/09/2023 17:45:20",1694180720530,-4,"08/09/2023 09:45:20",142342,3,"questionnaire-uu2n",NA,31590184,9340882,NA,"complete","kjtsxz","3DBQWDE4YCXGZA8RG94OI6KKIZ6N5A","computer","Desktop or Laptop","Windows 10","Chrome 116.0.0.0","1366x768","1366x619",NA,NA,0,"BIQ (Charlotte)",2,"In","JKIAHBGCFDE",NA,"Spreadsheet1",1,"BIQ","Screen 2","o21mwi",2,"response","6",6218.75,8406.25,8437.5,6218.75,8406.25,8437.5,1,6218.75,2218.75,0,NA,"Rating Scale","Rating Scale",16,"object-86","BIQ",NA,"SUPAMT12467"
"10",1694195131929,"08/09/2023 17:45:31",1694180731929,-4,"08/09/2023 09:45:31",142342,3,"questionnaire-uu2n",NA,31590184,9340882,NA,"complete","kjtsxz","3DBQWDE4YCXGZA8RG94OI6KKIZ6N5A","computer","Desktop or Laptop","Windows 10","Chrome 116.0.0.0","1366x768","1366x619",NA,NA,0,"BIQ (Charlotte)",2,"In","JKIAHBGCFDE",NA,"Spreadsheet1",1,"BIQ","Screen 3","iz3the",3,"continue","",11437.5,11406.25,11437.5,11437.5,11406.25,11437.5,1,11437.5,0,0,NA,"Click To Continue","Continue Button",22,"object-73","BIQ",NA,"SUPAMT12467"
"11",1694195131934,"08/09/2023 17:45:31",1694180731934,-4,"08/09/2023 09:45:31",142342,3,"questionnaire-uu2n",NA,31590184,9340882,NA,"complete","kjtsxz","3DBQWDE4YCXGZA8RG94OI6KKIZ6N5A","computer","Desktop or Laptop","Windows 10","Chrome 116.0.0.0","1366x768","1366x619",NA,NA,0,"BIQ (Charlotte)",2,"In","JKIAHBGCFDE",NA,"Spreadsheet1",1,"BIQ","Screen 3","iz3the",3,"response","6",3656.25,11406.25,11437.5,3656.25,11406.25,11437.5,1,3656.25,7781.25,0,NA,"Rating Scale","Rating Scale",2,"object-53","BIQ",NA,"SUPAMT12467"
"12",1694195131934,"08/09/2023 17:45:31",1694180731934,-4,"08/09/2023 09:45:31",142342,3,"questionnaire-uu2n",NA,31590184,9340882,NA,"complete","kjtsxz","3DBQWDE4YCXGZA8RG94OI6KKIZ6N5A","computer","Desktop or Laptop","Windows 10","Chrome 116.0.0.0","1366x768","1366x619",NA,NA,0,"BIQ (Charlotte)",2,"In","JKIAHBGCFDE",NA,"Spreadsheet1",1,"BIQ","Screen 3","iz3the",3,"response","7",4218.75,11406.25,11437.5,4218.75,11406.25,11437.5,1,4218.75,7218.75,0,NA,"Rating Scale","Rating Scale",9,"object-60","BIQ",NA,"SUPAMT12467"
"13",1694195131935,"08/09/2023 17:45:31",1694180731935,-4,"08/09/2023 09:45:31",142342,3,"questionnaire-uu2n",NA,31590184,9340882,NA,"complete","kjtsxz","3DBQWDE4YCXGZA8RG94OI6KKIZ6N5A","computer","Desktop or Laptop","Windows 10","Chrome 116.0.0.0","1366x768","1366x619",NA,NA,0,"BIQ (Charlotte)",2,"In","JKIAHBGCFDE",NA,"Spreadsheet1",1,"BIQ","Screen 3","iz3the",3,"response","6",4781.25,11406.25,11437.5,4781.25,11406.25,11437.5,1,4781.25,6656.25,0,NA,"Rating Scale","Rating Scale",16,"object-67","BIQ",NA,"SUPAMT12467"
"14",1694195131937,"08/09/2023 17:45:31",1694180731937,-4,"08/09/2023 09:45:31",142342,3,"questionnaire-uu2n",NA,31590184,9340882,NA,"complete","kjtsxz","3DBQWDE4YCXGZA8RG94OI6KKIZ6N5A","computer","Desktop or Laptop","Windows 10","Chrome 116.0.0.0","1366x768","1366x619",NA,NA,0,"BIQ (Charlotte)",2,"In","JKIAHBGCFDE",NA,"Spreadsheet1",NA,"","","",NA,"5","END",NA,NA,NA,NA,NA,NA,0,NA,NA,NA,NA,"","",NA,"","",NA,"SUPAMT12467"
"1",1694195209580,"08/09/2023 17:46:49",1694180809580,-4,"08/09/2023 09:46:49",142342,3,"questionnaire-uu2n",NA,31590226,9340875,NA,"complete","gmniep","3LQ8PUHQFRR012HVKVS52VRTZ5NHIF","computer","Desktop or Laptop","Windows 10","Chrome 116.0.0.0","1366x768","1366x619",NA,NA,0,"BIQ (Charlotte)",2,"In","IJHKGAFBECD",NA,"Spreadsheet1",NA,"","","",NA,"5","BEGIN",NA,NA,NA,NA,NA,NA,0,NA,NA,NA,NA,"","",NA,"","",NA,"SUPAMT23519"
"2",1694195243069,"08/09/2023 17:47:23",1694180843069,-4,"08/09/2023 09:47:23",142342,3,"questionnaire-uu2n",NA,31590226,9340875,NA,"complete","gmniep","3LQ8PUHQFRR012HVKVS52VRTZ5NHIF","computer","Desktop or Laptop","Windows 10","Chrome 116.0.0.0","1366x768","1366x619",NA,NA,0,"BIQ (Charlotte)",2,"In","IJHKGAFBECD",NA,"Spreadsheet1",1,"BIQ","Screen 1","9dh6eq",1,"continue","",33500,33468.75,33500,33500,33468.75,33500,1,33500,0,0,NA,"Click To Continue","Continue Button",23,"object-48","BIQ",NA,"SUPAMT23519"
"3",1694195243074,"08/09/2023 17:47:23",1694180843074,-4,"08/09/2023 09:47:23",142342,3,"questionnaire-uu2n",NA,31590226,9340875,NA,"complete","gmniep","3LQ8PUHQFRR012HVKVS52VRTZ5NHIF","computer","Desktop or Laptop","Windows 10","Chrome 116.0.0.0","1366x768","1366x619",NA,NA,0,"BIQ (Charlotte)",2,"In","IJHKGAFBECD",NA,"Spreadsheet1",1,"BIQ","Screen 1","9dh6eq",1,"response","5",25937.5,33468.75,33500,25937.5,33468.75,33500,1,25937.5,7562.5,0,NA,"Rating Scale","Rating Scale",3,"object-5","BIQ",NA,"SUPAMT23519"
"4",1694195243075,"08/09/2023 17:47:23",1694180843075,-4,"08/09/2023 09:47:23",142342,3,"questionnaire-uu2n",NA,31590226,9340875,NA,"complete","gmniep","3LQ8PUHQFRR012HVKVS52VRTZ5NHIF","computer","Desktop or Laptop","Windows 10","Chrome 116.0.0.0","1366x768","1366x619",NA,NA,0,"BIQ (Charlotte)",2,"In","IJHKGAFBECD",NA,"Spreadsheet1",1,"BIQ","Screen 1","9dh6eq",1,"response","3",26625,33468.75,33500,26625,33468.75,33500,1,26625,6875,0,NA,"Rating Scale","Rating Scale",10,"object-18","BIQ",NA,"SUPAMT23519"
"5",1694195243076,"08/09/2023 17:47:23",1694180843076,-4,"08/09/2023 09:47:23",142342,3,"questionnaire-uu2n",NA,31590226,9340875,NA,"complete","gmniep","3LQ8PUHQFRR012HVKVS52VRTZ5NHIF","computer","Desktop or Laptop","Windows 10","Chrome 116.0.0.0","1366x768","1366x619",NA,NA,0,"BIQ (Charlotte)",2,"In","IJHKGAFBECD",NA,"Spreadsheet1",1,"BIQ","Screen 1","9dh6eq",1,"response","4",29218.75,33468.75,33500,29218.75,33468.75,33500,1,29218.75,4281.25,0,NA,"Rating Scale","Rating Scale",17,"object-80","BIQ",NA,"SUPAMT23519"
"6",1694195249162,"08/09/2023 17:47:29",1694180849162,-4,"08/09/2023 09:47:29",142342,3,"questionnaire-uu2n",NA,31590226,9340875,NA,"complete","gmniep","3LQ8PUHQFRR012HVKVS52VRTZ5NHIF","computer","Desktop or Laptop","Windows 10","Chrome 116.0.0.0","1366x768","1366x619",NA,NA,0,"BIQ (Charlotte)",2,"In","IJHKGAFBECD",NA,"Spreadsheet1",1,"BIQ","Screen 2","o21mwi",2,"continue","",6125,6093.75,6125,6125,6093.75,6125,1,6125,0,0,NA,"Click To Continue","Continue Button",22,"object-50","BIQ",NA,"SUPAMT23519"
"7",1694195249163,"08/09/2023 17:47:29",1694180849163,-4,"08/09/2023 09:47:29",142342,3,"questionnaire-uu2n",NA,31590226,9340875,NA,"complete","gmniep","3LQ8PUHQFRR012HVKVS52VRTZ5NHIF","computer","Desktop or Laptop","Windows 10","Chrome 116.0.0.0","1366x768","1366x619",NA,NA,0,"BIQ (Charlotte)",2,"In","IJHKGAFBECD",NA,"Spreadsheet1",1,"BIQ","Screen 2","o21mwi",2,"response","4",1625,6093.75,6125,1625,6093.75,6125,1,1625,4500,0,NA,"Rating Scale","Rating Scale",2,"object-259","BIQ",NA,"SUPAMT23519"
"8",1694195249164,"08/09/2023 17:47:29",1694180849164,-4,"08/09/2023 09:47:29",142342,3,"questionnaire-uu2n",NA,31590226,9340875,NA,"complete","gmniep","3LQ8PUHQFRR012HVKVS52VRTZ5NHIF","computer","Desktop or Laptop","Windows 10","Chrome 116.0.0.0","1366x768","1366x619",NA,NA,0,"BIQ (Charlotte)",2,"In","IJHKGAFBECD",NA,"Spreadsheet1",1,"BIQ","Screen 2","o21mwi",2,"response","7",2375,6093.75,6125,2375,6093.75,6125,1,2375,3750,0,NA,"Rating Scale","Rating Scale",9,"object-36","BIQ",NA,"SUPAMT23519"
"9",1694195249164,"08/09/2023 17:47:29",1694180849164,-4,"08/09/2023 09:47:29",142342,3,"questionnaire-uu2n",NA,31590226,9340875,NA,"complete","gmniep","3LQ8PUHQFRR012HVKVS52VRTZ5NHIF","computer","Desktop or Laptop","Windows 10","Chrome 116.0.0.0","1366x768","1366x619",NA,NA,0,"BIQ (Charlotte)",2,"In","IJHKGAFBECD",NA,"Spreadsheet1",1,"BIQ","Screen 2","o21mwi",2,"response","5",4968.75,6093.75,6125,4968.75,6093.75,6125,1,4968.75,1156.25,0,NA,"Rating Scale","Rating Scale",16,"object-86","BIQ",NA,"SUPAMT23519"
"10",1694195254357,"08/09/2023 17:47:34",1694180854357,-4,"08/09/2023 09:47:34",142342,3,"questionnaire-uu2n",NA,31590226,9340875,NA,"complete","gmniep","3LQ8PUHQFRR012HVKVS52VRTZ5NHIF","computer","Desktop or Laptop","Windows 10","Chrome 116.0.0.0","1366x768","1366x619",NA,NA,0,"BIQ (Charlotte)",2,"In","IJHKGAFBECD",NA,"Spreadsheet1",1,"BIQ","Screen 3","iz3the",3,"continue","",5229.75,5218.75,5229.75,5229.75,5218.75,5229.75,1,5229.75,0,0,NA,"Click To Continue","Continue Button",22,"object-73","BIQ",NA,"SUPAMT23519"
"11",1694195254364,"08/09/2023 17:47:34",1694180854364,-4,"08/09/2023 09:47:34",142342,3,"questionnaire-uu2n",NA,31590226,9340875,NA,"complete","gmniep","3LQ8PUHQFRR012HVKVS52VRTZ5NHIF","computer","Desktop or Laptop","Windows 10","Chrome 116.0.0.0","1366x768","1366x619",NA,NA,0,"BIQ (Charlotte)",2,"In","IJHKGAFBECD",NA,"Spreadsheet1",1,"BIQ","Screen 3","iz3the",3,"response","6",1781.25,5218.75,5237.75,1781.25,5218.75,5237.75,1,1781.25,3456.5,0,NA,"Rating Scale","Rating Scale",2,"object-53","BIQ",NA,"SUPAMT23519"
"12",1694195254365,"08/09/2023 17:47:34",1694180854365,-4,"08/09/2023 09:47:34",142342,3,"questionnaire-uu2n",NA,31590226,9340875,NA,"complete","gmniep","3LQ8PUHQFRR012HVKVS52VRTZ5NHIF","computer","Desktop or Laptop","Windows 10","Chrome 116.0.0.0","1366x768","1366x619",NA,NA,0,"BIQ (Charlotte)",2,"In","IJHKGAFBECD",NA,"Spreadsheet1",1,"BIQ","Screen 3","iz3the",3,"response","7",3718.75,5218.75,5238.75,3718.75,5218.75,5238.75,1,3718.75,1520,0,NA,"Rating Scale","Rating Scale",9,"object-60","BIQ",NA,"SUPAMT23519"
"13",1694195254366,"08/09/2023 17:47:34",1694180854366,-4,"08/09/2023 09:47:34",142342,3,"questionnaire-uu2n",NA,31590226,9340875,NA,"complete","gmniep","3LQ8PUHQFRR012HVKVS52VRTZ5NHIF","computer","Desktop or Laptop","Windows 10","Chrome 116.0.0.0","1366x768","1366x619",NA,NA,0,"BIQ (Charlotte)",2,"In","IJHKGAFBECD",NA,"Spreadsheet1",1,"BIQ","Screen 3","iz3the",3,"response","5",4312.5,5218.75,5239.75,4312.5,5218.75,5239.75,1,4312.5,927.25,0,NA,"Rating Scale","Rating Scale",16,"object-67","BIQ",NA,"SUPAMT23519"
"14",1694195254369,"08/09/2023 17:47:34",1694180854369,-4,"08/09/2023 09:47:34",142342,3,"questionnaire-uu2n",NA,31590226,9340875,NA,"complete","gmniep","3LQ8PUHQFRR012HVKVS52VRTZ5NHIF","computer","Desktop or Laptop","Windows 10","Chrome 116.0.0.0","1366x768","1366x619",NA,NA,0,"BIQ (Charlotte)",2,"In","IJHKGAFBECD",NA,"Spreadsheet1",NA,"","","",NA,"5","END",NA,NA,NA,NA,NA,NA,0,NA,NA,NA,NA,"","",NA,"","",NA,"SUPAMT23519"
"1",1694196129871,"08/09/2023 18:02:09",1694181729871,-4,"08/09/2023 10:02:09",142342,3,"questionnaire-uu2n",NA,31590653,9340884,NA,"complete","jpkeep","36NEMU28XLC4UB2B09CXVR8XX7LWMN","computer","Desktop or Laptop","Windows 10","Chrome 115.0.0.0","1366x768","1366x619",NA,NA,0,"BIQ (Charlotte)",2,"In","KAJBICHDGEF",NA,"Spreadsheet1",NA,"","","",NA,"5","BEGIN",NA,NA,NA,NA,NA,NA,0,NA,NA,NA,NA,"","",NA,"","",NA,"SUPAMT43905"
"2",1694196170203,"08/09/2023 18:02:50",1694181770203,-4,"08/09/2023 10:02:50",142342,3,"questionnaire-uu2n",NA,31590653,9340884,NA,"complete","jpkeep","36NEMU28XLC4UB2B09CXVR8XX7LWMN","computer","Desktop or Laptop","Windows 10","Chrome 115.0.0.0","1366x768","1366x619",NA,NA,0,"BIQ (Charlotte)",2,"In","KAJBICHDGEF",NA,"Spreadsheet1",1,"BIQ","Screen 1","9dh6eq",1,"continue","",40335.971,40319.305,40335.971,40335.971,40319.305,40335.971,1,40335.971,0,0,NA,"Click To Continue","Continue Button",23,"object-48","BIQ",NA,"SUPAMT43905"
"3",1694196170206,"08/09/2023 18:02:50",1694181770206,-4,"08/09/2023 10:02:50",142342,3,"questionnaire-uu2n",NA,31590653,9340884,NA,"complete","jpkeep","36NEMU28XLC4UB2B09CXVR8XX7LWMN","computer","Desktop or Laptop","Windows 10","Chrome 115.0.0.0","1366x768","1366x619",NA,NA,0,"BIQ (Charlotte)",2,"In","KAJBICHDGEF",NA,"Spreadsheet1",1,"BIQ","Screen 1","9dh6eq",1,"response","4",25853.781,40319.305,40335.971,25853.781,40319.305,40335.971,1,25853.781,14482.19,0,NA,"Rating Scale","Rating Scale",3,"object-5","BIQ",NA,"SUPAMT43905"
"4",1694196170207,"08/09/2023 18:02:50",1694181770207,-4,"08/09/2023 10:02:50",142342,3,"questionnaire-uu2n",NA,31590653,9340884,NA,"complete","jpkeep","36NEMU28XLC4UB2B09CXVR8XX7LWMN","computer","Desktop or Laptop","Windows 10","Chrome 115.0.0.0","1366x768","1366x619",NA,NA,0,"BIQ (Charlotte)",2,"In","KAJBICHDGEF",NA,"Spreadsheet1",1,"BIQ","Screen 1","9dh6eq",1,"response","6",31289.913,40319.305,40335.971,31289.913,40319.305,40335.971,1,31289.913,9046.058,0,NA,"Rating Scale","Rating Scale",10,"object-18","BIQ",NA,"SUPAMT43905"
"5",1694196170207,"08/09/2023 18:02:50",1694181770207,-4,"08/09/2023 10:02:50",142342,3,"questionnaire-uu2n",NA,31590653,9340884,NA,"complete","jpkeep","36NEMU28XLC4UB2B09CXVR8XX7LWMN","computer","Desktop or Laptop","Windows 10","Chrome 115.0.0.0","1366x768","1366x619",NA,NA,0,"BIQ (Charlotte)",2,"In","KAJBICHDGEF",NA,"Spreadsheet1",1,"BIQ","Screen 1","9dh6eq",1,"response","4",37239.398,40319.305,40335.971,37239.398,40319.305,40335.971,1,37239.398,3096.573,0,NA,"Rating Scale","Rating Scale",17,"object-80","BIQ",NA,"SUPAMT43905"
"6",1694196188550,"08/09/2023 18:03:08",1694181788550,-4,"08/09/2023 10:03:08",142342,3,"questionnaire-uu2n",NA,31590653,9340884,NA,"complete","jpkeep","36NEMU28XLC4UB2B09CXVR8XX7LWMN","computer","Desktop or Laptop","Windows 10","Chrome 115.0.0.0","1366x768","1366x619",NA,NA,0,"BIQ (Charlotte)",2,"In","KAJBICHDGEF",NA,"Spreadsheet1",1,"BIQ","Screen 2","o21mwi",2,"continue","",18369.2079999046,18364.097,18369.2079999046,18369.2079999046,18364.097,18369.2079999046,1,18369.2079999046,0,0,NA,"Click To Continue","Continue Button",22,"object-50","BIQ",NA,"SUPAMT43905"
"7",1694196188553,"08/09/2023 18:03:08",1694181788553,-4,"08/09/2023 10:03:08",142342,3,"questionnaire-uu2n",NA,31590653,9340884,NA,"complete","jpkeep","36NEMU28XLC4UB2B09CXVR8XX7LWMN","computer","Desktop or Laptop","Windows 10","Chrome 115.0.0.0","1366x768","1366x619",NA,NA,0,"BIQ (Charlotte)",2,"In","KAJBICHDGEF",NA,"Spreadsheet1",1,"BIQ","Screen 2","o21mwi",2,"response","6",10887.806,18364.097,18372.5080000954,10887.806,18364.097,18372.5080000954,1,10887.806,7484.70200009537,0,NA,"Rating Scale","Rating Scale",2,"object-259","BIQ",NA,"SUPAMT43905"
"8",1694196188554,"08/09/2023 18:03:08",1694181788554,-4,"08/09/2023 10:03:08",142342,3,"questionnaire-uu2n",NA,31590653,9340884,NA,"complete","jpkeep","36NEMU28XLC4UB2B09CXVR8XX7LWMN","computer","Desktop or Laptop","Windows 10","Chrome 115.0.0.0","1366x768","1366x619",NA,NA,0,"BIQ (Charlotte)",2,"In","KAJBICHDGEF",NA,"Spreadsheet1",1,"BIQ","Screen 2","o21mwi",2,"response","4",13234.771,18364.097,18372.9079997139,13234.771,18364.097,18372.9079997139,1,13234.771,5138.1369997139,0,NA,"Rating Scale","Rating Scale",9,"object-36","BIQ",NA,"SUPAMT43905"
"9",1694196188554,"08/09/2023 18:03:08",1694181788554,-4,"08/09/2023 10:03:08",142342,3,"questionnaire-uu2n",NA,31590653,9340884,NA,"complete","jpkeep","36NEMU28XLC4UB2B09CXVR8XX7LWMN","computer","Desktop or Laptop","Windows 10","Chrome 115.0.0.0","1366x768","1366x619",NA,NA,0,"BIQ (Charlotte)",2,"In","KAJBICHDGEF",NA,"Spreadsheet1",1,"BIQ","Screen 2","o21mwi",2,"response","4",15654.73,18364.097,18373.5080000954,15654.73,18364.097,18373.5080000954,1,15654.73,2718.77800009536,0,NA,"Rating Scale","Rating Scale",16,"object-86","BIQ",NA,"SUPAMT43905"
"10",1694196213298,"08/09/2023 18:03:33",1694181813298,-4,"08/09/2023 10:03:33",142342,3,"questionnaire-uu2n",NA,31590653,9340884,NA,"complete","jpkeep","36NEMU28XLC4UB2B09CXVR8XX7LWMN","computer","Desktop or Laptop","Windows 10","Chrome 115.0.0.0","1366x768","1366x619",NA,NA,0,"BIQ (Charlotte)",2,"In","KAJBICHDGEF",NA,"Spreadsheet1",1,"BIQ","Screen 3","iz3the",3,"continue","",24752.8109997139,24747.041,24752.8109997139,24752.8109997139,24747.041,24752.8109997139,1,24752.8109997139,0,0,NA,"Click To Continue","Continue Button",22,"object-73","BIQ",NA,"SUPAMT43905"
"11",1694196213301,"08/09/2023 18:03:33",1694181813301,-4,"08/09/2023 10:03:33",142342,3,"questionnaire-uu2n",NA,31590653,9340884,NA,"complete","jpkeep","36NEMU28XLC4UB2B09CXVR8XX7LWMN","computer","Desktop or Laptop","Windows 10","Chrome 115.0.0.0","1366x768","1366x619",NA,NA,0,"BIQ (Charlotte)",2,"In","KAJBICHDGEF",NA,"Spreadsheet1",1,"BIQ","Screen 3","iz3the",3,"response","5",15278.459,24747.041,24755.9110000954,15278.459,24747.041,24755.9110000954,1,15278.459,9477.45200009536,0,NA,"Rating Scale","Rating Scale",2,"object-53","BIQ",NA,"SUPAMT43905"
"12",1694196213301,"08/09/2023 18:03:33",1694181813301,-4,"08/09/2023 10:03:33",142342,3,"questionnaire-uu2n",NA,31590653,9340884,NA,"complete","jpkeep","36NEMU28XLC4UB2B09CXVR8XX7LWMN","computer","Desktop or Laptop","Windows 10","Chrome 115.0.0.0","1366x768","1366x619",NA,NA,0,"BIQ (Charlotte)",2,"In","KAJBICHDGEF",NA,"Spreadsheet1",1,"BIQ","Screen 3","iz3the",3,"response","4",20308.778,24747.041,24756.511,20308.778,24747.041,24756.511,1,20308.778,4447.73299999999,0,NA,"Rating Scale","Rating Scale",9,"object-60","BIQ",NA,"SUPAMT43905"
"13",1694196213302,"08/09/2023 18:03:33",1694181813302,-4,"08/09/2023 10:03:33",142342,3,"questionnaire-uu2n",NA,31590653,9340884,NA,"complete","jpkeep","36NEMU28XLC4UB2B09CXVR8XX7LWMN","computer","Desktop or Laptop","Windows 10","Chrome 115.0.0.0","1366x768","1366x619",NA,NA,0,"BIQ (Charlotte)",2,"In","KAJBICHDGEF",NA,"Spreadsheet1",1,"BIQ","Screen 3","iz3the",3,"response","6",23270.201,24747.041,24756.9110000954,23270.201,24747.041,24756.9110000954,1,23270.201,1486.71000009537,0,NA,"Rating Scale","Rating Scale",16,"object-67","BIQ",NA,"SUPAMT43905"
"14",1694196213307,"08/09/2023 18:03:33",1694181813307,-4,"08/09/2023 10:03:33",142342,3,"questionnaire-uu2n",NA,31590653,9340884,NA,"complete","jpkeep","36NEMU28XLC4UB2B09CXVR8XX7LWMN","computer","Desktop or Laptop","Windows 10","Chrome 115.0.0.0","1366x768","1366x619",NA,NA,0,"BIQ (Charlotte)",2,"In","KAJBICHDGEF",NA,"Spreadsheet1",NA,"","","",NA,"5","END",NA,NA,NA,NA,NA,NA,0,NA,NA,NA,NA,"","",NA,"","",NA,"SUPAMT43905"
"1",1694203091432,"08/09/2023 19:58:11",1694188691432,-4,"08/09/2023 11:58:11",142342,3,"questionnaire-uu2n",NA,31593175,9341382,NA,"complete","rlvoid","3B4YI393VFVELPY701YIAB4IHEXSSU","computer","Desktop or Laptop","Windows 10","Chrome 116.0.0.0","1920x1080","1920x963",NA,NA,0,"BIQ (Charlotte)",2,"In","BCADKEJFIGH",NA,"Spreadsheet1",NA,"","","",NA,"5","BEGIN",NA,NA,NA,NA,NA,NA,0,NA,NA,NA,NA,"","",NA,"","",NA,"SUPAMT85972"
"2",1694203112946,"08/09/2023 19:58:32",1694188712946,-4,"08/09/2023 11:58:32",142342,3,"questionnaire-uu2n",NA,31593175,9341382,NA,"complete","rlvoid","3B4YI393VFVELPY701YIAB4IHEXSSU","computer","Desktop or Laptop","Windows 10","Chrome 116.0.0.0","1920x1080","1920x963",NA,NA,0,"BIQ (Charlotte)",2,"In","BCADKEJFIGH",NA,"Spreadsheet1",1,"BIQ","Screen 1","9dh6eq",1,"continue","",21527.689000143,21521.793,21527.689000143,21527.689000143,21521.793,21527.689000143,1,21527.689000143,0,0,NA,"Click To Continue","Continue Button",23,"object-48","BIQ",NA,"SUPAMT85972"
"3",1694203112947,"08/09/2023 19:58:32",1694188712947,-4,"08/09/2023 11:58:32",142342,3,"questionnaire-uu2n",NA,31593175,9341382,NA,"complete","rlvoid","3B4YI393VFVELPY701YIAB4IHEXSSU","computer","Desktop or Laptop","Windows 10","Chrome 116.0.0.0","1920x1080","1920x963",NA,NA,0,"BIQ (Charlotte)",2,"In","BCADKEJFIGH",NA,"Spreadsheet1",1,"BIQ","Screen 1","9dh6eq",1,"response","7",13430.21,21521.793,21529.2890000477,13430.21,21521.793,21529.2890000477,1,13430.21,8099.07900004768,0,NA,"Rating Scale","Rating Scale",3,"object-5","BIQ",NA,"SUPAMT85972"
"4",1694203112947,"08/09/2023 19:58:32",1694188712947,-4,"08/09/2023 11:58:32",142342,3,"questionnaire-uu2n",NA,31593175,9341382,NA,"complete","rlvoid","3B4YI393VFVELPY701YIAB4IHEXSSU","computer","Desktop or Laptop","Windows 10","Chrome 116.0.0.0","1920x1080","1920x963",NA,NA,0,"BIQ (Charlotte)",2,"In","BCADKEJFIGH",NA,"Spreadsheet1",1,"BIQ","Screen 1","9dh6eq",1,"response","8",16867.394,21521.793,21529.4890000954,16867.394,21521.793,21529.4890000954,1,16867.394,4662.09500009537,0,NA,"Rating Scale","Rating Scale",10,"object-18","BIQ",NA,"SUPAMT85972"
"5",1694203112948,"08/09/2023 19:58:32",1694188712948,-4,"08/09/2023 11:58:32",142342,3,"questionnaire-uu2n",NA,31593175,9341382,NA,"complete","rlvoid","3B4YI393VFVELPY701YIAB4IHEXSSU","computer","Desktop or Laptop","Windows 10","Chrome 116.0.0.0","1920x1080","1920x963",NA,NA,0,"BIQ (Charlotte)",2,"In","BCADKEJFIGH",NA,"Spreadsheet1",1,"BIQ","Screen 1","9dh6eq",1,"response","0",20020.563,21521.793,21529.589,20020.563,21521.793,21529.589,1,20020.563,1509.026,0,NA,"Rating Scale","Rating Scale",17,"object-80","BIQ",NA,"SUPAMT85972"
"6",1694203127916,"08/09/2023 19:58:47",1694188727916,-4,"08/09/2023 11:58:47",142342,3,"questionnaire-uu2n",NA,31593175,9341382,NA,"complete","rlvoid","3B4YI393VFVELPY701YIAB4IHEXSSU","computer","Desktop or Laptop","Windows 10","Chrome 116.0.0.0","1920x1080","1920x963",NA,NA,0,"BIQ (Charlotte)",2,"In","BCADKEJFIGH",NA,"Spreadsheet1",1,"BIQ","Screen 2","o21mwi",2,"continue","",14975.896000143,14965.485,14975.896000143,14975.896000143,14965.485,14975.896000143,1,14975.896000143,0,0,NA,"Click To Continue","Continue Button",22,"object-50","BIQ",NA,"SUPAMT85972"
"7",1694203127917,"08/09/2023 19:58:47",1694188727917,-4,"08/09/2023 11:58:47",142342,3,"questionnaire-uu2n",NA,31593175,9341382,NA,"complete","rlvoid","3B4YI393VFVELPY701YIAB4IHEXSSU","computer","Desktop or Laptop","Windows 10","Chrome 116.0.0.0","1920x1080","1920x963",NA,NA,0,"BIQ (Charlotte)",2,"In","BCADKEJFIGH",NA,"Spreadsheet1",1,"BIQ","Screen 2","o21mwi",2,"response","8",3620.317,14965.485,14977.396000143,3620.317,14965.485,14977.396000143,1,3620.317,11357.079000143,0,NA,"Rating Scale","Rating Scale",2,"object-259","BIQ",NA,"SUPAMT85972"
"8",1694203127917,"08/09/2023 19:58:47",1694188727917,-4,"08/09/2023 11:58:47",142342,3,"questionnaire-uu2n",NA,31593175,9341382,NA,"complete","rlvoid","3B4YI393VFVELPY701YIAB4IHEXSSU","computer","Desktop or Laptop","Windows 10","Chrome 116.0.0.0","1920x1080","1920x963",NA,NA,0,"BIQ (Charlotte)",2,"In","BCADKEJFIGH",NA,"Spreadsheet1",1,"BIQ","Screen 2","o21mwi",2,"response","0",6873.936,14965.485,14977.6960000954,6873.936,14965.485,14977.6960000954,1,6873.936,8103.76000009537,0,NA,"Rating Scale","Rating Scale",9,"object-36","BIQ",NA,"SUPAMT85972"
"9",1694203127918,"08/09/2023 19:58:47",1694188727918,-4,"08/09/2023 11:58:47",142342,3,"questionnaire-uu2n",NA,31593175,9341382,NA,"complete","rlvoid","3B4YI393VFVELPY701YIAB4IHEXSSU","computer","Desktop or Laptop","Windows 10","Chrome 116.0.0.0","1920x1080","1920x963",NA,NA,0,"BIQ (Charlotte)",2,"In","BCADKEJFIGH",NA,"Spreadsheet1",1,"BIQ","Screen 2","o21mwi",2,"response","0",13614.097,14965.485,14977.896000143,13614.097,14965.485,14977.896000143,1,13614.097,1363.79900014305,0,NA,"Rating Scale","Rating Scale",16,"object-86","BIQ",NA,"SUPAMT85972"
"10",1694203137533,"08/09/2023 19:58:57",1694188737533,-4,"08/09/2023 11:58:57",142342,3,"questionnaire-uu2n",NA,31593175,9341382,NA,"complete","rlvoid","3B4YI393VFVELPY701YIAB4IHEXSSU","computer","Desktop or Laptop","Windows 10","Chrome 116.0.0.0","1920x1080","1920x963",NA,NA,0,"BIQ (Charlotte)",2,"In","BCADKEJFIGH",NA,"Spreadsheet1",1,"BIQ","Screen 3","iz3the",3,"continue","",9627.51100004768,9626.142,9627.51100004768,9627.51100004768,9626.142,9627.51100004768,1,9627.51100004768,0,0,NA,"Click To Continue","Continue Button",22,"object-73","BIQ",NA,"SUPAMT85972"
"11",1694203137533,"08/09/2023 19:58:57",1694188737533,-4,"08/09/2023 11:58:57",142342,3,"questionnaire-uu2n",NA,31593175,9341382,NA,"complete","rlvoid","3B4YI393VFVELPY701YIAB4IHEXSSU","computer","Desktop or Laptop","Windows 10","Chrome 116.0.0.0","1920x1080","1920x963",NA,NA,0,"BIQ (Charlotte)",2,"In","BCADKEJFIGH",NA,"Spreadsheet1",1,"BIQ","Screen 3","iz3the",3,"response","0",3870.327,9626.142,9627.811,3870.327,9626.142,9627.811,1,3870.327,5757.484,0,NA,"Rating Scale","Rating Scale",2,"object-53","BIQ",NA,"SUPAMT85972"
"12",1694203137533,"08/09/2023 19:58:57",1694188737533,-4,"08/09/2023 11:58:57",142342,3,"questionnaire-uu2n",NA,31593175,9341382,NA,"complete","rlvoid","3B4YI393VFVELPY701YIAB4IHEXSSU","computer","Desktop or Laptop","Windows 10","Chrome 116.0.0.0","1920x1080","1920x963",NA,NA,0,"BIQ (Charlotte)",2,"In","BCADKEJFIGH",NA,"Spreadsheet1",1,"BIQ","Screen 3","iz3the",3,"response","0",6089.165,9626.142,9628.11100019074,6089.165,9626.142,9628.11100019074,1,6089.165,3538.94600019074,0,NA,"Rating Scale","Rating Scale",9,"object-60","BIQ",NA,"SUPAMT85972"
"13",1694203137533,"08/09/2023 19:58:57",1694188737533,-4,"08/09/2023 11:58:57",142342,3,"questionnaire-uu2n",NA,31593175,9341382,NA,"complete","rlvoid","3B4YI393VFVELPY701YIAB4IHEXSSU","computer","Desktop or Laptop","Windows 10","Chrome 116.0.0.0","1920x1080","1920x963",NA,NA,0,"BIQ (Charlotte)",2,"In","BCADKEJFIGH",NA,"Spreadsheet1",1,"BIQ","Screen 3","iz3the",3,"response","4",8959.065,9626.142,9628.311,8959.065,9626.142,9628.311,1,8959.065,669.245999999999,0,NA,"Rating Scale","Rating Scale",16,"object-67","BIQ",NA,"SUPAMT85972"
"14",1694203137534,"08/09/2023 19:58:57",1694188737534,-4,"08/09/2023 11:58:57",142342,3,"questionnaire-uu2n",NA,31593175,9341382,NA,"complete","rlvoid","3B4YI393VFVELPY701YIAB4IHEXSSU","computer","Desktop or Laptop","Windows 10","Chrome 116.0.0.0","1920x1080","1920x963",NA,NA,0,"BIQ (Charlotte)",2,"In","BCADKEJFIGH",NA,"Spreadsheet1",NA,"","","",NA,"5","END",NA,NA,NA,NA,NA,NA,0,NA,NA,NA,NA,"","",NA,"","",NA,"SUPAMT85972"
"1",1694207181716,"08/09/2023 21:06:21",1694189181716,-5,"08/09/2023 11:06:21",142342,3,"questionnaire-uu2n",NA,31593583,9341405,NA,"complete","ojutlg","3DBQWDE4YCXGZA8RG94OI6KKGVHN5B","computer","Desktop or Laptop","Windows 10","Chrome 116.0.0.0","2048x1152","2048x1002",NA,NA,0,"BIQ (Charlotte)",2,"In","CDBEAFKGJHI",NA,"Spreadsheet1",NA,"","","",NA,"5","BEGIN",NA,NA,NA,NA,NA,NA,0,NA,NA,NA,NA,"","",NA,"","",NA,"SUPAMT29232"
"2",1694207230430,"08/09/2023 21:07:10",1694189230430,-5,"08/09/2023 11:07:10",142342,3,"questionnaire-uu2n",NA,31593583,9341405,NA,"complete","ojutlg","3DBQWDE4YCXGZA8RG94OI6KKGVHN5B","computer","Desktop or Laptop","Windows 10","Chrome 116.0.0.0","2048x1152","2048x1002",NA,NA,0,"BIQ (Charlotte)",2,"In","CDBEAFKGJHI",NA,"Spreadsheet1",1,"BIQ","Screen 1","9dh6eq",1,"continue","",48720.602,48716.602,48720.602,48720.602,48716.602,48720.602,1,48720.602,0,0,NA,"Click To Continue","Continue Button",23,"object-48","BIQ",NA,"SUPAMT29232"
"3",1694207230432,"08/09/2023 21:07:10",1694189230432,-5,"08/09/2023 11:07:10",142342,3,"questionnaire-uu2n",NA,31593583,9341405,NA,"complete","ojutlg","3DBQWDE4YCXGZA8RG94OI6KKGVHN5B","computer","Desktop or Laptop","Windows 10","Chrome 116.0.0.0","2048x1152","2048x1002",NA,NA,0,"BIQ (Charlotte)",2,"In","CDBEAFKGJHI",NA,"Spreadsheet1",1,"BIQ","Screen 1","9dh6eq",1,"response","6",31977.321,48716.602,48723.546,31977.321,48716.602,48723.546,1,31977.321,16746.225,0,NA,"Rating Scale","Rating Scale",3,"object-5","BIQ",NA,"SUPAMT29232"
"4",1694207230432,"08/09/2023 21:07:10",1694189230432,-5,"08/09/2023 11:07:10",142342,3,"questionnaire-uu2n",NA,31593583,9341405,NA,"complete","ojutlg","3DBQWDE4YCXGZA8RG94OI6KKGVHN5B","computer","Desktop or Laptop","Windows 10","Chrome 116.0.0.0","2048x1152","2048x1002",NA,NA,0,"BIQ (Charlotte)",2,"In","CDBEAFKGJHI",NA,"Spreadsheet1",1,"BIQ","Screen 1","9dh6eq",1,"response","7",43007.045,48716.602,48723.546,43007.045,48716.602,48723.546,1,43007.045,5716.501,0,NA,"Rating Scale","Rating Scale",10,"object-18","BIQ",NA,"SUPAMT29232"
"5",1694207230432,"08/09/2023 21:07:10",1694189230432,-5,"08/09/2023 11:07:10",142342,3,"questionnaire-uu2n",NA,31593583,9341405,NA,"complete","ojutlg","3DBQWDE4YCXGZA8RG94OI6KKGVHN5B","computer","Desktop or Laptop","Windows 10","Chrome 116.0.0.0","2048x1152","2048x1002",NA,NA,0,"BIQ (Charlotte)",2,"In","CDBEAFKGJHI",NA,"Spreadsheet1",1,"BIQ","Screen 1","9dh6eq",1,"response","0",48091.529,48716.602,48723.546,48091.529,48716.602,48723.546,1,48091.529,632.017,0,NA,"Rating Scale","Rating Scale",17,"object-80","BIQ",NA,"SUPAMT29232"
"6",1694207254778,"08/09/2023 21:07:34",1694189254778,-5,"08/09/2023 11:07:34",142342,3,"questionnaire-uu2n",NA,31593583,9341405,NA,"complete","ojutlg","3DBQWDE4YCXGZA8RG94OI6KKGVHN5B","computer","Desktop or Laptop","Windows 10","Chrome 116.0.0.0","2048x1152","2048x1002",NA,NA,0,"BIQ (Charlotte)",2,"In","CDBEAFKGJHI",NA,"Spreadsheet1",1,"BIQ","Screen 2","o21mwi",2,"continue","",24354.5999999046,24351.399,24354.5999999046,24354.5999999046,24351.399,24354.5999999046,1,24354.5999999046,0,0,NA,"Click To Continue","Continue Button",22,"object-50","BIQ",NA,"SUPAMT29232"
"7",1694207254780,"08/09/2023 21:07:34",1694189254780,-5,"08/09/2023 11:07:34",142342,3,"questionnaire-uu2n",NA,31593583,9341405,NA,"complete","ojutlg","3DBQWDE4YCXGZA8RG94OI6KKGVHN5B","computer","Desktop or Laptop","Windows 10","Chrome 116.0.0.0","2048x1152","2048x1002",NA,NA,0,"BIQ (Charlotte)",2,"In","CDBEAFKGJHI",NA,"Spreadsheet1",1,"BIQ","Screen 2","o21mwi",2,"response","7",12863.348,24351.399,24356,12863.348,24351.399,24356,1,12863.348,11492.652,0,NA,"Rating Scale","Rating Scale",2,"object-259","BIQ",NA,"SUPAMT29232"
"8",1694207254780,"08/09/2023 21:07:34",1694189254780,-5,"08/09/2023 11:07:34",142342,3,"questionnaire-uu2n",NA,31593583,9341405,NA,"complete","ojutlg","3DBQWDE4YCXGZA8RG94OI6KKGVHN5B","computer","Desktop or Laptop","Windows 10","Chrome 116.0.0.0","2048x1152","2048x1002",NA,NA,0,"BIQ (Charlotte)",2,"In","CDBEAFKGJHI",NA,"Spreadsheet1",1,"BIQ","Screen 2","o21mwi",2,"response","1",16141.596,24351.399,24356.0999999046,16141.596,24351.399,24356.0999999046,1,16141.596,8214.50399990463,0,NA,"Rating Scale","Rating Scale",9,"object-36","BIQ",NA,"SUPAMT29232"
"9",1694207254780,"08/09/2023 21:07:34",1694189254780,-5,"08/09/2023 11:07:34",142342,3,"questionnaire-uu2n",NA,31593583,9341405,NA,"complete","ojutlg","3DBQWDE4YCXGZA8RG94OI6KKGVHN5B","computer","Desktop or Laptop","Windows 10","Chrome 116.0.0.0","2048x1152","2048x1002",NA,NA,0,"BIQ (Charlotte)",2,"In","CDBEAFKGJHI",NA,"Spreadsheet1",1,"BIQ","Screen 2","o21mwi",2,"response","2",19697.81,24351.399,24356.2999999523,19697.81,24351.399,24356.2999999523,1,19697.81,4658.48999995232,0,NA,"Rating Scale","Rating Scale",16,"object-86","BIQ",NA,"SUPAMT29232"
"10",1694207267026,"08/09/2023 21:07:47",1694189267026,-5,"08/09/2023 11:07:47",142342,3,"questionnaire-uu2n",NA,31593583,9341405,NA,"complete","ojutlg","3DBQWDE4YCXGZA8RG94OI6KKGVHN5B","computer","Desktop or Laptop","Windows 10","Chrome 116.0.0.0","2048x1152","2048x1002",NA,NA,0,"BIQ (Charlotte)",2,"In","CDBEAFKGJHI",NA,"Spreadsheet1",1,"BIQ","Screen 3","iz3the",3,"continue","",12251.3009998093,12245.128,12251.3009998093,12251.3009998093,12245.128,12251.3009998093,1,12251.3009998093,0,0,NA,"Click To Continue","Continue Button",22,"object-73","BIQ",NA,"SUPAMT29232"
"11",1694207267027,"08/09/2023 21:07:47",1694189267027,-5,"08/09/2023 11:07:47",142342,3,"questionnaire-uu2n",NA,31593583,9341405,NA,"complete","ojutlg","3DBQWDE4YCXGZA8RG94OI6KKGVHN5B","computer","Desktop or Laptop","Windows 10","Chrome 116.0.0.0","2048x1152","2048x1002",NA,NA,0,"BIQ (Charlotte)",2,"In","CDBEAFKGJHI",NA,"Spreadsheet1",1,"BIQ","Screen 3","iz3the",3,"response","2",5535.462,12245.128,12252.072,5535.462,12245.128,12252.072,1,5535.462,6716.61,0,NA,"Rating Scale","Rating Scale",2,"object-53","BIQ",NA,"SUPAMT29232"
"12",1694207267028,"08/09/2023 21:07:47",1694189267028,-5,"08/09/2023 11:07:47",142342,3,"questionnaire-uu2n",NA,31593583,9341405,NA,"complete","ojutlg","3DBQWDE4YCXGZA8RG94OI6KKGVHN5B","computer","Desktop or Laptop","Windows 10","Chrome 116.0.0.0","2048x1152","2048x1002",NA,NA,0,"BIQ (Charlotte)",2,"In","CDBEAFKGJHI",NA,"Spreadsheet1",1,"BIQ","Screen 3","iz3the",3,"response","3",7883.254,12245.128,12252.072,7883.254,12245.128,12252.072,1,7883.254,4368.818,0,NA,"Rating Scale","Rating Scale",9,"object-60","BIQ",NA,"SUPAMT29232"
"13",1694207267028,"08/09/2023 21:07:47",1694189267028,-5,"08/09/2023 11:07:47",142342,3,"questionnaire-uu2n",NA,31593583,9341405,NA,"complete","ojutlg","3DBQWDE4YCXGZA8RG94OI6KKGVHN5B","computer","Desktop or Laptop","Windows 10","Chrome 116.0.0.0","2048x1152","2048x1002",NA,NA,0,"BIQ (Charlotte)",2,"In","CDBEAFKGJHI",NA,"Spreadsheet1",1,"BIQ","Screen 3","iz3the",3,"response","0",11566.063,12245.128,12252.072,11566.063,12245.128,12252.072,1,11566.063,686.009000000005,0,NA,"Rating Scale","Rating Scale",16,"object-67","BIQ",NA,"SUPAMT29232"
"14",1694207267029,"08/09/2023 21:07:47",1694189267029,-5,"08/09/2023 11:07:47",142342,3,"questionnaire-uu2n",NA,31593583,9341405,NA,"complete","ojutlg","3DBQWDE4YCXGZA8RG94OI6KKGVHN5B","computer","Desktop or Laptop","Windows 10","Chrome 116.0.0.0","2048x1152","2048x1002",NA,NA,0,"BIQ (Charlotte)",2,"In","CDBEAFKGJHI",NA,"Spreadsheet1",NA,"","","",NA,"5","END",NA,NA,NA,NA,NA,NA,0,NA,NA,NA,NA,"","",NA,"","",NA,"SUPAMT29232"
"1",1694203921012,"08/09/2023 20:12:01",1694189521012,-4,"08/09/2023 12:12:01",142342,3,"questionnaire-uu2n",NA,31593874,9341491,NA,"complete","fbadmi","3MD9PLUKKODE6OSGNXB47ARFHUPZNU","computer","Desktop or Laptop","Windows 10","Chrome 116.0.0.0","1536x864","1536x707",NA,NA,0,"BIQ (Charlotte)",2,"In","DECFBGAHKIJ",NA,"Spreadsheet1",NA,"","","",NA,"5","BEGIN",NA,NA,NA,NA,NA,NA,0,NA,NA,NA,NA,"","",NA,"","",NA,"SUPAMT55264"
"2",1694203964482,"08/09/2023 20:12:44",1694189564482,-4,"08/09/2023 12:12:44",142342,3,"questionnaire-uu2n",NA,31593874,9341491,NA,"complete","fbadmi","3MD9PLUKKODE6OSGNXB47ARFHUPZNU","computer","Desktop or Laptop","Windows 10","Chrome 116.0.0.0","1536x864","1536x707",NA,NA,0,"BIQ (Charlotte)",2,"In","DECFBGAHKIJ",NA,"Spreadsheet1",1,"BIQ","Screen 1","9dh6eq",1,"continue","",43485.598,43468.9,43485.598,43485.598,43468.9,43485.598,1,43485.598,0,0,NA,"Click To Continue","Continue Button",23,"object-48","BIQ",NA,"SUPAMT55264"
"3",1694203964485,"08/09/2023 20:12:44",1694189564485,-4,"08/09/2023 12:12:44",142342,3,"questionnaire-uu2n",NA,31593874,9341491,NA,"complete","fbadmi","3MD9PLUKKODE6OSGNXB47ARFHUPZNU","computer","Desktop or Laptop","Windows 10","Chrome 116.0.0.0","1536x864","1536x707",NA,NA,0,"BIQ (Charlotte)",2,"In","DECFBGAHKIJ",NA,"Spreadsheet1",1,"BIQ","Screen 1","9dh6eq",1,"response","6",18001.497,43468.9,43485.598,18001.497,43468.9,43485.598,1,18001.497,25484.101,0,NA,"Rating Scale","Rating Scale",3,"object-5","BIQ",NA,"SUPAMT55264"
"4",1694203964486,"08/09/2023 20:12:44",1694189564486,-4,"08/09/2023 12:12:44",142342,3,"questionnaire-uu2n",NA,31593874,9341491,NA,"complete","fbadmi","3MD9PLUKKODE6OSGNXB47ARFHUPZNU","computer","Desktop or Laptop","Windows 10","Chrome 116.0.0.0","1536x864","1536x707",NA,NA,0,"BIQ (Charlotte)",2,"In","DECFBGAHKIJ",NA,"Spreadsheet1",1,"BIQ","Screen 1","9dh6eq",1,"response","6",36485.226,43468.9,43485.598,36485.226,43468.9,43485.598,1,36485.226,7000.37200000001,0,NA,"Rating Scale","Rating Scale",10,"object-18","BIQ",NA,"SUPAMT55264"
"5",1694203964486,"08/09/2023 20:12:44",1694189564486,-4,"08/09/2023 12:12:44",142342,3,"questionnaire-uu2n",NA,31593874,9341491,NA,"complete","fbadmi","3MD9PLUKKODE6OSGNXB47ARFHUPZNU","computer","Desktop or Laptop","Windows 10","Chrome 116.0.0.0","1536x864","1536x707",NA,NA,0,"BIQ (Charlotte)",2,"In","DECFBGAHKIJ",NA,"Spreadsheet1",1,"BIQ","Screen 1","9dh6eq",1,"response","2",42835.478,43468.9,43485.598,42835.478,43468.9,43485.598,1,42835.478,650.12000000001,0,NA,"Rating Scale","Rating Scale",17,"object-80","BIQ",NA,"SUPAMT55264"
"6",1694203994457,"08/09/2023 20:13:14",1694189594457,-4,"08/09/2023 12:13:14",142342,3,"questionnaire-uu2n",NA,31593874,9341491,NA,"complete","fbadmi","3MD9PLUKKODE6OSGNXB47ARFHUPZNU","computer","Desktop or Laptop","Windows 10","Chrome 116.0.0.0","1536x864","1536x707",NA,NA,0,"BIQ (Charlotte)",2,"In","DECFBGAHKIJ",NA,"Spreadsheet1",1,"BIQ","Screen 2","o21mwi",2,"continue","",29995.5980000004,29984.691,29995.5980000004,29995.5980000004,29984.691,29995.5980000004,1,29995.5980000004,0,0,NA,"Click To Continue","Continue Button",22,"object-50","BIQ",NA,"SUPAMT55264"
"7",1694203994460,"08/09/2023 20:13:14",1694189594460,-4,"08/09/2023 12:13:14",142342,3,"questionnaire-uu2n",NA,31593874,9341491,NA,"complete","fbadmi","3MD9PLUKKODE6OSGNXB47ARFHUPZNU","computer","Desktop or Laptop","Windows 10","Chrome 116.0.0.0","1536x864","1536x707",NA,NA,0,"BIQ (Charlotte)",2,"In","DECFBGAHKIJ",NA,"Spreadsheet1",1,"BIQ","Screen 2","o21mwi",2,"response","7",10017.163,29984.691,29999.4980000007,10017.163,29984.691,29999.4980000007,1,10017.163,19982.3350000007,0,NA,"Rating Scale","Rating Scale",2,"object-259","BIQ",NA,"SUPAMT55264"
"8",1694203994462,"08/09/2023 20:13:14",1694189594462,-4,"08/09/2023 12:13:14",142342,3,"questionnaire-uu2n",NA,31593874,9341491,NA,"complete","fbadmi","3MD9PLUKKODE6OSGNXB47ARFHUPZNU","computer","Desktop or Laptop","Windows 10","Chrome 116.0.0.0","1536x864","1536x707",NA,NA,0,"BIQ (Charlotte)",2,"In","DECFBGAHKIJ",NA,"Spreadsheet1",1,"BIQ","Screen 2","o21mwi",2,"response","1",15583.952,29984.691,30000.5980000004,15583.952,29984.691,30000.5980000004,1,15583.952,14416.6460000004,0,NA,"Rating Scale","Rating Scale",9,"object-36","BIQ",NA,"SUPAMT55264"
"9",1694203994463,"08/09/2023 20:13:14",1694189594463,-4,"08/09/2023 12:13:14",142342,3,"questionnaire-uu2n",NA,31593874,9341491,NA,"complete","fbadmi","3MD9PLUKKODE6OSGNXB47ARFHUPZNU","computer","Desktop or Laptop","Windows 10","Chrome 116.0.0.0","1536x864","1536x707",NA,NA,0,"BIQ (Charlotte)",2,"In","DECFBGAHKIJ",NA,"Spreadsheet1",1,"BIQ","Screen 2","o21mwi",2,"response","2",29434.587,29984.691,30001.466,29434.587,29984.691,30001.466,1,29434.587,566.879000000015,0,NA,"Rating Scale","Rating Scale",16,"object-86","BIQ",NA,"SUPAMT55264"
"10",1694204014715,"08/09/2023 20:13:34",1694189614715,-4,"08/09/2023 12:13:34",142342,3,"questionnaire-uu2n",NA,31593874,9341491,NA,"complete","fbadmi","3MD9PLUKKODE6OSGNXB47ARFHUPZNU","computer","Desktop or Laptop","Windows 10","Chrome 116.0.0.0","1536x864","1536x707",NA,NA,0,"BIQ (Charlotte)",2,"In","DECFBGAHKIJ",NA,"Spreadsheet1",1,"BIQ","Screen 3","iz3the",3,"continue","",20267.647,20250.88,20267.647,20267.647,20250.88,20267.647,1,20267.647,0,0,NA,"Click To Continue","Continue Button",22,"object-73","BIQ",NA,"SUPAMT55264"
"11",1694204014717,"08/09/2023 20:13:34",1694189614717,-4,"08/09/2023 12:13:34",142342,3,"questionnaire-uu2n",NA,31593874,9341491,NA,"complete","fbadmi","3MD9PLUKKODE6OSGNXB47ARFHUPZNU","computer","Desktop or Laptop","Windows 10","Chrome 116.0.0.0","1536x864","1536x707",NA,NA,0,"BIQ (Charlotte)",2,"In","DECFBGAHKIJ",NA,"Spreadsheet1",1,"BIQ","Screen 3","iz3the",3,"response","1",13733.84,20250.88,20267.647,13733.84,20250.88,20267.647,1,13733.84,6533.80700000002,0,NA,"Rating Scale","Rating Scale",2,"object-53","BIQ",NA,"SUPAMT55264"
"12",1694204014717,"08/09/2023 20:13:34",1694189614717,-4,"08/09/2023 12:13:34",142342,3,"questionnaire-uu2n",NA,31593874,9341491,NA,"complete","fbadmi","3MD9PLUKKODE6OSGNXB47ARFHUPZNU","computer","Desktop or Laptop","Windows 10","Chrome 116.0.0.0","1536x864","1536x707",NA,NA,0,"BIQ (Charlotte)",2,"In","DECFBGAHKIJ",NA,"Spreadsheet1",1,"BIQ","Screen 3","iz3the",3,"response","1",17367.461,20250.88,20267.647,17367.461,20250.88,20267.647,1,17367.461,2900.18600000002,0,NA,"Rating Scale","Rating Scale",9,"object-60","BIQ",NA,"SUPAMT55264"
"13",1694204014718,"08/09/2023 20:13:34",1694189614718,-4,"08/09/2023 12:13:34",142342,3,"questionnaire-uu2n",NA,31593874,9341491,NA,"complete","fbadmi","3MD9PLUKKODE6OSGNXB47ARFHUPZNU","computer","Desktop or Laptop","Windows 10","Chrome 116.0.0.0","1536x864","1536x707",NA,NA,0,"BIQ (Charlotte)",2,"In","DECFBGAHKIJ",NA,"Spreadsheet1",1,"BIQ","Screen 3","iz3the",3,"response","1",19517.43,20250.88,20267.647,19517.43,20250.88,20267.647,1,19517.43,750.217000000019,0,NA,"Rating Scale","Rating Scale",16,"object-67","BIQ",NA,"SUPAMT55264"
"14",1694204014720,"08/09/2023 20:13:34",1694189614720,-4,"08/09/2023 12:13:34",142342,3,"questionnaire-uu2n",NA,31593874,9341491,NA,"complete","fbadmi","3MD9PLUKKODE6OSGNXB47ARFHUPZNU","computer","Desktop or Laptop","Windows 10","Chrome 116.0.0.0","1536x864","1536x707",NA,NA,0,"BIQ (Charlotte)",2,"In","DECFBGAHKIJ",NA,"Spreadsheet1",NA,"","","",NA,"5","END",NA,NA,NA,NA,NA,NA,0,NA,NA,NA,NA,"","",NA,"","",NA,"SUPAMT55264"
"1",1694204671364,"08/09/2023 20:24:31",1694190271364,-4,"08/09/2023 12:24:31",142342,3,"questionnaire-uu2n",NA,31594274,9341565,NA,"complete","rkeeiv","3WYGZ5XF32EGX6LZVSPGJPD82O1KSW","computer","Desktop or Laptop","Windows 10","Chrome 116.0.0.0","1366x768","1366x619",NA,NA,0,"BIQ (Charlotte)",2,"In","EFDGCHBIAJK",NA,"Spreadsheet1",NA,"","","",NA,"5","BEGIN",NA,NA,NA,NA,NA,NA,0,NA,NA,NA,NA,"","",NA,"","",NA,"SUPAMT94886"
"2",1694204676429,"08/09/2023 20:24:36",1694190276429,-4,"08/09/2023 12:24:36",142342,3,"questionnaire-uu2n",NA,31594274,9341565,NA,"complete","rkeeiv","3WYGZ5XF32EGX6LZVSPGJPD82O1KSW","computer","Desktop or Laptop","Windows 10","Chrome 116.0.0.0","1366x768","1366x619",NA,NA,0,"BIQ (Charlotte)",2,"In","EFDGCHBIAJK",NA,"Spreadsheet1",1,"BIQ","Screen 1","9dh6eq",1,"continue","",5074,5062.5,5074,5074,5062.5,5074,1,5074,0,0,NA,"Click To Continue","Continue Button",23,"object-48","BIQ",NA,"SUPAMT94886"
"3",1694204676430,"08/09/2023 20:24:36",1694190276430,-4,"08/09/2023 12:24:36",142342,3,"questionnaire-uu2n",NA,31594274,9341565,NA,"complete","rkeeiv","3WYGZ5XF32EGX6LZVSPGJPD82O1KSW","computer","Desktop or Laptop","Windows 10","Chrome 116.0.0.0","1366x768","1366x619",NA,NA,0,"BIQ (Charlotte)",2,"In","EFDGCHBIAJK",NA,"Spreadsheet1",1,"BIQ","Screen 1","9dh6eq",1,"response","6",2093.75,5062.5,5076,2093.75,5062.5,5076,1,2093.75,2982.25,0,NA,"Rating Scale","Rating Scale",3,"object-5","BIQ",NA,"SUPAMT94886"
"4",1694204676431,"08/09/2023 20:24:36",1694190276431,-4,"08/09/2023 12:24:36",142342,3,"questionnaire-uu2n",NA,31594274,9341565,NA,"complete","rkeeiv","3WYGZ5XF32EGX6LZVSPGJPD82O1KSW","computer","Desktop or Laptop","Windows 10","Chrome 116.0.0.0","1366x768","1366x619",NA,NA,0,"BIQ (Charlotte)",2,"In","EFDGCHBIAJK",NA,"Spreadsheet1",1,"BIQ","Screen 1","9dh6eq",1,"response","7",3250,5062.5,5077,3250,5062.5,5077,1,3250,1827,0,NA,"Rating Scale","Rating Scale",10,"object-18","BIQ",NA,"SUPAMT94886"
"5",1694204676432,"08/09/2023 20:24:36",1694190276432,-4,"08/09/2023 12:24:36",142342,3,"questionnaire-uu2n",NA,31594274,9341565,NA,"complete","rkeeiv","3WYGZ5XF32EGX6LZVSPGJPD82O1KSW","computer","Desktop or Laptop","Windows 10","Chrome 116.0.0.0","1366x768","1366x619",NA,NA,0,"BIQ (Charlotte)",2,"In","EFDGCHBIAJK",NA,"Spreadsheet1",1,"BIQ","Screen 1","9dh6eq",1,"response","6",4125,5062.5,5077,4125,5062.5,5077,1,4125,952,0,NA,"Rating Scale","Rating Scale",17,"object-80","BIQ",NA,"SUPAMT94886"
"6",1694204681242,"08/09/2023 20:24:41",1694190281242,-4,"08/09/2023 12:24:41",142342,3,"questionnaire-uu2n",NA,31594274,9341565,NA,"complete","rkeeiv","3WYGZ5XF32EGX6LZVSPGJPD82O1KSW","computer","Desktop or Laptop","Windows 10","Chrome 116.0.0.0","1366x768","1366x619",NA,NA,0,"BIQ (Charlotte)",2,"In","EFDGCHBIAJK",NA,"Spreadsheet1",1,"BIQ","Screen 2","o21mwi",2,"continue","",4825.5,4812.5,4825.5,4825.5,4812.5,4825.5,1,4825.5,0,0,NA,"Click To Continue","Continue Button",22,"object-50","BIQ",NA,"SUPAMT94886"
"7",1694204681242,"08/09/2023 20:24:41",1694190281242,-4,"08/09/2023 12:24:41",142342,3,"questionnaire-uu2n",NA,31594274,9341565,NA,"complete","rkeeiv","3WYGZ5XF32EGX6LZVSPGJPD82O1KSW","computer","Desktop or Laptop","Windows 10","Chrome 116.0.0.0","1366x768","1366x619",NA,NA,0,"BIQ (Charlotte)",2,"In","EFDGCHBIAJK",NA,"Spreadsheet1",1,"BIQ","Screen 2","o21mwi",2,"response","6",1843.75,4812.5,4825.5,1843.75,4812.5,4825.5,1,1843.75,2981.75,0,NA,"Rating Scale","Rating Scale",2,"object-259","BIQ",NA,"SUPAMT94886"
