getAnswerDur,showChoiceDur,showResultDur,isiDur,itiDur,iriDur,rpeHighMax,rpeLowMax,pCongruent,maxIncongInARow,blockCond,participant,session,completion,condition,date,expName,psychopyVersion,OS,frameRate,key_resp_2.keys,key_resp_2.rt,key_resp_10.keys,key_resp_10.rt,key_resp_8.keys,key_resp_8.rt,rating_all_t.response,rating_all_t.rt,rating_all_t.tStart,rndRatTrial.thisRepN,rndRatTrial.thisTrialN,rndRatTrial.thisN,rndRatTrial.thisIndex,rndRatTrial.ran,Emo,Labs,Labs2,key_resp_11.keys,key_resp_11.rt,rating_all_Xt.response,rating_all_Xt.rt,rating_all_Xt.tStart,rndRatXTrial.thisRepN,rndRatXTrial.thisTrialN,rndRatXTrial.thisN,rndRatXTrial.thisIndex,rndRatXTrial.ran,key_resp_9.keys,key_resp_9.rt,rating_all.response,rating_all.rt,rating_all.tStart,rndRat1.thisRepN,rndRat1.thisTrialN,rndRat1.thisN,rndRat1.thisIndex,rndRat1.ran,key_resp_3.keys,key_resp_3.rt,key_resp_4.keys,key_resp_4.rt,rating_alt.response,rating_alt.rt,AltC.thisRepN,AltC.thisTrialN,AltC.thisN,AltC.thisIndex,AltC.ran,alt_choices,pic_choices,TopAlt_Choice,rating_all_X.response,rating_all_X.rt,rating_all_X.tStart,rndRat2.thisRepN,rndRat2.thisTrialN,rndRat2.thisN,rndRat2.thisIndex,rndRat2.ran,key_resp_5.keys,key_resp_5.rt,rndRat3.thisRepN,rndRat3.thisTrialN,rndRat3.thisN,rndRat3.thisIndex,rndRat3.ran,key_resp_6.keys,key_resp_6.rt,rating_alt_2.response,rating_alt_2.rt,AltC2.thisRepN,AltC2.thisTrialN,AltC2.thisN,AltC2.thisIndex,AltC2.ran,alt_choices2,pic_choices2,TopAlt_Choice2,rndRat4.thisRepN,rndRat4.thisTrialN,rndRat4.thisN,rndRat4.thisIndex,rndRat4.ran,key_resp_7.keys,key_resp_7.rt,instrLoop.thisRepN,instrLoop.thisTrialN,instrLoop.thisN,instrLoop.thisIndex,instrLoop.ran,currSlide,currImage,currText,OC2Loop.thisRepN,OC2Loop.thisTrialN,OC2Loop.thisN,OC2Loop.thisIndex,OC2Loop.ran,targetHappiness,isHappyBlock,isCongruent,isWinOnTop,lastHappyRating,diff,sumDiff,RPE,winAmount,loseAmount,certainAmount,choice,outcome,outcomeAmount,currentWinnings,choiceKey.keys,rndRat5.thisRepN,rndRat5.thisTrialN,rndRat5.thisN,rndRat5.thisIndex,rndRat5.ran,trialLoop.thisRepN,trialLoop.thisTrialN,trialLoop.thisN,trialLoop.thisIndex,trialLoop.ran,highAmount,finalWinnings,cashBonus,key_resp_12.keys,key_resp_12.rt,logWinningsLoop.thisRepN,logWinningsLoop.thisTrialN,logWinningsLoop.thisN,logWinningsLoop.thisIndex,logWinningsLoop.ran
3,4,1,1,2,30,5,0.03,0.7,3,Blocks_RestRandom.xlsx,SUPAMT96766,35L9RVQFCUH5ATCVECHJLYF4V36UH4,33D26D41-1918-46A7-973B-192AC1301302,0,2023-09-22_07h40.37.144,Pilot_VExplicitOC_RG_AMT_XS,2022.2.5,Win32,16.3821631,NA,NA,NA,NA,NA,NA,NA,NA,NA,NA,NA,NA,NA,NA,NA,NA,NA,NA,NA,NA,NA,NA,NA,NA,NA,NA,NA,NA,NA,NA,NA,NA,NA,NA,NA,NA,NA,NA,NA,NA,NA,NA,NA,NA,NA,NA,NA,NA,NA,NA,NA,NA,NA,NA,NA,NA,NA,NA,NA,NA,NA,NA,NA,NA,NA,NA,NA,NA,NA,NA,NA,NA,NA,NA,NA,NA,NA,NA,NA,NA,NA,NA,NA,NA,NA,NA,NA,NA,NA,NA,NA,NA,NA,NA,NA,NA,NA,NA,NA,NA,NA,NA,NA,NA,NA,NA,NA,NA,NA,NA,NA,NA,NA,NA,NA,NA,NA,NA,NA,NA,NA,NA,NA,NA,NA,NA,NA,NA,NA,NA,NA,NA,NA,NA
NA,NA,NA,NA,NA,NA,NA,NA,NA,NA,NA,SUPAMT96766,35L9RVQFCUH5ATCVECHJLYF4V36UH4,33D26D41-1918-46A7-973B-192AC1301302,0,2023-09-22_07h40.37.144,Pilot_VExplicitOC_RG_AMT_XS,2022.2.5,Win32,16.3821631,space,1.9808,NA,NA,NA,NA,NA,NA,NA,NA,NA,NA,NA,NA,NA,NA,NA,NA,NA,NA,NA,NA,NA,NA,NA,NA,NA,NA,NA,NA,NA,NA,NA,NA,NA,NA,NA,NA,NA,NA,NA,NA,NA,NA,NA,NA,NA,NA,NA,NA,NA,NA,NA,NA,NA,NA,NA,NA,NA,NA,NA,NA,NA,NA,NA,NA,NA,NA,NA,NA,NA,NA,NA,NA,NA,NA,NA,NA,NA,NA,NA,NA,NA,NA,NA,NA,NA,NA,NA,NA,NA,NA,NA,NA,NA,NA,NA,NA,NA,NA,NA,NA,NA,NA,NA,NA,NA,NA,NA,NA,NA,NA,NA,NA,NA,NA,NA,NA,NA,NA,NA,NA,NA,NA,NA,NA,NA,NA,NA,NA,NA,NA,NA,NA
NA,NA,NA,NA,NA,NA,NA,NA,NA,NA,NA,SUPAMT96766,35L9RVQFCUH5ATCVECHJLYF4V36UH4,33D26D41-1918-46A7-973B-192AC1301302,0,2023-09-22_07h40.37.144,Pilot_VExplicitOC_RG_AMT_XS,2022.2.5,Win32,16.3821631,NA,NA,space,2.2515,NA,NA,NA,NA,NA,NA,NA,NA,NA,NA,NA,NA,NA,NA,NA,NA,NA,NA,NA,NA,NA,NA,NA,NA,NA,NA,NA,NA,NA,NA,NA,NA,NA,NA,NA,NA,NA,NA,NA,NA,NA,NA,NA,NA,NA,NA,NA,NA,NA,NA,NA,NA,NA,NA,NA,NA,NA,NA,NA,NA,NA,NA,NA,NA,NA,NA,NA,NA,NA,NA,NA,NA,NA,NA,NA,NA,NA,NA,NA,NA,NA,NA,NA,NA,NA,NA,NA,NA,NA,NA,NA,NA,NA,NA,NA,NA,NA,NA,NA,NA,NA,NA,NA,NA,NA,NA,NA,NA,NA,NA,NA,NA,NA,NA,NA,NA,NA,NA,NA,NA,NA,NA,NA,NA,NA,NA,NA,NA,NA,NA
NA,NA,NA,NA,NA,NA,NA,NA,NA,NA,NA,SUPAMT96766,35L9RVQFCUH5ATCVECHJLYF4V36UH4,33D26D41-1918-46A7-973B-192AC1301302,0,2023-09-22_07h40.37.144,Pilot_VExplicitOC_RG_AMT_XS,2022.2.5,Win32,16.3821631,NA,NA,NA,NA,space,1.1234,NA,NA,NA,NA,NA,NA,NA,NA,NA,NA,NA,NA,NA,NA,NA,NA,NA,NA,NA,NA,NA,NA,NA,NA,NA,NA,NA,NA,NA,NA,NA,NA,NA,NA,NA,NA,NA,NA,NA,NA,NA,NA,NA,NA,NA,NA,NA,NA,NA,NA,NA,NA,NA,NA,NA,NA,NA,NA,NA,NA,NA,NA,NA,NA,NA,NA,NA,NA,NA,NA,NA,NA,NA,NA,NA,NA,NA,NA,NA,NA,NA,NA,NA,NA,NA,NA,NA,NA,NA,NA,NA,NA,NA,NA,NA,NA,NA,NA,NA,NA,NA,NA,NA,NA,NA,NA,NA,NA,NA,NA,NA,NA,NA,NA,NA,NA,NA,NA,NA,NA,NA,NA,NA,NA,NA,NA,NA,NA
NA,NA,NA,NA,NA,NA,NA,NA,NA,NA,NA,SUPAMT96766,35L9RVQFCUH5ATCVECHJLYF4V36UH4,33D26D41-1918-46A7-973B-192AC1301302,0,2023-09-22_07h40.37.144,Pilot_VExplicitOC_RG_AMT_XS,2022.2.5,Win32,16.3821631,NA,NA,NA,NA,NA,NA,1.822916667,3.9167,2.0736,0,0,0,2,1,bored,"bored, not bored","more bored, less bored",NA,NA,NA,NA,NA,NA,NA,NA,NA,NA,NA,NA,NA,NA,NA,NA,NA,NA,NA,NA,NA,NA,NA,NA,NA,NA,NA,NA,NA,NA,NA,NA,NA,NA,NA,NA,NA,NA,NA,NA,NA,NA,NA,NA,NA,NA,NA,NA,NA,NA,NA,NA,NA,NA,NA,NA,NA,NA,NA,NA,NA,NA,NA,NA,NA,NA,NA,NA,NA,NA,NA,NA,NA,NA,NA,NA,NA,NA,NA,NA,NA,NA,NA,NA,NA,NA,NA,NA,NA,NA,NA,NA,NA,NA,NA,NA,NA,NA,NA,NA,NA,NA,NA,NA,NA,NA,NA,NA,NA,NA,NA,NA,NA,NA,NA,NA,NA
NA,NA,NA,NA,NA,NA,NA,NA,NA,NA,NA,SUPAMT96766,35L9RVQFCUH5ATCVECHJLYF4V36UH4,33D26D41-1918-46A7-973B-192AC1301302,0,2023-09-22_07h40.37.144,Pilot_VExplicitOC_RG_AMT_XS,2022.2.5,Win32,16.3821631,NA,NA,NA,NA,NA,NA,-100,3.8396,2.0566,0,1,1,1,1,frustrated,"frustrated, not frustrated","more frustrated, less frustrated",NA,NA,NA,NA,NA,NA,NA,NA,NA,NA,NA,NA,NA,NA,NA,NA,NA,NA,NA,NA,NA,NA,NA,NA,NA,NA,NA,NA,NA,NA,NA,NA,NA,NA,NA,NA,NA,NA,NA,NA,NA,NA,NA,NA,NA,NA,NA,NA,NA,NA,NA,NA,NA,NA,NA,NA,NA,NA,NA,NA,NA,NA,NA,NA,NA,NA,NA,NA,NA,NA,NA,NA,NA,NA,NA,NA,NA,NA,NA,NA,NA,NA,NA,NA,NA,NA,NA,NA,NA,NA,NA,NA,NA,NA,NA,NA,NA,NA,NA,NA,NA,NA,NA,NA,NA,NA,NA,NA,NA,NA,NA,NA,NA,NA,NA,NA,NA
NA,NA,NA,NA,NA,NA,NA,NA,NA,NA,NA,SUPAMT96766,35L9RVQFCUH5ATCVECHJLYF4V36UH4,33D26D41-1918-46A7-973B-192AC1301302,0,2023-09-22_07h40.37.144,Pilot_VExplicitOC_RG_AMT_XS,2022.2.5,Win32,16.3821631,NA,NA,NA,NA,NA,NA,100,3.6937,2.0488,0,2,2,0,1,happy,"unhappy, happy","less happy, more happy",NA,NA,NA,NA,NA,NA,NA,NA,NA,NA,NA,NA,NA,NA,NA,NA,NA,NA,NA,NA,NA,NA,NA,NA,NA,NA,NA,NA,NA,NA,NA,NA,NA,NA,NA,NA,NA,NA,NA,NA,NA,NA,NA,NA,NA,NA,NA,NA,NA,NA,NA,NA,NA,NA,NA,NA,NA,NA,NA,NA,NA,NA,NA,NA,NA,NA,NA,NA,NA,NA,NA,NA,NA,NA,NA,NA,NA,NA,NA,NA,NA,NA,NA,NA,NA,NA,NA,NA,NA,NA,NA,NA,NA,NA,NA,NA,NA,NA,NA,NA,NA,NA,NA,NA,NA,NA,NA,NA,NA,NA,NA,NA,NA,NA,NA,NA,NA
NA,NA,NA,NA,NA,NA,NA,NA,NA,NA,NA,SUPAMT96766,35L9RVQFCUH5ATCVECHJLYF4V36UH4,33D26D41-1918-46A7-973B-192AC1301302,0,2023-09-22_07h40.37.144,Pilot_VExplicitOC_RG_AMT_XS,2022.2.5,Win32,16.3821631,NA,NA,NA,NA,NA,NA,NA,NA,NA,NA,NA,NA,NA,NA,NA,NA,NA,space,1.073,NA,NA,NA,NA,NA,NA,NA,NA,NA,NA,NA,NA,NA,NA,NA,NA,NA,NA,NA,NA,NA,NA,NA,NA,NA,NA,NA,NA,NA,NA,NA,NA,NA,NA,NA,NA,NA,NA,NA,NA,NA,NA,NA,NA,NA,NA,NA,NA,NA,NA,NA,NA,NA,NA,NA,NA,NA,NA,NA,NA,NA,NA,NA,NA,NA,NA,NA,NA,NA,NA,NA,NA,NA,NA,NA,NA,NA,NA,NA,NA,NA,NA,NA,NA,NA,NA,NA,NA,NA,NA,NA,NA,NA,NA,NA,NA,NA,NA,NA,NA,NA,NA,NA,NA,NA,NA,NA,NA,NA,NA,NA,NA,NA,NA,NA
NA,NA,NA,NA,NA,NA,NA,NA,NA,NA,NA,SUPAMT96766,35L9RVQFCUH5ATCVECHJLYF4V36UH4,33D26D41-1918-46A7-973B-192AC1301302,0,2023-09-22_07h40.37.144,Pilot_VExplicitOC_RG_AMT_XS,2022.2.5,Win32,16.3821631,NA,NA,NA,NA,NA,NA,NA,NA,NA,NA,NA,NA,NA,NA,happy,"unhappy, happy","less happy, more happy",NA,NA,56.51041667,4.1616,2.0353,0,0,0,0,1,NA,NA,NA,NA,NA,NA,NA,NA,NA,NA,NA,NA,NA,NA,NA,NA,NA,NA,NA,NA,NA,NA,NA,NA,NA,NA,NA,NA,NA,NA,NA,NA,NA,NA,NA,NA,NA,NA,NA,NA,NA,NA,NA,NA,NA,NA,NA,NA,NA,NA,NA,NA,NA,NA,NA,NA,NA,NA,NA,NA,NA,NA,NA,NA,NA,NA,NA,NA,NA,NA,NA,NA,NA,NA,NA,NA,NA,NA,NA,NA,NA,NA,NA,NA,NA,NA,NA,NA,NA,NA,NA,NA,NA,NA,NA,NA,NA,NA,NA,NA,NA,NA,NA,NA,NA,NA,NA
NA,NA,NA,NA,NA,NA,NA,NA,NA,NA,NA,SUPAMT96766,35L9RVQFCUH5ATCVECHJLYF4V36UH4,33D26D41-1918-46A7-973B-192AC1301302,0,2023-09-22_07h40.37.144,Pilot_VExplicitOC_RG_AMT_XS,2022.2.5,Win32,16.3821631,NA,NA,NA,NA,NA,NA,NA,NA,NA,NA,NA,NA,NA,NA,frustrated,"frustrated, not frustrated","more frustrated, less frustrated",NA,NA,-59.375,4.7613,2.0119,0,1,1,1,1,NA,NA,NA,NA,NA,NA,NA,NA,NA,NA,NA,NA,NA,NA,NA,NA,NA,NA,NA,NA,NA,NA,NA,NA,NA,NA,NA,NA,NA,NA,NA,NA,NA,NA,NA,NA,NA,NA,NA,NA,NA,NA,NA,NA,NA,NA,NA,NA,NA,NA,NA,NA,NA,NA,NA,NA,NA,NA,NA,NA,NA,NA,NA,NA,NA,NA,NA,NA,NA,NA,NA,NA,NA,NA,NA,NA,NA,NA,NA,NA,NA,NA,NA,NA,NA,NA,NA,NA,NA,NA,NA,NA,NA,NA,NA,NA,NA,NA,NA,NA,NA,NA,NA,NA,NA,NA,NA
NA,NA,NA,NA,NA,NA,NA,NA,NA,NA,NA,SUPAMT96766,35L9RVQFCUH5ATCVECHJLYF4V36UH4,33D26D41-1918-46A7-973B-192AC1301302,0,2023-09-22_07h40.37.144,Pilot_VExplicitOC_RG_AMT_XS,2022.2.5,Win32,16.3821631,NA,NA,NA,NA,NA,NA,NA,NA,NA,NA,NA,NA,NA,NA,bored,"bored, not bored","more bored, less bored",NA,NA,83.85416667,3.9313,2.0194,0,2,2,2,1,NA,NA,NA,NA,NA,NA,NA,NA,NA,NA,NA,NA,NA,NA,NA,NA,NA,NA,NA,NA,NA,NA,NA,NA,NA,NA,NA,NA,NA,NA,NA,NA,NA,NA,NA,NA,NA,NA,NA,NA,NA,NA,NA,NA,NA,NA,NA,NA,NA,NA,NA,NA,NA,NA,NA,NA,NA,NA,NA,NA,NA,NA,NA,NA,NA,NA,NA,NA,NA,NA,NA,NA,NA,NA,NA,NA,NA,NA,NA,NA,NA,NA,NA,NA,NA,NA,NA,NA,NA,NA,NA,NA,NA,NA,NA,NA,NA,NA,NA,NA,NA,NA,NA,NA,NA,NA,NA
NA,NA,NA,NA,NA,NA,NA,NA,NA,NA,NA,SUPAMT96766,35L9RVQFCUH5ATCVECHJLYF4V36UH4,33D26D41-1918-46A7-973B-192AC1301302,0,2023-09-22_07h40.37.144,Pilot_VExplicitOC_RG_AMT_XS,2022.2.5,Win32,16.3821631,NA,NA,NA,NA,NA,NA,NA,NA,NA,NA,NA,NA,NA,NA,NA,NA,NA,NA,NA,NA,NA,NA,NA,NA,NA,NA,NA,space,1.1288,NA,NA,NA,NA,NA,NA,NA,NA,NA,NA,NA,NA,NA,NA,NA,NA,NA,NA,NA,NA,NA,NA,NA,NA,NA,NA,NA,NA,NA,NA,NA,NA,NA,NA,NA,NA,NA,NA,NA,NA,NA,NA,NA,NA,NA,NA,NA,NA,NA,NA,NA,NA,NA,NA,NA,NA,NA,NA,NA,NA,NA,NA,NA,NA,NA,NA,NA,NA,NA,NA,NA,NA,NA,NA,NA,NA,NA,NA,NA,NA,NA,NA,NA,NA,NA,NA,NA,NA,NA,NA,NA,NA,NA,NA,NA,NA,NA,NA,NA,NA,NA,NA,NA,NA,NA
NA,NA,NA,NA,NA,NA,NA,NA,NA,NA,NA,SUPAMT96766,35L9RVQFCUH5ATCVECHJLYF4V36UH4,33D26D41-1918-46A7-973B-192AC1301302,0,2023-09-22_07h40.37.144,Pilot_VExplicitOC_RG_AMT_XS,2022.2.5,Win32,16.3821631,NA,NA,NA,NA,NA,NA,NA,NA,NA,NA,NA,NA,NA,NA,happy,"unhappy, happy","less happy, more happy",NA,NA,NA,NA,NA,NA,NA,NA,NA,NA,NA,NA,73.95833333,3.4206,2.0553,0,0,0,0,1,NA,NA,NA,NA,NA,NA,NA,NA,NA,NA,NA,NA,NA,NA,NA,NA,NA,NA,NA,NA,NA,NA,NA,NA,NA,NA,NA,NA,NA,NA,NA,NA,NA,NA,NA,NA,NA,NA,NA,NA,NA,NA,NA,NA,NA,NA,NA,NA,NA,NA,NA,NA,NA,NA,NA,NA,NA,NA,NA,NA,NA,NA,NA,NA,NA,NA,NA,NA,NA,NA,NA,NA,NA,NA,NA,NA,NA,NA,NA,NA,NA,NA,NA,NA,NA,NA,NA,NA,NA,NA,NA,NA,NA,NA,NA,NA,NA
NA,NA,NA,NA,NA,NA,NA,NA,NA,NA,NA,SUPAMT96766,35L9RVQFCUH5ATCVECHJLYF4V36UH4,33D26D41-1918-46A7-973B-192AC1301302,0,2023-09-22_07h40.37.144,Pilot_VExplicitOC_RG_AMT_XS,2022.2.5,Win32,16.3821631,NA,NA,NA,NA,NA,NA,NA,NA,NA,NA,NA,NA,NA,NA,frustrated,"frustrated, not frustrated","more frustrated, less frustrated",NA,NA,NA,NA,NA,NA,NA,NA,NA,NA,NA,NA,-80.98958333,3.7358,2.0492,0,1,1,1,1,NA,NA,NA,NA,NA,NA,NA,NA,NA,NA,NA,NA,NA,NA,NA,NA,NA,NA,NA,NA,NA,NA,NA,NA,NA,NA,NA,NA,NA,NA,NA,NA,NA,NA,NA,NA,NA,NA,NA,NA,NA,NA,NA,NA,NA,NA,NA,NA,NA,NA,NA,NA,NA,NA,NA,NA,NA,NA,NA,NA,NA,NA,NA,NA,NA,NA,NA,NA,NA,NA,NA,NA,NA,NA,NA,NA,NA,NA,NA,NA,NA,NA,NA,NA,NA,NA,NA,NA,NA,NA,NA,NA,NA,NA,NA,NA,NA
NA,NA,NA,NA,NA,NA,NA,NA,NA,NA,NA,SUPAMT96766,35L9RVQFCUH5ATCVECHJLYF4V36UH4,33D26D41-1918-46A7-973B-192AC1301302,0,2023-09-22_07h40.37.144,Pilot_VExplicitOC_RG_AMT_XS,2022.2.5,Win32,16.3821631,NA,NA,NA,NA,NA,NA,NA,NA,NA,NA,NA,NA,NA,NA,bored,"bored, not bored","more bored, less bored",NA,NA,NA,NA,NA,NA,NA,NA,NA,NA,NA,NA,81.25,6.1938,2.0715,0,2,2,2,1,NA,NA,NA,NA,NA,NA,NA,NA,NA,NA,NA,NA,NA,NA,NA,NA,NA,NA,NA,NA,NA,NA,NA,NA,NA,NA,NA,NA,NA,NA,NA,NA,NA,NA,NA,NA,NA,NA,NA,NA,NA,NA,NA,NA,NA,NA,NA,NA,NA,NA,NA,NA,NA,NA,NA,NA,NA,NA,NA,NA,NA,NA,NA,NA,NA,NA,NA,NA,NA,NA,NA,NA,NA,NA,NA,NA,NA,NA,NA,NA,NA,NA,NA,NA,NA,NA,NA,NA,NA,NA,NA,NA,NA,NA,NA,NA,NA
NA,NA,NA,NA,NA,NA,NA,NA,NA,NA,NA,SUPAMT96766,35L9RVQFCUH5ATCVECHJLYF4V36UH4,33D26D41-1918-46A7-973B-192AC1301302,0,2023-09-22_07h40.37.144,Pilot_VExplicitOC_RG_AMT_XS,2022.2.5,Win32,16.3821631,NA,NA,NA,NA,NA,NA,NA,NA,NA,NA,NA,NA,NA,NA,NA,NA,NA,NA,NA,NA,NA,NA,NA,NA,NA,NA,NA,NA,NA,NA,NA,NA,NA,NA,NA,NA,NA,space,2.0652,space,0.987,79.16666667,1.8825,0,0,0,0,1,rest (looking at a fixed cross),001.png,NA,NA,NA,NA,NA,NA,NA,NA,NA,NA,NA,NA,NA,NA,NA,NA,NA,NA,NA,NA,NA,NA,NA,NA,NA,NA,NA,NA,NA,NA,NA,NA,NA,NA,NA,NA,NA,NA,NA,NA,NA,NA,NA,NA,NA,NA,NA,NA,NA,NA,NA,NA,NA,NA,NA,NA,NA,NA,NA,NA,NA,NA,NA,NA,NA,NA,NA,NA,NA,NA,NA,NA,NA,NA,NA,NA,NA,NA,NA,NA,NA,NA,NA,NA
NA,NA,NA,NA,NA,NA,NA,NA,NA,NA,NA,SUPAMT96766,35L9RVQFCUH5ATCVECHJLYF4V36UH4,33D26D41-1918-46A7-973B-192AC1301302,0,2023-09-22_07h40.37.144,Pilot_VExplicitOC_RG_AMT_XS,2022.2.5,Win32,16.3821631,NA,NA,NA,NA,NA,NA,NA,NA,NA,NA,NA,NA,NA,NA,NA,NA,NA,NA,NA,NA,NA,NA,NA,NA,NA,NA,NA,NA,NA,NA,NA,NA,NA,NA,NA,NA,NA,NA,NA,NA,NA,79.16666667,0.7983,0,1,1,1,1,stand up,002.png,NA,NA,NA,NA,NA,NA,NA,NA,NA,NA,NA,NA,NA,NA,NA,NA,NA,NA,NA,NA,NA,NA,NA,NA,NA,NA,NA,NA,NA,NA,NA,NA,NA,NA,NA,NA,NA,NA,NA,NA,NA,NA,NA,NA,NA,NA,NA,NA,NA,NA,NA,NA,NA,NA,NA,NA,NA,NA,NA,NA,NA,NA,NA,NA,NA,NA,NA,NA,NA,NA,NA,NA,NA,NA,NA,NA,NA,NA,NA,NA,NA,NA,NA,NA
NA,NA,NA,NA,NA,NA,NA,NA,NA,NA,NA,SUPAMT96766,35L9RVQFCUH5ATCVECHJLYF4V36UH4,33D26D41-1918-46A7-973B-192AC1301302,0,2023-09-22_07h40.37.144,Pilot_VExplicitOC_RG_AMT_XS,2022.2.5,Win32,16.3821631,NA,NA,NA,NA,NA,NA,NA,NA,NA,NA,NA,NA,NA,NA,NA,NA,NA,NA,NA,NA,NA,NA,NA,NA,NA,NA,NA,NA,NA,NA,NA,NA,NA,NA,NA,NA,NA,NA,NA,NA,NA,79.16666667,0.2829,0,2,2,2,1,stretch,003.png,NA,NA,NA,NA,NA,NA,NA,NA,NA,NA,NA,NA,NA,NA,NA,NA,NA,NA,NA,NA,NA,NA,NA,NA,NA,NA,NA,NA,NA,NA,NA,NA,NA,NA,NA,NA,NA,NA,NA,NA,NA,NA,NA,NA,NA,NA,NA,NA,NA,NA,NA,NA,NA,NA,NA,NA,NA,NA,NA,NA,NA,NA,NA,NA,NA,NA,NA,NA,NA,NA,NA,NA,NA,NA,NA,NA,NA,NA,NA,NA,NA,NA,NA,NA
NA,NA,NA,NA,NA,NA,NA,NA,NA,NA,NA,SUPAMT96766,35L9RVQFCUH5ATCVECHJLYF4V36UH4,33D26D41-1918-46A7-973B-192AC1301302,0,2023-09-22_07h40.37.144,Pilot_VExplicitOC_RG_AMT_XS,2022.2.5,Win32,16.3821631,NA,NA,NA,NA,NA,NA,NA,NA,NA,NA,NA,NA,NA,NA,NA,NA,NA,NA,NA,NA,NA,NA,NA,NA,NA,NA,NA,NA,NA,NA,NA,NA,NA,NA,NA,NA,NA,NA,NA,NA,NA,79.16666667,0.1413,0,3,3,3,1,make a drink,004.png,NA,NA,NA,NA,NA,NA,NA,NA,NA,NA,NA,NA,NA,NA,NA,NA,NA,NA,NA,NA,NA,NA,NA,NA,NA,NA,NA,NA,NA,NA,NA,NA,NA,NA,NA,NA,NA,NA,NA,NA,NA,NA,NA,NA,NA,NA,NA,NA,NA,NA,NA,NA,NA,NA,NA,NA,NA,NA,NA,NA,NA,NA,NA,NA,NA,NA,NA,NA,NA,NA,NA,NA,NA,NA,NA,NA,NA,NA,NA,NA,NA,NA,NA,NA
NA,NA,NA,NA,NA,NA,NA,NA,NA,NA,NA,SUPAMT96766,35L9RVQFCUH5ATCVECHJLYF4V36UH4,33D26D41-1918-46A7-973B-192AC1301302,0,2023-09-22_07h40.37.144,Pilot_VExplicitOC_RG_AMT_XS,2022.2.5,Win32,16.3821631,NA,NA,NA,NA,NA,NA,NA,NA,NA,NA,NA,NA,NA,NA,NA,NA,NA,NA,NA,NA,NA,NA,NA,NA,NA,NA,NA,NA,NA,NA,NA,NA,NA,NA,NA,NA,NA,NA,NA,NA,NA,79.16666667,0.2143,0,4,4,4,1,scroll social media,005.png,NA,NA,NA,NA,NA,NA,NA,NA,NA,NA,NA,NA,NA,NA,NA,NA,NA,NA,NA,NA,NA,NA,NA,NA,NA,NA,NA,NA,NA,NA,NA,NA,NA,NA,NA,NA,NA,NA,NA,NA,NA,NA,NA,NA,NA,NA,NA,NA,NA,NA,NA,NA,NA,NA,NA,NA,NA,NA,NA,NA,NA,NA,NA,NA,NA,NA,NA,NA,NA,NA,NA,NA,NA,NA,NA,NA,NA,NA,NA,NA,NA,NA,NA,NA
NA,NA,NA,NA,NA,NA,NA,NA,NA,NA,NA,SUPAMT96766,35L9RVQFCUH5ATCVECHJLYF4V36UH4,33D26D41-1918-46A7-973B-192AC1301302,0,2023-09-22_07h40.37.144,Pilot_VExplicitOC_RG_AMT_XS,2022.2.5,Win32,16.3821631,NA,NA,NA,NA,NA,NA,NA,NA,NA,NA,NA,NA,NA,NA,NA,NA,NA,NA,NA,NA,NA,NA,NA,NA,NA,NA,NA,NA,NA,NA,NA,NA,NA,NA,NA,NA,NA,NA,NA,NA,NA,79.16666667,0.2286,0,5,5,5,1,listen to music,006.png,NA,NA,NA,NA,NA,NA,NA,NA,NA,NA,NA,NA,NA,NA,NA,NA,NA,NA,NA,NA,NA,NA,NA,NA,NA,NA,NA,NA,NA,NA,NA,NA,NA,NA,NA,NA,NA,NA,NA,NA,NA,NA,NA,NA,NA,NA,NA,NA,NA,NA,NA,NA,NA,NA,NA,NA,NA,NA,NA,NA,NA,NA,NA,NA,NA,NA,NA,NA,NA,NA,NA,NA,NA,NA,NA,NA,NA,NA,NA,NA,NA,NA,NA,NA
NA,NA,NA,NA,NA,NA,NA,NA,NA,NA,NA,SUPAMT96766,35L9RVQFCUH5ATCVECHJLYF4V36UH4,33D26D41-1918-46A7-973B-192AC1301302,0,2023-09-22_07h40.37.144,Pilot_VExplicitOC_RG_AMT_XS,2022.2.5,Win32,16.3821631,NA,NA,NA,NA,NA,NA,NA,NA,NA,NA,NA,NA,NA,NA,NA,NA,NA,NA,NA,NA,NA,NA,NA,NA,NA,NA,NA,NA,NA,NA,NA,NA,NA,NA,NA,NA,NA,NA,NA,NA,NA,79.16666667,0.1617,0,6,6,6,1,daydream,007.png,NA,NA,NA,NA,NA,NA,NA,NA,NA,NA,NA,NA,NA,NA,NA,NA,NA,NA,NA,NA,NA,NA,NA,NA,NA,NA,NA,NA,NA,NA,NA,NA,NA,NA,NA,NA,NA,NA,NA,NA,NA,NA,NA,NA,NA,NA,NA,NA,NA,NA,NA,NA,NA,NA,NA,NA,NA,NA,NA,NA,NA,NA,NA,NA,NA,NA,NA,NA,NA,NA,NA,NA,NA,NA,NA,NA,NA,NA,NA,NA,NA,NA,NA,NA
NA,NA,NA,NA,NA,NA,NA,NA,NA,NA,NA,SUPAMT96766,35L9RVQFCUH5ATCVECHJLYF4V36UH4,33D26D41-1918-46A7-973B-192AC1301302,0,2023-09-22_07h40.37.144,Pilot_VExplicitOC_RG_AMT_XS,2022.2.5,Win32,16.3821631,NA,NA,NA,NA,NA,NA,NA,NA,NA,NA,NA,NA,NA,NA,NA,NA,NA,NA,NA,NA,NA,NA,NA,NA,NA,NA,NA,NA,NA,NA,NA,NA,NA,NA,NA,NA,NA,NA,NA,NA,NA,79.16666667,0.261,0,7,7,7,1,watch a short animation,008.png,NA,NA,NA,NA,NA,NA,NA,NA,NA,NA,NA,NA,NA,NA,NA,NA,NA,NA,NA,NA,NA,NA,NA,NA,NA,NA,NA,NA,NA,NA,NA,NA,NA,NA,NA,NA,NA,NA,NA,NA,NA,NA,NA,NA,NA,NA,NA,NA,NA,NA,NA,NA,NA,NA,NA,NA,NA,NA,NA,NA,NA,NA,NA,NA,NA,NA,NA,NA,NA,NA,NA,NA,NA,NA,NA,NA,NA,NA,NA,NA,NA,NA,NA,NA
NA,NA,NA,NA,NA,NA,NA,NA,NA,NA,NA,SUPAMT96766,35L9RVQFCUH5ATCVECHJLYF4V36UH4,33D26D41-1918-46A7-973B-192AC1301302,0,2023-09-22_07h40.37.144,Pilot_VExplicitOC_RG_AMT_XS,2022.2.5,Win32,16.3821631,NA,NA,NA,NA,NA,NA,NA,NA,NA,NA,NA,NA,NA,NA,NA,NA,NA,NA,NA,NA,NA,NA,NA,NA,NA,NA,NA,NA,NA,NA,NA,NA,NA,NA,NA,NA,NA,NA,NA,NA,NA,79.16666667,0.139,0,8,8,8,1,read a novel,009.png,NA,NA,NA,NA,NA,NA,NA,NA,NA,NA,NA,NA,NA,NA,NA,NA,NA,NA,NA,NA,NA,NA,NA,NA,NA,NA,NA,NA,NA,NA,NA,NA,NA,NA,NA,NA,NA,NA,NA,NA,NA,NA,NA,NA,NA,NA,NA,NA,NA,NA,NA,NA,NA,NA,NA,NA,NA,NA,NA,NA,NA,NA,NA,NA,NA,NA,NA,NA,NA,NA,NA,NA,NA,NA,NA,NA,NA,NA,NA,NA,NA,NA,NA,NA
NA,NA,NA,NA,NA,NA,NA,NA,NA,NA,NA,SUPAMT96766,35L9RVQFCUH5ATCVECHJLYF4V36UH4,33D26D41-1918-46A7-973B-192AC1301302,0,2023-09-22_07h40.37.144,Pilot_VExplicitOC_RG_AMT_XS,2022.2.5,Win32,16.3821631,NA,NA,NA,NA,NA,NA,NA,NA,NA,NA,NA,NA,NA,NA,NA,NA,NA,NA,NA,NA,NA,NA,NA,NA,NA,NA,NA,NA,NA,NA,NA,NA,NA,NA,NA,NA,NA,NA,NA,NA,NA,79.16666667,0.2195,0,9,9,9,1,read the news,010.png,NA,NA,NA,NA,NA,NA,NA,NA,NA,NA,NA,NA,NA,NA,NA,NA,NA,NA,NA,NA,NA,NA,NA,NA,NA,NA,NA,NA,NA,NA,NA,NA,NA,NA,NA,NA,NA,NA,NA,NA,NA,NA,NA,NA,NA,NA,NA,NA,NA,NA,NA,NA,NA,NA,NA,NA,NA,NA,NA,NA,NA,NA,NA,NA,NA,NA,NA,NA,NA,NA,NA,NA,NA,NA,NA,NA,NA,NA,NA,NA,NA,NA,NA,NA
NA,NA,NA,NA,NA,NA,NA,NA,NA,NA,NA,SUPAMT96766,35L9RVQFCUH5ATCVECHJLYF4V36UH4,33D26D41-1918-46A7-973B-192AC1301302,0,2023-09-22_07h40.37.144,Pilot_VExplicitOC_RG_AMT_XS,2022.2.5,Win32,16.3821631,NA,NA,NA,NA,NA,NA,NA,NA,NA,NA,NA,NA,NA,NA,NA,NA,NA,NA,NA,NA,NA,NA,NA,NA,NA,NA,NA,NA,NA,NA,NA,NA,NA,NA,NA,NA,NA,NA,NA,NA,NA,79.16666667,0.2318,0,10,10,10,1,gambling game,011.png,NA,NA,NA,NA,NA,NA,NA,NA,NA,NA,NA,NA,NA,NA,NA,NA,NA,NA,NA,NA,NA,NA,NA,NA,NA,NA,NA,NA,NA,NA,NA,NA,NA,NA,NA,NA,NA,NA,NA,NA,NA,NA,NA,NA,NA,NA,NA,NA,NA,NA,NA,NA,NA,NA,NA,NA,NA,NA,NA,NA,NA,NA,NA,NA,NA,NA,NA,NA,NA,NA,NA,NA,NA,NA,NA,NA,NA,NA,NA,NA,NA,NA,NA,NA
NA,NA,NA,NA,NA,NA,NA,NA,NA,NA,NA,SUPAMT96766,35L9RVQFCUH5ATCVECHJLYF4V36UH4,33D26D41-1918-46A7-973B-192AC1301302,0,2023-09-22_07h40.37.144,Pilot_VExplicitOC_RG_AMT_XS,2022.2.5,Win32,16.3821631,NA,NA,NA,NA,NA,NA,NA,NA,NA,NA,NA,NA,NA,NA,frustrated,"frustrated, not frustrated","more frustrated, less frustrated",NA,NA,NA,NA,NA,NA,NA,NA,NA,NA,NA,NA,NA,NA,NA,NA,NA,NA,NA,NA,NA,NA,NA,NA,NA,NA,NA,NA,NA,NA,NA,NA,NA,stand up,-70.57291667,7.1233,2.0386,0,0,0,1,1,NA,NA,NA,NA,NA,NA,NA,NA,NA,NA,NA,NA,NA,NA,NA,NA,NA,NA,NA,NA,NA,NA,NA,NA,NA,NA,NA,NA,NA,NA,NA,NA,NA,NA,NA,NA,NA,NA,NA,NA,NA,NA,NA,NA,NA,NA,NA,NA,NA,NA,NA,NA,NA,NA,NA,NA,NA,NA,NA,NA,NA,NA,NA,NA,NA,NA,NA,NA,NA,NA,NA,NA,NA,NA,NA
NA,NA,NA,NA,NA,NA,NA,NA,NA,NA,NA,SUPAMT96766,35L9RVQFCUH5ATCVECHJLYF4V36UH4,33D26D41-1918-46A7-973B-192AC1301302,0,2023-09-22_07h40.37.144,Pilot_VExplicitOC_RG_AMT_XS,2022.2.5,Win32,16.3821631,NA,NA,NA,NA,NA,NA,NA,NA,NA,NA,NA,NA,NA,NA,happy,"unhappy, happy","less happy, more happy",NA,NA,NA,NA,NA,NA,NA,NA,NA,NA,NA,NA,NA,NA,NA,NA,NA,NA,NA,NA,NA,NA,NA,NA,NA,NA,NA,NA,NA,NA,NA,NA,NA,NA,60.9375,4.4872,2.0415,0,1,1,0,1,NA,NA,NA,NA,NA,NA,NA,NA,NA,NA,NA,NA,NA,NA,NA,NA,NA,NA,NA,NA,NA,NA,NA,NA,NA,NA,NA,NA,NA,NA,NA,NA,NA,NA,NA,NA,NA,NA,NA,NA,NA,NA,NA,NA,NA,NA,NA,NA,NA,NA,NA,NA,NA,NA,NA,NA,NA,NA,NA,NA,NA,NA,NA,NA,NA,NA,NA,NA,NA,NA,NA,NA,NA,NA,NA
NA,NA,NA,NA,NA,NA,NA,NA,NA,NA,NA,SUPAMT96766,35L9RVQFCUH5ATCVECHJLYF4V36UH4,33D26D41-1918-46A7-973B-192AC1301302,0,2023-09-22_07h40.37.144,Pilot_VExplicitOC_RG_AMT_XS,2022.2.5,Win32,16.3821631,NA,NA,NA,NA,NA,NA,NA,NA,NA,NA,NA,NA,NA,NA,bored,"bored, not bored","more bored, less bored",NA,NA,NA,NA,NA,NA,NA,NA,NA,NA,NA,NA,NA,NA,NA,NA,NA,NA,NA,NA,NA,NA,NA,NA,NA,NA,NA,NA,NA,NA,NA,NA,NA,NA,48.69791667,6.2226,2.0203,0,2,2,2,1,NA,NA,NA,NA,NA,NA,NA,NA,NA,NA,NA,NA,NA,NA,NA,NA,NA,NA,NA,NA,NA,NA,NA,NA,NA,NA,NA,NA,NA,NA,NA,NA,NA,NA,NA,NA,NA,NA,NA,NA,NA,NA,NA,NA,NA,NA,NA,NA,NA,NA,NA,NA,NA,NA,NA,NA,NA,NA,NA,NA,NA,NA,NA,NA,NA,NA,NA,NA,NA,NA,NA,NA,NA,NA,NA
NA,NA,NA,NA,NA,NA,NA,NA,NA,NA,NA,SUPAMT96766,35L9RVQFCUH5ATCVECHJLYF4V36UH4,33D26D41-1918-46A7-973B-192AC1301302,0,2023-09-22_07h40.37.144,Pilot_VExplicitOC_RG_AMT_XS,2022.2.5,Win32,16.3821631,NA,NA,NA,NA,NA,NA,NA,NA,NA,NA,NA,NA,NA,NA,bored,"bored, not bored","more bored, less bored",NA,NA,NA,NA,NA,NA,NA,NA,NA,NA,NA,NA,NA,NA,NA,NA,NA,NA,NA,NA,NA,NA,NA,NA,NA,NA,NA,NA,NA,NA,NA,NA,NA,NA,NA,NA,2.0633,NA,NA,NA,NA,NA,space,15.3731,0,0,0,2,1,NA,NA,NA,NA,NA,NA,NA,NA,NA,NA,NA,NA,NA,NA,NA,NA,NA,NA,NA,NA,NA,NA,NA,NA,NA,NA,NA,NA,NA,NA,NA,NA,NA,NA,NA,NA,NA,NA,NA,NA,NA,NA,NA,NA,NA,NA,NA,NA,NA,NA,NA,NA,NA,NA,NA,NA,NA,NA,NA,NA,NA,NA,NA,NA,NA,NA,NA,NA
NA,NA,NA,NA,NA,NA,NA,NA,NA,NA,NA,SUPAMT96766,35L9RVQFCUH5ATCVECHJLYF4V36UH4,33D26D41-1918-46A7-973B-192AC1301302,0,2023-09-22_07h40.37.144,Pilot_VExplicitOC_RG_AMT_XS,2022.2.5,Win32,16.3821631,NA,NA,NA,NA,NA,NA,NA,NA,NA,NA,NA,NA,NA,NA,frustrated,"frustrated, not frustrated","more frustrated, less frustrated",NA,NA,NA,NA,NA,NA,NA,NA,NA,NA,NA,NA,NA,NA,NA,NA,NA,NA,NA,NA,NA,NA,NA,NA,NA,NA,NA,NA,NA,NA,NA,NA,NA,NA,-55.72916667,6.2083,2.0212,NA,NA,NA,NA,NA,NA,NA,0,1,1,1,1,NA,NA,NA,NA,NA,NA,NA,NA,NA,NA,NA,NA,NA,NA,NA,NA,NA,NA,NA,NA,NA,NA,NA,NA,NA,NA,NA,NA,NA,NA,NA,NA,NA,NA,NA,NA,NA,NA,NA,NA,NA,NA,NA,NA,NA,NA,NA,NA,NA,NA,NA,NA,NA,NA,NA,NA,NA,NA,NA,NA,NA,NA,NA,NA,NA,NA,NA,NA
NA,NA,NA,NA,NA,NA,NA,NA,NA,NA,NA,SUPAMT96766,35L9RVQFCUH5ATCVECHJLYF4V36UH4,33D26D41-1918-46A7-973B-192AC1301302,0,2023-09-22_07h40.37.144,Pilot_VExplicitOC_RG_AMT_XS,2022.2.5,Win32,16.3821631,NA,NA,NA,NA,NA,NA,NA,NA,NA,NA,NA,NA,NA,NA,happy,"unhappy, happy","less happy, more happy",NA,NA,NA,NA,NA,NA,NA,NA,NA,NA,NA,NA,NA,NA,NA,NA,NA,NA,NA,NA,NA,NA,NA,NA,NA,NA,NA,NA,NA,NA,NA,NA,NA,NA,62.5,4.5393,2.0685,NA,NA,NA,NA,NA,NA,NA,0,2,2,0,1,NA,NA,NA,NA,NA,NA,NA,NA,NA,NA,NA,NA,NA,NA,NA,NA,NA,NA,NA,NA,NA,NA,NA,NA,NA,NA,NA,NA,NA,NA,NA,NA,NA,NA,NA,NA,NA,NA,NA,NA,NA,NA,NA,NA,NA,NA,NA,NA,NA,NA,NA,NA,NA,NA,NA,NA,NA,NA,NA,NA,NA,NA,NA,NA,NA,NA,NA,NA
NA,NA,NA,NA,NA,NA,NA,NA,NA,NA,NA,SUPAMT96766,35L9RVQFCUH5ATCVECHJLYF4V36UH4,33D26D41-1918-46A7-973B-192AC1301302,0,2023-09-22_07h40.37.144,Pilot_VExplicitOC_RG_AMT_XS,2022.2.5,Win32,16.3821631,NA,NA,NA,NA,NA,NA,NA,NA,NA,NA,NA,NA,NA,NA,happy,"unhappy, happy","less happy, more happy",NA,NA,NA,NA,NA,NA,NA,NA,NA,NA,NA,NA,NA,NA,NA,NA,NA,NA,NA,NA,NA,NA,NA,NA,NA,NA,NA,NA,NA,NA,NA,NA,NA,NA,NA,NA,2.0553,NA,NA,NA,NA,NA,NA,NA,0,0,0,0,1,NA,NA,NA,NA,NA,NA,NA,NA,NA,NA,NA,NA,NA,NA,NA,NA,NA,NA,NA,NA,NA,NA,NA,NA,NA,NA,NA,NA,NA,NA,NA,NA,NA,NA,NA,NA,NA,NA,NA,NA,NA,NA,NA,NA,NA,NA,NA,NA,NA,NA,NA,NA,NA,NA,NA,NA,NA,NA,NA,NA,NA,NA,NA,NA,NA,NA,NA,NA
NA,NA,NA,NA,NA,NA,NA,NA,NA,NA,NA,SUPAMT96766,35L9RVQFCUH5ATCVECHJLYF4V36UH4,33D26D41-1918-46A7-973B-192AC1301302,0,2023-09-22_07h40.37.144,Pilot_VExplicitOC_RG_AMT_XS,2022.2.5,Win32,16.3821631,NA,NA,NA,NA,NA,NA,NA,NA,NA,NA,NA,NA,NA,NA,frustrated,"frustrated, not frustrated","more frustrated, less frustrated",NA,NA,NA,NA,NA,NA,NA,NA,NA,NA,NA,NA,NA,NA,NA,NA,NA,NA,NA,NA,NA,NA,NA,NA,NA,NA,NA,NA,NA,NA,NA,NA,NA,NA,-65.36458333,4.3316,2.0647,NA,NA,NA,NA,NA,NA,NA,0,1,1,1,1,NA,NA,NA,NA,NA,NA,NA,NA,NA,NA,NA,NA,NA,NA,NA,NA,NA,NA,NA,NA,NA,NA,NA,NA,NA,NA,NA,NA,NA,NA,NA,NA,NA,NA,NA,NA,NA,NA,NA,NA,NA,NA,NA,NA,NA,NA,NA,NA,NA,NA,NA,NA,NA,NA,NA,NA,NA,NA,NA,NA,NA,NA,NA,NA,NA,NA,NA,NA
NA,NA,NA,NA,NA,NA,NA,NA,NA,NA,NA,SUPAMT96766,35L9RVQFCUH5ATCVECHJLYF4V36UH4,33D26D41-1918-46A7-973B-192AC1301302,0,2023-09-22_07h40.37.144,Pilot_VExplicitOC_RG_AMT_XS,2022.2.5,Win32,16.3821631,NA,NA,NA,NA,NA,NA,NA,NA,NA,NA,NA,NA,NA,NA,bored,"bored, not bored","more bored, less bored",NA,NA,NA,NA,NA,NA,NA,NA,NA,NA,NA,NA,NA,NA,NA,NA,NA,NA,NA,NA,NA,NA,NA,NA,NA,NA,NA,NA,NA,NA,NA,NA,NA,NA,-64.84375,3.339,2.0474,NA,NA,NA,NA,NA,NA,NA,0,2,2,2,1,NA,NA,NA,NA,NA,NA,NA,NA,NA,NA,NA,NA,NA,NA,NA,NA,NA,NA,NA,NA,NA,NA,NA,NA,NA,NA,NA,NA,NA,NA,NA,NA,NA,NA,NA,NA,NA,NA,NA,NA,NA,NA,NA,NA,NA,NA,NA,NA,NA,NA,NA,NA,NA,NA,NA,NA,NA,NA,NA,NA,NA,NA,NA,NA,NA,NA,NA,NA
NA,NA,NA,NA,NA,NA,NA,NA,NA,NA,NA,SUPAMT96766,35L9RVQFCUH5ATCVECHJLYF4V36UH4,33D26D41-1918-46A7-973B-192AC1301302,0,2023-09-22_07h40.37.144,Pilot_VExplicitOC_RG_AMT_XS,2022.2.5,Win32,16.3821631,NA,NA,NA,NA,NA,NA,NA,NA,NA,NA,NA,NA,NA,NA,bored,"bored, not bored","more bored, less bored",NA,NA,NA,NA,NA,NA,NA,NA,NA,NA,NA,NA,NA,NA,NA,NA,NA,NA,NA,NA,NA,NA,NA,NA,NA,NA,NA,NA,NA,NA,NA,NA,NA,NA,73.17708333,4.3989,2.0218,NA,NA,NA,NA,NA,NA,NA,0,0,0,2,1,NA,NA,NA,NA,NA,NA,NA,NA,NA,NA,NA,NA,NA,NA,NA,NA,NA,NA,NA,NA,NA,NA,NA,NA,NA,NA,NA,NA,NA,NA,NA,NA,NA,NA,NA,NA,NA,NA,NA,NA,NA,NA,NA,NA,NA,NA,NA,NA,NA,NA,NA,NA,NA,NA,NA,NA,NA,NA,NA,NA,NA,NA,NA,NA,NA,NA,NA,NA
NA,NA,NA,NA,NA,NA,NA,NA,NA,NA,NA,SUPAMT96766,35L9RVQFCUH5ATCVECHJLYF4V36UH4,33D26D41-1918-46A7-973B-192AC1301302,0,2023-09-22_07h40.37.144,Pilot_VExplicitOC_RG_AMT_XS,2022.2.5,Win32,16.3821631,NA,NA,NA,NA,NA,NA,NA,NA,NA,NA,NA,NA,NA,NA,happy,"unhappy, happy","less happy, more happy",NA,NA,NA,NA,NA,NA,NA,NA,NA,NA,NA,NA,NA,NA,NA,NA,NA,NA,NA,NA,NA,NA,NA,NA,NA,NA,NA,NA,NA,NA,NA,NA,NA,NA,-66.92708333,4.1745,2.0072,NA,NA,NA,NA,NA,NA,NA,0,1,1,0,1,NA,NA,NA,NA,NA,NA,NA,NA,NA,NA,NA,NA,NA,NA,NA,NA,NA,NA,NA,NA,NA,NA,NA,NA,NA,NA,NA,NA,NA,NA,NA,NA,NA,NA,NA,NA,NA,NA,NA,NA,NA,NA,NA,NA,NA,NA,NA,NA,NA,NA,NA,NA,NA,NA,NA,NA,NA,NA,NA,NA,NA,NA,NA,NA,NA,NA,NA,NA
NA,NA,NA,NA,NA,NA,NA,NA,NA,NA,NA,SUPAMT96766,35L9RVQFCUH5ATCVECHJLYF4V36UH4,33D26D41-1918-46A7-973B-192AC1301302,0,2023-09-22_07h40.37.144,Pilot_VExplicitOC_RG_AMT_XS,2022.2.5,Win32,16.3821631,NA,NA,NA,NA,NA,NA,NA,NA,NA,NA,NA,NA,NA,NA,frustrated,"frustrated, not frustrated","more frustrated, less frustrated",NA,NA,NA,NA,NA,NA,NA,NA,NA,NA,NA,NA,NA,NA,NA,NA,NA,NA,NA,NA,NA,NA,NA,NA,NA,NA,NA,NA,NA,NA,NA,NA,NA,NA,NA,NA,2.0337,NA,NA,NA,NA,NA,NA,NA,0,2,2,1,1,NA,NA,NA,NA,NA,NA,NA,NA,NA,NA,NA,NA,NA,NA,NA,NA,NA,NA,NA,NA,NA,NA,NA,NA,NA,NA,NA,NA,NA,NA,NA,NA,NA,NA,NA,NA,NA,NA,NA,NA,NA,NA,NA,NA,NA,NA,NA,NA,NA,NA,NA,NA,NA,NA,NA,NA,NA,NA,NA,NA,NA,NA,NA,NA,NA,NA,NA,NA
NA,NA,NA,NA,NA,NA,NA,NA,NA,NA,NA,SUPAMT96766,35L9RVQFCUH5ATCVECHJLYF4V36UH4,33D26D41-1918-46A7-973B-192AC1301302,0,2023-09-22_07h40.37.144,Pilot_VExplicitOC_RG_AMT_XS,2022.2.5,Win32,16.3821631,NA,NA,NA,NA,NA,NA,NA,NA,NA,NA,NA,NA,NA,NA,frustrated,"frustrated, not frustrated","more frustrated, less frustrated",NA,NA,NA,NA,NA,NA,NA,NA,NA,NA,NA,NA,NA,NA,NA,NA,NA,NA,NA,NA,NA,NA,NA,NA,NA,NA,NA,NA,NA,NA,NA,NA,NA,NA,NA,NA,2.0523,NA,NA,NA,NA,NA,NA,NA,0,0,0,1,1,NA,NA,NA,NA,NA,NA,NA,NA,NA,NA,NA,NA,NA,NA,NA,NA,NA,NA,NA,NA,NA,NA,NA,NA,NA,NA,NA,NA,NA,NA,NA,NA,NA,NA,NA,NA,NA,NA,NA,NA,NA,NA,NA,NA,NA,NA,NA,NA,NA,NA,NA,NA,NA,NA,NA,NA,NA,NA,NA,NA,NA,NA,NA,NA,NA,NA,NA,NA
NA,NA,NA,NA,NA,NA,NA,NA,NA,NA,NA,SUPAMT96766,35L9RVQFCUH5ATCVECHJLYF4V36UH4,33D26D41-1918-46A7-973B-192AC1301302,0,2023-09-22_07h40.37.144,Pilot_VExplicitOC_RG_AMT_XS,2022.2.5,Win32,16.3821631,NA,NA,NA,NA,NA,NA,NA,NA,NA,NA,NA,NA,NA,NA,happy,"unhappy, happy","less happy, more happy",NA,NA,NA,NA,NA,NA,NA,NA,NA,NA,NA,NA,NA,NA,NA,NA,NA,NA,NA,NA,NA,NA,NA,NA,NA,NA,NA,NA,NA,NA,NA,NA,NA,NA,70.3125,4.6337,2.0647,NA,NA,NA,NA,NA,NA,NA,0,1,1,0,1,NA,NA,NA,NA,NA,NA,NA,NA,NA,NA,NA,NA,NA,NA,NA,NA,NA,NA,NA,NA,NA,NA,NA,NA,NA,NA,NA,NA,NA,NA,NA,NA,NA,NA,NA,NA,NA,NA,NA,NA,NA,NA,NA,NA,NA,NA,NA,NA,NA,NA,NA,NA,NA,NA,NA,NA,NA,NA,NA,NA,NA,NA,NA,NA,NA,NA,NA,NA
NA,NA,NA,NA,NA,NA,NA,NA,NA,NA,NA,SUPAMT96766,35L9RVQFCUH5ATCVECHJLYF4V36UH4,33D26D41-1918-46A7-973B-192AC1301302,0,2023-09-22_07h40.37.144,Pilot_VExplicitOC_RG_AMT_XS,2022.2.5,Win32,16.3821631,NA,NA,NA,NA,NA,NA,NA,NA,NA,NA,NA,NA,NA,NA,bored,"bored, not bored","more bored, less bored",NA,NA,NA,NA,NA,NA,NA,NA,NA,NA,NA,NA,NA,NA,NA,NA,NA,NA,NA,NA,NA,NA,NA,NA,NA,NA,NA,NA,NA,NA,NA,NA,NA,NA,-70.05208333,4.5696,2.0523,NA,NA,NA,NA,NA,NA,NA,0,2,2,2,1,NA,NA,NA,NA,NA,NA,NA,NA,NA,NA,NA,NA,NA,NA,NA,NA,NA,NA,NA,NA,NA,NA,NA,NA,NA,NA,NA,NA,NA,NA,NA,NA,NA,NA,NA,NA,NA,NA,NA,NA,NA,NA,NA,NA,NA,NA,NA,NA,NA,NA,NA,NA,NA,NA,NA,NA,NA,NA,NA,NA,NA,NA,NA,NA,NA,NA,NA,NA
NA,NA,NA,NA,NA,NA,NA,NA,NA,NA,NA,SUPAMT96766,35L9RVQFCUH5ATCVECHJLYF4V36UH4,33D26D41-1918-46A7-973B-192AC1301302,0,2023-09-22_07h40.37.144,Pilot_VExplicitOC_RG_AMT_XS,2022.2.5,Win32,16.3821631,NA,NA,NA,NA,NA,NA,NA,NA,NA,NA,NA,NA,NA,NA,frustrated,"frustrated, not frustrated","more frustrated, less frustrated",NA,NA,NA,NA,NA,NA,NA,NA,NA,NA,NA,NA,NA,NA,NA,NA,NA,NA,NA,NA,NA,NA,NA,NA,NA,NA,NA,NA,NA,NA,NA,NA,NA,NA,NA,NA,2.0154,NA,NA,NA,NA,NA,NA,NA,0,0,0,1,1,NA,NA,NA,NA,NA,NA,NA,NA,NA,NA,NA,NA,NA,NA,NA,NA,NA,NA,NA,NA,NA,NA,NA,NA,NA,NA,NA,NA,NA,NA,NA,NA,NA,NA,NA,NA,NA,NA,NA,NA,NA,NA,NA,NA,NA,NA,NA,NA,NA,NA,NA,NA,NA,NA,NA,NA,NA,NA,NA,NA,NA,NA,NA,NA,NA,NA,NA,NA
NA,NA,NA,NA,NA,NA,NA,NA,NA,NA,NA,SUPAMT96766,35L9RVQFCUH5ATCVECHJLYF4V36UH4,33D26D41-1918-46A7-973B-192AC1301302,0,2023-09-22_07h40.37.144,Pilot_VExplicitOC_RG_AMT_XS,2022.2.5,Win32,16.3821631,NA,NA,NA,NA,NA,NA,NA,NA,NA,NA,NA,NA,NA,NA,bored,"bored, not bored","more bored, less bored",NA,NA,NA,NA,NA,NA,NA,NA,NA,NA,NA,NA,NA,NA,NA,NA,NA,NA,NA,NA,NA,NA,NA,NA,NA,NA,NA,NA,NA,NA,NA,NA,NA,NA,NA,NA,2.0469,NA,NA,NA,NA,NA,NA,NA,0,1,1,2,1,NA,NA,NA,NA,NA,NA,NA,NA,NA,NA,NA,NA,NA,NA,NA,NA,NA,NA,NA,NA,NA,NA,NA,NA,NA,NA,NA,NA,NA,NA,NA,NA,NA,NA,NA,NA,NA,NA,NA,NA,NA,NA,NA,NA,NA,NA,NA,NA,NA,NA,NA,NA,NA,NA,NA,NA,NA,NA,NA,NA,NA,NA,NA,NA,NA,NA,NA,NA
NA,NA,NA,NA,NA,NA,NA,NA,NA,NA,NA,SUPAMT96766,35L9RVQFCUH5ATCVECHJLYF4V36UH4,33D26D41-1918-46A7-973B-192AC1301302,0,2023-09-22_07h40.37.144,Pilot_VExplicitOC_RG_AMT_XS,2022.2.5,Win32,16.3821631,NA,NA,NA,NA,NA,NA,NA,NA,NA,NA,NA,NA,NA,NA,happy,"unhappy, happy","less happy, more happy",NA,NA,NA,NA,NA,NA,NA,NA,NA,NA,NA,NA,NA,NA,NA,NA,NA,NA,NA,NA,NA,NA,NA,NA,NA,NA,NA,NA,NA,NA,NA,NA,NA,NA,NA,NA,2.0264,NA,NA,NA,NA,NA,NA,NA,0,2,2,0,1,NA,NA,NA,NA,NA,NA,NA,NA,NA,NA,NA,NA,NA,NA,NA,NA,NA,NA,NA,NA,NA,NA,NA,NA,NA,NA,NA,NA,NA,NA,NA,NA,NA,NA,NA,NA,NA,NA,NA,NA,NA,NA,NA,NA,NA,NA,NA,NA,NA,NA,NA,NA,NA,NA,NA,NA,NA,NA,NA,NA,NA,NA,NA,NA,NA,NA,NA,NA
NA,NA,NA,NA,NA,NA,NA,NA,NA,NA,NA,SUPAMT96766,35L9RVQFCUH5ATCVECHJLYF4V36UH4,33D26D41-1918-46A7-973B-192AC1301302,0,2023-09-22_07h40.37.144,Pilot_VExplicitOC_RG_AMT_XS,2022.2.5,Win32,16.3821631,NA,NA,NA,NA,NA,NA,NA,NA,NA,NA,NA,NA,NA,NA,bored,"bored, not bored","more bored, less bored",NA,NA,NA,NA,NA,NA,NA,NA,NA,NA,NA,NA,NA,NA,NA,NA,NA,NA,NA,NA,NA,NA,NA,NA,NA,NA,NA,NA,NA,NA,NA,NA,NA,NA,NA,NA,2.0747,NA,NA,NA,NA,NA,NA,NA,0,0,0,2,1,NA,NA,NA,NA,NA,NA,NA,NA,NA,NA,NA,NA,NA,NA,NA,NA,NA,NA,NA,NA,NA,NA,NA,NA,NA,NA,NA,NA,NA,NA,NA,NA,NA,NA,NA,NA,NA,NA,NA,NA,NA,NA,NA,NA,NA,NA,NA,NA,NA,NA,NA,NA,NA,NA,NA,NA,NA,NA,NA,NA,NA,NA,NA,NA,NA,NA,NA,NA
NA,NA,NA,NA,NA,NA,NA,NA,NA,NA,NA,SUPAMT96766,35L9RVQFCUH5ATCVECHJLYF4V36UH4,33D26D41-1918-46A7-973B-192AC1301302,0,2023-09-22_07h40.37.144,Pilot_VExplicitOC_RG_AMT_XS,2022.2.5,Win32,16.3821631,NA,NA,NA,NA,NA,NA,NA,NA,NA,NA,NA,NA,NA,NA,frustrated,"frustrated, not frustrated","more frustrated, less frustrated",NA,NA,NA,NA,NA,NA,NA,NA,NA,NA,NA,NA,NA,NA,NA,NA,NA,NA,NA,NA,NA,NA,NA,NA,NA,NA,NA,NA,NA,NA,NA,NA,NA,NA,73.17708333,3.0339,2.0677,NA,NA,NA,NA,NA,NA,NA,0,1,1,1,1,NA,NA,NA,NA,NA,NA,NA,NA,NA,NA,NA,NA,NA,NA,NA,NA,NA,NA,NA,NA,NA,NA,NA,NA,NA,NA,NA,NA,NA,NA,NA,NA,NA,NA,NA,NA,NA,NA,NA,NA,NA,NA,NA,NA,NA,NA,NA,NA,NA,NA,NA,NA,NA,NA,NA,NA,NA,NA,NA,NA,NA,NA,NA,NA,NA,NA,NA,NA
NA,NA,NA,NA,NA,NA,NA,NA,NA,NA,NA,SUPAMT96766,35L9RVQFCUH5ATCVECHJLYF4V36UH4,33D26D41-1918-46A7-973B-192AC1301302,0,2023-09-22_07h40.37.144,Pilot_VExplicitOC_RG_AMT_XS,2022.2.5,Win32,16.3821631,NA,NA,NA,NA,NA,NA,NA,NA,NA,NA,NA,NA,NA,NA,happy,"unhappy, happy","less happy, more happy",NA,NA,NA,NA,NA,NA,NA,NA,NA,NA,NA,NA,NA,NA,NA,NA,NA,NA,NA,NA,NA,NA,NA,NA,NA,NA,NA,NA,NA,NA,NA,NA,NA,NA,89.84375,3.0393,2.0793,NA,NA,NA,NA,NA,NA,NA,0,2,2,0,1,NA,NA,NA,NA,NA,NA,NA,NA,NA,NA,NA,NA,NA,NA,NA,NA,NA,NA,NA,NA,NA,NA,NA,NA,NA,NA,NA,NA,NA,NA,NA,NA,NA,NA,NA,NA,NA,NA,NA,NA,NA,NA,NA,NA,NA,NA,NA,NA,NA,NA,NA,NA,NA,NA,NA,NA,NA,NA,NA,NA,NA,NA,NA,NA,NA,NA,NA,NA
NA,NA,NA,NA,NA,NA,NA,NA,NA,NA,NA,SUPAMT96766,35L9RVQFCUH5ATCVECHJLYF4V36UH4,33D26D41-1918-46A7-973B-192AC1301302,0,2023-09-22_07h40.37.144,Pilot_VExplicitOC_RG_AMT_XS,2022.2.5,Win32,16.3821631,NA,NA,NA,NA,NA,NA,NA,NA,NA,NA,NA,NA,NA,NA,bored,"bored, not bored","more bored, less bored",NA,NA,NA,NA,NA,NA,NA,NA,NA,NA,NA,NA,NA,NA,NA,NA,NA,NA,NA,NA,NA,NA,NA,NA,NA,NA,NA,NA,NA,NA,NA,NA,NA,NA,NA,NA,2.0784,NA,NA,NA,NA,NA,NA,NA,0,0,0,2,1,NA,NA,NA,NA,NA,NA,NA,NA,NA,NA,NA,NA,NA,NA,NA,NA,NA,NA,NA,NA,NA,NA,NA,NA,NA,NA,NA,NA,NA,NA,NA,NA,NA,NA,NA,NA,NA,NA,NA,NA,NA,NA,NA,NA,NA,NA,NA,NA,NA,NA,NA,NA,NA,NA,NA,NA,NA,NA,NA,NA,NA,NA,NA,NA,NA,NA,NA,NA
NA,NA,NA,NA,NA,NA,NA,NA,NA,NA,NA,SUPAMT96766,35L9RVQFCUH5ATCVECHJLYF4V36UH4,33D26D41-1918-46A7-973B-192AC1301302,0,2023-09-22_07h40.37.144,Pilot_VExplicitOC_RG_AMT_XS,2022.2.5,Win32,16.3821631,NA,NA,NA,NA,NA,NA,NA,NA,NA,NA,NA,NA,NA,NA,frustrated,"frustrated, not frustrated","more frustrated, less frustrated",NA,NA,NA,NA,NA,NA,NA,NA,NA,NA,NA,NA,NA,NA,NA,NA,NA,NA,NA,NA,NA,NA,NA,NA,NA,NA,NA,NA,NA,NA,NA,NA,NA,NA,-84.375,3.9745,2.0474,NA,NA,NA,NA,NA,NA,NA,0,1,1,1,1,NA,NA,NA,NA,NA,NA,NA,NA,NA,NA,NA,NA,NA,NA,NA,NA,NA,NA,NA,NA,NA,NA,NA,NA,NA,NA,NA,NA,NA,NA,NA,NA,NA,NA,NA,NA,NA,NA,NA,NA,NA,NA,NA,NA,NA,NA,NA,NA,NA,NA,NA,NA,NA,NA,NA,NA,NA,NA,NA,NA,NA,NA,NA,NA,NA,NA,NA,NA
NA,NA,NA,NA,NA,NA,NA,NA,NA,NA,NA,SUPAMT96766,35L9RVQFCUH5ATCVECHJLYF4V36UH4,33D26D41-1918-46A7-973B-192AC1301302,0,2023-09-22_07h40.37.144,Pilot_VExplicitOC_RG_AMT_XS,2022.2.5,Win32,16.3821631,NA,NA,NA,NA,NA,NA,NA,NA,NA,NA,NA,NA,NA,NA,happy,"unhappy, happy","less happy, more happy",NA,NA,NA,NA,NA,NA,NA,NA,NA,NA,NA,NA,NA,NA,NA,NA,NA,NA,NA,NA,NA,NA,NA,NA,NA,NA,NA,NA,NA,NA,NA,NA,NA,NA,68.22916667,3.9386,2.0462,NA,NA,NA,NA,NA,NA,NA,0,2,2,0,1,NA,NA,NA,NA,NA,NA,NA,NA,NA,NA,NA,NA,NA,NA,NA,NA,NA,NA,NA,NA,NA,NA,NA,NA,NA,NA,NA,NA,NA,NA,NA,NA,NA,NA,NA,NA,NA,NA,NA,NA,NA,NA,NA,NA,NA,NA,NA,NA,NA,NA,NA,NA,NA,NA,NA,NA,NA,NA,NA,NA,NA,NA,NA,NA,NA,NA,NA,NA
NA,NA,NA,NA,NA,NA,NA,NA,NA,NA,NA,SUPAMT96766,35L9RVQFCUH5ATCVECHJLYF4V36UH4,33D26D41-1918-46A7-973B-192AC1301302,0,2023-09-22_07h40.37.144,Pilot_VExplicitOC_RG_AMT_XS,2022.2.5,Win32,16.3821631,NA,NA,NA,NA,NA,NA,NA,NA,NA,NA,NA,NA,NA,NA,frustrated,"frustrated, not frustrated","more frustrated, less frustrated",NA,NA,NA,NA,NA,NA,NA,NA,NA,NA,NA,NA,NA,NA,NA,NA,NA,NA,NA,NA,NA,NA,NA,NA,NA,NA,NA,NA,NA,NA,NA,NA,NA,NA,NA,NA,2.0537,NA,NA,NA,NA,NA,NA,NA,0,0,0,1,1,NA,NA,NA,NA,NA,NA,NA,NA,NA,NA,NA,NA,NA,NA,NA,NA,NA,NA,NA,NA,NA,NA,NA,NA,NA,NA,NA,NA,NA,NA,NA,NA,NA,NA,NA,NA,NA,NA,NA,NA,NA,NA,NA,NA,NA,NA,NA,NA,NA,NA,NA,NA,NA,NA,NA,NA,NA,NA,NA,NA,NA,NA,NA,NA,NA,NA,NA,NA
NA,NA,NA,NA,NA,NA,NA,NA,NA,NA,NA,SUPAMT96766,35L9RVQFCUH5ATCVECHJLYF4V36UH4,33D26D41-1918-46A7-973B-192AC1301302,0,2023-09-22_07h40.37.144,Pilot_VExplicitOC_RG_AMT_XS,2022.2.5,Win32,16.3821631,NA,NA,NA,NA,NA,NA,NA,NA,NA,NA,NA,NA,NA,NA,bored,"bored, not bored","more bored, less bored",NA,NA,NA,NA,NA,NA,NA,NA,NA,NA,NA,NA,NA,NA,NA,NA,NA,NA,NA,NA,NA,NA,NA,NA,NA,NA,NA,NA,NA,NA,NA,NA,NA,NA,NA,NA,2.0105,NA,NA,NA,NA,NA,NA,NA,0,1,1,2,1,NA,NA,NA,NA,NA,NA,NA,NA,NA,NA,NA,NA,NA,NA,NA,NA,NA,NA,NA,NA,NA,NA,NA,NA,NA,NA,NA,NA,NA,NA,NA,NA,NA,NA,NA,NA,NA,NA,NA,NA,NA,NA,NA,NA,NA,NA,NA,NA,NA,NA,NA,NA,NA,NA,NA,NA,NA,NA,NA,NA,NA,NA,NA,NA,NA,NA,NA,NA
NA,NA,NA,NA,NA,NA,NA,NA,NA,NA,NA,SUPAMT96766,35L9RVQFCUH5ATCVECHJLYF4V36UH4,33D26D41-1918-46A7-973B-192AC1301302,0,2023-09-22_07h40.37.144,Pilot_VExplicitOC_RG_AMT_XS,2022.2.5,Win32,16.3821631,NA,NA,NA,NA,NA,NA,NA,NA,NA,NA,NA,NA,NA,NA,happy,"unhappy, happy","less happy, more happy",NA,NA,NA,NA,NA,NA,NA,NA,NA,NA,NA,NA,NA,NA,NA,NA,NA,NA,NA,NA,NA,NA,NA,NA,NA,NA,NA,NA,NA,NA,NA,NA,NA,NA,NA,NA,2.0337,NA,NA,NA,NA,NA,NA,NA,0,2,2,0,1,NA,NA,NA,NA,NA,NA,NA,NA,NA,NA,NA,NA,NA,NA,NA,NA,NA,NA,NA,NA,NA,NA,NA,NA,NA,NA,NA,NA,NA,NA,NA,NA,NA,NA,NA,NA,NA,NA,NA,NA,NA,NA,NA,NA,NA,NA,NA,NA,NA,NA,NA,NA,NA,NA,NA,NA,NA,NA,NA,NA,NA,NA,NA,NA,NA,NA,NA,NA
NA,NA,NA,NA,NA,NA,NA,NA,NA,NA,NA,SUPAMT96766,35L9RVQFCUH5ATCVECHJLYF4V36UH4,33D26D41-1918-46A7-973B-192AC1301302,0,2023-09-22_07h40.37.144,Pilot_VExplicitOC_RG_AMT_XS,2022.2.5,Win32,16.3821631,NA,NA,NA,NA,NA,NA,NA,NA,NA,NA,NA,NA,NA,NA,happy,"unhappy, happy","less happy, more happy",NA,NA,NA,NA,NA,NA,NA,NA,NA,NA,NA,NA,NA,NA,NA,NA,NA,NA,NA,NA,NA,NA,NA,NA,NA,NA,NA,NA,NA,NA,NA,NA,NA,NA,79.6875,7.5217,2.0781,NA,NA,NA,NA,NA,NA,NA,0,0,0,0,1,NA,NA,NA,NA,NA,NA,NA,NA,NA,NA,NA,NA,NA,NA,NA,NA,NA,NA,NA,NA,NA,NA,NA,NA,NA,NA,NA,NA,NA,NA,NA,NA,NA,NA,NA,NA,NA,NA,NA,NA,NA,NA,NA,NA,NA,NA,NA,NA,NA,NA,NA,NA,NA,NA,NA,NA,NA,NA,NA,NA,NA,NA,NA,NA,NA,NA,NA,NA
NA,NA,NA,NA,NA,NA,NA,NA,NA,NA,NA,SUPAMT96766,35L9RVQFCUH5ATCVECHJLYF4V36UH4,33D26D41-1918-46A7-973B-192AC1301302,0,2023-09-22_07h40.37.144,Pilot_VExplicitOC_RG_AMT_XS,2022.2.5,Win32,16.3821631,NA,NA,NA,NA,NA,NA,NA,NA,NA,NA,NA,NA,NA,NA,bored,"bored, not bored","more bored, less bored",NA,NA,NA,NA,NA,NA,NA,NA,NA,NA,NA,NA,NA,NA,NA,NA,NA,NA,NA,NA,NA,NA,NA,NA,NA,NA,NA,NA,NA,NA,NA,NA,NA,NA,-78.90625,5.4114,2.0633,NA,NA,NA,NA,NA,NA,NA,0,1,1,2,1,NA,NA,NA,NA,NA,NA,NA,NA,NA,NA,NA,NA,NA,NA,NA,NA,NA,NA,NA,NA,NA,NA,NA,NA,NA,NA,NA,NA,NA,NA,NA,NA,NA,NA,NA,NA,NA,NA,NA,NA,NA,NA,NA,NA,NA,NA,NA,NA,NA,NA,NA,NA,NA,NA,NA,NA,NA,NA,NA,NA,NA,NA,NA,NA,NA,NA,NA,NA
NA,NA,NA,NA,NA,NA,NA,NA,NA,NA,NA,SUPAMT96766,35L9RVQFCUH5ATCVECHJLYF4V36UH4,33D26D41-1918-46A7-973B-192AC1301302,0,2023-09-22_07h40.37.144,Pilot_VExplicitOC_RG_AMT_XS,2022.2.5,Win32,16.3821631,NA,NA,NA,NA,NA,NA,NA,NA,NA,NA,NA,NA,NA,NA,frustrated,"frustrated, not frustrated","more frustrated, less frustrated",NA,NA,NA,NA,NA,NA,NA,NA,NA,NA,NA,NA,NA,NA,NA,NA,NA,NA,NA,NA,NA,NA,NA,NA,NA,NA,NA,NA,NA,NA,NA,NA,NA,NA,-82.55208333,4.3124,2.0039,NA,NA,NA,NA,NA,NA,NA,0,2,2,1,1,NA,NA,NA,NA,NA,NA,NA,NA,NA,NA,NA,NA,NA,NA,NA,NA,NA,NA,NA,NA,NA,NA,NA,NA,NA,NA,NA,NA,NA,NA,NA,NA,NA,NA,NA,NA,NA,NA,NA,NA,NA,NA,NA,NA,NA,NA,NA,NA,NA,NA,NA,NA,NA,NA,NA,NA,NA,NA,NA,NA,NA,NA,NA,NA,NA,NA,NA,NA
NA,NA,NA,NA,NA,NA,NA,NA,NA,NA,NA,SUPAMT96766,35L9RVQFCUH5ATCVECHJLYF4V36UH4,33D26D41-1918-46A7-973B-192AC1301302,0,2023-09-22_07h40.37.144,Pilot_VExplicitOC_RG_AMT_XS,2022.2.5,Win32,16.3821631,NA,NA,NA,NA,NA,NA,NA,NA,NA,NA,NA,NA,NA,NA,happy,"unhappy, happy","less happy, more happy",NA,NA,NA,NA,NA,NA,NA,NA,NA,NA,NA,NA,NA,NA,NA,NA,NA,NA,NA,NA,NA,NA,NA,NA,NA,NA,NA,NA,NA,NA,NA,NA,NA,NA,74.21875,6.7838,2.0512,NA,NA,NA,NA,NA,NA,NA,0,0,0,0,1,NA,NA,NA,NA,NA,NA,NA,NA,NA,NA,NA,NA,NA,NA,NA,NA,NA,NA,NA,NA,NA,NA,NA,NA,NA,NA,NA,NA,NA,NA,NA,NA,NA,NA,NA,NA,NA,NA,NA,NA,NA,NA,NA,NA,NA,NA,NA,NA,NA,NA,NA,NA,NA,NA,NA,NA,NA,NA,NA,NA,NA,NA,NA,NA,NA,NA,NA,NA
NA,NA,NA,NA,NA,NA,NA,NA,NA,NA,NA,SUPAMT96766,35L9RVQFCUH5ATCVECHJLYF4V36UH4,33D26D41-1918-46A7-973B-192AC1301302,0,2023-09-22_07h40.37.144,Pilot_VExplicitOC_RG_AMT_XS,2022.2.5,Win32,16.3821631,NA,NA,NA,NA,NA,NA,NA,NA,NA,NA,NA,NA,NA,NA,bored,"bored, not bored","more bored, less bored",NA,NA,NA,NA,NA,NA,NA,NA,NA,NA,NA,NA,NA,NA,NA,NA,NA,NA,NA,NA,NA,NA,NA,NA,NA,NA,NA,NA,NA,NA,NA,NA,NA,NA,74.21875,2.9041,2.017,NA,NA,NA,NA,NA,NA,NA,0,1,1,2,1,NA,NA,NA,NA,NA,NA,NA,NA,NA,NA,NA,NA,NA,NA,NA,NA,NA,NA,NA,NA,NA,NA,NA,NA,NA,NA,NA,NA,NA,NA,NA,NA,NA,NA,NA,NA,NA,NA,NA,NA,NA,NA,NA,NA,NA,NA,NA,NA,NA,NA,NA,NA,NA,NA,NA,NA,NA,NA,NA,NA,NA,NA,NA,NA,NA,NA,NA,NA
NA,NA,NA,NA,NA,NA,NA,NA,NA,NA,NA,SUPAMT96766,35L9RVQFCUH5ATCVECHJLYF4V36UH4,33D26D41-1918-46A7-973B-192AC1301302,0,2023-09-22_07h40.37.144,Pilot_VExplicitOC_RG_AMT_XS,2022.2.5,Win32,16.3821631,NA,NA,NA,NA,NA,NA,NA,NA,NA,NA,NA,NA,NA,NA,frustrated,"frustrated, not frustrated","more frustrated, less frustrated",NA,NA,NA,NA,NA,NA,NA,NA,NA,NA,NA,NA,NA,NA,NA,NA,NA,NA,NA,NA,NA,NA,NA,NA,NA,NA,NA,NA,NA,NA,NA,NA,NA,NA,-87.23958333,4.6691,2.0551,NA,NA,NA,NA,NA,NA,NA,0,2,2,1,1,NA,NA,NA,NA,NA,NA,NA,NA,NA,NA,NA,NA,NA,NA,NA,NA,NA,NA,NA,NA,NA,NA,NA,NA,NA,NA,NA,NA,NA,NA,NA,NA,NA,NA,NA,NA,NA,NA,NA,NA,NA,NA,NA,NA,NA,NA,NA,NA,NA,NA,NA,NA,NA,NA,NA,NA,NA,NA,NA,NA,NA,NA,NA,NA,NA,NA,NA,NA
NA,NA,NA,NA,NA,NA,NA,NA,NA,NA,NA,SUPAMT96766,35L9RVQFCUH5ATCVECHJLYF4V36UH4,33D26D41-1918-46A7-973B-192AC1301302,0,2023-09-22_07h40.37.144,Pilot_VExplicitOC_RG_AMT_XS,2022.2.5,Win32,16.3821631,NA,NA,NA,NA,NA,NA,NA,NA,NA,NA,NA,NA,NA,NA,happy,"unhappy, happy","less happy, more happy",NA,NA,NA,NA,NA,NA,NA,NA,NA,NA,NA,NA,NA,NA,NA,NA,NA,NA,NA,NA,NA,NA,NA,NA,NA,NA,NA,NA,NA,NA,NA,NA,NA,NA,-57.03125,4.5545,2.0564,NA,NA,NA,NA,NA,NA,NA,0,0,0,0,1,NA,NA,NA,NA,NA,NA,NA,NA,NA,NA,NA,NA,NA,NA,NA,NA,NA,NA,NA,NA,NA,NA,NA,NA,NA,NA,NA,NA,NA,NA,NA,NA,NA,NA,NA,NA,NA,NA,NA,NA,NA,NA,NA,NA,NA,NA,NA,NA,NA,NA,NA,NA,NA,NA,NA,NA,NA,NA,NA,NA,NA,NA,NA,NA,NA,NA,NA,NA
NA,NA,NA,NA,NA,NA,NA,NA,NA,NA,NA,SUPAMT96766,35L9RVQFCUH5ATCVECHJLYF4V36UH4,33D26D41-1918-46A7-973B-192AC1301302,0,2023-09-22_07h40.37.144,Pilot_VExplicitOC_RG_AMT_XS,2022.2.5,Win32,16.3821631,NA,NA,NA,NA,NA,NA,NA,NA,NA,NA,NA,NA,NA,NA,frustrated,"frustrated, not frustrated","more frustrated, less frustrated",NA,NA,NA,NA,NA,NA,NA,NA,NA,NA,NA,NA,NA,NA,NA,NA,NA,NA,NA,NA,NA,NA,NA,NA,NA,NA,NA,NA,NA,NA,NA,NA,NA,NA,NA,NA,2.0562,NA,NA,NA,NA,NA,NA,NA,0,1,1,1,1,NA,NA,NA,NA,NA,NA,NA,NA,NA,NA,NA,NA,NA,NA,NA,NA,NA,NA,NA,NA,NA,NA,NA,NA,NA,NA,NA,NA,NA,NA,NA,NA,NA,NA,NA,NA,NA,NA,NA,NA,NA,NA,NA,NA,NA,NA,NA,NA,NA,NA,NA,NA,NA,NA,NA,NA,NA,NA,NA,NA,NA,NA,NA,NA,NA,NA,NA,NA
NA,NA,NA,NA,NA,NA,NA,NA,NA,NA,NA,SUPAMT96766,35L9RVQFCUH5ATCVECHJLYF4V36UH4,33D26D41-1918-46A7-973B-192AC1301302,0,2023-09-22_07h40.37.144,Pilot_VExplicitOC_RG_AMT_XS,2022.2.5,Win32,16.3821631,NA,NA,NA,NA,NA,NA,NA,NA,NA,NA,NA,NA,NA,NA,bored,"bored, not bored","more bored, less bored",NA,NA,NA,NA,NA,NA,NA,NA,NA,NA,NA,NA,NA,NA,NA,NA,NA,NA,NA,NA,NA,NA,NA,NA,NA,NA,NA,NA,NA,NA,NA,NA,NA,NA,58.33333333,7.1588,2.0088,NA,NA,NA,NA,NA,NA,NA,0,2,2,2,1,NA,NA,NA,NA,NA,NA,NA,NA,NA,NA,NA,NA,NA,NA,NA,NA,NA,NA,NA,NA,NA,NA,NA,NA,NA,NA,NA,NA,NA,NA,NA,NA,NA,NA,NA,NA,NA,NA,NA,NA,NA,NA,NA,NA,NA,NA,NA,NA,NA,NA,NA,NA,NA,NA,NA,NA,NA,NA,NA,NA,NA,NA,NA,NA,NA,NA,NA,NA
NA,NA,NA,NA,NA,NA,NA,NA,NA,NA,NA,SUPAMT96766,35L9RVQFCUH5ATCVECHJLYF4V36UH4,33D26D41-1918-46A7-973B-192AC1301302,0,2023-09-22_07h40.37.144,Pilot_VExplicitOC_RG_AMT_XS,2022.2.5,Win32,16.3821631,NA,NA,NA,NA,NA,NA,NA,NA,NA,NA,NA,NA,NA,NA,happy,"unhappy, happy","less happy, more happy",NA,NA,NA,NA,NA,NA,NA,NA,NA,NA,NA,NA,NA,NA,NA,NA,NA,NA,NA,NA,NA,NA,NA,NA,NA,NA,NA,NA,NA,NA,NA,NA,NA,NA,NA,NA,2.0335,NA,NA,NA,NA,NA,NA,NA,0,0,0,0,1,NA,NA,NA,NA,NA,NA,NA,NA,NA,NA,NA,NA,NA,NA,NA,NA,NA,NA,NA,NA,NA,NA,NA,NA,NA,NA,NA,NA,NA,NA,NA,NA,NA,NA,NA,NA,NA,NA,NA,NA,NA,NA,NA,NA,NA,NA,NA,NA,NA,NA,NA,NA,NA,NA,NA,NA,NA,NA,NA,NA,NA,NA,NA,NA,NA,NA,NA,NA
NA,NA,NA,NA,NA,NA,NA,NA,NA,NA,NA,SUPAMT96766,35L9RVQFCUH5ATCVECHJLYF4V36UH4,33D26D41-1918-46A7-973B-192AC1301302,0,2023-09-22_07h40.37.144,Pilot_VExplicitOC_RG_AMT_XS,2022.2.5,Win32,16.3821631,NA,NA,NA,NA,NA,NA,NA,NA,NA,NA,NA,NA,NA,NA,bored,"bored, not bored","more bored, less bored",NA,NA,NA,NA,NA,NA,NA,NA,NA,NA,NA,NA,NA,NA,NA,NA,NA,NA,NA,NA,NA,NA,NA,NA,NA,NA,NA,NA,NA,NA,NA,NA,NA,NA,59.63541667,3.727,2.0395,NA,NA,NA,NA,NA,NA,NA,0,1,1,2,1,NA,NA,NA,NA,NA,NA,NA,NA,NA,NA,NA,NA,NA,NA,NA,NA,NA,NA,NA,NA,NA,NA,NA,NA,NA,NA,NA,NA,NA,NA,NA,NA,NA,NA,NA,NA,NA,NA,NA,NA,NA,NA,NA,NA,NA,NA,NA,NA,NA,NA,NA,NA,NA,NA,NA,NA,NA,NA,NA,NA,NA,NA,NA,NA,NA,NA,NA,NA
NA,NA,NA,NA,NA,NA,NA,NA,NA,NA,NA,SUPAMT96766,35L9RVQFCUH5ATCVECHJLYF4V36UH4,33D26D41-1918-46A7-973B-192AC1301302,0,2023-09-22_07h40.37.144,Pilot_VExplicitOC_RG_AMT_XS,2022.2.5,Win32,16.3821631,NA,NA,NA,NA,NA,NA,NA,NA,NA,NA,NA,NA,NA,NA,frustrated,"frustrated, not frustrated","more frustrated, less frustrated",NA,NA,NA,NA,NA,NA,NA,NA,NA,NA,NA,NA,NA,NA,NA,NA,NA,NA,NA,NA,NA,NA,NA,NA,NA,NA,NA,NA,NA,NA,NA,NA,NA,NA,-69.27083333,4.9635,2.0519,NA,NA,NA,NA,NA,NA,NA,0,2,2,1,1,NA,NA,NA,NA,NA,NA,NA,NA,NA,NA,NA,NA,NA,NA,NA,NA,NA,NA,NA,NA,NA,NA,NA,NA,NA,NA,NA,NA,NA,NA,NA,NA,NA,NA,NA,NA,NA,NA,NA,NA,NA,NA,NA,NA,NA,NA,NA,NA,NA,NA,NA,NA,NA,NA,NA,NA,NA,NA,NA,NA,NA,NA,NA,NA,NA,NA,NA,NA
NA,NA,NA,NA,NA,NA,NA,NA,NA,NA,NA,SUPAMT96766,35L9RVQFCUH5ATCVECHJLYF4V36UH4,33D26D41-1918-46A7-973B-192AC1301302,0,2023-09-22_07h40.37.144,Pilot_VExplicitOC_RG_AMT_XS,2022.2.5,Win32,16.3821631,NA,NA,NA,NA,NA,NA,NA,NA,NA,NA,NA,NA,NA,NA,happy,"unhappy, happy","less happy, more happy",NA,NA,NA,NA,NA,NA,NA,NA,NA,NA,NA,NA,NA,NA,NA,NA,NA,NA,NA,NA,NA,NA,NA,NA,NA,NA,NA,NA,NA,NA,NA,NA,NA,NA,NA,NA,2.068,NA,NA,NA,NA,NA,NA,NA,0,0,0,0,1,NA,NA,NA,NA,NA,NA,NA,NA,NA,NA,NA,NA,NA,NA,NA,NA,NA,NA,NA,NA,NA,NA,NA,NA,NA,NA,NA,NA,NA,NA,NA,NA,NA,NA,NA,NA,NA,NA,NA,NA,NA,NA,NA,NA,NA,NA,NA,NA,NA,NA,NA,NA,NA,NA,NA,NA,NA,NA,NA,NA,NA,NA,NA,NA,NA,NA,NA,NA
NA,NA,NA,NA,NA,NA,NA,NA,NA,NA,NA,SUPAMT96766,35L9RVQFCUH5ATCVECHJLYF4V36UH4,33D26D41-1918-46A7-973B-192AC1301302,0,2023-09-22_07h40.37.144,Pilot_VExplicitOC_RG_AMT_XS,2022.2.5,Win32,16.3821631,NA,NA,NA,NA,NA,NA,NA,NA,NA,NA,NA,NA,NA,NA,bored,"bored, not bored","more bored, less bored",NA,NA,NA,NA,NA,NA,NA,NA,NA,NA,NA,NA,NA,NA,NA,NA,NA,NA,NA,NA,NA,NA,NA,NA,NA,NA,NA,NA,NA,NA,NA,NA,NA,NA,NA,NA,2.0102,NA,NA,NA,NA,NA,NA,NA,0,1,1,2,1,NA,NA,NA,NA,NA,NA,NA,NA,NA,NA,NA,NA,NA,NA,NA,NA,NA,NA,NA,NA,NA,NA,NA,NA,NA,NA,NA,NA,NA,NA,NA,NA,NA,NA,NA,NA,NA,NA,NA,NA,NA,NA,NA,NA,NA,NA,NA,NA,NA,NA,NA,NA,NA,NA,NA,NA,NA,NA,NA,NA,NA,NA,NA,NA,NA,NA,NA,NA
NA,NA,NA,NA,NA,NA,NA,NA,NA,NA,NA,SUPAMT96766,35L9RVQFCUH5ATCVECHJLYF4V36UH4,33D26D41-1918-46A7-973B-192AC1301302,0,2023-09-22_07h40.37.144,Pilot_VExplicitOC_RG_AMT_XS,2022.2.5,Win32,16.3821631,NA,NA,NA,NA,NA,NA,NA,NA,NA,NA,NA,NA,NA,NA,frustrated,"frustrated, not frustrated","more frustrated, less frustrated",NA,NA,NA,NA,NA,NA,NA,NA,NA,NA,NA,NA,NA,NA,NA,NA,NA,NA,NA,NA,NA,NA,NA,NA,NA,NA,NA,NA,NA,NA,NA,NA,NA,NA,NA,NA,2.0743,NA,NA,NA,NA,NA,NA,NA,0,2,2,1,1,NA,NA,NA,NA,NA,NA,NA,NA,NA,NA,NA,NA,NA,NA,NA,NA,NA,NA,NA,NA,NA,NA,NA,NA,NA,NA,NA,NA,NA,NA,NA,NA,NA,NA,NA,NA,NA,NA,NA,NA,NA,NA,NA,NA,NA,NA,NA,NA,NA,NA,NA,NA,NA,NA,NA,NA,NA,NA,NA,NA,NA,NA,NA,NA,NA,NA,NA,NA
NA,NA,NA,NA,NA,NA,NA,NA,NA,NA,NA,SUPAMT96766,35L9RVQFCUH5ATCVECHJLYF4V36UH4,33D26D41-1918-46A7-973B-192AC1301302,0,2023-09-22_07h40.37.144,Pilot_VExplicitOC_RG_AMT_XS,2022.2.5,Win32,16.3821631,NA,NA,NA,NA,NA,NA,NA,NA,NA,NA,NA,NA,NA,NA,happy,"unhappy, happy","less happy, more happy",NA,NA,NA,NA,NA,NA,NA,NA,NA,NA,NA,NA,NA,NA,NA,NA,NA,NA,NA,NA,NA,NA,NA,NA,NA,NA,NA,NA,NA,NA,NA,NA,NA,NA,-64.58333333,3.9963,2.063,NA,NA,NA,NA,NA,NA,NA,0,0,0,0,1,NA,NA,NA,NA,NA,NA,NA,NA,NA,NA,NA,NA,NA,NA,NA,NA,NA,NA,NA,NA,NA,NA,NA,NA,NA,NA,NA,NA,NA,NA,NA,NA,NA,NA,NA,NA,NA,NA,NA,NA,NA,NA,NA,NA,NA,NA,NA,NA,NA,NA,NA,NA,NA,NA,NA,NA,NA,NA,NA,NA,NA,NA,NA,NA,NA,NA,NA,NA
NA,NA,NA,NA,NA,NA,NA,NA,NA,NA,NA,SUPAMT96766,35L9RVQFCUH5ATCVECHJLYF4V36UH4,33D26D41-1918-46A7-973B-192AC1301302,0,2023-09-22_07h40.37.144,Pilot_VExplicitOC_RG_AMT_XS,2022.2.5,Win32,16.3821631,NA,NA,NA,NA,NA,NA,NA,NA,NA,NA,NA,NA,NA,NA,bored,"bored, not bored","more bored, less bored",NA,NA,NA,NA,NA,NA,NA,NA,NA,NA,NA,NA,NA,NA,NA,NA,NA,NA,NA,NA,NA,NA,NA,NA,NA,NA,NA,NA,NA,NA,NA,NA,NA,NA,75,4.3054,2.0446,NA,NA,NA,NA,NA,NA,NA,0,1,1,2,1,NA,NA,NA,NA,NA,NA,NA,NA,NA,NA,NA,NA,NA,NA,NA,NA,NA,NA,NA,NA,NA,NA,NA,NA,NA,NA,NA,NA,NA,NA,NA,NA,NA,NA,NA,NA,NA,NA,NA,NA,NA,NA,NA,NA,NA,NA,NA,NA,NA,NA,NA,NA,NA,NA,NA,NA,NA,NA,NA,NA,NA,NA,NA,NA,NA,NA,NA,NA
NA,NA,NA,NA,NA,NA,NA,NA,NA,NA,NA,SUPAMT96766,35L9RVQFCUH5ATCVECHJLYF4V36UH4,33D26D41-1918-46A7-973B-192AC1301302,0,2023-09-22_07h40.37.144,Pilot_VExplicitOC_RG_AMT_XS,2022.2.5,Win32,16.3821631,NA,NA,NA,NA,NA,NA,NA,NA,NA,NA,NA,NA,NA,NA,frustrated,"frustrated, not frustrated","more frustrated, less frustrated",NA,NA,NA,NA,NA,NA,NA,NA,NA,NA,NA,NA,NA,NA,NA,NA,NA,NA,NA,NA,NA,NA,NA,NA,NA,NA,NA,NA,NA,NA,NA,NA,NA,NA,-71.35416667,5.1302,2.0605,NA,NA,NA,NA,NA,NA,NA,0,2,2,1,1,NA,NA,NA,NA,NA,NA,NA,NA,NA,NA,NA,NA,NA,NA,NA,NA,NA,NA,NA,NA,NA,NA,NA,NA,NA,NA,NA,NA,NA,NA,NA,NA,NA,NA,NA,NA,NA,NA,NA,NA,NA,NA,NA,NA,NA,NA,NA,NA,NA,NA,NA,NA,NA,NA,NA,NA,NA,NA,NA,NA,NA,NA,NA,NA,NA,NA,NA,NA
NA,NA,NA,NA,NA,NA,NA,NA,NA,NA,NA,SUPAMT96766,35L9RVQFCUH5ATCVECHJLYF4V36UH4,33D26D41-1918-46A7-973B-192AC1301302,0,2023-09-22_07h40.37.144,Pilot_VExplicitOC_RG_AMT_XS,2022.2.5,Win32,16.3821631,NA,NA,NA,NA,NA,NA,NA,NA,NA,NA,NA,NA,NA,NA,bored,"bored, not bored","more bored, less bored",NA,NA,NA,NA,NA,NA,NA,NA,NA,NA,NA,NA,NA,NA,NA,NA,NA,NA,NA,NA,NA,NA,NA,NA,NA,NA,NA,NA,NA,NA,NA,NA,NA,NA,71.61458333,7.3656,2.0341,NA,NA,NA,NA,NA,NA,NA,0,0,0,2,1,NA,NA,NA,NA,NA,NA,NA,NA,NA,NA,NA,NA,NA,NA,NA,NA,NA,NA,NA,NA,NA,NA,NA,NA,NA,NA,NA,NA,NA,NA,NA,NA,NA,NA,NA,NA,NA,NA,NA,NA,NA,NA,NA,NA,NA,NA,NA,NA,NA,NA,NA,NA,NA,NA,NA,NA,NA,NA,NA,NA,NA,NA,NA,NA,NA,NA,NA,NA
NA,NA,NA,NA,NA,NA,NA,NA,NA,NA,NA,SUPAMT96766,35L9RVQFCUH5ATCVECHJLYF4V36UH4,33D26D41-1918-46A7-973B-192AC1301302,0,2023-09-22_07h40.37.144,Pilot_VExplicitOC_RG_AMT_XS,2022.2.5,Win32,16.3821631,NA,NA,NA,NA,NA,NA,NA,NA,NA,NA,NA,NA,NA,NA,happy,"unhappy, happy","less happy, more happy",NA,NA,NA,NA,NA,NA,NA,NA,NA,NA,NA,NA,NA,NA,NA,NA,NA,NA,NA,NA,NA,NA,NA,NA,NA,NA,NA,NA,NA,NA,NA,NA,NA,NA,83.59375,6.5892,2.06,NA,NA,NA,NA,NA,NA,NA,0,1,1,0,1,NA,NA,NA,NA,NA,NA,NA,NA,NA,NA,NA,NA,NA,NA,NA,NA,NA,NA,NA,NA,NA,NA,NA,NA,NA,NA,NA,NA,NA,NA,NA,NA,NA,NA,NA,NA,NA,NA,NA,NA,NA,NA,NA,NA,NA,NA,NA,NA,NA,NA,NA,NA,NA,NA,NA,NA,NA,NA,NA,NA,NA,NA,NA,NA,NA,NA,NA,NA
NA,NA,NA,NA,NA,NA,NA,NA,NA,NA,NA,SUPAMT96766,35L9RVQFCUH5ATCVECHJLYF4V36UH4,33D26D41-1918-46A7-973B-192AC1301302,0,2023-09-22_07h40.37.144,Pilot_VExplicitOC_RG_AMT_XS,2022.2.5,Win32,16.3821631,NA,NA,NA,NA,NA,NA,NA,NA,NA,NA,NA,NA,NA,NA,frustrated,"frustrated, not frustrated","more frustrated, less frustrated",NA,NA,NA,NA,NA,NA,NA,NA,NA,NA,NA,NA,NA,NA,NA,NA,NA,NA,NA,NA,NA,NA,NA,NA,NA,NA,NA,NA,NA,NA,NA,NA,NA,NA,NA,NA,2.0297,NA,NA,NA,NA,NA,NA,NA,0,2,2,1,1,NA,NA,NA,NA,NA,NA,NA,NA,NA,NA,NA,NA,NA,NA,NA,NA,NA,NA,NA,NA,NA,NA,NA,NA,NA,NA,NA,NA,NA,NA,NA,NA,NA,NA,NA,NA,NA,NA,NA,NA,NA,NA,NA,NA,NA,NA,NA,NA,NA,NA,NA,NA,NA,NA,NA,NA,NA,NA,NA,NA,NA,NA,NA,NA,NA,NA,NA,NA
NA,NA,NA,NA,NA,NA,NA,NA,NA,NA,NA,SUPAMT96766,35L9RVQFCUH5ATCVECHJLYF4V36UH4,33D26D41-1918-46A7-973B-192AC1301302,0,2023-09-22_07h40.37.144,Pilot_VExplicitOC_RG_AMT_XS,2022.2.5,Win32,16.3821631,NA,NA,NA,NA,NA,NA,NA,NA,NA,NA,NA,NA,NA,NA,frustrated,"frustrated, not frustrated","more frustrated, less frustrated",NA,NA,NA,NA,NA,NA,NA,NA,NA,NA,NA,NA,-69.79166667,6.812,2.0273,0,0,0,1,1,NA,NA,NA,NA,NA,NA,NA,NA,NA,NA,NA,NA,NA,NA,NA,NA,NA,NA,NA,NA,NA,NA,NA,NA,NA,NA,NA,NA,NA,NA,NA,NA,NA,NA,NA,NA,NA,NA,NA,NA,NA,NA,NA,NA,NA,NA,NA,NA,NA,NA,NA,NA,NA,NA,NA,NA,NA,NA,NA,NA,NA,NA,NA,NA,NA,NA,NA,NA,NA,NA,NA,NA,NA,NA,NA,NA,NA,NA,NA,NA,NA,NA,NA,NA,NA,NA,NA,NA,NA,NA,NA,NA,NA,NA,NA,NA,NA
NA,NA,NA,NA,NA,NA,NA,NA,NA,NA,NA,SUPAMT96766,35L9RVQFCUH5ATCVECHJLYF4V36UH4,33D26D41-1918-46A7-973B-192AC1301302,0,2023-09-22_07h40.37.144,Pilot_VExplicitOC_RG_AMT_XS,2022.2.5,Win32,16.3821631,NA,NA,NA,NA,NA,NA,NA,NA,NA,NA,NA,NA,NA,NA,happy,"unhappy, happy","less happy, more happy",NA,NA,NA,NA,NA,NA,NA,NA,NA,NA,NA,NA,NA,NA,2.0631,0,1,1,0,1,NA,NA,NA,NA,NA,NA,NA,NA,NA,NA,NA,NA,NA,NA,NA,NA,NA,NA,NA,NA,NA,NA,NA,NA,NA,NA,NA,NA,NA,NA,NA,NA,NA,NA,NA,NA,NA,NA,NA,NA,NA,NA,NA,NA,NA,NA,NA,NA,NA,NA,NA,NA,NA,NA,NA,NA,NA,NA,NA,NA,NA,NA,NA,NA,NA,NA,NA,NA,NA,NA,NA,NA,NA,NA,NA,NA,NA,NA,NA,NA,NA,NA,NA,NA,NA,NA,NA,NA,NA,NA,NA,NA,NA,NA,NA,NA,NA
NA,NA,NA,NA,NA,NA,NA,NA,NA,NA,NA,SUPAMT96766,35L9RVQFCUH5ATCVECHJLYF4V36UH4,33D26D41-1918-46A7-973B-192AC1301302,0,2023-09-22_07h40.37.144,Pilot_VExplicitOC_RG_AMT_XS,2022.2.5,Win32,16.3821631,NA,NA,NA,NA,NA,NA,NA,NA,NA,NA,NA,NA,NA,NA,bored,"bored, not bored","more bored, less bored",NA,NA,NA,NA,NA,NA,NA,NA,NA,NA,NA,NA,77.86458333,6.6598,2.0445,0,2,2,2,1,NA,NA,NA,NA,NA,NA,NA,NA,NA,NA,NA,NA,NA,NA,NA,NA,NA,NA,NA,NA,NA,NA,NA,NA,NA,NA,NA,NA,NA,NA,NA,NA,NA,NA,NA,NA,NA,NA,NA,NA,NA,NA,NA,NA,NA,NA,NA,NA,NA,NA,NA,NA,NA,NA,NA,NA,NA,NA,NA,NA,NA,NA,NA,NA,NA,NA,NA,NA,NA,NA,NA,NA,NA,NA,NA,NA,NA,NA,NA,NA,NA,NA,NA,NA,NA,NA,NA,NA,NA,NA,NA,NA,NA,NA,NA,NA,NA
NA,NA,NA,NA,NA,NA,NA,NA,NA,NA,NA,SUPAMT96766,35L9RVQFCUH5ATCVECHJLYF4V36UH4,33D26D41-1918-46A7-973B-192AC1301302,0,2023-09-22_07h40.37.144,Pilot_VExplicitOC_RG_AMT_XS,2022.2.5,Win32,16.3821631,NA,NA,NA,NA,NA,NA,NA,NA,NA,NA,NA,NA,NA,NA,NA,NA,NA,NA,NA,NA,NA,NA,NA,NA,NA,NA,NA,NA,NA,NA,NA,NA,NA,NA,NA,NA,NA,NA,NA,NA,NA,NA,NA,NA,NA,NA,NA,NA,NA,NA,NA,NA,NA,NA,NA,NA,NA,NA,NA,NA,NA,NA,NA,NA,NA,NA,space,2.1983,77.86458333,1.4785,0,0,0,0,1,gambling game,011.png,NA,NA,NA,NA,NA,NA,NA,NA,NA,NA,NA,NA,NA,NA,NA,NA,NA,NA,NA,NA,NA,NA,NA,NA,NA,NA,NA,NA,NA,NA,NA,NA,NA,NA,NA,NA,NA,NA,NA,NA,NA,NA,NA,NA,NA,NA,NA,NA,NA,NA,NA,NA,NA,NA,NA,NA,NA
NA,NA,NA,NA,NA,NA,NA,NA,NA,NA,NA,SUPAMT96766,35L9RVQFCUH5ATCVECHJLYF4V36UH4,33D26D41-1918-46A7-973B-192AC1301302,0,2023-09-22_07h40.37.144,Pilot_VExplicitOC_RG_AMT_XS,2022.2.5,Win32,16.3821631,NA,NA,NA,NA,NA,NA,NA,NA,NA,NA,NA,NA,NA,NA,NA,NA,NA,NA,NA,NA,NA,NA,NA,NA,NA,NA,NA,NA,NA,NA,NA,NA,NA,NA,NA,NA,NA,NA,NA,NA,NA,NA,NA,NA,NA,NA,NA,NA,NA,NA,NA,NA,NA,NA,NA,NA,NA,NA,NA,NA,NA,NA,NA,NA,NA,NA,NA,NA,77.86458333,0.2089,0,1,1,1,1,stand up,002.png,NA,NA,NA,NA,NA,NA,NA,NA,NA,NA,NA,NA,NA,NA,NA,NA,NA,NA,NA,NA,NA,NA,NA,NA,NA,NA,NA,NA,NA,NA,NA,NA,NA,NA,NA,NA,NA,NA,NA,NA,NA,NA,NA,NA,NA,NA,NA,NA,NA,NA,NA,NA,NA,NA,NA,NA,NA
NA,NA,NA,NA,NA,NA,NA,NA,NA,NA,NA,SUPAMT96766,35L9RVQFCUH5ATCVECHJLYF4V36UH4,33D26D41-1918-46A7-973B-192AC1301302,0,2023-09-22_07h40.37.144,Pilot_VExplicitOC_RG_AMT_XS,2022.2.5,Win32,16.3821631,NA,NA,NA,NA,NA,NA,NA,NA,NA,NA,NA,NA,NA,NA,NA,NA,NA,NA,NA,NA,NA,NA,NA,NA,NA,NA,NA,NA,NA,NA,NA,NA,NA,NA,NA,NA,NA,NA,NA,NA,NA,NA,NA,NA,NA,NA,NA,NA,NA,NA,NA,NA,NA,NA,NA,NA,NA,NA,NA,NA,NA,NA,NA,NA,NA,NA,NA,NA,77.60416667,0.3416,0,2,2,2,1,stretch,003.png,NA,NA,NA,NA,NA,NA,NA,NA,NA,NA,NA,NA,NA,NA,NA,NA,NA,NA,NA,NA,NA,NA,NA,NA,NA,NA,NA,NA,NA,NA,NA,NA,NA,NA,NA,NA,NA,NA,NA,NA,NA,NA,NA,NA,NA,NA,NA,NA,NA,NA,NA,NA,NA,NA,NA,NA,NA
NA,NA,NA,NA,NA,NA,NA,NA,NA,NA,NA,SUPAMT96766,35L9RVQFCUH5ATCVECHJLYF4V36UH4,33D26D41-1918-46A7-973B-192AC1301302,0,2023-09-22_07h40.37.144,Pilot_VExplicitOC_RG_AMT_XS,2022.2.5,Win32,16.3821631,NA,NA,NA,NA,NA,NA,NA,NA,NA,NA,NA,NA,NA,NA,NA,NA,NA,NA,NA,NA,NA,NA,NA,NA,NA,NA,NA,NA,NA,NA,NA,NA,NA,NA,NA,NA,NA,NA,NA,NA,NA,NA,NA,NA,NA,NA,NA,NA,NA,NA,NA,NA,NA,NA,NA,NA,NA,NA,NA,NA,NA,NA,NA,NA,NA,NA,NA,NA,77.34375,0.6436,0,3,3,3,1,make a drink,004.png,NA,NA,NA,NA,NA,NA,NA,NA,NA,NA,NA,NA,NA,NA,NA,NA,NA,NA,NA,NA,NA,NA,NA,NA,NA,NA,NA,NA,NA,NA,NA,NA,NA,NA,NA,NA,NA,NA,NA,NA,NA,NA,NA,NA,NA,NA,NA,NA,NA,NA,NA,NA,NA,NA,NA,NA,NA
NA,NA,NA,NA,NA,NA,NA,NA,NA,NA,NA,SUPAMT96766,35L9RVQFCUH5ATCVECHJLYF4V36UH4,33D26D41-1918-46A7-973B-192AC1301302,0,2023-09-22_07h40.37.144,Pilot_VExplicitOC_RG_AMT_XS,2022.2.5,Win32,16.3821631,NA,NA,NA,NA,NA,NA,NA,NA,NA,NA,NA,NA,NA,NA,NA,NA,NA,NA,NA,NA,NA,NA,NA,NA,NA,NA,NA,NA,NA,NA,NA,NA,NA,NA,NA,NA,NA,NA,NA,NA,NA,NA,NA,NA,NA,NA,NA,NA,NA,NA,NA,NA,NA,NA,NA,NA,NA,NA,NA,NA,NA,NA,NA,NA,NA,NA,NA,NA,77.08333333,0.5553,0,4,4,4,1,scroll social media,005.png,NA,NA,NA,NA,NA,NA,NA,NA,NA,NA,NA,NA,NA,NA,NA,NA,NA,NA,NA,NA,NA,NA,NA,NA,NA,NA,NA,NA,NA,NA,NA,NA,NA,NA,NA,NA,NA,NA,NA,NA,NA,NA,NA,NA,NA,NA,NA,NA,NA,NA,NA,NA,NA,NA,NA,NA,NA
NA,NA,NA,NA,NA,NA,NA,NA,NA,NA,NA,SUPAMT96766,35L9RVQFCUH5ATCVECHJLYF4V36UH4,33D26D41-1918-46A7-973B-192AC1301302,0,2023-09-22_07h40.37.144,Pilot_VExplicitOC_RG_AMT_XS,2022.2.5,Win32,16.3821631,NA,NA,NA,NA,NA,NA,NA,NA,NA,NA,NA,NA,NA,NA,NA,NA,NA,NA,NA,NA,NA,NA,NA,NA,NA,NA,NA,NA,NA,NA,NA,NA,NA,NA,NA,NA,NA,NA,NA,NA,NA,NA,NA,NA,NA,NA,NA,NA,NA,NA,NA,NA,NA,NA,NA,NA,NA,NA,NA,NA,NA,NA,NA,NA,NA,NA,NA,NA,77.08333333,0.3567,0,5,5,5,1,listen to music,006.png,NA,NA,NA,NA,NA,NA,NA,NA,NA,NA,NA,NA,NA,NA,NA,NA,NA,NA,NA,NA,NA,NA,NA,NA,NA,NA,NA,NA,NA,NA,NA,NA,NA,NA,NA,NA,NA,NA,NA,NA,NA,NA,NA,NA,NA,NA,NA,NA,NA,NA,NA,NA,NA,NA,NA,NA,NA
NA,NA,NA,NA,NA,NA,NA,NA,NA,NA,NA,SUPAMT96766,35L9RVQFCUH5ATCVECHJLYF4V36UH4,33D26D41-1918-46A7-973B-192AC1301302,0,2023-09-22_07h40.37.144,Pilot_VExplicitOC_RG_AMT_XS,2022.2.5,Win32,16.3821631,NA,NA,NA,NA,NA,NA,NA,NA,NA,NA,NA,NA,NA,NA,NA,NA,NA,NA,NA,NA,NA,NA,NA,NA,NA,NA,NA,NA,NA,NA,NA,NA,NA,NA,NA,NA,NA,NA,NA,NA,NA,NA,NA,NA,NA,NA,NA,NA,NA,NA,NA,NA,NA,NA,NA,NA,NA,NA,NA,NA,NA,NA,NA,NA,NA,NA,NA,NA,77.08333333,0.2039,0,6,6,6,1,daydream,007.png,NA,NA,NA,NA,NA,NA,NA,NA,NA,NA,NA,NA,NA,NA,NA,NA,NA,NA,NA,NA,NA,NA,NA,NA,NA,NA,NA,NA,NA,NA,NA,NA,NA,NA,NA,NA,NA,NA,NA,NA,NA,NA,NA,NA,NA,NA,NA,NA,NA,NA,NA,NA,NA,NA,NA,NA,NA
NA,NA,NA,NA,NA,NA,NA,NA,NA,NA,NA,SUPAMT96766,35L9RVQFCUH5ATCVECHJLYF4V36UH4,33D26D41-1918-46A7-973B-192AC1301302,0,2023-09-22_07h40.37.144,Pilot_VExplicitOC_RG_AMT_XS,2022.2.5,Win32,16.3821631,NA,NA,NA,NA,NA,NA,NA,NA,NA,NA,NA,NA,NA,NA,NA,NA,NA,NA,NA,NA,NA,NA,NA,NA,NA,NA,NA,NA,NA,NA,NA,NA,NA,NA,NA,NA,NA,NA,NA,NA,NA,NA,NA,NA,NA,NA,NA,NA,NA,NA,NA,NA,NA,NA,NA,NA,NA,NA,NA,NA,NA,NA,NA,NA,NA,NA,NA,NA,77.08333333,0.2218,0,7,7,7,1,watch a short animation,008.png,NA,NA,NA,NA,NA,NA,NA,NA,NA,NA,NA,NA,NA,NA,NA,NA,NA,NA,NA,NA,NA,NA,NA,NA,NA,NA,NA,NA,NA,NA,NA,NA,NA,NA,NA,NA,NA,NA,NA,NA,NA,NA,NA,NA,NA,NA,NA,NA,NA,NA,NA,NA,NA,NA,NA,NA,NA
NA,NA,NA,NA,NA,NA,NA,NA,NA,NA,NA,SUPAMT96766,35L9RVQFCUH5ATCVECHJLYF4V36UH4,33D26D41-1918-46A7-973B-192AC1301302,0,2023-09-22_07h40.37.144,Pilot_VExplicitOC_RG_AMT_XS,2022.2.5,Win32,16.3821631,NA,NA,NA,NA,NA,NA,NA,NA,NA,NA,NA,NA,NA,NA,NA,NA,NA,NA,NA,NA,NA,NA,NA,NA,NA,NA,NA,NA,NA,NA,NA,NA,NA,NA,NA,NA,NA,NA,NA,NA,NA,NA,NA,NA,NA,NA,NA,NA,NA,NA,NA,NA,NA,NA,NA,NA,NA,NA,NA,NA,NA,NA,NA,NA,NA,NA,NA,NA,77.08333333,0.1656,0,8,8,8,1,read a novel,009.png,NA,NA,NA,NA,NA,NA,NA,NA,NA,NA,NA,NA,NA,NA,NA,NA,NA,NA,NA,NA,NA,NA,NA,NA,NA,NA,NA,NA,NA,NA,NA,NA,NA,NA,NA,NA,NA,NA,NA,NA,NA,NA,NA,NA,NA,NA,NA,NA,NA,NA,NA,NA,NA,NA,NA,NA,NA
NA,NA,NA,NA,NA,NA,NA,NA,NA,NA,NA,SUPAMT96766,35L9RVQFCUH5ATCVECHJLYF4V36UH4,33D26D41-1918-46A7-973B-192AC1301302,0,2023-09-22_07h40.37.144,Pilot_VExplicitOC_RG_AMT_XS,2022.2.5,Win32,16.3821631,NA,NA,NA,NA,NA,NA,NA,NA,NA,NA,NA,NA,NA,NA,NA,NA,NA,NA,NA,NA,NA,NA,NA,NA,NA,NA,NA,NA,NA,NA,NA,NA,NA,NA,NA,NA,NA,NA,NA,NA,NA,NA,NA,NA,NA,NA,NA,NA,NA,NA,NA,NA,NA,NA,NA,NA,NA,NA,NA,NA,NA,NA,NA,NA,NA,NA,NA,NA,77.08333333,0.1849,0,9,9,9,1,read the news,010.png,NA,NA,NA,NA,NA,NA,NA,NA,NA,NA,NA,NA,NA,NA,NA,NA,NA,NA,NA,NA,NA,NA,NA,NA,NA,NA,NA,NA,NA,NA,NA,NA,NA,NA,NA,NA,NA,NA,NA,NA,NA,NA,NA,NA,NA,NA,NA,NA,NA,NA,NA,NA,NA,NA,NA,NA,NA
NA,NA,NA,NA,NA,NA,NA,NA,NA,NA,NA,SUPAMT96766,35L9RVQFCUH5ATCVECHJLYF4V36UH4,33D26D41-1918-46A7-973B-192AC1301302,0,2023-09-22_07h40.37.144,Pilot_VExplicitOC_RG_AMT_XS,2022.2.5,Win32,16.3821631,NA,NA,NA,NA,NA,NA,NA,NA,NA,NA,NA,NA,NA,NA,NA,NA,NA,NA,NA,NA,NA,NA,NA,NA,NA,NA,NA,NA,NA,NA,NA,NA,NA,NA,NA,NA,NA,NA,NA,NA,NA,NA,NA,NA,NA,NA,NA,NA,NA,NA,NA,NA,NA,NA,NA,NA,NA,NA,NA,NA,NA,NA,NA,NA,NA,NA,NA,NA,77.08333333,0.2047,0,10,10,10,1,rest (looking at a fixed cross),001.png,NA,NA,NA,NA,NA,NA,NA,NA,NA,NA,NA,NA,NA,NA,NA,NA,NA,NA,NA,NA,NA,NA,NA,NA,NA,NA,NA,NA,NA,NA,NA,NA,NA,NA,NA,NA,NA,NA,NA,NA,NA,NA,NA,NA,NA,NA,NA,NA,NA,NA,NA,NA,NA,NA,NA,NA,NA
NA,NA,NA,NA,NA,NA,NA,NA,NA,NA,NA,SUPAMT96766,35L9RVQFCUH5ATCVECHJLYF4V36UH4,33D26D41-1918-46A7-973B-192AC1301302,0,2023-09-22_07h40.37.144,Pilot_VExplicitOC_RG_AMT_XS,2022.2.5,Win32,16.3821631,NA,NA,NA,NA,NA,NA,NA,NA,NA,NA,NA,NA,NA,NA,bored,"bored, not bored","more bored, less bored",NA,NA,NA,NA,NA,NA,NA,NA,NA,NA,NA,NA,NA,NA,NA,NA,NA,NA,NA,NA,NA,NA,NA,NA,NA,NA,NA,NA,NA,NA,NA,NA,NA,NA,NA,NA,2.056,NA,NA,NA,NA,NA,NA,NA,NA,NA,NA,NA,NA,NA,NA,NA,NA,NA,NA,NA,NA,NA,NA,NA,stand up,0,0,0,2,1,NA,NA,NA,NA,NA,NA,NA,NA,NA,NA,NA,NA,NA,NA,NA,NA,NA,NA,NA,NA,NA,NA,NA,NA,NA,NA,NA,NA,NA,NA,NA,NA,NA,NA,NA,NA,NA,NA,NA,NA,NA,NA,NA,NA,NA,NA,NA,NA,NA,NA,NA
NA,NA,NA,NA,NA,NA,NA,NA,NA,NA,NA,SUPAMT96766,35L9RVQFCUH5ATCVECHJLYF4V36UH4,33D26D41-1918-46A7-973B-192AC1301302,0,2023-09-22_07h40.37.144,Pilot_VExplicitOC_RG_AMT_XS,2022.2.5,Win32,16.3821631,NA,NA,NA,NA,NA,NA,NA,NA,NA,NA,NA,NA,NA,NA,frustrated,"frustrated, not frustrated","more frustrated, less frustrated",NA,NA,NA,NA,NA,NA,NA,NA,NA,NA,NA,NA,NA,NA,NA,NA,NA,NA,NA,NA,NA,NA,NA,NA,NA,NA,NA,NA,NA,NA,NA,NA,NA,NA,-74.21875,4.0662,2.0631,NA,NA,NA,NA,NA,NA,NA,NA,NA,NA,NA,NA,NA,NA,NA,NA,NA,NA,NA,NA,NA,NA,NA,NA,0,1,1,1,1,NA,NA,NA,NA,NA,NA,NA,NA,NA,NA,NA,NA,NA,NA,NA,NA,NA,NA,NA,NA,NA,NA,NA,NA,NA,NA,NA,NA,NA,NA,NA,NA,NA,NA,NA,NA,NA,NA,NA,NA,NA,NA,NA,NA,NA,NA,NA,NA,NA,NA,NA
NA,NA,NA,NA,NA,NA,NA,NA,NA,NA,NA,SUPAMT96766,35L9RVQFCUH5ATCVECHJLYF4V36UH4,33D26D41-1918-46A7-973B-192AC1301302,0,2023-09-22_07h40.37.144,Pilot_VExplicitOC_RG_AMT_XS,2022.2.5,Win32,16.3821631,NA,NA,NA,NA,NA,NA,NA,NA,NA,NA,NA,NA,NA,NA,happy,"unhappy, happy","less happy, more happy",NA,NA,NA,NA,NA,NA,NA,NA,NA,NA,NA,NA,NA,NA,NA,NA,NA,NA,NA,NA,NA,NA,NA,NA,NA,NA,NA,NA,NA,NA,NA,NA,NA,NA,-85.41666667,3.9673,2,NA,NA,NA,NA,NA,NA,NA,NA,NA,NA,NA,NA,NA,NA,NA,NA,NA,NA,NA,NA,NA,NA,NA,NA,0,2,2,0,1,NA,NA,NA,NA,NA,NA,NA,NA,NA,NA,NA,NA,NA,NA,NA,NA,NA,NA,NA,NA,NA,NA,NA,NA,NA,NA,NA,NA,NA,NA,NA,NA,NA,NA,NA,NA,NA,NA,NA,NA,NA,NA,NA,NA,NA,NA,NA,NA,NA,NA,NA
NA,NA,NA,NA,NA,NA,NA,NA,NA,NA,NA,SUPAMT96766,35L9RVQFCUH5ATCVECHJLYF4V36UH4,33D26D41-1918-46A7-973B-192AC1301302,0,2023-09-22_07h40.37.144,Pilot_VExplicitOC_RG_AMT_XS,2022.2.5,Win32,16.3821631,NA,NA,NA,NA,NA,NA,NA,NA,NA,NA,NA,NA,NA,NA,NA,NA,NA,NA,NA,NA,NA,NA,NA,NA,NA,NA,NA,NA,NA,NA,NA,NA,NA,NA,NA,NA,NA,NA,NA,NA,NA,NA,NA,NA,NA,NA,NA,NA,NA,NA,NA,NA,NA,NA,NA,NA,NA,NA,NA,NA,NA,NA,NA,NA,NA,NA,NA,NA,NA,NA,NA,NA,NA,NA,NA,NA,NA,NA,NA,NA,NA,NA,NA,space,63.4041,0,0,0,0,1,7,black.png,"In the next part of the task, you will play a gambling game where you can win money by earning points according to your choices. You will decide whether to gamble a number of points or stick with a guaranteed number of points. 
Make your choice by pressing the left or right arrow key once. An example of one trial is shown on the next screen.",NA,NA,NA,NA,NA,NA,NA,NA,NA,NA,NA,NA,NA,NA,NA,NA,NA,NA,NA,NA,NA,NA,NA,NA,NA,NA,NA,NA,NA,NA,NA,NA,NA,NA,NA,NA,NA,NA,NA,NA,NA
NA,NA,NA,NA,NA,NA,NA,NA,NA,NA,NA,SUPAMT96766,35L9RVQFCUH5ATCVECHJLYF4V36UH4,33D26D41-1918-46A7-973B-192AC1301302,0,2023-09-22_07h40.37.144,Pilot_VExplicitOC_RG_AMT_XS,2022.2.5,Win32,16.3821631,NA,NA,NA,NA,NA,NA,NA,NA,NA,NA,NA,NA,NA,NA,NA,NA,NA,NA,NA,NA,NA,NA,NA,NA,NA,NA,NA,NA,NA,NA,NA,NA,NA,NA,NA,NA,NA,NA,NA,NA,NA,NA,NA,NA,NA,NA,NA,NA,NA,NA,NA,NA,NA,NA,NA,NA,NA,NA,NA,NA,NA,NA,NA,NA,NA,NA,NA,NA,NA,NA,NA,NA,NA,NA,NA,NA,NA,NA,NA,NA,NA,NA,NA,space,54.9007,0,1,1,1,1,8,example_start.png,"The GAMBLING OPTION will be shown on the RIGHT SIDE. 
Select this option using the RIGHT ARROW KEY on your keyboard.",NA,NA,NA,NA,NA,NA,NA,NA,NA,NA,NA,NA,NA,NA,NA,NA,NA,NA,NA,NA,NA,NA,NA,NA,NA,NA,NA,NA,NA,NA,NA,NA,NA,NA,NA,NA,NA,NA,NA,NA,NA
NA,NA,NA,NA,NA,NA,NA,NA,NA,NA,NA,SUPAMT96766,35L9RVQFCUH5ATCVECHJLYF4V36UH4,33D26D41-1918-46A7-973B-192AC1301302,0,2023-09-22_07h40.37.144,Pilot_VExplicitOC_RG_AMT_XS,2022.2.5,Win32,16.3821631,NA,NA,NA,NA,NA,NA,NA,NA,NA,NA,NA,NA,NA,NA,NA,NA,NA,NA,NA,NA,NA,NA,NA,NA,NA,NA,NA,NA,NA,NA,NA,NA,NA,NA,NA,NA,NA,NA,NA,NA,NA,NA,NA,NA,NA,NA,NA,NA,NA,NA,NA,NA,NA,NA,NA,NA,NA,NA,NA,NA,NA,NA,NA,NA,NA,NA,NA,NA,NA,NA,NA,NA,NA,NA,NA,NA,NA,NA,NA,NA,NA,NA,NA,space,0.1791,0,2,2,2,1,9,example_gamble.png,"Once you select the gambling choice, the choice you made will remain on the screen.",NA,NA,NA,NA,NA,NA,NA,NA,NA,NA,NA,NA,NA,NA,NA,NA,NA,NA,NA,NA,NA,NA,NA,NA,NA,NA,NA,NA,NA,NA,NA,NA,NA,NA,NA,NA,NA,NA,NA,NA,NA
NA,NA,NA,NA,NA,NA,NA,NA,NA,NA,NA,SUPAMT96766,35L9RVQFCUH5ATCVECHJLYF4V36UH4,33D26D41-1918-46A7-973B-192AC1301302,0,2023-09-22_07h40.37.144,Pilot_VExplicitOC_RG_AMT_XS,2022.2.5,Win32,16.3821631,NA,NA,NA,NA,NA,NA,NA,NA,NA,NA,NA,NA,NA,NA,NA,NA,NA,NA,NA,NA,NA,NA,NA,NA,NA,NA,NA,NA,NA,NA,NA,NA,NA,NA,NA,NA,NA,NA,NA,NA,NA,NA,NA,NA,NA,NA,NA,NA,NA,NA,NA,NA,NA,NA,NA,NA,NA,NA,NA,NA,NA,NA,NA,NA,NA,NA,NA,NA,NA,NA,NA,NA,NA,NA,NA,NA,NA,NA,NA,NA,NA,NA,NA,space,0.1768,0,3,3,3,1,10,example_win.png,"The outcome you received will then be shown on the screen. In this example , you WON 10 points.",NA,NA,NA,NA,NA,NA,NA,NA,NA,NA,NA,NA,NA,NA,NA,NA,NA,NA,NA,NA,NA,NA,NA,NA,NA,NA,NA,NA,NA,NA,NA,NA,NA,NA,NA,NA,NA,NA,NA,NA,NA
NA,NA,NA,NA,NA,NA,NA,NA,NA,NA,NA,SUPAMT96766,35L9RVQFCUH5ATCVECHJLYF4V36UH4,33D26D41-1918-46A7-973B-192AC1301302,0,2023-09-22_07h40.37.144,Pilot_VExplicitOC_RG_AMT_XS,2022.2.5,Win32,16.3821631,NA,NA,NA,NA,NA,NA,NA,NA,NA,NA,NA,NA,NA,NA,NA,NA,NA,NA,NA,NA,NA,NA,NA,NA,NA,NA,NA,NA,NA,NA,NA,NA,NA,NA,NA,NA,NA,NA,NA,NA,NA,NA,NA,NA,NA,NA,NA,NA,NA,NA,NA,NA,NA,NA,NA,NA,NA,NA,NA,NA,NA,NA,NA,NA,NA,NA,NA,NA,NA,NA,NA,NA,NA,NA,NA,NA,NA,NA,NA,NA,NA,NA,NA,space,0.0964,0,4,4,4,1,11,example_start.png,"The GUARANTEED OPTION will be shown on the LEFT SIDE. You are 100% guaranteed to gain or lose this amount. In this example, you have a 100% chance of winning 1 point. Select this option using the LEFT ARROW KEY on your keyboard.",NA,NA,NA,NA,NA,NA,NA,NA,NA,NA,NA,NA,NA,NA,NA,NA,NA,NA,NA,NA,NA,NA,NA,NA,NA,NA,NA,NA,NA,NA,NA,NA,NA,NA,NA,NA,NA,NA,NA,NA,NA
NA,NA,NA,NA,NA,NA,NA,NA,NA,NA,NA,SUPAMT96766,35L9RVQFCUH5ATCVECHJLYF4V36UH4,33D26D41-1918-46A7-973B-192AC1301302,0,2023-09-22_07h40.37.144,Pilot_VExplicitOC_RG_AMT_XS,2022.2.5,Win32,16.3821631,NA,NA,NA,NA,NA,NA,NA,NA,NA,NA,NA,NA,NA,NA,NA,NA,NA,NA,NA,NA,NA,NA,NA,NA,NA,NA,NA,NA,NA,NA,NA,NA,NA,NA,NA,NA,NA,NA,NA,NA,NA,NA,NA,NA,NA,NA,NA,NA,NA,NA,NA,NA,NA,NA,NA,NA,NA,NA,NA,NA,NA,NA,NA,NA,NA,NA,NA,NA,NA,NA,NA,NA,NA,NA,NA,NA,NA,NA,NA,NA,NA,NA,NA,space,0.1221,0,5,5,5,1,12,example_certain.png,"Once you select the guaranteed choice, your selection will remain on the screen.",NA,NA,NA,NA,NA,NA,NA,NA,NA,NA,NA,NA,NA,NA,NA,NA,NA,NA,NA,NA,NA,NA,NA,NA,NA,NA,NA,NA,NA,NA,NA,NA,NA,NA,NA,NA,NA,NA,NA,NA,NA
NA,NA,NA,NA,NA,NA,NA,NA,NA,NA,NA,SUPAMT96766,35L9RVQFCUH5ATCVECHJLYF4V36UH4,33D26D41-1918-46A7-973B-192AC1301302,0,2023-09-22_07h40.37.144,Pilot_VExplicitOC_RG_AMT_XS,2022.2.5,Win32,16.3821631,NA,NA,NA,NA,NA,NA,NA,NA,NA,NA,NA,NA,NA,NA,NA,NA,NA,NA,NA,NA,NA,NA,NA,NA,NA,NA,NA,NA,NA,NA,NA,NA,NA,NA,NA,NA,NA,NA,NA,NA,NA,NA,NA,NA,NA,NA,NA,NA,NA,NA,NA,NA,NA,NA,NA,NA,NA,NA,NA,NA,NA,NA,NA,NA,NA,NA,NA,NA,NA,NA,NA,NA,NA,NA,NA,NA,NA,NA,NA,NA,NA,NA,NA,space,0.0087,0,6,6,6,1,13,black.png,Please make your choices as fast as possible.,NA,NA,NA,NA,NA,NA,NA,NA,NA,NA,NA,NA,NA,NA,NA,NA,NA,NA,NA,NA,NA,NA,NA,NA,NA,NA,NA,NA,NA,NA,NA,NA,NA,NA,NA,NA,NA,NA,NA,NA,NA
NA,NA,NA,NA,NA,NA,NA,NA,NA,NA,NA,SUPAMT96766,35L9RVQFCUH5ATCVECHJLYF4V36UH4,33D26D41-1918-46A7-973B-192AC1301302,0,2023-09-22_07h40.37.144,Pilot_VExplicitOC_RG_AMT_XS,2022.2.5,Win32,16.3821631,NA,NA,NA,NA,NA,NA,NA,NA,NA,NA,NA,NA,NA,NA,NA,NA,NA,NA,NA,NA,NA,NA,NA,NA,NA,NA,NA,NA,NA,NA,NA,NA,NA,NA,NA,NA,NA,NA,NA,NA,NA,NA,NA,NA,NA,NA,NA,NA,NA,NA,NA,NA,NA,NA,NA,NA,NA,NA,NA,NA,NA,NA,NA,NA,NA,NA,NA,NA,NA,NA,NA,NA,NA,NA,NA,NA,NA,NA,NA,NA,NA,NA,NA,space,0.0998,0,7,7,7,1,14,black.png,"You will again be asked to rate your mood *at that moment* once in a while. 
Use your mouse to move the slider dot to the position that represents how you are feeling.
Let's play!",NA,NA,NA,NA,NA,NA,NA,NA,NA,NA,NA,NA,NA,NA,NA,NA,NA,NA,NA,NA,NA,NA,NA,NA,NA,NA,NA,NA,NA,NA,NA,NA,NA,NA,NA,NA,NA,NA,NA,NA,NA
NA,NA,NA,NA,NA,NA,NA,NA,NA,NA,NA,SUPAMT96766,35L9RVQFCUH5ATCVECHJLYF4V36UH4,33D26D41-1918-46A7-973B-192AC1301302,0,2023-09-22_07h40.37.144,Pilot_VExplicitOC_RG_AMT_XS,2022.2.5,Win32,16.3821631,NA,NA,NA,NA,NA,NA,NA,NA,NA,NA,NA,NA,NA,NA,NA,NA,NA,NA,NA,NA,NA,NA,NA,NA,NA,NA,NA,NA,NA,NA,NA,NA,NA,NA,NA,NA,NA,NA,NA,NA,NA,NA,NA,NA,NA,NA,NA,NA,NA,NA,NA,NA,NA,NA,NA,NA,NA,NA,NA,NA,NA,NA,NA,NA,NA,NA,NA,NA,NA,NA,NA,NA,NA,NA,NA,NA,NA,NA,NA,NA,NA,NA,NA,NA,NA,NA,NA,NA,NA,NA,NA,NA,NA,0,0,0,0,1,NA,NA,NA,NA,NA,NA,NA,NA,NA,NA,NA,NA,NA,NA,NA,NA,NA,NA,NA,NA,NA,NA,NA,NA,NA,NA,NA,NA,NA,NA,NA,NA,NA,NA,NA,NA
NA,NA,NA,NA,NA,NA,NA,NA,NA,NA,NA,SUPAMT96766,35L9RVQFCUH5ATCVECHJLYF4V36UH4,33D26D41-1918-46A7-973B-192AC1301302,0,2023-09-22_07h40.37.144,Pilot_VExplicitOC_RG_AMT_XS,2022.2.5,Win32,16.3821631,NA,NA,NA,NA,NA,NA,NA,NA,NA,NA,NA,NA,NA,NA,frustrated,"frustrated, not frustrated","more frustrated, less frustrated",NA,NA,NA,NA,NA,NA,NA,NA,NA,NA,NA,NA,NA,NA,NA,NA,NA,NA,NA,NA,NA,NA,NA,NA,NA,NA,NA,NA,NA,NA,NA,NA,NA,NA,-67.1875,4.9155,2.0159,NA,NA,NA,NA,NA,NA,NA,NA,NA,NA,NA,NA,NA,NA,NA,NA,NA,NA,NA,NA,NA,NA,NA,NA,NA,NA,NA,NA,NA,NA,NA,NA,NA,NA,NA,NA,NA,NA,NA,NA,NA,NA,NA,NA,random,FALSE,FALSE,TRUE,0.5,0,0,4.058204981,7.7582049809999996,3.7,5.052734994,gamble,win,7.7582049809999996,7.7582049809999996,NA,0,0,0,1,1,NA,NA,NA,NA,NA,NA,NA,NA,NA,NA,NA,NA,NA,NA,NA
NA,NA,NA,NA,NA,NA,NA,NA,NA,NA,NA,SUPAMT96766,35L9RVQFCUH5ATCVECHJLYF4V36UH4,33D26D41-1918-46A7-973B-192AC1301302,0,2023-09-22_07h40.37.144,Pilot_VExplicitOC_RG_AMT_XS,2022.2.5,Win32,16.3821631,NA,NA,NA,NA,NA,NA,NA,NA,NA,NA,NA,NA,NA,NA,happy,"unhappy, happy","less happy, more happy",NA,NA,NA,NA,NA,NA,NA,NA,NA,NA,NA,NA,NA,NA,NA,NA,NA,NA,NA,NA,NA,NA,NA,NA,NA,NA,NA,NA,NA,NA,NA,NA,NA,NA,60.15625,7.458,2.05,NA,NA,NA,NA,NA,NA,NA,NA,NA,NA,NA,NA,NA,NA,NA,NA,NA,NA,NA,NA,NA,NA,NA,NA,NA,NA,NA,NA,NA,NA,NA,NA,NA,NA,NA,NA,NA,NA,NA,NA,NA,NA,NA,NA,NA,NA,NA,NA,NA,NA,NA,NA,NA,NA,NA,NA,NA,NA,NA,NA,0,1,1,0,1,NA,NA,NA,NA,NA,NA,NA,NA,NA,NA,NA,NA,NA,NA,NA
NA,NA,NA,NA,NA,NA,NA,NA,NA,NA,NA,SUPAMT96766,35L9RVQFCUH5ATCVECHJLYF4V36UH4,33D26D41-1918-46A7-973B-192AC1301302,0,2023-09-22_07h40.37.144,Pilot_VExplicitOC_RG_AMT_XS,2022.2.5,Win32,16.3821631,NA,NA,NA,NA,NA,NA,NA,NA,NA,NA,NA,NA,NA,NA,bored,"bored, not bored","more bored, less bored",NA,NA,NA,NA,NA,NA,NA,NA,NA,NA,NA,NA,NA,NA,NA,NA,NA,NA,NA,NA,NA,NA,NA,NA,NA,NA,NA,NA,NA,NA,NA,NA,NA,NA,NA,NA,2.012,NA,NA,NA,NA,NA,NA,NA,NA,NA,NA,NA,NA,NA,NA,NA,NA,NA,NA,NA,NA,NA,NA,NA,NA,NA,NA,NA,NA,NA,NA,NA,NA,NA,NA,NA,NA,NA,NA,NA,NA,NA,NA,NA,NA,NA,NA,NA,NA,NA,NA,NA,NA,NA,NA,NA,NA,NA,NA,NA,NA,0,2,2,2,1,NA,NA,NA,NA,NA,NA,NA,NA,NA,NA,NA,NA,NA,NA,NA
NA,NA,NA,NA,NA,NA,NA,NA,NA,NA,NA,SUPAMT96766,35L9RVQFCUH5ATCVECHJLYF4V36UH4,33D26D41-1918-46A7-973B-192AC1301302,0,2023-09-22_07h40.37.144,Pilot_VExplicitOC_RG_AMT_XS,2022.2.5,Win32,16.3821631,NA,NA,NA,NA,NA,NA,NA,NA,NA,NA,NA,NA,NA,NA,NA,NA,NA,NA,NA,NA,NA,NA,NA,NA,NA,NA,NA,NA,NA,NA,NA,NA,NA,NA,NA,NA,NA,NA,NA,NA,NA,NA,NA,NA,NA,NA,NA,NA,NA,NA,NA,NA,NA,NA,NA,NA,NA,NA,NA,NA,NA,NA,NA,NA,NA,NA,NA,NA,NA,NA,NA,NA,NA,NA,NA,NA,NA,NA,NA,NA,NA,NA,NA,NA,NA,NA,NA,NA,NA,NA,NA,NA,NA,NA,NA,NA,NA,NA,NA,NA,NA,NA,NA,NA,NA,NA,NA,NA,NA,NA,NA,NA,NA,NA,NA,NA,NA,NA,NA,0,0,0,20,1,3.7,NA,NA,NA,NA,NA,NA,NA,NA,NA
NA,NA,NA,NA,NA,NA,NA,NA,NA,NA,NA,SUPAMT96766,35L9RVQFCUH5ATCVECHJLYF4V36UH4,33D26D41-1918-46A7-973B-192AC1301302,0,2023-09-22_07h40.37.144,Pilot_VExplicitOC_RG_AMT_XS,2022.2.5,Win32,16.3821631,NA,NA,NA,NA,NA,NA,NA,NA,NA,NA,NA,NA,NA,NA,NA,NA,NA,NA,NA,NA,NA,NA,NA,NA,NA,NA,NA,NA,NA,NA,NA,NA,NA,NA,NA,NA,NA,NA,NA,NA,NA,NA,NA,NA,NA,NA,NA,NA,NA,NA,NA,NA,NA,NA,NA,NA,NA,NA,NA,NA,NA,NA,NA,NA,NA,NA,NA,NA,NA,NA,NA,NA,NA,NA,NA,NA,NA,NA,NA,NA,NA,NA,NA,NA,NA,NA,NA,NA,NA,NA,NA,NA,NA,NA,NA,NA,NA,NA,random,FALSE,FALSE,FALSE,0.5,0,0,4.314596826,2.414596826,-1.9,-0.461801058,gamble,win,2.414596826,10.17280181,NA,NA,NA,NA,NA,NA,0,1,1,16,1,-1.9,NA,NA,NA,NA,NA,NA,NA,NA,NA
NA,NA,NA,NA,NA,NA,NA,NA,NA,NA,NA,SUPAMT96766,35L9RVQFCUH5ATCVECHJLYF4V36UH4,33D26D41-1918-46A7-973B-192AC1301302,0,2023-09-22_07h40.37.144,Pilot_VExplicitOC_RG_AMT_XS,2022.2.5,Win32,16.3821631,NA,NA,NA,NA,NA,NA,NA,NA,NA,NA,NA,NA,NA,NA,frustrated,"frustrated, not frustrated","more frustrated, less frustrated",NA,NA,NA,NA,NA,NA,NA,NA,NA,NA,NA,NA,NA,NA,NA,NA,NA,NA,NA,NA,NA,NA,NA,NA,NA,NA,NA,NA,NA,NA,NA,NA,NA,NA,NA,NA,2.0848,NA,NA,NA,NA,NA,NA,NA,NA,NA,NA,NA,NA,NA,NA,NA,NA,NA,NA,NA,NA,NA,NA,NA,NA,NA,NA,NA,NA,NA,NA,NA,NA,NA,NA,NA,NA,NA,NA,NA,NA,NA,NA,NA,NA,random,FALSE,FALSE,TRUE,0.5,0,0,-2.41135394,-3.6,-6.01135394,-5.207569293,gamble,lose,-6.01135394,4.161447866,NA,0,0,0,1,1,NA,NA,NA,NA,NA,NA,NA,NA,NA,NA,NA,NA,NA,NA,NA
NA,NA,NA,NA,NA,NA,NA,NA,NA,NA,NA,SUPAMT96766,35L9RVQFCUH5ATCVECHJLYF4V36UH4,33D26D41-1918-46A7-973B-192AC1301302,0,2023-09-22_07h40.37.144,Pilot_VExplicitOC_RG_AMT_XS,2022.2.5,Win32,16.3821631,NA,NA,NA,NA,NA,NA,NA,NA,NA,NA,NA,NA,NA,NA,happy,"unhappy, happy","less happy, more happy",NA,NA,NA,NA,NA,NA,NA,NA,NA,NA,NA,NA,NA,NA,NA,NA,NA,NA,NA,NA,NA,NA,NA,NA,NA,NA,NA,NA,NA,NA,NA,NA,NA,NA,NA,NA,2.0328,NA,NA,NA,NA,NA,NA,NA,NA,NA,NA,NA,NA,NA,NA,NA,NA,NA,NA,NA,NA,NA,NA,NA,NA,NA,NA,NA,NA,NA,NA,NA,NA,NA,NA,NA,NA,NA,NA,NA,NA,NA,NA,NA,NA,NA,NA,NA,NA,NA,NA,NA,NA,NA,NA,NA,NA,NA,NA,NA,NA,0,1,1,0,1,NA,NA,NA,NA,NA,NA,NA,NA,NA,NA,NA,NA,NA,NA,NA
NA,NA,NA,NA,NA,NA,NA,NA,NA,NA,NA,SUPAMT96766,35L9RVQFCUH5ATCVECHJLYF4V36UH4,33D26D41-1918-46A7-973B-192AC1301302,0,2023-09-22_07h40.37.144,Pilot_VExplicitOC_RG_AMT_XS,2022.2.5,Win32,16.3821631,NA,NA,NA,NA,NA,NA,NA,NA,NA,NA,NA,NA,NA,NA,bored,"bored, not bored","more bored, less bored",NA,NA,NA,NA,NA,NA,NA,NA,NA,NA,NA,NA,NA,NA,NA,NA,NA,NA,NA,NA,NA,NA,NA,NA,NA,NA,NA,NA,NA,NA,NA,NA,NA,NA,NA,NA,2.0226,NA,NA,NA,NA,NA,NA,NA,NA,NA,NA,NA,NA,NA,NA,NA,NA,NA,NA,NA,NA,NA,NA,NA,NA,NA,NA,NA,NA,NA,NA,NA,NA,NA,NA,NA,NA,NA,NA,NA,NA,NA,NA,NA,NA,NA,NA,NA,NA,NA,NA,NA,NA,NA,NA,NA,NA,NA,NA,NA,NA,0,2,2,2,1,NA,NA,NA,NA,NA,NA,NA,NA,NA,NA,NA,NA,NA,NA,NA
NA,NA,NA,NA,NA,NA,NA,NA,NA,NA,NA,SUPAMT96766,35L9RVQFCUH5ATCVECHJLYF4V36UH4,33D26D41-1918-46A7-973B-192AC1301302,0,2023-09-22_07h40.37.144,Pilot_VExplicitOC_RG_AMT_XS,2022.2.5,Win32,16.3821631,NA,NA,NA,NA,NA,NA,NA,NA,NA,NA,NA,NA,NA,NA,NA,NA,NA,NA,NA,NA,NA,NA,NA,NA,NA,NA,NA,NA,NA,NA,NA,NA,NA,NA,NA,NA,NA,NA,NA,NA,NA,NA,NA,NA,NA,NA,NA,NA,NA,NA,NA,NA,NA,NA,NA,NA,NA,NA,NA,NA,NA,NA,NA,NA,NA,NA,NA,NA,NA,NA,NA,NA,NA,NA,NA,NA,NA,NA,NA,NA,NA,NA,NA,NA,NA,NA,NA,NA,NA,NA,NA,NA,NA,NA,NA,NA,NA,NA,NA,NA,NA,NA,NA,NA,NA,NA,NA,NA,NA,NA,NA,NA,NA,NA,NA,NA,NA,NA,NA,0,2,2,26,1,-3.6,NA,NA,NA,NA,NA,NA,NA,NA,NA
NA,NA,NA,NA,NA,NA,NA,NA,NA,NA,NA,SUPAMT96766,35L9RVQFCUH5ATCVECHJLYF4V36UH4,33D26D41-1918-46A7-973B-192AC1301302,0,2023-09-22_07h40.37.144,Pilot_VExplicitOC_RG_AMT_XS,2022.2.5,Win32,16.3821631,NA,NA,NA,NA,NA,NA,NA,NA,NA,NA,NA,NA,NA,NA,NA,NA,NA,NA,NA,NA,NA,NA,NA,NA,NA,NA,NA,NA,NA,NA,NA,NA,NA,NA,NA,NA,NA,NA,NA,NA,NA,NA,NA,NA,NA,NA,NA,NA,NA,NA,NA,NA,NA,NA,NA,NA,NA,NA,NA,NA,NA,NA,NA,NA,NA,NA,NA,NA,NA,NA,NA,NA,NA,NA,NA,NA,NA,NA,NA,NA,NA,NA,NA,NA,NA,NA,NA,NA,NA,NA,NA,NA,NA,NA,NA,NA,NA,NA,random,FALSE,FALSE,TRUE,0.5,0,0,-1.734561338,-2.1,-3.834561338,-3.256374225,gamble,lose,-3.834561338,0.326886528,NA,NA,NA,NA,NA,NA,0,3,3,5,1,-2.1,NA,NA,NA,NA,NA,NA,NA,NA,NA
NA,NA,NA,NA,NA,NA,NA,NA,NA,NA,NA,SUPAMT96766,35L9RVQFCUH5ATCVECHJLYF4V36UH4,33D26D41-1918-46A7-973B-192AC1301302,0,2023-09-22_07h40.37.144,Pilot_VExplicitOC_RG_AMT_XS,2022.2.5,Win32,16.3821631,NA,NA,NA,NA,NA,NA,NA,NA,NA,NA,NA,NA,NA,NA,frustrated,"frustrated, not frustrated","more frustrated, less frustrated",NA,NA,NA,NA,NA,NA,NA,NA,NA,NA,NA,NA,NA,NA,NA,NA,NA,NA,NA,NA,NA,NA,NA,NA,NA,NA,NA,NA,NA,NA,NA,NA,NA,NA,NA,NA,2.0693,NA,NA,NA,NA,NA,NA,NA,NA,NA,NA,NA,NA,NA,NA,NA,NA,NA,NA,NA,NA,NA,NA,NA,NA,NA,NA,NA,NA,NA,NA,NA,NA,NA,NA,NA,NA,NA,NA,NA,NA,NA,NA,NA,NA,random,FALSE,FALSE,FALSE,0.5,0,0,-1.722878478,-4,-5.722878478,-5.148585652,gamble,lose,-5.722878478,-5.39599195,NA,0,0,0,1,1,NA,NA,NA,NA,NA,NA,NA,NA,NA,NA,NA,NA,NA,NA,NA
NA,NA,NA,NA,NA,NA,NA,NA,NA,NA,NA,SUPAMT96766,35L9RVQFCUH5ATCVECHJLYF4V36UH4,33D26D41-1918-46A7-973B-192AC1301302,0,2023-09-22_07h40.37.144,Pilot_VExplicitOC_RG_AMT_XS,2022.2.5,Win32,16.3821631,NA,NA,NA,NA,NA,NA,NA,NA,NA,NA,NA,NA,NA,NA,bored,"bored, not bored","more bored, less bored",NA,NA,NA,NA,NA,NA,NA,NA,NA,NA,NA,NA,NA,NA,NA,NA,NA,NA,NA,NA,NA,NA,NA,NA,NA,NA,NA,NA,NA,NA,NA,NA,NA,NA,NA,NA,2.0668,NA,NA,NA,NA,NA,NA,NA,NA,NA,NA,NA,NA,NA,NA,NA,NA,NA,NA,NA,NA,NA,NA,NA,NA,NA,NA,NA,NA,NA,NA,NA,NA,NA,NA,NA,NA,NA,NA,NA,NA,NA,NA,NA,NA,NA,NA,NA,NA,NA,NA,NA,NA,NA,NA,NA,NA,NA,NA,NA,NA,0,1,1,2,1,NA,NA,NA,NA,NA,NA,NA,NA,NA,NA,NA,NA,NA,NA,NA
NA,NA,NA,NA,NA,NA,NA,NA,NA,NA,NA,SUPAMT96766,35L9RVQFCUH5ATCVECHJLYF4V36UH4,33D26D41-1918-46A7-973B-192AC1301302,0,2023-09-22_07h40.37.144,Pilot_VExplicitOC_RG_AMT_XS,2022.2.5,Win32,16.3821631,NA,NA,NA,NA,NA,NA,NA,NA,NA,NA,NA,NA,NA,NA,happy,"unhappy, happy","less happy, more happy",NA,NA,NA,NA,NA,NA,NA,NA,NA,NA,NA,NA,NA,NA,NA,NA,NA,NA,NA,NA,NA,NA,NA,NA,NA,NA,NA,NA,NA,NA,NA,NA,NA,NA,NA,NA,2.0267,NA,NA,NA,NA,NA,NA,NA,NA,NA,NA,NA,NA,NA,NA,NA,NA,NA,NA,NA,NA,NA,NA,NA,NA,NA,NA,NA,NA,NA,NA,NA,NA,NA,NA,NA,NA,NA,NA,NA,NA,NA,NA,NA,NA,NA,NA,NA,NA,NA,NA,NA,NA,NA,NA,NA,NA,NA,NA,NA,NA,0,2,2,0,1,NA,NA,NA,NA,NA,NA,NA,NA,NA,NA,NA,NA,NA,NA,NA
NA,NA,NA,NA,NA,NA,NA,NA,NA,NA,NA,SUPAMT96766,35L9RVQFCUH5ATCVECHJLYF4V36UH4,33D26D41-1918-46A7-973B-192AC1301302,0,2023-09-22_07h40.37.144,Pilot_VExplicitOC_RG_AMT_XS,2022.2.5,Win32,16.3821631,NA,NA,NA,NA,NA,NA,NA,NA,NA,NA,NA,NA,NA,NA,NA,NA,NA,NA,NA,NA,NA,NA,NA,NA,NA,NA,NA,NA,NA,NA,NA,NA,NA,NA,NA,NA,NA,NA,NA,NA,NA,NA,NA,NA,NA,NA,NA,NA,NA,NA,NA,NA,NA,NA,NA,NA,NA,NA,NA,NA,NA,NA,NA,NA,NA,NA,NA,NA,NA,NA,NA,NA,NA,NA,NA,NA,NA,NA,NA,NA,NA,NA,NA,NA,NA,NA,NA,NA,NA,NA,NA,NA,NA,NA,NA,NA,NA,NA,NA,NA,NA,NA,NA,NA,NA,NA,NA,NA,NA,NA,NA,NA,NA,NA,NA,NA,NA,NA,NA,0,4,4,8,1,-4,NA,NA,NA,NA,NA,NA,NA,NA,NA
NA,NA,NA,NA,NA,NA,NA,NA,NA,NA,NA,SUPAMT96766,35L9RVQFCUH5ATCVECHJLYF4V36UH4,33D26D41-1918-46A7-973B-192AC1301302,0,2023-09-22_07h40.37.144,Pilot_VExplicitOC_RG_AMT_XS,2022.2.5,Win32,16.3821631,NA,NA,NA,NA,NA,NA,NA,NA,NA,NA,NA,NA,NA,NA,NA,NA,NA,NA,NA,NA,NA,NA,NA,NA,NA,NA,NA,NA,NA,NA,NA,NA,NA,NA,NA,NA,NA,NA,NA,NA,NA,NA,NA,NA,NA,NA,NA,NA,NA,NA,NA,NA,NA,NA,NA,NA,NA,NA,NA,NA,NA,NA,NA,NA,NA,NA,NA,NA,NA,NA,NA,NA,NA,NA,NA,NA,NA,NA,NA,NA,NA,NA,NA,NA,NA,NA,NA,NA,NA,NA,NA,NA,NA,NA,NA,NA,NA,NA,random,FALSE,FALSE,TRUE,0.5,0,0,1.438867129,0.538867129,-0.9,-0.420377624,gamble,win,0.538867129,-4.857124821,NA,NA,NA,NA,NA,NA,0,5,5,29,1,-0.9,NA,NA,NA,NA,NA,NA,NA,NA,NA
NA,NA,NA,NA,NA,NA,NA,NA,NA,NA,NA,SUPAMT96766,35L9RVQFCUH5ATCVECHJLYF4V36UH4,33D26D41-1918-46A7-973B-192AC1301302,0,2023-09-22_07h40.37.144,Pilot_VExplicitOC_RG_AMT_XS,2022.2.5,Win32,16.3821631,NA,NA,NA,NA,NA,NA,NA,NA,NA,NA,NA,NA,NA,NA,NA,NA,NA,NA,NA,NA,NA,NA,NA,NA,NA,NA,NA,NA,NA,NA,NA,NA,NA,NA,NA,NA,NA,NA,NA,NA,NA,NA,NA,NA,NA,NA,NA,NA,NA,NA,NA,NA,NA,NA,NA,NA,NA,NA,NA,NA,NA,NA,NA,NA,NA,NA,NA,NA,NA,NA,NA,NA,NA,NA,NA,NA,NA,NA,NA,NA,NA,NA,NA,NA,NA,NA,NA,NA,NA,NA,NA,NA,NA,NA,NA,NA,NA,NA,random,FALSE,FALSE,TRUE,0.5,0,0,4.657335925,3.457335925,-1.2,0.352445308,gamble,win,3.457335925,-1.399788897,NA,NA,NA,NA,NA,NA,0,6,6,23,1,-1.2,NA,NA,NA,NA,NA,NA,NA,NA,NA
NA,NA,NA,NA,NA,NA,NA,NA,NA,NA,NA,SUPAMT96766,35L9RVQFCUH5ATCVECHJLYF4V36UH4,33D26D41-1918-46A7-973B-192AC1301302,0,2023-09-22_07h40.37.144,Pilot_VExplicitOC_RG_AMT_XS,2022.2.5,Win32,16.3821631,NA,NA,NA,NA,NA,NA,NA,NA,NA,NA,NA,NA,NA,NA,happy,"unhappy, happy","less happy, more happy",NA,NA,NA,NA,NA,NA,NA,NA,NA,NA,NA,NA,NA,NA,NA,NA,NA,NA,NA,NA,NA,NA,NA,NA,NA,NA,NA,NA,NA,NA,NA,NA,NA,NA,NA,NA,2.0355,NA,NA,NA,NA,NA,NA,NA,NA,NA,NA,NA,NA,NA,NA,NA,NA,NA,NA,NA,NA,NA,NA,NA,NA,NA,NA,NA,NA,NA,NA,NA,NA,NA,NA,NA,NA,NA,NA,NA,NA,NA,NA,NA,NA,random,FALSE,FALSE,TRUE,0.5,0,0,-0.94582391,3.8,2.85417609,3.169450726,gamble,lose,2.85417609,1.454387193,NA,0,0,0,0,1,NA,NA,NA,NA,NA,NA,NA,NA,NA,NA,NA,NA,NA,NA,NA
NA,NA,NA,NA,NA,NA,NA,NA,NA,NA,NA,SUPAMT96766,35L9RVQFCUH5ATCVECHJLYF4V36UH4,33D26D41-1918-46A7-973B-192AC1301302,0,2023-09-22_07h40.37.144,Pilot_VExplicitOC_RG_AMT_XS,2022.2.5,Win32,16.3821631,NA,NA,NA,NA,NA,NA,NA,NA,NA,NA,NA,NA,NA,NA,frustrated,"frustrated, not frustrated","more frustrated, less frustrated",NA,NA,NA,NA,NA,NA,NA,NA,NA,NA,NA,NA,NA,NA,NA,NA,NA,NA,NA,NA,NA,NA,NA,NA,NA,NA,NA,NA,NA,NA,NA,NA,NA,NA,-68.48958333,7.0314,2.0437,NA,NA,NA,NA,NA,NA,NA,NA,NA,NA,NA,NA,NA,NA,NA,NA,NA,NA,NA,NA,NA,NA,NA,NA,NA,NA,NA,NA,NA,NA,NA,NA,NA,NA,NA,NA,NA,NA,NA,NA,NA,NA,NA,NA,NA,NA,NA,NA,NA,NA,NA,NA,NA,NA,NA,NA,NA,NA,NA,NA,0,1,1,1,1,NA,NA,NA,NA,NA,NA,NA,NA,NA,NA,NA,NA,NA,NA,NA
NA,NA,NA,NA,NA,NA,NA,NA,NA,NA,NA,SUPAMT96766,35L9RVQFCUH5ATCVECHJLYF4V36UH4,33D26D41-1918-46A7-973B-192AC1301302,0,2023-09-22_07h40.37.144,Pilot_VExplicitOC_RG_AMT_XS,2022.2.5,Win32,16.3821631,NA,NA,NA,NA,NA,NA,NA,NA,NA,NA,NA,NA,NA,NA,bored,"bored, not bored","more bored, less bored",NA,NA,NA,NA,NA,NA,NA,NA,NA,NA,NA,NA,NA,NA,NA,NA,NA,NA,NA,NA,NA,NA,NA,NA,NA,NA,NA,NA,NA,NA,NA,NA,NA,NA,NA,NA,2.0657,NA,NA,NA,NA,NA,NA,NA,NA,NA,NA,NA,NA,NA,NA,NA,NA,NA,NA,NA,NA,NA,NA,NA,NA,NA,NA,NA,NA,NA,NA,NA,NA,NA,NA,NA,NA,NA,NA,NA,NA,NA,NA,NA,NA,NA,NA,NA,NA,NA,NA,NA,NA,NA,NA,NA,NA,NA,NA,NA,NA,0,2,2,2,1,NA,NA,NA,NA,NA,NA,NA,NA,NA,NA,NA,NA,NA,NA,NA
NA,NA,NA,NA,NA,NA,NA,NA,NA,NA,NA,SUPAMT96766,35L9RVQFCUH5ATCVECHJLYF4V36UH4,33D26D41-1918-46A7-973B-192AC1301302,0,2023-09-22_07h40.37.144,Pilot_VExplicitOC_RG_AMT_XS,2022.2.5,Win32,16.3821631,NA,NA,NA,NA,NA,NA,NA,NA,NA,NA,NA,NA,NA,NA,NA,NA,NA,NA,NA,NA,NA,NA,NA,NA,NA,NA,NA,NA,NA,NA,NA,NA,NA,NA,NA,NA,NA,NA,NA,NA,NA,NA,NA,NA,NA,NA,NA,NA,NA,NA,NA,NA,NA,NA,NA,NA,NA,NA,NA,NA,NA,NA,NA,NA,NA,NA,NA,NA,NA,NA,NA,NA,NA,NA,NA,NA,NA,NA,NA,NA,NA,NA,NA,NA,NA,NA,NA,NA,NA,NA,NA,NA,NA,NA,NA,NA,NA,NA,NA,NA,NA,NA,NA,NA,NA,NA,NA,NA,NA,NA,NA,NA,NA,NA,NA,NA,NA,NA,NA,0,7,7,10,1,3.8,NA,NA,NA,NA,NA,NA,NA,NA,NA
NA,NA,NA,NA,NA,NA,NA,NA,NA,NA,NA,SUPAMT96766,35L9RVQFCUH5ATCVECHJLYF4V36UH4,33D26D41-1918-46A7-973B-192AC1301302,0,2023-09-22_07h40.37.144,Pilot_VExplicitOC_RG_AMT_XS,2022.2.5,Win32,16.3821631,NA,NA,NA,NA,NA,NA,NA,NA,NA,NA,NA,NA,NA,NA,NA,NA,NA,NA,NA,NA,NA,NA,NA,NA,NA,NA,NA,NA,NA,NA,NA,NA,NA,NA,NA,NA,NA,NA,NA,NA,NA,NA,NA,NA,NA,NA,NA,NA,NA,NA,NA,NA,NA,NA,NA,NA,NA,NA,NA,NA,NA,NA,NA,NA,NA,NA,NA,NA,NA,NA,NA,NA,NA,NA,NA,NA,NA,NA,NA,NA,NA,NA,NA,NA,NA,NA,NA,NA,NA,NA,NA,NA,NA,NA,NA,NA,NA,NA,random,FALSE,FALSE,FALSE,0.5,0,0,4.85885399,5.25885399,0.4,2.019617997,gamble,win,5.25885399,6.713241183,NA,NA,NA,NA,NA,NA,0,8,8,24,1,0.4,NA,NA,NA,NA,NA,NA,NA,NA,NA
NA,NA,NA,NA,NA,NA,NA,NA,NA,NA,NA,SUPAMT96766,35L9RVQFCUH5ATCVECHJLYF4V36UH4,33D26D41-1918-46A7-973B-192AC1301302,0,2023-09-22_07h40.37.144,Pilot_VExplicitOC_RG_AMT_XS,2022.2.5,Win32,16.3821631,NA,NA,NA,NA,NA,NA,NA,NA,NA,NA,NA,NA,NA,NA,bored,"bored, not bored","more bored, less bored",NA,NA,NA,NA,NA,NA,NA,NA,NA,NA,NA,NA,NA,NA,NA,NA,NA,NA,NA,NA,NA,NA,NA,NA,NA,NA,NA,NA,NA,NA,NA,NA,NA,NA,77.34375,7.1173,2.0097,NA,NA,NA,NA,NA,NA,NA,NA,NA,NA,NA,NA,NA,NA,NA,NA,NA,NA,NA,NA,NA,NA,NA,NA,NA,NA,NA,NA,NA,NA,NA,NA,NA,NA,NA,NA,NA,NA,NA,NA,NA,NA,NA,NA,random,FALSE,FALSE,FALSE,0.5,0,0,-3.593682828,0.3,-3.293682828,-2.095788552,gamble,lose,-3.293682828,3.419558355,NA,0,0,0,2,1,NA,NA,NA,NA,NA,NA,NA,NA,NA,NA,NA,NA,NA,NA,NA
NA,NA,NA,NA,NA,NA,NA,NA,NA,NA,NA,SUPAMT96766,35L9RVQFCUH5ATCVECHJLYF4V36UH4,33D26D41-1918-46A7-973B-192AC1301302,0,2023-09-22_07h40.37.144,Pilot_VExplicitOC_RG_AMT_XS,2022.2.5,Win32,16.3821631,NA,NA,NA,NA,NA,NA,NA,NA,NA,NA,NA,NA,NA,NA,frustrated,"frustrated, not frustrated","more frustrated, less frustrated",NA,NA,NA,NA,NA,NA,NA,NA,NA,NA,NA,NA,NA,NA,NA,NA,NA,NA,NA,NA,NA,NA,NA,NA,NA,NA,NA,NA,NA,NA,NA,NA,NA,NA,NA,NA,2.0564,NA,NA,NA,NA,NA,NA,NA,NA,NA,NA,NA,NA,NA,NA,NA,NA,NA,NA,NA,NA,NA,NA,NA,NA,NA,NA,NA,NA,NA,NA,NA,NA,NA,NA,NA,NA,NA,NA,NA,NA,NA,NA,NA,NA,NA,NA,NA,NA,NA,NA,NA,NA,NA,NA,NA,NA,NA,NA,NA,NA,0,1,1,1,1,NA,NA,NA,NA,NA,NA,NA,NA,NA,NA,NA,NA,NA,NA,NA
NA,NA,NA,NA,NA,NA,NA,NA,NA,NA,NA,SUPAMT96766,35L9RVQFCUH5ATCVECHJLYF4V36UH4,33D26D41-1918-46A7-973B-192AC1301302,0,2023-09-22_07h40.37.144,Pilot_VExplicitOC_RG_AMT_XS,2022.2.5,Win32,16.3821631,NA,NA,NA,NA,NA,NA,NA,NA,NA,NA,NA,NA,NA,NA,happy,"unhappy, happy","less happy, more happy",NA,NA,NA,NA,NA,NA,NA,NA,NA,NA,NA,NA,NA,NA,NA,NA,NA,NA,NA,NA,NA,NA,NA,NA,NA,NA,NA,NA,NA,NA,NA,NA,NA,NA,NA,NA,2.0415,NA,NA,NA,NA,NA,NA,NA,NA,NA,NA,NA,NA,NA,NA,NA,NA,NA,NA,NA,NA,NA,NA,NA,NA,NA,NA,NA,NA,NA,NA,NA,NA,NA,NA,NA,NA,NA,NA,NA,NA,NA,NA,NA,NA,NA,NA,NA,NA,NA,NA,NA,NA,NA,NA,NA,NA,NA,NA,NA,NA,0,2,2,0,1,NA,NA,NA,NA,NA,NA,NA,NA,NA,NA,NA,NA,NA,NA,NA
NA,NA,NA,NA,NA,NA,NA,NA,NA,NA,NA,SUPAMT96766,35L9RVQFCUH5ATCVECHJLYF4V36UH4,33D26D41-1918-46A7-973B-192AC1301302,0,2023-09-22_07h40.37.144,Pilot_VExplicitOC_RG_AMT_XS,2022.2.5,Win32,16.3821631,NA,NA,NA,NA,NA,NA,NA,NA,NA,NA,NA,NA,NA,NA,NA,NA,NA,NA,NA,NA,NA,NA,NA,NA,NA,NA,NA,NA,NA,NA,NA,NA,NA,NA,NA,NA,NA,NA,NA,NA,NA,NA,NA,NA,NA,NA,NA,NA,NA,NA,NA,NA,NA,NA,NA,NA,NA,NA,NA,NA,NA,NA,NA,NA,NA,NA,NA,NA,NA,NA,NA,NA,NA,NA,NA,NA,NA,NA,NA,NA,NA,NA,NA,NA,NA,NA,NA,NA,NA,NA,NA,NA,NA,NA,NA,NA,NA,NA,NA,NA,NA,NA,NA,NA,NA,NA,NA,NA,NA,NA,NA,NA,NA,NA,NA,NA,NA,NA,NA,0,9,9,11,1,0.3,NA,NA,NA,NA,NA,NA,NA,NA,NA
NA,NA,NA,NA,NA,NA,NA,NA,NA,NA,NA,SUPAMT96766,35L9RVQFCUH5ATCVECHJLYF4V36UH4,33D26D41-1918-46A7-973B-192AC1301302,0,2023-09-22_07h40.37.144,Pilot_VExplicitOC_RG_AMT_XS,2022.2.5,Win32,16.3821631,NA,NA,NA,NA,NA,NA,NA,NA,NA,NA,NA,NA,NA,NA,NA,NA,NA,NA,NA,NA,NA,NA,NA,NA,NA,NA,NA,NA,NA,NA,NA,NA,NA,NA,NA,NA,NA,NA,NA,NA,NA,NA,NA,NA,NA,NA,NA,NA,NA,NA,NA,NA,NA,NA,NA,NA,NA,NA,NA,NA,NA,NA,NA,NA,NA,NA,NA,NA,NA,NA,NA,NA,NA,NA,NA,NA,NA,NA,NA,NA,NA,NA,NA,NA,NA,NA,NA,NA,NA,NA,NA,NA,NA,NA,NA,NA,NA,NA,random,FALSE,FALSE,FALSE,0.5,0,0,-0.464472849,-1.3,-1.764472849,-1.609648566,gamble,lose,-1.764472849,1.655085506,NA,NA,NA,NA,NA,NA,0,10,10,15,1,-1.3,NA,NA,NA,NA,NA,NA,NA,NA,NA
NA,NA,NA,NA,NA,NA,NA,NA,NA,NA,NA,SUPAMT96766,35L9RVQFCUH5ATCVECHJLYF4V36UH4,33D26D41-1918-46A7-973B-192AC1301302,0,2023-09-22_07h40.37.144,Pilot_VExplicitOC_RG_AMT_XS,2022.2.5,Win32,16.3821631,NA,NA,NA,NA,NA,NA,NA,NA,NA,NA,NA,NA,NA,NA,frustrated,"frustrated, not frustrated","more frustrated, less frustrated",NA,NA,NA,NA,NA,NA,NA,NA,NA,NA,NA,NA,NA,NA,NA,NA,NA,NA,NA,NA,NA,NA,NA,NA,NA,NA,NA,NA,NA,NA,NA,NA,NA,NA,NA,NA,2.062,NA,NA,NA,NA,NA,NA,NA,NA,NA,NA,NA,NA,NA,NA,NA,NA,NA,NA,NA,NA,NA,NA,NA,NA,NA,NA,NA,NA,NA,NA,NA,NA,NA,NA,NA,NA,NA,NA,NA,NA,NA,NA,NA,NA,random,FALSE,FALSE,FALSE,0.5,0,0,4.552006114,7.952006114,3.4,4.917335371,gamble,win,7.952006114,9.60709162,NA,0,0,0,1,1,NA,NA,NA,NA,NA,NA,NA,NA,NA,NA,NA,NA,NA,NA,NA
NA,NA,NA,NA,NA,NA,NA,NA,NA,NA,NA,SUPAMT96766,35L9RVQFCUH5ATCVECHJLYF4V36UH4,33D26D41-1918-46A7-973B-192AC1301302,0,2023-09-22_07h40.37.144,Pilot_VExplicitOC_RG_AMT_XS,2022.2.5,Win32,16.3821631,NA,NA,NA,NA,NA,NA,NA,NA,NA,NA,NA,NA,NA,NA,bored,"bored, not bored","more bored, less bored",NA,NA,NA,NA,NA,NA,NA,NA,NA,NA,NA,NA,NA,NA,NA,NA,NA,NA,NA,NA,NA,NA,NA,NA,NA,NA,NA,NA,NA,NA,NA,NA,NA,NA,78.90625,6.7443,2.0169,NA,NA,NA,NA,NA,NA,NA,NA,NA,NA,NA,NA,NA,NA,NA,NA,NA,NA,NA,NA,NA,NA,NA,NA,NA,NA,NA,NA,NA,NA,NA,NA,NA,NA,NA,NA,NA,NA,NA,NA,NA,NA,NA,NA,NA,NA,NA,NA,NA,NA,NA,NA,NA,NA,NA,NA,NA,NA,NA,NA,0,1,1,2,1,NA,NA,NA,NA,NA,NA,NA,NA,NA,NA,NA,NA,NA,NA,NA
NA,NA,NA,NA,NA,NA,NA,NA,NA,NA,NA,SUPAMT96766,35L9RVQFCUH5ATCVECHJLYF4V36UH4,33D26D41-1918-46A7-973B-192AC1301302,0,2023-09-22_07h40.37.144,Pilot_VExplicitOC_RG_AMT_XS,2022.2.5,Win32,16.3821631,NA,NA,NA,NA,NA,NA,NA,NA,NA,NA,NA,NA,NA,NA,happy,"unhappy, happy","less happy, more happy",NA,NA,NA,NA,NA,NA,NA,NA,NA,NA,NA,NA,NA,NA,NA,NA,NA,NA,NA,NA,NA,NA,NA,NA,NA,NA,NA,NA,NA,NA,NA,NA,NA,NA,NA,NA,2.0647,NA,NA,NA,NA,NA,NA,NA,NA,NA,NA,NA,NA,NA,NA,NA,NA,NA,NA,NA,NA,NA,NA,NA,NA,NA,NA,NA,NA,NA,NA,NA,NA,NA,NA,NA,NA,NA,NA,NA,NA,NA,NA,NA,NA,NA,NA,NA,NA,NA,NA,NA,NA,NA,NA,NA,NA,NA,NA,NA,NA,0,2,2,0,1,NA,NA,NA,NA,NA,NA,NA,NA,NA,NA,NA,NA,NA,NA,NA
NA,NA,NA,NA,NA,NA,NA,NA,NA,NA,NA,SUPAMT96766,35L9RVQFCUH5ATCVECHJLYF4V36UH4,33D26D41-1918-46A7-973B-192AC1301302,0,2023-09-22_07h40.37.144,Pilot_VExplicitOC_RG_AMT_XS,2022.2.5,Win32,16.3821631,NA,NA,NA,NA,NA,NA,NA,NA,NA,NA,NA,NA,NA,NA,NA,NA,NA,NA,NA,NA,NA,NA,NA,NA,NA,NA,NA,NA,NA,NA,NA,NA,NA,NA,NA,NA,NA,NA,NA,NA,NA,NA,NA,NA,NA,NA,NA,NA,NA,NA,NA,NA,NA,NA,NA,NA,NA,NA,NA,NA,NA,NA,NA,NA,NA,NA,NA,NA,NA,NA,NA,NA,NA,NA,NA,NA,NA,NA,NA,NA,NA,NA,NA,NA,NA,NA,NA,NA,NA,NA,NA,NA,NA,NA,NA,NA,NA,NA,NA,NA,NA,NA,NA,NA,NA,NA,NA,NA,NA,NA,NA,NA,NA,NA,NA,NA,NA,NA,NA,0,11,11,3,1,3.4,NA,NA,NA,NA,NA,NA,NA,NA,NA
NA,NA,NA,NA,NA,NA,NA,NA,NA,NA,NA,SUPAMT96766,35L9RVQFCUH5ATCVECHJLYF4V36UH4,33D26D41-1918-46A7-973B-192AC1301302,0,2023-09-22_07h40.37.144,Pilot_VExplicitOC_RG_AMT_XS,2022.2.5,Win32,16.3821631,NA,NA,NA,NA,NA,NA,NA,NA,NA,NA,NA,NA,NA,NA,NA,NA,NA,NA,NA,NA,NA,NA,NA,NA,NA,NA,NA,NA,NA,NA,NA,NA,NA,NA,NA,NA,NA,NA,NA,NA,NA,NA,NA,NA,NA,NA,NA,NA,NA,NA,NA,NA,NA,NA,NA,NA,NA,NA,NA,NA,NA,NA,NA,NA,NA,NA,NA,NA,NA,NA,NA,NA,NA,NA,NA,NA,NA,NA,NA,NA,NA,NA,NA,NA,NA,NA,NA,NA,NA,NA,NA,NA,NA,NA,NA,NA,NA,NA,random,FALSE,FALSE,TRUE,0.5,0,0,-0.100771749,1.1,0.999228251,1.032818834,gamble,lose,0.999228251,10.60631987,NA,NA,NA,NA,NA,NA,0,12,12,14,1,1.1,NA,NA,NA,NA,NA,NA,NA,NA,NA
NA,NA,NA,NA,NA,NA,NA,NA,NA,NA,NA,SUPAMT96766,35L9RVQFCUH5ATCVECHJLYF4V36UH4,33D26D41-1918-46A7-973B-192AC1301302,0,2023-09-22_07h40.37.144,Pilot_VExplicitOC_RG_AMT_XS,2022.2.5,Win32,16.3821631,NA,NA,NA,NA,NA,NA,NA,NA,NA,NA,NA,NA,NA,NA,NA,NA,NA,NA,NA,NA,NA,NA,NA,NA,NA,NA,NA,NA,NA,NA,NA,NA,NA,NA,NA,NA,NA,NA,NA,NA,NA,NA,NA,NA,NA,NA,NA,NA,NA,NA,NA,NA,NA,NA,NA,NA,NA,NA,NA,NA,NA,NA,NA,NA,NA,NA,NA,NA,NA,NA,NA,NA,NA,NA,NA,NA,NA,NA,NA,NA,NA,NA,NA,NA,NA,NA,NA,NA,NA,NA,NA,NA,NA,NA,NA,NA,NA,NA,random,FALSE,FALSE,FALSE,0.5,0,0,-0.28267282,1,0.71732718,0.811551453,gamble,lose,0.71732718,11.32364705,NA,NA,NA,NA,NA,NA,0,13,13,31,1,1,NA,NA,NA,NA,NA,NA,NA,NA,NA
NA,NA,NA,NA,NA,NA,NA,NA,NA,NA,NA,SUPAMT96766,35L9RVQFCUH5ATCVECHJLYF4V36UH4,33D26D41-1918-46A7-973B-192AC1301302,0,2023-09-22_07h40.37.144,Pilot_VExplicitOC_RG_AMT_XS,2022.2.5,Win32,16.3821631,NA,NA,NA,NA,NA,NA,NA,NA,NA,NA,NA,NA,NA,NA,happy,"unhappy, happy","less happy, more happy",NA,NA,NA,NA,NA,NA,NA,NA,NA,NA,NA,NA,NA,NA,NA,NA,NA,NA,NA,NA,NA,NA,NA,NA,NA,NA,NA,NA,NA,NA,NA,NA,NA,NA,94.79166667,5.4359,2.0192,NA,NA,NA,NA,NA,NA,NA,NA,NA,NA,NA,NA,NA,NA,NA,NA,NA,NA,NA,NA,NA,NA,NA,NA,NA,NA,NA,NA,NA,NA,NA,NA,NA,NA,NA,NA,NA,NA,NA,NA,NA,NA,NA,NA,random,FALSE,FALSE,TRUE,0.5,0,0,4.74066778,2.24066778,-2.5,-0.919777407,gamble,win,2.24066778,13.56431483,NA,0,0,0,0,1,NA,NA,NA,NA,NA,NA,NA,NA,NA,NA,NA,NA,NA,NA,NA
NA,NA,NA,NA,NA,NA,NA,NA,NA,NA,NA,SUPAMT96766,35L9RVQFCUH5ATCVECHJLYF4V36UH4,33D26D41-1918-46A7-973B-192AC1301302,0,2023-09-22_07h40.37.144,Pilot_VExplicitOC_RG_AMT_XS,2022.2.5,Win32,16.3821631,NA,NA,NA,NA,NA,NA,NA,NA,NA,NA,NA,NA,NA,NA,bored,"bored, not bored","more bored, less bored",NA,NA,NA,NA,NA,NA,NA,NA,NA,NA,NA,NA,NA,NA,NA,NA,NA,NA,NA,NA,NA,NA,NA,NA,NA,NA,NA,NA,NA,NA,NA,NA,NA,NA,NA,NA,2.0679,NA,NA,NA,NA,NA,NA,NA,NA,NA,NA,NA,NA,NA,NA,NA,NA,NA,NA,NA,NA,NA,NA,NA,NA,NA,NA,NA,NA,NA,NA,NA,NA,NA,NA,NA,NA,NA,NA,NA,NA,NA,NA,NA,NA,NA,NA,NA,NA,NA,NA,NA,NA,NA,NA,NA,NA,NA,NA,NA,NA,0,1,1,2,1,NA,NA,NA,NA,NA,NA,NA,NA,NA,NA,NA,NA,NA,NA,NA
NA,NA,NA,NA,NA,NA,NA,NA,NA,NA,NA,SUPAMT96766,35L9RVQFCUH5ATCVECHJLYF4V36UH4,33D26D41-1918-46A7-973B-192AC1301302,0,2023-09-22_07h40.37.144,Pilot_VExplicitOC_RG_AMT_XS,2022.2.5,Win32,16.3821631,NA,NA,NA,NA,NA,NA,NA,NA,NA,NA,NA,NA,NA,NA,frustrated,"frustrated, not frustrated","more frustrated, less frustrated",NA,NA,NA,NA,NA,NA,NA,NA,NA,NA,NA,NA,NA,NA,NA,NA,NA,NA,NA,NA,NA,NA,NA,NA,NA,NA,NA,NA,NA,NA,NA,NA,NA,NA,NA,NA,2.0632,NA,NA,NA,NA,NA,NA,NA,NA,NA,NA,NA,NA,NA,NA,NA,NA,NA,NA,NA,NA,NA,NA,NA,NA,NA,NA,NA,NA,NA,NA,NA,NA,NA,NA,NA,NA,NA,NA,NA,NA,NA,NA,NA,NA,NA,NA,NA,NA,NA,NA,NA,NA,NA,NA,NA,NA,NA,NA,NA,NA,0,2,2,1,1,NA,NA,NA,NA,NA,NA,NA,NA,NA,NA,NA,NA,NA,NA,NA
NA,NA,NA,NA,NA,NA,NA,NA,NA,NA,NA,SUPAMT96766,35L9RVQFCUH5ATCVECHJLYF4V36UH4,33D26D41-1918-46A7-973B-192AC1301302,0,2023-09-22_07h40.37.144,Pilot_VExplicitOC_RG_AMT_XS,2022.2.5,Win32,16.3821631,NA,NA,NA,NA,NA,NA,NA,NA,NA,NA,NA,NA,NA,NA,NA,NA,NA,NA,NA,NA,NA,NA,NA,NA,NA,NA,NA,NA,NA,NA,NA,NA,NA,NA,NA,NA,NA,NA,NA,NA,NA,NA,NA,NA,NA,NA,NA,NA,NA,NA,NA,NA,NA,NA,NA,NA,NA,NA,NA,NA,NA,NA,NA,NA,NA,NA,NA,NA,NA,NA,NA,NA,NA,NA,NA,NA,NA,NA,NA,NA,NA,NA,NA,NA,NA,NA,NA,NA,NA,NA,NA,NA,NA,NA,NA,NA,NA,NA,NA,NA,NA,NA,NA,NA,NA,NA,NA,NA,NA,NA,NA,NA,NA,NA,NA,NA,NA,NA,NA,0,14,14,18,1,-2.5,NA,NA,NA,NA,NA,NA,NA,NA,NA
NA,NA,NA,NA,NA,NA,NA,NA,NA,NA,NA,SUPAMT96766,35L9RVQFCUH5ATCVECHJLYF4V36UH4,33D26D41-1918-46A7-973B-192AC1301302,0,2023-09-22_07h40.37.144,Pilot_VExplicitOC_RG_AMT_XS,2022.2.5,Win32,16.3821631,NA,NA,NA,NA,NA,NA,NA,NA,NA,NA,NA,NA,NA,NA,NA,NA,NA,NA,NA,NA,NA,NA,NA,NA,NA,NA,NA,NA,NA,NA,NA,NA,NA,NA,NA,NA,NA,NA,NA,NA,NA,NA,NA,NA,NA,NA,NA,NA,NA,NA,NA,NA,NA,NA,NA,NA,NA,NA,NA,NA,NA,NA,NA,NA,NA,NA,NA,NA,NA,NA,NA,NA,NA,NA,NA,NA,NA,NA,NA,NA,NA,NA,NA,NA,NA,NA,NA,NA,NA,NA,NA,NA,NA,NA,NA,NA,NA,NA,random,FALSE,FALSE,FALSE,0.5,0,0,-1.523379934,-3.4,-4.923379934,-4.415586623,gamble,lose,-4.923379934,8.640934896,NA,NA,NA,NA,NA,NA,0,15,15,9,1,-3.4,NA,NA,NA,NA,NA,NA,NA,NA,NA
NA,NA,NA,NA,NA,NA,NA,NA,NA,NA,NA,SUPAMT96766,35L9RVQFCUH5ATCVECHJLYF4V36UH4,33D26D41-1918-46A7-973B-192AC1301302,0,2023-09-22_07h40.37.144,Pilot_VExplicitOC_RG_AMT_XS,2022.2.5,Win32,16.3821631,NA,NA,NA,NA,NA,NA,NA,NA,NA,NA,NA,NA,NA,NA,bored,"bored, not bored","more bored, less bored",NA,NA,NA,NA,NA,NA,NA,NA,NA,NA,NA,NA,NA,NA,NA,NA,NA,NA,NA,NA,NA,NA,NA,NA,NA,NA,NA,NA,NA,NA,NA,NA,NA,NA,NA,NA,2.0375,NA,NA,NA,NA,NA,NA,NA,NA,NA,NA,NA,NA,NA,NA,NA,NA,NA,NA,NA,NA,NA,NA,NA,NA,NA,NA,NA,NA,NA,NA,NA,NA,NA,NA,NA,NA,NA,NA,NA,NA,NA,NA,NA,NA,random,FALSE,FALSE,TRUE,0.5,0,0,3.42127358,2.62127358,-0.8,0.340424527,gamble,win,2.62127358,11.26220848,NA,0,0,0,2,1,NA,NA,NA,NA,NA,NA,NA,NA,NA,NA,NA,NA,NA,NA,NA
NA,NA,NA,NA,NA,NA,NA,NA,NA,NA,NA,SUPAMT96766,35L9RVQFCUH5ATCVECHJLYF4V36UH4,33D26D41-1918-46A7-973B-192AC1301302,0,2023-09-22_07h40.37.144,Pilot_VExplicitOC_RG_AMT_XS,2022.2.5,Win32,16.3821631,NA,NA,NA,NA,NA,NA,NA,NA,NA,NA,NA,NA,NA,NA,happy,"unhappy, happy","less happy, more happy",NA,NA,NA,NA,NA,NA,NA,NA,NA,NA,NA,NA,NA,NA,NA,NA,NA,NA,NA,NA,NA,NA,NA,NA,NA,NA,NA,NA,NA,NA,NA,NA,NA,NA,1.302083333,3.9919,2.0651,NA,NA,NA,NA,NA,NA,NA,NA,NA,NA,NA,NA,NA,NA,NA,NA,NA,NA,NA,NA,NA,NA,NA,NA,NA,NA,NA,NA,NA,NA,NA,NA,NA,NA,NA,NA,NA,NA,NA,NA,NA,NA,NA,NA,NA,NA,NA,NA,NA,NA,NA,NA,NA,NA,NA,NA,NA,NA,NA,NA,0,1,1,0,1,NA,NA,NA,NA,NA,NA,NA,NA,NA,NA,NA,NA,NA,NA,NA
NA,NA,NA,NA,NA,NA,NA,NA,NA,NA,NA,SUPAMT96766,35L9RVQFCUH5ATCVECHJLYF4V36UH4,33D26D41-1918-46A7-973B-192AC1301302,0,2023-09-22_07h40.37.144,Pilot_VExplicitOC_RG_AMT_XS,2022.2.5,Win32,16.3821631,NA,NA,NA,NA,NA,NA,NA,NA,NA,NA,NA,NA,NA,NA,frustrated,"frustrated, not frustrated","more frustrated, less frustrated",NA,NA,NA,NA,NA,NA,NA,NA,NA,NA,NA,NA,NA,NA,NA,NA,NA,NA,NA,NA,NA,NA,NA,NA,NA,NA,NA,NA,NA,NA,NA,NA,NA,NA,-72.13541667,7.3646,2.0316,NA,NA,NA,NA,NA,NA,NA,NA,NA,NA,NA,NA,NA,NA,NA,NA,NA,NA,NA,NA,NA,NA,NA,NA,NA,NA,NA,NA,NA,NA,NA,NA,NA,NA,NA,NA,NA,NA,NA,NA,NA,NA,NA,NA,NA,NA,NA,NA,NA,NA,NA,NA,NA,NA,NA,NA,NA,NA,NA,NA,0,2,2,1,1,NA,NA,NA,NA,NA,NA,NA,NA,NA,NA,NA,NA,NA,NA,NA
NA,NA,NA,NA,NA,NA,NA,NA,NA,NA,NA,SUPAMT96766,35L9RVQFCUH5ATCVECHJLYF4V36UH4,33D26D41-1918-46A7-973B-192AC1301302,0,2023-09-22_07h40.37.144,Pilot_VExplicitOC_RG_AMT_XS,2022.2.5,Win32,16.3821631,NA,NA,NA,NA,NA,NA,NA,NA,NA,NA,NA,NA,NA,NA,NA,NA,NA,NA,NA,NA,NA,NA,NA,NA,NA,NA,NA,NA,NA,NA,NA,NA,NA,NA,NA,NA,NA,NA,NA,NA,NA,NA,NA,NA,NA,NA,NA,NA,NA,NA,NA,NA,NA,NA,NA,NA,NA,NA,NA,NA,NA,NA,NA,NA,NA,NA,NA,NA,NA,NA,NA,NA,NA,NA,NA,NA,NA,NA,NA,NA,NA,NA,NA,NA,NA,NA,NA,NA,NA,NA,NA,NA,NA,NA,NA,NA,NA,NA,NA,NA,NA,NA,NA,NA,NA,NA,NA,NA,NA,NA,NA,NA,NA,NA,NA,NA,NA,NA,NA,0,16,16,27,1,-0.8,NA,NA,NA,NA,NA,NA,NA,NA,NA
NA,NA,NA,NA,NA,NA,NA,NA,NA,NA,NA,SUPAMT96766,35L9RVQFCUH5ATCVECHJLYF4V36UH4,33D26D41-1918-46A7-973B-192AC1301302,0,2023-09-22_07h40.37.144,Pilot_VExplicitOC_RG_AMT_XS,2022.2.5,Win32,16.3821631,NA,NA,NA,NA,NA,NA,NA,NA,NA,NA,NA,NA,NA,NA,NA,NA,NA,NA,NA,NA,NA,NA,NA,NA,NA,NA,NA,NA,NA,NA,NA,NA,NA,NA,NA,NA,NA,NA,NA,NA,NA,NA,NA,NA,NA,NA,NA,NA,NA,NA,NA,NA,NA,NA,NA,NA,NA,NA,NA,NA,NA,NA,NA,NA,NA,NA,NA,NA,NA,NA,NA,NA,NA,NA,NA,NA,NA,NA,NA,NA,NA,NA,NA,NA,NA,NA,NA,NA,NA,NA,NA,NA,NA,NA,NA,NA,NA,NA,random,FALSE,FALSE,FALSE,0.5,0,0,2.194003439,0.394003439,-1.8,-1.06866552,gamble,win,0.394003439,11.65621192,NA,NA,NA,NA,NA,NA,0,17,17,30,1,-1.8,NA,NA,NA,NA,NA,NA,NA,NA,NA
NA,NA,NA,NA,NA,NA,NA,NA,NA,NA,NA,SUPAMT96766,35L9RVQFCUH5ATCVECHJLYF4V36UH4,33D26D41-1918-46A7-973B-192AC1301302,0,2023-09-22_07h40.37.144,Pilot_VExplicitOC_RG_AMT_XS,2022.2.5,Win32,16.3821631,NA,NA,NA,NA,NA,NA,NA,NA,NA,NA,NA,NA,NA,NA,NA,NA,NA,NA,NA,NA,NA,NA,NA,NA,NA,NA,NA,NA,NA,NA,NA,NA,NA,NA,NA,NA,NA,NA,NA,NA,NA,NA,NA,NA,NA,NA,NA,NA,NA,NA,NA,NA,NA,NA,NA,NA,NA,NA,NA,NA,NA,NA,NA,NA,NA,NA,NA,NA,NA,NA,NA,NA,NA,NA,NA,NA,NA,NA,NA,NA,NA,NA,NA,NA,NA,NA,NA,NA,NA,NA,NA,NA,NA,NA,NA,NA,NA,NA,random,FALSE,FALSE,TRUE,0.5,0,0,0.424664784,-2.675335216,-3.1,-2.958445072,gamble,win,-2.675335216,8.9808767,NA,NA,NA,NA,NA,NA,0,18,18,7,1,-3.1,NA,NA,NA,NA,NA,NA,NA,NA,NA
NA,NA,NA,NA,NA,NA,NA,NA,NA,NA,NA,SUPAMT96766,35L9RVQFCUH5ATCVECHJLYF4V36UH4,33D26D41-1918-46A7-973B-192AC1301302,0,2023-09-22_07h40.37.144,Pilot_VExplicitOC_RG_AMT_XS,2022.2.5,Win32,16.3821631,NA,NA,NA,NA,NA,NA,NA,NA,NA,NA,NA,NA,NA,NA,frustrated,"frustrated, not frustrated","more frustrated, less frustrated",NA,NA,NA,NA,NA,NA,NA,NA,NA,NA,NA,NA,NA,NA,NA,NA,NA,NA,NA,NA,NA,NA,NA,NA,NA,NA,NA,NA,NA,NA,NA,NA,NA,NA,-86.45833333,6.3174,2.0177,NA,NA,NA,NA,NA,NA,NA,NA,NA,NA,NA,NA,NA,NA,NA,NA,NA,NA,NA,NA,NA,NA,NA,NA,NA,NA,NA,NA,NA,NA,NA,NA,NA,NA,NA,NA,NA,NA,NA,NA,NA,NA,NA,NA,random,FALSE,FALSE,FALSE,0.5,0,0,-2.800921108,1.2,-1.600921108,-0.667280739,gamble,lose,-1.600921108,7.379955592,NA,0,0,0,1,1,NA,NA,NA,NA,NA,NA,NA,NA,NA,NA,NA,NA,NA,NA,NA
NA,NA,NA,NA,NA,NA,NA,NA,NA,NA,NA,SUPAMT96766,35L9RVQFCUH5ATCVECHJLYF4V36UH4,33D26D41-1918-46A7-973B-192AC1301302,0,2023-09-22_07h40.37.144,Pilot_VExplicitOC_RG_AMT_XS,2022.2.5,Win32,16.3821631,NA,NA,NA,NA,NA,NA,NA,NA,NA,NA,NA,NA,NA,NA,bored,"bored, not bored","more bored, less bored",NA,NA,NA,NA,NA,NA,NA,NA,NA,NA,NA,NA,NA,NA,NA,NA,NA,NA,NA,NA,NA,NA,NA,NA,NA,NA,NA,NA,NA,NA,NA,NA,NA,NA,61.71875,7.3803,2.0506,NA,NA,NA,NA,NA,NA,NA,NA,NA,NA,NA,NA,NA,NA,NA,NA,NA,NA,NA,NA,NA,NA,NA,NA,NA,NA,NA,NA,NA,NA,NA,NA,NA,NA,NA,NA,NA,NA,NA,NA,NA,NA,NA,NA,NA,NA,NA,NA,NA,NA,NA,NA,NA,NA,NA,NA,NA,NA,NA,NA,0,1,1,2,1,NA,NA,NA,NA,NA,NA,NA,NA,NA,NA,NA,NA,NA,NA,NA
NA,NA,NA,NA,NA,NA,NA,NA,NA,NA,NA,SUPAMT96766,35L9RVQFCUH5ATCVECHJLYF4V36UH4,33D26D41-1918-46A7-973B-192AC1301302,0,2023-09-22_07h40.37.144,Pilot_VExplicitOC_RG_AMT_XS,2022.2.5,Win32,16.3821631,NA,NA,NA,NA,NA,NA,NA,NA,NA,NA,NA,NA,NA,NA,happy,"unhappy, happy","less happy, more happy",NA,NA,NA,NA,NA,NA,NA,NA,NA,NA,NA,NA,NA,NA,NA,NA,NA,NA,NA,NA,NA,NA,NA,NA,NA,NA,NA,NA,NA,NA,NA,NA,NA,NA,94.27083333,7.3718,2.0144,NA,NA,NA,NA,NA,NA,NA,NA,NA,NA,NA,NA,NA,NA,NA,NA,NA,NA,NA,NA,NA,NA,NA,NA,NA,NA,NA,NA,NA,NA,NA,NA,NA,NA,NA,NA,NA,NA,NA,NA,NA,NA,NA,NA,NA,NA,NA,NA,NA,NA,NA,NA,NA,NA,NA,NA,NA,NA,NA,NA,0,2,2,0,1,NA,NA,NA,NA,NA,NA,NA,NA,NA,NA,NA,NA,NA,NA,NA
NA,NA,NA,NA,NA,NA,NA,NA,NA,NA,NA,SUPAMT96766,35L9RVQFCUH5ATCVECHJLYF4V36UH4,33D26D41-1918-46A7-973B-192AC1301302,0,2023-09-22_07h40.37.144,Pilot_VExplicitOC_RG_AMT_XS,2022.2.5,Win32,16.3821631,NA,NA,NA,NA,NA,NA,NA,NA,NA,NA,NA,NA,NA,NA,NA,NA,NA,NA,NA,NA,NA,NA,NA,NA,NA,NA,NA,NA,NA,NA,NA,NA,NA,NA,NA,NA,NA,NA,NA,NA,NA,NA,NA,NA,NA,NA,NA,NA,NA,NA,NA,NA,NA,NA,NA,NA,NA,NA,NA,NA,NA,NA,NA,NA,NA,NA,NA,NA,NA,NA,NA,NA,NA,NA,NA,NA,NA,NA,NA,NA,NA,NA,NA,NA,NA,NA,NA,NA,NA,NA,NA,NA,NA,NA,NA,NA,NA,NA,NA,NA,NA,NA,NA,NA,NA,NA,NA,NA,NA,NA,NA,NA,NA,NA,NA,NA,NA,NA,NA,0,19,19,19,1,1.2,NA,NA,NA,NA,NA,NA,NA,NA,NA
NA,NA,NA,NA,NA,NA,NA,NA,NA,NA,NA,SUPAMT96766,35L9RVQFCUH5ATCVECHJLYF4V36UH4,33D26D41-1918-46A7-973B-192AC1301302,0,2023-09-22_07h40.37.144,Pilot_VExplicitOC_RG_AMT_XS,2022.2.5,Win32,16.3821631,NA,NA,NA,NA,NA,NA,NA,NA,NA,NA,NA,NA,NA,NA,NA,NA,NA,NA,NA,NA,NA,NA,NA,NA,NA,NA,NA,NA,NA,NA,NA,NA,NA,NA,NA,NA,NA,NA,NA,NA,NA,NA,NA,NA,NA,NA,NA,NA,NA,NA,NA,NA,NA,NA,NA,NA,NA,NA,NA,NA,NA,NA,NA,NA,NA,NA,NA,NA,NA,NA,NA,NA,NA,NA,NA,NA,NA,NA,NA,NA,NA,NA,NA,NA,NA,NA,NA,NA,NA,NA,NA,NA,NA,NA,NA,NA,NA,NA,random,FALSE,FALSE,FALSE,0.5,0,0,-3.734137059,0.2,-3.534137059,-2.289424706,gamble,lose,-3.534137059,3.845818533,NA,NA,NA,NA,NA,NA,0,20,20,1,1,0.2,NA,NA,NA,NA,NA,NA,NA,NA,NA
NA,NA,NA,NA,NA,NA,NA,NA,NA,NA,NA,SUPAMT96766,35L9RVQFCUH5ATCVECHJLYF4V36UH4,33D26D41-1918-46A7-973B-192AC1301302,0,2023-09-22_07h40.37.144,Pilot_VExplicitOC_RG_AMT_XS,2022.2.5,Win32,16.3821631,NA,NA,NA,NA,NA,NA,NA,NA,NA,NA,NA,NA,NA,NA,bored,"bored, not bored","more bored, less bored",NA,NA,NA,NA,NA,NA,NA,NA,NA,NA,NA,NA,NA,NA,NA,NA,NA,NA,NA,NA,NA,NA,NA,NA,NA,NA,NA,NA,NA,NA,NA,NA,NA,NA,-80.46875,6.4166,2.012,NA,NA,NA,NA,NA,NA,NA,NA,NA,NA,NA,NA,NA,NA,NA,NA,NA,NA,NA,NA,NA,NA,NA,NA,NA,NA,NA,NA,NA,NA,NA,NA,NA,NA,NA,NA,NA,NA,NA,NA,NA,NA,NA,NA,random,FALSE,FALSE,TRUE,0.5,0,0,0.132614531,-2.667385469,-2.8,-2.755795156,gamble,win,-2.667385469,1.178433063,NA,0,0,0,2,1,NA,NA,NA,NA,NA,NA,NA,NA,NA,NA,NA,NA,NA,NA,NA
NA,NA,NA,NA,NA,NA,NA,NA,NA,NA,NA,SUPAMT96766,35L9RVQFCUH5ATCVECHJLYF4V36UH4,33D26D41-1918-46A7-973B-192AC1301302,0,2023-09-22_07h40.37.144,Pilot_VExplicitOC_RG_AMT_XS,2022.2.5,Win32,16.3821631,NA,NA,NA,NA,NA,NA,NA,NA,NA,NA,NA,NA,NA,NA,happy,"unhappy, happy","less happy, more happy",NA,NA,NA,NA,NA,NA,NA,NA,NA,NA,NA,NA,NA,NA,NA,NA,NA,NA,NA,NA,NA,NA,NA,NA,NA,NA,NA,NA,NA,NA,NA,NA,NA,NA,NA,NA,2.0054,NA,NA,NA,NA,NA,NA,NA,NA,NA,NA,NA,NA,NA,NA,NA,NA,NA,NA,NA,NA,NA,NA,NA,NA,NA,NA,NA,NA,NA,NA,NA,NA,NA,NA,NA,NA,NA,NA,NA,NA,NA,NA,NA,NA,NA,NA,NA,NA,NA,NA,NA,NA,NA,NA,NA,NA,NA,NA,NA,NA,0,1,1,0,1,NA,NA,NA,NA,NA,NA,NA,NA,NA,NA,NA,NA,NA,NA,NA
