participant,session,completion,date,expName,psychopyVersion,OS,frameRate,rating_all.response,rating_all.rt,rating_all.tStart,rndRat1.thisRepN,rndRat1.thisTrialN,rndRat1.thisN,rndRat1.thisIndex,rndRat1.ran,Emo,Labs,Labs2,rating_alt.response,rating_alt.rt,AltC.thisRepN,AltC.thisTrialN,AltC.thisN,AltC.thisIndex,AltC.ran,alt_choices,pic_choices,TopAlt_Choice,rndRat2.thisRepN,rndRat2.thisTrialN,rndRat2.thisN,rndRat2.thisIndex,rndRat2.ran,rndRat3.thisRepN,rndRat3.thisTrialN,rndRat3.thisN,rndRat3.thisIndex,rndRat3.ran,trials_FC_H.thisRepN,trials_FC_H.thisTrialN,trials_FC_H.thisN,trials_FC_H.thisIndex,trials_FC_H.ran,rating_alt_2.response,rating_alt_2.rt,AltC2.thisRepN,AltC2.thisTrialN,AltC2.thisN,AltC2.thisIndex,AltC2.ran,BottomAlt_Choice,rndRat4.thisRepN,rndRat4.thisTrialN,rndRat4.thisN,rndRat4.thisIndex,rndRat4.ran,rndRat5.thisRepN,rndRat5.thisTrialN,rndRat5.thisN,rndRat5.thisIndex,rndRat5.ran,trials_FC_L.thisRepN,trials_FC_L.thisTrialN,trials_FC_L.thisN,trials_FC_L.thisIndex,trials_FC_L.ran
SUPAMT31218,3DOCMVPBTTDKPZEXK90ACNK6ACUNN9,6F838B78-D9C6-4C39-9DB7-EC35550A36E3,2023-09-27_10h51.25.165,WP_VExplicitOC_HL,2022.2.5,Win32,9.155329317,NA,NA,NA,NA,NA,NA,NA,NA,NA,NA,NA,NA,NA,NA,NA,NA,NA,NA,NA,NA,NA,NA,NA,NA,NA,NA,NA,NA,NA,NA,NA,NA,NA,NA,NA,NA,NA,NA,NA,NA,NA,NA,NA,NA,NA,NA,NA,NA,NA,NA,NA,NA,NA,NA,NA,NA,NA,NA,NA
SUPAMT31218,3DOCMVPBTTDKPZEXK90ACNK6ACUNN9,6F838B78-D9C6-4C39-9DB7-EC35550A36E3,2023-09-27_10h51.25.165,WP_VExplicitOC_HL,2022.2.5,Win32,9.155329317,NA,NA,NA,NA,NA,NA,NA,NA,NA,NA,NA,NA,NA,NA,NA,NA,NA,NA,NA,NA,NA,NA,NA,NA,NA,NA,NA,NA,NA,NA,NA,NA,NA,NA,NA,NA,NA,NA,NA,NA,NA,NA,NA,NA,NA,NA,NA,NA,NA,NA,NA,NA,NA,NA,NA,NA,NA,NA,NA
SUPAMT31218,3DOCMVPBTTDKPZEXK90ACNK6ACUNN9,6F838B78-D9C6-4C39-9DB7-EC35550A36E3,2023-09-27_10h51.25.165,WP_VExplicitOC_HL,2022.2.5,Win32,9.155329317,NA,NA,NA,NA,NA,NA,NA,NA,NA,NA,NA,NA,NA,NA,NA,NA,NA,NA,NA,NA,NA,NA,NA,NA,NA,NA,NA,NA,NA,NA,NA,NA,NA,NA,NA,NA,NA,NA,NA,NA,NA,NA,NA,NA,NA,NA,NA,NA,NA,NA,NA,NA,NA,NA,NA,NA,NA,NA,NA
SUPAMT31218,3DOCMVPBTTDKPZEXK90ACNK6ACUNN9,6F838B78-D9C6-4C39-9DB7-EC35550A36E3,2023-09-27_10h51.25.165,WP_VExplicitOC_HL,2022.2.5,Win32,9.155329317,14.53957997,3.3655,2.069,0,0,0,1,1,frustrated,"frustrated, not frustrated","more frustrated, less frustrated",NA,NA,NA,NA,NA,NA,NA,NA,NA,NA,NA,NA,NA,NA,NA,NA,NA,NA,NA,NA,NA,NA,NA,NA,NA,NA,NA,NA,NA,NA,NA,NA,NA,NA,NA,NA,NA,NA,NA,NA,NA,NA,NA,NA,NA,NA,NA,NA
SUPAMT31218,3DOCMVPBTTDKPZEXK90ACNK6ACUNN9,6F838B78-D9C6-4C39-9DB7-EC35550A36E3,2023-09-27_10h51.25.165,WP_VExplicitOC_HL,2022.2.5,Win32,9.155329317,17.12439418,3.4896,2.0687,0,1,1,2,1,bored,"bored, not bored","more bored, less bored",NA,NA,NA,NA,NA,NA,NA,NA,NA,NA,NA,NA,NA,NA,NA,NA,NA,NA,NA,NA,NA,NA,NA,NA,NA,NA,NA,NA,NA,NA,NA,NA,NA,NA,NA,NA,NA,NA,NA,NA,NA,NA,NA,NA,NA,NA,NA,NA
SUPAMT31218,3DOCMVPBTTDKPZEXK90ACNK6ACUNN9,6F838B78-D9C6-4C39-9DB7-EC35550A36E3,2023-09-27_10h51.25.165,WP_VExplicitOC_HL,2022.2.5,Win32,9.155329317,56.21970921,3.4731,2.1046,0,2,2,0,1,happy,"unhappy, happy","less happy, more happy",NA,NA,NA,NA,NA,NA,NA,NA,NA,NA,NA,NA,NA,NA,NA,NA,NA,NA,NA,NA,NA,NA,NA,NA,NA,NA,NA,NA,NA,NA,NA,NA,NA,NA,NA,NA,NA,NA,NA,NA,NA,NA,NA,NA,NA,NA,NA,NA
SUPAMT31218,3DOCMVPBTTDKPZEXK90ACNK6ACUNN9,6F838B78-D9C6-4C39-9DB7-EC35550A36E3,2023-09-27_10h51.25.165,WP_VExplicitOC_HL,2022.2.5,Win32,9.155329317,NA,NA,NA,NA,NA,NA,NA,NA,NA,NA,NA,NA,NA,NA,NA,NA,NA,NA,NA,NA,NA,NA,NA,NA,NA,NA,NA,NA,NA,NA,NA,NA,NA,NA,NA,NA,NA,NA,NA,NA,NA,NA,NA,NA,NA,NA,NA,NA,NA,NA,NA,NA,NA,NA,NA,NA,NA,NA,NA
SUPAMT31218,3DOCMVPBTTDKPZEXK90ACNK6ACUNN9,6F838B78-D9C6-4C39-9DB7-EC35550A36E3,2023-09-27_10h51.25.165,WP_VExplicitOC_HL,2022.2.5,Win32,9.155329317,NA,NA,NA,NA,NA,NA,NA,NA,NA,NA,NA,NA,NA,NA,NA,NA,NA,NA,NA,NA,NA,NA,NA,NA,NA,NA,NA,NA,NA,NA,NA,NA,NA,NA,NA,NA,NA,NA,NA,NA,NA,NA,NA,NA,NA,NA,NA,NA,NA,NA,NA,NA,NA,NA,NA,NA,NA,NA,NA
SUPAMT31218,3DOCMVPBTTDKPZEXK90ACNK6ACUNN9,6F838B78-D9C6-4C39-9DB7-EC35550A36E3,2023-09-27_10h51.25.165,WP_VExplicitOC_HL,2022.2.5,Win32,9.155329317,NA,NA,NA,NA,NA,NA,NA,NA,NA,NA,NA,NA,NA,NA,NA,NA,NA,NA,NA,NA,NA,NA,NA,NA,NA,NA,NA,NA,NA,NA,NA,NA,NA,NA,NA,NA,NA,NA,NA,NA,NA,NA,NA,NA,NA,NA,NA,NA,NA,NA,NA,NA,NA,NA,NA,NA,NA,NA,NA
SUPAMT31218,3DOCMVPBTTDKPZEXK90ACNK6ACUNN9,6F838B78-D9C6-4C39-9DB7-EC35550A36E3,2023-09-27_10h51.25.165,WP_VExplicitOC_HL,2022.2.5,Win32,9.155329317,NA,NA,NA,NA,NA,NA,NA,NA,NA,NA,NA,NA,NA,NA,NA,NA,NA,NA,NA,NA,NA,NA,NA,NA,NA,NA,NA,NA,NA,NA,NA,NA,NA,NA,NA,NA,NA,NA,NA,NA,NA,NA,NA,NA,NA,NA,NA,NA,NA,NA,NA,NA,NA,NA,NA,NA,NA,NA,NA
SUPAMT31218,3DOCMVPBTTDKPZEXK90ACNK6ACUNN9,6F838B78-D9C6-4C39-9DB7-EC35550A36E3,2023-09-27_10h51.25.165,WP_VExplicitOC_HL,2022.2.5,Win32,9.155329317,NA,NA,NA,NA,NA,NA,NA,NA,NA,NA,NA,16.47819063,2.0697,0,0,0,0,1,rest (looking at a fixed cross),001.png,NA,NA,NA,NA,NA,NA,NA,NA,NA,NA,NA,NA,NA,NA,NA,NA,NA,NA,NA,NA,NA,NA,NA,NA,NA,NA,NA,NA,NA,NA,NA,NA,NA,NA,NA,NA,NA,NA,NA
SUPAMT31218,3DOCMVPBTTDKPZEXK90ACNK6ACUNN9,6F838B78-D9C6-4C39-9DB7-EC35550A36E3,2023-09-27_10h51.25.165,WP_VExplicitOC_HL,2022.2.5,Win32,9.155329317,NA,NA,NA,NA,NA,NA,NA,NA,NA,NA,NA,28.75605816,1.3247,0,1,1,1,1,stand up,002.png,NA,NA,NA,NA,NA,NA,NA,NA,NA,NA,NA,NA,NA,NA,NA,NA,NA,NA,NA,NA,NA,NA,NA,NA,NA,NA,NA,NA,NA,NA,NA,NA,NA,NA,NA,NA,NA,NA,NA
SUPAMT31218,3DOCMVPBTTDKPZEXK90ACNK6ACUNN9,6F838B78-D9C6-4C39-9DB7-EC35550A36E3,2023-09-27_10h51.25.165,WP_VExplicitOC_HL,2022.2.5,Win32,9.155329317,NA,NA,NA,NA,NA,NA,NA,NA,NA,NA,NA,41.03392569,1.2684,0,2,2,2,1,stretch,003.png,NA,NA,NA,NA,NA,NA,NA,NA,NA,NA,NA,NA,NA,NA,NA,NA,NA,NA,NA,NA,NA,NA,NA,NA,NA,NA,NA,NA,NA,NA,NA,NA,NA,NA,NA,NA,NA,NA,NA
SUPAMT31218,3DOCMVPBTTDKPZEXK90ACNK6ACUNN9,6F838B78-D9C6-4C39-9DB7-EC35550A36E3,2023-09-27_10h51.25.165,WP_VExplicitOC_HL,2022.2.5,Win32,9.155329317,NA,NA,NA,NA,NA,NA,NA,NA,NA,NA,NA,45.88045234,1.3909,0,3,3,3,1,make a drink,004.png,NA,NA,NA,NA,NA,NA,NA,NA,NA,NA,NA,NA,NA,NA,NA,NA,NA,NA,NA,NA,NA,NA,NA,NA,NA,NA,NA,NA,NA,NA,NA,NA,NA,NA,NA,NA,NA,NA,NA
SUPAMT31218,3DOCMVPBTTDKPZEXK90ACNK6ACUNN9,6F838B78-D9C6-4C39-9DB7-EC35550A36E3,2023-09-27_10h51.25.165,WP_VExplicitOC_HL,2022.2.5,Win32,9.155329317,NA,NA,NA,NA,NA,NA,NA,NA,NA,NA,NA,32.31017771,1.214,0,4,4,4,1,scroll social media,005.png,NA,NA,NA,NA,NA,NA,NA,NA,NA,NA,NA,NA,NA,NA,NA,NA,NA,NA,NA,NA,NA,NA,NA,NA,NA,NA,NA,NA,NA,NA,NA,NA,NA,NA,NA,NA,NA,NA,NA
SUPAMT31218,3DOCMVPBTTDKPZEXK90ACNK6ACUNN9,6F838B78-D9C6-4C39-9DB7-EC35550A36E3,2023-09-27_10h51.25.165,WP_VExplicitOC_HL,2022.2.5,Win32,9.155329317,NA,NA,NA,NA,NA,NA,NA,NA,NA,NA,NA,49.43457189,1.5751,0,5,5,5,1,listen to music,006.png,NA,NA,NA,NA,NA,NA,NA,NA,NA,NA,NA,NA,NA,NA,NA,NA,NA,NA,NA,NA,NA,NA,NA,NA,NA,NA,NA,NA,NA,NA,NA,NA,NA,NA,NA,NA,NA,NA,NA
SUPAMT31218,3DOCMVPBTTDKPZEXK90ACNK6ACUNN9,6F838B78-D9C6-4C39-9DB7-EC35550A36E3,2023-09-27_10h51.25.165,WP_VExplicitOC_HL,2022.2.5,Win32,9.155329317,NA,NA,NA,NA,NA,NA,NA,NA,NA,NA,NA,37.15670436,1.3915,0,6,6,6,1,daydream,007.png,NA,NA,NA,NA,NA,NA,NA,NA,NA,NA,NA,NA,NA,NA,NA,NA,NA,NA,NA,NA,NA,NA,NA,NA,NA,NA,NA,NA,NA,NA,NA,NA,NA,NA,NA,NA,NA,NA,NA
SUPAMT31218,3DOCMVPBTTDKPZEXK90ACNK6ACUNN9,6F838B78-D9C6-4C39-9DB7-EC35550A36E3,2023-09-27_10h51.25.165,WP_VExplicitOC_HL,2022.2.5,Win32,9.155329317,NA,NA,NA,NA,NA,NA,NA,NA,NA,NA,NA,49.11147011,1.2016,0,7,7,7,1,watch a short animation,008.png,NA,NA,NA,NA,NA,NA,NA,NA,NA,NA,NA,NA,NA,NA,NA,NA,NA,NA,NA,NA,NA,NA,NA,NA,NA,NA,NA,NA,NA,NA,NA,NA,NA,NA,NA,NA,NA,NA,NA
SUPAMT31218,3DOCMVPBTTDKPZEXK90ACNK6ACUNN9,6F838B78-D9C6-4C39-9DB7-EC35550A36E3,2023-09-27_10h51.25.165,WP_VExplicitOC_HL,2022.2.5,Win32,9.155329317,NA,NA,NA,NA,NA,NA,NA,NA,NA,NA,NA,31.66397415,1.0547,0,8,8,8,1,read a novel,009.png,NA,NA,NA,NA,NA,NA,NA,NA,NA,NA,NA,NA,NA,NA,NA,NA,NA,NA,NA,NA,NA,NA,NA,NA,NA,NA,NA,NA,NA,NA,NA,NA,NA,NA,NA,NA,NA,NA,NA
SUPAMT31218,3DOCMVPBTTDKPZEXK90ACNK6ACUNN9,6F838B78-D9C6-4C39-9DB7-EC35550A36E3,2023-09-27_10h51.25.165,WP_VExplicitOC_HL,2022.2.5,Win32,9.155329317,NA,NA,NA,NA,NA,NA,NA,NA,NA,NA,NA,27.78675283,1.3315,0,9,9,9,1,read the news,010.png,NA,NA,NA,NA,NA,NA,NA,NA,NA,NA,NA,NA,NA,NA,NA,NA,NA,NA,NA,NA,NA,NA,NA,NA,NA,NA,NA,NA,NA,NA,NA,NA,NA,NA,NA,NA,NA,NA,NA
SUPAMT31218,3DOCMVPBTTDKPZEXK90ACNK6ACUNN9,6F838B78-D9C6-4C39-9DB7-EC35550A36E3,2023-09-27_10h51.25.165,WP_VExplicitOC_HL,2022.2.5,Win32,9.155329317,NA,NA,NA,NA,NA,NA,NA,NA,NA,NA,NA,NA,NA,NA,NA,NA,NA,NA,NA,NA,NA,NA,NA,NA,NA,NA,NA,NA,NA,NA,NA,NA,NA,NA,NA,NA,NA,NA,NA,NA,NA,NA,NA,NA,NA,NA,NA,NA,NA,NA,NA,NA,NA,NA,NA,NA,NA,NA,NA
SUPAMT31218,3DOCMVPBTTDKPZEXK90ACNK6ACUNN9,6F838B78-D9C6-4C39-9DB7-EC35550A36E3,2023-09-27_10h51.25.165,WP_VExplicitOC_HL,2022.2.5,Win32,9.155329317,NA,NA,NA,NA,NA,NA,NA,NA,NA,NA,NA,NA,NA,NA,NA,NA,NA,NA,NA,NA,listen to music,NA,NA,NA,NA,NA,NA,NA,NA,NA,NA,NA,NA,NA,NA,NA,NA,NA,NA,NA,NA,NA,NA,NA,NA,NA,NA,NA,NA,NA,NA,NA,NA,NA,NA,NA,NA,NA,NA
SUPAMT31218,3DOCMVPBTTDKPZEXK90ACNK6ACUNN9,6F838B78-D9C6-4C39-9DB7-EC35550A36E3,2023-09-27_10h51.25.165,WP_VExplicitOC_HL,2022.2.5,Win32,9.155329317,13.24717286,3.4601,2.0644,NA,NA,NA,NA,NA,frustrated,"frustrated, not frustrated","more frustrated, less frustrated",NA,NA,NA,NA,NA,NA,NA,NA,NA,NA,0,0,0,1,1,NA,NA,NA,NA,NA,NA,NA,NA,NA,NA,NA,NA,NA,NA,NA,NA,NA,NA,NA,NA,NA,NA,NA,NA,NA,NA,NA,NA,NA,NA,NA,NA,NA
SUPAMT31218,3DOCMVPBTTDKPZEXK90ACNK6ACUNN9,6F838B78-D9C6-4C39-9DB7-EC35550A36E3,2023-09-27_10h51.25.165,WP_VExplicitOC_HL,2022.2.5,Win32,9.155329317,29.07915994,3.3945,2.0563,NA,NA,NA,NA,NA,happy,"unhappy, happy","less happy, more happy",NA,NA,NA,NA,NA,NA,NA,NA,NA,NA,0,1,1,0,1,NA,NA,NA,NA,NA,NA,NA,NA,NA,NA,NA,NA,NA,NA,NA,NA,NA,NA,NA,NA,NA,NA,NA,NA,NA,NA,NA,NA,NA,NA,NA,NA,NA
SUPAMT31218,3DOCMVPBTTDKPZEXK90ACNK6ACUNN9,6F838B78-D9C6-4C39-9DB7-EC35550A36E3,2023-09-27_10h51.25.165,WP_VExplicitOC_HL,2022.2.5,Win32,9.155329317,40.06462036,3.4429,2.001,NA,NA,NA,NA,NA,bored,"bored, not bored","more bored, less bored",NA,NA,NA,NA,NA,NA,NA,NA,NA,NA,0,2,2,2,1,NA,NA,NA,NA,NA,NA,NA,NA,NA,NA,NA,NA,NA,NA,NA,NA,NA,NA,NA,NA,NA,NA,NA,NA,NA,NA,NA,NA,NA,NA,NA,NA,NA
SUPAMT31218,3DOCMVPBTTDKPZEXK90ACNK6ACUNN9,6F838B78-D9C6-4C39-9DB7-EC35550A36E3,2023-09-27_10h51.25.165,WP_VExplicitOC_HL,2022.2.5,Win32,9.155329317,NA,NA,NA,NA,NA,NA,NA,NA,NA,NA,NA,NA,NA,NA,NA,NA,NA,NA,NA,NA,NA,NA,NA,NA,NA,NA,NA,NA,NA,NA,NA,NA,NA,NA,NA,NA,NA,NA,NA,NA,NA,NA,NA,NA,NA,NA,NA,NA,NA,NA,NA,NA,NA,NA,NA,NA,NA,NA,NA
SUPAMT31218,3DOCMVPBTTDKPZEXK90ACNK6ACUNN9,6F838B78-D9C6-4C39-9DB7-EC35550A36E3,2023-09-27_10h51.25.165,WP_VExplicitOC_HL,2022.2.5,Win32,9.155329317,NA,NA,NA,NA,NA,NA,NA,NA,NA,NA,NA,NA,NA,NA,NA,NA,NA,NA,NA,NA,NA,NA,NA,NA,NA,NA,NA,NA,NA,NA,NA,NA,NA,NA,NA,NA,NA,NA,NA,NA,NA,NA,NA,NA,NA,NA,NA,NA,NA,NA,NA,NA,NA,NA,NA,NA,NA,NA,NA
SUPAMT31218,3DOCMVPBTTDKPZEXK90ACNK6ACUNN9,6F838B78-D9C6-4C39-9DB7-EC35550A36E3,2023-09-27_10h51.25.165,WP_VExplicitOC_HL,2022.2.5,Win32,9.155329317,22.61712439,3.5485,2.0051,NA,NA,NA,NA,NA,bored,"bored, not bored","more bored, less bored",NA,NA,NA,NA,NA,NA,NA,NA,NA,NA,NA,NA,NA,NA,NA,0,0,0,2,1,NA,NA,NA,NA,NA,NA,NA,NA,NA,NA,NA,NA,NA,NA,NA,NA,NA,NA,NA,NA,NA,NA,NA,NA,NA,NA,NA,NA
SUPAMT31218,3DOCMVPBTTDKPZEXK90ACNK6ACUNN9,6F838B78-D9C6-4C39-9DB7-EC35550A36E3,2023-09-27_10h51.25.165,WP_VExplicitOC_HL,2022.2.5,Win32,9.155329317,63.3279483,3.4017,2.0208,NA,NA,NA,NA,NA,happy,"unhappy, happy","less happy, more happy",NA,NA,NA,NA,NA,NA,NA,NA,NA,NA,NA,NA,NA,NA,NA,0,1,1,0,1,NA,NA,NA,NA,NA,NA,NA,NA,NA,NA,NA,NA,NA,NA,NA,NA,NA,NA,NA,NA,NA,NA,NA,NA,NA,NA,NA,NA
SUPAMT31218,3DOCMVPBTTDKPZEXK90ACNK6ACUNN9,6F838B78-D9C6-4C39-9DB7-EC35550A36E3,2023-09-27_10h51.25.165,WP_VExplicitOC_HL,2022.2.5,Win32,9.155329317,12.92407108,3.1976,2.0502,NA,NA,NA,NA,NA,frustrated,"frustrated, not frustrated","more frustrated, less frustrated",NA,NA,NA,NA,NA,NA,NA,NA,NA,NA,NA,NA,NA,NA,NA,0,2,2,1,1,NA,NA,NA,NA,NA,NA,NA,NA,NA,NA,NA,NA,NA,NA,NA,NA,NA,NA,NA,NA,NA,NA,NA,NA,NA,NA,NA,NA
SUPAMT31218,3DOCMVPBTTDKPZEXK90ACNK6ACUNN9,6F838B78-D9C6-4C39-9DB7-EC35550A36E3,2023-09-27_10h51.25.165,WP_VExplicitOC_HL,2022.2.5,Win32,9.155329317,NA,NA,NA,NA,NA,NA,NA,NA,NA,NA,NA,NA,NA,NA,NA,NA,NA,NA,NA,NA,NA,NA,NA,NA,NA,NA,NA,NA,NA,NA,NA,0,0,0,0,1,NA,NA,NA,NA,NA,NA,NA,NA,NA,NA,NA,NA,NA,NA,NA,NA,NA,NA,NA,NA,NA,NA,NA
SUPAMT31218,3DOCMVPBTTDKPZEXK90ACNK6ACUNN9,6F838B78-D9C6-4C39-9DB7-EC35550A36E3,2023-09-27_10h51.25.165,WP_VExplicitOC_HL,2022.2.5,Win32,9.155329317,54.9273021,3.5439,2.0534,NA,NA,NA,NA,NA,happy,"unhappy, happy","less happy, more happy",NA,NA,NA,NA,NA,NA,NA,NA,NA,NA,NA,NA,NA,NA,NA,0,0,0,0,1,NA,NA,NA,NA,NA,NA,NA,NA,NA,NA,NA,NA,NA,NA,NA,NA,NA,NA,NA,NA,NA,NA,NA,NA,NA,NA,NA,NA
SUPAMT31218,3DOCMVPBTTDKPZEXK90ACNK6ACUNN9,6F838B78-D9C6-4C39-9DB7-EC35550A36E3,2023-09-27_10h51.25.165,WP_VExplicitOC_HL,2022.2.5,Win32,9.155329317,21.97092084,3.3982,2.0733,NA,NA,NA,NA,NA,frustrated,"frustrated, not frustrated","more frustrated, less frustrated",NA,NA,NA,NA,NA,NA,NA,NA,NA,NA,NA,NA,NA,NA,NA,0,1,1,1,1,NA,NA,NA,NA,NA,NA,NA,NA,NA,NA,NA,NA,NA,NA,NA,NA,NA,NA,NA,NA,NA,NA,NA,NA,NA,NA,NA,NA
SUPAMT31218,3DOCMVPBTTDKPZEXK90ACNK6ACUNN9,6F838B78-D9C6-4C39-9DB7-EC35550A36E3,2023-09-27_10h51.25.165,WP_VExplicitOC_HL,2022.2.5,Win32,9.155329317,42.97253635,3.9544,2.0025,NA,NA,NA,NA,NA,bored,"bored, not bored","more bored, less bored",NA,NA,NA,NA,NA,NA,NA,NA,NA,NA,NA,NA,NA,NA,NA,0,2,2,2,1,NA,NA,NA,NA,NA,NA,NA,NA,NA,NA,NA,NA,NA,NA,NA,NA,NA,NA,NA,NA,NA,NA,NA,NA,NA,NA,NA,NA
SUPAMT31218,3DOCMVPBTTDKPZEXK90ACNK6ACUNN9,6F838B78-D9C6-4C39-9DB7-EC35550A36E3,2023-09-27_10h51.25.165,WP_VExplicitOC_HL,2022.2.5,Win32,9.155329317,NA,NA,NA,NA,NA,NA,NA,NA,NA,NA,NA,NA,NA,NA,NA,NA,NA,NA,NA,NA,NA,NA,NA,NA,NA,NA,NA,NA,NA,NA,NA,1,0,1,0,1,NA,NA,NA,NA,NA,NA,NA,NA,NA,NA,NA,NA,NA,NA,NA,NA,NA,NA,NA,NA,NA,NA,NA
SUPAMT31218,3DOCMVPBTTDKPZEXK90ACNK6ACUNN9,6F838B78-D9C6-4C39-9DB7-EC35550A36E3,2023-09-27_10h51.25.165,WP_VExplicitOC_HL,2022.2.5,Win32,9.155329317,30.69466882,3.4778,2.0364,NA,NA,NA,NA,NA,frustrated,"frustrated, not frustrated","more frustrated, less frustrated",NA,NA,NA,NA,NA,NA,NA,NA,NA,NA,NA,NA,NA,NA,NA,0,0,0,1,1,NA,NA,NA,NA,NA,NA,NA,NA,NA,NA,NA,NA,NA,NA,NA,NA,NA,NA,NA,NA,NA,NA,NA,NA,NA,NA,NA,NA
SUPAMT31218,3DOCMVPBTTDKPZEXK90ACNK6ACUNN9,6F838B78-D9C6-4C39-9DB7-EC35550A36E3,2023-09-27_10h51.25.165,WP_VExplicitOC_HL,2022.2.5,Win32,9.155329317,52.66558966,3.7093,2.0308,NA,NA,NA,NA,NA,bored,"bored, not bored","more bored, less bored",NA,NA,NA,NA,NA,NA,NA,NA,NA,NA,NA,NA,NA,NA,NA,0,1,1,2,1,NA,NA,NA,NA,NA,NA,NA,NA,NA,NA,NA,NA,NA,NA,NA,NA,NA,NA,NA,NA,NA,NA,NA,NA,NA,NA,NA,NA
SUPAMT31218,3DOCMVPBTTDKPZEXK90ACNK6ACUNN9,6F838B78-D9C6-4C39-9DB7-EC35550A36E3,2023-09-27_10h51.25.165,WP_VExplicitOC_HL,2022.2.5,Win32,9.155329317,52.98869144,3.5702,2.0409,NA,NA,NA,NA,NA,happy,"unhappy, happy","less happy, more happy",NA,NA,NA,NA,NA,NA,NA,NA,NA,NA,NA,NA,NA,NA,NA,0,2,2,0,1,NA,NA,NA,NA,NA,NA,NA,NA,NA,NA,NA,NA,NA,NA,NA,NA,NA,NA,NA,NA,NA,NA,NA,NA,NA,NA,NA,NA
SUPAMT31218,3DOCMVPBTTDKPZEXK90ACNK6ACUNN9,6F838B78-D9C6-4C39-9DB7-EC35550A36E3,2023-09-27_10h51.25.165,WP_VExplicitOC_HL,2022.2.5,Win32,9.155329317,NA,NA,NA,NA,NA,NA,NA,NA,NA,NA,NA,NA,NA,NA,NA,NA,NA,NA,NA,NA,NA,NA,NA,NA,NA,NA,NA,NA,NA,NA,NA,2,0,2,0,1,NA,NA,NA,NA,NA,NA,NA,NA,NA,NA,NA,NA,NA,NA,NA,NA,NA,NA,NA,NA,NA,NA,NA
SUPAMT31218,3DOCMVPBTTDKPZEXK90ACNK6ACUNN9,6F838B78-D9C6-4C39-9DB7-EC35550A36E3,2023-09-27_10h51.25.165,WP_VExplicitOC_HL,2022.2.5,Win32,9.155329317,21.64781906,3.2772,2.0633,NA,NA,NA,NA,NA,frustrated,"frustrated, not frustrated","more frustrated, less frustrated",NA,NA,NA,NA,NA,NA,NA,NA,NA,NA,NA,NA,NA,NA,NA,0,0,0,1,1,NA,NA,NA,NA,NA,NA,NA,NA,NA,NA,NA,NA,NA,NA,NA,NA,NA,NA,NA,NA,NA,NA,NA,NA,NA,NA,NA,NA
SUPAMT31218,3DOCMVPBTTDKPZEXK90ACNK6ACUNN9,6F838B78-D9C6-4C39-9DB7-EC35550A36E3,2023-09-27_10h51.25.165,WP_VExplicitOC_HL,2022.2.5,Win32,9.155329317,52.98869144,3.5553,2.0454,NA,NA,NA,NA,NA,happy,"unhappy, happy","less happy, more happy",NA,NA,NA,NA,NA,NA,NA,NA,NA,NA,NA,NA,NA,NA,NA,0,1,1,0,1,NA,NA,NA,NA,NA,NA,NA,NA,NA,NA,NA,NA,NA,NA,NA,NA,NA,NA,NA,NA,NA,NA,NA,NA,NA,NA,NA,NA
SUPAMT31218,3DOCMVPBTTDKPZEXK90ACNK6ACUNN9,6F838B78-D9C6-4C39-9DB7-EC35550A36E3,2023-09-27_10h51.25.165,WP_VExplicitOC_HL,2022.2.5,Win32,9.155329317,18.09369952,3.7684,2.0161,NA,NA,NA,NA,NA,bored,"bored, not bored","more bored, less bored",NA,NA,NA,NA,NA,NA,NA,NA,NA,NA,NA,NA,NA,NA,NA,0,2,2,2,1,NA,NA,NA,NA,NA,NA,NA,NA,NA,NA,NA,NA,NA,NA,NA,NA,NA,NA,NA,NA,NA,NA,NA,NA,NA,NA,NA,NA
SUPAMT31218,3DOCMVPBTTDKPZEXK90ACNK6ACUNN9,6F838B78-D9C6-4C39-9DB7-EC35550A36E3,2023-09-27_10h51.25.165,WP_VExplicitOC_HL,2022.2.5,Win32,9.155329317,NA,NA,NA,NA,NA,NA,NA,NA,NA,NA,NA,NA,NA,NA,NA,NA,NA,NA,NA,NA,NA,NA,NA,NA,NA,NA,NA,NA,NA,NA,NA,3,0,3,0,1,NA,NA,NA,NA,NA,NA,NA,NA,NA,NA,NA,NA,NA,NA,NA,NA,NA,NA,NA,NA,NA,NA,NA
SUPAMT31218,3DOCMVPBTTDKPZEXK90ACNK6ACUNN9,6F838B78-D9C6-4C39-9DB7-EC35550A36E3,2023-09-27_10h51.25.165,WP_VExplicitOC_HL,2022.2.5,Win32,9.155329317,25.52504039,4.034,2.0656,NA,NA,NA,NA,NA,bored,"bored, not bored","more bored, less bored",NA,NA,NA,NA,NA,NA,NA,NA,NA,NA,NA,NA,NA,NA,NA,0,0,0,2,1,NA,NA,NA,NA,NA,NA,NA,NA,NA,NA,NA,NA,NA,NA,NA,NA,NA,NA,NA,NA,NA,NA,NA,NA,NA,NA,NA,NA
SUPAMT31218,3DOCMVPBTTDKPZEXK90ACNK6ACUNN9,6F838B78-D9C6-4C39-9DB7-EC35550A36E3,2023-09-27_10h51.25.165,WP_VExplicitOC_HL,2022.2.5,Win32,9.155329317,48.46526656,3.1644,2.0504,NA,NA,NA,NA,NA,happy,"unhappy, happy","less happy, more happy",NA,NA,NA,NA,NA,NA,NA,NA,NA,NA,NA,NA,NA,NA,NA,0,1,1,0,1,NA,NA,NA,NA,NA,NA,NA,NA,NA,NA,NA,NA,NA,NA,NA,NA,NA,NA,NA,NA,NA,NA,NA,NA,NA,NA,NA,NA
SUPAMT31218,3DOCMVPBTTDKPZEXK90ACNK6ACUNN9,6F838B78-D9C6-4C39-9DB7-EC35550A36E3,2023-09-27_10h51.25.165,WP_VExplicitOC_HL,2022.2.5,Win32,9.155329317,18.09369952,3.2302,2.0855,NA,NA,NA,NA,NA,frustrated,"frustrated, not frustrated","more frustrated, less frustrated",NA,NA,NA,NA,NA,NA,NA,NA,NA,NA,NA,NA,NA,NA,NA,0,2,2,1,1,NA,NA,NA,NA,NA,NA,NA,NA,NA,NA,NA,NA,NA,NA,NA,NA,NA,NA,NA,NA,NA,NA,NA,NA,NA,NA,NA,NA
SUPAMT31218,3DOCMVPBTTDKPZEXK90ACNK6ACUNN9,6F838B78-D9C6-4C39-9DB7-EC35550A36E3,2023-09-27_10h51.25.165,WP_VExplicitOC_HL,2022.2.5,Win32,9.155329317,NA,NA,NA,NA,NA,NA,NA,NA,NA,NA,NA,NA,NA,NA,NA,NA,NA,NA,NA,NA,NA,NA,NA,NA,NA,NA,NA,NA,NA,NA,NA,4,0,4,0,1,NA,NA,NA,NA,NA,NA,NA,NA,NA,NA,NA,NA,NA,NA,NA,NA,NA,NA,NA,NA,NA,NA,NA
SUPAMT31218,3DOCMVPBTTDKPZEXK90ACNK6ACUNN9,6F838B78-D9C6-4C39-9DB7-EC35550A36E3,2023-09-27_10h51.25.165,WP_VExplicitOC_HL,2022.2.5,Win32,9.155329317,27.14054927,3.5572,2.0404,NA,NA,NA,NA,NA,frustrated,"frustrated, not frustrated","more frustrated, less frustrated",NA,NA,NA,NA,NA,NA,NA,NA,NA,NA,NA,NA,NA,NA,NA,0,0,0,1,1,NA,NA,NA,NA,NA,NA,NA,NA,NA,NA,NA,NA,NA,NA,NA,NA,NA,NA,NA,NA,NA,NA,NA,NA,NA,NA,NA,NA
SUPAMT31218,3DOCMVPBTTDKPZEXK90ACNK6ACUNN9,6F838B78-D9C6-4C39-9DB7-EC35550A36E3,2023-09-27_10h51.25.165,WP_VExplicitOC_HL,2022.2.5,Win32,9.155329317,45.88045234,4.4151,2.0057,NA,NA,NA,NA,NA,happy,"unhappy, happy","less happy, more happy",NA,NA,NA,NA,NA,NA,NA,NA,NA,NA,NA,NA,NA,NA,NA,0,1,1,0,1,NA,NA,NA,NA,NA,NA,NA,NA,NA,NA,NA,NA,NA,NA,NA,NA,NA,NA,NA,NA,NA,NA,NA,NA,NA,NA,NA,NA
SUPAMT31218,3DOCMVPBTTDKPZEXK90ACNK6ACUNN9,6F838B78-D9C6-4C39-9DB7-EC35550A36E3,2023-09-27_10h51.25.165,WP_VExplicitOC_HL,2022.2.5,Win32,9.155329317,12.92407108,3.0683,2.0691,NA,NA,NA,NA,NA,bored,"bored, not bored","more bored, less bored",NA,NA,NA,NA,NA,NA,NA,NA,NA,NA,NA,NA,NA,NA,NA,0,2,2,2,1,NA,NA,NA,NA,NA,NA,NA,NA,NA,NA,NA,NA,NA,NA,NA,NA,NA,NA,NA,NA,NA,NA,NA,NA,NA,NA,NA,NA
SUPAMT31218,3DOCMVPBTTDKPZEXK90ACNK6ACUNN9,6F838B78-D9C6-4C39-9DB7-EC35550A36E3,2023-09-27_10h51.25.165,WP_VExplicitOC_HL,2022.2.5,Win32,9.155329317,NA,NA,NA,NA,NA,NA,NA,NA,NA,NA,NA,NA,NA,NA,NA,NA,NA,NA,NA,NA,NA,NA,NA,NA,NA,NA,NA,NA,NA,NA,NA,5,0,5,0,1,NA,NA,NA,NA,NA,NA,NA,NA,NA,NA,NA,NA,NA,NA,NA,NA,NA,NA,NA,NA,NA,NA,NA
SUPAMT31218,3DOCMVPBTTDKPZEXK90ACNK6ACUNN9,6F838B78-D9C6-4C39-9DB7-EC35550A36E3,2023-09-27_10h51.25.165,WP_VExplicitOC_HL,2022.2.5,Win32,9.155329317,37.80290792,3.744,2.0496,NA,NA,NA,NA,NA,bored,"bored, not bored","more bored, less bored",NA,NA,NA,NA,NA,NA,NA,NA,NA,NA,NA,NA,NA,NA,NA,0,0,0,2,1,NA,NA,NA,NA,NA,NA,NA,NA,NA,NA,NA,NA,NA,NA,NA,NA,NA,NA,NA,NA,NA,NA,NA,NA,NA,NA,NA,NA
SUPAMT31218,3DOCMVPBTTDKPZEXK90ACNK6ACUNN9,6F838B78-D9C6-4C39-9DB7-EC35550A36E3,2023-09-27_10h51.25.165,WP_VExplicitOC_HL,2022.2.5,Win32,9.155329317,15.18578352,3.057,2.0742,NA,NA,NA,NA,NA,frustrated,"frustrated, not frustrated","more frustrated, less frustrated",NA,NA,NA,NA,NA,NA,NA,NA,NA,NA,NA,NA,NA,NA,NA,0,1,1,1,1,NA,NA,NA,NA,NA,NA,NA,NA,NA,NA,NA,NA,NA,NA,NA,NA,NA,NA,NA,NA,NA,NA,NA,NA,NA,NA,NA,NA
SUPAMT31218,3DOCMVPBTTDKPZEXK90ACNK6ACUNN9,6F838B78-D9C6-4C39-9DB7-EC35550A36E3,2023-09-27_10h51.25.165,WP_VExplicitOC_HL,2022.2.5,Win32,9.155329317,57.83521809,3.0462,2.0655,NA,NA,NA,NA,NA,happy,"unhappy, happy","less happy, more happy",NA,NA,NA,NA,NA,NA,NA,NA,NA,NA,NA,NA,NA,NA,NA,0,2,2,0,1,NA,NA,NA,NA,NA,NA,NA,NA,NA,NA,NA,NA,NA,NA,NA,NA,NA,NA,NA,NA,NA,NA,NA,NA,NA,NA,NA,NA
SUPAMT31218,3DOCMVPBTTDKPZEXK90ACNK6ACUNN9,6F838B78-D9C6-4C39-9DB7-EC35550A36E3,2023-09-27_10h51.25.165,WP_VExplicitOC_HL,2022.2.5,Win32,9.155329317,NA,NA,NA,NA,NA,NA,NA,NA,NA,NA,NA,NA,NA,NA,NA,NA,NA,NA,NA,NA,NA,NA,NA,NA,NA,NA,NA,NA,NA,NA,NA,6,0,6,0,1,NA,NA,NA,NA,NA,NA,NA,NA,NA,NA,NA,NA,NA,NA,NA,NA,NA,NA,NA,NA,NA,NA,NA
SUPAMT31218,3DOCMVPBTTDKPZEXK90ACNK6ACUNN9,6F838B78-D9C6-4C39-9DB7-EC35550A36E3,2023-09-27_10h51.25.165,WP_VExplicitOC_HL,2022.2.5,Win32,9.155329317,60.09693053,3.4525,2.0626,NA,NA,NA,NA,NA,happy,"unhappy, happy","less happy, more happy",NA,NA,NA,NA,NA,NA,NA,NA,NA,NA,NA,NA,NA,NA,NA,0,0,0,0,1,NA,NA,NA,NA,NA,NA,NA,NA,NA,NA,NA,NA,NA,NA,NA,NA,NA,NA,NA,NA,NA,NA,NA,NA,NA,NA,NA,NA
SUPAMT31218,3DOCMVPBTTDKPZEXK90ACNK6ACUNN9,6F838B78-D9C6-4C39-9DB7-EC35550A36E3,2023-09-27_10h51.25.165,WP_VExplicitOC_HL,2022.2.5,Win32,9.155329317,21.64781906,3.2842,2.0394,NA,NA,NA,NA,NA,bored,"bored, not bored","more bored, less bored",NA,NA,NA,NA,NA,NA,NA,NA,NA,NA,NA,NA,NA,NA,NA,0,1,1,2,1,NA,NA,NA,NA,NA,NA,NA,NA,NA,NA,NA,NA,NA,NA,NA,NA,NA,NA,NA,NA,NA,NA,NA,NA,NA,NA,NA,NA
SUPAMT31218,3DOCMVPBTTDKPZEXK90ACNK6ACUNN9,6F838B78-D9C6-4C39-9DB7-EC35550A36E3,2023-09-27_10h51.25.165,WP_VExplicitOC_HL,2022.2.5,Win32,9.155329317,18.73990307,3.5624,2.0513,NA,NA,NA,NA,NA,frustrated,"frustrated, not frustrated","more frustrated, less frustrated",NA,NA,NA,NA,NA,NA,NA,NA,NA,NA,NA,NA,NA,NA,NA,0,2,2,1,1,NA,NA,NA,NA,NA,NA,NA,NA,NA,NA,NA,NA,NA,NA,NA,NA,NA,NA,NA,NA,NA,NA,NA,NA,NA,NA,NA,NA
SUPAMT31218,3DOCMVPBTTDKPZEXK90ACNK6ACUNN9,6F838B78-D9C6-4C39-9DB7-EC35550A36E3,2023-09-27_10h51.25.165,WP_VExplicitOC_HL,2022.2.5,Win32,9.155329317,NA,NA,NA,NA,NA,NA,NA,NA,NA,NA,NA,NA,NA,NA,NA,NA,NA,NA,NA,NA,NA,NA,NA,NA,NA,NA,NA,NA,NA,NA,NA,7,0,7,0,1,NA,NA,NA,NA,NA,NA,NA,NA,NA,NA,NA,NA,NA,NA,NA,NA,NA,NA,NA,NA,NA,NA,NA
SUPAMT31218,3DOCMVPBTTDKPZEXK90ACNK6ACUNN9,6F838B78-D9C6-4C39-9DB7-EC35550A36E3,2023-09-27_10h51.25.165,WP_VExplicitOC_HL,2022.2.5,Win32,9.155329317,25.20193861,3.8942,2.0809,NA,NA,NA,NA,NA,frustrated,"frustrated, not frustrated","more frustrated, less frustrated",NA,NA,NA,NA,NA,NA,NA,NA,NA,NA,NA,NA,NA,NA,NA,0,0,0,1,1,NA,NA,NA,NA,NA,NA,NA,NA,NA,NA,NA,NA,NA,NA,NA,NA,NA,NA,NA,NA,NA,NA,NA,NA,NA,NA,NA,NA
SUPAMT31218,3DOCMVPBTTDKPZEXK90ACNK6ACUNN9,6F838B78-D9C6-4C39-9DB7-EC35550A36E3,2023-09-27_10h51.25.165,WP_VExplicitOC_HL,2022.2.5,Win32,9.155329317,30.37156704,3.7416,2.0344,NA,NA,NA,NA,NA,bored,"bored, not bored","more bored, less bored",NA,NA,NA,NA,NA,NA,NA,NA,NA,NA,NA,NA,NA,NA,NA,0,1,1,2,1,NA,NA,NA,NA,NA,NA,NA,NA,NA,NA,NA,NA,NA,NA,NA,NA,NA,NA,NA,NA,NA,NA,NA,NA,NA,NA,NA,NA
SUPAMT31218,3DOCMVPBTTDKPZEXK90ACNK6ACUNN9,6F838B78-D9C6-4C39-9DB7-EC35550A36E3,2023-09-27_10h51.25.165,WP_VExplicitOC_HL,2022.2.5,Win32,9.155329317,66.88206785,3.4399,2.0361,NA,NA,NA,NA,NA,happy,"unhappy, happy","less happy, more happy",NA,NA,NA,NA,NA,NA,NA,NA,NA,NA,NA,NA,NA,NA,NA,0,2,2,0,1,NA,NA,NA,NA,NA,NA,NA,NA,NA,NA,NA,NA,NA,NA,NA,NA,NA,NA,NA,NA,NA,NA,NA,NA,NA,NA,NA,NA
SUPAMT31218,3DOCMVPBTTDKPZEXK90ACNK6ACUNN9,6F838B78-D9C6-4C39-9DB7-EC35550A36E3,2023-09-27_10h51.25.165,WP_VExplicitOC_HL,2022.2.5,Win32,9.155329317,NA,NA,NA,NA,NA,NA,NA,NA,NA,NA,NA,NA,NA,NA,NA,NA,NA,NA,NA,NA,NA,NA,NA,NA,NA,NA,NA,NA,NA,NA,NA,8,0,8,0,1,NA,NA,NA,NA,NA,NA,NA,NA,NA,NA,NA,NA,NA,NA,NA,NA,NA,NA,NA,NA,NA,NA,NA
SUPAMT31218,3DOCMVPBTTDKPZEXK90ACNK6ACUNN9,6F838B78-D9C6-4C39-9DB7-EC35550A36E3,2023-09-27_10h51.25.165,WP_VExplicitOC_HL,2022.2.5,Win32,9.155329317,58.80452342,3.3304,2.0003,NA,NA,NA,NA,NA,happy,"unhappy, happy","less happy, more happy",NA,NA,NA,NA,NA,NA,NA,NA,NA,NA,NA,NA,NA,NA,NA,0,0,0,0,1,NA,NA,NA,NA,NA,NA,NA,NA,NA,NA,NA,NA,NA,NA,NA,NA,NA,NA,NA,NA,NA,NA,NA,NA,NA,NA,NA,NA
SUPAMT31218,3DOCMVPBTTDKPZEXK90ACNK6ACUNN9,6F838B78-D9C6-4C39-9DB7-EC35550A36E3,2023-09-27_10h51.25.165,WP_VExplicitOC_HL,2022.2.5,Win32,9.155329317,21.00161551,3.4966,2.0565,NA,NA,NA,NA,NA,frustrated,"frustrated, not frustrated","more frustrated, less frustrated",NA,NA,NA,NA,NA,NA,NA,NA,NA,NA,NA,NA,NA,NA,NA,0,1,1,1,1,NA,NA,NA,NA,NA,NA,NA,NA,NA,NA,NA,NA,NA,NA,NA,NA,NA,NA,NA,NA,NA,NA,NA,NA,NA,NA,NA,NA
SUPAMT31218,3DOCMVPBTTDKPZEXK90ACNK6ACUNN9,6F838B78-D9C6-4C39-9DB7-EC35550A36E3,2023-09-27_10h51.25.165,WP_VExplicitOC_HL,2022.2.5,Win32,9.155329317,20.03231018,3.1214,2.0048,NA,NA,NA,NA,NA,bored,"bored, not bored","more bored, less bored",NA,NA,NA,NA,NA,NA,NA,NA,NA,NA,NA,NA,NA,NA,NA,0,2,2,2,1,NA,NA,NA,NA,NA,NA,NA,NA,NA,NA,NA,NA,NA,NA,NA,NA,NA,NA,NA,NA,NA,NA,NA,NA,NA,NA,NA,NA
SUPAMT31218,3DOCMVPBTTDKPZEXK90ACNK6ACUNN9,6F838B78-D9C6-4C39-9DB7-EC35550A36E3,2023-09-27_10h51.25.165,WP_VExplicitOC_HL,2022.2.5,Win32,9.155329317,NA,NA,NA,NA,NA,NA,NA,NA,NA,NA,NA,NA,NA,NA,NA,NA,NA,NA,NA,NA,NA,NA,NA,NA,NA,NA,NA,NA,NA,NA,NA,9,0,9,0,1,NA,NA,NA,NA,NA,NA,NA,NA,NA,NA,NA,NA,NA,NA,NA,NA,NA,NA,NA,NA,NA,NA,NA
SUPAMT31218,3DOCMVPBTTDKPZEXK90ACNK6ACUNN9,6F838B78-D9C6-4C39-9DB7-EC35550A36E3,2023-09-27_10h51.25.165,WP_VExplicitOC_HL,2022.2.5,Win32,9.155329317,45.88045234,3.5095,2.0028,NA,NA,NA,NA,NA,happy,"unhappy, happy","less happy, more happy",NA,NA,NA,NA,NA,NA,NA,NA,NA,NA,NA,NA,NA,NA,NA,0,0,0,0,1,NA,NA,NA,NA,NA,NA,NA,NA,NA,NA,NA,NA,NA,NA,NA,NA,NA,NA,NA,NA,NA,NA,NA,NA,NA,NA,NA,NA
SUPAMT31218,3DOCMVPBTTDKPZEXK90ACNK6ACUNN9,6F838B78-D9C6-4C39-9DB7-EC35550A36E3,2023-09-27_10h51.25.165,WP_VExplicitOC_HL,2022.2.5,Win32,9.155329317,18.09369952,3.2071,2.0022,NA,NA,NA,NA,NA,frustrated,"frustrated, not frustrated","more frustrated, less frustrated",NA,NA,NA,NA,NA,NA,NA,NA,NA,NA,NA,NA,NA,NA,NA,0,1,1,1,1,NA,NA,NA,NA,NA,NA,NA,NA,NA,NA,NA,NA,NA,NA,NA,NA,NA,NA,NA,NA,NA,NA,NA,NA,NA,NA,NA,NA
SUPAMT31218,3DOCMVPBTTDKPZEXK90ACNK6ACUNN9,6F838B78-D9C6-4C39-9DB7-EC35550A36E3,2023-09-27_10h51.25.165,WP_VExplicitOC_HL,2022.2.5,Win32,9.155329317,30.37156704,3.0617,2.0224,NA,NA,NA,NA,NA,bored,"bored, not bored","more bored, less bored",NA,NA,NA,NA,NA,NA,NA,NA,NA,NA,NA,NA,NA,NA,NA,0,2,2,2,1,NA,NA,NA,NA,NA,NA,NA,NA,NA,NA,NA,NA,NA,NA,NA,NA,NA,NA,NA,NA,NA,NA,NA,NA,NA,NA,NA,NA
SUPAMT31218,3DOCMVPBTTDKPZEXK90ACNK6ACUNN9,6F838B78-D9C6-4C39-9DB7-EC35550A36E3,2023-09-27_10h51.25.165,WP_VExplicitOC_HL,2022.2.5,Win32,9.155329317,NA,NA,NA,NA,NA,NA,NA,NA,NA,NA,NA,NA,NA,NA,NA,NA,NA,NA,NA,NA,NA,NA,NA,NA,NA,NA,NA,NA,NA,NA,NA,10,0,10,0,1,NA,NA,NA,NA,NA,NA,NA,NA,NA,NA,NA,NA,NA,NA,NA,NA,NA,NA,NA,NA,NA,NA,NA
SUPAMT31218,3DOCMVPBTTDKPZEXK90ACNK6ACUNN9,6F838B78-D9C6-4C39-9DB7-EC35550A36E3,2023-09-27_10h51.25.165,WP_VExplicitOC_HL,2022.2.5,Win32,9.155329317,48.14216478,3.5869,2.0195,NA,NA,NA,NA,NA,happy,"unhappy, happy","less happy, more happy",NA,NA,NA,NA,NA,NA,NA,NA,NA,NA,NA,NA,NA,NA,NA,0,0,0,0,1,NA,NA,NA,NA,NA,NA,NA,NA,NA,NA,NA,NA,NA,NA,NA,NA,NA,NA,NA,NA,NA,NA,NA,NA,NA,NA,NA,NA
SUPAMT31218,3DOCMVPBTTDKPZEXK90ACNK6ACUNN9,6F838B78-D9C6-4C39-9DB7-EC35550A36E3,2023-09-27_10h51.25.165,WP_VExplicitOC_HL,2022.2.5,Win32,9.155329317,23.58642973,3.4793,2.0772,NA,NA,NA,NA,NA,bored,"bored, not bored","more bored, less bored",NA,NA,NA,NA,NA,NA,NA,NA,NA,NA,NA,NA,NA,NA,NA,0,1,1,2,1,NA,NA,NA,NA,NA,NA,NA,NA,NA,NA,NA,NA,NA,NA,NA,NA,NA,NA,NA,NA,NA,NA,NA,NA,NA,NA,NA,NA
SUPAMT31218,3DOCMVPBTTDKPZEXK90ACNK6ACUNN9,6F838B78-D9C6-4C39-9DB7-EC35550A36E3,2023-09-27_10h51.25.165,WP_VExplicitOC_HL,2022.2.5,Win32,9.155329317,31.98707593,3.4706,2.0136,NA,NA,NA,NA,NA,frustrated,"frustrated, not frustrated","more frustrated, less frustrated",NA,NA,NA,NA,NA,NA,NA,NA,NA,NA,NA,NA,NA,NA,NA,0,2,2,1,1,NA,NA,NA,NA,NA,NA,NA,NA,NA,NA,NA,NA,NA,NA,NA,NA,NA,NA,NA,NA,NA,NA,NA,NA,NA,NA,NA,NA
SUPAMT31218,3DOCMVPBTTDKPZEXK90ACNK6ACUNN9,6F838B78-D9C6-4C39-9DB7-EC35550A36E3,2023-09-27_10h51.25.165,WP_VExplicitOC_HL,2022.2.5,Win32,9.155329317,NA,NA,NA,NA,NA,NA,NA,NA,NA,NA,NA,NA,NA,NA,NA,NA,NA,NA,NA,NA,NA,NA,NA,NA,NA,NA,NA,NA,NA,NA,NA,11,0,11,0,1,NA,NA,NA,NA,NA,NA,NA,NA,NA,NA,NA,NA,NA,NA,NA,NA,NA,NA,NA,NA,NA,NA,NA
SUPAMT31218,3DOCMVPBTTDKPZEXK90ACNK6ACUNN9,6F838B78-D9C6-4C39-9DB7-EC35550A36E3,2023-09-27_10h51.25.165,WP_VExplicitOC_HL,2022.2.5,Win32,9.155329317,33.92568659,3.627,2.0082,NA,NA,NA,NA,NA,happy,"unhappy, happy","less happy, more happy",NA,NA,NA,NA,NA,NA,NA,NA,NA,NA,NA,NA,NA,NA,NA,0,0,0,0,1,NA,NA,NA,NA,NA,NA,NA,NA,NA,NA,NA,NA,NA,NA,NA,NA,NA,NA,NA,NA,NA,NA,NA,NA,NA,NA,NA,NA
SUPAMT31218,3DOCMVPBTTDKPZEXK90ACNK6ACUNN9,6F838B78-D9C6-4C39-9DB7-EC35550A36E3,2023-09-27_10h51.25.165,WP_VExplicitOC_HL,2022.2.5,Win32,9.155329317,23.58642973,3.8551,2.0215,NA,NA,NA,NA,NA,bored,"bored, not bored","more bored, less bored",NA,NA,NA,NA,NA,NA,NA,NA,NA,NA,NA,NA,NA,NA,NA,0,1,1,2,1,NA,NA,NA,NA,NA,NA,NA,NA,NA,NA,NA,NA,NA,NA,NA,NA,NA,NA,NA,NA,NA,NA,NA,NA,NA,NA,NA,NA
SUPAMT31218,3DOCMVPBTTDKPZEXK90ACNK6ACUNN9,6F838B78-D9C6-4C39-9DB7-EC35550A36E3,2023-09-27_10h51.25.165,WP_VExplicitOC_HL,2022.2.5,Win32,9.155329317,31.34087237,3.8366,2.0517,NA,NA,NA,NA,NA,frustrated,"frustrated, not frustrated","more frustrated, less frustrated",NA,NA,NA,NA,NA,NA,NA,NA,NA,NA,NA,NA,NA,NA,NA,0,2,2,1,1,NA,NA,NA,NA,NA,NA,NA,NA,NA,NA,NA,NA,NA,NA,NA,NA,NA,NA,NA,NA,NA,NA,NA,NA,NA,NA,NA,NA
SUPAMT31218,3DOCMVPBTTDKPZEXK90ACNK6ACUNN9,6F838B78-D9C6-4C39-9DB7-EC35550A36E3,2023-09-27_10h51.25.165,WP_VExplicitOC_HL,2022.2.5,Win32,9.155329317,NA,NA,NA,NA,NA,NA,NA,NA,NA,NA,NA,NA,NA,NA,NA,NA,NA,NA,NA,NA,NA,NA,NA,NA,NA,NA,NA,NA,NA,NA,NA,12,0,12,0,1,NA,NA,NA,NA,NA,NA,NA,NA,NA,NA,NA,NA,NA,NA,NA,NA,NA,NA,NA,NA,NA,NA,NA
SUPAMT31218,3DOCMVPBTTDKPZEXK90ACNK6ACUNN9,6F838B78-D9C6-4C39-9DB7-EC35550A36E3,2023-09-27_10h51.25.165,WP_VExplicitOC_HL,2022.2.5,Win32,9.155329317,42.32633279,6.9344,2.0653,NA,NA,NA,NA,NA,bored,"bored, not bored","more bored, less bored",NA,NA,NA,NA,NA,NA,NA,NA,NA,NA,NA,NA,NA,NA,NA,0,0,0,2,1,NA,NA,NA,NA,NA,NA,NA,NA,NA,NA,NA,NA,NA,NA,NA,NA,NA,NA,NA,NA,NA,NA,NA,NA,NA,NA,NA,NA
SUPAMT31218,3DOCMVPBTTDKPZEXK90ACNK6ACUNN9,6F838B78-D9C6-4C39-9DB7-EC35550A36E3,2023-09-27_10h51.25.165,WP_VExplicitOC_HL,2022.2.5,Win32,9.155329317,-28.43295638,3.0403,2.0017,NA,NA,NA,NA,NA,frustrated,"frustrated, not frustrated","more frustrated, less frustrated",NA,NA,NA,NA,NA,NA,NA,NA,NA,NA,NA,NA,NA,NA,NA,0,1,1,1,1,NA,NA,NA,NA,NA,NA,NA,NA,NA,NA,NA,NA,NA,NA,NA,NA,NA,NA,NA,NA,NA,NA,NA,NA,NA,NA,NA,NA
SUPAMT31218,3DOCMVPBTTDKPZEXK90ACNK6ACUNN9,6F838B78-D9C6-4C39-9DB7-EC35550A36E3,2023-09-27_10h51.25.165,WP_VExplicitOC_HL,2022.2.5,Win32,9.155329317,42.64943457,3.8511,2.0633,NA,NA,NA,NA,NA,happy,"unhappy, happy","less happy, more happy",NA,NA,NA,NA,NA,NA,NA,NA,NA,NA,NA,NA,NA,NA,NA,0,2,2,0,1,NA,NA,NA,NA,NA,NA,NA,NA,NA,NA,NA,NA,NA,NA,NA,NA,NA,NA,NA,NA,NA,NA,NA,NA,NA,NA,NA,NA
SUPAMT31218,3DOCMVPBTTDKPZEXK90ACNK6ACUNN9,6F838B78-D9C6-4C39-9DB7-EC35550A36E3,2023-09-27_10h51.25.165,WP_VExplicitOC_HL,2022.2.5,Win32,9.155329317,NA,NA,NA,NA,NA,NA,NA,NA,NA,NA,NA,NA,NA,NA,NA,NA,NA,NA,NA,NA,NA,NA,NA,NA,NA,NA,NA,NA,NA,NA,NA,13,0,13,0,1,NA,NA,NA,NA,NA,NA,NA,NA,NA,NA,NA,NA,NA,NA,NA,NA,NA,NA,NA,NA,NA,NA,NA
SUPAMT31218,3DOCMVPBTTDKPZEXK90ACNK6ACUNN9,6F838B78-D9C6-4C39-9DB7-EC35550A36E3,2023-09-27_10h51.25.165,WP_VExplicitOC_HL,2022.2.5,Win32,9.155329317,48.78836834,3.7608,2.0493,NA,NA,NA,NA,NA,happy,"unhappy, happy","less happy, more happy",NA,NA,NA,NA,NA,NA,NA,NA,NA,NA,NA,NA,NA,NA,NA,0,0,0,0,1,NA,NA,NA,NA,NA,NA,NA,NA,NA,NA,NA,NA,NA,NA,NA,NA,NA,NA,NA,NA,NA,NA,NA,NA,NA,NA,NA,NA
SUPAMT31218,3DOCMVPBTTDKPZEXK90ACNK6ACUNN9,6F838B78-D9C6-4C39-9DB7-EC35550A36E3,2023-09-27_10h51.25.165,WP_VExplicitOC_HL,2022.2.5,Win32,9.155329317,22.61712439,4.086,2.0377,NA,NA,NA,NA,NA,bored,"bored, not bored","more bored, less bored",NA,NA,NA,NA,NA,NA,NA,NA,NA,NA,NA,NA,NA,NA,NA,0,1,1,2,1,NA,NA,NA,NA,NA,NA,NA,NA,NA,NA,NA,NA,NA,NA,NA,NA,NA,NA,NA,NA,NA,NA,NA,NA,NA,NA,NA,NA
SUPAMT31218,3DOCMVPBTTDKPZEXK90ACNK6ACUNN9,6F838B78-D9C6-4C39-9DB7-EC35550A36E3,2023-09-27_10h51.25.165,WP_VExplicitOC_HL,2022.2.5,Win32,9.155329317,37.47980614,3.2286,2.0208,NA,NA,NA,NA,NA,frustrated,"frustrated, not frustrated","more frustrated, less frustrated",NA,NA,NA,NA,NA,NA,NA,NA,NA,NA,NA,NA,NA,NA,NA,0,2,2,1,1,NA,NA,NA,NA,NA,NA,NA,NA,NA,NA,NA,NA,NA,NA,NA,NA,NA,NA,NA,NA,NA,NA,NA,NA,NA,NA,NA,NA
SUPAMT31218,3DOCMVPBTTDKPZEXK90ACNK6ACUNN9,6F838B78-D9C6-4C39-9DB7-EC35550A36E3,2023-09-27_10h51.25.165,WP_VExplicitOC_HL,2022.2.5,Win32,9.155329317,NA,NA,NA,NA,NA,NA,NA,NA,NA,NA,NA,NA,NA,NA,NA,NA,NA,NA,NA,NA,NA,NA,NA,NA,NA,NA,NA,NA,NA,NA,NA,14,0,14,0,1,NA,NA,NA,NA,NA,NA,NA,NA,NA,NA,NA,NA,NA,NA,NA,NA,NA,NA,NA,NA,NA,NA,NA
SUPAMT31218,3DOCMVPBTTDKPZEXK90ACNK6ACUNN9,6F838B78-D9C6-4C39-9DB7-EC35550A36E3,2023-09-27_10h51.25.165,WP_VExplicitOC_HL,2022.2.5,Win32,9.155329317,NA,NA,NA,NA,NA,NA,NA,NA,NA,NA,NA,NA,NA,NA,NA,NA,NA,NA,NA,NA,NA,NA,NA,NA,NA,NA,NA,NA,NA,NA,NA,NA,NA,NA,NA,NA,NA,NA,NA,NA,NA,NA,NA,NA,NA,NA,NA,NA,NA,NA,NA,NA,NA,NA,NA,NA,NA,NA,NA
SUPAMT31218,3DOCMVPBTTDKPZEXK90ACNK6ACUNN9,6F838B78-D9C6-4C39-9DB7-EC35550A36E3,2023-09-27_10h51.25.165,WP_VExplicitOC_HL,2022.2.5,Win32,9.155329317,NA,NA,NA,NA,NA,NA,NA,NA,NA,NA,NA,NA,NA,NA,NA,NA,NA,NA,NA,NA,NA,NA,NA,NA,NA,NA,NA,NA,NA,NA,NA,NA,NA,NA,NA,NA,NA,NA,NA,NA,NA,NA,NA,NA,NA,NA,NA,NA,NA,NA,NA,NA,NA,NA,NA,NA,NA,NA,NA
SUPAMT31218,3DOCMVPBTTDKPZEXK90ACNK6ACUNN9,6F838B78-D9C6-4C39-9DB7-EC35550A36E3,2023-09-27_10h51.25.165,WP_VExplicitOC_HL,2022.2.5,Win32,9.155329317,NA,NA,NA,NA,NA,NA,NA,NA,NA,NA,NA,NA,NA,NA,NA,NA,NA,NA,rest (looking at a fixed cross),001.png,NA,NA,NA,NA,NA,NA,NA,NA,NA,NA,NA,NA,NA,NA,NA,NA,24.87883683,2.0769,0,0,0,0,1,NA,NA,NA,NA,NA,NA,NA,NA,NA,NA,NA,NA,NA,NA,NA,NA
SUPAMT31218,3DOCMVPBTTDKPZEXK90ACNK6ACUNN9,6F838B78-D9C6-4C39-9DB7-EC35550A36E3,2023-09-27_10h51.25.165,WP_VExplicitOC_HL,2022.2.5,Win32,9.155329317,NA,NA,NA,NA,NA,NA,NA,NA,NA,NA,NA,NA,NA,NA,NA,NA,NA,NA,stand up,002.png,NA,NA,NA,NA,NA,NA,NA,NA,NA,NA,NA,NA,NA,NA,NA,NA,35.54119548,1.274,0,1,1,1,1,NA,NA,NA,NA,NA,NA,NA,NA,NA,NA,NA,NA,NA,NA,NA,NA
SUPAMT31218,3DOCMVPBTTDKPZEXK90ACNK6ACUNN9,6F838B78-D9C6-4C39-9DB7-EC35550A36E3,2023-09-27_10h51.25.165,WP_VExplicitOC_HL,2022.2.5,Win32,9.155329317,NA,NA,NA,NA,NA,NA,NA,NA,NA,NA,NA,NA,NA,NA,NA,NA,NA,NA,stretch,003.png,NA,NA,NA,NA,NA,NA,NA,NA,NA,NA,NA,NA,NA,NA,NA,NA,22.94022617,1.1484,0,2,2,2,1,NA,NA,NA,NA,NA,NA,NA,NA,NA,NA,NA,NA,NA,NA,NA,NA
SUPAMT31218,3DOCMVPBTTDKPZEXK90ACNK6ACUNN9,6F838B78-D9C6-4C39-9DB7-EC35550A36E3,2023-09-27_10h51.25.165,WP_VExplicitOC_HL,2022.2.5,Win32,9.155329317,NA,NA,NA,NA,NA,NA,NA,NA,NA,NA,NA,NA,NA,NA,NA,NA,NA,NA,make a drink,004.png,NA,NA,NA,NA,NA,NA,NA,NA,NA,NA,NA,NA,NA,NA,NA,NA,36.83360258,1.1419,0,3,3,3,1,NA,NA,NA,NA,NA,NA,NA,NA,NA,NA,NA,NA,NA,NA,NA,NA
SUPAMT31218,3DOCMVPBTTDKPZEXK90ACNK6ACUNN9,6F838B78-D9C6-4C39-9DB7-EC35550A36E3,2023-09-27_10h51.25.165,WP_VExplicitOC_HL,2022.2.5,Win32,9.155329317,NA,NA,NA,NA,NA,NA,NA,NA,NA,NA,NA,NA,NA,NA,NA,NA,NA,NA,scroll social media,005.png,NA,NA,NA,NA,NA,NA,NA,NA,NA,NA,NA,NA,NA,NA,NA,NA,26.8174475,1.033,0,4,4,4,1,NA,NA,NA,NA,NA,NA,NA,NA,NA,NA,NA,NA,NA,NA,NA,NA
SUPAMT31218,3DOCMVPBTTDKPZEXK90ACNK6ACUNN9,6F838B78-D9C6-4C39-9DB7-EC35550A36E3,2023-09-27_10h51.25.165,WP_VExplicitOC_HL,2022.2.5,Win32,9.155329317,NA,NA,NA,NA,NA,NA,NA,NA,NA,NA,NA,NA,NA,NA,NA,NA,NA,NA,listen to music,006.png,NA,NA,NA,NA,NA,NA,NA,NA,NA,NA,NA,NA,NA,NA,NA,NA,50.08077544,1.0928,0,5,5,5,1,NA,NA,NA,NA,NA,NA,NA,NA,NA,NA,NA,NA,NA,NA,NA,NA
SUPAMT31218,3DOCMVPBTTDKPZEXK90ACNK6ACUNN9,6F838B78-D9C6-4C39-9DB7-EC35550A36E3,2023-09-27_10h51.25.165,WP_VExplicitOC_HL,2022.2.5,Win32,9.155329317,NA,NA,NA,NA,NA,NA,NA,NA,NA,NA,NA,NA,NA,NA,NA,NA,NA,NA,daydream,007.png,NA,NA,NA,NA,NA,NA,NA,NA,NA,NA,NA,NA,NA,NA,NA,NA,22.29402262,1.2332,0,6,6,6,1,NA,NA,NA,NA,NA,NA,NA,NA,NA,NA,NA,NA,NA,NA,NA,NA
SUPAMT31218,3DOCMVPBTTDKPZEXK90ACNK6ACUNN9,6F838B78-D9C6-4C39-9DB7-EC35550A36E3,2023-09-27_10h51.25.165,WP_VExplicitOC_HL,2022.2.5,Win32,9.155329317,NA,NA,NA,NA,NA,NA,NA,NA,NA,NA,NA,NA,NA,NA,NA,NA,NA,NA,watch a short animation,008.png,NA,NA,NA,NA,NA,NA,NA,NA,NA,NA,NA,NA,NA,NA,NA,NA,47.49596123,1.2131,0,7,7,7,1,NA,NA,NA,NA,NA,NA,NA,NA,NA,NA,NA,NA,NA,NA,NA,NA
SUPAMT31218,3DOCMVPBTTDKPZEXK90ACNK6ACUNN9,6F838B78-D9C6-4C39-9DB7-EC35550A36E3,2023-09-27_10h51.25.165,WP_VExplicitOC_HL,2022.2.5,Win32,9.155329317,NA,NA,NA,NA,NA,NA,NA,NA,NA,NA,NA,NA,NA,NA,NA,NA,NA,NA,read a novel,009.png,NA,NA,NA,NA,NA,NA,NA,NA,NA,NA,NA,NA,NA,NA,NA,NA,26.8174475,0.9968,0,8,8,8,1,NA,NA,NA,NA,NA,NA,NA,NA,NA,NA,NA,NA,NA,NA,NA,NA
SUPAMT31218,3DOCMVPBTTDKPZEXK90ACNK6ACUNN9,6F838B78-D9C6-4C39-9DB7-EC35550A36E3,2023-09-27_10h51.25.165,WP_VExplicitOC_HL,2022.2.5,Win32,9.155329317,NA,NA,NA,NA,NA,NA,NA,NA,NA,NA,NA,NA,NA,NA,NA,NA,NA,NA,read the news,010.png,NA,NA,NA,NA,NA,NA,NA,NA,NA,NA,NA,NA,NA,NA,NA,NA,48.14216478,1.0825,0,9,9,9,1,NA,NA,NA,NA,NA,NA,NA,NA,NA,NA,NA,NA,NA,NA,NA,NA
SUPAMT31218,3DOCMVPBTTDKPZEXK90ACNK6ACUNN9,6F838B78-D9C6-4C39-9DB7-EC35550A36E3,2023-09-27_10h51.25.165,WP_VExplicitOC_HL,2022.2.5,Win32,9.155329317,NA,NA,NA,NA,NA,NA,NA,NA,NA,NA,NA,NA,NA,NA,NA,NA,NA,NA,NA,NA,NA,NA,NA,NA,NA,NA,NA,NA,NA,NA,NA,NA,NA,NA,NA,NA,NA,NA,NA,NA,NA,NA,NA,daydream,NA,NA,NA,NA,NA,NA,NA,NA,NA,NA,NA,NA,NA,NA,NA
SUPAMT31218,3DOCMVPBTTDKPZEXK90ACNK6ACUNN9,6F838B78-D9C6-4C39-9DB7-EC35550A36E3,2023-09-27_10h51.25.165,WP_VExplicitOC_HL,2022.2.5,Win32,9.155329317,51.69628433,3.6241,2.0653,NA,NA,NA,NA,NA,happy,"unhappy, happy","less happy, more happy",NA,NA,NA,NA,NA,NA,NA,NA,NA,NA,NA,NA,NA,NA,NA,NA,NA,NA,NA,NA,NA,NA,NA,NA,NA,NA,NA,NA,NA,NA,NA,NA,NA,0,0,0,0,1,NA,NA,NA,NA,NA,NA,NA,NA,NA,NA
SUPAMT31218,3DOCMVPBTTDKPZEXK90ACNK6ACUNN9,6F838B78-D9C6-4C39-9DB7-EC35550A36E3,2023-09-27_10h51.25.165,WP_VExplicitOC_HL,2022.2.5,Win32,9.155329317,17.44749596,3.0379,2.0618,NA,NA,NA,NA,NA,frustrated,"frustrated, not frustrated","more frustrated, less frustrated",NA,NA,NA,NA,NA,NA,NA,NA,NA,NA,NA,NA,NA,NA,NA,NA,NA,NA,NA,NA,NA,NA,NA,NA,NA,NA,NA,NA,NA,NA,NA,NA,NA,0,1,1,1,1,NA,NA,NA,NA,NA,NA,NA,NA,NA,NA
SUPAMT31218,3DOCMVPBTTDKPZEXK90ACNK6ACUNN9,6F838B78-D9C6-4C39-9DB7-EC35550A36E3,2023-09-27_10h51.25.165,WP_VExplicitOC_HL,2022.2.5,Win32,9.155329317,28.75605816,3.2581,2.0302,NA,NA,NA,NA,NA,bored,"bored, not bored","more bored, less bored",NA,NA,NA,NA,NA,NA,NA,NA,NA,NA,NA,NA,NA,NA,NA,NA,NA,NA,NA,NA,NA,NA,NA,NA,NA,NA,NA,NA,NA,NA,NA,NA,NA,0,2,2,2,1,NA,NA,NA,NA,NA,NA,NA,NA,NA,NA
SUPAMT31218,3DOCMVPBTTDKPZEXK90ACNK6ACUNN9,6F838B78-D9C6-4C39-9DB7-EC35550A36E3,2023-09-27_10h51.25.165,WP_VExplicitOC_HL,2022.2.5,Win32,9.155329317,NA,NA,NA,NA,NA,NA,NA,NA,NA,NA,NA,NA,NA,NA,NA,NA,NA,NA,NA,NA,NA,NA,NA,NA,NA,NA,NA,NA,NA,NA,NA,NA,NA,NA,NA,NA,NA,NA,NA,NA,NA,NA,NA,NA,NA,NA,NA,NA,NA,NA,NA,NA,NA,NA,NA,NA,NA,NA,NA
SUPAMT31218,3DOCMVPBTTDKPZEXK90ACNK6ACUNN9,6F838B78-D9C6-4C39-9DB7-EC35550A36E3,2023-09-27_10h51.25.165,WP_VExplicitOC_HL,2022.2.5,Win32,9.155329317,NA,NA,NA,NA,NA,NA,NA,NA,NA,NA,NA,NA,NA,NA,NA,NA,NA,NA,NA,NA,NA,NA,NA,NA,NA,NA,NA,NA,NA,NA,NA,NA,NA,NA,NA,NA,NA,NA,NA,NA,NA,NA,NA,NA,NA,NA,NA,NA,NA,NA,NA,NA,NA,NA,NA,NA,NA,NA,NA
SUPAMT31218,3DOCMVPBTTDKPZEXK90ACNK6ACUNN9,6F838B78-D9C6-4C39-9DB7-EC35550A36E3,2023-09-27_10h51.25.165,WP_VExplicitOC_HL,2022.2.5,Win32,9.155329317,49.11147011,3.2492,2.0326,NA,NA,NA,NA,NA,happy,"unhappy, happy","less happy, more happy",NA,NA,NA,NA,NA,NA,NA,NA,NA,NA,NA,NA,NA,NA,NA,NA,NA,NA,NA,NA,NA,NA,NA,NA,NA,NA,NA,NA,NA,NA,NA,NA,NA,NA,NA,NA,NA,NA,0,0,0,0,1,NA,NA,NA,NA,NA
SUPAMT31218,3DOCMVPBTTDKPZEXK90ACNK6ACUNN9,6F838B78-D9C6-4C39-9DB7-EC35550A36E3,2023-09-27_10h51.25.165,WP_VExplicitOC_HL,2022.2.5,Win32,9.155329317,21.00161551,3.307,2.0738,NA,NA,NA,NA,NA,bored,"bored, not bored","more bored, less bored",NA,NA,NA,NA,NA,NA,NA,NA,NA,NA,NA,NA,NA,NA,NA,NA,NA,NA,NA,NA,NA,NA,NA,NA,NA,NA,NA,NA,NA,NA,NA,NA,NA,NA,NA,NA,NA,NA,0,1,1,2,1,NA,NA,NA,NA,NA
SUPAMT31218,3DOCMVPBTTDKPZEXK90ACNK6ACUNN9,6F838B78-D9C6-4C39-9DB7-EC35550A36E3,2023-09-27_10h51.25.165,WP_VExplicitOC_HL,2022.2.5,Win32,9.155329317,27.14054927,3.8753,2.028,NA,NA,NA,NA,NA,frustrated,"frustrated, not frustrated","more frustrated, less frustrated",NA,NA,NA,NA,NA,NA,NA,NA,NA,NA,NA,NA,NA,NA,NA,NA,NA,NA,NA,NA,NA,NA,NA,NA,NA,NA,NA,NA,NA,NA,NA,NA,NA,NA,NA,NA,NA,NA,0,2,2,1,1,NA,NA,NA,NA,NA
SUPAMT31218,3DOCMVPBTTDKPZEXK90ACNK6ACUNN9,6F838B78-D9C6-4C39-9DB7-EC35550A36E3,2023-09-27_10h51.25.165,WP_VExplicitOC_HL,2022.2.5,Win32,9.155329317,NA,NA,NA,NA,NA,NA,NA,NA,NA,NA,NA,NA,NA,NA,NA,NA,NA,NA,NA,NA,NA,NA,NA,NA,NA,NA,NA,NA,NA,NA,NA,NA,NA,NA,NA,NA,NA,NA,NA,NA,NA,NA,NA,NA,NA,NA,NA,NA,NA,NA,NA,NA,NA,NA,0,0,0,0,1
SUPAMT31218,3DOCMVPBTTDKPZEXK90ACNK6ACUNN9,6F838B78-D9C6-4C39-9DB7-EC35550A36E3,2023-09-27_10h51.25.165,WP_VExplicitOC_HL,2022.2.5,Win32,9.155329317,29.40226171,3.3006,2.0706,NA,NA,NA,NA,NA,happy,"unhappy, happy","less happy, more happy",NA,NA,NA,NA,NA,NA,NA,NA,NA,NA,NA,NA,NA,NA,NA,NA,NA,NA,NA,NA,NA,NA,NA,NA,NA,NA,NA,NA,NA,NA,NA,NA,NA,NA,NA,NA,NA,NA,0,0,0,0,1,NA,NA,NA,NA,NA
SUPAMT31218,3DOCMVPBTTDKPZEXK90ACNK6ACUNN9,6F838B78-D9C6-4C39-9DB7-EC35550A36E3,2023-09-27_10h51.25.165,WP_VExplicitOC_HL,2022.2.5,Win32,9.155329317,21.32471729,3.1372,2.0063,NA,NA,NA,NA,NA,frustrated,"frustrated, not frustrated","more frustrated, less frustrated",NA,NA,NA,NA,NA,NA,NA,NA,NA,NA,NA,NA,NA,NA,NA,NA,NA,NA,NA,NA,NA,NA,NA,NA,NA,NA,NA,NA,NA,NA,NA,NA,NA,NA,NA,NA,NA,NA,0,1,1,1,1,NA,NA,NA,NA,NA
SUPAMT31218,3DOCMVPBTTDKPZEXK90ACNK6ACUNN9,6F838B78-D9C6-4C39-9DB7-EC35550A36E3,2023-09-27_10h51.25.165,WP_VExplicitOC_HL,2022.2.5,Win32,9.155329317,26.17124394,3.2511,2.0382,NA,NA,NA,NA,NA,bored,"bored, not bored","more bored, less bored",NA,NA,NA,NA,NA,NA,NA,NA,NA,NA,NA,NA,NA,NA,NA,NA,NA,NA,NA,NA,NA,NA,NA,NA,NA,NA,NA,NA,NA,NA,NA,NA,NA,NA,NA,NA,NA,NA,0,2,2,2,1,NA,NA,NA,NA,NA
SUPAMT31218,3DOCMVPBTTDKPZEXK90ACNK6ACUNN9,6F838B78-D9C6-4C39-9DB7-EC35550A36E3,2023-09-27_10h51.25.165,WP_VExplicitOC_HL,2022.2.5,Win32,9.155329317,NA,NA,NA,NA,NA,NA,NA,NA,NA,NA,NA,NA,NA,NA,NA,NA,NA,NA,NA,NA,NA,NA,NA,NA,NA,NA,NA,NA,NA,NA,NA,NA,NA,NA,NA,NA,NA,NA,NA,NA,NA,NA,NA,NA,NA,NA,NA,NA,NA,NA,NA,NA,NA,NA,1,0,1,0,1
SUPAMT31218,3DOCMVPBTTDKPZEXK90ACNK6ACUNN9,6F838B78-D9C6-4C39-9DB7-EC35550A36E3,2023-09-27_10h51.25.165,WP_VExplicitOC_HL,2022.2.5,Win32,9.155329317,27.46365105,4.4905,2.021,NA,NA,NA,NA,NA,bored,"bored, not bored","more bored, less bored",NA,NA,NA,NA,NA,NA,NA,NA,NA,NA,NA,NA,NA,NA,NA,NA,NA,NA,NA,NA,NA,NA,NA,NA,NA,NA,NA,NA,NA,NA,NA,NA,NA,NA,NA,NA,NA,NA,0,0,0,2,1,NA,NA,NA,NA,NA
SUPAMT31218,3DOCMVPBTTDKPZEXK90ACNK6ACUNN9,6F838B78-D9C6-4C39-9DB7-EC35550A36E3,2023-09-27_10h51.25.165,WP_VExplicitOC_HL,2022.2.5,Win32,9.155329317,29.72536349,3.7769,2.0096,NA,NA,NA,NA,NA,frustrated,"frustrated, not frustrated","more frustrated, less frustrated",NA,NA,NA,NA,NA,NA,NA,NA,NA,NA,NA,NA,NA,NA,NA,NA,NA,NA,NA,NA,NA,NA,NA,NA,NA,NA,NA,NA,NA,NA,NA,NA,NA,NA,NA,NA,NA,NA,0,1,1,1,1,NA,NA,NA,NA,NA
SUPAMT31218,3DOCMVPBTTDKPZEXK90ACNK6ACUNN9,6F838B78-D9C6-4C39-9DB7-EC35550A36E3,2023-09-27_10h51.25.165,WP_VExplicitOC_HL,2022.2.5,Win32,9.155329317,54.28109855,3.2487,2.0101,NA,NA,NA,NA,NA,happy,"unhappy, happy","less happy, more happy",NA,NA,NA,NA,NA,NA,NA,NA,NA,NA,NA,NA,NA,NA,NA,NA,NA,NA,NA,NA,NA,NA,NA,NA,NA,NA,NA,NA,NA,NA,NA,NA,NA,NA,NA,NA,NA,NA,0,2,2,0,1,NA,NA,NA,NA,NA
SUPAMT31218,3DOCMVPBTTDKPZEXK90ACNK6ACUNN9,6F838B78-D9C6-4C39-9DB7-EC35550A36E3,2023-09-27_10h51.25.165,WP_VExplicitOC_HL,2022.2.5,Win32,9.155329317,NA,NA,NA,NA,NA,NA,NA,NA,NA,NA,NA,NA,NA,NA,NA,NA,NA,NA,NA,NA,NA,NA,NA,NA,NA,NA,NA,NA,NA,NA,NA,NA,NA,NA,NA,NA,NA,NA,NA,NA,NA,NA,NA,NA,NA,NA,NA,NA,NA,NA,NA,NA,NA,NA,2,0,2,0,1
SUPAMT31218,3DOCMVPBTTDKPZEXK90ACNK6ACUNN9,6F838B78-D9C6-4C39-9DB7-EC35550A36E3,2023-09-27_10h51.25.165,WP_VExplicitOC_HL,2022.2.5,Win32,9.155329317,13.24717286,3.3361,2.0174,NA,NA,NA,NA,NA,bored,"bored, not bored","more bored, less bored",NA,NA,NA,NA,NA,NA,NA,NA,NA,NA,NA,NA,NA,NA,NA,NA,NA,NA,NA,NA,NA,NA,NA,NA,NA,NA,NA,NA,NA,NA,NA,NA,NA,NA,NA,NA,NA,NA,0,0,0,2,1,NA,NA,NA,NA,NA
SUPAMT31218,3DOCMVPBTTDKPZEXK90ACNK6ACUNN9,6F838B78-D9C6-4C39-9DB7-EC35550A36E3,2023-09-27_10h51.25.165,WP_VExplicitOC_HL,2022.2.5,Win32,9.155329317,58.80452342,2.9888,2.0405,NA,NA,NA,NA,NA,happy,"unhappy, happy","less happy, more happy",NA,NA,NA,NA,NA,NA,NA,NA,NA,NA,NA,NA,NA,NA,NA,NA,NA,NA,NA,NA,NA,NA,NA,NA,NA,NA,NA,NA,NA,NA,NA,NA,NA,NA,NA,NA,NA,NA,0,1,1,0,1,NA,NA,NA,NA,NA
SUPAMT31218,3DOCMVPBTTDKPZEXK90ACNK6ACUNN9,6F838B78-D9C6-4C39-9DB7-EC35550A36E3,2023-09-27_10h51.25.165,WP_VExplicitOC_HL,2022.2.5,Win32,9.155329317,24.87883683,3.2285,2.015,NA,NA,NA,NA,NA,frustrated,"frustrated, not frustrated","more frustrated, less frustrated",NA,NA,NA,NA,NA,NA,NA,NA,NA,NA,NA,NA,NA,NA,NA,NA,NA,NA,NA,NA,NA,NA,NA,NA,NA,NA,NA,NA,NA,NA,NA,NA,NA,NA,NA,NA,NA,NA,0,2,2,1,1,NA,NA,NA,NA,NA
SUPAMT31218,3DOCMVPBTTDKPZEXK90ACNK6ACUNN9,6F838B78-D9C6-4C39-9DB7-EC35550A36E3,2023-09-27_10h51.25.165,WP_VExplicitOC_HL,2022.2.5,Win32,9.155329317,NA,NA,NA,NA,NA,NA,NA,NA,NA,NA,NA,NA,NA,NA,NA,NA,NA,NA,NA,NA,NA,NA,NA,NA,NA,NA,NA,NA,NA,NA,NA,NA,NA,NA,NA,NA,NA,NA,NA,NA,NA,NA,NA,NA,NA,NA,NA,NA,NA,NA,NA,NA,NA,NA,3,0,3,0,1
SUPAMT31218,3DOCMVPBTTDKPZEXK90ACNK6ACUNN9,6F838B78-D9C6-4C39-9DB7-EC35550A36E3,2023-09-27_10h51.25.165,WP_VExplicitOC_HL,2022.2.5,Win32,9.155329317,51.69628433,3.8274,2.0703,NA,NA,NA,NA,NA,bored,"bored, not bored","more bored, less bored",NA,NA,NA,NA,NA,NA,NA,NA,NA,NA,NA,NA,NA,NA,NA,NA,NA,NA,NA,NA,NA,NA,NA,NA,NA,NA,NA,NA,NA,NA,NA,NA,NA,NA,NA,NA,NA,NA,0,0,0,2,1,NA,NA,NA,NA,NA
SUPAMT31218,3DOCMVPBTTDKPZEXK90ACNK6ACUNN9,6F838B78-D9C6-4C39-9DB7-EC35550A36E3,2023-09-27_10h51.25.165,WP_VExplicitOC_HL,2022.2.5,Win32,9.155329317,67.85137318,2.9398,2.0339,NA,NA,NA,NA,NA,happy,"unhappy, happy","less happy, more happy",NA,NA,NA,NA,NA,NA,NA,NA,NA,NA,NA,NA,NA,NA,NA,NA,NA,NA,NA,NA,NA,NA,NA,NA,NA,NA,NA,NA,NA,NA,NA,NA,NA,NA,NA,NA,NA,NA,0,1,1,0,1,NA,NA,NA,NA,NA
SUPAMT31218,3DOCMVPBTTDKPZEXK90ACNK6ACUNN9,6F838B78-D9C6-4C39-9DB7-EC35550A36E3,2023-09-27_10h51.25.165,WP_VExplicitOC_HL,2022.2.5,Win32,9.155329317,17.12439418,3.2179,2.0141,NA,NA,NA,NA,NA,frustrated,"frustrated, not frustrated","more frustrated, less frustrated",NA,NA,NA,NA,NA,NA,NA,NA,NA,NA,NA,NA,NA,NA,NA,NA,NA,NA,NA,NA,NA,NA,NA,NA,NA,NA,NA,NA,NA,NA,NA,NA,NA,NA,NA,NA,NA,NA,0,2,2,1,1,NA,NA,NA,NA,NA
SUPAMT31218,3DOCMVPBTTDKPZEXK90ACNK6ACUNN9,6F838B78-D9C6-4C39-9DB7-EC35550A36E3,2023-09-27_10h51.25.165,WP_VExplicitOC_HL,2022.2.5,Win32,9.155329317,NA,NA,NA,NA,NA,NA,NA,NA,NA,NA,NA,NA,NA,NA,NA,NA,NA,NA,NA,NA,NA,NA,NA,NA,NA,NA,NA,NA,NA,NA,NA,NA,NA,NA,NA,NA,NA,NA,NA,NA,NA,NA,NA,NA,NA,NA,NA,NA,NA,NA,NA,NA,NA,NA,4,0,4,0,1
SUPAMT31218,3DOCMVPBTTDKPZEXK90ACNK6ACUNN9,6F838B78-D9C6-4C39-9DB7-EC35550A36E3,2023-09-27_10h51.25.165,WP_VExplicitOC_HL,2022.2.5,Win32,9.155329317,32.63327948,4.4506,2.0304,NA,NA,NA,NA,NA,frustrated,"frustrated, not frustrated","more frustrated, less frustrated",NA,NA,NA,NA,NA,NA,NA,NA,NA,NA,NA,NA,NA,NA,NA,NA,NA,NA,NA,NA,NA,NA,NA,NA,NA,NA,NA,NA,NA,NA,NA,NA,NA,NA,NA,NA,NA,NA,0,0,0,1,1,NA,NA,NA,NA,NA
SUPAMT31218,3DOCMVPBTTDKPZEXK90ACNK6ACUNN9,6F838B78-D9C6-4C39-9DB7-EC35550A36E3,2023-09-27_10h51.25.165,WP_VExplicitOC_HL,2022.2.5,Win32,9.155329317,17.44749596,3.2905,2.0079,NA,NA,NA,NA,NA,bored,"bored, not bored","more bored, less bored",NA,NA,NA,NA,NA,NA,NA,NA,NA,NA,NA,NA,NA,NA,NA,NA,NA,NA,NA,NA,NA,NA,NA,NA,NA,NA,NA,NA,NA,NA,NA,NA,NA,NA,NA,NA,NA,NA,0,1,1,2,1,NA,NA,NA,NA,NA
SUPAMT31218,3DOCMVPBTTDKPZEXK90ACNK6ACUNN9,6F838B78-D9C6-4C39-9DB7-EC35550A36E3,2023-09-27_10h51.25.165,WP_VExplicitOC_HL,2022.2.5,Win32,9.155329317,56.54281099,3.0015,2.0598,NA,NA,NA,NA,NA,happy,"unhappy, happy","less happy, more happy",NA,NA,NA,NA,NA,NA,NA,NA,NA,NA,NA,NA,NA,NA,NA,NA,NA,NA,NA,NA,NA,NA,NA,NA,NA,NA,NA,NA,NA,NA,NA,NA,NA,NA,NA,NA,NA,NA,0,2,2,0,1,NA,NA,NA,NA,NA
SUPAMT31218,3DOCMVPBTTDKPZEXK90ACNK6ACUNN9,6F838B78-D9C6-4C39-9DB7-EC35550A36E3,2023-09-27_10h51.25.165,WP_VExplicitOC_HL,2022.2.5,Win32,9.155329317,NA,NA,NA,NA,NA,NA,NA,NA,NA,NA,NA,NA,NA,NA,NA,NA,NA,NA,NA,NA,NA,NA,NA,NA,NA,NA,NA,NA,NA,NA,NA,NA,NA,NA,NA,NA,NA,NA,NA,NA,NA,NA,NA,NA,NA,NA,NA,NA,NA,NA,NA,NA,NA,NA,5,0,5,0,1
SUPAMT31218,3DOCMVPBTTDKPZEXK90ACNK6ACUNN9,6F838B78-D9C6-4C39-9DB7-EC35550A36E3,2023-09-27_10h51.25.165,WP_VExplicitOC_HL,2022.2.5,Win32,9.155329317,21.64781906,3.6018,2.0297,NA,NA,NA,NA,NA,frustrated,"frustrated, not frustrated","more frustrated, less frustrated",NA,NA,NA,NA,NA,NA,NA,NA,NA,NA,NA,NA,NA,NA,NA,NA,NA,NA,NA,NA,NA,NA,NA,NA,NA,NA,NA,NA,NA,NA,NA,NA,NA,NA,NA,NA,NA,NA,0,0,0,1,1,NA,NA,NA,NA,NA
SUPAMT31218,3DOCMVPBTTDKPZEXK90ACNK6ACUNN9,6F838B78-D9C6-4C39-9DB7-EC35550A36E3,2023-09-27_10h51.25.165,WP_VExplicitOC_HL,2022.2.5,Win32,9.155329317,29.40226171,3.5321,2.0472,NA,NA,NA,NA,NA,bored,"bored, not bored","more bored, less bored",NA,NA,NA,NA,NA,NA,NA,NA,NA,NA,NA,NA,NA,NA,NA,NA,NA,NA,NA,NA,NA,NA,NA,NA,NA,NA,NA,NA,NA,NA,NA,NA,NA,NA,NA,NA,NA,NA,0,1,1,2,1,NA,NA,NA,NA,NA
SUPAMT31218,3DOCMVPBTTDKPZEXK90ACNK6ACUNN9,6F838B78-D9C6-4C39-9DB7-EC35550A36E3,2023-09-27_10h51.25.165,WP_VExplicitOC_HL,2022.2.5,Win32,9.155329317,74.6365105,3.2532,2.0451,NA,NA,NA,NA,NA,happy,"unhappy, happy","less happy, more happy",NA,NA,NA,NA,NA,NA,NA,NA,NA,NA,NA,NA,NA,NA,NA,NA,NA,NA,NA,NA,NA,NA,NA,NA,NA,NA,NA,NA,NA,NA,NA,NA,NA,NA,NA,NA,NA,NA,0,2,2,0,1,NA,NA,NA,NA,NA
SUPAMT31218,3DOCMVPBTTDKPZEXK90ACNK6ACUNN9,6F838B78-D9C6-4C39-9DB7-EC35550A36E3,2023-09-27_10h51.25.165,WP_VExplicitOC_HL,2022.2.5,Win32,9.155329317,NA,NA,NA,NA,NA,NA,NA,NA,NA,NA,NA,NA,NA,NA,NA,NA,NA,NA,NA,NA,NA,NA,NA,NA,NA,NA,NA,NA,NA,NA,NA,NA,NA,NA,NA,NA,NA,NA,NA,NA,NA,NA,NA,NA,NA,NA,NA,NA,NA,NA,NA,NA,NA,NA,6,0,6,0,1
SUPAMT31218,3DOCMVPBTTDKPZEXK90ACNK6ACUNN9,6F838B78-D9C6-4C39-9DB7-EC35550A36E3,2023-09-27_10h51.25.165,WP_VExplicitOC_HL,2022.2.5,Win32,9.155329317,17.12439418,3.4567,2.0414,NA,NA,NA,NA,NA,frustrated,"frustrated, not frustrated","more frustrated, less frustrated",NA,NA,NA,NA,NA,NA,NA,NA,NA,NA,NA,NA,NA,NA,NA,NA,NA,NA,NA,NA,NA,NA,NA,NA,NA,NA,NA,NA,NA,NA,NA,NA,NA,NA,NA,NA,NA,NA,0,0,0,1,1,NA,NA,NA,NA,NA
SUPAMT31218,3DOCMVPBTTDKPZEXK90ACNK6ACUNN9,6F838B78-D9C6-4C39-9DB7-EC35550A36E3,2023-09-27_10h51.25.165,WP_VExplicitOC_HL,2022.2.5,Win32,9.155329317,30.69466882,3.1583,2.0904,NA,NA,NA,NA,NA,bored,"bored, not bored","more bored, less bored",NA,NA,NA,NA,NA,NA,NA,NA,NA,NA,NA,NA,NA,NA,NA,NA,NA,NA,NA,NA,NA,NA,NA,NA,NA,NA,NA,NA,NA,NA,NA,NA,NA,NA,NA,NA,NA,NA,0,1,1,2,1,NA,NA,NA,NA,NA
SUPAMT31218,3DOCMVPBTTDKPZEXK90ACNK6ACUNN9,6F838B78-D9C6-4C39-9DB7-EC35550A36E3,2023-09-27_10h51.25.165,WP_VExplicitOC_HL,2022.2.5,Win32,9.155329317,69.46688207,3.6548,2.0672,NA,NA,NA,NA,NA,happy,"unhappy, happy","less happy, more happy",NA,NA,NA,NA,NA,NA,NA,NA,NA,NA,NA,NA,NA,NA,NA,NA,NA,NA,NA,NA,NA,NA,NA,NA,NA,NA,NA,NA,NA,NA,NA,NA,NA,NA,NA,NA,NA,NA,0,2,2,0,1,NA,NA,NA,NA,NA
SUPAMT31218,3DOCMVPBTTDKPZEXK90ACNK6ACUNN9,6F838B78-D9C6-4C39-9DB7-EC35550A36E3,2023-09-27_10h51.25.165,WP_VExplicitOC_HL,2022.2.5,Win32,9.155329317,NA,NA,NA,NA,NA,NA,NA,NA,NA,NA,NA,NA,NA,NA,NA,NA,NA,NA,NA,NA,NA,NA,NA,NA,NA,NA,NA,NA,NA,NA,NA,NA,NA,NA,NA,NA,NA,NA,NA,NA,NA,NA,NA,NA,NA,NA,NA,NA,NA,NA,NA,NA,NA,NA,7,0,7,0,1
SUPAMT31218,3DOCMVPBTTDKPZEXK90ACNK6ACUNN9,6F838B78-D9C6-4C39-9DB7-EC35550A36E3,2023-09-27_10h51.25.165,WP_VExplicitOC_HL,2022.2.5,Win32,9.155329317,25.84814216,4.0125,2.0089,NA,NA,NA,NA,NA,bored,"bored, not bored","more bored, less bored",NA,NA,NA,NA,NA,NA,NA,NA,NA,NA,NA,NA,NA,NA,NA,NA,NA,NA,NA,NA,NA,NA,NA,NA,NA,NA,NA,NA,NA,NA,NA,NA,NA,NA,NA,NA,NA,NA,0,0,0,2,1,NA,NA,NA,NA,NA
SUPAMT31218,3DOCMVPBTTDKPZEXK90ACNK6ACUNN9,6F838B78-D9C6-4C39-9DB7-EC35550A36E3,2023-09-27_10h51.25.165,WP_VExplicitOC_HL,2022.2.5,Win32,9.155329317,24.23263328,3.9184,2.0499,NA,NA,NA,NA,NA,frustrated,"frustrated, not frustrated","more frustrated, less frustrated",NA,NA,NA,NA,NA,NA,NA,NA,NA,NA,NA,NA,NA,NA,NA,NA,NA,NA,NA,NA,NA,NA,NA,NA,NA,NA,NA,NA,NA,NA,NA,NA,NA,NA,NA,NA,NA,NA,0,1,1,1,1,NA,NA,NA,NA,NA
SUPAMT31218,3DOCMVPBTTDKPZEXK90ACNK6ACUNN9,6F838B78-D9C6-4C39-9DB7-EC35550A36E3,2023-09-27_10h51.25.165,WP_VExplicitOC_HL,2022.2.5,Win32,9.155329317,59.45072698,3.0208,2.0188,NA,NA,NA,NA,NA,happy,"unhappy, happy","less happy, more happy",NA,NA,NA,NA,NA,NA,NA,NA,NA,NA,NA,NA,NA,NA,NA,NA,NA,NA,NA,NA,NA,NA,NA,NA,NA,NA,NA,NA,NA,NA,NA,NA,NA,NA,NA,NA,NA,NA,0,2,2,0,1,NA,NA,NA,NA,NA
SUPAMT31218,3DOCMVPBTTDKPZEXK90ACNK6ACUNN9,6F838B78-D9C6-4C39-9DB7-EC35550A36E3,2023-09-27_10h51.25.165,WP_VExplicitOC_HL,2022.2.5,Win32,9.155329317,NA,NA,NA,NA,NA,NA,NA,NA,NA,NA,NA,NA,NA,NA,NA,NA,NA,NA,NA,NA,NA,NA,NA,NA,NA,NA,NA,NA,NA,NA,NA,NA,NA,NA,NA,NA,NA,NA,NA,NA,NA,NA,NA,NA,NA,NA,NA,NA,NA,NA,NA,NA,NA,NA,8,0,8,0,1
SUPAMT31218,3DOCMVPBTTDKPZEXK90ACNK6ACUNN9,6F838B78-D9C6-4C39-9DB7-EC35550A36E3,2023-09-27_10h51.25.165,WP_VExplicitOC_HL,2022.2.5,Win32,9.155329317,49.75767367,3.4474,2.0602,NA,NA,NA,NA,NA,happy,"unhappy, happy","less happy, more happy",NA,NA,NA,NA,NA,NA,NA,NA,NA,NA,NA,NA,NA,NA,NA,NA,NA,NA,NA,NA,NA,NA,NA,NA,NA,NA,NA,NA,NA,NA,NA,NA,NA,NA,NA,NA,NA,NA,0,0,0,0,1,NA,NA,NA,NA,NA
SUPAMT31218,3DOCMVPBTTDKPZEXK90ACNK6ACUNN9,6F838B78-D9C6-4C39-9DB7-EC35550A36E3,2023-09-27_10h51.25.165,WP_VExplicitOC_HL,2022.2.5,Win32,9.155329317,23.9095315,3.4421,2.0415,NA,NA,NA,NA,NA,frustrated,"frustrated, not frustrated","more frustrated, less frustrated",NA,NA,NA,NA,NA,NA,NA,NA,NA,NA,NA,NA,NA,NA,NA,NA,NA,NA,NA,NA,NA,NA,NA,NA,NA,NA,NA,NA,NA,NA,NA,NA,NA,NA,NA,NA,NA,NA,0,1,1,1,1,NA,NA,NA,NA,NA
SUPAMT31218,3DOCMVPBTTDKPZEXK90ACNK6ACUNN9,6F838B78-D9C6-4C39-9DB7-EC35550A36E3,2023-09-27_10h51.25.165,WP_VExplicitOC_HL,2022.2.5,Win32,9.155329317,21.00161551,4.0392,2.0279,NA,NA,NA,NA,NA,bored,"bored, not bored","more bored, less bored",NA,NA,NA,NA,NA,NA,NA,NA,NA,NA,NA,NA,NA,NA,NA,NA,NA,NA,NA,NA,NA,NA,NA,NA,NA,NA,NA,NA,NA,NA,NA,NA,NA,NA,NA,NA,NA,NA,0,2,2,2,1,NA,NA,NA,NA,NA
SUPAMT31218,3DOCMVPBTTDKPZEXK90ACNK6ACUNN9,6F838B78-D9C6-4C39-9DB7-EC35550A36E3,2023-09-27_10h51.25.165,WP_VExplicitOC_HL,2022.2.5,Win32,9.155329317,NA,NA,NA,NA,NA,NA,NA,NA,NA,NA,NA,NA,NA,NA,NA,NA,NA,NA,NA,NA,NA,NA,NA,NA,NA,NA,NA,NA,NA,NA,NA,NA,NA,NA,NA,NA,NA,NA,NA,NA,NA,NA,NA,NA,NA,NA,NA,NA,NA,NA,NA,NA,NA,NA,9,0,9,0,1
SUPAMT31218,3DOCMVPBTTDKPZEXK90ACNK6ACUNN9,6F838B78-D9C6-4C39-9DB7-EC35550A36E3,2023-09-27_10h51.25.165,WP_VExplicitOC_HL,2022.2.5,Win32,9.155329317,15.5088853,3.3345,2.0751,NA,NA,NA,NA,NA,frustrated,"frustrated, not frustrated","more frustrated, less frustrated",NA,NA,NA,NA,NA,NA,NA,NA,NA,NA,NA,NA,NA,NA,NA,NA,NA,NA,NA,NA,NA,NA,NA,NA,NA,NA,NA,NA,NA,NA,NA,NA,NA,NA,NA,NA,NA,NA,0,0,0,1,1,NA,NA,NA,NA,NA
SUPAMT31218,3DOCMVPBTTDKPZEXK90ACNK6ACUNN9,6F838B78-D9C6-4C39-9DB7-EC35550A36E3,2023-09-27_10h51.25.165,WP_VExplicitOC_HL,2022.2.5,Win32,9.155329317,64.62035541,3.3408,2.053,NA,NA,NA,NA,NA,happy,"unhappy, happy","less happy, more happy",NA,NA,NA,NA,NA,NA,NA,NA,NA,NA,NA,NA,NA,NA,NA,NA,NA,NA,NA,NA,NA,NA,NA,NA,NA,NA,NA,NA,NA,NA,NA,NA,NA,NA,NA,NA,NA,NA,0,1,1,0,1,NA,NA,NA,NA,NA
SUPAMT31218,3DOCMVPBTTDKPZEXK90ACNK6ACUNN9,6F838B78-D9C6-4C39-9DB7-EC35550A36E3,2023-09-27_10h51.25.165,WP_VExplicitOC_HL,2022.2.5,Win32,9.155329317,18.09369952,3.3382,2.0733,NA,NA,NA,NA,NA,bored,"bored, not bored","more bored, less bored",NA,NA,NA,NA,NA,NA,NA,NA,NA,NA,NA,NA,NA,NA,NA,NA,NA,NA,NA,NA,NA,NA,NA,NA,NA,NA,NA,NA,NA,NA,NA,NA,NA,NA,NA,NA,NA,NA,0,2,2,2,1,NA,NA,NA,NA,NA
SUPAMT31218,3DOCMVPBTTDKPZEXK90ACNK6ACUNN9,6F838B78-D9C6-4C39-9DB7-EC35550A36E3,2023-09-27_10h51.25.165,WP_VExplicitOC_HL,2022.2.5,Win32,9.155329317,NA,NA,NA,NA,NA,NA,NA,NA,NA,NA,NA,NA,NA,NA,NA,NA,NA,NA,NA,NA,NA,NA,NA,NA,NA,NA,NA,NA,NA,NA,NA,NA,NA,NA,NA,NA,NA,NA,NA,NA,NA,NA,NA,NA,NA,NA,NA,NA,NA,NA,NA,NA,NA,NA,10,0,10,0,1
SUPAMT31218,3DOCMVPBTTDKPZEXK90ACNK6ACUNN9,6F838B78-D9C6-4C39-9DB7-EC35550A36E3,2023-09-27_10h51.25.165,WP_VExplicitOC_HL,2022.2.5,Win32,9.155329317,21.32471729,3.1955,2.0134,NA,NA,NA,NA,NA,bored,"bored, not bored","more bored, less bored",NA,NA,NA,NA,NA,NA,NA,NA,NA,NA,NA,NA,NA,NA,NA,NA,NA,NA,NA,NA,NA,NA,NA,NA,NA,NA,NA,NA,NA,NA,NA,NA,NA,NA,NA,NA,NA,NA,0,0,0,2,1,NA,NA,NA,NA,NA
SUPAMT31218,3DOCMVPBTTDKPZEXK90ACNK6ACUNN9,6F838B78-D9C6-4C39-9DB7-EC35550A36E3,2023-09-27_10h51.25.165,WP_VExplicitOC_HL,2022.2.5,Win32,9.155329317,62.35864297,3.5056,2.0178,NA,NA,NA,NA,NA,happy,"unhappy, happy","less happy, more happy",NA,NA,NA,NA,NA,NA,NA,NA,NA,NA,NA,NA,NA,NA,NA,NA,NA,NA,NA,NA,NA,NA,NA,NA,NA,NA,NA,NA,NA,NA,NA,NA,NA,NA,NA,NA,NA,NA,0,1,1,0,1,NA,NA,NA,NA,NA
SUPAMT31218,3DOCMVPBTTDKPZEXK90ACNK6ACUNN9,6F838B78-D9C6-4C39-9DB7-EC35550A36E3,2023-09-27_10h51.25.165,WP_VExplicitOC_HL,2022.2.5,Win32,9.155329317,19.06300485,3.8898,2.0633,NA,NA,NA,NA,NA,frustrated,"frustrated, not frustrated","more frustrated, less frustrated",NA,NA,NA,NA,NA,NA,NA,NA,NA,NA,NA,NA,NA,NA,NA,NA,NA,NA,NA,NA,NA,NA,NA,NA,NA,NA,NA,NA,NA,NA,NA,NA,NA,NA,NA,NA,NA,NA,0,2,2,1,1,NA,NA,NA,NA,NA
SUPAMT31218,3DOCMVPBTTDKPZEXK90ACNK6ACUNN9,6F838B78-D9C6-4C39-9DB7-EC35550A36E3,2023-09-27_10h51.25.165,WP_VExplicitOC_HL,2022.2.5,Win32,9.155329317,NA,NA,NA,NA,NA,NA,NA,NA,NA,NA,NA,NA,NA,NA,NA,NA,NA,NA,NA,NA,NA,NA,NA,NA,NA,NA,NA,NA,NA,NA,NA,NA,NA,NA,NA,NA,NA,NA,NA,NA,NA,NA,NA,NA,NA,NA,NA,NA,NA,NA,NA,NA,NA,NA,11,0,11,0,1
SUPAMT31218,3DOCMVPBTTDKPZEXK90ACNK6ACUNN9,6F838B78-D9C6-4C39-9DB7-EC35550A36E3,2023-09-27_10h51.25.165,WP_VExplicitOC_HL,2022.2.5,Win32,9.155329317,54.28109855,3.5543,2.0571,NA,NA,NA,NA,NA,happy,"unhappy, happy","less happy, more happy",NA,NA,NA,NA,NA,NA,NA,NA,NA,NA,NA,NA,NA,NA,NA,NA,NA,NA,NA,NA,NA,NA,NA,NA,NA,NA,NA,NA,NA,NA,NA,NA,NA,NA,NA,NA,NA,NA,0,0,0,0,1,NA,NA,NA,NA,NA
SUPAMT31218,3DOCMVPBTTDKPZEXK90ACNK6ACUNN9,6F838B78-D9C6-4C39-9DB7-EC35550A36E3,2023-09-27_10h51.25.165,WP_VExplicitOC_HL,2022.2.5,Win32,9.155329317,19.38610662,3.6649,2.0555,NA,NA,NA,NA,NA,bored,"bored, not bored","more bored, less bored",NA,NA,NA,NA,NA,NA,NA,NA,NA,NA,NA,NA,NA,NA,NA,NA,NA,NA,NA,NA,NA,NA,NA,NA,NA,NA,NA,NA,NA,NA,NA,NA,NA,NA,NA,NA,NA,NA,0,1,1,2,1,NA,NA,NA,NA,NA
SUPAMT31218,3DOCMVPBTTDKPZEXK90ACNK6ACUNN9,6F838B78-D9C6-4C39-9DB7-EC35550A36E3,2023-09-27_10h51.25.165,WP_VExplicitOC_HL,2022.2.5,Win32,9.155329317,15.83198708,3.869,2.0635,NA,NA,NA,NA,NA,frustrated,"frustrated, not frustrated","more frustrated, less frustrated",NA,NA,NA,NA,NA,NA,NA,NA,NA,NA,NA,NA,NA,NA,NA,NA,NA,NA,NA,NA,NA,NA,NA,NA,NA,NA,NA,NA,NA,NA,NA,NA,NA,NA,NA,NA,NA,NA,0,2,2,1,1,NA,NA,NA,NA,NA
SUPAMT31218,3DOCMVPBTTDKPZEXK90ACNK6ACUNN9,6F838B78-D9C6-4C39-9DB7-EC35550A36E3,2023-09-27_10h51.25.165,WP_VExplicitOC_HL,2022.2.5,Win32,9.155329317,NA,NA,NA,NA,NA,NA,NA,NA,NA,NA,NA,NA,NA,NA,NA,NA,NA,NA,NA,NA,NA,NA,NA,NA,NA,NA,NA,NA,NA,NA,NA,NA,NA,NA,NA,NA,NA,NA,NA,NA,NA,NA,NA,NA,NA,NA,NA,NA,NA,NA,NA,NA,NA,NA,12,0,12,0,1
SUPAMT31218,3DOCMVPBTTDKPZEXK90ACNK6ACUNN9,6F838B78-D9C6-4C39-9DB7-EC35550A36E3,2023-09-27_10h51.25.165,WP_VExplicitOC_HL,2022.2.5,Win32,9.155329317,NA,NA,2.0409,NA,NA,NA,NA,NA,frustrated,"frustrated, not frustrated","more frustrated, less frustrated",NA,NA,NA,NA,NA,NA,NA,NA,NA,NA,NA,NA,NA,NA,NA,NA,NA,NA,NA,NA,NA,NA,NA,NA,NA,NA,NA,NA,NA,NA,NA,NA,NA,NA,NA,NA,NA,NA,0,0,0,1,1,NA,NA,NA,NA,NA
SUPAMT31218,3DOCMVPBTTDKPZEXK90ACNK6ACUNN9,6F838B78-D9C6-4C39-9DB7-EC35550A36E3,2023-09-27_10h51.25.165,WP_VExplicitOC_HL,2022.2.5,Win32,9.155329317,54.60420032,3.8911,2.0142,NA,NA,NA,NA,NA,happy,"unhappy, happy","less happy, more happy",NA,NA,NA,NA,NA,NA,NA,NA,NA,NA,NA,NA,NA,NA,NA,NA,NA,NA,NA,NA,NA,NA,NA,NA,NA,NA,NA,NA,NA,NA,NA,NA,NA,NA,NA,NA,NA,NA,0,1,1,0,1,NA,NA,NA,NA,NA
SUPAMT31218,3DOCMVPBTTDKPZEXK90ACNK6ACUNN9,6F838B78-D9C6-4C39-9DB7-EC35550A36E3,2023-09-27_10h51.25.165,WP_VExplicitOC_HL,2022.2.5,Win32,9.155329317,11.95476575,3.94,2.0508,NA,NA,NA,NA,NA,bored,"bored, not bored","more bored, less bored",NA,NA,NA,NA,NA,NA,NA,NA,NA,NA,NA,NA,NA,NA,NA,NA,NA,NA,NA,NA,NA,NA,NA,NA,NA,NA,NA,NA,NA,NA,NA,NA,NA,NA,NA,NA,NA,NA,0,2,2,2,1,NA,NA,NA,NA,NA
SUPAMT31218,3DOCMVPBTTDKPZEXK90ACNK6ACUNN9,6F838B78-D9C6-4C39-9DB7-EC35550A36E3,2023-09-27_10h51.25.165,WP_VExplicitOC_HL,2022.2.5,Win32,9.155329317,NA,NA,NA,NA,NA,NA,NA,NA,NA,NA,NA,NA,NA,NA,NA,NA,NA,NA,NA,NA,NA,NA,NA,NA,NA,NA,NA,NA,NA,NA,NA,NA,NA,NA,NA,NA,NA,NA,NA,NA,NA,NA,NA,NA,NA,NA,NA,NA,NA,NA,NA,NA,NA,NA,13,0,13,0,1
SUPAMT31218,3DOCMVPBTTDKPZEXK90ACNK6ACUNN9,6F838B78-D9C6-4C39-9DB7-EC35550A36E3,2023-09-27_10h51.25.165,WP_VExplicitOC_HL,2022.2.5,Win32,9.155329317,33.27948304,4.2011,2.0597,NA,NA,NA,NA,NA,bored,"bored, not bored","more bored, less bored",NA,NA,NA,NA,NA,NA,NA,NA,NA,NA,NA,NA,NA,NA,NA,NA,NA,NA,NA,NA,NA,NA,NA,NA,NA,NA,NA,NA,NA,NA,NA,NA,NA,NA,NA,NA,NA,NA,0,0,0,2,1,NA,NA,NA,NA,NA
SUPAMT31218,3DOCMVPBTTDKPZEXK90ACNK6ACUNN9,6F838B78-D9C6-4C39-9DB7-EC35550A36E3,2023-09-27_10h51.25.165,WP_VExplicitOC_HL,2022.2.5,Win32,9.155329317,23.9095315,3.4357,2.0413,NA,NA,NA,NA,NA,frustrated,"frustrated, not frustrated","more frustrated, less frustrated",NA,NA,NA,NA,NA,NA,NA,NA,NA,NA,NA,NA,NA,NA,NA,NA,NA,NA,NA,NA,NA,NA,NA,NA,NA,NA,NA,NA,NA,NA,NA,NA,NA,NA,NA,NA,NA,NA,0,1,1,1,1,NA,NA,NA,NA,NA
SUPAMT31218,3DOCMVPBTTDKPZEXK90ACNK6ACUNN9,6F838B78-D9C6-4C39-9DB7-EC35550A36E3,2023-09-27_10h51.25.165,WP_VExplicitOC_HL,2022.2.5,Win32,9.155329317,74.95961228,2.9993,2.012,NA,NA,NA,NA,NA,happy,"unhappy, happy","less happy, more happy",NA,NA,NA,NA,NA,NA,NA,NA,NA,NA,NA,NA,NA,NA,NA,NA,NA,NA,NA,NA,NA,NA,NA,NA,NA,NA,NA,NA,NA,NA,NA,NA,NA,NA,NA,NA,NA,NA,0,2,2,0,1,NA,NA,NA,NA,NA
SUPAMT31218,3DOCMVPBTTDKPZEXK90ACNK6ACUNN9,6F838B78-D9C6-4C39-9DB7-EC35550A36E3,2023-09-27_10h51.25.165,WP_VExplicitOC_HL,2022.2.5,Win32,9.155329317,NA,NA,NA,NA,NA,NA,NA,NA,NA,NA,NA,NA,NA,NA,NA,NA,NA,NA,NA,NA,NA,NA,NA,NA,NA,NA,NA,NA,NA,NA,NA,NA,NA,NA,NA,NA,NA,NA,NA,NA,NA,NA,NA,NA,NA,NA,NA,NA,NA,NA,NA,NA,NA,NA,14,0,14,0,1
SUPAMT31218,3DOCMVPBTTDKPZEXK90ACNK6ACUNN9,6F838B78-D9C6-4C39-9DB7-EC35550A36E3,2023-09-27_10h51.25.165,WP_VExplicitOC_HL,2022.2.5,Win32,9.155329317,NA,NA,NA,NA,NA,NA,NA,NA,NA,NA,NA,NA,NA,NA,NA,NA,NA,NA,NA,NA,NA,NA,NA,NA,NA,NA,NA,NA,NA,NA,NA,NA,NA,NA,NA,NA,NA,NA,NA,NA,NA,NA,NA,NA,NA,NA,NA,NA,NA,NA,NA,NA,NA,NA,NA,NA,NA,NA,NA
