participant,session,completion,date,expName,psychopyVersion,OS,frameRate,rating_all.response,rating_all.rt,rating_all.tStart,rndRat1.thisRepN,rndRat1.thisTrialN,rndRat1.thisN,rndRat1.thisIndex,rndRat1.ran,Emo,Labs,Labs2,rating_alt.response,rating_alt.rt,AltC.thisRepN,AltC.thisTrialN,AltC.thisN,AltC.thisIndex,AltC.ran,alt_choices,pic_choices,BottomAlt_Choice,rndRat2.thisRepN,rndRat2.thisTrialN,rndRat2.thisN,rndRat2.thisIndex,rndRat2.ran,rndRat3.thisRepN,rndRat3.thisTrialN,rndRat3.thisN,rndRat3.thisIndex,rndRat3.ran,trials_FC_L.thisRepN,trials_FC_L.thisTrialN,trials_FC_L.thisN,trials_FC_L.thisIndex,trials_FC_L.ran,rating_alt_2.response,rating_alt_2.rt,AltC2.thisRepN,AltC2.thisTrialN,AltC2.thisN,AltC2.thisIndex,AltC2.ran,TopAlt_Choice,rndRat4.thisRepN,rndRat4.thisTrialN,rndRat4.thisN,rndRat4.thisIndex,rndRat4.ran,rndRat5.thisRepN,rndRat5.thisTrialN,rndRat5.thisN,rndRat5.thisIndex,rndRat5.ran,trials_FC_H.thisRepN,trials_FC_H.thisTrialN,trials_FC_H.thisN,trials_FC_H.thisIndex,trials_FC_H.ran
SUPAMT54803,3JPSL1DZ5YYD5GK8B5V5QH06B3EANR,816757B5-663F-45D5-BA69-385AA315351B,2023-09-27_08h10.13.913,WP_VExplicitOC_LH,2022.2.5,Win32,15.54388037,NA,NA,NA,NA,NA,NA,NA,NA,NA,NA,NA,NA,NA,NA,NA,NA,NA,NA,NA,NA,NA,NA,NA,NA,NA,NA,NA,NA,NA,NA,NA,NA,NA,NA,NA,NA,NA,NA,NA,NA,NA,NA,NA,NA,NA,NA,NA,NA,NA,NA,NA,NA,NA,NA,NA,NA,NA,NA,NA
SUPAMT54803,3JPSL1DZ5YYD5GK8B5V5QH06B3EANR,816757B5-663F-45D5-BA69-385AA315351B,2023-09-27_08h10.13.913,WP_VExplicitOC_LH,2022.2.5,Win32,15.54388037,NA,NA,NA,NA,NA,NA,NA,NA,NA,NA,NA,NA,NA,NA,NA,NA,NA,NA,NA,NA,NA,NA,NA,NA,NA,NA,NA,NA,NA,NA,NA,NA,NA,NA,NA,NA,NA,NA,NA,NA,NA,NA,NA,NA,NA,NA,NA,NA,NA,NA,NA,NA,NA,NA,NA,NA,NA,NA,NA
SUPAMT54803,3JPSL1DZ5YYD5GK8B5V5QH06B3EANR,816757B5-663F-45D5-BA69-385AA315351B,2023-09-27_08h10.13.913,WP_VExplicitOC_LH,2022.2.5,Win32,15.54388037,NA,NA,NA,NA,NA,NA,NA,NA,NA,NA,NA,NA,NA,NA,NA,NA,NA,NA,NA,NA,NA,NA,NA,NA,NA,NA,NA,NA,NA,NA,NA,NA,NA,NA,NA,NA,NA,NA,NA,NA,NA,NA,NA,NA,NA,NA,NA,NA,NA,NA,NA,NA,NA,NA,NA,NA,NA,NA,NA
SUPAMT54803,3JPSL1DZ5YYD5GK8B5V5QH06B3EANR,816757B5-663F-45D5-BA69-385AA315351B,2023-09-27_08h10.13.913,WP_VExplicitOC_LH,2022.2.5,Win32,15.54388037,100,4.7111,2.0528,0,0,0,1,1,frustrated,"frustrated, not frustrated","more frustrated, less frustrated",NA,NA,NA,NA,NA,NA,NA,NA,NA,NA,NA,NA,NA,NA,NA,NA,NA,NA,NA,NA,NA,NA,NA,NA,NA,NA,NA,NA,NA,NA,NA,NA,NA,NA,NA,NA,NA,NA,NA,NA,NA,NA,NA,NA,NA,NA,NA,NA
SUPAMT54803,3JPSL1DZ5YYD5GK8B5V5QH06B3EANR,816757B5-663F-45D5-BA69-385AA315351B,2023-09-27_08h10.13.913,WP_VExplicitOC_LH,2022.2.5,Win32,15.54388037,100,5.0845,2.009,0,1,1,2,1,bored,"bored, not bored","more bored, less bored",NA,NA,NA,NA,NA,NA,NA,NA,NA,NA,NA,NA,NA,NA,NA,NA,NA,NA,NA,NA,NA,NA,NA,NA,NA,NA,NA,NA,NA,NA,NA,NA,NA,NA,NA,NA,NA,NA,NA,NA,NA,NA,NA,NA,NA,NA,NA,NA
SUPAMT54803,3JPSL1DZ5YYD5GK8B5V5QH06B3EANR,816757B5-663F-45D5-BA69-385AA315351B,2023-09-27_08h10.13.913,WP_VExplicitOC_LH,2022.2.5,Win32,15.54388037,-33.07291667,3.8234,2.0961,0,2,2,0,1,happy,"unhappy, happy","less happy, more happy",NA,NA,NA,NA,NA,NA,NA,NA,NA,NA,NA,NA,NA,NA,NA,NA,NA,NA,NA,NA,NA,NA,NA,NA,NA,NA,NA,NA,NA,NA,NA,NA,NA,NA,NA,NA,NA,NA,NA,NA,NA,NA,NA,NA,NA,NA,NA,NA
SUPAMT54803,3JPSL1DZ5YYD5GK8B5V5QH06B3EANR,816757B5-663F-45D5-BA69-385AA315351B,2023-09-27_08h10.13.913,WP_VExplicitOC_LH,2022.2.5,Win32,15.54388037,NA,NA,NA,NA,NA,NA,NA,NA,NA,NA,NA,NA,NA,NA,NA,NA,NA,NA,NA,NA,NA,NA,NA,NA,NA,NA,NA,NA,NA,NA,NA,NA,NA,NA,NA,NA,NA,NA,NA,NA,NA,NA,NA,NA,NA,NA,NA,NA,NA,NA,NA,NA,NA,NA,NA,NA,NA,NA,NA
SUPAMT54803,3JPSL1DZ5YYD5GK8B5V5QH06B3EANR,816757B5-663F-45D5-BA69-385AA315351B,2023-09-27_08h10.13.913,WP_VExplicitOC_LH,2022.2.5,Win32,15.54388037,NA,NA,NA,NA,NA,NA,NA,NA,NA,NA,NA,NA,NA,NA,NA,NA,NA,NA,NA,NA,NA,NA,NA,NA,NA,NA,NA,NA,NA,NA,NA,NA,NA,NA,NA,NA,NA,NA,NA,NA,NA,NA,NA,NA,NA,NA,NA,NA,NA,NA,NA,NA,NA,NA,NA,NA,NA,NA,NA
SUPAMT54803,3JPSL1DZ5YYD5GK8B5V5QH06B3EANR,816757B5-663F-45D5-BA69-385AA315351B,2023-09-27_08h10.13.913,WP_VExplicitOC_LH,2022.2.5,Win32,15.54388037,NA,NA,NA,NA,NA,NA,NA,NA,NA,NA,NA,NA,NA,NA,NA,NA,NA,NA,NA,NA,NA,NA,NA,NA,NA,NA,NA,NA,NA,NA,NA,NA,NA,NA,NA,NA,NA,NA,NA,NA,NA,NA,NA,NA,NA,NA,NA,NA,NA,NA,NA,NA,NA,NA,NA,NA,NA,NA,NA
SUPAMT54803,3JPSL1DZ5YYD5GK8B5V5QH06B3EANR,816757B5-663F-45D5-BA69-385AA315351B,2023-09-27_08h10.13.913,WP_VExplicitOC_LH,2022.2.5,Win32,15.54388037,NA,NA,NA,NA,NA,NA,NA,NA,NA,NA,NA,NA,NA,NA,NA,NA,NA,NA,NA,NA,NA,NA,NA,NA,NA,NA,NA,NA,NA,NA,NA,NA,NA,NA,NA,NA,NA,NA,NA,NA,NA,NA,NA,NA,NA,NA,NA,NA,NA,NA,NA,NA,NA,NA,NA,NA,NA,NA,NA
SUPAMT54803,3JPSL1DZ5YYD5GK8B5V5QH06B3EANR,816757B5-663F-45D5-BA69-385AA315351B,2023-09-27_08h10.13.913,WP_VExplicitOC_LH,2022.2.5,Win32,15.54388037,NA,NA,NA,NA,NA,NA,NA,NA,NA,NA,NA,60.9375,1.6844,0,0,0,0,1,rest (looking at a fixed cross),001.png,NA,NA,NA,NA,NA,NA,NA,NA,NA,NA,NA,NA,NA,NA,NA,NA,NA,NA,NA,NA,NA,NA,NA,NA,NA,NA,NA,NA,NA,NA,NA,NA,NA,NA,NA,NA,NA,NA,NA
SUPAMT54803,3JPSL1DZ5YYD5GK8B5V5QH06B3EANR,816757B5-663F-45D5-BA69-385AA315351B,2023-09-27_08h10.13.913,WP_VExplicitOC_LH,2022.2.5,Win32,15.54388037,NA,NA,NA,NA,NA,NA,NA,NA,NA,NA,NA,47.91666667,1.9548,0,1,1,1,1,stand up,002.png,NA,NA,NA,NA,NA,NA,NA,NA,NA,NA,NA,NA,NA,NA,NA,NA,NA,NA,NA,NA,NA,NA,NA,NA,NA,NA,NA,NA,NA,NA,NA,NA,NA,NA,NA,NA,NA,NA,NA
SUPAMT54803,3JPSL1DZ5YYD5GK8B5V5QH06B3EANR,816757B5-663F-45D5-BA69-385AA315351B,2023-09-27_08h10.13.913,WP_VExplicitOC_LH,2022.2.5,Win32,15.54388037,NA,NA,NA,NA,NA,NA,NA,NA,NA,NA,NA,63.54166667,1.1264,0,2,2,2,1,stretch,003.png,NA,NA,NA,NA,NA,NA,NA,NA,NA,NA,NA,NA,NA,NA,NA,NA,NA,NA,NA,NA,NA,NA,NA,NA,NA,NA,NA,NA,NA,NA,NA,NA,NA,NA,NA,NA,NA,NA,NA
SUPAMT54803,3JPSL1DZ5YYD5GK8B5V5QH06B3EANR,816757B5-663F-45D5-BA69-385AA315351B,2023-09-27_08h10.13.913,WP_VExplicitOC_LH,2022.2.5,Win32,15.54388037,NA,NA,NA,NA,NA,NA,NA,NA,NA,NA,NA,84.89583333,1.2442,0,3,3,3,1,make a drink,004.png,NA,NA,NA,NA,NA,NA,NA,NA,NA,NA,NA,NA,NA,NA,NA,NA,NA,NA,NA,NA,NA,NA,NA,NA,NA,NA,NA,NA,NA,NA,NA,NA,NA,NA,NA,NA,NA,NA,NA
SUPAMT54803,3JPSL1DZ5YYD5GK8B5V5QH06B3EANR,816757B5-663F-45D5-BA69-385AA315351B,2023-09-27_08h10.13.913,WP_VExplicitOC_LH,2022.2.5,Win32,15.54388037,NA,NA,NA,NA,NA,NA,NA,NA,NA,NA,NA,97.39583333,1.2888,0,4,4,4,1,scroll social media,005.png,NA,NA,NA,NA,NA,NA,NA,NA,NA,NA,NA,NA,NA,NA,NA,NA,NA,NA,NA,NA,NA,NA,NA,NA,NA,NA,NA,NA,NA,NA,NA,NA,NA,NA,NA,NA,NA,NA,NA
SUPAMT54803,3JPSL1DZ5YYD5GK8B5V5QH06B3EANR,816757B5-663F-45D5-BA69-385AA315351B,2023-09-27_08h10.13.913,WP_VExplicitOC_LH,2022.2.5,Win32,15.54388037,NA,NA,NA,NA,NA,NA,NA,NA,NA,NA,NA,2.604166667,0.6908,0,5,5,5,1,listen to music,006.png,NA,NA,NA,NA,NA,NA,NA,NA,NA,NA,NA,NA,NA,NA,NA,NA,NA,NA,NA,NA,NA,NA,NA,NA,NA,NA,NA,NA,NA,NA,NA,NA,NA,NA,NA,NA,NA,NA,NA
SUPAMT54803,3JPSL1DZ5YYD5GK8B5V5QH06B3EANR,816757B5-663F-45D5-BA69-385AA315351B,2023-09-27_08h10.13.913,WP_VExplicitOC_LH,2022.2.5,Win32,15.54388037,NA,NA,NA,NA,NA,NA,NA,NA,NA,NA,NA,100,0.4921,0,6,6,6,1,daydream,007.png,NA,NA,NA,NA,NA,NA,NA,NA,NA,NA,NA,NA,NA,NA,NA,NA,NA,NA,NA,NA,NA,NA,NA,NA,NA,NA,NA,NA,NA,NA,NA,NA,NA,NA,NA,NA,NA,NA,NA
SUPAMT54803,3JPSL1DZ5YYD5GK8B5V5QH06B3EANR,816757B5-663F-45D5-BA69-385AA315351B,2023-09-27_08h10.13.913,WP_VExplicitOC_LH,2022.2.5,Win32,15.54388037,NA,NA,NA,NA,NA,NA,NA,NA,NA,NA,NA,100,0.9475,0,7,7,7,1,watch a short animation,008.png,NA,NA,NA,NA,NA,NA,NA,NA,NA,NA,NA,NA,NA,NA,NA,NA,NA,NA,NA,NA,NA,NA,NA,NA,NA,NA,NA,NA,NA,NA,NA,NA,NA,NA,NA,NA,NA,NA,NA
SUPAMT54803,3JPSL1DZ5YYD5GK8B5V5QH06B3EANR,816757B5-663F-45D5-BA69-385AA315351B,2023-09-27_08h10.13.913,WP_VExplicitOC_LH,2022.2.5,Win32,15.54388037,NA,NA,NA,NA,NA,NA,NA,NA,NA,NA,NA,100,2.9176,0,8,8,8,1,read a novel,009.png,NA,NA,NA,NA,NA,NA,NA,NA,NA,NA,NA,NA,NA,NA,NA,NA,NA,NA,NA,NA,NA,NA,NA,NA,NA,NA,NA,NA,NA,NA,NA,NA,NA,NA,NA,NA,NA,NA,NA
SUPAMT54803,3JPSL1DZ5YYD5GK8B5V5QH06B3EANR,816757B5-663F-45D5-BA69-385AA315351B,2023-09-27_08h10.13.913,WP_VExplicitOC_LH,2022.2.5,Win32,15.54388037,NA,NA,NA,NA,NA,NA,NA,NA,NA,NA,NA,82.55208333,1.8354,0,9,9,9,1,read the news,010.png,NA,NA,NA,NA,NA,NA,NA,NA,NA,NA,NA,NA,NA,NA,NA,NA,NA,NA,NA,NA,NA,NA,NA,NA,NA,NA,NA,NA,NA,NA,NA,NA,NA,NA,NA,NA,NA,NA,NA
SUPAMT54803,3JPSL1DZ5YYD5GK8B5V5QH06B3EANR,816757B5-663F-45D5-BA69-385AA315351B,2023-09-27_08h10.13.913,WP_VExplicitOC_LH,2022.2.5,Win32,15.54388037,NA,NA,NA,NA,NA,NA,NA,NA,NA,NA,NA,NA,NA,NA,NA,NA,NA,NA,NA,NA,NA,NA,NA,NA,NA,NA,NA,NA,NA,NA,NA,NA,NA,NA,NA,NA,NA,NA,NA,NA,NA,NA,NA,NA,NA,NA,NA,NA,NA,NA,NA,NA,NA,NA,NA,NA,NA,NA,NA
SUPAMT54803,3JPSL1DZ5YYD5GK8B5V5QH06B3EANR,816757B5-663F-45D5-BA69-385AA315351B,2023-09-27_08h10.13.913,WP_VExplicitOC_LH,2022.2.5,Win32,15.54388037,NA,NA,NA,NA,NA,NA,NA,NA,NA,NA,NA,NA,NA,NA,NA,NA,NA,NA,NA,NA,listen to music,NA,NA,NA,NA,NA,NA,NA,NA,NA,NA,NA,NA,NA,NA,NA,NA,NA,NA,NA,NA,NA,NA,NA,NA,NA,NA,NA,NA,NA,NA,NA,NA,NA,NA,NA,NA,NA,NA
SUPAMT54803,3JPSL1DZ5YYD5GK8B5V5QH06B3EANR,816757B5-663F-45D5-BA69-385AA315351B,2023-09-27_08h10.13.913,WP_VExplicitOC_LH,2022.2.5,Win32,15.54388037,100,4.6132,2.0545,NA,NA,NA,NA,NA,bored,"bored, not bored","more bored, less bored",NA,NA,NA,NA,NA,NA,NA,NA,NA,NA,0,0,0,2,1,NA,NA,NA,NA,NA,NA,NA,NA,NA,NA,NA,NA,NA,NA,NA,NA,NA,NA,NA,NA,NA,NA,NA,NA,NA,NA,NA,NA,NA,NA,NA,NA,NA
SUPAMT54803,3JPSL1DZ5YYD5GK8B5V5QH06B3EANR,816757B5-663F-45D5-BA69-385AA315351B,2023-09-27_08h10.13.913,WP_VExplicitOC_LH,2022.2.5,Win32,15.54388037,100,4.4533,2.0707,NA,NA,NA,NA,NA,happy,"unhappy, happy","less happy, more happy",NA,NA,NA,NA,NA,NA,NA,NA,NA,NA,0,1,1,0,1,NA,NA,NA,NA,NA,NA,NA,NA,NA,NA,NA,NA,NA,NA,NA,NA,NA,NA,NA,NA,NA,NA,NA,NA,NA,NA,NA,NA,NA,NA,NA,NA,NA
SUPAMT54803,3JPSL1DZ5YYD5GK8B5V5QH06B3EANR,816757B5-663F-45D5-BA69-385AA315351B,2023-09-27_08h10.13.913,WP_VExplicitOC_LH,2022.2.5,Win32,15.54388037,100,3.8674,2.0688,NA,NA,NA,NA,NA,frustrated,"frustrated, not frustrated","more frustrated, less frustrated",NA,NA,NA,NA,NA,NA,NA,NA,NA,NA,0,2,2,1,1,NA,NA,NA,NA,NA,NA,NA,NA,NA,NA,NA,NA,NA,NA,NA,NA,NA,NA,NA,NA,NA,NA,NA,NA,NA,NA,NA,NA,NA,NA,NA,NA,NA
SUPAMT54803,3JPSL1DZ5YYD5GK8B5V5QH06B3EANR,816757B5-663F-45D5-BA69-385AA315351B,2023-09-27_08h10.13.913,WP_VExplicitOC_LH,2022.2.5,Win32,15.54388037,NA,NA,NA,NA,NA,NA,NA,NA,NA,NA,NA,NA,NA,NA,NA,NA,NA,NA,NA,NA,NA,NA,NA,NA,NA,NA,NA,NA,NA,NA,NA,NA,NA,NA,NA,NA,NA,NA,NA,NA,NA,NA,NA,NA,NA,NA,NA,NA,NA,NA,NA,NA,NA,NA,NA,NA,NA,NA,NA
SUPAMT54803,3JPSL1DZ5YYD5GK8B5V5QH06B3EANR,816757B5-663F-45D5-BA69-385AA315351B,2023-09-27_08h10.13.913,WP_VExplicitOC_LH,2022.2.5,Win32,15.54388037,NA,NA,NA,NA,NA,NA,NA,NA,NA,NA,NA,NA,NA,NA,NA,NA,NA,NA,NA,NA,NA,NA,NA,NA,NA,NA,NA,NA,NA,NA,NA,NA,NA,NA,NA,NA,NA,NA,NA,NA,NA,NA,NA,NA,NA,NA,NA,NA,NA,NA,NA,NA,NA,NA,NA,NA,NA,NA,NA
SUPAMT54803,3JPSL1DZ5YYD5GK8B5V5QH06B3EANR,816757B5-663F-45D5-BA69-385AA315351B,2023-09-27_08h10.13.913,WP_VExplicitOC_LH,2022.2.5,Win32,15.54388037,100,3.8441,2.0178,NA,NA,NA,NA,NA,happy,"unhappy, happy","less happy, more happy",NA,NA,NA,NA,NA,NA,NA,NA,NA,NA,NA,NA,NA,NA,NA,0,0,0,0,1,NA,NA,NA,NA,NA,NA,NA,NA,NA,NA,NA,NA,NA,NA,NA,NA,NA,NA,NA,NA,NA,NA,NA,NA,NA,NA,NA,NA
SUPAMT54803,3JPSL1DZ5YYD5GK8B5V5QH06B3EANR,816757B5-663F-45D5-BA69-385AA315351B,2023-09-27_08h10.13.913,WP_VExplicitOC_LH,2022.2.5,Win32,15.54388037,45.83333333,4.3958,2.0882,NA,NA,NA,NA,NA,frustrated,"frustrated, not frustrated","more frustrated, less frustrated",NA,NA,NA,NA,NA,NA,NA,NA,NA,NA,NA,NA,NA,NA,NA,0,1,1,1,1,NA,NA,NA,NA,NA,NA,NA,NA,NA,NA,NA,NA,NA,NA,NA,NA,NA,NA,NA,NA,NA,NA,NA,NA,NA,NA,NA,NA
SUPAMT54803,3JPSL1DZ5YYD5GK8B5V5QH06B3EANR,816757B5-663F-45D5-BA69-385AA315351B,2023-09-27_08h10.13.913,WP_VExplicitOC_LH,2022.2.5,Win32,15.54388037,76.5625,3.3145,2.0526,NA,NA,NA,NA,NA,bored,"bored, not bored","more bored, less bored",NA,NA,NA,NA,NA,NA,NA,NA,NA,NA,NA,NA,NA,NA,NA,0,2,2,2,1,NA,NA,NA,NA,NA,NA,NA,NA,NA,NA,NA,NA,NA,NA,NA,NA,NA,NA,NA,NA,NA,NA,NA,NA,NA,NA,NA,NA
SUPAMT54803,3JPSL1DZ5YYD5GK8B5V5QH06B3EANR,816757B5-663F-45D5-BA69-385AA315351B,2023-09-27_08h10.13.913,WP_VExplicitOC_LH,2022.2.5,Win32,15.54388037,NA,NA,NA,NA,NA,NA,NA,NA,NA,NA,NA,NA,NA,NA,NA,NA,NA,NA,NA,NA,NA,NA,NA,NA,NA,NA,NA,NA,NA,NA,NA,0,0,0,0,1,NA,NA,NA,NA,NA,NA,NA,NA,NA,NA,NA,NA,NA,NA,NA,NA,NA,NA,NA,NA,NA,NA,NA
SUPAMT54803,3JPSL1DZ5YYD5GK8B5V5QH06B3EANR,816757B5-663F-45D5-BA69-385AA315351B,2023-09-27_08h10.13.913,WP_VExplicitOC_LH,2022.2.5,Win32,15.54388037,100,4.2275,2.022,NA,NA,NA,NA,NA,bored,"bored, not bored","more bored, less bored",NA,NA,NA,NA,NA,NA,NA,NA,NA,NA,NA,NA,NA,NA,NA,0,0,0,2,1,NA,NA,NA,NA,NA,NA,NA,NA,NA,NA,NA,NA,NA,NA,NA,NA,NA,NA,NA,NA,NA,NA,NA,NA,NA,NA,NA,NA
SUPAMT54803,3JPSL1DZ5YYD5GK8B5V5QH06B3EANR,816757B5-663F-45D5-BA69-385AA315351B,2023-09-27_08h10.13.913,WP_VExplicitOC_LH,2022.2.5,Win32,15.54388037,80.46875,3.3052,2.0617,NA,NA,NA,NA,NA,frustrated,"frustrated, not frustrated","more frustrated, less frustrated",NA,NA,NA,NA,NA,NA,NA,NA,NA,NA,NA,NA,NA,NA,NA,0,1,1,1,1,NA,NA,NA,NA,NA,NA,NA,NA,NA,NA,NA,NA,NA,NA,NA,NA,NA,NA,NA,NA,NA,NA,NA,NA,NA,NA,NA,NA
SUPAMT54803,3JPSL1DZ5YYD5GK8B5V5QH06B3EANR,816757B5-663F-45D5-BA69-385AA315351B,2023-09-27_08h10.13.913,WP_VExplicitOC_LH,2022.2.5,Win32,15.54388037,76.82291667,3.3364,2.0559,NA,NA,NA,NA,NA,happy,"unhappy, happy","less happy, more happy",NA,NA,NA,NA,NA,NA,NA,NA,NA,NA,NA,NA,NA,NA,NA,0,2,2,0,1,NA,NA,NA,NA,NA,NA,NA,NA,NA,NA,NA,NA,NA,NA,NA,NA,NA,NA,NA,NA,NA,NA,NA,NA,NA,NA,NA,NA
SUPAMT54803,3JPSL1DZ5YYD5GK8B5V5QH06B3EANR,816757B5-663F-45D5-BA69-385AA315351B,2023-09-27_08h10.13.913,WP_VExplicitOC_LH,2022.2.5,Win32,15.54388037,NA,NA,NA,NA,NA,NA,NA,NA,NA,NA,NA,NA,NA,NA,NA,NA,NA,NA,NA,NA,NA,NA,NA,NA,NA,NA,NA,NA,NA,NA,NA,1,0,1,0,1,NA,NA,NA,NA,NA,NA,NA,NA,NA,NA,NA,NA,NA,NA,NA,NA,NA,NA,NA,NA,NA,NA,NA
SUPAMT54803,3JPSL1DZ5YYD5GK8B5V5QH06B3EANR,816757B5-663F-45D5-BA69-385AA315351B,2023-09-27_08h10.13.913,WP_VExplicitOC_LH,2022.2.5,Win32,15.54388037,56.51041667,3.4073,2.0534,NA,NA,NA,NA,NA,frustrated,"frustrated, not frustrated","more frustrated, less frustrated",NA,NA,NA,NA,NA,NA,NA,NA,NA,NA,NA,NA,NA,NA,NA,0,0,0,1,1,NA,NA,NA,NA,NA,NA,NA,NA,NA,NA,NA,NA,NA,NA,NA,NA,NA,NA,NA,NA,NA,NA,NA,NA,NA,NA,NA,NA
SUPAMT54803,3JPSL1DZ5YYD5GK8B5V5QH06B3EANR,816757B5-663F-45D5-BA69-385AA315351B,2023-09-27_08h10.13.913,WP_VExplicitOC_LH,2022.2.5,Win32,15.54388037,59.89583333,3.7299,2.0562,NA,NA,NA,NA,NA,bored,"bored, not bored","more bored, less bored",NA,NA,NA,NA,NA,NA,NA,NA,NA,NA,NA,NA,NA,NA,NA,0,1,1,2,1,NA,NA,NA,NA,NA,NA,NA,NA,NA,NA,NA,NA,NA,NA,NA,NA,NA,NA,NA,NA,NA,NA,NA,NA,NA,NA,NA,NA
SUPAMT54803,3JPSL1DZ5YYD5GK8B5V5QH06B3EANR,816757B5-663F-45D5-BA69-385AA315351B,2023-09-27_08h10.13.913,WP_VExplicitOC_LH,2022.2.5,Win32,15.54388037,63.02083333,3.2462,2.0113,NA,NA,NA,NA,NA,happy,"unhappy, happy","less happy, more happy",NA,NA,NA,NA,NA,NA,NA,NA,NA,NA,NA,NA,NA,NA,NA,0,2,2,0,1,NA,NA,NA,NA,NA,NA,NA,NA,NA,NA,NA,NA,NA,NA,NA,NA,NA,NA,NA,NA,NA,NA,NA,NA,NA,NA,NA,NA
SUPAMT54803,3JPSL1DZ5YYD5GK8B5V5QH06B3EANR,816757B5-663F-45D5-BA69-385AA315351B,2023-09-27_08h10.13.913,WP_VExplicitOC_LH,2022.2.5,Win32,15.54388037,NA,NA,NA,NA,NA,NA,NA,NA,NA,NA,NA,NA,NA,NA,NA,NA,NA,NA,NA,NA,NA,NA,NA,NA,NA,NA,NA,NA,NA,NA,NA,2,0,2,0,1,NA,NA,NA,NA,NA,NA,NA,NA,NA,NA,NA,NA,NA,NA,NA,NA,NA,NA,NA,NA,NA,NA,NA
SUPAMT54803,3JPSL1DZ5YYD5GK8B5V5QH06B3EANR,816757B5-663F-45D5-BA69-385AA315351B,2023-09-27_08h10.13.913,WP_VExplicitOC_LH,2022.2.5,Win32,15.54388037,79.94791667,3.9546,2.0459,NA,NA,NA,NA,NA,frustrated,"frustrated, not frustrated","more frustrated, less frustrated",NA,NA,NA,NA,NA,NA,NA,NA,NA,NA,NA,NA,NA,NA,NA,0,0,0,1,1,NA,NA,NA,NA,NA,NA,NA,NA,NA,NA,NA,NA,NA,NA,NA,NA,NA,NA,NA,NA,NA,NA,NA,NA,NA,NA,NA,NA
SUPAMT54803,3JPSL1DZ5YYD5GK8B5V5QH06B3EANR,816757B5-663F-45D5-BA69-385AA315351B,2023-09-27_08h10.13.913,WP_VExplicitOC_LH,2022.2.5,Win32,15.54388037,100,3.0798,2.0552,NA,NA,NA,NA,NA,happy,"unhappy, happy","less happy, more happy",NA,NA,NA,NA,NA,NA,NA,NA,NA,NA,NA,NA,NA,NA,NA,0,1,1,0,1,NA,NA,NA,NA,NA,NA,NA,NA,NA,NA,NA,NA,NA,NA,NA,NA,NA,NA,NA,NA,NA,NA,NA,NA,NA,NA,NA,NA
SUPAMT54803,3JPSL1DZ5YYD5GK8B5V5QH06B3EANR,816757B5-663F-45D5-BA69-385AA315351B,2023-09-27_08h10.13.913,WP_VExplicitOC_LH,2022.2.5,Win32,15.54388037,100,3.1078,2.0219,NA,NA,NA,NA,NA,bored,"bored, not bored","more bored, less bored",NA,NA,NA,NA,NA,NA,NA,NA,NA,NA,NA,NA,NA,NA,NA,0,2,2,2,1,NA,NA,NA,NA,NA,NA,NA,NA,NA,NA,NA,NA,NA,NA,NA,NA,NA,NA,NA,NA,NA,NA,NA,NA,NA,NA,NA,NA
SUPAMT54803,3JPSL1DZ5YYD5GK8B5V5QH06B3EANR,816757B5-663F-45D5-BA69-385AA315351B,2023-09-27_08h10.13.913,WP_VExplicitOC_LH,2022.2.5,Win32,15.54388037,NA,NA,NA,NA,NA,NA,NA,NA,NA,NA,NA,NA,NA,NA,NA,NA,NA,NA,NA,NA,NA,NA,NA,NA,NA,NA,NA,NA,NA,NA,NA,3,0,3,0,1,NA,NA,NA,NA,NA,NA,NA,NA,NA,NA,NA,NA,NA,NA,NA,NA,NA,NA,NA,NA,NA,NA,NA
SUPAMT54803,3JPSL1DZ5YYD5GK8B5V5QH06B3EANR,816757B5-663F-45D5-BA69-385AA315351B,2023-09-27_08h10.13.913,WP_VExplicitOC_LH,2022.2.5,Win32,15.54388037,74.73958333,4.409,2.0295,NA,NA,NA,NA,NA,bored,"bored, not bored","more bored, less bored",NA,NA,NA,NA,NA,NA,NA,NA,NA,NA,NA,NA,NA,NA,NA,0,0,0,2,1,NA,NA,NA,NA,NA,NA,NA,NA,NA,NA,NA,NA,NA,NA,NA,NA,NA,NA,NA,NA,NA,NA,NA,NA,NA,NA,NA,NA
SUPAMT54803,3JPSL1DZ5YYD5GK8B5V5QH06B3EANR,816757B5-663F-45D5-BA69-385AA315351B,2023-09-27_08h10.13.913,WP_VExplicitOC_LH,2022.2.5,Win32,15.54388037,73.95833333,3.1453,2.0396,NA,NA,NA,NA,NA,happy,"unhappy, happy","less happy, more happy",NA,NA,NA,NA,NA,NA,NA,NA,NA,NA,NA,NA,NA,NA,NA,0,1,1,0,1,NA,NA,NA,NA,NA,NA,NA,NA,NA,NA,NA,NA,NA,NA,NA,NA,NA,NA,NA,NA,NA,NA,NA,NA,NA,NA,NA,NA
SUPAMT54803,3JPSL1DZ5YYD5GK8B5V5QH06B3EANR,816757B5-663F-45D5-BA69-385AA315351B,2023-09-27_08h10.13.913,WP_VExplicitOC_LH,2022.2.5,Win32,15.54388037,62.23958333,4.0061,2.0003,NA,NA,NA,NA,NA,frustrated,"frustrated, not frustrated","more frustrated, less frustrated",NA,NA,NA,NA,NA,NA,NA,NA,NA,NA,NA,NA,NA,NA,NA,0,2,2,1,1,NA,NA,NA,NA,NA,NA,NA,NA,NA,NA,NA,NA,NA,NA,NA,NA,NA,NA,NA,NA,NA,NA,NA,NA,NA,NA,NA,NA
SUPAMT54803,3JPSL1DZ5YYD5GK8B5V5QH06B3EANR,816757B5-663F-45D5-BA69-385AA315351B,2023-09-27_08h10.13.913,WP_VExplicitOC_LH,2022.2.5,Win32,15.54388037,NA,NA,NA,NA,NA,NA,NA,NA,NA,NA,NA,NA,NA,NA,NA,NA,NA,NA,NA,NA,NA,NA,NA,NA,NA,NA,NA,NA,NA,NA,NA,4,0,4,0,1,NA,NA,NA,NA,NA,NA,NA,NA,NA,NA,NA,NA,NA,NA,NA,NA,NA,NA,NA,NA,NA,NA,NA
SUPAMT54803,3JPSL1DZ5YYD5GK8B5V5QH06B3EANR,816757B5-663F-45D5-BA69-385AA315351B,2023-09-27_08h10.13.913,WP_VExplicitOC_LH,2022.2.5,Win32,15.54388037,63.28125,3.637,2.0268,NA,NA,NA,NA,NA,frustrated,"frustrated, not frustrated","more frustrated, less frustrated",NA,NA,NA,NA,NA,NA,NA,NA,NA,NA,NA,NA,NA,NA,NA,0,0,0,1,1,NA,NA,NA,NA,NA,NA,NA,NA,NA,NA,NA,NA,NA,NA,NA,NA,NA,NA,NA,NA,NA,NA,NA,NA,NA,NA,NA,NA
SUPAMT54803,3JPSL1DZ5YYD5GK8B5V5QH06B3EANR,816757B5-663F-45D5-BA69-385AA315351B,2023-09-27_08h10.13.913,WP_VExplicitOC_LH,2022.2.5,Win32,15.54388037,80.98958333,3.1826,2.0203,NA,NA,NA,NA,NA,bored,"bored, not bored","more bored, less bored",NA,NA,NA,NA,NA,NA,NA,NA,NA,NA,NA,NA,NA,NA,NA,0,1,1,2,1,NA,NA,NA,NA,NA,NA,NA,NA,NA,NA,NA,NA,NA,NA,NA,NA,NA,NA,NA,NA,NA,NA,NA,NA,NA,NA,NA,NA
SUPAMT54803,3JPSL1DZ5YYD5GK8B5V5QH06B3EANR,816757B5-663F-45D5-BA69-385AA315351B,2023-09-27_08h10.13.913,WP_VExplicitOC_LH,2022.2.5,Win32,15.54388037,65.10416667,3.536,2.0305,NA,NA,NA,NA,NA,happy,"unhappy, happy","less happy, more happy",NA,NA,NA,NA,NA,NA,NA,NA,NA,NA,NA,NA,NA,NA,NA,0,2,2,0,1,NA,NA,NA,NA,NA,NA,NA,NA,NA,NA,NA,NA,NA,NA,NA,NA,NA,NA,NA,NA,NA,NA,NA,NA,NA,NA,NA,NA
SUPAMT54803,3JPSL1DZ5YYD5GK8B5V5QH06B3EANR,816757B5-663F-45D5-BA69-385AA315351B,2023-09-27_08h10.13.913,WP_VExplicitOC_LH,2022.2.5,Win32,15.54388037,NA,NA,NA,NA,NA,NA,NA,NA,NA,NA,NA,NA,NA,NA,NA,NA,NA,NA,NA,NA,NA,NA,NA,NA,NA,NA,NA,NA,NA,NA,NA,5,0,5,0,1,NA,NA,NA,NA,NA,NA,NA,NA,NA,NA,NA,NA,NA,NA,NA,NA,NA,NA,NA,NA,NA,NA,NA
SUPAMT54803,3JPSL1DZ5YYD5GK8B5V5QH06B3EANR,816757B5-663F-45D5-BA69-385AA315351B,2023-09-27_08h10.13.913,WP_VExplicitOC_LH,2022.2.5,Win32,15.54388037,56.25,3.8284,2.0741,NA,NA,NA,NA,NA,frustrated,"frustrated, not frustrated","more frustrated, less frustrated",NA,NA,NA,NA,NA,NA,NA,NA,NA,NA,NA,NA,NA,NA,NA,0,0,0,1,1,NA,NA,NA,NA,NA,NA,NA,NA,NA,NA,NA,NA,NA,NA,NA,NA,NA,NA,NA,NA,NA,NA,NA,NA,NA,NA,NA,NA
SUPAMT54803,3JPSL1DZ5YYD5GK8B5V5QH06B3EANR,816757B5-663F-45D5-BA69-385AA315351B,2023-09-27_08h10.13.913,WP_VExplicitOC_LH,2022.2.5,Win32,15.54388037,89.58333333,3.3154,2.0179,NA,NA,NA,NA,NA,bored,"bored, not bored","more bored, less bored",NA,NA,NA,NA,NA,NA,NA,NA,NA,NA,NA,NA,NA,NA,NA,0,1,1,2,1,NA,NA,NA,NA,NA,NA,NA,NA,NA,NA,NA,NA,NA,NA,NA,NA,NA,NA,NA,NA,NA,NA,NA,NA,NA,NA,NA,NA
SUPAMT54803,3JPSL1DZ5YYD5GK8B5V5QH06B3EANR,816757B5-663F-45D5-BA69-385AA315351B,2023-09-27_08h10.13.913,WP_VExplicitOC_LH,2022.2.5,Win32,15.54388037,60.41666667,3.6994,2.05,NA,NA,NA,NA,NA,happy,"unhappy, happy","less happy, more happy",NA,NA,NA,NA,NA,NA,NA,NA,NA,NA,NA,NA,NA,NA,NA,0,2,2,0,1,NA,NA,NA,NA,NA,NA,NA,NA,NA,NA,NA,NA,NA,NA,NA,NA,NA,NA,NA,NA,NA,NA,NA,NA,NA,NA,NA,NA
SUPAMT54803,3JPSL1DZ5YYD5GK8B5V5QH06B3EANR,816757B5-663F-45D5-BA69-385AA315351B,2023-09-27_08h10.13.913,WP_VExplicitOC_LH,2022.2.5,Win32,15.54388037,NA,NA,NA,NA,NA,NA,NA,NA,NA,NA,NA,NA,NA,NA,NA,NA,NA,NA,NA,NA,NA,NA,NA,NA,NA,NA,NA,NA,NA,NA,NA,6,0,6,0,1,NA,NA,NA,NA,NA,NA,NA,NA,NA,NA,NA,NA,NA,NA,NA,NA,NA,NA,NA,NA,NA,NA,NA
SUPAMT54803,3JPSL1DZ5YYD5GK8B5V5QH06B3EANR,816757B5-663F-45D5-BA69-385AA315351B,2023-09-27_08h10.13.913,WP_VExplicitOC_LH,2022.2.5,Win32,15.54388037,79.6875,4.5372,2.0206,NA,NA,NA,NA,NA,bored,"bored, not bored","more bored, less bored",NA,NA,NA,NA,NA,NA,NA,NA,NA,NA,NA,NA,NA,NA,NA,0,0,0,2,1,NA,NA,NA,NA,NA,NA,NA,NA,NA,NA,NA,NA,NA,NA,NA,NA,NA,NA,NA,NA,NA,NA,NA,NA,NA,NA,NA,NA
SUPAMT54803,3JPSL1DZ5YYD5GK8B5V5QH06B3EANR,816757B5-663F-45D5-BA69-385AA315351B,2023-09-27_08h10.13.913,WP_VExplicitOC_LH,2022.2.5,Win32,15.54388037,76.04166667,4.3713,2.0279,NA,NA,NA,NA,NA,frustrated,"frustrated, not frustrated","more frustrated, less frustrated",NA,NA,NA,NA,NA,NA,NA,NA,NA,NA,NA,NA,NA,NA,NA,0,1,1,1,1,NA,NA,NA,NA,NA,NA,NA,NA,NA,NA,NA,NA,NA,NA,NA,NA,NA,NA,NA,NA,NA,NA,NA,NA,NA,NA,NA,NA
SUPAMT54803,3JPSL1DZ5YYD5GK8B5V5QH06B3EANR,816757B5-663F-45D5-BA69-385AA315351B,2023-09-27_08h10.13.913,WP_VExplicitOC_LH,2022.2.5,Win32,15.54388037,38.02083333,3.5835,2.0094,NA,NA,NA,NA,NA,happy,"unhappy, happy","less happy, more happy",NA,NA,NA,NA,NA,NA,NA,NA,NA,NA,NA,NA,NA,NA,NA,0,2,2,0,1,NA,NA,NA,NA,NA,NA,NA,NA,NA,NA,NA,NA,NA,NA,NA,NA,NA,NA,NA,NA,NA,NA,NA,NA,NA,NA,NA,NA
SUPAMT54803,3JPSL1DZ5YYD5GK8B5V5QH06B3EANR,816757B5-663F-45D5-BA69-385AA315351B,2023-09-27_08h10.13.913,WP_VExplicitOC_LH,2022.2.5,Win32,15.54388037,NA,NA,NA,NA,NA,NA,NA,NA,NA,NA,NA,NA,NA,NA,NA,NA,NA,NA,NA,NA,NA,NA,NA,NA,NA,NA,NA,NA,NA,NA,NA,7,0,7,0,1,NA,NA,NA,NA,NA,NA,NA,NA,NA,NA,NA,NA,NA,NA,NA,NA,NA,NA,NA,NA,NA,NA,NA
SUPAMT54803,3JPSL1DZ5YYD5GK8B5V5QH06B3EANR,816757B5-663F-45D5-BA69-385AA315351B,2023-09-27_08h10.13.913,WP_VExplicitOC_LH,2022.2.5,Win32,15.54388037,64.32291667,4.1853,2.0457,NA,NA,NA,NA,NA,frustrated,"frustrated, not frustrated","more frustrated, less frustrated",NA,NA,NA,NA,NA,NA,NA,NA,NA,NA,NA,NA,NA,NA,NA,0,0,0,1,1,NA,NA,NA,NA,NA,NA,NA,NA,NA,NA,NA,NA,NA,NA,NA,NA,NA,NA,NA,NA,NA,NA,NA,NA,NA,NA,NA,NA
SUPAMT54803,3JPSL1DZ5YYD5GK8B5V5QH06B3EANR,816757B5-663F-45D5-BA69-385AA315351B,2023-09-27_08h10.13.913,WP_VExplicitOC_LH,2022.2.5,Win32,15.54388037,66.14583333,3.6319,2.0862,NA,NA,NA,NA,NA,happy,"unhappy, happy","less happy, more happy",NA,NA,NA,NA,NA,NA,NA,NA,NA,NA,NA,NA,NA,NA,NA,0,1,1,0,1,NA,NA,NA,NA,NA,NA,NA,NA,NA,NA,NA,NA,NA,NA,NA,NA,NA,NA,NA,NA,NA,NA,NA,NA,NA,NA,NA,NA
SUPAMT54803,3JPSL1DZ5YYD5GK8B5V5QH06B3EANR,816757B5-663F-45D5-BA69-385AA315351B,2023-09-27_08h10.13.913,WP_VExplicitOC_LH,2022.2.5,Win32,15.54388037,45.83333333,3.7817,2.0767,NA,NA,NA,NA,NA,bored,"bored, not bored","more bored, less bored",NA,NA,NA,NA,NA,NA,NA,NA,NA,NA,NA,NA,NA,NA,NA,0,2,2,2,1,NA,NA,NA,NA,NA,NA,NA,NA,NA,NA,NA,NA,NA,NA,NA,NA,NA,NA,NA,NA,NA,NA,NA,NA,NA,NA,NA,NA
SUPAMT54803,3JPSL1DZ5YYD5GK8B5V5QH06B3EANR,816757B5-663F-45D5-BA69-385AA315351B,2023-09-27_08h10.13.913,WP_VExplicitOC_LH,2022.2.5,Win32,15.54388037,NA,NA,NA,NA,NA,NA,NA,NA,NA,NA,NA,NA,NA,NA,NA,NA,NA,NA,NA,NA,NA,NA,NA,NA,NA,NA,NA,NA,NA,NA,NA,8,0,8,0,1,NA,NA,NA,NA,NA,NA,NA,NA,NA,NA,NA,NA,NA,NA,NA,NA,NA,NA,NA,NA,NA,NA,NA
SUPAMT54803,3JPSL1DZ5YYD5GK8B5V5QH06B3EANR,816757B5-663F-45D5-BA69-385AA315351B,2023-09-27_08h10.13.913,WP_VExplicitOC_LH,2022.2.5,Win32,15.54388037,99.47916667,6.2452,2.0187,NA,NA,NA,NA,NA,happy,"unhappy, happy","less happy, more happy",NA,NA,NA,NA,NA,NA,NA,NA,NA,NA,NA,NA,NA,NA,NA,0,0,0,0,1,NA,NA,NA,NA,NA,NA,NA,NA,NA,NA,NA,NA,NA,NA,NA,NA,NA,NA,NA,NA,NA,NA,NA,NA,NA,NA,NA,NA
SUPAMT54803,3JPSL1DZ5YYD5GK8B5V5QH06B3EANR,816757B5-663F-45D5-BA69-385AA315351B,2023-09-27_08h10.13.913,WP_VExplicitOC_LH,2022.2.5,Win32,15.54388037,59.375,3.5726,2.0026,NA,NA,NA,NA,NA,frustrated,"frustrated, not frustrated","more frustrated, less frustrated",NA,NA,NA,NA,NA,NA,NA,NA,NA,NA,NA,NA,NA,NA,NA,0,1,1,1,1,NA,NA,NA,NA,NA,NA,NA,NA,NA,NA,NA,NA,NA,NA,NA,NA,NA,NA,NA,NA,NA,NA,NA,NA,NA,NA,NA,NA
SUPAMT54803,3JPSL1DZ5YYD5GK8B5V5QH06B3EANR,816757B5-663F-45D5-BA69-385AA315351B,2023-09-27_08h10.13.913,WP_VExplicitOC_LH,2022.2.5,Win32,15.54388037,66.92708333,3.2461,2.1057,NA,NA,NA,NA,NA,bored,"bored, not bored","more bored, less bored",NA,NA,NA,NA,NA,NA,NA,NA,NA,NA,NA,NA,NA,NA,NA,0,2,2,2,1,NA,NA,NA,NA,NA,NA,NA,NA,NA,NA,NA,NA,NA,NA,NA,NA,NA,NA,NA,NA,NA,NA,NA,NA,NA,NA,NA,NA
SUPAMT54803,3JPSL1DZ5YYD5GK8B5V5QH06B3EANR,816757B5-663F-45D5-BA69-385AA315351B,2023-09-27_08h10.13.913,WP_VExplicitOC_LH,2022.2.5,Win32,15.54388037,NA,NA,NA,NA,NA,NA,NA,NA,NA,NA,NA,NA,NA,NA,NA,NA,NA,NA,NA,NA,NA,NA,NA,NA,NA,NA,NA,NA,NA,NA,NA,9,0,9,0,1,NA,NA,NA,NA,NA,NA,NA,NA,NA,NA,NA,NA,NA,NA,NA,NA,NA,NA,NA,NA,NA,NA,NA
SUPAMT54803,3JPSL1DZ5YYD5GK8B5V5QH06B3EANR,816757B5-663F-45D5-BA69-385AA315351B,2023-09-27_08h10.13.913,WP_VExplicitOC_LH,2022.2.5,Win32,15.54388037,53.38541667,4.5961,2.0279,NA,NA,NA,NA,NA,happy,"unhappy, happy","less happy, more happy",NA,NA,NA,NA,NA,NA,NA,NA,NA,NA,NA,NA,NA,NA,NA,0,0,0,0,1,NA,NA,NA,NA,NA,NA,NA,NA,NA,NA,NA,NA,NA,NA,NA,NA,NA,NA,NA,NA,NA,NA,NA,NA,NA,NA,NA,NA
SUPAMT54803,3JPSL1DZ5YYD5GK8B5V5QH06B3EANR,816757B5-663F-45D5-BA69-385AA315351B,2023-09-27_08h10.13.913,WP_VExplicitOC_LH,2022.2.5,Win32,15.54388037,76.5625,3.0545,2.026,NA,NA,NA,NA,NA,bored,"bored, not bored","more bored, less bored",NA,NA,NA,NA,NA,NA,NA,NA,NA,NA,NA,NA,NA,NA,NA,0,1,1,2,1,NA,NA,NA,NA,NA,NA,NA,NA,NA,NA,NA,NA,NA,NA,NA,NA,NA,NA,NA,NA,NA,NA,NA,NA,NA,NA,NA,NA
SUPAMT54803,3JPSL1DZ5YYD5GK8B5V5QH06B3EANR,816757B5-663F-45D5-BA69-385AA315351B,2023-09-27_08h10.13.913,WP_VExplicitOC_LH,2022.2.5,Win32,15.54388037,44.53125,3.5041,2.0329,NA,NA,NA,NA,NA,frustrated,"frustrated, not frustrated","more frustrated, less frustrated",NA,NA,NA,NA,NA,NA,NA,NA,NA,NA,NA,NA,NA,NA,NA,0,2,2,1,1,NA,NA,NA,NA,NA,NA,NA,NA,NA,NA,NA,NA,NA,NA,NA,NA,NA,NA,NA,NA,NA,NA,NA,NA,NA,NA,NA,NA
SUPAMT54803,3JPSL1DZ5YYD5GK8B5V5QH06B3EANR,816757B5-663F-45D5-BA69-385AA315351B,2023-09-27_08h10.13.913,WP_VExplicitOC_LH,2022.2.5,Win32,15.54388037,NA,NA,NA,NA,NA,NA,NA,NA,NA,NA,NA,NA,NA,NA,NA,NA,NA,NA,NA,NA,NA,NA,NA,NA,NA,NA,NA,NA,NA,NA,NA,10,0,10,0,1,NA,NA,NA,NA,NA,NA,NA,NA,NA,NA,NA,NA,NA,NA,NA,NA,NA,NA,NA,NA,NA,NA,NA
SUPAMT54803,3JPSL1DZ5YYD5GK8B5V5QH06B3EANR,816757B5-663F-45D5-BA69-385AA315351B,2023-09-27_08h10.13.913,WP_VExplicitOC_LH,2022.2.5,Win32,15.54388037,68.22916667,3.3939,2.0068,NA,NA,NA,NA,NA,bored,"bored, not bored","more bored, less bored",NA,NA,NA,NA,NA,NA,NA,NA,NA,NA,NA,NA,NA,NA,NA,0,0,0,2,1,NA,NA,NA,NA,NA,NA,NA,NA,NA,NA,NA,NA,NA,NA,NA,NA,NA,NA,NA,NA,NA,NA,NA,NA,NA,NA,NA,NA
SUPAMT54803,3JPSL1DZ5YYD5GK8B5V5QH06B3EANR,816757B5-663F-45D5-BA69-385AA315351B,2023-09-27_08h10.13.913,WP_VExplicitOC_LH,2022.2.5,Win32,15.54388037,62.76041667,3.5062,2.0283,NA,NA,NA,NA,NA,happy,"unhappy, happy","less happy, more happy",NA,NA,NA,NA,NA,NA,NA,NA,NA,NA,NA,NA,NA,NA,NA,0,1,1,0,1,NA,NA,NA,NA,NA,NA,NA,NA,NA,NA,NA,NA,NA,NA,NA,NA,NA,NA,NA,NA,NA,NA,NA,NA,NA,NA,NA,NA
SUPAMT54803,3JPSL1DZ5YYD5GK8B5V5QH06B3EANR,816757B5-663F-45D5-BA69-385AA315351B,2023-09-27_08h10.13.913,WP_VExplicitOC_LH,2022.2.5,Win32,15.54388037,52.08333333,3.6004,2.0691,NA,NA,NA,NA,NA,frustrated,"frustrated, not frustrated","more frustrated, less frustrated",NA,NA,NA,NA,NA,NA,NA,NA,NA,NA,NA,NA,NA,NA,NA,0,2,2,1,1,NA,NA,NA,NA,NA,NA,NA,NA,NA,NA,NA,NA,NA,NA,NA,NA,NA,NA,NA,NA,NA,NA,NA,NA,NA,NA,NA,NA
SUPAMT54803,3JPSL1DZ5YYD5GK8B5V5QH06B3EANR,816757B5-663F-45D5-BA69-385AA315351B,2023-09-27_08h10.13.913,WP_VExplicitOC_LH,2022.2.5,Win32,15.54388037,NA,NA,NA,NA,NA,NA,NA,NA,NA,NA,NA,NA,NA,NA,NA,NA,NA,NA,NA,NA,NA,NA,NA,NA,NA,NA,NA,NA,NA,NA,NA,11,0,11,0,1,NA,NA,NA,NA,NA,NA,NA,NA,NA,NA,NA,NA,NA,NA,NA,NA,NA,NA,NA,NA,NA,NA,NA
SUPAMT54803,3JPSL1DZ5YYD5GK8B5V5QH06B3EANR,816757B5-663F-45D5-BA69-385AA315351B,2023-09-27_08h10.13.913,WP_VExplicitOC_LH,2022.2.5,Win32,15.54388037,58.85416667,4.3784,2.0535,NA,NA,NA,NA,NA,bored,"bored, not bored","more bored, less bored",NA,NA,NA,NA,NA,NA,NA,NA,NA,NA,NA,NA,NA,NA,NA,0,0,0,2,1,NA,NA,NA,NA,NA,NA,NA,NA,NA,NA,NA,NA,NA,NA,NA,NA,NA,NA,NA,NA,NA,NA,NA,NA,NA,NA,NA,NA
SUPAMT54803,3JPSL1DZ5YYD5GK8B5V5QH06B3EANR,816757B5-663F-45D5-BA69-385AA315351B,2023-09-27_08h10.13.913,WP_VExplicitOC_LH,2022.2.5,Win32,15.54388037,48.4375,4.6788,2.0769,NA,NA,NA,NA,NA,happy,"unhappy, happy","less happy, more happy",NA,NA,NA,NA,NA,NA,NA,NA,NA,NA,NA,NA,NA,NA,NA,0,1,1,0,1,NA,NA,NA,NA,NA,NA,NA,NA,NA,NA,NA,NA,NA,NA,NA,NA,NA,NA,NA,NA,NA,NA,NA,NA,NA,NA,NA,NA
SUPAMT54803,3JPSL1DZ5YYD5GK8B5V5QH06B3EANR,816757B5-663F-45D5-BA69-385AA315351B,2023-09-27_08h10.13.913,WP_VExplicitOC_LH,2022.2.5,Win32,15.54388037,58.07291667,4.0732,2.06,NA,NA,NA,NA,NA,frustrated,"frustrated, not frustrated","more frustrated, less frustrated",NA,NA,NA,NA,NA,NA,NA,NA,NA,NA,NA,NA,NA,NA,NA,0,2,2,1,1,NA,NA,NA,NA,NA,NA,NA,NA,NA,NA,NA,NA,NA,NA,NA,NA,NA,NA,NA,NA,NA,NA,NA,NA,NA,NA,NA,NA
SUPAMT54803,3JPSL1DZ5YYD5GK8B5V5QH06B3EANR,816757B5-663F-45D5-BA69-385AA315351B,2023-09-27_08h10.13.913,WP_VExplicitOC_LH,2022.2.5,Win32,15.54388037,NA,NA,NA,NA,NA,NA,NA,NA,NA,NA,NA,NA,NA,NA,NA,NA,NA,NA,NA,NA,NA,NA,NA,NA,NA,NA,NA,NA,NA,NA,NA,12,0,12,0,1,NA,NA,NA,NA,NA,NA,NA,NA,NA,NA,NA,NA,NA,NA,NA,NA,NA,NA,NA,NA,NA,NA,NA
SUPAMT54803,3JPSL1DZ5YYD5GK8B5V5QH06B3EANR,816757B5-663F-45D5-BA69-385AA315351B,2023-09-27_08h10.13.913,WP_VExplicitOC_LH,2022.2.5,Win32,15.54388037,NA,NA,2.0493,NA,NA,NA,NA,NA,happy,"unhappy, happy","less happy, more happy",NA,NA,NA,NA,NA,NA,NA,NA,NA,NA,NA,NA,NA,NA,NA,0,0,0,0,1,NA,NA,NA,NA,NA,NA,NA,NA,NA,NA,NA,NA,NA,NA,NA,NA,NA,NA,NA,NA,NA,NA,NA,NA,NA,NA,NA,NA
SUPAMT54803,3JPSL1DZ5YYD5GK8B5V5QH06B3EANR,816757B5-663F-45D5-BA69-385AA315351B,2023-09-27_08h10.13.913,WP_VExplicitOC_LH,2022.2.5,Win32,15.54388037,67.1875,3.4152,2.0312,NA,NA,NA,NA,NA,bored,"bored, not bored","more bored, less bored",NA,NA,NA,NA,NA,NA,NA,NA,NA,NA,NA,NA,NA,NA,NA,0,1,1,2,1,NA,NA,NA,NA,NA,NA,NA,NA,NA,NA,NA,NA,NA,NA,NA,NA,NA,NA,NA,NA,NA,NA,NA,NA,NA,NA,NA,NA
SUPAMT54803,3JPSL1DZ5YYD5GK8B5V5QH06B3EANR,816757B5-663F-45D5-BA69-385AA315351B,2023-09-27_08h10.13.913,WP_VExplicitOC_LH,2022.2.5,Win32,15.54388037,54.42708333,4.0626,2.0419,NA,NA,NA,NA,NA,frustrated,"frustrated, not frustrated","more frustrated, less frustrated",NA,NA,NA,NA,NA,NA,NA,NA,NA,NA,NA,NA,NA,NA,NA,0,2,2,1,1,NA,NA,NA,NA,NA,NA,NA,NA,NA,NA,NA,NA,NA,NA,NA,NA,NA,NA,NA,NA,NA,NA,NA,NA,NA,NA,NA,NA
SUPAMT54803,3JPSL1DZ5YYD5GK8B5V5QH06B3EANR,816757B5-663F-45D5-BA69-385AA315351B,2023-09-27_08h10.13.913,WP_VExplicitOC_LH,2022.2.5,Win32,15.54388037,NA,NA,NA,NA,NA,NA,NA,NA,NA,NA,NA,NA,NA,NA,NA,NA,NA,NA,NA,NA,NA,NA,NA,NA,NA,NA,NA,NA,NA,NA,NA,13,0,13,0,1,NA,NA,NA,NA,NA,NA,NA,NA,NA,NA,NA,NA,NA,NA,NA,NA,NA,NA,NA,NA,NA,NA,NA
SUPAMT54803,3JPSL1DZ5YYD5GK8B5V5QH06B3EANR,816757B5-663F-45D5-BA69-385AA315351B,2023-09-27_08h10.13.913,WP_VExplicitOC_LH,2022.2.5,Win32,15.54388037,56.25,3.5842,2.048,NA,NA,NA,NA,NA,happy,"unhappy, happy","less happy, more happy",NA,NA,NA,NA,NA,NA,NA,NA,NA,NA,NA,NA,NA,NA,NA,0,0,0,0,1,NA,NA,NA,NA,NA,NA,NA,NA,NA,NA,NA,NA,NA,NA,NA,NA,NA,NA,NA,NA,NA,NA,NA,NA,NA,NA,NA,NA
SUPAMT54803,3JPSL1DZ5YYD5GK8B5V5QH06B3EANR,816757B5-663F-45D5-BA69-385AA315351B,2023-09-27_08h10.13.913,WP_VExplicitOC_LH,2022.2.5,Win32,15.54388037,74.21875,3.0577,2.0377,NA,NA,NA,NA,NA,frustrated,"frustrated, not frustrated","more frustrated, less frustrated",NA,NA,NA,NA,NA,NA,NA,NA,NA,NA,NA,NA,NA,NA,NA,0,1,1,1,1,NA,NA,NA,NA,NA,NA,NA,NA,NA,NA,NA,NA,NA,NA,NA,NA,NA,NA,NA,NA,NA,NA,NA,NA,NA,NA,NA,NA
SUPAMT54803,3JPSL1DZ5YYD5GK8B5V5QH06B3EANR,816757B5-663F-45D5-BA69-385AA315351B,2023-09-27_08h10.13.913,WP_VExplicitOC_LH,2022.2.5,Win32,15.54388037,NA,NA,2.0016,NA,NA,NA,NA,NA,bored,"bored, not bored","more bored, less bored",NA,NA,NA,NA,NA,NA,NA,NA,NA,NA,NA,NA,NA,NA,NA,0,2,2,2,1,NA,NA,NA,NA,NA,NA,NA,NA,NA,NA,NA,NA,NA,NA,NA,NA,NA,NA,NA,NA,NA,NA,NA,NA,NA,NA,NA,NA
SUPAMT54803,3JPSL1DZ5YYD5GK8B5V5QH06B3EANR,816757B5-663F-45D5-BA69-385AA315351B,2023-09-27_08h10.13.913,WP_VExplicitOC_LH,2022.2.5,Win32,15.54388037,NA,NA,NA,NA,NA,NA,NA,NA,NA,NA,NA,NA,NA,NA,NA,NA,NA,NA,NA,NA,NA,NA,NA,NA,NA,NA,NA,NA,NA,NA,NA,14,0,14,0,1,NA,NA,NA,NA,NA,NA,NA,NA,NA,NA,NA,NA,NA,NA,NA,NA,NA,NA,NA,NA,NA,NA,NA
SUPAMT54803,3JPSL1DZ5YYD5GK8B5V5QH06B3EANR,816757B5-663F-45D5-BA69-385AA315351B,2023-09-27_08h10.13.913,WP_VExplicitOC_LH,2022.2.5,Win32,15.54388037,NA,NA,NA,NA,NA,NA,NA,NA,NA,NA,NA,NA,NA,NA,NA,NA,NA,NA,NA,NA,NA,NA,NA,NA,NA,NA,NA,NA,NA,NA,NA,NA,NA,NA,NA,NA,NA,NA,NA,NA,NA,NA,NA,NA,NA,NA,NA,NA,NA,NA,NA,NA,NA,NA,NA,NA,NA,NA,NA
SUPAMT54803,3JPSL1DZ5YYD5GK8B5V5QH06B3EANR,816757B5-663F-45D5-BA69-385AA315351B,2023-09-27_08h10.13.913,WP_VExplicitOC_LH,2022.2.5,Win32,15.54388037,NA,NA,NA,NA,NA,NA,NA,NA,NA,NA,NA,NA,NA,NA,NA,NA,NA,NA,NA,NA,NA,NA,NA,NA,NA,NA,NA,NA,NA,NA,NA,NA,NA,NA,NA,NA,NA,NA,NA,NA,NA,NA,NA,NA,NA,NA,NA,NA,NA,NA,NA,NA,NA,NA,NA,NA,NA,NA,NA
SUPAMT54803,3JPSL1DZ5YYD5GK8B5V5QH06B3EANR,816757B5-663F-45D5-BA69-385AA315351B,2023-09-27_08h10.13.913,WP_VExplicitOC_LH,2022.2.5,Win32,15.54388037,NA,NA,NA,NA,NA,NA,NA,NA,NA,NA,NA,NA,NA,NA,NA,NA,NA,NA,rest (looking at a fixed cross),001.png,NA,NA,NA,NA,NA,NA,NA,NA,NA,NA,NA,NA,NA,NA,NA,NA,63.02083333,1.7791,0,0,0,0,1,NA,NA,NA,NA,NA,NA,NA,NA,NA,NA,NA,NA,NA,NA,NA,NA
SUPAMT54803,3JPSL1DZ5YYD5GK8B5V5QH06B3EANR,816757B5-663F-45D5-BA69-385AA315351B,2023-09-27_08h10.13.913,WP_VExplicitOC_LH,2022.2.5,Win32,15.54388037,NA,NA,NA,NA,NA,NA,NA,NA,NA,NA,NA,NA,NA,NA,NA,NA,NA,NA,stand up,002.png,NA,NA,NA,NA,NA,NA,NA,NA,NA,NA,NA,NA,NA,NA,NA,NA,58.59375,1.4078,0,1,1,1,1,NA,NA,NA,NA,NA,NA,NA,NA,NA,NA,NA,NA,NA,NA,NA,NA
SUPAMT54803,3JPSL1DZ5YYD5GK8B5V5QH06B3EANR,816757B5-663F-45D5-BA69-385AA315351B,2023-09-27_08h10.13.913,WP_VExplicitOC_LH,2022.2.5,Win32,15.54388037,NA,NA,NA,NA,NA,NA,NA,NA,NA,NA,NA,NA,NA,NA,NA,NA,NA,NA,stretch,003.png,NA,NA,NA,NA,NA,NA,NA,NA,NA,NA,NA,NA,NA,NA,NA,NA,89.32291667,1.2402,0,2,2,2,1,NA,NA,NA,NA,NA,NA,NA,NA,NA,NA,NA,NA,NA,NA,NA,NA
SUPAMT54803,3JPSL1DZ5YYD5GK8B5V5QH06B3EANR,816757B5-663F-45D5-BA69-385AA315351B,2023-09-27_08h10.13.913,WP_VExplicitOC_LH,2022.2.5,Win32,15.54388037,NA,NA,NA,NA,NA,NA,NA,NA,NA,NA,NA,NA,NA,NA,NA,NA,NA,NA,make a drink,004.png,NA,NA,NA,NA,NA,NA,NA,NA,NA,NA,NA,NA,NA,NA,NA,NA,70.3125,1.2812,0,3,3,3,1,NA,NA,NA,NA,NA,NA,NA,NA,NA,NA,NA,NA,NA,NA,NA,NA
SUPAMT54803,3JPSL1DZ5YYD5GK8B5V5QH06B3EANR,816757B5-663F-45D5-BA69-385AA315351B,2023-09-27_08h10.13.913,WP_VExplicitOC_LH,2022.2.5,Win32,15.54388037,NA,NA,NA,NA,NA,NA,NA,NA,NA,NA,NA,NA,NA,NA,NA,NA,NA,NA,scroll social media,005.png,NA,NA,NA,NA,NA,NA,NA,NA,NA,NA,NA,NA,NA,NA,NA,NA,56.25,1.399,0,4,4,4,1,NA,NA,NA,NA,NA,NA,NA,NA,NA,NA,NA,NA,NA,NA,NA,NA
SUPAMT54803,3JPSL1DZ5YYD5GK8B5V5QH06B3EANR,816757B5-663F-45D5-BA69-385AA315351B,2023-09-27_08h10.13.913,WP_VExplicitOC_LH,2022.2.5,Win32,15.54388037,NA,NA,NA,NA,NA,NA,NA,NA,NA,NA,NA,NA,NA,NA,NA,NA,NA,NA,listen to music,006.png,NA,NA,NA,NA,NA,NA,NA,NA,NA,NA,NA,NA,NA,NA,NA,NA,42.96875,6.2149,0,5,5,5,1,NA,NA,NA,NA,NA,NA,NA,NA,NA,NA,NA,NA,NA,NA,NA,NA
SUPAMT54803,3JPSL1DZ5YYD5GK8B5V5QH06B3EANR,816757B5-663F-45D5-BA69-385AA315351B,2023-09-27_08h10.13.913,WP_VExplicitOC_LH,2022.2.5,Win32,15.54388037,NA,NA,NA,NA,NA,NA,NA,NA,NA,NA,NA,NA,NA,NA,NA,NA,NA,NA,daydream,007.png,NA,NA,NA,NA,NA,NA,NA,NA,NA,NA,NA,NA,NA,NA,NA,NA,92.1875,3.4131,0,6,6,6,1,NA,NA,NA,NA,NA,NA,NA,NA,NA,NA,NA,NA,NA,NA,NA,NA
SUPAMT54803,3JPSL1DZ5YYD5GK8B5V5QH06B3EANR,816757B5-663F-45D5-BA69-385AA315351B,2023-09-27_08h10.13.913,WP_VExplicitOC_LH,2022.2.5,Win32,15.54388037,NA,NA,NA,NA,NA,NA,NA,NA,NA,NA,NA,NA,NA,NA,NA,NA,NA,NA,watch a short animation,008.png,NA,NA,NA,NA,NA,NA,NA,NA,NA,NA,NA,NA,NA,NA,NA,NA,69.79166667,2.8681,0,7,7,7,1,NA,NA,NA,NA,NA,NA,NA,NA,NA,NA,NA,NA,NA,NA,NA,NA
SUPAMT54803,3JPSL1DZ5YYD5GK8B5V5QH06B3EANR,816757B5-663F-45D5-BA69-385AA315351B,2023-09-27_08h10.13.913,WP_VExplicitOC_LH,2022.2.5,Win32,15.54388037,NA,NA,NA,NA,NA,NA,NA,NA,NA,NA,NA,NA,NA,NA,NA,NA,NA,NA,read a novel,009.png,NA,NA,NA,NA,NA,NA,NA,NA,NA,NA,NA,NA,NA,NA,NA,NA,100,2.6031,0,8,8,8,1,NA,NA,NA,NA,NA,NA,NA,NA,NA,NA,NA,NA,NA,NA,NA,NA
SUPAMT54803,3JPSL1DZ5YYD5GK8B5V5QH06B3EANR,816757B5-663F-45D5-BA69-385AA315351B,2023-09-27_08h10.13.913,WP_VExplicitOC_LH,2022.2.5,Win32,15.54388037,NA,NA,NA,NA,NA,NA,NA,NA,NA,NA,NA,NA,NA,NA,NA,NA,NA,NA,read the news,010.png,NA,NA,NA,NA,NA,NA,NA,NA,NA,NA,NA,NA,NA,NA,NA,NA,60.67708333,4.5504,0,9,9,9,1,NA,NA,NA,NA,NA,NA,NA,NA,NA,NA,NA,NA,NA,NA,NA,NA
SUPAMT54803,3JPSL1DZ5YYD5GK8B5V5QH06B3EANR,816757B5-663F-45D5-BA69-385AA315351B,2023-09-27_08h10.13.913,WP_VExplicitOC_LH,2022.2.5,Win32,15.54388037,NA,NA,NA,NA,NA,NA,NA,NA,NA,NA,NA,NA,NA,NA,NA,NA,NA,NA,NA,NA,NA,NA,NA,NA,NA,NA,NA,NA,NA,NA,NA,NA,NA,NA,NA,NA,NA,NA,NA,NA,NA,NA,NA,read a novel,NA,NA,NA,NA,NA,NA,NA,NA,NA,NA,NA,NA,NA,NA,NA
SUPAMT54803,3JPSL1DZ5YYD5GK8B5V5QH06B3EANR,816757B5-663F-45D5-BA69-385AA315351B,2023-09-27_08h10.13.913,WP_VExplicitOC_LH,2022.2.5,Win32,15.54388037,48.95833333,4.1498,2.0349,NA,NA,NA,NA,NA,happy,"unhappy, happy","less happy, more happy",NA,NA,NA,NA,NA,NA,NA,NA,NA,NA,NA,NA,NA,NA,NA,NA,NA,NA,NA,NA,NA,NA,NA,NA,NA,NA,NA,NA,NA,NA,NA,NA,NA,0,0,0,0,1,NA,NA,NA,NA,NA,NA,NA,NA,NA,NA
SUPAMT54803,3JPSL1DZ5YYD5GK8B5V5QH06B3EANR,816757B5-663F-45D5-BA69-385AA315351B,2023-09-27_08h10.13.913,WP_VExplicitOC_LH,2022.2.5,Win32,15.54388037,52.34375,5.1381,2.0889,NA,NA,NA,NA,NA,frustrated,"frustrated, not frustrated","more frustrated, less frustrated",NA,NA,NA,NA,NA,NA,NA,NA,NA,NA,NA,NA,NA,NA,NA,NA,NA,NA,NA,NA,NA,NA,NA,NA,NA,NA,NA,NA,NA,NA,NA,NA,NA,0,1,1,1,1,NA,NA,NA,NA,NA,NA,NA,NA,NA,NA
SUPAMT54803,3JPSL1DZ5YYD5GK8B5V5QH06B3EANR,816757B5-663F-45D5-BA69-385AA315351B,2023-09-27_08h10.13.913,WP_VExplicitOC_LH,2022.2.5,Win32,15.54388037,47.13541667,3.7079,2.0827,NA,NA,NA,NA,NA,bored,"bored, not bored","more bored, less bored",NA,NA,NA,NA,NA,NA,NA,NA,NA,NA,NA,NA,NA,NA,NA,NA,NA,NA,NA,NA,NA,NA,NA,NA,NA,NA,NA,NA,NA,NA,NA,NA,NA,0,2,2,2,1,NA,NA,NA,NA,NA,NA,NA,NA,NA,NA
SUPAMT54803,3JPSL1DZ5YYD5GK8B5V5QH06B3EANR,816757B5-663F-45D5-BA69-385AA315351B,2023-09-27_08h10.13.913,WP_VExplicitOC_LH,2022.2.5,Win32,15.54388037,NA,NA,NA,NA,NA,NA,NA,NA,NA,NA,NA,NA,NA,NA,NA,NA,NA,NA,NA,NA,NA,NA,NA,NA,NA,NA,NA,NA,NA,NA,NA,NA,NA,NA,NA,NA,NA,NA,NA,NA,NA,NA,NA,NA,NA,NA,NA,NA,NA,NA,NA,NA,NA,NA,NA,NA,NA,NA,NA
SUPAMT54803,3JPSL1DZ5YYD5GK8B5V5QH06B3EANR,816757B5-663F-45D5-BA69-385AA315351B,2023-09-27_08h10.13.913,WP_VExplicitOC_LH,2022.2.5,Win32,15.54388037,NA,NA,NA,NA,NA,NA,NA,NA,NA,NA,NA,NA,NA,NA,NA,NA,NA,NA,NA,NA,NA,NA,NA,NA,NA,NA,NA,NA,NA,NA,NA,NA,NA,NA,NA,NA,NA,NA,NA,NA,NA,NA,NA,NA,NA,NA,NA,NA,NA,NA,NA,NA,NA,NA,NA,NA,NA,NA,NA
SUPAMT54803,3JPSL1DZ5YYD5GK8B5V5QH06B3EANR,816757B5-663F-45D5-BA69-385AA315351B,2023-09-27_08h10.13.913,WP_VExplicitOC_LH,2022.2.5,Win32,15.54388037,58.85416667,4.9471,2.0795,NA,NA,NA,NA,NA,happy,"unhappy, happy","less happy, more happy",NA,NA,NA,NA,NA,NA,NA,NA,NA,NA,NA,NA,NA,NA,NA,NA,NA,NA,NA,NA,NA,NA,NA,NA,NA,NA,NA,NA,NA,NA,NA,NA,NA,NA,NA,NA,NA,NA,0,0,0,0,1,NA,NA,NA,NA,NA
SUPAMT54803,3JPSL1DZ5YYD5GK8B5V5QH06B3EANR,816757B5-663F-45D5-BA69-385AA315351B,2023-09-27_08h10.13.913,WP_VExplicitOC_LH,2022.2.5,Win32,15.54388037,49.47916667,3.2714,2.11,NA,NA,NA,NA,NA,frustrated,"frustrated, not frustrated","more frustrated, less frustrated",NA,NA,NA,NA,NA,NA,NA,NA,NA,NA,NA,NA,NA,NA,NA,NA,NA,NA,NA,NA,NA,NA,NA,NA,NA,NA,NA,NA,NA,NA,NA,NA,NA,NA,NA,NA,NA,NA,0,1,1,1,1,NA,NA,NA,NA,NA
SUPAMT54803,3JPSL1DZ5YYD5GK8B5V5QH06B3EANR,816757B5-663F-45D5-BA69-385AA315351B,2023-09-27_08h10.13.913,WP_VExplicitOC_LH,2022.2.5,Win32,15.54388037,53.38541667,4.3594,2.0664,NA,NA,NA,NA,NA,bored,"bored, not bored","more bored, less bored",NA,NA,NA,NA,NA,NA,NA,NA,NA,NA,NA,NA,NA,NA,NA,NA,NA,NA,NA,NA,NA,NA,NA,NA,NA,NA,NA,NA,NA,NA,NA,NA,NA,NA,NA,NA,NA,NA,0,2,2,2,1,NA,NA,NA,NA,NA
SUPAMT54803,3JPSL1DZ5YYD5GK8B5V5QH06B3EANR,816757B5-663F-45D5-BA69-385AA315351B,2023-09-27_08h10.13.913,WP_VExplicitOC_LH,2022.2.5,Win32,15.54388037,NA,NA,NA,NA,NA,NA,NA,NA,NA,NA,NA,NA,NA,NA,NA,NA,NA,NA,NA,NA,NA,NA,NA,NA,NA,NA,NA,NA,NA,NA,NA,NA,NA,NA,NA,NA,NA,NA,NA,NA,NA,NA,NA,NA,NA,NA,NA,NA,NA,NA,NA,NA,NA,NA,0,0,0,0,1
SUPAMT54803,3JPSL1DZ5YYD5GK8B5V5QH06B3EANR,816757B5-663F-45D5-BA69-385AA315351B,2023-09-27_08h10.13.913,WP_VExplicitOC_LH,2022.2.5,Win32,15.54388037,NA,NA,2.0191,NA,NA,NA,NA,NA,bored,"bored, not bored","more bored, less bored",NA,NA,NA,NA,NA,NA,NA,NA,NA,NA,NA,NA,NA,NA,NA,NA,NA,NA,NA,NA,NA,NA,NA,NA,NA,NA,NA,NA,NA,NA,NA,NA,NA,NA,NA,NA,NA,NA,0,0,0,2,1,NA,NA,NA,NA,NA
SUPAMT54803,3JPSL1DZ5YYD5GK8B5V5QH06B3EANR,816757B5-663F-45D5-BA69-385AA315351B,2023-09-27_08h10.13.913,WP_VExplicitOC_LH,2022.2.5,Win32,15.54388037,89.0625,4.2615,2.0648,NA,NA,NA,NA,NA,happy,"unhappy, happy","less happy, more happy",NA,NA,NA,NA,NA,NA,NA,NA,NA,NA,NA,NA,NA,NA,NA,NA,NA,NA,NA,NA,NA,NA,NA,NA,NA,NA,NA,NA,NA,NA,NA,NA,NA,NA,NA,NA,NA,NA,0,1,1,0,1,NA,NA,NA,NA,NA
SUPAMT54803,3JPSL1DZ5YYD5GK8B5V5QH06B3EANR,816757B5-663F-45D5-BA69-385AA315351B,2023-09-27_08h10.13.913,WP_VExplicitOC_LH,2022.2.5,Win32,15.54388037,58.33333333,4.0678,2.1095,NA,NA,NA,NA,NA,frustrated,"frustrated, not frustrated","more frustrated, less frustrated",NA,NA,NA,NA,NA,NA,NA,NA,NA,NA,NA,NA,NA,NA,NA,NA,NA,NA,NA,NA,NA,NA,NA,NA,NA,NA,NA,NA,NA,NA,NA,NA,NA,NA,NA,NA,NA,NA,0,2,2,1,1,NA,NA,NA,NA,NA
SUPAMT54803,3JPSL1DZ5YYD5GK8B5V5QH06B3EANR,816757B5-663F-45D5-BA69-385AA315351B,2023-09-27_08h10.13.913,WP_VExplicitOC_LH,2022.2.5,Win32,15.54388037,NA,NA,NA,NA,NA,NA,NA,NA,NA,NA,NA,NA,NA,NA,NA,NA,NA,NA,NA,NA,NA,NA,NA,NA,NA,NA,NA,NA,NA,NA,NA,NA,NA,NA,NA,NA,NA,NA,NA,NA,NA,NA,NA,NA,NA,NA,NA,NA,NA,NA,NA,NA,NA,NA,1,0,1,0,1
SUPAMT54803,3JPSL1DZ5YYD5GK8B5V5QH06B3EANR,816757B5-663F-45D5-BA69-385AA315351B,2023-09-27_08h10.13.913,WP_VExplicitOC_LH,2022.2.5,Win32,15.54388037,53.125,5.122,2.0123,NA,NA,NA,NA,NA,happy,"unhappy, happy","less happy, more happy",NA,NA,NA,NA,NA,NA,NA,NA,NA,NA,NA,NA,NA,NA,NA,NA,NA,NA,NA,NA,NA,NA,NA,NA,NA,NA,NA,NA,NA,NA,NA,NA,NA,NA,NA,NA,NA,NA,0,0,0,0,1,NA,NA,NA,NA,NA
SUPAMT54803,3JPSL1DZ5YYD5GK8B5V5QH06B3EANR,816757B5-663F-45D5-BA69-385AA315351B,2023-09-27_08h10.13.913,WP_VExplicitOC_LH,2022.2.5,Win32,15.54388037,73.95833333,4.2877,2.0072,NA,NA,NA,NA,NA,bored,"bored, not bored","more bored, less bored",NA,NA,NA,NA,NA,NA,NA,NA,NA,NA,NA,NA,NA,NA,NA,NA,NA,NA,NA,NA,NA,NA,NA,NA,NA,NA,NA,NA,NA,NA,NA,NA,NA,NA,NA,NA,NA,NA,0,1,1,2,1,NA,NA,NA,NA,NA
SUPAMT54803,3JPSL1DZ5YYD5GK8B5V5QH06B3EANR,816757B5-663F-45D5-BA69-385AA315351B,2023-09-27_08h10.13.913,WP_VExplicitOC_LH,2022.2.5,Win32,15.54388037,65.625,3.2224,2.0534,NA,NA,NA,NA,NA,frustrated,"frustrated, not frustrated","more frustrated, less frustrated",NA,NA,NA,NA,NA,NA,NA,NA,NA,NA,NA,NA,NA,NA,NA,NA,NA,NA,NA,NA,NA,NA,NA,NA,NA,NA,NA,NA,NA,NA,NA,NA,NA,NA,NA,NA,NA,NA,0,2,2,1,1,NA,NA,NA,NA,NA
SUPAMT54803,3JPSL1DZ5YYD5GK8B5V5QH06B3EANR,816757B5-663F-45D5-BA69-385AA315351B,2023-09-27_08h10.13.913,WP_VExplicitOC_LH,2022.2.5,Win32,15.54388037,NA,NA,NA,NA,NA,NA,NA,NA,NA,NA,NA,NA,NA,NA,NA,NA,NA,NA,NA,NA,NA,NA,NA,NA,NA,NA,NA,NA,NA,NA,NA,NA,NA,NA,NA,NA,NA,NA,NA,NA,NA,NA,NA,NA,NA,NA,NA,NA,NA,NA,NA,NA,NA,NA,2,0,2,0,1
SUPAMT54803,3JPSL1DZ5YYD5GK8B5V5QH06B3EANR,816757B5-663F-45D5-BA69-385AA315351B,2023-09-27_08h10.13.913,WP_VExplicitOC_LH,2022.2.5,Win32,15.54388037,82.29166667,4.6187,2.1097,NA,NA,NA,NA,NA,bored,"bored, not bored","more bored, less bored",NA,NA,NA,NA,NA,NA,NA,NA,NA,NA,NA,NA,NA,NA,NA,NA,NA,NA,NA,NA,NA,NA,NA,NA,NA,NA,NA,NA,NA,NA,NA,NA,NA,NA,NA,NA,NA,NA,0,0,0,2,1,NA,NA,NA,NA,NA
SUPAMT54803,3JPSL1DZ5YYD5GK8B5V5QH06B3EANR,816757B5-663F-45D5-BA69-385AA315351B,2023-09-27_08h10.13.913,WP_VExplicitOC_LH,2022.2.5,Win32,15.54388037,75.78125,3.2125,2.0123,NA,NA,NA,NA,NA,frustrated,"frustrated, not frustrated","more frustrated, less frustrated",NA,NA,NA,NA,NA,NA,NA,NA,NA,NA,NA,NA,NA,NA,NA,NA,NA,NA,NA,NA,NA,NA,NA,NA,NA,NA,NA,NA,NA,NA,NA,NA,NA,NA,NA,NA,NA,NA,0,1,1,1,1,NA,NA,NA,NA,NA
SUPAMT54803,3JPSL1DZ5YYD5GK8B5V5QH06B3EANR,816757B5-663F-45D5-BA69-385AA315351B,2023-09-27_08h10.13.913,WP_VExplicitOC_LH,2022.2.5,Win32,15.54388037,93.22916667,5.6746,2.0631,NA,NA,NA,NA,NA,happy,"unhappy, happy","less happy, more happy",NA,NA,NA,NA,NA,NA,NA,NA,NA,NA,NA,NA,NA,NA,NA,NA,NA,NA,NA,NA,NA,NA,NA,NA,NA,NA,NA,NA,NA,NA,NA,NA,NA,NA,NA,NA,NA,NA,0,2,2,0,1,NA,NA,NA,NA,NA
SUPAMT54803,3JPSL1DZ5YYD5GK8B5V5QH06B3EANR,816757B5-663F-45D5-BA69-385AA315351B,2023-09-27_08h10.13.913,WP_VExplicitOC_LH,2022.2.5,Win32,15.54388037,NA,NA,NA,NA,NA,NA,NA,NA,NA,NA,NA,NA,NA,NA,NA,NA,NA,NA,NA,NA,NA,NA,NA,NA,NA,NA,NA,NA,NA,NA,NA,NA,NA,NA,NA,NA,NA,NA,NA,NA,NA,NA,NA,NA,NA,NA,NA,NA,NA,NA,NA,NA,NA,NA,3,0,3,0,1
SUPAMT54803,3JPSL1DZ5YYD5GK8B5V5QH06B3EANR,816757B5-663F-45D5-BA69-385AA315351B,2023-09-27_08h10.13.913,WP_VExplicitOC_LH,2022.2.5,Win32,15.54388037,81.51041667,5.5248,2.0656,NA,NA,NA,NA,NA,bored,"bored, not bored","more bored, less bored",NA,NA,NA,NA,NA,NA,NA,NA,NA,NA,NA,NA,NA,NA,NA,NA,NA,NA,NA,NA,NA,NA,NA,NA,NA,NA,NA,NA,NA,NA,NA,NA,NA,NA,NA,NA,NA,NA,0,0,0,2,1,NA,NA,NA,NA,NA
SUPAMT54803,3JPSL1DZ5YYD5GK8B5V5QH06B3EANR,816757B5-663F-45D5-BA69-385AA315351B,2023-09-27_08h10.13.913,WP_VExplicitOC_LH,2022.2.5,Win32,15.54388037,43.75,3.7658,2.0357,NA,NA,NA,NA,NA,happy,"unhappy, happy","less happy, more happy",NA,NA,NA,NA,NA,NA,NA,NA,NA,NA,NA,NA,NA,NA,NA,NA,NA,NA,NA,NA,NA,NA,NA,NA,NA,NA,NA,NA,NA,NA,NA,NA,NA,NA,NA,NA,NA,NA,0,1,1,0,1,NA,NA,NA,NA,NA
SUPAMT54803,3JPSL1DZ5YYD5GK8B5V5QH06B3EANR,816757B5-663F-45D5-BA69-385AA315351B,2023-09-27_08h10.13.913,WP_VExplicitOC_LH,2022.2.5,Win32,15.54388037,45.57291667,3.5512,2.0891,NA,NA,NA,NA,NA,frustrated,"frustrated, not frustrated","more frustrated, less frustrated",NA,NA,NA,NA,NA,NA,NA,NA,NA,NA,NA,NA,NA,NA,NA,NA,NA,NA,NA,NA,NA,NA,NA,NA,NA,NA,NA,NA,NA,NA,NA,NA,NA,NA,NA,NA,NA,NA,0,2,2,1,1,NA,NA,NA,NA,NA
SUPAMT54803,3JPSL1DZ5YYD5GK8B5V5QH06B3EANR,816757B5-663F-45D5-BA69-385AA315351B,2023-09-27_08h10.13.913,WP_VExplicitOC_LH,2022.2.5,Win32,15.54388037,NA,NA,NA,NA,NA,NA,NA,NA,NA,NA,NA,NA,NA,NA,NA,NA,NA,NA,NA,NA,NA,NA,NA,NA,NA,NA,NA,NA,NA,NA,NA,NA,NA,NA,NA,NA,NA,NA,NA,NA,NA,NA,NA,NA,NA,NA,NA,NA,NA,NA,NA,NA,NA,NA,4,0,4,0,1
SUPAMT54803,3JPSL1DZ5YYD5GK8B5V5QH06B3EANR,816757B5-663F-45D5-BA69-385AA315351B,2023-09-27_08h10.13.913,WP_VExplicitOC_LH,2022.2.5,Win32,15.54388037,92.1875,5.7203,2.0785,NA,NA,NA,NA,NA,bored,"bored, not bored","more bored, less bored",NA,NA,NA,NA,NA,NA,NA,NA,NA,NA,NA,NA,NA,NA,NA,NA,NA,NA,NA,NA,NA,NA,NA,NA,NA,NA,NA,NA,NA,NA,NA,NA,NA,NA,NA,NA,NA,NA,0,0,0,2,1,NA,NA,NA,NA,NA
SUPAMT54803,3JPSL1DZ5YYD5GK8B5V5QH06B3EANR,816757B5-663F-45D5-BA69-385AA315351B,2023-09-27_08h10.13.913,WP_VExplicitOC_LH,2022.2.5,Win32,15.54388037,68.48958333,3.2348,2.0066,NA,NA,NA,NA,NA,frustrated,"frustrated, not frustrated","more frustrated, less frustrated",NA,NA,NA,NA,NA,NA,NA,NA,NA,NA,NA,NA,NA,NA,NA,NA,NA,NA,NA,NA,NA,NA,NA,NA,NA,NA,NA,NA,NA,NA,NA,NA,NA,NA,NA,NA,NA,NA,0,1,1,1,1,NA,NA,NA,NA,NA
SUPAMT54803,3JPSL1DZ5YYD5GK8B5V5QH06B3EANR,816757B5-663F-45D5-BA69-385AA315351B,2023-09-27_08h10.13.913,WP_VExplicitOC_LH,2022.2.5,Win32,15.54388037,44.79166667,3.3016,2.0183,NA,NA,NA,NA,NA,happy,"unhappy, happy","less happy, more happy",NA,NA,NA,NA,NA,NA,NA,NA,NA,NA,NA,NA,NA,NA,NA,NA,NA,NA,NA,NA,NA,NA,NA,NA,NA,NA,NA,NA,NA,NA,NA,NA,NA,NA,NA,NA,NA,NA,0,2,2,0,1,NA,NA,NA,NA,NA
SUPAMT54803,3JPSL1DZ5YYD5GK8B5V5QH06B3EANR,816757B5-663F-45D5-BA69-385AA315351B,2023-09-27_08h10.13.913,WP_VExplicitOC_LH,2022.2.5,Win32,15.54388037,NA,NA,NA,NA,NA,NA,NA,NA,NA,NA,NA,NA,NA,NA,NA,NA,NA,NA,NA,NA,NA,NA,NA,NA,NA,NA,NA,NA,NA,NA,NA,NA,NA,NA,NA,NA,NA,NA,NA,NA,NA,NA,NA,NA,NA,NA,NA,NA,NA,NA,NA,NA,NA,NA,5,0,5,0,1
SUPAMT54803,3JPSL1DZ5YYD5GK8B5V5QH06B3EANR,816757B5-663F-45D5-BA69-385AA315351B,2023-09-27_08h10.13.913,WP_VExplicitOC_LH,2022.2.5,Win32,15.54388037,NA,NA,2.0723,NA,NA,NA,NA,NA,frustrated,"frustrated, not frustrated","more frustrated, less frustrated",NA,NA,NA,NA,NA,NA,NA,NA,NA,NA,NA,NA,NA,NA,NA,NA,NA,NA,NA,NA,NA,NA,NA,NA,NA,NA,NA,NA,NA,NA,NA,NA,NA,NA,NA,NA,NA,NA,0,0,0,1,1,NA,NA,NA,NA,NA
SUPAMT54803,3JPSL1DZ5YYD5GK8B5V5QH06B3EANR,816757B5-663F-45D5-BA69-385AA315351B,2023-09-27_08h10.13.913,WP_VExplicitOC_LH,2022.2.5,Win32,15.54388037,NA,NA,2.0795,NA,NA,NA,NA,NA,happy,"unhappy, happy","less happy, more happy",NA,NA,NA,NA,NA,NA,NA,NA,NA,NA,NA,NA,NA,NA,NA,NA,NA,NA,NA,NA,NA,NA,NA,NA,NA,NA,NA,NA,NA,NA,NA,NA,NA,NA,NA,NA,NA,NA,0,1,1,0,1,NA,NA,NA,NA,NA
SUPAMT54803,3JPSL1DZ5YYD5GK8B5V5QH06B3EANR,816757B5-663F-45D5-BA69-385AA315351B,2023-09-27_08h10.13.913,WP_VExplicitOC_LH,2022.2.5,Win32,15.54388037,NA,NA,2.0328,NA,NA,NA,NA,NA,bored,"bored, not bored","more bored, less bored",NA,NA,NA,NA,NA,NA,NA,NA,NA,NA,NA,NA,NA,NA,NA,NA,NA,NA,NA,NA,NA,NA,NA,NA,NA,NA,NA,NA,NA,NA,NA,NA,NA,NA,NA,NA,NA,NA,0,2,2,2,1,NA,NA,NA,NA,NA
SUPAMT54803,3JPSL1DZ5YYD5GK8B5V5QH06B3EANR,816757B5-663F-45D5-BA69-385AA315351B,2023-09-27_08h10.13.913,WP_VExplicitOC_LH,2022.2.5,Win32,15.54388037,NA,NA,NA,NA,NA,NA,NA,NA,NA,NA,NA,NA,NA,NA,NA,NA,NA,NA,NA,NA,NA,NA,NA,NA,NA,NA,NA,NA,NA,NA,NA,NA,NA,NA,NA,NA,NA,NA,NA,NA,NA,NA,NA,NA,NA,NA,NA,NA,NA,NA,NA,NA,NA,NA,6,0,6,0,1
SUPAMT54803,3JPSL1DZ5YYD5GK8B5V5QH06B3EANR,816757B5-663F-45D5-BA69-385AA315351B,2023-09-27_08h10.13.913,WP_VExplicitOC_LH,2022.2.5,Win32,15.54388037,NA,NA,2.072,NA,NA,NA,NA,NA,frustrated,"frustrated, not frustrated","more frustrated, less frustrated",NA,NA,NA,NA,NA,NA,NA,NA,NA,NA,NA,NA,NA,NA,NA,NA,NA,NA,NA,NA,NA,NA,NA,NA,NA,NA,NA,NA,NA,NA,NA,NA,NA,NA,NA,NA,NA,NA,0,0,0,1,1,NA,NA,NA,NA,NA
SUPAMT54803,3JPSL1DZ5YYD5GK8B5V5QH06B3EANR,816757B5-663F-45D5-BA69-385AA315351B,2023-09-27_08h10.13.913,WP_VExplicitOC_LH,2022.2.5,Win32,15.54388037,NA,NA,2.0507,NA,NA,NA,NA,NA,bored,"bored, not bored","more bored, less bored",NA,NA,NA,NA,NA,NA,NA,NA,NA,NA,NA,NA,NA,NA,NA,NA,NA,NA,NA,NA,NA,NA,NA,NA,NA,NA,NA,NA,NA,NA,NA,NA,NA,NA,NA,NA,NA,NA,0,1,1,2,1,NA,NA,NA,NA,NA
SUPAMT54803,3JPSL1DZ5YYD5GK8B5V5QH06B3EANR,816757B5-663F-45D5-BA69-385AA315351B,2023-09-27_08h10.13.913,WP_VExplicitOC_LH,2022.2.5,Win32,15.54388037,NA,NA,2.022,NA,NA,NA,NA,NA,happy,"unhappy, happy","less happy, more happy",NA,NA,NA,NA,NA,NA,NA,NA,NA,NA,NA,NA,NA,NA,NA,NA,NA,NA,NA,NA,NA,NA,NA,NA,NA,NA,NA,NA,NA,NA,NA,NA,NA,NA,NA,NA,NA,NA,0,2,2,0,1,NA,NA,NA,NA,NA
SUPAMT54803,3JPSL1DZ5YYD5GK8B5V5QH06B3EANR,816757B5-663F-45D5-BA69-385AA315351B,2023-09-27_08h10.13.913,WP_VExplicitOC_LH,2022.2.5,Win32,15.54388037,NA,NA,NA,NA,NA,NA,NA,NA,NA,NA,NA,NA,NA,NA,NA,NA,NA,NA,NA,NA,NA,NA,NA,NA,NA,NA,NA,NA,NA,NA,NA,NA,NA,NA,NA,NA,NA,NA,NA,NA,NA,NA,NA,NA,NA,NA,NA,NA,NA,NA,NA,NA,NA,NA,7,0,7,0,1
SUPAMT54803,3JPSL1DZ5YYD5GK8B5V5QH06B3EANR,816757B5-663F-45D5-BA69-385AA315351B,2023-09-27_08h10.13.913,WP_VExplicitOC_LH,2022.2.5,Win32,15.54388037,67.96875,3.7361,2.091,NA,NA,NA,NA,NA,bored,"bored, not bored","more bored, less bored",NA,NA,NA,NA,NA,NA,NA,NA,NA,NA,NA,NA,NA,NA,NA,NA,NA,NA,NA,NA,NA,NA,NA,NA,NA,NA,NA,NA,NA,NA,NA,NA,NA,NA,NA,NA,NA,NA,0,0,0,2,1,NA,NA,NA,NA,NA
SUPAMT54803,3JPSL1DZ5YYD5GK8B5V5QH06B3EANR,816757B5-663F-45D5-BA69-385AA315351B,2023-09-27_08h10.13.913,WP_VExplicitOC_LH,2022.2.5,Win32,15.54388037,69.79166667,3.4297,2.0069,NA,NA,NA,NA,NA,happy,"unhappy, happy","less happy, more happy",NA,NA,NA,NA,NA,NA,NA,NA,NA,NA,NA,NA,NA,NA,NA,NA,NA,NA,NA,NA,NA,NA,NA,NA,NA,NA,NA,NA,NA,NA,NA,NA,NA,NA,NA,NA,NA,NA,0,1,1,0,1,NA,NA,NA,NA,NA
SUPAMT54803,3JPSL1DZ5YYD5GK8B5V5QH06B3EANR,816757B5-663F-45D5-BA69-385AA315351B,2023-09-27_08h10.13.913,WP_VExplicitOC_LH,2022.2.5,Win32,15.54388037,49.47916667,3.4274,2.0601,NA,NA,NA,NA,NA,frustrated,"frustrated, not frustrated","more frustrated, less frustrated",NA,NA,NA,NA,NA,NA,NA,NA,NA,NA,NA,NA,NA,NA,NA,NA,NA,NA,NA,NA,NA,NA,NA,NA,NA,NA,NA,NA,NA,NA,NA,NA,NA,NA,NA,NA,NA,NA,0,2,2,1,1,NA,NA,NA,NA,NA
SUPAMT54803,3JPSL1DZ5YYD5GK8B5V5QH06B3EANR,816757B5-663F-45D5-BA69-385AA315351B,2023-09-27_08h10.13.913,WP_VExplicitOC_LH,2022.2.5,Win32,15.54388037,NA,NA,NA,NA,NA,NA,NA,NA,NA,NA,NA,NA,NA,NA,NA,NA,NA,NA,NA,NA,NA,NA,NA,NA,NA,NA,NA,NA,NA,NA,NA,NA,NA,NA,NA,NA,NA,NA,NA,NA,NA,NA,NA,NA,NA,NA,NA,NA,NA,NA,NA,NA,NA,NA,8,0,8,0,1
SUPAMT54803,3JPSL1DZ5YYD5GK8B5V5QH06B3EANR,816757B5-663F-45D5-BA69-385AA315351B,2023-09-27_08h10.13.913,WP_VExplicitOC_LH,2022.2.5,Win32,15.54388037,55.20833333,3.276,2.0002,NA,NA,NA,NA,NA,bored,"bored, not bored","more bored, less bored",NA,NA,NA,NA,NA,NA,NA,NA,NA,NA,NA,NA,NA,NA,NA,NA,NA,NA,NA,NA,NA,NA,NA,NA,NA,NA,NA,NA,NA,NA,NA,NA,NA,NA,NA,NA,NA,NA,0,0,0,2,1,NA,NA,NA,NA,NA
SUPAMT54803,3JPSL1DZ5YYD5GK8B5V5QH06B3EANR,816757B5-663F-45D5-BA69-385AA315351B,2023-09-27_08h10.13.913,WP_VExplicitOC_LH,2022.2.5,Win32,15.54388037,52.86458333,3.8716,2.0039,NA,NA,NA,NA,NA,frustrated,"frustrated, not frustrated","more frustrated, less frustrated",NA,NA,NA,NA,NA,NA,NA,NA,NA,NA,NA,NA,NA,NA,NA,NA,NA,NA,NA,NA,NA,NA,NA,NA,NA,NA,NA,NA,NA,NA,NA,NA,NA,NA,NA,NA,NA,NA,0,1,1,1,1,NA,NA,NA,NA,NA
SUPAMT54803,3JPSL1DZ5YYD5GK8B5V5QH06B3EANR,816757B5-663F-45D5-BA69-385AA315351B,2023-09-27_08h10.13.913,WP_VExplicitOC_LH,2022.2.5,Win32,15.54388037,100,3.8536,2.0909,NA,NA,NA,NA,NA,happy,"unhappy, happy","less happy, more happy",NA,NA,NA,NA,NA,NA,NA,NA,NA,NA,NA,NA,NA,NA,NA,NA,NA,NA,NA,NA,NA,NA,NA,NA,NA,NA,NA,NA,NA,NA,NA,NA,NA,NA,NA,NA,NA,NA,0,2,2,0,1,NA,NA,NA,NA,NA
SUPAMT54803,3JPSL1DZ5YYD5GK8B5V5QH06B3EANR,816757B5-663F-45D5-BA69-385AA315351B,2023-09-27_08h10.13.913,WP_VExplicitOC_LH,2022.2.5,Win32,15.54388037,NA,NA,NA,NA,NA,NA,NA,NA,NA,NA,NA,NA,NA,NA,NA,NA,NA,NA,NA,NA,NA,NA,NA,NA,NA,NA,NA,NA,NA,NA,NA,NA,NA,NA,NA,NA,NA,NA,NA,NA,NA,NA,NA,NA,NA,NA,NA,NA,NA,NA,NA,NA,NA,NA,9,0,9,0,1
SUPAMT54803,3JPSL1DZ5YYD5GK8B5V5QH06B3EANR,816757B5-663F-45D5-BA69-385AA315351B,2023-09-27_08h10.13.913,WP_VExplicitOC_LH,2022.2.5,Win32,15.54388037,61.97916667,3.3663,2.0419,NA,NA,NA,NA,NA,frustrated,"frustrated, not frustrated","more frustrated, less frustrated",NA,NA,NA,NA,NA,NA,NA,NA,NA,NA,NA,NA,NA,NA,NA,NA,NA,NA,NA,NA,NA,NA,NA,NA,NA,NA,NA,NA,NA,NA,NA,NA,NA,NA,NA,NA,NA,NA,0,0,0,1,1,NA,NA,NA,NA,NA
SUPAMT54803,3JPSL1DZ5YYD5GK8B5V5QH06B3EANR,816757B5-663F-45D5-BA69-385AA315351B,2023-09-27_08h10.13.913,WP_VExplicitOC_LH,2022.2.5,Win32,15.54388037,48.17708333,3.5885,2.0939,NA,NA,NA,NA,NA,happy,"unhappy, happy","less happy, more happy",NA,NA,NA,NA,NA,NA,NA,NA,NA,NA,NA,NA,NA,NA,NA,NA,NA,NA,NA,NA,NA,NA,NA,NA,NA,NA,NA,NA,NA,NA,NA,NA,NA,NA,NA,NA,NA,NA,0,1,1,0,1,NA,NA,NA,NA,NA
SUPAMT54803,3JPSL1DZ5YYD5GK8B5V5QH06B3EANR,816757B5-663F-45D5-BA69-385AA315351B,2023-09-27_08h10.13.913,WP_VExplicitOC_LH,2022.2.5,Win32,15.54388037,67.1875,3.3972,2.0384,NA,NA,NA,NA,NA,bored,"bored, not bored","more bored, less bored",NA,NA,NA,NA,NA,NA,NA,NA,NA,NA,NA,NA,NA,NA,NA,NA,NA,NA,NA,NA,NA,NA,NA,NA,NA,NA,NA,NA,NA,NA,NA,NA,NA,NA,NA,NA,NA,NA,0,2,2,2,1,NA,NA,NA,NA,NA
SUPAMT54803,3JPSL1DZ5YYD5GK8B5V5QH06B3EANR,816757B5-663F-45D5-BA69-385AA315351B,2023-09-27_08h10.13.913,WP_VExplicitOC_LH,2022.2.5,Win32,15.54388037,NA,NA,NA,NA,NA,NA,NA,NA,NA,NA,NA,NA,NA,NA,NA,NA,NA,NA,NA,NA,NA,NA,NA,NA,NA,NA,NA,NA,NA,NA,NA,NA,NA,NA,NA,NA,NA,NA,NA,NA,NA,NA,NA,NA,NA,NA,NA,NA,NA,NA,NA,NA,NA,NA,10,0,10,0,1
SUPAMT54803,3JPSL1DZ5YYD5GK8B5V5QH06B3EANR,816757B5-663F-45D5-BA69-385AA315351B,2023-09-27_08h10.13.913,WP_VExplicitOC_LH,2022.2.5,Win32,15.54388037,67.70833333,5.2569,2.0913,NA,NA,NA,NA,NA,frustrated,"frustrated, not frustrated","more frustrated, less frustrated",NA,NA,NA,NA,NA,NA,NA,NA,NA,NA,NA,NA,NA,NA,NA,NA,NA,NA,NA,NA,NA,NA,NA,NA,NA,NA,NA,NA,NA,NA,NA,NA,NA,NA,NA,NA,NA,NA,0,0,0,1,1,NA,NA,NA,NA,NA
SUPAMT54803,3JPSL1DZ5YYD5GK8B5V5QH06B3EANR,816757B5-663F-45D5-BA69-385AA315351B,2023-09-27_08h10.13.913,WP_VExplicitOC_LH,2022.2.5,Win32,15.54388037,57.8125,3.2473,2.0236,NA,NA,NA,NA,NA,bored,"bored, not bored","more bored, less bored",NA,NA,NA,NA,NA,NA,NA,NA,NA,NA,NA,NA,NA,NA,NA,NA,NA,NA,NA,NA,NA,NA,NA,NA,NA,NA,NA,NA,NA,NA,NA,NA,NA,NA,NA,NA,NA,NA,0,1,1,2,1,NA,NA,NA,NA,NA
SUPAMT54803,3JPSL1DZ5YYD5GK8B5V5QH06B3EANR,816757B5-663F-45D5-BA69-385AA315351B,2023-09-27_08h10.13.913,WP_VExplicitOC_LH,2022.2.5,Win32,15.54388037,51.30208333,3.7742,2.0424,NA,NA,NA,NA,NA,happy,"unhappy, happy","less happy, more happy",NA,NA,NA,NA,NA,NA,NA,NA,NA,NA,NA,NA,NA,NA,NA,NA,NA,NA,NA,NA,NA,NA,NA,NA,NA,NA,NA,NA,NA,NA,NA,NA,NA,NA,NA,NA,NA,NA,0,2,2,0,1,NA,NA,NA,NA,NA
SUPAMT54803,3JPSL1DZ5YYD5GK8B5V5QH06B3EANR,816757B5-663F-45D5-BA69-385AA315351B,2023-09-27_08h10.13.913,WP_VExplicitOC_LH,2022.2.5,Win32,15.54388037,NA,NA,NA,NA,NA,NA,NA,NA,NA,NA,NA,NA,NA,NA,NA,NA,NA,NA,NA,NA,NA,NA,NA,NA,NA,NA,NA,NA,NA,NA,NA,NA,NA,NA,NA,NA,NA,NA,NA,NA,NA,NA,NA,NA,NA,NA,NA,NA,NA,NA,NA,NA,NA,NA,11,0,11,0,1
SUPAMT54803,3JPSL1DZ5YYD5GK8B5V5QH06B3EANR,816757B5-663F-45D5-BA69-385AA315351B,2023-09-27_08h10.13.913,WP_VExplicitOC_LH,2022.2.5,Win32,15.54388037,90.36458333,3.8912,2.0595,NA,NA,NA,NA,NA,happy,"unhappy, happy","less happy, more happy",NA,NA,NA,NA,NA,NA,NA,NA,NA,NA,NA,NA,NA,NA,NA,NA,NA,NA,NA,NA,NA,NA,NA,NA,NA,NA,NA,NA,NA,NA,NA,NA,NA,NA,NA,NA,NA,NA,0,0,0,0,1,NA,NA,NA,NA,NA
SUPAMT54803,3JPSL1DZ5YYD5GK8B5V5QH06B3EANR,816757B5-663F-45D5-BA69-385AA315351B,2023-09-27_08h10.13.913,WP_VExplicitOC_LH,2022.2.5,Win32,15.54388037,100,3.283,2.1075,NA,NA,NA,NA,NA,bored,"bored, not bored","more bored, less bored",NA,NA,NA,NA,NA,NA,NA,NA,NA,NA,NA,NA,NA,NA,NA,NA,NA,NA,NA,NA,NA,NA,NA,NA,NA,NA,NA,NA,NA,NA,NA,NA,NA,NA,NA,NA,NA,NA,0,1,1,2,1,NA,NA,NA,NA,NA
SUPAMT54803,3JPSL1DZ5YYD5GK8B5V5QH06B3EANR,816757B5-663F-45D5-BA69-385AA315351B,2023-09-27_08h10.13.913,WP_VExplicitOC_LH,2022.2.5,Win32,15.54388037,91.14583333,3.2051,2.0995,NA,NA,NA,NA,NA,frustrated,"frustrated, not frustrated","more frustrated, less frustrated",NA,NA,NA,NA,NA,NA,NA,NA,NA,NA,NA,NA,NA,NA,NA,NA,NA,NA,NA,NA,NA,NA,NA,NA,NA,NA,NA,NA,NA,NA,NA,NA,NA,NA,NA,NA,NA,NA,0,2,2,1,1,NA,NA,NA,NA,NA
SUPAMT54803,3JPSL1DZ5YYD5GK8B5V5QH06B3EANR,816757B5-663F-45D5-BA69-385AA315351B,2023-09-27_08h10.13.913,WP_VExplicitOC_LH,2022.2.5,Win32,15.54388037,NA,NA,NA,NA,NA,NA,NA,NA,NA,NA,NA,NA,NA,NA,NA,NA,NA,NA,NA,NA,NA,NA,NA,NA,NA,NA,NA,NA,NA,NA,NA,NA,NA,NA,NA,NA,NA,NA,NA,NA,NA,NA,NA,NA,NA,NA,NA,NA,NA,NA,NA,NA,NA,NA,12,0,12,0,1
SUPAMT54803,3JPSL1DZ5YYD5GK8B5V5QH06B3EANR,816757B5-663F-45D5-BA69-385AA315351B,2023-09-27_08h10.13.913,WP_VExplicitOC_LH,2022.2.5,Win32,15.54388037,62.23958333,4.6421,2.0142,NA,NA,NA,NA,NA,bored,"bored, not bored","more bored, less bored",NA,NA,NA,NA,NA,NA,NA,NA,NA,NA,NA,NA,NA,NA,NA,NA,NA,NA,NA,NA,NA,NA,NA,NA,NA,NA,NA,NA,NA,NA,NA,NA,NA,NA,NA,NA,NA,NA,0,0,0,2,1,NA,NA,NA,NA,NA
SUPAMT54803,3JPSL1DZ5YYD5GK8B5V5QH06B3EANR,816757B5-663F-45D5-BA69-385AA315351B,2023-09-27_08h10.13.913,WP_VExplicitOC_LH,2022.2.5,Win32,15.54388037,60.15625,3.5731,2.0469,NA,NA,NA,NA,NA,happy,"unhappy, happy","less happy, more happy",NA,NA,NA,NA,NA,NA,NA,NA,NA,NA,NA,NA,NA,NA,NA,NA,NA,NA,NA,NA,NA,NA,NA,NA,NA,NA,NA,NA,NA,NA,NA,NA,NA,NA,NA,NA,NA,NA,0,1,1,0,1,NA,NA,NA,NA,NA
SUPAMT54803,3JPSL1DZ5YYD5GK8B5V5QH06B3EANR,816757B5-663F-45D5-BA69-385AA315351B,2023-09-27_08h10.13.913,WP_VExplicitOC_LH,2022.2.5,Win32,15.54388037,62.5,3.5366,2.0001,NA,NA,NA,NA,NA,frustrated,"frustrated, not frustrated","more frustrated, less frustrated",NA,NA,NA,NA,NA,NA,NA,NA,NA,NA,NA,NA,NA,NA,NA,NA,NA,NA,NA,NA,NA,NA,NA,NA,NA,NA,NA,NA,NA,NA,NA,NA,NA,NA,NA,NA,NA,NA,0,2,2,1,1,NA,NA,NA,NA,NA
SUPAMT54803,3JPSL1DZ5YYD5GK8B5V5QH06B3EANR,816757B5-663F-45D5-BA69-385AA315351B,2023-09-27_08h10.13.913,WP_VExplicitOC_LH,2022.2.5,Win32,15.54388037,NA,NA,NA,NA,NA,NA,NA,NA,NA,NA,NA,NA,NA,NA,NA,NA,NA,NA,NA,NA,NA,NA,NA,NA,NA,NA,NA,NA,NA,NA,NA,NA,NA,NA,NA,NA,NA,NA,NA,NA,NA,NA,NA,NA,NA,NA,NA,NA,NA,NA,NA,NA,NA,NA,13,0,13,0,1
SUPAMT54803,3JPSL1DZ5YYD5GK8B5V5QH06B3EANR,816757B5-663F-45D5-BA69-385AA315351B,2023-09-27_08h10.13.913,WP_VExplicitOC_LH,2022.2.5,Win32,15.54388037,99.21875,3.4241,2.0105,NA,NA,NA,NA,NA,frustrated,"frustrated, not frustrated","more frustrated, less frustrated",NA,NA,NA,NA,NA,NA,NA,NA,NA,NA,NA,NA,NA,NA,NA,NA,NA,NA,NA,NA,NA,NA,NA,NA,NA,NA,NA,NA,NA,NA,NA,NA,NA,NA,NA,NA,NA,NA,0,0,0,1,1,NA,NA,NA,NA,NA
SUPAMT54803,3JPSL1DZ5YYD5GK8B5V5QH06B3EANR,816757B5-663F-45D5-BA69-385AA315351B,2023-09-27_08h10.13.913,WP_VExplicitOC_LH,2022.2.5,Win32,15.54388037,89.0625,3.3126,2.0942,NA,NA,NA,NA,NA,happy,"unhappy, happy","less happy, more happy",NA,NA,NA,NA,NA,NA,NA,NA,NA,NA,NA,NA,NA,NA,NA,NA,NA,NA,NA,NA,NA,NA,NA,NA,NA,NA,NA,NA,NA,NA,NA,NA,NA,NA,NA,NA,NA,NA,0,1,1,0,1,NA,NA,NA,NA,NA
SUPAMT54803,3JPSL1DZ5YYD5GK8B5V5QH06B3EANR,816757B5-663F-45D5-BA69-385AA315351B,2023-09-27_08h10.13.913,WP_VExplicitOC_LH,2022.2.5,Win32,15.54388037,87.23958333,3.1526,2.0129,NA,NA,NA,NA,NA,bored,"bored, not bored","more bored, less bored",NA,NA,NA,NA,NA,NA,NA,NA,NA,NA,NA,NA,NA,NA,NA,NA,NA,NA,NA,NA,NA,NA,NA,NA,NA,NA,NA,NA,NA,NA,NA,NA,NA,NA,NA,NA,NA,NA,0,2,2,2,1,NA,NA,NA,NA,NA
SUPAMT54803,3JPSL1DZ5YYD5GK8B5V5QH06B3EANR,816757B5-663F-45D5-BA69-385AA315351B,2023-09-27_08h10.13.913,WP_VExplicitOC_LH,2022.2.5,Win32,15.54388037,NA,NA,NA,NA,NA,NA,NA,NA,NA,NA,NA,NA,NA,NA,NA,NA,NA,NA,NA,NA,NA,NA,NA,NA,NA,NA,NA,NA,NA,NA,NA,NA,NA,NA,NA,NA,NA,NA,NA,NA,NA,NA,NA,NA,NA,NA,NA,NA,NA,NA,NA,NA,NA,NA,14,0,14,0,1
SUPAMT54803,3JPSL1DZ5YYD5GK8B5V5QH06B3EANR,816757B5-663F-45D5-BA69-385AA315351B,2023-09-27_08h10.13.913,WP_VExplicitOC_LH,2022.2.5,Win32,15.54388037,NA,NA,NA,NA,NA,NA,NA,NA,NA,NA,NA,NA,NA,NA,NA,NA,NA,NA,NA,NA,NA,NA,NA,NA,NA,NA,NA,NA,NA,NA,NA,NA,NA,NA,NA,NA,NA,NA,NA,NA,NA,NA,NA,NA,NA,NA,NA,NA,NA,NA,NA,NA,NA,NA,NA,NA,NA,NA,NA
