participant,session,completion,date,expName,psychopyVersion,OS,frameRate,rating_all.response,rating_all.rt,rating_all.tStart,rndRat1.thisRepN,rndRat1.thisTrialN,rndRat1.thisN,rndRat1.thisIndex,rndRat1.ran,Emo,Labs,Labs2,rating_alt.response,rating_alt.rt,AltC.thisRepN,AltC.thisTrialN,AltC.thisN,AltC.thisIndex,AltC.ran,alt_choices,pic_choices,BottomAlt_Choice,rndRat2.thisRepN,rndRat2.thisTrialN,rndRat2.thisN,rndRat2.thisIndex,rndRat2.ran,rndRat3.thisRepN,rndRat3.thisTrialN,rndRat3.thisN,rndRat3.thisIndex,rndRat3.ran,trials_FC_L.thisRepN,trials_FC_L.thisTrialN,trials_FC_L.thisN,trials_FC_L.thisIndex,trials_FC_L.ran,rating_alt_2.response,rating_alt_2.rt,AltC2.thisRepN,AltC2.thisTrialN,AltC2.thisN,AltC2.thisIndex,AltC2.ran,TopAlt_Choice,rndRat4.thisRepN,rndRat4.thisTrialN,rndRat4.thisN,rndRat4.thisIndex,rndRat4.ran,rndRat5.thisRepN,rndRat5.thisTrialN,rndRat5.thisN,rndRat5.thisIndex,rndRat5.ran,trials_FC_H.thisRepN,trials_FC_H.thisTrialN,trials_FC_H.thisN,trials_FC_H.thisIndex,trials_FC_H.ran
SUPAMT70702,3QEMNNSB23YM02VXF85IKLMMWZD7D2,D2BB15CF-97AE-4500-88E4-CB642C15EDB6,2023-09-28_09h33.42.733,WP_VExplicitOC_LH,2022.2.5,Win32,162.2586403,NA,NA,NA,NA,NA,NA,NA,NA,NA,NA,NA,NA,NA,NA,NA,NA,NA,NA,NA,NA,NA,NA,NA,NA,NA,NA,NA,NA,NA,NA,NA,NA,NA,NA,NA,NA,NA,NA,NA,NA,NA,NA,NA,NA,NA,NA,NA,NA,NA,NA,NA,NA,NA,NA,NA,NA,NA,NA,NA
SUPAMT70702,3QEMNNSB23YM02VXF85IKLMMWZD7D2,D2BB15CF-97AE-4500-88E4-CB642C15EDB6,2023-09-28_09h33.42.733,WP_VExplicitOC_LH,2022.2.5,Win32,162.2586403,NA,NA,NA,NA,NA,NA,NA,NA,NA,NA,NA,NA,NA,NA,NA,NA,NA,NA,NA,NA,NA,NA,NA,NA,NA,NA,NA,NA,NA,NA,NA,NA,NA,NA,NA,NA,NA,NA,NA,NA,NA,NA,NA,NA,NA,NA,NA,NA,NA,NA,NA,NA,NA,NA,NA,NA,NA,NA,NA
SUPAMT70702,3QEMNNSB23YM02VXF85IKLMMWZD7D2,D2BB15CF-97AE-4500-88E4-CB642C15EDB6,2023-09-28_09h33.42.733,WP_VExplicitOC_LH,2022.2.5,Win32,162.2586403,NA,NA,NA,NA,NA,NA,NA,NA,NA,NA,NA,NA,NA,NA,NA,NA,NA,NA,NA,NA,NA,NA,NA,NA,NA,NA,NA,NA,NA,NA,NA,NA,NA,NA,NA,NA,NA,NA,NA,NA,NA,NA,NA,NA,NA,NA,NA,NA,NA,NA,NA,NA,NA,NA,NA,NA,NA,NA,NA
SUPAMT70702,3QEMNNSB23YM02VXF85IKLMMWZD7D2,D2BB15CF-97AE-4500-88E4-CB642C15EDB6,2023-09-28_09h33.42.733,WP_VExplicitOC_LH,2022.2.5,Win32,162.2586403,61.2962963,3.6503,2.0019,0,0,0,0,1,happy,"unhappy, happy","less happy, more happy",NA,NA,NA,NA,NA,NA,NA,NA,NA,NA,NA,NA,NA,NA,NA,NA,NA,NA,NA,NA,NA,NA,NA,NA,NA,NA,NA,NA,NA,NA,NA,NA,NA,NA,NA,NA,NA,NA,NA,NA,NA,NA,NA,NA,NA,NA,NA,NA
SUPAMT70702,3QEMNNSB23YM02VXF85IKLMMWZD7D2,D2BB15CF-97AE-4500-88E4-CB642C15EDB6,2023-09-28_09h33.42.733,WP_VExplicitOC_LH,2022.2.5,Win32,162.2586403,-30.18518519,4.3575,2.0005,0,1,1,2,1,bored,"bored, not bored","more bored, less bored",NA,NA,NA,NA,NA,NA,NA,NA,NA,NA,NA,NA,NA,NA,NA,NA,NA,NA,NA,NA,NA,NA,NA,NA,NA,NA,NA,NA,NA,NA,NA,NA,NA,NA,NA,NA,NA,NA,NA,NA,NA,NA,NA,NA,NA,NA,NA,NA
SUPAMT70702,3QEMNNSB23YM02VXF85IKLMMWZD7D2,D2BB15CF-97AE-4500-88E4-CB642C15EDB6,2023-09-28_09h33.42.733,WP_VExplicitOC_LH,2022.2.5,Win32,162.2586403,-97.22222222,3.7001,2.0059,0,2,2,1,1,frustrated,"frustrated, not frustrated","more frustrated, less frustrated",NA,NA,NA,NA,NA,NA,NA,NA,NA,NA,NA,NA,NA,NA,NA,NA,NA,NA,NA,NA,NA,NA,NA,NA,NA,NA,NA,NA,NA,NA,NA,NA,NA,NA,NA,NA,NA,NA,NA,NA,NA,NA,NA,NA,NA,NA,NA,NA
SUPAMT70702,3QEMNNSB23YM02VXF85IKLMMWZD7D2,D2BB15CF-97AE-4500-88E4-CB642C15EDB6,2023-09-28_09h33.42.733,WP_VExplicitOC_LH,2022.2.5,Win32,162.2586403,NA,NA,NA,NA,NA,NA,NA,NA,NA,NA,NA,NA,NA,NA,NA,NA,NA,NA,NA,NA,NA,NA,NA,NA,NA,NA,NA,NA,NA,NA,NA,NA,NA,NA,NA,NA,NA,NA,NA,NA,NA,NA,NA,NA,NA,NA,NA,NA,NA,NA,NA,NA,NA,NA,NA,NA,NA,NA,NA
SUPAMT70702,3QEMNNSB23YM02VXF85IKLMMWZD7D2,D2BB15CF-97AE-4500-88E4-CB642C15EDB6,2023-09-28_09h33.42.733,WP_VExplicitOC_LH,2022.2.5,Win32,162.2586403,NA,NA,NA,NA,NA,NA,NA,NA,NA,NA,NA,NA,NA,NA,NA,NA,NA,NA,NA,NA,NA,NA,NA,NA,NA,NA,NA,NA,NA,NA,NA,NA,NA,NA,NA,NA,NA,NA,NA,NA,NA,NA,NA,NA,NA,NA,NA,NA,NA,NA,NA,NA,NA,NA,NA,NA,NA,NA,NA
SUPAMT70702,3QEMNNSB23YM02VXF85IKLMMWZD7D2,D2BB15CF-97AE-4500-88E4-CB642C15EDB6,2023-09-28_09h33.42.733,WP_VExplicitOC_LH,2022.2.5,Win32,162.2586403,NA,NA,NA,NA,NA,NA,NA,NA,NA,NA,NA,NA,NA,NA,NA,NA,NA,NA,NA,NA,NA,NA,NA,NA,NA,NA,NA,NA,NA,NA,NA,NA,NA,NA,NA,NA,NA,NA,NA,NA,NA,NA,NA,NA,NA,NA,NA,NA,NA,NA,NA,NA,NA,NA,NA,NA,NA,NA,NA
SUPAMT70702,3QEMNNSB23YM02VXF85IKLMMWZD7D2,D2BB15CF-97AE-4500-88E4-CB642C15EDB6,2023-09-28_09h33.42.733,WP_VExplicitOC_LH,2022.2.5,Win32,162.2586403,NA,NA,NA,NA,NA,NA,NA,NA,NA,NA,NA,NA,NA,NA,NA,NA,NA,NA,NA,NA,NA,NA,NA,NA,NA,NA,NA,NA,NA,NA,NA,NA,NA,NA,NA,NA,NA,NA,NA,NA,NA,NA,NA,NA,NA,NA,NA,NA,NA,NA,NA,NA,NA,NA,NA,NA,NA,NA,NA
SUPAMT70702,3QEMNNSB23YM02VXF85IKLMMWZD7D2,D2BB15CF-97AE-4500-88E4-CB642C15EDB6,2023-09-28_09h33.42.733,WP_VExplicitOC_LH,2022.2.5,Win32,162.2586403,NA,NA,NA,NA,NA,NA,NA,NA,NA,NA,NA,24.62962963,7.4573,0,0,0,0,1,rest (looking at a fixed cross),001.png,NA,NA,NA,NA,NA,NA,NA,NA,NA,NA,NA,NA,NA,NA,NA,NA,NA,NA,NA,NA,NA,NA,NA,NA,NA,NA,NA,NA,NA,NA,NA,NA,NA,NA,NA,NA,NA,NA,NA
SUPAMT70702,3QEMNNSB23YM02VXF85IKLMMWZD7D2,D2BB15CF-97AE-4500-88E4-CB642C15EDB6,2023-09-28_09h33.42.733,WP_VExplicitOC_LH,2022.2.5,Win32,162.2586403,NA,NA,NA,NA,NA,NA,NA,NA,NA,NA,NA,53.14814815,2.8842,0,1,1,1,1,stand up,002.png,NA,NA,NA,NA,NA,NA,NA,NA,NA,NA,NA,NA,NA,NA,NA,NA,NA,NA,NA,NA,NA,NA,NA,NA,NA,NA,NA,NA,NA,NA,NA,NA,NA,NA,NA,NA,NA,NA,NA
SUPAMT70702,3QEMNNSB23YM02VXF85IKLMMWZD7D2,D2BB15CF-97AE-4500-88E4-CB642C15EDB6,2023-09-28_09h33.42.733,WP_VExplicitOC_LH,2022.2.5,Win32,162.2586403,NA,NA,NA,NA,NA,NA,NA,NA,NA,NA,NA,90.92592593,2.3006,0,2,2,2,1,stretch,003.png,NA,NA,NA,NA,NA,NA,NA,NA,NA,NA,NA,NA,NA,NA,NA,NA,NA,NA,NA,NA,NA,NA,NA,NA,NA,NA,NA,NA,NA,NA,NA,NA,NA,NA,NA,NA,NA,NA,NA
SUPAMT70702,3QEMNNSB23YM02VXF85IKLMMWZD7D2,D2BB15CF-97AE-4500-88E4-CB642C15EDB6,2023-09-28_09h33.42.733,WP_VExplicitOC_LH,2022.2.5,Win32,162.2586403,NA,NA,NA,NA,NA,NA,NA,NA,NA,NA,NA,68.14814815,2.9718,0,3,3,3,1,make a drink,004.png,NA,NA,NA,NA,NA,NA,NA,NA,NA,NA,NA,NA,NA,NA,NA,NA,NA,NA,NA,NA,NA,NA,NA,NA,NA,NA,NA,NA,NA,NA,NA,NA,NA,NA,NA,NA,NA,NA,NA
SUPAMT70702,3QEMNNSB23YM02VXF85IKLMMWZD7D2,D2BB15CF-97AE-4500-88E4-CB642C15EDB6,2023-09-28_09h33.42.733,WP_VExplicitOC_LH,2022.2.5,Win32,162.2586403,NA,NA,NA,NA,NA,NA,NA,NA,NA,NA,NA,-23.51851852,4.2503,0,4,4,4,1,scroll social media,005.png,NA,NA,NA,NA,NA,NA,NA,NA,NA,NA,NA,NA,NA,NA,NA,NA,NA,NA,NA,NA,NA,NA,NA,NA,NA,NA,NA,NA,NA,NA,NA,NA,NA,NA,NA,NA,NA,NA,NA
SUPAMT70702,3QEMNNSB23YM02VXF85IKLMMWZD7D2,D2BB15CF-97AE-4500-88E4-CB642C15EDB6,2023-09-28_09h33.42.733,WP_VExplicitOC_LH,2022.2.5,Win32,162.2586403,NA,NA,NA,NA,NA,NA,NA,NA,NA,NA,NA,94.62962963,2.5231,0,5,5,5,1,listen to music,006.png,NA,NA,NA,NA,NA,NA,NA,NA,NA,NA,NA,NA,NA,NA,NA,NA,NA,NA,NA,NA,NA,NA,NA,NA,NA,NA,NA,NA,NA,NA,NA,NA,NA,NA,NA,NA,NA,NA,NA
SUPAMT70702,3QEMNNSB23YM02VXF85IKLMMWZD7D2,D2BB15CF-97AE-4500-88E4-CB642C15EDB6,2023-09-28_09h33.42.733,WP_VExplicitOC_LH,2022.2.5,Win32,162.2586403,NA,NA,NA,NA,NA,NA,NA,NA,NA,NA,NA,23.7037037,2.8956,0,6,6,6,1,daydream,007.png,NA,NA,NA,NA,NA,NA,NA,NA,NA,NA,NA,NA,NA,NA,NA,NA,NA,NA,NA,NA,NA,NA,NA,NA,NA,NA,NA,NA,NA,NA,NA,NA,NA,NA,NA,NA,NA,NA,NA
SUPAMT70702,3QEMNNSB23YM02VXF85IKLMMWZD7D2,D2BB15CF-97AE-4500-88E4-CB642C15EDB6,2023-09-28_09h33.42.733,WP_VExplicitOC_LH,2022.2.5,Win32,162.2586403,NA,NA,NA,NA,NA,NA,NA,NA,NA,NA,NA,38.33333333,4.1806,0,7,7,7,1,watch a short animation,008.png,NA,NA,NA,NA,NA,NA,NA,NA,NA,NA,NA,NA,NA,NA,NA,NA,NA,NA,NA,NA,NA,NA,NA,NA,NA,NA,NA,NA,NA,NA,NA,NA,NA,NA,NA,NA,NA,NA,NA
SUPAMT70702,3QEMNNSB23YM02VXF85IKLMMWZD7D2,D2BB15CF-97AE-4500-88E4-CB642C15EDB6,2023-09-28_09h33.42.733,WP_VExplicitOC_LH,2022.2.5,Win32,162.2586403,NA,NA,NA,NA,NA,NA,NA,NA,NA,NA,NA,-100,4.2014,0,8,8,8,1,read a novel,009.png,NA,NA,NA,NA,NA,NA,NA,NA,NA,NA,NA,NA,NA,NA,NA,NA,NA,NA,NA,NA,NA,NA,NA,NA,NA,NA,NA,NA,NA,NA,NA,NA,NA,NA,NA,NA,NA,NA,NA
SUPAMT70702,3QEMNNSB23YM02VXF85IKLMMWZD7D2,D2BB15CF-97AE-4500-88E4-CB642C15EDB6,2023-09-28_09h33.42.733,WP_VExplicitOC_LH,2022.2.5,Win32,162.2586403,NA,NA,NA,NA,NA,NA,NA,NA,NA,NA,NA,2.777777778,5.7775,0,9,9,9,1,read the news,010.png,NA,NA,NA,NA,NA,NA,NA,NA,NA,NA,NA,NA,NA,NA,NA,NA,NA,NA,NA,NA,NA,NA,NA,NA,NA,NA,NA,NA,NA,NA,NA,NA,NA,NA,NA,NA,NA,NA,NA
SUPAMT70702,3QEMNNSB23YM02VXF85IKLMMWZD7D2,D2BB15CF-97AE-4500-88E4-CB642C15EDB6,2023-09-28_09h33.42.733,WP_VExplicitOC_LH,2022.2.5,Win32,162.2586403,NA,NA,NA,NA,NA,NA,NA,NA,NA,NA,NA,NA,NA,NA,NA,NA,NA,NA,NA,NA,NA,NA,NA,NA,NA,NA,NA,NA,NA,NA,NA,NA,NA,NA,NA,NA,NA,NA,NA,NA,NA,NA,NA,NA,NA,NA,NA,NA,NA,NA,NA,NA,NA,NA,NA,NA,NA,NA,NA
SUPAMT70702,3QEMNNSB23YM02VXF85IKLMMWZD7D2,D2BB15CF-97AE-4500-88E4-CB642C15EDB6,2023-09-28_09h33.42.733,WP_VExplicitOC_LH,2022.2.5,Win32,162.2586403,NA,NA,NA,NA,NA,NA,NA,NA,NA,NA,NA,NA,NA,NA,NA,NA,NA,NA,NA,NA,read a novel,NA,NA,NA,NA,NA,NA,NA,NA,NA,NA,NA,NA,NA,NA,NA,NA,NA,NA,NA,NA,NA,NA,NA,NA,NA,NA,NA,NA,NA,NA,NA,NA,NA,NA,NA,NA,NA,NA
SUPAMT70702,3QEMNNSB23YM02VXF85IKLMMWZD7D2,D2BB15CF-97AE-4500-88E4-CB642C15EDB6,2023-09-28_09h33.42.733,WP_VExplicitOC_LH,2022.2.5,Win32,162.2586403,NA,NA,2.0038,NA,NA,NA,NA,NA,happy,"unhappy, happy","less happy, more happy",NA,NA,NA,NA,NA,NA,NA,NA,NA,NA,0,0,0,0,1,NA,NA,NA,NA,NA,NA,NA,NA,NA,NA,NA,NA,NA,NA,NA,NA,NA,NA,NA,NA,NA,NA,NA,NA,NA,NA,NA,NA,NA,NA,NA,NA,NA
SUPAMT70702,3QEMNNSB23YM02VXF85IKLMMWZD7D2,D2BB15CF-97AE-4500-88E4-CB642C15EDB6,2023-09-28_09h33.42.733,WP_VExplicitOC_LH,2022.2.5,Win32,162.2586403,-100,3.3848,2.0011,NA,NA,NA,NA,NA,frustrated,"frustrated, not frustrated","more frustrated, less frustrated",NA,NA,NA,NA,NA,NA,NA,NA,NA,NA,0,1,1,1,1,NA,NA,NA,NA,NA,NA,NA,NA,NA,NA,NA,NA,NA,NA,NA,NA,NA,NA,NA,NA,NA,NA,NA,NA,NA,NA,NA,NA,NA,NA,NA,NA,NA
SUPAMT70702,3QEMNNSB23YM02VXF85IKLMMWZD7D2,D2BB15CF-97AE-4500-88E4-CB642C15EDB6,2023-09-28_09h33.42.733,WP_VExplicitOC_LH,2022.2.5,Win32,162.2586403,NA,NA,2.0021,NA,NA,NA,NA,NA,bored,"bored, not bored","more bored, less bored",NA,NA,NA,NA,NA,NA,NA,NA,NA,NA,0,2,2,2,1,NA,NA,NA,NA,NA,NA,NA,NA,NA,NA,NA,NA,NA,NA,NA,NA,NA,NA,NA,NA,NA,NA,NA,NA,NA,NA,NA,NA,NA,NA,NA,NA,NA
SUPAMT70702,3QEMNNSB23YM02VXF85IKLMMWZD7D2,D2BB15CF-97AE-4500-88E4-CB642C15EDB6,2023-09-28_09h33.42.733,WP_VExplicitOC_LH,2022.2.5,Win32,162.2586403,NA,NA,NA,NA,NA,NA,NA,NA,NA,NA,NA,NA,NA,NA,NA,NA,NA,NA,NA,NA,NA,NA,NA,NA,NA,NA,NA,NA,NA,NA,NA,NA,NA,NA,NA,NA,NA,NA,NA,NA,NA,NA,NA,NA,NA,NA,NA,NA,NA,NA,NA,NA,NA,NA,NA,NA,NA,NA,NA
SUPAMT70702,3QEMNNSB23YM02VXF85IKLMMWZD7D2,D2BB15CF-97AE-4500-88E4-CB642C15EDB6,2023-09-28_09h33.42.733,WP_VExplicitOC_LH,2022.2.5,Win32,162.2586403,NA,NA,NA,NA,NA,NA,NA,NA,NA,NA,NA,NA,NA,NA,NA,NA,NA,NA,NA,NA,NA,NA,NA,NA,NA,NA,NA,NA,NA,NA,NA,NA,NA,NA,NA,NA,NA,NA,NA,NA,NA,NA,NA,NA,NA,NA,NA,NA,NA,NA,NA,NA,NA,NA,NA,NA,NA,NA,NA
SUPAMT70702,3QEMNNSB23YM02VXF85IKLMMWZD7D2,D2BB15CF-97AE-4500-88E4-CB642C15EDB6,2023-09-28_09h33.42.733,WP_VExplicitOC_LH,2022.2.5,Win32,162.2586403,80.74074074,4.2769,2.0006,NA,NA,NA,NA,NA,happy,"unhappy, happy","less happy, more happy",NA,NA,NA,NA,NA,NA,NA,NA,NA,NA,NA,NA,NA,NA,NA,0,0,0,0,1,NA,NA,NA,NA,NA,NA,NA,NA,NA,NA,NA,NA,NA,NA,NA,NA,NA,NA,NA,NA,NA,NA,NA,NA,NA,NA,NA,NA
SUPAMT70702,3QEMNNSB23YM02VXF85IKLMMWZD7D2,D2BB15CF-97AE-4500-88E4-CB642C15EDB6,2023-09-28_09h33.42.733,WP_VExplicitOC_LH,2022.2.5,Win32,162.2586403,100,3.7951,2.0014,NA,NA,NA,NA,NA,frustrated,"frustrated, not frustrated","more frustrated, less frustrated",NA,NA,NA,NA,NA,NA,NA,NA,NA,NA,NA,NA,NA,NA,NA,0,1,1,1,1,NA,NA,NA,NA,NA,NA,NA,NA,NA,NA,NA,NA,NA,NA,NA,NA,NA,NA,NA,NA,NA,NA,NA,NA,NA,NA,NA,NA
SUPAMT70702,3QEMNNSB23YM02VXF85IKLMMWZD7D2,D2BB15CF-97AE-4500-88E4-CB642C15EDB6,2023-09-28_09h33.42.733,WP_VExplicitOC_LH,2022.2.5,Win32,162.2586403,-0.185185185,4.7776,2.0016,NA,NA,NA,NA,NA,bored,"bored, not bored","more bored, less bored",NA,NA,NA,NA,NA,NA,NA,NA,NA,NA,NA,NA,NA,NA,NA,0,2,2,2,1,NA,NA,NA,NA,NA,NA,NA,NA,NA,NA,NA,NA,NA,NA,NA,NA,NA,NA,NA,NA,NA,NA,NA,NA,NA,NA,NA,NA
SUPAMT70702,3QEMNNSB23YM02VXF85IKLMMWZD7D2,D2BB15CF-97AE-4500-88E4-CB642C15EDB6,2023-09-28_09h33.42.733,WP_VExplicitOC_LH,2022.2.5,Win32,162.2586403,NA,NA,NA,NA,NA,NA,NA,NA,NA,NA,NA,NA,NA,NA,NA,NA,NA,NA,NA,NA,NA,NA,NA,NA,NA,NA,NA,NA,NA,NA,NA,0,0,0,0,1,NA,NA,NA,NA,NA,NA,NA,NA,NA,NA,NA,NA,NA,NA,NA,NA,NA,NA,NA,NA,NA,NA,NA
SUPAMT70702,3QEMNNSB23YM02VXF85IKLMMWZD7D2,D2BB15CF-97AE-4500-88E4-CB642C15EDB6,2023-09-28_09h33.42.733,WP_VExplicitOC_LH,2022.2.5,Win32,162.2586403,-31.11111111,4.4325,2.0037,NA,NA,NA,NA,NA,bored,"bored, not bored","more bored, less bored",NA,NA,NA,NA,NA,NA,NA,NA,NA,NA,NA,NA,NA,NA,NA,0,0,0,2,1,NA,NA,NA,NA,NA,NA,NA,NA,NA,NA,NA,NA,NA,NA,NA,NA,NA,NA,NA,NA,NA,NA,NA,NA,NA,NA,NA,NA
SUPAMT70702,3QEMNNSB23YM02VXF85IKLMMWZD7D2,D2BB15CF-97AE-4500-88E4-CB642C15EDB6,2023-09-28_09h33.42.733,WP_VExplicitOC_LH,2022.2.5,Win32,162.2586403,100,3.2535,2.0014,NA,NA,NA,NA,NA,frustrated,"frustrated, not frustrated","more frustrated, less frustrated",NA,NA,NA,NA,NA,NA,NA,NA,NA,NA,NA,NA,NA,NA,NA,0,1,1,1,1,NA,NA,NA,NA,NA,NA,NA,NA,NA,NA,NA,NA,NA,NA,NA,NA,NA,NA,NA,NA,NA,NA,NA,NA,NA,NA,NA,NA
SUPAMT70702,3QEMNNSB23YM02VXF85IKLMMWZD7D2,D2BB15CF-97AE-4500-88E4-CB642C15EDB6,2023-09-28_09h33.42.733,WP_VExplicitOC_LH,2022.2.5,Win32,162.2586403,72.59259259,4.0983,2.0014,NA,NA,NA,NA,NA,happy,"unhappy, happy","less happy, more happy",NA,NA,NA,NA,NA,NA,NA,NA,NA,NA,NA,NA,NA,NA,NA,0,2,2,0,1,NA,NA,NA,NA,NA,NA,NA,NA,NA,NA,NA,NA,NA,NA,NA,NA,NA,NA,NA,NA,NA,NA,NA,NA,NA,NA,NA,NA
SUPAMT70702,3QEMNNSB23YM02VXF85IKLMMWZD7D2,D2BB15CF-97AE-4500-88E4-CB642C15EDB6,2023-09-28_09h33.42.733,WP_VExplicitOC_LH,2022.2.5,Win32,162.2586403,NA,NA,NA,NA,NA,NA,NA,NA,NA,NA,NA,NA,NA,NA,NA,NA,NA,NA,NA,NA,NA,NA,NA,NA,NA,NA,NA,NA,NA,NA,NA,1,0,1,0,1,NA,NA,NA,NA,NA,NA,NA,NA,NA,NA,NA,NA,NA,NA,NA,NA,NA,NA,NA,NA,NA,NA,NA
SUPAMT70702,3QEMNNSB23YM02VXF85IKLMMWZD7D2,D2BB15CF-97AE-4500-88E4-CB642C15EDB6,2023-09-28_09h33.42.733,WP_VExplicitOC_LH,2022.2.5,Win32,162.2586403,-33.14814815,3.0145,2.0054,NA,NA,NA,NA,NA,bored,"bored, not bored","more bored, less bored",NA,NA,NA,NA,NA,NA,NA,NA,NA,NA,NA,NA,NA,NA,NA,0,0,0,2,1,NA,NA,NA,NA,NA,NA,NA,NA,NA,NA,NA,NA,NA,NA,NA,NA,NA,NA,NA,NA,NA,NA,NA,NA,NA,NA,NA,NA
SUPAMT70702,3QEMNNSB23YM02VXF85IKLMMWZD7D2,D2BB15CF-97AE-4500-88E4-CB642C15EDB6,2023-09-28_09h33.42.733,WP_VExplicitOC_LH,2022.2.5,Win32,162.2586403,82.96296296,2.7182,2.0011,NA,NA,NA,NA,NA,happy,"unhappy, happy","less happy, more happy",NA,NA,NA,NA,NA,NA,NA,NA,NA,NA,NA,NA,NA,NA,NA,0,1,1,0,1,NA,NA,NA,NA,NA,NA,NA,NA,NA,NA,NA,NA,NA,NA,NA,NA,NA,NA,NA,NA,NA,NA,NA,NA,NA,NA,NA,NA
SUPAMT70702,3QEMNNSB23YM02VXF85IKLMMWZD7D2,D2BB15CF-97AE-4500-88E4-CB642C15EDB6,2023-09-28_09h33.42.733,WP_VExplicitOC_LH,2022.2.5,Win32,162.2586403,99.44444444,3.2734,2.0013,NA,NA,NA,NA,NA,frustrated,"frustrated, not frustrated","more frustrated, less frustrated",NA,NA,NA,NA,NA,NA,NA,NA,NA,NA,NA,NA,NA,NA,NA,0,2,2,1,1,NA,NA,NA,NA,NA,NA,NA,NA,NA,NA,NA,NA,NA,NA,NA,NA,NA,NA,NA,NA,NA,NA,NA,NA,NA,NA,NA,NA
SUPAMT70702,3QEMNNSB23YM02VXF85IKLMMWZD7D2,D2BB15CF-97AE-4500-88E4-CB642C15EDB6,2023-09-28_09h33.42.733,WP_VExplicitOC_LH,2022.2.5,Win32,162.2586403,NA,NA,NA,NA,NA,NA,NA,NA,NA,NA,NA,NA,NA,NA,NA,NA,NA,NA,NA,NA,NA,NA,NA,NA,NA,NA,NA,NA,NA,NA,NA,2,0,2,0,1,NA,NA,NA,NA,NA,NA,NA,NA,NA,NA,NA,NA,NA,NA,NA,NA,NA,NA,NA,NA,NA,NA,NA
SUPAMT70702,3QEMNNSB23YM02VXF85IKLMMWZD7D2,D2BB15CF-97AE-4500-88E4-CB642C15EDB6,2023-09-28_09h33.42.733,WP_VExplicitOC_LH,2022.2.5,Win32,162.2586403,-40.37037037,3.5576,2,NA,NA,NA,NA,NA,bored,"bored, not bored","more bored, less bored",NA,NA,NA,NA,NA,NA,NA,NA,NA,NA,NA,NA,NA,NA,NA,0,0,0,2,1,NA,NA,NA,NA,NA,NA,NA,NA,NA,NA,NA,NA,NA,NA,NA,NA,NA,NA,NA,NA,NA,NA,NA,NA,NA,NA,NA,NA
SUPAMT70702,3QEMNNSB23YM02VXF85IKLMMWZD7D2,D2BB15CF-97AE-4500-88E4-CB642C15EDB6,2023-09-28_09h33.42.733,WP_VExplicitOC_LH,2022.2.5,Win32,162.2586403,72.59259259,3.0398,2.001,NA,NA,NA,NA,NA,happy,"unhappy, happy","less happy, more happy",NA,NA,NA,NA,NA,NA,NA,NA,NA,NA,NA,NA,NA,NA,NA,0,1,1,0,1,NA,NA,NA,NA,NA,NA,NA,NA,NA,NA,NA,NA,NA,NA,NA,NA,NA,NA,NA,NA,NA,NA,NA,NA,NA,NA,NA,NA
SUPAMT70702,3QEMNNSB23YM02VXF85IKLMMWZD7D2,D2BB15CF-97AE-4500-88E4-CB642C15EDB6,2023-09-28_09h33.42.733,WP_VExplicitOC_LH,2022.2.5,Win32,162.2586403,85.55555556,5.0346,2.0015,NA,NA,NA,NA,NA,frustrated,"frustrated, not frustrated","more frustrated, less frustrated",NA,NA,NA,NA,NA,NA,NA,NA,NA,NA,NA,NA,NA,NA,NA,0,2,2,1,1,NA,NA,NA,NA,NA,NA,NA,NA,NA,NA,NA,NA,NA,NA,NA,NA,NA,NA,NA,NA,NA,NA,NA,NA,NA,NA,NA,NA
SUPAMT70702,3QEMNNSB23YM02VXF85IKLMMWZD7D2,D2BB15CF-97AE-4500-88E4-CB642C15EDB6,2023-09-28_09h33.42.733,WP_VExplicitOC_LH,2022.2.5,Win32,162.2586403,NA,NA,NA,NA,NA,NA,NA,NA,NA,NA,NA,NA,NA,NA,NA,NA,NA,NA,NA,NA,NA,NA,NA,NA,NA,NA,NA,NA,NA,NA,NA,3,0,3,0,1,NA,NA,NA,NA,NA,NA,NA,NA,NA,NA,NA,NA,NA,NA,NA,NA,NA,NA,NA,NA,NA,NA,NA
SUPAMT70702,3QEMNNSB23YM02VXF85IKLMMWZD7D2,D2BB15CF-97AE-4500-88E4-CB642C15EDB6,2023-09-28_09h33.42.733,WP_VExplicitOC_LH,2022.2.5,Win32,162.2586403,79.07407407,4.1839,2.0027,NA,NA,NA,NA,NA,happy,"unhappy, happy","less happy, more happy",NA,NA,NA,NA,NA,NA,NA,NA,NA,NA,NA,NA,NA,NA,NA,0,0,0,0,1,NA,NA,NA,NA,NA,NA,NA,NA,NA,NA,NA,NA,NA,NA,NA,NA,NA,NA,NA,NA,NA,NA,NA,NA,NA,NA,NA,NA
SUPAMT70702,3QEMNNSB23YM02VXF85IKLMMWZD7D2,D2BB15CF-97AE-4500-88E4-CB642C15EDB6,2023-09-28_09h33.42.733,WP_VExplicitOC_LH,2022.2.5,Win32,162.2586403,81.66666667,4.8661,2.0016,NA,NA,NA,NA,NA,frustrated,"frustrated, not frustrated","more frustrated, less frustrated",NA,NA,NA,NA,NA,NA,NA,NA,NA,NA,NA,NA,NA,NA,NA,0,1,1,1,1,NA,NA,NA,NA,NA,NA,NA,NA,NA,NA,NA,NA,NA,NA,NA,NA,NA,NA,NA,NA,NA,NA,NA,NA,NA,NA,NA,NA
SUPAMT70702,3QEMNNSB23YM02VXF85IKLMMWZD7D2,D2BB15CF-97AE-4500-88E4-CB642C15EDB6,2023-09-28_09h33.42.733,WP_VExplicitOC_LH,2022.2.5,Win32,162.2586403,-41.2962963,5.8564,2.0018,NA,NA,NA,NA,NA,bored,"bored, not bored","more bored, less bored",NA,NA,NA,NA,NA,NA,NA,NA,NA,NA,NA,NA,NA,NA,NA,0,2,2,2,1,NA,NA,NA,NA,NA,NA,NA,NA,NA,NA,NA,NA,NA,NA,NA,NA,NA,NA,NA,NA,NA,NA,NA,NA,NA,NA,NA,NA
SUPAMT70702,3QEMNNSB23YM02VXF85IKLMMWZD7D2,D2BB15CF-97AE-4500-88E4-CB642C15EDB6,2023-09-28_09h33.42.733,WP_VExplicitOC_LH,2022.2.5,Win32,162.2586403,NA,NA,NA,NA,NA,NA,NA,NA,NA,NA,NA,NA,NA,NA,NA,NA,NA,NA,NA,NA,NA,NA,NA,NA,NA,NA,NA,NA,NA,NA,NA,4,0,4,0,1,NA,NA,NA,NA,NA,NA,NA,NA,NA,NA,NA,NA,NA,NA,NA,NA,NA,NA,NA,NA,NA,NA,NA
SUPAMT70702,3QEMNNSB23YM02VXF85IKLMMWZD7D2,D2BB15CF-97AE-4500-88E4-CB642C15EDB6,2023-09-28_09h33.42.733,WP_VExplicitOC_LH,2022.2.5,Win32,162.2586403,-41.85185185,3.3757,2.0028,NA,NA,NA,NA,NA,bored,"bored, not bored","more bored, less bored",NA,NA,NA,NA,NA,NA,NA,NA,NA,NA,NA,NA,NA,NA,NA,0,0,0,2,1,NA,NA,NA,NA,NA,NA,NA,NA,NA,NA,NA,NA,NA,NA,NA,NA,NA,NA,NA,NA,NA,NA,NA,NA,NA,NA,NA,NA
SUPAMT70702,3QEMNNSB23YM02VXF85IKLMMWZD7D2,D2BB15CF-97AE-4500-88E4-CB642C15EDB6,2023-09-28_09h33.42.733,WP_VExplicitOC_LH,2022.2.5,Win32,162.2586403,84.62962963,4.8425,2.0013,NA,NA,NA,NA,NA,frustrated,"frustrated, not frustrated","more frustrated, less frustrated",NA,NA,NA,NA,NA,NA,NA,NA,NA,NA,NA,NA,NA,NA,NA,0,1,1,1,1,NA,NA,NA,NA,NA,NA,NA,NA,NA,NA,NA,NA,NA,NA,NA,NA,NA,NA,NA,NA,NA,NA,NA,NA,NA,NA,NA,NA
SUPAMT70702,3QEMNNSB23YM02VXF85IKLMMWZD7D2,D2BB15CF-97AE-4500-88E4-CB642C15EDB6,2023-09-28_09h33.42.733,WP_VExplicitOC_LH,2022.2.5,Win32,162.2586403,77.03703704,4.9598,2.002,NA,NA,NA,NA,NA,happy,"unhappy, happy","less happy, more happy",NA,NA,NA,NA,NA,NA,NA,NA,NA,NA,NA,NA,NA,NA,NA,0,2,2,0,1,NA,NA,NA,NA,NA,NA,NA,NA,NA,NA,NA,NA,NA,NA,NA,NA,NA,NA,NA,NA,NA,NA,NA,NA,NA,NA,NA,NA
SUPAMT70702,3QEMNNSB23YM02VXF85IKLMMWZD7D2,D2BB15CF-97AE-4500-88E4-CB642C15EDB6,2023-09-28_09h33.42.733,WP_VExplicitOC_LH,2022.2.5,Win32,162.2586403,NA,NA,NA,NA,NA,NA,NA,NA,NA,NA,NA,NA,NA,NA,NA,NA,NA,NA,NA,NA,NA,NA,NA,NA,NA,NA,NA,NA,NA,NA,NA,5,0,5,0,1,NA,NA,NA,NA,NA,NA,NA,NA,NA,NA,NA,NA,NA,NA,NA,NA,NA,NA,NA,NA,NA,NA,NA
SUPAMT70702,3QEMNNSB23YM02VXF85IKLMMWZD7D2,D2BB15CF-97AE-4500-88E4-CB642C15EDB6,2023-09-28_09h33.42.733,WP_VExplicitOC_LH,2022.2.5,Win32,162.2586403,84.62962963,3.7919,2.0032,NA,NA,NA,NA,NA,frustrated,"frustrated, not frustrated","more frustrated, less frustrated",NA,NA,NA,NA,NA,NA,NA,NA,NA,NA,NA,NA,NA,NA,NA,0,0,0,1,1,NA,NA,NA,NA,NA,NA,NA,NA,NA,NA,NA,NA,NA,NA,NA,NA,NA,NA,NA,NA,NA,NA,NA,NA,NA,NA,NA,NA
SUPAMT70702,3QEMNNSB23YM02VXF85IKLMMWZD7D2,D2BB15CF-97AE-4500-88E4-CB642C15EDB6,2023-09-28_09h33.42.733,WP_VExplicitOC_LH,2022.2.5,Win32,162.2586403,80.74074074,4.2803,2.005,NA,NA,NA,NA,NA,happy,"unhappy, happy","less happy, more happy",NA,NA,NA,NA,NA,NA,NA,NA,NA,NA,NA,NA,NA,NA,NA,0,1,1,0,1,NA,NA,NA,NA,NA,NA,NA,NA,NA,NA,NA,NA,NA,NA,NA,NA,NA,NA,NA,NA,NA,NA,NA,NA,NA,NA,NA,NA
SUPAMT70702,3QEMNNSB23YM02VXF85IKLMMWZD7D2,D2BB15CF-97AE-4500-88E4-CB642C15EDB6,2023-09-28_09h33.42.733,WP_VExplicitOC_LH,2022.2.5,Win32,162.2586403,-35,4.2208,2.0015,NA,NA,NA,NA,NA,bored,"bored, not bored","more bored, less bored",NA,NA,NA,NA,NA,NA,NA,NA,NA,NA,NA,NA,NA,NA,NA,0,2,2,2,1,NA,NA,NA,NA,NA,NA,NA,NA,NA,NA,NA,NA,NA,NA,NA,NA,NA,NA,NA,NA,NA,NA,NA,NA,NA,NA,NA,NA
SUPAMT70702,3QEMNNSB23YM02VXF85IKLMMWZD7D2,D2BB15CF-97AE-4500-88E4-CB642C15EDB6,2023-09-28_09h33.42.733,WP_VExplicitOC_LH,2022.2.5,Win32,162.2586403,NA,NA,NA,NA,NA,NA,NA,NA,NA,NA,NA,NA,NA,NA,NA,NA,NA,NA,NA,NA,NA,NA,NA,NA,NA,NA,NA,NA,NA,NA,NA,6,0,6,0,1,NA,NA,NA,NA,NA,NA,NA,NA,NA,NA,NA,NA,NA,NA,NA,NA,NA,NA,NA,NA,NA,NA,NA
SUPAMT70702,3QEMNNSB23YM02VXF85IKLMMWZD7D2,D2BB15CF-97AE-4500-88E4-CB642C15EDB6,2023-09-28_09h33.42.733,WP_VExplicitOC_LH,2022.2.5,Win32,162.2586403,83.51851852,5.2045,2.0036,NA,NA,NA,NA,NA,frustrated,"frustrated, not frustrated","more frustrated, less frustrated",NA,NA,NA,NA,NA,NA,NA,NA,NA,NA,NA,NA,NA,NA,NA,0,0,0,1,1,NA,NA,NA,NA,NA,NA,NA,NA,NA,NA,NA,NA,NA,NA,NA,NA,NA,NA,NA,NA,NA,NA,NA,NA,NA,NA,NA,NA
SUPAMT70702,3QEMNNSB23YM02VXF85IKLMMWZD7D2,D2BB15CF-97AE-4500-88E4-CB642C15EDB6,2023-09-28_09h33.42.733,WP_VExplicitOC_LH,2022.2.5,Win32,162.2586403,69.81481481,3.5242,2.0016,NA,NA,NA,NA,NA,happy,"unhappy, happy","less happy, more happy",NA,NA,NA,NA,NA,NA,NA,NA,NA,NA,NA,NA,NA,NA,NA,0,1,1,0,1,NA,NA,NA,NA,NA,NA,NA,NA,NA,NA,NA,NA,NA,NA,NA,NA,NA,NA,NA,NA,NA,NA,NA,NA,NA,NA,NA,NA
SUPAMT70702,3QEMNNSB23YM02VXF85IKLMMWZD7D2,D2BB15CF-97AE-4500-88E4-CB642C15EDB6,2023-09-28_09h33.42.733,WP_VExplicitOC_LH,2022.2.5,Win32,162.2586403,-50.92592593,4.7345,2.0014,NA,NA,NA,NA,NA,bored,"bored, not bored","more bored, less bored",NA,NA,NA,NA,NA,NA,NA,NA,NA,NA,NA,NA,NA,NA,NA,0,2,2,2,1,NA,NA,NA,NA,NA,NA,NA,NA,NA,NA,NA,NA,NA,NA,NA,NA,NA,NA,NA,NA,NA,NA,NA,NA,NA,NA,NA,NA
SUPAMT70702,3QEMNNSB23YM02VXF85IKLMMWZD7D2,D2BB15CF-97AE-4500-88E4-CB642C15EDB6,2023-09-28_09h33.42.733,WP_VExplicitOC_LH,2022.2.5,Win32,162.2586403,NA,NA,NA,NA,NA,NA,NA,NA,NA,NA,NA,NA,NA,NA,NA,NA,NA,NA,NA,NA,NA,NA,NA,NA,NA,NA,NA,NA,NA,NA,NA,7,0,7,0,1,NA,NA,NA,NA,NA,NA,NA,NA,NA,NA,NA,NA,NA,NA,NA,NA,NA,NA,NA,NA,NA,NA,NA
SUPAMT70702,3QEMNNSB23YM02VXF85IKLMMWZD7D2,D2BB15CF-97AE-4500-88E4-CB642C15EDB6,2023-09-28_09h33.42.733,WP_VExplicitOC_LH,2022.2.5,Win32,162.2586403,-48.51851852,4.4644,2.0028,NA,NA,NA,NA,NA,bored,"bored, not bored","more bored, less bored",NA,NA,NA,NA,NA,NA,NA,NA,NA,NA,NA,NA,NA,NA,NA,0,0,0,2,1,NA,NA,NA,NA,NA,NA,NA,NA,NA,NA,NA,NA,NA,NA,NA,NA,NA,NA,NA,NA,NA,NA,NA,NA,NA,NA,NA,NA
SUPAMT70702,3QEMNNSB23YM02VXF85IKLMMWZD7D2,D2BB15CF-97AE-4500-88E4-CB642C15EDB6,2023-09-28_09h33.42.733,WP_VExplicitOC_LH,2022.2.5,Win32,162.2586403,65.37037037,5.5277,2.0013,NA,NA,NA,NA,NA,happy,"unhappy, happy","less happy, more happy",NA,NA,NA,NA,NA,NA,NA,NA,NA,NA,NA,NA,NA,NA,NA,0,1,1,0,1,NA,NA,NA,NA,NA,NA,NA,NA,NA,NA,NA,NA,NA,NA,NA,NA,NA,NA,NA,NA,NA,NA,NA,NA,NA,NA,NA,NA
SUPAMT70702,3QEMNNSB23YM02VXF85IKLMMWZD7D2,D2BB15CF-97AE-4500-88E4-CB642C15EDB6,2023-09-28_09h33.42.733,WP_VExplicitOC_LH,2022.2.5,Win32,162.2586403,78.33333333,5.5379,2.0007,NA,NA,NA,NA,NA,frustrated,"frustrated, not frustrated","more frustrated, less frustrated",NA,NA,NA,NA,NA,NA,NA,NA,NA,NA,NA,NA,NA,NA,NA,0,2,2,1,1,NA,NA,NA,NA,NA,NA,NA,NA,NA,NA,NA,NA,NA,NA,NA,NA,NA,NA,NA,NA,NA,NA,NA,NA,NA,NA,NA,NA
SUPAMT70702,3QEMNNSB23YM02VXF85IKLMMWZD7D2,D2BB15CF-97AE-4500-88E4-CB642C15EDB6,2023-09-28_09h33.42.733,WP_VExplicitOC_LH,2022.2.5,Win32,162.2586403,NA,NA,NA,NA,NA,NA,NA,NA,NA,NA,NA,NA,NA,NA,NA,NA,NA,NA,NA,NA,NA,NA,NA,NA,NA,NA,NA,NA,NA,NA,NA,8,0,8,0,1,NA,NA,NA,NA,NA,NA,NA,NA,NA,NA,NA,NA,NA,NA,NA,NA,NA,NA,NA,NA,NA,NA,NA
SUPAMT70702,3QEMNNSB23YM02VXF85IKLMMWZD7D2,D2BB15CF-97AE-4500-88E4-CB642C15EDB6,2023-09-28_09h33.42.733,WP_VExplicitOC_LH,2022.2.5,Win32,162.2586403,-50,7.318,2.0031,NA,NA,NA,NA,NA,bored,"bored, not bored","more bored, less bored",NA,NA,NA,NA,NA,NA,NA,NA,NA,NA,NA,NA,NA,NA,NA,0,0,0,2,1,NA,NA,NA,NA,NA,NA,NA,NA,NA,NA,NA,NA,NA,NA,NA,NA,NA,NA,NA,NA,NA,NA,NA,NA,NA,NA,NA,NA
SUPAMT70702,3QEMNNSB23YM02VXF85IKLMMWZD7D2,D2BB15CF-97AE-4500-88E4-CB642C15EDB6,2023-09-28_09h33.42.733,WP_VExplicitOC_LH,2022.2.5,Win32,162.2586403,84.25925926,3.5274,2.0016,NA,NA,NA,NA,NA,frustrated,"frustrated, not frustrated","more frustrated, less frustrated",NA,NA,NA,NA,NA,NA,NA,NA,NA,NA,NA,NA,NA,NA,NA,0,1,1,1,1,NA,NA,NA,NA,NA,NA,NA,NA,NA,NA,NA,NA,NA,NA,NA,NA,NA,NA,NA,NA,NA,NA,NA,NA,NA,NA,NA,NA
SUPAMT70702,3QEMNNSB23YM02VXF85IKLMMWZD7D2,D2BB15CF-97AE-4500-88E4-CB642C15EDB6,2023-09-28_09h33.42.733,WP_VExplicitOC_LH,2022.2.5,Win32,162.2586403,67.59259259,5.5354,2.0015,NA,NA,NA,NA,NA,happy,"unhappy, happy","less happy, more happy",NA,NA,NA,NA,NA,NA,NA,NA,NA,NA,NA,NA,NA,NA,NA,0,2,2,0,1,NA,NA,NA,NA,NA,NA,NA,NA,NA,NA,NA,NA,NA,NA,NA,NA,NA,NA,NA,NA,NA,NA,NA,NA,NA,NA,NA,NA
SUPAMT70702,3QEMNNSB23YM02VXF85IKLMMWZD7D2,D2BB15CF-97AE-4500-88E4-CB642C15EDB6,2023-09-28_09h33.42.733,WP_VExplicitOC_LH,2022.2.5,Win32,162.2586403,NA,NA,NA,NA,NA,NA,NA,NA,NA,NA,NA,NA,NA,NA,NA,NA,NA,NA,NA,NA,NA,NA,NA,NA,NA,NA,NA,NA,NA,NA,NA,9,0,9,0,1,NA,NA,NA,NA,NA,NA,NA,NA,NA,NA,NA,NA,NA,NA,NA,NA,NA,NA,NA,NA,NA,NA,NA
SUPAMT70702,3QEMNNSB23YM02VXF85IKLMMWZD7D2,D2BB15CF-97AE-4500-88E4-CB642C15EDB6,2023-09-28_09h33.42.733,WP_VExplicitOC_LH,2022.2.5,Win32,162.2586403,81.11111111,5.2585,2.0029,NA,NA,NA,NA,NA,frustrated,"frustrated, not frustrated","more frustrated, less frustrated",NA,NA,NA,NA,NA,NA,NA,NA,NA,NA,NA,NA,NA,NA,NA,0,0,0,1,1,NA,NA,NA,NA,NA,NA,NA,NA,NA,NA,NA,NA,NA,NA,NA,NA,NA,NA,NA,NA,NA,NA,NA,NA,NA,NA,NA,NA
SUPAMT70702,3QEMNNSB23YM02VXF85IKLMMWZD7D2,D2BB15CF-97AE-4500-88E4-CB642C15EDB6,2023-09-28_09h33.42.733,WP_VExplicitOC_LH,2022.2.5,Win32,162.2586403,62.59259259,4.1731,2.0013,NA,NA,NA,NA,NA,happy,"unhappy, happy","less happy, more happy",NA,NA,NA,NA,NA,NA,NA,NA,NA,NA,NA,NA,NA,NA,NA,0,1,1,0,1,NA,NA,NA,NA,NA,NA,NA,NA,NA,NA,NA,NA,NA,NA,NA,NA,NA,NA,NA,NA,NA,NA,NA,NA,NA,NA,NA,NA
SUPAMT70702,3QEMNNSB23YM02VXF85IKLMMWZD7D2,D2BB15CF-97AE-4500-88E4-CB642C15EDB6,2023-09-28_09h33.42.733,WP_VExplicitOC_LH,2022.2.5,Win32,162.2586403,-48.33333333,4.3571,2.0012,NA,NA,NA,NA,NA,bored,"bored, not bored","more bored, less bored",NA,NA,NA,NA,NA,NA,NA,NA,NA,NA,NA,NA,NA,NA,NA,0,2,2,2,1,NA,NA,NA,NA,NA,NA,NA,NA,NA,NA,NA,NA,NA,NA,NA,NA,NA,NA,NA,NA,NA,NA,NA,NA,NA,NA,NA,NA
SUPAMT70702,3QEMNNSB23YM02VXF85IKLMMWZD7D2,D2BB15CF-97AE-4500-88E4-CB642C15EDB6,2023-09-28_09h33.42.733,WP_VExplicitOC_LH,2022.2.5,Win32,162.2586403,NA,NA,NA,NA,NA,NA,NA,NA,NA,NA,NA,NA,NA,NA,NA,NA,NA,NA,NA,NA,NA,NA,NA,NA,NA,NA,NA,NA,NA,NA,NA,10,0,10,0,1,NA,NA,NA,NA,NA,NA,NA,NA,NA,NA,NA,NA,NA,NA,NA,NA,NA,NA,NA,NA,NA,NA,NA
SUPAMT70702,3QEMNNSB23YM02VXF85IKLMMWZD7D2,D2BB15CF-97AE-4500-88E4-CB642C15EDB6,2023-09-28_09h33.42.733,WP_VExplicitOC_LH,2022.2.5,Win32,162.2586403,62.40740741,5.3264,2.0029,NA,NA,NA,NA,NA,happy,"unhappy, happy","less happy, more happy",NA,NA,NA,NA,NA,NA,NA,NA,NA,NA,NA,NA,NA,NA,NA,0,0,0,0,1,NA,NA,NA,NA,NA,NA,NA,NA,NA,NA,NA,NA,NA,NA,NA,NA,NA,NA,NA,NA,NA,NA,NA,NA,NA,NA,NA,NA
SUPAMT70702,3QEMNNSB23YM02VXF85IKLMMWZD7D2,D2BB15CF-97AE-4500-88E4-CB642C15EDB6,2023-09-28_09h33.42.733,WP_VExplicitOC_LH,2022.2.5,Win32,162.2586403,81.2962963,6.1161,2.0008,NA,NA,NA,NA,NA,frustrated,"frustrated, not frustrated","more frustrated, less frustrated",NA,NA,NA,NA,NA,NA,NA,NA,NA,NA,NA,NA,NA,NA,NA,0,1,1,1,1,NA,NA,NA,NA,NA,NA,NA,NA,NA,NA,NA,NA,NA,NA,NA,NA,NA,NA,NA,NA,NA,NA,NA,NA,NA,NA,NA,NA
SUPAMT70702,3QEMNNSB23YM02VXF85IKLMMWZD7D2,D2BB15CF-97AE-4500-88E4-CB642C15EDB6,2023-09-28_09h33.42.733,WP_VExplicitOC_LH,2022.2.5,Win32,162.2586403,-48.88888889,5.0771,2.0015,NA,NA,NA,NA,NA,bored,"bored, not bored","more bored, less bored",NA,NA,NA,NA,NA,NA,NA,NA,NA,NA,NA,NA,NA,NA,NA,0,2,2,2,1,NA,NA,NA,NA,NA,NA,NA,NA,NA,NA,NA,NA,NA,NA,NA,NA,NA,NA,NA,NA,NA,NA,NA,NA,NA,NA,NA,NA
SUPAMT70702,3QEMNNSB23YM02VXF85IKLMMWZD7D2,D2BB15CF-97AE-4500-88E4-CB642C15EDB6,2023-09-28_09h33.42.733,WP_VExplicitOC_LH,2022.2.5,Win32,162.2586403,NA,NA,NA,NA,NA,NA,NA,NA,NA,NA,NA,NA,NA,NA,NA,NA,NA,NA,NA,NA,NA,NA,NA,NA,NA,NA,NA,NA,NA,NA,NA,11,0,11,0,1,NA,NA,NA,NA,NA,NA,NA,NA,NA,NA,NA,NA,NA,NA,NA,NA,NA,NA,NA,NA,NA,NA,NA
SUPAMT70702,3QEMNNSB23YM02VXF85IKLMMWZD7D2,D2BB15CF-97AE-4500-88E4-CB642C15EDB6,2023-09-28_09h33.42.733,WP_VExplicitOC_LH,2022.2.5,Win32,162.2586403,72.59259259,5.0767,2.0014,NA,NA,NA,NA,NA,frustrated,"frustrated, not frustrated","more frustrated, less frustrated",NA,NA,NA,NA,NA,NA,NA,NA,NA,NA,NA,NA,NA,NA,NA,0,0,0,1,1,NA,NA,NA,NA,NA,NA,NA,NA,NA,NA,NA,NA,NA,NA,NA,NA,NA,NA,NA,NA,NA,NA,NA,NA,NA,NA,NA,NA
SUPAMT70702,3QEMNNSB23YM02VXF85IKLMMWZD7D2,D2BB15CF-97AE-4500-88E4-CB642C15EDB6,2023-09-28_09h33.42.733,WP_VExplicitOC_LH,2022.2.5,Win32,162.2586403,60.74074074,4.774,2.0014,NA,NA,NA,NA,NA,happy,"unhappy, happy","less happy, more happy",NA,NA,NA,NA,NA,NA,NA,NA,NA,NA,NA,NA,NA,NA,NA,0,1,1,0,1,NA,NA,NA,NA,NA,NA,NA,NA,NA,NA,NA,NA,NA,NA,NA,NA,NA,NA,NA,NA,NA,NA,NA,NA,NA,NA,NA,NA
SUPAMT70702,3QEMNNSB23YM02VXF85IKLMMWZD7D2,D2BB15CF-97AE-4500-88E4-CB642C15EDB6,2023-09-28_09h33.42.733,WP_VExplicitOC_LH,2022.2.5,Win32,162.2586403,NA,NA,2.0015,NA,NA,NA,NA,NA,bored,"bored, not bored","more bored, less bored",NA,NA,NA,NA,NA,NA,NA,NA,NA,NA,NA,NA,NA,NA,NA,0,2,2,2,1,NA,NA,NA,NA,NA,NA,NA,NA,NA,NA,NA,NA,NA,NA,NA,NA,NA,NA,NA,NA,NA,NA,NA,NA,NA,NA,NA,NA
SUPAMT70702,3QEMNNSB23YM02VXF85IKLMMWZD7D2,D2BB15CF-97AE-4500-88E4-CB642C15EDB6,2023-09-28_09h33.42.733,WP_VExplicitOC_LH,2022.2.5,Win32,162.2586403,NA,NA,NA,NA,NA,NA,NA,NA,NA,NA,NA,NA,NA,NA,NA,NA,NA,NA,NA,NA,NA,NA,NA,NA,NA,NA,NA,NA,NA,NA,NA,12,0,12,0,1,NA,NA,NA,NA,NA,NA,NA,NA,NA,NA,NA,NA,NA,NA,NA,NA,NA,NA,NA,NA,NA,NA,NA
SUPAMT70702,3QEMNNSB23YM02VXF85IKLMMWZD7D2,D2BB15CF-97AE-4500-88E4-CB642C15EDB6,2023-09-28_09h33.42.733,WP_VExplicitOC_LH,2022.2.5,Win32,162.2586403,-62.59259259,4.1813,2.0032,NA,NA,NA,NA,NA,bored,"bored, not bored","more bored, less bored",NA,NA,NA,NA,NA,NA,NA,NA,NA,NA,NA,NA,NA,NA,NA,0,0,0,2,1,NA,NA,NA,NA,NA,NA,NA,NA,NA,NA,NA,NA,NA,NA,NA,NA,NA,NA,NA,NA,NA,NA,NA,NA,NA,NA,NA,NA
SUPAMT70702,3QEMNNSB23YM02VXF85IKLMMWZD7D2,D2BB15CF-97AE-4500-88E4-CB642C15EDB6,2023-09-28_09h33.42.733,WP_VExplicitOC_LH,2022.2.5,Win32,162.2586403,62.40740741,3.4744,2.0017,NA,NA,NA,NA,NA,happy,"unhappy, happy","less happy, more happy",NA,NA,NA,NA,NA,NA,NA,NA,NA,NA,NA,NA,NA,NA,NA,0,1,1,0,1,NA,NA,NA,NA,NA,NA,NA,NA,NA,NA,NA,NA,NA,NA,NA,NA,NA,NA,NA,NA,NA,NA,NA,NA,NA,NA,NA,NA
SUPAMT70702,3QEMNNSB23YM02VXF85IKLMMWZD7D2,D2BB15CF-97AE-4500-88E4-CB642C15EDB6,2023-09-28_09h33.42.733,WP_VExplicitOC_LH,2022.2.5,Win32,162.2586403,68.88888889,4.334,2.0004,NA,NA,NA,NA,NA,frustrated,"frustrated, not frustrated","more frustrated, less frustrated",NA,NA,NA,NA,NA,NA,NA,NA,NA,NA,NA,NA,NA,NA,NA,0,2,2,1,1,NA,NA,NA,NA,NA,NA,NA,NA,NA,NA,NA,NA,NA,NA,NA,NA,NA,NA,NA,NA,NA,NA,NA,NA,NA,NA,NA,NA
SUPAMT70702,3QEMNNSB23YM02VXF85IKLMMWZD7D2,D2BB15CF-97AE-4500-88E4-CB642C15EDB6,2023-09-28_09h33.42.733,WP_VExplicitOC_LH,2022.2.5,Win32,162.2586403,NA,NA,NA,NA,NA,NA,NA,NA,NA,NA,NA,NA,NA,NA,NA,NA,NA,NA,NA,NA,NA,NA,NA,NA,NA,NA,NA,NA,NA,NA,NA,13,0,13,0,1,NA,NA,NA,NA,NA,NA,NA,NA,NA,NA,NA,NA,NA,NA,NA,NA,NA,NA,NA,NA,NA,NA,NA
SUPAMT70702,3QEMNNSB23YM02VXF85IKLMMWZD7D2,D2BB15CF-97AE-4500-88E4-CB642C15EDB6,2023-09-28_09h33.42.733,WP_VExplicitOC_LH,2022.2.5,Win32,162.2586403,59.81481481,3.3049,2.0048,NA,NA,NA,NA,NA,happy,"unhappy, happy","less happy, more happy",NA,NA,NA,NA,NA,NA,NA,NA,NA,NA,NA,NA,NA,NA,NA,0,0,0,0,1,NA,NA,NA,NA,NA,NA,NA,NA,NA,NA,NA,NA,NA,NA,NA,NA,NA,NA,NA,NA,NA,NA,NA,NA,NA,NA,NA,NA
SUPAMT70702,3QEMNNSB23YM02VXF85IKLMMWZD7D2,D2BB15CF-97AE-4500-88E4-CB642C15EDB6,2023-09-28_09h33.42.733,WP_VExplicitOC_LH,2022.2.5,Win32,162.2586403,69.25925926,4.1337,2.0014,NA,NA,NA,NA,NA,frustrated,"frustrated, not frustrated","more frustrated, less frustrated",NA,NA,NA,NA,NA,NA,NA,NA,NA,NA,NA,NA,NA,NA,NA,0,1,1,1,1,NA,NA,NA,NA,NA,NA,NA,NA,NA,NA,NA,NA,NA,NA,NA,NA,NA,NA,NA,NA,NA,NA,NA,NA,NA,NA,NA,NA
SUPAMT70702,3QEMNNSB23YM02VXF85IKLMMWZD7D2,D2BB15CF-97AE-4500-88E4-CB642C15EDB6,2023-09-28_09h33.42.733,WP_VExplicitOC_LH,2022.2.5,Win32,162.2586403,-65,5.756,2.0015,NA,NA,NA,NA,NA,bored,"bored, not bored","more bored, less bored",NA,NA,NA,NA,NA,NA,NA,NA,NA,NA,NA,NA,NA,NA,NA,0,2,2,2,1,NA,NA,NA,NA,NA,NA,NA,NA,NA,NA,NA,NA,NA,NA,NA,NA,NA,NA,NA,NA,NA,NA,NA,NA,NA,NA,NA,NA
SUPAMT70702,3QEMNNSB23YM02VXF85IKLMMWZD7D2,D2BB15CF-97AE-4500-88E4-CB642C15EDB6,2023-09-28_09h33.42.733,WP_VExplicitOC_LH,2022.2.5,Win32,162.2586403,NA,NA,NA,NA,NA,NA,NA,NA,NA,NA,NA,NA,NA,NA,NA,NA,NA,NA,NA,NA,NA,NA,NA,NA,NA,NA,NA,NA,NA,NA,NA,14,0,14,0,1,NA,NA,NA,NA,NA,NA,NA,NA,NA,NA,NA,NA,NA,NA,NA,NA,NA,NA,NA,NA,NA,NA,NA
SUPAMT70702,3QEMNNSB23YM02VXF85IKLMMWZD7D2,D2BB15CF-97AE-4500-88E4-CB642C15EDB6,2023-09-28_09h33.42.733,WP_VExplicitOC_LH,2022.2.5,Win32,162.2586403,NA,NA,NA,NA,NA,NA,NA,NA,NA,NA,NA,NA,NA,NA,NA,NA,NA,NA,NA,NA,NA,NA,NA,NA,NA,NA,NA,NA,NA,NA,NA,NA,NA,NA,NA,NA,NA,NA,NA,NA,NA,NA,NA,NA,NA,NA,NA,NA,NA,NA,NA,NA,NA,NA,NA,NA,NA,NA,NA
SUPAMT70702,3QEMNNSB23YM02VXF85IKLMMWZD7D2,D2BB15CF-97AE-4500-88E4-CB642C15EDB6,2023-09-28_09h33.42.733,WP_VExplicitOC_LH,2022.2.5,Win32,162.2586403,NA,NA,NA,NA,NA,NA,NA,NA,NA,NA,NA,NA,NA,NA,NA,NA,NA,NA,NA,NA,NA,NA,NA,NA,NA,NA,NA,NA,NA,NA,NA,NA,NA,NA,NA,NA,NA,NA,NA,NA,NA,NA,NA,NA,NA,NA,NA,NA,NA,NA,NA,NA,NA,NA,NA,NA,NA,NA,NA
SUPAMT70702,3QEMNNSB23YM02VXF85IKLMMWZD7D2,D2BB15CF-97AE-4500-88E4-CB642C15EDB6,2023-09-28_09h33.42.733,WP_VExplicitOC_LH,2022.2.5,Win32,162.2586403,NA,NA,NA,NA,NA,NA,NA,NA,NA,NA,NA,NA,NA,NA,NA,NA,NA,NA,rest (looking at a fixed cross),001.png,NA,NA,NA,NA,NA,NA,NA,NA,NA,NA,NA,NA,NA,NA,NA,NA,NA,NA,0,0,0,0,1,NA,NA,NA,NA,NA,NA,NA,NA,NA,NA,NA,NA,NA,NA,NA,NA
SUPAMT70702,3QEMNNSB23YM02VXF85IKLMMWZD7D2,D2BB15CF-97AE-4500-88E4-CB642C15EDB6,2023-09-28_09h33.42.733,WP_VExplicitOC_LH,2022.2.5,Win32,162.2586403,NA,NA,NA,NA,NA,NA,NA,NA,NA,NA,NA,NA,NA,NA,NA,NA,NA,NA,stand up,002.png,NA,NA,NA,NA,NA,NA,NA,NA,NA,NA,NA,NA,NA,NA,NA,NA,76.11111111,4.3921,0,1,1,1,1,NA,NA,NA,NA,NA,NA,NA,NA,NA,NA,NA,NA,NA,NA,NA,NA
SUPAMT70702,3QEMNNSB23YM02VXF85IKLMMWZD7D2,D2BB15CF-97AE-4500-88E4-CB642C15EDB6,2023-09-28_09h33.42.733,WP_VExplicitOC_LH,2022.2.5,Win32,162.2586403,NA,NA,NA,NA,NA,NA,NA,NA,NA,NA,NA,NA,NA,NA,NA,NA,NA,NA,stretch,003.png,NA,NA,NA,NA,NA,NA,NA,NA,NA,NA,NA,NA,NA,NA,NA,NA,79.44444444,2.408,0,2,2,2,1,NA,NA,NA,NA,NA,NA,NA,NA,NA,NA,NA,NA,NA,NA,NA,NA
SUPAMT70702,3QEMNNSB23YM02VXF85IKLMMWZD7D2,D2BB15CF-97AE-4500-88E4-CB642C15EDB6,2023-09-28_09h33.42.733,WP_VExplicitOC_LH,2022.2.5,Win32,162.2586403,NA,NA,NA,NA,NA,NA,NA,NA,NA,NA,NA,NA,NA,NA,NA,NA,NA,NA,make a drink,004.png,NA,NA,NA,NA,NA,NA,NA,NA,NA,NA,NA,NA,NA,NA,NA,NA,83.33333333,1.8085,0,3,3,3,1,NA,NA,NA,NA,NA,NA,NA,NA,NA,NA,NA,NA,NA,NA,NA,NA
SUPAMT70702,3QEMNNSB23YM02VXF85IKLMMWZD7D2,D2BB15CF-97AE-4500-88E4-CB642C15EDB6,2023-09-28_09h33.42.733,WP_VExplicitOC_LH,2022.2.5,Win32,162.2586403,NA,NA,NA,NA,NA,NA,NA,NA,NA,NA,NA,NA,NA,NA,NA,NA,NA,NA,scroll social media,005.png,NA,NA,NA,NA,NA,NA,NA,NA,NA,NA,NA,NA,NA,NA,NA,NA,-33.88888889,5.7855,0,4,4,4,1,NA,NA,NA,NA,NA,NA,NA,NA,NA,NA,NA,NA,NA,NA,NA,NA
SUPAMT70702,3QEMNNSB23YM02VXF85IKLMMWZD7D2,D2BB15CF-97AE-4500-88E4-CB642C15EDB6,2023-09-28_09h33.42.733,WP_VExplicitOC_LH,2022.2.5,Win32,162.2586403,NA,NA,NA,NA,NA,NA,NA,NA,NA,NA,NA,NA,NA,NA,NA,NA,NA,NA,listen to music,006.png,NA,NA,NA,NA,NA,NA,NA,NA,NA,NA,NA,NA,NA,NA,NA,NA,100,2.0913,0,5,5,5,1,NA,NA,NA,NA,NA,NA,NA,NA,NA,NA,NA,NA,NA,NA,NA,NA
SUPAMT70702,3QEMNNSB23YM02VXF85IKLMMWZD7D2,D2BB15CF-97AE-4500-88E4-CB642C15EDB6,2023-09-28_09h33.42.733,WP_VExplicitOC_LH,2022.2.5,Win32,162.2586403,NA,NA,NA,NA,NA,NA,NA,NA,NA,NA,NA,NA,NA,NA,NA,NA,NA,NA,daydream,007.png,NA,NA,NA,NA,NA,NA,NA,NA,NA,NA,NA,NA,NA,NA,NA,NA,29.81481481,4.1352,0,6,6,6,1,NA,NA,NA,NA,NA,NA,NA,NA,NA,NA,NA,NA,NA,NA,NA,NA
SUPAMT70702,3QEMNNSB23YM02VXF85IKLMMWZD7D2,D2BB15CF-97AE-4500-88E4-CB642C15EDB6,2023-09-28_09h33.42.733,WP_VExplicitOC_LH,2022.2.5,Win32,162.2586403,NA,NA,NA,NA,NA,NA,NA,NA,NA,NA,NA,NA,NA,NA,NA,NA,NA,NA,watch a short animation,008.png,NA,NA,NA,NA,NA,NA,NA,NA,NA,NA,NA,NA,NA,NA,NA,NA,35.92592593,2.1635,0,7,7,7,1,NA,NA,NA,NA,NA,NA,NA,NA,NA,NA,NA,NA,NA,NA,NA,NA
SUPAMT70702,3QEMNNSB23YM02VXF85IKLMMWZD7D2,D2BB15CF-97AE-4500-88E4-CB642C15EDB6,2023-09-28_09h33.42.733,WP_VExplicitOC_LH,2022.2.5,Win32,162.2586403,NA,NA,NA,NA,NA,NA,NA,NA,NA,NA,NA,NA,NA,NA,NA,NA,NA,NA,read a novel,009.png,NA,NA,NA,NA,NA,NA,NA,NA,NA,NA,NA,NA,NA,NA,NA,NA,-100,2.1564,0,8,8,8,1,NA,NA,NA,NA,NA,NA,NA,NA,NA,NA,NA,NA,NA,NA,NA,NA
SUPAMT70702,3QEMNNSB23YM02VXF85IKLMMWZD7D2,D2BB15CF-97AE-4500-88E4-CB642C15EDB6,2023-09-28_09h33.42.733,WP_VExplicitOC_LH,2022.2.5,Win32,162.2586403,NA,NA,NA,NA,NA,NA,NA,NA,NA,NA,NA,NA,NA,NA,NA,NA,NA,NA,read the news,010.png,NA,NA,NA,NA,NA,NA,NA,NA,NA,NA,NA,NA,NA,NA,NA,NA,-36.66666667,6.6566,0,9,9,9,1,NA,NA,NA,NA,NA,NA,NA,NA,NA,NA,NA,NA,NA,NA,NA,NA
SUPAMT70702,3QEMNNSB23YM02VXF85IKLMMWZD7D2,D2BB15CF-97AE-4500-88E4-CB642C15EDB6,2023-09-28_09h33.42.733,WP_VExplicitOC_LH,2022.2.5,Win32,162.2586403,NA,NA,NA,NA,NA,NA,NA,NA,NA,NA,NA,NA,NA,NA,NA,NA,NA,NA,NA,NA,NA,NA,NA,NA,NA,NA,NA,NA,NA,NA,NA,NA,NA,NA,NA,NA,NA,NA,NA,NA,NA,NA,NA,scroll social media,NA,NA,NA,NA,NA,NA,NA,NA,NA,NA,NA,NA,NA,NA,NA
SUPAMT70702,3QEMNNSB23YM02VXF85IKLMMWZD7D2,D2BB15CF-97AE-4500-88E4-CB642C15EDB6,2023-09-28_09h33.42.733,WP_VExplicitOC_LH,2022.2.5,Win32,162.2586403,74.62962963,6.4279,2.0021,NA,NA,NA,NA,NA,frustrated,"frustrated, not frustrated","more frustrated, less frustrated",NA,NA,NA,NA,NA,NA,NA,NA,NA,NA,NA,NA,NA,NA,NA,NA,NA,NA,NA,NA,NA,NA,NA,NA,NA,NA,NA,NA,NA,NA,NA,NA,NA,0,0,0,1,1,NA,NA,NA,NA,NA,NA,NA,NA,NA,NA
SUPAMT70702,3QEMNNSB23YM02VXF85IKLMMWZD7D2,D2BB15CF-97AE-4500-88E4-CB642C15EDB6,2023-09-28_09h33.42.733,WP_VExplicitOC_LH,2022.2.5,Win32,162.2586403,62.03703704,4.7374,2.0016,NA,NA,NA,NA,NA,happy,"unhappy, happy","less happy, more happy",NA,NA,NA,NA,NA,NA,NA,NA,NA,NA,NA,NA,NA,NA,NA,NA,NA,NA,NA,NA,NA,NA,NA,NA,NA,NA,NA,NA,NA,NA,NA,NA,NA,0,1,1,0,1,NA,NA,NA,NA,NA,NA,NA,NA,NA,NA
SUPAMT70702,3QEMNNSB23YM02VXF85IKLMMWZD7D2,D2BB15CF-97AE-4500-88E4-CB642C15EDB6,2023-09-28_09h33.42.733,WP_VExplicitOC_LH,2022.2.5,Win32,162.2586403,-82.77777778,6.6289,2.0009,NA,NA,NA,NA,NA,bored,"bored, not bored","more bored, less bored",NA,NA,NA,NA,NA,NA,NA,NA,NA,NA,NA,NA,NA,NA,NA,NA,NA,NA,NA,NA,NA,NA,NA,NA,NA,NA,NA,NA,NA,NA,NA,NA,NA,0,2,2,2,1,NA,NA,NA,NA,NA,NA,NA,NA,NA,NA
SUPAMT70702,3QEMNNSB23YM02VXF85IKLMMWZD7D2,D2BB15CF-97AE-4500-88E4-CB642C15EDB6,2023-09-28_09h33.42.733,WP_VExplicitOC_LH,2022.2.5,Win32,162.2586403,NA,NA,NA,NA,NA,NA,NA,NA,NA,NA,NA,NA,NA,NA,NA,NA,NA,NA,NA,NA,NA,NA,NA,NA,NA,NA,NA,NA,NA,NA,NA,NA,NA,NA,NA,NA,NA,NA,NA,NA,NA,NA,NA,NA,NA,NA,NA,NA,NA,NA,NA,NA,NA,NA,NA,NA,NA,NA,NA
SUPAMT70702,3QEMNNSB23YM02VXF85IKLMMWZD7D2,D2BB15CF-97AE-4500-88E4-CB642C15EDB6,2023-09-28_09h33.42.733,WP_VExplicitOC_LH,2022.2.5,Win32,162.2586403,NA,NA,NA,NA,NA,NA,NA,NA,NA,NA,NA,NA,NA,NA,NA,NA,NA,NA,NA,NA,NA,NA,NA,NA,NA,NA,NA,NA,NA,NA,NA,NA,NA,NA,NA,NA,NA,NA,NA,NA,NA,NA,NA,NA,NA,NA,NA,NA,NA,NA,NA,NA,NA,NA,NA,NA,NA,NA,NA
SUPAMT70702,3QEMNNSB23YM02VXF85IKLMMWZD7D2,D2BB15CF-97AE-4500-88E4-CB642C15EDB6,2023-09-28_09h33.42.733,WP_VExplicitOC_LH,2022.2.5,Win32,162.2586403,71.85185185,4.0064,2.0041,NA,NA,NA,NA,NA,frustrated,"frustrated, not frustrated","more frustrated, less frustrated",NA,NA,NA,NA,NA,NA,NA,NA,NA,NA,NA,NA,NA,NA,NA,NA,NA,NA,NA,NA,NA,NA,NA,NA,NA,NA,NA,NA,NA,NA,NA,NA,NA,NA,NA,NA,NA,NA,0,0,0,1,1,NA,NA,NA,NA,NA
SUPAMT70702,3QEMNNSB23YM02VXF85IKLMMWZD7D2,D2BB15CF-97AE-4500-88E4-CB642C15EDB6,2023-09-28_09h33.42.733,WP_VExplicitOC_LH,2022.2.5,Win32,162.2586403,-83.51851852,5.9322,2.0011,NA,NA,NA,NA,NA,bored,"bored, not bored","more bored, less bored",NA,NA,NA,NA,NA,NA,NA,NA,NA,NA,NA,NA,NA,NA,NA,NA,NA,NA,NA,NA,NA,NA,NA,NA,NA,NA,NA,NA,NA,NA,NA,NA,NA,NA,NA,NA,NA,NA,0,1,1,2,1,NA,NA,NA,NA,NA
SUPAMT70702,3QEMNNSB23YM02VXF85IKLMMWZD7D2,D2BB15CF-97AE-4500-88E4-CB642C15EDB6,2023-09-28_09h33.42.733,WP_VExplicitOC_LH,2022.2.5,Win32,162.2586403,63.33333333,4.4918,2.0015,NA,NA,NA,NA,NA,happy,"unhappy, happy","less happy, more happy",NA,NA,NA,NA,NA,NA,NA,NA,NA,NA,NA,NA,NA,NA,NA,NA,NA,NA,NA,NA,NA,NA,NA,NA,NA,NA,NA,NA,NA,NA,NA,NA,NA,NA,NA,NA,NA,NA,0,2,2,0,1,NA,NA,NA,NA,NA
SUPAMT70702,3QEMNNSB23YM02VXF85IKLMMWZD7D2,D2BB15CF-97AE-4500-88E4-CB642C15EDB6,2023-09-28_09h33.42.733,WP_VExplicitOC_LH,2022.2.5,Win32,162.2586403,NA,NA,NA,NA,NA,NA,NA,NA,NA,NA,NA,NA,NA,NA,NA,NA,NA,NA,NA,NA,NA,NA,NA,NA,NA,NA,NA,NA,NA,NA,NA,NA,NA,NA,NA,NA,NA,NA,NA,NA,NA,NA,NA,NA,NA,NA,NA,NA,NA,NA,NA,NA,NA,NA,0,0,0,0,1
SUPAMT70702,3QEMNNSB23YM02VXF85IKLMMWZD7D2,D2BB15CF-97AE-4500-88E4-CB642C15EDB6,2023-09-28_09h33.42.733,WP_VExplicitOC_LH,2022.2.5,Win32,162.2586403,-87.03703704,4.0569,2.0038,NA,NA,NA,NA,NA,bored,"bored, not bored","more bored, less bored",NA,NA,NA,NA,NA,NA,NA,NA,NA,NA,NA,NA,NA,NA,NA,NA,NA,NA,NA,NA,NA,NA,NA,NA,NA,NA,NA,NA,NA,NA,NA,NA,NA,NA,NA,NA,NA,NA,0,0,0,2,1,NA,NA,NA,NA,NA
SUPAMT70702,3QEMNNSB23YM02VXF85IKLMMWZD7D2,D2BB15CF-97AE-4500-88E4-CB642C15EDB6,2023-09-28_09h33.42.733,WP_VExplicitOC_LH,2022.2.5,Win32,162.2586403,71.48148148,4.6509,2.0024,NA,NA,NA,NA,NA,frustrated,"frustrated, not frustrated","more frustrated, less frustrated",NA,NA,NA,NA,NA,NA,NA,NA,NA,NA,NA,NA,NA,NA,NA,NA,NA,NA,NA,NA,NA,NA,NA,NA,NA,NA,NA,NA,NA,NA,NA,NA,NA,NA,NA,NA,NA,NA,0,1,1,1,1,NA,NA,NA,NA,NA
SUPAMT70702,3QEMNNSB23YM02VXF85IKLMMWZD7D2,D2BB15CF-97AE-4500-88E4-CB642C15EDB6,2023-09-28_09h33.42.733,WP_VExplicitOC_LH,2022.2.5,Win32,162.2586403,58.7037037,4.2445,2.0009,NA,NA,NA,NA,NA,happy,"unhappy, happy","less happy, more happy",NA,NA,NA,NA,NA,NA,NA,NA,NA,NA,NA,NA,NA,NA,NA,NA,NA,NA,NA,NA,NA,NA,NA,NA,NA,NA,NA,NA,NA,NA,NA,NA,NA,NA,NA,NA,NA,NA,0,2,2,0,1,NA,NA,NA,NA,NA
SUPAMT70702,3QEMNNSB23YM02VXF85IKLMMWZD7D2,D2BB15CF-97AE-4500-88E4-CB642C15EDB6,2023-09-28_09h33.42.733,WP_VExplicitOC_LH,2022.2.5,Win32,162.2586403,NA,NA,NA,NA,NA,NA,NA,NA,NA,NA,NA,NA,NA,NA,NA,NA,NA,NA,NA,NA,NA,NA,NA,NA,NA,NA,NA,NA,NA,NA,NA,NA,NA,NA,NA,NA,NA,NA,NA,NA,NA,NA,NA,NA,NA,NA,NA,NA,NA,NA,NA,NA,NA,NA,1,0,1,0,1
SUPAMT70702,3QEMNNSB23YM02VXF85IKLMMWZD7D2,D2BB15CF-97AE-4500-88E4-CB642C15EDB6,2023-09-28_09h33.42.733,WP_VExplicitOC_LH,2022.2.5,Win32,162.2586403,-86.66666667,4.805,2.0047,NA,NA,NA,NA,NA,bored,"bored, not bored","more bored, less bored",NA,NA,NA,NA,NA,NA,NA,NA,NA,NA,NA,NA,NA,NA,NA,NA,NA,NA,NA,NA,NA,NA,NA,NA,NA,NA,NA,NA,NA,NA,NA,NA,NA,NA,NA,NA,NA,NA,0,0,0,2,1,NA,NA,NA,NA,NA
SUPAMT70702,3QEMNNSB23YM02VXF85IKLMMWZD7D2,D2BB15CF-97AE-4500-88E4-CB642C15EDB6,2023-09-28_09h33.42.733,WP_VExplicitOC_LH,2022.2.5,Win32,162.2586403,67.22222222,5.6951,2.0013,NA,NA,NA,NA,NA,frustrated,"frustrated, not frustrated","more frustrated, less frustrated",NA,NA,NA,NA,NA,NA,NA,NA,NA,NA,NA,NA,NA,NA,NA,NA,NA,NA,NA,NA,NA,NA,NA,NA,NA,NA,NA,NA,NA,NA,NA,NA,NA,NA,NA,NA,NA,NA,0,1,1,1,1,NA,NA,NA,NA,NA
SUPAMT70702,3QEMNNSB23YM02VXF85IKLMMWZD7D2,D2BB15CF-97AE-4500-88E4-CB642C15EDB6,2023-09-28_09h33.42.733,WP_VExplicitOC_LH,2022.2.5,Win32,162.2586403,55,3.3054,2.0012,NA,NA,NA,NA,NA,happy,"unhappy, happy","less happy, more happy",NA,NA,NA,NA,NA,NA,NA,NA,NA,NA,NA,NA,NA,NA,NA,NA,NA,NA,NA,NA,NA,NA,NA,NA,NA,NA,NA,NA,NA,NA,NA,NA,NA,NA,NA,NA,NA,NA,0,2,2,0,1,NA,NA,NA,NA,NA
SUPAMT70702,3QEMNNSB23YM02VXF85IKLMMWZD7D2,D2BB15CF-97AE-4500-88E4-CB642C15EDB6,2023-09-28_09h33.42.733,WP_VExplicitOC_LH,2022.2.5,Win32,162.2586403,NA,NA,NA,NA,NA,NA,NA,NA,NA,NA,NA,NA,NA,NA,NA,NA,NA,NA,NA,NA,NA,NA,NA,NA,NA,NA,NA,NA,NA,NA,NA,NA,NA,NA,NA,NA,NA,NA,NA,NA,NA,NA,NA,NA,NA,NA,NA,NA,NA,NA,NA,NA,NA,NA,2,0,2,0,1
SUPAMT70702,3QEMNNSB23YM02VXF85IKLMMWZD7D2,D2BB15CF-97AE-4500-88E4-CB642C15EDB6,2023-09-28_09h33.42.733,WP_VExplicitOC_LH,2022.2.5,Win32,162.2586403,-92.03703704,4.4665,2.0032,NA,NA,NA,NA,NA,bored,"bored, not bored","more bored, less bored",NA,NA,NA,NA,NA,NA,NA,NA,NA,NA,NA,NA,NA,NA,NA,NA,NA,NA,NA,NA,NA,NA,NA,NA,NA,NA,NA,NA,NA,NA,NA,NA,NA,NA,NA,NA,NA,NA,0,0,0,2,1,NA,NA,NA,NA,NA
SUPAMT70702,3QEMNNSB23YM02VXF85IKLMMWZD7D2,D2BB15CF-97AE-4500-88E4-CB642C15EDB6,2023-09-28_09h33.42.733,WP_VExplicitOC_LH,2022.2.5,Win32,162.2586403,60.92592593,3.8084,2.0008,NA,NA,NA,NA,NA,happy,"unhappy, happy","less happy, more happy",NA,NA,NA,NA,NA,NA,NA,NA,NA,NA,NA,NA,NA,NA,NA,NA,NA,NA,NA,NA,NA,NA,NA,NA,NA,NA,NA,NA,NA,NA,NA,NA,NA,NA,NA,NA,NA,NA,0,1,1,0,1,NA,NA,NA,NA,NA
SUPAMT70702,3QEMNNSB23YM02VXF85IKLMMWZD7D2,D2BB15CF-97AE-4500-88E4-CB642C15EDB6,2023-09-28_09h33.42.733,WP_VExplicitOC_LH,2022.2.5,Win32,162.2586403,73.14814815,3.8361,2.0013,NA,NA,NA,NA,NA,frustrated,"frustrated, not frustrated","more frustrated, less frustrated",NA,NA,NA,NA,NA,NA,NA,NA,NA,NA,NA,NA,NA,NA,NA,NA,NA,NA,NA,NA,NA,NA,NA,NA,NA,NA,NA,NA,NA,NA,NA,NA,NA,NA,NA,NA,NA,NA,0,2,2,1,1,NA,NA,NA,NA,NA
SUPAMT70702,3QEMNNSB23YM02VXF85IKLMMWZD7D2,D2BB15CF-97AE-4500-88E4-CB642C15EDB6,2023-09-28_09h33.42.733,WP_VExplicitOC_LH,2022.2.5,Win32,162.2586403,NA,NA,NA,NA,NA,NA,NA,NA,NA,NA,NA,NA,NA,NA,NA,NA,NA,NA,NA,NA,NA,NA,NA,NA,NA,NA,NA,NA,NA,NA,NA,NA,NA,NA,NA,NA,NA,NA,NA,NA,NA,NA,NA,NA,NA,NA,NA,NA,NA,NA,NA,NA,NA,NA,3,0,3,0,1
SUPAMT70702,3QEMNNSB23YM02VXF85IKLMMWZD7D2,D2BB15CF-97AE-4500-88E4-CB642C15EDB6,2023-09-28_09h33.42.733,WP_VExplicitOC_LH,2022.2.5,Win32,162.2586403,-94.81481481,3.5886,2.002,NA,NA,NA,NA,NA,bored,"bored, not bored","more bored, less bored",NA,NA,NA,NA,NA,NA,NA,NA,NA,NA,NA,NA,NA,NA,NA,NA,NA,NA,NA,NA,NA,NA,NA,NA,NA,NA,NA,NA,NA,NA,NA,NA,NA,NA,NA,NA,NA,NA,0,0,0,2,1,NA,NA,NA,NA,NA
SUPAMT70702,3QEMNNSB23YM02VXF85IKLMMWZD7D2,D2BB15CF-97AE-4500-88E4-CB642C15EDB6,2023-09-28_09h33.42.733,WP_VExplicitOC_LH,2022.2.5,Win32,162.2586403,59.25925926,2.691,2.0013,NA,NA,NA,NA,NA,happy,"unhappy, happy","less happy, more happy",NA,NA,NA,NA,NA,NA,NA,NA,NA,NA,NA,NA,NA,NA,NA,NA,NA,NA,NA,NA,NA,NA,NA,NA,NA,NA,NA,NA,NA,NA,NA,NA,NA,NA,NA,NA,NA,NA,0,1,1,0,1,NA,NA,NA,NA,NA
SUPAMT70702,3QEMNNSB23YM02VXF85IKLMMWZD7D2,D2BB15CF-97AE-4500-88E4-CB642C15EDB6,2023-09-28_09h33.42.733,WP_VExplicitOC_LH,2022.2.5,Win32,162.2586403,73.51851852,2.9757,2.001,NA,NA,NA,NA,NA,frustrated,"frustrated, not frustrated","more frustrated, less frustrated",NA,NA,NA,NA,NA,NA,NA,NA,NA,NA,NA,NA,NA,NA,NA,NA,NA,NA,NA,NA,NA,NA,NA,NA,NA,NA,NA,NA,NA,NA,NA,NA,NA,NA,NA,NA,NA,NA,0,2,2,1,1,NA,NA,NA,NA,NA
SUPAMT70702,3QEMNNSB23YM02VXF85IKLMMWZD7D2,D2BB15CF-97AE-4500-88E4-CB642C15EDB6,2023-09-28_09h33.42.733,WP_VExplicitOC_LH,2022.2.5,Win32,162.2586403,NA,NA,NA,NA,NA,NA,NA,NA,NA,NA,NA,NA,NA,NA,NA,NA,NA,NA,NA,NA,NA,NA,NA,NA,NA,NA,NA,NA,NA,NA,NA,NA,NA,NA,NA,NA,NA,NA,NA,NA,NA,NA,NA,NA,NA,NA,NA,NA,NA,NA,NA,NA,NA,NA,4,0,4,0,1
SUPAMT70702,3QEMNNSB23YM02VXF85IKLMMWZD7D2,D2BB15CF-97AE-4500-88E4-CB642C15EDB6,2023-09-28_09h33.42.733,WP_VExplicitOC_LH,2022.2.5,Win32,162.2586403,-99.62962963,4.8233,2.0031,NA,NA,NA,NA,NA,bored,"bored, not bored","more bored, less bored",NA,NA,NA,NA,NA,NA,NA,NA,NA,NA,NA,NA,NA,NA,NA,NA,NA,NA,NA,NA,NA,NA,NA,NA,NA,NA,NA,NA,NA,NA,NA,NA,NA,NA,NA,NA,NA,NA,0,0,0,2,1,NA,NA,NA,NA,NA
SUPAMT70702,3QEMNNSB23YM02VXF85IKLMMWZD7D2,D2BB15CF-97AE-4500-88E4-CB642C15EDB6,2023-09-28_09h33.42.733,WP_VExplicitOC_LH,2022.2.5,Win32,162.2586403,73.51851852,4.6766,2.0022,NA,NA,NA,NA,NA,frustrated,"frustrated, not frustrated","more frustrated, less frustrated",NA,NA,NA,NA,NA,NA,NA,NA,NA,NA,NA,NA,NA,NA,NA,NA,NA,NA,NA,NA,NA,NA,NA,NA,NA,NA,NA,NA,NA,NA,NA,NA,NA,NA,NA,NA,NA,NA,0,1,1,1,1,NA,NA,NA,NA,NA
SUPAMT70702,3QEMNNSB23YM02VXF85IKLMMWZD7D2,D2BB15CF-97AE-4500-88E4-CB642C15EDB6,2023-09-28_09h33.42.733,WP_VExplicitOC_LH,2022.2.5,Win32,162.2586403,56.66666667,4.2366,2.0013,NA,NA,NA,NA,NA,happy,"unhappy, happy","less happy, more happy",NA,NA,NA,NA,NA,NA,NA,NA,NA,NA,NA,NA,NA,NA,NA,NA,NA,NA,NA,NA,NA,NA,NA,NA,NA,NA,NA,NA,NA,NA,NA,NA,NA,NA,NA,NA,NA,NA,0,2,2,0,1,NA,NA,NA,NA,NA
SUPAMT70702,3QEMNNSB23YM02VXF85IKLMMWZD7D2,D2BB15CF-97AE-4500-88E4-CB642C15EDB6,2023-09-28_09h33.42.733,WP_VExplicitOC_LH,2022.2.5,Win32,162.2586403,NA,NA,NA,NA,NA,NA,NA,NA,NA,NA,NA,NA,NA,NA,NA,NA,NA,NA,NA,NA,NA,NA,NA,NA,NA,NA,NA,NA,NA,NA,NA,NA,NA,NA,NA,NA,NA,NA,NA,NA,NA,NA,NA,NA,NA,NA,NA,NA,NA,NA,NA,NA,NA,NA,5,0,5,0,1
SUPAMT70702,3QEMNNSB23YM02VXF85IKLMMWZD7D2,D2BB15CF-97AE-4500-88E4-CB642C15EDB6,2023-09-28_09h33.42.733,WP_VExplicitOC_LH,2022.2.5,Win32,162.2586403,70.92592593,6.8053,2.0042,NA,NA,NA,NA,NA,frustrated,"frustrated, not frustrated","more frustrated, less frustrated",NA,NA,NA,NA,NA,NA,NA,NA,NA,NA,NA,NA,NA,NA,NA,NA,NA,NA,NA,NA,NA,NA,NA,NA,NA,NA,NA,NA,NA,NA,NA,NA,NA,NA,NA,NA,NA,NA,0,0,0,1,1,NA,NA,NA,NA,NA
SUPAMT70702,3QEMNNSB23YM02VXF85IKLMMWZD7D2,D2BB15CF-97AE-4500-88E4-CB642C15EDB6,2023-09-28_09h33.42.733,WP_VExplicitOC_LH,2022.2.5,Win32,162.2586403,-100,2.8749,2.0013,NA,NA,NA,NA,NA,bored,"bored, not bored","more bored, less bored",NA,NA,NA,NA,NA,NA,NA,NA,NA,NA,NA,NA,NA,NA,NA,NA,NA,NA,NA,NA,NA,NA,NA,NA,NA,NA,NA,NA,NA,NA,NA,NA,NA,NA,NA,NA,NA,NA,0,1,1,2,1,NA,NA,NA,NA,NA
SUPAMT70702,3QEMNNSB23YM02VXF85IKLMMWZD7D2,D2BB15CF-97AE-4500-88E4-CB642C15EDB6,2023-09-28_09h33.42.733,WP_VExplicitOC_LH,2022.2.5,Win32,162.2586403,61.11111111,4.6178,2.0009,NA,NA,NA,NA,NA,happy,"unhappy, happy","less happy, more happy",NA,NA,NA,NA,NA,NA,NA,NA,NA,NA,NA,NA,NA,NA,NA,NA,NA,NA,NA,NA,NA,NA,NA,NA,NA,NA,NA,NA,NA,NA,NA,NA,NA,NA,NA,NA,NA,NA,0,2,2,0,1,NA,NA,NA,NA,NA
SUPAMT70702,3QEMNNSB23YM02VXF85IKLMMWZD7D2,D2BB15CF-97AE-4500-88E4-CB642C15EDB6,2023-09-28_09h33.42.733,WP_VExplicitOC_LH,2022.2.5,Win32,162.2586403,NA,NA,NA,NA,NA,NA,NA,NA,NA,NA,NA,NA,NA,NA,NA,NA,NA,NA,NA,NA,NA,NA,NA,NA,NA,NA,NA,NA,NA,NA,NA,NA,NA,NA,NA,NA,NA,NA,NA,NA,NA,NA,NA,NA,NA,NA,NA,NA,NA,NA,NA,NA,NA,NA,6,0,6,0,1
SUPAMT70702,3QEMNNSB23YM02VXF85IKLMMWZD7D2,D2BB15CF-97AE-4500-88E4-CB642C15EDB6,2023-09-28_09h33.42.733,WP_VExplicitOC_LH,2022.2.5,Win32,162.2586403,-100,2.9725,2.0042,NA,NA,NA,NA,NA,bored,"bored, not bored","more bored, less bored",NA,NA,NA,NA,NA,NA,NA,NA,NA,NA,NA,NA,NA,NA,NA,NA,NA,NA,NA,NA,NA,NA,NA,NA,NA,NA,NA,NA,NA,NA,NA,NA,NA,NA,NA,NA,NA,NA,0,0,0,2,1,NA,NA,NA,NA,NA
SUPAMT70702,3QEMNNSB23YM02VXF85IKLMMWZD7D2,D2BB15CF-97AE-4500-88E4-CB642C15EDB6,2023-09-28_09h33.42.733,WP_VExplicitOC_LH,2022.2.5,Win32,162.2586403,73.14814815,3.5438,2.0013,NA,NA,NA,NA,NA,frustrated,"frustrated, not frustrated","more frustrated, less frustrated",NA,NA,NA,NA,NA,NA,NA,NA,NA,NA,NA,NA,NA,NA,NA,NA,NA,NA,NA,NA,NA,NA,NA,NA,NA,NA,NA,NA,NA,NA,NA,NA,NA,NA,NA,NA,NA,NA,0,1,1,1,1,NA,NA,NA,NA,NA
SUPAMT70702,3QEMNNSB23YM02VXF85IKLMMWZD7D2,D2BB15CF-97AE-4500-88E4-CB642C15EDB6,2023-09-28_09h33.42.733,WP_VExplicitOC_LH,2022.2.5,Win32,162.2586403,56.66666667,3.2134,2.0013,NA,NA,NA,NA,NA,happy,"unhappy, happy","less happy, more happy",NA,NA,NA,NA,NA,NA,NA,NA,NA,NA,NA,NA,NA,NA,NA,NA,NA,NA,NA,NA,NA,NA,NA,NA,NA,NA,NA,NA,NA,NA,NA,NA,NA,NA,NA,NA,NA,NA,0,2,2,0,1,NA,NA,NA,NA,NA
SUPAMT70702,3QEMNNSB23YM02VXF85IKLMMWZD7D2,D2BB15CF-97AE-4500-88E4-CB642C15EDB6,2023-09-28_09h33.42.733,WP_VExplicitOC_LH,2022.2.5,Win32,162.2586403,NA,NA,NA,NA,NA,NA,NA,NA,NA,NA,NA,NA,NA,NA,NA,NA,NA,NA,NA,NA,NA,NA,NA,NA,NA,NA,NA,NA,NA,NA,NA,NA,NA,NA,NA,NA,NA,NA,NA,NA,NA,NA,NA,NA,NA,NA,NA,NA,NA,NA,NA,NA,NA,NA,7,0,7,0,1
SUPAMT70702,3QEMNNSB23YM02VXF85IKLMMWZD7D2,D2BB15CF-97AE-4500-88E4-CB642C15EDB6,2023-09-28_09h33.42.733,WP_VExplicitOC_LH,2022.2.5,Win32,162.2586403,70.74074074,4.4616,2.0023,NA,NA,NA,NA,NA,frustrated,"frustrated, not frustrated","more frustrated, less frustrated",NA,NA,NA,NA,NA,NA,NA,NA,NA,NA,NA,NA,NA,NA,NA,NA,NA,NA,NA,NA,NA,NA,NA,NA,NA,NA,NA,NA,NA,NA,NA,NA,NA,NA,NA,NA,NA,NA,0,0,0,1,1,NA,NA,NA,NA,NA
SUPAMT70702,3QEMNNSB23YM02VXF85IKLMMWZD7D2,D2BB15CF-97AE-4500-88E4-CB642C15EDB6,2023-09-28_09h33.42.733,WP_VExplicitOC_LH,2022.2.5,Win32,162.2586403,-100,3.0307,2.0015,NA,NA,NA,NA,NA,bored,"bored, not bored","more bored, less bored",NA,NA,NA,NA,NA,NA,NA,NA,NA,NA,NA,NA,NA,NA,NA,NA,NA,NA,NA,NA,NA,NA,NA,NA,NA,NA,NA,NA,NA,NA,NA,NA,NA,NA,NA,NA,NA,NA,0,1,1,2,1,NA,NA,NA,NA,NA
SUPAMT70702,3QEMNNSB23YM02VXF85IKLMMWZD7D2,D2BB15CF-97AE-4500-88E4-CB642C15EDB6,2023-09-28_09h33.42.733,WP_VExplicitOC_LH,2022.2.5,Win32,162.2586403,56.85185185,4.8937,2.001,NA,NA,NA,NA,NA,happy,"unhappy, happy","less happy, more happy",NA,NA,NA,NA,NA,NA,NA,NA,NA,NA,NA,NA,NA,NA,NA,NA,NA,NA,NA,NA,NA,NA,NA,NA,NA,NA,NA,NA,NA,NA,NA,NA,NA,NA,NA,NA,NA,NA,0,2,2,0,1,NA,NA,NA,NA,NA
SUPAMT70702,3QEMNNSB23YM02VXF85IKLMMWZD7D2,D2BB15CF-97AE-4500-88E4-CB642C15EDB6,2023-09-28_09h33.42.733,WP_VExplicitOC_LH,2022.2.5,Win32,162.2586403,NA,NA,NA,NA,NA,NA,NA,NA,NA,NA,NA,NA,NA,NA,NA,NA,NA,NA,NA,NA,NA,NA,NA,NA,NA,NA,NA,NA,NA,NA,NA,NA,NA,NA,NA,NA,NA,NA,NA,NA,NA,NA,NA,NA,NA,NA,NA,NA,NA,NA,NA,NA,NA,NA,8,0,8,0,1
SUPAMT70702,3QEMNNSB23YM02VXF85IKLMMWZD7D2,D2BB15CF-97AE-4500-88E4-CB642C15EDB6,2023-09-28_09h33.42.733,WP_VExplicitOC_LH,2022.2.5,Win32,162.2586403,-100,3.0302,2.0041,NA,NA,NA,NA,NA,bored,"bored, not bored","more bored, less bored",NA,NA,NA,NA,NA,NA,NA,NA,NA,NA,NA,NA,NA,NA,NA,NA,NA,NA,NA,NA,NA,NA,NA,NA,NA,NA,NA,NA,NA,NA,NA,NA,NA,NA,NA,NA,NA,NA,0,0,0,2,1,NA,NA,NA,NA,NA
SUPAMT70702,3QEMNNSB23YM02VXF85IKLMMWZD7D2,D2BB15CF-97AE-4500-88E4-CB642C15EDB6,2023-09-28_09h33.42.733,WP_VExplicitOC_LH,2022.2.5,Win32,162.2586403,70,3.8537,2.0021,NA,NA,NA,NA,NA,frustrated,"frustrated, not frustrated","more frustrated, less frustrated",NA,NA,NA,NA,NA,NA,NA,NA,NA,NA,NA,NA,NA,NA,NA,NA,NA,NA,NA,NA,NA,NA,NA,NA,NA,NA,NA,NA,NA,NA,NA,NA,NA,NA,NA,NA,NA,NA,0,1,1,1,1,NA,NA,NA,NA,NA
SUPAMT70702,3QEMNNSB23YM02VXF85IKLMMWZD7D2,D2BB15CF-97AE-4500-88E4-CB642C15EDB6,2023-09-28_09h33.42.733,WP_VExplicitOC_LH,2022.2.5,Win32,162.2586403,57.03703704,6.1838,2.0013,NA,NA,NA,NA,NA,happy,"unhappy, happy","less happy, more happy",NA,NA,NA,NA,NA,NA,NA,NA,NA,NA,NA,NA,NA,NA,NA,NA,NA,NA,NA,NA,NA,NA,NA,NA,NA,NA,NA,NA,NA,NA,NA,NA,NA,NA,NA,NA,NA,NA,0,2,2,0,1,NA,NA,NA,NA,NA
SUPAMT70702,3QEMNNSB23YM02VXF85IKLMMWZD7D2,D2BB15CF-97AE-4500-88E4-CB642C15EDB6,2023-09-28_09h33.42.733,WP_VExplicitOC_LH,2022.2.5,Win32,162.2586403,NA,NA,NA,NA,NA,NA,NA,NA,NA,NA,NA,NA,NA,NA,NA,NA,NA,NA,NA,NA,NA,NA,NA,NA,NA,NA,NA,NA,NA,NA,NA,NA,NA,NA,NA,NA,NA,NA,NA,NA,NA,NA,NA,NA,NA,NA,NA,NA,NA,NA,NA,NA,NA,NA,9,0,9,0,1
SUPAMT70702,3QEMNNSB23YM02VXF85IKLMMWZD7D2,D2BB15CF-97AE-4500-88E4-CB642C15EDB6,2023-09-28_09h33.42.733,WP_VExplicitOC_LH,2022.2.5,Win32,162.2586403,54.62962963,3.1138,2.0037,NA,NA,NA,NA,NA,happy,"unhappy, happy","less happy, more happy",NA,NA,NA,NA,NA,NA,NA,NA,NA,NA,NA,NA,NA,NA,NA,NA,NA,NA,NA,NA,NA,NA,NA,NA,NA,NA,NA,NA,NA,NA,NA,NA,NA,NA,NA,NA,NA,NA,0,0,0,0,1,NA,NA,NA,NA,NA
SUPAMT70702,3QEMNNSB23YM02VXF85IKLMMWZD7D2,D2BB15CF-97AE-4500-88E4-CB642C15EDB6,2023-09-28_09h33.42.733,WP_VExplicitOC_LH,2022.2.5,Win32,162.2586403,-100,3.4818,2.0004,NA,NA,NA,NA,NA,bored,"bored, not bored","more bored, less bored",NA,NA,NA,NA,NA,NA,NA,NA,NA,NA,NA,NA,NA,NA,NA,NA,NA,NA,NA,NA,NA,NA,NA,NA,NA,NA,NA,NA,NA,NA,NA,NA,NA,NA,NA,NA,NA,NA,0,1,1,2,1,NA,NA,NA,NA,NA
SUPAMT70702,3QEMNNSB23YM02VXF85IKLMMWZD7D2,D2BB15CF-97AE-4500-88E4-CB642C15EDB6,2023-09-28_09h33.42.733,WP_VExplicitOC_LH,2022.2.5,Win32,162.2586403,70.55555556,3.7542,2.0023,NA,NA,NA,NA,NA,frustrated,"frustrated, not frustrated","more frustrated, less frustrated",NA,NA,NA,NA,NA,NA,NA,NA,NA,NA,NA,NA,NA,NA,NA,NA,NA,NA,NA,NA,NA,NA,NA,NA,NA,NA,NA,NA,NA,NA,NA,NA,NA,NA,NA,NA,NA,NA,0,2,2,1,1,NA,NA,NA,NA,NA
SUPAMT70702,3QEMNNSB23YM02VXF85IKLMMWZD7D2,D2BB15CF-97AE-4500-88E4-CB642C15EDB6,2023-09-28_09h33.42.733,WP_VExplicitOC_LH,2022.2.5,Win32,162.2586403,NA,NA,NA,NA,NA,NA,NA,NA,NA,NA,NA,NA,NA,NA,NA,NA,NA,NA,NA,NA,NA,NA,NA,NA,NA,NA,NA,NA,NA,NA,NA,NA,NA,NA,NA,NA,NA,NA,NA,NA,NA,NA,NA,NA,NA,NA,NA,NA,NA,NA,NA,NA,NA,NA,10,0,10,0,1
SUPAMT70702,3QEMNNSB23YM02VXF85IKLMMWZD7D2,D2BB15CF-97AE-4500-88E4-CB642C15EDB6,2023-09-28_09h33.42.733,WP_VExplicitOC_LH,2022.2.5,Win32,162.2586403,57.22222222,5.9143,2.0042,NA,NA,NA,NA,NA,happy,"unhappy, happy","less happy, more happy",NA,NA,NA,NA,NA,NA,NA,NA,NA,NA,NA,NA,NA,NA,NA,NA,NA,NA,NA,NA,NA,NA,NA,NA,NA,NA,NA,NA,NA,NA,NA,NA,NA,NA,NA,NA,NA,NA,0,0,0,0,1,NA,NA,NA,NA,NA
SUPAMT70702,3QEMNNSB23YM02VXF85IKLMMWZD7D2,D2BB15CF-97AE-4500-88E4-CB642C15EDB6,2023-09-28_09h33.42.733,WP_VExplicitOC_LH,2022.2.5,Win32,162.2586403,-100,3.4904,2.0012,NA,NA,NA,NA,NA,bored,"bored, not bored","more bored, less bored",NA,NA,NA,NA,NA,NA,NA,NA,NA,NA,NA,NA,NA,NA,NA,NA,NA,NA,NA,NA,NA,NA,NA,NA,NA,NA,NA,NA,NA,NA,NA,NA,NA,NA,NA,NA,NA,NA,0,1,1,2,1,NA,NA,NA,NA,NA
SUPAMT70702,3QEMNNSB23YM02VXF85IKLMMWZD7D2,D2BB15CF-97AE-4500-88E4-CB642C15EDB6,2023-09-28_09h33.42.733,WP_VExplicitOC_LH,2022.2.5,Win32,162.2586403,NA,NA,2.0016,NA,NA,NA,NA,NA,frustrated,"frustrated, not frustrated","more frustrated, less frustrated",NA,NA,NA,NA,NA,NA,NA,NA,NA,NA,NA,NA,NA,NA,NA,NA,NA,NA,NA,NA,NA,NA,NA,NA,NA,NA,NA,NA,NA,NA,NA,NA,NA,NA,NA,NA,NA,NA,0,2,2,1,1,NA,NA,NA,NA,NA
SUPAMT70702,3QEMNNSB23YM02VXF85IKLMMWZD7D2,D2BB15CF-97AE-4500-88E4-CB642C15EDB6,2023-09-28_09h33.42.733,WP_VExplicitOC_LH,2022.2.5,Win32,162.2586403,NA,NA,NA,NA,NA,NA,NA,NA,NA,NA,NA,NA,NA,NA,NA,NA,NA,NA,NA,NA,NA,NA,NA,NA,NA,NA,NA,NA,NA,NA,NA,NA,NA,NA,NA,NA,NA,NA,NA,NA,NA,NA,NA,NA,NA,NA,NA,NA,NA,NA,NA,NA,NA,NA,11,0,11,0,1
SUPAMT70702,3QEMNNSB23YM02VXF85IKLMMWZD7D2,D2BB15CF-97AE-4500-88E4-CB642C15EDB6,2023-09-28_09h33.42.733,WP_VExplicitOC_LH,2022.2.5,Win32,162.2586403,-100,2.8964,2.0036,NA,NA,NA,NA,NA,bored,"bored, not bored","more bored, less bored",NA,NA,NA,NA,NA,NA,NA,NA,NA,NA,NA,NA,NA,NA,NA,NA,NA,NA,NA,NA,NA,NA,NA,NA,NA,NA,NA,NA,NA,NA,NA,NA,NA,NA,NA,NA,NA,NA,0,0,0,2,1,NA,NA,NA,NA,NA
SUPAMT70702,3QEMNNSB23YM02VXF85IKLMMWZD7D2,D2BB15CF-97AE-4500-88E4-CB642C15EDB6,2023-09-28_09h33.42.733,WP_VExplicitOC_LH,2022.2.5,Win32,162.2586403,57.22222222,4.1125,2.0012,NA,NA,NA,NA,NA,happy,"unhappy, happy","less happy, more happy",NA,NA,NA,NA,NA,NA,NA,NA,NA,NA,NA,NA,NA,NA,NA,NA,NA,NA,NA,NA,NA,NA,NA,NA,NA,NA,NA,NA,NA,NA,NA,NA,NA,NA,NA,NA,NA,NA,0,1,1,0,1,NA,NA,NA,NA,NA
SUPAMT70702,3QEMNNSB23YM02VXF85IKLMMWZD7D2,D2BB15CF-97AE-4500-88E4-CB642C15EDB6,2023-09-28_09h33.42.733,WP_VExplicitOC_LH,2022.2.5,Win32,162.2586403,64.25925926,3.6605,2.0016,NA,NA,NA,NA,NA,frustrated,"frustrated, not frustrated","more frustrated, less frustrated",NA,NA,NA,NA,NA,NA,NA,NA,NA,NA,NA,NA,NA,NA,NA,NA,NA,NA,NA,NA,NA,NA,NA,NA,NA,NA,NA,NA,NA,NA,NA,NA,NA,NA,NA,NA,NA,NA,0,2,2,1,1,NA,NA,NA,NA,NA
SUPAMT70702,3QEMNNSB23YM02VXF85IKLMMWZD7D2,D2BB15CF-97AE-4500-88E4-CB642C15EDB6,2023-09-28_09h33.42.733,WP_VExplicitOC_LH,2022.2.5,Win32,162.2586403,NA,NA,NA,NA,NA,NA,NA,NA,NA,NA,NA,NA,NA,NA,NA,NA,NA,NA,NA,NA,NA,NA,NA,NA,NA,NA,NA,NA,NA,NA,NA,NA,NA,NA,NA,NA,NA,NA,NA,NA,NA,NA,NA,NA,NA,NA,NA,NA,NA,NA,NA,NA,NA,NA,12,0,12,0,1
SUPAMT70702,3QEMNNSB23YM02VXF85IKLMMWZD7D2,D2BB15CF-97AE-4500-88E4-CB642C15EDB6,2023-09-28_09h33.42.733,WP_VExplicitOC_LH,2022.2.5,Win32,162.2586403,-100,3.4112,2.0032,NA,NA,NA,NA,NA,bored,"bored, not bored","more bored, less bored",NA,NA,NA,NA,NA,NA,NA,NA,NA,NA,NA,NA,NA,NA,NA,NA,NA,NA,NA,NA,NA,NA,NA,NA,NA,NA,NA,NA,NA,NA,NA,NA,NA,NA,NA,NA,NA,NA,0,0,0,2,1,NA,NA,NA,NA,NA
SUPAMT70702,3QEMNNSB23YM02VXF85IKLMMWZD7D2,D2BB15CF-97AE-4500-88E4-CB642C15EDB6,2023-09-28_09h33.42.733,WP_VExplicitOC_LH,2022.2.5,Win32,162.2586403,59.25925926,4.2883,2.0015,NA,NA,NA,NA,NA,frustrated,"frustrated, not frustrated","more frustrated, less frustrated",NA,NA,NA,NA,NA,NA,NA,NA,NA,NA,NA,NA,NA,NA,NA,NA,NA,NA,NA,NA,NA,NA,NA,NA,NA,NA,NA,NA,NA,NA,NA,NA,NA,NA,NA,NA,NA,NA,0,1,1,1,1,NA,NA,NA,NA,NA
SUPAMT70702,3QEMNNSB23YM02VXF85IKLMMWZD7D2,D2BB15CF-97AE-4500-88E4-CB642C15EDB6,2023-09-28_09h33.42.733,WP_VExplicitOC_LH,2022.2.5,Win32,162.2586403,51.48148148,3.3416,2.0012,NA,NA,NA,NA,NA,happy,"unhappy, happy","less happy, more happy",NA,NA,NA,NA,NA,NA,NA,NA,NA,NA,NA,NA,NA,NA,NA,NA,NA,NA,NA,NA,NA,NA,NA,NA,NA,NA,NA,NA,NA,NA,NA,NA,NA,NA,NA,NA,NA,NA,0,2,2,0,1,NA,NA,NA,NA,NA
SUPAMT70702,3QEMNNSB23YM02VXF85IKLMMWZD7D2,D2BB15CF-97AE-4500-88E4-CB642C15EDB6,2023-09-28_09h33.42.733,WP_VExplicitOC_LH,2022.2.5,Win32,162.2586403,NA,NA,NA,NA,NA,NA,NA,NA,NA,NA,NA,NA,NA,NA,NA,NA,NA,NA,NA,NA,NA,NA,NA,NA,NA,NA,NA,NA,NA,NA,NA,NA,NA,NA,NA,NA,NA,NA,NA,NA,NA,NA,NA,NA,NA,NA,NA,NA,NA,NA,NA,NA,NA,NA,13,0,13,0,1
SUPAMT70702,3QEMNNSB23YM02VXF85IKLMMWZD7D2,D2BB15CF-97AE-4500-88E4-CB642C15EDB6,2023-09-28_09h33.42.733,WP_VExplicitOC_LH,2022.2.5,Win32,162.2586403,-100,2.9664,2.0026,NA,NA,NA,NA,NA,bored,"bored, not bored","more bored, less bored",NA,NA,NA,NA,NA,NA,NA,NA,NA,NA,NA,NA,NA,NA,NA,NA,NA,NA,NA,NA,NA,NA,NA,NA,NA,NA,NA,NA,NA,NA,NA,NA,NA,NA,NA,NA,NA,NA,0,0,0,2,1,NA,NA,NA,NA,NA
SUPAMT70702,3QEMNNSB23YM02VXF85IKLMMWZD7D2,D2BB15CF-97AE-4500-88E4-CB642C15EDB6,2023-09-28_09h33.42.733,WP_VExplicitOC_LH,2022.2.5,Win32,162.2586403,58.88888889,6.4024,2.0007,NA,NA,NA,NA,NA,frustrated,"frustrated, not frustrated","more frustrated, less frustrated",NA,NA,NA,NA,NA,NA,NA,NA,NA,NA,NA,NA,NA,NA,NA,NA,NA,NA,NA,NA,NA,NA,NA,NA,NA,NA,NA,NA,NA,NA,NA,NA,NA,NA,NA,NA,NA,NA,0,1,1,1,1,NA,NA,NA,NA,NA
SUPAMT70702,3QEMNNSB23YM02VXF85IKLMMWZD7D2,D2BB15CF-97AE-4500-88E4-CB642C15EDB6,2023-09-28_09h33.42.733,WP_VExplicitOC_LH,2022.2.5,Win32,162.2586403,55.92592593,3.5335,2.0013,NA,NA,NA,NA,NA,happy,"unhappy, happy","less happy, more happy",NA,NA,NA,NA,NA,NA,NA,NA,NA,NA,NA,NA,NA,NA,NA,NA,NA,NA,NA,NA,NA,NA,NA,NA,NA,NA,NA,NA,NA,NA,NA,NA,NA,NA,NA,NA,NA,NA,0,2,2,0,1,NA,NA,NA,NA,NA
SUPAMT70702,3QEMNNSB23YM02VXF85IKLMMWZD7D2,D2BB15CF-97AE-4500-88E4-CB642C15EDB6,2023-09-28_09h33.42.733,WP_VExplicitOC_LH,2022.2.5,Win32,162.2586403,NA,NA,NA,NA,NA,NA,NA,NA,NA,NA,NA,NA,NA,NA,NA,NA,NA,NA,NA,NA,NA,NA,NA,NA,NA,NA,NA,NA,NA,NA,NA,NA,NA,NA,NA,NA,NA,NA,NA,NA,NA,NA,NA,NA,NA,NA,NA,NA,NA,NA,NA,NA,NA,NA,14,0,14,0,1
SUPAMT70702,3QEMNNSB23YM02VXF85IKLMMWZD7D2,D2BB15CF-97AE-4500-88E4-CB642C15EDB6,2023-09-28_09h33.42.733,WP_VExplicitOC_LH,2022.2.5,Win32,162.2586403,NA,NA,NA,NA,NA,NA,NA,NA,NA,NA,NA,NA,NA,NA,NA,NA,NA,NA,NA,NA,NA,NA,NA,NA,NA,NA,NA,NA,NA,NA,NA,NA,NA,NA,NA,NA,NA,NA,NA,NA,NA,NA,NA,NA,NA,NA,NA,NA,NA,NA,NA,NA,NA,NA,NA,NA,NA,NA,NA
