participant,session,completion,date,expName,psychopyVersion,OS,frameRate,rating_all.response,rating_all.rt,rating_all.tStart,rndRat1.thisRepN,rndRat1.thisTrialN,rndRat1.thisN,rndRat1.thisIndex,rndRat1.ran,Emo,Labs,Labs2,rating_alt.response,rating_alt.rt,AltC.thisRepN,AltC.thisTrialN,AltC.thisN,AltC.thisIndex,AltC.ran,alt_choices,pic_choices,TopAlt_Choice,rndRat2.thisRepN,rndRat2.thisTrialN,rndRat2.thisN,rndRat2.thisIndex,rndRat2.ran,rndRat3.thisRepN,rndRat3.thisTrialN,rndRat3.thisN,rndRat3.thisIndex,rndRat3.ran,trials_FC_H.thisRepN,trials_FC_H.thisTrialN,trials_FC_H.thisN,trials_FC_H.thisIndex,trials_FC_H.ran,rating_alt_2.response,rating_alt_2.rt,AltC2.thisRepN,AltC2.thisTrialN,AltC2.thisN,AltC2.thisIndex,AltC2.ran,BottomAlt_Choice,rndRat4.thisRepN,rndRat4.thisTrialN,rndRat4.thisN,rndRat4.thisIndex,rndRat4.ran,rndRat5.thisRepN,rndRat5.thisTrialN,rndRat5.thisN,rndRat5.thisIndex,rndRat5.ran,trials_FC_L.thisRepN,trials_FC_L.thisTrialN,trials_FC_L.thisN,trials_FC_L.thisIndex,trials_FC_L.ran
SUPAMT58298,3ZWFC4W1U06TG5T8FSYED2G79IQRFN,CB3B6B61-CB94-41F9-BF6E-434F2D9A7BB0,2023-09-27_18h57.37.997,WP_VExplicitOC_HL,2022.2.5,Win32,16.22928737,NA,NA,NA,NA,NA,NA,NA,NA,NA,NA,NA,NA,NA,NA,NA,NA,NA,NA,NA,NA,NA,NA,NA,NA,NA,NA,NA,NA,NA,NA,NA,NA,NA,NA,NA,NA,NA,NA,NA,NA,NA,NA,NA,NA,NA,NA,NA,NA,NA,NA,NA,NA,NA,NA,NA,NA,NA,NA,NA
SUPAMT58298,3ZWFC4W1U06TG5T8FSYED2G79IQRFN,CB3B6B61-CB94-41F9-BF6E-434F2D9A7BB0,2023-09-27_18h57.37.997,WP_VExplicitOC_HL,2022.2.5,Win32,16.22928737,NA,NA,NA,NA,NA,NA,NA,NA,NA,NA,NA,NA,NA,NA,NA,NA,NA,NA,NA,NA,NA,NA,NA,NA,NA,NA,NA,NA,NA,NA,NA,NA,NA,NA,NA,NA,NA,NA,NA,NA,NA,NA,NA,NA,NA,NA,NA,NA,NA,NA,NA,NA,NA,NA,NA,NA,NA,NA,NA
SUPAMT58298,3ZWFC4W1U06TG5T8FSYED2G79IQRFN,CB3B6B61-CB94-41F9-BF6E-434F2D9A7BB0,2023-09-27_18h57.37.997,WP_VExplicitOC_HL,2022.2.5,Win32,16.22928737,NA,NA,NA,NA,NA,NA,NA,NA,NA,NA,NA,NA,NA,NA,NA,NA,NA,NA,NA,NA,NA,NA,NA,NA,NA,NA,NA,NA,NA,NA,NA,NA,NA,NA,NA,NA,NA,NA,NA,NA,NA,NA,NA,NA,NA,NA,NA,NA,NA,NA,NA,NA,NA,NA,NA,NA,NA,NA,NA
SUPAMT58298,3ZWFC4W1U06TG5T8FSYED2G79IQRFN,CB3B6B61-CB94-41F9-BF6E-434F2D9A7BB0,2023-09-27_18h57.37.997,WP_VExplicitOC_HL,2022.2.5,Win32,16.22928737,62.76041667,4.457,2.0373,0,0,0,0,1,happy,"unhappy, happy","less happy, more happy",NA,NA,NA,NA,NA,NA,NA,NA,NA,NA,NA,NA,NA,NA,NA,NA,NA,NA,NA,NA,NA,NA,NA,NA,NA,NA,NA,NA,NA,NA,NA,NA,NA,NA,NA,NA,NA,NA,NA,NA,NA,NA,NA,NA,NA,NA,NA,NA
SUPAMT58298,3ZWFC4W1U06TG5T8FSYED2G79IQRFN,CB3B6B61-CB94-41F9-BF6E-434F2D9A7BB0,2023-09-27_18h57.37.997,WP_VExplicitOC_HL,2022.2.5,Win32,16.22928737,48.95833333,3.1109,2.0355,0,1,1,1,1,frustrated,"frustrated, not frustrated","more frustrated, less frustrated",NA,NA,NA,NA,NA,NA,NA,NA,NA,NA,NA,NA,NA,NA,NA,NA,NA,NA,NA,NA,NA,NA,NA,NA,NA,NA,NA,NA,NA,NA,NA,NA,NA,NA,NA,NA,NA,NA,NA,NA,NA,NA,NA,NA,NA,NA,NA,NA
SUPAMT58298,3ZWFC4W1U06TG5T8FSYED2G79IQRFN,CB3B6B61-CB94-41F9-BF6E-434F2D9A7BB0,2023-09-27_18h57.37.997,WP_VExplicitOC_HL,2022.2.5,Win32,16.22928737,57.55208333,3.2434,2.042,0,2,2,2,1,bored,"bored, not bored","more bored, less bored",NA,NA,NA,NA,NA,NA,NA,NA,NA,NA,NA,NA,NA,NA,NA,NA,NA,NA,NA,NA,NA,NA,NA,NA,NA,NA,NA,NA,NA,NA,NA,NA,NA,NA,NA,NA,NA,NA,NA,NA,NA,NA,NA,NA,NA,NA,NA,NA
SUPAMT58298,3ZWFC4W1U06TG5T8FSYED2G79IQRFN,CB3B6B61-CB94-41F9-BF6E-434F2D9A7BB0,2023-09-27_18h57.37.997,WP_VExplicitOC_HL,2022.2.5,Win32,16.22928737,NA,NA,NA,NA,NA,NA,NA,NA,NA,NA,NA,NA,NA,NA,NA,NA,NA,NA,NA,NA,NA,NA,NA,NA,NA,NA,NA,NA,NA,NA,NA,NA,NA,NA,NA,NA,NA,NA,NA,NA,NA,NA,NA,NA,NA,NA,NA,NA,NA,NA,NA,NA,NA,NA,NA,NA,NA,NA,NA
SUPAMT58298,3ZWFC4W1U06TG5T8FSYED2G79IQRFN,CB3B6B61-CB94-41F9-BF6E-434F2D9A7BB0,2023-09-27_18h57.37.997,WP_VExplicitOC_HL,2022.2.5,Win32,16.22928737,NA,NA,NA,NA,NA,NA,NA,NA,NA,NA,NA,NA,NA,NA,NA,NA,NA,NA,NA,NA,NA,NA,NA,NA,NA,NA,NA,NA,NA,NA,NA,NA,NA,NA,NA,NA,NA,NA,NA,NA,NA,NA,NA,NA,NA,NA,NA,NA,NA,NA,NA,NA,NA,NA,NA,NA,NA,NA,NA
SUPAMT58298,3ZWFC4W1U06TG5T8FSYED2G79IQRFN,CB3B6B61-CB94-41F9-BF6E-434F2D9A7BB0,2023-09-27_18h57.37.997,WP_VExplicitOC_HL,2022.2.5,Win32,16.22928737,NA,NA,NA,NA,NA,NA,NA,NA,NA,NA,NA,NA,NA,NA,NA,NA,NA,NA,NA,NA,NA,NA,NA,NA,NA,NA,NA,NA,NA,NA,NA,NA,NA,NA,NA,NA,NA,NA,NA,NA,NA,NA,NA,NA,NA,NA,NA,NA,NA,NA,NA,NA,NA,NA,NA,NA,NA,NA,NA
SUPAMT58298,3ZWFC4W1U06TG5T8FSYED2G79IQRFN,CB3B6B61-CB94-41F9-BF6E-434F2D9A7BB0,2023-09-27_18h57.37.997,WP_VExplicitOC_HL,2022.2.5,Win32,16.22928737,NA,NA,NA,NA,NA,NA,NA,NA,NA,NA,NA,NA,NA,NA,NA,NA,NA,NA,NA,NA,NA,NA,NA,NA,NA,NA,NA,NA,NA,NA,NA,NA,NA,NA,NA,NA,NA,NA,NA,NA,NA,NA,NA,NA,NA,NA,NA,NA,NA,NA,NA,NA,NA,NA,NA,NA,NA,NA,NA
SUPAMT58298,3ZWFC4W1U06TG5T8FSYED2G79IQRFN,CB3B6B61-CB94-41F9-BF6E-434F2D9A7BB0,2023-09-27_18h57.37.997,WP_VExplicitOC_HL,2022.2.5,Win32,16.22928737,NA,NA,NA,NA,NA,NA,NA,NA,NA,NA,NA,52.86458333,1.5659,0,0,0,0,1,rest (looking at a fixed cross),001.png,NA,NA,NA,NA,NA,NA,NA,NA,NA,NA,NA,NA,NA,NA,NA,NA,NA,NA,NA,NA,NA,NA,NA,NA,NA,NA,NA,NA,NA,NA,NA,NA,NA,NA,NA,NA,NA,NA,NA
SUPAMT58298,3ZWFC4W1U06TG5T8FSYED2G79IQRFN,CB3B6B61-CB94-41F9-BF6E-434F2D9A7BB0,2023-09-27_18h57.37.997,WP_VExplicitOC_HL,2022.2.5,Win32,16.22928737,NA,NA,NA,NA,NA,NA,NA,NA,NA,NA,NA,33.33333333,0.9553,0,1,1,1,1,stand up,002.png,NA,NA,NA,NA,NA,NA,NA,NA,NA,NA,NA,NA,NA,NA,NA,NA,NA,NA,NA,NA,NA,NA,NA,NA,NA,NA,NA,NA,NA,NA,NA,NA,NA,NA,NA,NA,NA,NA,NA
SUPAMT58298,3ZWFC4W1U06TG5T8FSYED2G79IQRFN,CB3B6B61-CB94-41F9-BF6E-434F2D9A7BB0,2023-09-27_18h57.37.997,WP_VExplicitOC_HL,2022.2.5,Win32,16.22928737,NA,NA,NA,NA,NA,NA,NA,NA,NA,NA,NA,-19.27083333,1.1966,0,2,2,2,1,stretch,003.png,NA,NA,NA,NA,NA,NA,NA,NA,NA,NA,NA,NA,NA,NA,NA,NA,NA,NA,NA,NA,NA,NA,NA,NA,NA,NA,NA,NA,NA,NA,NA,NA,NA,NA,NA,NA,NA,NA,NA
SUPAMT58298,3ZWFC4W1U06TG5T8FSYED2G79IQRFN,CB3B6B61-CB94-41F9-BF6E-434F2D9A7BB0,2023-09-27_18h57.37.997,WP_VExplicitOC_HL,2022.2.5,Win32,16.22928737,NA,NA,NA,NA,NA,NA,NA,NA,NA,NA,NA,31.77083333,1.0907,0,3,3,3,1,make a drink,004.png,NA,NA,NA,NA,NA,NA,NA,NA,NA,NA,NA,NA,NA,NA,NA,NA,NA,NA,NA,NA,NA,NA,NA,NA,NA,NA,NA,NA,NA,NA,NA,NA,NA,NA,NA,NA,NA,NA,NA
SUPAMT58298,3ZWFC4W1U06TG5T8FSYED2G79IQRFN,CB3B6B61-CB94-41F9-BF6E-434F2D9A7BB0,2023-09-27_18h57.37.997,WP_VExplicitOC_HL,2022.2.5,Win32,16.22928737,NA,NA,NA,NA,NA,NA,NA,NA,NA,NA,NA,54.16666667,1.1795,0,4,4,4,1,scroll social media,005.png,NA,NA,NA,NA,NA,NA,NA,NA,NA,NA,NA,NA,NA,NA,NA,NA,NA,NA,NA,NA,NA,NA,NA,NA,NA,NA,NA,NA,NA,NA,NA,NA,NA,NA,NA,NA,NA,NA,NA
SUPAMT58298,3ZWFC4W1U06TG5T8FSYED2G79IQRFN,CB3B6B61-CB94-41F9-BF6E-434F2D9A7BB0,2023-09-27_18h57.37.997,WP_VExplicitOC_HL,2022.2.5,Win32,16.22928737,NA,NA,NA,NA,NA,NA,NA,NA,NA,NA,NA,37.76041667,1.1797,0,5,5,5,1,listen to music,006.png,NA,NA,NA,NA,NA,NA,NA,NA,NA,NA,NA,NA,NA,NA,NA,NA,NA,NA,NA,NA,NA,NA,NA,NA,NA,NA,NA,NA,NA,NA,NA,NA,NA,NA,NA,NA,NA,NA,NA
SUPAMT58298,3ZWFC4W1U06TG5T8FSYED2G79IQRFN,CB3B6B61-CB94-41F9-BF6E-434F2D9A7BB0,2023-09-27_18h57.37.997,WP_VExplicitOC_HL,2022.2.5,Win32,16.22928737,NA,NA,NA,NA,NA,NA,NA,NA,NA,NA,NA,-23.4375,2.0494,0,6,6,6,1,daydream,007.png,NA,NA,NA,NA,NA,NA,NA,NA,NA,NA,NA,NA,NA,NA,NA,NA,NA,NA,NA,NA,NA,NA,NA,NA,NA,NA,NA,NA,NA,NA,NA,NA,NA,NA,NA,NA,NA,NA,NA
SUPAMT58298,3ZWFC4W1U06TG5T8FSYED2G79IQRFN,CB3B6B61-CB94-41F9-BF6E-434F2D9A7BB0,2023-09-27_18h57.37.997,WP_VExplicitOC_HL,2022.2.5,Win32,16.22928737,NA,NA,NA,NA,NA,NA,NA,NA,NA,NA,NA,32.03125,0.9203,0,7,7,7,1,watch a short animation,008.png,NA,NA,NA,NA,NA,NA,NA,NA,NA,NA,NA,NA,NA,NA,NA,NA,NA,NA,NA,NA,NA,NA,NA,NA,NA,NA,NA,NA,NA,NA,NA,NA,NA,NA,NA,NA,NA,NA,NA
SUPAMT58298,3ZWFC4W1U06TG5T8FSYED2G79IQRFN,CB3B6B61-CB94-41F9-BF6E-434F2D9A7BB0,2023-09-27_18h57.37.997,WP_VExplicitOC_HL,2022.2.5,Win32,16.22928737,NA,NA,NA,NA,NA,NA,NA,NA,NA,NA,NA,57.03125,1.1539,0,8,8,8,1,read a novel,009.png,NA,NA,NA,NA,NA,NA,NA,NA,NA,NA,NA,NA,NA,NA,NA,NA,NA,NA,NA,NA,NA,NA,NA,NA,NA,NA,NA,NA,NA,NA,NA,NA,NA,NA,NA,NA,NA,NA,NA
SUPAMT58298,3ZWFC4W1U06TG5T8FSYED2G79IQRFN,CB3B6B61-CB94-41F9-BF6E-434F2D9A7BB0,2023-09-27_18h57.37.997,WP_VExplicitOC_HL,2022.2.5,Win32,16.22928737,NA,NA,NA,NA,NA,NA,NA,NA,NA,NA,NA,41.40625,1.0189,0,9,9,9,1,read the news,010.png,NA,NA,NA,NA,NA,NA,NA,NA,NA,NA,NA,NA,NA,NA,NA,NA,NA,NA,NA,NA,NA,NA,NA,NA,NA,NA,NA,NA,NA,NA,NA,NA,NA,NA,NA,NA,NA,NA,NA
SUPAMT58298,3ZWFC4W1U06TG5T8FSYED2G79IQRFN,CB3B6B61-CB94-41F9-BF6E-434F2D9A7BB0,2023-09-27_18h57.37.997,WP_VExplicitOC_HL,2022.2.5,Win32,16.22928737,NA,NA,NA,NA,NA,NA,NA,NA,NA,NA,NA,NA,NA,NA,NA,NA,NA,NA,NA,NA,NA,NA,NA,NA,NA,NA,NA,NA,NA,NA,NA,NA,NA,NA,NA,NA,NA,NA,NA,NA,NA,NA,NA,NA,NA,NA,NA,NA,NA,NA,NA,NA,NA,NA,NA,NA,NA,NA,NA
SUPAMT58298,3ZWFC4W1U06TG5T8FSYED2G79IQRFN,CB3B6B61-CB94-41F9-BF6E-434F2D9A7BB0,2023-09-27_18h57.37.997,WP_VExplicitOC_HL,2022.2.5,Win32,16.22928737,NA,NA,NA,NA,NA,NA,NA,NA,NA,NA,NA,NA,NA,NA,NA,NA,NA,NA,NA,NA,read a novel,NA,NA,NA,NA,NA,NA,NA,NA,NA,NA,NA,NA,NA,NA,NA,NA,NA,NA,NA,NA,NA,NA,NA,NA,NA,NA,NA,NA,NA,NA,NA,NA,NA,NA,NA,NA,NA,NA
SUPAMT58298,3ZWFC4W1U06TG5T8FSYED2G79IQRFN,CB3B6B61-CB94-41F9-BF6E-434F2D9A7BB0,2023-09-27_18h57.37.997,WP_VExplicitOC_HL,2022.2.5,Win32,16.22928737,52.08333333,3.9582,2.0475,NA,NA,NA,NA,NA,frustrated,"frustrated, not frustrated","more frustrated, less frustrated",NA,NA,NA,NA,NA,NA,NA,NA,NA,NA,0,0,0,1,1,NA,NA,NA,NA,NA,NA,NA,NA,NA,NA,NA,NA,NA,NA,NA,NA,NA,NA,NA,NA,NA,NA,NA,NA,NA,NA,NA,NA,NA,NA,NA,NA,NA
SUPAMT58298,3ZWFC4W1U06TG5T8FSYED2G79IQRFN,CB3B6B61-CB94-41F9-BF6E-434F2D9A7BB0,2023-09-27_18h57.37.997,WP_VExplicitOC_HL,2022.2.5,Win32,16.22928737,52.08333333,4.0638,2.0006,NA,NA,NA,NA,NA,happy,"unhappy, happy","less happy, more happy",NA,NA,NA,NA,NA,NA,NA,NA,NA,NA,0,1,1,0,1,NA,NA,NA,NA,NA,NA,NA,NA,NA,NA,NA,NA,NA,NA,NA,NA,NA,NA,NA,NA,NA,NA,NA,NA,NA,NA,NA,NA,NA,NA,NA,NA,NA
SUPAMT58298,3ZWFC4W1U06TG5T8FSYED2G79IQRFN,CB3B6B61-CB94-41F9-BF6E-434F2D9A7BB0,2023-09-27_18h57.37.997,WP_VExplicitOC_HL,2022.2.5,Win32,16.22928737,36.45833333,3.0964,2.0452,NA,NA,NA,NA,NA,bored,"bored, not bored","more bored, less bored",NA,NA,NA,NA,NA,NA,NA,NA,NA,NA,0,2,2,2,1,NA,NA,NA,NA,NA,NA,NA,NA,NA,NA,NA,NA,NA,NA,NA,NA,NA,NA,NA,NA,NA,NA,NA,NA,NA,NA,NA,NA,NA,NA,NA,NA,NA
SUPAMT58298,3ZWFC4W1U06TG5T8FSYED2G79IQRFN,CB3B6B61-CB94-41F9-BF6E-434F2D9A7BB0,2023-09-27_18h57.37.997,WP_VExplicitOC_HL,2022.2.5,Win32,16.22928737,NA,NA,NA,NA,NA,NA,NA,NA,NA,NA,NA,NA,NA,NA,NA,NA,NA,NA,NA,NA,NA,NA,NA,NA,NA,NA,NA,NA,NA,NA,NA,NA,NA,NA,NA,NA,NA,NA,NA,NA,NA,NA,NA,NA,NA,NA,NA,NA,NA,NA,NA,NA,NA,NA,NA,NA,NA,NA,NA
SUPAMT58298,3ZWFC4W1U06TG5T8FSYED2G79IQRFN,CB3B6B61-CB94-41F9-BF6E-434F2D9A7BB0,2023-09-27_18h57.37.997,WP_VExplicitOC_HL,2022.2.5,Win32,16.22928737,NA,NA,NA,NA,NA,NA,NA,NA,NA,NA,NA,NA,NA,NA,NA,NA,NA,NA,NA,NA,NA,NA,NA,NA,NA,NA,NA,NA,NA,NA,NA,NA,NA,NA,NA,NA,NA,NA,NA,NA,NA,NA,NA,NA,NA,NA,NA,NA,NA,NA,NA,NA,NA,NA,NA,NA,NA,NA,NA
SUPAMT58298,3ZWFC4W1U06TG5T8FSYED2G79IQRFN,CB3B6B61-CB94-41F9-BF6E-434F2D9A7BB0,2023-09-27_18h57.37.997,WP_VExplicitOC_HL,2022.2.5,Win32,16.22928737,36.97916667,4.1671,2.0493,NA,NA,NA,NA,NA,bored,"bored, not bored","more bored, less bored",NA,NA,NA,NA,NA,NA,NA,NA,NA,NA,NA,NA,NA,NA,NA,0,0,0,2,1,NA,NA,NA,NA,NA,NA,NA,NA,NA,NA,NA,NA,NA,NA,NA,NA,NA,NA,NA,NA,NA,NA,NA,NA,NA,NA,NA,NA
SUPAMT58298,3ZWFC4W1U06TG5T8FSYED2G79IQRFN,CB3B6B61-CB94-41F9-BF6E-434F2D9A7BB0,2023-09-27_18h57.37.997,WP_VExplicitOC_HL,2022.2.5,Win32,16.22928737,61.97916667,3.486,2.0861,NA,NA,NA,NA,NA,frustrated,"frustrated, not frustrated","more frustrated, less frustrated",NA,NA,NA,NA,NA,NA,NA,NA,NA,NA,NA,NA,NA,NA,NA,0,1,1,1,1,NA,NA,NA,NA,NA,NA,NA,NA,NA,NA,NA,NA,NA,NA,NA,NA,NA,NA,NA,NA,NA,NA,NA,NA,NA,NA,NA,NA
SUPAMT58298,3ZWFC4W1U06TG5T8FSYED2G79IQRFN,CB3B6B61-CB94-41F9-BF6E-434F2D9A7BB0,2023-09-27_18h57.37.997,WP_VExplicitOC_HL,2022.2.5,Win32,16.22928737,46.09375,3.6157,2.0054,NA,NA,NA,NA,NA,happy,"unhappy, happy","less happy, more happy",NA,NA,NA,NA,NA,NA,NA,NA,NA,NA,NA,NA,NA,NA,NA,0,2,2,0,1,NA,NA,NA,NA,NA,NA,NA,NA,NA,NA,NA,NA,NA,NA,NA,NA,NA,NA,NA,NA,NA,NA,NA,NA,NA,NA,NA,NA
SUPAMT58298,3ZWFC4W1U06TG5T8FSYED2G79IQRFN,CB3B6B61-CB94-41F9-BF6E-434F2D9A7BB0,2023-09-27_18h57.37.997,WP_VExplicitOC_HL,2022.2.5,Win32,16.22928737,NA,NA,NA,NA,NA,NA,NA,NA,NA,NA,NA,NA,NA,NA,NA,NA,NA,NA,NA,NA,NA,NA,NA,NA,NA,NA,NA,NA,NA,NA,NA,0,0,0,0,1,NA,NA,NA,NA,NA,NA,NA,NA,NA,NA,NA,NA,NA,NA,NA,NA,NA,NA,NA,NA,NA,NA,NA
SUPAMT58298,3ZWFC4W1U06TG5T8FSYED2G79IQRFN,CB3B6B61-CB94-41F9-BF6E-434F2D9A7BB0,2023-09-27_18h57.37.997,WP_VExplicitOC_HL,2022.2.5,Win32,16.22928737,40.625,4.5344,2.0271,NA,NA,NA,NA,NA,bored,"bored, not bored","more bored, less bored",NA,NA,NA,NA,NA,NA,NA,NA,NA,NA,NA,NA,NA,NA,NA,0,0,0,2,1,NA,NA,NA,NA,NA,NA,NA,NA,NA,NA,NA,NA,NA,NA,NA,NA,NA,NA,NA,NA,NA,NA,NA,NA,NA,NA,NA,NA
SUPAMT58298,3ZWFC4W1U06TG5T8FSYED2G79IQRFN,CB3B6B61-CB94-41F9-BF6E-434F2D9A7BB0,2023-09-27_18h57.37.997,WP_VExplicitOC_HL,2022.2.5,Win32,16.22928737,48.69791667,5.7954,2.0075,NA,NA,NA,NA,NA,happy,"unhappy, happy","less happy, more happy",NA,NA,NA,NA,NA,NA,NA,NA,NA,NA,NA,NA,NA,NA,NA,0,1,1,0,1,NA,NA,NA,NA,NA,NA,NA,NA,NA,NA,NA,NA,NA,NA,NA,NA,NA,NA,NA,NA,NA,NA,NA,NA,NA,NA,NA,NA
SUPAMT58298,3ZWFC4W1U06TG5T8FSYED2G79IQRFN,CB3B6B61-CB94-41F9-BF6E-434F2D9A7BB0,2023-09-27_18h57.37.997,WP_VExplicitOC_HL,2022.2.5,Win32,16.22928737,48.69791667,4.1178,2.0361,NA,NA,NA,NA,NA,frustrated,"frustrated, not frustrated","more frustrated, less frustrated",NA,NA,NA,NA,NA,NA,NA,NA,NA,NA,NA,NA,NA,NA,NA,0,2,2,1,1,NA,NA,NA,NA,NA,NA,NA,NA,NA,NA,NA,NA,NA,NA,NA,NA,NA,NA,NA,NA,NA,NA,NA,NA,NA,NA,NA,NA
SUPAMT58298,3ZWFC4W1U06TG5T8FSYED2G79IQRFN,CB3B6B61-CB94-41F9-BF6E-434F2D9A7BB0,2023-09-27_18h57.37.997,WP_VExplicitOC_HL,2022.2.5,Win32,16.22928737,NA,NA,NA,NA,NA,NA,NA,NA,NA,NA,NA,NA,NA,NA,NA,NA,NA,NA,NA,NA,NA,NA,NA,NA,NA,NA,NA,NA,NA,NA,NA,1,0,1,0,1,NA,NA,NA,NA,NA,NA,NA,NA,NA,NA,NA,NA,NA,NA,NA,NA,NA,NA,NA,NA,NA,NA,NA
SUPAMT58298,3ZWFC4W1U06TG5T8FSYED2G79IQRFN,CB3B6B61-CB94-41F9-BF6E-434F2D9A7BB0,2023-09-27_18h57.37.997,WP_VExplicitOC_HL,2022.2.5,Win32,16.22928737,75.26041667,4.6113,2.0311,NA,NA,NA,NA,NA,frustrated,"frustrated, not frustrated","more frustrated, less frustrated",NA,NA,NA,NA,NA,NA,NA,NA,NA,NA,NA,NA,NA,NA,NA,0,0,0,1,1,NA,NA,NA,NA,NA,NA,NA,NA,NA,NA,NA,NA,NA,NA,NA,NA,NA,NA,NA,NA,NA,NA,NA,NA,NA,NA,NA,NA
SUPAMT58298,3ZWFC4W1U06TG5T8FSYED2G79IQRFN,CB3B6B61-CB94-41F9-BF6E-434F2D9A7BB0,2023-09-27_18h57.37.997,WP_VExplicitOC_HL,2022.2.5,Win32,16.22928737,75.26041667,5.1385,2.0613,NA,NA,NA,NA,NA,bored,"bored, not bored","more bored, less bored",NA,NA,NA,NA,NA,NA,NA,NA,NA,NA,NA,NA,NA,NA,NA,0,1,1,2,1,NA,NA,NA,NA,NA,NA,NA,NA,NA,NA,NA,NA,NA,NA,NA,NA,NA,NA,NA,NA,NA,NA,NA,NA,NA,NA,NA,NA
SUPAMT58298,3ZWFC4W1U06TG5T8FSYED2G79IQRFN,CB3B6B61-CB94-41F9-BF6E-434F2D9A7BB0,2023-09-27_18h57.37.997,WP_VExplicitOC_HL,2022.2.5,Win32,16.22928737,46.875,3.1213,2.0424,NA,NA,NA,NA,NA,happy,"unhappy, happy","less happy, more happy",NA,NA,NA,NA,NA,NA,NA,NA,NA,NA,NA,NA,NA,NA,NA,0,2,2,0,1,NA,NA,NA,NA,NA,NA,NA,NA,NA,NA,NA,NA,NA,NA,NA,NA,NA,NA,NA,NA,NA,NA,NA,NA,NA,NA,NA,NA
SUPAMT58298,3ZWFC4W1U06TG5T8FSYED2G79IQRFN,CB3B6B61-CB94-41F9-BF6E-434F2D9A7BB0,2023-09-27_18h57.37.997,WP_VExplicitOC_HL,2022.2.5,Win32,16.22928737,NA,NA,NA,NA,NA,NA,NA,NA,NA,NA,NA,NA,NA,NA,NA,NA,NA,NA,NA,NA,NA,NA,NA,NA,NA,NA,NA,NA,NA,NA,NA,2,0,2,0,1,NA,NA,NA,NA,NA,NA,NA,NA,NA,NA,NA,NA,NA,NA,NA,NA,NA,NA,NA,NA,NA,NA,NA
SUPAMT58298,3ZWFC4W1U06TG5T8FSYED2G79IQRFN,CB3B6B61-CB94-41F9-BF6E-434F2D9A7BB0,2023-09-27_18h57.37.997,WP_VExplicitOC_HL,2022.2.5,Win32,16.22928737,50,3.453,2.0181,NA,NA,NA,NA,NA,frustrated,"frustrated, not frustrated","more frustrated, less frustrated",NA,NA,NA,NA,NA,NA,NA,NA,NA,NA,NA,NA,NA,NA,NA,0,0,0,1,1,NA,NA,NA,NA,NA,NA,NA,NA,NA,NA,NA,NA,NA,NA,NA,NA,NA,NA,NA,NA,NA,NA,NA,NA,NA,NA,NA,NA
SUPAMT58298,3ZWFC4W1U06TG5T8FSYED2G79IQRFN,CB3B6B61-CB94-41F9-BF6E-434F2D9A7BB0,2023-09-27_18h57.37.997,WP_VExplicitOC_HL,2022.2.5,Win32,16.22928737,50,3.9433,2.0215,NA,NA,NA,NA,NA,happy,"unhappy, happy","less happy, more happy",NA,NA,NA,NA,NA,NA,NA,NA,NA,NA,NA,NA,NA,NA,NA,0,1,1,0,1,NA,NA,NA,NA,NA,NA,NA,NA,NA,NA,NA,NA,NA,NA,NA,NA,NA,NA,NA,NA,NA,NA,NA,NA,NA,NA,NA,NA
SUPAMT58298,3ZWFC4W1U06TG5T8FSYED2G79IQRFN,CB3B6B61-CB94-41F9-BF6E-434F2D9A7BB0,2023-09-27_18h57.37.997,WP_VExplicitOC_HL,2022.2.5,Win32,16.22928737,50,3.9813,2.0558,NA,NA,NA,NA,NA,bored,"bored, not bored","more bored, less bored",NA,NA,NA,NA,NA,NA,NA,NA,NA,NA,NA,NA,NA,NA,NA,0,2,2,2,1,NA,NA,NA,NA,NA,NA,NA,NA,NA,NA,NA,NA,NA,NA,NA,NA,NA,NA,NA,NA,NA,NA,NA,NA,NA,NA,NA,NA
SUPAMT58298,3ZWFC4W1U06TG5T8FSYED2G79IQRFN,CB3B6B61-CB94-41F9-BF6E-434F2D9A7BB0,2023-09-27_18h57.37.997,WP_VExplicitOC_HL,2022.2.5,Win32,16.22928737,NA,NA,NA,NA,NA,NA,NA,NA,NA,NA,NA,NA,NA,NA,NA,NA,NA,NA,NA,NA,NA,NA,NA,NA,NA,NA,NA,NA,NA,NA,NA,3,0,3,0,1,NA,NA,NA,NA,NA,NA,NA,NA,NA,NA,NA,NA,NA,NA,NA,NA,NA,NA,NA,NA,NA,NA,NA
SUPAMT58298,3ZWFC4W1U06TG5T8FSYED2G79IQRFN,CB3B6B61-CB94-41F9-BF6E-434F2D9A7BB0,2023-09-27_18h57.37.997,WP_VExplicitOC_HL,2022.2.5,Win32,16.22928737,39.84375,3.2045,2.0467,NA,NA,NA,NA,NA,frustrated,"frustrated, not frustrated","more frustrated, less frustrated",NA,NA,NA,NA,NA,NA,NA,NA,NA,NA,NA,NA,NA,NA,NA,0,0,0,1,1,NA,NA,NA,NA,NA,NA,NA,NA,NA,NA,NA,NA,NA,NA,NA,NA,NA,NA,NA,NA,NA,NA,NA,NA,NA,NA,NA,NA
SUPAMT58298,3ZWFC4W1U06TG5T8FSYED2G79IQRFN,CB3B6B61-CB94-41F9-BF6E-434F2D9A7BB0,2023-09-27_18h57.37.997,WP_VExplicitOC_HL,2022.2.5,Win32,16.22928737,51.30208333,3.0541,2.0239,NA,NA,NA,NA,NA,happy,"unhappy, happy","less happy, more happy",NA,NA,NA,NA,NA,NA,NA,NA,NA,NA,NA,NA,NA,NA,NA,0,1,1,0,1,NA,NA,NA,NA,NA,NA,NA,NA,NA,NA,NA,NA,NA,NA,NA,NA,NA,NA,NA,NA,NA,NA,NA,NA,NA,NA,NA,NA
SUPAMT58298,3ZWFC4W1U06TG5T8FSYED2G79IQRFN,CB3B6B61-CB94-41F9-BF6E-434F2D9A7BB0,2023-09-27_18h57.37.997,WP_VExplicitOC_HL,2022.2.5,Win32,16.22928737,43.48958333,2.9423,2.033,NA,NA,NA,NA,NA,bored,"bored, not bored","more bored, less bored",NA,NA,NA,NA,NA,NA,NA,NA,NA,NA,NA,NA,NA,NA,NA,0,2,2,2,1,NA,NA,NA,NA,NA,NA,NA,NA,NA,NA,NA,NA,NA,NA,NA,NA,NA,NA,NA,NA,NA,NA,NA,NA,NA,NA,NA,NA
SUPAMT58298,3ZWFC4W1U06TG5T8FSYED2G79IQRFN,CB3B6B61-CB94-41F9-BF6E-434F2D9A7BB0,2023-09-27_18h57.37.997,WP_VExplicitOC_HL,2022.2.5,Win32,16.22928737,NA,NA,NA,NA,NA,NA,NA,NA,NA,NA,NA,NA,NA,NA,NA,NA,NA,NA,NA,NA,NA,NA,NA,NA,NA,NA,NA,NA,NA,NA,NA,4,0,4,0,1,NA,NA,NA,NA,NA,NA,NA,NA,NA,NA,NA,NA,NA,NA,NA,NA,NA,NA,NA,NA,NA,NA,NA
SUPAMT58298,3ZWFC4W1U06TG5T8FSYED2G79IQRFN,CB3B6B61-CB94-41F9-BF6E-434F2D9A7BB0,2023-09-27_18h57.37.997,WP_VExplicitOC_HL,2022.2.5,Win32,16.22928737,44.79166667,3.1944,2.0124,NA,NA,NA,NA,NA,happy,"unhappy, happy","less happy, more happy",NA,NA,NA,NA,NA,NA,NA,NA,NA,NA,NA,NA,NA,NA,NA,0,0,0,0,1,NA,NA,NA,NA,NA,NA,NA,NA,NA,NA,NA,NA,NA,NA,NA,NA,NA,NA,NA,NA,NA,NA,NA,NA,NA,NA,NA,NA
SUPAMT58298,3ZWFC4W1U06TG5T8FSYED2G79IQRFN,CB3B6B61-CB94-41F9-BF6E-434F2D9A7BB0,2023-09-27_18h57.37.997,WP_VExplicitOC_HL,2022.2.5,Win32,16.22928737,44.79166667,6.3078,2.038,NA,NA,NA,NA,NA,bored,"bored, not bored","more bored, less bored",NA,NA,NA,NA,NA,NA,NA,NA,NA,NA,NA,NA,NA,NA,NA,0,1,1,2,1,NA,NA,NA,NA,NA,NA,NA,NA,NA,NA,NA,NA,NA,NA,NA,NA,NA,NA,NA,NA,NA,NA,NA,NA,NA,NA,NA,NA
SUPAMT58298,3ZWFC4W1U06TG5T8FSYED2G79IQRFN,CB3B6B61-CB94-41F9-BF6E-434F2D9A7BB0,2023-09-27_18h57.37.997,WP_VExplicitOC_HL,2022.2.5,Win32,16.22928737,53.125,3.5384,2.0402,NA,NA,NA,NA,NA,frustrated,"frustrated, not frustrated","more frustrated, less frustrated",NA,NA,NA,NA,NA,NA,NA,NA,NA,NA,NA,NA,NA,NA,NA,0,2,2,1,1,NA,NA,NA,NA,NA,NA,NA,NA,NA,NA,NA,NA,NA,NA,NA,NA,NA,NA,NA,NA,NA,NA,NA,NA,NA,NA,NA,NA
SUPAMT58298,3ZWFC4W1U06TG5T8FSYED2G79IQRFN,CB3B6B61-CB94-41F9-BF6E-434F2D9A7BB0,2023-09-27_18h57.37.997,WP_VExplicitOC_HL,2022.2.5,Win32,16.22928737,NA,NA,NA,NA,NA,NA,NA,NA,NA,NA,NA,NA,NA,NA,NA,NA,NA,NA,NA,NA,NA,NA,NA,NA,NA,NA,NA,NA,NA,NA,NA,5,0,5,0,1,NA,NA,NA,NA,NA,NA,NA,NA,NA,NA,NA,NA,NA,NA,NA,NA,NA,NA,NA,NA,NA,NA,NA
SUPAMT58298,3ZWFC4W1U06TG5T8FSYED2G79IQRFN,CB3B6B61-CB94-41F9-BF6E-434F2D9A7BB0,2023-09-27_18h57.37.997,WP_VExplicitOC_HL,2022.2.5,Win32,16.22928737,51.30208333,3.6652,2.0173,NA,NA,NA,NA,NA,bored,"bored, not bored","more bored, less bored",NA,NA,NA,NA,NA,NA,NA,NA,NA,NA,NA,NA,NA,NA,NA,0,0,0,2,1,NA,NA,NA,NA,NA,NA,NA,NA,NA,NA,NA,NA,NA,NA,NA,NA,NA,NA,NA,NA,NA,NA,NA,NA,NA,NA,NA,NA
SUPAMT58298,3ZWFC4W1U06TG5T8FSYED2G79IQRFN,CB3B6B61-CB94-41F9-BF6E-434F2D9A7BB0,2023-09-27_18h57.37.997,WP_VExplicitOC_HL,2022.2.5,Win32,16.22928737,51.5625,3.2963,2.0124,NA,NA,NA,NA,NA,happy,"unhappy, happy","less happy, more happy",NA,NA,NA,NA,NA,NA,NA,NA,NA,NA,NA,NA,NA,NA,NA,0,1,1,0,1,NA,NA,NA,NA,NA,NA,NA,NA,NA,NA,NA,NA,NA,NA,NA,NA,NA,NA,NA,NA,NA,NA,NA,NA,NA,NA,NA,NA
SUPAMT58298,3ZWFC4W1U06TG5T8FSYED2G79IQRFN,CB3B6B61-CB94-41F9-BF6E-434F2D9A7BB0,2023-09-27_18h57.37.997,WP_VExplicitOC_HL,2022.2.5,Win32,16.22928737,51.5625,5.1906,2.016,NA,NA,NA,NA,NA,frustrated,"frustrated, not frustrated","more frustrated, less frustrated",NA,NA,NA,NA,NA,NA,NA,NA,NA,NA,NA,NA,NA,NA,NA,0,2,2,1,1,NA,NA,NA,NA,NA,NA,NA,NA,NA,NA,NA,NA,NA,NA,NA,NA,NA,NA,NA,NA,NA,NA,NA,NA,NA,NA,NA,NA
SUPAMT58298,3ZWFC4W1U06TG5T8FSYED2G79IQRFN,CB3B6B61-CB94-41F9-BF6E-434F2D9A7BB0,2023-09-27_18h57.37.997,WP_VExplicitOC_HL,2022.2.5,Win32,16.22928737,NA,NA,NA,NA,NA,NA,NA,NA,NA,NA,NA,NA,NA,NA,NA,NA,NA,NA,NA,NA,NA,NA,NA,NA,NA,NA,NA,NA,NA,NA,NA,6,0,6,0,1,NA,NA,NA,NA,NA,NA,NA,NA,NA,NA,NA,NA,NA,NA,NA,NA,NA,NA,NA,NA,NA,NA,NA
SUPAMT58298,3ZWFC4W1U06TG5T8FSYED2G79IQRFN,CB3B6B61-CB94-41F9-BF6E-434F2D9A7BB0,2023-09-27_18h57.37.997,WP_VExplicitOC_HL,2022.2.5,Win32,16.22928737,55.98958333,3.9823,2.0369,NA,NA,NA,NA,NA,bored,"bored, not bored","more bored, less bored",NA,NA,NA,NA,NA,NA,NA,NA,NA,NA,NA,NA,NA,NA,NA,0,0,0,2,1,NA,NA,NA,NA,NA,NA,NA,NA,NA,NA,NA,NA,NA,NA,NA,NA,NA,NA,NA,NA,NA,NA,NA,NA,NA,NA,NA,NA
SUPAMT58298,3ZWFC4W1U06TG5T8FSYED2G79IQRFN,CB3B6B61-CB94-41F9-BF6E-434F2D9A7BB0,2023-09-27_18h57.37.997,WP_VExplicitOC_HL,2022.2.5,Win32,16.22928737,56.25,3.0257,2.0192,NA,NA,NA,NA,NA,happy,"unhappy, happy","less happy, more happy",NA,NA,NA,NA,NA,NA,NA,NA,NA,NA,NA,NA,NA,NA,NA,0,1,1,0,1,NA,NA,NA,NA,NA,NA,NA,NA,NA,NA,NA,NA,NA,NA,NA,NA,NA,NA,NA,NA,NA,NA,NA,NA,NA,NA,NA,NA
SUPAMT58298,3ZWFC4W1U06TG5T8FSYED2G79IQRFN,CB3B6B61-CB94-41F9-BF6E-434F2D9A7BB0,2023-09-27_18h57.37.997,WP_VExplicitOC_HL,2022.2.5,Win32,16.22928737,58.07291667,3.1629,2.0339,NA,NA,NA,NA,NA,frustrated,"frustrated, not frustrated","more frustrated, less frustrated",NA,NA,NA,NA,NA,NA,NA,NA,NA,NA,NA,NA,NA,NA,NA,0,2,2,1,1,NA,NA,NA,NA,NA,NA,NA,NA,NA,NA,NA,NA,NA,NA,NA,NA,NA,NA,NA,NA,NA,NA,NA,NA,NA,NA,NA,NA
SUPAMT58298,3ZWFC4W1U06TG5T8FSYED2G79IQRFN,CB3B6B61-CB94-41F9-BF6E-434F2D9A7BB0,2023-09-27_18h57.37.997,WP_VExplicitOC_HL,2022.2.5,Win32,16.22928737,NA,NA,NA,NA,NA,NA,NA,NA,NA,NA,NA,NA,NA,NA,NA,NA,NA,NA,NA,NA,NA,NA,NA,NA,NA,NA,NA,NA,NA,NA,NA,7,0,7,0,1,NA,NA,NA,NA,NA,NA,NA,NA,NA,NA,NA,NA,NA,NA,NA,NA,NA,NA,NA,NA,NA,NA,NA
SUPAMT58298,3ZWFC4W1U06TG5T8FSYED2G79IQRFN,CB3B6B61-CB94-41F9-BF6E-434F2D9A7BB0,2023-09-27_18h57.37.997,WP_VExplicitOC_HL,2022.2.5,Win32,16.22928737,51.82291667,3.3593,2.0253,NA,NA,NA,NA,NA,happy,"unhappy, happy","less happy, more happy",NA,NA,NA,NA,NA,NA,NA,NA,NA,NA,NA,NA,NA,NA,NA,0,0,0,0,1,NA,NA,NA,NA,NA,NA,NA,NA,NA,NA,NA,NA,NA,NA,NA,NA,NA,NA,NA,NA,NA,NA,NA,NA,NA,NA,NA,NA
SUPAMT58298,3ZWFC4W1U06TG5T8FSYED2G79IQRFN,CB3B6B61-CB94-41F9-BF6E-434F2D9A7BB0,2023-09-27_18h57.37.997,WP_VExplicitOC_HL,2022.2.5,Win32,16.22928737,55.98958333,3.0403,2.0279,NA,NA,NA,NA,NA,frustrated,"frustrated, not frustrated","more frustrated, less frustrated",NA,NA,NA,NA,NA,NA,NA,NA,NA,NA,NA,NA,NA,NA,NA,0,1,1,1,1,NA,NA,NA,NA,NA,NA,NA,NA,NA,NA,NA,NA,NA,NA,NA,NA,NA,NA,NA,NA,NA,NA,NA,NA,NA,NA,NA,NA
SUPAMT58298,3ZWFC4W1U06TG5T8FSYED2G79IQRFN,CB3B6B61-CB94-41F9-BF6E-434F2D9A7BB0,2023-09-27_18h57.37.997,WP_VExplicitOC_HL,2022.2.5,Win32,16.22928737,50.78125,3.2088,2.0249,NA,NA,NA,NA,NA,bored,"bored, not bored","more bored, less bored",NA,NA,NA,NA,NA,NA,NA,NA,NA,NA,NA,NA,NA,NA,NA,0,2,2,2,1,NA,NA,NA,NA,NA,NA,NA,NA,NA,NA,NA,NA,NA,NA,NA,NA,NA,NA,NA,NA,NA,NA,NA,NA,NA,NA,NA,NA
SUPAMT58298,3ZWFC4W1U06TG5T8FSYED2G79IQRFN,CB3B6B61-CB94-41F9-BF6E-434F2D9A7BB0,2023-09-27_18h57.37.997,WP_VExplicitOC_HL,2022.2.5,Win32,16.22928737,NA,NA,NA,NA,NA,NA,NA,NA,NA,NA,NA,NA,NA,NA,NA,NA,NA,NA,NA,NA,NA,NA,NA,NA,NA,NA,NA,NA,NA,NA,NA,8,0,8,0,1,NA,NA,NA,NA,NA,NA,NA,NA,NA,NA,NA,NA,NA,NA,NA,NA,NA,NA,NA,NA,NA,NA,NA
SUPAMT58298,3ZWFC4W1U06TG5T8FSYED2G79IQRFN,CB3B6B61-CB94-41F9-BF6E-434F2D9A7BB0,2023-09-27_18h57.37.997,WP_VExplicitOC_HL,2022.2.5,Win32,16.22928737,48.95833333,3.3315,2.0325,NA,NA,NA,NA,NA,happy,"unhappy, happy","less happy, more happy",NA,NA,NA,NA,NA,NA,NA,NA,NA,NA,NA,NA,NA,NA,NA,0,0,0,0,1,NA,NA,NA,NA,NA,NA,NA,NA,NA,NA,NA,NA,NA,NA,NA,NA,NA,NA,NA,NA,NA,NA,NA,NA,NA,NA,NA,NA
SUPAMT58298,3ZWFC4W1U06TG5T8FSYED2G79IQRFN,CB3B6B61-CB94-41F9-BF6E-434F2D9A7BB0,2023-09-27_18h57.37.997,WP_VExplicitOC_HL,2022.2.5,Win32,16.22928737,49.47916667,3.6945,2.0076,NA,NA,NA,NA,NA,frustrated,"frustrated, not frustrated","more frustrated, less frustrated",NA,NA,NA,NA,NA,NA,NA,NA,NA,NA,NA,NA,NA,NA,NA,0,1,1,1,1,NA,NA,NA,NA,NA,NA,NA,NA,NA,NA,NA,NA,NA,NA,NA,NA,NA,NA,NA,NA,NA,NA,NA,NA,NA,NA,NA,NA
SUPAMT58298,3ZWFC4W1U06TG5T8FSYED2G79IQRFN,CB3B6B61-CB94-41F9-BF6E-434F2D9A7BB0,2023-09-27_18h57.37.997,WP_VExplicitOC_HL,2022.2.5,Win32,16.22928737,53.64583333,3.1882,2.0423,NA,NA,NA,NA,NA,bored,"bored, not bored","more bored, less bored",NA,NA,NA,NA,NA,NA,NA,NA,NA,NA,NA,NA,NA,NA,NA,0,2,2,2,1,NA,NA,NA,NA,NA,NA,NA,NA,NA,NA,NA,NA,NA,NA,NA,NA,NA,NA,NA,NA,NA,NA,NA,NA,NA,NA,NA,NA
SUPAMT58298,3ZWFC4W1U06TG5T8FSYED2G79IQRFN,CB3B6B61-CB94-41F9-BF6E-434F2D9A7BB0,2023-09-27_18h57.37.997,WP_VExplicitOC_HL,2022.2.5,Win32,16.22928737,NA,NA,NA,NA,NA,NA,NA,NA,NA,NA,NA,NA,NA,NA,NA,NA,NA,NA,NA,NA,NA,NA,NA,NA,NA,NA,NA,NA,NA,NA,NA,9,0,9,0,1,NA,NA,NA,NA,NA,NA,NA,NA,NA,NA,NA,NA,NA,NA,NA,NA,NA,NA,NA,NA,NA,NA,NA
SUPAMT58298,3ZWFC4W1U06TG5T8FSYED2G79IQRFN,CB3B6B61-CB94-41F9-BF6E-434F2D9A7BB0,2023-09-27_18h57.37.997,WP_VExplicitOC_HL,2022.2.5,Win32,16.22928737,64.58333333,3.7344,2.0017,NA,NA,NA,NA,NA,frustrated,"frustrated, not frustrated","more frustrated, less frustrated",NA,NA,NA,NA,NA,NA,NA,NA,NA,NA,NA,NA,NA,NA,NA,0,0,0,1,1,NA,NA,NA,NA,NA,NA,NA,NA,NA,NA,NA,NA,NA,NA,NA,NA,NA,NA,NA,NA,NA,NA,NA,NA,NA,NA,NA,NA
SUPAMT58298,3ZWFC4W1U06TG5T8FSYED2G79IQRFN,CB3B6B61-CB94-41F9-BF6E-434F2D9A7BB0,2023-09-27_18h57.37.997,WP_VExplicitOC_HL,2022.2.5,Win32,16.22928737,51.04166667,3.2119,2.0448,NA,NA,NA,NA,NA,happy,"unhappy, happy","less happy, more happy",NA,NA,NA,NA,NA,NA,NA,NA,NA,NA,NA,NA,NA,NA,NA,0,1,1,0,1,NA,NA,NA,NA,NA,NA,NA,NA,NA,NA,NA,NA,NA,NA,NA,NA,NA,NA,NA,NA,NA,NA,NA,NA,NA,NA,NA,NA
SUPAMT58298,3ZWFC4W1U06TG5T8FSYED2G79IQRFN,CB3B6B61-CB94-41F9-BF6E-434F2D9A7BB0,2023-09-27_18h57.37.997,WP_VExplicitOC_HL,2022.2.5,Win32,16.22928737,54.94791667,3.1664,2.019,NA,NA,NA,NA,NA,bored,"bored, not bored","more bored, less bored",NA,NA,NA,NA,NA,NA,NA,NA,NA,NA,NA,NA,NA,NA,NA,0,2,2,2,1,NA,NA,NA,NA,NA,NA,NA,NA,NA,NA,NA,NA,NA,NA,NA,NA,NA,NA,NA,NA,NA,NA,NA,NA,NA,NA,NA,NA
SUPAMT58298,3ZWFC4W1U06TG5T8FSYED2G79IQRFN,CB3B6B61-CB94-41F9-BF6E-434F2D9A7BB0,2023-09-27_18h57.37.997,WP_VExplicitOC_HL,2022.2.5,Win32,16.22928737,NA,NA,NA,NA,NA,NA,NA,NA,NA,NA,NA,NA,NA,NA,NA,NA,NA,NA,NA,NA,NA,NA,NA,NA,NA,NA,NA,NA,NA,NA,NA,10,0,10,0,1,NA,NA,NA,NA,NA,NA,NA,NA,NA,NA,NA,NA,NA,NA,NA,NA,NA,NA,NA,NA,NA,NA,NA
SUPAMT58298,3ZWFC4W1U06TG5T8FSYED2G79IQRFN,CB3B6B61-CB94-41F9-BF6E-434F2D9A7BB0,2023-09-27_18h57.37.997,WP_VExplicitOC_HL,2022.2.5,Win32,16.22928737,47.13541667,3.4581,2.0044,NA,NA,NA,NA,NA,happy,"unhappy, happy","less happy, more happy",NA,NA,NA,NA,NA,NA,NA,NA,NA,NA,NA,NA,NA,NA,NA,0,0,0,0,1,NA,NA,NA,NA,NA,NA,NA,NA,NA,NA,NA,NA,NA,NA,NA,NA,NA,NA,NA,NA,NA,NA,NA,NA,NA,NA,NA,NA
SUPAMT58298,3ZWFC4W1U06TG5T8FSYED2G79IQRFN,CB3B6B61-CB94-41F9-BF6E-434F2D9A7BB0,2023-09-27_18h57.37.997,WP_VExplicitOC_HL,2022.2.5,Win32,16.22928737,57.03125,3.2514,2.0563,NA,NA,NA,NA,NA,bored,"bored, not bored","more bored, less bored",NA,NA,NA,NA,NA,NA,NA,NA,NA,NA,NA,NA,NA,NA,NA,0,1,1,2,1,NA,NA,NA,NA,NA,NA,NA,NA,NA,NA,NA,NA,NA,NA,NA,NA,NA,NA,NA,NA,NA,NA,NA,NA,NA,NA,NA,NA
SUPAMT58298,3ZWFC4W1U06TG5T8FSYED2G79IQRFN,CB3B6B61-CB94-41F9-BF6E-434F2D9A7BB0,2023-09-27_18h57.37.997,WP_VExplicitOC_HL,2022.2.5,Win32,16.22928737,57.03125,3.0943,2.0541,NA,NA,NA,NA,NA,frustrated,"frustrated, not frustrated","more frustrated, less frustrated",NA,NA,NA,NA,NA,NA,NA,NA,NA,NA,NA,NA,NA,NA,NA,0,2,2,1,1,NA,NA,NA,NA,NA,NA,NA,NA,NA,NA,NA,NA,NA,NA,NA,NA,NA,NA,NA,NA,NA,NA,NA,NA,NA,NA,NA,NA
SUPAMT58298,3ZWFC4W1U06TG5T8FSYED2G79IQRFN,CB3B6B61-CB94-41F9-BF6E-434F2D9A7BB0,2023-09-27_18h57.37.997,WP_VExplicitOC_HL,2022.2.5,Win32,16.22928737,NA,NA,NA,NA,NA,NA,NA,NA,NA,NA,NA,NA,NA,NA,NA,NA,NA,NA,NA,NA,NA,NA,NA,NA,NA,NA,NA,NA,NA,NA,NA,11,0,11,0,1,NA,NA,NA,NA,NA,NA,NA,NA,NA,NA,NA,NA,NA,NA,NA,NA,NA,NA,NA,NA,NA,NA,NA
SUPAMT58298,3ZWFC4W1U06TG5T8FSYED2G79IQRFN,CB3B6B61-CB94-41F9-BF6E-434F2D9A7BB0,2023-09-27_18h57.37.997,WP_VExplicitOC_HL,2022.2.5,Win32,16.22928737,51.30208333,6.0765,2.0115,NA,NA,NA,NA,NA,bored,"bored, not bored","more bored, less bored",NA,NA,NA,NA,NA,NA,NA,NA,NA,NA,NA,NA,NA,NA,NA,0,0,0,2,1,NA,NA,NA,NA,NA,NA,NA,NA,NA,NA,NA,NA,NA,NA,NA,NA,NA,NA,NA,NA,NA,NA,NA,NA,NA,NA,NA,NA
SUPAMT58298,3ZWFC4W1U06TG5T8FSYED2G79IQRFN,CB3B6B61-CB94-41F9-BF6E-434F2D9A7BB0,2023-09-27_18h57.37.997,WP_VExplicitOC_HL,2022.2.5,Win32,16.22928737,33.85416667,3.9631,2.0121000000000002,NA,NA,NA,NA,NA,frustrated,"frustrated, not frustrated","more frustrated, less frustrated",NA,NA,NA,NA,NA,NA,NA,NA,NA,NA,NA,NA,NA,NA,NA,0,1,1,1,1,NA,NA,NA,NA,NA,NA,NA,NA,NA,NA,NA,NA,NA,NA,NA,NA,NA,NA,NA,NA,NA,NA,NA,NA,NA,NA,NA,NA
SUPAMT58298,3ZWFC4W1U06TG5T8FSYED2G79IQRFN,CB3B6B61-CB94-41F9-BF6E-434F2D9A7BB0,2023-09-27_18h57.37.997,WP_VExplicitOC_HL,2022.2.5,Win32,16.22928737,57.29166667,3.1055,2.0419,NA,NA,NA,NA,NA,happy,"unhappy, happy","less happy, more happy",NA,NA,NA,NA,NA,NA,NA,NA,NA,NA,NA,NA,NA,NA,NA,0,2,2,0,1,NA,NA,NA,NA,NA,NA,NA,NA,NA,NA,NA,NA,NA,NA,NA,NA,NA,NA,NA,NA,NA,NA,NA,NA,NA,NA,NA,NA
SUPAMT58298,3ZWFC4W1U06TG5T8FSYED2G79IQRFN,CB3B6B61-CB94-41F9-BF6E-434F2D9A7BB0,2023-09-27_18h57.37.997,WP_VExplicitOC_HL,2022.2.5,Win32,16.22928737,NA,NA,NA,NA,NA,NA,NA,NA,NA,NA,NA,NA,NA,NA,NA,NA,NA,NA,NA,NA,NA,NA,NA,NA,NA,NA,NA,NA,NA,NA,NA,12,0,12,0,1,NA,NA,NA,NA,NA,NA,NA,NA,NA,NA,NA,NA,NA,NA,NA,NA,NA,NA,NA,NA,NA,NA,NA
SUPAMT58298,3ZWFC4W1U06TG5T8FSYED2G79IQRFN,CB3B6B61-CB94-41F9-BF6E-434F2D9A7BB0,2023-09-27_18h57.37.997,WP_VExplicitOC_HL,2022.2.5,Win32,16.22928737,49.73958333,3.0494,2.0165,NA,NA,NA,NA,NA,frustrated,"frustrated, not frustrated","more frustrated, less frustrated",NA,NA,NA,NA,NA,NA,NA,NA,NA,NA,NA,NA,NA,NA,NA,0,0,0,1,1,NA,NA,NA,NA,NA,NA,NA,NA,NA,NA,NA,NA,NA,NA,NA,NA,NA,NA,NA,NA,NA,NA,NA,NA,NA,NA,NA,NA
SUPAMT58298,3ZWFC4W1U06TG5T8FSYED2G79IQRFN,CB3B6B61-CB94-41F9-BF6E-434F2D9A7BB0,2023-09-27_18h57.37.997,WP_VExplicitOC_HL,2022.2.5,Win32,16.22928737,49.73958333,3.9038,2.0041,NA,NA,NA,NA,NA,happy,"unhappy, happy","less happy, more happy",NA,NA,NA,NA,NA,NA,NA,NA,NA,NA,NA,NA,NA,NA,NA,0,1,1,0,1,NA,NA,NA,NA,NA,NA,NA,NA,NA,NA,NA,NA,NA,NA,NA,NA,NA,NA,NA,NA,NA,NA,NA,NA,NA,NA,NA,NA
SUPAMT58298,3ZWFC4W1U06TG5T8FSYED2G79IQRFN,CB3B6B61-CB94-41F9-BF6E-434F2D9A7BB0,2023-09-27_18h57.37.997,WP_VExplicitOC_HL,2022.2.5,Win32,16.22928737,49.47916667,4.2637,2.0379,NA,NA,NA,NA,NA,bored,"bored, not bored","more bored, less bored",NA,NA,NA,NA,NA,NA,NA,NA,NA,NA,NA,NA,NA,NA,NA,0,2,2,2,1,NA,NA,NA,NA,NA,NA,NA,NA,NA,NA,NA,NA,NA,NA,NA,NA,NA,NA,NA,NA,NA,NA,NA,NA,NA,NA,NA,NA
SUPAMT58298,3ZWFC4W1U06TG5T8FSYED2G79IQRFN,CB3B6B61-CB94-41F9-BF6E-434F2D9A7BB0,2023-09-27_18h57.37.997,WP_VExplicitOC_HL,2022.2.5,Win32,16.22928737,NA,NA,NA,NA,NA,NA,NA,NA,NA,NA,NA,NA,NA,NA,NA,NA,NA,NA,NA,NA,NA,NA,NA,NA,NA,NA,NA,NA,NA,NA,NA,13,0,13,0,1,NA,NA,NA,NA,NA,NA,NA,NA,NA,NA,NA,NA,NA,NA,NA,NA,NA,NA,NA,NA,NA,NA,NA
SUPAMT58298,3ZWFC4W1U06TG5T8FSYED2G79IQRFN,CB3B6B61-CB94-41F9-BF6E-434F2D9A7BB0,2023-09-27_18h57.37.997,WP_VExplicitOC_HL,2022.2.5,Win32,16.22928737,50,3.1624,2.0318,NA,NA,NA,NA,NA,bored,"bored, not bored","more bored, less bored",NA,NA,NA,NA,NA,NA,NA,NA,NA,NA,NA,NA,NA,NA,NA,0,0,0,2,1,NA,NA,NA,NA,NA,NA,NA,NA,NA,NA,NA,NA,NA,NA,NA,NA,NA,NA,NA,NA,NA,NA,NA,NA,NA,NA,NA,NA
SUPAMT58298,3ZWFC4W1U06TG5T8FSYED2G79IQRFN,CB3B6B61-CB94-41F9-BF6E-434F2D9A7BB0,2023-09-27_18h57.37.997,WP_VExplicitOC_HL,2022.2.5,Win32,16.22928737,50,3.6602,2.0377,NA,NA,NA,NA,NA,happy,"unhappy, happy","less happy, more happy",NA,NA,NA,NA,NA,NA,NA,NA,NA,NA,NA,NA,NA,NA,NA,0,1,1,0,1,NA,NA,NA,NA,NA,NA,NA,NA,NA,NA,NA,NA,NA,NA,NA,NA,NA,NA,NA,NA,NA,NA,NA,NA,NA,NA,NA,NA
SUPAMT58298,3ZWFC4W1U06TG5T8FSYED2G79IQRFN,CB3B6B61-CB94-41F9-BF6E-434F2D9A7BB0,2023-09-27_18h57.37.997,WP_VExplicitOC_HL,2022.2.5,Win32,16.22928737,52.86458333,3.5734,2.0399,NA,NA,NA,NA,NA,frustrated,"frustrated, not frustrated","more frustrated, less frustrated",NA,NA,NA,NA,NA,NA,NA,NA,NA,NA,NA,NA,NA,NA,NA,0,2,2,1,1,NA,NA,NA,NA,NA,NA,NA,NA,NA,NA,NA,NA,NA,NA,NA,NA,NA,NA,NA,NA,NA,NA,NA,NA,NA,NA,NA,NA
SUPAMT58298,3ZWFC4W1U06TG5T8FSYED2G79IQRFN,CB3B6B61-CB94-41F9-BF6E-434F2D9A7BB0,2023-09-27_18h57.37.997,WP_VExplicitOC_HL,2022.2.5,Win32,16.22928737,NA,NA,NA,NA,NA,NA,NA,NA,NA,NA,NA,NA,NA,NA,NA,NA,NA,NA,NA,NA,NA,NA,NA,NA,NA,NA,NA,NA,NA,NA,NA,14,0,14,0,1,NA,NA,NA,NA,NA,NA,NA,NA,NA,NA,NA,NA,NA,NA,NA,NA,NA,NA,NA,NA,NA,NA,NA
SUPAMT58298,3ZWFC4W1U06TG5T8FSYED2G79IQRFN,CB3B6B61-CB94-41F9-BF6E-434F2D9A7BB0,2023-09-27_18h57.37.997,WP_VExplicitOC_HL,2022.2.5,Win32,16.22928737,NA,NA,NA,NA,NA,NA,NA,NA,NA,NA,NA,NA,NA,NA,NA,NA,NA,NA,NA,NA,NA,NA,NA,NA,NA,NA,NA,NA,NA,NA,NA,NA,NA,NA,NA,NA,NA,NA,NA,NA,NA,NA,NA,NA,NA,NA,NA,NA,NA,NA,NA,NA,NA,NA,NA,NA,NA,NA,NA
SUPAMT58298,3ZWFC4W1U06TG5T8FSYED2G79IQRFN,CB3B6B61-CB94-41F9-BF6E-434F2D9A7BB0,2023-09-27_18h57.37.997,WP_VExplicitOC_HL,2022.2.5,Win32,16.22928737,NA,NA,NA,NA,NA,NA,NA,NA,NA,NA,NA,NA,NA,NA,NA,NA,NA,NA,NA,NA,NA,NA,NA,NA,NA,NA,NA,NA,NA,NA,NA,NA,NA,NA,NA,NA,NA,NA,NA,NA,NA,NA,NA,NA,NA,NA,NA,NA,NA,NA,NA,NA,NA,NA,NA,NA,NA,NA,NA
SUPAMT58298,3ZWFC4W1U06TG5T8FSYED2G79IQRFN,CB3B6B61-CB94-41F9-BF6E-434F2D9A7BB0,2023-09-27_18h57.37.997,WP_VExplicitOC_HL,2022.2.5,Win32,16.22928737,NA,NA,NA,NA,NA,NA,NA,NA,NA,NA,NA,NA,NA,NA,NA,NA,NA,NA,rest (looking at a fixed cross),001.png,NA,NA,NA,NA,NA,NA,NA,NA,NA,NA,NA,NA,NA,NA,NA,NA,63.54166667,4.2647,0,0,0,0,1,NA,NA,NA,NA,NA,NA,NA,NA,NA,NA,NA,NA,NA,NA,NA,NA
SUPAMT58298,3ZWFC4W1U06TG5T8FSYED2G79IQRFN,CB3B6B61-CB94-41F9-BF6E-434F2D9A7BB0,2023-09-27_18h57.37.997,WP_VExplicitOC_HL,2022.2.5,Win32,16.22928737,NA,NA,NA,NA,NA,NA,NA,NA,NA,NA,NA,NA,NA,NA,NA,NA,NA,NA,stand up,002.png,NA,NA,NA,NA,NA,NA,NA,NA,NA,NA,NA,NA,NA,NA,NA,NA,-30.72916667,1.2757,0,1,1,1,1,NA,NA,NA,NA,NA,NA,NA,NA,NA,NA,NA,NA,NA,NA,NA,NA
SUPAMT58298,3ZWFC4W1U06TG5T8FSYED2G79IQRFN,CB3B6B61-CB94-41F9-BF6E-434F2D9A7BB0,2023-09-27_18h57.37.997,WP_VExplicitOC_HL,2022.2.5,Win32,16.22928737,NA,NA,NA,NA,NA,NA,NA,NA,NA,NA,NA,NA,NA,NA,NA,NA,NA,NA,stretch,003.png,NA,NA,NA,NA,NA,NA,NA,NA,NA,NA,NA,NA,NA,NA,NA,NA,15.625,0.8708,0,2,2,2,1,NA,NA,NA,NA,NA,NA,NA,NA,NA,NA,NA,NA,NA,NA,NA,NA
SUPAMT58298,3ZWFC4W1U06TG5T8FSYED2G79IQRFN,CB3B6B61-CB94-41F9-BF6E-434F2D9A7BB0,2023-09-27_18h57.37.997,WP_VExplicitOC_HL,2022.2.5,Win32,16.22928737,NA,NA,NA,NA,NA,NA,NA,NA,NA,NA,NA,NA,NA,NA,NA,NA,NA,NA,make a drink,004.png,NA,NA,NA,NA,NA,NA,NA,NA,NA,NA,NA,NA,NA,NA,NA,NA,32.29166667,1.1044,0,3,3,3,1,NA,NA,NA,NA,NA,NA,NA,NA,NA,NA,NA,NA,NA,NA,NA,NA
SUPAMT58298,3ZWFC4W1U06TG5T8FSYED2G79IQRFN,CB3B6B61-CB94-41F9-BF6E-434F2D9A7BB0,2023-09-27_18h57.37.997,WP_VExplicitOC_HL,2022.2.5,Win32,16.22928737,NA,NA,NA,NA,NA,NA,NA,NA,NA,NA,NA,NA,NA,NA,NA,NA,NA,NA,scroll social media,005.png,NA,NA,NA,NA,NA,NA,NA,NA,NA,NA,NA,NA,NA,NA,NA,NA,-19.01041667,1.3209,0,4,4,4,1,NA,NA,NA,NA,NA,NA,NA,NA,NA,NA,NA,NA,NA,NA,NA,NA
SUPAMT58298,3ZWFC4W1U06TG5T8FSYED2G79IQRFN,CB3B6B61-CB94-41F9-BF6E-434F2D9A7BB0,2023-09-27_18h57.37.997,WP_VExplicitOC_HL,2022.2.5,Win32,16.22928737,NA,NA,NA,NA,NA,NA,NA,NA,NA,NA,NA,NA,NA,NA,NA,NA,NA,NA,listen to music,006.png,NA,NA,NA,NA,NA,NA,NA,NA,NA,NA,NA,NA,NA,NA,NA,NA,25.52083333,1.0574,0,5,5,5,1,NA,NA,NA,NA,NA,NA,NA,NA,NA,NA,NA,NA,NA,NA,NA,NA
SUPAMT58298,3ZWFC4W1U06TG5T8FSYED2G79IQRFN,CB3B6B61-CB94-41F9-BF6E-434F2D9A7BB0,2023-09-27_18h57.37.997,WP_VExplicitOC_HL,2022.2.5,Win32,16.22928737,NA,NA,NA,NA,NA,NA,NA,NA,NA,NA,NA,NA,NA,NA,NA,NA,NA,NA,daydream,007.png,NA,NA,NA,NA,NA,NA,NA,NA,NA,NA,NA,NA,NA,NA,NA,NA,37.23958333,1.1708,0,6,6,6,1,NA,NA,NA,NA,NA,NA,NA,NA,NA,NA,NA,NA,NA,NA,NA,NA
SUPAMT58298,3ZWFC4W1U06TG5T8FSYED2G79IQRFN,CB3B6B61-CB94-41F9-BF6E-434F2D9A7BB0,2023-09-27_18h57.37.997,WP_VExplicitOC_HL,2022.2.5,Win32,16.22928737,NA,NA,NA,NA,NA,NA,NA,NA,NA,NA,NA,NA,NA,NA,NA,NA,NA,NA,watch a short animation,008.png,NA,NA,NA,NA,NA,NA,NA,NA,NA,NA,NA,NA,NA,NA,NA,NA,34.63541667,1.4154,0,7,7,7,1,NA,NA,NA,NA,NA,NA,NA,NA,NA,NA,NA,NA,NA,NA,NA,NA
SUPAMT58298,3ZWFC4W1U06TG5T8FSYED2G79IQRFN,CB3B6B61-CB94-41F9-BF6E-434F2D9A7BB0,2023-09-27_18h57.37.997,WP_VExplicitOC_HL,2022.2.5,Win32,16.22928737,NA,NA,NA,NA,NA,NA,NA,NA,NA,NA,NA,NA,NA,NA,NA,NA,NA,NA,read a novel,009.png,NA,NA,NA,NA,NA,NA,NA,NA,NA,NA,NA,NA,NA,NA,NA,NA,35.67708333,1.2643,0,8,8,8,1,NA,NA,NA,NA,NA,NA,NA,NA,NA,NA,NA,NA,NA,NA,NA,NA
SUPAMT58298,3ZWFC4W1U06TG5T8FSYED2G79IQRFN,CB3B6B61-CB94-41F9-BF6E-434F2D9A7BB0,2023-09-27_18h57.37.997,WP_VExplicitOC_HL,2022.2.5,Win32,16.22928737,NA,NA,NA,NA,NA,NA,NA,NA,NA,NA,NA,NA,NA,NA,NA,NA,NA,NA,read the news,010.png,NA,NA,NA,NA,NA,NA,NA,NA,NA,NA,NA,NA,NA,NA,NA,NA,-19.79166667,1.3327,0,9,9,9,1,NA,NA,NA,NA,NA,NA,NA,NA,NA,NA,NA,NA,NA,NA,NA,NA
SUPAMT58298,3ZWFC4W1U06TG5T8FSYED2G79IQRFN,CB3B6B61-CB94-41F9-BF6E-434F2D9A7BB0,2023-09-27_18h57.37.997,WP_VExplicitOC_HL,2022.2.5,Win32,16.22928737,NA,NA,NA,NA,NA,NA,NA,NA,NA,NA,NA,NA,NA,NA,NA,NA,NA,NA,NA,NA,NA,NA,NA,NA,NA,NA,NA,NA,NA,NA,NA,NA,NA,NA,NA,NA,NA,NA,NA,NA,NA,NA,NA,stand up,NA,NA,NA,NA,NA,NA,NA,NA,NA,NA,NA,NA,NA,NA,NA
SUPAMT58298,3ZWFC4W1U06TG5T8FSYED2G79IQRFN,CB3B6B61-CB94-41F9-BF6E-434F2D9A7BB0,2023-09-27_18h57.37.997,WP_VExplicitOC_HL,2022.2.5,Win32,16.22928737,60.15625,3.6469,2.0562,NA,NA,NA,NA,NA,happy,"unhappy, happy","less happy, more happy",NA,NA,NA,NA,NA,NA,NA,NA,NA,NA,NA,NA,NA,NA,NA,NA,NA,NA,NA,NA,NA,NA,NA,NA,NA,NA,NA,NA,NA,NA,NA,NA,NA,0,0,0,0,1,NA,NA,NA,NA,NA,NA,NA,NA,NA,NA
SUPAMT58298,3ZWFC4W1U06TG5T8FSYED2G79IQRFN,CB3B6B61-CB94-41F9-BF6E-434F2D9A7BB0,2023-09-27_18h57.37.997,WP_VExplicitOC_HL,2022.2.5,Win32,16.22928737,45.05208333,2.9205,2.0147,NA,NA,NA,NA,NA,frustrated,"frustrated, not frustrated","more frustrated, less frustrated",NA,NA,NA,NA,NA,NA,NA,NA,NA,NA,NA,NA,NA,NA,NA,NA,NA,NA,NA,NA,NA,NA,NA,NA,NA,NA,NA,NA,NA,NA,NA,NA,NA,0,1,1,1,1,NA,NA,NA,NA,NA,NA,NA,NA,NA,NA
SUPAMT58298,3ZWFC4W1U06TG5T8FSYED2G79IQRFN,CB3B6B61-CB94-41F9-BF6E-434F2D9A7BB0,2023-09-27_18h57.37.997,WP_VExplicitOC_HL,2022.2.5,Win32,16.22928737,52.08333333,3.3045,2.0501,NA,NA,NA,NA,NA,bored,"bored, not bored","more bored, less bored",NA,NA,NA,NA,NA,NA,NA,NA,NA,NA,NA,NA,NA,NA,NA,NA,NA,NA,NA,NA,NA,NA,NA,NA,NA,NA,NA,NA,NA,NA,NA,NA,NA,0,2,2,2,1,NA,NA,NA,NA,NA,NA,NA,NA,NA,NA
SUPAMT58298,3ZWFC4W1U06TG5T8FSYED2G79IQRFN,CB3B6B61-CB94-41F9-BF6E-434F2D9A7BB0,2023-09-27_18h57.37.997,WP_VExplicitOC_HL,2022.2.5,Win32,16.22928737,NA,NA,NA,NA,NA,NA,NA,NA,NA,NA,NA,NA,NA,NA,NA,NA,NA,NA,NA,NA,NA,NA,NA,NA,NA,NA,NA,NA,NA,NA,NA,NA,NA,NA,NA,NA,NA,NA,NA,NA,NA,NA,NA,NA,NA,NA,NA,NA,NA,NA,NA,NA,NA,NA,NA,NA,NA,NA,NA
SUPAMT58298,3ZWFC4W1U06TG5T8FSYED2G79IQRFN,CB3B6B61-CB94-41F9-BF6E-434F2D9A7BB0,2023-09-27_18h57.37.997,WP_VExplicitOC_HL,2022.2.5,Win32,16.22928737,NA,NA,NA,NA,NA,NA,NA,NA,NA,NA,NA,NA,NA,NA,NA,NA,NA,NA,NA,NA,NA,NA,NA,NA,NA,NA,NA,NA,NA,NA,NA,NA,NA,NA,NA,NA,NA,NA,NA,NA,NA,NA,NA,NA,NA,NA,NA,NA,NA,NA,NA,NA,NA,NA,NA,NA,NA,NA,NA
SUPAMT58298,3ZWFC4W1U06TG5T8FSYED2G79IQRFN,CB3B6B61-CB94-41F9-BF6E-434F2D9A7BB0,2023-09-27_18h57.37.997,WP_VExplicitOC_HL,2022.2.5,Win32,16.22928737,45.05208333,3.8932,2.0116,NA,NA,NA,NA,NA,bored,"bored, not bored","more bored, less bored",NA,NA,NA,NA,NA,NA,NA,NA,NA,NA,NA,NA,NA,NA,NA,NA,NA,NA,NA,NA,NA,NA,NA,NA,NA,NA,NA,NA,NA,NA,NA,NA,NA,NA,NA,NA,NA,NA,0,0,0,2,1,NA,NA,NA,NA,NA
SUPAMT58298,3ZWFC4W1U06TG5T8FSYED2G79IQRFN,CB3B6B61-CB94-41F9-BF6E-434F2D9A7BB0,2023-09-27_18h57.37.997,WP_VExplicitOC_HL,2022.2.5,Win32,16.22928737,31.77083333,3.4908,2.059,NA,NA,NA,NA,NA,happy,"unhappy, happy","less happy, more happy",NA,NA,NA,NA,NA,NA,NA,NA,NA,NA,NA,NA,NA,NA,NA,NA,NA,NA,NA,NA,NA,NA,NA,NA,NA,NA,NA,NA,NA,NA,NA,NA,NA,NA,NA,NA,NA,NA,0,1,1,0,1,NA,NA,NA,NA,NA
SUPAMT58298,3ZWFC4W1U06TG5T8FSYED2G79IQRFN,CB3B6B61-CB94-41F9-BF6E-434F2D9A7BB0,2023-09-27_18h57.37.997,WP_VExplicitOC_HL,2022.2.5,Win32,16.22928737,55.46875,3.1919,2.0229,NA,NA,NA,NA,NA,frustrated,"frustrated, not frustrated","more frustrated, less frustrated",NA,NA,NA,NA,NA,NA,NA,NA,NA,NA,NA,NA,NA,NA,NA,NA,NA,NA,NA,NA,NA,NA,NA,NA,NA,NA,NA,NA,NA,NA,NA,NA,NA,NA,NA,NA,NA,NA,0,2,2,1,1,NA,NA,NA,NA,NA
SUPAMT58298,3ZWFC4W1U06TG5T8FSYED2G79IQRFN,CB3B6B61-CB94-41F9-BF6E-434F2D9A7BB0,2023-09-27_18h57.37.997,WP_VExplicitOC_HL,2022.2.5,Win32,16.22928737,NA,NA,NA,NA,NA,NA,NA,NA,NA,NA,NA,NA,NA,NA,NA,NA,NA,NA,NA,NA,NA,NA,NA,NA,NA,NA,NA,NA,NA,NA,NA,NA,NA,NA,NA,NA,NA,NA,NA,NA,NA,NA,NA,NA,NA,NA,NA,NA,NA,NA,NA,NA,NA,NA,0,0,0,0,1
SUPAMT58298,3ZWFC4W1U06TG5T8FSYED2G79IQRFN,CB3B6B61-CB94-41F9-BF6E-434F2D9A7BB0,2023-09-27_18h57.37.997,WP_VExplicitOC_HL,2022.2.5,Win32,16.22928737,42.96875,4.3695,2.0025,NA,NA,NA,NA,NA,frustrated,"frustrated, not frustrated","more frustrated, less frustrated",NA,NA,NA,NA,NA,NA,NA,NA,NA,NA,NA,NA,NA,NA,NA,NA,NA,NA,NA,NA,NA,NA,NA,NA,NA,NA,NA,NA,NA,NA,NA,NA,NA,NA,NA,NA,NA,NA,0,0,0,1,1,NA,NA,NA,NA,NA
SUPAMT58298,3ZWFC4W1U06TG5T8FSYED2G79IQRFN,CB3B6B61-CB94-41F9-BF6E-434F2D9A7BB0,2023-09-27_18h57.37.997,WP_VExplicitOC_HL,2022.2.5,Win32,16.22928737,46.35416667,3.2821,2.0129,NA,NA,NA,NA,NA,happy,"unhappy, happy","less happy, more happy",NA,NA,NA,NA,NA,NA,NA,NA,NA,NA,NA,NA,NA,NA,NA,NA,NA,NA,NA,NA,NA,NA,NA,NA,NA,NA,NA,NA,NA,NA,NA,NA,NA,NA,NA,NA,NA,NA,0,1,1,0,1,NA,NA,NA,NA,NA
SUPAMT58298,3ZWFC4W1U06TG5T8FSYED2G79IQRFN,CB3B6B61-CB94-41F9-BF6E-434F2D9A7BB0,2023-09-27_18h57.37.997,WP_VExplicitOC_HL,2022.2.5,Win32,16.22928737,45.83333333,3.6125,2.024,NA,NA,NA,NA,NA,bored,"bored, not bored","more bored, less bored",NA,NA,NA,NA,NA,NA,NA,NA,NA,NA,NA,NA,NA,NA,NA,NA,NA,NA,NA,NA,NA,NA,NA,NA,NA,NA,NA,NA,NA,NA,NA,NA,NA,NA,NA,NA,NA,NA,0,2,2,2,1,NA,NA,NA,NA,NA
SUPAMT58298,3ZWFC4W1U06TG5T8FSYED2G79IQRFN,CB3B6B61-CB94-41F9-BF6E-434F2D9A7BB0,2023-09-27_18h57.37.997,WP_VExplicitOC_HL,2022.2.5,Win32,16.22928737,NA,NA,NA,NA,NA,NA,NA,NA,NA,NA,NA,NA,NA,NA,NA,NA,NA,NA,NA,NA,NA,NA,NA,NA,NA,NA,NA,NA,NA,NA,NA,NA,NA,NA,NA,NA,NA,NA,NA,NA,NA,NA,NA,NA,NA,NA,NA,NA,NA,NA,NA,NA,NA,NA,1,0,1,0,1
SUPAMT58298,3ZWFC4W1U06TG5T8FSYED2G79IQRFN,CB3B6B61-CB94-41F9-BF6E-434F2D9A7BB0,2023-09-27_18h57.37.997,WP_VExplicitOC_HL,2022.2.5,Win32,16.22928737,40.36458333,5.2561,2.0553,NA,NA,NA,NA,NA,happy,"unhappy, happy","less happy, more happy",NA,NA,NA,NA,NA,NA,NA,NA,NA,NA,NA,NA,NA,NA,NA,NA,NA,NA,NA,NA,NA,NA,NA,NA,NA,NA,NA,NA,NA,NA,NA,NA,NA,NA,NA,NA,NA,NA,0,0,0,0,1,NA,NA,NA,NA,NA
SUPAMT58298,3ZWFC4W1U06TG5T8FSYED2G79IQRFN,CB3B6B61-CB94-41F9-BF6E-434F2D9A7BB0,2023-09-27_18h57.37.997,WP_VExplicitOC_HL,2022.2.5,Win32,16.22928737,45.3125,3.4041,2.053,NA,NA,NA,NA,NA,frustrated,"frustrated, not frustrated","more frustrated, less frustrated",NA,NA,NA,NA,NA,NA,NA,NA,NA,NA,NA,NA,NA,NA,NA,NA,NA,NA,NA,NA,NA,NA,NA,NA,NA,NA,NA,NA,NA,NA,NA,NA,NA,NA,NA,NA,NA,NA,0,1,1,1,1,NA,NA,NA,NA,NA
SUPAMT58298,3ZWFC4W1U06TG5T8FSYED2G79IQRFN,CB3B6B61-CB94-41F9-BF6E-434F2D9A7BB0,2023-09-27_18h57.37.997,WP_VExplicitOC_HL,2022.2.5,Win32,16.22928737,50.26041667,3.7039,2.022,NA,NA,NA,NA,NA,bored,"bored, not bored","more bored, less bored",NA,NA,NA,NA,NA,NA,NA,NA,NA,NA,NA,NA,NA,NA,NA,NA,NA,NA,NA,NA,NA,NA,NA,NA,NA,NA,NA,NA,NA,NA,NA,NA,NA,NA,NA,NA,NA,NA,0,2,2,2,1,NA,NA,NA,NA,NA
SUPAMT58298,3ZWFC4W1U06TG5T8FSYED2G79IQRFN,CB3B6B61-CB94-41F9-BF6E-434F2D9A7BB0,2023-09-27_18h57.37.997,WP_VExplicitOC_HL,2022.2.5,Win32,16.22928737,NA,NA,NA,NA,NA,NA,NA,NA,NA,NA,NA,NA,NA,NA,NA,NA,NA,NA,NA,NA,NA,NA,NA,NA,NA,NA,NA,NA,NA,NA,NA,NA,NA,NA,NA,NA,NA,NA,NA,NA,NA,NA,NA,NA,NA,NA,NA,NA,NA,NA,NA,NA,NA,NA,2,0,2,0,1
SUPAMT58298,3ZWFC4W1U06TG5T8FSYED2G79IQRFN,CB3B6B61-CB94-41F9-BF6E-434F2D9A7BB0,2023-09-27_18h57.37.997,WP_VExplicitOC_HL,2022.2.5,Win32,16.22928737,32.8125,3.3041,2.0238,NA,NA,NA,NA,NA,happy,"unhappy, happy","less happy, more happy",NA,NA,NA,NA,NA,NA,NA,NA,NA,NA,NA,NA,NA,NA,NA,NA,NA,NA,NA,NA,NA,NA,NA,NA,NA,NA,NA,NA,NA,NA,NA,NA,NA,NA,NA,NA,NA,NA,0,0,0,0,1,NA,NA,NA,NA,NA
SUPAMT58298,3ZWFC4W1U06TG5T8FSYED2G79IQRFN,CB3B6B61-CB94-41F9-BF6E-434F2D9A7BB0,2023-09-27_18h57.37.997,WP_VExplicitOC_HL,2022.2.5,Win32,16.22928737,52.86458333,3.208,2.0052,NA,NA,NA,NA,NA,bored,"bored, not bored","more bored, less bored",NA,NA,NA,NA,NA,NA,NA,NA,NA,NA,NA,NA,NA,NA,NA,NA,NA,NA,NA,NA,NA,NA,NA,NA,NA,NA,NA,NA,NA,NA,NA,NA,NA,NA,NA,NA,NA,NA,0,1,1,2,1,NA,NA,NA,NA,NA
SUPAMT58298,3ZWFC4W1U06TG5T8FSYED2G79IQRFN,CB3B6B61-CB94-41F9-BF6E-434F2D9A7BB0,2023-09-27_18h57.37.997,WP_VExplicitOC_HL,2022.2.5,Win32,16.22928737,50,3.4267,2.0023,NA,NA,NA,NA,NA,frustrated,"frustrated, not frustrated","more frustrated, less frustrated",NA,NA,NA,NA,NA,NA,NA,NA,NA,NA,NA,NA,NA,NA,NA,NA,NA,NA,NA,NA,NA,NA,NA,NA,NA,NA,NA,NA,NA,NA,NA,NA,NA,NA,NA,NA,NA,NA,0,2,2,1,1,NA,NA,NA,NA,NA
SUPAMT58298,3ZWFC4W1U06TG5T8FSYED2G79IQRFN,CB3B6B61-CB94-41F9-BF6E-434F2D9A7BB0,2023-09-27_18h57.37.997,WP_VExplicitOC_HL,2022.2.5,Win32,16.22928737,NA,NA,NA,NA,NA,NA,NA,NA,NA,NA,NA,NA,NA,NA,NA,NA,NA,NA,NA,NA,NA,NA,NA,NA,NA,NA,NA,NA,NA,NA,NA,NA,NA,NA,NA,NA,NA,NA,NA,NA,NA,NA,NA,NA,NA,NA,NA,NA,NA,NA,NA,NA,NA,NA,3,0,3,0,1
SUPAMT58298,3ZWFC4W1U06TG5T8FSYED2G79IQRFN,CB3B6B61-CB94-41F9-BF6E-434F2D9A7BB0,2023-09-27_18h57.37.997,WP_VExplicitOC_HL,2022.2.5,Win32,16.22928737,41.40625,3.3932,2.0211,NA,NA,NA,NA,NA,happy,"unhappy, happy","less happy, more happy",NA,NA,NA,NA,NA,NA,NA,NA,NA,NA,NA,NA,NA,NA,NA,NA,NA,NA,NA,NA,NA,NA,NA,NA,NA,NA,NA,NA,NA,NA,NA,NA,NA,NA,NA,NA,NA,NA,0,0,0,0,1,NA,NA,NA,NA,NA
SUPAMT58298,3ZWFC4W1U06TG5T8FSYED2G79IQRFN,CB3B6B61-CB94-41F9-BF6E-434F2D9A7BB0,2023-09-27_18h57.37.997,WP_VExplicitOC_HL,2022.2.5,Win32,16.22928737,41.40625,4.2479,2.0033,NA,NA,NA,NA,NA,bored,"bored, not bored","more bored, less bored",NA,NA,NA,NA,NA,NA,NA,NA,NA,NA,NA,NA,NA,NA,NA,NA,NA,NA,NA,NA,NA,NA,NA,NA,NA,NA,NA,NA,NA,NA,NA,NA,NA,NA,NA,NA,NA,NA,0,1,1,2,1,NA,NA,NA,NA,NA
SUPAMT58298,3ZWFC4W1U06TG5T8FSYED2G79IQRFN,CB3B6B61-CB94-41F9-BF6E-434F2D9A7BB0,2023-09-27_18h57.37.997,WP_VExplicitOC_HL,2022.2.5,Win32,16.22928737,61.97916667,3.8498,2.0434,NA,NA,NA,NA,NA,frustrated,"frustrated, not frustrated","more frustrated, less frustrated",NA,NA,NA,NA,NA,NA,NA,NA,NA,NA,NA,NA,NA,NA,NA,NA,NA,NA,NA,NA,NA,NA,NA,NA,NA,NA,NA,NA,NA,NA,NA,NA,NA,NA,NA,NA,NA,NA,0,2,2,1,1,NA,NA,NA,NA,NA
SUPAMT58298,3ZWFC4W1U06TG5T8FSYED2G79IQRFN,CB3B6B61-CB94-41F9-BF6E-434F2D9A7BB0,2023-09-27_18h57.37.997,WP_VExplicitOC_HL,2022.2.5,Win32,16.22928737,NA,NA,NA,NA,NA,NA,NA,NA,NA,NA,NA,NA,NA,NA,NA,NA,NA,NA,NA,NA,NA,NA,NA,NA,NA,NA,NA,NA,NA,NA,NA,NA,NA,NA,NA,NA,NA,NA,NA,NA,NA,NA,NA,NA,NA,NA,NA,NA,NA,NA,NA,NA,NA,NA,4,0,4,0,1
SUPAMT58298,3ZWFC4W1U06TG5T8FSYED2G79IQRFN,CB3B6B61-CB94-41F9-BF6E-434F2D9A7BB0,2023-09-27_18h57.37.997,WP_VExplicitOC_HL,2022.2.5,Win32,16.22928737,41.92708333,3.2538,2.0508,NA,NA,NA,NA,NA,bored,"bored, not bored","more bored, less bored",NA,NA,NA,NA,NA,NA,NA,NA,NA,NA,NA,NA,NA,NA,NA,NA,NA,NA,NA,NA,NA,NA,NA,NA,NA,NA,NA,NA,NA,NA,NA,NA,NA,NA,NA,NA,NA,NA,0,0,0,2,1,NA,NA,NA,NA,NA
SUPAMT58298,3ZWFC4W1U06TG5T8FSYED2G79IQRFN,CB3B6B61-CB94-41F9-BF6E-434F2D9A7BB0,2023-09-27_18h57.37.997,WP_VExplicitOC_HL,2022.2.5,Win32,16.22928737,43.22916667,4.9073,2.0269,NA,NA,NA,NA,NA,frustrated,"frustrated, not frustrated","more frustrated, less frustrated",NA,NA,NA,NA,NA,NA,NA,NA,NA,NA,NA,NA,NA,NA,NA,NA,NA,NA,NA,NA,NA,NA,NA,NA,NA,NA,NA,NA,NA,NA,NA,NA,NA,NA,NA,NA,NA,NA,0,1,1,1,1,NA,NA,NA,NA,NA
SUPAMT58298,3ZWFC4W1U06TG5T8FSYED2G79IQRFN,CB3B6B61-CB94-41F9-BF6E-434F2D9A7BB0,2023-09-27_18h57.37.997,WP_VExplicitOC_HL,2022.2.5,Win32,16.22928737,43.22916667,6.0949,2.027,NA,NA,NA,NA,NA,happy,"unhappy, happy","less happy, more happy",NA,NA,NA,NA,NA,NA,NA,NA,NA,NA,NA,NA,NA,NA,NA,NA,NA,NA,NA,NA,NA,NA,NA,NA,NA,NA,NA,NA,NA,NA,NA,NA,NA,NA,NA,NA,NA,NA,0,2,2,0,1,NA,NA,NA,NA,NA
SUPAMT58298,3ZWFC4W1U06TG5T8FSYED2G79IQRFN,CB3B6B61-CB94-41F9-BF6E-434F2D9A7BB0,2023-09-27_18h57.37.997,WP_VExplicitOC_HL,2022.2.5,Win32,16.22928737,NA,NA,NA,NA,NA,NA,NA,NA,NA,NA,NA,NA,NA,NA,NA,NA,NA,NA,NA,NA,NA,NA,NA,NA,NA,NA,NA,NA,NA,NA,NA,NA,NA,NA,NA,NA,NA,NA,NA,NA,NA,NA,NA,NA,NA,NA,NA,NA,NA,NA,NA,NA,NA,NA,5,0,5,0,1
SUPAMT58298,3ZWFC4W1U06TG5T8FSYED2G79IQRFN,CB3B6B61-CB94-41F9-BF6E-434F2D9A7BB0,2023-09-27_18h57.37.997,WP_VExplicitOC_HL,2022.2.5,Win32,16.22928737,38.54166667,3.2128,2.0146,NA,NA,NA,NA,NA,bored,"bored, not bored","more bored, less bored",NA,NA,NA,NA,NA,NA,NA,NA,NA,NA,NA,NA,NA,NA,NA,NA,NA,NA,NA,NA,NA,NA,NA,NA,NA,NA,NA,NA,NA,NA,NA,NA,NA,NA,NA,NA,NA,NA,0,0,0,2,1,NA,NA,NA,NA,NA
SUPAMT58298,3ZWFC4W1U06TG5T8FSYED2G79IQRFN,CB3B6B61-CB94-41F9-BF6E-434F2D9A7BB0,2023-09-27_18h57.37.997,WP_VExplicitOC_HL,2022.2.5,Win32,16.22928737,38.54166667,4.6951,2.0574,NA,NA,NA,NA,NA,happy,"unhappy, happy","less happy, more happy",NA,NA,NA,NA,NA,NA,NA,NA,NA,NA,NA,NA,NA,NA,NA,NA,NA,NA,NA,NA,NA,NA,NA,NA,NA,NA,NA,NA,NA,NA,NA,NA,NA,NA,NA,NA,NA,NA,0,1,1,0,1,NA,NA,NA,NA,NA
SUPAMT58298,3ZWFC4W1U06TG5T8FSYED2G79IQRFN,CB3B6B61-CB94-41F9-BF6E-434F2D9A7BB0,2023-09-27_18h57.37.997,WP_VExplicitOC_HL,2022.2.5,Win32,16.22928737,40.88541667,5.6675,2.0256,NA,NA,NA,NA,NA,frustrated,"frustrated, not frustrated","more frustrated, less frustrated",NA,NA,NA,NA,NA,NA,NA,NA,NA,NA,NA,NA,NA,NA,NA,NA,NA,NA,NA,NA,NA,NA,NA,NA,NA,NA,NA,NA,NA,NA,NA,NA,NA,NA,NA,NA,NA,NA,0,2,2,1,1,NA,NA,NA,NA,NA
SUPAMT58298,3ZWFC4W1U06TG5T8FSYED2G79IQRFN,CB3B6B61-CB94-41F9-BF6E-434F2D9A7BB0,2023-09-27_18h57.37.997,WP_VExplicitOC_HL,2022.2.5,Win32,16.22928737,NA,NA,NA,NA,NA,NA,NA,NA,NA,NA,NA,NA,NA,NA,NA,NA,NA,NA,NA,NA,NA,NA,NA,NA,NA,NA,NA,NA,NA,NA,NA,NA,NA,NA,NA,NA,NA,NA,NA,NA,NA,NA,NA,NA,NA,NA,NA,NA,NA,NA,NA,NA,NA,NA,6,0,6,0,1
SUPAMT58298,3ZWFC4W1U06TG5T8FSYED2G79IQRFN,CB3B6B61-CB94-41F9-BF6E-434F2D9A7BB0,2023-09-27_18h57.37.997,WP_VExplicitOC_HL,2022.2.5,Win32,16.22928737,51.04166667,3.2748,2.0296,NA,NA,NA,NA,NA,bored,"bored, not bored","more bored, less bored",NA,NA,NA,NA,NA,NA,NA,NA,NA,NA,NA,NA,NA,NA,NA,NA,NA,NA,NA,NA,NA,NA,NA,NA,NA,NA,NA,NA,NA,NA,NA,NA,NA,NA,NA,NA,NA,NA,0,0,0,2,1,NA,NA,NA,NA,NA
SUPAMT58298,3ZWFC4W1U06TG5T8FSYED2G79IQRFN,CB3B6B61-CB94-41F9-BF6E-434F2D9A7BB0,2023-09-27_18h57.37.997,WP_VExplicitOC_HL,2022.2.5,Win32,16.22928737,49.21875,3.3668,2.0518,NA,NA,NA,NA,NA,happy,"unhappy, happy","less happy, more happy",NA,NA,NA,NA,NA,NA,NA,NA,NA,NA,NA,NA,NA,NA,NA,NA,NA,NA,NA,NA,NA,NA,NA,NA,NA,NA,NA,NA,NA,NA,NA,NA,NA,NA,NA,NA,NA,NA,0,1,1,0,1,NA,NA,NA,NA,NA
SUPAMT58298,3ZWFC4W1U06TG5T8FSYED2G79IQRFN,CB3B6B61-CB94-41F9-BF6E-434F2D9A7BB0,2023-09-27_18h57.37.997,WP_VExplicitOC_HL,2022.2.5,Win32,16.22928737,48.4375,4.2363,2.0412,NA,NA,NA,NA,NA,frustrated,"frustrated, not frustrated","more frustrated, less frustrated",NA,NA,NA,NA,NA,NA,NA,NA,NA,NA,NA,NA,NA,NA,NA,NA,NA,NA,NA,NA,NA,NA,NA,NA,NA,NA,NA,NA,NA,NA,NA,NA,NA,NA,NA,NA,NA,NA,0,2,2,1,1,NA,NA,NA,NA,NA
SUPAMT58298,3ZWFC4W1U06TG5T8FSYED2G79IQRFN,CB3B6B61-CB94-41F9-BF6E-434F2D9A7BB0,2023-09-27_18h57.37.997,WP_VExplicitOC_HL,2022.2.5,Win32,16.22928737,NA,NA,NA,NA,NA,NA,NA,NA,NA,NA,NA,NA,NA,NA,NA,NA,NA,NA,NA,NA,NA,NA,NA,NA,NA,NA,NA,NA,NA,NA,NA,NA,NA,NA,NA,NA,NA,NA,NA,NA,NA,NA,NA,NA,NA,NA,NA,NA,NA,NA,NA,NA,NA,NA,7,0,7,0,1
SUPAMT58298,3ZWFC4W1U06TG5T8FSYED2G79IQRFN,CB3B6B61-CB94-41F9-BF6E-434F2D9A7BB0,2023-09-27_18h57.37.997,WP_VExplicitOC_HL,2022.2.5,Win32,16.22928737,42.70833333,3.6051,2.0029,NA,NA,NA,NA,NA,happy,"unhappy, happy","less happy, more happy",NA,NA,NA,NA,NA,NA,NA,NA,NA,NA,NA,NA,NA,NA,NA,NA,NA,NA,NA,NA,NA,NA,NA,NA,NA,NA,NA,NA,NA,NA,NA,NA,NA,NA,NA,NA,NA,NA,0,0,0,0,1,NA,NA,NA,NA,NA
SUPAMT58298,3ZWFC4W1U06TG5T8FSYED2G79IQRFN,CB3B6B61-CB94-41F9-BF6E-434F2D9A7BB0,2023-09-27_18h57.37.997,WP_VExplicitOC_HL,2022.2.5,Win32,16.22928737,42.70833333,4.8276,2.0448,NA,NA,NA,NA,NA,bored,"bored, not bored","more bored, less bored",NA,NA,NA,NA,NA,NA,NA,NA,NA,NA,NA,NA,NA,NA,NA,NA,NA,NA,NA,NA,NA,NA,NA,NA,NA,NA,NA,NA,NA,NA,NA,NA,NA,NA,NA,NA,NA,NA,0,1,1,2,1,NA,NA,NA,NA,NA
SUPAMT58298,3ZWFC4W1U06TG5T8FSYED2G79IQRFN,CB3B6B61-CB94-41F9-BF6E-434F2D9A7BB0,2023-09-27_18h57.37.997,WP_VExplicitOC_HL,2022.2.5,Win32,16.22928737,42.70833333,3.6952,2.0025,NA,NA,NA,NA,NA,frustrated,"frustrated, not frustrated","more frustrated, less frustrated",NA,NA,NA,NA,NA,NA,NA,NA,NA,NA,NA,NA,NA,NA,NA,NA,NA,NA,NA,NA,NA,NA,NA,NA,NA,NA,NA,NA,NA,NA,NA,NA,NA,NA,NA,NA,NA,NA,0,2,2,1,1,NA,NA,NA,NA,NA
SUPAMT58298,3ZWFC4W1U06TG5T8FSYED2G79IQRFN,CB3B6B61-CB94-41F9-BF6E-434F2D9A7BB0,2023-09-27_18h57.37.997,WP_VExplicitOC_HL,2022.2.5,Win32,16.22928737,NA,NA,NA,NA,NA,NA,NA,NA,NA,NA,NA,NA,NA,NA,NA,NA,NA,NA,NA,NA,NA,NA,NA,NA,NA,NA,NA,NA,NA,NA,NA,NA,NA,NA,NA,NA,NA,NA,NA,NA,NA,NA,NA,NA,NA,NA,NA,NA,NA,NA,NA,NA,NA,NA,8,0,8,0,1
SUPAMT58298,3ZWFC4W1U06TG5T8FSYED2G79IQRFN,CB3B6B61-CB94-41F9-BF6E-434F2D9A7BB0,2023-09-27_18h57.37.997,WP_VExplicitOC_HL,2022.2.5,Win32,16.22928737,42.70833333,6.0784,2.0266,NA,NA,NA,NA,NA,bored,"bored, not bored","more bored, less bored",NA,NA,NA,NA,NA,NA,NA,NA,NA,NA,NA,NA,NA,NA,NA,NA,NA,NA,NA,NA,NA,NA,NA,NA,NA,NA,NA,NA,NA,NA,NA,NA,NA,NA,NA,NA,NA,NA,0,0,0,2,1,NA,NA,NA,NA,NA
SUPAMT58298,3ZWFC4W1U06TG5T8FSYED2G79IQRFN,CB3B6B61-CB94-41F9-BF6E-434F2D9A7BB0,2023-09-27_18h57.37.997,WP_VExplicitOC_HL,2022.2.5,Win32,16.22928737,42.70833333,3.0657,2.0273,NA,NA,NA,NA,NA,happy,"unhappy, happy","less happy, more happy",NA,NA,NA,NA,NA,NA,NA,NA,NA,NA,NA,NA,NA,NA,NA,NA,NA,NA,NA,NA,NA,NA,NA,NA,NA,NA,NA,NA,NA,NA,NA,NA,NA,NA,NA,NA,NA,NA,0,1,1,0,1,NA,NA,NA,NA,NA
SUPAMT58298,3ZWFC4W1U06TG5T8FSYED2G79IQRFN,CB3B6B61-CB94-41F9-BF6E-434F2D9A7BB0,2023-09-27_18h57.37.997,WP_VExplicitOC_HL,2022.2.5,Win32,16.22928737,42.70833333,3.0131,2.0174,NA,NA,NA,NA,NA,frustrated,"frustrated, not frustrated","more frustrated, less frustrated",NA,NA,NA,NA,NA,NA,NA,NA,NA,NA,NA,NA,NA,NA,NA,NA,NA,NA,NA,NA,NA,NA,NA,NA,NA,NA,NA,NA,NA,NA,NA,NA,NA,NA,NA,NA,NA,NA,0,2,2,1,1,NA,NA,NA,NA,NA
SUPAMT58298,3ZWFC4W1U06TG5T8FSYED2G79IQRFN,CB3B6B61-CB94-41F9-BF6E-434F2D9A7BB0,2023-09-27_18h57.37.997,WP_VExplicitOC_HL,2022.2.5,Win32,16.22928737,NA,NA,NA,NA,NA,NA,NA,NA,NA,NA,NA,NA,NA,NA,NA,NA,NA,NA,NA,NA,NA,NA,NA,NA,NA,NA,NA,NA,NA,NA,NA,NA,NA,NA,NA,NA,NA,NA,NA,NA,NA,NA,NA,NA,NA,NA,NA,NA,NA,NA,NA,NA,NA,NA,9,0,9,0,1
SUPAMT58298,3ZWFC4W1U06TG5T8FSYED2G79IQRFN,CB3B6B61-CB94-41F9-BF6E-434F2D9A7BB0,2023-09-27_18h57.37.997,WP_VExplicitOC_HL,2022.2.5,Win32,16.22928737,42.96875,3.0932,2.0442,NA,NA,NA,NA,NA,frustrated,"frustrated, not frustrated","more frustrated, less frustrated",NA,NA,NA,NA,NA,NA,NA,NA,NA,NA,NA,NA,NA,NA,NA,NA,NA,NA,NA,NA,NA,NA,NA,NA,NA,NA,NA,NA,NA,NA,NA,NA,NA,NA,NA,NA,NA,NA,0,0,0,1,1,NA,NA,NA,NA,NA
SUPAMT58298,3ZWFC4W1U06TG5T8FSYED2G79IQRFN,CB3B6B61-CB94-41F9-BF6E-434F2D9A7BB0,2023-09-27_18h57.37.997,WP_VExplicitOC_HL,2022.2.5,Win32,16.22928737,51.30208333,2.9966,2.0354,NA,NA,NA,NA,NA,bored,"bored, not bored","more bored, less bored",NA,NA,NA,NA,NA,NA,NA,NA,NA,NA,NA,NA,NA,NA,NA,NA,NA,NA,NA,NA,NA,NA,NA,NA,NA,NA,NA,NA,NA,NA,NA,NA,NA,NA,NA,NA,NA,NA,0,1,1,2,1,NA,NA,NA,NA,NA
SUPAMT58298,3ZWFC4W1U06TG5T8FSYED2G79IQRFN,CB3B6B61-CB94-41F9-BF6E-434F2D9A7BB0,2023-09-27_18h57.37.997,WP_VExplicitOC_HL,2022.2.5,Win32,16.22928737,51.30208333,3.1004,2.053,NA,NA,NA,NA,NA,happy,"unhappy, happy","less happy, more happy",NA,NA,NA,NA,NA,NA,NA,NA,NA,NA,NA,NA,NA,NA,NA,NA,NA,NA,NA,NA,NA,NA,NA,NA,NA,NA,NA,NA,NA,NA,NA,NA,NA,NA,NA,NA,NA,NA,0,2,2,0,1,NA,NA,NA,NA,NA
SUPAMT58298,3ZWFC4W1U06TG5T8FSYED2G79IQRFN,CB3B6B61-CB94-41F9-BF6E-434F2D9A7BB0,2023-09-27_18h57.37.997,WP_VExplicitOC_HL,2022.2.5,Win32,16.22928737,NA,NA,NA,NA,NA,NA,NA,NA,NA,NA,NA,NA,NA,NA,NA,NA,NA,NA,NA,NA,NA,NA,NA,NA,NA,NA,NA,NA,NA,NA,NA,NA,NA,NA,NA,NA,NA,NA,NA,NA,NA,NA,NA,NA,NA,NA,NA,NA,NA,NA,NA,NA,NA,NA,10,0,10,0,1
SUPAMT58298,3ZWFC4W1U06TG5T8FSYED2G79IQRFN,CB3B6B61-CB94-41F9-BF6E-434F2D9A7BB0,2023-09-27_18h57.37.997,WP_VExplicitOC_HL,2022.2.5,Win32,16.22928737,53.38541667,3.6869,2.0502,NA,NA,NA,NA,NA,frustrated,"frustrated, not frustrated","more frustrated, less frustrated",NA,NA,NA,NA,NA,NA,NA,NA,NA,NA,NA,NA,NA,NA,NA,NA,NA,NA,NA,NA,NA,NA,NA,NA,NA,NA,NA,NA,NA,NA,NA,NA,NA,NA,NA,NA,NA,NA,0,0,0,1,1,NA,NA,NA,NA,NA
SUPAMT58298,3ZWFC4W1U06TG5T8FSYED2G79IQRFN,CB3B6B61-CB94-41F9-BF6E-434F2D9A7BB0,2023-09-27_18h57.37.997,WP_VExplicitOC_HL,2022.2.5,Win32,16.22928737,38.28125,3.5752,2.0129,NA,NA,NA,NA,NA,happy,"unhappy, happy","less happy, more happy",NA,NA,NA,NA,NA,NA,NA,NA,NA,NA,NA,NA,NA,NA,NA,NA,NA,NA,NA,NA,NA,NA,NA,NA,NA,NA,NA,NA,NA,NA,NA,NA,NA,NA,NA,NA,NA,NA,0,1,1,0,1,NA,NA,NA,NA,NA
SUPAMT58298,3ZWFC4W1U06TG5T8FSYED2G79IQRFN,CB3B6B61-CB94-41F9-BF6E-434F2D9A7BB0,2023-09-27_18h57.37.997,WP_VExplicitOC_HL,2022.2.5,Win32,16.22928737,47.65625,4.9008,2.0175,NA,NA,NA,NA,NA,bored,"bored, not bored","more bored, less bored",NA,NA,NA,NA,NA,NA,NA,NA,NA,NA,NA,NA,NA,NA,NA,NA,NA,NA,NA,NA,NA,NA,NA,NA,NA,NA,NA,NA,NA,NA,NA,NA,NA,NA,NA,NA,NA,NA,0,2,2,2,1,NA,NA,NA,NA,NA
SUPAMT58298,3ZWFC4W1U06TG5T8FSYED2G79IQRFN,CB3B6B61-CB94-41F9-BF6E-434F2D9A7BB0,2023-09-27_18h57.37.997,WP_VExplicitOC_HL,2022.2.5,Win32,16.22928737,NA,NA,NA,NA,NA,NA,NA,NA,NA,NA,NA,NA,NA,NA,NA,NA,NA,NA,NA,NA,NA,NA,NA,NA,NA,NA,NA,NA,NA,NA,NA,NA,NA,NA,NA,NA,NA,NA,NA,NA,NA,NA,NA,NA,NA,NA,NA,NA,NA,NA,NA,NA,NA,NA,11,0,11,0,1
SUPAMT58298,3ZWFC4W1U06TG5T8FSYED2G79IQRFN,CB3B6B61-CB94-41F9-BF6E-434F2D9A7BB0,2023-09-27_18h57.37.997,WP_VExplicitOC_HL,2022.2.5,Win32,16.22928737,48.69791667,3.378,2.0521,NA,NA,NA,NA,NA,happy,"unhappy, happy","less happy, more happy",NA,NA,NA,NA,NA,NA,NA,NA,NA,NA,NA,NA,NA,NA,NA,NA,NA,NA,NA,NA,NA,NA,NA,NA,NA,NA,NA,NA,NA,NA,NA,NA,NA,NA,NA,NA,NA,NA,0,0,0,0,1,NA,NA,NA,NA,NA
SUPAMT58298,3ZWFC4W1U06TG5T8FSYED2G79IQRFN,CB3B6B61-CB94-41F9-BF6E-434F2D9A7BB0,2023-09-27_18h57.37.997,WP_VExplicitOC_HL,2022.2.5,Win32,16.22928737,61.45833333,3.1436,2.0396,NA,NA,NA,NA,NA,frustrated,"frustrated, not frustrated","more frustrated, less frustrated",NA,NA,NA,NA,NA,NA,NA,NA,NA,NA,NA,NA,NA,NA,NA,NA,NA,NA,NA,NA,NA,NA,NA,NA,NA,NA,NA,NA,NA,NA,NA,NA,NA,NA,NA,NA,NA,NA,0,1,1,1,1,NA,NA,NA,NA,NA
SUPAMT58298,3ZWFC4W1U06TG5T8FSYED2G79IQRFN,CB3B6B61-CB94-41F9-BF6E-434F2D9A7BB0,2023-09-27_18h57.37.997,WP_VExplicitOC_HL,2022.2.5,Win32,16.22928737,64.0625,3.1146,2.0358,NA,NA,NA,NA,NA,bored,"bored, not bored","more bored, less bored",NA,NA,NA,NA,NA,NA,NA,NA,NA,NA,NA,NA,NA,NA,NA,NA,NA,NA,NA,NA,NA,NA,NA,NA,NA,NA,NA,NA,NA,NA,NA,NA,NA,NA,NA,NA,NA,NA,0,2,2,2,1,NA,NA,NA,NA,NA
SUPAMT58298,3ZWFC4W1U06TG5T8FSYED2G79IQRFN,CB3B6B61-CB94-41F9-BF6E-434F2D9A7BB0,2023-09-27_18h57.37.997,WP_VExplicitOC_HL,2022.2.5,Win32,16.22928737,NA,NA,NA,NA,NA,NA,NA,NA,NA,NA,NA,NA,NA,NA,NA,NA,NA,NA,NA,NA,NA,NA,NA,NA,NA,NA,NA,NA,NA,NA,NA,NA,NA,NA,NA,NA,NA,NA,NA,NA,NA,NA,NA,NA,NA,NA,NA,NA,NA,NA,NA,NA,NA,NA,12,0,12,0,1
SUPAMT58298,3ZWFC4W1U06TG5T8FSYED2G79IQRFN,CB3B6B61-CB94-41F9-BF6E-434F2D9A7BB0,2023-09-27_18h57.37.997,WP_VExplicitOC_HL,2022.2.5,Win32,16.22928737,34.63541667,4.9398,2.0555,NA,NA,NA,NA,NA,bored,"bored, not bored","more bored, less bored",NA,NA,NA,NA,NA,NA,NA,NA,NA,NA,NA,NA,NA,NA,NA,NA,NA,NA,NA,NA,NA,NA,NA,NA,NA,NA,NA,NA,NA,NA,NA,NA,NA,NA,NA,NA,NA,NA,0,0,0,2,1,NA,NA,NA,NA,NA
SUPAMT58298,3ZWFC4W1U06TG5T8FSYED2G79IQRFN,CB3B6B61-CB94-41F9-BF6E-434F2D9A7BB0,2023-09-27_18h57.37.997,WP_VExplicitOC_HL,2022.2.5,Win32,16.22928737,34.63541667,5.3012,2.0444,NA,NA,NA,NA,NA,happy,"unhappy, happy","less happy, more happy",NA,NA,NA,NA,NA,NA,NA,NA,NA,NA,NA,NA,NA,NA,NA,NA,NA,NA,NA,NA,NA,NA,NA,NA,NA,NA,NA,NA,NA,NA,NA,NA,NA,NA,NA,NA,NA,NA,0,1,1,0,1,NA,NA,NA,NA,NA
SUPAMT58298,3ZWFC4W1U06TG5T8FSYED2G79IQRFN,CB3B6B61-CB94-41F9-BF6E-434F2D9A7BB0,2023-09-27_18h57.37.997,WP_VExplicitOC_HL,2022.2.5,Win32,16.22928737,34.63541667,5.5996,2.022,NA,NA,NA,NA,NA,frustrated,"frustrated, not frustrated","more frustrated, less frustrated",NA,NA,NA,NA,NA,NA,NA,NA,NA,NA,NA,NA,NA,NA,NA,NA,NA,NA,NA,NA,NA,NA,NA,NA,NA,NA,NA,NA,NA,NA,NA,NA,NA,NA,NA,NA,NA,NA,0,2,2,1,1,NA,NA,NA,NA,NA
SUPAMT58298,3ZWFC4W1U06TG5T8FSYED2G79IQRFN,CB3B6B61-CB94-41F9-BF6E-434F2D9A7BB0,2023-09-27_18h57.37.997,WP_VExplicitOC_HL,2022.2.5,Win32,16.22928737,NA,NA,NA,NA,NA,NA,NA,NA,NA,NA,NA,NA,NA,NA,NA,NA,NA,NA,NA,NA,NA,NA,NA,NA,NA,NA,NA,NA,NA,NA,NA,NA,NA,NA,NA,NA,NA,NA,NA,NA,NA,NA,NA,NA,NA,NA,NA,NA,NA,NA,NA,NA,NA,NA,13,0,13,0,1
SUPAMT58298,3ZWFC4W1U06TG5T8FSYED2G79IQRFN,CB3B6B61-CB94-41F9-BF6E-434F2D9A7BB0,2023-09-27_18h57.37.997,WP_VExplicitOC_HL,2022.2.5,Win32,16.22928737,39.0625,3.3328,2.0544,NA,NA,NA,NA,NA,happy,"unhappy, happy","less happy, more happy",NA,NA,NA,NA,NA,NA,NA,NA,NA,NA,NA,NA,NA,NA,NA,NA,NA,NA,NA,NA,NA,NA,NA,NA,NA,NA,NA,NA,NA,NA,NA,NA,NA,NA,NA,NA,NA,NA,0,0,0,0,1,NA,NA,NA,NA,NA
SUPAMT58298,3ZWFC4W1U06TG5T8FSYED2G79IQRFN,CB3B6B61-CB94-41F9-BF6E-434F2D9A7BB0,2023-09-27_18h57.37.997,WP_VExplicitOC_HL,2022.2.5,Win32,16.22928737,39.0625,4.8693,2.0372,NA,NA,NA,NA,NA,bored,"bored, not bored","more bored, less bored",NA,NA,NA,NA,NA,NA,NA,NA,NA,NA,NA,NA,NA,NA,NA,NA,NA,NA,NA,NA,NA,NA,NA,NA,NA,NA,NA,NA,NA,NA,NA,NA,NA,NA,NA,NA,NA,NA,0,1,1,2,1,NA,NA,NA,NA,NA
SUPAMT58298,3ZWFC4W1U06TG5T8FSYED2G79IQRFN,CB3B6B61-CB94-41F9-BF6E-434F2D9A7BB0,2023-09-27_18h57.37.997,WP_VExplicitOC_HL,2022.2.5,Win32,16.22928737,41.92708333,3.0819,2.0603,NA,NA,NA,NA,NA,frustrated,"frustrated, not frustrated","more frustrated, less frustrated",NA,NA,NA,NA,NA,NA,NA,NA,NA,NA,NA,NA,NA,NA,NA,NA,NA,NA,NA,NA,NA,NA,NA,NA,NA,NA,NA,NA,NA,NA,NA,NA,NA,NA,NA,NA,NA,NA,0,2,2,1,1,NA,NA,NA,NA,NA
SUPAMT58298,3ZWFC4W1U06TG5T8FSYED2G79IQRFN,CB3B6B61-CB94-41F9-BF6E-434F2D9A7BB0,2023-09-27_18h57.37.997,WP_VExplicitOC_HL,2022.2.5,Win32,16.22928737,NA,NA,NA,NA,NA,NA,NA,NA,NA,NA,NA,NA,NA,NA,NA,NA,NA,NA,NA,NA,NA,NA,NA,NA,NA,NA,NA,NA,NA,NA,NA,NA,NA,NA,NA,NA,NA,NA,NA,NA,NA,NA,NA,NA,NA,NA,NA,NA,NA,NA,NA,NA,NA,NA,14,0,14,0,1
SUPAMT58298,3ZWFC4W1U06TG5T8FSYED2G79IQRFN,CB3B6B61-CB94-41F9-BF6E-434F2D9A7BB0,2023-09-27_18h57.37.997,WP_VExplicitOC_HL,2022.2.5,Win32,16.22928737,NA,NA,NA,NA,NA,NA,NA,NA,NA,NA,NA,NA,NA,NA,NA,NA,NA,NA,NA,NA,NA,NA,NA,NA,NA,NA,NA,NA,NA,NA,NA,NA,NA,NA,NA,NA,NA,NA,NA,NA,NA,NA,NA,NA,NA,NA,NA,NA,NA,NA,NA,NA,NA,NA,NA,NA,NA,NA,NA
