participant,session,completion,date,expName,psychopyVersion,OS,frameRate,rating_all.response,rating_all.rt,rating_all.tStart,rndRat1.thisRepN,rndRat1.thisTrialN,rndRat1.thisN,rndRat1.thisIndex,rndRat1.ran,Emo,Labs,Labs2,rating_alt.response,rating_alt.rt,AltC.thisRepN,AltC.thisTrialN,AltC.thisN,AltC.thisIndex,AltC.ran,alt_choices,pic_choices,BottomAlt_Choice,rndRat2.thisRepN,rndRat2.thisTrialN,rndRat2.thisN,rndRat2.thisIndex,rndRat2.ran,rndRat3.thisRepN,rndRat3.thisTrialN,rndRat3.thisN,rndRat3.thisIndex,rndRat3.ran,trials_FC_L.thisRepN,trials_FC_L.thisTrialN,trials_FC_L.thisN,trials_FC_L.thisIndex,trials_FC_L.ran,rating_alt_2.response,rating_alt_2.rt,AltC2.thisRepN,AltC2.thisTrialN,AltC2.thisN,AltC2.thisIndex,AltC2.ran,TopAlt_Choice,rndRat4.thisRepN,rndRat4.thisTrialN,rndRat4.thisN,rndRat4.thisIndex,rndRat4.ran,rndRat5.thisRepN,rndRat5.thisTrialN,rndRat5.thisN,rndRat5.thisIndex,rndRat5.ran,trials_FC_H.thisRepN,trials_FC_H.thisTrialN,trials_FC_H.thisN,trials_FC_H.thisIndex,trials_FC_H.ran
SUPAMT83768,3TEM0PF1QBW8IRVDU9K956CZOQRD02,4D0281F4-7582-48E1-A518-4ECBA2BDA2A6,2023-09-29_08h31.34.510,WP_VExplicitOC_LH,2022.2.5,Win32,15.54943944,NA,NA,NA,NA,NA,NA,NA,NA,NA,NA,NA,NA,NA,NA,NA,NA,NA,NA,NA,NA,NA,NA,NA,NA,NA,NA,NA,NA,NA,NA,NA,NA,NA,NA,NA,NA,NA,NA,NA,NA,NA,NA,NA,NA,NA,NA,NA,NA,NA,NA,NA,NA,NA,NA,NA,NA,NA,NA,NA
SUPAMT83768,3TEM0PF1QBW8IRVDU9K956CZOQRD02,4D0281F4-7582-48E1-A518-4ECBA2BDA2A6,2023-09-29_08h31.34.510,WP_VExplicitOC_LH,2022.2.5,Win32,15.54943944,NA,NA,NA,NA,NA,NA,NA,NA,NA,NA,NA,NA,NA,NA,NA,NA,NA,NA,NA,NA,NA,NA,NA,NA,NA,NA,NA,NA,NA,NA,NA,NA,NA,NA,NA,NA,NA,NA,NA,NA,NA,NA,NA,NA,NA,NA,NA,NA,NA,NA,NA,NA,NA,NA,NA,NA,NA,NA,NA
SUPAMT83768,3TEM0PF1QBW8IRVDU9K956CZOQRD02,4D0281F4-7582-48E1-A518-4ECBA2BDA2A6,2023-09-29_08h31.34.510,WP_VExplicitOC_LH,2022.2.5,Win32,15.54943944,NA,NA,NA,NA,NA,NA,NA,NA,NA,NA,NA,NA,NA,NA,NA,NA,NA,NA,NA,NA,NA,NA,NA,NA,NA,NA,NA,NA,NA,NA,NA,NA,NA,NA,NA,NA,NA,NA,NA,NA,NA,NA,NA,NA,NA,NA,NA,NA,NA,NA,NA,NA,NA,NA,NA,NA,NA,NA,NA
SUPAMT83768,3TEM0PF1QBW8IRVDU9K956CZOQRD02,4D0281F4-7582-48E1-A518-4ECBA2BDA2A6,2023-09-29_08h31.34.510,WP_VExplicitOC_LH,2022.2.5,Win32,15.54943944,100,4.507,2.067,0,0,0,2,1,bored,"bored, not bored","more bored, less bored",NA,NA,NA,NA,NA,NA,NA,NA,NA,NA,NA,NA,NA,NA,NA,NA,NA,NA,NA,NA,NA,NA,NA,NA,NA,NA,NA,NA,NA,NA,NA,NA,NA,NA,NA,NA,NA,NA,NA,NA,NA,NA,NA,NA,NA,NA,NA,NA
SUPAMT83768,3TEM0PF1QBW8IRVDU9K956CZOQRD02,4D0281F4-7582-48E1-A518-4ECBA2BDA2A6,2023-09-29_08h31.34.510,WP_VExplicitOC_LH,2022.2.5,Win32,15.54943944,100,5.2099,2.051,0,1,1,1,1,frustrated,"frustrated, not frustrated","more frustrated, less frustrated",NA,NA,NA,NA,NA,NA,NA,NA,NA,NA,NA,NA,NA,NA,NA,NA,NA,NA,NA,NA,NA,NA,NA,NA,NA,NA,NA,NA,NA,NA,NA,NA,NA,NA,NA,NA,NA,NA,NA,NA,NA,NA,NA,NA,NA,NA,NA,NA
SUPAMT83768,3TEM0PF1QBW8IRVDU9K956CZOQRD02,4D0281F4-7582-48E1-A518-4ECBA2BDA2A6,2023-09-29_08h31.34.510,WP_VExplicitOC_LH,2022.2.5,Win32,15.54943944,100,4.447099999,2.0022,0,2,2,0,1,happy,"unhappy, happy","less happy, more happy",NA,NA,NA,NA,NA,NA,NA,NA,NA,NA,NA,NA,NA,NA,NA,NA,NA,NA,NA,NA,NA,NA,NA,NA,NA,NA,NA,NA,NA,NA,NA,NA,NA,NA,NA,NA,NA,NA,NA,NA,NA,NA,NA,NA,NA,NA,NA,NA
SUPAMT83768,3TEM0PF1QBW8IRVDU9K956CZOQRD02,4D0281F4-7582-48E1-A518-4ECBA2BDA2A6,2023-09-29_08h31.34.510,WP_VExplicitOC_LH,2022.2.5,Win32,15.54943944,NA,NA,NA,NA,NA,NA,NA,NA,NA,NA,NA,NA,NA,NA,NA,NA,NA,NA,NA,NA,NA,NA,NA,NA,NA,NA,NA,NA,NA,NA,NA,NA,NA,NA,NA,NA,NA,NA,NA,NA,NA,NA,NA,NA,NA,NA,NA,NA,NA,NA,NA,NA,NA,NA,NA,NA,NA,NA,NA
SUPAMT83768,3TEM0PF1QBW8IRVDU9K956CZOQRD02,4D0281F4-7582-48E1-A518-4ECBA2BDA2A6,2023-09-29_08h31.34.510,WP_VExplicitOC_LH,2022.2.5,Win32,15.54943944,NA,NA,NA,NA,NA,NA,NA,NA,NA,NA,NA,NA,NA,NA,NA,NA,NA,NA,NA,NA,NA,NA,NA,NA,NA,NA,NA,NA,NA,NA,NA,NA,NA,NA,NA,NA,NA,NA,NA,NA,NA,NA,NA,NA,NA,NA,NA,NA,NA,NA,NA,NA,NA,NA,NA,NA,NA,NA,NA
SUPAMT83768,3TEM0PF1QBW8IRVDU9K956CZOQRD02,4D0281F4-7582-48E1-A518-4ECBA2BDA2A6,2023-09-29_08h31.34.510,WP_VExplicitOC_LH,2022.2.5,Win32,15.54943944,NA,NA,NA,NA,NA,NA,NA,NA,NA,NA,NA,NA,NA,NA,NA,NA,NA,NA,NA,NA,NA,NA,NA,NA,NA,NA,NA,NA,NA,NA,NA,NA,NA,NA,NA,NA,NA,NA,NA,NA,NA,NA,NA,NA,NA,NA,NA,NA,NA,NA,NA,NA,NA,NA,NA,NA,NA,NA,NA
SUPAMT83768,3TEM0PF1QBW8IRVDU9K956CZOQRD02,4D0281F4-7582-48E1-A518-4ECBA2BDA2A6,2023-09-29_08h31.34.510,WP_VExplicitOC_LH,2022.2.5,Win32,15.54943944,NA,NA,NA,NA,NA,NA,NA,NA,NA,NA,NA,NA,NA,NA,NA,NA,NA,NA,NA,NA,NA,NA,NA,NA,NA,NA,NA,NA,NA,NA,NA,NA,NA,NA,NA,NA,NA,NA,NA,NA,NA,NA,NA,NA,NA,NA,NA,NA,NA,NA,NA,NA,NA,NA,NA,NA,NA,NA,NA
SUPAMT83768,3TEM0PF1QBW8IRVDU9K956CZOQRD02,4D0281F4-7582-48E1-A518-4ECBA2BDA2A6,2023-09-29_08h31.34.510,WP_VExplicitOC_LH,2022.2.5,Win32,15.54943944,NA,NA,NA,NA,NA,NA,NA,NA,NA,NA,NA,100,2.5413,0,0,0,0,1,rest (looking at a fixed cross),001.png,NA,NA,NA,NA,NA,NA,NA,NA,NA,NA,NA,NA,NA,NA,NA,NA,NA,NA,NA,NA,NA,NA,NA,NA,NA,NA,NA,NA,NA,NA,NA,NA,NA,NA,NA,NA,NA,NA,NA
SUPAMT83768,3TEM0PF1QBW8IRVDU9K956CZOQRD02,4D0281F4-7582-48E1-A518-4ECBA2BDA2A6,2023-09-29_08h31.34.510,WP_VExplicitOC_LH,2022.2.5,Win32,15.54943944,NA,NA,NA,NA,NA,NA,NA,NA,NA,NA,NA,100,1.5711,0,1,1,1,1,stand up,002.png,NA,NA,NA,NA,NA,NA,NA,NA,NA,NA,NA,NA,NA,NA,NA,NA,NA,NA,NA,NA,NA,NA,NA,NA,NA,NA,NA,NA,NA,NA,NA,NA,NA,NA,NA,NA,NA,NA,NA
SUPAMT83768,3TEM0PF1QBW8IRVDU9K956CZOQRD02,4D0281F4-7582-48E1-A518-4ECBA2BDA2A6,2023-09-29_08h31.34.510,WP_VExplicitOC_LH,2022.2.5,Win32,15.54943944,NA,NA,NA,NA,NA,NA,NA,NA,NA,NA,NA,100,1.2511,0,2,2,2,1,stretch,003.png,NA,NA,NA,NA,NA,NA,NA,NA,NA,NA,NA,NA,NA,NA,NA,NA,NA,NA,NA,NA,NA,NA,NA,NA,NA,NA,NA,NA,NA,NA,NA,NA,NA,NA,NA,NA,NA,NA,NA
SUPAMT83768,3TEM0PF1QBW8IRVDU9K956CZOQRD02,4D0281F4-7582-48E1-A518-4ECBA2BDA2A6,2023-09-29_08h31.34.510,WP_VExplicitOC_LH,2022.2.5,Win32,15.54943944,NA,NA,NA,NA,NA,NA,NA,NA,NA,NA,NA,100,1.485900001,0,3,3,3,1,make a drink,004.png,NA,NA,NA,NA,NA,NA,NA,NA,NA,NA,NA,NA,NA,NA,NA,NA,NA,NA,NA,NA,NA,NA,NA,NA,NA,NA,NA,NA,NA,NA,NA,NA,NA,NA,NA,NA,NA,NA,NA
SUPAMT83768,3TEM0PF1QBW8IRVDU9K956CZOQRD02,4D0281F4-7582-48E1-A518-4ECBA2BDA2A6,2023-09-29_08h31.34.510,WP_VExplicitOC_LH,2022.2.5,Win32,15.54943944,NA,NA,NA,NA,NA,NA,NA,NA,NA,NA,NA,100,1.2766,0,4,4,4,1,scroll social media,005.png,NA,NA,NA,NA,NA,NA,NA,NA,NA,NA,NA,NA,NA,NA,NA,NA,NA,NA,NA,NA,NA,NA,NA,NA,NA,NA,NA,NA,NA,NA,NA,NA,NA,NA,NA,NA,NA,NA,NA
SUPAMT83768,3TEM0PF1QBW8IRVDU9K956CZOQRD02,4D0281F4-7582-48E1-A518-4ECBA2BDA2A6,2023-09-29_08h31.34.510,WP_VExplicitOC_LH,2022.2.5,Win32,15.54943944,NA,NA,NA,NA,NA,NA,NA,NA,NA,NA,NA,100,1.353,0,5,5,5,1,listen to music,006.png,NA,NA,NA,NA,NA,NA,NA,NA,NA,NA,NA,NA,NA,NA,NA,NA,NA,NA,NA,NA,NA,NA,NA,NA,NA,NA,NA,NA,NA,NA,NA,NA,NA,NA,NA,NA,NA,NA,NA
SUPAMT83768,3TEM0PF1QBW8IRVDU9K956CZOQRD02,4D0281F4-7582-48E1-A518-4ECBA2BDA2A6,2023-09-29_08h31.34.510,WP_VExplicitOC_LH,2022.2.5,Win32,15.54943944,NA,NA,NA,NA,NA,NA,NA,NA,NA,NA,NA,-10.67708333,1.411900001,0,6,6,6,1,daydream,007.png,NA,NA,NA,NA,NA,NA,NA,NA,NA,NA,NA,NA,NA,NA,NA,NA,NA,NA,NA,NA,NA,NA,NA,NA,NA,NA,NA,NA,NA,NA,NA,NA,NA,NA,NA,NA,NA,NA,NA
SUPAMT83768,3TEM0PF1QBW8IRVDU9K956CZOQRD02,4D0281F4-7582-48E1-A518-4ECBA2BDA2A6,2023-09-29_08h31.34.510,WP_VExplicitOC_LH,2022.2.5,Win32,15.54943944,NA,NA,NA,NA,NA,NA,NA,NA,NA,NA,NA,100,1.5245,0,7,7,7,1,watch a short animation,008.png,NA,NA,NA,NA,NA,NA,NA,NA,NA,NA,NA,NA,NA,NA,NA,NA,NA,NA,NA,NA,NA,NA,NA,NA,NA,NA,NA,NA,NA,NA,NA,NA,NA,NA,NA,NA,NA,NA,NA
SUPAMT83768,3TEM0PF1QBW8IRVDU9K956CZOQRD02,4D0281F4-7582-48E1-A518-4ECBA2BDA2A6,2023-09-29_08h31.34.510,WP_VExplicitOC_LH,2022.2.5,Win32,15.54943944,NA,NA,NA,NA,NA,NA,NA,NA,NA,NA,NA,100,1.7038,0,8,8,8,1,read a novel,009.png,NA,NA,NA,NA,NA,NA,NA,NA,NA,NA,NA,NA,NA,NA,NA,NA,NA,NA,NA,NA,NA,NA,NA,NA,NA,NA,NA,NA,NA,NA,NA,NA,NA,NA,NA,NA,NA,NA,NA
SUPAMT83768,3TEM0PF1QBW8IRVDU9K956CZOQRD02,4D0281F4-7582-48E1-A518-4ECBA2BDA2A6,2023-09-29_08h31.34.510,WP_VExplicitOC_LH,2022.2.5,Win32,15.54943944,NA,NA,NA,NA,NA,NA,NA,NA,NA,NA,NA,100,1.4879,0,9,9,9,1,read the news,010.png,NA,NA,NA,NA,NA,NA,NA,NA,NA,NA,NA,NA,NA,NA,NA,NA,NA,NA,NA,NA,NA,NA,NA,NA,NA,NA,NA,NA,NA,NA,NA,NA,NA,NA,NA,NA,NA,NA,NA
SUPAMT83768,3TEM0PF1QBW8IRVDU9K956CZOQRD02,4D0281F4-7582-48E1-A518-4ECBA2BDA2A6,2023-09-29_08h31.34.510,WP_VExplicitOC_LH,2022.2.5,Win32,15.54943944,NA,NA,NA,NA,NA,NA,NA,NA,NA,NA,NA,NA,NA,NA,NA,NA,NA,NA,NA,NA,NA,NA,NA,NA,NA,NA,NA,NA,NA,NA,NA,NA,NA,NA,NA,NA,NA,NA,NA,NA,NA,NA,NA,NA,NA,NA,NA,NA,NA,NA,NA,NA,NA,NA,NA,NA,NA,NA,NA
SUPAMT83768,3TEM0PF1QBW8IRVDU9K956CZOQRD02,4D0281F4-7582-48E1-A518-4ECBA2BDA2A6,2023-09-29_08h31.34.510,WP_VExplicitOC_LH,2022.2.5,Win32,15.54943944,NA,NA,NA,NA,NA,NA,NA,NA,NA,NA,NA,NA,NA,NA,NA,NA,NA,NA,NA,NA,daydream,NA,NA,NA,NA,NA,NA,NA,NA,NA,NA,NA,NA,NA,NA,NA,NA,NA,NA,NA,NA,NA,NA,NA,NA,NA,NA,NA,NA,NA,NA,NA,NA,NA,NA,NA,NA,NA,NA
SUPAMT83768,3TEM0PF1QBW8IRVDU9K956CZOQRD02,4D0281F4-7582-48E1-A518-4ECBA2BDA2A6,2023-09-29_08h31.34.510,WP_VExplicitOC_LH,2022.2.5,Win32,15.54943944,100,4.424,2.0603,NA,NA,NA,NA,NA,frustrated,"frustrated, not frustrated","more frustrated, less frustrated",NA,NA,NA,NA,NA,NA,NA,NA,NA,NA,0,0,0,1,1,NA,NA,NA,NA,NA,NA,NA,NA,NA,NA,NA,NA,NA,NA,NA,NA,NA,NA,NA,NA,NA,NA,NA,NA,NA,NA,NA,NA,NA,NA,NA,NA,NA
SUPAMT83768,3TEM0PF1QBW8IRVDU9K956CZOQRD02,4D0281F4-7582-48E1-A518-4ECBA2BDA2A6,2023-09-29_08h31.34.510,WP_VExplicitOC_LH,2022.2.5,Win32,15.54943944,100,4.2702,2.0463,NA,NA,NA,NA,NA,happy,"unhappy, happy","less happy, more happy",NA,NA,NA,NA,NA,NA,NA,NA,NA,NA,0,1,1,0,1,NA,NA,NA,NA,NA,NA,NA,NA,NA,NA,NA,NA,NA,NA,NA,NA,NA,NA,NA,NA,NA,NA,NA,NA,NA,NA,NA,NA,NA,NA,NA,NA,NA
SUPAMT83768,3TEM0PF1QBW8IRVDU9K956CZOQRD02,4D0281F4-7582-48E1-A518-4ECBA2BDA2A6,2023-09-29_08h31.34.510,WP_VExplicitOC_LH,2022.2.5,Win32,15.54943944,100,4.284200001,2.0077,NA,NA,NA,NA,NA,bored,"bored, not bored","more bored, less bored",NA,NA,NA,NA,NA,NA,NA,NA,NA,NA,0,2,2,2,1,NA,NA,NA,NA,NA,NA,NA,NA,NA,NA,NA,NA,NA,NA,NA,NA,NA,NA,NA,NA,NA,NA,NA,NA,NA,NA,NA,NA,NA,NA,NA,NA,NA
SUPAMT83768,3TEM0PF1QBW8IRVDU9K956CZOQRD02,4D0281F4-7582-48E1-A518-4ECBA2BDA2A6,2023-09-29_08h31.34.510,WP_VExplicitOC_LH,2022.2.5,Win32,15.54943944,NA,NA,NA,NA,NA,NA,NA,NA,NA,NA,NA,NA,NA,NA,NA,NA,NA,NA,NA,NA,NA,NA,NA,NA,NA,NA,NA,NA,NA,NA,NA,NA,NA,NA,NA,NA,NA,NA,NA,NA,NA,NA,NA,NA,NA,NA,NA,NA,NA,NA,NA,NA,NA,NA,NA,NA,NA,NA,NA
SUPAMT83768,3TEM0PF1QBW8IRVDU9K956CZOQRD02,4D0281F4-7582-48E1-A518-4ECBA2BDA2A6,2023-09-29_08h31.34.510,WP_VExplicitOC_LH,2022.2.5,Win32,15.54943944,NA,NA,NA,NA,NA,NA,NA,NA,NA,NA,NA,NA,NA,NA,NA,NA,NA,NA,NA,NA,NA,NA,NA,NA,NA,NA,NA,NA,NA,NA,NA,NA,NA,NA,NA,NA,NA,NA,NA,NA,NA,NA,NA,NA,NA,NA,NA,NA,NA,NA,NA,NA,NA,NA,NA,NA,NA,NA,NA
SUPAMT83768,3TEM0PF1QBW8IRVDU9K956CZOQRD02,4D0281F4-7582-48E1-A518-4ECBA2BDA2A6,2023-09-29_08h31.34.510,WP_VExplicitOC_LH,2022.2.5,Win32,15.54943944,100,3.6868,2.0239,NA,NA,NA,NA,NA,bored,"bored, not bored","more bored, less bored",NA,NA,NA,NA,NA,NA,NA,NA,NA,NA,NA,NA,NA,NA,NA,0,0,0,2,1,NA,NA,NA,NA,NA,NA,NA,NA,NA,NA,NA,NA,NA,NA,NA,NA,NA,NA,NA,NA,NA,NA,NA,NA,NA,NA,NA,NA
SUPAMT83768,3TEM0PF1QBW8IRVDU9K956CZOQRD02,4D0281F4-7582-48E1-A518-4ECBA2BDA2A6,2023-09-29_08h31.34.510,WP_VExplicitOC_LH,2022.2.5,Win32,15.54943944,100,4.5748,2.0402,NA,NA,NA,NA,NA,frustrated,"frustrated, not frustrated","more frustrated, less frustrated",NA,NA,NA,NA,NA,NA,NA,NA,NA,NA,NA,NA,NA,NA,NA,0,1,1,1,1,NA,NA,NA,NA,NA,NA,NA,NA,NA,NA,NA,NA,NA,NA,NA,NA,NA,NA,NA,NA,NA,NA,NA,NA,NA,NA,NA,NA
SUPAMT83768,3TEM0PF1QBW8IRVDU9K956CZOQRD02,4D0281F4-7582-48E1-A518-4ECBA2BDA2A6,2023-09-29_08h31.34.510,WP_VExplicitOC_LH,2022.2.5,Win32,15.54943944,100,4.3873,2.0317,NA,NA,NA,NA,NA,happy,"unhappy, happy","less happy, more happy",NA,NA,NA,NA,NA,NA,NA,NA,NA,NA,NA,NA,NA,NA,NA,0,2,2,0,1,NA,NA,NA,NA,NA,NA,NA,NA,NA,NA,NA,NA,NA,NA,NA,NA,NA,NA,NA,NA,NA,NA,NA,NA,NA,NA,NA,NA
SUPAMT83768,3TEM0PF1QBW8IRVDU9K956CZOQRD02,4D0281F4-7582-48E1-A518-4ECBA2BDA2A6,2023-09-29_08h31.34.510,WP_VExplicitOC_LH,2022.2.5,Win32,15.54943944,NA,NA,NA,NA,NA,NA,NA,NA,NA,NA,NA,NA,NA,NA,NA,NA,NA,NA,NA,NA,NA,NA,NA,NA,NA,NA,NA,NA,NA,NA,NA,0,0,0,0,1,NA,NA,NA,NA,NA,NA,NA,NA,NA,NA,NA,NA,NA,NA,NA,NA,NA,NA,NA,NA,NA,NA,NA
SUPAMT83768,3TEM0PF1QBW8IRVDU9K956CZOQRD02,4D0281F4-7582-48E1-A518-4ECBA2BDA2A6,2023-09-29_08h31.34.510,WP_VExplicitOC_LH,2022.2.5,Win32,15.54943944,100,3.5377,2.072099999,NA,NA,NA,NA,NA,bored,"bored, not bored","more bored, less bored",NA,NA,NA,NA,NA,NA,NA,NA,NA,NA,NA,NA,NA,NA,NA,0,0,0,2,1,NA,NA,NA,NA,NA,NA,NA,NA,NA,NA,NA,NA,NA,NA,NA,NA,NA,NA,NA,NA,NA,NA,NA,NA,NA,NA,NA,NA
SUPAMT83768,3TEM0PF1QBW8IRVDU9K956CZOQRD02,4D0281F4-7582-48E1-A518-4ECBA2BDA2A6,2023-09-29_08h31.34.510,WP_VExplicitOC_LH,2022.2.5,Win32,15.54943944,100,4.386599999,2.051799999,NA,NA,NA,NA,NA,happy,"unhappy, happy","less happy, more happy",NA,NA,NA,NA,NA,NA,NA,NA,NA,NA,NA,NA,NA,NA,NA,0,1,1,0,1,NA,NA,NA,NA,NA,NA,NA,NA,NA,NA,NA,NA,NA,NA,NA,NA,NA,NA,NA,NA,NA,NA,NA,NA,NA,NA,NA,NA
SUPAMT83768,3TEM0PF1QBW8IRVDU9K956CZOQRD02,4D0281F4-7582-48E1-A518-4ECBA2BDA2A6,2023-09-29_08h31.34.510,WP_VExplicitOC_LH,2022.2.5,Win32,15.54943944,100,4.8057,2.0697,NA,NA,NA,NA,NA,frustrated,"frustrated, not frustrated","more frustrated, less frustrated",NA,NA,NA,NA,NA,NA,NA,NA,NA,NA,NA,NA,NA,NA,NA,0,2,2,1,1,NA,NA,NA,NA,NA,NA,NA,NA,NA,NA,NA,NA,NA,NA,NA,NA,NA,NA,NA,NA,NA,NA,NA,NA,NA,NA,NA,NA
SUPAMT83768,3TEM0PF1QBW8IRVDU9K956CZOQRD02,4D0281F4-7582-48E1-A518-4ECBA2BDA2A6,2023-09-29_08h31.34.510,WP_VExplicitOC_LH,2022.2.5,Win32,15.54943944,NA,NA,NA,NA,NA,NA,NA,NA,NA,NA,NA,NA,NA,NA,NA,NA,NA,NA,NA,NA,NA,NA,NA,NA,NA,NA,NA,NA,NA,NA,NA,1,0,1,0,1,NA,NA,NA,NA,NA,NA,NA,NA,NA,NA,NA,NA,NA,NA,NA,NA,NA,NA,NA,NA,NA,NA,NA
SUPAMT83768,3TEM0PF1QBW8IRVDU9K956CZOQRD02,4D0281F4-7582-48E1-A518-4ECBA2BDA2A6,2023-09-29_08h31.34.510,WP_VExplicitOC_LH,2022.2.5,Win32,15.54943944,100,6.0449,2.0538,NA,NA,NA,NA,NA,happy,"unhappy, happy","less happy, more happy",NA,NA,NA,NA,NA,NA,NA,NA,NA,NA,NA,NA,NA,NA,NA,0,0,0,0,1,NA,NA,NA,NA,NA,NA,NA,NA,NA,NA,NA,NA,NA,NA,NA,NA,NA,NA,NA,NA,NA,NA,NA,NA,NA,NA,NA,NA
SUPAMT83768,3TEM0PF1QBW8IRVDU9K956CZOQRD02,4D0281F4-7582-48E1-A518-4ECBA2BDA2A6,2023-09-29_08h31.34.510,WP_VExplicitOC_LH,2022.2.5,Win32,15.54943944,100,4.5634,2.013400001,NA,NA,NA,NA,NA,bored,"bored, not bored","more bored, less bored",NA,NA,NA,NA,NA,NA,NA,NA,NA,NA,NA,NA,NA,NA,NA,0,1,1,2,1,NA,NA,NA,NA,NA,NA,NA,NA,NA,NA,NA,NA,NA,NA,NA,NA,NA,NA,NA,NA,NA,NA,NA,NA,NA,NA,NA,NA
SUPAMT83768,3TEM0PF1QBW8IRVDU9K956CZOQRD02,4D0281F4-7582-48E1-A518-4ECBA2BDA2A6,2023-09-29_08h31.34.510,WP_VExplicitOC_LH,2022.2.5,Win32,15.54943944,100,4.3935,2.0235,NA,NA,NA,NA,NA,frustrated,"frustrated, not frustrated","more frustrated, less frustrated",NA,NA,NA,NA,NA,NA,NA,NA,NA,NA,NA,NA,NA,NA,NA,0,2,2,1,1,NA,NA,NA,NA,NA,NA,NA,NA,NA,NA,NA,NA,NA,NA,NA,NA,NA,NA,NA,NA,NA,NA,NA,NA,NA,NA,NA,NA
SUPAMT83768,3TEM0PF1QBW8IRVDU9K956CZOQRD02,4D0281F4-7582-48E1-A518-4ECBA2BDA2A6,2023-09-29_08h31.34.510,WP_VExplicitOC_LH,2022.2.5,Win32,15.54943944,NA,NA,NA,NA,NA,NA,NA,NA,NA,NA,NA,NA,NA,NA,NA,NA,NA,NA,NA,NA,NA,NA,NA,NA,NA,NA,NA,NA,NA,NA,NA,2,0,2,0,1,NA,NA,NA,NA,NA,NA,NA,NA,NA,NA,NA,NA,NA,NA,NA,NA,NA,NA,NA,NA,NA,NA,NA
SUPAMT83768,3TEM0PF1QBW8IRVDU9K956CZOQRD02,4D0281F4-7582-48E1-A518-4ECBA2BDA2A6,2023-09-29_08h31.34.510,WP_VExplicitOC_LH,2022.2.5,Win32,15.54943944,100,3.422799999,2.0367,NA,NA,NA,NA,NA,happy,"unhappy, happy","less happy, more happy",NA,NA,NA,NA,NA,NA,NA,NA,NA,NA,NA,NA,NA,NA,NA,0,0,0,0,1,NA,NA,NA,NA,NA,NA,NA,NA,NA,NA,NA,NA,NA,NA,NA,NA,NA,NA,NA,NA,NA,NA,NA,NA,NA,NA,NA,NA
SUPAMT83768,3TEM0PF1QBW8IRVDU9K956CZOQRD02,4D0281F4-7582-48E1-A518-4ECBA2BDA2A6,2023-09-29_08h31.34.510,WP_VExplicitOC_LH,2022.2.5,Win32,15.54943944,100,4.263299999,2.0355,NA,NA,NA,NA,NA,frustrated,"frustrated, not frustrated","more frustrated, less frustrated",NA,NA,NA,NA,NA,NA,NA,NA,NA,NA,NA,NA,NA,NA,NA,0,1,1,1,1,NA,NA,NA,NA,NA,NA,NA,NA,NA,NA,NA,NA,NA,NA,NA,NA,NA,NA,NA,NA,NA,NA,NA,NA,NA,NA,NA,NA
SUPAMT83768,3TEM0PF1QBW8IRVDU9K956CZOQRD02,4D0281F4-7582-48E1-A518-4ECBA2BDA2A6,2023-09-29_08h31.34.510,WP_VExplicitOC_LH,2022.2.5,Win32,15.54943944,100,4.1068,2.0172,NA,NA,NA,NA,NA,bored,"bored, not bored","more bored, less bored",NA,NA,NA,NA,NA,NA,NA,NA,NA,NA,NA,NA,NA,NA,NA,0,2,2,2,1,NA,NA,NA,NA,NA,NA,NA,NA,NA,NA,NA,NA,NA,NA,NA,NA,NA,NA,NA,NA,NA,NA,NA,NA,NA,NA,NA,NA
SUPAMT83768,3TEM0PF1QBW8IRVDU9K956CZOQRD02,4D0281F4-7582-48E1-A518-4ECBA2BDA2A6,2023-09-29_08h31.34.510,WP_VExplicitOC_LH,2022.2.5,Win32,15.54943944,NA,NA,NA,NA,NA,NA,NA,NA,NA,NA,NA,NA,NA,NA,NA,NA,NA,NA,NA,NA,NA,NA,NA,NA,NA,NA,NA,NA,NA,NA,NA,3,0,3,0,1,NA,NA,NA,NA,NA,NA,NA,NA,NA,NA,NA,NA,NA,NA,NA,NA,NA,NA,NA,NA,NA,NA,NA
SUPAMT83768,3TEM0PF1QBW8IRVDU9K956CZOQRD02,4D0281F4-7582-48E1-A518-4ECBA2BDA2A6,2023-09-29_08h31.34.510,WP_VExplicitOC_LH,2022.2.5,Win32,15.54943944,100,4.7547,2.058299999,NA,NA,NA,NA,NA,happy,"unhappy, happy","less happy, more happy",NA,NA,NA,NA,NA,NA,NA,NA,NA,NA,NA,NA,NA,NA,NA,0,0,0,0,1,NA,NA,NA,NA,NA,NA,NA,NA,NA,NA,NA,NA,NA,NA,NA,NA,NA,NA,NA,NA,NA,NA,NA,NA,NA,NA,NA,NA
SUPAMT83768,3TEM0PF1QBW8IRVDU9K956CZOQRD02,4D0281F4-7582-48E1-A518-4ECBA2BDA2A6,2023-09-29_08h31.34.510,WP_VExplicitOC_LH,2022.2.5,Win32,15.54943944,100,4.5719,2.0271,NA,NA,NA,NA,NA,bored,"bored, not bored","more bored, less bored",NA,NA,NA,NA,NA,NA,NA,NA,NA,NA,NA,NA,NA,NA,NA,0,1,1,2,1,NA,NA,NA,NA,NA,NA,NA,NA,NA,NA,NA,NA,NA,NA,NA,NA,NA,NA,NA,NA,NA,NA,NA,NA,NA,NA,NA,NA
SUPAMT83768,3TEM0PF1QBW8IRVDU9K956CZOQRD02,4D0281F4-7582-48E1-A518-4ECBA2BDA2A6,2023-09-29_08h31.34.510,WP_VExplicitOC_LH,2022.2.5,Win32,15.54943944,100,4.888599999,2.0399,NA,NA,NA,NA,NA,frustrated,"frustrated, not frustrated","more frustrated, less frustrated",NA,NA,NA,NA,NA,NA,NA,NA,NA,NA,NA,NA,NA,NA,NA,0,2,2,1,1,NA,NA,NA,NA,NA,NA,NA,NA,NA,NA,NA,NA,NA,NA,NA,NA,NA,NA,NA,NA,NA,NA,NA,NA,NA,NA,NA,NA
SUPAMT83768,3TEM0PF1QBW8IRVDU9K956CZOQRD02,4D0281F4-7582-48E1-A518-4ECBA2BDA2A6,2023-09-29_08h31.34.510,WP_VExplicitOC_LH,2022.2.5,Win32,15.54943944,NA,NA,NA,NA,NA,NA,NA,NA,NA,NA,NA,NA,NA,NA,NA,NA,NA,NA,NA,NA,NA,NA,NA,NA,NA,NA,NA,NA,NA,NA,NA,4,0,4,0,1,NA,NA,NA,NA,NA,NA,NA,NA,NA,NA,NA,NA,NA,NA,NA,NA,NA,NA,NA,NA,NA,NA,NA
SUPAMT83768,3TEM0PF1QBW8IRVDU9K956CZOQRD02,4D0281F4-7582-48E1-A518-4ECBA2BDA2A6,2023-09-29_08h31.34.510,WP_VExplicitOC_LH,2022.2.5,Win32,15.54943944,100,3.415799999,2.0479,NA,NA,NA,NA,NA,happy,"unhappy, happy","less happy, more happy",NA,NA,NA,NA,NA,NA,NA,NA,NA,NA,NA,NA,NA,NA,NA,0,0,0,0,1,NA,NA,NA,NA,NA,NA,NA,NA,NA,NA,NA,NA,NA,NA,NA,NA,NA,NA,NA,NA,NA,NA,NA,NA,NA,NA,NA,NA
SUPAMT83768,3TEM0PF1QBW8IRVDU9K956CZOQRD02,4D0281F4-7582-48E1-A518-4ECBA2BDA2A6,2023-09-29_08h31.34.510,WP_VExplicitOC_LH,2022.2.5,Win32,15.54943944,100,5.023400001,2.0521,NA,NA,NA,NA,NA,frustrated,"frustrated, not frustrated","more frustrated, less frustrated",NA,NA,NA,NA,NA,NA,NA,NA,NA,NA,NA,NA,NA,NA,NA,0,1,1,1,1,NA,NA,NA,NA,NA,NA,NA,NA,NA,NA,NA,NA,NA,NA,NA,NA,NA,NA,NA,NA,NA,NA,NA,NA,NA,NA,NA,NA
SUPAMT83768,3TEM0PF1QBW8IRVDU9K956CZOQRD02,4D0281F4-7582-48E1-A518-4ECBA2BDA2A6,2023-09-29_08h31.34.510,WP_VExplicitOC_LH,2022.2.5,Win32,15.54943944,100,4.217900001,2.0155,NA,NA,NA,NA,NA,bored,"bored, not bored","more bored, less bored",NA,NA,NA,NA,NA,NA,NA,NA,NA,NA,NA,NA,NA,NA,NA,0,2,2,2,1,NA,NA,NA,NA,NA,NA,NA,NA,NA,NA,NA,NA,NA,NA,NA,NA,NA,NA,NA,NA,NA,NA,NA,NA,NA,NA,NA,NA
SUPAMT83768,3TEM0PF1QBW8IRVDU9K956CZOQRD02,4D0281F4-7582-48E1-A518-4ECBA2BDA2A6,2023-09-29_08h31.34.510,WP_VExplicitOC_LH,2022.2.5,Win32,15.54943944,NA,NA,NA,NA,NA,NA,NA,NA,NA,NA,NA,NA,NA,NA,NA,NA,NA,NA,NA,NA,NA,NA,NA,NA,NA,NA,NA,NA,NA,NA,NA,5,0,5,0,1,NA,NA,NA,NA,NA,NA,NA,NA,NA,NA,NA,NA,NA,NA,NA,NA,NA,NA,NA,NA,NA,NA,NA
SUPAMT83768,3TEM0PF1QBW8IRVDU9K956CZOQRD02,4D0281F4-7582-48E1-A518-4ECBA2BDA2A6,2023-09-29_08h31.34.510,WP_VExplicitOC_LH,2022.2.5,Win32,15.54943944,100,5.270099999,2.042,NA,NA,NA,NA,NA,happy,"unhappy, happy","less happy, more happy",NA,NA,NA,NA,NA,NA,NA,NA,NA,NA,NA,NA,NA,NA,NA,0,0,0,0,1,NA,NA,NA,NA,NA,NA,NA,NA,NA,NA,NA,NA,NA,NA,NA,NA,NA,NA,NA,NA,NA,NA,NA,NA,NA,NA,NA,NA
SUPAMT83768,3TEM0PF1QBW8IRVDU9K956CZOQRD02,4D0281F4-7582-48E1-A518-4ECBA2BDA2A6,2023-09-29_08h31.34.510,WP_VExplicitOC_LH,2022.2.5,Win32,15.54943944,100,3.774400001,2.067799999,NA,NA,NA,NA,NA,frustrated,"frustrated, not frustrated","more frustrated, less frustrated",NA,NA,NA,NA,NA,NA,NA,NA,NA,NA,NA,NA,NA,NA,NA,0,1,1,1,1,NA,NA,NA,NA,NA,NA,NA,NA,NA,NA,NA,NA,NA,NA,NA,NA,NA,NA,NA,NA,NA,NA,NA,NA,NA,NA,NA,NA
SUPAMT83768,3TEM0PF1QBW8IRVDU9K956CZOQRD02,4D0281F4-7582-48E1-A518-4ECBA2BDA2A6,2023-09-29_08h31.34.510,WP_VExplicitOC_LH,2022.2.5,Win32,15.54943944,100,3.7551,2.031,NA,NA,NA,NA,NA,bored,"bored, not bored","more bored, less bored",NA,NA,NA,NA,NA,NA,NA,NA,NA,NA,NA,NA,NA,NA,NA,0,2,2,2,1,NA,NA,NA,NA,NA,NA,NA,NA,NA,NA,NA,NA,NA,NA,NA,NA,NA,NA,NA,NA,NA,NA,NA,NA,NA,NA,NA,NA
SUPAMT83768,3TEM0PF1QBW8IRVDU9K956CZOQRD02,4D0281F4-7582-48E1-A518-4ECBA2BDA2A6,2023-09-29_08h31.34.510,WP_VExplicitOC_LH,2022.2.5,Win32,15.54943944,NA,NA,NA,NA,NA,NA,NA,NA,NA,NA,NA,NA,NA,NA,NA,NA,NA,NA,NA,NA,NA,NA,NA,NA,NA,NA,NA,NA,NA,NA,NA,6,0,6,0,1,NA,NA,NA,NA,NA,NA,NA,NA,NA,NA,NA,NA,NA,NA,NA,NA,NA,NA,NA,NA,NA,NA,NA
SUPAMT83768,3TEM0PF1QBW8IRVDU9K956CZOQRD02,4D0281F4-7582-48E1-A518-4ECBA2BDA2A6,2023-09-29_08h31.34.510,WP_VExplicitOC_LH,2022.2.5,Win32,15.54943944,100,3.4663,2.0242,NA,NA,NA,NA,NA,frustrated,"frustrated, not frustrated","more frustrated, less frustrated",NA,NA,NA,NA,NA,NA,NA,NA,NA,NA,NA,NA,NA,NA,NA,0,0,0,1,1,NA,NA,NA,NA,NA,NA,NA,NA,NA,NA,NA,NA,NA,NA,NA,NA,NA,NA,NA,NA,NA,NA,NA,NA,NA,NA,NA,NA
SUPAMT83768,3TEM0PF1QBW8IRVDU9K956CZOQRD02,4D0281F4-7582-48E1-A518-4ECBA2BDA2A6,2023-09-29_08h31.34.510,WP_VExplicitOC_LH,2022.2.5,Win32,15.54943944,100,3.7138,2.096,NA,NA,NA,NA,NA,bored,"bored, not bored","more bored, less bored",NA,NA,NA,NA,NA,NA,NA,NA,NA,NA,NA,NA,NA,NA,NA,0,1,1,2,1,NA,NA,NA,NA,NA,NA,NA,NA,NA,NA,NA,NA,NA,NA,NA,NA,NA,NA,NA,NA,NA,NA,NA,NA,NA,NA,NA,NA
SUPAMT83768,3TEM0PF1QBW8IRVDU9K956CZOQRD02,4D0281F4-7582-48E1-A518-4ECBA2BDA2A6,2023-09-29_08h31.34.510,WP_VExplicitOC_LH,2022.2.5,Win32,15.54943944,100,3.9058,2.0007,NA,NA,NA,NA,NA,happy,"unhappy, happy","less happy, more happy",NA,NA,NA,NA,NA,NA,NA,NA,NA,NA,NA,NA,NA,NA,NA,0,2,2,0,1,NA,NA,NA,NA,NA,NA,NA,NA,NA,NA,NA,NA,NA,NA,NA,NA,NA,NA,NA,NA,NA,NA,NA,NA,NA,NA,NA,NA
SUPAMT83768,3TEM0PF1QBW8IRVDU9K956CZOQRD02,4D0281F4-7582-48E1-A518-4ECBA2BDA2A6,2023-09-29_08h31.34.510,WP_VExplicitOC_LH,2022.2.5,Win32,15.54943944,NA,NA,NA,NA,NA,NA,NA,NA,NA,NA,NA,NA,NA,NA,NA,NA,NA,NA,NA,NA,NA,NA,NA,NA,NA,NA,NA,NA,NA,NA,NA,7,0,7,0,1,NA,NA,NA,NA,NA,NA,NA,NA,NA,NA,NA,NA,NA,NA,NA,NA,NA,NA,NA,NA,NA,NA,NA
SUPAMT83768,3TEM0PF1QBW8IRVDU9K956CZOQRD02,4D0281F4-7582-48E1-A518-4ECBA2BDA2A6,2023-09-29_08h31.34.510,WP_VExplicitOC_LH,2022.2.5,Win32,15.54943944,100,4.0283,2.054,NA,NA,NA,NA,NA,bored,"bored, not bored","more bored, less bored",NA,NA,NA,NA,NA,NA,NA,NA,NA,NA,NA,NA,NA,NA,NA,0,0,0,2,1,NA,NA,NA,NA,NA,NA,NA,NA,NA,NA,NA,NA,NA,NA,NA,NA,NA,NA,NA,NA,NA,NA,NA,NA,NA,NA,NA,NA
SUPAMT83768,3TEM0PF1QBW8IRVDU9K956CZOQRD02,4D0281F4-7582-48E1-A518-4ECBA2BDA2A6,2023-09-29_08h31.34.510,WP_VExplicitOC_LH,2022.2.5,Win32,15.54943944,100,3.6868,2.0538,NA,NA,NA,NA,NA,happy,"unhappy, happy","less happy, more happy",NA,NA,NA,NA,NA,NA,NA,NA,NA,NA,NA,NA,NA,NA,NA,0,1,1,0,1,NA,NA,NA,NA,NA,NA,NA,NA,NA,NA,NA,NA,NA,NA,NA,NA,NA,NA,NA,NA,NA,NA,NA,NA,NA,NA,NA,NA
SUPAMT83768,3TEM0PF1QBW8IRVDU9K956CZOQRD02,4D0281F4-7582-48E1-A518-4ECBA2BDA2A6,2023-09-29_08h31.34.510,WP_VExplicitOC_LH,2022.2.5,Win32,15.54943944,-8.59375,4.247099999,2.0474,NA,NA,NA,NA,NA,frustrated,"frustrated, not frustrated","more frustrated, less frustrated",NA,NA,NA,NA,NA,NA,NA,NA,NA,NA,NA,NA,NA,NA,NA,0,2,2,1,1,NA,NA,NA,NA,NA,NA,NA,NA,NA,NA,NA,NA,NA,NA,NA,NA,NA,NA,NA,NA,NA,NA,NA,NA,NA,NA,NA,NA
SUPAMT83768,3TEM0PF1QBW8IRVDU9K956CZOQRD02,4D0281F4-7582-48E1-A518-4ECBA2BDA2A6,2023-09-29_08h31.34.510,WP_VExplicitOC_LH,2022.2.5,Win32,15.54943944,NA,NA,NA,NA,NA,NA,NA,NA,NA,NA,NA,NA,NA,NA,NA,NA,NA,NA,NA,NA,NA,NA,NA,NA,NA,NA,NA,NA,NA,NA,NA,8,0,8,0,1,NA,NA,NA,NA,NA,NA,NA,NA,NA,NA,NA,NA,NA,NA,NA,NA,NA,NA,NA,NA,NA,NA,NA
SUPAMT83768,3TEM0PF1QBW8IRVDU9K956CZOQRD02,4D0281F4-7582-48E1-A518-4ECBA2BDA2A6,2023-09-29_08h31.34.510,WP_VExplicitOC_LH,2022.2.5,Win32,15.54943944,100,5.209,2.0048,NA,NA,NA,NA,NA,frustrated,"frustrated, not frustrated","more frustrated, less frustrated",NA,NA,NA,NA,NA,NA,NA,NA,NA,NA,NA,NA,NA,NA,NA,0,0,0,1,1,NA,NA,NA,NA,NA,NA,NA,NA,NA,NA,NA,NA,NA,NA,NA,NA,NA,NA,NA,NA,NA,NA,NA,NA,NA,NA,NA,NA
SUPAMT83768,3TEM0PF1QBW8IRVDU9K956CZOQRD02,4D0281F4-7582-48E1-A518-4ECBA2BDA2A6,2023-09-29_08h31.34.510,WP_VExplicitOC_LH,2022.2.5,Win32,15.54943944,100,4.447,2.010099999,NA,NA,NA,NA,NA,bored,"bored, not bored","more bored, less bored",NA,NA,NA,NA,NA,NA,NA,NA,NA,NA,NA,NA,NA,NA,NA,0,1,1,2,1,NA,NA,NA,NA,NA,NA,NA,NA,NA,NA,NA,NA,NA,NA,NA,NA,NA,NA,NA,NA,NA,NA,NA,NA,NA,NA,NA,NA
SUPAMT83768,3TEM0PF1QBW8IRVDU9K956CZOQRD02,4D0281F4-7582-48E1-A518-4ECBA2BDA2A6,2023-09-29_08h31.34.510,WP_VExplicitOC_LH,2022.2.5,Win32,15.54943944,100,3.8168,2.0306,NA,NA,NA,NA,NA,happy,"unhappy, happy","less happy, more happy",NA,NA,NA,NA,NA,NA,NA,NA,NA,NA,NA,NA,NA,NA,NA,0,2,2,0,1,NA,NA,NA,NA,NA,NA,NA,NA,NA,NA,NA,NA,NA,NA,NA,NA,NA,NA,NA,NA,NA,NA,NA,NA,NA,NA,NA,NA
SUPAMT83768,3TEM0PF1QBW8IRVDU9K956CZOQRD02,4D0281F4-7582-48E1-A518-4ECBA2BDA2A6,2023-09-29_08h31.34.510,WP_VExplicitOC_LH,2022.2.5,Win32,15.54943944,NA,NA,NA,NA,NA,NA,NA,NA,NA,NA,NA,NA,NA,NA,NA,NA,NA,NA,NA,NA,NA,NA,NA,NA,NA,NA,NA,NA,NA,NA,NA,9,0,9,0,1,NA,NA,NA,NA,NA,NA,NA,NA,NA,NA,NA,NA,NA,NA,NA,NA,NA,NA,NA,NA,NA,NA,NA
SUPAMT83768,3TEM0PF1QBW8IRVDU9K956CZOQRD02,4D0281F4-7582-48E1-A518-4ECBA2BDA2A6,2023-09-29_08h31.34.510,WP_VExplicitOC_LH,2022.2.5,Win32,15.54943944,94.53125,4.7848,2.071200001,NA,NA,NA,NA,NA,bored,"bored, not bored","more bored, less bored",NA,NA,NA,NA,NA,NA,NA,NA,NA,NA,NA,NA,NA,NA,NA,0,0,0,2,1,NA,NA,NA,NA,NA,NA,NA,NA,NA,NA,NA,NA,NA,NA,NA,NA,NA,NA,NA,NA,NA,NA,NA,NA,NA,NA,NA,NA
SUPAMT83768,3TEM0PF1QBW8IRVDU9K956CZOQRD02,4D0281F4-7582-48E1-A518-4ECBA2BDA2A6,2023-09-29_08h31.34.510,WP_VExplicitOC_LH,2022.2.5,Win32,15.54943944,100,3.4448,2.044,NA,NA,NA,NA,NA,happy,"unhappy, happy","less happy, more happy",NA,NA,NA,NA,NA,NA,NA,NA,NA,NA,NA,NA,NA,NA,NA,0,1,1,0,1,NA,NA,NA,NA,NA,NA,NA,NA,NA,NA,NA,NA,NA,NA,NA,NA,NA,NA,NA,NA,NA,NA,NA,NA,NA,NA,NA,NA
SUPAMT83768,3TEM0PF1QBW8IRVDU9K956CZOQRD02,4D0281F4-7582-48E1-A518-4ECBA2BDA2A6,2023-09-29_08h31.34.510,WP_VExplicitOC_LH,2022.2.5,Win32,15.54943944,100,3.5507,2.0581,NA,NA,NA,NA,NA,frustrated,"frustrated, not frustrated","more frustrated, less frustrated",NA,NA,NA,NA,NA,NA,NA,NA,NA,NA,NA,NA,NA,NA,NA,0,2,2,1,1,NA,NA,NA,NA,NA,NA,NA,NA,NA,NA,NA,NA,NA,NA,NA,NA,NA,NA,NA,NA,NA,NA,NA,NA,NA,NA,NA,NA
SUPAMT83768,3TEM0PF1QBW8IRVDU9K956CZOQRD02,4D0281F4-7582-48E1-A518-4ECBA2BDA2A6,2023-09-29_08h31.34.510,WP_VExplicitOC_LH,2022.2.5,Win32,15.54943944,NA,NA,NA,NA,NA,NA,NA,NA,NA,NA,NA,NA,NA,NA,NA,NA,NA,NA,NA,NA,NA,NA,NA,NA,NA,NA,NA,NA,NA,NA,NA,10,0,10,0,1,NA,NA,NA,NA,NA,NA,NA,NA,NA,NA,NA,NA,NA,NA,NA,NA,NA,NA,NA,NA,NA,NA,NA
SUPAMT83768,3TEM0PF1QBW8IRVDU9K956CZOQRD02,4D0281F4-7582-48E1-A518-4ECBA2BDA2A6,2023-09-29_08h31.34.510,WP_VExplicitOC_LH,2022.2.5,Win32,15.54943944,100,3.8785,2.0575,NA,NA,NA,NA,NA,frustrated,"frustrated, not frustrated","more frustrated, less frustrated",NA,NA,NA,NA,NA,NA,NA,NA,NA,NA,NA,NA,NA,NA,NA,0,0,0,1,1,NA,NA,NA,NA,NA,NA,NA,NA,NA,NA,NA,NA,NA,NA,NA,NA,NA,NA,NA,NA,NA,NA,NA,NA,NA,NA,NA,NA
SUPAMT83768,3TEM0PF1QBW8IRVDU9K956CZOQRD02,4D0281F4-7582-48E1-A518-4ECBA2BDA2A6,2023-09-29_08h31.34.510,WP_VExplicitOC_LH,2022.2.5,Win32,15.54943944,96.09375,3.7193,2.06,NA,NA,NA,NA,NA,happy,"unhappy, happy","less happy, more happy",NA,NA,NA,NA,NA,NA,NA,NA,NA,NA,NA,NA,NA,NA,NA,0,1,1,0,1,NA,NA,NA,NA,NA,NA,NA,NA,NA,NA,NA,NA,NA,NA,NA,NA,NA,NA,NA,NA,NA,NA,NA,NA,NA,NA,NA,NA
SUPAMT83768,3TEM0PF1QBW8IRVDU9K956CZOQRD02,4D0281F4-7582-48E1-A518-4ECBA2BDA2A6,2023-09-29_08h31.34.510,WP_VExplicitOC_LH,2022.2.5,Win32,15.54943944,100,7.434400001,2.057200001,NA,NA,NA,NA,NA,bored,"bored, not bored","more bored, less bored",NA,NA,NA,NA,NA,NA,NA,NA,NA,NA,NA,NA,NA,NA,NA,0,2,2,2,1,NA,NA,NA,NA,NA,NA,NA,NA,NA,NA,NA,NA,NA,NA,NA,NA,NA,NA,NA,NA,NA,NA,NA,NA,NA,NA,NA,NA
SUPAMT83768,3TEM0PF1QBW8IRVDU9K956CZOQRD02,4D0281F4-7582-48E1-A518-4ECBA2BDA2A6,2023-09-29_08h31.34.510,WP_VExplicitOC_LH,2022.2.5,Win32,15.54943944,NA,NA,NA,NA,NA,NA,NA,NA,NA,NA,NA,NA,NA,NA,NA,NA,NA,NA,NA,NA,NA,NA,NA,NA,NA,NA,NA,NA,NA,NA,NA,11,0,11,0,1,NA,NA,NA,NA,NA,NA,NA,NA,NA,NA,NA,NA,NA,NA,NA,NA,NA,NA,NA,NA,NA,NA,NA
SUPAMT83768,3TEM0PF1QBW8IRVDU9K956CZOQRD02,4D0281F4-7582-48E1-A518-4ECBA2BDA2A6,2023-09-29_08h31.34.510,WP_VExplicitOC_LH,2022.2.5,Win32,15.54943944,100,4.203099999,2.062099999,NA,NA,NA,NA,NA,happy,"unhappy, happy","less happy, more happy",NA,NA,NA,NA,NA,NA,NA,NA,NA,NA,NA,NA,NA,NA,NA,0,0,0,0,1,NA,NA,NA,NA,NA,NA,NA,NA,NA,NA,NA,NA,NA,NA,NA,NA,NA,NA,NA,NA,NA,NA,NA,NA,NA,NA,NA,NA
SUPAMT83768,3TEM0PF1QBW8IRVDU9K956CZOQRD02,4D0281F4-7582-48E1-A518-4ECBA2BDA2A6,2023-09-29_08h31.34.510,WP_VExplicitOC_LH,2022.2.5,Win32,15.54943944,100,3.8445,2.0063,NA,NA,NA,NA,NA,bored,"bored, not bored","more bored, less bored",NA,NA,NA,NA,NA,NA,NA,NA,NA,NA,NA,NA,NA,NA,NA,0,1,1,2,1,NA,NA,NA,NA,NA,NA,NA,NA,NA,NA,NA,NA,NA,NA,NA,NA,NA,NA,NA,NA,NA,NA,NA,NA,NA,NA,NA,NA
SUPAMT83768,3TEM0PF1QBW8IRVDU9K956CZOQRD02,4D0281F4-7582-48E1-A518-4ECBA2BDA2A6,2023-09-29_08h31.34.510,WP_VExplicitOC_LH,2022.2.5,Win32,15.54943944,100,3.619,2.0702,NA,NA,NA,NA,NA,frustrated,"frustrated, not frustrated","more frustrated, less frustrated",NA,NA,NA,NA,NA,NA,NA,NA,NA,NA,NA,NA,NA,NA,NA,0,2,2,1,1,NA,NA,NA,NA,NA,NA,NA,NA,NA,NA,NA,NA,NA,NA,NA,NA,NA,NA,NA,NA,NA,NA,NA,NA,NA,NA,NA,NA
SUPAMT83768,3TEM0PF1QBW8IRVDU9K956CZOQRD02,4D0281F4-7582-48E1-A518-4ECBA2BDA2A6,2023-09-29_08h31.34.510,WP_VExplicitOC_LH,2022.2.5,Win32,15.54943944,NA,NA,NA,NA,NA,NA,NA,NA,NA,NA,NA,NA,NA,NA,NA,NA,NA,NA,NA,NA,NA,NA,NA,NA,NA,NA,NA,NA,NA,NA,NA,12,0,12,0,1,NA,NA,NA,NA,NA,NA,NA,NA,NA,NA,NA,NA,NA,NA,NA,NA,NA,NA,NA,NA,NA,NA,NA
SUPAMT83768,3TEM0PF1QBW8IRVDU9K956CZOQRD02,4D0281F4-7582-48E1-A518-4ECBA2BDA2A6,2023-09-29_08h31.34.510,WP_VExplicitOC_LH,2022.2.5,Win32,15.54943944,100,4.492400001,2.0262,NA,NA,NA,NA,NA,frustrated,"frustrated, not frustrated","more frustrated, less frustrated",NA,NA,NA,NA,NA,NA,NA,NA,NA,NA,NA,NA,NA,NA,NA,0,0,0,1,1,NA,NA,NA,NA,NA,NA,NA,NA,NA,NA,NA,NA,NA,NA,NA,NA,NA,NA,NA,NA,NA,NA,NA,NA,NA,NA,NA,NA
SUPAMT83768,3TEM0PF1QBW8IRVDU9K956CZOQRD02,4D0281F4-7582-48E1-A518-4ECBA2BDA2A6,2023-09-29_08h31.34.510,WP_VExplicitOC_LH,2022.2.5,Win32,15.54943944,100,3.586900001,2.0041,NA,NA,NA,NA,NA,bored,"bored, not bored","more bored, less bored",NA,NA,NA,NA,NA,NA,NA,NA,NA,NA,NA,NA,NA,NA,NA,0,1,1,2,1,NA,NA,NA,NA,NA,NA,NA,NA,NA,NA,NA,NA,NA,NA,NA,NA,NA,NA,NA,NA,NA,NA,NA,NA,NA,NA,NA,NA
SUPAMT83768,3TEM0PF1QBW8IRVDU9K956CZOQRD02,4D0281F4-7582-48E1-A518-4ECBA2BDA2A6,2023-09-29_08h31.34.510,WP_VExplicitOC_LH,2022.2.5,Win32,15.54943944,100,6.137,2.0314,NA,NA,NA,NA,NA,happy,"unhappy, happy","less happy, more happy",NA,NA,NA,NA,NA,NA,NA,NA,NA,NA,NA,NA,NA,NA,NA,0,2,2,0,1,NA,NA,NA,NA,NA,NA,NA,NA,NA,NA,NA,NA,NA,NA,NA,NA,NA,NA,NA,NA,NA,NA,NA,NA,NA,NA,NA,NA
SUPAMT83768,3TEM0PF1QBW8IRVDU9K956CZOQRD02,4D0281F4-7582-48E1-A518-4ECBA2BDA2A6,2023-09-29_08h31.34.510,WP_VExplicitOC_LH,2022.2.5,Win32,15.54943944,NA,NA,NA,NA,NA,NA,NA,NA,NA,NA,NA,NA,NA,NA,NA,NA,NA,NA,NA,NA,NA,NA,NA,NA,NA,NA,NA,NA,NA,NA,NA,13,0,13,0,1,NA,NA,NA,NA,NA,NA,NA,NA,NA,NA,NA,NA,NA,NA,NA,NA,NA,NA,NA,NA,NA,NA,NA
SUPAMT83768,3TEM0PF1QBW8IRVDU9K956CZOQRD02,4D0281F4-7582-48E1-A518-4ECBA2BDA2A6,2023-09-29_08h31.34.510,WP_VExplicitOC_LH,2022.2.5,Win32,15.54943944,100,6.8217,2.0109,NA,NA,NA,NA,NA,bored,"bored, not bored","more bored, less bored",NA,NA,NA,NA,NA,NA,NA,NA,NA,NA,NA,NA,NA,NA,NA,0,0,0,2,1,NA,NA,NA,NA,NA,NA,NA,NA,NA,NA,NA,NA,NA,NA,NA,NA,NA,NA,NA,NA,NA,NA,NA,NA,NA,NA,NA,NA
SUPAMT83768,3TEM0PF1QBW8IRVDU9K956CZOQRD02,4D0281F4-7582-48E1-A518-4ECBA2BDA2A6,2023-09-29_08h31.34.510,WP_VExplicitOC_LH,2022.2.5,Win32,15.54943944,100,3.7707,2.0428,NA,NA,NA,NA,NA,happy,"unhappy, happy","less happy, more happy",NA,NA,NA,NA,NA,NA,NA,NA,NA,NA,NA,NA,NA,NA,NA,0,1,1,0,1,NA,NA,NA,NA,NA,NA,NA,NA,NA,NA,NA,NA,NA,NA,NA,NA,NA,NA,NA,NA,NA,NA,NA,NA,NA,NA,NA,NA
SUPAMT83768,3TEM0PF1QBW8IRVDU9K956CZOQRD02,4D0281F4-7582-48E1-A518-4ECBA2BDA2A6,2023-09-29_08h31.34.510,WP_VExplicitOC_LH,2022.2.5,Win32,15.54943944,100,3.4095,2.028,NA,NA,NA,NA,NA,frustrated,"frustrated, not frustrated","more frustrated, less frustrated",NA,NA,NA,NA,NA,NA,NA,NA,NA,NA,NA,NA,NA,NA,NA,0,2,2,1,1,NA,NA,NA,NA,NA,NA,NA,NA,NA,NA,NA,NA,NA,NA,NA,NA,NA,NA,NA,NA,NA,NA,NA,NA,NA,NA,NA,NA
SUPAMT83768,3TEM0PF1QBW8IRVDU9K956CZOQRD02,4D0281F4-7582-48E1-A518-4ECBA2BDA2A6,2023-09-29_08h31.34.510,WP_VExplicitOC_LH,2022.2.5,Win32,15.54943944,NA,NA,NA,NA,NA,NA,NA,NA,NA,NA,NA,NA,NA,NA,NA,NA,NA,NA,NA,NA,NA,NA,NA,NA,NA,NA,NA,NA,NA,NA,NA,14,0,14,0,1,NA,NA,NA,NA,NA,NA,NA,NA,NA,NA,NA,NA,NA,NA,NA,NA,NA,NA,NA,NA,NA,NA,NA
SUPAMT83768,3TEM0PF1QBW8IRVDU9K956CZOQRD02,4D0281F4-7582-48E1-A518-4ECBA2BDA2A6,2023-09-29_08h31.34.510,WP_VExplicitOC_LH,2022.2.5,Win32,15.54943944,NA,NA,NA,NA,NA,NA,NA,NA,NA,NA,NA,NA,NA,NA,NA,NA,NA,NA,NA,NA,NA,NA,NA,NA,NA,NA,NA,NA,NA,NA,NA,NA,NA,NA,NA,NA,NA,NA,NA,NA,NA,NA,NA,NA,NA,NA,NA,NA,NA,NA,NA,NA,NA,NA,NA,NA,NA,NA,NA
SUPAMT83768,3TEM0PF1QBW8IRVDU9K956CZOQRD02,4D0281F4-7582-48E1-A518-4ECBA2BDA2A6,2023-09-29_08h31.34.510,WP_VExplicitOC_LH,2022.2.5,Win32,15.54943944,NA,NA,NA,NA,NA,NA,NA,NA,NA,NA,NA,NA,NA,NA,NA,NA,NA,NA,NA,NA,NA,NA,NA,NA,NA,NA,NA,NA,NA,NA,NA,NA,NA,NA,NA,NA,NA,NA,NA,NA,NA,NA,NA,NA,NA,NA,NA,NA,NA,NA,NA,NA,NA,NA,NA,NA,NA,NA,NA
SUPAMT83768,3TEM0PF1QBW8IRVDU9K956CZOQRD02,4D0281F4-7582-48E1-A518-4ECBA2BDA2A6,2023-09-29_08h31.34.510,WP_VExplicitOC_LH,2022.2.5,Win32,15.54943944,NA,NA,NA,NA,NA,NA,NA,NA,NA,NA,NA,NA,NA,NA,NA,NA,NA,NA,rest (looking at a fixed cross),001.png,NA,NA,NA,NA,NA,NA,NA,NA,NA,NA,NA,NA,NA,NA,NA,NA,100,4.8501,0,0,0,0,1,NA,NA,NA,NA,NA,NA,NA,NA,NA,NA,NA,NA,NA,NA,NA,NA
SUPAMT83768,3TEM0PF1QBW8IRVDU9K956CZOQRD02,4D0281F4-7582-48E1-A518-4ECBA2BDA2A6,2023-09-29_08h31.34.510,WP_VExplicitOC_LH,2022.2.5,Win32,15.54943944,NA,NA,NA,NA,NA,NA,NA,NA,NA,NA,NA,NA,NA,NA,NA,NA,NA,NA,stand up,002.png,NA,NA,NA,NA,NA,NA,NA,NA,NA,NA,NA,NA,NA,NA,NA,NA,98.69791667,1.7184,0,1,1,1,1,NA,NA,NA,NA,NA,NA,NA,NA,NA,NA,NA,NA,NA,NA,NA,NA
SUPAMT83768,3TEM0PF1QBW8IRVDU9K956CZOQRD02,4D0281F4-7582-48E1-A518-4ECBA2BDA2A6,2023-09-29_08h31.34.510,WP_VExplicitOC_LH,2022.2.5,Win32,15.54943944,NA,NA,NA,NA,NA,NA,NA,NA,NA,NA,NA,NA,NA,NA,NA,NA,NA,NA,stretch,003.png,NA,NA,NA,NA,NA,NA,NA,NA,NA,NA,NA,NA,NA,NA,NA,NA,100,1.4845,0,2,2,2,1,NA,NA,NA,NA,NA,NA,NA,NA,NA,NA,NA,NA,NA,NA,NA,NA
SUPAMT83768,3TEM0PF1QBW8IRVDU9K956CZOQRD02,4D0281F4-7582-48E1-A518-4ECBA2BDA2A6,2023-09-29_08h31.34.510,WP_VExplicitOC_LH,2022.2.5,Win32,15.54943944,NA,NA,NA,NA,NA,NA,NA,NA,NA,NA,NA,NA,NA,NA,NA,NA,NA,NA,make a drink,004.png,NA,NA,NA,NA,NA,NA,NA,NA,NA,NA,NA,NA,NA,NA,NA,NA,100,1.5689,0,3,3,3,1,NA,NA,NA,NA,NA,NA,NA,NA,NA,NA,NA,NA,NA,NA,NA,NA
SUPAMT83768,3TEM0PF1QBW8IRVDU9K956CZOQRD02,4D0281F4-7582-48E1-A518-4ECBA2BDA2A6,2023-09-29_08h31.34.510,WP_VExplicitOC_LH,2022.2.5,Win32,15.54943944,NA,NA,NA,NA,NA,NA,NA,NA,NA,NA,NA,NA,NA,NA,NA,NA,NA,NA,scroll social media,005.png,NA,NA,NA,NA,NA,NA,NA,NA,NA,NA,NA,NA,NA,NA,NA,NA,100,1.4119,0,4,4,4,1,NA,NA,NA,NA,NA,NA,NA,NA,NA,NA,NA,NA,NA,NA,NA,NA
SUPAMT83768,3TEM0PF1QBW8IRVDU9K956CZOQRD02,4D0281F4-7582-48E1-A518-4ECBA2BDA2A6,2023-09-29_08h31.34.510,WP_VExplicitOC_LH,2022.2.5,Win32,15.54943944,NA,NA,NA,NA,NA,NA,NA,NA,NA,NA,NA,NA,NA,NA,NA,NA,NA,NA,listen to music,006.png,NA,NA,NA,NA,NA,NA,NA,NA,NA,NA,NA,NA,NA,NA,NA,NA,100,1.3278,0,5,5,5,1,NA,NA,NA,NA,NA,NA,NA,NA,NA,NA,NA,NA,NA,NA,NA,NA
SUPAMT83768,3TEM0PF1QBW8IRVDU9K956CZOQRD02,4D0281F4-7582-48E1-A518-4ECBA2BDA2A6,2023-09-29_08h31.34.510,WP_VExplicitOC_LH,2022.2.5,Win32,15.54943944,NA,NA,NA,NA,NA,NA,NA,NA,NA,NA,NA,NA,NA,NA,NA,NA,NA,NA,daydream,007.png,NA,NA,NA,NA,NA,NA,NA,NA,NA,NA,NA,NA,NA,NA,NA,NA,100,1.610099999,0,6,6,6,1,NA,NA,NA,NA,NA,NA,NA,NA,NA,NA,NA,NA,NA,NA,NA,NA
SUPAMT83768,3TEM0PF1QBW8IRVDU9K956CZOQRD02,4D0281F4-7582-48E1-A518-4ECBA2BDA2A6,2023-09-29_08h31.34.510,WP_VExplicitOC_LH,2022.2.5,Win32,15.54943944,NA,NA,NA,NA,NA,NA,NA,NA,NA,NA,NA,NA,NA,NA,NA,NA,NA,NA,watch a short animation,008.png,NA,NA,NA,NA,NA,NA,NA,NA,NA,NA,NA,NA,NA,NA,NA,NA,100,1.662200001,0,7,7,7,1,NA,NA,NA,NA,NA,NA,NA,NA,NA,NA,NA,NA,NA,NA,NA,NA
SUPAMT83768,3TEM0PF1QBW8IRVDU9K956CZOQRD02,4D0281F4-7582-48E1-A518-4ECBA2BDA2A6,2023-09-29_08h31.34.510,WP_VExplicitOC_LH,2022.2.5,Win32,15.54943944,NA,NA,NA,NA,NA,NA,NA,NA,NA,NA,NA,NA,NA,NA,NA,NA,NA,NA,read a novel,009.png,NA,NA,NA,NA,NA,NA,NA,NA,NA,NA,NA,NA,NA,NA,NA,NA,100,1.212799999,0,8,8,8,1,NA,NA,NA,NA,NA,NA,NA,NA,NA,NA,NA,NA,NA,NA,NA,NA
SUPAMT83768,3TEM0PF1QBW8IRVDU9K956CZOQRD02,4D0281F4-7582-48E1-A518-4ECBA2BDA2A6,2023-09-29_08h31.34.510,WP_VExplicitOC_LH,2022.2.5,Win32,15.54943944,NA,NA,NA,NA,NA,NA,NA,NA,NA,NA,NA,NA,NA,NA,NA,NA,NA,NA,read the news,010.png,NA,NA,NA,NA,NA,NA,NA,NA,NA,NA,NA,NA,NA,NA,NA,NA,100,4.8995,0,9,9,9,1,NA,NA,NA,NA,NA,NA,NA,NA,NA,NA,NA,NA,NA,NA,NA,NA
SUPAMT83768,3TEM0PF1QBW8IRVDU9K956CZOQRD02,4D0281F4-7582-48E1-A518-4ECBA2BDA2A6,2023-09-29_08h31.34.510,WP_VExplicitOC_LH,2022.2.5,Win32,15.54943944,NA,NA,NA,NA,NA,NA,NA,NA,NA,NA,NA,NA,NA,NA,NA,NA,NA,NA,NA,NA,NA,NA,NA,NA,NA,NA,NA,NA,NA,NA,NA,NA,NA,NA,NA,NA,NA,NA,NA,NA,NA,NA,NA,stretch,NA,NA,NA,NA,NA,NA,NA,NA,NA,NA,NA,NA,NA,NA,NA
SUPAMT83768,3TEM0PF1QBW8IRVDU9K956CZOQRD02,4D0281F4-7582-48E1-A518-4ECBA2BDA2A6,2023-09-29_08h31.34.510,WP_VExplicitOC_LH,2022.2.5,Win32,15.54943944,100,3.8609,2.0403,NA,NA,NA,NA,NA,happy,"unhappy, happy","less happy, more happy",NA,NA,NA,NA,NA,NA,NA,NA,NA,NA,NA,NA,NA,NA,NA,NA,NA,NA,NA,NA,NA,NA,NA,NA,NA,NA,NA,NA,NA,NA,NA,NA,NA,0,0,0,0,1,NA,NA,NA,NA,NA,NA,NA,NA,NA,NA
SUPAMT83768,3TEM0PF1QBW8IRVDU9K956CZOQRD02,4D0281F4-7582-48E1-A518-4ECBA2BDA2A6,2023-09-29_08h31.34.510,WP_VExplicitOC_LH,2022.2.5,Win32,15.54943944,100,4.5936,2.0502,NA,NA,NA,NA,NA,bored,"bored, not bored","more bored, less bored",NA,NA,NA,NA,NA,NA,NA,NA,NA,NA,NA,NA,NA,NA,NA,NA,NA,NA,NA,NA,NA,NA,NA,NA,NA,NA,NA,NA,NA,NA,NA,NA,NA,0,1,1,2,1,NA,NA,NA,NA,NA,NA,NA,NA,NA,NA
SUPAMT83768,3TEM0PF1QBW8IRVDU9K956CZOQRD02,4D0281F4-7582-48E1-A518-4ECBA2BDA2A6,2023-09-29_08h31.34.510,WP_VExplicitOC_LH,2022.2.5,Win32,15.54943944,100,3.8868,2.067099999,NA,NA,NA,NA,NA,frustrated,"frustrated, not frustrated","more frustrated, less frustrated",NA,NA,NA,NA,NA,NA,NA,NA,NA,NA,NA,NA,NA,NA,NA,NA,NA,NA,NA,NA,NA,NA,NA,NA,NA,NA,NA,NA,NA,NA,NA,NA,NA,0,2,2,1,1,NA,NA,NA,NA,NA,NA,NA,NA,NA,NA
SUPAMT83768,3TEM0PF1QBW8IRVDU9K956CZOQRD02,4D0281F4-7582-48E1-A518-4ECBA2BDA2A6,2023-09-29_08h31.34.510,WP_VExplicitOC_LH,2022.2.5,Win32,15.54943944,NA,NA,NA,NA,NA,NA,NA,NA,NA,NA,NA,NA,NA,NA,NA,NA,NA,NA,NA,NA,NA,NA,NA,NA,NA,NA,NA,NA,NA,NA,NA,NA,NA,NA,NA,NA,NA,NA,NA,NA,NA,NA,NA,NA,NA,NA,NA,NA,NA,NA,NA,NA,NA,NA,NA,NA,NA,NA,NA
SUPAMT83768,3TEM0PF1QBW8IRVDU9K956CZOQRD02,4D0281F4-7582-48E1-A518-4ECBA2BDA2A6,2023-09-29_08h31.34.510,WP_VExplicitOC_LH,2022.2.5,Win32,15.54943944,NA,NA,NA,NA,NA,NA,NA,NA,NA,NA,NA,NA,NA,NA,NA,NA,NA,NA,NA,NA,NA,NA,NA,NA,NA,NA,NA,NA,NA,NA,NA,NA,NA,NA,NA,NA,NA,NA,NA,NA,NA,NA,NA,NA,NA,NA,NA,NA,NA,NA,NA,NA,NA,NA,NA,NA,NA,NA,NA
SUPAMT83768,3TEM0PF1QBW8IRVDU9K956CZOQRD02,4D0281F4-7582-48E1-A518-4ECBA2BDA2A6,2023-09-29_08h31.34.510,WP_VExplicitOC_LH,2022.2.5,Win32,15.54943944,100,4.2954,2.0318,NA,NA,NA,NA,NA,bored,"bored, not bored","more bored, less bored",NA,NA,NA,NA,NA,NA,NA,NA,NA,NA,NA,NA,NA,NA,NA,NA,NA,NA,NA,NA,NA,NA,NA,NA,NA,NA,NA,NA,NA,NA,NA,NA,NA,NA,NA,NA,NA,NA,0,0,0,2,1,NA,NA,NA,NA,NA
SUPAMT83768,3TEM0PF1QBW8IRVDU9K956CZOQRD02,4D0281F4-7582-48E1-A518-4ECBA2BDA2A6,2023-09-29_08h31.34.510,WP_VExplicitOC_LH,2022.2.5,Win32,15.54943944,100,4.1415,2.0056,NA,NA,NA,NA,NA,happy,"unhappy, happy","less happy, more happy",NA,NA,NA,NA,NA,NA,NA,NA,NA,NA,NA,NA,NA,NA,NA,NA,NA,NA,NA,NA,NA,NA,NA,NA,NA,NA,NA,NA,NA,NA,NA,NA,NA,NA,NA,NA,NA,NA,0,1,1,0,1,NA,NA,NA,NA,NA
SUPAMT83768,3TEM0PF1QBW8IRVDU9K956CZOQRD02,4D0281F4-7582-48E1-A518-4ECBA2BDA2A6,2023-09-29_08h31.34.510,WP_VExplicitOC_LH,2022.2.5,Win32,15.54943944,100,3.7075,2.0198,NA,NA,NA,NA,NA,frustrated,"frustrated, not frustrated","more frustrated, less frustrated",NA,NA,NA,NA,NA,NA,NA,NA,NA,NA,NA,NA,NA,NA,NA,NA,NA,NA,NA,NA,NA,NA,NA,NA,NA,NA,NA,NA,NA,NA,NA,NA,NA,NA,NA,NA,NA,NA,0,2,2,1,1,NA,NA,NA,NA,NA
SUPAMT83768,3TEM0PF1QBW8IRVDU9K956CZOQRD02,4D0281F4-7582-48E1-A518-4ECBA2BDA2A6,2023-09-29_08h31.34.510,WP_VExplicitOC_LH,2022.2.5,Win32,15.54943944,NA,NA,NA,NA,NA,NA,NA,NA,NA,NA,NA,NA,NA,NA,NA,NA,NA,NA,NA,NA,NA,NA,NA,NA,NA,NA,NA,NA,NA,NA,NA,NA,NA,NA,NA,NA,NA,NA,NA,NA,NA,NA,NA,NA,NA,NA,NA,NA,NA,NA,NA,NA,NA,NA,0,0,0,0,1
SUPAMT83768,3TEM0PF1QBW8IRVDU9K956CZOQRD02,4D0281F4-7582-48E1-A518-4ECBA2BDA2A6,2023-09-29_08h31.34.510,WP_VExplicitOC_LH,2022.2.5,Win32,15.54943944,100,5.4638,2.063,NA,NA,NA,NA,NA,bored,"bored, not bored","more bored, less bored",NA,NA,NA,NA,NA,NA,NA,NA,NA,NA,NA,NA,NA,NA,NA,NA,NA,NA,NA,NA,NA,NA,NA,NA,NA,NA,NA,NA,NA,NA,NA,NA,NA,NA,NA,NA,NA,NA,0,0,0,2,1,NA,NA,NA,NA,NA
SUPAMT83768,3TEM0PF1QBW8IRVDU9K956CZOQRD02,4D0281F4-7582-48E1-A518-4ECBA2BDA2A6,2023-09-29_08h31.34.510,WP_VExplicitOC_LH,2022.2.5,Win32,15.54943944,100,3.412299999,2.064099999,NA,NA,NA,NA,NA,frustrated,"frustrated, not frustrated","more frustrated, less frustrated",NA,NA,NA,NA,NA,NA,NA,NA,NA,NA,NA,NA,NA,NA,NA,NA,NA,NA,NA,NA,NA,NA,NA,NA,NA,NA,NA,NA,NA,NA,NA,NA,NA,NA,NA,NA,NA,NA,0,1,1,1,1,NA,NA,NA,NA,NA
SUPAMT83768,3TEM0PF1QBW8IRVDU9K956CZOQRD02,4D0281F4-7582-48E1-A518-4ECBA2BDA2A6,2023-09-29_08h31.34.510,WP_VExplicitOC_LH,2022.2.5,Win32,15.54943944,100,3.8561,2.0414,NA,NA,NA,NA,NA,happy,"unhappy, happy","less happy, more happy",NA,NA,NA,NA,NA,NA,NA,NA,NA,NA,NA,NA,NA,NA,NA,NA,NA,NA,NA,NA,NA,NA,NA,NA,NA,NA,NA,NA,NA,NA,NA,NA,NA,NA,NA,NA,NA,NA,0,2,2,0,1,NA,NA,NA,NA,NA
SUPAMT83768,3TEM0PF1QBW8IRVDU9K956CZOQRD02,4D0281F4-7582-48E1-A518-4ECBA2BDA2A6,2023-09-29_08h31.34.510,WP_VExplicitOC_LH,2022.2.5,Win32,15.54943944,NA,NA,NA,NA,NA,NA,NA,NA,NA,NA,NA,NA,NA,NA,NA,NA,NA,NA,NA,NA,NA,NA,NA,NA,NA,NA,NA,NA,NA,NA,NA,NA,NA,NA,NA,NA,NA,NA,NA,NA,NA,NA,NA,NA,NA,NA,NA,NA,NA,NA,NA,NA,NA,NA,1,0,1,0,1
SUPAMT83768,3TEM0PF1QBW8IRVDU9K956CZOQRD02,4D0281F4-7582-48E1-A518-4ECBA2BDA2A6,2023-09-29_08h31.34.510,WP_VExplicitOC_LH,2022.2.5,Win32,15.54943944,100,4.631299999,2.013599999,NA,NA,NA,NA,NA,bored,"bored, not bored","more bored, less bored",NA,NA,NA,NA,NA,NA,NA,NA,NA,NA,NA,NA,NA,NA,NA,NA,NA,NA,NA,NA,NA,NA,NA,NA,NA,NA,NA,NA,NA,NA,NA,NA,NA,NA,NA,NA,NA,NA,0,0,0,2,1,NA,NA,NA,NA,NA
SUPAMT83768,3TEM0PF1QBW8IRVDU9K956CZOQRD02,4D0281F4-7582-48E1-A518-4ECBA2BDA2A6,2023-09-29_08h31.34.510,WP_VExplicitOC_LH,2022.2.5,Win32,15.54943944,100,3.5438,2.01,NA,NA,NA,NA,NA,happy,"unhappy, happy","less happy, more happy",NA,NA,NA,NA,NA,NA,NA,NA,NA,NA,NA,NA,NA,NA,NA,NA,NA,NA,NA,NA,NA,NA,NA,NA,NA,NA,NA,NA,NA,NA,NA,NA,NA,NA,NA,NA,NA,NA,0,1,1,0,1,NA,NA,NA,NA,NA
SUPAMT83768,3TEM0PF1QBW8IRVDU9K956CZOQRD02,4D0281F4-7582-48E1-A518-4ECBA2BDA2A6,2023-09-29_08h31.34.510,WP_VExplicitOC_LH,2022.2.5,Win32,15.54943944,100,3.6265,2.0398,NA,NA,NA,NA,NA,frustrated,"frustrated, not frustrated","more frustrated, less frustrated",NA,NA,NA,NA,NA,NA,NA,NA,NA,NA,NA,NA,NA,NA,NA,NA,NA,NA,NA,NA,NA,NA,NA,NA,NA,NA,NA,NA,NA,NA,NA,NA,NA,NA,NA,NA,NA,NA,0,2,2,1,1,NA,NA,NA,NA,NA
SUPAMT83768,3TEM0PF1QBW8IRVDU9K956CZOQRD02,4D0281F4-7582-48E1-A518-4ECBA2BDA2A6,2023-09-29_08h31.34.510,WP_VExplicitOC_LH,2022.2.5,Win32,15.54943944,NA,NA,NA,NA,NA,NA,NA,NA,NA,NA,NA,NA,NA,NA,NA,NA,NA,NA,NA,NA,NA,NA,NA,NA,NA,NA,NA,NA,NA,NA,NA,NA,NA,NA,NA,NA,NA,NA,NA,NA,NA,NA,NA,NA,NA,NA,NA,NA,NA,NA,NA,NA,NA,NA,2,0,2,0,1
SUPAMT83768,3TEM0PF1QBW8IRVDU9K956CZOQRD02,4D0281F4-7582-48E1-A518-4ECBA2BDA2A6,2023-09-29_08h31.34.510,WP_VExplicitOC_LH,2022.2.5,Win32,15.54943944,100,3.6415,2.0137,NA,NA,NA,NA,NA,happy,"unhappy, happy","less happy, more happy",NA,NA,NA,NA,NA,NA,NA,NA,NA,NA,NA,NA,NA,NA,NA,NA,NA,NA,NA,NA,NA,NA,NA,NA,NA,NA,NA,NA,NA,NA,NA,NA,NA,NA,NA,NA,NA,NA,0,0,0,0,1,NA,NA,NA,NA,NA
SUPAMT83768,3TEM0PF1QBW8IRVDU9K956CZOQRD02,4D0281F4-7582-48E1-A518-4ECBA2BDA2A6,2023-09-29_08h31.34.510,WP_VExplicitOC_LH,2022.2.5,Win32,15.54943944,100,3.3916,2.042599999,NA,NA,NA,NA,NA,bored,"bored, not bored","more bored, less bored",NA,NA,NA,NA,NA,NA,NA,NA,NA,NA,NA,NA,NA,NA,NA,NA,NA,NA,NA,NA,NA,NA,NA,NA,NA,NA,NA,NA,NA,NA,NA,NA,NA,NA,NA,NA,NA,NA,0,1,1,2,1,NA,NA,NA,NA,NA
SUPAMT83768,3TEM0PF1QBW8IRVDU9K956CZOQRD02,4D0281F4-7582-48E1-A518-4ECBA2BDA2A6,2023-09-29_08h31.34.510,WP_VExplicitOC_LH,2022.2.5,Win32,15.54943944,100,3.697099999,2.0138,NA,NA,NA,NA,NA,frustrated,"frustrated, not frustrated","more frustrated, less frustrated",NA,NA,NA,NA,NA,NA,NA,NA,NA,NA,NA,NA,NA,NA,NA,NA,NA,NA,NA,NA,NA,NA,NA,NA,NA,NA,NA,NA,NA,NA,NA,NA,NA,NA,NA,NA,NA,NA,0,2,2,1,1,NA,NA,NA,NA,NA
SUPAMT83768,3TEM0PF1QBW8IRVDU9K956CZOQRD02,4D0281F4-7582-48E1-A518-4ECBA2BDA2A6,2023-09-29_08h31.34.510,WP_VExplicitOC_LH,2022.2.5,Win32,15.54943944,NA,NA,NA,NA,NA,NA,NA,NA,NA,NA,NA,NA,NA,NA,NA,NA,NA,NA,NA,NA,NA,NA,NA,NA,NA,NA,NA,NA,NA,NA,NA,NA,NA,NA,NA,NA,NA,NA,NA,NA,NA,NA,NA,NA,NA,NA,NA,NA,NA,NA,NA,NA,NA,NA,3,0,3,0,1
SUPAMT83768,3TEM0PF1QBW8IRVDU9K956CZOQRD02,4D0281F4-7582-48E1-A518-4ECBA2BDA2A6,2023-09-29_08h31.34.510,WP_VExplicitOC_LH,2022.2.5,Win32,15.54943944,100,3.4343,2.0263,NA,NA,NA,NA,NA,bored,"bored, not bored","more bored, less bored",NA,NA,NA,NA,NA,NA,NA,NA,NA,NA,NA,NA,NA,NA,NA,NA,NA,NA,NA,NA,NA,NA,NA,NA,NA,NA,NA,NA,NA,NA,NA,NA,NA,NA,NA,NA,NA,NA,0,0,0,2,1,NA,NA,NA,NA,NA
SUPAMT83768,3TEM0PF1QBW8IRVDU9K956CZOQRD02,4D0281F4-7582-48E1-A518-4ECBA2BDA2A6,2023-09-29_08h31.34.510,WP_VExplicitOC_LH,2022.2.5,Win32,15.54943944,100,3.5936,2.0414,NA,NA,NA,NA,NA,frustrated,"frustrated, not frustrated","more frustrated, less frustrated",NA,NA,NA,NA,NA,NA,NA,NA,NA,NA,NA,NA,NA,NA,NA,NA,NA,NA,NA,NA,NA,NA,NA,NA,NA,NA,NA,NA,NA,NA,NA,NA,NA,NA,NA,NA,NA,NA,0,1,1,1,1,NA,NA,NA,NA,NA
SUPAMT83768,3TEM0PF1QBW8IRVDU9K956CZOQRD02,4D0281F4-7582-48E1-A518-4ECBA2BDA2A6,2023-09-29_08h31.34.510,WP_VExplicitOC_LH,2022.2.5,Win32,15.54943944,100,3.6838,2.0335,NA,NA,NA,NA,NA,happy,"unhappy, happy","less happy, more happy",NA,NA,NA,NA,NA,NA,NA,NA,NA,NA,NA,NA,NA,NA,NA,NA,NA,NA,NA,NA,NA,NA,NA,NA,NA,NA,NA,NA,NA,NA,NA,NA,NA,NA,NA,NA,NA,NA,0,2,2,0,1,NA,NA,NA,NA,NA
SUPAMT83768,3TEM0PF1QBW8IRVDU9K956CZOQRD02,4D0281F4-7582-48E1-A518-4ECBA2BDA2A6,2023-09-29_08h31.34.510,WP_VExplicitOC_LH,2022.2.5,Win32,15.54943944,NA,NA,NA,NA,NA,NA,NA,NA,NA,NA,NA,NA,NA,NA,NA,NA,NA,NA,NA,NA,NA,NA,NA,NA,NA,NA,NA,NA,NA,NA,NA,NA,NA,NA,NA,NA,NA,NA,NA,NA,NA,NA,NA,NA,NA,NA,NA,NA,NA,NA,NA,NA,NA,NA,4,0,4,0,1
SUPAMT83768,3TEM0PF1QBW8IRVDU9K956CZOQRD02,4D0281F4-7582-48E1-A518-4ECBA2BDA2A6,2023-09-29_08h31.34.510,WP_VExplicitOC_LH,2022.2.5,Win32,15.54943944,100,4.320700001,2.0475,NA,NA,NA,NA,NA,bored,"bored, not bored","more bored, less bored",NA,NA,NA,NA,NA,NA,NA,NA,NA,NA,NA,NA,NA,NA,NA,NA,NA,NA,NA,NA,NA,NA,NA,NA,NA,NA,NA,NA,NA,NA,NA,NA,NA,NA,NA,NA,NA,NA,0,0,0,2,1,NA,NA,NA,NA,NA
SUPAMT83768,3TEM0PF1QBW8IRVDU9K956CZOQRD02,4D0281F4-7582-48E1-A518-4ECBA2BDA2A6,2023-09-29_08h31.34.510,WP_VExplicitOC_LH,2022.2.5,Win32,15.54943944,100,3.5325,2.031099999,NA,NA,NA,NA,NA,frustrated,"frustrated, not frustrated","more frustrated, less frustrated",NA,NA,NA,NA,NA,NA,NA,NA,NA,NA,NA,NA,NA,NA,NA,NA,NA,NA,NA,NA,NA,NA,NA,NA,NA,NA,NA,NA,NA,NA,NA,NA,NA,NA,NA,NA,NA,NA,0,1,1,1,1,NA,NA,NA,NA,NA
SUPAMT83768,3TEM0PF1QBW8IRVDU9K956CZOQRD02,4D0281F4-7582-48E1-A518-4ECBA2BDA2A6,2023-09-29_08h31.34.510,WP_VExplicitOC_LH,2022.2.5,Win32,15.54943944,100,3.6517,2.0288,NA,NA,NA,NA,NA,happy,"unhappy, happy","less happy, more happy",NA,NA,NA,NA,NA,NA,NA,NA,NA,NA,NA,NA,NA,NA,NA,NA,NA,NA,NA,NA,NA,NA,NA,NA,NA,NA,NA,NA,NA,NA,NA,NA,NA,NA,NA,NA,NA,NA,0,2,2,0,1,NA,NA,NA,NA,NA
SUPAMT83768,3TEM0PF1QBW8IRVDU9K956CZOQRD02,4D0281F4-7582-48E1-A518-4ECBA2BDA2A6,2023-09-29_08h31.34.510,WP_VExplicitOC_LH,2022.2.5,Win32,15.54943944,NA,NA,NA,NA,NA,NA,NA,NA,NA,NA,NA,NA,NA,NA,NA,NA,NA,NA,NA,NA,NA,NA,NA,NA,NA,NA,NA,NA,NA,NA,NA,NA,NA,NA,NA,NA,NA,NA,NA,NA,NA,NA,NA,NA,NA,NA,NA,NA,NA,NA,NA,NA,NA,NA,5,0,5,0,1
SUPAMT83768,3TEM0PF1QBW8IRVDU9K956CZOQRD02,4D0281F4-7582-48E1-A518-4ECBA2BDA2A6,2023-09-29_08h31.34.510,WP_VExplicitOC_LH,2022.2.5,Win32,15.54943944,100,5.6897,2.0473,NA,NA,NA,NA,NA,bored,"bored, not bored","more bored, less bored",NA,NA,NA,NA,NA,NA,NA,NA,NA,NA,NA,NA,NA,NA,NA,NA,NA,NA,NA,NA,NA,NA,NA,NA,NA,NA,NA,NA,NA,NA,NA,NA,NA,NA,NA,NA,NA,NA,0,0,0,2,1,NA,NA,NA,NA,NA
SUPAMT83768,3TEM0PF1QBW8IRVDU9K956CZOQRD02,4D0281F4-7582-48E1-A518-4ECBA2BDA2A6,2023-09-29_08h31.34.510,WP_VExplicitOC_LH,2022.2.5,Win32,15.54943944,NA,NA,2.004,NA,NA,NA,NA,NA,happy,"unhappy, happy","less happy, more happy",NA,NA,NA,NA,NA,NA,NA,NA,NA,NA,NA,NA,NA,NA,NA,NA,NA,NA,NA,NA,NA,NA,NA,NA,NA,NA,NA,NA,NA,NA,NA,NA,NA,NA,NA,NA,NA,NA,0,1,1,0,1,NA,NA,NA,NA,NA
SUPAMT83768,3TEM0PF1QBW8IRVDU9K956CZOQRD02,4D0281F4-7582-48E1-A518-4ECBA2BDA2A6,2023-09-29_08h31.34.510,WP_VExplicitOC_LH,2022.2.5,Win32,15.54943944,100,5.100200001,2.0092,NA,NA,NA,NA,NA,frustrated,"frustrated, not frustrated","more frustrated, less frustrated",NA,NA,NA,NA,NA,NA,NA,NA,NA,NA,NA,NA,NA,NA,NA,NA,NA,NA,NA,NA,NA,NA,NA,NA,NA,NA,NA,NA,NA,NA,NA,NA,NA,NA,NA,NA,NA,NA,0,2,2,1,1,NA,NA,NA,NA,NA
SUPAMT83768,3TEM0PF1QBW8IRVDU9K956CZOQRD02,4D0281F4-7582-48E1-A518-4ECBA2BDA2A6,2023-09-29_08h31.34.510,WP_VExplicitOC_LH,2022.2.5,Win32,15.54943944,NA,NA,NA,NA,NA,NA,NA,NA,NA,NA,NA,NA,NA,NA,NA,NA,NA,NA,NA,NA,NA,NA,NA,NA,NA,NA,NA,NA,NA,NA,NA,NA,NA,NA,NA,NA,NA,NA,NA,NA,NA,NA,NA,NA,NA,NA,NA,NA,NA,NA,NA,NA,NA,NA,6,0,6,0,1
SUPAMT83768,3TEM0PF1QBW8IRVDU9K956CZOQRD02,4D0281F4-7582-48E1-A518-4ECBA2BDA2A6,2023-09-29_08h31.34.510,WP_VExplicitOC_LH,2022.2.5,Win32,15.54943944,100,5.5363,2.0266,NA,NA,NA,NA,NA,happy,"unhappy, happy","less happy, more happy",NA,NA,NA,NA,NA,NA,NA,NA,NA,NA,NA,NA,NA,NA,NA,NA,NA,NA,NA,NA,NA,NA,NA,NA,NA,NA,NA,NA,NA,NA,NA,NA,NA,NA,NA,NA,NA,NA,0,0,0,0,1,NA,NA,NA,NA,NA
SUPAMT83768,3TEM0PF1QBW8IRVDU9K956CZOQRD02,4D0281F4-7582-48E1-A518-4ECBA2BDA2A6,2023-09-29_08h31.34.510,WP_VExplicitOC_LH,2022.2.5,Win32,15.54943944,100,3.477200001,2.0416,NA,NA,NA,NA,NA,frustrated,"frustrated, not frustrated","more frustrated, less frustrated",NA,NA,NA,NA,NA,NA,NA,NA,NA,NA,NA,NA,NA,NA,NA,NA,NA,NA,NA,NA,NA,NA,NA,NA,NA,NA,NA,NA,NA,NA,NA,NA,NA,NA,NA,NA,NA,NA,0,1,1,1,1,NA,NA,NA,NA,NA
SUPAMT83768,3TEM0PF1QBW8IRVDU9K956CZOQRD02,4D0281F4-7582-48E1-A518-4ECBA2BDA2A6,2023-09-29_08h31.34.510,WP_VExplicitOC_LH,2022.2.5,Win32,15.54943944,100,3.2354,2.021700001,NA,NA,NA,NA,NA,bored,"bored, not bored","more bored, less bored",NA,NA,NA,NA,NA,NA,NA,NA,NA,NA,NA,NA,NA,NA,NA,NA,NA,NA,NA,NA,NA,NA,NA,NA,NA,NA,NA,NA,NA,NA,NA,NA,NA,NA,NA,NA,NA,NA,0,2,2,2,1,NA,NA,NA,NA,NA
SUPAMT83768,3TEM0PF1QBW8IRVDU9K956CZOQRD02,4D0281F4-7582-48E1-A518-4ECBA2BDA2A6,2023-09-29_08h31.34.510,WP_VExplicitOC_LH,2022.2.5,Win32,15.54943944,NA,NA,NA,NA,NA,NA,NA,NA,NA,NA,NA,NA,NA,NA,NA,NA,NA,NA,NA,NA,NA,NA,NA,NA,NA,NA,NA,NA,NA,NA,NA,NA,NA,NA,NA,NA,NA,NA,NA,NA,NA,NA,NA,NA,NA,NA,NA,NA,NA,NA,NA,NA,NA,NA,7,0,7,0,1
SUPAMT83768,3TEM0PF1QBW8IRVDU9K956CZOQRD02,4D0281F4-7582-48E1-A518-4ECBA2BDA2A6,2023-09-29_08h31.34.510,WP_VExplicitOC_LH,2022.2.5,Win32,15.54943944,100,4.0312,2.0681,NA,NA,NA,NA,NA,frustrated,"frustrated, not frustrated","more frustrated, less frustrated",NA,NA,NA,NA,NA,NA,NA,NA,NA,NA,NA,NA,NA,NA,NA,NA,NA,NA,NA,NA,NA,NA,NA,NA,NA,NA,NA,NA,NA,NA,NA,NA,NA,NA,NA,NA,NA,NA,0,0,0,1,1,NA,NA,NA,NA,NA
SUPAMT83768,3TEM0PF1QBW8IRVDU9K956CZOQRD02,4D0281F4-7582-48E1-A518-4ECBA2BDA2A6,2023-09-29_08h31.34.510,WP_VExplicitOC_LH,2022.2.5,Win32,15.54943944,100,4.0702,2.0278,NA,NA,NA,NA,NA,bored,"bored, not bored","more bored, less bored",NA,NA,NA,NA,NA,NA,NA,NA,NA,NA,NA,NA,NA,NA,NA,NA,NA,NA,NA,NA,NA,NA,NA,NA,NA,NA,NA,NA,NA,NA,NA,NA,NA,NA,NA,NA,NA,NA,0,1,1,2,1,NA,NA,NA,NA,NA
SUPAMT83768,3TEM0PF1QBW8IRVDU9K956CZOQRD02,4D0281F4-7582-48E1-A518-4ECBA2BDA2A6,2023-09-29_08h31.34.510,WP_VExplicitOC_LH,2022.2.5,Win32,15.54943944,100,3.7113,2.0444,NA,NA,NA,NA,NA,happy,"unhappy, happy","less happy, more happy",NA,NA,NA,NA,NA,NA,NA,NA,NA,NA,NA,NA,NA,NA,NA,NA,NA,NA,NA,NA,NA,NA,NA,NA,NA,NA,NA,NA,NA,NA,NA,NA,NA,NA,NA,NA,NA,NA,0,2,2,0,1,NA,NA,NA,NA,NA
SUPAMT83768,3TEM0PF1QBW8IRVDU9K956CZOQRD02,4D0281F4-7582-48E1-A518-4ECBA2BDA2A6,2023-09-29_08h31.34.510,WP_VExplicitOC_LH,2022.2.5,Win32,15.54943944,NA,NA,NA,NA,NA,NA,NA,NA,NA,NA,NA,NA,NA,NA,NA,NA,NA,NA,NA,NA,NA,NA,NA,NA,NA,NA,NA,NA,NA,NA,NA,NA,NA,NA,NA,NA,NA,NA,NA,NA,NA,NA,NA,NA,NA,NA,NA,NA,NA,NA,NA,NA,NA,NA,8,0,8,0,1
SUPAMT83768,3TEM0PF1QBW8IRVDU9K956CZOQRD02,4D0281F4-7582-48E1-A518-4ECBA2BDA2A6,2023-09-29_08h31.34.510,WP_VExplicitOC_LH,2022.2.5,Win32,15.54943944,100,3.665099999,2.001,NA,NA,NA,NA,NA,frustrated,"frustrated, not frustrated","more frustrated, less frustrated",NA,NA,NA,NA,NA,NA,NA,NA,NA,NA,NA,NA,NA,NA,NA,NA,NA,NA,NA,NA,NA,NA,NA,NA,NA,NA,NA,NA,NA,NA,NA,NA,NA,NA,NA,NA,NA,NA,0,0,0,1,1,NA,NA,NA,NA,NA
SUPAMT83768,3TEM0PF1QBW8IRVDU9K956CZOQRD02,4D0281F4-7582-48E1-A518-4ECBA2BDA2A6,2023-09-29_08h31.34.510,WP_VExplicitOC_LH,2022.2.5,Win32,15.54943944,100,3.5345,2.0502,NA,NA,NA,NA,NA,happy,"unhappy, happy","less happy, more happy",NA,NA,NA,NA,NA,NA,NA,NA,NA,NA,NA,NA,NA,NA,NA,NA,NA,NA,NA,NA,NA,NA,NA,NA,NA,NA,NA,NA,NA,NA,NA,NA,NA,NA,NA,NA,NA,NA,0,1,1,0,1,NA,NA,NA,NA,NA
SUPAMT83768,3TEM0PF1QBW8IRVDU9K956CZOQRD02,4D0281F4-7582-48E1-A518-4ECBA2BDA2A6,2023-09-29_08h31.34.510,WP_VExplicitOC_LH,2022.2.5,Win32,15.54943944,100,3.2713,2.026599999,NA,NA,NA,NA,NA,bored,"bored, not bored","more bored, less bored",NA,NA,NA,NA,NA,NA,NA,NA,NA,NA,NA,NA,NA,NA,NA,NA,NA,NA,NA,NA,NA,NA,NA,NA,NA,NA,NA,NA,NA,NA,NA,NA,NA,NA,NA,NA,NA,NA,0,2,2,2,1,NA,NA,NA,NA,NA
SUPAMT83768,3TEM0PF1QBW8IRVDU9K956CZOQRD02,4D0281F4-7582-48E1-A518-4ECBA2BDA2A6,2023-09-29_08h31.34.510,WP_VExplicitOC_LH,2022.2.5,Win32,15.54943944,NA,NA,NA,NA,NA,NA,NA,NA,NA,NA,NA,NA,NA,NA,NA,NA,NA,NA,NA,NA,NA,NA,NA,NA,NA,NA,NA,NA,NA,NA,NA,NA,NA,NA,NA,NA,NA,NA,NA,NA,NA,NA,NA,NA,NA,NA,NA,NA,NA,NA,NA,NA,NA,NA,9,0,9,0,1
SUPAMT83768,3TEM0PF1QBW8IRVDU9K956CZOQRD02,4D0281F4-7582-48E1-A518-4ECBA2BDA2A6,2023-09-29_08h31.34.510,WP_VExplicitOC_LH,2022.2.5,Win32,15.54943944,100,3.633700001,2.0237,NA,NA,NA,NA,NA,happy,"unhappy, happy","less happy, more happy",NA,NA,NA,NA,NA,NA,NA,NA,NA,NA,NA,NA,NA,NA,NA,NA,NA,NA,NA,NA,NA,NA,NA,NA,NA,NA,NA,NA,NA,NA,NA,NA,NA,NA,NA,NA,NA,NA,0,0,0,0,1,NA,NA,NA,NA,NA
SUPAMT83768,3TEM0PF1QBW8IRVDU9K956CZOQRD02,4D0281F4-7582-48E1-A518-4ECBA2BDA2A6,2023-09-29_08h31.34.510,WP_VExplicitOC_LH,2022.2.5,Win32,15.54943944,100,3.8629,2.027099999,NA,NA,NA,NA,NA,frustrated,"frustrated, not frustrated","more frustrated, less frustrated",NA,NA,NA,NA,NA,NA,NA,NA,NA,NA,NA,NA,NA,NA,NA,NA,NA,NA,NA,NA,NA,NA,NA,NA,NA,NA,NA,NA,NA,NA,NA,NA,NA,NA,NA,NA,NA,NA,0,1,1,1,1,NA,NA,NA,NA,NA
SUPAMT83768,3TEM0PF1QBW8IRVDU9K956CZOQRD02,4D0281F4-7582-48E1-A518-4ECBA2BDA2A6,2023-09-29_08h31.34.510,WP_VExplicitOC_LH,2022.2.5,Win32,15.54943944,100,3.833299999,2.0186,NA,NA,NA,NA,NA,bored,"bored, not bored","more bored, less bored",NA,NA,NA,NA,NA,NA,NA,NA,NA,NA,NA,NA,NA,NA,NA,NA,NA,NA,NA,NA,NA,NA,NA,NA,NA,NA,NA,NA,NA,NA,NA,NA,NA,NA,NA,NA,NA,NA,0,2,2,2,1,NA,NA,NA,NA,NA
SUPAMT83768,3TEM0PF1QBW8IRVDU9K956CZOQRD02,4D0281F4-7582-48E1-A518-4ECBA2BDA2A6,2023-09-29_08h31.34.510,WP_VExplicitOC_LH,2022.2.5,Win32,15.54943944,NA,NA,NA,NA,NA,NA,NA,NA,NA,NA,NA,NA,NA,NA,NA,NA,NA,NA,NA,NA,NA,NA,NA,NA,NA,NA,NA,NA,NA,NA,NA,NA,NA,NA,NA,NA,NA,NA,NA,NA,NA,NA,NA,NA,NA,NA,NA,NA,NA,NA,NA,NA,NA,NA,10,0,10,0,1
SUPAMT83768,3TEM0PF1QBW8IRVDU9K956CZOQRD02,4D0281F4-7582-48E1-A518-4ECBA2BDA2A6,2023-09-29_08h31.34.510,WP_VExplicitOC_LH,2022.2.5,Win32,15.54943944,100,4.8081,2.0415,NA,NA,NA,NA,NA,frustrated,"frustrated, not frustrated","more frustrated, less frustrated",NA,NA,NA,NA,NA,NA,NA,NA,NA,NA,NA,NA,NA,NA,NA,NA,NA,NA,NA,NA,NA,NA,NA,NA,NA,NA,NA,NA,NA,NA,NA,NA,NA,NA,NA,NA,NA,NA,0,0,0,1,1,NA,NA,NA,NA,NA
SUPAMT83768,3TEM0PF1QBW8IRVDU9K956CZOQRD02,4D0281F4-7582-48E1-A518-4ECBA2BDA2A6,2023-09-29_08h31.34.510,WP_VExplicitOC_LH,2022.2.5,Win32,15.54943944,100,3.840900001,2.0364,NA,NA,NA,NA,NA,happy,"unhappy, happy","less happy, more happy",NA,NA,NA,NA,NA,NA,NA,NA,NA,NA,NA,NA,NA,NA,NA,NA,NA,NA,NA,NA,NA,NA,NA,NA,NA,NA,NA,NA,NA,NA,NA,NA,NA,NA,NA,NA,NA,NA,0,1,1,0,1,NA,NA,NA,NA,NA
SUPAMT83768,3TEM0PF1QBW8IRVDU9K956CZOQRD02,4D0281F4-7582-48E1-A518-4ECBA2BDA2A6,2023-09-29_08h31.34.510,WP_VExplicitOC_LH,2022.2.5,Win32,15.54943944,100,3.9088,2.0168,NA,NA,NA,NA,NA,bored,"bored, not bored","more bored, less bored",NA,NA,NA,NA,NA,NA,NA,NA,NA,NA,NA,NA,NA,NA,NA,NA,NA,NA,NA,NA,NA,NA,NA,NA,NA,NA,NA,NA,NA,NA,NA,NA,NA,NA,NA,NA,NA,NA,0,2,2,2,1,NA,NA,NA,NA,NA
SUPAMT83768,3TEM0PF1QBW8IRVDU9K956CZOQRD02,4D0281F4-7582-48E1-A518-4ECBA2BDA2A6,2023-09-29_08h31.34.510,WP_VExplicitOC_LH,2022.2.5,Win32,15.54943944,NA,NA,NA,NA,NA,NA,NA,NA,NA,NA,NA,NA,NA,NA,NA,NA,NA,NA,NA,NA,NA,NA,NA,NA,NA,NA,NA,NA,NA,NA,NA,NA,NA,NA,NA,NA,NA,NA,NA,NA,NA,NA,NA,NA,NA,NA,NA,NA,NA,NA,NA,NA,NA,NA,11,0,11,0,1
SUPAMT83768,3TEM0PF1QBW8IRVDU9K956CZOQRD02,4D0281F4-7582-48E1-A518-4ECBA2BDA2A6,2023-09-29_08h31.34.510,WP_VExplicitOC_LH,2022.2.5,Win32,15.54943944,100,3.8669,2.0679,NA,NA,NA,NA,NA,bored,"bored, not bored","more bored, less bored",NA,NA,NA,NA,NA,NA,NA,NA,NA,NA,NA,NA,NA,NA,NA,NA,NA,NA,NA,NA,NA,NA,NA,NA,NA,NA,NA,NA,NA,NA,NA,NA,NA,NA,NA,NA,NA,NA,0,0,0,2,1,NA,NA,NA,NA,NA
SUPAMT83768,3TEM0PF1QBW8IRVDU9K956CZOQRD02,4D0281F4-7582-48E1-A518-4ECBA2BDA2A6,2023-09-29_08h31.34.510,WP_VExplicitOC_LH,2022.2.5,Win32,15.54943944,100,3.6518,2.022,NA,NA,NA,NA,NA,frustrated,"frustrated, not frustrated","more frustrated, less frustrated",NA,NA,NA,NA,NA,NA,NA,NA,NA,NA,NA,NA,NA,NA,NA,NA,NA,NA,NA,NA,NA,NA,NA,NA,NA,NA,NA,NA,NA,NA,NA,NA,NA,NA,NA,NA,NA,NA,0,1,1,1,1,NA,NA,NA,NA,NA
SUPAMT83768,3TEM0PF1QBW8IRVDU9K956CZOQRD02,4D0281F4-7582-48E1-A518-4ECBA2BDA2A6,2023-09-29_08h31.34.510,WP_VExplicitOC_LH,2022.2.5,Win32,15.54943944,100,3.4634,2.0514,NA,NA,NA,NA,NA,happy,"unhappy, happy","less happy, more happy",NA,NA,NA,NA,NA,NA,NA,NA,NA,NA,NA,NA,NA,NA,NA,NA,NA,NA,NA,NA,NA,NA,NA,NA,NA,NA,NA,NA,NA,NA,NA,NA,NA,NA,NA,NA,NA,NA,0,2,2,0,1,NA,NA,NA,NA,NA
SUPAMT83768,3TEM0PF1QBW8IRVDU9K956CZOQRD02,4D0281F4-7582-48E1-A518-4ECBA2BDA2A6,2023-09-29_08h31.34.510,WP_VExplicitOC_LH,2022.2.5,Win32,15.54943944,NA,NA,NA,NA,NA,NA,NA,NA,NA,NA,NA,NA,NA,NA,NA,NA,NA,NA,NA,NA,NA,NA,NA,NA,NA,NA,NA,NA,NA,NA,NA,NA,NA,NA,NA,NA,NA,NA,NA,NA,NA,NA,NA,NA,NA,NA,NA,NA,NA,NA,NA,NA,NA,NA,12,0,12,0,1
SUPAMT83768,3TEM0PF1QBW8IRVDU9K956CZOQRD02,4D0281F4-7582-48E1-A518-4ECBA2BDA2A6,2023-09-29_08h31.34.510,WP_VExplicitOC_LH,2022.2.5,Win32,15.54943944,100,3.9088,2.0639,NA,NA,NA,NA,NA,bored,"bored, not bored","more bored, less bored",NA,NA,NA,NA,NA,NA,NA,NA,NA,NA,NA,NA,NA,NA,NA,NA,NA,NA,NA,NA,NA,NA,NA,NA,NA,NA,NA,NA,NA,NA,NA,NA,NA,NA,NA,NA,NA,NA,0,0,0,2,1,NA,NA,NA,NA,NA
SUPAMT83768,3TEM0PF1QBW8IRVDU9K956CZOQRD02,4D0281F4-7582-48E1-A518-4ECBA2BDA2A6,2023-09-29_08h31.34.510,WP_VExplicitOC_LH,2022.2.5,Win32,15.54943944,100,4.217099999,2.0504,NA,NA,NA,NA,NA,frustrated,"frustrated, not frustrated","more frustrated, less frustrated",NA,NA,NA,NA,NA,NA,NA,NA,NA,NA,NA,NA,NA,NA,NA,NA,NA,NA,NA,NA,NA,NA,NA,NA,NA,NA,NA,NA,NA,NA,NA,NA,NA,NA,NA,NA,NA,NA,0,1,1,1,1,NA,NA,NA,NA,NA
SUPAMT83768,3TEM0PF1QBW8IRVDU9K956CZOQRD02,4D0281F4-7582-48E1-A518-4ECBA2BDA2A6,2023-09-29_08h31.34.510,WP_VExplicitOC_LH,2022.2.5,Win32,15.54943944,100,3.8777,2.0115,NA,NA,NA,NA,NA,happy,"unhappy, happy","less happy, more happy",NA,NA,NA,NA,NA,NA,NA,NA,NA,NA,NA,NA,NA,NA,NA,NA,NA,NA,NA,NA,NA,NA,NA,NA,NA,NA,NA,NA,NA,NA,NA,NA,NA,NA,NA,NA,NA,NA,0,2,2,0,1,NA,NA,NA,NA,NA
SUPAMT83768,3TEM0PF1QBW8IRVDU9K956CZOQRD02,4D0281F4-7582-48E1-A518-4ECBA2BDA2A6,2023-09-29_08h31.34.510,WP_VExplicitOC_LH,2022.2.5,Win32,15.54943944,NA,NA,NA,NA,NA,NA,NA,NA,NA,NA,NA,NA,NA,NA,NA,NA,NA,NA,NA,NA,NA,NA,NA,NA,NA,NA,NA,NA,NA,NA,NA,NA,NA,NA,NA,NA,NA,NA,NA,NA,NA,NA,NA,NA,NA,NA,NA,NA,NA,NA,NA,NA,NA,NA,13,0,13,0,1
SUPAMT83768,3TEM0PF1QBW8IRVDU9K956CZOQRD02,4D0281F4-7582-48E1-A518-4ECBA2BDA2A6,2023-09-29_08h31.34.510,WP_VExplicitOC_LH,2022.2.5,Win32,15.54943944,100,3.585900001,2.009400001,NA,NA,NA,NA,NA,frustrated,"frustrated, not frustrated","more frustrated, less frustrated",NA,NA,NA,NA,NA,NA,NA,NA,NA,NA,NA,NA,NA,NA,NA,NA,NA,NA,NA,NA,NA,NA,NA,NA,NA,NA,NA,NA,NA,NA,NA,NA,NA,NA,NA,NA,NA,NA,0,0,0,1,1,NA,NA,NA,NA,NA
SUPAMT83768,3TEM0PF1QBW8IRVDU9K956CZOQRD02,4D0281F4-7582-48E1-A518-4ECBA2BDA2A6,2023-09-29_08h31.34.510,WP_VExplicitOC_LH,2022.2.5,Win32,15.54943944,100,3.3588,2.0054,NA,NA,NA,NA,NA,happy,"unhappy, happy","less happy, more happy",NA,NA,NA,NA,NA,NA,NA,NA,NA,NA,NA,NA,NA,NA,NA,NA,NA,NA,NA,NA,NA,NA,NA,NA,NA,NA,NA,NA,NA,NA,NA,NA,NA,NA,NA,NA,NA,NA,0,1,1,0,1,NA,NA,NA,NA,NA
SUPAMT83768,3TEM0PF1QBW8IRVDU9K956CZOQRD02,4D0281F4-7582-48E1-A518-4ECBA2BDA2A6,2023-09-29_08h31.34.510,WP_VExplicitOC_LH,2022.2.5,Win32,15.54943944,100,3.6969,2.0464,NA,NA,NA,NA,NA,bored,"bored, not bored","more bored, less bored",NA,NA,NA,NA,NA,NA,NA,NA,NA,NA,NA,NA,NA,NA,NA,NA,NA,NA,NA,NA,NA,NA,NA,NA,NA,NA,NA,NA,NA,NA,NA,NA,NA,NA,NA,NA,NA,NA,0,2,2,2,1,NA,NA,NA,NA,NA
SUPAMT83768,3TEM0PF1QBW8IRVDU9K956CZOQRD02,4D0281F4-7582-48E1-A518-4ECBA2BDA2A6,2023-09-29_08h31.34.510,WP_VExplicitOC_LH,2022.2.5,Win32,15.54943944,NA,NA,NA,NA,NA,NA,NA,NA,NA,NA,NA,NA,NA,NA,NA,NA,NA,NA,NA,NA,NA,NA,NA,NA,NA,NA,NA,NA,NA,NA,NA,NA,NA,NA,NA,NA,NA,NA,NA,NA,NA,NA,NA,NA,NA,NA,NA,NA,NA,NA,NA,NA,NA,NA,14,0,14,0,1
SUPAMT83768,3TEM0PF1QBW8IRVDU9K956CZOQRD02,4D0281F4-7582-48E1-A518-4ECBA2BDA2A6,2023-09-29_08h31.34.510,WP_VExplicitOC_LH,2022.2.5,Win32,15.54943944,NA,NA,NA,NA,NA,NA,NA,NA,NA,NA,NA,NA,NA,NA,NA,NA,NA,NA,NA,NA,NA,NA,NA,NA,NA,NA,NA,NA,NA,NA,NA,NA,NA,NA,NA,NA,NA,NA,NA,NA,NA,NA,NA,NA,NA,NA,NA,NA,NA,NA,NA,NA,NA,NA,NA,NA,NA,NA,NA
