participant,session,completion,date,expName,psychopyVersion,OS,frameRate,rating_all.response,rating_all.rt,rating_all.tStart,rndRat1.thisRepN,rndRat1.thisTrialN,rndRat1.thisN,rndRat1.thisIndex,rndRat1.ran,Emo,Labs,Labs2,rating_alt.response,rating_alt.rt,AltC.thisRepN,AltC.thisTrialN,AltC.thisN,AltC.thisIndex,AltC.ran,alt_choices,pic_choices,BottomAlt_Choice,rndRat2.thisRepN,rndRat2.thisTrialN,rndRat2.thisN,rndRat2.thisIndex,rndRat2.ran,rndRat3.thisRepN,rndRat3.thisTrialN,rndRat3.thisN,rndRat3.thisIndex,rndRat3.ran,trials_FC_L.thisRepN,trials_FC_L.thisTrialN,trials_FC_L.thisN,trials_FC_L.thisIndex,trials_FC_L.ran,rating_alt_2.response,rating_alt_2.rt,AltC2.thisRepN,AltC2.thisTrialN,AltC2.thisN,AltC2.thisIndex,AltC2.ran,TopAlt_Choice,rndRat4.thisRepN,rndRat4.thisTrialN,rndRat4.thisN,rndRat4.thisIndex,rndRat4.ran,rndRat5.thisRepN,rndRat5.thisTrialN,rndRat5.thisN,rndRat5.thisIndex,rndRat5.ran,trials_FC_H.thisRepN,trials_FC_H.thisTrialN,trials_FC_H.thisN,trials_FC_H.thisIndex,trials_FC_H.ran
SUPAMT21062,3WMINLGALH2UECNHMFMRA66UC1DACQ,0F8C2C7B-B9B1-47A8-ADC4-C899E24AAFEC,2023-09-27_13h21.11.620,WP_VExplicitOC_LH,2022.2.5,Win32,16.40043297,NA,NA,NA,NA,NA,NA,NA,NA,NA,NA,NA,NA,NA,NA,NA,NA,NA,NA,NA,NA,NA,NA,NA,NA,NA,NA,NA,NA,NA,NA,NA,NA,NA,NA,NA,NA,NA,NA,NA,NA,NA,NA,NA,NA,NA,NA,NA,NA,NA,NA,NA,NA,NA,NA,NA,NA,NA,NA,NA
SUPAMT21062,3WMINLGALH2UECNHMFMRA66UC1DACQ,0F8C2C7B-B9B1-47A8-ADC4-C899E24AAFEC,2023-09-27_13h21.11.620,WP_VExplicitOC_LH,2022.2.5,Win32,16.40043297,NA,NA,NA,NA,NA,NA,NA,NA,NA,NA,NA,NA,NA,NA,NA,NA,NA,NA,NA,NA,NA,NA,NA,NA,NA,NA,NA,NA,NA,NA,NA,NA,NA,NA,NA,NA,NA,NA,NA,NA,NA,NA,NA,NA,NA,NA,NA,NA,NA,NA,NA,NA,NA,NA,NA,NA,NA,NA,NA
SUPAMT21062,3WMINLGALH2UECNHMFMRA66UC1DACQ,0F8C2C7B-B9B1-47A8-ADC4-C899E24AAFEC,2023-09-27_13h21.11.620,WP_VExplicitOC_LH,2022.2.5,Win32,16.40043297,NA,NA,NA,NA,NA,NA,NA,NA,NA,NA,NA,NA,NA,NA,NA,NA,NA,NA,NA,NA,NA,NA,NA,NA,NA,NA,NA,NA,NA,NA,NA,NA,NA,NA,NA,NA,NA,NA,NA,NA,NA,NA,NA,NA,NA,NA,NA,NA,NA,NA,NA,NA,NA,NA,NA,NA,NA,NA,NA
SUPAMT21062,3WMINLGALH2UECNHMFMRA66UC1DACQ,0F8C2C7B-B9B1-47A8-ADC4-C899E24AAFEC,2023-09-27_13h21.11.620,WP_VExplicitOC_LH,2022.2.5,Win32,16.40043297,18.48958333,3.8376,2.0471,0,0,0,0,1,happy,"unhappy, happy","less happy, more happy",NA,NA,NA,NA,NA,NA,NA,NA,NA,NA,NA,NA,NA,NA,NA,NA,NA,NA,NA,NA,NA,NA,NA,NA,NA,NA,NA,NA,NA,NA,NA,NA,NA,NA,NA,NA,NA,NA,NA,NA,NA,NA,NA,NA,NA,NA,NA,NA
SUPAMT21062,3WMINLGALH2UECNHMFMRA66UC1DACQ,0F8C2C7B-B9B1-47A8-ADC4-C899E24AAFEC,2023-09-27_13h21.11.620,WP_VExplicitOC_LH,2022.2.5,Win32,16.40043297,41.40625,3.5771,2.0696,0,1,1,2,1,bored,"bored, not bored","more bored, less bored",NA,NA,NA,NA,NA,NA,NA,NA,NA,NA,NA,NA,NA,NA,NA,NA,NA,NA,NA,NA,NA,NA,NA,NA,NA,NA,NA,NA,NA,NA,NA,NA,NA,NA,NA,NA,NA,NA,NA,NA,NA,NA,NA,NA,NA,NA,NA,NA
SUPAMT21062,3WMINLGALH2UECNHMFMRA66UC1DACQ,0F8C2C7B-B9B1-47A8-ADC4-C899E24AAFEC,2023-09-27_13h21.11.620,WP_VExplicitOC_LH,2022.2.5,Win32,16.40043297,26.5625,4.5355,2.1215,0,2,2,1,1,frustrated,"frustrated, not frustrated","more frustrated, less frustrated",NA,NA,NA,NA,NA,NA,NA,NA,NA,NA,NA,NA,NA,NA,NA,NA,NA,NA,NA,NA,NA,NA,NA,NA,NA,NA,NA,NA,NA,NA,NA,NA,NA,NA,NA,NA,NA,NA,NA,NA,NA,NA,NA,NA,NA,NA,NA,NA
SUPAMT21062,3WMINLGALH2UECNHMFMRA66UC1DACQ,0F8C2C7B-B9B1-47A8-ADC4-C899E24AAFEC,2023-09-27_13h21.11.620,WP_VExplicitOC_LH,2022.2.5,Win32,16.40043297,NA,NA,NA,NA,NA,NA,NA,NA,NA,NA,NA,NA,NA,NA,NA,NA,NA,NA,NA,NA,NA,NA,NA,NA,NA,NA,NA,NA,NA,NA,NA,NA,NA,NA,NA,NA,NA,NA,NA,NA,NA,NA,NA,NA,NA,NA,NA,NA,NA,NA,NA,NA,NA,NA,NA,NA,NA,NA,NA
SUPAMT21062,3WMINLGALH2UECNHMFMRA66UC1DACQ,0F8C2C7B-B9B1-47A8-ADC4-C899E24AAFEC,2023-09-27_13h21.11.620,WP_VExplicitOC_LH,2022.2.5,Win32,16.40043297,NA,NA,NA,NA,NA,NA,NA,NA,NA,NA,NA,NA,NA,NA,NA,NA,NA,NA,NA,NA,NA,NA,NA,NA,NA,NA,NA,NA,NA,NA,NA,NA,NA,NA,NA,NA,NA,NA,NA,NA,NA,NA,NA,NA,NA,NA,NA,NA,NA,NA,NA,NA,NA,NA,NA,NA,NA,NA,NA
SUPAMT21062,3WMINLGALH2UECNHMFMRA66UC1DACQ,0F8C2C7B-B9B1-47A8-ADC4-C899E24AAFEC,2023-09-27_13h21.11.620,WP_VExplicitOC_LH,2022.2.5,Win32,16.40043297,NA,NA,NA,NA,NA,NA,NA,NA,NA,NA,NA,NA,NA,NA,NA,NA,NA,NA,NA,NA,NA,NA,NA,NA,NA,NA,NA,NA,NA,NA,NA,NA,NA,NA,NA,NA,NA,NA,NA,NA,NA,NA,NA,NA,NA,NA,NA,NA,NA,NA,NA,NA,NA,NA,NA,NA,NA,NA,NA
SUPAMT21062,3WMINLGALH2UECNHMFMRA66UC1DACQ,0F8C2C7B-B9B1-47A8-ADC4-C899E24AAFEC,2023-09-27_13h21.11.620,WP_VExplicitOC_LH,2022.2.5,Win32,16.40043297,NA,NA,NA,NA,NA,NA,NA,NA,NA,NA,NA,NA,NA,NA,NA,NA,NA,NA,NA,NA,NA,NA,NA,NA,NA,NA,NA,NA,NA,NA,NA,NA,NA,NA,NA,NA,NA,NA,NA,NA,NA,NA,NA,NA,NA,NA,NA,NA,NA,NA,NA,NA,NA,NA,NA,NA,NA,NA,NA
SUPAMT21062,3WMINLGALH2UECNHMFMRA66UC1DACQ,0F8C2C7B-B9B1-47A8-ADC4-C899E24AAFEC,2023-09-27_13h21.11.620,WP_VExplicitOC_LH,2022.2.5,Win32,16.40043297,NA,NA,NA,NA,NA,NA,NA,NA,NA,NA,NA,-51.30208333,1.8897,0,0,0,0,1,rest (looking at a fixed cross),001.png,NA,NA,NA,NA,NA,NA,NA,NA,NA,NA,NA,NA,NA,NA,NA,NA,NA,NA,NA,NA,NA,NA,NA,NA,NA,NA,NA,NA,NA,NA,NA,NA,NA,NA,NA,NA,NA,NA,NA
SUPAMT21062,3WMINLGALH2UECNHMFMRA66UC1DACQ,0F8C2C7B-B9B1-47A8-ADC4-C899E24AAFEC,2023-09-27_13h21.11.620,WP_VExplicitOC_LH,2022.2.5,Win32,16.40043297,NA,NA,NA,NA,NA,NA,NA,NA,NA,NA,NA,31.51041667,2.0543,0,1,1,1,1,stand up,002.png,NA,NA,NA,NA,NA,NA,NA,NA,NA,NA,NA,NA,NA,NA,NA,NA,NA,NA,NA,NA,NA,NA,NA,NA,NA,NA,NA,NA,NA,NA,NA,NA,NA,NA,NA,NA,NA,NA,NA
SUPAMT21062,3WMINLGALH2UECNHMFMRA66UC1DACQ,0F8C2C7B-B9B1-47A8-ADC4-C899E24AAFEC,2023-09-27_13h21.11.620,WP_VExplicitOC_LH,2022.2.5,Win32,16.40043297,NA,NA,NA,NA,NA,NA,NA,NA,NA,NA,NA,40.88541667,1.4441,0,2,2,2,1,stretch,003.png,NA,NA,NA,NA,NA,NA,NA,NA,NA,NA,NA,NA,NA,NA,NA,NA,NA,NA,NA,NA,NA,NA,NA,NA,NA,NA,NA,NA,NA,NA,NA,NA,NA,NA,NA,NA,NA,NA,NA
SUPAMT21062,3WMINLGALH2UECNHMFMRA66UC1DACQ,0F8C2C7B-B9B1-47A8-ADC4-C899E24AAFEC,2023-09-27_13h21.11.620,WP_VExplicitOC_LH,2022.2.5,Win32,16.40043297,NA,NA,NA,NA,NA,NA,NA,NA,NA,NA,NA,74.47916667,1.5818,0,3,3,3,1,make a drink,004.png,NA,NA,NA,NA,NA,NA,NA,NA,NA,NA,NA,NA,NA,NA,NA,NA,NA,NA,NA,NA,NA,NA,NA,NA,NA,NA,NA,NA,NA,NA,NA,NA,NA,NA,NA,NA,NA,NA,NA
SUPAMT21062,3WMINLGALH2UECNHMFMRA66UC1DACQ,0F8C2C7B-B9B1-47A8-ADC4-C899E24AAFEC,2023-09-27_13h21.11.620,WP_VExplicitOC_LH,2022.2.5,Win32,16.40043297,NA,NA,NA,NA,NA,NA,NA,NA,NA,NA,NA,81.51041667,1.6339,0,4,4,4,1,scroll social media,005.png,NA,NA,NA,NA,NA,NA,NA,NA,NA,NA,NA,NA,NA,NA,NA,NA,NA,NA,NA,NA,NA,NA,NA,NA,NA,NA,NA,NA,NA,NA,NA,NA,NA,NA,NA,NA,NA,NA,NA
SUPAMT21062,3WMINLGALH2UECNHMFMRA66UC1DACQ,0F8C2C7B-B9B1-47A8-ADC4-C899E24AAFEC,2023-09-27_13h21.11.620,WP_VExplicitOC_LH,2022.2.5,Win32,16.40043297,NA,NA,NA,NA,NA,NA,NA,NA,NA,NA,NA,93.22916667,1.482,0,5,5,5,1,listen to music,006.png,NA,NA,NA,NA,NA,NA,NA,NA,NA,NA,NA,NA,NA,NA,NA,NA,NA,NA,NA,NA,NA,NA,NA,NA,NA,NA,NA,NA,NA,NA,NA,NA,NA,NA,NA,NA,NA,NA,NA
SUPAMT21062,3WMINLGALH2UECNHMFMRA66UC1DACQ,0F8C2C7B-B9B1-47A8-ADC4-C899E24AAFEC,2023-09-27_13h21.11.620,WP_VExplicitOC_LH,2022.2.5,Win32,16.40043297,NA,NA,NA,NA,NA,NA,NA,NA,NA,NA,NA,81.51041667,1.553,0,6,6,6,1,daydream,007.png,NA,NA,NA,NA,NA,NA,NA,NA,NA,NA,NA,NA,NA,NA,NA,NA,NA,NA,NA,NA,NA,NA,NA,NA,NA,NA,NA,NA,NA,NA,NA,NA,NA,NA,NA,NA,NA,NA,NA
SUPAMT21062,3WMINLGALH2UECNHMFMRA66UC1DACQ,0F8C2C7B-B9B1-47A8-ADC4-C899E24AAFEC,2023-09-27_13h21.11.620,WP_VExplicitOC_LH,2022.2.5,Win32,16.40043297,NA,NA,NA,NA,NA,NA,NA,NA,NA,NA,NA,66.40625,1.6248,0,7,7,7,1,watch a short animation,008.png,NA,NA,NA,NA,NA,NA,NA,NA,NA,NA,NA,NA,NA,NA,NA,NA,NA,NA,NA,NA,NA,NA,NA,NA,NA,NA,NA,NA,NA,NA,NA,NA,NA,NA,NA,NA,NA,NA,NA
SUPAMT21062,3WMINLGALH2UECNHMFMRA66UC1DACQ,0F8C2C7B-B9B1-47A8-ADC4-C899E24AAFEC,2023-09-27_13h21.11.620,WP_VExplicitOC_LH,2022.2.5,Win32,16.40043297,NA,NA,NA,NA,NA,NA,NA,NA,NA,NA,NA,65.88541667,1.6628,0,8,8,8,1,read a novel,009.png,NA,NA,NA,NA,NA,NA,NA,NA,NA,NA,NA,NA,NA,NA,NA,NA,NA,NA,NA,NA,NA,NA,NA,NA,NA,NA,NA,NA,NA,NA,NA,NA,NA,NA,NA,NA,NA,NA,NA
SUPAMT21062,3WMINLGALH2UECNHMFMRA66UC1DACQ,0F8C2C7B-B9B1-47A8-ADC4-C899E24AAFEC,2023-09-27_13h21.11.620,WP_VExplicitOC_LH,2022.2.5,Win32,16.40043297,NA,NA,NA,NA,NA,NA,NA,NA,NA,NA,NA,90.10416667,1.5467,0,9,9,9,1,read the news,010.png,NA,NA,NA,NA,NA,NA,NA,NA,NA,NA,NA,NA,NA,NA,NA,NA,NA,NA,NA,NA,NA,NA,NA,NA,NA,NA,NA,NA,NA,NA,NA,NA,NA,NA,NA,NA,NA,NA,NA
SUPAMT21062,3WMINLGALH2UECNHMFMRA66UC1DACQ,0F8C2C7B-B9B1-47A8-ADC4-C899E24AAFEC,2023-09-27_13h21.11.620,WP_VExplicitOC_LH,2022.2.5,Win32,16.40043297,NA,NA,NA,NA,NA,NA,NA,NA,NA,NA,NA,NA,NA,NA,NA,NA,NA,NA,NA,NA,NA,NA,NA,NA,NA,NA,NA,NA,NA,NA,NA,NA,NA,NA,NA,NA,NA,NA,NA,NA,NA,NA,NA,NA,NA,NA,NA,NA,NA,NA,NA,NA,NA,NA,NA,NA,NA,NA,NA
SUPAMT21062,3WMINLGALH2UECNHMFMRA66UC1DACQ,0F8C2C7B-B9B1-47A8-ADC4-C899E24AAFEC,2023-09-27_13h21.11.620,WP_VExplicitOC_LH,2022.2.5,Win32,16.40043297,NA,NA,NA,NA,NA,NA,NA,NA,NA,NA,NA,NA,NA,NA,NA,NA,NA,NA,NA,NA,stand up,NA,NA,NA,NA,NA,NA,NA,NA,NA,NA,NA,NA,NA,NA,NA,NA,NA,NA,NA,NA,NA,NA,NA,NA,NA,NA,NA,NA,NA,NA,NA,NA,NA,NA,NA,NA,NA,NA
SUPAMT21062,3WMINLGALH2UECNHMFMRA66UC1DACQ,0F8C2C7B-B9B1-47A8-ADC4-C899E24AAFEC,2023-09-27_13h21.11.620,WP_VExplicitOC_LH,2022.2.5,Win32,16.40043297,48.17708333,7.0165,2.0257,NA,NA,NA,NA,NA,happy,"unhappy, happy","less happy, more happy",NA,NA,NA,NA,NA,NA,NA,NA,NA,NA,0,0,0,0,1,NA,NA,NA,NA,NA,NA,NA,NA,NA,NA,NA,NA,NA,NA,NA,NA,NA,NA,NA,NA,NA,NA,NA,NA,NA,NA,NA,NA,NA,NA,NA,NA,NA
SUPAMT21062,3WMINLGALH2UECNHMFMRA66UC1DACQ,0F8C2C7B-B9B1-47A8-ADC4-C899E24AAFEC,2023-09-27_13h21.11.620,WP_VExplicitOC_LH,2022.2.5,Win32,16.40043297,39.0625,4.8823,2.1554,NA,NA,NA,NA,NA,frustrated,"frustrated, not frustrated","more frustrated, less frustrated",NA,NA,NA,NA,NA,NA,NA,NA,NA,NA,0,1,1,1,1,NA,NA,NA,NA,NA,NA,NA,NA,NA,NA,NA,NA,NA,NA,NA,NA,NA,NA,NA,NA,NA,NA,NA,NA,NA,NA,NA,NA,NA,NA,NA,NA,NA
SUPAMT21062,3WMINLGALH2UECNHMFMRA66UC1DACQ,0F8C2C7B-B9B1-47A8-ADC4-C899E24AAFEC,2023-09-27_13h21.11.620,WP_VExplicitOC_LH,2022.2.5,Win32,16.40043297,13.80208333,3.4314,2.0767,NA,NA,NA,NA,NA,bored,"bored, not bored","more bored, less bored",NA,NA,NA,NA,NA,NA,NA,NA,NA,NA,0,2,2,2,1,NA,NA,NA,NA,NA,NA,NA,NA,NA,NA,NA,NA,NA,NA,NA,NA,NA,NA,NA,NA,NA,NA,NA,NA,NA,NA,NA,NA,NA,NA,NA,NA,NA
SUPAMT21062,3WMINLGALH2UECNHMFMRA66UC1DACQ,0F8C2C7B-B9B1-47A8-ADC4-C899E24AAFEC,2023-09-27_13h21.11.620,WP_VExplicitOC_LH,2022.2.5,Win32,16.40043297,NA,NA,NA,NA,NA,NA,NA,NA,NA,NA,NA,NA,NA,NA,NA,NA,NA,NA,NA,NA,NA,NA,NA,NA,NA,NA,NA,NA,NA,NA,NA,NA,NA,NA,NA,NA,NA,NA,NA,NA,NA,NA,NA,NA,NA,NA,NA,NA,NA,NA,NA,NA,NA,NA,NA,NA,NA,NA,NA
SUPAMT21062,3WMINLGALH2UECNHMFMRA66UC1DACQ,0F8C2C7B-B9B1-47A8-ADC4-C899E24AAFEC,2023-09-27_13h21.11.620,WP_VExplicitOC_LH,2022.2.5,Win32,16.40043297,NA,NA,NA,NA,NA,NA,NA,NA,NA,NA,NA,NA,NA,NA,NA,NA,NA,NA,NA,NA,NA,NA,NA,NA,NA,NA,NA,NA,NA,NA,NA,NA,NA,NA,NA,NA,NA,NA,NA,NA,NA,NA,NA,NA,NA,NA,NA,NA,NA,NA,NA,NA,NA,NA,NA,NA,NA,NA,NA
SUPAMT21062,3WMINLGALH2UECNHMFMRA66UC1DACQ,0F8C2C7B-B9B1-47A8-ADC4-C899E24AAFEC,2023-09-27_13h21.11.620,WP_VExplicitOC_LH,2022.2.5,Win32,16.40043297,44.01041667,3.505,2.0393,NA,NA,NA,NA,NA,bored,"bored, not bored","more bored, less bored",NA,NA,NA,NA,NA,NA,NA,NA,NA,NA,NA,NA,NA,NA,NA,0,0,0,2,1,NA,NA,NA,NA,NA,NA,NA,NA,NA,NA,NA,NA,NA,NA,NA,NA,NA,NA,NA,NA,NA,NA,NA,NA,NA,NA,NA,NA
SUPAMT21062,3WMINLGALH2UECNHMFMRA66UC1DACQ,0F8C2C7B-B9B1-47A8-ADC4-C899E24AAFEC,2023-09-27_13h21.11.620,WP_VExplicitOC_LH,2022.2.5,Win32,16.40043297,43.48958333,3.5182,2.1646,NA,NA,NA,NA,NA,happy,"unhappy, happy","less happy, more happy",NA,NA,NA,NA,NA,NA,NA,NA,NA,NA,NA,NA,NA,NA,NA,0,1,1,0,1,NA,NA,NA,NA,NA,NA,NA,NA,NA,NA,NA,NA,NA,NA,NA,NA,NA,NA,NA,NA,NA,NA,NA,NA,NA,NA,NA,NA
SUPAMT21062,3WMINLGALH2UECNHMFMRA66UC1DACQ,0F8C2C7B-B9B1-47A8-ADC4-C899E24AAFEC,2023-09-27_13h21.11.620,WP_VExplicitOC_LH,2022.2.5,Win32,16.40043297,48.95833333,3.2098,2.0023,NA,NA,NA,NA,NA,frustrated,"frustrated, not frustrated","more frustrated, less frustrated",NA,NA,NA,NA,NA,NA,NA,NA,NA,NA,NA,NA,NA,NA,NA,0,2,2,1,1,NA,NA,NA,NA,NA,NA,NA,NA,NA,NA,NA,NA,NA,NA,NA,NA,NA,NA,NA,NA,NA,NA,NA,NA,NA,NA,NA,NA
SUPAMT21062,3WMINLGALH2UECNHMFMRA66UC1DACQ,0F8C2C7B-B9B1-47A8-ADC4-C899E24AAFEC,2023-09-27_13h21.11.620,WP_VExplicitOC_LH,2022.2.5,Win32,16.40043297,NA,NA,NA,NA,NA,NA,NA,NA,NA,NA,NA,NA,NA,NA,NA,NA,NA,NA,NA,NA,NA,NA,NA,NA,NA,NA,NA,NA,NA,NA,NA,0,0,0,0,1,NA,NA,NA,NA,NA,NA,NA,NA,NA,NA,NA,NA,NA,NA,NA,NA,NA,NA,NA,NA,NA,NA,NA
SUPAMT21062,3WMINLGALH2UECNHMFMRA66UC1DACQ,0F8C2C7B-B9B1-47A8-ADC4-C899E24AAFEC,2023-09-27_13h21.11.620,WP_VExplicitOC_LH,2022.2.5,Win32,16.40043297,71.875,3.8656,2.0813,NA,NA,NA,NA,NA,happy,"unhappy, happy","less happy, more happy",NA,NA,NA,NA,NA,NA,NA,NA,NA,NA,NA,NA,NA,NA,NA,0,0,0,0,1,NA,NA,NA,NA,NA,NA,NA,NA,NA,NA,NA,NA,NA,NA,NA,NA,NA,NA,NA,NA,NA,NA,NA,NA,NA,NA,NA,NA
SUPAMT21062,3WMINLGALH2UECNHMFMRA66UC1DACQ,0F8C2C7B-B9B1-47A8-ADC4-C899E24AAFEC,2023-09-27_13h21.11.620,WP_VExplicitOC_LH,2022.2.5,Win32,16.40043297,63.54166667,3.4883,2.008,NA,NA,NA,NA,NA,frustrated,"frustrated, not frustrated","more frustrated, less frustrated",NA,NA,NA,NA,NA,NA,NA,NA,NA,NA,NA,NA,NA,NA,NA,0,1,1,1,1,NA,NA,NA,NA,NA,NA,NA,NA,NA,NA,NA,NA,NA,NA,NA,NA,NA,NA,NA,NA,NA,NA,NA,NA,NA,NA,NA,NA
SUPAMT21062,3WMINLGALH2UECNHMFMRA66UC1DACQ,0F8C2C7B-B9B1-47A8-ADC4-C899E24AAFEC,2023-09-27_13h21.11.620,WP_VExplicitOC_LH,2022.2.5,Win32,16.40043297,64.58333333,4.0516,2.102,NA,NA,NA,NA,NA,bored,"bored, not bored","more bored, less bored",NA,NA,NA,NA,NA,NA,NA,NA,NA,NA,NA,NA,NA,NA,NA,0,2,2,2,1,NA,NA,NA,NA,NA,NA,NA,NA,NA,NA,NA,NA,NA,NA,NA,NA,NA,NA,NA,NA,NA,NA,NA,NA,NA,NA,NA,NA
SUPAMT21062,3WMINLGALH2UECNHMFMRA66UC1DACQ,0F8C2C7B-B9B1-47A8-ADC4-C899E24AAFEC,2023-09-27_13h21.11.620,WP_VExplicitOC_LH,2022.2.5,Win32,16.40043297,NA,NA,NA,NA,NA,NA,NA,NA,NA,NA,NA,NA,NA,NA,NA,NA,NA,NA,NA,NA,NA,NA,NA,NA,NA,NA,NA,NA,NA,NA,NA,1,0,1,0,1,NA,NA,NA,NA,NA,NA,NA,NA,NA,NA,NA,NA,NA,NA,NA,NA,NA,NA,NA,NA,NA,NA,NA
SUPAMT21062,3WMINLGALH2UECNHMFMRA66UC1DACQ,0F8C2C7B-B9B1-47A8-ADC4-C899E24AAFEC,2023-09-27_13h21.11.620,WP_VExplicitOC_LH,2022.2.5,Win32,16.40043297,50,3.6813,2.1591,NA,NA,NA,NA,NA,frustrated,"frustrated, not frustrated","more frustrated, less frustrated",NA,NA,NA,NA,NA,NA,NA,NA,NA,NA,NA,NA,NA,NA,NA,0,0,0,1,1,NA,NA,NA,NA,NA,NA,NA,NA,NA,NA,NA,NA,NA,NA,NA,NA,NA,NA,NA,NA,NA,NA,NA,NA,NA,NA,NA,NA
SUPAMT21062,3WMINLGALH2UECNHMFMRA66UC1DACQ,0F8C2C7B-B9B1-47A8-ADC4-C899E24AAFEC,2023-09-27_13h21.11.620,WP_VExplicitOC_LH,2022.2.5,Win32,16.40043297,45.57291667,3.6028,2.019,NA,NA,NA,NA,NA,happy,"unhappy, happy","less happy, more happy",NA,NA,NA,NA,NA,NA,NA,NA,NA,NA,NA,NA,NA,NA,NA,0,1,1,0,1,NA,NA,NA,NA,NA,NA,NA,NA,NA,NA,NA,NA,NA,NA,NA,NA,NA,NA,NA,NA,NA,NA,NA,NA,NA,NA,NA,NA
SUPAMT21062,3WMINLGALH2UECNHMFMRA66UC1DACQ,0F8C2C7B-B9B1-47A8-ADC4-C899E24AAFEC,2023-09-27_13h21.11.620,WP_VExplicitOC_LH,2022.2.5,Win32,16.40043297,57.55208333,3.8067,2.099,NA,NA,NA,NA,NA,bored,"bored, not bored","more bored, less bored",NA,NA,NA,NA,NA,NA,NA,NA,NA,NA,NA,NA,NA,NA,NA,0,2,2,2,1,NA,NA,NA,NA,NA,NA,NA,NA,NA,NA,NA,NA,NA,NA,NA,NA,NA,NA,NA,NA,NA,NA,NA,NA,NA,NA,NA,NA
SUPAMT21062,3WMINLGALH2UECNHMFMRA66UC1DACQ,0F8C2C7B-B9B1-47A8-ADC4-C899E24AAFEC,2023-09-27_13h21.11.620,WP_VExplicitOC_LH,2022.2.5,Win32,16.40043297,NA,NA,NA,NA,NA,NA,NA,NA,NA,NA,NA,NA,NA,NA,NA,NA,NA,NA,NA,NA,NA,NA,NA,NA,NA,NA,NA,NA,NA,NA,NA,2,0,2,0,1,NA,NA,NA,NA,NA,NA,NA,NA,NA,NA,NA,NA,NA,NA,NA,NA,NA,NA,NA,NA,NA,NA,NA
SUPAMT21062,3WMINLGALH2UECNHMFMRA66UC1DACQ,0F8C2C7B-B9B1-47A8-ADC4-C899E24AAFEC,2023-09-27_13h21.11.620,WP_VExplicitOC_LH,2022.2.5,Win32,16.40043297,62.5,3.5626,2.0586,NA,NA,NA,NA,NA,frustrated,"frustrated, not frustrated","more frustrated, less frustrated",NA,NA,NA,NA,NA,NA,NA,NA,NA,NA,NA,NA,NA,NA,NA,0,0,0,1,1,NA,NA,NA,NA,NA,NA,NA,NA,NA,NA,NA,NA,NA,NA,NA,NA,NA,NA,NA,NA,NA,NA,NA,NA,NA,NA,NA,NA
SUPAMT21062,3WMINLGALH2UECNHMFMRA66UC1DACQ,0F8C2C7B-B9B1-47A8-ADC4-C899E24AAFEC,2023-09-27_13h21.11.620,WP_VExplicitOC_LH,2022.2.5,Win32,16.40043297,58.33333333,3.6404,2.0311,NA,NA,NA,NA,NA,bored,"bored, not bored","more bored, less bored",NA,NA,NA,NA,NA,NA,NA,NA,NA,NA,NA,NA,NA,NA,NA,0,1,1,2,1,NA,NA,NA,NA,NA,NA,NA,NA,NA,NA,NA,NA,NA,NA,NA,NA,NA,NA,NA,NA,NA,NA,NA,NA,NA,NA,NA,NA
SUPAMT21062,3WMINLGALH2UECNHMFMRA66UC1DACQ,0F8C2C7B-B9B1-47A8-ADC4-C899E24AAFEC,2023-09-27_13h21.11.620,WP_VExplicitOC_LH,2022.2.5,Win32,16.40043297,56.51041667,3.634,2.026,NA,NA,NA,NA,NA,happy,"unhappy, happy","less happy, more happy",NA,NA,NA,NA,NA,NA,NA,NA,NA,NA,NA,NA,NA,NA,NA,0,2,2,0,1,NA,NA,NA,NA,NA,NA,NA,NA,NA,NA,NA,NA,NA,NA,NA,NA,NA,NA,NA,NA,NA,NA,NA,NA,NA,NA,NA,NA
SUPAMT21062,3WMINLGALH2UECNHMFMRA66UC1DACQ,0F8C2C7B-B9B1-47A8-ADC4-C899E24AAFEC,2023-09-27_13h21.11.620,WP_VExplicitOC_LH,2022.2.5,Win32,16.40043297,NA,NA,NA,NA,NA,NA,NA,NA,NA,NA,NA,NA,NA,NA,NA,NA,NA,NA,NA,NA,NA,NA,NA,NA,NA,NA,NA,NA,NA,NA,NA,3,0,3,0,1,NA,NA,NA,NA,NA,NA,NA,NA,NA,NA,NA,NA,NA,NA,NA,NA,NA,NA,NA,NA,NA,NA,NA
SUPAMT21062,3WMINLGALH2UECNHMFMRA66UC1DACQ,0F8C2C7B-B9B1-47A8-ADC4-C899E24AAFEC,2023-09-27_13h21.11.620,WP_VExplicitOC_LH,2022.2.5,Win32,16.40043297,53.64583333,3.5624,2.0466,NA,NA,NA,NA,NA,bored,"bored, not bored","more bored, less bored",NA,NA,NA,NA,NA,NA,NA,NA,NA,NA,NA,NA,NA,NA,NA,0,0,0,2,1,NA,NA,NA,NA,NA,NA,NA,NA,NA,NA,NA,NA,NA,NA,NA,NA,NA,NA,NA,NA,NA,NA,NA,NA,NA,NA,NA,NA
SUPAMT21062,3WMINLGALH2UECNHMFMRA66UC1DACQ,0F8C2C7B-B9B1-47A8-ADC4-C899E24AAFEC,2023-09-27_13h21.11.620,WP_VExplicitOC_LH,2022.2.5,Win32,16.40043297,50,3.4882,2.0017,NA,NA,NA,NA,NA,happy,"unhappy, happy","less happy, more happy",NA,NA,NA,NA,NA,NA,NA,NA,NA,NA,NA,NA,NA,NA,NA,0,1,1,0,1,NA,NA,NA,NA,NA,NA,NA,NA,NA,NA,NA,NA,NA,NA,NA,NA,NA,NA,NA,NA,NA,NA,NA,NA,NA,NA,NA,NA
SUPAMT21062,3WMINLGALH2UECNHMFMRA66UC1DACQ,0F8C2C7B-B9B1-47A8-ADC4-C899E24AAFEC,2023-09-27_13h21.11.620,WP_VExplicitOC_LH,2022.2.5,Win32,16.40043297,-27.08333333,4.3474,2.122,NA,NA,NA,NA,NA,frustrated,"frustrated, not frustrated","more frustrated, less frustrated",NA,NA,NA,NA,NA,NA,NA,NA,NA,NA,NA,NA,NA,NA,NA,0,2,2,1,1,NA,NA,NA,NA,NA,NA,NA,NA,NA,NA,NA,NA,NA,NA,NA,NA,NA,NA,NA,NA,NA,NA,NA,NA,NA,NA,NA,NA
SUPAMT21062,3WMINLGALH2UECNHMFMRA66UC1DACQ,0F8C2C7B-B9B1-47A8-ADC4-C899E24AAFEC,2023-09-27_13h21.11.620,WP_VExplicitOC_LH,2022.2.5,Win32,16.40043297,NA,NA,NA,NA,NA,NA,NA,NA,NA,NA,NA,NA,NA,NA,NA,NA,NA,NA,NA,NA,NA,NA,NA,NA,NA,NA,NA,NA,NA,NA,NA,4,0,4,0,1,NA,NA,NA,NA,NA,NA,NA,NA,NA,NA,NA,NA,NA,NA,NA,NA,NA,NA,NA,NA,NA,NA,NA
SUPAMT21062,3WMINLGALH2UECNHMFMRA66UC1DACQ,0F8C2C7B-B9B1-47A8-ADC4-C899E24AAFEC,2023-09-27_13h21.11.620,WP_VExplicitOC_LH,2022.2.5,Win32,16.40043297,74.21875,3.7363,2.0192,NA,NA,NA,NA,NA,bored,"bored, not bored","more bored, less bored",NA,NA,NA,NA,NA,NA,NA,NA,NA,NA,NA,NA,NA,NA,NA,0,0,0,2,1,NA,NA,NA,NA,NA,NA,NA,NA,NA,NA,NA,NA,NA,NA,NA,NA,NA,NA,NA,NA,NA,NA,NA,NA,NA,NA,NA,NA
SUPAMT21062,3WMINLGALH2UECNHMFMRA66UC1DACQ,0F8C2C7B-B9B1-47A8-ADC4-C899E24AAFEC,2023-09-27_13h21.11.620,WP_VExplicitOC_LH,2022.2.5,Win32,16.40043297,73.69791667,3.4778,2.0721,NA,NA,NA,NA,NA,happy,"unhappy, happy","less happy, more happy",NA,NA,NA,NA,NA,NA,NA,NA,NA,NA,NA,NA,NA,NA,NA,0,1,1,0,1,NA,NA,NA,NA,NA,NA,NA,NA,NA,NA,NA,NA,NA,NA,NA,NA,NA,NA,NA,NA,NA,NA,NA,NA,NA,NA,NA,NA
SUPAMT21062,3WMINLGALH2UECNHMFMRA66UC1DACQ,0F8C2C7B-B9B1-47A8-ADC4-C899E24AAFEC,2023-09-27_13h21.11.620,WP_VExplicitOC_LH,2022.2.5,Win32,16.40043297,71.35416667,3.5991,2.0425,NA,NA,NA,NA,NA,frustrated,"frustrated, not frustrated","more frustrated, less frustrated",NA,NA,NA,NA,NA,NA,NA,NA,NA,NA,NA,NA,NA,NA,NA,0,2,2,1,1,NA,NA,NA,NA,NA,NA,NA,NA,NA,NA,NA,NA,NA,NA,NA,NA,NA,NA,NA,NA,NA,NA,NA,NA,NA,NA,NA,NA
SUPAMT21062,3WMINLGALH2UECNHMFMRA66UC1DACQ,0F8C2C7B-B9B1-47A8-ADC4-C899E24AAFEC,2023-09-27_13h21.11.620,WP_VExplicitOC_LH,2022.2.5,Win32,16.40043297,NA,NA,NA,NA,NA,NA,NA,NA,NA,NA,NA,NA,NA,NA,NA,NA,NA,NA,NA,NA,NA,NA,NA,NA,NA,NA,NA,NA,NA,NA,NA,5,0,5,0,1,NA,NA,NA,NA,NA,NA,NA,NA,NA,NA,NA,NA,NA,NA,NA,NA,NA,NA,NA,NA,NA,NA,NA
SUPAMT21062,3WMINLGALH2UECNHMFMRA66UC1DACQ,0F8C2C7B-B9B1-47A8-ADC4-C899E24AAFEC,2023-09-27_13h21.11.620,WP_VExplicitOC_LH,2022.2.5,Win32,16.40043297,68.22916667,4.2157,2.0351,NA,NA,NA,NA,NA,frustrated,"frustrated, not frustrated","more frustrated, less frustrated",NA,NA,NA,NA,NA,NA,NA,NA,NA,NA,NA,NA,NA,NA,NA,0,0,0,1,1,NA,NA,NA,NA,NA,NA,NA,NA,NA,NA,NA,NA,NA,NA,NA,NA,NA,NA,NA,NA,NA,NA,NA,NA,NA,NA,NA,NA
SUPAMT21062,3WMINLGALH2UECNHMFMRA66UC1DACQ,0F8C2C7B-B9B1-47A8-ADC4-C899E24AAFEC,2023-09-27_13h21.11.620,WP_VExplicitOC_LH,2022.2.5,Win32,16.40043297,65.10416667,3.8783,2.1147,NA,NA,NA,NA,NA,bored,"bored, not bored","more bored, less bored",NA,NA,NA,NA,NA,NA,NA,NA,NA,NA,NA,NA,NA,NA,NA,0,1,1,2,1,NA,NA,NA,NA,NA,NA,NA,NA,NA,NA,NA,NA,NA,NA,NA,NA,NA,NA,NA,NA,NA,NA,NA,NA,NA,NA,NA,NA
SUPAMT21062,3WMINLGALH2UECNHMFMRA66UC1DACQ,0F8C2C7B-B9B1-47A8-ADC4-C899E24AAFEC,2023-09-27_13h21.11.620,WP_VExplicitOC_LH,2022.2.5,Win32,16.40043297,71.61458333,3.8924,2.0759,NA,NA,NA,NA,NA,happy,"unhappy, happy","less happy, more happy",NA,NA,NA,NA,NA,NA,NA,NA,NA,NA,NA,NA,NA,NA,NA,0,2,2,0,1,NA,NA,NA,NA,NA,NA,NA,NA,NA,NA,NA,NA,NA,NA,NA,NA,NA,NA,NA,NA,NA,NA,NA,NA,NA,NA,NA,NA
SUPAMT21062,3WMINLGALH2UECNHMFMRA66UC1DACQ,0F8C2C7B-B9B1-47A8-ADC4-C899E24AAFEC,2023-09-27_13h21.11.620,WP_VExplicitOC_LH,2022.2.5,Win32,16.40043297,NA,NA,NA,NA,NA,NA,NA,NA,NA,NA,NA,NA,NA,NA,NA,NA,NA,NA,NA,NA,NA,NA,NA,NA,NA,NA,NA,NA,NA,NA,NA,6,0,6,0,1,NA,NA,NA,NA,NA,NA,NA,NA,NA,NA,NA,NA,NA,NA,NA,NA,NA,NA,NA,NA,NA,NA,NA
SUPAMT21062,3WMINLGALH2UECNHMFMRA66UC1DACQ,0F8C2C7B-B9B1-47A8-ADC4-C899E24AAFEC,2023-09-27_13h21.11.620,WP_VExplicitOC_LH,2022.2.5,Win32,16.40043297,58.85416667,4.8435,2.0204,NA,NA,NA,NA,NA,bored,"bored, not bored","more bored, less bored",NA,NA,NA,NA,NA,NA,NA,NA,NA,NA,NA,NA,NA,NA,NA,0,0,0,2,1,NA,NA,NA,NA,NA,NA,NA,NA,NA,NA,NA,NA,NA,NA,NA,NA,NA,NA,NA,NA,NA,NA,NA,NA,NA,NA,NA,NA
SUPAMT21062,3WMINLGALH2UECNHMFMRA66UC1DACQ,0F8C2C7B-B9B1-47A8-ADC4-C899E24AAFEC,2023-09-27_13h21.11.620,WP_VExplicitOC_LH,2022.2.5,Win32,16.40043297,76.30208333,3.4298,2.0041,NA,NA,NA,NA,NA,frustrated,"frustrated, not frustrated","more frustrated, less frustrated",NA,NA,NA,NA,NA,NA,NA,NA,NA,NA,NA,NA,NA,NA,NA,0,1,1,1,1,NA,NA,NA,NA,NA,NA,NA,NA,NA,NA,NA,NA,NA,NA,NA,NA,NA,NA,NA,NA,NA,NA,NA,NA,NA,NA,NA,NA
SUPAMT21062,3WMINLGALH2UECNHMFMRA66UC1DACQ,0F8C2C7B-B9B1-47A8-ADC4-C899E24AAFEC,2023-09-27_13h21.11.620,WP_VExplicitOC_LH,2022.2.5,Win32,16.40043297,67.70833333,4.1658,2.1129,NA,NA,NA,NA,NA,happy,"unhappy, happy","less happy, more happy",NA,NA,NA,NA,NA,NA,NA,NA,NA,NA,NA,NA,NA,NA,NA,0,2,2,0,1,NA,NA,NA,NA,NA,NA,NA,NA,NA,NA,NA,NA,NA,NA,NA,NA,NA,NA,NA,NA,NA,NA,NA,NA,NA,NA,NA,NA
SUPAMT21062,3WMINLGALH2UECNHMFMRA66UC1DACQ,0F8C2C7B-B9B1-47A8-ADC4-C899E24AAFEC,2023-09-27_13h21.11.620,WP_VExplicitOC_LH,2022.2.5,Win32,16.40043297,NA,NA,NA,NA,NA,NA,NA,NA,NA,NA,NA,NA,NA,NA,NA,NA,NA,NA,NA,NA,NA,NA,NA,NA,NA,NA,NA,NA,NA,NA,NA,7,0,7,0,1,NA,NA,NA,NA,NA,NA,NA,NA,NA,NA,NA,NA,NA,NA,NA,NA,NA,NA,NA,NA,NA,NA,NA
SUPAMT21062,3WMINLGALH2UECNHMFMRA66UC1DACQ,0F8C2C7B-B9B1-47A8-ADC4-C899E24AAFEC,2023-09-27_13h21.11.620,WP_VExplicitOC_LH,2022.2.5,Win32,16.40043297,52.34375,3.7835,2.0702,NA,NA,NA,NA,NA,bored,"bored, not bored","more bored, less bored",NA,NA,NA,NA,NA,NA,NA,NA,NA,NA,NA,NA,NA,NA,NA,0,0,0,2,1,NA,NA,NA,NA,NA,NA,NA,NA,NA,NA,NA,NA,NA,NA,NA,NA,NA,NA,NA,NA,NA,NA,NA,NA,NA,NA,NA,NA
SUPAMT21062,3WMINLGALH2UECNHMFMRA66UC1DACQ,0F8C2C7B-B9B1-47A8-ADC4-C899E24AAFEC,2023-09-27_13h21.11.620,WP_VExplicitOC_LH,2022.2.5,Win32,16.40043297,67.70833333,3.7426,2.0862,NA,NA,NA,NA,NA,happy,"unhappy, happy","less happy, more happy",NA,NA,NA,NA,NA,NA,NA,NA,NA,NA,NA,NA,NA,NA,NA,0,1,1,0,1,NA,NA,NA,NA,NA,NA,NA,NA,NA,NA,NA,NA,NA,NA,NA,NA,NA,NA,NA,NA,NA,NA,NA,NA,NA,NA,NA,NA
SUPAMT21062,3WMINLGALH2UECNHMFMRA66UC1DACQ,0F8C2C7B-B9B1-47A8-ADC4-C899E24AAFEC,2023-09-27_13h21.11.620,WP_VExplicitOC_LH,2022.2.5,Win32,16.40043297,71.61458333,3.604,2.0476,NA,NA,NA,NA,NA,frustrated,"frustrated, not frustrated","more frustrated, less frustrated",NA,NA,NA,NA,NA,NA,NA,NA,NA,NA,NA,NA,NA,NA,NA,0,2,2,1,1,NA,NA,NA,NA,NA,NA,NA,NA,NA,NA,NA,NA,NA,NA,NA,NA,NA,NA,NA,NA,NA,NA,NA,NA,NA,NA,NA,NA
SUPAMT21062,3WMINLGALH2UECNHMFMRA66UC1DACQ,0F8C2C7B-B9B1-47A8-ADC4-C899E24AAFEC,2023-09-27_13h21.11.620,WP_VExplicitOC_LH,2022.2.5,Win32,16.40043297,NA,NA,NA,NA,NA,NA,NA,NA,NA,NA,NA,NA,NA,NA,NA,NA,NA,NA,NA,NA,NA,NA,NA,NA,NA,NA,NA,NA,NA,NA,NA,8,0,8,0,1,NA,NA,NA,NA,NA,NA,NA,NA,NA,NA,NA,NA,NA,NA,NA,NA,NA,NA,NA,NA,NA,NA,NA
SUPAMT21062,3WMINLGALH2UECNHMFMRA66UC1DACQ,0F8C2C7B-B9B1-47A8-ADC4-C899E24AAFEC,2023-09-27_13h21.11.620,WP_VExplicitOC_LH,2022.2.5,Win32,16.40043297,32.03125,6.1582,2.0248,NA,NA,NA,NA,NA,bored,"bored, not bored","more bored, less bored",NA,NA,NA,NA,NA,NA,NA,NA,NA,NA,NA,NA,NA,NA,NA,0,0,0,2,1,NA,NA,NA,NA,NA,NA,NA,NA,NA,NA,NA,NA,NA,NA,NA,NA,NA,NA,NA,NA,NA,NA,NA,NA,NA,NA,NA,NA
SUPAMT21062,3WMINLGALH2UECNHMFMRA66UC1DACQ,0F8C2C7B-B9B1-47A8-ADC4-C899E24AAFEC,2023-09-27_13h21.11.620,WP_VExplicitOC_LH,2022.2.5,Win32,16.40043297,53.125,3.3207,2.0423,NA,NA,NA,NA,NA,happy,"unhappy, happy","less happy, more happy",NA,NA,NA,NA,NA,NA,NA,NA,NA,NA,NA,NA,NA,NA,NA,0,1,1,0,1,NA,NA,NA,NA,NA,NA,NA,NA,NA,NA,NA,NA,NA,NA,NA,NA,NA,NA,NA,NA,NA,NA,NA,NA,NA,NA,NA,NA
SUPAMT21062,3WMINLGALH2UECNHMFMRA66UC1DACQ,0F8C2C7B-B9B1-47A8-ADC4-C899E24AAFEC,2023-09-27_13h21.11.620,WP_VExplicitOC_LH,2022.2.5,Win32,16.40043297,62.23958333,4.0163,2.0664,NA,NA,NA,NA,NA,frustrated,"frustrated, not frustrated","more frustrated, less frustrated",NA,NA,NA,NA,NA,NA,NA,NA,NA,NA,NA,NA,NA,NA,NA,0,2,2,1,1,NA,NA,NA,NA,NA,NA,NA,NA,NA,NA,NA,NA,NA,NA,NA,NA,NA,NA,NA,NA,NA,NA,NA,NA,NA,NA,NA,NA
SUPAMT21062,3WMINLGALH2UECNHMFMRA66UC1DACQ,0F8C2C7B-B9B1-47A8-ADC4-C899E24AAFEC,2023-09-27_13h21.11.620,WP_VExplicitOC_LH,2022.2.5,Win32,16.40043297,NA,NA,NA,NA,NA,NA,NA,NA,NA,NA,NA,NA,NA,NA,NA,NA,NA,NA,NA,NA,NA,NA,NA,NA,NA,NA,NA,NA,NA,NA,NA,9,0,9,0,1,NA,NA,NA,NA,NA,NA,NA,NA,NA,NA,NA,NA,NA,NA,NA,NA,NA,NA,NA,NA,NA,NA,NA
SUPAMT21062,3WMINLGALH2UECNHMFMRA66UC1DACQ,0F8C2C7B-B9B1-47A8-ADC4-C899E24AAFEC,2023-09-27_13h21.11.620,WP_VExplicitOC_LH,2022.2.5,Win32,16.40043297,67.1875,3.5871,2.0923,NA,NA,NA,NA,NA,frustrated,"frustrated, not frustrated","more frustrated, less frustrated",NA,NA,NA,NA,NA,NA,NA,NA,NA,NA,NA,NA,NA,NA,NA,0,0,0,1,1,NA,NA,NA,NA,NA,NA,NA,NA,NA,NA,NA,NA,NA,NA,NA,NA,NA,NA,NA,NA,NA,NA,NA,NA,NA,NA,NA,NA
SUPAMT21062,3WMINLGALH2UECNHMFMRA66UC1DACQ,0F8C2C7B-B9B1-47A8-ADC4-C899E24AAFEC,2023-09-27_13h21.11.620,WP_VExplicitOC_LH,2022.2.5,Win32,16.40043297,61.97916667,4.038,2.0989,NA,NA,NA,NA,NA,happy,"unhappy, happy","less happy, more happy",NA,NA,NA,NA,NA,NA,NA,NA,NA,NA,NA,NA,NA,NA,NA,0,1,1,0,1,NA,NA,NA,NA,NA,NA,NA,NA,NA,NA,NA,NA,NA,NA,NA,NA,NA,NA,NA,NA,NA,NA,NA,NA,NA,NA,NA,NA
SUPAMT21062,3WMINLGALH2UECNHMFMRA66UC1DACQ,0F8C2C7B-B9B1-47A8-ADC4-C899E24AAFEC,2023-09-27_13h21.11.620,WP_VExplicitOC_LH,2022.2.5,Win32,16.40043297,74.73958333,3.8534,2.0336,NA,NA,NA,NA,NA,bored,"bored, not bored","more bored, less bored",NA,NA,NA,NA,NA,NA,NA,NA,NA,NA,NA,NA,NA,NA,NA,0,2,2,2,1,NA,NA,NA,NA,NA,NA,NA,NA,NA,NA,NA,NA,NA,NA,NA,NA,NA,NA,NA,NA,NA,NA,NA,NA,NA,NA,NA,NA
SUPAMT21062,3WMINLGALH2UECNHMFMRA66UC1DACQ,0F8C2C7B-B9B1-47A8-ADC4-C899E24AAFEC,2023-09-27_13h21.11.620,WP_VExplicitOC_LH,2022.2.5,Win32,16.40043297,NA,NA,NA,NA,NA,NA,NA,NA,NA,NA,NA,NA,NA,NA,NA,NA,NA,NA,NA,NA,NA,NA,NA,NA,NA,NA,NA,NA,NA,NA,NA,10,0,10,0,1,NA,NA,NA,NA,NA,NA,NA,NA,NA,NA,NA,NA,NA,NA,NA,NA,NA,NA,NA,NA,NA,NA,NA
SUPAMT21062,3WMINLGALH2UECNHMFMRA66UC1DACQ,0F8C2C7B-B9B1-47A8-ADC4-C899E24AAFEC,2023-09-27_13h21.11.620,WP_VExplicitOC_LH,2022.2.5,Win32,16.40043297,62.23958333,3.4958,2.0419,NA,NA,NA,NA,NA,frustrated,"frustrated, not frustrated","more frustrated, less frustrated",NA,NA,NA,NA,NA,NA,NA,NA,NA,NA,NA,NA,NA,NA,NA,0,0,0,1,1,NA,NA,NA,NA,NA,NA,NA,NA,NA,NA,NA,NA,NA,NA,NA,NA,NA,NA,NA,NA,NA,NA,NA,NA,NA,NA,NA,NA
SUPAMT21062,3WMINLGALH2UECNHMFMRA66UC1DACQ,0F8C2C7B-B9B1-47A8-ADC4-C899E24AAFEC,2023-09-27_13h21.11.620,WP_VExplicitOC_LH,2022.2.5,Win32,16.40043297,69.79166667,3.5712,2.0551,NA,NA,NA,NA,NA,bored,"bored, not bored","more bored, less bored",NA,NA,NA,NA,NA,NA,NA,NA,NA,NA,NA,NA,NA,NA,NA,0,1,1,2,1,NA,NA,NA,NA,NA,NA,NA,NA,NA,NA,NA,NA,NA,NA,NA,NA,NA,NA,NA,NA,NA,NA,NA,NA,NA,NA,NA,NA
SUPAMT21062,3WMINLGALH2UECNHMFMRA66UC1DACQ,0F8C2C7B-B9B1-47A8-ADC4-C899E24AAFEC,2023-09-27_13h21.11.620,WP_VExplicitOC_LH,2022.2.5,Win32,16.40043297,64.0625,3.6094,2.0178,NA,NA,NA,NA,NA,happy,"unhappy, happy","less happy, more happy",NA,NA,NA,NA,NA,NA,NA,NA,NA,NA,NA,NA,NA,NA,NA,0,2,2,0,1,NA,NA,NA,NA,NA,NA,NA,NA,NA,NA,NA,NA,NA,NA,NA,NA,NA,NA,NA,NA,NA,NA,NA,NA,NA,NA,NA,NA
SUPAMT21062,3WMINLGALH2UECNHMFMRA66UC1DACQ,0F8C2C7B-B9B1-47A8-ADC4-C899E24AAFEC,2023-09-27_13h21.11.620,WP_VExplicitOC_LH,2022.2.5,Win32,16.40043297,NA,NA,NA,NA,NA,NA,NA,NA,NA,NA,NA,NA,NA,NA,NA,NA,NA,NA,NA,NA,NA,NA,NA,NA,NA,NA,NA,NA,NA,NA,NA,11,0,11,0,1,NA,NA,NA,NA,NA,NA,NA,NA,NA,NA,NA,NA,NA,NA,NA,NA,NA,NA,NA,NA,NA,NA,NA
SUPAMT21062,3WMINLGALH2UECNHMFMRA66UC1DACQ,0F8C2C7B-B9B1-47A8-ADC4-C899E24AAFEC,2023-09-27_13h21.11.620,WP_VExplicitOC_LH,2022.2.5,Win32,16.40043297,43.75,4.1325,2.0523,NA,NA,NA,NA,NA,happy,"unhappy, happy","less happy, more happy",NA,NA,NA,NA,NA,NA,NA,NA,NA,NA,NA,NA,NA,NA,NA,0,0,0,0,1,NA,NA,NA,NA,NA,NA,NA,NA,NA,NA,NA,NA,NA,NA,NA,NA,NA,NA,NA,NA,NA,NA,NA,NA,NA,NA,NA,NA
SUPAMT21062,3WMINLGALH2UECNHMFMRA66UC1DACQ,0F8C2C7B-B9B1-47A8-ADC4-C899E24AAFEC,2023-09-27_13h21.11.620,WP_VExplicitOC_LH,2022.2.5,Win32,16.40043297,51.5625,3.6152,2.0102,NA,NA,NA,NA,NA,bored,"bored, not bored","more bored, less bored",NA,NA,NA,NA,NA,NA,NA,NA,NA,NA,NA,NA,NA,NA,NA,0,1,1,2,1,NA,NA,NA,NA,NA,NA,NA,NA,NA,NA,NA,NA,NA,NA,NA,NA,NA,NA,NA,NA,NA,NA,NA,NA,NA,NA,NA,NA
SUPAMT21062,3WMINLGALH2UECNHMFMRA66UC1DACQ,0F8C2C7B-B9B1-47A8-ADC4-C899E24AAFEC,2023-09-27_13h21.11.620,WP_VExplicitOC_LH,2022.2.5,Win32,16.40043297,53.38541667,4.1422,2.1377,NA,NA,NA,NA,NA,frustrated,"frustrated, not frustrated","more frustrated, less frustrated",NA,NA,NA,NA,NA,NA,NA,NA,NA,NA,NA,NA,NA,NA,NA,0,2,2,1,1,NA,NA,NA,NA,NA,NA,NA,NA,NA,NA,NA,NA,NA,NA,NA,NA,NA,NA,NA,NA,NA,NA,NA,NA,NA,NA,NA,NA
SUPAMT21062,3WMINLGALH2UECNHMFMRA66UC1DACQ,0F8C2C7B-B9B1-47A8-ADC4-C899E24AAFEC,2023-09-27_13h21.11.620,WP_VExplicitOC_LH,2022.2.5,Win32,16.40043297,NA,NA,NA,NA,NA,NA,NA,NA,NA,NA,NA,NA,NA,NA,NA,NA,NA,NA,NA,NA,NA,NA,NA,NA,NA,NA,NA,NA,NA,NA,NA,12,0,12,0,1,NA,NA,NA,NA,NA,NA,NA,NA,NA,NA,NA,NA,NA,NA,NA,NA,NA,NA,NA,NA,NA,NA,NA
SUPAMT21062,3WMINLGALH2UECNHMFMRA66UC1DACQ,0F8C2C7B-B9B1-47A8-ADC4-C899E24AAFEC,2023-09-27_13h21.11.620,WP_VExplicitOC_LH,2022.2.5,Win32,16.40043297,66.40625,4.2161,2.1293,NA,NA,NA,NA,NA,happy,"unhappy, happy","less happy, more happy",NA,NA,NA,NA,NA,NA,NA,NA,NA,NA,NA,NA,NA,NA,NA,0,0,0,0,1,NA,NA,NA,NA,NA,NA,NA,NA,NA,NA,NA,NA,NA,NA,NA,NA,NA,NA,NA,NA,NA,NA,NA,NA,NA,NA,NA,NA
SUPAMT21062,3WMINLGALH2UECNHMFMRA66UC1DACQ,0F8C2C7B-B9B1-47A8-ADC4-C899E24AAFEC,2023-09-27_13h21.11.620,WP_VExplicitOC_LH,2022.2.5,Win32,16.40043297,53.90625,3.601,2.0557,NA,NA,NA,NA,NA,bored,"bored, not bored","more bored, less bored",NA,NA,NA,NA,NA,NA,NA,NA,NA,NA,NA,NA,NA,NA,NA,0,1,1,2,1,NA,NA,NA,NA,NA,NA,NA,NA,NA,NA,NA,NA,NA,NA,NA,NA,NA,NA,NA,NA,NA,NA,NA,NA,NA,NA,NA,NA
SUPAMT21062,3WMINLGALH2UECNHMFMRA66UC1DACQ,0F8C2C7B-B9B1-47A8-ADC4-C899E24AAFEC,2023-09-27_13h21.11.620,WP_VExplicitOC_LH,2022.2.5,Win32,16.40043297,52.60416667,4.0775,2.0802,NA,NA,NA,NA,NA,frustrated,"frustrated, not frustrated","more frustrated, less frustrated",NA,NA,NA,NA,NA,NA,NA,NA,NA,NA,NA,NA,NA,NA,NA,0,2,2,1,1,NA,NA,NA,NA,NA,NA,NA,NA,NA,NA,NA,NA,NA,NA,NA,NA,NA,NA,NA,NA,NA,NA,NA,NA,NA,NA,NA,NA
SUPAMT21062,3WMINLGALH2UECNHMFMRA66UC1DACQ,0F8C2C7B-B9B1-47A8-ADC4-C899E24AAFEC,2023-09-27_13h21.11.620,WP_VExplicitOC_LH,2022.2.5,Win32,16.40043297,NA,NA,NA,NA,NA,NA,NA,NA,NA,NA,NA,NA,NA,NA,NA,NA,NA,NA,NA,NA,NA,NA,NA,NA,NA,NA,NA,NA,NA,NA,NA,13,0,13,0,1,NA,NA,NA,NA,NA,NA,NA,NA,NA,NA,NA,NA,NA,NA,NA,NA,NA,NA,NA,NA,NA,NA,NA
SUPAMT21062,3WMINLGALH2UECNHMFMRA66UC1DACQ,0F8C2C7B-B9B1-47A8-ADC4-C899E24AAFEC,2023-09-27_13h21.11.620,WP_VExplicitOC_LH,2022.2.5,Win32,16.40043297,62.23958333,3.6058,2.0293,NA,NA,NA,NA,NA,frustrated,"frustrated, not frustrated","more frustrated, less frustrated",NA,NA,NA,NA,NA,NA,NA,NA,NA,NA,NA,NA,NA,NA,NA,0,0,0,1,1,NA,NA,NA,NA,NA,NA,NA,NA,NA,NA,NA,NA,NA,NA,NA,NA,NA,NA,NA,NA,NA,NA,NA,NA,NA,NA,NA,NA
SUPAMT21062,3WMINLGALH2UECNHMFMRA66UC1DACQ,0F8C2C7B-B9B1-47A8-ADC4-C899E24AAFEC,2023-09-27_13h21.11.620,WP_VExplicitOC_LH,2022.2.5,Win32,16.40043297,53.38541667,3.6227,2.0743,NA,NA,NA,NA,NA,bored,"bored, not bored","more bored, less bored",NA,NA,NA,NA,NA,NA,NA,NA,NA,NA,NA,NA,NA,NA,NA,0,1,1,2,1,NA,NA,NA,NA,NA,NA,NA,NA,NA,NA,NA,NA,NA,NA,NA,NA,NA,NA,NA,NA,NA,NA,NA,NA,NA,NA,NA,NA
SUPAMT21062,3WMINLGALH2UECNHMFMRA66UC1DACQ,0F8C2C7B-B9B1-47A8-ADC4-C899E24AAFEC,2023-09-27_13h21.11.620,WP_VExplicitOC_LH,2022.2.5,Win32,16.40043297,61.19791667,3.6031,2.0053,NA,NA,NA,NA,NA,happy,"unhappy, happy","less happy, more happy",NA,NA,NA,NA,NA,NA,NA,NA,NA,NA,NA,NA,NA,NA,NA,0,2,2,0,1,NA,NA,NA,NA,NA,NA,NA,NA,NA,NA,NA,NA,NA,NA,NA,NA,NA,NA,NA,NA,NA,NA,NA,NA,NA,NA,NA,NA
SUPAMT21062,3WMINLGALH2UECNHMFMRA66UC1DACQ,0F8C2C7B-B9B1-47A8-ADC4-C899E24AAFEC,2023-09-27_13h21.11.620,WP_VExplicitOC_LH,2022.2.5,Win32,16.40043297,NA,NA,NA,NA,NA,NA,NA,NA,NA,NA,NA,NA,NA,NA,NA,NA,NA,NA,NA,NA,NA,NA,NA,NA,NA,NA,NA,NA,NA,NA,NA,14,0,14,0,1,NA,NA,NA,NA,NA,NA,NA,NA,NA,NA,NA,NA,NA,NA,NA,NA,NA,NA,NA,NA,NA,NA,NA
SUPAMT21062,3WMINLGALH2UECNHMFMRA66UC1DACQ,0F8C2C7B-B9B1-47A8-ADC4-C899E24AAFEC,2023-09-27_13h21.11.620,WP_VExplicitOC_LH,2022.2.5,Win32,16.40043297,NA,NA,NA,NA,NA,NA,NA,NA,NA,NA,NA,NA,NA,NA,NA,NA,NA,NA,NA,NA,NA,NA,NA,NA,NA,NA,NA,NA,NA,NA,NA,NA,NA,NA,NA,NA,NA,NA,NA,NA,NA,NA,NA,NA,NA,NA,NA,NA,NA,NA,NA,NA,NA,NA,NA,NA,NA,NA,NA
SUPAMT21062,3WMINLGALH2UECNHMFMRA66UC1DACQ,0F8C2C7B-B9B1-47A8-ADC4-C899E24AAFEC,2023-09-27_13h21.11.620,WP_VExplicitOC_LH,2022.2.5,Win32,16.40043297,NA,NA,NA,NA,NA,NA,NA,NA,NA,NA,NA,NA,NA,NA,NA,NA,NA,NA,NA,NA,NA,NA,NA,NA,NA,NA,NA,NA,NA,NA,NA,NA,NA,NA,NA,NA,NA,NA,NA,NA,NA,NA,NA,NA,NA,NA,NA,NA,NA,NA,NA,NA,NA,NA,NA,NA,NA,NA,NA
SUPAMT21062,3WMINLGALH2UECNHMFMRA66UC1DACQ,0F8C2C7B-B9B1-47A8-ADC4-C899E24AAFEC,2023-09-27_13h21.11.620,WP_VExplicitOC_LH,2022.2.5,Win32,16.40043297,NA,NA,NA,NA,NA,NA,NA,NA,NA,NA,NA,NA,NA,NA,NA,NA,NA,NA,rest (looking at a fixed cross),001.png,NA,NA,NA,NA,NA,NA,NA,NA,NA,NA,NA,NA,NA,NA,NA,NA,-16.66666667,5.1556,0,0,0,0,1,NA,NA,NA,NA,NA,NA,NA,NA,NA,NA,NA,NA,NA,NA,NA,NA
SUPAMT21062,3WMINLGALH2UECNHMFMRA66UC1DACQ,0F8C2C7B-B9B1-47A8-ADC4-C899E24AAFEC,2023-09-27_13h21.11.620,WP_VExplicitOC_LH,2022.2.5,Win32,16.40043297,NA,NA,NA,NA,NA,NA,NA,NA,NA,NA,NA,NA,NA,NA,NA,NA,NA,NA,stand up,002.png,NA,NA,NA,NA,NA,NA,NA,NA,NA,NA,NA,NA,NA,NA,NA,NA,51.5625,1.7447,0,1,1,1,1,NA,NA,NA,NA,NA,NA,NA,NA,NA,NA,NA,NA,NA,NA,NA,NA
SUPAMT21062,3WMINLGALH2UECNHMFMRA66UC1DACQ,0F8C2C7B-B9B1-47A8-ADC4-C899E24AAFEC,2023-09-27_13h21.11.620,WP_VExplicitOC_LH,2022.2.5,Win32,16.40043297,NA,NA,NA,NA,NA,NA,NA,NA,NA,NA,NA,NA,NA,NA,NA,NA,NA,NA,stretch,003.png,NA,NA,NA,NA,NA,NA,NA,NA,NA,NA,NA,NA,NA,NA,NA,NA,49.73958333,1.8713,0,2,2,2,1,NA,NA,NA,NA,NA,NA,NA,NA,NA,NA,NA,NA,NA,NA,NA,NA
SUPAMT21062,3WMINLGALH2UECNHMFMRA66UC1DACQ,0F8C2C7B-B9B1-47A8-ADC4-C899E24AAFEC,2023-09-27_13h21.11.620,WP_VExplicitOC_LH,2022.2.5,Win32,16.40043297,NA,NA,NA,NA,NA,NA,NA,NA,NA,NA,NA,NA,NA,NA,NA,NA,NA,NA,make a drink,004.png,NA,NA,NA,NA,NA,NA,NA,NA,NA,NA,NA,NA,NA,NA,NA,NA,38.02083333,2.0273,0,3,3,3,1,NA,NA,NA,NA,NA,NA,NA,NA,NA,NA,NA,NA,NA,NA,NA,NA
SUPAMT21062,3WMINLGALH2UECNHMFMRA66UC1DACQ,0F8C2C7B-B9B1-47A8-ADC4-C899E24AAFEC,2023-09-27_13h21.11.620,WP_VExplicitOC_LH,2022.2.5,Win32,16.40043297,NA,NA,NA,NA,NA,NA,NA,NA,NA,NA,NA,NA,NA,NA,NA,NA,NA,NA,scroll social media,005.png,NA,NA,NA,NA,NA,NA,NA,NA,NA,NA,NA,NA,NA,NA,NA,NA,38.02083333,2.5622,0,4,4,4,1,NA,NA,NA,NA,NA,NA,NA,NA,NA,NA,NA,NA,NA,NA,NA,NA
SUPAMT21062,3WMINLGALH2UECNHMFMRA66UC1DACQ,0F8C2C7B-B9B1-47A8-ADC4-C899E24AAFEC,2023-09-27_13h21.11.620,WP_VExplicitOC_LH,2022.2.5,Win32,16.40043297,NA,NA,NA,NA,NA,NA,NA,NA,NA,NA,NA,NA,NA,NA,NA,NA,NA,NA,listen to music,006.png,NA,NA,NA,NA,NA,NA,NA,NA,NA,NA,NA,NA,NA,NA,NA,NA,64.84375,1.87,0,5,5,5,1,NA,NA,NA,NA,NA,NA,NA,NA,NA,NA,NA,NA,NA,NA,NA,NA
SUPAMT21062,3WMINLGALH2UECNHMFMRA66UC1DACQ,0F8C2C7B-B9B1-47A8-ADC4-C899E24AAFEC,2023-09-27_13h21.11.620,WP_VExplicitOC_LH,2022.2.5,Win32,16.40043297,NA,NA,NA,NA,NA,NA,NA,NA,NA,NA,NA,NA,NA,NA,NA,NA,NA,NA,daydream,007.png,NA,NA,NA,NA,NA,NA,NA,NA,NA,NA,NA,NA,NA,NA,NA,NA,50.26041667,2.6167,0,6,6,6,1,NA,NA,NA,NA,NA,NA,NA,NA,NA,NA,NA,NA,NA,NA,NA,NA
SUPAMT21062,3WMINLGALH2UECNHMFMRA66UC1DACQ,0F8C2C7B-B9B1-47A8-ADC4-C899E24AAFEC,2023-09-27_13h21.11.620,WP_VExplicitOC_LH,2022.2.5,Win32,16.40043297,NA,NA,NA,NA,NA,NA,NA,NA,NA,NA,NA,NA,NA,NA,NA,NA,NA,NA,watch a short animation,008.png,NA,NA,NA,NA,NA,NA,NA,NA,NA,NA,NA,NA,NA,NA,NA,NA,69.01041667,1.5997,0,7,7,7,1,NA,NA,NA,NA,NA,NA,NA,NA,NA,NA,NA,NA,NA,NA,NA,NA
SUPAMT21062,3WMINLGALH2UECNHMFMRA66UC1DACQ,0F8C2C7B-B9B1-47A8-ADC4-C899E24AAFEC,2023-09-27_13h21.11.620,WP_VExplicitOC_LH,2022.2.5,Win32,16.40043297,NA,NA,NA,NA,NA,NA,NA,NA,NA,NA,NA,NA,NA,NA,NA,NA,NA,NA,read a novel,009.png,NA,NA,NA,NA,NA,NA,NA,NA,NA,NA,NA,NA,NA,NA,NA,NA,50.26041667,2.5645,0,8,8,8,1,NA,NA,NA,NA,NA,NA,NA,NA,NA,NA,NA,NA,NA,NA,NA,NA
SUPAMT21062,3WMINLGALH2UECNHMFMRA66UC1DACQ,0F8C2C7B-B9B1-47A8-ADC4-C899E24AAFEC,2023-09-27_13h21.11.620,WP_VExplicitOC_LH,2022.2.5,Win32,16.40043297,NA,NA,NA,NA,NA,NA,NA,NA,NA,NA,NA,NA,NA,NA,NA,NA,NA,NA,read the news,010.png,NA,NA,NA,NA,NA,NA,NA,NA,NA,NA,NA,NA,NA,NA,NA,NA,47.65625,1.4746,0,9,9,9,1,NA,NA,NA,NA,NA,NA,NA,NA,NA,NA,NA,NA,NA,NA,NA,NA
SUPAMT21062,3WMINLGALH2UECNHMFMRA66UC1DACQ,0F8C2C7B-B9B1-47A8-ADC4-C899E24AAFEC,2023-09-27_13h21.11.620,WP_VExplicitOC_LH,2022.2.5,Win32,16.40043297,NA,NA,NA,NA,NA,NA,NA,NA,NA,NA,NA,NA,NA,NA,NA,NA,NA,NA,NA,NA,NA,NA,NA,NA,NA,NA,NA,NA,NA,NA,NA,NA,NA,NA,NA,NA,NA,NA,NA,NA,NA,NA,NA,watch a short animation,NA,NA,NA,NA,NA,NA,NA,NA,NA,NA,NA,NA,NA,NA,NA
SUPAMT21062,3WMINLGALH2UECNHMFMRA66UC1DACQ,0F8C2C7B-B9B1-47A8-ADC4-C899E24AAFEC,2023-09-27_13h21.11.620,WP_VExplicitOC_LH,2022.2.5,Win32,16.40043297,32.03125,6.9089,2.0243,NA,NA,NA,NA,NA,happy,"unhappy, happy","less happy, more happy",NA,NA,NA,NA,NA,NA,NA,NA,NA,NA,NA,NA,NA,NA,NA,NA,NA,NA,NA,NA,NA,NA,NA,NA,NA,NA,NA,NA,NA,NA,NA,NA,NA,0,0,0,0,1,NA,NA,NA,NA,NA,NA,NA,NA,NA,NA
SUPAMT21062,3WMINLGALH2UECNHMFMRA66UC1DACQ,0F8C2C7B-B9B1-47A8-ADC4-C899E24AAFEC,2023-09-27_13h21.11.620,WP_VExplicitOC_LH,2022.2.5,Win32,16.40043297,40.625,3.7533,2.1015,NA,NA,NA,NA,NA,frustrated,"frustrated, not frustrated","more frustrated, less frustrated",NA,NA,NA,NA,NA,NA,NA,NA,NA,NA,NA,NA,NA,NA,NA,NA,NA,NA,NA,NA,NA,NA,NA,NA,NA,NA,NA,NA,NA,NA,NA,NA,NA,0,1,1,1,1,NA,NA,NA,NA,NA,NA,NA,NA,NA,NA
SUPAMT21062,3WMINLGALH2UECNHMFMRA66UC1DACQ,0F8C2C7B-B9B1-47A8-ADC4-C899E24AAFEC,2023-09-27_13h21.11.620,WP_VExplicitOC_LH,2022.2.5,Win32,16.40043297,34.11458333,3.6494,2.0295,NA,NA,NA,NA,NA,bored,"bored, not bored","more bored, less bored",NA,NA,NA,NA,NA,NA,NA,NA,NA,NA,NA,NA,NA,NA,NA,NA,NA,NA,NA,NA,NA,NA,NA,NA,NA,NA,NA,NA,NA,NA,NA,NA,NA,0,2,2,2,1,NA,NA,NA,NA,NA,NA,NA,NA,NA,NA
SUPAMT21062,3WMINLGALH2UECNHMFMRA66UC1DACQ,0F8C2C7B-B9B1-47A8-ADC4-C899E24AAFEC,2023-09-27_13h21.11.620,WP_VExplicitOC_LH,2022.2.5,Win32,16.40043297,NA,NA,NA,NA,NA,NA,NA,NA,NA,NA,NA,NA,NA,NA,NA,NA,NA,NA,NA,NA,NA,NA,NA,NA,NA,NA,NA,NA,NA,NA,NA,NA,NA,NA,NA,NA,NA,NA,NA,NA,NA,NA,NA,NA,NA,NA,NA,NA,NA,NA,NA,NA,NA,NA,NA,NA,NA,NA,NA
SUPAMT21062,3WMINLGALH2UECNHMFMRA66UC1DACQ,0F8C2C7B-B9B1-47A8-ADC4-C899E24AAFEC,2023-09-27_13h21.11.620,WP_VExplicitOC_LH,2022.2.5,Win32,16.40043297,NA,NA,NA,NA,NA,NA,NA,NA,NA,NA,NA,NA,NA,NA,NA,NA,NA,NA,NA,NA,NA,NA,NA,NA,NA,NA,NA,NA,NA,NA,NA,NA,NA,NA,NA,NA,NA,NA,NA,NA,NA,NA,NA,NA,NA,NA,NA,NA,NA,NA,NA,NA,NA,NA,NA,NA,NA,NA,NA
SUPAMT21062,3WMINLGALH2UECNHMFMRA66UC1DACQ,0F8C2C7B-B9B1-47A8-ADC4-C899E24AAFEC,2023-09-27_13h21.11.620,WP_VExplicitOC_LH,2022.2.5,Win32,16.40043297,52.34375,4.2095,2.0039,NA,NA,NA,NA,NA,bored,"bored, not bored","more bored, less bored",NA,NA,NA,NA,NA,NA,NA,NA,NA,NA,NA,NA,NA,NA,NA,NA,NA,NA,NA,NA,NA,NA,NA,NA,NA,NA,NA,NA,NA,NA,NA,NA,NA,NA,NA,NA,NA,NA,0,0,0,2,1,NA,NA,NA,NA,NA
SUPAMT21062,3WMINLGALH2UECNHMFMRA66UC1DACQ,0F8C2C7B-B9B1-47A8-ADC4-C899E24AAFEC,2023-09-27_13h21.11.620,WP_VExplicitOC_LH,2022.2.5,Win32,16.40043297,36.45833333,3.7374,2.0787,NA,NA,NA,NA,NA,frustrated,"frustrated, not frustrated","more frustrated, less frustrated",NA,NA,NA,NA,NA,NA,NA,NA,NA,NA,NA,NA,NA,NA,NA,NA,NA,NA,NA,NA,NA,NA,NA,NA,NA,NA,NA,NA,NA,NA,NA,NA,NA,NA,NA,NA,NA,NA,0,1,1,1,1,NA,NA,NA,NA,NA
SUPAMT21062,3WMINLGALH2UECNHMFMRA66UC1DACQ,0F8C2C7B-B9B1-47A8-ADC4-C899E24AAFEC,2023-09-27_13h21.11.620,WP_VExplicitOC_LH,2022.2.5,Win32,16.40043297,53.64583333,3.8023,2.016,NA,NA,NA,NA,NA,happy,"unhappy, happy","less happy, more happy",NA,NA,NA,NA,NA,NA,NA,NA,NA,NA,NA,NA,NA,NA,NA,NA,NA,NA,NA,NA,NA,NA,NA,NA,NA,NA,NA,NA,NA,NA,NA,NA,NA,NA,NA,NA,NA,NA,0,2,2,0,1,NA,NA,NA,NA,NA
SUPAMT21062,3WMINLGALH2UECNHMFMRA66UC1DACQ,0F8C2C7B-B9B1-47A8-ADC4-C899E24AAFEC,2023-09-27_13h21.11.620,WP_VExplicitOC_LH,2022.2.5,Win32,16.40043297,NA,NA,NA,NA,NA,NA,NA,NA,NA,NA,NA,NA,NA,NA,NA,NA,NA,NA,NA,NA,NA,NA,NA,NA,NA,NA,NA,NA,NA,NA,NA,NA,NA,NA,NA,NA,NA,NA,NA,NA,NA,NA,NA,NA,NA,NA,NA,NA,NA,NA,NA,NA,NA,NA,0,0,0,0,1
SUPAMT21062,3WMINLGALH2UECNHMFMRA66UC1DACQ,0F8C2C7B-B9B1-47A8-ADC4-C899E24AAFEC,2023-09-27_13h21.11.620,WP_VExplicitOC_LH,2022.2.5,Win32,16.40043297,48.4375,3.7595,2.0999,NA,NA,NA,NA,NA,frustrated,"frustrated, not frustrated","more frustrated, less frustrated",NA,NA,NA,NA,NA,NA,NA,NA,NA,NA,NA,NA,NA,NA,NA,NA,NA,NA,NA,NA,NA,NA,NA,NA,NA,NA,NA,NA,NA,NA,NA,NA,NA,NA,NA,NA,NA,NA,0,0,0,1,1,NA,NA,NA,NA,NA
SUPAMT21062,3WMINLGALH2UECNHMFMRA66UC1DACQ,0F8C2C7B-B9B1-47A8-ADC4-C899E24AAFEC,2023-09-27_13h21.11.620,WP_VExplicitOC_LH,2022.2.5,Win32,16.40043297,48.69791667,3.2809,2.05,NA,NA,NA,NA,NA,happy,"unhappy, happy","less happy, more happy",NA,NA,NA,NA,NA,NA,NA,NA,NA,NA,NA,NA,NA,NA,NA,NA,NA,NA,NA,NA,NA,NA,NA,NA,NA,NA,NA,NA,NA,NA,NA,NA,NA,NA,NA,NA,NA,NA,0,1,1,0,1,NA,NA,NA,NA,NA
SUPAMT21062,3WMINLGALH2UECNHMFMRA66UC1DACQ,0F8C2C7B-B9B1-47A8-ADC4-C899E24AAFEC,2023-09-27_13h21.11.620,WP_VExplicitOC_LH,2022.2.5,Win32,16.40043297,52.08333333,3.7357,2.0623,NA,NA,NA,NA,NA,bored,"bored, not bored","more bored, less bored",NA,NA,NA,NA,NA,NA,NA,NA,NA,NA,NA,NA,NA,NA,NA,NA,NA,NA,NA,NA,NA,NA,NA,NA,NA,NA,NA,NA,NA,NA,NA,NA,NA,NA,NA,NA,NA,NA,0,2,2,2,1,NA,NA,NA,NA,NA
SUPAMT21062,3WMINLGALH2UECNHMFMRA66UC1DACQ,0F8C2C7B-B9B1-47A8-ADC4-C899E24AAFEC,2023-09-27_13h21.11.620,WP_VExplicitOC_LH,2022.2.5,Win32,16.40043297,NA,NA,NA,NA,NA,NA,NA,NA,NA,NA,NA,NA,NA,NA,NA,NA,NA,NA,NA,NA,NA,NA,NA,NA,NA,NA,NA,NA,NA,NA,NA,NA,NA,NA,NA,NA,NA,NA,NA,NA,NA,NA,NA,NA,NA,NA,NA,NA,NA,NA,NA,NA,NA,NA,1,0,1,0,1
SUPAMT21062,3WMINLGALH2UECNHMFMRA66UC1DACQ,0F8C2C7B-B9B1-47A8-ADC4-C899E24AAFEC,2023-09-27_13h21.11.620,WP_VExplicitOC_LH,2022.2.5,Win32,16.40043297,49.73958333,3.8784,2.0915,NA,NA,NA,NA,NA,frustrated,"frustrated, not frustrated","more frustrated, less frustrated",NA,NA,NA,NA,NA,NA,NA,NA,NA,NA,NA,NA,NA,NA,NA,NA,NA,NA,NA,NA,NA,NA,NA,NA,NA,NA,NA,NA,NA,NA,NA,NA,NA,NA,NA,NA,NA,NA,0,0,0,1,1,NA,NA,NA,NA,NA
SUPAMT21062,3WMINLGALH2UECNHMFMRA66UC1DACQ,0F8C2C7B-B9B1-47A8-ADC4-C899E24AAFEC,2023-09-27_13h21.11.620,WP_VExplicitOC_LH,2022.2.5,Win32,16.40043297,51.30208333,4.4701,2.0996,NA,NA,NA,NA,NA,happy,"unhappy, happy","less happy, more happy",NA,NA,NA,NA,NA,NA,NA,NA,NA,NA,NA,NA,NA,NA,NA,NA,NA,NA,NA,NA,NA,NA,NA,NA,NA,NA,NA,NA,NA,NA,NA,NA,NA,NA,NA,NA,NA,NA,0,1,1,0,1,NA,NA,NA,NA,NA
SUPAMT21062,3WMINLGALH2UECNHMFMRA66UC1DACQ,0F8C2C7B-B9B1-47A8-ADC4-C899E24AAFEC,2023-09-27_13h21.11.620,WP_VExplicitOC_LH,2022.2.5,Win32,16.40043297,51.30208333,3.6048,2.0713,NA,NA,NA,NA,NA,bored,"bored, not bored","more bored, less bored",NA,NA,NA,NA,NA,NA,NA,NA,NA,NA,NA,NA,NA,NA,NA,NA,NA,NA,NA,NA,NA,NA,NA,NA,NA,NA,NA,NA,NA,NA,NA,NA,NA,NA,NA,NA,NA,NA,0,2,2,2,1,NA,NA,NA,NA,NA
SUPAMT21062,3WMINLGALH2UECNHMFMRA66UC1DACQ,0F8C2C7B-B9B1-47A8-ADC4-C899E24AAFEC,2023-09-27_13h21.11.620,WP_VExplicitOC_LH,2022.2.5,Win32,16.40043297,NA,NA,NA,NA,NA,NA,NA,NA,NA,NA,NA,NA,NA,NA,NA,NA,NA,NA,NA,NA,NA,NA,NA,NA,NA,NA,NA,NA,NA,NA,NA,NA,NA,NA,NA,NA,NA,NA,NA,NA,NA,NA,NA,NA,NA,NA,NA,NA,NA,NA,NA,NA,NA,NA,2,0,2,0,1
SUPAMT21062,3WMINLGALH2UECNHMFMRA66UC1DACQ,0F8C2C7B-B9B1-47A8-ADC4-C899E24AAFEC,2023-09-27_13h21.11.620,WP_VExplicitOC_LH,2022.2.5,Win32,16.40043297,40.625,3.9656,2.0321,NA,NA,NA,NA,NA,frustrated,"frustrated, not frustrated","more frustrated, less frustrated",NA,NA,NA,NA,NA,NA,NA,NA,NA,NA,NA,NA,NA,NA,NA,NA,NA,NA,NA,NA,NA,NA,NA,NA,NA,NA,NA,NA,NA,NA,NA,NA,NA,NA,NA,NA,NA,NA,0,0,0,1,1,NA,NA,NA,NA,NA
SUPAMT21062,3WMINLGALH2UECNHMFMRA66UC1DACQ,0F8C2C7B-B9B1-47A8-ADC4-C899E24AAFEC,2023-09-27_13h21.11.620,WP_VExplicitOC_LH,2022.2.5,Win32,16.40043297,49.21875,3.757,2.0482,NA,NA,NA,NA,NA,bored,"bored, not bored","more bored, less bored",NA,NA,NA,NA,NA,NA,NA,NA,NA,NA,NA,NA,NA,NA,NA,NA,NA,NA,NA,NA,NA,NA,NA,NA,NA,NA,NA,NA,NA,NA,NA,NA,NA,NA,NA,NA,NA,NA,0,1,1,2,1,NA,NA,NA,NA,NA
SUPAMT21062,3WMINLGALH2UECNHMFMRA66UC1DACQ,0F8C2C7B-B9B1-47A8-ADC4-C899E24AAFEC,2023-09-27_13h21.11.620,WP_VExplicitOC_LH,2022.2.5,Win32,16.40043297,48.95833333,4.861,2.02,NA,NA,NA,NA,NA,happy,"unhappy, happy","less happy, more happy",NA,NA,NA,NA,NA,NA,NA,NA,NA,NA,NA,NA,NA,NA,NA,NA,NA,NA,NA,NA,NA,NA,NA,NA,NA,NA,NA,NA,NA,NA,NA,NA,NA,NA,NA,NA,NA,NA,0,2,2,0,1,NA,NA,NA,NA,NA
SUPAMT21062,3WMINLGALH2UECNHMFMRA66UC1DACQ,0F8C2C7B-B9B1-47A8-ADC4-C899E24AAFEC,2023-09-27_13h21.11.620,WP_VExplicitOC_LH,2022.2.5,Win32,16.40043297,NA,NA,NA,NA,NA,NA,NA,NA,NA,NA,NA,NA,NA,NA,NA,NA,NA,NA,NA,NA,NA,NA,NA,NA,NA,NA,NA,NA,NA,NA,NA,NA,NA,NA,NA,NA,NA,NA,NA,NA,NA,NA,NA,NA,NA,NA,NA,NA,NA,NA,NA,NA,NA,NA,3,0,3,0,1
SUPAMT21062,3WMINLGALH2UECNHMFMRA66UC1DACQ,0F8C2C7B-B9B1-47A8-ADC4-C899E24AAFEC,2023-09-27_13h21.11.620,WP_VExplicitOC_LH,2022.2.5,Win32,16.40043297,51.5625,6.3408,2.0407,NA,NA,NA,NA,NA,frustrated,"frustrated, not frustrated","more frustrated, less frustrated",NA,NA,NA,NA,NA,NA,NA,NA,NA,NA,NA,NA,NA,NA,NA,NA,NA,NA,NA,NA,NA,NA,NA,NA,NA,NA,NA,NA,NA,NA,NA,NA,NA,NA,NA,NA,NA,NA,0,0,0,1,1,NA,NA,NA,NA,NA
SUPAMT21062,3WMINLGALH2UECNHMFMRA66UC1DACQ,0F8C2C7B-B9B1-47A8-ADC4-C899E24AAFEC,2023-09-27_13h21.11.620,WP_VExplicitOC_LH,2022.2.5,Win32,16.40043297,55.46875,3.5578,2.0321,NA,NA,NA,NA,NA,bored,"bored, not bored","more bored, less bored",NA,NA,NA,NA,NA,NA,NA,NA,NA,NA,NA,NA,NA,NA,NA,NA,NA,NA,NA,NA,NA,NA,NA,NA,NA,NA,NA,NA,NA,NA,NA,NA,NA,NA,NA,NA,NA,NA,0,1,1,2,1,NA,NA,NA,NA,NA
SUPAMT21062,3WMINLGALH2UECNHMFMRA66UC1DACQ,0F8C2C7B-B9B1-47A8-ADC4-C899E24AAFEC,2023-09-27_13h21.11.620,WP_VExplicitOC_LH,2022.2.5,Win32,16.40043297,NA,NA,2.0039,NA,NA,NA,NA,NA,happy,"unhappy, happy","less happy, more happy",NA,NA,NA,NA,NA,NA,NA,NA,NA,NA,NA,NA,NA,NA,NA,NA,NA,NA,NA,NA,NA,NA,NA,NA,NA,NA,NA,NA,NA,NA,NA,NA,NA,NA,NA,NA,NA,NA,0,2,2,0,1,NA,NA,NA,NA,NA
SUPAMT21062,3WMINLGALH2UECNHMFMRA66UC1DACQ,0F8C2C7B-B9B1-47A8-ADC4-C899E24AAFEC,2023-09-27_13h21.11.620,WP_VExplicitOC_LH,2022.2.5,Win32,16.40043297,NA,NA,NA,NA,NA,NA,NA,NA,NA,NA,NA,NA,NA,NA,NA,NA,NA,NA,NA,NA,NA,NA,NA,NA,NA,NA,NA,NA,NA,NA,NA,NA,NA,NA,NA,NA,NA,NA,NA,NA,NA,NA,NA,NA,NA,NA,NA,NA,NA,NA,NA,NA,NA,NA,4,0,4,0,1
SUPAMT21062,3WMINLGALH2UECNHMFMRA66UC1DACQ,0F8C2C7B-B9B1-47A8-ADC4-C899E24AAFEC,2023-09-27_13h21.11.620,WP_VExplicitOC_LH,2022.2.5,Win32,16.40043297,60.67708333,3.3664,2.0392,NA,NA,NA,NA,NA,happy,"unhappy, happy","less happy, more happy",NA,NA,NA,NA,NA,NA,NA,NA,NA,NA,NA,NA,NA,NA,NA,NA,NA,NA,NA,NA,NA,NA,NA,NA,NA,NA,NA,NA,NA,NA,NA,NA,NA,NA,NA,NA,NA,NA,0,0,0,0,1,NA,NA,NA,NA,NA
SUPAMT21062,3WMINLGALH2UECNHMFMRA66UC1DACQ,0F8C2C7B-B9B1-47A8-ADC4-C899E24AAFEC,2023-09-27_13h21.11.620,WP_VExplicitOC_LH,2022.2.5,Win32,16.40043297,60.67708333,3.3931,2.046,NA,NA,NA,NA,NA,frustrated,"frustrated, not frustrated","more frustrated, less frustrated",NA,NA,NA,NA,NA,NA,NA,NA,NA,NA,NA,NA,NA,NA,NA,NA,NA,NA,NA,NA,NA,NA,NA,NA,NA,NA,NA,NA,NA,NA,NA,NA,NA,NA,NA,NA,NA,NA,0,1,1,1,1,NA,NA,NA,NA,NA
SUPAMT21062,3WMINLGALH2UECNHMFMRA66UC1DACQ,0F8C2C7B-B9B1-47A8-ADC4-C899E24AAFEC,2023-09-27_13h21.11.620,WP_VExplicitOC_LH,2022.2.5,Win32,16.40043297,64.58333333,3.6563,2.0714,NA,NA,NA,NA,NA,bored,"bored, not bored","more bored, less bored",NA,NA,NA,NA,NA,NA,NA,NA,NA,NA,NA,NA,NA,NA,NA,NA,NA,NA,NA,NA,NA,NA,NA,NA,NA,NA,NA,NA,NA,NA,NA,NA,NA,NA,NA,NA,NA,NA,0,2,2,2,1,NA,NA,NA,NA,NA
SUPAMT21062,3WMINLGALH2UECNHMFMRA66UC1DACQ,0F8C2C7B-B9B1-47A8-ADC4-C899E24AAFEC,2023-09-27_13h21.11.620,WP_VExplicitOC_LH,2022.2.5,Win32,16.40043297,NA,NA,NA,NA,NA,NA,NA,NA,NA,NA,NA,NA,NA,NA,NA,NA,NA,NA,NA,NA,NA,NA,NA,NA,NA,NA,NA,NA,NA,NA,NA,NA,NA,NA,NA,NA,NA,NA,NA,NA,NA,NA,NA,NA,NA,NA,NA,NA,NA,NA,NA,NA,NA,NA,5,0,5,0,1
SUPAMT21062,3WMINLGALH2UECNHMFMRA66UC1DACQ,0F8C2C7B-B9B1-47A8-ADC4-C899E24AAFEC,2023-09-27_13h21.11.620,WP_VExplicitOC_LH,2022.2.5,Win32,16.40043297,44.79166667,3.5381,2.0058,NA,NA,NA,NA,NA,bored,"bored, not bored","more bored, less bored",NA,NA,NA,NA,NA,NA,NA,NA,NA,NA,NA,NA,NA,NA,NA,NA,NA,NA,NA,NA,NA,NA,NA,NA,NA,NA,NA,NA,NA,NA,NA,NA,NA,NA,NA,NA,NA,NA,0,0,0,2,1,NA,NA,NA,NA,NA
SUPAMT21062,3WMINLGALH2UECNHMFMRA66UC1DACQ,0F8C2C7B-B9B1-47A8-ADC4-C899E24AAFEC,2023-09-27_13h21.11.620,WP_VExplicitOC_LH,2022.2.5,Win32,16.40043297,51.04166667,3.3815,2.0825,NA,NA,NA,NA,NA,happy,"unhappy, happy","less happy, more happy",NA,NA,NA,NA,NA,NA,NA,NA,NA,NA,NA,NA,NA,NA,NA,NA,NA,NA,NA,NA,NA,NA,NA,NA,NA,NA,NA,NA,NA,NA,NA,NA,NA,NA,NA,NA,NA,NA,0,1,1,0,1,NA,NA,NA,NA,NA
SUPAMT21062,3WMINLGALH2UECNHMFMRA66UC1DACQ,0F8C2C7B-B9B1-47A8-ADC4-C899E24AAFEC,2023-09-27_13h21.11.620,WP_VExplicitOC_LH,2022.2.5,Win32,16.40043297,63.80208333,3.6453,2.1097,NA,NA,NA,NA,NA,frustrated,"frustrated, not frustrated","more frustrated, less frustrated",NA,NA,NA,NA,NA,NA,NA,NA,NA,NA,NA,NA,NA,NA,NA,NA,NA,NA,NA,NA,NA,NA,NA,NA,NA,NA,NA,NA,NA,NA,NA,NA,NA,NA,NA,NA,NA,NA,0,2,2,1,1,NA,NA,NA,NA,NA
SUPAMT21062,3WMINLGALH2UECNHMFMRA66UC1DACQ,0F8C2C7B-B9B1-47A8-ADC4-C899E24AAFEC,2023-09-27_13h21.11.620,WP_VExplicitOC_LH,2022.2.5,Win32,16.40043297,NA,NA,NA,NA,NA,NA,NA,NA,NA,NA,NA,NA,NA,NA,NA,NA,NA,NA,NA,NA,NA,NA,NA,NA,NA,NA,NA,NA,NA,NA,NA,NA,NA,NA,NA,NA,NA,NA,NA,NA,NA,NA,NA,NA,NA,NA,NA,NA,NA,NA,NA,NA,NA,NA,6,0,6,0,1
SUPAMT21062,3WMINLGALH2UECNHMFMRA66UC1DACQ,0F8C2C7B-B9B1-47A8-ADC4-C899E24AAFEC,2023-09-27_13h21.11.620,WP_VExplicitOC_LH,2022.2.5,Win32,16.40043297,57.29166667,3.4059,2.0528,NA,NA,NA,NA,NA,frustrated,"frustrated, not frustrated","more frustrated, less frustrated",NA,NA,NA,NA,NA,NA,NA,NA,NA,NA,NA,NA,NA,NA,NA,NA,NA,NA,NA,NA,NA,NA,NA,NA,NA,NA,NA,NA,NA,NA,NA,NA,NA,NA,NA,NA,NA,NA,0,0,0,1,1,NA,NA,NA,NA,NA
SUPAMT21062,3WMINLGALH2UECNHMFMRA66UC1DACQ,0F8C2C7B-B9B1-47A8-ADC4-C899E24AAFEC,2023-09-27_13h21.11.620,WP_VExplicitOC_LH,2022.2.5,Win32,16.40043297,72.39583333,3.7445,2.0114,NA,NA,NA,NA,NA,happy,"unhappy, happy","less happy, more happy",NA,NA,NA,NA,NA,NA,NA,NA,NA,NA,NA,NA,NA,NA,NA,NA,NA,NA,NA,NA,NA,NA,NA,NA,NA,NA,NA,NA,NA,NA,NA,NA,NA,NA,NA,NA,NA,NA,0,1,1,0,1,NA,NA,NA,NA,NA
SUPAMT21062,3WMINLGALH2UECNHMFMRA66UC1DACQ,0F8C2C7B-B9B1-47A8-ADC4-C899E24AAFEC,2023-09-27_13h21.11.620,WP_VExplicitOC_LH,2022.2.5,Win32,16.40043297,78.125,3.3468,2.0408,NA,NA,NA,NA,NA,bored,"bored, not bored","more bored, less bored",NA,NA,NA,NA,NA,NA,NA,NA,NA,NA,NA,NA,NA,NA,NA,NA,NA,NA,NA,NA,NA,NA,NA,NA,NA,NA,NA,NA,NA,NA,NA,NA,NA,NA,NA,NA,NA,NA,0,2,2,2,1,NA,NA,NA,NA,NA
SUPAMT21062,3WMINLGALH2UECNHMFMRA66UC1DACQ,0F8C2C7B-B9B1-47A8-ADC4-C899E24AAFEC,2023-09-27_13h21.11.620,WP_VExplicitOC_LH,2022.2.5,Win32,16.40043297,NA,NA,NA,NA,NA,NA,NA,NA,NA,NA,NA,NA,NA,NA,NA,NA,NA,NA,NA,NA,NA,NA,NA,NA,NA,NA,NA,NA,NA,NA,NA,NA,NA,NA,NA,NA,NA,NA,NA,NA,NA,NA,NA,NA,NA,NA,NA,NA,NA,NA,NA,NA,NA,NA,7,0,7,0,1
SUPAMT21062,3WMINLGALH2UECNHMFMRA66UC1DACQ,0F8C2C7B-B9B1-47A8-ADC4-C899E24AAFEC,2023-09-27_13h21.11.620,WP_VExplicitOC_LH,2022.2.5,Win32,16.40043297,58.85416667,3.4409,2.09,NA,NA,NA,NA,NA,happy,"unhappy, happy","less happy, more happy",NA,NA,NA,NA,NA,NA,NA,NA,NA,NA,NA,NA,NA,NA,NA,NA,NA,NA,NA,NA,NA,NA,NA,NA,NA,NA,NA,NA,NA,NA,NA,NA,NA,NA,NA,NA,NA,NA,0,0,0,0,1,NA,NA,NA,NA,NA
SUPAMT21062,3WMINLGALH2UECNHMFMRA66UC1DACQ,0F8C2C7B-B9B1-47A8-ADC4-C899E24AAFEC,2023-09-27_13h21.11.620,WP_VExplicitOC_LH,2022.2.5,Win32,16.40043297,63.28125,3.5556,2.0966,NA,NA,NA,NA,NA,frustrated,"frustrated, not frustrated","more frustrated, less frustrated",NA,NA,NA,NA,NA,NA,NA,NA,NA,NA,NA,NA,NA,NA,NA,NA,NA,NA,NA,NA,NA,NA,NA,NA,NA,NA,NA,NA,NA,NA,NA,NA,NA,NA,NA,NA,NA,NA,0,1,1,1,1,NA,NA,NA,NA,NA
SUPAMT21062,3WMINLGALH2UECNHMFMRA66UC1DACQ,0F8C2C7B-B9B1-47A8-ADC4-C899E24AAFEC,2023-09-27_13h21.11.620,WP_VExplicitOC_LH,2022.2.5,Win32,16.40043297,56.25,3.4239,2.0196,NA,NA,NA,NA,NA,bored,"bored, not bored","more bored, less bored",NA,NA,NA,NA,NA,NA,NA,NA,NA,NA,NA,NA,NA,NA,NA,NA,NA,NA,NA,NA,NA,NA,NA,NA,NA,NA,NA,NA,NA,NA,NA,NA,NA,NA,NA,NA,NA,NA,0,2,2,2,1,NA,NA,NA,NA,NA
SUPAMT21062,3WMINLGALH2UECNHMFMRA66UC1DACQ,0F8C2C7B-B9B1-47A8-ADC4-C899E24AAFEC,2023-09-27_13h21.11.620,WP_VExplicitOC_LH,2022.2.5,Win32,16.40043297,NA,NA,NA,NA,NA,NA,NA,NA,NA,NA,NA,NA,NA,NA,NA,NA,NA,NA,NA,NA,NA,NA,NA,NA,NA,NA,NA,NA,NA,NA,NA,NA,NA,NA,NA,NA,NA,NA,NA,NA,NA,NA,NA,NA,NA,NA,NA,NA,NA,NA,NA,NA,NA,NA,8,0,8,0,1
SUPAMT21062,3WMINLGALH2UECNHMFMRA66UC1DACQ,0F8C2C7B-B9B1-47A8-ADC4-C899E24AAFEC,2023-09-27_13h21.11.620,WP_VExplicitOC_LH,2022.2.5,Win32,16.40043297,46.875,6.0196,2.0247,NA,NA,NA,NA,NA,happy,"unhappy, happy","less happy, more happy",NA,NA,NA,NA,NA,NA,NA,NA,NA,NA,NA,NA,NA,NA,NA,NA,NA,NA,NA,NA,NA,NA,NA,NA,NA,NA,NA,NA,NA,NA,NA,NA,NA,NA,NA,NA,NA,NA,0,0,0,0,1,NA,NA,NA,NA,NA
SUPAMT21062,3WMINLGALH2UECNHMFMRA66UC1DACQ,0F8C2C7B-B9B1-47A8-ADC4-C899E24AAFEC,2023-09-27_13h21.11.620,WP_VExplicitOC_LH,2022.2.5,Win32,16.40043297,51.5625,3.9652,2.0699,NA,NA,NA,NA,NA,frustrated,"frustrated, not frustrated","more frustrated, less frustrated",NA,NA,NA,NA,NA,NA,NA,NA,NA,NA,NA,NA,NA,NA,NA,NA,NA,NA,NA,NA,NA,NA,NA,NA,NA,NA,NA,NA,NA,NA,NA,NA,NA,NA,NA,NA,NA,NA,0,1,1,1,1,NA,NA,NA,NA,NA
SUPAMT21062,3WMINLGALH2UECNHMFMRA66UC1DACQ,0F8C2C7B-B9B1-47A8-ADC4-C899E24AAFEC,2023-09-27_13h21.11.620,WP_VExplicitOC_LH,2022.2.5,Win32,16.40043297,63.28125,3.7334,2.0647,NA,NA,NA,NA,NA,bored,"bored, not bored","more bored, less bored",NA,NA,NA,NA,NA,NA,NA,NA,NA,NA,NA,NA,NA,NA,NA,NA,NA,NA,NA,NA,NA,NA,NA,NA,NA,NA,NA,NA,NA,NA,NA,NA,NA,NA,NA,NA,NA,NA,0,2,2,2,1,NA,NA,NA,NA,NA
SUPAMT21062,3WMINLGALH2UECNHMFMRA66UC1DACQ,0F8C2C7B-B9B1-47A8-ADC4-C899E24AAFEC,2023-09-27_13h21.11.620,WP_VExplicitOC_LH,2022.2.5,Win32,16.40043297,NA,NA,NA,NA,NA,NA,NA,NA,NA,NA,NA,NA,NA,NA,NA,NA,NA,NA,NA,NA,NA,NA,NA,NA,NA,NA,NA,NA,NA,NA,NA,NA,NA,NA,NA,NA,NA,NA,NA,NA,NA,NA,NA,NA,NA,NA,NA,NA,NA,NA,NA,NA,NA,NA,9,0,9,0,1
SUPAMT21062,3WMINLGALH2UECNHMFMRA66UC1DACQ,0F8C2C7B-B9B1-47A8-ADC4-C899E24AAFEC,2023-09-27_13h21.11.620,WP_VExplicitOC_LH,2022.2.5,Win32,16.40043297,51.30208333,3.5872,2.0783,NA,NA,NA,NA,NA,happy,"unhappy, happy","less happy, more happy",NA,NA,NA,NA,NA,NA,NA,NA,NA,NA,NA,NA,NA,NA,NA,NA,NA,NA,NA,NA,NA,NA,NA,NA,NA,NA,NA,NA,NA,NA,NA,NA,NA,NA,NA,NA,NA,NA,0,0,0,0,1,NA,NA,NA,NA,NA
SUPAMT21062,3WMINLGALH2UECNHMFMRA66UC1DACQ,0F8C2C7B-B9B1-47A8-ADC4-C899E24AAFEC,2023-09-27_13h21.11.620,WP_VExplicitOC_LH,2022.2.5,Win32,16.40043297,50.26041667,3.9385,2.0289,NA,NA,NA,NA,NA,bored,"bored, not bored","more bored, less bored",NA,NA,NA,NA,NA,NA,NA,NA,NA,NA,NA,NA,NA,NA,NA,NA,NA,NA,NA,NA,NA,NA,NA,NA,NA,NA,NA,NA,NA,NA,NA,NA,NA,NA,NA,NA,NA,NA,0,1,1,2,1,NA,NA,NA,NA,NA
SUPAMT21062,3WMINLGALH2UECNHMFMRA66UC1DACQ,0F8C2C7B-B9B1-47A8-ADC4-C899E24AAFEC,2023-09-27_13h21.11.620,WP_VExplicitOC_LH,2022.2.5,Win32,16.40043297,39.32291667,3.6877,2.0471,NA,NA,NA,NA,NA,frustrated,"frustrated, not frustrated","more frustrated, less frustrated",NA,NA,NA,NA,NA,NA,NA,NA,NA,NA,NA,NA,NA,NA,NA,NA,NA,NA,NA,NA,NA,NA,NA,NA,NA,NA,NA,NA,NA,NA,NA,NA,NA,NA,NA,NA,NA,NA,0,2,2,1,1,NA,NA,NA,NA,NA
SUPAMT21062,3WMINLGALH2UECNHMFMRA66UC1DACQ,0F8C2C7B-B9B1-47A8-ADC4-C899E24AAFEC,2023-09-27_13h21.11.620,WP_VExplicitOC_LH,2022.2.5,Win32,16.40043297,NA,NA,NA,NA,NA,NA,NA,NA,NA,NA,NA,NA,NA,NA,NA,NA,NA,NA,NA,NA,NA,NA,NA,NA,NA,NA,NA,NA,NA,NA,NA,NA,NA,NA,NA,NA,NA,NA,NA,NA,NA,NA,NA,NA,NA,NA,NA,NA,NA,NA,NA,NA,NA,NA,10,0,10,0,1
SUPAMT21062,3WMINLGALH2UECNHMFMRA66UC1DACQ,0F8C2C7B-B9B1-47A8-ADC4-C899E24AAFEC,2023-09-27_13h21.11.620,WP_VExplicitOC_LH,2022.2.5,Win32,16.40043297,48.17708333,3.4735,2.0797,NA,NA,NA,NA,NA,frustrated,"frustrated, not frustrated","more frustrated, less frustrated",NA,NA,NA,NA,NA,NA,NA,NA,NA,NA,NA,NA,NA,NA,NA,NA,NA,NA,NA,NA,NA,NA,NA,NA,NA,NA,NA,NA,NA,NA,NA,NA,NA,NA,NA,NA,NA,NA,0,0,0,1,1,NA,NA,NA,NA,NA
SUPAMT21062,3WMINLGALH2UECNHMFMRA66UC1DACQ,0F8C2C7B-B9B1-47A8-ADC4-C899E24AAFEC,2023-09-27_13h21.11.620,WP_VExplicitOC_LH,2022.2.5,Win32,16.40043297,44.27083333,3.7038,2.1168,NA,NA,NA,NA,NA,bored,"bored, not bored","more bored, less bored",NA,NA,NA,NA,NA,NA,NA,NA,NA,NA,NA,NA,NA,NA,NA,NA,NA,NA,NA,NA,NA,NA,NA,NA,NA,NA,NA,NA,NA,NA,NA,NA,NA,NA,NA,NA,NA,NA,0,1,1,2,1,NA,NA,NA,NA,NA
SUPAMT21062,3WMINLGALH2UECNHMFMRA66UC1DACQ,0F8C2C7B-B9B1-47A8-ADC4-C899E24AAFEC,2023-09-27_13h21.11.620,WP_VExplicitOC_LH,2022.2.5,Win32,16.40043297,57.03125,3.4099,2.0292,NA,NA,NA,NA,NA,happy,"unhappy, happy","less happy, more happy",NA,NA,NA,NA,NA,NA,NA,NA,NA,NA,NA,NA,NA,NA,NA,NA,NA,NA,NA,NA,NA,NA,NA,NA,NA,NA,NA,NA,NA,NA,NA,NA,NA,NA,NA,NA,NA,NA,0,2,2,0,1,NA,NA,NA,NA,NA
SUPAMT21062,3WMINLGALH2UECNHMFMRA66UC1DACQ,0F8C2C7B-B9B1-47A8-ADC4-C899E24AAFEC,2023-09-27_13h21.11.620,WP_VExplicitOC_LH,2022.2.5,Win32,16.40043297,NA,NA,NA,NA,NA,NA,NA,NA,NA,NA,NA,NA,NA,NA,NA,NA,NA,NA,NA,NA,NA,NA,NA,NA,NA,NA,NA,NA,NA,NA,NA,NA,NA,NA,NA,NA,NA,NA,NA,NA,NA,NA,NA,NA,NA,NA,NA,NA,NA,NA,NA,NA,NA,NA,11,0,11,0,1
SUPAMT21062,3WMINLGALH2UECNHMFMRA66UC1DACQ,0F8C2C7B-B9B1-47A8-ADC4-C899E24AAFEC,2023-09-27_13h21.11.620,WP_VExplicitOC_LH,2022.2.5,Win32,16.40043297,38.02083333,3.6598,2.0316,NA,NA,NA,NA,NA,frustrated,"frustrated, not frustrated","more frustrated, less frustrated",NA,NA,NA,NA,NA,NA,NA,NA,NA,NA,NA,NA,NA,NA,NA,NA,NA,NA,NA,NA,NA,NA,NA,NA,NA,NA,NA,NA,NA,NA,NA,NA,NA,NA,NA,NA,NA,NA,0,0,0,1,1,NA,NA,NA,NA,NA
SUPAMT21062,3WMINLGALH2UECNHMFMRA66UC1DACQ,0F8C2C7B-B9B1-47A8-ADC4-C899E24AAFEC,2023-09-27_13h21.11.620,WP_VExplicitOC_LH,2022.2.5,Win32,16.40043297,50.78125,3.6269,2.0741,NA,NA,NA,NA,NA,happy,"unhappy, happy","less happy, more happy",NA,NA,NA,NA,NA,NA,NA,NA,NA,NA,NA,NA,NA,NA,NA,NA,NA,NA,NA,NA,NA,NA,NA,NA,NA,NA,NA,NA,NA,NA,NA,NA,NA,NA,NA,NA,NA,NA,0,1,1,0,1,NA,NA,NA,NA,NA
SUPAMT21062,3WMINLGALH2UECNHMFMRA66UC1DACQ,0F8C2C7B-B9B1-47A8-ADC4-C899E24AAFEC,2023-09-27_13h21.11.620,WP_VExplicitOC_LH,2022.2.5,Win32,16.40043297,46.09375,3.74,2.0161,NA,NA,NA,NA,NA,bored,"bored, not bored","more bored, less bored",NA,NA,NA,NA,NA,NA,NA,NA,NA,NA,NA,NA,NA,NA,NA,NA,NA,NA,NA,NA,NA,NA,NA,NA,NA,NA,NA,NA,NA,NA,NA,NA,NA,NA,NA,NA,NA,NA,0,2,2,2,1,NA,NA,NA,NA,NA
SUPAMT21062,3WMINLGALH2UECNHMFMRA66UC1DACQ,0F8C2C7B-B9B1-47A8-ADC4-C899E24AAFEC,2023-09-27_13h21.11.620,WP_VExplicitOC_LH,2022.2.5,Win32,16.40043297,NA,NA,NA,NA,NA,NA,NA,NA,NA,NA,NA,NA,NA,NA,NA,NA,NA,NA,NA,NA,NA,NA,NA,NA,NA,NA,NA,NA,NA,NA,NA,NA,NA,NA,NA,NA,NA,NA,NA,NA,NA,NA,NA,NA,NA,NA,NA,NA,NA,NA,NA,NA,NA,NA,12,0,12,0,1
SUPAMT21062,3WMINLGALH2UECNHMFMRA66UC1DACQ,0F8C2C7B-B9B1-47A8-ADC4-C899E24AAFEC,2023-09-27_13h21.11.620,WP_VExplicitOC_LH,2022.2.5,Win32,16.40043297,45.83333333,4.2002,2.0446,NA,NA,NA,NA,NA,frustrated,"frustrated, not frustrated","more frustrated, less frustrated",NA,NA,NA,NA,NA,NA,NA,NA,NA,NA,NA,NA,NA,NA,NA,NA,NA,NA,NA,NA,NA,NA,NA,NA,NA,NA,NA,NA,NA,NA,NA,NA,NA,NA,NA,NA,NA,NA,0,0,0,1,1,NA,NA,NA,NA,NA
SUPAMT21062,3WMINLGALH2UECNHMFMRA66UC1DACQ,0F8C2C7B-B9B1-47A8-ADC4-C899E24AAFEC,2023-09-27_13h21.11.620,WP_VExplicitOC_LH,2022.2.5,Win32,16.40043297,53.125,3.3274,2.0737,NA,NA,NA,NA,NA,bored,"bored, not bored","more bored, less bored",NA,NA,NA,NA,NA,NA,NA,NA,NA,NA,NA,NA,NA,NA,NA,NA,NA,NA,NA,NA,NA,NA,NA,NA,NA,NA,NA,NA,NA,NA,NA,NA,NA,NA,NA,NA,NA,NA,0,1,1,2,1,NA,NA,NA,NA,NA
SUPAMT21062,3WMINLGALH2UECNHMFMRA66UC1DACQ,0F8C2C7B-B9B1-47A8-ADC4-C899E24AAFEC,2023-09-27_13h21.11.620,WP_VExplicitOC_LH,2022.2.5,Win32,16.40043297,65.10416667,3.3939,2.0448,NA,NA,NA,NA,NA,happy,"unhappy, happy","less happy, more happy",NA,NA,NA,NA,NA,NA,NA,NA,NA,NA,NA,NA,NA,NA,NA,NA,NA,NA,NA,NA,NA,NA,NA,NA,NA,NA,NA,NA,NA,NA,NA,NA,NA,NA,NA,NA,NA,NA,0,2,2,0,1,NA,NA,NA,NA,NA
SUPAMT21062,3WMINLGALH2UECNHMFMRA66UC1DACQ,0F8C2C7B-B9B1-47A8-ADC4-C899E24AAFEC,2023-09-27_13h21.11.620,WP_VExplicitOC_LH,2022.2.5,Win32,16.40043297,NA,NA,NA,NA,NA,NA,NA,NA,NA,NA,NA,NA,NA,NA,NA,NA,NA,NA,NA,NA,NA,NA,NA,NA,NA,NA,NA,NA,NA,NA,NA,NA,NA,NA,NA,NA,NA,NA,NA,NA,NA,NA,NA,NA,NA,NA,NA,NA,NA,NA,NA,NA,NA,NA,13,0,13,0,1
SUPAMT21062,3WMINLGALH2UECNHMFMRA66UC1DACQ,0F8C2C7B-B9B1-47A8-ADC4-C899E24AAFEC,2023-09-27_13h21.11.620,WP_VExplicitOC_LH,2022.2.5,Win32,16.40043297,55.20833333,3.517,2.0429,NA,NA,NA,NA,NA,frustrated,"frustrated, not frustrated","more frustrated, less frustrated",NA,NA,NA,NA,NA,NA,NA,NA,NA,NA,NA,NA,NA,NA,NA,NA,NA,NA,NA,NA,NA,NA,NA,NA,NA,NA,NA,NA,NA,NA,NA,NA,NA,NA,NA,NA,NA,NA,0,0,0,1,1,NA,NA,NA,NA,NA
SUPAMT21062,3WMINLGALH2UECNHMFMRA66UC1DACQ,0F8C2C7B-B9B1-47A8-ADC4-C899E24AAFEC,2023-09-27_13h21.11.620,WP_VExplicitOC_LH,2022.2.5,Win32,16.40043297,65.625,3.9321,2.056,NA,NA,NA,NA,NA,happy,"unhappy, happy","less happy, more happy",NA,NA,NA,NA,NA,NA,NA,NA,NA,NA,NA,NA,NA,NA,NA,NA,NA,NA,NA,NA,NA,NA,NA,NA,NA,NA,NA,NA,NA,NA,NA,NA,NA,NA,NA,NA,NA,NA,0,1,1,0,1,NA,NA,NA,NA,NA
SUPAMT21062,3WMINLGALH2UECNHMFMRA66UC1DACQ,0F8C2C7B-B9B1-47A8-ADC4-C899E24AAFEC,2023-09-27_13h21.11.620,WP_VExplicitOC_LH,2022.2.5,Win32,16.40043297,72.39583333,3.5936,2.0718,NA,NA,NA,NA,NA,bored,"bored, not bored","more bored, less bored",NA,NA,NA,NA,NA,NA,NA,NA,NA,NA,NA,NA,NA,NA,NA,NA,NA,NA,NA,NA,NA,NA,NA,NA,NA,NA,NA,NA,NA,NA,NA,NA,NA,NA,NA,NA,NA,NA,0,2,2,2,1,NA,NA,NA,NA,NA
SUPAMT21062,3WMINLGALH2UECNHMFMRA66UC1DACQ,0F8C2C7B-B9B1-47A8-ADC4-C899E24AAFEC,2023-09-27_13h21.11.620,WP_VExplicitOC_LH,2022.2.5,Win32,16.40043297,NA,NA,NA,NA,NA,NA,NA,NA,NA,NA,NA,NA,NA,NA,NA,NA,NA,NA,NA,NA,NA,NA,NA,NA,NA,NA,NA,NA,NA,NA,NA,NA,NA,NA,NA,NA,NA,NA,NA,NA,NA,NA,NA,NA,NA,NA,NA,NA,NA,NA,NA,NA,NA,NA,14,0,14,0,1
SUPAMT21062,3WMINLGALH2UECNHMFMRA66UC1DACQ,0F8C2C7B-B9B1-47A8-ADC4-C899E24AAFEC,2023-09-27_13h21.11.620,WP_VExplicitOC_LH,2022.2.5,Win32,16.40043297,NA,NA,NA,NA,NA,NA,NA,NA,NA,NA,NA,NA,NA,NA,NA,NA,NA,NA,NA,NA,NA,NA,NA,NA,NA,NA,NA,NA,NA,NA,NA,NA,NA,NA,NA,NA,NA,NA,NA,NA,NA,NA,NA,NA,NA,NA,NA,NA,NA,NA,NA,NA,NA,NA,NA,NA,NA,NA,NA
