participant,session,completion,date,expName,psychopyVersion,OS,frameRate,rating_all.response,rating_all.rt,rating_all.tStart,rndRat1.thisRepN,rndRat1.thisTrialN,rndRat1.thisN,rndRat1.thisIndex,rndRat1.ran,Emo,Labs,Labs2,rating_alt.response,rating_alt.rt,AltC.thisRepN,AltC.thisTrialN,AltC.thisN,AltC.thisIndex,AltC.ran,alt_choices,pic_choices,BottomAlt_Choice,rndRat2.thisRepN,rndRat2.thisTrialN,rndRat2.thisN,rndRat2.thisIndex,rndRat2.ran,rndRat3.thisRepN,rndRat3.thisTrialN,rndRat3.thisN,rndRat3.thisIndex,rndRat3.ran,trials_FC_L.thisRepN,trials_FC_L.thisTrialN,trials_FC_L.thisN,trials_FC_L.thisIndex,trials_FC_L.ran,rating_alt_2.response,rating_alt_2.rt,AltC2.thisRepN,AltC2.thisTrialN,AltC2.thisN,AltC2.thisIndex,AltC2.ran,TopAlt_Choice,rndRat4.thisRepN,rndRat4.thisTrialN,rndRat4.thisN,rndRat4.thisIndex,rndRat4.ran,rndRat5.thisRepN,rndRat5.thisTrialN,rndRat5.thisN,rndRat5.thisIndex,rndRat5.ran,trials_FC_H.thisRepN,trials_FC_H.thisTrialN,trials_FC_H.thisN,trials_FC_H.thisIndex,trials_FC_H.ran
SUPAMT82077,34YB12FSQ4N8XPCBL48F9OM94J9GMN,B6882374-1DD7-42A7-B9E8-21CC219919C3,2023-09-28_21h29.39.135,WP_VExplicitOC_LH,2022.2.5,Win32,13.5171668,NA,NA,NA,NA,NA,NA,NA,NA,NA,NA,NA,NA,NA,NA,NA,NA,NA,NA,NA,NA,NA,NA,NA,NA,NA,NA,NA,NA,NA,NA,NA,NA,NA,NA,NA,NA,NA,NA,NA,NA,NA,NA,NA,NA,NA,NA,NA,NA,NA,NA,NA,NA,NA,NA,NA,NA,NA,NA,NA
SUPAMT82077,34YB12FSQ4N8XPCBL48F9OM94J9GMN,B6882374-1DD7-42A7-B9E8-21CC219919C3,2023-09-28_21h29.39.135,WP_VExplicitOC_LH,2022.2.5,Win32,13.5171668,NA,NA,NA,NA,NA,NA,NA,NA,NA,NA,NA,NA,NA,NA,NA,NA,NA,NA,NA,NA,NA,NA,NA,NA,NA,NA,NA,NA,NA,NA,NA,NA,NA,NA,NA,NA,NA,NA,NA,NA,NA,NA,NA,NA,NA,NA,NA,NA,NA,NA,NA,NA,NA,NA,NA,NA,NA,NA,NA
SUPAMT82077,34YB12FSQ4N8XPCBL48F9OM94J9GMN,B6882374-1DD7-42A7-B9E8-21CC219919C3,2023-09-28_21h29.39.135,WP_VExplicitOC_LH,2022.2.5,Win32,13.5171668,NA,NA,NA,NA,NA,NA,NA,NA,NA,NA,NA,NA,NA,NA,NA,NA,NA,NA,NA,NA,NA,NA,NA,NA,NA,NA,NA,NA,NA,NA,NA,NA,NA,NA,NA,NA,NA,NA,NA,NA,NA,NA,NA,NA,NA,NA,NA,NA,NA,NA,NA,NA,NA,NA,NA,NA,NA,NA,NA
SUPAMT82077,34YB12FSQ4N8XPCBL48F9OM94J9GMN,B6882374-1DD7-42A7-B9E8-21CC219919C3,2023-09-28_21h29.39.135,WP_VExplicitOC_LH,2022.2.5,Win32,13.5171668,100,4.6892,2.0924,0,0,0,1,1,frustrated,"frustrated, not frustrated","more frustrated, less frustrated",NA,NA,NA,NA,NA,NA,NA,NA,NA,NA,NA,NA,NA,NA,NA,NA,NA,NA,NA,NA,NA,NA,NA,NA,NA,NA,NA,NA,NA,NA,NA,NA,NA,NA,NA,NA,NA,NA,NA,NA,NA,NA,NA,NA,NA,NA,NA,NA
SUPAMT82077,34YB12FSQ4N8XPCBL48F9OM94J9GMN,B6882374-1DD7-42A7-B9E8-21CC219919C3,2023-09-28_21h29.39.135,WP_VExplicitOC_LH,2022.2.5,Win32,13.5171668,100,3.5522,2.0319,0,1,1,0,1,happy,"unhappy, happy","less happy, more happy",NA,NA,NA,NA,NA,NA,NA,NA,NA,NA,NA,NA,NA,NA,NA,NA,NA,NA,NA,NA,NA,NA,NA,NA,NA,NA,NA,NA,NA,NA,NA,NA,NA,NA,NA,NA,NA,NA,NA,NA,NA,NA,NA,NA,NA,NA,NA,NA
SUPAMT82077,34YB12FSQ4N8XPCBL48F9OM94J9GMN,B6882374-1DD7-42A7-B9E8-21CC219919C3,2023-09-28_21h29.39.135,WP_VExplicitOC_LH,2022.2.5,Win32,13.5171668,100,3.7634,2.0259,0,2,2,2,1,bored,"bored, not bored","more bored, less bored",NA,NA,NA,NA,NA,NA,NA,NA,NA,NA,NA,NA,NA,NA,NA,NA,NA,NA,NA,NA,NA,NA,NA,NA,NA,NA,NA,NA,NA,NA,NA,NA,NA,NA,NA,NA,NA,NA,NA,NA,NA,NA,NA,NA,NA,NA,NA,NA
SUPAMT82077,34YB12FSQ4N8XPCBL48F9OM94J9GMN,B6882374-1DD7-42A7-B9E8-21CC219919C3,2023-09-28_21h29.39.135,WP_VExplicitOC_LH,2022.2.5,Win32,13.5171668,NA,NA,NA,NA,NA,NA,NA,NA,NA,NA,NA,NA,NA,NA,NA,NA,NA,NA,NA,NA,NA,NA,NA,NA,NA,NA,NA,NA,NA,NA,NA,NA,NA,NA,NA,NA,NA,NA,NA,NA,NA,NA,NA,NA,NA,NA,NA,NA,NA,NA,NA,NA,NA,NA,NA,NA,NA,NA,NA
SUPAMT82077,34YB12FSQ4N8XPCBL48F9OM94J9GMN,B6882374-1DD7-42A7-B9E8-21CC219919C3,2023-09-28_21h29.39.135,WP_VExplicitOC_LH,2022.2.5,Win32,13.5171668,NA,NA,NA,NA,NA,NA,NA,NA,NA,NA,NA,NA,NA,NA,NA,NA,NA,NA,NA,NA,NA,NA,NA,NA,NA,NA,NA,NA,NA,NA,NA,NA,NA,NA,NA,NA,NA,NA,NA,NA,NA,NA,NA,NA,NA,NA,NA,NA,NA,NA,NA,NA,NA,NA,NA,NA,NA,NA,NA
SUPAMT82077,34YB12FSQ4N8XPCBL48F9OM94J9GMN,B6882374-1DD7-42A7-B9E8-21CC219919C3,2023-09-28_21h29.39.135,WP_VExplicitOC_LH,2022.2.5,Win32,13.5171668,NA,NA,NA,NA,NA,NA,NA,NA,NA,NA,NA,NA,NA,NA,NA,NA,NA,NA,NA,NA,NA,NA,NA,NA,NA,NA,NA,NA,NA,NA,NA,NA,NA,NA,NA,NA,NA,NA,NA,NA,NA,NA,NA,NA,NA,NA,NA,NA,NA,NA,NA,NA,NA,NA,NA,NA,NA,NA,NA
SUPAMT82077,34YB12FSQ4N8XPCBL48F9OM94J9GMN,B6882374-1DD7-42A7-B9E8-21CC219919C3,2023-09-28_21h29.39.135,WP_VExplicitOC_LH,2022.2.5,Win32,13.5171668,NA,NA,NA,NA,NA,NA,NA,NA,NA,NA,NA,NA,NA,NA,NA,NA,NA,NA,NA,NA,NA,NA,NA,NA,NA,NA,NA,NA,NA,NA,NA,NA,NA,NA,NA,NA,NA,NA,NA,NA,NA,NA,NA,NA,NA,NA,NA,NA,NA,NA,NA,NA,NA,NA,NA,NA,NA,NA,NA
SUPAMT82077,34YB12FSQ4N8XPCBL48F9OM94J9GMN,B6882374-1DD7-42A7-B9E8-21CC219919C3,2023-09-28_21h29.39.135,WP_VExplicitOC_LH,2022.2.5,Win32,13.5171668,NA,NA,NA,NA,NA,NA,NA,NA,NA,NA,NA,100,2.1947,0,0,0,0,1,rest (looking at a fixed cross),001.png,NA,NA,NA,NA,NA,NA,NA,NA,NA,NA,NA,NA,NA,NA,NA,NA,NA,NA,NA,NA,NA,NA,NA,NA,NA,NA,NA,NA,NA,NA,NA,NA,NA,NA,NA,NA,NA,NA,NA
SUPAMT82077,34YB12FSQ4N8XPCBL48F9OM94J9GMN,B6882374-1DD7-42A7-B9E8-21CC219919C3,2023-09-28_21h29.39.135,WP_VExplicitOC_LH,2022.2.5,Win32,13.5171668,NA,NA,NA,NA,NA,NA,NA,NA,NA,NA,NA,100,2.0746000000000002,0,1,1,1,1,stand up,002.png,NA,NA,NA,NA,NA,NA,NA,NA,NA,NA,NA,NA,NA,NA,NA,NA,NA,NA,NA,NA,NA,NA,NA,NA,NA,NA,NA,NA,NA,NA,NA,NA,NA,NA,NA,NA,NA,NA,NA
SUPAMT82077,34YB12FSQ4N8XPCBL48F9OM94J9GMN,B6882374-1DD7-42A7-B9E8-21CC219919C3,2023-09-28_21h29.39.135,WP_VExplicitOC_LH,2022.2.5,Win32,13.5171668,NA,NA,NA,NA,NA,NA,NA,NA,NA,NA,NA,68.48958333,1.9211,0,2,2,2,1,stretch,003.png,NA,NA,NA,NA,NA,NA,NA,NA,NA,NA,NA,NA,NA,NA,NA,NA,NA,NA,NA,NA,NA,NA,NA,NA,NA,NA,NA,NA,NA,NA,NA,NA,NA,NA,NA,NA,NA,NA,NA
SUPAMT82077,34YB12FSQ4N8XPCBL48F9OM94J9GMN,B6882374-1DD7-42A7-B9E8-21CC219919C3,2023-09-28_21h29.39.135,WP_VExplicitOC_LH,2022.2.5,Win32,13.5171668,NA,NA,NA,NA,NA,NA,NA,NA,NA,NA,NA,-100,1.9575,0,3,3,3,1,make a drink,004.png,NA,NA,NA,NA,NA,NA,NA,NA,NA,NA,NA,NA,NA,NA,NA,NA,NA,NA,NA,NA,NA,NA,NA,NA,NA,NA,NA,NA,NA,NA,NA,NA,NA,NA,NA,NA,NA,NA,NA
SUPAMT82077,34YB12FSQ4N8XPCBL48F9OM94J9GMN,B6882374-1DD7-42A7-B9E8-21CC219919C3,2023-09-28_21h29.39.135,WP_VExplicitOC_LH,2022.2.5,Win32,13.5171668,NA,NA,NA,NA,NA,NA,NA,NA,NA,NA,NA,100,1.8372,0,4,4,4,1,scroll social media,005.png,NA,NA,NA,NA,NA,NA,NA,NA,NA,NA,NA,NA,NA,NA,NA,NA,NA,NA,NA,NA,NA,NA,NA,NA,NA,NA,NA,NA,NA,NA,NA,NA,NA,NA,NA,NA,NA,NA,NA
SUPAMT82077,34YB12FSQ4N8XPCBL48F9OM94J9GMN,B6882374-1DD7-42A7-B9E8-21CC219919C3,2023-09-28_21h29.39.135,WP_VExplicitOC_LH,2022.2.5,Win32,13.5171668,NA,NA,NA,NA,NA,NA,NA,NA,NA,NA,NA,100,1.5437,0,5,5,5,1,listen to music,006.png,NA,NA,NA,NA,NA,NA,NA,NA,NA,NA,NA,NA,NA,NA,NA,NA,NA,NA,NA,NA,NA,NA,NA,NA,NA,NA,NA,NA,NA,NA,NA,NA,NA,NA,NA,NA,NA,NA,NA
SUPAMT82077,34YB12FSQ4N8XPCBL48F9OM94J9GMN,B6882374-1DD7-42A7-B9E8-21CC219919C3,2023-09-28_21h29.39.135,WP_VExplicitOC_LH,2022.2.5,Win32,13.5171668,NA,NA,NA,NA,NA,NA,NA,NA,NA,NA,NA,-40.36458333,2.277,0,6,6,6,1,daydream,007.png,NA,NA,NA,NA,NA,NA,NA,NA,NA,NA,NA,NA,NA,NA,NA,NA,NA,NA,NA,NA,NA,NA,NA,NA,NA,NA,NA,NA,NA,NA,NA,NA,NA,NA,NA,NA,NA,NA,NA
SUPAMT82077,34YB12FSQ4N8XPCBL48F9OM94J9GMN,B6882374-1DD7-42A7-B9E8-21CC219919C3,2023-09-28_21h29.39.135,WP_VExplicitOC_LH,2022.2.5,Win32,13.5171668,NA,NA,NA,NA,NA,NA,NA,NA,NA,NA,NA,100,1.7145,0,7,7,7,1,watch a short animation,008.png,NA,NA,NA,NA,NA,NA,NA,NA,NA,NA,NA,NA,NA,NA,NA,NA,NA,NA,NA,NA,NA,NA,NA,NA,NA,NA,NA,NA,NA,NA,NA,NA,NA,NA,NA,NA,NA,NA,NA
SUPAMT82077,34YB12FSQ4N8XPCBL48F9OM94J9GMN,B6882374-1DD7-42A7-B9E8-21CC219919C3,2023-09-28_21h29.39.135,WP_VExplicitOC_LH,2022.2.5,Win32,13.5171668,NA,NA,NA,NA,NA,NA,NA,NA,NA,NA,NA,100,2.4684,0,8,8,8,1,read a novel,009.png,NA,NA,NA,NA,NA,NA,NA,NA,NA,NA,NA,NA,NA,NA,NA,NA,NA,NA,NA,NA,NA,NA,NA,NA,NA,NA,NA,NA,NA,NA,NA,NA,NA,NA,NA,NA,NA,NA,NA
SUPAMT82077,34YB12FSQ4N8XPCBL48F9OM94J9GMN,B6882374-1DD7-42A7-B9E8-21CC219919C3,2023-09-28_21h29.39.135,WP_VExplicitOC_LH,2022.2.5,Win32,13.5171668,NA,NA,NA,NA,NA,NA,NA,NA,NA,NA,NA,-76.5625,1.9061,0,9,9,9,1,read the news,010.png,NA,NA,NA,NA,NA,NA,NA,NA,NA,NA,NA,NA,NA,NA,NA,NA,NA,NA,NA,NA,NA,NA,NA,NA,NA,NA,NA,NA,NA,NA,NA,NA,NA,NA,NA,NA,NA,NA,NA
SUPAMT82077,34YB12FSQ4N8XPCBL48F9OM94J9GMN,B6882374-1DD7-42A7-B9E8-21CC219919C3,2023-09-28_21h29.39.135,WP_VExplicitOC_LH,2022.2.5,Win32,13.5171668,NA,NA,NA,NA,NA,NA,NA,NA,NA,NA,NA,NA,NA,NA,NA,NA,NA,NA,NA,NA,NA,NA,NA,NA,NA,NA,NA,NA,NA,NA,NA,NA,NA,NA,NA,NA,NA,NA,NA,NA,NA,NA,NA,NA,NA,NA,NA,NA,NA,NA,NA,NA,NA,NA,NA,NA,NA,NA,NA
SUPAMT82077,34YB12FSQ4N8XPCBL48F9OM94J9GMN,B6882374-1DD7-42A7-B9E8-21CC219919C3,2023-09-28_21h29.39.135,WP_VExplicitOC_LH,2022.2.5,Win32,13.5171668,NA,NA,NA,NA,NA,NA,NA,NA,NA,NA,NA,NA,NA,NA,NA,NA,NA,NA,NA,NA,make a drink,NA,NA,NA,NA,NA,NA,NA,NA,NA,NA,NA,NA,NA,NA,NA,NA,NA,NA,NA,NA,NA,NA,NA,NA,NA,NA,NA,NA,NA,NA,NA,NA,NA,NA,NA,NA,NA,NA
SUPAMT82077,34YB12FSQ4N8XPCBL48F9OM94J9GMN,B6882374-1DD7-42A7-B9E8-21CC219919C3,2023-09-28_21h29.39.135,WP_VExplicitOC_LH,2022.2.5,Win32,13.5171668,100,4.1368,2.0043,NA,NA,NA,NA,NA,bored,"bored, not bored","more bored, less bored",NA,NA,NA,NA,NA,NA,NA,NA,NA,NA,0,0,0,2,1,NA,NA,NA,NA,NA,NA,NA,NA,NA,NA,NA,NA,NA,NA,NA,NA,NA,NA,NA,NA,NA,NA,NA,NA,NA,NA,NA,NA,NA,NA,NA,NA,NA
SUPAMT82077,34YB12FSQ4N8XPCBL48F9OM94J9GMN,B6882374-1DD7-42A7-B9E8-21CC219919C3,2023-09-28_21h29.39.135,WP_VExplicitOC_LH,2022.2.5,Win32,13.5171668,100,3.828,2.0868,NA,NA,NA,NA,NA,frustrated,"frustrated, not frustrated","more frustrated, less frustrated",NA,NA,NA,NA,NA,NA,NA,NA,NA,NA,0,1,1,1,1,NA,NA,NA,NA,NA,NA,NA,NA,NA,NA,NA,NA,NA,NA,NA,NA,NA,NA,NA,NA,NA,NA,NA,NA,NA,NA,NA,NA,NA,NA,NA,NA,NA
SUPAMT82077,34YB12FSQ4N8XPCBL48F9OM94J9GMN,B6882374-1DD7-42A7-B9E8-21CC219919C3,2023-09-28_21h29.39.135,WP_VExplicitOC_LH,2022.2.5,Win32,13.5171668,100,3.6572,2.0035,NA,NA,NA,NA,NA,happy,"unhappy, happy","less happy, more happy",NA,NA,NA,NA,NA,NA,NA,NA,NA,NA,0,2,2,0,1,NA,NA,NA,NA,NA,NA,NA,NA,NA,NA,NA,NA,NA,NA,NA,NA,NA,NA,NA,NA,NA,NA,NA,NA,NA,NA,NA,NA,NA,NA,NA,NA,NA
SUPAMT82077,34YB12FSQ4N8XPCBL48F9OM94J9GMN,B6882374-1DD7-42A7-B9E8-21CC219919C3,2023-09-28_21h29.39.135,WP_VExplicitOC_LH,2022.2.5,Win32,13.5171668,NA,NA,NA,NA,NA,NA,NA,NA,NA,NA,NA,NA,NA,NA,NA,NA,NA,NA,NA,NA,NA,NA,NA,NA,NA,NA,NA,NA,NA,NA,NA,NA,NA,NA,NA,NA,NA,NA,NA,NA,NA,NA,NA,NA,NA,NA,NA,NA,NA,NA,NA,NA,NA,NA,NA,NA,NA,NA,NA
SUPAMT82077,34YB12FSQ4N8XPCBL48F9OM94J9GMN,B6882374-1DD7-42A7-B9E8-21CC219919C3,2023-09-28_21h29.39.135,WP_VExplicitOC_LH,2022.2.5,Win32,13.5171668,NA,NA,NA,NA,NA,NA,NA,NA,NA,NA,NA,NA,NA,NA,NA,NA,NA,NA,NA,NA,NA,NA,NA,NA,NA,NA,NA,NA,NA,NA,NA,NA,NA,NA,NA,NA,NA,NA,NA,NA,NA,NA,NA,NA,NA,NA,NA,NA,NA,NA,NA,NA,NA,NA,NA,NA,NA,NA,NA
SUPAMT82077,34YB12FSQ4N8XPCBL48F9OM94J9GMN,B6882374-1DD7-42A7-B9E8-21CC219919C3,2023-09-28_21h29.39.135,WP_VExplicitOC_LH,2022.2.5,Win32,13.5171668,-84.11458333,3.3985,2.0253,NA,NA,NA,NA,NA,bored,"bored, not bored","more bored, less bored",NA,NA,NA,NA,NA,NA,NA,NA,NA,NA,NA,NA,NA,NA,NA,0,0,0,2,1,NA,NA,NA,NA,NA,NA,NA,NA,NA,NA,NA,NA,NA,NA,NA,NA,NA,NA,NA,NA,NA,NA,NA,NA,NA,NA,NA,NA
SUPAMT82077,34YB12FSQ4N8XPCBL48F9OM94J9GMN,B6882374-1DD7-42A7-B9E8-21CC219919C3,2023-09-28_21h29.39.135,WP_VExplicitOC_LH,2022.2.5,Win32,13.5171668,-27.08333333,3.4527,2.0351,NA,NA,NA,NA,NA,happy,"unhappy, happy","less happy, more happy",NA,NA,NA,NA,NA,NA,NA,NA,NA,NA,NA,NA,NA,NA,NA,0,1,1,0,1,NA,NA,NA,NA,NA,NA,NA,NA,NA,NA,NA,NA,NA,NA,NA,NA,NA,NA,NA,NA,NA,NA,NA,NA,NA,NA,NA,NA
SUPAMT82077,34YB12FSQ4N8XPCBL48F9OM94J9GMN,B6882374-1DD7-42A7-B9E8-21CC219919C3,2023-09-28_21h29.39.135,WP_VExplicitOC_LH,2022.2.5,Win32,13.5171668,-63.28125,3.3517,2.0789,NA,NA,NA,NA,NA,frustrated,"frustrated, not frustrated","more frustrated, less frustrated",NA,NA,NA,NA,NA,NA,NA,NA,NA,NA,NA,NA,NA,NA,NA,0,2,2,1,1,NA,NA,NA,NA,NA,NA,NA,NA,NA,NA,NA,NA,NA,NA,NA,NA,NA,NA,NA,NA,NA,NA,NA,NA,NA,NA,NA,NA
SUPAMT82077,34YB12FSQ4N8XPCBL48F9OM94J9GMN,B6882374-1DD7-42A7-B9E8-21CC219919C3,2023-09-28_21h29.39.135,WP_VExplicitOC_LH,2022.2.5,Win32,13.5171668,NA,NA,NA,NA,NA,NA,NA,NA,NA,NA,NA,NA,NA,NA,NA,NA,NA,NA,NA,NA,NA,NA,NA,NA,NA,NA,NA,NA,NA,NA,NA,0,0,0,0,1,NA,NA,NA,NA,NA,NA,NA,NA,NA,NA,NA,NA,NA,NA,NA,NA,NA,NA,NA,NA,NA,NA,NA
SUPAMT82077,34YB12FSQ4N8XPCBL48F9OM94J9GMN,B6882374-1DD7-42A7-B9E8-21CC219919C3,2023-09-28_21h29.39.135,WP_VExplicitOC_LH,2022.2.5,Win32,13.5171668,-100,5.0491,2.0148,NA,NA,NA,NA,NA,bored,"bored, not bored","more bored, less bored",NA,NA,NA,NA,NA,NA,NA,NA,NA,NA,NA,NA,NA,NA,NA,0,0,0,2,1,NA,NA,NA,NA,NA,NA,NA,NA,NA,NA,NA,NA,NA,NA,NA,NA,NA,NA,NA,NA,NA,NA,NA,NA,NA,NA,NA,NA
SUPAMT82077,34YB12FSQ4N8XPCBL48F9OM94J9GMN,B6882374-1DD7-42A7-B9E8-21CC219919C3,2023-09-28_21h29.39.135,WP_VExplicitOC_LH,2022.2.5,Win32,13.5171668,-59.63541667,3.5373,2.0503,NA,NA,NA,NA,NA,frustrated,"frustrated, not frustrated","more frustrated, less frustrated",NA,NA,NA,NA,NA,NA,NA,NA,NA,NA,NA,NA,NA,NA,NA,0,1,1,1,1,NA,NA,NA,NA,NA,NA,NA,NA,NA,NA,NA,NA,NA,NA,NA,NA,NA,NA,NA,NA,NA,NA,NA,NA,NA,NA,NA,NA
SUPAMT82077,34YB12FSQ4N8XPCBL48F9OM94J9GMN,B6882374-1DD7-42A7-B9E8-21CC219919C3,2023-09-28_21h29.39.135,WP_VExplicitOC_LH,2022.2.5,Win32,13.5171668,-79.94791667,3.7065,2.0279,NA,NA,NA,NA,NA,happy,"unhappy, happy","less happy, more happy",NA,NA,NA,NA,NA,NA,NA,NA,NA,NA,NA,NA,NA,NA,NA,0,2,2,0,1,NA,NA,NA,NA,NA,NA,NA,NA,NA,NA,NA,NA,NA,NA,NA,NA,NA,NA,NA,NA,NA,NA,NA,NA,NA,NA,NA,NA
SUPAMT82077,34YB12FSQ4N8XPCBL48F9OM94J9GMN,B6882374-1DD7-42A7-B9E8-21CC219919C3,2023-09-28_21h29.39.135,WP_VExplicitOC_LH,2022.2.5,Win32,13.5171668,NA,NA,NA,NA,NA,NA,NA,NA,NA,NA,NA,NA,NA,NA,NA,NA,NA,NA,NA,NA,NA,NA,NA,NA,NA,NA,NA,NA,NA,NA,NA,1,0,1,0,1,NA,NA,NA,NA,NA,NA,NA,NA,NA,NA,NA,NA,NA,NA,NA,NA,NA,NA,NA,NA,NA,NA,NA
SUPAMT82077,34YB12FSQ4N8XPCBL48F9OM94J9GMN,B6882374-1DD7-42A7-B9E8-21CC219919C3,2023-09-28_21h29.39.135,WP_VExplicitOC_LH,2022.2.5,Win32,13.5171668,-100,5.1015,2.016,NA,NA,NA,NA,NA,happy,"unhappy, happy","less happy, more happy",NA,NA,NA,NA,NA,NA,NA,NA,NA,NA,NA,NA,NA,NA,NA,0,0,0,0,1,NA,NA,NA,NA,NA,NA,NA,NA,NA,NA,NA,NA,NA,NA,NA,NA,NA,NA,NA,NA,NA,NA,NA,NA,NA,NA,NA,NA
SUPAMT82077,34YB12FSQ4N8XPCBL48F9OM94J9GMN,B6882374-1DD7-42A7-B9E8-21CC219919C3,2023-09-28_21h29.39.135,WP_VExplicitOC_LH,2022.2.5,Win32,13.5171668,-100,3.7277,2.2061,NA,NA,NA,NA,NA,bored,"bored, not bored","more bored, less bored",NA,NA,NA,NA,NA,NA,NA,NA,NA,NA,NA,NA,NA,NA,NA,0,1,1,2,1,NA,NA,NA,NA,NA,NA,NA,NA,NA,NA,NA,NA,NA,NA,NA,NA,NA,NA,NA,NA,NA,NA,NA,NA,NA,NA,NA,NA
SUPAMT82077,34YB12FSQ4N8XPCBL48F9OM94J9GMN,B6882374-1DD7-42A7-B9E8-21CC219919C3,2023-09-28_21h29.39.135,WP_VExplicitOC_LH,2022.2.5,Win32,13.5171668,NA,NA,2.0389,NA,NA,NA,NA,NA,frustrated,"frustrated, not frustrated","more frustrated, less frustrated",NA,NA,NA,NA,NA,NA,NA,NA,NA,NA,NA,NA,NA,NA,NA,0,2,2,1,1,NA,NA,NA,NA,NA,NA,NA,NA,NA,NA,NA,NA,NA,NA,NA,NA,NA,NA,NA,NA,NA,NA,NA,NA,NA,NA,NA,NA
SUPAMT82077,34YB12FSQ4N8XPCBL48F9OM94J9GMN,B6882374-1DD7-42A7-B9E8-21CC219919C3,2023-09-28_21h29.39.135,WP_VExplicitOC_LH,2022.2.5,Win32,13.5171668,NA,NA,NA,NA,NA,NA,NA,NA,NA,NA,NA,NA,NA,NA,NA,NA,NA,NA,NA,NA,NA,NA,NA,NA,NA,NA,NA,NA,NA,NA,NA,2,0,2,0,1,NA,NA,NA,NA,NA,NA,NA,NA,NA,NA,NA,NA,NA,NA,NA,NA,NA,NA,NA,NA,NA,NA,NA
SUPAMT82077,34YB12FSQ4N8XPCBL48F9OM94J9GMN,B6882374-1DD7-42A7-B9E8-21CC219919C3,2023-09-28_21h29.39.135,WP_VExplicitOC_LH,2022.2.5,Win32,13.5171668,NA,NA,2.002,NA,NA,NA,NA,NA,bored,"bored, not bored","more bored, less bored",NA,NA,NA,NA,NA,NA,NA,NA,NA,NA,NA,NA,NA,NA,NA,0,0,0,2,1,NA,NA,NA,NA,NA,NA,NA,NA,NA,NA,NA,NA,NA,NA,NA,NA,NA,NA,NA,NA,NA,NA,NA,NA,NA,NA,NA,NA
SUPAMT82077,34YB12FSQ4N8XPCBL48F9OM94J9GMN,B6882374-1DD7-42A7-B9E8-21CC219919C3,2023-09-28_21h29.39.135,WP_VExplicitOC_LH,2022.2.5,Win32,13.5171668,100,3.7968,2.0397,NA,NA,NA,NA,NA,happy,"unhappy, happy","less happy, more happy",NA,NA,NA,NA,NA,NA,NA,NA,NA,NA,NA,NA,NA,NA,NA,0,1,1,0,1,NA,NA,NA,NA,NA,NA,NA,NA,NA,NA,NA,NA,NA,NA,NA,NA,NA,NA,NA,NA,NA,NA,NA,NA,NA,NA,NA,NA
SUPAMT82077,34YB12FSQ4N8XPCBL48F9OM94J9GMN,B6882374-1DD7-42A7-B9E8-21CC219919C3,2023-09-28_21h29.39.135,WP_VExplicitOC_LH,2022.2.5,Win32,13.5171668,100,4.2711,2.0203,NA,NA,NA,NA,NA,frustrated,"frustrated, not frustrated","more frustrated, less frustrated",NA,NA,NA,NA,NA,NA,NA,NA,NA,NA,NA,NA,NA,NA,NA,0,2,2,1,1,NA,NA,NA,NA,NA,NA,NA,NA,NA,NA,NA,NA,NA,NA,NA,NA,NA,NA,NA,NA,NA,NA,NA,NA,NA,NA,NA,NA
SUPAMT82077,34YB12FSQ4N8XPCBL48F9OM94J9GMN,B6882374-1DD7-42A7-B9E8-21CC219919C3,2023-09-28_21h29.39.135,WP_VExplicitOC_LH,2022.2.5,Win32,13.5171668,NA,NA,NA,NA,NA,NA,NA,NA,NA,NA,NA,NA,NA,NA,NA,NA,NA,NA,NA,NA,NA,NA,NA,NA,NA,NA,NA,NA,NA,NA,NA,3,0,3,0,1,NA,NA,NA,NA,NA,NA,NA,NA,NA,NA,NA,NA,NA,NA,NA,NA,NA,NA,NA,NA,NA,NA,NA
SUPAMT82077,34YB12FSQ4N8XPCBL48F9OM94J9GMN,B6882374-1DD7-42A7-B9E8-21CC219919C3,2023-09-28_21h29.39.135,WP_VExplicitOC_LH,2022.2.5,Win32,13.5171668,-100,5.3583,2.0641,NA,NA,NA,NA,NA,bored,"bored, not bored","more bored, less bored",NA,NA,NA,NA,NA,NA,NA,NA,NA,NA,NA,NA,NA,NA,NA,0,0,0,2,1,NA,NA,NA,NA,NA,NA,NA,NA,NA,NA,NA,NA,NA,NA,NA,NA,NA,NA,NA,NA,NA,NA,NA,NA,NA,NA,NA,NA
SUPAMT82077,34YB12FSQ4N8XPCBL48F9OM94J9GMN,B6882374-1DD7-42A7-B9E8-21CC219919C3,2023-09-28_21h29.39.135,WP_VExplicitOC_LH,2022.2.5,Win32,13.5171668,-61.97916667,4.6852,2.0897,NA,NA,NA,NA,NA,frustrated,"frustrated, not frustrated","more frustrated, less frustrated",NA,NA,NA,NA,NA,NA,NA,NA,NA,NA,NA,NA,NA,NA,NA,0,1,1,1,1,NA,NA,NA,NA,NA,NA,NA,NA,NA,NA,NA,NA,NA,NA,NA,NA,NA,NA,NA,NA,NA,NA,NA,NA,NA,NA,NA,NA
SUPAMT82077,34YB12FSQ4N8XPCBL48F9OM94J9GMN,B6882374-1DD7-42A7-B9E8-21CC219919C3,2023-09-28_21h29.39.135,WP_VExplicitOC_LH,2022.2.5,Win32,13.5171668,-69.53125,3.8923,2.0883,NA,NA,NA,NA,NA,happy,"unhappy, happy","less happy, more happy",NA,NA,NA,NA,NA,NA,NA,NA,NA,NA,NA,NA,NA,NA,NA,0,2,2,0,1,NA,NA,NA,NA,NA,NA,NA,NA,NA,NA,NA,NA,NA,NA,NA,NA,NA,NA,NA,NA,NA,NA,NA,NA,NA,NA,NA,NA
SUPAMT82077,34YB12FSQ4N8XPCBL48F9OM94J9GMN,B6882374-1DD7-42A7-B9E8-21CC219919C3,2023-09-28_21h29.39.135,WP_VExplicitOC_LH,2022.2.5,Win32,13.5171668,NA,NA,NA,NA,NA,NA,NA,NA,NA,NA,NA,NA,NA,NA,NA,NA,NA,NA,NA,NA,NA,NA,NA,NA,NA,NA,NA,NA,NA,NA,NA,4,0,4,0,1,NA,NA,NA,NA,NA,NA,NA,NA,NA,NA,NA,NA,NA,NA,NA,NA,NA,NA,NA,NA,NA,NA,NA
SUPAMT82077,34YB12FSQ4N8XPCBL48F9OM94J9GMN,B6882374-1DD7-42A7-B9E8-21CC219919C3,2023-09-28_21h29.39.135,WP_VExplicitOC_LH,2022.2.5,Win32,13.5171668,95.83333333,4.3879,2.0856,NA,NA,NA,NA,NA,happy,"unhappy, happy","less happy, more happy",NA,NA,NA,NA,NA,NA,NA,NA,NA,NA,NA,NA,NA,NA,NA,0,0,0,0,1,NA,NA,NA,NA,NA,NA,NA,NA,NA,NA,NA,NA,NA,NA,NA,NA,NA,NA,NA,NA,NA,NA,NA,NA,NA,NA,NA,NA
SUPAMT82077,34YB12FSQ4N8XPCBL48F9OM94J9GMN,B6882374-1DD7-42A7-B9E8-21CC219919C3,2023-09-28_21h29.39.135,WP_VExplicitOC_LH,2022.2.5,Win32,13.5171668,-100,4.3467,2.0891,NA,NA,NA,NA,NA,frustrated,"frustrated, not frustrated","more frustrated, less frustrated",NA,NA,NA,NA,NA,NA,NA,NA,NA,NA,NA,NA,NA,NA,NA,0,1,1,1,1,NA,NA,NA,NA,NA,NA,NA,NA,NA,NA,NA,NA,NA,NA,NA,NA,NA,NA,NA,NA,NA,NA,NA,NA,NA,NA,NA,NA
SUPAMT82077,34YB12FSQ4N8XPCBL48F9OM94J9GMN,B6882374-1DD7-42A7-B9E8-21CC219919C3,2023-09-28_21h29.39.135,WP_VExplicitOC_LH,2022.2.5,Win32,13.5171668,100,3.9678,2.0787,NA,NA,NA,NA,NA,bored,"bored, not bored","more bored, less bored",NA,NA,NA,NA,NA,NA,NA,NA,NA,NA,NA,NA,NA,NA,NA,0,2,2,2,1,NA,NA,NA,NA,NA,NA,NA,NA,NA,NA,NA,NA,NA,NA,NA,NA,NA,NA,NA,NA,NA,NA,NA,NA,NA,NA,NA,NA
SUPAMT82077,34YB12FSQ4N8XPCBL48F9OM94J9GMN,B6882374-1DD7-42A7-B9E8-21CC219919C3,2023-09-28_21h29.39.135,WP_VExplicitOC_LH,2022.2.5,Win32,13.5171668,NA,NA,NA,NA,NA,NA,NA,NA,NA,NA,NA,NA,NA,NA,NA,NA,NA,NA,NA,NA,NA,NA,NA,NA,NA,NA,NA,NA,NA,NA,NA,5,0,5,0,1,NA,NA,NA,NA,NA,NA,NA,NA,NA,NA,NA,NA,NA,NA,NA,NA,NA,NA,NA,NA,NA,NA,NA
SUPAMT82077,34YB12FSQ4N8XPCBL48F9OM94J9GMN,B6882374-1DD7-42A7-B9E8-21CC219919C3,2023-09-28_21h29.39.135,WP_VExplicitOC_LH,2022.2.5,Win32,13.5171668,100,5.7677,2.0274,NA,NA,NA,NA,NA,happy,"unhappy, happy","less happy, more happy",NA,NA,NA,NA,NA,NA,NA,NA,NA,NA,NA,NA,NA,NA,NA,0,0,0,0,1,NA,NA,NA,NA,NA,NA,NA,NA,NA,NA,NA,NA,NA,NA,NA,NA,NA,NA,NA,NA,NA,NA,NA,NA,NA,NA,NA,NA
SUPAMT82077,34YB12FSQ4N8XPCBL48F9OM94J9GMN,B6882374-1DD7-42A7-B9E8-21CC219919C3,2023-09-28_21h29.39.135,WP_VExplicitOC_LH,2022.2.5,Win32,13.5171668,100,3.6873,2.041,NA,NA,NA,NA,NA,frustrated,"frustrated, not frustrated","more frustrated, less frustrated",NA,NA,NA,NA,NA,NA,NA,NA,NA,NA,NA,NA,NA,NA,NA,0,1,1,1,1,NA,NA,NA,NA,NA,NA,NA,NA,NA,NA,NA,NA,NA,NA,NA,NA,NA,NA,NA,NA,NA,NA,NA,NA,NA,NA,NA,NA
SUPAMT82077,34YB12FSQ4N8XPCBL48F9OM94J9GMN,B6882374-1DD7-42A7-B9E8-21CC219919C3,2023-09-28_21h29.39.135,WP_VExplicitOC_LH,2022.2.5,Win32,13.5171668,100,4.4159,2.0302,NA,NA,NA,NA,NA,bored,"bored, not bored","more bored, less bored",NA,NA,NA,NA,NA,NA,NA,NA,NA,NA,NA,NA,NA,NA,NA,0,2,2,2,1,NA,NA,NA,NA,NA,NA,NA,NA,NA,NA,NA,NA,NA,NA,NA,NA,NA,NA,NA,NA,NA,NA,NA,NA,NA,NA,NA,NA
SUPAMT82077,34YB12FSQ4N8XPCBL48F9OM94J9GMN,B6882374-1DD7-42A7-B9E8-21CC219919C3,2023-09-28_21h29.39.135,WP_VExplicitOC_LH,2022.2.5,Win32,13.5171668,NA,NA,NA,NA,NA,NA,NA,NA,NA,NA,NA,NA,NA,NA,NA,NA,NA,NA,NA,NA,NA,NA,NA,NA,NA,NA,NA,NA,NA,NA,NA,6,0,6,0,1,NA,NA,NA,NA,NA,NA,NA,NA,NA,NA,NA,NA,NA,NA,NA,NA,NA,NA,NA,NA,NA,NA,NA
SUPAMT82077,34YB12FSQ4N8XPCBL48F9OM94J9GMN,B6882374-1DD7-42A7-B9E8-21CC219919C3,2023-09-28_21h29.39.135,WP_VExplicitOC_LH,2022.2.5,Win32,13.5171668,NA,NA,2.0239,NA,NA,NA,NA,NA,frustrated,"frustrated, not frustrated","more frustrated, less frustrated",NA,NA,NA,NA,NA,NA,NA,NA,NA,NA,NA,NA,NA,NA,NA,0,0,0,1,1,NA,NA,NA,NA,NA,NA,NA,NA,NA,NA,NA,NA,NA,NA,NA,NA,NA,NA,NA,NA,NA,NA,NA,NA,NA,NA,NA,NA
SUPAMT82077,34YB12FSQ4N8XPCBL48F9OM94J9GMN,B6882374-1DD7-42A7-B9E8-21CC219919C3,2023-09-28_21h29.39.135,WP_VExplicitOC_LH,2022.2.5,Win32,13.5171668,NA,NA,2.0523,NA,NA,NA,NA,NA,happy,"unhappy, happy","less happy, more happy",NA,NA,NA,NA,NA,NA,NA,NA,NA,NA,NA,NA,NA,NA,NA,0,1,1,0,1,NA,NA,NA,NA,NA,NA,NA,NA,NA,NA,NA,NA,NA,NA,NA,NA,NA,NA,NA,NA,NA,NA,NA,NA,NA,NA,NA,NA
SUPAMT82077,34YB12FSQ4N8XPCBL48F9OM94J9GMN,B6882374-1DD7-42A7-B9E8-21CC219919C3,2023-09-28_21h29.39.135,WP_VExplicitOC_LH,2022.2.5,Win32,13.5171668,-69.01041667,4.1947,2.1403,NA,NA,NA,NA,NA,bored,"bored, not bored","more bored, less bored",NA,NA,NA,NA,NA,NA,NA,NA,NA,NA,NA,NA,NA,NA,NA,0,2,2,2,1,NA,NA,NA,NA,NA,NA,NA,NA,NA,NA,NA,NA,NA,NA,NA,NA,NA,NA,NA,NA,NA,NA,NA,NA,NA,NA,NA,NA
SUPAMT82077,34YB12FSQ4N8XPCBL48F9OM94J9GMN,B6882374-1DD7-42A7-B9E8-21CC219919C3,2023-09-28_21h29.39.135,WP_VExplicitOC_LH,2022.2.5,Win32,13.5171668,NA,NA,NA,NA,NA,NA,NA,NA,NA,NA,NA,NA,NA,NA,NA,NA,NA,NA,NA,NA,NA,NA,NA,NA,NA,NA,NA,NA,NA,NA,NA,7,0,7,0,1,NA,NA,NA,NA,NA,NA,NA,NA,NA,NA,NA,NA,NA,NA,NA,NA,NA,NA,NA,NA,NA,NA,NA
SUPAMT82077,34YB12FSQ4N8XPCBL48F9OM94J9GMN,B6882374-1DD7-42A7-B9E8-21CC219919C3,2023-09-28_21h29.39.135,WP_VExplicitOC_LH,2022.2.5,Win32,13.5171668,100,3.502,2.0082,NA,NA,NA,NA,NA,frustrated,"frustrated, not frustrated","more frustrated, less frustrated",NA,NA,NA,NA,NA,NA,NA,NA,NA,NA,NA,NA,NA,NA,NA,0,0,0,1,1,NA,NA,NA,NA,NA,NA,NA,NA,NA,NA,NA,NA,NA,NA,NA,NA,NA,NA,NA,NA,NA,NA,NA,NA,NA,NA,NA,NA
SUPAMT82077,34YB12FSQ4N8XPCBL48F9OM94J9GMN,B6882374-1DD7-42A7-B9E8-21CC219919C3,2023-09-28_21h29.39.135,WP_VExplicitOC_LH,2022.2.5,Win32,13.5171668,93.22916667,6.0574,2.0518,NA,NA,NA,NA,NA,happy,"unhappy, happy","less happy, more happy",NA,NA,NA,NA,NA,NA,NA,NA,NA,NA,NA,NA,NA,NA,NA,0,1,1,0,1,NA,NA,NA,NA,NA,NA,NA,NA,NA,NA,NA,NA,NA,NA,NA,NA,NA,NA,NA,NA,NA,NA,NA,NA,NA,NA,NA,NA
SUPAMT82077,34YB12FSQ4N8XPCBL48F9OM94J9GMN,B6882374-1DD7-42A7-B9E8-21CC219919C3,2023-09-28_21h29.39.135,WP_VExplicitOC_LH,2022.2.5,Win32,13.5171668,100,4.9835,2.0405,NA,NA,NA,NA,NA,bored,"bored, not bored","more bored, less bored",NA,NA,NA,NA,NA,NA,NA,NA,NA,NA,NA,NA,NA,NA,NA,0,2,2,2,1,NA,NA,NA,NA,NA,NA,NA,NA,NA,NA,NA,NA,NA,NA,NA,NA,NA,NA,NA,NA,NA,NA,NA,NA,NA,NA,NA,NA
SUPAMT82077,34YB12FSQ4N8XPCBL48F9OM94J9GMN,B6882374-1DD7-42A7-B9E8-21CC219919C3,2023-09-28_21h29.39.135,WP_VExplicitOC_LH,2022.2.5,Win32,13.5171668,NA,NA,NA,NA,NA,NA,NA,NA,NA,NA,NA,NA,NA,NA,NA,NA,NA,NA,NA,NA,NA,NA,NA,NA,NA,NA,NA,NA,NA,NA,NA,8,0,8,0,1,NA,NA,NA,NA,NA,NA,NA,NA,NA,NA,NA,NA,NA,NA,NA,NA,NA,NA,NA,NA,NA,NA,NA
SUPAMT82077,34YB12FSQ4N8XPCBL48F9OM94J9GMN,B6882374-1DD7-42A7-B9E8-21CC219919C3,2023-09-28_21h29.39.135,WP_VExplicitOC_LH,2022.2.5,Win32,13.5171668,100,4.1409,2.0935,NA,NA,NA,NA,NA,bored,"bored, not bored","more bored, less bored",NA,NA,NA,NA,NA,NA,NA,NA,NA,NA,NA,NA,NA,NA,NA,0,0,0,2,1,NA,NA,NA,NA,NA,NA,NA,NA,NA,NA,NA,NA,NA,NA,NA,NA,NA,NA,NA,NA,NA,NA,NA,NA,NA,NA,NA,NA
SUPAMT82077,34YB12FSQ4N8XPCBL48F9OM94J9GMN,B6882374-1DD7-42A7-B9E8-21CC219919C3,2023-09-28_21h29.39.135,WP_VExplicitOC_LH,2022.2.5,Win32,13.5171668,100,3.9226,2.1138,NA,NA,NA,NA,NA,happy,"unhappy, happy","less happy, more happy",NA,NA,NA,NA,NA,NA,NA,NA,NA,NA,NA,NA,NA,NA,NA,0,1,1,0,1,NA,NA,NA,NA,NA,NA,NA,NA,NA,NA,NA,NA,NA,NA,NA,NA,NA,NA,NA,NA,NA,NA,NA,NA,NA,NA,NA,NA
SUPAMT82077,34YB12FSQ4N8XPCBL48F9OM94J9GMN,B6882374-1DD7-42A7-B9E8-21CC219919C3,2023-09-28_21h29.39.135,WP_VExplicitOC_LH,2022.2.5,Win32,13.5171668,100,3.6321,2.0989,NA,NA,NA,NA,NA,frustrated,"frustrated, not frustrated","more frustrated, less frustrated",NA,NA,NA,NA,NA,NA,NA,NA,NA,NA,NA,NA,NA,NA,NA,0,2,2,1,1,NA,NA,NA,NA,NA,NA,NA,NA,NA,NA,NA,NA,NA,NA,NA,NA,NA,NA,NA,NA,NA,NA,NA,NA,NA,NA,NA,NA
SUPAMT82077,34YB12FSQ4N8XPCBL48F9OM94J9GMN,B6882374-1DD7-42A7-B9E8-21CC219919C3,2023-09-28_21h29.39.135,WP_VExplicitOC_LH,2022.2.5,Win32,13.5171668,NA,NA,NA,NA,NA,NA,NA,NA,NA,NA,NA,NA,NA,NA,NA,NA,NA,NA,NA,NA,NA,NA,NA,NA,NA,NA,NA,NA,NA,NA,NA,9,0,9,0,1,NA,NA,NA,NA,NA,NA,NA,NA,NA,NA,NA,NA,NA,NA,NA,NA,NA,NA,NA,NA,NA,NA,NA
SUPAMT82077,34YB12FSQ4N8XPCBL48F9OM94J9GMN,B6882374-1DD7-42A7-B9E8-21CC219919C3,2023-09-28_21h29.39.135,WP_VExplicitOC_LH,2022.2.5,Win32,13.5171668,100,3.9669,2.0827,NA,NA,NA,NA,NA,happy,"unhappy, happy","less happy, more happy",NA,NA,NA,NA,NA,NA,NA,NA,NA,NA,NA,NA,NA,NA,NA,0,0,0,0,1,NA,NA,NA,NA,NA,NA,NA,NA,NA,NA,NA,NA,NA,NA,NA,NA,NA,NA,NA,NA,NA,NA,NA,NA,NA,NA,NA,NA
SUPAMT82077,34YB12FSQ4N8XPCBL48F9OM94J9GMN,B6882374-1DD7-42A7-B9E8-21CC219919C3,2023-09-28_21h29.39.135,WP_VExplicitOC_LH,2022.2.5,Win32,13.5171668,86.97916667,4.6112,2.0349,NA,NA,NA,NA,NA,bored,"bored, not bored","more bored, less bored",NA,NA,NA,NA,NA,NA,NA,NA,NA,NA,NA,NA,NA,NA,NA,0,1,1,2,1,NA,NA,NA,NA,NA,NA,NA,NA,NA,NA,NA,NA,NA,NA,NA,NA,NA,NA,NA,NA,NA,NA,NA,NA,NA,NA,NA,NA
SUPAMT82077,34YB12FSQ4N8XPCBL48F9OM94J9GMN,B6882374-1DD7-42A7-B9E8-21CC219919C3,2023-09-28_21h29.39.135,WP_VExplicitOC_LH,2022.2.5,Win32,13.5171668,100,3.1631,2.0436,NA,NA,NA,NA,NA,frustrated,"frustrated, not frustrated","more frustrated, less frustrated",NA,NA,NA,NA,NA,NA,NA,NA,NA,NA,NA,NA,NA,NA,NA,0,2,2,1,1,NA,NA,NA,NA,NA,NA,NA,NA,NA,NA,NA,NA,NA,NA,NA,NA,NA,NA,NA,NA,NA,NA,NA,NA,NA,NA,NA,NA
SUPAMT82077,34YB12FSQ4N8XPCBL48F9OM94J9GMN,B6882374-1DD7-42A7-B9E8-21CC219919C3,2023-09-28_21h29.39.135,WP_VExplicitOC_LH,2022.2.5,Win32,13.5171668,NA,NA,NA,NA,NA,NA,NA,NA,NA,NA,NA,NA,NA,NA,NA,NA,NA,NA,NA,NA,NA,NA,NA,NA,NA,NA,NA,NA,NA,NA,NA,10,0,10,0,1,NA,NA,NA,NA,NA,NA,NA,NA,NA,NA,NA,NA,NA,NA,NA,NA,NA,NA,NA,NA,NA,NA,NA
SUPAMT82077,34YB12FSQ4N8XPCBL48F9OM94J9GMN,B6882374-1DD7-42A7-B9E8-21CC219919C3,2023-09-28_21h29.39.135,WP_VExplicitOC_LH,2022.2.5,Win32,13.5171668,100,4.7312,2.0732,NA,NA,NA,NA,NA,frustrated,"frustrated, not frustrated","more frustrated, less frustrated",NA,NA,NA,NA,NA,NA,NA,NA,NA,NA,NA,NA,NA,NA,NA,0,0,0,1,1,NA,NA,NA,NA,NA,NA,NA,NA,NA,NA,NA,NA,NA,NA,NA,NA,NA,NA,NA,NA,NA,NA,NA,NA,NA,NA,NA,NA
SUPAMT82077,34YB12FSQ4N8XPCBL48F9OM94J9GMN,B6882374-1DD7-42A7-B9E8-21CC219919C3,2023-09-28_21h29.39.135,WP_VExplicitOC_LH,2022.2.5,Win32,13.5171668,100,3.4679,2.1018,NA,NA,NA,NA,NA,bored,"bored, not bored","more bored, less bored",NA,NA,NA,NA,NA,NA,NA,NA,NA,NA,NA,NA,NA,NA,NA,0,1,1,2,1,NA,NA,NA,NA,NA,NA,NA,NA,NA,NA,NA,NA,NA,NA,NA,NA,NA,NA,NA,NA,NA,NA,NA,NA,NA,NA,NA,NA
SUPAMT82077,34YB12FSQ4N8XPCBL48F9OM94J9GMN,B6882374-1DD7-42A7-B9E8-21CC219919C3,2023-09-28_21h29.39.135,WP_VExplicitOC_LH,2022.2.5,Win32,13.5171668,100,3.0631,2.0119,NA,NA,NA,NA,NA,happy,"unhappy, happy","less happy, more happy",NA,NA,NA,NA,NA,NA,NA,NA,NA,NA,NA,NA,NA,NA,NA,0,2,2,0,1,NA,NA,NA,NA,NA,NA,NA,NA,NA,NA,NA,NA,NA,NA,NA,NA,NA,NA,NA,NA,NA,NA,NA,NA,NA,NA,NA,NA
SUPAMT82077,34YB12FSQ4N8XPCBL48F9OM94J9GMN,B6882374-1DD7-42A7-B9E8-21CC219919C3,2023-09-28_21h29.39.135,WP_VExplicitOC_LH,2022.2.5,Win32,13.5171668,NA,NA,NA,NA,NA,NA,NA,NA,NA,NA,NA,NA,NA,NA,NA,NA,NA,NA,NA,NA,NA,NA,NA,NA,NA,NA,NA,NA,NA,NA,NA,11,0,11,0,1,NA,NA,NA,NA,NA,NA,NA,NA,NA,NA,NA,NA,NA,NA,NA,NA,NA,NA,NA,NA,NA,NA,NA
SUPAMT82077,34YB12FSQ4N8XPCBL48F9OM94J9GMN,B6882374-1DD7-42A7-B9E8-21CC219919C3,2023-09-28_21h29.39.135,WP_VExplicitOC_LH,2022.2.5,Win32,13.5171668,100,3.698,2.0518,NA,NA,NA,NA,NA,happy,"unhappy, happy","less happy, more happy",NA,NA,NA,NA,NA,NA,NA,NA,NA,NA,NA,NA,NA,NA,NA,0,0,0,0,1,NA,NA,NA,NA,NA,NA,NA,NA,NA,NA,NA,NA,NA,NA,NA,NA,NA,NA,NA,NA,NA,NA,NA,NA,NA,NA,NA,NA
SUPAMT82077,34YB12FSQ4N8XPCBL48F9OM94J9GMN,B6882374-1DD7-42A7-B9E8-21CC219919C3,2023-09-28_21h29.39.135,WP_VExplicitOC_LH,2022.2.5,Win32,13.5171668,65.88541667,3.5697,2.0999,NA,NA,NA,NA,NA,bored,"bored, not bored","more bored, less bored",NA,NA,NA,NA,NA,NA,NA,NA,NA,NA,NA,NA,NA,NA,NA,0,1,1,2,1,NA,NA,NA,NA,NA,NA,NA,NA,NA,NA,NA,NA,NA,NA,NA,NA,NA,NA,NA,NA,NA,NA,NA,NA,NA,NA,NA,NA
SUPAMT82077,34YB12FSQ4N8XPCBL48F9OM94J9GMN,B6882374-1DD7-42A7-B9E8-21CC219919C3,2023-09-28_21h29.39.135,WP_VExplicitOC_LH,2022.2.5,Win32,13.5171668,63.54166667,3.3952,2.0659,NA,NA,NA,NA,NA,frustrated,"frustrated, not frustrated","more frustrated, less frustrated",NA,NA,NA,NA,NA,NA,NA,NA,NA,NA,NA,NA,NA,NA,NA,0,2,2,1,1,NA,NA,NA,NA,NA,NA,NA,NA,NA,NA,NA,NA,NA,NA,NA,NA,NA,NA,NA,NA,NA,NA,NA,NA,NA,NA,NA,NA
SUPAMT82077,34YB12FSQ4N8XPCBL48F9OM94J9GMN,B6882374-1DD7-42A7-B9E8-21CC219919C3,2023-09-28_21h29.39.135,WP_VExplicitOC_LH,2022.2.5,Win32,13.5171668,NA,NA,NA,NA,NA,NA,NA,NA,NA,NA,NA,NA,NA,NA,NA,NA,NA,NA,NA,NA,NA,NA,NA,NA,NA,NA,NA,NA,NA,NA,NA,12,0,12,0,1,NA,NA,NA,NA,NA,NA,NA,NA,NA,NA,NA,NA,NA,NA,NA,NA,NA,NA,NA,NA,NA,NA,NA
SUPAMT82077,34YB12FSQ4N8XPCBL48F9OM94J9GMN,B6882374-1DD7-42A7-B9E8-21CC219919C3,2023-09-28_21h29.39.135,WP_VExplicitOC_LH,2022.2.5,Win32,13.5171668,100,3.2203,2.022,NA,NA,NA,NA,NA,bored,"bored, not bored","more bored, less bored",NA,NA,NA,NA,NA,NA,NA,NA,NA,NA,NA,NA,NA,NA,NA,0,0,0,2,1,NA,NA,NA,NA,NA,NA,NA,NA,NA,NA,NA,NA,NA,NA,NA,NA,NA,NA,NA,NA,NA,NA,NA,NA,NA,NA,NA,NA
SUPAMT82077,34YB12FSQ4N8XPCBL48F9OM94J9GMN,B6882374-1DD7-42A7-B9E8-21CC219919C3,2023-09-28_21h29.39.135,WP_VExplicitOC_LH,2022.2.5,Win32,13.5171668,100,3.2002,2.0546,NA,NA,NA,NA,NA,happy,"unhappy, happy","less happy, more happy",NA,NA,NA,NA,NA,NA,NA,NA,NA,NA,NA,NA,NA,NA,NA,0,1,1,0,1,NA,NA,NA,NA,NA,NA,NA,NA,NA,NA,NA,NA,NA,NA,NA,NA,NA,NA,NA,NA,NA,NA,NA,NA,NA,NA,NA,NA
SUPAMT82077,34YB12FSQ4N8XPCBL48F9OM94J9GMN,B6882374-1DD7-42A7-B9E8-21CC219919C3,2023-09-28_21h29.39.135,WP_VExplicitOC_LH,2022.2.5,Win32,13.5171668,100,3.7358,2.0659,NA,NA,NA,NA,NA,frustrated,"frustrated, not frustrated","more frustrated, less frustrated",NA,NA,NA,NA,NA,NA,NA,NA,NA,NA,NA,NA,NA,NA,NA,0,2,2,1,1,NA,NA,NA,NA,NA,NA,NA,NA,NA,NA,NA,NA,NA,NA,NA,NA,NA,NA,NA,NA,NA,NA,NA,NA,NA,NA,NA,NA
SUPAMT82077,34YB12FSQ4N8XPCBL48F9OM94J9GMN,B6882374-1DD7-42A7-B9E8-21CC219919C3,2023-09-28_21h29.39.135,WP_VExplicitOC_LH,2022.2.5,Win32,13.5171668,NA,NA,NA,NA,NA,NA,NA,NA,NA,NA,NA,NA,NA,NA,NA,NA,NA,NA,NA,NA,NA,NA,NA,NA,NA,NA,NA,NA,NA,NA,NA,13,0,13,0,1,NA,NA,NA,NA,NA,NA,NA,NA,NA,NA,NA,NA,NA,NA,NA,NA,NA,NA,NA,NA,NA,NA,NA
SUPAMT82077,34YB12FSQ4N8XPCBL48F9OM94J9GMN,B6882374-1DD7-42A7-B9E8-21CC219919C3,2023-09-28_21h29.39.135,WP_VExplicitOC_LH,2022.2.5,Win32,13.5171668,99.73958333,4.6344,2.0223,NA,NA,NA,NA,NA,frustrated,"frustrated, not frustrated","more frustrated, less frustrated",NA,NA,NA,NA,NA,NA,NA,NA,NA,NA,NA,NA,NA,NA,NA,0,0,0,1,1,NA,NA,NA,NA,NA,NA,NA,NA,NA,NA,NA,NA,NA,NA,NA,NA,NA,NA,NA,NA,NA,NA,NA,NA,NA,NA,NA,NA
SUPAMT82077,34YB12FSQ4N8XPCBL48F9OM94J9GMN,B6882374-1DD7-42A7-B9E8-21CC219919C3,2023-09-28_21h29.39.135,WP_VExplicitOC_LH,2022.2.5,Win32,13.5171668,100,3.2857,2.114,NA,NA,NA,NA,NA,bored,"bored, not bored","more bored, less bored",NA,NA,NA,NA,NA,NA,NA,NA,NA,NA,NA,NA,NA,NA,NA,0,1,1,2,1,NA,NA,NA,NA,NA,NA,NA,NA,NA,NA,NA,NA,NA,NA,NA,NA,NA,NA,NA,NA,NA,NA,NA,NA,NA,NA,NA,NA
SUPAMT82077,34YB12FSQ4N8XPCBL48F9OM94J9GMN,B6882374-1DD7-42A7-B9E8-21CC219919C3,2023-09-28_21h29.39.135,WP_VExplicitOC_LH,2022.2.5,Win32,13.5171668,100,3.3475,2.0852,NA,NA,NA,NA,NA,happy,"unhappy, happy","less happy, more happy",NA,NA,NA,NA,NA,NA,NA,NA,NA,NA,NA,NA,NA,NA,NA,0,2,2,0,1,NA,NA,NA,NA,NA,NA,NA,NA,NA,NA,NA,NA,NA,NA,NA,NA,NA,NA,NA,NA,NA,NA,NA,NA,NA,NA,NA,NA
SUPAMT82077,34YB12FSQ4N8XPCBL48F9OM94J9GMN,B6882374-1DD7-42A7-B9E8-21CC219919C3,2023-09-28_21h29.39.135,WP_VExplicitOC_LH,2022.2.5,Win32,13.5171668,NA,NA,NA,NA,NA,NA,NA,NA,NA,NA,NA,NA,NA,NA,NA,NA,NA,NA,NA,NA,NA,NA,NA,NA,NA,NA,NA,NA,NA,NA,NA,14,0,14,0,1,NA,NA,NA,NA,NA,NA,NA,NA,NA,NA,NA,NA,NA,NA,NA,NA,NA,NA,NA,NA,NA,NA,NA
SUPAMT82077,34YB12FSQ4N8XPCBL48F9OM94J9GMN,B6882374-1DD7-42A7-B9E8-21CC219919C3,2023-09-28_21h29.39.135,WP_VExplicitOC_LH,2022.2.5,Win32,13.5171668,NA,NA,NA,NA,NA,NA,NA,NA,NA,NA,NA,NA,NA,NA,NA,NA,NA,NA,NA,NA,NA,NA,NA,NA,NA,NA,NA,NA,NA,NA,NA,NA,NA,NA,NA,NA,NA,NA,NA,NA,NA,NA,NA,NA,NA,NA,NA,NA,NA,NA,NA,NA,NA,NA,NA,NA,NA,NA,NA
SUPAMT82077,34YB12FSQ4N8XPCBL48F9OM94J9GMN,B6882374-1DD7-42A7-B9E8-21CC219919C3,2023-09-28_21h29.39.135,WP_VExplicitOC_LH,2022.2.5,Win32,13.5171668,NA,NA,NA,NA,NA,NA,NA,NA,NA,NA,NA,NA,NA,NA,NA,NA,NA,NA,NA,NA,NA,NA,NA,NA,NA,NA,NA,NA,NA,NA,NA,NA,NA,NA,NA,NA,NA,NA,NA,NA,NA,NA,NA,NA,NA,NA,NA,NA,NA,NA,NA,NA,NA,NA,NA,NA,NA,NA,NA
SUPAMT82077,34YB12FSQ4N8XPCBL48F9OM94J9GMN,B6882374-1DD7-42A7-B9E8-21CC219919C3,2023-09-28_21h29.39.135,WP_VExplicitOC_LH,2022.2.5,Win32,13.5171668,NA,NA,NA,NA,NA,NA,NA,NA,NA,NA,NA,NA,NA,NA,NA,NA,NA,NA,rest (looking at a fixed cross),001.png,NA,NA,NA,NA,NA,NA,NA,NA,NA,NA,NA,NA,NA,NA,NA,NA,100,6.9884,0,0,0,0,1,NA,NA,NA,NA,NA,NA,NA,NA,NA,NA,NA,NA,NA,NA,NA,NA
SUPAMT82077,34YB12FSQ4N8XPCBL48F9OM94J9GMN,B6882374-1DD7-42A7-B9E8-21CC219919C3,2023-09-28_21h29.39.135,WP_VExplicitOC_LH,2022.2.5,Win32,13.5171668,NA,NA,NA,NA,NA,NA,NA,NA,NA,NA,NA,NA,NA,NA,NA,NA,NA,NA,stand up,002.png,NA,NA,NA,NA,NA,NA,NA,NA,NA,NA,NA,NA,NA,NA,NA,NA,60.15625,1.8068,0,1,1,1,1,NA,NA,NA,NA,NA,NA,NA,NA,NA,NA,NA,NA,NA,NA,NA,NA
SUPAMT82077,34YB12FSQ4N8XPCBL48F9OM94J9GMN,B6882374-1DD7-42A7-B9E8-21CC219919C3,2023-09-28_21h29.39.135,WP_VExplicitOC_LH,2022.2.5,Win32,13.5171668,NA,NA,NA,NA,NA,NA,NA,NA,NA,NA,NA,NA,NA,NA,NA,NA,NA,NA,stretch,003.png,NA,NA,NA,NA,NA,NA,NA,NA,NA,NA,NA,NA,NA,NA,NA,NA,100,2.2761,0,2,2,2,1,NA,NA,NA,NA,NA,NA,NA,NA,NA,NA,NA,NA,NA,NA,NA,NA
SUPAMT82077,34YB12FSQ4N8XPCBL48F9OM94J9GMN,B6882374-1DD7-42A7-B9E8-21CC219919C3,2023-09-28_21h29.39.135,WP_VExplicitOC_LH,2022.2.5,Win32,13.5171668,NA,NA,NA,NA,NA,NA,NA,NA,NA,NA,NA,NA,NA,NA,NA,NA,NA,NA,make a drink,004.png,NA,NA,NA,NA,NA,NA,NA,NA,NA,NA,NA,NA,NA,NA,NA,NA,-54.94791667,2.4228,0,3,3,3,1,NA,NA,NA,NA,NA,NA,NA,NA,NA,NA,NA,NA,NA,NA,NA,NA
SUPAMT82077,34YB12FSQ4N8XPCBL48F9OM94J9GMN,B6882374-1DD7-42A7-B9E8-21CC219919C3,2023-09-28_21h29.39.135,WP_VExplicitOC_LH,2022.2.5,Win32,13.5171668,NA,NA,NA,NA,NA,NA,NA,NA,NA,NA,NA,NA,NA,NA,NA,NA,NA,NA,scroll social media,005.png,NA,NA,NA,NA,NA,NA,NA,NA,NA,NA,NA,NA,NA,NA,NA,NA,100,1.5229,0,4,4,4,1,NA,NA,NA,NA,NA,NA,NA,NA,NA,NA,NA,NA,NA,NA,NA,NA
SUPAMT82077,34YB12FSQ4N8XPCBL48F9OM94J9GMN,B6882374-1DD7-42A7-B9E8-21CC219919C3,2023-09-28_21h29.39.135,WP_VExplicitOC_LH,2022.2.5,Win32,13.5171668,NA,NA,NA,NA,NA,NA,NA,NA,NA,NA,NA,NA,NA,NA,NA,NA,NA,NA,listen to music,006.png,NA,NA,NA,NA,NA,NA,NA,NA,NA,NA,NA,NA,NA,NA,NA,NA,100,1.417,0,5,5,5,1,NA,NA,NA,NA,NA,NA,NA,NA,NA,NA,NA,NA,NA,NA,NA,NA
SUPAMT82077,34YB12FSQ4N8XPCBL48F9OM94J9GMN,B6882374-1DD7-42A7-B9E8-21CC219919C3,2023-09-28_21h29.39.135,WP_VExplicitOC_LH,2022.2.5,Win32,13.5171668,NA,NA,NA,NA,NA,NA,NA,NA,NA,NA,NA,NA,NA,NA,NA,NA,NA,NA,daydream,007.png,NA,NA,NA,NA,NA,NA,NA,NA,NA,NA,NA,NA,NA,NA,NA,NA,-100,2.9855,0,6,6,6,1,NA,NA,NA,NA,NA,NA,NA,NA,NA,NA,NA,NA,NA,NA,NA,NA
SUPAMT82077,34YB12FSQ4N8XPCBL48F9OM94J9GMN,B6882374-1DD7-42A7-B9E8-21CC219919C3,2023-09-28_21h29.39.135,WP_VExplicitOC_LH,2022.2.5,Win32,13.5171668,NA,NA,NA,NA,NA,NA,NA,NA,NA,NA,NA,NA,NA,NA,NA,NA,NA,NA,watch a short animation,008.png,NA,NA,NA,NA,NA,NA,NA,NA,NA,NA,NA,NA,NA,NA,NA,NA,100,2.4876,0,7,7,7,1,NA,NA,NA,NA,NA,NA,NA,NA,NA,NA,NA,NA,NA,NA,NA,NA
SUPAMT82077,34YB12FSQ4N8XPCBL48F9OM94J9GMN,B6882374-1DD7-42A7-B9E8-21CC219919C3,2023-09-28_21h29.39.135,WP_VExplicitOC_LH,2022.2.5,Win32,13.5171668,NA,NA,NA,NA,NA,NA,NA,NA,NA,NA,NA,NA,NA,NA,NA,NA,NA,NA,read a novel,009.png,NA,NA,NA,NA,NA,NA,NA,NA,NA,NA,NA,NA,NA,NA,NA,NA,77.08333333,2.4002,0,8,8,8,1,NA,NA,NA,NA,NA,NA,NA,NA,NA,NA,NA,NA,NA,NA,NA,NA
SUPAMT82077,34YB12FSQ4N8XPCBL48F9OM94J9GMN,B6882374-1DD7-42A7-B9E8-21CC219919C3,2023-09-28_21h29.39.135,WP_VExplicitOC_LH,2022.2.5,Win32,13.5171668,NA,NA,NA,NA,NA,NA,NA,NA,NA,NA,NA,NA,NA,NA,NA,NA,NA,NA,read the news,010.png,NA,NA,NA,NA,NA,NA,NA,NA,NA,NA,NA,NA,NA,NA,NA,NA,-97.13541667,1.623,0,9,9,9,1,NA,NA,NA,NA,NA,NA,NA,NA,NA,NA,NA,NA,NA,NA,NA,NA
SUPAMT82077,34YB12FSQ4N8XPCBL48F9OM94J9GMN,B6882374-1DD7-42A7-B9E8-21CC219919C3,2023-09-28_21h29.39.135,WP_VExplicitOC_LH,2022.2.5,Win32,13.5171668,NA,NA,NA,NA,NA,NA,NA,NA,NA,NA,NA,NA,NA,NA,NA,NA,NA,NA,NA,NA,NA,NA,NA,NA,NA,NA,NA,NA,NA,NA,NA,NA,NA,NA,NA,NA,NA,NA,NA,NA,NA,NA,NA,stretch,NA,NA,NA,NA,NA,NA,NA,NA,NA,NA,NA,NA,NA,NA,NA
SUPAMT82077,34YB12FSQ4N8XPCBL48F9OM94J9GMN,B6882374-1DD7-42A7-B9E8-21CC219919C3,2023-09-28_21h29.39.135,WP_VExplicitOC_LH,2022.2.5,Win32,13.5171668,100,5.2053,2.089,NA,NA,NA,NA,NA,happy,"unhappy, happy","less happy, more happy",NA,NA,NA,NA,NA,NA,NA,NA,NA,NA,NA,NA,NA,NA,NA,NA,NA,NA,NA,NA,NA,NA,NA,NA,NA,NA,NA,NA,NA,NA,NA,NA,NA,0,0,0,0,1,NA,NA,NA,NA,NA,NA,NA,NA,NA,NA
SUPAMT82077,34YB12FSQ4N8XPCBL48F9OM94J9GMN,B6882374-1DD7-42A7-B9E8-21CC219919C3,2023-09-28_21h29.39.135,WP_VExplicitOC_LH,2022.2.5,Win32,13.5171668,100,3.447,2.072,NA,NA,NA,NA,NA,frustrated,"frustrated, not frustrated","more frustrated, less frustrated",NA,NA,NA,NA,NA,NA,NA,NA,NA,NA,NA,NA,NA,NA,NA,NA,NA,NA,NA,NA,NA,NA,NA,NA,NA,NA,NA,NA,NA,NA,NA,NA,NA,0,1,1,1,1,NA,NA,NA,NA,NA,NA,NA,NA,NA,NA
SUPAMT82077,34YB12FSQ4N8XPCBL48F9OM94J9GMN,B6882374-1DD7-42A7-B9E8-21CC219919C3,2023-09-28_21h29.39.135,WP_VExplicitOC_LH,2022.2.5,Win32,13.5171668,100,3.362,2.0074,NA,NA,NA,NA,NA,bored,"bored, not bored","more bored, less bored",NA,NA,NA,NA,NA,NA,NA,NA,NA,NA,NA,NA,NA,NA,NA,NA,NA,NA,NA,NA,NA,NA,NA,NA,NA,NA,NA,NA,NA,NA,NA,NA,NA,0,2,2,2,1,NA,NA,NA,NA,NA,NA,NA,NA,NA,NA
SUPAMT82077,34YB12FSQ4N8XPCBL48F9OM94J9GMN,B6882374-1DD7-42A7-B9E8-21CC219919C3,2023-09-28_21h29.39.135,WP_VExplicitOC_LH,2022.2.5,Win32,13.5171668,NA,NA,NA,NA,NA,NA,NA,NA,NA,NA,NA,NA,NA,NA,NA,NA,NA,NA,NA,NA,NA,NA,NA,NA,NA,NA,NA,NA,NA,NA,NA,NA,NA,NA,NA,NA,NA,NA,NA,NA,NA,NA,NA,NA,NA,NA,NA,NA,NA,NA,NA,NA,NA,NA,NA,NA,NA,NA,NA
SUPAMT82077,34YB12FSQ4N8XPCBL48F9OM94J9GMN,B6882374-1DD7-42A7-B9E8-21CC219919C3,2023-09-28_21h29.39.135,WP_VExplicitOC_LH,2022.2.5,Win32,13.5171668,NA,NA,NA,NA,NA,NA,NA,NA,NA,NA,NA,NA,NA,NA,NA,NA,NA,NA,NA,NA,NA,NA,NA,NA,NA,NA,NA,NA,NA,NA,NA,NA,NA,NA,NA,NA,NA,NA,NA,NA,NA,NA,NA,NA,NA,NA,NA,NA,NA,NA,NA,NA,NA,NA,NA,NA,NA,NA,NA
SUPAMT82077,34YB12FSQ4N8XPCBL48F9OM94J9GMN,B6882374-1DD7-42A7-B9E8-21CC219919C3,2023-09-28_21h29.39.135,WP_VExplicitOC_LH,2022.2.5,Win32,13.5171668,100,4.0077,2.0418,NA,NA,NA,NA,NA,bored,"bored, not bored","more bored, less bored",NA,NA,NA,NA,NA,NA,NA,NA,NA,NA,NA,NA,NA,NA,NA,NA,NA,NA,NA,NA,NA,NA,NA,NA,NA,NA,NA,NA,NA,NA,NA,NA,NA,NA,NA,NA,NA,NA,0,0,0,2,1,NA,NA,NA,NA,NA
SUPAMT82077,34YB12FSQ4N8XPCBL48F9OM94J9GMN,B6882374-1DD7-42A7-B9E8-21CC219919C3,2023-09-28_21h29.39.135,WP_VExplicitOC_LH,2022.2.5,Win32,13.5171668,100,3.2528,2.0493,NA,NA,NA,NA,NA,frustrated,"frustrated, not frustrated","more frustrated, less frustrated",NA,NA,NA,NA,NA,NA,NA,NA,NA,NA,NA,NA,NA,NA,NA,NA,NA,NA,NA,NA,NA,NA,NA,NA,NA,NA,NA,NA,NA,NA,NA,NA,NA,NA,NA,NA,NA,NA,0,1,1,1,1,NA,NA,NA,NA,NA
SUPAMT82077,34YB12FSQ4N8XPCBL48F9OM94J9GMN,B6882374-1DD7-42A7-B9E8-21CC219919C3,2023-09-28_21h29.39.135,WP_VExplicitOC_LH,2022.2.5,Win32,13.5171668,100,3.5276,2.0097,NA,NA,NA,NA,NA,happy,"unhappy, happy","less happy, more happy",NA,NA,NA,NA,NA,NA,NA,NA,NA,NA,NA,NA,NA,NA,NA,NA,NA,NA,NA,NA,NA,NA,NA,NA,NA,NA,NA,NA,NA,NA,NA,NA,NA,NA,NA,NA,NA,NA,0,2,2,0,1,NA,NA,NA,NA,NA
SUPAMT82077,34YB12FSQ4N8XPCBL48F9OM94J9GMN,B6882374-1DD7-42A7-B9E8-21CC219919C3,2023-09-28_21h29.39.135,WP_VExplicitOC_LH,2022.2.5,Win32,13.5171668,NA,NA,NA,NA,NA,NA,NA,NA,NA,NA,NA,NA,NA,NA,NA,NA,NA,NA,NA,NA,NA,NA,NA,NA,NA,NA,NA,NA,NA,NA,NA,NA,NA,NA,NA,NA,NA,NA,NA,NA,NA,NA,NA,NA,NA,NA,NA,NA,NA,NA,NA,NA,NA,NA,0,0,0,0,1
SUPAMT82077,34YB12FSQ4N8XPCBL48F9OM94J9GMN,B6882374-1DD7-42A7-B9E8-21CC219919C3,2023-09-28_21h29.39.135,WP_VExplicitOC_LH,2022.2.5,Win32,13.5171668,100,6.3428,2.1095,NA,NA,NA,NA,NA,frustrated,"frustrated, not frustrated","more frustrated, less frustrated",NA,NA,NA,NA,NA,NA,NA,NA,NA,NA,NA,NA,NA,NA,NA,NA,NA,NA,NA,NA,NA,NA,NA,NA,NA,NA,NA,NA,NA,NA,NA,NA,NA,NA,NA,NA,NA,NA,0,0,0,1,1,NA,NA,NA,NA,NA
SUPAMT82077,34YB12FSQ4N8XPCBL48F9OM94J9GMN,B6882374-1DD7-42A7-B9E8-21CC219919C3,2023-09-28_21h29.39.135,WP_VExplicitOC_LH,2022.2.5,Win32,13.5171668,100,3.6995,2.0059,NA,NA,NA,NA,NA,happy,"unhappy, happy","less happy, more happy",NA,NA,NA,NA,NA,NA,NA,NA,NA,NA,NA,NA,NA,NA,NA,NA,NA,NA,NA,NA,NA,NA,NA,NA,NA,NA,NA,NA,NA,NA,NA,NA,NA,NA,NA,NA,NA,NA,0,1,1,0,1,NA,NA,NA,NA,NA
SUPAMT82077,34YB12FSQ4N8XPCBL48F9OM94J9GMN,B6882374-1DD7-42A7-B9E8-21CC219919C3,2023-09-28_21h29.39.135,WP_VExplicitOC_LH,2022.2.5,Win32,13.5171668,100,4.0849,2.0932,NA,NA,NA,NA,NA,bored,"bored, not bored","more bored, less bored",NA,NA,NA,NA,NA,NA,NA,NA,NA,NA,NA,NA,NA,NA,NA,NA,NA,NA,NA,NA,NA,NA,NA,NA,NA,NA,NA,NA,NA,NA,NA,NA,NA,NA,NA,NA,NA,NA,0,2,2,2,1,NA,NA,NA,NA,NA
SUPAMT82077,34YB12FSQ4N8XPCBL48F9OM94J9GMN,B6882374-1DD7-42A7-B9E8-21CC219919C3,2023-09-28_21h29.39.135,WP_VExplicitOC_LH,2022.2.5,Win32,13.5171668,NA,NA,NA,NA,NA,NA,NA,NA,NA,NA,NA,NA,NA,NA,NA,NA,NA,NA,NA,NA,NA,NA,NA,NA,NA,NA,NA,NA,NA,NA,NA,NA,NA,NA,NA,NA,NA,NA,NA,NA,NA,NA,NA,NA,NA,NA,NA,NA,NA,NA,NA,NA,NA,NA,1,0,1,0,1
SUPAMT82077,34YB12FSQ4N8XPCBL48F9OM94J9GMN,B6882374-1DD7-42A7-B9E8-21CC219919C3,2023-09-28_21h29.39.135,WP_VExplicitOC_LH,2022.2.5,Win32,13.5171668,100,4.8979,2.0623,NA,NA,NA,NA,NA,bored,"bored, not bored","more bored, less bored",NA,NA,NA,NA,NA,NA,NA,NA,NA,NA,NA,NA,NA,NA,NA,NA,NA,NA,NA,NA,NA,NA,NA,NA,NA,NA,NA,NA,NA,NA,NA,NA,NA,NA,NA,NA,NA,NA,0,0,0,2,1,NA,NA,NA,NA,NA
SUPAMT82077,34YB12FSQ4N8XPCBL48F9OM94J9GMN,B6882374-1DD7-42A7-B9E8-21CC219919C3,2023-09-28_21h29.39.135,WP_VExplicitOC_LH,2022.2.5,Win32,13.5171668,100,3.5118,2.0122,NA,NA,NA,NA,NA,frustrated,"frustrated, not frustrated","more frustrated, less frustrated",NA,NA,NA,NA,NA,NA,NA,NA,NA,NA,NA,NA,NA,NA,NA,NA,NA,NA,NA,NA,NA,NA,NA,NA,NA,NA,NA,NA,NA,NA,NA,NA,NA,NA,NA,NA,NA,NA,0,1,1,1,1,NA,NA,NA,NA,NA
SUPAMT82077,34YB12FSQ4N8XPCBL48F9OM94J9GMN,B6882374-1DD7-42A7-B9E8-21CC219919C3,2023-09-28_21h29.39.135,WP_VExplicitOC_LH,2022.2.5,Win32,13.5171668,100,4.2449,2.0783,NA,NA,NA,NA,NA,happy,"unhappy, happy","less happy, more happy",NA,NA,NA,NA,NA,NA,NA,NA,NA,NA,NA,NA,NA,NA,NA,NA,NA,NA,NA,NA,NA,NA,NA,NA,NA,NA,NA,NA,NA,NA,NA,NA,NA,NA,NA,NA,NA,NA,0,2,2,0,1,NA,NA,NA,NA,NA
SUPAMT82077,34YB12FSQ4N8XPCBL48F9OM94J9GMN,B6882374-1DD7-42A7-B9E8-21CC219919C3,2023-09-28_21h29.39.135,WP_VExplicitOC_LH,2022.2.5,Win32,13.5171668,NA,NA,NA,NA,NA,NA,NA,NA,NA,NA,NA,NA,NA,NA,NA,NA,NA,NA,NA,NA,NA,NA,NA,NA,NA,NA,NA,NA,NA,NA,NA,NA,NA,NA,NA,NA,NA,NA,NA,NA,NA,NA,NA,NA,NA,NA,NA,NA,NA,NA,NA,NA,NA,NA,2,0,2,0,1
SUPAMT82077,34YB12FSQ4N8XPCBL48F9OM94J9GMN,B6882374-1DD7-42A7-B9E8-21CC219919C3,2023-09-28_21h29.39.135,WP_VExplicitOC_LH,2022.2.5,Win32,13.5171668,100,3.5752,2.0103,NA,NA,NA,NA,NA,bored,"bored, not bored","more bored, less bored",NA,NA,NA,NA,NA,NA,NA,NA,NA,NA,NA,NA,NA,NA,NA,NA,NA,NA,NA,NA,NA,NA,NA,NA,NA,NA,NA,NA,NA,NA,NA,NA,NA,NA,NA,NA,NA,NA,0,0,0,2,1,NA,NA,NA,NA,NA
SUPAMT82077,34YB12FSQ4N8XPCBL48F9OM94J9GMN,B6882374-1DD7-42A7-B9E8-21CC219919C3,2023-09-28_21h29.39.135,WP_VExplicitOC_LH,2022.2.5,Win32,13.5171668,100,4.9862,2.112,NA,NA,NA,NA,NA,happy,"unhappy, happy","less happy, more happy",NA,NA,NA,NA,NA,NA,NA,NA,NA,NA,NA,NA,NA,NA,NA,NA,NA,NA,NA,NA,NA,NA,NA,NA,NA,NA,NA,NA,NA,NA,NA,NA,NA,NA,NA,NA,NA,NA,0,1,1,0,1,NA,NA,NA,NA,NA
SUPAMT82077,34YB12FSQ4N8XPCBL48F9OM94J9GMN,B6882374-1DD7-42A7-B9E8-21CC219919C3,2023-09-28_21h29.39.135,WP_VExplicitOC_LH,2022.2.5,Win32,13.5171668,100,3.2221,2.0249,NA,NA,NA,NA,NA,frustrated,"frustrated, not frustrated","more frustrated, less frustrated",NA,NA,NA,NA,NA,NA,NA,NA,NA,NA,NA,NA,NA,NA,NA,NA,NA,NA,NA,NA,NA,NA,NA,NA,NA,NA,NA,NA,NA,NA,NA,NA,NA,NA,NA,NA,NA,NA,0,2,2,1,1,NA,NA,NA,NA,NA
SUPAMT82077,34YB12FSQ4N8XPCBL48F9OM94J9GMN,B6882374-1DD7-42A7-B9E8-21CC219919C3,2023-09-28_21h29.39.135,WP_VExplicitOC_LH,2022.2.5,Win32,13.5171668,NA,NA,NA,NA,NA,NA,NA,NA,NA,NA,NA,NA,NA,NA,NA,NA,NA,NA,NA,NA,NA,NA,NA,NA,NA,NA,NA,NA,NA,NA,NA,NA,NA,NA,NA,NA,NA,NA,NA,NA,NA,NA,NA,NA,NA,NA,NA,NA,NA,NA,NA,NA,NA,NA,3,0,3,0,1
SUPAMT82077,34YB12FSQ4N8XPCBL48F9OM94J9GMN,B6882374-1DD7-42A7-B9E8-21CC219919C3,2023-09-28_21h29.39.135,WP_VExplicitOC_LH,2022.2.5,Win32,13.5171668,-100,3.3113,2.0097,NA,NA,NA,NA,NA,bored,"bored, not bored","more bored, less bored",NA,NA,NA,NA,NA,NA,NA,NA,NA,NA,NA,NA,NA,NA,NA,NA,NA,NA,NA,NA,NA,NA,NA,NA,NA,NA,NA,NA,NA,NA,NA,NA,NA,NA,NA,NA,NA,NA,0,0,0,2,1,NA,NA,NA,NA,NA
SUPAMT82077,34YB12FSQ4N8XPCBL48F9OM94J9GMN,B6882374-1DD7-42A7-B9E8-21CC219919C3,2023-09-28_21h29.39.135,WP_VExplicitOC_LH,2022.2.5,Win32,13.5171668,100,6.1801,2.1671,NA,NA,NA,NA,NA,happy,"unhappy, happy","less happy, more happy",NA,NA,NA,NA,NA,NA,NA,NA,NA,NA,NA,NA,NA,NA,NA,NA,NA,NA,NA,NA,NA,NA,NA,NA,NA,NA,NA,NA,NA,NA,NA,NA,NA,NA,NA,NA,NA,NA,0,1,1,0,1,NA,NA,NA,NA,NA
SUPAMT82077,34YB12FSQ4N8XPCBL48F9OM94J9GMN,B6882374-1DD7-42A7-B9E8-21CC219919C3,2023-09-28_21h29.39.135,WP_VExplicitOC_LH,2022.2.5,Win32,13.5171668,100,4.3601,2.0979,NA,NA,NA,NA,NA,frustrated,"frustrated, not frustrated","more frustrated, less frustrated",NA,NA,NA,NA,NA,NA,NA,NA,NA,NA,NA,NA,NA,NA,NA,NA,NA,NA,NA,NA,NA,NA,NA,NA,NA,NA,NA,NA,NA,NA,NA,NA,NA,NA,NA,NA,NA,NA,0,2,2,1,1,NA,NA,NA,NA,NA
SUPAMT82077,34YB12FSQ4N8XPCBL48F9OM94J9GMN,B6882374-1DD7-42A7-B9E8-21CC219919C3,2023-09-28_21h29.39.135,WP_VExplicitOC_LH,2022.2.5,Win32,13.5171668,NA,NA,NA,NA,NA,NA,NA,NA,NA,NA,NA,NA,NA,NA,NA,NA,NA,NA,NA,NA,NA,NA,NA,NA,NA,NA,NA,NA,NA,NA,NA,NA,NA,NA,NA,NA,NA,NA,NA,NA,NA,NA,NA,NA,NA,NA,NA,NA,NA,NA,NA,NA,NA,NA,4,0,4,0,1
SUPAMT82077,34YB12FSQ4N8XPCBL48F9OM94J9GMN,B6882374-1DD7-42A7-B9E8-21CC219919C3,2023-09-28_21h29.39.135,WP_VExplicitOC_LH,2022.2.5,Win32,13.5171668,100,3.7173,2.0629,NA,NA,NA,NA,NA,frustrated,"frustrated, not frustrated","more frustrated, less frustrated",NA,NA,NA,NA,NA,NA,NA,NA,NA,NA,NA,NA,NA,NA,NA,NA,NA,NA,NA,NA,NA,NA,NA,NA,NA,NA,NA,NA,NA,NA,NA,NA,NA,NA,NA,NA,NA,NA,0,0,0,1,1,NA,NA,NA,NA,NA
SUPAMT82077,34YB12FSQ4N8XPCBL48F9OM94J9GMN,B6882374-1DD7-42A7-B9E8-21CC219919C3,2023-09-28_21h29.39.135,WP_VExplicitOC_LH,2022.2.5,Win32,13.5171668,100,3.4605,2.0694,NA,NA,NA,NA,NA,bored,"bored, not bored","more bored, less bored",NA,NA,NA,NA,NA,NA,NA,NA,NA,NA,NA,NA,NA,NA,NA,NA,NA,NA,NA,NA,NA,NA,NA,NA,NA,NA,NA,NA,NA,NA,NA,NA,NA,NA,NA,NA,NA,NA,0,1,1,2,1,NA,NA,NA,NA,NA
SUPAMT82077,34YB12FSQ4N8XPCBL48F9OM94J9GMN,B6882374-1DD7-42A7-B9E8-21CC219919C3,2023-09-28_21h29.39.135,WP_VExplicitOC_LH,2022.2.5,Win32,13.5171668,100,3.1836,2.0448,NA,NA,NA,NA,NA,happy,"unhappy, happy","less happy, more happy",NA,NA,NA,NA,NA,NA,NA,NA,NA,NA,NA,NA,NA,NA,NA,NA,NA,NA,NA,NA,NA,NA,NA,NA,NA,NA,NA,NA,NA,NA,NA,NA,NA,NA,NA,NA,NA,NA,0,2,2,0,1,NA,NA,NA,NA,NA
SUPAMT82077,34YB12FSQ4N8XPCBL48F9OM94J9GMN,B6882374-1DD7-42A7-B9E8-21CC219919C3,2023-09-28_21h29.39.135,WP_VExplicitOC_LH,2022.2.5,Win32,13.5171668,NA,NA,NA,NA,NA,NA,NA,NA,NA,NA,NA,NA,NA,NA,NA,NA,NA,NA,NA,NA,NA,NA,NA,NA,NA,NA,NA,NA,NA,NA,NA,NA,NA,NA,NA,NA,NA,NA,NA,NA,NA,NA,NA,NA,NA,NA,NA,NA,NA,NA,NA,NA,NA,NA,5,0,5,0,1
SUPAMT82077,34YB12FSQ4N8XPCBL48F9OM94J9GMN,B6882374-1DD7-42A7-B9E8-21CC219919C3,2023-09-28_21h29.39.135,WP_VExplicitOC_LH,2022.2.5,Win32,13.5171668,100,5.3604,2.0718,NA,NA,NA,NA,NA,bored,"bored, not bored","more bored, less bored",NA,NA,NA,NA,NA,NA,NA,NA,NA,NA,NA,NA,NA,NA,NA,NA,NA,NA,NA,NA,NA,NA,NA,NA,NA,NA,NA,NA,NA,NA,NA,NA,NA,NA,NA,NA,NA,NA,0,0,0,2,1,NA,NA,NA,NA,NA
SUPAMT82077,34YB12FSQ4N8XPCBL48F9OM94J9GMN,B6882374-1DD7-42A7-B9E8-21CC219919C3,2023-09-28_21h29.39.135,WP_VExplicitOC_LH,2022.2.5,Win32,13.5171668,100,3.4723,2.0738,NA,NA,NA,NA,NA,frustrated,"frustrated, not frustrated","more frustrated, less frustrated",NA,NA,NA,NA,NA,NA,NA,NA,NA,NA,NA,NA,NA,NA,NA,NA,NA,NA,NA,NA,NA,NA,NA,NA,NA,NA,NA,NA,NA,NA,NA,NA,NA,NA,NA,NA,NA,NA,0,1,1,1,1,NA,NA,NA,NA,NA
SUPAMT82077,34YB12FSQ4N8XPCBL48F9OM94J9GMN,B6882374-1DD7-42A7-B9E8-21CC219919C3,2023-09-28_21h29.39.135,WP_VExplicitOC_LH,2022.2.5,Win32,13.5171668,100,3.5949,2.0353,NA,NA,NA,NA,NA,happy,"unhappy, happy","less happy, more happy",NA,NA,NA,NA,NA,NA,NA,NA,NA,NA,NA,NA,NA,NA,NA,NA,NA,NA,NA,NA,NA,NA,NA,NA,NA,NA,NA,NA,NA,NA,NA,NA,NA,NA,NA,NA,NA,NA,0,2,2,0,1,NA,NA,NA,NA,NA
SUPAMT82077,34YB12FSQ4N8XPCBL48F9OM94J9GMN,B6882374-1DD7-42A7-B9E8-21CC219919C3,2023-09-28_21h29.39.135,WP_VExplicitOC_LH,2022.2.5,Win32,13.5171668,NA,NA,NA,NA,NA,NA,NA,NA,NA,NA,NA,NA,NA,NA,NA,NA,NA,NA,NA,NA,NA,NA,NA,NA,NA,NA,NA,NA,NA,NA,NA,NA,NA,NA,NA,NA,NA,NA,NA,NA,NA,NA,NA,NA,NA,NA,NA,NA,NA,NA,NA,NA,NA,NA,6,0,6,0,1
SUPAMT82077,34YB12FSQ4N8XPCBL48F9OM94J9GMN,B6882374-1DD7-42A7-B9E8-21CC219919C3,2023-09-28_21h29.39.135,WP_VExplicitOC_LH,2022.2.5,Win32,13.5171668,-100,3.9426,2.0137,NA,NA,NA,NA,NA,bored,"bored, not bored","more bored, less bored",NA,NA,NA,NA,NA,NA,NA,NA,NA,NA,NA,NA,NA,NA,NA,NA,NA,NA,NA,NA,NA,NA,NA,NA,NA,NA,NA,NA,NA,NA,NA,NA,NA,NA,NA,NA,NA,NA,0,0,0,2,1,NA,NA,NA,NA,NA
SUPAMT82077,34YB12FSQ4N8XPCBL48F9OM94J9GMN,B6882374-1DD7-42A7-B9E8-21CC219919C3,2023-09-28_21h29.39.135,WP_VExplicitOC_LH,2022.2.5,Win32,13.5171668,-100,3.4871,2.0781,NA,NA,NA,NA,NA,happy,"unhappy, happy","less happy, more happy",NA,NA,NA,NA,NA,NA,NA,NA,NA,NA,NA,NA,NA,NA,NA,NA,NA,NA,NA,NA,NA,NA,NA,NA,NA,NA,NA,NA,NA,NA,NA,NA,NA,NA,NA,NA,NA,NA,0,1,1,0,1,NA,NA,NA,NA,NA
SUPAMT82077,34YB12FSQ4N8XPCBL48F9OM94J9GMN,B6882374-1DD7-42A7-B9E8-21CC219919C3,2023-09-28_21h29.39.135,WP_VExplicitOC_LH,2022.2.5,Win32,13.5171668,-100,3.8701,2.0944,NA,NA,NA,NA,NA,frustrated,"frustrated, not frustrated","more frustrated, less frustrated",NA,NA,NA,NA,NA,NA,NA,NA,NA,NA,NA,NA,NA,NA,NA,NA,NA,NA,NA,NA,NA,NA,NA,NA,NA,NA,NA,NA,NA,NA,NA,NA,NA,NA,NA,NA,NA,NA,0,2,2,1,1,NA,NA,NA,NA,NA
SUPAMT82077,34YB12FSQ4N8XPCBL48F9OM94J9GMN,B6882374-1DD7-42A7-B9E8-21CC219919C3,2023-09-28_21h29.39.135,WP_VExplicitOC_LH,2022.2.5,Win32,13.5171668,NA,NA,NA,NA,NA,NA,NA,NA,NA,NA,NA,NA,NA,NA,NA,NA,NA,NA,NA,NA,NA,NA,NA,NA,NA,NA,NA,NA,NA,NA,NA,NA,NA,NA,NA,NA,NA,NA,NA,NA,NA,NA,NA,NA,NA,NA,NA,NA,NA,NA,NA,NA,NA,NA,7,0,7,0,1
SUPAMT82077,34YB12FSQ4N8XPCBL48F9OM94J9GMN,B6882374-1DD7-42A7-B9E8-21CC219919C3,2023-09-28_21h29.39.135,WP_VExplicitOC_LH,2022.2.5,Win32,13.5171668,70.83333333,4.2158,2.1027,NA,NA,NA,NA,NA,happy,"unhappy, happy","less happy, more happy",NA,NA,NA,NA,NA,NA,NA,NA,NA,NA,NA,NA,NA,NA,NA,NA,NA,NA,NA,NA,NA,NA,NA,NA,NA,NA,NA,NA,NA,NA,NA,NA,NA,NA,NA,NA,NA,NA,0,0,0,0,1,NA,NA,NA,NA,NA
SUPAMT82077,34YB12FSQ4N8XPCBL48F9OM94J9GMN,B6882374-1DD7-42A7-B9E8-21CC219919C3,2023-09-28_21h29.39.135,WP_VExplicitOC_LH,2022.2.5,Win32,13.5171668,100,3.3765,2.006,NA,NA,NA,NA,NA,bored,"bored, not bored","more bored, less bored",NA,NA,NA,NA,NA,NA,NA,NA,NA,NA,NA,NA,NA,NA,NA,NA,NA,NA,NA,NA,NA,NA,NA,NA,NA,NA,NA,NA,NA,NA,NA,NA,NA,NA,NA,NA,NA,NA,0,1,1,2,1,NA,NA,NA,NA,NA
SUPAMT82077,34YB12FSQ4N8XPCBL48F9OM94J9GMN,B6882374-1DD7-42A7-B9E8-21CC219919C3,2023-09-28_21h29.39.135,WP_VExplicitOC_LH,2022.2.5,Win32,13.5171668,94.27083333,3.5894,2.0255,NA,NA,NA,NA,NA,frustrated,"frustrated, not frustrated","more frustrated, less frustrated",NA,NA,NA,NA,NA,NA,NA,NA,NA,NA,NA,NA,NA,NA,NA,NA,NA,NA,NA,NA,NA,NA,NA,NA,NA,NA,NA,NA,NA,NA,NA,NA,NA,NA,NA,NA,NA,NA,0,2,2,1,1,NA,NA,NA,NA,NA
SUPAMT82077,34YB12FSQ4N8XPCBL48F9OM94J9GMN,B6882374-1DD7-42A7-B9E8-21CC219919C3,2023-09-28_21h29.39.135,WP_VExplicitOC_LH,2022.2.5,Win32,13.5171668,NA,NA,NA,NA,NA,NA,NA,NA,NA,NA,NA,NA,NA,NA,NA,NA,NA,NA,NA,NA,NA,NA,NA,NA,NA,NA,NA,NA,NA,NA,NA,NA,NA,NA,NA,NA,NA,NA,NA,NA,NA,NA,NA,NA,NA,NA,NA,NA,NA,NA,NA,NA,NA,NA,8,0,8,0,1
SUPAMT82077,34YB12FSQ4N8XPCBL48F9OM94J9GMN,B6882374-1DD7-42A7-B9E8-21CC219919C3,2023-09-28_21h29.39.135,WP_VExplicitOC_LH,2022.2.5,Win32,13.5171668,100,3.6134,2.0717,NA,NA,NA,NA,NA,bored,"bored, not bored","more bored, less bored",NA,NA,NA,NA,NA,NA,NA,NA,NA,NA,NA,NA,NA,NA,NA,NA,NA,NA,NA,NA,NA,NA,NA,NA,NA,NA,NA,NA,NA,NA,NA,NA,NA,NA,NA,NA,NA,NA,0,0,0,2,1,NA,NA,NA,NA,NA
SUPAMT82077,34YB12FSQ4N8XPCBL48F9OM94J9GMN,B6882374-1DD7-42A7-B9E8-21CC219919C3,2023-09-28_21h29.39.135,WP_VExplicitOC_LH,2022.2.5,Win32,13.5171668,100,3.2503,2.1309,NA,NA,NA,NA,NA,happy,"unhappy, happy","less happy, more happy",NA,NA,NA,NA,NA,NA,NA,NA,NA,NA,NA,NA,NA,NA,NA,NA,NA,NA,NA,NA,NA,NA,NA,NA,NA,NA,NA,NA,NA,NA,NA,NA,NA,NA,NA,NA,NA,NA,0,1,1,0,1,NA,NA,NA,NA,NA
SUPAMT82077,34YB12FSQ4N8XPCBL48F9OM94J9GMN,B6882374-1DD7-42A7-B9E8-21CC219919C3,2023-09-28_21h29.39.135,WP_VExplicitOC_LH,2022.2.5,Win32,13.5171668,100,3.2813,2.0821,NA,NA,NA,NA,NA,frustrated,"frustrated, not frustrated","more frustrated, less frustrated",NA,NA,NA,NA,NA,NA,NA,NA,NA,NA,NA,NA,NA,NA,NA,NA,NA,NA,NA,NA,NA,NA,NA,NA,NA,NA,NA,NA,NA,NA,NA,NA,NA,NA,NA,NA,NA,NA,0,2,2,1,1,NA,NA,NA,NA,NA
SUPAMT82077,34YB12FSQ4N8XPCBL48F9OM94J9GMN,B6882374-1DD7-42A7-B9E8-21CC219919C3,2023-09-28_21h29.39.135,WP_VExplicitOC_LH,2022.2.5,Win32,13.5171668,NA,NA,NA,NA,NA,NA,NA,NA,NA,NA,NA,NA,NA,NA,NA,NA,NA,NA,NA,NA,NA,NA,NA,NA,NA,NA,NA,NA,NA,NA,NA,NA,NA,NA,NA,NA,NA,NA,NA,NA,NA,NA,NA,NA,NA,NA,NA,NA,NA,NA,NA,NA,NA,NA,9,0,9,0,1
SUPAMT82077,34YB12FSQ4N8XPCBL48F9OM94J9GMN,B6882374-1DD7-42A7-B9E8-21CC219919C3,2023-09-28_21h29.39.135,WP_VExplicitOC_LH,2022.2.5,Win32,13.5171668,100,3.404,2.0245,NA,NA,NA,NA,NA,frustrated,"frustrated, not frustrated","more frustrated, less frustrated",NA,NA,NA,NA,NA,NA,NA,NA,NA,NA,NA,NA,NA,NA,NA,NA,NA,NA,NA,NA,NA,NA,NA,NA,NA,NA,NA,NA,NA,NA,NA,NA,NA,NA,NA,NA,NA,NA,0,0,0,1,1,NA,NA,NA,NA,NA
SUPAMT82077,34YB12FSQ4N8XPCBL48F9OM94J9GMN,B6882374-1DD7-42A7-B9E8-21CC219919C3,2023-09-28_21h29.39.135,WP_VExplicitOC_LH,2022.2.5,Win32,13.5171668,100,6.4624,2.1208,NA,NA,NA,NA,NA,happy,"unhappy, happy","less happy, more happy",NA,NA,NA,NA,NA,NA,NA,NA,NA,NA,NA,NA,NA,NA,NA,NA,NA,NA,NA,NA,NA,NA,NA,NA,NA,NA,NA,NA,NA,NA,NA,NA,NA,NA,NA,NA,NA,NA,0,1,1,0,1,NA,NA,NA,NA,NA
SUPAMT82077,34YB12FSQ4N8XPCBL48F9OM94J9GMN,B6882374-1DD7-42A7-B9E8-21CC219919C3,2023-09-28_21h29.39.135,WP_VExplicitOC_LH,2022.2.5,Win32,13.5171668,100,3.3815,2.0386,NA,NA,NA,NA,NA,bored,"bored, not bored","more bored, less bored",NA,NA,NA,NA,NA,NA,NA,NA,NA,NA,NA,NA,NA,NA,NA,NA,NA,NA,NA,NA,NA,NA,NA,NA,NA,NA,NA,NA,NA,NA,NA,NA,NA,NA,NA,NA,NA,NA,0,2,2,2,1,NA,NA,NA,NA,NA
SUPAMT82077,34YB12FSQ4N8XPCBL48F9OM94J9GMN,B6882374-1DD7-42A7-B9E8-21CC219919C3,2023-09-28_21h29.39.135,WP_VExplicitOC_LH,2022.2.5,Win32,13.5171668,NA,NA,NA,NA,NA,NA,NA,NA,NA,NA,NA,NA,NA,NA,NA,NA,NA,NA,NA,NA,NA,NA,NA,NA,NA,NA,NA,NA,NA,NA,NA,NA,NA,NA,NA,NA,NA,NA,NA,NA,NA,NA,NA,NA,NA,NA,NA,NA,NA,NA,NA,NA,NA,NA,10,0,10,0,1
SUPAMT82077,34YB12FSQ4N8XPCBL48F9OM94J9GMN,B6882374-1DD7-42A7-B9E8-21CC219919C3,2023-09-28_21h29.39.135,WP_VExplicitOC_LH,2022.2.5,Win32,13.5171668,100,5.4944,2.0961,NA,NA,NA,NA,NA,frustrated,"frustrated, not frustrated","more frustrated, less frustrated",NA,NA,NA,NA,NA,NA,NA,NA,NA,NA,NA,NA,NA,NA,NA,NA,NA,NA,NA,NA,NA,NA,NA,NA,NA,NA,NA,NA,NA,NA,NA,NA,NA,NA,NA,NA,NA,NA,0,0,0,1,1,NA,NA,NA,NA,NA
SUPAMT82077,34YB12FSQ4N8XPCBL48F9OM94J9GMN,B6882374-1DD7-42A7-B9E8-21CC219919C3,2023-09-28_21h29.39.135,WP_VExplicitOC_LH,2022.2.5,Win32,13.5171668,100,3.0831,2.0256,NA,NA,NA,NA,NA,bored,"bored, not bored","more bored, less bored",NA,NA,NA,NA,NA,NA,NA,NA,NA,NA,NA,NA,NA,NA,NA,NA,NA,NA,NA,NA,NA,NA,NA,NA,NA,NA,NA,NA,NA,NA,NA,NA,NA,NA,NA,NA,NA,NA,0,1,1,2,1,NA,NA,NA,NA,NA
SUPAMT82077,34YB12FSQ4N8XPCBL48F9OM94J9GMN,B6882374-1DD7-42A7-B9E8-21CC219919C3,2023-09-28_21h29.39.135,WP_VExplicitOC_LH,2022.2.5,Win32,13.5171668,100,3.1703,2.0371,NA,NA,NA,NA,NA,happy,"unhappy, happy","less happy, more happy",NA,NA,NA,NA,NA,NA,NA,NA,NA,NA,NA,NA,NA,NA,NA,NA,NA,NA,NA,NA,NA,NA,NA,NA,NA,NA,NA,NA,NA,NA,NA,NA,NA,NA,NA,NA,NA,NA,0,2,2,0,1,NA,NA,NA,NA,NA
SUPAMT82077,34YB12FSQ4N8XPCBL48F9OM94J9GMN,B6882374-1DD7-42A7-B9E8-21CC219919C3,2023-09-28_21h29.39.135,WP_VExplicitOC_LH,2022.2.5,Win32,13.5171668,NA,NA,NA,NA,NA,NA,NA,NA,NA,NA,NA,NA,NA,NA,NA,NA,NA,NA,NA,NA,NA,NA,NA,NA,NA,NA,NA,NA,NA,NA,NA,NA,NA,NA,NA,NA,NA,NA,NA,NA,NA,NA,NA,NA,NA,NA,NA,NA,NA,NA,NA,NA,NA,NA,11,0,11,0,1
SUPAMT82077,34YB12FSQ4N8XPCBL48F9OM94J9GMN,B6882374-1DD7-42A7-B9E8-21CC219919C3,2023-09-28_21h29.39.135,WP_VExplicitOC_LH,2022.2.5,Win32,13.5171668,100,3.7043,2.1117,NA,NA,NA,NA,NA,happy,"unhappy, happy","less happy, more happy",NA,NA,NA,NA,NA,NA,NA,NA,NA,NA,NA,NA,NA,NA,NA,NA,NA,NA,NA,NA,NA,NA,NA,NA,NA,NA,NA,NA,NA,NA,NA,NA,NA,NA,NA,NA,NA,NA,0,0,0,0,1,NA,NA,NA,NA,NA
SUPAMT82077,34YB12FSQ4N8XPCBL48F9OM94J9GMN,B6882374-1DD7-42A7-B9E8-21CC219919C3,2023-09-28_21h29.39.135,WP_VExplicitOC_LH,2022.2.5,Win32,13.5171668,NA,NA,2.0481,NA,NA,NA,NA,NA,bored,"bored, not bored","more bored, less bored",NA,NA,NA,NA,NA,NA,NA,NA,NA,NA,NA,NA,NA,NA,NA,NA,NA,NA,NA,NA,NA,NA,NA,NA,NA,NA,NA,NA,NA,NA,NA,NA,NA,NA,NA,NA,NA,NA,0,1,1,2,1,NA,NA,NA,NA,NA
SUPAMT82077,34YB12FSQ4N8XPCBL48F9OM94J9GMN,B6882374-1DD7-42A7-B9E8-21CC219919C3,2023-09-28_21h29.39.135,WP_VExplicitOC_LH,2022.2.5,Win32,13.5171668,100,4.1042,2.099,NA,NA,NA,NA,NA,frustrated,"frustrated, not frustrated","more frustrated, less frustrated",NA,NA,NA,NA,NA,NA,NA,NA,NA,NA,NA,NA,NA,NA,NA,NA,NA,NA,NA,NA,NA,NA,NA,NA,NA,NA,NA,NA,NA,NA,NA,NA,NA,NA,NA,NA,NA,NA,0,2,2,1,1,NA,NA,NA,NA,NA
SUPAMT82077,34YB12FSQ4N8XPCBL48F9OM94J9GMN,B6882374-1DD7-42A7-B9E8-21CC219919C3,2023-09-28_21h29.39.135,WP_VExplicitOC_LH,2022.2.5,Win32,13.5171668,NA,NA,NA,NA,NA,NA,NA,NA,NA,NA,NA,NA,NA,NA,NA,NA,NA,NA,NA,NA,NA,NA,NA,NA,NA,NA,NA,NA,NA,NA,NA,NA,NA,NA,NA,NA,NA,NA,NA,NA,NA,NA,NA,NA,NA,NA,NA,NA,NA,NA,NA,NA,NA,NA,12,0,12,0,1
SUPAMT82077,34YB12FSQ4N8XPCBL48F9OM94J9GMN,B6882374-1DD7-42A7-B9E8-21CC219919C3,2023-09-28_21h29.39.135,WP_VExplicitOC_LH,2022.2.5,Win32,13.5171668,NA,NA,2.0776,NA,NA,NA,NA,NA,happy,"unhappy, happy","less happy, more happy",NA,NA,NA,NA,NA,NA,NA,NA,NA,NA,NA,NA,NA,NA,NA,NA,NA,NA,NA,NA,NA,NA,NA,NA,NA,NA,NA,NA,NA,NA,NA,NA,NA,NA,NA,NA,NA,NA,0,0,0,0,1,NA,NA,NA,NA,NA
SUPAMT82077,34YB12FSQ4N8XPCBL48F9OM94J9GMN,B6882374-1DD7-42A7-B9E8-21CC219919C3,2023-09-28_21h29.39.135,WP_VExplicitOC_LH,2022.2.5,Win32,13.5171668,NA,NA,2.0745,NA,NA,NA,NA,NA,bored,"bored, not bored","more bored, less bored",NA,NA,NA,NA,NA,NA,NA,NA,NA,NA,NA,NA,NA,NA,NA,NA,NA,NA,NA,NA,NA,NA,NA,NA,NA,NA,NA,NA,NA,NA,NA,NA,NA,NA,NA,NA,NA,NA,0,1,1,2,1,NA,NA,NA,NA,NA
SUPAMT82077,34YB12FSQ4N8XPCBL48F9OM94J9GMN,B6882374-1DD7-42A7-B9E8-21CC219919C3,2023-09-28_21h29.39.135,WP_VExplicitOC_LH,2022.2.5,Win32,13.5171668,100,3.579,2.0939,NA,NA,NA,NA,NA,frustrated,"frustrated, not frustrated","more frustrated, less frustrated",NA,NA,NA,NA,NA,NA,NA,NA,NA,NA,NA,NA,NA,NA,NA,NA,NA,NA,NA,NA,NA,NA,NA,NA,NA,NA,NA,NA,NA,NA,NA,NA,NA,NA,NA,NA,NA,NA,0,2,2,1,1,NA,NA,NA,NA,NA
SUPAMT82077,34YB12FSQ4N8XPCBL48F9OM94J9GMN,B6882374-1DD7-42A7-B9E8-21CC219919C3,2023-09-28_21h29.39.135,WP_VExplicitOC_LH,2022.2.5,Win32,13.5171668,NA,NA,NA,NA,NA,NA,NA,NA,NA,NA,NA,NA,NA,NA,NA,NA,NA,NA,NA,NA,NA,NA,NA,NA,NA,NA,NA,NA,NA,NA,NA,NA,NA,NA,NA,NA,NA,NA,NA,NA,NA,NA,NA,NA,NA,NA,NA,NA,NA,NA,NA,NA,NA,NA,13,0,13,0,1
SUPAMT82077,34YB12FSQ4N8XPCBL48F9OM94J9GMN,B6882374-1DD7-42A7-B9E8-21CC219919C3,2023-09-28_21h29.39.135,WP_VExplicitOC_LH,2022.2.5,Win32,13.5171668,NA,NA,2.0826,NA,NA,NA,NA,NA,happy,"unhappy, happy","less happy, more happy",NA,NA,NA,NA,NA,NA,NA,NA,NA,NA,NA,NA,NA,NA,NA,NA,NA,NA,NA,NA,NA,NA,NA,NA,NA,NA,NA,NA,NA,NA,NA,NA,NA,NA,NA,NA,NA,NA,0,0,0,0,1,NA,NA,NA,NA,NA
SUPAMT82077,34YB12FSQ4N8XPCBL48F9OM94J9GMN,B6882374-1DD7-42A7-B9E8-21CC219919C3,2023-09-28_21h29.39.135,WP_VExplicitOC_LH,2022.2.5,Win32,13.5171668,100,3.8564,2.0401,NA,NA,NA,NA,NA,frustrated,"frustrated, not frustrated","more frustrated, less frustrated",NA,NA,NA,NA,NA,NA,NA,NA,NA,NA,NA,NA,NA,NA,NA,NA,NA,NA,NA,NA,NA,NA,NA,NA,NA,NA,NA,NA,NA,NA,NA,NA,NA,NA,NA,NA,NA,NA,0,1,1,1,1,NA,NA,NA,NA,NA
SUPAMT82077,34YB12FSQ4N8XPCBL48F9OM94J9GMN,B6882374-1DD7-42A7-B9E8-21CC219919C3,2023-09-28_21h29.39.135,WP_VExplicitOC_LH,2022.2.5,Win32,13.5171668,100,3.1159,2.0742,NA,NA,NA,NA,NA,bored,"bored, not bored","more bored, less bored",NA,NA,NA,NA,NA,NA,NA,NA,NA,NA,NA,NA,NA,NA,NA,NA,NA,NA,NA,NA,NA,NA,NA,NA,NA,NA,NA,NA,NA,NA,NA,NA,NA,NA,NA,NA,NA,NA,0,2,2,2,1,NA,NA,NA,NA,NA
SUPAMT82077,34YB12FSQ4N8XPCBL48F9OM94J9GMN,B6882374-1DD7-42A7-B9E8-21CC219919C3,2023-09-28_21h29.39.135,WP_VExplicitOC_LH,2022.2.5,Win32,13.5171668,NA,NA,NA,NA,NA,NA,NA,NA,NA,NA,NA,NA,NA,NA,NA,NA,NA,NA,NA,NA,NA,NA,NA,NA,NA,NA,NA,NA,NA,NA,NA,NA,NA,NA,NA,NA,NA,NA,NA,NA,NA,NA,NA,NA,NA,NA,NA,NA,NA,NA,NA,NA,NA,NA,14,0,14,0,1
SUPAMT82077,34YB12FSQ4N8XPCBL48F9OM94J9GMN,B6882374-1DD7-42A7-B9E8-21CC219919C3,2023-09-28_21h29.39.135,WP_VExplicitOC_LH,2022.2.5,Win32,13.5171668,NA,NA,NA,NA,NA,NA,NA,NA,NA,NA,NA,NA,NA,NA,NA,NA,NA,NA,NA,NA,NA,NA,NA,NA,NA,NA,NA,NA,NA,NA,NA,NA,NA,NA,NA,NA,NA,NA,NA,NA,NA,NA,NA,NA,NA,NA,NA,NA,NA,NA,NA,NA,NA,NA,NA,NA,NA,NA,NA
