participant,session,completion,date,expName,psychopyVersion,OS,frameRate,rating_all.response,rating_all.rt,rating_all.tStart,rndRat1.thisRepN,rndRat1.thisTrialN,rndRat1.thisN,rndRat1.thisIndex,rndRat1.ran,Emo,Labs,Labs2,rating_alt.response,rating_alt.rt,AltC.thisRepN,AltC.thisTrialN,AltC.thisN,AltC.thisIndex,AltC.ran,alt_choices,pic_choices,TopAlt_Choice,rndRat2.thisRepN,rndRat2.thisTrialN,rndRat2.thisN,rndRat2.thisIndex,rndRat2.ran,rndRat3.thisRepN,rndRat3.thisTrialN,rndRat3.thisN,rndRat3.thisIndex,rndRat3.ran,trials_FC_H.thisRepN,trials_FC_H.thisTrialN,trials_FC_H.thisN,trials_FC_H.thisIndex,trials_FC_H.ran,rating_alt_2.response,rating_alt_2.rt,AltC2.thisRepN,AltC2.thisTrialN,AltC2.thisN,AltC2.thisIndex,AltC2.ran,BottomAlt_Choice,rndRat4.thisRepN,rndRat4.thisTrialN,rndRat4.thisN,rndRat4.thisIndex,rndRat4.ran,rndRat5.thisRepN,rndRat5.thisTrialN,rndRat5.thisN,rndRat5.thisIndex,rndRat5.ran,trials_FC_L.thisRepN,trials_FC_L.thisTrialN,trials_FC_L.thisN,trials_FC_L.thisIndex,trials_FC_L.ran
SUPAMT72701,3R6BYFZZPDBDD1FKOR462K2V9TAFXT,74342E17-1B8F-4FC5-91CB-DA9E80EA1E50,2023-09-26_19h43.26.560,WP_VExplicitOC_HL,2022.2.5,Win32,16.56863557,NA,NA,NA,NA,NA,NA,NA,NA,NA,NA,NA,NA,NA,NA,NA,NA,NA,NA,NA,NA,NA,NA,NA,NA,NA,NA,NA,NA,NA,NA,NA,NA,NA,NA,NA,NA,NA,NA,NA,NA,NA,NA,NA,NA,NA,NA,NA,NA,NA,NA,NA,NA,NA,NA,NA,NA,NA,NA,NA
SUPAMT72701,3R6BYFZZPDBDD1FKOR462K2V9TAFXT,74342E17-1B8F-4FC5-91CB-DA9E80EA1E50,2023-09-26_19h43.26.560,WP_VExplicitOC_HL,2022.2.5,Win32,16.56863557,NA,NA,NA,NA,NA,NA,NA,NA,NA,NA,NA,NA,NA,NA,NA,NA,NA,NA,NA,NA,NA,NA,NA,NA,NA,NA,NA,NA,NA,NA,NA,NA,NA,NA,NA,NA,NA,NA,NA,NA,NA,NA,NA,NA,NA,NA,NA,NA,NA,NA,NA,NA,NA,NA,NA,NA,NA,NA,NA
SUPAMT72701,3R6BYFZZPDBDD1FKOR462K2V9TAFXT,74342E17-1B8F-4FC5-91CB-DA9E80EA1E50,2023-09-26_19h43.26.560,WP_VExplicitOC_HL,2022.2.5,Win32,16.56863557,NA,NA,NA,NA,NA,NA,NA,NA,NA,NA,NA,NA,NA,NA,NA,NA,NA,NA,NA,NA,NA,NA,NA,NA,NA,NA,NA,NA,NA,NA,NA,NA,NA,NA,NA,NA,NA,NA,NA,NA,NA,NA,NA,NA,NA,NA,NA,NA,NA,NA,NA,NA,NA,NA,NA,NA,NA,NA,NA
SUPAMT72701,3R6BYFZZPDBDD1FKOR462K2V9TAFXT,74342E17-1B8F-4FC5-91CB-DA9E80EA1E50,2023-09-26_19h43.26.560,WP_VExplicitOC_HL,2022.2.5,Win32,16.56863557,94.3359375,4.8683,2.0439,0,0,0,1,1,frustrated,"frustrated, not frustrated","more frustrated, less frustrated",NA,NA,NA,NA,NA,NA,NA,NA,NA,NA,NA,NA,NA,NA,NA,NA,NA,NA,NA,NA,NA,NA,NA,NA,NA,NA,NA,NA,NA,NA,NA,NA,NA,NA,NA,NA,NA,NA,NA,NA,NA,NA,NA,NA,NA,NA,NA,NA
SUPAMT72701,3R6BYFZZPDBDD1FKOR462K2V9TAFXT,74342E17-1B8F-4FC5-91CB-DA9E80EA1E50,2023-09-26_19h43.26.560,WP_VExplicitOC_HL,2022.2.5,Win32,16.56863557,87.3046875,5.4012,2.0189,0,1,1,2,1,bored,"bored, not bored","more bored, less bored",NA,NA,NA,NA,NA,NA,NA,NA,NA,NA,NA,NA,NA,NA,NA,NA,NA,NA,NA,NA,NA,NA,NA,NA,NA,NA,NA,NA,NA,NA,NA,NA,NA,NA,NA,NA,NA,NA,NA,NA,NA,NA,NA,NA,NA,NA,NA,NA
SUPAMT72701,3R6BYFZZPDBDD1FKOR462K2V9TAFXT,74342E17-1B8F-4FC5-91CB-DA9E80EA1E50,2023-09-26_19h43.26.560,WP_VExplicitOC_HL,2022.2.5,Win32,16.56863557,87.3046875,3.2785,2.0624,0,2,2,0,1,happy,"unhappy, happy","less happy, more happy",NA,NA,NA,NA,NA,NA,NA,NA,NA,NA,NA,NA,NA,NA,NA,NA,NA,NA,NA,NA,NA,NA,NA,NA,NA,NA,NA,NA,NA,NA,NA,NA,NA,NA,NA,NA,NA,NA,NA,NA,NA,NA,NA,NA,NA,NA,NA,NA
SUPAMT72701,3R6BYFZZPDBDD1FKOR462K2V9TAFXT,74342E17-1B8F-4FC5-91CB-DA9E80EA1E50,2023-09-26_19h43.26.560,WP_VExplicitOC_HL,2022.2.5,Win32,16.56863557,NA,NA,NA,NA,NA,NA,NA,NA,NA,NA,NA,NA,NA,NA,NA,NA,NA,NA,NA,NA,NA,NA,NA,NA,NA,NA,NA,NA,NA,NA,NA,NA,NA,NA,NA,NA,NA,NA,NA,NA,NA,NA,NA,NA,NA,NA,NA,NA,NA,NA,NA,NA,NA,NA,NA,NA,NA,NA,NA
SUPAMT72701,3R6BYFZZPDBDD1FKOR462K2V9TAFXT,74342E17-1B8F-4FC5-91CB-DA9E80EA1E50,2023-09-26_19h43.26.560,WP_VExplicitOC_HL,2022.2.5,Win32,16.56863557,NA,NA,NA,NA,NA,NA,NA,NA,NA,NA,NA,NA,NA,NA,NA,NA,NA,NA,NA,NA,NA,NA,NA,NA,NA,NA,NA,NA,NA,NA,NA,NA,NA,NA,NA,NA,NA,NA,NA,NA,NA,NA,NA,NA,NA,NA,NA,NA,NA,NA,NA,NA,NA,NA,NA,NA,NA,NA,NA
SUPAMT72701,3R6BYFZZPDBDD1FKOR462K2V9TAFXT,74342E17-1B8F-4FC5-91CB-DA9E80EA1E50,2023-09-26_19h43.26.560,WP_VExplicitOC_HL,2022.2.5,Win32,16.56863557,NA,NA,NA,NA,NA,NA,NA,NA,NA,NA,NA,NA,NA,NA,NA,NA,NA,NA,NA,NA,NA,NA,NA,NA,NA,NA,NA,NA,NA,NA,NA,NA,NA,NA,NA,NA,NA,NA,NA,NA,NA,NA,NA,NA,NA,NA,NA,NA,NA,NA,NA,NA,NA,NA,NA,NA,NA,NA,NA
SUPAMT72701,3R6BYFZZPDBDD1FKOR462K2V9TAFXT,74342E17-1B8F-4FC5-91CB-DA9E80EA1E50,2023-09-26_19h43.26.560,WP_VExplicitOC_HL,2022.2.5,Win32,16.56863557,NA,NA,NA,NA,NA,NA,NA,NA,NA,NA,NA,NA,NA,NA,NA,NA,NA,NA,NA,NA,NA,NA,NA,NA,NA,NA,NA,NA,NA,NA,NA,NA,NA,NA,NA,NA,NA,NA,NA,NA,NA,NA,NA,NA,NA,NA,NA,NA,NA,NA,NA,NA,NA,NA,NA,NA,NA,NA,NA
SUPAMT72701,3R6BYFZZPDBDD1FKOR462K2V9TAFXT,74342E17-1B8F-4FC5-91CB-DA9E80EA1E50,2023-09-26_19h43.26.560,WP_VExplicitOC_HL,2022.2.5,Win32,16.56863557,NA,NA,NA,NA,NA,NA,NA,NA,NA,NA,NA,91.015625,3.4287,0,0,0,0,1,rest (looking at a fixed cross),001.png,NA,NA,NA,NA,NA,NA,NA,NA,NA,NA,NA,NA,NA,NA,NA,NA,NA,NA,NA,NA,NA,NA,NA,NA,NA,NA,NA,NA,NA,NA,NA,NA,NA,NA,NA,NA,NA,NA,NA
SUPAMT72701,3R6BYFZZPDBDD1FKOR462K2V9TAFXT,74342E17-1B8F-4FC5-91CB-DA9E80EA1E50,2023-09-26_19h43.26.560,WP_VExplicitOC_HL,2022.2.5,Win32,16.56863557,NA,NA,NA,NA,NA,NA,NA,NA,NA,NA,NA,91.015625,1.5408,0,1,1,1,1,stand up,002.png,NA,NA,NA,NA,NA,NA,NA,NA,NA,NA,NA,NA,NA,NA,NA,NA,NA,NA,NA,NA,NA,NA,NA,NA,NA,NA,NA,NA,NA,NA,NA,NA,NA,NA,NA,NA,NA,NA,NA
SUPAMT72701,3R6BYFZZPDBDD1FKOR462K2V9TAFXT,74342E17-1B8F-4FC5-91CB-DA9E80EA1E50,2023-09-26_19h43.26.560,WP_VExplicitOC_HL,2022.2.5,Win32,16.56863557,NA,NA,NA,NA,NA,NA,NA,NA,NA,NA,NA,91.015625,0.7556,0,2,2,2,1,stretch,003.png,NA,NA,NA,NA,NA,NA,NA,NA,NA,NA,NA,NA,NA,NA,NA,NA,NA,NA,NA,NA,NA,NA,NA,NA,NA,NA,NA,NA,NA,NA,NA,NA,NA,NA,NA,NA,NA,NA,NA
SUPAMT72701,3R6BYFZZPDBDD1FKOR462K2V9TAFXT,74342E17-1B8F-4FC5-91CB-DA9E80EA1E50,2023-09-26_19h43.26.560,WP_VExplicitOC_HL,2022.2.5,Win32,16.56863557,NA,NA,NA,NA,NA,NA,NA,NA,NA,NA,NA,91.015625,0.8317,0,3,3,3,1,make a drink,004.png,NA,NA,NA,NA,NA,NA,NA,NA,NA,NA,NA,NA,NA,NA,NA,NA,NA,NA,NA,NA,NA,NA,NA,NA,NA,NA,NA,NA,NA,NA,NA,NA,NA,NA,NA,NA,NA,NA,NA
SUPAMT72701,3R6BYFZZPDBDD1FKOR462K2V9TAFXT,74342E17-1B8F-4FC5-91CB-DA9E80EA1E50,2023-09-26_19h43.26.560,WP_VExplicitOC_HL,2022.2.5,Win32,16.56863557,NA,NA,NA,NA,NA,NA,NA,NA,NA,NA,NA,91.015625,1.0073,0,4,4,4,1,scroll social media,005.png,NA,NA,NA,NA,NA,NA,NA,NA,NA,NA,NA,NA,NA,NA,NA,NA,NA,NA,NA,NA,NA,NA,NA,NA,NA,NA,NA,NA,NA,NA,NA,NA,NA,NA,NA,NA,NA,NA,NA
SUPAMT72701,3R6BYFZZPDBDD1FKOR462K2V9TAFXT,74342E17-1B8F-4FC5-91CB-DA9E80EA1E50,2023-09-26_19h43.26.560,WP_VExplicitOC_HL,2022.2.5,Win32,16.56863557,NA,NA,NA,NA,NA,NA,NA,NA,NA,NA,NA,91.015625,2.2052,0,5,5,5,1,listen to music,006.png,NA,NA,NA,NA,NA,NA,NA,NA,NA,NA,NA,NA,NA,NA,NA,NA,NA,NA,NA,NA,NA,NA,NA,NA,NA,NA,NA,NA,NA,NA,NA,NA,NA,NA,NA,NA,NA,NA,NA
SUPAMT72701,3R6BYFZZPDBDD1FKOR462K2V9TAFXT,74342E17-1B8F-4FC5-91CB-DA9E80EA1E50,2023-09-26_19h43.26.560,WP_VExplicitOC_HL,2022.2.5,Win32,16.56863557,NA,NA,NA,NA,NA,NA,NA,NA,NA,NA,NA,91.015625,3.5257,0,6,6,6,1,daydream,007.png,NA,NA,NA,NA,NA,NA,NA,NA,NA,NA,NA,NA,NA,NA,NA,NA,NA,NA,NA,NA,NA,NA,NA,NA,NA,NA,NA,NA,NA,NA,NA,NA,NA,NA,NA,NA,NA,NA,NA
SUPAMT72701,3R6BYFZZPDBDD1FKOR462K2V9TAFXT,74342E17-1B8F-4FC5-91CB-DA9E80EA1E50,2023-09-26_19h43.26.560,WP_VExplicitOC_HL,2022.2.5,Win32,16.56863557,NA,NA,NA,NA,NA,NA,NA,NA,NA,NA,NA,91.015625,1.2773,0,7,7,7,1,watch a short animation,008.png,NA,NA,NA,NA,NA,NA,NA,NA,NA,NA,NA,NA,NA,NA,NA,NA,NA,NA,NA,NA,NA,NA,NA,NA,NA,NA,NA,NA,NA,NA,NA,NA,NA,NA,NA,NA,NA,NA,NA
SUPAMT72701,3R6BYFZZPDBDD1FKOR462K2V9TAFXT,74342E17-1B8F-4FC5-91CB-DA9E80EA1E50,2023-09-26_19h43.26.560,WP_VExplicitOC_HL,2022.2.5,Win32,16.56863557,NA,NA,NA,NA,NA,NA,NA,NA,NA,NA,NA,91.015625,0.9739,0,8,8,8,1,read a novel,009.png,NA,NA,NA,NA,NA,NA,NA,NA,NA,NA,NA,NA,NA,NA,NA,NA,NA,NA,NA,NA,NA,NA,NA,NA,NA,NA,NA,NA,NA,NA,NA,NA,NA,NA,NA,NA,NA,NA,NA
SUPAMT72701,3R6BYFZZPDBDD1FKOR462K2V9TAFXT,74342E17-1B8F-4FC5-91CB-DA9E80EA1E50,2023-09-26_19h43.26.560,WP_VExplicitOC_HL,2022.2.5,Win32,16.56863557,NA,NA,NA,NA,NA,NA,NA,NA,NA,NA,NA,91.015625,0.9721,0,9,9,9,1,read the news,010.png,NA,NA,NA,NA,NA,NA,NA,NA,NA,NA,NA,NA,NA,NA,NA,NA,NA,NA,NA,NA,NA,NA,NA,NA,NA,NA,NA,NA,NA,NA,NA,NA,NA,NA,NA,NA,NA,NA,NA
SUPAMT72701,3R6BYFZZPDBDD1FKOR462K2V9TAFXT,74342E17-1B8F-4FC5-91CB-DA9E80EA1E50,2023-09-26_19h43.26.560,WP_VExplicitOC_HL,2022.2.5,Win32,16.56863557,NA,NA,NA,NA,NA,NA,NA,NA,NA,NA,NA,NA,NA,NA,NA,NA,NA,NA,NA,NA,NA,NA,NA,NA,NA,NA,NA,NA,NA,NA,NA,NA,NA,NA,NA,NA,NA,NA,NA,NA,NA,NA,NA,NA,NA,NA,NA,NA,NA,NA,NA,NA,NA,NA,NA,NA,NA,NA,NA
SUPAMT72701,3R6BYFZZPDBDD1FKOR462K2V9TAFXT,74342E17-1B8F-4FC5-91CB-DA9E80EA1E50,2023-09-26_19h43.26.560,WP_VExplicitOC_HL,2022.2.5,Win32,16.56863557,NA,NA,NA,NA,NA,NA,NA,NA,NA,NA,NA,NA,NA,NA,NA,NA,NA,NA,NA,NA,stand up,NA,NA,NA,NA,NA,NA,NA,NA,NA,NA,NA,NA,NA,NA,NA,NA,NA,NA,NA,NA,NA,NA,NA,NA,NA,NA,NA,NA,NA,NA,NA,NA,NA,NA,NA,NA,NA,NA
SUPAMT72701,3R6BYFZZPDBDD1FKOR462K2V9TAFXT,74342E17-1B8F-4FC5-91CB-DA9E80EA1E50,2023-09-26_19h43.26.560,WP_VExplicitOC_HL,2022.2.5,Win32,16.56863557,82.6171875,5.5044,2.0676,NA,NA,NA,NA,NA,bored,"bored, not bored","more bored, less bored",NA,NA,NA,NA,NA,NA,NA,NA,NA,NA,0,0,0,2,1,NA,NA,NA,NA,NA,NA,NA,NA,NA,NA,NA,NA,NA,NA,NA,NA,NA,NA,NA,NA,NA,NA,NA,NA,NA,NA,NA,NA,NA,NA,NA,NA,NA
SUPAMT72701,3R6BYFZZPDBDD1FKOR462K2V9TAFXT,74342E17-1B8F-4FC5-91CB-DA9E80EA1E50,2023-09-26_19h43.26.560,WP_VExplicitOC_HL,2022.2.5,Win32,16.56863557,87.890625,3.5923,2.0498,NA,NA,NA,NA,NA,happy,"unhappy, happy","less happy, more happy",NA,NA,NA,NA,NA,NA,NA,NA,NA,NA,0,1,1,0,1,NA,NA,NA,NA,NA,NA,NA,NA,NA,NA,NA,NA,NA,NA,NA,NA,NA,NA,NA,NA,NA,NA,NA,NA,NA,NA,NA,NA,NA,NA,NA,NA,NA
SUPAMT72701,3R6BYFZZPDBDD1FKOR462K2V9TAFXT,74342E17-1B8F-4FC5-91CB-DA9E80EA1E50,2023-09-26_19h43.26.560,WP_VExplicitOC_HL,2022.2.5,Win32,16.56863557,85.7421875,4.1654,2.0222,NA,NA,NA,NA,NA,frustrated,"frustrated, not frustrated","more frustrated, less frustrated",NA,NA,NA,NA,NA,NA,NA,NA,NA,NA,0,2,2,1,1,NA,NA,NA,NA,NA,NA,NA,NA,NA,NA,NA,NA,NA,NA,NA,NA,NA,NA,NA,NA,NA,NA,NA,NA,NA,NA,NA,NA,NA,NA,NA,NA,NA
SUPAMT72701,3R6BYFZZPDBDD1FKOR462K2V9TAFXT,74342E17-1B8F-4FC5-91CB-DA9E80EA1E50,2023-09-26_19h43.26.560,WP_VExplicitOC_HL,2022.2.5,Win32,16.56863557,NA,NA,NA,NA,NA,NA,NA,NA,NA,NA,NA,NA,NA,NA,NA,NA,NA,NA,NA,NA,NA,NA,NA,NA,NA,NA,NA,NA,NA,NA,NA,NA,NA,NA,NA,NA,NA,NA,NA,NA,NA,NA,NA,NA,NA,NA,NA,NA,NA,NA,NA,NA,NA,NA,NA,NA,NA,NA,NA
SUPAMT72701,3R6BYFZZPDBDD1FKOR462K2V9TAFXT,74342E17-1B8F-4FC5-91CB-DA9E80EA1E50,2023-09-26_19h43.26.560,WP_VExplicitOC_HL,2022.2.5,Win32,16.56863557,NA,NA,NA,NA,NA,NA,NA,NA,NA,NA,NA,NA,NA,NA,NA,NA,NA,NA,NA,NA,NA,NA,NA,NA,NA,NA,NA,NA,NA,NA,NA,NA,NA,NA,NA,NA,NA,NA,NA,NA,NA,NA,NA,NA,NA,NA,NA,NA,NA,NA,NA,NA,NA,NA,NA,NA,NA,NA,NA
SUPAMT72701,3R6BYFZZPDBDD1FKOR462K2V9TAFXT,74342E17-1B8F-4FC5-91CB-DA9E80EA1E50,2023-09-26_19h43.26.560,WP_VExplicitOC_HL,2022.2.5,Win32,16.56863557,90.234375,5.054,2.03,NA,NA,NA,NA,NA,frustrated,"frustrated, not frustrated","more frustrated, less frustrated",NA,NA,NA,NA,NA,NA,NA,NA,NA,NA,NA,NA,NA,NA,NA,0,0,0,1,1,NA,NA,NA,NA,NA,NA,NA,NA,NA,NA,NA,NA,NA,NA,NA,NA,NA,NA,NA,NA,NA,NA,NA,NA,NA,NA,NA,NA
SUPAMT72701,3R6BYFZZPDBDD1FKOR462K2V9TAFXT,74342E17-1B8F-4FC5-91CB-DA9E80EA1E50,2023-09-26_19h43.26.560,WP_VExplicitOC_HL,2022.2.5,Win32,16.56863557,83.0078125,3.912,2.0448,NA,NA,NA,NA,NA,bored,"bored, not bored","more bored, less bored",NA,NA,NA,NA,NA,NA,NA,NA,NA,NA,NA,NA,NA,NA,NA,0,1,1,2,1,NA,NA,NA,NA,NA,NA,NA,NA,NA,NA,NA,NA,NA,NA,NA,NA,NA,NA,NA,NA,NA,NA,NA,NA,NA,NA,NA,NA
SUPAMT72701,3R6BYFZZPDBDD1FKOR462K2V9TAFXT,74342E17-1B8F-4FC5-91CB-DA9E80EA1E50,2023-09-26_19h43.26.560,WP_VExplicitOC_HL,2022.2.5,Win32,16.56863557,89.84375,6.9923,2.0493,NA,NA,NA,NA,NA,happy,"unhappy, happy","less happy, more happy",NA,NA,NA,NA,NA,NA,NA,NA,NA,NA,NA,NA,NA,NA,NA,0,2,2,0,1,NA,NA,NA,NA,NA,NA,NA,NA,NA,NA,NA,NA,NA,NA,NA,NA,NA,NA,NA,NA,NA,NA,NA,NA,NA,NA,NA,NA
SUPAMT72701,3R6BYFZZPDBDD1FKOR462K2V9TAFXT,74342E17-1B8F-4FC5-91CB-DA9E80EA1E50,2023-09-26_19h43.26.560,WP_VExplicitOC_HL,2022.2.5,Win32,16.56863557,NA,NA,NA,NA,NA,NA,NA,NA,NA,NA,NA,NA,NA,NA,NA,NA,NA,NA,NA,NA,NA,NA,NA,NA,NA,NA,NA,NA,NA,NA,NA,0,0,0,0,1,NA,NA,NA,NA,NA,NA,NA,NA,NA,NA,NA,NA,NA,NA,NA,NA,NA,NA,NA,NA,NA,NA,NA
SUPAMT72701,3R6BYFZZPDBDD1FKOR462K2V9TAFXT,74342E17-1B8F-4FC5-91CB-DA9E80EA1E50,2023-09-26_19h43.26.560,WP_VExplicitOC_HL,2022.2.5,Win32,16.56863557,78.515625,5.1297,2.0219,NA,NA,NA,NA,NA,bored,"bored, not bored","more bored, less bored",NA,NA,NA,NA,NA,NA,NA,NA,NA,NA,NA,NA,NA,NA,NA,0,0,0,2,1,NA,NA,NA,NA,NA,NA,NA,NA,NA,NA,NA,NA,NA,NA,NA,NA,NA,NA,NA,NA,NA,NA,NA,NA,NA,NA,NA,NA
SUPAMT72701,3R6BYFZZPDBDD1FKOR462K2V9TAFXT,74342E17-1B8F-4FC5-91CB-DA9E80EA1E50,2023-09-26_19h43.26.560,WP_VExplicitOC_HL,2022.2.5,Win32,16.56863557,80.46875,3.8927,2.0514,NA,NA,NA,NA,NA,happy,"unhappy, happy","less happy, more happy",NA,NA,NA,NA,NA,NA,NA,NA,NA,NA,NA,NA,NA,NA,NA,0,1,1,0,1,NA,NA,NA,NA,NA,NA,NA,NA,NA,NA,NA,NA,NA,NA,NA,NA,NA,NA,NA,NA,NA,NA,NA,NA,NA,NA,NA,NA
SUPAMT72701,3R6BYFZZPDBDD1FKOR462K2V9TAFXT,74342E17-1B8F-4FC5-91CB-DA9E80EA1E50,2023-09-26_19h43.26.560,WP_VExplicitOC_HL,2022.2.5,Win32,16.56863557,80.46875,3.9497,2.0587,NA,NA,NA,NA,NA,frustrated,"frustrated, not frustrated","more frustrated, less frustrated",NA,NA,NA,NA,NA,NA,NA,NA,NA,NA,NA,NA,NA,NA,NA,0,2,2,1,1,NA,NA,NA,NA,NA,NA,NA,NA,NA,NA,NA,NA,NA,NA,NA,NA,NA,NA,NA,NA,NA,NA,NA,NA,NA,NA,NA,NA
SUPAMT72701,3R6BYFZZPDBDD1FKOR462K2V9TAFXT,74342E17-1B8F-4FC5-91CB-DA9E80EA1E50,2023-09-26_19h43.26.560,WP_VExplicitOC_HL,2022.2.5,Win32,16.56863557,NA,NA,NA,NA,NA,NA,NA,NA,NA,NA,NA,NA,NA,NA,NA,NA,NA,NA,NA,NA,NA,NA,NA,NA,NA,NA,NA,NA,NA,NA,NA,1,0,1,0,1,NA,NA,NA,NA,NA,NA,NA,NA,NA,NA,NA,NA,NA,NA,NA,NA,NA,NA,NA,NA,NA,NA,NA
SUPAMT72701,3R6BYFZZPDBDD1FKOR462K2V9TAFXT,74342E17-1B8F-4FC5-91CB-DA9E80EA1E50,2023-09-26_19h43.26.560,WP_VExplicitOC_HL,2022.2.5,Win32,16.56863557,89.2578125,5.0493,2.0318,NA,NA,NA,NA,NA,happy,"unhappy, happy","less happy, more happy",NA,NA,NA,NA,NA,NA,NA,NA,NA,NA,NA,NA,NA,NA,NA,0,0,0,0,1,NA,NA,NA,NA,NA,NA,NA,NA,NA,NA,NA,NA,NA,NA,NA,NA,NA,NA,NA,NA,NA,NA,NA,NA,NA,NA,NA,NA
SUPAMT72701,3R6BYFZZPDBDD1FKOR462K2V9TAFXT,74342E17-1B8F-4FC5-91CB-DA9E80EA1E50,2023-09-26_19h43.26.560,WP_VExplicitOC_HL,2022.2.5,Win32,16.56863557,NA,NA,2.0392,NA,NA,NA,NA,NA,bored,"bored, not bored","more bored, less bored",NA,NA,NA,NA,NA,NA,NA,NA,NA,NA,NA,NA,NA,NA,NA,0,1,1,2,1,NA,NA,NA,NA,NA,NA,NA,NA,NA,NA,NA,NA,NA,NA,NA,NA,NA,NA,NA,NA,NA,NA,NA,NA,NA,NA,NA,NA
SUPAMT72701,3R6BYFZZPDBDD1FKOR462K2V9TAFXT,74342E17-1B8F-4FC5-91CB-DA9E80EA1E50,2023-09-26_19h43.26.560,WP_VExplicitOC_HL,2022.2.5,Win32,16.56863557,87.890625,4.5978,2.0269,NA,NA,NA,NA,NA,frustrated,"frustrated, not frustrated","more frustrated, less frustrated",NA,NA,NA,NA,NA,NA,NA,NA,NA,NA,NA,NA,NA,NA,NA,0,2,2,1,1,NA,NA,NA,NA,NA,NA,NA,NA,NA,NA,NA,NA,NA,NA,NA,NA,NA,NA,NA,NA,NA,NA,NA,NA,NA,NA,NA,NA
SUPAMT72701,3R6BYFZZPDBDD1FKOR462K2V9TAFXT,74342E17-1B8F-4FC5-91CB-DA9E80EA1E50,2023-09-26_19h43.26.560,WP_VExplicitOC_HL,2022.2.5,Win32,16.56863557,NA,NA,NA,NA,NA,NA,NA,NA,NA,NA,NA,NA,NA,NA,NA,NA,NA,NA,NA,NA,NA,NA,NA,NA,NA,NA,NA,NA,NA,NA,NA,2,0,2,0,1,NA,NA,NA,NA,NA,NA,NA,NA,NA,NA,NA,NA,NA,NA,NA,NA,NA,NA,NA,NA,NA,NA,NA
SUPAMT72701,3R6BYFZZPDBDD1FKOR462K2V9TAFXT,74342E17-1B8F-4FC5-91CB-DA9E80EA1E50,2023-09-26_19h43.26.560,WP_VExplicitOC_HL,2022.2.5,Win32,16.56863557,89.453125,4.0946,2.0048,NA,NA,NA,NA,NA,frustrated,"frustrated, not frustrated","more frustrated, less frustrated",NA,NA,NA,NA,NA,NA,NA,NA,NA,NA,NA,NA,NA,NA,NA,0,0,0,1,1,NA,NA,NA,NA,NA,NA,NA,NA,NA,NA,NA,NA,NA,NA,NA,NA,NA,NA,NA,NA,NA,NA,NA,NA,NA,NA,NA,NA
SUPAMT72701,3R6BYFZZPDBDD1FKOR462K2V9TAFXT,74342E17-1B8F-4FC5-91CB-DA9E80EA1E50,2023-09-26_19h43.26.560,WP_VExplicitOC_HL,2022.2.5,Win32,16.56863557,88.4765625,4.0217,2.0366,NA,NA,NA,NA,NA,bored,"bored, not bored","more bored, less bored",NA,NA,NA,NA,NA,NA,NA,NA,NA,NA,NA,NA,NA,NA,NA,0,1,1,2,1,NA,NA,NA,NA,NA,NA,NA,NA,NA,NA,NA,NA,NA,NA,NA,NA,NA,NA,NA,NA,NA,NA,NA,NA,NA,NA,NA,NA
SUPAMT72701,3R6BYFZZPDBDD1FKOR462K2V9TAFXT,74342E17-1B8F-4FC5-91CB-DA9E80EA1E50,2023-09-26_19h43.26.560,WP_VExplicitOC_HL,2022.2.5,Win32,16.56863557,88.4765625,3.4668,2.0358,NA,NA,NA,NA,NA,happy,"unhappy, happy","less happy, more happy",NA,NA,NA,NA,NA,NA,NA,NA,NA,NA,NA,NA,NA,NA,NA,0,2,2,0,1,NA,NA,NA,NA,NA,NA,NA,NA,NA,NA,NA,NA,NA,NA,NA,NA,NA,NA,NA,NA,NA,NA,NA,NA,NA,NA,NA,NA
SUPAMT72701,3R6BYFZZPDBDD1FKOR462K2V9TAFXT,74342E17-1B8F-4FC5-91CB-DA9E80EA1E50,2023-09-26_19h43.26.560,WP_VExplicitOC_HL,2022.2.5,Win32,16.56863557,NA,NA,NA,NA,NA,NA,NA,NA,NA,NA,NA,NA,NA,NA,NA,NA,NA,NA,NA,NA,NA,NA,NA,NA,NA,NA,NA,NA,NA,NA,NA,3,0,3,0,1,NA,NA,NA,NA,NA,NA,NA,NA,NA,NA,NA,NA,NA,NA,NA,NA,NA,NA,NA,NA,NA,NA,NA
SUPAMT72701,3R6BYFZZPDBDD1FKOR462K2V9TAFXT,74342E17-1B8F-4FC5-91CB-DA9E80EA1E50,2023-09-26_19h43.26.560,WP_VExplicitOC_HL,2022.2.5,Win32,16.56863557,84.375,4.2015,2.0661,NA,NA,NA,NA,NA,frustrated,"frustrated, not frustrated","more frustrated, less frustrated",NA,NA,NA,NA,NA,NA,NA,NA,NA,NA,NA,NA,NA,NA,NA,0,0,0,1,1,NA,NA,NA,NA,NA,NA,NA,NA,NA,NA,NA,NA,NA,NA,NA,NA,NA,NA,NA,NA,NA,NA,NA,NA,NA,NA,NA,NA
SUPAMT72701,3R6BYFZZPDBDD1FKOR462K2V9TAFXT,74342E17-1B8F-4FC5-91CB-DA9E80EA1E50,2023-09-26_19h43.26.560,WP_VExplicitOC_HL,2022.2.5,Win32,16.56863557,84.375,3.0549,2.0048,NA,NA,NA,NA,NA,bored,"bored, not bored","more bored, less bored",NA,NA,NA,NA,NA,NA,NA,NA,NA,NA,NA,NA,NA,NA,NA,0,1,1,2,1,NA,NA,NA,NA,NA,NA,NA,NA,NA,NA,NA,NA,NA,NA,NA,NA,NA,NA,NA,NA,NA,NA,NA,NA,NA,NA,NA,NA
SUPAMT72701,3R6BYFZZPDBDD1FKOR462K2V9TAFXT,74342E17-1B8F-4FC5-91CB-DA9E80EA1E50,2023-09-26_19h43.26.560,WP_VExplicitOC_HL,2022.2.5,Win32,16.56863557,84.375,3.134,2.06,NA,NA,NA,NA,NA,happy,"unhappy, happy","less happy, more happy",NA,NA,NA,NA,NA,NA,NA,NA,NA,NA,NA,NA,NA,NA,NA,0,2,2,0,1,NA,NA,NA,NA,NA,NA,NA,NA,NA,NA,NA,NA,NA,NA,NA,NA,NA,NA,NA,NA,NA,NA,NA,NA,NA,NA,NA,NA
SUPAMT72701,3R6BYFZZPDBDD1FKOR462K2V9TAFXT,74342E17-1B8F-4FC5-91CB-DA9E80EA1E50,2023-09-26_19h43.26.560,WP_VExplicitOC_HL,2022.2.5,Win32,16.56863557,NA,NA,NA,NA,NA,NA,NA,NA,NA,NA,NA,NA,NA,NA,NA,NA,NA,NA,NA,NA,NA,NA,NA,NA,NA,NA,NA,NA,NA,NA,NA,4,0,4,0,1,NA,NA,NA,NA,NA,NA,NA,NA,NA,NA,NA,NA,NA,NA,NA,NA,NA,NA,NA,NA,NA,NA,NA
SUPAMT72701,3R6BYFZZPDBDD1FKOR462K2V9TAFXT,74342E17-1B8F-4FC5-91CB-DA9E80EA1E50,2023-09-26_19h43.26.560,WP_VExplicitOC_HL,2022.2.5,Win32,16.56863557,84.375,3.1967,2.015,NA,NA,NA,NA,NA,frustrated,"frustrated, not frustrated","more frustrated, less frustrated",NA,NA,NA,NA,NA,NA,NA,NA,NA,NA,NA,NA,NA,NA,NA,0,0,0,1,1,NA,NA,NA,NA,NA,NA,NA,NA,NA,NA,NA,NA,NA,NA,NA,NA,NA,NA,NA,NA,NA,NA,NA,NA,NA,NA,NA,NA
SUPAMT72701,3R6BYFZZPDBDD1FKOR462K2V9TAFXT,74342E17-1B8F-4FC5-91CB-DA9E80EA1E50,2023-09-26_19h43.26.560,WP_VExplicitOC_HL,2022.2.5,Win32,16.56863557,74.8046875,3.2456,2.0216,NA,NA,NA,NA,NA,bored,"bored, not bored","more bored, less bored",NA,NA,NA,NA,NA,NA,NA,NA,NA,NA,NA,NA,NA,NA,NA,0,1,1,2,1,NA,NA,NA,NA,NA,NA,NA,NA,NA,NA,NA,NA,NA,NA,NA,NA,NA,NA,NA,NA,NA,NA,NA,NA,NA,NA,NA,NA
SUPAMT72701,3R6BYFZZPDBDD1FKOR462K2V9TAFXT,74342E17-1B8F-4FC5-91CB-DA9E80EA1E50,2023-09-26_19h43.26.560,WP_VExplicitOC_HL,2022.2.5,Win32,16.56863557,74.8046875,3.2142,2.0341,NA,NA,NA,NA,NA,happy,"unhappy, happy","less happy, more happy",NA,NA,NA,NA,NA,NA,NA,NA,NA,NA,NA,NA,NA,NA,NA,0,2,2,0,1,NA,NA,NA,NA,NA,NA,NA,NA,NA,NA,NA,NA,NA,NA,NA,NA,NA,NA,NA,NA,NA,NA,NA,NA,NA,NA,NA,NA
SUPAMT72701,3R6BYFZZPDBDD1FKOR462K2V9TAFXT,74342E17-1B8F-4FC5-91CB-DA9E80EA1E50,2023-09-26_19h43.26.560,WP_VExplicitOC_HL,2022.2.5,Win32,16.56863557,NA,NA,NA,NA,NA,NA,NA,NA,NA,NA,NA,NA,NA,NA,NA,NA,NA,NA,NA,NA,NA,NA,NA,NA,NA,NA,NA,NA,NA,NA,NA,5,0,5,0,1,NA,NA,NA,NA,NA,NA,NA,NA,NA,NA,NA,NA,NA,NA,NA,NA,NA,NA,NA,NA,NA,NA,NA
SUPAMT72701,3R6BYFZZPDBDD1FKOR462K2V9TAFXT,74342E17-1B8F-4FC5-91CB-DA9E80EA1E50,2023-09-26_19h43.26.560,WP_VExplicitOC_HL,2022.2.5,Win32,16.56863557,74.8046875,3.0649,2.0151,NA,NA,NA,NA,NA,frustrated,"frustrated, not frustrated","more frustrated, less frustrated",NA,NA,NA,NA,NA,NA,NA,NA,NA,NA,NA,NA,NA,NA,NA,0,0,0,1,1,NA,NA,NA,NA,NA,NA,NA,NA,NA,NA,NA,NA,NA,NA,NA,NA,NA,NA,NA,NA,NA,NA,NA,NA,NA,NA,NA,NA
SUPAMT72701,3R6BYFZZPDBDD1FKOR462K2V9TAFXT,74342E17-1B8F-4FC5-91CB-DA9E80EA1E50,2023-09-26_19h43.26.560,WP_VExplicitOC_HL,2022.2.5,Win32,16.56863557,74.8046875,3.1277,2.043,NA,NA,NA,NA,NA,happy,"unhappy, happy","less happy, more happy",NA,NA,NA,NA,NA,NA,NA,NA,NA,NA,NA,NA,NA,NA,NA,0,1,1,0,1,NA,NA,NA,NA,NA,NA,NA,NA,NA,NA,NA,NA,NA,NA,NA,NA,NA,NA,NA,NA,NA,NA,NA,NA,NA,NA,NA,NA
SUPAMT72701,3R6BYFZZPDBDD1FKOR462K2V9TAFXT,74342E17-1B8F-4FC5-91CB-DA9E80EA1E50,2023-09-26_19h43.26.560,WP_VExplicitOC_HL,2022.2.5,Win32,16.56863557,74.8046875,3.303,2.0003,NA,NA,NA,NA,NA,bored,"bored, not bored","more bored, less bored",NA,NA,NA,NA,NA,NA,NA,NA,NA,NA,NA,NA,NA,NA,NA,0,2,2,2,1,NA,NA,NA,NA,NA,NA,NA,NA,NA,NA,NA,NA,NA,NA,NA,NA,NA,NA,NA,NA,NA,NA,NA,NA,NA,NA,NA,NA
SUPAMT72701,3R6BYFZZPDBDD1FKOR462K2V9TAFXT,74342E17-1B8F-4FC5-91CB-DA9E80EA1E50,2023-09-26_19h43.26.560,WP_VExplicitOC_HL,2022.2.5,Win32,16.56863557,NA,NA,NA,NA,NA,NA,NA,NA,NA,NA,NA,NA,NA,NA,NA,NA,NA,NA,NA,NA,NA,NA,NA,NA,NA,NA,NA,NA,NA,NA,NA,6,0,6,0,1,NA,NA,NA,NA,NA,NA,NA,NA,NA,NA,NA,NA,NA,NA,NA,NA,NA,NA,NA,NA,NA,NA,NA
SUPAMT72701,3R6BYFZZPDBDD1FKOR462K2V9TAFXT,74342E17-1B8F-4FC5-91CB-DA9E80EA1E50,2023-09-26_19h43.26.560,WP_VExplicitOC_HL,2022.2.5,Win32,16.56863557,74.8046875,3.3434,2.0373,NA,NA,NA,NA,NA,frustrated,"frustrated, not frustrated","more frustrated, less frustrated",NA,NA,NA,NA,NA,NA,NA,NA,NA,NA,NA,NA,NA,NA,NA,0,0,0,1,1,NA,NA,NA,NA,NA,NA,NA,NA,NA,NA,NA,NA,NA,NA,NA,NA,NA,NA,NA,NA,NA,NA,NA,NA,NA,NA,NA,NA
SUPAMT72701,3R6BYFZZPDBDD1FKOR462K2V9TAFXT,74342E17-1B8F-4FC5-91CB-DA9E80EA1E50,2023-09-26_19h43.26.560,WP_VExplicitOC_HL,2022.2.5,Win32,16.56863557,74.8046875,3.5924,2.0809,NA,NA,NA,NA,NA,happy,"unhappy, happy","less happy, more happy",NA,NA,NA,NA,NA,NA,NA,NA,NA,NA,NA,NA,NA,NA,NA,0,1,1,0,1,NA,NA,NA,NA,NA,NA,NA,NA,NA,NA,NA,NA,NA,NA,NA,NA,NA,NA,NA,NA,NA,NA,NA,NA,NA,NA,NA,NA
SUPAMT72701,3R6BYFZZPDBDD1FKOR462K2V9TAFXT,74342E17-1B8F-4FC5-91CB-DA9E80EA1E50,2023-09-26_19h43.26.560,WP_VExplicitOC_HL,2022.2.5,Win32,16.56863557,74.8046875,3.142,2.0506,NA,NA,NA,NA,NA,bored,"bored, not bored","more bored, less bored",NA,NA,NA,NA,NA,NA,NA,NA,NA,NA,NA,NA,NA,NA,NA,0,2,2,2,1,NA,NA,NA,NA,NA,NA,NA,NA,NA,NA,NA,NA,NA,NA,NA,NA,NA,NA,NA,NA,NA,NA,NA,NA,NA,NA,NA,NA
SUPAMT72701,3R6BYFZZPDBDD1FKOR462K2V9TAFXT,74342E17-1B8F-4FC5-91CB-DA9E80EA1E50,2023-09-26_19h43.26.560,WP_VExplicitOC_HL,2022.2.5,Win32,16.56863557,NA,NA,NA,NA,NA,NA,NA,NA,NA,NA,NA,NA,NA,NA,NA,NA,NA,NA,NA,NA,NA,NA,NA,NA,NA,NA,NA,NA,NA,NA,NA,7,0,7,0,1,NA,NA,NA,NA,NA,NA,NA,NA,NA,NA,NA,NA,NA,NA,NA,NA,NA,NA,NA,NA,NA,NA,NA
SUPAMT72701,3R6BYFZZPDBDD1FKOR462K2V9TAFXT,74342E17-1B8F-4FC5-91CB-DA9E80EA1E50,2023-09-26_19h43.26.560,WP_VExplicitOC_HL,2022.2.5,Win32,16.56863557,NA,NA,2.0337,NA,NA,NA,NA,NA,bored,"bored, not bored","more bored, less bored",NA,NA,NA,NA,NA,NA,NA,NA,NA,NA,NA,NA,NA,NA,NA,0,0,0,2,1,NA,NA,NA,NA,NA,NA,NA,NA,NA,NA,NA,NA,NA,NA,NA,NA,NA,NA,NA,NA,NA,NA,NA,NA,NA,NA,NA,NA
SUPAMT72701,3R6BYFZZPDBDD1FKOR462K2V9TAFXT,74342E17-1B8F-4FC5-91CB-DA9E80EA1E50,2023-09-26_19h43.26.560,WP_VExplicitOC_HL,2022.2.5,Win32,16.56863557,NA,NA,2.046,NA,NA,NA,NA,NA,happy,"unhappy, happy","less happy, more happy",NA,NA,NA,NA,NA,NA,NA,NA,NA,NA,NA,NA,NA,NA,NA,0,1,1,0,1,NA,NA,NA,NA,NA,NA,NA,NA,NA,NA,NA,NA,NA,NA,NA,NA,NA,NA,NA,NA,NA,NA,NA,NA,NA,NA,NA,NA
SUPAMT72701,3R6BYFZZPDBDD1FKOR462K2V9TAFXT,74342E17-1B8F-4FC5-91CB-DA9E80EA1E50,2023-09-26_19h43.26.560,WP_VExplicitOC_HL,2022.2.5,Win32,16.56863557,82.6171875,3.5324,2.0159,NA,NA,NA,NA,NA,frustrated,"frustrated, not frustrated","more frustrated, less frustrated",NA,NA,NA,NA,NA,NA,NA,NA,NA,NA,NA,NA,NA,NA,NA,0,2,2,1,1,NA,NA,NA,NA,NA,NA,NA,NA,NA,NA,NA,NA,NA,NA,NA,NA,NA,NA,NA,NA,NA,NA,NA,NA,NA,NA,NA,NA
SUPAMT72701,3R6BYFZZPDBDD1FKOR462K2V9TAFXT,74342E17-1B8F-4FC5-91CB-DA9E80EA1E50,2023-09-26_19h43.26.560,WP_VExplicitOC_HL,2022.2.5,Win32,16.56863557,NA,NA,NA,NA,NA,NA,NA,NA,NA,NA,NA,NA,NA,NA,NA,NA,NA,NA,NA,NA,NA,NA,NA,NA,NA,NA,NA,NA,NA,NA,NA,8,0,8,0,1,NA,NA,NA,NA,NA,NA,NA,NA,NA,NA,NA,NA,NA,NA,NA,NA,NA,NA,NA,NA,NA,NA,NA
SUPAMT72701,3R6BYFZZPDBDD1FKOR462K2V9TAFXT,74342E17-1B8F-4FC5-91CB-DA9E80EA1E50,2023-09-26_19h43.26.560,WP_VExplicitOC_HL,2022.2.5,Win32,16.56863557,82.6171875,3.3778,2.0581,NA,NA,NA,NA,NA,frustrated,"frustrated, not frustrated","more frustrated, less frustrated",NA,NA,NA,NA,NA,NA,NA,NA,NA,NA,NA,NA,NA,NA,NA,0,0,0,1,1,NA,NA,NA,NA,NA,NA,NA,NA,NA,NA,NA,NA,NA,NA,NA,NA,NA,NA,NA,NA,NA,NA,NA,NA,NA,NA,NA,NA
SUPAMT72701,3R6BYFZZPDBDD1FKOR462K2V9TAFXT,74342E17-1B8F-4FC5-91CB-DA9E80EA1E50,2023-09-26_19h43.26.560,WP_VExplicitOC_HL,2022.2.5,Win32,16.56863557,82.2265625,4.6031,2.0325,NA,NA,NA,NA,NA,bored,"bored, not bored","more bored, less bored",NA,NA,NA,NA,NA,NA,NA,NA,NA,NA,NA,NA,NA,NA,NA,0,1,1,2,1,NA,NA,NA,NA,NA,NA,NA,NA,NA,NA,NA,NA,NA,NA,NA,NA,NA,NA,NA,NA,NA,NA,NA,NA,NA,NA,NA,NA
SUPAMT72701,3R6BYFZZPDBDD1FKOR462K2V9TAFXT,74342E17-1B8F-4FC5-91CB-DA9E80EA1E50,2023-09-26_19h43.26.560,WP_VExplicitOC_HL,2022.2.5,Win32,16.56863557,82.2265625,3.9557,2.0252,NA,NA,NA,NA,NA,happy,"unhappy, happy","less happy, more happy",NA,NA,NA,NA,NA,NA,NA,NA,NA,NA,NA,NA,NA,NA,NA,0,2,2,0,1,NA,NA,NA,NA,NA,NA,NA,NA,NA,NA,NA,NA,NA,NA,NA,NA,NA,NA,NA,NA,NA,NA,NA,NA,NA,NA,NA,NA
SUPAMT72701,3R6BYFZZPDBDD1FKOR462K2V9TAFXT,74342E17-1B8F-4FC5-91CB-DA9E80EA1E50,2023-09-26_19h43.26.560,WP_VExplicitOC_HL,2022.2.5,Win32,16.56863557,NA,NA,NA,NA,NA,NA,NA,NA,NA,NA,NA,NA,NA,NA,NA,NA,NA,NA,NA,NA,NA,NA,NA,NA,NA,NA,NA,NA,NA,NA,NA,9,0,9,0,1,NA,NA,NA,NA,NA,NA,NA,NA,NA,NA,NA,NA,NA,NA,NA,NA,NA,NA,NA,NA,NA,NA,NA
SUPAMT72701,3R6BYFZZPDBDD1FKOR462K2V9TAFXT,74342E17-1B8F-4FC5-91CB-DA9E80EA1E50,2023-09-26_19h43.26.560,WP_VExplicitOC_HL,2022.2.5,Win32,16.56863557,82.6171875,4.1311,2.0078,NA,NA,NA,NA,NA,frustrated,"frustrated, not frustrated","more frustrated, less frustrated",NA,NA,NA,NA,NA,NA,NA,NA,NA,NA,NA,NA,NA,NA,NA,0,0,0,1,1,NA,NA,NA,NA,NA,NA,NA,NA,NA,NA,NA,NA,NA,NA,NA,NA,NA,NA,NA,NA,NA,NA,NA,NA,NA,NA,NA,NA
SUPAMT72701,3R6BYFZZPDBDD1FKOR462K2V9TAFXT,74342E17-1B8F-4FC5-91CB-DA9E80EA1E50,2023-09-26_19h43.26.560,WP_VExplicitOC_HL,2022.2.5,Win32,16.56863557,82.6171875,3.157,2.0339,NA,NA,NA,NA,NA,happy,"unhappy, happy","less happy, more happy",NA,NA,NA,NA,NA,NA,NA,NA,NA,NA,NA,NA,NA,NA,NA,0,1,1,0,1,NA,NA,NA,NA,NA,NA,NA,NA,NA,NA,NA,NA,NA,NA,NA,NA,NA,NA,NA,NA,NA,NA,NA,NA,NA,NA,NA,NA
SUPAMT72701,3R6BYFZZPDBDD1FKOR462K2V9TAFXT,74342E17-1B8F-4FC5-91CB-DA9E80EA1E50,2023-09-26_19h43.26.560,WP_VExplicitOC_HL,2022.2.5,Win32,16.56863557,82.6171875,3.2168,2.0502,NA,NA,NA,NA,NA,bored,"bored, not bored","more bored, less bored",NA,NA,NA,NA,NA,NA,NA,NA,NA,NA,NA,NA,NA,NA,NA,0,2,2,2,1,NA,NA,NA,NA,NA,NA,NA,NA,NA,NA,NA,NA,NA,NA,NA,NA,NA,NA,NA,NA,NA,NA,NA,NA,NA,NA,NA,NA
SUPAMT72701,3R6BYFZZPDBDD1FKOR462K2V9TAFXT,74342E17-1B8F-4FC5-91CB-DA9E80EA1E50,2023-09-26_19h43.26.560,WP_VExplicitOC_HL,2022.2.5,Win32,16.56863557,NA,NA,NA,NA,NA,NA,NA,NA,NA,NA,NA,NA,NA,NA,NA,NA,NA,NA,NA,NA,NA,NA,NA,NA,NA,NA,NA,NA,NA,NA,NA,10,0,10,0,1,NA,NA,NA,NA,NA,NA,NA,NA,NA,NA,NA,NA,NA,NA,NA,NA,NA,NA,NA,NA,NA,NA,NA
SUPAMT72701,3R6BYFZZPDBDD1FKOR462K2V9TAFXT,74342E17-1B8F-4FC5-91CB-DA9E80EA1E50,2023-09-26_19h43.26.560,WP_VExplicitOC_HL,2022.2.5,Win32,16.56863557,81.8359375,4.883,2.0298,NA,NA,NA,NA,NA,happy,"unhappy, happy","less happy, more happy",NA,NA,NA,NA,NA,NA,NA,NA,NA,NA,NA,NA,NA,NA,NA,0,0,0,0,1,NA,NA,NA,NA,NA,NA,NA,NA,NA,NA,NA,NA,NA,NA,NA,NA,NA,NA,NA,NA,NA,NA,NA,NA,NA,NA,NA,NA
SUPAMT72701,3R6BYFZZPDBDD1FKOR462K2V9TAFXT,74342E17-1B8F-4FC5-91CB-DA9E80EA1E50,2023-09-26_19h43.26.560,WP_VExplicitOC_HL,2022.2.5,Win32,16.56863557,81.8359375,3.3835,2.0074,NA,NA,NA,NA,NA,bored,"bored, not bored","more bored, less bored",NA,NA,NA,NA,NA,NA,NA,NA,NA,NA,NA,NA,NA,NA,NA,0,1,1,2,1,NA,NA,NA,NA,NA,NA,NA,NA,NA,NA,NA,NA,NA,NA,NA,NA,NA,NA,NA,NA,NA,NA,NA,NA,NA,NA,NA,NA
SUPAMT72701,3R6BYFZZPDBDD1FKOR462K2V9TAFXT,74342E17-1B8F-4FC5-91CB-DA9E80EA1E50,2023-09-26_19h43.26.560,WP_VExplicitOC_HL,2022.2.5,Win32,16.56863557,81.8359375,3.3283,2.0275,NA,NA,NA,NA,NA,frustrated,"frustrated, not frustrated","more frustrated, less frustrated",NA,NA,NA,NA,NA,NA,NA,NA,NA,NA,NA,NA,NA,NA,NA,0,2,2,1,1,NA,NA,NA,NA,NA,NA,NA,NA,NA,NA,NA,NA,NA,NA,NA,NA,NA,NA,NA,NA,NA,NA,NA,NA,NA,NA,NA,NA
SUPAMT72701,3R6BYFZZPDBDD1FKOR462K2V9TAFXT,74342E17-1B8F-4FC5-91CB-DA9E80EA1E50,2023-09-26_19h43.26.560,WP_VExplicitOC_HL,2022.2.5,Win32,16.56863557,NA,NA,NA,NA,NA,NA,NA,NA,NA,NA,NA,NA,NA,NA,NA,NA,NA,NA,NA,NA,NA,NA,NA,NA,NA,NA,NA,NA,NA,NA,NA,11,0,11,0,1,NA,NA,NA,NA,NA,NA,NA,NA,NA,NA,NA,NA,NA,NA,NA,NA,NA,NA,NA,NA,NA,NA,NA
SUPAMT72701,3R6BYFZZPDBDD1FKOR462K2V9TAFXT,74342E17-1B8F-4FC5-91CB-DA9E80EA1E50,2023-09-26_19h43.26.560,WP_VExplicitOC_HL,2022.2.5,Win32,16.56863557,74.4140625,3.9546,2.0528,NA,NA,NA,NA,NA,bored,"bored, not bored","more bored, less bored",NA,NA,NA,NA,NA,NA,NA,NA,NA,NA,NA,NA,NA,NA,NA,0,0,0,2,1,NA,NA,NA,NA,NA,NA,NA,NA,NA,NA,NA,NA,NA,NA,NA,NA,NA,NA,NA,NA,NA,NA,NA,NA,NA,NA,NA,NA
SUPAMT72701,3R6BYFZZPDBDD1FKOR462K2V9TAFXT,74342E17-1B8F-4FC5-91CB-DA9E80EA1E50,2023-09-26_19h43.26.560,WP_VExplicitOC_HL,2022.2.5,Win32,16.56863557,75.1953125,3.4498,2.0849,NA,NA,NA,NA,NA,happy,"unhappy, happy","less happy, more happy",NA,NA,NA,NA,NA,NA,NA,NA,NA,NA,NA,NA,NA,NA,NA,0,1,1,0,1,NA,NA,NA,NA,NA,NA,NA,NA,NA,NA,NA,NA,NA,NA,NA,NA,NA,NA,NA,NA,NA,NA,NA,NA,NA,NA,NA,NA
SUPAMT72701,3R6BYFZZPDBDD1FKOR462K2V9TAFXT,74342E17-1B8F-4FC5-91CB-DA9E80EA1E50,2023-09-26_19h43.26.560,WP_VExplicitOC_HL,2022.2.5,Win32,16.56863557,75.1953125,3.1256,2.0243,NA,NA,NA,NA,NA,frustrated,"frustrated, not frustrated","more frustrated, less frustrated",NA,NA,NA,NA,NA,NA,NA,NA,NA,NA,NA,NA,NA,NA,NA,0,2,2,1,1,NA,NA,NA,NA,NA,NA,NA,NA,NA,NA,NA,NA,NA,NA,NA,NA,NA,NA,NA,NA,NA,NA,NA,NA,NA,NA,NA,NA
SUPAMT72701,3R6BYFZZPDBDD1FKOR462K2V9TAFXT,74342E17-1B8F-4FC5-91CB-DA9E80EA1E50,2023-09-26_19h43.26.560,WP_VExplicitOC_HL,2022.2.5,Win32,16.56863557,NA,NA,NA,NA,NA,NA,NA,NA,NA,NA,NA,NA,NA,NA,NA,NA,NA,NA,NA,NA,NA,NA,NA,NA,NA,NA,NA,NA,NA,NA,NA,12,0,12,0,1,NA,NA,NA,NA,NA,NA,NA,NA,NA,NA,NA,NA,NA,NA,NA,NA,NA,NA,NA,NA,NA,NA,NA
SUPAMT72701,3R6BYFZZPDBDD1FKOR462K2V9TAFXT,74342E17-1B8F-4FC5-91CB-DA9E80EA1E50,2023-09-26_19h43.26.560,WP_VExplicitOC_HL,2022.2.5,Win32,16.56863557,78.3203125,4.171,2.008,NA,NA,NA,NA,NA,happy,"unhappy, happy","less happy, more happy",NA,NA,NA,NA,NA,NA,NA,NA,NA,NA,NA,NA,NA,NA,NA,0,0,0,0,1,NA,NA,NA,NA,NA,NA,NA,NA,NA,NA,NA,NA,NA,NA,NA,NA,NA,NA,NA,NA,NA,NA,NA,NA,NA,NA,NA,NA
SUPAMT72701,3R6BYFZZPDBDD1FKOR462K2V9TAFXT,74342E17-1B8F-4FC5-91CB-DA9E80EA1E50,2023-09-26_19h43.26.560,WP_VExplicitOC_HL,2022.2.5,Win32,16.56863557,78.3203125,3.269,2.0029,NA,NA,NA,NA,NA,frustrated,"frustrated, not frustrated","more frustrated, less frustrated",NA,NA,NA,NA,NA,NA,NA,NA,NA,NA,NA,NA,NA,NA,NA,0,1,1,1,1,NA,NA,NA,NA,NA,NA,NA,NA,NA,NA,NA,NA,NA,NA,NA,NA,NA,NA,NA,NA,NA,NA,NA,NA,NA,NA,NA,NA
SUPAMT72701,3R6BYFZZPDBDD1FKOR462K2V9TAFXT,74342E17-1B8F-4FC5-91CB-DA9E80EA1E50,2023-09-26_19h43.26.560,WP_VExplicitOC_HL,2022.2.5,Win32,16.56863557,78.3203125,3.0594,2.0144,NA,NA,NA,NA,NA,bored,"bored, not bored","more bored, less bored",NA,NA,NA,NA,NA,NA,NA,NA,NA,NA,NA,NA,NA,NA,NA,0,2,2,2,1,NA,NA,NA,NA,NA,NA,NA,NA,NA,NA,NA,NA,NA,NA,NA,NA,NA,NA,NA,NA,NA,NA,NA,NA,NA,NA,NA,NA
SUPAMT72701,3R6BYFZZPDBDD1FKOR462K2V9TAFXT,74342E17-1B8F-4FC5-91CB-DA9E80EA1E50,2023-09-26_19h43.26.560,WP_VExplicitOC_HL,2022.2.5,Win32,16.56863557,NA,NA,NA,NA,NA,NA,NA,NA,NA,NA,NA,NA,NA,NA,NA,NA,NA,NA,NA,NA,NA,NA,NA,NA,NA,NA,NA,NA,NA,NA,NA,13,0,13,0,1,NA,NA,NA,NA,NA,NA,NA,NA,NA,NA,NA,NA,NA,NA,NA,NA,NA,NA,NA,NA,NA,NA,NA
SUPAMT72701,3R6BYFZZPDBDD1FKOR462K2V9TAFXT,74342E17-1B8F-4FC5-91CB-DA9E80EA1E50,2023-09-26_19h43.26.560,WP_VExplicitOC_HL,2022.2.5,Win32,16.56863557,78.3203125,3.5739,2.0244,NA,NA,NA,NA,NA,frustrated,"frustrated, not frustrated","more frustrated, less frustrated",NA,NA,NA,NA,NA,NA,NA,NA,NA,NA,NA,NA,NA,NA,NA,0,0,0,1,1,NA,NA,NA,NA,NA,NA,NA,NA,NA,NA,NA,NA,NA,NA,NA,NA,NA,NA,NA,NA,NA,NA,NA,NA,NA,NA,NA,NA
SUPAMT72701,3R6BYFZZPDBDD1FKOR462K2V9TAFXT,74342E17-1B8F-4FC5-91CB-DA9E80EA1E50,2023-09-26_19h43.26.560,WP_VExplicitOC_HL,2022.2.5,Win32,16.56863557,78.3203125,3.3097,2.0398,NA,NA,NA,NA,NA,happy,"unhappy, happy","less happy, more happy",NA,NA,NA,NA,NA,NA,NA,NA,NA,NA,NA,NA,NA,NA,NA,0,1,1,0,1,NA,NA,NA,NA,NA,NA,NA,NA,NA,NA,NA,NA,NA,NA,NA,NA,NA,NA,NA,NA,NA,NA,NA,NA,NA,NA,NA,NA
SUPAMT72701,3R6BYFZZPDBDD1FKOR462K2V9TAFXT,74342E17-1B8F-4FC5-91CB-DA9E80EA1E50,2023-09-26_19h43.26.560,WP_VExplicitOC_HL,2022.2.5,Win32,16.56863557,78.3203125,3.2377,2.0318,NA,NA,NA,NA,NA,bored,"bored, not bored","more bored, less bored",NA,NA,NA,NA,NA,NA,NA,NA,NA,NA,NA,NA,NA,NA,NA,0,2,2,2,1,NA,NA,NA,NA,NA,NA,NA,NA,NA,NA,NA,NA,NA,NA,NA,NA,NA,NA,NA,NA,NA,NA,NA,NA,NA,NA,NA,NA
SUPAMT72701,3R6BYFZZPDBDD1FKOR462K2V9TAFXT,74342E17-1B8F-4FC5-91CB-DA9E80EA1E50,2023-09-26_19h43.26.560,WP_VExplicitOC_HL,2022.2.5,Win32,16.56863557,NA,NA,NA,NA,NA,NA,NA,NA,NA,NA,NA,NA,NA,NA,NA,NA,NA,NA,NA,NA,NA,NA,NA,NA,NA,NA,NA,NA,NA,NA,NA,14,0,14,0,1,NA,NA,NA,NA,NA,NA,NA,NA,NA,NA,NA,NA,NA,NA,NA,NA,NA,NA,NA,NA,NA,NA,NA
SUPAMT72701,3R6BYFZZPDBDD1FKOR462K2V9TAFXT,74342E17-1B8F-4FC5-91CB-DA9E80EA1E50,2023-09-26_19h43.26.560,WP_VExplicitOC_HL,2022.2.5,Win32,16.56863557,NA,NA,NA,NA,NA,NA,NA,NA,NA,NA,NA,NA,NA,NA,NA,NA,NA,NA,NA,NA,NA,NA,NA,NA,NA,NA,NA,NA,NA,NA,NA,NA,NA,NA,NA,NA,NA,NA,NA,NA,NA,NA,NA,NA,NA,NA,NA,NA,NA,NA,NA,NA,NA,NA,NA,NA,NA,NA,NA
SUPAMT72701,3R6BYFZZPDBDD1FKOR462K2V9TAFXT,74342E17-1B8F-4FC5-91CB-DA9E80EA1E50,2023-09-26_19h43.26.560,WP_VExplicitOC_HL,2022.2.5,Win32,16.56863557,NA,NA,NA,NA,NA,NA,NA,NA,NA,NA,NA,NA,NA,NA,NA,NA,NA,NA,NA,NA,NA,NA,NA,NA,NA,NA,NA,NA,NA,NA,NA,NA,NA,NA,NA,NA,NA,NA,NA,NA,NA,NA,NA,NA,NA,NA,NA,NA,NA,NA,NA,NA,NA,NA,NA,NA,NA,NA,NA
SUPAMT72701,3R6BYFZZPDBDD1FKOR462K2V9TAFXT,74342E17-1B8F-4FC5-91CB-DA9E80EA1E50,2023-09-26_19h43.26.560,WP_VExplicitOC_HL,2022.2.5,Win32,16.56863557,NA,NA,NA,NA,NA,NA,NA,NA,NA,NA,NA,NA,NA,NA,NA,NA,NA,NA,rest (looking at a fixed cross),001.png,NA,NA,NA,NA,NA,NA,NA,NA,NA,NA,NA,NA,NA,NA,NA,NA,78.3203125,1.3006,0,0,0,0,1,NA,NA,NA,NA,NA,NA,NA,NA,NA,NA,NA,NA,NA,NA,NA,NA
SUPAMT72701,3R6BYFZZPDBDD1FKOR462K2V9TAFXT,74342E17-1B8F-4FC5-91CB-DA9E80EA1E50,2023-09-26_19h43.26.560,WP_VExplicitOC_HL,2022.2.5,Win32,16.56863557,NA,NA,NA,NA,NA,NA,NA,NA,NA,NA,NA,NA,NA,NA,NA,NA,NA,NA,stand up,002.png,NA,NA,NA,NA,NA,NA,NA,NA,NA,NA,NA,NA,NA,NA,NA,NA,78.3203125,1.1197,0,1,1,1,1,NA,NA,NA,NA,NA,NA,NA,NA,NA,NA,NA,NA,NA,NA,NA,NA
SUPAMT72701,3R6BYFZZPDBDD1FKOR462K2V9TAFXT,74342E17-1B8F-4FC5-91CB-DA9E80EA1E50,2023-09-26_19h43.26.560,WP_VExplicitOC_HL,2022.2.5,Win32,16.56863557,NA,NA,NA,NA,NA,NA,NA,NA,NA,NA,NA,NA,NA,NA,NA,NA,NA,NA,stretch,003.png,NA,NA,NA,NA,NA,NA,NA,NA,NA,NA,NA,NA,NA,NA,NA,NA,78.3203125,0.9269,0,2,2,2,1,NA,NA,NA,NA,NA,NA,NA,NA,NA,NA,NA,NA,NA,NA,NA,NA
SUPAMT72701,3R6BYFZZPDBDD1FKOR462K2V9TAFXT,74342E17-1B8F-4FC5-91CB-DA9E80EA1E50,2023-09-26_19h43.26.560,WP_VExplicitOC_HL,2022.2.5,Win32,16.56863557,NA,NA,NA,NA,NA,NA,NA,NA,NA,NA,NA,NA,NA,NA,NA,NA,NA,NA,make a drink,004.png,NA,NA,NA,NA,NA,NA,NA,NA,NA,NA,NA,NA,NA,NA,NA,NA,78.3203125,0.6679,0,3,3,3,1,NA,NA,NA,NA,NA,NA,NA,NA,NA,NA,NA,NA,NA,NA,NA,NA
SUPAMT72701,3R6BYFZZPDBDD1FKOR462K2V9TAFXT,74342E17-1B8F-4FC5-91CB-DA9E80EA1E50,2023-09-26_19h43.26.560,WP_VExplicitOC_HL,2022.2.5,Win32,16.56863557,NA,NA,NA,NA,NA,NA,NA,NA,NA,NA,NA,NA,NA,NA,NA,NA,NA,NA,scroll social media,005.png,NA,NA,NA,NA,NA,NA,NA,NA,NA,NA,NA,NA,NA,NA,NA,NA,78.3203125,0.6651,0,4,4,4,1,NA,NA,NA,NA,NA,NA,NA,NA,NA,NA,NA,NA,NA,NA,NA,NA
SUPAMT72701,3R6BYFZZPDBDD1FKOR462K2V9TAFXT,74342E17-1B8F-4FC5-91CB-DA9E80EA1E50,2023-09-26_19h43.26.560,WP_VExplicitOC_HL,2022.2.5,Win32,16.56863557,NA,NA,NA,NA,NA,NA,NA,NA,NA,NA,NA,NA,NA,NA,NA,NA,NA,NA,listen to music,006.png,NA,NA,NA,NA,NA,NA,NA,NA,NA,NA,NA,NA,NA,NA,NA,NA,78.3203125,0.7989,0,5,5,5,1,NA,NA,NA,NA,NA,NA,NA,NA,NA,NA,NA,NA,NA,NA,NA,NA
SUPAMT72701,3R6BYFZZPDBDD1FKOR462K2V9TAFXT,74342E17-1B8F-4FC5-91CB-DA9E80EA1E50,2023-09-26_19h43.26.560,WP_VExplicitOC_HL,2022.2.5,Win32,16.56863557,NA,NA,NA,NA,NA,NA,NA,NA,NA,NA,NA,NA,NA,NA,NA,NA,NA,NA,daydream,007.png,NA,NA,NA,NA,NA,NA,NA,NA,NA,NA,NA,NA,NA,NA,NA,NA,78.3203125,0.7056,0,6,6,6,1,NA,NA,NA,NA,NA,NA,NA,NA,NA,NA,NA,NA,NA,NA,NA,NA
SUPAMT72701,3R6BYFZZPDBDD1FKOR462K2V9TAFXT,74342E17-1B8F-4FC5-91CB-DA9E80EA1E50,2023-09-26_19h43.26.560,WP_VExplicitOC_HL,2022.2.5,Win32,16.56863557,NA,NA,NA,NA,NA,NA,NA,NA,NA,NA,NA,NA,NA,NA,NA,NA,NA,NA,watch a short animation,008.png,NA,NA,NA,NA,NA,NA,NA,NA,NA,NA,NA,NA,NA,NA,NA,NA,78.3203125,0.7625,0,7,7,7,1,NA,NA,NA,NA,NA,NA,NA,NA,NA,NA,NA,NA,NA,NA,NA,NA
SUPAMT72701,3R6BYFZZPDBDD1FKOR462K2V9TAFXT,74342E17-1B8F-4FC5-91CB-DA9E80EA1E50,2023-09-26_19h43.26.560,WP_VExplicitOC_HL,2022.2.5,Win32,16.56863557,NA,NA,NA,NA,NA,NA,NA,NA,NA,NA,NA,NA,NA,NA,NA,NA,NA,NA,read a novel,009.png,NA,NA,NA,NA,NA,NA,NA,NA,NA,NA,NA,NA,NA,NA,NA,NA,78.3203125,0.6521,0,8,8,8,1,NA,NA,NA,NA,NA,NA,NA,NA,NA,NA,NA,NA,NA,NA,NA,NA
SUPAMT72701,3R6BYFZZPDBDD1FKOR462K2V9TAFXT,74342E17-1B8F-4FC5-91CB-DA9E80EA1E50,2023-09-26_19h43.26.560,WP_VExplicitOC_HL,2022.2.5,Win32,16.56863557,NA,NA,NA,NA,NA,NA,NA,NA,NA,NA,NA,NA,NA,NA,NA,NA,NA,NA,read the news,010.png,NA,NA,NA,NA,NA,NA,NA,NA,NA,NA,NA,NA,NA,NA,NA,NA,78.3203125,0.5559,0,9,9,9,1,NA,NA,NA,NA,NA,NA,NA,NA,NA,NA,NA,NA,NA,NA,NA,NA
SUPAMT72701,3R6BYFZZPDBDD1FKOR462K2V9TAFXT,74342E17-1B8F-4FC5-91CB-DA9E80EA1E50,2023-09-26_19h43.26.560,WP_VExplicitOC_HL,2022.2.5,Win32,16.56863557,NA,NA,NA,NA,NA,NA,NA,NA,NA,NA,NA,NA,NA,NA,NA,NA,NA,NA,NA,NA,NA,NA,NA,NA,NA,NA,NA,NA,NA,NA,NA,NA,NA,NA,NA,NA,NA,NA,NA,NA,NA,NA,NA,stand up,NA,NA,NA,NA,NA,NA,NA,NA,NA,NA,NA,NA,NA,NA,NA
SUPAMT72701,3R6BYFZZPDBDD1FKOR462K2V9TAFXT,74342E17-1B8F-4FC5-91CB-DA9E80EA1E50,2023-09-26_19h43.26.560,WP_VExplicitOC_HL,2022.2.5,Win32,16.56863557,74.8046875,4.7739,2.0552,NA,NA,NA,NA,NA,frustrated,"frustrated, not frustrated","more frustrated, less frustrated",NA,NA,NA,NA,NA,NA,NA,NA,NA,NA,NA,NA,NA,NA,NA,NA,NA,NA,NA,NA,NA,NA,NA,NA,NA,NA,NA,NA,NA,NA,NA,NA,NA,0,0,0,1,1,NA,NA,NA,NA,NA,NA,NA,NA,NA,NA
SUPAMT72701,3R6BYFZZPDBDD1FKOR462K2V9TAFXT,74342E17-1B8F-4FC5-91CB-DA9E80EA1E50,2023-09-26_19h43.26.560,WP_VExplicitOC_HL,2022.2.5,Win32,16.56863557,74.8046875,3.0947,2.0129,NA,NA,NA,NA,NA,bored,"bored, not bored","more bored, less bored",NA,NA,NA,NA,NA,NA,NA,NA,NA,NA,NA,NA,NA,NA,NA,NA,NA,NA,NA,NA,NA,NA,NA,NA,NA,NA,NA,NA,NA,NA,NA,NA,NA,0,1,1,2,1,NA,NA,NA,NA,NA,NA,NA,NA,NA,NA
SUPAMT72701,3R6BYFZZPDBDD1FKOR462K2V9TAFXT,74342E17-1B8F-4FC5-91CB-DA9E80EA1E50,2023-09-26_19h43.26.560,WP_VExplicitOC_HL,2022.2.5,Win32,16.56863557,74.8046875,2.9882,2.0476,NA,NA,NA,NA,NA,happy,"unhappy, happy","less happy, more happy",NA,NA,NA,NA,NA,NA,NA,NA,NA,NA,NA,NA,NA,NA,NA,NA,NA,NA,NA,NA,NA,NA,NA,NA,NA,NA,NA,NA,NA,NA,NA,NA,NA,0,2,2,0,1,NA,NA,NA,NA,NA,NA,NA,NA,NA,NA
SUPAMT72701,3R6BYFZZPDBDD1FKOR462K2V9TAFXT,74342E17-1B8F-4FC5-91CB-DA9E80EA1E50,2023-09-26_19h43.26.560,WP_VExplicitOC_HL,2022.2.5,Win32,16.56863557,NA,NA,NA,NA,NA,NA,NA,NA,NA,NA,NA,NA,NA,NA,NA,NA,NA,NA,NA,NA,NA,NA,NA,NA,NA,NA,NA,NA,NA,NA,NA,NA,NA,NA,NA,NA,NA,NA,NA,NA,NA,NA,NA,NA,NA,NA,NA,NA,NA,NA,NA,NA,NA,NA,NA,NA,NA,NA,NA
SUPAMT72701,3R6BYFZZPDBDD1FKOR462K2V9TAFXT,74342E17-1B8F-4FC5-91CB-DA9E80EA1E50,2023-09-26_19h43.26.560,WP_VExplicitOC_HL,2022.2.5,Win32,16.56863557,NA,NA,NA,NA,NA,NA,NA,NA,NA,NA,NA,NA,NA,NA,NA,NA,NA,NA,NA,NA,NA,NA,NA,NA,NA,NA,NA,NA,NA,NA,NA,NA,NA,NA,NA,NA,NA,NA,NA,NA,NA,NA,NA,NA,NA,NA,NA,NA,NA,NA,NA,NA,NA,NA,NA,NA,NA,NA,NA
SUPAMT72701,3R6BYFZZPDBDD1FKOR462K2V9TAFXT,74342E17-1B8F-4FC5-91CB-DA9E80EA1E50,2023-09-26_19h43.26.560,WP_VExplicitOC_HL,2022.2.5,Win32,16.56863557,80.859375,3.89,2.0566,NA,NA,NA,NA,NA,frustrated,"frustrated, not frustrated","more frustrated, less frustrated",NA,NA,NA,NA,NA,NA,NA,NA,NA,NA,NA,NA,NA,NA,NA,NA,NA,NA,NA,NA,NA,NA,NA,NA,NA,NA,NA,NA,NA,NA,NA,NA,NA,NA,NA,NA,NA,NA,0,0,0,1,1,NA,NA,NA,NA,NA
SUPAMT72701,3R6BYFZZPDBDD1FKOR462K2V9TAFXT,74342E17-1B8F-4FC5-91CB-DA9E80EA1E50,2023-09-26_19h43.26.560,WP_VExplicitOC_HL,2022.2.5,Win32,16.56863557,80.859375,3.204,2.0001,NA,NA,NA,NA,NA,happy,"unhappy, happy","less happy, more happy",NA,NA,NA,NA,NA,NA,NA,NA,NA,NA,NA,NA,NA,NA,NA,NA,NA,NA,NA,NA,NA,NA,NA,NA,NA,NA,NA,NA,NA,NA,NA,NA,NA,NA,NA,NA,NA,NA,0,1,1,0,1,NA,NA,NA,NA,NA
SUPAMT72701,3R6BYFZZPDBDD1FKOR462K2V9TAFXT,74342E17-1B8F-4FC5-91CB-DA9E80EA1E50,2023-09-26_19h43.26.560,WP_VExplicitOC_HL,2022.2.5,Win32,16.56863557,80.859375,3.0545,2.0721,NA,NA,NA,NA,NA,bored,"bored, not bored","more bored, less bored",NA,NA,NA,NA,NA,NA,NA,NA,NA,NA,NA,NA,NA,NA,NA,NA,NA,NA,NA,NA,NA,NA,NA,NA,NA,NA,NA,NA,NA,NA,NA,NA,NA,NA,NA,NA,NA,NA,0,2,2,2,1,NA,NA,NA,NA,NA
SUPAMT72701,3R6BYFZZPDBDD1FKOR462K2V9TAFXT,74342E17-1B8F-4FC5-91CB-DA9E80EA1E50,2023-09-26_19h43.26.560,WP_VExplicitOC_HL,2022.2.5,Win32,16.56863557,NA,NA,NA,NA,NA,NA,NA,NA,NA,NA,NA,NA,NA,NA,NA,NA,NA,NA,NA,NA,NA,NA,NA,NA,NA,NA,NA,NA,NA,NA,NA,NA,NA,NA,NA,NA,NA,NA,NA,NA,NA,NA,NA,NA,NA,NA,NA,NA,NA,NA,NA,NA,NA,NA,0,0,0,0,1
SUPAMT72701,3R6BYFZZPDBDD1FKOR462K2V9TAFXT,74342E17-1B8F-4FC5-91CB-DA9E80EA1E50,2023-09-26_19h43.26.560,WP_VExplicitOC_HL,2022.2.5,Win32,16.56863557,81.640625,3.6863,2.0064,NA,NA,NA,NA,NA,happy,"unhappy, happy","less happy, more happy",NA,NA,NA,NA,NA,NA,NA,NA,NA,NA,NA,NA,NA,NA,NA,NA,NA,NA,NA,NA,NA,NA,NA,NA,NA,NA,NA,NA,NA,NA,NA,NA,NA,NA,NA,NA,NA,NA,0,0,0,0,1,NA,NA,NA,NA,NA
SUPAMT72701,3R6BYFZZPDBDD1FKOR462K2V9TAFXT,74342E17-1B8F-4FC5-91CB-DA9E80EA1E50,2023-09-26_19h43.26.560,WP_VExplicitOC_HL,2022.2.5,Win32,16.56863557,81.640625,3.1135,2.0299,NA,NA,NA,NA,NA,bored,"bored, not bored","more bored, less bored",NA,NA,NA,NA,NA,NA,NA,NA,NA,NA,NA,NA,NA,NA,NA,NA,NA,NA,NA,NA,NA,NA,NA,NA,NA,NA,NA,NA,NA,NA,NA,NA,NA,NA,NA,NA,NA,NA,0,1,1,2,1,NA,NA,NA,NA,NA
SUPAMT72701,3R6BYFZZPDBDD1FKOR462K2V9TAFXT,74342E17-1B8F-4FC5-91CB-DA9E80EA1E50,2023-09-26_19h43.26.560,WP_VExplicitOC_HL,2022.2.5,Win32,16.56863557,81.640625,3.0454,2.0168,NA,NA,NA,NA,NA,frustrated,"frustrated, not frustrated","more frustrated, less frustrated",NA,NA,NA,NA,NA,NA,NA,NA,NA,NA,NA,NA,NA,NA,NA,NA,NA,NA,NA,NA,NA,NA,NA,NA,NA,NA,NA,NA,NA,NA,NA,NA,NA,NA,NA,NA,NA,NA,0,2,2,1,1,NA,NA,NA,NA,NA
SUPAMT72701,3R6BYFZZPDBDD1FKOR462K2V9TAFXT,74342E17-1B8F-4FC5-91CB-DA9E80EA1E50,2023-09-26_19h43.26.560,WP_VExplicitOC_HL,2022.2.5,Win32,16.56863557,NA,NA,NA,NA,NA,NA,NA,NA,NA,NA,NA,NA,NA,NA,NA,NA,NA,NA,NA,NA,NA,NA,NA,NA,NA,NA,NA,NA,NA,NA,NA,NA,NA,NA,NA,NA,NA,NA,NA,NA,NA,NA,NA,NA,NA,NA,NA,NA,NA,NA,NA,NA,NA,NA,1,0,1,0,1
SUPAMT72701,3R6BYFZZPDBDD1FKOR462K2V9TAFXT,74342E17-1B8F-4FC5-91CB-DA9E80EA1E50,2023-09-26_19h43.26.560,WP_VExplicitOC_HL,2022.2.5,Win32,16.56863557,82.8125,4.8061,2.0455,NA,NA,NA,NA,NA,frustrated,"frustrated, not frustrated","more frustrated, less frustrated",NA,NA,NA,NA,NA,NA,NA,NA,NA,NA,NA,NA,NA,NA,NA,NA,NA,NA,NA,NA,NA,NA,NA,NA,NA,NA,NA,NA,NA,NA,NA,NA,NA,NA,NA,NA,NA,NA,0,0,0,1,1,NA,NA,NA,NA,NA
SUPAMT72701,3R6BYFZZPDBDD1FKOR462K2V9TAFXT,74342E17-1B8F-4FC5-91CB-DA9E80EA1E50,2023-09-26_19h43.26.560,WP_VExplicitOC_HL,2022.2.5,Win32,16.56863557,82.8125,3.4305,2.0084,NA,NA,NA,NA,NA,bored,"bored, not bored","more bored, less bored",NA,NA,NA,NA,NA,NA,NA,NA,NA,NA,NA,NA,NA,NA,NA,NA,NA,NA,NA,NA,NA,NA,NA,NA,NA,NA,NA,NA,NA,NA,NA,NA,NA,NA,NA,NA,NA,NA,0,1,1,2,1,NA,NA,NA,NA,NA
SUPAMT72701,3R6BYFZZPDBDD1FKOR462K2V9TAFXT,74342E17-1B8F-4FC5-91CB-DA9E80EA1E50,2023-09-26_19h43.26.560,WP_VExplicitOC_HL,2022.2.5,Win32,16.56863557,80.859375,7.2902,2.0617,NA,NA,NA,NA,NA,happy,"unhappy, happy","less happy, more happy",NA,NA,NA,NA,NA,NA,NA,NA,NA,NA,NA,NA,NA,NA,NA,NA,NA,NA,NA,NA,NA,NA,NA,NA,NA,NA,NA,NA,NA,NA,NA,NA,NA,NA,NA,NA,NA,NA,0,2,2,0,1,NA,NA,NA,NA,NA
SUPAMT72701,3R6BYFZZPDBDD1FKOR462K2V9TAFXT,74342E17-1B8F-4FC5-91CB-DA9E80EA1E50,2023-09-26_19h43.26.560,WP_VExplicitOC_HL,2022.2.5,Win32,16.56863557,NA,NA,NA,NA,NA,NA,NA,NA,NA,NA,NA,NA,NA,NA,NA,NA,NA,NA,NA,NA,NA,NA,NA,NA,NA,NA,NA,NA,NA,NA,NA,NA,NA,NA,NA,NA,NA,NA,NA,NA,NA,NA,NA,NA,NA,NA,NA,NA,NA,NA,NA,NA,NA,NA,2,0,2,0,1
SUPAMT72701,3R6BYFZZPDBDD1FKOR462K2V9TAFXT,74342E17-1B8F-4FC5-91CB-DA9E80EA1E50,2023-09-26_19h43.26.560,WP_VExplicitOC_HL,2022.2.5,Win32,16.56863557,88.4765625,4.364,2.0234,NA,NA,NA,NA,NA,happy,"unhappy, happy","less happy, more happy",NA,NA,NA,NA,NA,NA,NA,NA,NA,NA,NA,NA,NA,NA,NA,NA,NA,NA,NA,NA,NA,NA,NA,NA,NA,NA,NA,NA,NA,NA,NA,NA,NA,NA,NA,NA,NA,NA,0,0,0,0,1,NA,NA,NA,NA,NA
SUPAMT72701,3R6BYFZZPDBDD1FKOR462K2V9TAFXT,74342E17-1B8F-4FC5-91CB-DA9E80EA1E50,2023-09-26_19h43.26.560,WP_VExplicitOC_HL,2022.2.5,Win32,16.56863557,NA,NA,2.0342,NA,NA,NA,NA,NA,bored,"bored, not bored","more bored, less bored",NA,NA,NA,NA,NA,NA,NA,NA,NA,NA,NA,NA,NA,NA,NA,NA,NA,NA,NA,NA,NA,NA,NA,NA,NA,NA,NA,NA,NA,NA,NA,NA,NA,NA,NA,NA,NA,NA,0,1,1,2,1,NA,NA,NA,NA,NA
SUPAMT72701,3R6BYFZZPDBDD1FKOR462K2V9TAFXT,74342E17-1B8F-4FC5-91CB-DA9E80EA1E50,2023-09-26_19h43.26.560,WP_VExplicitOC_HL,2022.2.5,Win32,16.56863557,NA,NA,2.0625,NA,NA,NA,NA,NA,frustrated,"frustrated, not frustrated","more frustrated, less frustrated",NA,NA,NA,NA,NA,NA,NA,NA,NA,NA,NA,NA,NA,NA,NA,NA,NA,NA,NA,NA,NA,NA,NA,NA,NA,NA,NA,NA,NA,NA,NA,NA,NA,NA,NA,NA,NA,NA,0,2,2,1,1,NA,NA,NA,NA,NA
SUPAMT72701,3R6BYFZZPDBDD1FKOR462K2V9TAFXT,74342E17-1B8F-4FC5-91CB-DA9E80EA1E50,2023-09-26_19h43.26.560,WP_VExplicitOC_HL,2022.2.5,Win32,16.56863557,NA,NA,NA,NA,NA,NA,NA,NA,NA,NA,NA,NA,NA,NA,NA,NA,NA,NA,NA,NA,NA,NA,NA,NA,NA,NA,NA,NA,NA,NA,NA,NA,NA,NA,NA,NA,NA,NA,NA,NA,NA,NA,NA,NA,NA,NA,NA,NA,NA,NA,NA,NA,NA,NA,3,0,3,0,1
SUPAMT72701,3R6BYFZZPDBDD1FKOR462K2V9TAFXT,74342E17-1B8F-4FC5-91CB-DA9E80EA1E50,2023-09-26_19h43.26.560,WP_VExplicitOC_HL,2022.2.5,Win32,16.56863557,92.3828125,5.0643,2.0327,NA,NA,NA,NA,NA,bored,"bored, not bored","more bored, less bored",NA,NA,NA,NA,NA,NA,NA,NA,NA,NA,NA,NA,NA,NA,NA,NA,NA,NA,NA,NA,NA,NA,NA,NA,NA,NA,NA,NA,NA,NA,NA,NA,NA,NA,NA,NA,NA,NA,0,0,0,2,1,NA,NA,NA,NA,NA
SUPAMT72701,3R6BYFZZPDBDD1FKOR462K2V9TAFXT,74342E17-1B8F-4FC5-91CB-DA9E80EA1E50,2023-09-26_19h43.26.560,WP_VExplicitOC_HL,2022.2.5,Win32,16.56863557,79.6875,4.3698,2.0003,NA,NA,NA,NA,NA,happy,"unhappy, happy","less happy, more happy",NA,NA,NA,NA,NA,NA,NA,NA,NA,NA,NA,NA,NA,NA,NA,NA,NA,NA,NA,NA,NA,NA,NA,NA,NA,NA,NA,NA,NA,NA,NA,NA,NA,NA,NA,NA,NA,NA,0,1,1,0,1,NA,NA,NA,NA,NA
SUPAMT72701,3R6BYFZZPDBDD1FKOR462K2V9TAFXT,74342E17-1B8F-4FC5-91CB-DA9E80EA1E50,2023-09-26_19h43.26.560,WP_VExplicitOC_HL,2022.2.5,Win32,16.56863557,79.6875,3.7676,2.0737,NA,NA,NA,NA,NA,frustrated,"frustrated, not frustrated","more frustrated, less frustrated",NA,NA,NA,NA,NA,NA,NA,NA,NA,NA,NA,NA,NA,NA,NA,NA,NA,NA,NA,NA,NA,NA,NA,NA,NA,NA,NA,NA,NA,NA,NA,NA,NA,NA,NA,NA,NA,NA,0,2,2,1,1,NA,NA,NA,NA,NA
SUPAMT72701,3R6BYFZZPDBDD1FKOR462K2V9TAFXT,74342E17-1B8F-4FC5-91CB-DA9E80EA1E50,2023-09-26_19h43.26.560,WP_VExplicitOC_HL,2022.2.5,Win32,16.56863557,NA,NA,NA,NA,NA,NA,NA,NA,NA,NA,NA,NA,NA,NA,NA,NA,NA,NA,NA,NA,NA,NA,NA,NA,NA,NA,NA,NA,NA,NA,NA,NA,NA,NA,NA,NA,NA,NA,NA,NA,NA,NA,NA,NA,NA,NA,NA,NA,NA,NA,NA,NA,NA,NA,4,0,4,0,1
SUPAMT72701,3R6BYFZZPDBDD1FKOR462K2V9TAFXT,74342E17-1B8F-4FC5-91CB-DA9E80EA1E50,2023-09-26_19h43.26.560,WP_VExplicitOC_HL,2022.2.5,Win32,16.56863557,79.6875,3.321,2.0781,NA,NA,NA,NA,NA,bored,"bored, not bored","more bored, less bored",NA,NA,NA,NA,NA,NA,NA,NA,NA,NA,NA,NA,NA,NA,NA,NA,NA,NA,NA,NA,NA,NA,NA,NA,NA,NA,NA,NA,NA,NA,NA,NA,NA,NA,NA,NA,NA,NA,0,0,0,2,1,NA,NA,NA,NA,NA
SUPAMT72701,3R6BYFZZPDBDD1FKOR462K2V9TAFXT,74342E17-1B8F-4FC5-91CB-DA9E80EA1E50,2023-09-26_19h43.26.560,WP_VExplicitOC_HL,2022.2.5,Win32,16.56863557,79.6875,3.6056,2.0477,NA,NA,NA,NA,NA,frustrated,"frustrated, not frustrated","more frustrated, less frustrated",NA,NA,NA,NA,NA,NA,NA,NA,NA,NA,NA,NA,NA,NA,NA,NA,NA,NA,NA,NA,NA,NA,NA,NA,NA,NA,NA,NA,NA,NA,NA,NA,NA,NA,NA,NA,NA,NA,0,1,1,1,1,NA,NA,NA,NA,NA
SUPAMT72701,3R6BYFZZPDBDD1FKOR462K2V9TAFXT,74342E17-1B8F-4FC5-91CB-DA9E80EA1E50,2023-09-26_19h43.26.560,WP_VExplicitOC_HL,2022.2.5,Win32,16.56863557,79.6875,3.168,2.0751,NA,NA,NA,NA,NA,happy,"unhappy, happy","less happy, more happy",NA,NA,NA,NA,NA,NA,NA,NA,NA,NA,NA,NA,NA,NA,NA,NA,NA,NA,NA,NA,NA,NA,NA,NA,NA,NA,NA,NA,NA,NA,NA,NA,NA,NA,NA,NA,NA,NA,0,2,2,0,1,NA,NA,NA,NA,NA
SUPAMT72701,3R6BYFZZPDBDD1FKOR462K2V9TAFXT,74342E17-1B8F-4FC5-91CB-DA9E80EA1E50,2023-09-26_19h43.26.560,WP_VExplicitOC_HL,2022.2.5,Win32,16.56863557,NA,NA,NA,NA,NA,NA,NA,NA,NA,NA,NA,NA,NA,NA,NA,NA,NA,NA,NA,NA,NA,NA,NA,NA,NA,NA,NA,NA,NA,NA,NA,NA,NA,NA,NA,NA,NA,NA,NA,NA,NA,NA,NA,NA,NA,NA,NA,NA,NA,NA,NA,NA,NA,NA,5,0,5,0,1
SUPAMT72701,3R6BYFZZPDBDD1FKOR462K2V9TAFXT,74342E17-1B8F-4FC5-91CB-DA9E80EA1E50,2023-09-26_19h43.26.560,WP_VExplicitOC_HL,2022.2.5,Win32,16.56863557,83.7890625,5.6658,2.0276,NA,NA,NA,NA,NA,bored,"bored, not bored","more bored, less bored",NA,NA,NA,NA,NA,NA,NA,NA,NA,NA,NA,NA,NA,NA,NA,NA,NA,NA,NA,NA,NA,NA,NA,NA,NA,NA,NA,NA,NA,NA,NA,NA,NA,NA,NA,NA,NA,NA,0,0,0,2,1,NA,NA,NA,NA,NA
SUPAMT72701,3R6BYFZZPDBDD1FKOR462K2V9TAFXT,74342E17-1B8F-4FC5-91CB-DA9E80EA1E50,2023-09-26_19h43.26.560,WP_VExplicitOC_HL,2022.2.5,Win32,16.56863557,NA,NA,2.0725,NA,NA,NA,NA,NA,happy,"unhappy, happy","less happy, more happy",NA,NA,NA,NA,NA,NA,NA,NA,NA,NA,NA,NA,NA,NA,NA,NA,NA,NA,NA,NA,NA,NA,NA,NA,NA,NA,NA,NA,NA,NA,NA,NA,NA,NA,NA,NA,NA,NA,0,1,1,0,1,NA,NA,NA,NA,NA
SUPAMT72701,3R6BYFZZPDBDD1FKOR462K2V9TAFXT,74342E17-1B8F-4FC5-91CB-DA9E80EA1E50,2023-09-26_19h43.26.560,WP_VExplicitOC_HL,2022.2.5,Win32,16.56863557,80.6640625,3.8387,2.0708,NA,NA,NA,NA,NA,frustrated,"frustrated, not frustrated","more frustrated, less frustrated",NA,NA,NA,NA,NA,NA,NA,NA,NA,NA,NA,NA,NA,NA,NA,NA,NA,NA,NA,NA,NA,NA,NA,NA,NA,NA,NA,NA,NA,NA,NA,NA,NA,NA,NA,NA,NA,NA,0,2,2,1,1,NA,NA,NA,NA,NA
SUPAMT72701,3R6BYFZZPDBDD1FKOR462K2V9TAFXT,74342E17-1B8F-4FC5-91CB-DA9E80EA1E50,2023-09-26_19h43.26.560,WP_VExplicitOC_HL,2022.2.5,Win32,16.56863557,NA,NA,NA,NA,NA,NA,NA,NA,NA,NA,NA,NA,NA,NA,NA,NA,NA,NA,NA,NA,NA,NA,NA,NA,NA,NA,NA,NA,NA,NA,NA,NA,NA,NA,NA,NA,NA,NA,NA,NA,NA,NA,NA,NA,NA,NA,NA,NA,NA,NA,NA,NA,NA,NA,6,0,6,0,1
SUPAMT72701,3R6BYFZZPDBDD1FKOR462K2V9TAFXT,74342E17-1B8F-4FC5-91CB-DA9E80EA1E50,2023-09-26_19h43.26.560,WP_VExplicitOC_HL,2022.2.5,Win32,16.56863557,88.671875,4.0975,2.0322,NA,NA,NA,NA,NA,frustrated,"frustrated, not frustrated","more frustrated, less frustrated",NA,NA,NA,NA,NA,NA,NA,NA,NA,NA,NA,NA,NA,NA,NA,NA,NA,NA,NA,NA,NA,NA,NA,NA,NA,NA,NA,NA,NA,NA,NA,NA,NA,NA,NA,NA,NA,NA,0,0,0,1,1,NA,NA,NA,NA,NA
SUPAMT72701,3R6BYFZZPDBDD1FKOR462K2V9TAFXT,74342E17-1B8F-4FC5-91CB-DA9E80EA1E50,2023-09-26_19h43.26.560,WP_VExplicitOC_HL,2022.2.5,Win32,16.56863557,88.671875,3.1977,2.0221,NA,NA,NA,NA,NA,bored,"bored, not bored","more bored, less bored",NA,NA,NA,NA,NA,NA,NA,NA,NA,NA,NA,NA,NA,NA,NA,NA,NA,NA,NA,NA,NA,NA,NA,NA,NA,NA,NA,NA,NA,NA,NA,NA,NA,NA,NA,NA,NA,NA,0,1,1,2,1,NA,NA,NA,NA,NA
SUPAMT72701,3R6BYFZZPDBDD1FKOR462K2V9TAFXT,74342E17-1B8F-4FC5-91CB-DA9E80EA1E50,2023-09-26_19h43.26.560,WP_VExplicitOC_HL,2022.2.5,Win32,16.56863557,88.671875,3.156,2.079,NA,NA,NA,NA,NA,happy,"unhappy, happy","less happy, more happy",NA,NA,NA,NA,NA,NA,NA,NA,NA,NA,NA,NA,NA,NA,NA,NA,NA,NA,NA,NA,NA,NA,NA,NA,NA,NA,NA,NA,NA,NA,NA,NA,NA,NA,NA,NA,NA,NA,0,2,2,0,1,NA,NA,NA,NA,NA
SUPAMT72701,3R6BYFZZPDBDD1FKOR462K2V9TAFXT,74342E17-1B8F-4FC5-91CB-DA9E80EA1E50,2023-09-26_19h43.26.560,WP_VExplicitOC_HL,2022.2.5,Win32,16.56863557,NA,NA,NA,NA,NA,NA,NA,NA,NA,NA,NA,NA,NA,NA,NA,NA,NA,NA,NA,NA,NA,NA,NA,NA,NA,NA,NA,NA,NA,NA,NA,NA,NA,NA,NA,NA,NA,NA,NA,NA,NA,NA,NA,NA,NA,NA,NA,NA,NA,NA,NA,NA,NA,NA,7,0,7,0,1
SUPAMT72701,3R6BYFZZPDBDD1FKOR462K2V9TAFXT,74342E17-1B8F-4FC5-91CB-DA9E80EA1E50,2023-09-26_19h43.26.560,WP_VExplicitOC_HL,2022.2.5,Win32,16.56863557,86.71875,3.8022,2.0381,NA,NA,NA,NA,NA,frustrated,"frustrated, not frustrated","more frustrated, less frustrated",NA,NA,NA,NA,NA,NA,NA,NA,NA,NA,NA,NA,NA,NA,NA,NA,NA,NA,NA,NA,NA,NA,NA,NA,NA,NA,NA,NA,NA,NA,NA,NA,NA,NA,NA,NA,NA,NA,0,0,0,1,1,NA,NA,NA,NA,NA
SUPAMT72701,3R6BYFZZPDBDD1FKOR462K2V9TAFXT,74342E17-1B8F-4FC5-91CB-DA9E80EA1E50,2023-09-26_19h43.26.560,WP_VExplicitOC_HL,2022.2.5,Win32,16.56863557,86.71875,3.8904,2.0693,NA,NA,NA,NA,NA,bored,"bored, not bored","more bored, less bored",NA,NA,NA,NA,NA,NA,NA,NA,NA,NA,NA,NA,NA,NA,NA,NA,NA,NA,NA,NA,NA,NA,NA,NA,NA,NA,NA,NA,NA,NA,NA,NA,NA,NA,NA,NA,NA,NA,0,1,1,2,1,NA,NA,NA,NA,NA
SUPAMT72701,3R6BYFZZPDBDD1FKOR462K2V9TAFXT,74342E17-1B8F-4FC5-91CB-DA9E80EA1E50,2023-09-26_19h43.26.560,WP_VExplicitOC_HL,2022.2.5,Win32,16.56863557,86.71875,3.109,2.0385,NA,NA,NA,NA,NA,happy,"unhappy, happy","less happy, more happy",NA,NA,NA,NA,NA,NA,NA,NA,NA,NA,NA,NA,NA,NA,NA,NA,NA,NA,NA,NA,NA,NA,NA,NA,NA,NA,NA,NA,NA,NA,NA,NA,NA,NA,NA,NA,NA,NA,0,2,2,0,1,NA,NA,NA,NA,NA
SUPAMT72701,3R6BYFZZPDBDD1FKOR462K2V9TAFXT,74342E17-1B8F-4FC5-91CB-DA9E80EA1E50,2023-09-26_19h43.26.560,WP_VExplicitOC_HL,2022.2.5,Win32,16.56863557,NA,NA,NA,NA,NA,NA,NA,NA,NA,NA,NA,NA,NA,NA,NA,NA,NA,NA,NA,NA,NA,NA,NA,NA,NA,NA,NA,NA,NA,NA,NA,NA,NA,NA,NA,NA,NA,NA,NA,NA,NA,NA,NA,NA,NA,NA,NA,NA,NA,NA,NA,NA,NA,NA,8,0,8,0,1
SUPAMT72701,3R6BYFZZPDBDD1FKOR462K2V9TAFXT,74342E17-1B8F-4FC5-91CB-DA9E80EA1E50,2023-09-26_19h43.26.560,WP_VExplicitOC_HL,2022.2.5,Win32,16.56863557,86.71875,2.1932,2.038,NA,NA,NA,NA,NA,bored,"bored, not bored","more bored, less bored",NA,NA,NA,NA,NA,NA,NA,NA,NA,NA,NA,NA,NA,NA,NA,NA,NA,NA,NA,NA,NA,NA,NA,NA,NA,NA,NA,NA,NA,NA,NA,NA,NA,NA,NA,NA,NA,NA,0,0,0,2,1,NA,NA,NA,NA,NA
SUPAMT72701,3R6BYFZZPDBDD1FKOR462K2V9TAFXT,74342E17-1B8F-4FC5-91CB-DA9E80EA1E50,2023-09-26_19h43.26.560,WP_VExplicitOC_HL,2022.2.5,Win32,16.56863557,79.296875,5.3212,2.0904,NA,NA,NA,NA,NA,frustrated,"frustrated, not frustrated","more frustrated, less frustrated",NA,NA,NA,NA,NA,NA,NA,NA,NA,NA,NA,NA,NA,NA,NA,NA,NA,NA,NA,NA,NA,NA,NA,NA,NA,NA,NA,NA,NA,NA,NA,NA,NA,NA,NA,NA,NA,NA,0,1,1,1,1,NA,NA,NA,NA,NA
SUPAMT72701,3R6BYFZZPDBDD1FKOR462K2V9TAFXT,74342E17-1B8F-4FC5-91CB-DA9E80EA1E50,2023-09-26_19h43.26.560,WP_VExplicitOC_HL,2022.2.5,Win32,16.56863557,80.859375,6.3004,2.0516,NA,NA,NA,NA,NA,happy,"unhappy, happy","less happy, more happy",NA,NA,NA,NA,NA,NA,NA,NA,NA,NA,NA,NA,NA,NA,NA,NA,NA,NA,NA,NA,NA,NA,NA,NA,NA,NA,NA,NA,NA,NA,NA,NA,NA,NA,NA,NA,NA,NA,0,2,2,0,1,NA,NA,NA,NA,NA
SUPAMT72701,3R6BYFZZPDBDD1FKOR462K2V9TAFXT,74342E17-1B8F-4FC5-91CB-DA9E80EA1E50,2023-09-26_19h43.26.560,WP_VExplicitOC_HL,2022.2.5,Win32,16.56863557,NA,NA,NA,NA,NA,NA,NA,NA,NA,NA,NA,NA,NA,NA,NA,NA,NA,NA,NA,NA,NA,NA,NA,NA,NA,NA,NA,NA,NA,NA,NA,NA,NA,NA,NA,NA,NA,NA,NA,NA,NA,NA,NA,NA,NA,NA,NA,NA,NA,NA,NA,NA,NA,NA,9,0,9,0,1
SUPAMT72701,3R6BYFZZPDBDD1FKOR462K2V9TAFXT,74342E17-1B8F-4FC5-91CB-DA9E80EA1E50,2023-09-26_19h43.26.560,WP_VExplicitOC_HL,2022.2.5,Win32,16.56863557,78.125,3.6329,2.0781,NA,NA,NA,NA,NA,frustrated,"frustrated, not frustrated","more frustrated, less frustrated",NA,NA,NA,NA,NA,NA,NA,NA,NA,NA,NA,NA,NA,NA,NA,NA,NA,NA,NA,NA,NA,NA,NA,NA,NA,NA,NA,NA,NA,NA,NA,NA,NA,NA,NA,NA,NA,NA,0,0,0,1,1,NA,NA,NA,NA,NA
SUPAMT72701,3R6BYFZZPDBDD1FKOR462K2V9TAFXT,74342E17-1B8F-4FC5-91CB-DA9E80EA1E50,2023-09-26_19h43.26.560,WP_VExplicitOC_HL,2022.2.5,Win32,16.56863557,78.7109375,4.0235,2.0649,NA,NA,NA,NA,NA,bored,"bored, not bored","more bored, less bored",NA,NA,NA,NA,NA,NA,NA,NA,NA,NA,NA,NA,NA,NA,NA,NA,NA,NA,NA,NA,NA,NA,NA,NA,NA,NA,NA,NA,NA,NA,NA,NA,NA,NA,NA,NA,NA,NA,0,1,1,2,1,NA,NA,NA,NA,NA
SUPAMT72701,3R6BYFZZPDBDD1FKOR462K2V9TAFXT,74342E17-1B8F-4FC5-91CB-DA9E80EA1E50,2023-09-26_19h43.26.560,WP_VExplicitOC_HL,2022.2.5,Win32,16.56863557,NA,NA,2.0512,NA,NA,NA,NA,NA,happy,"unhappy, happy","less happy, more happy",NA,NA,NA,NA,NA,NA,NA,NA,NA,NA,NA,NA,NA,NA,NA,NA,NA,NA,NA,NA,NA,NA,NA,NA,NA,NA,NA,NA,NA,NA,NA,NA,NA,NA,NA,NA,NA,NA,0,2,2,0,1,NA,NA,NA,NA,NA
SUPAMT72701,3R6BYFZZPDBDD1FKOR462K2V9TAFXT,74342E17-1B8F-4FC5-91CB-DA9E80EA1E50,2023-09-26_19h43.26.560,WP_VExplicitOC_HL,2022.2.5,Win32,16.56863557,NA,NA,NA,NA,NA,NA,NA,NA,NA,NA,NA,NA,NA,NA,NA,NA,NA,NA,NA,NA,NA,NA,NA,NA,NA,NA,NA,NA,NA,NA,NA,NA,NA,NA,NA,NA,NA,NA,NA,NA,NA,NA,NA,NA,NA,NA,NA,NA,NA,NA,NA,NA,NA,NA,10,0,10,0,1
SUPAMT72701,3R6BYFZZPDBDD1FKOR462K2V9TAFXT,74342E17-1B8F-4FC5-91CB-DA9E80EA1E50,2023-09-26_19h43.26.560,WP_VExplicitOC_HL,2022.2.5,Win32,16.56863557,NA,NA,2.0562,NA,NA,NA,NA,NA,bored,"bored, not bored","more bored, less bored",NA,NA,NA,NA,NA,NA,NA,NA,NA,NA,NA,NA,NA,NA,NA,NA,NA,NA,NA,NA,NA,NA,NA,NA,NA,NA,NA,NA,NA,NA,NA,NA,NA,NA,NA,NA,NA,NA,0,0,0,2,1,NA,NA,NA,NA,NA
SUPAMT72701,3R6BYFZZPDBDD1FKOR462K2V9TAFXT,74342E17-1B8F-4FC5-91CB-DA9E80EA1E50,2023-09-26_19h43.26.560,WP_VExplicitOC_HL,2022.2.5,Win32,16.56863557,80.859375,5.1809,2.0399,NA,NA,NA,NA,NA,frustrated,"frustrated, not frustrated","more frustrated, less frustrated",NA,NA,NA,NA,NA,NA,NA,NA,NA,NA,NA,NA,NA,NA,NA,NA,NA,NA,NA,NA,NA,NA,NA,NA,NA,NA,NA,NA,NA,NA,NA,NA,NA,NA,NA,NA,NA,NA,0,1,1,1,1,NA,NA,NA,NA,NA
SUPAMT72701,3R6BYFZZPDBDD1FKOR462K2V9TAFXT,74342E17-1B8F-4FC5-91CB-DA9E80EA1E50,2023-09-26_19h43.26.560,WP_VExplicitOC_HL,2022.2.5,Win32,16.56863557,80.859375,4.5433,2.0794,NA,NA,NA,NA,NA,happy,"unhappy, happy","less happy, more happy",NA,NA,NA,NA,NA,NA,NA,NA,NA,NA,NA,NA,NA,NA,NA,NA,NA,NA,NA,NA,NA,NA,NA,NA,NA,NA,NA,NA,NA,NA,NA,NA,NA,NA,NA,NA,NA,NA,0,2,2,0,1,NA,NA,NA,NA,NA
SUPAMT72701,3R6BYFZZPDBDD1FKOR462K2V9TAFXT,74342E17-1B8F-4FC5-91CB-DA9E80EA1E50,2023-09-26_19h43.26.560,WP_VExplicitOC_HL,2022.2.5,Win32,16.56863557,NA,NA,NA,NA,NA,NA,NA,NA,NA,NA,NA,NA,NA,NA,NA,NA,NA,NA,NA,NA,NA,NA,NA,NA,NA,NA,NA,NA,NA,NA,NA,NA,NA,NA,NA,NA,NA,NA,NA,NA,NA,NA,NA,NA,NA,NA,NA,NA,NA,NA,NA,NA,NA,NA,11,0,11,0,1
SUPAMT72701,3R6BYFZZPDBDD1FKOR462K2V9TAFXT,74342E17-1B8F-4FC5-91CB-DA9E80EA1E50,2023-09-26_19h43.26.560,WP_VExplicitOC_HL,2022.2.5,Win32,16.56863557,84.1796875,5.2504,2.0658,NA,NA,NA,NA,NA,frustrated,"frustrated, not frustrated","more frustrated, less frustrated",NA,NA,NA,NA,NA,NA,NA,NA,NA,NA,NA,NA,NA,NA,NA,NA,NA,NA,NA,NA,NA,NA,NA,NA,NA,NA,NA,NA,NA,NA,NA,NA,NA,NA,NA,NA,NA,NA,0,0,0,1,1,NA,NA,NA,NA,NA
SUPAMT72701,3R6BYFZZPDBDD1FKOR462K2V9TAFXT,74342E17-1B8F-4FC5-91CB-DA9E80EA1E50,2023-09-26_19h43.26.560,WP_VExplicitOC_HL,2022.2.5,Win32,16.56863557,NA,NA,2.0629,NA,NA,NA,NA,NA,bored,"bored, not bored","more bored, less bored",NA,NA,NA,NA,NA,NA,NA,NA,NA,NA,NA,NA,NA,NA,NA,NA,NA,NA,NA,NA,NA,NA,NA,NA,NA,NA,NA,NA,NA,NA,NA,NA,NA,NA,NA,NA,NA,NA,0,1,1,2,1,NA,NA,NA,NA,NA
SUPAMT72701,3R6BYFZZPDBDD1FKOR462K2V9TAFXT,74342E17-1B8F-4FC5-91CB-DA9E80EA1E50,2023-09-26_19h43.26.560,WP_VExplicitOC_HL,2022.2.5,Win32,16.56863557,81.4453125,4.1907,2.0709,NA,NA,NA,NA,NA,happy,"unhappy, happy","less happy, more happy",NA,NA,NA,NA,NA,NA,NA,NA,NA,NA,NA,NA,NA,NA,NA,NA,NA,NA,NA,NA,NA,NA,NA,NA,NA,NA,NA,NA,NA,NA,NA,NA,NA,NA,NA,NA,NA,NA,0,2,2,0,1,NA,NA,NA,NA,NA
SUPAMT72701,3R6BYFZZPDBDD1FKOR462K2V9TAFXT,74342E17-1B8F-4FC5-91CB-DA9E80EA1E50,2023-09-26_19h43.26.560,WP_VExplicitOC_HL,2022.2.5,Win32,16.56863557,NA,NA,NA,NA,NA,NA,NA,NA,NA,NA,NA,NA,NA,NA,NA,NA,NA,NA,NA,NA,NA,NA,NA,NA,NA,NA,NA,NA,NA,NA,NA,NA,NA,NA,NA,NA,NA,NA,NA,NA,NA,NA,NA,NA,NA,NA,NA,NA,NA,NA,NA,NA,NA,NA,12,0,12,0,1
SUPAMT72701,3R6BYFZZPDBDD1FKOR462K2V9TAFXT,74342E17-1B8F-4FC5-91CB-DA9E80EA1E50,2023-09-26_19h43.26.560,WP_VExplicitOC_HL,2022.2.5,Win32,16.56863557,86.5234375,4.4543,2.0368,NA,NA,NA,NA,NA,happy,"unhappy, happy","less happy, more happy",NA,NA,NA,NA,NA,NA,NA,NA,NA,NA,NA,NA,NA,NA,NA,NA,NA,NA,NA,NA,NA,NA,NA,NA,NA,NA,NA,NA,NA,NA,NA,NA,NA,NA,NA,NA,NA,NA,0,0,0,0,1,NA,NA,NA,NA,NA
SUPAMT72701,3R6BYFZZPDBDD1FKOR462K2V9TAFXT,74342E17-1B8F-4FC5-91CB-DA9E80EA1E50,2023-09-26_19h43.26.560,WP_VExplicitOC_HL,2022.2.5,Win32,16.56863557,86.5234375,6.6897,2.0331,NA,NA,NA,NA,NA,bored,"bored, not bored","more bored, less bored",NA,NA,NA,NA,NA,NA,NA,NA,NA,NA,NA,NA,NA,NA,NA,NA,NA,NA,NA,NA,NA,NA,NA,NA,NA,NA,NA,NA,NA,NA,NA,NA,NA,NA,NA,NA,NA,NA,0,1,1,2,1,NA,NA,NA,NA,NA
SUPAMT72701,3R6BYFZZPDBDD1FKOR462K2V9TAFXT,74342E17-1B8F-4FC5-91CB-DA9E80EA1E50,2023-09-26_19h43.26.560,WP_VExplicitOC_HL,2022.2.5,Win32,16.56863557,86.5234375,5.7929,2.0265,NA,NA,NA,NA,NA,frustrated,"frustrated, not frustrated","more frustrated, less frustrated",NA,NA,NA,NA,NA,NA,NA,NA,NA,NA,NA,NA,NA,NA,NA,NA,NA,NA,NA,NA,NA,NA,NA,NA,NA,NA,NA,NA,NA,NA,NA,NA,NA,NA,NA,NA,NA,NA,0,2,2,1,1,NA,NA,NA,NA,NA
SUPAMT72701,3R6BYFZZPDBDD1FKOR462K2V9TAFXT,74342E17-1B8F-4FC5-91CB-DA9E80EA1E50,2023-09-26_19h43.26.560,WP_VExplicitOC_HL,2022.2.5,Win32,16.56863557,NA,NA,NA,NA,NA,NA,NA,NA,NA,NA,NA,NA,NA,NA,NA,NA,NA,NA,NA,NA,NA,NA,NA,NA,NA,NA,NA,NA,NA,NA,NA,NA,NA,NA,NA,NA,NA,NA,NA,NA,NA,NA,NA,NA,NA,NA,NA,NA,NA,NA,NA,NA,NA,NA,13,0,13,0,1
SUPAMT72701,3R6BYFZZPDBDD1FKOR462K2V9TAFXT,74342E17-1B8F-4FC5-91CB-DA9E80EA1E50,2023-09-26_19h43.26.560,WP_VExplicitOC_HL,2022.2.5,Win32,16.56863557,78.515625,5.6295,2.0885,NA,NA,NA,NA,NA,happy,"unhappy, happy","less happy, more happy",NA,NA,NA,NA,NA,NA,NA,NA,NA,NA,NA,NA,NA,NA,NA,NA,NA,NA,NA,NA,NA,NA,NA,NA,NA,NA,NA,NA,NA,NA,NA,NA,NA,NA,NA,NA,NA,NA,0,0,0,0,1,NA,NA,NA,NA,NA
SUPAMT72701,3R6BYFZZPDBDD1FKOR462K2V9TAFXT,74342E17-1B8F-4FC5-91CB-DA9E80EA1E50,2023-09-26_19h43.26.560,WP_VExplicitOC_HL,2022.2.5,Win32,16.56863557,78.515625,4.472,2.0667,NA,NA,NA,NA,NA,bored,"bored, not bored","more bored, less bored",NA,NA,NA,NA,NA,NA,NA,NA,NA,NA,NA,NA,NA,NA,NA,NA,NA,NA,NA,NA,NA,NA,NA,NA,NA,NA,NA,NA,NA,NA,NA,NA,NA,NA,NA,NA,NA,NA,0,1,1,2,1,NA,NA,NA,NA,NA
SUPAMT72701,3R6BYFZZPDBDD1FKOR462K2V9TAFXT,74342E17-1B8F-4FC5-91CB-DA9E80EA1E50,2023-09-26_19h43.26.560,WP_VExplicitOC_HL,2022.2.5,Win32,16.56863557,78.515625,4.7386,2.0634,NA,NA,NA,NA,NA,frustrated,"frustrated, not frustrated","more frustrated, less frustrated",NA,NA,NA,NA,NA,NA,NA,NA,NA,NA,NA,NA,NA,NA,NA,NA,NA,NA,NA,NA,NA,NA,NA,NA,NA,NA,NA,NA,NA,NA,NA,NA,NA,NA,NA,NA,NA,NA,0,2,2,1,1,NA,NA,NA,NA,NA
SUPAMT72701,3R6BYFZZPDBDD1FKOR462K2V9TAFXT,74342E17-1B8F-4FC5-91CB-DA9E80EA1E50,2023-09-26_19h43.26.560,WP_VExplicitOC_HL,2022.2.5,Win32,16.56863557,NA,NA,NA,NA,NA,NA,NA,NA,NA,NA,NA,NA,NA,NA,NA,NA,NA,NA,NA,NA,NA,NA,NA,NA,NA,NA,NA,NA,NA,NA,NA,NA,NA,NA,NA,NA,NA,NA,NA,NA,NA,NA,NA,NA,NA,NA,NA,NA,NA,NA,NA,NA,NA,NA,14,0,14,0,1
SUPAMT72701,3R6BYFZZPDBDD1FKOR462K2V9TAFXT,74342E17-1B8F-4FC5-91CB-DA9E80EA1E50,2023-09-26_19h43.26.560,WP_VExplicitOC_HL,2022.2.5,Win32,16.56863557,NA,NA,NA,NA,NA,NA,NA,NA,NA,NA,NA,NA,NA,NA,NA,NA,NA,NA,NA,NA,NA,NA,NA,NA,NA,NA,NA,NA,NA,NA,NA,NA,NA,NA,NA,NA,NA,NA,NA,NA,NA,NA,NA,NA,NA,NA,NA,NA,NA,NA,NA,NA,NA,NA,NA,NA,NA,NA,NA
