participant,session,completion,date,expName,psychopyVersion,OS,frameRate,rating_all.response,rating_all.rt,rating_all.tStart,rndRat1.thisRepN,rndRat1.thisTrialN,rndRat1.thisN,rndRat1.thisIndex,rndRat1.ran,Emo,Labs,Labs2,rating_alt.response,rating_alt.rt,AltC.thisRepN,AltC.thisTrialN,AltC.thisN,AltC.thisIndex,AltC.ran,alt_choices,pic_choices,BottomAlt_Choice,rndRat2.thisRepN,rndRat2.thisTrialN,rndRat2.thisN,rndRat2.thisIndex,rndRat2.ran,rndRat3.thisRepN,rndRat3.thisTrialN,rndRat3.thisN,rndRat3.thisIndex,rndRat3.ran,trials_FC_L.thisRepN,trials_FC_L.thisTrialN,trials_FC_L.thisN,trials_FC_L.thisIndex,trials_FC_L.ran,rating_alt_2.response,rating_alt_2.rt,AltC2.thisRepN,AltC2.thisTrialN,AltC2.thisN,AltC2.thisIndex,AltC2.ran,TopAlt_Choice,rndRat4.thisRepN,rndRat4.thisTrialN,rndRat4.thisN,rndRat4.thisIndex,rndRat4.ran,rndRat5.thisRepN,rndRat5.thisTrialN,rndRat5.thisN,rndRat5.thisIndex,rndRat5.ran,trials_FC_H.thisRepN,trials_FC_H.thisTrialN,trials_FC_H.thisN,trials_FC_H.thisIndex,trials_FC_H.ran
SUPAMT62780,3QUO65DNQ0NF2AYIIPC957C579JUOV,6DB32A8F-6AC3-4138-9393-4527E61D9E94,2023-09-26_07h35.45.709,WP_VExplicitOC_LH,2022.2.5,Win32,13.10684702,NA,NA,NA,NA,NA,NA,NA,NA,NA,NA,NA,NA,NA,NA,NA,NA,NA,NA,NA,NA,NA,NA,NA,NA,NA,NA,NA,NA,NA,NA,NA,NA,NA,NA,NA,NA,NA,NA,NA,NA,NA,NA,NA,NA,NA,NA,NA,NA,NA,NA,NA,NA,NA,NA,NA,NA,NA,NA,NA
SUPAMT62780,3QUO65DNQ0NF2AYIIPC957C579JUOV,6DB32A8F-6AC3-4138-9393-4527E61D9E94,2023-09-26_07h35.45.709,WP_VExplicitOC_LH,2022.2.5,Win32,13.10684702,NA,NA,NA,NA,NA,NA,NA,NA,NA,NA,NA,NA,NA,NA,NA,NA,NA,NA,NA,NA,NA,NA,NA,NA,NA,NA,NA,NA,NA,NA,NA,NA,NA,NA,NA,NA,NA,NA,NA,NA,NA,NA,NA,NA,NA,NA,NA,NA,NA,NA,NA,NA,NA,NA,NA,NA,NA,NA,NA
SUPAMT62780,3QUO65DNQ0NF2AYIIPC957C579JUOV,6DB32A8F-6AC3-4138-9393-4527E61D9E94,2023-09-26_07h35.45.709,WP_VExplicitOC_LH,2022.2.5,Win32,13.10684702,NA,NA,NA,NA,NA,NA,NA,NA,NA,NA,NA,NA,NA,NA,NA,NA,NA,NA,NA,NA,NA,NA,NA,NA,NA,NA,NA,NA,NA,NA,NA,NA,NA,NA,NA,NA,NA,NA,NA,NA,NA,NA,NA,NA,NA,NA,NA,NA,NA,NA,NA,NA,NA,NA,NA,NA,NA,NA,NA
SUPAMT62780,3QUO65DNQ0NF2AYIIPC957C579JUOV,6DB32A8F-6AC3-4138-9393-4527E61D9E94,2023-09-26_07h35.45.709,WP_VExplicitOC_LH,2022.2.5,Win32,13.10684702,40.625,4.0519,2.0965,0,0,0,1,1,frustrated,"frustrated, not frustrated","more frustrated, less frustrated",NA,NA,NA,NA,NA,NA,NA,NA,NA,NA,NA,NA,NA,NA,NA,NA,NA,NA,NA,NA,NA,NA,NA,NA,NA,NA,NA,NA,NA,NA,NA,NA,NA,NA,NA,NA,NA,NA,NA,NA,NA,NA,NA,NA,NA,NA,NA,NA
SUPAMT62780,3QUO65DNQ0NF2AYIIPC957C579JUOV,6DB32A8F-6AC3-4138-9393-4527E61D9E94,2023-09-26_07h35.45.709,WP_VExplicitOC_LH,2022.2.5,Win32,13.10684702,100,3.3888,2.0195,0,1,1,0,1,happy,"unhappy, happy","less happy, more happy",NA,NA,NA,NA,NA,NA,NA,NA,NA,NA,NA,NA,NA,NA,NA,NA,NA,NA,NA,NA,NA,NA,NA,NA,NA,NA,NA,NA,NA,NA,NA,NA,NA,NA,NA,NA,NA,NA,NA,NA,NA,NA,NA,NA,NA,NA,NA,NA
SUPAMT62780,3QUO65DNQ0NF2AYIIPC957C579JUOV,6DB32A8F-6AC3-4138-9393-4527E61D9E94,2023-09-26_07h35.45.709,WP_VExplicitOC_LH,2022.2.5,Win32,13.10684702,100,3.7456,2.0672,0,2,2,2,1,bored,"bored, not bored","more bored, less bored",NA,NA,NA,NA,NA,NA,NA,NA,NA,NA,NA,NA,NA,NA,NA,NA,NA,NA,NA,NA,NA,NA,NA,NA,NA,NA,NA,NA,NA,NA,NA,NA,NA,NA,NA,NA,NA,NA,NA,NA,NA,NA,NA,NA,NA,NA,NA,NA
SUPAMT62780,3QUO65DNQ0NF2AYIIPC957C579JUOV,6DB32A8F-6AC3-4138-9393-4527E61D9E94,2023-09-26_07h35.45.709,WP_VExplicitOC_LH,2022.2.5,Win32,13.10684702,NA,NA,NA,NA,NA,NA,NA,NA,NA,NA,NA,NA,NA,NA,NA,NA,NA,NA,NA,NA,NA,NA,NA,NA,NA,NA,NA,NA,NA,NA,NA,NA,NA,NA,NA,NA,NA,NA,NA,NA,NA,NA,NA,NA,NA,NA,NA,NA,NA,NA,NA,NA,NA,NA,NA,NA,NA,NA,NA
SUPAMT62780,3QUO65DNQ0NF2AYIIPC957C579JUOV,6DB32A8F-6AC3-4138-9393-4527E61D9E94,2023-09-26_07h35.45.709,WP_VExplicitOC_LH,2022.2.5,Win32,13.10684702,NA,NA,NA,NA,NA,NA,NA,NA,NA,NA,NA,NA,NA,NA,NA,NA,NA,NA,NA,NA,NA,NA,NA,NA,NA,NA,NA,NA,NA,NA,NA,NA,NA,NA,NA,NA,NA,NA,NA,NA,NA,NA,NA,NA,NA,NA,NA,NA,NA,NA,NA,NA,NA,NA,NA,NA,NA,NA,NA
SUPAMT62780,3QUO65DNQ0NF2AYIIPC957C579JUOV,6DB32A8F-6AC3-4138-9393-4527E61D9E94,2023-09-26_07h35.45.709,WP_VExplicitOC_LH,2022.2.5,Win32,13.10684702,NA,NA,NA,NA,NA,NA,NA,NA,NA,NA,NA,NA,NA,NA,NA,NA,NA,NA,NA,NA,NA,NA,NA,NA,NA,NA,NA,NA,NA,NA,NA,NA,NA,NA,NA,NA,NA,NA,NA,NA,NA,NA,NA,NA,NA,NA,NA,NA,NA,NA,NA,NA,NA,NA,NA,NA,NA,NA,NA
SUPAMT62780,3QUO65DNQ0NF2AYIIPC957C579JUOV,6DB32A8F-6AC3-4138-9393-4527E61D9E94,2023-09-26_07h35.45.709,WP_VExplicitOC_LH,2022.2.5,Win32,13.10684702,NA,NA,NA,NA,NA,NA,NA,NA,NA,NA,NA,NA,NA,NA,NA,NA,NA,NA,NA,NA,NA,NA,NA,NA,NA,NA,NA,NA,NA,NA,NA,NA,NA,NA,NA,NA,NA,NA,NA,NA,NA,NA,NA,NA,NA,NA,NA,NA,NA,NA,NA,NA,NA,NA,NA,NA,NA,NA,NA
SUPAMT62780,3QUO65DNQ0NF2AYIIPC957C579JUOV,6DB32A8F-6AC3-4138-9393-4527E61D9E94,2023-09-26_07h35.45.709,WP_VExplicitOC_LH,2022.2.5,Win32,13.10684702,NA,NA,NA,NA,NA,NA,NA,NA,NA,NA,NA,37.76041667,2.3788,0,0,0,0,1,rest (looking at a fixed cross),001.png,NA,NA,NA,NA,NA,NA,NA,NA,NA,NA,NA,NA,NA,NA,NA,NA,NA,NA,NA,NA,NA,NA,NA,NA,NA,NA,NA,NA,NA,NA,NA,NA,NA,NA,NA,NA,NA,NA,NA
SUPAMT62780,3QUO65DNQ0NF2AYIIPC957C579JUOV,6DB32A8F-6AC3-4138-9393-4527E61D9E94,2023-09-26_07h35.45.709,WP_VExplicitOC_LH,2022.2.5,Win32,13.10684702,NA,NA,NA,NA,NA,NA,NA,NA,NA,NA,NA,54.42708333,1.2169,0,1,1,1,1,stand up,002.png,NA,NA,NA,NA,NA,NA,NA,NA,NA,NA,NA,NA,NA,NA,NA,NA,NA,NA,NA,NA,NA,NA,NA,NA,NA,NA,NA,NA,NA,NA,NA,NA,NA,NA,NA,NA,NA,NA,NA
SUPAMT62780,3QUO65DNQ0NF2AYIIPC957C579JUOV,6DB32A8F-6AC3-4138-9393-4527E61D9E94,2023-09-26_07h35.45.709,WP_VExplicitOC_LH,2022.2.5,Win32,13.10684702,NA,NA,NA,NA,NA,NA,NA,NA,NA,NA,NA,75.52083333,1.1427,0,2,2,2,1,stretch,003.png,NA,NA,NA,NA,NA,NA,NA,NA,NA,NA,NA,NA,NA,NA,NA,NA,NA,NA,NA,NA,NA,NA,NA,NA,NA,NA,NA,NA,NA,NA,NA,NA,NA,NA,NA,NA,NA,NA,NA
SUPAMT62780,3QUO65DNQ0NF2AYIIPC957C579JUOV,6DB32A8F-6AC3-4138-9393-4527E61D9E94,2023-09-26_07h35.45.709,WP_VExplicitOC_LH,2022.2.5,Win32,13.10684702,NA,NA,NA,NA,NA,NA,NA,NA,NA,NA,NA,56.77083333,1.6068,0,3,3,3,1,make a drink,004.png,NA,NA,NA,NA,NA,NA,NA,NA,NA,NA,NA,NA,NA,NA,NA,NA,NA,NA,NA,NA,NA,NA,NA,NA,NA,NA,NA,NA,NA,NA,NA,NA,NA,NA,NA,NA,NA,NA,NA
SUPAMT62780,3QUO65DNQ0NF2AYIIPC957C579JUOV,6DB32A8F-6AC3-4138-9393-4527E61D9E94,2023-09-26_07h35.45.709,WP_VExplicitOC_LH,2022.2.5,Win32,13.10684702,NA,NA,NA,NA,NA,NA,NA,NA,NA,NA,NA,75.78125,1.0796,0,4,4,4,1,scroll social media,005.png,NA,NA,NA,NA,NA,NA,NA,NA,NA,NA,NA,NA,NA,NA,NA,NA,NA,NA,NA,NA,NA,NA,NA,NA,NA,NA,NA,NA,NA,NA,NA,NA,NA,NA,NA,NA,NA,NA,NA
SUPAMT62780,3QUO65DNQ0NF2AYIIPC957C579JUOV,6DB32A8F-6AC3-4138-9393-4527E61D9E94,2023-09-26_07h35.45.709,WP_VExplicitOC_LH,2022.2.5,Win32,13.10684702,NA,NA,NA,NA,NA,NA,NA,NA,NA,NA,NA,61.19791667,1.0329,0,5,5,5,1,listen to music,006.png,NA,NA,NA,NA,NA,NA,NA,NA,NA,NA,NA,NA,NA,NA,NA,NA,NA,NA,NA,NA,NA,NA,NA,NA,NA,NA,NA,NA,NA,NA,NA,NA,NA,NA,NA,NA,NA,NA,NA
SUPAMT62780,3QUO65DNQ0NF2AYIIPC957C579JUOV,6DB32A8F-6AC3-4138-9393-4527E61D9E94,2023-09-26_07h35.45.709,WP_VExplicitOC_LH,2022.2.5,Win32,13.10684702,NA,NA,NA,NA,NA,NA,NA,NA,NA,NA,NA,45.83333333,1.4008,0,6,6,6,1,daydream,007.png,NA,NA,NA,NA,NA,NA,NA,NA,NA,NA,NA,NA,NA,NA,NA,NA,NA,NA,NA,NA,NA,NA,NA,NA,NA,NA,NA,NA,NA,NA,NA,NA,NA,NA,NA,NA,NA,NA,NA
SUPAMT62780,3QUO65DNQ0NF2AYIIPC957C579JUOV,6DB32A8F-6AC3-4138-9393-4527E61D9E94,2023-09-26_07h35.45.709,WP_VExplicitOC_LH,2022.2.5,Win32,13.10684702,NA,NA,NA,NA,NA,NA,NA,NA,NA,NA,NA,86.19791667,0.8029,0,7,7,7,1,watch a short animation,008.png,NA,NA,NA,NA,NA,NA,NA,NA,NA,NA,NA,NA,NA,NA,NA,NA,NA,NA,NA,NA,NA,NA,NA,NA,NA,NA,NA,NA,NA,NA,NA,NA,NA,NA,NA,NA,NA,NA,NA
SUPAMT62780,3QUO65DNQ0NF2AYIIPC957C579JUOV,6DB32A8F-6AC3-4138-9393-4527E61D9E94,2023-09-26_07h35.45.709,WP_VExplicitOC_LH,2022.2.5,Win32,13.10684702,NA,NA,NA,NA,NA,NA,NA,NA,NA,NA,NA,63.54166667,0.9661,0,8,8,8,1,read a novel,009.png,NA,NA,NA,NA,NA,NA,NA,NA,NA,NA,NA,NA,NA,NA,NA,NA,NA,NA,NA,NA,NA,NA,NA,NA,NA,NA,NA,NA,NA,NA,NA,NA,NA,NA,NA,NA,NA,NA,NA
SUPAMT62780,3QUO65DNQ0NF2AYIIPC957C579JUOV,6DB32A8F-6AC3-4138-9393-4527E61D9E94,2023-09-26_07h35.45.709,WP_VExplicitOC_LH,2022.2.5,Win32,13.10684702,NA,NA,NA,NA,NA,NA,NA,NA,NA,NA,NA,75.26041667,1.0692,0,9,9,9,1,read the news,010.png,NA,NA,NA,NA,NA,NA,NA,NA,NA,NA,NA,NA,NA,NA,NA,NA,NA,NA,NA,NA,NA,NA,NA,NA,NA,NA,NA,NA,NA,NA,NA,NA,NA,NA,NA,NA,NA,NA,NA
SUPAMT62780,3QUO65DNQ0NF2AYIIPC957C579JUOV,6DB32A8F-6AC3-4138-9393-4527E61D9E94,2023-09-26_07h35.45.709,WP_VExplicitOC_LH,2022.2.5,Win32,13.10684702,NA,NA,NA,NA,NA,NA,NA,NA,NA,NA,NA,NA,NA,NA,NA,NA,NA,NA,NA,NA,NA,NA,NA,NA,NA,NA,NA,NA,NA,NA,NA,NA,NA,NA,NA,NA,NA,NA,NA,NA,NA,NA,NA,NA,NA,NA,NA,NA,NA,NA,NA,NA,NA,NA,NA,NA,NA,NA,NA
SUPAMT62780,3QUO65DNQ0NF2AYIIPC957C579JUOV,6DB32A8F-6AC3-4138-9393-4527E61D9E94,2023-09-26_07h35.45.709,WP_VExplicitOC_LH,2022.2.5,Win32,13.10684702,NA,NA,NA,NA,NA,NA,NA,NA,NA,NA,NA,NA,NA,NA,NA,NA,NA,NA,NA,NA,daydream,NA,NA,NA,NA,NA,NA,NA,NA,NA,NA,NA,NA,NA,NA,NA,NA,NA,NA,NA,NA,NA,NA,NA,NA,NA,NA,NA,NA,NA,NA,NA,NA,NA,NA,NA,NA,NA,NA
SUPAMT62780,3QUO65DNQ0NF2AYIIPC957C579JUOV,6DB32A8F-6AC3-4138-9393-4527E61D9E94,2023-09-26_07h35.45.709,WP_VExplicitOC_LH,2022.2.5,Win32,13.10684702,100,4.6873,2.0915,NA,NA,NA,NA,NA,happy,"unhappy, happy","less happy, more happy",NA,NA,NA,NA,NA,NA,NA,NA,NA,NA,0,0,0,0,1,NA,NA,NA,NA,NA,NA,NA,NA,NA,NA,NA,NA,NA,NA,NA,NA,NA,NA,NA,NA,NA,NA,NA,NA,NA,NA,NA,NA,NA,NA,NA,NA,NA
SUPAMT62780,3QUO65DNQ0NF2AYIIPC957C579JUOV,6DB32A8F-6AC3-4138-9393-4527E61D9E94,2023-09-26_07h35.45.709,WP_VExplicitOC_LH,2022.2.5,Win32,13.10684702,100,4.7151,2.0004,NA,NA,NA,NA,NA,frustrated,"frustrated, not frustrated","more frustrated, less frustrated",NA,NA,NA,NA,NA,NA,NA,NA,NA,NA,0,1,1,1,1,NA,NA,NA,NA,NA,NA,NA,NA,NA,NA,NA,NA,NA,NA,NA,NA,NA,NA,NA,NA,NA,NA,NA,NA,NA,NA,NA,NA,NA,NA,NA,NA,NA
SUPAMT62780,3QUO65DNQ0NF2AYIIPC957C579JUOV,6DB32A8F-6AC3-4138-9393-4527E61D9E94,2023-09-26_07h35.45.709,WP_VExplicitOC_LH,2022.2.5,Win32,13.10684702,100,3.5417,2.0014,NA,NA,NA,NA,NA,bored,"bored, not bored","more bored, less bored",NA,NA,NA,NA,NA,NA,NA,NA,NA,NA,0,2,2,2,1,NA,NA,NA,NA,NA,NA,NA,NA,NA,NA,NA,NA,NA,NA,NA,NA,NA,NA,NA,NA,NA,NA,NA,NA,NA,NA,NA,NA,NA,NA,NA,NA,NA
SUPAMT62780,3QUO65DNQ0NF2AYIIPC957C579JUOV,6DB32A8F-6AC3-4138-9393-4527E61D9E94,2023-09-26_07h35.45.709,WP_VExplicitOC_LH,2022.2.5,Win32,13.10684702,NA,NA,NA,NA,NA,NA,NA,NA,NA,NA,NA,NA,NA,NA,NA,NA,NA,NA,NA,NA,NA,NA,NA,NA,NA,NA,NA,NA,NA,NA,NA,NA,NA,NA,NA,NA,NA,NA,NA,NA,NA,NA,NA,NA,NA,NA,NA,NA,NA,NA,NA,NA,NA,NA,NA,NA,NA,NA,NA
SUPAMT62780,3QUO65DNQ0NF2AYIIPC957C579JUOV,6DB32A8F-6AC3-4138-9393-4527E61D9E94,2023-09-26_07h35.45.709,WP_VExplicitOC_LH,2022.2.5,Win32,13.10684702,NA,NA,NA,NA,NA,NA,NA,NA,NA,NA,NA,NA,NA,NA,NA,NA,NA,NA,NA,NA,NA,NA,NA,NA,NA,NA,NA,NA,NA,NA,NA,NA,NA,NA,NA,NA,NA,NA,NA,NA,NA,NA,NA,NA,NA,NA,NA,NA,NA,NA,NA,NA,NA,NA,NA,NA,NA,NA,NA
SUPAMT62780,3QUO65DNQ0NF2AYIIPC957C579JUOV,6DB32A8F-6AC3-4138-9393-4527E61D9E94,2023-09-26_07h35.45.709,WP_VExplicitOC_LH,2022.2.5,Win32,13.10684702,100,4.4378,2.0398,NA,NA,NA,NA,NA,frustrated,"frustrated, not frustrated","more frustrated, less frustrated",NA,NA,NA,NA,NA,NA,NA,NA,NA,NA,NA,NA,NA,NA,NA,0,0,0,1,1,NA,NA,NA,NA,NA,NA,NA,NA,NA,NA,NA,NA,NA,NA,NA,NA,NA,NA,NA,NA,NA,NA,NA,NA,NA,NA,NA,NA
SUPAMT62780,3QUO65DNQ0NF2AYIIPC957C579JUOV,6DB32A8F-6AC3-4138-9393-4527E61D9E94,2023-09-26_07h35.45.709,WP_VExplicitOC_LH,2022.2.5,Win32,13.10684702,100,3.6346,2.0006,NA,NA,NA,NA,NA,bored,"bored, not bored","more bored, less bored",NA,NA,NA,NA,NA,NA,NA,NA,NA,NA,NA,NA,NA,NA,NA,0,1,1,2,1,NA,NA,NA,NA,NA,NA,NA,NA,NA,NA,NA,NA,NA,NA,NA,NA,NA,NA,NA,NA,NA,NA,NA,NA,NA,NA,NA,NA
SUPAMT62780,3QUO65DNQ0NF2AYIIPC957C579JUOV,6DB32A8F-6AC3-4138-9393-4527E61D9E94,2023-09-26_07h35.45.709,WP_VExplicitOC_LH,2022.2.5,Win32,13.10684702,100,3.7439,2.0009,NA,NA,NA,NA,NA,happy,"unhappy, happy","less happy, more happy",NA,NA,NA,NA,NA,NA,NA,NA,NA,NA,NA,NA,NA,NA,NA,0,2,2,0,1,NA,NA,NA,NA,NA,NA,NA,NA,NA,NA,NA,NA,NA,NA,NA,NA,NA,NA,NA,NA,NA,NA,NA,NA,NA,NA,NA,NA
SUPAMT62780,3QUO65DNQ0NF2AYIIPC957C579JUOV,6DB32A8F-6AC3-4138-9393-4527E61D9E94,2023-09-26_07h35.45.709,WP_VExplicitOC_LH,2022.2.5,Win32,13.10684702,NA,NA,NA,NA,NA,NA,NA,NA,NA,NA,NA,NA,NA,NA,NA,NA,NA,NA,NA,NA,NA,NA,NA,NA,NA,NA,NA,NA,NA,NA,NA,0,0,0,0,1,NA,NA,NA,NA,NA,NA,NA,NA,NA,NA,NA,NA,NA,NA,NA,NA,NA,NA,NA,NA,NA,NA,NA
SUPAMT62780,3QUO65DNQ0NF2AYIIPC957C579JUOV,6DB32A8F-6AC3-4138-9393-4527E61D9E94,2023-09-26_07h35.45.709,WP_VExplicitOC_LH,2022.2.5,Win32,13.10684702,100,3.8579,2.053,NA,NA,NA,NA,NA,happy,"unhappy, happy","less happy, more happy",NA,NA,NA,NA,NA,NA,NA,NA,NA,NA,NA,NA,NA,NA,NA,0,0,0,0,1,NA,NA,NA,NA,NA,NA,NA,NA,NA,NA,NA,NA,NA,NA,NA,NA,NA,NA,NA,NA,NA,NA,NA,NA,NA,NA,NA,NA
SUPAMT62780,3QUO65DNQ0NF2AYIIPC957C579JUOV,6DB32A8F-6AC3-4138-9393-4527E61D9E94,2023-09-26_07h35.45.709,WP_VExplicitOC_LH,2022.2.5,Win32,13.10684702,100,3.8339,2.0773,NA,NA,NA,NA,NA,frustrated,"frustrated, not frustrated","more frustrated, less frustrated",NA,NA,NA,NA,NA,NA,NA,NA,NA,NA,NA,NA,NA,NA,NA,0,1,1,1,1,NA,NA,NA,NA,NA,NA,NA,NA,NA,NA,NA,NA,NA,NA,NA,NA,NA,NA,NA,NA,NA,NA,NA,NA,NA,NA,NA,NA
SUPAMT62780,3QUO65DNQ0NF2AYIIPC957C579JUOV,6DB32A8F-6AC3-4138-9393-4527E61D9E94,2023-09-26_07h35.45.709,WP_VExplicitOC_LH,2022.2.5,Win32,13.10684702,100,3.8452,2.0189,NA,NA,NA,NA,NA,bored,"bored, not bored","more bored, less bored",NA,NA,NA,NA,NA,NA,NA,NA,NA,NA,NA,NA,NA,NA,NA,0,2,2,2,1,NA,NA,NA,NA,NA,NA,NA,NA,NA,NA,NA,NA,NA,NA,NA,NA,NA,NA,NA,NA,NA,NA,NA,NA,NA,NA,NA,NA
SUPAMT62780,3QUO65DNQ0NF2AYIIPC957C579JUOV,6DB32A8F-6AC3-4138-9393-4527E61D9E94,2023-09-26_07h35.45.709,WP_VExplicitOC_LH,2022.2.5,Win32,13.10684702,NA,NA,NA,NA,NA,NA,NA,NA,NA,NA,NA,NA,NA,NA,NA,NA,NA,NA,NA,NA,NA,NA,NA,NA,NA,NA,NA,NA,NA,NA,NA,1,0,1,0,1,NA,NA,NA,NA,NA,NA,NA,NA,NA,NA,NA,NA,NA,NA,NA,NA,NA,NA,NA,NA,NA,NA,NA
SUPAMT62780,3QUO65DNQ0NF2AYIIPC957C579JUOV,6DB32A8F-6AC3-4138-9393-4527E61D9E94,2023-09-26_07h35.45.709,WP_VExplicitOC_LH,2022.2.5,Win32,13.10684702,100,3.7692,2.0056,NA,NA,NA,NA,NA,happy,"unhappy, happy","less happy, more happy",NA,NA,NA,NA,NA,NA,NA,NA,NA,NA,NA,NA,NA,NA,NA,0,0,0,0,1,NA,NA,NA,NA,NA,NA,NA,NA,NA,NA,NA,NA,NA,NA,NA,NA,NA,NA,NA,NA,NA,NA,NA,NA,NA,NA,NA,NA
SUPAMT62780,3QUO65DNQ0NF2AYIIPC957C579JUOV,6DB32A8F-6AC3-4138-9393-4527E61D9E94,2023-09-26_07h35.45.709,WP_VExplicitOC_LH,2022.2.5,Win32,13.10684702,NA,NA,2.0697,NA,NA,NA,NA,NA,bored,"bored, not bored","more bored, less bored",NA,NA,NA,NA,NA,NA,NA,NA,NA,NA,NA,NA,NA,NA,NA,0,1,1,2,1,NA,NA,NA,NA,NA,NA,NA,NA,NA,NA,NA,NA,NA,NA,NA,NA,NA,NA,NA,NA,NA,NA,NA,NA,NA,NA,NA,NA
SUPAMT62780,3QUO65DNQ0NF2AYIIPC957C579JUOV,6DB32A8F-6AC3-4138-9393-4527E61D9E94,2023-09-26_07h35.45.709,WP_VExplicitOC_LH,2022.2.5,Win32,13.10684702,100,4.0804,2.064,NA,NA,NA,NA,NA,frustrated,"frustrated, not frustrated","more frustrated, less frustrated",NA,NA,NA,NA,NA,NA,NA,NA,NA,NA,NA,NA,NA,NA,NA,0,2,2,1,1,NA,NA,NA,NA,NA,NA,NA,NA,NA,NA,NA,NA,NA,NA,NA,NA,NA,NA,NA,NA,NA,NA,NA,NA,NA,NA,NA,NA
SUPAMT62780,3QUO65DNQ0NF2AYIIPC957C579JUOV,6DB32A8F-6AC3-4138-9393-4527E61D9E94,2023-09-26_07h35.45.709,WP_VExplicitOC_LH,2022.2.5,Win32,13.10684702,NA,NA,NA,NA,NA,NA,NA,NA,NA,NA,NA,NA,NA,NA,NA,NA,NA,NA,NA,NA,NA,NA,NA,NA,NA,NA,NA,NA,NA,NA,NA,2,0,2,0,1,NA,NA,NA,NA,NA,NA,NA,NA,NA,NA,NA,NA,NA,NA,NA,NA,NA,NA,NA,NA,NA,NA,NA
SUPAMT62780,3QUO65DNQ0NF2AYIIPC957C579JUOV,6DB32A8F-6AC3-4138-9393-4527E61D9E94,2023-09-26_07h35.45.709,WP_VExplicitOC_LH,2022.2.5,Win32,13.10684702,100,3.7224,2.0289,NA,NA,NA,NA,NA,happy,"unhappy, happy","less happy, more happy",NA,NA,NA,NA,NA,NA,NA,NA,NA,NA,NA,NA,NA,NA,NA,0,0,0,0,1,NA,NA,NA,NA,NA,NA,NA,NA,NA,NA,NA,NA,NA,NA,NA,NA,NA,NA,NA,NA,NA,NA,NA,NA,NA,NA,NA,NA
SUPAMT62780,3QUO65DNQ0NF2AYIIPC957C579JUOV,6DB32A8F-6AC3-4138-9393-4527E61D9E94,2023-09-26_07h35.45.709,WP_VExplicitOC_LH,2022.2.5,Win32,13.10684702,13.28125,3.145,2.0932,NA,NA,NA,NA,NA,bored,"bored, not bored","more bored, less bored",NA,NA,NA,NA,NA,NA,NA,NA,NA,NA,NA,NA,NA,NA,NA,0,1,1,2,1,NA,NA,NA,NA,NA,NA,NA,NA,NA,NA,NA,NA,NA,NA,NA,NA,NA,NA,NA,NA,NA,NA,NA,NA,NA,NA,NA,NA
SUPAMT62780,3QUO65DNQ0NF2AYIIPC957C579JUOV,6DB32A8F-6AC3-4138-9393-4527E61D9E94,2023-09-26_07h35.45.709,WP_VExplicitOC_LH,2022.2.5,Win32,13.10684702,100,3.5903,2.0757,NA,NA,NA,NA,NA,frustrated,"frustrated, not frustrated","more frustrated, less frustrated",NA,NA,NA,NA,NA,NA,NA,NA,NA,NA,NA,NA,NA,NA,NA,0,2,2,1,1,NA,NA,NA,NA,NA,NA,NA,NA,NA,NA,NA,NA,NA,NA,NA,NA,NA,NA,NA,NA,NA,NA,NA,NA,NA,NA,NA,NA
SUPAMT62780,3QUO65DNQ0NF2AYIIPC957C579JUOV,6DB32A8F-6AC3-4138-9393-4527E61D9E94,2023-09-26_07h35.45.709,WP_VExplicitOC_LH,2022.2.5,Win32,13.10684702,NA,NA,NA,NA,NA,NA,NA,NA,NA,NA,NA,NA,NA,NA,NA,NA,NA,NA,NA,NA,NA,NA,NA,NA,NA,NA,NA,NA,NA,NA,NA,3,0,3,0,1,NA,NA,NA,NA,NA,NA,NA,NA,NA,NA,NA,NA,NA,NA,NA,NA,NA,NA,NA,NA,NA,NA,NA
SUPAMT62780,3QUO65DNQ0NF2AYIIPC957C579JUOV,6DB32A8F-6AC3-4138-9393-4527E61D9E94,2023-09-26_07h35.45.709,WP_VExplicitOC_LH,2022.2.5,Win32,13.10684702,98.4375,4.5816,2.0249,NA,NA,NA,NA,NA,frustrated,"frustrated, not frustrated","more frustrated, less frustrated",NA,NA,NA,NA,NA,NA,NA,NA,NA,NA,NA,NA,NA,NA,NA,0,0,0,1,1,NA,NA,NA,NA,NA,NA,NA,NA,NA,NA,NA,NA,NA,NA,NA,NA,NA,NA,NA,NA,NA,NA,NA,NA,NA,NA,NA,NA
SUPAMT62780,3QUO65DNQ0NF2AYIIPC957C579JUOV,6DB32A8F-6AC3-4138-9393-4527E61D9E94,2023-09-26_07h35.45.709,WP_VExplicitOC_LH,2022.2.5,Win32,13.10684702,100,4.024,2.0297,NA,NA,NA,NA,NA,happy,"unhappy, happy","less happy, more happy",NA,NA,NA,NA,NA,NA,NA,NA,NA,NA,NA,NA,NA,NA,NA,0,1,1,0,1,NA,NA,NA,NA,NA,NA,NA,NA,NA,NA,NA,NA,NA,NA,NA,NA,NA,NA,NA,NA,NA,NA,NA,NA,NA,NA,NA,NA
SUPAMT62780,3QUO65DNQ0NF2AYIIPC957C579JUOV,6DB32A8F-6AC3-4138-9393-4527E61D9E94,2023-09-26_07h35.45.709,WP_VExplicitOC_LH,2022.2.5,Win32,13.10684702,100,3.8793,2.014,NA,NA,NA,NA,NA,bored,"bored, not bored","more bored, less bored",NA,NA,NA,NA,NA,NA,NA,NA,NA,NA,NA,NA,NA,NA,NA,0,2,2,2,1,NA,NA,NA,NA,NA,NA,NA,NA,NA,NA,NA,NA,NA,NA,NA,NA,NA,NA,NA,NA,NA,NA,NA,NA,NA,NA,NA,NA
SUPAMT62780,3QUO65DNQ0NF2AYIIPC957C579JUOV,6DB32A8F-6AC3-4138-9393-4527E61D9E94,2023-09-26_07h35.45.709,WP_VExplicitOC_LH,2022.2.5,Win32,13.10684702,NA,NA,NA,NA,NA,NA,NA,NA,NA,NA,NA,NA,NA,NA,NA,NA,NA,NA,NA,NA,NA,NA,NA,NA,NA,NA,NA,NA,NA,NA,NA,4,0,4,0,1,NA,NA,NA,NA,NA,NA,NA,NA,NA,NA,NA,NA,NA,NA,NA,NA,NA,NA,NA,NA,NA,NA,NA
SUPAMT62780,3QUO65DNQ0NF2AYIIPC957C579JUOV,6DB32A8F-6AC3-4138-9393-4527E61D9E94,2023-09-26_07h35.45.709,WP_VExplicitOC_LH,2022.2.5,Win32,13.10684702,100,4.0107,2.0353,NA,NA,NA,NA,NA,happy,"unhappy, happy","less happy, more happy",NA,NA,NA,NA,NA,NA,NA,NA,NA,NA,NA,NA,NA,NA,NA,0,0,0,0,1,NA,NA,NA,NA,NA,NA,NA,NA,NA,NA,NA,NA,NA,NA,NA,NA,NA,NA,NA,NA,NA,NA,NA,NA,NA,NA,NA,NA
SUPAMT62780,3QUO65DNQ0NF2AYIIPC957C579JUOV,6DB32A8F-6AC3-4138-9393-4527E61D9E94,2023-09-26_07h35.45.709,WP_VExplicitOC_LH,2022.2.5,Win32,13.10684702,100,3.8683,2.01,NA,NA,NA,NA,NA,bored,"bored, not bored","more bored, less bored",NA,NA,NA,NA,NA,NA,NA,NA,NA,NA,NA,NA,NA,NA,NA,0,1,1,2,1,NA,NA,NA,NA,NA,NA,NA,NA,NA,NA,NA,NA,NA,NA,NA,NA,NA,NA,NA,NA,NA,NA,NA,NA,NA,NA,NA,NA
SUPAMT62780,3QUO65DNQ0NF2AYIIPC957C579JUOV,6DB32A8F-6AC3-4138-9393-4527E61D9E94,2023-09-26_07h35.45.709,WP_VExplicitOC_LH,2022.2.5,Win32,13.10684702,100,4.1442,2.0601,NA,NA,NA,NA,NA,frustrated,"frustrated, not frustrated","more frustrated, less frustrated",NA,NA,NA,NA,NA,NA,NA,NA,NA,NA,NA,NA,NA,NA,NA,0,2,2,1,1,NA,NA,NA,NA,NA,NA,NA,NA,NA,NA,NA,NA,NA,NA,NA,NA,NA,NA,NA,NA,NA,NA,NA,NA,NA,NA,NA,NA
SUPAMT62780,3QUO65DNQ0NF2AYIIPC957C579JUOV,6DB32A8F-6AC3-4138-9393-4527E61D9E94,2023-09-26_07h35.45.709,WP_VExplicitOC_LH,2022.2.5,Win32,13.10684702,NA,NA,NA,NA,NA,NA,NA,NA,NA,NA,NA,NA,NA,NA,NA,NA,NA,NA,NA,NA,NA,NA,NA,NA,NA,NA,NA,NA,NA,NA,NA,5,0,5,0,1,NA,NA,NA,NA,NA,NA,NA,NA,NA,NA,NA,NA,NA,NA,NA,NA,NA,NA,NA,NA,NA,NA,NA
SUPAMT62780,3QUO65DNQ0NF2AYIIPC957C579JUOV,6DB32A8F-6AC3-4138-9393-4527E61D9E94,2023-09-26_07h35.45.709,WP_VExplicitOC_LH,2022.2.5,Win32,13.10684702,100,4.2871,2.0238,NA,NA,NA,NA,NA,happy,"unhappy, happy","less happy, more happy",NA,NA,NA,NA,NA,NA,NA,NA,NA,NA,NA,NA,NA,NA,NA,0,0,0,0,1,NA,NA,NA,NA,NA,NA,NA,NA,NA,NA,NA,NA,NA,NA,NA,NA,NA,NA,NA,NA,NA,NA,NA,NA,NA,NA,NA,NA
SUPAMT62780,3QUO65DNQ0NF2AYIIPC957C579JUOV,6DB32A8F-6AC3-4138-9393-4527E61D9E94,2023-09-26_07h35.45.709,WP_VExplicitOC_LH,2022.2.5,Win32,13.10684702,100,3.8754,2.0138,NA,NA,NA,NA,NA,frustrated,"frustrated, not frustrated","more frustrated, less frustrated",NA,NA,NA,NA,NA,NA,NA,NA,NA,NA,NA,NA,NA,NA,NA,0,1,1,1,1,NA,NA,NA,NA,NA,NA,NA,NA,NA,NA,NA,NA,NA,NA,NA,NA,NA,NA,NA,NA,NA,NA,NA,NA,NA,NA,NA,NA
SUPAMT62780,3QUO65DNQ0NF2AYIIPC957C579JUOV,6DB32A8F-6AC3-4138-9393-4527E61D9E94,2023-09-26_07h35.45.709,WP_VExplicitOC_LH,2022.2.5,Win32,13.10684702,98.69791667,3.6939,2.0654,NA,NA,NA,NA,NA,bored,"bored, not bored","more bored, less bored",NA,NA,NA,NA,NA,NA,NA,NA,NA,NA,NA,NA,NA,NA,NA,0,2,2,2,1,NA,NA,NA,NA,NA,NA,NA,NA,NA,NA,NA,NA,NA,NA,NA,NA,NA,NA,NA,NA,NA,NA,NA,NA,NA,NA,NA,NA
SUPAMT62780,3QUO65DNQ0NF2AYIIPC957C579JUOV,6DB32A8F-6AC3-4138-9393-4527E61D9E94,2023-09-26_07h35.45.709,WP_VExplicitOC_LH,2022.2.5,Win32,13.10684702,NA,NA,NA,NA,NA,NA,NA,NA,NA,NA,NA,NA,NA,NA,NA,NA,NA,NA,NA,NA,NA,NA,NA,NA,NA,NA,NA,NA,NA,NA,NA,6,0,6,0,1,NA,NA,NA,NA,NA,NA,NA,NA,NA,NA,NA,NA,NA,NA,NA,NA,NA,NA,NA,NA,NA,NA,NA
SUPAMT62780,3QUO65DNQ0NF2AYIIPC957C579JUOV,6DB32A8F-6AC3-4138-9393-4527E61D9E94,2023-09-26_07h35.45.709,WP_VExplicitOC_LH,2022.2.5,Win32,13.10684702,100,3.6999,2.0214,NA,NA,NA,NA,NA,frustrated,"frustrated, not frustrated","more frustrated, less frustrated",NA,NA,NA,NA,NA,NA,NA,NA,NA,NA,NA,NA,NA,NA,NA,0,0,0,1,1,NA,NA,NA,NA,NA,NA,NA,NA,NA,NA,NA,NA,NA,NA,NA,NA,NA,NA,NA,NA,NA,NA,NA,NA,NA,NA,NA,NA
SUPAMT62780,3QUO65DNQ0NF2AYIIPC957C579JUOV,6DB32A8F-6AC3-4138-9393-4527E61D9E94,2023-09-26_07h35.45.709,WP_VExplicitOC_LH,2022.2.5,Win32,13.10684702,98.17708333,4.0314,2.067,NA,NA,NA,NA,NA,bored,"bored, not bored","more bored, less bored",NA,NA,NA,NA,NA,NA,NA,NA,NA,NA,NA,NA,NA,NA,NA,0,1,1,2,1,NA,NA,NA,NA,NA,NA,NA,NA,NA,NA,NA,NA,NA,NA,NA,NA,NA,NA,NA,NA,NA,NA,NA,NA,NA,NA,NA,NA
SUPAMT62780,3QUO65DNQ0NF2AYIIPC957C579JUOV,6DB32A8F-6AC3-4138-9393-4527E61D9E94,2023-09-26_07h35.45.709,WP_VExplicitOC_LH,2022.2.5,Win32,13.10684702,81.77083333,3.3463,2.0927,NA,NA,NA,NA,NA,happy,"unhappy, happy","less happy, more happy",NA,NA,NA,NA,NA,NA,NA,NA,NA,NA,NA,NA,NA,NA,NA,0,2,2,0,1,NA,NA,NA,NA,NA,NA,NA,NA,NA,NA,NA,NA,NA,NA,NA,NA,NA,NA,NA,NA,NA,NA,NA,NA,NA,NA,NA,NA
SUPAMT62780,3QUO65DNQ0NF2AYIIPC957C579JUOV,6DB32A8F-6AC3-4138-9393-4527E61D9E94,2023-09-26_07h35.45.709,WP_VExplicitOC_LH,2022.2.5,Win32,13.10684702,NA,NA,NA,NA,NA,NA,NA,NA,NA,NA,NA,NA,NA,NA,NA,NA,NA,NA,NA,NA,NA,NA,NA,NA,NA,NA,NA,NA,NA,NA,NA,7,0,7,0,1,NA,NA,NA,NA,NA,NA,NA,NA,NA,NA,NA,NA,NA,NA,NA,NA,NA,NA,NA,NA,NA,NA,NA
SUPAMT62780,3QUO65DNQ0NF2AYIIPC957C579JUOV,6DB32A8F-6AC3-4138-9393-4527E61D9E94,2023-09-26_07h35.45.709,WP_VExplicitOC_LH,2022.2.5,Win32,13.10684702,100,3.6239,2.0193,NA,NA,NA,NA,NA,happy,"unhappy, happy","less happy, more happy",NA,NA,NA,NA,NA,NA,NA,NA,NA,NA,NA,NA,NA,NA,NA,0,0,0,0,1,NA,NA,NA,NA,NA,NA,NA,NA,NA,NA,NA,NA,NA,NA,NA,NA,NA,NA,NA,NA,NA,NA,NA,NA,NA,NA,NA,NA
SUPAMT62780,3QUO65DNQ0NF2AYIIPC957C579JUOV,6DB32A8F-6AC3-4138-9393-4527E61D9E94,2023-09-26_07h35.45.709,WP_VExplicitOC_LH,2022.2.5,Win32,13.10684702,100,3.8841,2.0734,NA,NA,NA,NA,NA,frustrated,"frustrated, not frustrated","more frustrated, less frustrated",NA,NA,NA,NA,NA,NA,NA,NA,NA,NA,NA,NA,NA,NA,NA,0,1,1,1,1,NA,NA,NA,NA,NA,NA,NA,NA,NA,NA,NA,NA,NA,NA,NA,NA,NA,NA,NA,NA,NA,NA,NA,NA,NA,NA,NA,NA
SUPAMT62780,3QUO65DNQ0NF2AYIIPC957C579JUOV,6DB32A8F-6AC3-4138-9393-4527E61D9E94,2023-09-26_07h35.45.709,WP_VExplicitOC_LH,2022.2.5,Win32,13.10684702,100,3.9391,2.0628,NA,NA,NA,NA,NA,bored,"bored, not bored","more bored, less bored",NA,NA,NA,NA,NA,NA,NA,NA,NA,NA,NA,NA,NA,NA,NA,0,2,2,2,1,NA,NA,NA,NA,NA,NA,NA,NA,NA,NA,NA,NA,NA,NA,NA,NA,NA,NA,NA,NA,NA,NA,NA,NA,NA,NA,NA,NA
SUPAMT62780,3QUO65DNQ0NF2AYIIPC957C579JUOV,6DB32A8F-6AC3-4138-9393-4527E61D9E94,2023-09-26_07h35.45.709,WP_VExplicitOC_LH,2022.2.5,Win32,13.10684702,NA,NA,NA,NA,NA,NA,NA,NA,NA,NA,NA,NA,NA,NA,NA,NA,NA,NA,NA,NA,NA,NA,NA,NA,NA,NA,NA,NA,NA,NA,NA,8,0,8,0,1,NA,NA,NA,NA,NA,NA,NA,NA,NA,NA,NA,NA,NA,NA,NA,NA,NA,NA,NA,NA,NA,NA,NA
SUPAMT62780,3QUO65DNQ0NF2AYIIPC957C579JUOV,6DB32A8F-6AC3-4138-9393-4527E61D9E94,2023-09-26_07h35.45.709,WP_VExplicitOC_LH,2022.2.5,Win32,13.10684702,95.83333333,3.8214,2.0644,NA,NA,NA,NA,NA,bored,"bored, not bored","more bored, less bored",NA,NA,NA,NA,NA,NA,NA,NA,NA,NA,NA,NA,NA,NA,NA,0,0,0,2,1,NA,NA,NA,NA,NA,NA,NA,NA,NA,NA,NA,NA,NA,NA,NA,NA,NA,NA,NA,NA,NA,NA,NA,NA,NA,NA,NA,NA
SUPAMT62780,3QUO65DNQ0NF2AYIIPC957C579JUOV,6DB32A8F-6AC3-4138-9393-4527E61D9E94,2023-09-26_07h35.45.709,WP_VExplicitOC_LH,2022.2.5,Win32,13.10684702,94.79166667,3.3802,2.0245,NA,NA,NA,NA,NA,happy,"unhappy, happy","less happy, more happy",NA,NA,NA,NA,NA,NA,NA,NA,NA,NA,NA,NA,NA,NA,NA,0,1,1,0,1,NA,NA,NA,NA,NA,NA,NA,NA,NA,NA,NA,NA,NA,NA,NA,NA,NA,NA,NA,NA,NA,NA,NA,NA,NA,NA,NA,NA
SUPAMT62780,3QUO65DNQ0NF2AYIIPC957C579JUOV,6DB32A8F-6AC3-4138-9393-4527E61D9E94,2023-09-26_07h35.45.709,WP_VExplicitOC_LH,2022.2.5,Win32,13.10684702,95.57291667,3.4863,2.0774,NA,NA,NA,NA,NA,frustrated,"frustrated, not frustrated","more frustrated, less frustrated",NA,NA,NA,NA,NA,NA,NA,NA,NA,NA,NA,NA,NA,NA,NA,0,2,2,1,1,NA,NA,NA,NA,NA,NA,NA,NA,NA,NA,NA,NA,NA,NA,NA,NA,NA,NA,NA,NA,NA,NA,NA,NA,NA,NA,NA,NA
SUPAMT62780,3QUO65DNQ0NF2AYIIPC957C579JUOV,6DB32A8F-6AC3-4138-9393-4527E61D9E94,2023-09-26_07h35.45.709,WP_VExplicitOC_LH,2022.2.5,Win32,13.10684702,NA,NA,NA,NA,NA,NA,NA,NA,NA,NA,NA,NA,NA,NA,NA,NA,NA,NA,NA,NA,NA,NA,NA,NA,NA,NA,NA,NA,NA,NA,NA,9,0,9,0,1,NA,NA,NA,NA,NA,NA,NA,NA,NA,NA,NA,NA,NA,NA,NA,NA,NA,NA,NA,NA,NA,NA,NA
SUPAMT62780,3QUO65DNQ0NF2AYIIPC957C579JUOV,6DB32A8F-6AC3-4138-9393-4527E61D9E94,2023-09-26_07h35.45.709,WP_VExplicitOC_LH,2022.2.5,Win32,13.10684702,100,3.3847,2.0237,NA,NA,NA,NA,NA,bored,"bored, not bored","more bored, less bored",NA,NA,NA,NA,NA,NA,NA,NA,NA,NA,NA,NA,NA,NA,NA,0,0,0,2,1,NA,NA,NA,NA,NA,NA,NA,NA,NA,NA,NA,NA,NA,NA,NA,NA,NA,NA,NA,NA,NA,NA,NA,NA,NA,NA,NA,NA
SUPAMT62780,3QUO65DNQ0NF2AYIIPC957C579JUOV,6DB32A8F-6AC3-4138-9393-4527E61D9E94,2023-09-26_07h35.45.709,WP_VExplicitOC_LH,2022.2.5,Win32,13.10684702,100,3.5513,2.0873,NA,NA,NA,NA,NA,frustrated,"frustrated, not frustrated","more frustrated, less frustrated",NA,NA,NA,NA,NA,NA,NA,NA,NA,NA,NA,NA,NA,NA,NA,0,1,1,1,1,NA,NA,NA,NA,NA,NA,NA,NA,NA,NA,NA,NA,NA,NA,NA,NA,NA,NA,NA,NA,NA,NA,NA,NA,NA,NA,NA,NA
SUPAMT62780,3QUO65DNQ0NF2AYIIPC957C579JUOV,6DB32A8F-6AC3-4138-9393-4527E61D9E94,2023-09-26_07h35.45.709,WP_VExplicitOC_LH,2022.2.5,Win32,13.10684702,100,3.829,2.0763,NA,NA,NA,NA,NA,happy,"unhappy, happy","less happy, more happy",NA,NA,NA,NA,NA,NA,NA,NA,NA,NA,NA,NA,NA,NA,NA,0,2,2,0,1,NA,NA,NA,NA,NA,NA,NA,NA,NA,NA,NA,NA,NA,NA,NA,NA,NA,NA,NA,NA,NA,NA,NA,NA,NA,NA,NA,NA
SUPAMT62780,3QUO65DNQ0NF2AYIIPC957C579JUOV,6DB32A8F-6AC3-4138-9393-4527E61D9E94,2023-09-26_07h35.45.709,WP_VExplicitOC_LH,2022.2.5,Win32,13.10684702,NA,NA,NA,NA,NA,NA,NA,NA,NA,NA,NA,NA,NA,NA,NA,NA,NA,NA,NA,NA,NA,NA,NA,NA,NA,NA,NA,NA,NA,NA,NA,10,0,10,0,1,NA,NA,NA,NA,NA,NA,NA,NA,NA,NA,NA,NA,NA,NA,NA,NA,NA,NA,NA,NA,NA,NA,NA
SUPAMT62780,3QUO65DNQ0NF2AYIIPC957C579JUOV,6DB32A8F-6AC3-4138-9393-4527E61D9E94,2023-09-26_07h35.45.709,WP_VExplicitOC_LH,2022.2.5,Win32,13.10684702,100,4.5257,2.0412,NA,NA,NA,NA,NA,frustrated,"frustrated, not frustrated","more frustrated, less frustrated",NA,NA,NA,NA,NA,NA,NA,NA,NA,NA,NA,NA,NA,NA,NA,0,0,0,1,1,NA,NA,NA,NA,NA,NA,NA,NA,NA,NA,NA,NA,NA,NA,NA,NA,NA,NA,NA,NA,NA,NA,NA,NA,NA,NA,NA,NA
SUPAMT62780,3QUO65DNQ0NF2AYIIPC957C579JUOV,6DB32A8F-6AC3-4138-9393-4527E61D9E94,2023-09-26_07h35.45.709,WP_VExplicitOC_LH,2022.2.5,Win32,13.10684702,100,3.619,2.0829,NA,NA,NA,NA,NA,happy,"unhappy, happy","less happy, more happy",NA,NA,NA,NA,NA,NA,NA,NA,NA,NA,NA,NA,NA,NA,NA,0,1,1,0,1,NA,NA,NA,NA,NA,NA,NA,NA,NA,NA,NA,NA,NA,NA,NA,NA,NA,NA,NA,NA,NA,NA,NA,NA,NA,NA,NA,NA
SUPAMT62780,3QUO65DNQ0NF2AYIIPC957C579JUOV,6DB32A8F-6AC3-4138-9393-4527E61D9E94,2023-09-26_07h35.45.709,WP_VExplicitOC_LH,2022.2.5,Win32,13.10684702,95.05208333,3.5202,2.0635,NA,NA,NA,NA,NA,bored,"bored, not bored","more bored, less bored",NA,NA,NA,NA,NA,NA,NA,NA,NA,NA,NA,NA,NA,NA,NA,0,2,2,2,1,NA,NA,NA,NA,NA,NA,NA,NA,NA,NA,NA,NA,NA,NA,NA,NA,NA,NA,NA,NA,NA,NA,NA,NA,NA,NA,NA,NA
SUPAMT62780,3QUO65DNQ0NF2AYIIPC957C579JUOV,6DB32A8F-6AC3-4138-9393-4527E61D9E94,2023-09-26_07h35.45.709,WP_VExplicitOC_LH,2022.2.5,Win32,13.10684702,NA,NA,NA,NA,NA,NA,NA,NA,NA,NA,NA,NA,NA,NA,NA,NA,NA,NA,NA,NA,NA,NA,NA,NA,NA,NA,NA,NA,NA,NA,NA,11,0,11,0,1,NA,NA,NA,NA,NA,NA,NA,NA,NA,NA,NA,NA,NA,NA,NA,NA,NA,NA,NA,NA,NA,NA,NA
SUPAMT62780,3QUO65DNQ0NF2AYIIPC957C579JUOV,6DB32A8F-6AC3-4138-9393-4527E61D9E94,2023-09-26_07h35.45.709,WP_VExplicitOC_LH,2022.2.5,Win32,13.10684702,NA,NA,2.0778,NA,NA,NA,NA,NA,bored,"bored, not bored","more bored, less bored",NA,NA,NA,NA,NA,NA,NA,NA,NA,NA,NA,NA,NA,NA,NA,0,0,0,2,1,NA,NA,NA,NA,NA,NA,NA,NA,NA,NA,NA,NA,NA,NA,NA,NA,NA,NA,NA,NA,NA,NA,NA,NA,NA,NA,NA,NA
SUPAMT62780,3QUO65DNQ0NF2AYIIPC957C579JUOV,6DB32A8F-6AC3-4138-9393-4527E61D9E94,2023-09-26_07h35.45.709,WP_VExplicitOC_LH,2022.2.5,Win32,13.10684702,100,3.9695,2.0645,NA,NA,NA,NA,NA,happy,"unhappy, happy","less happy, more happy",NA,NA,NA,NA,NA,NA,NA,NA,NA,NA,NA,NA,NA,NA,NA,0,1,1,0,1,NA,NA,NA,NA,NA,NA,NA,NA,NA,NA,NA,NA,NA,NA,NA,NA,NA,NA,NA,NA,NA,NA,NA,NA,NA,NA,NA,NA
SUPAMT62780,3QUO65DNQ0NF2AYIIPC957C579JUOV,6DB32A8F-6AC3-4138-9393-4527E61D9E94,2023-09-26_07h35.45.709,WP_VExplicitOC_LH,2022.2.5,Win32,13.10684702,100,3.5979,2.0665,NA,NA,NA,NA,NA,frustrated,"frustrated, not frustrated","more frustrated, less frustrated",NA,NA,NA,NA,NA,NA,NA,NA,NA,NA,NA,NA,NA,NA,NA,0,2,2,1,1,NA,NA,NA,NA,NA,NA,NA,NA,NA,NA,NA,NA,NA,NA,NA,NA,NA,NA,NA,NA,NA,NA,NA,NA,NA,NA,NA,NA
SUPAMT62780,3QUO65DNQ0NF2AYIIPC957C579JUOV,6DB32A8F-6AC3-4138-9393-4527E61D9E94,2023-09-26_07h35.45.709,WP_VExplicitOC_LH,2022.2.5,Win32,13.10684702,NA,NA,NA,NA,NA,NA,NA,NA,NA,NA,NA,NA,NA,NA,NA,NA,NA,NA,NA,NA,NA,NA,NA,NA,NA,NA,NA,NA,NA,NA,NA,12,0,12,0,1,NA,NA,NA,NA,NA,NA,NA,NA,NA,NA,NA,NA,NA,NA,NA,NA,NA,NA,NA,NA,NA,NA,NA
SUPAMT62780,3QUO65DNQ0NF2AYIIPC957C579JUOV,6DB32A8F-6AC3-4138-9393-4527E61D9E94,2023-09-26_07h35.45.709,WP_VExplicitOC_LH,2022.2.5,Win32,13.10684702,100,3.6579,2.0159,NA,NA,NA,NA,NA,frustrated,"frustrated, not frustrated","more frustrated, less frustrated",NA,NA,NA,NA,NA,NA,NA,NA,NA,NA,NA,NA,NA,NA,NA,0,0,0,1,1,NA,NA,NA,NA,NA,NA,NA,NA,NA,NA,NA,NA,NA,NA,NA,NA,NA,NA,NA,NA,NA,NA,NA,NA,NA,NA,NA,NA
SUPAMT62780,3QUO65DNQ0NF2AYIIPC957C579JUOV,6DB32A8F-6AC3-4138-9393-4527E61D9E94,2023-09-26_07h35.45.709,WP_VExplicitOC_LH,2022.2.5,Win32,13.10684702,100,4.3128,2.0638,NA,NA,NA,NA,NA,bored,"bored, not bored","more bored, less bored",NA,NA,NA,NA,NA,NA,NA,NA,NA,NA,NA,NA,NA,NA,NA,0,1,1,2,1,NA,NA,NA,NA,NA,NA,NA,NA,NA,NA,NA,NA,NA,NA,NA,NA,NA,NA,NA,NA,NA,NA,NA,NA,NA,NA,NA,NA
SUPAMT62780,3QUO65DNQ0NF2AYIIPC957C579JUOV,6DB32A8F-6AC3-4138-9393-4527E61D9E94,2023-09-26_07h35.45.709,WP_VExplicitOC_LH,2022.2.5,Win32,13.10684702,100,6.0682,2.0241,NA,NA,NA,NA,NA,happy,"unhappy, happy","less happy, more happy",NA,NA,NA,NA,NA,NA,NA,NA,NA,NA,NA,NA,NA,NA,NA,0,2,2,0,1,NA,NA,NA,NA,NA,NA,NA,NA,NA,NA,NA,NA,NA,NA,NA,NA,NA,NA,NA,NA,NA,NA,NA,NA,NA,NA,NA,NA
SUPAMT62780,3QUO65DNQ0NF2AYIIPC957C579JUOV,6DB32A8F-6AC3-4138-9393-4527E61D9E94,2023-09-26_07h35.45.709,WP_VExplicitOC_LH,2022.2.5,Win32,13.10684702,NA,NA,NA,NA,NA,NA,NA,NA,NA,NA,NA,NA,NA,NA,NA,NA,NA,NA,NA,NA,NA,NA,NA,NA,NA,NA,NA,NA,NA,NA,NA,13,0,13,0,1,NA,NA,NA,NA,NA,NA,NA,NA,NA,NA,NA,NA,NA,NA,NA,NA,NA,NA,NA,NA,NA,NA,NA
SUPAMT62780,3QUO65DNQ0NF2AYIIPC957C579JUOV,6DB32A8F-6AC3-4138-9393-4527E61D9E94,2023-09-26_07h35.45.709,WP_VExplicitOC_LH,2022.2.5,Win32,13.10684702,88.54166667,3.7062,2.0188,NA,NA,NA,NA,NA,happy,"unhappy, happy","less happy, more happy",NA,NA,NA,NA,NA,NA,NA,NA,NA,NA,NA,NA,NA,NA,NA,0,0,0,0,1,NA,NA,NA,NA,NA,NA,NA,NA,NA,NA,NA,NA,NA,NA,NA,NA,NA,NA,NA,NA,NA,NA,NA,NA,NA,NA,NA,NA
SUPAMT62780,3QUO65DNQ0NF2AYIIPC957C579JUOV,6DB32A8F-6AC3-4138-9393-4527E61D9E94,2023-09-26_07h35.45.709,WP_VExplicitOC_LH,2022.2.5,Win32,13.10684702,100,3.3758,2.0778,NA,NA,NA,NA,NA,frustrated,"frustrated, not frustrated","more frustrated, less frustrated",NA,NA,NA,NA,NA,NA,NA,NA,NA,NA,NA,NA,NA,NA,NA,0,1,1,1,1,NA,NA,NA,NA,NA,NA,NA,NA,NA,NA,NA,NA,NA,NA,NA,NA,NA,NA,NA,NA,NA,NA,NA,NA,NA,NA,NA,NA
SUPAMT62780,3QUO65DNQ0NF2AYIIPC957C579JUOV,6DB32A8F-6AC3-4138-9393-4527E61D9E94,2023-09-26_07h35.45.709,WP_VExplicitOC_LH,2022.2.5,Win32,13.10684702,100,3.5678,2.0908,NA,NA,NA,NA,NA,bored,"bored, not bored","more bored, less bored",NA,NA,NA,NA,NA,NA,NA,NA,NA,NA,NA,NA,NA,NA,NA,0,2,2,2,1,NA,NA,NA,NA,NA,NA,NA,NA,NA,NA,NA,NA,NA,NA,NA,NA,NA,NA,NA,NA,NA,NA,NA,NA,NA,NA,NA,NA
SUPAMT62780,3QUO65DNQ0NF2AYIIPC957C579JUOV,6DB32A8F-6AC3-4138-9393-4527E61D9E94,2023-09-26_07h35.45.709,WP_VExplicitOC_LH,2022.2.5,Win32,13.10684702,NA,NA,NA,NA,NA,NA,NA,NA,NA,NA,NA,NA,NA,NA,NA,NA,NA,NA,NA,NA,NA,NA,NA,NA,NA,NA,NA,NA,NA,NA,NA,14,0,14,0,1,NA,NA,NA,NA,NA,NA,NA,NA,NA,NA,NA,NA,NA,NA,NA,NA,NA,NA,NA,NA,NA,NA,NA
SUPAMT62780,3QUO65DNQ0NF2AYIIPC957C579JUOV,6DB32A8F-6AC3-4138-9393-4527E61D9E94,2023-09-26_07h35.45.709,WP_VExplicitOC_LH,2022.2.5,Win32,13.10684702,NA,NA,NA,NA,NA,NA,NA,NA,NA,NA,NA,NA,NA,NA,NA,NA,NA,NA,NA,NA,NA,NA,NA,NA,NA,NA,NA,NA,NA,NA,NA,NA,NA,NA,NA,NA,NA,NA,NA,NA,NA,NA,NA,NA,NA,NA,NA,NA,NA,NA,NA,NA,NA,NA,NA,NA,NA,NA,NA
SUPAMT62780,3QUO65DNQ0NF2AYIIPC957C579JUOV,6DB32A8F-6AC3-4138-9393-4527E61D9E94,2023-09-26_07h35.45.709,WP_VExplicitOC_LH,2022.2.5,Win32,13.10684702,NA,NA,NA,NA,NA,NA,NA,NA,NA,NA,NA,NA,NA,NA,NA,NA,NA,NA,NA,NA,NA,NA,NA,NA,NA,NA,NA,NA,NA,NA,NA,NA,NA,NA,NA,NA,NA,NA,NA,NA,NA,NA,NA,NA,NA,NA,NA,NA,NA,NA,NA,NA,NA,NA,NA,NA,NA,NA,NA
SUPAMT62780,3QUO65DNQ0NF2AYIIPC957C579JUOV,6DB32A8F-6AC3-4138-9393-4527E61D9E94,2023-09-26_07h35.45.709,WP_VExplicitOC_LH,2022.2.5,Win32,13.10684702,NA,NA,NA,NA,NA,NA,NA,NA,NA,NA,NA,NA,NA,NA,NA,NA,NA,NA,rest (looking at a fixed cross),001.png,NA,NA,NA,NA,NA,NA,NA,NA,NA,NA,NA,NA,NA,NA,NA,NA,43.75,2.425,0,0,0,0,1,NA,NA,NA,NA,NA,NA,NA,NA,NA,NA,NA,NA,NA,NA,NA,NA
SUPAMT62780,3QUO65DNQ0NF2AYIIPC957C579JUOV,6DB32A8F-6AC3-4138-9393-4527E61D9E94,2023-09-26_07h35.45.709,WP_VExplicitOC_LH,2022.2.5,Win32,13.10684702,NA,NA,NA,NA,NA,NA,NA,NA,NA,NA,NA,NA,NA,NA,NA,NA,NA,NA,stand up,002.png,NA,NA,NA,NA,NA,NA,NA,NA,NA,NA,NA,NA,NA,NA,NA,NA,57.55208333,1.2296,0,1,1,1,1,NA,NA,NA,NA,NA,NA,NA,NA,NA,NA,NA,NA,NA,NA,NA,NA
SUPAMT62780,3QUO65DNQ0NF2AYIIPC957C579JUOV,6DB32A8F-6AC3-4138-9393-4527E61D9E94,2023-09-26_07h35.45.709,WP_VExplicitOC_LH,2022.2.5,Win32,13.10684702,NA,NA,NA,NA,NA,NA,NA,NA,NA,NA,NA,NA,NA,NA,NA,NA,NA,NA,stretch,003.png,NA,NA,NA,NA,NA,NA,NA,NA,NA,NA,NA,NA,NA,NA,NA,NA,66.14583333,0.7852,0,2,2,2,1,NA,NA,NA,NA,NA,NA,NA,NA,NA,NA,NA,NA,NA,NA,NA,NA
SUPAMT62780,3QUO65DNQ0NF2AYIIPC957C579JUOV,6DB32A8F-6AC3-4138-9393-4527E61D9E94,2023-09-26_07h35.45.709,WP_VExplicitOC_LH,2022.2.5,Win32,13.10684702,NA,NA,NA,NA,NA,NA,NA,NA,NA,NA,NA,NA,NA,NA,NA,NA,NA,NA,make a drink,004.png,NA,NA,NA,NA,NA,NA,NA,NA,NA,NA,NA,NA,NA,NA,NA,NA,55.72916667,0.934,0,3,3,3,1,NA,NA,NA,NA,NA,NA,NA,NA,NA,NA,NA,NA,NA,NA,NA,NA
SUPAMT62780,3QUO65DNQ0NF2AYIIPC957C579JUOV,6DB32A8F-6AC3-4138-9393-4527E61D9E94,2023-09-26_07h35.45.709,WP_VExplicitOC_LH,2022.2.5,Win32,13.10684702,NA,NA,NA,NA,NA,NA,NA,NA,NA,NA,NA,NA,NA,NA,NA,NA,NA,NA,scroll social media,005.png,NA,NA,NA,NA,NA,NA,NA,NA,NA,NA,NA,NA,NA,NA,NA,NA,66.14583333,0.9463,0,4,4,4,1,NA,NA,NA,NA,NA,NA,NA,NA,NA,NA,NA,NA,NA,NA,NA,NA
SUPAMT62780,3QUO65DNQ0NF2AYIIPC957C579JUOV,6DB32A8F-6AC3-4138-9393-4527E61D9E94,2023-09-26_07h35.45.709,WP_VExplicitOC_LH,2022.2.5,Win32,13.10684702,NA,NA,NA,NA,NA,NA,NA,NA,NA,NA,NA,NA,NA,NA,NA,NA,NA,NA,listen to music,006.png,NA,NA,NA,NA,NA,NA,NA,NA,NA,NA,NA,NA,NA,NA,NA,NA,60.9375,1.4333,0,5,5,5,1,NA,NA,NA,NA,NA,NA,NA,NA,NA,NA,NA,NA,NA,NA,NA,NA
SUPAMT62780,3QUO65DNQ0NF2AYIIPC957C579JUOV,6DB32A8F-6AC3-4138-9393-4527E61D9E94,2023-09-26_07h35.45.709,WP_VExplicitOC_LH,2022.2.5,Win32,13.10684702,NA,NA,NA,NA,NA,NA,NA,NA,NA,NA,NA,NA,NA,NA,NA,NA,NA,NA,daydream,007.png,NA,NA,NA,NA,NA,NA,NA,NA,NA,NA,NA,NA,NA,NA,NA,NA,76.04166667,0.9302,0,6,6,6,1,NA,NA,NA,NA,NA,NA,NA,NA,NA,NA,NA,NA,NA,NA,NA,NA
SUPAMT62780,3QUO65DNQ0NF2AYIIPC957C579JUOV,6DB32A8F-6AC3-4138-9393-4527E61D9E94,2023-09-26_07h35.45.709,WP_VExplicitOC_LH,2022.2.5,Win32,13.10684702,NA,NA,NA,NA,NA,NA,NA,NA,NA,NA,NA,NA,NA,NA,NA,NA,NA,NA,watch a short animation,008.png,NA,NA,NA,NA,NA,NA,NA,NA,NA,NA,NA,NA,NA,NA,NA,NA,77.60416667,1.0016,0,7,7,7,1,NA,NA,NA,NA,NA,NA,NA,NA,NA,NA,NA,NA,NA,NA,NA,NA
SUPAMT62780,3QUO65DNQ0NF2AYIIPC957C579JUOV,6DB32A8F-6AC3-4138-9393-4527E61D9E94,2023-09-26_07h35.45.709,WP_VExplicitOC_LH,2022.2.5,Win32,13.10684702,NA,NA,NA,NA,NA,NA,NA,NA,NA,NA,NA,NA,NA,NA,NA,NA,NA,NA,read a novel,009.png,NA,NA,NA,NA,NA,NA,NA,NA,NA,NA,NA,NA,NA,NA,NA,NA,93.75,1.7848,0,8,8,8,1,NA,NA,NA,NA,NA,NA,NA,NA,NA,NA,NA,NA,NA,NA,NA,NA
SUPAMT62780,3QUO65DNQ0NF2AYIIPC957C579JUOV,6DB32A8F-6AC3-4138-9393-4527E61D9E94,2023-09-26_07h35.45.709,WP_VExplicitOC_LH,2022.2.5,Win32,13.10684702,NA,NA,NA,NA,NA,NA,NA,NA,NA,NA,NA,NA,NA,NA,NA,NA,NA,NA,read the news,010.png,NA,NA,NA,NA,NA,NA,NA,NA,NA,NA,NA,NA,NA,NA,NA,NA,96.09375,0.9404,0,9,9,9,1,NA,NA,NA,NA,NA,NA,NA,NA,NA,NA,NA,NA,NA,NA,NA,NA
SUPAMT62780,3QUO65DNQ0NF2AYIIPC957C579JUOV,6DB32A8F-6AC3-4138-9393-4527E61D9E94,2023-09-26_07h35.45.709,WP_VExplicitOC_LH,2022.2.5,Win32,13.10684702,NA,NA,NA,NA,NA,NA,NA,NA,NA,NA,NA,NA,NA,NA,NA,NA,NA,NA,NA,NA,NA,NA,NA,NA,NA,NA,NA,NA,NA,NA,NA,NA,NA,NA,NA,NA,NA,NA,NA,NA,NA,NA,NA,read the news,NA,NA,NA,NA,NA,NA,NA,NA,NA,NA,NA,NA,NA,NA,NA
SUPAMT62780,3QUO65DNQ0NF2AYIIPC957C579JUOV,6DB32A8F-6AC3-4138-9393-4527E61D9E94,2023-09-26_07h35.45.709,WP_VExplicitOC_LH,2022.2.5,Win32,13.10684702,98.17708333,5.0829,2.0928,NA,NA,NA,NA,NA,happy,"unhappy, happy","less happy, more happy",NA,NA,NA,NA,NA,NA,NA,NA,NA,NA,NA,NA,NA,NA,NA,NA,NA,NA,NA,NA,NA,NA,NA,NA,NA,NA,NA,NA,NA,NA,NA,NA,NA,0,0,0,0,1,NA,NA,NA,NA,NA,NA,NA,NA,NA,NA
SUPAMT62780,3QUO65DNQ0NF2AYIIPC957C579JUOV,6DB32A8F-6AC3-4138-9393-4527E61D9E94,2023-09-26_07h35.45.709,WP_VExplicitOC_LH,2022.2.5,Win32,13.10684702,100,3.5826,2.0655,NA,NA,NA,NA,NA,bored,"bored, not bored","more bored, less bored",NA,NA,NA,NA,NA,NA,NA,NA,NA,NA,NA,NA,NA,NA,NA,NA,NA,NA,NA,NA,NA,NA,NA,NA,NA,NA,NA,NA,NA,NA,NA,NA,NA,0,1,1,2,1,NA,NA,NA,NA,NA,NA,NA,NA,NA,NA
SUPAMT62780,3QUO65DNQ0NF2AYIIPC957C579JUOV,6DB32A8F-6AC3-4138-9393-4527E61D9E94,2023-09-26_07h35.45.709,WP_VExplicitOC_LH,2022.2.5,Win32,13.10684702,100,3.3193,2.0065,NA,NA,NA,NA,NA,frustrated,"frustrated, not frustrated","more frustrated, less frustrated",NA,NA,NA,NA,NA,NA,NA,NA,NA,NA,NA,NA,NA,NA,NA,NA,NA,NA,NA,NA,NA,NA,NA,NA,NA,NA,NA,NA,NA,NA,NA,NA,NA,0,2,2,1,1,NA,NA,NA,NA,NA,NA,NA,NA,NA,NA
SUPAMT62780,3QUO65DNQ0NF2AYIIPC957C579JUOV,6DB32A8F-6AC3-4138-9393-4527E61D9E94,2023-09-26_07h35.45.709,WP_VExplicitOC_LH,2022.2.5,Win32,13.10684702,NA,NA,NA,NA,NA,NA,NA,NA,NA,NA,NA,NA,NA,NA,NA,NA,NA,NA,NA,NA,NA,NA,NA,NA,NA,NA,NA,NA,NA,NA,NA,NA,NA,NA,NA,NA,NA,NA,NA,NA,NA,NA,NA,NA,NA,NA,NA,NA,NA,NA,NA,NA,NA,NA,NA,NA,NA,NA,NA
SUPAMT62780,3QUO65DNQ0NF2AYIIPC957C579JUOV,6DB32A8F-6AC3-4138-9393-4527E61D9E94,2023-09-26_07h35.45.709,WP_VExplicitOC_LH,2022.2.5,Win32,13.10684702,NA,NA,NA,NA,NA,NA,NA,NA,NA,NA,NA,NA,NA,NA,NA,NA,NA,NA,NA,NA,NA,NA,NA,NA,NA,NA,NA,NA,NA,NA,NA,NA,NA,NA,NA,NA,NA,NA,NA,NA,NA,NA,NA,NA,NA,NA,NA,NA,NA,NA,NA,NA,NA,NA,NA,NA,NA,NA,NA
SUPAMT62780,3QUO65DNQ0NF2AYIIPC957C579JUOV,6DB32A8F-6AC3-4138-9393-4527E61D9E94,2023-09-26_07h35.45.709,WP_VExplicitOC_LH,2022.2.5,Win32,13.10684702,100,3.6384,2.0943,NA,NA,NA,NA,NA,bored,"bored, not bored","more bored, less bored",NA,NA,NA,NA,NA,NA,NA,NA,NA,NA,NA,NA,NA,NA,NA,NA,NA,NA,NA,NA,NA,NA,NA,NA,NA,NA,NA,NA,NA,NA,NA,NA,NA,NA,NA,NA,NA,NA,0,0,0,2,1,NA,NA,NA,NA,NA
SUPAMT62780,3QUO65DNQ0NF2AYIIPC957C579JUOV,6DB32A8F-6AC3-4138-9393-4527E61D9E94,2023-09-26_07h35.45.709,WP_VExplicitOC_LH,2022.2.5,Win32,13.10684702,86.97916667,4.5818,2.0109,NA,NA,NA,NA,NA,frustrated,"frustrated, not frustrated","more frustrated, less frustrated",NA,NA,NA,NA,NA,NA,NA,NA,NA,NA,NA,NA,NA,NA,NA,NA,NA,NA,NA,NA,NA,NA,NA,NA,NA,NA,NA,NA,NA,NA,NA,NA,NA,NA,NA,NA,NA,NA,0,1,1,1,1,NA,NA,NA,NA,NA
SUPAMT62780,3QUO65DNQ0NF2AYIIPC957C579JUOV,6DB32A8F-6AC3-4138-9393-4527E61D9E94,2023-09-26_07h35.45.709,WP_VExplicitOC_LH,2022.2.5,Win32,13.10684702,100,3.336,2.0131,NA,NA,NA,NA,NA,happy,"unhappy, happy","less happy, more happy",NA,NA,NA,NA,NA,NA,NA,NA,NA,NA,NA,NA,NA,NA,NA,NA,NA,NA,NA,NA,NA,NA,NA,NA,NA,NA,NA,NA,NA,NA,NA,NA,NA,NA,NA,NA,NA,NA,0,2,2,0,1,NA,NA,NA,NA,NA
SUPAMT62780,3QUO65DNQ0NF2AYIIPC957C579JUOV,6DB32A8F-6AC3-4138-9393-4527E61D9E94,2023-09-26_07h35.45.709,WP_VExplicitOC_LH,2022.2.5,Win32,13.10684702,NA,NA,NA,NA,NA,NA,NA,NA,NA,NA,NA,NA,NA,NA,NA,NA,NA,NA,NA,NA,NA,NA,NA,NA,NA,NA,NA,NA,NA,NA,NA,NA,NA,NA,NA,NA,NA,NA,NA,NA,NA,NA,NA,NA,NA,NA,NA,NA,NA,NA,NA,NA,NA,NA,0,0,0,0,1
SUPAMT62780,3QUO65DNQ0NF2AYIIPC957C579JUOV,6DB32A8F-6AC3-4138-9393-4527E61D9E94,2023-09-26_07h35.45.709,WP_VExplicitOC_LH,2022.2.5,Win32,13.10684702,NA,NA,2.061,NA,NA,NA,NA,NA,bored,"bored, not bored","more bored, less bored",NA,NA,NA,NA,NA,NA,NA,NA,NA,NA,NA,NA,NA,NA,NA,NA,NA,NA,NA,NA,NA,NA,NA,NA,NA,NA,NA,NA,NA,NA,NA,NA,NA,NA,NA,NA,NA,NA,0,0,0,2,1,NA,NA,NA,NA,NA
SUPAMT62780,3QUO65DNQ0NF2AYIIPC957C579JUOV,6DB32A8F-6AC3-4138-9393-4527E61D9E94,2023-09-26_07h35.45.709,WP_VExplicitOC_LH,2022.2.5,Win32,13.10684702,100,4.2091,2.078,NA,NA,NA,NA,NA,frustrated,"frustrated, not frustrated","more frustrated, less frustrated",NA,NA,NA,NA,NA,NA,NA,NA,NA,NA,NA,NA,NA,NA,NA,NA,NA,NA,NA,NA,NA,NA,NA,NA,NA,NA,NA,NA,NA,NA,NA,NA,NA,NA,NA,NA,NA,NA,0,1,1,1,1,NA,NA,NA,NA,NA
SUPAMT62780,3QUO65DNQ0NF2AYIIPC957C579JUOV,6DB32A8F-6AC3-4138-9393-4527E61D9E94,2023-09-26_07h35.45.709,WP_VExplicitOC_LH,2022.2.5,Win32,13.10684702,100,3.8332,2.031,NA,NA,NA,NA,NA,happy,"unhappy, happy","less happy, more happy",NA,NA,NA,NA,NA,NA,NA,NA,NA,NA,NA,NA,NA,NA,NA,NA,NA,NA,NA,NA,NA,NA,NA,NA,NA,NA,NA,NA,NA,NA,NA,NA,NA,NA,NA,NA,NA,NA,0,2,2,0,1,NA,NA,NA,NA,NA
SUPAMT62780,3QUO65DNQ0NF2AYIIPC957C579JUOV,6DB32A8F-6AC3-4138-9393-4527E61D9E94,2023-09-26_07h35.45.709,WP_VExplicitOC_LH,2022.2.5,Win32,13.10684702,NA,NA,NA,NA,NA,NA,NA,NA,NA,NA,NA,NA,NA,NA,NA,NA,NA,NA,NA,NA,NA,NA,NA,NA,NA,NA,NA,NA,NA,NA,NA,NA,NA,NA,NA,NA,NA,NA,NA,NA,NA,NA,NA,NA,NA,NA,NA,NA,NA,NA,NA,NA,NA,NA,1,0,1,0,1
SUPAMT62780,3QUO65DNQ0NF2AYIIPC957C579JUOV,6DB32A8F-6AC3-4138-9393-4527E61D9E94,2023-09-26_07h35.45.709,WP_VExplicitOC_LH,2022.2.5,Win32,13.10684702,100,7.2003,2.0565,NA,NA,NA,NA,NA,frustrated,"frustrated, not frustrated","more frustrated, less frustrated",NA,NA,NA,NA,NA,NA,NA,NA,NA,NA,NA,NA,NA,NA,NA,NA,NA,NA,NA,NA,NA,NA,NA,NA,NA,NA,NA,NA,NA,NA,NA,NA,NA,NA,NA,NA,NA,NA,0,0,0,1,1,NA,NA,NA,NA,NA
SUPAMT62780,3QUO65DNQ0NF2AYIIPC957C579JUOV,6DB32A8F-6AC3-4138-9393-4527E61D9E94,2023-09-26_07h35.45.709,WP_VExplicitOC_LH,2022.2.5,Win32,13.10684702,100,3.6719,2.0861,NA,NA,NA,NA,NA,happy,"unhappy, happy","less happy, more happy",NA,NA,NA,NA,NA,NA,NA,NA,NA,NA,NA,NA,NA,NA,NA,NA,NA,NA,NA,NA,NA,NA,NA,NA,NA,NA,NA,NA,NA,NA,NA,NA,NA,NA,NA,NA,NA,NA,0,1,1,0,1,NA,NA,NA,NA,NA
SUPAMT62780,3QUO65DNQ0NF2AYIIPC957C579JUOV,6DB32A8F-6AC3-4138-9393-4527E61D9E94,2023-09-26_07h35.45.709,WP_VExplicitOC_LH,2022.2.5,Win32,13.10684702,100,3.8475,2.0667,NA,NA,NA,NA,NA,bored,"bored, not bored","more bored, less bored",NA,NA,NA,NA,NA,NA,NA,NA,NA,NA,NA,NA,NA,NA,NA,NA,NA,NA,NA,NA,NA,NA,NA,NA,NA,NA,NA,NA,NA,NA,NA,NA,NA,NA,NA,NA,NA,NA,0,2,2,2,1,NA,NA,NA,NA,NA
SUPAMT62780,3QUO65DNQ0NF2AYIIPC957C579JUOV,6DB32A8F-6AC3-4138-9393-4527E61D9E94,2023-09-26_07h35.45.709,WP_VExplicitOC_LH,2022.2.5,Win32,13.10684702,NA,NA,NA,NA,NA,NA,NA,NA,NA,NA,NA,NA,NA,NA,NA,NA,NA,NA,NA,NA,NA,NA,NA,NA,NA,NA,NA,NA,NA,NA,NA,NA,NA,NA,NA,NA,NA,NA,NA,NA,NA,NA,NA,NA,NA,NA,NA,NA,NA,NA,NA,NA,NA,NA,2,0,2,0,1
SUPAMT62780,3QUO65DNQ0NF2AYIIPC957C579JUOV,6DB32A8F-6AC3-4138-9393-4527E61D9E94,2023-09-26_07h35.45.709,WP_VExplicitOC_LH,2022.2.5,Win32,13.10684702,100,4.8208,2.0663,NA,NA,NA,NA,NA,happy,"unhappy, happy","less happy, more happy",NA,NA,NA,NA,NA,NA,NA,NA,NA,NA,NA,NA,NA,NA,NA,NA,NA,NA,NA,NA,NA,NA,NA,NA,NA,NA,NA,NA,NA,NA,NA,NA,NA,NA,NA,NA,NA,NA,0,0,0,0,1,NA,NA,NA,NA,NA
SUPAMT62780,3QUO65DNQ0NF2AYIIPC957C579JUOV,6DB32A8F-6AC3-4138-9393-4527E61D9E94,2023-09-26_07h35.45.709,WP_VExplicitOC_LH,2022.2.5,Win32,13.10684702,100,3.2978,2.0382,NA,NA,NA,NA,NA,frustrated,"frustrated, not frustrated","more frustrated, less frustrated",NA,NA,NA,NA,NA,NA,NA,NA,NA,NA,NA,NA,NA,NA,NA,NA,NA,NA,NA,NA,NA,NA,NA,NA,NA,NA,NA,NA,NA,NA,NA,NA,NA,NA,NA,NA,NA,NA,0,1,1,1,1,NA,NA,NA,NA,NA
SUPAMT62780,3QUO65DNQ0NF2AYIIPC957C579JUOV,6DB32A8F-6AC3-4138-9393-4527E61D9E94,2023-09-26_07h35.45.709,WP_VExplicitOC_LH,2022.2.5,Win32,13.10684702,100,3.5346,2.0649,NA,NA,NA,NA,NA,bored,"bored, not bored","more bored, less bored",NA,NA,NA,NA,NA,NA,NA,NA,NA,NA,NA,NA,NA,NA,NA,NA,NA,NA,NA,NA,NA,NA,NA,NA,NA,NA,NA,NA,NA,NA,NA,NA,NA,NA,NA,NA,NA,NA,0,2,2,2,1,NA,NA,NA,NA,NA
SUPAMT62780,3QUO65DNQ0NF2AYIIPC957C579JUOV,6DB32A8F-6AC3-4138-9393-4527E61D9E94,2023-09-26_07h35.45.709,WP_VExplicitOC_LH,2022.2.5,Win32,13.10684702,NA,NA,NA,NA,NA,NA,NA,NA,NA,NA,NA,NA,NA,NA,NA,NA,NA,NA,NA,NA,NA,NA,NA,NA,NA,NA,NA,NA,NA,NA,NA,NA,NA,NA,NA,NA,NA,NA,NA,NA,NA,NA,NA,NA,NA,NA,NA,NA,NA,NA,NA,NA,NA,NA,3,0,3,0,1
SUPAMT62780,3QUO65DNQ0NF2AYIIPC957C579JUOV,6DB32A8F-6AC3-4138-9393-4527E61D9E94,2023-09-26_07h35.45.709,WP_VExplicitOC_LH,2022.2.5,Win32,13.10684702,100,3.5927,2.079,NA,NA,NA,NA,NA,happy,"unhappy, happy","less happy, more happy",NA,NA,NA,NA,NA,NA,NA,NA,NA,NA,NA,NA,NA,NA,NA,NA,NA,NA,NA,NA,NA,NA,NA,NA,NA,NA,NA,NA,NA,NA,NA,NA,NA,NA,NA,NA,NA,NA,0,0,0,0,1,NA,NA,NA,NA,NA
SUPAMT62780,3QUO65DNQ0NF2AYIIPC957C579JUOV,6DB32A8F-6AC3-4138-9393-4527E61D9E94,2023-09-26_07h35.45.709,WP_VExplicitOC_LH,2022.2.5,Win32,13.10684702,100,3.6604,2.0218,NA,NA,NA,NA,NA,frustrated,"frustrated, not frustrated","more frustrated, less frustrated",NA,NA,NA,NA,NA,NA,NA,NA,NA,NA,NA,NA,NA,NA,NA,NA,NA,NA,NA,NA,NA,NA,NA,NA,NA,NA,NA,NA,NA,NA,NA,NA,NA,NA,NA,NA,NA,NA,0,1,1,1,1,NA,NA,NA,NA,NA
SUPAMT62780,3QUO65DNQ0NF2AYIIPC957C579JUOV,6DB32A8F-6AC3-4138-9393-4527E61D9E94,2023-09-26_07h35.45.709,WP_VExplicitOC_LH,2022.2.5,Win32,13.10684702,100,3.4868,2.0737,NA,NA,NA,NA,NA,bored,"bored, not bored","more bored, less bored",NA,NA,NA,NA,NA,NA,NA,NA,NA,NA,NA,NA,NA,NA,NA,NA,NA,NA,NA,NA,NA,NA,NA,NA,NA,NA,NA,NA,NA,NA,NA,NA,NA,NA,NA,NA,NA,NA,0,2,2,2,1,NA,NA,NA,NA,NA
SUPAMT62780,3QUO65DNQ0NF2AYIIPC957C579JUOV,6DB32A8F-6AC3-4138-9393-4527E61D9E94,2023-09-26_07h35.45.709,WP_VExplicitOC_LH,2022.2.5,Win32,13.10684702,NA,NA,NA,NA,NA,NA,NA,NA,NA,NA,NA,NA,NA,NA,NA,NA,NA,NA,NA,NA,NA,NA,NA,NA,NA,NA,NA,NA,NA,NA,NA,NA,NA,NA,NA,NA,NA,NA,NA,NA,NA,NA,NA,NA,NA,NA,NA,NA,NA,NA,NA,NA,NA,NA,4,0,4,0,1
SUPAMT62780,3QUO65DNQ0NF2AYIIPC957C579JUOV,6DB32A8F-6AC3-4138-9393-4527E61D9E94,2023-09-26_07h35.45.709,WP_VExplicitOC_LH,2022.2.5,Win32,13.10684702,NA,NA,2.0069,NA,NA,NA,NA,NA,bored,"bored, not bored","more bored, less bored",NA,NA,NA,NA,NA,NA,NA,NA,NA,NA,NA,NA,NA,NA,NA,NA,NA,NA,NA,NA,NA,NA,NA,NA,NA,NA,NA,NA,NA,NA,NA,NA,NA,NA,NA,NA,NA,NA,0,0,0,2,1,NA,NA,NA,NA,NA
SUPAMT62780,3QUO65DNQ0NF2AYIIPC957C579JUOV,6DB32A8F-6AC3-4138-9393-4527E61D9E94,2023-09-26_07h35.45.709,WP_VExplicitOC_LH,2022.2.5,Win32,13.10684702,96.09375,5.0898,2.1014,NA,NA,NA,NA,NA,frustrated,"frustrated, not frustrated","more frustrated, less frustrated",NA,NA,NA,NA,NA,NA,NA,NA,NA,NA,NA,NA,NA,NA,NA,NA,NA,NA,NA,NA,NA,NA,NA,NA,NA,NA,NA,NA,NA,NA,NA,NA,NA,NA,NA,NA,NA,NA,0,1,1,1,1,NA,NA,NA,NA,NA
SUPAMT62780,3QUO65DNQ0NF2AYIIPC957C579JUOV,6DB32A8F-6AC3-4138-9393-4527E61D9E94,2023-09-26_07h35.45.709,WP_VExplicitOC_LH,2022.2.5,Win32,13.10684702,100,3.6695,2.0612,NA,NA,NA,NA,NA,happy,"unhappy, happy","less happy, more happy",NA,NA,NA,NA,NA,NA,NA,NA,NA,NA,NA,NA,NA,NA,NA,NA,NA,NA,NA,NA,NA,NA,NA,NA,NA,NA,NA,NA,NA,NA,NA,NA,NA,NA,NA,NA,NA,NA,0,2,2,0,1,NA,NA,NA,NA,NA
SUPAMT62780,3QUO65DNQ0NF2AYIIPC957C579JUOV,6DB32A8F-6AC3-4138-9393-4527E61D9E94,2023-09-26_07h35.45.709,WP_VExplicitOC_LH,2022.2.5,Win32,13.10684702,NA,NA,NA,NA,NA,NA,NA,NA,NA,NA,NA,NA,NA,NA,NA,NA,NA,NA,NA,NA,NA,NA,NA,NA,NA,NA,NA,NA,NA,NA,NA,NA,NA,NA,NA,NA,NA,NA,NA,NA,NA,NA,NA,NA,NA,NA,NA,NA,NA,NA,NA,NA,NA,NA,5,0,5,0,1
SUPAMT62780,3QUO65DNQ0NF2AYIIPC957C579JUOV,6DB32A8F-6AC3-4138-9393-4527E61D9E94,2023-09-26_07h35.45.709,WP_VExplicitOC_LH,2022.2.5,Win32,13.10684702,100,5.625,2.0933,NA,NA,NA,NA,NA,bored,"bored, not bored","more bored, less bored",NA,NA,NA,NA,NA,NA,NA,NA,NA,NA,NA,NA,NA,NA,NA,NA,NA,NA,NA,NA,NA,NA,NA,NA,NA,NA,NA,NA,NA,NA,NA,NA,NA,NA,NA,NA,NA,NA,0,0,0,2,1,NA,NA,NA,NA,NA
SUPAMT62780,3QUO65DNQ0NF2AYIIPC957C579JUOV,6DB32A8F-6AC3-4138-9393-4527E61D9E94,2023-09-26_07h35.45.709,WP_VExplicitOC_LH,2022.2.5,Win32,13.10684702,100,3.7596,2.0831,NA,NA,NA,NA,NA,happy,"unhappy, happy","less happy, more happy",NA,NA,NA,NA,NA,NA,NA,NA,NA,NA,NA,NA,NA,NA,NA,NA,NA,NA,NA,NA,NA,NA,NA,NA,NA,NA,NA,NA,NA,NA,NA,NA,NA,NA,NA,NA,NA,NA,0,1,1,0,1,NA,NA,NA,NA,NA
SUPAMT62780,3QUO65DNQ0NF2AYIIPC957C579JUOV,6DB32A8F-6AC3-4138-9393-4527E61D9E94,2023-09-26_07h35.45.709,WP_VExplicitOC_LH,2022.2.5,Win32,13.10684702,100,3.9573,2.0154,NA,NA,NA,NA,NA,frustrated,"frustrated, not frustrated","more frustrated, less frustrated",NA,NA,NA,NA,NA,NA,NA,NA,NA,NA,NA,NA,NA,NA,NA,NA,NA,NA,NA,NA,NA,NA,NA,NA,NA,NA,NA,NA,NA,NA,NA,NA,NA,NA,NA,NA,NA,NA,0,2,2,1,1,NA,NA,NA,NA,NA
SUPAMT62780,3QUO65DNQ0NF2AYIIPC957C579JUOV,6DB32A8F-6AC3-4138-9393-4527E61D9E94,2023-09-26_07h35.45.709,WP_VExplicitOC_LH,2022.2.5,Win32,13.10684702,NA,NA,NA,NA,NA,NA,NA,NA,NA,NA,NA,NA,NA,NA,NA,NA,NA,NA,NA,NA,NA,NA,NA,NA,NA,NA,NA,NA,NA,NA,NA,NA,NA,NA,NA,NA,NA,NA,NA,NA,NA,NA,NA,NA,NA,NA,NA,NA,NA,NA,NA,NA,NA,NA,6,0,6,0,1
SUPAMT62780,3QUO65DNQ0NF2AYIIPC957C579JUOV,6DB32A8F-6AC3-4138-9393-4527E61D9E94,2023-09-26_07h35.45.709,WP_VExplicitOC_LH,2022.2.5,Win32,13.10684702,100,3.5572,2.0938,NA,NA,NA,NA,NA,frustrated,"frustrated, not frustrated","more frustrated, less frustrated",NA,NA,NA,NA,NA,NA,NA,NA,NA,NA,NA,NA,NA,NA,NA,NA,NA,NA,NA,NA,NA,NA,NA,NA,NA,NA,NA,NA,NA,NA,NA,NA,NA,NA,NA,NA,NA,NA,0,0,0,1,1,NA,NA,NA,NA,NA
SUPAMT62780,3QUO65DNQ0NF2AYIIPC957C579JUOV,6DB32A8F-6AC3-4138-9393-4527E61D9E94,2023-09-26_07h35.45.709,WP_VExplicitOC_LH,2022.2.5,Win32,13.10684702,100,3.7183,2.065,NA,NA,NA,NA,NA,bored,"bored, not bored","more bored, less bored",NA,NA,NA,NA,NA,NA,NA,NA,NA,NA,NA,NA,NA,NA,NA,NA,NA,NA,NA,NA,NA,NA,NA,NA,NA,NA,NA,NA,NA,NA,NA,NA,NA,NA,NA,NA,NA,NA,0,1,1,2,1,NA,NA,NA,NA,NA
SUPAMT62780,3QUO65DNQ0NF2AYIIPC957C579JUOV,6DB32A8F-6AC3-4138-9393-4527E61D9E94,2023-09-26_07h35.45.709,WP_VExplicitOC_LH,2022.2.5,Win32,13.10684702,100,3.5756,2.0804,NA,NA,NA,NA,NA,happy,"unhappy, happy","less happy, more happy",NA,NA,NA,NA,NA,NA,NA,NA,NA,NA,NA,NA,NA,NA,NA,NA,NA,NA,NA,NA,NA,NA,NA,NA,NA,NA,NA,NA,NA,NA,NA,NA,NA,NA,NA,NA,NA,NA,0,2,2,0,1,NA,NA,NA,NA,NA
SUPAMT62780,3QUO65DNQ0NF2AYIIPC957C579JUOV,6DB32A8F-6AC3-4138-9393-4527E61D9E94,2023-09-26_07h35.45.709,WP_VExplicitOC_LH,2022.2.5,Win32,13.10684702,NA,NA,NA,NA,NA,NA,NA,NA,NA,NA,NA,NA,NA,NA,NA,NA,NA,NA,NA,NA,NA,NA,NA,NA,NA,NA,NA,NA,NA,NA,NA,NA,NA,NA,NA,NA,NA,NA,NA,NA,NA,NA,NA,NA,NA,NA,NA,NA,NA,NA,NA,NA,NA,NA,7,0,7,0,1
SUPAMT62780,3QUO65DNQ0NF2AYIIPC957C579JUOV,6DB32A8F-6AC3-4138-9393-4527E61D9E94,2023-09-26_07h35.45.709,WP_VExplicitOC_LH,2022.2.5,Win32,13.10684702,100,3.4907,2.0918,NA,NA,NA,NA,NA,bored,"bored, not bored","more bored, less bored",NA,NA,NA,NA,NA,NA,NA,NA,NA,NA,NA,NA,NA,NA,NA,NA,NA,NA,NA,NA,NA,NA,NA,NA,NA,NA,NA,NA,NA,NA,NA,NA,NA,NA,NA,NA,NA,NA,0,0,0,2,1,NA,NA,NA,NA,NA
SUPAMT62780,3QUO65DNQ0NF2AYIIPC957C579JUOV,6DB32A8F-6AC3-4138-9393-4527E61D9E94,2023-09-26_07h35.45.709,WP_VExplicitOC_LH,2022.2.5,Win32,13.10684702,100,3.6999,2.0577,NA,NA,NA,NA,NA,happy,"unhappy, happy","less happy, more happy",NA,NA,NA,NA,NA,NA,NA,NA,NA,NA,NA,NA,NA,NA,NA,NA,NA,NA,NA,NA,NA,NA,NA,NA,NA,NA,NA,NA,NA,NA,NA,NA,NA,NA,NA,NA,NA,NA,0,1,1,0,1,NA,NA,NA,NA,NA
SUPAMT62780,3QUO65DNQ0NF2AYIIPC957C579JUOV,6DB32A8F-6AC3-4138-9393-4527E61D9E94,2023-09-26_07h35.45.709,WP_VExplicitOC_LH,2022.2.5,Win32,13.10684702,100,3.7008,2.0146,NA,NA,NA,NA,NA,frustrated,"frustrated, not frustrated","more frustrated, less frustrated",NA,NA,NA,NA,NA,NA,NA,NA,NA,NA,NA,NA,NA,NA,NA,NA,NA,NA,NA,NA,NA,NA,NA,NA,NA,NA,NA,NA,NA,NA,NA,NA,NA,NA,NA,NA,NA,NA,0,2,2,1,1,NA,NA,NA,NA,NA
SUPAMT62780,3QUO65DNQ0NF2AYIIPC957C579JUOV,6DB32A8F-6AC3-4138-9393-4527E61D9E94,2023-09-26_07h35.45.709,WP_VExplicitOC_LH,2022.2.5,Win32,13.10684702,NA,NA,NA,NA,NA,NA,NA,NA,NA,NA,NA,NA,NA,NA,NA,NA,NA,NA,NA,NA,NA,NA,NA,NA,NA,NA,NA,NA,NA,NA,NA,NA,NA,NA,NA,NA,NA,NA,NA,NA,NA,NA,NA,NA,NA,NA,NA,NA,NA,NA,NA,NA,NA,NA,8,0,8,0,1
SUPAMT62780,3QUO65DNQ0NF2AYIIPC957C579JUOV,6DB32A8F-6AC3-4138-9393-4527E61D9E94,2023-09-26_07h35.45.709,WP_VExplicitOC_LH,2022.2.5,Win32,13.10684702,100,4.6214,2.0614,NA,NA,NA,NA,NA,happy,"unhappy, happy","less happy, more happy",NA,NA,NA,NA,NA,NA,NA,NA,NA,NA,NA,NA,NA,NA,NA,NA,NA,NA,NA,NA,NA,NA,NA,NA,NA,NA,NA,NA,NA,NA,NA,NA,NA,NA,NA,NA,NA,NA,0,0,0,0,1,NA,NA,NA,NA,NA
SUPAMT62780,3QUO65DNQ0NF2AYIIPC957C579JUOV,6DB32A8F-6AC3-4138-9393-4527E61D9E94,2023-09-26_07h35.45.709,WP_VExplicitOC_LH,2022.2.5,Win32,13.10684702,100,3.3118,2.0749,NA,NA,NA,NA,NA,bored,"bored, not bored","more bored, less bored",NA,NA,NA,NA,NA,NA,NA,NA,NA,NA,NA,NA,NA,NA,NA,NA,NA,NA,NA,NA,NA,NA,NA,NA,NA,NA,NA,NA,NA,NA,NA,NA,NA,NA,NA,NA,NA,NA,0,1,1,2,1,NA,NA,NA,NA,NA
SUPAMT62780,3QUO65DNQ0NF2AYIIPC957C579JUOV,6DB32A8F-6AC3-4138-9393-4527E61D9E94,2023-09-26_07h35.45.709,WP_VExplicitOC_LH,2022.2.5,Win32,13.10684702,100,3.3728,2.0802,NA,NA,NA,NA,NA,frustrated,"frustrated, not frustrated","more frustrated, less frustrated",NA,NA,NA,NA,NA,NA,NA,NA,NA,NA,NA,NA,NA,NA,NA,NA,NA,NA,NA,NA,NA,NA,NA,NA,NA,NA,NA,NA,NA,NA,NA,NA,NA,NA,NA,NA,NA,NA,0,2,2,1,1,NA,NA,NA,NA,NA
SUPAMT62780,3QUO65DNQ0NF2AYIIPC957C579JUOV,6DB32A8F-6AC3-4138-9393-4527E61D9E94,2023-09-26_07h35.45.709,WP_VExplicitOC_LH,2022.2.5,Win32,13.10684702,NA,NA,NA,NA,NA,NA,NA,NA,NA,NA,NA,NA,NA,NA,NA,NA,NA,NA,NA,NA,NA,NA,NA,NA,NA,NA,NA,NA,NA,NA,NA,NA,NA,NA,NA,NA,NA,NA,NA,NA,NA,NA,NA,NA,NA,NA,NA,NA,NA,NA,NA,NA,NA,NA,9,0,9,0,1
SUPAMT62780,3QUO65DNQ0NF2AYIIPC957C579JUOV,6DB32A8F-6AC3-4138-9393-4527E61D9E94,2023-09-26_07h35.45.709,WP_VExplicitOC_LH,2022.2.5,Win32,13.10684702,100,5.2854,2.0237,NA,NA,NA,NA,NA,happy,"unhappy, happy","less happy, more happy",NA,NA,NA,NA,NA,NA,NA,NA,NA,NA,NA,NA,NA,NA,NA,NA,NA,NA,NA,NA,NA,NA,NA,NA,NA,NA,NA,NA,NA,NA,NA,NA,NA,NA,NA,NA,NA,NA,0,0,0,0,1,NA,NA,NA,NA,NA
SUPAMT62780,3QUO65DNQ0NF2AYIIPC957C579JUOV,6DB32A8F-6AC3-4138-9393-4527E61D9E94,2023-09-26_07h35.45.709,WP_VExplicitOC_LH,2022.2.5,Win32,13.10684702,100,4.5628,2.0211,NA,NA,NA,NA,NA,bored,"bored, not bored","more bored, less bored",NA,NA,NA,NA,NA,NA,NA,NA,NA,NA,NA,NA,NA,NA,NA,NA,NA,NA,NA,NA,NA,NA,NA,NA,NA,NA,NA,NA,NA,NA,NA,NA,NA,NA,NA,NA,NA,NA,0,1,1,2,1,NA,NA,NA,NA,NA
SUPAMT62780,3QUO65DNQ0NF2AYIIPC957C579JUOV,6DB32A8F-6AC3-4138-9393-4527E61D9E94,2023-09-26_07h35.45.709,WP_VExplicitOC_LH,2022.2.5,Win32,13.10684702,98.17708333,4.9101,2.0729,NA,NA,NA,NA,NA,frustrated,"frustrated, not frustrated","more frustrated, less frustrated",NA,NA,NA,NA,NA,NA,NA,NA,NA,NA,NA,NA,NA,NA,NA,NA,NA,NA,NA,NA,NA,NA,NA,NA,NA,NA,NA,NA,NA,NA,NA,NA,NA,NA,NA,NA,NA,NA,0,2,2,1,1,NA,NA,NA,NA,NA
SUPAMT62780,3QUO65DNQ0NF2AYIIPC957C579JUOV,6DB32A8F-6AC3-4138-9393-4527E61D9E94,2023-09-26_07h35.45.709,WP_VExplicitOC_LH,2022.2.5,Win32,13.10684702,NA,NA,NA,NA,NA,NA,NA,NA,NA,NA,NA,NA,NA,NA,NA,NA,NA,NA,NA,NA,NA,NA,NA,NA,NA,NA,NA,NA,NA,NA,NA,NA,NA,NA,NA,NA,NA,NA,NA,NA,NA,NA,NA,NA,NA,NA,NA,NA,NA,NA,NA,NA,NA,NA,10,0,10,0,1
SUPAMT62780,3QUO65DNQ0NF2AYIIPC957C579JUOV,6DB32A8F-6AC3-4138-9393-4527E61D9E94,2023-09-26_07h35.45.709,WP_VExplicitOC_LH,2022.2.5,Win32,13.10684702,98.69791667,4.4312,2.0544,NA,NA,NA,NA,NA,frustrated,"frustrated, not frustrated","more frustrated, less frustrated",NA,NA,NA,NA,NA,NA,NA,NA,NA,NA,NA,NA,NA,NA,NA,NA,NA,NA,NA,NA,NA,NA,NA,NA,NA,NA,NA,NA,NA,NA,NA,NA,NA,NA,NA,NA,NA,NA,0,0,0,1,1,NA,NA,NA,NA,NA
SUPAMT62780,3QUO65DNQ0NF2AYIIPC957C579JUOV,6DB32A8F-6AC3-4138-9393-4527E61D9E94,2023-09-26_07h35.45.709,WP_VExplicitOC_LH,2022.2.5,Win32,13.10684702,85.15625,4.3203,2.0257,NA,NA,NA,NA,NA,happy,"unhappy, happy","less happy, more happy",NA,NA,NA,NA,NA,NA,NA,NA,NA,NA,NA,NA,NA,NA,NA,NA,NA,NA,NA,NA,NA,NA,NA,NA,NA,NA,NA,NA,NA,NA,NA,NA,NA,NA,NA,NA,NA,NA,0,1,1,0,1,NA,NA,NA,NA,NA
SUPAMT62780,3QUO65DNQ0NF2AYIIPC957C579JUOV,6DB32A8F-6AC3-4138-9393-4527E61D9E94,2023-09-26_07h35.45.709,WP_VExplicitOC_LH,2022.2.5,Win32,13.10684702,NA,NA,2.0773,NA,NA,NA,NA,NA,bored,"bored, not bored","more bored, less bored",NA,NA,NA,NA,NA,NA,NA,NA,NA,NA,NA,NA,NA,NA,NA,NA,NA,NA,NA,NA,NA,NA,NA,NA,NA,NA,NA,NA,NA,NA,NA,NA,NA,NA,NA,NA,NA,NA,0,2,2,2,1,NA,NA,NA,NA,NA
SUPAMT62780,3QUO65DNQ0NF2AYIIPC957C579JUOV,6DB32A8F-6AC3-4138-9393-4527E61D9E94,2023-09-26_07h35.45.709,WP_VExplicitOC_LH,2022.2.5,Win32,13.10684702,NA,NA,NA,NA,NA,NA,NA,NA,NA,NA,NA,NA,NA,NA,NA,NA,NA,NA,NA,NA,NA,NA,NA,NA,NA,NA,NA,NA,NA,NA,NA,NA,NA,NA,NA,NA,NA,NA,NA,NA,NA,NA,NA,NA,NA,NA,NA,NA,NA,NA,NA,NA,NA,NA,11,0,11,0,1
SUPAMT62780,3QUO65DNQ0NF2AYIIPC957C579JUOV,6DB32A8F-6AC3-4138-9393-4527E61D9E94,2023-09-26_07h35.45.709,WP_VExplicitOC_LH,2022.2.5,Win32,13.10684702,98.95833333,3.6344,2.0789,NA,NA,NA,NA,NA,frustrated,"frustrated, not frustrated","more frustrated, less frustrated",NA,NA,NA,NA,NA,NA,NA,NA,NA,NA,NA,NA,NA,NA,NA,NA,NA,NA,NA,NA,NA,NA,NA,NA,NA,NA,NA,NA,NA,NA,NA,NA,NA,NA,NA,NA,NA,NA,0,0,0,1,1,NA,NA,NA,NA,NA
SUPAMT62780,3QUO65DNQ0NF2AYIIPC957C579JUOV,6DB32A8F-6AC3-4138-9393-4527E61D9E94,2023-09-26_07h35.45.709,WP_VExplicitOC_LH,2022.2.5,Win32,13.10684702,100,3.7174,2.0269,NA,NA,NA,NA,NA,bored,"bored, not bored","more bored, less bored",NA,NA,NA,NA,NA,NA,NA,NA,NA,NA,NA,NA,NA,NA,NA,NA,NA,NA,NA,NA,NA,NA,NA,NA,NA,NA,NA,NA,NA,NA,NA,NA,NA,NA,NA,NA,NA,NA,0,1,1,2,1,NA,NA,NA,NA,NA
SUPAMT62780,3QUO65DNQ0NF2AYIIPC957C579JUOV,6DB32A8F-6AC3-4138-9393-4527E61D9E94,2023-09-26_07h35.45.709,WP_VExplicitOC_LH,2022.2.5,Win32,13.10684702,100,3.5461,2.0938,NA,NA,NA,NA,NA,happy,"unhappy, happy","less happy, more happy",NA,NA,NA,NA,NA,NA,NA,NA,NA,NA,NA,NA,NA,NA,NA,NA,NA,NA,NA,NA,NA,NA,NA,NA,NA,NA,NA,NA,NA,NA,NA,NA,NA,NA,NA,NA,NA,NA,0,2,2,0,1,NA,NA,NA,NA,NA
SUPAMT62780,3QUO65DNQ0NF2AYIIPC957C579JUOV,6DB32A8F-6AC3-4138-9393-4527E61D9E94,2023-09-26_07h35.45.709,WP_VExplicitOC_LH,2022.2.5,Win32,13.10684702,NA,NA,NA,NA,NA,NA,NA,NA,NA,NA,NA,NA,NA,NA,NA,NA,NA,NA,NA,NA,NA,NA,NA,NA,NA,NA,NA,NA,NA,NA,NA,NA,NA,NA,NA,NA,NA,NA,NA,NA,NA,NA,NA,NA,NA,NA,NA,NA,NA,NA,NA,NA,NA,NA,12,0,12,0,1
SUPAMT62780,3QUO65DNQ0NF2AYIIPC957C579JUOV,6DB32A8F-6AC3-4138-9393-4527E61D9E94,2023-09-26_07h35.45.709,WP_VExplicitOC_LH,2022.2.5,Win32,13.10684702,96.61458333,5.7103,2.0229,NA,NA,NA,NA,NA,happy,"unhappy, happy","less happy, more happy",NA,NA,NA,NA,NA,NA,NA,NA,NA,NA,NA,NA,NA,NA,NA,NA,NA,NA,NA,NA,NA,NA,NA,NA,NA,NA,NA,NA,NA,NA,NA,NA,NA,NA,NA,NA,NA,NA,0,0,0,0,1,NA,NA,NA,NA,NA
SUPAMT62780,3QUO65DNQ0NF2AYIIPC957C579JUOV,6DB32A8F-6AC3-4138-9393-4527E61D9E94,2023-09-26_07h35.45.709,WP_VExplicitOC_LH,2022.2.5,Win32,13.10684702,100,3.6038,2.0363,NA,NA,NA,NA,NA,bored,"bored, not bored","more bored, less bored",NA,NA,NA,NA,NA,NA,NA,NA,NA,NA,NA,NA,NA,NA,NA,NA,NA,NA,NA,NA,NA,NA,NA,NA,NA,NA,NA,NA,NA,NA,NA,NA,NA,NA,NA,NA,NA,NA,0,1,1,2,1,NA,NA,NA,NA,NA
SUPAMT62780,3QUO65DNQ0NF2AYIIPC957C579JUOV,6DB32A8F-6AC3-4138-9393-4527E61D9E94,2023-09-26_07h35.45.709,WP_VExplicitOC_LH,2022.2.5,Win32,13.10684702,100,3.572,2.09,NA,NA,NA,NA,NA,frustrated,"frustrated, not frustrated","more frustrated, less frustrated",NA,NA,NA,NA,NA,NA,NA,NA,NA,NA,NA,NA,NA,NA,NA,NA,NA,NA,NA,NA,NA,NA,NA,NA,NA,NA,NA,NA,NA,NA,NA,NA,NA,NA,NA,NA,NA,NA,0,2,2,1,1,NA,NA,NA,NA,NA
SUPAMT62780,3QUO65DNQ0NF2AYIIPC957C579JUOV,6DB32A8F-6AC3-4138-9393-4527E61D9E94,2023-09-26_07h35.45.709,WP_VExplicitOC_LH,2022.2.5,Win32,13.10684702,NA,NA,NA,NA,NA,NA,NA,NA,NA,NA,NA,NA,NA,NA,NA,NA,NA,NA,NA,NA,NA,NA,NA,NA,NA,NA,NA,NA,NA,NA,NA,NA,NA,NA,NA,NA,NA,NA,NA,NA,NA,NA,NA,NA,NA,NA,NA,NA,NA,NA,NA,NA,NA,NA,13,0,13,0,1
SUPAMT62780,3QUO65DNQ0NF2AYIIPC957C579JUOV,6DB32A8F-6AC3-4138-9393-4527E61D9E94,2023-09-26_07h35.45.709,WP_VExplicitOC_LH,2022.2.5,Win32,13.10684702,100,3.4557,2.0765,NA,NA,NA,NA,NA,bored,"bored, not bored","more bored, less bored",NA,NA,NA,NA,NA,NA,NA,NA,NA,NA,NA,NA,NA,NA,NA,NA,NA,NA,NA,NA,NA,NA,NA,NA,NA,NA,NA,NA,NA,NA,NA,NA,NA,NA,NA,NA,NA,NA,0,0,0,2,1,NA,NA,NA,NA,NA
SUPAMT62780,3QUO65DNQ0NF2AYIIPC957C579JUOV,6DB32A8F-6AC3-4138-9393-4527E61D9E94,2023-09-26_07h35.45.709,WP_VExplicitOC_LH,2022.2.5,Win32,13.10684702,100,3.9614,2.0739,NA,NA,NA,NA,NA,frustrated,"frustrated, not frustrated","more frustrated, less frustrated",NA,NA,NA,NA,NA,NA,NA,NA,NA,NA,NA,NA,NA,NA,NA,NA,NA,NA,NA,NA,NA,NA,NA,NA,NA,NA,NA,NA,NA,NA,NA,NA,NA,NA,NA,NA,NA,NA,0,1,1,1,1,NA,NA,NA,NA,NA
SUPAMT62780,3QUO65DNQ0NF2AYIIPC957C579JUOV,6DB32A8F-6AC3-4138-9393-4527E61D9E94,2023-09-26_07h35.45.709,WP_VExplicitOC_LH,2022.2.5,Win32,13.10684702,97.65625,4.087,2.0647,NA,NA,NA,NA,NA,happy,"unhappy, happy","less happy, more happy",NA,NA,NA,NA,NA,NA,NA,NA,NA,NA,NA,NA,NA,NA,NA,NA,NA,NA,NA,NA,NA,NA,NA,NA,NA,NA,NA,NA,NA,NA,NA,NA,NA,NA,NA,NA,NA,NA,0,2,2,0,1,NA,NA,NA,NA,NA
SUPAMT62780,3QUO65DNQ0NF2AYIIPC957C579JUOV,6DB32A8F-6AC3-4138-9393-4527E61D9E94,2023-09-26_07h35.45.709,WP_VExplicitOC_LH,2022.2.5,Win32,13.10684702,NA,NA,NA,NA,NA,NA,NA,NA,NA,NA,NA,NA,NA,NA,NA,NA,NA,NA,NA,NA,NA,NA,NA,NA,NA,NA,NA,NA,NA,NA,NA,NA,NA,NA,NA,NA,NA,NA,NA,NA,NA,NA,NA,NA,NA,NA,NA,NA,NA,NA,NA,NA,NA,NA,14,0,14,0,1
SUPAMT62780,3QUO65DNQ0NF2AYIIPC957C579JUOV,6DB32A8F-6AC3-4138-9393-4527E61D9E94,2023-09-26_07h35.45.709,WP_VExplicitOC_LH,2022.2.5,Win32,13.10684702,NA,NA,NA,NA,NA,NA,NA,NA,NA,NA,NA,NA,NA,NA,NA,NA,NA,NA,NA,NA,NA,NA,NA,NA,NA,NA,NA,NA,NA,NA,NA,NA,NA,NA,NA,NA,NA,NA,NA,NA,NA,NA,NA,NA,NA,NA,NA,NA,NA,NA,NA,NA,NA,NA,NA,NA,NA,NA,NA
