participant,session,completion,date,expName,psychopyVersion,OS,frameRate,rating_all.response,rating_all.rt,rating_all.tStart,rndRat1.thisRepN,rndRat1.thisTrialN,rndRat1.thisN,rndRat1.thisIndex,rndRat1.ran,Emo,Labs,Labs2,rating_alt.response,rating_alt.rt,AltC.thisRepN,AltC.thisTrialN,AltC.thisN,AltC.thisIndex,AltC.ran,alt_choices,pic_choices,TopAlt_Choice,rndRat2.thisRepN,rndRat2.thisTrialN,rndRat2.thisN,rndRat2.thisIndex,rndRat2.ran,rndRat3.thisRepN,rndRat3.thisTrialN,rndRat3.thisN,rndRat3.thisIndex,rndRat3.ran,trials_FC_H.thisRepN,trials_FC_H.thisTrialN,trials_FC_H.thisN,trials_FC_H.thisIndex,trials_FC_H.ran,rating_alt_2.response,rating_alt_2.rt,AltC2.thisRepN,AltC2.thisTrialN,AltC2.thisN,AltC2.thisIndex,AltC2.ran,BottomAlt_Choice,rndRat4.thisRepN,rndRat4.thisTrialN,rndRat4.thisN,rndRat4.thisIndex,rndRat4.ran,rndRat5.thisRepN,rndRat5.thisTrialN,rndRat5.thisN,rndRat5.thisIndex,rndRat5.ran,trials_FC_L.thisRepN,trials_FC_L.thisTrialN,trials_FC_L.thisN,trials_FC_L.thisIndex,trials_FC_L.ran
SUPAMT81404,3NVC2EB65WY7XUP19SP6KPK789S3Y7,B5578326-9373-4EF1-848E-DC1A8EA92B0E,2023-09-26_19h06.50.394,WP_VExplicitOC_HL,2022.2.5,Win32,4.933861585,NA,NA,NA,NA,NA,NA,NA,NA,NA,NA,NA,NA,NA,NA,NA,NA,NA,NA,NA,NA,NA,NA,NA,NA,NA,NA,NA,NA,NA,NA,NA,NA,NA,NA,NA,NA,NA,NA,NA,NA,NA,NA,NA,NA,NA,NA,NA,NA,NA,NA,NA,NA,NA,NA,NA,NA,NA,NA,NA
SUPAMT81404,3NVC2EB65WY7XUP19SP6KPK789S3Y7,B5578326-9373-4EF1-848E-DC1A8EA92B0E,2023-09-26_19h06.50.394,WP_VExplicitOC_HL,2022.2.5,Win32,4.933861585,NA,NA,NA,NA,NA,NA,NA,NA,NA,NA,NA,NA,NA,NA,NA,NA,NA,NA,NA,NA,NA,NA,NA,NA,NA,NA,NA,NA,NA,NA,NA,NA,NA,NA,NA,NA,NA,NA,NA,NA,NA,NA,NA,NA,NA,NA,NA,NA,NA,NA,NA,NA,NA,NA,NA,NA,NA,NA,NA
SUPAMT81404,3NVC2EB65WY7XUP19SP6KPK789S3Y7,B5578326-9373-4EF1-848E-DC1A8EA92B0E,2023-09-26_19h06.50.394,WP_VExplicitOC_HL,2022.2.5,Win32,4.933861585,NA,NA,NA,NA,NA,NA,NA,NA,NA,NA,NA,NA,NA,NA,NA,NA,NA,NA,NA,NA,NA,NA,NA,NA,NA,NA,NA,NA,NA,NA,NA,NA,NA,NA,NA,NA,NA,NA,NA,NA,NA,NA,NA,NA,NA,NA,NA,NA,NA,NA,NA,NA,NA,NA,NA,NA,NA,NA,NA
SUPAMT81404,3NVC2EB65WY7XUP19SP6KPK789S3Y7,B5578326-9373-4EF1-848E-DC1A8EA92B0E,2023-09-26_19h06.50.394,WP_VExplicitOC_HL,2022.2.5,Win32,4.933861585,75.9765625,4.9229,2.1309,0,0,0,2,1,bored,"bored, not bored","more bored, less bored",NA,NA,NA,NA,NA,NA,NA,NA,NA,NA,NA,NA,NA,NA,NA,NA,NA,NA,NA,NA,NA,NA,NA,NA,NA,NA,NA,NA,NA,NA,NA,NA,NA,NA,NA,NA,NA,NA,NA,NA,NA,NA,NA,NA,NA,NA,NA,NA
SUPAMT81404,3NVC2EB65WY7XUP19SP6KPK789S3Y7,B5578326-9373-4EF1-848E-DC1A8EA92B0E,2023-09-26_19h06.50.394,WP_VExplicitOC_HL,2022.2.5,Win32,4.933861585,85.15625,4.0041,2.0415,0,1,1,1,1,frustrated,"frustrated, not frustrated","more frustrated, less frustrated",NA,NA,NA,NA,NA,NA,NA,NA,NA,NA,NA,NA,NA,NA,NA,NA,NA,NA,NA,NA,NA,NA,NA,NA,NA,NA,NA,NA,NA,NA,NA,NA,NA,NA,NA,NA,NA,NA,NA,NA,NA,NA,NA,NA,NA,NA,NA,NA
SUPAMT81404,3NVC2EB65WY7XUP19SP6KPK789S3Y7,B5578326-9373-4EF1-848E-DC1A8EA92B0E,2023-09-26_19h06.50.394,WP_VExplicitOC_HL,2022.2.5,Win32,4.933861585,85.546875,4.4957,2.1427,0,2,2,0,1,happy,"unhappy, happy","less happy, more happy",NA,NA,NA,NA,NA,NA,NA,NA,NA,NA,NA,NA,NA,NA,NA,NA,NA,NA,NA,NA,NA,NA,NA,NA,NA,NA,NA,NA,NA,NA,NA,NA,NA,NA,NA,NA,NA,NA,NA,NA,NA,NA,NA,NA,NA,NA,NA,NA
SUPAMT81404,3NVC2EB65WY7XUP19SP6KPK789S3Y7,B5578326-9373-4EF1-848E-DC1A8EA92B0E,2023-09-26_19h06.50.394,WP_VExplicitOC_HL,2022.2.5,Win32,4.933861585,NA,NA,NA,NA,NA,NA,NA,NA,NA,NA,NA,NA,NA,NA,NA,NA,NA,NA,NA,NA,NA,NA,NA,NA,NA,NA,NA,NA,NA,NA,NA,NA,NA,NA,NA,NA,NA,NA,NA,NA,NA,NA,NA,NA,NA,NA,NA,NA,NA,NA,NA,NA,NA,NA,NA,NA,NA,NA,NA
SUPAMT81404,3NVC2EB65WY7XUP19SP6KPK789S3Y7,B5578326-9373-4EF1-848E-DC1A8EA92B0E,2023-09-26_19h06.50.394,WP_VExplicitOC_HL,2022.2.5,Win32,4.933861585,NA,NA,NA,NA,NA,NA,NA,NA,NA,NA,NA,NA,NA,NA,NA,NA,NA,NA,NA,NA,NA,NA,NA,NA,NA,NA,NA,NA,NA,NA,NA,NA,NA,NA,NA,NA,NA,NA,NA,NA,NA,NA,NA,NA,NA,NA,NA,NA,NA,NA,NA,NA,NA,NA,NA,NA,NA,NA,NA
SUPAMT81404,3NVC2EB65WY7XUP19SP6KPK789S3Y7,B5578326-9373-4EF1-848E-DC1A8EA92B0E,2023-09-26_19h06.50.394,WP_VExplicitOC_HL,2022.2.5,Win32,4.933861585,NA,NA,NA,NA,NA,NA,NA,NA,NA,NA,NA,NA,NA,NA,NA,NA,NA,NA,NA,NA,NA,NA,NA,NA,NA,NA,NA,NA,NA,NA,NA,NA,NA,NA,NA,NA,NA,NA,NA,NA,NA,NA,NA,NA,NA,NA,NA,NA,NA,NA,NA,NA,NA,NA,NA,NA,NA,NA,NA
SUPAMT81404,3NVC2EB65WY7XUP19SP6KPK789S3Y7,B5578326-9373-4EF1-848E-DC1A8EA92B0E,2023-09-26_19h06.50.394,WP_VExplicitOC_HL,2022.2.5,Win32,4.933861585,NA,NA,NA,NA,NA,NA,NA,NA,NA,NA,NA,NA,NA,NA,NA,NA,NA,NA,NA,NA,NA,NA,NA,NA,NA,NA,NA,NA,NA,NA,NA,NA,NA,NA,NA,NA,NA,NA,NA,NA,NA,NA,NA,NA,NA,NA,NA,NA,NA,NA,NA,NA,NA,NA,NA,NA,NA,NA,NA
SUPAMT81404,3NVC2EB65WY7XUP19SP6KPK789S3Y7,B5578326-9373-4EF1-848E-DC1A8EA92B0E,2023-09-26_19h06.50.394,WP_VExplicitOC_HL,2022.2.5,Win32,4.933861585,NA,NA,NA,NA,NA,NA,NA,NA,NA,NA,NA,71.875,2.809,0,0,0,0,1,rest (looking at a fixed cross),001.png,NA,NA,NA,NA,NA,NA,NA,NA,NA,NA,NA,NA,NA,NA,NA,NA,NA,NA,NA,NA,NA,NA,NA,NA,NA,NA,NA,NA,NA,NA,NA,NA,NA,NA,NA,NA,NA,NA,NA
SUPAMT81404,3NVC2EB65WY7XUP19SP6KPK789S3Y7,B5578326-9373-4EF1-848E-DC1A8EA92B0E,2023-09-26_19h06.50.394,WP_VExplicitOC_HL,2022.2.5,Win32,4.933861585,NA,NA,NA,NA,NA,NA,NA,NA,NA,NA,NA,72.65625,0.3144,0,1,1,1,1,stand up,002.png,NA,NA,NA,NA,NA,NA,NA,NA,NA,NA,NA,NA,NA,NA,NA,NA,NA,NA,NA,NA,NA,NA,NA,NA,NA,NA,NA,NA,NA,NA,NA,NA,NA,NA,NA,NA,NA,NA,NA
SUPAMT81404,3NVC2EB65WY7XUP19SP6KPK789S3Y7,B5578326-9373-4EF1-848E-DC1A8EA92B0E,2023-09-26_19h06.50.394,WP_VExplicitOC_HL,2022.2.5,Win32,4.933861585,NA,NA,NA,NA,NA,NA,NA,NA,NA,NA,NA,73.4375,1.6015,0,2,2,2,1,stretch,003.png,NA,NA,NA,NA,NA,NA,NA,NA,NA,NA,NA,NA,NA,NA,NA,NA,NA,NA,NA,NA,NA,NA,NA,NA,NA,NA,NA,NA,NA,NA,NA,NA,NA,NA,NA,NA,NA,NA,NA
SUPAMT81404,3NVC2EB65WY7XUP19SP6KPK789S3Y7,B5578326-9373-4EF1-848E-DC1A8EA92B0E,2023-09-26_19h06.50.394,WP_VExplicitOC_HL,2022.2.5,Win32,4.933861585,NA,NA,NA,NA,NA,NA,NA,NA,NA,NA,NA,75.5859375,0.5405,0,3,3,3,1,make a drink,004.png,NA,NA,NA,NA,NA,NA,NA,NA,NA,NA,NA,NA,NA,NA,NA,NA,NA,NA,NA,NA,NA,NA,NA,NA,NA,NA,NA,NA,NA,NA,NA,NA,NA,NA,NA,NA,NA,NA,NA
SUPAMT81404,3NVC2EB65WY7XUP19SP6KPK789S3Y7,B5578326-9373-4EF1-848E-DC1A8EA92B0E,2023-09-26_19h06.50.394,WP_VExplicitOC_HL,2022.2.5,Win32,4.933861585,NA,NA,NA,NA,NA,NA,NA,NA,NA,NA,NA,77.9296875,0.7412,0,4,4,4,1,scroll social media,005.png,NA,NA,NA,NA,NA,NA,NA,NA,NA,NA,NA,NA,NA,NA,NA,NA,NA,NA,NA,NA,NA,NA,NA,NA,NA,NA,NA,NA,NA,NA,NA,NA,NA,NA,NA,NA,NA,NA,NA
SUPAMT81404,3NVC2EB65WY7XUP19SP6KPK789S3Y7,B5578326-9373-4EF1-848E-DC1A8EA92B0E,2023-09-26_19h06.50.394,WP_VExplicitOC_HL,2022.2.5,Win32,4.933861585,NA,NA,NA,NA,NA,NA,NA,NA,NA,NA,NA,77.9296875,0.647,0,5,5,5,1,listen to music,006.png,NA,NA,NA,NA,NA,NA,NA,NA,NA,NA,NA,NA,NA,NA,NA,NA,NA,NA,NA,NA,NA,NA,NA,NA,NA,NA,NA,NA,NA,NA,NA,NA,NA,NA,NA,NA,NA,NA,NA
SUPAMT81404,3NVC2EB65WY7XUP19SP6KPK789S3Y7,B5578326-9373-4EF1-848E-DC1A8EA92B0E,2023-09-26_19h06.50.394,WP_VExplicitOC_HL,2022.2.5,Win32,4.933861585,NA,NA,NA,NA,NA,NA,NA,NA,NA,NA,NA,77.9296875,0.7272,0,6,6,6,1,daydream,007.png,NA,NA,NA,NA,NA,NA,NA,NA,NA,NA,NA,NA,NA,NA,NA,NA,NA,NA,NA,NA,NA,NA,NA,NA,NA,NA,NA,NA,NA,NA,NA,NA,NA,NA,NA,NA,NA,NA,NA
SUPAMT81404,3NVC2EB65WY7XUP19SP6KPK789S3Y7,B5578326-9373-4EF1-848E-DC1A8EA92B0E,2023-09-26_19h06.50.394,WP_VExplicitOC_HL,2022.2.5,Win32,4.933861585,NA,NA,NA,NA,NA,NA,NA,NA,NA,NA,NA,77.9296875,0.6218,0,7,7,7,1,watch a short animation,008.png,NA,NA,NA,NA,NA,NA,NA,NA,NA,NA,NA,NA,NA,NA,NA,NA,NA,NA,NA,NA,NA,NA,NA,NA,NA,NA,NA,NA,NA,NA,NA,NA,NA,NA,NA,NA,NA,NA,NA
SUPAMT81404,3NVC2EB65WY7XUP19SP6KPK789S3Y7,B5578326-9373-4EF1-848E-DC1A8EA92B0E,2023-09-26_19h06.50.394,WP_VExplicitOC_HL,2022.2.5,Win32,4.933861585,NA,NA,NA,NA,NA,NA,NA,NA,NA,NA,NA,77.9296875,0.4871,0,8,8,8,1,read a novel,009.png,NA,NA,NA,NA,NA,NA,NA,NA,NA,NA,NA,NA,NA,NA,NA,NA,NA,NA,NA,NA,NA,NA,NA,NA,NA,NA,NA,NA,NA,NA,NA,NA,NA,NA,NA,NA,NA,NA,NA
SUPAMT81404,3NVC2EB65WY7XUP19SP6KPK789S3Y7,B5578326-9373-4EF1-848E-DC1A8EA92B0E,2023-09-26_19h06.50.394,WP_VExplicitOC_HL,2022.2.5,Win32,4.933861585,NA,NA,NA,NA,NA,NA,NA,NA,NA,NA,NA,77.9296875,0.5539,0,9,9,9,1,read the news,010.png,NA,NA,NA,NA,NA,NA,NA,NA,NA,NA,NA,NA,NA,NA,NA,NA,NA,NA,NA,NA,NA,NA,NA,NA,NA,NA,NA,NA,NA,NA,NA,NA,NA,NA,NA,NA,NA,NA,NA
SUPAMT81404,3NVC2EB65WY7XUP19SP6KPK789S3Y7,B5578326-9373-4EF1-848E-DC1A8EA92B0E,2023-09-26_19h06.50.394,WP_VExplicitOC_HL,2022.2.5,Win32,4.933861585,NA,NA,NA,NA,NA,NA,NA,NA,NA,NA,NA,NA,NA,NA,NA,NA,NA,NA,NA,NA,NA,NA,NA,NA,NA,NA,NA,NA,NA,NA,NA,NA,NA,NA,NA,NA,NA,NA,NA,NA,NA,NA,NA,NA,NA,NA,NA,NA,NA,NA,NA,NA,NA,NA,NA,NA,NA,NA,NA
SUPAMT81404,3NVC2EB65WY7XUP19SP6KPK789S3Y7,B5578326-9373-4EF1-848E-DC1A8EA92B0E,2023-09-26_19h06.50.394,WP_VExplicitOC_HL,2022.2.5,Win32,4.933861585,NA,NA,NA,NA,NA,NA,NA,NA,NA,NA,NA,NA,NA,NA,NA,NA,NA,NA,NA,NA,scroll social media,NA,NA,NA,NA,NA,NA,NA,NA,NA,NA,NA,NA,NA,NA,NA,NA,NA,NA,NA,NA,NA,NA,NA,NA,NA,NA,NA,NA,NA,NA,NA,NA,NA,NA,NA,NA,NA,NA
SUPAMT81404,3NVC2EB65WY7XUP19SP6KPK789S3Y7,B5578326-9373-4EF1-848E-DC1A8EA92B0E,2023-09-26_19h06.50.394,WP_VExplicitOC_HL,2022.2.5,Win32,4.933861585,84.9609375,4.937,2.0185,NA,NA,NA,NA,NA,bored,"bored, not bored","more bored, less bored",NA,NA,NA,NA,NA,NA,NA,NA,NA,NA,0,0,0,2,1,NA,NA,NA,NA,NA,NA,NA,NA,NA,NA,NA,NA,NA,NA,NA,NA,NA,NA,NA,NA,NA,NA,NA,NA,NA,NA,NA,NA,NA,NA,NA,NA,NA
SUPAMT81404,3NVC2EB65WY7XUP19SP6KPK789S3Y7,B5578326-9373-4EF1-848E-DC1A8EA92B0E,2023-09-26_19h06.50.394,WP_VExplicitOC_HL,2022.2.5,Win32,4.933861585,87.3046875,4.6802,2.0641,NA,NA,NA,NA,NA,happy,"unhappy, happy","less happy, more happy",NA,NA,NA,NA,NA,NA,NA,NA,NA,NA,0,1,1,0,1,NA,NA,NA,NA,NA,NA,NA,NA,NA,NA,NA,NA,NA,NA,NA,NA,NA,NA,NA,NA,NA,NA,NA,NA,NA,NA,NA,NA,NA,NA,NA,NA,NA
SUPAMT81404,3NVC2EB65WY7XUP19SP6KPK789S3Y7,B5578326-9373-4EF1-848E-DC1A8EA92B0E,2023-09-26_19h06.50.394,WP_VExplicitOC_HL,2022.2.5,Win32,4.933861585,87.3046875,3.4344,2.0891,NA,NA,NA,NA,NA,frustrated,"frustrated, not frustrated","more frustrated, less frustrated",NA,NA,NA,NA,NA,NA,NA,NA,NA,NA,0,2,2,1,1,NA,NA,NA,NA,NA,NA,NA,NA,NA,NA,NA,NA,NA,NA,NA,NA,NA,NA,NA,NA,NA,NA,NA,NA,NA,NA,NA,NA,NA,NA,NA,NA,NA
SUPAMT81404,3NVC2EB65WY7XUP19SP6KPK789S3Y7,B5578326-9373-4EF1-848E-DC1A8EA92B0E,2023-09-26_19h06.50.394,WP_VExplicitOC_HL,2022.2.5,Win32,4.933861585,NA,NA,NA,NA,NA,NA,NA,NA,NA,NA,NA,NA,NA,NA,NA,NA,NA,NA,NA,NA,NA,NA,NA,NA,NA,NA,NA,NA,NA,NA,NA,NA,NA,NA,NA,NA,NA,NA,NA,NA,NA,NA,NA,NA,NA,NA,NA,NA,NA,NA,NA,NA,NA,NA,NA,NA,NA,NA,NA
SUPAMT81404,3NVC2EB65WY7XUP19SP6KPK789S3Y7,B5578326-9373-4EF1-848E-DC1A8EA92B0E,2023-09-26_19h06.50.394,WP_VExplicitOC_HL,2022.2.5,Win32,4.933861585,NA,NA,NA,NA,NA,NA,NA,NA,NA,NA,NA,NA,NA,NA,NA,NA,NA,NA,NA,NA,NA,NA,NA,NA,NA,NA,NA,NA,NA,NA,NA,NA,NA,NA,NA,NA,NA,NA,NA,NA,NA,NA,NA,NA,NA,NA,NA,NA,NA,NA,NA,NA,NA,NA,NA,NA,NA,NA,NA
SUPAMT81404,3NVC2EB65WY7XUP19SP6KPK789S3Y7,B5578326-9373-4EF1-848E-DC1A8EA92B0E,2023-09-26_19h06.50.394,WP_VExplicitOC_HL,2022.2.5,Win32,4.933861585,85.15625,5.3092,2.1231,NA,NA,NA,NA,NA,happy,"unhappy, happy","less happy, more happy",NA,NA,NA,NA,NA,NA,NA,NA,NA,NA,NA,NA,NA,NA,NA,0,0,0,0,1,NA,NA,NA,NA,NA,NA,NA,NA,NA,NA,NA,NA,NA,NA,NA,NA,NA,NA,NA,NA,NA,NA,NA,NA,NA,NA,NA,NA
SUPAMT81404,3NVC2EB65WY7XUP19SP6KPK789S3Y7,B5578326-9373-4EF1-848E-DC1A8EA92B0E,2023-09-26_19h06.50.394,WP_VExplicitOC_HL,2022.2.5,Win32,4.933861585,84.9609375,6.058,2.1396,NA,NA,NA,NA,NA,bored,"bored, not bored","more bored, less bored",NA,NA,NA,NA,NA,NA,NA,NA,NA,NA,NA,NA,NA,NA,NA,0,1,1,2,1,NA,NA,NA,NA,NA,NA,NA,NA,NA,NA,NA,NA,NA,NA,NA,NA,NA,NA,NA,NA,NA,NA,NA,NA,NA,NA,NA,NA
SUPAMT81404,3NVC2EB65WY7XUP19SP6KPK789S3Y7,B5578326-9373-4EF1-848E-DC1A8EA92B0E,2023-09-26_19h06.50.394,WP_VExplicitOC_HL,2022.2.5,Win32,4.933861585,84.9609375,4.0878,2.0152,NA,NA,NA,NA,NA,frustrated,"frustrated, not frustrated","more frustrated, less frustrated",NA,NA,NA,NA,NA,NA,NA,NA,NA,NA,NA,NA,NA,NA,NA,0,2,2,1,1,NA,NA,NA,NA,NA,NA,NA,NA,NA,NA,NA,NA,NA,NA,NA,NA,NA,NA,NA,NA,NA,NA,NA,NA,NA,NA,NA,NA
SUPAMT81404,3NVC2EB65WY7XUP19SP6KPK789S3Y7,B5578326-9373-4EF1-848E-DC1A8EA92B0E,2023-09-26_19h06.50.394,WP_VExplicitOC_HL,2022.2.5,Win32,4.933861585,NA,NA,NA,NA,NA,NA,NA,NA,NA,NA,NA,NA,NA,NA,NA,NA,NA,NA,NA,NA,NA,NA,NA,NA,NA,NA,NA,NA,NA,NA,NA,0,0,0,0,1,NA,NA,NA,NA,NA,NA,NA,NA,NA,NA,NA,NA,NA,NA,NA,NA,NA,NA,NA,NA,NA,NA,NA
SUPAMT81404,3NVC2EB65WY7XUP19SP6KPK789S3Y7,B5578326-9373-4EF1-848E-DC1A8EA92B0E,2023-09-26_19h06.50.394,WP_VExplicitOC_HL,2022.2.5,Win32,4.933861585,NA,NA,2.0764,NA,NA,NA,NA,NA,frustrated,"frustrated, not frustrated","more frustrated, less frustrated",NA,NA,NA,NA,NA,NA,NA,NA,NA,NA,NA,NA,NA,NA,NA,0,0,0,1,1,NA,NA,NA,NA,NA,NA,NA,NA,NA,NA,NA,NA,NA,NA,NA,NA,NA,NA,NA,NA,NA,NA,NA,NA,NA,NA,NA,NA
SUPAMT81404,3NVC2EB65WY7XUP19SP6KPK789S3Y7,B5578326-9373-4EF1-848E-DC1A8EA92B0E,2023-09-26_19h06.50.394,WP_VExplicitOC_HL,2022.2.5,Win32,4.933861585,82.6171875,3.9115,2.0149,NA,NA,NA,NA,NA,bored,"bored, not bored","more bored, less bored",NA,NA,NA,NA,NA,NA,NA,NA,NA,NA,NA,NA,NA,NA,NA,0,1,1,2,1,NA,NA,NA,NA,NA,NA,NA,NA,NA,NA,NA,NA,NA,NA,NA,NA,NA,NA,NA,NA,NA,NA,NA,NA,NA,NA,NA,NA
SUPAMT81404,3NVC2EB65WY7XUP19SP6KPK789S3Y7,B5578326-9373-4EF1-848E-DC1A8EA92B0E,2023-09-26_19h06.50.394,WP_VExplicitOC_HL,2022.2.5,Win32,4.933861585,NA,NA,2.1207,NA,NA,NA,NA,NA,happy,"unhappy, happy","less happy, more happy",NA,NA,NA,NA,NA,NA,NA,NA,NA,NA,NA,NA,NA,NA,NA,0,2,2,0,1,NA,NA,NA,NA,NA,NA,NA,NA,NA,NA,NA,NA,NA,NA,NA,NA,NA,NA,NA,NA,NA,NA,NA,NA,NA,NA,NA,NA
SUPAMT81404,3NVC2EB65WY7XUP19SP6KPK789S3Y7,B5578326-9373-4EF1-848E-DC1A8EA92B0E,2023-09-26_19h06.50.394,WP_VExplicitOC_HL,2022.2.5,Win32,4.933861585,NA,NA,NA,NA,NA,NA,NA,NA,NA,NA,NA,NA,NA,NA,NA,NA,NA,NA,NA,NA,NA,NA,NA,NA,NA,NA,NA,NA,NA,NA,NA,1,0,1,0,1,NA,NA,NA,NA,NA,NA,NA,NA,NA,NA,NA,NA,NA,NA,NA,NA,NA,NA,NA,NA,NA,NA,NA
SUPAMT81404,3NVC2EB65WY7XUP19SP6KPK789S3Y7,B5578326-9373-4EF1-848E-DC1A8EA92B0E,2023-09-26_19h06.50.394,WP_VExplicitOC_HL,2022.2.5,Win32,4.933861585,93.1640625,4.6638,2.098,NA,NA,NA,NA,NA,frustrated,"frustrated, not frustrated","more frustrated, less frustrated",NA,NA,NA,NA,NA,NA,NA,NA,NA,NA,NA,NA,NA,NA,NA,0,0,0,1,1,NA,NA,NA,NA,NA,NA,NA,NA,NA,NA,NA,NA,NA,NA,NA,NA,NA,NA,NA,NA,NA,NA,NA,NA,NA,NA,NA,NA
SUPAMT81404,3NVC2EB65WY7XUP19SP6KPK789S3Y7,B5578326-9373-4EF1-848E-DC1A8EA92B0E,2023-09-26_19h06.50.394,WP_VExplicitOC_HL,2022.2.5,Win32,4.933861585,88.4765625,4.4996,2.141,NA,NA,NA,NA,NA,happy,"unhappy, happy","less happy, more happy",NA,NA,NA,NA,NA,NA,NA,NA,NA,NA,NA,NA,NA,NA,NA,0,1,1,0,1,NA,NA,NA,NA,NA,NA,NA,NA,NA,NA,NA,NA,NA,NA,NA,NA,NA,NA,NA,NA,NA,NA,NA,NA,NA,NA,NA,NA
SUPAMT81404,3NVC2EB65WY7XUP19SP6KPK789S3Y7,B5578326-9373-4EF1-848E-DC1A8EA92B0E,2023-09-26_19h06.50.394,WP_VExplicitOC_HL,2022.2.5,Win32,4.933861585,88.4765625,6.7922,2.0211,NA,NA,NA,NA,NA,bored,"bored, not bored","more bored, less bored",NA,NA,NA,NA,NA,NA,NA,NA,NA,NA,NA,NA,NA,NA,NA,0,2,2,2,1,NA,NA,NA,NA,NA,NA,NA,NA,NA,NA,NA,NA,NA,NA,NA,NA,NA,NA,NA,NA,NA,NA,NA,NA,NA,NA,NA,NA
SUPAMT81404,3NVC2EB65WY7XUP19SP6KPK789S3Y7,B5578326-9373-4EF1-848E-DC1A8EA92B0E,2023-09-26_19h06.50.394,WP_VExplicitOC_HL,2022.2.5,Win32,4.933861585,NA,NA,NA,NA,NA,NA,NA,NA,NA,NA,NA,NA,NA,NA,NA,NA,NA,NA,NA,NA,NA,NA,NA,NA,NA,NA,NA,NA,NA,NA,NA,2,0,2,0,1,NA,NA,NA,NA,NA,NA,NA,NA,NA,NA,NA,NA,NA,NA,NA,NA,NA,NA,NA,NA,NA,NA,NA
SUPAMT81404,3NVC2EB65WY7XUP19SP6KPK789S3Y7,B5578326-9373-4EF1-848E-DC1A8EA92B0E,2023-09-26_19h06.50.394,WP_VExplicitOC_HL,2022.2.5,Win32,4.933861585,81.25,7.4632,2.0468,NA,NA,NA,NA,NA,bored,"bored, not bored","more bored, less bored",NA,NA,NA,NA,NA,NA,NA,NA,NA,NA,NA,NA,NA,NA,NA,0,0,0,2,1,NA,NA,NA,NA,NA,NA,NA,NA,NA,NA,NA,NA,NA,NA,NA,NA,NA,NA,NA,NA,NA,NA,NA,NA,NA,NA,NA,NA
SUPAMT81404,3NVC2EB65WY7XUP19SP6KPK789S3Y7,B5578326-9373-4EF1-848E-DC1A8EA92B0E,2023-09-26_19h06.50.394,WP_VExplicitOC_HL,2022.2.5,Win32,4.933861585,83.59375,5.6662,2.0224,NA,NA,NA,NA,NA,frustrated,"frustrated, not frustrated","more frustrated, less frustrated",NA,NA,NA,NA,NA,NA,NA,NA,NA,NA,NA,NA,NA,NA,NA,0,1,1,1,1,NA,NA,NA,NA,NA,NA,NA,NA,NA,NA,NA,NA,NA,NA,NA,NA,NA,NA,NA,NA,NA,NA,NA,NA,NA,NA,NA,NA
SUPAMT81404,3NVC2EB65WY7XUP19SP6KPK789S3Y7,B5578326-9373-4EF1-848E-DC1A8EA92B0E,2023-09-26_19h06.50.394,WP_VExplicitOC_HL,2022.2.5,Win32,4.933861585,83.59375,5.7578,2.0046,NA,NA,NA,NA,NA,happy,"unhappy, happy","less happy, more happy",NA,NA,NA,NA,NA,NA,NA,NA,NA,NA,NA,NA,NA,NA,NA,0,2,2,0,1,NA,NA,NA,NA,NA,NA,NA,NA,NA,NA,NA,NA,NA,NA,NA,NA,NA,NA,NA,NA,NA,NA,NA,NA,NA,NA,NA,NA
SUPAMT81404,3NVC2EB65WY7XUP19SP6KPK789S3Y7,B5578326-9373-4EF1-848E-DC1A8EA92B0E,2023-09-26_19h06.50.394,WP_VExplicitOC_HL,2022.2.5,Win32,4.933861585,NA,NA,NA,NA,NA,NA,NA,NA,NA,NA,NA,NA,NA,NA,NA,NA,NA,NA,NA,NA,NA,NA,NA,NA,NA,NA,NA,NA,NA,NA,NA,3,0,3,0,1,NA,NA,NA,NA,NA,NA,NA,NA,NA,NA,NA,NA,NA,NA,NA,NA,NA,NA,NA,NA,NA,NA,NA
SUPAMT81404,3NVC2EB65WY7XUP19SP6KPK789S3Y7,B5578326-9373-4EF1-848E-DC1A8EA92B0E,2023-09-26_19h06.50.394,WP_VExplicitOC_HL,2022.2.5,Win32,4.933861585,90.234375,5.8193,2.0826,NA,NA,NA,NA,NA,frustrated,"frustrated, not frustrated","more frustrated, less frustrated",NA,NA,NA,NA,NA,NA,NA,NA,NA,NA,NA,NA,NA,NA,NA,0,0,0,1,1,NA,NA,NA,NA,NA,NA,NA,NA,NA,NA,NA,NA,NA,NA,NA,NA,NA,NA,NA,NA,NA,NA,NA,NA,NA,NA,NA,NA
SUPAMT81404,3NVC2EB65WY7XUP19SP6KPK789S3Y7,B5578326-9373-4EF1-848E-DC1A8EA92B0E,2023-09-26_19h06.50.394,WP_VExplicitOC_HL,2022.2.5,Win32,4.933861585,90.234375,6.9817,2.0453,NA,NA,NA,NA,NA,bored,"bored, not bored","more bored, less bored",NA,NA,NA,NA,NA,NA,NA,NA,NA,NA,NA,NA,NA,NA,NA,0,1,1,2,1,NA,NA,NA,NA,NA,NA,NA,NA,NA,NA,NA,NA,NA,NA,NA,NA,NA,NA,NA,NA,NA,NA,NA,NA,NA,NA,NA,NA
SUPAMT81404,3NVC2EB65WY7XUP19SP6KPK789S3Y7,B5578326-9373-4EF1-848E-DC1A8EA92B0E,2023-09-26_19h06.50.394,WP_VExplicitOC_HL,2022.2.5,Win32,4.933861585,81.640625,3.8331,2.0974,NA,NA,NA,NA,NA,happy,"unhappy, happy","less happy, more happy",NA,NA,NA,NA,NA,NA,NA,NA,NA,NA,NA,NA,NA,NA,NA,0,2,2,0,1,NA,NA,NA,NA,NA,NA,NA,NA,NA,NA,NA,NA,NA,NA,NA,NA,NA,NA,NA,NA,NA,NA,NA,NA,NA,NA,NA,NA
SUPAMT81404,3NVC2EB65WY7XUP19SP6KPK789S3Y7,B5578326-9373-4EF1-848E-DC1A8EA92B0E,2023-09-26_19h06.50.394,WP_VExplicitOC_HL,2022.2.5,Win32,4.933861585,NA,NA,NA,NA,NA,NA,NA,NA,NA,NA,NA,NA,NA,NA,NA,NA,NA,NA,NA,NA,NA,NA,NA,NA,NA,NA,NA,NA,NA,NA,NA,4,0,4,0,1,NA,NA,NA,NA,NA,NA,NA,NA,NA,NA,NA,NA,NA,NA,NA,NA,NA,NA,NA,NA,NA,NA,NA
SUPAMT81404,3NVC2EB65WY7XUP19SP6KPK789S3Y7,B5578326-9373-4EF1-848E-DC1A8EA92B0E,2023-09-26_19h06.50.394,WP_VExplicitOC_HL,2022.2.5,Win32,4.933861585,87.5,4.4549,2.0969,NA,NA,NA,NA,NA,happy,"unhappy, happy","less happy, more happy",NA,NA,NA,NA,NA,NA,NA,NA,NA,NA,NA,NA,NA,NA,NA,0,0,0,0,1,NA,NA,NA,NA,NA,NA,NA,NA,NA,NA,NA,NA,NA,NA,NA,NA,NA,NA,NA,NA,NA,NA,NA,NA,NA,NA,NA,NA
SUPAMT81404,3NVC2EB65WY7XUP19SP6KPK789S3Y7,B5578326-9373-4EF1-848E-DC1A8EA92B0E,2023-09-26_19h06.50.394,WP_VExplicitOC_HL,2022.2.5,Win32,4.933861585,86.71875,3.6975,2.0002,NA,NA,NA,NA,NA,bored,"bored, not bored","more bored, less bored",NA,NA,NA,NA,NA,NA,NA,NA,NA,NA,NA,NA,NA,NA,NA,0,1,1,2,1,NA,NA,NA,NA,NA,NA,NA,NA,NA,NA,NA,NA,NA,NA,NA,NA,NA,NA,NA,NA,NA,NA,NA,NA,NA,NA,NA,NA
SUPAMT81404,3NVC2EB65WY7XUP19SP6KPK789S3Y7,B5578326-9373-4EF1-848E-DC1A8EA92B0E,2023-09-26_19h06.50.394,WP_VExplicitOC_HL,2022.2.5,Win32,4.933861585,86.71875,3.4748,2.0067,NA,NA,NA,NA,NA,frustrated,"frustrated, not frustrated","more frustrated, less frustrated",NA,NA,NA,NA,NA,NA,NA,NA,NA,NA,NA,NA,NA,NA,NA,0,2,2,1,1,NA,NA,NA,NA,NA,NA,NA,NA,NA,NA,NA,NA,NA,NA,NA,NA,NA,NA,NA,NA,NA,NA,NA,NA,NA,NA,NA,NA
SUPAMT81404,3NVC2EB65WY7XUP19SP6KPK789S3Y7,B5578326-9373-4EF1-848E-DC1A8EA92B0E,2023-09-26_19h06.50.394,WP_VExplicitOC_HL,2022.2.5,Win32,4.933861585,NA,NA,NA,NA,NA,NA,NA,NA,NA,NA,NA,NA,NA,NA,NA,NA,NA,NA,NA,NA,NA,NA,NA,NA,NA,NA,NA,NA,NA,NA,NA,5,0,5,0,1,NA,NA,NA,NA,NA,NA,NA,NA,NA,NA,NA,NA,NA,NA,NA,NA,NA,NA,NA,NA,NA,NA,NA
SUPAMT81404,3NVC2EB65WY7XUP19SP6KPK789S3Y7,B5578326-9373-4EF1-848E-DC1A8EA92B0E,2023-09-26_19h06.50.394,WP_VExplicitOC_HL,2022.2.5,Win32,4.933861585,NA,NA,2.0144,NA,NA,NA,NA,NA,frustrated,"frustrated, not frustrated","more frustrated, less frustrated",NA,NA,NA,NA,NA,NA,NA,NA,NA,NA,NA,NA,NA,NA,NA,0,0,0,1,1,NA,NA,NA,NA,NA,NA,NA,NA,NA,NA,NA,NA,NA,NA,NA,NA,NA,NA,NA,NA,NA,NA,NA,NA,NA,NA,NA,NA
SUPAMT81404,3NVC2EB65WY7XUP19SP6KPK789S3Y7,B5578326-9373-4EF1-848E-DC1A8EA92B0E,2023-09-26_19h06.50.394,WP_VExplicitOC_HL,2022.2.5,Win32,4.933861585,85.15625,4.0625,2.0907,NA,NA,NA,NA,NA,bored,"bored, not bored","more bored, less bored",NA,NA,NA,NA,NA,NA,NA,NA,NA,NA,NA,NA,NA,NA,NA,0,1,1,2,1,NA,NA,NA,NA,NA,NA,NA,NA,NA,NA,NA,NA,NA,NA,NA,NA,NA,NA,NA,NA,NA,NA,NA,NA,NA,NA,NA,NA
SUPAMT81404,3NVC2EB65WY7XUP19SP6KPK789S3Y7,B5578326-9373-4EF1-848E-DC1A8EA92B0E,2023-09-26_19h06.50.394,WP_VExplicitOC_HL,2022.2.5,Win32,4.933861585,NA,NA,2.0769,NA,NA,NA,NA,NA,happy,"unhappy, happy","less happy, more happy",NA,NA,NA,NA,NA,NA,NA,NA,NA,NA,NA,NA,NA,NA,NA,0,2,2,0,1,NA,NA,NA,NA,NA,NA,NA,NA,NA,NA,NA,NA,NA,NA,NA,NA,NA,NA,NA,NA,NA,NA,NA,NA,NA,NA,NA,NA
SUPAMT81404,3NVC2EB65WY7XUP19SP6KPK789S3Y7,B5578326-9373-4EF1-848E-DC1A8EA92B0E,2023-09-26_19h06.50.394,WP_VExplicitOC_HL,2022.2.5,Win32,4.933861585,NA,NA,NA,NA,NA,NA,NA,NA,NA,NA,NA,NA,NA,NA,NA,NA,NA,NA,NA,NA,NA,NA,NA,NA,NA,NA,NA,NA,NA,NA,NA,6,0,6,0,1,NA,NA,NA,NA,NA,NA,NA,NA,NA,NA,NA,NA,NA,NA,NA,NA,NA,NA,NA,NA,NA,NA,NA
SUPAMT81404,3NVC2EB65WY7XUP19SP6KPK789S3Y7,B5578326-9373-4EF1-848E-DC1A8EA92B0E,2023-09-26_19h06.50.394,WP_VExplicitOC_HL,2022.2.5,Win32,4.933861585,NA,NA,2.034,NA,NA,NA,NA,NA,happy,"unhappy, happy","less happy, more happy",NA,NA,NA,NA,NA,NA,NA,NA,NA,NA,NA,NA,NA,NA,NA,0,0,0,0,1,NA,NA,NA,NA,NA,NA,NA,NA,NA,NA,NA,NA,NA,NA,NA,NA,NA,NA,NA,NA,NA,NA,NA,NA,NA,NA,NA,NA
SUPAMT81404,3NVC2EB65WY7XUP19SP6KPK789S3Y7,B5578326-9373-4EF1-848E-DC1A8EA92B0E,2023-09-26_19h06.50.394,WP_VExplicitOC_HL,2022.2.5,Win32,4.933861585,82.6171875,4.0311,2.0561,NA,NA,NA,NA,NA,bored,"bored, not bored","more bored, less bored",NA,NA,NA,NA,NA,NA,NA,NA,NA,NA,NA,NA,NA,NA,NA,0,1,1,2,1,NA,NA,NA,NA,NA,NA,NA,NA,NA,NA,NA,NA,NA,NA,NA,NA,NA,NA,NA,NA,NA,NA,NA,NA,NA,NA,NA,NA
SUPAMT81404,3NVC2EB65WY7XUP19SP6KPK789S3Y7,B5578326-9373-4EF1-848E-DC1A8EA92B0E,2023-09-26_19h06.50.394,WP_VExplicitOC_HL,2022.2.5,Win32,4.933861585,NA,NA,2.0848,NA,NA,NA,NA,NA,frustrated,"frustrated, not frustrated","more frustrated, less frustrated",NA,NA,NA,NA,NA,NA,NA,NA,NA,NA,NA,NA,NA,NA,NA,0,2,2,1,1,NA,NA,NA,NA,NA,NA,NA,NA,NA,NA,NA,NA,NA,NA,NA,NA,NA,NA,NA,NA,NA,NA,NA,NA,NA,NA,NA,NA
SUPAMT81404,3NVC2EB65WY7XUP19SP6KPK789S3Y7,B5578326-9373-4EF1-848E-DC1A8EA92B0E,2023-09-26_19h06.50.394,WP_VExplicitOC_HL,2022.2.5,Win32,4.933861585,NA,NA,NA,NA,NA,NA,NA,NA,NA,NA,NA,NA,NA,NA,NA,NA,NA,NA,NA,NA,NA,NA,NA,NA,NA,NA,NA,NA,NA,NA,NA,7,0,7,0,1,NA,NA,NA,NA,NA,NA,NA,NA,NA,NA,NA,NA,NA,NA,NA,NA,NA,NA,NA,NA,NA,NA,NA
SUPAMT81404,3NVC2EB65WY7XUP19SP6KPK789S3Y7,B5578326-9373-4EF1-848E-DC1A8EA92B0E,2023-09-26_19h06.50.394,WP_VExplicitOC_HL,2022.2.5,Win32,4.933861585,91.015625,6.2416,2.0848,NA,NA,NA,NA,NA,frustrated,"frustrated, not frustrated","more frustrated, less frustrated",NA,NA,NA,NA,NA,NA,NA,NA,NA,NA,NA,NA,NA,NA,NA,0,0,0,1,1,NA,NA,NA,NA,NA,NA,NA,NA,NA,NA,NA,NA,NA,NA,NA,NA,NA,NA,NA,NA,NA,NA,NA,NA,NA,NA,NA,NA
SUPAMT81404,3NVC2EB65WY7XUP19SP6KPK789S3Y7,B5578326-9373-4EF1-848E-DC1A8EA92B0E,2023-09-26_19h06.50.394,WP_VExplicitOC_HL,2022.2.5,Win32,4.933861585,91.6015625,3.6843,2.0785,NA,NA,NA,NA,NA,happy,"unhappy, happy","less happy, more happy",NA,NA,NA,NA,NA,NA,NA,NA,NA,NA,NA,NA,NA,NA,NA,0,1,1,0,1,NA,NA,NA,NA,NA,NA,NA,NA,NA,NA,NA,NA,NA,NA,NA,NA,NA,NA,NA,NA,NA,NA,NA,NA,NA,NA,NA,NA
SUPAMT81404,3NVC2EB65WY7XUP19SP6KPK789S3Y7,B5578326-9373-4EF1-848E-DC1A8EA92B0E,2023-09-26_19h06.50.394,WP_VExplicitOC_HL,2022.2.5,Win32,4.933861585,91.6015625,3.4452,2.0249,NA,NA,NA,NA,NA,bored,"bored, not bored","more bored, less bored",NA,NA,NA,NA,NA,NA,NA,NA,NA,NA,NA,NA,NA,NA,NA,0,2,2,2,1,NA,NA,NA,NA,NA,NA,NA,NA,NA,NA,NA,NA,NA,NA,NA,NA,NA,NA,NA,NA,NA,NA,NA,NA,NA,NA,NA,NA
SUPAMT81404,3NVC2EB65WY7XUP19SP6KPK789S3Y7,B5578326-9373-4EF1-848E-DC1A8EA92B0E,2023-09-26_19h06.50.394,WP_VExplicitOC_HL,2022.2.5,Win32,4.933861585,NA,NA,NA,NA,NA,NA,NA,NA,NA,NA,NA,NA,NA,NA,NA,NA,NA,NA,NA,NA,NA,NA,NA,NA,NA,NA,NA,NA,NA,NA,NA,8,0,8,0,1,NA,NA,NA,NA,NA,NA,NA,NA,NA,NA,NA,NA,NA,NA,NA,NA,NA,NA,NA,NA,NA,NA,NA
SUPAMT81404,3NVC2EB65WY7XUP19SP6KPK789S3Y7,B5578326-9373-4EF1-848E-DC1A8EA92B0E,2023-09-26_19h06.50.394,WP_VExplicitOC_HL,2022.2.5,Win32,4.933861585,88.4765625,6.1229,2.0206,NA,NA,NA,NA,NA,bored,"bored, not bored","more bored, less bored",NA,NA,NA,NA,NA,NA,NA,NA,NA,NA,NA,NA,NA,NA,NA,0,0,0,2,1,NA,NA,NA,NA,NA,NA,NA,NA,NA,NA,NA,NA,NA,NA,NA,NA,NA,NA,NA,NA,NA,NA,NA,NA,NA,NA,NA,NA
SUPAMT81404,3NVC2EB65WY7XUP19SP6KPK789S3Y7,B5578326-9373-4EF1-848E-DC1A8EA92B0E,2023-09-26_19h06.50.394,WP_VExplicitOC_HL,2022.2.5,Win32,4.933861585,80.859375,3.675,2.054,NA,NA,NA,NA,NA,happy,"unhappy, happy","less happy, more happy",NA,NA,NA,NA,NA,NA,NA,NA,NA,NA,NA,NA,NA,NA,NA,0,1,1,0,1,NA,NA,NA,NA,NA,NA,NA,NA,NA,NA,NA,NA,NA,NA,NA,NA,NA,NA,NA,NA,NA,NA,NA,NA,NA,NA,NA,NA
SUPAMT81404,3NVC2EB65WY7XUP19SP6KPK789S3Y7,B5578326-9373-4EF1-848E-DC1A8EA92B0E,2023-09-26_19h06.50.394,WP_VExplicitOC_HL,2022.2.5,Win32,4.933861585,84.765625,3.9533,2.0359,NA,NA,NA,NA,NA,frustrated,"frustrated, not frustrated","more frustrated, less frustrated",NA,NA,NA,NA,NA,NA,NA,NA,NA,NA,NA,NA,NA,NA,NA,0,2,2,1,1,NA,NA,NA,NA,NA,NA,NA,NA,NA,NA,NA,NA,NA,NA,NA,NA,NA,NA,NA,NA,NA,NA,NA,NA,NA,NA,NA,NA
SUPAMT81404,3NVC2EB65WY7XUP19SP6KPK789S3Y7,B5578326-9373-4EF1-848E-DC1A8EA92B0E,2023-09-26_19h06.50.394,WP_VExplicitOC_HL,2022.2.5,Win32,4.933861585,NA,NA,NA,NA,NA,NA,NA,NA,NA,NA,NA,NA,NA,NA,NA,NA,NA,NA,NA,NA,NA,NA,NA,NA,NA,NA,NA,NA,NA,NA,NA,9,0,9,0,1,NA,NA,NA,NA,NA,NA,NA,NA,NA,NA,NA,NA,NA,NA,NA,NA,NA,NA,NA,NA,NA,NA,NA
SUPAMT81404,3NVC2EB65WY7XUP19SP6KPK789S3Y7,B5578326-9373-4EF1-848E-DC1A8EA92B0E,2023-09-26_19h06.50.394,WP_VExplicitOC_HL,2022.2.5,Win32,4.933861585,92.7734375,4.0758,2.0526,NA,NA,NA,NA,NA,bored,"bored, not bored","more bored, less bored",NA,NA,NA,NA,NA,NA,NA,NA,NA,NA,NA,NA,NA,NA,NA,0,0,0,2,1,NA,NA,NA,NA,NA,NA,NA,NA,NA,NA,NA,NA,NA,NA,NA,NA,NA,NA,NA,NA,NA,NA,NA,NA,NA,NA,NA,NA
SUPAMT81404,3NVC2EB65WY7XUP19SP6KPK789S3Y7,B5578326-9373-4EF1-848E-DC1A8EA92B0E,2023-09-26_19h06.50.394,WP_VExplicitOC_HL,2022.2.5,Win32,4.933861585,83.7890625,4.1204,2.039,NA,NA,NA,NA,NA,happy,"unhappy, happy","less happy, more happy",NA,NA,NA,NA,NA,NA,NA,NA,NA,NA,NA,NA,NA,NA,NA,0,1,1,0,1,NA,NA,NA,NA,NA,NA,NA,NA,NA,NA,NA,NA,NA,NA,NA,NA,NA,NA,NA,NA,NA,NA,NA,NA,NA,NA,NA,NA
SUPAMT81404,3NVC2EB65WY7XUP19SP6KPK789S3Y7,B5578326-9373-4EF1-848E-DC1A8EA92B0E,2023-09-26_19h06.50.394,WP_VExplicitOC_HL,2022.2.5,Win32,4.933861585,89.0625,5.5651,2.111,NA,NA,NA,NA,NA,frustrated,"frustrated, not frustrated","more frustrated, less frustrated",NA,NA,NA,NA,NA,NA,NA,NA,NA,NA,NA,NA,NA,NA,NA,0,2,2,1,1,NA,NA,NA,NA,NA,NA,NA,NA,NA,NA,NA,NA,NA,NA,NA,NA,NA,NA,NA,NA,NA,NA,NA,NA,NA,NA,NA,NA
SUPAMT81404,3NVC2EB65WY7XUP19SP6KPK789S3Y7,B5578326-9373-4EF1-848E-DC1A8EA92B0E,2023-09-26_19h06.50.394,WP_VExplicitOC_HL,2022.2.5,Win32,4.933861585,NA,NA,NA,NA,NA,NA,NA,NA,NA,NA,NA,NA,NA,NA,NA,NA,NA,NA,NA,NA,NA,NA,NA,NA,NA,NA,NA,NA,NA,NA,NA,10,0,10,0,1,NA,NA,NA,NA,NA,NA,NA,NA,NA,NA,NA,NA,NA,NA,NA,NA,NA,NA,NA,NA,NA,NA,NA
SUPAMT81404,3NVC2EB65WY7XUP19SP6KPK789S3Y7,B5578326-9373-4EF1-848E-DC1A8EA92B0E,2023-09-26_19h06.50.394,WP_VExplicitOC_HL,2022.2.5,Win32,4.933861585,91.796875,3.9131,2.0527,NA,NA,NA,NA,NA,happy,"unhappy, happy","less happy, more happy",NA,NA,NA,NA,NA,NA,NA,NA,NA,NA,NA,NA,NA,NA,NA,0,0,0,0,1,NA,NA,NA,NA,NA,NA,NA,NA,NA,NA,NA,NA,NA,NA,NA,NA,NA,NA,NA,NA,NA,NA,NA,NA,NA,NA,NA,NA
SUPAMT81404,3NVC2EB65WY7XUP19SP6KPK789S3Y7,B5578326-9373-4EF1-848E-DC1A8EA92B0E,2023-09-26_19h06.50.394,WP_VExplicitOC_HL,2022.2.5,Win32,4.933861585,91.796875,5.0319,2.0314,NA,NA,NA,NA,NA,frustrated,"frustrated, not frustrated","more frustrated, less frustrated",NA,NA,NA,NA,NA,NA,NA,NA,NA,NA,NA,NA,NA,NA,NA,0,1,1,1,1,NA,NA,NA,NA,NA,NA,NA,NA,NA,NA,NA,NA,NA,NA,NA,NA,NA,NA,NA,NA,NA,NA,NA,NA,NA,NA,NA,NA
SUPAMT81404,3NVC2EB65WY7XUP19SP6KPK789S3Y7,B5578326-9373-4EF1-848E-DC1A8EA92B0E,2023-09-26_19h06.50.394,WP_VExplicitOC_HL,2022.2.5,Win32,4.933861585,91.796875,3.5094,2.0851,NA,NA,NA,NA,NA,bored,"bored, not bored","more bored, less bored",NA,NA,NA,NA,NA,NA,NA,NA,NA,NA,NA,NA,NA,NA,NA,0,2,2,2,1,NA,NA,NA,NA,NA,NA,NA,NA,NA,NA,NA,NA,NA,NA,NA,NA,NA,NA,NA,NA,NA,NA,NA,NA,NA,NA,NA,NA
SUPAMT81404,3NVC2EB65WY7XUP19SP6KPK789S3Y7,B5578326-9373-4EF1-848E-DC1A8EA92B0E,2023-09-26_19h06.50.394,WP_VExplicitOC_HL,2022.2.5,Win32,4.933861585,NA,NA,NA,NA,NA,NA,NA,NA,NA,NA,NA,NA,NA,NA,NA,NA,NA,NA,NA,NA,NA,NA,NA,NA,NA,NA,NA,NA,NA,NA,NA,11,0,11,0,1,NA,NA,NA,NA,NA,NA,NA,NA,NA,NA,NA,NA,NA,NA,NA,NA,NA,NA,NA,NA,NA,NA,NA
SUPAMT81404,3NVC2EB65WY7XUP19SP6KPK789S3Y7,B5578326-9373-4EF1-848E-DC1A8EA92B0E,2023-09-26_19h06.50.394,WP_VExplicitOC_HL,2022.2.5,Win32,4.933861585,82.2265625,4.0119,2.0123,NA,NA,NA,NA,NA,happy,"unhappy, happy","less happy, more happy",NA,NA,NA,NA,NA,NA,NA,NA,NA,NA,NA,NA,NA,NA,NA,0,0,0,0,1,NA,NA,NA,NA,NA,NA,NA,NA,NA,NA,NA,NA,NA,NA,NA,NA,NA,NA,NA,NA,NA,NA,NA,NA,NA,NA,NA,NA
SUPAMT81404,3NVC2EB65WY7XUP19SP6KPK789S3Y7,B5578326-9373-4EF1-848E-DC1A8EA92B0E,2023-09-26_19h06.50.394,WP_VExplicitOC_HL,2022.2.5,Win32,4.933861585,88.4765625,4.4428,2.0187,NA,NA,NA,NA,NA,frustrated,"frustrated, not frustrated","more frustrated, less frustrated",NA,NA,NA,NA,NA,NA,NA,NA,NA,NA,NA,NA,NA,NA,NA,0,1,1,1,1,NA,NA,NA,NA,NA,NA,NA,NA,NA,NA,NA,NA,NA,NA,NA,NA,NA,NA,NA,NA,NA,NA,NA,NA,NA,NA,NA,NA
SUPAMT81404,3NVC2EB65WY7XUP19SP6KPK789S3Y7,B5578326-9373-4EF1-848E-DC1A8EA92B0E,2023-09-26_19h06.50.394,WP_VExplicitOC_HL,2022.2.5,Win32,4.933861585,NA,NA,2.0706,NA,NA,NA,NA,NA,bored,"bored, not bored","more bored, less bored",NA,NA,NA,NA,NA,NA,NA,NA,NA,NA,NA,NA,NA,NA,NA,0,2,2,2,1,NA,NA,NA,NA,NA,NA,NA,NA,NA,NA,NA,NA,NA,NA,NA,NA,NA,NA,NA,NA,NA,NA,NA,NA,NA,NA,NA,NA
SUPAMT81404,3NVC2EB65WY7XUP19SP6KPK789S3Y7,B5578326-9373-4EF1-848E-DC1A8EA92B0E,2023-09-26_19h06.50.394,WP_VExplicitOC_HL,2022.2.5,Win32,4.933861585,NA,NA,NA,NA,NA,NA,NA,NA,NA,NA,NA,NA,NA,NA,NA,NA,NA,NA,NA,NA,NA,NA,NA,NA,NA,NA,NA,NA,NA,NA,NA,12,0,12,0,1,NA,NA,NA,NA,NA,NA,NA,NA,NA,NA,NA,NA,NA,NA,NA,NA,NA,NA,NA,NA,NA,NA,NA
SUPAMT81404,3NVC2EB65WY7XUP19SP6KPK789S3Y7,B5578326-9373-4EF1-848E-DC1A8EA92B0E,2023-09-26_19h06.50.394,WP_VExplicitOC_HL,2022.2.5,Win32,4.933861585,89.0625,3.6895,2.0428,NA,NA,NA,NA,NA,frustrated,"frustrated, not frustrated","more frustrated, less frustrated",NA,NA,NA,NA,NA,NA,NA,NA,NA,NA,NA,NA,NA,NA,NA,0,0,0,1,1,NA,NA,NA,NA,NA,NA,NA,NA,NA,NA,NA,NA,NA,NA,NA,NA,NA,NA,NA,NA,NA,NA,NA,NA,NA,NA,NA,NA
SUPAMT81404,3NVC2EB65WY7XUP19SP6KPK789S3Y7,B5578326-9373-4EF1-848E-DC1A8EA92B0E,2023-09-26_19h06.50.394,WP_VExplicitOC_HL,2022.2.5,Win32,4.933861585,90.0390625,4.0469,2.015,NA,NA,NA,NA,NA,happy,"unhappy, happy","less happy, more happy",NA,NA,NA,NA,NA,NA,NA,NA,NA,NA,NA,NA,NA,NA,NA,0,1,1,0,1,NA,NA,NA,NA,NA,NA,NA,NA,NA,NA,NA,NA,NA,NA,NA,NA,NA,NA,NA,NA,NA,NA,NA,NA,NA,NA,NA,NA
SUPAMT81404,3NVC2EB65WY7XUP19SP6KPK789S3Y7,B5578326-9373-4EF1-848E-DC1A8EA92B0E,2023-09-26_19h06.50.394,WP_VExplicitOC_HL,2022.2.5,Win32,4.933861585,90.0390625,3.83,2.0225,NA,NA,NA,NA,NA,bored,"bored, not bored","more bored, less bored",NA,NA,NA,NA,NA,NA,NA,NA,NA,NA,NA,NA,NA,NA,NA,0,2,2,2,1,NA,NA,NA,NA,NA,NA,NA,NA,NA,NA,NA,NA,NA,NA,NA,NA,NA,NA,NA,NA,NA,NA,NA,NA,NA,NA,NA,NA
SUPAMT81404,3NVC2EB65WY7XUP19SP6KPK789S3Y7,B5578326-9373-4EF1-848E-DC1A8EA92B0E,2023-09-26_19h06.50.394,WP_VExplicitOC_HL,2022.2.5,Win32,4.933861585,NA,NA,NA,NA,NA,NA,NA,NA,NA,NA,NA,NA,NA,NA,NA,NA,NA,NA,NA,NA,NA,NA,NA,NA,NA,NA,NA,NA,NA,NA,NA,13,0,13,0,1,NA,NA,NA,NA,NA,NA,NA,NA,NA,NA,NA,NA,NA,NA,NA,NA,NA,NA,NA,NA,NA,NA,NA
SUPAMT81404,3NVC2EB65WY7XUP19SP6KPK789S3Y7,B5578326-9373-4EF1-848E-DC1A8EA92B0E,2023-09-26_19h06.50.394,WP_VExplicitOC_HL,2022.2.5,Win32,4.933861585,83.984375,4.25,2.0349,NA,NA,NA,NA,NA,happy,"unhappy, happy","less happy, more happy",NA,NA,NA,NA,NA,NA,NA,NA,NA,NA,NA,NA,NA,NA,NA,0,0,0,0,1,NA,NA,NA,NA,NA,NA,NA,NA,NA,NA,NA,NA,NA,NA,NA,NA,NA,NA,NA,NA,NA,NA,NA,NA,NA,NA,NA,NA
SUPAMT81404,3NVC2EB65WY7XUP19SP6KPK789S3Y7,B5578326-9373-4EF1-848E-DC1A8EA92B0E,2023-09-26_19h06.50.394,WP_VExplicitOC_HL,2022.2.5,Win32,4.933861585,83.984375,3.4593,2.0747,NA,NA,NA,NA,NA,bored,"bored, not bored","more bored, less bored",NA,NA,NA,NA,NA,NA,NA,NA,NA,NA,NA,NA,NA,NA,NA,0,1,1,2,1,NA,NA,NA,NA,NA,NA,NA,NA,NA,NA,NA,NA,NA,NA,NA,NA,NA,NA,NA,NA,NA,NA,NA,NA,NA,NA,NA,NA
SUPAMT81404,3NVC2EB65WY7XUP19SP6KPK789S3Y7,B5578326-9373-4EF1-848E-DC1A8EA92B0E,2023-09-26_19h06.50.394,WP_VExplicitOC_HL,2022.2.5,Win32,4.933861585,83.984375,3.3751,2.0534,NA,NA,NA,NA,NA,frustrated,"frustrated, not frustrated","more frustrated, less frustrated",NA,NA,NA,NA,NA,NA,NA,NA,NA,NA,NA,NA,NA,NA,NA,0,2,2,1,1,NA,NA,NA,NA,NA,NA,NA,NA,NA,NA,NA,NA,NA,NA,NA,NA,NA,NA,NA,NA,NA,NA,NA,NA,NA,NA,NA,NA
SUPAMT81404,3NVC2EB65WY7XUP19SP6KPK789S3Y7,B5578326-9373-4EF1-848E-DC1A8EA92B0E,2023-09-26_19h06.50.394,WP_VExplicitOC_HL,2022.2.5,Win32,4.933861585,NA,NA,NA,NA,NA,NA,NA,NA,NA,NA,NA,NA,NA,NA,NA,NA,NA,NA,NA,NA,NA,NA,NA,NA,NA,NA,NA,NA,NA,NA,NA,14,0,14,0,1,NA,NA,NA,NA,NA,NA,NA,NA,NA,NA,NA,NA,NA,NA,NA,NA,NA,NA,NA,NA,NA,NA,NA
SUPAMT81404,3NVC2EB65WY7XUP19SP6KPK789S3Y7,B5578326-9373-4EF1-848E-DC1A8EA92B0E,2023-09-26_19h06.50.394,WP_VExplicitOC_HL,2022.2.5,Win32,4.933861585,NA,NA,NA,NA,NA,NA,NA,NA,NA,NA,NA,NA,NA,NA,NA,NA,NA,NA,NA,NA,NA,NA,NA,NA,NA,NA,NA,NA,NA,NA,NA,NA,NA,NA,NA,NA,NA,NA,NA,NA,NA,NA,NA,NA,NA,NA,NA,NA,NA,NA,NA,NA,NA,NA,NA,NA,NA,NA,NA
SUPAMT81404,3NVC2EB65WY7XUP19SP6KPK789S3Y7,B5578326-9373-4EF1-848E-DC1A8EA92B0E,2023-09-26_19h06.50.394,WP_VExplicitOC_HL,2022.2.5,Win32,4.933861585,NA,NA,NA,NA,NA,NA,NA,NA,NA,NA,NA,NA,NA,NA,NA,NA,NA,NA,NA,NA,NA,NA,NA,NA,NA,NA,NA,NA,NA,NA,NA,NA,NA,NA,NA,NA,NA,NA,NA,NA,NA,NA,NA,NA,NA,NA,NA,NA,NA,NA,NA,NA,NA,NA,NA,NA,NA,NA,NA
SUPAMT81404,3NVC2EB65WY7XUP19SP6KPK789S3Y7,B5578326-9373-4EF1-848E-DC1A8EA92B0E,2023-09-26_19h06.50.394,WP_VExplicitOC_HL,2022.2.5,Win32,4.933861585,NA,NA,NA,NA,NA,NA,NA,NA,NA,NA,NA,NA,NA,NA,NA,NA,NA,NA,rest (looking at a fixed cross),001.png,NA,NA,NA,NA,NA,NA,NA,NA,NA,NA,NA,NA,NA,NA,NA,NA,83.984375,1.4955,0,0,0,0,1,NA,NA,NA,NA,NA,NA,NA,NA,NA,NA,NA,NA,NA,NA,NA,NA
SUPAMT81404,3NVC2EB65WY7XUP19SP6KPK789S3Y7,B5578326-9373-4EF1-848E-DC1A8EA92B0E,2023-09-26_19h06.50.394,WP_VExplicitOC_HL,2022.2.5,Win32,4.933861585,NA,NA,NA,NA,NA,NA,NA,NA,NA,NA,NA,NA,NA,NA,NA,NA,NA,NA,stand up,002.png,NA,NA,NA,NA,NA,NA,NA,NA,NA,NA,NA,NA,NA,NA,NA,NA,83.984375,1.7204,0,1,1,1,1,NA,NA,NA,NA,NA,NA,NA,NA,NA,NA,NA,NA,NA,NA,NA,NA
SUPAMT81404,3NVC2EB65WY7XUP19SP6KPK789S3Y7,B5578326-9373-4EF1-848E-DC1A8EA92B0E,2023-09-26_19h06.50.394,WP_VExplicitOC_HL,2022.2.5,Win32,4.933861585,NA,NA,NA,NA,NA,NA,NA,NA,NA,NA,NA,NA,NA,NA,NA,NA,NA,NA,stretch,003.png,NA,NA,NA,NA,NA,NA,NA,NA,NA,NA,NA,NA,NA,NA,NA,NA,83.984375,1.0022,0,2,2,2,1,NA,NA,NA,NA,NA,NA,NA,NA,NA,NA,NA,NA,NA,NA,NA,NA
SUPAMT81404,3NVC2EB65WY7XUP19SP6KPK789S3Y7,B5578326-9373-4EF1-848E-DC1A8EA92B0E,2023-09-26_19h06.50.394,WP_VExplicitOC_HL,2022.2.5,Win32,4.933861585,NA,NA,NA,NA,NA,NA,NA,NA,NA,NA,NA,NA,NA,NA,NA,NA,NA,NA,make a drink,004.png,NA,NA,NA,NA,NA,NA,NA,NA,NA,NA,NA,NA,NA,NA,NA,NA,83.984375,0.7626,0,3,3,3,1,NA,NA,NA,NA,NA,NA,NA,NA,NA,NA,NA,NA,NA,NA,NA,NA
SUPAMT81404,3NVC2EB65WY7XUP19SP6KPK789S3Y7,B5578326-9373-4EF1-848E-DC1A8EA92B0E,2023-09-26_19h06.50.394,WP_VExplicitOC_HL,2022.2.5,Win32,4.933861585,NA,NA,NA,NA,NA,NA,NA,NA,NA,NA,NA,NA,NA,NA,NA,NA,NA,NA,scroll social media,005.png,NA,NA,NA,NA,NA,NA,NA,NA,NA,NA,NA,NA,NA,NA,NA,NA,83.984375,0.8623,0,4,4,4,1,NA,NA,NA,NA,NA,NA,NA,NA,NA,NA,NA,NA,NA,NA,NA,NA
SUPAMT81404,3NVC2EB65WY7XUP19SP6KPK789S3Y7,B5578326-9373-4EF1-848E-DC1A8EA92B0E,2023-09-26_19h06.50.394,WP_VExplicitOC_HL,2022.2.5,Win32,4.933861585,NA,NA,NA,NA,NA,NA,NA,NA,NA,NA,NA,NA,NA,NA,NA,NA,NA,NA,listen to music,006.png,NA,NA,NA,NA,NA,NA,NA,NA,NA,NA,NA,NA,NA,NA,NA,NA,83.984375,0.8352,0,5,5,5,1,NA,NA,NA,NA,NA,NA,NA,NA,NA,NA,NA,NA,NA,NA,NA,NA
SUPAMT81404,3NVC2EB65WY7XUP19SP6KPK789S3Y7,B5578326-9373-4EF1-848E-DC1A8EA92B0E,2023-09-26_19h06.50.394,WP_VExplicitOC_HL,2022.2.5,Win32,4.933861585,NA,NA,NA,NA,NA,NA,NA,NA,NA,NA,NA,NA,NA,NA,NA,NA,NA,NA,daydream,007.png,NA,NA,NA,NA,NA,NA,NA,NA,NA,NA,NA,NA,NA,NA,NA,NA,83.984375,0.8738,0,6,6,6,1,NA,NA,NA,NA,NA,NA,NA,NA,NA,NA,NA,NA,NA,NA,NA,NA
SUPAMT81404,3NVC2EB65WY7XUP19SP6KPK789S3Y7,B5578326-9373-4EF1-848E-DC1A8EA92B0E,2023-09-26_19h06.50.394,WP_VExplicitOC_HL,2022.2.5,Win32,4.933861585,NA,NA,NA,NA,NA,NA,NA,NA,NA,NA,NA,NA,NA,NA,NA,NA,NA,NA,watch a short animation,008.png,NA,NA,NA,NA,NA,NA,NA,NA,NA,NA,NA,NA,NA,NA,NA,NA,83.984375,0.7405,0,7,7,7,1,NA,NA,NA,NA,NA,NA,NA,NA,NA,NA,NA,NA,NA,NA,NA,NA
SUPAMT81404,3NVC2EB65WY7XUP19SP6KPK789S3Y7,B5578326-9373-4EF1-848E-DC1A8EA92B0E,2023-09-26_19h06.50.394,WP_VExplicitOC_HL,2022.2.5,Win32,4.933861585,NA,NA,NA,NA,NA,NA,NA,NA,NA,NA,NA,NA,NA,NA,NA,NA,NA,NA,read a novel,009.png,NA,NA,NA,NA,NA,NA,NA,NA,NA,NA,NA,NA,NA,NA,NA,NA,83.984375,0.7838,0,8,8,8,1,NA,NA,NA,NA,NA,NA,NA,NA,NA,NA,NA,NA,NA,NA,NA,NA
SUPAMT81404,3NVC2EB65WY7XUP19SP6KPK789S3Y7,B5578326-9373-4EF1-848E-DC1A8EA92B0E,2023-09-26_19h06.50.394,WP_VExplicitOC_HL,2022.2.5,Win32,4.933861585,NA,NA,NA,NA,NA,NA,NA,NA,NA,NA,NA,NA,NA,NA,NA,NA,NA,NA,read the news,010.png,NA,NA,NA,NA,NA,NA,NA,NA,NA,NA,NA,NA,NA,NA,NA,NA,83.984375,0.7656,0,9,9,9,1,NA,NA,NA,NA,NA,NA,NA,NA,NA,NA,NA,NA,NA,NA,NA,NA
SUPAMT81404,3NVC2EB65WY7XUP19SP6KPK789S3Y7,B5578326-9373-4EF1-848E-DC1A8EA92B0E,2023-09-26_19h06.50.394,WP_VExplicitOC_HL,2022.2.5,Win32,4.933861585,NA,NA,NA,NA,NA,NA,NA,NA,NA,NA,NA,NA,NA,NA,NA,NA,NA,NA,NA,NA,NA,NA,NA,NA,NA,NA,NA,NA,NA,NA,NA,NA,NA,NA,NA,NA,NA,NA,NA,NA,NA,NA,NA,stand up,NA,NA,NA,NA,NA,NA,NA,NA,NA,NA,NA,NA,NA,NA,NA
SUPAMT81404,3NVC2EB65WY7XUP19SP6KPK789S3Y7,B5578326-9373-4EF1-848E-DC1A8EA92B0E,2023-09-26_19h06.50.394,WP_VExplicitOC_HL,2022.2.5,Win32,4.933861585,78.90625,4.2691,2.0489,NA,NA,NA,NA,NA,bored,"bored, not bored","more bored, less bored",NA,NA,NA,NA,NA,NA,NA,NA,NA,NA,NA,NA,NA,NA,NA,NA,NA,NA,NA,NA,NA,NA,NA,NA,NA,NA,NA,NA,NA,NA,NA,NA,NA,0,0,0,2,1,NA,NA,NA,NA,NA,NA,NA,NA,NA,NA
SUPAMT81404,3NVC2EB65WY7XUP19SP6KPK789S3Y7,B5578326-9373-4EF1-848E-DC1A8EA92B0E,2023-09-26_19h06.50.394,WP_VExplicitOC_HL,2022.2.5,Win32,4.933861585,78.90625,4.9195,2.0602,NA,NA,NA,NA,NA,frustrated,"frustrated, not frustrated","more frustrated, less frustrated",NA,NA,NA,NA,NA,NA,NA,NA,NA,NA,NA,NA,NA,NA,NA,NA,NA,NA,NA,NA,NA,NA,NA,NA,NA,NA,NA,NA,NA,NA,NA,NA,NA,0,1,1,1,1,NA,NA,NA,NA,NA,NA,NA,NA,NA,NA
SUPAMT81404,3NVC2EB65WY7XUP19SP6KPK789S3Y7,B5578326-9373-4EF1-848E-DC1A8EA92B0E,2023-09-26_19h06.50.394,WP_VExplicitOC_HL,2022.2.5,Win32,4.933861585,78.90625,3.2246,2.0283,NA,NA,NA,NA,NA,happy,"unhappy, happy","less happy, more happy",NA,NA,NA,NA,NA,NA,NA,NA,NA,NA,NA,NA,NA,NA,NA,NA,NA,NA,NA,NA,NA,NA,NA,NA,NA,NA,NA,NA,NA,NA,NA,NA,NA,0,2,2,0,1,NA,NA,NA,NA,NA,NA,NA,NA,NA,NA
SUPAMT81404,3NVC2EB65WY7XUP19SP6KPK789S3Y7,B5578326-9373-4EF1-848E-DC1A8EA92B0E,2023-09-26_19h06.50.394,WP_VExplicitOC_HL,2022.2.5,Win32,4.933861585,NA,NA,NA,NA,NA,NA,NA,NA,NA,NA,NA,NA,NA,NA,NA,NA,NA,NA,NA,NA,NA,NA,NA,NA,NA,NA,NA,NA,NA,NA,NA,NA,NA,NA,NA,NA,NA,NA,NA,NA,NA,NA,NA,NA,NA,NA,NA,NA,NA,NA,NA,NA,NA,NA,NA,NA,NA,NA,NA
SUPAMT81404,3NVC2EB65WY7XUP19SP6KPK789S3Y7,B5578326-9373-4EF1-848E-DC1A8EA92B0E,2023-09-26_19h06.50.394,WP_VExplicitOC_HL,2022.2.5,Win32,4.933861585,NA,NA,NA,NA,NA,NA,NA,NA,NA,NA,NA,NA,NA,NA,NA,NA,NA,NA,NA,NA,NA,NA,NA,NA,NA,NA,NA,NA,NA,NA,NA,NA,NA,NA,NA,NA,NA,NA,NA,NA,NA,NA,NA,NA,NA,NA,NA,NA,NA,NA,NA,NA,NA,NA,NA,NA,NA,NA,NA
SUPAMT81404,3NVC2EB65WY7XUP19SP6KPK789S3Y7,B5578326-9373-4EF1-848E-DC1A8EA92B0E,2023-09-26_19h06.50.394,WP_VExplicitOC_HL,2022.2.5,Win32,4.933861585,78.90625,3.9894,2.0806,NA,NA,NA,NA,NA,happy,"unhappy, happy","less happy, more happy",NA,NA,NA,NA,NA,NA,NA,NA,NA,NA,NA,NA,NA,NA,NA,NA,NA,NA,NA,NA,NA,NA,NA,NA,NA,NA,NA,NA,NA,NA,NA,NA,NA,NA,NA,NA,NA,NA,0,0,0,0,1,NA,NA,NA,NA,NA
SUPAMT81404,3NVC2EB65WY7XUP19SP6KPK789S3Y7,B5578326-9373-4EF1-848E-DC1A8EA92B0E,2023-09-26_19h06.50.394,WP_VExplicitOC_HL,2022.2.5,Win32,4.933861585,78.90625,3.2738,2.0018,NA,NA,NA,NA,NA,frustrated,"frustrated, not frustrated","more frustrated, less frustrated",NA,NA,NA,NA,NA,NA,NA,NA,NA,NA,NA,NA,NA,NA,NA,NA,NA,NA,NA,NA,NA,NA,NA,NA,NA,NA,NA,NA,NA,NA,NA,NA,NA,NA,NA,NA,NA,NA,0,1,1,1,1,NA,NA,NA,NA,NA
SUPAMT81404,3NVC2EB65WY7XUP19SP6KPK789S3Y7,B5578326-9373-4EF1-848E-DC1A8EA92B0E,2023-09-26_19h06.50.394,WP_VExplicitOC_HL,2022.2.5,Win32,4.933861585,78.90625,3.2315,2.0497,NA,NA,NA,NA,NA,bored,"bored, not bored","more bored, less bored",NA,NA,NA,NA,NA,NA,NA,NA,NA,NA,NA,NA,NA,NA,NA,NA,NA,NA,NA,NA,NA,NA,NA,NA,NA,NA,NA,NA,NA,NA,NA,NA,NA,NA,NA,NA,NA,NA,0,2,2,2,1,NA,NA,NA,NA,NA
SUPAMT81404,3NVC2EB65WY7XUP19SP6KPK789S3Y7,B5578326-9373-4EF1-848E-DC1A8EA92B0E,2023-09-26_19h06.50.394,WP_VExplicitOC_HL,2022.2.5,Win32,4.933861585,NA,NA,NA,NA,NA,NA,NA,NA,NA,NA,NA,NA,NA,NA,NA,NA,NA,NA,NA,NA,NA,NA,NA,NA,NA,NA,NA,NA,NA,NA,NA,NA,NA,NA,NA,NA,NA,NA,NA,NA,NA,NA,NA,NA,NA,NA,NA,NA,NA,NA,NA,NA,NA,NA,0,0,0,0,1
SUPAMT81404,3NVC2EB65WY7XUP19SP6KPK789S3Y7,B5578326-9373-4EF1-848E-DC1A8EA92B0E,2023-09-26_19h06.50.394,WP_VExplicitOC_HL,2022.2.5,Win32,4.933861585,29.4921875,2.7489,2.07,NA,NA,NA,NA,NA,bored,"bored, not bored","more bored, less bored",NA,NA,NA,NA,NA,NA,NA,NA,NA,NA,NA,NA,NA,NA,NA,NA,NA,NA,NA,NA,NA,NA,NA,NA,NA,NA,NA,NA,NA,NA,NA,NA,NA,NA,NA,NA,NA,NA,0,0,0,2,1,NA,NA,NA,NA,NA
SUPAMT81404,3NVC2EB65WY7XUP19SP6KPK789S3Y7,B5578326-9373-4EF1-848E-DC1A8EA92B0E,2023-09-26_19h06.50.394,WP_VExplicitOC_HL,2022.2.5,Win32,4.933861585,68.1640625,4.5063,2.0124,NA,NA,NA,NA,NA,happy,"unhappy, happy","less happy, more happy",NA,NA,NA,NA,NA,NA,NA,NA,NA,NA,NA,NA,NA,NA,NA,NA,NA,NA,NA,NA,NA,NA,NA,NA,NA,NA,NA,NA,NA,NA,NA,NA,NA,NA,NA,NA,NA,NA,0,1,1,0,1,NA,NA,NA,NA,NA
SUPAMT81404,3NVC2EB65WY7XUP19SP6KPK789S3Y7,B5578326-9373-4EF1-848E-DC1A8EA92B0E,2023-09-26_19h06.50.394,WP_VExplicitOC_HL,2022.2.5,Win32,4.933861585,68.1640625,3.2418,2.0899,NA,NA,NA,NA,NA,frustrated,"frustrated, not frustrated","more frustrated, less frustrated",NA,NA,NA,NA,NA,NA,NA,NA,NA,NA,NA,NA,NA,NA,NA,NA,NA,NA,NA,NA,NA,NA,NA,NA,NA,NA,NA,NA,NA,NA,NA,NA,NA,NA,NA,NA,NA,NA,0,2,2,1,1,NA,NA,NA,NA,NA
SUPAMT81404,3NVC2EB65WY7XUP19SP6KPK789S3Y7,B5578326-9373-4EF1-848E-DC1A8EA92B0E,2023-09-26_19h06.50.394,WP_VExplicitOC_HL,2022.2.5,Win32,4.933861585,NA,NA,NA,NA,NA,NA,NA,NA,NA,NA,NA,NA,NA,NA,NA,NA,NA,NA,NA,NA,NA,NA,NA,NA,NA,NA,NA,NA,NA,NA,NA,NA,NA,NA,NA,NA,NA,NA,NA,NA,NA,NA,NA,NA,NA,NA,NA,NA,NA,NA,NA,NA,NA,NA,1,0,1,0,1
SUPAMT81404,3NVC2EB65WY7XUP19SP6KPK789S3Y7,B5578326-9373-4EF1-848E-DC1A8EA92B0E,2023-09-26_19h06.50.394,WP_VExplicitOC_HL,2022.2.5,Win32,4.933861585,88.0859375,3.9738,2.0411,NA,NA,NA,NA,NA,frustrated,"frustrated, not frustrated","more frustrated, less frustrated",NA,NA,NA,NA,NA,NA,NA,NA,NA,NA,NA,NA,NA,NA,NA,NA,NA,NA,NA,NA,NA,NA,NA,NA,NA,NA,NA,NA,NA,NA,NA,NA,NA,NA,NA,NA,NA,NA,0,0,0,1,1,NA,NA,NA,NA,NA
SUPAMT81404,3NVC2EB65WY7XUP19SP6KPK789S3Y7,B5578326-9373-4EF1-848E-DC1A8EA92B0E,2023-09-26_19h06.50.394,WP_VExplicitOC_HL,2022.2.5,Win32,4.933861585,88.0859375,3.5171,2.055,NA,NA,NA,NA,NA,bored,"bored, not bored","more bored, less bored",NA,NA,NA,NA,NA,NA,NA,NA,NA,NA,NA,NA,NA,NA,NA,NA,NA,NA,NA,NA,NA,NA,NA,NA,NA,NA,NA,NA,NA,NA,NA,NA,NA,NA,NA,NA,NA,NA,0,1,1,2,1,NA,NA,NA,NA,NA
SUPAMT81404,3NVC2EB65WY7XUP19SP6KPK789S3Y7,B5578326-9373-4EF1-848E-DC1A8EA92B0E,2023-09-26_19h06.50.394,WP_VExplicitOC_HL,2022.2.5,Win32,4.933861585,88.0859375,3.1124,2.0195,NA,NA,NA,NA,NA,happy,"unhappy, happy","less happy, more happy",NA,NA,NA,NA,NA,NA,NA,NA,NA,NA,NA,NA,NA,NA,NA,NA,NA,NA,NA,NA,NA,NA,NA,NA,NA,NA,NA,NA,NA,NA,NA,NA,NA,NA,NA,NA,NA,NA,0,2,2,0,1,NA,NA,NA,NA,NA
SUPAMT81404,3NVC2EB65WY7XUP19SP6KPK789S3Y7,B5578326-9373-4EF1-848E-DC1A8EA92B0E,2023-09-26_19h06.50.394,WP_VExplicitOC_HL,2022.2.5,Win32,4.933861585,NA,NA,NA,NA,NA,NA,NA,NA,NA,NA,NA,NA,NA,NA,NA,NA,NA,NA,NA,NA,NA,NA,NA,NA,NA,NA,NA,NA,NA,NA,NA,NA,NA,NA,NA,NA,NA,NA,NA,NA,NA,NA,NA,NA,NA,NA,NA,NA,NA,NA,NA,NA,NA,NA,2,0,2,0,1
SUPAMT81404,3NVC2EB65WY7XUP19SP6KPK789S3Y7,B5578326-9373-4EF1-848E-DC1A8EA92B0E,2023-09-26_19h06.50.394,WP_VExplicitOC_HL,2022.2.5,Win32,4.933861585,91.015625,3.806,2.0238,NA,NA,NA,NA,NA,happy,"unhappy, happy","less happy, more happy",NA,NA,NA,NA,NA,NA,NA,NA,NA,NA,NA,NA,NA,NA,NA,NA,NA,NA,NA,NA,NA,NA,NA,NA,NA,NA,NA,NA,NA,NA,NA,NA,NA,NA,NA,NA,NA,NA,0,0,0,0,1,NA,NA,NA,NA,NA
SUPAMT81404,3NVC2EB65WY7XUP19SP6KPK789S3Y7,B5578326-9373-4EF1-848E-DC1A8EA92B0E,2023-09-26_19h06.50.394,WP_VExplicitOC_HL,2022.2.5,Win32,4.933861585,91.015625,3.3963,2.0356,NA,NA,NA,NA,NA,bored,"bored, not bored","more bored, less bored",NA,NA,NA,NA,NA,NA,NA,NA,NA,NA,NA,NA,NA,NA,NA,NA,NA,NA,NA,NA,NA,NA,NA,NA,NA,NA,NA,NA,NA,NA,NA,NA,NA,NA,NA,NA,NA,NA,0,1,1,2,1,NA,NA,NA,NA,NA
SUPAMT81404,3NVC2EB65WY7XUP19SP6KPK789S3Y7,B5578326-9373-4EF1-848E-DC1A8EA92B0E,2023-09-26_19h06.50.394,WP_VExplicitOC_HL,2022.2.5,Win32,4.933861585,86.9140625,3.6867,2.0607,NA,NA,NA,NA,NA,frustrated,"frustrated, not frustrated","more frustrated, less frustrated",NA,NA,NA,NA,NA,NA,NA,NA,NA,NA,NA,NA,NA,NA,NA,NA,NA,NA,NA,NA,NA,NA,NA,NA,NA,NA,NA,NA,NA,NA,NA,NA,NA,NA,NA,NA,NA,NA,0,2,2,1,1,NA,NA,NA,NA,NA
SUPAMT81404,3NVC2EB65WY7XUP19SP6KPK789S3Y7,B5578326-9373-4EF1-848E-DC1A8EA92B0E,2023-09-26_19h06.50.394,WP_VExplicitOC_HL,2022.2.5,Win32,4.933861585,NA,NA,NA,NA,NA,NA,NA,NA,NA,NA,NA,NA,NA,NA,NA,NA,NA,NA,NA,NA,NA,NA,NA,NA,NA,NA,NA,NA,NA,NA,NA,NA,NA,NA,NA,NA,NA,NA,NA,NA,NA,NA,NA,NA,NA,NA,NA,NA,NA,NA,NA,NA,NA,NA,3,0,3,0,1
SUPAMT81404,3NVC2EB65WY7XUP19SP6KPK789S3Y7,B5578326-9373-4EF1-848E-DC1A8EA92B0E,2023-09-26_19h06.50.394,WP_VExplicitOC_HL,2022.2.5,Win32,4.933861585,76.5625,3.7359,2.0038,NA,NA,NA,NA,NA,frustrated,"frustrated, not frustrated","more frustrated, less frustrated",NA,NA,NA,NA,NA,NA,NA,NA,NA,NA,NA,NA,NA,NA,NA,NA,NA,NA,NA,NA,NA,NA,NA,NA,NA,NA,NA,NA,NA,NA,NA,NA,NA,NA,NA,NA,NA,NA,0,0,0,1,1,NA,NA,NA,NA,NA
SUPAMT81404,3NVC2EB65WY7XUP19SP6KPK789S3Y7,B5578326-9373-4EF1-848E-DC1A8EA92B0E,2023-09-26_19h06.50.394,WP_VExplicitOC_HL,2022.2.5,Win32,4.933861585,76.5625,3.2824,2.0141,NA,NA,NA,NA,NA,bored,"bored, not bored","more bored, less bored",NA,NA,NA,NA,NA,NA,NA,NA,NA,NA,NA,NA,NA,NA,NA,NA,NA,NA,NA,NA,NA,NA,NA,NA,NA,NA,NA,NA,NA,NA,NA,NA,NA,NA,NA,NA,NA,NA,0,1,1,2,1,NA,NA,NA,NA,NA
SUPAMT81404,3NVC2EB65WY7XUP19SP6KPK789S3Y7,B5578326-9373-4EF1-848E-DC1A8EA92B0E,2023-09-26_19h06.50.394,WP_VExplicitOC_HL,2022.2.5,Win32,4.933861585,76.5625,3.1278,2.064,NA,NA,NA,NA,NA,happy,"unhappy, happy","less happy, more happy",NA,NA,NA,NA,NA,NA,NA,NA,NA,NA,NA,NA,NA,NA,NA,NA,NA,NA,NA,NA,NA,NA,NA,NA,NA,NA,NA,NA,NA,NA,NA,NA,NA,NA,NA,NA,NA,NA,0,2,2,0,1,NA,NA,NA,NA,NA
SUPAMT81404,3NVC2EB65WY7XUP19SP6KPK789S3Y7,B5578326-9373-4EF1-848E-DC1A8EA92B0E,2023-09-26_19h06.50.394,WP_VExplicitOC_HL,2022.2.5,Win32,4.933861585,NA,NA,NA,NA,NA,NA,NA,NA,NA,NA,NA,NA,NA,NA,NA,NA,NA,NA,NA,NA,NA,NA,NA,NA,NA,NA,NA,NA,NA,NA,NA,NA,NA,NA,NA,NA,NA,NA,NA,NA,NA,NA,NA,NA,NA,NA,NA,NA,NA,NA,NA,NA,NA,NA,4,0,4,0,1
SUPAMT81404,3NVC2EB65WY7XUP19SP6KPK789S3Y7,B5578326-9373-4EF1-848E-DC1A8EA92B0E,2023-09-26_19h06.50.394,WP_VExplicitOC_HL,2022.2.5,Win32,4.933861585,72.8515625,3.6516,2.0014,NA,NA,NA,NA,NA,bored,"bored, not bored","more bored, less bored",NA,NA,NA,NA,NA,NA,NA,NA,NA,NA,NA,NA,NA,NA,NA,NA,NA,NA,NA,NA,NA,NA,NA,NA,NA,NA,NA,NA,NA,NA,NA,NA,NA,NA,NA,NA,NA,NA,0,0,0,2,1,NA,NA,NA,NA,NA
SUPAMT81404,3NVC2EB65WY7XUP19SP6KPK789S3Y7,B5578326-9373-4EF1-848E-DC1A8EA92B0E,2023-09-26_19h06.50.394,WP_VExplicitOC_HL,2022.2.5,Win32,4.933861585,72.8515625,4.2202,2.0548,NA,NA,NA,NA,NA,frustrated,"frustrated, not frustrated","more frustrated, less frustrated",NA,NA,NA,NA,NA,NA,NA,NA,NA,NA,NA,NA,NA,NA,NA,NA,NA,NA,NA,NA,NA,NA,NA,NA,NA,NA,NA,NA,NA,NA,NA,NA,NA,NA,NA,NA,NA,NA,0,1,1,1,1,NA,NA,NA,NA,NA
SUPAMT81404,3NVC2EB65WY7XUP19SP6KPK789S3Y7,B5578326-9373-4EF1-848E-DC1A8EA92B0E,2023-09-26_19h06.50.394,WP_VExplicitOC_HL,2022.2.5,Win32,4.933861585,72.8515625,3.4585,2.0587,NA,NA,NA,NA,NA,happy,"unhappy, happy","less happy, more happy",NA,NA,NA,NA,NA,NA,NA,NA,NA,NA,NA,NA,NA,NA,NA,NA,NA,NA,NA,NA,NA,NA,NA,NA,NA,NA,NA,NA,NA,NA,NA,NA,NA,NA,NA,NA,NA,NA,0,2,2,0,1,NA,NA,NA,NA,NA
SUPAMT81404,3NVC2EB65WY7XUP19SP6KPK789S3Y7,B5578326-9373-4EF1-848E-DC1A8EA92B0E,2023-09-26_19h06.50.394,WP_VExplicitOC_HL,2022.2.5,Win32,4.933861585,NA,NA,NA,NA,NA,NA,NA,NA,NA,NA,NA,NA,NA,NA,NA,NA,NA,NA,NA,NA,NA,NA,NA,NA,NA,NA,NA,NA,NA,NA,NA,NA,NA,NA,NA,NA,NA,NA,NA,NA,NA,NA,NA,NA,NA,NA,NA,NA,NA,NA,NA,NA,NA,NA,5,0,5,0,1
SUPAMT81404,3NVC2EB65WY7XUP19SP6KPK789S3Y7,B5578326-9373-4EF1-848E-DC1A8EA92B0E,2023-09-26_19h06.50.394,WP_VExplicitOC_HL,2022.2.5,Win32,4.933861585,87.890625,4.7656,2.0147,NA,NA,NA,NA,NA,frustrated,"frustrated, not frustrated","more frustrated, less frustrated",NA,NA,NA,NA,NA,NA,NA,NA,NA,NA,NA,NA,NA,NA,NA,NA,NA,NA,NA,NA,NA,NA,NA,NA,NA,NA,NA,NA,NA,NA,NA,NA,NA,NA,NA,NA,NA,NA,0,0,0,1,1,NA,NA,NA,NA,NA
SUPAMT81404,3NVC2EB65WY7XUP19SP6KPK789S3Y7,B5578326-9373-4EF1-848E-DC1A8EA92B0E,2023-09-26_19h06.50.394,WP_VExplicitOC_HL,2022.2.5,Win32,4.933861585,84.9609375,3.4808,2.0497,NA,NA,NA,NA,NA,bored,"bored, not bored","more bored, less bored",NA,NA,NA,NA,NA,NA,NA,NA,NA,NA,NA,NA,NA,NA,NA,NA,NA,NA,NA,NA,NA,NA,NA,NA,NA,NA,NA,NA,NA,NA,NA,NA,NA,NA,NA,NA,NA,NA,0,1,1,2,1,NA,NA,NA,NA,NA
SUPAMT81404,3NVC2EB65WY7XUP19SP6KPK789S3Y7,B5578326-9373-4EF1-848E-DC1A8EA92B0E,2023-09-26_19h06.50.394,WP_VExplicitOC_HL,2022.2.5,Win32,4.933861585,84.9609375,2.9409,2.0241,NA,NA,NA,NA,NA,happy,"unhappy, happy","less happy, more happy",NA,NA,NA,NA,NA,NA,NA,NA,NA,NA,NA,NA,NA,NA,NA,NA,NA,NA,NA,NA,NA,NA,NA,NA,NA,NA,NA,NA,NA,NA,NA,NA,NA,NA,NA,NA,NA,NA,0,2,2,0,1,NA,NA,NA,NA,NA
SUPAMT81404,3NVC2EB65WY7XUP19SP6KPK789S3Y7,B5578326-9373-4EF1-848E-DC1A8EA92B0E,2023-09-26_19h06.50.394,WP_VExplicitOC_HL,2022.2.5,Win32,4.933861585,NA,NA,NA,NA,NA,NA,NA,NA,NA,NA,NA,NA,NA,NA,NA,NA,NA,NA,NA,NA,NA,NA,NA,NA,NA,NA,NA,NA,NA,NA,NA,NA,NA,NA,NA,NA,NA,NA,NA,NA,NA,NA,NA,NA,NA,NA,NA,NA,NA,NA,NA,NA,NA,NA,6,0,6,0,1
SUPAMT81404,3NVC2EB65WY7XUP19SP6KPK789S3Y7,B5578326-9373-4EF1-848E-DC1A8EA92B0E,2023-09-26_19h06.50.394,WP_VExplicitOC_HL,2022.2.5,Win32,4.933861585,78.90625,4.9751,2.0733,NA,NA,NA,NA,NA,frustrated,"frustrated, not frustrated","more frustrated, less frustrated",NA,NA,NA,NA,NA,NA,NA,NA,NA,NA,NA,NA,NA,NA,NA,NA,NA,NA,NA,NA,NA,NA,NA,NA,NA,NA,NA,NA,NA,NA,NA,NA,NA,NA,NA,NA,NA,NA,0,0,0,1,1,NA,NA,NA,NA,NA
SUPAMT81404,3NVC2EB65WY7XUP19SP6KPK789S3Y7,B5578326-9373-4EF1-848E-DC1A8EA92B0E,2023-09-26_19h06.50.394,WP_VExplicitOC_HL,2022.2.5,Win32,4.933861585,80.859375,3.6129,2.0019,NA,NA,NA,NA,NA,happy,"unhappy, happy","less happy, more happy",NA,NA,NA,NA,NA,NA,NA,NA,NA,NA,NA,NA,NA,NA,NA,NA,NA,NA,NA,NA,NA,NA,NA,NA,NA,NA,NA,NA,NA,NA,NA,NA,NA,NA,NA,NA,NA,NA,0,1,1,0,1,NA,NA,NA,NA,NA
SUPAMT81404,3NVC2EB65WY7XUP19SP6KPK789S3Y7,B5578326-9373-4EF1-848E-DC1A8EA92B0E,2023-09-26_19h06.50.394,WP_VExplicitOC_HL,2022.2.5,Win32,4.933861585,84.375,3.7418,2.0112,NA,NA,NA,NA,NA,bored,"bored, not bored","more bored, less bored",NA,NA,NA,NA,NA,NA,NA,NA,NA,NA,NA,NA,NA,NA,NA,NA,NA,NA,NA,NA,NA,NA,NA,NA,NA,NA,NA,NA,NA,NA,NA,NA,NA,NA,NA,NA,NA,NA,0,2,2,2,1,NA,NA,NA,NA,NA
SUPAMT81404,3NVC2EB65WY7XUP19SP6KPK789S3Y7,B5578326-9373-4EF1-848E-DC1A8EA92B0E,2023-09-26_19h06.50.394,WP_VExplicitOC_HL,2022.2.5,Win32,4.933861585,NA,NA,NA,NA,NA,NA,NA,NA,NA,NA,NA,NA,NA,NA,NA,NA,NA,NA,NA,NA,NA,NA,NA,NA,NA,NA,NA,NA,NA,NA,NA,NA,NA,NA,NA,NA,NA,NA,NA,NA,NA,NA,NA,NA,NA,NA,NA,NA,NA,NA,NA,NA,NA,NA,7,0,7,0,1
SUPAMT81404,3NVC2EB65WY7XUP19SP6KPK789S3Y7,B5578326-9373-4EF1-848E-DC1A8EA92B0E,2023-09-26_19h06.50.394,WP_VExplicitOC_HL,2022.2.5,Win32,4.933861585,88.4765625,4.6164,2.0664,NA,NA,NA,NA,NA,happy,"unhappy, happy","less happy, more happy",NA,NA,NA,NA,NA,NA,NA,NA,NA,NA,NA,NA,NA,NA,NA,NA,NA,NA,NA,NA,NA,NA,NA,NA,NA,NA,NA,NA,NA,NA,NA,NA,NA,NA,NA,NA,NA,NA,0,0,0,0,1,NA,NA,NA,NA,NA
SUPAMT81404,3NVC2EB65WY7XUP19SP6KPK789S3Y7,B5578326-9373-4EF1-848E-DC1A8EA92B0E,2023-09-26_19h06.50.394,WP_VExplicitOC_HL,2022.2.5,Win32,4.933861585,88.4765625,3.1929,2.0136,NA,NA,NA,NA,NA,frustrated,"frustrated, not frustrated","more frustrated, less frustrated",NA,NA,NA,NA,NA,NA,NA,NA,NA,NA,NA,NA,NA,NA,NA,NA,NA,NA,NA,NA,NA,NA,NA,NA,NA,NA,NA,NA,NA,NA,NA,NA,NA,NA,NA,NA,NA,NA,0,1,1,1,1,NA,NA,NA,NA,NA
SUPAMT81404,3NVC2EB65WY7XUP19SP6KPK789S3Y7,B5578326-9373-4EF1-848E-DC1A8EA92B0E,2023-09-26_19h06.50.394,WP_VExplicitOC_HL,2022.2.5,Win32,4.933861585,88.4765625,3.1959,2.0446,NA,NA,NA,NA,NA,bored,"bored, not bored","more bored, less bored",NA,NA,NA,NA,NA,NA,NA,NA,NA,NA,NA,NA,NA,NA,NA,NA,NA,NA,NA,NA,NA,NA,NA,NA,NA,NA,NA,NA,NA,NA,NA,NA,NA,NA,NA,NA,NA,NA,0,2,2,2,1,NA,NA,NA,NA,NA
SUPAMT81404,3NVC2EB65WY7XUP19SP6KPK789S3Y7,B5578326-9373-4EF1-848E-DC1A8EA92B0E,2023-09-26_19h06.50.394,WP_VExplicitOC_HL,2022.2.5,Win32,4.933861585,NA,NA,NA,NA,NA,NA,NA,NA,NA,NA,NA,NA,NA,NA,NA,NA,NA,NA,NA,NA,NA,NA,NA,NA,NA,NA,NA,NA,NA,NA,NA,NA,NA,NA,NA,NA,NA,NA,NA,NA,NA,NA,NA,NA,NA,NA,NA,NA,NA,NA,NA,NA,NA,NA,8,0,8,0,1
SUPAMT81404,3NVC2EB65WY7XUP19SP6KPK789S3Y7,B5578326-9373-4EF1-848E-DC1A8EA92B0E,2023-09-26_19h06.50.394,WP_VExplicitOC_HL,2022.2.5,Win32,4.933861585,82.6171875,4.076,2.0152,NA,NA,NA,NA,NA,bored,"bored, not bored","more bored, less bored",NA,NA,NA,NA,NA,NA,NA,NA,NA,NA,NA,NA,NA,NA,NA,NA,NA,NA,NA,NA,NA,NA,NA,NA,NA,NA,NA,NA,NA,NA,NA,NA,NA,NA,NA,NA,NA,NA,0,0,0,2,1,NA,NA,NA,NA,NA
SUPAMT81404,3NVC2EB65WY7XUP19SP6KPK789S3Y7,B5578326-9373-4EF1-848E-DC1A8EA92B0E,2023-09-26_19h06.50.394,WP_VExplicitOC_HL,2022.2.5,Win32,4.933861585,84.9609375,3.9029,2.0416,NA,NA,NA,NA,NA,happy,"unhappy, happy","less happy, more happy",NA,NA,NA,NA,NA,NA,NA,NA,NA,NA,NA,NA,NA,NA,NA,NA,NA,NA,NA,NA,NA,NA,NA,NA,NA,NA,NA,NA,NA,NA,NA,NA,NA,NA,NA,NA,NA,NA,0,1,1,0,1,NA,NA,NA,NA,NA
SUPAMT81404,3NVC2EB65WY7XUP19SP6KPK789S3Y7,B5578326-9373-4EF1-848E-DC1A8EA92B0E,2023-09-26_19h06.50.394,WP_VExplicitOC_HL,2022.2.5,Win32,4.933861585,84.9609375,3.3715,2.0449,NA,NA,NA,NA,NA,frustrated,"frustrated, not frustrated","more frustrated, less frustrated",NA,NA,NA,NA,NA,NA,NA,NA,NA,NA,NA,NA,NA,NA,NA,NA,NA,NA,NA,NA,NA,NA,NA,NA,NA,NA,NA,NA,NA,NA,NA,NA,NA,NA,NA,NA,NA,NA,0,2,2,1,1,NA,NA,NA,NA,NA
SUPAMT81404,3NVC2EB65WY7XUP19SP6KPK789S3Y7,B5578326-9373-4EF1-848E-DC1A8EA92B0E,2023-09-26_19h06.50.394,WP_VExplicitOC_HL,2022.2.5,Win32,4.933861585,NA,NA,NA,NA,NA,NA,NA,NA,NA,NA,NA,NA,NA,NA,NA,NA,NA,NA,NA,NA,NA,NA,NA,NA,NA,NA,NA,NA,NA,NA,NA,NA,NA,NA,NA,NA,NA,NA,NA,NA,NA,NA,NA,NA,NA,NA,NA,NA,NA,NA,NA,NA,NA,NA,9,0,9,0,1
SUPAMT81404,3NVC2EB65WY7XUP19SP6KPK789S3Y7,B5578326-9373-4EF1-848E-DC1A8EA92B0E,2023-09-26_19h06.50.394,WP_VExplicitOC_HL,2022.2.5,Win32,4.933861585,77.5390625,4.0848,2.0746000000000002,NA,NA,NA,NA,NA,frustrated,"frustrated, not frustrated","more frustrated, less frustrated",NA,NA,NA,NA,NA,NA,NA,NA,NA,NA,NA,NA,NA,NA,NA,NA,NA,NA,NA,NA,NA,NA,NA,NA,NA,NA,NA,NA,NA,NA,NA,NA,NA,NA,NA,NA,NA,NA,0,0,0,1,1,NA,NA,NA,NA,NA
SUPAMT81404,3NVC2EB65WY7XUP19SP6KPK789S3Y7,B5578326-9373-4EF1-848E-DC1A8EA92B0E,2023-09-26_19h06.50.394,WP_VExplicitOC_HL,2022.2.5,Win32,4.933861585,77.5390625,3.1631,2.0528,NA,NA,NA,NA,NA,bored,"bored, not bored","more bored, less bored",NA,NA,NA,NA,NA,NA,NA,NA,NA,NA,NA,NA,NA,NA,NA,NA,NA,NA,NA,NA,NA,NA,NA,NA,NA,NA,NA,NA,NA,NA,NA,NA,NA,NA,NA,NA,NA,NA,0,1,1,2,1,NA,NA,NA,NA,NA
SUPAMT81404,3NVC2EB65WY7XUP19SP6KPK789S3Y7,B5578326-9373-4EF1-848E-DC1A8EA92B0E,2023-09-26_19h06.50.394,WP_VExplicitOC_HL,2022.2.5,Win32,4.933861585,77.5390625,2.9509,2.0241,NA,NA,NA,NA,NA,happy,"unhappy, happy","less happy, more happy",NA,NA,NA,NA,NA,NA,NA,NA,NA,NA,NA,NA,NA,NA,NA,NA,NA,NA,NA,NA,NA,NA,NA,NA,NA,NA,NA,NA,NA,NA,NA,NA,NA,NA,NA,NA,NA,NA,0,2,2,0,1,NA,NA,NA,NA,NA
SUPAMT81404,3NVC2EB65WY7XUP19SP6KPK789S3Y7,B5578326-9373-4EF1-848E-DC1A8EA92B0E,2023-09-26_19h06.50.394,WP_VExplicitOC_HL,2022.2.5,Win32,4.933861585,NA,NA,NA,NA,NA,NA,NA,NA,NA,NA,NA,NA,NA,NA,NA,NA,NA,NA,NA,NA,NA,NA,NA,NA,NA,NA,NA,NA,NA,NA,NA,NA,NA,NA,NA,NA,NA,NA,NA,NA,NA,NA,NA,NA,NA,NA,NA,NA,NA,NA,NA,NA,NA,NA,10,0,10,0,1
SUPAMT81404,3NVC2EB65WY7XUP19SP6KPK789S3Y7,B5578326-9373-4EF1-848E-DC1A8EA92B0E,2023-09-26_19h06.50.394,WP_VExplicitOC_HL,2022.2.5,Win32,4.933861585,NA,NA,2.0285,NA,NA,NA,NA,NA,bored,"bored, not bored","more bored, less bored",NA,NA,NA,NA,NA,NA,NA,NA,NA,NA,NA,NA,NA,NA,NA,NA,NA,NA,NA,NA,NA,NA,NA,NA,NA,NA,NA,NA,NA,NA,NA,NA,NA,NA,NA,NA,NA,NA,0,0,0,2,1,NA,NA,NA,NA,NA
SUPAMT81404,3NVC2EB65WY7XUP19SP6KPK789S3Y7,B5578326-9373-4EF1-848E-DC1A8EA92B0E,2023-09-26_19h06.50.394,WP_VExplicitOC_HL,2022.2.5,Win32,4.933861585,80.078125,5.2038,2.0575,NA,NA,NA,NA,NA,frustrated,"frustrated, not frustrated","more frustrated, less frustrated",NA,NA,NA,NA,NA,NA,NA,NA,NA,NA,NA,NA,NA,NA,NA,NA,NA,NA,NA,NA,NA,NA,NA,NA,NA,NA,NA,NA,NA,NA,NA,NA,NA,NA,NA,NA,NA,NA,0,1,1,1,1,NA,NA,NA,NA,NA
SUPAMT81404,3NVC2EB65WY7XUP19SP6KPK789S3Y7,B5578326-9373-4EF1-848E-DC1A8EA92B0E,2023-09-26_19h06.50.394,WP_VExplicitOC_HL,2022.2.5,Win32,4.933861585,80.078125,6.309,2.0266,NA,NA,NA,NA,NA,happy,"unhappy, happy","less happy, more happy",NA,NA,NA,NA,NA,NA,NA,NA,NA,NA,NA,NA,NA,NA,NA,NA,NA,NA,NA,NA,NA,NA,NA,NA,NA,NA,NA,NA,NA,NA,NA,NA,NA,NA,NA,NA,NA,NA,0,2,2,0,1,NA,NA,NA,NA,NA
SUPAMT81404,3NVC2EB65WY7XUP19SP6KPK789S3Y7,B5578326-9373-4EF1-848E-DC1A8EA92B0E,2023-09-26_19h06.50.394,WP_VExplicitOC_HL,2022.2.5,Win32,4.933861585,NA,NA,NA,NA,NA,NA,NA,NA,NA,NA,NA,NA,NA,NA,NA,NA,NA,NA,NA,NA,NA,NA,NA,NA,NA,NA,NA,NA,NA,NA,NA,NA,NA,NA,NA,NA,NA,NA,NA,NA,NA,NA,NA,NA,NA,NA,NA,NA,NA,NA,NA,NA,NA,NA,11,0,11,0,1
SUPAMT81404,3NVC2EB65WY7XUP19SP6KPK789S3Y7,B5578326-9373-4EF1-848E-DC1A8EA92B0E,2023-09-26_19h06.50.394,WP_VExplicitOC_HL,2022.2.5,Win32,4.933861585,72.65625,6.0419,2.0112,NA,NA,NA,NA,NA,frustrated,"frustrated, not frustrated","more frustrated, less frustrated",NA,NA,NA,NA,NA,NA,NA,NA,NA,NA,NA,NA,NA,NA,NA,NA,NA,NA,NA,NA,NA,NA,NA,NA,NA,NA,NA,NA,NA,NA,NA,NA,NA,NA,NA,NA,NA,NA,0,0,0,1,1,NA,NA,NA,NA,NA
SUPAMT81404,3NVC2EB65WY7XUP19SP6KPK789S3Y7,B5578326-9373-4EF1-848E-DC1A8EA92B0E,2023-09-26_19h06.50.394,WP_VExplicitOC_HL,2022.2.5,Win32,4.933861585,72.65625,3.2526,2.0795,NA,NA,NA,NA,NA,happy,"unhappy, happy","less happy, more happy",NA,NA,NA,NA,NA,NA,NA,NA,NA,NA,NA,NA,NA,NA,NA,NA,NA,NA,NA,NA,NA,NA,NA,NA,NA,NA,NA,NA,NA,NA,NA,NA,NA,NA,NA,NA,NA,NA,0,1,1,0,1,NA,NA,NA,NA,NA
SUPAMT81404,3NVC2EB65WY7XUP19SP6KPK789S3Y7,B5578326-9373-4EF1-848E-DC1A8EA92B0E,2023-09-26_19h06.50.394,WP_VExplicitOC_HL,2022.2.5,Win32,4.933861585,72.65625,3.3528,2.0084,NA,NA,NA,NA,NA,bored,"bored, not bored","more bored, less bored",NA,NA,NA,NA,NA,NA,NA,NA,NA,NA,NA,NA,NA,NA,NA,NA,NA,NA,NA,NA,NA,NA,NA,NA,NA,NA,NA,NA,NA,NA,NA,NA,NA,NA,NA,NA,NA,NA,0,2,2,2,1,NA,NA,NA,NA,NA
SUPAMT81404,3NVC2EB65WY7XUP19SP6KPK789S3Y7,B5578326-9373-4EF1-848E-DC1A8EA92B0E,2023-09-26_19h06.50.394,WP_VExplicitOC_HL,2022.2.5,Win32,4.933861585,NA,NA,NA,NA,NA,NA,NA,NA,NA,NA,NA,NA,NA,NA,NA,NA,NA,NA,NA,NA,NA,NA,NA,NA,NA,NA,NA,NA,NA,NA,NA,NA,NA,NA,NA,NA,NA,NA,NA,NA,NA,NA,NA,NA,NA,NA,NA,NA,NA,NA,NA,NA,NA,NA,12,0,12,0,1
SUPAMT81404,3NVC2EB65WY7XUP19SP6KPK789S3Y7,B5578326-9373-4EF1-848E-DC1A8EA92B0E,2023-09-26_19h06.50.394,WP_VExplicitOC_HL,2022.2.5,Win32,4.933861585,NA,NA,2.0515,NA,NA,NA,NA,NA,happy,"unhappy, happy","less happy, more happy",NA,NA,NA,NA,NA,NA,NA,NA,NA,NA,NA,NA,NA,NA,NA,NA,NA,NA,NA,NA,NA,NA,NA,NA,NA,NA,NA,NA,NA,NA,NA,NA,NA,NA,NA,NA,NA,NA,0,0,0,0,1,NA,NA,NA,NA,NA
SUPAMT81404,3NVC2EB65WY7XUP19SP6KPK789S3Y7,B5578326-9373-4EF1-848E-DC1A8EA92B0E,2023-09-26_19h06.50.394,WP_VExplicitOC_HL,2022.2.5,Win32,4.933861585,72.65625,3.0037,2.0508,NA,NA,NA,NA,NA,frustrated,"frustrated, not frustrated","more frustrated, less frustrated",NA,NA,NA,NA,NA,NA,NA,NA,NA,NA,NA,NA,NA,NA,NA,NA,NA,NA,NA,NA,NA,NA,NA,NA,NA,NA,NA,NA,NA,NA,NA,NA,NA,NA,NA,NA,NA,NA,0,1,1,1,1,NA,NA,NA,NA,NA
SUPAMT81404,3NVC2EB65WY7XUP19SP6KPK789S3Y7,B5578326-9373-4EF1-848E-DC1A8EA92B0E,2023-09-26_19h06.50.394,WP_VExplicitOC_HL,2022.2.5,Win32,4.933861585,NA,NA,2.0113,NA,NA,NA,NA,NA,bored,"bored, not bored","more bored, less bored",NA,NA,NA,NA,NA,NA,NA,NA,NA,NA,NA,NA,NA,NA,NA,NA,NA,NA,NA,NA,NA,NA,NA,NA,NA,NA,NA,NA,NA,NA,NA,NA,NA,NA,NA,NA,NA,NA,0,2,2,2,1,NA,NA,NA,NA,NA
SUPAMT81404,3NVC2EB65WY7XUP19SP6KPK789S3Y7,B5578326-9373-4EF1-848E-DC1A8EA92B0E,2023-09-26_19h06.50.394,WP_VExplicitOC_HL,2022.2.5,Win32,4.933861585,NA,NA,NA,NA,NA,NA,NA,NA,NA,NA,NA,NA,NA,NA,NA,NA,NA,NA,NA,NA,NA,NA,NA,NA,NA,NA,NA,NA,NA,NA,NA,NA,NA,NA,NA,NA,NA,NA,NA,NA,NA,NA,NA,NA,NA,NA,NA,NA,NA,NA,NA,NA,NA,NA,13,0,13,0,1
SUPAMT81404,3NVC2EB65WY7XUP19SP6KPK789S3Y7,B5578326-9373-4EF1-848E-DC1A8EA92B0E,2023-09-26_19h06.50.394,WP_VExplicitOC_HL,2022.2.5,Win32,4.933861585,67.96875,3.1921,2.0079,NA,NA,NA,NA,NA,happy,"unhappy, happy","less happy, more happy",NA,NA,NA,NA,NA,NA,NA,NA,NA,NA,NA,NA,NA,NA,NA,NA,NA,NA,NA,NA,NA,NA,NA,NA,NA,NA,NA,NA,NA,NA,NA,NA,NA,NA,NA,NA,NA,NA,0,0,0,0,1,NA,NA,NA,NA,NA
SUPAMT81404,3NVC2EB65WY7XUP19SP6KPK789S3Y7,B5578326-9373-4EF1-848E-DC1A8EA92B0E,2023-09-26_19h06.50.394,WP_VExplicitOC_HL,2022.2.5,Win32,4.933861585,67.96875,3.3585,2.0475,NA,NA,NA,NA,NA,bored,"bored, not bored","more bored, less bored",NA,NA,NA,NA,NA,NA,NA,NA,NA,NA,NA,NA,NA,NA,NA,NA,NA,NA,NA,NA,NA,NA,NA,NA,NA,NA,NA,NA,NA,NA,NA,NA,NA,NA,NA,NA,NA,NA,0,1,1,2,1,NA,NA,NA,NA,NA
SUPAMT81404,3NVC2EB65WY7XUP19SP6KPK789S3Y7,B5578326-9373-4EF1-848E-DC1A8EA92B0E,2023-09-26_19h06.50.394,WP_VExplicitOC_HL,2022.2.5,Win32,4.933861585,67.96875,3.5576,2.0063,NA,NA,NA,NA,NA,frustrated,"frustrated, not frustrated","more frustrated, less frustrated",NA,NA,NA,NA,NA,NA,NA,NA,NA,NA,NA,NA,NA,NA,NA,NA,NA,NA,NA,NA,NA,NA,NA,NA,NA,NA,NA,NA,NA,NA,NA,NA,NA,NA,NA,NA,NA,NA,0,2,2,1,1,NA,NA,NA,NA,NA
SUPAMT81404,3NVC2EB65WY7XUP19SP6KPK789S3Y7,B5578326-9373-4EF1-848E-DC1A8EA92B0E,2023-09-26_19h06.50.394,WP_VExplicitOC_HL,2022.2.5,Win32,4.933861585,NA,NA,NA,NA,NA,NA,NA,NA,NA,NA,NA,NA,NA,NA,NA,NA,NA,NA,NA,NA,NA,NA,NA,NA,NA,NA,NA,NA,NA,NA,NA,NA,NA,NA,NA,NA,NA,NA,NA,NA,NA,NA,NA,NA,NA,NA,NA,NA,NA,NA,NA,NA,NA,NA,14,0,14,0,1
SUPAMT81404,3NVC2EB65WY7XUP19SP6KPK789S3Y7,B5578326-9373-4EF1-848E-DC1A8EA92B0E,2023-09-26_19h06.50.394,WP_VExplicitOC_HL,2022.2.5,Win32,4.933861585,NA,NA,NA,NA,NA,NA,NA,NA,NA,NA,NA,NA,NA,NA,NA,NA,NA,NA,NA,NA,NA,NA,NA,NA,NA,NA,NA,NA,NA,NA,NA,NA,NA,NA,NA,NA,NA,NA,NA,NA,NA,NA,NA,NA,NA,NA,NA,NA,NA,NA,NA,NA,NA,NA,NA,NA,NA,NA,NA
