participant,session,completion,date,expName,psychopyVersion,OS,frameRate,rating_all.response,rating_all.rt,rating_all.tStart,rndRat1.thisRepN,rndRat1.thisTrialN,rndRat1.thisN,rndRat1.thisIndex,rndRat1.ran,Emo,Labs,Labs2,rating_alt.response,rating_alt.rt,AltC.thisRepN,AltC.thisTrialN,AltC.thisN,AltC.thisIndex,AltC.ran,alt_choices,pic_choices,TopAlt_Choice,rndRat2.thisRepN,rndRat2.thisTrialN,rndRat2.thisN,rndRat2.thisIndex,rndRat2.ran,rndRat3.thisRepN,rndRat3.thisTrialN,rndRat3.thisN,rndRat3.thisIndex,rndRat3.ran,trials_FC_H.thisRepN,trials_FC_H.thisTrialN,trials_FC_H.thisN,trials_FC_H.thisIndex,trials_FC_H.ran,rating_alt_2.response,rating_alt_2.rt,AltC2.thisRepN,AltC2.thisTrialN,AltC2.thisN,AltC2.thisIndex,AltC2.ran,BottomAlt_Choice,rndRat4.thisRepN,rndRat4.thisTrialN,rndRat4.thisN,rndRat4.thisIndex,rndRat4.ran,rndRat5.thisRepN,rndRat5.thisTrialN,rndRat5.thisN,rndRat5.thisIndex,rndRat5.ran,trials_FC_L.thisRepN,trials_FC_L.thisTrialN,trials_FC_L.thisN,trials_FC_L.thisIndex,trials_FC_L.ran
SUPAMT57917,3NXNZ5RS1GWAXCIG3S0GYP3W42P79N,307FD410-BF5B-4402-891A-A5D54383E968,2023-09-26_12h54.16.772,WP_VExplicitOC_HL,2022.2.5,Win32,1,NA,NA,NA,NA,NA,NA,NA,NA,NA,NA,NA,NA,NA,NA,NA,NA,NA,NA,NA,NA,NA,NA,NA,NA,NA,NA,NA,NA,NA,NA,NA,NA,NA,NA,NA,NA,NA,NA,NA,NA,NA,NA,NA,NA,NA,NA,NA,NA,NA,NA,NA,NA,NA,NA,NA,NA,NA,NA,NA
SUPAMT57917,3NXNZ5RS1GWAXCIG3S0GYP3W42P79N,307FD410-BF5B-4402-891A-A5D54383E968,2023-09-26_12h54.16.772,WP_VExplicitOC_HL,2022.2.5,Win32,1,NA,NA,NA,NA,NA,NA,NA,NA,NA,NA,NA,NA,NA,NA,NA,NA,NA,NA,NA,NA,NA,NA,NA,NA,NA,NA,NA,NA,NA,NA,NA,NA,NA,NA,NA,NA,NA,NA,NA,NA,NA,NA,NA,NA,NA,NA,NA,NA,NA,NA,NA,NA,NA,NA,NA,NA,NA,NA,NA
SUPAMT57917,3NXNZ5RS1GWAXCIG3S0GYP3W42P79N,307FD410-BF5B-4402-891A-A5D54383E968,2023-09-26_12h54.16.772,WP_VExplicitOC_HL,2022.2.5,Win32,1,NA,NA,NA,NA,NA,NA,NA,NA,NA,NA,NA,NA,NA,NA,NA,NA,NA,NA,NA,NA,NA,NA,NA,NA,NA,NA,NA,NA,NA,NA,NA,NA,NA,NA,NA,NA,NA,NA,NA,NA,NA,NA,NA,NA,NA,NA,NA,NA,NA,NA,NA,NA,NA,NA,NA,NA,NA,NA,NA
SUPAMT57917,3NXNZ5RS1GWAXCIG3S0GYP3W42P79N,307FD410-BF5B-4402-891A-A5D54383E968,2023-09-26_12h54.16.772,WP_VExplicitOC_HL,2022.2.5,Win32,1,99.4140625,6.5727,2.3253,0,0,0,0,1,happy,"unhappy, happy","less happy, more happy",NA,NA,NA,NA,NA,NA,NA,NA,NA,NA,NA,NA,NA,NA,NA,NA,NA,NA,NA,NA,NA,NA,NA,NA,NA,NA,NA,NA,NA,NA,NA,NA,NA,NA,NA,NA,NA,NA,NA,NA,NA,NA,NA,NA,NA,NA,NA,NA
SUPAMT57917,3NXNZ5RS1GWAXCIG3S0GYP3W42P79N,307FD410-BF5B-4402-891A-A5D54383E968,2023-09-26_12h54.16.772,WP_VExplicitOC_HL,2022.2.5,Win32,1,100,5.6927,2.718,0,1,1,1,1,frustrated,"frustrated, not frustrated","more frustrated, less frustrated",NA,NA,NA,NA,NA,NA,NA,NA,NA,NA,NA,NA,NA,NA,NA,NA,NA,NA,NA,NA,NA,NA,NA,NA,NA,NA,NA,NA,NA,NA,NA,NA,NA,NA,NA,NA,NA,NA,NA,NA,NA,NA,NA,NA,NA,NA,NA,NA
SUPAMT57917,3NXNZ5RS1GWAXCIG3S0GYP3W42P79N,307FD410-BF5B-4402-891A-A5D54383E968,2023-09-26_12h54.16.772,WP_VExplicitOC_HL,2022.2.5,Win32,1,59.765625,5.0439,2.2934,0,2,2,2,1,bored,"bored, not bored","more bored, less bored",NA,NA,NA,NA,NA,NA,NA,NA,NA,NA,NA,NA,NA,NA,NA,NA,NA,NA,NA,NA,NA,NA,NA,NA,NA,NA,NA,NA,NA,NA,NA,NA,NA,NA,NA,NA,NA,NA,NA,NA,NA,NA,NA,NA,NA,NA,NA,NA
SUPAMT57917,3NXNZ5RS1GWAXCIG3S0GYP3W42P79N,307FD410-BF5B-4402-891A-A5D54383E968,2023-09-26_12h54.16.772,WP_VExplicitOC_HL,2022.2.5,Win32,1,NA,NA,NA,NA,NA,NA,NA,NA,NA,NA,NA,NA,NA,NA,NA,NA,NA,NA,NA,NA,NA,NA,NA,NA,NA,NA,NA,NA,NA,NA,NA,NA,NA,NA,NA,NA,NA,NA,NA,NA,NA,NA,NA,NA,NA,NA,NA,NA,NA,NA,NA,NA,NA,NA,NA,NA,NA,NA,NA
SUPAMT57917,3NXNZ5RS1GWAXCIG3S0GYP3W42P79N,307FD410-BF5B-4402-891A-A5D54383E968,2023-09-26_12h54.16.772,WP_VExplicitOC_HL,2022.2.5,Win32,1,NA,NA,NA,NA,NA,NA,NA,NA,NA,NA,NA,NA,NA,NA,NA,NA,NA,NA,NA,NA,NA,NA,NA,NA,NA,NA,NA,NA,NA,NA,NA,NA,NA,NA,NA,NA,NA,NA,NA,NA,NA,NA,NA,NA,NA,NA,NA,NA,NA,NA,NA,NA,NA,NA,NA,NA,NA,NA,NA
SUPAMT57917,3NXNZ5RS1GWAXCIG3S0GYP3W42P79N,307FD410-BF5B-4402-891A-A5D54383E968,2023-09-26_12h54.16.772,WP_VExplicitOC_HL,2022.2.5,Win32,1,NA,NA,NA,NA,NA,NA,NA,NA,NA,NA,NA,NA,NA,NA,NA,NA,NA,NA,NA,NA,NA,NA,NA,NA,NA,NA,NA,NA,NA,NA,NA,NA,NA,NA,NA,NA,NA,NA,NA,NA,NA,NA,NA,NA,NA,NA,NA,NA,NA,NA,NA,NA,NA,NA,NA,NA,NA,NA,NA
SUPAMT57917,3NXNZ5RS1GWAXCIG3S0GYP3W42P79N,307FD410-BF5B-4402-891A-A5D54383E968,2023-09-26_12h54.16.772,WP_VExplicitOC_HL,2022.2.5,Win32,1,NA,NA,NA,NA,NA,NA,NA,NA,NA,NA,NA,NA,NA,NA,NA,NA,NA,NA,NA,NA,NA,NA,NA,NA,NA,NA,NA,NA,NA,NA,NA,NA,NA,NA,NA,NA,NA,NA,NA,NA,NA,NA,NA,NA,NA,NA,NA,NA,NA,NA,NA,NA,NA,NA,NA,NA,NA,NA,NA
SUPAMT57917,3NXNZ5RS1GWAXCIG3S0GYP3W42P79N,307FD410-BF5B-4402-891A-A5D54383E968,2023-09-26_12h54.16.772,WP_VExplicitOC_HL,2022.2.5,Win32,1,NA,NA,NA,NA,NA,NA,NA,NA,NA,NA,NA,65.625,4.1481,0,0,0,0,1,rest (looking at a fixed cross),001.png,NA,NA,NA,NA,NA,NA,NA,NA,NA,NA,NA,NA,NA,NA,NA,NA,NA,NA,NA,NA,NA,NA,NA,NA,NA,NA,NA,NA,NA,NA,NA,NA,NA,NA,NA,NA,NA,NA,NA
SUPAMT57917,3NXNZ5RS1GWAXCIG3S0GYP3W42P79N,307FD410-BF5B-4402-891A-A5D54383E968,2023-09-26_12h54.16.772,WP_VExplicitOC_HL,2022.2.5,Win32,1,NA,NA,NA,NA,NA,NA,NA,NA,NA,NA,NA,65.625,1.4698,0,1,1,1,1,stand up,002.png,NA,NA,NA,NA,NA,NA,NA,NA,NA,NA,NA,NA,NA,NA,NA,NA,NA,NA,NA,NA,NA,NA,NA,NA,NA,NA,NA,NA,NA,NA,NA,NA,NA,NA,NA,NA,NA,NA,NA
SUPAMT57917,3NXNZ5RS1GWAXCIG3S0GYP3W42P79N,307FD410-BF5B-4402-891A-A5D54383E968,2023-09-26_12h54.16.772,WP_VExplicitOC_HL,2022.2.5,Win32,1,NA,NA,NA,NA,NA,NA,NA,NA,NA,NA,NA,83.203125,1.9704,0,2,2,2,1,stretch,003.png,NA,NA,NA,NA,NA,NA,NA,NA,NA,NA,NA,NA,NA,NA,NA,NA,NA,NA,NA,NA,NA,NA,NA,NA,NA,NA,NA,NA,NA,NA,NA,NA,NA,NA,NA,NA,NA,NA,NA
SUPAMT57917,3NXNZ5RS1GWAXCIG3S0GYP3W42P79N,307FD410-BF5B-4402-891A-A5D54383E968,2023-09-26_12h54.16.772,WP_VExplicitOC_HL,2022.2.5,Win32,1,NA,NA,NA,NA,NA,NA,NA,NA,NA,NA,NA,73.4375,1.2871,0,3,3,3,1,make a drink,004.png,NA,NA,NA,NA,NA,NA,NA,NA,NA,NA,NA,NA,NA,NA,NA,NA,NA,NA,NA,NA,NA,NA,NA,NA,NA,NA,NA,NA,NA,NA,NA,NA,NA,NA,NA,NA,NA,NA,NA
SUPAMT57917,3NXNZ5RS1GWAXCIG3S0GYP3W42P79N,307FD410-BF5B-4402-891A-A5D54383E968,2023-09-26_12h54.16.772,WP_VExplicitOC_HL,2022.2.5,Win32,1,NA,NA,NA,NA,NA,NA,NA,NA,NA,NA,NA,80.2734375,2.18,0,4,4,4,1,scroll social media,005.png,NA,NA,NA,NA,NA,NA,NA,NA,NA,NA,NA,NA,NA,NA,NA,NA,NA,NA,NA,NA,NA,NA,NA,NA,NA,NA,NA,NA,NA,NA,NA,NA,NA,NA,NA,NA,NA,NA,NA
SUPAMT57917,3NXNZ5RS1GWAXCIG3S0GYP3W42P79N,307FD410-BF5B-4402-891A-A5D54383E968,2023-09-26_12h54.16.772,WP_VExplicitOC_HL,2022.2.5,Win32,1,NA,NA,NA,NA,NA,NA,NA,NA,NA,NA,NA,70.5078125,1.2511,0,5,5,5,1,listen to music,006.png,NA,NA,NA,NA,NA,NA,NA,NA,NA,NA,NA,NA,NA,NA,NA,NA,NA,NA,NA,NA,NA,NA,NA,NA,NA,NA,NA,NA,NA,NA,NA,NA,NA,NA,NA,NA,NA,NA,NA
SUPAMT57917,3NXNZ5RS1GWAXCIG3S0GYP3W42P79N,307FD410-BF5B-4402-891A-A5D54383E968,2023-09-26_12h54.16.772,WP_VExplicitOC_HL,2022.2.5,Win32,1,NA,NA,NA,NA,NA,NA,NA,NA,NA,NA,NA,80.2734375,1.3164,0,6,6,6,1,daydream,007.png,NA,NA,NA,NA,NA,NA,NA,NA,NA,NA,NA,NA,NA,NA,NA,NA,NA,NA,NA,NA,NA,NA,NA,NA,NA,NA,NA,NA,NA,NA,NA,NA,NA,NA,NA,NA,NA,NA,NA
SUPAMT57917,3NXNZ5RS1GWAXCIG3S0GYP3W42P79N,307FD410-BF5B-4402-891A-A5D54383E968,2023-09-26_12h54.16.772,WP_VExplicitOC_HL,2022.2.5,Win32,1,NA,NA,NA,NA,NA,NA,NA,NA,NA,NA,NA,79.296875,1.7781,0,7,7,7,1,watch a short animation,008.png,NA,NA,NA,NA,NA,NA,NA,NA,NA,NA,NA,NA,NA,NA,NA,NA,NA,NA,NA,NA,NA,NA,NA,NA,NA,NA,NA,NA,NA,NA,NA,NA,NA,NA,NA,NA,NA,NA,NA
SUPAMT57917,3NXNZ5RS1GWAXCIG3S0GYP3W42P79N,307FD410-BF5B-4402-891A-A5D54383E968,2023-09-26_12h54.16.772,WP_VExplicitOC_HL,2022.2.5,Win32,1,NA,NA,NA,NA,NA,NA,NA,NA,NA,NA,NA,75.390625,1.6388,0,8,8,8,1,read a novel,009.png,NA,NA,NA,NA,NA,NA,NA,NA,NA,NA,NA,NA,NA,NA,NA,NA,NA,NA,NA,NA,NA,NA,NA,NA,NA,NA,NA,NA,NA,NA,NA,NA,NA,NA,NA,NA,NA,NA,NA
SUPAMT57917,3NXNZ5RS1GWAXCIG3S0GYP3W42P79N,307FD410-BF5B-4402-891A-A5D54383E968,2023-09-26_12h54.16.772,WP_VExplicitOC_HL,2022.2.5,Win32,1,NA,NA,NA,NA,NA,NA,NA,NA,NA,NA,NA,71.484375,2.5157,0,9,9,9,1,read the news,010.png,NA,NA,NA,NA,NA,NA,NA,NA,NA,NA,NA,NA,NA,NA,NA,NA,NA,NA,NA,NA,NA,NA,NA,NA,NA,NA,NA,NA,NA,NA,NA,NA,NA,NA,NA,NA,NA,NA,NA
SUPAMT57917,3NXNZ5RS1GWAXCIG3S0GYP3W42P79N,307FD410-BF5B-4402-891A-A5D54383E968,2023-09-26_12h54.16.772,WP_VExplicitOC_HL,2022.2.5,Win32,1,NA,NA,NA,NA,NA,NA,NA,NA,NA,NA,NA,NA,NA,NA,NA,NA,NA,NA,NA,NA,NA,NA,NA,NA,NA,NA,NA,NA,NA,NA,NA,NA,NA,NA,NA,NA,NA,NA,NA,NA,NA,NA,NA,NA,NA,NA,NA,NA,NA,NA,NA,NA,NA,NA,NA,NA,NA,NA,NA
SUPAMT57917,3NXNZ5RS1GWAXCIG3S0GYP3W42P79N,307FD410-BF5B-4402-891A-A5D54383E968,2023-09-26_12h54.16.772,WP_VExplicitOC_HL,2022.2.5,Win32,1,NA,NA,NA,NA,NA,NA,NA,NA,NA,NA,NA,NA,NA,NA,NA,NA,NA,NA,NA,NA,stretch,NA,NA,NA,NA,NA,NA,NA,NA,NA,NA,NA,NA,NA,NA,NA,NA,NA,NA,NA,NA,NA,NA,NA,NA,NA,NA,NA,NA,NA,NA,NA,NA,NA,NA,NA,NA,NA,NA
SUPAMT57917,3NXNZ5RS1GWAXCIG3S0GYP3W42P79N,307FD410-BF5B-4402-891A-A5D54383E968,2023-09-26_12h54.16.772,WP_VExplicitOC_HL,2022.2.5,Win32,1,92.96875,6.9209,3.0386,NA,NA,NA,NA,NA,frustrated,"frustrated, not frustrated","more frustrated, less frustrated",NA,NA,NA,NA,NA,NA,NA,NA,NA,NA,0,0,0,1,1,NA,NA,NA,NA,NA,NA,NA,NA,NA,NA,NA,NA,NA,NA,NA,NA,NA,NA,NA,NA,NA,NA,NA,NA,NA,NA,NA,NA,NA,NA,NA,NA,NA
SUPAMT57917,3NXNZ5RS1GWAXCIG3S0GYP3W42P79N,307FD410-BF5B-4402-891A-A5D54383E968,2023-09-26_12h54.16.772,WP_VExplicitOC_HL,2022.2.5,Win32,1,53.90625,5.0105,2.2477,NA,NA,NA,NA,NA,happy,"unhappy, happy","less happy, more happy",NA,NA,NA,NA,NA,NA,NA,NA,NA,NA,0,1,1,0,1,NA,NA,NA,NA,NA,NA,NA,NA,NA,NA,NA,NA,NA,NA,NA,NA,NA,NA,NA,NA,NA,NA,NA,NA,NA,NA,NA,NA,NA,NA,NA,NA,NA
SUPAMT57917,3NXNZ5RS1GWAXCIG3S0GYP3W42P79N,307FD410-BF5B-4402-891A-A5D54383E968,2023-09-26_12h54.16.772,WP_VExplicitOC_HL,2022.2.5,Win32,1,70.5078125,5.3449,2.0016,NA,NA,NA,NA,NA,bored,"bored, not bored","more bored, less bored",NA,NA,NA,NA,NA,NA,NA,NA,NA,NA,0,2,2,2,1,NA,NA,NA,NA,NA,NA,NA,NA,NA,NA,NA,NA,NA,NA,NA,NA,NA,NA,NA,NA,NA,NA,NA,NA,NA,NA,NA,NA,NA,NA,NA,NA,NA
SUPAMT57917,3NXNZ5RS1GWAXCIG3S0GYP3W42P79N,307FD410-BF5B-4402-891A-A5D54383E968,2023-09-26_12h54.16.772,WP_VExplicitOC_HL,2022.2.5,Win32,1,NA,NA,NA,NA,NA,NA,NA,NA,NA,NA,NA,NA,NA,NA,NA,NA,NA,NA,NA,NA,NA,NA,NA,NA,NA,NA,NA,NA,NA,NA,NA,NA,NA,NA,NA,NA,NA,NA,NA,NA,NA,NA,NA,NA,NA,NA,NA,NA,NA,NA,NA,NA,NA,NA,NA,NA,NA,NA,NA
SUPAMT57917,3NXNZ5RS1GWAXCIG3S0GYP3W42P79N,307FD410-BF5B-4402-891A-A5D54383E968,2023-09-26_12h54.16.772,WP_VExplicitOC_HL,2022.2.5,Win32,1,NA,NA,NA,NA,NA,NA,NA,NA,NA,NA,NA,NA,NA,NA,NA,NA,NA,NA,NA,NA,NA,NA,NA,NA,NA,NA,NA,NA,NA,NA,NA,NA,NA,NA,NA,NA,NA,NA,NA,NA,NA,NA,NA,NA,NA,NA,NA,NA,NA,NA,NA,NA,NA,NA,NA,NA,NA,NA,NA
SUPAMT57917,3NXNZ5RS1GWAXCIG3S0GYP3W42P79N,307FD410-BF5B-4402-891A-A5D54383E968,2023-09-26_12h54.16.772,WP_VExplicitOC_HL,2022.2.5,Win32,1,76.3671875,5.423,2.6223,NA,NA,NA,NA,NA,bored,"bored, not bored","more bored, less bored",NA,NA,NA,NA,NA,NA,NA,NA,NA,NA,NA,NA,NA,NA,NA,0,0,0,2,1,NA,NA,NA,NA,NA,NA,NA,NA,NA,NA,NA,NA,NA,NA,NA,NA,NA,NA,NA,NA,NA,NA,NA,NA,NA,NA,NA,NA
SUPAMT57917,3NXNZ5RS1GWAXCIG3S0GYP3W42P79N,307FD410-BF5B-4402-891A-A5D54383E968,2023-09-26_12h54.16.772,WP_VExplicitOC_HL,2022.2.5,Win32,1,75.390625,6.761,2.1982,NA,NA,NA,NA,NA,happy,"unhappy, happy","less happy, more happy",NA,NA,NA,NA,NA,NA,NA,NA,NA,NA,NA,NA,NA,NA,NA,0,1,1,0,1,NA,NA,NA,NA,NA,NA,NA,NA,NA,NA,NA,NA,NA,NA,NA,NA,NA,NA,NA,NA,NA,NA,NA,NA,NA,NA,NA,NA
SUPAMT57917,3NXNZ5RS1GWAXCIG3S0GYP3W42P79N,307FD410-BF5B-4402-891A-A5D54383E968,2023-09-26_12h54.16.772,WP_VExplicitOC_HL,2022.2.5,Win32,1,94.921875,7.7167,4.1751,NA,NA,NA,NA,NA,frustrated,"frustrated, not frustrated","more frustrated, less frustrated",NA,NA,NA,NA,NA,NA,NA,NA,NA,NA,NA,NA,NA,NA,NA,0,2,2,1,1,NA,NA,NA,NA,NA,NA,NA,NA,NA,NA,NA,NA,NA,NA,NA,NA,NA,NA,NA,NA,NA,NA,NA,NA,NA,NA,NA,NA
SUPAMT57917,3NXNZ5RS1GWAXCIG3S0GYP3W42P79N,307FD410-BF5B-4402-891A-A5D54383E968,2023-09-26_12h54.16.772,WP_VExplicitOC_HL,2022.2.5,Win32,1,NA,NA,NA,NA,NA,NA,NA,NA,NA,NA,NA,NA,NA,NA,NA,NA,NA,NA,NA,NA,NA,NA,NA,NA,NA,NA,NA,NA,NA,NA,NA,0,0,0,0,1,NA,NA,NA,NA,NA,NA,NA,NA,NA,NA,NA,NA,NA,NA,NA,NA,NA,NA,NA,NA,NA,NA,NA
SUPAMT57917,3NXNZ5RS1GWAXCIG3S0GYP3W42P79N,307FD410-BF5B-4402-891A-A5D54383E968,2023-09-26_12h54.16.772,WP_VExplicitOC_HL,2022.2.5,Win32,1,74.0234375,7.6945,2.3531,NA,NA,NA,NA,NA,frustrated,"frustrated, not frustrated","more frustrated, less frustrated",NA,NA,NA,NA,NA,NA,NA,NA,NA,NA,NA,NA,NA,NA,NA,0,0,0,1,1,NA,NA,NA,NA,NA,NA,NA,NA,NA,NA,NA,NA,NA,NA,NA,NA,NA,NA,NA,NA,NA,NA,NA,NA,NA,NA,NA,NA
SUPAMT57917,3NXNZ5RS1GWAXCIG3S0GYP3W42P79N,307FD410-BF5B-4402-891A-A5D54383E968,2023-09-26_12h54.16.772,WP_VExplicitOC_HL,2022.2.5,Win32,1,71.09375,6.7444,2.6378,NA,NA,NA,NA,NA,happy,"unhappy, happy","less happy, more happy",NA,NA,NA,NA,NA,NA,NA,NA,NA,NA,NA,NA,NA,NA,NA,0,1,1,0,1,NA,NA,NA,NA,NA,NA,NA,NA,NA,NA,NA,NA,NA,NA,NA,NA,NA,NA,NA,NA,NA,NA,NA,NA,NA,NA,NA,NA
SUPAMT57917,3NXNZ5RS1GWAXCIG3S0GYP3W42P79N,307FD410-BF5B-4402-891A-A5D54383E968,2023-09-26_12h54.16.772,WP_VExplicitOC_HL,2022.2.5,Win32,1,80.859375,5.1006,2.145,NA,NA,NA,NA,NA,bored,"bored, not bored","more bored, less bored",NA,NA,NA,NA,NA,NA,NA,NA,NA,NA,NA,NA,NA,NA,NA,0,2,2,2,1,NA,NA,NA,NA,NA,NA,NA,NA,NA,NA,NA,NA,NA,NA,NA,NA,NA,NA,NA,NA,NA,NA,NA,NA,NA,NA,NA,NA
SUPAMT57917,3NXNZ5RS1GWAXCIG3S0GYP3W42P79N,307FD410-BF5B-4402-891A-A5D54383E968,2023-09-26_12h54.16.772,WP_VExplicitOC_HL,2022.2.5,Win32,1,NA,NA,NA,NA,NA,NA,NA,NA,NA,NA,NA,NA,NA,NA,NA,NA,NA,NA,NA,NA,NA,NA,NA,NA,NA,NA,NA,NA,NA,NA,NA,1,0,1,0,1,NA,NA,NA,NA,NA,NA,NA,NA,NA,NA,NA,NA,NA,NA,NA,NA,NA,NA,NA,NA,NA,NA,NA
SUPAMT57917,3NXNZ5RS1GWAXCIG3S0GYP3W42P79N,307FD410-BF5B-4402-891A-A5D54383E968,2023-09-26_12h54.16.772,WP_VExplicitOC_HL,2022.2.5,Win32,1,99.4140625,4.9753,2.2228,NA,NA,NA,NA,NA,happy,"unhappy, happy","less happy, more happy",NA,NA,NA,NA,NA,NA,NA,NA,NA,NA,NA,NA,NA,NA,NA,0,0,0,0,1,NA,NA,NA,NA,NA,NA,NA,NA,NA,NA,NA,NA,NA,NA,NA,NA,NA,NA,NA,NA,NA,NA,NA,NA,NA,NA,NA,NA
SUPAMT57917,3NXNZ5RS1GWAXCIG3S0GYP3W42P79N,307FD410-BF5B-4402-891A-A5D54383E968,2023-09-26_12h54.16.772,WP_VExplicitOC_HL,2022.2.5,Win32,1,86.71875,5.8658,2.6054,NA,NA,NA,NA,NA,frustrated,"frustrated, not frustrated","more frustrated, less frustrated",NA,NA,NA,NA,NA,NA,NA,NA,NA,NA,NA,NA,NA,NA,NA,0,1,1,1,1,NA,NA,NA,NA,NA,NA,NA,NA,NA,NA,NA,NA,NA,NA,NA,NA,NA,NA,NA,NA,NA,NA,NA,NA,NA,NA,NA,NA
SUPAMT57917,3NXNZ5RS1GWAXCIG3S0GYP3W42P79N,307FD410-BF5B-4402-891A-A5D54383E968,2023-09-26_12h54.16.772,WP_VExplicitOC_HL,2022.2.5,Win32,1,85.7421875,6.1094,2.6742,NA,NA,NA,NA,NA,bored,"bored, not bored","more bored, less bored",NA,NA,NA,NA,NA,NA,NA,NA,NA,NA,NA,NA,NA,NA,NA,0,2,2,2,1,NA,NA,NA,NA,NA,NA,NA,NA,NA,NA,NA,NA,NA,NA,NA,NA,NA,NA,NA,NA,NA,NA,NA,NA,NA,NA,NA,NA
SUPAMT57917,3NXNZ5RS1GWAXCIG3S0GYP3W42P79N,307FD410-BF5B-4402-891A-A5D54383E968,2023-09-26_12h54.16.772,WP_VExplicitOC_HL,2022.2.5,Win32,1,NA,NA,NA,NA,NA,NA,NA,NA,NA,NA,NA,NA,NA,NA,NA,NA,NA,NA,NA,NA,NA,NA,NA,NA,NA,NA,NA,NA,NA,NA,NA,2,0,2,0,1,NA,NA,NA,NA,NA,NA,NA,NA,NA,NA,NA,NA,NA,NA,NA,NA,NA,NA,NA,NA,NA,NA,NA
SUPAMT57917,3NXNZ5RS1GWAXCIG3S0GYP3W42P79N,307FD410-BF5B-4402-891A-A5D54383E968,2023-09-26_12h54.16.772,WP_VExplicitOC_HL,2022.2.5,Win32,1,75,6.4994,2.4502,NA,NA,NA,NA,NA,bored,"bored, not bored","more bored, less bored",NA,NA,NA,NA,NA,NA,NA,NA,NA,NA,NA,NA,NA,NA,NA,0,0,0,2,1,NA,NA,NA,NA,NA,NA,NA,NA,NA,NA,NA,NA,NA,NA,NA,NA,NA,NA,NA,NA,NA,NA,NA,NA,NA,NA,NA,NA
SUPAMT57917,3NXNZ5RS1GWAXCIG3S0GYP3W42P79N,307FD410-BF5B-4402-891A-A5D54383E968,2023-09-26_12h54.16.772,WP_VExplicitOC_HL,2022.2.5,Win32,1,98.4375,5.0896,2.2934,NA,NA,NA,NA,NA,frustrated,"frustrated, not frustrated","more frustrated, less frustrated",NA,NA,NA,NA,NA,NA,NA,NA,NA,NA,NA,NA,NA,NA,NA,0,1,1,1,1,NA,NA,NA,NA,NA,NA,NA,NA,NA,NA,NA,NA,NA,NA,NA,NA,NA,NA,NA,NA,NA,NA,NA,NA,NA,NA,NA,NA
SUPAMT57917,3NXNZ5RS1GWAXCIG3S0GYP3W42P79N,307FD410-BF5B-4402-891A-A5D54383E968,2023-09-26_12h54.16.772,WP_VExplicitOC_HL,2022.2.5,Win32,1,100,6.5845,2.0313,NA,NA,NA,NA,NA,happy,"unhappy, happy","less happy, more happy",NA,NA,NA,NA,NA,NA,NA,NA,NA,NA,NA,NA,NA,NA,NA,0,2,2,0,1,NA,NA,NA,NA,NA,NA,NA,NA,NA,NA,NA,NA,NA,NA,NA,NA,NA,NA,NA,NA,NA,NA,NA,NA,NA,NA,NA,NA
SUPAMT57917,3NXNZ5RS1GWAXCIG3S0GYP3W42P79N,307FD410-BF5B-4402-891A-A5D54383E968,2023-09-26_12h54.16.772,WP_VExplicitOC_HL,2022.2.5,Win32,1,NA,NA,NA,NA,NA,NA,NA,NA,NA,NA,NA,NA,NA,NA,NA,NA,NA,NA,NA,NA,NA,NA,NA,NA,NA,NA,NA,NA,NA,NA,NA,3,0,3,0,1,NA,NA,NA,NA,NA,NA,NA,NA,NA,NA,NA,NA,NA,NA,NA,NA,NA,NA,NA,NA,NA,NA,NA
SUPAMT57917,3NXNZ5RS1GWAXCIG3S0GYP3W42P79N,307FD410-BF5B-4402-891A-A5D54383E968,2023-09-26_12h54.16.772,WP_VExplicitOC_HL,2022.2.5,Win32,1,81.8359375,5.9986,2.4452,NA,NA,NA,NA,NA,happy,"unhappy, happy","less happy, more happy",NA,NA,NA,NA,NA,NA,NA,NA,NA,NA,NA,NA,NA,NA,NA,0,0,0,0,1,NA,NA,NA,NA,NA,NA,NA,NA,NA,NA,NA,NA,NA,NA,NA,NA,NA,NA,NA,NA,NA,NA,NA,NA,NA,NA,NA,NA
SUPAMT57917,3NXNZ5RS1GWAXCIG3S0GYP3W42P79N,307FD410-BF5B-4402-891A-A5D54383E968,2023-09-26_12h54.16.772,WP_VExplicitOC_HL,2022.2.5,Win32,1,99.4140625,5.3494,2.1702,NA,NA,NA,NA,NA,bored,"bored, not bored","more bored, less bored",NA,NA,NA,NA,NA,NA,NA,NA,NA,NA,NA,NA,NA,NA,NA,0,1,1,2,1,NA,NA,NA,NA,NA,NA,NA,NA,NA,NA,NA,NA,NA,NA,NA,NA,NA,NA,NA,NA,NA,NA,NA,NA,NA,NA,NA,NA
SUPAMT57917,3NXNZ5RS1GWAXCIG3S0GYP3W42P79N,307FD410-BF5B-4402-891A-A5D54383E968,2023-09-26_12h54.16.772,WP_VExplicitOC_HL,2022.2.5,Win32,1,94.53125,7.0941,2.9451,NA,NA,NA,NA,NA,frustrated,"frustrated, not frustrated","more frustrated, less frustrated",NA,NA,NA,NA,NA,NA,NA,NA,NA,NA,NA,NA,NA,NA,NA,0,2,2,1,1,NA,NA,NA,NA,NA,NA,NA,NA,NA,NA,NA,NA,NA,NA,NA,NA,NA,NA,NA,NA,NA,NA,NA,NA,NA,NA,NA,NA
SUPAMT57917,3NXNZ5RS1GWAXCIG3S0GYP3W42P79N,307FD410-BF5B-4402-891A-A5D54383E968,2023-09-26_12h54.16.772,WP_VExplicitOC_HL,2022.2.5,Win32,1,NA,NA,NA,NA,NA,NA,NA,NA,NA,NA,NA,NA,NA,NA,NA,NA,NA,NA,NA,NA,NA,NA,NA,NA,NA,NA,NA,NA,NA,NA,NA,4,0,4,0,1,NA,NA,NA,NA,NA,NA,NA,NA,NA,NA,NA,NA,NA,NA,NA,NA,NA,NA,NA,NA,NA,NA,NA
SUPAMT57917,3NXNZ5RS1GWAXCIG3S0GYP3W42P79N,307FD410-BF5B-4402-891A-A5D54383E968,2023-09-26_12h54.16.772,WP_VExplicitOC_HL,2022.2.5,Win32,1,87.6953125,5.7753,2.4786,NA,NA,NA,NA,NA,happy,"unhappy, happy","less happy, more happy",NA,NA,NA,NA,NA,NA,NA,NA,NA,NA,NA,NA,NA,NA,NA,0,0,0,0,1,NA,NA,NA,NA,NA,NA,NA,NA,NA,NA,NA,NA,NA,NA,NA,NA,NA,NA,NA,NA,NA,NA,NA,NA,NA,NA,NA,NA
SUPAMT57917,3NXNZ5RS1GWAXCIG3S0GYP3W42P79N,307FD410-BF5B-4402-891A-A5D54383E968,2023-09-26_12h54.16.772,WP_VExplicitOC_HL,2022.2.5,Win32,1,97.4609375,6.4905,2.583,NA,NA,NA,NA,NA,bored,"bored, not bored","more bored, less bored",NA,NA,NA,NA,NA,NA,NA,NA,NA,NA,NA,NA,NA,NA,NA,0,1,1,2,1,NA,NA,NA,NA,NA,NA,NA,NA,NA,NA,NA,NA,NA,NA,NA,NA,NA,NA,NA,NA,NA,NA,NA,NA,NA,NA,NA,NA
SUPAMT57917,3NXNZ5RS1GWAXCIG3S0GYP3W42P79N,307FD410-BF5B-4402-891A-A5D54383E968,2023-09-26_12h54.16.772,WP_VExplicitOC_HL,2022.2.5,Win32,1,NA,NA,3.2101,NA,NA,NA,NA,NA,frustrated,"frustrated, not frustrated","more frustrated, less frustrated",NA,NA,NA,NA,NA,NA,NA,NA,NA,NA,NA,NA,NA,NA,NA,0,2,2,1,1,NA,NA,NA,NA,NA,NA,NA,NA,NA,NA,NA,NA,NA,NA,NA,NA,NA,NA,NA,NA,NA,NA,NA,NA,NA,NA,NA,NA
SUPAMT57917,3NXNZ5RS1GWAXCIG3S0GYP3W42P79N,307FD410-BF5B-4402-891A-A5D54383E968,2023-09-26_12h54.16.772,WP_VExplicitOC_HL,2022.2.5,Win32,1,NA,NA,NA,NA,NA,NA,NA,NA,NA,NA,NA,NA,NA,NA,NA,NA,NA,NA,NA,NA,NA,NA,NA,NA,NA,NA,NA,NA,NA,NA,NA,5,0,5,0,1,NA,NA,NA,NA,NA,NA,NA,NA,NA,NA,NA,NA,NA,NA,NA,NA,NA,NA,NA,NA,NA,NA,NA
SUPAMT57917,3NXNZ5RS1GWAXCIG3S0GYP3W42P79N,307FD410-BF5B-4402-891A-A5D54383E968,2023-09-26_12h54.16.772,WP_VExplicitOC_HL,2022.2.5,Win32,1,74.0234375,6.0022,2.7106,NA,NA,NA,NA,NA,frustrated,"frustrated, not frustrated","more frustrated, less frustrated",NA,NA,NA,NA,NA,NA,NA,NA,NA,NA,NA,NA,NA,NA,NA,0,0,0,1,1,NA,NA,NA,NA,NA,NA,NA,NA,NA,NA,NA,NA,NA,NA,NA,NA,NA,NA,NA,NA,NA,NA,NA,NA,NA,NA,NA,NA
SUPAMT57917,3NXNZ5RS1GWAXCIG3S0GYP3W42P79N,307FD410-BF5B-4402-891A-A5D54383E968,2023-09-26_12h54.16.772,WP_VExplicitOC_HL,2022.2.5,Win32,1,93.5546875,7.6888,2.0612,NA,NA,NA,NA,NA,happy,"unhappy, happy","less happy, more happy",NA,NA,NA,NA,NA,NA,NA,NA,NA,NA,NA,NA,NA,NA,NA,0,1,1,0,1,NA,NA,NA,NA,NA,NA,NA,NA,NA,NA,NA,NA,NA,NA,NA,NA,NA,NA,NA,NA,NA,NA,NA,NA,NA,NA,NA,NA
SUPAMT57917,3NXNZ5RS1GWAXCIG3S0GYP3W42P79N,307FD410-BF5B-4402-891A-A5D54383E968,2023-09-26_12h54.16.772,WP_VExplicitOC_HL,2022.2.5,Win32,1,93.5546875,6.4365,2.4394,NA,NA,NA,NA,NA,bored,"bored, not bored","more bored, less bored",NA,NA,NA,NA,NA,NA,NA,NA,NA,NA,NA,NA,NA,NA,NA,0,2,2,2,1,NA,NA,NA,NA,NA,NA,NA,NA,NA,NA,NA,NA,NA,NA,NA,NA,NA,NA,NA,NA,NA,NA,NA,NA,NA,NA,NA,NA
SUPAMT57917,3NXNZ5RS1GWAXCIG3S0GYP3W42P79N,307FD410-BF5B-4402-891A-A5D54383E968,2023-09-26_12h54.16.772,WP_VExplicitOC_HL,2022.2.5,Win32,1,NA,NA,NA,NA,NA,NA,NA,NA,NA,NA,NA,NA,NA,NA,NA,NA,NA,NA,NA,NA,NA,NA,NA,NA,NA,NA,NA,NA,NA,NA,NA,6,0,6,0,1,NA,NA,NA,NA,NA,NA,NA,NA,NA,NA,NA,NA,NA,NA,NA,NA,NA,NA,NA,NA,NA,NA,NA
SUPAMT57917,3NXNZ5RS1GWAXCIG3S0GYP3W42P79N,307FD410-BF5B-4402-891A-A5D54383E968,2023-09-26_12h54.16.772,WP_VExplicitOC_HL,2022.2.5,Win32,1,72.4609375,5.4636,2.6334,NA,NA,NA,NA,NA,bored,"bored, not bored","more bored, less bored",NA,NA,NA,NA,NA,NA,NA,NA,NA,NA,NA,NA,NA,NA,NA,0,0,0,2,1,NA,NA,NA,NA,NA,NA,NA,NA,NA,NA,NA,NA,NA,NA,NA,NA,NA,NA,NA,NA,NA,NA,NA,NA,NA,NA,NA,NA
SUPAMT57917,3NXNZ5RS1GWAXCIG3S0GYP3W42P79N,307FD410-BF5B-4402-891A-A5D54383E968,2023-09-26_12h54.16.772,WP_VExplicitOC_HL,2022.2.5,Win32,1,82.8125,5.2497,2.067,NA,NA,NA,NA,NA,happy,"unhappy, happy","less happy, more happy",NA,NA,NA,NA,NA,NA,NA,NA,NA,NA,NA,NA,NA,NA,NA,0,1,1,0,1,NA,NA,NA,NA,NA,NA,NA,NA,NA,NA,NA,NA,NA,NA,NA,NA,NA,NA,NA,NA,NA,NA,NA,NA,NA,NA,NA,NA
SUPAMT57917,3NXNZ5RS1GWAXCIG3S0GYP3W42P79N,307FD410-BF5B-4402-891A-A5D54383E968,2023-09-26_12h54.16.772,WP_VExplicitOC_HL,2022.2.5,Win32,1,90.625,6.031,2.47,NA,NA,NA,NA,NA,frustrated,"frustrated, not frustrated","more frustrated, less frustrated",NA,NA,NA,NA,NA,NA,NA,NA,NA,NA,NA,NA,NA,NA,NA,0,2,2,1,1,NA,NA,NA,NA,NA,NA,NA,NA,NA,NA,NA,NA,NA,NA,NA,NA,NA,NA,NA,NA,NA,NA,NA,NA,NA,NA,NA,NA
SUPAMT57917,3NXNZ5RS1GWAXCIG3S0GYP3W42P79N,307FD410-BF5B-4402-891A-A5D54383E968,2023-09-26_12h54.16.772,WP_VExplicitOC_HL,2022.2.5,Win32,1,NA,NA,NA,NA,NA,NA,NA,NA,NA,NA,NA,NA,NA,NA,NA,NA,NA,NA,NA,NA,NA,NA,NA,NA,NA,NA,NA,NA,NA,NA,NA,7,0,7,0,1,NA,NA,NA,NA,NA,NA,NA,NA,NA,NA,NA,NA,NA,NA,NA,NA,NA,NA,NA,NA,NA,NA,NA
SUPAMT57917,3NXNZ5RS1GWAXCIG3S0GYP3W42P79N,307FD410-BF5B-4402-891A-A5D54383E968,2023-09-26_12h54.16.772,WP_VExplicitOC_HL,2022.2.5,Win32,1,93.5546875,6.783,3.7742,NA,NA,NA,NA,NA,bored,"bored, not bored","more bored, less bored",NA,NA,NA,NA,NA,NA,NA,NA,NA,NA,NA,NA,NA,NA,NA,0,0,0,2,1,NA,NA,NA,NA,NA,NA,NA,NA,NA,NA,NA,NA,NA,NA,NA,NA,NA,NA,NA,NA,NA,NA,NA,NA,NA,NA,NA,NA
SUPAMT57917,3NXNZ5RS1GWAXCIG3S0GYP3W42P79N,307FD410-BF5B-4402-891A-A5D54383E968,2023-09-26_12h54.16.772,WP_VExplicitOC_HL,2022.2.5,Win32,1,83.7890625,5.3642,2.655,NA,NA,NA,NA,NA,happy,"unhappy, happy","less happy, more happy",NA,NA,NA,NA,NA,NA,NA,NA,NA,NA,NA,NA,NA,NA,NA,0,1,1,0,1,NA,NA,NA,NA,NA,NA,NA,NA,NA,NA,NA,NA,NA,NA,NA,NA,NA,NA,NA,NA,NA,NA,NA,NA,NA,NA,NA,NA
SUPAMT57917,3NXNZ5RS1GWAXCIG3S0GYP3W42P79N,307FD410-BF5B-4402-891A-A5D54383E968,2023-09-26_12h54.16.772,WP_VExplicitOC_HL,2022.2.5,Win32,1,92.578125,5.9189,2.1896,NA,NA,NA,NA,NA,frustrated,"frustrated, not frustrated","more frustrated, less frustrated",NA,NA,NA,NA,NA,NA,NA,NA,NA,NA,NA,NA,NA,NA,NA,0,2,2,1,1,NA,NA,NA,NA,NA,NA,NA,NA,NA,NA,NA,NA,NA,NA,NA,NA,NA,NA,NA,NA,NA,NA,NA,NA,NA,NA,NA,NA
SUPAMT57917,3NXNZ5RS1GWAXCIG3S0GYP3W42P79N,307FD410-BF5B-4402-891A-A5D54383E968,2023-09-26_12h54.16.772,WP_VExplicitOC_HL,2022.2.5,Win32,1,NA,NA,NA,NA,NA,NA,NA,NA,NA,NA,NA,NA,NA,NA,NA,NA,NA,NA,NA,NA,NA,NA,NA,NA,NA,NA,NA,NA,NA,NA,NA,8,0,8,0,1,NA,NA,NA,NA,NA,NA,NA,NA,NA,NA,NA,NA,NA,NA,NA,NA,NA,NA,NA,NA,NA,NA,NA
SUPAMT57917,3NXNZ5RS1GWAXCIG3S0GYP3W42P79N,307FD410-BF5B-4402-891A-A5D54383E968,2023-09-26_12h54.16.772,WP_VExplicitOC_HL,2022.2.5,Win32,1,73.046875,5.9581,2.1118,NA,NA,NA,NA,NA,happy,"unhappy, happy","less happy, more happy",NA,NA,NA,NA,NA,NA,NA,NA,NA,NA,NA,NA,NA,NA,NA,0,0,0,0,1,NA,NA,NA,NA,NA,NA,NA,NA,NA,NA,NA,NA,NA,NA,NA,NA,NA,NA,NA,NA,NA,NA,NA,NA,NA,NA,NA,NA
SUPAMT57917,3NXNZ5RS1GWAXCIG3S0GYP3W42P79N,307FD410-BF5B-4402-891A-A5D54383E968,2023-09-26_12h54.16.772,WP_VExplicitOC_HL,2022.2.5,Win32,1,75.9765625,5.9242,3.0554,NA,NA,NA,NA,NA,frustrated,"frustrated, not frustrated","more frustrated, less frustrated",NA,NA,NA,NA,NA,NA,NA,NA,NA,NA,NA,NA,NA,NA,NA,0,1,1,1,1,NA,NA,NA,NA,NA,NA,NA,NA,NA,NA,NA,NA,NA,NA,NA,NA,NA,NA,NA,NA,NA,NA,NA,NA,NA,NA,NA,NA
SUPAMT57917,3NXNZ5RS1GWAXCIG3S0GYP3W42P79N,307FD410-BF5B-4402-891A-A5D54383E968,2023-09-26_12h54.16.772,WP_VExplicitOC_HL,2022.2.5,Win32,1,72.0703125,6.1282,2.1063,NA,NA,NA,NA,NA,bored,"bored, not bored","more bored, less bored",NA,NA,NA,NA,NA,NA,NA,NA,NA,NA,NA,NA,NA,NA,NA,0,2,2,2,1,NA,NA,NA,NA,NA,NA,NA,NA,NA,NA,NA,NA,NA,NA,NA,NA,NA,NA,NA,NA,NA,NA,NA,NA,NA,NA,NA,NA
SUPAMT57917,3NXNZ5RS1GWAXCIG3S0GYP3W42P79N,307FD410-BF5B-4402-891A-A5D54383E968,2023-09-26_12h54.16.772,WP_VExplicitOC_HL,2022.2.5,Win32,1,NA,NA,NA,NA,NA,NA,NA,NA,NA,NA,NA,NA,NA,NA,NA,NA,NA,NA,NA,NA,NA,NA,NA,NA,NA,NA,NA,NA,NA,NA,NA,9,0,9,0,1,NA,NA,NA,NA,NA,NA,NA,NA,NA,NA,NA,NA,NA,NA,NA,NA,NA,NA,NA,NA,NA,NA,NA
SUPAMT57917,3NXNZ5RS1GWAXCIG3S0GYP3W42P79N,307FD410-BF5B-4402-891A-A5D54383E968,2023-09-26_12h54.16.772,WP_VExplicitOC_HL,2022.2.5,Win32,1,99.4140625,6.2382,3.0666,NA,NA,NA,NA,NA,bored,"bored, not bored","more bored, less bored",NA,NA,NA,NA,NA,NA,NA,NA,NA,NA,NA,NA,NA,NA,NA,0,0,0,2,1,NA,NA,NA,NA,NA,NA,NA,NA,NA,NA,NA,NA,NA,NA,NA,NA,NA,NA,NA,NA,NA,NA,NA,NA,NA,NA,NA,NA
SUPAMT57917,3NXNZ5RS1GWAXCIG3S0GYP3W42P79N,307FD410-BF5B-4402-891A-A5D54383E968,2023-09-26_12h54.16.772,WP_VExplicitOC_HL,2022.2.5,Win32,1,100,7.0887,2.7458,NA,NA,NA,NA,NA,happy,"unhappy, happy","less happy, more happy",NA,NA,NA,NA,NA,NA,NA,NA,NA,NA,NA,NA,NA,NA,NA,0,1,1,0,1,NA,NA,NA,NA,NA,NA,NA,NA,NA,NA,NA,NA,NA,NA,NA,NA,NA,NA,NA,NA,NA,NA,NA,NA,NA,NA,NA,NA
SUPAMT57917,3NXNZ5RS1GWAXCIG3S0GYP3W42P79N,307FD410-BF5B-4402-891A-A5D54383E968,2023-09-26_12h54.16.772,WP_VExplicitOC_HL,2022.2.5,Win32,1,92.578125,5.5349,2.4534,NA,NA,NA,NA,NA,frustrated,"frustrated, not frustrated","more frustrated, less frustrated",NA,NA,NA,NA,NA,NA,NA,NA,NA,NA,NA,NA,NA,NA,NA,0,2,2,1,1,NA,NA,NA,NA,NA,NA,NA,NA,NA,NA,NA,NA,NA,NA,NA,NA,NA,NA,NA,NA,NA,NA,NA,NA,NA,NA,NA,NA
SUPAMT57917,3NXNZ5RS1GWAXCIG3S0GYP3W42P79N,307FD410-BF5B-4402-891A-A5D54383E968,2023-09-26_12h54.16.772,WP_VExplicitOC_HL,2022.2.5,Win32,1,NA,NA,NA,NA,NA,NA,NA,NA,NA,NA,NA,NA,NA,NA,NA,NA,NA,NA,NA,NA,NA,NA,NA,NA,NA,NA,NA,NA,NA,NA,NA,10,0,10,0,1,NA,NA,NA,NA,NA,NA,NA,NA,NA,NA,NA,NA,NA,NA,NA,NA,NA,NA,NA,NA,NA,NA,NA
SUPAMT57917,3NXNZ5RS1GWAXCIG3S0GYP3W42P79N,307FD410-BF5B-4402-891A-A5D54383E968,2023-09-26_12h54.16.772,WP_VExplicitOC_HL,2022.2.5,Win32,1,NA,NA,2.738,NA,NA,NA,NA,NA,frustrated,"frustrated, not frustrated","more frustrated, less frustrated",NA,NA,NA,NA,NA,NA,NA,NA,NA,NA,NA,NA,NA,NA,NA,0,0,0,1,1,NA,NA,NA,NA,NA,NA,NA,NA,NA,NA,NA,NA,NA,NA,NA,NA,NA,NA,NA,NA,NA,NA,NA,NA,NA,NA,NA,NA
SUPAMT57917,3NXNZ5RS1GWAXCIG3S0GYP3W42P79N,307FD410-BF5B-4402-891A-A5D54383E968,2023-09-26_12h54.16.772,WP_VExplicitOC_HL,2022.2.5,Win32,1,74.0234375,6.8966,2.949,NA,NA,NA,NA,NA,happy,"unhappy, happy","less happy, more happy",NA,NA,NA,NA,NA,NA,NA,NA,NA,NA,NA,NA,NA,NA,NA,0,1,1,0,1,NA,NA,NA,NA,NA,NA,NA,NA,NA,NA,NA,NA,NA,NA,NA,NA,NA,NA,NA,NA,NA,NA,NA,NA,NA,NA,NA,NA
SUPAMT57917,3NXNZ5RS1GWAXCIG3S0GYP3W42P79N,307FD410-BF5B-4402-891A-A5D54383E968,2023-09-26_12h54.16.772,WP_VExplicitOC_HL,2022.2.5,Win32,1,87.6953125,5.9165,2.7479,NA,NA,NA,NA,NA,bored,"bored, not bored","more bored, less bored",NA,NA,NA,NA,NA,NA,NA,NA,NA,NA,NA,NA,NA,NA,NA,0,2,2,2,1,NA,NA,NA,NA,NA,NA,NA,NA,NA,NA,NA,NA,NA,NA,NA,NA,NA,NA,NA,NA,NA,NA,NA,NA,NA,NA,NA,NA
SUPAMT57917,3NXNZ5RS1GWAXCIG3S0GYP3W42P79N,307FD410-BF5B-4402-891A-A5D54383E968,2023-09-26_12h54.16.772,WP_VExplicitOC_HL,2022.2.5,Win32,1,NA,NA,NA,NA,NA,NA,NA,NA,NA,NA,NA,NA,NA,NA,NA,NA,NA,NA,NA,NA,NA,NA,NA,NA,NA,NA,NA,NA,NA,NA,NA,11,0,11,0,1,NA,NA,NA,NA,NA,NA,NA,NA,NA,NA,NA,NA,NA,NA,NA,NA,NA,NA,NA,NA,NA,NA,NA
SUPAMT57917,3NXNZ5RS1GWAXCIG3S0GYP3W42P79N,307FD410-BF5B-4402-891A-A5D54383E968,2023-09-26_12h54.16.772,WP_VExplicitOC_HL,2022.2.5,Win32,1,92.578125,5.183,2.6369,NA,NA,NA,NA,NA,frustrated,"frustrated, not frustrated","more frustrated, less frustrated",NA,NA,NA,NA,NA,NA,NA,NA,NA,NA,NA,NA,NA,NA,NA,0,0,0,1,1,NA,NA,NA,NA,NA,NA,NA,NA,NA,NA,NA,NA,NA,NA,NA,NA,NA,NA,NA,NA,NA,NA,NA,NA,NA,NA,NA,NA
SUPAMT57917,3NXNZ5RS1GWAXCIG3S0GYP3W42P79N,307FD410-BF5B-4402-891A-A5D54383E968,2023-09-26_12h54.16.772,WP_VExplicitOC_HL,2022.2.5,Win32,1,90.625,5.9362,2.4606,NA,NA,NA,NA,NA,happy,"unhappy, happy","less happy, more happy",NA,NA,NA,NA,NA,NA,NA,NA,NA,NA,NA,NA,NA,NA,NA,0,1,1,0,1,NA,NA,NA,NA,NA,NA,NA,NA,NA,NA,NA,NA,NA,NA,NA,NA,NA,NA,NA,NA,NA,NA,NA,NA,NA,NA,NA,NA
SUPAMT57917,3NXNZ5RS1GWAXCIG3S0GYP3W42P79N,307FD410-BF5B-4402-891A-A5D54383E968,2023-09-26_12h54.16.772,WP_VExplicitOC_HL,2022.2.5,Win32,1,77.9296875,6.517,2.7502,NA,NA,NA,NA,NA,bored,"bored, not bored","more bored, less bored",NA,NA,NA,NA,NA,NA,NA,NA,NA,NA,NA,NA,NA,NA,NA,0,2,2,2,1,NA,NA,NA,NA,NA,NA,NA,NA,NA,NA,NA,NA,NA,NA,NA,NA,NA,NA,NA,NA,NA,NA,NA,NA,NA,NA,NA,NA
SUPAMT57917,3NXNZ5RS1GWAXCIG3S0GYP3W42P79N,307FD410-BF5B-4402-891A-A5D54383E968,2023-09-26_12h54.16.772,WP_VExplicitOC_HL,2022.2.5,Win32,1,NA,NA,NA,NA,NA,NA,NA,NA,NA,NA,NA,NA,NA,NA,NA,NA,NA,NA,NA,NA,NA,NA,NA,NA,NA,NA,NA,NA,NA,NA,NA,12,0,12,0,1,NA,NA,NA,NA,NA,NA,NA,NA,NA,NA,NA,NA,NA,NA,NA,NA,NA,NA,NA,NA,NA,NA,NA
SUPAMT57917,3NXNZ5RS1GWAXCIG3S0GYP3W42P79N,307FD410-BF5B-4402-891A-A5D54383E968,2023-09-26_12h54.16.772,WP_VExplicitOC_HL,2022.2.5,Win32,1,NA,NA,3.4382,NA,NA,NA,NA,NA,frustrated,"frustrated, not frustrated","more frustrated, less frustrated",NA,NA,NA,NA,NA,NA,NA,NA,NA,NA,NA,NA,NA,NA,NA,0,0,0,1,1,NA,NA,NA,NA,NA,NA,NA,NA,NA,NA,NA,NA,NA,NA,NA,NA,NA,NA,NA,NA,NA,NA,NA,NA,NA,NA,NA,NA
SUPAMT57917,3NXNZ5RS1GWAXCIG3S0GYP3W42P79N,307FD410-BF5B-4402-891A-A5D54383E968,2023-09-26_12h54.16.772,WP_VExplicitOC_HL,2022.2.5,Win32,1,80.859375,5.8924,2.6383,NA,NA,NA,NA,NA,bored,"bored, not bored","more bored, less bored",NA,NA,NA,NA,NA,NA,NA,NA,NA,NA,NA,NA,NA,NA,NA,0,1,1,2,1,NA,NA,NA,NA,NA,NA,NA,NA,NA,NA,NA,NA,NA,NA,NA,NA,NA,NA,NA,NA,NA,NA,NA,NA,NA,NA,NA,NA
SUPAMT57917,3NXNZ5RS1GWAXCIG3S0GYP3W42P79N,307FD410-BF5B-4402-891A-A5D54383E968,2023-09-26_12h54.16.772,WP_VExplicitOC_HL,2022.2.5,Win32,1,75.9765625,6.5495,2.3554,NA,NA,NA,NA,NA,happy,"unhappy, happy","less happy, more happy",NA,NA,NA,NA,NA,NA,NA,NA,NA,NA,NA,NA,NA,NA,NA,0,2,2,0,1,NA,NA,NA,NA,NA,NA,NA,NA,NA,NA,NA,NA,NA,NA,NA,NA,NA,NA,NA,NA,NA,NA,NA,NA,NA,NA,NA,NA
SUPAMT57917,3NXNZ5RS1GWAXCIG3S0GYP3W42P79N,307FD410-BF5B-4402-891A-A5D54383E968,2023-09-26_12h54.16.772,WP_VExplicitOC_HL,2022.2.5,Win32,1,NA,NA,NA,NA,NA,NA,NA,NA,NA,NA,NA,NA,NA,NA,NA,NA,NA,NA,NA,NA,NA,NA,NA,NA,NA,NA,NA,NA,NA,NA,NA,13,0,13,0,1,NA,NA,NA,NA,NA,NA,NA,NA,NA,NA,NA,NA,NA,NA,NA,NA,NA,NA,NA,NA,NA,NA,NA
SUPAMT57917,3NXNZ5RS1GWAXCIG3S0GYP3W42P79N,307FD410-BF5B-4402-891A-A5D54383E968,2023-09-26_12h54.16.772,WP_VExplicitOC_HL,2022.2.5,Win32,1,NA,NA,2.7804,NA,NA,NA,NA,NA,happy,"unhappy, happy","less happy, more happy",NA,NA,NA,NA,NA,NA,NA,NA,NA,NA,NA,NA,NA,NA,NA,0,0,0,0,1,NA,NA,NA,NA,NA,NA,NA,NA,NA,NA,NA,NA,NA,NA,NA,NA,NA,NA,NA,NA,NA,NA,NA,NA,NA,NA,NA,NA
SUPAMT57917,3NXNZ5RS1GWAXCIG3S0GYP3W42P79N,307FD410-BF5B-4402-891A-A5D54383E968,2023-09-26_12h54.16.772,WP_VExplicitOC_HL,2022.2.5,Win32,1,92.578125,4.777,2.256,NA,NA,NA,NA,NA,frustrated,"frustrated, not frustrated","more frustrated, less frustrated",NA,NA,NA,NA,NA,NA,NA,NA,NA,NA,NA,NA,NA,NA,NA,0,1,1,1,1,NA,NA,NA,NA,NA,NA,NA,NA,NA,NA,NA,NA,NA,NA,NA,NA,NA,NA,NA,NA,NA,NA,NA,NA,NA,NA,NA,NA
SUPAMT57917,3NXNZ5RS1GWAXCIG3S0GYP3W42P79N,307FD410-BF5B-4402-891A-A5D54383E968,2023-09-26_12h54.16.772,WP_VExplicitOC_HL,2022.2.5,Win32,1,74.0234375,5.7325,3.3339,NA,NA,NA,NA,NA,bored,"bored, not bored","more bored, less bored",NA,NA,NA,NA,NA,NA,NA,NA,NA,NA,NA,NA,NA,NA,NA,0,2,2,2,1,NA,NA,NA,NA,NA,NA,NA,NA,NA,NA,NA,NA,NA,NA,NA,NA,NA,NA,NA,NA,NA,NA,NA,NA,NA,NA,NA,NA
SUPAMT57917,3NXNZ5RS1GWAXCIG3S0GYP3W42P79N,307FD410-BF5B-4402-891A-A5D54383E968,2023-09-26_12h54.16.772,WP_VExplicitOC_HL,2022.2.5,Win32,1,NA,NA,NA,NA,NA,NA,NA,NA,NA,NA,NA,NA,NA,NA,NA,NA,NA,NA,NA,NA,NA,NA,NA,NA,NA,NA,NA,NA,NA,NA,NA,14,0,14,0,1,NA,NA,NA,NA,NA,NA,NA,NA,NA,NA,NA,NA,NA,NA,NA,NA,NA,NA,NA,NA,NA,NA,NA
SUPAMT57917,3NXNZ5RS1GWAXCIG3S0GYP3W42P79N,307FD410-BF5B-4402-891A-A5D54383E968,2023-09-26_12h54.16.772,WP_VExplicitOC_HL,2022.2.5,Win32,1,NA,NA,NA,NA,NA,NA,NA,NA,NA,NA,NA,NA,NA,NA,NA,NA,NA,NA,NA,NA,NA,NA,NA,NA,NA,NA,NA,NA,NA,NA,NA,NA,NA,NA,NA,NA,NA,NA,NA,NA,NA,NA,NA,NA,NA,NA,NA,NA,NA,NA,NA,NA,NA,NA,NA,NA,NA,NA,NA
SUPAMT57917,3NXNZ5RS1GWAXCIG3S0GYP3W42P79N,307FD410-BF5B-4402-891A-A5D54383E968,2023-09-26_12h54.16.772,WP_VExplicitOC_HL,2022.2.5,Win32,1,NA,NA,NA,NA,NA,NA,NA,NA,NA,NA,NA,NA,NA,NA,NA,NA,NA,NA,NA,NA,NA,NA,NA,NA,NA,NA,NA,NA,NA,NA,NA,NA,NA,NA,NA,NA,NA,NA,NA,NA,NA,NA,NA,NA,NA,NA,NA,NA,NA,NA,NA,NA,NA,NA,NA,NA,NA,NA,NA
SUPAMT57917,3NXNZ5RS1GWAXCIG3S0GYP3W42P79N,307FD410-BF5B-4402-891A-A5D54383E968,2023-09-26_12h54.16.772,WP_VExplicitOC_HL,2022.2.5,Win32,1,NA,NA,NA,NA,NA,NA,NA,NA,NA,NA,NA,NA,NA,NA,NA,NA,NA,NA,rest (looking at a fixed cross),001.png,NA,NA,NA,NA,NA,NA,NA,NA,NA,NA,NA,NA,NA,NA,NA,NA,90.625,3.1812,0,0,0,0,1,NA,NA,NA,NA,NA,NA,NA,NA,NA,NA,NA,NA,NA,NA,NA,NA
SUPAMT57917,3NXNZ5RS1GWAXCIG3S0GYP3W42P79N,307FD410-BF5B-4402-891A-A5D54383E968,2023-09-26_12h54.16.772,WP_VExplicitOC_HL,2022.2.5,Win32,1,NA,NA,NA,NA,NA,NA,NA,NA,NA,NA,NA,NA,NA,NA,NA,NA,NA,NA,stand up,002.png,NA,NA,NA,NA,NA,NA,NA,NA,NA,NA,NA,NA,NA,NA,NA,NA,80.2734375,0.9617,0,1,1,1,1,NA,NA,NA,NA,NA,NA,NA,NA,NA,NA,NA,NA,NA,NA,NA,NA
SUPAMT57917,3NXNZ5RS1GWAXCIG3S0GYP3W42P79N,307FD410-BF5B-4402-891A-A5D54383E968,2023-09-26_12h54.16.772,WP_VExplicitOC_HL,2022.2.5,Win32,1,NA,NA,NA,NA,NA,NA,NA,NA,NA,NA,NA,NA,NA,NA,NA,NA,NA,NA,stretch,003.png,NA,NA,NA,NA,NA,NA,NA,NA,NA,NA,NA,NA,NA,NA,NA,NA,95.5078125,1.6625,0,2,2,2,1,NA,NA,NA,NA,NA,NA,NA,NA,NA,NA,NA,NA,NA,NA,NA,NA
SUPAMT57917,3NXNZ5RS1GWAXCIG3S0GYP3W42P79N,307FD410-BF5B-4402-891A-A5D54383E968,2023-09-26_12h54.16.772,WP_VExplicitOC_HL,2022.2.5,Win32,1,NA,NA,NA,NA,NA,NA,NA,NA,NA,NA,NA,NA,NA,NA,NA,NA,NA,NA,make a drink,004.png,NA,NA,NA,NA,NA,NA,NA,NA,NA,NA,NA,NA,NA,NA,NA,NA,83.7890625,1.6889,0,3,3,3,1,NA,NA,NA,NA,NA,NA,NA,NA,NA,NA,NA,NA,NA,NA,NA,NA
SUPAMT57917,3NXNZ5RS1GWAXCIG3S0GYP3W42P79N,307FD410-BF5B-4402-891A-A5D54383E968,2023-09-26_12h54.16.772,WP_VExplicitOC_HL,2022.2.5,Win32,1,NA,NA,NA,NA,NA,NA,NA,NA,NA,NA,NA,NA,NA,NA,NA,NA,NA,NA,scroll social media,005.png,NA,NA,NA,NA,NA,NA,NA,NA,NA,NA,NA,NA,NA,NA,NA,NA,100,1.6132,0,4,4,4,1,NA,NA,NA,NA,NA,NA,NA,NA,NA,NA,NA,NA,NA,NA,NA,NA
SUPAMT57917,3NXNZ5RS1GWAXCIG3S0GYP3W42P79N,307FD410-BF5B-4402-891A-A5D54383E968,2023-09-26_12h54.16.772,WP_VExplicitOC_HL,2022.2.5,Win32,1,NA,NA,NA,NA,NA,NA,NA,NA,NA,NA,NA,NA,NA,NA,NA,NA,NA,NA,listen to music,006.png,NA,NA,NA,NA,NA,NA,NA,NA,NA,NA,NA,NA,NA,NA,NA,NA,91.6015625,1.7792,0,5,5,5,1,NA,NA,NA,NA,NA,NA,NA,NA,NA,NA,NA,NA,NA,NA,NA,NA
SUPAMT57917,3NXNZ5RS1GWAXCIG3S0GYP3W42P79N,307FD410-BF5B-4402-891A-A5D54383E968,2023-09-26_12h54.16.772,WP_VExplicitOC_HL,2022.2.5,Win32,1,NA,NA,NA,NA,NA,NA,NA,NA,NA,NA,NA,NA,NA,NA,NA,NA,NA,NA,daydream,007.png,NA,NA,NA,NA,NA,NA,NA,NA,NA,NA,NA,NA,NA,NA,NA,NA,91.6015625,1.0757,0,6,6,6,1,NA,NA,NA,NA,NA,NA,NA,NA,NA,NA,NA,NA,NA,NA,NA,NA
SUPAMT57917,3NXNZ5RS1GWAXCIG3S0GYP3W42P79N,307FD410-BF5B-4402-891A-A5D54383E968,2023-09-26_12h54.16.772,WP_VExplicitOC_HL,2022.2.5,Win32,1,NA,NA,NA,NA,NA,NA,NA,NA,NA,NA,NA,NA,NA,NA,NA,NA,NA,NA,watch a short animation,008.png,NA,NA,NA,NA,NA,NA,NA,NA,NA,NA,NA,NA,NA,NA,NA,NA,95.5078125,1.6959,0,7,7,7,1,NA,NA,NA,NA,NA,NA,NA,NA,NA,NA,NA,NA,NA,NA,NA,NA
SUPAMT57917,3NXNZ5RS1GWAXCIG3S0GYP3W42P79N,307FD410-BF5B-4402-891A-A5D54383E968,2023-09-26_12h54.16.772,WP_VExplicitOC_HL,2022.2.5,Win32,1,NA,NA,NA,NA,NA,NA,NA,NA,NA,NA,NA,NA,NA,NA,NA,NA,NA,NA,read a novel,009.png,NA,NA,NA,NA,NA,NA,NA,NA,NA,NA,NA,NA,NA,NA,NA,NA,100,1.8802,0,8,8,8,1,NA,NA,NA,NA,NA,NA,NA,NA,NA,NA,NA,NA,NA,NA,NA,NA
SUPAMT57917,3NXNZ5RS1GWAXCIG3S0GYP3W42P79N,307FD410-BF5B-4402-891A-A5D54383E968,2023-09-26_12h54.16.772,WP_VExplicitOC_HL,2022.2.5,Win32,1,NA,NA,NA,NA,NA,NA,NA,NA,NA,NA,NA,NA,NA,NA,NA,NA,NA,NA,read the news,010.png,NA,NA,NA,NA,NA,NA,NA,NA,NA,NA,NA,NA,NA,NA,NA,NA,93.5546875,2.2732,0,9,9,9,1,NA,NA,NA,NA,NA,NA,NA,NA,NA,NA,NA,NA,NA,NA,NA,NA
SUPAMT57917,3NXNZ5RS1GWAXCIG3S0GYP3W42P79N,307FD410-BF5B-4402-891A-A5D54383E968,2023-09-26_12h54.16.772,WP_VExplicitOC_HL,2022.2.5,Win32,1,NA,NA,NA,NA,NA,NA,NA,NA,NA,NA,NA,NA,NA,NA,NA,NA,NA,NA,NA,NA,NA,NA,NA,NA,NA,NA,NA,NA,NA,NA,NA,NA,NA,NA,NA,NA,NA,NA,NA,NA,NA,NA,NA,stand up,NA,NA,NA,NA,NA,NA,NA,NA,NA,NA,NA,NA,NA,NA,NA
SUPAMT57917,3NXNZ5RS1GWAXCIG3S0GYP3W42P79N,307FD410-BF5B-4402-891A-A5D54383E968,2023-09-26_12h54.16.772,WP_VExplicitOC_HL,2022.2.5,Win32,1,100,5.8125,2.5356,NA,NA,NA,NA,NA,happy,"unhappy, happy","less happy, more happy",NA,NA,NA,NA,NA,NA,NA,NA,NA,NA,NA,NA,NA,NA,NA,NA,NA,NA,NA,NA,NA,NA,NA,NA,NA,NA,NA,NA,NA,NA,NA,NA,NA,0,0,0,0,1,NA,NA,NA,NA,NA,NA,NA,NA,NA,NA
SUPAMT57917,3NXNZ5RS1GWAXCIG3S0GYP3W42P79N,307FD410-BF5B-4402-891A-A5D54383E968,2023-09-26_12h54.16.772,WP_VExplicitOC_HL,2022.2.5,Win32,1,94.921875,6.8091,2.6665,NA,NA,NA,NA,NA,bored,"bored, not bored","more bored, less bored",NA,NA,NA,NA,NA,NA,NA,NA,NA,NA,NA,NA,NA,NA,NA,NA,NA,NA,NA,NA,NA,NA,NA,NA,NA,NA,NA,NA,NA,NA,NA,NA,NA,0,1,1,2,1,NA,NA,NA,NA,NA,NA,NA,NA,NA,NA
SUPAMT57917,3NXNZ5RS1GWAXCIG3S0GYP3W42P79N,307FD410-BF5B-4402-891A-A5D54383E968,2023-09-26_12h54.16.772,WP_VExplicitOC_HL,2022.2.5,Win32,1,93.9453125,6.533,2.3751,NA,NA,NA,NA,NA,frustrated,"frustrated, not frustrated","more frustrated, less frustrated",NA,NA,NA,NA,NA,NA,NA,NA,NA,NA,NA,NA,NA,NA,NA,NA,NA,NA,NA,NA,NA,NA,NA,NA,NA,NA,NA,NA,NA,NA,NA,NA,NA,0,2,2,1,1,NA,NA,NA,NA,NA,NA,NA,NA,NA,NA
SUPAMT57917,3NXNZ5RS1GWAXCIG3S0GYP3W42P79N,307FD410-BF5B-4402-891A-A5D54383E968,2023-09-26_12h54.16.772,WP_VExplicitOC_HL,2022.2.5,Win32,1,NA,NA,NA,NA,NA,NA,NA,NA,NA,NA,NA,NA,NA,NA,NA,NA,NA,NA,NA,NA,NA,NA,NA,NA,NA,NA,NA,NA,NA,NA,NA,NA,NA,NA,NA,NA,NA,NA,NA,NA,NA,NA,NA,NA,NA,NA,NA,NA,NA,NA,NA,NA,NA,NA,NA,NA,NA,NA,NA
SUPAMT57917,3NXNZ5RS1GWAXCIG3S0GYP3W42P79N,307FD410-BF5B-4402-891A-A5D54383E968,2023-09-26_12h54.16.772,WP_VExplicitOC_HL,2022.2.5,Win32,1,NA,NA,NA,NA,NA,NA,NA,NA,NA,NA,NA,NA,NA,NA,NA,NA,NA,NA,NA,NA,NA,NA,NA,NA,NA,NA,NA,NA,NA,NA,NA,NA,NA,NA,NA,NA,NA,NA,NA,NA,NA,NA,NA,NA,NA,NA,NA,NA,NA,NA,NA,NA,NA,NA,NA,NA,NA,NA,NA
SUPAMT57917,3NXNZ5RS1GWAXCIG3S0GYP3W42P79N,307FD410-BF5B-4402-891A-A5D54383E968,2023-09-26_12h54.16.772,WP_VExplicitOC_HL,2022.2.5,Win32,1,90.0390625,5.9051,2.3462,NA,NA,NA,NA,NA,happy,"unhappy, happy","less happy, more happy",NA,NA,NA,NA,NA,NA,NA,NA,NA,NA,NA,NA,NA,NA,NA,NA,NA,NA,NA,NA,NA,NA,NA,NA,NA,NA,NA,NA,NA,NA,NA,NA,NA,NA,NA,NA,NA,NA,0,0,0,0,1,NA,NA,NA,NA,NA
SUPAMT57917,3NXNZ5RS1GWAXCIG3S0GYP3W42P79N,307FD410-BF5B-4402-891A-A5D54383E968,2023-09-26_12h54.16.772,WP_VExplicitOC_HL,2022.2.5,Win32,1,89.0625,5.7516,2.3784,NA,NA,NA,NA,NA,bored,"bored, not bored","more bored, less bored",NA,NA,NA,NA,NA,NA,NA,NA,NA,NA,NA,NA,NA,NA,NA,NA,NA,NA,NA,NA,NA,NA,NA,NA,NA,NA,NA,NA,NA,NA,NA,NA,NA,NA,NA,NA,NA,NA,0,1,1,2,1,NA,NA,NA,NA,NA
SUPAMT57917,3NXNZ5RS1GWAXCIG3S0GYP3W42P79N,307FD410-BF5B-4402-891A-A5D54383E968,2023-09-26_12h54.16.772,WP_VExplicitOC_HL,2022.2.5,Win32,1,99.8046875,5.873,2.5582,NA,NA,NA,NA,NA,frustrated,"frustrated, not frustrated","more frustrated, less frustrated",NA,NA,NA,NA,NA,NA,NA,NA,NA,NA,NA,NA,NA,NA,NA,NA,NA,NA,NA,NA,NA,NA,NA,NA,NA,NA,NA,NA,NA,NA,NA,NA,NA,NA,NA,NA,NA,NA,0,2,2,1,1,NA,NA,NA,NA,NA
SUPAMT57917,3NXNZ5RS1GWAXCIG3S0GYP3W42P79N,307FD410-BF5B-4402-891A-A5D54383E968,2023-09-26_12h54.16.772,WP_VExplicitOC_HL,2022.2.5,Win32,1,NA,NA,NA,NA,NA,NA,NA,NA,NA,NA,NA,NA,NA,NA,NA,NA,NA,NA,NA,NA,NA,NA,NA,NA,NA,NA,NA,NA,NA,NA,NA,NA,NA,NA,NA,NA,NA,NA,NA,NA,NA,NA,NA,NA,NA,NA,NA,NA,NA,NA,NA,NA,NA,NA,0,0,0,0,1
SUPAMT57917,3NXNZ5RS1GWAXCIG3S0GYP3W42P79N,307FD410-BF5B-4402-891A-A5D54383E968,2023-09-26_12h54.16.772,WP_VExplicitOC_HL,2022.2.5,Win32,1,85.7421875,5.1996,2.1684,NA,NA,NA,NA,NA,bored,"bored, not bored","more bored, less bored",NA,NA,NA,NA,NA,NA,NA,NA,NA,NA,NA,NA,NA,NA,NA,NA,NA,NA,NA,NA,NA,NA,NA,NA,NA,NA,NA,NA,NA,NA,NA,NA,NA,NA,NA,NA,NA,NA,0,0,0,2,1,NA,NA,NA,NA,NA
SUPAMT57917,3NXNZ5RS1GWAXCIG3S0GYP3W42P79N,307FD410-BF5B-4402-891A-A5D54383E968,2023-09-26_12h54.16.772,WP_VExplicitOC_HL,2022.2.5,Win32,1,91.015625,6.5721,3.0148,NA,NA,NA,NA,NA,frustrated,"frustrated, not frustrated","more frustrated, less frustrated",NA,NA,NA,NA,NA,NA,NA,NA,NA,NA,NA,NA,NA,NA,NA,NA,NA,NA,NA,NA,NA,NA,NA,NA,NA,NA,NA,NA,NA,NA,NA,NA,NA,NA,NA,NA,NA,NA,0,1,1,1,1,NA,NA,NA,NA,NA
SUPAMT57917,3NXNZ5RS1GWAXCIG3S0GYP3W42P79N,307FD410-BF5B-4402-891A-A5D54383E968,2023-09-26_12h54.16.772,WP_VExplicitOC_HL,2022.2.5,Win32,1,87.109375,6.4156,2.4982,NA,NA,NA,NA,NA,happy,"unhappy, happy","less happy, more happy",NA,NA,NA,NA,NA,NA,NA,NA,NA,NA,NA,NA,NA,NA,NA,NA,NA,NA,NA,NA,NA,NA,NA,NA,NA,NA,NA,NA,NA,NA,NA,NA,NA,NA,NA,NA,NA,NA,0,2,2,0,1,NA,NA,NA,NA,NA
SUPAMT57917,3NXNZ5RS1GWAXCIG3S0GYP3W42P79N,307FD410-BF5B-4402-891A-A5D54383E968,2023-09-26_12h54.16.772,WP_VExplicitOC_HL,2022.2.5,Win32,1,NA,NA,NA,NA,NA,NA,NA,NA,NA,NA,NA,NA,NA,NA,NA,NA,NA,NA,NA,NA,NA,NA,NA,NA,NA,NA,NA,NA,NA,NA,NA,NA,NA,NA,NA,NA,NA,NA,NA,NA,NA,NA,NA,NA,NA,NA,NA,NA,NA,NA,NA,NA,NA,NA,1,0,1,0,1
SUPAMT57917,3NXNZ5RS1GWAXCIG3S0GYP3W42P79N,307FD410-BF5B-4402-891A-A5D54383E968,2023-09-26_12h54.16.772,WP_VExplicitOC_HL,2022.2.5,Win32,1,NA,NA,3.5475,NA,NA,NA,NA,NA,frustrated,"frustrated, not frustrated","more frustrated, less frustrated",NA,NA,NA,NA,NA,NA,NA,NA,NA,NA,NA,NA,NA,NA,NA,NA,NA,NA,NA,NA,NA,NA,NA,NA,NA,NA,NA,NA,NA,NA,NA,NA,NA,NA,NA,NA,NA,NA,0,0,0,1,1,NA,NA,NA,NA,NA
SUPAMT57917,3NXNZ5RS1GWAXCIG3S0GYP3W42P79N,307FD410-BF5B-4402-891A-A5D54383E968,2023-09-26_12h54.16.772,WP_VExplicitOC_HL,2022.2.5,Win32,1,89.0625,6.7934,2.7215,NA,NA,NA,NA,NA,happy,"unhappy, happy","less happy, more happy",NA,NA,NA,NA,NA,NA,NA,NA,NA,NA,NA,NA,NA,NA,NA,NA,NA,NA,NA,NA,NA,NA,NA,NA,NA,NA,NA,NA,NA,NA,NA,NA,NA,NA,NA,NA,NA,NA,0,1,1,0,1,NA,NA,NA,NA,NA
SUPAMT57917,3NXNZ5RS1GWAXCIG3S0GYP3W42P79N,307FD410-BF5B-4402-891A-A5D54383E968,2023-09-26_12h54.16.772,WP_VExplicitOC_HL,2022.2.5,Win32,1,-4.6875,6.2675,2.1087,NA,NA,NA,NA,NA,bored,"bored, not bored","more bored, less bored",NA,NA,NA,NA,NA,NA,NA,NA,NA,NA,NA,NA,NA,NA,NA,NA,NA,NA,NA,NA,NA,NA,NA,NA,NA,NA,NA,NA,NA,NA,NA,NA,NA,NA,NA,NA,NA,NA,0,2,2,2,1,NA,NA,NA,NA,NA
SUPAMT57917,3NXNZ5RS1GWAXCIG3S0GYP3W42P79N,307FD410-BF5B-4402-891A-A5D54383E968,2023-09-26_12h54.16.772,WP_VExplicitOC_HL,2022.2.5,Win32,1,NA,NA,NA,NA,NA,NA,NA,NA,NA,NA,NA,NA,NA,NA,NA,NA,NA,NA,NA,NA,NA,NA,NA,NA,NA,NA,NA,NA,NA,NA,NA,NA,NA,NA,NA,NA,NA,NA,NA,NA,NA,NA,NA,NA,NA,NA,NA,NA,NA,NA,NA,NA,NA,NA,2,0,2,0,1
SUPAMT57917,3NXNZ5RS1GWAXCIG3S0GYP3W42P79N,307FD410-BF5B-4402-891A-A5D54383E968,2023-09-26_12h54.16.772,WP_VExplicitOC_HL,2022.2.5,Win32,1,99.4140625,6.7596,2.9343,NA,NA,NA,NA,NA,happy,"unhappy, happy","less happy, more happy",NA,NA,NA,NA,NA,NA,NA,NA,NA,NA,NA,NA,NA,NA,NA,NA,NA,NA,NA,NA,NA,NA,NA,NA,NA,NA,NA,NA,NA,NA,NA,NA,NA,NA,NA,NA,NA,NA,0,0,0,0,1,NA,NA,NA,NA,NA
SUPAMT57917,3NXNZ5RS1GWAXCIG3S0GYP3W42P79N,307FD410-BF5B-4402-891A-A5D54383E968,2023-09-26_12h54.16.772,WP_VExplicitOC_HL,2022.2.5,Win32,1,NA,NA,2.9644,NA,NA,NA,NA,NA,bored,"bored, not bored","more bored, less bored",NA,NA,NA,NA,NA,NA,NA,NA,NA,NA,NA,NA,NA,NA,NA,NA,NA,NA,NA,NA,NA,NA,NA,NA,NA,NA,NA,NA,NA,NA,NA,NA,NA,NA,NA,NA,NA,NA,0,1,1,2,1,NA,NA,NA,NA,NA
SUPAMT57917,3NXNZ5RS1GWAXCIG3S0GYP3W42P79N,307FD410-BF5B-4402-891A-A5D54383E968,2023-09-26_12h54.16.772,WP_VExplicitOC_HL,2022.2.5,Win32,1,75,8.2931,2.961,NA,NA,NA,NA,NA,frustrated,"frustrated, not frustrated","more frustrated, less frustrated",NA,NA,NA,NA,NA,NA,NA,NA,NA,NA,NA,NA,NA,NA,NA,NA,NA,NA,NA,NA,NA,NA,NA,NA,NA,NA,NA,NA,NA,NA,NA,NA,NA,NA,NA,NA,NA,NA,0,2,2,1,1,NA,NA,NA,NA,NA
SUPAMT57917,3NXNZ5RS1GWAXCIG3S0GYP3W42P79N,307FD410-BF5B-4402-891A-A5D54383E968,2023-09-26_12h54.16.772,WP_VExplicitOC_HL,2022.2.5,Win32,1,NA,NA,NA,NA,NA,NA,NA,NA,NA,NA,NA,NA,NA,NA,NA,NA,NA,NA,NA,NA,NA,NA,NA,NA,NA,NA,NA,NA,NA,NA,NA,NA,NA,NA,NA,NA,NA,NA,NA,NA,NA,NA,NA,NA,NA,NA,NA,NA,NA,NA,NA,NA,NA,NA,3,0,3,0,1
SUPAMT57917,3NXNZ5RS1GWAXCIG3S0GYP3W42P79N,307FD410-BF5B-4402-891A-A5D54383E968,2023-09-26_12h54.16.772,WP_VExplicitOC_HL,2022.2.5,Win32,1,100,5.2711,2.0068,NA,NA,NA,NA,NA,happy,"unhappy, happy","less happy, more happy",NA,NA,NA,NA,NA,NA,NA,NA,NA,NA,NA,NA,NA,NA,NA,NA,NA,NA,NA,NA,NA,NA,NA,NA,NA,NA,NA,NA,NA,NA,NA,NA,NA,NA,NA,NA,NA,NA,0,0,0,0,1,NA,NA,NA,NA,NA
SUPAMT57917,3NXNZ5RS1GWAXCIG3S0GYP3W42P79N,307FD410-BF5B-4402-891A-A5D54383E968,2023-09-26_12h54.16.772,WP_VExplicitOC_HL,2022.2.5,Win32,1,100,6.161,2.5661,NA,NA,NA,NA,NA,bored,"bored, not bored","more bored, less bored",NA,NA,NA,NA,NA,NA,NA,NA,NA,NA,NA,NA,NA,NA,NA,NA,NA,NA,NA,NA,NA,NA,NA,NA,NA,NA,NA,NA,NA,NA,NA,NA,NA,NA,NA,NA,NA,NA,0,1,1,2,1,NA,NA,NA,NA,NA
SUPAMT57917,3NXNZ5RS1GWAXCIG3S0GYP3W42P79N,307FD410-BF5B-4402-891A-A5D54383E968,2023-09-26_12h54.16.772,WP_VExplicitOC_HL,2022.2.5,Win32,1,94.53125,5.5265,2.0832,NA,NA,NA,NA,NA,frustrated,"frustrated, not frustrated","more frustrated, less frustrated",NA,NA,NA,NA,NA,NA,NA,NA,NA,NA,NA,NA,NA,NA,NA,NA,NA,NA,NA,NA,NA,NA,NA,NA,NA,NA,NA,NA,NA,NA,NA,NA,NA,NA,NA,NA,NA,NA,0,2,2,1,1,NA,NA,NA,NA,NA
SUPAMT57917,3NXNZ5RS1GWAXCIG3S0GYP3W42P79N,307FD410-BF5B-4402-891A-A5D54383E968,2023-09-26_12h54.16.772,WP_VExplicitOC_HL,2022.2.5,Win32,1,NA,NA,NA,NA,NA,NA,NA,NA,NA,NA,NA,NA,NA,NA,NA,NA,NA,NA,NA,NA,NA,NA,NA,NA,NA,NA,NA,NA,NA,NA,NA,NA,NA,NA,NA,NA,NA,NA,NA,NA,NA,NA,NA,NA,NA,NA,NA,NA,NA,NA,NA,NA,NA,NA,4,0,4,0,1
SUPAMT57917,3NXNZ5RS1GWAXCIG3S0GYP3W42P79N,307FD410-BF5B-4402-891A-A5D54383E968,2023-09-26_12h54.16.772,WP_VExplicitOC_HL,2022.2.5,Win32,1,77.34375,6.5804,2.4217,NA,NA,NA,NA,NA,happy,"unhappy, happy","less happy, more happy",NA,NA,NA,NA,NA,NA,NA,NA,NA,NA,NA,NA,NA,NA,NA,NA,NA,NA,NA,NA,NA,NA,NA,NA,NA,NA,NA,NA,NA,NA,NA,NA,NA,NA,NA,NA,NA,NA,0,0,0,0,1,NA,NA,NA,NA,NA
SUPAMT57917,3NXNZ5RS1GWAXCIG3S0GYP3W42P79N,307FD410-BF5B-4402-891A-A5D54383E968,2023-09-26_12h54.16.772,WP_VExplicitOC_HL,2022.2.5,Win32,1,95.8984375,7.1208,3.5202,NA,NA,NA,NA,NA,frustrated,"frustrated, not frustrated","more frustrated, less frustrated",NA,NA,NA,NA,NA,NA,NA,NA,NA,NA,NA,NA,NA,NA,NA,NA,NA,NA,NA,NA,NA,NA,NA,NA,NA,NA,NA,NA,NA,NA,NA,NA,NA,NA,NA,NA,NA,NA,0,1,1,1,1,NA,NA,NA,NA,NA
SUPAMT57917,3NXNZ5RS1GWAXCIG3S0GYP3W42P79N,307FD410-BF5B-4402-891A-A5D54383E968,2023-09-26_12h54.16.772,WP_VExplicitOC_HL,2022.2.5,Win32,1,92.96875,5.9335,2.3749,NA,NA,NA,NA,NA,bored,"bored, not bored","more bored, less bored",NA,NA,NA,NA,NA,NA,NA,NA,NA,NA,NA,NA,NA,NA,NA,NA,NA,NA,NA,NA,NA,NA,NA,NA,NA,NA,NA,NA,NA,NA,NA,NA,NA,NA,NA,NA,NA,NA,0,2,2,2,1,NA,NA,NA,NA,NA
SUPAMT57917,3NXNZ5RS1GWAXCIG3S0GYP3W42P79N,307FD410-BF5B-4402-891A-A5D54383E968,2023-09-26_12h54.16.772,WP_VExplicitOC_HL,2022.2.5,Win32,1,NA,NA,NA,NA,NA,NA,NA,NA,NA,NA,NA,NA,NA,NA,NA,NA,NA,NA,NA,NA,NA,NA,NA,NA,NA,NA,NA,NA,NA,NA,NA,NA,NA,NA,NA,NA,NA,NA,NA,NA,NA,NA,NA,NA,NA,NA,NA,NA,NA,NA,NA,NA,NA,NA,5,0,5,0,1
SUPAMT57917,3NXNZ5RS1GWAXCIG3S0GYP3W42P79N,307FD410-BF5B-4402-891A-A5D54383E968,2023-09-26_12h54.16.772,WP_VExplicitOC_HL,2022.2.5,Win32,1,93.9453125,5.3133,2.035,NA,NA,NA,NA,NA,happy,"unhappy, happy","less happy, more happy",NA,NA,NA,NA,NA,NA,NA,NA,NA,NA,NA,NA,NA,NA,NA,NA,NA,NA,NA,NA,NA,NA,NA,NA,NA,NA,NA,NA,NA,NA,NA,NA,NA,NA,NA,NA,NA,NA,0,0,0,0,1,NA,NA,NA,NA,NA
SUPAMT57917,3NXNZ5RS1GWAXCIG3S0GYP3W42P79N,307FD410-BF5B-4402-891A-A5D54383E968,2023-09-26_12h54.16.772,WP_VExplicitOC_HL,2022.2.5,Win32,1,95.8984375,5.326,2.0208,NA,NA,NA,NA,NA,frustrated,"frustrated, not frustrated","more frustrated, less frustrated",NA,NA,NA,NA,NA,NA,NA,NA,NA,NA,NA,NA,NA,NA,NA,NA,NA,NA,NA,NA,NA,NA,NA,NA,NA,NA,NA,NA,NA,NA,NA,NA,NA,NA,NA,NA,NA,NA,0,1,1,1,1,NA,NA,NA,NA,NA
SUPAMT57917,3NXNZ5RS1GWAXCIG3S0GYP3W42P79N,307FD410-BF5B-4402-891A-A5D54383E968,2023-09-26_12h54.16.772,WP_VExplicitOC_HL,2022.2.5,Win32,1,91.9921875,5.8928,2.3943,NA,NA,NA,NA,NA,bored,"bored, not bored","more bored, less bored",NA,NA,NA,NA,NA,NA,NA,NA,NA,NA,NA,NA,NA,NA,NA,NA,NA,NA,NA,NA,NA,NA,NA,NA,NA,NA,NA,NA,NA,NA,NA,NA,NA,NA,NA,NA,NA,NA,0,2,2,2,1,NA,NA,NA,NA,NA
SUPAMT57917,3NXNZ5RS1GWAXCIG3S0GYP3W42P79N,307FD410-BF5B-4402-891A-A5D54383E968,2023-09-26_12h54.16.772,WP_VExplicitOC_HL,2022.2.5,Win32,1,NA,NA,NA,NA,NA,NA,NA,NA,NA,NA,NA,NA,NA,NA,NA,NA,NA,NA,NA,NA,NA,NA,NA,NA,NA,NA,NA,NA,NA,NA,NA,NA,NA,NA,NA,NA,NA,NA,NA,NA,NA,NA,NA,NA,NA,NA,NA,NA,NA,NA,NA,NA,NA,NA,6,0,6,0,1
SUPAMT57917,3NXNZ5RS1GWAXCIG3S0GYP3W42P79N,307FD410-BF5B-4402-891A-A5D54383E968,2023-09-26_12h54.16.772,WP_VExplicitOC_HL,2022.2.5,Win32,1,100,6.9173,2.2254,NA,NA,NA,NA,NA,bored,"bored, not bored","more bored, less bored",NA,NA,NA,NA,NA,NA,NA,NA,NA,NA,NA,NA,NA,NA,NA,NA,NA,NA,NA,NA,NA,NA,NA,NA,NA,NA,NA,NA,NA,NA,NA,NA,NA,NA,NA,NA,NA,NA,0,0,0,2,1,NA,NA,NA,NA,NA
SUPAMT57917,3NXNZ5RS1GWAXCIG3S0GYP3W42P79N,307FD410-BF5B-4402-891A-A5D54383E968,2023-09-26_12h54.16.772,WP_VExplicitOC_HL,2022.2.5,Win32,1,NA,NA,2.7477,NA,NA,NA,NA,NA,frustrated,"frustrated, not frustrated","more frustrated, less frustrated",NA,NA,NA,NA,NA,NA,NA,NA,NA,NA,NA,NA,NA,NA,NA,NA,NA,NA,NA,NA,NA,NA,NA,NA,NA,NA,NA,NA,NA,NA,NA,NA,NA,NA,NA,NA,NA,NA,0,1,1,1,1,NA,NA,NA,NA,NA
SUPAMT57917,3NXNZ5RS1GWAXCIG3S0GYP3W42P79N,307FD410-BF5B-4402-891A-A5D54383E968,2023-09-26_12h54.16.772,WP_VExplicitOC_HL,2022.2.5,Win32,1,86.1328125,6.4572,2.2413,NA,NA,NA,NA,NA,happy,"unhappy, happy","less happy, more happy",NA,NA,NA,NA,NA,NA,NA,NA,NA,NA,NA,NA,NA,NA,NA,NA,NA,NA,NA,NA,NA,NA,NA,NA,NA,NA,NA,NA,NA,NA,NA,NA,NA,NA,NA,NA,NA,NA,0,2,2,0,1,NA,NA,NA,NA,NA
SUPAMT57917,3NXNZ5RS1GWAXCIG3S0GYP3W42P79N,307FD410-BF5B-4402-891A-A5D54383E968,2023-09-26_12h54.16.772,WP_VExplicitOC_HL,2022.2.5,Win32,1,NA,NA,NA,NA,NA,NA,NA,NA,NA,NA,NA,NA,NA,NA,NA,NA,NA,NA,NA,NA,NA,NA,NA,NA,NA,NA,NA,NA,NA,NA,NA,NA,NA,NA,NA,NA,NA,NA,NA,NA,NA,NA,NA,NA,NA,NA,NA,NA,NA,NA,NA,NA,NA,NA,7,0,7,0,1
SUPAMT57917,3NXNZ5RS1GWAXCIG3S0GYP3W42P79N,307FD410-BF5B-4402-891A-A5D54383E968,2023-09-26_12h54.16.772,WP_VExplicitOC_HL,2022.2.5,Win32,1,92.96875,5.0447,2.0284,NA,NA,NA,NA,NA,frustrated,"frustrated, not frustrated","more frustrated, less frustrated",NA,NA,NA,NA,NA,NA,NA,NA,NA,NA,NA,NA,NA,NA,NA,NA,NA,NA,NA,NA,NA,NA,NA,NA,NA,NA,NA,NA,NA,NA,NA,NA,NA,NA,NA,NA,NA,NA,0,0,0,1,1,NA,NA,NA,NA,NA
SUPAMT57917,3NXNZ5RS1GWAXCIG3S0GYP3W42P79N,307FD410-BF5B-4402-891A-A5D54383E968,2023-09-26_12h54.16.772,WP_VExplicitOC_HL,2022.2.5,Win32,1,NA,NA,3.2338,NA,NA,NA,NA,NA,bored,"bored, not bored","more bored, less bored",NA,NA,NA,NA,NA,NA,NA,NA,NA,NA,NA,NA,NA,NA,NA,NA,NA,NA,NA,NA,NA,NA,NA,NA,NA,NA,NA,NA,NA,NA,NA,NA,NA,NA,NA,NA,NA,NA,0,1,1,2,1,NA,NA,NA,NA,NA
SUPAMT57917,3NXNZ5RS1GWAXCIG3S0GYP3W42P79N,307FD410-BF5B-4402-891A-A5D54383E968,2023-09-26_12h54.16.772,WP_VExplicitOC_HL,2022.2.5,Win32,1,93.9453125,6.2487,2.3622,NA,NA,NA,NA,NA,happy,"unhappy, happy","less happy, more happy",NA,NA,NA,NA,NA,NA,NA,NA,NA,NA,NA,NA,NA,NA,NA,NA,NA,NA,NA,NA,NA,NA,NA,NA,NA,NA,NA,NA,NA,NA,NA,NA,NA,NA,NA,NA,NA,NA,0,2,2,0,1,NA,NA,NA,NA,NA
SUPAMT57917,3NXNZ5RS1GWAXCIG3S0GYP3W42P79N,307FD410-BF5B-4402-891A-A5D54383E968,2023-09-26_12h54.16.772,WP_VExplicitOC_HL,2022.2.5,Win32,1,NA,NA,NA,NA,NA,NA,NA,NA,NA,NA,NA,NA,NA,NA,NA,NA,NA,NA,NA,NA,NA,NA,NA,NA,NA,NA,NA,NA,NA,NA,NA,NA,NA,NA,NA,NA,NA,NA,NA,NA,NA,NA,NA,NA,NA,NA,NA,NA,NA,NA,NA,NA,NA,NA,8,0,8,0,1
SUPAMT57917,3NXNZ5RS1GWAXCIG3S0GYP3W42P79N,307FD410-BF5B-4402-891A-A5D54383E968,2023-09-26_12h54.16.772,WP_VExplicitOC_HL,2022.2.5,Win32,1,85.15625,5.1264,2.3439,NA,NA,NA,NA,NA,bored,"bored, not bored","more bored, less bored",NA,NA,NA,NA,NA,NA,NA,NA,NA,NA,NA,NA,NA,NA,NA,NA,NA,NA,NA,NA,NA,NA,NA,NA,NA,NA,NA,NA,NA,NA,NA,NA,NA,NA,NA,NA,NA,NA,0,0,0,2,1,NA,NA,NA,NA,NA
SUPAMT57917,3NXNZ5RS1GWAXCIG3S0GYP3W42P79N,307FD410-BF5B-4402-891A-A5D54383E968,2023-09-26_12h54.16.772,WP_VExplicitOC_HL,2022.2.5,Win32,1,NA,NA,2.5689,NA,NA,NA,NA,NA,frustrated,"frustrated, not frustrated","more frustrated, less frustrated",NA,NA,NA,NA,NA,NA,NA,NA,NA,NA,NA,NA,NA,NA,NA,NA,NA,NA,NA,NA,NA,NA,NA,NA,NA,NA,NA,NA,NA,NA,NA,NA,NA,NA,NA,NA,NA,NA,0,1,1,1,1,NA,NA,NA,NA,NA
SUPAMT57917,3NXNZ5RS1GWAXCIG3S0GYP3W42P79N,307FD410-BF5B-4402-891A-A5D54383E968,2023-09-26_12h54.16.772,WP_VExplicitOC_HL,2022.2.5,Win32,1,NA,NA,2.305,NA,NA,NA,NA,NA,happy,"unhappy, happy","less happy, more happy",NA,NA,NA,NA,NA,NA,NA,NA,NA,NA,NA,NA,NA,NA,NA,NA,NA,NA,NA,NA,NA,NA,NA,NA,NA,NA,NA,NA,NA,NA,NA,NA,NA,NA,NA,NA,NA,NA,0,2,2,0,1,NA,NA,NA,NA,NA
SUPAMT57917,3NXNZ5RS1GWAXCIG3S0GYP3W42P79N,307FD410-BF5B-4402-891A-A5D54383E968,2023-09-26_12h54.16.772,WP_VExplicitOC_HL,2022.2.5,Win32,1,NA,NA,NA,NA,NA,NA,NA,NA,NA,NA,NA,NA,NA,NA,NA,NA,NA,NA,NA,NA,NA,NA,NA,NA,NA,NA,NA,NA,NA,NA,NA,NA,NA,NA,NA,NA,NA,NA,NA,NA,NA,NA,NA,NA,NA,NA,NA,NA,NA,NA,NA,NA,NA,NA,9,0,9,0,1
SUPAMT57917,3NXNZ5RS1GWAXCIG3S0GYP3W42P79N,307FD410-BF5B-4402-891A-A5D54383E968,2023-09-26_12h54.16.772,WP_VExplicitOC_HL,2022.2.5,Win32,1,91.9921875,5.1545,2.533,NA,NA,NA,NA,NA,bored,"bored, not bored","more bored, less bored",NA,NA,NA,NA,NA,NA,NA,NA,NA,NA,NA,NA,NA,NA,NA,NA,NA,NA,NA,NA,NA,NA,NA,NA,NA,NA,NA,NA,NA,NA,NA,NA,NA,NA,NA,NA,NA,NA,0,0,0,2,1,NA,NA,NA,NA,NA
SUPAMT57917,3NXNZ5RS1GWAXCIG3S0GYP3W42P79N,307FD410-BF5B-4402-891A-A5D54383E968,2023-09-26_12h54.16.772,WP_VExplicitOC_HL,2022.2.5,Win32,1,100,5.9271,2.3736,NA,NA,NA,NA,NA,happy,"unhappy, happy","less happy, more happy",NA,NA,NA,NA,NA,NA,NA,NA,NA,NA,NA,NA,NA,NA,NA,NA,NA,NA,NA,NA,NA,NA,NA,NA,NA,NA,NA,NA,NA,NA,NA,NA,NA,NA,NA,NA,NA,NA,0,1,1,0,1,NA,NA,NA,NA,NA
SUPAMT57917,3NXNZ5RS1GWAXCIG3S0GYP3W42P79N,307FD410-BF5B-4402-891A-A5D54383E968,2023-09-26_12h54.16.772,WP_VExplicitOC_HL,2022.2.5,Win32,1,91.9921875,6.2955,2.765,NA,NA,NA,NA,NA,frustrated,"frustrated, not frustrated","more frustrated, less frustrated",NA,NA,NA,NA,NA,NA,NA,NA,NA,NA,NA,NA,NA,NA,NA,NA,NA,NA,NA,NA,NA,NA,NA,NA,NA,NA,NA,NA,NA,NA,NA,NA,NA,NA,NA,NA,NA,NA,0,2,2,1,1,NA,NA,NA,NA,NA
SUPAMT57917,3NXNZ5RS1GWAXCIG3S0GYP3W42P79N,307FD410-BF5B-4402-891A-A5D54383E968,2023-09-26_12h54.16.772,WP_VExplicitOC_HL,2022.2.5,Win32,1,NA,NA,NA,NA,NA,NA,NA,NA,NA,NA,NA,NA,NA,NA,NA,NA,NA,NA,NA,NA,NA,NA,NA,NA,NA,NA,NA,NA,NA,NA,NA,NA,NA,NA,NA,NA,NA,NA,NA,NA,NA,NA,NA,NA,NA,NA,NA,NA,NA,NA,NA,NA,NA,NA,10,0,10,0,1
SUPAMT57917,3NXNZ5RS1GWAXCIG3S0GYP3W42P79N,307FD410-BF5B-4402-891A-A5D54383E968,2023-09-26_12h54.16.772,WP_VExplicitOC_HL,2022.2.5,Win32,1,90.625,5.1581,2.7593,NA,NA,NA,NA,NA,happy,"unhappy, happy","less happy, more happy",NA,NA,NA,NA,NA,NA,NA,NA,NA,NA,NA,NA,NA,NA,NA,NA,NA,NA,NA,NA,NA,NA,NA,NA,NA,NA,NA,NA,NA,NA,NA,NA,NA,NA,NA,NA,NA,NA,0,0,0,0,1,NA,NA,NA,NA,NA
SUPAMT57917,3NXNZ5RS1GWAXCIG3S0GYP3W42P79N,307FD410-BF5B-4402-891A-A5D54383E968,2023-09-26_12h54.16.772,WP_VExplicitOC_HL,2022.2.5,Win32,1,100,4.9291,2.0467,NA,NA,NA,NA,NA,bored,"bored, not bored","more bored, less bored",NA,NA,NA,NA,NA,NA,NA,NA,NA,NA,NA,NA,NA,NA,NA,NA,NA,NA,NA,NA,NA,NA,NA,NA,NA,NA,NA,NA,NA,NA,NA,NA,NA,NA,NA,NA,NA,NA,0,1,1,2,1,NA,NA,NA,NA,NA
SUPAMT57917,3NXNZ5RS1GWAXCIG3S0GYP3W42P79N,307FD410-BF5B-4402-891A-A5D54383E968,2023-09-26_12h54.16.772,WP_VExplicitOC_HL,2022.2.5,Win32,1,100,6.6112,2.7575,NA,NA,NA,NA,NA,frustrated,"frustrated, not frustrated","more frustrated, less frustrated",NA,NA,NA,NA,NA,NA,NA,NA,NA,NA,NA,NA,NA,NA,NA,NA,NA,NA,NA,NA,NA,NA,NA,NA,NA,NA,NA,NA,NA,NA,NA,NA,NA,NA,NA,NA,NA,NA,0,2,2,1,1,NA,NA,NA,NA,NA
SUPAMT57917,3NXNZ5RS1GWAXCIG3S0GYP3W42P79N,307FD410-BF5B-4402-891A-A5D54383E968,2023-09-26_12h54.16.772,WP_VExplicitOC_HL,2022.2.5,Win32,1,NA,NA,NA,NA,NA,NA,NA,NA,NA,NA,NA,NA,NA,NA,NA,NA,NA,NA,NA,NA,NA,NA,NA,NA,NA,NA,NA,NA,NA,NA,NA,NA,NA,NA,NA,NA,NA,NA,NA,NA,NA,NA,NA,NA,NA,NA,NA,NA,NA,NA,NA,NA,NA,NA,11,0,11,0,1
SUPAMT57917,3NXNZ5RS1GWAXCIG3S0GYP3W42P79N,307FD410-BF5B-4402-891A-A5D54383E968,2023-09-26_12h54.16.772,WP_VExplicitOC_HL,2022.2.5,Win32,1,84.1796875,5.6311,2.3702,NA,NA,NA,NA,NA,bored,"bored, not bored","more bored, less bored",NA,NA,NA,NA,NA,NA,NA,NA,NA,NA,NA,NA,NA,NA,NA,NA,NA,NA,NA,NA,NA,NA,NA,NA,NA,NA,NA,NA,NA,NA,NA,NA,NA,NA,NA,NA,NA,NA,0,0,0,2,1,NA,NA,NA,NA,NA
SUPAMT57917,3NXNZ5RS1GWAXCIG3S0GYP3W42P79N,307FD410-BF5B-4402-891A-A5D54383E968,2023-09-26_12h54.16.772,WP_VExplicitOC_HL,2022.2.5,Win32,1,87.109375,5.7676,2.3792,NA,NA,NA,NA,NA,frustrated,"frustrated, not frustrated","more frustrated, less frustrated",NA,NA,NA,NA,NA,NA,NA,NA,NA,NA,NA,NA,NA,NA,NA,NA,NA,NA,NA,NA,NA,NA,NA,NA,NA,NA,NA,NA,NA,NA,NA,NA,NA,NA,NA,NA,NA,NA,0,1,1,1,1,NA,NA,NA,NA,NA
SUPAMT57917,3NXNZ5RS1GWAXCIG3S0GYP3W42P79N,307FD410-BF5B-4402-891A-A5D54383E968,2023-09-26_12h54.16.772,WP_VExplicitOC_HL,2022.2.5,Win32,1,86.1328125,5.5425,2.9556,NA,NA,NA,NA,NA,happy,"unhappy, happy","less happy, more happy",NA,NA,NA,NA,NA,NA,NA,NA,NA,NA,NA,NA,NA,NA,NA,NA,NA,NA,NA,NA,NA,NA,NA,NA,NA,NA,NA,NA,NA,NA,NA,NA,NA,NA,NA,NA,NA,NA,0,2,2,0,1,NA,NA,NA,NA,NA
SUPAMT57917,3NXNZ5RS1GWAXCIG3S0GYP3W42P79N,307FD410-BF5B-4402-891A-A5D54383E968,2023-09-26_12h54.16.772,WP_VExplicitOC_HL,2022.2.5,Win32,1,NA,NA,NA,NA,NA,NA,NA,NA,NA,NA,NA,NA,NA,NA,NA,NA,NA,NA,NA,NA,NA,NA,NA,NA,NA,NA,NA,NA,NA,NA,NA,NA,NA,NA,NA,NA,NA,NA,NA,NA,NA,NA,NA,NA,NA,NA,NA,NA,NA,NA,NA,NA,NA,NA,12,0,12,0,1
SUPAMT57917,3NXNZ5RS1GWAXCIG3S0GYP3W42P79N,307FD410-BF5B-4402-891A-A5D54383E968,2023-09-26_12h54.16.772,WP_VExplicitOC_HL,2022.2.5,Win32,1,83.203125,4.9698,2.009,NA,NA,NA,NA,NA,happy,"unhappy, happy","less happy, more happy",NA,NA,NA,NA,NA,NA,NA,NA,NA,NA,NA,NA,NA,NA,NA,NA,NA,NA,NA,NA,NA,NA,NA,NA,NA,NA,NA,NA,NA,NA,NA,NA,NA,NA,NA,NA,NA,NA,0,0,0,0,1,NA,NA,NA,NA,NA
SUPAMT57917,3NXNZ5RS1GWAXCIG3S0GYP3W42P79N,307FD410-BF5B-4402-891A-A5D54383E968,2023-09-26_12h54.16.772,WP_VExplicitOC_HL,2022.2.5,Win32,1,86.1328125,5.256,2.5817,NA,NA,NA,NA,NA,frustrated,"frustrated, not frustrated","more frustrated, less frustrated",NA,NA,NA,NA,NA,NA,NA,NA,NA,NA,NA,NA,NA,NA,NA,NA,NA,NA,NA,NA,NA,NA,NA,NA,NA,NA,NA,NA,NA,NA,NA,NA,NA,NA,NA,NA,NA,NA,0,1,1,1,1,NA,NA,NA,NA,NA
SUPAMT57917,3NXNZ5RS1GWAXCIG3S0GYP3W42P79N,307FD410-BF5B-4402-891A-A5D54383E968,2023-09-26_12h54.16.772,WP_VExplicitOC_HL,2022.2.5,Win32,1,73.4375,4.4363,2.0666,NA,NA,NA,NA,NA,bored,"bored, not bored","more bored, less bored",NA,NA,NA,NA,NA,NA,NA,NA,NA,NA,NA,NA,NA,NA,NA,NA,NA,NA,NA,NA,NA,NA,NA,NA,NA,NA,NA,NA,NA,NA,NA,NA,NA,NA,NA,NA,NA,NA,0,2,2,2,1,NA,NA,NA,NA,NA
SUPAMT57917,3NXNZ5RS1GWAXCIG3S0GYP3W42P79N,307FD410-BF5B-4402-891A-A5D54383E968,2023-09-26_12h54.16.772,WP_VExplicitOC_HL,2022.2.5,Win32,1,NA,NA,NA,NA,NA,NA,NA,NA,NA,NA,NA,NA,NA,NA,NA,NA,NA,NA,NA,NA,NA,NA,NA,NA,NA,NA,NA,NA,NA,NA,NA,NA,NA,NA,NA,NA,NA,NA,NA,NA,NA,NA,NA,NA,NA,NA,NA,NA,NA,NA,NA,NA,NA,NA,13,0,13,0,1
SUPAMT57917,3NXNZ5RS1GWAXCIG3S0GYP3W42P79N,307FD410-BF5B-4402-891A-A5D54383E968,2023-09-26_12h54.16.772,WP_VExplicitOC_HL,2022.2.5,Win32,1,81.25,6.6868,2.5338,NA,NA,NA,NA,NA,frustrated,"frustrated, not frustrated","more frustrated, less frustrated",NA,NA,NA,NA,NA,NA,NA,NA,NA,NA,NA,NA,NA,NA,NA,NA,NA,NA,NA,NA,NA,NA,NA,NA,NA,NA,NA,NA,NA,NA,NA,NA,NA,NA,NA,NA,NA,NA,0,0,0,1,1,NA,NA,NA,NA,NA
SUPAMT57917,3NXNZ5RS1GWAXCIG3S0GYP3W42P79N,307FD410-BF5B-4402-891A-A5D54383E968,2023-09-26_12h54.16.772,WP_VExplicitOC_HL,2022.2.5,Win32,1,72.4609375,6.2467,2.5868,NA,NA,NA,NA,NA,happy,"unhappy, happy","less happy, more happy",NA,NA,NA,NA,NA,NA,NA,NA,NA,NA,NA,NA,NA,NA,NA,NA,NA,NA,NA,NA,NA,NA,NA,NA,NA,NA,NA,NA,NA,NA,NA,NA,NA,NA,NA,NA,NA,NA,0,1,1,0,1,NA,NA,NA,NA,NA
SUPAMT57917,3NXNZ5RS1GWAXCIG3S0GYP3W42P79N,307FD410-BF5B-4402-891A-A5D54383E968,2023-09-26_12h54.16.772,WP_VExplicitOC_HL,2022.2.5,Win32,1,90.0390625,6.8074,2.6464,NA,NA,NA,NA,NA,bored,"bored, not bored","more bored, less bored",NA,NA,NA,NA,NA,NA,NA,NA,NA,NA,NA,NA,NA,NA,NA,NA,NA,NA,NA,NA,NA,NA,NA,NA,NA,NA,NA,NA,NA,NA,NA,NA,NA,NA,NA,NA,NA,NA,0,2,2,2,1,NA,NA,NA,NA,NA
SUPAMT57917,3NXNZ5RS1GWAXCIG3S0GYP3W42P79N,307FD410-BF5B-4402-891A-A5D54383E968,2023-09-26_12h54.16.772,WP_VExplicitOC_HL,2022.2.5,Win32,1,NA,NA,NA,NA,NA,NA,NA,NA,NA,NA,NA,NA,NA,NA,NA,NA,NA,NA,NA,NA,NA,NA,NA,NA,NA,NA,NA,NA,NA,NA,NA,NA,NA,NA,NA,NA,NA,NA,NA,NA,NA,NA,NA,NA,NA,NA,NA,NA,NA,NA,NA,NA,NA,NA,14,0,14,0,1
SUPAMT57917,3NXNZ5RS1GWAXCIG3S0GYP3W42P79N,307FD410-BF5B-4402-891A-A5D54383E968,2023-09-26_12h54.16.772,WP_VExplicitOC_HL,2022.2.5,Win32,1,NA,NA,NA,NA,NA,NA,NA,NA,NA,NA,NA,NA,NA,NA,NA,NA,NA,NA,NA,NA,NA,NA,NA,NA,NA,NA,NA,NA,NA,NA,NA,NA,NA,NA,NA,NA,NA,NA,NA,NA,NA,NA,NA,NA,NA,NA,NA,NA,NA,NA,NA,NA,NA,NA,NA,NA,NA,NA,NA
