participant,session,completion,date,expName,psychopyVersion,OS,frameRate,rating_all.response,rating_all.rt,rating_all.tStart,rndRat1.thisRepN,rndRat1.thisTrialN,rndRat1.thisN,rndRat1.thisIndex,rndRat1.ran,Emo,Labs,Labs2,rating_alt.response,rating_alt.rt,AltC.thisRepN,AltC.thisTrialN,AltC.thisN,AltC.thisIndex,AltC.ran,alt_choices,pic_choices,TopAlt_Choice,rndRat2.thisRepN,rndRat2.thisTrialN,rndRat2.thisN,rndRat2.thisIndex,rndRat2.ran,rndRat3.thisRepN,rndRat3.thisTrialN,rndRat3.thisN,rndRat3.thisIndex,rndRat3.ran,trials_FC_H.thisRepN,trials_FC_H.thisTrialN,trials_FC_H.thisN,trials_FC_H.thisIndex,trials_FC_H.ran,rating_alt_2.response,rating_alt_2.rt,AltC2.thisRepN,AltC2.thisTrialN,AltC2.thisN,AltC2.thisIndex,AltC2.ran,BottomAlt_Choice,rndRat4.thisRepN,rndRat4.thisTrialN,rndRat4.thisN,rndRat4.thisIndex,rndRat4.ran,rndRat5.thisRepN,rndRat5.thisTrialN,rndRat5.thisN,rndRat5.thisIndex,rndRat5.ran,trials_FC_L.thisRepN,trials_FC_L.thisTrialN,trials_FC_L.thisN,trials_FC_L.thisIndex,trials_FC_L.ran
SUPAMT44713,3MTMREQS41H3SATM36MSM0DX4TFAW7,316E709A-7006-4C78-B4DB-9197E22AC5B1,2023-09-29_12h39.13.547,WP_VExplicitOC_HL,2022.2.5,Win32,60.0240096,NA,NA,NA,NA,NA,NA,NA,NA,NA,NA,NA,NA,NA,NA,NA,NA,NA,NA,NA,NA,NA,NA,NA,NA,NA,NA,NA,NA,NA,NA,NA,NA,NA,NA,NA,NA,NA,NA,NA,NA,NA,NA,NA,NA,NA,NA,NA,NA,NA,NA,NA,NA,NA,NA,NA,NA,NA,NA,NA
SUPAMT44713,3MTMREQS41H3SATM36MSM0DX4TFAW7,316E709A-7006-4C78-B4DB-9197E22AC5B1,2023-09-29_12h39.13.547,WP_VExplicitOC_HL,2022.2.5,Win32,60.0240096,NA,NA,NA,NA,NA,NA,NA,NA,NA,NA,NA,NA,NA,NA,NA,NA,NA,NA,NA,NA,NA,NA,NA,NA,NA,NA,NA,NA,NA,NA,NA,NA,NA,NA,NA,NA,NA,NA,NA,NA,NA,NA,NA,NA,NA,NA,NA,NA,NA,NA,NA,NA,NA,NA,NA,NA,NA,NA,NA
SUPAMT44713,3MTMREQS41H3SATM36MSM0DX4TFAW7,316E709A-7006-4C78-B4DB-9197E22AC5B1,2023-09-29_12h39.13.547,WP_VExplicitOC_HL,2022.2.5,Win32,60.0240096,NA,NA,NA,NA,NA,NA,NA,NA,NA,NA,NA,NA,NA,NA,NA,NA,NA,NA,NA,NA,NA,NA,NA,NA,NA,NA,NA,NA,NA,NA,NA,NA,NA,NA,NA,NA,NA,NA,NA,NA,NA,NA,NA,NA,NA,NA,NA,NA,NA,NA,NA,NA,NA,NA,NA,NA,NA,NA,NA
SUPAMT44713,3MTMREQS41H3SATM36MSM0DX4TFAW7,316E709A-7006-4C78-B4DB-9197E22AC5B1,2023-09-29_12h39.13.547,WP_VExplicitOC_HL,2022.2.5,Win32,60.0240096,53.7037037,3.496,2.01,0,0,0,0,1,happy,"unhappy, happy","less happy, more happy",NA,NA,NA,NA,NA,NA,NA,NA,NA,NA,NA,NA,NA,NA,NA,NA,NA,NA,NA,NA,NA,NA,NA,NA,NA,NA,NA,NA,NA,NA,NA,NA,NA,NA,NA,NA,NA,NA,NA,NA,NA,NA,NA,NA,NA,NA,NA,NA
SUPAMT44713,3MTMREQS41H3SATM36MSM0DX4TFAW7,316E709A-7006-4C78-B4DB-9197E22AC5B1,2023-09-29_12h39.13.547,WP_VExplicitOC_HL,2022.2.5,Win32,60.0240096,-12.96296296,3.053,2,0,1,1,2,1,bored,"bored, not bored","more bored, less bored",NA,NA,NA,NA,NA,NA,NA,NA,NA,NA,NA,NA,NA,NA,NA,NA,NA,NA,NA,NA,NA,NA,NA,NA,NA,NA,NA,NA,NA,NA,NA,NA,NA,NA,NA,NA,NA,NA,NA,NA,NA,NA,NA,NA,NA,NA,NA,NA
SUPAMT44713,3MTMREQS41H3SATM36MSM0DX4TFAW7,316E709A-7006-4C78-B4DB-9197E22AC5B1,2023-09-29_12h39.13.547,WP_VExplicitOC_HL,2022.2.5,Win32,60.0240096,100,3.176,2.015,0,2,2,1,1,frustrated,"frustrated, not frustrated","more frustrated, less frustrated",NA,NA,NA,NA,NA,NA,NA,NA,NA,NA,NA,NA,NA,NA,NA,NA,NA,NA,NA,NA,NA,NA,NA,NA,NA,NA,NA,NA,NA,NA,NA,NA,NA,NA,NA,NA,NA,NA,NA,NA,NA,NA,NA,NA,NA,NA,NA,NA
SUPAMT44713,3MTMREQS41H3SATM36MSM0DX4TFAW7,316E709A-7006-4C78-B4DB-9197E22AC5B1,2023-09-29_12h39.13.547,WP_VExplicitOC_HL,2022.2.5,Win32,60.0240096,NA,NA,NA,NA,NA,NA,NA,NA,NA,NA,NA,NA,NA,NA,NA,NA,NA,NA,NA,NA,NA,NA,NA,NA,NA,NA,NA,NA,NA,NA,NA,NA,NA,NA,NA,NA,NA,NA,NA,NA,NA,NA,NA,NA,NA,NA,NA,NA,NA,NA,NA,NA,NA,NA,NA,NA,NA,NA,NA
SUPAMT44713,3MTMREQS41H3SATM36MSM0DX4TFAW7,316E709A-7006-4C78-B4DB-9197E22AC5B1,2023-09-29_12h39.13.547,WP_VExplicitOC_HL,2022.2.5,Win32,60.0240096,NA,NA,NA,NA,NA,NA,NA,NA,NA,NA,NA,NA,NA,NA,NA,NA,NA,NA,NA,NA,NA,NA,NA,NA,NA,NA,NA,NA,NA,NA,NA,NA,NA,NA,NA,NA,NA,NA,NA,NA,NA,NA,NA,NA,NA,NA,NA,NA,NA,NA,NA,NA,NA,NA,NA,NA,NA,NA,NA
SUPAMT44713,3MTMREQS41H3SATM36MSM0DX4TFAW7,316E709A-7006-4C78-B4DB-9197E22AC5B1,2023-09-29_12h39.13.547,WP_VExplicitOC_HL,2022.2.5,Win32,60.0240096,NA,NA,NA,NA,NA,NA,NA,NA,NA,NA,NA,NA,NA,NA,NA,NA,NA,NA,NA,NA,NA,NA,NA,NA,NA,NA,NA,NA,NA,NA,NA,NA,NA,NA,NA,NA,NA,NA,NA,NA,NA,NA,NA,NA,NA,NA,NA,NA,NA,NA,NA,NA,NA,NA,NA,NA,NA,NA,NA
SUPAMT44713,3MTMREQS41H3SATM36MSM0DX4TFAW7,316E709A-7006-4C78-B4DB-9197E22AC5B1,2023-09-29_12h39.13.547,WP_VExplicitOC_HL,2022.2.5,Win32,60.0240096,NA,NA,NA,NA,NA,NA,NA,NA,NA,NA,NA,NA,NA,NA,NA,NA,NA,NA,NA,NA,NA,NA,NA,NA,NA,NA,NA,NA,NA,NA,NA,NA,NA,NA,NA,NA,NA,NA,NA,NA,NA,NA,NA,NA,NA,NA,NA,NA,NA,NA,NA,NA,NA,NA,NA,NA,NA,NA,NA
SUPAMT44713,3MTMREQS41H3SATM36MSM0DX4TFAW7,316E709A-7006-4C78-B4DB-9197E22AC5B1,2023-09-29_12h39.13.547,WP_VExplicitOC_HL,2022.2.5,Win32,60.0240096,NA,NA,NA,NA,NA,NA,NA,NA,NA,NA,NA,NA,NA,0,0,0,0,1,rest (looking at a fixed cross),001.png,NA,NA,NA,NA,NA,NA,NA,NA,NA,NA,NA,NA,NA,NA,NA,NA,NA,NA,NA,NA,NA,NA,NA,NA,NA,NA,NA,NA,NA,NA,NA,NA,NA,NA,NA,NA,NA,NA,NA
SUPAMT44713,3MTMREQS41H3SATM36MSM0DX4TFAW7,316E709A-7006-4C78-B4DB-9197E22AC5B1,2023-09-29_12h39.13.547,WP_VExplicitOC_HL,2022.2.5,Win32,60.0240096,NA,NA,NA,NA,NA,NA,NA,NA,NA,NA,NA,-68.33333333,2.988,0,1,1,1,1,stand up,002.png,NA,NA,NA,NA,NA,NA,NA,NA,NA,NA,NA,NA,NA,NA,NA,NA,NA,NA,NA,NA,NA,NA,NA,NA,NA,NA,NA,NA,NA,NA,NA,NA,NA,NA,NA,NA,NA,NA,NA
SUPAMT44713,3MTMREQS41H3SATM36MSM0DX4TFAW7,316E709A-7006-4C78-B4DB-9197E22AC5B1,2023-09-29_12h39.13.547,WP_VExplicitOC_HL,2022.2.5,Win32,60.0240096,NA,NA,NA,NA,NA,NA,NA,NA,NA,NA,NA,-82.77777778,1.932,0,2,2,2,1,stretch,003.png,NA,NA,NA,NA,NA,NA,NA,NA,NA,NA,NA,NA,NA,NA,NA,NA,NA,NA,NA,NA,NA,NA,NA,NA,NA,NA,NA,NA,NA,NA,NA,NA,NA,NA,NA,NA,NA,NA,NA
SUPAMT44713,3MTMREQS41H3SATM36MSM0DX4TFAW7,316E709A-7006-4C78-B4DB-9197E22AC5B1,2023-09-29_12h39.13.547,WP_VExplicitOC_HL,2022.2.5,Win32,60.0240096,NA,NA,NA,NA,NA,NA,NA,NA,NA,NA,NA,24.81481481,1.664,0,3,3,3,1,make a drink,004.png,NA,NA,NA,NA,NA,NA,NA,NA,NA,NA,NA,NA,NA,NA,NA,NA,NA,NA,NA,NA,NA,NA,NA,NA,NA,NA,NA,NA,NA,NA,NA,NA,NA,NA,NA,NA,NA,NA,NA
SUPAMT44713,3MTMREQS41H3SATM36MSM0DX4TFAW7,316E709A-7006-4C78-B4DB-9197E22AC5B1,2023-09-29_12h39.13.547,WP_VExplicitOC_HL,2022.2.5,Win32,60.0240096,NA,NA,NA,NA,NA,NA,NA,NA,NA,NA,NA,50.55555556,1.49,0,4,4,4,1,scroll social media,005.png,NA,NA,NA,NA,NA,NA,NA,NA,NA,NA,NA,NA,NA,NA,NA,NA,NA,NA,NA,NA,NA,NA,NA,NA,NA,NA,NA,NA,NA,NA,NA,NA,NA,NA,NA,NA,NA,NA,NA
SUPAMT44713,3MTMREQS41H3SATM36MSM0DX4TFAW7,316E709A-7006-4C78-B4DB-9197E22AC5B1,2023-09-29_12h39.13.547,WP_VExplicitOC_HL,2022.2.5,Win32,60.0240096,NA,NA,NA,NA,NA,NA,NA,NA,NA,NA,NA,67.59259259,1.71,0,5,5,5,1,listen to music,006.png,NA,NA,NA,NA,NA,NA,NA,NA,NA,NA,NA,NA,NA,NA,NA,NA,NA,NA,NA,NA,NA,NA,NA,NA,NA,NA,NA,NA,NA,NA,NA,NA,NA,NA,NA,NA,NA,NA,NA
SUPAMT44713,3MTMREQS41H3SATM36MSM0DX4TFAW7,316E709A-7006-4C78-B4DB-9197E22AC5B1,2023-09-29_12h39.13.547,WP_VExplicitOC_HL,2022.2.5,Win32,60.0240096,NA,NA,NA,NA,NA,NA,NA,NA,NA,NA,NA,-74.81481481,1.79,0,6,6,6,1,daydream,007.png,NA,NA,NA,NA,NA,NA,NA,NA,NA,NA,NA,NA,NA,NA,NA,NA,NA,NA,NA,NA,NA,NA,NA,NA,NA,NA,NA,NA,NA,NA,NA,NA,NA,NA,NA,NA,NA,NA,NA
SUPAMT44713,3MTMREQS41H3SATM36MSM0DX4TFAW7,316E709A-7006-4C78-B4DB-9197E22AC5B1,2023-09-29_12h39.13.547,WP_VExplicitOC_HL,2022.2.5,Win32,60.0240096,NA,NA,NA,NA,NA,NA,NA,NA,NA,NA,NA,23.51851852,1.712,0,7,7,7,1,watch a short animation,008.png,NA,NA,NA,NA,NA,NA,NA,NA,NA,NA,NA,NA,NA,NA,NA,NA,NA,NA,NA,NA,NA,NA,NA,NA,NA,NA,NA,NA,NA,NA,NA,NA,NA,NA,NA,NA,NA,NA,NA
SUPAMT44713,3MTMREQS41H3SATM36MSM0DX4TFAW7,316E709A-7006-4C78-B4DB-9197E22AC5B1,2023-09-29_12h39.13.547,WP_VExplicitOC_HL,2022.2.5,Win32,60.0240096,NA,NA,NA,NA,NA,NA,NA,NA,NA,NA,NA,-75,1.687,0,8,8,8,1,read a novel,009.png,NA,NA,NA,NA,NA,NA,NA,NA,NA,NA,NA,NA,NA,NA,NA,NA,NA,NA,NA,NA,NA,NA,NA,NA,NA,NA,NA,NA,NA,NA,NA,NA,NA,NA,NA,NA,NA,NA,NA
SUPAMT44713,3MTMREQS41H3SATM36MSM0DX4TFAW7,316E709A-7006-4C78-B4DB-9197E22AC5B1,2023-09-29_12h39.13.547,WP_VExplicitOC_HL,2022.2.5,Win32,60.0240096,NA,NA,NA,NA,NA,NA,NA,NA,NA,NA,NA,39.25925926,1.28,0,9,9,9,1,read the news,010.png,NA,NA,NA,NA,NA,NA,NA,NA,NA,NA,NA,NA,NA,NA,NA,NA,NA,NA,NA,NA,NA,NA,NA,NA,NA,NA,NA,NA,NA,NA,NA,NA,NA,NA,NA,NA,NA,NA,NA
SUPAMT44713,3MTMREQS41H3SATM36MSM0DX4TFAW7,316E709A-7006-4C78-B4DB-9197E22AC5B1,2023-09-29_12h39.13.547,WP_VExplicitOC_HL,2022.2.5,Win32,60.0240096,NA,NA,NA,NA,NA,NA,NA,NA,NA,NA,NA,NA,NA,NA,NA,NA,NA,NA,NA,NA,NA,NA,NA,NA,NA,NA,NA,NA,NA,NA,NA,NA,NA,NA,NA,NA,NA,NA,NA,NA,NA,NA,NA,NA,NA,NA,NA,NA,NA,NA,NA,NA,NA,NA,NA,NA,NA,NA,NA
SUPAMT44713,3MTMREQS41H3SATM36MSM0DX4TFAW7,316E709A-7006-4C78-B4DB-9197E22AC5B1,2023-09-29_12h39.13.547,WP_VExplicitOC_HL,2022.2.5,Win32,60.0240096,NA,NA,NA,NA,NA,NA,NA,NA,NA,NA,NA,NA,NA,NA,NA,NA,NA,NA,NA,NA,scroll social media,NA,NA,NA,NA,NA,NA,NA,NA,NA,NA,NA,NA,NA,NA,NA,NA,NA,NA,NA,NA,NA,NA,NA,NA,NA,NA,NA,NA,NA,NA,NA,NA,NA,NA,NA,NA,NA,NA
SUPAMT44713,3MTMREQS41H3SATM36MSM0DX4TFAW7,316E709A-7006-4C78-B4DB-9197E22AC5B1,2023-09-29_12h39.13.547,WP_VExplicitOC_HL,2022.2.5,Win32,60.0240096,50.92592593,3.71,2.003,NA,NA,NA,NA,NA,bored,"bored, not bored","more bored, less bored",NA,NA,NA,NA,NA,NA,NA,NA,NA,NA,0,0,0,2,1,NA,NA,NA,NA,NA,NA,NA,NA,NA,NA,NA,NA,NA,NA,NA,NA,NA,NA,NA,NA,NA,NA,NA,NA,NA,NA,NA,NA,NA,NA,NA,NA,NA
SUPAMT44713,3MTMREQS41H3SATM36MSM0DX4TFAW7,316E709A-7006-4C78-B4DB-9197E22AC5B1,2023-09-29_12h39.13.547,WP_VExplicitOC_HL,2022.2.5,Win32,60.0240096,100,3.121,2.015,NA,NA,NA,NA,NA,frustrated,"frustrated, not frustrated","more frustrated, less frustrated",NA,NA,NA,NA,NA,NA,NA,NA,NA,NA,0,1,1,1,1,NA,NA,NA,NA,NA,NA,NA,NA,NA,NA,NA,NA,NA,NA,NA,NA,NA,NA,NA,NA,NA,NA,NA,NA,NA,NA,NA,NA,NA,NA,NA,NA,NA
SUPAMT44713,3MTMREQS41H3SATM36MSM0DX4TFAW7,316E709A-7006-4C78-B4DB-9197E22AC5B1,2023-09-29_12h39.13.547,WP_VExplicitOC_HL,2022.2.5,Win32,60.0240096,51.66666667,2.903,2.016,NA,NA,NA,NA,NA,happy,"unhappy, happy","less happy, more happy",NA,NA,NA,NA,NA,NA,NA,NA,NA,NA,0,2,2,0,1,NA,NA,NA,NA,NA,NA,NA,NA,NA,NA,NA,NA,NA,NA,NA,NA,NA,NA,NA,NA,NA,NA,NA,NA,NA,NA,NA,NA,NA,NA,NA,NA,NA
SUPAMT44713,3MTMREQS41H3SATM36MSM0DX4TFAW7,316E709A-7006-4C78-B4DB-9197E22AC5B1,2023-09-29_12h39.13.547,WP_VExplicitOC_HL,2022.2.5,Win32,60.0240096,NA,NA,NA,NA,NA,NA,NA,NA,NA,NA,NA,NA,NA,NA,NA,NA,NA,NA,NA,NA,NA,NA,NA,NA,NA,NA,NA,NA,NA,NA,NA,NA,NA,NA,NA,NA,NA,NA,NA,NA,NA,NA,NA,NA,NA,NA,NA,NA,NA,NA,NA,NA,NA,NA,NA,NA,NA,NA,NA
SUPAMT44713,3MTMREQS41H3SATM36MSM0DX4TFAW7,316E709A-7006-4C78-B4DB-9197E22AC5B1,2023-09-29_12h39.13.547,WP_VExplicitOC_HL,2022.2.5,Win32,60.0240096,NA,NA,NA,NA,NA,NA,NA,NA,NA,NA,NA,NA,NA,NA,NA,NA,NA,NA,NA,NA,NA,NA,NA,NA,NA,NA,NA,NA,NA,NA,NA,NA,NA,NA,NA,NA,NA,NA,NA,NA,NA,NA,NA,NA,NA,NA,NA,NA,NA,NA,NA,NA,NA,NA,NA,NA,NA,NA,NA
SUPAMT44713,3MTMREQS41H3SATM36MSM0DX4TFAW7,316E709A-7006-4C78-B4DB-9197E22AC5B1,2023-09-29_12h39.13.547,WP_VExplicitOC_HL,2022.2.5,Win32,60.0240096,68.7037037,3.493,2,NA,NA,NA,NA,NA,bored,"bored, not bored","more bored, less bored",NA,NA,NA,NA,NA,NA,NA,NA,NA,NA,NA,NA,NA,NA,NA,0,0,0,2,1,NA,NA,NA,NA,NA,NA,NA,NA,NA,NA,NA,NA,NA,NA,NA,NA,NA,NA,NA,NA,NA,NA,NA,NA,NA,NA,NA,NA
SUPAMT44713,3MTMREQS41H3SATM36MSM0DX4TFAW7,316E709A-7006-4C78-B4DB-9197E22AC5B1,2023-09-29_12h39.13.547,WP_VExplicitOC_HL,2022.2.5,Win32,60.0240096,100,2.726,2.015,NA,NA,NA,NA,NA,frustrated,"frustrated, not frustrated","more frustrated, less frustrated",NA,NA,NA,NA,NA,NA,NA,NA,NA,NA,NA,NA,NA,NA,NA,0,1,1,1,1,NA,NA,NA,NA,NA,NA,NA,NA,NA,NA,NA,NA,NA,NA,NA,NA,NA,NA,NA,NA,NA,NA,NA,NA,NA,NA,NA,NA
SUPAMT44713,3MTMREQS41H3SATM36MSM0DX4TFAW7,316E709A-7006-4C78-B4DB-9197E22AC5B1,2023-09-29_12h39.13.547,WP_VExplicitOC_HL,2022.2.5,Win32,60.0240096,53.7037037,2.827,2.015,NA,NA,NA,NA,NA,happy,"unhappy, happy","less happy, more happy",NA,NA,NA,NA,NA,NA,NA,NA,NA,NA,NA,NA,NA,NA,NA,0,2,2,0,1,NA,NA,NA,NA,NA,NA,NA,NA,NA,NA,NA,NA,NA,NA,NA,NA,NA,NA,NA,NA,NA,NA,NA,NA,NA,NA,NA,NA
SUPAMT44713,3MTMREQS41H3SATM36MSM0DX4TFAW7,316E709A-7006-4C78-B4DB-9197E22AC5B1,2023-09-29_12h39.13.547,WP_VExplicitOC_HL,2022.2.5,Win32,60.0240096,NA,NA,NA,NA,NA,NA,NA,NA,NA,NA,NA,NA,NA,NA,NA,NA,NA,NA,NA,NA,NA,NA,NA,NA,NA,NA,NA,NA,NA,NA,NA,0,0,0,0,1,NA,NA,NA,NA,NA,NA,NA,NA,NA,NA,NA,NA,NA,NA,NA,NA,NA,NA,NA,NA,NA,NA,NA
SUPAMT44713,3MTMREQS41H3SATM36MSM0DX4TFAW7,316E709A-7006-4C78-B4DB-9197E22AC5B1,2023-09-29_12h39.13.547,WP_VExplicitOC_HL,2022.2.5,Win32,60.0240096,100,4.554,2.015,NA,NA,NA,NA,NA,frustrated,"frustrated, not frustrated","more frustrated, less frustrated",NA,NA,NA,NA,NA,NA,NA,NA,NA,NA,NA,NA,NA,NA,NA,0,0,0,1,1,NA,NA,NA,NA,NA,NA,NA,NA,NA,NA,NA,NA,NA,NA,NA,NA,NA,NA,NA,NA,NA,NA,NA,NA,NA,NA,NA,NA
SUPAMT44713,3MTMREQS41H3SATM36MSM0DX4TFAW7,316E709A-7006-4C78-B4DB-9197E22AC5B1,2023-09-29_12h39.13.547,WP_VExplicitOC_HL,2022.2.5,Win32,60.0240096,61.85185185,2.951,2.014,NA,NA,NA,NA,NA,bored,"bored, not bored","more bored, less bored",NA,NA,NA,NA,NA,NA,NA,NA,NA,NA,NA,NA,NA,NA,NA,0,1,1,2,1,NA,NA,NA,NA,NA,NA,NA,NA,NA,NA,NA,NA,NA,NA,NA,NA,NA,NA,NA,NA,NA,NA,NA,NA,NA,NA,NA,NA
SUPAMT44713,3MTMREQS41H3SATM36MSM0DX4TFAW7,316E709A-7006-4C78-B4DB-9197E22AC5B1,2023-09-29_12h39.13.547,WP_VExplicitOC_HL,2022.2.5,Win32,60.0240096,65,2.704,2.015,NA,NA,NA,NA,NA,happy,"unhappy, happy","less happy, more happy",NA,NA,NA,NA,NA,NA,NA,NA,NA,NA,NA,NA,NA,NA,NA,0,2,2,0,1,NA,NA,NA,NA,NA,NA,NA,NA,NA,NA,NA,NA,NA,NA,NA,NA,NA,NA,NA,NA,NA,NA,NA,NA,NA,NA,NA,NA
SUPAMT44713,3MTMREQS41H3SATM36MSM0DX4TFAW7,316E709A-7006-4C78-B4DB-9197E22AC5B1,2023-09-29_12h39.13.547,WP_VExplicitOC_HL,2022.2.5,Win32,60.0240096,NA,NA,NA,NA,NA,NA,NA,NA,NA,NA,NA,NA,NA,NA,NA,NA,NA,NA,NA,NA,NA,NA,NA,NA,NA,NA,NA,NA,NA,NA,NA,1,0,1,0,1,NA,NA,NA,NA,NA,NA,NA,NA,NA,NA,NA,NA,NA,NA,NA,NA,NA,NA,NA,NA,NA,NA,NA
SUPAMT44713,3MTMREQS41H3SATM36MSM0DX4TFAW7,316E709A-7006-4C78-B4DB-9197E22AC5B1,2023-09-29_12h39.13.547,WP_VExplicitOC_HL,2022.2.5,Win32,60.0240096,NA,NA,2.001,NA,NA,NA,NA,NA,frustrated,"frustrated, not frustrated","more frustrated, less frustrated",NA,NA,NA,NA,NA,NA,NA,NA,NA,NA,NA,NA,NA,NA,NA,0,0,0,1,1,NA,NA,NA,NA,NA,NA,NA,NA,NA,NA,NA,NA,NA,NA,NA,NA,NA,NA,NA,NA,NA,NA,NA,NA,NA,NA,NA,NA
SUPAMT44713,3MTMREQS41H3SATM36MSM0DX4TFAW7,316E709A-7006-4C78-B4DB-9197E22AC5B1,2023-09-29_12h39.13.547,WP_VExplicitOC_HL,2022.2.5,Win32,60.0240096,100,6.35,2.016,NA,NA,NA,NA,NA,happy,"unhappy, happy","less happy, more happy",NA,NA,NA,NA,NA,NA,NA,NA,NA,NA,NA,NA,NA,NA,NA,0,1,1,0,1,NA,NA,NA,NA,NA,NA,NA,NA,NA,NA,NA,NA,NA,NA,NA,NA,NA,NA,NA,NA,NA,NA,NA,NA,NA,NA,NA,NA
SUPAMT44713,3MTMREQS41H3SATM36MSM0DX4TFAW7,316E709A-7006-4C78-B4DB-9197E22AC5B1,2023-09-29_12h39.13.547,WP_VExplicitOC_HL,2022.2.5,Win32,60.0240096,67.03703704,3.911,2.014,NA,NA,NA,NA,NA,bored,"bored, not bored","more bored, less bored",NA,NA,NA,NA,NA,NA,NA,NA,NA,NA,NA,NA,NA,NA,NA,0,2,2,2,1,NA,NA,NA,NA,NA,NA,NA,NA,NA,NA,NA,NA,NA,NA,NA,NA,NA,NA,NA,NA,NA,NA,NA,NA,NA,NA,NA,NA
SUPAMT44713,3MTMREQS41H3SATM36MSM0DX4TFAW7,316E709A-7006-4C78-B4DB-9197E22AC5B1,2023-09-29_12h39.13.547,WP_VExplicitOC_HL,2022.2.5,Win32,60.0240096,NA,NA,NA,NA,NA,NA,NA,NA,NA,NA,NA,NA,NA,NA,NA,NA,NA,NA,NA,NA,NA,NA,NA,NA,NA,NA,NA,NA,NA,NA,NA,2,0,2,0,1,NA,NA,NA,NA,NA,NA,NA,NA,NA,NA,NA,NA,NA,NA,NA,NA,NA,NA,NA,NA,NA,NA,NA
SUPAMT44713,3MTMREQS41H3SATM36MSM0DX4TFAW7,316E709A-7006-4C78-B4DB-9197E22AC5B1,2023-09-29_12h39.13.547,WP_VExplicitOC_HL,2022.2.5,Win32,60.0240096,70.37037037,4.081,2.002,NA,NA,NA,NA,NA,happy,"unhappy, happy","less happy, more happy",NA,NA,NA,NA,NA,NA,NA,NA,NA,NA,NA,NA,NA,NA,NA,0,0,0,0,1,NA,NA,NA,NA,NA,NA,NA,NA,NA,NA,NA,NA,NA,NA,NA,NA,NA,NA,NA,NA,NA,NA,NA,NA,NA,NA,NA,NA
SUPAMT44713,3MTMREQS41H3SATM36MSM0DX4TFAW7,316E709A-7006-4C78-B4DB-9197E22AC5B1,2023-09-29_12h39.13.547,WP_VExplicitOC_HL,2022.2.5,Win32,60.0240096,100,2.717,2.015,NA,NA,NA,NA,NA,frustrated,"frustrated, not frustrated","more frustrated, less frustrated",NA,NA,NA,NA,NA,NA,NA,NA,NA,NA,NA,NA,NA,NA,NA,0,1,1,1,1,NA,NA,NA,NA,NA,NA,NA,NA,NA,NA,NA,NA,NA,NA,NA,NA,NA,NA,NA,NA,NA,NA,NA,NA,NA,NA,NA,NA
SUPAMT44713,3MTMREQS41H3SATM36MSM0DX4TFAW7,316E709A-7006-4C78-B4DB-9197E22AC5B1,2023-09-29_12h39.13.547,WP_VExplicitOC_HL,2022.2.5,Win32,60.0240096,63.88888889,3.628,2.015,NA,NA,NA,NA,NA,bored,"bored, not bored","more bored, less bored",NA,NA,NA,NA,NA,NA,NA,NA,NA,NA,NA,NA,NA,NA,NA,0,2,2,2,1,NA,NA,NA,NA,NA,NA,NA,NA,NA,NA,NA,NA,NA,NA,NA,NA,NA,NA,NA,NA,NA,NA,NA,NA,NA,NA,NA,NA
SUPAMT44713,3MTMREQS41H3SATM36MSM0DX4TFAW7,316E709A-7006-4C78-B4DB-9197E22AC5B1,2023-09-29_12h39.13.547,WP_VExplicitOC_HL,2022.2.5,Win32,60.0240096,NA,NA,NA,NA,NA,NA,NA,NA,NA,NA,NA,NA,NA,NA,NA,NA,NA,NA,NA,NA,NA,NA,NA,NA,NA,NA,NA,NA,NA,NA,NA,3,0,3,0,1,NA,NA,NA,NA,NA,NA,NA,NA,NA,NA,NA,NA,NA,NA,NA,NA,NA,NA,NA,NA,NA,NA,NA
SUPAMT44713,3MTMREQS41H3SATM36MSM0DX4TFAW7,316E709A-7006-4C78-B4DB-9197E22AC5B1,2023-09-29_12h39.13.547,WP_VExplicitOC_HL,2022.2.5,Win32,60.0240096,64.81481481,3.864,2,NA,NA,NA,NA,NA,bored,"bored, not bored","more bored, less bored",NA,NA,NA,NA,NA,NA,NA,NA,NA,NA,NA,NA,NA,NA,NA,0,0,0,2,1,NA,NA,NA,NA,NA,NA,NA,NA,NA,NA,NA,NA,NA,NA,NA,NA,NA,NA,NA,NA,NA,NA,NA,NA,NA,NA,NA,NA
SUPAMT44713,3MTMREQS41H3SATM36MSM0DX4TFAW7,316E709A-7006-4C78-B4DB-9197E22AC5B1,2023-09-29_12h39.13.547,WP_VExplicitOC_HL,2022.2.5,Win32,60.0240096,80.37037037,3.069,2.016,NA,NA,NA,NA,NA,happy,"unhappy, happy","less happy, more happy",NA,NA,NA,NA,NA,NA,NA,NA,NA,NA,NA,NA,NA,NA,NA,0,1,1,0,1,NA,NA,NA,NA,NA,NA,NA,NA,NA,NA,NA,NA,NA,NA,NA,NA,NA,NA,NA,NA,NA,NA,NA,NA,NA,NA,NA,NA
SUPAMT44713,3MTMREQS41H3SATM36MSM0DX4TFAW7,316E709A-7006-4C78-B4DB-9197E22AC5B1,2023-09-29_12h39.13.547,WP_VExplicitOC_HL,2022.2.5,Win32,60.0240096,100,2.742,2.015,NA,NA,NA,NA,NA,frustrated,"frustrated, not frustrated","more frustrated, less frustrated",NA,NA,NA,NA,NA,NA,NA,NA,NA,NA,NA,NA,NA,NA,NA,0,2,2,1,1,NA,NA,NA,NA,NA,NA,NA,NA,NA,NA,NA,NA,NA,NA,NA,NA,NA,NA,NA,NA,NA,NA,NA,NA,NA,NA,NA,NA
SUPAMT44713,3MTMREQS41H3SATM36MSM0DX4TFAW7,316E709A-7006-4C78-B4DB-9197E22AC5B1,2023-09-29_12h39.13.547,WP_VExplicitOC_HL,2022.2.5,Win32,60.0240096,NA,NA,NA,NA,NA,NA,NA,NA,NA,NA,NA,NA,NA,NA,NA,NA,NA,NA,NA,NA,NA,NA,NA,NA,NA,NA,NA,NA,NA,NA,NA,4,0,4,0,1,NA,NA,NA,NA,NA,NA,NA,NA,NA,NA,NA,NA,NA,NA,NA,NA,NA,NA,NA,NA,NA,NA,NA
SUPAMT44713,3MTMREQS41H3SATM36MSM0DX4TFAW7,316E709A-7006-4C78-B4DB-9197E22AC5B1,2023-09-29_12h39.13.547,WP_VExplicitOC_HL,2022.2.5,Win32,60.0240096,100,2.731,2.003,NA,NA,NA,NA,NA,frustrated,"frustrated, not frustrated","more frustrated, less frustrated",NA,NA,NA,NA,NA,NA,NA,NA,NA,NA,NA,NA,NA,NA,NA,0,0,0,1,1,NA,NA,NA,NA,NA,NA,NA,NA,NA,NA,NA,NA,NA,NA,NA,NA,NA,NA,NA,NA,NA,NA,NA,NA,NA,NA,NA,NA
SUPAMT44713,3MTMREQS41H3SATM36MSM0DX4TFAW7,316E709A-7006-4C78-B4DB-9197E22AC5B1,2023-09-29_12h39.13.547,WP_VExplicitOC_HL,2022.2.5,Win32,60.0240096,58.33333333,2.684,2.015,NA,NA,NA,NA,NA,bored,"bored, not bored","more bored, less bored",NA,NA,NA,NA,NA,NA,NA,NA,NA,NA,NA,NA,NA,NA,NA,0,1,1,2,1,NA,NA,NA,NA,NA,NA,NA,NA,NA,NA,NA,NA,NA,NA,NA,NA,NA,NA,NA,NA,NA,NA,NA,NA,NA,NA,NA,NA
SUPAMT44713,3MTMREQS41H3SATM36MSM0DX4TFAW7,316E709A-7006-4C78-B4DB-9197E22AC5B1,2023-09-29_12h39.13.547,WP_VExplicitOC_HL,2022.2.5,Win32,60.0240096,75,3.154,2,NA,NA,NA,NA,NA,happy,"unhappy, happy","less happy, more happy",NA,NA,NA,NA,NA,NA,NA,NA,NA,NA,NA,NA,NA,NA,NA,0,2,2,0,1,NA,NA,NA,NA,NA,NA,NA,NA,NA,NA,NA,NA,NA,NA,NA,NA,NA,NA,NA,NA,NA,NA,NA,NA,NA,NA,NA,NA
SUPAMT44713,3MTMREQS41H3SATM36MSM0DX4TFAW7,316E709A-7006-4C78-B4DB-9197E22AC5B1,2023-09-29_12h39.13.547,WP_VExplicitOC_HL,2022.2.5,Win32,60.0240096,NA,NA,NA,NA,NA,NA,NA,NA,NA,NA,NA,NA,NA,NA,NA,NA,NA,NA,NA,NA,NA,NA,NA,NA,NA,NA,NA,NA,NA,NA,NA,5,0,5,0,1,NA,NA,NA,NA,NA,NA,NA,NA,NA,NA,NA,NA,NA,NA,NA,NA,NA,NA,NA,NA,NA,NA,NA
SUPAMT44713,3MTMREQS41H3SATM36MSM0DX4TFAW7,316E709A-7006-4C78-B4DB-9197E22AC5B1,2023-09-29_12h39.13.547,WP_VExplicitOC_HL,2022.2.5,Win32,60.0240096,70.74074074,3.387,2.002,NA,NA,NA,NA,NA,happy,"unhappy, happy","less happy, more happy",NA,NA,NA,NA,NA,NA,NA,NA,NA,NA,NA,NA,NA,NA,NA,0,0,0,0,1,NA,NA,NA,NA,NA,NA,NA,NA,NA,NA,NA,NA,NA,NA,NA,NA,NA,NA,NA,NA,NA,NA,NA,NA,NA,NA,NA,NA
SUPAMT44713,3MTMREQS41H3SATM36MSM0DX4TFAW7,316E709A-7006-4C78-B4DB-9197E22AC5B1,2023-09-29_12h39.13.547,WP_VExplicitOC_HL,2022.2.5,Win32,60.0240096,76.2962963,3.092,2.015,NA,NA,NA,NA,NA,bored,"bored, not bored","more bored, less bored",NA,NA,NA,NA,NA,NA,NA,NA,NA,NA,NA,NA,NA,NA,NA,0,1,1,2,1,NA,NA,NA,NA,NA,NA,NA,NA,NA,NA,NA,NA,NA,NA,NA,NA,NA,NA,NA,NA,NA,NA,NA,NA,NA,NA,NA,NA
SUPAMT44713,3MTMREQS41H3SATM36MSM0DX4TFAW7,316E709A-7006-4C78-B4DB-9197E22AC5B1,2023-09-29_12h39.13.547,WP_VExplicitOC_HL,2022.2.5,Win32,60.0240096,100,2.794,2.016,NA,NA,NA,NA,NA,frustrated,"frustrated, not frustrated","more frustrated, less frustrated",NA,NA,NA,NA,NA,NA,NA,NA,NA,NA,NA,NA,NA,NA,NA,0,2,2,1,1,NA,NA,NA,NA,NA,NA,NA,NA,NA,NA,NA,NA,NA,NA,NA,NA,NA,NA,NA,NA,NA,NA,NA,NA,NA,NA,NA,NA
SUPAMT44713,3MTMREQS41H3SATM36MSM0DX4TFAW7,316E709A-7006-4C78-B4DB-9197E22AC5B1,2023-09-29_12h39.13.547,WP_VExplicitOC_HL,2022.2.5,Win32,60.0240096,NA,NA,NA,NA,NA,NA,NA,NA,NA,NA,NA,NA,NA,NA,NA,NA,NA,NA,NA,NA,NA,NA,NA,NA,NA,NA,NA,NA,NA,NA,NA,6,0,6,0,1,NA,NA,NA,NA,NA,NA,NA,NA,NA,NA,NA,NA,NA,NA,NA,NA,NA,NA,NA,NA,NA,NA,NA
SUPAMT44713,3MTMREQS41H3SATM36MSM0DX4TFAW7,316E709A-7006-4C78-B4DB-9197E22AC5B1,2023-09-29_12h39.13.547,WP_VExplicitOC_HL,2022.2.5,Win32,60.0240096,77.96296296,3.002,2.001,NA,NA,NA,NA,NA,bored,"bored, not bored","more bored, less bored",NA,NA,NA,NA,NA,NA,NA,NA,NA,NA,NA,NA,NA,NA,NA,0,0,0,2,1,NA,NA,NA,NA,NA,NA,NA,NA,NA,NA,NA,NA,NA,NA,NA,NA,NA,NA,NA,NA,NA,NA,NA,NA,NA,NA,NA,NA
SUPAMT44713,3MTMREQS41H3SATM36MSM0DX4TFAW7,316E709A-7006-4C78-B4DB-9197E22AC5B1,2023-09-29_12h39.13.547,WP_VExplicitOC_HL,2022.2.5,Win32,60.0240096,78.88888889,3.337,2.016,NA,NA,NA,NA,NA,happy,"unhappy, happy","less happy, more happy",NA,NA,NA,NA,NA,NA,NA,NA,NA,NA,NA,NA,NA,NA,NA,0,1,1,0,1,NA,NA,NA,NA,NA,NA,NA,NA,NA,NA,NA,NA,NA,NA,NA,NA,NA,NA,NA,NA,NA,NA,NA,NA,NA,NA,NA,NA
SUPAMT44713,3MTMREQS41H3SATM36MSM0DX4TFAW7,316E709A-7006-4C78-B4DB-9197E22AC5B1,2023-09-29_12h39.13.547,WP_VExplicitOC_HL,2022.2.5,Win32,60.0240096,100,2.77,2,NA,NA,NA,NA,NA,frustrated,"frustrated, not frustrated","more frustrated, less frustrated",NA,NA,NA,NA,NA,NA,NA,NA,NA,NA,NA,NA,NA,NA,NA,0,2,2,1,1,NA,NA,NA,NA,NA,NA,NA,NA,NA,NA,NA,NA,NA,NA,NA,NA,NA,NA,NA,NA,NA,NA,NA,NA,NA,NA,NA,NA
SUPAMT44713,3MTMREQS41H3SATM36MSM0DX4TFAW7,316E709A-7006-4C78-B4DB-9197E22AC5B1,2023-09-29_12h39.13.547,WP_VExplicitOC_HL,2022.2.5,Win32,60.0240096,NA,NA,NA,NA,NA,NA,NA,NA,NA,NA,NA,NA,NA,NA,NA,NA,NA,NA,NA,NA,NA,NA,NA,NA,NA,NA,NA,NA,NA,NA,NA,7,0,7,0,1,NA,NA,NA,NA,NA,NA,NA,NA,NA,NA,NA,NA,NA,NA,NA,NA,NA,NA,NA,NA,NA,NA,NA
SUPAMT44713,3MTMREQS41H3SATM36MSM0DX4TFAW7,316E709A-7006-4C78-B4DB-9197E22AC5B1,2023-09-29_12h39.13.547,WP_VExplicitOC_HL,2022.2.5,Win32,60.0240096,66.48148148,3.158,2.004,NA,NA,NA,NA,NA,happy,"unhappy, happy","less happy, more happy",NA,NA,NA,NA,NA,NA,NA,NA,NA,NA,NA,NA,NA,NA,NA,0,0,0,0,1,NA,NA,NA,NA,NA,NA,NA,NA,NA,NA,NA,NA,NA,NA,NA,NA,NA,NA,NA,NA,NA,NA,NA,NA,NA,NA,NA,NA
SUPAMT44713,3MTMREQS41H3SATM36MSM0DX4TFAW7,316E709A-7006-4C78-B4DB-9197E22AC5B1,2023-09-29_12h39.13.547,WP_VExplicitOC_HL,2022.2.5,Win32,60.0240096,100,2.628,2,NA,NA,NA,NA,NA,frustrated,"frustrated, not frustrated","more frustrated, less frustrated",NA,NA,NA,NA,NA,NA,NA,NA,NA,NA,NA,NA,NA,NA,NA,0,1,1,1,1,NA,NA,NA,NA,NA,NA,NA,NA,NA,NA,NA,NA,NA,NA,NA,NA,NA,NA,NA,NA,NA,NA,NA,NA,NA,NA,NA,NA
SUPAMT44713,3MTMREQS41H3SATM36MSM0DX4TFAW7,316E709A-7006-4C78-B4DB-9197E22AC5B1,2023-09-29_12h39.13.547,WP_VExplicitOC_HL,2022.2.5,Win32,60.0240096,33.14814815,3.72,2.015,NA,NA,NA,NA,NA,bored,"bored, not bored","more bored, less bored",NA,NA,NA,NA,NA,NA,NA,NA,NA,NA,NA,NA,NA,NA,NA,0,2,2,2,1,NA,NA,NA,NA,NA,NA,NA,NA,NA,NA,NA,NA,NA,NA,NA,NA,NA,NA,NA,NA,NA,NA,NA,NA,NA,NA,NA,NA
SUPAMT44713,3MTMREQS41H3SATM36MSM0DX4TFAW7,316E709A-7006-4C78-B4DB-9197E22AC5B1,2023-09-29_12h39.13.547,WP_VExplicitOC_HL,2022.2.5,Win32,60.0240096,NA,NA,NA,NA,NA,NA,NA,NA,NA,NA,NA,NA,NA,NA,NA,NA,NA,NA,NA,NA,NA,NA,NA,NA,NA,NA,NA,NA,NA,NA,NA,8,0,8,0,1,NA,NA,NA,NA,NA,NA,NA,NA,NA,NA,NA,NA,NA,NA,NA,NA,NA,NA,NA,NA,NA,NA,NA
SUPAMT44713,3MTMREQS41H3SATM36MSM0DX4TFAW7,316E709A-7006-4C78-B4DB-9197E22AC5B1,2023-09-29_12h39.13.547,WP_VExplicitOC_HL,2022.2.5,Win32,60.0240096,40.74074074,2.778,2.001,NA,NA,NA,NA,NA,bored,"bored, not bored","more bored, less bored",NA,NA,NA,NA,NA,NA,NA,NA,NA,NA,NA,NA,NA,NA,NA,0,0,0,2,1,NA,NA,NA,NA,NA,NA,NA,NA,NA,NA,NA,NA,NA,NA,NA,NA,NA,NA,NA,NA,NA,NA,NA,NA,NA,NA,NA,NA
SUPAMT44713,3MTMREQS41H3SATM36MSM0DX4TFAW7,316E709A-7006-4C78-B4DB-9197E22AC5B1,2023-09-29_12h39.13.547,WP_VExplicitOC_HL,2022.2.5,Win32,60.0240096,82.03703704,2.876,2.015,NA,NA,NA,NA,NA,happy,"unhappy, happy","less happy, more happy",NA,NA,NA,NA,NA,NA,NA,NA,NA,NA,NA,NA,NA,NA,NA,0,1,1,0,1,NA,NA,NA,NA,NA,NA,NA,NA,NA,NA,NA,NA,NA,NA,NA,NA,NA,NA,NA,NA,NA,NA,NA,NA,NA,NA,NA,NA
SUPAMT44713,3MTMREQS41H3SATM36MSM0DX4TFAW7,316E709A-7006-4C78-B4DB-9197E22AC5B1,2023-09-29_12h39.13.547,WP_VExplicitOC_HL,2022.2.5,Win32,60.0240096,100,2.878,2.001,NA,NA,NA,NA,NA,frustrated,"frustrated, not frustrated","more frustrated, less frustrated",NA,NA,NA,NA,NA,NA,NA,NA,NA,NA,NA,NA,NA,NA,NA,0,2,2,1,1,NA,NA,NA,NA,NA,NA,NA,NA,NA,NA,NA,NA,NA,NA,NA,NA,NA,NA,NA,NA,NA,NA,NA,NA,NA,NA,NA,NA
SUPAMT44713,3MTMREQS41H3SATM36MSM0DX4TFAW7,316E709A-7006-4C78-B4DB-9197E22AC5B1,2023-09-29_12h39.13.547,WP_VExplicitOC_HL,2022.2.5,Win32,60.0240096,NA,NA,NA,NA,NA,NA,NA,NA,NA,NA,NA,NA,NA,NA,NA,NA,NA,NA,NA,NA,NA,NA,NA,NA,NA,NA,NA,NA,NA,NA,NA,9,0,9,0,1,NA,NA,NA,NA,NA,NA,NA,NA,NA,NA,NA,NA,NA,NA,NA,NA,NA,NA,NA,NA,NA,NA,NA
SUPAMT44713,3MTMREQS41H3SATM36MSM0DX4TFAW7,316E709A-7006-4C78-B4DB-9197E22AC5B1,2023-09-29_12h39.13.547,WP_VExplicitOC_HL,2022.2.5,Win32,60.0240096,100,2.988,2.002,NA,NA,NA,NA,NA,bored,"bored, not bored","more bored, less bored",NA,NA,NA,NA,NA,NA,NA,NA,NA,NA,NA,NA,NA,NA,NA,0,0,0,2,1,NA,NA,NA,NA,NA,NA,NA,NA,NA,NA,NA,NA,NA,NA,NA,NA,NA,NA,NA,NA,NA,NA,NA,NA,NA,NA,NA,NA
SUPAMT44713,3MTMREQS41H3SATM36MSM0DX4TFAW7,316E709A-7006-4C78-B4DB-9197E22AC5B1,2023-09-29_12h39.13.547,WP_VExplicitOC_HL,2022.2.5,Win32,60.0240096,50.37037037,2.92,2,NA,NA,NA,NA,NA,happy,"unhappy, happy","less happy, more happy",NA,NA,NA,NA,NA,NA,NA,NA,NA,NA,NA,NA,NA,NA,NA,0,1,1,0,1,NA,NA,NA,NA,NA,NA,NA,NA,NA,NA,NA,NA,NA,NA,NA,NA,NA,NA,NA,NA,NA,NA,NA,NA,NA,NA,NA,NA
SUPAMT44713,3MTMREQS41H3SATM36MSM0DX4TFAW7,316E709A-7006-4C78-B4DB-9197E22AC5B1,2023-09-29_12h39.13.547,WP_VExplicitOC_HL,2022.2.5,Win32,60.0240096,100,2.751,2,NA,NA,NA,NA,NA,frustrated,"frustrated, not frustrated","more frustrated, less frustrated",NA,NA,NA,NA,NA,NA,NA,NA,NA,NA,NA,NA,NA,NA,NA,0,2,2,1,1,NA,NA,NA,NA,NA,NA,NA,NA,NA,NA,NA,NA,NA,NA,NA,NA,NA,NA,NA,NA,NA,NA,NA,NA,NA,NA,NA,NA
SUPAMT44713,3MTMREQS41H3SATM36MSM0DX4TFAW7,316E709A-7006-4C78-B4DB-9197E22AC5B1,2023-09-29_12h39.13.547,WP_VExplicitOC_HL,2022.2.5,Win32,60.0240096,NA,NA,NA,NA,NA,NA,NA,NA,NA,NA,NA,NA,NA,NA,NA,NA,NA,NA,NA,NA,NA,NA,NA,NA,NA,NA,NA,NA,NA,NA,NA,10,0,10,0,1,NA,NA,NA,NA,NA,NA,NA,NA,NA,NA,NA,NA,NA,NA,NA,NA,NA,NA,NA,NA,NA,NA,NA
SUPAMT44713,3MTMREQS41H3SATM36MSM0DX4TFAW7,316E709A-7006-4C78-B4DB-9197E22AC5B1,2023-09-29_12h39.13.547,WP_VExplicitOC_HL,2022.2.5,Win32,60.0240096,75,2.883,2.013,NA,NA,NA,NA,NA,happy,"unhappy, happy","less happy, more happy",NA,NA,NA,NA,NA,NA,NA,NA,NA,NA,NA,NA,NA,NA,NA,0,0,0,0,1,NA,NA,NA,NA,NA,NA,NA,NA,NA,NA,NA,NA,NA,NA,NA,NA,NA,NA,NA,NA,NA,NA,NA,NA,NA,NA,NA,NA
SUPAMT44713,3MTMREQS41H3SATM36MSM0DX4TFAW7,316E709A-7006-4C78-B4DB-9197E22AC5B1,2023-09-29_12h39.13.547,WP_VExplicitOC_HL,2022.2.5,Win32,60.0240096,94.44444444,2.868,2,NA,NA,NA,NA,NA,frustrated,"frustrated, not frustrated","more frustrated, less frustrated",NA,NA,NA,NA,NA,NA,NA,NA,NA,NA,NA,NA,NA,NA,NA,0,1,1,1,1,NA,NA,NA,NA,NA,NA,NA,NA,NA,NA,NA,NA,NA,NA,NA,NA,NA,NA,NA,NA,NA,NA,NA,NA,NA,NA,NA,NA
SUPAMT44713,3MTMREQS41H3SATM36MSM0DX4TFAW7,316E709A-7006-4C78-B4DB-9197E22AC5B1,2023-09-29_12h39.13.547,WP_VExplicitOC_HL,2022.2.5,Win32,60.0240096,67.40740741,3.959,2,NA,NA,NA,NA,NA,bored,"bored, not bored","more bored, less bored",NA,NA,NA,NA,NA,NA,NA,NA,NA,NA,NA,NA,NA,NA,NA,0,2,2,2,1,NA,NA,NA,NA,NA,NA,NA,NA,NA,NA,NA,NA,NA,NA,NA,NA,NA,NA,NA,NA,NA,NA,NA,NA,NA,NA,NA,NA
SUPAMT44713,3MTMREQS41H3SATM36MSM0DX4TFAW7,316E709A-7006-4C78-B4DB-9197E22AC5B1,2023-09-29_12h39.13.547,WP_VExplicitOC_HL,2022.2.5,Win32,60.0240096,NA,NA,NA,NA,NA,NA,NA,NA,NA,NA,NA,NA,NA,NA,NA,NA,NA,NA,NA,NA,NA,NA,NA,NA,NA,NA,NA,NA,NA,NA,NA,11,0,11,0,1,NA,NA,NA,NA,NA,NA,NA,NA,NA,NA,NA,NA,NA,NA,NA,NA,NA,NA,NA,NA,NA,NA,NA
SUPAMT44713,3MTMREQS41H3SATM36MSM0DX4TFAW7,316E709A-7006-4C78-B4DB-9197E22AC5B1,2023-09-29_12h39.13.547,WP_VExplicitOC_HL,2022.2.5,Win32,60.0240096,65.55555556,3.524,2.003,NA,NA,NA,NA,NA,happy,"unhappy, happy","less happy, more happy",NA,NA,NA,NA,NA,NA,NA,NA,NA,NA,NA,NA,NA,NA,NA,0,0,0,0,1,NA,NA,NA,NA,NA,NA,NA,NA,NA,NA,NA,NA,NA,NA,NA,NA,NA,NA,NA,NA,NA,NA,NA,NA,NA,NA,NA,NA
SUPAMT44713,3MTMREQS41H3SATM36MSM0DX4TFAW7,316E709A-7006-4C78-B4DB-9197E22AC5B1,2023-09-29_12h39.13.547,WP_VExplicitOC_HL,2022.2.5,Win32,60.0240096,100,2.521,2,NA,NA,NA,NA,NA,frustrated,"frustrated, not frustrated","more frustrated, less frustrated",NA,NA,NA,NA,NA,NA,NA,NA,NA,NA,NA,NA,NA,NA,NA,0,1,1,1,1,NA,NA,NA,NA,NA,NA,NA,NA,NA,NA,NA,NA,NA,NA,NA,NA,NA,NA,NA,NA,NA,NA,NA,NA,NA,NA,NA,NA
SUPAMT44713,3MTMREQS41H3SATM36MSM0DX4TFAW7,316E709A-7006-4C78-B4DB-9197E22AC5B1,2023-09-29_12h39.13.547,WP_VExplicitOC_HL,2022.2.5,Win32,60.0240096,64.07407407,2.783,2.015,NA,NA,NA,NA,NA,bored,"bored, not bored","more bored, less bored",NA,NA,NA,NA,NA,NA,NA,NA,NA,NA,NA,NA,NA,NA,NA,0,2,2,2,1,NA,NA,NA,NA,NA,NA,NA,NA,NA,NA,NA,NA,NA,NA,NA,NA,NA,NA,NA,NA,NA,NA,NA,NA,NA,NA,NA,NA
SUPAMT44713,3MTMREQS41H3SATM36MSM0DX4TFAW7,316E709A-7006-4C78-B4DB-9197E22AC5B1,2023-09-29_12h39.13.547,WP_VExplicitOC_HL,2022.2.5,Win32,60.0240096,NA,NA,NA,NA,NA,NA,NA,NA,NA,NA,NA,NA,NA,NA,NA,NA,NA,NA,NA,NA,NA,NA,NA,NA,NA,NA,NA,NA,NA,NA,NA,12,0,12,0,1,NA,NA,NA,NA,NA,NA,NA,NA,NA,NA,NA,NA,NA,NA,NA,NA,NA,NA,NA,NA,NA,NA,NA
SUPAMT44713,3MTMREQS41H3SATM36MSM0DX4TFAW7,316E709A-7006-4C78-B4DB-9197E22AC5B1,2023-09-29_12h39.13.547,WP_VExplicitOC_HL,2022.2.5,Win32,60.0240096,100,2.886,2.016,NA,NA,NA,NA,NA,frustrated,"frustrated, not frustrated","more frustrated, less frustrated",NA,NA,NA,NA,NA,NA,NA,NA,NA,NA,NA,NA,NA,NA,NA,0,0,0,1,1,NA,NA,NA,NA,NA,NA,NA,NA,NA,NA,NA,NA,NA,NA,NA,NA,NA,NA,NA,NA,NA,NA,NA,NA,NA,NA,NA,NA
SUPAMT44713,3MTMREQS41H3SATM36MSM0DX4TFAW7,316E709A-7006-4C78-B4DB-9197E22AC5B1,2023-09-29_12h39.13.547,WP_VExplicitOC_HL,2022.2.5,Win32,60.0240096,17.77777778,2.776,2.016,NA,NA,NA,NA,NA,bored,"bored, not bored","more bored, less bored",NA,NA,NA,NA,NA,NA,NA,NA,NA,NA,NA,NA,NA,NA,NA,0,1,1,2,1,NA,NA,NA,NA,NA,NA,NA,NA,NA,NA,NA,NA,NA,NA,NA,NA,NA,NA,NA,NA,NA,NA,NA,NA,NA,NA,NA,NA
SUPAMT44713,3MTMREQS41H3SATM36MSM0DX4TFAW7,316E709A-7006-4C78-B4DB-9197E22AC5B1,2023-09-29_12h39.13.547,WP_VExplicitOC_HL,2022.2.5,Win32,60.0240096,68.14814815,3.257,2.015,NA,NA,NA,NA,NA,happy,"unhappy, happy","less happy, more happy",NA,NA,NA,NA,NA,NA,NA,NA,NA,NA,NA,NA,NA,NA,NA,0,2,2,0,1,NA,NA,NA,NA,NA,NA,NA,NA,NA,NA,NA,NA,NA,NA,NA,NA,NA,NA,NA,NA,NA,NA,NA,NA,NA,NA,NA,NA
SUPAMT44713,3MTMREQS41H3SATM36MSM0DX4TFAW7,316E709A-7006-4C78-B4DB-9197E22AC5B1,2023-09-29_12h39.13.547,WP_VExplicitOC_HL,2022.2.5,Win32,60.0240096,NA,NA,NA,NA,NA,NA,NA,NA,NA,NA,NA,NA,NA,NA,NA,NA,NA,NA,NA,NA,NA,NA,NA,NA,NA,NA,NA,NA,NA,NA,NA,13,0,13,0,1,NA,NA,NA,NA,NA,NA,NA,NA,NA,NA,NA,NA,NA,NA,NA,NA,NA,NA,NA,NA,NA,NA,NA
SUPAMT44713,3MTMREQS41H3SATM36MSM0DX4TFAW7,316E709A-7006-4C78-B4DB-9197E22AC5B1,2023-09-29_12h39.13.547,WP_VExplicitOC_HL,2022.2.5,Win32,60.0240096,34.07407407,4.057,2.004,NA,NA,NA,NA,NA,bored,"bored, not bored","more bored, less bored",NA,NA,NA,NA,NA,NA,NA,NA,NA,NA,NA,NA,NA,NA,NA,0,0,0,2,1,NA,NA,NA,NA,NA,NA,NA,NA,NA,NA,NA,NA,NA,NA,NA,NA,NA,NA,NA,NA,NA,NA,NA,NA,NA,NA,NA,NA
SUPAMT44713,3MTMREQS41H3SATM36MSM0DX4TFAW7,316E709A-7006-4C78-B4DB-9197E22AC5B1,2023-09-29_12h39.13.547,WP_VExplicitOC_HL,2022.2.5,Win32,60.0240096,60.92592593,2.626,2.015,NA,NA,NA,NA,NA,happy,"unhappy, happy","less happy, more happy",NA,NA,NA,NA,NA,NA,NA,NA,NA,NA,NA,NA,NA,NA,NA,0,1,1,0,1,NA,NA,NA,NA,NA,NA,NA,NA,NA,NA,NA,NA,NA,NA,NA,NA,NA,NA,NA,NA,NA,NA,NA,NA,NA,NA,NA,NA
SUPAMT44713,3MTMREQS41H3SATM36MSM0DX4TFAW7,316E709A-7006-4C78-B4DB-9197E22AC5B1,2023-09-29_12h39.13.547,WP_VExplicitOC_HL,2022.2.5,Win32,60.0240096,100,2.572,2.015,NA,NA,NA,NA,NA,frustrated,"frustrated, not frustrated","more frustrated, less frustrated",NA,NA,NA,NA,NA,NA,NA,NA,NA,NA,NA,NA,NA,NA,NA,0,2,2,1,1,NA,NA,NA,NA,NA,NA,NA,NA,NA,NA,NA,NA,NA,NA,NA,NA,NA,NA,NA,NA,NA,NA,NA,NA,NA,NA,NA,NA
SUPAMT44713,3MTMREQS41H3SATM36MSM0DX4TFAW7,316E709A-7006-4C78-B4DB-9197E22AC5B1,2023-09-29_12h39.13.547,WP_VExplicitOC_HL,2022.2.5,Win32,60.0240096,NA,NA,NA,NA,NA,NA,NA,NA,NA,NA,NA,NA,NA,NA,NA,NA,NA,NA,NA,NA,NA,NA,NA,NA,NA,NA,NA,NA,NA,NA,NA,14,0,14,0,1,NA,NA,NA,NA,NA,NA,NA,NA,NA,NA,NA,NA,NA,NA,NA,NA,NA,NA,NA,NA,NA,NA,NA
SUPAMT44713,3MTMREQS41H3SATM36MSM0DX4TFAW7,316E709A-7006-4C78-B4DB-9197E22AC5B1,2023-09-29_12h39.13.547,WP_VExplicitOC_HL,2022.2.5,Win32,60.0240096,NA,NA,NA,NA,NA,NA,NA,NA,NA,NA,NA,NA,NA,NA,NA,NA,NA,NA,NA,NA,NA,NA,NA,NA,NA,NA,NA,NA,NA,NA,NA,NA,NA,NA,NA,NA,NA,NA,NA,NA,NA,NA,NA,NA,NA,NA,NA,NA,NA,NA,NA,NA,NA,NA,NA,NA,NA,NA,NA
SUPAMT44713,3MTMREQS41H3SATM36MSM0DX4TFAW7,316E709A-7006-4C78-B4DB-9197E22AC5B1,2023-09-29_12h39.13.547,WP_VExplicitOC_HL,2022.2.5,Win32,60.0240096,NA,NA,NA,NA,NA,NA,NA,NA,NA,NA,NA,NA,NA,NA,NA,NA,NA,NA,NA,NA,NA,NA,NA,NA,NA,NA,NA,NA,NA,NA,NA,NA,NA,NA,NA,NA,NA,NA,NA,NA,NA,NA,NA,NA,NA,NA,NA,NA,NA,NA,NA,NA,NA,NA,NA,NA,NA,NA,NA
SUPAMT44713,3MTMREQS41H3SATM36MSM0DX4TFAW7,316E709A-7006-4C78-B4DB-9197E22AC5B1,2023-09-29_12h39.13.547,WP_VExplicitOC_HL,2022.2.5,Win32,60.0240096,NA,NA,NA,NA,NA,NA,NA,NA,NA,NA,NA,NA,NA,NA,NA,NA,NA,NA,rest (looking at a fixed cross),001.png,NA,NA,NA,NA,NA,NA,NA,NA,NA,NA,NA,NA,NA,NA,NA,NA,16.11111111,3.378,0,0,0,0,1,NA,NA,NA,NA,NA,NA,NA,NA,NA,NA,NA,NA,NA,NA,NA,NA
SUPAMT44713,3MTMREQS41H3SATM36MSM0DX4TFAW7,316E709A-7006-4C78-B4DB-9197E22AC5B1,2023-09-29_12h39.13.547,WP_VExplicitOC_HL,2022.2.5,Win32,60.0240096,NA,NA,NA,NA,NA,NA,NA,NA,NA,NA,NA,NA,NA,NA,NA,NA,NA,NA,stand up,002.png,NA,NA,NA,NA,NA,NA,NA,NA,NA,NA,NA,NA,NA,NA,NA,NA,-23.33333333,1.489,0,1,1,1,1,NA,NA,NA,NA,NA,NA,NA,NA,NA,NA,NA,NA,NA,NA,NA,NA
SUPAMT44713,3MTMREQS41H3SATM36MSM0DX4TFAW7,316E709A-7006-4C78-B4DB-9197E22AC5B1,2023-09-29_12h39.13.547,WP_VExplicitOC_HL,2022.2.5,Win32,60.0240096,NA,NA,NA,NA,NA,NA,NA,NA,NA,NA,NA,NA,NA,NA,NA,NA,NA,NA,stretch,003.png,NA,NA,NA,NA,NA,NA,NA,NA,NA,NA,NA,NA,NA,NA,NA,NA,-48.88888889,1.456,0,2,2,2,1,NA,NA,NA,NA,NA,NA,NA,NA,NA,NA,NA,NA,NA,NA,NA,NA
SUPAMT44713,3MTMREQS41H3SATM36MSM0DX4TFAW7,316E709A-7006-4C78-B4DB-9197E22AC5B1,2023-09-29_12h39.13.547,WP_VExplicitOC_HL,2022.2.5,Win32,60.0240096,NA,NA,NA,NA,NA,NA,NA,NA,NA,NA,NA,NA,NA,NA,NA,NA,NA,NA,make a drink,004.png,NA,NA,NA,NA,NA,NA,NA,NA,NA,NA,NA,NA,NA,NA,NA,NA,50.37037037,1.387,0,3,3,3,1,NA,NA,NA,NA,NA,NA,NA,NA,NA,NA,NA,NA,NA,NA,NA,NA
SUPAMT44713,3MTMREQS41H3SATM36MSM0DX4TFAW7,316E709A-7006-4C78-B4DB-9197E22AC5B1,2023-09-29_12h39.13.547,WP_VExplicitOC_HL,2022.2.5,Win32,60.0240096,NA,NA,NA,NA,NA,NA,NA,NA,NA,NA,NA,NA,NA,NA,NA,NA,NA,NA,scroll social media,005.png,NA,NA,NA,NA,NA,NA,NA,NA,NA,NA,NA,NA,NA,NA,NA,NA,42.40740741,2.187,0,4,4,4,1,NA,NA,NA,NA,NA,NA,NA,NA,NA,NA,NA,NA,NA,NA,NA,NA
SUPAMT44713,3MTMREQS41H3SATM36MSM0DX4TFAW7,316E709A-7006-4C78-B4DB-9197E22AC5B1,2023-09-29_12h39.13.547,WP_VExplicitOC_HL,2022.2.5,Win32,60.0240096,NA,NA,NA,NA,NA,NA,NA,NA,NA,NA,NA,NA,NA,NA,NA,NA,NA,NA,listen to music,006.png,NA,NA,NA,NA,NA,NA,NA,NA,NA,NA,NA,NA,NA,NA,NA,NA,66.11111111,1.223,0,5,5,5,1,NA,NA,NA,NA,NA,NA,NA,NA,NA,NA,NA,NA,NA,NA,NA,NA
SUPAMT44713,3MTMREQS41H3SATM36MSM0DX4TFAW7,316E709A-7006-4C78-B4DB-9197E22AC5B1,2023-09-29_12h39.13.547,WP_VExplicitOC_HL,2022.2.5,Win32,60.0240096,NA,NA,NA,NA,NA,NA,NA,NA,NA,NA,NA,NA,NA,NA,NA,NA,NA,NA,daydream,007.png,NA,NA,NA,NA,NA,NA,NA,NA,NA,NA,NA,NA,NA,NA,NA,NA,-37.40740741,1.221,0,6,6,6,1,NA,NA,NA,NA,NA,NA,NA,NA,NA,NA,NA,NA,NA,NA,NA,NA
SUPAMT44713,3MTMREQS41H3SATM36MSM0DX4TFAW7,316E709A-7006-4C78-B4DB-9197E22AC5B1,2023-09-29_12h39.13.547,WP_VExplicitOC_HL,2022.2.5,Win32,60.0240096,NA,NA,NA,NA,NA,NA,NA,NA,NA,NA,NA,NA,NA,NA,NA,NA,NA,NA,watch a short animation,008.png,NA,NA,NA,NA,NA,NA,NA,NA,NA,NA,NA,NA,NA,NA,NA,NA,26.48148148,1.778,0,7,7,7,1,NA,NA,NA,NA,NA,NA,NA,NA,NA,NA,NA,NA,NA,NA,NA,NA
SUPAMT44713,3MTMREQS41H3SATM36MSM0DX4TFAW7,316E709A-7006-4C78-B4DB-9197E22AC5B1,2023-09-29_12h39.13.547,WP_VExplicitOC_HL,2022.2.5,Win32,60.0240096,NA,NA,NA,NA,NA,NA,NA,NA,NA,NA,NA,NA,NA,NA,NA,NA,NA,NA,read a novel,009.png,NA,NA,NA,NA,NA,NA,NA,NA,NA,NA,NA,NA,NA,NA,NA,NA,-67.96296296,2.145,0,8,8,8,1,NA,NA,NA,NA,NA,NA,NA,NA,NA,NA,NA,NA,NA,NA,NA,NA
SUPAMT44713,3MTMREQS41H3SATM36MSM0DX4TFAW7,316E709A-7006-4C78-B4DB-9197E22AC5B1,2023-09-29_12h39.13.547,WP_VExplicitOC_HL,2022.2.5,Win32,60.0240096,NA,NA,NA,NA,NA,NA,NA,NA,NA,NA,NA,NA,NA,NA,NA,NA,NA,NA,read the news,010.png,NA,NA,NA,NA,NA,NA,NA,NA,NA,NA,NA,NA,NA,NA,NA,NA,28.7037037,1.257,0,9,9,9,1,NA,NA,NA,NA,NA,NA,NA,NA,NA,NA,NA,NA,NA,NA,NA,NA
SUPAMT44713,3MTMREQS41H3SATM36MSM0DX4TFAW7,316E709A-7006-4C78-B4DB-9197E22AC5B1,2023-09-29_12h39.13.547,WP_VExplicitOC_HL,2022.2.5,Win32,60.0240096,NA,NA,NA,NA,NA,NA,NA,NA,NA,NA,NA,NA,NA,NA,NA,NA,NA,NA,NA,NA,NA,NA,NA,NA,NA,NA,NA,NA,NA,NA,NA,NA,NA,NA,NA,NA,NA,NA,NA,NA,NA,NA,NA,read a novel,NA,NA,NA,NA,NA,NA,NA,NA,NA,NA,NA,NA,NA,NA,NA
SUPAMT44713,3MTMREQS41H3SATM36MSM0DX4TFAW7,316E709A-7006-4C78-B4DB-9197E22AC5B1,2023-09-29_12h39.13.547,WP_VExplicitOC_HL,2022.2.5,Win32,60.0240096,22.22222222,3.06,2.001,NA,NA,NA,NA,NA,bored,"bored, not bored","more bored, less bored",NA,NA,NA,NA,NA,NA,NA,NA,NA,NA,NA,NA,NA,NA,NA,NA,NA,NA,NA,NA,NA,NA,NA,NA,NA,NA,NA,NA,NA,NA,NA,NA,NA,0,0,0,2,1,NA,NA,NA,NA,NA,NA,NA,NA,NA,NA
SUPAMT44713,3MTMREQS41H3SATM36MSM0DX4TFAW7,316E709A-7006-4C78-B4DB-9197E22AC5B1,2023-09-29_12h39.13.547,WP_VExplicitOC_HL,2022.2.5,Win32,60.0240096,69.25925926,2.826,2.016,NA,NA,NA,NA,NA,frustrated,"frustrated, not frustrated","more frustrated, less frustrated",NA,NA,NA,NA,NA,NA,NA,NA,NA,NA,NA,NA,NA,NA,NA,NA,NA,NA,NA,NA,NA,NA,NA,NA,NA,NA,NA,NA,NA,NA,NA,NA,NA,0,1,1,1,1,NA,NA,NA,NA,NA,NA,NA,NA,NA,NA
SUPAMT44713,3MTMREQS41H3SATM36MSM0DX4TFAW7,316E709A-7006-4C78-B4DB-9197E22AC5B1,2023-09-29_12h39.13.547,WP_VExplicitOC_HL,2022.2.5,Win32,60.0240096,32.40740741,2.757,2.015,NA,NA,NA,NA,NA,happy,"unhappy, happy","less happy, more happy",NA,NA,NA,NA,NA,NA,NA,NA,NA,NA,NA,NA,NA,NA,NA,NA,NA,NA,NA,NA,NA,NA,NA,NA,NA,NA,NA,NA,NA,NA,NA,NA,NA,0,2,2,0,1,NA,NA,NA,NA,NA,NA,NA,NA,NA,NA
SUPAMT44713,3MTMREQS41H3SATM36MSM0DX4TFAW7,316E709A-7006-4C78-B4DB-9197E22AC5B1,2023-09-29_12h39.13.547,WP_VExplicitOC_HL,2022.2.5,Win32,60.0240096,NA,NA,NA,NA,NA,NA,NA,NA,NA,NA,NA,NA,NA,NA,NA,NA,NA,NA,NA,NA,NA,NA,NA,NA,NA,NA,NA,NA,NA,NA,NA,NA,NA,NA,NA,NA,NA,NA,NA,NA,NA,NA,NA,NA,NA,NA,NA,NA,NA,NA,NA,NA,NA,NA,NA,NA,NA,NA,NA
SUPAMT44713,3MTMREQS41H3SATM36MSM0DX4TFAW7,316E709A-7006-4C78-B4DB-9197E22AC5B1,2023-09-29_12h39.13.547,WP_VExplicitOC_HL,2022.2.5,Win32,60.0240096,NA,NA,NA,NA,NA,NA,NA,NA,NA,NA,NA,NA,NA,NA,NA,NA,NA,NA,NA,NA,NA,NA,NA,NA,NA,NA,NA,NA,NA,NA,NA,NA,NA,NA,NA,NA,NA,NA,NA,NA,NA,NA,NA,NA,NA,NA,NA,NA,NA,NA,NA,NA,NA,NA,NA,NA,NA,NA,NA
SUPAMT44713,3MTMREQS41H3SATM36MSM0DX4TFAW7,316E709A-7006-4C78-B4DB-9197E22AC5B1,2023-09-29_12h39.13.547,WP_VExplicitOC_HL,2022.2.5,Win32,60.0240096,100,2.92,2.015,NA,NA,NA,NA,NA,frustrated,"frustrated, not frustrated","more frustrated, less frustrated",NA,NA,NA,NA,NA,NA,NA,NA,NA,NA,NA,NA,NA,NA,NA,NA,NA,NA,NA,NA,NA,NA,NA,NA,NA,NA,NA,NA,NA,NA,NA,NA,NA,NA,NA,NA,NA,NA,0,0,0,1,1,NA,NA,NA,NA,NA
SUPAMT44713,3MTMREQS41H3SATM36MSM0DX4TFAW7,316E709A-7006-4C78-B4DB-9197E22AC5B1,2023-09-29_12h39.13.547,WP_VExplicitOC_HL,2022.2.5,Win32,60.0240096,53.51851852,2.837,2.016,NA,NA,NA,NA,NA,bored,"bored, not bored","more bored, less bored",NA,NA,NA,NA,NA,NA,NA,NA,NA,NA,NA,NA,NA,NA,NA,NA,NA,NA,NA,NA,NA,NA,NA,NA,NA,NA,NA,NA,NA,NA,NA,NA,NA,NA,NA,NA,NA,NA,0,1,1,2,1,NA,NA,NA,NA,NA
SUPAMT44713,3MTMREQS41H3SATM36MSM0DX4TFAW7,316E709A-7006-4C78-B4DB-9197E22AC5B1,2023-09-29_12h39.13.547,WP_VExplicitOC_HL,2022.2.5,Win32,60.0240096,52.40740741,3.14,2.015,NA,NA,NA,NA,NA,happy,"unhappy, happy","less happy, more happy",NA,NA,NA,NA,NA,NA,NA,NA,NA,NA,NA,NA,NA,NA,NA,NA,NA,NA,NA,NA,NA,NA,NA,NA,NA,NA,NA,NA,NA,NA,NA,NA,NA,NA,NA,NA,NA,NA,0,2,2,0,1,NA,NA,NA,NA,NA
SUPAMT44713,3MTMREQS41H3SATM36MSM0DX4TFAW7,316E709A-7006-4C78-B4DB-9197E22AC5B1,2023-09-29_12h39.13.547,WP_VExplicitOC_HL,2022.2.5,Win32,60.0240096,NA,NA,NA,NA,NA,NA,NA,NA,NA,NA,NA,NA,NA,NA,NA,NA,NA,NA,NA,NA,NA,NA,NA,NA,NA,NA,NA,NA,NA,NA,NA,NA,NA,NA,NA,NA,NA,NA,NA,NA,NA,NA,NA,NA,NA,NA,NA,NA,NA,NA,NA,NA,NA,NA,0,0,0,0,1
SUPAMT44713,3MTMREQS41H3SATM36MSM0DX4TFAW7,316E709A-7006-4C78-B4DB-9197E22AC5B1,2023-09-29_12h39.13.547,WP_VExplicitOC_HL,2022.2.5,Win32,60.0240096,100,4.565,2.016,NA,NA,NA,NA,NA,frustrated,"frustrated, not frustrated","more frustrated, less frustrated",NA,NA,NA,NA,NA,NA,NA,NA,NA,NA,NA,NA,NA,NA,NA,NA,NA,NA,NA,NA,NA,NA,NA,NA,NA,NA,NA,NA,NA,NA,NA,NA,NA,NA,NA,NA,NA,NA,0,0,0,1,1,NA,NA,NA,NA,NA
SUPAMT44713,3MTMREQS41H3SATM36MSM0DX4TFAW7,316E709A-7006-4C78-B4DB-9197E22AC5B1,2023-09-29_12h39.13.547,WP_VExplicitOC_HL,2022.2.5,Win32,60.0240096,58.14814815,2.953,2.016,NA,NA,NA,NA,NA,bored,"bored, not bored","more bored, less bored",NA,NA,NA,NA,NA,NA,NA,NA,NA,NA,NA,NA,NA,NA,NA,NA,NA,NA,NA,NA,NA,NA,NA,NA,NA,NA,NA,NA,NA,NA,NA,NA,NA,NA,NA,NA,NA,NA,0,1,1,2,1,NA,NA,NA,NA,NA
SUPAMT44713,3MTMREQS41H3SATM36MSM0DX4TFAW7,316E709A-7006-4C78-B4DB-9197E22AC5B1,2023-09-29_12h39.13.547,WP_VExplicitOC_HL,2022.2.5,Win32,60.0240096,77.77777778,3.169,2.016,NA,NA,NA,NA,NA,happy,"unhappy, happy","less happy, more happy",NA,NA,NA,NA,NA,NA,NA,NA,NA,NA,NA,NA,NA,NA,NA,NA,NA,NA,NA,NA,NA,NA,NA,NA,NA,NA,NA,NA,NA,NA,NA,NA,NA,NA,NA,NA,NA,NA,0,2,2,0,1,NA,NA,NA,NA,NA
SUPAMT44713,3MTMREQS41H3SATM36MSM0DX4TFAW7,316E709A-7006-4C78-B4DB-9197E22AC5B1,2023-09-29_12h39.13.547,WP_VExplicitOC_HL,2022.2.5,Win32,60.0240096,NA,NA,NA,NA,NA,NA,NA,NA,NA,NA,NA,NA,NA,NA,NA,NA,NA,NA,NA,NA,NA,NA,NA,NA,NA,NA,NA,NA,NA,NA,NA,NA,NA,NA,NA,NA,NA,NA,NA,NA,NA,NA,NA,NA,NA,NA,NA,NA,NA,NA,NA,NA,NA,NA,1,0,1,0,1
SUPAMT44713,3MTMREQS41H3SATM36MSM0DX4TFAW7,316E709A-7006-4C78-B4DB-9197E22AC5B1,2023-09-29_12h39.13.547,WP_VExplicitOC_HL,2022.2.5,Win32,60.0240096,96.48148148,2.867,2.016,NA,NA,NA,NA,NA,frustrated,"frustrated, not frustrated","more frustrated, less frustrated",NA,NA,NA,NA,NA,NA,NA,NA,NA,NA,NA,NA,NA,NA,NA,NA,NA,NA,NA,NA,NA,NA,NA,NA,NA,NA,NA,NA,NA,NA,NA,NA,NA,NA,NA,NA,NA,NA,0,0,0,1,1,NA,NA,NA,NA,NA
SUPAMT44713,3MTMREQS41H3SATM36MSM0DX4TFAW7,316E709A-7006-4C78-B4DB-9197E22AC5B1,2023-09-29_12h39.13.547,WP_VExplicitOC_HL,2022.2.5,Win32,60.0240096,52.59259259,2.717,2.015,NA,NA,NA,NA,NA,happy,"unhappy, happy","less happy, more happy",NA,NA,NA,NA,NA,NA,NA,NA,NA,NA,NA,NA,NA,NA,NA,NA,NA,NA,NA,NA,NA,NA,NA,NA,NA,NA,NA,NA,NA,NA,NA,NA,NA,NA,NA,NA,NA,NA,0,1,1,0,1,NA,NA,NA,NA,NA
SUPAMT44713,3MTMREQS41H3SATM36MSM0DX4TFAW7,316E709A-7006-4C78-B4DB-9197E22AC5B1,2023-09-29_12h39.13.547,WP_VExplicitOC_HL,2022.2.5,Win32,60.0240096,37.03703704,2.609,2,NA,NA,NA,NA,NA,bored,"bored, not bored","more bored, less bored",NA,NA,NA,NA,NA,NA,NA,NA,NA,NA,NA,NA,NA,NA,NA,NA,NA,NA,NA,NA,NA,NA,NA,NA,NA,NA,NA,NA,NA,NA,NA,NA,NA,NA,NA,NA,NA,NA,0,2,2,2,1,NA,NA,NA,NA,NA
SUPAMT44713,3MTMREQS41H3SATM36MSM0DX4TFAW7,316E709A-7006-4C78-B4DB-9197E22AC5B1,2023-09-29_12h39.13.547,WP_VExplicitOC_HL,2022.2.5,Win32,60.0240096,NA,NA,NA,NA,NA,NA,NA,NA,NA,NA,NA,NA,NA,NA,NA,NA,NA,NA,NA,NA,NA,NA,NA,NA,NA,NA,NA,NA,NA,NA,NA,NA,NA,NA,NA,NA,NA,NA,NA,NA,NA,NA,NA,NA,NA,NA,NA,NA,NA,NA,NA,NA,NA,NA,2,0,2,0,1
SUPAMT44713,3MTMREQS41H3SATM36MSM0DX4TFAW7,316E709A-7006-4C78-B4DB-9197E22AC5B1,2023-09-29_12h39.13.547,WP_VExplicitOC_HL,2022.2.5,Win32,60.0240096,100,2.952,2.001,NA,NA,NA,NA,NA,frustrated,"frustrated, not frustrated","more frustrated, less frustrated",NA,NA,NA,NA,NA,NA,NA,NA,NA,NA,NA,NA,NA,NA,NA,NA,NA,NA,NA,NA,NA,NA,NA,NA,NA,NA,NA,NA,NA,NA,NA,NA,NA,NA,NA,NA,NA,NA,0,0,0,1,1,NA,NA,NA,NA,NA
SUPAMT44713,3MTMREQS41H3SATM36MSM0DX4TFAW7,316E709A-7006-4C78-B4DB-9197E22AC5B1,2023-09-29_12h39.13.547,WP_VExplicitOC_HL,2022.2.5,Win32,60.0240096,67.77777778,2.876,2.014,NA,NA,NA,NA,NA,happy,"unhappy, happy","less happy, more happy",NA,NA,NA,NA,NA,NA,NA,NA,NA,NA,NA,NA,NA,NA,NA,NA,NA,NA,NA,NA,NA,NA,NA,NA,NA,NA,NA,NA,NA,NA,NA,NA,NA,NA,NA,NA,NA,NA,0,1,1,0,1,NA,NA,NA,NA,NA
SUPAMT44713,3MTMREQS41H3SATM36MSM0DX4TFAW7,316E709A-7006-4C78-B4DB-9197E22AC5B1,2023-09-29_12h39.13.547,WP_VExplicitOC_HL,2022.2.5,Win32,60.0240096,72.96296296,2.623,2,NA,NA,NA,NA,NA,bored,"bored, not bored","more bored, less bored",NA,NA,NA,NA,NA,NA,NA,NA,NA,NA,NA,NA,NA,NA,NA,NA,NA,NA,NA,NA,NA,NA,NA,NA,NA,NA,NA,NA,NA,NA,NA,NA,NA,NA,NA,NA,NA,NA,0,2,2,2,1,NA,NA,NA,NA,NA
SUPAMT44713,3MTMREQS41H3SATM36MSM0DX4TFAW7,316E709A-7006-4C78-B4DB-9197E22AC5B1,2023-09-29_12h39.13.547,WP_VExplicitOC_HL,2022.2.5,Win32,60.0240096,NA,NA,NA,NA,NA,NA,NA,NA,NA,NA,NA,NA,NA,NA,NA,NA,NA,NA,NA,NA,NA,NA,NA,NA,NA,NA,NA,NA,NA,NA,NA,NA,NA,NA,NA,NA,NA,NA,NA,NA,NA,NA,NA,NA,NA,NA,NA,NA,NA,NA,NA,NA,NA,NA,3,0,3,0,1
SUPAMT44713,3MTMREQS41H3SATM36MSM0DX4TFAW7,316E709A-7006-4C78-B4DB-9197E22AC5B1,2023-09-29_12h39.13.547,WP_VExplicitOC_HL,2022.2.5,Win32,60.0240096,41.48148148,4.617,2.004,NA,NA,NA,NA,NA,bored,"bored, not bored","more bored, less bored",NA,NA,NA,NA,NA,NA,NA,NA,NA,NA,NA,NA,NA,NA,NA,NA,NA,NA,NA,NA,NA,NA,NA,NA,NA,NA,NA,NA,NA,NA,NA,NA,NA,NA,NA,NA,NA,NA,0,0,0,2,1,NA,NA,NA,NA,NA
SUPAMT44713,3MTMREQS41H3SATM36MSM0DX4TFAW7,316E709A-7006-4C78-B4DB-9197E22AC5B1,2023-09-29_12h39.13.547,WP_VExplicitOC_HL,2022.2.5,Win32,60.0240096,75.74074074,5.155,2.013,NA,NA,NA,NA,NA,happy,"unhappy, happy","less happy, more happy",NA,NA,NA,NA,NA,NA,NA,NA,NA,NA,NA,NA,NA,NA,NA,NA,NA,NA,NA,NA,NA,NA,NA,NA,NA,NA,NA,NA,NA,NA,NA,NA,NA,NA,NA,NA,NA,NA,0,1,1,0,1,NA,NA,NA,NA,NA
SUPAMT44713,3MTMREQS41H3SATM36MSM0DX4TFAW7,316E709A-7006-4C78-B4DB-9197E22AC5B1,2023-09-29_12h39.13.547,WP_VExplicitOC_HL,2022.2.5,Win32,60.0240096,100,3.495,2.016,NA,NA,NA,NA,NA,frustrated,"frustrated, not frustrated","more frustrated, less frustrated",NA,NA,NA,NA,NA,NA,NA,NA,NA,NA,NA,NA,NA,NA,NA,NA,NA,NA,NA,NA,NA,NA,NA,NA,NA,NA,NA,NA,NA,NA,NA,NA,NA,NA,NA,NA,NA,NA,0,2,2,1,1,NA,NA,NA,NA,NA
SUPAMT44713,3MTMREQS41H3SATM36MSM0DX4TFAW7,316E709A-7006-4C78-B4DB-9197E22AC5B1,2023-09-29_12h39.13.547,WP_VExplicitOC_HL,2022.2.5,Win32,60.0240096,NA,NA,NA,NA,NA,NA,NA,NA,NA,NA,NA,NA,NA,NA,NA,NA,NA,NA,NA,NA,NA,NA,NA,NA,NA,NA,NA,NA,NA,NA,NA,NA,NA,NA,NA,NA,NA,NA,NA,NA,NA,NA,NA,NA,NA,NA,NA,NA,NA,NA,NA,NA,NA,NA,4,0,4,0,1
SUPAMT44713,3MTMREQS41H3SATM36MSM0DX4TFAW7,316E709A-7006-4C78-B4DB-9197E22AC5B1,2023-09-29_12h39.13.547,WP_VExplicitOC_HL,2022.2.5,Win32,60.0240096,51.48148148,2.834,2.015,NA,NA,NA,NA,NA,happy,"unhappy, happy","less happy, more happy",NA,NA,NA,NA,NA,NA,NA,NA,NA,NA,NA,NA,NA,NA,NA,NA,NA,NA,NA,NA,NA,NA,NA,NA,NA,NA,NA,NA,NA,NA,NA,NA,NA,NA,NA,NA,NA,NA,0,0,0,0,1,NA,NA,NA,NA,NA
SUPAMT44713,3MTMREQS41H3SATM36MSM0DX4TFAW7,316E709A-7006-4C78-B4DB-9197E22AC5B1,2023-09-29_12h39.13.547,WP_VExplicitOC_HL,2022.2.5,Win32,60.0240096,-0.185185185,3.396,2.016,NA,NA,NA,NA,NA,bored,"bored, not bored","more bored, less bored",NA,NA,NA,NA,NA,NA,NA,NA,NA,NA,NA,NA,NA,NA,NA,NA,NA,NA,NA,NA,NA,NA,NA,NA,NA,NA,NA,NA,NA,NA,NA,NA,NA,NA,NA,NA,NA,NA,0,1,1,2,1,NA,NA,NA,NA,NA
SUPAMT44713,3MTMREQS41H3SATM36MSM0DX4TFAW7,316E709A-7006-4C78-B4DB-9197E22AC5B1,2023-09-29_12h39.13.547,WP_VExplicitOC_HL,2022.2.5,Win32,60.0240096,88.51851852,3.471,2.015,NA,NA,NA,NA,NA,frustrated,"frustrated, not frustrated","more frustrated, less frustrated",NA,NA,NA,NA,NA,NA,NA,NA,NA,NA,NA,NA,NA,NA,NA,NA,NA,NA,NA,NA,NA,NA,NA,NA,NA,NA,NA,NA,NA,NA,NA,NA,NA,NA,NA,NA,NA,NA,0,2,2,1,1,NA,NA,NA,NA,NA
SUPAMT44713,3MTMREQS41H3SATM36MSM0DX4TFAW7,316E709A-7006-4C78-B4DB-9197E22AC5B1,2023-09-29_12h39.13.547,WP_VExplicitOC_HL,2022.2.5,Win32,60.0240096,NA,NA,NA,NA,NA,NA,NA,NA,NA,NA,NA,NA,NA,NA,NA,NA,NA,NA,NA,NA,NA,NA,NA,NA,NA,NA,NA,NA,NA,NA,NA,NA,NA,NA,NA,NA,NA,NA,NA,NA,NA,NA,NA,NA,NA,NA,NA,NA,NA,NA,NA,NA,NA,NA,5,0,5,0,1
SUPAMT44713,3MTMREQS41H3SATM36MSM0DX4TFAW7,316E709A-7006-4C78-B4DB-9197E22AC5B1,2023-09-29_12h39.13.547,WP_VExplicitOC_HL,2022.2.5,Win32,60.0240096,79.44444444,3.276,2.003,NA,NA,NA,NA,NA,frustrated,"frustrated, not frustrated","more frustrated, less frustrated",NA,NA,NA,NA,NA,NA,NA,NA,NA,NA,NA,NA,NA,NA,NA,NA,NA,NA,NA,NA,NA,NA,NA,NA,NA,NA,NA,NA,NA,NA,NA,NA,NA,NA,NA,NA,NA,NA,0,0,0,1,1,NA,NA,NA,NA,NA
SUPAMT44713,3MTMREQS41H3SATM36MSM0DX4TFAW7,316E709A-7006-4C78-B4DB-9197E22AC5B1,2023-09-29_12h39.13.547,WP_VExplicitOC_HL,2022.2.5,Win32,60.0240096,40.37037037,2.503,2.015,NA,NA,NA,NA,NA,happy,"unhappy, happy","less happy, more happy",NA,NA,NA,NA,NA,NA,NA,NA,NA,NA,NA,NA,NA,NA,NA,NA,NA,NA,NA,NA,NA,NA,NA,NA,NA,NA,NA,NA,NA,NA,NA,NA,NA,NA,NA,NA,NA,NA,0,1,1,0,1,NA,NA,NA,NA,NA
SUPAMT44713,3MTMREQS41H3SATM36MSM0DX4TFAW7,316E709A-7006-4C78-B4DB-9197E22AC5B1,2023-09-29_12h39.13.547,WP_VExplicitOC_HL,2022.2.5,Win32,60.0240096,6.666666667,2.672,2.015,NA,NA,NA,NA,NA,bored,"bored, not bored","more bored, less bored",NA,NA,NA,NA,NA,NA,NA,NA,NA,NA,NA,NA,NA,NA,NA,NA,NA,NA,NA,NA,NA,NA,NA,NA,NA,NA,NA,NA,NA,NA,NA,NA,NA,NA,NA,NA,NA,NA,0,2,2,2,1,NA,NA,NA,NA,NA
SUPAMT44713,3MTMREQS41H3SATM36MSM0DX4TFAW7,316E709A-7006-4C78-B4DB-9197E22AC5B1,2023-09-29_12h39.13.547,WP_VExplicitOC_HL,2022.2.5,Win32,60.0240096,NA,NA,NA,NA,NA,NA,NA,NA,NA,NA,NA,NA,NA,NA,NA,NA,NA,NA,NA,NA,NA,NA,NA,NA,NA,NA,NA,NA,NA,NA,NA,NA,NA,NA,NA,NA,NA,NA,NA,NA,NA,NA,NA,NA,NA,NA,NA,NA,NA,NA,NA,NA,NA,NA,6,0,6,0,1
SUPAMT44713,3MTMREQS41H3SATM36MSM0DX4TFAW7,316E709A-7006-4C78-B4DB-9197E22AC5B1,2023-09-29_12h39.13.547,WP_VExplicitOC_HL,2022.2.5,Win32,60.0240096,5.555555556,3.12,2.016,NA,NA,NA,NA,NA,bored,"bored, not bored","more bored, less bored",NA,NA,NA,NA,NA,NA,NA,NA,NA,NA,NA,NA,NA,NA,NA,NA,NA,NA,NA,NA,NA,NA,NA,NA,NA,NA,NA,NA,NA,NA,NA,NA,NA,NA,NA,NA,NA,NA,0,0,0,2,1,NA,NA,NA,NA,NA
SUPAMT44713,3MTMREQS41H3SATM36MSM0DX4TFAW7,316E709A-7006-4C78-B4DB-9197E22AC5B1,2023-09-29_12h39.13.547,WP_VExplicitOC_HL,2022.2.5,Win32,60.0240096,50.74074074,2.437,2.015,NA,NA,NA,NA,NA,happy,"unhappy, happy","less happy, more happy",NA,NA,NA,NA,NA,NA,NA,NA,NA,NA,NA,NA,NA,NA,NA,NA,NA,NA,NA,NA,NA,NA,NA,NA,NA,NA,NA,NA,NA,NA,NA,NA,NA,NA,NA,NA,NA,NA,0,1,1,0,1,NA,NA,NA,NA,NA
SUPAMT44713,3MTMREQS41H3SATM36MSM0DX4TFAW7,316E709A-7006-4C78-B4DB-9197E22AC5B1,2023-09-29_12h39.13.547,WP_VExplicitOC_HL,2022.2.5,Win32,60.0240096,96.48148148,2.491,2.015,NA,NA,NA,NA,NA,frustrated,"frustrated, not frustrated","more frustrated, less frustrated",NA,NA,NA,NA,NA,NA,NA,NA,NA,NA,NA,NA,NA,NA,NA,NA,NA,NA,NA,NA,NA,NA,NA,NA,NA,NA,NA,NA,NA,NA,NA,NA,NA,NA,NA,NA,NA,NA,0,2,2,1,1,NA,NA,NA,NA,NA
SUPAMT44713,3MTMREQS41H3SATM36MSM0DX4TFAW7,316E709A-7006-4C78-B4DB-9197E22AC5B1,2023-09-29_12h39.13.547,WP_VExplicitOC_HL,2022.2.5,Win32,60.0240096,NA,NA,NA,NA,NA,NA,NA,NA,NA,NA,NA,NA,NA,NA,NA,NA,NA,NA,NA,NA,NA,NA,NA,NA,NA,NA,NA,NA,NA,NA,NA,NA,NA,NA,NA,NA,NA,NA,NA,NA,NA,NA,NA,NA,NA,NA,NA,NA,NA,NA,NA,NA,NA,NA,7,0,7,0,1
SUPAMT44713,3MTMREQS41H3SATM36MSM0DX4TFAW7,316E709A-7006-4C78-B4DB-9197E22AC5B1,2023-09-29_12h39.13.547,WP_VExplicitOC_HL,2022.2.5,Win32,60.0240096,82.03703704,2.585,2.002,NA,NA,NA,NA,NA,frustrated,"frustrated, not frustrated","more frustrated, less frustrated",NA,NA,NA,NA,NA,NA,NA,NA,NA,NA,NA,NA,NA,NA,NA,NA,NA,NA,NA,NA,NA,NA,NA,NA,NA,NA,NA,NA,NA,NA,NA,NA,NA,NA,NA,NA,NA,NA,0,0,0,1,1,NA,NA,NA,NA,NA
SUPAMT44713,3MTMREQS41H3SATM36MSM0DX4TFAW7,316E709A-7006-4C78-B4DB-9197E22AC5B1,2023-09-29_12h39.13.547,WP_VExplicitOC_HL,2022.2.5,Win32,60.0240096,56.48148148,2.509,2.016,NA,NA,NA,NA,NA,bored,"bored, not bored","more bored, less bored",NA,NA,NA,NA,NA,NA,NA,NA,NA,NA,NA,NA,NA,NA,NA,NA,NA,NA,NA,NA,NA,NA,NA,NA,NA,NA,NA,NA,NA,NA,NA,NA,NA,NA,NA,NA,NA,NA,0,1,1,2,1,NA,NA,NA,NA,NA
SUPAMT44713,3MTMREQS41H3SATM36MSM0DX4TFAW7,316E709A-7006-4C78-B4DB-9197E22AC5B1,2023-09-29_12h39.13.547,WP_VExplicitOC_HL,2022.2.5,Win32,60.0240096,66.85185185,2.424,2,NA,NA,NA,NA,NA,happy,"unhappy, happy","less happy, more happy",NA,NA,NA,NA,NA,NA,NA,NA,NA,NA,NA,NA,NA,NA,NA,NA,NA,NA,NA,NA,NA,NA,NA,NA,NA,NA,NA,NA,NA,NA,NA,NA,NA,NA,NA,NA,NA,NA,0,2,2,0,1,NA,NA,NA,NA,NA
SUPAMT44713,3MTMREQS41H3SATM36MSM0DX4TFAW7,316E709A-7006-4C78-B4DB-9197E22AC5B1,2023-09-29_12h39.13.547,WP_VExplicitOC_HL,2022.2.5,Win32,60.0240096,NA,NA,NA,NA,NA,NA,NA,NA,NA,NA,NA,NA,NA,NA,NA,NA,NA,NA,NA,NA,NA,NA,NA,NA,NA,NA,NA,NA,NA,NA,NA,NA,NA,NA,NA,NA,NA,NA,NA,NA,NA,NA,NA,NA,NA,NA,NA,NA,NA,NA,NA,NA,NA,NA,8,0,8,0,1
SUPAMT44713,3MTMREQS41H3SATM36MSM0DX4TFAW7,316E709A-7006-4C78-B4DB-9197E22AC5B1,2023-09-29_12h39.13.547,WP_VExplicitOC_HL,2022.2.5,Win32,60.0240096,66.85185185,2.666,2.014,NA,NA,NA,NA,NA,frustrated,"frustrated, not frustrated","more frustrated, less frustrated",NA,NA,NA,NA,NA,NA,NA,NA,NA,NA,NA,NA,NA,NA,NA,NA,NA,NA,NA,NA,NA,NA,NA,NA,NA,NA,NA,NA,NA,NA,NA,NA,NA,NA,NA,NA,NA,NA,0,0,0,1,1,NA,NA,NA,NA,NA
SUPAMT44713,3MTMREQS41H3SATM36MSM0DX4TFAW7,316E709A-7006-4C78-B4DB-9197E22AC5B1,2023-09-29_12h39.13.547,WP_VExplicitOC_HL,2022.2.5,Win32,60.0240096,58.14814815,2.63,2.016,NA,NA,NA,NA,NA,happy,"unhappy, happy","less happy, more happy",NA,NA,NA,NA,NA,NA,NA,NA,NA,NA,NA,NA,NA,NA,NA,NA,NA,NA,NA,NA,NA,NA,NA,NA,NA,NA,NA,NA,NA,NA,NA,NA,NA,NA,NA,NA,NA,NA,0,1,1,0,1,NA,NA,NA,NA,NA
SUPAMT44713,3MTMREQS41H3SATM36MSM0DX4TFAW7,316E709A-7006-4C78-B4DB-9197E22AC5B1,2023-09-29_12h39.13.547,WP_VExplicitOC_HL,2022.2.5,Win32,60.0240096,-12.96296296,2.646,2,NA,NA,NA,NA,NA,bored,"bored, not bored","more bored, less bored",NA,NA,NA,NA,NA,NA,NA,NA,NA,NA,NA,NA,NA,NA,NA,NA,NA,NA,NA,NA,NA,NA,NA,NA,NA,NA,NA,NA,NA,NA,NA,NA,NA,NA,NA,NA,NA,NA,0,2,2,2,1,NA,NA,NA,NA,NA
SUPAMT44713,3MTMREQS41H3SATM36MSM0DX4TFAW7,316E709A-7006-4C78-B4DB-9197E22AC5B1,2023-09-29_12h39.13.547,WP_VExplicitOC_HL,2022.2.5,Win32,60.0240096,NA,NA,NA,NA,NA,NA,NA,NA,NA,NA,NA,NA,NA,NA,NA,NA,NA,NA,NA,NA,NA,NA,NA,NA,NA,NA,NA,NA,NA,NA,NA,NA,NA,NA,NA,NA,NA,NA,NA,NA,NA,NA,NA,NA,NA,NA,NA,NA,NA,NA,NA,NA,NA,NA,9,0,9,0,1
SUPAMT44713,3MTMREQS41H3SATM36MSM0DX4TFAW7,316E709A-7006-4C78-B4DB-9197E22AC5B1,2023-09-29_12h39.13.547,WP_VExplicitOC_HL,2022.2.5,Win32,60.0240096,71.66666667,2.909,2.002,NA,NA,NA,NA,NA,frustrated,"frustrated, not frustrated","more frustrated, less frustrated",NA,NA,NA,NA,NA,NA,NA,NA,NA,NA,NA,NA,NA,NA,NA,NA,NA,NA,NA,NA,NA,NA,NA,NA,NA,NA,NA,NA,NA,NA,NA,NA,NA,NA,NA,NA,NA,NA,0,0,0,1,1,NA,NA,NA,NA,NA
SUPAMT44713,3MTMREQS41H3SATM36MSM0DX4TFAW7,316E709A-7006-4C78-B4DB-9197E22AC5B1,2023-09-29_12h39.13.547,WP_VExplicitOC_HL,2022.2.5,Win32,60.0240096,-17.40740741,2.672,2.016,NA,NA,NA,NA,NA,bored,"bored, not bored","more bored, less bored",NA,NA,NA,NA,NA,NA,NA,NA,NA,NA,NA,NA,NA,NA,NA,NA,NA,NA,NA,NA,NA,NA,NA,NA,NA,NA,NA,NA,NA,NA,NA,NA,NA,NA,NA,NA,NA,NA,0,1,1,2,1,NA,NA,NA,NA,NA
SUPAMT44713,3MTMREQS41H3SATM36MSM0DX4TFAW7,316E709A-7006-4C78-B4DB-9197E22AC5B1,2023-09-29_12h39.13.547,WP_VExplicitOC_HL,2022.2.5,Win32,60.0240096,43.14814815,2.577,2.016,NA,NA,NA,NA,NA,happy,"unhappy, happy","less happy, more happy",NA,NA,NA,NA,NA,NA,NA,NA,NA,NA,NA,NA,NA,NA,NA,NA,NA,NA,NA,NA,NA,NA,NA,NA,NA,NA,NA,NA,NA,NA,NA,NA,NA,NA,NA,NA,NA,NA,0,2,2,0,1,NA,NA,NA,NA,NA
SUPAMT44713,3MTMREQS41H3SATM36MSM0DX4TFAW7,316E709A-7006-4C78-B4DB-9197E22AC5B1,2023-09-29_12h39.13.547,WP_VExplicitOC_HL,2022.2.5,Win32,60.0240096,NA,NA,NA,NA,NA,NA,NA,NA,NA,NA,NA,NA,NA,NA,NA,NA,NA,NA,NA,NA,NA,NA,NA,NA,NA,NA,NA,NA,NA,NA,NA,NA,NA,NA,NA,NA,NA,NA,NA,NA,NA,NA,NA,NA,NA,NA,NA,NA,NA,NA,NA,NA,NA,NA,10,0,10,0,1
SUPAMT44713,3MTMREQS41H3SATM36MSM0DX4TFAW7,316E709A-7006-4C78-B4DB-9197E22AC5B1,2023-09-29_12h39.13.547,WP_VExplicitOC_HL,2022.2.5,Win32,60.0240096,64.25925926,2.487,2.001,NA,NA,NA,NA,NA,happy,"unhappy, happy","less happy, more happy",NA,NA,NA,NA,NA,NA,NA,NA,NA,NA,NA,NA,NA,NA,NA,NA,NA,NA,NA,NA,NA,NA,NA,NA,NA,NA,NA,NA,NA,NA,NA,NA,NA,NA,NA,NA,NA,NA,0,0,0,0,1,NA,NA,NA,NA,NA
SUPAMT44713,3MTMREQS41H3SATM36MSM0DX4TFAW7,316E709A-7006-4C78-B4DB-9197E22AC5B1,2023-09-29_12h39.13.547,WP_VExplicitOC_HL,2022.2.5,Win32,60.0240096,-16.66666667,2.505,2.014,NA,NA,NA,NA,NA,bored,"bored, not bored","more bored, less bored",NA,NA,NA,NA,NA,NA,NA,NA,NA,NA,NA,NA,NA,NA,NA,NA,NA,NA,NA,NA,NA,NA,NA,NA,NA,NA,NA,NA,NA,NA,NA,NA,NA,NA,NA,NA,NA,NA,0,1,1,2,1,NA,NA,NA,NA,NA
SUPAMT44713,3MTMREQS41H3SATM36MSM0DX4TFAW7,316E709A-7006-4C78-B4DB-9197E22AC5B1,2023-09-29_12h39.13.547,WP_VExplicitOC_HL,2022.2.5,Win32,60.0240096,95.37037037,2.545,2.016,NA,NA,NA,NA,NA,frustrated,"frustrated, not frustrated","more frustrated, less frustrated",NA,NA,NA,NA,NA,NA,NA,NA,NA,NA,NA,NA,NA,NA,NA,NA,NA,NA,NA,NA,NA,NA,NA,NA,NA,NA,NA,NA,NA,NA,NA,NA,NA,NA,NA,NA,NA,NA,0,2,2,1,1,NA,NA,NA,NA,NA
SUPAMT44713,3MTMREQS41H3SATM36MSM0DX4TFAW7,316E709A-7006-4C78-B4DB-9197E22AC5B1,2023-09-29_12h39.13.547,WP_VExplicitOC_HL,2022.2.5,Win32,60.0240096,NA,NA,NA,NA,NA,NA,NA,NA,NA,NA,NA,NA,NA,NA,NA,NA,NA,NA,NA,NA,NA,NA,NA,NA,NA,NA,NA,NA,NA,NA,NA,NA,NA,NA,NA,NA,NA,NA,NA,NA,NA,NA,NA,NA,NA,NA,NA,NA,NA,NA,NA,NA,NA,NA,11,0,11,0,1
SUPAMT44713,3MTMREQS41H3SATM36MSM0DX4TFAW7,316E709A-7006-4C78-B4DB-9197E22AC5B1,2023-09-29_12h39.13.547,WP_VExplicitOC_HL,2022.2.5,Win32,60.0240096,-30.92592593,3.031,2.001,NA,NA,NA,NA,NA,bored,"bored, not bored","more bored, less bored",NA,NA,NA,NA,NA,NA,NA,NA,NA,NA,NA,NA,NA,NA,NA,NA,NA,NA,NA,NA,NA,NA,NA,NA,NA,NA,NA,NA,NA,NA,NA,NA,NA,NA,NA,NA,NA,NA,0,0,0,2,1,NA,NA,NA,NA,NA
SUPAMT44713,3MTMREQS41H3SATM36MSM0DX4TFAW7,316E709A-7006-4C78-B4DB-9197E22AC5B1,2023-09-29_12h39.13.547,WP_VExplicitOC_HL,2022.2.5,Win32,60.0240096,50.74074074,2.385,2.014,NA,NA,NA,NA,NA,happy,"unhappy, happy","less happy, more happy",NA,NA,NA,NA,NA,NA,NA,NA,NA,NA,NA,NA,NA,NA,NA,NA,NA,NA,NA,NA,NA,NA,NA,NA,NA,NA,NA,NA,NA,NA,NA,NA,NA,NA,NA,NA,NA,NA,0,1,1,0,1,NA,NA,NA,NA,NA
SUPAMT44713,3MTMREQS41H3SATM36MSM0DX4TFAW7,316E709A-7006-4C78-B4DB-9197E22AC5B1,2023-09-29_12h39.13.547,WP_VExplicitOC_HL,2022.2.5,Win32,60.0240096,77.03703704,2.873,2.015,NA,NA,NA,NA,NA,frustrated,"frustrated, not frustrated","more frustrated, less frustrated",NA,NA,NA,NA,NA,NA,NA,NA,NA,NA,NA,NA,NA,NA,NA,NA,NA,NA,NA,NA,NA,NA,NA,NA,NA,NA,NA,NA,NA,NA,NA,NA,NA,NA,NA,NA,NA,NA,0,2,2,1,1,NA,NA,NA,NA,NA
SUPAMT44713,3MTMREQS41H3SATM36MSM0DX4TFAW7,316E709A-7006-4C78-B4DB-9197E22AC5B1,2023-09-29_12h39.13.547,WP_VExplicitOC_HL,2022.2.5,Win32,60.0240096,NA,NA,NA,NA,NA,NA,NA,NA,NA,NA,NA,NA,NA,NA,NA,NA,NA,NA,NA,NA,NA,NA,NA,NA,NA,NA,NA,NA,NA,NA,NA,NA,NA,NA,NA,NA,NA,NA,NA,NA,NA,NA,NA,NA,NA,NA,NA,NA,NA,NA,NA,NA,NA,NA,12,0,12,0,1
SUPAMT44713,3MTMREQS41H3SATM36MSM0DX4TFAW7,316E709A-7006-4C78-B4DB-9197E22AC5B1,2023-09-29_12h39.13.547,WP_VExplicitOC_HL,2022.2.5,Win32,60.0240096,50.55555556,2.456,2.001,NA,NA,NA,NA,NA,happy,"unhappy, happy","less happy, more happy",NA,NA,NA,NA,NA,NA,NA,NA,NA,NA,NA,NA,NA,NA,NA,NA,NA,NA,NA,NA,NA,NA,NA,NA,NA,NA,NA,NA,NA,NA,NA,NA,NA,NA,NA,NA,NA,NA,0,0,0,0,1,NA,NA,NA,NA,NA
SUPAMT44713,3MTMREQS41H3SATM36MSM0DX4TFAW7,316E709A-7006-4C78-B4DB-9197E22AC5B1,2023-09-29_12h39.13.547,WP_VExplicitOC_HL,2022.2.5,Win32,60.0240096,-24.25925926,2.142,2.015,NA,NA,NA,NA,NA,bored,"bored, not bored","more bored, less bored",NA,NA,NA,NA,NA,NA,NA,NA,NA,NA,NA,NA,NA,NA,NA,NA,NA,NA,NA,NA,NA,NA,NA,NA,NA,NA,NA,NA,NA,NA,NA,NA,NA,NA,NA,NA,NA,NA,0,1,1,2,1,NA,NA,NA,NA,NA
SUPAMT44713,3MTMREQS41H3SATM36MSM0DX4TFAW7,316E709A-7006-4C78-B4DB-9197E22AC5B1,2023-09-29_12h39.13.547,WP_VExplicitOC_HL,2022.2.5,Win32,60.0240096,79.07407407,3.44,2.015,NA,NA,NA,NA,NA,frustrated,"frustrated, not frustrated","more frustrated, less frustrated",NA,NA,NA,NA,NA,NA,NA,NA,NA,NA,NA,NA,NA,NA,NA,NA,NA,NA,NA,NA,NA,NA,NA,NA,NA,NA,NA,NA,NA,NA,NA,NA,NA,NA,NA,NA,NA,NA,0,2,2,1,1,NA,NA,NA,NA,NA
SUPAMT44713,3MTMREQS41H3SATM36MSM0DX4TFAW7,316E709A-7006-4C78-B4DB-9197E22AC5B1,2023-09-29_12h39.13.547,WP_VExplicitOC_HL,2022.2.5,Win32,60.0240096,NA,NA,NA,NA,NA,NA,NA,NA,NA,NA,NA,NA,NA,NA,NA,NA,NA,NA,NA,NA,NA,NA,NA,NA,NA,NA,NA,NA,NA,NA,NA,NA,NA,NA,NA,NA,NA,NA,NA,NA,NA,NA,NA,NA,NA,NA,NA,NA,NA,NA,NA,NA,NA,NA,13,0,13,0,1
SUPAMT44713,3MTMREQS41H3SATM36MSM0DX4TFAW7,316E709A-7006-4C78-B4DB-9197E22AC5B1,2023-09-29_12h39.13.547,WP_VExplicitOC_HL,2022.2.5,Win32,60.0240096,84.07407407,3.489,2.001,NA,NA,NA,NA,NA,frustrated,"frustrated, not frustrated","more frustrated, less frustrated",NA,NA,NA,NA,NA,NA,NA,NA,NA,NA,NA,NA,NA,NA,NA,NA,NA,NA,NA,NA,NA,NA,NA,NA,NA,NA,NA,NA,NA,NA,NA,NA,NA,NA,NA,NA,NA,NA,0,0,0,1,1,NA,NA,NA,NA,NA
SUPAMT44713,3MTMREQS41H3SATM36MSM0DX4TFAW7,316E709A-7006-4C78-B4DB-9197E22AC5B1,2023-09-29_12h39.13.547,WP_VExplicitOC_HL,2022.2.5,Win32,60.0240096,-33.7037037,2.456,2,NA,NA,NA,NA,NA,bored,"bored, not bored","more bored, less bored",NA,NA,NA,NA,NA,NA,NA,NA,NA,NA,NA,NA,NA,NA,NA,NA,NA,NA,NA,NA,NA,NA,NA,NA,NA,NA,NA,NA,NA,NA,NA,NA,NA,NA,NA,NA,NA,NA,0,1,1,2,1,NA,NA,NA,NA,NA
SUPAMT44713,3MTMREQS41H3SATM36MSM0DX4TFAW7,316E709A-7006-4C78-B4DB-9197E22AC5B1,2023-09-29_12h39.13.547,WP_VExplicitOC_HL,2022.2.5,Win32,60.0240096,64.07407407,2.462,2.016,NA,NA,NA,NA,NA,happy,"unhappy, happy","less happy, more happy",NA,NA,NA,NA,NA,NA,NA,NA,NA,NA,NA,NA,NA,NA,NA,NA,NA,NA,NA,NA,NA,NA,NA,NA,NA,NA,NA,NA,NA,NA,NA,NA,NA,NA,NA,NA,NA,NA,0,2,2,0,1,NA,NA,NA,NA,NA
SUPAMT44713,3MTMREQS41H3SATM36MSM0DX4TFAW7,316E709A-7006-4C78-B4DB-9197E22AC5B1,2023-09-29_12h39.13.547,WP_VExplicitOC_HL,2022.2.5,Win32,60.0240096,NA,NA,NA,NA,NA,NA,NA,NA,NA,NA,NA,NA,NA,NA,NA,NA,NA,NA,NA,NA,NA,NA,NA,NA,NA,NA,NA,NA,NA,NA,NA,NA,NA,NA,NA,NA,NA,NA,NA,NA,NA,NA,NA,NA,NA,NA,NA,NA,NA,NA,NA,NA,NA,NA,14,0,14,0,1
SUPAMT44713,3MTMREQS41H3SATM36MSM0DX4TFAW7,316E709A-7006-4C78-B4DB-9197E22AC5B1,2023-09-29_12h39.13.547,WP_VExplicitOC_HL,2022.2.5,Win32,60.0240096,NA,NA,NA,NA,NA,NA,NA,NA,NA,NA,NA,NA,NA,NA,NA,NA,NA,NA,NA,NA,NA,NA,NA,NA,NA,NA,NA,NA,NA,NA,NA,NA,NA,NA,NA,NA,NA,NA,NA,NA,NA,NA,NA,NA,NA,NA,NA,NA,NA,NA,NA,NA,NA,NA,NA,NA,NA,NA,NA
