participant,session,completion,date,expName,psychopyVersion,OS,frameRate,rating_all.response,rating_all.rt,rating_all.tStart,rndRat1.thisRepN,rndRat1.thisTrialN,rndRat1.thisN,rndRat1.thisIndex,rndRat1.ran,Emo,Labs,Labs2,rating_alt.response,rating_alt.rt,AltC.thisRepN,AltC.thisTrialN,AltC.thisN,AltC.thisIndex,AltC.ran,alt_choices,pic_choices,TopAlt_Choice,rndRat2.thisRepN,rndRat2.thisTrialN,rndRat2.thisN,rndRat2.thisIndex,rndRat2.ran,rndRat3.thisRepN,rndRat3.thisTrialN,rndRat3.thisN,rndRat3.thisIndex,rndRat3.ran,trials_FC_H.thisRepN,trials_FC_H.thisTrialN,trials_FC_H.thisN,trials_FC_H.thisIndex,trials_FC_H.ran,rating_alt_2.response,rating_alt_2.rt,AltC2.thisRepN,AltC2.thisTrialN,AltC2.thisN,AltC2.thisIndex,AltC2.ran,BottomAlt_Choice,rndRat4.thisRepN,rndRat4.thisTrialN,rndRat4.thisN,rndRat4.thisIndex,rndRat4.ran,rndRat5.thisRepN,rndRat5.thisTrialN,rndRat5.thisN,rndRat5.thisIndex,rndRat5.ran,trials_FC_L.thisRepN,trials_FC_L.thisTrialN,trials_FC_L.thisN,trials_FC_L.thisIndex,trials_FC_L.ran
SUPAMT16874,36WLNQG7859EUKCNOKSIV5Q3FTYEB1,67D03FFB-350E-47E8-BD3C-7C325FC1C697,2023-09-27_14h09.41.110,WP_VExplicitOC_HL,2022.2.5,Win32,16.86966497,NA,NA,NA,NA,NA,NA,NA,NA,NA,NA,NA,NA,NA,NA,NA,NA,NA,NA,NA,NA,NA,NA,NA,NA,NA,NA,NA,NA,NA,NA,NA,NA,NA,NA,NA,NA,NA,NA,NA,NA,NA,NA,NA,NA,NA,NA,NA,NA,NA,NA,NA,NA,NA,NA,NA,NA,NA,NA,NA
SUPAMT16874,36WLNQG7859EUKCNOKSIV5Q3FTYEB1,67D03FFB-350E-47E8-BD3C-7C325FC1C697,2023-09-27_14h09.41.110,WP_VExplicitOC_HL,2022.2.5,Win32,16.86966497,NA,NA,NA,NA,NA,NA,NA,NA,NA,NA,NA,NA,NA,NA,NA,NA,NA,NA,NA,NA,NA,NA,NA,NA,NA,NA,NA,NA,NA,NA,NA,NA,NA,NA,NA,NA,NA,NA,NA,NA,NA,NA,NA,NA,NA,NA,NA,NA,NA,NA,NA,NA,NA,NA,NA,NA,NA,NA,NA
SUPAMT16874,36WLNQG7859EUKCNOKSIV5Q3FTYEB1,67D03FFB-350E-47E8-BD3C-7C325FC1C697,2023-09-27_14h09.41.110,WP_VExplicitOC_HL,2022.2.5,Win32,16.86966497,NA,NA,NA,NA,NA,NA,NA,NA,NA,NA,NA,NA,NA,NA,NA,NA,NA,NA,NA,NA,NA,NA,NA,NA,NA,NA,NA,NA,NA,NA,NA,NA,NA,NA,NA,NA,NA,NA,NA,NA,NA,NA,NA,NA,NA,NA,NA,NA,NA,NA,NA,NA,NA,NA,NA,NA,NA,NA,NA
SUPAMT16874,36WLNQG7859EUKCNOKSIV5Q3FTYEB1,67D03FFB-350E-47E8-BD3C-7C325FC1C697,2023-09-27_14h09.41.110,WP_VExplicitOC_HL,2022.2.5,Win32,16.86966497,60.3515625,3.9895,2.0142,0,0,0,1,1,frustrated,"frustrated, not frustrated","more frustrated, less frustrated",NA,NA,NA,NA,NA,NA,NA,NA,NA,NA,NA,NA,NA,NA,NA,NA,NA,NA,NA,NA,NA,NA,NA,NA,NA,NA,NA,NA,NA,NA,NA,NA,NA,NA,NA,NA,NA,NA,NA,NA,NA,NA,NA,NA,NA,NA,NA,NA
SUPAMT16874,36WLNQG7859EUKCNOKSIV5Q3FTYEB1,67D03FFB-350E-47E8-BD3C-7C325FC1C697,2023-09-27_14h09.41.110,WP_VExplicitOC_HL,2022.2.5,Win32,16.86966497,74.4140625,3.6132,2.0046,0,1,1,0,1,happy,"unhappy, happy","less happy, more happy",NA,NA,NA,NA,NA,NA,NA,NA,NA,NA,NA,NA,NA,NA,NA,NA,NA,NA,NA,NA,NA,NA,NA,NA,NA,NA,NA,NA,NA,NA,NA,NA,NA,NA,NA,NA,NA,NA,NA,NA,NA,NA,NA,NA,NA,NA,NA,NA
SUPAMT16874,36WLNQG7859EUKCNOKSIV5Q3FTYEB1,67D03FFB-350E-47E8-BD3C-7C325FC1C697,2023-09-27_14h09.41.110,WP_VExplicitOC_HL,2022.2.5,Win32,16.86966497,73.828125,3.4999,2.0307,0,2,2,2,1,bored,"bored, not bored","more bored, less bored",NA,NA,NA,NA,NA,NA,NA,NA,NA,NA,NA,NA,NA,NA,NA,NA,NA,NA,NA,NA,NA,NA,NA,NA,NA,NA,NA,NA,NA,NA,NA,NA,NA,NA,NA,NA,NA,NA,NA,NA,NA,NA,NA,NA,NA,NA,NA,NA
SUPAMT16874,36WLNQG7859EUKCNOKSIV5Q3FTYEB1,67D03FFB-350E-47E8-BD3C-7C325FC1C697,2023-09-27_14h09.41.110,WP_VExplicitOC_HL,2022.2.5,Win32,16.86966497,NA,NA,NA,NA,NA,NA,NA,NA,NA,NA,NA,NA,NA,NA,NA,NA,NA,NA,NA,NA,NA,NA,NA,NA,NA,NA,NA,NA,NA,NA,NA,NA,NA,NA,NA,NA,NA,NA,NA,NA,NA,NA,NA,NA,NA,NA,NA,NA,NA,NA,NA,NA,NA,NA,NA,NA,NA,NA,NA
SUPAMT16874,36WLNQG7859EUKCNOKSIV5Q3FTYEB1,67D03FFB-350E-47E8-BD3C-7C325FC1C697,2023-09-27_14h09.41.110,WP_VExplicitOC_HL,2022.2.5,Win32,16.86966497,NA,NA,NA,NA,NA,NA,NA,NA,NA,NA,NA,NA,NA,NA,NA,NA,NA,NA,NA,NA,NA,NA,NA,NA,NA,NA,NA,NA,NA,NA,NA,NA,NA,NA,NA,NA,NA,NA,NA,NA,NA,NA,NA,NA,NA,NA,NA,NA,NA,NA,NA,NA,NA,NA,NA,NA,NA,NA,NA
SUPAMT16874,36WLNQG7859EUKCNOKSIV5Q3FTYEB1,67D03FFB-350E-47E8-BD3C-7C325FC1C697,2023-09-27_14h09.41.110,WP_VExplicitOC_HL,2022.2.5,Win32,16.86966497,NA,NA,NA,NA,NA,NA,NA,NA,NA,NA,NA,NA,NA,NA,NA,NA,NA,NA,NA,NA,NA,NA,NA,NA,NA,NA,NA,NA,NA,NA,NA,NA,NA,NA,NA,NA,NA,NA,NA,NA,NA,NA,NA,NA,NA,NA,NA,NA,NA,NA,NA,NA,NA,NA,NA,NA,NA,NA,NA
SUPAMT16874,36WLNQG7859EUKCNOKSIV5Q3FTYEB1,67D03FFB-350E-47E8-BD3C-7C325FC1C697,2023-09-27_14h09.41.110,WP_VExplicitOC_HL,2022.2.5,Win32,16.86966497,NA,NA,NA,NA,NA,NA,NA,NA,NA,NA,NA,NA,NA,NA,NA,NA,NA,NA,NA,NA,NA,NA,NA,NA,NA,NA,NA,NA,NA,NA,NA,NA,NA,NA,NA,NA,NA,NA,NA,NA,NA,NA,NA,NA,NA,NA,NA,NA,NA,NA,NA,NA,NA,NA,NA,NA,NA,NA,NA
SUPAMT16874,36WLNQG7859EUKCNOKSIV5Q3FTYEB1,67D03FFB-350E-47E8-BD3C-7C325FC1C697,2023-09-27_14h09.41.110,WP_VExplicitOC_HL,2022.2.5,Win32,16.86966497,NA,NA,NA,NA,NA,NA,NA,NA,NA,NA,NA,70.703125,3.6668,0,0,0,0,1,rest (looking at a fixed cross),001.png,NA,NA,NA,NA,NA,NA,NA,NA,NA,NA,NA,NA,NA,NA,NA,NA,NA,NA,NA,NA,NA,NA,NA,NA,NA,NA,NA,NA,NA,NA,NA,NA,NA,NA,NA,NA,NA,NA,NA
SUPAMT16874,36WLNQG7859EUKCNOKSIV5Q3FTYEB1,67D03FFB-350E-47E8-BD3C-7C325FC1C697,2023-09-27_14h09.41.110,WP_VExplicitOC_HL,2022.2.5,Win32,16.86966497,NA,NA,NA,NA,NA,NA,NA,NA,NA,NA,NA,69.921875,1.1542,0,1,1,1,1,stand up,002.png,NA,NA,NA,NA,NA,NA,NA,NA,NA,NA,NA,NA,NA,NA,NA,NA,NA,NA,NA,NA,NA,NA,NA,NA,NA,NA,NA,NA,NA,NA,NA,NA,NA,NA,NA,NA,NA,NA,NA
SUPAMT16874,36WLNQG7859EUKCNOKSIV5Q3FTYEB1,67D03FFB-350E-47E8-BD3C-7C325FC1C697,2023-09-27_14h09.41.110,WP_VExplicitOC_HL,2022.2.5,Win32,16.86966497,NA,NA,NA,NA,NA,NA,NA,NA,NA,NA,NA,72.265625,0.8913,0,2,2,2,1,stretch,003.png,NA,NA,NA,NA,NA,NA,NA,NA,NA,NA,NA,NA,NA,NA,NA,NA,NA,NA,NA,NA,NA,NA,NA,NA,NA,NA,NA,NA,NA,NA,NA,NA,NA,NA,NA,NA,NA,NA,NA
SUPAMT16874,36WLNQG7859EUKCNOKSIV5Q3FTYEB1,67D03FFB-350E-47E8-BD3C-7C325FC1C697,2023-09-27_14h09.41.110,WP_VExplicitOC_HL,2022.2.5,Win32,16.86966497,NA,NA,NA,NA,NA,NA,NA,NA,NA,NA,NA,72.265625,0.756,0,3,3,3,1,make a drink,004.png,NA,NA,NA,NA,NA,NA,NA,NA,NA,NA,NA,NA,NA,NA,NA,NA,NA,NA,NA,NA,NA,NA,NA,NA,NA,NA,NA,NA,NA,NA,NA,NA,NA,NA,NA,NA,NA,NA,NA
SUPAMT16874,36WLNQG7859EUKCNOKSIV5Q3FTYEB1,67D03FFB-350E-47E8-BD3C-7C325FC1C697,2023-09-27_14h09.41.110,WP_VExplicitOC_HL,2022.2.5,Win32,16.86966497,NA,NA,NA,NA,NA,NA,NA,NA,NA,NA,NA,72.265625,0.8984,0,4,4,4,1,scroll social media,005.png,NA,NA,NA,NA,NA,NA,NA,NA,NA,NA,NA,NA,NA,NA,NA,NA,NA,NA,NA,NA,NA,NA,NA,NA,NA,NA,NA,NA,NA,NA,NA,NA,NA,NA,NA,NA,NA,NA,NA
SUPAMT16874,36WLNQG7859EUKCNOKSIV5Q3FTYEB1,67D03FFB-350E-47E8-BD3C-7C325FC1C697,2023-09-27_14h09.41.110,WP_VExplicitOC_HL,2022.2.5,Win32,16.86966497,NA,NA,NA,NA,NA,NA,NA,NA,NA,NA,NA,72.265625,0.9799,0,5,5,5,1,listen to music,006.png,NA,NA,NA,NA,NA,NA,NA,NA,NA,NA,NA,NA,NA,NA,NA,NA,NA,NA,NA,NA,NA,NA,NA,NA,NA,NA,NA,NA,NA,NA,NA,NA,NA,NA,NA,NA,NA,NA,NA
SUPAMT16874,36WLNQG7859EUKCNOKSIV5Q3FTYEB1,67D03FFB-350E-47E8-BD3C-7C325FC1C697,2023-09-27_14h09.41.110,WP_VExplicitOC_HL,2022.2.5,Win32,16.86966497,NA,NA,NA,NA,NA,NA,NA,NA,NA,NA,NA,72.265625,0.8812,0,6,6,6,1,daydream,007.png,NA,NA,NA,NA,NA,NA,NA,NA,NA,NA,NA,NA,NA,NA,NA,NA,NA,NA,NA,NA,NA,NA,NA,NA,NA,NA,NA,NA,NA,NA,NA,NA,NA,NA,NA,NA,NA,NA,NA
SUPAMT16874,36WLNQG7859EUKCNOKSIV5Q3FTYEB1,67D03FFB-350E-47E8-BD3C-7C325FC1C697,2023-09-27_14h09.41.110,WP_VExplicitOC_HL,2022.2.5,Win32,16.86966497,NA,NA,NA,NA,NA,NA,NA,NA,NA,NA,NA,72.265625,0.9206,0,7,7,7,1,watch a short animation,008.png,NA,NA,NA,NA,NA,NA,NA,NA,NA,NA,NA,NA,NA,NA,NA,NA,NA,NA,NA,NA,NA,NA,NA,NA,NA,NA,NA,NA,NA,NA,NA,NA,NA,NA,NA,NA,NA,NA,NA
SUPAMT16874,36WLNQG7859EUKCNOKSIV5Q3FTYEB1,67D03FFB-350E-47E8-BD3C-7C325FC1C697,2023-09-27_14h09.41.110,WP_VExplicitOC_HL,2022.2.5,Win32,16.86966497,NA,NA,NA,NA,NA,NA,NA,NA,NA,NA,NA,72.265625,1.5244,0,8,8,8,1,read a novel,009.png,NA,NA,NA,NA,NA,NA,NA,NA,NA,NA,NA,NA,NA,NA,NA,NA,NA,NA,NA,NA,NA,NA,NA,NA,NA,NA,NA,NA,NA,NA,NA,NA,NA,NA,NA,NA,NA,NA,NA
SUPAMT16874,36WLNQG7859EUKCNOKSIV5Q3FTYEB1,67D03FFB-350E-47E8-BD3C-7C325FC1C697,2023-09-27_14h09.41.110,WP_VExplicitOC_HL,2022.2.5,Win32,16.86966497,NA,NA,NA,NA,NA,NA,NA,NA,NA,NA,NA,72.265625,0.8627,0,9,9,9,1,read the news,010.png,NA,NA,NA,NA,NA,NA,NA,NA,NA,NA,NA,NA,NA,NA,NA,NA,NA,NA,NA,NA,NA,NA,NA,NA,NA,NA,NA,NA,NA,NA,NA,NA,NA,NA,NA,NA,NA,NA,NA
SUPAMT16874,36WLNQG7859EUKCNOKSIV5Q3FTYEB1,67D03FFB-350E-47E8-BD3C-7C325FC1C697,2023-09-27_14h09.41.110,WP_VExplicitOC_HL,2022.2.5,Win32,16.86966497,NA,NA,NA,NA,NA,NA,NA,NA,NA,NA,NA,NA,NA,NA,NA,NA,NA,NA,NA,NA,NA,NA,NA,NA,NA,NA,NA,NA,NA,NA,NA,NA,NA,NA,NA,NA,NA,NA,NA,NA,NA,NA,NA,NA,NA,NA,NA,NA,NA,NA,NA,NA,NA,NA,NA,NA,NA,NA,NA
SUPAMT16874,36WLNQG7859EUKCNOKSIV5Q3FTYEB1,67D03FFB-350E-47E8-BD3C-7C325FC1C697,2023-09-27_14h09.41.110,WP_VExplicitOC_HL,2022.2.5,Win32,16.86966497,NA,NA,NA,NA,NA,NA,NA,NA,NA,NA,NA,NA,NA,NA,NA,NA,NA,NA,NA,NA,stretch,NA,NA,NA,NA,NA,NA,NA,NA,NA,NA,NA,NA,NA,NA,NA,NA,NA,NA,NA,NA,NA,NA,NA,NA,NA,NA,NA,NA,NA,NA,NA,NA,NA,NA,NA,NA,NA,NA
SUPAMT16874,36WLNQG7859EUKCNOKSIV5Q3FTYEB1,67D03FFB-350E-47E8-BD3C-7C325FC1C697,2023-09-27_14h09.41.110,WP_VExplicitOC_HL,2022.2.5,Win32,16.86966497,70.3125,6.6194,2.0026,NA,NA,NA,NA,NA,frustrated,"frustrated, not frustrated","more frustrated, less frustrated",NA,NA,NA,NA,NA,NA,NA,NA,NA,NA,0,0,0,1,1,NA,NA,NA,NA,NA,NA,NA,NA,NA,NA,NA,NA,NA,NA,NA,NA,NA,NA,NA,NA,NA,NA,NA,NA,NA,NA,NA,NA,NA,NA,NA,NA,NA
SUPAMT16874,36WLNQG7859EUKCNOKSIV5Q3FTYEB1,67D03FFB-350E-47E8-BD3C-7C325FC1C697,2023-09-27_14h09.41.110,WP_VExplicitOC_HL,2022.2.5,Win32,16.86966497,70.3125,3.7198,2.0383,NA,NA,NA,NA,NA,happy,"unhappy, happy","less happy, more happy",NA,NA,NA,NA,NA,NA,NA,NA,NA,NA,0,1,1,0,1,NA,NA,NA,NA,NA,NA,NA,NA,NA,NA,NA,NA,NA,NA,NA,NA,NA,NA,NA,NA,NA,NA,NA,NA,NA,NA,NA,NA,NA,NA,NA,NA,NA
SUPAMT16874,36WLNQG7859EUKCNOKSIV5Q3FTYEB1,67D03FFB-350E-47E8-BD3C-7C325FC1C697,2023-09-27_14h09.41.110,WP_VExplicitOC_HL,2022.2.5,Win32,16.86966497,70.1171875,3.6018,2.0591,NA,NA,NA,NA,NA,bored,"bored, not bored","more bored, less bored",NA,NA,NA,NA,NA,NA,NA,NA,NA,NA,0,2,2,2,1,NA,NA,NA,NA,NA,NA,NA,NA,NA,NA,NA,NA,NA,NA,NA,NA,NA,NA,NA,NA,NA,NA,NA,NA,NA,NA,NA,NA,NA,NA,NA,NA,NA
SUPAMT16874,36WLNQG7859EUKCNOKSIV5Q3FTYEB1,67D03FFB-350E-47E8-BD3C-7C325FC1C697,2023-09-27_14h09.41.110,WP_VExplicitOC_HL,2022.2.5,Win32,16.86966497,NA,NA,NA,NA,NA,NA,NA,NA,NA,NA,NA,NA,NA,NA,NA,NA,NA,NA,NA,NA,NA,NA,NA,NA,NA,NA,NA,NA,NA,NA,NA,NA,NA,NA,NA,NA,NA,NA,NA,NA,NA,NA,NA,NA,NA,NA,NA,NA,NA,NA,NA,NA,NA,NA,NA,NA,NA,NA,NA
SUPAMT16874,36WLNQG7859EUKCNOKSIV5Q3FTYEB1,67D03FFB-350E-47E8-BD3C-7C325FC1C697,2023-09-27_14h09.41.110,WP_VExplicitOC_HL,2022.2.5,Win32,16.86966497,NA,NA,NA,NA,NA,NA,NA,NA,NA,NA,NA,NA,NA,NA,NA,NA,NA,NA,NA,NA,NA,NA,NA,NA,NA,NA,NA,NA,NA,NA,NA,NA,NA,NA,NA,NA,NA,NA,NA,NA,NA,NA,NA,NA,NA,NA,NA,NA,NA,NA,NA,NA,NA,NA,NA,NA,NA,NA,NA
SUPAMT16874,36WLNQG7859EUKCNOKSIV5Q3FTYEB1,67D03FFB-350E-47E8-BD3C-7C325FC1C697,2023-09-27_14h09.41.110,WP_VExplicitOC_HL,2022.2.5,Win32,16.86966497,NA,NA,2.0056,NA,NA,NA,NA,NA,bored,"bored, not bored","more bored, less bored",NA,NA,NA,NA,NA,NA,NA,NA,NA,NA,NA,NA,NA,NA,NA,0,0,0,2,1,NA,NA,NA,NA,NA,NA,NA,NA,NA,NA,NA,NA,NA,NA,NA,NA,NA,NA,NA,NA,NA,NA,NA,NA,NA,NA,NA,NA
SUPAMT16874,36WLNQG7859EUKCNOKSIV5Q3FTYEB1,67D03FFB-350E-47E8-BD3C-7C325FC1C697,2023-09-27_14h09.41.110,WP_VExplicitOC_HL,2022.2.5,Win32,16.86966497,67.7734375,4.0468,2.0111,NA,NA,NA,NA,NA,happy,"unhappy, happy","less happy, more happy",NA,NA,NA,NA,NA,NA,NA,NA,NA,NA,NA,NA,NA,NA,NA,0,1,1,0,1,NA,NA,NA,NA,NA,NA,NA,NA,NA,NA,NA,NA,NA,NA,NA,NA,NA,NA,NA,NA,NA,NA,NA,NA,NA,NA,NA,NA
SUPAMT16874,36WLNQG7859EUKCNOKSIV5Q3FTYEB1,67D03FFB-350E-47E8-BD3C-7C325FC1C697,2023-09-27_14h09.41.110,WP_VExplicitOC_HL,2022.2.5,Win32,16.86966497,67.7734375,3.6048,2.0268,NA,NA,NA,NA,NA,frustrated,"frustrated, not frustrated","more frustrated, less frustrated",NA,NA,NA,NA,NA,NA,NA,NA,NA,NA,NA,NA,NA,NA,NA,0,2,2,1,1,NA,NA,NA,NA,NA,NA,NA,NA,NA,NA,NA,NA,NA,NA,NA,NA,NA,NA,NA,NA,NA,NA,NA,NA,NA,NA,NA,NA
SUPAMT16874,36WLNQG7859EUKCNOKSIV5Q3FTYEB1,67D03FFB-350E-47E8-BD3C-7C325FC1C697,2023-09-27_14h09.41.110,WP_VExplicitOC_HL,2022.2.5,Win32,16.86966497,NA,NA,NA,NA,NA,NA,NA,NA,NA,NA,NA,NA,NA,NA,NA,NA,NA,NA,NA,NA,NA,NA,NA,NA,NA,NA,NA,NA,NA,NA,NA,0,0,0,0,1,NA,NA,NA,NA,NA,NA,NA,NA,NA,NA,NA,NA,NA,NA,NA,NA,NA,NA,NA,NA,NA,NA,NA
SUPAMT16874,36WLNQG7859EUKCNOKSIV5Q3FTYEB1,67D03FFB-350E-47E8-BD3C-7C325FC1C697,2023-09-27_14h09.41.110,WP_VExplicitOC_HL,2022.2.5,Win32,16.86966497,70.8984375,4.1912,2.0075,NA,NA,NA,NA,NA,happy,"unhappy, happy","less happy, more happy",NA,NA,NA,NA,NA,NA,NA,NA,NA,NA,NA,NA,NA,NA,NA,0,0,0,0,1,NA,NA,NA,NA,NA,NA,NA,NA,NA,NA,NA,NA,NA,NA,NA,NA,NA,NA,NA,NA,NA,NA,NA,NA,NA,NA,NA,NA
SUPAMT16874,36WLNQG7859EUKCNOKSIV5Q3FTYEB1,67D03FFB-350E-47E8-BD3C-7C325FC1C697,2023-09-27_14h09.41.110,WP_VExplicitOC_HL,2022.2.5,Win32,16.86966497,70.8984375,5.9886,2.0232,NA,NA,NA,NA,NA,frustrated,"frustrated, not frustrated","more frustrated, less frustrated",NA,NA,NA,NA,NA,NA,NA,NA,NA,NA,NA,NA,NA,NA,NA,0,1,1,1,1,NA,NA,NA,NA,NA,NA,NA,NA,NA,NA,NA,NA,NA,NA,NA,NA,NA,NA,NA,NA,NA,NA,NA,NA,NA,NA,NA,NA
SUPAMT16874,36WLNQG7859EUKCNOKSIV5Q3FTYEB1,67D03FFB-350E-47E8-BD3C-7C325FC1C697,2023-09-27_14h09.41.110,WP_VExplicitOC_HL,2022.2.5,Win32,16.86966497,75,4.8579,2.0092,NA,NA,NA,NA,NA,bored,"bored, not bored","more bored, less bored",NA,NA,NA,NA,NA,NA,NA,NA,NA,NA,NA,NA,NA,NA,NA,0,2,2,2,1,NA,NA,NA,NA,NA,NA,NA,NA,NA,NA,NA,NA,NA,NA,NA,NA,NA,NA,NA,NA,NA,NA,NA,NA,NA,NA,NA,NA
SUPAMT16874,36WLNQG7859EUKCNOKSIV5Q3FTYEB1,67D03FFB-350E-47E8-BD3C-7C325FC1C697,2023-09-27_14h09.41.110,WP_VExplicitOC_HL,2022.2.5,Win32,16.86966497,NA,NA,NA,NA,NA,NA,NA,NA,NA,NA,NA,NA,NA,NA,NA,NA,NA,NA,NA,NA,NA,NA,NA,NA,NA,NA,NA,NA,NA,NA,NA,1,0,1,0,1,NA,NA,NA,NA,NA,NA,NA,NA,NA,NA,NA,NA,NA,NA,NA,NA,NA,NA,NA,NA,NA,NA,NA
SUPAMT16874,36WLNQG7859EUKCNOKSIV5Q3FTYEB1,67D03FFB-350E-47E8-BD3C-7C325FC1C697,2023-09-27_14h09.41.110,WP_VExplicitOC_HL,2022.2.5,Win32,16.86966497,76.5625,5.2861,2.0298,NA,NA,NA,NA,NA,bored,"bored, not bored","more bored, less bored",NA,NA,NA,NA,NA,NA,NA,NA,NA,NA,NA,NA,NA,NA,NA,0,0,0,2,1,NA,NA,NA,NA,NA,NA,NA,NA,NA,NA,NA,NA,NA,NA,NA,NA,NA,NA,NA,NA,NA,NA,NA,NA,NA,NA,NA,NA
SUPAMT16874,36WLNQG7859EUKCNOKSIV5Q3FTYEB1,67D03FFB-350E-47E8-BD3C-7C325FC1C697,2023-09-27_14h09.41.110,WP_VExplicitOC_HL,2022.2.5,Win32,16.86966497,69.7265625,4.3674,2.0383,NA,NA,NA,NA,NA,happy,"unhappy, happy","less happy, more happy",NA,NA,NA,NA,NA,NA,NA,NA,NA,NA,NA,NA,NA,NA,NA,0,1,1,0,1,NA,NA,NA,NA,NA,NA,NA,NA,NA,NA,NA,NA,NA,NA,NA,NA,NA,NA,NA,NA,NA,NA,NA,NA,NA,NA,NA,NA
SUPAMT16874,36WLNQG7859EUKCNOKSIV5Q3FTYEB1,67D03FFB-350E-47E8-BD3C-7C325FC1C697,2023-09-27_14h09.41.110,WP_VExplicitOC_HL,2022.2.5,Win32,16.86966497,75.9765625,4.0452,2.0291,NA,NA,NA,NA,NA,frustrated,"frustrated, not frustrated","more frustrated, less frustrated",NA,NA,NA,NA,NA,NA,NA,NA,NA,NA,NA,NA,NA,NA,NA,0,2,2,1,1,NA,NA,NA,NA,NA,NA,NA,NA,NA,NA,NA,NA,NA,NA,NA,NA,NA,NA,NA,NA,NA,NA,NA,NA,NA,NA,NA,NA
SUPAMT16874,36WLNQG7859EUKCNOKSIV5Q3FTYEB1,67D03FFB-350E-47E8-BD3C-7C325FC1C697,2023-09-27_14h09.41.110,WP_VExplicitOC_HL,2022.2.5,Win32,16.86966497,NA,NA,NA,NA,NA,NA,NA,NA,NA,NA,NA,NA,NA,NA,NA,NA,NA,NA,NA,NA,NA,NA,NA,NA,NA,NA,NA,NA,NA,NA,NA,2,0,2,0,1,NA,NA,NA,NA,NA,NA,NA,NA,NA,NA,NA,NA,NA,NA,NA,NA,NA,NA,NA,NA,NA,NA,NA
SUPAMT16874,36WLNQG7859EUKCNOKSIV5Q3FTYEB1,67D03FFB-350E-47E8-BD3C-7C325FC1C697,2023-09-27_14h09.41.110,WP_VExplicitOC_HL,2022.2.5,Win32,16.86966497,72.8515625,4.1334,2.0245,NA,NA,NA,NA,NA,happy,"unhappy, happy","less happy, more happy",NA,NA,NA,NA,NA,NA,NA,NA,NA,NA,NA,NA,NA,NA,NA,0,0,0,0,1,NA,NA,NA,NA,NA,NA,NA,NA,NA,NA,NA,NA,NA,NA,NA,NA,NA,NA,NA,NA,NA,NA,NA,NA,NA,NA,NA,NA
SUPAMT16874,36WLNQG7859EUKCNOKSIV5Q3FTYEB1,67D03FFB-350E-47E8-BD3C-7C325FC1C697,2023-09-27_14h09.41.110,WP_VExplicitOC_HL,2022.2.5,Win32,16.86966497,72.8515625,5.0108,2.0354,NA,NA,NA,NA,NA,frustrated,"frustrated, not frustrated","more frustrated, less frustrated",NA,NA,NA,NA,NA,NA,NA,NA,NA,NA,NA,NA,NA,NA,NA,0,1,1,1,1,NA,NA,NA,NA,NA,NA,NA,NA,NA,NA,NA,NA,NA,NA,NA,NA,NA,NA,NA,NA,NA,NA,NA,NA,NA,NA,NA,NA
SUPAMT16874,36WLNQG7859EUKCNOKSIV5Q3FTYEB1,67D03FFB-350E-47E8-BD3C-7C325FC1C697,2023-09-27_14h09.41.110,WP_VExplicitOC_HL,2022.2.5,Win32,16.86966497,78.515625,6.7436,2.017,NA,NA,NA,NA,NA,bored,"bored, not bored","more bored, less bored",NA,NA,NA,NA,NA,NA,NA,NA,NA,NA,NA,NA,NA,NA,NA,0,2,2,2,1,NA,NA,NA,NA,NA,NA,NA,NA,NA,NA,NA,NA,NA,NA,NA,NA,NA,NA,NA,NA,NA,NA,NA,NA,NA,NA,NA,NA
SUPAMT16874,36WLNQG7859EUKCNOKSIV5Q3FTYEB1,67D03FFB-350E-47E8-BD3C-7C325FC1C697,2023-09-27_14h09.41.110,WP_VExplicitOC_HL,2022.2.5,Win32,16.86966497,NA,NA,NA,NA,NA,NA,NA,NA,NA,NA,NA,NA,NA,NA,NA,NA,NA,NA,NA,NA,NA,NA,NA,NA,NA,NA,NA,NA,NA,NA,NA,3,0,3,0,1,NA,NA,NA,NA,NA,NA,NA,NA,NA,NA,NA,NA,NA,NA,NA,NA,NA,NA,NA,NA,NA,NA,NA
SUPAMT16874,36WLNQG7859EUKCNOKSIV5Q3FTYEB1,67D03FFB-350E-47E8-BD3C-7C325FC1C697,2023-09-27_14h09.41.110,WP_VExplicitOC_HL,2022.2.5,Win32,16.86966497,79.6875,4.719,2.0613,NA,NA,NA,NA,NA,frustrated,"frustrated, not frustrated","more frustrated, less frustrated",NA,NA,NA,NA,NA,NA,NA,NA,NA,NA,NA,NA,NA,NA,NA,0,0,0,1,1,NA,NA,NA,NA,NA,NA,NA,NA,NA,NA,NA,NA,NA,NA,NA,NA,NA,NA,NA,NA,NA,NA,NA,NA,NA,NA,NA,NA
SUPAMT16874,36WLNQG7859EUKCNOKSIV5Q3FTYEB1,67D03FFB-350E-47E8-BD3C-7C325FC1C697,2023-09-27_14h09.41.110,WP_VExplicitOC_HL,2022.2.5,Win32,16.86966497,86.5234375,4.0891,2.0545,NA,NA,NA,NA,NA,bored,"bored, not bored","more bored, less bored",NA,NA,NA,NA,NA,NA,NA,NA,NA,NA,NA,NA,NA,NA,NA,0,1,1,2,1,NA,NA,NA,NA,NA,NA,NA,NA,NA,NA,NA,NA,NA,NA,NA,NA,NA,NA,NA,NA,NA,NA,NA,NA,NA,NA,NA,NA
SUPAMT16874,36WLNQG7859EUKCNOKSIV5Q3FTYEB1,67D03FFB-350E-47E8-BD3C-7C325FC1C697,2023-09-27_14h09.41.110,WP_VExplicitOC_HL,2022.2.5,Win32,16.86966497,NA,NA,2.0002,NA,NA,NA,NA,NA,happy,"unhappy, happy","less happy, more happy",NA,NA,NA,NA,NA,NA,NA,NA,NA,NA,NA,NA,NA,NA,NA,0,2,2,0,1,NA,NA,NA,NA,NA,NA,NA,NA,NA,NA,NA,NA,NA,NA,NA,NA,NA,NA,NA,NA,NA,NA,NA,NA,NA,NA,NA,NA
SUPAMT16874,36WLNQG7859EUKCNOKSIV5Q3FTYEB1,67D03FFB-350E-47E8-BD3C-7C325FC1C697,2023-09-27_14h09.41.110,WP_VExplicitOC_HL,2022.2.5,Win32,16.86966497,NA,NA,NA,NA,NA,NA,NA,NA,NA,NA,NA,NA,NA,NA,NA,NA,NA,NA,NA,NA,NA,NA,NA,NA,NA,NA,NA,NA,NA,NA,NA,4,0,4,0,1,NA,NA,NA,NA,NA,NA,NA,NA,NA,NA,NA,NA,NA,NA,NA,NA,NA,NA,NA,NA,NA,NA,NA
SUPAMT16874,36WLNQG7859EUKCNOKSIV5Q3FTYEB1,67D03FFB-350E-47E8-BD3C-7C325FC1C697,2023-09-27_14h09.41.110,WP_VExplicitOC_HL,2022.2.5,Win32,16.86966497,84.9609375,4.5258,2.0237,NA,NA,NA,NA,NA,bored,"bored, not bored","more bored, less bored",NA,NA,NA,NA,NA,NA,NA,NA,NA,NA,NA,NA,NA,NA,NA,0,0,0,2,1,NA,NA,NA,NA,NA,NA,NA,NA,NA,NA,NA,NA,NA,NA,NA,NA,NA,NA,NA,NA,NA,NA,NA,NA,NA,NA,NA,NA
SUPAMT16874,36WLNQG7859EUKCNOKSIV5Q3FTYEB1,67D03FFB-350E-47E8-BD3C-7C325FC1C697,2023-09-27_14h09.41.110,WP_VExplicitOC_HL,2022.2.5,Win32,16.86966497,80.2734375,5.2778,2.0176,NA,NA,NA,NA,NA,frustrated,"frustrated, not frustrated","more frustrated, less frustrated",NA,NA,NA,NA,NA,NA,NA,NA,NA,NA,NA,NA,NA,NA,NA,0,1,1,1,1,NA,NA,NA,NA,NA,NA,NA,NA,NA,NA,NA,NA,NA,NA,NA,NA,NA,NA,NA,NA,NA,NA,NA,NA,NA,NA,NA,NA
SUPAMT16874,36WLNQG7859EUKCNOKSIV5Q3FTYEB1,67D03FFB-350E-47E8-BD3C-7C325FC1C697,2023-09-27_14h09.41.110,WP_VExplicitOC_HL,2022.2.5,Win32,16.86966497,80.46875,6.4531,2.0204,NA,NA,NA,NA,NA,happy,"unhappy, happy","less happy, more happy",NA,NA,NA,NA,NA,NA,NA,NA,NA,NA,NA,NA,NA,NA,NA,0,2,2,0,1,NA,NA,NA,NA,NA,NA,NA,NA,NA,NA,NA,NA,NA,NA,NA,NA,NA,NA,NA,NA,NA,NA,NA,NA,NA,NA,NA,NA
SUPAMT16874,36WLNQG7859EUKCNOKSIV5Q3FTYEB1,67D03FFB-350E-47E8-BD3C-7C325FC1C697,2023-09-27_14h09.41.110,WP_VExplicitOC_HL,2022.2.5,Win32,16.86966497,NA,NA,NA,NA,NA,NA,NA,NA,NA,NA,NA,NA,NA,NA,NA,NA,NA,NA,NA,NA,NA,NA,NA,NA,NA,NA,NA,NA,NA,NA,NA,5,0,5,0,1,NA,NA,NA,NA,NA,NA,NA,NA,NA,NA,NA,NA,NA,NA,NA,NA,NA,NA,NA,NA,NA,NA,NA
SUPAMT16874,36WLNQG7859EUKCNOKSIV5Q3FTYEB1,67D03FFB-350E-47E8-BD3C-7C325FC1C697,2023-09-27_14h09.41.110,WP_VExplicitOC_HL,2022.2.5,Win32,16.86966497,78.90625,6.6704,2.0566,NA,NA,NA,NA,NA,bored,"bored, not bored","more bored, less bored",NA,NA,NA,NA,NA,NA,NA,NA,NA,NA,NA,NA,NA,NA,NA,0,0,0,2,1,NA,NA,NA,NA,NA,NA,NA,NA,NA,NA,NA,NA,NA,NA,NA,NA,NA,NA,NA,NA,NA,NA,NA,NA,NA,NA,NA,NA
SUPAMT16874,36WLNQG7859EUKCNOKSIV5Q3FTYEB1,67D03FFB-350E-47E8-BD3C-7C325FC1C697,2023-09-27_14h09.41.110,WP_VExplicitOC_HL,2022.2.5,Win32,16.86966497,83.59375,3.8777,2.0412,NA,NA,NA,NA,NA,happy,"unhappy, happy","less happy, more happy",NA,NA,NA,NA,NA,NA,NA,NA,NA,NA,NA,NA,NA,NA,NA,0,1,1,0,1,NA,NA,NA,NA,NA,NA,NA,NA,NA,NA,NA,NA,NA,NA,NA,NA,NA,NA,NA,NA,NA,NA,NA,NA,NA,NA,NA,NA
SUPAMT16874,36WLNQG7859EUKCNOKSIV5Q3FTYEB1,67D03FFB-350E-47E8-BD3C-7C325FC1C697,2023-09-27_14h09.41.110,WP_VExplicitOC_HL,2022.2.5,Win32,16.86966497,83.3984375,3.8703,2.0478,NA,NA,NA,NA,NA,frustrated,"frustrated, not frustrated","more frustrated, less frustrated",NA,NA,NA,NA,NA,NA,NA,NA,NA,NA,NA,NA,NA,NA,NA,0,2,2,1,1,NA,NA,NA,NA,NA,NA,NA,NA,NA,NA,NA,NA,NA,NA,NA,NA,NA,NA,NA,NA,NA,NA,NA,NA,NA,NA,NA,NA
SUPAMT16874,36WLNQG7859EUKCNOKSIV5Q3FTYEB1,67D03FFB-350E-47E8-BD3C-7C325FC1C697,2023-09-27_14h09.41.110,WP_VExplicitOC_HL,2022.2.5,Win32,16.86966497,NA,NA,NA,NA,NA,NA,NA,NA,NA,NA,NA,NA,NA,NA,NA,NA,NA,NA,NA,NA,NA,NA,NA,NA,NA,NA,NA,NA,NA,NA,NA,6,0,6,0,1,NA,NA,NA,NA,NA,NA,NA,NA,NA,NA,NA,NA,NA,NA,NA,NA,NA,NA,NA,NA,NA,NA,NA
SUPAMT16874,36WLNQG7859EUKCNOKSIV5Q3FTYEB1,67D03FFB-350E-47E8-BD3C-7C325FC1C697,2023-09-27_14h09.41.110,WP_VExplicitOC_HL,2022.2.5,Win32,16.86966497,78.125,5.3526,2.0576,NA,NA,NA,NA,NA,frustrated,"frustrated, not frustrated","more frustrated, less frustrated",NA,NA,NA,NA,NA,NA,NA,NA,NA,NA,NA,NA,NA,NA,NA,0,0,0,1,1,NA,NA,NA,NA,NA,NA,NA,NA,NA,NA,NA,NA,NA,NA,NA,NA,NA,NA,NA,NA,NA,NA,NA,NA,NA,NA,NA,NA
SUPAMT16874,36WLNQG7859EUKCNOKSIV5Q3FTYEB1,67D03FFB-350E-47E8-BD3C-7C325FC1C697,2023-09-27_14h09.41.110,WP_VExplicitOC_HL,2022.2.5,Win32,16.86966497,83.984375,4.7412,2.0645,NA,NA,NA,NA,NA,happy,"unhappy, happy","less happy, more happy",NA,NA,NA,NA,NA,NA,NA,NA,NA,NA,NA,NA,NA,NA,NA,0,1,1,0,1,NA,NA,NA,NA,NA,NA,NA,NA,NA,NA,NA,NA,NA,NA,NA,NA,NA,NA,NA,NA,NA,NA,NA,NA,NA,NA,NA,NA
SUPAMT16874,36WLNQG7859EUKCNOKSIV5Q3FTYEB1,67D03FFB-350E-47E8-BD3C-7C325FC1C697,2023-09-27_14h09.41.110,WP_VExplicitOC_HL,2022.2.5,Win32,16.86966497,75,3.4358,2.054,NA,NA,NA,NA,NA,bored,"bored, not bored","more bored, less bored",NA,NA,NA,NA,NA,NA,NA,NA,NA,NA,NA,NA,NA,NA,NA,0,2,2,2,1,NA,NA,NA,NA,NA,NA,NA,NA,NA,NA,NA,NA,NA,NA,NA,NA,NA,NA,NA,NA,NA,NA,NA,NA,NA,NA,NA,NA
SUPAMT16874,36WLNQG7859EUKCNOKSIV5Q3FTYEB1,67D03FFB-350E-47E8-BD3C-7C325FC1C697,2023-09-27_14h09.41.110,WP_VExplicitOC_HL,2022.2.5,Win32,16.86966497,NA,NA,NA,NA,NA,NA,NA,NA,NA,NA,NA,NA,NA,NA,NA,NA,NA,NA,NA,NA,NA,NA,NA,NA,NA,NA,NA,NA,NA,NA,NA,7,0,7,0,1,NA,NA,NA,NA,NA,NA,NA,NA,NA,NA,NA,NA,NA,NA,NA,NA,NA,NA,NA,NA,NA,NA,NA
SUPAMT16874,36WLNQG7859EUKCNOKSIV5Q3FTYEB1,67D03FFB-350E-47E8-BD3C-7C325FC1C697,2023-09-27_14h09.41.110,WP_VExplicitOC_HL,2022.2.5,Win32,16.86966497,75.1953125,4.3875,2.0561,NA,NA,NA,NA,NA,happy,"unhappy, happy","less happy, more happy",NA,NA,NA,NA,NA,NA,NA,NA,NA,NA,NA,NA,NA,NA,NA,0,0,0,0,1,NA,NA,NA,NA,NA,NA,NA,NA,NA,NA,NA,NA,NA,NA,NA,NA,NA,NA,NA,NA,NA,NA,NA,NA,NA,NA,NA,NA
SUPAMT16874,36WLNQG7859EUKCNOKSIV5Q3FTYEB1,67D03FFB-350E-47E8-BD3C-7C325FC1C697,2023-09-27_14h09.41.110,WP_VExplicitOC_HL,2022.2.5,Win32,16.86966497,75,3.7923,2.0258,NA,NA,NA,NA,NA,frustrated,"frustrated, not frustrated","more frustrated, less frustrated",NA,NA,NA,NA,NA,NA,NA,NA,NA,NA,NA,NA,NA,NA,NA,0,1,1,1,1,NA,NA,NA,NA,NA,NA,NA,NA,NA,NA,NA,NA,NA,NA,NA,NA,NA,NA,NA,NA,NA,NA,NA,NA,NA,NA,NA,NA
SUPAMT16874,36WLNQG7859EUKCNOKSIV5Q3FTYEB1,67D03FFB-350E-47E8-BD3C-7C325FC1C697,2023-09-27_14h09.41.110,WP_VExplicitOC_HL,2022.2.5,Win32,16.86966497,75,3.7058,2.0561,NA,NA,NA,NA,NA,bored,"bored, not bored","more bored, less bored",NA,NA,NA,NA,NA,NA,NA,NA,NA,NA,NA,NA,NA,NA,NA,0,2,2,2,1,NA,NA,NA,NA,NA,NA,NA,NA,NA,NA,NA,NA,NA,NA,NA,NA,NA,NA,NA,NA,NA,NA,NA,NA,NA,NA,NA,NA
SUPAMT16874,36WLNQG7859EUKCNOKSIV5Q3FTYEB1,67D03FFB-350E-47E8-BD3C-7C325FC1C697,2023-09-27_14h09.41.110,WP_VExplicitOC_HL,2022.2.5,Win32,16.86966497,NA,NA,NA,NA,NA,NA,NA,NA,NA,NA,NA,NA,NA,NA,NA,NA,NA,NA,NA,NA,NA,NA,NA,NA,NA,NA,NA,NA,NA,NA,NA,8,0,8,0,1,NA,NA,NA,NA,NA,NA,NA,NA,NA,NA,NA,NA,NA,NA,NA,NA,NA,NA,NA,NA,NA,NA,NA
SUPAMT16874,36WLNQG7859EUKCNOKSIV5Q3FTYEB1,67D03FFB-350E-47E8-BD3C-7C325FC1C697,2023-09-27_14h09.41.110,WP_VExplicitOC_HL,2022.2.5,Win32,16.86966497,77.1484375,6.8411,2.0344,NA,NA,NA,NA,NA,bored,"bored, not bored","more bored, less bored",NA,NA,NA,NA,NA,NA,NA,NA,NA,NA,NA,NA,NA,NA,NA,0,0,0,2,1,NA,NA,NA,NA,NA,NA,NA,NA,NA,NA,NA,NA,NA,NA,NA,NA,NA,NA,NA,NA,NA,NA,NA,NA,NA,NA,NA,NA
SUPAMT16874,36WLNQG7859EUKCNOKSIV5Q3FTYEB1,67D03FFB-350E-47E8-BD3C-7C325FC1C697,2023-09-27_14h09.41.110,WP_VExplicitOC_HL,2022.2.5,Win32,16.86966497,77.1484375,4.5072,2.0449,NA,NA,NA,NA,NA,frustrated,"frustrated, not frustrated","more frustrated, less frustrated",NA,NA,NA,NA,NA,NA,NA,NA,NA,NA,NA,NA,NA,NA,NA,0,1,1,1,1,NA,NA,NA,NA,NA,NA,NA,NA,NA,NA,NA,NA,NA,NA,NA,NA,NA,NA,NA,NA,NA,NA,NA,NA,NA,NA,NA,NA
SUPAMT16874,36WLNQG7859EUKCNOKSIV5Q3FTYEB1,67D03FFB-350E-47E8-BD3C-7C325FC1C697,2023-09-27_14h09.41.110,WP_VExplicitOC_HL,2022.2.5,Win32,16.86966497,80.46875,7.2611,2.0698,NA,NA,NA,NA,NA,happy,"unhappy, happy","less happy, more happy",NA,NA,NA,NA,NA,NA,NA,NA,NA,NA,NA,NA,NA,NA,NA,0,2,2,0,1,NA,NA,NA,NA,NA,NA,NA,NA,NA,NA,NA,NA,NA,NA,NA,NA,NA,NA,NA,NA,NA,NA,NA,NA,NA,NA,NA,NA
SUPAMT16874,36WLNQG7859EUKCNOKSIV5Q3FTYEB1,67D03FFB-350E-47E8-BD3C-7C325FC1C697,2023-09-27_14h09.41.110,WP_VExplicitOC_HL,2022.2.5,Win32,16.86966497,NA,NA,NA,NA,NA,NA,NA,NA,NA,NA,NA,NA,NA,NA,NA,NA,NA,NA,NA,NA,NA,NA,NA,NA,NA,NA,NA,NA,NA,NA,NA,9,0,9,0,1,NA,NA,NA,NA,NA,NA,NA,NA,NA,NA,NA,NA,NA,NA,NA,NA,NA,NA,NA,NA,NA,NA,NA
SUPAMT16874,36WLNQG7859EUKCNOKSIV5Q3FTYEB1,67D03FFB-350E-47E8-BD3C-7C325FC1C697,2023-09-27_14h09.41.110,WP_VExplicitOC_HL,2022.2.5,Win32,16.86966497,84.9609375,4.1933,2.0368,NA,NA,NA,NA,NA,bored,"bored, not bored","more bored, less bored",NA,NA,NA,NA,NA,NA,NA,NA,NA,NA,NA,NA,NA,NA,NA,0,0,0,2,1,NA,NA,NA,NA,NA,NA,NA,NA,NA,NA,NA,NA,NA,NA,NA,NA,NA,NA,NA,NA,NA,NA,NA,NA,NA,NA,NA,NA
SUPAMT16874,36WLNQG7859EUKCNOKSIV5Q3FTYEB1,67D03FFB-350E-47E8-BD3C-7C325FC1C697,2023-09-27_14h09.41.110,WP_VExplicitOC_HL,2022.2.5,Win32,16.86966497,NA,NA,2.0392,NA,NA,NA,NA,NA,happy,"unhappy, happy","less happy, more happy",NA,NA,NA,NA,NA,NA,NA,NA,NA,NA,NA,NA,NA,NA,NA,0,1,1,0,1,NA,NA,NA,NA,NA,NA,NA,NA,NA,NA,NA,NA,NA,NA,NA,NA,NA,NA,NA,NA,NA,NA,NA,NA,NA,NA,NA,NA
SUPAMT16874,36WLNQG7859EUKCNOKSIV5Q3FTYEB1,67D03FFB-350E-47E8-BD3C-7C325FC1C697,2023-09-27_14h09.41.110,WP_VExplicitOC_HL,2022.2.5,Win32,16.86966497,71.2890625,3.6678,2.0565,NA,NA,NA,NA,NA,frustrated,"frustrated, not frustrated","more frustrated, less frustrated",NA,NA,NA,NA,NA,NA,NA,NA,NA,NA,NA,NA,NA,NA,NA,0,2,2,1,1,NA,NA,NA,NA,NA,NA,NA,NA,NA,NA,NA,NA,NA,NA,NA,NA,NA,NA,NA,NA,NA,NA,NA,NA,NA,NA,NA,NA
SUPAMT16874,36WLNQG7859EUKCNOKSIV5Q3FTYEB1,67D03FFB-350E-47E8-BD3C-7C325FC1C697,2023-09-27_14h09.41.110,WP_VExplicitOC_HL,2022.2.5,Win32,16.86966497,NA,NA,NA,NA,NA,NA,NA,NA,NA,NA,NA,NA,NA,NA,NA,NA,NA,NA,NA,NA,NA,NA,NA,NA,NA,NA,NA,NA,NA,NA,NA,10,0,10,0,1,NA,NA,NA,NA,NA,NA,NA,NA,NA,NA,NA,NA,NA,NA,NA,NA,NA,NA,NA,NA,NA,NA,NA
SUPAMT16874,36WLNQG7859EUKCNOKSIV5Q3FTYEB1,67D03FFB-350E-47E8-BD3C-7C325FC1C697,2023-09-27_14h09.41.110,WP_VExplicitOC_HL,2022.2.5,Win32,16.86966497,NA,NA,2.0034,NA,NA,NA,NA,NA,bored,"bored, not bored","more bored, less bored",NA,NA,NA,NA,NA,NA,NA,NA,NA,NA,NA,NA,NA,NA,NA,0,0,0,2,1,NA,NA,NA,NA,NA,NA,NA,NA,NA,NA,NA,NA,NA,NA,NA,NA,NA,NA,NA,NA,NA,NA,NA,NA,NA,NA,NA,NA
SUPAMT16874,36WLNQG7859EUKCNOKSIV5Q3FTYEB1,67D03FFB-350E-47E8-BD3C-7C325FC1C697,2023-09-27_14h09.41.110,WP_VExplicitOC_HL,2022.2.5,Win32,16.86966497,80.6640625,4.4631,2.044,NA,NA,NA,NA,NA,frustrated,"frustrated, not frustrated","more frustrated, less frustrated",NA,NA,NA,NA,NA,NA,NA,NA,NA,NA,NA,NA,NA,NA,NA,0,1,1,1,1,NA,NA,NA,NA,NA,NA,NA,NA,NA,NA,NA,NA,NA,NA,NA,NA,NA,NA,NA,NA,NA,NA,NA,NA,NA,NA,NA,NA
SUPAMT16874,36WLNQG7859EUKCNOKSIV5Q3FTYEB1,67D03FFB-350E-47E8-BD3C-7C325FC1C697,2023-09-27_14h09.41.110,WP_VExplicitOC_HL,2022.2.5,Win32,16.86966497,80.6640625,3.887,2.0083,NA,NA,NA,NA,NA,happy,"unhappy, happy","less happy, more happy",NA,NA,NA,NA,NA,NA,NA,NA,NA,NA,NA,NA,NA,NA,NA,0,2,2,0,1,NA,NA,NA,NA,NA,NA,NA,NA,NA,NA,NA,NA,NA,NA,NA,NA,NA,NA,NA,NA,NA,NA,NA,NA,NA,NA,NA,NA
SUPAMT16874,36WLNQG7859EUKCNOKSIV5Q3FTYEB1,67D03FFB-350E-47E8-BD3C-7C325FC1C697,2023-09-27_14h09.41.110,WP_VExplicitOC_HL,2022.2.5,Win32,16.86966497,NA,NA,NA,NA,NA,NA,NA,NA,NA,NA,NA,NA,NA,NA,NA,NA,NA,NA,NA,NA,NA,NA,NA,NA,NA,NA,NA,NA,NA,NA,NA,11,0,11,0,1,NA,NA,NA,NA,NA,NA,NA,NA,NA,NA,NA,NA,NA,NA,NA,NA,NA,NA,NA,NA,NA,NA,NA
SUPAMT16874,36WLNQG7859EUKCNOKSIV5Q3FTYEB1,67D03FFB-350E-47E8-BD3C-7C325FC1C697,2023-09-27_14h09.41.110,WP_VExplicitOC_HL,2022.2.5,Win32,16.86966497,80.6640625,4.587,2.0528,NA,NA,NA,NA,NA,happy,"unhappy, happy","less happy, more happy",NA,NA,NA,NA,NA,NA,NA,NA,NA,NA,NA,NA,NA,NA,NA,0,0,0,0,1,NA,NA,NA,NA,NA,NA,NA,NA,NA,NA,NA,NA,NA,NA,NA,NA,NA,NA,NA,NA,NA,NA,NA,NA,NA,NA,NA,NA
SUPAMT16874,36WLNQG7859EUKCNOKSIV5Q3FTYEB1,67D03FFB-350E-47E8-BD3C-7C325FC1C697,2023-09-27_14h09.41.110,WP_VExplicitOC_HL,2022.2.5,Win32,16.86966497,NA,NA,2.0043,NA,NA,NA,NA,NA,frustrated,"frustrated, not frustrated","more frustrated, less frustrated",NA,NA,NA,NA,NA,NA,NA,NA,NA,NA,NA,NA,NA,NA,NA,0,1,1,1,1,NA,NA,NA,NA,NA,NA,NA,NA,NA,NA,NA,NA,NA,NA,NA,NA,NA,NA,NA,NA,NA,NA,NA,NA,NA,NA,NA,NA
SUPAMT16874,36WLNQG7859EUKCNOKSIV5Q3FTYEB1,67D03FFB-350E-47E8-BD3C-7C325FC1C697,2023-09-27_14h09.41.110,WP_VExplicitOC_HL,2022.2.5,Win32,16.86966497,NA,NA,2.0338,NA,NA,NA,NA,NA,bored,"bored, not bored","more bored, less bored",NA,NA,NA,NA,NA,NA,NA,NA,NA,NA,NA,NA,NA,NA,NA,0,2,2,2,1,NA,NA,NA,NA,NA,NA,NA,NA,NA,NA,NA,NA,NA,NA,NA,NA,NA,NA,NA,NA,NA,NA,NA,NA,NA,NA,NA,NA
SUPAMT16874,36WLNQG7859EUKCNOKSIV5Q3FTYEB1,67D03FFB-350E-47E8-BD3C-7C325FC1C697,2023-09-27_14h09.41.110,WP_VExplicitOC_HL,2022.2.5,Win32,16.86966497,NA,NA,NA,NA,NA,NA,NA,NA,NA,NA,NA,NA,NA,NA,NA,NA,NA,NA,NA,NA,NA,NA,NA,NA,NA,NA,NA,NA,NA,NA,NA,12,0,12,0,1,NA,NA,NA,NA,NA,NA,NA,NA,NA,NA,NA,NA,NA,NA,NA,NA,NA,NA,NA,NA,NA,NA,NA
SUPAMT16874,36WLNQG7859EUKCNOKSIV5Q3FTYEB1,67D03FFB-350E-47E8-BD3C-7C325FC1C697,2023-09-27_14h09.41.110,WP_VExplicitOC_HL,2022.2.5,Win32,16.86966497,NA,NA,2.0685,NA,NA,NA,NA,NA,happy,"unhappy, happy","less happy, more happy",NA,NA,NA,NA,NA,NA,NA,NA,NA,NA,NA,NA,NA,NA,NA,0,0,0,0,1,NA,NA,NA,NA,NA,NA,NA,NA,NA,NA,NA,NA,NA,NA,NA,NA,NA,NA,NA,NA,NA,NA,NA,NA,NA,NA,NA,NA
SUPAMT16874,36WLNQG7859EUKCNOKSIV5Q3FTYEB1,67D03FFB-350E-47E8-BD3C-7C325FC1C697,2023-09-27_14h09.41.110,WP_VExplicitOC_HL,2022.2.5,Win32,16.86966497,NA,NA,2.0236,NA,NA,NA,NA,NA,bored,"bored, not bored","more bored, less bored",NA,NA,NA,NA,NA,NA,NA,NA,NA,NA,NA,NA,NA,NA,NA,0,1,1,2,1,NA,NA,NA,NA,NA,NA,NA,NA,NA,NA,NA,NA,NA,NA,NA,NA,NA,NA,NA,NA,NA,NA,NA,NA,NA,NA,NA,NA
SUPAMT16874,36WLNQG7859EUKCNOKSIV5Q3FTYEB1,67D03FFB-350E-47E8-BD3C-7C325FC1C697,2023-09-27_14h09.41.110,WP_VExplicitOC_HL,2022.2.5,Win32,16.86966497,75.5859375,5.0528,2.0555,NA,NA,NA,NA,NA,frustrated,"frustrated, not frustrated","more frustrated, less frustrated",NA,NA,NA,NA,NA,NA,NA,NA,NA,NA,NA,NA,NA,NA,NA,0,2,2,1,1,NA,NA,NA,NA,NA,NA,NA,NA,NA,NA,NA,NA,NA,NA,NA,NA,NA,NA,NA,NA,NA,NA,NA,NA,NA,NA,NA,NA
SUPAMT16874,36WLNQG7859EUKCNOKSIV5Q3FTYEB1,67D03FFB-350E-47E8-BD3C-7C325FC1C697,2023-09-27_14h09.41.110,WP_VExplicitOC_HL,2022.2.5,Win32,16.86966497,NA,NA,NA,NA,NA,NA,NA,NA,NA,NA,NA,NA,NA,NA,NA,NA,NA,NA,NA,NA,NA,NA,NA,NA,NA,NA,NA,NA,NA,NA,NA,13,0,13,0,1,NA,NA,NA,NA,NA,NA,NA,NA,NA,NA,NA,NA,NA,NA,NA,NA,NA,NA,NA,NA,NA,NA,NA
SUPAMT16874,36WLNQG7859EUKCNOKSIV5Q3FTYEB1,67D03FFB-350E-47E8-BD3C-7C325FC1C697,2023-09-27_14h09.41.110,WP_VExplicitOC_HL,2022.2.5,Win32,16.86966497,NA,NA,2.064,NA,NA,NA,NA,NA,frustrated,"frustrated, not frustrated","more frustrated, less frustrated",NA,NA,NA,NA,NA,NA,NA,NA,NA,NA,NA,NA,NA,NA,NA,0,0,0,1,1,NA,NA,NA,NA,NA,NA,NA,NA,NA,NA,NA,NA,NA,NA,NA,NA,NA,NA,NA,NA,NA,NA,NA,NA,NA,NA,NA,NA
SUPAMT16874,36WLNQG7859EUKCNOKSIV5Q3FTYEB1,67D03FFB-350E-47E8-BD3C-7C325FC1C697,2023-09-27_14h09.41.110,WP_VExplicitOC_HL,2022.2.5,Win32,16.86966497,NA,NA,2.0298,NA,NA,NA,NA,NA,bored,"bored, not bored","more bored, less bored",NA,NA,NA,NA,NA,NA,NA,NA,NA,NA,NA,NA,NA,NA,NA,0,1,1,2,1,NA,NA,NA,NA,NA,NA,NA,NA,NA,NA,NA,NA,NA,NA,NA,NA,NA,NA,NA,NA,NA,NA,NA,NA,NA,NA,NA,NA
SUPAMT16874,36WLNQG7859EUKCNOKSIV5Q3FTYEB1,67D03FFB-350E-47E8-BD3C-7C325FC1C697,2023-09-27_14h09.41.110,WP_VExplicitOC_HL,2022.2.5,Win32,16.86966497,79.296875,3.7256,2.0469,NA,NA,NA,NA,NA,happy,"unhappy, happy","less happy, more happy",NA,NA,NA,NA,NA,NA,NA,NA,NA,NA,NA,NA,NA,NA,NA,0,2,2,0,1,NA,NA,NA,NA,NA,NA,NA,NA,NA,NA,NA,NA,NA,NA,NA,NA,NA,NA,NA,NA,NA,NA,NA,NA,NA,NA,NA,NA
SUPAMT16874,36WLNQG7859EUKCNOKSIV5Q3FTYEB1,67D03FFB-350E-47E8-BD3C-7C325FC1C697,2023-09-27_14h09.41.110,WP_VExplicitOC_HL,2022.2.5,Win32,16.86966497,NA,NA,NA,NA,NA,NA,NA,NA,NA,NA,NA,NA,NA,NA,NA,NA,NA,NA,NA,NA,NA,NA,NA,NA,NA,NA,NA,NA,NA,NA,NA,14,0,14,0,1,NA,NA,NA,NA,NA,NA,NA,NA,NA,NA,NA,NA,NA,NA,NA,NA,NA,NA,NA,NA,NA,NA,NA
SUPAMT16874,36WLNQG7859EUKCNOKSIV5Q3FTYEB1,67D03FFB-350E-47E8-BD3C-7C325FC1C697,2023-09-27_14h09.41.110,WP_VExplicitOC_HL,2022.2.5,Win32,16.86966497,NA,NA,NA,NA,NA,NA,NA,NA,NA,NA,NA,NA,NA,NA,NA,NA,NA,NA,NA,NA,NA,NA,NA,NA,NA,NA,NA,NA,NA,NA,NA,NA,NA,NA,NA,NA,NA,NA,NA,NA,NA,NA,NA,NA,NA,NA,NA,NA,NA,NA,NA,NA,NA,NA,NA,NA,NA,NA,NA
SUPAMT16874,36WLNQG7859EUKCNOKSIV5Q3FTYEB1,67D03FFB-350E-47E8-BD3C-7C325FC1C697,2023-09-27_14h09.41.110,WP_VExplicitOC_HL,2022.2.5,Win32,16.86966497,NA,NA,NA,NA,NA,NA,NA,NA,NA,NA,NA,NA,NA,NA,NA,NA,NA,NA,NA,NA,NA,NA,NA,NA,NA,NA,NA,NA,NA,NA,NA,NA,NA,NA,NA,NA,NA,NA,NA,NA,NA,NA,NA,NA,NA,NA,NA,NA,NA,NA,NA,NA,NA,NA,NA,NA,NA,NA,NA
SUPAMT16874,36WLNQG7859EUKCNOKSIV5Q3FTYEB1,67D03FFB-350E-47E8-BD3C-7C325FC1C697,2023-09-27_14h09.41.110,WP_VExplicitOC_HL,2022.2.5,Win32,16.86966497,NA,NA,NA,NA,NA,NA,NA,NA,NA,NA,NA,NA,NA,NA,NA,NA,NA,NA,rest (looking at a fixed cross),001.png,NA,NA,NA,NA,NA,NA,NA,NA,NA,NA,NA,NA,NA,NA,NA,NA,71.09375,1.9801,0,0,0,0,1,NA,NA,NA,NA,NA,NA,NA,NA,NA,NA,NA,NA,NA,NA,NA,NA
SUPAMT16874,36WLNQG7859EUKCNOKSIV5Q3FTYEB1,67D03FFB-350E-47E8-BD3C-7C325FC1C697,2023-09-27_14h09.41.110,WP_VExplicitOC_HL,2022.2.5,Win32,16.86966497,NA,NA,NA,NA,NA,NA,NA,NA,NA,NA,NA,NA,NA,NA,NA,NA,NA,NA,stand up,002.png,NA,NA,NA,NA,NA,NA,NA,NA,NA,NA,NA,NA,NA,NA,NA,NA,71.09375,1.9407,0,1,1,1,1,NA,NA,NA,NA,NA,NA,NA,NA,NA,NA,NA,NA,NA,NA,NA,NA
SUPAMT16874,36WLNQG7859EUKCNOKSIV5Q3FTYEB1,67D03FFB-350E-47E8-BD3C-7C325FC1C697,2023-09-27_14h09.41.110,WP_VExplicitOC_HL,2022.2.5,Win32,16.86966497,NA,NA,NA,NA,NA,NA,NA,NA,NA,NA,NA,NA,NA,NA,NA,NA,NA,NA,stretch,003.png,NA,NA,NA,NA,NA,NA,NA,NA,NA,NA,NA,NA,NA,NA,NA,NA,71.09375,1.0159,0,2,2,2,1,NA,NA,NA,NA,NA,NA,NA,NA,NA,NA,NA,NA,NA,NA,NA,NA
SUPAMT16874,36WLNQG7859EUKCNOKSIV5Q3FTYEB1,67D03FFB-350E-47E8-BD3C-7C325FC1C697,2023-09-27_14h09.41.110,WP_VExplicitOC_HL,2022.2.5,Win32,16.86966497,NA,NA,NA,NA,NA,NA,NA,NA,NA,NA,NA,NA,NA,NA,NA,NA,NA,NA,make a drink,004.png,NA,NA,NA,NA,NA,NA,NA,NA,NA,NA,NA,NA,NA,NA,NA,NA,71.09375,0.7616,0,3,3,3,1,NA,NA,NA,NA,NA,NA,NA,NA,NA,NA,NA,NA,NA,NA,NA,NA
SUPAMT16874,36WLNQG7859EUKCNOKSIV5Q3FTYEB1,67D03FFB-350E-47E8-BD3C-7C325FC1C697,2023-09-27_14h09.41.110,WP_VExplicitOC_HL,2022.2.5,Win32,16.86966497,NA,NA,NA,NA,NA,NA,NA,NA,NA,NA,NA,NA,NA,NA,NA,NA,NA,NA,scroll social media,005.png,NA,NA,NA,NA,NA,NA,NA,NA,NA,NA,NA,NA,NA,NA,NA,NA,71.09375,0.7256,0,4,4,4,1,NA,NA,NA,NA,NA,NA,NA,NA,NA,NA,NA,NA,NA,NA,NA,NA
SUPAMT16874,36WLNQG7859EUKCNOKSIV5Q3FTYEB1,67D03FFB-350E-47E8-BD3C-7C325FC1C697,2023-09-27_14h09.41.110,WP_VExplicitOC_HL,2022.2.5,Win32,16.86966497,NA,NA,NA,NA,NA,NA,NA,NA,NA,NA,NA,NA,NA,NA,NA,NA,NA,NA,listen to music,006.png,NA,NA,NA,NA,NA,NA,NA,NA,NA,NA,NA,NA,NA,NA,NA,NA,71.09375,0.586,0,5,5,5,1,NA,NA,NA,NA,NA,NA,NA,NA,NA,NA,NA,NA,NA,NA,NA,NA
SUPAMT16874,36WLNQG7859EUKCNOKSIV5Q3FTYEB1,67D03FFB-350E-47E8-BD3C-7C325FC1C697,2023-09-27_14h09.41.110,WP_VExplicitOC_HL,2022.2.5,Win32,16.86966497,NA,NA,NA,NA,NA,NA,NA,NA,NA,NA,NA,NA,NA,NA,NA,NA,NA,NA,daydream,007.png,NA,NA,NA,NA,NA,NA,NA,NA,NA,NA,NA,NA,NA,NA,NA,NA,71.09375,0.3978,0,6,6,6,1,NA,NA,NA,NA,NA,NA,NA,NA,NA,NA,NA,NA,NA,NA,NA,NA
SUPAMT16874,36WLNQG7859EUKCNOKSIV5Q3FTYEB1,67D03FFB-350E-47E8-BD3C-7C325FC1C697,2023-09-27_14h09.41.110,WP_VExplicitOC_HL,2022.2.5,Win32,16.86966497,NA,NA,NA,NA,NA,NA,NA,NA,NA,NA,NA,NA,NA,NA,NA,NA,NA,NA,watch a short animation,008.png,NA,NA,NA,NA,NA,NA,NA,NA,NA,NA,NA,NA,NA,NA,NA,NA,71.09375,0.2708,0,7,7,7,1,NA,NA,NA,NA,NA,NA,NA,NA,NA,NA,NA,NA,NA,NA,NA,NA
SUPAMT16874,36WLNQG7859EUKCNOKSIV5Q3FTYEB1,67D03FFB-350E-47E8-BD3C-7C325FC1C697,2023-09-27_14h09.41.110,WP_VExplicitOC_HL,2022.2.5,Win32,16.86966497,NA,NA,NA,NA,NA,NA,NA,NA,NA,NA,NA,NA,NA,NA,NA,NA,NA,NA,read a novel,009.png,NA,NA,NA,NA,NA,NA,NA,NA,NA,NA,NA,NA,NA,NA,NA,NA,71.09375,0.2631,0,8,8,8,1,NA,NA,NA,NA,NA,NA,NA,NA,NA,NA,NA,NA,NA,NA,NA,NA
SUPAMT16874,36WLNQG7859EUKCNOKSIV5Q3FTYEB1,67D03FFB-350E-47E8-BD3C-7C325FC1C697,2023-09-27_14h09.41.110,WP_VExplicitOC_HL,2022.2.5,Win32,16.86966497,NA,NA,NA,NA,NA,NA,NA,NA,NA,NA,NA,NA,NA,NA,NA,NA,NA,NA,read the news,010.png,NA,NA,NA,NA,NA,NA,NA,NA,NA,NA,NA,NA,NA,NA,NA,NA,71.09375,0.3382,0,9,9,9,1,NA,NA,NA,NA,NA,NA,NA,NA,NA,NA,NA,NA,NA,NA,NA,NA
SUPAMT16874,36WLNQG7859EUKCNOKSIV5Q3FTYEB1,67D03FFB-350E-47E8-BD3C-7C325FC1C697,2023-09-27_14h09.41.110,WP_VExplicitOC_HL,2022.2.5,Win32,16.86966497,NA,NA,NA,NA,NA,NA,NA,NA,NA,NA,NA,NA,NA,NA,NA,NA,NA,NA,NA,NA,NA,NA,NA,NA,NA,NA,NA,NA,NA,NA,NA,NA,NA,NA,NA,NA,NA,NA,NA,NA,NA,NA,NA,stand up,NA,NA,NA,NA,NA,NA,NA,NA,NA,NA,NA,NA,NA,NA,NA
SUPAMT16874,36WLNQG7859EUKCNOKSIV5Q3FTYEB1,67D03FFB-350E-47E8-BD3C-7C325FC1C697,2023-09-27_14h09.41.110,WP_VExplicitOC_HL,2022.2.5,Win32,16.86966497,71.09375,4.8856,2.0409,NA,NA,NA,NA,NA,frustrated,"frustrated, not frustrated","more frustrated, less frustrated",NA,NA,NA,NA,NA,NA,NA,NA,NA,NA,NA,NA,NA,NA,NA,NA,NA,NA,NA,NA,NA,NA,NA,NA,NA,NA,NA,NA,NA,NA,NA,NA,NA,0,0,0,1,1,NA,NA,NA,NA,NA,NA,NA,NA,NA,NA
SUPAMT16874,36WLNQG7859EUKCNOKSIV5Q3FTYEB1,67D03FFB-350E-47E8-BD3C-7C325FC1C697,2023-09-27_14h09.41.110,WP_VExplicitOC_HL,2022.2.5,Win32,16.86966497,71.09375,3.7517,2.0421,NA,NA,NA,NA,NA,happy,"unhappy, happy","less happy, more happy",NA,NA,NA,NA,NA,NA,NA,NA,NA,NA,NA,NA,NA,NA,NA,NA,NA,NA,NA,NA,NA,NA,NA,NA,NA,NA,NA,NA,NA,NA,NA,NA,NA,0,1,1,0,1,NA,NA,NA,NA,NA,NA,NA,NA,NA,NA
SUPAMT16874,36WLNQG7859EUKCNOKSIV5Q3FTYEB1,67D03FFB-350E-47E8-BD3C-7C325FC1C697,2023-09-27_14h09.41.110,WP_VExplicitOC_HL,2022.2.5,Win32,16.86966497,71.09375,3.0402,2.0013,NA,NA,NA,NA,NA,bored,"bored, not bored","more bored, less bored",NA,NA,NA,NA,NA,NA,NA,NA,NA,NA,NA,NA,NA,NA,NA,NA,NA,NA,NA,NA,NA,NA,NA,NA,NA,NA,NA,NA,NA,NA,NA,NA,NA,0,2,2,2,1,NA,NA,NA,NA,NA,NA,NA,NA,NA,NA
SUPAMT16874,36WLNQG7859EUKCNOKSIV5Q3FTYEB1,67D03FFB-350E-47E8-BD3C-7C325FC1C697,2023-09-27_14h09.41.110,WP_VExplicitOC_HL,2022.2.5,Win32,16.86966497,NA,NA,NA,NA,NA,NA,NA,NA,NA,NA,NA,NA,NA,NA,NA,NA,NA,NA,NA,NA,NA,NA,NA,NA,NA,NA,NA,NA,NA,NA,NA,NA,NA,NA,NA,NA,NA,NA,NA,NA,NA,NA,NA,NA,NA,NA,NA,NA,NA,NA,NA,NA,NA,NA,NA,NA,NA,NA,NA
SUPAMT16874,36WLNQG7859EUKCNOKSIV5Q3FTYEB1,67D03FFB-350E-47E8-BD3C-7C325FC1C697,2023-09-27_14h09.41.110,WP_VExplicitOC_HL,2022.2.5,Win32,16.86966497,NA,NA,NA,NA,NA,NA,NA,NA,NA,NA,NA,NA,NA,NA,NA,NA,NA,NA,NA,NA,NA,NA,NA,NA,NA,NA,NA,NA,NA,NA,NA,NA,NA,NA,NA,NA,NA,NA,NA,NA,NA,NA,NA,NA,NA,NA,NA,NA,NA,NA,NA,NA,NA,NA,NA,NA,NA,NA,NA
SUPAMT16874,36WLNQG7859EUKCNOKSIV5Q3FTYEB1,67D03FFB-350E-47E8-BD3C-7C325FC1C697,2023-09-27_14h09.41.110,WP_VExplicitOC_HL,2022.2.5,Win32,16.86966497,NA,NA,2.0518,NA,NA,NA,NA,NA,frustrated,"frustrated, not frustrated","more frustrated, less frustrated",NA,NA,NA,NA,NA,NA,NA,NA,NA,NA,NA,NA,NA,NA,NA,NA,NA,NA,NA,NA,NA,NA,NA,NA,NA,NA,NA,NA,NA,NA,NA,NA,NA,NA,NA,NA,NA,NA,0,0,0,1,1,NA,NA,NA,NA,NA
SUPAMT16874,36WLNQG7859EUKCNOKSIV5Q3FTYEB1,67D03FFB-350E-47E8-BD3C-7C325FC1C697,2023-09-27_14h09.41.110,WP_VExplicitOC_HL,2022.2.5,Win32,16.86966497,71.09375,4.3901,2.0136,NA,NA,NA,NA,NA,happy,"unhappy, happy","less happy, more happy",NA,NA,NA,NA,NA,NA,NA,NA,NA,NA,NA,NA,NA,NA,NA,NA,NA,NA,NA,NA,NA,NA,NA,NA,NA,NA,NA,NA,NA,NA,NA,NA,NA,NA,NA,NA,NA,NA,0,1,1,0,1,NA,NA,NA,NA,NA
SUPAMT16874,36WLNQG7859EUKCNOKSIV5Q3FTYEB1,67D03FFB-350E-47E8-BD3C-7C325FC1C697,2023-09-27_14h09.41.110,WP_VExplicitOC_HL,2022.2.5,Win32,16.86966497,71.09375,7.0745,2.0416,NA,NA,NA,NA,NA,bored,"bored, not bored","more bored, less bored",NA,NA,NA,NA,NA,NA,NA,NA,NA,NA,NA,NA,NA,NA,NA,NA,NA,NA,NA,NA,NA,NA,NA,NA,NA,NA,NA,NA,NA,NA,NA,NA,NA,NA,NA,NA,NA,NA,0,2,2,2,1,NA,NA,NA,NA,NA
SUPAMT16874,36WLNQG7859EUKCNOKSIV5Q3FTYEB1,67D03FFB-350E-47E8-BD3C-7C325FC1C697,2023-09-27_14h09.41.110,WP_VExplicitOC_HL,2022.2.5,Win32,16.86966497,NA,NA,NA,NA,NA,NA,NA,NA,NA,NA,NA,NA,NA,NA,NA,NA,NA,NA,NA,NA,NA,NA,NA,NA,NA,NA,NA,NA,NA,NA,NA,NA,NA,NA,NA,NA,NA,NA,NA,NA,NA,NA,NA,NA,NA,NA,NA,NA,NA,NA,NA,NA,NA,NA,0,0,0,0,1
SUPAMT16874,36WLNQG7859EUKCNOKSIV5Q3FTYEB1,67D03FFB-350E-47E8-BD3C-7C325FC1C697,2023-09-27_14h09.41.110,WP_VExplicitOC_HL,2022.2.5,Win32,16.86966497,81.25,4.2881,2.0095,NA,NA,NA,NA,NA,happy,"unhappy, happy","less happy, more happy",NA,NA,NA,NA,NA,NA,NA,NA,NA,NA,NA,NA,NA,NA,NA,NA,NA,NA,NA,NA,NA,NA,NA,NA,NA,NA,NA,NA,NA,NA,NA,NA,NA,NA,NA,NA,NA,NA,0,0,0,0,1,NA,NA,NA,NA,NA
SUPAMT16874,36WLNQG7859EUKCNOKSIV5Q3FTYEB1,67D03FFB-350E-47E8-BD3C-7C325FC1C697,2023-09-27_14h09.41.110,WP_VExplicitOC_HL,2022.2.5,Win32,16.86966497,83.0078125,4.4249,2.0421,NA,NA,NA,NA,NA,frustrated,"frustrated, not frustrated","more frustrated, less frustrated",NA,NA,NA,NA,NA,NA,NA,NA,NA,NA,NA,NA,NA,NA,NA,NA,NA,NA,NA,NA,NA,NA,NA,NA,NA,NA,NA,NA,NA,NA,NA,NA,NA,NA,NA,NA,NA,NA,0,1,1,1,1,NA,NA,NA,NA,NA
SUPAMT16874,36WLNQG7859EUKCNOKSIV5Q3FTYEB1,67D03FFB-350E-47E8-BD3C-7C325FC1C697,2023-09-27_14h09.41.110,WP_VExplicitOC_HL,2022.2.5,Win32,16.86966497,83.0078125,3.8626,2.0108,NA,NA,NA,NA,NA,bored,"bored, not bored","more bored, less bored",NA,NA,NA,NA,NA,NA,NA,NA,NA,NA,NA,NA,NA,NA,NA,NA,NA,NA,NA,NA,NA,NA,NA,NA,NA,NA,NA,NA,NA,NA,NA,NA,NA,NA,NA,NA,NA,NA,0,2,2,2,1,NA,NA,NA,NA,NA
SUPAMT16874,36WLNQG7859EUKCNOKSIV5Q3FTYEB1,67D03FFB-350E-47E8-BD3C-7C325FC1C697,2023-09-27_14h09.41.110,WP_VExplicitOC_HL,2022.2.5,Win32,16.86966497,NA,NA,NA,NA,NA,NA,NA,NA,NA,NA,NA,NA,NA,NA,NA,NA,NA,NA,NA,NA,NA,NA,NA,NA,NA,NA,NA,NA,NA,NA,NA,NA,NA,NA,NA,NA,NA,NA,NA,NA,NA,NA,NA,NA,NA,NA,NA,NA,NA,NA,NA,NA,NA,NA,1,0,1,0,1
SUPAMT16874,36WLNQG7859EUKCNOKSIV5Q3FTYEB1,67D03FFB-350E-47E8-BD3C-7C325FC1C697,2023-09-27_14h09.41.110,WP_VExplicitOC_HL,2022.2.5,Win32,16.86966497,72.4609375,4.6321,2.0592,NA,NA,NA,NA,NA,bored,"bored, not bored","more bored, less bored",NA,NA,NA,NA,NA,NA,NA,NA,NA,NA,NA,NA,NA,NA,NA,NA,NA,NA,NA,NA,NA,NA,NA,NA,NA,NA,NA,NA,NA,NA,NA,NA,NA,NA,NA,NA,NA,NA,0,0,0,2,1,NA,NA,NA,NA,NA
SUPAMT16874,36WLNQG7859EUKCNOKSIV5Q3FTYEB1,67D03FFB-350E-47E8-BD3C-7C325FC1C697,2023-09-27_14h09.41.110,WP_VExplicitOC_HL,2022.2.5,Win32,16.86966497,72.65625,4.1816,2.0059,NA,NA,NA,NA,NA,frustrated,"frustrated, not frustrated","more frustrated, less frustrated",NA,NA,NA,NA,NA,NA,NA,NA,NA,NA,NA,NA,NA,NA,NA,NA,NA,NA,NA,NA,NA,NA,NA,NA,NA,NA,NA,NA,NA,NA,NA,NA,NA,NA,NA,NA,NA,NA,0,1,1,1,1,NA,NA,NA,NA,NA
SUPAMT16874,36WLNQG7859EUKCNOKSIV5Q3FTYEB1,67D03FFB-350E-47E8-BD3C-7C325FC1C697,2023-09-27_14h09.41.110,WP_VExplicitOC_HL,2022.2.5,Win32,16.86966497,72.8515625,3.6223,2.0141,NA,NA,NA,NA,NA,happy,"unhappy, happy","less happy, more happy",NA,NA,NA,NA,NA,NA,NA,NA,NA,NA,NA,NA,NA,NA,NA,NA,NA,NA,NA,NA,NA,NA,NA,NA,NA,NA,NA,NA,NA,NA,NA,NA,NA,NA,NA,NA,NA,NA,0,2,2,0,1,NA,NA,NA,NA,NA
SUPAMT16874,36WLNQG7859EUKCNOKSIV5Q3FTYEB1,67D03FFB-350E-47E8-BD3C-7C325FC1C697,2023-09-27_14h09.41.110,WP_VExplicitOC_HL,2022.2.5,Win32,16.86966497,NA,NA,NA,NA,NA,NA,NA,NA,NA,NA,NA,NA,NA,NA,NA,NA,NA,NA,NA,NA,NA,NA,NA,NA,NA,NA,NA,NA,NA,NA,NA,NA,NA,NA,NA,NA,NA,NA,NA,NA,NA,NA,NA,NA,NA,NA,NA,NA,NA,NA,NA,NA,NA,NA,2,0,2,0,1
SUPAMT16874,36WLNQG7859EUKCNOKSIV5Q3FTYEB1,67D03FFB-350E-47E8-BD3C-7C325FC1C697,2023-09-27_14h09.41.110,WP_VExplicitOC_HL,2022.2.5,Win32,16.86966497,82.2265625,5.2676,2.0176,NA,NA,NA,NA,NA,happy,"unhappy, happy","less happy, more happy",NA,NA,NA,NA,NA,NA,NA,NA,NA,NA,NA,NA,NA,NA,NA,NA,NA,NA,NA,NA,NA,NA,NA,NA,NA,NA,NA,NA,NA,NA,NA,NA,NA,NA,NA,NA,NA,NA,0,0,0,0,1,NA,NA,NA,NA,NA
SUPAMT16874,36WLNQG7859EUKCNOKSIV5Q3FTYEB1,67D03FFB-350E-47E8-BD3C-7C325FC1C697,2023-09-27_14h09.41.110,WP_VExplicitOC_HL,2022.2.5,Win32,16.86966497,74.8046875,4.0327,2.0378,NA,NA,NA,NA,NA,bored,"bored, not bored","more bored, less bored",NA,NA,NA,NA,NA,NA,NA,NA,NA,NA,NA,NA,NA,NA,NA,NA,NA,NA,NA,NA,NA,NA,NA,NA,NA,NA,NA,NA,NA,NA,NA,NA,NA,NA,NA,NA,NA,NA,0,1,1,2,1,NA,NA,NA,NA,NA
SUPAMT16874,36WLNQG7859EUKCNOKSIV5Q3FTYEB1,67D03FFB-350E-47E8-BD3C-7C325FC1C697,2023-09-27_14h09.41.110,WP_VExplicitOC_HL,2022.2.5,Win32,16.86966497,77.734375,3.9709,2.0494,NA,NA,NA,NA,NA,frustrated,"frustrated, not frustrated","more frustrated, less frustrated",NA,NA,NA,NA,NA,NA,NA,NA,NA,NA,NA,NA,NA,NA,NA,NA,NA,NA,NA,NA,NA,NA,NA,NA,NA,NA,NA,NA,NA,NA,NA,NA,NA,NA,NA,NA,NA,NA,0,2,2,1,1,NA,NA,NA,NA,NA
SUPAMT16874,36WLNQG7859EUKCNOKSIV5Q3FTYEB1,67D03FFB-350E-47E8-BD3C-7C325FC1C697,2023-09-27_14h09.41.110,WP_VExplicitOC_HL,2022.2.5,Win32,16.86966497,NA,NA,NA,NA,NA,NA,NA,NA,NA,NA,NA,NA,NA,NA,NA,NA,NA,NA,NA,NA,NA,NA,NA,NA,NA,NA,NA,NA,NA,NA,NA,NA,NA,NA,NA,NA,NA,NA,NA,NA,NA,NA,NA,NA,NA,NA,NA,NA,NA,NA,NA,NA,NA,NA,3,0,3,0,1
SUPAMT16874,36WLNQG7859EUKCNOKSIV5Q3FTYEB1,67D03FFB-350E-47E8-BD3C-7C325FC1C697,2023-09-27_14h09.41.110,WP_VExplicitOC_HL,2022.2.5,Win32,16.86966497,78.7109375,5.7969,2.008,NA,NA,NA,NA,NA,frustrated,"frustrated, not frustrated","more frustrated, less frustrated",NA,NA,NA,NA,NA,NA,NA,NA,NA,NA,NA,NA,NA,NA,NA,NA,NA,NA,NA,NA,NA,NA,NA,NA,NA,NA,NA,NA,NA,NA,NA,NA,NA,NA,NA,NA,NA,NA,0,0,0,1,1,NA,NA,NA,NA,NA
SUPAMT16874,36WLNQG7859EUKCNOKSIV5Q3FTYEB1,67D03FFB-350E-47E8-BD3C-7C325FC1C697,2023-09-27_14h09.41.110,WP_VExplicitOC_HL,2022.2.5,Win32,16.86966497,82.8125,6.5777,2.0405,NA,NA,NA,NA,NA,bored,"bored, not bored","more bored, less bored",NA,NA,NA,NA,NA,NA,NA,NA,NA,NA,NA,NA,NA,NA,NA,NA,NA,NA,NA,NA,NA,NA,NA,NA,NA,NA,NA,NA,NA,NA,NA,NA,NA,NA,NA,NA,NA,NA,0,1,1,2,1,NA,NA,NA,NA,NA
SUPAMT16874,36WLNQG7859EUKCNOKSIV5Q3FTYEB1,67D03FFB-350E-47E8-BD3C-7C325FC1C697,2023-09-27_14h09.41.110,WP_VExplicitOC_HL,2022.2.5,Win32,16.86966497,NA,NA,2.0593,NA,NA,NA,NA,NA,happy,"unhappy, happy","less happy, more happy",NA,NA,NA,NA,NA,NA,NA,NA,NA,NA,NA,NA,NA,NA,NA,NA,NA,NA,NA,NA,NA,NA,NA,NA,NA,NA,NA,NA,NA,NA,NA,NA,NA,NA,NA,NA,NA,NA,0,2,2,0,1,NA,NA,NA,NA,NA
SUPAMT16874,36WLNQG7859EUKCNOKSIV5Q3FTYEB1,67D03FFB-350E-47E8-BD3C-7C325FC1C697,2023-09-27_14h09.41.110,WP_VExplicitOC_HL,2022.2.5,Win32,16.86966497,NA,NA,NA,NA,NA,NA,NA,NA,NA,NA,NA,NA,NA,NA,NA,NA,NA,NA,NA,NA,NA,NA,NA,NA,NA,NA,NA,NA,NA,NA,NA,NA,NA,NA,NA,NA,NA,NA,NA,NA,NA,NA,NA,NA,NA,NA,NA,NA,NA,NA,NA,NA,NA,NA,4,0,4,0,1
SUPAMT16874,36WLNQG7859EUKCNOKSIV5Q3FTYEB1,67D03FFB-350E-47E8-BD3C-7C325FC1C697,2023-09-27_14h09.41.110,WP_VExplicitOC_HL,2022.2.5,Win32,16.86966497,83.0078125,5.4519,2.0018,NA,NA,NA,NA,NA,happy,"unhappy, happy","less happy, more happy",NA,NA,NA,NA,NA,NA,NA,NA,NA,NA,NA,NA,NA,NA,NA,NA,NA,NA,NA,NA,NA,NA,NA,NA,NA,NA,NA,NA,NA,NA,NA,NA,NA,NA,NA,NA,NA,NA,0,0,0,0,1,NA,NA,NA,NA,NA
SUPAMT16874,36WLNQG7859EUKCNOKSIV5Q3FTYEB1,67D03FFB-350E-47E8-BD3C-7C325FC1C697,2023-09-27_14h09.41.110,WP_VExplicitOC_HL,2022.2.5,Win32,16.86966497,83.984375,4.3982,2.0181,NA,NA,NA,NA,NA,bored,"bored, not bored","more bored, less bored",NA,NA,NA,NA,NA,NA,NA,NA,NA,NA,NA,NA,NA,NA,NA,NA,NA,NA,NA,NA,NA,NA,NA,NA,NA,NA,NA,NA,NA,NA,NA,NA,NA,NA,NA,NA,NA,NA,0,1,1,2,1,NA,NA,NA,NA,NA
SUPAMT16874,36WLNQG7859EUKCNOKSIV5Q3FTYEB1,67D03FFB-350E-47E8-BD3C-7C325FC1C697,2023-09-27_14h09.41.110,WP_VExplicitOC_HL,2022.2.5,Win32,16.86966497,66.9921875,6.3411,2.0442,NA,NA,NA,NA,NA,frustrated,"frustrated, not frustrated","more frustrated, less frustrated",NA,NA,NA,NA,NA,NA,NA,NA,NA,NA,NA,NA,NA,NA,NA,NA,NA,NA,NA,NA,NA,NA,NA,NA,NA,NA,NA,NA,NA,NA,NA,NA,NA,NA,NA,NA,NA,NA,0,2,2,1,1,NA,NA,NA,NA,NA
SUPAMT16874,36WLNQG7859EUKCNOKSIV5Q3FTYEB1,67D03FFB-350E-47E8-BD3C-7C325FC1C697,2023-09-27_14h09.41.110,WP_VExplicitOC_HL,2022.2.5,Win32,16.86966497,NA,NA,NA,NA,NA,NA,NA,NA,NA,NA,NA,NA,NA,NA,NA,NA,NA,NA,NA,NA,NA,NA,NA,NA,NA,NA,NA,NA,NA,NA,NA,NA,NA,NA,NA,NA,NA,NA,NA,NA,NA,NA,NA,NA,NA,NA,NA,NA,NA,NA,NA,NA,NA,NA,5,0,5,0,1
SUPAMT16874,36WLNQG7859EUKCNOKSIV5Q3FTYEB1,67D03FFB-350E-47E8-BD3C-7C325FC1C697,2023-09-27_14h09.41.110,WP_VExplicitOC_HL,2022.2.5,Win32,16.86966497,67.1875,5.4349,2.0186,NA,NA,NA,NA,NA,bored,"bored, not bored","more bored, less bored",NA,NA,NA,NA,NA,NA,NA,NA,NA,NA,NA,NA,NA,NA,NA,NA,NA,NA,NA,NA,NA,NA,NA,NA,NA,NA,NA,NA,NA,NA,NA,NA,NA,NA,NA,NA,NA,NA,0,0,0,2,1,NA,NA,NA,NA,NA
SUPAMT16874,36WLNQG7859EUKCNOKSIV5Q3FTYEB1,67D03FFB-350E-47E8-BD3C-7C325FC1C697,2023-09-27_14h09.41.110,WP_VExplicitOC_HL,2022.2.5,Win32,16.86966497,NA,NA,2.0299,NA,NA,NA,NA,NA,happy,"unhappy, happy","less happy, more happy",NA,NA,NA,NA,NA,NA,NA,NA,NA,NA,NA,NA,NA,NA,NA,NA,NA,NA,NA,NA,NA,NA,NA,NA,NA,NA,NA,NA,NA,NA,NA,NA,NA,NA,NA,NA,NA,NA,0,1,1,0,1,NA,NA,NA,NA,NA
SUPAMT16874,36WLNQG7859EUKCNOKSIV5Q3FTYEB1,67D03FFB-350E-47E8-BD3C-7C325FC1C697,2023-09-27_14h09.41.110,WP_VExplicitOC_HL,2022.2.5,Win32,16.86966497,67.1875,3.1592,2.0364,NA,NA,NA,NA,NA,frustrated,"frustrated, not frustrated","more frustrated, less frustrated",NA,NA,NA,NA,NA,NA,NA,NA,NA,NA,NA,NA,NA,NA,NA,NA,NA,NA,NA,NA,NA,NA,NA,NA,NA,NA,NA,NA,NA,NA,NA,NA,NA,NA,NA,NA,NA,NA,0,2,2,1,1,NA,NA,NA,NA,NA
SUPAMT16874,36WLNQG7859EUKCNOKSIV5Q3FTYEB1,67D03FFB-350E-47E8-BD3C-7C325FC1C697,2023-09-27_14h09.41.110,WP_VExplicitOC_HL,2022.2.5,Win32,16.86966497,NA,NA,NA,NA,NA,NA,NA,NA,NA,NA,NA,NA,NA,NA,NA,NA,NA,NA,NA,NA,NA,NA,NA,NA,NA,NA,NA,NA,NA,NA,NA,NA,NA,NA,NA,NA,NA,NA,NA,NA,NA,NA,NA,NA,NA,NA,NA,NA,NA,NA,NA,NA,NA,NA,6,0,6,0,1
SUPAMT16874,36WLNQG7859EUKCNOKSIV5Q3FTYEB1,67D03FFB-350E-47E8-BD3C-7C325FC1C697,2023-09-27_14h09.41.110,WP_VExplicitOC_HL,2022.2.5,Win32,16.86966497,78.125,3.9768,2.02,NA,NA,NA,NA,NA,happy,"unhappy, happy","less happy, more happy",NA,NA,NA,NA,NA,NA,NA,NA,NA,NA,NA,NA,NA,NA,NA,NA,NA,NA,NA,NA,NA,NA,NA,NA,NA,NA,NA,NA,NA,NA,NA,NA,NA,NA,NA,NA,NA,NA,0,0,0,0,1,NA,NA,NA,NA,NA
SUPAMT16874,36WLNQG7859EUKCNOKSIV5Q3FTYEB1,67D03FFB-350E-47E8-BD3C-7C325FC1C697,2023-09-27_14h09.41.110,WP_VExplicitOC_HL,2022.2.5,Win32,16.86966497,78.125,5.5246,2.0604,NA,NA,NA,NA,NA,frustrated,"frustrated, not frustrated","more frustrated, less frustrated",NA,NA,NA,NA,NA,NA,NA,NA,NA,NA,NA,NA,NA,NA,NA,NA,NA,NA,NA,NA,NA,NA,NA,NA,NA,NA,NA,NA,NA,NA,NA,NA,NA,NA,NA,NA,NA,NA,0,1,1,1,1,NA,NA,NA,NA,NA
SUPAMT16874,36WLNQG7859EUKCNOKSIV5Q3FTYEB1,67D03FFB-350E-47E8-BD3C-7C325FC1C697,2023-09-27_14h09.41.110,WP_VExplicitOC_HL,2022.2.5,Win32,16.86966497,86.71875,4.2483,2.0425,NA,NA,NA,NA,NA,bored,"bored, not bored","more bored, less bored",NA,NA,NA,NA,NA,NA,NA,NA,NA,NA,NA,NA,NA,NA,NA,NA,NA,NA,NA,NA,NA,NA,NA,NA,NA,NA,NA,NA,NA,NA,NA,NA,NA,NA,NA,NA,NA,NA,0,2,2,2,1,NA,NA,NA,NA,NA
SUPAMT16874,36WLNQG7859EUKCNOKSIV5Q3FTYEB1,67D03FFB-350E-47E8-BD3C-7C325FC1C697,2023-09-27_14h09.41.110,WP_VExplicitOC_HL,2022.2.5,Win32,16.86966497,NA,NA,NA,NA,NA,NA,NA,NA,NA,NA,NA,NA,NA,NA,NA,NA,NA,NA,NA,NA,NA,NA,NA,NA,NA,NA,NA,NA,NA,NA,NA,NA,NA,NA,NA,NA,NA,NA,NA,NA,NA,NA,NA,NA,NA,NA,NA,NA,NA,NA,NA,NA,NA,NA,7,0,7,0,1
SUPAMT16874,36WLNQG7859EUKCNOKSIV5Q3FTYEB1,67D03FFB-350E-47E8-BD3C-7C325FC1C697,2023-09-27_14h09.41.110,WP_VExplicitOC_HL,2022.2.5,Win32,16.86966497,83.0078125,4.4444,2.0091,NA,NA,NA,NA,NA,frustrated,"frustrated, not frustrated","more frustrated, less frustrated",NA,NA,NA,NA,NA,NA,NA,NA,NA,NA,NA,NA,NA,NA,NA,NA,NA,NA,NA,NA,NA,NA,NA,NA,NA,NA,NA,NA,NA,NA,NA,NA,NA,NA,NA,NA,NA,NA,0,0,0,1,1,NA,NA,NA,NA,NA
SUPAMT16874,36WLNQG7859EUKCNOKSIV5Q3FTYEB1,67D03FFB-350E-47E8-BD3C-7C325FC1C697,2023-09-27_14h09.41.110,WP_VExplicitOC_HL,2022.2.5,Win32,16.86966497,80.859375,4.2602,2.043,NA,NA,NA,NA,NA,bored,"bored, not bored","more bored, less bored",NA,NA,NA,NA,NA,NA,NA,NA,NA,NA,NA,NA,NA,NA,NA,NA,NA,NA,NA,NA,NA,NA,NA,NA,NA,NA,NA,NA,NA,NA,NA,NA,NA,NA,NA,NA,NA,NA,0,1,1,2,1,NA,NA,NA,NA,NA
SUPAMT16874,36WLNQG7859EUKCNOKSIV5Q3FTYEB1,67D03FFB-350E-47E8-BD3C-7C325FC1C697,2023-09-27_14h09.41.110,WP_VExplicitOC_HL,2022.2.5,Win32,16.86966497,81.0546875,3.6789,2.0471,NA,NA,NA,NA,NA,happy,"unhappy, happy","less happy, more happy",NA,NA,NA,NA,NA,NA,NA,NA,NA,NA,NA,NA,NA,NA,NA,NA,NA,NA,NA,NA,NA,NA,NA,NA,NA,NA,NA,NA,NA,NA,NA,NA,NA,NA,NA,NA,NA,NA,0,2,2,0,1,NA,NA,NA,NA,NA
SUPAMT16874,36WLNQG7859EUKCNOKSIV5Q3FTYEB1,67D03FFB-350E-47E8-BD3C-7C325FC1C697,2023-09-27_14h09.41.110,WP_VExplicitOC_HL,2022.2.5,Win32,16.86966497,NA,NA,NA,NA,NA,NA,NA,NA,NA,NA,NA,NA,NA,NA,NA,NA,NA,NA,NA,NA,NA,NA,NA,NA,NA,NA,NA,NA,NA,NA,NA,NA,NA,NA,NA,NA,NA,NA,NA,NA,NA,NA,NA,NA,NA,NA,NA,NA,NA,NA,NA,NA,NA,NA,8,0,8,0,1
SUPAMT16874,36WLNQG7859EUKCNOKSIV5Q3FTYEB1,67D03FFB-350E-47E8-BD3C-7C325FC1C697,2023-09-27_14h09.41.110,WP_VExplicitOC_HL,2022.2.5,Win32,16.86966497,84.375,6.433,2.0517,NA,NA,NA,NA,NA,happy,"unhappy, happy","less happy, more happy",NA,NA,NA,NA,NA,NA,NA,NA,NA,NA,NA,NA,NA,NA,NA,NA,NA,NA,NA,NA,NA,NA,NA,NA,NA,NA,NA,NA,NA,NA,NA,NA,NA,NA,NA,NA,NA,NA,0,0,0,0,1,NA,NA,NA,NA,NA
SUPAMT16874,36WLNQG7859EUKCNOKSIV5Q3FTYEB1,67D03FFB-350E-47E8-BD3C-7C325FC1C697,2023-09-27_14h09.41.110,WP_VExplicitOC_HL,2022.2.5,Win32,16.86966497,74.8046875,3.6041,2.0474,NA,NA,NA,NA,NA,frustrated,"frustrated, not frustrated","more frustrated, less frustrated",NA,NA,NA,NA,NA,NA,NA,NA,NA,NA,NA,NA,NA,NA,NA,NA,NA,NA,NA,NA,NA,NA,NA,NA,NA,NA,NA,NA,NA,NA,NA,NA,NA,NA,NA,NA,NA,NA,0,1,1,1,1,NA,NA,NA,NA,NA
SUPAMT16874,36WLNQG7859EUKCNOKSIV5Q3FTYEB1,67D03FFB-350E-47E8-BD3C-7C325FC1C697,2023-09-27_14h09.41.110,WP_VExplicitOC_HL,2022.2.5,Win32,16.86966497,81.8359375,4.2222,2.0025,NA,NA,NA,NA,NA,bored,"bored, not bored","more bored, less bored",NA,NA,NA,NA,NA,NA,NA,NA,NA,NA,NA,NA,NA,NA,NA,NA,NA,NA,NA,NA,NA,NA,NA,NA,NA,NA,NA,NA,NA,NA,NA,NA,NA,NA,NA,NA,NA,NA,0,2,2,2,1,NA,NA,NA,NA,NA
SUPAMT16874,36WLNQG7859EUKCNOKSIV5Q3FTYEB1,67D03FFB-350E-47E8-BD3C-7C325FC1C697,2023-09-27_14h09.41.110,WP_VExplicitOC_HL,2022.2.5,Win32,16.86966497,NA,NA,NA,NA,NA,NA,NA,NA,NA,NA,NA,NA,NA,NA,NA,NA,NA,NA,NA,NA,NA,NA,NA,NA,NA,NA,NA,NA,NA,NA,NA,NA,NA,NA,NA,NA,NA,NA,NA,NA,NA,NA,NA,NA,NA,NA,NA,NA,NA,NA,NA,NA,NA,NA,9,0,9,0,1
SUPAMT16874,36WLNQG7859EUKCNOKSIV5Q3FTYEB1,67D03FFB-350E-47E8-BD3C-7C325FC1C697,2023-09-27_14h09.41.110,WP_VExplicitOC_HL,2022.2.5,Win32,16.86966497,78.90625,4.9312,2.0116,NA,NA,NA,NA,NA,happy,"unhappy, happy","less happy, more happy",NA,NA,NA,NA,NA,NA,NA,NA,NA,NA,NA,NA,NA,NA,NA,NA,NA,NA,NA,NA,NA,NA,NA,NA,NA,NA,NA,NA,NA,NA,NA,NA,NA,NA,NA,NA,NA,NA,0,0,0,0,1,NA,NA,NA,NA,NA
SUPAMT16874,36WLNQG7859EUKCNOKSIV5Q3FTYEB1,67D03FFB-350E-47E8-BD3C-7C325FC1C697,2023-09-27_14h09.41.110,WP_VExplicitOC_HL,2022.2.5,Win32,16.86966497,84.1796875,4.0718,2.0277,NA,NA,NA,NA,NA,frustrated,"frustrated, not frustrated","more frustrated, less frustrated",NA,NA,NA,NA,NA,NA,NA,NA,NA,NA,NA,NA,NA,NA,NA,NA,NA,NA,NA,NA,NA,NA,NA,NA,NA,NA,NA,NA,NA,NA,NA,NA,NA,NA,NA,NA,NA,NA,0,1,1,1,1,NA,NA,NA,NA,NA
SUPAMT16874,36WLNQG7859EUKCNOKSIV5Q3FTYEB1,67D03FFB-350E-47E8-BD3C-7C325FC1C697,2023-09-27_14h09.41.110,WP_VExplicitOC_HL,2022.2.5,Win32,16.86966497,79.6875,3.3684,2.001,NA,NA,NA,NA,NA,bored,"bored, not bored","more bored, less bored",NA,NA,NA,NA,NA,NA,NA,NA,NA,NA,NA,NA,NA,NA,NA,NA,NA,NA,NA,NA,NA,NA,NA,NA,NA,NA,NA,NA,NA,NA,NA,NA,NA,NA,NA,NA,NA,NA,0,2,2,2,1,NA,NA,NA,NA,NA
SUPAMT16874,36WLNQG7859EUKCNOKSIV5Q3FTYEB1,67D03FFB-350E-47E8-BD3C-7C325FC1C697,2023-09-27_14h09.41.110,WP_VExplicitOC_HL,2022.2.5,Win32,16.86966497,NA,NA,NA,NA,NA,NA,NA,NA,NA,NA,NA,NA,NA,NA,NA,NA,NA,NA,NA,NA,NA,NA,NA,NA,NA,NA,NA,NA,NA,NA,NA,NA,NA,NA,NA,NA,NA,NA,NA,NA,NA,NA,NA,NA,NA,NA,NA,NA,NA,NA,NA,NA,NA,NA,10,0,10,0,1
SUPAMT16874,36WLNQG7859EUKCNOKSIV5Q3FTYEB1,67D03FFB-350E-47E8-BD3C-7C325FC1C697,2023-09-27_14h09.41.110,WP_VExplicitOC_HL,2022.2.5,Win32,16.86966497,79.6875,5.1116,2.0572,NA,NA,NA,NA,NA,happy,"unhappy, happy","less happy, more happy",NA,NA,NA,NA,NA,NA,NA,NA,NA,NA,NA,NA,NA,NA,NA,NA,NA,NA,NA,NA,NA,NA,NA,NA,NA,NA,NA,NA,NA,NA,NA,NA,NA,NA,NA,NA,NA,NA,0,0,0,0,1,NA,NA,NA,NA,NA
SUPAMT16874,36WLNQG7859EUKCNOKSIV5Q3FTYEB1,67D03FFB-350E-47E8-BD3C-7C325FC1C697,2023-09-27_14h09.41.110,WP_VExplicitOC_HL,2022.2.5,Win32,16.86966497,79.6875,4.2143,2.042,NA,NA,NA,NA,NA,bored,"bored, not bored","more bored, less bored",NA,NA,NA,NA,NA,NA,NA,NA,NA,NA,NA,NA,NA,NA,NA,NA,NA,NA,NA,NA,NA,NA,NA,NA,NA,NA,NA,NA,NA,NA,NA,NA,NA,NA,NA,NA,NA,NA,0,1,1,2,1,NA,NA,NA,NA,NA
SUPAMT16874,36WLNQG7859EUKCNOKSIV5Q3FTYEB1,67D03FFB-350E-47E8-BD3C-7C325FC1C697,2023-09-27_14h09.41.110,WP_VExplicitOC_HL,2022.2.5,Win32,16.86966497,79.6875,3.846,2.0547,NA,NA,NA,NA,NA,frustrated,"frustrated, not frustrated","more frustrated, less frustrated",NA,NA,NA,NA,NA,NA,NA,NA,NA,NA,NA,NA,NA,NA,NA,NA,NA,NA,NA,NA,NA,NA,NA,NA,NA,NA,NA,NA,NA,NA,NA,NA,NA,NA,NA,NA,NA,NA,0,2,2,1,1,NA,NA,NA,NA,NA
SUPAMT16874,36WLNQG7859EUKCNOKSIV5Q3FTYEB1,67D03FFB-350E-47E8-BD3C-7C325FC1C697,2023-09-27_14h09.41.110,WP_VExplicitOC_HL,2022.2.5,Win32,16.86966497,NA,NA,NA,NA,NA,NA,NA,NA,NA,NA,NA,NA,NA,NA,NA,NA,NA,NA,NA,NA,NA,NA,NA,NA,NA,NA,NA,NA,NA,NA,NA,NA,NA,NA,NA,NA,NA,NA,NA,NA,NA,NA,NA,NA,NA,NA,NA,NA,NA,NA,NA,NA,NA,NA,11,0,11,0,1
SUPAMT16874,36WLNQG7859EUKCNOKSIV5Q3FTYEB1,67D03FFB-350E-47E8-BD3C-7C325FC1C697,2023-09-27_14h09.41.110,WP_VExplicitOC_HL,2022.2.5,Win32,16.86966497,79.6875,3.8301,2.0109,NA,NA,NA,NA,NA,happy,"unhappy, happy","less happy, more happy",NA,NA,NA,NA,NA,NA,NA,NA,NA,NA,NA,NA,NA,NA,NA,NA,NA,NA,NA,NA,NA,NA,NA,NA,NA,NA,NA,NA,NA,NA,NA,NA,NA,NA,NA,NA,NA,NA,0,0,0,0,1,NA,NA,NA,NA,NA
SUPAMT16874,36WLNQG7859EUKCNOKSIV5Q3FTYEB1,67D03FFB-350E-47E8-BD3C-7C325FC1C697,2023-09-27_14h09.41.110,WP_VExplicitOC_HL,2022.2.5,Win32,16.86966497,79.6875,3.2327,2.0623,NA,NA,NA,NA,NA,frustrated,"frustrated, not frustrated","more frustrated, less frustrated",NA,NA,NA,NA,NA,NA,NA,NA,NA,NA,NA,NA,NA,NA,NA,NA,NA,NA,NA,NA,NA,NA,NA,NA,NA,NA,NA,NA,NA,NA,NA,NA,NA,NA,NA,NA,NA,NA,0,1,1,1,1,NA,NA,NA,NA,NA
SUPAMT16874,36WLNQG7859EUKCNOKSIV5Q3FTYEB1,67D03FFB-350E-47E8-BD3C-7C325FC1C697,2023-09-27_14h09.41.110,WP_VExplicitOC_HL,2022.2.5,Win32,16.86966497,NA,NA,2.0553,NA,NA,NA,NA,NA,bored,"bored, not bored","more bored, less bored",NA,NA,NA,NA,NA,NA,NA,NA,NA,NA,NA,NA,NA,NA,NA,NA,NA,NA,NA,NA,NA,NA,NA,NA,NA,NA,NA,NA,NA,NA,NA,NA,NA,NA,NA,NA,NA,NA,0,2,2,2,1,NA,NA,NA,NA,NA
SUPAMT16874,36WLNQG7859EUKCNOKSIV5Q3FTYEB1,67D03FFB-350E-47E8-BD3C-7C325FC1C697,2023-09-27_14h09.41.110,WP_VExplicitOC_HL,2022.2.5,Win32,16.86966497,NA,NA,NA,NA,NA,NA,NA,NA,NA,NA,NA,NA,NA,NA,NA,NA,NA,NA,NA,NA,NA,NA,NA,NA,NA,NA,NA,NA,NA,NA,NA,NA,NA,NA,NA,NA,NA,NA,NA,NA,NA,NA,NA,NA,NA,NA,NA,NA,NA,NA,NA,NA,NA,NA,12,0,12,0,1
SUPAMT16874,36WLNQG7859EUKCNOKSIV5Q3FTYEB1,67D03FFB-350E-47E8-BD3C-7C325FC1C697,2023-09-27_14h09.41.110,WP_VExplicitOC_HL,2022.2.5,Win32,16.86966497,79.6875,6.7777,2.0215,NA,NA,NA,NA,NA,frustrated,"frustrated, not frustrated","more frustrated, less frustrated",NA,NA,NA,NA,NA,NA,NA,NA,NA,NA,NA,NA,NA,NA,NA,NA,NA,NA,NA,NA,NA,NA,NA,NA,NA,NA,NA,NA,NA,NA,NA,NA,NA,NA,NA,NA,NA,NA,0,0,0,1,1,NA,NA,NA,NA,NA
SUPAMT16874,36WLNQG7859EUKCNOKSIV5Q3FTYEB1,67D03FFB-350E-47E8-BD3C-7C325FC1C697,2023-09-27_14h09.41.110,WP_VExplicitOC_HL,2022.2.5,Win32,16.86966497,78.125,3.617,2.0168,NA,NA,NA,NA,NA,happy,"unhappy, happy","less happy, more happy",NA,NA,NA,NA,NA,NA,NA,NA,NA,NA,NA,NA,NA,NA,NA,NA,NA,NA,NA,NA,NA,NA,NA,NA,NA,NA,NA,NA,NA,NA,NA,NA,NA,NA,NA,NA,NA,NA,0,1,1,0,1,NA,NA,NA,NA,NA
SUPAMT16874,36WLNQG7859EUKCNOKSIV5Q3FTYEB1,67D03FFB-350E-47E8-BD3C-7C325FC1C697,2023-09-27_14h09.41.110,WP_VExplicitOC_HL,2022.2.5,Win32,16.86966497,77.9296875,3.763,2.0353,NA,NA,NA,NA,NA,bored,"bored, not bored","more bored, less bored",NA,NA,NA,NA,NA,NA,NA,NA,NA,NA,NA,NA,NA,NA,NA,NA,NA,NA,NA,NA,NA,NA,NA,NA,NA,NA,NA,NA,NA,NA,NA,NA,NA,NA,NA,NA,NA,NA,0,2,2,2,1,NA,NA,NA,NA,NA
SUPAMT16874,36WLNQG7859EUKCNOKSIV5Q3FTYEB1,67D03FFB-350E-47E8-BD3C-7C325FC1C697,2023-09-27_14h09.41.110,WP_VExplicitOC_HL,2022.2.5,Win32,16.86966497,NA,NA,NA,NA,NA,NA,NA,NA,NA,NA,NA,NA,NA,NA,NA,NA,NA,NA,NA,NA,NA,NA,NA,NA,NA,NA,NA,NA,NA,NA,NA,NA,NA,NA,NA,NA,NA,NA,NA,NA,NA,NA,NA,NA,NA,NA,NA,NA,NA,NA,NA,NA,NA,NA,13,0,13,0,1
SUPAMT16874,36WLNQG7859EUKCNOKSIV5Q3FTYEB1,67D03FFB-350E-47E8-BD3C-7C325FC1C697,2023-09-27_14h09.41.110,WP_VExplicitOC_HL,2022.2.5,Win32,16.86966497,67.3828125,6.6454,2.0561,NA,NA,NA,NA,NA,happy,"unhappy, happy","less happy, more happy",NA,NA,NA,NA,NA,NA,NA,NA,NA,NA,NA,NA,NA,NA,NA,NA,NA,NA,NA,NA,NA,NA,NA,NA,NA,NA,NA,NA,NA,NA,NA,NA,NA,NA,NA,NA,NA,NA,0,0,0,0,1,NA,NA,NA,NA,NA
SUPAMT16874,36WLNQG7859EUKCNOKSIV5Q3FTYEB1,67D03FFB-350E-47E8-BD3C-7C325FC1C697,2023-09-27_14h09.41.110,WP_VExplicitOC_HL,2022.2.5,Win32,16.86966497,79.8828125,3.7829,2.0288,NA,NA,NA,NA,NA,bored,"bored, not bored","more bored, less bored",NA,NA,NA,NA,NA,NA,NA,NA,NA,NA,NA,NA,NA,NA,NA,NA,NA,NA,NA,NA,NA,NA,NA,NA,NA,NA,NA,NA,NA,NA,NA,NA,NA,NA,NA,NA,NA,NA,0,1,1,2,1,NA,NA,NA,NA,NA
SUPAMT16874,36WLNQG7859EUKCNOKSIV5Q3FTYEB1,67D03FFB-350E-47E8-BD3C-7C325FC1C697,2023-09-27_14h09.41.110,WP_VExplicitOC_HL,2022.2.5,Win32,16.86966497,79.8828125,6.1022,2.0438,NA,NA,NA,NA,NA,frustrated,"frustrated, not frustrated","more frustrated, less frustrated",NA,NA,NA,NA,NA,NA,NA,NA,NA,NA,NA,NA,NA,NA,NA,NA,NA,NA,NA,NA,NA,NA,NA,NA,NA,NA,NA,NA,NA,NA,NA,NA,NA,NA,NA,NA,NA,NA,0,2,2,1,1,NA,NA,NA,NA,NA
SUPAMT16874,36WLNQG7859EUKCNOKSIV5Q3FTYEB1,67D03FFB-350E-47E8-BD3C-7C325FC1C697,2023-09-27_14h09.41.110,WP_VExplicitOC_HL,2022.2.5,Win32,16.86966497,NA,NA,NA,NA,NA,NA,NA,NA,NA,NA,NA,NA,NA,NA,NA,NA,NA,NA,NA,NA,NA,NA,NA,NA,NA,NA,NA,NA,NA,NA,NA,NA,NA,NA,NA,NA,NA,NA,NA,NA,NA,NA,NA,NA,NA,NA,NA,NA,NA,NA,NA,NA,NA,NA,14,0,14,0,1
SUPAMT16874,36WLNQG7859EUKCNOKSIV5Q3FTYEB1,67D03FFB-350E-47E8-BD3C-7C325FC1C697,2023-09-27_14h09.41.110,WP_VExplicitOC_HL,2022.2.5,Win32,16.86966497,NA,NA,NA,NA,NA,NA,NA,NA,NA,NA,NA,NA,NA,NA,NA,NA,NA,NA,NA,NA,NA,NA,NA,NA,NA,NA,NA,NA,NA,NA,NA,NA,NA,NA,NA,NA,NA,NA,NA,NA,NA,NA,NA,NA,NA,NA,NA,NA,NA,NA,NA,NA,NA,NA,NA,NA,NA,NA,NA
