participant,session,completion,date,expName,psychopyVersion,OS,frameRate,rating_all.response,rating_all.rt,rating_all.tStart,rndRat1.thisRepN,rndRat1.thisTrialN,rndRat1.thisN,rndRat1.thisIndex,rndRat1.ran,Emo,Labs,Labs2,rating_alt.response,rating_alt.rt,AltC.thisRepN,AltC.thisTrialN,AltC.thisN,AltC.thisIndex,AltC.ran,alt_choices,pic_choices,BottomAlt_Choice,rndRat2.thisRepN,rndRat2.thisTrialN,rndRat2.thisN,rndRat2.thisIndex,rndRat2.ran,rndRat3.thisRepN,rndRat3.thisTrialN,rndRat3.thisN,rndRat3.thisIndex,rndRat3.ran,trials_FC_L.thisRepN,trials_FC_L.thisTrialN,trials_FC_L.thisN,trials_FC_L.thisIndex,trials_FC_L.ran,rating_alt_2.response,rating_alt_2.rt,AltC2.thisRepN,AltC2.thisTrialN,AltC2.thisN,AltC2.thisIndex,AltC2.ran,TopAlt_Choice,rndRat4.thisRepN,rndRat4.thisTrialN,rndRat4.thisN,rndRat4.thisIndex,rndRat4.ran,rndRat5.thisRepN,rndRat5.thisTrialN,rndRat5.thisN,rndRat5.thisIndex,rndRat5.ran,trials_FC_H.thisRepN,trials_FC_H.thisTrialN,trials_FC_H.thisN,trials_FC_H.thisIndex,trials_FC_H.ran
SUPAMT05723,3BXQMRHWK5XR27D659XWD3N0DGVMUE,543FA434-B9B6-4B41-A196-84E4EFF973E6,2023-09-27_11h22.50.448,WP_VExplicitOC_LH,2022.2.5,Win32,8,NA,NA,NA,NA,NA,NA,NA,NA,NA,NA,NA,NA,NA,NA,NA,NA,NA,NA,NA,NA,NA,NA,NA,NA,NA,NA,NA,NA,NA,NA,NA,NA,NA,NA,NA,NA,NA,NA,NA,NA,NA,NA,NA,NA,NA,NA,NA,NA,NA,NA,NA,NA,NA,NA,NA,NA,NA,NA,NA
SUPAMT05723,3BXQMRHWK5XR27D659XWD3N0DGVMUE,543FA434-B9B6-4B41-A196-84E4EFF973E6,2023-09-27_11h22.50.448,WP_VExplicitOC_LH,2022.2.5,Win32,8,NA,NA,NA,NA,NA,NA,NA,NA,NA,NA,NA,NA,NA,NA,NA,NA,NA,NA,NA,NA,NA,NA,NA,NA,NA,NA,NA,NA,NA,NA,NA,NA,NA,NA,NA,NA,NA,NA,NA,NA,NA,NA,NA,NA,NA,NA,NA,NA,NA,NA,NA,NA,NA,NA,NA,NA,NA,NA,NA
SUPAMT05723,3BXQMRHWK5XR27D659XWD3N0DGVMUE,543FA434-B9B6-4B41-A196-84E4EFF973E6,2023-09-27_11h22.50.448,WP_VExplicitOC_LH,2022.2.5,Win32,8,NA,NA,NA,NA,NA,NA,NA,NA,NA,NA,NA,NA,NA,NA,NA,NA,NA,NA,NA,NA,NA,NA,NA,NA,NA,NA,NA,NA,NA,NA,NA,NA,NA,NA,NA,NA,NA,NA,NA,NA,NA,NA,NA,NA,NA,NA,NA,NA,NA,NA,NA,NA,NA,NA,NA,NA,NA,NA,NA
SUPAMT05723,3BXQMRHWK5XR27D659XWD3N0DGVMUE,543FA434-B9B6-4B41-A196-84E4EFF973E6,2023-09-27_11h22.50.448,WP_VExplicitOC_LH,2022.2.5,Win32,8,78.90625,5.184,2.045,0,0,0,1,1,frustrated,"frustrated, not frustrated","more frustrated, less frustrated",NA,NA,NA,NA,NA,NA,NA,NA,NA,NA,NA,NA,NA,NA,NA,NA,NA,NA,NA,NA,NA,NA,NA,NA,NA,NA,NA,NA,NA,NA,NA,NA,NA,NA,NA,NA,NA,NA,NA,NA,NA,NA,NA,NA,NA,NA,NA,NA
SUPAMT05723,3BXQMRHWK5XR27D659XWD3N0DGVMUE,543FA434-B9B6-4B41-A196-84E4EFF973E6,2023-09-27_11h22.50.448,WP_VExplicitOC_LH,2022.2.5,Win32,8,86.45833333,4.036,2.094,0,1,1,0,1,happy,"unhappy, happy","less happy, more happy",NA,NA,NA,NA,NA,NA,NA,NA,NA,NA,NA,NA,NA,NA,NA,NA,NA,NA,NA,NA,NA,NA,NA,NA,NA,NA,NA,NA,NA,NA,NA,NA,NA,NA,NA,NA,NA,NA,NA,NA,NA,NA,NA,NA,NA,NA,NA,NA
SUPAMT05723,3BXQMRHWK5XR27D659XWD3N0DGVMUE,543FA434-B9B6-4B41-A196-84E4EFF973E6,2023-09-27_11h22.50.448,WP_VExplicitOC_LH,2022.2.5,Win32,8,2.34375,3.433,2.125,0,2,2,2,1,bored,"bored, not bored","more bored, less bored",NA,NA,NA,NA,NA,NA,NA,NA,NA,NA,NA,NA,NA,NA,NA,NA,NA,NA,NA,NA,NA,NA,NA,NA,NA,NA,NA,NA,NA,NA,NA,NA,NA,NA,NA,NA,NA,NA,NA,NA,NA,NA,NA,NA,NA,NA,NA,NA
SUPAMT05723,3BXQMRHWK5XR27D659XWD3N0DGVMUE,543FA434-B9B6-4B41-A196-84E4EFF973E6,2023-09-27_11h22.50.448,WP_VExplicitOC_LH,2022.2.5,Win32,8,NA,NA,NA,NA,NA,NA,NA,NA,NA,NA,NA,NA,NA,NA,NA,NA,NA,NA,NA,NA,NA,NA,NA,NA,NA,NA,NA,NA,NA,NA,NA,NA,NA,NA,NA,NA,NA,NA,NA,NA,NA,NA,NA,NA,NA,NA,NA,NA,NA,NA,NA,NA,NA,NA,NA,NA,NA,NA,NA
SUPAMT05723,3BXQMRHWK5XR27D659XWD3N0DGVMUE,543FA434-B9B6-4B41-A196-84E4EFF973E6,2023-09-27_11h22.50.448,WP_VExplicitOC_LH,2022.2.5,Win32,8,NA,NA,NA,NA,NA,NA,NA,NA,NA,NA,NA,NA,NA,NA,NA,NA,NA,NA,NA,NA,NA,NA,NA,NA,NA,NA,NA,NA,NA,NA,NA,NA,NA,NA,NA,NA,NA,NA,NA,NA,NA,NA,NA,NA,NA,NA,NA,NA,NA,NA,NA,NA,NA,NA,NA,NA,NA,NA,NA
SUPAMT05723,3BXQMRHWK5XR27D659XWD3N0DGVMUE,543FA434-B9B6-4B41-A196-84E4EFF973E6,2023-09-27_11h22.50.448,WP_VExplicitOC_LH,2022.2.5,Win32,8,NA,NA,NA,NA,NA,NA,NA,NA,NA,NA,NA,NA,NA,NA,NA,NA,NA,NA,NA,NA,NA,NA,NA,NA,NA,NA,NA,NA,NA,NA,NA,NA,NA,NA,NA,NA,NA,NA,NA,NA,NA,NA,NA,NA,NA,NA,NA,NA,NA,NA,NA,NA,NA,NA,NA,NA,NA,NA,NA
SUPAMT05723,3BXQMRHWK5XR27D659XWD3N0DGVMUE,543FA434-B9B6-4B41-A196-84E4EFF973E6,2023-09-27_11h22.50.448,WP_VExplicitOC_LH,2022.2.5,Win32,8,NA,NA,NA,NA,NA,NA,NA,NA,NA,NA,NA,NA,NA,NA,NA,NA,NA,NA,NA,NA,NA,NA,NA,NA,NA,NA,NA,NA,NA,NA,NA,NA,NA,NA,NA,NA,NA,NA,NA,NA,NA,NA,NA,NA,NA,NA,NA,NA,NA,NA,NA,NA,NA,NA,NA,NA,NA,NA,NA
SUPAMT05723,3BXQMRHWK5XR27D659XWD3N0DGVMUE,543FA434-B9B6-4B41-A196-84E4EFF973E6,2023-09-27_11h22.50.448,WP_VExplicitOC_LH,2022.2.5,Win32,8,NA,NA,NA,NA,NA,NA,NA,NA,NA,NA,NA,84.63541667,2.62,0,0,0,0,1,rest (looking at a fixed cross),001.png,NA,NA,NA,NA,NA,NA,NA,NA,NA,NA,NA,NA,NA,NA,NA,NA,NA,NA,NA,NA,NA,NA,NA,NA,NA,NA,NA,NA,NA,NA,NA,NA,NA,NA,NA,NA,NA,NA,NA
SUPAMT05723,3BXQMRHWK5XR27D659XWD3N0DGVMUE,543FA434-B9B6-4B41-A196-84E4EFF973E6,2023-09-27_11h22.50.448,WP_VExplicitOC_LH,2022.2.5,Win32,8,NA,NA,NA,NA,NA,NA,NA,NA,NA,NA,NA,73.17708333,3.377,0,1,1,1,1,stand up,002.png,NA,NA,NA,NA,NA,NA,NA,NA,NA,NA,NA,NA,NA,NA,NA,NA,NA,NA,NA,NA,NA,NA,NA,NA,NA,NA,NA,NA,NA,NA,NA,NA,NA,NA,NA,NA,NA,NA,NA
SUPAMT05723,3BXQMRHWK5XR27D659XWD3N0DGVMUE,543FA434-B9B6-4B41-A196-84E4EFF973E6,2023-09-27_11h22.50.448,WP_VExplicitOC_LH,2022.2.5,Win32,8,NA,NA,NA,NA,NA,NA,NA,NA,NA,NA,NA,21.875,1.813,0,2,2,2,1,stretch,003.png,NA,NA,NA,NA,NA,NA,NA,NA,NA,NA,NA,NA,NA,NA,NA,NA,NA,NA,NA,NA,NA,NA,NA,NA,NA,NA,NA,NA,NA,NA,NA,NA,NA,NA,NA,NA,NA,NA,NA
SUPAMT05723,3BXQMRHWK5XR27D659XWD3N0DGVMUE,543FA434-B9B6-4B41-A196-84E4EFF973E6,2023-09-27_11h22.50.448,WP_VExplicitOC_LH,2022.2.5,Win32,8,NA,NA,NA,NA,NA,NA,NA,NA,NA,NA,NA,75.78125,0.504,0,3,3,3,1,make a drink,004.png,NA,NA,NA,NA,NA,NA,NA,NA,NA,NA,NA,NA,NA,NA,NA,NA,NA,NA,NA,NA,NA,NA,NA,NA,NA,NA,NA,NA,NA,NA,NA,NA,NA,NA,NA,NA,NA,NA,NA
SUPAMT05723,3BXQMRHWK5XR27D659XWD3N0DGVMUE,543FA434-B9B6-4B41-A196-84E4EFF973E6,2023-09-27_11h22.50.448,WP_VExplicitOC_LH,2022.2.5,Win32,8,NA,NA,NA,NA,NA,NA,NA,NA,NA,NA,NA,17.44791667,1.521,0,4,4,4,1,scroll social media,005.png,NA,NA,NA,NA,NA,NA,NA,NA,NA,NA,NA,NA,NA,NA,NA,NA,NA,NA,NA,NA,NA,NA,NA,NA,NA,NA,NA,NA,NA,NA,NA,NA,NA,NA,NA,NA,NA,NA,NA
SUPAMT05723,3BXQMRHWK5XR27D659XWD3N0DGVMUE,543FA434-B9B6-4B41-A196-84E4EFF973E6,2023-09-27_11h22.50.448,WP_VExplicitOC_LH,2022.2.5,Win32,8,NA,NA,NA,NA,NA,NA,NA,NA,NA,NA,NA,53.90625,0.651,0,5,5,5,1,listen to music,006.png,NA,NA,NA,NA,NA,NA,NA,NA,NA,NA,NA,NA,NA,NA,NA,NA,NA,NA,NA,NA,NA,NA,NA,NA,NA,NA,NA,NA,NA,NA,NA,NA,NA,NA,NA,NA,NA,NA,NA
SUPAMT05723,3BXQMRHWK5XR27D659XWD3N0DGVMUE,543FA434-B9B6-4B41-A196-84E4EFF973E6,2023-09-27_11h22.50.448,WP_VExplicitOC_LH,2022.2.5,Win32,8,NA,NA,NA,NA,NA,NA,NA,NA,NA,NA,NA,53.90625,1.092,0,6,6,6,1,daydream,007.png,NA,NA,NA,NA,NA,NA,NA,NA,NA,NA,NA,NA,NA,NA,NA,NA,NA,NA,NA,NA,NA,NA,NA,NA,NA,NA,NA,NA,NA,NA,NA,NA,NA,NA,NA,NA,NA,NA,NA
SUPAMT05723,3BXQMRHWK5XR27D659XWD3N0DGVMUE,543FA434-B9B6-4B41-A196-84E4EFF973E6,2023-09-27_11h22.50.448,WP_VExplicitOC_LH,2022.2.5,Win32,8,NA,NA,NA,NA,NA,NA,NA,NA,NA,NA,NA,53.90625,0.996,0,7,7,7,1,watch a short animation,008.png,NA,NA,NA,NA,NA,NA,NA,NA,NA,NA,NA,NA,NA,NA,NA,NA,NA,NA,NA,NA,NA,NA,NA,NA,NA,NA,NA,NA,NA,NA,NA,NA,NA,NA,NA,NA,NA,NA,NA
SUPAMT05723,3BXQMRHWK5XR27D659XWD3N0DGVMUE,543FA434-B9B6-4B41-A196-84E4EFF973E6,2023-09-27_11h22.50.448,WP_VExplicitOC_LH,2022.2.5,Win32,8,NA,NA,NA,NA,NA,NA,NA,NA,NA,NA,NA,-34.63541667,3.406,0,8,8,8,1,read a novel,009.png,NA,NA,NA,NA,NA,NA,NA,NA,NA,NA,NA,NA,NA,NA,NA,NA,NA,NA,NA,NA,NA,NA,NA,NA,NA,NA,NA,NA,NA,NA,NA,NA,NA,NA,NA,NA,NA,NA,NA
SUPAMT05723,3BXQMRHWK5XR27D659XWD3N0DGVMUE,543FA434-B9B6-4B41-A196-84E4EFF973E6,2023-09-27_11h22.50.448,WP_VExplicitOC_LH,2022.2.5,Win32,8,NA,NA,NA,NA,NA,NA,NA,NA,NA,NA,NA,36.19791667,2.106,0,9,9,9,1,read the news,010.png,NA,NA,NA,NA,NA,NA,NA,NA,NA,NA,NA,NA,NA,NA,NA,NA,NA,NA,NA,NA,NA,NA,NA,NA,NA,NA,NA,NA,NA,NA,NA,NA,NA,NA,NA,NA,NA,NA,NA
SUPAMT05723,3BXQMRHWK5XR27D659XWD3N0DGVMUE,543FA434-B9B6-4B41-A196-84E4EFF973E6,2023-09-27_11h22.50.448,WP_VExplicitOC_LH,2022.2.5,Win32,8,NA,NA,NA,NA,NA,NA,NA,NA,NA,NA,NA,NA,NA,NA,NA,NA,NA,NA,NA,NA,NA,NA,NA,NA,NA,NA,NA,NA,NA,NA,NA,NA,NA,NA,NA,NA,NA,NA,NA,NA,NA,NA,NA,NA,NA,NA,NA,NA,NA,NA,NA,NA,NA,NA,NA,NA,NA,NA,NA
SUPAMT05723,3BXQMRHWK5XR27D659XWD3N0DGVMUE,543FA434-B9B6-4B41-A196-84E4EFF973E6,2023-09-27_11h22.50.448,WP_VExplicitOC_LH,2022.2.5,Win32,8,NA,NA,NA,NA,NA,NA,NA,NA,NA,NA,NA,NA,NA,NA,NA,NA,NA,NA,NA,NA,read a novel,NA,NA,NA,NA,NA,NA,NA,NA,NA,NA,NA,NA,NA,NA,NA,NA,NA,NA,NA,NA,NA,NA,NA,NA,NA,NA,NA,NA,NA,NA,NA,NA,NA,NA,NA,NA,NA,NA
SUPAMT05723,3BXQMRHWK5XR27D659XWD3N0DGVMUE,543FA434-B9B6-4B41-A196-84E4EFF973E6,2023-09-27_11h22.50.448,WP_VExplicitOC_LH,2022.2.5,Win32,8,74.73958333,4.365,2.053,NA,NA,NA,NA,NA,happy,"unhappy, happy","less happy, more happy",NA,NA,NA,NA,NA,NA,NA,NA,NA,NA,0,0,0,0,1,NA,NA,NA,NA,NA,NA,NA,NA,NA,NA,NA,NA,NA,NA,NA,NA,NA,NA,NA,NA,NA,NA,NA,NA,NA,NA,NA,NA,NA,NA,NA,NA,NA
SUPAMT05723,3BXQMRHWK5XR27D659XWD3N0DGVMUE,543FA434-B9B6-4B41-A196-84E4EFF973E6,2023-09-27_11h22.50.448,WP_VExplicitOC_LH,2022.2.5,Win32,8,80.20833333,3.843,2.092,NA,NA,NA,NA,NA,frustrated,"frustrated, not frustrated","more frustrated, less frustrated",NA,NA,NA,NA,NA,NA,NA,NA,NA,NA,0,1,1,1,1,NA,NA,NA,NA,NA,NA,NA,NA,NA,NA,NA,NA,NA,NA,NA,NA,NA,NA,NA,NA,NA,NA,NA,NA,NA,NA,NA,NA,NA,NA,NA,NA,NA
SUPAMT05723,3BXQMRHWK5XR27D659XWD3N0DGVMUE,543FA434-B9B6-4B41-A196-84E4EFF973E6,2023-09-27_11h22.50.448,WP_VExplicitOC_LH,2022.2.5,Win32,8,2.604166667,3.192,2.059,NA,NA,NA,NA,NA,bored,"bored, not bored","more bored, less bored",NA,NA,NA,NA,NA,NA,NA,NA,NA,NA,0,2,2,2,1,NA,NA,NA,NA,NA,NA,NA,NA,NA,NA,NA,NA,NA,NA,NA,NA,NA,NA,NA,NA,NA,NA,NA,NA,NA,NA,NA,NA,NA,NA,NA,NA,NA
SUPAMT05723,3BXQMRHWK5XR27D659XWD3N0DGVMUE,543FA434-B9B6-4B41-A196-84E4EFF973E6,2023-09-27_11h22.50.448,WP_VExplicitOC_LH,2022.2.5,Win32,8,NA,NA,NA,NA,NA,NA,NA,NA,NA,NA,NA,NA,NA,NA,NA,NA,NA,NA,NA,NA,NA,NA,NA,NA,NA,NA,NA,NA,NA,NA,NA,NA,NA,NA,NA,NA,NA,NA,NA,NA,NA,NA,NA,NA,NA,NA,NA,NA,NA,NA,NA,NA,NA,NA,NA,NA,NA,NA,NA
SUPAMT05723,3BXQMRHWK5XR27D659XWD3N0DGVMUE,543FA434-B9B6-4B41-A196-84E4EFF973E6,2023-09-27_11h22.50.448,WP_VExplicitOC_LH,2022.2.5,Win32,8,NA,NA,NA,NA,NA,NA,NA,NA,NA,NA,NA,NA,NA,NA,NA,NA,NA,NA,NA,NA,NA,NA,NA,NA,NA,NA,NA,NA,NA,NA,NA,NA,NA,NA,NA,NA,NA,NA,NA,NA,NA,NA,NA,NA,NA,NA,NA,NA,NA,NA,NA,NA,NA,NA,NA,NA,NA,NA,NA
SUPAMT05723,3BXQMRHWK5XR27D659XWD3N0DGVMUE,543FA434-B9B6-4B41-A196-84E4EFF973E6,2023-09-27_11h22.50.448,WP_VExplicitOC_LH,2022.2.5,Win32,8,77.60416667,3.935,2.056,NA,NA,NA,NA,NA,happy,"unhappy, happy","less happy, more happy",NA,NA,NA,NA,NA,NA,NA,NA,NA,NA,NA,NA,NA,NA,NA,0,0,0,0,1,NA,NA,NA,NA,NA,NA,NA,NA,NA,NA,NA,NA,NA,NA,NA,NA,NA,NA,NA,NA,NA,NA,NA,NA,NA,NA,NA,NA
SUPAMT05723,3BXQMRHWK5XR27D659XWD3N0DGVMUE,543FA434-B9B6-4B41-A196-84E4EFF973E6,2023-09-27_11h22.50.448,WP_VExplicitOC_LH,2022.2.5,Win32,8,83.33333333,4.012,2.055,NA,NA,NA,NA,NA,bored,"bored, not bored","more bored, less bored",NA,NA,NA,NA,NA,NA,NA,NA,NA,NA,NA,NA,NA,NA,NA,0,1,1,2,1,NA,NA,NA,NA,NA,NA,NA,NA,NA,NA,NA,NA,NA,NA,NA,NA,NA,NA,NA,NA,NA,NA,NA,NA,NA,NA,NA,NA
SUPAMT05723,3BXQMRHWK5XR27D659XWD3N0DGVMUE,543FA434-B9B6-4B41-A196-84E4EFF973E6,2023-09-27_11h22.50.448,WP_VExplicitOC_LH,2022.2.5,Win32,8,82.29166667,4.616,2.103,NA,NA,NA,NA,NA,frustrated,"frustrated, not frustrated","more frustrated, less frustrated",NA,NA,NA,NA,NA,NA,NA,NA,NA,NA,NA,NA,NA,NA,NA,0,2,2,1,1,NA,NA,NA,NA,NA,NA,NA,NA,NA,NA,NA,NA,NA,NA,NA,NA,NA,NA,NA,NA,NA,NA,NA,NA,NA,NA,NA,NA
SUPAMT05723,3BXQMRHWK5XR27D659XWD3N0DGVMUE,543FA434-B9B6-4B41-A196-84E4EFF973E6,2023-09-27_11h22.50.448,WP_VExplicitOC_LH,2022.2.5,Win32,8,NA,NA,NA,NA,NA,NA,NA,NA,NA,NA,NA,NA,NA,NA,NA,NA,NA,NA,NA,NA,NA,NA,NA,NA,NA,NA,NA,NA,NA,NA,NA,0,0,0,0,1,NA,NA,NA,NA,NA,NA,NA,NA,NA,NA,NA,NA,NA,NA,NA,NA,NA,NA,NA,NA,NA,NA,NA
SUPAMT05723,3BXQMRHWK5XR27D659XWD3N0DGVMUE,543FA434-B9B6-4B41-A196-84E4EFF973E6,2023-09-27_11h22.50.448,WP_VExplicitOC_LH,2022.2.5,Win32,8,71.09375,3.746,2.021,NA,NA,NA,NA,NA,bored,"bored, not bored","more bored, less bored",NA,NA,NA,NA,NA,NA,NA,NA,NA,NA,NA,NA,NA,NA,NA,0,0,0,2,1,NA,NA,NA,NA,NA,NA,NA,NA,NA,NA,NA,NA,NA,NA,NA,NA,NA,NA,NA,NA,NA,NA,NA,NA,NA,NA,NA,NA
SUPAMT05723,3BXQMRHWK5XR27D659XWD3N0DGVMUE,543FA434-B9B6-4B41-A196-84E4EFF973E6,2023-09-27_11h22.50.448,WP_VExplicitOC_LH,2022.2.5,Win32,8,14.0625,3.313,2.053,NA,NA,NA,NA,NA,frustrated,"frustrated, not frustrated","more frustrated, less frustrated",NA,NA,NA,NA,NA,NA,NA,NA,NA,NA,NA,NA,NA,NA,NA,0,1,1,1,1,NA,NA,NA,NA,NA,NA,NA,NA,NA,NA,NA,NA,NA,NA,NA,NA,NA,NA,NA,NA,NA,NA,NA,NA,NA,NA,NA,NA
SUPAMT05723,3BXQMRHWK5XR27D659XWD3N0DGVMUE,543FA434-B9B6-4B41-A196-84E4EFF973E6,2023-09-27_11h22.50.448,WP_VExplicitOC_LH,2022.2.5,Win32,8,100,3.924,2.024,NA,NA,NA,NA,NA,happy,"unhappy, happy","less happy, more happy",NA,NA,NA,NA,NA,NA,NA,NA,NA,NA,NA,NA,NA,NA,NA,0,2,2,0,1,NA,NA,NA,NA,NA,NA,NA,NA,NA,NA,NA,NA,NA,NA,NA,NA,NA,NA,NA,NA,NA,NA,NA,NA,NA,NA,NA,NA
SUPAMT05723,3BXQMRHWK5XR27D659XWD3N0DGVMUE,543FA434-B9B6-4B41-A196-84E4EFF973E6,2023-09-27_11h22.50.448,WP_VExplicitOC_LH,2022.2.5,Win32,8,NA,NA,NA,NA,NA,NA,NA,NA,NA,NA,NA,NA,NA,NA,NA,NA,NA,NA,NA,NA,NA,NA,NA,NA,NA,NA,NA,NA,NA,NA,NA,1,0,1,0,1,NA,NA,NA,NA,NA,NA,NA,NA,NA,NA,NA,NA,NA,NA,NA,NA,NA,NA,NA,NA,NA,NA,NA
SUPAMT05723,3BXQMRHWK5XR27D659XWD3N0DGVMUE,543FA434-B9B6-4B41-A196-84E4EFF973E6,2023-09-27_11h22.50.448,WP_VExplicitOC_LH,2022.2.5,Win32,8,100,4.133,2.058,NA,NA,NA,NA,NA,happy,"unhappy, happy","less happy, more happy",NA,NA,NA,NA,NA,NA,NA,NA,NA,NA,NA,NA,NA,NA,NA,0,0,0,0,1,NA,NA,NA,NA,NA,NA,NA,NA,NA,NA,NA,NA,NA,NA,NA,NA,NA,NA,NA,NA,NA,NA,NA,NA,NA,NA,NA,NA
SUPAMT05723,3BXQMRHWK5XR27D659XWD3N0DGVMUE,543FA434-B9B6-4B41-A196-84E4EFF973E6,2023-09-27_11h22.50.448,WP_VExplicitOC_LH,2022.2.5,Win32,8,1.041666667,3.466,2.033,NA,NA,NA,NA,NA,bored,"bored, not bored","more bored, less bored",NA,NA,NA,NA,NA,NA,NA,NA,NA,NA,NA,NA,NA,NA,NA,0,1,1,2,1,NA,NA,NA,NA,NA,NA,NA,NA,NA,NA,NA,NA,NA,NA,NA,NA,NA,NA,NA,NA,NA,NA,NA,NA,NA,NA,NA,NA
SUPAMT05723,3BXQMRHWK5XR27D659XWD3N0DGVMUE,543FA434-B9B6-4B41-A196-84E4EFF973E6,2023-09-27_11h22.50.448,WP_VExplicitOC_LH,2022.2.5,Win32,8,100,4.25,2.016,NA,NA,NA,NA,NA,frustrated,"frustrated, not frustrated","more frustrated, less frustrated",NA,NA,NA,NA,NA,NA,NA,NA,NA,NA,NA,NA,NA,NA,NA,0,2,2,1,1,NA,NA,NA,NA,NA,NA,NA,NA,NA,NA,NA,NA,NA,NA,NA,NA,NA,NA,NA,NA,NA,NA,NA,NA,NA,NA,NA,NA
SUPAMT05723,3BXQMRHWK5XR27D659XWD3N0DGVMUE,543FA434-B9B6-4B41-A196-84E4EFF973E6,2023-09-27_11h22.50.448,WP_VExplicitOC_LH,2022.2.5,Win32,8,NA,NA,NA,NA,NA,NA,NA,NA,NA,NA,NA,NA,NA,NA,NA,NA,NA,NA,NA,NA,NA,NA,NA,NA,NA,NA,NA,NA,NA,NA,NA,2,0,2,0,1,NA,NA,NA,NA,NA,NA,NA,NA,NA,NA,NA,NA,NA,NA,NA,NA,NA,NA,NA,NA,NA,NA,NA
SUPAMT05723,3BXQMRHWK5XR27D659XWD3N0DGVMUE,543FA434-B9B6-4B41-A196-84E4EFF973E6,2023-09-27_11h22.50.448,WP_VExplicitOC_LH,2022.2.5,Win32,8,74.21875,5.566,2.088,NA,NA,NA,NA,NA,happy,"unhappy, happy","less happy, more happy",NA,NA,NA,NA,NA,NA,NA,NA,NA,NA,NA,NA,NA,NA,NA,0,0,0,0,1,NA,NA,NA,NA,NA,NA,NA,NA,NA,NA,NA,NA,NA,NA,NA,NA,NA,NA,NA,NA,NA,NA,NA,NA,NA,NA,NA,NA
SUPAMT05723,3BXQMRHWK5XR27D659XWD3N0DGVMUE,543FA434-B9B6-4B41-A196-84E4EFF973E6,2023-09-27_11h22.50.448,WP_VExplicitOC_LH,2022.2.5,Win32,8,79.94791667,4.737,2.051,NA,NA,NA,NA,NA,frustrated,"frustrated, not frustrated","more frustrated, less frustrated",NA,NA,NA,NA,NA,NA,NA,NA,NA,NA,NA,NA,NA,NA,NA,0,1,1,1,1,NA,NA,NA,NA,NA,NA,NA,NA,NA,NA,NA,NA,NA,NA,NA,NA,NA,NA,NA,NA,NA,NA,NA,NA,NA,NA,NA,NA
SUPAMT05723,3BXQMRHWK5XR27D659XWD3N0DGVMUE,543FA434-B9B6-4B41-A196-84E4EFF973E6,2023-09-27_11h22.50.448,WP_VExplicitOC_LH,2022.2.5,Win32,8,78.125,5.335,2.029,NA,NA,NA,NA,NA,bored,"bored, not bored","more bored, less bored",NA,NA,NA,NA,NA,NA,NA,NA,NA,NA,NA,NA,NA,NA,NA,0,2,2,2,1,NA,NA,NA,NA,NA,NA,NA,NA,NA,NA,NA,NA,NA,NA,NA,NA,NA,NA,NA,NA,NA,NA,NA,NA,NA,NA,NA,NA
SUPAMT05723,3BXQMRHWK5XR27D659XWD3N0DGVMUE,543FA434-B9B6-4B41-A196-84E4EFF973E6,2023-09-27_11h22.50.448,WP_VExplicitOC_LH,2022.2.5,Win32,8,NA,NA,NA,NA,NA,NA,NA,NA,NA,NA,NA,NA,NA,NA,NA,NA,NA,NA,NA,NA,NA,NA,NA,NA,NA,NA,NA,NA,NA,NA,NA,3,0,3,0,1,NA,NA,NA,NA,NA,NA,NA,NA,NA,NA,NA,NA,NA,NA,NA,NA,NA,NA,NA,NA,NA,NA,NA
SUPAMT05723,3BXQMRHWK5XR27D659XWD3N0DGVMUE,543FA434-B9B6-4B41-A196-84E4EFF973E6,2023-09-27_11h22.50.448,WP_VExplicitOC_LH,2022.2.5,Win32,8,80.46875,7.115,2.087,NA,NA,NA,NA,NA,frustrated,"frustrated, not frustrated","more frustrated, less frustrated",NA,NA,NA,NA,NA,NA,NA,NA,NA,NA,NA,NA,NA,NA,NA,0,0,0,1,1,NA,NA,NA,NA,NA,NA,NA,NA,NA,NA,NA,NA,NA,NA,NA,NA,NA,NA,NA,NA,NA,NA,NA,NA,NA,NA,NA,NA
SUPAMT05723,3BXQMRHWK5XR27D659XWD3N0DGVMUE,543FA434-B9B6-4B41-A196-84E4EFF973E6,2023-09-27_11h22.50.448,WP_VExplicitOC_LH,2022.2.5,Win32,8,95.3125,4.147,2.041,NA,NA,NA,NA,NA,bored,"bored, not bored","more bored, less bored",NA,NA,NA,NA,NA,NA,NA,NA,NA,NA,NA,NA,NA,NA,NA,0,1,1,2,1,NA,NA,NA,NA,NA,NA,NA,NA,NA,NA,NA,NA,NA,NA,NA,NA,NA,NA,NA,NA,NA,NA,NA,NA,NA,NA,NA,NA
SUPAMT05723,3BXQMRHWK5XR27D659XWD3N0DGVMUE,543FA434-B9B6-4B41-A196-84E4EFF973E6,2023-09-27_11h22.50.448,WP_VExplicitOC_LH,2022.2.5,Win32,8,86.19791667,4.634,2.094,NA,NA,NA,NA,NA,happy,"unhappy, happy","less happy, more happy",NA,NA,NA,NA,NA,NA,NA,NA,NA,NA,NA,NA,NA,NA,NA,0,2,2,0,1,NA,NA,NA,NA,NA,NA,NA,NA,NA,NA,NA,NA,NA,NA,NA,NA,NA,NA,NA,NA,NA,NA,NA,NA,NA,NA,NA,NA
SUPAMT05723,3BXQMRHWK5XR27D659XWD3N0DGVMUE,543FA434-B9B6-4B41-A196-84E4EFF973E6,2023-09-27_11h22.50.448,WP_VExplicitOC_LH,2022.2.5,Win32,8,NA,NA,NA,NA,NA,NA,NA,NA,NA,NA,NA,NA,NA,NA,NA,NA,NA,NA,NA,NA,NA,NA,NA,NA,NA,NA,NA,NA,NA,NA,NA,4,0,4,0,1,NA,NA,NA,NA,NA,NA,NA,NA,NA,NA,NA,NA,NA,NA,NA,NA,NA,NA,NA,NA,NA,NA,NA
SUPAMT05723,3BXQMRHWK5XR27D659XWD3N0DGVMUE,543FA434-B9B6-4B41-A196-84E4EFF973E6,2023-09-27_11h22.50.448,WP_VExplicitOC_LH,2022.2.5,Win32,8,89.0625,6.259,2.063,NA,NA,NA,NA,NA,frustrated,"frustrated, not frustrated","more frustrated, less frustrated",NA,NA,NA,NA,NA,NA,NA,NA,NA,NA,NA,NA,NA,NA,NA,0,0,0,1,1,NA,NA,NA,NA,NA,NA,NA,NA,NA,NA,NA,NA,NA,NA,NA,NA,NA,NA,NA,NA,NA,NA,NA,NA,NA,NA,NA,NA
SUPAMT05723,3BXQMRHWK5XR27D659XWD3N0DGVMUE,543FA434-B9B6-4B41-A196-84E4EFF973E6,2023-09-27_11h22.50.448,WP_VExplicitOC_LH,2022.2.5,Win32,8,88.80208333,4.582,2.023,NA,NA,NA,NA,NA,bored,"bored, not bored","more bored, less bored",NA,NA,NA,NA,NA,NA,NA,NA,NA,NA,NA,NA,NA,NA,NA,0,1,1,2,1,NA,NA,NA,NA,NA,NA,NA,NA,NA,NA,NA,NA,NA,NA,NA,NA,NA,NA,NA,NA,NA,NA,NA,NA,NA,NA,NA,NA
SUPAMT05723,3BXQMRHWK5XR27D659XWD3N0DGVMUE,543FA434-B9B6-4B41-A196-84E4EFF973E6,2023-09-27_11h22.50.448,WP_VExplicitOC_LH,2022.2.5,Win32,8,4.6875,3.596,2.024,NA,NA,NA,NA,NA,happy,"unhappy, happy","less happy, more happy",NA,NA,NA,NA,NA,NA,NA,NA,NA,NA,NA,NA,NA,NA,NA,0,2,2,0,1,NA,NA,NA,NA,NA,NA,NA,NA,NA,NA,NA,NA,NA,NA,NA,NA,NA,NA,NA,NA,NA,NA,NA,NA,NA,NA,NA,NA
SUPAMT05723,3BXQMRHWK5XR27D659XWD3N0DGVMUE,543FA434-B9B6-4B41-A196-84E4EFF973E6,2023-09-27_11h22.50.448,WP_VExplicitOC_LH,2022.2.5,Win32,8,NA,NA,NA,NA,NA,NA,NA,NA,NA,NA,NA,NA,NA,NA,NA,NA,NA,NA,NA,NA,NA,NA,NA,NA,NA,NA,NA,NA,NA,NA,NA,5,0,5,0,1,NA,NA,NA,NA,NA,NA,NA,NA,NA,NA,NA,NA,NA,NA,NA,NA,NA,NA,NA,NA,NA,NA,NA
SUPAMT05723,3BXQMRHWK5XR27D659XWD3N0DGVMUE,543FA434-B9B6-4B41-A196-84E4EFF973E6,2023-09-27_11h22.50.448,WP_VExplicitOC_LH,2022.2.5,Win32,8,73.4375,5.141,2.087,NA,NA,NA,NA,NA,happy,"unhappy, happy","less happy, more happy",NA,NA,NA,NA,NA,NA,NA,NA,NA,NA,NA,NA,NA,NA,NA,0,0,0,0,1,NA,NA,NA,NA,NA,NA,NA,NA,NA,NA,NA,NA,NA,NA,NA,NA,NA,NA,NA,NA,NA,NA,NA,NA,NA,NA,NA,NA
SUPAMT05723,3BXQMRHWK5XR27D659XWD3N0DGVMUE,543FA434-B9B6-4B41-A196-84E4EFF973E6,2023-09-27_11h22.50.448,WP_VExplicitOC_LH,2022.2.5,Win32,8,63.80208333,4.907,2.03,NA,NA,NA,NA,NA,frustrated,"frustrated, not frustrated","more frustrated, less frustrated",NA,NA,NA,NA,NA,NA,NA,NA,NA,NA,NA,NA,NA,NA,NA,0,1,1,1,1,NA,NA,NA,NA,NA,NA,NA,NA,NA,NA,NA,NA,NA,NA,NA,NA,NA,NA,NA,NA,NA,NA,NA,NA,NA,NA,NA,NA
SUPAMT05723,3BXQMRHWK5XR27D659XWD3N0DGVMUE,543FA434-B9B6-4B41-A196-84E4EFF973E6,2023-09-27_11h22.50.448,WP_VExplicitOC_LH,2022.2.5,Win32,8,63.54166667,4.777,2.026,NA,NA,NA,NA,NA,bored,"bored, not bored","more bored, less bored",NA,NA,NA,NA,NA,NA,NA,NA,NA,NA,NA,NA,NA,NA,NA,0,2,2,2,1,NA,NA,NA,NA,NA,NA,NA,NA,NA,NA,NA,NA,NA,NA,NA,NA,NA,NA,NA,NA,NA,NA,NA,NA,NA,NA,NA,NA
SUPAMT05723,3BXQMRHWK5XR27D659XWD3N0DGVMUE,543FA434-B9B6-4B41-A196-84E4EFF973E6,2023-09-27_11h22.50.448,WP_VExplicitOC_LH,2022.2.5,Win32,8,NA,NA,NA,NA,NA,NA,NA,NA,NA,NA,NA,NA,NA,NA,NA,NA,NA,NA,NA,NA,NA,NA,NA,NA,NA,NA,NA,NA,NA,NA,NA,6,0,6,0,1,NA,NA,NA,NA,NA,NA,NA,NA,NA,NA,NA,NA,NA,NA,NA,NA,NA,NA,NA,NA,NA,NA,NA
SUPAMT05723,3BXQMRHWK5XR27D659XWD3N0DGVMUE,543FA434-B9B6-4B41-A196-84E4EFF973E6,2023-09-27_11h22.50.448,WP_VExplicitOC_LH,2022.2.5,Win32,8,89.32291667,4.972,2.092,NA,NA,NA,NA,NA,frustrated,"frustrated, not frustrated","more frustrated, less frustrated",NA,NA,NA,NA,NA,NA,NA,NA,NA,NA,NA,NA,NA,NA,NA,0,0,0,1,1,NA,NA,NA,NA,NA,NA,NA,NA,NA,NA,NA,NA,NA,NA,NA,NA,NA,NA,NA,NA,NA,NA,NA,NA,NA,NA,NA,NA
SUPAMT05723,3BXQMRHWK5XR27D659XWD3N0DGVMUE,543FA434-B9B6-4B41-A196-84E4EFF973E6,2023-09-27_11h22.50.448,WP_VExplicitOC_LH,2022.2.5,Win32,8,83.85416667,5.024,2.023,NA,NA,NA,NA,NA,happy,"unhappy, happy","less happy, more happy",NA,NA,NA,NA,NA,NA,NA,NA,NA,NA,NA,NA,NA,NA,NA,0,1,1,0,1,NA,NA,NA,NA,NA,NA,NA,NA,NA,NA,NA,NA,NA,NA,NA,NA,NA,NA,NA,NA,NA,NA,NA,NA,NA,NA,NA,NA
SUPAMT05723,3BXQMRHWK5XR27D659XWD3N0DGVMUE,543FA434-B9B6-4B41-A196-84E4EFF973E6,2023-09-27_11h22.50.448,WP_VExplicitOC_LH,2022.2.5,Win32,8,66.40625,4.941,2.026,NA,NA,NA,NA,NA,bored,"bored, not bored","more bored, less bored",NA,NA,NA,NA,NA,NA,NA,NA,NA,NA,NA,NA,NA,NA,NA,0,2,2,2,1,NA,NA,NA,NA,NA,NA,NA,NA,NA,NA,NA,NA,NA,NA,NA,NA,NA,NA,NA,NA,NA,NA,NA,NA,NA,NA,NA,NA
SUPAMT05723,3BXQMRHWK5XR27D659XWD3N0DGVMUE,543FA434-B9B6-4B41-A196-84E4EFF973E6,2023-09-27_11h22.50.448,WP_VExplicitOC_LH,2022.2.5,Win32,8,NA,NA,NA,NA,NA,NA,NA,NA,NA,NA,NA,NA,NA,NA,NA,NA,NA,NA,NA,NA,NA,NA,NA,NA,NA,NA,NA,NA,NA,NA,NA,7,0,7,0,1,NA,NA,NA,NA,NA,NA,NA,NA,NA,NA,NA,NA,NA,NA,NA,NA,NA,NA,NA,NA,NA,NA,NA
SUPAMT05723,3BXQMRHWK5XR27D659XWD3N0DGVMUE,543FA434-B9B6-4B41-A196-84E4EFF973E6,2023-09-27_11h22.50.448,WP_VExplicitOC_LH,2022.2.5,Win32,8,77.08333333,5.398,2.052,NA,NA,NA,NA,NA,bored,"bored, not bored","more bored, less bored",NA,NA,NA,NA,NA,NA,NA,NA,NA,NA,NA,NA,NA,NA,NA,0,0,0,2,1,NA,NA,NA,NA,NA,NA,NA,NA,NA,NA,NA,NA,NA,NA,NA,NA,NA,NA,NA,NA,NA,NA,NA,NA,NA,NA,NA,NA
SUPAMT05723,3BXQMRHWK5XR27D659XWD3N0DGVMUE,543FA434-B9B6-4B41-A196-84E4EFF973E6,2023-09-27_11h22.50.448,WP_VExplicitOC_LH,2022.2.5,Win32,8,59.89583333,4.693,2.058,NA,NA,NA,NA,NA,happy,"unhappy, happy","less happy, more happy",NA,NA,NA,NA,NA,NA,NA,NA,NA,NA,NA,NA,NA,NA,NA,0,1,1,0,1,NA,NA,NA,NA,NA,NA,NA,NA,NA,NA,NA,NA,NA,NA,NA,NA,NA,NA,NA,NA,NA,NA,NA,NA,NA,NA,NA,NA
SUPAMT05723,3BXQMRHWK5XR27D659XWD3N0DGVMUE,543FA434-B9B6-4B41-A196-84E4EFF973E6,2023-09-27_11h22.50.448,WP_VExplicitOC_LH,2022.2.5,Win32,8,85.41666667,4.526,2.116,NA,NA,NA,NA,NA,frustrated,"frustrated, not frustrated","more frustrated, less frustrated",NA,NA,NA,NA,NA,NA,NA,NA,NA,NA,NA,NA,NA,NA,NA,0,2,2,1,1,NA,NA,NA,NA,NA,NA,NA,NA,NA,NA,NA,NA,NA,NA,NA,NA,NA,NA,NA,NA,NA,NA,NA,NA,NA,NA,NA,NA
SUPAMT05723,3BXQMRHWK5XR27D659XWD3N0DGVMUE,543FA434-B9B6-4B41-A196-84E4EFF973E6,2023-09-27_11h22.50.448,WP_VExplicitOC_LH,2022.2.5,Win32,8,NA,NA,NA,NA,NA,NA,NA,NA,NA,NA,NA,NA,NA,NA,NA,NA,NA,NA,NA,NA,NA,NA,NA,NA,NA,NA,NA,NA,NA,NA,NA,8,0,8,0,1,NA,NA,NA,NA,NA,NA,NA,NA,NA,NA,NA,NA,NA,NA,NA,NA,NA,NA,NA,NA,NA,NA,NA
SUPAMT05723,3BXQMRHWK5XR27D659XWD3N0DGVMUE,543FA434-B9B6-4B41-A196-84E4EFF973E6,2023-09-27_11h22.50.448,WP_VExplicitOC_LH,2022.2.5,Win32,8,82.03125,5.072,2.058,NA,NA,NA,NA,NA,frustrated,"frustrated, not frustrated","more frustrated, less frustrated",NA,NA,NA,NA,NA,NA,NA,NA,NA,NA,NA,NA,NA,NA,NA,0,0,0,1,1,NA,NA,NA,NA,NA,NA,NA,NA,NA,NA,NA,NA,NA,NA,NA,NA,NA,NA,NA,NA,NA,NA,NA,NA,NA,NA,NA,NA
SUPAMT05723,3BXQMRHWK5XR27D659XWD3N0DGVMUE,543FA434-B9B6-4B41-A196-84E4EFF973E6,2023-09-27_11h22.50.448,WP_VExplicitOC_LH,2022.2.5,Win32,8,64.58333333,5.021,2.046,NA,NA,NA,NA,NA,happy,"unhappy, happy","less happy, more happy",NA,NA,NA,NA,NA,NA,NA,NA,NA,NA,NA,NA,NA,NA,NA,0,1,1,0,1,NA,NA,NA,NA,NA,NA,NA,NA,NA,NA,NA,NA,NA,NA,NA,NA,NA,NA,NA,NA,NA,NA,NA,NA,NA,NA,NA,NA
SUPAMT05723,3BXQMRHWK5XR27D659XWD3N0DGVMUE,543FA434-B9B6-4B41-A196-84E4EFF973E6,2023-09-27_11h22.50.448,WP_VExplicitOC_LH,2022.2.5,Win32,8,67.44791667,4.635,2.066,NA,NA,NA,NA,NA,bored,"bored, not bored","more bored, less bored",NA,NA,NA,NA,NA,NA,NA,NA,NA,NA,NA,NA,NA,NA,NA,0,2,2,2,1,NA,NA,NA,NA,NA,NA,NA,NA,NA,NA,NA,NA,NA,NA,NA,NA,NA,NA,NA,NA,NA,NA,NA,NA,NA,NA,NA,NA
SUPAMT05723,3BXQMRHWK5XR27D659XWD3N0DGVMUE,543FA434-B9B6-4B41-A196-84E4EFF973E6,2023-09-27_11h22.50.448,WP_VExplicitOC_LH,2022.2.5,Win32,8,NA,NA,NA,NA,NA,NA,NA,NA,NA,NA,NA,NA,NA,NA,NA,NA,NA,NA,NA,NA,NA,NA,NA,NA,NA,NA,NA,NA,NA,NA,NA,9,0,9,0,1,NA,NA,NA,NA,NA,NA,NA,NA,NA,NA,NA,NA,NA,NA,NA,NA,NA,NA,NA,NA,NA,NA,NA
SUPAMT05723,3BXQMRHWK5XR27D659XWD3N0DGVMUE,543FA434-B9B6-4B41-A196-84E4EFF973E6,2023-09-27_11h22.50.448,WP_VExplicitOC_LH,2022.2.5,Win32,8,82.55208333,4.839,2.019,NA,NA,NA,NA,NA,happy,"unhappy, happy","less happy, more happy",NA,NA,NA,NA,NA,NA,NA,NA,NA,NA,NA,NA,NA,NA,NA,0,0,0,0,1,NA,NA,NA,NA,NA,NA,NA,NA,NA,NA,NA,NA,NA,NA,NA,NA,NA,NA,NA,NA,NA,NA,NA,NA,NA,NA,NA,NA
SUPAMT05723,3BXQMRHWK5XR27D659XWD3N0DGVMUE,543FA434-B9B6-4B41-A196-84E4EFF973E6,2023-09-27_11h22.50.448,WP_VExplicitOC_LH,2022.2.5,Win32,8,62.76041667,4.622,2.023,NA,NA,NA,NA,NA,frustrated,"frustrated, not frustrated","more frustrated, less frustrated",NA,NA,NA,NA,NA,NA,NA,NA,NA,NA,NA,NA,NA,NA,NA,0,1,1,1,1,NA,NA,NA,NA,NA,NA,NA,NA,NA,NA,NA,NA,NA,NA,NA,NA,NA,NA,NA,NA,NA,NA,NA,NA,NA,NA,NA,NA
SUPAMT05723,3BXQMRHWK5XR27D659XWD3N0DGVMUE,543FA434-B9B6-4B41-A196-84E4EFF973E6,2023-09-27_11h22.50.448,WP_VExplicitOC_LH,2022.2.5,Win32,8,78.38541667,5.776,2.15,NA,NA,NA,NA,NA,bored,"bored, not bored","more bored, less bored",NA,NA,NA,NA,NA,NA,NA,NA,NA,NA,NA,NA,NA,NA,NA,0,2,2,2,1,NA,NA,NA,NA,NA,NA,NA,NA,NA,NA,NA,NA,NA,NA,NA,NA,NA,NA,NA,NA,NA,NA,NA,NA,NA,NA,NA,NA
SUPAMT05723,3BXQMRHWK5XR27D659XWD3N0DGVMUE,543FA434-B9B6-4B41-A196-84E4EFF973E6,2023-09-27_11h22.50.448,WP_VExplicitOC_LH,2022.2.5,Win32,8,NA,NA,NA,NA,NA,NA,NA,NA,NA,NA,NA,NA,NA,NA,NA,NA,NA,NA,NA,NA,NA,NA,NA,NA,NA,NA,NA,NA,NA,NA,NA,10,0,10,0,1,NA,NA,NA,NA,NA,NA,NA,NA,NA,NA,NA,NA,NA,NA,NA,NA,NA,NA,NA,NA,NA,NA,NA
SUPAMT05723,3BXQMRHWK5XR27D659XWD3N0DGVMUE,543FA434-B9B6-4B41-A196-84E4EFF973E6,2023-09-27_11h22.50.448,WP_VExplicitOC_LH,2022.2.5,Win32,8,76.04166667,4.448,2.055,NA,NA,NA,NA,NA,frustrated,"frustrated, not frustrated","more frustrated, less frustrated",NA,NA,NA,NA,NA,NA,NA,NA,NA,NA,NA,NA,NA,NA,NA,0,0,0,1,1,NA,NA,NA,NA,NA,NA,NA,NA,NA,NA,NA,NA,NA,NA,NA,NA,NA,NA,NA,NA,NA,NA,NA,NA,NA,NA,NA,NA
SUPAMT05723,3BXQMRHWK5XR27D659XWD3N0DGVMUE,543FA434-B9B6-4B41-A196-84E4EFF973E6,2023-09-27_11h22.50.448,WP_VExplicitOC_LH,2022.2.5,Win32,8,54.6875,5.388,2.053,NA,NA,NA,NA,NA,happy,"unhappy, happy","less happy, more happy",NA,NA,NA,NA,NA,NA,NA,NA,NA,NA,NA,NA,NA,NA,NA,0,1,1,0,1,NA,NA,NA,NA,NA,NA,NA,NA,NA,NA,NA,NA,NA,NA,NA,NA,NA,NA,NA,NA,NA,NA,NA,NA,NA,NA,NA,NA
SUPAMT05723,3BXQMRHWK5XR27D659XWD3N0DGVMUE,543FA434-B9B6-4B41-A196-84E4EFF973E6,2023-09-27_11h22.50.448,WP_VExplicitOC_LH,2022.2.5,Win32,8,52.34375,4.783,2.056,NA,NA,NA,NA,NA,bored,"bored, not bored","more bored, less bored",NA,NA,NA,NA,NA,NA,NA,NA,NA,NA,NA,NA,NA,NA,NA,0,2,2,2,1,NA,NA,NA,NA,NA,NA,NA,NA,NA,NA,NA,NA,NA,NA,NA,NA,NA,NA,NA,NA,NA,NA,NA,NA,NA,NA,NA,NA
SUPAMT05723,3BXQMRHWK5XR27D659XWD3N0DGVMUE,543FA434-B9B6-4B41-A196-84E4EFF973E6,2023-09-27_11h22.50.448,WP_VExplicitOC_LH,2022.2.5,Win32,8,NA,NA,NA,NA,NA,NA,NA,NA,NA,NA,NA,NA,NA,NA,NA,NA,NA,NA,NA,NA,NA,NA,NA,NA,NA,NA,NA,NA,NA,NA,NA,11,0,11,0,1,NA,NA,NA,NA,NA,NA,NA,NA,NA,NA,NA,NA,NA,NA,NA,NA,NA,NA,NA,NA,NA,NA,NA
SUPAMT05723,3BXQMRHWK5XR27D659XWD3N0DGVMUE,543FA434-B9B6-4B41-A196-84E4EFF973E6,2023-09-27_11h22.50.448,WP_VExplicitOC_LH,2022.2.5,Win32,8,66.66666667,4.139,2.042,NA,NA,NA,NA,NA,bored,"bored, not bored","more bored, less bored",NA,NA,NA,NA,NA,NA,NA,NA,NA,NA,NA,NA,NA,NA,NA,0,0,0,2,1,NA,NA,NA,NA,NA,NA,NA,NA,NA,NA,NA,NA,NA,NA,NA,NA,NA,NA,NA,NA,NA,NA,NA,NA,NA,NA,NA,NA
SUPAMT05723,3BXQMRHWK5XR27D659XWD3N0DGVMUE,543FA434-B9B6-4B41-A196-84E4EFF973E6,2023-09-27_11h22.50.448,WP_VExplicitOC_LH,2022.2.5,Win32,8,55.46875,4.753,2.122,NA,NA,NA,NA,NA,happy,"unhappy, happy","less happy, more happy",NA,NA,NA,NA,NA,NA,NA,NA,NA,NA,NA,NA,NA,NA,NA,0,1,1,0,1,NA,NA,NA,NA,NA,NA,NA,NA,NA,NA,NA,NA,NA,NA,NA,NA,NA,NA,NA,NA,NA,NA,NA,NA,NA,NA,NA,NA
SUPAMT05723,3BXQMRHWK5XR27D659XWD3N0DGVMUE,543FA434-B9B6-4B41-A196-84E4EFF973E6,2023-09-27_11h22.50.448,WP_VExplicitOC_LH,2022.2.5,Win32,8,80.98958333,4.735,2.021,NA,NA,NA,NA,NA,frustrated,"frustrated, not frustrated","more frustrated, less frustrated",NA,NA,NA,NA,NA,NA,NA,NA,NA,NA,NA,NA,NA,NA,NA,0,2,2,1,1,NA,NA,NA,NA,NA,NA,NA,NA,NA,NA,NA,NA,NA,NA,NA,NA,NA,NA,NA,NA,NA,NA,NA,NA,NA,NA,NA,NA
SUPAMT05723,3BXQMRHWK5XR27D659XWD3N0DGVMUE,543FA434-B9B6-4B41-A196-84E4EFF973E6,2023-09-27_11h22.50.448,WP_VExplicitOC_LH,2022.2.5,Win32,8,NA,NA,NA,NA,NA,NA,NA,NA,NA,NA,NA,NA,NA,NA,NA,NA,NA,NA,NA,NA,NA,NA,NA,NA,NA,NA,NA,NA,NA,NA,NA,12,0,12,0,1,NA,NA,NA,NA,NA,NA,NA,NA,NA,NA,NA,NA,NA,NA,NA,NA,NA,NA,NA,NA,NA,NA,NA
SUPAMT05723,3BXQMRHWK5XR27D659XWD3N0DGVMUE,543FA434-B9B6-4B41-A196-84E4EFF973E6,2023-09-27_11h22.50.448,WP_VExplicitOC_LH,2022.2.5,Win32,8,72.91666667,5.032,2.148,NA,NA,NA,NA,NA,bored,"bored, not bored","more bored, less bored",NA,NA,NA,NA,NA,NA,NA,NA,NA,NA,NA,NA,NA,NA,NA,0,0,0,2,1,NA,NA,NA,NA,NA,NA,NA,NA,NA,NA,NA,NA,NA,NA,NA,NA,NA,NA,NA,NA,NA,NA,NA,NA,NA,NA,NA,NA
SUPAMT05723,3BXQMRHWK5XR27D659XWD3N0DGVMUE,543FA434-B9B6-4B41-A196-84E4EFF973E6,2023-09-27_11h22.50.448,WP_VExplicitOC_LH,2022.2.5,Win32,8,82.8125,5.524,2.055,NA,NA,NA,NA,NA,happy,"unhappy, happy","less happy, more happy",NA,NA,NA,NA,NA,NA,NA,NA,NA,NA,NA,NA,NA,NA,NA,0,1,1,0,1,NA,NA,NA,NA,NA,NA,NA,NA,NA,NA,NA,NA,NA,NA,NA,NA,NA,NA,NA,NA,NA,NA,NA,NA,NA,NA,NA,NA
SUPAMT05723,3BXQMRHWK5XR27D659XWD3N0DGVMUE,543FA434-B9B6-4B41-A196-84E4EFF973E6,2023-09-27_11h22.50.448,WP_VExplicitOC_LH,2022.2.5,Win32,8,64.32291667,5.677,2.028,NA,NA,NA,NA,NA,frustrated,"frustrated, not frustrated","more frustrated, less frustrated",NA,NA,NA,NA,NA,NA,NA,NA,NA,NA,NA,NA,NA,NA,NA,0,2,2,1,1,NA,NA,NA,NA,NA,NA,NA,NA,NA,NA,NA,NA,NA,NA,NA,NA,NA,NA,NA,NA,NA,NA,NA,NA,NA,NA,NA,NA
SUPAMT05723,3BXQMRHWK5XR27D659XWD3N0DGVMUE,543FA434-B9B6-4B41-A196-84E4EFF973E6,2023-09-27_11h22.50.448,WP_VExplicitOC_LH,2022.2.5,Win32,8,NA,NA,NA,NA,NA,NA,NA,NA,NA,NA,NA,NA,NA,NA,NA,NA,NA,NA,NA,NA,NA,NA,NA,NA,NA,NA,NA,NA,NA,NA,NA,13,0,13,0,1,NA,NA,NA,NA,NA,NA,NA,NA,NA,NA,NA,NA,NA,NA,NA,NA,NA,NA,NA,NA,NA,NA,NA
SUPAMT05723,3BXQMRHWK5XR27D659XWD3N0DGVMUE,543FA434-B9B6-4B41-A196-84E4EFF973E6,2023-09-27_11h22.50.448,WP_VExplicitOC_LH,2022.2.5,Win32,8,79.94791667,4.642,2.089,NA,NA,NA,NA,NA,happy,"unhappy, happy","less happy, more happy",NA,NA,NA,NA,NA,NA,NA,NA,NA,NA,NA,NA,NA,NA,NA,0,0,0,0,1,NA,NA,NA,NA,NA,NA,NA,NA,NA,NA,NA,NA,NA,NA,NA,NA,NA,NA,NA,NA,NA,NA,NA,NA,NA,NA,NA,NA
SUPAMT05723,3BXQMRHWK5XR27D659XWD3N0DGVMUE,543FA434-B9B6-4B41-A196-84E4EFF973E6,2023-09-27_11h22.50.448,WP_VExplicitOC_LH,2022.2.5,Win32,8,49.47916667,4.263,2.03,NA,NA,NA,NA,NA,frustrated,"frustrated, not frustrated","more frustrated, less frustrated",NA,NA,NA,NA,NA,NA,NA,NA,NA,NA,NA,NA,NA,NA,NA,0,1,1,1,1,NA,NA,NA,NA,NA,NA,NA,NA,NA,NA,NA,NA,NA,NA,NA,NA,NA,NA,NA,NA,NA,NA,NA,NA,NA,NA,NA,NA
SUPAMT05723,3BXQMRHWK5XR27D659XWD3N0DGVMUE,543FA434-B9B6-4B41-A196-84E4EFF973E6,2023-09-27_11h22.50.448,WP_VExplicitOC_LH,2022.2.5,Win32,8,75.26041667,4.846,2.147,NA,NA,NA,NA,NA,bored,"bored, not bored","more bored, less bored",NA,NA,NA,NA,NA,NA,NA,NA,NA,NA,NA,NA,NA,NA,NA,0,2,2,2,1,NA,NA,NA,NA,NA,NA,NA,NA,NA,NA,NA,NA,NA,NA,NA,NA,NA,NA,NA,NA,NA,NA,NA,NA,NA,NA,NA,NA
SUPAMT05723,3BXQMRHWK5XR27D659XWD3N0DGVMUE,543FA434-B9B6-4B41-A196-84E4EFF973E6,2023-09-27_11h22.50.448,WP_VExplicitOC_LH,2022.2.5,Win32,8,NA,NA,NA,NA,NA,NA,NA,NA,NA,NA,NA,NA,NA,NA,NA,NA,NA,NA,NA,NA,NA,NA,NA,NA,NA,NA,NA,NA,NA,NA,NA,14,0,14,0,1,NA,NA,NA,NA,NA,NA,NA,NA,NA,NA,NA,NA,NA,NA,NA,NA,NA,NA,NA,NA,NA,NA,NA
SUPAMT05723,3BXQMRHWK5XR27D659XWD3N0DGVMUE,543FA434-B9B6-4B41-A196-84E4EFF973E6,2023-09-27_11h22.50.448,WP_VExplicitOC_LH,2022.2.5,Win32,8,NA,NA,NA,NA,NA,NA,NA,NA,NA,NA,NA,NA,NA,NA,NA,NA,NA,NA,NA,NA,NA,NA,NA,NA,NA,NA,NA,NA,NA,NA,NA,NA,NA,NA,NA,NA,NA,NA,NA,NA,NA,NA,NA,NA,NA,NA,NA,NA,NA,NA,NA,NA,NA,NA,NA,NA,NA,NA,NA
SUPAMT05723,3BXQMRHWK5XR27D659XWD3N0DGVMUE,543FA434-B9B6-4B41-A196-84E4EFF973E6,2023-09-27_11h22.50.448,WP_VExplicitOC_LH,2022.2.5,Win32,8,NA,NA,NA,NA,NA,NA,NA,NA,NA,NA,NA,NA,NA,NA,NA,NA,NA,NA,NA,NA,NA,NA,NA,NA,NA,NA,NA,NA,NA,NA,NA,NA,NA,NA,NA,NA,NA,NA,NA,NA,NA,NA,NA,NA,NA,NA,NA,NA,NA,NA,NA,NA,NA,NA,NA,NA,NA,NA,NA
SUPAMT05723,3BXQMRHWK5XR27D659XWD3N0DGVMUE,543FA434-B9B6-4B41-A196-84E4EFF973E6,2023-09-27_11h22.50.448,WP_VExplicitOC_LH,2022.2.5,Win32,8,NA,NA,NA,NA,NA,NA,NA,NA,NA,NA,NA,NA,NA,NA,NA,NA,NA,NA,rest (looking at a fixed cross),001.png,NA,NA,NA,NA,NA,NA,NA,NA,NA,NA,NA,NA,NA,NA,NA,NA,52.86458333,3.006,0,0,0,0,1,NA,NA,NA,NA,NA,NA,NA,NA,NA,NA,NA,NA,NA,NA,NA,NA
SUPAMT05723,3BXQMRHWK5XR27D659XWD3N0DGVMUE,543FA434-B9B6-4B41-A196-84E4EFF973E6,2023-09-27_11h22.50.448,WP_VExplicitOC_LH,2022.2.5,Win32,8,NA,NA,NA,NA,NA,NA,NA,NA,NA,NA,NA,NA,NA,NA,NA,NA,NA,NA,stand up,002.png,NA,NA,NA,NA,NA,NA,NA,NA,NA,NA,NA,NA,NA,NA,NA,NA,39.0625,2.427,0,1,1,1,1,NA,NA,NA,NA,NA,NA,NA,NA,NA,NA,NA,NA,NA,NA,NA,NA
SUPAMT05723,3BXQMRHWK5XR27D659XWD3N0DGVMUE,543FA434-B9B6-4B41-A196-84E4EFF973E6,2023-09-27_11h22.50.448,WP_VExplicitOC_LH,2022.2.5,Win32,8,NA,NA,NA,NA,NA,NA,NA,NA,NA,NA,NA,NA,NA,NA,NA,NA,NA,NA,stretch,003.png,NA,NA,NA,NA,NA,NA,NA,NA,NA,NA,NA,NA,NA,NA,NA,NA,75.26041667,2.395,0,2,2,2,1,NA,NA,NA,NA,NA,NA,NA,NA,NA,NA,NA,NA,NA,NA,NA,NA
SUPAMT05723,3BXQMRHWK5XR27D659XWD3N0DGVMUE,543FA434-B9B6-4B41-A196-84E4EFF973E6,2023-09-27_11h22.50.448,WP_VExplicitOC_LH,2022.2.5,Win32,8,NA,NA,NA,NA,NA,NA,NA,NA,NA,NA,NA,NA,NA,NA,NA,NA,NA,NA,make a drink,004.png,NA,NA,NA,NA,NA,NA,NA,NA,NA,NA,NA,NA,NA,NA,NA,NA,56.77083333,2.776,0,3,3,3,1,NA,NA,NA,NA,NA,NA,NA,NA,NA,NA,NA,NA,NA,NA,NA,NA
SUPAMT05723,3BXQMRHWK5XR27D659XWD3N0DGVMUE,543FA434-B9B6-4B41-A196-84E4EFF973E6,2023-09-27_11h22.50.448,WP_VExplicitOC_LH,2022.2.5,Win32,8,NA,NA,NA,NA,NA,NA,NA,NA,NA,NA,NA,NA,NA,NA,NA,NA,NA,NA,scroll social media,005.png,NA,NA,NA,NA,NA,NA,NA,NA,NA,NA,NA,NA,NA,NA,NA,NA,2.34375,2.29,0,4,4,4,1,NA,NA,NA,NA,NA,NA,NA,NA,NA,NA,NA,NA,NA,NA,NA,NA
SUPAMT05723,3BXQMRHWK5XR27D659XWD3N0DGVMUE,543FA434-B9B6-4B41-A196-84E4EFF973E6,2023-09-27_11h22.50.448,WP_VExplicitOC_LH,2022.2.5,Win32,8,NA,NA,NA,NA,NA,NA,NA,NA,NA,NA,NA,NA,NA,NA,NA,NA,NA,NA,listen to music,006.png,NA,NA,NA,NA,NA,NA,NA,NA,NA,NA,NA,NA,NA,NA,NA,NA,-42.96875,1.646,0,5,5,5,1,NA,NA,NA,NA,NA,NA,NA,NA,NA,NA,NA,NA,NA,NA,NA,NA
SUPAMT05723,3BXQMRHWK5XR27D659XWD3N0DGVMUE,543FA434-B9B6-4B41-A196-84E4EFF973E6,2023-09-27_11h22.50.448,WP_VExplicitOC_LH,2022.2.5,Win32,8,NA,NA,NA,NA,NA,NA,NA,NA,NA,NA,NA,NA,NA,NA,NA,NA,NA,NA,daydream,007.png,NA,NA,NA,NA,NA,NA,NA,NA,NA,NA,NA,NA,NA,NA,NA,NA,-40.625,2.28,0,6,6,6,1,NA,NA,NA,NA,NA,NA,NA,NA,NA,NA,NA,NA,NA,NA,NA,NA
SUPAMT05723,3BXQMRHWK5XR27D659XWD3N0DGVMUE,543FA434-B9B6-4B41-A196-84E4EFF973E6,2023-09-27_11h22.50.448,WP_VExplicitOC_LH,2022.2.5,Win32,8,NA,NA,NA,NA,NA,NA,NA,NA,NA,NA,NA,NA,NA,NA,NA,NA,NA,NA,watch a short animation,008.png,NA,NA,NA,NA,NA,NA,NA,NA,NA,NA,NA,NA,NA,NA,NA,NA,-38.54166667,3.139,0,7,7,7,1,NA,NA,NA,NA,NA,NA,NA,NA,NA,NA,NA,NA,NA,NA,NA,NA
SUPAMT05723,3BXQMRHWK5XR27D659XWD3N0DGVMUE,543FA434-B9B6-4B41-A196-84E4EFF973E6,2023-09-27_11h22.50.448,WP_VExplicitOC_LH,2022.2.5,Win32,8,NA,NA,NA,NA,NA,NA,NA,NA,NA,NA,NA,NA,NA,NA,NA,NA,NA,NA,read a novel,009.png,NA,NA,NA,NA,NA,NA,NA,NA,NA,NA,NA,NA,NA,NA,NA,NA,36.45833333,2.307,0,8,8,8,1,NA,NA,NA,NA,NA,NA,NA,NA,NA,NA,NA,NA,NA,NA,NA,NA
SUPAMT05723,3BXQMRHWK5XR27D659XWD3N0DGVMUE,543FA434-B9B6-4B41-A196-84E4EFF973E6,2023-09-27_11h22.50.448,WP_VExplicitOC_LH,2022.2.5,Win32,8,NA,NA,NA,NA,NA,NA,NA,NA,NA,NA,NA,NA,NA,NA,NA,NA,NA,NA,read the news,010.png,NA,NA,NA,NA,NA,NA,NA,NA,NA,NA,NA,NA,NA,NA,NA,NA,36.45833333,2.118,0,9,9,9,1,NA,NA,NA,NA,NA,NA,NA,NA,NA,NA,NA,NA,NA,NA,NA,NA
SUPAMT05723,3BXQMRHWK5XR27D659XWD3N0DGVMUE,543FA434-B9B6-4B41-A196-84E4EFF973E6,2023-09-27_11h22.50.448,WP_VExplicitOC_LH,2022.2.5,Win32,8,NA,NA,NA,NA,NA,NA,NA,NA,NA,NA,NA,NA,NA,NA,NA,NA,NA,NA,NA,NA,NA,NA,NA,NA,NA,NA,NA,NA,NA,NA,NA,NA,NA,NA,NA,NA,NA,NA,NA,NA,NA,NA,NA,stretch,NA,NA,NA,NA,NA,NA,NA,NA,NA,NA,NA,NA,NA,NA,NA
SUPAMT05723,3BXQMRHWK5XR27D659XWD3N0DGVMUE,543FA434-B9B6-4B41-A196-84E4EFF973E6,2023-09-27_11h22.50.448,WP_VExplicitOC_LH,2022.2.5,Win32,8,69.79166667,4.394,2.014,NA,NA,NA,NA,NA,frustrated,"frustrated, not frustrated","more frustrated, less frustrated",NA,NA,NA,NA,NA,NA,NA,NA,NA,NA,NA,NA,NA,NA,NA,NA,NA,NA,NA,NA,NA,NA,NA,NA,NA,NA,NA,NA,NA,NA,NA,NA,NA,0,0,0,1,1,NA,NA,NA,NA,NA,NA,NA,NA,NA,NA
SUPAMT05723,3BXQMRHWK5XR27D659XWD3N0DGVMUE,543FA434-B9B6-4B41-A196-84E4EFF973E6,2023-09-27_11h22.50.448,WP_VExplicitOC_LH,2022.2.5,Win32,8,72.39583333,3.912,2.043,NA,NA,NA,NA,NA,happy,"unhappy, happy","less happy, more happy",NA,NA,NA,NA,NA,NA,NA,NA,NA,NA,NA,NA,NA,NA,NA,NA,NA,NA,NA,NA,NA,NA,NA,NA,NA,NA,NA,NA,NA,NA,NA,NA,NA,0,1,1,0,1,NA,NA,NA,NA,NA,NA,NA,NA,NA,NA
SUPAMT05723,3BXQMRHWK5XR27D659XWD3N0DGVMUE,543FA434-B9B6-4B41-A196-84E4EFF973E6,2023-09-27_11h22.50.448,WP_VExplicitOC_LH,2022.2.5,Win32,8,73.4375,4.422,2.087,NA,NA,NA,NA,NA,bored,"bored, not bored","more bored, less bored",NA,NA,NA,NA,NA,NA,NA,NA,NA,NA,NA,NA,NA,NA,NA,NA,NA,NA,NA,NA,NA,NA,NA,NA,NA,NA,NA,NA,NA,NA,NA,NA,NA,0,2,2,2,1,NA,NA,NA,NA,NA,NA,NA,NA,NA,NA
SUPAMT05723,3BXQMRHWK5XR27D659XWD3N0DGVMUE,543FA434-B9B6-4B41-A196-84E4EFF973E6,2023-09-27_11h22.50.448,WP_VExplicitOC_LH,2022.2.5,Win32,8,NA,NA,NA,NA,NA,NA,NA,NA,NA,NA,NA,NA,NA,NA,NA,NA,NA,NA,NA,NA,NA,NA,NA,NA,NA,NA,NA,NA,NA,NA,NA,NA,NA,NA,NA,NA,NA,NA,NA,NA,NA,NA,NA,NA,NA,NA,NA,NA,NA,NA,NA,NA,NA,NA,NA,NA,NA,NA,NA
SUPAMT05723,3BXQMRHWK5XR27D659XWD3N0DGVMUE,543FA434-B9B6-4B41-A196-84E4EFF973E6,2023-09-27_11h22.50.448,WP_VExplicitOC_LH,2022.2.5,Win32,8,NA,NA,NA,NA,NA,NA,NA,NA,NA,NA,NA,NA,NA,NA,NA,NA,NA,NA,NA,NA,NA,NA,NA,NA,NA,NA,NA,NA,NA,NA,NA,NA,NA,NA,NA,NA,NA,NA,NA,NA,NA,NA,NA,NA,NA,NA,NA,NA,NA,NA,NA,NA,NA,NA,NA,NA,NA,NA,NA
SUPAMT05723,3BXQMRHWK5XR27D659XWD3N0DGVMUE,543FA434-B9B6-4B41-A196-84E4EFF973E6,2023-09-27_11h22.50.448,WP_VExplicitOC_LH,2022.2.5,Win32,8,NA,NA,2.028,NA,NA,NA,NA,NA,bored,"bored, not bored","more bored, less bored",NA,NA,NA,NA,NA,NA,NA,NA,NA,NA,NA,NA,NA,NA,NA,NA,NA,NA,NA,NA,NA,NA,NA,NA,NA,NA,NA,NA,NA,NA,NA,NA,NA,NA,NA,NA,NA,NA,0,0,0,2,1,NA,NA,NA,NA,NA
SUPAMT05723,3BXQMRHWK5XR27D659XWD3N0DGVMUE,543FA434-B9B6-4B41-A196-84E4EFF973E6,2023-09-27_11h22.50.448,WP_VExplicitOC_LH,2022.2.5,Win32,8,NA,NA,2.027,NA,NA,NA,NA,NA,frustrated,"frustrated, not frustrated","more frustrated, less frustrated",NA,NA,NA,NA,NA,NA,NA,NA,NA,NA,NA,NA,NA,NA,NA,NA,NA,NA,NA,NA,NA,NA,NA,NA,NA,NA,NA,NA,NA,NA,NA,NA,NA,NA,NA,NA,NA,NA,0,1,1,1,1,NA,NA,NA,NA,NA
SUPAMT05723,3BXQMRHWK5XR27D659XWD3N0DGVMUE,543FA434-B9B6-4B41-A196-84E4EFF973E6,2023-09-27_11h22.50.448,WP_VExplicitOC_LH,2022.2.5,Win32,8,NA,NA,2.03,NA,NA,NA,NA,NA,happy,"unhappy, happy","less happy, more happy",NA,NA,NA,NA,NA,NA,NA,NA,NA,NA,NA,NA,NA,NA,NA,NA,NA,NA,NA,NA,NA,NA,NA,NA,NA,NA,NA,NA,NA,NA,NA,NA,NA,NA,NA,NA,NA,NA,0,2,2,0,1,NA,NA,NA,NA,NA
SUPAMT05723,3BXQMRHWK5XR27D659XWD3N0DGVMUE,543FA434-B9B6-4B41-A196-84E4EFF973E6,2023-09-27_11h22.50.448,WP_VExplicitOC_LH,2022.2.5,Win32,8,NA,NA,NA,NA,NA,NA,NA,NA,NA,NA,NA,NA,NA,NA,NA,NA,NA,NA,NA,NA,NA,NA,NA,NA,NA,NA,NA,NA,NA,NA,NA,NA,NA,NA,NA,NA,NA,NA,NA,NA,NA,NA,NA,NA,NA,NA,NA,NA,NA,NA,NA,NA,NA,NA,0,0,0,0,1
SUPAMT05723,3BXQMRHWK5XR27D659XWD3N0DGVMUE,543FA434-B9B6-4B41-A196-84E4EFF973E6,2023-09-27_11h22.50.448,WP_VExplicitOC_LH,2022.2.5,Win32,8,-3.385416667,4.063,2.029,NA,NA,NA,NA,NA,happy,"unhappy, happy","less happy, more happy",NA,NA,NA,NA,NA,NA,NA,NA,NA,NA,NA,NA,NA,NA,NA,NA,NA,NA,NA,NA,NA,NA,NA,NA,NA,NA,NA,NA,NA,NA,NA,NA,NA,NA,NA,NA,NA,NA,0,0,0,0,1,NA,NA,NA,NA,NA
SUPAMT05723,3BXQMRHWK5XR27D659XWD3N0DGVMUE,543FA434-B9B6-4B41-A196-84E4EFF973E6,2023-09-27_11h22.50.448,WP_VExplicitOC_LH,2022.2.5,Win32,8,90.88541667,4.412,2.024,NA,NA,NA,NA,NA,bored,"bored, not bored","more bored, less bored",NA,NA,NA,NA,NA,NA,NA,NA,NA,NA,NA,NA,NA,NA,NA,NA,NA,NA,NA,NA,NA,NA,NA,NA,NA,NA,NA,NA,NA,NA,NA,NA,NA,NA,NA,NA,NA,NA,0,1,1,2,1,NA,NA,NA,NA,NA
SUPAMT05723,3BXQMRHWK5XR27D659XWD3N0DGVMUE,543FA434-B9B6-4B41-A196-84E4EFF973E6,2023-09-27_11h22.50.448,WP_VExplicitOC_LH,2022.2.5,Win32,8,73.17708333,4.665,2.078,NA,NA,NA,NA,NA,frustrated,"frustrated, not frustrated","more frustrated, less frustrated",NA,NA,NA,NA,NA,NA,NA,NA,NA,NA,NA,NA,NA,NA,NA,NA,NA,NA,NA,NA,NA,NA,NA,NA,NA,NA,NA,NA,NA,NA,NA,NA,NA,NA,NA,NA,NA,NA,0,2,2,1,1,NA,NA,NA,NA,NA
SUPAMT05723,3BXQMRHWK5XR27D659XWD3N0DGVMUE,543FA434-B9B6-4B41-A196-84E4EFF973E6,2023-09-27_11h22.50.448,WP_VExplicitOC_LH,2022.2.5,Win32,8,NA,NA,NA,NA,NA,NA,NA,NA,NA,NA,NA,NA,NA,NA,NA,NA,NA,NA,NA,NA,NA,NA,NA,NA,NA,NA,NA,NA,NA,NA,NA,NA,NA,NA,NA,NA,NA,NA,NA,NA,NA,NA,NA,NA,NA,NA,NA,NA,NA,NA,NA,NA,NA,NA,1,0,1,0,1
SUPAMT05723,3BXQMRHWK5XR27D659XWD3N0DGVMUE,543FA434-B9B6-4B41-A196-84E4EFF973E6,2023-09-27_11h22.50.448,WP_VExplicitOC_LH,2022.2.5,Win32,8,NA,NA,2.146,NA,NA,NA,NA,NA,happy,"unhappy, happy","less happy, more happy",NA,NA,NA,NA,NA,NA,NA,NA,NA,NA,NA,NA,NA,NA,NA,NA,NA,NA,NA,NA,NA,NA,NA,NA,NA,NA,NA,NA,NA,NA,NA,NA,NA,NA,NA,NA,NA,NA,0,0,0,0,1,NA,NA,NA,NA,NA
SUPAMT05723,3BXQMRHWK5XR27D659XWD3N0DGVMUE,543FA434-B9B6-4B41-A196-84E4EFF973E6,2023-09-27_11h22.50.448,WP_VExplicitOC_LH,2022.2.5,Win32,8,63.54166667,4.472,2.039,NA,NA,NA,NA,NA,bored,"bored, not bored","more bored, less bored",NA,NA,NA,NA,NA,NA,NA,NA,NA,NA,NA,NA,NA,NA,NA,NA,NA,NA,NA,NA,NA,NA,NA,NA,NA,NA,NA,NA,NA,NA,NA,NA,NA,NA,NA,NA,NA,NA,0,1,1,2,1,NA,NA,NA,NA,NA
SUPAMT05723,3BXQMRHWK5XR27D659XWD3N0DGVMUE,543FA434-B9B6-4B41-A196-84E4EFF973E6,2023-09-27_11h22.50.448,WP_VExplicitOC_LH,2022.2.5,Win32,8,79.6875,4.505,2.026,NA,NA,NA,NA,NA,frustrated,"frustrated, not frustrated","more frustrated, less frustrated",NA,NA,NA,NA,NA,NA,NA,NA,NA,NA,NA,NA,NA,NA,NA,NA,NA,NA,NA,NA,NA,NA,NA,NA,NA,NA,NA,NA,NA,NA,NA,NA,NA,NA,NA,NA,NA,NA,0,2,2,1,1,NA,NA,NA,NA,NA
SUPAMT05723,3BXQMRHWK5XR27D659XWD3N0DGVMUE,543FA434-B9B6-4B41-A196-84E4EFF973E6,2023-09-27_11h22.50.448,WP_VExplicitOC_LH,2022.2.5,Win32,8,NA,NA,NA,NA,NA,NA,NA,NA,NA,NA,NA,NA,NA,NA,NA,NA,NA,NA,NA,NA,NA,NA,NA,NA,NA,NA,NA,NA,NA,NA,NA,NA,NA,NA,NA,NA,NA,NA,NA,NA,NA,NA,NA,NA,NA,NA,NA,NA,NA,NA,NA,NA,NA,NA,2,0,2,0,1
SUPAMT05723,3BXQMRHWK5XR27D659XWD3N0DGVMUE,543FA434-B9B6-4B41-A196-84E4EFF973E6,2023-09-27_11h22.50.448,WP_VExplicitOC_LH,2022.2.5,Win32,8,83.07291667,6.567,2.083,NA,NA,NA,NA,NA,bored,"bored, not bored","more bored, less bored",NA,NA,NA,NA,NA,NA,NA,NA,NA,NA,NA,NA,NA,NA,NA,NA,NA,NA,NA,NA,NA,NA,NA,NA,NA,NA,NA,NA,NA,NA,NA,NA,NA,NA,NA,NA,NA,NA,0,0,0,2,1,NA,NA,NA,NA,NA
SUPAMT05723,3BXQMRHWK5XR27D659XWD3N0DGVMUE,543FA434-B9B6-4B41-A196-84E4EFF973E6,2023-09-27_11h22.50.448,WP_VExplicitOC_LH,2022.2.5,Win32,8,83.59375,6.805,2.144,NA,NA,NA,NA,NA,happy,"unhappy, happy","less happy, more happy",NA,NA,NA,NA,NA,NA,NA,NA,NA,NA,NA,NA,NA,NA,NA,NA,NA,NA,NA,NA,NA,NA,NA,NA,NA,NA,NA,NA,NA,NA,NA,NA,NA,NA,NA,NA,NA,NA,0,1,1,0,1,NA,NA,NA,NA,NA
SUPAMT05723,3BXQMRHWK5XR27D659XWD3N0DGVMUE,543FA434-B9B6-4B41-A196-84E4EFF973E6,2023-09-27_11h22.50.448,WP_VExplicitOC_LH,2022.2.5,Win32,8,94.79166667,4.483,2.025,NA,NA,NA,NA,NA,frustrated,"frustrated, not frustrated","more frustrated, less frustrated",NA,NA,NA,NA,NA,NA,NA,NA,NA,NA,NA,NA,NA,NA,NA,NA,NA,NA,NA,NA,NA,NA,NA,NA,NA,NA,NA,NA,NA,NA,NA,NA,NA,NA,NA,NA,NA,NA,0,2,2,1,1,NA,NA,NA,NA,NA
SUPAMT05723,3BXQMRHWK5XR27D659XWD3N0DGVMUE,543FA434-B9B6-4B41-A196-84E4EFF973E6,2023-09-27_11h22.50.448,WP_VExplicitOC_LH,2022.2.5,Win32,8,NA,NA,NA,NA,NA,NA,NA,NA,NA,NA,NA,NA,NA,NA,NA,NA,NA,NA,NA,NA,NA,NA,NA,NA,NA,NA,NA,NA,NA,NA,NA,NA,NA,NA,NA,NA,NA,NA,NA,NA,NA,NA,NA,NA,NA,NA,NA,NA,NA,NA,NA,NA,NA,NA,3,0,3,0,1
SUPAMT05723,3BXQMRHWK5XR27D659XWD3N0DGVMUE,543FA434-B9B6-4B41-A196-84E4EFF973E6,2023-09-27_11h22.50.448,WP_VExplicitOC_LH,2022.2.5,Win32,8,75.78125,4.274,2.038,NA,NA,NA,NA,NA,bored,"bored, not bored","more bored, less bored",NA,NA,NA,NA,NA,NA,NA,NA,NA,NA,NA,NA,NA,NA,NA,NA,NA,NA,NA,NA,NA,NA,NA,NA,NA,NA,NA,NA,NA,NA,NA,NA,NA,NA,NA,NA,NA,NA,0,0,0,2,1,NA,NA,NA,NA,NA
SUPAMT05723,3BXQMRHWK5XR27D659XWD3N0DGVMUE,543FA434-B9B6-4B41-A196-84E4EFF973E6,2023-09-27_11h22.50.448,WP_VExplicitOC_LH,2022.2.5,Win32,8,75.52083333,5.047,2.067,NA,NA,NA,NA,NA,frustrated,"frustrated, not frustrated","more frustrated, less frustrated",NA,NA,NA,NA,NA,NA,NA,NA,NA,NA,NA,NA,NA,NA,NA,NA,NA,NA,NA,NA,NA,NA,NA,NA,NA,NA,NA,NA,NA,NA,NA,NA,NA,NA,NA,NA,NA,NA,0,1,1,1,1,NA,NA,NA,NA,NA
SUPAMT05723,3BXQMRHWK5XR27D659XWD3N0DGVMUE,543FA434-B9B6-4B41-A196-84E4EFF973E6,2023-09-27_11h22.50.448,WP_VExplicitOC_LH,2022.2.5,Win32,8,60.41666667,5.385,2.06,NA,NA,NA,NA,NA,happy,"unhappy, happy","less happy, more happy",NA,NA,NA,NA,NA,NA,NA,NA,NA,NA,NA,NA,NA,NA,NA,NA,NA,NA,NA,NA,NA,NA,NA,NA,NA,NA,NA,NA,NA,NA,NA,NA,NA,NA,NA,NA,NA,NA,0,2,2,0,1,NA,NA,NA,NA,NA
SUPAMT05723,3BXQMRHWK5XR27D659XWD3N0DGVMUE,543FA434-B9B6-4B41-A196-84E4EFF973E6,2023-09-27_11h22.50.448,WP_VExplicitOC_LH,2022.2.5,Win32,8,NA,NA,NA,NA,NA,NA,NA,NA,NA,NA,NA,NA,NA,NA,NA,NA,NA,NA,NA,NA,NA,NA,NA,NA,NA,NA,NA,NA,NA,NA,NA,NA,NA,NA,NA,NA,NA,NA,NA,NA,NA,NA,NA,NA,NA,NA,NA,NA,NA,NA,NA,NA,NA,NA,4,0,4,0,1
SUPAMT05723,3BXQMRHWK5XR27D659XWD3N0DGVMUE,543FA434-B9B6-4B41-A196-84E4EFF973E6,2023-09-27_11h22.50.448,WP_VExplicitOC_LH,2022.2.5,Win32,8,NA,NA,2.058,NA,NA,NA,NA,NA,frustrated,"frustrated, not frustrated","more frustrated, less frustrated",NA,NA,NA,NA,NA,NA,NA,NA,NA,NA,NA,NA,NA,NA,NA,NA,NA,NA,NA,NA,NA,NA,NA,NA,NA,NA,NA,NA,NA,NA,NA,NA,NA,NA,NA,NA,NA,NA,0,0,0,1,1,NA,NA,NA,NA,NA
SUPAMT05723,3BXQMRHWK5XR27D659XWD3N0DGVMUE,543FA434-B9B6-4B41-A196-84E4EFF973E6,2023-09-27_11h22.50.448,WP_VExplicitOC_LH,2022.2.5,Win32,8,NA,NA,2.006,NA,NA,NA,NA,NA,bored,"bored, not bored","more bored, less bored",NA,NA,NA,NA,NA,NA,NA,NA,NA,NA,NA,NA,NA,NA,NA,NA,NA,NA,NA,NA,NA,NA,NA,NA,NA,NA,NA,NA,NA,NA,NA,NA,NA,NA,NA,NA,NA,NA,0,1,1,2,1,NA,NA,NA,NA,NA
SUPAMT05723,3BXQMRHWK5XR27D659XWD3N0DGVMUE,543FA434-B9B6-4B41-A196-84E4EFF973E6,2023-09-27_11h22.50.448,WP_VExplicitOC_LH,2022.2.5,Win32,8,NA,NA,2.037,NA,NA,NA,NA,NA,happy,"unhappy, happy","less happy, more happy",NA,NA,NA,NA,NA,NA,NA,NA,NA,NA,NA,NA,NA,NA,NA,NA,NA,NA,NA,NA,NA,NA,NA,NA,NA,NA,NA,NA,NA,NA,NA,NA,NA,NA,NA,NA,NA,NA,0,2,2,0,1,NA,NA,NA,NA,NA
SUPAMT05723,3BXQMRHWK5XR27D659XWD3N0DGVMUE,543FA434-B9B6-4B41-A196-84E4EFF973E6,2023-09-27_11h22.50.448,WP_VExplicitOC_LH,2022.2.5,Win32,8,NA,NA,NA,NA,NA,NA,NA,NA,NA,NA,NA,NA,NA,NA,NA,NA,NA,NA,NA,NA,NA,NA,NA,NA,NA,NA,NA,NA,NA,NA,NA,NA,NA,NA,NA,NA,NA,NA,NA,NA,NA,NA,NA,NA,NA,NA,NA,NA,NA,NA,NA,NA,NA,NA,5,0,5,0,1
SUPAMT05723,3BXQMRHWK5XR27D659XWD3N0DGVMUE,543FA434-B9B6-4B41-A196-84E4EFF973E6,2023-09-27_11h22.50.448,WP_VExplicitOC_LH,2022.2.5,Win32,8,81.25,5.488,2.045,NA,NA,NA,NA,NA,frustrated,"frustrated, not frustrated","more frustrated, less frustrated",NA,NA,NA,NA,NA,NA,NA,NA,NA,NA,NA,NA,NA,NA,NA,NA,NA,NA,NA,NA,NA,NA,NA,NA,NA,NA,NA,NA,NA,NA,NA,NA,NA,NA,NA,NA,NA,NA,0,0,0,1,1,NA,NA,NA,NA,NA
SUPAMT05723,3BXQMRHWK5XR27D659XWD3N0DGVMUE,543FA434-B9B6-4B41-A196-84E4EFF973E6,2023-09-27_11h22.50.448,WP_VExplicitOC_LH,2022.2.5,Win32,8,89.58333333,4.878,2.038,NA,NA,NA,NA,NA,bored,"bored, not bored","more bored, less bored",NA,NA,NA,NA,NA,NA,NA,NA,NA,NA,NA,NA,NA,NA,NA,NA,NA,NA,NA,NA,NA,NA,NA,NA,NA,NA,NA,NA,NA,NA,NA,NA,NA,NA,NA,NA,NA,NA,0,1,1,2,1,NA,NA,NA,NA,NA
SUPAMT05723,3BXQMRHWK5XR27D659XWD3N0DGVMUE,543FA434-B9B6-4B41-A196-84E4EFF973E6,2023-09-27_11h22.50.448,WP_VExplicitOC_LH,2022.2.5,Win32,8,NA,NA,2.024,NA,NA,NA,NA,NA,happy,"unhappy, happy","less happy, more happy",NA,NA,NA,NA,NA,NA,NA,NA,NA,NA,NA,NA,NA,NA,NA,NA,NA,NA,NA,NA,NA,NA,NA,NA,NA,NA,NA,NA,NA,NA,NA,NA,NA,NA,NA,NA,NA,NA,0,2,2,0,1,NA,NA,NA,NA,NA
SUPAMT05723,3BXQMRHWK5XR27D659XWD3N0DGVMUE,543FA434-B9B6-4B41-A196-84E4EFF973E6,2023-09-27_11h22.50.448,WP_VExplicitOC_LH,2022.2.5,Win32,8,NA,NA,NA,NA,NA,NA,NA,NA,NA,NA,NA,NA,NA,NA,NA,NA,NA,NA,NA,NA,NA,NA,NA,NA,NA,NA,NA,NA,NA,NA,NA,NA,NA,NA,NA,NA,NA,NA,NA,NA,NA,NA,NA,NA,NA,NA,NA,NA,NA,NA,NA,NA,NA,NA,6,0,6,0,1
SUPAMT05723,3BXQMRHWK5XR27D659XWD3N0DGVMUE,543FA434-B9B6-4B41-A196-84E4EFF973E6,2023-09-27_11h22.50.448,WP_VExplicitOC_LH,2022.2.5,Win32,8,87.76041667,5.246,2.033,NA,NA,NA,NA,NA,frustrated,"frustrated, not frustrated","more frustrated, less frustrated",NA,NA,NA,NA,NA,NA,NA,NA,NA,NA,NA,NA,NA,NA,NA,NA,NA,NA,NA,NA,NA,NA,NA,NA,NA,NA,NA,NA,NA,NA,NA,NA,NA,NA,NA,NA,NA,NA,0,0,0,1,1,NA,NA,NA,NA,NA
SUPAMT05723,3BXQMRHWK5XR27D659XWD3N0DGVMUE,543FA434-B9B6-4B41-A196-84E4EFF973E6,2023-09-27_11h22.50.448,WP_VExplicitOC_LH,2022.2.5,Win32,8,72.13541667,4.396,2.03,NA,NA,NA,NA,NA,bored,"bored, not bored","more bored, less bored",NA,NA,NA,NA,NA,NA,NA,NA,NA,NA,NA,NA,NA,NA,NA,NA,NA,NA,NA,NA,NA,NA,NA,NA,NA,NA,NA,NA,NA,NA,NA,NA,NA,NA,NA,NA,NA,NA,0,1,1,2,1,NA,NA,NA,NA,NA
SUPAMT05723,3BXQMRHWK5XR27D659XWD3N0DGVMUE,543FA434-B9B6-4B41-A196-84E4EFF973E6,2023-09-27_11h22.50.448,WP_VExplicitOC_LH,2022.2.5,Win32,8,100,5.596,2.013,NA,NA,NA,NA,NA,happy,"unhappy, happy","less happy, more happy",NA,NA,NA,NA,NA,NA,NA,NA,NA,NA,NA,NA,NA,NA,NA,NA,NA,NA,NA,NA,NA,NA,NA,NA,NA,NA,NA,NA,NA,NA,NA,NA,NA,NA,NA,NA,NA,NA,0,2,2,0,1,NA,NA,NA,NA,NA
SUPAMT05723,3BXQMRHWK5XR27D659XWD3N0DGVMUE,543FA434-B9B6-4B41-A196-84E4EFF973E6,2023-09-27_11h22.50.448,WP_VExplicitOC_LH,2022.2.5,Win32,8,NA,NA,NA,NA,NA,NA,NA,NA,NA,NA,NA,NA,NA,NA,NA,NA,NA,NA,NA,NA,NA,NA,NA,NA,NA,NA,NA,NA,NA,NA,NA,NA,NA,NA,NA,NA,NA,NA,NA,NA,NA,NA,NA,NA,NA,NA,NA,NA,NA,NA,NA,NA,NA,NA,7,0,7,0,1
SUPAMT05723,3BXQMRHWK5XR27D659XWD3N0DGVMUE,543FA434-B9B6-4B41-A196-84E4EFF973E6,2023-09-27_11h22.50.448,WP_VExplicitOC_LH,2022.2.5,Win32,8,81.77083333,5.568,2.019,NA,NA,NA,NA,NA,bored,"bored, not bored","more bored, less bored",NA,NA,NA,NA,NA,NA,NA,NA,NA,NA,NA,NA,NA,NA,NA,NA,NA,NA,NA,NA,NA,NA,NA,NA,NA,NA,NA,NA,NA,NA,NA,NA,NA,NA,NA,NA,NA,NA,0,0,0,2,1,NA,NA,NA,NA,NA
SUPAMT05723,3BXQMRHWK5XR27D659XWD3N0DGVMUE,543FA434-B9B6-4B41-A196-84E4EFF973E6,2023-09-27_11h22.50.448,WP_VExplicitOC_LH,2022.2.5,Win32,8,69.01041667,5.441,2.012,NA,NA,NA,NA,NA,frustrated,"frustrated, not frustrated","more frustrated, less frustrated",NA,NA,NA,NA,NA,NA,NA,NA,NA,NA,NA,NA,NA,NA,NA,NA,NA,NA,NA,NA,NA,NA,NA,NA,NA,NA,NA,NA,NA,NA,NA,NA,NA,NA,NA,NA,NA,NA,0,1,1,1,1,NA,NA,NA,NA,NA
SUPAMT05723,3BXQMRHWK5XR27D659XWD3N0DGVMUE,543FA434-B9B6-4B41-A196-84E4EFF973E6,2023-09-27_11h22.50.448,WP_VExplicitOC_LH,2022.2.5,Win32,8,72.65625,5.066,2.066,NA,NA,NA,NA,NA,happy,"unhappy, happy","less happy, more happy",NA,NA,NA,NA,NA,NA,NA,NA,NA,NA,NA,NA,NA,NA,NA,NA,NA,NA,NA,NA,NA,NA,NA,NA,NA,NA,NA,NA,NA,NA,NA,NA,NA,NA,NA,NA,NA,NA,0,2,2,0,1,NA,NA,NA,NA,NA
SUPAMT05723,3BXQMRHWK5XR27D659XWD3N0DGVMUE,543FA434-B9B6-4B41-A196-84E4EFF973E6,2023-09-27_11h22.50.448,WP_VExplicitOC_LH,2022.2.5,Win32,8,NA,NA,NA,NA,NA,NA,NA,NA,NA,NA,NA,NA,NA,NA,NA,NA,NA,NA,NA,NA,NA,NA,NA,NA,NA,NA,NA,NA,NA,NA,NA,NA,NA,NA,NA,NA,NA,NA,NA,NA,NA,NA,NA,NA,NA,NA,NA,NA,NA,NA,NA,NA,NA,NA,8,0,8,0,1
SUPAMT05723,3BXQMRHWK5XR27D659XWD3N0DGVMUE,543FA434-B9B6-4B41-A196-84E4EFF973E6,2023-09-27_11h22.50.448,WP_VExplicitOC_LH,2022.2.5,Win32,8,NA,NA,2.081,NA,NA,NA,NA,NA,frustrated,"frustrated, not frustrated","more frustrated, less frustrated",NA,NA,NA,NA,NA,NA,NA,NA,NA,NA,NA,NA,NA,NA,NA,NA,NA,NA,NA,NA,NA,NA,NA,NA,NA,NA,NA,NA,NA,NA,NA,NA,NA,NA,NA,NA,NA,NA,0,0,0,1,1,NA,NA,NA,NA,NA
SUPAMT05723,3BXQMRHWK5XR27D659XWD3N0DGVMUE,543FA434-B9B6-4B41-A196-84E4EFF973E6,2023-09-27_11h22.50.448,WP_VExplicitOC_LH,2022.2.5,Win32,8,NA,NA,2.096,NA,NA,NA,NA,NA,happy,"unhappy, happy","less happy, more happy",NA,NA,NA,NA,NA,NA,NA,NA,NA,NA,NA,NA,NA,NA,NA,NA,NA,NA,NA,NA,NA,NA,NA,NA,NA,NA,NA,NA,NA,NA,NA,NA,NA,NA,NA,NA,NA,NA,0,1,1,0,1,NA,NA,NA,NA,NA
SUPAMT05723,3BXQMRHWK5XR27D659XWD3N0DGVMUE,543FA434-B9B6-4B41-A196-84E4EFF973E6,2023-09-27_11h22.50.448,WP_VExplicitOC_LH,2022.2.5,Win32,8,NA,NA,2.01,NA,NA,NA,NA,NA,bored,"bored, not bored","more bored, less bored",NA,NA,NA,NA,NA,NA,NA,NA,NA,NA,NA,NA,NA,NA,NA,NA,NA,NA,NA,NA,NA,NA,NA,NA,NA,NA,NA,NA,NA,NA,NA,NA,NA,NA,NA,NA,NA,NA,0,2,2,2,1,NA,NA,NA,NA,NA
SUPAMT05723,3BXQMRHWK5XR27D659XWD3N0DGVMUE,543FA434-B9B6-4B41-A196-84E4EFF973E6,2023-09-27_11h22.50.448,WP_VExplicitOC_LH,2022.2.5,Win32,8,NA,NA,NA,NA,NA,NA,NA,NA,NA,NA,NA,NA,NA,NA,NA,NA,NA,NA,NA,NA,NA,NA,NA,NA,NA,NA,NA,NA,NA,NA,NA,NA,NA,NA,NA,NA,NA,NA,NA,NA,NA,NA,NA,NA,NA,NA,NA,NA,NA,NA,NA,NA,NA,NA,9,0,9,0,1
SUPAMT05723,3BXQMRHWK5XR27D659XWD3N0DGVMUE,543FA434-B9B6-4B41-A196-84E4EFF973E6,2023-09-27_11h22.50.448,WP_VExplicitOC_LH,2022.2.5,Win32,8,81.77083333,5.059,2.036,NA,NA,NA,NA,NA,bored,"bored, not bored","more bored, less bored",NA,NA,NA,NA,NA,NA,NA,NA,NA,NA,NA,NA,NA,NA,NA,NA,NA,NA,NA,NA,NA,NA,NA,NA,NA,NA,NA,NA,NA,NA,NA,NA,NA,NA,NA,NA,NA,NA,0,0,0,2,1,NA,NA,NA,NA,NA
SUPAMT05723,3BXQMRHWK5XR27D659XWD3N0DGVMUE,543FA434-B9B6-4B41-A196-84E4EFF973E6,2023-09-27_11h22.50.448,WP_VExplicitOC_LH,2022.2.5,Win32,8,81.77083333,4.86,2.101,NA,NA,NA,NA,NA,happy,"unhappy, happy","less happy, more happy",NA,NA,NA,NA,NA,NA,NA,NA,NA,NA,NA,NA,NA,NA,NA,NA,NA,NA,NA,NA,NA,NA,NA,NA,NA,NA,NA,NA,NA,NA,NA,NA,NA,NA,NA,NA,NA,NA,0,1,1,0,1,NA,NA,NA,NA,NA
SUPAMT05723,3BXQMRHWK5XR27D659XWD3N0DGVMUE,543FA434-B9B6-4B41-A196-84E4EFF973E6,2023-09-27_11h22.50.448,WP_VExplicitOC_LH,2022.2.5,Win32,8,71.09375,4.686,2.116,NA,NA,NA,NA,NA,frustrated,"frustrated, not frustrated","more frustrated, less frustrated",NA,NA,NA,NA,NA,NA,NA,NA,NA,NA,NA,NA,NA,NA,NA,NA,NA,NA,NA,NA,NA,NA,NA,NA,NA,NA,NA,NA,NA,NA,NA,NA,NA,NA,NA,NA,NA,NA,0,2,2,1,1,NA,NA,NA,NA,NA
SUPAMT05723,3BXQMRHWK5XR27D659XWD3N0DGVMUE,543FA434-B9B6-4B41-A196-84E4EFF973E6,2023-09-27_11h22.50.448,WP_VExplicitOC_LH,2022.2.5,Win32,8,NA,NA,NA,NA,NA,NA,NA,NA,NA,NA,NA,NA,NA,NA,NA,NA,NA,NA,NA,NA,NA,NA,NA,NA,NA,NA,NA,NA,NA,NA,NA,NA,NA,NA,NA,NA,NA,NA,NA,NA,NA,NA,NA,NA,NA,NA,NA,NA,NA,NA,NA,NA,NA,NA,10,0,10,0,1
SUPAMT05723,3BXQMRHWK5XR27D659XWD3N0DGVMUE,543FA434-B9B6-4B41-A196-84E4EFF973E6,2023-09-27_11h22.50.448,WP_VExplicitOC_LH,2022.2.5,Win32,8,71.875,5.313,2.079,NA,NA,NA,NA,NA,bored,"bored, not bored","more bored, less bored",NA,NA,NA,NA,NA,NA,NA,NA,NA,NA,NA,NA,NA,NA,NA,NA,NA,NA,NA,NA,NA,NA,NA,NA,NA,NA,NA,NA,NA,NA,NA,NA,NA,NA,NA,NA,NA,NA,0,0,0,2,1,NA,NA,NA,NA,NA
SUPAMT05723,3BXQMRHWK5XR27D659XWD3N0DGVMUE,543FA434-B9B6-4B41-A196-84E4EFF973E6,2023-09-27_11h22.50.448,WP_VExplicitOC_LH,2022.2.5,Win32,8,NA,NA,2.015,NA,NA,NA,NA,NA,frustrated,"frustrated, not frustrated","more frustrated, less frustrated",NA,NA,NA,NA,NA,NA,NA,NA,NA,NA,NA,NA,NA,NA,NA,NA,NA,NA,NA,NA,NA,NA,NA,NA,NA,NA,NA,NA,NA,NA,NA,NA,NA,NA,NA,NA,NA,NA,0,1,1,1,1,NA,NA,NA,NA,NA
SUPAMT05723,3BXQMRHWK5XR27D659XWD3N0DGVMUE,543FA434-B9B6-4B41-A196-84E4EFF973E6,2023-09-27_11h22.50.448,WP_VExplicitOC_LH,2022.2.5,Win32,8,NA,NA,2.061,NA,NA,NA,NA,NA,happy,"unhappy, happy","less happy, more happy",NA,NA,NA,NA,NA,NA,NA,NA,NA,NA,NA,NA,NA,NA,NA,NA,NA,NA,NA,NA,NA,NA,NA,NA,NA,NA,NA,NA,NA,NA,NA,NA,NA,NA,NA,NA,NA,NA,0,2,2,0,1,NA,NA,NA,NA,NA
SUPAMT05723,3BXQMRHWK5XR27D659XWD3N0DGVMUE,543FA434-B9B6-4B41-A196-84E4EFF973E6,2023-09-27_11h22.50.448,WP_VExplicitOC_LH,2022.2.5,Win32,8,NA,NA,NA,NA,NA,NA,NA,NA,NA,NA,NA,NA,NA,NA,NA,NA,NA,NA,NA,NA,NA,NA,NA,NA,NA,NA,NA,NA,NA,NA,NA,NA,NA,NA,NA,NA,NA,NA,NA,NA,NA,NA,NA,NA,NA,NA,NA,NA,NA,NA,NA,NA,NA,NA,11,0,11,0,1
SUPAMT05723,3BXQMRHWK5XR27D659XWD3N0DGVMUE,543FA434-B9B6-4B41-A196-84E4EFF973E6,2023-09-27_11h22.50.448,WP_VExplicitOC_LH,2022.2.5,Win32,8,72.91666667,6.533,2.044,NA,NA,NA,NA,NA,bored,"bored, not bored","more bored, less bored",NA,NA,NA,NA,NA,NA,NA,NA,NA,NA,NA,NA,NA,NA,NA,NA,NA,NA,NA,NA,NA,NA,NA,NA,NA,NA,NA,NA,NA,NA,NA,NA,NA,NA,NA,NA,NA,NA,0,0,0,2,1,NA,NA,NA,NA,NA
SUPAMT05723,3BXQMRHWK5XR27D659XWD3N0DGVMUE,543FA434-B9B6-4B41-A196-84E4EFF973E6,2023-09-27_11h22.50.448,WP_VExplicitOC_LH,2022.2.5,Win32,8,NA,NA,2.027,NA,NA,NA,NA,NA,frustrated,"frustrated, not frustrated","more frustrated, less frustrated",NA,NA,NA,NA,NA,NA,NA,NA,NA,NA,NA,NA,NA,NA,NA,NA,NA,NA,NA,NA,NA,NA,NA,NA,NA,NA,NA,NA,NA,NA,NA,NA,NA,NA,NA,NA,NA,NA,0,1,1,1,1,NA,NA,NA,NA,NA
SUPAMT05723,3BXQMRHWK5XR27D659XWD3N0DGVMUE,543FA434-B9B6-4B41-A196-84E4EFF973E6,2023-09-27_11h22.50.448,WP_VExplicitOC_LH,2022.2.5,Win32,8,84.375,5.321,2.056,NA,NA,NA,NA,NA,happy,"unhappy, happy","less happy, more happy",NA,NA,NA,NA,NA,NA,NA,NA,NA,NA,NA,NA,NA,NA,NA,NA,NA,NA,NA,NA,NA,NA,NA,NA,NA,NA,NA,NA,NA,NA,NA,NA,NA,NA,NA,NA,NA,NA,0,2,2,0,1,NA,NA,NA,NA,NA
SUPAMT05723,3BXQMRHWK5XR27D659XWD3N0DGVMUE,543FA434-B9B6-4B41-A196-84E4EFF973E6,2023-09-27_11h22.50.448,WP_VExplicitOC_LH,2022.2.5,Win32,8,NA,NA,NA,NA,NA,NA,NA,NA,NA,NA,NA,NA,NA,NA,NA,NA,NA,NA,NA,NA,NA,NA,NA,NA,NA,NA,NA,NA,NA,NA,NA,NA,NA,NA,NA,NA,NA,NA,NA,NA,NA,NA,NA,NA,NA,NA,NA,NA,NA,NA,NA,NA,NA,NA,12,0,12,0,1
SUPAMT05723,3BXQMRHWK5XR27D659XWD3N0DGVMUE,543FA434-B9B6-4B41-A196-84E4EFF973E6,2023-09-27_11h22.50.448,WP_VExplicitOC_LH,2022.2.5,Win32,8,78.38541667,5.711,2.1,NA,NA,NA,NA,NA,happy,"unhappy, happy","less happy, more happy",NA,NA,NA,NA,NA,NA,NA,NA,NA,NA,NA,NA,NA,NA,NA,NA,NA,NA,NA,NA,NA,NA,NA,NA,NA,NA,NA,NA,NA,NA,NA,NA,NA,NA,NA,NA,NA,NA,0,0,0,0,1,NA,NA,NA,NA,NA
SUPAMT05723,3BXQMRHWK5XR27D659XWD3N0DGVMUE,543FA434-B9B6-4B41-A196-84E4EFF973E6,2023-09-27_11h22.50.448,WP_VExplicitOC_LH,2022.2.5,Win32,8,76.5625,5.621,2.03,NA,NA,NA,NA,NA,bored,"bored, not bored","more bored, less bored",NA,NA,NA,NA,NA,NA,NA,NA,NA,NA,NA,NA,NA,NA,NA,NA,NA,NA,NA,NA,NA,NA,NA,NA,NA,NA,NA,NA,NA,NA,NA,NA,NA,NA,NA,NA,NA,NA,0,1,1,2,1,NA,NA,NA,NA,NA
SUPAMT05723,3BXQMRHWK5XR27D659XWD3N0DGVMUE,543FA434-B9B6-4B41-A196-84E4EFF973E6,2023-09-27_11h22.50.448,WP_VExplicitOC_LH,2022.2.5,Win32,8,72.65625,4.629,2.095,NA,NA,NA,NA,NA,frustrated,"frustrated, not frustrated","more frustrated, less frustrated",NA,NA,NA,NA,NA,NA,NA,NA,NA,NA,NA,NA,NA,NA,NA,NA,NA,NA,NA,NA,NA,NA,NA,NA,NA,NA,NA,NA,NA,NA,NA,NA,NA,NA,NA,NA,NA,NA,0,2,2,1,1,NA,NA,NA,NA,NA
SUPAMT05723,3BXQMRHWK5XR27D659XWD3N0DGVMUE,543FA434-B9B6-4B41-A196-84E4EFF973E6,2023-09-27_11h22.50.448,WP_VExplicitOC_LH,2022.2.5,Win32,8,NA,NA,NA,NA,NA,NA,NA,NA,NA,NA,NA,NA,NA,NA,NA,NA,NA,NA,NA,NA,NA,NA,NA,NA,NA,NA,NA,NA,NA,NA,NA,NA,NA,NA,NA,NA,NA,NA,NA,NA,NA,NA,NA,NA,NA,NA,NA,NA,NA,NA,NA,NA,NA,NA,13,0,13,0,1
SUPAMT05723,3BXQMRHWK5XR27D659XWD3N0DGVMUE,543FA434-B9B6-4B41-A196-84E4EFF973E6,2023-09-27_11h22.50.448,WP_VExplicitOC_LH,2022.2.5,Win32,8,95.3125,5.328,2.025,NA,NA,NA,NA,NA,happy,"unhappy, happy","less happy, more happy",NA,NA,NA,NA,NA,NA,NA,NA,NA,NA,NA,NA,NA,NA,NA,NA,NA,NA,NA,NA,NA,NA,NA,NA,NA,NA,NA,NA,NA,NA,NA,NA,NA,NA,NA,NA,NA,NA,0,0,0,0,1,NA,NA,NA,NA,NA
SUPAMT05723,3BXQMRHWK5XR27D659XWD3N0DGVMUE,543FA434-B9B6-4B41-A196-84E4EFF973E6,2023-09-27_11h22.50.448,WP_VExplicitOC_LH,2022.2.5,Win32,8,63.02083333,5.463,2.09,NA,NA,NA,NA,NA,frustrated,"frustrated, not frustrated","more frustrated, less frustrated",NA,NA,NA,NA,NA,NA,NA,NA,NA,NA,NA,NA,NA,NA,NA,NA,NA,NA,NA,NA,NA,NA,NA,NA,NA,NA,NA,NA,NA,NA,NA,NA,NA,NA,NA,NA,NA,NA,0,1,1,1,1,NA,NA,NA,NA,NA
SUPAMT05723,3BXQMRHWK5XR27D659XWD3N0DGVMUE,543FA434-B9B6-4B41-A196-84E4EFF973E6,2023-09-27_11h22.50.448,WP_VExplicitOC_LH,2022.2.5,Win32,8,76.5625,5.226,2.073,NA,NA,NA,NA,NA,bored,"bored, not bored","more bored, less bored",NA,NA,NA,NA,NA,NA,NA,NA,NA,NA,NA,NA,NA,NA,NA,NA,NA,NA,NA,NA,NA,NA,NA,NA,NA,NA,NA,NA,NA,NA,NA,NA,NA,NA,NA,NA,NA,NA,0,2,2,2,1,NA,NA,NA,NA,NA
SUPAMT05723,3BXQMRHWK5XR27D659XWD3N0DGVMUE,543FA434-B9B6-4B41-A196-84E4EFF973E6,2023-09-27_11h22.50.448,WP_VExplicitOC_LH,2022.2.5,Win32,8,NA,NA,NA,NA,NA,NA,NA,NA,NA,NA,NA,NA,NA,NA,NA,NA,NA,NA,NA,NA,NA,NA,NA,NA,NA,NA,NA,NA,NA,NA,NA,NA,NA,NA,NA,NA,NA,NA,NA,NA,NA,NA,NA,NA,NA,NA,NA,NA,NA,NA,NA,NA,NA,NA,14,0,14,0,1
SUPAMT05723,3BXQMRHWK5XR27D659XWD3N0DGVMUE,543FA434-B9B6-4B41-A196-84E4EFF973E6,2023-09-27_11h22.50.448,WP_VExplicitOC_LH,2022.2.5,Win32,8,NA,NA,NA,NA,NA,NA,NA,NA,NA,NA,NA,NA,NA,NA,NA,NA,NA,NA,NA,NA,NA,NA,NA,NA,NA,NA,NA,NA,NA,NA,NA,NA,NA,NA,NA,NA,NA,NA,NA,NA,NA,NA,NA,NA,NA,NA,NA,NA,NA,NA,NA,NA,NA,NA,NA,NA,NA,NA,NA
