participant,session,completion,date,expName,psychopyVersion,OS,frameRate,rating_all.response,rating_all.rt,rating_all.tStart,rndRat1.thisRepN,rndRat1.thisTrialN,rndRat1.thisN,rndRat1.thisIndex,rndRat1.ran,Emo,Labs,Labs2,rating_alt.response,rating_alt.rt,AltC.thisRepN,AltC.thisTrialN,AltC.thisN,AltC.thisIndex,AltC.ran,alt_choices,pic_choices,TopAlt_Choice,rndRat2.thisRepN,rndRat2.thisTrialN,rndRat2.thisN,rndRat2.thisIndex,rndRat2.ran,rndRat3.thisRepN,rndRat3.thisTrialN,rndRat3.thisN,rndRat3.thisIndex,rndRat3.ran,trials_FC_H.thisRepN,trials_FC_H.thisTrialN,trials_FC_H.thisN,trials_FC_H.thisIndex,trials_FC_H.ran,rating_alt_2.response,rating_alt_2.rt,AltC2.thisRepN,AltC2.thisTrialN,AltC2.thisN,AltC2.thisIndex,AltC2.ran,BottomAlt_Choice,rndRat4.thisRepN,rndRat4.thisTrialN,rndRat4.thisN,rndRat4.thisIndex,rndRat4.ran,rndRat5.thisRepN,rndRat5.thisTrialN,rndRat5.thisN,rndRat5.thisIndex,rndRat5.ran,trials_FC_L.thisRepN,trials_FC_L.thisTrialN,trials_FC_L.thisN,trials_FC_L.thisIndex,trials_FC_L.ran
SUPAMT79674,3OE22WJIGONINMBYX24DUC75NQKQUF,A73BE9CE-3D96-4F3F-BE53-9B59DE93B9C3,2023-09-28_13h45.57.383,WP_VExplicitOC_HL,2022.2.5,MacIntel,60.0024001,NA,NA,NA,NA,NA,NA,NA,NA,NA,NA,NA,NA,NA,NA,NA,NA,NA,NA,NA,NA,NA,NA,NA,NA,NA,NA,NA,NA,NA,NA,NA,NA,NA,NA,NA,NA,NA,NA,NA,NA,NA,NA,NA,NA,NA,NA,NA,NA,NA,NA,NA,NA,NA,NA,NA,NA,NA,NA,NA
SUPAMT79674,3OE22WJIGONINMBYX24DUC75NQKQUF,A73BE9CE-3D96-4F3F-BE53-9B59DE93B9C3,2023-09-28_13h45.57.383,WP_VExplicitOC_HL,2022.2.5,MacIntel,60.0024001,NA,NA,NA,NA,NA,NA,NA,NA,NA,NA,NA,NA,NA,NA,NA,NA,NA,NA,NA,NA,NA,NA,NA,NA,NA,NA,NA,NA,NA,NA,NA,NA,NA,NA,NA,NA,NA,NA,NA,NA,NA,NA,NA,NA,NA,NA,NA,NA,NA,NA,NA,NA,NA,NA,NA,NA,NA,NA,NA
SUPAMT79674,3OE22WJIGONINMBYX24DUC75NQKQUF,A73BE9CE-3D96-4F3F-BE53-9B59DE93B9C3,2023-09-28_13h45.57.383,WP_VExplicitOC_HL,2022.2.5,MacIntel,60.0024001,NA,NA,NA,NA,NA,NA,NA,NA,NA,NA,NA,NA,NA,NA,NA,NA,NA,NA,NA,NA,NA,NA,NA,NA,NA,NA,NA,NA,NA,NA,NA,NA,NA,NA,NA,NA,NA,NA,NA,NA,NA,NA,NA,NA,NA,NA,NA,NA,NA,NA,NA,NA,NA,NA,NA,NA,NA,NA,NA
SUPAMT79674,3OE22WJIGONINMBYX24DUC75NQKQUF,A73BE9CE-3D96-4F3F-BE53-9B59DE93B9C3,2023-09-28_13h45.57.383,WP_VExplicitOC_HL,2022.2.5,MacIntel,60.0024001,89.40320406,6.324,2.0009,0,0,0,1,1,frustrated,"frustrated, not frustrated","more frustrated, less frustrated",NA,NA,NA,NA,NA,NA,NA,NA,NA,NA,NA,NA,NA,NA,NA,NA,NA,NA,NA,NA,NA,NA,NA,NA,NA,NA,NA,NA,NA,NA,NA,NA,NA,NA,NA,NA,NA,NA,NA,NA,NA,NA,NA,NA,NA,NA,NA,NA
SUPAMT79674,3OE22WJIGONINMBYX24DUC75NQKQUF,A73BE9CE-3D96-4F3F-BE53-9B59DE93B9C3,2023-09-28_13h45.57.383,WP_VExplicitOC_HL,2022.2.5,MacIntel,60.0024001,39.49276879,3.409,2.0152,0,1,1,0,1,happy,"unhappy, happy","less happy, more happy",NA,NA,NA,NA,NA,NA,NA,NA,NA,NA,NA,NA,NA,NA,NA,NA,NA,NA,NA,NA,NA,NA,NA,NA,NA,NA,NA,NA,NA,NA,NA,NA,NA,NA,NA,NA,NA,NA,NA,NA,NA,NA,NA,NA,NA,NA,NA,NA
SUPAMT79674,3OE22WJIGONINMBYX24DUC75NQKQUF,A73BE9CE-3D96-4F3F-BE53-9B59DE93B9C3,2023-09-28_13h45.57.383,WP_VExplicitOC_HL,2022.2.5,MacIntel,60.0024001,35.57049851,3.3915,2.0178,0,2,2,2,1,bored,"bored, not bored","more bored, less bored",NA,NA,NA,NA,NA,NA,NA,NA,NA,NA,NA,NA,NA,NA,NA,NA,NA,NA,NA,NA,NA,NA,NA,NA,NA,NA,NA,NA,NA,NA,NA,NA,NA,NA,NA,NA,NA,NA,NA,NA,NA,NA,NA,NA,NA,NA,NA,NA
SUPAMT79674,3OE22WJIGONINMBYX24DUC75NQKQUF,A73BE9CE-3D96-4F3F-BE53-9B59DE93B9C3,2023-09-28_13h45.57.383,WP_VExplicitOC_HL,2022.2.5,MacIntel,60.0024001,NA,NA,NA,NA,NA,NA,NA,NA,NA,NA,NA,NA,NA,NA,NA,NA,NA,NA,NA,NA,NA,NA,NA,NA,NA,NA,NA,NA,NA,NA,NA,NA,NA,NA,NA,NA,NA,NA,NA,NA,NA,NA,NA,NA,NA,NA,NA,NA,NA,NA,NA,NA,NA,NA,NA,NA,NA,NA,NA
SUPAMT79674,3OE22WJIGONINMBYX24DUC75NQKQUF,A73BE9CE-3D96-4F3F-BE53-9B59DE93B9C3,2023-09-28_13h45.57.383,WP_VExplicitOC_HL,2022.2.5,MacIntel,60.0024001,NA,NA,NA,NA,NA,NA,NA,NA,NA,NA,NA,NA,NA,NA,NA,NA,NA,NA,NA,NA,NA,NA,NA,NA,NA,NA,NA,NA,NA,NA,NA,NA,NA,NA,NA,NA,NA,NA,NA,NA,NA,NA,NA,NA,NA,NA,NA,NA,NA,NA,NA,NA,NA,NA,NA,NA,NA,NA,NA
SUPAMT79674,3OE22WJIGONINMBYX24DUC75NQKQUF,A73BE9CE-3D96-4F3F-BE53-9B59DE93B9C3,2023-09-28_13h45.57.383,WP_VExplicitOC_HL,2022.2.5,MacIntel,60.0024001,NA,NA,NA,NA,NA,NA,NA,NA,NA,NA,NA,NA,NA,NA,NA,NA,NA,NA,NA,NA,NA,NA,NA,NA,NA,NA,NA,NA,NA,NA,NA,NA,NA,NA,NA,NA,NA,NA,NA,NA,NA,NA,NA,NA,NA,NA,NA,NA,NA,NA,NA,NA,NA,NA,NA,NA,NA,NA,NA
SUPAMT79674,3OE22WJIGONINMBYX24DUC75NQKQUF,A73BE9CE-3D96-4F3F-BE53-9B59DE93B9C3,2023-09-28_13h45.57.383,WP_VExplicitOC_HL,2022.2.5,MacIntel,60.0024001,NA,NA,NA,NA,NA,NA,NA,NA,NA,NA,NA,NA,NA,NA,NA,NA,NA,NA,NA,NA,NA,NA,NA,NA,NA,NA,NA,NA,NA,NA,NA,NA,NA,NA,NA,NA,NA,NA,NA,NA,NA,NA,NA,NA,NA,NA,NA,NA,NA,NA,NA,NA,NA,NA,NA,NA,NA,NA,NA
SUPAMT79674,3OE22WJIGONINMBYX24DUC75NQKQUF,A73BE9CE-3D96-4F3F-BE53-9B59DE93B9C3,2023-09-28_13h45.57.383,WP_VExplicitOC_HL,2022.2.5,MacIntel,60.0024001,NA,NA,NA,NA,NA,NA,NA,NA,NA,NA,NA,-95.7758324,3.1833,0,0,0,0,1,rest (looking at a fixed cross),001.png,NA,NA,NA,NA,NA,NA,NA,NA,NA,NA,NA,NA,NA,NA,NA,NA,NA,NA,NA,NA,NA,NA,NA,NA,NA,NA,NA,NA,NA,NA,NA,NA,NA,NA,NA,NA,NA,NA,NA
SUPAMT79674,3OE22WJIGONINMBYX24DUC75NQKQUF,A73BE9CE-3D96-4F3F-BE53-9B59DE93B9C3,2023-09-28_13h45.57.383,WP_VExplicitOC_HL,2022.2.5,MacIntel,60.0024001,NA,NA,NA,NA,NA,NA,NA,NA,NA,NA,NA,-97.71572149,2.3938,0,1,1,1,1,stand up,002.png,NA,NA,NA,NA,NA,NA,NA,NA,NA,NA,NA,NA,NA,NA,NA,NA,NA,NA,NA,NA,NA,NA,NA,NA,NA,NA,NA,NA,NA,NA,NA,NA,NA,NA,NA,NA,NA,NA,NA
SUPAMT79674,3OE22WJIGONINMBYX24DUC75NQKQUF,A73BE9CE-3D96-4F3F-BE53-9B59DE93B9C3,2023-09-28_13h45.57.383,WP_VExplicitOC_HL,2022.2.5,MacIntel,60.0024001,NA,NA,NA,NA,NA,NA,NA,NA,NA,NA,NA,-48.62867374,2.1092,0,2,2,2,1,stretch,003.png,NA,NA,NA,NA,NA,NA,NA,NA,NA,NA,NA,NA,NA,NA,NA,NA,NA,NA,NA,NA,NA,NA,NA,NA,NA,NA,NA,NA,NA,NA,NA,NA,NA,NA,NA,NA,NA,NA,NA
SUPAMT79674,3OE22WJIGONINMBYX24DUC75NQKQUF,A73BE9CE-3D96-4F3F-BE53-9B59DE93B9C3,2023-09-28_13h45.57.383,WP_VExplicitOC_HL,2022.2.5,MacIntel,60.0024001,NA,NA,NA,NA,NA,NA,NA,NA,NA,NA,NA,-2.640531994,2.8752,0,3,3,3,1,make a drink,004.png,NA,NA,NA,NA,NA,NA,NA,NA,NA,NA,NA,NA,NA,NA,NA,NA,NA,NA,NA,NA,NA,NA,NA,NA,NA,NA,NA,NA,NA,NA,NA,NA,NA,NA,NA,NA,NA,NA,NA
SUPAMT79674,3OE22WJIGONINMBYX24DUC75NQKQUF,A73BE9CE-3D96-4F3F-BE53-9B59DE93B9C3,2023-09-28_13h45.57.383,WP_VExplicitOC_HL,2022.2.5,MacIntel,60.0024001,NA,NA,NA,NA,NA,NA,NA,NA,NA,NA,NA,64.43991815,1.8604,0,4,4,4,1,scroll social media,005.png,NA,NA,NA,NA,NA,NA,NA,NA,NA,NA,NA,NA,NA,NA,NA,NA,NA,NA,NA,NA,NA,NA,NA,NA,NA,NA,NA,NA,NA,NA,NA,NA,NA,NA,NA,NA,NA,NA,NA
SUPAMT79674,3OE22WJIGONINMBYX24DUC75NQKQUF,A73BE9CE-3D96-4F3F-BE53-9B59DE93B9C3,2023-09-28_13h45.57.383,WP_VExplicitOC_HL,2022.2.5,MacIntel,60.0024001,NA,NA,NA,NA,NA,NA,NA,NA,NA,NA,NA,64.36618769,1.5939,0,5,5,5,1,listen to music,006.png,NA,NA,NA,NA,NA,NA,NA,NA,NA,NA,NA,NA,NA,NA,NA,NA,NA,NA,NA,NA,NA,NA,NA,NA,NA,NA,NA,NA,NA,NA,NA,NA,NA,NA,NA,NA,NA,NA,NA
SUPAMT79674,3OE22WJIGONINMBYX24DUC75NQKQUF,A73BE9CE-3D96-4F3F-BE53-9B59DE93B9C3,2023-09-28_13h45.57.383,WP_VExplicitOC_HL,2022.2.5,MacIntel,60.0024001,NA,NA,NA,NA,NA,NA,NA,NA,NA,NA,NA,-31.73306129,2.1766,0,6,6,6,1,daydream,007.png,NA,NA,NA,NA,NA,NA,NA,NA,NA,NA,NA,NA,NA,NA,NA,NA,NA,NA,NA,NA,NA,NA,NA,NA,NA,NA,NA,NA,NA,NA,NA,NA,NA,NA,NA,NA,NA,NA,NA
SUPAMT79674,3OE22WJIGONINMBYX24DUC75NQKQUF,A73BE9CE-3D96-4F3F-BE53-9B59DE93B9C3,2023-09-28_13h45.57.383,WP_VExplicitOC_HL,2022.2.5,MacIntel,60.0024001,NA,NA,NA,NA,NA,NA,NA,NA,NA,NA,NA,-1.997140067,2.7604,0,7,7,7,1,watch a short animation,008.png,NA,NA,NA,NA,NA,NA,NA,NA,NA,NA,NA,NA,NA,NA,NA,NA,NA,NA,NA,NA,NA,NA,NA,NA,NA,NA,NA,NA,NA,NA,NA,NA,NA,NA,NA,NA,NA,NA,NA
SUPAMT79674,3OE22WJIGONINMBYX24DUC75NQKQUF,A73BE9CE-3D96-4F3F-BE53-9B59DE93B9C3,2023-09-28_13h45.57.383,WP_VExplicitOC_HL,2022.2.5,MacIntel,60.0024001,NA,NA,NA,NA,NA,NA,NA,NA,NA,NA,NA,25.44166202,1.6456,0,8,8,8,1,read a novel,009.png,NA,NA,NA,NA,NA,NA,NA,NA,NA,NA,NA,NA,NA,NA,NA,NA,NA,NA,NA,NA,NA,NA,NA,NA,NA,NA,NA,NA,NA,NA,NA,NA,NA,NA,NA,NA,NA,NA,NA
SUPAMT79674,3OE22WJIGONINMBYX24DUC75NQKQUF,A73BE9CE-3D96-4F3F-BE53-9B59DE93B9C3,2023-09-28_13h45.57.383,WP_VExplicitOC_HL,2022.2.5,MacIntel,60.0024001,NA,NA,NA,NA,NA,NA,NA,NA,NA,NA,NA,3.338099888,1.6931,0,9,9,9,1,read the news,010.png,NA,NA,NA,NA,NA,NA,NA,NA,NA,NA,NA,NA,NA,NA,NA,NA,NA,NA,NA,NA,NA,NA,NA,NA,NA,NA,NA,NA,NA,NA,NA,NA,NA,NA,NA,NA,NA,NA,NA
SUPAMT79674,3OE22WJIGONINMBYX24DUC75NQKQUF,A73BE9CE-3D96-4F3F-BE53-9B59DE93B9C3,2023-09-28_13h45.57.383,WP_VExplicitOC_HL,2022.2.5,MacIntel,60.0024001,NA,NA,NA,NA,NA,NA,NA,NA,NA,NA,NA,NA,NA,NA,NA,NA,NA,NA,NA,NA,NA,NA,NA,NA,NA,NA,NA,NA,NA,NA,NA,NA,NA,NA,NA,NA,NA,NA,NA,NA,NA,NA,NA,NA,NA,NA,NA,NA,NA,NA,NA,NA,NA,NA,NA,NA,NA,NA,NA
SUPAMT79674,3OE22WJIGONINMBYX24DUC75NQKQUF,A73BE9CE-3D96-4F3F-BE53-9B59DE93B9C3,2023-09-28_13h45.57.383,WP_VExplicitOC_HL,2022.2.5,MacIntel,60.0024001,NA,NA,NA,NA,NA,NA,NA,NA,NA,NA,NA,NA,NA,NA,NA,NA,NA,NA,NA,NA,scroll social media,NA,NA,NA,NA,NA,NA,NA,NA,NA,NA,NA,NA,NA,NA,NA,NA,NA,NA,NA,NA,NA,NA,NA,NA,NA,NA,NA,NA,NA,NA,NA,NA,NA,NA,NA,NA,NA,NA
SUPAMT79674,3OE22WJIGONINMBYX24DUC75NQKQUF,A73BE9CE-3D96-4F3F-BE53-9B59DE93B9C3,2023-09-28_13h45.57.383,WP_VExplicitOC_HL,2022.2.5,MacIntel,60.0024001,-91.88591076,3.835,2.0086,NA,NA,NA,NA,NA,frustrated,"frustrated, not frustrated","more frustrated, less frustrated",NA,NA,NA,NA,NA,NA,NA,NA,NA,NA,0,0,0,1,1,NA,NA,NA,NA,NA,NA,NA,NA,NA,NA,NA,NA,NA,NA,NA,NA,NA,NA,NA,NA,NA,NA,NA,NA,NA,NA,NA,NA,NA,NA,NA,NA,NA
SUPAMT79674,3OE22WJIGONINMBYX24DUC75NQKQUF,A73BE9CE-3D96-4F3F-BE53-9B59DE93B9C3,2023-09-28_13h45.57.383,WP_VExplicitOC_HL,2022.2.5,MacIntel,60.0024001,-91.88591076,2.6248,2.015,NA,NA,NA,NA,NA,bored,"bored, not bored","more bored, less bored",NA,NA,NA,NA,NA,NA,NA,NA,NA,NA,0,1,1,2,1,NA,NA,NA,NA,NA,NA,NA,NA,NA,NA,NA,NA,NA,NA,NA,NA,NA,NA,NA,NA,NA,NA,NA,NA,NA,NA,NA,NA,NA,NA,NA,NA,NA
SUPAMT79674,3OE22WJIGONINMBYX24DUC75NQKQUF,A73BE9CE-3D96-4F3F-BE53-9B59DE93B9C3,2023-09-28_13h45.57.383,WP_VExplicitOC_HL,2022.2.5,MacIntel,60.0024001,-46.02773903,3.0909,2.0003,NA,NA,NA,NA,NA,happy,"unhappy, happy","less happy, more happy",NA,NA,NA,NA,NA,NA,NA,NA,NA,NA,0,2,2,0,1,NA,NA,NA,NA,NA,NA,NA,NA,NA,NA,NA,NA,NA,NA,NA,NA,NA,NA,NA,NA,NA,NA,NA,NA,NA,NA,NA,NA,NA,NA,NA,NA,NA
SUPAMT79674,3OE22WJIGONINMBYX24DUC75NQKQUF,A73BE9CE-3D96-4F3F-BE53-9B59DE93B9C3,2023-09-28_13h45.57.383,WP_VExplicitOC_HL,2022.2.5,MacIntel,60.0024001,NA,NA,NA,NA,NA,NA,NA,NA,NA,NA,NA,NA,NA,NA,NA,NA,NA,NA,NA,NA,NA,NA,NA,NA,NA,NA,NA,NA,NA,NA,NA,NA,NA,NA,NA,NA,NA,NA,NA,NA,NA,NA,NA,NA,NA,NA,NA,NA,NA,NA,NA,NA,NA,NA,NA,NA,NA,NA,NA
SUPAMT79674,3OE22WJIGONINMBYX24DUC75NQKQUF,A73BE9CE-3D96-4F3F-BE53-9B59DE93B9C3,2023-09-28_13h45.57.383,WP_VExplicitOC_HL,2022.2.5,MacIntel,60.0024001,NA,NA,NA,NA,NA,NA,NA,NA,NA,NA,NA,NA,NA,NA,NA,NA,NA,NA,NA,NA,NA,NA,NA,NA,NA,NA,NA,NA,NA,NA,NA,NA,NA,NA,NA,NA,NA,NA,NA,NA,NA,NA,NA,NA,NA,NA,NA,NA,NA,NA,NA,NA,NA,NA,NA,NA,NA,NA,NA
SUPAMT79674,3OE22WJIGONINMBYX24DUC75NQKQUF,A73BE9CE-3D96-4F3F-BE53-9B59DE93B9C3,2023-09-28_13h45.57.383,WP_VExplicitOC_HL,2022.2.5,MacIntel,60.0024001,-53.55182757,4.7034,2.0104,NA,NA,NA,NA,NA,frustrated,"frustrated, not frustrated","more frustrated, less frustrated",NA,NA,NA,NA,NA,NA,NA,NA,NA,NA,NA,NA,NA,NA,NA,0,0,0,1,1,NA,NA,NA,NA,NA,NA,NA,NA,NA,NA,NA,NA,NA,NA,NA,NA,NA,NA,NA,NA,NA,NA,NA,NA,NA,NA,NA,NA
SUPAMT79674,3OE22WJIGONINMBYX24DUC75NQKQUF,A73BE9CE-3D96-4F3F-BE53-9B59DE93B9C3,2023-09-28_13h45.57.383,WP_VExplicitOC_HL,2022.2.5,MacIntel,60.0024001,-53.55182757,2.6924,2.0173,NA,NA,NA,NA,NA,bored,"bored, not bored","more bored, less bored",NA,NA,NA,NA,NA,NA,NA,NA,NA,NA,NA,NA,NA,NA,NA,0,1,1,2,1,NA,NA,NA,NA,NA,NA,NA,NA,NA,NA,NA,NA,NA,NA,NA,NA,NA,NA,NA,NA,NA,NA,NA,NA,NA,NA,NA,NA
SUPAMT79674,3OE22WJIGONINMBYX24DUC75NQKQUF,A73BE9CE-3D96-4F3F-BE53-9B59DE93B9C3,2023-09-28_13h45.57.383,WP_VExplicitOC_HL,2022.2.5,MacIntel,60.0024001,-49.66773624,3.2256,2.0156,NA,NA,NA,NA,NA,happy,"unhappy, happy","less happy, more happy",NA,NA,NA,NA,NA,NA,NA,NA,NA,NA,NA,NA,NA,NA,NA,0,2,2,0,1,NA,NA,NA,NA,NA,NA,NA,NA,NA,NA,NA,NA,NA,NA,NA,NA,NA,NA,NA,NA,NA,NA,NA,NA,NA,NA,NA,NA
SUPAMT79674,3OE22WJIGONINMBYX24DUC75NQKQUF,A73BE9CE-3D96-4F3F-BE53-9B59DE93B9C3,2023-09-28_13h45.57.383,WP_VExplicitOC_HL,2022.2.5,MacIntel,60.0024001,NA,NA,NA,NA,NA,NA,NA,NA,NA,NA,NA,NA,NA,NA,NA,NA,NA,NA,NA,NA,NA,NA,NA,NA,NA,NA,NA,NA,NA,NA,NA,0,0,0,0,1,NA,NA,NA,NA,NA,NA,NA,NA,NA,NA,NA,NA,NA,NA,NA,NA,NA,NA,NA,NA,NA,NA,NA
SUPAMT79674,3OE22WJIGONINMBYX24DUC75NQKQUF,A73BE9CE-3D96-4F3F-BE53-9B59DE93B9C3,2023-09-28_13h45.57.383,WP_VExplicitOC_HL,2022.2.5,MacIntel,60.0024001,-49.66773624,3.0059,2.012,NA,NA,NA,NA,NA,happy,"unhappy, happy","less happy, more happy",NA,NA,NA,NA,NA,NA,NA,NA,NA,NA,NA,NA,NA,NA,NA,0,0,0,0,1,NA,NA,NA,NA,NA,NA,NA,NA,NA,NA,NA,NA,NA,NA,NA,NA,NA,NA,NA,NA,NA,NA,NA,NA,NA,NA,NA,NA
SUPAMT79674,3OE22WJIGONINMBYX24DUC75NQKQUF,A73BE9CE-3D96-4F3F-BE53-9B59DE93B9C3,2023-09-28_13h45.57.383,WP_VExplicitOC_HL,2022.2.5,MacIntel,60.0024001,-58.21040272,2.7765,2.0025,NA,NA,NA,NA,NA,bored,"bored, not bored","more bored, less bored",NA,NA,NA,NA,NA,NA,NA,NA,NA,NA,NA,NA,NA,NA,NA,0,1,1,2,1,NA,NA,NA,NA,NA,NA,NA,NA,NA,NA,NA,NA,NA,NA,NA,NA,NA,NA,NA,NA,NA,NA,NA,NA,NA,NA,NA,NA
SUPAMT79674,3OE22WJIGONINMBYX24DUC75NQKQUF,A73BE9CE-3D96-4F3F-BE53-9B59DE93B9C3,2023-09-28_13h45.57.383,WP_VExplicitOC_HL,2022.2.5,MacIntel,60.0024001,-37.3949149,3.26,2.0175,NA,NA,NA,NA,NA,frustrated,"frustrated, not frustrated","more frustrated, less frustrated",NA,NA,NA,NA,NA,NA,NA,NA,NA,NA,NA,NA,NA,NA,NA,0,2,2,1,1,NA,NA,NA,NA,NA,NA,NA,NA,NA,NA,NA,NA,NA,NA,NA,NA,NA,NA,NA,NA,NA,NA,NA,NA,NA,NA,NA,NA
SUPAMT79674,3OE22WJIGONINMBYX24DUC75NQKQUF,A73BE9CE-3D96-4F3F-BE53-9B59DE93B9C3,2023-09-28_13h45.57.383,WP_VExplicitOC_HL,2022.2.5,MacIntel,60.0024001,NA,NA,NA,NA,NA,NA,NA,NA,NA,NA,NA,NA,NA,NA,NA,NA,NA,NA,NA,NA,NA,NA,NA,NA,NA,NA,NA,NA,NA,NA,NA,1,0,1,0,1,NA,NA,NA,NA,NA,NA,NA,NA,NA,NA,NA,NA,NA,NA,NA,NA,NA,NA,NA,NA,NA,NA,NA
SUPAMT79674,3OE22WJIGONINMBYX24DUC75NQKQUF,A73BE9CE-3D96-4F3F-BE53-9B59DE93B9C3,2023-09-28_13h45.57.383,WP_VExplicitOC_HL,2022.2.5,MacIntel,60.0024001,-59.43529111,3.5729,2.0122,NA,NA,NA,NA,NA,frustrated,"frustrated, not frustrated","more frustrated, less frustrated",NA,NA,NA,NA,NA,NA,NA,NA,NA,NA,NA,NA,NA,NA,NA,0,0,0,1,1,NA,NA,NA,NA,NA,NA,NA,NA,NA,NA,NA,NA,NA,NA,NA,NA,NA,NA,NA,NA,NA,NA,NA,NA,NA,NA,NA,NA
SUPAMT79674,3OE22WJIGONINMBYX24DUC75NQKQUF,A73BE9CE-3D96-4F3F-BE53-9B59DE93B9C3,2023-09-28_13h45.57.383,WP_VExplicitOC_HL,2022.2.5,MacIntel,60.0024001,-43.06632487,3.076,2.0157,NA,NA,NA,NA,NA,happy,"unhappy, happy","less happy, more happy",NA,NA,NA,NA,NA,NA,NA,NA,NA,NA,NA,NA,NA,NA,NA,0,1,1,0,1,NA,NA,NA,NA,NA,NA,NA,NA,NA,NA,NA,NA,NA,NA,NA,NA,NA,NA,NA,NA,NA,NA,NA,NA,NA,NA,NA,NA
SUPAMT79674,3OE22WJIGONINMBYX24DUC75NQKQUF,A73BE9CE-3D96-4F3F-BE53-9B59DE93B9C3,2023-09-28_13h45.57.383,WP_VExplicitOC_HL,2022.2.5,MacIntel,60.0024001,-60.45562453,3.3932,2.0159,NA,NA,NA,NA,NA,bored,"bored, not bored","more bored, less bored",NA,NA,NA,NA,NA,NA,NA,NA,NA,NA,NA,NA,NA,NA,NA,0,2,2,2,1,NA,NA,NA,NA,NA,NA,NA,NA,NA,NA,NA,NA,NA,NA,NA,NA,NA,NA,NA,NA,NA,NA,NA,NA,NA,NA,NA,NA
SUPAMT79674,3OE22WJIGONINMBYX24DUC75NQKQUF,A73BE9CE-3D96-4F3F-BE53-9B59DE93B9C3,2023-09-28_13h45.57.383,WP_VExplicitOC_HL,2022.2.5,MacIntel,60.0024001,NA,NA,NA,NA,NA,NA,NA,NA,NA,NA,NA,NA,NA,NA,NA,NA,NA,NA,NA,NA,NA,NA,NA,NA,NA,NA,NA,NA,NA,NA,NA,2,0,2,0,1,NA,NA,NA,NA,NA,NA,NA,NA,NA,NA,NA,NA,NA,NA,NA,NA,NA,NA,NA,NA,NA,NA,NA
SUPAMT79674,3OE22WJIGONINMBYX24DUC75NQKQUF,A73BE9CE-3D96-4F3F-BE53-9B59DE93B9C3,2023-09-28_13h45.57.383,WP_VExplicitOC_HL,2022.2.5,MacIntel,60.0024001,-66.53446452,3.3227,2.0125,NA,NA,NA,NA,NA,frustrated,"frustrated, not frustrated","more frustrated, less frustrated",NA,NA,NA,NA,NA,NA,NA,NA,NA,NA,NA,NA,NA,NA,NA,0,0,0,1,1,NA,NA,NA,NA,NA,NA,NA,NA,NA,NA,NA,NA,NA,NA,NA,NA,NA,NA,NA,NA,NA,NA,NA,NA,NA,NA,NA,NA
SUPAMT79674,3OE22WJIGONINMBYX24DUC75NQKQUF,A73BE9CE-3D96-4F3F-BE53-9B59DE93B9C3,2023-09-28_13h45.57.383,WP_VExplicitOC_HL,2022.2.5,MacIntel,60.0024001,-31.75811477,3.1259,2.0167,NA,NA,NA,NA,NA,happy,"unhappy, happy","less happy, more happy",NA,NA,NA,NA,NA,NA,NA,NA,NA,NA,NA,NA,NA,NA,NA,0,1,1,0,1,NA,NA,NA,NA,NA,NA,NA,NA,NA,NA,NA,NA,NA,NA,NA,NA,NA,NA,NA,NA,NA,NA,NA,NA,NA,NA,NA,NA
SUPAMT79674,3OE22WJIGONINMBYX24DUC75NQKQUF,A73BE9CE-3D96-4F3F-BE53-9B59DE93B9C3,2023-09-28_13h45.57.383,WP_VExplicitOC_HL,2022.2.5,MacIntel,60.0024001,-78.29220145,3.4592,2.0161,NA,NA,NA,NA,NA,bored,"bored, not bored","more bored, less bored",NA,NA,NA,NA,NA,NA,NA,NA,NA,NA,NA,NA,NA,NA,NA,0,2,2,2,1,NA,NA,NA,NA,NA,NA,NA,NA,NA,NA,NA,NA,NA,NA,NA,NA,NA,NA,NA,NA,NA,NA,NA,NA,NA,NA,NA,NA
SUPAMT79674,3OE22WJIGONINMBYX24DUC75NQKQUF,A73BE9CE-3D96-4F3F-BE53-9B59DE93B9C3,2023-09-28_13h45.57.383,WP_VExplicitOC_HL,2022.2.5,MacIntel,60.0024001,NA,NA,NA,NA,NA,NA,NA,NA,NA,NA,NA,NA,NA,NA,NA,NA,NA,NA,NA,NA,NA,NA,NA,NA,NA,NA,NA,NA,NA,NA,NA,3,0,3,0,1,NA,NA,NA,NA,NA,NA,NA,NA,NA,NA,NA,NA,NA,NA,NA,NA,NA,NA,NA,NA,NA,NA,NA
SUPAMT79674,3OE22WJIGONINMBYX24DUC75NQKQUF,A73BE9CE-3D96-4F3F-BE53-9B59DE93B9C3,2023-09-28_13h45.57.383,WP_VExplicitOC_HL,2022.2.5,MacIntel,60.0024001,-34.52529762,4.1701,2.0095,NA,NA,NA,NA,NA,happy,"unhappy, happy","less happy, more happy",NA,NA,NA,NA,NA,NA,NA,NA,NA,NA,NA,NA,NA,NA,NA,0,0,0,0,1,NA,NA,NA,NA,NA,NA,NA,NA,NA,NA,NA,NA,NA,NA,NA,NA,NA,NA,NA,NA,NA,NA,NA,NA,NA,NA,NA,NA
SUPAMT79674,3OE22WJIGONINMBYX24DUC75NQKQUF,A73BE9CE-3D96-4F3F-BE53-9B59DE93B9C3,2023-09-28_13h45.57.383,WP_VExplicitOC_HL,2022.2.5,MacIntel,60.0024001,-67.90640113,2.7255,2.0164,NA,NA,NA,NA,NA,bored,"bored, not bored","more bored, less bored",NA,NA,NA,NA,NA,NA,NA,NA,NA,NA,NA,NA,NA,NA,NA,0,1,1,2,1,NA,NA,NA,NA,NA,NA,NA,NA,NA,NA,NA,NA,NA,NA,NA,NA,NA,NA,NA,NA,NA,NA,NA,NA,NA,NA,NA,NA
SUPAMT79674,3OE22WJIGONINMBYX24DUC75NQKQUF,A73BE9CE-3D96-4F3F-BE53-9B59DE93B9C3,2023-09-28_13h45.57.383,WP_VExplicitOC_HL,2022.2.5,MacIntel,60.0024001,-71.13380069,2.8579,2.0137,NA,NA,NA,NA,NA,frustrated,"frustrated, not frustrated","more frustrated, less frustrated",NA,NA,NA,NA,NA,NA,NA,NA,NA,NA,NA,NA,NA,NA,NA,0,2,2,1,1,NA,NA,NA,NA,NA,NA,NA,NA,NA,NA,NA,NA,NA,NA,NA,NA,NA,NA,NA,NA,NA,NA,NA,NA,NA,NA,NA,NA
SUPAMT79674,3OE22WJIGONINMBYX24DUC75NQKQUF,A73BE9CE-3D96-4F3F-BE53-9B59DE93B9C3,2023-09-28_13h45.57.383,WP_VExplicitOC_HL,2022.2.5,MacIntel,60.0024001,NA,NA,NA,NA,NA,NA,NA,NA,NA,NA,NA,NA,NA,NA,NA,NA,NA,NA,NA,NA,NA,NA,NA,NA,NA,NA,NA,NA,NA,NA,NA,4,0,4,0,1,NA,NA,NA,NA,NA,NA,NA,NA,NA,NA,NA,NA,NA,NA,NA,NA,NA,NA,NA,NA,NA,NA,NA
SUPAMT79674,3OE22WJIGONINMBYX24DUC75NQKQUF,A73BE9CE-3D96-4F3F-BE53-9B59DE93B9C3,2023-09-28_13h45.57.383,WP_VExplicitOC_HL,2022.2.5,MacIntel,60.0024001,-72.10734631,3.4386,2.0114,NA,NA,NA,NA,NA,bored,"bored, not bored","more bored, less bored",NA,NA,NA,NA,NA,NA,NA,NA,NA,NA,NA,NA,NA,NA,NA,0,0,0,2,1,NA,NA,NA,NA,NA,NA,NA,NA,NA,NA,NA,NA,NA,NA,NA,NA,NA,NA,NA,NA,NA,NA,NA,NA,NA,NA,NA,NA
SUPAMT79674,3OE22WJIGONINMBYX24DUC75NQKQUF,A73BE9CE-3D96-4F3F-BE53-9B59DE93B9C3,2023-09-28_13h45.57.383,WP_VExplicitOC_HL,2022.2.5,MacIntel,60.0024001,-72.10734631,2.5757,2.0153,NA,NA,NA,NA,NA,frustrated,"frustrated, not frustrated","more frustrated, less frustrated",NA,NA,NA,NA,NA,NA,NA,NA,NA,NA,NA,NA,NA,NA,NA,0,1,1,1,1,NA,NA,NA,NA,NA,NA,NA,NA,NA,NA,NA,NA,NA,NA,NA,NA,NA,NA,NA,NA,NA,NA,NA,NA,NA,NA,NA,NA
SUPAMT79674,3OE22WJIGONINMBYX24DUC75NQKQUF,A73BE9CE-3D96-4F3F-BE53-9B59DE93B9C3,2023-09-28_13h45.57.383,WP_VExplicitOC_HL,2022.2.5,MacIntel,60.0024001,-70.43937174,3.0932,2.0172,NA,NA,NA,NA,NA,happy,"unhappy, happy","less happy, more happy",NA,NA,NA,NA,NA,NA,NA,NA,NA,NA,NA,NA,NA,NA,NA,0,2,2,0,1,NA,NA,NA,NA,NA,NA,NA,NA,NA,NA,NA,NA,NA,NA,NA,NA,NA,NA,NA,NA,NA,NA,NA,NA,NA,NA,NA,NA
SUPAMT79674,3OE22WJIGONINMBYX24DUC75NQKQUF,A73BE9CE-3D96-4F3F-BE53-9B59DE93B9C3,2023-09-28_13h45.57.383,WP_VExplicitOC_HL,2022.2.5,MacIntel,60.0024001,NA,NA,NA,NA,NA,NA,NA,NA,NA,NA,NA,NA,NA,NA,NA,NA,NA,NA,NA,NA,NA,NA,NA,NA,NA,NA,NA,NA,NA,NA,NA,5,0,5,0,1,NA,NA,NA,NA,NA,NA,NA,NA,NA,NA,NA,NA,NA,NA,NA,NA,NA,NA,NA,NA,NA,NA,NA
SUPAMT79674,3OE22WJIGONINMBYX24DUC75NQKQUF,A73BE9CE-3D96-4F3F-BE53-9B59DE93B9C3,2023-09-28_13h45.57.383,WP_VExplicitOC_HL,2022.2.5,MacIntel,60.0024001,-72.48696754,4.0534,2.0113,NA,NA,NA,NA,NA,frustrated,"frustrated, not frustrated","more frustrated, less frustrated",NA,NA,NA,NA,NA,NA,NA,NA,NA,NA,NA,NA,NA,NA,NA,0,0,0,1,1,NA,NA,NA,NA,NA,NA,NA,NA,NA,NA,NA,NA,NA,NA,NA,NA,NA,NA,NA,NA,NA,NA,NA,NA,NA,NA,NA,NA
SUPAMT79674,3OE22WJIGONINMBYX24DUC75NQKQUF,A73BE9CE-3D96-4F3F-BE53-9B59DE93B9C3,2023-09-28_13h45.57.383,WP_VExplicitOC_HL,2022.2.5,MacIntel,60.0024001,-54.64149693,2.593,2.0161,NA,NA,NA,NA,NA,happy,"unhappy, happy","less happy, more happy",NA,NA,NA,NA,NA,NA,NA,NA,NA,NA,NA,NA,NA,NA,NA,0,1,1,0,1,NA,NA,NA,NA,NA,NA,NA,NA,NA,NA,NA,NA,NA,NA,NA,NA,NA,NA,NA,NA,NA,NA,NA,NA,NA,NA,NA,NA
SUPAMT79674,3OE22WJIGONINMBYX24DUC75NQKQUF,A73BE9CE-3D96-4F3F-BE53-9B59DE93B9C3,2023-09-28_13h45.57.383,WP_VExplicitOC_HL,2022.2.5,MacIntel,60.0024001,-77.94598679,2.9766,2.0013,NA,NA,NA,NA,NA,bored,"bored, not bored","more bored, less bored",NA,NA,NA,NA,NA,NA,NA,NA,NA,NA,NA,NA,NA,NA,NA,0,2,2,2,1,NA,NA,NA,NA,NA,NA,NA,NA,NA,NA,NA,NA,NA,NA,NA,NA,NA,NA,NA,NA,NA,NA,NA,NA,NA,NA,NA,NA
SUPAMT79674,3OE22WJIGONINMBYX24DUC75NQKQUF,A73BE9CE-3D96-4F3F-BE53-9B59DE93B9C3,2023-09-28_13h45.57.383,WP_VExplicitOC_HL,2022.2.5,MacIntel,60.0024001,NA,NA,NA,NA,NA,NA,NA,NA,NA,NA,NA,NA,NA,NA,NA,NA,NA,NA,NA,NA,NA,NA,NA,NA,NA,NA,NA,NA,NA,NA,NA,6,0,6,0,1,NA,NA,NA,NA,NA,NA,NA,NA,NA,NA,NA,NA,NA,NA,NA,NA,NA,NA,NA,NA,NA,NA,NA
SUPAMT79674,3OE22WJIGONINMBYX24DUC75NQKQUF,A73BE9CE-3D96-4F3F-BE53-9B59DE93B9C3,2023-09-28_13h45.57.383,WP_VExplicitOC_HL,2022.2.5,MacIntel,60.0024001,-62.64742606,4.4893,2.0111,NA,NA,NA,NA,NA,frustrated,"frustrated, not frustrated","more frustrated, less frustrated",NA,NA,NA,NA,NA,NA,NA,NA,NA,NA,NA,NA,NA,NA,NA,0,0,0,1,1,NA,NA,NA,NA,NA,NA,NA,NA,NA,NA,NA,NA,NA,NA,NA,NA,NA,NA,NA,NA,NA,NA,NA,NA,NA,NA,NA,NA
SUPAMT79674,3OE22WJIGONINMBYX24DUC75NQKQUF,A73BE9CE-3D96-4F3F-BE53-9B59DE93B9C3,2023-09-28_13h45.57.383,WP_VExplicitOC_HL,2022.2.5,MacIntel,60.0024001,-64.70541527,3.0266,2.0157,NA,NA,NA,NA,NA,bored,"bored, not bored","more bored, less bored",NA,NA,NA,NA,NA,NA,NA,NA,NA,NA,NA,NA,NA,NA,NA,0,1,1,2,1,NA,NA,NA,NA,NA,NA,NA,NA,NA,NA,NA,NA,NA,NA,NA,NA,NA,NA,NA,NA,NA,NA,NA,NA,NA,NA,NA,NA
SUPAMT79674,3OE22WJIGONINMBYX24DUC75NQKQUF,A73BE9CE-3D96-4F3F-BE53-9B59DE93B9C3,2023-09-28_13h45.57.383,WP_VExplicitOC_HL,2022.2.5,MacIntel,60.0024001,-44.92299107,3.0102,2.0178,NA,NA,NA,NA,NA,happy,"unhappy, happy","less happy, more happy",NA,NA,NA,NA,NA,NA,NA,NA,NA,NA,NA,NA,NA,NA,NA,0,2,2,0,1,NA,NA,NA,NA,NA,NA,NA,NA,NA,NA,NA,NA,NA,NA,NA,NA,NA,NA,NA,NA,NA,NA,NA,NA,NA,NA,NA,NA
SUPAMT79674,3OE22WJIGONINMBYX24DUC75NQKQUF,A73BE9CE-3D96-4F3F-BE53-9B59DE93B9C3,2023-09-28_13h45.57.383,WP_VExplicitOC_HL,2022.2.5,MacIntel,60.0024001,NA,NA,NA,NA,NA,NA,NA,NA,NA,NA,NA,NA,NA,NA,NA,NA,NA,NA,NA,NA,NA,NA,NA,NA,NA,NA,NA,NA,NA,NA,NA,7,0,7,0,1,NA,NA,NA,NA,NA,NA,NA,NA,NA,NA,NA,NA,NA,NA,NA,NA,NA,NA,NA,NA,NA,NA,NA
SUPAMT79674,3OE22WJIGONINMBYX24DUC75NQKQUF,A73BE9CE-3D96-4F3F-BE53-9B59DE93B9C3,2023-09-28_13h45.57.383,WP_VExplicitOC_HL,2022.2.5,MacIntel,60.0024001,-34.73393322,3.6551,2.0111,NA,NA,NA,NA,NA,happy,"unhappy, happy","less happy, more happy",NA,NA,NA,NA,NA,NA,NA,NA,NA,NA,NA,NA,NA,NA,NA,0,0,0,0,1,NA,NA,NA,NA,NA,NA,NA,NA,NA,NA,NA,NA,NA,NA,NA,NA,NA,NA,NA,NA,NA,NA,NA,NA,NA,NA,NA,NA
SUPAMT79674,3OE22WJIGONINMBYX24DUC75NQKQUF,A73BE9CE-3D96-4F3F-BE53-9B59DE93B9C3,2023-09-28_13h45.57.383,WP_VExplicitOC_HL,2022.2.5,MacIntel,60.0024001,-34.73393322,2.6262,2.017,NA,NA,NA,NA,NA,bored,"bored, not bored","more bored, less bored",NA,NA,NA,NA,NA,NA,NA,NA,NA,NA,NA,NA,NA,NA,NA,0,1,1,2,1,NA,NA,NA,NA,NA,NA,NA,NA,NA,NA,NA,NA,NA,NA,NA,NA,NA,NA,NA,NA,NA,NA,NA,NA,NA,NA,NA,NA
SUPAMT79674,3OE22WJIGONINMBYX24DUC75NQKQUF,A73BE9CE-3D96-4F3F-BE53-9B59DE93B9C3,2023-09-28_13h45.57.383,WP_VExplicitOC_HL,2022.2.5,MacIntel,60.0024001,-48.08693731,2.9119,2.0014,NA,NA,NA,NA,NA,frustrated,"frustrated, not frustrated","more frustrated, less frustrated",NA,NA,NA,NA,NA,NA,NA,NA,NA,NA,NA,NA,NA,NA,NA,0,2,2,1,1,NA,NA,NA,NA,NA,NA,NA,NA,NA,NA,NA,NA,NA,NA,NA,NA,NA,NA,NA,NA,NA,NA,NA,NA,NA,NA,NA,NA
SUPAMT79674,3OE22WJIGONINMBYX24DUC75NQKQUF,A73BE9CE-3D96-4F3F-BE53-9B59DE93B9C3,2023-09-28_13h45.57.383,WP_VExplicitOC_HL,2022.2.5,MacIntel,60.0024001,NA,NA,NA,NA,NA,NA,NA,NA,NA,NA,NA,NA,NA,NA,NA,NA,NA,NA,NA,NA,NA,NA,NA,NA,NA,NA,NA,NA,NA,NA,NA,8,0,8,0,1,NA,NA,NA,NA,NA,NA,NA,NA,NA,NA,NA,NA,NA,NA,NA,NA,NA,NA,NA,NA,NA,NA,NA
SUPAMT79674,3OE22WJIGONINMBYX24DUC75NQKQUF,A73BE9CE-3D96-4F3F-BE53-9B59DE93B9C3,2023-09-28_13h45.57.383,WP_VExplicitOC_HL,2022.2.5,MacIntel,60.0024001,-37.94259208,3.5722,2.0106,NA,NA,NA,NA,NA,happy,"unhappy, happy","less happy, more happy",NA,NA,NA,NA,NA,NA,NA,NA,NA,NA,NA,NA,NA,NA,NA,0,0,0,0,1,NA,NA,NA,NA,NA,NA,NA,NA,NA,NA,NA,NA,NA,NA,NA,NA,NA,NA,NA,NA,NA,NA,NA,NA,NA,NA,NA,NA
SUPAMT79674,3OE22WJIGONINMBYX24DUC75NQKQUF,A73BE9CE-3D96-4F3F-BE53-9B59DE93B9C3,2023-09-28_13h45.57.383,WP_VExplicitOC_HL,2022.2.5,MacIntel,60.0024001,-54.96671549,3.426,2.0145,NA,NA,NA,NA,NA,bored,"bored, not bored","more bored, less bored",NA,NA,NA,NA,NA,NA,NA,NA,NA,NA,NA,NA,NA,NA,NA,0,1,1,2,1,NA,NA,NA,NA,NA,NA,NA,NA,NA,NA,NA,NA,NA,NA,NA,NA,NA,NA,NA,NA,NA,NA,NA,NA,NA,NA,NA,NA
SUPAMT79674,3OE22WJIGONINMBYX24DUC75NQKQUF,A73BE9CE-3D96-4F3F-BE53-9B59DE93B9C3,2023-09-28_13h45.57.383,WP_VExplicitOC_HL,2022.2.5,MacIntel,60.0024001,-56.87865048,2.7927,2.0156,NA,NA,NA,NA,NA,frustrated,"frustrated, not frustrated","more frustrated, less frustrated",NA,NA,NA,NA,NA,NA,NA,NA,NA,NA,NA,NA,NA,NA,NA,0,2,2,1,1,NA,NA,NA,NA,NA,NA,NA,NA,NA,NA,NA,NA,NA,NA,NA,NA,NA,NA,NA,NA,NA,NA,NA,NA,NA,NA,NA,NA
SUPAMT79674,3OE22WJIGONINMBYX24DUC75NQKQUF,A73BE9CE-3D96-4F3F-BE53-9B59DE93B9C3,2023-09-28_13h45.57.383,WP_VExplicitOC_HL,2022.2.5,MacIntel,60.0024001,NA,NA,NA,NA,NA,NA,NA,NA,NA,NA,NA,NA,NA,NA,NA,NA,NA,NA,NA,NA,NA,NA,NA,NA,NA,NA,NA,NA,NA,NA,NA,9,0,9,0,1,NA,NA,NA,NA,NA,NA,NA,NA,NA,NA,NA,NA,NA,NA,NA,NA,NA,NA,NA,NA,NA,NA,NA
SUPAMT79674,3OE22WJIGONINMBYX24DUC75NQKQUF,A73BE9CE-3D96-4F3F-BE53-9B59DE93B9C3,2023-09-28_13h45.57.383,WP_VExplicitOC_HL,2022.2.5,MacIntel,60.0024001,-62.48690941,5.0397,2.0128,NA,NA,NA,NA,NA,frustrated,"frustrated, not frustrated","more frustrated, less frustrated",NA,NA,NA,NA,NA,NA,NA,NA,NA,NA,NA,NA,NA,NA,NA,0,0,0,1,1,NA,NA,NA,NA,NA,NA,NA,NA,NA,NA,NA,NA,NA,NA,NA,NA,NA,NA,NA,NA,NA,NA,NA,NA,NA,NA,NA,NA
SUPAMT79674,3OE22WJIGONINMBYX24DUC75NQKQUF,A73BE9CE-3D96-4F3F-BE53-9B59DE93B9C3,2023-09-28_13h45.57.383,WP_VExplicitOC_HL,2022.2.5,MacIntel,60.0024001,-62.48690941,2.9571,2.0135,NA,NA,NA,NA,NA,happy,"unhappy, happy","less happy, more happy",NA,NA,NA,NA,NA,NA,NA,NA,NA,NA,NA,NA,NA,NA,NA,0,1,1,0,1,NA,NA,NA,NA,NA,NA,NA,NA,NA,NA,NA,NA,NA,NA,NA,NA,NA,NA,NA,NA,NA,NA,NA,NA,NA,NA,NA,NA
SUPAMT79674,3OE22WJIGONINMBYX24DUC75NQKQUF,A73BE9CE-3D96-4F3F-BE53-9B59DE93B9C3,2023-09-28_13h45.57.383,WP_VExplicitOC_HL,2022.2.5,MacIntel,60.0024001,-62.48690941,3.0933,2.0168,NA,NA,NA,NA,NA,bored,"bored, not bored","more bored, less bored",NA,NA,NA,NA,NA,NA,NA,NA,NA,NA,NA,NA,NA,NA,NA,0,2,2,2,1,NA,NA,NA,NA,NA,NA,NA,NA,NA,NA,NA,NA,NA,NA,NA,NA,NA,NA,NA,NA,NA,NA,NA,NA,NA,NA,NA,NA
SUPAMT79674,3OE22WJIGONINMBYX24DUC75NQKQUF,A73BE9CE-3D96-4F3F-BE53-9B59DE93B9C3,2023-09-28_13h45.57.383,WP_VExplicitOC_HL,2022.2.5,MacIntel,60.0024001,NA,NA,NA,NA,NA,NA,NA,NA,NA,NA,NA,NA,NA,NA,NA,NA,NA,NA,NA,NA,NA,NA,NA,NA,NA,NA,NA,NA,NA,NA,NA,10,0,10,0,1,NA,NA,NA,NA,NA,NA,NA,NA,NA,NA,NA,NA,NA,NA,NA,NA,NA,NA,NA,NA,NA,NA,NA
SUPAMT79674,3OE22WJIGONINMBYX24DUC75NQKQUF,A73BE9CE-3D96-4F3F-BE53-9B59DE93B9C3,2023-09-28_13h45.57.383,WP_VExplicitOC_HL,2022.2.5,MacIntel,60.0024001,-73.86431594,2.7712,2.0121000000000002,NA,NA,NA,NA,NA,bored,"bored, not bored","more bored, less bored",NA,NA,NA,NA,NA,NA,NA,NA,NA,NA,NA,NA,NA,NA,NA,0,0,0,2,1,NA,NA,NA,NA,NA,NA,NA,NA,NA,NA,NA,NA,NA,NA,NA,NA,NA,NA,NA,NA,NA,NA,NA,NA,NA,NA,NA,NA
SUPAMT79674,3OE22WJIGONINMBYX24DUC75NQKQUF,A73BE9CE-3D96-4F3F-BE53-9B59DE93B9C3,2023-09-28_13h45.57.383,WP_VExplicitOC_HL,2022.2.5,MacIntel,60.0024001,-55.77743676,2.711,2.0013,NA,NA,NA,NA,NA,happy,"unhappy, happy","less happy, more happy",NA,NA,NA,NA,NA,NA,NA,NA,NA,NA,NA,NA,NA,NA,NA,0,1,1,0,1,NA,NA,NA,NA,NA,NA,NA,NA,NA,NA,NA,NA,NA,NA,NA,NA,NA,NA,NA,NA,NA,NA,NA,NA,NA,NA,NA,NA
SUPAMT79674,3OE22WJIGONINMBYX24DUC75NQKQUF,A73BE9CE-3D96-4F3F-BE53-9B59DE93B9C3,2023-09-28_13h45.57.383,WP_VExplicitOC_HL,2022.2.5,MacIntel,60.0024001,-67.40504092,2.5754,2.0162,NA,NA,NA,NA,NA,frustrated,"frustrated, not frustrated","more frustrated, less frustrated",NA,NA,NA,NA,NA,NA,NA,NA,NA,NA,NA,NA,NA,NA,NA,0,2,2,1,1,NA,NA,NA,NA,NA,NA,NA,NA,NA,NA,NA,NA,NA,NA,NA,NA,NA,NA,NA,NA,NA,NA,NA,NA,NA,NA,NA,NA
SUPAMT79674,3OE22WJIGONINMBYX24DUC75NQKQUF,A73BE9CE-3D96-4F3F-BE53-9B59DE93B9C3,2023-09-28_13h45.57.383,WP_VExplicitOC_HL,2022.2.5,MacIntel,60.0024001,NA,NA,NA,NA,NA,NA,NA,NA,NA,NA,NA,NA,NA,NA,NA,NA,NA,NA,NA,NA,NA,NA,NA,NA,NA,NA,NA,NA,NA,NA,NA,11,0,11,0,1,NA,NA,NA,NA,NA,NA,NA,NA,NA,NA,NA,NA,NA,NA,NA,NA,NA,NA,NA,NA,NA,NA,NA
SUPAMT79674,3OE22WJIGONINMBYX24DUC75NQKQUF,A73BE9CE-3D96-4F3F-BE53-9B59DE93B9C3,2023-09-28_13h45.57.383,WP_VExplicitOC_HL,2022.2.5,MacIntel,60.0024001,-67.40504092,3.2398,2.0118,NA,NA,NA,NA,NA,happy,"unhappy, happy","less happy, more happy",NA,NA,NA,NA,NA,NA,NA,NA,NA,NA,NA,NA,NA,NA,NA,0,0,0,0,1,NA,NA,NA,NA,NA,NA,NA,NA,NA,NA,NA,NA,NA,NA,NA,NA,NA,NA,NA,NA,NA,NA,NA,NA,NA,NA,NA,NA
SUPAMT79674,3OE22WJIGONINMBYX24DUC75NQKQUF,A73BE9CE-3D96-4F3F-BE53-9B59DE93B9C3,2023-09-28_13h45.57.383,WP_VExplicitOC_HL,2022.2.5,MacIntel,60.0024001,-67.40504092,3.0261,2.0149,NA,NA,NA,NA,NA,frustrated,"frustrated, not frustrated","more frustrated, less frustrated",NA,NA,NA,NA,NA,NA,NA,NA,NA,NA,NA,NA,NA,NA,NA,0,1,1,1,1,NA,NA,NA,NA,NA,NA,NA,NA,NA,NA,NA,NA,NA,NA,NA,NA,NA,NA,NA,NA,NA,NA,NA,NA,NA,NA,NA,NA
SUPAMT79674,3OE22WJIGONINMBYX24DUC75NQKQUF,A73BE9CE-3D96-4F3F-BE53-9B59DE93B9C3,2023-09-28_13h45.57.383,WP_VExplicitOC_HL,2022.2.5,MacIntel,60.0024001,-72.26048061,3.0768,2.0157,NA,NA,NA,NA,NA,bored,"bored, not bored","more bored, less bored",NA,NA,NA,NA,NA,NA,NA,NA,NA,NA,NA,NA,NA,NA,NA,0,2,2,2,1,NA,NA,NA,NA,NA,NA,NA,NA,NA,NA,NA,NA,NA,NA,NA,NA,NA,NA,NA,NA,NA,NA,NA,NA,NA,NA,NA,NA
SUPAMT79674,3OE22WJIGONINMBYX24DUC75NQKQUF,A73BE9CE-3D96-4F3F-BE53-9B59DE93B9C3,2023-09-28_13h45.57.383,WP_VExplicitOC_HL,2022.2.5,MacIntel,60.0024001,NA,NA,NA,NA,NA,NA,NA,NA,NA,NA,NA,NA,NA,NA,NA,NA,NA,NA,NA,NA,NA,NA,NA,NA,NA,NA,NA,NA,NA,NA,NA,12,0,12,0,1,NA,NA,NA,NA,NA,NA,NA,NA,NA,NA,NA,NA,NA,NA,NA,NA,NA,NA,NA,NA,NA,NA,NA
SUPAMT79674,3OE22WJIGONINMBYX24DUC75NQKQUF,A73BE9CE-3D96-4F3F-BE53-9B59DE93B9C3,2023-09-28_13h45.57.383,WP_VExplicitOC_HL,2022.2.5,MacIntel,60.0024001,-72.26048061,2.7748,2.015,NA,NA,NA,NA,NA,happy,"unhappy, happy","less happy, more happy",NA,NA,NA,NA,NA,NA,NA,NA,NA,NA,NA,NA,NA,NA,NA,0,0,0,0,1,NA,NA,NA,NA,NA,NA,NA,NA,NA,NA,NA,NA,NA,NA,NA,NA,NA,NA,NA,NA,NA,NA,NA,NA,NA,NA,NA,NA
SUPAMT79674,3OE22WJIGONINMBYX24DUC75NQKQUF,A73BE9CE-3D96-4F3F-BE53-9B59DE93B9C3,2023-09-28_13h45.57.383,WP_VExplicitOC_HL,2022.2.5,MacIntel,60.0024001,-83.61711193,2.5768,2.015,NA,NA,NA,NA,NA,bored,"bored, not bored","more bored, less bored",NA,NA,NA,NA,NA,NA,NA,NA,NA,NA,NA,NA,NA,NA,NA,0,1,1,2,1,NA,NA,NA,NA,NA,NA,NA,NA,NA,NA,NA,NA,NA,NA,NA,NA,NA,NA,NA,NA,NA,NA,NA,NA,NA,NA,NA,NA
SUPAMT79674,3OE22WJIGONINMBYX24DUC75NQKQUF,A73BE9CE-3D96-4F3F-BE53-9B59DE93B9C3,2023-09-28_13h45.57.383,WP_VExplicitOC_HL,2022.2.5,MacIntel,60.0024001,-75.14399065,2.4745,2.003,NA,NA,NA,NA,NA,frustrated,"frustrated, not frustrated","more frustrated, less frustrated",NA,NA,NA,NA,NA,NA,NA,NA,NA,NA,NA,NA,NA,NA,NA,0,2,2,1,1,NA,NA,NA,NA,NA,NA,NA,NA,NA,NA,NA,NA,NA,NA,NA,NA,NA,NA,NA,NA,NA,NA,NA,NA,NA,NA,NA,NA
SUPAMT79674,3OE22WJIGONINMBYX24DUC75NQKQUF,A73BE9CE-3D96-4F3F-BE53-9B59DE93B9C3,2023-09-28_13h45.57.383,WP_VExplicitOC_HL,2022.2.5,MacIntel,60.0024001,NA,NA,NA,NA,NA,NA,NA,NA,NA,NA,NA,NA,NA,NA,NA,NA,NA,NA,NA,NA,NA,NA,NA,NA,NA,NA,NA,NA,NA,NA,NA,13,0,13,0,1,NA,NA,NA,NA,NA,NA,NA,NA,NA,NA,NA,NA,NA,NA,NA,NA,NA,NA,NA,NA,NA,NA,NA
SUPAMT79674,3OE22WJIGONINMBYX24DUC75NQKQUF,A73BE9CE-3D96-4F3F-BE53-9B59DE93B9C3,2023-09-28_13h45.57.383,WP_VExplicitOC_HL,2022.2.5,MacIntel,60.0024001,-77.96744792,3.424,2.013,NA,NA,NA,NA,NA,frustrated,"frustrated, not frustrated","more frustrated, less frustrated",NA,NA,NA,NA,NA,NA,NA,NA,NA,NA,NA,NA,NA,NA,NA,0,0,0,1,1,NA,NA,NA,NA,NA,NA,NA,NA,NA,NA,NA,NA,NA,NA,NA,NA,NA,NA,NA,NA,NA,NA,NA,NA,NA,NA,NA,NA
SUPAMT79674,3OE22WJIGONINMBYX24DUC75NQKQUF,A73BE9CE-3D96-4F3F-BE53-9B59DE93B9C3,2023-09-28_13h45.57.383,WP_VExplicitOC_HL,2022.2.5,MacIntel,60.0024001,-61.10859608,2.9432,2.0199,NA,NA,NA,NA,NA,happy,"unhappy, happy","less happy, more happy",NA,NA,NA,NA,NA,NA,NA,NA,NA,NA,NA,NA,NA,NA,NA,0,1,1,0,1,NA,NA,NA,NA,NA,NA,NA,NA,NA,NA,NA,NA,NA,NA,NA,NA,NA,NA,NA,NA,NA,NA,NA,NA,NA,NA,NA,NA
SUPAMT79674,3OE22WJIGONINMBYX24DUC75NQKQUF,A73BE9CE-3D96-4F3F-BE53-9B59DE93B9C3,2023-09-28_13h45.57.383,WP_VExplicitOC_HL,2022.2.5,MacIntel,60.0024001,-73.85045805,2.6271,2.0162,NA,NA,NA,NA,NA,bored,"bored, not bored","more bored, less bored",NA,NA,NA,NA,NA,NA,NA,NA,NA,NA,NA,NA,NA,NA,NA,0,2,2,2,1,NA,NA,NA,NA,NA,NA,NA,NA,NA,NA,NA,NA,NA,NA,NA,NA,NA,NA,NA,NA,NA,NA,NA,NA,NA,NA,NA,NA
SUPAMT79674,3OE22WJIGONINMBYX24DUC75NQKQUF,A73BE9CE-3D96-4F3F-BE53-9B59DE93B9C3,2023-09-28_13h45.57.383,WP_VExplicitOC_HL,2022.2.5,MacIntel,60.0024001,NA,NA,NA,NA,NA,NA,NA,NA,NA,NA,NA,NA,NA,NA,NA,NA,NA,NA,NA,NA,NA,NA,NA,NA,NA,NA,NA,NA,NA,NA,NA,14,0,14,0,1,NA,NA,NA,NA,NA,NA,NA,NA,NA,NA,NA,NA,NA,NA,NA,NA,NA,NA,NA,NA,NA,NA,NA
SUPAMT79674,3OE22WJIGONINMBYX24DUC75NQKQUF,A73BE9CE-3D96-4F3F-BE53-9B59DE93B9C3,2023-09-28_13h45.57.383,WP_VExplicitOC_HL,2022.2.5,MacIntel,60.0024001,NA,NA,NA,NA,NA,NA,NA,NA,NA,NA,NA,NA,NA,NA,NA,NA,NA,NA,NA,NA,NA,NA,NA,NA,NA,NA,NA,NA,NA,NA,NA,NA,NA,NA,NA,NA,NA,NA,NA,NA,NA,NA,NA,NA,NA,NA,NA,NA,NA,NA,NA,NA,NA,NA,NA,NA,NA,NA,NA
SUPAMT79674,3OE22WJIGONINMBYX24DUC75NQKQUF,A73BE9CE-3D96-4F3F-BE53-9B59DE93B9C3,2023-09-28_13h45.57.383,WP_VExplicitOC_HL,2022.2.5,MacIntel,60.0024001,NA,NA,NA,NA,NA,NA,NA,NA,NA,NA,NA,NA,NA,NA,NA,NA,NA,NA,NA,NA,NA,NA,NA,NA,NA,NA,NA,NA,NA,NA,NA,NA,NA,NA,NA,NA,NA,NA,NA,NA,NA,NA,NA,NA,NA,NA,NA,NA,NA,NA,NA,NA,NA,NA,NA,NA,NA,NA,NA
SUPAMT79674,3OE22WJIGONINMBYX24DUC75NQKQUF,A73BE9CE-3D96-4F3F-BE53-9B59DE93B9C3,2023-09-28_13h45.57.383,WP_VExplicitOC_HL,2022.2.5,MacIntel,60.0024001,NA,NA,NA,NA,NA,NA,NA,NA,NA,NA,NA,NA,NA,NA,NA,NA,NA,NA,rest (looking at a fixed cross),001.png,NA,NA,NA,NA,NA,NA,NA,NA,NA,NA,NA,NA,NA,NA,NA,NA,-98.94917225,2.5232,0,0,0,0,1,NA,NA,NA,NA,NA,NA,NA,NA,NA,NA,NA,NA,NA,NA,NA,NA
SUPAMT79674,3OE22WJIGONINMBYX24DUC75NQKQUF,A73BE9CE-3D96-4F3F-BE53-9B59DE93B9C3,2023-09-28_13h45.57.383,WP_VExplicitOC_HL,2022.2.5,MacIntel,60.0024001,NA,NA,NA,NA,NA,NA,NA,NA,NA,NA,NA,NA,NA,NA,NA,NA,NA,NA,stand up,002.png,NA,NA,NA,NA,NA,NA,NA,NA,NA,NA,NA,NA,NA,NA,NA,NA,-98.94917225,1.3433,0,1,1,1,1,NA,NA,NA,NA,NA,NA,NA,NA,NA,NA,NA,NA,NA,NA,NA,NA
SUPAMT79674,3OE22WJIGONINMBYX24DUC75NQKQUF,A73BE9CE-3D96-4F3F-BE53-9B59DE93B9C3,2023-09-28_13h45.57.383,WP_VExplicitOC_HL,2022.2.5,MacIntel,60.0024001,NA,NA,NA,NA,NA,NA,NA,NA,NA,NA,NA,NA,NA,NA,NA,NA,NA,NA,stretch,003.png,NA,NA,NA,NA,NA,NA,NA,NA,NA,NA,NA,NA,NA,NA,NA,NA,-44.02752976,2.0596,0,2,2,2,1,NA,NA,NA,NA,NA,NA,NA,NA,NA,NA,NA,NA,NA,NA,NA,NA
SUPAMT79674,3OE22WJIGONINMBYX24DUC75NQKQUF,A73BE9CE-3D96-4F3F-BE53-9B59DE93B9C3,2023-09-28_13h45.57.383,WP_VExplicitOC_HL,2022.2.5,MacIntel,60.0024001,NA,NA,NA,NA,NA,NA,NA,NA,NA,NA,NA,NA,NA,NA,NA,NA,NA,NA,make a drink,004.png,NA,NA,NA,NA,NA,NA,NA,NA,NA,NA,NA,NA,NA,NA,NA,NA,-3.047642299,1.8098,0,3,3,3,1,NA,NA,NA,NA,NA,NA,NA,NA,NA,NA,NA,NA,NA,NA,NA,NA
SUPAMT79674,3OE22WJIGONINMBYX24DUC75NQKQUF,A73BE9CE-3D96-4F3F-BE53-9B59DE93B9C3,2023-09-28_13h45.57.383,WP_VExplicitOC_HL,2022.2.5,MacIntel,60.0024001,NA,NA,NA,NA,NA,NA,NA,NA,NA,NA,NA,NA,NA,NA,NA,NA,NA,NA,scroll social media,005.png,NA,NA,NA,NA,NA,NA,NA,NA,NA,NA,NA,NA,NA,NA,NA,NA,99.33703032,1.8961,0,4,4,4,1,NA,NA,NA,NA,NA,NA,NA,NA,NA,NA,NA,NA,NA,NA,NA,NA
SUPAMT79674,3OE22WJIGONINMBYX24DUC75NQKQUF,A73BE9CE-3D96-4F3F-BE53-9B59DE93B9C3,2023-09-28_13h45.57.383,WP_VExplicitOC_HL,2022.2.5,MacIntel,60.0024001,NA,NA,NA,NA,NA,NA,NA,NA,NA,NA,NA,NA,NA,NA,NA,NA,NA,NA,listen to music,006.png,NA,NA,NA,NA,NA,NA,NA,NA,NA,NA,NA,NA,NA,NA,NA,NA,71.43224516,1.7107,0,5,5,5,1,NA,NA,NA,NA,NA,NA,NA,NA,NA,NA,NA,NA,NA,NA,NA,NA
SUPAMT79674,3OE22WJIGONINMBYX24DUC75NQKQUF,A73BE9CE-3D96-4F3F-BE53-9B59DE93B9C3,2023-09-28_13h45.57.383,WP_VExplicitOC_HL,2022.2.5,MacIntel,60.0024001,NA,NA,NA,NA,NA,NA,NA,NA,NA,NA,NA,NA,NA,NA,NA,NA,NA,NA,daydream,007.png,NA,NA,NA,NA,NA,NA,NA,NA,NA,NA,NA,NA,NA,NA,NA,NA,11.69471959,1.6599,0,6,6,6,1,NA,NA,NA,NA,NA,NA,NA,NA,NA,NA,NA,NA,NA,NA,NA,NA
SUPAMT79674,3OE22WJIGONINMBYX24DUC75NQKQUF,A73BE9CE-3D96-4F3F-BE53-9B59DE93B9C3,2023-09-28_13h45.57.383,WP_VExplicitOC_HL,2022.2.5,MacIntel,60.0024001,NA,NA,NA,NA,NA,NA,NA,NA,NA,NA,NA,NA,NA,NA,NA,NA,NA,NA,watch a short animation,008.png,NA,NA,NA,NA,NA,NA,NA,NA,NA,NA,NA,NA,NA,NA,NA,NA,-30.69328962,1.7439,0,7,7,7,1,NA,NA,NA,NA,NA,NA,NA,NA,NA,NA,NA,NA,NA,NA,NA,NA
SUPAMT79674,3OE22WJIGONINMBYX24DUC75NQKQUF,A73BE9CE-3D96-4F3F-BE53-9B59DE93B9C3,2023-09-28_13h45.57.383,WP_VExplicitOC_HL,2022.2.5,MacIntel,60.0024001,NA,NA,NA,NA,NA,NA,NA,NA,NA,NA,NA,NA,NA,NA,NA,NA,NA,NA,read a novel,009.png,NA,NA,NA,NA,NA,NA,NA,NA,NA,NA,NA,NA,NA,NA,NA,NA,28.57597424,1.7214,0,8,8,8,1,NA,NA,NA,NA,NA,NA,NA,NA,NA,NA,NA,NA,NA,NA,NA,NA
SUPAMT79674,3OE22WJIGONINMBYX24DUC75NQKQUF,A73BE9CE-3D96-4F3F-BE53-9B59DE93B9C3,2023-09-28_13h45.57.383,WP_VExplicitOC_HL,2022.2.5,MacIntel,60.0024001,NA,NA,NA,NA,NA,NA,NA,NA,NA,NA,NA,NA,NA,NA,NA,NA,NA,NA,read the news,010.png,NA,NA,NA,NA,NA,NA,NA,NA,NA,NA,NA,NA,NA,NA,NA,NA,-9.873139881,1.6116,0,9,9,9,1,NA,NA,NA,NA,NA,NA,NA,NA,NA,NA,NA,NA,NA,NA,NA,NA
SUPAMT79674,3OE22WJIGONINMBYX24DUC75NQKQUF,A73BE9CE-3D96-4F3F-BE53-9B59DE93B9C3,2023-09-28_13h45.57.383,WP_VExplicitOC_HL,2022.2.5,MacIntel,60.0024001,NA,NA,NA,NA,NA,NA,NA,NA,NA,NA,NA,NA,NA,NA,NA,NA,NA,NA,NA,NA,NA,NA,NA,NA,NA,NA,NA,NA,NA,NA,NA,NA,NA,NA,NA,NA,NA,NA,NA,NA,NA,NA,NA,stand up,NA,NA,NA,NA,NA,NA,NA,NA,NA,NA,NA,NA,NA,NA,NA
SUPAMT79674,3OE22WJIGONINMBYX24DUC75NQKQUF,A73BE9CE-3D96-4F3F-BE53-9B59DE93B9C3,2023-09-28_13h45.57.383,WP_VExplicitOC_HL,2022.2.5,MacIntel,60.0024001,52.36809431,5.9065,2.0131,NA,NA,NA,NA,NA,frustrated,"frustrated, not frustrated","more frustrated, less frustrated",NA,NA,NA,NA,NA,NA,NA,NA,NA,NA,NA,NA,NA,NA,NA,NA,NA,NA,NA,NA,NA,NA,NA,NA,NA,NA,NA,NA,NA,NA,NA,NA,NA,0,0,0,1,1,NA,NA,NA,NA,NA,NA,NA,NA,NA,NA
SUPAMT79674,3OE22WJIGONINMBYX24DUC75NQKQUF,A73BE9CE-3D96-4F3F-BE53-9B59DE93B9C3,2023-09-28_13h45.57.383,WP_VExplicitOC_HL,2022.2.5,MacIntel,60.0024001,11.17538597,3.1272,2.0168,NA,NA,NA,NA,NA,bored,"bored, not bored","more bored, less bored",NA,NA,NA,NA,NA,NA,NA,NA,NA,NA,NA,NA,NA,NA,NA,NA,NA,NA,NA,NA,NA,NA,NA,NA,NA,NA,NA,NA,NA,NA,NA,NA,NA,0,1,1,2,1,NA,NA,NA,NA,NA,NA,NA,NA,NA,NA
SUPAMT79674,3OE22WJIGONINMBYX24DUC75NQKQUF,A73BE9CE-3D96-4F3F-BE53-9B59DE93B9C3,2023-09-28_13h45.57.383,WP_VExplicitOC_HL,2022.2.5,MacIntel,60.0024001,5.281110491,2.6763,2.0023,NA,NA,NA,NA,NA,happy,"unhappy, happy","less happy, more happy",NA,NA,NA,NA,NA,NA,NA,NA,NA,NA,NA,NA,NA,NA,NA,NA,NA,NA,NA,NA,NA,NA,NA,NA,NA,NA,NA,NA,NA,NA,NA,NA,NA,0,2,2,0,1,NA,NA,NA,NA,NA,NA,NA,NA,NA,NA
SUPAMT79674,3OE22WJIGONINMBYX24DUC75NQKQUF,A73BE9CE-3D96-4F3F-BE53-9B59DE93B9C3,2023-09-28_13h45.57.383,WP_VExplicitOC_HL,2022.2.5,MacIntel,60.0024001,NA,NA,NA,NA,NA,NA,NA,NA,NA,NA,NA,NA,NA,NA,NA,NA,NA,NA,NA,NA,NA,NA,NA,NA,NA,NA,NA,NA,NA,NA,NA,NA,NA,NA,NA,NA,NA,NA,NA,NA,NA,NA,NA,NA,NA,NA,NA,NA,NA,NA,NA,NA,NA,NA,NA,NA,NA,NA,NA
SUPAMT79674,3OE22WJIGONINMBYX24DUC75NQKQUF,A73BE9CE-3D96-4F3F-BE53-9B59DE93B9C3,2023-09-28_13h45.57.383,WP_VExplicitOC_HL,2022.2.5,MacIntel,60.0024001,NA,NA,NA,NA,NA,NA,NA,NA,NA,NA,NA,NA,NA,NA,NA,NA,NA,NA,NA,NA,NA,NA,NA,NA,NA,NA,NA,NA,NA,NA,NA,NA,NA,NA,NA,NA,NA,NA,NA,NA,NA,NA,NA,NA,NA,NA,NA,NA,NA,NA,NA,NA,NA,NA,NA,NA,NA,NA,NA
SUPAMT79674,3OE22WJIGONINMBYX24DUC75NQKQUF,A73BE9CE-3D96-4F3F-BE53-9B59DE93B9C3,2023-09-28_13h45.57.383,WP_VExplicitOC_HL,2022.2.5,MacIntel,60.0024001,5.281110491,4.4243,2.0126,NA,NA,NA,NA,NA,happy,"unhappy, happy","less happy, more happy",NA,NA,NA,NA,NA,NA,NA,NA,NA,NA,NA,NA,NA,NA,NA,NA,NA,NA,NA,NA,NA,NA,NA,NA,NA,NA,NA,NA,NA,NA,NA,NA,NA,NA,NA,NA,NA,NA,0,0,0,0,1,NA,NA,NA,NA,NA
SUPAMT79674,3OE22WJIGONINMBYX24DUC75NQKQUF,A73BE9CE-3D96-4F3F-BE53-9B59DE93B9C3,2023-09-28_13h45.57.383,WP_VExplicitOC_HL,2022.2.5,MacIntel,60.0024001,20.77511161,3.4936,2.0007,NA,NA,NA,NA,NA,frustrated,"frustrated, not frustrated","more frustrated, less frustrated",NA,NA,NA,NA,NA,NA,NA,NA,NA,NA,NA,NA,NA,NA,NA,NA,NA,NA,NA,NA,NA,NA,NA,NA,NA,NA,NA,NA,NA,NA,NA,NA,NA,NA,NA,NA,NA,NA,0,1,1,1,1,NA,NA,NA,NA,NA
SUPAMT79674,3OE22WJIGONINMBYX24DUC75NQKQUF,A73BE9CE-3D96-4F3F-BE53-9B59DE93B9C3,2023-09-28_13h45.57.383,WP_VExplicitOC_HL,2022.2.5,MacIntel,60.0024001,1.432221912,3.4768,2.0173,NA,NA,NA,NA,NA,bored,"bored, not bored","more bored, less bored",NA,NA,NA,NA,NA,NA,NA,NA,NA,NA,NA,NA,NA,NA,NA,NA,NA,NA,NA,NA,NA,NA,NA,NA,NA,NA,NA,NA,NA,NA,NA,NA,NA,NA,NA,NA,NA,NA,0,2,2,2,1,NA,NA,NA,NA,NA
SUPAMT79674,3OE22WJIGONINMBYX24DUC75NQKQUF,A73BE9CE-3D96-4F3F-BE53-9B59DE93B9C3,2023-09-28_13h45.57.383,WP_VExplicitOC_HL,2022.2.5,MacIntel,60.0024001,NA,NA,NA,NA,NA,NA,NA,NA,NA,NA,NA,NA,NA,NA,NA,NA,NA,NA,NA,NA,NA,NA,NA,NA,NA,NA,NA,NA,NA,NA,NA,NA,NA,NA,NA,NA,NA,NA,NA,NA,NA,NA,NA,NA,NA,NA,NA,NA,NA,NA,NA,NA,NA,NA,0,0,0,0,1
SUPAMT79674,3OE22WJIGONINMBYX24DUC75NQKQUF,A73BE9CE-3D96-4F3F-BE53-9B59DE93B9C3,2023-09-28_13h45.57.383,WP_VExplicitOC_HL,2022.2.5,MacIntel,60.0024001,16.83002,3.5405,2.0132,NA,NA,NA,NA,NA,frustrated,"frustrated, not frustrated","more frustrated, less frustrated",NA,NA,NA,NA,NA,NA,NA,NA,NA,NA,NA,NA,NA,NA,NA,NA,NA,NA,NA,NA,NA,NA,NA,NA,NA,NA,NA,NA,NA,NA,NA,NA,NA,NA,NA,NA,NA,NA,0,0,0,1,1,NA,NA,NA,NA,NA
SUPAMT79674,3OE22WJIGONINMBYX24DUC75NQKQUF,A73BE9CE-3D96-4F3F-BE53-9B59DE93B9C3,2023-09-28_13h45.57.383,WP_VExplicitOC_HL,2022.2.5,MacIntel,60.0024001,12.95969355,3.1929,2.0157,NA,NA,NA,NA,NA,happy,"unhappy, happy","less happy, more happy",NA,NA,NA,NA,NA,NA,NA,NA,NA,NA,NA,NA,NA,NA,NA,NA,NA,NA,NA,NA,NA,NA,NA,NA,NA,NA,NA,NA,NA,NA,NA,NA,NA,NA,NA,NA,NA,NA,0,1,1,0,1,NA,NA,NA,NA,NA
SUPAMT79674,3OE22WJIGONINMBYX24DUC75NQKQUF,A73BE9CE-3D96-4F3F-BE53-9B59DE93B9C3,2023-09-28_13h45.57.383,WP_VExplicitOC_HL,2022.2.5,MacIntel,60.0024001,3.221888951,2.742,2.0157,NA,NA,NA,NA,NA,bored,"bored, not bored","more bored, less bored",NA,NA,NA,NA,NA,NA,NA,NA,NA,NA,NA,NA,NA,NA,NA,NA,NA,NA,NA,NA,NA,NA,NA,NA,NA,NA,NA,NA,NA,NA,NA,NA,NA,NA,NA,NA,NA,NA,0,2,2,2,1,NA,NA,NA,NA,NA
SUPAMT79674,3OE22WJIGONINMBYX24DUC75NQKQUF,A73BE9CE-3D96-4F3F-BE53-9B59DE93B9C3,2023-09-28_13h45.57.383,WP_VExplicitOC_HL,2022.2.5,MacIntel,60.0024001,NA,NA,NA,NA,NA,NA,NA,NA,NA,NA,NA,NA,NA,NA,NA,NA,NA,NA,NA,NA,NA,NA,NA,NA,NA,NA,NA,NA,NA,NA,NA,NA,NA,NA,NA,NA,NA,NA,NA,NA,NA,NA,NA,NA,NA,NA,NA,NA,NA,NA,NA,NA,NA,NA,1,0,1,0,1
SUPAMT79674,3OE22WJIGONINMBYX24DUC75NQKQUF,A73BE9CE-3D96-4F3F-BE53-9B59DE93B9C3,2023-09-28_13h45.57.383,WP_VExplicitOC_HL,2022.2.5,MacIntel,60.0024001,19.67054967,4.4413,2.013,NA,NA,NA,NA,NA,frustrated,"frustrated, not frustrated","more frustrated, less frustrated",NA,NA,NA,NA,NA,NA,NA,NA,NA,NA,NA,NA,NA,NA,NA,NA,NA,NA,NA,NA,NA,NA,NA,NA,NA,NA,NA,NA,NA,NA,NA,NA,NA,NA,NA,NA,NA,NA,0,0,0,1,1,NA,NA,NA,NA,NA
SUPAMT79674,3OE22WJIGONINMBYX24DUC75NQKQUF,A73BE9CE-3D96-4F3F-BE53-9B59DE93B9C3,2023-09-28_13h45.57.383,WP_VExplicitOC_HL,2022.2.5,MacIntel,60.0024001,-20.34735398,2.9606,2.0003,NA,NA,NA,NA,NA,bored,"bored, not bored","more bored, less bored",NA,NA,NA,NA,NA,NA,NA,NA,NA,NA,NA,NA,NA,NA,NA,NA,NA,NA,NA,NA,NA,NA,NA,NA,NA,NA,NA,NA,NA,NA,NA,NA,NA,NA,NA,NA,NA,NA,0,1,1,2,1,NA,NA,NA,NA,NA
SUPAMT79674,3OE22WJIGONINMBYX24DUC75NQKQUF,A73BE9CE-3D96-4F3F-BE53-9B59DE93B9C3,2023-09-28_13h45.57.383,WP_VExplicitOC_HL,2022.2.5,MacIntel,60.0024001,-4.061128162,2.6927,2.0155,NA,NA,NA,NA,NA,happy,"unhappy, happy","less happy, more happy",NA,NA,NA,NA,NA,NA,NA,NA,NA,NA,NA,NA,NA,NA,NA,NA,NA,NA,NA,NA,NA,NA,NA,NA,NA,NA,NA,NA,NA,NA,NA,NA,NA,NA,NA,NA,NA,NA,0,2,2,0,1,NA,NA,NA,NA,NA
SUPAMT79674,3OE22WJIGONINMBYX24DUC75NQKQUF,A73BE9CE-3D96-4F3F-BE53-9B59DE93B9C3,2023-09-28_13h45.57.383,WP_VExplicitOC_HL,2022.2.5,MacIntel,60.0024001,NA,NA,NA,NA,NA,NA,NA,NA,NA,NA,NA,NA,NA,NA,NA,NA,NA,NA,NA,NA,NA,NA,NA,NA,NA,NA,NA,NA,NA,NA,NA,NA,NA,NA,NA,NA,NA,NA,NA,NA,NA,NA,NA,NA,NA,NA,NA,NA,NA,NA,NA,NA,NA,NA,2,0,2,0,1
SUPAMT79674,3OE22WJIGONINMBYX24DUC75NQKQUF,A73BE9CE-3D96-4F3F-BE53-9B59DE93B9C3,2023-09-28_13h45.57.383,WP_VExplicitOC_HL,2022.2.5,MacIntel,60.0024001,18.93736049,3.9388,2.012,NA,NA,NA,NA,NA,frustrated,"frustrated, not frustrated","more frustrated, less frustrated",NA,NA,NA,NA,NA,NA,NA,NA,NA,NA,NA,NA,NA,NA,NA,NA,NA,NA,NA,NA,NA,NA,NA,NA,NA,NA,NA,NA,NA,NA,NA,NA,NA,NA,NA,NA,NA,NA,0,0,0,1,1,NA,NA,NA,NA,NA
SUPAMT79674,3OE22WJIGONINMBYX24DUC75NQKQUF,A73BE9CE-3D96-4F3F-BE53-9B59DE93B9C3,2023-09-28_13h45.57.383,WP_VExplicitOC_HL,2022.2.5,MacIntel,60.0024001,-18.4976981,2.8937,2.0158,NA,NA,NA,NA,NA,bored,"bored, not bored","more bored, less bored",NA,NA,NA,NA,NA,NA,NA,NA,NA,NA,NA,NA,NA,NA,NA,NA,NA,NA,NA,NA,NA,NA,NA,NA,NA,NA,NA,NA,NA,NA,NA,NA,NA,NA,NA,NA,NA,NA,0,1,1,2,1,NA,NA,NA,NA,NA
SUPAMT79674,3OE22WJIGONINMBYX24DUC75NQKQUF,A73BE9CE-3D96-4F3F-BE53-9B59DE93B9C3,2023-09-28_13h45.57.383,WP_VExplicitOC_HL,2022.2.5,MacIntel,60.0024001,-0.55179269,3.2432,2,NA,NA,NA,NA,NA,happy,"unhappy, happy","less happy, more happy",NA,NA,NA,NA,NA,NA,NA,NA,NA,NA,NA,NA,NA,NA,NA,NA,NA,NA,NA,NA,NA,NA,NA,NA,NA,NA,NA,NA,NA,NA,NA,NA,NA,NA,NA,NA,NA,NA,0,2,2,0,1,NA,NA,NA,NA,NA
SUPAMT79674,3OE22WJIGONINMBYX24DUC75NQKQUF,A73BE9CE-3D96-4F3F-BE53-9B59DE93B9C3,2023-09-28_13h45.57.383,WP_VExplicitOC_HL,2022.2.5,MacIntel,60.0024001,NA,NA,NA,NA,NA,NA,NA,NA,NA,NA,NA,NA,NA,NA,NA,NA,NA,NA,NA,NA,NA,NA,NA,NA,NA,NA,NA,NA,NA,NA,NA,NA,NA,NA,NA,NA,NA,NA,NA,NA,NA,NA,NA,NA,NA,NA,NA,NA,NA,NA,NA,NA,NA,NA,3,0,3,0,1
SUPAMT79674,3OE22WJIGONINMBYX24DUC75NQKQUF,A73BE9CE-3D96-4F3F-BE53-9B59DE93B9C3,2023-09-28_13h45.57.383,WP_VExplicitOC_HL,2022.2.5,MacIntel,60.0024001,23.45684524,3.7408,2.0135,NA,NA,NA,NA,NA,frustrated,"frustrated, not frustrated","more frustrated, less frustrated",NA,NA,NA,NA,NA,NA,NA,NA,NA,NA,NA,NA,NA,NA,NA,NA,NA,NA,NA,NA,NA,NA,NA,NA,NA,NA,NA,NA,NA,NA,NA,NA,NA,NA,NA,NA,NA,NA,0,0,0,1,1,NA,NA,NA,NA,NA
SUPAMT79674,3OE22WJIGONINMBYX24DUC75NQKQUF,A73BE9CE-3D96-4F3F-BE53-9B59DE93B9C3,2023-09-28_13h45.57.383,WP_VExplicitOC_HL,2022.2.5,MacIntel,60.0024001,-18.87140765,2.8257,2.016,NA,NA,NA,NA,NA,bored,"bored, not bored","more bored, less bored",NA,NA,NA,NA,NA,NA,NA,NA,NA,NA,NA,NA,NA,NA,NA,NA,NA,NA,NA,NA,NA,NA,NA,NA,NA,NA,NA,NA,NA,NA,NA,NA,NA,NA,NA,NA,NA,NA,0,1,1,2,1,NA,NA,NA,NA,NA
SUPAMT79674,3OE22WJIGONINMBYX24DUC75NQKQUF,A73BE9CE-3D96-4F3F-BE53-9B59DE93B9C3,2023-09-28_13h45.57.383,WP_VExplicitOC_HL,2022.2.5,MacIntel,60.0024001,-1.196649461,3.3932,2.0009,NA,NA,NA,NA,NA,happy,"unhappy, happy","less happy, more happy",NA,NA,NA,NA,NA,NA,NA,NA,NA,NA,NA,NA,NA,NA,NA,NA,NA,NA,NA,NA,NA,NA,NA,NA,NA,NA,NA,NA,NA,NA,NA,NA,NA,NA,NA,NA,NA,NA,0,2,2,0,1,NA,NA,NA,NA,NA
SUPAMT79674,3OE22WJIGONINMBYX24DUC75NQKQUF,A73BE9CE-3D96-4F3F-BE53-9B59DE93B9C3,2023-09-28_13h45.57.383,WP_VExplicitOC_HL,2022.2.5,MacIntel,60.0024001,NA,NA,NA,NA,NA,NA,NA,NA,NA,NA,NA,NA,NA,NA,NA,NA,NA,NA,NA,NA,NA,NA,NA,NA,NA,NA,NA,NA,NA,NA,NA,NA,NA,NA,NA,NA,NA,NA,NA,NA,NA,NA,NA,NA,NA,NA,NA,NA,NA,NA,NA,NA,NA,NA,4,0,4,0,1
SUPAMT79674,3OE22WJIGONINMBYX24DUC75NQKQUF,A73BE9CE-3D96-4F3F-BE53-9B59DE93B9C3,2023-09-28_13h45.57.383,WP_VExplicitOC_HL,2022.2.5,MacIntel,60.0024001,-18.40833101,5.8388,2.0125,NA,NA,NA,NA,NA,bored,"bored, not bored","more bored, less bored",NA,NA,NA,NA,NA,NA,NA,NA,NA,NA,NA,NA,NA,NA,NA,NA,NA,NA,NA,NA,NA,NA,NA,NA,NA,NA,NA,NA,NA,NA,NA,NA,NA,NA,NA,NA,NA,NA,0,0,0,2,1,NA,NA,NA,NA,NA
SUPAMT79674,3OE22WJIGONINMBYX24DUC75NQKQUF,A73BE9CE-3D96-4F3F-BE53-9B59DE93B9C3,2023-09-28_13h45.57.383,WP_VExplicitOC_HL,2022.2.5,MacIntel,60.0024001,16.79087612,3.3922,2.0156,NA,NA,NA,NA,NA,frustrated,"frustrated, not frustrated","more frustrated, less frustrated",NA,NA,NA,NA,NA,NA,NA,NA,NA,NA,NA,NA,NA,NA,NA,NA,NA,NA,NA,NA,NA,NA,NA,NA,NA,NA,NA,NA,NA,NA,NA,NA,NA,NA,NA,NA,NA,NA,0,1,1,1,1,NA,NA,NA,NA,NA
SUPAMT79674,3OE22WJIGONINMBYX24DUC75NQKQUF,A73BE9CE-3D96-4F3F-BE53-9B59DE93B9C3,2023-09-28_13h45.57.383,WP_VExplicitOC_HL,2022.2.5,MacIntel,60.0024001,1.840808687,3.2926,2.0163,NA,NA,NA,NA,NA,happy,"unhappy, happy","less happy, more happy",NA,NA,NA,NA,NA,NA,NA,NA,NA,NA,NA,NA,NA,NA,NA,NA,NA,NA,NA,NA,NA,NA,NA,NA,NA,NA,NA,NA,NA,NA,NA,NA,NA,NA,NA,NA,NA,NA,0,2,2,0,1,NA,NA,NA,NA,NA
SUPAMT79674,3OE22WJIGONINMBYX24DUC75NQKQUF,A73BE9CE-3D96-4F3F-BE53-9B59DE93B9C3,2023-09-28_13h45.57.383,WP_VExplicitOC_HL,2022.2.5,MacIntel,60.0024001,NA,NA,NA,NA,NA,NA,NA,NA,NA,NA,NA,NA,NA,NA,NA,NA,NA,NA,NA,NA,NA,NA,NA,NA,NA,NA,NA,NA,NA,NA,NA,NA,NA,NA,NA,NA,NA,NA,NA,NA,NA,NA,NA,NA,NA,NA,NA,NA,NA,NA,NA,NA,NA,NA,5,0,5,0,1
SUPAMT79674,3OE22WJIGONINMBYX24DUC75NQKQUF,A73BE9CE-3D96-4F3F-BE53-9B59DE93B9C3,2023-09-28_13h45.57.383,WP_VExplicitOC_HL,2022.2.5,MacIntel,60.0024001,-16.45950753,4.2897,2.011,NA,NA,NA,NA,NA,happy,"unhappy, happy","less happy, more happy",NA,NA,NA,NA,NA,NA,NA,NA,NA,NA,NA,NA,NA,NA,NA,NA,NA,NA,NA,NA,NA,NA,NA,NA,NA,NA,NA,NA,NA,NA,NA,NA,NA,NA,NA,NA,NA,NA,0,0,0,0,1,NA,NA,NA,NA,NA
SUPAMT79674,3OE22WJIGONINMBYX24DUC75NQKQUF,A73BE9CE-3D96-4F3F-BE53-9B59DE93B9C3,2023-09-28_13h45.57.383,WP_VExplicitOC_HL,2022.2.5,MacIntel,60.0024001,16.31816174,2.9589,2.0016,NA,NA,NA,NA,NA,frustrated,"frustrated, not frustrated","more frustrated, less frustrated",NA,NA,NA,NA,NA,NA,NA,NA,NA,NA,NA,NA,NA,NA,NA,NA,NA,NA,NA,NA,NA,NA,NA,NA,NA,NA,NA,NA,NA,NA,NA,NA,NA,NA,NA,NA,NA,NA,0,1,1,1,1,NA,NA,NA,NA,NA
SUPAMT79674,3OE22WJIGONINMBYX24DUC75NQKQUF,A73BE9CE-3D96-4F3F-BE53-9B59DE93B9C3,2023-09-28_13h45.57.383,WP_VExplicitOC_HL,2022.2.5,MacIntel,60.0024001,-33.71237909,3.0759,2.0015,NA,NA,NA,NA,NA,bored,"bored, not bored","more bored, less bored",NA,NA,NA,NA,NA,NA,NA,NA,NA,NA,NA,NA,NA,NA,NA,NA,NA,NA,NA,NA,NA,NA,NA,NA,NA,NA,NA,NA,NA,NA,NA,NA,NA,NA,NA,NA,NA,NA,0,2,2,2,1,NA,NA,NA,NA,NA
SUPAMT79674,3OE22WJIGONINMBYX24DUC75NQKQUF,A73BE9CE-3D96-4F3F-BE53-9B59DE93B9C3,2023-09-28_13h45.57.383,WP_VExplicitOC_HL,2022.2.5,MacIntel,60.0024001,NA,NA,NA,NA,NA,NA,NA,NA,NA,NA,NA,NA,NA,NA,NA,NA,NA,NA,NA,NA,NA,NA,NA,NA,NA,NA,NA,NA,NA,NA,NA,NA,NA,NA,NA,NA,NA,NA,NA,NA,NA,NA,NA,NA,NA,NA,NA,NA,NA,NA,NA,NA,NA,NA,6,0,6,0,1
SUPAMT79674,3OE22WJIGONINMBYX24DUC75NQKQUF,A73BE9CE-3D96-4F3F-BE53-9B59DE93B9C3,2023-09-28_13h45.57.383,WP_VExplicitOC_HL,2022.2.5,MacIntel,60.0024001,-19.09247117,4.2875,2.0125,NA,NA,NA,NA,NA,bored,"bored, not bored","more bored, less bored",NA,NA,NA,NA,NA,NA,NA,NA,NA,NA,NA,NA,NA,NA,NA,NA,NA,NA,NA,NA,NA,NA,NA,NA,NA,NA,NA,NA,NA,NA,NA,NA,NA,NA,NA,NA,NA,NA,0,0,0,2,1,NA,NA,NA,NA,NA
SUPAMT79674,3OE22WJIGONINMBYX24DUC75NQKQUF,A73BE9CE-3D96-4F3F-BE53-9B59DE93B9C3,2023-09-28_13h45.57.383,WP_VExplicitOC_HL,2022.2.5,MacIntel,60.0024001,1.139102028,2.676,2.0186,NA,NA,NA,NA,NA,happy,"unhappy, happy","less happy, more happy",NA,NA,NA,NA,NA,NA,NA,NA,NA,NA,NA,NA,NA,NA,NA,NA,NA,NA,NA,NA,NA,NA,NA,NA,NA,NA,NA,NA,NA,NA,NA,NA,NA,NA,NA,NA,NA,NA,0,1,1,0,1,NA,NA,NA,NA,NA
SUPAMT79674,3OE22WJIGONINMBYX24DUC75NQKQUF,A73BE9CE-3D96-4F3F-BE53-9B59DE93B9C3,2023-09-28_13h45.57.383,WP_VExplicitOC_HL,2022.2.5,MacIntel,60.0024001,-11.74346633,5.7423,2.017,NA,NA,NA,NA,NA,frustrated,"frustrated, not frustrated","more frustrated, less frustrated",NA,NA,NA,NA,NA,NA,NA,NA,NA,NA,NA,NA,NA,NA,NA,NA,NA,NA,NA,NA,NA,NA,NA,NA,NA,NA,NA,NA,NA,NA,NA,NA,NA,NA,NA,NA,NA,NA,0,2,2,1,1,NA,NA,NA,NA,NA
SUPAMT79674,3OE22WJIGONINMBYX24DUC75NQKQUF,A73BE9CE-3D96-4F3F-BE53-9B59DE93B9C3,2023-09-28_13h45.57.383,WP_VExplicitOC_HL,2022.2.5,MacIntel,60.0024001,NA,NA,NA,NA,NA,NA,NA,NA,NA,NA,NA,NA,NA,NA,NA,NA,NA,NA,NA,NA,NA,NA,NA,NA,NA,NA,NA,NA,NA,NA,NA,NA,NA,NA,NA,NA,NA,NA,NA,NA,NA,NA,NA,NA,NA,NA,NA,NA,NA,NA,NA,NA,NA,NA,7,0,7,0,1
SUPAMT79674,3OE22WJIGONINMBYX24DUC75NQKQUF,A73BE9CE-3D96-4F3F-BE53-9B59DE93B9C3,2023-09-28_13h45.57.383,WP_VExplicitOC_HL,2022.2.5,MacIntel,60.0024001,-11.74346633,6.1073,2.0129,NA,NA,NA,NA,NA,frustrated,"frustrated, not frustrated","more frustrated, less frustrated",NA,NA,NA,NA,NA,NA,NA,NA,NA,NA,NA,NA,NA,NA,NA,NA,NA,NA,NA,NA,NA,NA,NA,NA,NA,NA,NA,NA,NA,NA,NA,NA,NA,NA,NA,NA,NA,NA,0,0,0,1,1,NA,NA,NA,NA,NA
SUPAMT79674,3OE22WJIGONINMBYX24DUC75NQKQUF,A73BE9CE-3D96-4F3F-BE53-9B59DE93B9C3,2023-09-28_13h45.57.383,WP_VExplicitOC_HL,2022.2.5,MacIntel,60.0024001,-0.43711635,5.9778,2.0154,NA,NA,NA,NA,NA,happy,"unhappy, happy","less happy, more happy",NA,NA,NA,NA,NA,NA,NA,NA,NA,NA,NA,NA,NA,NA,NA,NA,NA,NA,NA,NA,NA,NA,NA,NA,NA,NA,NA,NA,NA,NA,NA,NA,NA,NA,NA,NA,NA,NA,0,1,1,0,1,NA,NA,NA,NA,NA
SUPAMT79674,3OE22WJIGONINMBYX24DUC75NQKQUF,A73BE9CE-3D96-4F3F-BE53-9B59DE93B9C3,2023-09-28_13h45.57.383,WP_VExplicitOC_HL,2022.2.5,MacIntel,60.0024001,-23.43890672,3.2272,2.0001,NA,NA,NA,NA,NA,bored,"bored, not bored","more bored, less bored",NA,NA,NA,NA,NA,NA,NA,NA,NA,NA,NA,NA,NA,NA,NA,NA,NA,NA,NA,NA,NA,NA,NA,NA,NA,NA,NA,NA,NA,NA,NA,NA,NA,NA,NA,NA,NA,NA,0,2,2,2,1,NA,NA,NA,NA,NA
SUPAMT79674,3OE22WJIGONINMBYX24DUC75NQKQUF,A73BE9CE-3D96-4F3F-BE53-9B59DE93B9C3,2023-09-28_13h45.57.383,WP_VExplicitOC_HL,2022.2.5,MacIntel,60.0024001,NA,NA,NA,NA,NA,NA,NA,NA,NA,NA,NA,NA,NA,NA,NA,NA,NA,NA,NA,NA,NA,NA,NA,NA,NA,NA,NA,NA,NA,NA,NA,NA,NA,NA,NA,NA,NA,NA,NA,NA,NA,NA,NA,NA,NA,NA,NA,NA,NA,NA,NA,NA,NA,NA,8,0,8,0,1
SUPAMT79674,3OE22WJIGONINMBYX24DUC75NQKQUF,A73BE9CE-3D96-4F3F-BE53-9B59DE93B9C3,2023-09-28_13h45.57.383,WP_VExplicitOC_HL,2022.2.5,MacIntel,60.0024001,0.631510417,4.1382,2.0116,NA,NA,NA,NA,NA,happy,"unhappy, happy","less happy, more happy",NA,NA,NA,NA,NA,NA,NA,NA,NA,NA,NA,NA,NA,NA,NA,NA,NA,NA,NA,NA,NA,NA,NA,NA,NA,NA,NA,NA,NA,NA,NA,NA,NA,NA,NA,NA,NA,NA,0,0,0,0,1,NA,NA,NA,NA,NA
SUPAMT79674,3OE22WJIGONINMBYX24DUC75NQKQUF,A73BE9CE-3D96-4F3F-BE53-9B59DE93B9C3,2023-09-28_13h45.57.383,WP_VExplicitOC_HL,2022.2.5,MacIntel,60.0024001,-1.543491908,5.8602,2.0156,NA,NA,NA,NA,NA,frustrated,"frustrated, not frustrated","more frustrated, less frustrated",NA,NA,NA,NA,NA,NA,NA,NA,NA,NA,NA,NA,NA,NA,NA,NA,NA,NA,NA,NA,NA,NA,NA,NA,NA,NA,NA,NA,NA,NA,NA,NA,NA,NA,NA,NA,NA,NA,0,1,1,1,1,NA,NA,NA,NA,NA
SUPAMT79674,3OE22WJIGONINMBYX24DUC75NQKQUF,A73BE9CE-3D96-4F3F-BE53-9B59DE93B9C3,2023-09-28_13h45.57.383,WP_VExplicitOC_HL,2022.2.5,MacIntel,60.0024001,-28.53923689,2.9608,2.0018,NA,NA,NA,NA,NA,bored,"bored, not bored","more bored, less bored",NA,NA,NA,NA,NA,NA,NA,NA,NA,NA,NA,NA,NA,NA,NA,NA,NA,NA,NA,NA,NA,NA,NA,NA,NA,NA,NA,NA,NA,NA,NA,NA,NA,NA,NA,NA,NA,NA,0,2,2,2,1,NA,NA,NA,NA,NA
SUPAMT79674,3OE22WJIGONINMBYX24DUC75NQKQUF,A73BE9CE-3D96-4F3F-BE53-9B59DE93B9C3,2023-09-28_13h45.57.383,WP_VExplicitOC_HL,2022.2.5,MacIntel,60.0024001,NA,NA,NA,NA,NA,NA,NA,NA,NA,NA,NA,NA,NA,NA,NA,NA,NA,NA,NA,NA,NA,NA,NA,NA,NA,NA,NA,NA,NA,NA,NA,NA,NA,NA,NA,NA,NA,NA,NA,NA,NA,NA,NA,NA,NA,NA,NA,NA,NA,NA,NA,NA,NA,NA,9,0,9,0,1
SUPAMT79674,3OE22WJIGONINMBYX24DUC75NQKQUF,A73BE9CE-3D96-4F3F-BE53-9B59DE93B9C3,2023-09-28_13h45.57.383,WP_VExplicitOC_HL,2022.2.5,MacIntel,60.0024001,1.917852493,4.2068,2.0129,NA,NA,NA,NA,NA,frustrated,"frustrated, not frustrated","more frustrated, less frustrated",NA,NA,NA,NA,NA,NA,NA,NA,NA,NA,NA,NA,NA,NA,NA,NA,NA,NA,NA,NA,NA,NA,NA,NA,NA,NA,NA,NA,NA,NA,NA,NA,NA,NA,NA,NA,NA,NA,0,0,0,1,1,NA,NA,NA,NA,NA
SUPAMT79674,3OE22WJIGONINMBYX24DUC75NQKQUF,A73BE9CE-3D96-4F3F-BE53-9B59DE93B9C3,2023-09-28_13h45.57.383,WP_VExplicitOC_HL,2022.2.5,MacIntel,60.0024001,-7.555129278,3.3598,2.0151,NA,NA,NA,NA,NA,happy,"unhappy, happy","less happy, more happy",NA,NA,NA,NA,NA,NA,NA,NA,NA,NA,NA,NA,NA,NA,NA,NA,NA,NA,NA,NA,NA,NA,NA,NA,NA,NA,NA,NA,NA,NA,NA,NA,NA,NA,NA,NA,NA,NA,0,1,1,0,1,NA,NA,NA,NA,NA
SUPAMT79674,3OE22WJIGONINMBYX24DUC75NQKQUF,A73BE9CE-3D96-4F3F-BE53-9B59DE93B9C3,2023-09-28_13h45.57.383,WP_VExplicitOC_HL,2022.2.5,MacIntel,60.0024001,-27.0596982,3.4099,2.0152,NA,NA,NA,NA,NA,bored,"bored, not bored","more bored, less bored",NA,NA,NA,NA,NA,NA,NA,NA,NA,NA,NA,NA,NA,NA,NA,NA,NA,NA,NA,NA,NA,NA,NA,NA,NA,NA,NA,NA,NA,NA,NA,NA,NA,NA,NA,NA,NA,NA,0,2,2,2,1,NA,NA,NA,NA,NA
SUPAMT79674,3OE22WJIGONINMBYX24DUC75NQKQUF,A73BE9CE-3D96-4F3F-BE53-9B59DE93B9C3,2023-09-28_13h45.57.383,WP_VExplicitOC_HL,2022.2.5,MacIntel,60.0024001,NA,NA,NA,NA,NA,NA,NA,NA,NA,NA,NA,NA,NA,NA,NA,NA,NA,NA,NA,NA,NA,NA,NA,NA,NA,NA,NA,NA,NA,NA,NA,NA,NA,NA,NA,NA,NA,NA,NA,NA,NA,NA,NA,NA,NA,NA,NA,NA,NA,NA,NA,NA,NA,NA,10,0,10,0,1
SUPAMT79674,3OE22WJIGONINMBYX24DUC75NQKQUF,A73BE9CE-3D96-4F3F-BE53-9B59DE93B9C3,2023-09-28_13h45.57.383,WP_VExplicitOC_HL,2022.2.5,MacIntel,60.0024001,-27.0596982,3.7385,2.0112,NA,NA,NA,NA,NA,happy,"unhappy, happy","less happy, more happy",NA,NA,NA,NA,NA,NA,NA,NA,NA,NA,NA,NA,NA,NA,NA,NA,NA,NA,NA,NA,NA,NA,NA,NA,NA,NA,NA,NA,NA,NA,NA,NA,NA,NA,NA,NA,NA,NA,0,0,0,0,1,NA,NA,NA,NA,NA
SUPAMT79674,3OE22WJIGONINMBYX24DUC75NQKQUF,A73BE9CE-3D96-4F3F-BE53-9B59DE93B9C3,2023-09-28_13h45.57.383,WP_VExplicitOC_HL,2022.2.5,MacIntel,60.0024001,-29.42252604,3.2436,2.0005,NA,NA,NA,NA,NA,frustrated,"frustrated, not frustrated","more frustrated, less frustrated",NA,NA,NA,NA,NA,NA,NA,NA,NA,NA,NA,NA,NA,NA,NA,NA,NA,NA,NA,NA,NA,NA,NA,NA,NA,NA,NA,NA,NA,NA,NA,NA,NA,NA,NA,NA,NA,NA,0,1,1,1,1,NA,NA,NA,NA,NA
SUPAMT79674,3OE22WJIGONINMBYX24DUC75NQKQUF,A73BE9CE-3D96-4F3F-BE53-9B59DE93B9C3,2023-09-28_13h45.57.383,WP_VExplicitOC_HL,2022.2.5,MacIntel,60.0024001,-36.09673782,2.6928,2.0012,NA,NA,NA,NA,NA,bored,"bored, not bored","more bored, less bored",NA,NA,NA,NA,NA,NA,NA,NA,NA,NA,NA,NA,NA,NA,NA,NA,NA,NA,NA,NA,NA,NA,NA,NA,NA,NA,NA,NA,NA,NA,NA,NA,NA,NA,NA,NA,NA,NA,0,2,2,2,1,NA,NA,NA,NA,NA
SUPAMT79674,3OE22WJIGONINMBYX24DUC75NQKQUF,A73BE9CE-3D96-4F3F-BE53-9B59DE93B9C3,2023-09-28_13h45.57.383,WP_VExplicitOC_HL,2022.2.5,MacIntel,60.0024001,NA,NA,NA,NA,NA,NA,NA,NA,NA,NA,NA,NA,NA,NA,NA,NA,NA,NA,NA,NA,NA,NA,NA,NA,NA,NA,NA,NA,NA,NA,NA,NA,NA,NA,NA,NA,NA,NA,NA,NA,NA,NA,NA,NA,NA,NA,NA,NA,NA,NA,NA,NA,NA,NA,11,0,11,0,1
SUPAMT79674,3OE22WJIGONINMBYX24DUC75NQKQUF,A73BE9CE-3D96-4F3F-BE53-9B59DE93B9C3,2023-09-28_13h45.57.383,WP_VExplicitOC_HL,2022.2.5,MacIntel,60.0024001,-20.98501442,3.6885,2.0116,NA,NA,NA,NA,NA,frustrated,"frustrated, not frustrated","more frustrated, less frustrated",NA,NA,NA,NA,NA,NA,NA,NA,NA,NA,NA,NA,NA,NA,NA,NA,NA,NA,NA,NA,NA,NA,NA,NA,NA,NA,NA,NA,NA,NA,NA,NA,NA,NA,NA,NA,NA,NA,0,0,0,1,1,NA,NA,NA,NA,NA
SUPAMT79674,3OE22WJIGONINMBYX24DUC75NQKQUF,A73BE9CE-3D96-4F3F-BE53-9B59DE93B9C3,2023-09-28_13h45.57.383,WP_VExplicitOC_HL,2022.2.5,MacIntel,60.0024001,-48.11611793,2.6437,2.0001,NA,NA,NA,NA,NA,bored,"bored, not bored","more bored, less bored",NA,NA,NA,NA,NA,NA,NA,NA,NA,NA,NA,NA,NA,NA,NA,NA,NA,NA,NA,NA,NA,NA,NA,NA,NA,NA,NA,NA,NA,NA,NA,NA,NA,NA,NA,NA,NA,NA,0,1,1,2,1,NA,NA,NA,NA,NA
SUPAMT79674,3OE22WJIGONINMBYX24DUC75NQKQUF,A73BE9CE-3D96-4F3F-BE53-9B59DE93B9C3,2023-09-28_13h45.57.383,WP_VExplicitOC_HL,2022.2.5,MacIntel,60.0024001,-22.60139974,3.6602,2.0165,NA,NA,NA,NA,NA,happy,"unhappy, happy","less happy, more happy",NA,NA,NA,NA,NA,NA,NA,NA,NA,NA,NA,NA,NA,NA,NA,NA,NA,NA,NA,NA,NA,NA,NA,NA,NA,NA,NA,NA,NA,NA,NA,NA,NA,NA,NA,NA,NA,NA,0,2,2,0,1,NA,NA,NA,NA,NA
SUPAMT79674,3OE22WJIGONINMBYX24DUC75NQKQUF,A73BE9CE-3D96-4F3F-BE53-9B59DE93B9C3,2023-09-28_13h45.57.383,WP_VExplicitOC_HL,2022.2.5,MacIntel,60.0024001,NA,NA,NA,NA,NA,NA,NA,NA,NA,NA,NA,NA,NA,NA,NA,NA,NA,NA,NA,NA,NA,NA,NA,NA,NA,NA,NA,NA,NA,NA,NA,NA,NA,NA,NA,NA,NA,NA,NA,NA,NA,NA,NA,NA,NA,NA,NA,NA,NA,NA,NA,NA,NA,NA,12,0,12,0,1
SUPAMT79674,3OE22WJIGONINMBYX24DUC75NQKQUF,A73BE9CE-3D96-4F3F-BE53-9B59DE93B9C3,2023-09-28_13h45.57.383,WP_VExplicitOC_HL,2022.2.5,MacIntel,60.0024001,-24.18626767,3.11,2.0122,NA,NA,NA,NA,NA,happy,"unhappy, happy","less happy, more happy",NA,NA,NA,NA,NA,NA,NA,NA,NA,NA,NA,NA,NA,NA,NA,NA,NA,NA,NA,NA,NA,NA,NA,NA,NA,NA,NA,NA,NA,NA,NA,NA,NA,NA,NA,NA,NA,NA,0,0,0,0,1,NA,NA,NA,NA,NA
SUPAMT79674,3OE22WJIGONINMBYX24DUC75NQKQUF,A73BE9CE-3D96-4F3F-BE53-9B59DE93B9C3,2023-09-28_13h45.57.383,WP_VExplicitOC_HL,2022.2.5,MacIntel,60.0024001,-35.82924107,2.8587,2.0014,NA,NA,NA,NA,NA,frustrated,"frustrated, not frustrated","more frustrated, less frustrated",NA,NA,NA,NA,NA,NA,NA,NA,NA,NA,NA,NA,NA,NA,NA,NA,NA,NA,NA,NA,NA,NA,NA,NA,NA,NA,NA,NA,NA,NA,NA,NA,NA,NA,NA,NA,NA,NA,0,1,1,1,1,NA,NA,NA,NA,NA
SUPAMT79674,3OE22WJIGONINMBYX24DUC75NQKQUF,A73BE9CE-3D96-4F3F-BE53-9B59DE93B9C3,2023-09-28_13h45.57.383,WP_VExplicitOC_HL,2022.2.5,MacIntel,60.0024001,-50.695359,6.0762,2.0168,NA,NA,NA,NA,NA,bored,"bored, not bored","more bored, less bored",NA,NA,NA,NA,NA,NA,NA,NA,NA,NA,NA,NA,NA,NA,NA,NA,NA,NA,NA,NA,NA,NA,NA,NA,NA,NA,NA,NA,NA,NA,NA,NA,NA,NA,NA,NA,NA,NA,0,2,2,2,1,NA,NA,NA,NA,NA
SUPAMT79674,3OE22WJIGONINMBYX24DUC75NQKQUF,A73BE9CE-3D96-4F3F-BE53-9B59DE93B9C3,2023-09-28_13h45.57.383,WP_VExplicitOC_HL,2022.2.5,MacIntel,60.0024001,NA,NA,NA,NA,NA,NA,NA,NA,NA,NA,NA,NA,NA,NA,NA,NA,NA,NA,NA,NA,NA,NA,NA,NA,NA,NA,NA,NA,NA,NA,NA,NA,NA,NA,NA,NA,NA,NA,NA,NA,NA,NA,NA,NA,NA,NA,NA,NA,NA,NA,NA,NA,NA,NA,13,0,13,0,1
SUPAMT79674,3OE22WJIGONINMBYX24DUC75NQKQUF,A73BE9CE-3D96-4F3F-BE53-9B59DE93B9C3,2023-09-28_13h45.57.383,WP_VExplicitOC_HL,2022.2.5,MacIntel,60.0024001,-40.93405878,3.5735,2.0129,NA,NA,NA,NA,NA,happy,"unhappy, happy","less happy, more happy",NA,NA,NA,NA,NA,NA,NA,NA,NA,NA,NA,NA,NA,NA,NA,NA,NA,NA,NA,NA,NA,NA,NA,NA,NA,NA,NA,NA,NA,NA,NA,NA,NA,NA,NA,NA,NA,NA,0,0,0,0,1,NA,NA,NA,NA,NA
SUPAMT79674,3OE22WJIGONINMBYX24DUC75NQKQUF,A73BE9CE-3D96-4F3F-BE53-9B59DE93B9C3,2023-09-28_13h45.57.383,WP_VExplicitOC_HL,2022.2.5,MacIntel,60.0024001,-42.06904529,3.3607,2.0009,NA,NA,NA,NA,NA,frustrated,"frustrated, not frustrated","more frustrated, less frustrated",NA,NA,NA,NA,NA,NA,NA,NA,NA,NA,NA,NA,NA,NA,NA,NA,NA,NA,NA,NA,NA,NA,NA,NA,NA,NA,NA,NA,NA,NA,NA,NA,NA,NA,NA,NA,NA,NA,0,1,1,1,1,NA,NA,NA,NA,NA
SUPAMT79674,3OE22WJIGONINMBYX24DUC75NQKQUF,A73BE9CE-3D96-4F3F-BE53-9B59DE93B9C3,2023-09-28_13h45.57.383,WP_VExplicitOC_HL,2022.2.5,MacIntel,60.0024001,-47.93824405,3.8266,2.0001,NA,NA,NA,NA,NA,bored,"bored, not bored","more bored, less bored",NA,NA,NA,NA,NA,NA,NA,NA,NA,NA,NA,NA,NA,NA,NA,NA,NA,NA,NA,NA,NA,NA,NA,NA,NA,NA,NA,NA,NA,NA,NA,NA,NA,NA,NA,NA,NA,NA,0,2,2,2,1,NA,NA,NA,NA,NA
SUPAMT79674,3OE22WJIGONINMBYX24DUC75NQKQUF,A73BE9CE-3D96-4F3F-BE53-9B59DE93B9C3,2023-09-28_13h45.57.383,WP_VExplicitOC_HL,2022.2.5,MacIntel,60.0024001,NA,NA,NA,NA,NA,NA,NA,NA,NA,NA,NA,NA,NA,NA,NA,NA,NA,NA,NA,NA,NA,NA,NA,NA,NA,NA,NA,NA,NA,NA,NA,NA,NA,NA,NA,NA,NA,NA,NA,NA,NA,NA,NA,NA,NA,NA,NA,NA,NA,NA,NA,NA,NA,NA,14,0,14,0,1
SUPAMT79674,3OE22WJIGONINMBYX24DUC75NQKQUF,A73BE9CE-3D96-4F3F-BE53-9B59DE93B9C3,2023-09-28_13h45.57.383,WP_VExplicitOC_HL,2022.2.5,MacIntel,60.0024001,NA,NA,NA,NA,NA,NA,NA,NA,NA,NA,NA,NA,NA,NA,NA,NA,NA,NA,NA,NA,NA,NA,NA,NA,NA,NA,NA,NA,NA,NA,NA,NA,NA,NA,NA,NA,NA,NA,NA,NA,NA,NA,NA,NA,NA,NA,NA,NA,NA,NA,NA,NA,NA,NA,NA,NA,NA,NA,NA
