participant,session,completion,date,expName,psychopyVersion,OS,frameRate,rating_all.response,rating_all.rt,rating_all.tStart,rndRat1.thisRepN,rndRat1.thisTrialN,rndRat1.thisN,rndRat1.thisIndex,rndRat1.ran,Emo,Labs,Labs2,rating_alt.response,rating_alt.rt,AltC.thisRepN,AltC.thisTrialN,AltC.thisN,AltC.thisIndex,AltC.ran,alt_choices,pic_choices,BottomAlt_Choice,rndRat2.thisRepN,rndRat2.thisTrialN,rndRat2.thisN,rndRat2.thisIndex,rndRat2.ran,rndRat3.thisRepN,rndRat3.thisTrialN,rndRat3.thisN,rndRat3.thisIndex,rndRat3.ran,trials_FC_L.thisRepN,trials_FC_L.thisTrialN,trials_FC_L.thisN,trials_FC_L.thisIndex,trials_FC_L.ran,rating_alt_2.response,rating_alt_2.rt,AltC2.thisRepN,AltC2.thisTrialN,AltC2.thisN,AltC2.thisIndex,AltC2.ran,TopAlt_Choice,rndRat4.thisRepN,rndRat4.thisTrialN,rndRat4.thisN,rndRat4.thisIndex,rndRat4.ran,rndRat5.thisRepN,rndRat5.thisTrialN,rndRat5.thisN,rndRat5.thisIndex,rndRat5.ran,trials_FC_H.thisRepN,trials_FC_H.thisTrialN,trials_FC_H.thisN,trials_FC_H.thisIndex,trials_FC_H.ran
SUPAMT79593,3LEIZ60CDPYTHMOMMNSZP9WVES69ZF,727F1450-B39B-4818-8A59-C7E5B77A378F,2023-09-26_06h40.37.967,WP_VExplicitOC_LH,2022.2.5,Win32,12.71536652,NA,NA,NA,NA,NA,NA,NA,NA,NA,NA,NA,NA,NA,NA,NA,NA,NA,NA,NA,NA,NA,NA,NA,NA,NA,NA,NA,NA,NA,NA,NA,NA,NA,NA,NA,NA,NA,NA,NA,NA,NA,NA,NA,NA,NA,NA,NA,NA,NA,NA,NA,NA,NA,NA,NA,NA,NA,NA,NA
SUPAMT79593,3LEIZ60CDPYTHMOMMNSZP9WVES69ZF,727F1450-B39B-4818-8A59-C7E5B77A378F,2023-09-26_06h40.37.967,WP_VExplicitOC_LH,2022.2.5,Win32,12.71536652,NA,NA,NA,NA,NA,NA,NA,NA,NA,NA,NA,NA,NA,NA,NA,NA,NA,NA,NA,NA,NA,NA,NA,NA,NA,NA,NA,NA,NA,NA,NA,NA,NA,NA,NA,NA,NA,NA,NA,NA,NA,NA,NA,NA,NA,NA,NA,NA,NA,NA,NA,NA,NA,NA,NA,NA,NA,NA,NA
SUPAMT79593,3LEIZ60CDPYTHMOMMNSZP9WVES69ZF,727F1450-B39B-4818-8A59-C7E5B77A378F,2023-09-26_06h40.37.967,WP_VExplicitOC_LH,2022.2.5,Win32,12.71536652,NA,NA,NA,NA,NA,NA,NA,NA,NA,NA,NA,NA,NA,NA,NA,NA,NA,NA,NA,NA,NA,NA,NA,NA,NA,NA,NA,NA,NA,NA,NA,NA,NA,NA,NA,NA,NA,NA,NA,NA,NA,NA,NA,NA,NA,NA,NA,NA,NA,NA,NA,NA,NA,NA,NA,NA,NA,NA,NA
SUPAMT79593,3LEIZ60CDPYTHMOMMNSZP9WVES69ZF,727F1450-B39B-4818-8A59-C7E5B77A378F,2023-09-26_06h40.37.967,WP_VExplicitOC_LH,2022.2.5,Win32,12.71536652,53.64583333,4.5267,2.0114,0,0,0,1,1,frustrated,"frustrated, not frustrated","more frustrated, less frustrated",NA,NA,NA,NA,NA,NA,NA,NA,NA,NA,NA,NA,NA,NA,NA,NA,NA,NA,NA,NA,NA,NA,NA,NA,NA,NA,NA,NA,NA,NA,NA,NA,NA,NA,NA,NA,NA,NA,NA,NA,NA,NA,NA,NA,NA,NA,NA,NA
SUPAMT79593,3LEIZ60CDPYTHMOMMNSZP9WVES69ZF,727F1450-B39B-4818-8A59-C7E5B77A378F,2023-09-26_06h40.37.967,WP_VExplicitOC_LH,2022.2.5,Win32,12.71536652,54.16666667,5.9138,2,0,1,1,2,1,bored,"bored, not bored","more bored, less bored",NA,NA,NA,NA,NA,NA,NA,NA,NA,NA,NA,NA,NA,NA,NA,NA,NA,NA,NA,NA,NA,NA,NA,NA,NA,NA,NA,NA,NA,NA,NA,NA,NA,NA,NA,NA,NA,NA,NA,NA,NA,NA,NA,NA,NA,NA,NA,NA
SUPAMT79593,3LEIZ60CDPYTHMOMMNSZP9WVES69ZF,727F1450-B39B-4818-8A59-C7E5B77A378F,2023-09-26_06h40.37.967,WP_VExplicitOC_LH,2022.2.5,Win32,12.71536652,54.16666667,3.909,2.0844,0,2,2,0,1,happy,"unhappy, happy","less happy, more happy",NA,NA,NA,NA,NA,NA,NA,NA,NA,NA,NA,NA,NA,NA,NA,NA,NA,NA,NA,NA,NA,NA,NA,NA,NA,NA,NA,NA,NA,NA,NA,NA,NA,NA,NA,NA,NA,NA,NA,NA,NA,NA,NA,NA,NA,NA,NA,NA
SUPAMT79593,3LEIZ60CDPYTHMOMMNSZP9WVES69ZF,727F1450-B39B-4818-8A59-C7E5B77A378F,2023-09-26_06h40.37.967,WP_VExplicitOC_LH,2022.2.5,Win32,12.71536652,NA,NA,NA,NA,NA,NA,NA,NA,NA,NA,NA,NA,NA,NA,NA,NA,NA,NA,NA,NA,NA,NA,NA,NA,NA,NA,NA,NA,NA,NA,NA,NA,NA,NA,NA,NA,NA,NA,NA,NA,NA,NA,NA,NA,NA,NA,NA,NA,NA,NA,NA,NA,NA,NA,NA,NA,NA,NA,NA
SUPAMT79593,3LEIZ60CDPYTHMOMMNSZP9WVES69ZF,727F1450-B39B-4818-8A59-C7E5B77A378F,2023-09-26_06h40.37.967,WP_VExplicitOC_LH,2022.2.5,Win32,12.71536652,NA,NA,NA,NA,NA,NA,NA,NA,NA,NA,NA,NA,NA,NA,NA,NA,NA,NA,NA,NA,NA,NA,NA,NA,NA,NA,NA,NA,NA,NA,NA,NA,NA,NA,NA,NA,NA,NA,NA,NA,NA,NA,NA,NA,NA,NA,NA,NA,NA,NA,NA,NA,NA,NA,NA,NA,NA,NA,NA
SUPAMT79593,3LEIZ60CDPYTHMOMMNSZP9WVES69ZF,727F1450-B39B-4818-8A59-C7E5B77A378F,2023-09-26_06h40.37.967,WP_VExplicitOC_LH,2022.2.5,Win32,12.71536652,NA,NA,NA,NA,NA,NA,NA,NA,NA,NA,NA,NA,NA,NA,NA,NA,NA,NA,NA,NA,NA,NA,NA,NA,NA,NA,NA,NA,NA,NA,NA,NA,NA,NA,NA,NA,NA,NA,NA,NA,NA,NA,NA,NA,NA,NA,NA,NA,NA,NA,NA,NA,NA,NA,NA,NA,NA,NA,NA
SUPAMT79593,3LEIZ60CDPYTHMOMMNSZP9WVES69ZF,727F1450-B39B-4818-8A59-C7E5B77A378F,2023-09-26_06h40.37.967,WP_VExplicitOC_LH,2022.2.5,Win32,12.71536652,NA,NA,NA,NA,NA,NA,NA,NA,NA,NA,NA,NA,NA,NA,NA,NA,NA,NA,NA,NA,NA,NA,NA,NA,NA,NA,NA,NA,NA,NA,NA,NA,NA,NA,NA,NA,NA,NA,NA,NA,NA,NA,NA,NA,NA,NA,NA,NA,NA,NA,NA,NA,NA,NA,NA,NA,NA,NA,NA
SUPAMT79593,3LEIZ60CDPYTHMOMMNSZP9WVES69ZF,727F1450-B39B-4818-8A59-C7E5B77A378F,2023-09-26_06h40.37.967,WP_VExplicitOC_LH,2022.2.5,Win32,12.71536652,NA,NA,NA,NA,NA,NA,NA,NA,NA,NA,NA,54.16666667,1.8386,0,0,0,0,1,rest (looking at a fixed cross),001.png,NA,NA,NA,NA,NA,NA,NA,NA,NA,NA,NA,NA,NA,NA,NA,NA,NA,NA,NA,NA,NA,NA,NA,NA,NA,NA,NA,NA,NA,NA,NA,NA,NA,NA,NA,NA,NA,NA,NA
SUPAMT79593,3LEIZ60CDPYTHMOMMNSZP9WVES69ZF,727F1450-B39B-4818-8A59-C7E5B77A378F,2023-09-26_06h40.37.967,WP_VExplicitOC_LH,2022.2.5,Win32,12.71536652,NA,NA,NA,NA,NA,NA,NA,NA,NA,NA,NA,54.16666667,1.1389,0,1,1,1,1,stand up,002.png,NA,NA,NA,NA,NA,NA,NA,NA,NA,NA,NA,NA,NA,NA,NA,NA,NA,NA,NA,NA,NA,NA,NA,NA,NA,NA,NA,NA,NA,NA,NA,NA,NA,NA,NA,NA,NA,NA,NA
SUPAMT79593,3LEIZ60CDPYTHMOMMNSZP9WVES69ZF,727F1450-B39B-4818-8A59-C7E5B77A378F,2023-09-26_06h40.37.967,WP_VExplicitOC_LH,2022.2.5,Win32,12.71536652,NA,NA,NA,NA,NA,NA,NA,NA,NA,NA,NA,54.16666667,0.835,0,2,2,2,1,stretch,003.png,NA,NA,NA,NA,NA,NA,NA,NA,NA,NA,NA,NA,NA,NA,NA,NA,NA,NA,NA,NA,NA,NA,NA,NA,NA,NA,NA,NA,NA,NA,NA,NA,NA,NA,NA,NA,NA,NA,NA
SUPAMT79593,3LEIZ60CDPYTHMOMMNSZP9WVES69ZF,727F1450-B39B-4818-8A59-C7E5B77A378F,2023-09-26_06h40.37.967,WP_VExplicitOC_LH,2022.2.5,Win32,12.71536652,NA,NA,NA,NA,NA,NA,NA,NA,NA,NA,NA,54.16666667,0.1732,0,3,3,3,1,make a drink,004.png,NA,NA,NA,NA,NA,NA,NA,NA,NA,NA,NA,NA,NA,NA,NA,NA,NA,NA,NA,NA,NA,NA,NA,NA,NA,NA,NA,NA,NA,NA,NA,NA,NA,NA,NA,NA,NA,NA,NA
SUPAMT79593,3LEIZ60CDPYTHMOMMNSZP9WVES69ZF,727F1450-B39B-4818-8A59-C7E5B77A378F,2023-09-26_06h40.37.967,WP_VExplicitOC_LH,2022.2.5,Win32,12.71536652,NA,NA,NA,NA,NA,NA,NA,NA,NA,NA,NA,54.16666667,0.282,0,4,4,4,1,scroll social media,005.png,NA,NA,NA,NA,NA,NA,NA,NA,NA,NA,NA,NA,NA,NA,NA,NA,NA,NA,NA,NA,NA,NA,NA,NA,NA,NA,NA,NA,NA,NA,NA,NA,NA,NA,NA,NA,NA,NA,NA
SUPAMT79593,3LEIZ60CDPYTHMOMMNSZP9WVES69ZF,727F1450-B39B-4818-8A59-C7E5B77A378F,2023-09-26_06h40.37.967,WP_VExplicitOC_LH,2022.2.5,Win32,12.71536652,NA,NA,NA,NA,NA,NA,NA,NA,NA,NA,NA,54.16666667,0.2583,0,5,5,5,1,listen to music,006.png,NA,NA,NA,NA,NA,NA,NA,NA,NA,NA,NA,NA,NA,NA,NA,NA,NA,NA,NA,NA,NA,NA,NA,NA,NA,NA,NA,NA,NA,NA,NA,NA,NA,NA,NA,NA,NA,NA,NA
SUPAMT79593,3LEIZ60CDPYTHMOMMNSZP9WVES69ZF,727F1450-B39B-4818-8A59-C7E5B77A378F,2023-09-26_06h40.37.967,WP_VExplicitOC_LH,2022.2.5,Win32,12.71536652,NA,NA,NA,NA,NA,NA,NA,NA,NA,NA,NA,54.16666667,0.2511,0,6,6,6,1,daydream,007.png,NA,NA,NA,NA,NA,NA,NA,NA,NA,NA,NA,NA,NA,NA,NA,NA,NA,NA,NA,NA,NA,NA,NA,NA,NA,NA,NA,NA,NA,NA,NA,NA,NA,NA,NA,NA,NA,NA,NA
SUPAMT79593,3LEIZ60CDPYTHMOMMNSZP9WVES69ZF,727F1450-B39B-4818-8A59-C7E5B77A378F,2023-09-26_06h40.37.967,WP_VExplicitOC_LH,2022.2.5,Win32,12.71536652,NA,NA,NA,NA,NA,NA,NA,NA,NA,NA,NA,54.16666667,0.544,0,7,7,7,1,watch a short animation,008.png,NA,NA,NA,NA,NA,NA,NA,NA,NA,NA,NA,NA,NA,NA,NA,NA,NA,NA,NA,NA,NA,NA,NA,NA,NA,NA,NA,NA,NA,NA,NA,NA,NA,NA,NA,NA,NA,NA,NA
SUPAMT79593,3LEIZ60CDPYTHMOMMNSZP9WVES69ZF,727F1450-B39B-4818-8A59-C7E5B77A378F,2023-09-26_06h40.37.967,WP_VExplicitOC_LH,2022.2.5,Win32,12.71536652,NA,NA,NA,NA,NA,NA,NA,NA,NA,NA,NA,54.16666667,0.1979,0,8,8,8,1,read a novel,009.png,NA,NA,NA,NA,NA,NA,NA,NA,NA,NA,NA,NA,NA,NA,NA,NA,NA,NA,NA,NA,NA,NA,NA,NA,NA,NA,NA,NA,NA,NA,NA,NA,NA,NA,NA,NA,NA,NA,NA
SUPAMT79593,3LEIZ60CDPYTHMOMMNSZP9WVES69ZF,727F1450-B39B-4818-8A59-C7E5B77A378F,2023-09-26_06h40.37.967,WP_VExplicitOC_LH,2022.2.5,Win32,12.71536652,NA,NA,NA,NA,NA,NA,NA,NA,NA,NA,NA,54.16666667,0.4278,0,9,9,9,1,read the news,010.png,NA,NA,NA,NA,NA,NA,NA,NA,NA,NA,NA,NA,NA,NA,NA,NA,NA,NA,NA,NA,NA,NA,NA,NA,NA,NA,NA,NA,NA,NA,NA,NA,NA,NA,NA,NA,NA,NA,NA
SUPAMT79593,3LEIZ60CDPYTHMOMMNSZP9WVES69ZF,727F1450-B39B-4818-8A59-C7E5B77A378F,2023-09-26_06h40.37.967,WP_VExplicitOC_LH,2022.2.5,Win32,12.71536652,NA,NA,NA,NA,NA,NA,NA,NA,NA,NA,NA,NA,NA,NA,NA,NA,NA,NA,NA,NA,NA,NA,NA,NA,NA,NA,NA,NA,NA,NA,NA,NA,NA,NA,NA,NA,NA,NA,NA,NA,NA,NA,NA,NA,NA,NA,NA,NA,NA,NA,NA,NA,NA,NA,NA,NA,NA,NA,NA
SUPAMT79593,3LEIZ60CDPYTHMOMMNSZP9WVES69ZF,727F1450-B39B-4818-8A59-C7E5B77A378F,2023-09-26_06h40.37.967,WP_VExplicitOC_LH,2022.2.5,Win32,12.71536652,NA,NA,NA,NA,NA,NA,NA,NA,NA,NA,NA,NA,NA,NA,NA,NA,NA,NA,NA,NA,stand up,NA,NA,NA,NA,NA,NA,NA,NA,NA,NA,NA,NA,NA,NA,NA,NA,NA,NA,NA,NA,NA,NA,NA,NA,NA,NA,NA,NA,NA,NA,NA,NA,NA,NA,NA,NA,NA,NA
SUPAMT79593,3LEIZ60CDPYTHMOMMNSZP9WVES69ZF,727F1450-B39B-4818-8A59-C7E5B77A378F,2023-09-26_06h40.37.967,WP_VExplicitOC_LH,2022.2.5,Win32,12.71536652,NA,NA,2.0238,NA,NA,NA,NA,NA,frustrated,"frustrated, not frustrated","more frustrated, less frustrated",NA,NA,NA,NA,NA,NA,NA,NA,NA,NA,0,0,0,1,1,NA,NA,NA,NA,NA,NA,NA,NA,NA,NA,NA,NA,NA,NA,NA,NA,NA,NA,NA,NA,NA,NA,NA,NA,NA,NA,NA,NA,NA,NA,NA,NA,NA
SUPAMT79593,3LEIZ60CDPYTHMOMMNSZP9WVES69ZF,727F1450-B39B-4818-8A59-C7E5B77A378F,2023-09-26_06h40.37.967,WP_VExplicitOC_LH,2022.2.5,Win32,12.71536652,NA,NA,2.0717,NA,NA,NA,NA,NA,bored,"bored, not bored","more bored, less bored",NA,NA,NA,NA,NA,NA,NA,NA,NA,NA,0,1,1,2,1,NA,NA,NA,NA,NA,NA,NA,NA,NA,NA,NA,NA,NA,NA,NA,NA,NA,NA,NA,NA,NA,NA,NA,NA,NA,NA,NA,NA,NA,NA,NA,NA,NA
SUPAMT79593,3LEIZ60CDPYTHMOMMNSZP9WVES69ZF,727F1450-B39B-4818-8A59-C7E5B77A378F,2023-09-26_06h40.37.967,WP_VExplicitOC_LH,2022.2.5,Win32,12.71536652,NA,NA,2.0574,NA,NA,NA,NA,NA,happy,"unhappy, happy","less happy, more happy",NA,NA,NA,NA,NA,NA,NA,NA,NA,NA,0,2,2,0,1,NA,NA,NA,NA,NA,NA,NA,NA,NA,NA,NA,NA,NA,NA,NA,NA,NA,NA,NA,NA,NA,NA,NA,NA,NA,NA,NA,NA,NA,NA,NA,NA,NA
SUPAMT79593,3LEIZ60CDPYTHMOMMNSZP9WVES69ZF,727F1450-B39B-4818-8A59-C7E5B77A378F,2023-09-26_06h40.37.967,WP_VExplicitOC_LH,2022.2.5,Win32,12.71536652,NA,NA,NA,NA,NA,NA,NA,NA,NA,NA,NA,NA,NA,NA,NA,NA,NA,NA,NA,NA,NA,NA,NA,NA,NA,NA,NA,NA,NA,NA,NA,NA,NA,NA,NA,NA,NA,NA,NA,NA,NA,NA,NA,NA,NA,NA,NA,NA,NA,NA,NA,NA,NA,NA,NA,NA,NA,NA,NA
SUPAMT79593,3LEIZ60CDPYTHMOMMNSZP9WVES69ZF,727F1450-B39B-4818-8A59-C7E5B77A378F,2023-09-26_06h40.37.967,WP_VExplicitOC_LH,2022.2.5,Win32,12.71536652,NA,NA,NA,NA,NA,NA,NA,NA,NA,NA,NA,NA,NA,NA,NA,NA,NA,NA,NA,NA,NA,NA,NA,NA,NA,NA,NA,NA,NA,NA,NA,NA,NA,NA,NA,NA,NA,NA,NA,NA,NA,NA,NA,NA,NA,NA,NA,NA,NA,NA,NA,NA,NA,NA,NA,NA,NA,NA,NA
SUPAMT79593,3LEIZ60CDPYTHMOMMNSZP9WVES69ZF,727F1450-B39B-4818-8A59-C7E5B77A378F,2023-09-26_06h40.37.967,WP_VExplicitOC_LH,2022.2.5,Win32,12.71536652,60.41666667,4.6384,2.0008,NA,NA,NA,NA,NA,frustrated,"frustrated, not frustrated","more frustrated, less frustrated",NA,NA,NA,NA,NA,NA,NA,NA,NA,NA,NA,NA,NA,NA,NA,0,0,0,1,1,NA,NA,NA,NA,NA,NA,NA,NA,NA,NA,NA,NA,NA,NA,NA,NA,NA,NA,NA,NA,NA,NA,NA,NA,NA,NA,NA,NA
SUPAMT79593,3LEIZ60CDPYTHMOMMNSZP9WVES69ZF,727F1450-B39B-4818-8A59-C7E5B77A378F,2023-09-26_06h40.37.967,WP_VExplicitOC_LH,2022.2.5,Win32,12.71536652,57.8125,3.2154,2.0633,NA,NA,NA,NA,NA,happy,"unhappy, happy","less happy, more happy",NA,NA,NA,NA,NA,NA,NA,NA,NA,NA,NA,NA,NA,NA,NA,0,1,1,0,1,NA,NA,NA,NA,NA,NA,NA,NA,NA,NA,NA,NA,NA,NA,NA,NA,NA,NA,NA,NA,NA,NA,NA,NA,NA,NA,NA,NA
SUPAMT79593,3LEIZ60CDPYTHMOMMNSZP9WVES69ZF,727F1450-B39B-4818-8A59-C7E5B77A378F,2023-09-26_06h40.37.967,WP_VExplicitOC_LH,2022.2.5,Win32,12.71536652,57.8125,4.5894,2.0193,NA,NA,NA,NA,NA,bored,"bored, not bored","more bored, less bored",NA,NA,NA,NA,NA,NA,NA,NA,NA,NA,NA,NA,NA,NA,NA,0,2,2,2,1,NA,NA,NA,NA,NA,NA,NA,NA,NA,NA,NA,NA,NA,NA,NA,NA,NA,NA,NA,NA,NA,NA,NA,NA,NA,NA,NA,NA
SUPAMT79593,3LEIZ60CDPYTHMOMMNSZP9WVES69ZF,727F1450-B39B-4818-8A59-C7E5B77A378F,2023-09-26_06h40.37.967,WP_VExplicitOC_LH,2022.2.5,Win32,12.71536652,NA,NA,NA,NA,NA,NA,NA,NA,NA,NA,NA,NA,NA,NA,NA,NA,NA,NA,NA,NA,NA,NA,NA,NA,NA,NA,NA,NA,NA,NA,NA,0,0,0,0,1,NA,NA,NA,NA,NA,NA,NA,NA,NA,NA,NA,NA,NA,NA,NA,NA,NA,NA,NA,NA,NA,NA,NA
SUPAMT79593,3LEIZ60CDPYTHMOMMNSZP9WVES69ZF,727F1450-B39B-4818-8A59-C7E5B77A378F,2023-09-26_06h40.37.967,WP_VExplicitOC_LH,2022.2.5,Win32,12.71536652,2.083333333,2.4323,2.0791,NA,NA,NA,NA,NA,frustrated,"frustrated, not frustrated","more frustrated, less frustrated",NA,NA,NA,NA,NA,NA,NA,NA,NA,NA,NA,NA,NA,NA,NA,0,0,0,1,1,NA,NA,NA,NA,NA,NA,NA,NA,NA,NA,NA,NA,NA,NA,NA,NA,NA,NA,NA,NA,NA,NA,NA,NA,NA,NA,NA,NA
SUPAMT79593,3LEIZ60CDPYTHMOMMNSZP9WVES69ZF,727F1450-B39B-4818-8A59-C7E5B77A378F,2023-09-26_06h40.37.967,WP_VExplicitOC_LH,2022.2.5,Win32,12.71536652,44.27083333,5.2637,2.0734,NA,NA,NA,NA,NA,happy,"unhappy, happy","less happy, more happy",NA,NA,NA,NA,NA,NA,NA,NA,NA,NA,NA,NA,NA,NA,NA,0,1,1,0,1,NA,NA,NA,NA,NA,NA,NA,NA,NA,NA,NA,NA,NA,NA,NA,NA,NA,NA,NA,NA,NA,NA,NA,NA,NA,NA,NA,NA
SUPAMT79593,3LEIZ60CDPYTHMOMMNSZP9WVES69ZF,727F1450-B39B-4818-8A59-C7E5B77A378F,2023-09-26_06h40.37.967,WP_VExplicitOC_LH,2022.2.5,Win32,12.71536652,52.08333333,3.3656,2.0143,NA,NA,NA,NA,NA,bored,"bored, not bored","more bored, less bored",NA,NA,NA,NA,NA,NA,NA,NA,NA,NA,NA,NA,NA,NA,NA,0,2,2,2,1,NA,NA,NA,NA,NA,NA,NA,NA,NA,NA,NA,NA,NA,NA,NA,NA,NA,NA,NA,NA,NA,NA,NA,NA,NA,NA,NA,NA
SUPAMT79593,3LEIZ60CDPYTHMOMMNSZP9WVES69ZF,727F1450-B39B-4818-8A59-C7E5B77A378F,2023-09-26_06h40.37.967,WP_VExplicitOC_LH,2022.2.5,Win32,12.71536652,NA,NA,NA,NA,NA,NA,NA,NA,NA,NA,NA,NA,NA,NA,NA,NA,NA,NA,NA,NA,NA,NA,NA,NA,NA,NA,NA,NA,NA,NA,NA,1,0,1,0,1,NA,NA,NA,NA,NA,NA,NA,NA,NA,NA,NA,NA,NA,NA,NA,NA,NA,NA,NA,NA,NA,NA,NA
SUPAMT79593,3LEIZ60CDPYTHMOMMNSZP9WVES69ZF,727F1450-B39B-4818-8A59-C7E5B77A378F,2023-09-26_06h40.37.967,WP_VExplicitOC_LH,2022.2.5,Win32,12.71536652,56.51041667,6.4772,2.0448,NA,NA,NA,NA,NA,happy,"unhappy, happy","less happy, more happy",NA,NA,NA,NA,NA,NA,NA,NA,NA,NA,NA,NA,NA,NA,NA,0,0,0,0,1,NA,NA,NA,NA,NA,NA,NA,NA,NA,NA,NA,NA,NA,NA,NA,NA,NA,NA,NA,NA,NA,NA,NA,NA,NA,NA,NA,NA
SUPAMT79593,3LEIZ60CDPYTHMOMMNSZP9WVES69ZF,727F1450-B39B-4818-8A59-C7E5B77A378F,2023-09-26_06h40.37.967,WP_VExplicitOC_LH,2022.2.5,Win32,12.71536652,56.51041667,3.2194,2.1003,NA,NA,NA,NA,NA,frustrated,"frustrated, not frustrated","more frustrated, less frustrated",NA,NA,NA,NA,NA,NA,NA,NA,NA,NA,NA,NA,NA,NA,NA,0,1,1,1,1,NA,NA,NA,NA,NA,NA,NA,NA,NA,NA,NA,NA,NA,NA,NA,NA,NA,NA,NA,NA,NA,NA,NA,NA,NA,NA,NA,NA
SUPAMT79593,3LEIZ60CDPYTHMOMMNSZP9WVES69ZF,727F1450-B39B-4818-8A59-C7E5B77A378F,2023-09-26_06h40.37.967,WP_VExplicitOC_LH,2022.2.5,Win32,12.71536652,56.51041667,3.0445,2.0886,NA,NA,NA,NA,NA,bored,"bored, not bored","more bored, less bored",NA,NA,NA,NA,NA,NA,NA,NA,NA,NA,NA,NA,NA,NA,NA,0,2,2,2,1,NA,NA,NA,NA,NA,NA,NA,NA,NA,NA,NA,NA,NA,NA,NA,NA,NA,NA,NA,NA,NA,NA,NA,NA,NA,NA,NA,NA
SUPAMT79593,3LEIZ60CDPYTHMOMMNSZP9WVES69ZF,727F1450-B39B-4818-8A59-C7E5B77A378F,2023-09-26_06h40.37.967,WP_VExplicitOC_LH,2022.2.5,Win32,12.71536652,NA,NA,NA,NA,NA,NA,NA,NA,NA,NA,NA,NA,NA,NA,NA,NA,NA,NA,NA,NA,NA,NA,NA,NA,NA,NA,NA,NA,NA,NA,NA,2,0,2,0,1,NA,NA,NA,NA,NA,NA,NA,NA,NA,NA,NA,NA,NA,NA,NA,NA,NA,NA,NA,NA,NA,NA,NA
SUPAMT79593,3LEIZ60CDPYTHMOMMNSZP9WVES69ZF,727F1450-B39B-4818-8A59-C7E5B77A378F,2023-09-26_06h40.37.967,WP_VExplicitOC_LH,2022.2.5,Win32,12.71536652,41.14583333,3.5948,2.1022,NA,NA,NA,NA,NA,frustrated,"frustrated, not frustrated","more frustrated, less frustrated",NA,NA,NA,NA,NA,NA,NA,NA,NA,NA,NA,NA,NA,NA,NA,0,0,0,1,1,NA,NA,NA,NA,NA,NA,NA,NA,NA,NA,NA,NA,NA,NA,NA,NA,NA,NA,NA,NA,NA,NA,NA,NA,NA,NA,NA,NA
SUPAMT79593,3LEIZ60CDPYTHMOMMNSZP9WVES69ZF,727F1450-B39B-4818-8A59-C7E5B77A378F,2023-09-26_06h40.37.967,WP_VExplicitOC_LH,2022.2.5,Win32,12.71536652,59.375,3.4373,2.0682,NA,NA,NA,NA,NA,bored,"bored, not bored","more bored, less bored",NA,NA,NA,NA,NA,NA,NA,NA,NA,NA,NA,NA,NA,NA,NA,0,1,1,2,1,NA,NA,NA,NA,NA,NA,NA,NA,NA,NA,NA,NA,NA,NA,NA,NA,NA,NA,NA,NA,NA,NA,NA,NA,NA,NA,NA,NA
SUPAMT79593,3LEIZ60CDPYTHMOMMNSZP9WVES69ZF,727F1450-B39B-4818-8A59-C7E5B77A378F,2023-09-26_06h40.37.967,WP_VExplicitOC_LH,2022.2.5,Win32,12.71536652,59.375,2.9598,2.0117,NA,NA,NA,NA,NA,happy,"unhappy, happy","less happy, more happy",NA,NA,NA,NA,NA,NA,NA,NA,NA,NA,NA,NA,NA,NA,NA,0,2,2,0,1,NA,NA,NA,NA,NA,NA,NA,NA,NA,NA,NA,NA,NA,NA,NA,NA,NA,NA,NA,NA,NA,NA,NA,NA,NA,NA,NA,NA
SUPAMT79593,3LEIZ60CDPYTHMOMMNSZP9WVES69ZF,727F1450-B39B-4818-8A59-C7E5B77A378F,2023-09-26_06h40.37.967,WP_VExplicitOC_LH,2022.2.5,Win32,12.71536652,NA,NA,NA,NA,NA,NA,NA,NA,NA,NA,NA,NA,NA,NA,NA,NA,NA,NA,NA,NA,NA,NA,NA,NA,NA,NA,NA,NA,NA,NA,NA,3,0,3,0,1,NA,NA,NA,NA,NA,NA,NA,NA,NA,NA,NA,NA,NA,NA,NA,NA,NA,NA,NA,NA,NA,NA,NA
SUPAMT79593,3LEIZ60CDPYTHMOMMNSZP9WVES69ZF,727F1450-B39B-4818-8A59-C7E5B77A378F,2023-09-26_06h40.37.967,WP_VExplicitOC_LH,2022.2.5,Win32,12.71536652,79.16666667,3.9258,2.0341,NA,NA,NA,NA,NA,happy,"unhappy, happy","less happy, more happy",NA,NA,NA,NA,NA,NA,NA,NA,NA,NA,NA,NA,NA,NA,NA,0,0,0,0,1,NA,NA,NA,NA,NA,NA,NA,NA,NA,NA,NA,NA,NA,NA,NA,NA,NA,NA,NA,NA,NA,NA,NA,NA,NA,NA,NA,NA
SUPAMT79593,3LEIZ60CDPYTHMOMMNSZP9WVES69ZF,727F1450-B39B-4818-8A59-C7E5B77A378F,2023-09-26_06h40.37.967,WP_VExplicitOC_LH,2022.2.5,Win32,12.71536652,78.38541667,3.5735,2.0357,NA,NA,NA,NA,NA,frustrated,"frustrated, not frustrated","more frustrated, less frustrated",NA,NA,NA,NA,NA,NA,NA,NA,NA,NA,NA,NA,NA,NA,NA,0,1,1,1,1,NA,NA,NA,NA,NA,NA,NA,NA,NA,NA,NA,NA,NA,NA,NA,NA,NA,NA,NA,NA,NA,NA,NA,NA,NA,NA,NA,NA
SUPAMT79593,3LEIZ60CDPYTHMOMMNSZP9WVES69ZF,727F1450-B39B-4818-8A59-C7E5B77A378F,2023-09-26_06h40.37.967,WP_VExplicitOC_LH,2022.2.5,Win32,12.71536652,73.69791667,3.8152,2.0232,NA,NA,NA,NA,NA,bored,"bored, not bored","more bored, less bored",NA,NA,NA,NA,NA,NA,NA,NA,NA,NA,NA,NA,NA,NA,NA,0,2,2,2,1,NA,NA,NA,NA,NA,NA,NA,NA,NA,NA,NA,NA,NA,NA,NA,NA,NA,NA,NA,NA,NA,NA,NA,NA,NA,NA,NA,NA
SUPAMT79593,3LEIZ60CDPYTHMOMMNSZP9WVES69ZF,727F1450-B39B-4818-8A59-C7E5B77A378F,2023-09-26_06h40.37.967,WP_VExplicitOC_LH,2022.2.5,Win32,12.71536652,NA,NA,NA,NA,NA,NA,NA,NA,NA,NA,NA,NA,NA,NA,NA,NA,NA,NA,NA,NA,NA,NA,NA,NA,NA,NA,NA,NA,NA,NA,NA,4,0,4,0,1,NA,NA,NA,NA,NA,NA,NA,NA,NA,NA,NA,NA,NA,NA,NA,NA,NA,NA,NA,NA,NA,NA,NA
SUPAMT79593,3LEIZ60CDPYTHMOMMNSZP9WVES69ZF,727F1450-B39B-4818-8A59-C7E5B77A378F,2023-09-26_06h40.37.967,WP_VExplicitOC_LH,2022.2.5,Win32,12.71536652,45.57291667,3.3123,2.0104,NA,NA,NA,NA,NA,happy,"unhappy, happy","less happy, more happy",NA,NA,NA,NA,NA,NA,NA,NA,NA,NA,NA,NA,NA,NA,NA,0,0,0,0,1,NA,NA,NA,NA,NA,NA,NA,NA,NA,NA,NA,NA,NA,NA,NA,NA,NA,NA,NA,NA,NA,NA,NA,NA,NA,NA,NA,NA
SUPAMT79593,3LEIZ60CDPYTHMOMMNSZP9WVES69ZF,727F1450-B39B-4818-8A59-C7E5B77A378F,2023-09-26_06h40.37.967,WP_VExplicitOC_LH,2022.2.5,Win32,12.71536652,50,3.0022,2.0809,NA,NA,NA,NA,NA,bored,"bored, not bored","more bored, less bored",NA,NA,NA,NA,NA,NA,NA,NA,NA,NA,NA,NA,NA,NA,NA,0,1,1,2,1,NA,NA,NA,NA,NA,NA,NA,NA,NA,NA,NA,NA,NA,NA,NA,NA,NA,NA,NA,NA,NA,NA,NA,NA,NA,NA,NA,NA
SUPAMT79593,3LEIZ60CDPYTHMOMMNSZP9WVES69ZF,727F1450-B39B-4818-8A59-C7E5B77A378F,2023-09-26_06h40.37.967,WP_VExplicitOC_LH,2022.2.5,Win32,12.71536652,50,3.1516,2.017,NA,NA,NA,NA,NA,frustrated,"frustrated, not frustrated","more frustrated, less frustrated",NA,NA,NA,NA,NA,NA,NA,NA,NA,NA,NA,NA,NA,NA,NA,0,2,2,1,1,NA,NA,NA,NA,NA,NA,NA,NA,NA,NA,NA,NA,NA,NA,NA,NA,NA,NA,NA,NA,NA,NA,NA,NA,NA,NA,NA,NA
SUPAMT79593,3LEIZ60CDPYTHMOMMNSZP9WVES69ZF,727F1450-B39B-4818-8A59-C7E5B77A378F,2023-09-26_06h40.37.967,WP_VExplicitOC_LH,2022.2.5,Win32,12.71536652,NA,NA,NA,NA,NA,NA,NA,NA,NA,NA,NA,NA,NA,NA,NA,NA,NA,NA,NA,NA,NA,NA,NA,NA,NA,NA,NA,NA,NA,NA,NA,5,0,5,0,1,NA,NA,NA,NA,NA,NA,NA,NA,NA,NA,NA,NA,NA,NA,NA,NA,NA,NA,NA,NA,NA,NA,NA
SUPAMT79593,3LEIZ60CDPYTHMOMMNSZP9WVES69ZF,727F1450-B39B-4818-8A59-C7E5B77A378F,2023-09-26_06h40.37.967,WP_VExplicitOC_LH,2022.2.5,Win32,12.71536652,4.166666667,2.3724,2.078,NA,NA,NA,NA,NA,bored,"bored, not bored","more bored, less bored",NA,NA,NA,NA,NA,NA,NA,NA,NA,NA,NA,NA,NA,NA,NA,0,0,0,2,1,NA,NA,NA,NA,NA,NA,NA,NA,NA,NA,NA,NA,NA,NA,NA,NA,NA,NA,NA,NA,NA,NA,NA,NA,NA,NA,NA,NA
SUPAMT79593,3LEIZ60CDPYTHMOMMNSZP9WVES69ZF,727F1450-B39B-4818-8A59-C7E5B77A378F,2023-09-26_06h40.37.967,WP_VExplicitOC_LH,2022.2.5,Win32,12.71536652,67.96875,3.4451,2.0775,NA,NA,NA,NA,NA,frustrated,"frustrated, not frustrated","more frustrated, less frustrated",NA,NA,NA,NA,NA,NA,NA,NA,NA,NA,NA,NA,NA,NA,NA,0,1,1,1,1,NA,NA,NA,NA,NA,NA,NA,NA,NA,NA,NA,NA,NA,NA,NA,NA,NA,NA,NA,NA,NA,NA,NA,NA,NA,NA,NA,NA
SUPAMT79593,3LEIZ60CDPYTHMOMMNSZP9WVES69ZF,727F1450-B39B-4818-8A59-C7E5B77A378F,2023-09-26_06h40.37.967,WP_VExplicitOC_LH,2022.2.5,Win32,12.71536652,77.08333333,2.9954,2.0309,NA,NA,NA,NA,NA,happy,"unhappy, happy","less happy, more happy",NA,NA,NA,NA,NA,NA,NA,NA,NA,NA,NA,NA,NA,NA,NA,0,2,2,0,1,NA,NA,NA,NA,NA,NA,NA,NA,NA,NA,NA,NA,NA,NA,NA,NA,NA,NA,NA,NA,NA,NA,NA,NA,NA,NA,NA,NA
SUPAMT79593,3LEIZ60CDPYTHMOMMNSZP9WVES69ZF,727F1450-B39B-4818-8A59-C7E5B77A378F,2023-09-26_06h40.37.967,WP_VExplicitOC_LH,2022.2.5,Win32,12.71536652,NA,NA,NA,NA,NA,NA,NA,NA,NA,NA,NA,NA,NA,NA,NA,NA,NA,NA,NA,NA,NA,NA,NA,NA,NA,NA,NA,NA,NA,NA,NA,6,0,6,0,1,NA,NA,NA,NA,NA,NA,NA,NA,NA,NA,NA,NA,NA,NA,NA,NA,NA,NA,NA,NA,NA,NA,NA
SUPAMT79593,3LEIZ60CDPYTHMOMMNSZP9WVES69ZF,727F1450-B39B-4818-8A59-C7E5B77A378F,2023-09-26_06h40.37.967,WP_VExplicitOC_LH,2022.2.5,Win32,12.71536652,48.4375,3.5848,2.0197,NA,NA,NA,NA,NA,happy,"unhappy, happy","less happy, more happy",NA,NA,NA,NA,NA,NA,NA,NA,NA,NA,NA,NA,NA,NA,NA,0,0,0,0,1,NA,NA,NA,NA,NA,NA,NA,NA,NA,NA,NA,NA,NA,NA,NA,NA,NA,NA,NA,NA,NA,NA,NA,NA,NA,NA,NA,NA
SUPAMT79593,3LEIZ60CDPYTHMOMMNSZP9WVES69ZF,727F1450-B39B-4818-8A59-C7E5B77A378F,2023-09-26_06h40.37.967,WP_VExplicitOC_LH,2022.2.5,Win32,12.71536652,71.35416667,3.1547,2.0268,NA,NA,NA,NA,NA,bored,"bored, not bored","more bored, less bored",NA,NA,NA,NA,NA,NA,NA,NA,NA,NA,NA,NA,NA,NA,NA,0,1,1,2,1,NA,NA,NA,NA,NA,NA,NA,NA,NA,NA,NA,NA,NA,NA,NA,NA,NA,NA,NA,NA,NA,NA,NA,NA,NA,NA,NA,NA
SUPAMT79593,3LEIZ60CDPYTHMOMMNSZP9WVES69ZF,727F1450-B39B-4818-8A59-C7E5B77A378F,2023-09-26_06h40.37.967,WP_VExplicitOC_LH,2022.2.5,Win32,12.71536652,71.35416667,3.1848,2.0202,NA,NA,NA,NA,NA,frustrated,"frustrated, not frustrated","more frustrated, less frustrated",NA,NA,NA,NA,NA,NA,NA,NA,NA,NA,NA,NA,NA,NA,NA,0,2,2,1,1,NA,NA,NA,NA,NA,NA,NA,NA,NA,NA,NA,NA,NA,NA,NA,NA,NA,NA,NA,NA,NA,NA,NA,NA,NA,NA,NA,NA
SUPAMT79593,3LEIZ60CDPYTHMOMMNSZP9WVES69ZF,727F1450-B39B-4818-8A59-C7E5B77A378F,2023-09-26_06h40.37.967,WP_VExplicitOC_LH,2022.2.5,Win32,12.71536652,NA,NA,NA,NA,NA,NA,NA,NA,NA,NA,NA,NA,NA,NA,NA,NA,NA,NA,NA,NA,NA,NA,NA,NA,NA,NA,NA,NA,NA,NA,NA,7,0,7,0,1,NA,NA,NA,NA,NA,NA,NA,NA,NA,NA,NA,NA,NA,NA,NA,NA,NA,NA,NA,NA,NA,NA,NA
SUPAMT79593,3LEIZ60CDPYTHMOMMNSZP9WVES69ZF,727F1450-B39B-4818-8A59-C7E5B77A378F,2023-09-26_06h40.37.967,WP_VExplicitOC_LH,2022.2.5,Win32,12.71536652,52.86458333,3.2994,2.0705,NA,NA,NA,NA,NA,happy,"unhappy, happy","less happy, more happy",NA,NA,NA,NA,NA,NA,NA,NA,NA,NA,NA,NA,NA,NA,NA,0,0,0,0,1,NA,NA,NA,NA,NA,NA,NA,NA,NA,NA,NA,NA,NA,NA,NA,NA,NA,NA,NA,NA,NA,NA,NA,NA,NA,NA,NA,NA
SUPAMT79593,3LEIZ60CDPYTHMOMMNSZP9WVES69ZF,727F1450-B39B-4818-8A59-C7E5B77A378F,2023-09-26_06h40.37.967,WP_VExplicitOC_LH,2022.2.5,Win32,12.71536652,52.86458333,3.09,2.0391,NA,NA,NA,NA,NA,bored,"bored, not bored","more bored, less bored",NA,NA,NA,NA,NA,NA,NA,NA,NA,NA,NA,NA,NA,NA,NA,0,1,1,2,1,NA,NA,NA,NA,NA,NA,NA,NA,NA,NA,NA,NA,NA,NA,NA,NA,NA,NA,NA,NA,NA,NA,NA,NA,NA,NA,NA,NA
SUPAMT79593,3LEIZ60CDPYTHMOMMNSZP9WVES69ZF,727F1450-B39B-4818-8A59-C7E5B77A378F,2023-09-26_06h40.37.967,WP_VExplicitOC_LH,2022.2.5,Win32,12.71536652,52.86458333,3.0455,2.063,NA,NA,NA,NA,NA,frustrated,"frustrated, not frustrated","more frustrated, less frustrated",NA,NA,NA,NA,NA,NA,NA,NA,NA,NA,NA,NA,NA,NA,NA,0,2,2,1,1,NA,NA,NA,NA,NA,NA,NA,NA,NA,NA,NA,NA,NA,NA,NA,NA,NA,NA,NA,NA,NA,NA,NA,NA,NA,NA,NA,NA
SUPAMT79593,3LEIZ60CDPYTHMOMMNSZP9WVES69ZF,727F1450-B39B-4818-8A59-C7E5B77A378F,2023-09-26_06h40.37.967,WP_VExplicitOC_LH,2022.2.5,Win32,12.71536652,NA,NA,NA,NA,NA,NA,NA,NA,NA,NA,NA,NA,NA,NA,NA,NA,NA,NA,NA,NA,NA,NA,NA,NA,NA,NA,NA,NA,NA,NA,NA,8,0,8,0,1,NA,NA,NA,NA,NA,NA,NA,NA,NA,NA,NA,NA,NA,NA,NA,NA,NA,NA,NA,NA,NA,NA,NA
SUPAMT79593,3LEIZ60CDPYTHMOMMNSZP9WVES69ZF,727F1450-B39B-4818-8A59-C7E5B77A378F,2023-09-26_06h40.37.967,WP_VExplicitOC_LH,2022.2.5,Win32,12.71536652,-9.375,2.2502,2.0107,NA,NA,NA,NA,NA,frustrated,"frustrated, not frustrated","more frustrated, less frustrated",NA,NA,NA,NA,NA,NA,NA,NA,NA,NA,NA,NA,NA,NA,NA,0,0,0,1,1,NA,NA,NA,NA,NA,NA,NA,NA,NA,NA,NA,NA,NA,NA,NA,NA,NA,NA,NA,NA,NA,NA,NA,NA,NA,NA,NA,NA
SUPAMT79593,3LEIZ60CDPYTHMOMMNSZP9WVES69ZF,727F1450-B39B-4818-8A59-C7E5B77A378F,2023-09-26_06h40.37.967,WP_VExplicitOC_LH,2022.2.5,Win32,12.71536652,56.25,4.4255,2.0815,NA,NA,NA,NA,NA,happy,"unhappy, happy","less happy, more happy",NA,NA,NA,NA,NA,NA,NA,NA,NA,NA,NA,NA,NA,NA,NA,0,1,1,0,1,NA,NA,NA,NA,NA,NA,NA,NA,NA,NA,NA,NA,NA,NA,NA,NA,NA,NA,NA,NA,NA,NA,NA,NA,NA,NA,NA,NA
SUPAMT79593,3LEIZ60CDPYTHMOMMNSZP9WVES69ZF,727F1450-B39B-4818-8A59-C7E5B77A378F,2023-09-26_06h40.37.967,WP_VExplicitOC_LH,2022.2.5,Win32,12.71536652,67.44791667,3.5563,2.0455,NA,NA,NA,NA,NA,bored,"bored, not bored","more bored, less bored",NA,NA,NA,NA,NA,NA,NA,NA,NA,NA,NA,NA,NA,NA,NA,0,2,2,2,1,NA,NA,NA,NA,NA,NA,NA,NA,NA,NA,NA,NA,NA,NA,NA,NA,NA,NA,NA,NA,NA,NA,NA,NA,NA,NA,NA,NA
SUPAMT79593,3LEIZ60CDPYTHMOMMNSZP9WVES69ZF,727F1450-B39B-4818-8A59-C7E5B77A378F,2023-09-26_06h40.37.967,WP_VExplicitOC_LH,2022.2.5,Win32,12.71536652,NA,NA,NA,NA,NA,NA,NA,NA,NA,NA,NA,NA,NA,NA,NA,NA,NA,NA,NA,NA,NA,NA,NA,NA,NA,NA,NA,NA,NA,NA,NA,9,0,9,0,1,NA,NA,NA,NA,NA,NA,NA,NA,NA,NA,NA,NA,NA,NA,NA,NA,NA,NA,NA,NA,NA,NA,NA
SUPAMT79593,3LEIZ60CDPYTHMOMMNSZP9WVES69ZF,727F1450-B39B-4818-8A59-C7E5B77A378F,2023-09-26_06h40.37.967,WP_VExplicitOC_LH,2022.2.5,Win32,12.71536652,50.52083333,3.4214,2.0805,NA,NA,NA,NA,NA,frustrated,"frustrated, not frustrated","more frustrated, less frustrated",NA,NA,NA,NA,NA,NA,NA,NA,NA,NA,NA,NA,NA,NA,NA,0,0,0,1,1,NA,NA,NA,NA,NA,NA,NA,NA,NA,NA,NA,NA,NA,NA,NA,NA,NA,NA,NA,NA,NA,NA,NA,NA,NA,NA,NA,NA
SUPAMT79593,3LEIZ60CDPYTHMOMMNSZP9WVES69ZF,727F1450-B39B-4818-8A59-C7E5B77A378F,2023-09-26_06h40.37.967,WP_VExplicitOC_LH,2022.2.5,Win32,12.71536652,71.61458333,3.7057,2.0361,NA,NA,NA,NA,NA,bored,"bored, not bored","more bored, less bored",NA,NA,NA,NA,NA,NA,NA,NA,NA,NA,NA,NA,NA,NA,NA,0,1,1,2,1,NA,NA,NA,NA,NA,NA,NA,NA,NA,NA,NA,NA,NA,NA,NA,NA,NA,NA,NA,NA,NA,NA,NA,NA,NA,NA,NA,NA
SUPAMT79593,3LEIZ60CDPYTHMOMMNSZP9WVES69ZF,727F1450-B39B-4818-8A59-C7E5B77A378F,2023-09-26_06h40.37.967,WP_VExplicitOC_LH,2022.2.5,Win32,12.71536652,69.53125,6.1214,2.034,NA,NA,NA,NA,NA,happy,"unhappy, happy","less happy, more happy",NA,NA,NA,NA,NA,NA,NA,NA,NA,NA,NA,NA,NA,NA,NA,0,2,2,0,1,NA,NA,NA,NA,NA,NA,NA,NA,NA,NA,NA,NA,NA,NA,NA,NA,NA,NA,NA,NA,NA,NA,NA,NA,NA,NA,NA,NA
SUPAMT79593,3LEIZ60CDPYTHMOMMNSZP9WVES69ZF,727F1450-B39B-4818-8A59-C7E5B77A378F,2023-09-26_06h40.37.967,WP_VExplicitOC_LH,2022.2.5,Win32,12.71536652,NA,NA,NA,NA,NA,NA,NA,NA,NA,NA,NA,NA,NA,NA,NA,NA,NA,NA,NA,NA,NA,NA,NA,NA,NA,NA,NA,NA,NA,NA,NA,10,0,10,0,1,NA,NA,NA,NA,NA,NA,NA,NA,NA,NA,NA,NA,NA,NA,NA,NA,NA,NA,NA,NA,NA,NA,NA
SUPAMT79593,3LEIZ60CDPYTHMOMMNSZP9WVES69ZF,727F1450-B39B-4818-8A59-C7E5B77A378F,2023-09-26_06h40.37.967,WP_VExplicitOC_LH,2022.2.5,Win32,12.71536652,5.46875,2.3208,2.0462,NA,NA,NA,NA,NA,frustrated,"frustrated, not frustrated","more frustrated, less frustrated",NA,NA,NA,NA,NA,NA,NA,NA,NA,NA,NA,NA,NA,NA,NA,0,0,0,1,1,NA,NA,NA,NA,NA,NA,NA,NA,NA,NA,NA,NA,NA,NA,NA,NA,NA,NA,NA,NA,NA,NA,NA,NA,NA,NA,NA,NA
SUPAMT79593,3LEIZ60CDPYTHMOMMNSZP9WVES69ZF,727F1450-B39B-4818-8A59-C7E5B77A378F,2023-09-26_06h40.37.967,WP_VExplicitOC_LH,2022.2.5,Win32,12.71536652,5.46875,2.2159,2.0487,NA,NA,NA,NA,NA,bored,"bored, not bored","more bored, less bored",NA,NA,NA,NA,NA,NA,NA,NA,NA,NA,NA,NA,NA,NA,NA,0,1,1,2,1,NA,NA,NA,NA,NA,NA,NA,NA,NA,NA,NA,NA,NA,NA,NA,NA,NA,NA,NA,NA,NA,NA,NA,NA,NA,NA,NA,NA
SUPAMT79593,3LEIZ60CDPYTHMOMMNSZP9WVES69ZF,727F1450-B39B-4818-8A59-C7E5B77A378F,2023-09-26_06h40.37.967,WP_VExplicitOC_LH,2022.2.5,Win32,12.71536652,50.78125,4.2005,2.036,NA,NA,NA,NA,NA,happy,"unhappy, happy","less happy, more happy",NA,NA,NA,NA,NA,NA,NA,NA,NA,NA,NA,NA,NA,NA,NA,0,2,2,0,1,NA,NA,NA,NA,NA,NA,NA,NA,NA,NA,NA,NA,NA,NA,NA,NA,NA,NA,NA,NA,NA,NA,NA,NA,NA,NA,NA,NA
SUPAMT79593,3LEIZ60CDPYTHMOMMNSZP9WVES69ZF,727F1450-B39B-4818-8A59-C7E5B77A378F,2023-09-26_06h40.37.967,WP_VExplicitOC_LH,2022.2.5,Win32,12.71536652,NA,NA,NA,NA,NA,NA,NA,NA,NA,NA,NA,NA,NA,NA,NA,NA,NA,NA,NA,NA,NA,NA,NA,NA,NA,NA,NA,NA,NA,NA,NA,11,0,11,0,1,NA,NA,NA,NA,NA,NA,NA,NA,NA,NA,NA,NA,NA,NA,NA,NA,NA,NA,NA,NA,NA,NA,NA
SUPAMT79593,3LEIZ60CDPYTHMOMMNSZP9WVES69ZF,727F1450-B39B-4818-8A59-C7E5B77A378F,2023-09-26_06h40.37.967,WP_VExplicitOC_LH,2022.2.5,Win32,12.71536652,43.48958333,4.9138,2.0535,NA,NA,NA,NA,NA,frustrated,"frustrated, not frustrated","more frustrated, less frustrated",NA,NA,NA,NA,NA,NA,NA,NA,NA,NA,NA,NA,NA,NA,NA,0,0,0,1,1,NA,NA,NA,NA,NA,NA,NA,NA,NA,NA,NA,NA,NA,NA,NA,NA,NA,NA,NA,NA,NA,NA,NA,NA,NA,NA,NA,NA
SUPAMT79593,3LEIZ60CDPYTHMOMMNSZP9WVES69ZF,727F1450-B39B-4818-8A59-C7E5B77A378F,2023-09-26_06h40.37.967,WP_VExplicitOC_LH,2022.2.5,Win32,12.71536652,42.96875,3.2901,2.0643,NA,NA,NA,NA,NA,bored,"bored, not bored","more bored, less bored",NA,NA,NA,NA,NA,NA,NA,NA,NA,NA,NA,NA,NA,NA,NA,0,1,1,2,1,NA,NA,NA,NA,NA,NA,NA,NA,NA,NA,NA,NA,NA,NA,NA,NA,NA,NA,NA,NA,NA,NA,NA,NA,NA,NA,NA,NA
SUPAMT79593,3LEIZ60CDPYTHMOMMNSZP9WVES69ZF,727F1450-B39B-4818-8A59-C7E5B77A378F,2023-09-26_06h40.37.967,WP_VExplicitOC_LH,2022.2.5,Win32,12.71536652,52.34375,3.3544,2.078,NA,NA,NA,NA,NA,happy,"unhappy, happy","less happy, more happy",NA,NA,NA,NA,NA,NA,NA,NA,NA,NA,NA,NA,NA,NA,NA,0,2,2,0,1,NA,NA,NA,NA,NA,NA,NA,NA,NA,NA,NA,NA,NA,NA,NA,NA,NA,NA,NA,NA,NA,NA,NA,NA,NA,NA,NA,NA
SUPAMT79593,3LEIZ60CDPYTHMOMMNSZP9WVES69ZF,727F1450-B39B-4818-8A59-C7E5B77A378F,2023-09-26_06h40.37.967,WP_VExplicitOC_LH,2022.2.5,Win32,12.71536652,NA,NA,NA,NA,NA,NA,NA,NA,NA,NA,NA,NA,NA,NA,NA,NA,NA,NA,NA,NA,NA,NA,NA,NA,NA,NA,NA,NA,NA,NA,NA,12,0,12,0,1,NA,NA,NA,NA,NA,NA,NA,NA,NA,NA,NA,NA,NA,NA,NA,NA,NA,NA,NA,NA,NA,NA,NA
SUPAMT79593,3LEIZ60CDPYTHMOMMNSZP9WVES69ZF,727F1450-B39B-4818-8A59-C7E5B77A378F,2023-09-26_06h40.37.967,WP_VExplicitOC_LH,2022.2.5,Win32,12.71536652,44.01041667,3.1737,2.0314,NA,NA,NA,NA,NA,happy,"unhappy, happy","less happy, more happy",NA,NA,NA,NA,NA,NA,NA,NA,NA,NA,NA,NA,NA,NA,NA,0,0,0,0,1,NA,NA,NA,NA,NA,NA,NA,NA,NA,NA,NA,NA,NA,NA,NA,NA,NA,NA,NA,NA,NA,NA,NA,NA,NA,NA,NA,NA
SUPAMT79593,3LEIZ60CDPYTHMOMMNSZP9WVES69ZF,727F1450-B39B-4818-8A59-C7E5B77A378F,2023-09-26_06h40.37.967,WP_VExplicitOC_LH,2022.2.5,Win32,12.71536652,47.91666667,3.4297,2.0057,NA,NA,NA,NA,NA,bored,"bored, not bored","more bored, less bored",NA,NA,NA,NA,NA,NA,NA,NA,NA,NA,NA,NA,NA,NA,NA,0,1,1,2,1,NA,NA,NA,NA,NA,NA,NA,NA,NA,NA,NA,NA,NA,NA,NA,NA,NA,NA,NA,NA,NA,NA,NA,NA,NA,NA,NA,NA
SUPAMT79593,3LEIZ60CDPYTHMOMMNSZP9WVES69ZF,727F1450-B39B-4818-8A59-C7E5B77A378F,2023-09-26_06h40.37.967,WP_VExplicitOC_LH,2022.2.5,Win32,12.71536652,52.86458333,6.4836,2.019,NA,NA,NA,NA,NA,frustrated,"frustrated, not frustrated","more frustrated, less frustrated",NA,NA,NA,NA,NA,NA,NA,NA,NA,NA,NA,NA,NA,NA,NA,0,2,2,1,1,NA,NA,NA,NA,NA,NA,NA,NA,NA,NA,NA,NA,NA,NA,NA,NA,NA,NA,NA,NA,NA,NA,NA,NA,NA,NA,NA,NA
SUPAMT79593,3LEIZ60CDPYTHMOMMNSZP9WVES69ZF,727F1450-B39B-4818-8A59-C7E5B77A378F,2023-09-26_06h40.37.967,WP_VExplicitOC_LH,2022.2.5,Win32,12.71536652,NA,NA,NA,NA,NA,NA,NA,NA,NA,NA,NA,NA,NA,NA,NA,NA,NA,NA,NA,NA,NA,NA,NA,NA,NA,NA,NA,NA,NA,NA,NA,13,0,13,0,1,NA,NA,NA,NA,NA,NA,NA,NA,NA,NA,NA,NA,NA,NA,NA,NA,NA,NA,NA,NA,NA,NA,NA
SUPAMT79593,3LEIZ60CDPYTHMOMMNSZP9WVES69ZF,727F1450-B39B-4818-8A59-C7E5B77A378F,2023-09-26_06h40.37.967,WP_VExplicitOC_LH,2022.2.5,Win32,12.71536652,36.97916667,4.7498,2.0018,NA,NA,NA,NA,NA,happy,"unhappy, happy","less happy, more happy",NA,NA,NA,NA,NA,NA,NA,NA,NA,NA,NA,NA,NA,NA,NA,0,0,0,0,1,NA,NA,NA,NA,NA,NA,NA,NA,NA,NA,NA,NA,NA,NA,NA,NA,NA,NA,NA,NA,NA,NA,NA,NA,NA,NA,NA,NA
SUPAMT79593,3LEIZ60CDPYTHMOMMNSZP9WVES69ZF,727F1450-B39B-4818-8A59-C7E5B77A378F,2023-09-26_06h40.37.967,WP_VExplicitOC_LH,2022.2.5,Win32,12.71536652,51.30208333,5.2166,2.0371,NA,NA,NA,NA,NA,bored,"bored, not bored","more bored, less bored",NA,NA,NA,NA,NA,NA,NA,NA,NA,NA,NA,NA,NA,NA,NA,0,1,1,2,1,NA,NA,NA,NA,NA,NA,NA,NA,NA,NA,NA,NA,NA,NA,NA,NA,NA,NA,NA,NA,NA,NA,NA,NA,NA,NA,NA,NA
SUPAMT79593,3LEIZ60CDPYTHMOMMNSZP9WVES69ZF,727F1450-B39B-4818-8A59-C7E5B77A378F,2023-09-26_06h40.37.967,WP_VExplicitOC_LH,2022.2.5,Win32,12.71536652,51.30208333,5.9479,2.0773,NA,NA,NA,NA,NA,frustrated,"frustrated, not frustrated","more frustrated, less frustrated",NA,NA,NA,NA,NA,NA,NA,NA,NA,NA,NA,NA,NA,NA,NA,0,2,2,1,1,NA,NA,NA,NA,NA,NA,NA,NA,NA,NA,NA,NA,NA,NA,NA,NA,NA,NA,NA,NA,NA,NA,NA,NA,NA,NA,NA,NA
SUPAMT79593,3LEIZ60CDPYTHMOMMNSZP9WVES69ZF,727F1450-B39B-4818-8A59-C7E5B77A378F,2023-09-26_06h40.37.967,WP_VExplicitOC_LH,2022.2.5,Win32,12.71536652,NA,NA,NA,NA,NA,NA,NA,NA,NA,NA,NA,NA,NA,NA,NA,NA,NA,NA,NA,NA,NA,NA,NA,NA,NA,NA,NA,NA,NA,NA,NA,14,0,14,0,1,NA,NA,NA,NA,NA,NA,NA,NA,NA,NA,NA,NA,NA,NA,NA,NA,NA,NA,NA,NA,NA,NA,NA
SUPAMT79593,3LEIZ60CDPYTHMOMMNSZP9WVES69ZF,727F1450-B39B-4818-8A59-C7E5B77A378F,2023-09-26_06h40.37.967,WP_VExplicitOC_LH,2022.2.5,Win32,12.71536652,NA,NA,NA,NA,NA,NA,NA,NA,NA,NA,NA,NA,NA,NA,NA,NA,NA,NA,NA,NA,NA,NA,NA,NA,NA,NA,NA,NA,NA,NA,NA,NA,NA,NA,NA,NA,NA,NA,NA,NA,NA,NA,NA,NA,NA,NA,NA,NA,NA,NA,NA,NA,NA,NA,NA,NA,NA,NA,NA
SUPAMT79593,3LEIZ60CDPYTHMOMMNSZP9WVES69ZF,727F1450-B39B-4818-8A59-C7E5B77A378F,2023-09-26_06h40.37.967,WP_VExplicitOC_LH,2022.2.5,Win32,12.71536652,NA,NA,NA,NA,NA,NA,NA,NA,NA,NA,NA,NA,NA,NA,NA,NA,NA,NA,NA,NA,NA,NA,NA,NA,NA,NA,NA,NA,NA,NA,NA,NA,NA,NA,NA,NA,NA,NA,NA,NA,NA,NA,NA,NA,NA,NA,NA,NA,NA,NA,NA,NA,NA,NA,NA,NA,NA,NA,NA
SUPAMT79593,3LEIZ60CDPYTHMOMMNSZP9WVES69ZF,727F1450-B39B-4818-8A59-C7E5B77A378F,2023-09-26_06h40.37.967,WP_VExplicitOC_LH,2022.2.5,Win32,12.71536652,NA,NA,NA,NA,NA,NA,NA,NA,NA,NA,NA,NA,NA,NA,NA,NA,NA,NA,rest (looking at a fixed cross),001.png,NA,NA,NA,NA,NA,NA,NA,NA,NA,NA,NA,NA,NA,NA,NA,NA,51.30208333,1.0472,0,0,0,0,1,NA,NA,NA,NA,NA,NA,NA,NA,NA,NA,NA,NA,NA,NA,NA,NA
SUPAMT79593,3LEIZ60CDPYTHMOMMNSZP9WVES69ZF,727F1450-B39B-4818-8A59-C7E5B77A378F,2023-09-26_06h40.37.967,WP_VExplicitOC_LH,2022.2.5,Win32,12.71536652,NA,NA,NA,NA,NA,NA,NA,NA,NA,NA,NA,NA,NA,NA,NA,NA,NA,NA,stand up,002.png,NA,NA,NA,NA,NA,NA,NA,NA,NA,NA,NA,NA,NA,NA,NA,NA,52.34375,0.6227,0,1,1,1,1,NA,NA,NA,NA,NA,NA,NA,NA,NA,NA,NA,NA,NA,NA,NA,NA
SUPAMT79593,3LEIZ60CDPYTHMOMMNSZP9WVES69ZF,727F1450-B39B-4818-8A59-C7E5B77A378F,2023-09-26_06h40.37.967,WP_VExplicitOC_LH,2022.2.5,Win32,12.71536652,NA,NA,NA,NA,NA,NA,NA,NA,NA,NA,NA,NA,NA,NA,NA,NA,NA,NA,stretch,003.png,NA,NA,NA,NA,NA,NA,NA,NA,NA,NA,NA,NA,NA,NA,NA,NA,52.34375,0.1897,0,2,2,2,1,NA,NA,NA,NA,NA,NA,NA,NA,NA,NA,NA,NA,NA,NA,NA,NA
SUPAMT79593,3LEIZ60CDPYTHMOMMNSZP9WVES69ZF,727F1450-B39B-4818-8A59-C7E5B77A378F,2023-09-26_06h40.37.967,WP_VExplicitOC_LH,2022.2.5,Win32,12.71536652,NA,NA,NA,NA,NA,NA,NA,NA,NA,NA,NA,NA,NA,NA,NA,NA,NA,NA,make a drink,004.png,NA,NA,NA,NA,NA,NA,NA,NA,NA,NA,NA,NA,NA,NA,NA,NA,52.34375,0.1741,0,3,3,3,1,NA,NA,NA,NA,NA,NA,NA,NA,NA,NA,NA,NA,NA,NA,NA,NA
SUPAMT79593,3LEIZ60CDPYTHMOMMNSZP9WVES69ZF,727F1450-B39B-4818-8A59-C7E5B77A378F,2023-09-26_06h40.37.967,WP_VExplicitOC_LH,2022.2.5,Win32,12.71536652,NA,NA,NA,NA,NA,NA,NA,NA,NA,NA,NA,NA,NA,NA,NA,NA,NA,NA,scroll social media,005.png,NA,NA,NA,NA,NA,NA,NA,NA,NA,NA,NA,NA,NA,NA,NA,NA,52.34375,0.165,0,4,4,4,1,NA,NA,NA,NA,NA,NA,NA,NA,NA,NA,NA,NA,NA,NA,NA,NA
SUPAMT79593,3LEIZ60CDPYTHMOMMNSZP9WVES69ZF,727F1450-B39B-4818-8A59-C7E5B77A378F,2023-09-26_06h40.37.967,WP_VExplicitOC_LH,2022.2.5,Win32,12.71536652,NA,NA,NA,NA,NA,NA,NA,NA,NA,NA,NA,NA,NA,NA,NA,NA,NA,NA,listen to music,006.png,NA,NA,NA,NA,NA,NA,NA,NA,NA,NA,NA,NA,NA,NA,NA,NA,52.34375,0.1909,0,5,5,5,1,NA,NA,NA,NA,NA,NA,NA,NA,NA,NA,NA,NA,NA,NA,NA,NA
SUPAMT79593,3LEIZ60CDPYTHMOMMNSZP9WVES69ZF,727F1450-B39B-4818-8A59-C7E5B77A378F,2023-09-26_06h40.37.967,WP_VExplicitOC_LH,2022.2.5,Win32,12.71536652,NA,NA,NA,NA,NA,NA,NA,NA,NA,NA,NA,NA,NA,NA,NA,NA,NA,NA,daydream,007.png,NA,NA,NA,NA,NA,NA,NA,NA,NA,NA,NA,NA,NA,NA,NA,NA,52.34375,0.9253,0,6,6,6,1,NA,NA,NA,NA,NA,NA,NA,NA,NA,NA,NA,NA,NA,NA,NA,NA
SUPAMT79593,3LEIZ60CDPYTHMOMMNSZP9WVES69ZF,727F1450-B39B-4818-8A59-C7E5B77A378F,2023-09-26_06h40.37.967,WP_VExplicitOC_LH,2022.2.5,Win32,12.71536652,NA,NA,NA,NA,NA,NA,NA,NA,NA,NA,NA,NA,NA,NA,NA,NA,NA,NA,watch a short animation,008.png,NA,NA,NA,NA,NA,NA,NA,NA,NA,NA,NA,NA,NA,NA,NA,NA,52.34375,0.1928,0,7,7,7,1,NA,NA,NA,NA,NA,NA,NA,NA,NA,NA,NA,NA,NA,NA,NA,NA
SUPAMT79593,3LEIZ60CDPYTHMOMMNSZP9WVES69ZF,727F1450-B39B-4818-8A59-C7E5B77A378F,2023-09-26_06h40.37.967,WP_VExplicitOC_LH,2022.2.5,Win32,12.71536652,NA,NA,NA,NA,NA,NA,NA,NA,NA,NA,NA,NA,NA,NA,NA,NA,NA,NA,read a novel,009.png,NA,NA,NA,NA,NA,NA,NA,NA,NA,NA,NA,NA,NA,NA,NA,NA,52.34375,0.3897,0,8,8,8,1,NA,NA,NA,NA,NA,NA,NA,NA,NA,NA,NA,NA,NA,NA,NA,NA
SUPAMT79593,3LEIZ60CDPYTHMOMMNSZP9WVES69ZF,727F1450-B39B-4818-8A59-C7E5B77A378F,2023-09-26_06h40.37.967,WP_VExplicitOC_LH,2022.2.5,Win32,12.71536652,NA,NA,NA,NA,NA,NA,NA,NA,NA,NA,NA,NA,NA,NA,NA,NA,NA,NA,read the news,010.png,NA,NA,NA,NA,NA,NA,NA,NA,NA,NA,NA,NA,NA,NA,NA,NA,52.34375,0.0954,0,9,9,9,1,NA,NA,NA,NA,NA,NA,NA,NA,NA,NA,NA,NA,NA,NA,NA,NA
SUPAMT79593,3LEIZ60CDPYTHMOMMNSZP9WVES69ZF,727F1450-B39B-4818-8A59-C7E5B77A378F,2023-09-26_06h40.37.967,WP_VExplicitOC_LH,2022.2.5,Win32,12.71536652,NA,NA,NA,NA,NA,NA,NA,NA,NA,NA,NA,NA,NA,NA,NA,NA,NA,NA,NA,NA,NA,NA,NA,NA,NA,NA,NA,NA,NA,NA,NA,NA,NA,NA,NA,NA,NA,NA,NA,NA,NA,NA,NA,stand up,NA,NA,NA,NA,NA,NA,NA,NA,NA,NA,NA,NA,NA,NA,NA
SUPAMT79593,3LEIZ60CDPYTHMOMMNSZP9WVES69ZF,727F1450-B39B-4818-8A59-C7E5B77A378F,2023-09-26_06h40.37.967,WP_VExplicitOC_LH,2022.2.5,Win32,12.71536652,52.34375,4.4015,2.0103,NA,NA,NA,NA,NA,bored,"bored, not bored","more bored, less bored",NA,NA,NA,NA,NA,NA,NA,NA,NA,NA,NA,NA,NA,NA,NA,NA,NA,NA,NA,NA,NA,NA,NA,NA,NA,NA,NA,NA,NA,NA,NA,NA,NA,0,0,0,2,1,NA,NA,NA,NA,NA,NA,NA,NA,NA,NA
SUPAMT79593,3LEIZ60CDPYTHMOMMNSZP9WVES69ZF,727F1450-B39B-4818-8A59-C7E5B77A378F,2023-09-26_06h40.37.967,WP_VExplicitOC_LH,2022.2.5,Win32,12.71536652,52.34375,5.6513,2.0553,NA,NA,NA,NA,NA,frustrated,"frustrated, not frustrated","more frustrated, less frustrated",NA,NA,NA,NA,NA,NA,NA,NA,NA,NA,NA,NA,NA,NA,NA,NA,NA,NA,NA,NA,NA,NA,NA,NA,NA,NA,NA,NA,NA,NA,NA,NA,NA,0,1,1,1,1,NA,NA,NA,NA,NA,NA,NA,NA,NA,NA
SUPAMT79593,3LEIZ60CDPYTHMOMMNSZP9WVES69ZF,727F1450-B39B-4818-8A59-C7E5B77A378F,2023-09-26_06h40.37.967,WP_VExplicitOC_LH,2022.2.5,Win32,12.71536652,52.34375,3.0041,2.047,NA,NA,NA,NA,NA,happy,"unhappy, happy","less happy, more happy",NA,NA,NA,NA,NA,NA,NA,NA,NA,NA,NA,NA,NA,NA,NA,NA,NA,NA,NA,NA,NA,NA,NA,NA,NA,NA,NA,NA,NA,NA,NA,NA,NA,0,2,2,0,1,NA,NA,NA,NA,NA,NA,NA,NA,NA,NA
SUPAMT79593,3LEIZ60CDPYTHMOMMNSZP9WVES69ZF,727F1450-B39B-4818-8A59-C7E5B77A378F,2023-09-26_06h40.37.967,WP_VExplicitOC_LH,2022.2.5,Win32,12.71536652,NA,NA,NA,NA,NA,NA,NA,NA,NA,NA,NA,NA,NA,NA,NA,NA,NA,NA,NA,NA,NA,NA,NA,NA,NA,NA,NA,NA,NA,NA,NA,NA,NA,NA,NA,NA,NA,NA,NA,NA,NA,NA,NA,NA,NA,NA,NA,NA,NA,NA,NA,NA,NA,NA,NA,NA,NA,NA,NA
SUPAMT79593,3LEIZ60CDPYTHMOMMNSZP9WVES69ZF,727F1450-B39B-4818-8A59-C7E5B77A378F,2023-09-26_06h40.37.967,WP_VExplicitOC_LH,2022.2.5,Win32,12.71536652,NA,NA,NA,NA,NA,NA,NA,NA,NA,NA,NA,NA,NA,NA,NA,NA,NA,NA,NA,NA,NA,NA,NA,NA,NA,NA,NA,NA,NA,NA,NA,NA,NA,NA,NA,NA,NA,NA,NA,NA,NA,NA,NA,NA,NA,NA,NA,NA,NA,NA,NA,NA,NA,NA,NA,NA,NA,NA,NA
SUPAMT79593,3LEIZ60CDPYTHMOMMNSZP9WVES69ZF,727F1450-B39B-4818-8A59-C7E5B77A378F,2023-09-26_06h40.37.967,WP_VExplicitOC_LH,2022.2.5,Win32,12.71536652,52.34375,3.0867,2.0203,NA,NA,NA,NA,NA,happy,"unhappy, happy","less happy, more happy",NA,NA,NA,NA,NA,NA,NA,NA,NA,NA,NA,NA,NA,NA,NA,NA,NA,NA,NA,NA,NA,NA,NA,NA,NA,NA,NA,NA,NA,NA,NA,NA,NA,NA,NA,NA,NA,NA,0,0,0,0,1,NA,NA,NA,NA,NA
SUPAMT79593,3LEIZ60CDPYTHMOMMNSZP9WVES69ZF,727F1450-B39B-4818-8A59-C7E5B77A378F,2023-09-26_06h40.37.967,WP_VExplicitOC_LH,2022.2.5,Win32,12.71536652,52.34375,3.0854,2.0074,NA,NA,NA,NA,NA,frustrated,"frustrated, not frustrated","more frustrated, less frustrated",NA,NA,NA,NA,NA,NA,NA,NA,NA,NA,NA,NA,NA,NA,NA,NA,NA,NA,NA,NA,NA,NA,NA,NA,NA,NA,NA,NA,NA,NA,NA,NA,NA,NA,NA,NA,NA,NA,0,1,1,1,1,NA,NA,NA,NA,NA
SUPAMT79593,3LEIZ60CDPYTHMOMMNSZP9WVES69ZF,727F1450-B39B-4818-8A59-C7E5B77A378F,2023-09-26_06h40.37.967,WP_VExplicitOC_LH,2022.2.5,Win32,12.71536652,52.34375,3.4019,2.084,NA,NA,NA,NA,NA,bored,"bored, not bored","more bored, less bored",NA,NA,NA,NA,NA,NA,NA,NA,NA,NA,NA,NA,NA,NA,NA,NA,NA,NA,NA,NA,NA,NA,NA,NA,NA,NA,NA,NA,NA,NA,NA,NA,NA,NA,NA,NA,NA,NA,0,2,2,2,1,NA,NA,NA,NA,NA
SUPAMT79593,3LEIZ60CDPYTHMOMMNSZP9WVES69ZF,727F1450-B39B-4818-8A59-C7E5B77A378F,2023-09-26_06h40.37.967,WP_VExplicitOC_LH,2022.2.5,Win32,12.71536652,NA,NA,NA,NA,NA,NA,NA,NA,NA,NA,NA,NA,NA,NA,NA,NA,NA,NA,NA,NA,NA,NA,NA,NA,NA,NA,NA,NA,NA,NA,NA,NA,NA,NA,NA,NA,NA,NA,NA,NA,NA,NA,NA,NA,NA,NA,NA,NA,NA,NA,NA,NA,NA,NA,0,0,0,0,1
SUPAMT79593,3LEIZ60CDPYTHMOMMNSZP9WVES69ZF,727F1450-B39B-4818-8A59-C7E5B77A378F,2023-09-26_06h40.37.967,WP_VExplicitOC_LH,2022.2.5,Win32,12.71536652,67.1875,3.595,2.0579,NA,NA,NA,NA,NA,frustrated,"frustrated, not frustrated","more frustrated, less frustrated",NA,NA,NA,NA,NA,NA,NA,NA,NA,NA,NA,NA,NA,NA,NA,NA,NA,NA,NA,NA,NA,NA,NA,NA,NA,NA,NA,NA,NA,NA,NA,NA,NA,NA,NA,NA,NA,NA,0,0,0,1,1,NA,NA,NA,NA,NA
SUPAMT79593,3LEIZ60CDPYTHMOMMNSZP9WVES69ZF,727F1450-B39B-4818-8A59-C7E5B77A378F,2023-09-26_06h40.37.967,WP_VExplicitOC_LH,2022.2.5,Win32,12.71536652,67.44791667,3.1118,2.0563,NA,NA,NA,NA,NA,happy,"unhappy, happy","less happy, more happy",NA,NA,NA,NA,NA,NA,NA,NA,NA,NA,NA,NA,NA,NA,NA,NA,NA,NA,NA,NA,NA,NA,NA,NA,NA,NA,NA,NA,NA,NA,NA,NA,NA,NA,NA,NA,NA,NA,0,1,1,0,1,NA,NA,NA,NA,NA
SUPAMT79593,3LEIZ60CDPYTHMOMMNSZP9WVES69ZF,727F1450-B39B-4818-8A59-C7E5B77A378F,2023-09-26_06h40.37.967,WP_VExplicitOC_LH,2022.2.5,Win32,12.71536652,67.44791667,3.1067,2.0605,NA,NA,NA,NA,NA,bored,"bored, not bored","more bored, less bored",NA,NA,NA,NA,NA,NA,NA,NA,NA,NA,NA,NA,NA,NA,NA,NA,NA,NA,NA,NA,NA,NA,NA,NA,NA,NA,NA,NA,NA,NA,NA,NA,NA,NA,NA,NA,NA,NA,0,2,2,2,1,NA,NA,NA,NA,NA
SUPAMT79593,3LEIZ60CDPYTHMOMMNSZP9WVES69ZF,727F1450-B39B-4818-8A59-C7E5B77A378F,2023-09-26_06h40.37.967,WP_VExplicitOC_LH,2022.2.5,Win32,12.71536652,NA,NA,NA,NA,NA,NA,NA,NA,NA,NA,NA,NA,NA,NA,NA,NA,NA,NA,NA,NA,NA,NA,NA,NA,NA,NA,NA,NA,NA,NA,NA,NA,NA,NA,NA,NA,NA,NA,NA,NA,NA,NA,NA,NA,NA,NA,NA,NA,NA,NA,NA,NA,NA,NA,1,0,1,0,1
SUPAMT79593,3LEIZ60CDPYTHMOMMNSZP9WVES69ZF,727F1450-B39B-4818-8A59-C7E5B77A378F,2023-09-26_06h40.37.967,WP_VExplicitOC_LH,2022.2.5,Win32,12.71536652,NA,NA,2.0753,NA,NA,NA,NA,NA,bored,"bored, not bored","more bored, less bored",NA,NA,NA,NA,NA,NA,NA,NA,NA,NA,NA,NA,NA,NA,NA,NA,NA,NA,NA,NA,NA,NA,NA,NA,NA,NA,NA,NA,NA,NA,NA,NA,NA,NA,NA,NA,NA,NA,0,0,0,2,1,NA,NA,NA,NA,NA
SUPAMT79593,3LEIZ60CDPYTHMOMMNSZP9WVES69ZF,727F1450-B39B-4818-8A59-C7E5B77A378F,2023-09-26_06h40.37.967,WP_VExplicitOC_LH,2022.2.5,Win32,12.71536652,42.44791667,4.5858,2.023,NA,NA,NA,NA,NA,frustrated,"frustrated, not frustrated","more frustrated, less frustrated",NA,NA,NA,NA,NA,NA,NA,NA,NA,NA,NA,NA,NA,NA,NA,NA,NA,NA,NA,NA,NA,NA,NA,NA,NA,NA,NA,NA,NA,NA,NA,NA,NA,NA,NA,NA,NA,NA,0,1,1,1,1,NA,NA,NA,NA,NA
SUPAMT79593,3LEIZ60CDPYTHMOMMNSZP9WVES69ZF,727F1450-B39B-4818-8A59-C7E5B77A378F,2023-09-26_06h40.37.967,WP_VExplicitOC_LH,2022.2.5,Win32,12.71536652,42.70833333,3.1792,2.0396,NA,NA,NA,NA,NA,happy,"unhappy, happy","less happy, more happy",NA,NA,NA,NA,NA,NA,NA,NA,NA,NA,NA,NA,NA,NA,NA,NA,NA,NA,NA,NA,NA,NA,NA,NA,NA,NA,NA,NA,NA,NA,NA,NA,NA,NA,NA,NA,NA,NA,0,2,2,0,1,NA,NA,NA,NA,NA
SUPAMT79593,3LEIZ60CDPYTHMOMMNSZP9WVES69ZF,727F1450-B39B-4818-8A59-C7E5B77A378F,2023-09-26_06h40.37.967,WP_VExplicitOC_LH,2022.2.5,Win32,12.71536652,NA,NA,NA,NA,NA,NA,NA,NA,NA,NA,NA,NA,NA,NA,NA,NA,NA,NA,NA,NA,NA,NA,NA,NA,NA,NA,NA,NA,NA,NA,NA,NA,NA,NA,NA,NA,NA,NA,NA,NA,NA,NA,NA,NA,NA,NA,NA,NA,NA,NA,NA,NA,NA,NA,2,0,2,0,1
SUPAMT79593,3LEIZ60CDPYTHMOMMNSZP9WVES69ZF,727F1450-B39B-4818-8A59-C7E5B77A378F,2023-09-26_06h40.37.967,WP_VExplicitOC_LH,2022.2.5,Win32,12.71536652,56.51041667,3.2156,2.0401,NA,NA,NA,NA,NA,bored,"bored, not bored","more bored, less bored",NA,NA,NA,NA,NA,NA,NA,NA,NA,NA,NA,NA,NA,NA,NA,NA,NA,NA,NA,NA,NA,NA,NA,NA,NA,NA,NA,NA,NA,NA,NA,NA,NA,NA,NA,NA,NA,NA,0,0,0,2,1,NA,NA,NA,NA,NA
SUPAMT79593,3LEIZ60CDPYTHMOMMNSZP9WVES69ZF,727F1450-B39B-4818-8A59-C7E5B77A378F,2023-09-26_06h40.37.967,WP_VExplicitOC_LH,2022.2.5,Win32,12.71536652,56.51041667,3.543,2.0463,NA,NA,NA,NA,NA,happy,"unhappy, happy","less happy, more happy",NA,NA,NA,NA,NA,NA,NA,NA,NA,NA,NA,NA,NA,NA,NA,NA,NA,NA,NA,NA,NA,NA,NA,NA,NA,NA,NA,NA,NA,NA,NA,NA,NA,NA,NA,NA,NA,NA,0,1,1,0,1,NA,NA,NA,NA,NA
SUPAMT79593,3LEIZ60CDPYTHMOMMNSZP9WVES69ZF,727F1450-B39B-4818-8A59-C7E5B77A378F,2023-09-26_06h40.37.967,WP_VExplicitOC_LH,2022.2.5,Win32,12.71536652,56.51041667,5.3119,2.0782,NA,NA,NA,NA,NA,frustrated,"frustrated, not frustrated","more frustrated, less frustrated",NA,NA,NA,NA,NA,NA,NA,NA,NA,NA,NA,NA,NA,NA,NA,NA,NA,NA,NA,NA,NA,NA,NA,NA,NA,NA,NA,NA,NA,NA,NA,NA,NA,NA,NA,NA,NA,NA,0,2,2,1,1,NA,NA,NA,NA,NA
SUPAMT79593,3LEIZ60CDPYTHMOMMNSZP9WVES69ZF,727F1450-B39B-4818-8A59-C7E5B77A378F,2023-09-26_06h40.37.967,WP_VExplicitOC_LH,2022.2.5,Win32,12.71536652,NA,NA,NA,NA,NA,NA,NA,NA,NA,NA,NA,NA,NA,NA,NA,NA,NA,NA,NA,NA,NA,NA,NA,NA,NA,NA,NA,NA,NA,NA,NA,NA,NA,NA,NA,NA,NA,NA,NA,NA,NA,NA,NA,NA,NA,NA,NA,NA,NA,NA,NA,NA,NA,NA,3,0,3,0,1
SUPAMT79593,3LEIZ60CDPYTHMOMMNSZP9WVES69ZF,727F1450-B39B-4818-8A59-C7E5B77A378F,2023-09-26_06h40.37.967,WP_VExplicitOC_LH,2022.2.5,Win32,12.71536652,32.29166667,3.7993,2.0648,NA,NA,NA,NA,NA,bored,"bored, not bored","more bored, less bored",NA,NA,NA,NA,NA,NA,NA,NA,NA,NA,NA,NA,NA,NA,NA,NA,NA,NA,NA,NA,NA,NA,NA,NA,NA,NA,NA,NA,NA,NA,NA,NA,NA,NA,NA,NA,NA,NA,0,0,0,2,1,NA,NA,NA,NA,NA
SUPAMT79593,3LEIZ60CDPYTHMOMMNSZP9WVES69ZF,727F1450-B39B-4818-8A59-C7E5B77A378F,2023-09-26_06h40.37.967,WP_VExplicitOC_LH,2022.2.5,Win32,12.71536652,58.33333333,3.3747,2.0463,NA,NA,NA,NA,NA,frustrated,"frustrated, not frustrated","more frustrated, less frustrated",NA,NA,NA,NA,NA,NA,NA,NA,NA,NA,NA,NA,NA,NA,NA,NA,NA,NA,NA,NA,NA,NA,NA,NA,NA,NA,NA,NA,NA,NA,NA,NA,NA,NA,NA,NA,NA,NA,0,1,1,1,1,NA,NA,NA,NA,NA
SUPAMT79593,3LEIZ60CDPYTHMOMMNSZP9WVES69ZF,727F1450-B39B-4818-8A59-C7E5B77A378F,2023-09-26_06h40.37.967,WP_VExplicitOC_LH,2022.2.5,Win32,12.71536652,58.33333333,3.0372,2.0797,NA,NA,NA,NA,NA,happy,"unhappy, happy","less happy, more happy",NA,NA,NA,NA,NA,NA,NA,NA,NA,NA,NA,NA,NA,NA,NA,NA,NA,NA,NA,NA,NA,NA,NA,NA,NA,NA,NA,NA,NA,NA,NA,NA,NA,NA,NA,NA,NA,NA,0,2,2,0,1,NA,NA,NA,NA,NA
SUPAMT79593,3LEIZ60CDPYTHMOMMNSZP9WVES69ZF,727F1450-B39B-4818-8A59-C7E5B77A378F,2023-09-26_06h40.37.967,WP_VExplicitOC_LH,2022.2.5,Win32,12.71536652,NA,NA,NA,NA,NA,NA,NA,NA,NA,NA,NA,NA,NA,NA,NA,NA,NA,NA,NA,NA,NA,NA,NA,NA,NA,NA,NA,NA,NA,NA,NA,NA,NA,NA,NA,NA,NA,NA,NA,NA,NA,NA,NA,NA,NA,NA,NA,NA,NA,NA,NA,NA,NA,NA,4,0,4,0,1
SUPAMT79593,3LEIZ60CDPYTHMOMMNSZP9WVES69ZF,727F1450-B39B-4818-8A59-C7E5B77A378F,2023-09-26_06h40.37.967,WP_VExplicitOC_LH,2022.2.5,Win32,12.71536652,NA,NA,2.0776,NA,NA,NA,NA,NA,bored,"bored, not bored","more bored, less bored",NA,NA,NA,NA,NA,NA,NA,NA,NA,NA,NA,NA,NA,NA,NA,NA,NA,NA,NA,NA,NA,NA,NA,NA,NA,NA,NA,NA,NA,NA,NA,NA,NA,NA,NA,NA,NA,NA,0,0,0,2,1,NA,NA,NA,NA,NA
SUPAMT79593,3LEIZ60CDPYTHMOMMNSZP9WVES69ZF,727F1450-B39B-4818-8A59-C7E5B77A378F,2023-09-26_06h40.37.967,WP_VExplicitOC_LH,2022.2.5,Win32,12.71536652,NA,NA,2.0522,NA,NA,NA,NA,NA,happy,"unhappy, happy","less happy, more happy",NA,NA,NA,NA,NA,NA,NA,NA,NA,NA,NA,NA,NA,NA,NA,NA,NA,NA,NA,NA,NA,NA,NA,NA,NA,NA,NA,NA,NA,NA,NA,NA,NA,NA,NA,NA,NA,NA,0,1,1,0,1,NA,NA,NA,NA,NA
SUPAMT79593,3LEIZ60CDPYTHMOMMNSZP9WVES69ZF,727F1450-B39B-4818-8A59-C7E5B77A378F,2023-09-26_06h40.37.967,WP_VExplicitOC_LH,2022.2.5,Win32,12.71536652,NA,NA,2.0407,NA,NA,NA,NA,NA,frustrated,"frustrated, not frustrated","more frustrated, less frustrated",NA,NA,NA,NA,NA,NA,NA,NA,NA,NA,NA,NA,NA,NA,NA,NA,NA,NA,NA,NA,NA,NA,NA,NA,NA,NA,NA,NA,NA,NA,NA,NA,NA,NA,NA,NA,NA,NA,0,2,2,1,1,NA,NA,NA,NA,NA
SUPAMT79593,3LEIZ60CDPYTHMOMMNSZP9WVES69ZF,727F1450-B39B-4818-8A59-C7E5B77A378F,2023-09-26_06h40.37.967,WP_VExplicitOC_LH,2022.2.5,Win32,12.71536652,NA,NA,NA,NA,NA,NA,NA,NA,NA,NA,NA,NA,NA,NA,NA,NA,NA,NA,NA,NA,NA,NA,NA,NA,NA,NA,NA,NA,NA,NA,NA,NA,NA,NA,NA,NA,NA,NA,NA,NA,NA,NA,NA,NA,NA,NA,NA,NA,NA,NA,NA,NA,NA,NA,5,0,5,0,1
SUPAMT79593,3LEIZ60CDPYTHMOMMNSZP9WVES69ZF,727F1450-B39B-4818-8A59-C7E5B77A378F,2023-09-26_06h40.37.967,WP_VExplicitOC_LH,2022.2.5,Win32,12.71536652,NA,NA,2.0257,NA,NA,NA,NA,NA,frustrated,"frustrated, not frustrated","more frustrated, less frustrated",NA,NA,NA,NA,NA,NA,NA,NA,NA,NA,NA,NA,NA,NA,NA,NA,NA,NA,NA,NA,NA,NA,NA,NA,NA,NA,NA,NA,NA,NA,NA,NA,NA,NA,NA,NA,NA,NA,0,0,0,1,1,NA,NA,NA,NA,NA
SUPAMT79593,3LEIZ60CDPYTHMOMMNSZP9WVES69ZF,727F1450-B39B-4818-8A59-C7E5B77A378F,2023-09-26_06h40.37.967,WP_VExplicitOC_LH,2022.2.5,Win32,12.71536652,53.64583333,6.5187,2.0813,NA,NA,NA,NA,NA,happy,"unhappy, happy","less happy, more happy",NA,NA,NA,NA,NA,NA,NA,NA,NA,NA,NA,NA,NA,NA,NA,NA,NA,NA,NA,NA,NA,NA,NA,NA,NA,NA,NA,NA,NA,NA,NA,NA,NA,NA,NA,NA,NA,NA,0,1,1,0,1,NA,NA,NA,NA,NA
SUPAMT79593,3LEIZ60CDPYTHMOMMNSZP9WVES69ZF,727F1450-B39B-4818-8A59-C7E5B77A378F,2023-09-26_06h40.37.967,WP_VExplicitOC_LH,2022.2.5,Win32,12.71536652,57.03125,3.0249,2.0661,NA,NA,NA,NA,NA,bored,"bored, not bored","more bored, less bored",NA,NA,NA,NA,NA,NA,NA,NA,NA,NA,NA,NA,NA,NA,NA,NA,NA,NA,NA,NA,NA,NA,NA,NA,NA,NA,NA,NA,NA,NA,NA,NA,NA,NA,NA,NA,NA,NA,0,2,2,2,1,NA,NA,NA,NA,NA
SUPAMT79593,3LEIZ60CDPYTHMOMMNSZP9WVES69ZF,727F1450-B39B-4818-8A59-C7E5B77A378F,2023-09-26_06h40.37.967,WP_VExplicitOC_LH,2022.2.5,Win32,12.71536652,NA,NA,NA,NA,NA,NA,NA,NA,NA,NA,NA,NA,NA,NA,NA,NA,NA,NA,NA,NA,NA,NA,NA,NA,NA,NA,NA,NA,NA,NA,NA,NA,NA,NA,NA,NA,NA,NA,NA,NA,NA,NA,NA,NA,NA,NA,NA,NA,NA,NA,NA,NA,NA,NA,6,0,6,0,1
SUPAMT79593,3LEIZ60CDPYTHMOMMNSZP9WVES69ZF,727F1450-B39B-4818-8A59-C7E5B77A378F,2023-09-26_06h40.37.967,WP_VExplicitOC_LH,2022.2.5,Win32,12.71536652,75.78125,4.0379,2.0709,NA,NA,NA,NA,NA,frustrated,"frustrated, not frustrated","more frustrated, less frustrated",NA,NA,NA,NA,NA,NA,NA,NA,NA,NA,NA,NA,NA,NA,NA,NA,NA,NA,NA,NA,NA,NA,NA,NA,NA,NA,NA,NA,NA,NA,NA,NA,NA,NA,NA,NA,NA,NA,0,0,0,1,1,NA,NA,NA,NA,NA
SUPAMT79593,3LEIZ60CDPYTHMOMMNSZP9WVES69ZF,727F1450-B39B-4818-8A59-C7E5B77A378F,2023-09-26_06h40.37.967,WP_VExplicitOC_LH,2022.2.5,Win32,12.71536652,75.78125,3.6493,2.0556,NA,NA,NA,NA,NA,bored,"bored, not bored","more bored, less bored",NA,NA,NA,NA,NA,NA,NA,NA,NA,NA,NA,NA,NA,NA,NA,NA,NA,NA,NA,NA,NA,NA,NA,NA,NA,NA,NA,NA,NA,NA,NA,NA,NA,NA,NA,NA,NA,NA,0,1,1,2,1,NA,NA,NA,NA,NA
SUPAMT79593,3LEIZ60CDPYTHMOMMNSZP9WVES69ZF,727F1450-B39B-4818-8A59-C7E5B77A378F,2023-09-26_06h40.37.967,WP_VExplicitOC_LH,2022.2.5,Win32,12.71536652,75.78125,3.0423,2.0897,NA,NA,NA,NA,NA,happy,"unhappy, happy","less happy, more happy",NA,NA,NA,NA,NA,NA,NA,NA,NA,NA,NA,NA,NA,NA,NA,NA,NA,NA,NA,NA,NA,NA,NA,NA,NA,NA,NA,NA,NA,NA,NA,NA,NA,NA,NA,NA,NA,NA,0,2,2,0,1,NA,NA,NA,NA,NA
SUPAMT79593,3LEIZ60CDPYTHMOMMNSZP9WVES69ZF,727F1450-B39B-4818-8A59-C7E5B77A378F,2023-09-26_06h40.37.967,WP_VExplicitOC_LH,2022.2.5,Win32,12.71536652,NA,NA,NA,NA,NA,NA,NA,NA,NA,NA,NA,NA,NA,NA,NA,NA,NA,NA,NA,NA,NA,NA,NA,NA,NA,NA,NA,NA,NA,NA,NA,NA,NA,NA,NA,NA,NA,NA,NA,NA,NA,NA,NA,NA,NA,NA,NA,NA,NA,NA,NA,NA,NA,NA,7,0,7,0,1
SUPAMT79593,3LEIZ60CDPYTHMOMMNSZP9WVES69ZF,727F1450-B39B-4818-8A59-C7E5B77A378F,2023-09-26_06h40.37.967,WP_VExplicitOC_LH,2022.2.5,Win32,12.71536652,61.71875,4.2678,2.0659,NA,NA,NA,NA,NA,frustrated,"frustrated, not frustrated","more frustrated, less frustrated",NA,NA,NA,NA,NA,NA,NA,NA,NA,NA,NA,NA,NA,NA,NA,NA,NA,NA,NA,NA,NA,NA,NA,NA,NA,NA,NA,NA,NA,NA,NA,NA,NA,NA,NA,NA,NA,NA,0,0,0,1,1,NA,NA,NA,NA,NA
SUPAMT79593,3LEIZ60CDPYTHMOMMNSZP9WVES69ZF,727F1450-B39B-4818-8A59-C7E5B77A378F,2023-09-26_06h40.37.967,WP_VExplicitOC_LH,2022.2.5,Win32,12.71536652,61.71875,3.8952,2.0255,NA,NA,NA,NA,NA,happy,"unhappy, happy","less happy, more happy",NA,NA,NA,NA,NA,NA,NA,NA,NA,NA,NA,NA,NA,NA,NA,NA,NA,NA,NA,NA,NA,NA,NA,NA,NA,NA,NA,NA,NA,NA,NA,NA,NA,NA,NA,NA,NA,NA,0,1,1,0,1,NA,NA,NA,NA,NA
SUPAMT79593,3LEIZ60CDPYTHMOMMNSZP9WVES69ZF,727F1450-B39B-4818-8A59-C7E5B77A378F,2023-09-26_06h40.37.967,WP_VExplicitOC_LH,2022.2.5,Win32,12.71536652,61.71875,3.8019,2.0055,NA,NA,NA,NA,NA,bored,"bored, not bored","more bored, less bored",NA,NA,NA,NA,NA,NA,NA,NA,NA,NA,NA,NA,NA,NA,NA,NA,NA,NA,NA,NA,NA,NA,NA,NA,NA,NA,NA,NA,NA,NA,NA,NA,NA,NA,NA,NA,NA,NA,0,2,2,2,1,NA,NA,NA,NA,NA
SUPAMT79593,3LEIZ60CDPYTHMOMMNSZP9WVES69ZF,727F1450-B39B-4818-8A59-C7E5B77A378F,2023-09-26_06h40.37.967,WP_VExplicitOC_LH,2022.2.5,Win32,12.71536652,NA,NA,NA,NA,NA,NA,NA,NA,NA,NA,NA,NA,NA,NA,NA,NA,NA,NA,NA,NA,NA,NA,NA,NA,NA,NA,NA,NA,NA,NA,NA,NA,NA,NA,NA,NA,NA,NA,NA,NA,NA,NA,NA,NA,NA,NA,NA,NA,NA,NA,NA,NA,NA,NA,8,0,8,0,1
SUPAMT79593,3LEIZ60CDPYTHMOMMNSZP9WVES69ZF,727F1450-B39B-4818-8A59-C7E5B77A378F,2023-09-26_06h40.37.967,WP_VExplicitOC_LH,2022.2.5,Win32,12.71536652,48.95833333,4.0979,2.0161,NA,NA,NA,NA,NA,bored,"bored, not bored","more bored, less bored",NA,NA,NA,NA,NA,NA,NA,NA,NA,NA,NA,NA,NA,NA,NA,NA,NA,NA,NA,NA,NA,NA,NA,NA,NA,NA,NA,NA,NA,NA,NA,NA,NA,NA,NA,NA,NA,NA,0,0,0,2,1,NA,NA,NA,NA,NA
SUPAMT79593,3LEIZ60CDPYTHMOMMNSZP9WVES69ZF,727F1450-B39B-4818-8A59-C7E5B77A378F,2023-09-26_06h40.37.967,WP_VExplicitOC_LH,2022.2.5,Win32,12.71536652,48.95833333,6.3701,2.0168,NA,NA,NA,NA,NA,frustrated,"frustrated, not frustrated","more frustrated, less frustrated",NA,NA,NA,NA,NA,NA,NA,NA,NA,NA,NA,NA,NA,NA,NA,NA,NA,NA,NA,NA,NA,NA,NA,NA,NA,NA,NA,NA,NA,NA,NA,NA,NA,NA,NA,NA,NA,NA,0,1,1,1,1,NA,NA,NA,NA,NA
SUPAMT79593,3LEIZ60CDPYTHMOMMNSZP9WVES69ZF,727F1450-B39B-4818-8A59-C7E5B77A378F,2023-09-26_06h40.37.967,WP_VExplicitOC_LH,2022.2.5,Win32,12.71536652,72.65625,3.6993,2.0042,NA,NA,NA,NA,NA,happy,"unhappy, happy","less happy, more happy",NA,NA,NA,NA,NA,NA,NA,NA,NA,NA,NA,NA,NA,NA,NA,NA,NA,NA,NA,NA,NA,NA,NA,NA,NA,NA,NA,NA,NA,NA,NA,NA,NA,NA,NA,NA,NA,NA,0,2,2,0,1,NA,NA,NA,NA,NA
SUPAMT79593,3LEIZ60CDPYTHMOMMNSZP9WVES69ZF,727F1450-B39B-4818-8A59-C7E5B77A378F,2023-09-26_06h40.37.967,WP_VExplicitOC_LH,2022.2.5,Win32,12.71536652,NA,NA,NA,NA,NA,NA,NA,NA,NA,NA,NA,NA,NA,NA,NA,NA,NA,NA,NA,NA,NA,NA,NA,NA,NA,NA,NA,NA,NA,NA,NA,NA,NA,NA,NA,NA,NA,NA,NA,NA,NA,NA,NA,NA,NA,NA,NA,NA,NA,NA,NA,NA,NA,NA,9,0,9,0,1
SUPAMT79593,3LEIZ60CDPYTHMOMMNSZP9WVES69ZF,727F1450-B39B-4818-8A59-C7E5B77A378F,2023-09-26_06h40.37.967,WP_VExplicitOC_LH,2022.2.5,Win32,12.71536652,62.23958333,3.0418,2.0087,NA,NA,NA,NA,NA,happy,"unhappy, happy","less happy, more happy",NA,NA,NA,NA,NA,NA,NA,NA,NA,NA,NA,NA,NA,NA,NA,NA,NA,NA,NA,NA,NA,NA,NA,NA,NA,NA,NA,NA,NA,NA,NA,NA,NA,NA,NA,NA,NA,NA,0,0,0,0,1,NA,NA,NA,NA,NA
SUPAMT79593,3LEIZ60CDPYTHMOMMNSZP9WVES69ZF,727F1450-B39B-4818-8A59-C7E5B77A378F,2023-09-26_06h40.37.967,WP_VExplicitOC_LH,2022.2.5,Win32,12.71536652,64.84375,3.1051,2.0735,NA,NA,NA,NA,NA,bored,"bored, not bored","more bored, less bored",NA,NA,NA,NA,NA,NA,NA,NA,NA,NA,NA,NA,NA,NA,NA,NA,NA,NA,NA,NA,NA,NA,NA,NA,NA,NA,NA,NA,NA,NA,NA,NA,NA,NA,NA,NA,NA,NA,0,1,1,2,1,NA,NA,NA,NA,NA
SUPAMT79593,3LEIZ60CDPYTHMOMMNSZP9WVES69ZF,727F1450-B39B-4818-8A59-C7E5B77A378F,2023-09-26_06h40.37.967,WP_VExplicitOC_LH,2022.2.5,Win32,12.71536652,64.84375,3.3815,2.0423,NA,NA,NA,NA,NA,frustrated,"frustrated, not frustrated","more frustrated, less frustrated",NA,NA,NA,NA,NA,NA,NA,NA,NA,NA,NA,NA,NA,NA,NA,NA,NA,NA,NA,NA,NA,NA,NA,NA,NA,NA,NA,NA,NA,NA,NA,NA,NA,NA,NA,NA,NA,NA,0,2,2,1,1,NA,NA,NA,NA,NA
SUPAMT79593,3LEIZ60CDPYTHMOMMNSZP9WVES69ZF,727F1450-B39B-4818-8A59-C7E5B77A378F,2023-09-26_06h40.37.967,WP_VExplicitOC_LH,2022.2.5,Win32,12.71536652,NA,NA,NA,NA,NA,NA,NA,NA,NA,NA,NA,NA,NA,NA,NA,NA,NA,NA,NA,NA,NA,NA,NA,NA,NA,NA,NA,NA,NA,NA,NA,NA,NA,NA,NA,NA,NA,NA,NA,NA,NA,NA,NA,NA,NA,NA,NA,NA,NA,NA,NA,NA,NA,NA,10,0,10,0,1
SUPAMT79593,3LEIZ60CDPYTHMOMMNSZP9WVES69ZF,727F1450-B39B-4818-8A59-C7E5B77A378F,2023-09-26_06h40.37.967,WP_VExplicitOC_LH,2022.2.5,Win32,12.71536652,NA,NA,2.0337,NA,NA,NA,NA,NA,happy,"unhappy, happy","less happy, more happy",NA,NA,NA,NA,NA,NA,NA,NA,NA,NA,NA,NA,NA,NA,NA,NA,NA,NA,NA,NA,NA,NA,NA,NA,NA,NA,NA,NA,NA,NA,NA,NA,NA,NA,NA,NA,NA,NA,0,0,0,0,1,NA,NA,NA,NA,NA
SUPAMT79593,3LEIZ60CDPYTHMOMMNSZP9WVES69ZF,727F1450-B39B-4818-8A59-C7E5B77A378F,2023-09-26_06h40.37.967,WP_VExplicitOC_LH,2022.2.5,Win32,12.71536652,51.5625,3.5083,2.0228,NA,NA,NA,NA,NA,bored,"bored, not bored","more bored, less bored",NA,NA,NA,NA,NA,NA,NA,NA,NA,NA,NA,NA,NA,NA,NA,NA,NA,NA,NA,NA,NA,NA,NA,NA,NA,NA,NA,NA,NA,NA,NA,NA,NA,NA,NA,NA,NA,NA,0,1,1,2,1,NA,NA,NA,NA,NA
SUPAMT79593,3LEIZ60CDPYTHMOMMNSZP9WVES69ZF,727F1450-B39B-4818-8A59-C7E5B77A378F,2023-09-26_06h40.37.967,WP_VExplicitOC_LH,2022.2.5,Win32,12.71536652,56.77083333,5.6577,2.0169,NA,NA,NA,NA,NA,frustrated,"frustrated, not frustrated","more frustrated, less frustrated",NA,NA,NA,NA,NA,NA,NA,NA,NA,NA,NA,NA,NA,NA,NA,NA,NA,NA,NA,NA,NA,NA,NA,NA,NA,NA,NA,NA,NA,NA,NA,NA,NA,NA,NA,NA,NA,NA,0,2,2,1,1,NA,NA,NA,NA,NA
SUPAMT79593,3LEIZ60CDPYTHMOMMNSZP9WVES69ZF,727F1450-B39B-4818-8A59-C7E5B77A378F,2023-09-26_06h40.37.967,WP_VExplicitOC_LH,2022.2.5,Win32,12.71536652,NA,NA,NA,NA,NA,NA,NA,NA,NA,NA,NA,NA,NA,NA,NA,NA,NA,NA,NA,NA,NA,NA,NA,NA,NA,NA,NA,NA,NA,NA,NA,NA,NA,NA,NA,NA,NA,NA,NA,NA,NA,NA,NA,NA,NA,NA,NA,NA,NA,NA,NA,NA,NA,NA,11,0,11,0,1
SUPAMT79593,3LEIZ60CDPYTHMOMMNSZP9WVES69ZF,727F1450-B39B-4818-8A59-C7E5B77A378F,2023-09-26_06h40.37.967,WP_VExplicitOC_LH,2022.2.5,Win32,12.71536652,NA,NA,2.0612,NA,NA,NA,NA,NA,bored,"bored, not bored","more bored, less bored",NA,NA,NA,NA,NA,NA,NA,NA,NA,NA,NA,NA,NA,NA,NA,NA,NA,NA,NA,NA,NA,NA,NA,NA,NA,NA,NA,NA,NA,NA,NA,NA,NA,NA,NA,NA,NA,NA,0,0,0,2,1,NA,NA,NA,NA,NA
SUPAMT79593,3LEIZ60CDPYTHMOMMNSZP9WVES69ZF,727F1450-B39B-4818-8A59-C7E5B77A378F,2023-09-26_06h40.37.967,WP_VExplicitOC_LH,2022.2.5,Win32,12.71536652,NA,NA,2.0592,NA,NA,NA,NA,NA,frustrated,"frustrated, not frustrated","more frustrated, less frustrated",NA,NA,NA,NA,NA,NA,NA,NA,NA,NA,NA,NA,NA,NA,NA,NA,NA,NA,NA,NA,NA,NA,NA,NA,NA,NA,NA,NA,NA,NA,NA,NA,NA,NA,NA,NA,NA,NA,0,1,1,1,1,NA,NA,NA,NA,NA
SUPAMT79593,3LEIZ60CDPYTHMOMMNSZP9WVES69ZF,727F1450-B39B-4818-8A59-C7E5B77A378F,2023-09-26_06h40.37.967,WP_VExplicitOC_LH,2022.2.5,Win32,12.71536652,NA,NA,2.0539,NA,NA,NA,NA,NA,happy,"unhappy, happy","less happy, more happy",NA,NA,NA,NA,NA,NA,NA,NA,NA,NA,NA,NA,NA,NA,NA,NA,NA,NA,NA,NA,NA,NA,NA,NA,NA,NA,NA,NA,NA,NA,NA,NA,NA,NA,NA,NA,NA,NA,0,2,2,0,1,NA,NA,NA,NA,NA
SUPAMT79593,3LEIZ60CDPYTHMOMMNSZP9WVES69ZF,727F1450-B39B-4818-8A59-C7E5B77A378F,2023-09-26_06h40.37.967,WP_VExplicitOC_LH,2022.2.5,Win32,12.71536652,NA,NA,NA,NA,NA,NA,NA,NA,NA,NA,NA,NA,NA,NA,NA,NA,NA,NA,NA,NA,NA,NA,NA,NA,NA,NA,NA,NA,NA,NA,NA,NA,NA,NA,NA,NA,NA,NA,NA,NA,NA,NA,NA,NA,NA,NA,NA,NA,NA,NA,NA,NA,NA,NA,12,0,12,0,1
SUPAMT79593,3LEIZ60CDPYTHMOMMNSZP9WVES69ZF,727F1450-B39B-4818-8A59-C7E5B77A378F,2023-09-26_06h40.37.967,WP_VExplicitOC_LH,2022.2.5,Win32,12.71536652,-5.46875,2.2945,2.065,NA,NA,NA,NA,NA,bored,"bored, not bored","more bored, less bored",NA,NA,NA,NA,NA,NA,NA,NA,NA,NA,NA,NA,NA,NA,NA,NA,NA,NA,NA,NA,NA,NA,NA,NA,NA,NA,NA,NA,NA,NA,NA,NA,NA,NA,NA,NA,NA,NA,0,0,0,2,1,NA,NA,NA,NA,NA
SUPAMT79593,3LEIZ60CDPYTHMOMMNSZP9WVES69ZF,727F1450-B39B-4818-8A59-C7E5B77A378F,2023-09-26_06h40.37.967,WP_VExplicitOC_LH,2022.2.5,Win32,12.71536652,70.57291667,3.1321,2.0264,NA,NA,NA,NA,NA,frustrated,"frustrated, not frustrated","more frustrated, less frustrated",NA,NA,NA,NA,NA,NA,NA,NA,NA,NA,NA,NA,NA,NA,NA,NA,NA,NA,NA,NA,NA,NA,NA,NA,NA,NA,NA,NA,NA,NA,NA,NA,NA,NA,NA,NA,NA,NA,0,1,1,1,1,NA,NA,NA,NA,NA
SUPAMT79593,3LEIZ60CDPYTHMOMMNSZP9WVES69ZF,727F1450-B39B-4818-8A59-C7E5B77A378F,2023-09-26_06h40.37.967,WP_VExplicitOC_LH,2022.2.5,Win32,12.71536652,71.875,3.6472,2.0743,NA,NA,NA,NA,NA,happy,"unhappy, happy","less happy, more happy",NA,NA,NA,NA,NA,NA,NA,NA,NA,NA,NA,NA,NA,NA,NA,NA,NA,NA,NA,NA,NA,NA,NA,NA,NA,NA,NA,NA,NA,NA,NA,NA,NA,NA,NA,NA,NA,NA,0,2,2,0,1,NA,NA,NA,NA,NA
SUPAMT79593,3LEIZ60CDPYTHMOMMNSZP9WVES69ZF,727F1450-B39B-4818-8A59-C7E5B77A378F,2023-09-26_06h40.37.967,WP_VExplicitOC_LH,2022.2.5,Win32,12.71536652,NA,NA,NA,NA,NA,NA,NA,NA,NA,NA,NA,NA,NA,NA,NA,NA,NA,NA,NA,NA,NA,NA,NA,NA,NA,NA,NA,NA,NA,NA,NA,NA,NA,NA,NA,NA,NA,NA,NA,NA,NA,NA,NA,NA,NA,NA,NA,NA,NA,NA,NA,NA,NA,NA,13,0,13,0,1
SUPAMT79593,3LEIZ60CDPYTHMOMMNSZP9WVES69ZF,727F1450-B39B-4818-8A59-C7E5B77A378F,2023-09-26_06h40.37.967,WP_VExplicitOC_LH,2022.2.5,Win32,12.71536652,56.51041667,4.2173,2.0505,NA,NA,NA,NA,NA,bored,"bored, not bored","more bored, less bored",NA,NA,NA,NA,NA,NA,NA,NA,NA,NA,NA,NA,NA,NA,NA,NA,NA,NA,NA,NA,NA,NA,NA,NA,NA,NA,NA,NA,NA,NA,NA,NA,NA,NA,NA,NA,NA,NA,0,0,0,2,1,NA,NA,NA,NA,NA
SUPAMT79593,3LEIZ60CDPYTHMOMMNSZP9WVES69ZF,727F1450-B39B-4818-8A59-C7E5B77A378F,2023-09-26_06h40.37.967,WP_VExplicitOC_LH,2022.2.5,Win32,12.71536652,58.33333333,3.1445,2.062,NA,NA,NA,NA,NA,frustrated,"frustrated, not frustrated","more frustrated, less frustrated",NA,NA,NA,NA,NA,NA,NA,NA,NA,NA,NA,NA,NA,NA,NA,NA,NA,NA,NA,NA,NA,NA,NA,NA,NA,NA,NA,NA,NA,NA,NA,NA,NA,NA,NA,NA,NA,NA,0,1,1,1,1,NA,NA,NA,NA,NA
SUPAMT79593,3LEIZ60CDPYTHMOMMNSZP9WVES69ZF,727F1450-B39B-4818-8A59-C7E5B77A378F,2023-09-26_06h40.37.967,WP_VExplicitOC_LH,2022.2.5,Win32,12.71536652,58.33333333,3.3377,2.0281,NA,NA,NA,NA,NA,happy,"unhappy, happy","less happy, more happy",NA,NA,NA,NA,NA,NA,NA,NA,NA,NA,NA,NA,NA,NA,NA,NA,NA,NA,NA,NA,NA,NA,NA,NA,NA,NA,NA,NA,NA,NA,NA,NA,NA,NA,NA,NA,NA,NA,0,2,2,0,1,NA,NA,NA,NA,NA
SUPAMT79593,3LEIZ60CDPYTHMOMMNSZP9WVES69ZF,727F1450-B39B-4818-8A59-C7E5B77A378F,2023-09-26_06h40.37.967,WP_VExplicitOC_LH,2022.2.5,Win32,12.71536652,NA,NA,NA,NA,NA,NA,NA,NA,NA,NA,NA,NA,NA,NA,NA,NA,NA,NA,NA,NA,NA,NA,NA,NA,NA,NA,NA,NA,NA,NA,NA,NA,NA,NA,NA,NA,NA,NA,NA,NA,NA,NA,NA,NA,NA,NA,NA,NA,NA,NA,NA,NA,NA,NA,14,0,14,0,1
SUPAMT79593,3LEIZ60CDPYTHMOMMNSZP9WVES69ZF,727F1450-B39B-4818-8A59-C7E5B77A378F,2023-09-26_06h40.37.967,WP_VExplicitOC_LH,2022.2.5,Win32,12.71536652,NA,NA,NA,NA,NA,NA,NA,NA,NA,NA,NA,NA,NA,NA,NA,NA,NA,NA,NA,NA,NA,NA,NA,NA,NA,NA,NA,NA,NA,NA,NA,NA,NA,NA,NA,NA,NA,NA,NA,NA,NA,NA,NA,NA,NA,NA,NA,NA,NA,NA,NA,NA,NA,NA,NA,NA,NA,NA,NA
