participant,session,completion,date,expName,psychopyVersion,OS,frameRate,rating_all.response,rating_all.rt,rating_all.tStart,rndRat1.thisRepN,rndRat1.thisTrialN,rndRat1.thisN,rndRat1.thisIndex,rndRat1.ran,Emo,Labs,Labs2,rating_alt.response,rating_alt.rt,AltC.thisRepN,AltC.thisTrialN,AltC.thisN,AltC.thisIndex,AltC.ran,alt_choices,pic_choices,TopAlt_Choice,rndRat2.thisRepN,rndRat2.thisTrialN,rndRat2.thisN,rndRat2.thisIndex,rndRat2.ran,rndRat3.thisRepN,rndRat3.thisTrialN,rndRat3.thisN,rndRat3.thisIndex,rndRat3.ran,trials_FC_H.thisRepN,trials_FC_H.thisTrialN,trials_FC_H.thisN,trials_FC_H.thisIndex,trials_FC_H.ran,rating_alt_2.response,rating_alt_2.rt,AltC2.thisRepN,AltC2.thisTrialN,AltC2.thisN,AltC2.thisIndex,AltC2.ran,BottomAlt_Choice,rndRat4.thisRepN,rndRat4.thisTrialN,rndRat4.thisN,rndRat4.thisIndex,rndRat4.ran,rndRat5.thisRepN,rndRat5.thisTrialN,rndRat5.thisN,rndRat5.thisIndex,rndRat5.ran,trials_FC_L.thisRepN,trials_FC_L.thisTrialN,trials_FC_L.thisN,trials_FC_L.thisIndex,trials_FC_L.ran
SUPAMT14876,37UQDCYH63U8UJVJ6T5CQ7STVS87VZ,61634424-5962-4447-A000-A905683758BB,2023-09-26_09h15.42.964,WP_VExplicitOC_HL,2022.2.5,Win32,6.455194495,NA,NA,NA,NA,NA,NA,NA,NA,NA,NA,NA,NA,NA,NA,NA,NA,NA,NA,NA,NA,NA,NA,NA,NA,NA,NA,NA,NA,NA,NA,NA,NA,NA,NA,NA,NA,NA,NA,NA,NA,NA,NA,NA,NA,NA,NA,NA,NA,NA,NA,NA,NA,NA,NA,NA,NA,NA,NA,NA
SUPAMT14876,37UQDCYH63U8UJVJ6T5CQ7STVS87VZ,61634424-5962-4447-A000-A905683758BB,2023-09-26_09h15.42.964,WP_VExplicitOC_HL,2022.2.5,Win32,6.455194495,NA,NA,NA,NA,NA,NA,NA,NA,NA,NA,NA,NA,NA,NA,NA,NA,NA,NA,NA,NA,NA,NA,NA,NA,NA,NA,NA,NA,NA,NA,NA,NA,NA,NA,NA,NA,NA,NA,NA,NA,NA,NA,NA,NA,NA,NA,NA,NA,NA,NA,NA,NA,NA,NA,NA,NA,NA,NA,NA
SUPAMT14876,37UQDCYH63U8UJVJ6T5CQ7STVS87VZ,61634424-5962-4447-A000-A905683758BB,2023-09-26_09h15.42.964,WP_VExplicitOC_HL,2022.2.5,Win32,6.455194495,NA,NA,NA,NA,NA,NA,NA,NA,NA,NA,NA,NA,NA,NA,NA,NA,NA,NA,NA,NA,NA,NA,NA,NA,NA,NA,NA,NA,NA,NA,NA,NA,NA,NA,NA,NA,NA,NA,NA,NA,NA,NA,NA,NA,NA,NA,NA,NA,NA,NA,NA,NA,NA,NA,NA,NA,NA,NA,NA
SUPAMT14876,37UQDCYH63U8UJVJ6T5CQ7STVS87VZ,61634424-5962-4447-A000-A905683758BB,2023-09-26_09h15.42.964,WP_VExplicitOC_HL,2022.2.5,Win32,6.455194495,NA,NA,2.2057,0,0,0,1,1,frustrated,"frustrated, not frustrated","more frustrated, less frustrated",NA,NA,NA,NA,NA,NA,NA,NA,NA,NA,NA,NA,NA,NA,NA,NA,NA,NA,NA,NA,NA,NA,NA,NA,NA,NA,NA,NA,NA,NA,NA,NA,NA,NA,NA,NA,NA,NA,NA,NA,NA,NA,NA,NA,NA,NA,NA,NA
SUPAMT14876,37UQDCYH63U8UJVJ6T5CQ7STVS87VZ,61634424-5962-4447-A000-A905683758BB,2023-09-26_09h15.42.964,WP_VExplicitOC_HL,2022.2.5,Win32,6.455194495,38.44444444,4.3076,2.0406,0,1,1,2,1,bored,"bored, not bored","more bored, less bored",NA,NA,NA,NA,NA,NA,NA,NA,NA,NA,NA,NA,NA,NA,NA,NA,NA,NA,NA,NA,NA,NA,NA,NA,NA,NA,NA,NA,NA,NA,NA,NA,NA,NA,NA,NA,NA,NA,NA,NA,NA,NA,NA,NA,NA,NA,NA,NA
SUPAMT14876,37UQDCYH63U8UJVJ6T5CQ7STVS87VZ,61634424-5962-4447-A000-A905683758BB,2023-09-26_09h15.42.964,WP_VExplicitOC_HL,2022.2.5,Win32,6.455194495,51.11111111,4.447,2.1401,0,2,2,0,1,happy,"unhappy, happy","less happy, more happy",NA,NA,NA,NA,NA,NA,NA,NA,NA,NA,NA,NA,NA,NA,NA,NA,NA,NA,NA,NA,NA,NA,NA,NA,NA,NA,NA,NA,NA,NA,NA,NA,NA,NA,NA,NA,NA,NA,NA,NA,NA,NA,NA,NA,NA,NA,NA,NA
SUPAMT14876,37UQDCYH63U8UJVJ6T5CQ7STVS87VZ,61634424-5962-4447-A000-A905683758BB,2023-09-26_09h15.42.964,WP_VExplicitOC_HL,2022.2.5,Win32,6.455194495,NA,NA,NA,NA,NA,NA,NA,NA,NA,NA,NA,NA,NA,NA,NA,NA,NA,NA,NA,NA,NA,NA,NA,NA,NA,NA,NA,NA,NA,NA,NA,NA,NA,NA,NA,NA,NA,NA,NA,NA,NA,NA,NA,NA,NA,NA,NA,NA,NA,NA,NA,NA,NA,NA,NA,NA,NA,NA,NA
SUPAMT14876,37UQDCYH63U8UJVJ6T5CQ7STVS87VZ,61634424-5962-4447-A000-A905683758BB,2023-09-26_09h15.42.964,WP_VExplicitOC_HL,2022.2.5,Win32,6.455194495,NA,NA,NA,NA,NA,NA,NA,NA,NA,NA,NA,NA,NA,NA,NA,NA,NA,NA,NA,NA,NA,NA,NA,NA,NA,NA,NA,NA,NA,NA,NA,NA,NA,NA,NA,NA,NA,NA,NA,NA,NA,NA,NA,NA,NA,NA,NA,NA,NA,NA,NA,NA,NA,NA,NA,NA,NA,NA,NA
SUPAMT14876,37UQDCYH63U8UJVJ6T5CQ7STVS87VZ,61634424-5962-4447-A000-A905683758BB,2023-09-26_09h15.42.964,WP_VExplicitOC_HL,2022.2.5,Win32,6.455194495,NA,NA,NA,NA,NA,NA,NA,NA,NA,NA,NA,NA,NA,NA,NA,NA,NA,NA,NA,NA,NA,NA,NA,NA,NA,NA,NA,NA,NA,NA,NA,NA,NA,NA,NA,NA,NA,NA,NA,NA,NA,NA,NA,NA,NA,NA,NA,NA,NA,NA,NA,NA,NA,NA,NA,NA,NA,NA,NA
SUPAMT14876,37UQDCYH63U8UJVJ6T5CQ7STVS87VZ,61634424-5962-4447-A000-A905683758BB,2023-09-26_09h15.42.964,WP_VExplicitOC_HL,2022.2.5,Win32,6.455194495,NA,NA,NA,NA,NA,NA,NA,NA,NA,NA,NA,NA,NA,NA,NA,NA,NA,NA,NA,NA,NA,NA,NA,NA,NA,NA,NA,NA,NA,NA,NA,NA,NA,NA,NA,NA,NA,NA,NA,NA,NA,NA,NA,NA,NA,NA,NA,NA,NA,NA,NA,NA,NA,NA,NA,NA,NA,NA,NA
SUPAMT14876,37UQDCYH63U8UJVJ6T5CQ7STVS87VZ,61634424-5962-4447-A000-A905683758BB,2023-09-26_09h15.42.964,WP_VExplicitOC_HL,2022.2.5,Win32,6.455194495,NA,NA,NA,NA,NA,NA,NA,NA,NA,NA,NA,52,2.7035,0,0,0,0,1,rest (looking at a fixed cross),001.png,NA,NA,NA,NA,NA,NA,NA,NA,NA,NA,NA,NA,NA,NA,NA,NA,NA,NA,NA,NA,NA,NA,NA,NA,NA,NA,NA,NA,NA,NA,NA,NA,NA,NA,NA,NA,NA,NA,NA
SUPAMT14876,37UQDCYH63U8UJVJ6T5CQ7STVS87VZ,61634424-5962-4447-A000-A905683758BB,2023-09-26_09h15.42.964,WP_VExplicitOC_HL,2022.2.5,Win32,6.455194495,NA,NA,NA,NA,NA,NA,NA,NA,NA,NA,NA,54.66666667,0.8348,0,1,1,1,1,stand up,002.png,NA,NA,NA,NA,NA,NA,NA,NA,NA,NA,NA,NA,NA,NA,NA,NA,NA,NA,NA,NA,NA,NA,NA,NA,NA,NA,NA,NA,NA,NA,NA,NA,NA,NA,NA,NA,NA,NA,NA
SUPAMT14876,37UQDCYH63U8UJVJ6T5CQ7STVS87VZ,61634424-5962-4447-A000-A905683758BB,2023-09-26_09h15.42.964,WP_VExplicitOC_HL,2022.2.5,Win32,6.455194495,NA,NA,NA,NA,NA,NA,NA,NA,NA,NA,NA,54.66666667,0.5739,0,2,2,2,1,stretch,003.png,NA,NA,NA,NA,NA,NA,NA,NA,NA,NA,NA,NA,NA,NA,NA,NA,NA,NA,NA,NA,NA,NA,NA,NA,NA,NA,NA,NA,NA,NA,NA,NA,NA,NA,NA,NA,NA,NA,NA
SUPAMT14876,37UQDCYH63U8UJVJ6T5CQ7STVS87VZ,61634424-5962-4447-A000-A905683758BB,2023-09-26_09h15.42.964,WP_VExplicitOC_HL,2022.2.5,Win32,6.455194495,NA,NA,NA,NA,NA,NA,NA,NA,NA,NA,NA,54.66666667,0.406,0,3,3,3,1,make a drink,004.png,NA,NA,NA,NA,NA,NA,NA,NA,NA,NA,NA,NA,NA,NA,NA,NA,NA,NA,NA,NA,NA,NA,NA,NA,NA,NA,NA,NA,NA,NA,NA,NA,NA,NA,NA,NA,NA,NA,NA
SUPAMT14876,37UQDCYH63U8UJVJ6T5CQ7STVS87VZ,61634424-5962-4447-A000-A905683758BB,2023-09-26_09h15.42.964,WP_VExplicitOC_HL,2022.2.5,Win32,6.455194495,NA,NA,NA,NA,NA,NA,NA,NA,NA,NA,NA,54.66666667,0.2387,0,4,4,4,1,scroll social media,005.png,NA,NA,NA,NA,NA,NA,NA,NA,NA,NA,NA,NA,NA,NA,NA,NA,NA,NA,NA,NA,NA,NA,NA,NA,NA,NA,NA,NA,NA,NA,NA,NA,NA,NA,NA,NA,NA,NA,NA
SUPAMT14876,37UQDCYH63U8UJVJ6T5CQ7STVS87VZ,61634424-5962-4447-A000-A905683758BB,2023-09-26_09h15.42.964,WP_VExplicitOC_HL,2022.2.5,Win32,6.455194495,NA,NA,NA,NA,NA,NA,NA,NA,NA,NA,NA,54.66666667,0.3079,0,5,5,5,1,listen to music,006.png,NA,NA,NA,NA,NA,NA,NA,NA,NA,NA,NA,NA,NA,NA,NA,NA,NA,NA,NA,NA,NA,NA,NA,NA,NA,NA,NA,NA,NA,NA,NA,NA,NA,NA,NA,NA,NA,NA,NA
SUPAMT14876,37UQDCYH63U8UJVJ6T5CQ7STVS87VZ,61634424-5962-4447-A000-A905683758BB,2023-09-26_09h15.42.964,WP_VExplicitOC_HL,2022.2.5,Win32,6.455194495,NA,NA,NA,NA,NA,NA,NA,NA,NA,NA,NA,54.66666667,0.3063,0,6,6,6,1,daydream,007.png,NA,NA,NA,NA,NA,NA,NA,NA,NA,NA,NA,NA,NA,NA,NA,NA,NA,NA,NA,NA,NA,NA,NA,NA,NA,NA,NA,NA,NA,NA,NA,NA,NA,NA,NA,NA,NA,NA,NA
SUPAMT14876,37UQDCYH63U8UJVJ6T5CQ7STVS87VZ,61634424-5962-4447-A000-A905683758BB,2023-09-26_09h15.42.964,WP_VExplicitOC_HL,2022.2.5,Win32,6.455194495,NA,NA,NA,NA,NA,NA,NA,NA,NA,NA,NA,54.66666667,0.5135,0,7,7,7,1,watch a short animation,008.png,NA,NA,NA,NA,NA,NA,NA,NA,NA,NA,NA,NA,NA,NA,NA,NA,NA,NA,NA,NA,NA,NA,NA,NA,NA,NA,NA,NA,NA,NA,NA,NA,NA,NA,NA,NA,NA,NA,NA
SUPAMT14876,37UQDCYH63U8UJVJ6T5CQ7STVS87VZ,61634424-5962-4447-A000-A905683758BB,2023-09-26_09h15.42.964,WP_VExplicitOC_HL,2022.2.5,Win32,6.455194495,NA,NA,NA,NA,NA,NA,NA,NA,NA,NA,NA,54.66666667,0.433,0,8,8,8,1,read a novel,009.png,NA,NA,NA,NA,NA,NA,NA,NA,NA,NA,NA,NA,NA,NA,NA,NA,NA,NA,NA,NA,NA,NA,NA,NA,NA,NA,NA,NA,NA,NA,NA,NA,NA,NA,NA,NA,NA,NA,NA
SUPAMT14876,37UQDCYH63U8UJVJ6T5CQ7STVS87VZ,61634424-5962-4447-A000-A905683758BB,2023-09-26_09h15.42.964,WP_VExplicitOC_HL,2022.2.5,Win32,6.455194495,NA,NA,NA,NA,NA,NA,NA,NA,NA,NA,NA,54.66666667,0.2361,0,9,9,9,1,read the news,010.png,NA,NA,NA,NA,NA,NA,NA,NA,NA,NA,NA,NA,NA,NA,NA,NA,NA,NA,NA,NA,NA,NA,NA,NA,NA,NA,NA,NA,NA,NA,NA,NA,NA,NA,NA,NA,NA,NA,NA
SUPAMT14876,37UQDCYH63U8UJVJ6T5CQ7STVS87VZ,61634424-5962-4447-A000-A905683758BB,2023-09-26_09h15.42.964,WP_VExplicitOC_HL,2022.2.5,Win32,6.455194495,NA,NA,NA,NA,NA,NA,NA,NA,NA,NA,NA,NA,NA,NA,NA,NA,NA,NA,NA,NA,NA,NA,NA,NA,NA,NA,NA,NA,NA,NA,NA,NA,NA,NA,NA,NA,NA,NA,NA,NA,NA,NA,NA,NA,NA,NA,NA,NA,NA,NA,NA,NA,NA,NA,NA,NA,NA,NA,NA
SUPAMT14876,37UQDCYH63U8UJVJ6T5CQ7STVS87VZ,61634424-5962-4447-A000-A905683758BB,2023-09-26_09h15.42.964,WP_VExplicitOC_HL,2022.2.5,Win32,6.455194495,NA,NA,NA,NA,NA,NA,NA,NA,NA,NA,NA,NA,NA,NA,NA,NA,NA,NA,NA,NA,stand up,NA,NA,NA,NA,NA,NA,NA,NA,NA,NA,NA,NA,NA,NA,NA,NA,NA,NA,NA,NA,NA,NA,NA,NA,NA,NA,NA,NA,NA,NA,NA,NA,NA,NA,NA,NA,NA,NA
SUPAMT14876,37UQDCYH63U8UJVJ6T5CQ7STVS87VZ,61634424-5962-4447-A000-A905683758BB,2023-09-26_09h15.42.964,WP_VExplicitOC_HL,2022.2.5,Win32,6.455194495,51.77777778,6.5824,2.2057,NA,NA,NA,NA,NA,happy,"unhappy, happy","less happy, more happy",NA,NA,NA,NA,NA,NA,NA,NA,NA,NA,0,0,0,0,1,NA,NA,NA,NA,NA,NA,NA,NA,NA,NA,NA,NA,NA,NA,NA,NA,NA,NA,NA,NA,NA,NA,NA,NA,NA,NA,NA,NA,NA,NA,NA,NA,NA
SUPAMT14876,37UQDCYH63U8UJVJ6T5CQ7STVS87VZ,61634424-5962-4447-A000-A905683758BB,2023-09-26_09h15.42.964,WP_VExplicitOC_HL,2022.2.5,Win32,6.455194495,NA,NA,2.1233,NA,NA,NA,NA,NA,frustrated,"frustrated, not frustrated","more frustrated, less frustrated",NA,NA,NA,NA,NA,NA,NA,NA,NA,NA,0,1,1,1,1,NA,NA,NA,NA,NA,NA,NA,NA,NA,NA,NA,NA,NA,NA,NA,NA,NA,NA,NA,NA,NA,NA,NA,NA,NA,NA,NA,NA,NA,NA,NA,NA,NA
SUPAMT14876,37UQDCYH63U8UJVJ6T5CQ7STVS87VZ,61634424-5962-4447-A000-A905683758BB,2023-09-26_09h15.42.964,WP_VExplicitOC_HL,2022.2.5,Win32,6.455194495,54.88888889,4.8009,2.2692,NA,NA,NA,NA,NA,bored,"bored, not bored","more bored, less bored",NA,NA,NA,NA,NA,NA,NA,NA,NA,NA,0,2,2,2,1,NA,NA,NA,NA,NA,NA,NA,NA,NA,NA,NA,NA,NA,NA,NA,NA,NA,NA,NA,NA,NA,NA,NA,NA,NA,NA,NA,NA,NA,NA,NA,NA,NA
SUPAMT14876,37UQDCYH63U8UJVJ6T5CQ7STVS87VZ,61634424-5962-4447-A000-A905683758BB,2023-09-26_09h15.42.964,WP_VExplicitOC_HL,2022.2.5,Win32,6.455194495,NA,NA,NA,NA,NA,NA,NA,NA,NA,NA,NA,NA,NA,NA,NA,NA,NA,NA,NA,NA,NA,NA,NA,NA,NA,NA,NA,NA,NA,NA,NA,NA,NA,NA,NA,NA,NA,NA,NA,NA,NA,NA,NA,NA,NA,NA,NA,NA,NA,NA,NA,NA,NA,NA,NA,NA,NA,NA,NA
SUPAMT14876,37UQDCYH63U8UJVJ6T5CQ7STVS87VZ,61634424-5962-4447-A000-A905683758BB,2023-09-26_09h15.42.964,WP_VExplicitOC_HL,2022.2.5,Win32,6.455194495,NA,NA,NA,NA,NA,NA,NA,NA,NA,NA,NA,NA,NA,NA,NA,NA,NA,NA,NA,NA,NA,NA,NA,NA,NA,NA,NA,NA,NA,NA,NA,NA,NA,NA,NA,NA,NA,NA,NA,NA,NA,NA,NA,NA,NA,NA,NA,NA,NA,NA,NA,NA,NA,NA,NA,NA,NA,NA,NA
SUPAMT14876,37UQDCYH63U8UJVJ6T5CQ7STVS87VZ,61634424-5962-4447-A000-A905683758BB,2023-09-26_09h15.42.964,WP_VExplicitOC_HL,2022.2.5,Win32,6.455194495,66,3.8681,2.1588,NA,NA,NA,NA,NA,happy,"unhappy, happy","less happy, more happy",NA,NA,NA,NA,NA,NA,NA,NA,NA,NA,NA,NA,NA,NA,NA,0,0,0,0,1,NA,NA,NA,NA,NA,NA,NA,NA,NA,NA,NA,NA,NA,NA,NA,NA,NA,NA,NA,NA,NA,NA,NA,NA,NA,NA,NA,NA
SUPAMT14876,37UQDCYH63U8UJVJ6T5CQ7STVS87VZ,61634424-5962-4447-A000-A905683758BB,2023-09-26_09h15.42.964,WP_VExplicitOC_HL,2022.2.5,Win32,6.455194495,66,3.5317,2.2121,NA,NA,NA,NA,NA,bored,"bored, not bored","more bored, less bored",NA,NA,NA,NA,NA,NA,NA,NA,NA,NA,NA,NA,NA,NA,NA,0,1,1,2,1,NA,NA,NA,NA,NA,NA,NA,NA,NA,NA,NA,NA,NA,NA,NA,NA,NA,NA,NA,NA,NA,NA,NA,NA,NA,NA,NA,NA
SUPAMT14876,37UQDCYH63U8UJVJ6T5CQ7STVS87VZ,61634424-5962-4447-A000-A905683758BB,2023-09-26_09h15.42.964,WP_VExplicitOC_HL,2022.2.5,Win32,6.455194495,66,3.7703,2.0331,NA,NA,NA,NA,NA,frustrated,"frustrated, not frustrated","more frustrated, less frustrated",NA,NA,NA,NA,NA,NA,NA,NA,NA,NA,NA,NA,NA,NA,NA,0,2,2,1,1,NA,NA,NA,NA,NA,NA,NA,NA,NA,NA,NA,NA,NA,NA,NA,NA,NA,NA,NA,NA,NA,NA,NA,NA,NA,NA,NA,NA
SUPAMT14876,37UQDCYH63U8UJVJ6T5CQ7STVS87VZ,61634424-5962-4447-A000-A905683758BB,2023-09-26_09h15.42.964,WP_VExplicitOC_HL,2022.2.5,Win32,6.455194495,NA,NA,NA,NA,NA,NA,NA,NA,NA,NA,NA,NA,NA,NA,NA,NA,NA,NA,NA,NA,NA,NA,NA,NA,NA,NA,NA,NA,NA,NA,NA,0,0,0,0,1,NA,NA,NA,NA,NA,NA,NA,NA,NA,NA,NA,NA,NA,NA,NA,NA,NA,NA,NA,NA,NA,NA,NA
SUPAMT14876,37UQDCYH63U8UJVJ6T5CQ7STVS87VZ,61634424-5962-4447-A000-A905683758BB,2023-09-26_09h15.42.964,WP_VExplicitOC_HL,2022.2.5,Win32,6.455194495,NA,NA,2.2674,NA,NA,NA,NA,NA,happy,"unhappy, happy","less happy, more happy",NA,NA,NA,NA,NA,NA,NA,NA,NA,NA,NA,NA,NA,NA,NA,0,0,0,0,1,NA,NA,NA,NA,NA,NA,NA,NA,NA,NA,NA,NA,NA,NA,NA,NA,NA,NA,NA,NA,NA,NA,NA,NA,NA,NA,NA,NA
SUPAMT14876,37UQDCYH63U8UJVJ6T5CQ7STVS87VZ,61634424-5962-4447-A000-A905683758BB,2023-09-26_09h15.42.964,WP_VExplicitOC_HL,2022.2.5,Win32,6.455194495,59.11111111,4.3941,2.113,NA,NA,NA,NA,NA,bored,"bored, not bored","more bored, less bored",NA,NA,NA,NA,NA,NA,NA,NA,NA,NA,NA,NA,NA,NA,NA,0,1,1,2,1,NA,NA,NA,NA,NA,NA,NA,NA,NA,NA,NA,NA,NA,NA,NA,NA,NA,NA,NA,NA,NA,NA,NA,NA,NA,NA,NA,NA
SUPAMT14876,37UQDCYH63U8UJVJ6T5CQ7STVS87VZ,61634424-5962-4447-A000-A905683758BB,2023-09-26_09h15.42.964,WP_VExplicitOC_HL,2022.2.5,Win32,6.455194495,53.33333333,5.4699,2.0769,NA,NA,NA,NA,NA,frustrated,"frustrated, not frustrated","more frustrated, less frustrated",NA,NA,NA,NA,NA,NA,NA,NA,NA,NA,NA,NA,NA,NA,NA,0,2,2,1,1,NA,NA,NA,NA,NA,NA,NA,NA,NA,NA,NA,NA,NA,NA,NA,NA,NA,NA,NA,NA,NA,NA,NA,NA,NA,NA,NA,NA
SUPAMT14876,37UQDCYH63U8UJVJ6T5CQ7STVS87VZ,61634424-5962-4447-A000-A905683758BB,2023-09-26_09h15.42.964,WP_VExplicitOC_HL,2022.2.5,Win32,6.455194495,NA,NA,NA,NA,NA,NA,NA,NA,NA,NA,NA,NA,NA,NA,NA,NA,NA,NA,NA,NA,NA,NA,NA,NA,NA,NA,NA,NA,NA,NA,NA,1,0,1,0,1,NA,NA,NA,NA,NA,NA,NA,NA,NA,NA,NA,NA,NA,NA,NA,NA,NA,NA,NA,NA,NA,NA,NA
SUPAMT14876,37UQDCYH63U8UJVJ6T5CQ7STVS87VZ,61634424-5962-4447-A000-A905683758BB,2023-09-26_09h15.42.964,WP_VExplicitOC_HL,2022.2.5,Win32,6.455194495,53.33333333,6.791,2.0622,NA,NA,NA,NA,NA,frustrated,"frustrated, not frustrated","more frustrated, less frustrated",NA,NA,NA,NA,NA,NA,NA,NA,NA,NA,NA,NA,NA,NA,NA,0,0,0,1,1,NA,NA,NA,NA,NA,NA,NA,NA,NA,NA,NA,NA,NA,NA,NA,NA,NA,NA,NA,NA,NA,NA,NA,NA,NA,NA,NA,NA
SUPAMT14876,37UQDCYH63U8UJVJ6T5CQ7STVS87VZ,61634424-5962-4447-A000-A905683758BB,2023-09-26_09h15.42.964,WP_VExplicitOC_HL,2022.2.5,Win32,6.455194495,63.11111111,4.3207,2.0943,NA,NA,NA,NA,NA,happy,"unhappy, happy","less happy, more happy",NA,NA,NA,NA,NA,NA,NA,NA,NA,NA,NA,NA,NA,NA,NA,0,1,1,0,1,NA,NA,NA,NA,NA,NA,NA,NA,NA,NA,NA,NA,NA,NA,NA,NA,NA,NA,NA,NA,NA,NA,NA,NA,NA,NA,NA,NA
SUPAMT14876,37UQDCYH63U8UJVJ6T5CQ7STVS87VZ,61634424-5962-4447-A000-A905683758BB,2023-09-26_09h15.42.964,WP_VExplicitOC_HL,2022.2.5,Win32,6.455194495,53.77777778,4.3038,2.0032,NA,NA,NA,NA,NA,bored,"bored, not bored","more bored, less bored",NA,NA,NA,NA,NA,NA,NA,NA,NA,NA,NA,NA,NA,NA,NA,0,2,2,2,1,NA,NA,NA,NA,NA,NA,NA,NA,NA,NA,NA,NA,NA,NA,NA,NA,NA,NA,NA,NA,NA,NA,NA,NA,NA,NA,NA,NA
SUPAMT14876,37UQDCYH63U8UJVJ6T5CQ7STVS87VZ,61634424-5962-4447-A000-A905683758BB,2023-09-26_09h15.42.964,WP_VExplicitOC_HL,2022.2.5,Win32,6.455194495,NA,NA,NA,NA,NA,NA,NA,NA,NA,NA,NA,NA,NA,NA,NA,NA,NA,NA,NA,NA,NA,NA,NA,NA,NA,NA,NA,NA,NA,NA,NA,2,0,2,0,1,NA,NA,NA,NA,NA,NA,NA,NA,NA,NA,NA,NA,NA,NA,NA,NA,NA,NA,NA,NA,NA,NA,NA
SUPAMT14876,37UQDCYH63U8UJVJ6T5CQ7STVS87VZ,61634424-5962-4447-A000-A905683758BB,2023-09-26_09h15.42.964,WP_VExplicitOC_HL,2022.2.5,Win32,6.455194495,59.11111111,5.1504,2.134,NA,NA,NA,NA,NA,frustrated,"frustrated, not frustrated","more frustrated, less frustrated",NA,NA,NA,NA,NA,NA,NA,NA,NA,NA,NA,NA,NA,NA,NA,0,0,0,1,1,NA,NA,NA,NA,NA,NA,NA,NA,NA,NA,NA,NA,NA,NA,NA,NA,NA,NA,NA,NA,NA,NA,NA,NA,NA,NA,NA,NA
SUPAMT14876,37UQDCYH63U8UJVJ6T5CQ7STVS87VZ,61634424-5962-4447-A000-A905683758BB,2023-09-26_09h15.42.964,WP_VExplicitOC_HL,2022.2.5,Win32,6.455194495,59.11111111,3.3597,2.0039,NA,NA,NA,NA,NA,happy,"unhappy, happy","less happy, more happy",NA,NA,NA,NA,NA,NA,NA,NA,NA,NA,NA,NA,NA,NA,NA,0,1,1,0,1,NA,NA,NA,NA,NA,NA,NA,NA,NA,NA,NA,NA,NA,NA,NA,NA,NA,NA,NA,NA,NA,NA,NA,NA,NA,NA,NA,NA
SUPAMT14876,37UQDCYH63U8UJVJ6T5CQ7STVS87VZ,61634424-5962-4447-A000-A905683758BB,2023-09-26_09h15.42.964,WP_VExplicitOC_HL,2022.2.5,Win32,6.455194495,59.11111111,3.5927,2.1822,NA,NA,NA,NA,NA,bored,"bored, not bored","more bored, less bored",NA,NA,NA,NA,NA,NA,NA,NA,NA,NA,NA,NA,NA,NA,NA,0,2,2,2,1,NA,NA,NA,NA,NA,NA,NA,NA,NA,NA,NA,NA,NA,NA,NA,NA,NA,NA,NA,NA,NA,NA,NA,NA,NA,NA,NA,NA
SUPAMT14876,37UQDCYH63U8UJVJ6T5CQ7STVS87VZ,61634424-5962-4447-A000-A905683758BB,2023-09-26_09h15.42.964,WP_VExplicitOC_HL,2022.2.5,Win32,6.455194495,NA,NA,NA,NA,NA,NA,NA,NA,NA,NA,NA,NA,NA,NA,NA,NA,NA,NA,NA,NA,NA,NA,NA,NA,NA,NA,NA,NA,NA,NA,NA,3,0,3,0,1,NA,NA,NA,NA,NA,NA,NA,NA,NA,NA,NA,NA,NA,NA,NA,NA,NA,NA,NA,NA,NA,NA,NA
SUPAMT14876,37UQDCYH63U8UJVJ6T5CQ7STVS87VZ,61634424-5962-4447-A000-A905683758BB,2023-09-26_09h15.42.964,WP_VExplicitOC_HL,2022.2.5,Win32,6.455194495,50.66666667,3.849,2.0971,NA,NA,NA,NA,NA,happy,"unhappy, happy","less happy, more happy",NA,NA,NA,NA,NA,NA,NA,NA,NA,NA,NA,NA,NA,NA,NA,0,0,0,0,1,NA,NA,NA,NA,NA,NA,NA,NA,NA,NA,NA,NA,NA,NA,NA,NA,NA,NA,NA,NA,NA,NA,NA,NA,NA,NA,NA,NA
SUPAMT14876,37UQDCYH63U8UJVJ6T5CQ7STVS87VZ,61634424-5962-4447-A000-A905683758BB,2023-09-26_09h15.42.964,WP_VExplicitOC_HL,2022.2.5,Win32,6.455194495,NA,NA,2.1324,NA,NA,NA,NA,NA,frustrated,"frustrated, not frustrated","more frustrated, less frustrated",NA,NA,NA,NA,NA,NA,NA,NA,NA,NA,NA,NA,NA,NA,NA,0,1,1,1,1,NA,NA,NA,NA,NA,NA,NA,NA,NA,NA,NA,NA,NA,NA,NA,NA,NA,NA,NA,NA,NA,NA,NA,NA,NA,NA,NA,NA
SUPAMT14876,37UQDCYH63U8UJVJ6T5CQ7STVS87VZ,61634424-5962-4447-A000-A905683758BB,2023-09-26_09h15.42.964,WP_VExplicitOC_HL,2022.2.5,Win32,6.455194495,63.33333333,5.7413,2.0433,NA,NA,NA,NA,NA,bored,"bored, not bored","more bored, less bored",NA,NA,NA,NA,NA,NA,NA,NA,NA,NA,NA,NA,NA,NA,NA,0,2,2,2,1,NA,NA,NA,NA,NA,NA,NA,NA,NA,NA,NA,NA,NA,NA,NA,NA,NA,NA,NA,NA,NA,NA,NA,NA,NA,NA,NA,NA
SUPAMT14876,37UQDCYH63U8UJVJ6T5CQ7STVS87VZ,61634424-5962-4447-A000-A905683758BB,2023-09-26_09h15.42.964,WP_VExplicitOC_HL,2022.2.5,Win32,6.455194495,NA,NA,NA,NA,NA,NA,NA,NA,NA,NA,NA,NA,NA,NA,NA,NA,NA,NA,NA,NA,NA,NA,NA,NA,NA,NA,NA,NA,NA,NA,NA,4,0,4,0,1,NA,NA,NA,NA,NA,NA,NA,NA,NA,NA,NA,NA,NA,NA,NA,NA,NA,NA,NA,NA,NA,NA,NA
SUPAMT14876,37UQDCYH63U8UJVJ6T5CQ7STVS87VZ,61634424-5962-4447-A000-A905683758BB,2023-09-26_09h15.42.964,WP_VExplicitOC_HL,2022.2.5,Win32,6.455194495,55.11111111,6.5717,2.0813,NA,NA,NA,NA,NA,frustrated,"frustrated, not frustrated","more frustrated, less frustrated",NA,NA,NA,NA,NA,NA,NA,NA,NA,NA,NA,NA,NA,NA,NA,0,0,0,1,1,NA,NA,NA,NA,NA,NA,NA,NA,NA,NA,NA,NA,NA,NA,NA,NA,NA,NA,NA,NA,NA,NA,NA,NA,NA,NA,NA,NA
SUPAMT14876,37UQDCYH63U8UJVJ6T5CQ7STVS87VZ,61634424-5962-4447-A000-A905683758BB,2023-09-26_09h15.42.964,WP_VExplicitOC_HL,2022.2.5,Win32,6.455194495,68.22222222,3.4938,2.0042,NA,NA,NA,NA,NA,bored,"bored, not bored","more bored, less bored",NA,NA,NA,NA,NA,NA,NA,NA,NA,NA,NA,NA,NA,NA,NA,0,1,1,2,1,NA,NA,NA,NA,NA,NA,NA,NA,NA,NA,NA,NA,NA,NA,NA,NA,NA,NA,NA,NA,NA,NA,NA,NA,NA,NA,NA,NA
SUPAMT14876,37UQDCYH63U8UJVJ6T5CQ7STVS87VZ,61634424-5962-4447-A000-A905683758BB,2023-09-26_09h15.42.964,WP_VExplicitOC_HL,2022.2.5,Win32,6.455194495,68.22222222,3.6752,2.0026,NA,NA,NA,NA,NA,happy,"unhappy, happy","less happy, more happy",NA,NA,NA,NA,NA,NA,NA,NA,NA,NA,NA,NA,NA,NA,NA,0,2,2,0,1,NA,NA,NA,NA,NA,NA,NA,NA,NA,NA,NA,NA,NA,NA,NA,NA,NA,NA,NA,NA,NA,NA,NA,NA,NA,NA,NA,NA
SUPAMT14876,37UQDCYH63U8UJVJ6T5CQ7STVS87VZ,61634424-5962-4447-A000-A905683758BB,2023-09-26_09h15.42.964,WP_VExplicitOC_HL,2022.2.5,Win32,6.455194495,NA,NA,NA,NA,NA,NA,NA,NA,NA,NA,NA,NA,NA,NA,NA,NA,NA,NA,NA,NA,NA,NA,NA,NA,NA,NA,NA,NA,NA,NA,NA,5,0,5,0,1,NA,NA,NA,NA,NA,NA,NA,NA,NA,NA,NA,NA,NA,NA,NA,NA,NA,NA,NA,NA,NA,NA,NA
SUPAMT14876,37UQDCYH63U8UJVJ6T5CQ7STVS87VZ,61634424-5962-4447-A000-A905683758BB,2023-09-26_09h15.42.964,WP_VExplicitOC_HL,2022.2.5,Win32,6.455194495,54,5.1083,2.1392,NA,NA,NA,NA,NA,bored,"bored, not bored","more bored, less bored",NA,NA,NA,NA,NA,NA,NA,NA,NA,NA,NA,NA,NA,NA,NA,0,0,0,2,1,NA,NA,NA,NA,NA,NA,NA,NA,NA,NA,NA,NA,NA,NA,NA,NA,NA,NA,NA,NA,NA,NA,NA,NA,NA,NA,NA,NA
SUPAMT14876,37UQDCYH63U8UJVJ6T5CQ7STVS87VZ,61634424-5962-4447-A000-A905683758BB,2023-09-26_09h15.42.964,WP_VExplicitOC_HL,2022.2.5,Win32,6.455194495,53.55555556,7.0009,2.0589,NA,NA,NA,NA,NA,frustrated,"frustrated, not frustrated","more frustrated, less frustrated",NA,NA,NA,NA,NA,NA,NA,NA,NA,NA,NA,NA,NA,NA,NA,0,1,1,1,1,NA,NA,NA,NA,NA,NA,NA,NA,NA,NA,NA,NA,NA,NA,NA,NA,NA,NA,NA,NA,NA,NA,NA,NA,NA,NA,NA,NA
SUPAMT14876,37UQDCYH63U8UJVJ6T5CQ7STVS87VZ,61634424-5962-4447-A000-A905683758BB,2023-09-26_09h15.42.964,WP_VExplicitOC_HL,2022.2.5,Win32,6.455194495,56,5.3965,2.1562,NA,NA,NA,NA,NA,happy,"unhappy, happy","less happy, more happy",NA,NA,NA,NA,NA,NA,NA,NA,NA,NA,NA,NA,NA,NA,NA,0,2,2,0,1,NA,NA,NA,NA,NA,NA,NA,NA,NA,NA,NA,NA,NA,NA,NA,NA,NA,NA,NA,NA,NA,NA,NA,NA,NA,NA,NA,NA
SUPAMT14876,37UQDCYH63U8UJVJ6T5CQ7STVS87VZ,61634424-5962-4447-A000-A905683758BB,2023-09-26_09h15.42.964,WP_VExplicitOC_HL,2022.2.5,Win32,6.455194495,NA,NA,NA,NA,NA,NA,NA,NA,NA,NA,NA,NA,NA,NA,NA,NA,NA,NA,NA,NA,NA,NA,NA,NA,NA,NA,NA,NA,NA,NA,NA,6,0,6,0,1,NA,NA,NA,NA,NA,NA,NA,NA,NA,NA,NA,NA,NA,NA,NA,NA,NA,NA,NA,NA,NA,NA,NA
SUPAMT14876,37UQDCYH63U8UJVJ6T5CQ7STVS87VZ,61634424-5962-4447-A000-A905683758BB,2023-09-26_09h15.42.964,WP_VExplicitOC_HL,2022.2.5,Win32,6.455194495,62.22222222,5.0515,2.2381,NA,NA,NA,NA,NA,bored,"bored, not bored","more bored, less bored",NA,NA,NA,NA,NA,NA,NA,NA,NA,NA,NA,NA,NA,NA,NA,0,0,0,2,1,NA,NA,NA,NA,NA,NA,NA,NA,NA,NA,NA,NA,NA,NA,NA,NA,NA,NA,NA,NA,NA,NA,NA,NA,NA,NA,NA,NA
SUPAMT14876,37UQDCYH63U8UJVJ6T5CQ7STVS87VZ,61634424-5962-4447-A000-A905683758BB,2023-09-26_09h15.42.964,WP_VExplicitOC_HL,2022.2.5,Win32,6.455194495,62.22222222,3.6142,2.1425,NA,NA,NA,NA,NA,frustrated,"frustrated, not frustrated","more frustrated, less frustrated",NA,NA,NA,NA,NA,NA,NA,NA,NA,NA,NA,NA,NA,NA,NA,0,1,1,1,1,NA,NA,NA,NA,NA,NA,NA,NA,NA,NA,NA,NA,NA,NA,NA,NA,NA,NA,NA,NA,NA,NA,NA,NA,NA,NA,NA,NA
SUPAMT14876,37UQDCYH63U8UJVJ6T5CQ7STVS87VZ,61634424-5962-4447-A000-A905683758BB,2023-09-26_09h15.42.964,WP_VExplicitOC_HL,2022.2.5,Win32,6.455194495,48.44444444,4.2807,2.0114,NA,NA,NA,NA,NA,happy,"unhappy, happy","less happy, more happy",NA,NA,NA,NA,NA,NA,NA,NA,NA,NA,NA,NA,NA,NA,NA,0,2,2,0,1,NA,NA,NA,NA,NA,NA,NA,NA,NA,NA,NA,NA,NA,NA,NA,NA,NA,NA,NA,NA,NA,NA,NA,NA,NA,NA,NA,NA
SUPAMT14876,37UQDCYH63U8UJVJ6T5CQ7STVS87VZ,61634424-5962-4447-A000-A905683758BB,2023-09-26_09h15.42.964,WP_VExplicitOC_HL,2022.2.5,Win32,6.455194495,NA,NA,NA,NA,NA,NA,NA,NA,NA,NA,NA,NA,NA,NA,NA,NA,NA,NA,NA,NA,NA,NA,NA,NA,NA,NA,NA,NA,NA,NA,NA,7,0,7,0,1,NA,NA,NA,NA,NA,NA,NA,NA,NA,NA,NA,NA,NA,NA,NA,NA,NA,NA,NA,NA,NA,NA,NA
SUPAMT14876,37UQDCYH63U8UJVJ6T5CQ7STVS87VZ,61634424-5962-4447-A000-A905683758BB,2023-09-26_09h15.42.964,WP_VExplicitOC_HL,2022.2.5,Win32,6.455194495,57.77777778,4.6025,2.2998,NA,NA,NA,NA,NA,happy,"unhappy, happy","less happy, more happy",NA,NA,NA,NA,NA,NA,NA,NA,NA,NA,NA,NA,NA,NA,NA,0,0,0,0,1,NA,NA,NA,NA,NA,NA,NA,NA,NA,NA,NA,NA,NA,NA,NA,NA,NA,NA,NA,NA,NA,NA,NA,NA,NA,NA,NA,NA
SUPAMT14876,37UQDCYH63U8UJVJ6T5CQ7STVS87VZ,61634424-5962-4447-A000-A905683758BB,2023-09-26_09h15.42.964,WP_VExplicitOC_HL,2022.2.5,Win32,6.455194495,74.88888889,4.2792,2.0109,NA,NA,NA,NA,NA,bored,"bored, not bored","more bored, less bored",NA,NA,NA,NA,NA,NA,NA,NA,NA,NA,NA,NA,NA,NA,NA,0,1,1,2,1,NA,NA,NA,NA,NA,NA,NA,NA,NA,NA,NA,NA,NA,NA,NA,NA,NA,NA,NA,NA,NA,NA,NA,NA,NA,NA,NA,NA
SUPAMT14876,37UQDCYH63U8UJVJ6T5CQ7STVS87VZ,61634424-5962-4447-A000-A905683758BB,2023-09-26_09h15.42.964,WP_VExplicitOC_HL,2022.2.5,Win32,6.455194495,74.88888889,4.9479,2.1594,NA,NA,NA,NA,NA,frustrated,"frustrated, not frustrated","more frustrated, less frustrated",NA,NA,NA,NA,NA,NA,NA,NA,NA,NA,NA,NA,NA,NA,NA,0,2,2,1,1,NA,NA,NA,NA,NA,NA,NA,NA,NA,NA,NA,NA,NA,NA,NA,NA,NA,NA,NA,NA,NA,NA,NA,NA,NA,NA,NA,NA
SUPAMT14876,37UQDCYH63U8UJVJ6T5CQ7STVS87VZ,61634424-5962-4447-A000-A905683758BB,2023-09-26_09h15.42.964,WP_VExplicitOC_HL,2022.2.5,Win32,6.455194495,NA,NA,NA,NA,NA,NA,NA,NA,NA,NA,NA,NA,NA,NA,NA,NA,NA,NA,NA,NA,NA,NA,NA,NA,NA,NA,NA,NA,NA,NA,NA,8,0,8,0,1,NA,NA,NA,NA,NA,NA,NA,NA,NA,NA,NA,NA,NA,NA,NA,NA,NA,NA,NA,NA,NA,NA,NA
SUPAMT14876,37UQDCYH63U8UJVJ6T5CQ7STVS87VZ,61634424-5962-4447-A000-A905683758BB,2023-09-26_09h15.42.964,WP_VExplicitOC_HL,2022.2.5,Win32,6.455194495,68.88888889,4.6855,2.0945,NA,NA,NA,NA,NA,frustrated,"frustrated, not frustrated","more frustrated, less frustrated",NA,NA,NA,NA,NA,NA,NA,NA,NA,NA,NA,NA,NA,NA,NA,0,0,0,1,1,NA,NA,NA,NA,NA,NA,NA,NA,NA,NA,NA,NA,NA,NA,NA,NA,NA,NA,NA,NA,NA,NA,NA,NA,NA,NA,NA,NA
SUPAMT14876,37UQDCYH63U8UJVJ6T5CQ7STVS87VZ,61634424-5962-4447-A000-A905683758BB,2023-09-26_09h15.42.964,WP_VExplicitOC_HL,2022.2.5,Win32,6.455194495,62.44444444,3.7158,2.0999,NA,NA,NA,NA,NA,bored,"bored, not bored","more bored, less bored",NA,NA,NA,NA,NA,NA,NA,NA,NA,NA,NA,NA,NA,NA,NA,0,1,1,2,1,NA,NA,NA,NA,NA,NA,NA,NA,NA,NA,NA,NA,NA,NA,NA,NA,NA,NA,NA,NA,NA,NA,NA,NA,NA,NA,NA,NA
SUPAMT14876,37UQDCYH63U8UJVJ6T5CQ7STVS87VZ,61634424-5962-4447-A000-A905683758BB,2023-09-26_09h15.42.964,WP_VExplicitOC_HL,2022.2.5,Win32,6.455194495,64.44444444,4.9147,2.1076,NA,NA,NA,NA,NA,happy,"unhappy, happy","less happy, more happy",NA,NA,NA,NA,NA,NA,NA,NA,NA,NA,NA,NA,NA,NA,NA,0,2,2,0,1,NA,NA,NA,NA,NA,NA,NA,NA,NA,NA,NA,NA,NA,NA,NA,NA,NA,NA,NA,NA,NA,NA,NA,NA,NA,NA,NA,NA
SUPAMT14876,37UQDCYH63U8UJVJ6T5CQ7STVS87VZ,61634424-5962-4447-A000-A905683758BB,2023-09-26_09h15.42.964,WP_VExplicitOC_HL,2022.2.5,Win32,6.455194495,NA,NA,NA,NA,NA,NA,NA,NA,NA,NA,NA,NA,NA,NA,NA,NA,NA,NA,NA,NA,NA,NA,NA,NA,NA,NA,NA,NA,NA,NA,NA,9,0,9,0,1,NA,NA,NA,NA,NA,NA,NA,NA,NA,NA,NA,NA,NA,NA,NA,NA,NA,NA,NA,NA,NA,NA,NA
SUPAMT14876,37UQDCYH63U8UJVJ6T5CQ7STVS87VZ,61634424-5962-4447-A000-A905683758BB,2023-09-26_09h15.42.964,WP_VExplicitOC_HL,2022.2.5,Win32,6.455194495,48.44444444,4.7203,2.1819,NA,NA,NA,NA,NA,frustrated,"frustrated, not frustrated","more frustrated, less frustrated",NA,NA,NA,NA,NA,NA,NA,NA,NA,NA,NA,NA,NA,NA,NA,0,0,0,1,1,NA,NA,NA,NA,NA,NA,NA,NA,NA,NA,NA,NA,NA,NA,NA,NA,NA,NA,NA,NA,NA,NA,NA,NA,NA,NA,NA,NA
SUPAMT14876,37UQDCYH63U8UJVJ6T5CQ7STVS87VZ,61634424-5962-4447-A000-A905683758BB,2023-09-26_09h15.42.964,WP_VExplicitOC_HL,2022.2.5,Win32,6.455194495,56,3.4571,2.0276,NA,NA,NA,NA,NA,bored,"bored, not bored","more bored, less bored",NA,NA,NA,NA,NA,NA,NA,NA,NA,NA,NA,NA,NA,NA,NA,0,1,1,2,1,NA,NA,NA,NA,NA,NA,NA,NA,NA,NA,NA,NA,NA,NA,NA,NA,NA,NA,NA,NA,NA,NA,NA,NA,NA,NA,NA,NA
SUPAMT14876,37UQDCYH63U8UJVJ6T5CQ7STVS87VZ,61634424-5962-4447-A000-A905683758BB,2023-09-26_09h15.42.964,WP_VExplicitOC_HL,2022.2.5,Win32,6.455194495,58.88888889,5.6472,2.1353,NA,NA,NA,NA,NA,happy,"unhappy, happy","less happy, more happy",NA,NA,NA,NA,NA,NA,NA,NA,NA,NA,NA,NA,NA,NA,NA,0,2,2,0,1,NA,NA,NA,NA,NA,NA,NA,NA,NA,NA,NA,NA,NA,NA,NA,NA,NA,NA,NA,NA,NA,NA,NA,NA,NA,NA,NA,NA
SUPAMT14876,37UQDCYH63U8UJVJ6T5CQ7STVS87VZ,61634424-5962-4447-A000-A905683758BB,2023-09-26_09h15.42.964,WP_VExplicitOC_HL,2022.2.5,Win32,6.455194495,NA,NA,NA,NA,NA,NA,NA,NA,NA,NA,NA,NA,NA,NA,NA,NA,NA,NA,NA,NA,NA,NA,NA,NA,NA,NA,NA,NA,NA,NA,NA,10,0,10,0,1,NA,NA,NA,NA,NA,NA,NA,NA,NA,NA,NA,NA,NA,NA,NA,NA,NA,NA,NA,NA,NA,NA,NA
SUPAMT14876,37UQDCYH63U8UJVJ6T5CQ7STVS87VZ,61634424-5962-4447-A000-A905683758BB,2023-09-26_09h15.42.964,WP_VExplicitOC_HL,2022.2.5,Win32,6.455194495,59.33333333,4.6813,2.2273,NA,NA,NA,NA,NA,bored,"bored, not bored","more bored, less bored",NA,NA,NA,NA,NA,NA,NA,NA,NA,NA,NA,NA,NA,NA,NA,0,0,0,2,1,NA,NA,NA,NA,NA,NA,NA,NA,NA,NA,NA,NA,NA,NA,NA,NA,NA,NA,NA,NA,NA,NA,NA,NA,NA,NA,NA,NA
SUPAMT14876,37UQDCYH63U8UJVJ6T5CQ7STVS87VZ,61634424-5962-4447-A000-A905683758BB,2023-09-26_09h15.42.964,WP_VExplicitOC_HL,2022.2.5,Win32,6.455194495,66.22222222,4.5105,2.0463,NA,NA,NA,NA,NA,frustrated,"frustrated, not frustrated","more frustrated, less frustrated",NA,NA,NA,NA,NA,NA,NA,NA,NA,NA,NA,NA,NA,NA,NA,0,1,1,1,1,NA,NA,NA,NA,NA,NA,NA,NA,NA,NA,NA,NA,NA,NA,NA,NA,NA,NA,NA,NA,NA,NA,NA,NA,NA,NA,NA,NA
SUPAMT14876,37UQDCYH63U8UJVJ6T5CQ7STVS87VZ,61634424-5962-4447-A000-A905683758BB,2023-09-26_09h15.42.964,WP_VExplicitOC_HL,2022.2.5,Win32,6.455194495,63.77777778,4.3664,2.0292,NA,NA,NA,NA,NA,happy,"unhappy, happy","less happy, more happy",NA,NA,NA,NA,NA,NA,NA,NA,NA,NA,NA,NA,NA,NA,NA,0,2,2,0,1,NA,NA,NA,NA,NA,NA,NA,NA,NA,NA,NA,NA,NA,NA,NA,NA,NA,NA,NA,NA,NA,NA,NA,NA,NA,NA,NA,NA
SUPAMT14876,37UQDCYH63U8UJVJ6T5CQ7STVS87VZ,61634424-5962-4447-A000-A905683758BB,2023-09-26_09h15.42.964,WP_VExplicitOC_HL,2022.2.5,Win32,6.455194495,NA,NA,NA,NA,NA,NA,NA,NA,NA,NA,NA,NA,NA,NA,NA,NA,NA,NA,NA,NA,NA,NA,NA,NA,NA,NA,NA,NA,NA,NA,NA,11,0,11,0,1,NA,NA,NA,NA,NA,NA,NA,NA,NA,NA,NA,NA,NA,NA,NA,NA,NA,NA,NA,NA,NA,NA,NA
SUPAMT14876,37UQDCYH63U8UJVJ6T5CQ7STVS87VZ,61634424-5962-4447-A000-A905683758BB,2023-09-26_09h15.42.964,WP_VExplicitOC_HL,2022.2.5,Win32,6.455194495,50.22222222,4.2633,2.1956,NA,NA,NA,NA,NA,bored,"bored, not bored","more bored, less bored",NA,NA,NA,NA,NA,NA,NA,NA,NA,NA,NA,NA,NA,NA,NA,0,0,0,2,1,NA,NA,NA,NA,NA,NA,NA,NA,NA,NA,NA,NA,NA,NA,NA,NA,NA,NA,NA,NA,NA,NA,NA,NA,NA,NA,NA,NA
SUPAMT14876,37UQDCYH63U8UJVJ6T5CQ7STVS87VZ,61634424-5962-4447-A000-A905683758BB,2023-09-26_09h15.42.964,WP_VExplicitOC_HL,2022.2.5,Win32,6.455194495,46.88888889,4.7902,2.1577,NA,NA,NA,NA,NA,happy,"unhappy, happy","less happy, more happy",NA,NA,NA,NA,NA,NA,NA,NA,NA,NA,NA,NA,NA,NA,NA,0,1,1,0,1,NA,NA,NA,NA,NA,NA,NA,NA,NA,NA,NA,NA,NA,NA,NA,NA,NA,NA,NA,NA,NA,NA,NA,NA,NA,NA,NA,NA
SUPAMT14876,37UQDCYH63U8UJVJ6T5CQ7STVS87VZ,61634424-5962-4447-A000-A905683758BB,2023-09-26_09h15.42.964,WP_VExplicitOC_HL,2022.2.5,Win32,6.455194495,54.66666667,4.8137,2.0122,NA,NA,NA,NA,NA,frustrated,"frustrated, not frustrated","more frustrated, less frustrated",NA,NA,NA,NA,NA,NA,NA,NA,NA,NA,NA,NA,NA,NA,NA,0,2,2,1,1,NA,NA,NA,NA,NA,NA,NA,NA,NA,NA,NA,NA,NA,NA,NA,NA,NA,NA,NA,NA,NA,NA,NA,NA,NA,NA,NA,NA
SUPAMT14876,37UQDCYH63U8UJVJ6T5CQ7STVS87VZ,61634424-5962-4447-A000-A905683758BB,2023-09-26_09h15.42.964,WP_VExplicitOC_HL,2022.2.5,Win32,6.455194495,NA,NA,NA,NA,NA,NA,NA,NA,NA,NA,NA,NA,NA,NA,NA,NA,NA,NA,NA,NA,NA,NA,NA,NA,NA,NA,NA,NA,NA,NA,NA,12,0,12,0,1,NA,NA,NA,NA,NA,NA,NA,NA,NA,NA,NA,NA,NA,NA,NA,NA,NA,NA,NA,NA,NA,NA,NA
SUPAMT14876,37UQDCYH63U8UJVJ6T5CQ7STVS87VZ,61634424-5962-4447-A000-A905683758BB,2023-09-26_09h15.42.964,WP_VExplicitOC_HL,2022.2.5,Win32,6.455194495,48,4.6705,2.1924,NA,NA,NA,NA,NA,frustrated,"frustrated, not frustrated","more frustrated, less frustrated",NA,NA,NA,NA,NA,NA,NA,NA,NA,NA,NA,NA,NA,NA,NA,0,0,0,1,1,NA,NA,NA,NA,NA,NA,NA,NA,NA,NA,NA,NA,NA,NA,NA,NA,NA,NA,NA,NA,NA,NA,NA,NA,NA,NA,NA,NA
SUPAMT14876,37UQDCYH63U8UJVJ6T5CQ7STVS87VZ,61634424-5962-4447-A000-A905683758BB,2023-09-26_09h15.42.964,WP_VExplicitOC_HL,2022.2.5,Win32,6.455194495,45.11111111,6.0213,2.1632,NA,NA,NA,NA,NA,happy,"unhappy, happy","less happy, more happy",NA,NA,NA,NA,NA,NA,NA,NA,NA,NA,NA,NA,NA,NA,NA,0,1,1,0,1,NA,NA,NA,NA,NA,NA,NA,NA,NA,NA,NA,NA,NA,NA,NA,NA,NA,NA,NA,NA,NA,NA,NA,NA,NA,NA,NA,NA
SUPAMT14876,37UQDCYH63U8UJVJ6T5CQ7STVS87VZ,61634424-5962-4447-A000-A905683758BB,2023-09-26_09h15.42.964,WP_VExplicitOC_HL,2022.2.5,Win32,6.455194495,48.22222222,4.4909,2.0888,NA,NA,NA,NA,NA,bored,"bored, not bored","more bored, less bored",NA,NA,NA,NA,NA,NA,NA,NA,NA,NA,NA,NA,NA,NA,NA,0,2,2,2,1,NA,NA,NA,NA,NA,NA,NA,NA,NA,NA,NA,NA,NA,NA,NA,NA,NA,NA,NA,NA,NA,NA,NA,NA,NA,NA,NA,NA
SUPAMT14876,37UQDCYH63U8UJVJ6T5CQ7STVS87VZ,61634424-5962-4447-A000-A905683758BB,2023-09-26_09h15.42.964,WP_VExplicitOC_HL,2022.2.5,Win32,6.455194495,NA,NA,NA,NA,NA,NA,NA,NA,NA,NA,NA,NA,NA,NA,NA,NA,NA,NA,NA,NA,NA,NA,NA,NA,NA,NA,NA,NA,NA,NA,NA,13,0,13,0,1,NA,NA,NA,NA,NA,NA,NA,NA,NA,NA,NA,NA,NA,NA,NA,NA,NA,NA,NA,NA,NA,NA,NA
SUPAMT14876,37UQDCYH63U8UJVJ6T5CQ7STVS87VZ,61634424-5962-4447-A000-A905683758BB,2023-09-26_09h15.42.964,WP_VExplicitOC_HL,2022.2.5,Win32,6.455194495,NA,NA,2.2361,NA,NA,NA,NA,NA,frustrated,"frustrated, not frustrated","more frustrated, less frustrated",NA,NA,NA,NA,NA,NA,NA,NA,NA,NA,NA,NA,NA,NA,NA,0,0,0,1,1,NA,NA,NA,NA,NA,NA,NA,NA,NA,NA,NA,NA,NA,NA,NA,NA,NA,NA,NA,NA,NA,NA,NA,NA,NA,NA,NA,NA
SUPAMT14876,37UQDCYH63U8UJVJ6T5CQ7STVS87VZ,61634424-5962-4447-A000-A905683758BB,2023-09-26_09h15.42.964,WP_VExplicitOC_HL,2022.2.5,Win32,6.455194495,52.22222222,6.9172,2.0564,NA,NA,NA,NA,NA,bored,"bored, not bored","more bored, less bored",NA,NA,NA,NA,NA,NA,NA,NA,NA,NA,NA,NA,NA,NA,NA,0,1,1,2,1,NA,NA,NA,NA,NA,NA,NA,NA,NA,NA,NA,NA,NA,NA,NA,NA,NA,NA,NA,NA,NA,NA,NA,NA,NA,NA,NA,NA
SUPAMT14876,37UQDCYH63U8UJVJ6T5CQ7STVS87VZ,61634424-5962-4447-A000-A905683758BB,2023-09-26_09h15.42.964,WP_VExplicitOC_HL,2022.2.5,Win32,6.455194495,52.22222222,3.5057,2.2368,NA,NA,NA,NA,NA,happy,"unhappy, happy","less happy, more happy",NA,NA,NA,NA,NA,NA,NA,NA,NA,NA,NA,NA,NA,NA,NA,0,2,2,0,1,NA,NA,NA,NA,NA,NA,NA,NA,NA,NA,NA,NA,NA,NA,NA,NA,NA,NA,NA,NA,NA,NA,NA,NA,NA,NA,NA,NA
SUPAMT14876,37UQDCYH63U8UJVJ6T5CQ7STVS87VZ,61634424-5962-4447-A000-A905683758BB,2023-09-26_09h15.42.964,WP_VExplicitOC_HL,2022.2.5,Win32,6.455194495,NA,NA,NA,NA,NA,NA,NA,NA,NA,NA,NA,NA,NA,NA,NA,NA,NA,NA,NA,NA,NA,NA,NA,NA,NA,NA,NA,NA,NA,NA,NA,14,0,14,0,1,NA,NA,NA,NA,NA,NA,NA,NA,NA,NA,NA,NA,NA,NA,NA,NA,NA,NA,NA,NA,NA,NA,NA
SUPAMT14876,37UQDCYH63U8UJVJ6T5CQ7STVS87VZ,61634424-5962-4447-A000-A905683758BB,2023-09-26_09h15.42.964,WP_VExplicitOC_HL,2022.2.5,Win32,6.455194495,NA,NA,NA,NA,NA,NA,NA,NA,NA,NA,NA,NA,NA,NA,NA,NA,NA,NA,NA,NA,NA,NA,NA,NA,NA,NA,NA,NA,NA,NA,NA,NA,NA,NA,NA,NA,NA,NA,NA,NA,NA,NA,NA,NA,NA,NA,NA,NA,NA,NA,NA,NA,NA,NA,NA,NA,NA,NA,NA
SUPAMT14876,37UQDCYH63U8UJVJ6T5CQ7STVS87VZ,61634424-5962-4447-A000-A905683758BB,2023-09-26_09h15.42.964,WP_VExplicitOC_HL,2022.2.5,Win32,6.455194495,NA,NA,NA,NA,NA,NA,NA,NA,NA,NA,NA,NA,NA,NA,NA,NA,NA,NA,NA,NA,NA,NA,NA,NA,NA,NA,NA,NA,NA,NA,NA,NA,NA,NA,NA,NA,NA,NA,NA,NA,NA,NA,NA,NA,NA,NA,NA,NA,NA,NA,NA,NA,NA,NA,NA,NA,NA,NA,NA
SUPAMT14876,37UQDCYH63U8UJVJ6T5CQ7STVS87VZ,61634424-5962-4447-A000-A905683758BB,2023-09-26_09h15.42.964,WP_VExplicitOC_HL,2022.2.5,Win32,6.455194495,NA,NA,NA,NA,NA,NA,NA,NA,NA,NA,NA,NA,NA,NA,NA,NA,NA,NA,rest (looking at a fixed cross),001.png,NA,NA,NA,NA,NA,NA,NA,NA,NA,NA,NA,NA,NA,NA,NA,NA,63.55555556,4.5568,0,0,0,0,1,NA,NA,NA,NA,NA,NA,NA,NA,NA,NA,NA,NA,NA,NA,NA,NA
SUPAMT14876,37UQDCYH63U8UJVJ6T5CQ7STVS87VZ,61634424-5962-4447-A000-A905683758BB,2023-09-26_09h15.42.964,WP_VExplicitOC_HL,2022.2.5,Win32,6.455194495,NA,NA,NA,NA,NA,NA,NA,NA,NA,NA,NA,NA,NA,NA,NA,NA,NA,NA,stand up,002.png,NA,NA,NA,NA,NA,NA,NA,NA,NA,NA,NA,NA,NA,NA,NA,NA,63.55555556,1.0593,0,1,1,1,1,NA,NA,NA,NA,NA,NA,NA,NA,NA,NA,NA,NA,NA,NA,NA,NA
SUPAMT14876,37UQDCYH63U8UJVJ6T5CQ7STVS87VZ,61634424-5962-4447-A000-A905683758BB,2023-09-26_09h15.42.964,WP_VExplicitOC_HL,2022.2.5,Win32,6.455194495,NA,NA,NA,NA,NA,NA,NA,NA,NA,NA,NA,NA,NA,NA,NA,NA,NA,NA,stretch,003.png,NA,NA,NA,NA,NA,NA,NA,NA,NA,NA,NA,NA,NA,NA,NA,NA,63.55555556,0.2494,0,2,2,2,1,NA,NA,NA,NA,NA,NA,NA,NA,NA,NA,NA,NA,NA,NA,NA,NA
SUPAMT14876,37UQDCYH63U8UJVJ6T5CQ7STVS87VZ,61634424-5962-4447-A000-A905683758BB,2023-09-26_09h15.42.964,WP_VExplicitOC_HL,2022.2.5,Win32,6.455194495,NA,NA,NA,NA,NA,NA,NA,NA,NA,NA,NA,NA,NA,NA,NA,NA,NA,NA,make a drink,004.png,NA,NA,NA,NA,NA,NA,NA,NA,NA,NA,NA,NA,NA,NA,NA,NA,63.55555556,0.3312,0,3,3,3,1,NA,NA,NA,NA,NA,NA,NA,NA,NA,NA,NA,NA,NA,NA,NA,NA
SUPAMT14876,37UQDCYH63U8UJVJ6T5CQ7STVS87VZ,61634424-5962-4447-A000-A905683758BB,2023-09-26_09h15.42.964,WP_VExplicitOC_HL,2022.2.5,Win32,6.455194495,NA,NA,NA,NA,NA,NA,NA,NA,NA,NA,NA,NA,NA,NA,NA,NA,NA,NA,scroll social media,005.png,NA,NA,NA,NA,NA,NA,NA,NA,NA,NA,NA,NA,NA,NA,NA,NA,63.55555556,0.5095,0,4,4,4,1,NA,NA,NA,NA,NA,NA,NA,NA,NA,NA,NA,NA,NA,NA,NA,NA
SUPAMT14876,37UQDCYH63U8UJVJ6T5CQ7STVS87VZ,61634424-5962-4447-A000-A905683758BB,2023-09-26_09h15.42.964,WP_VExplicitOC_HL,2022.2.5,Win32,6.455194495,NA,NA,NA,NA,NA,NA,NA,NA,NA,NA,NA,NA,NA,NA,NA,NA,NA,NA,listen to music,006.png,NA,NA,NA,NA,NA,NA,NA,NA,NA,NA,NA,NA,NA,NA,NA,NA,63.55555556,0.5147,0,5,5,5,1,NA,NA,NA,NA,NA,NA,NA,NA,NA,NA,NA,NA,NA,NA,NA,NA
SUPAMT14876,37UQDCYH63U8UJVJ6T5CQ7STVS87VZ,61634424-5962-4447-A000-A905683758BB,2023-09-26_09h15.42.964,WP_VExplicitOC_HL,2022.2.5,Win32,6.455194495,NA,NA,NA,NA,NA,NA,NA,NA,NA,NA,NA,NA,NA,NA,NA,NA,NA,NA,daydream,007.png,NA,NA,NA,NA,NA,NA,NA,NA,NA,NA,NA,NA,NA,NA,NA,NA,63.55555556,0.5088,0,6,6,6,1,NA,NA,NA,NA,NA,NA,NA,NA,NA,NA,NA,NA,NA,NA,NA,NA
SUPAMT14876,37UQDCYH63U8UJVJ6T5CQ7STVS87VZ,61634424-5962-4447-A000-A905683758BB,2023-09-26_09h15.42.964,WP_VExplicitOC_HL,2022.2.5,Win32,6.455194495,NA,NA,NA,NA,NA,NA,NA,NA,NA,NA,NA,NA,NA,NA,NA,NA,NA,NA,watch a short animation,008.png,NA,NA,NA,NA,NA,NA,NA,NA,NA,NA,NA,NA,NA,NA,NA,NA,63.55555556,0.547,0,7,7,7,1,NA,NA,NA,NA,NA,NA,NA,NA,NA,NA,NA,NA,NA,NA,NA,NA
SUPAMT14876,37UQDCYH63U8UJVJ6T5CQ7STVS87VZ,61634424-5962-4447-A000-A905683758BB,2023-09-26_09h15.42.964,WP_VExplicitOC_HL,2022.2.5,Win32,6.455194495,NA,NA,NA,NA,NA,NA,NA,NA,NA,NA,NA,NA,NA,NA,NA,NA,NA,NA,read a novel,009.png,NA,NA,NA,NA,NA,NA,NA,NA,NA,NA,NA,NA,NA,NA,NA,NA,63.55555556,0.5971,0,8,8,8,1,NA,NA,NA,NA,NA,NA,NA,NA,NA,NA,NA,NA,NA,NA,NA,NA
SUPAMT14876,37UQDCYH63U8UJVJ6T5CQ7STVS87VZ,61634424-5962-4447-A000-A905683758BB,2023-09-26_09h15.42.964,WP_VExplicitOC_HL,2022.2.5,Win32,6.455194495,NA,NA,NA,NA,NA,NA,NA,NA,NA,NA,NA,NA,NA,NA,NA,NA,NA,NA,read the news,010.png,NA,NA,NA,NA,NA,NA,NA,NA,NA,NA,NA,NA,NA,NA,NA,NA,63.55555556,0.3512,0,9,9,9,1,NA,NA,NA,NA,NA,NA,NA,NA,NA,NA,NA,NA,NA,NA,NA,NA
SUPAMT14876,37UQDCYH63U8UJVJ6T5CQ7STVS87VZ,61634424-5962-4447-A000-A905683758BB,2023-09-26_09h15.42.964,WP_VExplicitOC_HL,2022.2.5,Win32,6.455194495,NA,NA,NA,NA,NA,NA,NA,NA,NA,NA,NA,NA,NA,NA,NA,NA,NA,NA,NA,NA,NA,NA,NA,NA,NA,NA,NA,NA,NA,NA,NA,NA,NA,NA,NA,NA,NA,NA,NA,NA,NA,NA,NA,stand up,NA,NA,NA,NA,NA,NA,NA,NA,NA,NA,NA,NA,NA,NA,NA
SUPAMT14876,37UQDCYH63U8UJVJ6T5CQ7STVS87VZ,61634424-5962-4447-A000-A905683758BB,2023-09-26_09h15.42.964,WP_VExplicitOC_HL,2022.2.5,Win32,6.455194495,NA,NA,2.0426,NA,NA,NA,NA,NA,happy,"unhappy, happy","less happy, more happy",NA,NA,NA,NA,NA,NA,NA,NA,NA,NA,NA,NA,NA,NA,NA,NA,NA,NA,NA,NA,NA,NA,NA,NA,NA,NA,NA,NA,NA,NA,NA,NA,NA,0,0,0,0,1,NA,NA,NA,NA,NA,NA,NA,NA,NA,NA
SUPAMT14876,37UQDCYH63U8UJVJ6T5CQ7STVS87VZ,61634424-5962-4447-A000-A905683758BB,2023-09-26_09h15.42.964,WP_VExplicitOC_HL,2022.2.5,Win32,6.455194495,44.66666667,4.9781,2.2094,NA,NA,NA,NA,NA,frustrated,"frustrated, not frustrated","more frustrated, less frustrated",NA,NA,NA,NA,NA,NA,NA,NA,NA,NA,NA,NA,NA,NA,NA,NA,NA,NA,NA,NA,NA,NA,NA,NA,NA,NA,NA,NA,NA,NA,NA,NA,NA,0,1,1,1,1,NA,NA,NA,NA,NA,NA,NA,NA,NA,NA
SUPAMT14876,37UQDCYH63U8UJVJ6T5CQ7STVS87VZ,61634424-5962-4447-A000-A905683758BB,2023-09-26_09h15.42.964,WP_VExplicitOC_HL,2022.2.5,Win32,6.455194495,NA,NA,2.1445,NA,NA,NA,NA,NA,bored,"bored, not bored","more bored, less bored",NA,NA,NA,NA,NA,NA,NA,NA,NA,NA,NA,NA,NA,NA,NA,NA,NA,NA,NA,NA,NA,NA,NA,NA,NA,NA,NA,NA,NA,NA,NA,NA,NA,0,2,2,2,1,NA,NA,NA,NA,NA,NA,NA,NA,NA,NA
SUPAMT14876,37UQDCYH63U8UJVJ6T5CQ7STVS87VZ,61634424-5962-4447-A000-A905683758BB,2023-09-26_09h15.42.964,WP_VExplicitOC_HL,2022.2.5,Win32,6.455194495,NA,NA,NA,NA,NA,NA,NA,NA,NA,NA,NA,NA,NA,NA,NA,NA,NA,NA,NA,NA,NA,NA,NA,NA,NA,NA,NA,NA,NA,NA,NA,NA,NA,NA,NA,NA,NA,NA,NA,NA,NA,NA,NA,NA,NA,NA,NA,NA,NA,NA,NA,NA,NA,NA,NA,NA,NA,NA,NA
SUPAMT14876,37UQDCYH63U8UJVJ6T5CQ7STVS87VZ,61634424-5962-4447-A000-A905683758BB,2023-09-26_09h15.42.964,WP_VExplicitOC_HL,2022.2.5,Win32,6.455194495,NA,NA,NA,NA,NA,NA,NA,NA,NA,NA,NA,NA,NA,NA,NA,NA,NA,NA,NA,NA,NA,NA,NA,NA,NA,NA,NA,NA,NA,NA,NA,NA,NA,NA,NA,NA,NA,NA,NA,NA,NA,NA,NA,NA,NA,NA,NA,NA,NA,NA,NA,NA,NA,NA,NA,NA,NA,NA,NA
SUPAMT14876,37UQDCYH63U8UJVJ6T5CQ7STVS87VZ,61634424-5962-4447-A000-A905683758BB,2023-09-26_09h15.42.964,WP_VExplicitOC_HL,2022.2.5,Win32,6.455194495,60.44444444,6.3259,2.0447,NA,NA,NA,NA,NA,happy,"unhappy, happy","less happy, more happy",NA,NA,NA,NA,NA,NA,NA,NA,NA,NA,NA,NA,NA,NA,NA,NA,NA,NA,NA,NA,NA,NA,NA,NA,NA,NA,NA,NA,NA,NA,NA,NA,NA,NA,NA,NA,NA,NA,0,0,0,0,1,NA,NA,NA,NA,NA
SUPAMT14876,37UQDCYH63U8UJVJ6T5CQ7STVS87VZ,61634424-5962-4447-A000-A905683758BB,2023-09-26_09h15.42.964,WP_VExplicitOC_HL,2022.2.5,Win32,6.455194495,48,4.1349,2.0908,NA,NA,NA,NA,NA,frustrated,"frustrated, not frustrated","more frustrated, less frustrated",NA,NA,NA,NA,NA,NA,NA,NA,NA,NA,NA,NA,NA,NA,NA,NA,NA,NA,NA,NA,NA,NA,NA,NA,NA,NA,NA,NA,NA,NA,NA,NA,NA,NA,NA,NA,NA,NA,0,1,1,1,1,NA,NA,NA,NA,NA
SUPAMT14876,37UQDCYH63U8UJVJ6T5CQ7STVS87VZ,61634424-5962-4447-A000-A905683758BB,2023-09-26_09h15.42.964,WP_VExplicitOC_HL,2022.2.5,Win32,6.455194495,48.88888889,3.9151,2.2664,NA,NA,NA,NA,NA,bored,"bored, not bored","more bored, less bored",NA,NA,NA,NA,NA,NA,NA,NA,NA,NA,NA,NA,NA,NA,NA,NA,NA,NA,NA,NA,NA,NA,NA,NA,NA,NA,NA,NA,NA,NA,NA,NA,NA,NA,NA,NA,NA,NA,0,2,2,2,1,NA,NA,NA,NA,NA
SUPAMT14876,37UQDCYH63U8UJVJ6T5CQ7STVS87VZ,61634424-5962-4447-A000-A905683758BB,2023-09-26_09h15.42.964,WP_VExplicitOC_HL,2022.2.5,Win32,6.455194495,NA,NA,NA,NA,NA,NA,NA,NA,NA,NA,NA,NA,NA,NA,NA,NA,NA,NA,NA,NA,NA,NA,NA,NA,NA,NA,NA,NA,NA,NA,NA,NA,NA,NA,NA,NA,NA,NA,NA,NA,NA,NA,NA,NA,NA,NA,NA,NA,NA,NA,NA,NA,NA,NA,0,0,0,0,1
SUPAMT14876,37UQDCYH63U8UJVJ6T5CQ7STVS87VZ,61634424-5962-4447-A000-A905683758BB,2023-09-26_09h15.42.964,WP_VExplicitOC_HL,2022.2.5,Win32,6.455194495,55.55555556,3.7187,2.0054,NA,NA,NA,NA,NA,bored,"bored, not bored","more bored, less bored",NA,NA,NA,NA,NA,NA,NA,NA,NA,NA,NA,NA,NA,NA,NA,NA,NA,NA,NA,NA,NA,NA,NA,NA,NA,NA,NA,NA,NA,NA,NA,NA,NA,NA,NA,NA,NA,NA,0,0,0,2,1,NA,NA,NA,NA,NA
SUPAMT14876,37UQDCYH63U8UJVJ6T5CQ7STVS87VZ,61634424-5962-4447-A000-A905683758BB,2023-09-26_09h15.42.964,WP_VExplicitOC_HL,2022.2.5,Win32,6.455194495,55.55555556,2.8334,2.0472,NA,NA,NA,NA,NA,happy,"unhappy, happy","less happy, more happy",NA,NA,NA,NA,NA,NA,NA,NA,NA,NA,NA,NA,NA,NA,NA,NA,NA,NA,NA,NA,NA,NA,NA,NA,NA,NA,NA,NA,NA,NA,NA,NA,NA,NA,NA,NA,NA,NA,0,1,1,0,1,NA,NA,NA,NA,NA
SUPAMT14876,37UQDCYH63U8UJVJ6T5CQ7STVS87VZ,61634424-5962-4447-A000-A905683758BB,2023-09-26_09h15.42.964,WP_VExplicitOC_HL,2022.2.5,Win32,6.455194495,55.77777778,3.5993,2.1802,NA,NA,NA,NA,NA,frustrated,"frustrated, not frustrated","more frustrated, less frustrated",NA,NA,NA,NA,NA,NA,NA,NA,NA,NA,NA,NA,NA,NA,NA,NA,NA,NA,NA,NA,NA,NA,NA,NA,NA,NA,NA,NA,NA,NA,NA,NA,NA,NA,NA,NA,NA,NA,0,2,2,1,1,NA,NA,NA,NA,NA
SUPAMT14876,37UQDCYH63U8UJVJ6T5CQ7STVS87VZ,61634424-5962-4447-A000-A905683758BB,2023-09-26_09h15.42.964,WP_VExplicitOC_HL,2022.2.5,Win32,6.455194495,NA,NA,NA,NA,NA,NA,NA,NA,NA,NA,NA,NA,NA,NA,NA,NA,NA,NA,NA,NA,NA,NA,NA,NA,NA,NA,NA,NA,NA,NA,NA,NA,NA,NA,NA,NA,NA,NA,NA,NA,NA,NA,NA,NA,NA,NA,NA,NA,NA,NA,NA,NA,NA,NA,1,0,1,0,1
SUPAMT14876,37UQDCYH63U8UJVJ6T5CQ7STVS87VZ,61634424-5962-4447-A000-A905683758BB,2023-09-26_09h15.42.964,WP_VExplicitOC_HL,2022.2.5,Win32,6.455194495,42.22222222,3.3573,2.0654,NA,NA,NA,NA,NA,happy,"unhappy, happy","less happy, more happy",NA,NA,NA,NA,NA,NA,NA,NA,NA,NA,NA,NA,NA,NA,NA,NA,NA,NA,NA,NA,NA,NA,NA,NA,NA,NA,NA,NA,NA,NA,NA,NA,NA,NA,NA,NA,NA,NA,0,0,0,0,1,NA,NA,NA,NA,NA
SUPAMT14876,37UQDCYH63U8UJVJ6T5CQ7STVS87VZ,61634424-5962-4447-A000-A905683758BB,2023-09-26_09h15.42.964,WP_VExplicitOC_HL,2022.2.5,Win32,6.455194495,59.55555556,3.4355,2.1799,NA,NA,NA,NA,NA,frustrated,"frustrated, not frustrated","more frustrated, less frustrated",NA,NA,NA,NA,NA,NA,NA,NA,NA,NA,NA,NA,NA,NA,NA,NA,NA,NA,NA,NA,NA,NA,NA,NA,NA,NA,NA,NA,NA,NA,NA,NA,NA,NA,NA,NA,NA,NA,0,1,1,1,1,NA,NA,NA,NA,NA
SUPAMT14876,37UQDCYH63U8UJVJ6T5CQ7STVS87VZ,61634424-5962-4447-A000-A905683758BB,2023-09-26_09h15.42.964,WP_VExplicitOC_HL,2022.2.5,Win32,6.455194495,59.55555556,3.6087,2.2149,NA,NA,NA,NA,NA,bored,"bored, not bored","more bored, less bored",NA,NA,NA,NA,NA,NA,NA,NA,NA,NA,NA,NA,NA,NA,NA,NA,NA,NA,NA,NA,NA,NA,NA,NA,NA,NA,NA,NA,NA,NA,NA,NA,NA,NA,NA,NA,NA,NA,0,2,2,2,1,NA,NA,NA,NA,NA
SUPAMT14876,37UQDCYH63U8UJVJ6T5CQ7STVS87VZ,61634424-5962-4447-A000-A905683758BB,2023-09-26_09h15.42.964,WP_VExplicitOC_HL,2022.2.5,Win32,6.455194495,NA,NA,NA,NA,NA,NA,NA,NA,NA,NA,NA,NA,NA,NA,NA,NA,NA,NA,NA,NA,NA,NA,NA,NA,NA,NA,NA,NA,NA,NA,NA,NA,NA,NA,NA,NA,NA,NA,NA,NA,NA,NA,NA,NA,NA,NA,NA,NA,NA,NA,NA,NA,NA,NA,2,0,2,0,1
SUPAMT14876,37UQDCYH63U8UJVJ6T5CQ7STVS87VZ,61634424-5962-4447-A000-A905683758BB,2023-09-26_09h15.42.964,WP_VExplicitOC_HL,2022.2.5,Win32,6.455194495,56.66666667,4.7023,2.0266,NA,NA,NA,NA,NA,frustrated,"frustrated, not frustrated","more frustrated, less frustrated",NA,NA,NA,NA,NA,NA,NA,NA,NA,NA,NA,NA,NA,NA,NA,NA,NA,NA,NA,NA,NA,NA,NA,NA,NA,NA,NA,NA,NA,NA,NA,NA,NA,NA,NA,NA,NA,NA,0,0,0,1,1,NA,NA,NA,NA,NA
SUPAMT14876,37UQDCYH63U8UJVJ6T5CQ7STVS87VZ,61634424-5962-4447-A000-A905683758BB,2023-09-26_09h15.42.964,WP_VExplicitOC_HL,2022.2.5,Win32,6.455194495,56.66666667,3.3034,2.0986,NA,NA,NA,NA,NA,bored,"bored, not bored","more bored, less bored",NA,NA,NA,NA,NA,NA,NA,NA,NA,NA,NA,NA,NA,NA,NA,NA,NA,NA,NA,NA,NA,NA,NA,NA,NA,NA,NA,NA,NA,NA,NA,NA,NA,NA,NA,NA,NA,NA,0,1,1,2,1,NA,NA,NA,NA,NA
SUPAMT14876,37UQDCYH63U8UJVJ6T5CQ7STVS87VZ,61634424-5962-4447-A000-A905683758BB,2023-09-26_09h15.42.964,WP_VExplicitOC_HL,2022.2.5,Win32,6.455194495,56.66666667,5.3306,2.2322,NA,NA,NA,NA,NA,happy,"unhappy, happy","less happy, more happy",NA,NA,NA,NA,NA,NA,NA,NA,NA,NA,NA,NA,NA,NA,NA,NA,NA,NA,NA,NA,NA,NA,NA,NA,NA,NA,NA,NA,NA,NA,NA,NA,NA,NA,NA,NA,NA,NA,0,2,2,0,1,NA,NA,NA,NA,NA
SUPAMT14876,37UQDCYH63U8UJVJ6T5CQ7STVS87VZ,61634424-5962-4447-A000-A905683758BB,2023-09-26_09h15.42.964,WP_VExplicitOC_HL,2022.2.5,Win32,6.455194495,NA,NA,NA,NA,NA,NA,NA,NA,NA,NA,NA,NA,NA,NA,NA,NA,NA,NA,NA,NA,NA,NA,NA,NA,NA,NA,NA,NA,NA,NA,NA,NA,NA,NA,NA,NA,NA,NA,NA,NA,NA,NA,NA,NA,NA,NA,NA,NA,NA,NA,NA,NA,NA,NA,3,0,3,0,1
SUPAMT14876,37UQDCYH63U8UJVJ6T5CQ7STVS87VZ,61634424-5962-4447-A000-A905683758BB,2023-09-26_09h15.42.964,WP_VExplicitOC_HL,2022.2.5,Win32,6.455194495,55.77777778,3.6434,2.1657,NA,NA,NA,NA,NA,bored,"bored, not bored","more bored, less bored",NA,NA,NA,NA,NA,NA,NA,NA,NA,NA,NA,NA,NA,NA,NA,NA,NA,NA,NA,NA,NA,NA,NA,NA,NA,NA,NA,NA,NA,NA,NA,NA,NA,NA,NA,NA,NA,NA,0,0,0,2,1,NA,NA,NA,NA,NA
SUPAMT14876,37UQDCYH63U8UJVJ6T5CQ7STVS87VZ,61634424-5962-4447-A000-A905683758BB,2023-09-26_09h15.42.964,WP_VExplicitOC_HL,2022.2.5,Win32,6.455194495,55.77777778,3.8776,2.1866,NA,NA,NA,NA,NA,happy,"unhappy, happy","less happy, more happy",NA,NA,NA,NA,NA,NA,NA,NA,NA,NA,NA,NA,NA,NA,NA,NA,NA,NA,NA,NA,NA,NA,NA,NA,NA,NA,NA,NA,NA,NA,NA,NA,NA,NA,NA,NA,NA,NA,0,1,1,0,1,NA,NA,NA,NA,NA
SUPAMT14876,37UQDCYH63U8UJVJ6T5CQ7STVS87VZ,61634424-5962-4447-A000-A905683758BB,2023-09-26_09h15.42.964,WP_VExplicitOC_HL,2022.2.5,Win32,6.455194495,55.77777778,3.264,2.1351,NA,NA,NA,NA,NA,frustrated,"frustrated, not frustrated","more frustrated, less frustrated",NA,NA,NA,NA,NA,NA,NA,NA,NA,NA,NA,NA,NA,NA,NA,NA,NA,NA,NA,NA,NA,NA,NA,NA,NA,NA,NA,NA,NA,NA,NA,NA,NA,NA,NA,NA,NA,NA,0,2,2,1,1,NA,NA,NA,NA,NA
SUPAMT14876,37UQDCYH63U8UJVJ6T5CQ7STVS87VZ,61634424-5962-4447-A000-A905683758BB,2023-09-26_09h15.42.964,WP_VExplicitOC_HL,2022.2.5,Win32,6.455194495,NA,NA,NA,NA,NA,NA,NA,NA,NA,NA,NA,NA,NA,NA,NA,NA,NA,NA,NA,NA,NA,NA,NA,NA,NA,NA,NA,NA,NA,NA,NA,NA,NA,NA,NA,NA,NA,NA,NA,NA,NA,NA,NA,NA,NA,NA,NA,NA,NA,NA,NA,NA,NA,NA,4,0,4,0,1
SUPAMT14876,37UQDCYH63U8UJVJ6T5CQ7STVS87VZ,61634424-5962-4447-A000-A905683758BB,2023-09-26_09h15.42.964,WP_VExplicitOC_HL,2022.2.5,Win32,6.455194495,56.44444444,4.0571,2.1691,NA,NA,NA,NA,NA,frustrated,"frustrated, not frustrated","more frustrated, less frustrated",NA,NA,NA,NA,NA,NA,NA,NA,NA,NA,NA,NA,NA,NA,NA,NA,NA,NA,NA,NA,NA,NA,NA,NA,NA,NA,NA,NA,NA,NA,NA,NA,NA,NA,NA,NA,NA,NA,0,0,0,1,1,NA,NA,NA,NA,NA
SUPAMT14876,37UQDCYH63U8UJVJ6T5CQ7STVS87VZ,61634424-5962-4447-A000-A905683758BB,2023-09-26_09h15.42.964,WP_VExplicitOC_HL,2022.2.5,Win32,6.455194495,56.44444444,3.3467,2.1515,NA,NA,NA,NA,NA,bored,"bored, not bored","more bored, less bored",NA,NA,NA,NA,NA,NA,NA,NA,NA,NA,NA,NA,NA,NA,NA,NA,NA,NA,NA,NA,NA,NA,NA,NA,NA,NA,NA,NA,NA,NA,NA,NA,NA,NA,NA,NA,NA,NA,0,1,1,2,1,NA,NA,NA,NA,NA
SUPAMT14876,37UQDCYH63U8UJVJ6T5CQ7STVS87VZ,61634424-5962-4447-A000-A905683758BB,2023-09-26_09h15.42.964,WP_VExplicitOC_HL,2022.2.5,Win32,6.455194495,56.44444444,3.312,2.0018,NA,NA,NA,NA,NA,happy,"unhappy, happy","less happy, more happy",NA,NA,NA,NA,NA,NA,NA,NA,NA,NA,NA,NA,NA,NA,NA,NA,NA,NA,NA,NA,NA,NA,NA,NA,NA,NA,NA,NA,NA,NA,NA,NA,NA,NA,NA,NA,NA,NA,0,2,2,0,1,NA,NA,NA,NA,NA
SUPAMT14876,37UQDCYH63U8UJVJ6T5CQ7STVS87VZ,61634424-5962-4447-A000-A905683758BB,2023-09-26_09h15.42.964,WP_VExplicitOC_HL,2022.2.5,Win32,6.455194495,NA,NA,NA,NA,NA,NA,NA,NA,NA,NA,NA,NA,NA,NA,NA,NA,NA,NA,NA,NA,NA,NA,NA,NA,NA,NA,NA,NA,NA,NA,NA,NA,NA,NA,NA,NA,NA,NA,NA,NA,NA,NA,NA,NA,NA,NA,NA,NA,NA,NA,NA,NA,NA,NA,5,0,5,0,1
SUPAMT14876,37UQDCYH63U8UJVJ6T5CQ7STVS87VZ,61634424-5962-4447-A000-A905683758BB,2023-09-26_09h15.42.964,WP_VExplicitOC_HL,2022.2.5,Win32,6.455194495,57.55555556,7.2213,2.0694,NA,NA,NA,NA,NA,frustrated,"frustrated, not frustrated","more frustrated, less frustrated",NA,NA,NA,NA,NA,NA,NA,NA,NA,NA,NA,NA,NA,NA,NA,NA,NA,NA,NA,NA,NA,NA,NA,NA,NA,NA,NA,NA,NA,NA,NA,NA,NA,NA,NA,NA,NA,NA,0,0,0,1,1,NA,NA,NA,NA,NA
SUPAMT14876,37UQDCYH63U8UJVJ6T5CQ7STVS87VZ,61634424-5962-4447-A000-A905683758BB,2023-09-26_09h15.42.964,WP_VExplicitOC_HL,2022.2.5,Win32,6.455194495,57.55555556,3.2873,2.131,NA,NA,NA,NA,NA,happy,"unhappy, happy","less happy, more happy",NA,NA,NA,NA,NA,NA,NA,NA,NA,NA,NA,NA,NA,NA,NA,NA,NA,NA,NA,NA,NA,NA,NA,NA,NA,NA,NA,NA,NA,NA,NA,NA,NA,NA,NA,NA,NA,NA,0,1,1,0,1,NA,NA,NA,NA,NA
SUPAMT14876,37UQDCYH63U8UJVJ6T5CQ7STVS87VZ,61634424-5962-4447-A000-A905683758BB,2023-09-26_09h15.42.964,WP_VExplicitOC_HL,2022.2.5,Win32,6.455194495,57.55555556,3.1267,2.0031,NA,NA,NA,NA,NA,bored,"bored, not bored","more bored, less bored",NA,NA,NA,NA,NA,NA,NA,NA,NA,NA,NA,NA,NA,NA,NA,NA,NA,NA,NA,NA,NA,NA,NA,NA,NA,NA,NA,NA,NA,NA,NA,NA,NA,NA,NA,NA,NA,NA,0,2,2,2,1,NA,NA,NA,NA,NA
SUPAMT14876,37UQDCYH63U8UJVJ6T5CQ7STVS87VZ,61634424-5962-4447-A000-A905683758BB,2023-09-26_09h15.42.964,WP_VExplicitOC_HL,2022.2.5,Win32,6.455194495,NA,NA,NA,NA,NA,NA,NA,NA,NA,NA,NA,NA,NA,NA,NA,NA,NA,NA,NA,NA,NA,NA,NA,NA,NA,NA,NA,NA,NA,NA,NA,NA,NA,NA,NA,NA,NA,NA,NA,NA,NA,NA,NA,NA,NA,NA,NA,NA,NA,NA,NA,NA,NA,NA,6,0,6,0,1
SUPAMT14876,37UQDCYH63U8UJVJ6T5CQ7STVS87VZ,61634424-5962-4447-A000-A905683758BB,2023-09-26_09h15.42.964,WP_VExplicitOC_HL,2022.2.5,Win32,6.455194495,NA,NA,2.0148,NA,NA,NA,NA,NA,happy,"unhappy, happy","less happy, more happy",NA,NA,NA,NA,NA,NA,NA,NA,NA,NA,NA,NA,NA,NA,NA,NA,NA,NA,NA,NA,NA,NA,NA,NA,NA,NA,NA,NA,NA,NA,NA,NA,NA,NA,NA,NA,NA,NA,0,0,0,0,1,NA,NA,NA,NA,NA
SUPAMT14876,37UQDCYH63U8UJVJ6T5CQ7STVS87VZ,61634424-5962-4447-A000-A905683758BB,2023-09-26_09h15.42.964,WP_VExplicitOC_HL,2022.2.5,Win32,6.455194495,NA,NA,2.1704,NA,NA,NA,NA,NA,frustrated,"frustrated, not frustrated","more frustrated, less frustrated",NA,NA,NA,NA,NA,NA,NA,NA,NA,NA,NA,NA,NA,NA,NA,NA,NA,NA,NA,NA,NA,NA,NA,NA,NA,NA,NA,NA,NA,NA,NA,NA,NA,NA,NA,NA,NA,NA,0,1,1,1,1,NA,NA,NA,NA,NA
SUPAMT14876,37UQDCYH63U8UJVJ6T5CQ7STVS87VZ,61634424-5962-4447-A000-A905683758BB,2023-09-26_09h15.42.964,WP_VExplicitOC_HL,2022.2.5,Win32,6.455194495,NA,NA,2.0982,NA,NA,NA,NA,NA,bored,"bored, not bored","more bored, less bored",NA,NA,NA,NA,NA,NA,NA,NA,NA,NA,NA,NA,NA,NA,NA,NA,NA,NA,NA,NA,NA,NA,NA,NA,NA,NA,NA,NA,NA,NA,NA,NA,NA,NA,NA,NA,NA,NA,0,2,2,2,1,NA,NA,NA,NA,NA
SUPAMT14876,37UQDCYH63U8UJVJ6T5CQ7STVS87VZ,61634424-5962-4447-A000-A905683758BB,2023-09-26_09h15.42.964,WP_VExplicitOC_HL,2022.2.5,Win32,6.455194495,NA,NA,NA,NA,NA,NA,NA,NA,NA,NA,NA,NA,NA,NA,NA,NA,NA,NA,NA,NA,NA,NA,NA,NA,NA,NA,NA,NA,NA,NA,NA,NA,NA,NA,NA,NA,NA,NA,NA,NA,NA,NA,NA,NA,NA,NA,NA,NA,NA,NA,NA,NA,NA,NA,7,0,7,0,1
SUPAMT14876,37UQDCYH63U8UJVJ6T5CQ7STVS87VZ,61634424-5962-4447-A000-A905683758BB,2023-09-26_09h15.42.964,WP_VExplicitOC_HL,2022.2.5,Win32,6.455194495,NA,NA,2.0819,NA,NA,NA,NA,NA,bored,"bored, not bored","more bored, less bored",NA,NA,NA,NA,NA,NA,NA,NA,NA,NA,NA,NA,NA,NA,NA,NA,NA,NA,NA,NA,NA,NA,NA,NA,NA,NA,NA,NA,NA,NA,NA,NA,NA,NA,NA,NA,NA,NA,0,0,0,2,1,NA,NA,NA,NA,NA
SUPAMT14876,37UQDCYH63U8UJVJ6T5CQ7STVS87VZ,61634424-5962-4447-A000-A905683758BB,2023-09-26_09h15.42.964,WP_VExplicitOC_HL,2022.2.5,Win32,6.455194495,NA,NA,2.067,NA,NA,NA,NA,NA,happy,"unhappy, happy","less happy, more happy",NA,NA,NA,NA,NA,NA,NA,NA,NA,NA,NA,NA,NA,NA,NA,NA,NA,NA,NA,NA,NA,NA,NA,NA,NA,NA,NA,NA,NA,NA,NA,NA,NA,NA,NA,NA,NA,NA,0,1,1,0,1,NA,NA,NA,NA,NA
SUPAMT14876,37UQDCYH63U8UJVJ6T5CQ7STVS87VZ,61634424-5962-4447-A000-A905683758BB,2023-09-26_09h15.42.964,WP_VExplicitOC_HL,2022.2.5,Win32,6.455194495,NA,NA,2.0845,NA,NA,NA,NA,NA,frustrated,"frustrated, not frustrated","more frustrated, less frustrated",NA,NA,NA,NA,NA,NA,NA,NA,NA,NA,NA,NA,NA,NA,NA,NA,NA,NA,NA,NA,NA,NA,NA,NA,NA,NA,NA,NA,NA,NA,NA,NA,NA,NA,NA,NA,NA,NA,0,2,2,1,1,NA,NA,NA,NA,NA
SUPAMT14876,37UQDCYH63U8UJVJ6T5CQ7STVS87VZ,61634424-5962-4447-A000-A905683758BB,2023-09-26_09h15.42.964,WP_VExplicitOC_HL,2022.2.5,Win32,6.455194495,NA,NA,NA,NA,NA,NA,NA,NA,NA,NA,NA,NA,NA,NA,NA,NA,NA,NA,NA,NA,NA,NA,NA,NA,NA,NA,NA,NA,NA,NA,NA,NA,NA,NA,NA,NA,NA,NA,NA,NA,NA,NA,NA,NA,NA,NA,NA,NA,NA,NA,NA,NA,NA,NA,8,0,8,0,1
SUPAMT14876,37UQDCYH63U8UJVJ6T5CQ7STVS87VZ,61634424-5962-4447-A000-A905683758BB,2023-09-26_09h15.42.964,WP_VExplicitOC_HL,2022.2.5,Win32,6.455194495,52.88888889,4.5125,2.0262,NA,NA,NA,NA,NA,frustrated,"frustrated, not frustrated","more frustrated, less frustrated",NA,NA,NA,NA,NA,NA,NA,NA,NA,NA,NA,NA,NA,NA,NA,NA,NA,NA,NA,NA,NA,NA,NA,NA,NA,NA,NA,NA,NA,NA,NA,NA,NA,NA,NA,NA,NA,NA,0,0,0,1,1,NA,NA,NA,NA,NA
SUPAMT14876,37UQDCYH63U8UJVJ6T5CQ7STVS87VZ,61634424-5962-4447-A000-A905683758BB,2023-09-26_09h15.42.964,WP_VExplicitOC_HL,2022.2.5,Win32,6.455194495,62.22222222,6.4124,2.1127,NA,NA,NA,NA,NA,happy,"unhappy, happy","less happy, more happy",NA,NA,NA,NA,NA,NA,NA,NA,NA,NA,NA,NA,NA,NA,NA,NA,NA,NA,NA,NA,NA,NA,NA,NA,NA,NA,NA,NA,NA,NA,NA,NA,NA,NA,NA,NA,NA,NA,0,1,1,0,1,NA,NA,NA,NA,NA
SUPAMT14876,37UQDCYH63U8UJVJ6T5CQ7STVS87VZ,61634424-5962-4447-A000-A905683758BB,2023-09-26_09h15.42.964,WP_VExplicitOC_HL,2022.2.5,Win32,6.455194495,52,4.644,2.2552,NA,NA,NA,NA,NA,bored,"bored, not bored","more bored, less bored",NA,NA,NA,NA,NA,NA,NA,NA,NA,NA,NA,NA,NA,NA,NA,NA,NA,NA,NA,NA,NA,NA,NA,NA,NA,NA,NA,NA,NA,NA,NA,NA,NA,NA,NA,NA,NA,NA,0,2,2,2,1,NA,NA,NA,NA,NA
SUPAMT14876,37UQDCYH63U8UJVJ6T5CQ7STVS87VZ,61634424-5962-4447-A000-A905683758BB,2023-09-26_09h15.42.964,WP_VExplicitOC_HL,2022.2.5,Win32,6.455194495,NA,NA,NA,NA,NA,NA,NA,NA,NA,NA,NA,NA,NA,NA,NA,NA,NA,NA,NA,NA,NA,NA,NA,NA,NA,NA,NA,NA,NA,NA,NA,NA,NA,NA,NA,NA,NA,NA,NA,NA,NA,NA,NA,NA,NA,NA,NA,NA,NA,NA,NA,NA,NA,NA,9,0,9,0,1
SUPAMT14876,37UQDCYH63U8UJVJ6T5CQ7STVS87VZ,61634424-5962-4447-A000-A905683758BB,2023-09-26_09h15.42.964,WP_VExplicitOC_HL,2022.2.5,Win32,6.455194495,NA,NA,2.1882,NA,NA,NA,NA,NA,happy,"unhappy, happy","less happy, more happy",NA,NA,NA,NA,NA,NA,NA,NA,NA,NA,NA,NA,NA,NA,NA,NA,NA,NA,NA,NA,NA,NA,NA,NA,NA,NA,NA,NA,NA,NA,NA,NA,NA,NA,NA,NA,NA,NA,0,0,0,0,1,NA,NA,NA,NA,NA
SUPAMT14876,37UQDCYH63U8UJVJ6T5CQ7STVS87VZ,61634424-5962-4447-A000-A905683758BB,2023-09-26_09h15.42.964,WP_VExplicitOC_HL,2022.2.5,Win32,6.455194495,55.11111111,4.8471,2.1617,NA,NA,NA,NA,NA,bored,"bored, not bored","more bored, less bored",NA,NA,NA,NA,NA,NA,NA,NA,NA,NA,NA,NA,NA,NA,NA,NA,NA,NA,NA,NA,NA,NA,NA,NA,NA,NA,NA,NA,NA,NA,NA,NA,NA,NA,NA,NA,NA,NA,0,1,1,2,1,NA,NA,NA,NA,NA
SUPAMT14876,37UQDCYH63U8UJVJ6T5CQ7STVS87VZ,61634424-5962-4447-A000-A905683758BB,2023-09-26_09h15.42.964,WP_VExplicitOC_HL,2022.2.5,Win32,6.455194495,55.11111111,3.9765,2.0282,NA,NA,NA,NA,NA,frustrated,"frustrated, not frustrated","more frustrated, less frustrated",NA,NA,NA,NA,NA,NA,NA,NA,NA,NA,NA,NA,NA,NA,NA,NA,NA,NA,NA,NA,NA,NA,NA,NA,NA,NA,NA,NA,NA,NA,NA,NA,NA,NA,NA,NA,NA,NA,0,2,2,1,1,NA,NA,NA,NA,NA
SUPAMT14876,37UQDCYH63U8UJVJ6T5CQ7STVS87VZ,61634424-5962-4447-A000-A905683758BB,2023-09-26_09h15.42.964,WP_VExplicitOC_HL,2022.2.5,Win32,6.455194495,NA,NA,NA,NA,NA,NA,NA,NA,NA,NA,NA,NA,NA,NA,NA,NA,NA,NA,NA,NA,NA,NA,NA,NA,NA,NA,NA,NA,NA,NA,NA,NA,NA,NA,NA,NA,NA,NA,NA,NA,NA,NA,NA,NA,NA,NA,NA,NA,NA,NA,NA,NA,NA,NA,10,0,10,0,1
SUPAMT14876,37UQDCYH63U8UJVJ6T5CQ7STVS87VZ,61634424-5962-4447-A000-A905683758BB,2023-09-26_09h15.42.964,WP_VExplicitOC_HL,2022.2.5,Win32,6.455194495,NA,NA,2.0278,NA,NA,NA,NA,NA,happy,"unhappy, happy","less happy, more happy",NA,NA,NA,NA,NA,NA,NA,NA,NA,NA,NA,NA,NA,NA,NA,NA,NA,NA,NA,NA,NA,NA,NA,NA,NA,NA,NA,NA,NA,NA,NA,NA,NA,NA,NA,NA,NA,NA,0,0,0,0,1,NA,NA,NA,NA,NA
SUPAMT14876,37UQDCYH63U8UJVJ6T5CQ7STVS87VZ,61634424-5962-4447-A000-A905683758BB,2023-09-26_09h15.42.964,WP_VExplicitOC_HL,2022.2.5,Win32,6.455194495,NA,NA,2.2496,NA,NA,NA,NA,NA,bored,"bored, not bored","more bored, less bored",NA,NA,NA,NA,NA,NA,NA,NA,NA,NA,NA,NA,NA,NA,NA,NA,NA,NA,NA,NA,NA,NA,NA,NA,NA,NA,NA,NA,NA,NA,NA,NA,NA,NA,NA,NA,NA,NA,0,1,1,2,1,NA,NA,NA,NA,NA
SUPAMT14876,37UQDCYH63U8UJVJ6T5CQ7STVS87VZ,61634424-5962-4447-A000-A905683758BB,2023-09-26_09h15.42.964,WP_VExplicitOC_HL,2022.2.5,Win32,6.455194495,NA,NA,2.0027,NA,NA,NA,NA,NA,frustrated,"frustrated, not frustrated","more frustrated, less frustrated",NA,NA,NA,NA,NA,NA,NA,NA,NA,NA,NA,NA,NA,NA,NA,NA,NA,NA,NA,NA,NA,NA,NA,NA,NA,NA,NA,NA,NA,NA,NA,NA,NA,NA,NA,NA,NA,NA,0,2,2,1,1,NA,NA,NA,NA,NA
SUPAMT14876,37UQDCYH63U8UJVJ6T5CQ7STVS87VZ,61634424-5962-4447-A000-A905683758BB,2023-09-26_09h15.42.964,WP_VExplicitOC_HL,2022.2.5,Win32,6.455194495,NA,NA,NA,NA,NA,NA,NA,NA,NA,NA,NA,NA,NA,NA,NA,NA,NA,NA,NA,NA,NA,NA,NA,NA,NA,NA,NA,NA,NA,NA,NA,NA,NA,NA,NA,NA,NA,NA,NA,NA,NA,NA,NA,NA,NA,NA,NA,NA,NA,NA,NA,NA,NA,NA,11,0,11,0,1
SUPAMT14876,37UQDCYH63U8UJVJ6T5CQ7STVS87VZ,61634424-5962-4447-A000-A905683758BB,2023-09-26_09h15.42.964,WP_VExplicitOC_HL,2022.2.5,Win32,6.455194495,NA,NA,2.0907,NA,NA,NA,NA,NA,bored,"bored, not bored","more bored, less bored",NA,NA,NA,NA,NA,NA,NA,NA,NA,NA,NA,NA,NA,NA,NA,NA,NA,NA,NA,NA,NA,NA,NA,NA,NA,NA,NA,NA,NA,NA,NA,NA,NA,NA,NA,NA,NA,NA,0,0,0,2,1,NA,NA,NA,NA,NA
SUPAMT14876,37UQDCYH63U8UJVJ6T5CQ7STVS87VZ,61634424-5962-4447-A000-A905683758BB,2023-09-26_09h15.42.964,WP_VExplicitOC_HL,2022.2.5,Win32,6.455194495,NA,NA,2.1841,NA,NA,NA,NA,NA,happy,"unhappy, happy","less happy, more happy",NA,NA,NA,NA,NA,NA,NA,NA,NA,NA,NA,NA,NA,NA,NA,NA,NA,NA,NA,NA,NA,NA,NA,NA,NA,NA,NA,NA,NA,NA,NA,NA,NA,NA,NA,NA,NA,NA,0,1,1,0,1,NA,NA,NA,NA,NA
SUPAMT14876,37UQDCYH63U8UJVJ6T5CQ7STVS87VZ,61634424-5962-4447-A000-A905683758BB,2023-09-26_09h15.42.964,WP_VExplicitOC_HL,2022.2.5,Win32,6.455194495,NA,NA,2.1321,NA,NA,NA,NA,NA,frustrated,"frustrated, not frustrated","more frustrated, less frustrated",NA,NA,NA,NA,NA,NA,NA,NA,NA,NA,NA,NA,NA,NA,NA,NA,NA,NA,NA,NA,NA,NA,NA,NA,NA,NA,NA,NA,NA,NA,NA,NA,NA,NA,NA,NA,NA,NA,0,2,2,1,1,NA,NA,NA,NA,NA
SUPAMT14876,37UQDCYH63U8UJVJ6T5CQ7STVS87VZ,61634424-5962-4447-A000-A905683758BB,2023-09-26_09h15.42.964,WP_VExplicitOC_HL,2022.2.5,Win32,6.455194495,NA,NA,NA,NA,NA,NA,NA,NA,NA,NA,NA,NA,NA,NA,NA,NA,NA,NA,NA,NA,NA,NA,NA,NA,NA,NA,NA,NA,NA,NA,NA,NA,NA,NA,NA,NA,NA,NA,NA,NA,NA,NA,NA,NA,NA,NA,NA,NA,NA,NA,NA,NA,NA,NA,12,0,12,0,1
SUPAMT14876,37UQDCYH63U8UJVJ6T5CQ7STVS87VZ,61634424-5962-4447-A000-A905683758BB,2023-09-26_09h15.42.964,WP_VExplicitOC_HL,2022.2.5,Win32,6.455194495,68.44444444,4.5481,2.1549,NA,NA,NA,NA,NA,frustrated,"frustrated, not frustrated","more frustrated, less frustrated",NA,NA,NA,NA,NA,NA,NA,NA,NA,NA,NA,NA,NA,NA,NA,NA,NA,NA,NA,NA,NA,NA,NA,NA,NA,NA,NA,NA,NA,NA,NA,NA,NA,NA,NA,NA,NA,NA,0,0,0,1,1,NA,NA,NA,NA,NA
SUPAMT14876,37UQDCYH63U8UJVJ6T5CQ7STVS87VZ,61634424-5962-4447-A000-A905683758BB,2023-09-26_09h15.42.964,WP_VExplicitOC_HL,2022.2.5,Win32,6.455194495,68.44444444,3.7315,2.3434,NA,NA,NA,NA,NA,happy,"unhappy, happy","less happy, more happy",NA,NA,NA,NA,NA,NA,NA,NA,NA,NA,NA,NA,NA,NA,NA,NA,NA,NA,NA,NA,NA,NA,NA,NA,NA,NA,NA,NA,NA,NA,NA,NA,NA,NA,NA,NA,NA,NA,0,1,1,0,1,NA,NA,NA,NA,NA
SUPAMT14876,37UQDCYH63U8UJVJ6T5CQ7STVS87VZ,61634424-5962-4447-A000-A905683758BB,2023-09-26_09h15.42.964,WP_VExplicitOC_HL,2022.2.5,Win32,6.455194495,68.44444444,4.1989,2.1743,NA,NA,NA,NA,NA,bored,"bored, not bored","more bored, less bored",NA,NA,NA,NA,NA,NA,NA,NA,NA,NA,NA,NA,NA,NA,NA,NA,NA,NA,NA,NA,NA,NA,NA,NA,NA,NA,NA,NA,NA,NA,NA,NA,NA,NA,NA,NA,NA,NA,0,2,2,2,1,NA,NA,NA,NA,NA
SUPAMT14876,37UQDCYH63U8UJVJ6T5CQ7STVS87VZ,61634424-5962-4447-A000-A905683758BB,2023-09-26_09h15.42.964,WP_VExplicitOC_HL,2022.2.5,Win32,6.455194495,NA,NA,NA,NA,NA,NA,NA,NA,NA,NA,NA,NA,NA,NA,NA,NA,NA,NA,NA,NA,NA,NA,NA,NA,NA,NA,NA,NA,NA,NA,NA,NA,NA,NA,NA,NA,NA,NA,NA,NA,NA,NA,NA,NA,NA,NA,NA,NA,NA,NA,NA,NA,NA,NA,13,0,13,0,1
SUPAMT14876,37UQDCYH63U8UJVJ6T5CQ7STVS87VZ,61634424-5962-4447-A000-A905683758BB,2023-09-26_09h15.42.964,WP_VExplicitOC_HL,2022.2.5,Win32,6.455194495,46.22222222,4.6271,2.0742,NA,NA,NA,NA,NA,bored,"bored, not bored","more bored, less bored",NA,NA,NA,NA,NA,NA,NA,NA,NA,NA,NA,NA,NA,NA,NA,NA,NA,NA,NA,NA,NA,NA,NA,NA,NA,NA,NA,NA,NA,NA,NA,NA,NA,NA,NA,NA,NA,NA,0,0,0,2,1,NA,NA,NA,NA,NA
SUPAMT14876,37UQDCYH63U8UJVJ6T5CQ7STVS87VZ,61634424-5962-4447-A000-A905683758BB,2023-09-26_09h15.42.964,WP_VExplicitOC_HL,2022.2.5,Win32,6.455194495,51.11111111,3.324,2.0608,NA,NA,NA,NA,NA,frustrated,"frustrated, not frustrated","more frustrated, less frustrated",NA,NA,NA,NA,NA,NA,NA,NA,NA,NA,NA,NA,NA,NA,NA,NA,NA,NA,NA,NA,NA,NA,NA,NA,NA,NA,NA,NA,NA,NA,NA,NA,NA,NA,NA,NA,NA,NA,0,1,1,1,1,NA,NA,NA,NA,NA
SUPAMT14876,37UQDCYH63U8UJVJ6T5CQ7STVS87VZ,61634424-5962-4447-A000-A905683758BB,2023-09-26_09h15.42.964,WP_VExplicitOC_HL,2022.2.5,Win32,6.455194495,55.33333333,3.285,2.1402,NA,NA,NA,NA,NA,happy,"unhappy, happy","less happy, more happy",NA,NA,NA,NA,NA,NA,NA,NA,NA,NA,NA,NA,NA,NA,NA,NA,NA,NA,NA,NA,NA,NA,NA,NA,NA,NA,NA,NA,NA,NA,NA,NA,NA,NA,NA,NA,NA,NA,0,2,2,0,1,NA,NA,NA,NA,NA
SUPAMT14876,37UQDCYH63U8UJVJ6T5CQ7STVS87VZ,61634424-5962-4447-A000-A905683758BB,2023-09-26_09h15.42.964,WP_VExplicitOC_HL,2022.2.5,Win32,6.455194495,NA,NA,NA,NA,NA,NA,NA,NA,NA,NA,NA,NA,NA,NA,NA,NA,NA,NA,NA,NA,NA,NA,NA,NA,NA,NA,NA,NA,NA,NA,NA,NA,NA,NA,NA,NA,NA,NA,NA,NA,NA,NA,NA,NA,NA,NA,NA,NA,NA,NA,NA,NA,NA,NA,14,0,14,0,1
SUPAMT14876,37UQDCYH63U8UJVJ6T5CQ7STVS87VZ,61634424-5962-4447-A000-A905683758BB,2023-09-26_09h15.42.964,WP_VExplicitOC_HL,2022.2.5,Win32,6.455194495,NA,NA,NA,NA,NA,NA,NA,NA,NA,NA,NA,NA,NA,NA,NA,NA,NA,NA,NA,NA,NA,NA,NA,NA,NA,NA,NA,NA,NA,NA,NA,NA,NA,NA,NA,NA,NA,NA,NA,NA,NA,NA,NA,NA,NA,NA,NA,NA,NA,NA,NA,NA,NA,NA,NA,NA,NA,NA,NA
