participant,session,completion,date,expName,psychopyVersion,OS,frameRate,rating_all.response,rating_all.rt,rating_all.tStart,rndRat1.thisRepN,rndRat1.thisTrialN,rndRat1.thisN,rndRat1.thisIndex,rndRat1.ran,Emo,Labs,Labs2,rating_alt.response,rating_alt.rt,AltC.thisRepN,AltC.thisTrialN,AltC.thisN,AltC.thisIndex,AltC.ran,alt_choices,pic_choices,TopAlt_Choice,rndRat2.thisRepN,rndRat2.thisTrialN,rndRat2.thisN,rndRat2.thisIndex,rndRat2.ran,rndRat3.thisRepN,rndRat3.thisTrialN,rndRat3.thisN,rndRat3.thisIndex,rndRat3.ran,trials_FC_H.thisRepN,trials_FC_H.thisTrialN,trials_FC_H.thisN,trials_FC_H.thisIndex,trials_FC_H.ran,rating_alt_2.response,rating_alt_2.rt,AltC2.thisRepN,AltC2.thisTrialN,AltC2.thisN,AltC2.thisIndex,AltC2.ran,BottomAlt_Choice,rndRat4.thisRepN,rndRat4.thisTrialN,rndRat4.thisN,rndRat4.thisIndex,rndRat4.ran,rndRat5.thisRepN,rndRat5.thisTrialN,rndRat5.thisN,rndRat5.thisIndex,rndRat5.ran,trials_FC_L.thisRepN,trials_FC_L.thisTrialN,trials_FC_L.thisN,trials_FC_L.thisIndex,trials_FC_L.ran
SUPAMT63488,NA,82AA42CC-434B-4F6A-9497-B8F183693BAA,2023-09-26_06h37.03.358,WP_VExplicitOC_HL,2022.2.5,Win32,21.03536044,NA,NA,NA,NA,NA,NA,NA,NA,NA,NA,NA,NA,NA,NA,NA,NA,NA,NA,NA,NA,NA,NA,NA,NA,NA,NA,NA,NA,NA,NA,NA,NA,NA,NA,NA,NA,NA,NA,NA,NA,NA,NA,NA,NA,NA,NA,NA,NA,NA,NA,NA,NA,NA,NA,NA,NA,NA,NA,NA
SUPAMT63488,NA,82AA42CC-434B-4F6A-9497-B8F183693BAA,2023-09-26_06h37.03.358,WP_VExplicitOC_HL,2022.2.5,Win32,21.03536044,NA,NA,NA,NA,NA,NA,NA,NA,NA,NA,NA,NA,NA,NA,NA,NA,NA,NA,NA,NA,NA,NA,NA,NA,NA,NA,NA,NA,NA,NA,NA,NA,NA,NA,NA,NA,NA,NA,NA,NA,NA,NA,NA,NA,NA,NA,NA,NA,NA,NA,NA,NA,NA,NA,NA,NA,NA,NA,NA
SUPAMT63488,NA,82AA42CC-434B-4F6A-9497-B8F183693BAA,2023-09-26_06h37.03.358,WP_VExplicitOC_HL,2022.2.5,Win32,21.03536044,NA,NA,NA,NA,NA,NA,NA,NA,NA,NA,NA,NA,NA,NA,NA,NA,NA,NA,NA,NA,NA,NA,NA,NA,NA,NA,NA,NA,NA,NA,NA,NA,NA,NA,NA,NA,NA,NA,NA,NA,NA,NA,NA,NA,NA,NA,NA,NA,NA,NA,NA,NA,NA,NA,NA,NA,NA,NA,NA
SUPAMT63488,NA,82AA42CC-434B-4F6A-9497-B8F183693BAA,2023-09-26_06h37.03.358,WP_VExplicitOC_HL,2022.2.5,Win32,21.03536044,20.5078125,3.0798,2.027,0,0,0,0,1,happy,"unhappy, happy","less happy, more happy",NA,NA,NA,NA,NA,NA,NA,NA,NA,NA,NA,NA,NA,NA,NA,NA,NA,NA,NA,NA,NA,NA,NA,NA,NA,NA,NA,NA,NA,NA,NA,NA,NA,NA,NA,NA,NA,NA,NA,NA,NA,NA,NA,NA,NA,NA,NA,NA
SUPAMT63488,NA,82AA42CC-434B-4F6A-9497-B8F183693BAA,2023-09-26_06h37.03.358,WP_VExplicitOC_HL,2022.2.5,Win32,21.03536044,39.84375,3.0625,2.0398,0,1,1,2,1,bored,"bored, not bored","more bored, less bored",NA,NA,NA,NA,NA,NA,NA,NA,NA,NA,NA,NA,NA,NA,NA,NA,NA,NA,NA,NA,NA,NA,NA,NA,NA,NA,NA,NA,NA,NA,NA,NA,NA,NA,NA,NA,NA,NA,NA,NA,NA,NA,NA,NA,NA,NA,NA,NA
SUPAMT63488,NA,82AA42CC-434B-4F6A-9497-B8F183693BAA,2023-09-26_06h37.03.358,WP_VExplicitOC_HL,2022.2.5,Win32,21.03536044,39.84375,2.9084,2.0095,0,2,2,1,1,frustrated,"frustrated, not frustrated","more frustrated, less frustrated",NA,NA,NA,NA,NA,NA,NA,NA,NA,NA,NA,NA,NA,NA,NA,NA,NA,NA,NA,NA,NA,NA,NA,NA,NA,NA,NA,NA,NA,NA,NA,NA,NA,NA,NA,NA,NA,NA,NA,NA,NA,NA,NA,NA,NA,NA,NA,NA
SUPAMT63488,NA,82AA42CC-434B-4F6A-9497-B8F183693BAA,2023-09-26_06h37.03.358,WP_VExplicitOC_HL,2022.2.5,Win32,21.03536044,NA,NA,NA,NA,NA,NA,NA,NA,NA,NA,NA,NA,NA,NA,NA,NA,NA,NA,NA,NA,NA,NA,NA,NA,NA,NA,NA,NA,NA,NA,NA,NA,NA,NA,NA,NA,NA,NA,NA,NA,NA,NA,NA,NA,NA,NA,NA,NA,NA,NA,NA,NA,NA,NA,NA,NA,NA,NA,NA
SUPAMT63488,NA,82AA42CC-434B-4F6A-9497-B8F183693BAA,2023-09-26_06h37.03.358,WP_VExplicitOC_HL,2022.2.5,Win32,21.03536044,NA,NA,NA,NA,NA,NA,NA,NA,NA,NA,NA,NA,NA,NA,NA,NA,NA,NA,NA,NA,NA,NA,NA,NA,NA,NA,NA,NA,NA,NA,NA,NA,NA,NA,NA,NA,NA,NA,NA,NA,NA,NA,NA,NA,NA,NA,NA,NA,NA,NA,NA,NA,NA,NA,NA,NA,NA,NA,NA
SUPAMT63488,NA,82AA42CC-434B-4F6A-9497-B8F183693BAA,2023-09-26_06h37.03.358,WP_VExplicitOC_HL,2022.2.5,Win32,21.03536044,NA,NA,NA,NA,NA,NA,NA,NA,NA,NA,NA,NA,NA,NA,NA,NA,NA,NA,NA,NA,NA,NA,NA,NA,NA,NA,NA,NA,NA,NA,NA,NA,NA,NA,NA,NA,NA,NA,NA,NA,NA,NA,NA,NA,NA,NA,NA,NA,NA,NA,NA,NA,NA,NA,NA,NA,NA,NA,NA
SUPAMT63488,NA,82AA42CC-434B-4F6A-9497-B8F183693BAA,2023-09-26_06h37.03.358,WP_VExplicitOC_HL,2022.2.5,Win32,21.03536044,NA,NA,NA,NA,NA,NA,NA,NA,NA,NA,NA,NA,NA,NA,NA,NA,NA,NA,NA,NA,NA,NA,NA,NA,NA,NA,NA,NA,NA,NA,NA,NA,NA,NA,NA,NA,NA,NA,NA,NA,NA,NA,NA,NA,NA,NA,NA,NA,NA,NA,NA,NA,NA,NA,NA,NA,NA,NA,NA
SUPAMT63488,NA,82AA42CC-434B-4F6A-9497-B8F183693BAA,2023-09-26_06h37.03.358,WP_VExplicitOC_HL,2022.2.5,Win32,21.03536044,NA,NA,NA,NA,NA,NA,NA,NA,NA,NA,NA,20.1171875,1.4092,0,0,0,0,1,rest (looking at a fixed cross),001.png,NA,NA,NA,NA,NA,NA,NA,NA,NA,NA,NA,NA,NA,NA,NA,NA,NA,NA,NA,NA,NA,NA,NA,NA,NA,NA,NA,NA,NA,NA,NA,NA,NA,NA,NA,NA,NA,NA,NA
SUPAMT63488,NA,82AA42CC-434B-4F6A-9497-B8F183693BAA,2023-09-26_06h37.03.358,WP_VExplicitOC_HL,2022.2.5,Win32,21.03536044,NA,NA,NA,NA,NA,NA,NA,NA,NA,NA,NA,32.2265625,0.9419,0,1,1,1,1,stand up,002.png,NA,NA,NA,NA,NA,NA,NA,NA,NA,NA,NA,NA,NA,NA,NA,NA,NA,NA,NA,NA,NA,NA,NA,NA,NA,NA,NA,NA,NA,NA,NA,NA,NA,NA,NA,NA,NA,NA,NA
SUPAMT63488,NA,82AA42CC-434B-4F6A-9497-B8F183693BAA,2023-09-26_06h37.03.358,WP_VExplicitOC_HL,2022.2.5,Win32,21.03536044,NA,NA,NA,NA,NA,NA,NA,NA,NA,NA,NA,-20.703125,1.1954,0,2,2,2,1,stretch,003.png,NA,NA,NA,NA,NA,NA,NA,NA,NA,NA,NA,NA,NA,NA,NA,NA,NA,NA,NA,NA,NA,NA,NA,NA,NA,NA,NA,NA,NA,NA,NA,NA,NA,NA,NA,NA,NA,NA,NA
SUPAMT63488,NA,82AA42CC-434B-4F6A-9497-B8F183693BAA,2023-09-26_06h37.03.358,WP_VExplicitOC_HL,2022.2.5,Win32,21.03536044,NA,NA,NA,NA,NA,NA,NA,NA,NA,NA,NA,33.59375,0.7822,0,3,3,3,1,make a drink,004.png,NA,NA,NA,NA,NA,NA,NA,NA,NA,NA,NA,NA,NA,NA,NA,NA,NA,NA,NA,NA,NA,NA,NA,NA,NA,NA,NA,NA,NA,NA,NA,NA,NA,NA,NA,NA,NA,NA,NA
SUPAMT63488,NA,82AA42CC-434B-4F6A-9497-B8F183693BAA,2023-09-26_06h37.03.358,WP_VExplicitOC_HL,2022.2.5,Win32,21.03536044,NA,NA,NA,NA,NA,NA,NA,NA,NA,NA,NA,33.203125,0.8822,0,4,4,4,1,scroll social media,005.png,NA,NA,NA,NA,NA,NA,NA,NA,NA,NA,NA,NA,NA,NA,NA,NA,NA,NA,NA,NA,NA,NA,NA,NA,NA,NA,NA,NA,NA,NA,NA,NA,NA,NA,NA,NA,NA,NA,NA
SUPAMT63488,NA,82AA42CC-434B-4F6A-9497-B8F183693BAA,2023-09-26_06h37.03.358,WP_VExplicitOC_HL,2022.2.5,Win32,21.03536044,NA,NA,NA,NA,NA,NA,NA,NA,NA,NA,NA,-35.15625,0.8553,0,5,5,5,1,listen to music,006.png,NA,NA,NA,NA,NA,NA,NA,NA,NA,NA,NA,NA,NA,NA,NA,NA,NA,NA,NA,NA,NA,NA,NA,NA,NA,NA,NA,NA,NA,NA,NA,NA,NA,NA,NA,NA,NA,NA,NA
SUPAMT63488,NA,82AA42CC-434B-4F6A-9497-B8F183693BAA,2023-09-26_06h37.03.358,WP_VExplicitOC_HL,2022.2.5,Win32,21.03536044,NA,NA,NA,NA,NA,NA,NA,NA,NA,NA,NA,61.1328125,1.6615,0,6,6,6,1,daydream,007.png,NA,NA,NA,NA,NA,NA,NA,NA,NA,NA,NA,NA,NA,NA,NA,NA,NA,NA,NA,NA,NA,NA,NA,NA,NA,NA,NA,NA,NA,NA,NA,NA,NA,NA,NA,NA,NA,NA,NA
SUPAMT63488,NA,82AA42CC-434B-4F6A-9497-B8F183693BAA,2023-09-26_06h37.03.358,WP_VExplicitOC_HL,2022.2.5,Win32,21.03536044,NA,NA,NA,NA,NA,NA,NA,NA,NA,NA,NA,-34.9609375,1.7236,0,7,7,7,1,watch a short animation,008.png,NA,NA,NA,NA,NA,NA,NA,NA,NA,NA,NA,NA,NA,NA,NA,NA,NA,NA,NA,NA,NA,NA,NA,NA,NA,NA,NA,NA,NA,NA,NA,NA,NA,NA,NA,NA,NA,NA,NA
SUPAMT63488,NA,82AA42CC-434B-4F6A-9497-B8F183693BAA,2023-09-26_06h37.03.358,WP_VExplicitOC_HL,2022.2.5,Win32,21.03536044,NA,NA,NA,NA,NA,NA,NA,NA,NA,NA,NA,-35.15625,1.5389,0,8,8,8,1,read a novel,009.png,NA,NA,NA,NA,NA,NA,NA,NA,NA,NA,NA,NA,NA,NA,NA,NA,NA,NA,NA,NA,NA,NA,NA,NA,NA,NA,NA,NA,NA,NA,NA,NA,NA,NA,NA,NA,NA,NA,NA
SUPAMT63488,NA,82AA42CC-434B-4F6A-9497-B8F183693BAA,2023-09-26_06h37.03.358,WP_VExplicitOC_HL,2022.2.5,Win32,21.03536044,NA,NA,NA,NA,NA,NA,NA,NA,NA,NA,NA,41.9921875,1.4311,0,9,9,9,1,read the news,010.png,NA,NA,NA,NA,NA,NA,NA,NA,NA,NA,NA,NA,NA,NA,NA,NA,NA,NA,NA,NA,NA,NA,NA,NA,NA,NA,NA,NA,NA,NA,NA,NA,NA,NA,NA,NA,NA,NA,NA
SUPAMT63488,NA,82AA42CC-434B-4F6A-9497-B8F183693BAA,2023-09-26_06h37.03.358,WP_VExplicitOC_HL,2022.2.5,Win32,21.03536044,NA,NA,NA,NA,NA,NA,NA,NA,NA,NA,NA,NA,NA,NA,NA,NA,NA,NA,NA,NA,NA,NA,NA,NA,NA,NA,NA,NA,NA,NA,NA,NA,NA,NA,NA,NA,NA,NA,NA,NA,NA,NA,NA,NA,NA,NA,NA,NA,NA,NA,NA,NA,NA,NA,NA,NA,NA,NA,NA
SUPAMT63488,NA,82AA42CC-434B-4F6A-9497-B8F183693BAA,2023-09-26_06h37.03.358,WP_VExplicitOC_HL,2022.2.5,Win32,21.03536044,NA,NA,NA,NA,NA,NA,NA,NA,NA,NA,NA,NA,NA,NA,NA,NA,NA,NA,NA,NA,daydream,NA,NA,NA,NA,NA,NA,NA,NA,NA,NA,NA,NA,NA,NA,NA,NA,NA,NA,NA,NA,NA,NA,NA,NA,NA,NA,NA,NA,NA,NA,NA,NA,NA,NA,NA,NA,NA,NA
SUPAMT63488,NA,82AA42CC-434B-4F6A-9497-B8F183693BAA,2023-09-26_06h37.03.358,WP_VExplicitOC_HL,2022.2.5,Win32,21.03536044,25.9765625,3.1253,2.0348,NA,NA,NA,NA,NA,happy,"unhappy, happy","less happy, more happy",NA,NA,NA,NA,NA,NA,NA,NA,NA,NA,0,0,0,0,1,NA,NA,NA,NA,NA,NA,NA,NA,NA,NA,NA,NA,NA,NA,NA,NA,NA,NA,NA,NA,NA,NA,NA,NA,NA,NA,NA,NA,NA,NA,NA,NA,NA
SUPAMT63488,NA,82AA42CC-434B-4F6A-9497-B8F183693BAA,2023-09-26_06h37.03.358,WP_VExplicitOC_HL,2022.2.5,Win32,21.03536044,41.796875,2.889,2.0436,NA,NA,NA,NA,NA,frustrated,"frustrated, not frustrated","more frustrated, less frustrated",NA,NA,NA,NA,NA,NA,NA,NA,NA,NA,0,1,1,1,1,NA,NA,NA,NA,NA,NA,NA,NA,NA,NA,NA,NA,NA,NA,NA,NA,NA,NA,NA,NA,NA,NA,NA,NA,NA,NA,NA,NA,NA,NA,NA,NA,NA
SUPAMT63488,NA,82AA42CC-434B-4F6A-9497-B8F183693BAA,2023-09-26_06h37.03.358,WP_VExplicitOC_HL,2022.2.5,Win32,21.03536044,-28.3203125,3.0886,2.0415,NA,NA,NA,NA,NA,bored,"bored, not bored","more bored, less bored",NA,NA,NA,NA,NA,NA,NA,NA,NA,NA,0,2,2,2,1,NA,NA,NA,NA,NA,NA,NA,NA,NA,NA,NA,NA,NA,NA,NA,NA,NA,NA,NA,NA,NA,NA,NA,NA,NA,NA,NA,NA,NA,NA,NA,NA,NA
SUPAMT63488,NA,82AA42CC-434B-4F6A-9497-B8F183693BAA,2023-09-26_06h37.03.358,WP_VExplicitOC_HL,2022.2.5,Win32,21.03536044,NA,NA,NA,NA,NA,NA,NA,NA,NA,NA,NA,NA,NA,NA,NA,NA,NA,NA,NA,NA,NA,NA,NA,NA,NA,NA,NA,NA,NA,NA,NA,NA,NA,NA,NA,NA,NA,NA,NA,NA,NA,NA,NA,NA,NA,NA,NA,NA,NA,NA,NA,NA,NA,NA,NA,NA,NA,NA,NA
SUPAMT63488,NA,82AA42CC-434B-4F6A-9497-B8F183693BAA,2023-09-26_06h37.03.358,WP_VExplicitOC_HL,2022.2.5,Win32,21.03536044,NA,NA,NA,NA,NA,NA,NA,NA,NA,NA,NA,NA,NA,NA,NA,NA,NA,NA,NA,NA,NA,NA,NA,NA,NA,NA,NA,NA,NA,NA,NA,NA,NA,NA,NA,NA,NA,NA,NA,NA,NA,NA,NA,NA,NA,NA,NA,NA,NA,NA,NA,NA,NA,NA,NA,NA,NA,NA,NA
SUPAMT63488,NA,82AA42CC-434B-4F6A-9497-B8F183693BAA,2023-09-26_06h37.03.358,WP_VExplicitOC_HL,2022.2.5,Win32,21.03536044,26.3671875,3.9998,2.0328,NA,NA,NA,NA,NA,frustrated,"frustrated, not frustrated","more frustrated, less frustrated",NA,NA,NA,NA,NA,NA,NA,NA,NA,NA,NA,NA,NA,NA,NA,0,0,0,1,1,NA,NA,NA,NA,NA,NA,NA,NA,NA,NA,NA,NA,NA,NA,NA,NA,NA,NA,NA,NA,NA,NA,NA,NA,NA,NA,NA,NA
SUPAMT63488,NA,82AA42CC-434B-4F6A-9497-B8F183693BAA,2023-09-26_06h37.03.358,WP_VExplicitOC_HL,2022.2.5,Win32,21.03536044,48.2421875,3.0288,2.0371,NA,NA,NA,NA,NA,happy,"unhappy, happy","less happy, more happy",NA,NA,NA,NA,NA,NA,NA,NA,NA,NA,NA,NA,NA,NA,NA,0,1,1,0,1,NA,NA,NA,NA,NA,NA,NA,NA,NA,NA,NA,NA,NA,NA,NA,NA,NA,NA,NA,NA,NA,NA,NA,NA,NA,NA,NA,NA
SUPAMT63488,NA,82AA42CC-434B-4F6A-9497-B8F183693BAA,2023-09-26_06h37.03.358,WP_VExplicitOC_HL,2022.2.5,Win32,21.03536044,41.2109375,3.1331,2.0153,NA,NA,NA,NA,NA,bored,"bored, not bored","more bored, less bored",NA,NA,NA,NA,NA,NA,NA,NA,NA,NA,NA,NA,NA,NA,NA,0,2,2,2,1,NA,NA,NA,NA,NA,NA,NA,NA,NA,NA,NA,NA,NA,NA,NA,NA,NA,NA,NA,NA,NA,NA,NA,NA,NA,NA,NA,NA
SUPAMT63488,NA,82AA42CC-434B-4F6A-9497-B8F183693BAA,2023-09-26_06h37.03.358,WP_VExplicitOC_HL,2022.2.5,Win32,21.03536044,NA,NA,NA,NA,NA,NA,NA,NA,NA,NA,NA,NA,NA,NA,NA,NA,NA,NA,NA,NA,NA,NA,NA,NA,NA,NA,NA,NA,NA,NA,NA,0,0,0,0,1,NA,NA,NA,NA,NA,NA,NA,NA,NA,NA,NA,NA,NA,NA,NA,NA,NA,NA,NA,NA,NA,NA,NA
SUPAMT63488,NA,82AA42CC-434B-4F6A-9497-B8F183693BAA,2023-09-26_06h37.03.358,WP_VExplicitOC_HL,2022.2.5,Win32,21.03536044,27.34375,3.1826,2.0062,NA,NA,NA,NA,NA,happy,"unhappy, happy","less happy, more happy",NA,NA,NA,NA,NA,NA,NA,NA,NA,NA,NA,NA,NA,NA,NA,0,0,0,0,1,NA,NA,NA,NA,NA,NA,NA,NA,NA,NA,NA,NA,NA,NA,NA,NA,NA,NA,NA,NA,NA,NA,NA,NA,NA,NA,NA,NA
SUPAMT63488,NA,82AA42CC-434B-4F6A-9497-B8F183693BAA,2023-09-26_06h37.03.358,WP_VExplicitOC_HL,2022.2.5,Win32,21.03536044,47.265625,2.2925,2.0078,NA,NA,NA,NA,NA,bored,"bored, not bored","more bored, less bored",NA,NA,NA,NA,NA,NA,NA,NA,NA,NA,NA,NA,NA,NA,NA,0,1,1,2,1,NA,NA,NA,NA,NA,NA,NA,NA,NA,NA,NA,NA,NA,NA,NA,NA,NA,NA,NA,NA,NA,NA,NA,NA,NA,NA,NA,NA
SUPAMT63488,NA,82AA42CC-434B-4F6A-9497-B8F183693BAA,2023-09-26_06h37.03.358,WP_VExplicitOC_HL,2022.2.5,Win32,21.03536044,43.359375,4.0004,2.0196,NA,NA,NA,NA,NA,frustrated,"frustrated, not frustrated","more frustrated, less frustrated",NA,NA,NA,NA,NA,NA,NA,NA,NA,NA,NA,NA,NA,NA,NA,0,2,2,1,1,NA,NA,NA,NA,NA,NA,NA,NA,NA,NA,NA,NA,NA,NA,NA,NA,NA,NA,NA,NA,NA,NA,NA,NA,NA,NA,NA,NA
SUPAMT63488,NA,82AA42CC-434B-4F6A-9497-B8F183693BAA,2023-09-26_06h37.03.358,WP_VExplicitOC_HL,2022.2.5,Win32,21.03536044,NA,NA,NA,NA,NA,NA,NA,NA,NA,NA,NA,NA,NA,NA,NA,NA,NA,NA,NA,NA,NA,NA,NA,NA,NA,NA,NA,NA,NA,NA,NA,1,0,1,0,1,NA,NA,NA,NA,NA,NA,NA,NA,NA,NA,NA,NA,NA,NA,NA,NA,NA,NA,NA,NA,NA,NA,NA
SUPAMT63488,NA,82AA42CC-434B-4F6A-9497-B8F183693BAA,2023-09-26_06h37.03.358,WP_VExplicitOC_HL,2022.2.5,Win32,21.03536044,31.8359375,3.4908,2.0211,NA,NA,NA,NA,NA,happy,"unhappy, happy","less happy, more happy",NA,NA,NA,NA,NA,NA,NA,NA,NA,NA,NA,NA,NA,NA,NA,0,0,0,0,1,NA,NA,NA,NA,NA,NA,NA,NA,NA,NA,NA,NA,NA,NA,NA,NA,NA,NA,NA,NA,NA,NA,NA,NA,NA,NA,NA,NA
SUPAMT63488,NA,82AA42CC-434B-4F6A-9497-B8F183693BAA,2023-09-26_06h37.03.358,WP_VExplicitOC_HL,2022.2.5,Win32,21.03536044,42.96875,3.307,2.0539,NA,NA,NA,NA,NA,frustrated,"frustrated, not frustrated","more frustrated, less frustrated",NA,NA,NA,NA,NA,NA,NA,NA,NA,NA,NA,NA,NA,NA,NA,0,1,1,1,1,NA,NA,NA,NA,NA,NA,NA,NA,NA,NA,NA,NA,NA,NA,NA,NA,NA,NA,NA,NA,NA,NA,NA,NA,NA,NA,NA,NA
SUPAMT63488,NA,82AA42CC-434B-4F6A-9497-B8F183693BAA,2023-09-26_06h37.03.358,WP_VExplicitOC_HL,2022.2.5,Win32,21.03536044,42.96875,2.8775,2.025,NA,NA,NA,NA,NA,bored,"bored, not bored","more bored, less bored",NA,NA,NA,NA,NA,NA,NA,NA,NA,NA,NA,NA,NA,NA,NA,0,2,2,2,1,NA,NA,NA,NA,NA,NA,NA,NA,NA,NA,NA,NA,NA,NA,NA,NA,NA,NA,NA,NA,NA,NA,NA,NA,NA,NA,NA,NA
SUPAMT63488,NA,82AA42CC-434B-4F6A-9497-B8F183693BAA,2023-09-26_06h37.03.358,WP_VExplicitOC_HL,2022.2.5,Win32,21.03536044,NA,NA,NA,NA,NA,NA,NA,NA,NA,NA,NA,NA,NA,NA,NA,NA,NA,NA,NA,NA,NA,NA,NA,NA,NA,NA,NA,NA,NA,NA,NA,2,0,2,0,1,NA,NA,NA,NA,NA,NA,NA,NA,NA,NA,NA,NA,NA,NA,NA,NA,NA,NA,NA,NA,NA,NA,NA
SUPAMT63488,NA,82AA42CC-434B-4F6A-9497-B8F183693BAA,2023-09-26_06h37.03.358,WP_VExplicitOC_HL,2022.2.5,Win32,21.03536044,24.0234375,3.1799,2.0466,NA,NA,NA,NA,NA,bored,"bored, not bored","more bored, less bored",NA,NA,NA,NA,NA,NA,NA,NA,NA,NA,NA,NA,NA,NA,NA,0,0,0,2,1,NA,NA,NA,NA,NA,NA,NA,NA,NA,NA,NA,NA,NA,NA,NA,NA,NA,NA,NA,NA,NA,NA,NA,NA,NA,NA,NA,NA
SUPAMT63488,NA,82AA42CC-434B-4F6A-9497-B8F183693BAA,2023-09-26_06h37.03.358,WP_VExplicitOC_HL,2022.2.5,Win32,21.03536044,41.6015625,3.1377,2.0088,NA,NA,NA,NA,NA,happy,"unhappy, happy","less happy, more happy",NA,NA,NA,NA,NA,NA,NA,NA,NA,NA,NA,NA,NA,NA,NA,0,1,1,0,1,NA,NA,NA,NA,NA,NA,NA,NA,NA,NA,NA,NA,NA,NA,NA,NA,NA,NA,NA,NA,NA,NA,NA,NA,NA,NA,NA,NA
SUPAMT63488,NA,82AA42CC-434B-4F6A-9497-B8F183693BAA,2023-09-26_06h37.03.358,WP_VExplicitOC_HL,2022.2.5,Win32,21.03536044,-18.9453125,3.0348,2.0257,NA,NA,NA,NA,NA,frustrated,"frustrated, not frustrated","more frustrated, less frustrated",NA,NA,NA,NA,NA,NA,NA,NA,NA,NA,NA,NA,NA,NA,NA,0,2,2,1,1,NA,NA,NA,NA,NA,NA,NA,NA,NA,NA,NA,NA,NA,NA,NA,NA,NA,NA,NA,NA,NA,NA,NA,NA,NA,NA,NA,NA
SUPAMT63488,NA,82AA42CC-434B-4F6A-9497-B8F183693BAA,2023-09-26_06h37.03.358,WP_VExplicitOC_HL,2022.2.5,Win32,21.03536044,NA,NA,NA,NA,NA,NA,NA,NA,NA,NA,NA,NA,NA,NA,NA,NA,NA,NA,NA,NA,NA,NA,NA,NA,NA,NA,NA,NA,NA,NA,NA,3,0,3,0,1,NA,NA,NA,NA,NA,NA,NA,NA,NA,NA,NA,NA,NA,NA,NA,NA,NA,NA,NA,NA,NA,NA,NA
SUPAMT63488,NA,82AA42CC-434B-4F6A-9497-B8F183693BAA,2023-09-26_06h37.03.358,WP_VExplicitOC_HL,2022.2.5,Win32,21.03536044,27.9296875,3.3525,2.0339,NA,NA,NA,NA,NA,bored,"bored, not bored","more bored, less bored",NA,NA,NA,NA,NA,NA,NA,NA,NA,NA,NA,NA,NA,NA,NA,0,0,0,2,1,NA,NA,NA,NA,NA,NA,NA,NA,NA,NA,NA,NA,NA,NA,NA,NA,NA,NA,NA,NA,NA,NA,NA,NA,NA,NA,NA,NA
SUPAMT63488,NA,82AA42CC-434B-4F6A-9497-B8F183693BAA,2023-09-26_06h37.03.358,WP_VExplicitOC_HL,2022.2.5,Win32,21.03536044,45.1171875,3.1893,2.0393,NA,NA,NA,NA,NA,happy,"unhappy, happy","less happy, more happy",NA,NA,NA,NA,NA,NA,NA,NA,NA,NA,NA,NA,NA,NA,NA,0,1,1,0,1,NA,NA,NA,NA,NA,NA,NA,NA,NA,NA,NA,NA,NA,NA,NA,NA,NA,NA,NA,NA,NA,NA,NA,NA,NA,NA,NA,NA
SUPAMT63488,NA,82AA42CC-434B-4F6A-9497-B8F183693BAA,2023-09-26_06h37.03.358,WP_VExplicitOC_HL,2022.2.5,Win32,21.03536044,50.1953125,2.322,2.0494,NA,NA,NA,NA,NA,frustrated,"frustrated, not frustrated","more frustrated, less frustrated",NA,NA,NA,NA,NA,NA,NA,NA,NA,NA,NA,NA,NA,NA,NA,0,2,2,1,1,NA,NA,NA,NA,NA,NA,NA,NA,NA,NA,NA,NA,NA,NA,NA,NA,NA,NA,NA,NA,NA,NA,NA,NA,NA,NA,NA,NA
SUPAMT63488,NA,82AA42CC-434B-4F6A-9497-B8F183693BAA,2023-09-26_06h37.03.358,WP_VExplicitOC_HL,2022.2.5,Win32,21.03536044,NA,NA,NA,NA,NA,NA,NA,NA,NA,NA,NA,NA,NA,NA,NA,NA,NA,NA,NA,NA,NA,NA,NA,NA,NA,NA,NA,NA,NA,NA,NA,4,0,4,0,1,NA,NA,NA,NA,NA,NA,NA,NA,NA,NA,NA,NA,NA,NA,NA,NA,NA,NA,NA,NA,NA,NA,NA
SUPAMT63488,NA,82AA42CC-434B-4F6A-9497-B8F183693BAA,2023-09-26_06h37.03.358,WP_VExplicitOC_HL,2022.2.5,Win32,21.03536044,23.046875,3.1759,2.037,NA,NA,NA,NA,NA,frustrated,"frustrated, not frustrated","more frustrated, less frustrated",NA,NA,NA,NA,NA,NA,NA,NA,NA,NA,NA,NA,NA,NA,NA,0,0,0,1,1,NA,NA,NA,NA,NA,NA,NA,NA,NA,NA,NA,NA,NA,NA,NA,NA,NA,NA,NA,NA,NA,NA,NA,NA,NA,NA,NA,NA
SUPAMT63488,NA,82AA42CC-434B-4F6A-9497-B8F183693BAA,2023-09-26_06h37.03.358,WP_VExplicitOC_HL,2022.2.5,Win32,21.03536044,49.4140625,3.2757,2.0438,NA,NA,NA,NA,NA,happy,"unhappy, happy","less happy, more happy",NA,NA,NA,NA,NA,NA,NA,NA,NA,NA,NA,NA,NA,NA,NA,0,1,1,0,1,NA,NA,NA,NA,NA,NA,NA,NA,NA,NA,NA,NA,NA,NA,NA,NA,NA,NA,NA,NA,NA,NA,NA,NA,NA,NA,NA,NA
SUPAMT63488,NA,82AA42CC-434B-4F6A-9497-B8F183693BAA,2023-09-26_06h37.03.358,WP_VExplicitOC_HL,2022.2.5,Win32,21.03536044,49.4140625,3.0421,2.0301,NA,NA,NA,NA,NA,bored,"bored, not bored","more bored, less bored",NA,NA,NA,NA,NA,NA,NA,NA,NA,NA,NA,NA,NA,NA,NA,0,2,2,2,1,NA,NA,NA,NA,NA,NA,NA,NA,NA,NA,NA,NA,NA,NA,NA,NA,NA,NA,NA,NA,NA,NA,NA,NA,NA,NA,NA,NA
SUPAMT63488,NA,82AA42CC-434B-4F6A-9497-B8F183693BAA,2023-09-26_06h37.03.358,WP_VExplicitOC_HL,2022.2.5,Win32,21.03536044,NA,NA,NA,NA,NA,NA,NA,NA,NA,NA,NA,NA,NA,NA,NA,NA,NA,NA,NA,NA,NA,NA,NA,NA,NA,NA,NA,NA,NA,NA,NA,5,0,5,0,1,NA,NA,NA,NA,NA,NA,NA,NA,NA,NA,NA,NA,NA,NA,NA,NA,NA,NA,NA,NA,NA,NA,NA
SUPAMT63488,NA,82AA42CC-434B-4F6A-9497-B8F183693BAA,2023-09-26_06h37.03.358,WP_VExplicitOC_HL,2022.2.5,Win32,21.03536044,16.40625,3.2205,2.0431,NA,NA,NA,NA,NA,bored,"bored, not bored","more bored, less bored",NA,NA,NA,NA,NA,NA,NA,NA,NA,NA,NA,NA,NA,NA,NA,0,0,0,2,1,NA,NA,NA,NA,NA,NA,NA,NA,NA,NA,NA,NA,NA,NA,NA,NA,NA,NA,NA,NA,NA,NA,NA,NA,NA,NA,NA,NA
SUPAMT63488,NA,82AA42CC-434B-4F6A-9497-B8F183693BAA,2023-09-26_06h37.03.358,WP_VExplicitOC_HL,2022.2.5,Win32,21.03536044,37.6953125,3.0237,2.0334,NA,NA,NA,NA,NA,frustrated,"frustrated, not frustrated","more frustrated, less frustrated",NA,NA,NA,NA,NA,NA,NA,NA,NA,NA,NA,NA,NA,NA,NA,0,1,1,1,1,NA,NA,NA,NA,NA,NA,NA,NA,NA,NA,NA,NA,NA,NA,NA,NA,NA,NA,NA,NA,NA,NA,NA,NA,NA,NA,NA,NA
SUPAMT63488,NA,82AA42CC-434B-4F6A-9497-B8F183693BAA,2023-09-26_06h37.03.358,WP_VExplicitOC_HL,2022.2.5,Win32,21.03536044,52.1484375,3.1714,2.0246,NA,NA,NA,NA,NA,happy,"unhappy, happy","less happy, more happy",NA,NA,NA,NA,NA,NA,NA,NA,NA,NA,NA,NA,NA,NA,NA,0,2,2,0,1,NA,NA,NA,NA,NA,NA,NA,NA,NA,NA,NA,NA,NA,NA,NA,NA,NA,NA,NA,NA,NA,NA,NA,NA,NA,NA,NA,NA
SUPAMT63488,NA,82AA42CC-434B-4F6A-9497-B8F183693BAA,2023-09-26_06h37.03.358,WP_VExplicitOC_HL,2022.2.5,Win32,21.03536044,NA,NA,NA,NA,NA,NA,NA,NA,NA,NA,NA,NA,NA,NA,NA,NA,NA,NA,NA,NA,NA,NA,NA,NA,NA,NA,NA,NA,NA,NA,NA,6,0,6,0,1,NA,NA,NA,NA,NA,NA,NA,NA,NA,NA,NA,NA,NA,NA,NA,NA,NA,NA,NA,NA,NA,NA,NA
SUPAMT63488,NA,82AA42CC-434B-4F6A-9497-B8F183693BAA,2023-09-26_06h37.03.358,WP_VExplicitOC_HL,2022.2.5,Win32,21.03536044,21.875,3.7646,2.0384,NA,NA,NA,NA,NA,happy,"unhappy, happy","less happy, more happy",NA,NA,NA,NA,NA,NA,NA,NA,NA,NA,NA,NA,NA,NA,NA,0,0,0,0,1,NA,NA,NA,NA,NA,NA,NA,NA,NA,NA,NA,NA,NA,NA,NA,NA,NA,NA,NA,NA,NA,NA,NA,NA,NA,NA,NA,NA
SUPAMT63488,NA,82AA42CC-434B-4F6A-9497-B8F183693BAA,2023-09-26_06h37.03.358,WP_VExplicitOC_HL,2022.2.5,Win32,21.03536044,31.4453125,3.2253,2.0422,NA,NA,NA,NA,NA,frustrated,"frustrated, not frustrated","more frustrated, less frustrated",NA,NA,NA,NA,NA,NA,NA,NA,NA,NA,NA,NA,NA,NA,NA,0,1,1,1,1,NA,NA,NA,NA,NA,NA,NA,NA,NA,NA,NA,NA,NA,NA,NA,NA,NA,NA,NA,NA,NA,NA,NA,NA,NA,NA,NA,NA
SUPAMT63488,NA,82AA42CC-434B-4F6A-9497-B8F183693BAA,2023-09-26_06h37.03.358,WP_VExplicitOC_HL,2022.2.5,Win32,21.03536044,35.15625,2.7411,2.0109,NA,NA,NA,NA,NA,bored,"bored, not bored","more bored, less bored",NA,NA,NA,NA,NA,NA,NA,NA,NA,NA,NA,NA,NA,NA,NA,0,2,2,2,1,NA,NA,NA,NA,NA,NA,NA,NA,NA,NA,NA,NA,NA,NA,NA,NA,NA,NA,NA,NA,NA,NA,NA,NA,NA,NA,NA,NA
SUPAMT63488,NA,82AA42CC-434B-4F6A-9497-B8F183693BAA,2023-09-26_06h37.03.358,WP_VExplicitOC_HL,2022.2.5,Win32,21.03536044,NA,NA,NA,NA,NA,NA,NA,NA,NA,NA,NA,NA,NA,NA,NA,NA,NA,NA,NA,NA,NA,NA,NA,NA,NA,NA,NA,NA,NA,NA,NA,7,0,7,0,1,NA,NA,NA,NA,NA,NA,NA,NA,NA,NA,NA,NA,NA,NA,NA,NA,NA,NA,NA,NA,NA,NA,NA
SUPAMT63488,NA,82AA42CC-434B-4F6A-9497-B8F183693BAA,2023-09-26_06h37.03.358,WP_VExplicitOC_HL,2022.2.5,Win32,21.03536044,25.5859375,3.2737,2.0385,NA,NA,NA,NA,NA,frustrated,"frustrated, not frustrated","more frustrated, less frustrated",NA,NA,NA,NA,NA,NA,NA,NA,NA,NA,NA,NA,NA,NA,NA,0,0,0,1,1,NA,NA,NA,NA,NA,NA,NA,NA,NA,NA,NA,NA,NA,NA,NA,NA,NA,NA,NA,NA,NA,NA,NA,NA,NA,NA,NA,NA
SUPAMT63488,NA,82AA42CC-434B-4F6A-9497-B8F183693BAA,2023-09-26_06h37.03.358,WP_VExplicitOC_HL,2022.2.5,Win32,21.03536044,43.359375,3.072,2.0503,NA,NA,NA,NA,NA,happy,"unhappy, happy","less happy, more happy",NA,NA,NA,NA,NA,NA,NA,NA,NA,NA,NA,NA,NA,NA,NA,0,1,1,0,1,NA,NA,NA,NA,NA,NA,NA,NA,NA,NA,NA,NA,NA,NA,NA,NA,NA,NA,NA,NA,NA,NA,NA,NA,NA,NA,NA,NA
SUPAMT63488,NA,82AA42CC-434B-4F6A-9497-B8F183693BAA,2023-09-26_06h37.03.358,WP_VExplicitOC_HL,2022.2.5,Win32,21.03536044,44.53125,2.9389,2.0168,NA,NA,NA,NA,NA,bored,"bored, not bored","more bored, less bored",NA,NA,NA,NA,NA,NA,NA,NA,NA,NA,NA,NA,NA,NA,NA,0,2,2,2,1,NA,NA,NA,NA,NA,NA,NA,NA,NA,NA,NA,NA,NA,NA,NA,NA,NA,NA,NA,NA,NA,NA,NA,NA,NA,NA,NA,NA
SUPAMT63488,NA,82AA42CC-434B-4F6A-9497-B8F183693BAA,2023-09-26_06h37.03.358,WP_VExplicitOC_HL,2022.2.5,Win32,21.03536044,NA,NA,NA,NA,NA,NA,NA,NA,NA,NA,NA,NA,NA,NA,NA,NA,NA,NA,NA,NA,NA,NA,NA,NA,NA,NA,NA,NA,NA,NA,NA,8,0,8,0,1,NA,NA,NA,NA,NA,NA,NA,NA,NA,NA,NA,NA,NA,NA,NA,NA,NA,NA,NA,NA,NA,NA,NA
SUPAMT63488,NA,82AA42CC-434B-4F6A-9497-B8F183693BAA,2023-09-26_06h37.03.358,WP_VExplicitOC_HL,2022.2.5,Win32,21.03536044,29.6875,3.6114,2.0327,NA,NA,NA,NA,NA,frustrated,"frustrated, not frustrated","more frustrated, less frustrated",NA,NA,NA,NA,NA,NA,NA,NA,NA,NA,NA,NA,NA,NA,NA,0,0,0,1,1,NA,NA,NA,NA,NA,NA,NA,NA,NA,NA,NA,NA,NA,NA,NA,NA,NA,NA,NA,NA,NA,NA,NA,NA,NA,NA,NA,NA
SUPAMT63488,NA,82AA42CC-434B-4F6A-9497-B8F183693BAA,2023-09-26_06h37.03.358,WP_VExplicitOC_HL,2022.2.5,Win32,21.03536044,33.0078125,3.9797,2.0525,NA,NA,NA,NA,NA,happy,"unhappy, happy","less happy, more happy",NA,NA,NA,NA,NA,NA,NA,NA,NA,NA,NA,NA,NA,NA,NA,0,1,1,0,1,NA,NA,NA,NA,NA,NA,NA,NA,NA,NA,NA,NA,NA,NA,NA,NA,NA,NA,NA,NA,NA,NA,NA,NA,NA,NA,NA,NA
SUPAMT63488,NA,82AA42CC-434B-4F6A-9497-B8F183693BAA,2023-09-26_06h37.03.358,WP_VExplicitOC_HL,2022.2.5,Win32,21.03536044,33.0078125,2.9161,2.0238,NA,NA,NA,NA,NA,bored,"bored, not bored","more bored, less bored",NA,NA,NA,NA,NA,NA,NA,NA,NA,NA,NA,NA,NA,NA,NA,0,2,2,2,1,NA,NA,NA,NA,NA,NA,NA,NA,NA,NA,NA,NA,NA,NA,NA,NA,NA,NA,NA,NA,NA,NA,NA,NA,NA,NA,NA,NA
SUPAMT63488,NA,82AA42CC-434B-4F6A-9497-B8F183693BAA,2023-09-26_06h37.03.358,WP_VExplicitOC_HL,2022.2.5,Win32,21.03536044,NA,NA,NA,NA,NA,NA,NA,NA,NA,NA,NA,NA,NA,NA,NA,NA,NA,NA,NA,NA,NA,NA,NA,NA,NA,NA,NA,NA,NA,NA,NA,9,0,9,0,1,NA,NA,NA,NA,NA,NA,NA,NA,NA,NA,NA,NA,NA,NA,NA,NA,NA,NA,NA,NA,NA,NA,NA
SUPAMT63488,NA,82AA42CC-434B-4F6A-9497-B8F183693BAA,2023-09-26_06h37.03.358,WP_VExplicitOC_HL,2022.2.5,Win32,21.03536044,24.4140625,3.5041,2.0121000000000002,NA,NA,NA,NA,NA,bored,"bored, not bored","more bored, less bored",NA,NA,NA,NA,NA,NA,NA,NA,NA,NA,NA,NA,NA,NA,NA,0,0,0,2,1,NA,NA,NA,NA,NA,NA,NA,NA,NA,NA,NA,NA,NA,NA,NA,NA,NA,NA,NA,NA,NA,NA,NA,NA,NA,NA,NA,NA
SUPAMT63488,NA,82AA42CC-434B-4F6A-9497-B8F183693BAA,2023-09-26_06h37.03.358,WP_VExplicitOC_HL,2022.2.5,Win32,21.03536044,51.5625,3.0675,2.0307,NA,NA,NA,NA,NA,happy,"unhappy, happy","less happy, more happy",NA,NA,NA,NA,NA,NA,NA,NA,NA,NA,NA,NA,NA,NA,NA,0,1,1,0,1,NA,NA,NA,NA,NA,NA,NA,NA,NA,NA,NA,NA,NA,NA,NA,NA,NA,NA,NA,NA,NA,NA,NA,NA,NA,NA,NA,NA
SUPAMT63488,NA,82AA42CC-434B-4F6A-9497-B8F183693BAA,2023-09-26_06h37.03.358,WP_VExplicitOC_HL,2022.2.5,Win32,21.03536044,46.875,2.886,2.0041,NA,NA,NA,NA,NA,frustrated,"frustrated, not frustrated","more frustrated, less frustrated",NA,NA,NA,NA,NA,NA,NA,NA,NA,NA,NA,NA,NA,NA,NA,0,2,2,1,1,NA,NA,NA,NA,NA,NA,NA,NA,NA,NA,NA,NA,NA,NA,NA,NA,NA,NA,NA,NA,NA,NA,NA,NA,NA,NA,NA,NA
SUPAMT63488,NA,82AA42CC-434B-4F6A-9497-B8F183693BAA,2023-09-26_06h37.03.358,WP_VExplicitOC_HL,2022.2.5,Win32,21.03536044,NA,NA,NA,NA,NA,NA,NA,NA,NA,NA,NA,NA,NA,NA,NA,NA,NA,NA,NA,NA,NA,NA,NA,NA,NA,NA,NA,NA,NA,NA,NA,10,0,10,0,1,NA,NA,NA,NA,NA,NA,NA,NA,NA,NA,NA,NA,NA,NA,NA,NA,NA,NA,NA,NA,NA,NA,NA
SUPAMT63488,NA,82AA42CC-434B-4F6A-9497-B8F183693BAA,2023-09-26_06h37.03.358,WP_VExplicitOC_HL,2022.2.5,Win32,21.03536044,25.78125,3.1979,2.0408,NA,NA,NA,NA,NA,bored,"bored, not bored","more bored, less bored",NA,NA,NA,NA,NA,NA,NA,NA,NA,NA,NA,NA,NA,NA,NA,0,0,0,2,1,NA,NA,NA,NA,NA,NA,NA,NA,NA,NA,NA,NA,NA,NA,NA,NA,NA,NA,NA,NA,NA,NA,NA,NA,NA,NA,NA,NA
SUPAMT63488,NA,82AA42CC-434B-4F6A-9497-B8F183693BAA,2023-09-26_06h37.03.358,WP_VExplicitOC_HL,2022.2.5,Win32,21.03536044,34.1796875,3.0384,2.0343,NA,NA,NA,NA,NA,frustrated,"frustrated, not frustrated","more frustrated, less frustrated",NA,NA,NA,NA,NA,NA,NA,NA,NA,NA,NA,NA,NA,NA,NA,0,1,1,1,1,NA,NA,NA,NA,NA,NA,NA,NA,NA,NA,NA,NA,NA,NA,NA,NA,NA,NA,NA,NA,NA,NA,NA,NA,NA,NA,NA,NA
SUPAMT63488,NA,82AA42CC-434B-4F6A-9497-B8F183693BAA,2023-09-26_06h37.03.358,WP_VExplicitOC_HL,2022.2.5,Win32,21.03536044,36.5234375,3.07,2.0351,NA,NA,NA,NA,NA,happy,"unhappy, happy","less happy, more happy",NA,NA,NA,NA,NA,NA,NA,NA,NA,NA,NA,NA,NA,NA,NA,0,2,2,0,1,NA,NA,NA,NA,NA,NA,NA,NA,NA,NA,NA,NA,NA,NA,NA,NA,NA,NA,NA,NA,NA,NA,NA,NA,NA,NA,NA,NA
SUPAMT63488,NA,82AA42CC-434B-4F6A-9497-B8F183693BAA,2023-09-26_06h37.03.358,WP_VExplicitOC_HL,2022.2.5,Win32,21.03536044,NA,NA,NA,NA,NA,NA,NA,NA,NA,NA,NA,NA,NA,NA,NA,NA,NA,NA,NA,NA,NA,NA,NA,NA,NA,NA,NA,NA,NA,NA,NA,11,0,11,0,1,NA,NA,NA,NA,NA,NA,NA,NA,NA,NA,NA,NA,NA,NA,NA,NA,NA,NA,NA,NA,NA,NA,NA
SUPAMT63488,NA,82AA42CC-434B-4F6A-9497-B8F183693BAA,2023-09-26_06h37.03.358,WP_VExplicitOC_HL,2022.2.5,Win32,21.03536044,32.421875,4.9675,2.02,NA,NA,NA,NA,NA,happy,"unhappy, happy","less happy, more happy",NA,NA,NA,NA,NA,NA,NA,NA,NA,NA,NA,NA,NA,NA,NA,0,0,0,0,1,NA,NA,NA,NA,NA,NA,NA,NA,NA,NA,NA,NA,NA,NA,NA,NA,NA,NA,NA,NA,NA,NA,NA,NA,NA,NA,NA,NA
SUPAMT63488,NA,82AA42CC-434B-4F6A-9497-B8F183693BAA,2023-09-26_06h37.03.358,WP_VExplicitOC_HL,2022.2.5,Win32,21.03536044,40.0390625,2.8205,2.0296,NA,NA,NA,NA,NA,bored,"bored, not bored","more bored, less bored",NA,NA,NA,NA,NA,NA,NA,NA,NA,NA,NA,NA,NA,NA,NA,0,1,1,2,1,NA,NA,NA,NA,NA,NA,NA,NA,NA,NA,NA,NA,NA,NA,NA,NA,NA,NA,NA,NA,NA,NA,NA,NA,NA,NA,NA,NA
SUPAMT63488,NA,82AA42CC-434B-4F6A-9497-B8F183693BAA,2023-09-26_06h37.03.358,WP_VExplicitOC_HL,2022.2.5,Win32,21.03536044,51.7578125,2.7933,2.0386,NA,NA,NA,NA,NA,frustrated,"frustrated, not frustrated","more frustrated, less frustrated",NA,NA,NA,NA,NA,NA,NA,NA,NA,NA,NA,NA,NA,NA,NA,0,2,2,1,1,NA,NA,NA,NA,NA,NA,NA,NA,NA,NA,NA,NA,NA,NA,NA,NA,NA,NA,NA,NA,NA,NA,NA,NA,NA,NA,NA,NA
SUPAMT63488,NA,82AA42CC-434B-4F6A-9497-B8F183693BAA,2023-09-26_06h37.03.358,WP_VExplicitOC_HL,2022.2.5,Win32,21.03536044,NA,NA,NA,NA,NA,NA,NA,NA,NA,NA,NA,NA,NA,NA,NA,NA,NA,NA,NA,NA,NA,NA,NA,NA,NA,NA,NA,NA,NA,NA,NA,12,0,12,0,1,NA,NA,NA,NA,NA,NA,NA,NA,NA,NA,NA,NA,NA,NA,NA,NA,NA,NA,NA,NA,NA,NA,NA
SUPAMT63488,NA,82AA42CC-434B-4F6A-9497-B8F183693BAA,2023-09-26_06h37.03.358,WP_VExplicitOC_HL,2022.2.5,Win32,21.03536044,36.328125,3.5669,2.0352,NA,NA,NA,NA,NA,happy,"unhappy, happy","less happy, more happy",NA,NA,NA,NA,NA,NA,NA,NA,NA,NA,NA,NA,NA,NA,NA,0,0,0,0,1,NA,NA,NA,NA,NA,NA,NA,NA,NA,NA,NA,NA,NA,NA,NA,NA,NA,NA,NA,NA,NA,NA,NA,NA,NA,NA,NA,NA
SUPAMT63488,NA,82AA42CC-434B-4F6A-9497-B8F183693BAA,2023-09-26_06h37.03.358,WP_VExplicitOC_HL,2022.2.5,Win32,21.03536044,43.1640625,2.9949,2.0338,NA,NA,NA,NA,NA,frustrated,"frustrated, not frustrated","more frustrated, less frustrated",NA,NA,NA,NA,NA,NA,NA,NA,NA,NA,NA,NA,NA,NA,NA,0,1,1,1,1,NA,NA,NA,NA,NA,NA,NA,NA,NA,NA,NA,NA,NA,NA,NA,NA,NA,NA,NA,NA,NA,NA,NA,NA,NA,NA,NA,NA
SUPAMT63488,NA,82AA42CC-434B-4F6A-9497-B8F183693BAA,2023-09-26_06h37.03.358,WP_VExplicitOC_HL,2022.2.5,Win32,21.03536044,37.3046875,3.4922,2.0195,NA,NA,NA,NA,NA,bored,"bored, not bored","more bored, less bored",NA,NA,NA,NA,NA,NA,NA,NA,NA,NA,NA,NA,NA,NA,NA,0,2,2,2,1,NA,NA,NA,NA,NA,NA,NA,NA,NA,NA,NA,NA,NA,NA,NA,NA,NA,NA,NA,NA,NA,NA,NA,NA,NA,NA,NA,NA
SUPAMT63488,NA,82AA42CC-434B-4F6A-9497-B8F183693BAA,2023-09-26_06h37.03.358,WP_VExplicitOC_HL,2022.2.5,Win32,21.03536044,NA,NA,NA,NA,NA,NA,NA,NA,NA,NA,NA,NA,NA,NA,NA,NA,NA,NA,NA,NA,NA,NA,NA,NA,NA,NA,NA,NA,NA,NA,NA,13,0,13,0,1,NA,NA,NA,NA,NA,NA,NA,NA,NA,NA,NA,NA,NA,NA,NA,NA,NA,NA,NA,NA,NA,NA,NA
SUPAMT63488,NA,82AA42CC-434B-4F6A-9497-B8F183693BAA,2023-09-26_06h37.03.358,WP_VExplicitOC_HL,2022.2.5,Win32,21.03536044,33.3984375,6.7088,2.0318,NA,NA,NA,NA,NA,bored,"bored, not bored","more bored, less bored",NA,NA,NA,NA,NA,NA,NA,NA,NA,NA,NA,NA,NA,NA,NA,0,0,0,2,1,NA,NA,NA,NA,NA,NA,NA,NA,NA,NA,NA,NA,NA,NA,NA,NA,NA,NA,NA,NA,NA,NA,NA,NA,NA,NA,NA,NA
SUPAMT63488,NA,82AA42CC-434B-4F6A-9497-B8F183693BAA,2023-09-26_06h37.03.358,WP_VExplicitOC_HL,2022.2.5,Win32,21.03536044,48.828125,3.4041,2.046,NA,NA,NA,NA,NA,frustrated,"frustrated, not frustrated","more frustrated, less frustrated",NA,NA,NA,NA,NA,NA,NA,NA,NA,NA,NA,NA,NA,NA,NA,0,1,1,1,1,NA,NA,NA,NA,NA,NA,NA,NA,NA,NA,NA,NA,NA,NA,NA,NA,NA,NA,NA,NA,NA,NA,NA,NA,NA,NA,NA,NA
SUPAMT63488,NA,82AA42CC-434B-4F6A-9497-B8F183693BAA,2023-09-26_06h37.03.358,WP_VExplicitOC_HL,2022.2.5,Win32,21.03536044,41.796875,3.0579,2.0538,NA,NA,NA,NA,NA,happy,"unhappy, happy","less happy, more happy",NA,NA,NA,NA,NA,NA,NA,NA,NA,NA,NA,NA,NA,NA,NA,0,2,2,0,1,NA,NA,NA,NA,NA,NA,NA,NA,NA,NA,NA,NA,NA,NA,NA,NA,NA,NA,NA,NA,NA,NA,NA,NA,NA,NA,NA,NA
SUPAMT63488,NA,82AA42CC-434B-4F6A-9497-B8F183693BAA,2023-09-26_06h37.03.358,WP_VExplicitOC_HL,2022.2.5,Win32,21.03536044,NA,NA,NA,NA,NA,NA,NA,NA,NA,NA,NA,NA,NA,NA,NA,NA,NA,NA,NA,NA,NA,NA,NA,NA,NA,NA,NA,NA,NA,NA,NA,14,0,14,0,1,NA,NA,NA,NA,NA,NA,NA,NA,NA,NA,NA,NA,NA,NA,NA,NA,NA,NA,NA,NA,NA,NA,NA
SUPAMT63488,NA,82AA42CC-434B-4F6A-9497-B8F183693BAA,2023-09-26_06h37.03.358,WP_VExplicitOC_HL,2022.2.5,Win32,21.03536044,NA,NA,NA,NA,NA,NA,NA,NA,NA,NA,NA,NA,NA,NA,NA,NA,NA,NA,NA,NA,NA,NA,NA,NA,NA,NA,NA,NA,NA,NA,NA,NA,NA,NA,NA,NA,NA,NA,NA,NA,NA,NA,NA,NA,NA,NA,NA,NA,NA,NA,NA,NA,NA,NA,NA,NA,NA,NA,NA
SUPAMT63488,NA,82AA42CC-434B-4F6A-9497-B8F183693BAA,2023-09-26_06h37.03.358,WP_VExplicitOC_HL,2022.2.5,Win32,21.03536044,NA,NA,NA,NA,NA,NA,NA,NA,NA,NA,NA,NA,NA,NA,NA,NA,NA,NA,NA,NA,NA,NA,NA,NA,NA,NA,NA,NA,NA,NA,NA,NA,NA,NA,NA,NA,NA,NA,NA,NA,NA,NA,NA,NA,NA,NA,NA,NA,NA,NA,NA,NA,NA,NA,NA,NA,NA,NA,NA
SUPAMT63488,NA,82AA42CC-434B-4F6A-9497-B8F183693BAA,2023-09-26_06h37.03.358,WP_VExplicitOC_HL,2022.2.5,Win32,21.03536044,NA,NA,NA,NA,NA,NA,NA,NA,NA,NA,NA,NA,NA,NA,NA,NA,NA,NA,rest (looking at a fixed cross),001.png,NA,NA,NA,NA,NA,NA,NA,NA,NA,NA,NA,NA,NA,NA,NA,NA,26.7578125,1.7308,0,0,0,0,1,NA,NA,NA,NA,NA,NA,NA,NA,NA,NA,NA,NA,NA,NA,NA,NA
SUPAMT63488,NA,82AA42CC-434B-4F6A-9497-B8F183693BAA,2023-09-26_06h37.03.358,WP_VExplicitOC_HL,2022.2.5,Win32,21.03536044,NA,NA,NA,NA,NA,NA,NA,NA,NA,NA,NA,NA,NA,NA,NA,NA,NA,NA,stand up,002.png,NA,NA,NA,NA,NA,NA,NA,NA,NA,NA,NA,NA,NA,NA,NA,NA,34.9609375,0.8949,0,1,1,1,1,NA,NA,NA,NA,NA,NA,NA,NA,NA,NA,NA,NA,NA,NA,NA,NA
SUPAMT63488,NA,82AA42CC-434B-4F6A-9497-B8F183693BAA,2023-09-26_06h37.03.358,WP_VExplicitOC_HL,2022.2.5,Win32,21.03536044,NA,NA,NA,NA,NA,NA,NA,NA,NA,NA,NA,NA,NA,NA,NA,NA,NA,NA,stretch,003.png,NA,NA,NA,NA,NA,NA,NA,NA,NA,NA,NA,NA,NA,NA,NA,NA,-31.8359375,0.9029,0,2,2,2,1,NA,NA,NA,NA,NA,NA,NA,NA,NA,NA,NA,NA,NA,NA,NA,NA
SUPAMT63488,NA,82AA42CC-434B-4F6A-9497-B8F183693BAA,2023-09-26_06h37.03.358,WP_VExplicitOC_HL,2022.2.5,Win32,21.03536044,NA,NA,NA,NA,NA,NA,NA,NA,NA,NA,NA,NA,NA,NA,NA,NA,NA,NA,make a drink,004.png,NA,NA,NA,NA,NA,NA,NA,NA,NA,NA,NA,NA,NA,NA,NA,NA,31.8359375,0.8618,0,3,3,3,1,NA,NA,NA,NA,NA,NA,NA,NA,NA,NA,NA,NA,NA,NA,NA,NA
SUPAMT63488,NA,82AA42CC-434B-4F6A-9497-B8F183693BAA,2023-09-26_06h37.03.358,WP_VExplicitOC_HL,2022.2.5,Win32,21.03536044,NA,NA,NA,NA,NA,NA,NA,NA,NA,NA,NA,NA,NA,NA,NA,NA,NA,NA,scroll social media,005.png,NA,NA,NA,NA,NA,NA,NA,NA,NA,NA,NA,NA,NA,NA,NA,NA,31.8359375,0.5663,0,4,4,4,1,NA,NA,NA,NA,NA,NA,NA,NA,NA,NA,NA,NA,NA,NA,NA,NA
SUPAMT63488,NA,82AA42CC-434B-4F6A-9497-B8F183693BAA,2023-09-26_06h37.03.358,WP_VExplicitOC_HL,2022.2.5,Win32,21.03536044,NA,NA,NA,NA,NA,NA,NA,NA,NA,NA,NA,NA,NA,NA,NA,NA,NA,NA,listen to music,006.png,NA,NA,NA,NA,NA,NA,NA,NA,NA,NA,NA,NA,NA,NA,NA,NA,39.6484375,0.8689,0,5,5,5,1,NA,NA,NA,NA,NA,NA,NA,NA,NA,NA,NA,NA,NA,NA,NA,NA
SUPAMT63488,NA,82AA42CC-434B-4F6A-9497-B8F183693BAA,2023-09-26_06h37.03.358,WP_VExplicitOC_HL,2022.2.5,Win32,21.03536044,NA,NA,NA,NA,NA,NA,NA,NA,NA,NA,NA,NA,NA,NA,NA,NA,NA,NA,daydream,007.png,NA,NA,NA,NA,NA,NA,NA,NA,NA,NA,NA,NA,NA,NA,NA,NA,64.2578125,0.8058,0,6,6,6,1,NA,NA,NA,NA,NA,NA,NA,NA,NA,NA,NA,NA,NA,NA,NA,NA
SUPAMT63488,NA,82AA42CC-434B-4F6A-9497-B8F183693BAA,2023-09-26_06h37.03.358,WP_VExplicitOC_HL,2022.2.5,Win32,21.03536044,NA,NA,NA,NA,NA,NA,NA,NA,NA,NA,NA,NA,NA,NA,NA,NA,NA,NA,watch a short animation,008.png,NA,NA,NA,NA,NA,NA,NA,NA,NA,NA,NA,NA,NA,NA,NA,NA,64.2578125,1.2089,0,7,7,7,1,NA,NA,NA,NA,NA,NA,NA,NA,NA,NA,NA,NA,NA,NA,NA,NA
SUPAMT63488,NA,82AA42CC-434B-4F6A-9497-B8F183693BAA,2023-09-26_06h37.03.358,WP_VExplicitOC_HL,2022.2.5,Win32,21.03536044,NA,NA,NA,NA,NA,NA,NA,NA,NA,NA,NA,NA,NA,NA,NA,NA,NA,NA,read a novel,009.png,NA,NA,NA,NA,NA,NA,NA,NA,NA,NA,NA,NA,NA,NA,NA,NA,23.6328125,1.9526,0,8,8,8,1,NA,NA,NA,NA,NA,NA,NA,NA,NA,NA,NA,NA,NA,NA,NA,NA
SUPAMT63488,NA,82AA42CC-434B-4F6A-9497-B8F183693BAA,2023-09-26_06h37.03.358,WP_VExplicitOC_HL,2022.2.5,Win32,21.03536044,NA,NA,NA,NA,NA,NA,NA,NA,NA,NA,NA,NA,NA,NA,NA,NA,NA,NA,read the news,010.png,NA,NA,NA,NA,NA,NA,NA,NA,NA,NA,NA,NA,NA,NA,NA,NA,34.765625,1.5769,0,9,9,9,1,NA,NA,NA,NA,NA,NA,NA,NA,NA,NA,NA,NA,NA,NA,NA,NA
SUPAMT63488,NA,82AA42CC-434B-4F6A-9497-B8F183693BAA,2023-09-26_06h37.03.358,WP_VExplicitOC_HL,2022.2.5,Win32,21.03536044,NA,NA,NA,NA,NA,NA,NA,NA,NA,NA,NA,NA,NA,NA,NA,NA,NA,NA,NA,NA,NA,NA,NA,NA,NA,NA,NA,NA,NA,NA,NA,NA,NA,NA,NA,NA,NA,NA,NA,NA,NA,NA,NA,stretch,NA,NA,NA,NA,NA,NA,NA,NA,NA,NA,NA,NA,NA,NA,NA
SUPAMT63488,NA,82AA42CC-434B-4F6A-9497-B8F183693BAA,2023-09-26_06h37.03.358,WP_VExplicitOC_HL,2022.2.5,Win32,21.03536044,37.3046875,3.0979,2.0263,NA,NA,NA,NA,NA,bored,"bored, not bored","more bored, less bored",NA,NA,NA,NA,NA,NA,NA,NA,NA,NA,NA,NA,NA,NA,NA,NA,NA,NA,NA,NA,NA,NA,NA,NA,NA,NA,NA,NA,NA,NA,NA,NA,NA,0,0,0,2,1,NA,NA,NA,NA,NA,NA,NA,NA,NA,NA
SUPAMT63488,NA,82AA42CC-434B-4F6A-9497-B8F183693BAA,2023-09-26_06h37.03.358,WP_VExplicitOC_HL,2022.2.5,Win32,21.03536044,46.6796875,3.104,2.0427,NA,NA,NA,NA,NA,frustrated,"frustrated, not frustrated","more frustrated, less frustrated",NA,NA,NA,NA,NA,NA,NA,NA,NA,NA,NA,NA,NA,NA,NA,NA,NA,NA,NA,NA,NA,NA,NA,NA,NA,NA,NA,NA,NA,NA,NA,NA,NA,0,1,1,1,1,NA,NA,NA,NA,NA,NA,NA,NA,NA,NA
SUPAMT63488,NA,82AA42CC-434B-4F6A-9497-B8F183693BAA,2023-09-26_06h37.03.358,WP_VExplicitOC_HL,2022.2.5,Win32,21.03536044,47.265625,3.2925,2.0254,NA,NA,NA,NA,NA,happy,"unhappy, happy","less happy, more happy",NA,NA,NA,NA,NA,NA,NA,NA,NA,NA,NA,NA,NA,NA,NA,NA,NA,NA,NA,NA,NA,NA,NA,NA,NA,NA,NA,NA,NA,NA,NA,NA,NA,0,2,2,0,1,NA,NA,NA,NA,NA,NA,NA,NA,NA,NA
SUPAMT63488,NA,82AA42CC-434B-4F6A-9497-B8F183693BAA,2023-09-26_06h37.03.358,WP_VExplicitOC_HL,2022.2.5,Win32,21.03536044,NA,NA,NA,NA,NA,NA,NA,NA,NA,NA,NA,NA,NA,NA,NA,NA,NA,NA,NA,NA,NA,NA,NA,NA,NA,NA,NA,NA,NA,NA,NA,NA,NA,NA,NA,NA,NA,NA,NA,NA,NA,NA,NA,NA,NA,NA,NA,NA,NA,NA,NA,NA,NA,NA,NA,NA,NA,NA,NA
SUPAMT63488,NA,82AA42CC-434B-4F6A-9497-B8F183693BAA,2023-09-26_06h37.03.358,WP_VExplicitOC_HL,2022.2.5,Win32,21.03536044,NA,NA,NA,NA,NA,NA,NA,NA,NA,NA,NA,NA,NA,NA,NA,NA,NA,NA,NA,NA,NA,NA,NA,NA,NA,NA,NA,NA,NA,NA,NA,NA,NA,NA,NA,NA,NA,NA,NA,NA,NA,NA,NA,NA,NA,NA,NA,NA,NA,NA,NA,NA,NA,NA,NA,NA,NA,NA,NA
SUPAMT63488,NA,82AA42CC-434B-4F6A-9497-B8F183693BAA,2023-09-26_06h37.03.358,WP_VExplicitOC_HL,2022.2.5,Win32,21.03536044,22.0703125,3.4207,2.053,NA,NA,NA,NA,NA,happy,"unhappy, happy","less happy, more happy",NA,NA,NA,NA,NA,NA,NA,NA,NA,NA,NA,NA,NA,NA,NA,NA,NA,NA,NA,NA,NA,NA,NA,NA,NA,NA,NA,NA,NA,NA,NA,NA,NA,NA,NA,NA,NA,NA,0,0,0,0,1,NA,NA,NA,NA,NA
SUPAMT63488,NA,82AA42CC-434B-4F6A-9497-B8F183693BAA,2023-09-26_06h37.03.358,WP_VExplicitOC_HL,2022.2.5,Win32,21.03536044,38.671875,3.1812,2.034,NA,NA,NA,NA,NA,frustrated,"frustrated, not frustrated","more frustrated, less frustrated",NA,NA,NA,NA,NA,NA,NA,NA,NA,NA,NA,NA,NA,NA,NA,NA,NA,NA,NA,NA,NA,NA,NA,NA,NA,NA,NA,NA,NA,NA,NA,NA,NA,NA,NA,NA,NA,NA,0,1,1,1,1,NA,NA,NA,NA,NA
SUPAMT63488,NA,82AA42CC-434B-4F6A-9497-B8F183693BAA,2023-09-26_06h37.03.358,WP_VExplicitOC_HL,2022.2.5,Win32,21.03536044,42.578125,2.8453,2.0292,NA,NA,NA,NA,NA,bored,"bored, not bored","more bored, less bored",NA,NA,NA,NA,NA,NA,NA,NA,NA,NA,NA,NA,NA,NA,NA,NA,NA,NA,NA,NA,NA,NA,NA,NA,NA,NA,NA,NA,NA,NA,NA,NA,NA,NA,NA,NA,NA,NA,0,2,2,2,1,NA,NA,NA,NA,NA
SUPAMT63488,NA,82AA42CC-434B-4F6A-9497-B8F183693BAA,2023-09-26_06h37.03.358,WP_VExplicitOC_HL,2022.2.5,Win32,21.03536044,NA,NA,NA,NA,NA,NA,NA,NA,NA,NA,NA,NA,NA,NA,NA,NA,NA,NA,NA,NA,NA,NA,NA,NA,NA,NA,NA,NA,NA,NA,NA,NA,NA,NA,NA,NA,NA,NA,NA,NA,NA,NA,NA,NA,NA,NA,NA,NA,NA,NA,NA,NA,NA,NA,0,0,0,0,1
SUPAMT63488,NA,82AA42CC-434B-4F6A-9497-B8F183693BAA,2023-09-26_06h37.03.358,WP_VExplicitOC_HL,2022.2.5,Win32,21.03536044,16.6015625,4.1725,2.0376,NA,NA,NA,NA,NA,frustrated,"frustrated, not frustrated","more frustrated, less frustrated",NA,NA,NA,NA,NA,NA,NA,NA,NA,NA,NA,NA,NA,NA,NA,NA,NA,NA,NA,NA,NA,NA,NA,NA,NA,NA,NA,NA,NA,NA,NA,NA,NA,NA,NA,NA,NA,NA,0,0,0,1,1,NA,NA,NA,NA,NA
SUPAMT63488,NA,82AA42CC-434B-4F6A-9497-B8F183693BAA,2023-09-26_06h37.03.358,WP_VExplicitOC_HL,2022.2.5,Win32,21.03536044,45.8984375,2.7099,2.0033,NA,NA,NA,NA,NA,bored,"bored, not bored","more bored, less bored",NA,NA,NA,NA,NA,NA,NA,NA,NA,NA,NA,NA,NA,NA,NA,NA,NA,NA,NA,NA,NA,NA,NA,NA,NA,NA,NA,NA,NA,NA,NA,NA,NA,NA,NA,NA,NA,NA,0,1,1,2,1,NA,NA,NA,NA,NA
SUPAMT63488,NA,82AA42CC-434B-4F6A-9497-B8F183693BAA,2023-09-26_06h37.03.358,WP_VExplicitOC_HL,2022.2.5,Win32,21.03536044,33.984375,2.9928,2.0321,NA,NA,NA,NA,NA,happy,"unhappy, happy","less happy, more happy",NA,NA,NA,NA,NA,NA,NA,NA,NA,NA,NA,NA,NA,NA,NA,NA,NA,NA,NA,NA,NA,NA,NA,NA,NA,NA,NA,NA,NA,NA,NA,NA,NA,NA,NA,NA,NA,NA,0,2,2,0,1,NA,NA,NA,NA,NA
SUPAMT63488,NA,82AA42CC-434B-4F6A-9497-B8F183693BAA,2023-09-26_06h37.03.358,WP_VExplicitOC_HL,2022.2.5,Win32,21.03536044,NA,NA,NA,NA,NA,NA,NA,NA,NA,NA,NA,NA,NA,NA,NA,NA,NA,NA,NA,NA,NA,NA,NA,NA,NA,NA,NA,NA,NA,NA,NA,NA,NA,NA,NA,NA,NA,NA,NA,NA,NA,NA,NA,NA,NA,NA,NA,NA,NA,NA,NA,NA,NA,NA,1,0,1,0,1
SUPAMT63488,NA,82AA42CC-434B-4F6A-9497-B8F183693BAA,2023-09-26_06h37.03.358,WP_VExplicitOC_HL,2022.2.5,Win32,21.03536044,26.953125,5.4857,2.0052,NA,NA,NA,NA,NA,frustrated,"frustrated, not frustrated","more frustrated, less frustrated",NA,NA,NA,NA,NA,NA,NA,NA,NA,NA,NA,NA,NA,NA,NA,NA,NA,NA,NA,NA,NA,NA,NA,NA,NA,NA,NA,NA,NA,NA,NA,NA,NA,NA,NA,NA,NA,NA,0,0,0,1,1,NA,NA,NA,NA,NA
SUPAMT63488,NA,82AA42CC-434B-4F6A-9497-B8F183693BAA,2023-09-26_06h37.03.358,WP_VExplicitOC_HL,2022.2.5,Win32,21.03536044,40.4296875,3.0092,2.0225,NA,NA,NA,NA,NA,bored,"bored, not bored","more bored, less bored",NA,NA,NA,NA,NA,NA,NA,NA,NA,NA,NA,NA,NA,NA,NA,NA,NA,NA,NA,NA,NA,NA,NA,NA,NA,NA,NA,NA,NA,NA,NA,NA,NA,NA,NA,NA,NA,NA,0,1,1,2,1,NA,NA,NA,NA,NA
SUPAMT63488,NA,82AA42CC-434B-4F6A-9497-B8F183693BAA,2023-09-26_06h37.03.358,WP_VExplicitOC_HL,2022.2.5,Win32,21.03536044,28.3203125,3.1003,2.0347,NA,NA,NA,NA,NA,happy,"unhappy, happy","less happy, more happy",NA,NA,NA,NA,NA,NA,NA,NA,NA,NA,NA,NA,NA,NA,NA,NA,NA,NA,NA,NA,NA,NA,NA,NA,NA,NA,NA,NA,NA,NA,NA,NA,NA,NA,NA,NA,NA,NA,0,2,2,0,1,NA,NA,NA,NA,NA
SUPAMT63488,NA,82AA42CC-434B-4F6A-9497-B8F183693BAA,2023-09-26_06h37.03.358,WP_VExplicitOC_HL,2022.2.5,Win32,21.03536044,NA,NA,NA,NA,NA,NA,NA,NA,NA,NA,NA,NA,NA,NA,NA,NA,NA,NA,NA,NA,NA,NA,NA,NA,NA,NA,NA,NA,NA,NA,NA,NA,NA,NA,NA,NA,NA,NA,NA,NA,NA,NA,NA,NA,NA,NA,NA,NA,NA,NA,NA,NA,NA,NA,2,0,2,0,1
SUPAMT63488,NA,82AA42CC-434B-4F6A-9497-B8F183693BAA,2023-09-26_06h37.03.358,WP_VExplicitOC_HL,2022.2.5,Win32,21.03536044,16.9921875,4.6581,2.0355,NA,NA,NA,NA,NA,happy,"unhappy, happy","less happy, more happy",NA,NA,NA,NA,NA,NA,NA,NA,NA,NA,NA,NA,NA,NA,NA,NA,NA,NA,NA,NA,NA,NA,NA,NA,NA,NA,NA,NA,NA,NA,NA,NA,NA,NA,NA,NA,NA,NA,0,0,0,0,1,NA,NA,NA,NA,NA
SUPAMT63488,NA,82AA42CC-434B-4F6A-9497-B8F183693BAA,2023-09-26_06h37.03.358,WP_VExplicitOC_HL,2022.2.5,Win32,21.03536044,39.2578125,2.8499,2.0278,NA,NA,NA,NA,NA,frustrated,"frustrated, not frustrated","more frustrated, less frustrated",NA,NA,NA,NA,NA,NA,NA,NA,NA,NA,NA,NA,NA,NA,NA,NA,NA,NA,NA,NA,NA,NA,NA,NA,NA,NA,NA,NA,NA,NA,NA,NA,NA,NA,NA,NA,NA,NA,0,1,1,1,1,NA,NA,NA,NA,NA
SUPAMT63488,NA,82AA42CC-434B-4F6A-9497-B8F183693BAA,2023-09-26_06h37.03.358,WP_VExplicitOC_HL,2022.2.5,Win32,21.03536044,42.1875,3.0251,2.0279,NA,NA,NA,NA,NA,bored,"bored, not bored","more bored, less bored",NA,NA,NA,NA,NA,NA,NA,NA,NA,NA,NA,NA,NA,NA,NA,NA,NA,NA,NA,NA,NA,NA,NA,NA,NA,NA,NA,NA,NA,NA,NA,NA,NA,NA,NA,NA,NA,NA,0,2,2,2,1,NA,NA,NA,NA,NA
SUPAMT63488,NA,82AA42CC-434B-4F6A-9497-B8F183693BAA,2023-09-26_06h37.03.358,WP_VExplicitOC_HL,2022.2.5,Win32,21.03536044,NA,NA,NA,NA,NA,NA,NA,NA,NA,NA,NA,NA,NA,NA,NA,NA,NA,NA,NA,NA,NA,NA,NA,NA,NA,NA,NA,NA,NA,NA,NA,NA,NA,NA,NA,NA,NA,NA,NA,NA,NA,NA,NA,NA,NA,NA,NA,NA,NA,NA,NA,NA,NA,NA,3,0,3,0,1
SUPAMT63488,NA,82AA42CC-434B-4F6A-9497-B8F183693BAA,2023-09-26_06h37.03.358,WP_VExplicitOC_HL,2022.2.5,Win32,21.03536044,15.234375,6.2937,2.0327,NA,NA,NA,NA,NA,bored,"bored, not bored","more bored, less bored",NA,NA,NA,NA,NA,NA,NA,NA,NA,NA,NA,NA,NA,NA,NA,NA,NA,NA,NA,NA,NA,NA,NA,NA,NA,NA,NA,NA,NA,NA,NA,NA,NA,NA,NA,NA,NA,NA,0,0,0,2,1,NA,NA,NA,NA,NA
SUPAMT63488,NA,82AA42CC-434B-4F6A-9497-B8F183693BAA,2023-09-26_06h37.03.358,WP_VExplicitOC_HL,2022.2.5,Win32,21.03536044,44.140625,3.3276,2.0177,NA,NA,NA,NA,NA,happy,"unhappy, happy","less happy, more happy",NA,NA,NA,NA,NA,NA,NA,NA,NA,NA,NA,NA,NA,NA,NA,NA,NA,NA,NA,NA,NA,NA,NA,NA,NA,NA,NA,NA,NA,NA,NA,NA,NA,NA,NA,NA,NA,NA,0,1,1,0,1,NA,NA,NA,NA,NA
SUPAMT63488,NA,82AA42CC-434B-4F6A-9497-B8F183693BAA,2023-09-26_06h37.03.358,WP_VExplicitOC_HL,2022.2.5,Win32,21.03536044,42.96875,2.8649,2.0084,NA,NA,NA,NA,NA,frustrated,"frustrated, not frustrated","more frustrated, less frustrated",NA,NA,NA,NA,NA,NA,NA,NA,NA,NA,NA,NA,NA,NA,NA,NA,NA,NA,NA,NA,NA,NA,NA,NA,NA,NA,NA,NA,NA,NA,NA,NA,NA,NA,NA,NA,NA,NA,0,2,2,1,1,NA,NA,NA,NA,NA
SUPAMT63488,NA,82AA42CC-434B-4F6A-9497-B8F183693BAA,2023-09-26_06h37.03.358,WP_VExplicitOC_HL,2022.2.5,Win32,21.03536044,NA,NA,NA,NA,NA,NA,NA,NA,NA,NA,NA,NA,NA,NA,NA,NA,NA,NA,NA,NA,NA,NA,NA,NA,NA,NA,NA,NA,NA,NA,NA,NA,NA,NA,NA,NA,NA,NA,NA,NA,NA,NA,NA,NA,NA,NA,NA,NA,NA,NA,NA,NA,NA,NA,4,0,4,0,1
SUPAMT63488,NA,82AA42CC-434B-4F6A-9497-B8F183693BAA,2023-09-26_06h37.03.358,WP_VExplicitOC_HL,2022.2.5,Win32,21.03536044,24.609375,4.1684,2.0363,NA,NA,NA,NA,NA,bored,"bored, not bored","more bored, less bored",NA,NA,NA,NA,NA,NA,NA,NA,NA,NA,NA,NA,NA,NA,NA,NA,NA,NA,NA,NA,NA,NA,NA,NA,NA,NA,NA,NA,NA,NA,NA,NA,NA,NA,NA,NA,NA,NA,0,0,0,2,1,NA,NA,NA,NA,NA
SUPAMT63488,NA,82AA42CC-434B-4F6A-9497-B8F183693BAA,2023-09-26_06h37.03.358,WP_VExplicitOC_HL,2022.2.5,Win32,21.03536044,34.5703125,3.096,2.0583,NA,NA,NA,NA,NA,happy,"unhappy, happy","less happy, more happy",NA,NA,NA,NA,NA,NA,NA,NA,NA,NA,NA,NA,NA,NA,NA,NA,NA,NA,NA,NA,NA,NA,NA,NA,NA,NA,NA,NA,NA,NA,NA,NA,NA,NA,NA,NA,NA,NA,0,1,1,0,1,NA,NA,NA,NA,NA
SUPAMT63488,NA,82AA42CC-434B-4F6A-9497-B8F183693BAA,2023-09-26_06h37.03.358,WP_VExplicitOC_HL,2022.2.5,Win32,21.03536044,45.5078125,2.809,2.0201,NA,NA,NA,NA,NA,frustrated,"frustrated, not frustrated","more frustrated, less frustrated",NA,NA,NA,NA,NA,NA,NA,NA,NA,NA,NA,NA,NA,NA,NA,NA,NA,NA,NA,NA,NA,NA,NA,NA,NA,NA,NA,NA,NA,NA,NA,NA,NA,NA,NA,NA,NA,NA,0,2,2,1,1,NA,NA,NA,NA,NA
SUPAMT63488,NA,82AA42CC-434B-4F6A-9497-B8F183693BAA,2023-09-26_06h37.03.358,WP_VExplicitOC_HL,2022.2.5,Win32,21.03536044,NA,NA,NA,NA,NA,NA,NA,NA,NA,NA,NA,NA,NA,NA,NA,NA,NA,NA,NA,NA,NA,NA,NA,NA,NA,NA,NA,NA,NA,NA,NA,NA,NA,NA,NA,NA,NA,NA,NA,NA,NA,NA,NA,NA,NA,NA,NA,NA,NA,NA,NA,NA,NA,NA,5,0,5,0,1
SUPAMT63488,NA,82AA42CC-434B-4F6A-9497-B8F183693BAA,2023-09-26_06h37.03.358,WP_VExplicitOC_HL,2022.2.5,Win32,21.03536044,33.3984375,3.1977,2.001,NA,NA,NA,NA,NA,happy,"unhappy, happy","less happy, more happy",NA,NA,NA,NA,NA,NA,NA,NA,NA,NA,NA,NA,NA,NA,NA,NA,NA,NA,NA,NA,NA,NA,NA,NA,NA,NA,NA,NA,NA,NA,NA,NA,NA,NA,NA,NA,NA,NA,0,0,0,0,1,NA,NA,NA,NA,NA
SUPAMT63488,NA,82AA42CC-434B-4F6A-9497-B8F183693BAA,2023-09-26_06h37.03.358,WP_VExplicitOC_HL,2022.2.5,Win32,21.03536044,44.53125,3.4126,2.0298,NA,NA,NA,NA,NA,bored,"bored, not bored","more bored, less bored",NA,NA,NA,NA,NA,NA,NA,NA,NA,NA,NA,NA,NA,NA,NA,NA,NA,NA,NA,NA,NA,NA,NA,NA,NA,NA,NA,NA,NA,NA,NA,NA,NA,NA,NA,NA,NA,NA,0,1,1,2,1,NA,NA,NA,NA,NA
SUPAMT63488,NA,82AA42CC-434B-4F6A-9497-B8F183693BAA,2023-09-26_06h37.03.358,WP_VExplicitOC_HL,2022.2.5,Win32,21.03536044,45.8984375,3.281,2.0507,NA,NA,NA,NA,NA,frustrated,"frustrated, not frustrated","more frustrated, less frustrated",NA,NA,NA,NA,NA,NA,NA,NA,NA,NA,NA,NA,NA,NA,NA,NA,NA,NA,NA,NA,NA,NA,NA,NA,NA,NA,NA,NA,NA,NA,NA,NA,NA,NA,NA,NA,NA,NA,0,2,2,1,1,NA,NA,NA,NA,NA
SUPAMT63488,NA,82AA42CC-434B-4F6A-9497-B8F183693BAA,2023-09-26_06h37.03.358,WP_VExplicitOC_HL,2022.2.5,Win32,21.03536044,NA,NA,NA,NA,NA,NA,NA,NA,NA,NA,NA,NA,NA,NA,NA,NA,NA,NA,NA,NA,NA,NA,NA,NA,NA,NA,NA,NA,NA,NA,NA,NA,NA,NA,NA,NA,NA,NA,NA,NA,NA,NA,NA,NA,NA,NA,NA,NA,NA,NA,NA,NA,NA,NA,6,0,6,0,1
SUPAMT63488,NA,82AA42CC-434B-4F6A-9497-B8F183693BAA,2023-09-26_06h37.03.358,WP_VExplicitOC_HL,2022.2.5,Win32,21.03536044,24.609375,3.3075,2.0183,NA,NA,NA,NA,NA,frustrated,"frustrated, not frustrated","more frustrated, less frustrated",NA,NA,NA,NA,NA,NA,NA,NA,NA,NA,NA,NA,NA,NA,NA,NA,NA,NA,NA,NA,NA,NA,NA,NA,NA,NA,NA,NA,NA,NA,NA,NA,NA,NA,NA,NA,NA,NA,0,0,0,1,1,NA,NA,NA,NA,NA
SUPAMT63488,NA,82AA42CC-434B-4F6A-9497-B8F183693BAA,2023-09-26_06h37.03.358,WP_VExplicitOC_HL,2022.2.5,Win32,21.03536044,24.609375,2.6987,2.011,NA,NA,NA,NA,NA,happy,"unhappy, happy","less happy, more happy",NA,NA,NA,NA,NA,NA,NA,NA,NA,NA,NA,NA,NA,NA,NA,NA,NA,NA,NA,NA,NA,NA,NA,NA,NA,NA,NA,NA,NA,NA,NA,NA,NA,NA,NA,NA,NA,NA,0,1,1,0,1,NA,NA,NA,NA,NA
SUPAMT63488,NA,82AA42CC-434B-4F6A-9497-B8F183693BAA,2023-09-26_06h37.03.358,WP_VExplicitOC_HL,2022.2.5,Win32,21.03536044,30.6640625,3.1619,2.0196,NA,NA,NA,NA,NA,bored,"bored, not bored","more bored, less bored",NA,NA,NA,NA,NA,NA,NA,NA,NA,NA,NA,NA,NA,NA,NA,NA,NA,NA,NA,NA,NA,NA,NA,NA,NA,NA,NA,NA,NA,NA,NA,NA,NA,NA,NA,NA,NA,NA,0,2,2,2,1,NA,NA,NA,NA,NA
SUPAMT63488,NA,82AA42CC-434B-4F6A-9497-B8F183693BAA,2023-09-26_06h37.03.358,WP_VExplicitOC_HL,2022.2.5,Win32,21.03536044,NA,NA,NA,NA,NA,NA,NA,NA,NA,NA,NA,NA,NA,NA,NA,NA,NA,NA,NA,NA,NA,NA,NA,NA,NA,NA,NA,NA,NA,NA,NA,NA,NA,NA,NA,NA,NA,NA,NA,NA,NA,NA,NA,NA,NA,NA,NA,NA,NA,NA,NA,NA,NA,NA,7,0,7,0,1
SUPAMT63488,NA,82AA42CC-434B-4F6A-9497-B8F183693BAA,2023-09-26_06h37.03.358,WP_VExplicitOC_HL,2022.2.5,Win32,21.03536044,27.734375,3.4271,2.0661,NA,NA,NA,NA,NA,happy,"unhappy, happy","less happy, more happy",NA,NA,NA,NA,NA,NA,NA,NA,NA,NA,NA,NA,NA,NA,NA,NA,NA,NA,NA,NA,NA,NA,NA,NA,NA,NA,NA,NA,NA,NA,NA,NA,NA,NA,NA,NA,NA,NA,0,0,0,0,1,NA,NA,NA,NA,NA
SUPAMT63488,NA,82AA42CC-434B-4F6A-9497-B8F183693BAA,2023-09-26_06h37.03.358,WP_VExplicitOC_HL,2022.2.5,Win32,21.03536044,37.6953125,3.2003,2.0002,NA,NA,NA,NA,NA,bored,"bored, not bored","more bored, less bored",NA,NA,NA,NA,NA,NA,NA,NA,NA,NA,NA,NA,NA,NA,NA,NA,NA,NA,NA,NA,NA,NA,NA,NA,NA,NA,NA,NA,NA,NA,NA,NA,NA,NA,NA,NA,NA,NA,0,1,1,2,1,NA,NA,NA,NA,NA
SUPAMT63488,NA,82AA42CC-434B-4F6A-9497-B8F183693BAA,2023-09-26_06h37.03.358,WP_VExplicitOC_HL,2022.2.5,Win32,21.03536044,44.140625,3.0673,2.0102,NA,NA,NA,NA,NA,frustrated,"frustrated, not frustrated","more frustrated, less frustrated",NA,NA,NA,NA,NA,NA,NA,NA,NA,NA,NA,NA,NA,NA,NA,NA,NA,NA,NA,NA,NA,NA,NA,NA,NA,NA,NA,NA,NA,NA,NA,NA,NA,NA,NA,NA,NA,NA,0,2,2,1,1,NA,NA,NA,NA,NA
SUPAMT63488,NA,82AA42CC-434B-4F6A-9497-B8F183693BAA,2023-09-26_06h37.03.358,WP_VExplicitOC_HL,2022.2.5,Win32,21.03536044,NA,NA,NA,NA,NA,NA,NA,NA,NA,NA,NA,NA,NA,NA,NA,NA,NA,NA,NA,NA,NA,NA,NA,NA,NA,NA,NA,NA,NA,NA,NA,NA,NA,NA,NA,NA,NA,NA,NA,NA,NA,NA,NA,NA,NA,NA,NA,NA,NA,NA,NA,NA,NA,NA,8,0,8,0,1
SUPAMT63488,NA,82AA42CC-434B-4F6A-9497-B8F183693BAA,2023-09-26_06h37.03.358,WP_VExplicitOC_HL,2022.2.5,Win32,21.03536044,23.046875,3.5271,2.0542,NA,NA,NA,NA,NA,happy,"unhappy, happy","less happy, more happy",NA,NA,NA,NA,NA,NA,NA,NA,NA,NA,NA,NA,NA,NA,NA,NA,NA,NA,NA,NA,NA,NA,NA,NA,NA,NA,NA,NA,NA,NA,NA,NA,NA,NA,NA,NA,NA,NA,0,0,0,0,1,NA,NA,NA,NA,NA
SUPAMT63488,NA,82AA42CC-434B-4F6A-9497-B8F183693BAA,2023-09-26_06h37.03.358,WP_VExplicitOC_HL,2022.2.5,Win32,21.03536044,38.0859375,2.8214,2.0198,NA,NA,NA,NA,NA,bored,"bored, not bored","more bored, less bored",NA,NA,NA,NA,NA,NA,NA,NA,NA,NA,NA,NA,NA,NA,NA,NA,NA,NA,NA,NA,NA,NA,NA,NA,NA,NA,NA,NA,NA,NA,NA,NA,NA,NA,NA,NA,NA,NA,0,1,1,2,1,NA,NA,NA,NA,NA
SUPAMT63488,NA,82AA42CC-434B-4F6A-9497-B8F183693BAA,2023-09-26_06h37.03.358,WP_VExplicitOC_HL,2022.2.5,Win32,21.03536044,41.40625,2.7597,2.0257,NA,NA,NA,NA,NA,frustrated,"frustrated, not frustrated","more frustrated, less frustrated",NA,NA,NA,NA,NA,NA,NA,NA,NA,NA,NA,NA,NA,NA,NA,NA,NA,NA,NA,NA,NA,NA,NA,NA,NA,NA,NA,NA,NA,NA,NA,NA,NA,NA,NA,NA,NA,NA,0,2,2,1,1,NA,NA,NA,NA,NA
SUPAMT63488,NA,82AA42CC-434B-4F6A-9497-B8F183693BAA,2023-09-26_06h37.03.358,WP_VExplicitOC_HL,2022.2.5,Win32,21.03536044,NA,NA,NA,NA,NA,NA,NA,NA,NA,NA,NA,NA,NA,NA,NA,NA,NA,NA,NA,NA,NA,NA,NA,NA,NA,NA,NA,NA,NA,NA,NA,NA,NA,NA,NA,NA,NA,NA,NA,NA,NA,NA,NA,NA,NA,NA,NA,NA,NA,NA,NA,NA,NA,NA,9,0,9,0,1
SUPAMT63488,NA,82AA42CC-434B-4F6A-9497-B8F183693BAA,2023-09-26_06h37.03.358,WP_VExplicitOC_HL,2022.2.5,Win32,21.03536044,21.875,3.0155,2.0223,NA,NA,NA,NA,NA,frustrated,"frustrated, not frustrated","more frustrated, less frustrated",NA,NA,NA,NA,NA,NA,NA,NA,NA,NA,NA,NA,NA,NA,NA,NA,NA,NA,NA,NA,NA,NA,NA,NA,NA,NA,NA,NA,NA,NA,NA,NA,NA,NA,NA,NA,NA,NA,0,0,0,1,1,NA,NA,NA,NA,NA
SUPAMT63488,NA,82AA42CC-434B-4F6A-9497-B8F183693BAA,2023-09-26_06h37.03.358,WP_VExplicitOC_HL,2022.2.5,Win32,21.03536044,32.421875,2.3757,2.0009,NA,NA,NA,NA,NA,bored,"bored, not bored","more bored, less bored",NA,NA,NA,NA,NA,NA,NA,NA,NA,NA,NA,NA,NA,NA,NA,NA,NA,NA,NA,NA,NA,NA,NA,NA,NA,NA,NA,NA,NA,NA,NA,NA,NA,NA,NA,NA,NA,NA,0,1,1,2,1,NA,NA,NA,NA,NA
SUPAMT63488,NA,82AA42CC-434B-4F6A-9497-B8F183693BAA,2023-09-26_06h37.03.358,WP_VExplicitOC_HL,2022.2.5,Win32,21.03536044,41.015625,2.9854,2.0464,NA,NA,NA,NA,NA,happy,"unhappy, happy","less happy, more happy",NA,NA,NA,NA,NA,NA,NA,NA,NA,NA,NA,NA,NA,NA,NA,NA,NA,NA,NA,NA,NA,NA,NA,NA,NA,NA,NA,NA,NA,NA,NA,NA,NA,NA,NA,NA,NA,NA,0,2,2,0,1,NA,NA,NA,NA,NA
SUPAMT63488,NA,82AA42CC-434B-4F6A-9497-B8F183693BAA,2023-09-26_06h37.03.358,WP_VExplicitOC_HL,2022.2.5,Win32,21.03536044,NA,NA,NA,NA,NA,NA,NA,NA,NA,NA,NA,NA,NA,NA,NA,NA,NA,NA,NA,NA,NA,NA,NA,NA,NA,NA,NA,NA,NA,NA,NA,NA,NA,NA,NA,NA,NA,NA,NA,NA,NA,NA,NA,NA,NA,NA,NA,NA,NA,NA,NA,NA,NA,NA,10,0,10,0,1
SUPAMT63488,NA,82AA42CC-434B-4F6A-9497-B8F183693BAA,2023-09-26_06h37.03.358,WP_VExplicitOC_HL,2022.2.5,Win32,21.03536044,30.078125,3.1391,2.0355,NA,NA,NA,NA,NA,bored,"bored, not bored","more bored, less bored",NA,NA,NA,NA,NA,NA,NA,NA,NA,NA,NA,NA,NA,NA,NA,NA,NA,NA,NA,NA,NA,NA,NA,NA,NA,NA,NA,NA,NA,NA,NA,NA,NA,NA,NA,NA,NA,NA,0,0,0,2,1,NA,NA,NA,NA,NA
SUPAMT63488,NA,82AA42CC-434B-4F6A-9497-B8F183693BAA,2023-09-26_06h37.03.358,WP_VExplicitOC_HL,2022.2.5,Win32,21.03536044,34.5703125,3.207,2.0547,NA,NA,NA,NA,NA,happy,"unhappy, happy","less happy, more happy",NA,NA,NA,NA,NA,NA,NA,NA,NA,NA,NA,NA,NA,NA,NA,NA,NA,NA,NA,NA,NA,NA,NA,NA,NA,NA,NA,NA,NA,NA,NA,NA,NA,NA,NA,NA,NA,NA,0,1,1,0,1,NA,NA,NA,NA,NA
SUPAMT63488,NA,82AA42CC-434B-4F6A-9497-B8F183693BAA,2023-09-26_06h37.03.358,WP_VExplicitOC_HL,2022.2.5,Win32,21.03536044,34.5703125,3.0344,2.0371,NA,NA,NA,NA,NA,frustrated,"frustrated, not frustrated","more frustrated, less frustrated",NA,NA,NA,NA,NA,NA,NA,NA,NA,NA,NA,NA,NA,NA,NA,NA,NA,NA,NA,NA,NA,NA,NA,NA,NA,NA,NA,NA,NA,NA,NA,NA,NA,NA,NA,NA,NA,NA,0,2,2,1,1,NA,NA,NA,NA,NA
SUPAMT63488,NA,82AA42CC-434B-4F6A-9497-B8F183693BAA,2023-09-26_06h37.03.358,WP_VExplicitOC_HL,2022.2.5,Win32,21.03536044,NA,NA,NA,NA,NA,NA,NA,NA,NA,NA,NA,NA,NA,NA,NA,NA,NA,NA,NA,NA,NA,NA,NA,NA,NA,NA,NA,NA,NA,NA,NA,NA,NA,NA,NA,NA,NA,NA,NA,NA,NA,NA,NA,NA,NA,NA,NA,NA,NA,NA,NA,NA,NA,NA,11,0,11,0,1
SUPAMT63488,NA,82AA42CC-434B-4F6A-9497-B8F183693BAA,2023-09-26_06h37.03.358,WP_VExplicitOC_HL,2022.2.5,Win32,21.03536044,33.0078125,3.1112,2.0204,NA,NA,NA,NA,NA,bored,"bored, not bored","more bored, less bored",NA,NA,NA,NA,NA,NA,NA,NA,NA,NA,NA,NA,NA,NA,NA,NA,NA,NA,NA,NA,NA,NA,NA,NA,NA,NA,NA,NA,NA,NA,NA,NA,NA,NA,NA,NA,NA,NA,0,0,0,2,1,NA,NA,NA,NA,NA
SUPAMT63488,NA,82AA42CC-434B-4F6A-9497-B8F183693BAA,2023-09-26_06h37.03.358,WP_VExplicitOC_HL,2022.2.5,Win32,21.03536044,34.1796875,2.6483,2.0197,NA,NA,NA,NA,NA,happy,"unhappy, happy","less happy, more happy",NA,NA,NA,NA,NA,NA,NA,NA,NA,NA,NA,NA,NA,NA,NA,NA,NA,NA,NA,NA,NA,NA,NA,NA,NA,NA,NA,NA,NA,NA,NA,NA,NA,NA,NA,NA,NA,NA,0,1,1,0,1,NA,NA,NA,NA,NA
SUPAMT63488,NA,82AA42CC-434B-4F6A-9497-B8F183693BAA,2023-09-26_06h37.03.358,WP_VExplicitOC_HL,2022.2.5,Win32,21.03536044,34.1796875,2.8293,2.0535,NA,NA,NA,NA,NA,frustrated,"frustrated, not frustrated","more frustrated, less frustrated",NA,NA,NA,NA,NA,NA,NA,NA,NA,NA,NA,NA,NA,NA,NA,NA,NA,NA,NA,NA,NA,NA,NA,NA,NA,NA,NA,NA,NA,NA,NA,NA,NA,NA,NA,NA,NA,NA,0,2,2,1,1,NA,NA,NA,NA,NA
SUPAMT63488,NA,82AA42CC-434B-4F6A-9497-B8F183693BAA,2023-09-26_06h37.03.358,WP_VExplicitOC_HL,2022.2.5,Win32,21.03536044,NA,NA,NA,NA,NA,NA,NA,NA,NA,NA,NA,NA,NA,NA,NA,NA,NA,NA,NA,NA,NA,NA,NA,NA,NA,NA,NA,NA,NA,NA,NA,NA,NA,NA,NA,NA,NA,NA,NA,NA,NA,NA,NA,NA,NA,NA,NA,NA,NA,NA,NA,NA,NA,NA,12,0,12,0,1
SUPAMT63488,NA,82AA42CC-434B-4F6A-9497-B8F183693BAA,2023-09-26_06h37.03.358,WP_VExplicitOC_HL,2022.2.5,Win32,21.03536044,27.1484375,3.0037,2.0095,NA,NA,NA,NA,NA,happy,"unhappy, happy","less happy, more happy",NA,NA,NA,NA,NA,NA,NA,NA,NA,NA,NA,NA,NA,NA,NA,NA,NA,NA,NA,NA,NA,NA,NA,NA,NA,NA,NA,NA,NA,NA,NA,NA,NA,NA,NA,NA,NA,NA,0,0,0,0,1,NA,NA,NA,NA,NA
SUPAMT63488,NA,82AA42CC-434B-4F6A-9497-B8F183693BAA,2023-09-26_06h37.03.358,WP_VExplicitOC_HL,2022.2.5,Win32,21.03536044,37.109375,2.764,2.0418,NA,NA,NA,NA,NA,bored,"bored, not bored","more bored, less bored",NA,NA,NA,NA,NA,NA,NA,NA,NA,NA,NA,NA,NA,NA,NA,NA,NA,NA,NA,NA,NA,NA,NA,NA,NA,NA,NA,NA,NA,NA,NA,NA,NA,NA,NA,NA,NA,NA,0,1,1,2,1,NA,NA,NA,NA,NA
SUPAMT63488,NA,82AA42CC-434B-4F6A-9497-B8F183693BAA,2023-09-26_06h37.03.358,WP_VExplicitOC_HL,2022.2.5,Win32,21.03536044,37.890625,2.5545,2.0339,NA,NA,NA,NA,NA,frustrated,"frustrated, not frustrated","more frustrated, less frustrated",NA,NA,NA,NA,NA,NA,NA,NA,NA,NA,NA,NA,NA,NA,NA,NA,NA,NA,NA,NA,NA,NA,NA,NA,NA,NA,NA,NA,NA,NA,NA,NA,NA,NA,NA,NA,NA,NA,0,2,2,1,1,NA,NA,NA,NA,NA
SUPAMT63488,NA,82AA42CC-434B-4F6A-9497-B8F183693BAA,2023-09-26_06h37.03.358,WP_VExplicitOC_HL,2022.2.5,Win32,21.03536044,NA,NA,NA,NA,NA,NA,NA,NA,NA,NA,NA,NA,NA,NA,NA,NA,NA,NA,NA,NA,NA,NA,NA,NA,NA,NA,NA,NA,NA,NA,NA,NA,NA,NA,NA,NA,NA,NA,NA,NA,NA,NA,NA,NA,NA,NA,NA,NA,NA,NA,NA,NA,NA,NA,13,0,13,0,1
SUPAMT63488,NA,82AA42CC-434B-4F6A-9497-B8F183693BAA,2023-09-26_06h37.03.358,WP_VExplicitOC_HL,2022.2.5,Win32,21.03536044,23.6328125,5.0307,2.0502,NA,NA,NA,NA,NA,frustrated,"frustrated, not frustrated","more frustrated, less frustrated",NA,NA,NA,NA,NA,NA,NA,NA,NA,NA,NA,NA,NA,NA,NA,NA,NA,NA,NA,NA,NA,NA,NA,NA,NA,NA,NA,NA,NA,NA,NA,NA,NA,NA,NA,NA,NA,NA,0,0,0,1,1,NA,NA,NA,NA,NA
SUPAMT63488,NA,82AA42CC-434B-4F6A-9497-B8F183693BAA,2023-09-26_06h37.03.358,WP_VExplicitOC_HL,2022.2.5,Win32,21.03536044,40.0390625,2.3635,2.0159,NA,NA,NA,NA,NA,bored,"bored, not bored","more bored, less bored",NA,NA,NA,NA,NA,NA,NA,NA,NA,NA,NA,NA,NA,NA,NA,NA,NA,NA,NA,NA,NA,NA,NA,NA,NA,NA,NA,NA,NA,NA,NA,NA,NA,NA,NA,NA,NA,NA,0,1,1,2,1,NA,NA,NA,NA,NA
SUPAMT63488,NA,82AA42CC-434B-4F6A-9497-B8F183693BAA,2023-09-26_06h37.03.358,WP_VExplicitOC_HL,2022.2.5,Win32,21.03536044,43.75,2.796,2.0089,NA,NA,NA,NA,NA,happy,"unhappy, happy","less happy, more happy",NA,NA,NA,NA,NA,NA,NA,NA,NA,NA,NA,NA,NA,NA,NA,NA,NA,NA,NA,NA,NA,NA,NA,NA,NA,NA,NA,NA,NA,NA,NA,NA,NA,NA,NA,NA,NA,NA,0,2,2,0,1,NA,NA,NA,NA,NA
SUPAMT63488,NA,82AA42CC-434B-4F6A-9497-B8F183693BAA,2023-09-26_06h37.03.358,WP_VExplicitOC_HL,2022.2.5,Win32,21.03536044,NA,NA,NA,NA,NA,NA,NA,NA,NA,NA,NA,NA,NA,NA,NA,NA,NA,NA,NA,NA,NA,NA,NA,NA,NA,NA,NA,NA,NA,NA,NA,NA,NA,NA,NA,NA,NA,NA,NA,NA,NA,NA,NA,NA,NA,NA,NA,NA,NA,NA,NA,NA,NA,NA,14,0,14,0,1
SUPAMT63488,NA,82AA42CC-434B-4F6A-9497-B8F183693BAA,2023-09-26_06h37.03.358,WP_VExplicitOC_HL,2022.2.5,Win32,21.03536044,NA,NA,NA,NA,NA,NA,NA,NA,NA,NA,NA,NA,NA,NA,NA,NA,NA,NA,NA,NA,NA,NA,NA,NA,NA,NA,NA,NA,NA,NA,NA,NA,NA,NA,NA,NA,NA,NA,NA,NA,NA,NA,NA,NA,NA,NA,NA,NA,NA,NA,NA,NA,NA,NA,NA,NA,NA,NA,NA
