participant,session,completion,date,expName,psychopyVersion,OS,frameRate,rating_all.response,rating_all.rt,rating_all.tStart,rndRat1.thisRepN,rndRat1.thisTrialN,rndRat1.thisN,rndRat1.thisIndex,rndRat1.ran,Emo,Labs,Labs2,rating_alt.response,rating_alt.rt,AltC.thisRepN,AltC.thisTrialN,AltC.thisN,AltC.thisIndex,AltC.ran,alt_choices,pic_choices,BottomAlt_Choice,rndRat2.thisRepN,rndRat2.thisTrialN,rndRat2.thisN,rndRat2.thisIndex,rndRat2.ran,rndRat3.thisRepN,rndRat3.thisTrialN,rndRat3.thisN,rndRat3.thisIndex,rndRat3.ran,trials_FC_L.thisRepN,trials_FC_L.thisTrialN,trials_FC_L.thisN,trials_FC_L.thisIndex,trials_FC_L.ran,rating_alt_2.response,rating_alt_2.rt,AltC2.thisRepN,AltC2.thisTrialN,AltC2.thisN,AltC2.thisIndex,AltC2.ran,TopAlt_Choice,rndRat4.thisRepN,rndRat4.thisTrialN,rndRat4.thisN,rndRat4.thisIndex,rndRat4.ran,rndRat5.thisRepN,rndRat5.thisTrialN,rndRat5.thisN,rndRat5.thisIndex,rndRat5.ran,trials_FC_H.thisRepN,trials_FC_H.thisTrialN,trials_FC_H.thisN,trials_FC_H.thisIndex,trials_FC_H.ran
SUPAMT58118,3DIP6YHAPIRVSMEGL88843027P58ES,F2F21004-63B0-4996-AFFF-57F835F53EE6,2023-09-27_11h25.03.227,WP_VExplicitOC_LH,2022.2.5,Win32,5.333333333,NA,NA,NA,NA,NA,NA,NA,NA,NA,NA,NA,NA,NA,NA,NA,NA,NA,NA,NA,NA,NA,NA,NA,NA,NA,NA,NA,NA,NA,NA,NA,NA,NA,NA,NA,NA,NA,NA,NA,NA,NA,NA,NA,NA,NA,NA,NA,NA,NA,NA,NA,NA,NA,NA,NA,NA,NA,NA,NA
SUPAMT58118,3DIP6YHAPIRVSMEGL88843027P58ES,F2F21004-63B0-4996-AFFF-57F835F53EE6,2023-09-27_11h25.03.227,WP_VExplicitOC_LH,2022.2.5,Win32,5.333333333,NA,NA,NA,NA,NA,NA,NA,NA,NA,NA,NA,NA,NA,NA,NA,NA,NA,NA,NA,NA,NA,NA,NA,NA,NA,NA,NA,NA,NA,NA,NA,NA,NA,NA,NA,NA,NA,NA,NA,NA,NA,NA,NA,NA,NA,NA,NA,NA,NA,NA,NA,NA,NA,NA,NA,NA,NA,NA,NA
SUPAMT58118,3DIP6YHAPIRVSMEGL88843027P58ES,F2F21004-63B0-4996-AFFF-57F835F53EE6,2023-09-27_11h25.03.227,WP_VExplicitOC_LH,2022.2.5,Win32,5.333333333,NA,NA,NA,NA,NA,NA,NA,NA,NA,NA,NA,NA,NA,NA,NA,NA,NA,NA,NA,NA,NA,NA,NA,NA,NA,NA,NA,NA,NA,NA,NA,NA,NA,NA,NA,NA,NA,NA,NA,NA,NA,NA,NA,NA,NA,NA,NA,NA,NA,NA,NA,NA,NA,NA,NA,NA,NA,NA,NA
SUPAMT58118,3DIP6YHAPIRVSMEGL88843027P58ES,F2F21004-63B0-4996-AFFF-57F835F53EE6,2023-09-27_11h25.03.227,WP_VExplicitOC_LH,2022.2.5,Win32,5.333333333,-25.11111111,6.19,2.163,0,0,0,1,1,frustrated,"frustrated, not frustrated","more frustrated, less frustrated",NA,NA,NA,NA,NA,NA,NA,NA,NA,NA,NA,NA,NA,NA,NA,NA,NA,NA,NA,NA,NA,NA,NA,NA,NA,NA,NA,NA,NA,NA,NA,NA,NA,NA,NA,NA,NA,NA,NA,NA,NA,NA,NA,NA,NA,NA,NA,NA
SUPAMT58118,3DIP6YHAPIRVSMEGL88843027P58ES,F2F21004-63B0-4996-AFFF-57F835F53EE6,2023-09-27_11h25.03.227,WP_VExplicitOC_LH,2022.2.5,Win32,5.333333333,-27.11111111,4.117,2.129,0,1,1,2,1,bored,"bored, not bored","more bored, less bored",NA,NA,NA,NA,NA,NA,NA,NA,NA,NA,NA,NA,NA,NA,NA,NA,NA,NA,NA,NA,NA,NA,NA,NA,NA,NA,NA,NA,NA,NA,NA,NA,NA,NA,NA,NA,NA,NA,NA,NA,NA,NA,NA,NA,NA,NA,NA,NA
SUPAMT58118,3DIP6YHAPIRVSMEGL88843027P58ES,F2F21004-63B0-4996-AFFF-57F835F53EE6,2023-09-27_11h25.03.227,WP_VExplicitOC_LH,2022.2.5,Win32,5.333333333,12.22222222,5.553,2.014,0,2,2,0,1,happy,"unhappy, happy","less happy, more happy",NA,NA,NA,NA,NA,NA,NA,NA,NA,NA,NA,NA,NA,NA,NA,NA,NA,NA,NA,NA,NA,NA,NA,NA,NA,NA,NA,NA,NA,NA,NA,NA,NA,NA,NA,NA,NA,NA,NA,NA,NA,NA,NA,NA,NA,NA,NA,NA
SUPAMT58118,3DIP6YHAPIRVSMEGL88843027P58ES,F2F21004-63B0-4996-AFFF-57F835F53EE6,2023-09-27_11h25.03.227,WP_VExplicitOC_LH,2022.2.5,Win32,5.333333333,NA,NA,NA,NA,NA,NA,NA,NA,NA,NA,NA,NA,NA,NA,NA,NA,NA,NA,NA,NA,NA,NA,NA,NA,NA,NA,NA,NA,NA,NA,NA,NA,NA,NA,NA,NA,NA,NA,NA,NA,NA,NA,NA,NA,NA,NA,NA,NA,NA,NA,NA,NA,NA,NA,NA,NA,NA,NA,NA
SUPAMT58118,3DIP6YHAPIRVSMEGL88843027P58ES,F2F21004-63B0-4996-AFFF-57F835F53EE6,2023-09-27_11h25.03.227,WP_VExplicitOC_LH,2022.2.5,Win32,5.333333333,NA,NA,NA,NA,NA,NA,NA,NA,NA,NA,NA,NA,NA,NA,NA,NA,NA,NA,NA,NA,NA,NA,NA,NA,NA,NA,NA,NA,NA,NA,NA,NA,NA,NA,NA,NA,NA,NA,NA,NA,NA,NA,NA,NA,NA,NA,NA,NA,NA,NA,NA,NA,NA,NA,NA,NA,NA,NA,NA
SUPAMT58118,3DIP6YHAPIRVSMEGL88843027P58ES,F2F21004-63B0-4996-AFFF-57F835F53EE6,2023-09-27_11h25.03.227,WP_VExplicitOC_LH,2022.2.5,Win32,5.333333333,NA,NA,NA,NA,NA,NA,NA,NA,NA,NA,NA,NA,NA,NA,NA,NA,NA,NA,NA,NA,NA,NA,NA,NA,NA,NA,NA,NA,NA,NA,NA,NA,NA,NA,NA,NA,NA,NA,NA,NA,NA,NA,NA,NA,NA,NA,NA,NA,NA,NA,NA,NA,NA,NA,NA,NA,NA,NA,NA
SUPAMT58118,3DIP6YHAPIRVSMEGL88843027P58ES,F2F21004-63B0-4996-AFFF-57F835F53EE6,2023-09-27_11h25.03.227,WP_VExplicitOC_LH,2022.2.5,Win32,5.333333333,NA,NA,NA,NA,NA,NA,NA,NA,NA,NA,NA,NA,NA,NA,NA,NA,NA,NA,NA,NA,NA,NA,NA,NA,NA,NA,NA,NA,NA,NA,NA,NA,NA,NA,NA,NA,NA,NA,NA,NA,NA,NA,NA,NA,NA,NA,NA,NA,NA,NA,NA,NA,NA,NA,NA,NA,NA,NA,NA
SUPAMT58118,3DIP6YHAPIRVSMEGL88843027P58ES,F2F21004-63B0-4996-AFFF-57F835F53EE6,2023-09-27_11h25.03.227,WP_VExplicitOC_LH,2022.2.5,Win32,5.333333333,NA,NA,NA,NA,NA,NA,NA,NA,NA,NA,NA,21.11111111,6.313,0,0,0,0,1,rest (looking at a fixed cross),001.png,NA,NA,NA,NA,NA,NA,NA,NA,NA,NA,NA,NA,NA,NA,NA,NA,NA,NA,NA,NA,NA,NA,NA,NA,NA,NA,NA,NA,NA,NA,NA,NA,NA,NA,NA,NA,NA,NA,NA
SUPAMT58118,3DIP6YHAPIRVSMEGL88843027P58ES,F2F21004-63B0-4996-AFFF-57F835F53EE6,2023-09-27_11h25.03.227,WP_VExplicitOC_LH,2022.2.5,Win32,5.333333333,NA,NA,NA,NA,NA,NA,NA,NA,NA,NA,NA,21.11111111,4.386,0,1,1,1,1,stand up,002.png,NA,NA,NA,NA,NA,NA,NA,NA,NA,NA,NA,NA,NA,NA,NA,NA,NA,NA,NA,NA,NA,NA,NA,NA,NA,NA,NA,NA,NA,NA,NA,NA,NA,NA,NA,NA,NA,NA,NA
SUPAMT58118,3DIP6YHAPIRVSMEGL88843027P58ES,F2F21004-63B0-4996-AFFF-57F835F53EE6,2023-09-27_11h25.03.227,WP_VExplicitOC_LH,2022.2.5,Win32,5.333333333,NA,NA,NA,NA,NA,NA,NA,NA,NA,NA,NA,-31.11111111,3.916,0,2,2,2,1,stretch,003.png,NA,NA,NA,NA,NA,NA,NA,NA,NA,NA,NA,NA,NA,NA,NA,NA,NA,NA,NA,NA,NA,NA,NA,NA,NA,NA,NA,NA,NA,NA,NA,NA,NA,NA,NA,NA,NA,NA,NA
SUPAMT58118,3DIP6YHAPIRVSMEGL88843027P58ES,F2F21004-63B0-4996-AFFF-57F835F53EE6,2023-09-27_11h25.03.227,WP_VExplicitOC_LH,2022.2.5,Win32,5.333333333,NA,NA,NA,NA,NA,NA,NA,NA,NA,NA,NA,22.66666667,6.673,0,3,3,3,1,make a drink,004.png,NA,NA,NA,NA,NA,NA,NA,NA,NA,NA,NA,NA,NA,NA,NA,NA,NA,NA,NA,NA,NA,NA,NA,NA,NA,NA,NA,NA,NA,NA,NA,NA,NA,NA,NA,NA,NA,NA,NA
SUPAMT58118,3DIP6YHAPIRVSMEGL88843027P58ES,F2F21004-63B0-4996-AFFF-57F835F53EE6,2023-09-27_11h25.03.227,WP_VExplicitOC_LH,2022.2.5,Win32,5.333333333,NA,NA,NA,NA,NA,NA,NA,NA,NA,NA,NA,NA,NA,0,4,4,4,1,scroll social media,005.png,NA,NA,NA,NA,NA,NA,NA,NA,NA,NA,NA,NA,NA,NA,NA,NA,NA,NA,NA,NA,NA,NA,NA,NA,NA,NA,NA,NA,NA,NA,NA,NA,NA,NA,NA,NA,NA,NA,NA
SUPAMT58118,3DIP6YHAPIRVSMEGL88843027P58ES,F2F21004-63B0-4996-AFFF-57F835F53EE6,2023-09-27_11h25.03.227,WP_VExplicitOC_LH,2022.2.5,Win32,5.333333333,NA,NA,NA,NA,NA,NA,NA,NA,NA,NA,NA,18.66666667,1.255,0,5,5,5,1,listen to music,006.png,NA,NA,NA,NA,NA,NA,NA,NA,NA,NA,NA,NA,NA,NA,NA,NA,NA,NA,NA,NA,NA,NA,NA,NA,NA,NA,NA,NA,NA,NA,NA,NA,NA,NA,NA,NA,NA,NA,NA
SUPAMT58118,3DIP6YHAPIRVSMEGL88843027P58ES,F2F21004-63B0-4996-AFFF-57F835F53EE6,2023-09-27_11h25.03.227,WP_VExplicitOC_LH,2022.2.5,Win32,5.333333333,NA,NA,NA,NA,NA,NA,NA,NA,NA,NA,NA,21.77777778,2.285,0,6,6,6,1,daydream,007.png,NA,NA,NA,NA,NA,NA,NA,NA,NA,NA,NA,NA,NA,NA,NA,NA,NA,NA,NA,NA,NA,NA,NA,NA,NA,NA,NA,NA,NA,NA,NA,NA,NA,NA,NA,NA,NA,NA,NA
SUPAMT58118,3DIP6YHAPIRVSMEGL88843027P58ES,F2F21004-63B0-4996-AFFF-57F835F53EE6,2023-09-27_11h25.03.227,WP_VExplicitOC_LH,2022.2.5,Win32,5.333333333,NA,NA,NA,NA,NA,NA,NA,NA,NA,NA,NA,-15.55555556,3.49,0,7,7,7,1,watch a short animation,008.png,NA,NA,NA,NA,NA,NA,NA,NA,NA,NA,NA,NA,NA,NA,NA,NA,NA,NA,NA,NA,NA,NA,NA,NA,NA,NA,NA,NA,NA,NA,NA,NA,NA,NA,NA,NA,NA,NA,NA
SUPAMT58118,3DIP6YHAPIRVSMEGL88843027P58ES,F2F21004-63B0-4996-AFFF-57F835F53EE6,2023-09-27_11h25.03.227,WP_VExplicitOC_LH,2022.2.5,Win32,5.333333333,NA,NA,NA,NA,NA,NA,NA,NA,NA,NA,NA,18.22222222,2.597,0,8,8,8,1,read a novel,009.png,NA,NA,NA,NA,NA,NA,NA,NA,NA,NA,NA,NA,NA,NA,NA,NA,NA,NA,NA,NA,NA,NA,NA,NA,NA,NA,NA,NA,NA,NA,NA,NA,NA,NA,NA,NA,NA,NA,NA
SUPAMT58118,3DIP6YHAPIRVSMEGL88843027P58ES,F2F21004-63B0-4996-AFFF-57F835F53EE6,2023-09-27_11h25.03.227,WP_VExplicitOC_LH,2022.2.5,Win32,5.333333333,NA,NA,NA,NA,NA,NA,NA,NA,NA,NA,NA,-22.22222222,2.084,0,9,9,9,1,read the news,010.png,NA,NA,NA,NA,NA,NA,NA,NA,NA,NA,NA,NA,NA,NA,NA,NA,NA,NA,NA,NA,NA,NA,NA,NA,NA,NA,NA,NA,NA,NA,NA,NA,NA,NA,NA,NA,NA,NA,NA
SUPAMT58118,3DIP6YHAPIRVSMEGL88843027P58ES,F2F21004-63B0-4996-AFFF-57F835F53EE6,2023-09-27_11h25.03.227,WP_VExplicitOC_LH,2022.2.5,Win32,5.333333333,NA,NA,NA,NA,NA,NA,NA,NA,NA,NA,NA,NA,NA,NA,NA,NA,NA,NA,NA,NA,NA,NA,NA,NA,NA,NA,NA,NA,NA,NA,NA,NA,NA,NA,NA,NA,NA,NA,NA,NA,NA,NA,NA,NA,NA,NA,NA,NA,NA,NA,NA,NA,NA,NA,NA,NA,NA,NA,NA
SUPAMT58118,3DIP6YHAPIRVSMEGL88843027P58ES,F2F21004-63B0-4996-AFFF-57F835F53EE6,2023-09-27_11h25.03.227,WP_VExplicitOC_LH,2022.2.5,Win32,5.333333333,NA,NA,NA,NA,NA,NA,NA,NA,NA,NA,NA,NA,NA,NA,NA,NA,NA,NA,NA,NA,stretch,NA,NA,NA,NA,NA,NA,NA,NA,NA,NA,NA,NA,NA,NA,NA,NA,NA,NA,NA,NA,NA,NA,NA,NA,NA,NA,NA,NA,NA,NA,NA,NA,NA,NA,NA,NA,NA,NA
SUPAMT58118,3DIP6YHAPIRVSMEGL88843027P58ES,F2F21004-63B0-4996-AFFF-57F835F53EE6,2023-09-27_11h25.03.227,WP_VExplicitOC_LH,2022.2.5,Win32,5.333333333,19.11111111,3.955,2.091,NA,NA,NA,NA,NA,bored,"bored, not bored","more bored, less bored",NA,NA,NA,NA,NA,NA,NA,NA,NA,NA,0,0,0,2,1,NA,NA,NA,NA,NA,NA,NA,NA,NA,NA,NA,NA,NA,NA,NA,NA,NA,NA,NA,NA,NA,NA,NA,NA,NA,NA,NA,NA,NA,NA,NA,NA,NA
SUPAMT58118,3DIP6YHAPIRVSMEGL88843027P58ES,F2F21004-63B0-4996-AFFF-57F835F53EE6,2023-09-27_11h25.03.227,WP_VExplicitOC_LH,2022.2.5,Win32,5.333333333,16.88888889,3.739,2.058,NA,NA,NA,NA,NA,frustrated,"frustrated, not frustrated","more frustrated, less frustrated",NA,NA,NA,NA,NA,NA,NA,NA,NA,NA,0,1,1,1,1,NA,NA,NA,NA,NA,NA,NA,NA,NA,NA,NA,NA,NA,NA,NA,NA,NA,NA,NA,NA,NA,NA,NA,NA,NA,NA,NA,NA,NA,NA,NA,NA,NA
SUPAMT58118,3DIP6YHAPIRVSMEGL88843027P58ES,F2F21004-63B0-4996-AFFF-57F835F53EE6,2023-09-27_11h25.03.227,WP_VExplicitOC_LH,2022.2.5,Win32,5.333333333,-14.66666667,5.072,2.177,NA,NA,NA,NA,NA,happy,"unhappy, happy","less happy, more happy",NA,NA,NA,NA,NA,NA,NA,NA,NA,NA,0,2,2,0,1,NA,NA,NA,NA,NA,NA,NA,NA,NA,NA,NA,NA,NA,NA,NA,NA,NA,NA,NA,NA,NA,NA,NA,NA,NA,NA,NA,NA,NA,NA,NA,NA,NA
SUPAMT58118,3DIP6YHAPIRVSMEGL88843027P58ES,F2F21004-63B0-4996-AFFF-57F835F53EE6,2023-09-27_11h25.03.227,WP_VExplicitOC_LH,2022.2.5,Win32,5.333333333,NA,NA,NA,NA,NA,NA,NA,NA,NA,NA,NA,NA,NA,NA,NA,NA,NA,NA,NA,NA,NA,NA,NA,NA,NA,NA,NA,NA,NA,NA,NA,NA,NA,NA,NA,NA,NA,NA,NA,NA,NA,NA,NA,NA,NA,NA,NA,NA,NA,NA,NA,NA,NA,NA,NA,NA,NA,NA,NA
SUPAMT58118,3DIP6YHAPIRVSMEGL88843027P58ES,F2F21004-63B0-4996-AFFF-57F835F53EE6,2023-09-27_11h25.03.227,WP_VExplicitOC_LH,2022.2.5,Win32,5.333333333,NA,NA,NA,NA,NA,NA,NA,NA,NA,NA,NA,NA,NA,NA,NA,NA,NA,NA,NA,NA,NA,NA,NA,NA,NA,NA,NA,NA,NA,NA,NA,NA,NA,NA,NA,NA,NA,NA,NA,NA,NA,NA,NA,NA,NA,NA,NA,NA,NA,NA,NA,NA,NA,NA,NA,NA,NA,NA,NA
SUPAMT58118,3DIP6YHAPIRVSMEGL88843027P58ES,F2F21004-63B0-4996-AFFF-57F835F53EE6,2023-09-27_11h25.03.227,WP_VExplicitOC_LH,2022.2.5,Win32,5.333333333,26.44444444,5.068,2.049,NA,NA,NA,NA,NA,frustrated,"frustrated, not frustrated","more frustrated, less frustrated",NA,NA,NA,NA,NA,NA,NA,NA,NA,NA,NA,NA,NA,NA,NA,0,0,0,1,1,NA,NA,NA,NA,NA,NA,NA,NA,NA,NA,NA,NA,NA,NA,NA,NA,NA,NA,NA,NA,NA,NA,NA,NA,NA,NA,NA,NA
SUPAMT58118,3DIP6YHAPIRVSMEGL88843027P58ES,F2F21004-63B0-4996-AFFF-57F835F53EE6,2023-09-27_11h25.03.227,WP_VExplicitOC_LH,2022.2.5,Win32,5.333333333,27.33333333,5.502,2.014,NA,NA,NA,NA,NA,bored,"bored, not bored","more bored, less bored",NA,NA,NA,NA,NA,NA,NA,NA,NA,NA,NA,NA,NA,NA,NA,0,1,1,2,1,NA,NA,NA,NA,NA,NA,NA,NA,NA,NA,NA,NA,NA,NA,NA,NA,NA,NA,NA,NA,NA,NA,NA,NA,NA,NA,NA,NA
SUPAMT58118,3DIP6YHAPIRVSMEGL88843027P58ES,F2F21004-63B0-4996-AFFF-57F835F53EE6,2023-09-27_11h25.03.227,WP_VExplicitOC_LH,2022.2.5,Win32,5.333333333,18.22222222,4.121,2.105,NA,NA,NA,NA,NA,happy,"unhappy, happy","less happy, more happy",NA,NA,NA,NA,NA,NA,NA,NA,NA,NA,NA,NA,NA,NA,NA,0,2,2,0,1,NA,NA,NA,NA,NA,NA,NA,NA,NA,NA,NA,NA,NA,NA,NA,NA,NA,NA,NA,NA,NA,NA,NA,NA,NA,NA,NA,NA
SUPAMT58118,3DIP6YHAPIRVSMEGL88843027P58ES,F2F21004-63B0-4996-AFFF-57F835F53EE6,2023-09-27_11h25.03.227,WP_VExplicitOC_LH,2022.2.5,Win32,5.333333333,NA,NA,NA,NA,NA,NA,NA,NA,NA,NA,NA,NA,NA,NA,NA,NA,NA,NA,NA,NA,NA,NA,NA,NA,NA,NA,NA,NA,NA,NA,NA,0,0,0,0,1,NA,NA,NA,NA,NA,NA,NA,NA,NA,NA,NA,NA,NA,NA,NA,NA,NA,NA,NA,NA,NA,NA,NA
SUPAMT58118,3DIP6YHAPIRVSMEGL88843027P58ES,F2F21004-63B0-4996-AFFF-57F835F53EE6,2023-09-27_11h25.03.227,WP_VExplicitOC_LH,2022.2.5,Win32,5.333333333,NA,NA,2.143,NA,NA,NA,NA,NA,bored,"bored, not bored","more bored, less bored",NA,NA,NA,NA,NA,NA,NA,NA,NA,NA,NA,NA,NA,NA,NA,0,0,0,2,1,NA,NA,NA,NA,NA,NA,NA,NA,NA,NA,NA,NA,NA,NA,NA,NA,NA,NA,NA,NA,NA,NA,NA,NA,NA,NA,NA,NA
SUPAMT58118,3DIP6YHAPIRVSMEGL88843027P58ES,F2F21004-63B0-4996-AFFF-57F835F53EE6,2023-09-27_11h25.03.227,WP_VExplicitOC_LH,2022.2.5,Win32,5.333333333,16.66666667,7.159,2.106,NA,NA,NA,NA,NA,frustrated,"frustrated, not frustrated","more frustrated, less frustrated",NA,NA,NA,NA,NA,NA,NA,NA,NA,NA,NA,NA,NA,NA,NA,0,1,1,1,1,NA,NA,NA,NA,NA,NA,NA,NA,NA,NA,NA,NA,NA,NA,NA,NA,NA,NA,NA,NA,NA,NA,NA,NA,NA,NA,NA,NA
SUPAMT58118,3DIP6YHAPIRVSMEGL88843027P58ES,F2F21004-63B0-4996-AFFF-57F835F53EE6,2023-09-27_11h25.03.227,WP_VExplicitOC_LH,2022.2.5,Win32,5.333333333,NA,NA,2.13,NA,NA,NA,NA,NA,happy,"unhappy, happy","less happy, more happy",NA,NA,NA,NA,NA,NA,NA,NA,NA,NA,NA,NA,NA,NA,NA,0,2,2,0,1,NA,NA,NA,NA,NA,NA,NA,NA,NA,NA,NA,NA,NA,NA,NA,NA,NA,NA,NA,NA,NA,NA,NA,NA,NA,NA,NA,NA
SUPAMT58118,3DIP6YHAPIRVSMEGL88843027P58ES,F2F21004-63B0-4996-AFFF-57F835F53EE6,2023-09-27_11h25.03.227,WP_VExplicitOC_LH,2022.2.5,Win32,5.333333333,NA,NA,NA,NA,NA,NA,NA,NA,NA,NA,NA,NA,NA,NA,NA,NA,NA,NA,NA,NA,NA,NA,NA,NA,NA,NA,NA,NA,NA,NA,NA,1,0,1,0,1,NA,NA,NA,NA,NA,NA,NA,NA,NA,NA,NA,NA,NA,NA,NA,NA,NA,NA,NA,NA,NA,NA,NA
SUPAMT58118,3DIP6YHAPIRVSMEGL88843027P58ES,F2F21004-63B0-4996-AFFF-57F835F53EE6,2023-09-27_11h25.03.227,WP_VExplicitOC_LH,2022.2.5,Win32,5.333333333,26.22222222,4.475,2.093,NA,NA,NA,NA,NA,bored,"bored, not bored","more bored, less bored",NA,NA,NA,NA,NA,NA,NA,NA,NA,NA,NA,NA,NA,NA,NA,0,0,0,2,1,NA,NA,NA,NA,NA,NA,NA,NA,NA,NA,NA,NA,NA,NA,NA,NA,NA,NA,NA,NA,NA,NA,NA,NA,NA,NA,NA,NA
SUPAMT58118,3DIP6YHAPIRVSMEGL88843027P58ES,F2F21004-63B0-4996-AFFF-57F835F53EE6,2023-09-27_11h25.03.227,WP_VExplicitOC_LH,2022.2.5,Win32,5.333333333,22.22222222,4.777,2.166,NA,NA,NA,NA,NA,happy,"unhappy, happy","less happy, more happy",NA,NA,NA,NA,NA,NA,NA,NA,NA,NA,NA,NA,NA,NA,NA,0,1,1,0,1,NA,NA,NA,NA,NA,NA,NA,NA,NA,NA,NA,NA,NA,NA,NA,NA,NA,NA,NA,NA,NA,NA,NA,NA,NA,NA,NA,NA
SUPAMT58118,3DIP6YHAPIRVSMEGL88843027P58ES,F2F21004-63B0-4996-AFFF-57F835F53EE6,2023-09-27_11h25.03.227,WP_VExplicitOC_LH,2022.2.5,Win32,5.333333333,22.22222222,3.69,2.046,NA,NA,NA,NA,NA,frustrated,"frustrated, not frustrated","more frustrated, less frustrated",NA,NA,NA,NA,NA,NA,NA,NA,NA,NA,NA,NA,NA,NA,NA,0,2,2,1,1,NA,NA,NA,NA,NA,NA,NA,NA,NA,NA,NA,NA,NA,NA,NA,NA,NA,NA,NA,NA,NA,NA,NA,NA,NA,NA,NA,NA
SUPAMT58118,3DIP6YHAPIRVSMEGL88843027P58ES,F2F21004-63B0-4996-AFFF-57F835F53EE6,2023-09-27_11h25.03.227,WP_VExplicitOC_LH,2022.2.5,Win32,5.333333333,NA,NA,NA,NA,NA,NA,NA,NA,NA,NA,NA,NA,NA,NA,NA,NA,NA,NA,NA,NA,NA,NA,NA,NA,NA,NA,NA,NA,NA,NA,NA,2,0,2,0,1,NA,NA,NA,NA,NA,NA,NA,NA,NA,NA,NA,NA,NA,NA,NA,NA,NA,NA,NA,NA,NA,NA,NA
SUPAMT58118,3DIP6YHAPIRVSMEGL88843027P58ES,F2F21004-63B0-4996-AFFF-57F835F53EE6,2023-09-27_11h25.03.227,WP_VExplicitOC_LH,2022.2.5,Win32,5.333333333,22,5.691,2.081,NA,NA,NA,NA,NA,bored,"bored, not bored","more bored, less bored",NA,NA,NA,NA,NA,NA,NA,NA,NA,NA,NA,NA,NA,NA,NA,0,0,0,2,1,NA,NA,NA,NA,NA,NA,NA,NA,NA,NA,NA,NA,NA,NA,NA,NA,NA,NA,NA,NA,NA,NA,NA,NA,NA,NA,NA,NA
SUPAMT58118,3DIP6YHAPIRVSMEGL88843027P58ES,F2F21004-63B0-4996-AFFF-57F835F53EE6,2023-09-27_11h25.03.227,WP_VExplicitOC_LH,2022.2.5,Win32,5.333333333,22,3.888,2.083,NA,NA,NA,NA,NA,happy,"unhappy, happy","less happy, more happy",NA,NA,NA,NA,NA,NA,NA,NA,NA,NA,NA,NA,NA,NA,NA,0,1,1,0,1,NA,NA,NA,NA,NA,NA,NA,NA,NA,NA,NA,NA,NA,NA,NA,NA,NA,NA,NA,NA,NA,NA,NA,NA,NA,NA,NA,NA
SUPAMT58118,3DIP6YHAPIRVSMEGL88843027P58ES,F2F21004-63B0-4996-AFFF-57F835F53EE6,2023-09-27_11h25.03.227,WP_VExplicitOC_LH,2022.2.5,Win32,5.333333333,22,6.2,2.095,NA,NA,NA,NA,NA,frustrated,"frustrated, not frustrated","more frustrated, less frustrated",NA,NA,NA,NA,NA,NA,NA,NA,NA,NA,NA,NA,NA,NA,NA,0,2,2,1,1,NA,NA,NA,NA,NA,NA,NA,NA,NA,NA,NA,NA,NA,NA,NA,NA,NA,NA,NA,NA,NA,NA,NA,NA,NA,NA,NA,NA
SUPAMT58118,3DIP6YHAPIRVSMEGL88843027P58ES,F2F21004-63B0-4996-AFFF-57F835F53EE6,2023-09-27_11h25.03.227,WP_VExplicitOC_LH,2022.2.5,Win32,5.333333333,NA,NA,NA,NA,NA,NA,NA,NA,NA,NA,NA,NA,NA,NA,NA,NA,NA,NA,NA,NA,NA,NA,NA,NA,NA,NA,NA,NA,NA,NA,NA,3,0,3,0,1,NA,NA,NA,NA,NA,NA,NA,NA,NA,NA,NA,NA,NA,NA,NA,NA,NA,NA,NA,NA,NA,NA,NA
SUPAMT58118,3DIP6YHAPIRVSMEGL88843027P58ES,F2F21004-63B0-4996-AFFF-57F835F53EE6,2023-09-27_11h25.03.227,WP_VExplicitOC_LH,2022.2.5,Win32,5.333333333,-32,6.348,2.066,NA,NA,NA,NA,NA,bored,"bored, not bored","more bored, less bored",NA,NA,NA,NA,NA,NA,NA,NA,NA,NA,NA,NA,NA,NA,NA,0,0,0,2,1,NA,NA,NA,NA,NA,NA,NA,NA,NA,NA,NA,NA,NA,NA,NA,NA,NA,NA,NA,NA,NA,NA,NA,NA,NA,NA,NA,NA
SUPAMT58118,3DIP6YHAPIRVSMEGL88843027P58ES,F2F21004-63B0-4996-AFFF-57F835F53EE6,2023-09-27_11h25.03.227,WP_VExplicitOC_LH,2022.2.5,Win32,5.333333333,-32,4.337,2.05,NA,NA,NA,NA,NA,happy,"unhappy, happy","less happy, more happy",NA,NA,NA,NA,NA,NA,NA,NA,NA,NA,NA,NA,NA,NA,NA,0,1,1,0,1,NA,NA,NA,NA,NA,NA,NA,NA,NA,NA,NA,NA,NA,NA,NA,NA,NA,NA,NA,NA,NA,NA,NA,NA,NA,NA,NA,NA
SUPAMT58118,3DIP6YHAPIRVSMEGL88843027P58ES,F2F21004-63B0-4996-AFFF-57F835F53EE6,2023-09-27_11h25.03.227,WP_VExplicitOC_LH,2022.2.5,Win32,5.333333333,-34.66666667,3.932,2.046,NA,NA,NA,NA,NA,frustrated,"frustrated, not frustrated","more frustrated, less frustrated",NA,NA,NA,NA,NA,NA,NA,NA,NA,NA,NA,NA,NA,NA,NA,0,2,2,1,1,NA,NA,NA,NA,NA,NA,NA,NA,NA,NA,NA,NA,NA,NA,NA,NA,NA,NA,NA,NA,NA,NA,NA,NA,NA,NA,NA,NA
SUPAMT58118,3DIP6YHAPIRVSMEGL88843027P58ES,F2F21004-63B0-4996-AFFF-57F835F53EE6,2023-09-27_11h25.03.227,WP_VExplicitOC_LH,2022.2.5,Win32,5.333333333,NA,NA,NA,NA,NA,NA,NA,NA,NA,NA,NA,NA,NA,NA,NA,NA,NA,NA,NA,NA,NA,NA,NA,NA,NA,NA,NA,NA,NA,NA,NA,4,0,4,0,1,NA,NA,NA,NA,NA,NA,NA,NA,NA,NA,NA,NA,NA,NA,NA,NA,NA,NA,NA,NA,NA,NA,NA
SUPAMT58118,3DIP6YHAPIRVSMEGL88843027P58ES,F2F21004-63B0-4996-AFFF-57F835F53EE6,2023-09-27_11h25.03.227,WP_VExplicitOC_LH,2022.2.5,Win32,5.333333333,NA,NA,2.038,NA,NA,NA,NA,NA,frustrated,"frustrated, not frustrated","more frustrated, less frustrated",NA,NA,NA,NA,NA,NA,NA,NA,NA,NA,NA,NA,NA,NA,NA,0,0,0,1,1,NA,NA,NA,NA,NA,NA,NA,NA,NA,NA,NA,NA,NA,NA,NA,NA,NA,NA,NA,NA,NA,NA,NA,NA,NA,NA,NA,NA
SUPAMT58118,3DIP6YHAPIRVSMEGL88843027P58ES,F2F21004-63B0-4996-AFFF-57F835F53EE6,2023-09-27_11h25.03.227,WP_VExplicitOC_LH,2022.2.5,Win32,5.333333333,-61.33333333,5.318,2.076,NA,NA,NA,NA,NA,happy,"unhappy, happy","less happy, more happy",NA,NA,NA,NA,NA,NA,NA,NA,NA,NA,NA,NA,NA,NA,NA,0,1,1,0,1,NA,NA,NA,NA,NA,NA,NA,NA,NA,NA,NA,NA,NA,NA,NA,NA,NA,NA,NA,NA,NA,NA,NA,NA,NA,NA,NA,NA
SUPAMT58118,3DIP6YHAPIRVSMEGL88843027P58ES,F2F21004-63B0-4996-AFFF-57F835F53EE6,2023-09-27_11h25.03.227,WP_VExplicitOC_LH,2022.2.5,Win32,5.333333333,-61.33333333,5.28,2.048,NA,NA,NA,NA,NA,bored,"bored, not bored","more bored, less bored",NA,NA,NA,NA,NA,NA,NA,NA,NA,NA,NA,NA,NA,NA,NA,0,2,2,2,1,NA,NA,NA,NA,NA,NA,NA,NA,NA,NA,NA,NA,NA,NA,NA,NA,NA,NA,NA,NA,NA,NA,NA,NA,NA,NA,NA,NA
SUPAMT58118,3DIP6YHAPIRVSMEGL88843027P58ES,F2F21004-63B0-4996-AFFF-57F835F53EE6,2023-09-27_11h25.03.227,WP_VExplicitOC_LH,2022.2.5,Win32,5.333333333,NA,NA,NA,NA,NA,NA,NA,NA,NA,NA,NA,NA,NA,NA,NA,NA,NA,NA,NA,NA,NA,NA,NA,NA,NA,NA,NA,NA,NA,NA,NA,5,0,5,0,1,NA,NA,NA,NA,NA,NA,NA,NA,NA,NA,NA,NA,NA,NA,NA,NA,NA,NA,NA,NA,NA,NA,NA
SUPAMT58118,3DIP6YHAPIRVSMEGL88843027P58ES,F2F21004-63B0-4996-AFFF-57F835F53EE6,2023-09-27_11h25.03.227,WP_VExplicitOC_LH,2022.2.5,Win32,5.333333333,NA,NA,2.066,NA,NA,NA,NA,NA,frustrated,"frustrated, not frustrated","more frustrated, less frustrated",NA,NA,NA,NA,NA,NA,NA,NA,NA,NA,NA,NA,NA,NA,NA,0,0,0,1,1,NA,NA,NA,NA,NA,NA,NA,NA,NA,NA,NA,NA,NA,NA,NA,NA,NA,NA,NA,NA,NA,NA,NA,NA,NA,NA,NA,NA
SUPAMT58118,3DIP6YHAPIRVSMEGL88843027P58ES,F2F21004-63B0-4996-AFFF-57F835F53EE6,2023-09-27_11h25.03.227,WP_VExplicitOC_LH,2022.2.5,Win32,5.333333333,-100,6.063,2.049,NA,NA,NA,NA,NA,happy,"unhappy, happy","less happy, more happy",NA,NA,NA,NA,NA,NA,NA,NA,NA,NA,NA,NA,NA,NA,NA,0,1,1,0,1,NA,NA,NA,NA,NA,NA,NA,NA,NA,NA,NA,NA,NA,NA,NA,NA,NA,NA,NA,NA,NA,NA,NA,NA,NA,NA,NA,NA
SUPAMT58118,3DIP6YHAPIRVSMEGL88843027P58ES,F2F21004-63B0-4996-AFFF-57F835F53EE6,2023-09-27_11h25.03.227,WP_VExplicitOC_LH,2022.2.5,Win32,5.333333333,-100,5.066,2.152,NA,NA,NA,NA,NA,bored,"bored, not bored","more bored, less bored",NA,NA,NA,NA,NA,NA,NA,NA,NA,NA,NA,NA,NA,NA,NA,0,2,2,2,1,NA,NA,NA,NA,NA,NA,NA,NA,NA,NA,NA,NA,NA,NA,NA,NA,NA,NA,NA,NA,NA,NA,NA,NA,NA,NA,NA,NA
SUPAMT58118,3DIP6YHAPIRVSMEGL88843027P58ES,F2F21004-63B0-4996-AFFF-57F835F53EE6,2023-09-27_11h25.03.227,WP_VExplicitOC_LH,2022.2.5,Win32,5.333333333,NA,NA,NA,NA,NA,NA,NA,NA,NA,NA,NA,NA,NA,NA,NA,NA,NA,NA,NA,NA,NA,NA,NA,NA,NA,NA,NA,NA,NA,NA,NA,6,0,6,0,1,NA,NA,NA,NA,NA,NA,NA,NA,NA,NA,NA,NA,NA,NA,NA,NA,NA,NA,NA,NA,NA,NA,NA
SUPAMT58118,3DIP6YHAPIRVSMEGL88843027P58ES,F2F21004-63B0-4996-AFFF-57F835F53EE6,2023-09-27_11h25.03.227,WP_VExplicitOC_LH,2022.2.5,Win32,5.333333333,NA,NA,2.135,NA,NA,NA,NA,NA,happy,"unhappy, happy","less happy, more happy",NA,NA,NA,NA,NA,NA,NA,NA,NA,NA,NA,NA,NA,NA,NA,0,0,0,0,1,NA,NA,NA,NA,NA,NA,NA,NA,NA,NA,NA,NA,NA,NA,NA,NA,NA,NA,NA,NA,NA,NA,NA,NA,NA,NA,NA,NA
SUPAMT58118,3DIP6YHAPIRVSMEGL88843027P58ES,F2F21004-63B0-4996-AFFF-57F835F53EE6,2023-09-27_11h25.03.227,WP_VExplicitOC_LH,2022.2.5,Win32,5.333333333,NA,NA,2.105,NA,NA,NA,NA,NA,frustrated,"frustrated, not frustrated","more frustrated, less frustrated",NA,NA,NA,NA,NA,NA,NA,NA,NA,NA,NA,NA,NA,NA,NA,0,1,1,1,1,NA,NA,NA,NA,NA,NA,NA,NA,NA,NA,NA,NA,NA,NA,NA,NA,NA,NA,NA,NA,NA,NA,NA,NA,NA,NA,NA,NA
SUPAMT58118,3DIP6YHAPIRVSMEGL88843027P58ES,F2F21004-63B0-4996-AFFF-57F835F53EE6,2023-09-27_11h25.03.227,WP_VExplicitOC_LH,2022.2.5,Win32,5.333333333,NA,NA,2.147,NA,NA,NA,NA,NA,bored,"bored, not bored","more bored, less bored",NA,NA,NA,NA,NA,NA,NA,NA,NA,NA,NA,NA,NA,NA,NA,0,2,2,2,1,NA,NA,NA,NA,NA,NA,NA,NA,NA,NA,NA,NA,NA,NA,NA,NA,NA,NA,NA,NA,NA,NA,NA,NA,NA,NA,NA,NA
SUPAMT58118,3DIP6YHAPIRVSMEGL88843027P58ES,F2F21004-63B0-4996-AFFF-57F835F53EE6,2023-09-27_11h25.03.227,WP_VExplicitOC_LH,2022.2.5,Win32,5.333333333,NA,NA,NA,NA,NA,NA,NA,NA,NA,NA,NA,NA,NA,NA,NA,NA,NA,NA,NA,NA,NA,NA,NA,NA,NA,NA,NA,NA,NA,NA,NA,7,0,7,0,1,NA,NA,NA,NA,NA,NA,NA,NA,NA,NA,NA,NA,NA,NA,NA,NA,NA,NA,NA,NA,NA,NA,NA
SUPAMT58118,3DIP6YHAPIRVSMEGL88843027P58ES,F2F21004-63B0-4996-AFFF-57F835F53EE6,2023-09-27_11h25.03.227,WP_VExplicitOC_LH,2022.2.5,Win32,5.333333333,100,6.233,2.102,NA,NA,NA,NA,NA,frustrated,"frustrated, not frustrated","more frustrated, less frustrated",NA,NA,NA,NA,NA,NA,NA,NA,NA,NA,NA,NA,NA,NA,NA,0,0,0,1,1,NA,NA,NA,NA,NA,NA,NA,NA,NA,NA,NA,NA,NA,NA,NA,NA,NA,NA,NA,NA,NA,NA,NA,NA,NA,NA,NA,NA
SUPAMT58118,3DIP6YHAPIRVSMEGL88843027P58ES,F2F21004-63B0-4996-AFFF-57F835F53EE6,2023-09-27_11h25.03.227,WP_VExplicitOC_LH,2022.2.5,Win32,5.333333333,100,4.672,2.031,NA,NA,NA,NA,NA,happy,"unhappy, happy","less happy, more happy",NA,NA,NA,NA,NA,NA,NA,NA,NA,NA,NA,NA,NA,NA,NA,0,1,1,0,1,NA,NA,NA,NA,NA,NA,NA,NA,NA,NA,NA,NA,NA,NA,NA,NA,NA,NA,NA,NA,NA,NA,NA,NA,NA,NA,NA,NA
SUPAMT58118,3DIP6YHAPIRVSMEGL88843027P58ES,F2F21004-63B0-4996-AFFF-57F835F53EE6,2023-09-27_11h25.03.227,WP_VExplicitOC_LH,2022.2.5,Win32,5.333333333,100,5.129,2.116,NA,NA,NA,NA,NA,bored,"bored, not bored","more bored, less bored",NA,NA,NA,NA,NA,NA,NA,NA,NA,NA,NA,NA,NA,NA,NA,0,2,2,2,1,NA,NA,NA,NA,NA,NA,NA,NA,NA,NA,NA,NA,NA,NA,NA,NA,NA,NA,NA,NA,NA,NA,NA,NA,NA,NA,NA,NA
SUPAMT58118,3DIP6YHAPIRVSMEGL88843027P58ES,F2F21004-63B0-4996-AFFF-57F835F53EE6,2023-09-27_11h25.03.227,WP_VExplicitOC_LH,2022.2.5,Win32,5.333333333,NA,NA,NA,NA,NA,NA,NA,NA,NA,NA,NA,NA,NA,NA,NA,NA,NA,NA,NA,NA,NA,NA,NA,NA,NA,NA,NA,NA,NA,NA,NA,8,0,8,0,1,NA,NA,NA,NA,NA,NA,NA,NA,NA,NA,NA,NA,NA,NA,NA,NA,NA,NA,NA,NA,NA,NA,NA
SUPAMT58118,3DIP6YHAPIRVSMEGL88843027P58ES,F2F21004-63B0-4996-AFFF-57F835F53EE6,2023-09-27_11h25.03.227,WP_VExplicitOC_LH,2022.2.5,Win32,5.333333333,22.66666667,5.867,2.088,NA,NA,NA,NA,NA,frustrated,"frustrated, not frustrated","more frustrated, less frustrated",NA,NA,NA,NA,NA,NA,NA,NA,NA,NA,NA,NA,NA,NA,NA,0,0,0,1,1,NA,NA,NA,NA,NA,NA,NA,NA,NA,NA,NA,NA,NA,NA,NA,NA,NA,NA,NA,NA,NA,NA,NA,NA,NA,NA,NA,NA
SUPAMT58118,3DIP6YHAPIRVSMEGL88843027P58ES,F2F21004-63B0-4996-AFFF-57F835F53EE6,2023-09-27_11h25.03.227,WP_VExplicitOC_LH,2022.2.5,Win32,5.333333333,27.77777778,5.09,2.13,NA,NA,NA,NA,NA,happy,"unhappy, happy","less happy, more happy",NA,NA,NA,NA,NA,NA,NA,NA,NA,NA,NA,NA,NA,NA,NA,0,1,1,0,1,NA,NA,NA,NA,NA,NA,NA,NA,NA,NA,NA,NA,NA,NA,NA,NA,NA,NA,NA,NA,NA,NA,NA,NA,NA,NA,NA,NA
SUPAMT58118,3DIP6YHAPIRVSMEGL88843027P58ES,F2F21004-63B0-4996-AFFF-57F835F53EE6,2023-09-27_11h25.03.227,WP_VExplicitOC_LH,2022.2.5,Win32,5.333333333,27.77777778,4.477,2.208,NA,NA,NA,NA,NA,bored,"bored, not bored","more bored, less bored",NA,NA,NA,NA,NA,NA,NA,NA,NA,NA,NA,NA,NA,NA,NA,0,2,2,2,1,NA,NA,NA,NA,NA,NA,NA,NA,NA,NA,NA,NA,NA,NA,NA,NA,NA,NA,NA,NA,NA,NA,NA,NA,NA,NA,NA,NA
SUPAMT58118,3DIP6YHAPIRVSMEGL88843027P58ES,F2F21004-63B0-4996-AFFF-57F835F53EE6,2023-09-27_11h25.03.227,WP_VExplicitOC_LH,2022.2.5,Win32,5.333333333,NA,NA,NA,NA,NA,NA,NA,NA,NA,NA,NA,NA,NA,NA,NA,NA,NA,NA,NA,NA,NA,NA,NA,NA,NA,NA,NA,NA,NA,NA,NA,9,0,9,0,1,NA,NA,NA,NA,NA,NA,NA,NA,NA,NA,NA,NA,NA,NA,NA,NA,NA,NA,NA,NA,NA,NA,NA
SUPAMT58118,3DIP6YHAPIRVSMEGL88843027P58ES,F2F21004-63B0-4996-AFFF-57F835F53EE6,2023-09-27_11h25.03.227,WP_VExplicitOC_LH,2022.2.5,Win32,5.333333333,-24.66666667,6.557,2.101,NA,NA,NA,NA,NA,frustrated,"frustrated, not frustrated","more frustrated, less frustrated",NA,NA,NA,NA,NA,NA,NA,NA,NA,NA,NA,NA,NA,NA,NA,0,0,0,1,1,NA,NA,NA,NA,NA,NA,NA,NA,NA,NA,NA,NA,NA,NA,NA,NA,NA,NA,NA,NA,NA,NA,NA,NA,NA,NA,NA,NA
SUPAMT58118,3DIP6YHAPIRVSMEGL88843027P58ES,F2F21004-63B0-4996-AFFF-57F835F53EE6,2023-09-27_11h25.03.227,WP_VExplicitOC_LH,2022.2.5,Win32,5.333333333,-20,5.752,2.14,NA,NA,NA,NA,NA,happy,"unhappy, happy","less happy, more happy",NA,NA,NA,NA,NA,NA,NA,NA,NA,NA,NA,NA,NA,NA,NA,0,1,1,0,1,NA,NA,NA,NA,NA,NA,NA,NA,NA,NA,NA,NA,NA,NA,NA,NA,NA,NA,NA,NA,NA,NA,NA,NA,NA,NA,NA,NA
SUPAMT58118,3DIP6YHAPIRVSMEGL88843027P58ES,F2F21004-63B0-4996-AFFF-57F835F53EE6,2023-09-27_11h25.03.227,WP_VExplicitOC_LH,2022.2.5,Win32,5.333333333,21.11111111,4.051,2.167,NA,NA,NA,NA,NA,bored,"bored, not bored","more bored, less bored",NA,NA,NA,NA,NA,NA,NA,NA,NA,NA,NA,NA,NA,NA,NA,0,2,2,2,1,NA,NA,NA,NA,NA,NA,NA,NA,NA,NA,NA,NA,NA,NA,NA,NA,NA,NA,NA,NA,NA,NA,NA,NA,NA,NA,NA,NA
SUPAMT58118,3DIP6YHAPIRVSMEGL88843027P58ES,F2F21004-63B0-4996-AFFF-57F835F53EE6,2023-09-27_11h25.03.227,WP_VExplicitOC_LH,2022.2.5,Win32,5.333333333,NA,NA,NA,NA,NA,NA,NA,NA,NA,NA,NA,NA,NA,NA,NA,NA,NA,NA,NA,NA,NA,NA,NA,NA,NA,NA,NA,NA,NA,NA,NA,10,0,10,0,1,NA,NA,NA,NA,NA,NA,NA,NA,NA,NA,NA,NA,NA,NA,NA,NA,NA,NA,NA,NA,NA,NA,NA
SUPAMT58118,3DIP6YHAPIRVSMEGL88843027P58ES,F2F21004-63B0-4996-AFFF-57F835F53EE6,2023-09-27_11h25.03.227,WP_VExplicitOC_LH,2022.2.5,Win32,5.333333333,NA,NA,2.07,NA,NA,NA,NA,NA,frustrated,"frustrated, not frustrated","more frustrated, less frustrated",NA,NA,NA,NA,NA,NA,NA,NA,NA,NA,NA,NA,NA,NA,NA,0,0,0,1,1,NA,NA,NA,NA,NA,NA,NA,NA,NA,NA,NA,NA,NA,NA,NA,NA,NA,NA,NA,NA,NA,NA,NA,NA,NA,NA,NA,NA
SUPAMT58118,3DIP6YHAPIRVSMEGL88843027P58ES,F2F21004-63B0-4996-AFFF-57F835F53EE6,2023-09-27_11h25.03.227,WP_VExplicitOC_LH,2022.2.5,Win32,5.333333333,14.44444444,4.886,2.003,NA,NA,NA,NA,NA,happy,"unhappy, happy","less happy, more happy",NA,NA,NA,NA,NA,NA,NA,NA,NA,NA,NA,NA,NA,NA,NA,0,1,1,0,1,NA,NA,NA,NA,NA,NA,NA,NA,NA,NA,NA,NA,NA,NA,NA,NA,NA,NA,NA,NA,NA,NA,NA,NA,NA,NA,NA,NA
SUPAMT58118,3DIP6YHAPIRVSMEGL88843027P58ES,F2F21004-63B0-4996-AFFF-57F835F53EE6,2023-09-27_11h25.03.227,WP_VExplicitOC_LH,2022.2.5,Win32,5.333333333,14.44444444,5.893,2.336,NA,NA,NA,NA,NA,bored,"bored, not bored","more bored, less bored",NA,NA,NA,NA,NA,NA,NA,NA,NA,NA,NA,NA,NA,NA,NA,0,2,2,2,1,NA,NA,NA,NA,NA,NA,NA,NA,NA,NA,NA,NA,NA,NA,NA,NA,NA,NA,NA,NA,NA,NA,NA,NA,NA,NA,NA,NA
SUPAMT58118,3DIP6YHAPIRVSMEGL88843027P58ES,F2F21004-63B0-4996-AFFF-57F835F53EE6,2023-09-27_11h25.03.227,WP_VExplicitOC_LH,2022.2.5,Win32,5.333333333,NA,NA,NA,NA,NA,NA,NA,NA,NA,NA,NA,NA,NA,NA,NA,NA,NA,NA,NA,NA,NA,NA,NA,NA,NA,NA,NA,NA,NA,NA,NA,11,0,11,0,1,NA,NA,NA,NA,NA,NA,NA,NA,NA,NA,NA,NA,NA,NA,NA,NA,NA,NA,NA,NA,NA,NA,NA
SUPAMT58118,3DIP6YHAPIRVSMEGL88843027P58ES,F2F21004-63B0-4996-AFFF-57F835F53EE6,2023-09-27_11h25.03.227,WP_VExplicitOC_LH,2022.2.5,Win32,5.333333333,95.33333333,4.736,2.096,NA,NA,NA,NA,NA,bored,"bored, not bored","more bored, less bored",NA,NA,NA,NA,NA,NA,NA,NA,NA,NA,NA,NA,NA,NA,NA,0,0,0,2,1,NA,NA,NA,NA,NA,NA,NA,NA,NA,NA,NA,NA,NA,NA,NA,NA,NA,NA,NA,NA,NA,NA,NA,NA,NA,NA,NA,NA
SUPAMT58118,3DIP6YHAPIRVSMEGL88843027P58ES,F2F21004-63B0-4996-AFFF-57F835F53EE6,2023-09-27_11h25.03.227,WP_VExplicitOC_LH,2022.2.5,Win32,5.333333333,93.77777778,4.177,2.091,NA,NA,NA,NA,NA,happy,"unhappy, happy","less happy, more happy",NA,NA,NA,NA,NA,NA,NA,NA,NA,NA,NA,NA,NA,NA,NA,0,1,1,0,1,NA,NA,NA,NA,NA,NA,NA,NA,NA,NA,NA,NA,NA,NA,NA,NA,NA,NA,NA,NA,NA,NA,NA,NA,NA,NA,NA,NA
SUPAMT58118,3DIP6YHAPIRVSMEGL88843027P58ES,F2F21004-63B0-4996-AFFF-57F835F53EE6,2023-09-27_11h25.03.227,WP_VExplicitOC_LH,2022.2.5,Win32,5.333333333,93.77777778,3.532,2.106,NA,NA,NA,NA,NA,frustrated,"frustrated, not frustrated","more frustrated, less frustrated",NA,NA,NA,NA,NA,NA,NA,NA,NA,NA,NA,NA,NA,NA,NA,0,2,2,1,1,NA,NA,NA,NA,NA,NA,NA,NA,NA,NA,NA,NA,NA,NA,NA,NA,NA,NA,NA,NA,NA,NA,NA,NA,NA,NA,NA,NA
SUPAMT58118,3DIP6YHAPIRVSMEGL88843027P58ES,F2F21004-63B0-4996-AFFF-57F835F53EE6,2023-09-27_11h25.03.227,WP_VExplicitOC_LH,2022.2.5,Win32,5.333333333,NA,NA,NA,NA,NA,NA,NA,NA,NA,NA,NA,NA,NA,NA,NA,NA,NA,NA,NA,NA,NA,NA,NA,NA,NA,NA,NA,NA,NA,NA,NA,12,0,12,0,1,NA,NA,NA,NA,NA,NA,NA,NA,NA,NA,NA,NA,NA,NA,NA,NA,NA,NA,NA,NA,NA,NA,NA
SUPAMT58118,3DIP6YHAPIRVSMEGL88843027P58ES,F2F21004-63B0-4996-AFFF-57F835F53EE6,2023-09-27_11h25.03.227,WP_VExplicitOC_LH,2022.2.5,Win32,5.333333333,93.77777778,3.501,2.016,NA,NA,NA,NA,NA,bored,"bored, not bored","more bored, less bored",NA,NA,NA,NA,NA,NA,NA,NA,NA,NA,NA,NA,NA,NA,NA,0,0,0,2,1,NA,NA,NA,NA,NA,NA,NA,NA,NA,NA,NA,NA,NA,NA,NA,NA,NA,NA,NA,NA,NA,NA,NA,NA,NA,NA,NA,NA
SUPAMT58118,3DIP6YHAPIRVSMEGL88843027P58ES,F2F21004-63B0-4996-AFFF-57F835F53EE6,2023-09-27_11h25.03.227,WP_VExplicitOC_LH,2022.2.5,Win32,5.333333333,93.77777778,4.278,2.145,NA,NA,NA,NA,NA,frustrated,"frustrated, not frustrated","more frustrated, less frustrated",NA,NA,NA,NA,NA,NA,NA,NA,NA,NA,NA,NA,NA,NA,NA,0,1,1,1,1,NA,NA,NA,NA,NA,NA,NA,NA,NA,NA,NA,NA,NA,NA,NA,NA,NA,NA,NA,NA,NA,NA,NA,NA,NA,NA,NA,NA
SUPAMT58118,3DIP6YHAPIRVSMEGL88843027P58ES,F2F21004-63B0-4996-AFFF-57F835F53EE6,2023-09-27_11h25.03.227,WP_VExplicitOC_LH,2022.2.5,Win32,5.333333333,86,4.801,2.143,NA,NA,NA,NA,NA,happy,"unhappy, happy","less happy, more happy",NA,NA,NA,NA,NA,NA,NA,NA,NA,NA,NA,NA,NA,NA,NA,0,2,2,0,1,NA,NA,NA,NA,NA,NA,NA,NA,NA,NA,NA,NA,NA,NA,NA,NA,NA,NA,NA,NA,NA,NA,NA,NA,NA,NA,NA,NA
SUPAMT58118,3DIP6YHAPIRVSMEGL88843027P58ES,F2F21004-63B0-4996-AFFF-57F835F53EE6,2023-09-27_11h25.03.227,WP_VExplicitOC_LH,2022.2.5,Win32,5.333333333,NA,NA,NA,NA,NA,NA,NA,NA,NA,NA,NA,NA,NA,NA,NA,NA,NA,NA,NA,NA,NA,NA,NA,NA,NA,NA,NA,NA,NA,NA,NA,13,0,13,0,1,NA,NA,NA,NA,NA,NA,NA,NA,NA,NA,NA,NA,NA,NA,NA,NA,NA,NA,NA,NA,NA,NA,NA
SUPAMT58118,3DIP6YHAPIRVSMEGL88843027P58ES,F2F21004-63B0-4996-AFFF-57F835F53EE6,2023-09-27_11h25.03.227,WP_VExplicitOC_LH,2022.2.5,Win32,5.333333333,67.33333333,4.128,2.052,NA,NA,NA,NA,NA,bored,"bored, not bored","more bored, less bored",NA,NA,NA,NA,NA,NA,NA,NA,NA,NA,NA,NA,NA,NA,NA,0,0,0,2,1,NA,NA,NA,NA,NA,NA,NA,NA,NA,NA,NA,NA,NA,NA,NA,NA,NA,NA,NA,NA,NA,NA,NA,NA,NA,NA,NA,NA
SUPAMT58118,3DIP6YHAPIRVSMEGL88843027P58ES,F2F21004-63B0-4996-AFFF-57F835F53EE6,2023-09-27_11h25.03.227,WP_VExplicitOC_LH,2022.2.5,Win32,5.333333333,52.36270754,6.934,2.059,NA,NA,NA,NA,NA,happy,"unhappy, happy","less happy, more happy",NA,NA,NA,NA,NA,NA,NA,NA,NA,NA,NA,NA,NA,NA,NA,0,1,1,0,1,NA,NA,NA,NA,NA,NA,NA,NA,NA,NA,NA,NA,NA,NA,NA,NA,NA,NA,NA,NA,NA,NA,NA,NA,NA,NA,NA,NA
SUPAMT58118,3DIP6YHAPIRVSMEGL88843027P58ES,F2F21004-63B0-4996-AFFF-57F835F53EE6,2023-09-27_11h25.03.227,WP_VExplicitOC_LH,2022.2.5,Win32,5.333333333,64.62324393,3.933,2.158,NA,NA,NA,NA,NA,frustrated,"frustrated, not frustrated","more frustrated, less frustrated",NA,NA,NA,NA,NA,NA,NA,NA,NA,NA,NA,NA,NA,NA,NA,0,2,2,1,1,NA,NA,NA,NA,NA,NA,NA,NA,NA,NA,NA,NA,NA,NA,NA,NA,NA,NA,NA,NA,NA,NA,NA,NA,NA,NA,NA,NA
SUPAMT58118,3DIP6YHAPIRVSMEGL88843027P58ES,F2F21004-63B0-4996-AFFF-57F835F53EE6,2023-09-27_11h25.03.227,WP_VExplicitOC_LH,2022.2.5,Win32,5.333333333,NA,NA,NA,NA,NA,NA,NA,NA,NA,NA,NA,NA,NA,NA,NA,NA,NA,NA,NA,NA,NA,NA,NA,NA,NA,NA,NA,NA,NA,NA,NA,14,0,14,0,1,NA,NA,NA,NA,NA,NA,NA,NA,NA,NA,NA,NA,NA,NA,NA,NA,NA,NA,NA,NA,NA,NA,NA
SUPAMT58118,3DIP6YHAPIRVSMEGL88843027P58ES,F2F21004-63B0-4996-AFFF-57F835F53EE6,2023-09-27_11h25.03.227,WP_VExplicitOC_LH,2022.2.5,Win32,5.333333333,NA,NA,NA,NA,NA,NA,NA,NA,NA,NA,NA,NA,NA,NA,NA,NA,NA,NA,NA,NA,NA,NA,NA,NA,NA,NA,NA,NA,NA,NA,NA,NA,NA,NA,NA,NA,NA,NA,NA,NA,NA,NA,NA,NA,NA,NA,NA,NA,NA,NA,NA,NA,NA,NA,NA,NA,NA,NA,NA
SUPAMT58118,3DIP6YHAPIRVSMEGL88843027P58ES,F2F21004-63B0-4996-AFFF-57F835F53EE6,2023-09-27_11h25.03.227,WP_VExplicitOC_LH,2022.2.5,Win32,5.333333333,NA,NA,NA,NA,NA,NA,NA,NA,NA,NA,NA,NA,NA,NA,NA,NA,NA,NA,NA,NA,NA,NA,NA,NA,NA,NA,NA,NA,NA,NA,NA,NA,NA,NA,NA,NA,NA,NA,NA,NA,NA,NA,NA,NA,NA,NA,NA,NA,NA,NA,NA,NA,NA,NA,NA,NA,NA,NA,NA
SUPAMT58118,3DIP6YHAPIRVSMEGL88843027P58ES,F2F21004-63B0-4996-AFFF-57F835F53EE6,2023-09-27_11h25.03.227,WP_VExplicitOC_LH,2022.2.5,Win32,5.333333333,NA,NA,NA,NA,NA,NA,NA,NA,NA,NA,NA,NA,NA,NA,NA,NA,NA,NA,rest (looking at a fixed cross),001.png,NA,NA,NA,NA,NA,NA,NA,NA,NA,NA,NA,NA,NA,NA,NA,NA,62.06896552,3.681,0,0,0,0,1,NA,NA,NA,NA,NA,NA,NA,NA,NA,NA,NA,NA,NA,NA,NA,NA
SUPAMT58118,3DIP6YHAPIRVSMEGL88843027P58ES,F2F21004-63B0-4996-AFFF-57F835F53EE6,2023-09-27_11h25.03.227,WP_VExplicitOC_LH,2022.2.5,Win32,5.333333333,NA,NA,NA,NA,NA,NA,NA,NA,NA,NA,NA,NA,NA,NA,NA,NA,NA,NA,stand up,002.png,NA,NA,NA,NA,NA,NA,NA,NA,NA,NA,NA,NA,NA,NA,NA,NA,35.75989783,5.319,0,1,1,1,1,NA,NA,NA,NA,NA,NA,NA,NA,NA,NA,NA,NA,NA,NA,NA,NA
SUPAMT58118,3DIP6YHAPIRVSMEGL88843027P58ES,F2F21004-63B0-4996-AFFF-57F835F53EE6,2023-09-27_11h25.03.227,WP_VExplicitOC_LH,2022.2.5,Win32,5.333333333,NA,NA,NA,NA,NA,NA,NA,NA,NA,NA,NA,NA,NA,NA,NA,NA,NA,NA,stretch,003.png,NA,NA,NA,NA,NA,NA,NA,NA,NA,NA,NA,NA,NA,NA,NA,NA,42.91187739,3.858,0,2,2,2,1,NA,NA,NA,NA,NA,NA,NA,NA,NA,NA,NA,NA,NA,NA,NA,NA
SUPAMT58118,3DIP6YHAPIRVSMEGL88843027P58ES,F2F21004-63B0-4996-AFFF-57F835F53EE6,2023-09-27_11h25.03.227,WP_VExplicitOC_LH,2022.2.5,Win32,5.333333333,NA,NA,NA,NA,NA,NA,NA,NA,NA,NA,NA,NA,NA,NA,NA,NA,NA,NA,make a drink,004.png,NA,NA,NA,NA,NA,NA,NA,NA,NA,NA,NA,NA,NA,NA,NA,NA,43.42273308,2.187,0,3,3,3,1,NA,NA,NA,NA,NA,NA,NA,NA,NA,NA,NA,NA,NA,NA,NA,NA
SUPAMT58118,3DIP6YHAPIRVSMEGL88843027P58ES,F2F21004-63B0-4996-AFFF-57F835F53EE6,2023-09-27_11h25.03.227,WP_VExplicitOC_LH,2022.2.5,Win32,5.333333333,NA,NA,NA,NA,NA,NA,NA,NA,NA,NA,NA,NA,NA,NA,NA,NA,NA,NA,scroll social media,005.png,NA,NA,NA,NA,NA,NA,NA,NA,NA,NA,NA,NA,NA,NA,NA,NA,43.42273308,1.444,0,4,4,4,1,NA,NA,NA,NA,NA,NA,NA,NA,NA,NA,NA,NA,NA,NA,NA,NA
SUPAMT58118,3DIP6YHAPIRVSMEGL88843027P58ES,F2F21004-63B0-4996-AFFF-57F835F53EE6,2023-09-27_11h25.03.227,WP_VExplicitOC_LH,2022.2.5,Win32,5.333333333,NA,NA,NA,NA,NA,NA,NA,NA,NA,NA,NA,NA,NA,NA,NA,NA,NA,NA,listen to music,006.png,NA,NA,NA,NA,NA,NA,NA,NA,NA,NA,NA,NA,NA,NA,NA,NA,43.42273308,1.637,0,5,5,5,1,NA,NA,NA,NA,NA,NA,NA,NA,NA,NA,NA,NA,NA,NA,NA,NA
SUPAMT58118,3DIP6YHAPIRVSMEGL88843027P58ES,F2F21004-63B0-4996-AFFF-57F835F53EE6,2023-09-27_11h25.03.227,WP_VExplicitOC_LH,2022.2.5,Win32,5.333333333,NA,NA,NA,NA,NA,NA,NA,NA,NA,NA,NA,NA,NA,NA,NA,NA,NA,NA,daydream,007.png,NA,NA,NA,NA,NA,NA,NA,NA,NA,NA,NA,NA,NA,NA,NA,NA,43.42273308,0.185,0,6,6,6,1,NA,NA,NA,NA,NA,NA,NA,NA,NA,NA,NA,NA,NA,NA,NA,NA
SUPAMT58118,3DIP6YHAPIRVSMEGL88843027P58ES,F2F21004-63B0-4996-AFFF-57F835F53EE6,2023-09-27_11h25.03.227,WP_VExplicitOC_LH,2022.2.5,Win32,5.333333333,NA,NA,NA,NA,NA,NA,NA,NA,NA,NA,NA,NA,NA,NA,NA,NA,NA,NA,watch a short animation,008.png,NA,NA,NA,NA,NA,NA,NA,NA,NA,NA,NA,NA,NA,NA,NA,NA,43.42273308,2.343,0,7,7,7,1,NA,NA,NA,NA,NA,NA,NA,NA,NA,NA,NA,NA,NA,NA,NA,NA
SUPAMT58118,3DIP6YHAPIRVSMEGL88843027P58ES,F2F21004-63B0-4996-AFFF-57F835F53EE6,2023-09-27_11h25.03.227,WP_VExplicitOC_LH,2022.2.5,Win32,5.333333333,NA,NA,NA,NA,NA,NA,NA,NA,NA,NA,NA,NA,NA,NA,NA,NA,NA,NA,read a novel,009.png,NA,NA,NA,NA,NA,NA,NA,NA,NA,NA,NA,NA,NA,NA,NA,NA,43.67816092,1.32,0,8,8,8,1,NA,NA,NA,NA,NA,NA,NA,NA,NA,NA,NA,NA,NA,NA,NA,NA
SUPAMT58118,3DIP6YHAPIRVSMEGL88843027P58ES,F2F21004-63B0-4996-AFFF-57F835F53EE6,2023-09-27_11h25.03.227,WP_VExplicitOC_LH,2022.2.5,Win32,5.333333333,NA,NA,NA,NA,NA,NA,NA,NA,NA,NA,NA,NA,NA,NA,NA,NA,NA,NA,read the news,010.png,NA,NA,NA,NA,NA,NA,NA,NA,NA,NA,NA,NA,NA,NA,NA,NA,43.67816092,2.17,0,9,9,9,1,NA,NA,NA,NA,NA,NA,NA,NA,NA,NA,NA,NA,NA,NA,NA,NA
SUPAMT58118,3DIP6YHAPIRVSMEGL88843027P58ES,F2F21004-63B0-4996-AFFF-57F835F53EE6,2023-09-27_11h25.03.227,WP_VExplicitOC_LH,2022.2.5,Win32,5.333333333,NA,NA,NA,NA,NA,NA,NA,NA,NA,NA,NA,NA,NA,NA,NA,NA,NA,NA,NA,NA,NA,NA,NA,NA,NA,NA,NA,NA,NA,NA,NA,NA,NA,NA,NA,NA,NA,NA,NA,NA,NA,NA,NA,read a novel,NA,NA,NA,NA,NA,NA,NA,NA,NA,NA,NA,NA,NA,NA,NA
SUPAMT58118,3DIP6YHAPIRVSMEGL88843027P58ES,F2F21004-63B0-4996-AFFF-57F835F53EE6,2023-09-27_11h25.03.227,WP_VExplicitOC_LH,2022.2.5,Win32,5.333333333,68.7100894,4.123,2.121,NA,NA,NA,NA,NA,frustrated,"frustrated, not frustrated","more frustrated, less frustrated",NA,NA,NA,NA,NA,NA,NA,NA,NA,NA,NA,NA,NA,NA,NA,NA,NA,NA,NA,NA,NA,NA,NA,NA,NA,NA,NA,NA,NA,NA,NA,NA,NA,0,0,0,1,1,NA,NA,NA,NA,NA,NA,NA,NA,NA,NA
SUPAMT58118,3DIP6YHAPIRVSMEGL88843027P58ES,F2F21004-63B0-4996-AFFF-57F835F53EE6,2023-09-27_11h25.03.227,WP_VExplicitOC_LH,2022.2.5,Win32,5.333333333,59.88857939,6.022,2.116,NA,NA,NA,NA,NA,happy,"unhappy, happy","less happy, more happy",NA,NA,NA,NA,NA,NA,NA,NA,NA,NA,NA,NA,NA,NA,NA,NA,NA,NA,NA,NA,NA,NA,NA,NA,NA,NA,NA,NA,NA,NA,NA,NA,NA,0,1,1,0,1,NA,NA,NA,NA,NA,NA,NA,NA,NA,NA
SUPAMT58118,3DIP6YHAPIRVSMEGL88843027P58ES,F2F21004-63B0-4996-AFFF-57F835F53EE6,2023-09-27_11h25.03.227,WP_VExplicitOC_LH,2022.2.5,Win32,5.333333333,46.79665738,5.721,2.009,NA,NA,NA,NA,NA,bored,"bored, not bored","more bored, less bored",NA,NA,NA,NA,NA,NA,NA,NA,NA,NA,NA,NA,NA,NA,NA,NA,NA,NA,NA,NA,NA,NA,NA,NA,NA,NA,NA,NA,NA,NA,NA,NA,NA,0,2,2,2,1,NA,NA,NA,NA,NA,NA,NA,NA,NA,NA
SUPAMT58118,3DIP6YHAPIRVSMEGL88843027P58ES,F2F21004-63B0-4996-AFFF-57F835F53EE6,2023-09-27_11h25.03.227,WP_VExplicitOC_LH,2022.2.5,Win32,5.333333333,NA,NA,NA,NA,NA,NA,NA,NA,NA,NA,NA,NA,NA,NA,NA,NA,NA,NA,NA,NA,NA,NA,NA,NA,NA,NA,NA,NA,NA,NA,NA,NA,NA,NA,NA,NA,NA,NA,NA,NA,NA,NA,NA,NA,NA,NA,NA,NA,NA,NA,NA,NA,NA,NA,NA,NA,NA,NA,NA
SUPAMT58118,3DIP6YHAPIRVSMEGL88843027P58ES,F2F21004-63B0-4996-AFFF-57F835F53EE6,2023-09-27_11h25.03.227,WP_VExplicitOC_LH,2022.2.5,Win32,5.333333333,NA,NA,NA,NA,NA,NA,NA,NA,NA,NA,NA,NA,NA,NA,NA,NA,NA,NA,NA,NA,NA,NA,NA,NA,NA,NA,NA,NA,NA,NA,NA,NA,NA,NA,NA,NA,NA,NA,NA,NA,NA,NA,NA,NA,NA,NA,NA,NA,NA,NA,NA,NA,NA,NA,NA,NA,NA,NA,NA
SUPAMT58118,3DIP6YHAPIRVSMEGL88843027P58ES,F2F21004-63B0-4996-AFFF-57F835F53EE6,2023-09-27_11h25.03.227,WP_VExplicitOC_LH,2022.2.5,Win32,5.333333333,64.36781609,4.326,2.15,NA,NA,NA,NA,NA,happy,"unhappy, happy","less happy, more happy",NA,NA,NA,NA,NA,NA,NA,NA,NA,NA,NA,NA,NA,NA,NA,NA,NA,NA,NA,NA,NA,NA,NA,NA,NA,NA,NA,NA,NA,NA,NA,NA,NA,NA,NA,NA,NA,NA,0,0,0,0,1,NA,NA,NA,NA,NA
SUPAMT58118,3DIP6YHAPIRVSMEGL88843027P58ES,F2F21004-63B0-4996-AFFF-57F835F53EE6,2023-09-27_11h25.03.227,WP_VExplicitOC_LH,2022.2.5,Win32,5.333333333,63.85696041,3.275,2.013,NA,NA,NA,NA,NA,frustrated,"frustrated, not frustrated","more frustrated, less frustrated",NA,NA,NA,NA,NA,NA,NA,NA,NA,NA,NA,NA,NA,NA,NA,NA,NA,NA,NA,NA,NA,NA,NA,NA,NA,NA,NA,NA,NA,NA,NA,NA,NA,NA,NA,NA,NA,NA,0,1,1,1,1,NA,NA,NA,NA,NA
SUPAMT58118,3DIP6YHAPIRVSMEGL88843027P58ES,F2F21004-63B0-4996-AFFF-57F835F53EE6,2023-09-27_11h25.03.227,WP_VExplicitOC_LH,2022.2.5,Win32,5.333333333,63.85696041,3.27,2.142,NA,NA,NA,NA,NA,bored,"bored, not bored","more bored, less bored",NA,NA,NA,NA,NA,NA,NA,NA,NA,NA,NA,NA,NA,NA,NA,NA,NA,NA,NA,NA,NA,NA,NA,NA,NA,NA,NA,NA,NA,NA,NA,NA,NA,NA,NA,NA,NA,NA,0,2,2,2,1,NA,NA,NA,NA,NA
SUPAMT58118,3DIP6YHAPIRVSMEGL88843027P58ES,F2F21004-63B0-4996-AFFF-57F835F53EE6,2023-09-27_11h25.03.227,WP_VExplicitOC_LH,2022.2.5,Win32,5.333333333,NA,NA,NA,NA,NA,NA,NA,NA,NA,NA,NA,NA,NA,NA,NA,NA,NA,NA,NA,NA,NA,NA,NA,NA,NA,NA,NA,NA,NA,NA,NA,NA,NA,NA,NA,NA,NA,NA,NA,NA,NA,NA,NA,NA,NA,NA,NA,NA,NA,NA,NA,NA,NA,NA,0,0,0,0,1
SUPAMT58118,3DIP6YHAPIRVSMEGL88843027P58ES,F2F21004-63B0-4996-AFFF-57F835F53EE6,2023-09-27_11h25.03.227,WP_VExplicitOC_LH,2022.2.5,Win32,5.333333333,NA,NA,2.025,NA,NA,NA,NA,NA,happy,"unhappy, happy","less happy, more happy",NA,NA,NA,NA,NA,NA,NA,NA,NA,NA,NA,NA,NA,NA,NA,NA,NA,NA,NA,NA,NA,NA,NA,NA,NA,NA,NA,NA,NA,NA,NA,NA,NA,NA,NA,NA,NA,NA,0,0,0,0,1,NA,NA,NA,NA,NA
SUPAMT58118,3DIP6YHAPIRVSMEGL88843027P58ES,F2F21004-63B0-4996-AFFF-57F835F53EE6,2023-09-27_11h25.03.227,WP_VExplicitOC_LH,2022.2.5,Win32,5.333333333,64.62324393,3.461,2,NA,NA,NA,NA,NA,bored,"bored, not bored","more bored, less bored",NA,NA,NA,NA,NA,NA,NA,NA,NA,NA,NA,NA,NA,NA,NA,NA,NA,NA,NA,NA,NA,NA,NA,NA,NA,NA,NA,NA,NA,NA,NA,NA,NA,NA,NA,NA,NA,NA,0,1,1,2,1,NA,NA,NA,NA,NA
SUPAMT58118,3DIP6YHAPIRVSMEGL88843027P58ES,F2F21004-63B0-4996-AFFF-57F835F53EE6,2023-09-27_11h25.03.227,WP_VExplicitOC_LH,2022.2.5,Win32,5.333333333,58.49297573,3.507,2.105,NA,NA,NA,NA,NA,frustrated,"frustrated, not frustrated","more frustrated, less frustrated",NA,NA,NA,NA,NA,NA,NA,NA,NA,NA,NA,NA,NA,NA,NA,NA,NA,NA,NA,NA,NA,NA,NA,NA,NA,NA,NA,NA,NA,NA,NA,NA,NA,NA,NA,NA,NA,NA,0,2,2,1,1,NA,NA,NA,NA,NA
SUPAMT58118,3DIP6YHAPIRVSMEGL88843027P58ES,F2F21004-63B0-4996-AFFF-57F835F53EE6,2023-09-27_11h25.03.227,WP_VExplicitOC_LH,2022.2.5,Win32,5.333333333,NA,NA,NA,NA,NA,NA,NA,NA,NA,NA,NA,NA,NA,NA,NA,NA,NA,NA,NA,NA,NA,NA,NA,NA,NA,NA,NA,NA,NA,NA,NA,NA,NA,NA,NA,NA,NA,NA,NA,NA,NA,NA,NA,NA,NA,NA,NA,NA,NA,NA,NA,NA,NA,NA,1,0,1,0,1
SUPAMT58118,3DIP6YHAPIRVSMEGL88843027P58ES,F2F21004-63B0-4996-AFFF-57F835F53EE6,2023-09-27_11h25.03.227,WP_VExplicitOC_LH,2022.2.5,Win32,5.333333333,44.84679666,4.191,2.027,NA,NA,NA,NA,NA,frustrated,"frustrated, not frustrated","more frustrated, less frustrated",NA,NA,NA,NA,NA,NA,NA,NA,NA,NA,NA,NA,NA,NA,NA,NA,NA,NA,NA,NA,NA,NA,NA,NA,NA,NA,NA,NA,NA,NA,NA,NA,NA,NA,NA,NA,NA,NA,0,0,0,1,1,NA,NA,NA,NA,NA
SUPAMT58118,3DIP6YHAPIRVSMEGL88843027P58ES,F2F21004-63B0-4996-AFFF-57F835F53EE6,2023-09-27_11h25.03.227,WP_VExplicitOC_LH,2022.2.5,Win32,5.333333333,45.12534819,4.732,2.087,NA,NA,NA,NA,NA,happy,"unhappy, happy","less happy, more happy",NA,NA,NA,NA,NA,NA,NA,NA,NA,NA,NA,NA,NA,NA,NA,NA,NA,NA,NA,NA,NA,NA,NA,NA,NA,NA,NA,NA,NA,NA,NA,NA,NA,NA,NA,NA,NA,NA,0,1,1,0,1,NA,NA,NA,NA,NA
SUPAMT58118,3DIP6YHAPIRVSMEGL88843027P58ES,F2F21004-63B0-4996-AFFF-57F835F53EE6,2023-09-27_11h25.03.227,WP_VExplicitOC_LH,2022.2.5,Win32,5.333333333,59.88857939,3.649,2.026,NA,NA,NA,NA,NA,bored,"bored, not bored","more bored, less bored",NA,NA,NA,NA,NA,NA,NA,NA,NA,NA,NA,NA,NA,NA,NA,NA,NA,NA,NA,NA,NA,NA,NA,NA,NA,NA,NA,NA,NA,NA,NA,NA,NA,NA,NA,NA,NA,NA,0,2,2,2,1,NA,NA,NA,NA,NA
SUPAMT58118,3DIP6YHAPIRVSMEGL88843027P58ES,F2F21004-63B0-4996-AFFF-57F835F53EE6,2023-09-27_11h25.03.227,WP_VExplicitOC_LH,2022.2.5,Win32,5.333333333,NA,NA,NA,NA,NA,NA,NA,NA,NA,NA,NA,NA,NA,NA,NA,NA,NA,NA,NA,NA,NA,NA,NA,NA,NA,NA,NA,NA,NA,NA,NA,NA,NA,NA,NA,NA,NA,NA,NA,NA,NA,NA,NA,NA,NA,NA,NA,NA,NA,NA,NA,NA,NA,NA,2,0,2,0,1
SUPAMT58118,3DIP6YHAPIRVSMEGL88843027P58ES,F2F21004-63B0-4996-AFFF-57F835F53EE6,2023-09-27_11h25.03.227,WP_VExplicitOC_LH,2022.2.5,Win32,5.333333333,45.12534819,5.293,2.075,NA,NA,NA,NA,NA,happy,"unhappy, happy","less happy, more happy",NA,NA,NA,NA,NA,NA,NA,NA,NA,NA,NA,NA,NA,NA,NA,NA,NA,NA,NA,NA,NA,NA,NA,NA,NA,NA,NA,NA,NA,NA,NA,NA,NA,NA,NA,NA,NA,NA,0,0,0,0,1,NA,NA,NA,NA,NA
SUPAMT58118,3DIP6YHAPIRVSMEGL88843027P58ES,F2F21004-63B0-4996-AFFF-57F835F53EE6,2023-09-27_11h25.03.227,WP_VExplicitOC_LH,2022.2.5,Win32,5.333333333,41.22562674,4.829,2.063,NA,NA,NA,NA,NA,frustrated,"frustrated, not frustrated","more frustrated, less frustrated",NA,NA,NA,NA,NA,NA,NA,NA,NA,NA,NA,NA,NA,NA,NA,NA,NA,NA,NA,NA,NA,NA,NA,NA,NA,NA,NA,NA,NA,NA,NA,NA,NA,NA,NA,NA,NA,NA,0,1,1,1,1,NA,NA,NA,NA,NA
SUPAMT58118,3DIP6YHAPIRVSMEGL88843027P58ES,F2F21004-63B0-4996-AFFF-57F835F53EE6,2023-09-27_11h25.03.227,WP_VExplicitOC_LH,2022.2.5,Win32,5.333333333,27.57660167,4.024,2.042,NA,NA,NA,NA,NA,bored,"bored, not bored","more bored, less bored",NA,NA,NA,NA,NA,NA,NA,NA,NA,NA,NA,NA,NA,NA,NA,NA,NA,NA,NA,NA,NA,NA,NA,NA,NA,NA,NA,NA,NA,NA,NA,NA,NA,NA,NA,NA,NA,NA,0,2,2,2,1,NA,NA,NA,NA,NA
SUPAMT58118,3DIP6YHAPIRVSMEGL88843027P58ES,F2F21004-63B0-4996-AFFF-57F835F53EE6,2023-09-27_11h25.03.227,WP_VExplicitOC_LH,2022.2.5,Win32,5.333333333,NA,NA,NA,NA,NA,NA,NA,NA,NA,NA,NA,NA,NA,NA,NA,NA,NA,NA,NA,NA,NA,NA,NA,NA,NA,NA,NA,NA,NA,NA,NA,NA,NA,NA,NA,NA,NA,NA,NA,NA,NA,NA,NA,NA,NA,NA,NA,NA,NA,NA,NA,NA,NA,NA,3,0,3,0,1
SUPAMT58118,3DIP6YHAPIRVSMEGL88843027P58ES,F2F21004-63B0-4996-AFFF-57F835F53EE6,2023-09-27_11h25.03.227,WP_VExplicitOC_LH,2022.2.5,Win32,5.333333333,47.07520891,3.771,2.036,NA,NA,NA,NA,NA,bored,"bored, not bored","more bored, less bored",NA,NA,NA,NA,NA,NA,NA,NA,NA,NA,NA,NA,NA,NA,NA,NA,NA,NA,NA,NA,NA,NA,NA,NA,NA,NA,NA,NA,NA,NA,NA,NA,NA,NA,NA,NA,NA,NA,0,0,0,2,1,NA,NA,NA,NA,NA
SUPAMT58118,3DIP6YHAPIRVSMEGL88843027P58ES,F2F21004-63B0-4996-AFFF-57F835F53EE6,2023-09-27_11h25.03.227,WP_VExplicitOC_LH,2022.2.5,Win32,5.333333333,35.93314763,3.523,2.03,NA,NA,NA,NA,NA,frustrated,"frustrated, not frustrated","more frustrated, less frustrated",NA,NA,NA,NA,NA,NA,NA,NA,NA,NA,NA,NA,NA,NA,NA,NA,NA,NA,NA,NA,NA,NA,NA,NA,NA,NA,NA,NA,NA,NA,NA,NA,NA,NA,NA,NA,NA,NA,0,1,1,1,1,NA,NA,NA,NA,NA
SUPAMT58118,3DIP6YHAPIRVSMEGL88843027P58ES,F2F21004-63B0-4996-AFFF-57F835F53EE6,2023-09-27_11h25.03.227,WP_VExplicitOC_LH,2022.2.5,Win32,5.333333333,35.93314763,3.628,2.035,NA,NA,NA,NA,NA,happy,"unhappy, happy","less happy, more happy",NA,NA,NA,NA,NA,NA,NA,NA,NA,NA,NA,NA,NA,NA,NA,NA,NA,NA,NA,NA,NA,NA,NA,NA,NA,NA,NA,NA,NA,NA,NA,NA,NA,NA,NA,NA,NA,NA,0,2,2,0,1,NA,NA,NA,NA,NA
SUPAMT58118,3DIP6YHAPIRVSMEGL88843027P58ES,F2F21004-63B0-4996-AFFF-57F835F53EE6,2023-09-27_11h25.03.227,WP_VExplicitOC_LH,2022.2.5,Win32,5.333333333,NA,NA,NA,NA,NA,NA,NA,NA,NA,NA,NA,NA,NA,NA,NA,NA,NA,NA,NA,NA,NA,NA,NA,NA,NA,NA,NA,NA,NA,NA,NA,NA,NA,NA,NA,NA,NA,NA,NA,NA,NA,NA,NA,NA,NA,NA,NA,NA,NA,NA,NA,NA,NA,NA,4,0,4,0,1
SUPAMT58118,3DIP6YHAPIRVSMEGL88843027P58ES,F2F21004-63B0-4996-AFFF-57F835F53EE6,2023-09-27_11h25.03.227,WP_VExplicitOC_LH,2022.2.5,Win32,5.333333333,37.04735376,4.661,2.033,NA,NA,NA,NA,NA,happy,"unhappy, happy","less happy, more happy",NA,NA,NA,NA,NA,NA,NA,NA,NA,NA,NA,NA,NA,NA,NA,NA,NA,NA,NA,NA,NA,NA,NA,NA,NA,NA,NA,NA,NA,NA,NA,NA,NA,NA,NA,NA,NA,NA,0,0,0,0,1,NA,NA,NA,NA,NA
SUPAMT58118,3DIP6YHAPIRVSMEGL88843027P58ES,F2F21004-63B0-4996-AFFF-57F835F53EE6,2023-09-27_11h25.03.227,WP_VExplicitOC_LH,2022.2.5,Win32,5.333333333,91.08635097,4.948,2.06,NA,NA,NA,NA,NA,frustrated,"frustrated, not frustrated","more frustrated, less frustrated",NA,NA,NA,NA,NA,NA,NA,NA,NA,NA,NA,NA,NA,NA,NA,NA,NA,NA,NA,NA,NA,NA,NA,NA,NA,NA,NA,NA,NA,NA,NA,NA,NA,NA,NA,NA,NA,NA,0,1,1,1,1,NA,NA,NA,NA,NA
SUPAMT58118,3DIP6YHAPIRVSMEGL88843027P58ES,F2F21004-63B0-4996-AFFF-57F835F53EE6,2023-09-27_11h25.03.227,WP_VExplicitOC_LH,2022.2.5,Win32,5.333333333,50.13927577,4.292,2.094,NA,NA,NA,NA,NA,bored,"bored, not bored","more bored, less bored",NA,NA,NA,NA,NA,NA,NA,NA,NA,NA,NA,NA,NA,NA,NA,NA,NA,NA,NA,NA,NA,NA,NA,NA,NA,NA,NA,NA,NA,NA,NA,NA,NA,NA,NA,NA,NA,NA,0,2,2,2,1,NA,NA,NA,NA,NA
SUPAMT58118,3DIP6YHAPIRVSMEGL88843027P58ES,F2F21004-63B0-4996-AFFF-57F835F53EE6,2023-09-27_11h25.03.227,WP_VExplicitOC_LH,2022.2.5,Win32,5.333333333,NA,NA,NA,NA,NA,NA,NA,NA,NA,NA,NA,NA,NA,NA,NA,NA,NA,NA,NA,NA,NA,NA,NA,NA,NA,NA,NA,NA,NA,NA,NA,NA,NA,NA,NA,NA,NA,NA,NA,NA,NA,NA,NA,NA,NA,NA,NA,NA,NA,NA,NA,NA,NA,NA,5,0,5,0,1
SUPAMT58118,3DIP6YHAPIRVSMEGL88843027P58ES,F2F21004-63B0-4996-AFFF-57F835F53EE6,2023-09-27_11h25.03.227,WP_VExplicitOC_LH,2022.2.5,Win32,5.333333333,NA,NA,2.048,NA,NA,NA,NA,NA,happy,"unhappy, happy","less happy, more happy",NA,NA,NA,NA,NA,NA,NA,NA,NA,NA,NA,NA,NA,NA,NA,NA,NA,NA,NA,NA,NA,NA,NA,NA,NA,NA,NA,NA,NA,NA,NA,NA,NA,NA,NA,NA,NA,NA,0,0,0,0,1,NA,NA,NA,NA,NA
SUPAMT58118,3DIP6YHAPIRVSMEGL88843027P58ES,F2F21004-63B0-4996-AFFF-57F835F53EE6,2023-09-27_11h25.03.227,WP_VExplicitOC_LH,2022.2.5,Win32,5.333333333,84.67966574,6.064,2.013,NA,NA,NA,NA,NA,frustrated,"frustrated, not frustrated","more frustrated, less frustrated",NA,NA,NA,NA,NA,NA,NA,NA,NA,NA,NA,NA,NA,NA,NA,NA,NA,NA,NA,NA,NA,NA,NA,NA,NA,NA,NA,NA,NA,NA,NA,NA,NA,NA,NA,NA,NA,NA,0,1,1,1,1,NA,NA,NA,NA,NA
SUPAMT58118,3DIP6YHAPIRVSMEGL88843027P58ES,F2F21004-63B0-4996-AFFF-57F835F53EE6,2023-09-27_11h25.03.227,WP_VExplicitOC_LH,2022.2.5,Win32,5.333333333,NA,NA,2.073,NA,NA,NA,NA,NA,bored,"bored, not bored","more bored, less bored",NA,NA,NA,NA,NA,NA,NA,NA,NA,NA,NA,NA,NA,NA,NA,NA,NA,NA,NA,NA,NA,NA,NA,NA,NA,NA,NA,NA,NA,NA,NA,NA,NA,NA,NA,NA,NA,NA,0,2,2,2,1,NA,NA,NA,NA,NA
SUPAMT58118,3DIP6YHAPIRVSMEGL88843027P58ES,F2F21004-63B0-4996-AFFF-57F835F53EE6,2023-09-27_11h25.03.227,WP_VExplicitOC_LH,2022.2.5,Win32,5.333333333,NA,NA,NA,NA,NA,NA,NA,NA,NA,NA,NA,NA,NA,NA,NA,NA,NA,NA,NA,NA,NA,NA,NA,NA,NA,NA,NA,NA,NA,NA,NA,NA,NA,NA,NA,NA,NA,NA,NA,NA,NA,NA,NA,NA,NA,NA,NA,NA,NA,NA,NA,NA,NA,NA,6,0,6,0,1
SUPAMT58118,3DIP6YHAPIRVSMEGL88843027P58ES,F2F21004-63B0-4996-AFFF-57F835F53EE6,2023-09-27_11h25.03.227,WP_VExplicitOC_LH,2022.2.5,Win32,5.333333333,65.73816156,6.567,2.008,NA,NA,NA,NA,NA,happy,"unhappy, happy","less happy, more happy",NA,NA,NA,NA,NA,NA,NA,NA,NA,NA,NA,NA,NA,NA,NA,NA,NA,NA,NA,NA,NA,NA,NA,NA,NA,NA,NA,NA,NA,NA,NA,NA,NA,NA,NA,NA,NA,NA,0,0,0,0,1,NA,NA,NA,NA,NA
SUPAMT58118,3DIP6YHAPIRVSMEGL88843027P58ES,F2F21004-63B0-4996-AFFF-57F835F53EE6,2023-09-27_11h25.03.227,WP_VExplicitOC_LH,2022.2.5,Win32,5.333333333,66.01671309,3.568,2.012,NA,NA,NA,NA,NA,bored,"bored, not bored","more bored, less bored",NA,NA,NA,NA,NA,NA,NA,NA,NA,NA,NA,NA,NA,NA,NA,NA,NA,NA,NA,NA,NA,NA,NA,NA,NA,NA,NA,NA,NA,NA,NA,NA,NA,NA,NA,NA,NA,NA,0,1,1,2,1,NA,NA,NA,NA,NA
SUPAMT58118,3DIP6YHAPIRVSMEGL88843027P58ES,F2F21004-63B0-4996-AFFF-57F835F53EE6,2023-09-27_11h25.03.227,WP_VExplicitOC_LH,2022.2.5,Win32,5.333333333,66.01671309,3.19,2,NA,NA,NA,NA,NA,frustrated,"frustrated, not frustrated","more frustrated, less frustrated",NA,NA,NA,NA,NA,NA,NA,NA,NA,NA,NA,NA,NA,NA,NA,NA,NA,NA,NA,NA,NA,NA,NA,NA,NA,NA,NA,NA,NA,NA,NA,NA,NA,NA,NA,NA,NA,NA,0,2,2,1,1,NA,NA,NA,NA,NA
SUPAMT58118,3DIP6YHAPIRVSMEGL88843027P58ES,F2F21004-63B0-4996-AFFF-57F835F53EE6,2023-09-27_11h25.03.227,WP_VExplicitOC_LH,2022.2.5,Win32,5.333333333,NA,NA,NA,NA,NA,NA,NA,NA,NA,NA,NA,NA,NA,NA,NA,NA,NA,NA,NA,NA,NA,NA,NA,NA,NA,NA,NA,NA,NA,NA,NA,NA,NA,NA,NA,NA,NA,NA,NA,NA,NA,NA,NA,NA,NA,NA,NA,NA,NA,NA,NA,NA,NA,NA,7,0,7,0,1
SUPAMT58118,3DIP6YHAPIRVSMEGL88843027P58ES,F2F21004-63B0-4996-AFFF-57F835F53EE6,2023-09-27_11h25.03.227,WP_VExplicitOC_LH,2022.2.5,Win32,5.333333333,59.25925926,4.621,2.071,NA,NA,NA,NA,NA,happy,"unhappy, happy","less happy, more happy",NA,NA,NA,NA,NA,NA,NA,NA,NA,NA,NA,NA,NA,NA,NA,NA,NA,NA,NA,NA,NA,NA,NA,NA,NA,NA,NA,NA,NA,NA,NA,NA,NA,NA,NA,NA,NA,NA,0,0,0,0,1,NA,NA,NA,NA,NA
SUPAMT58118,3DIP6YHAPIRVSMEGL88843027P58ES,F2F21004-63B0-4996-AFFF-57F835F53EE6,2023-09-27_11h25.03.227,WP_VExplicitOC_LH,2022.2.5,Win32,5.333333333,54.40613027,4.181,2.001,NA,NA,NA,NA,NA,frustrated,"frustrated, not frustrated","more frustrated, less frustrated",NA,NA,NA,NA,NA,NA,NA,NA,NA,NA,NA,NA,NA,NA,NA,NA,NA,NA,NA,NA,NA,NA,NA,NA,NA,NA,NA,NA,NA,NA,NA,NA,NA,NA,NA,NA,NA,NA,0,1,1,1,1,NA,NA,NA,NA,NA
SUPAMT58118,3DIP6YHAPIRVSMEGL88843027P58ES,F2F21004-63B0-4996-AFFF-57F835F53EE6,2023-09-27_11h25.03.227,WP_VExplicitOC_LH,2022.2.5,Win32,5.333333333,57.98212005,6.095,2.043,NA,NA,NA,NA,NA,bored,"bored, not bored","more bored, less bored",NA,NA,NA,NA,NA,NA,NA,NA,NA,NA,NA,NA,NA,NA,NA,NA,NA,NA,NA,NA,NA,NA,NA,NA,NA,NA,NA,NA,NA,NA,NA,NA,NA,NA,NA,NA,NA,NA,0,2,2,2,1,NA,NA,NA,NA,NA
SUPAMT58118,3DIP6YHAPIRVSMEGL88843027P58ES,F2F21004-63B0-4996-AFFF-57F835F53EE6,2023-09-27_11h25.03.227,WP_VExplicitOC_LH,2022.2.5,Win32,5.333333333,NA,NA,NA,NA,NA,NA,NA,NA,NA,NA,NA,NA,NA,NA,NA,NA,NA,NA,NA,NA,NA,NA,NA,NA,NA,NA,NA,NA,NA,NA,NA,NA,NA,NA,NA,NA,NA,NA,NA,NA,NA,NA,NA,NA,NA,NA,NA,NA,NA,NA,NA,NA,NA,NA,8,0,8,0,1
SUPAMT58118,3DIP6YHAPIRVSMEGL88843027P58ES,F2F21004-63B0-4996-AFFF-57F835F53EE6,2023-09-27_11h25.03.227,WP_VExplicitOC_LH,2022.2.5,Win32,5.333333333,58.74840358,3.918,2.113,NA,NA,NA,NA,NA,frustrated,"frustrated, not frustrated","more frustrated, less frustrated",NA,NA,NA,NA,NA,NA,NA,NA,NA,NA,NA,NA,NA,NA,NA,NA,NA,NA,NA,NA,NA,NA,NA,NA,NA,NA,NA,NA,NA,NA,NA,NA,NA,NA,NA,NA,NA,NA,0,0,0,1,1,NA,NA,NA,NA,NA
SUPAMT58118,3DIP6YHAPIRVSMEGL88843027P58ES,F2F21004-63B0-4996-AFFF-57F835F53EE6,2023-09-27_11h25.03.227,WP_VExplicitOC_LH,2022.2.5,Win32,5.333333333,62.83524904,5.86,2.091,NA,NA,NA,NA,NA,happy,"unhappy, happy","less happy, more happy",NA,NA,NA,NA,NA,NA,NA,NA,NA,NA,NA,NA,NA,NA,NA,NA,NA,NA,NA,NA,NA,NA,NA,NA,NA,NA,NA,NA,NA,NA,NA,NA,NA,NA,NA,NA,NA,NA,0,1,1,0,1,NA,NA,NA,NA,NA
SUPAMT58118,3DIP6YHAPIRVSMEGL88843027P58ES,F2F21004-63B0-4996-AFFF-57F835F53EE6,2023-09-27_11h25.03.227,WP_VExplicitOC_LH,2022.2.5,Win32,5.333333333,63.85696041,4.437,2.125,NA,NA,NA,NA,NA,bored,"bored, not bored","more bored, less bored",NA,NA,NA,NA,NA,NA,NA,NA,NA,NA,NA,NA,NA,NA,NA,NA,NA,NA,NA,NA,NA,NA,NA,NA,NA,NA,NA,NA,NA,NA,NA,NA,NA,NA,NA,NA,NA,NA,0,2,2,2,1,NA,NA,NA,NA,NA
SUPAMT58118,3DIP6YHAPIRVSMEGL88843027P58ES,F2F21004-63B0-4996-AFFF-57F835F53EE6,2023-09-27_11h25.03.227,WP_VExplicitOC_LH,2022.2.5,Win32,5.333333333,NA,NA,NA,NA,NA,NA,NA,NA,NA,NA,NA,NA,NA,NA,NA,NA,NA,NA,NA,NA,NA,NA,NA,NA,NA,NA,NA,NA,NA,NA,NA,NA,NA,NA,NA,NA,NA,NA,NA,NA,NA,NA,NA,NA,NA,NA,NA,NA,NA,NA,NA,NA,NA,NA,9,0,9,0,1
SUPAMT58118,3DIP6YHAPIRVSMEGL88843027P58ES,F2F21004-63B0-4996-AFFF-57F835F53EE6,2023-09-27_11h25.03.227,WP_VExplicitOC_LH,2022.2.5,Win32,5.333333333,81.73690932,4.299,2.131,NA,NA,NA,NA,NA,happy,"unhappy, happy","less happy, more happy",NA,NA,NA,NA,NA,NA,NA,NA,NA,NA,NA,NA,NA,NA,NA,NA,NA,NA,NA,NA,NA,NA,NA,NA,NA,NA,NA,NA,NA,NA,NA,NA,NA,NA,NA,NA,NA,NA,0,0,0,0,1,NA,NA,NA,NA,NA
SUPAMT58118,3DIP6YHAPIRVSMEGL88843027P58ES,F2F21004-63B0-4996-AFFF-57F835F53EE6,2023-09-27_11h25.03.227,WP_VExplicitOC_LH,2022.2.5,Win32,5.333333333,77.65006386,4.096,2.133,NA,NA,NA,NA,NA,frustrated,"frustrated, not frustrated","more frustrated, less frustrated",NA,NA,NA,NA,NA,NA,NA,NA,NA,NA,NA,NA,NA,NA,NA,NA,NA,NA,NA,NA,NA,NA,NA,NA,NA,NA,NA,NA,NA,NA,NA,NA,NA,NA,NA,NA,NA,NA,0,1,1,1,1,NA,NA,NA,NA,NA
SUPAMT58118,3DIP6YHAPIRVSMEGL88843027P58ES,F2F21004-63B0-4996-AFFF-57F835F53EE6,2023-09-27_11h25.03.227,WP_VExplicitOC_LH,2022.2.5,Win32,5.333333333,71.26436782,4.685,2.035,NA,NA,NA,NA,NA,bored,"bored, not bored","more bored, less bored",NA,NA,NA,NA,NA,NA,NA,NA,NA,NA,NA,NA,NA,NA,NA,NA,NA,NA,NA,NA,NA,NA,NA,NA,NA,NA,NA,NA,NA,NA,NA,NA,NA,NA,NA,NA,NA,NA,0,2,2,2,1,NA,NA,NA,NA,NA
SUPAMT58118,3DIP6YHAPIRVSMEGL88843027P58ES,F2F21004-63B0-4996-AFFF-57F835F53EE6,2023-09-27_11h25.03.227,WP_VExplicitOC_LH,2022.2.5,Win32,5.333333333,NA,NA,NA,NA,NA,NA,NA,NA,NA,NA,NA,NA,NA,NA,NA,NA,NA,NA,NA,NA,NA,NA,NA,NA,NA,NA,NA,NA,NA,NA,NA,NA,NA,NA,NA,NA,NA,NA,NA,NA,NA,NA,NA,NA,NA,NA,NA,NA,NA,NA,NA,NA,NA,NA,10,0,10,0,1
SUPAMT58118,3DIP6YHAPIRVSMEGL88843027P58ES,F2F21004-63B0-4996-AFFF-57F835F53EE6,2023-09-27_11h25.03.227,WP_VExplicitOC_LH,2022.2.5,Win32,5.333333333,71.7752235,3.8,2.008,NA,NA,NA,NA,NA,frustrated,"frustrated, not frustrated","more frustrated, less frustrated",NA,NA,NA,NA,NA,NA,NA,NA,NA,NA,NA,NA,NA,NA,NA,NA,NA,NA,NA,NA,NA,NA,NA,NA,NA,NA,NA,NA,NA,NA,NA,NA,NA,NA,NA,NA,NA,NA,0,0,0,1,1,NA,NA,NA,NA,NA
SUPAMT58118,3DIP6YHAPIRVSMEGL88843027P58ES,F2F21004-63B0-4996-AFFF-57F835F53EE6,2023-09-27_11h25.03.227,WP_VExplicitOC_LH,2022.2.5,Win32,5.333333333,68.96551724,3.462,2.032,NA,NA,NA,NA,NA,bored,"bored, not bored","more bored, less bored",NA,NA,NA,NA,NA,NA,NA,NA,NA,NA,NA,NA,NA,NA,NA,NA,NA,NA,NA,NA,NA,NA,NA,NA,NA,NA,NA,NA,NA,NA,NA,NA,NA,NA,NA,NA,NA,NA,0,1,1,2,1,NA,NA,NA,NA,NA
SUPAMT58118,3DIP6YHAPIRVSMEGL88843027P58ES,F2F21004-63B0-4996-AFFF-57F835F53EE6,2023-09-27_11h25.03.227,WP_VExplicitOC_LH,2022.2.5,Win32,5.333333333,83.26947637,4.407,2.159,NA,NA,NA,NA,NA,happy,"unhappy, happy","less happy, more happy",NA,NA,NA,NA,NA,NA,NA,NA,NA,NA,NA,NA,NA,NA,NA,NA,NA,NA,NA,NA,NA,NA,NA,NA,NA,NA,NA,NA,NA,NA,NA,NA,NA,NA,NA,NA,NA,NA,0,2,2,0,1,NA,NA,NA,NA,NA
SUPAMT58118,3DIP6YHAPIRVSMEGL88843027P58ES,F2F21004-63B0-4996-AFFF-57F835F53EE6,2023-09-27_11h25.03.227,WP_VExplicitOC_LH,2022.2.5,Win32,5.333333333,NA,NA,NA,NA,NA,NA,NA,NA,NA,NA,NA,NA,NA,NA,NA,NA,NA,NA,NA,NA,NA,NA,NA,NA,NA,NA,NA,NA,NA,NA,NA,NA,NA,NA,NA,NA,NA,NA,NA,NA,NA,NA,NA,NA,NA,NA,NA,NA,NA,NA,NA,NA,NA,NA,11,0,11,0,1
SUPAMT58118,3DIP6YHAPIRVSMEGL88843027P58ES,F2F21004-63B0-4996-AFFF-57F835F53EE6,2023-09-27_11h25.03.227,WP_VExplicitOC_LH,2022.2.5,Win32,5.333333333,82.50319285,6.394,2.144,NA,NA,NA,NA,NA,frustrated,"frustrated, not frustrated","more frustrated, less frustrated",NA,NA,NA,NA,NA,NA,NA,NA,NA,NA,NA,NA,NA,NA,NA,NA,NA,NA,NA,NA,NA,NA,NA,NA,NA,NA,NA,NA,NA,NA,NA,NA,NA,NA,NA,NA,NA,NA,0,0,0,1,1,NA,NA,NA,NA,NA
SUPAMT58118,3DIP6YHAPIRVSMEGL88843027P58ES,F2F21004-63B0-4996-AFFF-57F835F53EE6,2023-09-27_11h25.03.227,WP_VExplicitOC_LH,2022.2.5,Win32,5.333333333,81.99233716,3.79,2.127,NA,NA,NA,NA,NA,bored,"bored, not bored","more bored, less bored",NA,NA,NA,NA,NA,NA,NA,NA,NA,NA,NA,NA,NA,NA,NA,NA,NA,NA,NA,NA,NA,NA,NA,NA,NA,NA,NA,NA,NA,NA,NA,NA,NA,NA,NA,NA,NA,NA,0,1,1,2,1,NA,NA,NA,NA,NA
SUPAMT58118,3DIP6YHAPIRVSMEGL88843027P58ES,F2F21004-63B0-4996-AFFF-57F835F53EE6,2023-09-27_11h25.03.227,WP_VExplicitOC_LH,2022.2.5,Win32,5.333333333,81.22605364,4.134,2.083,NA,NA,NA,NA,NA,happy,"unhappy, happy","less happy, more happy",NA,NA,NA,NA,NA,NA,NA,NA,NA,NA,NA,NA,NA,NA,NA,NA,NA,NA,NA,NA,NA,NA,NA,NA,NA,NA,NA,NA,NA,NA,NA,NA,NA,NA,NA,NA,NA,NA,0,2,2,0,1,NA,NA,NA,NA,NA
SUPAMT58118,3DIP6YHAPIRVSMEGL88843027P58ES,F2F21004-63B0-4996-AFFF-57F835F53EE6,2023-09-27_11h25.03.227,WP_VExplicitOC_LH,2022.2.5,Win32,5.333333333,NA,NA,NA,NA,NA,NA,NA,NA,NA,NA,NA,NA,NA,NA,NA,NA,NA,NA,NA,NA,NA,NA,NA,NA,NA,NA,NA,NA,NA,NA,NA,NA,NA,NA,NA,NA,NA,NA,NA,NA,NA,NA,NA,NA,NA,NA,NA,NA,NA,NA,NA,NA,NA,NA,12,0,12,0,1
SUPAMT58118,3DIP6YHAPIRVSMEGL88843027P58ES,F2F21004-63B0-4996-AFFF-57F835F53EE6,2023-09-27_11h25.03.227,WP_VExplicitOC_LH,2022.2.5,Win32,5.333333333,83.52490421,3.821,2.067,NA,NA,NA,NA,NA,bored,"bored, not bored","more bored, less bored",NA,NA,NA,NA,NA,NA,NA,NA,NA,NA,NA,NA,NA,NA,NA,NA,NA,NA,NA,NA,NA,NA,NA,NA,NA,NA,NA,NA,NA,NA,NA,NA,NA,NA,NA,NA,NA,NA,0,0,0,2,1,NA,NA,NA,NA,NA
SUPAMT58118,3DIP6YHAPIRVSMEGL88843027P58ES,F2F21004-63B0-4996-AFFF-57F835F53EE6,2023-09-27_11h25.03.227,WP_VExplicitOC_LH,2022.2.5,Win32,5.333333333,80.9706258,3.881,2.156,NA,NA,NA,NA,NA,happy,"unhappy, happy","less happy, more happy",NA,NA,NA,NA,NA,NA,NA,NA,NA,NA,NA,NA,NA,NA,NA,NA,NA,NA,NA,NA,NA,NA,NA,NA,NA,NA,NA,NA,NA,NA,NA,NA,NA,NA,NA,NA,NA,NA,0,1,1,0,1,NA,NA,NA,NA,NA
SUPAMT58118,3DIP6YHAPIRVSMEGL88843027P58ES,F2F21004-63B0-4996-AFFF-57F835F53EE6,2023-09-27_11h25.03.227,WP_VExplicitOC_LH,2022.2.5,Win32,5.333333333,80.9706258,3.882,2.12,NA,NA,NA,NA,NA,frustrated,"frustrated, not frustrated","more frustrated, less frustrated",NA,NA,NA,NA,NA,NA,NA,NA,NA,NA,NA,NA,NA,NA,NA,NA,NA,NA,NA,NA,NA,NA,NA,NA,NA,NA,NA,NA,NA,NA,NA,NA,NA,NA,NA,NA,NA,NA,0,2,2,1,1,NA,NA,NA,NA,NA
SUPAMT58118,3DIP6YHAPIRVSMEGL88843027P58ES,F2F21004-63B0-4996-AFFF-57F835F53EE6,2023-09-27_11h25.03.227,WP_VExplicitOC_LH,2022.2.5,Win32,5.333333333,NA,NA,NA,NA,NA,NA,NA,NA,NA,NA,NA,NA,NA,NA,NA,NA,NA,NA,NA,NA,NA,NA,NA,NA,NA,NA,NA,NA,NA,NA,NA,NA,NA,NA,NA,NA,NA,NA,NA,NA,NA,NA,NA,NA,NA,NA,NA,NA,NA,NA,NA,NA,NA,NA,13,0,13,0,1
SUPAMT58118,3DIP6YHAPIRVSMEGL88843027P58ES,F2F21004-63B0-4996-AFFF-57F835F53EE6,2023-09-27_11h25.03.227,WP_VExplicitOC_LH,2022.2.5,Win32,5.333333333,88.12260536,3.856,2.162,NA,NA,NA,NA,NA,frustrated,"frustrated, not frustrated","more frustrated, less frustrated",NA,NA,NA,NA,NA,NA,NA,NA,NA,NA,NA,NA,NA,NA,NA,NA,NA,NA,NA,NA,NA,NA,NA,NA,NA,NA,NA,NA,NA,NA,NA,NA,NA,NA,NA,NA,NA,NA,0,0,0,1,1,NA,NA,NA,NA,NA
SUPAMT58118,3DIP6YHAPIRVSMEGL88843027P58ES,F2F21004-63B0-4996-AFFF-57F835F53EE6,2023-09-27_11h25.03.227,WP_VExplicitOC_LH,2022.2.5,Win32,5.333333333,71.26436782,4.814,2.022,NA,NA,NA,NA,NA,bored,"bored, not bored","more bored, less bored",NA,NA,NA,NA,NA,NA,NA,NA,NA,NA,NA,NA,NA,NA,NA,NA,NA,NA,NA,NA,NA,NA,NA,NA,NA,NA,NA,NA,NA,NA,NA,NA,NA,NA,NA,NA,NA,NA,0,1,1,2,1,NA,NA,NA,NA,NA
SUPAMT58118,3DIP6YHAPIRVSMEGL88843027P58ES,F2F21004-63B0-4996-AFFF-57F835F53EE6,2023-09-27_11h25.03.227,WP_VExplicitOC_LH,2022.2.5,Win32,5.333333333,83.52490421,5.009,2.156,NA,NA,NA,NA,NA,happy,"unhappy, happy","less happy, more happy",NA,NA,NA,NA,NA,NA,NA,NA,NA,NA,NA,NA,NA,NA,NA,NA,NA,NA,NA,NA,NA,NA,NA,NA,NA,NA,NA,NA,NA,NA,NA,NA,NA,NA,NA,NA,NA,NA,0,2,2,0,1,NA,NA,NA,NA,NA
SUPAMT58118,3DIP6YHAPIRVSMEGL88843027P58ES,F2F21004-63B0-4996-AFFF-57F835F53EE6,2023-09-27_11h25.03.227,WP_VExplicitOC_LH,2022.2.5,Win32,5.333333333,NA,NA,NA,NA,NA,NA,NA,NA,NA,NA,NA,NA,NA,NA,NA,NA,NA,NA,NA,NA,NA,NA,NA,NA,NA,NA,NA,NA,NA,NA,NA,NA,NA,NA,NA,NA,NA,NA,NA,NA,NA,NA,NA,NA,NA,NA,NA,NA,NA,NA,NA,NA,NA,NA,14,0,14,0,1
SUPAMT58118,3DIP6YHAPIRVSMEGL88843027P58ES,F2F21004-63B0-4996-AFFF-57F835F53EE6,2023-09-27_11h25.03.227,WP_VExplicitOC_LH,2022.2.5,Win32,5.333333333,NA,NA,NA,NA,NA,NA,NA,NA,NA,NA,NA,NA,NA,NA,NA,NA,NA,NA,NA,NA,NA,NA,NA,NA,NA,NA,NA,NA,NA,NA,NA,NA,NA,NA,NA,NA,NA,NA,NA,NA,NA,NA,NA,NA,NA,NA,NA,NA,NA,NA,NA,NA,NA,NA,NA,NA,NA,NA,NA
