participant,session,completion,date,expName,psychopyVersion,OS,frameRate,rating_all.response,rating_all.rt,rating_all.tStart,rndRat1.thisRepN,rndRat1.thisTrialN,rndRat1.thisN,rndRat1.thisIndex,rndRat1.ran,Emo,Labs,Labs2,rating_alt.response,rating_alt.rt,AltC.thisRepN,AltC.thisTrialN,AltC.thisN,AltC.thisIndex,AltC.ran,alt_choices,pic_choices,TopAlt_Choice,rndRat2.thisRepN,rndRat2.thisTrialN,rndRat2.thisN,rndRat2.thisIndex,rndRat2.ran,rndRat3.thisRepN,rndRat3.thisTrialN,rndRat3.thisN,rndRat3.thisIndex,rndRat3.ran,trials_FC_H.thisRepN,trials_FC_H.thisTrialN,trials_FC_H.thisN,trials_FC_H.thisIndex,trials_FC_H.ran,rating_alt_2.response,rating_alt_2.rt,AltC2.thisRepN,AltC2.thisTrialN,AltC2.thisN,AltC2.thisIndex,AltC2.ran,BottomAlt_Choice,rndRat4.thisRepN,rndRat4.thisTrialN,rndRat4.thisN,rndRat4.thisIndex,rndRat4.ran,rndRat5.thisRepN,rndRat5.thisTrialN,rndRat5.thisN,rndRat5.thisIndex,rndRat5.ran,trials_FC_L.thisRepN,trials_FC_L.thisTrialN,trials_FC_L.thisN,trials_FC_L.thisIndex,trials_FC_L.ran
SUPAMT79962,3UJ1CZ6IZNODFN0WO5LAH0UQ6ZRS57,E1844369-9C2B-4AB9-B6EA-916D69F3B58D,2023-09-28_21h24.35.535,WP_VExplicitOC_HL,2022.2.5,Win32,18.44542,NA,NA,NA,NA,NA,NA,NA,NA,NA,NA,NA,NA,NA,NA,NA,NA,NA,NA,NA,NA,NA,NA,NA,NA,NA,NA,NA,NA,NA,NA,NA,NA,NA,NA,NA,NA,NA,NA,NA,NA,NA,NA,NA,NA,NA,NA,NA,NA,NA,NA,NA,NA,NA,NA,NA,NA,NA,NA,NA
SUPAMT79962,3UJ1CZ6IZNODFN0WO5LAH0UQ6ZRS57,E1844369-9C2B-4AB9-B6EA-916D69F3B58D,2023-09-28_21h24.35.535,WP_VExplicitOC_HL,2022.2.5,Win32,18.44542,NA,NA,NA,NA,NA,NA,NA,NA,NA,NA,NA,NA,NA,NA,NA,NA,NA,NA,NA,NA,NA,NA,NA,NA,NA,NA,NA,NA,NA,NA,NA,NA,NA,NA,NA,NA,NA,NA,NA,NA,NA,NA,NA,NA,NA,NA,NA,NA,NA,NA,NA,NA,NA,NA,NA,NA,NA,NA,NA
SUPAMT79962,3UJ1CZ6IZNODFN0WO5LAH0UQ6ZRS57,E1844369-9C2B-4AB9-B6EA-916D69F3B58D,2023-09-28_21h24.35.535,WP_VExplicitOC_HL,2022.2.5,Win32,18.44542,NA,NA,NA,NA,NA,NA,NA,NA,NA,NA,NA,NA,NA,NA,NA,NA,NA,NA,NA,NA,NA,NA,NA,NA,NA,NA,NA,NA,NA,NA,NA,NA,NA,NA,NA,NA,NA,NA,NA,NA,NA,NA,NA,NA,NA,NA,NA,NA,NA,NA,NA,NA,NA,NA,NA,NA,NA,NA,NA
SUPAMT79962,3UJ1CZ6IZNODFN0WO5LAH0UQ6ZRS57,E1844369-9C2B-4AB9-B6EA-916D69F3B58D,2023-09-28_21h24.35.535,WP_VExplicitOC_HL,2022.2.5,Win32,18.44542,83.88888889,5.5451,2.0319,0,0,0,1,1,frustrated,"frustrated, not frustrated","more frustrated, less frustrated",NA,NA,NA,NA,NA,NA,NA,NA,NA,NA,NA,NA,NA,NA,NA,NA,NA,NA,NA,NA,NA,NA,NA,NA,NA,NA,NA,NA,NA,NA,NA,NA,NA,NA,NA,NA,NA,NA,NA,NA,NA,NA,NA,NA,NA,NA,NA,NA
SUPAMT79962,3UJ1CZ6IZNODFN0WO5LAH0UQ6ZRS57,E1844369-9C2B-4AB9-B6EA-916D69F3B58D,2023-09-28_21h24.35.535,WP_VExplicitOC_HL,2022.2.5,Win32,18.44542,66.85185185,4.2731,2.0183,0,1,1,2,1,bored,"bored, not bored","more bored, less bored",NA,NA,NA,NA,NA,NA,NA,NA,NA,NA,NA,NA,NA,NA,NA,NA,NA,NA,NA,NA,NA,NA,NA,NA,NA,NA,NA,NA,NA,NA,NA,NA,NA,NA,NA,NA,NA,NA,NA,NA,NA,NA,NA,NA,NA,NA,NA,NA
SUPAMT79962,3UJ1CZ6IZNODFN0WO5LAH0UQ6ZRS57,E1844369-9C2B-4AB9-B6EA-916D69F3B58D,2023-09-28_21h24.35.535,WP_VExplicitOC_HL,2022.2.5,Win32,18.44542,22.59259259,3.6831,2.0703,0,2,2,0,1,happy,"unhappy, happy","less happy, more happy",NA,NA,NA,NA,NA,NA,NA,NA,NA,NA,NA,NA,NA,NA,NA,NA,NA,NA,NA,NA,NA,NA,NA,NA,NA,NA,NA,NA,NA,NA,NA,NA,NA,NA,NA,NA,NA,NA,NA,NA,NA,NA,NA,NA,NA,NA,NA,NA
SUPAMT79962,3UJ1CZ6IZNODFN0WO5LAH0UQ6ZRS57,E1844369-9C2B-4AB9-B6EA-916D69F3B58D,2023-09-28_21h24.35.535,WP_VExplicitOC_HL,2022.2.5,Win32,18.44542,NA,NA,NA,NA,NA,NA,NA,NA,NA,NA,NA,NA,NA,NA,NA,NA,NA,NA,NA,NA,NA,NA,NA,NA,NA,NA,NA,NA,NA,NA,NA,NA,NA,NA,NA,NA,NA,NA,NA,NA,NA,NA,NA,NA,NA,NA,NA,NA,NA,NA,NA,NA,NA,NA,NA,NA,NA,NA,NA
SUPAMT79962,3UJ1CZ6IZNODFN0WO5LAH0UQ6ZRS57,E1844369-9C2B-4AB9-B6EA-916D69F3B58D,2023-09-28_21h24.35.535,WP_VExplicitOC_HL,2022.2.5,Win32,18.44542,NA,NA,NA,NA,NA,NA,NA,NA,NA,NA,NA,NA,NA,NA,NA,NA,NA,NA,NA,NA,NA,NA,NA,NA,NA,NA,NA,NA,NA,NA,NA,NA,NA,NA,NA,NA,NA,NA,NA,NA,NA,NA,NA,NA,NA,NA,NA,NA,NA,NA,NA,NA,NA,NA,NA,NA,NA,NA,NA
SUPAMT79962,3UJ1CZ6IZNODFN0WO5LAH0UQ6ZRS57,E1844369-9C2B-4AB9-B6EA-916D69F3B58D,2023-09-28_21h24.35.535,WP_VExplicitOC_HL,2022.2.5,Win32,18.44542,NA,NA,NA,NA,NA,NA,NA,NA,NA,NA,NA,NA,NA,NA,NA,NA,NA,NA,NA,NA,NA,NA,NA,NA,NA,NA,NA,NA,NA,NA,NA,NA,NA,NA,NA,NA,NA,NA,NA,NA,NA,NA,NA,NA,NA,NA,NA,NA,NA,NA,NA,NA,NA,NA,NA,NA,NA,NA,NA
SUPAMT79962,3UJ1CZ6IZNODFN0WO5LAH0UQ6ZRS57,E1844369-9C2B-4AB9-B6EA-916D69F3B58D,2023-09-28_21h24.35.535,WP_VExplicitOC_HL,2022.2.5,Win32,18.44542,NA,NA,NA,NA,NA,NA,NA,NA,NA,NA,NA,NA,NA,NA,NA,NA,NA,NA,NA,NA,NA,NA,NA,NA,NA,NA,NA,NA,NA,NA,NA,NA,NA,NA,NA,NA,NA,NA,NA,NA,NA,NA,NA,NA,NA,NA,NA,NA,NA,NA,NA,NA,NA,NA,NA,NA,NA,NA,NA
SUPAMT79962,3UJ1CZ6IZNODFN0WO5LAH0UQ6ZRS57,E1844369-9C2B-4AB9-B6EA-916D69F3B58D,2023-09-28_21h24.35.535,WP_VExplicitOC_HL,2022.2.5,Win32,18.44542,NA,NA,NA,NA,NA,NA,NA,NA,NA,NA,NA,33.51851852,4.788,0,0,0,0,1,rest (looking at a fixed cross),001.png,NA,NA,NA,NA,NA,NA,NA,NA,NA,NA,NA,NA,NA,NA,NA,NA,NA,NA,NA,NA,NA,NA,NA,NA,NA,NA,NA,NA,NA,NA,NA,NA,NA,NA,NA,NA,NA,NA,NA
SUPAMT79962,3UJ1CZ6IZNODFN0WO5LAH0UQ6ZRS57,E1844369-9C2B-4AB9-B6EA-916D69F3B58D,2023-09-28_21h24.35.535,WP_VExplicitOC_HL,2022.2.5,Win32,18.44542,NA,NA,NA,NA,NA,NA,NA,NA,NA,NA,NA,21.11111111,5.9821,0,1,1,1,1,stand up,002.png,NA,NA,NA,NA,NA,NA,NA,NA,NA,NA,NA,NA,NA,NA,NA,NA,NA,NA,NA,NA,NA,NA,NA,NA,NA,NA,NA,NA,NA,NA,NA,NA,NA,NA,NA,NA,NA,NA,NA
SUPAMT79962,3UJ1CZ6IZNODFN0WO5LAH0UQ6ZRS57,E1844369-9C2B-4AB9-B6EA-916D69F3B58D,2023-09-28_21h24.35.535,WP_VExplicitOC_HL,2022.2.5,Win32,18.44542,NA,NA,NA,NA,NA,NA,NA,NA,NA,NA,NA,73.14814815,2.6371000000000002,0,2,2,2,1,stretch,003.png,NA,NA,NA,NA,NA,NA,NA,NA,NA,NA,NA,NA,NA,NA,NA,NA,NA,NA,NA,NA,NA,NA,NA,NA,NA,NA,NA,NA,NA,NA,NA,NA,NA,NA,NA,NA,NA,NA,NA
SUPAMT79962,3UJ1CZ6IZNODFN0WO5LAH0UQ6ZRS57,E1844369-9C2B-4AB9-B6EA-916D69F3B58D,2023-09-28_21h24.35.535,WP_VExplicitOC_HL,2022.2.5,Win32,18.44542,NA,NA,NA,NA,NA,NA,NA,NA,NA,NA,NA,94.62962963,2.9488,0,3,3,3,1,make a drink,004.png,NA,NA,NA,NA,NA,NA,NA,NA,NA,NA,NA,NA,NA,NA,NA,NA,NA,NA,NA,NA,NA,NA,NA,NA,NA,NA,NA,NA,NA,NA,NA,NA,NA,NA,NA,NA,NA,NA,NA
SUPAMT79962,3UJ1CZ6IZNODFN0WO5LAH0UQ6ZRS57,E1844369-9C2B-4AB9-B6EA-916D69F3B58D,2023-09-28_21h24.35.535,WP_VExplicitOC_HL,2022.2.5,Win32,18.44542,NA,NA,NA,NA,NA,NA,NA,NA,NA,NA,NA,61.66666667,3.3497,0,4,4,4,1,scroll social media,005.png,NA,NA,NA,NA,NA,NA,NA,NA,NA,NA,NA,NA,NA,NA,NA,NA,NA,NA,NA,NA,NA,NA,NA,NA,NA,NA,NA,NA,NA,NA,NA,NA,NA,NA,NA,NA,NA,NA,NA
SUPAMT79962,3UJ1CZ6IZNODFN0WO5LAH0UQ6ZRS57,E1844369-9C2B-4AB9-B6EA-916D69F3B58D,2023-09-28_21h24.35.535,WP_VExplicitOC_HL,2022.2.5,Win32,18.44542,NA,NA,NA,NA,NA,NA,NA,NA,NA,NA,NA,90.18518519,2.4301,0,5,5,5,1,listen to music,006.png,NA,NA,NA,NA,NA,NA,NA,NA,NA,NA,NA,NA,NA,NA,NA,NA,NA,NA,NA,NA,NA,NA,NA,NA,NA,NA,NA,NA,NA,NA,NA,NA,NA,NA,NA,NA,NA,NA,NA
SUPAMT79962,3UJ1CZ6IZNODFN0WO5LAH0UQ6ZRS57,E1844369-9C2B-4AB9-B6EA-916D69F3B58D,2023-09-28_21h24.35.535,WP_VExplicitOC_HL,2022.2.5,Win32,18.44542,NA,NA,NA,NA,NA,NA,NA,NA,NA,NA,NA,-32.77777778,2.7661,0,6,6,6,1,daydream,007.png,NA,NA,NA,NA,NA,NA,NA,NA,NA,NA,NA,NA,NA,NA,NA,NA,NA,NA,NA,NA,NA,NA,NA,NA,NA,NA,NA,NA,NA,NA,NA,NA,NA,NA,NA,NA,NA,NA,NA
SUPAMT79962,3UJ1CZ6IZNODFN0WO5LAH0UQ6ZRS57,E1844369-9C2B-4AB9-B6EA-916D69F3B58D,2023-09-28_21h24.35.535,WP_VExplicitOC_HL,2022.2.5,Win32,18.44542,NA,NA,NA,NA,NA,NA,NA,NA,NA,NA,NA,31.48148148,2.4822,0,7,7,7,1,watch a short animation,008.png,NA,NA,NA,NA,NA,NA,NA,NA,NA,NA,NA,NA,NA,NA,NA,NA,NA,NA,NA,NA,NA,NA,NA,NA,NA,NA,NA,NA,NA,NA,NA,NA,NA,NA,NA,NA,NA,NA,NA
SUPAMT79962,3UJ1CZ6IZNODFN0WO5LAH0UQ6ZRS57,E1844369-9C2B-4AB9-B6EA-916D69F3B58D,2023-09-28_21h24.35.535,WP_VExplicitOC_HL,2022.2.5,Win32,18.44542,NA,NA,NA,NA,NA,NA,NA,NA,NA,NA,NA,-61.48148148,2.0736,0,8,8,8,1,read a novel,009.png,NA,NA,NA,NA,NA,NA,NA,NA,NA,NA,NA,NA,NA,NA,NA,NA,NA,NA,NA,NA,NA,NA,NA,NA,NA,NA,NA,NA,NA,NA,NA,NA,NA,NA,NA,NA,NA,NA,NA
SUPAMT79962,3UJ1CZ6IZNODFN0WO5LAH0UQ6ZRS57,E1844369-9C2B-4AB9-B6EA-916D69F3B58D,2023-09-28_21h24.35.535,WP_VExplicitOC_HL,2022.2.5,Win32,18.44542,NA,NA,NA,NA,NA,NA,NA,NA,NA,NA,NA,19.44444444,2.8241,0,9,9,9,1,read the news,010.png,NA,NA,NA,NA,NA,NA,NA,NA,NA,NA,NA,NA,NA,NA,NA,NA,NA,NA,NA,NA,NA,NA,NA,NA,NA,NA,NA,NA,NA,NA,NA,NA,NA,NA,NA,NA,NA,NA,NA
SUPAMT79962,3UJ1CZ6IZNODFN0WO5LAH0UQ6ZRS57,E1844369-9C2B-4AB9-B6EA-916D69F3B58D,2023-09-28_21h24.35.535,WP_VExplicitOC_HL,2022.2.5,Win32,18.44542,NA,NA,NA,NA,NA,NA,NA,NA,NA,NA,NA,NA,NA,NA,NA,NA,NA,NA,NA,NA,NA,NA,NA,NA,NA,NA,NA,NA,NA,NA,NA,NA,NA,NA,NA,NA,NA,NA,NA,NA,NA,NA,NA,NA,NA,NA,NA,NA,NA,NA,NA,NA,NA,NA,NA,NA,NA,NA,NA
SUPAMT79962,3UJ1CZ6IZNODFN0WO5LAH0UQ6ZRS57,E1844369-9C2B-4AB9-B6EA-916D69F3B58D,2023-09-28_21h24.35.535,WP_VExplicitOC_HL,2022.2.5,Win32,18.44542,NA,NA,NA,NA,NA,NA,NA,NA,NA,NA,NA,NA,NA,NA,NA,NA,NA,NA,NA,NA,make a drink,NA,NA,NA,NA,NA,NA,NA,NA,NA,NA,NA,NA,NA,NA,NA,NA,NA,NA,NA,NA,NA,NA,NA,NA,NA,NA,NA,NA,NA,NA,NA,NA,NA,NA,NA,NA,NA,NA
SUPAMT79962,3UJ1CZ6IZNODFN0WO5LAH0UQ6ZRS57,E1844369-9C2B-4AB9-B6EA-916D69F3B58D,2023-09-28_21h24.35.535,WP_VExplicitOC_HL,2022.2.5,Win32,18.44542,22.59259259,5.8307,2.0583,NA,NA,NA,NA,NA,frustrated,"frustrated, not frustrated","more frustrated, less frustrated",NA,NA,NA,NA,NA,NA,NA,NA,NA,NA,0,0,0,1,1,NA,NA,NA,NA,NA,NA,NA,NA,NA,NA,NA,NA,NA,NA,NA,NA,NA,NA,NA,NA,NA,NA,NA,NA,NA,NA,NA,NA,NA,NA,NA,NA,NA
SUPAMT79962,3UJ1CZ6IZNODFN0WO5LAH0UQ6ZRS57,E1844369-9C2B-4AB9-B6EA-916D69F3B58D,2023-09-28_21h24.35.535,WP_VExplicitOC_HL,2022.2.5,Win32,18.44542,91.48148148,3.9892,2.05,NA,NA,NA,NA,NA,bored,"bored, not bored","more bored, less bored",NA,NA,NA,NA,NA,NA,NA,NA,NA,NA,0,1,1,2,1,NA,NA,NA,NA,NA,NA,NA,NA,NA,NA,NA,NA,NA,NA,NA,NA,NA,NA,NA,NA,NA,NA,NA,NA,NA,NA,NA,NA,NA,NA,NA,NA,NA
SUPAMT79962,3UJ1CZ6IZNODFN0WO5LAH0UQ6ZRS57,E1844369-9C2B-4AB9-B6EA-916D69F3B58D,2023-09-28_21h24.35.535,WP_VExplicitOC_HL,2022.2.5,Win32,18.44542,32.59259259,4.189,2.0696,NA,NA,NA,NA,NA,happy,"unhappy, happy","less happy, more happy",NA,NA,NA,NA,NA,NA,NA,NA,NA,NA,0,2,2,0,1,NA,NA,NA,NA,NA,NA,NA,NA,NA,NA,NA,NA,NA,NA,NA,NA,NA,NA,NA,NA,NA,NA,NA,NA,NA,NA,NA,NA,NA,NA,NA,NA,NA
SUPAMT79962,3UJ1CZ6IZNODFN0WO5LAH0UQ6ZRS57,E1844369-9C2B-4AB9-B6EA-916D69F3B58D,2023-09-28_21h24.35.535,WP_VExplicitOC_HL,2022.2.5,Win32,18.44542,NA,NA,NA,NA,NA,NA,NA,NA,NA,NA,NA,NA,NA,NA,NA,NA,NA,NA,NA,NA,NA,NA,NA,NA,NA,NA,NA,NA,NA,NA,NA,NA,NA,NA,NA,NA,NA,NA,NA,NA,NA,NA,NA,NA,NA,NA,NA,NA,NA,NA,NA,NA,NA,NA,NA,NA,NA,NA,NA
SUPAMT79962,3UJ1CZ6IZNODFN0WO5LAH0UQ6ZRS57,E1844369-9C2B-4AB9-B6EA-916D69F3B58D,2023-09-28_21h24.35.535,WP_VExplicitOC_HL,2022.2.5,Win32,18.44542,NA,NA,NA,NA,NA,NA,NA,NA,NA,NA,NA,NA,NA,NA,NA,NA,NA,NA,NA,NA,NA,NA,NA,NA,NA,NA,NA,NA,NA,NA,NA,NA,NA,NA,NA,NA,NA,NA,NA,NA,NA,NA,NA,NA,NA,NA,NA,NA,NA,NA,NA,NA,NA,NA,NA,NA,NA,NA,NA
SUPAMT79962,3UJ1CZ6IZNODFN0WO5LAH0UQ6ZRS57,E1844369-9C2B-4AB9-B6EA-916D69F3B58D,2023-09-28_21h24.35.535,WP_VExplicitOC_HL,2022.2.5,Win32,18.44542,80.55555556,5.2062,2.0721,NA,NA,NA,NA,NA,frustrated,"frustrated, not frustrated","more frustrated, less frustrated",NA,NA,NA,NA,NA,NA,NA,NA,NA,NA,NA,NA,NA,NA,NA,0,0,0,1,1,NA,NA,NA,NA,NA,NA,NA,NA,NA,NA,NA,NA,NA,NA,NA,NA,NA,NA,NA,NA,NA,NA,NA,NA,NA,NA,NA,NA
SUPAMT79962,3UJ1CZ6IZNODFN0WO5LAH0UQ6ZRS57,E1844369-9C2B-4AB9-B6EA-916D69F3B58D,2023-09-28_21h24.35.535,WP_VExplicitOC_HL,2022.2.5,Win32,18.44542,-12.40740741,4.783,2.06,NA,NA,NA,NA,NA,bored,"bored, not bored","more bored, less bored",NA,NA,NA,NA,NA,NA,NA,NA,NA,NA,NA,NA,NA,NA,NA,0,1,1,2,1,NA,NA,NA,NA,NA,NA,NA,NA,NA,NA,NA,NA,NA,NA,NA,NA,NA,NA,NA,NA,NA,NA,NA,NA,NA,NA,NA,NA
SUPAMT79962,3UJ1CZ6IZNODFN0WO5LAH0UQ6ZRS57,E1844369-9C2B-4AB9-B6EA-916D69F3B58D,2023-09-28_21h24.35.535,WP_VExplicitOC_HL,2022.2.5,Win32,18.44542,42.96296296,3.7059,2.033,NA,NA,NA,NA,NA,happy,"unhappy, happy","less happy, more happy",NA,NA,NA,NA,NA,NA,NA,NA,NA,NA,NA,NA,NA,NA,NA,0,2,2,0,1,NA,NA,NA,NA,NA,NA,NA,NA,NA,NA,NA,NA,NA,NA,NA,NA,NA,NA,NA,NA,NA,NA,NA,NA,NA,NA,NA,NA
SUPAMT79962,3UJ1CZ6IZNODFN0WO5LAH0UQ6ZRS57,E1844369-9C2B-4AB9-B6EA-916D69F3B58D,2023-09-28_21h24.35.535,WP_VExplicitOC_HL,2022.2.5,Win32,18.44542,NA,NA,NA,NA,NA,NA,NA,NA,NA,NA,NA,NA,NA,NA,NA,NA,NA,NA,NA,NA,NA,NA,NA,NA,NA,NA,NA,NA,NA,NA,NA,0,0,0,0,1,NA,NA,NA,NA,NA,NA,NA,NA,NA,NA,NA,NA,NA,NA,NA,NA,NA,NA,NA,NA,NA,NA,NA
SUPAMT79962,3UJ1CZ6IZNODFN0WO5LAH0UQ6ZRS57,E1844369-9C2B-4AB9-B6EA-916D69F3B58D,2023-09-28_21h24.35.535,WP_VExplicitOC_HL,2022.2.5,Win32,18.44542,-23.51851852,4.4459,2.044,NA,NA,NA,NA,NA,bored,"bored, not bored","more bored, less bored",NA,NA,NA,NA,NA,NA,NA,NA,NA,NA,NA,NA,NA,NA,NA,0,0,0,2,1,NA,NA,NA,NA,NA,NA,NA,NA,NA,NA,NA,NA,NA,NA,NA,NA,NA,NA,NA,NA,NA,NA,NA,NA,NA,NA,NA,NA
SUPAMT79962,3UJ1CZ6IZNODFN0WO5LAH0UQ6ZRS57,E1844369-9C2B-4AB9-B6EA-916D69F3B58D,2023-09-28_21h24.35.535,WP_VExplicitOC_HL,2022.2.5,Win32,18.44542,83.88888889,3.8475,2.0671,NA,NA,NA,NA,NA,frustrated,"frustrated, not frustrated","more frustrated, less frustrated",NA,NA,NA,NA,NA,NA,NA,NA,NA,NA,NA,NA,NA,NA,NA,0,1,1,1,1,NA,NA,NA,NA,NA,NA,NA,NA,NA,NA,NA,NA,NA,NA,NA,NA,NA,NA,NA,NA,NA,NA,NA,NA,NA,NA,NA,NA
SUPAMT79962,3UJ1CZ6IZNODFN0WO5LAH0UQ6ZRS57,E1844369-9C2B-4AB9-B6EA-916D69F3B58D,2023-09-28_21h24.35.535,WP_VExplicitOC_HL,2022.2.5,Win32,18.44542,24.81481481,3.603,2.0566,NA,NA,NA,NA,NA,happy,"unhappy, happy","less happy, more happy",NA,NA,NA,NA,NA,NA,NA,NA,NA,NA,NA,NA,NA,NA,NA,0,2,2,0,1,NA,NA,NA,NA,NA,NA,NA,NA,NA,NA,NA,NA,NA,NA,NA,NA,NA,NA,NA,NA,NA,NA,NA,NA,NA,NA,NA,NA
SUPAMT79962,3UJ1CZ6IZNODFN0WO5LAH0UQ6ZRS57,E1844369-9C2B-4AB9-B6EA-916D69F3B58D,2023-09-28_21h24.35.535,WP_VExplicitOC_HL,2022.2.5,Win32,18.44542,NA,NA,NA,NA,NA,NA,NA,NA,NA,NA,NA,NA,NA,NA,NA,NA,NA,NA,NA,NA,NA,NA,NA,NA,NA,NA,NA,NA,NA,NA,NA,1,0,1,0,1,NA,NA,NA,NA,NA,NA,NA,NA,NA,NA,NA,NA,NA,NA,NA,NA,NA,NA,NA,NA,NA,NA,NA
SUPAMT79962,3UJ1CZ6IZNODFN0WO5LAH0UQ6ZRS57,E1844369-9C2B-4AB9-B6EA-916D69F3B58D,2023-09-28_21h24.35.535,WP_VExplicitOC_HL,2022.2.5,Win32,18.44542,-46.48148148,3.8676,2.078,NA,NA,NA,NA,NA,bored,"bored, not bored","more bored, less bored",NA,NA,NA,NA,NA,NA,NA,NA,NA,NA,NA,NA,NA,NA,NA,0,0,0,2,1,NA,NA,NA,NA,NA,NA,NA,NA,NA,NA,NA,NA,NA,NA,NA,NA,NA,NA,NA,NA,NA,NA,NA,NA,NA,NA,NA,NA
SUPAMT79962,3UJ1CZ6IZNODFN0WO5LAH0UQ6ZRS57,E1844369-9C2B-4AB9-B6EA-916D69F3B58D,2023-09-28_21h24.35.535,WP_VExplicitOC_HL,2022.2.5,Win32,18.44542,71.85185185,3.9191,2.083,NA,NA,NA,NA,NA,frustrated,"frustrated, not frustrated","more frustrated, less frustrated",NA,NA,NA,NA,NA,NA,NA,NA,NA,NA,NA,NA,NA,NA,NA,0,1,1,1,1,NA,NA,NA,NA,NA,NA,NA,NA,NA,NA,NA,NA,NA,NA,NA,NA,NA,NA,NA,NA,NA,NA,NA,NA,NA,NA,NA,NA
SUPAMT79962,3UJ1CZ6IZNODFN0WO5LAH0UQ6ZRS57,E1844369-9C2B-4AB9-B6EA-916D69F3B58D,2023-09-28_21h24.35.535,WP_VExplicitOC_HL,2022.2.5,Win32,18.44542,19.62962963,3.6346,2.0332,NA,NA,NA,NA,NA,happy,"unhappy, happy","less happy, more happy",NA,NA,NA,NA,NA,NA,NA,NA,NA,NA,NA,NA,NA,NA,NA,0,2,2,0,1,NA,NA,NA,NA,NA,NA,NA,NA,NA,NA,NA,NA,NA,NA,NA,NA,NA,NA,NA,NA,NA,NA,NA,NA,NA,NA,NA,NA
SUPAMT79962,3UJ1CZ6IZNODFN0WO5LAH0UQ6ZRS57,E1844369-9C2B-4AB9-B6EA-916D69F3B58D,2023-09-28_21h24.35.535,WP_VExplicitOC_HL,2022.2.5,Win32,18.44542,NA,NA,NA,NA,NA,NA,NA,NA,NA,NA,NA,NA,NA,NA,NA,NA,NA,NA,NA,NA,NA,NA,NA,NA,NA,NA,NA,NA,NA,NA,NA,2,0,2,0,1,NA,NA,NA,NA,NA,NA,NA,NA,NA,NA,NA,NA,NA,NA,NA,NA,NA,NA,NA,NA,NA,NA,NA
SUPAMT79962,3UJ1CZ6IZNODFN0WO5LAH0UQ6ZRS57,E1844369-9C2B-4AB9-B6EA-916D69F3B58D,2023-09-28_21h24.35.535,WP_VExplicitOC_HL,2022.2.5,Win32,18.44542,-55.55555556,4.0881,2.0191,NA,NA,NA,NA,NA,bored,"bored, not bored","more bored, less bored",NA,NA,NA,NA,NA,NA,NA,NA,NA,NA,NA,NA,NA,NA,NA,0,0,0,2,1,NA,NA,NA,NA,NA,NA,NA,NA,NA,NA,NA,NA,NA,NA,NA,NA,NA,NA,NA,NA,NA,NA,NA,NA,NA,NA,NA,NA
SUPAMT79962,3UJ1CZ6IZNODFN0WO5LAH0UQ6ZRS57,E1844369-9C2B-4AB9-B6EA-916D69F3B58D,2023-09-28_21h24.35.535,WP_VExplicitOC_HL,2022.2.5,Win32,18.44542,24.074074070000002,3.7085,2.0537,NA,NA,NA,NA,NA,happy,"unhappy, happy","less happy, more happy",NA,NA,NA,NA,NA,NA,NA,NA,NA,NA,NA,NA,NA,NA,NA,0,1,1,0,1,NA,NA,NA,NA,NA,NA,NA,NA,NA,NA,NA,NA,NA,NA,NA,NA,NA,NA,NA,NA,NA,NA,NA,NA,NA,NA,NA,NA
SUPAMT79962,3UJ1CZ6IZNODFN0WO5LAH0UQ6ZRS57,E1844369-9C2B-4AB9-B6EA-916D69F3B58D,2023-09-28_21h24.35.535,WP_VExplicitOC_HL,2022.2.5,Win32,18.44542,28.14814815,3.8896,2.0202,NA,NA,NA,NA,NA,frustrated,"frustrated, not frustrated","more frustrated, less frustrated",NA,NA,NA,NA,NA,NA,NA,NA,NA,NA,NA,NA,NA,NA,NA,0,2,2,1,1,NA,NA,NA,NA,NA,NA,NA,NA,NA,NA,NA,NA,NA,NA,NA,NA,NA,NA,NA,NA,NA,NA,NA,NA,NA,NA,NA,NA
SUPAMT79962,3UJ1CZ6IZNODFN0WO5LAH0UQ6ZRS57,E1844369-9C2B-4AB9-B6EA-916D69F3B58D,2023-09-28_21h24.35.535,WP_VExplicitOC_HL,2022.2.5,Win32,18.44542,NA,NA,NA,NA,NA,NA,NA,NA,NA,NA,NA,NA,NA,NA,NA,NA,NA,NA,NA,NA,NA,NA,NA,NA,NA,NA,NA,NA,NA,NA,NA,3,0,3,0,1,NA,NA,NA,NA,NA,NA,NA,NA,NA,NA,NA,NA,NA,NA,NA,NA,NA,NA,NA,NA,NA,NA,NA
SUPAMT79962,3UJ1CZ6IZNODFN0WO5LAH0UQ6ZRS57,E1844369-9C2B-4AB9-B6EA-916D69F3B58D,2023-09-28_21h24.35.535,WP_VExplicitOC_HL,2022.2.5,Win32,18.44542,33.14814815,3.9827,2.058,NA,NA,NA,NA,NA,happy,"unhappy, happy","less happy, more happy",NA,NA,NA,NA,NA,NA,NA,NA,NA,NA,NA,NA,NA,NA,NA,0,0,0,0,1,NA,NA,NA,NA,NA,NA,NA,NA,NA,NA,NA,NA,NA,NA,NA,NA,NA,NA,NA,NA,NA,NA,NA,NA,NA,NA,NA,NA
SUPAMT79962,3UJ1CZ6IZNODFN0WO5LAH0UQ6ZRS57,E1844369-9C2B-4AB9-B6EA-916D69F3B58D,2023-09-28_21h24.35.535,WP_VExplicitOC_HL,2022.2.5,Win32,18.44542,-72.59259259,4.1209,2.0137,NA,NA,NA,NA,NA,bored,"bored, not bored","more bored, less bored",NA,NA,NA,NA,NA,NA,NA,NA,NA,NA,NA,NA,NA,NA,NA,0,1,1,2,1,NA,NA,NA,NA,NA,NA,NA,NA,NA,NA,NA,NA,NA,NA,NA,NA,NA,NA,NA,NA,NA,NA,NA,NA,NA,NA,NA,NA
SUPAMT79962,3UJ1CZ6IZNODFN0WO5LAH0UQ6ZRS57,E1844369-9C2B-4AB9-B6EA-916D69F3B58D,2023-09-28_21h24.35.535,WP_VExplicitOC_HL,2022.2.5,Win32,18.44542,38.14814815,3.7198,2.0664,NA,NA,NA,NA,NA,frustrated,"frustrated, not frustrated","more frustrated, less frustrated",NA,NA,NA,NA,NA,NA,NA,NA,NA,NA,NA,NA,NA,NA,NA,0,2,2,1,1,NA,NA,NA,NA,NA,NA,NA,NA,NA,NA,NA,NA,NA,NA,NA,NA,NA,NA,NA,NA,NA,NA,NA,NA,NA,NA,NA,NA
SUPAMT79962,3UJ1CZ6IZNODFN0WO5LAH0UQ6ZRS57,E1844369-9C2B-4AB9-B6EA-916D69F3B58D,2023-09-28_21h24.35.535,WP_VExplicitOC_HL,2022.2.5,Win32,18.44542,NA,NA,NA,NA,NA,NA,NA,NA,NA,NA,NA,NA,NA,NA,NA,NA,NA,NA,NA,NA,NA,NA,NA,NA,NA,NA,NA,NA,NA,NA,NA,4,0,4,0,1,NA,NA,NA,NA,NA,NA,NA,NA,NA,NA,NA,NA,NA,NA,NA,NA,NA,NA,NA,NA,NA,NA,NA
SUPAMT79962,3UJ1CZ6IZNODFN0WO5LAH0UQ6ZRS57,E1844369-9C2B-4AB9-B6EA-916D69F3B58D,2023-09-28_21h24.35.535,WP_VExplicitOC_HL,2022.2.5,Win32,18.44542,33.33333333,6.5827,2.0712,NA,NA,NA,NA,NA,happy,"unhappy, happy","less happy, more happy",NA,NA,NA,NA,NA,NA,NA,NA,NA,NA,NA,NA,NA,NA,NA,0,0,0,0,1,NA,NA,NA,NA,NA,NA,NA,NA,NA,NA,NA,NA,NA,NA,NA,NA,NA,NA,NA,NA,NA,NA,NA,NA,NA,NA,NA,NA
SUPAMT79962,3UJ1CZ6IZNODFN0WO5LAH0UQ6ZRS57,E1844369-9C2B-4AB9-B6EA-916D69F3B58D,2023-09-28_21h24.35.535,WP_VExplicitOC_HL,2022.2.5,Win32,18.44542,56.2962963,5.0853,2.0143,NA,NA,NA,NA,NA,frustrated,"frustrated, not frustrated","more frustrated, less frustrated",NA,NA,NA,NA,NA,NA,NA,NA,NA,NA,NA,NA,NA,NA,NA,0,1,1,1,1,NA,NA,NA,NA,NA,NA,NA,NA,NA,NA,NA,NA,NA,NA,NA,NA,NA,NA,NA,NA,NA,NA,NA,NA,NA,NA,NA,NA
SUPAMT79962,3UJ1CZ6IZNODFN0WO5LAH0UQ6ZRS57,E1844369-9C2B-4AB9-B6EA-916D69F3B58D,2023-09-28_21h24.35.535,WP_VExplicitOC_HL,2022.2.5,Win32,18.44542,-54.44444444,4.0419,2.0698,NA,NA,NA,NA,NA,bored,"bored, not bored","more bored, less bored",NA,NA,NA,NA,NA,NA,NA,NA,NA,NA,NA,NA,NA,NA,NA,0,2,2,2,1,NA,NA,NA,NA,NA,NA,NA,NA,NA,NA,NA,NA,NA,NA,NA,NA,NA,NA,NA,NA,NA,NA,NA,NA,NA,NA,NA,NA
SUPAMT79962,3UJ1CZ6IZNODFN0WO5LAH0UQ6ZRS57,E1844369-9C2B-4AB9-B6EA-916D69F3B58D,2023-09-28_21h24.35.535,WP_VExplicitOC_HL,2022.2.5,Win32,18.44542,NA,NA,NA,NA,NA,NA,NA,NA,NA,NA,NA,NA,NA,NA,NA,NA,NA,NA,NA,NA,NA,NA,NA,NA,NA,NA,NA,NA,NA,NA,NA,5,0,5,0,1,NA,NA,NA,NA,NA,NA,NA,NA,NA,NA,NA,NA,NA,NA,NA,NA,NA,NA,NA,NA,NA,NA,NA
SUPAMT79962,3UJ1CZ6IZNODFN0WO5LAH0UQ6ZRS57,E1844369-9C2B-4AB9-B6EA-916D69F3B58D,2023-09-28_21h24.35.535,WP_VExplicitOC_HL,2022.2.5,Win32,18.44542,62.59259259,4.9589,2.0693,NA,NA,NA,NA,NA,frustrated,"frustrated, not frustrated","more frustrated, less frustrated",NA,NA,NA,NA,NA,NA,NA,NA,NA,NA,NA,NA,NA,NA,NA,0,0,0,1,1,NA,NA,NA,NA,NA,NA,NA,NA,NA,NA,NA,NA,NA,NA,NA,NA,NA,NA,NA,NA,NA,NA,NA,NA,NA,NA,NA,NA
SUPAMT79962,3UJ1CZ6IZNODFN0WO5LAH0UQ6ZRS57,E1844369-9C2B-4AB9-B6EA-916D69F3B58D,2023-09-28_21h24.35.535,WP_VExplicitOC_HL,2022.2.5,Win32,18.44542,-58.88888889,3.8683,2.0471,NA,NA,NA,NA,NA,bored,"bored, not bored","more bored, less bored",NA,NA,NA,NA,NA,NA,NA,NA,NA,NA,NA,NA,NA,NA,NA,0,1,1,2,1,NA,NA,NA,NA,NA,NA,NA,NA,NA,NA,NA,NA,NA,NA,NA,NA,NA,NA,NA,NA,NA,NA,NA,NA,NA,NA,NA,NA
SUPAMT79962,3UJ1CZ6IZNODFN0WO5LAH0UQ6ZRS57,E1844369-9C2B-4AB9-B6EA-916D69F3B58D,2023-09-28_21h24.35.535,WP_VExplicitOC_HL,2022.2.5,Win32,18.44542,28.51851852,3.9592,2.077,NA,NA,NA,NA,NA,happy,"unhappy, happy","less happy, more happy",NA,NA,NA,NA,NA,NA,NA,NA,NA,NA,NA,NA,NA,NA,NA,0,2,2,0,1,NA,NA,NA,NA,NA,NA,NA,NA,NA,NA,NA,NA,NA,NA,NA,NA,NA,NA,NA,NA,NA,NA,NA,NA,NA,NA,NA,NA
SUPAMT79962,3UJ1CZ6IZNODFN0WO5LAH0UQ6ZRS57,E1844369-9C2B-4AB9-B6EA-916D69F3B58D,2023-09-28_21h24.35.535,WP_VExplicitOC_HL,2022.2.5,Win32,18.44542,NA,NA,NA,NA,NA,NA,NA,NA,NA,NA,NA,NA,NA,NA,NA,NA,NA,NA,NA,NA,NA,NA,NA,NA,NA,NA,NA,NA,NA,NA,NA,6,0,6,0,1,NA,NA,NA,NA,NA,NA,NA,NA,NA,NA,NA,NA,NA,NA,NA,NA,NA,NA,NA,NA,NA,NA,NA
SUPAMT79962,3UJ1CZ6IZNODFN0WO5LAH0UQ6ZRS57,E1844369-9C2B-4AB9-B6EA-916D69F3B58D,2023-09-28_21h24.35.535,WP_VExplicitOC_HL,2022.2.5,Win32,18.44542,-80,4.4336,2.0697,NA,NA,NA,NA,NA,bored,"bored, not bored","more bored, less bored",NA,NA,NA,NA,NA,NA,NA,NA,NA,NA,NA,NA,NA,NA,NA,0,0,0,2,1,NA,NA,NA,NA,NA,NA,NA,NA,NA,NA,NA,NA,NA,NA,NA,NA,NA,NA,NA,NA,NA,NA,NA,NA,NA,NA,NA,NA
SUPAMT79962,3UJ1CZ6IZNODFN0WO5LAH0UQ6ZRS57,E1844369-9C2B-4AB9-B6EA-916D69F3B58D,2023-09-28_21h24.35.535,WP_VExplicitOC_HL,2022.2.5,Win32,18.44542,12.59259259,4.4362,2.0321,NA,NA,NA,NA,NA,frustrated,"frustrated, not frustrated","more frustrated, less frustrated",NA,NA,NA,NA,NA,NA,NA,NA,NA,NA,NA,NA,NA,NA,NA,0,1,1,1,1,NA,NA,NA,NA,NA,NA,NA,NA,NA,NA,NA,NA,NA,NA,NA,NA,NA,NA,NA,NA,NA,NA,NA,NA,NA,NA,NA,NA
SUPAMT79962,3UJ1CZ6IZNODFN0WO5LAH0UQ6ZRS57,E1844369-9C2B-4AB9-B6EA-916D69F3B58D,2023-09-28_21h24.35.535,WP_VExplicitOC_HL,2022.2.5,Win32,18.44542,23.51851852,3.3065,2.015,NA,NA,NA,NA,NA,happy,"unhappy, happy","less happy, more happy",NA,NA,NA,NA,NA,NA,NA,NA,NA,NA,NA,NA,NA,NA,NA,0,2,2,0,1,NA,NA,NA,NA,NA,NA,NA,NA,NA,NA,NA,NA,NA,NA,NA,NA,NA,NA,NA,NA,NA,NA,NA,NA,NA,NA,NA,NA
SUPAMT79962,3UJ1CZ6IZNODFN0WO5LAH0UQ6ZRS57,E1844369-9C2B-4AB9-B6EA-916D69F3B58D,2023-09-28_21h24.35.535,WP_VExplicitOC_HL,2022.2.5,Win32,18.44542,NA,NA,NA,NA,NA,NA,NA,NA,NA,NA,NA,NA,NA,NA,NA,NA,NA,NA,NA,NA,NA,NA,NA,NA,NA,NA,NA,NA,NA,NA,NA,7,0,7,0,1,NA,NA,NA,NA,NA,NA,NA,NA,NA,NA,NA,NA,NA,NA,NA,NA,NA,NA,NA,NA,NA,NA,NA
SUPAMT79962,3UJ1CZ6IZNODFN0WO5LAH0UQ6ZRS57,E1844369-9C2B-4AB9-B6EA-916D69F3B58D,2023-09-28_21h24.35.535,WP_VExplicitOC_HL,2022.2.5,Win32,18.44542,25.92592593,3.4489,2.079,NA,NA,NA,NA,NA,happy,"unhappy, happy","less happy, more happy",NA,NA,NA,NA,NA,NA,NA,NA,NA,NA,NA,NA,NA,NA,NA,0,0,0,0,1,NA,NA,NA,NA,NA,NA,NA,NA,NA,NA,NA,NA,NA,NA,NA,NA,NA,NA,NA,NA,NA,NA,NA,NA,NA,NA,NA,NA
SUPAMT79962,3UJ1CZ6IZNODFN0WO5LAH0UQ6ZRS57,E1844369-9C2B-4AB9-B6EA-916D69F3B58D,2023-09-28_21h24.35.535,WP_VExplicitOC_HL,2022.2.5,Win32,18.44542,-97.22222222,3.6007,2.0136,NA,NA,NA,NA,NA,bored,"bored, not bored","more bored, less bored",NA,NA,NA,NA,NA,NA,NA,NA,NA,NA,NA,NA,NA,NA,NA,0,1,1,2,1,NA,NA,NA,NA,NA,NA,NA,NA,NA,NA,NA,NA,NA,NA,NA,NA,NA,NA,NA,NA,NA,NA,NA,NA,NA,NA,NA,NA
SUPAMT79962,3UJ1CZ6IZNODFN0WO5LAH0UQ6ZRS57,E1844369-9C2B-4AB9-B6EA-916D69F3B58D,2023-09-28_21h24.35.535,WP_VExplicitOC_HL,2022.2.5,Win32,18.44542,26.85185185,3.2952,2.0752,NA,NA,NA,NA,NA,frustrated,"frustrated, not frustrated","more frustrated, less frustrated",NA,NA,NA,NA,NA,NA,NA,NA,NA,NA,NA,NA,NA,NA,NA,0,2,2,1,1,NA,NA,NA,NA,NA,NA,NA,NA,NA,NA,NA,NA,NA,NA,NA,NA,NA,NA,NA,NA,NA,NA,NA,NA,NA,NA,NA,NA
SUPAMT79962,3UJ1CZ6IZNODFN0WO5LAH0UQ6ZRS57,E1844369-9C2B-4AB9-B6EA-916D69F3B58D,2023-09-28_21h24.35.535,WP_VExplicitOC_HL,2022.2.5,Win32,18.44542,NA,NA,NA,NA,NA,NA,NA,NA,NA,NA,NA,NA,NA,NA,NA,NA,NA,NA,NA,NA,NA,NA,NA,NA,NA,NA,NA,NA,NA,NA,NA,8,0,8,0,1,NA,NA,NA,NA,NA,NA,NA,NA,NA,NA,NA,NA,NA,NA,NA,NA,NA,NA,NA,NA,NA,NA,NA
SUPAMT79962,3UJ1CZ6IZNODFN0WO5LAH0UQ6ZRS57,E1844369-9C2B-4AB9-B6EA-916D69F3B58D,2023-09-28_21h24.35.535,WP_VExplicitOC_HL,2022.2.5,Win32,18.44542,20,4.8086,2.0751,NA,NA,NA,NA,NA,happy,"unhappy, happy","less happy, more happy",NA,NA,NA,NA,NA,NA,NA,NA,NA,NA,NA,NA,NA,NA,NA,0,0,0,0,1,NA,NA,NA,NA,NA,NA,NA,NA,NA,NA,NA,NA,NA,NA,NA,NA,NA,NA,NA,NA,NA,NA,NA,NA,NA,NA,NA,NA
SUPAMT79962,3UJ1CZ6IZNODFN0WO5LAH0UQ6ZRS57,E1844369-9C2B-4AB9-B6EA-916D69F3B58D,2023-09-28_21h24.35.535,WP_VExplicitOC_HL,2022.2.5,Win32,18.44542,9.074074074,4.5508,2.0745,NA,NA,NA,NA,NA,frustrated,"frustrated, not frustrated","more frustrated, less frustrated",NA,NA,NA,NA,NA,NA,NA,NA,NA,NA,NA,NA,NA,NA,NA,0,1,1,1,1,NA,NA,NA,NA,NA,NA,NA,NA,NA,NA,NA,NA,NA,NA,NA,NA,NA,NA,NA,NA,NA,NA,NA,NA,NA,NA,NA,NA
SUPAMT79962,3UJ1CZ6IZNODFN0WO5LAH0UQ6ZRS57,E1844369-9C2B-4AB9-B6EA-916D69F3B58D,2023-09-28_21h24.35.535,WP_VExplicitOC_HL,2022.2.5,Win32,18.44542,-98.14814815,3.8904,2.0647,NA,NA,NA,NA,NA,bored,"bored, not bored","more bored, less bored",NA,NA,NA,NA,NA,NA,NA,NA,NA,NA,NA,NA,NA,NA,NA,0,2,2,2,1,NA,NA,NA,NA,NA,NA,NA,NA,NA,NA,NA,NA,NA,NA,NA,NA,NA,NA,NA,NA,NA,NA,NA,NA,NA,NA,NA,NA
SUPAMT79962,3UJ1CZ6IZNODFN0WO5LAH0UQ6ZRS57,E1844369-9C2B-4AB9-B6EA-916D69F3B58D,2023-09-28_21h24.35.535,WP_VExplicitOC_HL,2022.2.5,Win32,18.44542,NA,NA,NA,NA,NA,NA,NA,NA,NA,NA,NA,NA,NA,NA,NA,NA,NA,NA,NA,NA,NA,NA,NA,NA,NA,NA,NA,NA,NA,NA,NA,9,0,9,0,1,NA,NA,NA,NA,NA,NA,NA,NA,NA,NA,NA,NA,NA,NA,NA,NA,NA,NA,NA,NA,NA,NA,NA
SUPAMT79962,3UJ1CZ6IZNODFN0WO5LAH0UQ6ZRS57,E1844369-9C2B-4AB9-B6EA-916D69F3B58D,2023-09-28_21h24.35.535,WP_VExplicitOC_HL,2022.2.5,Win32,18.44542,22.96296296,5.1321,2.0212,NA,NA,NA,NA,NA,happy,"unhappy, happy","less happy, more happy",NA,NA,NA,NA,NA,NA,NA,NA,NA,NA,NA,NA,NA,NA,NA,0,0,0,0,1,NA,NA,NA,NA,NA,NA,NA,NA,NA,NA,NA,NA,NA,NA,NA,NA,NA,NA,NA,NA,NA,NA,NA,NA,NA,NA,NA,NA
SUPAMT79962,3UJ1CZ6IZNODFN0WO5LAH0UQ6ZRS57,E1844369-9C2B-4AB9-B6EA-916D69F3B58D,2023-09-28_21h24.35.535,WP_VExplicitOC_HL,2022.2.5,Win32,18.44542,-100,3.2933,2.0648,NA,NA,NA,NA,NA,bored,"bored, not bored","more bored, less bored",NA,NA,NA,NA,NA,NA,NA,NA,NA,NA,NA,NA,NA,NA,NA,0,1,1,2,1,NA,NA,NA,NA,NA,NA,NA,NA,NA,NA,NA,NA,NA,NA,NA,NA,NA,NA,NA,NA,NA,NA,NA,NA,NA,NA,NA,NA
SUPAMT79962,3UJ1CZ6IZNODFN0WO5LAH0UQ6ZRS57,E1844369-9C2B-4AB9-B6EA-916D69F3B58D,2023-09-28_21h24.35.535,WP_VExplicitOC_HL,2022.2.5,Win32,18.44542,35.37037037,3.9999,2.0493,NA,NA,NA,NA,NA,frustrated,"frustrated, not frustrated","more frustrated, less frustrated",NA,NA,NA,NA,NA,NA,NA,NA,NA,NA,NA,NA,NA,NA,NA,0,2,2,1,1,NA,NA,NA,NA,NA,NA,NA,NA,NA,NA,NA,NA,NA,NA,NA,NA,NA,NA,NA,NA,NA,NA,NA,NA,NA,NA,NA,NA
SUPAMT79962,3UJ1CZ6IZNODFN0WO5LAH0UQ6ZRS57,E1844369-9C2B-4AB9-B6EA-916D69F3B58D,2023-09-28_21h24.35.535,WP_VExplicitOC_HL,2022.2.5,Win32,18.44542,NA,NA,NA,NA,NA,NA,NA,NA,NA,NA,NA,NA,NA,NA,NA,NA,NA,NA,NA,NA,NA,NA,NA,NA,NA,NA,NA,NA,NA,NA,NA,10,0,10,0,1,NA,NA,NA,NA,NA,NA,NA,NA,NA,NA,NA,NA,NA,NA,NA,NA,NA,NA,NA,NA,NA,NA,NA
SUPAMT79962,3UJ1CZ6IZNODFN0WO5LAH0UQ6ZRS57,E1844369-9C2B-4AB9-B6EA-916D69F3B58D,2023-09-28_21h24.35.535,WP_VExplicitOC_HL,2022.2.5,Win32,18.44542,22.03703704,5.2236,2.0285,NA,NA,NA,NA,NA,frustrated,"frustrated, not frustrated","more frustrated, less frustrated",NA,NA,NA,NA,NA,NA,NA,NA,NA,NA,NA,NA,NA,NA,NA,0,0,0,1,1,NA,NA,NA,NA,NA,NA,NA,NA,NA,NA,NA,NA,NA,NA,NA,NA,NA,NA,NA,NA,NA,NA,NA,NA,NA,NA,NA,NA
SUPAMT79962,3UJ1CZ6IZNODFN0WO5LAH0UQ6ZRS57,E1844369-9C2B-4AB9-B6EA-916D69F3B58D,2023-09-28_21h24.35.535,WP_VExplicitOC_HL,2022.2.5,Win32,18.44542,-100,3.2523,2.0323,NA,NA,NA,NA,NA,bored,"bored, not bored","more bored, less bored",NA,NA,NA,NA,NA,NA,NA,NA,NA,NA,NA,NA,NA,NA,NA,0,1,1,2,1,NA,NA,NA,NA,NA,NA,NA,NA,NA,NA,NA,NA,NA,NA,NA,NA,NA,NA,NA,NA,NA,NA,NA,NA,NA,NA,NA,NA
SUPAMT79962,3UJ1CZ6IZNODFN0WO5LAH0UQ6ZRS57,E1844369-9C2B-4AB9-B6EA-916D69F3B58D,2023-09-28_21h24.35.535,WP_VExplicitOC_HL,2022.2.5,Win32,18.44542,23.14814815,3.619,2.072,NA,NA,NA,NA,NA,happy,"unhappy, happy","less happy, more happy",NA,NA,NA,NA,NA,NA,NA,NA,NA,NA,NA,NA,NA,NA,NA,0,2,2,0,1,NA,NA,NA,NA,NA,NA,NA,NA,NA,NA,NA,NA,NA,NA,NA,NA,NA,NA,NA,NA,NA,NA,NA,NA,NA,NA,NA,NA
SUPAMT79962,3UJ1CZ6IZNODFN0WO5LAH0UQ6ZRS57,E1844369-9C2B-4AB9-B6EA-916D69F3B58D,2023-09-28_21h24.35.535,WP_VExplicitOC_HL,2022.2.5,Win32,18.44542,NA,NA,NA,NA,NA,NA,NA,NA,NA,NA,NA,NA,NA,NA,NA,NA,NA,NA,NA,NA,NA,NA,NA,NA,NA,NA,NA,NA,NA,NA,NA,11,0,11,0,1,NA,NA,NA,NA,NA,NA,NA,NA,NA,NA,NA,NA,NA,NA,NA,NA,NA,NA,NA,NA,NA,NA,NA
SUPAMT79962,3UJ1CZ6IZNODFN0WO5LAH0UQ6ZRS57,E1844369-9C2B-4AB9-B6EA-916D69F3B58D,2023-09-28_21h24.35.535,WP_VExplicitOC_HL,2022.2.5,Win32,18.44542,-88.33333333,3.6846,2.0211,NA,NA,NA,NA,NA,bored,"bored, not bored","more bored, less bored",NA,NA,NA,NA,NA,NA,NA,NA,NA,NA,NA,NA,NA,NA,NA,0,0,0,2,1,NA,NA,NA,NA,NA,NA,NA,NA,NA,NA,NA,NA,NA,NA,NA,NA,NA,NA,NA,NA,NA,NA,NA,NA,NA,NA,NA,NA
SUPAMT79962,3UJ1CZ6IZNODFN0WO5LAH0UQ6ZRS57,E1844369-9C2B-4AB9-B6EA-916D69F3B58D,2023-09-28_21h24.35.535,WP_VExplicitOC_HL,2022.2.5,Win32,18.44542,52.03703704,3.5267,2.0641,NA,NA,NA,NA,NA,frustrated,"frustrated, not frustrated","more frustrated, less frustrated",NA,NA,NA,NA,NA,NA,NA,NA,NA,NA,NA,NA,NA,NA,NA,0,1,1,1,1,NA,NA,NA,NA,NA,NA,NA,NA,NA,NA,NA,NA,NA,NA,NA,NA,NA,NA,NA,NA,NA,NA,NA,NA,NA,NA,NA,NA
SUPAMT79962,3UJ1CZ6IZNODFN0WO5LAH0UQ6ZRS57,E1844369-9C2B-4AB9-B6EA-916D69F3B58D,2023-09-28_21h24.35.535,WP_VExplicitOC_HL,2022.2.5,Win32,18.44542,33.88888889,4.0674,2.0014,NA,NA,NA,NA,NA,happy,"unhappy, happy","less happy, more happy",NA,NA,NA,NA,NA,NA,NA,NA,NA,NA,NA,NA,NA,NA,NA,0,2,2,0,1,NA,NA,NA,NA,NA,NA,NA,NA,NA,NA,NA,NA,NA,NA,NA,NA,NA,NA,NA,NA,NA,NA,NA,NA,NA,NA,NA,NA
SUPAMT79962,3UJ1CZ6IZNODFN0WO5LAH0UQ6ZRS57,E1844369-9C2B-4AB9-B6EA-916D69F3B58D,2023-09-28_21h24.35.535,WP_VExplicitOC_HL,2022.2.5,Win32,18.44542,NA,NA,NA,NA,NA,NA,NA,NA,NA,NA,NA,NA,NA,NA,NA,NA,NA,NA,NA,NA,NA,NA,NA,NA,NA,NA,NA,NA,NA,NA,NA,12,0,12,0,1,NA,NA,NA,NA,NA,NA,NA,NA,NA,NA,NA,NA,NA,NA,NA,NA,NA,NA,NA,NA,NA,NA,NA
SUPAMT79962,3UJ1CZ6IZNODFN0WO5LAH0UQ6ZRS57,E1844369-9C2B-4AB9-B6EA-916D69F3B58D,2023-09-28_21h24.35.535,WP_VExplicitOC_HL,2022.2.5,Win32,18.44542,-96.66666667,4.1776,2.0779,NA,NA,NA,NA,NA,bored,"bored, not bored","more bored, less bored",NA,NA,NA,NA,NA,NA,NA,NA,NA,NA,NA,NA,NA,NA,NA,0,0,0,2,1,NA,NA,NA,NA,NA,NA,NA,NA,NA,NA,NA,NA,NA,NA,NA,NA,NA,NA,NA,NA,NA,NA,NA,NA,NA,NA,NA,NA
SUPAMT79962,3UJ1CZ6IZNODFN0WO5LAH0UQ6ZRS57,E1844369-9C2B-4AB9-B6EA-916D69F3B58D,2023-09-28_21h24.35.535,WP_VExplicitOC_HL,2022.2.5,Win32,18.44542,39.62962963,3.7419,2.0155,NA,NA,NA,NA,NA,frustrated,"frustrated, not frustrated","more frustrated, less frustrated",NA,NA,NA,NA,NA,NA,NA,NA,NA,NA,NA,NA,NA,NA,NA,0,1,1,1,1,NA,NA,NA,NA,NA,NA,NA,NA,NA,NA,NA,NA,NA,NA,NA,NA,NA,NA,NA,NA,NA,NA,NA,NA,NA,NA,NA,NA
SUPAMT79962,3UJ1CZ6IZNODFN0WO5LAH0UQ6ZRS57,E1844369-9C2B-4AB9-B6EA-916D69F3B58D,2023-09-28_21h24.35.535,WP_VExplicitOC_HL,2022.2.5,Win32,18.44542,9.074074074,3.2676,2.0396,NA,NA,NA,NA,NA,happy,"unhappy, happy","less happy, more happy",NA,NA,NA,NA,NA,NA,NA,NA,NA,NA,NA,NA,NA,NA,NA,0,2,2,0,1,NA,NA,NA,NA,NA,NA,NA,NA,NA,NA,NA,NA,NA,NA,NA,NA,NA,NA,NA,NA,NA,NA,NA,NA,NA,NA,NA,NA
SUPAMT79962,3UJ1CZ6IZNODFN0WO5LAH0UQ6ZRS57,E1844369-9C2B-4AB9-B6EA-916D69F3B58D,2023-09-28_21h24.35.535,WP_VExplicitOC_HL,2022.2.5,Win32,18.44542,NA,NA,NA,NA,NA,NA,NA,NA,NA,NA,NA,NA,NA,NA,NA,NA,NA,NA,NA,NA,NA,NA,NA,NA,NA,NA,NA,NA,NA,NA,NA,13,0,13,0,1,NA,NA,NA,NA,NA,NA,NA,NA,NA,NA,NA,NA,NA,NA,NA,NA,NA,NA,NA,NA,NA,NA,NA
SUPAMT79962,3UJ1CZ6IZNODFN0WO5LAH0UQ6ZRS57,E1844369-9C2B-4AB9-B6EA-916D69F3B58D,2023-09-28_21h24.35.535,WP_VExplicitOC_HL,2022.2.5,Win32,18.44542,47.03703704,3.3029,2.0585,NA,NA,NA,NA,NA,frustrated,"frustrated, not frustrated","more frustrated, less frustrated",NA,NA,NA,NA,NA,NA,NA,NA,NA,NA,NA,NA,NA,NA,NA,0,0,0,1,1,NA,NA,NA,NA,NA,NA,NA,NA,NA,NA,NA,NA,NA,NA,NA,NA,NA,NA,NA,NA,NA,NA,NA,NA,NA,NA,NA,NA
SUPAMT79962,3UJ1CZ6IZNODFN0WO5LAH0UQ6ZRS57,E1844369-9C2B-4AB9-B6EA-916D69F3B58D,2023-09-28_21h24.35.535,WP_VExplicitOC_HL,2022.2.5,Win32,18.44542,1.481481481,3.842,2.0608,NA,NA,NA,NA,NA,happy,"unhappy, happy","less happy, more happy",NA,NA,NA,NA,NA,NA,NA,NA,NA,NA,NA,NA,NA,NA,NA,0,1,1,0,1,NA,NA,NA,NA,NA,NA,NA,NA,NA,NA,NA,NA,NA,NA,NA,NA,NA,NA,NA,NA,NA,NA,NA,NA,NA,NA,NA,NA
SUPAMT79962,3UJ1CZ6IZNODFN0WO5LAH0UQ6ZRS57,E1844369-9C2B-4AB9-B6EA-916D69F3B58D,2023-09-28_21h24.35.535,WP_VExplicitOC_HL,2022.2.5,Win32,18.44542,-100,2.9767,2.0213,NA,NA,NA,NA,NA,bored,"bored, not bored","more bored, less bored",NA,NA,NA,NA,NA,NA,NA,NA,NA,NA,NA,NA,NA,NA,NA,0,2,2,2,1,NA,NA,NA,NA,NA,NA,NA,NA,NA,NA,NA,NA,NA,NA,NA,NA,NA,NA,NA,NA,NA,NA,NA,NA,NA,NA,NA,NA
SUPAMT79962,3UJ1CZ6IZNODFN0WO5LAH0UQ6ZRS57,E1844369-9C2B-4AB9-B6EA-916D69F3B58D,2023-09-28_21h24.35.535,WP_VExplicitOC_HL,2022.2.5,Win32,18.44542,NA,NA,NA,NA,NA,NA,NA,NA,NA,NA,NA,NA,NA,NA,NA,NA,NA,NA,NA,NA,NA,NA,NA,NA,NA,NA,NA,NA,NA,NA,NA,14,0,14,0,1,NA,NA,NA,NA,NA,NA,NA,NA,NA,NA,NA,NA,NA,NA,NA,NA,NA,NA,NA,NA,NA,NA,NA
SUPAMT79962,3UJ1CZ6IZNODFN0WO5LAH0UQ6ZRS57,E1844369-9C2B-4AB9-B6EA-916D69F3B58D,2023-09-28_21h24.35.535,WP_VExplicitOC_HL,2022.2.5,Win32,18.44542,NA,NA,NA,NA,NA,NA,NA,NA,NA,NA,NA,NA,NA,NA,NA,NA,NA,NA,NA,NA,NA,NA,NA,NA,NA,NA,NA,NA,NA,NA,NA,NA,NA,NA,NA,NA,NA,NA,NA,NA,NA,NA,NA,NA,NA,NA,NA,NA,NA,NA,NA,NA,NA,NA,NA,NA,NA,NA,NA
SUPAMT79962,3UJ1CZ6IZNODFN0WO5LAH0UQ6ZRS57,E1844369-9C2B-4AB9-B6EA-916D69F3B58D,2023-09-28_21h24.35.535,WP_VExplicitOC_HL,2022.2.5,Win32,18.44542,NA,NA,NA,NA,NA,NA,NA,NA,NA,NA,NA,NA,NA,NA,NA,NA,NA,NA,NA,NA,NA,NA,NA,NA,NA,NA,NA,NA,NA,NA,NA,NA,NA,NA,NA,NA,NA,NA,NA,NA,NA,NA,NA,NA,NA,NA,NA,NA,NA,NA,NA,NA,NA,NA,NA,NA,NA,NA,NA
SUPAMT79962,3UJ1CZ6IZNODFN0WO5LAH0UQ6ZRS57,E1844369-9C2B-4AB9-B6EA-916D69F3B58D,2023-09-28_21h24.35.535,WP_VExplicitOC_HL,2022.2.5,Win32,18.44542,NA,NA,NA,NA,NA,NA,NA,NA,NA,NA,NA,NA,NA,NA,NA,NA,NA,NA,rest (looking at a fixed cross),001.png,NA,NA,NA,NA,NA,NA,NA,NA,NA,NA,NA,NA,NA,NA,NA,NA,-30.92592593,7.1795,0,0,0,0,1,NA,NA,NA,NA,NA,NA,NA,NA,NA,NA,NA,NA,NA,NA,NA,NA
SUPAMT79962,3UJ1CZ6IZNODFN0WO5LAH0UQ6ZRS57,E1844369-9C2B-4AB9-B6EA-916D69F3B58D,2023-09-28_21h24.35.535,WP_VExplicitOC_HL,2022.2.5,Win32,18.44542,NA,NA,NA,NA,NA,NA,NA,NA,NA,NA,NA,NA,NA,NA,NA,NA,NA,NA,stand up,002.png,NA,NA,NA,NA,NA,NA,NA,NA,NA,NA,NA,NA,NA,NA,NA,NA,14.44444444,3.988,0,1,1,1,1,NA,NA,NA,NA,NA,NA,NA,NA,NA,NA,NA,NA,NA,NA,NA,NA
SUPAMT79962,3UJ1CZ6IZNODFN0WO5LAH0UQ6ZRS57,E1844369-9C2B-4AB9-B6EA-916D69F3B58D,2023-09-28_21h24.35.535,WP_VExplicitOC_HL,2022.2.5,Win32,18.44542,NA,NA,NA,NA,NA,NA,NA,NA,NA,NA,NA,NA,NA,NA,NA,NA,NA,NA,stretch,003.png,NA,NA,NA,NA,NA,NA,NA,NA,NA,NA,NA,NA,NA,NA,NA,NA,45.18518519,2.4734,0,2,2,2,1,NA,NA,NA,NA,NA,NA,NA,NA,NA,NA,NA,NA,NA,NA,NA,NA
SUPAMT79962,3UJ1CZ6IZNODFN0WO5LAH0UQ6ZRS57,E1844369-9C2B-4AB9-B6EA-916D69F3B58D,2023-09-28_21h24.35.535,WP_VExplicitOC_HL,2022.2.5,Win32,18.44542,NA,NA,NA,NA,NA,NA,NA,NA,NA,NA,NA,NA,NA,NA,NA,NA,NA,NA,make a drink,004.png,NA,NA,NA,NA,NA,NA,NA,NA,NA,NA,NA,NA,NA,NA,NA,NA,100,1.9557,0,3,3,3,1,NA,NA,NA,NA,NA,NA,NA,NA,NA,NA,NA,NA,NA,NA,NA,NA
SUPAMT79962,3UJ1CZ6IZNODFN0WO5LAH0UQ6ZRS57,E1844369-9C2B-4AB9-B6EA-916D69F3B58D,2023-09-28_21h24.35.535,WP_VExplicitOC_HL,2022.2.5,Win32,18.44542,NA,NA,NA,NA,NA,NA,NA,NA,NA,NA,NA,NA,NA,NA,NA,NA,NA,NA,scroll social media,005.png,NA,NA,NA,NA,NA,NA,NA,NA,NA,NA,NA,NA,NA,NA,NA,NA,90.55555556,2.6273,0,4,4,4,1,NA,NA,NA,NA,NA,NA,NA,NA,NA,NA,NA,NA,NA,NA,NA,NA
SUPAMT79962,3UJ1CZ6IZNODFN0WO5LAH0UQ6ZRS57,E1844369-9C2B-4AB9-B6EA-916D69F3B58D,2023-09-28_21h24.35.535,WP_VExplicitOC_HL,2022.2.5,Win32,18.44542,NA,NA,NA,NA,NA,NA,NA,NA,NA,NA,NA,NA,NA,NA,NA,NA,NA,NA,listen to music,006.png,NA,NA,NA,NA,NA,NA,NA,NA,NA,NA,NA,NA,NA,NA,NA,NA,100,2.3124,0,5,5,5,1,NA,NA,NA,NA,NA,NA,NA,NA,NA,NA,NA,NA,NA,NA,NA,NA
SUPAMT79962,3UJ1CZ6IZNODFN0WO5LAH0UQ6ZRS57,E1844369-9C2B-4AB9-B6EA-916D69F3B58D,2023-09-28_21h24.35.535,WP_VExplicitOC_HL,2022.2.5,Win32,18.44542,NA,NA,NA,NA,NA,NA,NA,NA,NA,NA,NA,NA,NA,NA,NA,NA,NA,NA,daydream,007.png,NA,NA,NA,NA,NA,NA,NA,NA,NA,NA,NA,NA,NA,NA,NA,NA,-21.11111111,4.9969,0,6,6,6,1,NA,NA,NA,NA,NA,NA,NA,NA,NA,NA,NA,NA,NA,NA,NA,NA
SUPAMT79962,3UJ1CZ6IZNODFN0WO5LAH0UQ6ZRS57,E1844369-9C2B-4AB9-B6EA-916D69F3B58D,2023-09-28_21h24.35.535,WP_VExplicitOC_HL,2022.2.5,Win32,18.44542,NA,NA,NA,NA,NA,NA,NA,NA,NA,NA,NA,NA,NA,NA,NA,NA,NA,NA,watch a short animation,008.png,NA,NA,NA,NA,NA,NA,NA,NA,NA,NA,NA,NA,NA,NA,NA,NA,37.03703704,2.229,0,7,7,7,1,NA,NA,NA,NA,NA,NA,NA,NA,NA,NA,NA,NA,NA,NA,NA,NA
SUPAMT79962,3UJ1CZ6IZNODFN0WO5LAH0UQ6ZRS57,E1844369-9C2B-4AB9-B6EA-916D69F3B58D,2023-09-28_21h24.35.535,WP_VExplicitOC_HL,2022.2.5,Win32,18.44542,NA,NA,NA,NA,NA,NA,NA,NA,NA,NA,NA,NA,NA,NA,NA,NA,NA,NA,read a novel,009.png,NA,NA,NA,NA,NA,NA,NA,NA,NA,NA,NA,NA,NA,NA,NA,NA,-80,1.9139,0,8,8,8,1,NA,NA,NA,NA,NA,NA,NA,NA,NA,NA,NA,NA,NA,NA,NA,NA
SUPAMT79962,3UJ1CZ6IZNODFN0WO5LAH0UQ6ZRS57,E1844369-9C2B-4AB9-B6EA-916D69F3B58D,2023-09-28_21h24.35.535,WP_VExplicitOC_HL,2022.2.5,Win32,18.44542,NA,NA,NA,NA,NA,NA,NA,NA,NA,NA,NA,NA,NA,NA,NA,NA,NA,NA,read the news,010.png,NA,NA,NA,NA,NA,NA,NA,NA,NA,NA,NA,NA,NA,NA,NA,NA,32.03703704,1.8673,0,9,9,9,1,NA,NA,NA,NA,NA,NA,NA,NA,NA,NA,NA,NA,NA,NA,NA,NA
SUPAMT79962,3UJ1CZ6IZNODFN0WO5LAH0UQ6ZRS57,E1844369-9C2B-4AB9-B6EA-916D69F3B58D,2023-09-28_21h24.35.535,WP_VExplicitOC_HL,2022.2.5,Win32,18.44542,NA,NA,NA,NA,NA,NA,NA,NA,NA,NA,NA,NA,NA,NA,NA,NA,NA,NA,NA,NA,NA,NA,NA,NA,NA,NA,NA,NA,NA,NA,NA,NA,NA,NA,NA,NA,NA,NA,NA,NA,NA,NA,NA,read a novel,NA,NA,NA,NA,NA,NA,NA,NA,NA,NA,NA,NA,NA,NA,NA
SUPAMT79962,3UJ1CZ6IZNODFN0WO5LAH0UQ6ZRS57,E1844369-9C2B-4AB9-B6EA-916D69F3B58D,2023-09-28_21h24.35.535,WP_VExplicitOC_HL,2022.2.5,Win32,18.44542,-15.74074074,4.2186,2.0833,NA,NA,NA,NA,NA,bored,"bored, not bored","more bored, less bored",NA,NA,NA,NA,NA,NA,NA,NA,NA,NA,NA,NA,NA,NA,NA,NA,NA,NA,NA,NA,NA,NA,NA,NA,NA,NA,NA,NA,NA,NA,NA,NA,NA,0,0,0,2,1,NA,NA,NA,NA,NA,NA,NA,NA,NA,NA
SUPAMT79962,3UJ1CZ6IZNODFN0WO5LAH0UQ6ZRS57,E1844369-9C2B-4AB9-B6EA-916D69F3B58D,2023-09-28_21h24.35.535,WP_VExplicitOC_HL,2022.2.5,Win32,18.44542,82.96296296,3.7595,2.0044,NA,NA,NA,NA,NA,frustrated,"frustrated, not frustrated","more frustrated, less frustrated",NA,NA,NA,NA,NA,NA,NA,NA,NA,NA,NA,NA,NA,NA,NA,NA,NA,NA,NA,NA,NA,NA,NA,NA,NA,NA,NA,NA,NA,NA,NA,NA,NA,0,1,1,1,1,NA,NA,NA,NA,NA,NA,NA,NA,NA,NA
SUPAMT79962,3UJ1CZ6IZNODFN0WO5LAH0UQ6ZRS57,E1844369-9C2B-4AB9-B6EA-916D69F3B58D,2023-09-28_21h24.35.535,WP_VExplicitOC_HL,2022.2.5,Win32,18.44542,53.51851852,3.4025,2.0242,NA,NA,NA,NA,NA,happy,"unhappy, happy","less happy, more happy",NA,NA,NA,NA,NA,NA,NA,NA,NA,NA,NA,NA,NA,NA,NA,NA,NA,NA,NA,NA,NA,NA,NA,NA,NA,NA,NA,NA,NA,NA,NA,NA,NA,0,2,2,0,1,NA,NA,NA,NA,NA,NA,NA,NA,NA,NA
SUPAMT79962,3UJ1CZ6IZNODFN0WO5LAH0UQ6ZRS57,E1844369-9C2B-4AB9-B6EA-916D69F3B58D,2023-09-28_21h24.35.535,WP_VExplicitOC_HL,2022.2.5,Win32,18.44542,NA,NA,NA,NA,NA,NA,NA,NA,NA,NA,NA,NA,NA,NA,NA,NA,NA,NA,NA,NA,NA,NA,NA,NA,NA,NA,NA,NA,NA,NA,NA,NA,NA,NA,NA,NA,NA,NA,NA,NA,NA,NA,NA,NA,NA,NA,NA,NA,NA,NA,NA,NA,NA,NA,NA,NA,NA,NA,NA
SUPAMT79962,3UJ1CZ6IZNODFN0WO5LAH0UQ6ZRS57,E1844369-9C2B-4AB9-B6EA-916D69F3B58D,2023-09-28_21h24.35.535,WP_VExplicitOC_HL,2022.2.5,Win32,18.44542,NA,NA,NA,NA,NA,NA,NA,NA,NA,NA,NA,NA,NA,NA,NA,NA,NA,NA,NA,NA,NA,NA,NA,NA,NA,NA,NA,NA,NA,NA,NA,NA,NA,NA,NA,NA,NA,NA,NA,NA,NA,NA,NA,NA,NA,NA,NA,NA,NA,NA,NA,NA,NA,NA,NA,NA,NA,NA,NA
SUPAMT79962,3UJ1CZ6IZNODFN0WO5LAH0UQ6ZRS57,E1844369-9C2B-4AB9-B6EA-916D69F3B58D,2023-09-28_21h24.35.535,WP_VExplicitOC_HL,2022.2.5,Win32,18.44542,30.18518519,3.7908,2.0734,NA,NA,NA,NA,NA,happy,"unhappy, happy","less happy, more happy",NA,NA,NA,NA,NA,NA,NA,NA,NA,NA,NA,NA,NA,NA,NA,NA,NA,NA,NA,NA,NA,NA,NA,NA,NA,NA,NA,NA,NA,NA,NA,NA,NA,NA,NA,NA,NA,NA,0,0,0,0,1,NA,NA,NA,NA,NA
SUPAMT79962,3UJ1CZ6IZNODFN0WO5LAH0UQ6ZRS57,E1844369-9C2B-4AB9-B6EA-916D69F3B58D,2023-09-28_21h24.35.535,WP_VExplicitOC_HL,2022.2.5,Win32,18.44542,61.2962963,4.1041,2.0597,NA,NA,NA,NA,NA,frustrated,"frustrated, not frustrated","more frustrated, less frustrated",NA,NA,NA,NA,NA,NA,NA,NA,NA,NA,NA,NA,NA,NA,NA,NA,NA,NA,NA,NA,NA,NA,NA,NA,NA,NA,NA,NA,NA,NA,NA,NA,NA,NA,NA,NA,NA,NA,0,1,1,1,1,NA,NA,NA,NA,NA
SUPAMT79962,3UJ1CZ6IZNODFN0WO5LAH0UQ6ZRS57,E1844369-9C2B-4AB9-B6EA-916D69F3B58D,2023-09-28_21h24.35.535,WP_VExplicitOC_HL,2022.2.5,Win32,18.44542,-36.48148148,3.61,2.0828,NA,NA,NA,NA,NA,bored,"bored, not bored","more bored, less bored",NA,NA,NA,NA,NA,NA,NA,NA,NA,NA,NA,NA,NA,NA,NA,NA,NA,NA,NA,NA,NA,NA,NA,NA,NA,NA,NA,NA,NA,NA,NA,NA,NA,NA,NA,NA,NA,NA,0,2,2,2,1,NA,NA,NA,NA,NA
SUPAMT79962,3UJ1CZ6IZNODFN0WO5LAH0UQ6ZRS57,E1844369-9C2B-4AB9-B6EA-916D69F3B58D,2023-09-28_21h24.35.535,WP_VExplicitOC_HL,2022.2.5,Win32,18.44542,NA,NA,NA,NA,NA,NA,NA,NA,NA,NA,NA,NA,NA,NA,NA,NA,NA,NA,NA,NA,NA,NA,NA,NA,NA,NA,NA,NA,NA,NA,NA,NA,NA,NA,NA,NA,NA,NA,NA,NA,NA,NA,NA,NA,NA,NA,NA,NA,NA,NA,NA,NA,NA,NA,0,0,0,0,1
SUPAMT79962,3UJ1CZ6IZNODFN0WO5LAH0UQ6ZRS57,E1844369-9C2B-4AB9-B6EA-916D69F3B58D,2023-09-28_21h24.35.535,WP_VExplicitOC_HL,2022.2.5,Win32,18.44542,18.51851852,3.5427,2.0431,NA,NA,NA,NA,NA,happy,"unhappy, happy","less happy, more happy",NA,NA,NA,NA,NA,NA,NA,NA,NA,NA,NA,NA,NA,NA,NA,NA,NA,NA,NA,NA,NA,NA,NA,NA,NA,NA,NA,NA,NA,NA,NA,NA,NA,NA,NA,NA,NA,NA,0,0,0,0,1,NA,NA,NA,NA,NA
SUPAMT79962,3UJ1CZ6IZNODFN0WO5LAH0UQ6ZRS57,E1844369-9C2B-4AB9-B6EA-916D69F3B58D,2023-09-28_21h24.35.535,WP_VExplicitOC_HL,2022.2.5,Win32,18.44542,-67.22222222,3.775,2.0921,NA,NA,NA,NA,NA,bored,"bored, not bored","more bored, less bored",NA,NA,NA,NA,NA,NA,NA,NA,NA,NA,NA,NA,NA,NA,NA,NA,NA,NA,NA,NA,NA,NA,NA,NA,NA,NA,NA,NA,NA,NA,NA,NA,NA,NA,NA,NA,NA,NA,0,1,1,2,1,NA,NA,NA,NA,NA
SUPAMT79962,3UJ1CZ6IZNODFN0WO5LAH0UQ6ZRS57,E1844369-9C2B-4AB9-B6EA-916D69F3B58D,2023-09-28_21h24.35.535,WP_VExplicitOC_HL,2022.2.5,Win32,18.44542,60.37037037,4.3857,2.0615,NA,NA,NA,NA,NA,frustrated,"frustrated, not frustrated","more frustrated, less frustrated",NA,NA,NA,NA,NA,NA,NA,NA,NA,NA,NA,NA,NA,NA,NA,NA,NA,NA,NA,NA,NA,NA,NA,NA,NA,NA,NA,NA,NA,NA,NA,NA,NA,NA,NA,NA,NA,NA,0,2,2,1,1,NA,NA,NA,NA,NA
SUPAMT79962,3UJ1CZ6IZNODFN0WO5LAH0UQ6ZRS57,E1844369-9C2B-4AB9-B6EA-916D69F3B58D,2023-09-28_21h24.35.535,WP_VExplicitOC_HL,2022.2.5,Win32,18.44542,NA,NA,NA,NA,NA,NA,NA,NA,NA,NA,NA,NA,NA,NA,NA,NA,NA,NA,NA,NA,NA,NA,NA,NA,NA,NA,NA,NA,NA,NA,NA,NA,NA,NA,NA,NA,NA,NA,NA,NA,NA,NA,NA,NA,NA,NA,NA,NA,NA,NA,NA,NA,NA,NA,1,0,1,0,1
SUPAMT79962,3UJ1CZ6IZNODFN0WO5LAH0UQ6ZRS57,E1844369-9C2B-4AB9-B6EA-916D69F3B58D,2023-09-28_21h24.35.535,WP_VExplicitOC_HL,2022.2.5,Win32,18.44542,28.51851852,3.4762,2.0707,NA,NA,NA,NA,NA,happy,"unhappy, happy","less happy, more happy",NA,NA,NA,NA,NA,NA,NA,NA,NA,NA,NA,NA,NA,NA,NA,NA,NA,NA,NA,NA,NA,NA,NA,NA,NA,NA,NA,NA,NA,NA,NA,NA,NA,NA,NA,NA,NA,NA,0,0,0,0,1,NA,NA,NA,NA,NA
SUPAMT79962,3UJ1CZ6IZNODFN0WO5LAH0UQ6ZRS57,E1844369-9C2B-4AB9-B6EA-916D69F3B58D,2023-09-28_21h24.35.535,WP_VExplicitOC_HL,2022.2.5,Win32,18.44542,-100,3.0658,2.0633,NA,NA,NA,NA,NA,bored,"bored, not bored","more bored, less bored",NA,NA,NA,NA,NA,NA,NA,NA,NA,NA,NA,NA,NA,NA,NA,NA,NA,NA,NA,NA,NA,NA,NA,NA,NA,NA,NA,NA,NA,NA,NA,NA,NA,NA,NA,NA,NA,NA,0,1,1,2,1,NA,NA,NA,NA,NA
SUPAMT79962,3UJ1CZ6IZNODFN0WO5LAH0UQ6ZRS57,E1844369-9C2B-4AB9-B6EA-916D69F3B58D,2023-09-28_21h24.35.535,WP_VExplicitOC_HL,2022.2.5,Win32,18.44542,35.55555556,3.727,2.0265,NA,NA,NA,NA,NA,frustrated,"frustrated, not frustrated","more frustrated, less frustrated",NA,NA,NA,NA,NA,NA,NA,NA,NA,NA,NA,NA,NA,NA,NA,NA,NA,NA,NA,NA,NA,NA,NA,NA,NA,NA,NA,NA,NA,NA,NA,NA,NA,NA,NA,NA,NA,NA,0,2,2,1,1,NA,NA,NA,NA,NA
SUPAMT79962,3UJ1CZ6IZNODFN0WO5LAH0UQ6ZRS57,E1844369-9C2B-4AB9-B6EA-916D69F3B58D,2023-09-28_21h24.35.535,WP_VExplicitOC_HL,2022.2.5,Win32,18.44542,NA,NA,NA,NA,NA,NA,NA,NA,NA,NA,NA,NA,NA,NA,NA,NA,NA,NA,NA,NA,NA,NA,NA,NA,NA,NA,NA,NA,NA,NA,NA,NA,NA,NA,NA,NA,NA,NA,NA,NA,NA,NA,NA,NA,NA,NA,NA,NA,NA,NA,NA,NA,NA,NA,2,0,2,0,1
SUPAMT79962,3UJ1CZ6IZNODFN0WO5LAH0UQ6ZRS57,E1844369-9C2B-4AB9-B6EA-916D69F3B58D,2023-09-28_21h24.35.535,WP_VExplicitOC_HL,2022.2.5,Win32,18.44542,72.22222222,3.7661,2.0805,NA,NA,NA,NA,NA,frustrated,"frustrated, not frustrated","more frustrated, less frustrated",NA,NA,NA,NA,NA,NA,NA,NA,NA,NA,NA,NA,NA,NA,NA,NA,NA,NA,NA,NA,NA,NA,NA,NA,NA,NA,NA,NA,NA,NA,NA,NA,NA,NA,NA,NA,NA,NA,0,0,0,1,1,NA,NA,NA,NA,NA
SUPAMT79962,3UJ1CZ6IZNODFN0WO5LAH0UQ6ZRS57,E1844369-9C2B-4AB9-B6EA-916D69F3B58D,2023-09-28_21h24.35.535,WP_VExplicitOC_HL,2022.2.5,Win32,18.44542,-100,3.6407,2.0585,NA,NA,NA,NA,NA,bored,"bored, not bored","more bored, less bored",NA,NA,NA,NA,NA,NA,NA,NA,NA,NA,NA,NA,NA,NA,NA,NA,NA,NA,NA,NA,NA,NA,NA,NA,NA,NA,NA,NA,NA,NA,NA,NA,NA,NA,NA,NA,NA,NA,0,1,1,2,1,NA,NA,NA,NA,NA
SUPAMT79962,3UJ1CZ6IZNODFN0WO5LAH0UQ6ZRS57,E1844369-9C2B-4AB9-B6EA-916D69F3B58D,2023-09-28_21h24.35.535,WP_VExplicitOC_HL,2022.2.5,Win32,18.44542,18.33333333,3.5057,2.0288,NA,NA,NA,NA,NA,happy,"unhappy, happy","less happy, more happy",NA,NA,NA,NA,NA,NA,NA,NA,NA,NA,NA,NA,NA,NA,NA,NA,NA,NA,NA,NA,NA,NA,NA,NA,NA,NA,NA,NA,NA,NA,NA,NA,NA,NA,NA,NA,NA,NA,0,2,2,0,1,NA,NA,NA,NA,NA
SUPAMT79962,3UJ1CZ6IZNODFN0WO5LAH0UQ6ZRS57,E1844369-9C2B-4AB9-B6EA-916D69F3B58D,2023-09-28_21h24.35.535,WP_VExplicitOC_HL,2022.2.5,Win32,18.44542,NA,NA,NA,NA,NA,NA,NA,NA,NA,NA,NA,NA,NA,NA,NA,NA,NA,NA,NA,NA,NA,NA,NA,NA,NA,NA,NA,NA,NA,NA,NA,NA,NA,NA,NA,NA,NA,NA,NA,NA,NA,NA,NA,NA,NA,NA,NA,NA,NA,NA,NA,NA,NA,NA,3,0,3,0,1
SUPAMT79962,3UJ1CZ6IZNODFN0WO5LAH0UQ6ZRS57,E1844369-9C2B-4AB9-B6EA-916D69F3B58D,2023-09-28_21h24.35.535,WP_VExplicitOC_HL,2022.2.5,Win32,18.44542,30.55555556,4.1235,2.0631,NA,NA,NA,NA,NA,happy,"unhappy, happy","less happy, more happy",NA,NA,NA,NA,NA,NA,NA,NA,NA,NA,NA,NA,NA,NA,NA,NA,NA,NA,NA,NA,NA,NA,NA,NA,NA,NA,NA,NA,NA,NA,NA,NA,NA,NA,NA,NA,NA,NA,0,0,0,0,1,NA,NA,NA,NA,NA
SUPAMT79962,3UJ1CZ6IZNODFN0WO5LAH0UQ6ZRS57,E1844369-9C2B-4AB9-B6EA-916D69F3B58D,2023-09-28_21h24.35.535,WP_VExplicitOC_HL,2022.2.5,Win32,18.44542,75.92592593,3.7215,2.002,NA,NA,NA,NA,NA,frustrated,"frustrated, not frustrated","more frustrated, less frustrated",NA,NA,NA,NA,NA,NA,NA,NA,NA,NA,NA,NA,NA,NA,NA,NA,NA,NA,NA,NA,NA,NA,NA,NA,NA,NA,NA,NA,NA,NA,NA,NA,NA,NA,NA,NA,NA,NA,0,1,1,1,1,NA,NA,NA,NA,NA
SUPAMT79962,3UJ1CZ6IZNODFN0WO5LAH0UQ6ZRS57,E1844369-9C2B-4AB9-B6EA-916D69F3B58D,2023-09-28_21h24.35.535,WP_VExplicitOC_HL,2022.2.5,Win32,18.44542,-99.07407407,3.2504,2.056,NA,NA,NA,NA,NA,bored,"bored, not bored","more bored, less bored",NA,NA,NA,NA,NA,NA,NA,NA,NA,NA,NA,NA,NA,NA,NA,NA,NA,NA,NA,NA,NA,NA,NA,NA,NA,NA,NA,NA,NA,NA,NA,NA,NA,NA,NA,NA,NA,NA,0,2,2,2,1,NA,NA,NA,NA,NA
SUPAMT79962,3UJ1CZ6IZNODFN0WO5LAH0UQ6ZRS57,E1844369-9C2B-4AB9-B6EA-916D69F3B58D,2023-09-28_21h24.35.535,WP_VExplicitOC_HL,2022.2.5,Win32,18.44542,NA,NA,NA,NA,NA,NA,NA,NA,NA,NA,NA,NA,NA,NA,NA,NA,NA,NA,NA,NA,NA,NA,NA,NA,NA,NA,NA,NA,NA,NA,NA,NA,NA,NA,NA,NA,NA,NA,NA,NA,NA,NA,NA,NA,NA,NA,NA,NA,NA,NA,NA,NA,NA,NA,4,0,4,0,1
SUPAMT79962,3UJ1CZ6IZNODFN0WO5LAH0UQ6ZRS57,E1844369-9C2B-4AB9-B6EA-916D69F3B58D,2023-09-28_21h24.35.535,WP_VExplicitOC_HL,2022.2.5,Win32,18.44542,54.07407407,4.2268,2.0377,NA,NA,NA,NA,NA,frustrated,"frustrated, not frustrated","more frustrated, less frustrated",NA,NA,NA,NA,NA,NA,NA,NA,NA,NA,NA,NA,NA,NA,NA,NA,NA,NA,NA,NA,NA,NA,NA,NA,NA,NA,NA,NA,NA,NA,NA,NA,NA,NA,NA,NA,NA,NA,0,0,0,1,1,NA,NA,NA,NA,NA
SUPAMT79962,3UJ1CZ6IZNODFN0WO5LAH0UQ6ZRS57,E1844369-9C2B-4AB9-B6EA-916D69F3B58D,2023-09-28_21h24.35.535,WP_VExplicitOC_HL,2022.2.5,Win32,18.44542,14.44444444,3.9432,2.0133,NA,NA,NA,NA,NA,happy,"unhappy, happy","less happy, more happy",NA,NA,NA,NA,NA,NA,NA,NA,NA,NA,NA,NA,NA,NA,NA,NA,NA,NA,NA,NA,NA,NA,NA,NA,NA,NA,NA,NA,NA,NA,NA,NA,NA,NA,NA,NA,NA,NA,0,1,1,0,1,NA,NA,NA,NA,NA
SUPAMT79962,3UJ1CZ6IZNODFN0WO5LAH0UQ6ZRS57,E1844369-9C2B-4AB9-B6EA-916D69F3B58D,2023-09-28_21h24.35.535,WP_VExplicitOC_HL,2022.2.5,Win32,18.44542,-100,3.2297,2.0111,NA,NA,NA,NA,NA,bored,"bored, not bored","more bored, less bored",NA,NA,NA,NA,NA,NA,NA,NA,NA,NA,NA,NA,NA,NA,NA,NA,NA,NA,NA,NA,NA,NA,NA,NA,NA,NA,NA,NA,NA,NA,NA,NA,NA,NA,NA,NA,NA,NA,0,2,2,2,1,NA,NA,NA,NA,NA
SUPAMT79962,3UJ1CZ6IZNODFN0WO5LAH0UQ6ZRS57,E1844369-9C2B-4AB9-B6EA-916D69F3B58D,2023-09-28_21h24.35.535,WP_VExplicitOC_HL,2022.2.5,Win32,18.44542,NA,NA,NA,NA,NA,NA,NA,NA,NA,NA,NA,NA,NA,NA,NA,NA,NA,NA,NA,NA,NA,NA,NA,NA,NA,NA,NA,NA,NA,NA,NA,NA,NA,NA,NA,NA,NA,NA,NA,NA,NA,NA,NA,NA,NA,NA,NA,NA,NA,NA,NA,NA,NA,NA,5,0,5,0,1
SUPAMT79962,3UJ1CZ6IZNODFN0WO5LAH0UQ6ZRS57,E1844369-9C2B-4AB9-B6EA-916D69F3B58D,2023-09-28_21h24.35.535,WP_VExplicitOC_HL,2022.2.5,Win32,18.44542,-95.55555556,6.7153,2.0731,NA,NA,NA,NA,NA,bored,"bored, not bored","more bored, less bored",NA,NA,NA,NA,NA,NA,NA,NA,NA,NA,NA,NA,NA,NA,NA,NA,NA,NA,NA,NA,NA,NA,NA,NA,NA,NA,NA,NA,NA,NA,NA,NA,NA,NA,NA,NA,NA,NA,0,0,0,2,1,NA,NA,NA,NA,NA
SUPAMT79962,3UJ1CZ6IZNODFN0WO5LAH0UQ6ZRS57,E1844369-9C2B-4AB9-B6EA-916D69F3B58D,2023-09-28_21h24.35.535,WP_VExplicitOC_HL,2022.2.5,Win32,18.44542,34.44444444,3.4062,2.0329,NA,NA,NA,NA,NA,happy,"unhappy, happy","less happy, more happy",NA,NA,NA,NA,NA,NA,NA,NA,NA,NA,NA,NA,NA,NA,NA,NA,NA,NA,NA,NA,NA,NA,NA,NA,NA,NA,NA,NA,NA,NA,NA,NA,NA,NA,NA,NA,NA,NA,0,1,1,0,1,NA,NA,NA,NA,NA
SUPAMT79962,3UJ1CZ6IZNODFN0WO5LAH0UQ6ZRS57,E1844369-9C2B-4AB9-B6EA-916D69F3B58D,2023-09-28_21h24.35.535,WP_VExplicitOC_HL,2022.2.5,Win32,18.44542,77.03703704,4.157,2.0838,NA,NA,NA,NA,NA,frustrated,"frustrated, not frustrated","more frustrated, less frustrated",NA,NA,NA,NA,NA,NA,NA,NA,NA,NA,NA,NA,NA,NA,NA,NA,NA,NA,NA,NA,NA,NA,NA,NA,NA,NA,NA,NA,NA,NA,NA,NA,NA,NA,NA,NA,NA,NA,0,2,2,1,1,NA,NA,NA,NA,NA
SUPAMT79962,3UJ1CZ6IZNODFN0WO5LAH0UQ6ZRS57,E1844369-9C2B-4AB9-B6EA-916D69F3B58D,2023-09-28_21h24.35.535,WP_VExplicitOC_HL,2022.2.5,Win32,18.44542,NA,NA,NA,NA,NA,NA,NA,NA,NA,NA,NA,NA,NA,NA,NA,NA,NA,NA,NA,NA,NA,NA,NA,NA,NA,NA,NA,NA,NA,NA,NA,NA,NA,NA,NA,NA,NA,NA,NA,NA,NA,NA,NA,NA,NA,NA,NA,NA,NA,NA,NA,NA,NA,NA,6,0,6,0,1
SUPAMT79962,3UJ1CZ6IZNODFN0WO5LAH0UQ6ZRS57,E1844369-9C2B-4AB9-B6EA-916D69F3B58D,2023-09-28_21h24.35.535,WP_VExplicitOC_HL,2022.2.5,Win32,18.44542,64.25925926,4.759,2.0138,NA,NA,NA,NA,NA,frustrated,"frustrated, not frustrated","more frustrated, less frustrated",NA,NA,NA,NA,NA,NA,NA,NA,NA,NA,NA,NA,NA,NA,NA,NA,NA,NA,NA,NA,NA,NA,NA,NA,NA,NA,NA,NA,NA,NA,NA,NA,NA,NA,NA,NA,NA,NA,0,0,0,1,1,NA,NA,NA,NA,NA
SUPAMT79962,3UJ1CZ6IZNODFN0WO5LAH0UQ6ZRS57,E1844369-9C2B-4AB9-B6EA-916D69F3B58D,2023-09-28_21h24.35.535,WP_VExplicitOC_HL,2022.2.5,Win32,18.44542,-92.40740741,3.4864,2.0418,NA,NA,NA,NA,NA,bored,"bored, not bored","more bored, less bored",NA,NA,NA,NA,NA,NA,NA,NA,NA,NA,NA,NA,NA,NA,NA,NA,NA,NA,NA,NA,NA,NA,NA,NA,NA,NA,NA,NA,NA,NA,NA,NA,NA,NA,NA,NA,NA,NA,0,1,1,2,1,NA,NA,NA,NA,NA
SUPAMT79962,3UJ1CZ6IZNODFN0WO5LAH0UQ6ZRS57,E1844369-9C2B-4AB9-B6EA-916D69F3B58D,2023-09-28_21h24.35.535,WP_VExplicitOC_HL,2022.2.5,Win32,18.44542,42.40740741,3.6403,2.0572,NA,NA,NA,NA,NA,happy,"unhappy, happy","less happy, more happy",NA,NA,NA,NA,NA,NA,NA,NA,NA,NA,NA,NA,NA,NA,NA,NA,NA,NA,NA,NA,NA,NA,NA,NA,NA,NA,NA,NA,NA,NA,NA,NA,NA,NA,NA,NA,NA,NA,0,2,2,0,1,NA,NA,NA,NA,NA
SUPAMT79962,3UJ1CZ6IZNODFN0WO5LAH0UQ6ZRS57,E1844369-9C2B-4AB9-B6EA-916D69F3B58D,2023-09-28_21h24.35.535,WP_VExplicitOC_HL,2022.2.5,Win32,18.44542,NA,NA,NA,NA,NA,NA,NA,NA,NA,NA,NA,NA,NA,NA,NA,NA,NA,NA,NA,NA,NA,NA,NA,NA,NA,NA,NA,NA,NA,NA,NA,NA,NA,NA,NA,NA,NA,NA,NA,NA,NA,NA,NA,NA,NA,NA,NA,NA,NA,NA,NA,NA,NA,NA,7,0,7,0,1
SUPAMT79962,3UJ1CZ6IZNODFN0WO5LAH0UQ6ZRS57,E1844369-9C2B-4AB9-B6EA-916D69F3B58D,2023-09-28_21h24.35.535,WP_VExplicitOC_HL,2022.2.5,Win32,18.44542,NA,NA,2.0194,NA,NA,NA,NA,NA,happy,"unhappy, happy","less happy, more happy",NA,NA,NA,NA,NA,NA,NA,NA,NA,NA,NA,NA,NA,NA,NA,NA,NA,NA,NA,NA,NA,NA,NA,NA,NA,NA,NA,NA,NA,NA,NA,NA,NA,NA,NA,NA,NA,NA,0,0,0,0,1,NA,NA,NA,NA,NA
SUPAMT79962,3UJ1CZ6IZNODFN0WO5LAH0UQ6ZRS57,E1844369-9C2B-4AB9-B6EA-916D69F3B58D,2023-09-28_21h24.35.535,WP_VExplicitOC_HL,2022.2.5,Win32,18.44542,63.14814815,4.6259,2.0278,NA,NA,NA,NA,NA,frustrated,"frustrated, not frustrated","more frustrated, less frustrated",NA,NA,NA,NA,NA,NA,NA,NA,NA,NA,NA,NA,NA,NA,NA,NA,NA,NA,NA,NA,NA,NA,NA,NA,NA,NA,NA,NA,NA,NA,NA,NA,NA,NA,NA,NA,NA,NA,0,1,1,1,1,NA,NA,NA,NA,NA
SUPAMT79962,3UJ1CZ6IZNODFN0WO5LAH0UQ6ZRS57,E1844369-9C2B-4AB9-B6EA-916D69F3B58D,2023-09-28_21h24.35.535,WP_VExplicitOC_HL,2022.2.5,Win32,18.44542,-100,3.4863,2.0313,NA,NA,NA,NA,NA,bored,"bored, not bored","more bored, less bored",NA,NA,NA,NA,NA,NA,NA,NA,NA,NA,NA,NA,NA,NA,NA,NA,NA,NA,NA,NA,NA,NA,NA,NA,NA,NA,NA,NA,NA,NA,NA,NA,NA,NA,NA,NA,NA,NA,0,2,2,2,1,NA,NA,NA,NA,NA
SUPAMT79962,3UJ1CZ6IZNODFN0WO5LAH0UQ6ZRS57,E1844369-9C2B-4AB9-B6EA-916D69F3B58D,2023-09-28_21h24.35.535,WP_VExplicitOC_HL,2022.2.5,Win32,18.44542,NA,NA,NA,NA,NA,NA,NA,NA,NA,NA,NA,NA,NA,NA,NA,NA,NA,NA,NA,NA,NA,NA,NA,NA,NA,NA,NA,NA,NA,NA,NA,NA,NA,NA,NA,NA,NA,NA,NA,NA,NA,NA,NA,NA,NA,NA,NA,NA,NA,NA,NA,NA,NA,NA,8,0,8,0,1
SUPAMT79962,3UJ1CZ6IZNODFN0WO5LAH0UQ6ZRS57,E1844369-9C2B-4AB9-B6EA-916D69F3B58D,2023-09-28_21h24.35.535,WP_VExplicitOC_HL,2022.2.5,Win32,18.44542,-100,5.3454,2.0851,NA,NA,NA,NA,NA,bored,"bored, not bored","more bored, less bored",NA,NA,NA,NA,NA,NA,NA,NA,NA,NA,NA,NA,NA,NA,NA,NA,NA,NA,NA,NA,NA,NA,NA,NA,NA,NA,NA,NA,NA,NA,NA,NA,NA,NA,NA,NA,NA,NA,0,0,0,2,1,NA,NA,NA,NA,NA
SUPAMT79962,3UJ1CZ6IZNODFN0WO5LAH0UQ6ZRS57,E1844369-9C2B-4AB9-B6EA-916D69F3B58D,2023-09-28_21h24.35.535,WP_VExplicitOC_HL,2022.2.5,Win32,18.44542,58.33333333,3.4306,2.0347,NA,NA,NA,NA,NA,frustrated,"frustrated, not frustrated","more frustrated, less frustrated",NA,NA,NA,NA,NA,NA,NA,NA,NA,NA,NA,NA,NA,NA,NA,NA,NA,NA,NA,NA,NA,NA,NA,NA,NA,NA,NA,NA,NA,NA,NA,NA,NA,NA,NA,NA,NA,NA,0,1,1,1,1,NA,NA,NA,NA,NA
SUPAMT79962,3UJ1CZ6IZNODFN0WO5LAH0UQ6ZRS57,E1844369-9C2B-4AB9-B6EA-916D69F3B58D,2023-09-28_21h24.35.535,WP_VExplicitOC_HL,2022.2.5,Win32,18.44542,27.03703704,3.0701,2.0446,NA,NA,NA,NA,NA,happy,"unhappy, happy","less happy, more happy",NA,NA,NA,NA,NA,NA,NA,NA,NA,NA,NA,NA,NA,NA,NA,NA,NA,NA,NA,NA,NA,NA,NA,NA,NA,NA,NA,NA,NA,NA,NA,NA,NA,NA,NA,NA,NA,NA,0,2,2,0,1,NA,NA,NA,NA,NA
SUPAMT79962,3UJ1CZ6IZNODFN0WO5LAH0UQ6ZRS57,E1844369-9C2B-4AB9-B6EA-916D69F3B58D,2023-09-28_21h24.35.535,WP_VExplicitOC_HL,2022.2.5,Win32,18.44542,NA,NA,NA,NA,NA,NA,NA,NA,NA,NA,NA,NA,NA,NA,NA,NA,NA,NA,NA,NA,NA,NA,NA,NA,NA,NA,NA,NA,NA,NA,NA,NA,NA,NA,NA,NA,NA,NA,NA,NA,NA,NA,NA,NA,NA,NA,NA,NA,NA,NA,NA,NA,NA,NA,9,0,9,0,1
SUPAMT79962,3UJ1CZ6IZNODFN0WO5LAH0UQ6ZRS57,E1844369-9C2B-4AB9-B6EA-916D69F3B58D,2023-09-28_21h24.35.535,WP_VExplicitOC_HL,2022.2.5,Win32,18.44542,-98.14814815,3.5818,2.0725,NA,NA,NA,NA,NA,bored,"bored, not bored","more bored, less bored",NA,NA,NA,NA,NA,NA,NA,NA,NA,NA,NA,NA,NA,NA,NA,NA,NA,NA,NA,NA,NA,NA,NA,NA,NA,NA,NA,NA,NA,NA,NA,NA,NA,NA,NA,NA,NA,NA,0,0,0,2,1,NA,NA,NA,NA,NA
SUPAMT79962,3UJ1CZ6IZNODFN0WO5LAH0UQ6ZRS57,E1844369-9C2B-4AB9-B6EA-916D69F3B58D,2023-09-28_21h24.35.535,WP_VExplicitOC_HL,2022.2.5,Win32,18.44542,37.77777778,3.1845,2.0406,NA,NA,NA,NA,NA,happy,"unhappy, happy","less happy, more happy",NA,NA,NA,NA,NA,NA,NA,NA,NA,NA,NA,NA,NA,NA,NA,NA,NA,NA,NA,NA,NA,NA,NA,NA,NA,NA,NA,NA,NA,NA,NA,NA,NA,NA,NA,NA,NA,NA,0,1,1,0,1,NA,NA,NA,NA,NA
SUPAMT79962,3UJ1CZ6IZNODFN0WO5LAH0UQ6ZRS57,E1844369-9C2B-4AB9-B6EA-916D69F3B58D,2023-09-28_21h24.35.535,WP_VExplicitOC_HL,2022.2.5,Win32,18.44542,87.03703704,3.9259,2.0553,NA,NA,NA,NA,NA,frustrated,"frustrated, not frustrated","more frustrated, less frustrated",NA,NA,NA,NA,NA,NA,NA,NA,NA,NA,NA,NA,NA,NA,NA,NA,NA,NA,NA,NA,NA,NA,NA,NA,NA,NA,NA,NA,NA,NA,NA,NA,NA,NA,NA,NA,NA,NA,0,2,2,1,1,NA,NA,NA,NA,NA
SUPAMT79962,3UJ1CZ6IZNODFN0WO5LAH0UQ6ZRS57,E1844369-9C2B-4AB9-B6EA-916D69F3B58D,2023-09-28_21h24.35.535,WP_VExplicitOC_HL,2022.2.5,Win32,18.44542,NA,NA,NA,NA,NA,NA,NA,NA,NA,NA,NA,NA,NA,NA,NA,NA,NA,NA,NA,NA,NA,NA,NA,NA,NA,NA,NA,NA,NA,NA,NA,NA,NA,NA,NA,NA,NA,NA,NA,NA,NA,NA,NA,NA,NA,NA,NA,NA,NA,NA,NA,NA,NA,NA,10,0,10,0,1
SUPAMT79962,3UJ1CZ6IZNODFN0WO5LAH0UQ6ZRS57,E1844369-9C2B-4AB9-B6EA-916D69F3B58D,2023-09-28_21h24.35.535,WP_VExplicitOC_HL,2022.2.5,Win32,18.44542,69.81481481,3.4779,2.0015,NA,NA,NA,NA,NA,frustrated,"frustrated, not frustrated","more frustrated, less frustrated",NA,NA,NA,NA,NA,NA,NA,NA,NA,NA,NA,NA,NA,NA,NA,NA,NA,NA,NA,NA,NA,NA,NA,NA,NA,NA,NA,NA,NA,NA,NA,NA,NA,NA,NA,NA,NA,NA,0,0,0,1,1,NA,NA,NA,NA,NA
SUPAMT79962,3UJ1CZ6IZNODFN0WO5LAH0UQ6ZRS57,E1844369-9C2B-4AB9-B6EA-916D69F3B58D,2023-09-28_21h24.35.535,WP_VExplicitOC_HL,2022.2.5,Win32,18.44542,-97.77777778,3.2613,2.0612,NA,NA,NA,NA,NA,bored,"bored, not bored","more bored, less bored",NA,NA,NA,NA,NA,NA,NA,NA,NA,NA,NA,NA,NA,NA,NA,NA,NA,NA,NA,NA,NA,NA,NA,NA,NA,NA,NA,NA,NA,NA,NA,NA,NA,NA,NA,NA,NA,NA,0,1,1,2,1,NA,NA,NA,NA,NA
SUPAMT79962,3UJ1CZ6IZNODFN0WO5LAH0UQ6ZRS57,E1844369-9C2B-4AB9-B6EA-916D69F3B58D,2023-09-28_21h24.35.535,WP_VExplicitOC_HL,2022.2.5,Win32,18.44542,55.37037037,3.9463,2.053,NA,NA,NA,NA,NA,happy,"unhappy, happy","less happy, more happy",NA,NA,NA,NA,NA,NA,NA,NA,NA,NA,NA,NA,NA,NA,NA,NA,NA,NA,NA,NA,NA,NA,NA,NA,NA,NA,NA,NA,NA,NA,NA,NA,NA,NA,NA,NA,NA,NA,0,2,2,0,1,NA,NA,NA,NA,NA
SUPAMT79962,3UJ1CZ6IZNODFN0WO5LAH0UQ6ZRS57,E1844369-9C2B-4AB9-B6EA-916D69F3B58D,2023-09-28_21h24.35.535,WP_VExplicitOC_HL,2022.2.5,Win32,18.44542,NA,NA,NA,NA,NA,NA,NA,NA,NA,NA,NA,NA,NA,NA,NA,NA,NA,NA,NA,NA,NA,NA,NA,NA,NA,NA,NA,NA,NA,NA,NA,NA,NA,NA,NA,NA,NA,NA,NA,NA,NA,NA,NA,NA,NA,NA,NA,NA,NA,NA,NA,NA,NA,NA,11,0,11,0,1
SUPAMT79962,3UJ1CZ6IZNODFN0WO5LAH0UQ6ZRS57,E1844369-9C2B-4AB9-B6EA-916D69F3B58D,2023-09-28_21h24.35.535,WP_VExplicitOC_HL,2022.2.5,Win32,18.44542,34.62962963,3.8122,2.0113,NA,NA,NA,NA,NA,happy,"unhappy, happy","less happy, more happy",NA,NA,NA,NA,NA,NA,NA,NA,NA,NA,NA,NA,NA,NA,NA,NA,NA,NA,NA,NA,NA,NA,NA,NA,NA,NA,NA,NA,NA,NA,NA,NA,NA,NA,NA,NA,NA,NA,0,0,0,0,1,NA,NA,NA,NA,NA
SUPAMT79962,3UJ1CZ6IZNODFN0WO5LAH0UQ6ZRS57,E1844369-9C2B-4AB9-B6EA-916D69F3B58D,2023-09-28_21h24.35.535,WP_VExplicitOC_HL,2022.2.5,Win32,18.44542,-99.81481481,3.77,2.0655,NA,NA,NA,NA,NA,bored,"bored, not bored","more bored, less bored",NA,NA,NA,NA,NA,NA,NA,NA,NA,NA,NA,NA,NA,NA,NA,NA,NA,NA,NA,NA,NA,NA,NA,NA,NA,NA,NA,NA,NA,NA,NA,NA,NA,NA,NA,NA,NA,NA,0,1,1,2,1,NA,NA,NA,NA,NA
SUPAMT79962,3UJ1CZ6IZNODFN0WO5LAH0UQ6ZRS57,E1844369-9C2B-4AB9-B6EA-916D69F3B58D,2023-09-28_21h24.35.535,WP_VExplicitOC_HL,2022.2.5,Win32,18.44542,41.11111111,3.3819,2.0396,NA,NA,NA,NA,NA,frustrated,"frustrated, not frustrated","more frustrated, less frustrated",NA,NA,NA,NA,NA,NA,NA,NA,NA,NA,NA,NA,NA,NA,NA,NA,NA,NA,NA,NA,NA,NA,NA,NA,NA,NA,NA,NA,NA,NA,NA,NA,NA,NA,NA,NA,NA,NA,0,2,2,1,1,NA,NA,NA,NA,NA
SUPAMT79962,3UJ1CZ6IZNODFN0WO5LAH0UQ6ZRS57,E1844369-9C2B-4AB9-B6EA-916D69F3B58D,2023-09-28_21h24.35.535,WP_VExplicitOC_HL,2022.2.5,Win32,18.44542,NA,NA,NA,NA,NA,NA,NA,NA,NA,NA,NA,NA,NA,NA,NA,NA,NA,NA,NA,NA,NA,NA,NA,NA,NA,NA,NA,NA,NA,NA,NA,NA,NA,NA,NA,NA,NA,NA,NA,NA,NA,NA,NA,NA,NA,NA,NA,NA,NA,NA,NA,NA,NA,NA,12,0,12,0,1
SUPAMT79962,3UJ1CZ6IZNODFN0WO5LAH0UQ6ZRS57,E1844369-9C2B-4AB9-B6EA-916D69F3B58D,2023-09-28_21h24.35.535,WP_VExplicitOC_HL,2022.2.5,Win32,18.44542,43.33333333,3.6768,2.0791,NA,NA,NA,NA,NA,happy,"unhappy, happy","less happy, more happy",NA,NA,NA,NA,NA,NA,NA,NA,NA,NA,NA,NA,NA,NA,NA,NA,NA,NA,NA,NA,NA,NA,NA,NA,NA,NA,NA,NA,NA,NA,NA,NA,NA,NA,NA,NA,NA,NA,0,0,0,0,1,NA,NA,NA,NA,NA
SUPAMT79962,3UJ1CZ6IZNODFN0WO5LAH0UQ6ZRS57,E1844369-9C2B-4AB9-B6EA-916D69F3B58D,2023-09-28_21h24.35.535,WP_VExplicitOC_HL,2022.2.5,Win32,18.44542,-99.81481481,3.0874,2.0692,NA,NA,NA,NA,NA,bored,"bored, not bored","more bored, less bored",NA,NA,NA,NA,NA,NA,NA,NA,NA,NA,NA,NA,NA,NA,NA,NA,NA,NA,NA,NA,NA,NA,NA,NA,NA,NA,NA,NA,NA,NA,NA,NA,NA,NA,NA,NA,NA,NA,0,1,1,2,1,NA,NA,NA,NA,NA
SUPAMT79962,3UJ1CZ6IZNODFN0WO5LAH0UQ6ZRS57,E1844369-9C2B-4AB9-B6EA-916D69F3B58D,2023-09-28_21h24.35.535,WP_VExplicitOC_HL,2022.2.5,Win32,18.44542,60.74074074,3.9222,2.0546,NA,NA,NA,NA,NA,frustrated,"frustrated, not frustrated","more frustrated, less frustrated",NA,NA,NA,NA,NA,NA,NA,NA,NA,NA,NA,NA,NA,NA,NA,NA,NA,NA,NA,NA,NA,NA,NA,NA,NA,NA,NA,NA,NA,NA,NA,NA,NA,NA,NA,NA,NA,NA,0,2,2,1,1,NA,NA,NA,NA,NA
SUPAMT79962,3UJ1CZ6IZNODFN0WO5LAH0UQ6ZRS57,E1844369-9C2B-4AB9-B6EA-916D69F3B58D,2023-09-28_21h24.35.535,WP_VExplicitOC_HL,2022.2.5,Win32,18.44542,NA,NA,NA,NA,NA,NA,NA,NA,NA,NA,NA,NA,NA,NA,NA,NA,NA,NA,NA,NA,NA,NA,NA,NA,NA,NA,NA,NA,NA,NA,NA,NA,NA,NA,NA,NA,NA,NA,NA,NA,NA,NA,NA,NA,NA,NA,NA,NA,NA,NA,NA,NA,NA,NA,13,0,13,0,1
SUPAMT79962,3UJ1CZ6IZNODFN0WO5LAH0UQ6ZRS57,E1844369-9C2B-4AB9-B6EA-916D69F3B58D,2023-09-28_21h24.35.535,WP_VExplicitOC_HL,2022.2.5,Win32,18.44542,-96.2962963,3.841,2.0688,NA,NA,NA,NA,NA,bored,"bored, not bored","more bored, less bored",NA,NA,NA,NA,NA,NA,NA,NA,NA,NA,NA,NA,NA,NA,NA,NA,NA,NA,NA,NA,NA,NA,NA,NA,NA,NA,NA,NA,NA,NA,NA,NA,NA,NA,NA,NA,NA,NA,0,0,0,2,1,NA,NA,NA,NA,NA
SUPAMT79962,3UJ1CZ6IZNODFN0WO5LAH0UQ6ZRS57,E1844369-9C2B-4AB9-B6EA-916D69F3B58D,2023-09-28_21h24.35.535,WP_VExplicitOC_HL,2022.2.5,Win32,18.44542,64.25925926,3.5111,2.0349,NA,NA,NA,NA,NA,frustrated,"frustrated, not frustrated","more frustrated, less frustrated",NA,NA,NA,NA,NA,NA,NA,NA,NA,NA,NA,NA,NA,NA,NA,NA,NA,NA,NA,NA,NA,NA,NA,NA,NA,NA,NA,NA,NA,NA,NA,NA,NA,NA,NA,NA,NA,NA,0,1,1,1,1,NA,NA,NA,NA,NA
SUPAMT79962,3UJ1CZ6IZNODFN0WO5LAH0UQ6ZRS57,E1844369-9C2B-4AB9-B6EA-916D69F3B58D,2023-09-28_21h24.35.535,WP_VExplicitOC_HL,2022.2.5,Win32,18.44542,26.2962963,3.2531,2.0208,NA,NA,NA,NA,NA,happy,"unhappy, happy","less happy, more happy",NA,NA,NA,NA,NA,NA,NA,NA,NA,NA,NA,NA,NA,NA,NA,NA,NA,NA,NA,NA,NA,NA,NA,NA,NA,NA,NA,NA,NA,NA,NA,NA,NA,NA,NA,NA,NA,NA,0,2,2,0,1,NA,NA,NA,NA,NA
SUPAMT79962,3UJ1CZ6IZNODFN0WO5LAH0UQ6ZRS57,E1844369-9C2B-4AB9-B6EA-916D69F3B58D,2023-09-28_21h24.35.535,WP_VExplicitOC_HL,2022.2.5,Win32,18.44542,NA,NA,NA,NA,NA,NA,NA,NA,NA,NA,NA,NA,NA,NA,NA,NA,NA,NA,NA,NA,NA,NA,NA,NA,NA,NA,NA,NA,NA,NA,NA,NA,NA,NA,NA,NA,NA,NA,NA,NA,NA,NA,NA,NA,NA,NA,NA,NA,NA,NA,NA,NA,NA,NA,14,0,14,0,1
SUPAMT79962,3UJ1CZ6IZNODFN0WO5LAH0UQ6ZRS57,E1844369-9C2B-4AB9-B6EA-916D69F3B58D,2023-09-28_21h24.35.535,WP_VExplicitOC_HL,2022.2.5,Win32,18.44542,NA,NA,NA,NA,NA,NA,NA,NA,NA,NA,NA,NA,NA,NA,NA,NA,NA,NA,NA,NA,NA,NA,NA,NA,NA,NA,NA,NA,NA,NA,NA,NA,NA,NA,NA,NA,NA,NA,NA,NA,NA,NA,NA,NA,NA,NA,NA,NA,NA,NA,NA,NA,NA,NA,NA,NA,NA,NA,NA
