participant,session,completion,date,expName,psychopyVersion,OS,frameRate,rating_all.response,rating_all.rt,rating_all.tStart,rndRat1.thisRepN,rndRat1.thisTrialN,rndRat1.thisN,rndRat1.thisIndex,rndRat1.ran,Emo,Labs,Labs2,rating_alt.response,rating_alt.rt,AltC.thisRepN,AltC.thisTrialN,AltC.thisN,AltC.thisIndex,AltC.ran,alt_choices,pic_choices,TopAlt_Choice,rndRat2.thisRepN,rndRat2.thisTrialN,rndRat2.thisN,rndRat2.thisIndex,rndRat2.ran,rndRat3.thisRepN,rndRat3.thisTrialN,rndRat3.thisN,rndRat3.thisIndex,rndRat3.ran,trials_FC_H.thisRepN,trials_FC_H.thisTrialN,trials_FC_H.thisN,trials_FC_H.thisIndex,trials_FC_H.ran,rating_alt_2.response,rating_alt_2.rt,AltC2.thisRepN,AltC2.thisTrialN,AltC2.thisN,AltC2.thisIndex,AltC2.ran,BottomAlt_Choice,rndRat4.thisRepN,rndRat4.thisTrialN,rndRat4.thisN,rndRat4.thisIndex,rndRat4.ran,rndRat5.thisRepN,rndRat5.thisTrialN,rndRat5.thisN,rndRat5.thisIndex,rndRat5.ran,trials_FC_L.thisRepN,trials_FC_L.thisTrialN,trials_FC_L.thisN,trials_FC_L.thisIndex,trials_FC_L.ran
SUPAMT03640,NA,9056A2B5-1C9D-4F6A-AA58-448808E4733C,2023-09-28_19h34.37.593,WP_VExplicitOC_HL,2022.2.5,Win32,16.53931395,NA,NA,NA,NA,NA,NA,NA,NA,NA,NA,NA,NA,NA,NA,NA,NA,NA,NA,NA,NA,NA,NA,NA,NA,NA,NA,NA,NA,NA,NA,NA,NA,NA,NA,NA,NA,NA,NA,NA,NA,NA,NA,NA,NA,NA,NA,NA,NA,NA,NA,NA,NA,NA,NA,NA,NA,NA,NA,NA
SUPAMT03640,NA,9056A2B5-1C9D-4F6A-AA58-448808E4733C,2023-09-28_19h34.37.593,WP_VExplicitOC_HL,2022.2.5,Win32,16.53931395,NA,NA,NA,NA,NA,NA,NA,NA,NA,NA,NA,NA,NA,NA,NA,NA,NA,NA,NA,NA,NA,NA,NA,NA,NA,NA,NA,NA,NA,NA,NA,NA,NA,NA,NA,NA,NA,NA,NA,NA,NA,NA,NA,NA,NA,NA,NA,NA,NA,NA,NA,NA,NA,NA,NA,NA,NA,NA,NA
SUPAMT03640,NA,9056A2B5-1C9D-4F6A-AA58-448808E4733C,2023-09-28_19h34.37.593,WP_VExplicitOC_HL,2022.2.5,Win32,16.53931395,NA,NA,NA,NA,NA,NA,NA,NA,NA,NA,NA,NA,NA,NA,NA,NA,NA,NA,NA,NA,NA,NA,NA,NA,NA,NA,NA,NA,NA,NA,NA,NA,NA,NA,NA,NA,NA,NA,NA,NA,NA,NA,NA,NA,NA,NA,NA,NA,NA,NA,NA,NA,NA,NA,NA,NA,NA,NA,NA
SUPAMT03640,NA,9056A2B5-1C9D-4F6A-AA58-448808E4733C,2023-09-28_19h34.37.593,WP_VExplicitOC_HL,2022.2.5,Win32,16.53931395,75.1953125,3.7944,2.0413,0,0,0,0,1,happy,"unhappy, happy","less happy, more happy",NA,NA,NA,NA,NA,NA,NA,NA,NA,NA,NA,NA,NA,NA,NA,NA,NA,NA,NA,NA,NA,NA,NA,NA,NA,NA,NA,NA,NA,NA,NA,NA,NA,NA,NA,NA,NA,NA,NA,NA,NA,NA,NA,NA,NA,NA,NA,NA
SUPAMT03640,NA,9056A2B5-1C9D-4F6A-AA58-448808E4733C,2023-09-28_19h34.37.593,WP_VExplicitOC_HL,2022.2.5,Win32,16.53931395,80.078125,3.2378,2.0601,0,1,1,1,1,frustrated,"frustrated, not frustrated","more frustrated, less frustrated",NA,NA,NA,NA,NA,NA,NA,NA,NA,NA,NA,NA,NA,NA,NA,NA,NA,NA,NA,NA,NA,NA,NA,NA,NA,NA,NA,NA,NA,NA,NA,NA,NA,NA,NA,NA,NA,NA,NA,NA,NA,NA,NA,NA,NA,NA,NA,NA
SUPAMT03640,NA,9056A2B5-1C9D-4F6A-AA58-448808E4733C,2023-09-28_19h34.37.593,WP_VExplicitOC_HL,2022.2.5,Win32,16.53931395,77.1484375,2.9742,2.0578,0,2,2,2,1,bored,"bored, not bored","more bored, less bored",NA,NA,NA,NA,NA,NA,NA,NA,NA,NA,NA,NA,NA,NA,NA,NA,NA,NA,NA,NA,NA,NA,NA,NA,NA,NA,NA,NA,NA,NA,NA,NA,NA,NA,NA,NA,NA,NA,NA,NA,NA,NA,NA,NA,NA,NA,NA,NA
SUPAMT03640,NA,9056A2B5-1C9D-4F6A-AA58-448808E4733C,2023-09-28_19h34.37.593,WP_VExplicitOC_HL,2022.2.5,Win32,16.53931395,NA,NA,NA,NA,NA,NA,NA,NA,NA,NA,NA,NA,NA,NA,NA,NA,NA,NA,NA,NA,NA,NA,NA,NA,NA,NA,NA,NA,NA,NA,NA,NA,NA,NA,NA,NA,NA,NA,NA,NA,NA,NA,NA,NA,NA,NA,NA,NA,NA,NA,NA,NA,NA,NA,NA,NA,NA,NA,NA
SUPAMT03640,NA,9056A2B5-1C9D-4F6A-AA58-448808E4733C,2023-09-28_19h34.37.593,WP_VExplicitOC_HL,2022.2.5,Win32,16.53931395,NA,NA,NA,NA,NA,NA,NA,NA,NA,NA,NA,NA,NA,NA,NA,NA,NA,NA,NA,NA,NA,NA,NA,NA,NA,NA,NA,NA,NA,NA,NA,NA,NA,NA,NA,NA,NA,NA,NA,NA,NA,NA,NA,NA,NA,NA,NA,NA,NA,NA,NA,NA,NA,NA,NA,NA,NA,NA,NA
SUPAMT03640,NA,9056A2B5-1C9D-4F6A-AA58-448808E4733C,2023-09-28_19h34.37.593,WP_VExplicitOC_HL,2022.2.5,Win32,16.53931395,NA,NA,NA,NA,NA,NA,NA,NA,NA,NA,NA,NA,NA,NA,NA,NA,NA,NA,NA,NA,NA,NA,NA,NA,NA,NA,NA,NA,NA,NA,NA,NA,NA,NA,NA,NA,NA,NA,NA,NA,NA,NA,NA,NA,NA,NA,NA,NA,NA,NA,NA,NA,NA,NA,NA,NA,NA,NA,NA
SUPAMT03640,NA,9056A2B5-1C9D-4F6A-AA58-448808E4733C,2023-09-28_19h34.37.593,WP_VExplicitOC_HL,2022.2.5,Win32,16.53931395,NA,NA,NA,NA,NA,NA,NA,NA,NA,NA,NA,NA,NA,NA,NA,NA,NA,NA,NA,NA,NA,NA,NA,NA,NA,NA,NA,NA,NA,NA,NA,NA,NA,NA,NA,NA,NA,NA,NA,NA,NA,NA,NA,NA,NA,NA,NA,NA,NA,NA,NA,NA,NA,NA,NA,NA,NA,NA,NA
SUPAMT03640,NA,9056A2B5-1C9D-4F6A-AA58-448808E4733C,2023-09-28_19h34.37.593,WP_VExplicitOC_HL,2022.2.5,Win32,16.53931395,NA,NA,NA,NA,NA,NA,NA,NA,NA,NA,NA,75,1.3961,0,0,0,0,1,rest (looking at a fixed cross),001.png,NA,NA,NA,NA,NA,NA,NA,NA,NA,NA,NA,NA,NA,NA,NA,NA,NA,NA,NA,NA,NA,NA,NA,NA,NA,NA,NA,NA,NA,NA,NA,NA,NA,NA,NA,NA,NA,NA,NA
SUPAMT03640,NA,9056A2B5-1C9D-4F6A-AA58-448808E4733C,2023-09-28_19h34.37.593,WP_VExplicitOC_HL,2022.2.5,Win32,16.53931395,NA,NA,NA,NA,NA,NA,NA,NA,NA,NA,NA,41.015625,1.0521,0,1,1,1,1,stand up,002.png,NA,NA,NA,NA,NA,NA,NA,NA,NA,NA,NA,NA,NA,NA,NA,NA,NA,NA,NA,NA,NA,NA,NA,NA,NA,NA,NA,NA,NA,NA,NA,NA,NA,NA,NA,NA,NA,NA,NA
SUPAMT03640,NA,9056A2B5-1C9D-4F6A-AA58-448808E4733C,2023-09-28_19h34.37.593,WP_VExplicitOC_HL,2022.2.5,Win32,16.53931395,NA,NA,NA,NA,NA,NA,NA,NA,NA,NA,NA,65.8203125,0.8319,0,2,2,2,1,stretch,003.png,NA,NA,NA,NA,NA,NA,NA,NA,NA,NA,NA,NA,NA,NA,NA,NA,NA,NA,NA,NA,NA,NA,NA,NA,NA,NA,NA,NA,NA,NA,NA,NA,NA,NA,NA,NA,NA,NA,NA
SUPAMT03640,NA,9056A2B5-1C9D-4F6A-AA58-448808E4733C,2023-09-28_19h34.37.593,WP_VExplicitOC_HL,2022.2.5,Win32,16.53931395,NA,NA,NA,NA,NA,NA,NA,NA,NA,NA,NA,59.5703125,0.6588,0,3,3,3,1,make a drink,004.png,NA,NA,NA,NA,NA,NA,NA,NA,NA,NA,NA,NA,NA,NA,NA,NA,NA,NA,NA,NA,NA,NA,NA,NA,NA,NA,NA,NA,NA,NA,NA,NA,NA,NA,NA,NA,NA,NA,NA
SUPAMT03640,NA,9056A2B5-1C9D-4F6A-AA58-448808E4733C,2023-09-28_19h34.37.593,WP_VExplicitOC_HL,2022.2.5,Win32,16.53931395,NA,NA,NA,NA,NA,NA,NA,NA,NA,NA,NA,75.78125,0.574,0,4,4,4,1,scroll social media,005.png,NA,NA,NA,NA,NA,NA,NA,NA,NA,NA,NA,NA,NA,NA,NA,NA,NA,NA,NA,NA,NA,NA,NA,NA,NA,NA,NA,NA,NA,NA,NA,NA,NA,NA,NA,NA,NA,NA,NA
SUPAMT03640,NA,9056A2B5-1C9D-4F6A-AA58-448808E4733C,2023-09-28_19h34.37.593,WP_VExplicitOC_HL,2022.2.5,Win32,16.53931395,NA,NA,NA,NA,NA,NA,NA,NA,NA,NA,NA,82.8125,0.4772,0,5,5,5,1,listen to music,006.png,NA,NA,NA,NA,NA,NA,NA,NA,NA,NA,NA,NA,NA,NA,NA,NA,NA,NA,NA,NA,NA,NA,NA,NA,NA,NA,NA,NA,NA,NA,NA,NA,NA,NA,NA,NA,NA,NA,NA
SUPAMT03640,NA,9056A2B5-1C9D-4F6A-AA58-448808E4733C,2023-09-28_19h34.37.593,WP_VExplicitOC_HL,2022.2.5,Win32,16.53931395,NA,NA,NA,NA,NA,NA,NA,NA,NA,NA,NA,92.1875,0.6078,0,6,6,6,1,daydream,007.png,NA,NA,NA,NA,NA,NA,NA,NA,NA,NA,NA,NA,NA,NA,NA,NA,NA,NA,NA,NA,NA,NA,NA,NA,NA,NA,NA,NA,NA,NA,NA,NA,NA,NA,NA,NA,NA,NA,NA
SUPAMT03640,NA,9056A2B5-1C9D-4F6A-AA58-448808E4733C,2023-09-28_19h34.37.593,WP_VExplicitOC_HL,2022.2.5,Win32,16.53931395,NA,NA,NA,NA,NA,NA,NA,NA,NA,NA,NA,37.3046875,0.8679,0,7,7,7,1,watch a short animation,008.png,NA,NA,NA,NA,NA,NA,NA,NA,NA,NA,NA,NA,NA,NA,NA,NA,NA,NA,NA,NA,NA,NA,NA,NA,NA,NA,NA,NA,NA,NA,NA,NA,NA,NA,NA,NA,NA,NA,NA
SUPAMT03640,NA,9056A2B5-1C9D-4F6A-AA58-448808E4733C,2023-09-28_19h34.37.593,WP_VExplicitOC_HL,2022.2.5,Win32,16.53931395,NA,NA,NA,NA,NA,NA,NA,NA,NA,NA,NA,65.234375,0.5081,0,8,8,8,1,read a novel,009.png,NA,NA,NA,NA,NA,NA,NA,NA,NA,NA,NA,NA,NA,NA,NA,NA,NA,NA,NA,NA,NA,NA,NA,NA,NA,NA,NA,NA,NA,NA,NA,NA,NA,NA,NA,NA,NA,NA,NA
SUPAMT03640,NA,9056A2B5-1C9D-4F6A-AA58-448808E4733C,2023-09-28_19h34.37.593,WP_VExplicitOC_HL,2022.2.5,Win32,16.53931395,NA,NA,NA,NA,NA,NA,NA,NA,NA,NA,NA,84.375,0.4791,0,9,9,9,1,read the news,010.png,NA,NA,NA,NA,NA,NA,NA,NA,NA,NA,NA,NA,NA,NA,NA,NA,NA,NA,NA,NA,NA,NA,NA,NA,NA,NA,NA,NA,NA,NA,NA,NA,NA,NA,NA,NA,NA,NA,NA
SUPAMT03640,NA,9056A2B5-1C9D-4F6A-AA58-448808E4733C,2023-09-28_19h34.37.593,WP_VExplicitOC_HL,2022.2.5,Win32,16.53931395,NA,NA,NA,NA,NA,NA,NA,NA,NA,NA,NA,NA,NA,NA,NA,NA,NA,NA,NA,NA,NA,NA,NA,NA,NA,NA,NA,NA,NA,NA,NA,NA,NA,NA,NA,NA,NA,NA,NA,NA,NA,NA,NA,NA,NA,NA,NA,NA,NA,NA,NA,NA,NA,NA,NA,NA,NA,NA,NA
SUPAMT03640,NA,9056A2B5-1C9D-4F6A-AA58-448808E4733C,2023-09-28_19h34.37.593,WP_VExplicitOC_HL,2022.2.5,Win32,16.53931395,NA,NA,NA,NA,NA,NA,NA,NA,NA,NA,NA,NA,NA,NA,NA,NA,NA,NA,NA,NA,daydream,NA,NA,NA,NA,NA,NA,NA,NA,NA,NA,NA,NA,NA,NA,NA,NA,NA,NA,NA,NA,NA,NA,NA,NA,NA,NA,NA,NA,NA,NA,NA,NA,NA,NA,NA,NA,NA,NA
SUPAMT03640,NA,9056A2B5-1C9D-4F6A-AA58-448808E4733C,2023-09-28_19h34.37.593,WP_VExplicitOC_HL,2022.2.5,Win32,16.53931395,55.859375,4.8292,2.0056,NA,NA,NA,NA,NA,happy,"unhappy, happy","less happy, more happy",NA,NA,NA,NA,NA,NA,NA,NA,NA,NA,0,0,0,0,1,NA,NA,NA,NA,NA,NA,NA,NA,NA,NA,NA,NA,NA,NA,NA,NA,NA,NA,NA,NA,NA,NA,NA,NA,NA,NA,NA,NA,NA,NA,NA,NA,NA
SUPAMT03640,NA,9056A2B5-1C9D-4F6A-AA58-448808E4733C,2023-09-28_19h34.37.593,WP_VExplicitOC_HL,2022.2.5,Win32,16.53931395,55.859375,3.3884,2.0718,NA,NA,NA,NA,NA,bored,"bored, not bored","more bored, less bored",NA,NA,NA,NA,NA,NA,NA,NA,NA,NA,0,1,1,2,1,NA,NA,NA,NA,NA,NA,NA,NA,NA,NA,NA,NA,NA,NA,NA,NA,NA,NA,NA,NA,NA,NA,NA,NA,NA,NA,NA,NA,NA,NA,NA,NA,NA
SUPAMT03640,NA,9056A2B5-1C9D-4F6A-AA58-448808E4733C,2023-09-28_19h34.37.593,WP_VExplicitOC_HL,2022.2.5,Win32,16.53931395,55.6640625,6.0129,2.059,NA,NA,NA,NA,NA,frustrated,"frustrated, not frustrated","more frustrated, less frustrated",NA,NA,NA,NA,NA,NA,NA,NA,NA,NA,0,2,2,1,1,NA,NA,NA,NA,NA,NA,NA,NA,NA,NA,NA,NA,NA,NA,NA,NA,NA,NA,NA,NA,NA,NA,NA,NA,NA,NA,NA,NA,NA,NA,NA,NA,NA
SUPAMT03640,NA,9056A2B5-1C9D-4F6A-AA58-448808E4733C,2023-09-28_19h34.37.593,WP_VExplicitOC_HL,2022.2.5,Win32,16.53931395,NA,NA,NA,NA,NA,NA,NA,NA,NA,NA,NA,NA,NA,NA,NA,NA,NA,NA,NA,NA,NA,NA,NA,NA,NA,NA,NA,NA,NA,NA,NA,NA,NA,NA,NA,NA,NA,NA,NA,NA,NA,NA,NA,NA,NA,NA,NA,NA,NA,NA,NA,NA,NA,NA,NA,NA,NA,NA,NA
SUPAMT03640,NA,9056A2B5-1C9D-4F6A-AA58-448808E4733C,2023-09-28_19h34.37.593,WP_VExplicitOC_HL,2022.2.5,Win32,16.53931395,NA,NA,NA,NA,NA,NA,NA,NA,NA,NA,NA,NA,NA,NA,NA,NA,NA,NA,NA,NA,NA,NA,NA,NA,NA,NA,NA,NA,NA,NA,NA,NA,NA,NA,NA,NA,NA,NA,NA,NA,NA,NA,NA,NA,NA,NA,NA,NA,NA,NA,NA,NA,NA,NA,NA,NA,NA,NA,NA
SUPAMT03640,NA,9056A2B5-1C9D-4F6A-AA58-448808E4733C,2023-09-28_19h34.37.593,WP_VExplicitOC_HL,2022.2.5,Win32,16.53931395,79.4921875,4.2181,2.0349,NA,NA,NA,NA,NA,bored,"bored, not bored","more bored, less bored",NA,NA,NA,NA,NA,NA,NA,NA,NA,NA,NA,NA,NA,NA,NA,0,0,0,2,1,NA,NA,NA,NA,NA,NA,NA,NA,NA,NA,NA,NA,NA,NA,NA,NA,NA,NA,NA,NA,NA,NA,NA,NA,NA,NA,NA,NA
SUPAMT03640,NA,9056A2B5-1C9D-4F6A-AA58-448808E4733C,2023-09-28_19h34.37.593,WP_VExplicitOC_HL,2022.2.5,Win32,16.53931395,54.1015625,3.2245,2.0326,NA,NA,NA,NA,NA,frustrated,"frustrated, not frustrated","more frustrated, less frustrated",NA,NA,NA,NA,NA,NA,NA,NA,NA,NA,NA,NA,NA,NA,NA,0,1,1,1,1,NA,NA,NA,NA,NA,NA,NA,NA,NA,NA,NA,NA,NA,NA,NA,NA,NA,NA,NA,NA,NA,NA,NA,NA,NA,NA,NA,NA
SUPAMT03640,NA,9056A2B5-1C9D-4F6A-AA58-448808E4733C,2023-09-28_19h34.37.593,WP_VExplicitOC_HL,2022.2.5,Win32,16.53931395,54.1015625,5.6989,2.0408,NA,NA,NA,NA,NA,happy,"unhappy, happy","less happy, more happy",NA,NA,NA,NA,NA,NA,NA,NA,NA,NA,NA,NA,NA,NA,NA,0,2,2,0,1,NA,NA,NA,NA,NA,NA,NA,NA,NA,NA,NA,NA,NA,NA,NA,NA,NA,NA,NA,NA,NA,NA,NA,NA,NA,NA,NA,NA
SUPAMT03640,NA,9056A2B5-1C9D-4F6A-AA58-448808E4733C,2023-09-28_19h34.37.593,WP_VExplicitOC_HL,2022.2.5,Win32,16.53931395,NA,NA,NA,NA,NA,NA,NA,NA,NA,NA,NA,NA,NA,NA,NA,NA,NA,NA,NA,NA,NA,NA,NA,NA,NA,NA,NA,NA,NA,NA,NA,0,0,0,0,1,NA,NA,NA,NA,NA,NA,NA,NA,NA,NA,NA,NA,NA,NA,NA,NA,NA,NA,NA,NA,NA,NA,NA
SUPAMT03640,NA,9056A2B5-1C9D-4F6A-AA58-448808E4733C,2023-09-28_19h34.37.593,WP_VExplicitOC_HL,2022.2.5,Win32,16.53931395,46.875,3.2869,2.05,NA,NA,NA,NA,NA,frustrated,"frustrated, not frustrated","more frustrated, less frustrated",NA,NA,NA,NA,NA,NA,NA,NA,NA,NA,NA,NA,NA,NA,NA,0,0,0,1,1,NA,NA,NA,NA,NA,NA,NA,NA,NA,NA,NA,NA,NA,NA,NA,NA,NA,NA,NA,NA,NA,NA,NA,NA,NA,NA,NA,NA
SUPAMT03640,NA,9056A2B5-1C9D-4F6A-AA58-448808E4733C,2023-09-28_19h34.37.593,WP_VExplicitOC_HL,2022.2.5,Win32,16.53931395,76.3671875,3.2251,2.0459,NA,NA,NA,NA,NA,happy,"unhappy, happy","less happy, more happy",NA,NA,NA,NA,NA,NA,NA,NA,NA,NA,NA,NA,NA,NA,NA,0,1,1,0,1,NA,NA,NA,NA,NA,NA,NA,NA,NA,NA,NA,NA,NA,NA,NA,NA,NA,NA,NA,NA,NA,NA,NA,NA,NA,NA,NA,NA
SUPAMT03640,NA,9056A2B5-1C9D-4F6A-AA58-448808E4733C,2023-09-28_19h34.37.593,WP_VExplicitOC_HL,2022.2.5,Win32,16.53931395,74.8046875,3.8153,2.0156,NA,NA,NA,NA,NA,bored,"bored, not bored","more bored, less bored",NA,NA,NA,NA,NA,NA,NA,NA,NA,NA,NA,NA,NA,NA,NA,0,2,2,2,1,NA,NA,NA,NA,NA,NA,NA,NA,NA,NA,NA,NA,NA,NA,NA,NA,NA,NA,NA,NA,NA,NA,NA,NA,NA,NA,NA,NA
SUPAMT03640,NA,9056A2B5-1C9D-4F6A-AA58-448808E4733C,2023-09-28_19h34.37.593,WP_VExplicitOC_HL,2022.2.5,Win32,16.53931395,NA,NA,NA,NA,NA,NA,NA,NA,NA,NA,NA,NA,NA,NA,NA,NA,NA,NA,NA,NA,NA,NA,NA,NA,NA,NA,NA,NA,NA,NA,NA,1,0,1,0,1,NA,NA,NA,NA,NA,NA,NA,NA,NA,NA,NA,NA,NA,NA,NA,NA,NA,NA,NA,NA,NA,NA,NA
SUPAMT03640,NA,9056A2B5-1C9D-4F6A-AA58-448808E4733C,2023-09-28_19h34.37.593,WP_VExplicitOC_HL,2022.2.5,Win32,16.53931395,74.8046875,3.1109,2.0278,NA,NA,NA,NA,NA,happy,"unhappy, happy","less happy, more happy",NA,NA,NA,NA,NA,NA,NA,NA,NA,NA,NA,NA,NA,NA,NA,0,0,0,0,1,NA,NA,NA,NA,NA,NA,NA,NA,NA,NA,NA,NA,NA,NA,NA,NA,NA,NA,NA,NA,NA,NA,NA,NA,NA,NA,NA,NA
SUPAMT03640,NA,9056A2B5-1C9D-4F6A-AA58-448808E4733C,2023-09-28_19h34.37.593,WP_VExplicitOC_HL,2022.2.5,Win32,16.53931395,55.6640625,3.5194,2.0351,NA,NA,NA,NA,NA,frustrated,"frustrated, not frustrated","more frustrated, less frustrated",NA,NA,NA,NA,NA,NA,NA,NA,NA,NA,NA,NA,NA,NA,NA,0,1,1,1,1,NA,NA,NA,NA,NA,NA,NA,NA,NA,NA,NA,NA,NA,NA,NA,NA,NA,NA,NA,NA,NA,NA,NA,NA,NA,NA,NA,NA
SUPAMT03640,NA,9056A2B5-1C9D-4F6A-AA58-448808E4733C,2023-09-28_19h34.37.593,WP_VExplicitOC_HL,2022.2.5,Win32,16.53931395,79.6875,3.2608,2.0579,NA,NA,NA,NA,NA,bored,"bored, not bored","more bored, less bored",NA,NA,NA,NA,NA,NA,NA,NA,NA,NA,NA,NA,NA,NA,NA,0,2,2,2,1,NA,NA,NA,NA,NA,NA,NA,NA,NA,NA,NA,NA,NA,NA,NA,NA,NA,NA,NA,NA,NA,NA,NA,NA,NA,NA,NA,NA
SUPAMT03640,NA,9056A2B5-1C9D-4F6A-AA58-448808E4733C,2023-09-28_19h34.37.593,WP_VExplicitOC_HL,2022.2.5,Win32,16.53931395,NA,NA,NA,NA,NA,NA,NA,NA,NA,NA,NA,NA,NA,NA,NA,NA,NA,NA,NA,NA,NA,NA,NA,NA,NA,NA,NA,NA,NA,NA,NA,2,0,2,0,1,NA,NA,NA,NA,NA,NA,NA,NA,NA,NA,NA,NA,NA,NA,NA,NA,NA,NA,NA,NA,NA,NA,NA
SUPAMT03640,NA,9056A2B5-1C9D-4F6A-AA58-448808E4733C,2023-09-28_19h34.37.593,WP_VExplicitOC_HL,2022.2.5,Win32,16.53931395,81.8359375,3.2777,2.0037,NA,NA,NA,NA,NA,happy,"unhappy, happy","less happy, more happy",NA,NA,NA,NA,NA,NA,NA,NA,NA,NA,NA,NA,NA,NA,NA,0,0,0,0,1,NA,NA,NA,NA,NA,NA,NA,NA,NA,NA,NA,NA,NA,NA,NA,NA,NA,NA,NA,NA,NA,NA,NA,NA,NA,NA,NA,NA
SUPAMT03640,NA,9056A2B5-1C9D-4F6A-AA58-448808E4733C,2023-09-28_19h34.37.593,WP_VExplicitOC_HL,2022.2.5,Win32,16.53931395,54.6875,2.9856,2.0493,NA,NA,NA,NA,NA,frustrated,"frustrated, not frustrated","more frustrated, less frustrated",NA,NA,NA,NA,NA,NA,NA,NA,NA,NA,NA,NA,NA,NA,NA,0,1,1,1,1,NA,NA,NA,NA,NA,NA,NA,NA,NA,NA,NA,NA,NA,NA,NA,NA,NA,NA,NA,NA,NA,NA,NA,NA,NA,NA,NA,NA
SUPAMT03640,NA,9056A2B5-1C9D-4F6A-AA58-448808E4733C,2023-09-28_19h34.37.593,WP_VExplicitOC_HL,2022.2.5,Win32,16.53931395,84.9609375,3.3009,2.0471,NA,NA,NA,NA,NA,bored,"bored, not bored","more bored, less bored",NA,NA,NA,NA,NA,NA,NA,NA,NA,NA,NA,NA,NA,NA,NA,0,2,2,2,1,NA,NA,NA,NA,NA,NA,NA,NA,NA,NA,NA,NA,NA,NA,NA,NA,NA,NA,NA,NA,NA,NA,NA,NA,NA,NA,NA,NA
SUPAMT03640,NA,9056A2B5-1C9D-4F6A-AA58-448808E4733C,2023-09-28_19h34.37.593,WP_VExplicitOC_HL,2022.2.5,Win32,16.53931395,NA,NA,NA,NA,NA,NA,NA,NA,NA,NA,NA,NA,NA,NA,NA,NA,NA,NA,NA,NA,NA,NA,NA,NA,NA,NA,NA,NA,NA,NA,NA,3,0,3,0,1,NA,NA,NA,NA,NA,NA,NA,NA,NA,NA,NA,NA,NA,NA,NA,NA,NA,NA,NA,NA,NA,NA,NA
SUPAMT03640,NA,9056A2B5-1C9D-4F6A-AA58-448808E4733C,2023-09-28_19h34.37.593,WP_VExplicitOC_HL,2022.2.5,Win32,16.53931395,85.546875,3.56,2.0408,NA,NA,NA,NA,NA,happy,"unhappy, happy","less happy, more happy",NA,NA,NA,NA,NA,NA,NA,NA,NA,NA,NA,NA,NA,NA,NA,0,0,0,0,1,NA,NA,NA,NA,NA,NA,NA,NA,NA,NA,NA,NA,NA,NA,NA,NA,NA,NA,NA,NA,NA,NA,NA,NA,NA,NA,NA,NA
SUPAMT03640,NA,9056A2B5-1C9D-4F6A-AA58-448808E4733C,2023-09-28_19h34.37.593,WP_VExplicitOC_HL,2022.2.5,Win32,16.53931395,55.6640625,3.0813,2.0327,NA,NA,NA,NA,NA,bored,"bored, not bored","more bored, less bored",NA,NA,NA,NA,NA,NA,NA,NA,NA,NA,NA,NA,NA,NA,NA,0,1,1,2,1,NA,NA,NA,NA,NA,NA,NA,NA,NA,NA,NA,NA,NA,NA,NA,NA,NA,NA,NA,NA,NA,NA,NA,NA,NA,NA,NA,NA
SUPAMT03640,NA,9056A2B5-1C9D-4F6A-AA58-448808E4733C,2023-09-28_19h34.37.593,WP_VExplicitOC_HL,2022.2.5,Win32,16.53931395,80.078125,3.6307,2.0406,NA,NA,NA,NA,NA,frustrated,"frustrated, not frustrated","more frustrated, less frustrated",NA,NA,NA,NA,NA,NA,NA,NA,NA,NA,NA,NA,NA,NA,NA,0,2,2,1,1,NA,NA,NA,NA,NA,NA,NA,NA,NA,NA,NA,NA,NA,NA,NA,NA,NA,NA,NA,NA,NA,NA,NA,NA,NA,NA,NA,NA
SUPAMT03640,NA,9056A2B5-1C9D-4F6A-AA58-448808E4733C,2023-09-28_19h34.37.593,WP_VExplicitOC_HL,2022.2.5,Win32,16.53931395,NA,NA,NA,NA,NA,NA,NA,NA,NA,NA,NA,NA,NA,NA,NA,NA,NA,NA,NA,NA,NA,NA,NA,NA,NA,NA,NA,NA,NA,NA,NA,4,0,4,0,1,NA,NA,NA,NA,NA,NA,NA,NA,NA,NA,NA,NA,NA,NA,NA,NA,NA,NA,NA,NA,NA,NA,NA
SUPAMT03640,NA,9056A2B5-1C9D-4F6A-AA58-448808E4733C,2023-09-28_19h34.37.593,WP_VExplicitOC_HL,2022.2.5,Win32,16.53931395,77.5390625,3.8193,2.0602,NA,NA,NA,NA,NA,bored,"bored, not bored","more bored, less bored",NA,NA,NA,NA,NA,NA,NA,NA,NA,NA,NA,NA,NA,NA,NA,0,0,0,2,1,NA,NA,NA,NA,NA,NA,NA,NA,NA,NA,NA,NA,NA,NA,NA,NA,NA,NA,NA,NA,NA,NA,NA,NA,NA,NA,NA,NA
SUPAMT03640,NA,9056A2B5-1C9D-4F6A-AA58-448808E4733C,2023-09-28_19h34.37.593,WP_VExplicitOC_HL,2022.2.5,Win32,16.53931395,52.734375,3.5334,2.0313,NA,NA,NA,NA,NA,frustrated,"frustrated, not frustrated","more frustrated, less frustrated",NA,NA,NA,NA,NA,NA,NA,NA,NA,NA,NA,NA,NA,NA,NA,0,1,1,1,1,NA,NA,NA,NA,NA,NA,NA,NA,NA,NA,NA,NA,NA,NA,NA,NA,NA,NA,NA,NA,NA,NA,NA,NA,NA,NA,NA,NA
SUPAMT03640,NA,9056A2B5-1C9D-4F6A-AA58-448808E4733C,2023-09-28_19h34.37.593,WP_VExplicitOC_HL,2022.2.5,Win32,16.53931395,75,3.3359,2.0628,NA,NA,NA,NA,NA,happy,"unhappy, happy","less happy, more happy",NA,NA,NA,NA,NA,NA,NA,NA,NA,NA,NA,NA,NA,NA,NA,0,2,2,0,1,NA,NA,NA,NA,NA,NA,NA,NA,NA,NA,NA,NA,NA,NA,NA,NA,NA,NA,NA,NA,NA,NA,NA,NA,NA,NA,NA,NA
SUPAMT03640,NA,9056A2B5-1C9D-4F6A-AA58-448808E4733C,2023-09-28_19h34.37.593,WP_VExplicitOC_HL,2022.2.5,Win32,16.53931395,NA,NA,NA,NA,NA,NA,NA,NA,NA,NA,NA,NA,NA,NA,NA,NA,NA,NA,NA,NA,NA,NA,NA,NA,NA,NA,NA,NA,NA,NA,NA,5,0,5,0,1,NA,NA,NA,NA,NA,NA,NA,NA,NA,NA,NA,NA,NA,NA,NA,NA,NA,NA,NA,NA,NA,NA,NA
SUPAMT03640,NA,9056A2B5-1C9D-4F6A-AA58-448808E4733C,2023-09-28_19h34.37.593,WP_VExplicitOC_HL,2022.2.5,Win32,16.53931395,76.3671875,3.3937,2.0284,NA,NA,NA,NA,NA,bored,"bored, not bored","more bored, less bored",NA,NA,NA,NA,NA,NA,NA,NA,NA,NA,NA,NA,NA,NA,NA,0,0,0,2,1,NA,NA,NA,NA,NA,NA,NA,NA,NA,NA,NA,NA,NA,NA,NA,NA,NA,NA,NA,NA,NA,NA,NA,NA,NA,NA,NA,NA
SUPAMT03640,NA,9056A2B5-1C9D-4F6A-AA58-448808E4733C,2023-09-28_19h34.37.593,WP_VExplicitOC_HL,2022.2.5,Win32,16.53931395,60.9375,3.0269,2.0289,NA,NA,NA,NA,NA,happy,"unhappy, happy","less happy, more happy",NA,NA,NA,NA,NA,NA,NA,NA,NA,NA,NA,NA,NA,NA,NA,0,1,1,0,1,NA,NA,NA,NA,NA,NA,NA,NA,NA,NA,NA,NA,NA,NA,NA,NA,NA,NA,NA,NA,NA,NA,NA,NA,NA,NA,NA,NA
SUPAMT03640,NA,9056A2B5-1C9D-4F6A-AA58-448808E4733C,2023-09-28_19h34.37.593,WP_VExplicitOC_HL,2022.2.5,Win32,16.53931395,79.6875,2.9889,2.0597,NA,NA,NA,NA,NA,frustrated,"frustrated, not frustrated","more frustrated, less frustrated",NA,NA,NA,NA,NA,NA,NA,NA,NA,NA,NA,NA,NA,NA,NA,0,2,2,1,1,NA,NA,NA,NA,NA,NA,NA,NA,NA,NA,NA,NA,NA,NA,NA,NA,NA,NA,NA,NA,NA,NA,NA,NA,NA,NA,NA,NA
SUPAMT03640,NA,9056A2B5-1C9D-4F6A-AA58-448808E4733C,2023-09-28_19h34.37.593,WP_VExplicitOC_HL,2022.2.5,Win32,16.53931395,NA,NA,NA,NA,NA,NA,NA,NA,NA,NA,NA,NA,NA,NA,NA,NA,NA,NA,NA,NA,NA,NA,NA,NA,NA,NA,NA,NA,NA,NA,NA,6,0,6,0,1,NA,NA,NA,NA,NA,NA,NA,NA,NA,NA,NA,NA,NA,NA,NA,NA,NA,NA,NA,NA,NA,NA,NA
SUPAMT03640,NA,9056A2B5-1C9D-4F6A-AA58-448808E4733C,2023-09-28_19h34.37.593,WP_VExplicitOC_HL,2022.2.5,Win32,16.53931395,73.046875,3.9668,2.0761,NA,NA,NA,NA,NA,bored,"bored, not bored","more bored, less bored",NA,NA,NA,NA,NA,NA,NA,NA,NA,NA,NA,NA,NA,NA,NA,0,0,0,2,1,NA,NA,NA,NA,NA,NA,NA,NA,NA,NA,NA,NA,NA,NA,NA,NA,NA,NA,NA,NA,NA,NA,NA,NA,NA,NA,NA,NA
SUPAMT03640,NA,9056A2B5-1C9D-4F6A-AA58-448808E4733C,2023-09-28_19h34.37.593,WP_VExplicitOC_HL,2022.2.5,Win32,16.53931395,61.1328125,3.2845,2.0228,NA,NA,NA,NA,NA,happy,"unhappy, happy","less happy, more happy",NA,NA,NA,NA,NA,NA,NA,NA,NA,NA,NA,NA,NA,NA,NA,0,1,1,0,1,NA,NA,NA,NA,NA,NA,NA,NA,NA,NA,NA,NA,NA,NA,NA,NA,NA,NA,NA,NA,NA,NA,NA,NA,NA,NA,NA,NA
SUPAMT03640,NA,9056A2B5-1C9D-4F6A-AA58-448808E4733C,2023-09-28_19h34.37.593,WP_VExplicitOC_HL,2022.2.5,Win32,16.53931395,85.7421875,3.9889,2.0325,NA,NA,NA,NA,NA,frustrated,"frustrated, not frustrated","more frustrated, less frustrated",NA,NA,NA,NA,NA,NA,NA,NA,NA,NA,NA,NA,NA,NA,NA,0,2,2,1,1,NA,NA,NA,NA,NA,NA,NA,NA,NA,NA,NA,NA,NA,NA,NA,NA,NA,NA,NA,NA,NA,NA,NA,NA,NA,NA,NA,NA
SUPAMT03640,NA,9056A2B5-1C9D-4F6A-AA58-448808E4733C,2023-09-28_19h34.37.593,WP_VExplicitOC_HL,2022.2.5,Win32,16.53931395,NA,NA,NA,NA,NA,NA,NA,NA,NA,NA,NA,NA,NA,NA,NA,NA,NA,NA,NA,NA,NA,NA,NA,NA,NA,NA,NA,NA,NA,NA,NA,7,0,7,0,1,NA,NA,NA,NA,NA,NA,NA,NA,NA,NA,NA,NA,NA,NA,NA,NA,NA,NA,NA,NA,NA,NA,NA
SUPAMT03640,NA,9056A2B5-1C9D-4F6A-AA58-448808E4733C,2023-09-28_19h34.37.593,WP_VExplicitOC_HL,2022.2.5,Win32,16.53931395,71.484375,4.1791,2.0227,NA,NA,NA,NA,NA,happy,"unhappy, happy","less happy, more happy",NA,NA,NA,NA,NA,NA,NA,NA,NA,NA,NA,NA,NA,NA,NA,0,0,0,0,1,NA,NA,NA,NA,NA,NA,NA,NA,NA,NA,NA,NA,NA,NA,NA,NA,NA,NA,NA,NA,NA,NA,NA,NA,NA,NA,NA,NA
SUPAMT03640,NA,9056A2B5-1C9D-4F6A-AA58-448808E4733C,2023-09-28_19h34.37.593,WP_VExplicitOC_HL,2022.2.5,Win32,16.53931395,81.0546875,3.5841,2.0263,NA,NA,NA,NA,NA,frustrated,"frustrated, not frustrated","more frustrated, less frustrated",NA,NA,NA,NA,NA,NA,NA,NA,NA,NA,NA,NA,NA,NA,NA,0,1,1,1,1,NA,NA,NA,NA,NA,NA,NA,NA,NA,NA,NA,NA,NA,NA,NA,NA,NA,NA,NA,NA,NA,NA,NA,NA,NA,NA,NA,NA
SUPAMT03640,NA,9056A2B5-1C9D-4F6A-AA58-448808E4733C,2023-09-28_19h34.37.593,WP_VExplicitOC_HL,2022.2.5,Win32,16.53931395,56.4453125,2.961,2.0617,NA,NA,NA,NA,NA,bored,"bored, not bored","more bored, less bored",NA,NA,NA,NA,NA,NA,NA,NA,NA,NA,NA,NA,NA,NA,NA,0,2,2,2,1,NA,NA,NA,NA,NA,NA,NA,NA,NA,NA,NA,NA,NA,NA,NA,NA,NA,NA,NA,NA,NA,NA,NA,NA,NA,NA,NA,NA
SUPAMT03640,NA,9056A2B5-1C9D-4F6A-AA58-448808E4733C,2023-09-28_19h34.37.593,WP_VExplicitOC_HL,2022.2.5,Win32,16.53931395,NA,NA,NA,NA,NA,NA,NA,NA,NA,NA,NA,NA,NA,NA,NA,NA,NA,NA,NA,NA,NA,NA,NA,NA,NA,NA,NA,NA,NA,NA,NA,8,0,8,0,1,NA,NA,NA,NA,NA,NA,NA,NA,NA,NA,NA,NA,NA,NA,NA,NA,NA,NA,NA,NA,NA,NA,NA
SUPAMT03640,NA,9056A2B5-1C9D-4F6A-AA58-448808E4733C,2023-09-28_19h34.37.593,WP_VExplicitOC_HL,2022.2.5,Win32,16.53931395,77.9296875,3.421,2.0419,NA,NA,NA,NA,NA,happy,"unhappy, happy","less happy, more happy",NA,NA,NA,NA,NA,NA,NA,NA,NA,NA,NA,NA,NA,NA,NA,0,0,0,0,1,NA,NA,NA,NA,NA,NA,NA,NA,NA,NA,NA,NA,NA,NA,NA,NA,NA,NA,NA,NA,NA,NA,NA,NA,NA,NA,NA,NA
SUPAMT03640,NA,9056A2B5-1C9D-4F6A-AA58-448808E4733C,2023-09-28_19h34.37.593,WP_VExplicitOC_HL,2022.2.5,Win32,16.53931395,47.4609375,3.5206,2.0131,NA,NA,NA,NA,NA,frustrated,"frustrated, not frustrated","more frustrated, less frustrated",NA,NA,NA,NA,NA,NA,NA,NA,NA,NA,NA,NA,NA,NA,NA,0,1,1,1,1,NA,NA,NA,NA,NA,NA,NA,NA,NA,NA,NA,NA,NA,NA,NA,NA,NA,NA,NA,NA,NA,NA,NA,NA,NA,NA,NA,NA
SUPAMT03640,NA,9056A2B5-1C9D-4F6A-AA58-448808E4733C,2023-09-28_19h34.37.593,WP_VExplicitOC_HL,2022.2.5,Win32,16.53931395,69.53125,3.0474,2.0603,NA,NA,NA,NA,NA,bored,"bored, not bored","more bored, less bored",NA,NA,NA,NA,NA,NA,NA,NA,NA,NA,NA,NA,NA,NA,NA,0,2,2,2,1,NA,NA,NA,NA,NA,NA,NA,NA,NA,NA,NA,NA,NA,NA,NA,NA,NA,NA,NA,NA,NA,NA,NA,NA,NA,NA,NA,NA
SUPAMT03640,NA,9056A2B5-1C9D-4F6A-AA58-448808E4733C,2023-09-28_19h34.37.593,WP_VExplicitOC_HL,2022.2.5,Win32,16.53931395,NA,NA,NA,NA,NA,NA,NA,NA,NA,NA,NA,NA,NA,NA,NA,NA,NA,NA,NA,NA,NA,NA,NA,NA,NA,NA,NA,NA,NA,NA,NA,9,0,9,0,1,NA,NA,NA,NA,NA,NA,NA,NA,NA,NA,NA,NA,NA,NA,NA,NA,NA,NA,NA,NA,NA,NA,NA
SUPAMT03640,NA,9056A2B5-1C9D-4F6A-AA58-448808E4733C,2023-09-28_19h34.37.593,WP_VExplicitOC_HL,2022.2.5,Win32,16.53931395,71.2890625,4.0048,2.0425,NA,NA,NA,NA,NA,frustrated,"frustrated, not frustrated","more frustrated, less frustrated",NA,NA,NA,NA,NA,NA,NA,NA,NA,NA,NA,NA,NA,NA,NA,0,0,0,1,1,NA,NA,NA,NA,NA,NA,NA,NA,NA,NA,NA,NA,NA,NA,NA,NA,NA,NA,NA,NA,NA,NA,NA,NA,NA,NA,NA,NA
SUPAMT03640,NA,9056A2B5-1C9D-4F6A-AA58-448808E4733C,2023-09-28_19h34.37.593,WP_VExplicitOC_HL,2022.2.5,Win32,16.53931395,44.7265625,3.3812,2.0474,NA,NA,NA,NA,NA,bored,"bored, not bored","more bored, less bored",NA,NA,NA,NA,NA,NA,NA,NA,NA,NA,NA,NA,NA,NA,NA,0,1,1,2,1,NA,NA,NA,NA,NA,NA,NA,NA,NA,NA,NA,NA,NA,NA,NA,NA,NA,NA,NA,NA,NA,NA,NA,NA,NA,NA,NA,NA
SUPAMT03640,NA,9056A2B5-1C9D-4F6A-AA58-448808E4733C,2023-09-28_19h34.37.593,WP_VExplicitOC_HL,2022.2.5,Win32,16.53931395,71.09375,2.4824,2.0304,NA,NA,NA,NA,NA,happy,"unhappy, happy","less happy, more happy",NA,NA,NA,NA,NA,NA,NA,NA,NA,NA,NA,NA,NA,NA,NA,0,2,2,0,1,NA,NA,NA,NA,NA,NA,NA,NA,NA,NA,NA,NA,NA,NA,NA,NA,NA,NA,NA,NA,NA,NA,NA,NA,NA,NA,NA,NA
SUPAMT03640,NA,9056A2B5-1C9D-4F6A-AA58-448808E4733C,2023-09-28_19h34.37.593,WP_VExplicitOC_HL,2022.2.5,Win32,16.53931395,NA,NA,NA,NA,NA,NA,NA,NA,NA,NA,NA,NA,NA,NA,NA,NA,NA,NA,NA,NA,NA,NA,NA,NA,NA,NA,NA,NA,NA,NA,NA,10,0,10,0,1,NA,NA,NA,NA,NA,NA,NA,NA,NA,NA,NA,NA,NA,NA,NA,NA,NA,NA,NA,NA,NA,NA,NA
SUPAMT03640,NA,9056A2B5-1C9D-4F6A-AA58-448808E4733C,2023-09-28_19h34.37.593,WP_VExplicitOC_HL,2022.2.5,Win32,16.53931395,73.2421875,4.0776,2.0098,NA,NA,NA,NA,NA,frustrated,"frustrated, not frustrated","more frustrated, less frustrated",NA,NA,NA,NA,NA,NA,NA,NA,NA,NA,NA,NA,NA,NA,NA,0,0,0,1,1,NA,NA,NA,NA,NA,NA,NA,NA,NA,NA,NA,NA,NA,NA,NA,NA,NA,NA,NA,NA,NA,NA,NA,NA,NA,NA,NA,NA
SUPAMT03640,NA,9056A2B5-1C9D-4F6A-AA58-448808E4733C,2023-09-28_19h34.37.593,WP_VExplicitOC_HL,2022.2.5,Win32,16.53931395,71.875,3.4384,2.0996,NA,NA,NA,NA,NA,happy,"unhappy, happy","less happy, more happy",NA,NA,NA,NA,NA,NA,NA,NA,NA,NA,NA,NA,NA,NA,NA,0,1,1,0,1,NA,NA,NA,NA,NA,NA,NA,NA,NA,NA,NA,NA,NA,NA,NA,NA,NA,NA,NA,NA,NA,NA,NA,NA,NA,NA,NA,NA
SUPAMT03640,NA,9056A2B5-1C9D-4F6A-AA58-448808E4733C,2023-09-28_19h34.37.593,WP_VExplicitOC_HL,2022.2.5,Win32,16.53931395,71.875,3.2719,2.0093,NA,NA,NA,NA,NA,bored,"bored, not bored","more bored, less bored",NA,NA,NA,NA,NA,NA,NA,NA,NA,NA,NA,NA,NA,NA,NA,0,2,2,2,1,NA,NA,NA,NA,NA,NA,NA,NA,NA,NA,NA,NA,NA,NA,NA,NA,NA,NA,NA,NA,NA,NA,NA,NA,NA,NA,NA,NA
SUPAMT03640,NA,9056A2B5-1C9D-4F6A-AA58-448808E4733C,2023-09-28_19h34.37.593,WP_VExplicitOC_HL,2022.2.5,Win32,16.53931395,NA,NA,NA,NA,NA,NA,NA,NA,NA,NA,NA,NA,NA,NA,NA,NA,NA,NA,NA,NA,NA,NA,NA,NA,NA,NA,NA,NA,NA,NA,NA,11,0,11,0,1,NA,NA,NA,NA,NA,NA,NA,NA,NA,NA,NA,NA,NA,NA,NA,NA,NA,NA,NA,NA,NA,NA,NA
SUPAMT03640,NA,9056A2B5-1C9D-4F6A-AA58-448808E4733C,2023-09-28_19h34.37.593,WP_VExplicitOC_HL,2022.2.5,Win32,16.53931395,76.5625,3.8019,2.0137,NA,NA,NA,NA,NA,bored,"bored, not bored","more bored, less bored",NA,NA,NA,NA,NA,NA,NA,NA,NA,NA,NA,NA,NA,NA,NA,0,0,0,2,1,NA,NA,NA,NA,NA,NA,NA,NA,NA,NA,NA,NA,NA,NA,NA,NA,NA,NA,NA,NA,NA,NA,NA,NA,NA,NA,NA,NA
SUPAMT03640,NA,9056A2B5-1C9D-4F6A-AA58-448808E4733C,2023-09-28_19h34.37.593,WP_VExplicitOC_HL,2022.2.5,Win32,16.53931395,63.671875,3.0388,2.0585,NA,NA,NA,NA,NA,frustrated,"frustrated, not frustrated","more frustrated, less frustrated",NA,NA,NA,NA,NA,NA,NA,NA,NA,NA,NA,NA,NA,NA,NA,0,1,1,1,1,NA,NA,NA,NA,NA,NA,NA,NA,NA,NA,NA,NA,NA,NA,NA,NA,NA,NA,NA,NA,NA,NA,NA,NA,NA,NA,NA,NA
SUPAMT03640,NA,9056A2B5-1C9D-4F6A-AA58-448808E4733C,2023-09-28_19h34.37.593,WP_VExplicitOC_HL,2022.2.5,Win32,16.53931395,86.9140625,3.8915,2.0452,NA,NA,NA,NA,NA,happy,"unhappy, happy","less happy, more happy",NA,NA,NA,NA,NA,NA,NA,NA,NA,NA,NA,NA,NA,NA,NA,0,2,2,0,1,NA,NA,NA,NA,NA,NA,NA,NA,NA,NA,NA,NA,NA,NA,NA,NA,NA,NA,NA,NA,NA,NA,NA,NA,NA,NA,NA,NA
SUPAMT03640,NA,9056A2B5-1C9D-4F6A-AA58-448808E4733C,2023-09-28_19h34.37.593,WP_VExplicitOC_HL,2022.2.5,Win32,16.53931395,NA,NA,NA,NA,NA,NA,NA,NA,NA,NA,NA,NA,NA,NA,NA,NA,NA,NA,NA,NA,NA,NA,NA,NA,NA,NA,NA,NA,NA,NA,NA,12,0,12,0,1,NA,NA,NA,NA,NA,NA,NA,NA,NA,NA,NA,NA,NA,NA,NA,NA,NA,NA,NA,NA,NA,NA,NA
SUPAMT03640,NA,9056A2B5-1C9D-4F6A-AA58-448808E4733C,2023-09-28_19h34.37.593,WP_VExplicitOC_HL,2022.2.5,Win32,16.53931395,76.3671875,3.9053,2.0132,NA,NA,NA,NA,NA,happy,"unhappy, happy","less happy, more happy",NA,NA,NA,NA,NA,NA,NA,NA,NA,NA,NA,NA,NA,NA,NA,0,0,0,0,1,NA,NA,NA,NA,NA,NA,NA,NA,NA,NA,NA,NA,NA,NA,NA,NA,NA,NA,NA,NA,NA,NA,NA,NA,NA,NA,NA,NA
SUPAMT03640,NA,9056A2B5-1C9D-4F6A-AA58-448808E4733C,2023-09-28_19h34.37.593,WP_VExplicitOC_HL,2022.2.5,Win32,16.53931395,75.1953125,3.0876,2.026,NA,NA,NA,NA,NA,bored,"bored, not bored","more bored, less bored",NA,NA,NA,NA,NA,NA,NA,NA,NA,NA,NA,NA,NA,NA,NA,0,1,1,2,1,NA,NA,NA,NA,NA,NA,NA,NA,NA,NA,NA,NA,NA,NA,NA,NA,NA,NA,NA,NA,NA,NA,NA,NA,NA,NA,NA,NA
SUPAMT03640,NA,9056A2B5-1C9D-4F6A-AA58-448808E4733C,2023-09-28_19h34.37.593,WP_VExplicitOC_HL,2022.2.5,Win32,16.53931395,48.046875,3.1594,2.0122,NA,NA,NA,NA,NA,frustrated,"frustrated, not frustrated","more frustrated, less frustrated",NA,NA,NA,NA,NA,NA,NA,NA,NA,NA,NA,NA,NA,NA,NA,0,2,2,1,1,NA,NA,NA,NA,NA,NA,NA,NA,NA,NA,NA,NA,NA,NA,NA,NA,NA,NA,NA,NA,NA,NA,NA,NA,NA,NA,NA,NA
SUPAMT03640,NA,9056A2B5-1C9D-4F6A-AA58-448808E4733C,2023-09-28_19h34.37.593,WP_VExplicitOC_HL,2022.2.5,Win32,16.53931395,NA,NA,NA,NA,NA,NA,NA,NA,NA,NA,NA,NA,NA,NA,NA,NA,NA,NA,NA,NA,NA,NA,NA,NA,NA,NA,NA,NA,NA,NA,NA,13,0,13,0,1,NA,NA,NA,NA,NA,NA,NA,NA,NA,NA,NA,NA,NA,NA,NA,NA,NA,NA,NA,NA,NA,NA,NA
SUPAMT03640,NA,9056A2B5-1C9D-4F6A-AA58-448808E4733C,2023-09-28_19h34.37.593,WP_VExplicitOC_HL,2022.2.5,Win32,16.53931395,69.7265625,3.3436,2.0511,NA,NA,NA,NA,NA,frustrated,"frustrated, not frustrated","more frustrated, less frustrated",NA,NA,NA,NA,NA,NA,NA,NA,NA,NA,NA,NA,NA,NA,NA,0,0,0,1,1,NA,NA,NA,NA,NA,NA,NA,NA,NA,NA,NA,NA,NA,NA,NA,NA,NA,NA,NA,NA,NA,NA,NA,NA,NA,NA,NA,NA
SUPAMT03640,NA,9056A2B5-1C9D-4F6A-AA58-448808E4733C,2023-09-28_19h34.37.593,WP_VExplicitOC_HL,2022.2.5,Win32,16.53931395,80.2734375,3.6602,2.0099,NA,NA,NA,NA,NA,bored,"bored, not bored","more bored, less bored",NA,NA,NA,NA,NA,NA,NA,NA,NA,NA,NA,NA,NA,NA,NA,0,1,1,2,1,NA,NA,NA,NA,NA,NA,NA,NA,NA,NA,NA,NA,NA,NA,NA,NA,NA,NA,NA,NA,NA,NA,NA,NA,NA,NA,NA,NA
SUPAMT03640,NA,9056A2B5-1C9D-4F6A-AA58-448808E4733C,2023-09-28_19h34.37.593,WP_VExplicitOC_HL,2022.2.5,Win32,16.53931395,62.890625,3.0793,2.0366,NA,NA,NA,NA,NA,happy,"unhappy, happy","less happy, more happy",NA,NA,NA,NA,NA,NA,NA,NA,NA,NA,NA,NA,NA,NA,NA,0,2,2,0,1,NA,NA,NA,NA,NA,NA,NA,NA,NA,NA,NA,NA,NA,NA,NA,NA,NA,NA,NA,NA,NA,NA,NA,NA,NA,NA,NA,NA
SUPAMT03640,NA,9056A2B5-1C9D-4F6A-AA58-448808E4733C,2023-09-28_19h34.37.593,WP_VExplicitOC_HL,2022.2.5,Win32,16.53931395,NA,NA,NA,NA,NA,NA,NA,NA,NA,NA,NA,NA,NA,NA,NA,NA,NA,NA,NA,NA,NA,NA,NA,NA,NA,NA,NA,NA,NA,NA,NA,14,0,14,0,1,NA,NA,NA,NA,NA,NA,NA,NA,NA,NA,NA,NA,NA,NA,NA,NA,NA,NA,NA,NA,NA,NA,NA
SUPAMT03640,NA,9056A2B5-1C9D-4F6A-AA58-448808E4733C,2023-09-28_19h34.37.593,WP_VExplicitOC_HL,2022.2.5,Win32,16.53931395,NA,NA,NA,NA,NA,NA,NA,NA,NA,NA,NA,NA,NA,NA,NA,NA,NA,NA,NA,NA,NA,NA,NA,NA,NA,NA,NA,NA,NA,NA,NA,NA,NA,NA,NA,NA,NA,NA,NA,NA,NA,NA,NA,NA,NA,NA,NA,NA,NA,NA,NA,NA,NA,NA,NA,NA,NA,NA,NA
SUPAMT03640,NA,9056A2B5-1C9D-4F6A-AA58-448808E4733C,2023-09-28_19h34.37.593,WP_VExplicitOC_HL,2022.2.5,Win32,16.53931395,NA,NA,NA,NA,NA,NA,NA,NA,NA,NA,NA,NA,NA,NA,NA,NA,NA,NA,NA,NA,NA,NA,NA,NA,NA,NA,NA,NA,NA,NA,NA,NA,NA,NA,NA,NA,NA,NA,NA,NA,NA,NA,NA,NA,NA,NA,NA,NA,NA,NA,NA,NA,NA,NA,NA,NA,NA,NA,NA
SUPAMT03640,NA,9056A2B5-1C9D-4F6A-AA58-448808E4733C,2023-09-28_19h34.37.593,WP_VExplicitOC_HL,2022.2.5,Win32,16.53931395,NA,NA,NA,NA,NA,NA,NA,NA,NA,NA,NA,NA,NA,NA,NA,NA,NA,NA,rest (looking at a fixed cross),001.png,NA,NA,NA,NA,NA,NA,NA,NA,NA,NA,NA,NA,NA,NA,NA,NA,58.984375,3.3291,0,0,0,0,1,NA,NA,NA,NA,NA,NA,NA,NA,NA,NA,NA,NA,NA,NA,NA,NA
SUPAMT03640,NA,9056A2B5-1C9D-4F6A-AA58-448808E4733C,2023-09-28_19h34.37.593,WP_VExplicitOC_HL,2022.2.5,Win32,16.53931395,NA,NA,NA,NA,NA,NA,NA,NA,NA,NA,NA,NA,NA,NA,NA,NA,NA,NA,stand up,002.png,NA,NA,NA,NA,NA,NA,NA,NA,NA,NA,NA,NA,NA,NA,NA,NA,82.03125,0.9112,0,1,1,1,1,NA,NA,NA,NA,NA,NA,NA,NA,NA,NA,NA,NA,NA,NA,NA,NA
SUPAMT03640,NA,9056A2B5-1C9D-4F6A-AA58-448808E4733C,2023-09-28_19h34.37.593,WP_VExplicitOC_HL,2022.2.5,Win32,16.53931395,NA,NA,NA,NA,NA,NA,NA,NA,NA,NA,NA,NA,NA,NA,NA,NA,NA,NA,stretch,003.png,NA,NA,NA,NA,NA,NA,NA,NA,NA,NA,NA,NA,NA,NA,NA,NA,64.0625,1.1191,0,2,2,2,1,NA,NA,NA,NA,NA,NA,NA,NA,NA,NA,NA,NA,NA,NA,NA,NA
SUPAMT03640,NA,9056A2B5-1C9D-4F6A-AA58-448808E4733C,2023-09-28_19h34.37.593,WP_VExplicitOC_HL,2022.2.5,Win32,16.53931395,NA,NA,NA,NA,NA,NA,NA,NA,NA,NA,NA,NA,NA,NA,NA,NA,NA,NA,make a drink,004.png,NA,NA,NA,NA,NA,NA,NA,NA,NA,NA,NA,NA,NA,NA,NA,NA,79.4921875,0.8993,0,3,3,3,1,NA,NA,NA,NA,NA,NA,NA,NA,NA,NA,NA,NA,NA,NA,NA,NA
SUPAMT03640,NA,9056A2B5-1C9D-4F6A-AA58-448808E4733C,2023-09-28_19h34.37.593,WP_VExplicitOC_HL,2022.2.5,Win32,16.53931395,NA,NA,NA,NA,NA,NA,NA,NA,NA,NA,NA,NA,NA,NA,NA,NA,NA,NA,scroll social media,005.png,NA,NA,NA,NA,NA,NA,NA,NA,NA,NA,NA,NA,NA,NA,NA,NA,60.9375,0.9391,0,4,4,4,1,NA,NA,NA,NA,NA,NA,NA,NA,NA,NA,NA,NA,NA,NA,NA,NA
SUPAMT03640,NA,9056A2B5-1C9D-4F6A-AA58-448808E4733C,2023-09-28_19h34.37.593,WP_VExplicitOC_HL,2022.2.5,Win32,16.53931395,NA,NA,NA,NA,NA,NA,NA,NA,NA,NA,NA,NA,NA,NA,NA,NA,NA,NA,listen to music,006.png,NA,NA,NA,NA,NA,NA,NA,NA,NA,NA,NA,NA,NA,NA,NA,NA,48.046875,0.8904,0,5,5,5,1,NA,NA,NA,NA,NA,NA,NA,NA,NA,NA,NA,NA,NA,NA,NA,NA
SUPAMT03640,NA,9056A2B5-1C9D-4F6A-AA58-448808E4733C,2023-09-28_19h34.37.593,WP_VExplicitOC_HL,2022.2.5,Win32,16.53931395,NA,NA,NA,NA,NA,NA,NA,NA,NA,NA,NA,NA,NA,NA,NA,NA,NA,NA,daydream,007.png,NA,NA,NA,NA,NA,NA,NA,NA,NA,NA,NA,NA,NA,NA,NA,NA,74.0234375,0.8903,0,6,6,6,1,NA,NA,NA,NA,NA,NA,NA,NA,NA,NA,NA,NA,NA,NA,NA,NA
SUPAMT03640,NA,9056A2B5-1C9D-4F6A-AA58-448808E4733C,2023-09-28_19h34.37.593,WP_VExplicitOC_HL,2022.2.5,Win32,16.53931395,NA,NA,NA,NA,NA,NA,NA,NA,NA,NA,NA,NA,NA,NA,NA,NA,NA,NA,watch a short animation,008.png,NA,NA,NA,NA,NA,NA,NA,NA,NA,NA,NA,NA,NA,NA,NA,NA,82.8125,0.9021,0,7,7,7,1,NA,NA,NA,NA,NA,NA,NA,NA,NA,NA,NA,NA,NA,NA,NA,NA
SUPAMT03640,NA,9056A2B5-1C9D-4F6A-AA58-448808E4733C,2023-09-28_19h34.37.593,WP_VExplicitOC_HL,2022.2.5,Win32,16.53931395,NA,NA,NA,NA,NA,NA,NA,NA,NA,NA,NA,NA,NA,NA,NA,NA,NA,NA,read a novel,009.png,NA,NA,NA,NA,NA,NA,NA,NA,NA,NA,NA,NA,NA,NA,NA,NA,53.515625,0.7605,0,8,8,8,1,NA,NA,NA,NA,NA,NA,NA,NA,NA,NA,NA,NA,NA,NA,NA,NA
SUPAMT03640,NA,9056A2B5-1C9D-4F6A-AA58-448808E4733C,2023-09-28_19h34.37.593,WP_VExplicitOC_HL,2022.2.5,Win32,16.53931395,NA,NA,NA,NA,NA,NA,NA,NA,NA,NA,NA,NA,NA,NA,NA,NA,NA,NA,read the news,010.png,NA,NA,NA,NA,NA,NA,NA,NA,NA,NA,NA,NA,NA,NA,NA,NA,84.9609375,0.8226,0,9,9,9,1,NA,NA,NA,NA,NA,NA,NA,NA,NA,NA,NA,NA,NA,NA,NA,NA
SUPAMT03640,NA,9056A2B5-1C9D-4F6A-AA58-448808E4733C,2023-09-28_19h34.37.593,WP_VExplicitOC_HL,2022.2.5,Win32,16.53931395,NA,NA,NA,NA,NA,NA,NA,NA,NA,NA,NA,NA,NA,NA,NA,NA,NA,NA,NA,NA,NA,NA,NA,NA,NA,NA,NA,NA,NA,NA,NA,NA,NA,NA,NA,NA,NA,NA,NA,NA,NA,NA,NA,listen to music,NA,NA,NA,NA,NA,NA,NA,NA,NA,NA,NA,NA,NA,NA,NA
SUPAMT03640,NA,9056A2B5-1C9D-4F6A-AA58-448808E4733C,2023-09-28_19h34.37.593,WP_VExplicitOC_HL,2022.2.5,Win32,16.53931395,65.625,3.323,2.0474,NA,NA,NA,NA,NA,frustrated,"frustrated, not frustrated","more frustrated, less frustrated",NA,NA,NA,NA,NA,NA,NA,NA,NA,NA,NA,NA,NA,NA,NA,NA,NA,NA,NA,NA,NA,NA,NA,NA,NA,NA,NA,NA,NA,NA,NA,NA,NA,0,0,0,1,1,NA,NA,NA,NA,NA,NA,NA,NA,NA,NA
SUPAMT03640,NA,9056A2B5-1C9D-4F6A-AA58-448808E4733C,2023-09-28_19h34.37.593,WP_VExplicitOC_HL,2022.2.5,Win32,16.53931395,52.9296875,5.2279,2.0611,NA,NA,NA,NA,NA,happy,"unhappy, happy","less happy, more happy",NA,NA,NA,NA,NA,NA,NA,NA,NA,NA,NA,NA,NA,NA,NA,NA,NA,NA,NA,NA,NA,NA,NA,NA,NA,NA,NA,NA,NA,NA,NA,NA,NA,0,1,1,0,1,NA,NA,NA,NA,NA,NA,NA,NA,NA,NA
SUPAMT03640,NA,9056A2B5-1C9D-4F6A-AA58-448808E4733C,2023-09-28_19h34.37.593,WP_VExplicitOC_HL,2022.2.5,Win32,16.53931395,80.078125,2.4368,2.0089,NA,NA,NA,NA,NA,bored,"bored, not bored","more bored, less bored",NA,NA,NA,NA,NA,NA,NA,NA,NA,NA,NA,NA,NA,NA,NA,NA,NA,NA,NA,NA,NA,NA,NA,NA,NA,NA,NA,NA,NA,NA,NA,NA,NA,0,2,2,2,1,NA,NA,NA,NA,NA,NA,NA,NA,NA,NA
SUPAMT03640,NA,9056A2B5-1C9D-4F6A-AA58-448808E4733C,2023-09-28_19h34.37.593,WP_VExplicitOC_HL,2022.2.5,Win32,16.53931395,NA,NA,NA,NA,NA,NA,NA,NA,NA,NA,NA,NA,NA,NA,NA,NA,NA,NA,NA,NA,NA,NA,NA,NA,NA,NA,NA,NA,NA,NA,NA,NA,NA,NA,NA,NA,NA,NA,NA,NA,NA,NA,NA,NA,NA,NA,NA,NA,NA,NA,NA,NA,NA,NA,NA,NA,NA,NA,NA
SUPAMT03640,NA,9056A2B5-1C9D-4F6A-AA58-448808E4733C,2023-09-28_19h34.37.593,WP_VExplicitOC_HL,2022.2.5,Win32,16.53931395,NA,NA,NA,NA,NA,NA,NA,NA,NA,NA,NA,NA,NA,NA,NA,NA,NA,NA,NA,NA,NA,NA,NA,NA,NA,NA,NA,NA,NA,NA,NA,NA,NA,NA,NA,NA,NA,NA,NA,NA,NA,NA,NA,NA,NA,NA,NA,NA,NA,NA,NA,NA,NA,NA,NA,NA,NA,NA,NA
SUPAMT03640,NA,9056A2B5-1C9D-4F6A-AA58-448808E4733C,2023-09-28_19h34.37.593,WP_VExplicitOC_HL,2022.2.5,Win32,16.53931395,74.0234375,4.0396,2.0275,NA,NA,NA,NA,NA,frustrated,"frustrated, not frustrated","more frustrated, less frustrated",NA,NA,NA,NA,NA,NA,NA,NA,NA,NA,NA,NA,NA,NA,NA,NA,NA,NA,NA,NA,NA,NA,NA,NA,NA,NA,NA,NA,NA,NA,NA,NA,NA,NA,NA,NA,NA,NA,0,0,0,1,1,NA,NA,NA,NA,NA
SUPAMT03640,NA,9056A2B5-1C9D-4F6A-AA58-448808E4733C,2023-09-28_19h34.37.593,WP_VExplicitOC_HL,2022.2.5,Win32,16.53931395,85.15625,6.5232,2.017,NA,NA,NA,NA,NA,bored,"bored, not bored","more bored, less bored",NA,NA,NA,NA,NA,NA,NA,NA,NA,NA,NA,NA,NA,NA,NA,NA,NA,NA,NA,NA,NA,NA,NA,NA,NA,NA,NA,NA,NA,NA,NA,NA,NA,NA,NA,NA,NA,NA,0,1,1,2,1,NA,NA,NA,NA,NA
SUPAMT03640,NA,9056A2B5-1C9D-4F6A-AA58-448808E4733C,2023-09-28_19h34.37.593,WP_VExplicitOC_HL,2022.2.5,Win32,16.53931395,62.6953125,3.696,2.0453,NA,NA,NA,NA,NA,happy,"unhappy, happy","less happy, more happy",NA,NA,NA,NA,NA,NA,NA,NA,NA,NA,NA,NA,NA,NA,NA,NA,NA,NA,NA,NA,NA,NA,NA,NA,NA,NA,NA,NA,NA,NA,NA,NA,NA,NA,NA,NA,NA,NA,0,2,2,0,1,NA,NA,NA,NA,NA
SUPAMT03640,NA,9056A2B5-1C9D-4F6A-AA58-448808E4733C,2023-09-28_19h34.37.593,WP_VExplicitOC_HL,2022.2.5,Win32,16.53931395,NA,NA,NA,NA,NA,NA,NA,NA,NA,NA,NA,NA,NA,NA,NA,NA,NA,NA,NA,NA,NA,NA,NA,NA,NA,NA,NA,NA,NA,NA,NA,NA,NA,NA,NA,NA,NA,NA,NA,NA,NA,NA,NA,NA,NA,NA,NA,NA,NA,NA,NA,NA,NA,NA,0,0,0,0,1
SUPAMT03640,NA,9056A2B5-1C9D-4F6A-AA58-448808E4733C,2023-09-28_19h34.37.593,WP_VExplicitOC_HL,2022.2.5,Win32,16.53931395,62.890625,3.3558,2.036,NA,NA,NA,NA,NA,bored,"bored, not bored","more bored, less bored",NA,NA,NA,NA,NA,NA,NA,NA,NA,NA,NA,NA,NA,NA,NA,NA,NA,NA,NA,NA,NA,NA,NA,NA,NA,NA,NA,NA,NA,NA,NA,NA,NA,NA,NA,NA,NA,NA,0,0,0,2,1,NA,NA,NA,NA,NA
SUPAMT03640,NA,9056A2B5-1C9D-4F6A-AA58-448808E4733C,2023-09-28_19h34.37.593,WP_VExplicitOC_HL,2022.2.5,Win32,16.53931395,85.15625,3.8004,2.0647,NA,NA,NA,NA,NA,happy,"unhappy, happy","less happy, more happy",NA,NA,NA,NA,NA,NA,NA,NA,NA,NA,NA,NA,NA,NA,NA,NA,NA,NA,NA,NA,NA,NA,NA,NA,NA,NA,NA,NA,NA,NA,NA,NA,NA,NA,NA,NA,NA,NA,0,1,1,0,1,NA,NA,NA,NA,NA
SUPAMT03640,NA,9056A2B5-1C9D-4F6A-AA58-448808E4733C,2023-09-28_19h34.37.593,WP_VExplicitOC_HL,2022.2.5,Win32,16.53931395,59.5703125,3.7269,2.0199,NA,NA,NA,NA,NA,frustrated,"frustrated, not frustrated","more frustrated, less frustrated",NA,NA,NA,NA,NA,NA,NA,NA,NA,NA,NA,NA,NA,NA,NA,NA,NA,NA,NA,NA,NA,NA,NA,NA,NA,NA,NA,NA,NA,NA,NA,NA,NA,NA,NA,NA,NA,NA,0,2,2,1,1,NA,NA,NA,NA,NA
SUPAMT03640,NA,9056A2B5-1C9D-4F6A-AA58-448808E4733C,2023-09-28_19h34.37.593,WP_VExplicitOC_HL,2022.2.5,Win32,16.53931395,NA,NA,NA,NA,NA,NA,NA,NA,NA,NA,NA,NA,NA,NA,NA,NA,NA,NA,NA,NA,NA,NA,NA,NA,NA,NA,NA,NA,NA,NA,NA,NA,NA,NA,NA,NA,NA,NA,NA,NA,NA,NA,NA,NA,NA,NA,NA,NA,NA,NA,NA,NA,NA,NA,1,0,1,0,1
SUPAMT03640,NA,9056A2B5-1C9D-4F6A-AA58-448808E4733C,2023-09-28_19h34.37.593,WP_VExplicitOC_HL,2022.2.5,Win32,16.53931395,74.8046875,3.7211,2.0463,NA,NA,NA,NA,NA,frustrated,"frustrated, not frustrated","more frustrated, less frustrated",NA,NA,NA,NA,NA,NA,NA,NA,NA,NA,NA,NA,NA,NA,NA,NA,NA,NA,NA,NA,NA,NA,NA,NA,NA,NA,NA,NA,NA,NA,NA,NA,NA,NA,NA,NA,NA,NA,0,0,0,1,1,NA,NA,NA,NA,NA
SUPAMT03640,NA,9056A2B5-1C9D-4F6A-AA58-448808E4733C,2023-09-28_19h34.37.593,WP_VExplicitOC_HL,2022.2.5,Win32,16.53931395,74.8046875,4.5545,2.0685,NA,NA,NA,NA,NA,bored,"bored, not bored","more bored, less bored",NA,NA,NA,NA,NA,NA,NA,NA,NA,NA,NA,NA,NA,NA,NA,NA,NA,NA,NA,NA,NA,NA,NA,NA,NA,NA,NA,NA,NA,NA,NA,NA,NA,NA,NA,NA,NA,NA,0,1,1,2,1,NA,NA,NA,NA,NA
SUPAMT03640,NA,9056A2B5-1C9D-4F6A-AA58-448808E4733C,2023-09-28_19h34.37.593,WP_VExplicitOC_HL,2022.2.5,Win32,16.53931395,72.65625,4.7812,2.0039,NA,NA,NA,NA,NA,happy,"unhappy, happy","less happy, more happy",NA,NA,NA,NA,NA,NA,NA,NA,NA,NA,NA,NA,NA,NA,NA,NA,NA,NA,NA,NA,NA,NA,NA,NA,NA,NA,NA,NA,NA,NA,NA,NA,NA,NA,NA,NA,NA,NA,0,2,2,0,1,NA,NA,NA,NA,NA
SUPAMT03640,NA,9056A2B5-1C9D-4F6A-AA58-448808E4733C,2023-09-28_19h34.37.593,WP_VExplicitOC_HL,2022.2.5,Win32,16.53931395,NA,NA,NA,NA,NA,NA,NA,NA,NA,NA,NA,NA,NA,NA,NA,NA,NA,NA,NA,NA,NA,NA,NA,NA,NA,NA,NA,NA,NA,NA,NA,NA,NA,NA,NA,NA,NA,NA,NA,NA,NA,NA,NA,NA,NA,NA,NA,NA,NA,NA,NA,NA,NA,NA,2,0,2,0,1
SUPAMT03640,NA,9056A2B5-1C9D-4F6A-AA58-448808E4733C,2023-09-28_19h34.37.593,WP_VExplicitOC_HL,2022.2.5,Win32,16.53931395,70.5078125,3.5113,2.0214,NA,NA,NA,NA,NA,frustrated,"frustrated, not frustrated","more frustrated, less frustrated",NA,NA,NA,NA,NA,NA,NA,NA,NA,NA,NA,NA,NA,NA,NA,NA,NA,NA,NA,NA,NA,NA,NA,NA,NA,NA,NA,NA,NA,NA,NA,NA,NA,NA,NA,NA,NA,NA,0,0,0,1,1,NA,NA,NA,NA,NA
SUPAMT03640,NA,9056A2B5-1C9D-4F6A-AA58-448808E4733C,2023-09-28_19h34.37.593,WP_VExplicitOC_HL,2022.2.5,Win32,16.53931395,91.40625,3.3303,2.0338,NA,NA,NA,NA,NA,bored,"bored, not bored","more bored, less bored",NA,NA,NA,NA,NA,NA,NA,NA,NA,NA,NA,NA,NA,NA,NA,NA,NA,NA,NA,NA,NA,NA,NA,NA,NA,NA,NA,NA,NA,NA,NA,NA,NA,NA,NA,NA,NA,NA,0,1,1,2,1,NA,NA,NA,NA,NA
SUPAMT03640,NA,9056A2B5-1C9D-4F6A-AA58-448808E4733C,2023-09-28_19h34.37.593,WP_VExplicitOC_HL,2022.2.5,Win32,16.53931395,61.71875,3.409,2.0416,NA,NA,NA,NA,NA,happy,"unhappy, happy","less happy, more happy",NA,NA,NA,NA,NA,NA,NA,NA,NA,NA,NA,NA,NA,NA,NA,NA,NA,NA,NA,NA,NA,NA,NA,NA,NA,NA,NA,NA,NA,NA,NA,NA,NA,NA,NA,NA,NA,NA,0,2,2,0,1,NA,NA,NA,NA,NA
SUPAMT03640,NA,9056A2B5-1C9D-4F6A-AA58-448808E4733C,2023-09-28_19h34.37.593,WP_VExplicitOC_HL,2022.2.5,Win32,16.53931395,NA,NA,NA,NA,NA,NA,NA,NA,NA,NA,NA,NA,NA,NA,NA,NA,NA,NA,NA,NA,NA,NA,NA,NA,NA,NA,NA,NA,NA,NA,NA,NA,NA,NA,NA,NA,NA,NA,NA,NA,NA,NA,NA,NA,NA,NA,NA,NA,NA,NA,NA,NA,NA,NA,3,0,3,0,1
SUPAMT03640,NA,9056A2B5-1C9D-4F6A-AA58-448808E4733C,2023-09-28_19h34.37.593,WP_VExplicitOC_HL,2022.2.5,Win32,16.53931395,78.90625,3.4575,2.014,NA,NA,NA,NA,NA,happy,"unhappy, happy","less happy, more happy",NA,NA,NA,NA,NA,NA,NA,NA,NA,NA,NA,NA,NA,NA,NA,NA,NA,NA,NA,NA,NA,NA,NA,NA,NA,NA,NA,NA,NA,NA,NA,NA,NA,NA,NA,NA,NA,NA,0,0,0,0,1,NA,NA,NA,NA,NA
SUPAMT03640,NA,9056A2B5-1C9D-4F6A-AA58-448808E4733C,2023-09-28_19h34.37.593,WP_VExplicitOC_HL,2022.2.5,Win32,16.53931395,78.125,3.1484,2.0281,NA,NA,NA,NA,NA,bored,"bored, not bored","more bored, less bored",NA,NA,NA,NA,NA,NA,NA,NA,NA,NA,NA,NA,NA,NA,NA,NA,NA,NA,NA,NA,NA,NA,NA,NA,NA,NA,NA,NA,NA,NA,NA,NA,NA,NA,NA,NA,NA,NA,0,1,1,2,1,NA,NA,NA,NA,NA
SUPAMT03640,NA,9056A2B5-1C9D-4F6A-AA58-448808E4733C,2023-09-28_19h34.37.593,WP_VExplicitOC_HL,2022.2.5,Win32,16.53931395,83.7890625,3.5116,2.0146,NA,NA,NA,NA,NA,frustrated,"frustrated, not frustrated","more frustrated, less frustrated",NA,NA,NA,NA,NA,NA,NA,NA,NA,NA,NA,NA,NA,NA,NA,NA,NA,NA,NA,NA,NA,NA,NA,NA,NA,NA,NA,NA,NA,NA,NA,NA,NA,NA,NA,NA,NA,NA,0,2,2,1,1,NA,NA,NA,NA,NA
SUPAMT03640,NA,9056A2B5-1C9D-4F6A-AA58-448808E4733C,2023-09-28_19h34.37.593,WP_VExplicitOC_HL,2022.2.5,Win32,16.53931395,NA,NA,NA,NA,NA,NA,NA,NA,NA,NA,NA,NA,NA,NA,NA,NA,NA,NA,NA,NA,NA,NA,NA,NA,NA,NA,NA,NA,NA,NA,NA,NA,NA,NA,NA,NA,NA,NA,NA,NA,NA,NA,NA,NA,NA,NA,NA,NA,NA,NA,NA,NA,NA,NA,4,0,4,0,1
SUPAMT03640,NA,9056A2B5-1C9D-4F6A-AA58-448808E4733C,2023-09-28_19h34.37.593,WP_VExplicitOC_HL,2022.2.5,Win32,16.53931395,77.34375,5.4786,2.0588,NA,NA,NA,NA,NA,bored,"bored, not bored","more bored, less bored",NA,NA,NA,NA,NA,NA,NA,NA,NA,NA,NA,NA,NA,NA,NA,NA,NA,NA,NA,NA,NA,NA,NA,NA,NA,NA,NA,NA,NA,NA,NA,NA,NA,NA,NA,NA,NA,NA,0,0,0,2,1,NA,NA,NA,NA,NA
SUPAMT03640,NA,9056A2B5-1C9D-4F6A-AA58-448808E4733C,2023-09-28_19h34.37.593,WP_VExplicitOC_HL,2022.2.5,Win32,16.53931395,62.5,3.7141,2.0444,NA,NA,NA,NA,NA,frustrated,"frustrated, not frustrated","more frustrated, less frustrated",NA,NA,NA,NA,NA,NA,NA,NA,NA,NA,NA,NA,NA,NA,NA,NA,NA,NA,NA,NA,NA,NA,NA,NA,NA,NA,NA,NA,NA,NA,NA,NA,NA,NA,NA,NA,NA,NA,0,1,1,1,1,NA,NA,NA,NA,NA
SUPAMT03640,NA,9056A2B5-1C9D-4F6A-AA58-448808E4733C,2023-09-28_19h34.37.593,WP_VExplicitOC_HL,2022.2.5,Win32,16.53931395,75.390625,3.7352,2.0403,NA,NA,NA,NA,NA,happy,"unhappy, happy","less happy, more happy",NA,NA,NA,NA,NA,NA,NA,NA,NA,NA,NA,NA,NA,NA,NA,NA,NA,NA,NA,NA,NA,NA,NA,NA,NA,NA,NA,NA,NA,NA,NA,NA,NA,NA,NA,NA,NA,NA,0,2,2,0,1,NA,NA,NA,NA,NA
SUPAMT03640,NA,9056A2B5-1C9D-4F6A-AA58-448808E4733C,2023-09-28_19h34.37.593,WP_VExplicitOC_HL,2022.2.5,Win32,16.53931395,NA,NA,NA,NA,NA,NA,NA,NA,NA,NA,NA,NA,NA,NA,NA,NA,NA,NA,NA,NA,NA,NA,NA,NA,NA,NA,NA,NA,NA,NA,NA,NA,NA,NA,NA,NA,NA,NA,NA,NA,NA,NA,NA,NA,NA,NA,NA,NA,NA,NA,NA,NA,NA,NA,5,0,5,0,1
SUPAMT03640,NA,9056A2B5-1C9D-4F6A-AA58-448808E4733C,2023-09-28_19h34.37.593,WP_VExplicitOC_HL,2022.2.5,Win32,16.53931395,82.421875,5.3455,2.0142,NA,NA,NA,NA,NA,bored,"bored, not bored","more bored, less bored",NA,NA,NA,NA,NA,NA,NA,NA,NA,NA,NA,NA,NA,NA,NA,NA,NA,NA,NA,NA,NA,NA,NA,NA,NA,NA,NA,NA,NA,NA,NA,NA,NA,NA,NA,NA,NA,NA,0,0,0,2,1,NA,NA,NA,NA,NA
SUPAMT03640,NA,9056A2B5-1C9D-4F6A-AA58-448808E4733C,2023-09-28_19h34.37.593,WP_VExplicitOC_HL,2022.2.5,Win32,16.53931395,79.296875,4.1035,2.0083,NA,NA,NA,NA,NA,happy,"unhappy, happy","less happy, more happy",NA,NA,NA,NA,NA,NA,NA,NA,NA,NA,NA,NA,NA,NA,NA,NA,NA,NA,NA,NA,NA,NA,NA,NA,NA,NA,NA,NA,NA,NA,NA,NA,NA,NA,NA,NA,NA,NA,0,1,1,0,1,NA,NA,NA,NA,NA
SUPAMT03640,NA,9056A2B5-1C9D-4F6A-AA58-448808E4733C,2023-09-28_19h34.37.593,WP_VExplicitOC_HL,2022.2.5,Win32,16.53931395,79.296875,4.2906,2.0515,NA,NA,NA,NA,NA,frustrated,"frustrated, not frustrated","more frustrated, less frustrated",NA,NA,NA,NA,NA,NA,NA,NA,NA,NA,NA,NA,NA,NA,NA,NA,NA,NA,NA,NA,NA,NA,NA,NA,NA,NA,NA,NA,NA,NA,NA,NA,NA,NA,NA,NA,NA,NA,0,2,2,1,1,NA,NA,NA,NA,NA
SUPAMT03640,NA,9056A2B5-1C9D-4F6A-AA58-448808E4733C,2023-09-28_19h34.37.593,WP_VExplicitOC_HL,2022.2.5,Win32,16.53931395,NA,NA,NA,NA,NA,NA,NA,NA,NA,NA,NA,NA,NA,NA,NA,NA,NA,NA,NA,NA,NA,NA,NA,NA,NA,NA,NA,NA,NA,NA,NA,NA,NA,NA,NA,NA,NA,NA,NA,NA,NA,NA,NA,NA,NA,NA,NA,NA,NA,NA,NA,NA,NA,NA,6,0,6,0,1
SUPAMT03640,NA,9056A2B5-1C9D-4F6A-AA58-448808E4733C,2023-09-28_19h34.37.593,WP_VExplicitOC_HL,2022.2.5,Win32,16.53931395,90.625,4.0625,2.0444,NA,NA,NA,NA,NA,happy,"unhappy, happy","less happy, more happy",NA,NA,NA,NA,NA,NA,NA,NA,NA,NA,NA,NA,NA,NA,NA,NA,NA,NA,NA,NA,NA,NA,NA,NA,NA,NA,NA,NA,NA,NA,NA,NA,NA,NA,NA,NA,NA,NA,0,0,0,0,1,NA,NA,NA,NA,NA
SUPAMT03640,NA,9056A2B5-1C9D-4F6A-AA58-448808E4733C,2023-09-28_19h34.37.593,WP_VExplicitOC_HL,2022.2.5,Win32,16.53931395,59.9609375,4.2698,2.0134,NA,NA,NA,NA,NA,frustrated,"frustrated, not frustrated","more frustrated, less frustrated",NA,NA,NA,NA,NA,NA,NA,NA,NA,NA,NA,NA,NA,NA,NA,NA,NA,NA,NA,NA,NA,NA,NA,NA,NA,NA,NA,NA,NA,NA,NA,NA,NA,NA,NA,NA,NA,NA,0,1,1,1,1,NA,NA,NA,NA,NA
SUPAMT03640,NA,9056A2B5-1C9D-4F6A-AA58-448808E4733C,2023-09-28_19h34.37.593,WP_VExplicitOC_HL,2022.2.5,Win32,16.53931395,85.7421875,3.7457,2.0839,NA,NA,NA,NA,NA,bored,"bored, not bored","more bored, less bored",NA,NA,NA,NA,NA,NA,NA,NA,NA,NA,NA,NA,NA,NA,NA,NA,NA,NA,NA,NA,NA,NA,NA,NA,NA,NA,NA,NA,NA,NA,NA,NA,NA,NA,NA,NA,NA,NA,0,2,2,2,1,NA,NA,NA,NA,NA
SUPAMT03640,NA,9056A2B5-1C9D-4F6A-AA58-448808E4733C,2023-09-28_19h34.37.593,WP_VExplicitOC_HL,2022.2.5,Win32,16.53931395,NA,NA,NA,NA,NA,NA,NA,NA,NA,NA,NA,NA,NA,NA,NA,NA,NA,NA,NA,NA,NA,NA,NA,NA,NA,NA,NA,NA,NA,NA,NA,NA,NA,NA,NA,NA,NA,NA,NA,NA,NA,NA,NA,NA,NA,NA,NA,NA,NA,NA,NA,NA,NA,NA,7,0,7,0,1
SUPAMT03640,NA,9056A2B5-1C9D-4F6A-AA58-448808E4733C,2023-09-28_19h34.37.593,WP_VExplicitOC_HL,2022.2.5,Win32,16.53931395,87.890625,4.8612,2.0466,NA,NA,NA,NA,NA,happy,"unhappy, happy","less happy, more happy",NA,NA,NA,NA,NA,NA,NA,NA,NA,NA,NA,NA,NA,NA,NA,NA,NA,NA,NA,NA,NA,NA,NA,NA,NA,NA,NA,NA,NA,NA,NA,NA,NA,NA,NA,NA,NA,NA,0,0,0,0,1,NA,NA,NA,NA,NA
SUPAMT03640,NA,9056A2B5-1C9D-4F6A-AA58-448808E4733C,2023-09-28_19h34.37.593,WP_VExplicitOC_HL,2022.2.5,Win32,16.53931395,70.703125,3.2009,2.0053,NA,NA,NA,NA,NA,bored,"bored, not bored","more bored, less bored",NA,NA,NA,NA,NA,NA,NA,NA,NA,NA,NA,NA,NA,NA,NA,NA,NA,NA,NA,NA,NA,NA,NA,NA,NA,NA,NA,NA,NA,NA,NA,NA,NA,NA,NA,NA,NA,NA,0,1,1,2,1,NA,NA,NA,NA,NA
SUPAMT03640,NA,9056A2B5-1C9D-4F6A-AA58-448808E4733C,2023-09-28_19h34.37.593,WP_VExplicitOC_HL,2022.2.5,Win32,16.53931395,82.421875,3.2062,2.0455,NA,NA,NA,NA,NA,frustrated,"frustrated, not frustrated","more frustrated, less frustrated",NA,NA,NA,NA,NA,NA,NA,NA,NA,NA,NA,NA,NA,NA,NA,NA,NA,NA,NA,NA,NA,NA,NA,NA,NA,NA,NA,NA,NA,NA,NA,NA,NA,NA,NA,NA,NA,NA,0,2,2,1,1,NA,NA,NA,NA,NA
SUPAMT03640,NA,9056A2B5-1C9D-4F6A-AA58-448808E4733C,2023-09-28_19h34.37.593,WP_VExplicitOC_HL,2022.2.5,Win32,16.53931395,NA,NA,NA,NA,NA,NA,NA,NA,NA,NA,NA,NA,NA,NA,NA,NA,NA,NA,NA,NA,NA,NA,NA,NA,NA,NA,NA,NA,NA,NA,NA,NA,NA,NA,NA,NA,NA,NA,NA,NA,NA,NA,NA,NA,NA,NA,NA,NA,NA,NA,NA,NA,NA,NA,8,0,8,0,1
SUPAMT03640,NA,9056A2B5-1C9D-4F6A-AA58-448808E4733C,2023-09-28_19h34.37.593,WP_VExplicitOC_HL,2022.2.5,Win32,16.53931395,87.109375,4.1582,2.035,NA,NA,NA,NA,NA,frustrated,"frustrated, not frustrated","more frustrated, less frustrated",NA,NA,NA,NA,NA,NA,NA,NA,NA,NA,NA,NA,NA,NA,NA,NA,NA,NA,NA,NA,NA,NA,NA,NA,NA,NA,NA,NA,NA,NA,NA,NA,NA,NA,NA,NA,NA,NA,0,0,0,1,1,NA,NA,NA,NA,NA
SUPAMT03640,NA,9056A2B5-1C9D-4F6A-AA58-448808E4733C,2023-09-28_19h34.37.593,WP_VExplicitOC_HL,2022.2.5,Win32,16.53931395,67.578125,4.0487,2.0636,NA,NA,NA,NA,NA,happy,"unhappy, happy","less happy, more happy",NA,NA,NA,NA,NA,NA,NA,NA,NA,NA,NA,NA,NA,NA,NA,NA,NA,NA,NA,NA,NA,NA,NA,NA,NA,NA,NA,NA,NA,NA,NA,NA,NA,NA,NA,NA,NA,NA,0,1,1,0,1,NA,NA,NA,NA,NA
SUPAMT03640,NA,9056A2B5-1C9D-4F6A-AA58-448808E4733C,2023-09-28_19h34.37.593,WP_VExplicitOC_HL,2022.2.5,Win32,16.53931395,89.6484375,3.1059,2.0101,NA,NA,NA,NA,NA,bored,"bored, not bored","more bored, less bored",NA,NA,NA,NA,NA,NA,NA,NA,NA,NA,NA,NA,NA,NA,NA,NA,NA,NA,NA,NA,NA,NA,NA,NA,NA,NA,NA,NA,NA,NA,NA,NA,NA,NA,NA,NA,NA,NA,0,2,2,2,1,NA,NA,NA,NA,NA
SUPAMT03640,NA,9056A2B5-1C9D-4F6A-AA58-448808E4733C,2023-09-28_19h34.37.593,WP_VExplicitOC_HL,2022.2.5,Win32,16.53931395,NA,NA,NA,NA,NA,NA,NA,NA,NA,NA,NA,NA,NA,NA,NA,NA,NA,NA,NA,NA,NA,NA,NA,NA,NA,NA,NA,NA,NA,NA,NA,NA,NA,NA,NA,NA,NA,NA,NA,NA,NA,NA,NA,NA,NA,NA,NA,NA,NA,NA,NA,NA,NA,NA,9,0,9,0,1
SUPAMT03640,NA,9056A2B5-1C9D-4F6A-AA58-448808E4733C,2023-09-28_19h34.37.593,WP_VExplicitOC_HL,2022.2.5,Win32,16.53931395,87.109375,3.7183,2.0187,NA,NA,NA,NA,NA,happy,"unhappy, happy","less happy, more happy",NA,NA,NA,NA,NA,NA,NA,NA,NA,NA,NA,NA,NA,NA,NA,NA,NA,NA,NA,NA,NA,NA,NA,NA,NA,NA,NA,NA,NA,NA,NA,NA,NA,NA,NA,NA,NA,NA,0,0,0,0,1,NA,NA,NA,NA,NA
SUPAMT03640,NA,9056A2B5-1C9D-4F6A-AA58-448808E4733C,2023-09-28_19h34.37.593,WP_VExplicitOC_HL,2022.2.5,Win32,16.53931395,69.140625,3.6118,2.0624,NA,NA,NA,NA,NA,frustrated,"frustrated, not frustrated","more frustrated, less frustrated",NA,NA,NA,NA,NA,NA,NA,NA,NA,NA,NA,NA,NA,NA,NA,NA,NA,NA,NA,NA,NA,NA,NA,NA,NA,NA,NA,NA,NA,NA,NA,NA,NA,NA,NA,NA,NA,NA,0,1,1,1,1,NA,NA,NA,NA,NA
SUPAMT03640,NA,9056A2B5-1C9D-4F6A-AA58-448808E4733C,2023-09-28_19h34.37.593,WP_VExplicitOC_HL,2022.2.5,Win32,16.53931395,66.9921875,4.0849,2.0319,NA,NA,NA,NA,NA,bored,"bored, not bored","more bored, less bored",NA,NA,NA,NA,NA,NA,NA,NA,NA,NA,NA,NA,NA,NA,NA,NA,NA,NA,NA,NA,NA,NA,NA,NA,NA,NA,NA,NA,NA,NA,NA,NA,NA,NA,NA,NA,NA,NA,0,2,2,2,1,NA,NA,NA,NA,NA
SUPAMT03640,NA,9056A2B5-1C9D-4F6A-AA58-448808E4733C,2023-09-28_19h34.37.593,WP_VExplicitOC_HL,2022.2.5,Win32,16.53931395,NA,NA,NA,NA,NA,NA,NA,NA,NA,NA,NA,NA,NA,NA,NA,NA,NA,NA,NA,NA,NA,NA,NA,NA,NA,NA,NA,NA,NA,NA,NA,NA,NA,NA,NA,NA,NA,NA,NA,NA,NA,NA,NA,NA,NA,NA,NA,NA,NA,NA,NA,NA,NA,NA,10,0,10,0,1
SUPAMT03640,NA,9056A2B5-1C9D-4F6A-AA58-448808E4733C,2023-09-28_19h34.37.593,WP_VExplicitOC_HL,2022.2.5,Win32,16.53931395,77.5390625,7.2168,2.023,NA,NA,NA,NA,NA,frustrated,"frustrated, not frustrated","more frustrated, less frustrated",NA,NA,NA,NA,NA,NA,NA,NA,NA,NA,NA,NA,NA,NA,NA,NA,NA,NA,NA,NA,NA,NA,NA,NA,NA,NA,NA,NA,NA,NA,NA,NA,NA,NA,NA,NA,NA,NA,0,0,0,1,1,NA,NA,NA,NA,NA
SUPAMT03640,NA,9056A2B5-1C9D-4F6A-AA58-448808E4733C,2023-09-28_19h34.37.593,WP_VExplicitOC_HL,2022.2.5,Win32,16.53931395,62.3046875,3.0005,2.0212,NA,NA,NA,NA,NA,bored,"bored, not bored","more bored, less bored",NA,NA,NA,NA,NA,NA,NA,NA,NA,NA,NA,NA,NA,NA,NA,NA,NA,NA,NA,NA,NA,NA,NA,NA,NA,NA,NA,NA,NA,NA,NA,NA,NA,NA,NA,NA,NA,NA,0,1,1,2,1,NA,NA,NA,NA,NA
SUPAMT03640,NA,9056A2B5-1C9D-4F6A-AA58-448808E4733C,2023-09-28_19h34.37.593,WP_VExplicitOC_HL,2022.2.5,Win32,16.53931395,78.125,2.278,2.0127,NA,NA,NA,NA,NA,happy,"unhappy, happy","less happy, more happy",NA,NA,NA,NA,NA,NA,NA,NA,NA,NA,NA,NA,NA,NA,NA,NA,NA,NA,NA,NA,NA,NA,NA,NA,NA,NA,NA,NA,NA,NA,NA,NA,NA,NA,NA,NA,NA,NA,0,2,2,0,1,NA,NA,NA,NA,NA
SUPAMT03640,NA,9056A2B5-1C9D-4F6A-AA58-448808E4733C,2023-09-28_19h34.37.593,WP_VExplicitOC_HL,2022.2.5,Win32,16.53931395,NA,NA,NA,NA,NA,NA,NA,NA,NA,NA,NA,NA,NA,NA,NA,NA,NA,NA,NA,NA,NA,NA,NA,NA,NA,NA,NA,NA,NA,NA,NA,NA,NA,NA,NA,NA,NA,NA,NA,NA,NA,NA,NA,NA,NA,NA,NA,NA,NA,NA,NA,NA,NA,NA,11,0,11,0,1
SUPAMT03640,NA,9056A2B5-1C9D-4F6A-AA58-448808E4733C,2023-09-28_19h34.37.593,WP_VExplicitOC_HL,2022.2.5,Win32,16.53931395,82.2265625,4.2291,2.0544,NA,NA,NA,NA,NA,frustrated,"frustrated, not frustrated","more frustrated, less frustrated",NA,NA,NA,NA,NA,NA,NA,NA,NA,NA,NA,NA,NA,NA,NA,NA,NA,NA,NA,NA,NA,NA,NA,NA,NA,NA,NA,NA,NA,NA,NA,NA,NA,NA,NA,NA,NA,NA,0,0,0,1,1,NA,NA,NA,NA,NA
SUPAMT03640,NA,9056A2B5-1C9D-4F6A-AA58-448808E4733C,2023-09-28_19h34.37.593,WP_VExplicitOC_HL,2022.2.5,Win32,16.53931395,58.3984375,3.3358,2.0143,NA,NA,NA,NA,NA,bored,"bored, not bored","more bored, less bored",NA,NA,NA,NA,NA,NA,NA,NA,NA,NA,NA,NA,NA,NA,NA,NA,NA,NA,NA,NA,NA,NA,NA,NA,NA,NA,NA,NA,NA,NA,NA,NA,NA,NA,NA,NA,NA,NA,0,1,1,2,1,NA,NA,NA,NA,NA
SUPAMT03640,NA,9056A2B5-1C9D-4F6A-AA58-448808E4733C,2023-09-28_19h34.37.593,WP_VExplicitOC_HL,2022.2.5,Win32,16.53931395,91.6015625,2.2881,2.0169,NA,NA,NA,NA,NA,happy,"unhappy, happy","less happy, more happy",NA,NA,NA,NA,NA,NA,NA,NA,NA,NA,NA,NA,NA,NA,NA,NA,NA,NA,NA,NA,NA,NA,NA,NA,NA,NA,NA,NA,NA,NA,NA,NA,NA,NA,NA,NA,NA,NA,0,2,2,0,1,NA,NA,NA,NA,NA
SUPAMT03640,NA,9056A2B5-1C9D-4F6A-AA58-448808E4733C,2023-09-28_19h34.37.593,WP_VExplicitOC_HL,2022.2.5,Win32,16.53931395,NA,NA,NA,NA,NA,NA,NA,NA,NA,NA,NA,NA,NA,NA,NA,NA,NA,NA,NA,NA,NA,NA,NA,NA,NA,NA,NA,NA,NA,NA,NA,NA,NA,NA,NA,NA,NA,NA,NA,NA,NA,NA,NA,NA,NA,NA,NA,NA,NA,NA,NA,NA,NA,NA,12,0,12,0,1
SUPAMT03640,NA,9056A2B5-1C9D-4F6A-AA58-448808E4733C,2023-09-28_19h34.37.593,WP_VExplicitOC_HL,2022.2.5,Win32,16.53931395,88.0859375,4.6409,2.0648,NA,NA,NA,NA,NA,frustrated,"frustrated, not frustrated","more frustrated, less frustrated",NA,NA,NA,NA,NA,NA,NA,NA,NA,NA,NA,NA,NA,NA,NA,NA,NA,NA,NA,NA,NA,NA,NA,NA,NA,NA,NA,NA,NA,NA,NA,NA,NA,NA,NA,NA,NA,NA,0,0,0,1,1,NA,NA,NA,NA,NA
SUPAMT03640,NA,9056A2B5-1C9D-4F6A-AA58-448808E4733C,2023-09-28_19h34.37.593,WP_VExplicitOC_HL,2022.2.5,Win32,16.53931395,55.078125,3.3799,2.0333,NA,NA,NA,NA,NA,happy,"unhappy, happy","less happy, more happy",NA,NA,NA,NA,NA,NA,NA,NA,NA,NA,NA,NA,NA,NA,NA,NA,NA,NA,NA,NA,NA,NA,NA,NA,NA,NA,NA,NA,NA,NA,NA,NA,NA,NA,NA,NA,NA,NA,0,1,1,0,1,NA,NA,NA,NA,NA
SUPAMT03640,NA,9056A2B5-1C9D-4F6A-AA58-448808E4733C,2023-09-28_19h34.37.593,WP_VExplicitOC_HL,2022.2.5,Win32,16.53931395,84.5703125,2.9738,2.0654,NA,NA,NA,NA,NA,bored,"bored, not bored","more bored, less bored",NA,NA,NA,NA,NA,NA,NA,NA,NA,NA,NA,NA,NA,NA,NA,NA,NA,NA,NA,NA,NA,NA,NA,NA,NA,NA,NA,NA,NA,NA,NA,NA,NA,NA,NA,NA,NA,NA,0,2,2,2,1,NA,NA,NA,NA,NA
SUPAMT03640,NA,9056A2B5-1C9D-4F6A-AA58-448808E4733C,2023-09-28_19h34.37.593,WP_VExplicitOC_HL,2022.2.5,Win32,16.53931395,NA,NA,NA,NA,NA,NA,NA,NA,NA,NA,NA,NA,NA,NA,NA,NA,NA,NA,NA,NA,NA,NA,NA,NA,NA,NA,NA,NA,NA,NA,NA,NA,NA,NA,NA,NA,NA,NA,NA,NA,NA,NA,NA,NA,NA,NA,NA,NA,NA,NA,NA,NA,NA,NA,13,0,13,0,1
SUPAMT03640,NA,9056A2B5-1C9D-4F6A-AA58-448808E4733C,2023-09-28_19h34.37.593,WP_VExplicitOC_HL,2022.2.5,Win32,16.53931395,78.90625,4.367,2.0362,NA,NA,NA,NA,NA,frustrated,"frustrated, not frustrated","more frustrated, less frustrated",NA,NA,NA,NA,NA,NA,NA,NA,NA,NA,NA,NA,NA,NA,NA,NA,NA,NA,NA,NA,NA,NA,NA,NA,NA,NA,NA,NA,NA,NA,NA,NA,NA,NA,NA,NA,NA,NA,0,0,0,1,1,NA,NA,NA,NA,NA
SUPAMT03640,NA,9056A2B5-1C9D-4F6A-AA58-448808E4733C,2023-09-28_19h34.37.593,WP_VExplicitOC_HL,2022.2.5,Win32,16.53931395,78.90625,4.1384,2.0422,NA,NA,NA,NA,NA,bored,"bored, not bored","more bored, less bored",NA,NA,NA,NA,NA,NA,NA,NA,NA,NA,NA,NA,NA,NA,NA,NA,NA,NA,NA,NA,NA,NA,NA,NA,NA,NA,NA,NA,NA,NA,NA,NA,NA,NA,NA,NA,NA,NA,0,1,1,2,1,NA,NA,NA,NA,NA
SUPAMT03640,NA,9056A2B5-1C9D-4F6A-AA58-448808E4733C,2023-09-28_19h34.37.593,WP_VExplicitOC_HL,2022.2.5,Win32,16.53931395,78.90625,3.8112,2.0382,NA,NA,NA,NA,NA,happy,"unhappy, happy","less happy, more happy",NA,NA,NA,NA,NA,NA,NA,NA,NA,NA,NA,NA,NA,NA,NA,NA,NA,NA,NA,NA,NA,NA,NA,NA,NA,NA,NA,NA,NA,NA,NA,NA,NA,NA,NA,NA,NA,NA,0,2,2,0,1,NA,NA,NA,NA,NA
SUPAMT03640,NA,9056A2B5-1C9D-4F6A-AA58-448808E4733C,2023-09-28_19h34.37.593,WP_VExplicitOC_HL,2022.2.5,Win32,16.53931395,NA,NA,NA,NA,NA,NA,NA,NA,NA,NA,NA,NA,NA,NA,NA,NA,NA,NA,NA,NA,NA,NA,NA,NA,NA,NA,NA,NA,NA,NA,NA,NA,NA,NA,NA,NA,NA,NA,NA,NA,NA,NA,NA,NA,NA,NA,NA,NA,NA,NA,NA,NA,NA,NA,14,0,14,0,1
SUPAMT03640,NA,9056A2B5-1C9D-4F6A-AA58-448808E4733C,2023-09-28_19h34.37.593,WP_VExplicitOC_HL,2022.2.5,Win32,16.53931395,NA,NA,NA,NA,NA,NA,NA,NA,NA,NA,NA,NA,NA,NA,NA,NA,NA,NA,NA,NA,NA,NA,NA,NA,NA,NA,NA,NA,NA,NA,NA,NA,NA,NA,NA,NA,NA,NA,NA,NA,NA,NA,NA,NA,NA,NA,NA,NA,NA,NA,NA,NA,NA,NA,NA,NA,NA,NA,NA
