participant,session,completion,date,expName,psychopyVersion,OS,frameRate,rating_all.response,rating_all.rt,rating_all.tStart,rndRat1.thisRepN,rndRat1.thisTrialN,rndRat1.thisN,rndRat1.thisIndex,rndRat1.ran,Emo,Labs,Labs2,rating_alt.response,rating_alt.rt,AltC.thisRepN,AltC.thisTrialN,AltC.thisN,AltC.thisIndex,AltC.ran,alt_choices,pic_choices,TopAlt_Choice,rndRat2.thisRepN,rndRat2.thisTrialN,rndRat2.thisN,rndRat2.thisIndex,rndRat2.ran,rndRat3.thisRepN,rndRat3.thisTrialN,rndRat3.thisN,rndRat3.thisIndex,rndRat3.ran,trials_FC_H.thisRepN,trials_FC_H.thisTrialN,trials_FC_H.thisN,trials_FC_H.thisIndex,trials_FC_H.ran,rating_alt_2.response,rating_alt_2.rt,AltC2.thisRepN,AltC2.thisTrialN,AltC2.thisN,AltC2.thisIndex,AltC2.ran,BottomAlt_Choice,rndRat4.thisRepN,rndRat4.thisTrialN,rndRat4.thisN,rndRat4.thisIndex,rndRat4.ran,rndRat5.thisRepN,rndRat5.thisTrialN,rndRat5.thisN,rndRat5.thisIndex,rndRat5.ran,trials_FC_L.thisRepN,trials_FC_L.thisTrialN,trials_FC_L.thisN,trials_FC_L.thisIndex,trials_FC_L.ran
SUPAMT32807,3QAVNHZ3ES3NHGHNZSFQDPWH69ZLAN,BA820E69-62D4-4033-9A98-3DBC82B173D4,2023-09-27_09h31.00.543,WP_VExplicitOC_HL,2022.2.5,Win32,12.71714526,NA,NA,NA,NA,NA,NA,NA,NA,NA,NA,NA,NA,NA,NA,NA,NA,NA,NA,NA,NA,NA,NA,NA,NA,NA,NA,NA,NA,NA,NA,NA,NA,NA,NA,NA,NA,NA,NA,NA,NA,NA,NA,NA,NA,NA,NA,NA,NA,NA,NA,NA,NA,NA,NA,NA,NA,NA,NA,NA
SUPAMT32807,3QAVNHZ3ES3NHGHNZSFQDPWH69ZLAN,BA820E69-62D4-4033-9A98-3DBC82B173D4,2023-09-27_09h31.00.543,WP_VExplicitOC_HL,2022.2.5,Win32,12.71714526,NA,NA,NA,NA,NA,NA,NA,NA,NA,NA,NA,NA,NA,NA,NA,NA,NA,NA,NA,NA,NA,NA,NA,NA,NA,NA,NA,NA,NA,NA,NA,NA,NA,NA,NA,NA,NA,NA,NA,NA,NA,NA,NA,NA,NA,NA,NA,NA,NA,NA,NA,NA,NA,NA,NA,NA,NA,NA,NA
SUPAMT32807,3QAVNHZ3ES3NHGHNZSFQDPWH69ZLAN,BA820E69-62D4-4033-9A98-3DBC82B173D4,2023-09-27_09h31.00.543,WP_VExplicitOC_HL,2022.2.5,Win32,12.71714526,NA,NA,NA,NA,NA,NA,NA,NA,NA,NA,NA,NA,NA,NA,NA,NA,NA,NA,NA,NA,NA,NA,NA,NA,NA,NA,NA,NA,NA,NA,NA,NA,NA,NA,NA,NA,NA,NA,NA,NA,NA,NA,NA,NA,NA,NA,NA,NA,NA,NA,NA,NA,NA,NA,NA,NA,NA,NA,NA
SUPAMT32807,3QAVNHZ3ES3NHGHNZSFQDPWH69ZLAN,BA820E69-62D4-4033-9A98-3DBC82B173D4,2023-09-27_09h31.00.543,WP_VExplicitOC_HL,2022.2.5,Win32,12.71714526,54.42708333,3.464,2.0503,0,0,0,1,1,frustrated,"frustrated, not frustrated","more frustrated, less frustrated",NA,NA,NA,NA,NA,NA,NA,NA,NA,NA,NA,NA,NA,NA,NA,NA,NA,NA,NA,NA,NA,NA,NA,NA,NA,NA,NA,NA,NA,NA,NA,NA,NA,NA,NA,NA,NA,NA,NA,NA,NA,NA,NA,NA,NA,NA,NA,NA
SUPAMT32807,3QAVNHZ3ES3NHGHNZSFQDPWH69ZLAN,BA820E69-62D4-4033-9A98-3DBC82B173D4,2023-09-27_09h31.00.543,WP_VExplicitOC_HL,2022.2.5,Win32,12.71714526,64.0625,3.271,2.024,0,1,1,0,1,happy,"unhappy, happy","less happy, more happy",NA,NA,NA,NA,NA,NA,NA,NA,NA,NA,NA,NA,NA,NA,NA,NA,NA,NA,NA,NA,NA,NA,NA,NA,NA,NA,NA,NA,NA,NA,NA,NA,NA,NA,NA,NA,NA,NA,NA,NA,NA,NA,NA,NA,NA,NA,NA,NA
SUPAMT32807,3QAVNHZ3ES3NHGHNZSFQDPWH69ZLAN,BA820E69-62D4-4033-9A98-3DBC82B173D4,2023-09-27_09h31.00.543,WP_VExplicitOC_HL,2022.2.5,Win32,12.71714526,67.70833333,3.5428,2.0012,0,2,2,2,1,bored,"bored, not bored","more bored, less bored",NA,NA,NA,NA,NA,NA,NA,NA,NA,NA,NA,NA,NA,NA,NA,NA,NA,NA,NA,NA,NA,NA,NA,NA,NA,NA,NA,NA,NA,NA,NA,NA,NA,NA,NA,NA,NA,NA,NA,NA,NA,NA,NA,NA,NA,NA,NA,NA
SUPAMT32807,3QAVNHZ3ES3NHGHNZSFQDPWH69ZLAN,BA820E69-62D4-4033-9A98-3DBC82B173D4,2023-09-27_09h31.00.543,WP_VExplicitOC_HL,2022.2.5,Win32,12.71714526,NA,NA,NA,NA,NA,NA,NA,NA,NA,NA,NA,NA,NA,NA,NA,NA,NA,NA,NA,NA,NA,NA,NA,NA,NA,NA,NA,NA,NA,NA,NA,NA,NA,NA,NA,NA,NA,NA,NA,NA,NA,NA,NA,NA,NA,NA,NA,NA,NA,NA,NA,NA,NA,NA,NA,NA,NA,NA,NA
SUPAMT32807,3QAVNHZ3ES3NHGHNZSFQDPWH69ZLAN,BA820E69-62D4-4033-9A98-3DBC82B173D4,2023-09-27_09h31.00.543,WP_VExplicitOC_HL,2022.2.5,Win32,12.71714526,NA,NA,NA,NA,NA,NA,NA,NA,NA,NA,NA,NA,NA,NA,NA,NA,NA,NA,NA,NA,NA,NA,NA,NA,NA,NA,NA,NA,NA,NA,NA,NA,NA,NA,NA,NA,NA,NA,NA,NA,NA,NA,NA,NA,NA,NA,NA,NA,NA,NA,NA,NA,NA,NA,NA,NA,NA,NA,NA
SUPAMT32807,3QAVNHZ3ES3NHGHNZSFQDPWH69ZLAN,BA820E69-62D4-4033-9A98-3DBC82B173D4,2023-09-27_09h31.00.543,WP_VExplicitOC_HL,2022.2.5,Win32,12.71714526,NA,NA,NA,NA,NA,NA,NA,NA,NA,NA,NA,NA,NA,NA,NA,NA,NA,NA,NA,NA,NA,NA,NA,NA,NA,NA,NA,NA,NA,NA,NA,NA,NA,NA,NA,NA,NA,NA,NA,NA,NA,NA,NA,NA,NA,NA,NA,NA,NA,NA,NA,NA,NA,NA,NA,NA,NA,NA,NA
SUPAMT32807,3QAVNHZ3ES3NHGHNZSFQDPWH69ZLAN,BA820E69-62D4-4033-9A98-3DBC82B173D4,2023-09-27_09h31.00.543,WP_VExplicitOC_HL,2022.2.5,Win32,12.71714526,NA,NA,NA,NA,NA,NA,NA,NA,NA,NA,NA,NA,NA,NA,NA,NA,NA,NA,NA,NA,NA,NA,NA,NA,NA,NA,NA,NA,NA,NA,NA,NA,NA,NA,NA,NA,NA,NA,NA,NA,NA,NA,NA,NA,NA,NA,NA,NA,NA,NA,NA,NA,NA,NA,NA,NA,NA,NA,NA
SUPAMT32807,3QAVNHZ3ES3NHGHNZSFQDPWH69ZLAN,BA820E69-62D4-4033-9A98-3DBC82B173D4,2023-09-27_09h31.00.543,WP_VExplicitOC_HL,2022.2.5,Win32,12.71714526,NA,NA,NA,NA,NA,NA,NA,NA,NA,NA,NA,60.67708333,2.1663,0,0,0,0,1,rest (looking at a fixed cross),001.png,NA,NA,NA,NA,NA,NA,NA,NA,NA,NA,NA,NA,NA,NA,NA,NA,NA,NA,NA,NA,NA,NA,NA,NA,NA,NA,NA,NA,NA,NA,NA,NA,NA,NA,NA,NA,NA,NA,NA
SUPAMT32807,3QAVNHZ3ES3NHGHNZSFQDPWH69ZLAN,BA820E69-62D4-4033-9A98-3DBC82B173D4,2023-09-27_09h31.00.543,WP_VExplicitOC_HL,2022.2.5,Win32,12.71714526,NA,NA,NA,NA,NA,NA,NA,NA,NA,NA,NA,44.01041667,1.8663,0,1,1,1,1,stand up,002.png,NA,NA,NA,NA,NA,NA,NA,NA,NA,NA,NA,NA,NA,NA,NA,NA,NA,NA,NA,NA,NA,NA,NA,NA,NA,NA,NA,NA,NA,NA,NA,NA,NA,NA,NA,NA,NA,NA,NA
SUPAMT32807,3QAVNHZ3ES3NHGHNZSFQDPWH69ZLAN,BA820E69-62D4-4033-9A98-3DBC82B173D4,2023-09-27_09h31.00.543,WP_VExplicitOC_HL,2022.2.5,Win32,12.71714526,NA,NA,NA,NA,NA,NA,NA,NA,NA,NA,NA,-26.04166667,2.1621,0,2,2,2,1,stretch,003.png,NA,NA,NA,NA,NA,NA,NA,NA,NA,NA,NA,NA,NA,NA,NA,NA,NA,NA,NA,NA,NA,NA,NA,NA,NA,NA,NA,NA,NA,NA,NA,NA,NA,NA,NA,NA,NA,NA,NA
SUPAMT32807,3QAVNHZ3ES3NHGHNZSFQDPWH69ZLAN,BA820E69-62D4-4033-9A98-3DBC82B173D4,2023-09-27_09h31.00.543,WP_VExplicitOC_HL,2022.2.5,Win32,12.71714526,NA,NA,NA,NA,NA,NA,NA,NA,NA,NA,NA,42.44791667,1.033,0,3,3,3,1,make a drink,004.png,NA,NA,NA,NA,NA,NA,NA,NA,NA,NA,NA,NA,NA,NA,NA,NA,NA,NA,NA,NA,NA,NA,NA,NA,NA,NA,NA,NA,NA,NA,NA,NA,NA,NA,NA,NA,NA,NA,NA
SUPAMT32807,3QAVNHZ3ES3NHGHNZSFQDPWH69ZLAN,BA820E69-62D4-4033-9A98-3DBC82B173D4,2023-09-27_09h31.00.543,WP_VExplicitOC_HL,2022.2.5,Win32,12.71714526,NA,NA,NA,NA,NA,NA,NA,NA,NA,NA,NA,56.51041667,1.0771,0,4,4,4,1,scroll social media,005.png,NA,NA,NA,NA,NA,NA,NA,NA,NA,NA,NA,NA,NA,NA,NA,NA,NA,NA,NA,NA,NA,NA,NA,NA,NA,NA,NA,NA,NA,NA,NA,NA,NA,NA,NA,NA,NA,NA,NA
SUPAMT32807,3QAVNHZ3ES3NHGHNZSFQDPWH69ZLAN,BA820E69-62D4-4033-9A98-3DBC82B173D4,2023-09-27_09h31.00.543,WP_VExplicitOC_HL,2022.2.5,Win32,12.71714526,NA,NA,NA,NA,NA,NA,NA,NA,NA,NA,NA,44.53125,1.1232,0,5,5,5,1,listen to music,006.png,NA,NA,NA,NA,NA,NA,NA,NA,NA,NA,NA,NA,NA,NA,NA,NA,NA,NA,NA,NA,NA,NA,NA,NA,NA,NA,NA,NA,NA,NA,NA,NA,NA,NA,NA,NA,NA,NA,NA
SUPAMT32807,3QAVNHZ3ES3NHGHNZSFQDPWH69ZLAN,BA820E69-62D4-4033-9A98-3DBC82B173D4,2023-09-27_09h31.00.543,WP_VExplicitOC_HL,2022.2.5,Win32,12.71714526,NA,NA,NA,NA,NA,NA,NA,NA,NA,NA,NA,24.47916667,1.4251,0,6,6,6,1,daydream,007.png,NA,NA,NA,NA,NA,NA,NA,NA,NA,NA,NA,NA,NA,NA,NA,NA,NA,NA,NA,NA,NA,NA,NA,NA,NA,NA,NA,NA,NA,NA,NA,NA,NA,NA,NA,NA,NA,NA,NA
SUPAMT32807,3QAVNHZ3ES3NHGHNZSFQDPWH69ZLAN,BA820E69-62D4-4033-9A98-3DBC82B173D4,2023-09-27_09h31.00.543,WP_VExplicitOC_HL,2022.2.5,Win32,12.71714526,NA,NA,NA,NA,NA,NA,NA,NA,NA,NA,NA,66.14583333,1.5119,0,7,7,7,1,watch a short animation,008.png,NA,NA,NA,NA,NA,NA,NA,NA,NA,NA,NA,NA,NA,NA,NA,NA,NA,NA,NA,NA,NA,NA,NA,NA,NA,NA,NA,NA,NA,NA,NA,NA,NA,NA,NA,NA,NA,NA,NA
SUPAMT32807,3QAVNHZ3ES3NHGHNZSFQDPWH69ZLAN,BA820E69-62D4-4033-9A98-3DBC82B173D4,2023-09-27_09h31.00.543,WP_VExplicitOC_HL,2022.2.5,Win32,12.71714526,NA,NA,NA,NA,NA,NA,NA,NA,NA,NA,NA,57.03125,1.3307,0,8,8,8,1,read a novel,009.png,NA,NA,NA,NA,NA,NA,NA,NA,NA,NA,NA,NA,NA,NA,NA,NA,NA,NA,NA,NA,NA,NA,NA,NA,NA,NA,NA,NA,NA,NA,NA,NA,NA,NA,NA,NA,NA,NA,NA
SUPAMT32807,3QAVNHZ3ES3NHGHNZSFQDPWH69ZLAN,BA820E69-62D4-4033-9A98-3DBC82B173D4,2023-09-27_09h31.00.543,WP_VExplicitOC_HL,2022.2.5,Win32,12.71714526,NA,NA,NA,NA,NA,NA,NA,NA,NA,NA,NA,44.79166667,1.2466,0,9,9,9,1,read the news,010.png,NA,NA,NA,NA,NA,NA,NA,NA,NA,NA,NA,NA,NA,NA,NA,NA,NA,NA,NA,NA,NA,NA,NA,NA,NA,NA,NA,NA,NA,NA,NA,NA,NA,NA,NA,NA,NA,NA,NA
SUPAMT32807,3QAVNHZ3ES3NHGHNZSFQDPWH69ZLAN,BA820E69-62D4-4033-9A98-3DBC82B173D4,2023-09-27_09h31.00.543,WP_VExplicitOC_HL,2022.2.5,Win32,12.71714526,NA,NA,NA,NA,NA,NA,NA,NA,NA,NA,NA,NA,NA,NA,NA,NA,NA,NA,NA,NA,NA,NA,NA,NA,NA,NA,NA,NA,NA,NA,NA,NA,NA,NA,NA,NA,NA,NA,NA,NA,NA,NA,NA,NA,NA,NA,NA,NA,NA,NA,NA,NA,NA,NA,NA,NA,NA,NA,NA
SUPAMT32807,3QAVNHZ3ES3NHGHNZSFQDPWH69ZLAN,BA820E69-62D4-4033-9A98-3DBC82B173D4,2023-09-27_09h31.00.543,WP_VExplicitOC_HL,2022.2.5,Win32,12.71714526,NA,NA,NA,NA,NA,NA,NA,NA,NA,NA,NA,NA,NA,NA,NA,NA,NA,NA,NA,NA,watch a short animation,NA,NA,NA,NA,NA,NA,NA,NA,NA,NA,NA,NA,NA,NA,NA,NA,NA,NA,NA,NA,NA,NA,NA,NA,NA,NA,NA,NA,NA,NA,NA,NA,NA,NA,NA,NA,NA,NA
SUPAMT32807,3QAVNHZ3ES3NHGHNZSFQDPWH69ZLAN,BA820E69-62D4-4033-9A98-3DBC82B173D4,2023-09-27_09h31.00.543,WP_VExplicitOC_HL,2022.2.5,Win32,12.71714526,63.02083333,3.1618,2.024,NA,NA,NA,NA,NA,happy,"unhappy, happy","less happy, more happy",NA,NA,NA,NA,NA,NA,NA,NA,NA,NA,0,0,0,0,1,NA,NA,NA,NA,NA,NA,NA,NA,NA,NA,NA,NA,NA,NA,NA,NA,NA,NA,NA,NA,NA,NA,NA,NA,NA,NA,NA,NA,NA,NA,NA,NA,NA
SUPAMT32807,3QAVNHZ3ES3NHGHNZSFQDPWH69ZLAN,BA820E69-62D4-4033-9A98-3DBC82B173D4,2023-09-27_09h31.00.543,WP_VExplicitOC_HL,2022.2.5,Win32,12.71714526,65.10416667,3.4539,2.0233,NA,NA,NA,NA,NA,bored,"bored, not bored","more bored, less bored",NA,NA,NA,NA,NA,NA,NA,NA,NA,NA,0,1,1,2,1,NA,NA,NA,NA,NA,NA,NA,NA,NA,NA,NA,NA,NA,NA,NA,NA,NA,NA,NA,NA,NA,NA,NA,NA,NA,NA,NA,NA,NA,NA,NA,NA,NA
SUPAMT32807,3QAVNHZ3ES3NHGHNZSFQDPWH69ZLAN,BA820E69-62D4-4033-9A98-3DBC82B173D4,2023-09-27_09h31.00.543,WP_VExplicitOC_HL,2022.2.5,Win32,12.71714526,65.36458333,3.7298,2.0636,NA,NA,NA,NA,NA,frustrated,"frustrated, not frustrated","more frustrated, less frustrated",NA,NA,NA,NA,NA,NA,NA,NA,NA,NA,0,2,2,1,1,NA,NA,NA,NA,NA,NA,NA,NA,NA,NA,NA,NA,NA,NA,NA,NA,NA,NA,NA,NA,NA,NA,NA,NA,NA,NA,NA,NA,NA,NA,NA,NA,NA
SUPAMT32807,3QAVNHZ3ES3NHGHNZSFQDPWH69ZLAN,BA820E69-62D4-4033-9A98-3DBC82B173D4,2023-09-27_09h31.00.543,WP_VExplicitOC_HL,2022.2.5,Win32,12.71714526,NA,NA,NA,NA,NA,NA,NA,NA,NA,NA,NA,NA,NA,NA,NA,NA,NA,NA,NA,NA,NA,NA,NA,NA,NA,NA,NA,NA,NA,NA,NA,NA,NA,NA,NA,NA,NA,NA,NA,NA,NA,NA,NA,NA,NA,NA,NA,NA,NA,NA,NA,NA,NA,NA,NA,NA,NA,NA,NA
SUPAMT32807,3QAVNHZ3ES3NHGHNZSFQDPWH69ZLAN,BA820E69-62D4-4033-9A98-3DBC82B173D4,2023-09-27_09h31.00.543,WP_VExplicitOC_HL,2022.2.5,Win32,12.71714526,NA,NA,NA,NA,NA,NA,NA,NA,NA,NA,NA,NA,NA,NA,NA,NA,NA,NA,NA,NA,NA,NA,NA,NA,NA,NA,NA,NA,NA,NA,NA,NA,NA,NA,NA,NA,NA,NA,NA,NA,NA,NA,NA,NA,NA,NA,NA,NA,NA,NA,NA,NA,NA,NA,NA,NA,NA,NA,NA
SUPAMT32807,3QAVNHZ3ES3NHGHNZSFQDPWH69ZLAN,BA820E69-62D4-4033-9A98-3DBC82B173D4,2023-09-27_09h31.00.543,WP_VExplicitOC_HL,2022.2.5,Win32,12.71714526,65.36458333,4.3565,2.0661,NA,NA,NA,NA,NA,happy,"unhappy, happy","less happy, more happy",NA,NA,NA,NA,NA,NA,NA,NA,NA,NA,NA,NA,NA,NA,NA,0,0,0,0,1,NA,NA,NA,NA,NA,NA,NA,NA,NA,NA,NA,NA,NA,NA,NA,NA,NA,NA,NA,NA,NA,NA,NA,NA,NA,NA,NA,NA
SUPAMT32807,3QAVNHZ3ES3NHGHNZSFQDPWH69ZLAN,BA820E69-62D4-4033-9A98-3DBC82B173D4,2023-09-27_09h31.00.543,WP_VExplicitOC_HL,2022.2.5,Win32,12.71714526,67.1875,3.3122,2.0504,NA,NA,NA,NA,NA,frustrated,"frustrated, not frustrated","more frustrated, less frustrated",NA,NA,NA,NA,NA,NA,NA,NA,NA,NA,NA,NA,NA,NA,NA,0,1,1,1,1,NA,NA,NA,NA,NA,NA,NA,NA,NA,NA,NA,NA,NA,NA,NA,NA,NA,NA,NA,NA,NA,NA,NA,NA,NA,NA,NA,NA
SUPAMT32807,3QAVNHZ3ES3NHGHNZSFQDPWH69ZLAN,BA820E69-62D4-4033-9A98-3DBC82B173D4,2023-09-27_09h31.00.543,WP_VExplicitOC_HL,2022.2.5,Win32,12.71714526,68.22916667,3.3521,2.073,NA,NA,NA,NA,NA,bored,"bored, not bored","more bored, less bored",NA,NA,NA,NA,NA,NA,NA,NA,NA,NA,NA,NA,NA,NA,NA,0,2,2,2,1,NA,NA,NA,NA,NA,NA,NA,NA,NA,NA,NA,NA,NA,NA,NA,NA,NA,NA,NA,NA,NA,NA,NA,NA,NA,NA,NA,NA
SUPAMT32807,3QAVNHZ3ES3NHGHNZSFQDPWH69ZLAN,BA820E69-62D4-4033-9A98-3DBC82B173D4,2023-09-27_09h31.00.543,WP_VExplicitOC_HL,2022.2.5,Win32,12.71714526,NA,NA,NA,NA,NA,NA,NA,NA,NA,NA,NA,NA,NA,NA,NA,NA,NA,NA,NA,NA,NA,NA,NA,NA,NA,NA,NA,NA,NA,NA,NA,0,0,0,0,1,NA,NA,NA,NA,NA,NA,NA,NA,NA,NA,NA,NA,NA,NA,NA,NA,NA,NA,NA,NA,NA,NA,NA
SUPAMT32807,3QAVNHZ3ES3NHGHNZSFQDPWH69ZLAN,BA820E69-62D4-4033-9A98-3DBC82B173D4,2023-09-27_09h31.00.543,WP_VExplicitOC_HL,2022.2.5,Win32,12.71714526,62.23958333,3.1147,2.0279,NA,NA,NA,NA,NA,frustrated,"frustrated, not frustrated","more frustrated, less frustrated",NA,NA,NA,NA,NA,NA,NA,NA,NA,NA,NA,NA,NA,NA,NA,0,0,0,1,1,NA,NA,NA,NA,NA,NA,NA,NA,NA,NA,NA,NA,NA,NA,NA,NA,NA,NA,NA,NA,NA,NA,NA,NA,NA,NA,NA,NA
SUPAMT32807,3QAVNHZ3ES3NHGHNZSFQDPWH69ZLAN,BA820E69-62D4-4033-9A98-3DBC82B173D4,2023-09-27_09h31.00.543,WP_VExplicitOC_HL,2022.2.5,Win32,12.71714526,72.39583333,3.0112,2.034,NA,NA,NA,NA,NA,happy,"unhappy, happy","less happy, more happy",NA,NA,NA,NA,NA,NA,NA,NA,NA,NA,NA,NA,NA,NA,NA,0,1,1,0,1,NA,NA,NA,NA,NA,NA,NA,NA,NA,NA,NA,NA,NA,NA,NA,NA,NA,NA,NA,NA,NA,NA,NA,NA,NA,NA,NA,NA
SUPAMT32807,3QAVNHZ3ES3NHGHNZSFQDPWH69ZLAN,BA820E69-62D4-4033-9A98-3DBC82B173D4,2023-09-27_09h31.00.543,WP_VExplicitOC_HL,2022.2.5,Win32,12.71714526,59.89583333,2.9216,2.0677,NA,NA,NA,NA,NA,bored,"bored, not bored","more bored, less bored",NA,NA,NA,NA,NA,NA,NA,NA,NA,NA,NA,NA,NA,NA,NA,0,2,2,2,1,NA,NA,NA,NA,NA,NA,NA,NA,NA,NA,NA,NA,NA,NA,NA,NA,NA,NA,NA,NA,NA,NA,NA,NA,NA,NA,NA,NA
SUPAMT32807,3QAVNHZ3ES3NHGHNZSFQDPWH69ZLAN,BA820E69-62D4-4033-9A98-3DBC82B173D4,2023-09-27_09h31.00.543,WP_VExplicitOC_HL,2022.2.5,Win32,12.71714526,NA,NA,NA,NA,NA,NA,NA,NA,NA,NA,NA,NA,NA,NA,NA,NA,NA,NA,NA,NA,NA,NA,NA,NA,NA,NA,NA,NA,NA,NA,NA,1,0,1,0,1,NA,NA,NA,NA,NA,NA,NA,NA,NA,NA,NA,NA,NA,NA,NA,NA,NA,NA,NA,NA,NA,NA,NA
SUPAMT32807,3QAVNHZ3ES3NHGHNZSFQDPWH69ZLAN,BA820E69-62D4-4033-9A98-3DBC82B173D4,2023-09-27_09h31.00.543,WP_VExplicitOC_HL,2022.2.5,Win32,12.71714526,57.8125,3.1465,2.0788,NA,NA,NA,NA,NA,bored,"bored, not bored","more bored, less bored",NA,NA,NA,NA,NA,NA,NA,NA,NA,NA,NA,NA,NA,NA,NA,0,0,0,2,1,NA,NA,NA,NA,NA,NA,NA,NA,NA,NA,NA,NA,NA,NA,NA,NA,NA,NA,NA,NA,NA,NA,NA,NA,NA,NA,NA,NA
SUPAMT32807,3QAVNHZ3ES3NHGHNZSFQDPWH69ZLAN,BA820E69-62D4-4033-9A98-3DBC82B173D4,2023-09-27_09h31.00.543,WP_VExplicitOC_HL,2022.2.5,Win32,12.71714526,64.84375,3.6205,2.0132,NA,NA,NA,NA,NA,frustrated,"frustrated, not frustrated","more frustrated, less frustrated",NA,NA,NA,NA,NA,NA,NA,NA,NA,NA,NA,NA,NA,NA,NA,0,1,1,1,1,NA,NA,NA,NA,NA,NA,NA,NA,NA,NA,NA,NA,NA,NA,NA,NA,NA,NA,NA,NA,NA,NA,NA,NA,NA,NA,NA,NA
SUPAMT32807,3QAVNHZ3ES3NHGHNZSFQDPWH69ZLAN,BA820E69-62D4-4033-9A98-3DBC82B173D4,2023-09-27_09h31.00.543,WP_VExplicitOC_HL,2022.2.5,Win32,12.71714526,61.97916667,3.27,2.0832,NA,NA,NA,NA,NA,happy,"unhappy, happy","less happy, more happy",NA,NA,NA,NA,NA,NA,NA,NA,NA,NA,NA,NA,NA,NA,NA,0,2,2,0,1,NA,NA,NA,NA,NA,NA,NA,NA,NA,NA,NA,NA,NA,NA,NA,NA,NA,NA,NA,NA,NA,NA,NA,NA,NA,NA,NA,NA
SUPAMT32807,3QAVNHZ3ES3NHGHNZSFQDPWH69ZLAN,BA820E69-62D4-4033-9A98-3DBC82B173D4,2023-09-27_09h31.00.543,WP_VExplicitOC_HL,2022.2.5,Win32,12.71714526,NA,NA,NA,NA,NA,NA,NA,NA,NA,NA,NA,NA,NA,NA,NA,NA,NA,NA,NA,NA,NA,NA,NA,NA,NA,NA,NA,NA,NA,NA,NA,2,0,2,0,1,NA,NA,NA,NA,NA,NA,NA,NA,NA,NA,NA,NA,NA,NA,NA,NA,NA,NA,NA,NA,NA,NA,NA
SUPAMT32807,3QAVNHZ3ES3NHGHNZSFQDPWH69ZLAN,BA820E69-62D4-4033-9A98-3DBC82B173D4,2023-09-27_09h31.00.543,WP_VExplicitOC_HL,2022.2.5,Win32,12.71714526,62.5,3.4319,2.0294,NA,NA,NA,NA,NA,happy,"unhappy, happy","less happy, more happy",NA,NA,NA,NA,NA,NA,NA,NA,NA,NA,NA,NA,NA,NA,NA,0,0,0,0,1,NA,NA,NA,NA,NA,NA,NA,NA,NA,NA,NA,NA,NA,NA,NA,NA,NA,NA,NA,NA,NA,NA,NA,NA,NA,NA,NA,NA
SUPAMT32807,3QAVNHZ3ES3NHGHNZSFQDPWH69ZLAN,BA820E69-62D4-4033-9A98-3DBC82B173D4,2023-09-27_09h31.00.543,WP_VExplicitOC_HL,2022.2.5,Win32,12.71714526,67.96875,3.2567,2.0255,NA,NA,NA,NA,NA,bored,"bored, not bored","more bored, less bored",NA,NA,NA,NA,NA,NA,NA,NA,NA,NA,NA,NA,NA,NA,NA,0,1,1,2,1,NA,NA,NA,NA,NA,NA,NA,NA,NA,NA,NA,NA,NA,NA,NA,NA,NA,NA,NA,NA,NA,NA,NA,NA,NA,NA,NA,NA
SUPAMT32807,3QAVNHZ3ES3NHGHNZSFQDPWH69ZLAN,BA820E69-62D4-4033-9A98-3DBC82B173D4,2023-09-27_09h31.00.543,WP_VExplicitOC_HL,2022.2.5,Win32,12.71714526,77.34375,3.2957,2.0885,NA,NA,NA,NA,NA,frustrated,"frustrated, not frustrated","more frustrated, less frustrated",NA,NA,NA,NA,NA,NA,NA,NA,NA,NA,NA,NA,NA,NA,NA,0,2,2,1,1,NA,NA,NA,NA,NA,NA,NA,NA,NA,NA,NA,NA,NA,NA,NA,NA,NA,NA,NA,NA,NA,NA,NA,NA,NA,NA,NA,NA
SUPAMT32807,3QAVNHZ3ES3NHGHNZSFQDPWH69ZLAN,BA820E69-62D4-4033-9A98-3DBC82B173D4,2023-09-27_09h31.00.543,WP_VExplicitOC_HL,2022.2.5,Win32,12.71714526,NA,NA,NA,NA,NA,NA,NA,NA,NA,NA,NA,NA,NA,NA,NA,NA,NA,NA,NA,NA,NA,NA,NA,NA,NA,NA,NA,NA,NA,NA,NA,3,0,3,0,1,NA,NA,NA,NA,NA,NA,NA,NA,NA,NA,NA,NA,NA,NA,NA,NA,NA,NA,NA,NA,NA,NA,NA
SUPAMT32807,3QAVNHZ3ES3NHGHNZSFQDPWH69ZLAN,BA820E69-62D4-4033-9A98-3DBC82B173D4,2023-09-27_09h31.00.543,WP_VExplicitOC_HL,2022.2.5,Win32,12.71714526,60.41666667,3.3367,2.0051,NA,NA,NA,NA,NA,bored,"bored, not bored","more bored, less bored",NA,NA,NA,NA,NA,NA,NA,NA,NA,NA,NA,NA,NA,NA,NA,0,0,0,2,1,NA,NA,NA,NA,NA,NA,NA,NA,NA,NA,NA,NA,NA,NA,NA,NA,NA,NA,NA,NA,NA,NA,NA,NA,NA,NA,NA,NA
SUPAMT32807,3QAVNHZ3ES3NHGHNZSFQDPWH69ZLAN,BA820E69-62D4-4033-9A98-3DBC82B173D4,2023-09-27_09h31.00.543,WP_VExplicitOC_HL,2022.2.5,Win32,12.71714526,73.4375,3.0853,2.0569,NA,NA,NA,NA,NA,happy,"unhappy, happy","less happy, more happy",NA,NA,NA,NA,NA,NA,NA,NA,NA,NA,NA,NA,NA,NA,NA,0,1,1,0,1,NA,NA,NA,NA,NA,NA,NA,NA,NA,NA,NA,NA,NA,NA,NA,NA,NA,NA,NA,NA,NA,NA,NA,NA,NA,NA,NA,NA
SUPAMT32807,3QAVNHZ3ES3NHGHNZSFQDPWH69ZLAN,BA820E69-62D4-4033-9A98-3DBC82B173D4,2023-09-27_09h31.00.543,WP_VExplicitOC_HL,2022.2.5,Win32,12.71714526,66.92708333,3.0932,2.0766,NA,NA,NA,NA,NA,frustrated,"frustrated, not frustrated","more frustrated, less frustrated",NA,NA,NA,NA,NA,NA,NA,NA,NA,NA,NA,NA,NA,NA,NA,0,2,2,1,1,NA,NA,NA,NA,NA,NA,NA,NA,NA,NA,NA,NA,NA,NA,NA,NA,NA,NA,NA,NA,NA,NA,NA,NA,NA,NA,NA,NA
SUPAMT32807,3QAVNHZ3ES3NHGHNZSFQDPWH69ZLAN,BA820E69-62D4-4033-9A98-3DBC82B173D4,2023-09-27_09h31.00.543,WP_VExplicitOC_HL,2022.2.5,Win32,12.71714526,NA,NA,NA,NA,NA,NA,NA,NA,NA,NA,NA,NA,NA,NA,NA,NA,NA,NA,NA,NA,NA,NA,NA,NA,NA,NA,NA,NA,NA,NA,NA,4,0,4,0,1,NA,NA,NA,NA,NA,NA,NA,NA,NA,NA,NA,NA,NA,NA,NA,NA,NA,NA,NA,NA,NA,NA,NA
SUPAMT32807,3QAVNHZ3ES3NHGHNZSFQDPWH69ZLAN,BA820E69-62D4-4033-9A98-3DBC82B173D4,2023-09-27_09h31.00.543,WP_VExplicitOC_HL,2022.2.5,Win32,12.71714526,64.32291667,3.066,2.0379,NA,NA,NA,NA,NA,frustrated,"frustrated, not frustrated","more frustrated, less frustrated",NA,NA,NA,NA,NA,NA,NA,NA,NA,NA,NA,NA,NA,NA,NA,0,0,0,1,1,NA,NA,NA,NA,NA,NA,NA,NA,NA,NA,NA,NA,NA,NA,NA,NA,NA,NA,NA,NA,NA,NA,NA,NA,NA,NA,NA,NA
SUPAMT32807,3QAVNHZ3ES3NHGHNZSFQDPWH69ZLAN,BA820E69-62D4-4033-9A98-3DBC82B173D4,2023-09-27_09h31.00.543,WP_VExplicitOC_HL,2022.2.5,Win32,12.71714526,70.57291667,3.5837,2.0006,NA,NA,NA,NA,NA,bored,"bored, not bored","more bored, less bored",NA,NA,NA,NA,NA,NA,NA,NA,NA,NA,NA,NA,NA,NA,NA,0,1,1,2,1,NA,NA,NA,NA,NA,NA,NA,NA,NA,NA,NA,NA,NA,NA,NA,NA,NA,NA,NA,NA,NA,NA,NA,NA,NA,NA,NA,NA
SUPAMT32807,3QAVNHZ3ES3NHGHNZSFQDPWH69ZLAN,BA820E69-62D4-4033-9A98-3DBC82B173D4,2023-09-27_09h31.00.543,WP_VExplicitOC_HL,2022.2.5,Win32,12.71714526,70.3125,3.1743,2.0704,NA,NA,NA,NA,NA,happy,"unhappy, happy","less happy, more happy",NA,NA,NA,NA,NA,NA,NA,NA,NA,NA,NA,NA,NA,NA,NA,0,2,2,0,1,NA,NA,NA,NA,NA,NA,NA,NA,NA,NA,NA,NA,NA,NA,NA,NA,NA,NA,NA,NA,NA,NA,NA,NA,NA,NA,NA,NA
SUPAMT32807,3QAVNHZ3ES3NHGHNZSFQDPWH69ZLAN,BA820E69-62D4-4033-9A98-3DBC82B173D4,2023-09-27_09h31.00.543,WP_VExplicitOC_HL,2022.2.5,Win32,12.71714526,NA,NA,NA,NA,NA,NA,NA,NA,NA,NA,NA,NA,NA,NA,NA,NA,NA,NA,NA,NA,NA,NA,NA,NA,NA,NA,NA,NA,NA,NA,NA,5,0,5,0,1,NA,NA,NA,NA,NA,NA,NA,NA,NA,NA,NA,NA,NA,NA,NA,NA,NA,NA,NA,NA,NA,NA,NA
SUPAMT32807,3QAVNHZ3ES3NHGHNZSFQDPWH69ZLAN,BA820E69-62D4-4033-9A98-3DBC82B173D4,2023-09-27_09h31.00.543,WP_VExplicitOC_HL,2022.2.5,Win32,12.71714526,62.76041667,4.7938,2.0541,NA,NA,NA,NA,NA,bored,"bored, not bored","more bored, less bored",NA,NA,NA,NA,NA,NA,NA,NA,NA,NA,NA,NA,NA,NA,NA,0,0,0,2,1,NA,NA,NA,NA,NA,NA,NA,NA,NA,NA,NA,NA,NA,NA,NA,NA,NA,NA,NA,NA,NA,NA,NA,NA,NA,NA,NA,NA
SUPAMT32807,3QAVNHZ3ES3NHGHNZSFQDPWH69ZLAN,BA820E69-62D4-4033-9A98-3DBC82B173D4,2023-09-27_09h31.00.543,WP_VExplicitOC_HL,2022.2.5,Win32,12.71714526,70.3125,3.4781,2.0076,NA,NA,NA,NA,NA,happy,"unhappy, happy","less happy, more happy",NA,NA,NA,NA,NA,NA,NA,NA,NA,NA,NA,NA,NA,NA,NA,0,1,1,0,1,NA,NA,NA,NA,NA,NA,NA,NA,NA,NA,NA,NA,NA,NA,NA,NA,NA,NA,NA,NA,NA,NA,NA,NA,NA,NA,NA,NA
SUPAMT32807,3QAVNHZ3ES3NHGHNZSFQDPWH69ZLAN,BA820E69-62D4-4033-9A98-3DBC82B173D4,2023-09-27_09h31.00.543,WP_VExplicitOC_HL,2022.2.5,Win32,12.71714526,67.1875,3.1608,2.024,NA,NA,NA,NA,NA,frustrated,"frustrated, not frustrated","more frustrated, less frustrated",NA,NA,NA,NA,NA,NA,NA,NA,NA,NA,NA,NA,NA,NA,NA,0,2,2,1,1,NA,NA,NA,NA,NA,NA,NA,NA,NA,NA,NA,NA,NA,NA,NA,NA,NA,NA,NA,NA,NA,NA,NA,NA,NA,NA,NA,NA
SUPAMT32807,3QAVNHZ3ES3NHGHNZSFQDPWH69ZLAN,BA820E69-62D4-4033-9A98-3DBC82B173D4,2023-09-27_09h31.00.543,WP_VExplicitOC_HL,2022.2.5,Win32,12.71714526,NA,NA,NA,NA,NA,NA,NA,NA,NA,NA,NA,NA,NA,NA,NA,NA,NA,NA,NA,NA,NA,NA,NA,NA,NA,NA,NA,NA,NA,NA,NA,6,0,6,0,1,NA,NA,NA,NA,NA,NA,NA,NA,NA,NA,NA,NA,NA,NA,NA,NA,NA,NA,NA,NA,NA,NA,NA
SUPAMT32807,3QAVNHZ3ES3NHGHNZSFQDPWH69ZLAN,BA820E69-62D4-4033-9A98-3DBC82B173D4,2023-09-27_09h31.00.543,WP_VExplicitOC_HL,2022.2.5,Win32,12.71714526,65.10416667,3.2625,2.0517,NA,NA,NA,NA,NA,happy,"unhappy, happy","less happy, more happy",NA,NA,NA,NA,NA,NA,NA,NA,NA,NA,NA,NA,NA,NA,NA,0,0,0,0,1,NA,NA,NA,NA,NA,NA,NA,NA,NA,NA,NA,NA,NA,NA,NA,NA,NA,NA,NA,NA,NA,NA,NA,NA,NA,NA,NA,NA
SUPAMT32807,3QAVNHZ3ES3NHGHNZSFQDPWH69ZLAN,BA820E69-62D4-4033-9A98-3DBC82B173D4,2023-09-27_09h31.00.543,WP_VExplicitOC_HL,2022.2.5,Win32,12.71714526,66.66666667,3.4472,2.0667,NA,NA,NA,NA,NA,bored,"bored, not bored","more bored, less bored",NA,NA,NA,NA,NA,NA,NA,NA,NA,NA,NA,NA,NA,NA,NA,0,1,1,2,1,NA,NA,NA,NA,NA,NA,NA,NA,NA,NA,NA,NA,NA,NA,NA,NA,NA,NA,NA,NA,NA,NA,NA,NA,NA,NA,NA,NA
SUPAMT32807,3QAVNHZ3ES3NHGHNZSFQDPWH69ZLAN,BA820E69-62D4-4033-9A98-3DBC82B173D4,2023-09-27_09h31.00.543,WP_VExplicitOC_HL,2022.2.5,Win32,12.71714526,68.48958333,3.5009,2.0367,NA,NA,NA,NA,NA,frustrated,"frustrated, not frustrated","more frustrated, less frustrated",NA,NA,NA,NA,NA,NA,NA,NA,NA,NA,NA,NA,NA,NA,NA,0,2,2,1,1,NA,NA,NA,NA,NA,NA,NA,NA,NA,NA,NA,NA,NA,NA,NA,NA,NA,NA,NA,NA,NA,NA,NA,NA,NA,NA,NA,NA
SUPAMT32807,3QAVNHZ3ES3NHGHNZSFQDPWH69ZLAN,BA820E69-62D4-4033-9A98-3DBC82B173D4,2023-09-27_09h31.00.543,WP_VExplicitOC_HL,2022.2.5,Win32,12.71714526,NA,NA,NA,NA,NA,NA,NA,NA,NA,NA,NA,NA,NA,NA,NA,NA,NA,NA,NA,NA,NA,NA,NA,NA,NA,NA,NA,NA,NA,NA,NA,7,0,7,0,1,NA,NA,NA,NA,NA,NA,NA,NA,NA,NA,NA,NA,NA,NA,NA,NA,NA,NA,NA,NA,NA,NA,NA
SUPAMT32807,3QAVNHZ3ES3NHGHNZSFQDPWH69ZLAN,BA820E69-62D4-4033-9A98-3DBC82B173D4,2023-09-27_09h31.00.543,WP_VExplicitOC_HL,2022.2.5,Win32,12.71714526,57.8125,3.3811,2.0367,NA,NA,NA,NA,NA,frustrated,"frustrated, not frustrated","more frustrated, less frustrated",NA,NA,NA,NA,NA,NA,NA,NA,NA,NA,NA,NA,NA,NA,NA,0,0,0,1,1,NA,NA,NA,NA,NA,NA,NA,NA,NA,NA,NA,NA,NA,NA,NA,NA,NA,NA,NA,NA,NA,NA,NA,NA,NA,NA,NA,NA
SUPAMT32807,3QAVNHZ3ES3NHGHNZSFQDPWH69ZLAN,BA820E69-62D4-4033-9A98-3DBC82B173D4,2023-09-27_09h31.00.543,WP_VExplicitOC_HL,2022.2.5,Win32,12.71714526,75.52083333,2.8951,2.026,NA,NA,NA,NA,NA,bored,"bored, not bored","more bored, less bored",NA,NA,NA,NA,NA,NA,NA,NA,NA,NA,NA,NA,NA,NA,NA,0,1,1,2,1,NA,NA,NA,NA,NA,NA,NA,NA,NA,NA,NA,NA,NA,NA,NA,NA,NA,NA,NA,NA,NA,NA,NA,NA,NA,NA,NA,NA
SUPAMT32807,3QAVNHZ3ES3NHGHNZSFQDPWH69ZLAN,BA820E69-62D4-4033-9A98-3DBC82B173D4,2023-09-27_09h31.00.543,WP_VExplicitOC_HL,2022.2.5,Win32,12.71714526,67.70833333,3.068,2.0541,NA,NA,NA,NA,NA,happy,"unhappy, happy","less happy, more happy",NA,NA,NA,NA,NA,NA,NA,NA,NA,NA,NA,NA,NA,NA,NA,0,2,2,0,1,NA,NA,NA,NA,NA,NA,NA,NA,NA,NA,NA,NA,NA,NA,NA,NA,NA,NA,NA,NA,NA,NA,NA,NA,NA,NA,NA,NA
SUPAMT32807,3QAVNHZ3ES3NHGHNZSFQDPWH69ZLAN,BA820E69-62D4-4033-9A98-3DBC82B173D4,2023-09-27_09h31.00.543,WP_VExplicitOC_HL,2022.2.5,Win32,12.71714526,NA,NA,NA,NA,NA,NA,NA,NA,NA,NA,NA,NA,NA,NA,NA,NA,NA,NA,NA,NA,NA,NA,NA,NA,NA,NA,NA,NA,NA,NA,NA,8,0,8,0,1,NA,NA,NA,NA,NA,NA,NA,NA,NA,NA,NA,NA,NA,NA,NA,NA,NA,NA,NA,NA,NA,NA,NA
SUPAMT32807,3QAVNHZ3ES3NHGHNZSFQDPWH69ZLAN,BA820E69-62D4-4033-9A98-3DBC82B173D4,2023-09-27_09h31.00.543,WP_VExplicitOC_HL,2022.2.5,Win32,12.71714526,62.5,3.1297,2.0504,NA,NA,NA,NA,NA,happy,"unhappy, happy","less happy, more happy",NA,NA,NA,NA,NA,NA,NA,NA,NA,NA,NA,NA,NA,NA,NA,0,0,0,0,1,NA,NA,NA,NA,NA,NA,NA,NA,NA,NA,NA,NA,NA,NA,NA,NA,NA,NA,NA,NA,NA,NA,NA,NA,NA,NA,NA,NA
SUPAMT32807,3QAVNHZ3ES3NHGHNZSFQDPWH69ZLAN,BA820E69-62D4-4033-9A98-3DBC82B173D4,2023-09-27_09h31.00.543,WP_VExplicitOC_HL,2022.2.5,Win32,12.71714526,70.83333333,3.6333,2.0675,NA,NA,NA,NA,NA,frustrated,"frustrated, not frustrated","more frustrated, less frustrated",NA,NA,NA,NA,NA,NA,NA,NA,NA,NA,NA,NA,NA,NA,NA,0,1,1,1,1,NA,NA,NA,NA,NA,NA,NA,NA,NA,NA,NA,NA,NA,NA,NA,NA,NA,NA,NA,NA,NA,NA,NA,NA,NA,NA,NA,NA
SUPAMT32807,3QAVNHZ3ES3NHGHNZSFQDPWH69ZLAN,BA820E69-62D4-4033-9A98-3DBC82B173D4,2023-09-27_09h31.00.543,WP_VExplicitOC_HL,2022.2.5,Win32,12.71714526,57.03125,3.0183,2.0072,NA,NA,NA,NA,NA,bored,"bored, not bored","more bored, less bored",NA,NA,NA,NA,NA,NA,NA,NA,NA,NA,NA,NA,NA,NA,NA,0,2,2,2,1,NA,NA,NA,NA,NA,NA,NA,NA,NA,NA,NA,NA,NA,NA,NA,NA,NA,NA,NA,NA,NA,NA,NA,NA,NA,NA,NA,NA
SUPAMT32807,3QAVNHZ3ES3NHGHNZSFQDPWH69ZLAN,BA820E69-62D4-4033-9A98-3DBC82B173D4,2023-09-27_09h31.00.543,WP_VExplicitOC_HL,2022.2.5,Win32,12.71714526,NA,NA,NA,NA,NA,NA,NA,NA,NA,NA,NA,NA,NA,NA,NA,NA,NA,NA,NA,NA,NA,NA,NA,NA,NA,NA,NA,NA,NA,NA,NA,9,0,9,0,1,NA,NA,NA,NA,NA,NA,NA,NA,NA,NA,NA,NA,NA,NA,NA,NA,NA,NA,NA,NA,NA,NA,NA
SUPAMT32807,3QAVNHZ3ES3NHGHNZSFQDPWH69ZLAN,BA820E69-62D4-4033-9A98-3DBC82B173D4,2023-09-27_09h31.00.543,WP_VExplicitOC_HL,2022.2.5,Win32,12.71714526,58.33333333,3.1902,2.0638,NA,NA,NA,NA,NA,frustrated,"frustrated, not frustrated","more frustrated, less frustrated",NA,NA,NA,NA,NA,NA,NA,NA,NA,NA,NA,NA,NA,NA,NA,0,0,0,1,1,NA,NA,NA,NA,NA,NA,NA,NA,NA,NA,NA,NA,NA,NA,NA,NA,NA,NA,NA,NA,NA,NA,NA,NA,NA,NA,NA,NA
SUPAMT32807,3QAVNHZ3ES3NHGHNZSFQDPWH69ZLAN,BA820E69-62D4-4033-9A98-3DBC82B173D4,2023-09-27_09h31.00.543,WP_VExplicitOC_HL,2022.2.5,Win32,12.71714526,64.84375,3.6473,2.0047,NA,NA,NA,NA,NA,bored,"bored, not bored","more bored, less bored",NA,NA,NA,NA,NA,NA,NA,NA,NA,NA,NA,NA,NA,NA,NA,0,1,1,2,1,NA,NA,NA,NA,NA,NA,NA,NA,NA,NA,NA,NA,NA,NA,NA,NA,NA,NA,NA,NA,NA,NA,NA,NA,NA,NA,NA,NA
SUPAMT32807,3QAVNHZ3ES3NHGHNZSFQDPWH69ZLAN,BA820E69-62D4-4033-9A98-3DBC82B173D4,2023-09-27_09h31.00.543,WP_VExplicitOC_HL,2022.2.5,Win32,12.71714526,63.54166667,3.2357,2.0055,NA,NA,NA,NA,NA,happy,"unhappy, happy","less happy, more happy",NA,NA,NA,NA,NA,NA,NA,NA,NA,NA,NA,NA,NA,NA,NA,0,2,2,0,1,NA,NA,NA,NA,NA,NA,NA,NA,NA,NA,NA,NA,NA,NA,NA,NA,NA,NA,NA,NA,NA,NA,NA,NA,NA,NA,NA,NA
SUPAMT32807,3QAVNHZ3ES3NHGHNZSFQDPWH69ZLAN,BA820E69-62D4-4033-9A98-3DBC82B173D4,2023-09-27_09h31.00.543,WP_VExplicitOC_HL,2022.2.5,Win32,12.71714526,NA,NA,NA,NA,NA,NA,NA,NA,NA,NA,NA,NA,NA,NA,NA,NA,NA,NA,NA,NA,NA,NA,NA,NA,NA,NA,NA,NA,NA,NA,NA,10,0,10,0,1,NA,NA,NA,NA,NA,NA,NA,NA,NA,NA,NA,NA,NA,NA,NA,NA,NA,NA,NA,NA,NA,NA,NA
SUPAMT32807,3QAVNHZ3ES3NHGHNZSFQDPWH69ZLAN,BA820E69-62D4-4033-9A98-3DBC82B173D4,2023-09-27_09h31.00.543,WP_VExplicitOC_HL,2022.2.5,Win32,12.71714526,71.09375,3.87,2.0751,NA,NA,NA,NA,NA,frustrated,"frustrated, not frustrated","more frustrated, less frustrated",NA,NA,NA,NA,NA,NA,NA,NA,NA,NA,NA,NA,NA,NA,NA,0,0,0,1,1,NA,NA,NA,NA,NA,NA,NA,NA,NA,NA,NA,NA,NA,NA,NA,NA,NA,NA,NA,NA,NA,NA,NA,NA,NA,NA,NA,NA
SUPAMT32807,3QAVNHZ3ES3NHGHNZSFQDPWH69ZLAN,BA820E69-62D4-4033-9A98-3DBC82B173D4,2023-09-27_09h31.00.543,WP_VExplicitOC_HL,2022.2.5,Win32,12.71714526,56.51041667,3.2594,2.0365,NA,NA,NA,NA,NA,happy,"unhappy, happy","less happy, more happy",NA,NA,NA,NA,NA,NA,NA,NA,NA,NA,NA,NA,NA,NA,NA,0,1,1,0,1,NA,NA,NA,NA,NA,NA,NA,NA,NA,NA,NA,NA,NA,NA,NA,NA,NA,NA,NA,NA,NA,NA,NA,NA,NA,NA,NA,NA
SUPAMT32807,3QAVNHZ3ES3NHGHNZSFQDPWH69ZLAN,BA820E69-62D4-4033-9A98-3DBC82B173D4,2023-09-27_09h31.00.543,WP_VExplicitOC_HL,2022.2.5,Win32,12.71714526,65.625,3.0444,2.0543,NA,NA,NA,NA,NA,bored,"bored, not bored","more bored, less bored",NA,NA,NA,NA,NA,NA,NA,NA,NA,NA,NA,NA,NA,NA,NA,0,2,2,2,1,NA,NA,NA,NA,NA,NA,NA,NA,NA,NA,NA,NA,NA,NA,NA,NA,NA,NA,NA,NA,NA,NA,NA,NA,NA,NA,NA,NA
SUPAMT32807,3QAVNHZ3ES3NHGHNZSFQDPWH69ZLAN,BA820E69-62D4-4033-9A98-3DBC82B173D4,2023-09-27_09h31.00.543,WP_VExplicitOC_HL,2022.2.5,Win32,12.71714526,NA,NA,NA,NA,NA,NA,NA,NA,NA,NA,NA,NA,NA,NA,NA,NA,NA,NA,NA,NA,NA,NA,NA,NA,NA,NA,NA,NA,NA,NA,NA,11,0,11,0,1,NA,NA,NA,NA,NA,NA,NA,NA,NA,NA,NA,NA,NA,NA,NA,NA,NA,NA,NA,NA,NA,NA,NA
SUPAMT32807,3QAVNHZ3ES3NHGHNZSFQDPWH69ZLAN,BA820E69-62D4-4033-9A98-3DBC82B173D4,2023-09-27_09h31.00.543,WP_VExplicitOC_HL,2022.2.5,Win32,12.71714526,71.875,4.0087,2.0042,NA,NA,NA,NA,NA,happy,"unhappy, happy","less happy, more happy",NA,NA,NA,NA,NA,NA,NA,NA,NA,NA,NA,NA,NA,NA,NA,0,0,0,0,1,NA,NA,NA,NA,NA,NA,NA,NA,NA,NA,NA,NA,NA,NA,NA,NA,NA,NA,NA,NA,NA,NA,NA,NA,NA,NA,NA,NA
SUPAMT32807,3QAVNHZ3ES3NHGHNZSFQDPWH69ZLAN,BA820E69-62D4-4033-9A98-3DBC82B173D4,2023-09-27_09h31.00.543,WP_VExplicitOC_HL,2022.2.5,Win32,12.71714526,70.3125,4.0429,2.015,NA,NA,NA,NA,NA,bored,"bored, not bored","more bored, less bored",NA,NA,NA,NA,NA,NA,NA,NA,NA,NA,NA,NA,NA,NA,NA,0,1,1,2,1,NA,NA,NA,NA,NA,NA,NA,NA,NA,NA,NA,NA,NA,NA,NA,NA,NA,NA,NA,NA,NA,NA,NA,NA,NA,NA,NA,NA
SUPAMT32807,3QAVNHZ3ES3NHGHNZSFQDPWH69ZLAN,BA820E69-62D4-4033-9A98-3DBC82B173D4,2023-09-27_09h31.00.543,WP_VExplicitOC_HL,2022.2.5,Win32,12.71714526,59.63541667,2.929,2.0168,NA,NA,NA,NA,NA,frustrated,"frustrated, not frustrated","more frustrated, less frustrated",NA,NA,NA,NA,NA,NA,NA,NA,NA,NA,NA,NA,NA,NA,NA,0,2,2,1,1,NA,NA,NA,NA,NA,NA,NA,NA,NA,NA,NA,NA,NA,NA,NA,NA,NA,NA,NA,NA,NA,NA,NA,NA,NA,NA,NA,NA
SUPAMT32807,3QAVNHZ3ES3NHGHNZSFQDPWH69ZLAN,BA820E69-62D4-4033-9A98-3DBC82B173D4,2023-09-27_09h31.00.543,WP_VExplicitOC_HL,2022.2.5,Win32,12.71714526,NA,NA,NA,NA,NA,NA,NA,NA,NA,NA,NA,NA,NA,NA,NA,NA,NA,NA,NA,NA,NA,NA,NA,NA,NA,NA,NA,NA,NA,NA,NA,12,0,12,0,1,NA,NA,NA,NA,NA,NA,NA,NA,NA,NA,NA,NA,NA,NA,NA,NA,NA,NA,NA,NA,NA,NA,NA
SUPAMT32807,3QAVNHZ3ES3NHGHNZSFQDPWH69ZLAN,BA820E69-62D4-4033-9A98-3DBC82B173D4,2023-09-27_09h31.00.543,WP_VExplicitOC_HL,2022.2.5,Win32,12.71714526,63.80208333,3.2888,2.02,NA,NA,NA,NA,NA,frustrated,"frustrated, not frustrated","more frustrated, less frustrated",NA,NA,NA,NA,NA,NA,NA,NA,NA,NA,NA,NA,NA,NA,NA,0,0,0,1,1,NA,NA,NA,NA,NA,NA,NA,NA,NA,NA,NA,NA,NA,NA,NA,NA,NA,NA,NA,NA,NA,NA,NA,NA,NA,NA,NA,NA
SUPAMT32807,3QAVNHZ3ES3NHGHNZSFQDPWH69ZLAN,BA820E69-62D4-4033-9A98-3DBC82B173D4,2023-09-27_09h31.00.543,WP_VExplicitOC_HL,2022.2.5,Win32,12.71714526,74.73958333,3.1801,2.1102,NA,NA,NA,NA,NA,happy,"unhappy, happy","less happy, more happy",NA,NA,NA,NA,NA,NA,NA,NA,NA,NA,NA,NA,NA,NA,NA,0,1,1,0,1,NA,NA,NA,NA,NA,NA,NA,NA,NA,NA,NA,NA,NA,NA,NA,NA,NA,NA,NA,NA,NA,NA,NA,NA,NA,NA,NA,NA
SUPAMT32807,3QAVNHZ3ES3NHGHNZSFQDPWH69ZLAN,BA820E69-62D4-4033-9A98-3DBC82B173D4,2023-09-27_09h31.00.543,WP_VExplicitOC_HL,2022.2.5,Win32,12.71714526,58.07291667,3.0442,2.0022,NA,NA,NA,NA,NA,bored,"bored, not bored","more bored, less bored",NA,NA,NA,NA,NA,NA,NA,NA,NA,NA,NA,NA,NA,NA,NA,0,2,2,2,1,NA,NA,NA,NA,NA,NA,NA,NA,NA,NA,NA,NA,NA,NA,NA,NA,NA,NA,NA,NA,NA,NA,NA,NA,NA,NA,NA,NA
SUPAMT32807,3QAVNHZ3ES3NHGHNZSFQDPWH69ZLAN,BA820E69-62D4-4033-9A98-3DBC82B173D4,2023-09-27_09h31.00.543,WP_VExplicitOC_HL,2022.2.5,Win32,12.71714526,NA,NA,NA,NA,NA,NA,NA,NA,NA,NA,NA,NA,NA,NA,NA,NA,NA,NA,NA,NA,NA,NA,NA,NA,NA,NA,NA,NA,NA,NA,NA,13,0,13,0,1,NA,NA,NA,NA,NA,NA,NA,NA,NA,NA,NA,NA,NA,NA,NA,NA,NA,NA,NA,NA,NA,NA,NA
SUPAMT32807,3QAVNHZ3ES3NHGHNZSFQDPWH69ZLAN,BA820E69-62D4-4033-9A98-3DBC82B173D4,2023-09-27_09h31.00.543,WP_VExplicitOC_HL,2022.2.5,Win32,12.71714526,61.71875,3.4355,2.0677,NA,NA,NA,NA,NA,happy,"unhappy, happy","less happy, more happy",NA,NA,NA,NA,NA,NA,NA,NA,NA,NA,NA,NA,NA,NA,NA,0,0,0,0,1,NA,NA,NA,NA,NA,NA,NA,NA,NA,NA,NA,NA,NA,NA,NA,NA,NA,NA,NA,NA,NA,NA,NA,NA,NA,NA,NA,NA
SUPAMT32807,3QAVNHZ3ES3NHGHNZSFQDPWH69ZLAN,BA820E69-62D4-4033-9A98-3DBC82B173D4,2023-09-27_09h31.00.543,WP_VExplicitOC_HL,2022.2.5,Win32,12.71714526,71.875,3.0933,2.0669,NA,NA,NA,NA,NA,bored,"bored, not bored","more bored, less bored",NA,NA,NA,NA,NA,NA,NA,NA,NA,NA,NA,NA,NA,NA,NA,0,1,1,2,1,NA,NA,NA,NA,NA,NA,NA,NA,NA,NA,NA,NA,NA,NA,NA,NA,NA,NA,NA,NA,NA,NA,NA,NA,NA,NA,NA,NA
SUPAMT32807,3QAVNHZ3ES3NHGHNZSFQDPWH69ZLAN,BA820E69-62D4-4033-9A98-3DBC82B173D4,2023-09-27_09h31.00.543,WP_VExplicitOC_HL,2022.2.5,Win32,12.71714526,54.94791667,3.0906,2.0531,NA,NA,NA,NA,NA,frustrated,"frustrated, not frustrated","more frustrated, less frustrated",NA,NA,NA,NA,NA,NA,NA,NA,NA,NA,NA,NA,NA,NA,NA,0,2,2,1,1,NA,NA,NA,NA,NA,NA,NA,NA,NA,NA,NA,NA,NA,NA,NA,NA,NA,NA,NA,NA,NA,NA,NA,NA,NA,NA,NA,NA
SUPAMT32807,3QAVNHZ3ES3NHGHNZSFQDPWH69ZLAN,BA820E69-62D4-4033-9A98-3DBC82B173D4,2023-09-27_09h31.00.543,WP_VExplicitOC_HL,2022.2.5,Win32,12.71714526,NA,NA,NA,NA,NA,NA,NA,NA,NA,NA,NA,NA,NA,NA,NA,NA,NA,NA,NA,NA,NA,NA,NA,NA,NA,NA,NA,NA,NA,NA,NA,14,0,14,0,1,NA,NA,NA,NA,NA,NA,NA,NA,NA,NA,NA,NA,NA,NA,NA,NA,NA,NA,NA,NA,NA,NA,NA
SUPAMT32807,3QAVNHZ3ES3NHGHNZSFQDPWH69ZLAN,BA820E69-62D4-4033-9A98-3DBC82B173D4,2023-09-27_09h31.00.543,WP_VExplicitOC_HL,2022.2.5,Win32,12.71714526,NA,NA,NA,NA,NA,NA,NA,NA,NA,NA,NA,NA,NA,NA,NA,NA,NA,NA,NA,NA,NA,NA,NA,NA,NA,NA,NA,NA,NA,NA,NA,NA,NA,NA,NA,NA,NA,NA,NA,NA,NA,NA,NA,NA,NA,NA,NA,NA,NA,NA,NA,NA,NA,NA,NA,NA,NA,NA,NA
SUPAMT32807,3QAVNHZ3ES3NHGHNZSFQDPWH69ZLAN,BA820E69-62D4-4033-9A98-3DBC82B173D4,2023-09-27_09h31.00.543,WP_VExplicitOC_HL,2022.2.5,Win32,12.71714526,NA,NA,NA,NA,NA,NA,NA,NA,NA,NA,NA,NA,NA,NA,NA,NA,NA,NA,NA,NA,NA,NA,NA,NA,NA,NA,NA,NA,NA,NA,NA,NA,NA,NA,NA,NA,NA,NA,NA,NA,NA,NA,NA,NA,NA,NA,NA,NA,NA,NA,NA,NA,NA,NA,NA,NA,NA,NA,NA
SUPAMT32807,3QAVNHZ3ES3NHGHNZSFQDPWH69ZLAN,BA820E69-62D4-4033-9A98-3DBC82B173D4,2023-09-27_09h31.00.543,WP_VExplicitOC_HL,2022.2.5,Win32,12.71714526,NA,NA,NA,NA,NA,NA,NA,NA,NA,NA,NA,NA,NA,NA,NA,NA,NA,NA,rest (looking at a fixed cross),001.png,NA,NA,NA,NA,NA,NA,NA,NA,NA,NA,NA,NA,NA,NA,NA,NA,67.1875,2.2036,0,0,0,0,1,NA,NA,NA,NA,NA,NA,NA,NA,NA,NA,NA,NA,NA,NA,NA,NA
SUPAMT32807,3QAVNHZ3ES3NHGHNZSFQDPWH69ZLAN,BA820E69-62D4-4033-9A98-3DBC82B173D4,2023-09-27_09h31.00.543,WP_VExplicitOC_HL,2022.2.5,Win32,12.71714526,NA,NA,NA,NA,NA,NA,NA,NA,NA,NA,NA,NA,NA,NA,NA,NA,NA,NA,stand up,002.png,NA,NA,NA,NA,NA,NA,NA,NA,NA,NA,NA,NA,NA,NA,NA,NA,35.15625,1.7857,0,1,1,1,1,NA,NA,NA,NA,NA,NA,NA,NA,NA,NA,NA,NA,NA,NA,NA,NA
SUPAMT32807,3QAVNHZ3ES3NHGHNZSFQDPWH69ZLAN,BA820E69-62D4-4033-9A98-3DBC82B173D4,2023-09-27_09h31.00.543,WP_VExplicitOC_HL,2022.2.5,Win32,12.71714526,NA,NA,NA,NA,NA,NA,NA,NA,NA,NA,NA,NA,NA,NA,NA,NA,NA,NA,stretch,003.png,NA,NA,NA,NA,NA,NA,NA,NA,NA,NA,NA,NA,NA,NA,NA,NA,51.82291667,1.085,0,2,2,2,1,NA,NA,NA,NA,NA,NA,NA,NA,NA,NA,NA,NA,NA,NA,NA,NA
SUPAMT32807,3QAVNHZ3ES3NHGHNZSFQDPWH69ZLAN,BA820E69-62D4-4033-9A98-3DBC82B173D4,2023-09-27_09h31.00.543,WP_VExplicitOC_HL,2022.2.5,Win32,12.71714526,NA,NA,NA,NA,NA,NA,NA,NA,NA,NA,NA,NA,NA,NA,NA,NA,NA,NA,make a drink,004.png,NA,NA,NA,NA,NA,NA,NA,NA,NA,NA,NA,NA,NA,NA,NA,NA,61.19791667,1.5978,0,3,3,3,1,NA,NA,NA,NA,NA,NA,NA,NA,NA,NA,NA,NA,NA,NA,NA,NA
SUPAMT32807,3QAVNHZ3ES3NHGHNZSFQDPWH69ZLAN,BA820E69-62D4-4033-9A98-3DBC82B173D4,2023-09-27_09h31.00.543,WP_VExplicitOC_HL,2022.2.5,Win32,12.71714526,NA,NA,NA,NA,NA,NA,NA,NA,NA,NA,NA,NA,NA,NA,NA,NA,NA,NA,scroll social media,005.png,NA,NA,NA,NA,NA,NA,NA,NA,NA,NA,NA,NA,NA,NA,NA,NA,48.4375,1.7681,0,4,4,4,1,NA,NA,NA,NA,NA,NA,NA,NA,NA,NA,NA,NA,NA,NA,NA,NA
SUPAMT32807,3QAVNHZ3ES3NHGHNZSFQDPWH69ZLAN,BA820E69-62D4-4033-9A98-3DBC82B173D4,2023-09-27_09h31.00.543,WP_VExplicitOC_HL,2022.2.5,Win32,12.71714526,NA,NA,NA,NA,NA,NA,NA,NA,NA,NA,NA,NA,NA,NA,NA,NA,NA,NA,listen to music,006.png,NA,NA,NA,NA,NA,NA,NA,NA,NA,NA,NA,NA,NA,NA,NA,NA,66.40625,2.6406,0,5,5,5,1,NA,NA,NA,NA,NA,NA,NA,NA,NA,NA,NA,NA,NA,NA,NA,NA
SUPAMT32807,3QAVNHZ3ES3NHGHNZSFQDPWH69ZLAN,BA820E69-62D4-4033-9A98-3DBC82B173D4,2023-09-27_09h31.00.543,WP_VExplicitOC_HL,2022.2.5,Win32,12.71714526,NA,NA,NA,NA,NA,NA,NA,NA,NA,NA,NA,NA,NA,NA,NA,NA,NA,NA,daydream,007.png,NA,NA,NA,NA,NA,NA,NA,NA,NA,NA,NA,NA,NA,NA,NA,NA,49.47916667,2.1561,0,6,6,6,1,NA,NA,NA,NA,NA,NA,NA,NA,NA,NA,NA,NA,NA,NA,NA,NA
SUPAMT32807,3QAVNHZ3ES3NHGHNZSFQDPWH69ZLAN,BA820E69-62D4-4033-9A98-3DBC82B173D4,2023-09-27_09h31.00.543,WP_VExplicitOC_HL,2022.2.5,Win32,12.71714526,NA,NA,NA,NA,NA,NA,NA,NA,NA,NA,NA,NA,NA,NA,NA,NA,NA,NA,watch a short animation,008.png,NA,NA,NA,NA,NA,NA,NA,NA,NA,NA,NA,NA,NA,NA,NA,NA,65.10416667,1.5993,0,7,7,7,1,NA,NA,NA,NA,NA,NA,NA,NA,NA,NA,NA,NA,NA,NA,NA,NA
SUPAMT32807,3QAVNHZ3ES3NHGHNZSFQDPWH69ZLAN,BA820E69-62D4-4033-9A98-3DBC82B173D4,2023-09-27_09h31.00.543,WP_VExplicitOC_HL,2022.2.5,Win32,12.71714526,NA,NA,NA,NA,NA,NA,NA,NA,NA,NA,NA,NA,NA,NA,NA,NA,NA,NA,read a novel,009.png,NA,NA,NA,NA,NA,NA,NA,NA,NA,NA,NA,NA,NA,NA,NA,NA,42.44791667,2.161,0,8,8,8,1,NA,NA,NA,NA,NA,NA,NA,NA,NA,NA,NA,NA,NA,NA,NA,NA
SUPAMT32807,3QAVNHZ3ES3NHGHNZSFQDPWH69ZLAN,BA820E69-62D4-4033-9A98-3DBC82B173D4,2023-09-27_09h31.00.543,WP_VExplicitOC_HL,2022.2.5,Win32,12.71714526,NA,NA,NA,NA,NA,NA,NA,NA,NA,NA,NA,NA,NA,NA,NA,NA,NA,NA,read the news,010.png,NA,NA,NA,NA,NA,NA,NA,NA,NA,NA,NA,NA,NA,NA,NA,NA,66.14583333,1.6615,0,9,9,9,1,NA,NA,NA,NA,NA,NA,NA,NA,NA,NA,NA,NA,NA,NA,NA,NA
SUPAMT32807,3QAVNHZ3ES3NHGHNZSFQDPWH69ZLAN,BA820E69-62D4-4033-9A98-3DBC82B173D4,2023-09-27_09h31.00.543,WP_VExplicitOC_HL,2022.2.5,Win32,12.71714526,NA,NA,NA,NA,NA,NA,NA,NA,NA,NA,NA,NA,NA,NA,NA,NA,NA,NA,NA,NA,NA,NA,NA,NA,NA,NA,NA,NA,NA,NA,NA,NA,NA,NA,NA,NA,NA,NA,NA,NA,NA,NA,NA,stand up,NA,NA,NA,NA,NA,NA,NA,NA,NA,NA,NA,NA,NA,NA,NA
SUPAMT32807,3QAVNHZ3ES3NHGHNZSFQDPWH69ZLAN,BA820E69-62D4-4033-9A98-3DBC82B173D4,2023-09-27_09h31.00.543,WP_VExplicitOC_HL,2022.2.5,Win32,12.71714526,56.25,4.3466,2.0479,NA,NA,NA,NA,NA,frustrated,"frustrated, not frustrated","more frustrated, less frustrated",NA,NA,NA,NA,NA,NA,NA,NA,NA,NA,NA,NA,NA,NA,NA,NA,NA,NA,NA,NA,NA,NA,NA,NA,NA,NA,NA,NA,NA,NA,NA,NA,NA,0,0,0,1,1,NA,NA,NA,NA,NA,NA,NA,NA,NA,NA
SUPAMT32807,3QAVNHZ3ES3NHGHNZSFQDPWH69ZLAN,BA820E69-62D4-4033-9A98-3DBC82B173D4,2023-09-27_09h31.00.543,WP_VExplicitOC_HL,2022.2.5,Win32,12.71714526,78.125,3.7915,2.0472,NA,NA,NA,NA,NA,bored,"bored, not bored","more bored, less bored",NA,NA,NA,NA,NA,NA,NA,NA,NA,NA,NA,NA,NA,NA,NA,NA,NA,NA,NA,NA,NA,NA,NA,NA,NA,NA,NA,NA,NA,NA,NA,NA,NA,0,1,1,2,1,NA,NA,NA,NA,NA,NA,NA,NA,NA,NA
SUPAMT32807,3QAVNHZ3ES3NHGHNZSFQDPWH69ZLAN,BA820E69-62D4-4033-9A98-3DBC82B173D4,2023-09-27_09h31.00.543,WP_VExplicitOC_HL,2022.2.5,Win32,12.71714526,64.32291667,3.3336,2.0314,NA,NA,NA,NA,NA,happy,"unhappy, happy","less happy, more happy",NA,NA,NA,NA,NA,NA,NA,NA,NA,NA,NA,NA,NA,NA,NA,NA,NA,NA,NA,NA,NA,NA,NA,NA,NA,NA,NA,NA,NA,NA,NA,NA,NA,0,2,2,0,1,NA,NA,NA,NA,NA,NA,NA,NA,NA,NA
SUPAMT32807,3QAVNHZ3ES3NHGHNZSFQDPWH69ZLAN,BA820E69-62D4-4033-9A98-3DBC82B173D4,2023-09-27_09h31.00.543,WP_VExplicitOC_HL,2022.2.5,Win32,12.71714526,NA,NA,NA,NA,NA,NA,NA,NA,NA,NA,NA,NA,NA,NA,NA,NA,NA,NA,NA,NA,NA,NA,NA,NA,NA,NA,NA,NA,NA,NA,NA,NA,NA,NA,NA,NA,NA,NA,NA,NA,NA,NA,NA,NA,NA,NA,NA,NA,NA,NA,NA,NA,NA,NA,NA,NA,NA,NA,NA
SUPAMT32807,3QAVNHZ3ES3NHGHNZSFQDPWH69ZLAN,BA820E69-62D4-4033-9A98-3DBC82B173D4,2023-09-27_09h31.00.543,WP_VExplicitOC_HL,2022.2.5,Win32,12.71714526,NA,NA,NA,NA,NA,NA,NA,NA,NA,NA,NA,NA,NA,NA,NA,NA,NA,NA,NA,NA,NA,NA,NA,NA,NA,NA,NA,NA,NA,NA,NA,NA,NA,NA,NA,NA,NA,NA,NA,NA,NA,NA,NA,NA,NA,NA,NA,NA,NA,NA,NA,NA,NA,NA,NA,NA,NA,NA,NA
SUPAMT32807,3QAVNHZ3ES3NHGHNZSFQDPWH69ZLAN,BA820E69-62D4-4033-9A98-3DBC82B173D4,2023-09-27_09h31.00.543,WP_VExplicitOC_HL,2022.2.5,Win32,12.71714526,67.44791667,3.9467,2.0409,NA,NA,NA,NA,NA,frustrated,"frustrated, not frustrated","more frustrated, less frustrated",NA,NA,NA,NA,NA,NA,NA,NA,NA,NA,NA,NA,NA,NA,NA,NA,NA,NA,NA,NA,NA,NA,NA,NA,NA,NA,NA,NA,NA,NA,NA,NA,NA,NA,NA,NA,NA,NA,0,0,0,1,1,NA,NA,NA,NA,NA
SUPAMT32807,3QAVNHZ3ES3NHGHNZSFQDPWH69ZLAN,BA820E69-62D4-4033-9A98-3DBC82B173D4,2023-09-27_09h31.00.543,WP_VExplicitOC_HL,2022.2.5,Win32,12.71714526,63.80208333,3.1635,2.0678,NA,NA,NA,NA,NA,happy,"unhappy, happy","less happy, more happy",NA,NA,NA,NA,NA,NA,NA,NA,NA,NA,NA,NA,NA,NA,NA,NA,NA,NA,NA,NA,NA,NA,NA,NA,NA,NA,NA,NA,NA,NA,NA,NA,NA,NA,NA,NA,NA,NA,0,1,1,0,1,NA,NA,NA,NA,NA
SUPAMT32807,3QAVNHZ3ES3NHGHNZSFQDPWH69ZLAN,BA820E69-62D4-4033-9A98-3DBC82B173D4,2023-09-27_09h31.00.543,WP_VExplicitOC_HL,2022.2.5,Win32,12.71714526,76.5625,2.9215,2.0076,NA,NA,NA,NA,NA,bored,"bored, not bored","more bored, less bored",NA,NA,NA,NA,NA,NA,NA,NA,NA,NA,NA,NA,NA,NA,NA,NA,NA,NA,NA,NA,NA,NA,NA,NA,NA,NA,NA,NA,NA,NA,NA,NA,NA,NA,NA,NA,NA,NA,0,2,2,2,1,NA,NA,NA,NA,NA
SUPAMT32807,3QAVNHZ3ES3NHGHNZSFQDPWH69ZLAN,BA820E69-62D4-4033-9A98-3DBC82B173D4,2023-09-27_09h31.00.543,WP_VExplicitOC_HL,2022.2.5,Win32,12.71714526,NA,NA,NA,NA,NA,NA,NA,NA,NA,NA,NA,NA,NA,NA,NA,NA,NA,NA,NA,NA,NA,NA,NA,NA,NA,NA,NA,NA,NA,NA,NA,NA,NA,NA,NA,NA,NA,NA,NA,NA,NA,NA,NA,NA,NA,NA,NA,NA,NA,NA,NA,NA,NA,NA,0,0,0,0,1
SUPAMT32807,3QAVNHZ3ES3NHGHNZSFQDPWH69ZLAN,BA820E69-62D4-4033-9A98-3DBC82B173D4,2023-09-27_09h31.00.543,WP_VExplicitOC_HL,2022.2.5,Win32,12.71714526,59.11458333,3.941,2.0768,NA,NA,NA,NA,NA,bored,"bored, not bored","more bored, less bored",NA,NA,NA,NA,NA,NA,NA,NA,NA,NA,NA,NA,NA,NA,NA,NA,NA,NA,NA,NA,NA,NA,NA,NA,NA,NA,NA,NA,NA,NA,NA,NA,NA,NA,NA,NA,NA,NA,0,0,0,2,1,NA,NA,NA,NA,NA
SUPAMT32807,3QAVNHZ3ES3NHGHNZSFQDPWH69ZLAN,BA820E69-62D4-4033-9A98-3DBC82B173D4,2023-09-27_09h31.00.543,WP_VExplicitOC_HL,2022.2.5,Win32,12.71714526,71.61458333,3.145,2.0561,NA,NA,NA,NA,NA,frustrated,"frustrated, not frustrated","more frustrated, less frustrated",NA,NA,NA,NA,NA,NA,NA,NA,NA,NA,NA,NA,NA,NA,NA,NA,NA,NA,NA,NA,NA,NA,NA,NA,NA,NA,NA,NA,NA,NA,NA,NA,NA,NA,NA,NA,NA,NA,0,1,1,1,1,NA,NA,NA,NA,NA
SUPAMT32807,3QAVNHZ3ES3NHGHNZSFQDPWH69ZLAN,BA820E69-62D4-4033-9A98-3DBC82B173D4,2023-09-27_09h31.00.543,WP_VExplicitOC_HL,2022.2.5,Win32,12.71714526,57.8125,2.9797,2.0507,NA,NA,NA,NA,NA,happy,"unhappy, happy","less happy, more happy",NA,NA,NA,NA,NA,NA,NA,NA,NA,NA,NA,NA,NA,NA,NA,NA,NA,NA,NA,NA,NA,NA,NA,NA,NA,NA,NA,NA,NA,NA,NA,NA,NA,NA,NA,NA,NA,NA,0,2,2,0,1,NA,NA,NA,NA,NA
SUPAMT32807,3QAVNHZ3ES3NHGHNZSFQDPWH69ZLAN,BA820E69-62D4-4033-9A98-3DBC82B173D4,2023-09-27_09h31.00.543,WP_VExplicitOC_HL,2022.2.5,Win32,12.71714526,NA,NA,NA,NA,NA,NA,NA,NA,NA,NA,NA,NA,NA,NA,NA,NA,NA,NA,NA,NA,NA,NA,NA,NA,NA,NA,NA,NA,NA,NA,NA,NA,NA,NA,NA,NA,NA,NA,NA,NA,NA,NA,NA,NA,NA,NA,NA,NA,NA,NA,NA,NA,NA,NA,1,0,1,0,1
SUPAMT32807,3QAVNHZ3ES3NHGHNZSFQDPWH69ZLAN,BA820E69-62D4-4033-9A98-3DBC82B173D4,2023-09-27_09h31.00.543,WP_VExplicitOC_HL,2022.2.5,Win32,12.71714526,62.5,3.5649,2.0652,NA,NA,NA,NA,NA,bored,"bored, not bored","more bored, less bored",NA,NA,NA,NA,NA,NA,NA,NA,NA,NA,NA,NA,NA,NA,NA,NA,NA,NA,NA,NA,NA,NA,NA,NA,NA,NA,NA,NA,NA,NA,NA,NA,NA,NA,NA,NA,NA,NA,0,0,0,2,1,NA,NA,NA,NA,NA
SUPAMT32807,3QAVNHZ3ES3NHGHNZSFQDPWH69ZLAN,BA820E69-62D4-4033-9A98-3DBC82B173D4,2023-09-27_09h31.00.543,WP_VExplicitOC_HL,2022.2.5,Win32,12.71714526,47.65625,3.1961,2.0862,NA,NA,NA,NA,NA,happy,"unhappy, happy","less happy, more happy",NA,NA,NA,NA,NA,NA,NA,NA,NA,NA,NA,NA,NA,NA,NA,NA,NA,NA,NA,NA,NA,NA,NA,NA,NA,NA,NA,NA,NA,NA,NA,NA,NA,NA,NA,NA,NA,NA,0,1,1,0,1,NA,NA,NA,NA,NA
SUPAMT32807,3QAVNHZ3ES3NHGHNZSFQDPWH69ZLAN,BA820E69-62D4-4033-9A98-3DBC82B173D4,2023-09-27_09h31.00.543,WP_VExplicitOC_HL,2022.2.5,Win32,12.71714526,66.66666667,3.3225,2.0198,NA,NA,NA,NA,NA,frustrated,"frustrated, not frustrated","more frustrated, less frustrated",NA,NA,NA,NA,NA,NA,NA,NA,NA,NA,NA,NA,NA,NA,NA,NA,NA,NA,NA,NA,NA,NA,NA,NA,NA,NA,NA,NA,NA,NA,NA,NA,NA,NA,NA,NA,NA,NA,0,2,2,1,1,NA,NA,NA,NA,NA
SUPAMT32807,3QAVNHZ3ES3NHGHNZSFQDPWH69ZLAN,BA820E69-62D4-4033-9A98-3DBC82B173D4,2023-09-27_09h31.00.543,WP_VExplicitOC_HL,2022.2.5,Win32,12.71714526,NA,NA,NA,NA,NA,NA,NA,NA,NA,NA,NA,NA,NA,NA,NA,NA,NA,NA,NA,NA,NA,NA,NA,NA,NA,NA,NA,NA,NA,NA,NA,NA,NA,NA,NA,NA,NA,NA,NA,NA,NA,NA,NA,NA,NA,NA,NA,NA,NA,NA,NA,NA,NA,NA,2,0,2,0,1
SUPAMT32807,3QAVNHZ3ES3NHGHNZSFQDPWH69ZLAN,BA820E69-62D4-4033-9A98-3DBC82B173D4,2023-09-27_09h31.00.543,WP_VExplicitOC_HL,2022.2.5,Win32,12.71714526,70.05208333,3.7416,2.0577,NA,NA,NA,NA,NA,bored,"bored, not bored","more bored, less bored",NA,NA,NA,NA,NA,NA,NA,NA,NA,NA,NA,NA,NA,NA,NA,NA,NA,NA,NA,NA,NA,NA,NA,NA,NA,NA,NA,NA,NA,NA,NA,NA,NA,NA,NA,NA,NA,NA,0,0,0,2,1,NA,NA,NA,NA,NA
SUPAMT32807,3QAVNHZ3ES3NHGHNZSFQDPWH69ZLAN,BA820E69-62D4-4033-9A98-3DBC82B173D4,2023-09-27_09h31.00.543,WP_VExplicitOC_HL,2022.2.5,Win32,12.71714526,61.97916667,3.4695,2.027,NA,NA,NA,NA,NA,frustrated,"frustrated, not frustrated","more frustrated, less frustrated",NA,NA,NA,NA,NA,NA,NA,NA,NA,NA,NA,NA,NA,NA,NA,NA,NA,NA,NA,NA,NA,NA,NA,NA,NA,NA,NA,NA,NA,NA,NA,NA,NA,NA,NA,NA,NA,NA,0,1,1,1,1,NA,NA,NA,NA,NA
SUPAMT32807,3QAVNHZ3ES3NHGHNZSFQDPWH69ZLAN,BA820E69-62D4-4033-9A98-3DBC82B173D4,2023-09-27_09h31.00.543,WP_VExplicitOC_HL,2022.2.5,Win32,12.71714526,80.46875,2.963,2.0571,NA,NA,NA,NA,NA,happy,"unhappy, happy","less happy, more happy",NA,NA,NA,NA,NA,NA,NA,NA,NA,NA,NA,NA,NA,NA,NA,NA,NA,NA,NA,NA,NA,NA,NA,NA,NA,NA,NA,NA,NA,NA,NA,NA,NA,NA,NA,NA,NA,NA,0,2,2,0,1,NA,NA,NA,NA,NA
SUPAMT32807,3QAVNHZ3ES3NHGHNZSFQDPWH69ZLAN,BA820E69-62D4-4033-9A98-3DBC82B173D4,2023-09-27_09h31.00.543,WP_VExplicitOC_HL,2022.2.5,Win32,12.71714526,NA,NA,NA,NA,NA,NA,NA,NA,NA,NA,NA,NA,NA,NA,NA,NA,NA,NA,NA,NA,NA,NA,NA,NA,NA,NA,NA,NA,NA,NA,NA,NA,NA,NA,NA,NA,NA,NA,NA,NA,NA,NA,NA,NA,NA,NA,NA,NA,NA,NA,NA,NA,NA,NA,3,0,3,0,1
SUPAMT32807,3QAVNHZ3ES3NHGHNZSFQDPWH69ZLAN,BA820E69-62D4-4033-9A98-3DBC82B173D4,2023-09-27_09h31.00.543,WP_VExplicitOC_HL,2022.2.5,Win32,12.71714526,61.97916667,3.6146,2.0091,NA,NA,NA,NA,NA,bored,"bored, not bored","more bored, less bored",NA,NA,NA,NA,NA,NA,NA,NA,NA,NA,NA,NA,NA,NA,NA,NA,NA,NA,NA,NA,NA,NA,NA,NA,NA,NA,NA,NA,NA,NA,NA,NA,NA,NA,NA,NA,NA,NA,0,0,0,2,1,NA,NA,NA,NA,NA
SUPAMT32807,3QAVNHZ3ES3NHGHNZSFQDPWH69ZLAN,BA820E69-62D4-4033-9A98-3DBC82B173D4,2023-09-27_09h31.00.543,WP_VExplicitOC_HL,2022.2.5,Win32,12.71714526,57.8125,2.986,2.0794,NA,NA,NA,NA,NA,frustrated,"frustrated, not frustrated","more frustrated, less frustrated",NA,NA,NA,NA,NA,NA,NA,NA,NA,NA,NA,NA,NA,NA,NA,NA,NA,NA,NA,NA,NA,NA,NA,NA,NA,NA,NA,NA,NA,NA,NA,NA,NA,NA,NA,NA,NA,NA,0,1,1,1,1,NA,NA,NA,NA,NA
SUPAMT32807,3QAVNHZ3ES3NHGHNZSFQDPWH69ZLAN,BA820E69-62D4-4033-9A98-3DBC82B173D4,2023-09-27_09h31.00.543,WP_VExplicitOC_HL,2022.2.5,Win32,12.71714526,67.1875,3.0098,2.0493,NA,NA,NA,NA,NA,happy,"unhappy, happy","less happy, more happy",NA,NA,NA,NA,NA,NA,NA,NA,NA,NA,NA,NA,NA,NA,NA,NA,NA,NA,NA,NA,NA,NA,NA,NA,NA,NA,NA,NA,NA,NA,NA,NA,NA,NA,NA,NA,NA,NA,0,2,2,0,1,NA,NA,NA,NA,NA
SUPAMT32807,3QAVNHZ3ES3NHGHNZSFQDPWH69ZLAN,BA820E69-62D4-4033-9A98-3DBC82B173D4,2023-09-27_09h31.00.543,WP_VExplicitOC_HL,2022.2.5,Win32,12.71714526,NA,NA,NA,NA,NA,NA,NA,NA,NA,NA,NA,NA,NA,NA,NA,NA,NA,NA,NA,NA,NA,NA,NA,NA,NA,NA,NA,NA,NA,NA,NA,NA,NA,NA,NA,NA,NA,NA,NA,NA,NA,NA,NA,NA,NA,NA,NA,NA,NA,NA,NA,NA,NA,NA,4,0,4,0,1
SUPAMT32807,3QAVNHZ3ES3NHGHNZSFQDPWH69ZLAN,BA820E69-62D4-4033-9A98-3DBC82B173D4,2023-09-27_09h31.00.543,WP_VExplicitOC_HL,2022.2.5,Win32,12.71714526,54.94791667,3.2514,2.0114,NA,NA,NA,NA,NA,bored,"bored, not bored","more bored, less bored",NA,NA,NA,NA,NA,NA,NA,NA,NA,NA,NA,NA,NA,NA,NA,NA,NA,NA,NA,NA,NA,NA,NA,NA,NA,NA,NA,NA,NA,NA,NA,NA,NA,NA,NA,NA,NA,NA,0,0,0,2,1,NA,NA,NA,NA,NA
SUPAMT32807,3QAVNHZ3ES3NHGHNZSFQDPWH69ZLAN,BA820E69-62D4-4033-9A98-3DBC82B173D4,2023-09-27_09h31.00.543,WP_VExplicitOC_HL,2022.2.5,Win32,12.71714526,69.01041667,3.092,2.0401,NA,NA,NA,NA,NA,frustrated,"frustrated, not frustrated","more frustrated, less frustrated",NA,NA,NA,NA,NA,NA,NA,NA,NA,NA,NA,NA,NA,NA,NA,NA,NA,NA,NA,NA,NA,NA,NA,NA,NA,NA,NA,NA,NA,NA,NA,NA,NA,NA,NA,NA,NA,NA,0,1,1,1,1,NA,NA,NA,NA,NA
SUPAMT32807,3QAVNHZ3ES3NHGHNZSFQDPWH69ZLAN,BA820E69-62D4-4033-9A98-3DBC82B173D4,2023-09-27_09h31.00.543,WP_VExplicitOC_HL,2022.2.5,Win32,12.71714526,61.19791667,2.9902,2.0749,NA,NA,NA,NA,NA,happy,"unhappy, happy","less happy, more happy",NA,NA,NA,NA,NA,NA,NA,NA,NA,NA,NA,NA,NA,NA,NA,NA,NA,NA,NA,NA,NA,NA,NA,NA,NA,NA,NA,NA,NA,NA,NA,NA,NA,NA,NA,NA,NA,NA,0,2,2,0,1,NA,NA,NA,NA,NA
SUPAMT32807,3QAVNHZ3ES3NHGHNZSFQDPWH69ZLAN,BA820E69-62D4-4033-9A98-3DBC82B173D4,2023-09-27_09h31.00.543,WP_VExplicitOC_HL,2022.2.5,Win32,12.71714526,NA,NA,NA,NA,NA,NA,NA,NA,NA,NA,NA,NA,NA,NA,NA,NA,NA,NA,NA,NA,NA,NA,NA,NA,NA,NA,NA,NA,NA,NA,NA,NA,NA,NA,NA,NA,NA,NA,NA,NA,NA,NA,NA,NA,NA,NA,NA,NA,NA,NA,NA,NA,NA,NA,5,0,5,0,1
SUPAMT32807,3QAVNHZ3ES3NHGHNZSFQDPWH69ZLAN,BA820E69-62D4-4033-9A98-3DBC82B173D4,2023-09-27_09h31.00.543,WP_VExplicitOC_HL,2022.2.5,Win32,12.71714526,58.59375,3.4274,2.0469,NA,NA,NA,NA,NA,frustrated,"frustrated, not frustrated","more frustrated, less frustrated",NA,NA,NA,NA,NA,NA,NA,NA,NA,NA,NA,NA,NA,NA,NA,NA,NA,NA,NA,NA,NA,NA,NA,NA,NA,NA,NA,NA,NA,NA,NA,NA,NA,NA,NA,NA,NA,NA,0,0,0,1,1,NA,NA,NA,NA,NA
SUPAMT32807,3QAVNHZ3ES3NHGHNZSFQDPWH69ZLAN,BA820E69-62D4-4033-9A98-3DBC82B173D4,2023-09-27_09h31.00.543,WP_VExplicitOC_HL,2022.2.5,Win32,12.71714526,67.1875,3.3045,2.035,NA,NA,NA,NA,NA,happy,"unhappy, happy","less happy, more happy",NA,NA,NA,NA,NA,NA,NA,NA,NA,NA,NA,NA,NA,NA,NA,NA,NA,NA,NA,NA,NA,NA,NA,NA,NA,NA,NA,NA,NA,NA,NA,NA,NA,NA,NA,NA,NA,NA,0,1,1,0,1,NA,NA,NA,NA,NA
SUPAMT32807,3QAVNHZ3ES3NHGHNZSFQDPWH69ZLAN,BA820E69-62D4-4033-9A98-3DBC82B173D4,2023-09-27_09h31.00.543,WP_VExplicitOC_HL,2022.2.5,Win32,12.71714526,58.07291667,3.0773,2.0402,NA,NA,NA,NA,NA,bored,"bored, not bored","more bored, less bored",NA,NA,NA,NA,NA,NA,NA,NA,NA,NA,NA,NA,NA,NA,NA,NA,NA,NA,NA,NA,NA,NA,NA,NA,NA,NA,NA,NA,NA,NA,NA,NA,NA,NA,NA,NA,NA,NA,0,2,2,2,1,NA,NA,NA,NA,NA
SUPAMT32807,3QAVNHZ3ES3NHGHNZSFQDPWH69ZLAN,BA820E69-62D4-4033-9A98-3DBC82B173D4,2023-09-27_09h31.00.543,WP_VExplicitOC_HL,2022.2.5,Win32,12.71714526,NA,NA,NA,NA,NA,NA,NA,NA,NA,NA,NA,NA,NA,NA,NA,NA,NA,NA,NA,NA,NA,NA,NA,NA,NA,NA,NA,NA,NA,NA,NA,NA,NA,NA,NA,NA,NA,NA,NA,NA,NA,NA,NA,NA,NA,NA,NA,NA,NA,NA,NA,NA,NA,NA,6,0,6,0,1
SUPAMT32807,3QAVNHZ3ES3NHGHNZSFQDPWH69ZLAN,BA820E69-62D4-4033-9A98-3DBC82B173D4,2023-09-27_09h31.00.543,WP_VExplicitOC_HL,2022.2.5,Win32,12.71714526,60.9375,3.5678,2.0003,NA,NA,NA,NA,NA,frustrated,"frustrated, not frustrated","more frustrated, less frustrated",NA,NA,NA,NA,NA,NA,NA,NA,NA,NA,NA,NA,NA,NA,NA,NA,NA,NA,NA,NA,NA,NA,NA,NA,NA,NA,NA,NA,NA,NA,NA,NA,NA,NA,NA,NA,NA,NA,0,0,0,1,1,NA,NA,NA,NA,NA
SUPAMT32807,3QAVNHZ3ES3NHGHNZSFQDPWH69ZLAN,BA820E69-62D4-4033-9A98-3DBC82B173D4,2023-09-27_09h31.00.543,WP_VExplicitOC_HL,2022.2.5,Win32,12.71714526,70.57291667,2.6527,2.0017,NA,NA,NA,NA,NA,bored,"bored, not bored","more bored, less bored",NA,NA,NA,NA,NA,NA,NA,NA,NA,NA,NA,NA,NA,NA,NA,NA,NA,NA,NA,NA,NA,NA,NA,NA,NA,NA,NA,NA,NA,NA,NA,NA,NA,NA,NA,NA,NA,NA,0,1,1,2,1,NA,NA,NA,NA,NA
SUPAMT32807,3QAVNHZ3ES3NHGHNZSFQDPWH69ZLAN,BA820E69-62D4-4033-9A98-3DBC82B173D4,2023-09-27_09h31.00.543,WP_VExplicitOC_HL,2022.2.5,Win32,12.71714526,71.875,3.0674,2.0321,NA,NA,NA,NA,NA,happy,"unhappy, happy","less happy, more happy",NA,NA,NA,NA,NA,NA,NA,NA,NA,NA,NA,NA,NA,NA,NA,NA,NA,NA,NA,NA,NA,NA,NA,NA,NA,NA,NA,NA,NA,NA,NA,NA,NA,NA,NA,NA,NA,NA,0,2,2,0,1,NA,NA,NA,NA,NA
SUPAMT32807,3QAVNHZ3ES3NHGHNZSFQDPWH69ZLAN,BA820E69-62D4-4033-9A98-3DBC82B173D4,2023-09-27_09h31.00.543,WP_VExplicitOC_HL,2022.2.5,Win32,12.71714526,NA,NA,NA,NA,NA,NA,NA,NA,NA,NA,NA,NA,NA,NA,NA,NA,NA,NA,NA,NA,NA,NA,NA,NA,NA,NA,NA,NA,NA,NA,NA,NA,NA,NA,NA,NA,NA,NA,NA,NA,NA,NA,NA,NA,NA,NA,NA,NA,NA,NA,NA,NA,NA,NA,7,0,7,0,1
SUPAMT32807,3QAVNHZ3ES3NHGHNZSFQDPWH69ZLAN,BA820E69-62D4-4033-9A98-3DBC82B173D4,2023-09-27_09h31.00.543,WP_VExplicitOC_HL,2022.2.5,Win32,12.71714526,52.60416667,3.0568,2.0253,NA,NA,NA,NA,NA,happy,"unhappy, happy","less happy, more happy",NA,NA,NA,NA,NA,NA,NA,NA,NA,NA,NA,NA,NA,NA,NA,NA,NA,NA,NA,NA,NA,NA,NA,NA,NA,NA,NA,NA,NA,NA,NA,NA,NA,NA,NA,NA,NA,NA,0,0,0,0,1,NA,NA,NA,NA,NA
SUPAMT32807,3QAVNHZ3ES3NHGHNZSFQDPWH69ZLAN,BA820E69-62D4-4033-9A98-3DBC82B173D4,2023-09-27_09h31.00.543,WP_VExplicitOC_HL,2022.2.5,Win32,12.71714526,69.01041667,3.4069,2.0448,NA,NA,NA,NA,NA,frustrated,"frustrated, not frustrated","more frustrated, less frustrated",NA,NA,NA,NA,NA,NA,NA,NA,NA,NA,NA,NA,NA,NA,NA,NA,NA,NA,NA,NA,NA,NA,NA,NA,NA,NA,NA,NA,NA,NA,NA,NA,NA,NA,NA,NA,NA,NA,0,1,1,1,1,NA,NA,NA,NA,NA
SUPAMT32807,3QAVNHZ3ES3NHGHNZSFQDPWH69ZLAN,BA820E69-62D4-4033-9A98-3DBC82B173D4,2023-09-27_09h31.00.543,WP_VExplicitOC_HL,2022.2.5,Win32,12.71714526,69.01041667,3.164,2.0631,NA,NA,NA,NA,NA,bored,"bored, not bored","more bored, less bored",NA,NA,NA,NA,NA,NA,NA,NA,NA,NA,NA,NA,NA,NA,NA,NA,NA,NA,NA,NA,NA,NA,NA,NA,NA,NA,NA,NA,NA,NA,NA,NA,NA,NA,NA,NA,NA,NA,0,2,2,2,1,NA,NA,NA,NA,NA
SUPAMT32807,3QAVNHZ3ES3NHGHNZSFQDPWH69ZLAN,BA820E69-62D4-4033-9A98-3DBC82B173D4,2023-09-27_09h31.00.543,WP_VExplicitOC_HL,2022.2.5,Win32,12.71714526,NA,NA,NA,NA,NA,NA,NA,NA,NA,NA,NA,NA,NA,NA,NA,NA,NA,NA,NA,NA,NA,NA,NA,NA,NA,NA,NA,NA,NA,NA,NA,NA,NA,NA,NA,NA,NA,NA,NA,NA,NA,NA,NA,NA,NA,NA,NA,NA,NA,NA,NA,NA,NA,NA,8,0,8,0,1
SUPAMT32807,3QAVNHZ3ES3NHGHNZSFQDPWH69ZLAN,BA820E69-62D4-4033-9A98-3DBC82B173D4,2023-09-27_09h31.00.543,WP_VExplicitOC_HL,2022.2.5,Win32,12.71714526,70.3125,3.5998,2.0347,NA,NA,NA,NA,NA,frustrated,"frustrated, not frustrated","more frustrated, less frustrated",NA,NA,NA,NA,NA,NA,NA,NA,NA,NA,NA,NA,NA,NA,NA,NA,NA,NA,NA,NA,NA,NA,NA,NA,NA,NA,NA,NA,NA,NA,NA,NA,NA,NA,NA,NA,NA,NA,0,0,0,1,1,NA,NA,NA,NA,NA
SUPAMT32807,3QAVNHZ3ES3NHGHNZSFQDPWH69ZLAN,BA820E69-62D4-4033-9A98-3DBC82B173D4,2023-09-27_09h31.00.543,WP_VExplicitOC_HL,2022.2.5,Win32,12.71714526,66.40625,3.8661,2.0829,NA,NA,NA,NA,NA,bored,"bored, not bored","more bored, less bored",NA,NA,NA,NA,NA,NA,NA,NA,NA,NA,NA,NA,NA,NA,NA,NA,NA,NA,NA,NA,NA,NA,NA,NA,NA,NA,NA,NA,NA,NA,NA,NA,NA,NA,NA,NA,NA,NA,0,1,1,2,1,NA,NA,NA,NA,NA
SUPAMT32807,3QAVNHZ3ES3NHGHNZSFQDPWH69ZLAN,BA820E69-62D4-4033-9A98-3DBC82B173D4,2023-09-27_09h31.00.543,WP_VExplicitOC_HL,2022.2.5,Win32,12.71714526,57.03125,3.4381,2.0137,NA,NA,NA,NA,NA,happy,"unhappy, happy","less happy, more happy",NA,NA,NA,NA,NA,NA,NA,NA,NA,NA,NA,NA,NA,NA,NA,NA,NA,NA,NA,NA,NA,NA,NA,NA,NA,NA,NA,NA,NA,NA,NA,NA,NA,NA,NA,NA,NA,NA,0,2,2,0,1,NA,NA,NA,NA,NA
SUPAMT32807,3QAVNHZ3ES3NHGHNZSFQDPWH69ZLAN,BA820E69-62D4-4033-9A98-3DBC82B173D4,2023-09-27_09h31.00.543,WP_VExplicitOC_HL,2022.2.5,Win32,12.71714526,NA,NA,NA,NA,NA,NA,NA,NA,NA,NA,NA,NA,NA,NA,NA,NA,NA,NA,NA,NA,NA,NA,NA,NA,NA,NA,NA,NA,NA,NA,NA,NA,NA,NA,NA,NA,NA,NA,NA,NA,NA,NA,NA,NA,NA,NA,NA,NA,NA,NA,NA,NA,NA,NA,9,0,9,0,1
SUPAMT32807,3QAVNHZ3ES3NHGHNZSFQDPWH69ZLAN,BA820E69-62D4-4033-9A98-3DBC82B173D4,2023-09-27_09h31.00.543,WP_VExplicitOC_HL,2022.2.5,Win32,12.71714526,62.76041667,3.1586,2.0462,NA,NA,NA,NA,NA,happy,"unhappy, happy","less happy, more happy",NA,NA,NA,NA,NA,NA,NA,NA,NA,NA,NA,NA,NA,NA,NA,NA,NA,NA,NA,NA,NA,NA,NA,NA,NA,NA,NA,NA,NA,NA,NA,NA,NA,NA,NA,NA,NA,NA,0,0,0,0,1,NA,NA,NA,NA,NA
SUPAMT32807,3QAVNHZ3ES3NHGHNZSFQDPWH69ZLAN,BA820E69-62D4-4033-9A98-3DBC82B173D4,2023-09-27_09h31.00.543,WP_VExplicitOC_HL,2022.2.5,Win32,12.71714526,63.54166667,2.9459,2.0097,NA,NA,NA,NA,NA,bored,"bored, not bored","more bored, less bored",NA,NA,NA,NA,NA,NA,NA,NA,NA,NA,NA,NA,NA,NA,NA,NA,NA,NA,NA,NA,NA,NA,NA,NA,NA,NA,NA,NA,NA,NA,NA,NA,NA,NA,NA,NA,NA,NA,0,1,1,2,1,NA,NA,NA,NA,NA
SUPAMT32807,3QAVNHZ3ES3NHGHNZSFQDPWH69ZLAN,BA820E69-62D4-4033-9A98-3DBC82B173D4,2023-09-27_09h31.00.543,WP_VExplicitOC_HL,2022.2.5,Win32,12.71714526,71.35416667,2.9568,2.0479,NA,NA,NA,NA,NA,frustrated,"frustrated, not frustrated","more frustrated, less frustrated",NA,NA,NA,NA,NA,NA,NA,NA,NA,NA,NA,NA,NA,NA,NA,NA,NA,NA,NA,NA,NA,NA,NA,NA,NA,NA,NA,NA,NA,NA,NA,NA,NA,NA,NA,NA,NA,NA,0,2,2,1,1,NA,NA,NA,NA,NA
SUPAMT32807,3QAVNHZ3ES3NHGHNZSFQDPWH69ZLAN,BA820E69-62D4-4033-9A98-3DBC82B173D4,2023-09-27_09h31.00.543,WP_VExplicitOC_HL,2022.2.5,Win32,12.71714526,NA,NA,NA,NA,NA,NA,NA,NA,NA,NA,NA,NA,NA,NA,NA,NA,NA,NA,NA,NA,NA,NA,NA,NA,NA,NA,NA,NA,NA,NA,NA,NA,NA,NA,NA,NA,NA,NA,NA,NA,NA,NA,NA,NA,NA,NA,NA,NA,NA,NA,NA,NA,NA,NA,10,0,10,0,1
SUPAMT32807,3QAVNHZ3ES3NHGHNZSFQDPWH69ZLAN,BA820E69-62D4-4033-9A98-3DBC82B173D4,2023-09-27_09h31.00.543,WP_VExplicitOC_HL,2022.2.5,Win32,12.71714526,71.61458333,3.7632,2.0039,NA,NA,NA,NA,NA,frustrated,"frustrated, not frustrated","more frustrated, less frustrated",NA,NA,NA,NA,NA,NA,NA,NA,NA,NA,NA,NA,NA,NA,NA,NA,NA,NA,NA,NA,NA,NA,NA,NA,NA,NA,NA,NA,NA,NA,NA,NA,NA,NA,NA,NA,NA,NA,0,0,0,1,1,NA,NA,NA,NA,NA
SUPAMT32807,3QAVNHZ3ES3NHGHNZSFQDPWH69ZLAN,BA820E69-62D4-4033-9A98-3DBC82B173D4,2023-09-27_09h31.00.543,WP_VExplicitOC_HL,2022.2.5,Win32,12.71714526,60.15625,3.1506,2.0098,NA,NA,NA,NA,NA,happy,"unhappy, happy","less happy, more happy",NA,NA,NA,NA,NA,NA,NA,NA,NA,NA,NA,NA,NA,NA,NA,NA,NA,NA,NA,NA,NA,NA,NA,NA,NA,NA,NA,NA,NA,NA,NA,NA,NA,NA,NA,NA,NA,NA,0,1,1,0,1,NA,NA,NA,NA,NA
SUPAMT32807,3QAVNHZ3ES3NHGHNZSFQDPWH69ZLAN,BA820E69-62D4-4033-9A98-3DBC82B173D4,2023-09-27_09h31.00.543,WP_VExplicitOC_HL,2022.2.5,Win32,12.71714526,75.52083333,3.0549,2.0716,NA,NA,NA,NA,NA,bored,"bored, not bored","more bored, less bored",NA,NA,NA,NA,NA,NA,NA,NA,NA,NA,NA,NA,NA,NA,NA,NA,NA,NA,NA,NA,NA,NA,NA,NA,NA,NA,NA,NA,NA,NA,NA,NA,NA,NA,NA,NA,NA,NA,0,2,2,2,1,NA,NA,NA,NA,NA
SUPAMT32807,3QAVNHZ3ES3NHGHNZSFQDPWH69ZLAN,BA820E69-62D4-4033-9A98-3DBC82B173D4,2023-09-27_09h31.00.543,WP_VExplicitOC_HL,2022.2.5,Win32,12.71714526,NA,NA,NA,NA,NA,NA,NA,NA,NA,NA,NA,NA,NA,NA,NA,NA,NA,NA,NA,NA,NA,NA,NA,NA,NA,NA,NA,NA,NA,NA,NA,NA,NA,NA,NA,NA,NA,NA,NA,NA,NA,NA,NA,NA,NA,NA,NA,NA,NA,NA,NA,NA,NA,NA,11,0,11,0,1
SUPAMT32807,3QAVNHZ3ES3NHGHNZSFQDPWH69ZLAN,BA820E69-62D4-4033-9A98-3DBC82B173D4,2023-09-27_09h31.00.543,WP_VExplicitOC_HL,2022.2.5,Win32,12.71714526,56.77083333,3.5306,2.0467,NA,NA,NA,NA,NA,frustrated,"frustrated, not frustrated","more frustrated, less frustrated",NA,NA,NA,NA,NA,NA,NA,NA,NA,NA,NA,NA,NA,NA,NA,NA,NA,NA,NA,NA,NA,NA,NA,NA,NA,NA,NA,NA,NA,NA,NA,NA,NA,NA,NA,NA,NA,NA,0,0,0,1,1,NA,NA,NA,NA,NA
SUPAMT32807,3QAVNHZ3ES3NHGHNZSFQDPWH69ZLAN,BA820E69-62D4-4033-9A98-3DBC82B173D4,2023-09-27_09h31.00.543,WP_VExplicitOC_HL,2022.2.5,Win32,12.71714526,61.19791667,3.43,2.0652,NA,NA,NA,NA,NA,bored,"bored, not bored","more bored, less bored",NA,NA,NA,NA,NA,NA,NA,NA,NA,NA,NA,NA,NA,NA,NA,NA,NA,NA,NA,NA,NA,NA,NA,NA,NA,NA,NA,NA,NA,NA,NA,NA,NA,NA,NA,NA,NA,NA,0,1,1,2,1,NA,NA,NA,NA,NA
SUPAMT32807,3QAVNHZ3ES3NHGHNZSFQDPWH69ZLAN,BA820E69-62D4-4033-9A98-3DBC82B173D4,2023-09-27_09h31.00.543,WP_VExplicitOC_HL,2022.2.5,Win32,12.71714526,65.88541667,3.0104,2.0097,NA,NA,NA,NA,NA,happy,"unhappy, happy","less happy, more happy",NA,NA,NA,NA,NA,NA,NA,NA,NA,NA,NA,NA,NA,NA,NA,NA,NA,NA,NA,NA,NA,NA,NA,NA,NA,NA,NA,NA,NA,NA,NA,NA,NA,NA,NA,NA,NA,NA,0,2,2,0,1,NA,NA,NA,NA,NA
SUPAMT32807,3QAVNHZ3ES3NHGHNZSFQDPWH69ZLAN,BA820E69-62D4-4033-9A98-3DBC82B173D4,2023-09-27_09h31.00.543,WP_VExplicitOC_HL,2022.2.5,Win32,12.71714526,NA,NA,NA,NA,NA,NA,NA,NA,NA,NA,NA,NA,NA,NA,NA,NA,NA,NA,NA,NA,NA,NA,NA,NA,NA,NA,NA,NA,NA,NA,NA,NA,NA,NA,NA,NA,NA,NA,NA,NA,NA,NA,NA,NA,NA,NA,NA,NA,NA,NA,NA,NA,NA,NA,12,0,12,0,1
SUPAMT32807,3QAVNHZ3ES3NHGHNZSFQDPWH69ZLAN,BA820E69-62D4-4033-9A98-3DBC82B173D4,2023-09-27_09h31.00.543,WP_VExplicitOC_HL,2022.2.5,Win32,12.71714526,57.55208333,3.0809,2.0015,NA,NA,NA,NA,NA,happy,"unhappy, happy","less happy, more happy",NA,NA,NA,NA,NA,NA,NA,NA,NA,NA,NA,NA,NA,NA,NA,NA,NA,NA,NA,NA,NA,NA,NA,NA,NA,NA,NA,NA,NA,NA,NA,NA,NA,NA,NA,NA,NA,NA,0,0,0,0,1,NA,NA,NA,NA,NA
SUPAMT32807,3QAVNHZ3ES3NHGHNZSFQDPWH69ZLAN,BA820E69-62D4-4033-9A98-3DBC82B173D4,2023-09-27_09h31.00.543,WP_VExplicitOC_HL,2022.2.5,Win32,12.71714526,76.5625,3.0023,2.0589,NA,NA,NA,NA,NA,frustrated,"frustrated, not frustrated","more frustrated, less frustrated",NA,NA,NA,NA,NA,NA,NA,NA,NA,NA,NA,NA,NA,NA,NA,NA,NA,NA,NA,NA,NA,NA,NA,NA,NA,NA,NA,NA,NA,NA,NA,NA,NA,NA,NA,NA,NA,NA,0,1,1,1,1,NA,NA,NA,NA,NA
SUPAMT32807,3QAVNHZ3ES3NHGHNZSFQDPWH69ZLAN,BA820E69-62D4-4033-9A98-3DBC82B173D4,2023-09-27_09h31.00.543,WP_VExplicitOC_HL,2022.2.5,Win32,12.71714526,60.9375,2.9104,2.0277,NA,NA,NA,NA,NA,bored,"bored, not bored","more bored, less bored",NA,NA,NA,NA,NA,NA,NA,NA,NA,NA,NA,NA,NA,NA,NA,NA,NA,NA,NA,NA,NA,NA,NA,NA,NA,NA,NA,NA,NA,NA,NA,NA,NA,NA,NA,NA,NA,NA,0,2,2,2,1,NA,NA,NA,NA,NA
SUPAMT32807,3QAVNHZ3ES3NHGHNZSFQDPWH69ZLAN,BA820E69-62D4-4033-9A98-3DBC82B173D4,2023-09-27_09h31.00.543,WP_VExplicitOC_HL,2022.2.5,Win32,12.71714526,NA,NA,NA,NA,NA,NA,NA,NA,NA,NA,NA,NA,NA,NA,NA,NA,NA,NA,NA,NA,NA,NA,NA,NA,NA,NA,NA,NA,NA,NA,NA,NA,NA,NA,NA,NA,NA,NA,NA,NA,NA,NA,NA,NA,NA,NA,NA,NA,NA,NA,NA,NA,NA,NA,13,0,13,0,1
SUPAMT32807,3QAVNHZ3ES3NHGHNZSFQDPWH69ZLAN,BA820E69-62D4-4033-9A98-3DBC82B173D4,2023-09-27_09h31.00.543,WP_VExplicitOC_HL,2022.2.5,Win32,12.71714526,64.58333333,3.0671,2.0693,NA,NA,NA,NA,NA,bored,"bored, not bored","more bored, less bored",NA,NA,NA,NA,NA,NA,NA,NA,NA,NA,NA,NA,NA,NA,NA,NA,NA,NA,NA,NA,NA,NA,NA,NA,NA,NA,NA,NA,NA,NA,NA,NA,NA,NA,NA,NA,NA,NA,0,0,0,2,1,NA,NA,NA,NA,NA
SUPAMT32807,3QAVNHZ3ES3NHGHNZSFQDPWH69ZLAN,BA820E69-62D4-4033-9A98-3DBC82B173D4,2023-09-27_09h31.00.543,WP_VExplicitOC_HL,2022.2.5,Win32,12.71714526,70.05208333,3.4771,2.037,NA,NA,NA,NA,NA,happy,"unhappy, happy","less happy, more happy",NA,NA,NA,NA,NA,NA,NA,NA,NA,NA,NA,NA,NA,NA,NA,NA,NA,NA,NA,NA,NA,NA,NA,NA,NA,NA,NA,NA,NA,NA,NA,NA,NA,NA,NA,NA,NA,NA,0,1,1,0,1,NA,NA,NA,NA,NA
SUPAMT32807,3QAVNHZ3ES3NHGHNZSFQDPWH69ZLAN,BA820E69-62D4-4033-9A98-3DBC82B173D4,2023-09-27_09h31.00.543,WP_VExplicitOC_HL,2022.2.5,Win32,12.71714526,70.05208333,4.1519,2.0123,NA,NA,NA,NA,NA,frustrated,"frustrated, not frustrated","more frustrated, less frustrated",NA,NA,NA,NA,NA,NA,NA,NA,NA,NA,NA,NA,NA,NA,NA,NA,NA,NA,NA,NA,NA,NA,NA,NA,NA,NA,NA,NA,NA,NA,NA,NA,NA,NA,NA,NA,NA,NA,0,2,2,1,1,NA,NA,NA,NA,NA
SUPAMT32807,3QAVNHZ3ES3NHGHNZSFQDPWH69ZLAN,BA820E69-62D4-4033-9A98-3DBC82B173D4,2023-09-27_09h31.00.543,WP_VExplicitOC_HL,2022.2.5,Win32,12.71714526,NA,NA,NA,NA,NA,NA,NA,NA,NA,NA,NA,NA,NA,NA,NA,NA,NA,NA,NA,NA,NA,NA,NA,NA,NA,NA,NA,NA,NA,NA,NA,NA,NA,NA,NA,NA,NA,NA,NA,NA,NA,NA,NA,NA,NA,NA,NA,NA,NA,NA,NA,NA,NA,NA,14,0,14,0,1
SUPAMT32807,3QAVNHZ3ES3NHGHNZSFQDPWH69ZLAN,BA820E69-62D4-4033-9A98-3DBC82B173D4,2023-09-27_09h31.00.543,WP_VExplicitOC_HL,2022.2.5,Win32,12.71714526,NA,NA,NA,NA,NA,NA,NA,NA,NA,NA,NA,NA,NA,NA,NA,NA,NA,NA,NA,NA,NA,NA,NA,NA,NA,NA,NA,NA,NA,NA,NA,NA,NA,NA,NA,NA,NA,NA,NA,NA,NA,NA,NA,NA,NA,NA,NA,NA,NA,NA,NA,NA,NA,NA,NA,NA,NA,NA,NA
