participant,session,completion,date,expName,psychopyVersion,OS,frameRate,rating_all.response,rating_all.rt,rating_all.tStart,rndRat1.thisRepN,rndRat1.thisTrialN,rndRat1.thisN,rndRat1.thisIndex,rndRat1.ran,Emo,Labs,Labs2,rating_alt.response,rating_alt.rt,AltC.thisRepN,AltC.thisTrialN,AltC.thisN,AltC.thisIndex,AltC.ran,alt_choices,pic_choices,TopAlt_Choice,rndRat2.thisRepN,rndRat2.thisTrialN,rndRat2.thisN,rndRat2.thisIndex,rndRat2.ran,rndRat3.thisRepN,rndRat3.thisTrialN,rndRat3.thisN,rndRat3.thisIndex,rndRat3.ran,trials_FC_H.thisRepN,trials_FC_H.thisTrialN,trials_FC_H.thisN,trials_FC_H.thisIndex,trials_FC_H.ran,rating_alt_2.response,rating_alt_2.rt,AltC2.thisRepN,AltC2.thisTrialN,AltC2.thisN,AltC2.thisIndex,AltC2.ran,BottomAlt_Choice,rndRat4.thisRepN,rndRat4.thisTrialN,rndRat4.thisN,rndRat4.thisIndex,rndRat4.ran,rndRat5.thisRepN,rndRat5.thisTrialN,rndRat5.thisN,rndRat5.thisIndex,rndRat5.ran,trials_FC_L.thisRepN,trials_FC_L.thisTrialN,trials_FC_L.thisN,trials_FC_L.thisIndex,trials_FC_L.ran
SUPAMT41237,3LOTDFNYADYYO1AUEM8K01OO132FWN,B25CCDC4-6B1C-4A87-A2C6-CF35076978EB,2023-09-28_12h41.19.267,WP_VExplicitOC_HL,2022.2.5,Win32,8,NA,NA,NA,NA,NA,NA,NA,NA,NA,NA,NA,NA,NA,NA,NA,NA,NA,NA,NA,NA,NA,NA,NA,NA,NA,NA,NA,NA,NA,NA,NA,NA,NA,NA,NA,NA,NA,NA,NA,NA,NA,NA,NA,NA,NA,NA,NA,NA,NA,NA,NA,NA,NA,NA,NA,NA,NA,NA,NA
SUPAMT41237,3LOTDFNYADYYO1AUEM8K01OO132FWN,B25CCDC4-6B1C-4A87-A2C6-CF35076978EB,2023-09-28_12h41.19.267,WP_VExplicitOC_HL,2022.2.5,Win32,8,NA,NA,NA,NA,NA,NA,NA,NA,NA,NA,NA,NA,NA,NA,NA,NA,NA,NA,NA,NA,NA,NA,NA,NA,NA,NA,NA,NA,NA,NA,NA,NA,NA,NA,NA,NA,NA,NA,NA,NA,NA,NA,NA,NA,NA,NA,NA,NA,NA,NA,NA,NA,NA,NA,NA,NA,NA,NA,NA
SUPAMT41237,3LOTDFNYADYYO1AUEM8K01OO132FWN,B25CCDC4-6B1C-4A87-A2C6-CF35076978EB,2023-09-28_12h41.19.267,WP_VExplicitOC_HL,2022.2.5,Win32,8,NA,NA,NA,NA,NA,NA,NA,NA,NA,NA,NA,NA,NA,NA,NA,NA,NA,NA,NA,NA,NA,NA,NA,NA,NA,NA,NA,NA,NA,NA,NA,NA,NA,NA,NA,NA,NA,NA,NA,NA,NA,NA,NA,NA,NA,NA,NA,NA,NA,NA,NA,NA,NA,NA,NA,NA,NA,NA,NA
SUPAMT41237,3LOTDFNYADYYO1AUEM8K01OO132FWN,B25CCDC4-6B1C-4A87-A2C6-CF35076978EB,2023-09-28_12h41.19.267,WP_VExplicitOC_HL,2022.2.5,Win32,8,82.55208333,5.086,2.091,0,0,0,0,1,happy,"unhappy, happy","less happy, more happy",NA,NA,NA,NA,NA,NA,NA,NA,NA,NA,NA,NA,NA,NA,NA,NA,NA,NA,NA,NA,NA,NA,NA,NA,NA,NA,NA,NA,NA,NA,NA,NA,NA,NA,NA,NA,NA,NA,NA,NA,NA,NA,NA,NA,NA,NA,NA,NA
SUPAMT41237,3LOTDFNYADYYO1AUEM8K01OO132FWN,B25CCDC4-6B1C-4A87-A2C6-CF35076978EB,2023-09-28_12h41.19.267,WP_VExplicitOC_HL,2022.2.5,Win32,8,-18.48958333,7.106,2.082,0,1,1,1,1,frustrated,"frustrated, not frustrated","more frustrated, less frustrated",NA,NA,NA,NA,NA,NA,NA,NA,NA,NA,NA,NA,NA,NA,NA,NA,NA,NA,NA,NA,NA,NA,NA,NA,NA,NA,NA,NA,NA,NA,NA,NA,NA,NA,NA,NA,NA,NA,NA,NA,NA,NA,NA,NA,NA,NA,NA,NA
SUPAMT41237,3LOTDFNYADYYO1AUEM8K01OO132FWN,B25CCDC4-6B1C-4A87-A2C6-CF35076978EB,2023-09-28_12h41.19.267,WP_VExplicitOC_HL,2022.2.5,Win32,8,NA,NA,2.137,0,2,2,2,1,bored,"bored, not bored","more bored, less bored",NA,NA,NA,NA,NA,NA,NA,NA,NA,NA,NA,NA,NA,NA,NA,NA,NA,NA,NA,NA,NA,NA,NA,NA,NA,NA,NA,NA,NA,NA,NA,NA,NA,NA,NA,NA,NA,NA,NA,NA,NA,NA,NA,NA,NA,NA,NA,NA
SUPAMT41237,3LOTDFNYADYYO1AUEM8K01OO132FWN,B25CCDC4-6B1C-4A87-A2C6-CF35076978EB,2023-09-28_12h41.19.267,WP_VExplicitOC_HL,2022.2.5,Win32,8,NA,NA,NA,NA,NA,NA,NA,NA,NA,NA,NA,NA,NA,NA,NA,NA,NA,NA,NA,NA,NA,NA,NA,NA,NA,NA,NA,NA,NA,NA,NA,NA,NA,NA,NA,NA,NA,NA,NA,NA,NA,NA,NA,NA,NA,NA,NA,NA,NA,NA,NA,NA,NA,NA,NA,NA,NA,NA,NA
SUPAMT41237,3LOTDFNYADYYO1AUEM8K01OO132FWN,B25CCDC4-6B1C-4A87-A2C6-CF35076978EB,2023-09-28_12h41.19.267,WP_VExplicitOC_HL,2022.2.5,Win32,8,NA,NA,NA,NA,NA,NA,NA,NA,NA,NA,NA,NA,NA,NA,NA,NA,NA,NA,NA,NA,NA,NA,NA,NA,NA,NA,NA,NA,NA,NA,NA,NA,NA,NA,NA,NA,NA,NA,NA,NA,NA,NA,NA,NA,NA,NA,NA,NA,NA,NA,NA,NA,NA,NA,NA,NA,NA,NA,NA
SUPAMT41237,3LOTDFNYADYYO1AUEM8K01OO132FWN,B25CCDC4-6B1C-4A87-A2C6-CF35076978EB,2023-09-28_12h41.19.267,WP_VExplicitOC_HL,2022.2.5,Win32,8,NA,NA,NA,NA,NA,NA,NA,NA,NA,NA,NA,NA,NA,NA,NA,NA,NA,NA,NA,NA,NA,NA,NA,NA,NA,NA,NA,NA,NA,NA,NA,NA,NA,NA,NA,NA,NA,NA,NA,NA,NA,NA,NA,NA,NA,NA,NA,NA,NA,NA,NA,NA,NA,NA,NA,NA,NA,NA,NA
SUPAMT41237,3LOTDFNYADYYO1AUEM8K01OO132FWN,B25CCDC4-6B1C-4A87-A2C6-CF35076978EB,2023-09-28_12h41.19.267,WP_VExplicitOC_HL,2022.2.5,Win32,8,NA,NA,NA,NA,NA,NA,NA,NA,NA,NA,NA,NA,NA,NA,NA,NA,NA,NA,NA,NA,NA,NA,NA,NA,NA,NA,NA,NA,NA,NA,NA,NA,NA,NA,NA,NA,NA,NA,NA,NA,NA,NA,NA,NA,NA,NA,NA,NA,NA,NA,NA,NA,NA,NA,NA,NA,NA,NA,NA
SUPAMT41237,3LOTDFNYADYYO1AUEM8K01OO132FWN,B25CCDC4-6B1C-4A87-A2C6-CF35076978EB,2023-09-28_12h41.19.267,WP_VExplicitOC_HL,2022.2.5,Win32,8,NA,NA,NA,NA,NA,NA,NA,NA,NA,NA,NA,100,6,0,0,0,0,1,rest (looking at a fixed cross),001.png,NA,NA,NA,NA,NA,NA,NA,NA,NA,NA,NA,NA,NA,NA,NA,NA,NA,NA,NA,NA,NA,NA,NA,NA,NA,NA,NA,NA,NA,NA,NA,NA,NA,NA,NA,NA,NA,NA,NA
SUPAMT41237,3LOTDFNYADYYO1AUEM8K01OO132FWN,B25CCDC4-6B1C-4A87-A2C6-CF35076978EB,2023-09-28_12h41.19.267,WP_VExplicitOC_HL,2022.2.5,Win32,8,NA,NA,NA,NA,NA,NA,NA,NA,NA,NA,NA,NA,NA,0,1,1,1,1,stand up,002.png,NA,NA,NA,NA,NA,NA,NA,NA,NA,NA,NA,NA,NA,NA,NA,NA,NA,NA,NA,NA,NA,NA,NA,NA,NA,NA,NA,NA,NA,NA,NA,NA,NA,NA,NA,NA,NA,NA,NA
SUPAMT41237,3LOTDFNYADYYO1AUEM8K01OO132FWN,B25CCDC4-6B1C-4A87-A2C6-CF35076978EB,2023-09-28_12h41.19.267,WP_VExplicitOC_HL,2022.2.5,Win32,8,NA,NA,NA,NA,NA,NA,NA,NA,NA,NA,NA,94.01041667,2.24,0,2,2,2,1,stretch,003.png,NA,NA,NA,NA,NA,NA,NA,NA,NA,NA,NA,NA,NA,NA,NA,NA,NA,NA,NA,NA,NA,NA,NA,NA,NA,NA,NA,NA,NA,NA,NA,NA,NA,NA,NA,NA,NA,NA,NA
SUPAMT41237,3LOTDFNYADYYO1AUEM8K01OO132FWN,B25CCDC4-6B1C-4A87-A2C6-CF35076978EB,2023-09-28_12h41.19.267,WP_VExplicitOC_HL,2022.2.5,Win32,8,NA,NA,NA,NA,NA,NA,NA,NA,NA,NA,NA,29.6875,2.916,0,3,3,3,1,make a drink,004.png,NA,NA,NA,NA,NA,NA,NA,NA,NA,NA,NA,NA,NA,NA,NA,NA,NA,NA,NA,NA,NA,NA,NA,NA,NA,NA,NA,NA,NA,NA,NA,NA,NA,NA,NA,NA,NA,NA,NA
SUPAMT41237,3LOTDFNYADYYO1AUEM8K01OO132FWN,B25CCDC4-6B1C-4A87-A2C6-CF35076978EB,2023-09-28_12h41.19.267,WP_VExplicitOC_HL,2022.2.5,Win32,8,NA,NA,NA,NA,NA,NA,NA,NA,NA,NA,NA,44.01041667,2.407,0,4,4,4,1,scroll social media,005.png,NA,NA,NA,NA,NA,NA,NA,NA,NA,NA,NA,NA,NA,NA,NA,NA,NA,NA,NA,NA,NA,NA,NA,NA,NA,NA,NA,NA,NA,NA,NA,NA,NA,NA,NA,NA,NA,NA,NA
SUPAMT41237,3LOTDFNYADYYO1AUEM8K01OO132FWN,B25CCDC4-6B1C-4A87-A2C6-CF35076978EB,2023-09-28_12h41.19.267,WP_VExplicitOC_HL,2022.2.5,Win32,8,NA,NA,NA,NA,NA,NA,NA,NA,NA,NA,NA,61.97916667,1.135,0,5,5,5,1,listen to music,006.png,NA,NA,NA,NA,NA,NA,NA,NA,NA,NA,NA,NA,NA,NA,NA,NA,NA,NA,NA,NA,NA,NA,NA,NA,NA,NA,NA,NA,NA,NA,NA,NA,NA,NA,NA,NA,NA,NA,NA
SUPAMT41237,3LOTDFNYADYYO1AUEM8K01OO132FWN,B25CCDC4-6B1C-4A87-A2C6-CF35076978EB,2023-09-28_12h41.19.267,WP_VExplicitOC_HL,2022.2.5,Win32,8,NA,NA,NA,NA,NA,NA,NA,NA,NA,NA,NA,63.54166667,1.972,0,6,6,6,1,daydream,007.png,NA,NA,NA,NA,NA,NA,NA,NA,NA,NA,NA,NA,NA,NA,NA,NA,NA,NA,NA,NA,NA,NA,NA,NA,NA,NA,NA,NA,NA,NA,NA,NA,NA,NA,NA,NA,NA,NA,NA
SUPAMT41237,3LOTDFNYADYYO1AUEM8K01OO132FWN,B25CCDC4-6B1C-4A87-A2C6-CF35076978EB,2023-09-28_12h41.19.267,WP_VExplicitOC_HL,2022.2.5,Win32,8,NA,NA,NA,NA,NA,NA,NA,NA,NA,NA,NA,68.75,0.649,0,7,7,7,1,watch a short animation,008.png,NA,NA,NA,NA,NA,NA,NA,NA,NA,NA,NA,NA,NA,NA,NA,NA,NA,NA,NA,NA,NA,NA,NA,NA,NA,NA,NA,NA,NA,NA,NA,NA,NA,NA,NA,NA,NA,NA,NA
SUPAMT41237,3LOTDFNYADYYO1AUEM8K01OO132FWN,B25CCDC4-6B1C-4A87-A2C6-CF35076978EB,2023-09-28_12h41.19.267,WP_VExplicitOC_HL,2022.2.5,Win32,8,NA,NA,NA,NA,NA,NA,NA,NA,NA,NA,NA,65.10416667,2.128,0,8,8,8,1,read a novel,009.png,NA,NA,NA,NA,NA,NA,NA,NA,NA,NA,NA,NA,NA,NA,NA,NA,NA,NA,NA,NA,NA,NA,NA,NA,NA,NA,NA,NA,NA,NA,NA,NA,NA,NA,NA,NA,NA,NA,NA
SUPAMT41237,3LOTDFNYADYYO1AUEM8K01OO132FWN,B25CCDC4-6B1C-4A87-A2C6-CF35076978EB,2023-09-28_12h41.19.267,WP_VExplicitOC_HL,2022.2.5,Win32,8,NA,NA,NA,NA,NA,NA,NA,NA,NA,NA,NA,61.19791667,2.506,0,9,9,9,1,read the news,010.png,NA,NA,NA,NA,NA,NA,NA,NA,NA,NA,NA,NA,NA,NA,NA,NA,NA,NA,NA,NA,NA,NA,NA,NA,NA,NA,NA,NA,NA,NA,NA,NA,NA,NA,NA,NA,NA,NA,NA
SUPAMT41237,3LOTDFNYADYYO1AUEM8K01OO132FWN,B25CCDC4-6B1C-4A87-A2C6-CF35076978EB,2023-09-28_12h41.19.267,WP_VExplicitOC_HL,2022.2.5,Win32,8,NA,NA,NA,NA,NA,NA,NA,NA,NA,NA,NA,NA,NA,NA,NA,NA,NA,NA,NA,NA,NA,NA,NA,NA,NA,NA,NA,NA,NA,NA,NA,NA,NA,NA,NA,NA,NA,NA,NA,NA,NA,NA,NA,NA,NA,NA,NA,NA,NA,NA,NA,NA,NA,NA,NA,NA,NA,NA,NA
SUPAMT41237,3LOTDFNYADYYO1AUEM8K01OO132FWN,B25CCDC4-6B1C-4A87-A2C6-CF35076978EB,2023-09-28_12h41.19.267,WP_VExplicitOC_HL,2022.2.5,Win32,8,NA,NA,NA,NA,NA,NA,NA,NA,NA,NA,NA,NA,NA,NA,NA,NA,NA,NA,NA,NA,stand up,NA,NA,NA,NA,NA,NA,NA,NA,NA,NA,NA,NA,NA,NA,NA,NA,NA,NA,NA,NA,NA,NA,NA,NA,NA,NA,NA,NA,NA,NA,NA,NA,NA,NA,NA,NA,NA,NA
SUPAMT41237,3LOTDFNYADYYO1AUEM8K01OO132FWN,B25CCDC4-6B1C-4A87-A2C6-CF35076978EB,2023-09-28_12h41.19.267,WP_VExplicitOC_HL,2022.2.5,Win32,8,83.33333333,4.893,2.043,NA,NA,NA,NA,NA,happy,"unhappy, happy","less happy, more happy",NA,NA,NA,NA,NA,NA,NA,NA,NA,NA,0,0,0,0,1,NA,NA,NA,NA,NA,NA,NA,NA,NA,NA,NA,NA,NA,NA,NA,NA,NA,NA,NA,NA,NA,NA,NA,NA,NA,NA,NA,NA,NA,NA,NA,NA,NA
SUPAMT41237,3LOTDFNYADYYO1AUEM8K01OO132FWN,B25CCDC4-6B1C-4A87-A2C6-CF35076978EB,2023-09-28_12h41.19.267,WP_VExplicitOC_HL,2022.2.5,Win32,8,81.77083333,6.739,2.031,NA,NA,NA,NA,NA,bored,"bored, not bored","more bored, less bored",NA,NA,NA,NA,NA,NA,NA,NA,NA,NA,0,1,1,2,1,NA,NA,NA,NA,NA,NA,NA,NA,NA,NA,NA,NA,NA,NA,NA,NA,NA,NA,NA,NA,NA,NA,NA,NA,NA,NA,NA,NA,NA,NA,NA,NA,NA
SUPAMT41237,3LOTDFNYADYYO1AUEM8K01OO132FWN,B25CCDC4-6B1C-4A87-A2C6-CF35076978EB,2023-09-28_12h41.19.267,WP_VExplicitOC_HL,2022.2.5,Win32,8,52.86458333,4.595,2.125,NA,NA,NA,NA,NA,frustrated,"frustrated, not frustrated","more frustrated, less frustrated",NA,NA,NA,NA,NA,NA,NA,NA,NA,NA,0,2,2,1,1,NA,NA,NA,NA,NA,NA,NA,NA,NA,NA,NA,NA,NA,NA,NA,NA,NA,NA,NA,NA,NA,NA,NA,NA,NA,NA,NA,NA,NA,NA,NA,NA,NA
SUPAMT41237,3LOTDFNYADYYO1AUEM8K01OO132FWN,B25CCDC4-6B1C-4A87-A2C6-CF35076978EB,2023-09-28_12h41.19.267,WP_VExplicitOC_HL,2022.2.5,Win32,8,NA,NA,NA,NA,NA,NA,NA,NA,NA,NA,NA,NA,NA,NA,NA,NA,NA,NA,NA,NA,NA,NA,NA,NA,NA,NA,NA,NA,NA,NA,NA,NA,NA,NA,NA,NA,NA,NA,NA,NA,NA,NA,NA,NA,NA,NA,NA,NA,NA,NA,NA,NA,NA,NA,NA,NA,NA,NA,NA
SUPAMT41237,3LOTDFNYADYYO1AUEM8K01OO132FWN,B25CCDC4-6B1C-4A87-A2C6-CF35076978EB,2023-09-28_12h41.19.267,WP_VExplicitOC_HL,2022.2.5,Win32,8,NA,NA,NA,NA,NA,NA,NA,NA,NA,NA,NA,NA,NA,NA,NA,NA,NA,NA,NA,NA,NA,NA,NA,NA,NA,NA,NA,NA,NA,NA,NA,NA,NA,NA,NA,NA,NA,NA,NA,NA,NA,NA,NA,NA,NA,NA,NA,NA,NA,NA,NA,NA,NA,NA,NA,NA,NA,NA,NA
SUPAMT41237,3LOTDFNYADYYO1AUEM8K01OO132FWN,B25CCDC4-6B1C-4A87-A2C6-CF35076978EB,2023-09-28_12h41.19.267,WP_VExplicitOC_HL,2022.2.5,Win32,8,55.98958333,4.746,2.002,NA,NA,NA,NA,NA,frustrated,"frustrated, not frustrated","more frustrated, less frustrated",NA,NA,NA,NA,NA,NA,NA,NA,NA,NA,NA,NA,NA,NA,NA,0,0,0,1,1,NA,NA,NA,NA,NA,NA,NA,NA,NA,NA,NA,NA,NA,NA,NA,NA,NA,NA,NA,NA,NA,NA,NA,NA,NA,NA,NA,NA
SUPAMT41237,3LOTDFNYADYYO1AUEM8K01OO132FWN,B25CCDC4-6B1C-4A87-A2C6-CF35076978EB,2023-09-28_12h41.19.267,WP_VExplicitOC_HL,2022.2.5,Win32,8,53.64583333,5.664,2.077,NA,NA,NA,NA,NA,happy,"unhappy, happy","less happy, more happy",NA,NA,NA,NA,NA,NA,NA,NA,NA,NA,NA,NA,NA,NA,NA,0,1,1,0,1,NA,NA,NA,NA,NA,NA,NA,NA,NA,NA,NA,NA,NA,NA,NA,NA,NA,NA,NA,NA,NA,NA,NA,NA,NA,NA,NA,NA
SUPAMT41237,3LOTDFNYADYYO1AUEM8K01OO132FWN,B25CCDC4-6B1C-4A87-A2C6-CF35076978EB,2023-09-28_12h41.19.267,WP_VExplicitOC_HL,2022.2.5,Win32,8,52.08333333,6.411,2.11,NA,NA,NA,NA,NA,bored,"bored, not bored","more bored, less bored",NA,NA,NA,NA,NA,NA,NA,NA,NA,NA,NA,NA,NA,NA,NA,0,2,2,2,1,NA,NA,NA,NA,NA,NA,NA,NA,NA,NA,NA,NA,NA,NA,NA,NA,NA,NA,NA,NA,NA,NA,NA,NA,NA,NA,NA,NA
SUPAMT41237,3LOTDFNYADYYO1AUEM8K01OO132FWN,B25CCDC4-6B1C-4A87-A2C6-CF35076978EB,2023-09-28_12h41.19.267,WP_VExplicitOC_HL,2022.2.5,Win32,8,NA,NA,NA,NA,NA,NA,NA,NA,NA,NA,NA,NA,NA,NA,NA,NA,NA,NA,NA,NA,NA,NA,NA,NA,NA,NA,NA,NA,NA,NA,NA,0,0,0,0,1,NA,NA,NA,NA,NA,NA,NA,NA,NA,NA,NA,NA,NA,NA,NA,NA,NA,NA,NA,NA,NA,NA,NA
SUPAMT41237,3LOTDFNYADYYO1AUEM8K01OO132FWN,B25CCDC4-6B1C-4A87-A2C6-CF35076978EB,2023-09-28_12h41.19.267,WP_VExplicitOC_HL,2022.2.5,Win32,8,56.25,5.667,2.111,NA,NA,NA,NA,NA,happy,"unhappy, happy","less happy, more happy",NA,NA,NA,NA,NA,NA,NA,NA,NA,NA,NA,NA,NA,NA,NA,0,0,0,0,1,NA,NA,NA,NA,NA,NA,NA,NA,NA,NA,NA,NA,NA,NA,NA,NA,NA,NA,NA,NA,NA,NA,NA,NA,NA,NA,NA,NA
SUPAMT41237,3LOTDFNYADYYO1AUEM8K01OO132FWN,B25CCDC4-6B1C-4A87-A2C6-CF35076978EB,2023-09-28_12h41.19.267,WP_VExplicitOC_HL,2022.2.5,Win32,8,57.8125,5.646,2.125,NA,NA,NA,NA,NA,frustrated,"frustrated, not frustrated","more frustrated, less frustrated",NA,NA,NA,NA,NA,NA,NA,NA,NA,NA,NA,NA,NA,NA,NA,0,1,1,1,1,NA,NA,NA,NA,NA,NA,NA,NA,NA,NA,NA,NA,NA,NA,NA,NA,NA,NA,NA,NA,NA,NA,NA,NA,NA,NA,NA,NA
SUPAMT41237,3LOTDFNYADYYO1AUEM8K01OO132FWN,B25CCDC4-6B1C-4A87-A2C6-CF35076978EB,2023-09-28_12h41.19.267,WP_VExplicitOC_HL,2022.2.5,Win32,8,66.40625,4.847,2.042,NA,NA,NA,NA,NA,bored,"bored, not bored","more bored, less bored",NA,NA,NA,NA,NA,NA,NA,NA,NA,NA,NA,NA,NA,NA,NA,0,2,2,2,1,NA,NA,NA,NA,NA,NA,NA,NA,NA,NA,NA,NA,NA,NA,NA,NA,NA,NA,NA,NA,NA,NA,NA,NA,NA,NA,NA,NA
SUPAMT41237,3LOTDFNYADYYO1AUEM8K01OO132FWN,B25CCDC4-6B1C-4A87-A2C6-CF35076978EB,2023-09-28_12h41.19.267,WP_VExplicitOC_HL,2022.2.5,Win32,8,NA,NA,NA,NA,NA,NA,NA,NA,NA,NA,NA,NA,NA,NA,NA,NA,NA,NA,NA,NA,NA,NA,NA,NA,NA,NA,NA,NA,NA,NA,NA,1,0,1,0,1,NA,NA,NA,NA,NA,NA,NA,NA,NA,NA,NA,NA,NA,NA,NA,NA,NA,NA,NA,NA,NA,NA,NA
SUPAMT41237,3LOTDFNYADYYO1AUEM8K01OO132FWN,B25CCDC4-6B1C-4A87-A2C6-CF35076978EB,2023-09-28_12h41.19.267,WP_VExplicitOC_HL,2022.2.5,Win32,8,76.30208333,4.317,2.137,NA,NA,NA,NA,NA,bored,"bored, not bored","more bored, less bored",NA,NA,NA,NA,NA,NA,NA,NA,NA,NA,NA,NA,NA,NA,NA,0,0,0,2,1,NA,NA,NA,NA,NA,NA,NA,NA,NA,NA,NA,NA,NA,NA,NA,NA,NA,NA,NA,NA,NA,NA,NA,NA,NA,NA,NA,NA
SUPAMT41237,3LOTDFNYADYYO1AUEM8K01OO132FWN,B25CCDC4-6B1C-4A87-A2C6-CF35076978EB,2023-09-28_12h41.19.267,WP_VExplicitOC_HL,2022.2.5,Win32,8,47.65625,4.973,2.069,NA,NA,NA,NA,NA,frustrated,"frustrated, not frustrated","more frustrated, less frustrated",NA,NA,NA,NA,NA,NA,NA,NA,NA,NA,NA,NA,NA,NA,NA,0,1,1,1,1,NA,NA,NA,NA,NA,NA,NA,NA,NA,NA,NA,NA,NA,NA,NA,NA,NA,NA,NA,NA,NA,NA,NA,NA,NA,NA,NA,NA
SUPAMT41237,3LOTDFNYADYYO1AUEM8K01OO132FWN,B25CCDC4-6B1C-4A87-A2C6-CF35076978EB,2023-09-28_12h41.19.267,WP_VExplicitOC_HL,2022.2.5,Win32,8,31.25,3.7,2.076,NA,NA,NA,NA,NA,happy,"unhappy, happy","less happy, more happy",NA,NA,NA,NA,NA,NA,NA,NA,NA,NA,NA,NA,NA,NA,NA,0,2,2,0,1,NA,NA,NA,NA,NA,NA,NA,NA,NA,NA,NA,NA,NA,NA,NA,NA,NA,NA,NA,NA,NA,NA,NA,NA,NA,NA,NA,NA
SUPAMT41237,3LOTDFNYADYYO1AUEM8K01OO132FWN,B25CCDC4-6B1C-4A87-A2C6-CF35076978EB,2023-09-28_12h41.19.267,WP_VExplicitOC_HL,2022.2.5,Win32,8,NA,NA,NA,NA,NA,NA,NA,NA,NA,NA,NA,NA,NA,NA,NA,NA,NA,NA,NA,NA,NA,NA,NA,NA,NA,NA,NA,NA,NA,NA,NA,2,0,2,0,1,NA,NA,NA,NA,NA,NA,NA,NA,NA,NA,NA,NA,NA,NA,NA,NA,NA,NA,NA,NA,NA,NA,NA
SUPAMT41237,3LOTDFNYADYYO1AUEM8K01OO132FWN,B25CCDC4-6B1C-4A87-A2C6-CF35076978EB,2023-09-28_12h41.19.267,WP_VExplicitOC_HL,2022.2.5,Win32,8,87.76041667,6.435,2.05,NA,NA,NA,NA,NA,happy,"unhappy, happy","less happy, more happy",NA,NA,NA,NA,NA,NA,NA,NA,NA,NA,NA,NA,NA,NA,NA,0,0,0,0,1,NA,NA,NA,NA,NA,NA,NA,NA,NA,NA,NA,NA,NA,NA,NA,NA,NA,NA,NA,NA,NA,NA,NA,NA,NA,NA,NA,NA
SUPAMT41237,3LOTDFNYADYYO1AUEM8K01OO132FWN,B25CCDC4-6B1C-4A87-A2C6-CF35076978EB,2023-09-28_12h41.19.267,WP_VExplicitOC_HL,2022.2.5,Win32,8,92.70833333,4.695,2.088,NA,NA,NA,NA,NA,bored,"bored, not bored","more bored, less bored",NA,NA,NA,NA,NA,NA,NA,NA,NA,NA,NA,NA,NA,NA,NA,0,1,1,2,1,NA,NA,NA,NA,NA,NA,NA,NA,NA,NA,NA,NA,NA,NA,NA,NA,NA,NA,NA,NA,NA,NA,NA,NA,NA,NA,NA,NA
SUPAMT41237,3LOTDFNYADYYO1AUEM8K01OO132FWN,B25CCDC4-6B1C-4A87-A2C6-CF35076978EB,2023-09-28_12h41.19.267,WP_VExplicitOC_HL,2022.2.5,Win32,8,75.26041667,5.709,2.039,NA,NA,NA,NA,NA,frustrated,"frustrated, not frustrated","more frustrated, less frustrated",NA,NA,NA,NA,NA,NA,NA,NA,NA,NA,NA,NA,NA,NA,NA,0,2,2,1,1,NA,NA,NA,NA,NA,NA,NA,NA,NA,NA,NA,NA,NA,NA,NA,NA,NA,NA,NA,NA,NA,NA,NA,NA,NA,NA,NA,NA
SUPAMT41237,3LOTDFNYADYYO1AUEM8K01OO132FWN,B25CCDC4-6B1C-4A87-A2C6-CF35076978EB,2023-09-28_12h41.19.267,WP_VExplicitOC_HL,2022.2.5,Win32,8,NA,NA,NA,NA,NA,NA,NA,NA,NA,NA,NA,NA,NA,NA,NA,NA,NA,NA,NA,NA,NA,NA,NA,NA,NA,NA,NA,NA,NA,NA,NA,3,0,3,0,1,NA,NA,NA,NA,NA,NA,NA,NA,NA,NA,NA,NA,NA,NA,NA,NA,NA,NA,NA,NA,NA,NA,NA
SUPAMT41237,3LOTDFNYADYYO1AUEM8K01OO132FWN,B25CCDC4-6B1C-4A87-A2C6-CF35076978EB,2023-09-28_12h41.19.267,WP_VExplicitOC_HL,2022.2.5,Win32,8,61.71875,4.798,2.04,NA,NA,NA,NA,NA,bored,"bored, not bored","more bored, less bored",NA,NA,NA,NA,NA,NA,NA,NA,NA,NA,NA,NA,NA,NA,NA,0,0,0,2,1,NA,NA,NA,NA,NA,NA,NA,NA,NA,NA,NA,NA,NA,NA,NA,NA,NA,NA,NA,NA,NA,NA,NA,NA,NA,NA,NA,NA
SUPAMT41237,3LOTDFNYADYYO1AUEM8K01OO132FWN,B25CCDC4-6B1C-4A87-A2C6-CF35076978EB,2023-09-28_12h41.19.267,WP_VExplicitOC_HL,2022.2.5,Win32,8,64.32291667,4.375,2.052,NA,NA,NA,NA,NA,happy,"unhappy, happy","less happy, more happy",NA,NA,NA,NA,NA,NA,NA,NA,NA,NA,NA,NA,NA,NA,NA,0,1,1,0,1,NA,NA,NA,NA,NA,NA,NA,NA,NA,NA,NA,NA,NA,NA,NA,NA,NA,NA,NA,NA,NA,NA,NA,NA,NA,NA,NA,NA
SUPAMT41237,3LOTDFNYADYYO1AUEM8K01OO132FWN,B25CCDC4-6B1C-4A87-A2C6-CF35076978EB,2023-09-28_12h41.19.267,WP_VExplicitOC_HL,2022.2.5,Win32,8,57.29166667,5.409,2.035,NA,NA,NA,NA,NA,frustrated,"frustrated, not frustrated","more frustrated, less frustrated",NA,NA,NA,NA,NA,NA,NA,NA,NA,NA,NA,NA,NA,NA,NA,0,2,2,1,1,NA,NA,NA,NA,NA,NA,NA,NA,NA,NA,NA,NA,NA,NA,NA,NA,NA,NA,NA,NA,NA,NA,NA,NA,NA,NA,NA,NA
SUPAMT41237,3LOTDFNYADYYO1AUEM8K01OO132FWN,B25CCDC4-6B1C-4A87-A2C6-CF35076978EB,2023-09-28_12h41.19.267,WP_VExplicitOC_HL,2022.2.5,Win32,8,NA,NA,NA,NA,NA,NA,NA,NA,NA,NA,NA,NA,NA,NA,NA,NA,NA,NA,NA,NA,NA,NA,NA,NA,NA,NA,NA,NA,NA,NA,NA,4,0,4,0,1,NA,NA,NA,NA,NA,NA,NA,NA,NA,NA,NA,NA,NA,NA,NA,NA,NA,NA,NA,NA,NA,NA,NA
SUPAMT41237,3LOTDFNYADYYO1AUEM8K01OO132FWN,B25CCDC4-6B1C-4A87-A2C6-CF35076978EB,2023-09-28_12h41.19.267,WP_VExplicitOC_HL,2022.2.5,Win32,8,NA,NA,2.039,NA,NA,NA,NA,NA,happy,"unhappy, happy","less happy, more happy",NA,NA,NA,NA,NA,NA,NA,NA,NA,NA,NA,NA,NA,NA,NA,0,0,0,0,1,NA,NA,NA,NA,NA,NA,NA,NA,NA,NA,NA,NA,NA,NA,NA,NA,NA,NA,NA,NA,NA,NA,NA,NA,NA,NA,NA,NA
SUPAMT41237,3LOTDFNYADYYO1AUEM8K01OO132FWN,B25CCDC4-6B1C-4A87-A2C6-CF35076978EB,2023-09-28_12h41.19.267,WP_VExplicitOC_HL,2022.2.5,Win32,8,78.64583333,5.477,2.107,NA,NA,NA,NA,NA,frustrated,"frustrated, not frustrated","more frustrated, less frustrated",NA,NA,NA,NA,NA,NA,NA,NA,NA,NA,NA,NA,NA,NA,NA,0,1,1,1,1,NA,NA,NA,NA,NA,NA,NA,NA,NA,NA,NA,NA,NA,NA,NA,NA,NA,NA,NA,NA,NA,NA,NA,NA,NA,NA,NA,NA
SUPAMT41237,3LOTDFNYADYYO1AUEM8K01OO132FWN,B25CCDC4-6B1C-4A87-A2C6-CF35076978EB,2023-09-28_12h41.19.267,WP_VExplicitOC_HL,2022.2.5,Win32,8,60.9375,6.582,2.005,NA,NA,NA,NA,NA,bored,"bored, not bored","more bored, less bored",NA,NA,NA,NA,NA,NA,NA,NA,NA,NA,NA,NA,NA,NA,NA,0,2,2,2,1,NA,NA,NA,NA,NA,NA,NA,NA,NA,NA,NA,NA,NA,NA,NA,NA,NA,NA,NA,NA,NA,NA,NA,NA,NA,NA,NA,NA
SUPAMT41237,3LOTDFNYADYYO1AUEM8K01OO132FWN,B25CCDC4-6B1C-4A87-A2C6-CF35076978EB,2023-09-28_12h41.19.267,WP_VExplicitOC_HL,2022.2.5,Win32,8,NA,NA,NA,NA,NA,NA,NA,NA,NA,NA,NA,NA,NA,NA,NA,NA,NA,NA,NA,NA,NA,NA,NA,NA,NA,NA,NA,NA,NA,NA,NA,5,0,5,0,1,NA,NA,NA,NA,NA,NA,NA,NA,NA,NA,NA,NA,NA,NA,NA,NA,NA,NA,NA,NA,NA,NA,NA
SUPAMT41237,3LOTDFNYADYYO1AUEM8K01OO132FWN,B25CCDC4-6B1C-4A87-A2C6-CF35076978EB,2023-09-28_12h41.19.267,WP_VExplicitOC_HL,2022.2.5,Win32,8,84.63541667,5.837,2.03,NA,NA,NA,NA,NA,bored,"bored, not bored","more bored, less bored",NA,NA,NA,NA,NA,NA,NA,NA,NA,NA,NA,NA,NA,NA,NA,0,0,0,2,1,NA,NA,NA,NA,NA,NA,NA,NA,NA,NA,NA,NA,NA,NA,NA,NA,NA,NA,NA,NA,NA,NA,NA,NA,NA,NA,NA,NA
SUPAMT41237,3LOTDFNYADYYO1AUEM8K01OO132FWN,B25CCDC4-6B1C-4A87-A2C6-CF35076978EB,2023-09-28_12h41.19.267,WP_VExplicitOC_HL,2022.2.5,Win32,8,82.55208333,5.058,2.129,NA,NA,NA,NA,NA,happy,"unhappy, happy","less happy, more happy",NA,NA,NA,NA,NA,NA,NA,NA,NA,NA,NA,NA,NA,NA,NA,0,1,1,0,1,NA,NA,NA,NA,NA,NA,NA,NA,NA,NA,NA,NA,NA,NA,NA,NA,NA,NA,NA,NA,NA,NA,NA,NA,NA,NA,NA,NA
SUPAMT41237,3LOTDFNYADYYO1AUEM8K01OO132FWN,B25CCDC4-6B1C-4A87-A2C6-CF35076978EB,2023-09-28_12h41.19.267,WP_VExplicitOC_HL,2022.2.5,Win32,8,92.96875,2.351,2.024,NA,NA,NA,NA,NA,frustrated,"frustrated, not frustrated","more frustrated, less frustrated",NA,NA,NA,NA,NA,NA,NA,NA,NA,NA,NA,NA,NA,NA,NA,0,2,2,1,1,NA,NA,NA,NA,NA,NA,NA,NA,NA,NA,NA,NA,NA,NA,NA,NA,NA,NA,NA,NA,NA,NA,NA,NA,NA,NA,NA,NA
SUPAMT41237,3LOTDFNYADYYO1AUEM8K01OO132FWN,B25CCDC4-6B1C-4A87-A2C6-CF35076978EB,2023-09-28_12h41.19.267,WP_VExplicitOC_HL,2022.2.5,Win32,8,NA,NA,NA,NA,NA,NA,NA,NA,NA,NA,NA,NA,NA,NA,NA,NA,NA,NA,NA,NA,NA,NA,NA,NA,NA,NA,NA,NA,NA,NA,NA,6,0,6,0,1,NA,NA,NA,NA,NA,NA,NA,NA,NA,NA,NA,NA,NA,NA,NA,NA,NA,NA,NA,NA,NA,NA,NA
SUPAMT41237,3LOTDFNYADYYO1AUEM8K01OO132FWN,B25CCDC4-6B1C-4A87-A2C6-CF35076978EB,2023-09-28_12h41.19.267,WP_VExplicitOC_HL,2022.2.5,Win32,8,54.42708333,4.097,2.064,NA,NA,NA,NA,NA,happy,"unhappy, happy","less happy, more happy",NA,NA,NA,NA,NA,NA,NA,NA,NA,NA,NA,NA,NA,NA,NA,0,0,0,0,1,NA,NA,NA,NA,NA,NA,NA,NA,NA,NA,NA,NA,NA,NA,NA,NA,NA,NA,NA,NA,NA,NA,NA,NA,NA,NA,NA,NA
SUPAMT41237,3LOTDFNYADYYO1AUEM8K01OO132FWN,B25CCDC4-6B1C-4A87-A2C6-CF35076978EB,2023-09-28_12h41.19.267,WP_VExplicitOC_HL,2022.2.5,Win32,8,69.53125,5.322,2.11,NA,NA,NA,NA,NA,bored,"bored, not bored","more bored, less bored",NA,NA,NA,NA,NA,NA,NA,NA,NA,NA,NA,NA,NA,NA,NA,0,1,1,2,1,NA,NA,NA,NA,NA,NA,NA,NA,NA,NA,NA,NA,NA,NA,NA,NA,NA,NA,NA,NA,NA,NA,NA,NA,NA,NA,NA,NA
SUPAMT41237,3LOTDFNYADYYO1AUEM8K01OO132FWN,B25CCDC4-6B1C-4A87-A2C6-CF35076978EB,2023-09-28_12h41.19.267,WP_VExplicitOC_HL,2022.2.5,Win32,8,69.27083333,4.722,2.098,NA,NA,NA,NA,NA,frustrated,"frustrated, not frustrated","more frustrated, less frustrated",NA,NA,NA,NA,NA,NA,NA,NA,NA,NA,NA,NA,NA,NA,NA,0,2,2,1,1,NA,NA,NA,NA,NA,NA,NA,NA,NA,NA,NA,NA,NA,NA,NA,NA,NA,NA,NA,NA,NA,NA,NA,NA,NA,NA,NA,NA
SUPAMT41237,3LOTDFNYADYYO1AUEM8K01OO132FWN,B25CCDC4-6B1C-4A87-A2C6-CF35076978EB,2023-09-28_12h41.19.267,WP_VExplicitOC_HL,2022.2.5,Win32,8,NA,NA,NA,NA,NA,NA,NA,NA,NA,NA,NA,NA,NA,NA,NA,NA,NA,NA,NA,NA,NA,NA,NA,NA,NA,NA,NA,NA,NA,NA,NA,7,0,7,0,1,NA,NA,NA,NA,NA,NA,NA,NA,NA,NA,NA,NA,NA,NA,NA,NA,NA,NA,NA,NA,NA,NA,NA
SUPAMT41237,3LOTDFNYADYYO1AUEM8K01OO132FWN,B25CCDC4-6B1C-4A87-A2C6-CF35076978EB,2023-09-28_12h41.19.267,WP_VExplicitOC_HL,2022.2.5,Win32,8,70.83333333,5.065,2.156,NA,NA,NA,NA,NA,frustrated,"frustrated, not frustrated","more frustrated, less frustrated",NA,NA,NA,NA,NA,NA,NA,NA,NA,NA,NA,NA,NA,NA,NA,0,0,0,1,1,NA,NA,NA,NA,NA,NA,NA,NA,NA,NA,NA,NA,NA,NA,NA,NA,NA,NA,NA,NA,NA,NA,NA,NA,NA,NA,NA,NA
SUPAMT41237,3LOTDFNYADYYO1AUEM8K01OO132FWN,B25CCDC4-6B1C-4A87-A2C6-CF35076978EB,2023-09-28_12h41.19.267,WP_VExplicitOC_HL,2022.2.5,Win32,8,79.42708333,4.827,2.045,NA,NA,NA,NA,NA,happy,"unhappy, happy","less happy, more happy",NA,NA,NA,NA,NA,NA,NA,NA,NA,NA,NA,NA,NA,NA,NA,0,1,1,0,1,NA,NA,NA,NA,NA,NA,NA,NA,NA,NA,NA,NA,NA,NA,NA,NA,NA,NA,NA,NA,NA,NA,NA,NA,NA,NA,NA,NA
SUPAMT41237,3LOTDFNYADYYO1AUEM8K01OO132FWN,B25CCDC4-6B1C-4A87-A2C6-CF35076978EB,2023-09-28_12h41.19.267,WP_VExplicitOC_HL,2022.2.5,Win32,8,63.28125,5.963,2.136,NA,NA,NA,NA,NA,bored,"bored, not bored","more bored, less bored",NA,NA,NA,NA,NA,NA,NA,NA,NA,NA,NA,NA,NA,NA,NA,0,2,2,2,1,NA,NA,NA,NA,NA,NA,NA,NA,NA,NA,NA,NA,NA,NA,NA,NA,NA,NA,NA,NA,NA,NA,NA,NA,NA,NA,NA,NA
SUPAMT41237,3LOTDFNYADYYO1AUEM8K01OO132FWN,B25CCDC4-6B1C-4A87-A2C6-CF35076978EB,2023-09-28_12h41.19.267,WP_VExplicitOC_HL,2022.2.5,Win32,8,NA,NA,NA,NA,NA,NA,NA,NA,NA,NA,NA,NA,NA,NA,NA,NA,NA,NA,NA,NA,NA,NA,NA,NA,NA,NA,NA,NA,NA,NA,NA,8,0,8,0,1,NA,NA,NA,NA,NA,NA,NA,NA,NA,NA,NA,NA,NA,NA,NA,NA,NA,NA,NA,NA,NA,NA,NA
SUPAMT41237,3LOTDFNYADYYO1AUEM8K01OO132FWN,B25CCDC4-6B1C-4A87-A2C6-CF35076978EB,2023-09-28_12h41.19.267,WP_VExplicitOC_HL,2022.2.5,Win32,8,NA,NA,2.131,NA,NA,NA,NA,NA,frustrated,"frustrated, not frustrated","more frustrated, less frustrated",NA,NA,NA,NA,NA,NA,NA,NA,NA,NA,NA,NA,NA,NA,NA,0,0,0,1,1,NA,NA,NA,NA,NA,NA,NA,NA,NA,NA,NA,NA,NA,NA,NA,NA,NA,NA,NA,NA,NA,NA,NA,NA,NA,NA,NA,NA
SUPAMT41237,3LOTDFNYADYYO1AUEM8K01OO132FWN,B25CCDC4-6B1C-4A87-A2C6-CF35076978EB,2023-09-28_12h41.19.267,WP_VExplicitOC_HL,2022.2.5,Win32,8,26.5625,2.245,2.048,NA,NA,NA,NA,NA,happy,"unhappy, happy","less happy, more happy",NA,NA,NA,NA,NA,NA,NA,NA,NA,NA,NA,NA,NA,NA,NA,0,1,1,0,1,NA,NA,NA,NA,NA,NA,NA,NA,NA,NA,NA,NA,NA,NA,NA,NA,NA,NA,NA,NA,NA,NA,NA,NA,NA,NA,NA,NA
SUPAMT41237,3LOTDFNYADYYO1AUEM8K01OO132FWN,B25CCDC4-6B1C-4A87-A2C6-CF35076978EB,2023-09-28_12h41.19.267,WP_VExplicitOC_HL,2022.2.5,Win32,8,73.69791667,6.502,2.116,NA,NA,NA,NA,NA,bored,"bored, not bored","more bored, less bored",NA,NA,NA,NA,NA,NA,NA,NA,NA,NA,NA,NA,NA,NA,NA,0,2,2,2,1,NA,NA,NA,NA,NA,NA,NA,NA,NA,NA,NA,NA,NA,NA,NA,NA,NA,NA,NA,NA,NA,NA,NA,NA,NA,NA,NA,NA
SUPAMT41237,3LOTDFNYADYYO1AUEM8K01OO132FWN,B25CCDC4-6B1C-4A87-A2C6-CF35076978EB,2023-09-28_12h41.19.267,WP_VExplicitOC_HL,2022.2.5,Win32,8,NA,NA,NA,NA,NA,NA,NA,NA,NA,NA,NA,NA,NA,NA,NA,NA,NA,NA,NA,NA,NA,NA,NA,NA,NA,NA,NA,NA,NA,NA,NA,9,0,9,0,1,NA,NA,NA,NA,NA,NA,NA,NA,NA,NA,NA,NA,NA,NA,NA,NA,NA,NA,NA,NA,NA,NA,NA
SUPAMT41237,3LOTDFNYADYYO1AUEM8K01OO132FWN,B25CCDC4-6B1C-4A87-A2C6-CF35076978EB,2023-09-28_12h41.19.267,WP_VExplicitOC_HL,2022.2.5,Win32,8,2.864583333,4.937,2.155,NA,NA,NA,NA,NA,happy,"unhappy, happy","less happy, more happy",NA,NA,NA,NA,NA,NA,NA,NA,NA,NA,NA,NA,NA,NA,NA,0,0,0,0,1,NA,NA,NA,NA,NA,NA,NA,NA,NA,NA,NA,NA,NA,NA,NA,NA,NA,NA,NA,NA,NA,NA,NA,NA,NA,NA,NA,NA
SUPAMT41237,3LOTDFNYADYYO1AUEM8K01OO132FWN,B25CCDC4-6B1C-4A87-A2C6-CF35076978EB,2023-09-28_12h41.19.267,WP_VExplicitOC_HL,2022.2.5,Win32,8,59.375,6.302,2.089,NA,NA,NA,NA,NA,frustrated,"frustrated, not frustrated","more frustrated, less frustrated",NA,NA,NA,NA,NA,NA,NA,NA,NA,NA,NA,NA,NA,NA,NA,0,1,1,1,1,NA,NA,NA,NA,NA,NA,NA,NA,NA,NA,NA,NA,NA,NA,NA,NA,NA,NA,NA,NA,NA,NA,NA,NA,NA,NA,NA,NA
SUPAMT41237,3LOTDFNYADYYO1AUEM8K01OO132FWN,B25CCDC4-6B1C-4A87-A2C6-CF35076978EB,2023-09-28_12h41.19.267,WP_VExplicitOC_HL,2022.2.5,Win32,8,59.375,4.584,2.145,NA,NA,NA,NA,NA,bored,"bored, not bored","more bored, less bored",NA,NA,NA,NA,NA,NA,NA,NA,NA,NA,NA,NA,NA,NA,NA,0,2,2,2,1,NA,NA,NA,NA,NA,NA,NA,NA,NA,NA,NA,NA,NA,NA,NA,NA,NA,NA,NA,NA,NA,NA,NA,NA,NA,NA,NA,NA
SUPAMT41237,3LOTDFNYADYYO1AUEM8K01OO132FWN,B25CCDC4-6B1C-4A87-A2C6-CF35076978EB,2023-09-28_12h41.19.267,WP_VExplicitOC_HL,2022.2.5,Win32,8,NA,NA,NA,NA,NA,NA,NA,NA,NA,NA,NA,NA,NA,NA,NA,NA,NA,NA,NA,NA,NA,NA,NA,NA,NA,NA,NA,NA,NA,NA,NA,10,0,10,0,1,NA,NA,NA,NA,NA,NA,NA,NA,NA,NA,NA,NA,NA,NA,NA,NA,NA,NA,NA,NA,NA,NA,NA
SUPAMT41237,3LOTDFNYADYYO1AUEM8K01OO132FWN,B25CCDC4-6B1C-4A87-A2C6-CF35076978EB,2023-09-28_12h41.19.267,WP_VExplicitOC_HL,2022.2.5,Win32,8,NA,NA,2.128,NA,NA,NA,NA,NA,bored,"bored, not bored","more bored, less bored",NA,NA,NA,NA,NA,NA,NA,NA,NA,NA,NA,NA,NA,NA,NA,0,0,0,2,1,NA,NA,NA,NA,NA,NA,NA,NA,NA,NA,NA,NA,NA,NA,NA,NA,NA,NA,NA,NA,NA,NA,NA,NA,NA,NA,NA,NA
SUPAMT41237,3LOTDFNYADYYO1AUEM8K01OO132FWN,B25CCDC4-6B1C-4A87-A2C6-CF35076978EB,2023-09-28_12h41.19.267,WP_VExplicitOC_HL,2022.2.5,Win32,8,63.80208333,4.412,2.11,NA,NA,NA,NA,NA,happy,"unhappy, happy","less happy, more happy",NA,NA,NA,NA,NA,NA,NA,NA,NA,NA,NA,NA,NA,NA,NA,0,1,1,0,1,NA,NA,NA,NA,NA,NA,NA,NA,NA,NA,NA,NA,NA,NA,NA,NA,NA,NA,NA,NA,NA,NA,NA,NA,NA,NA,NA,NA
SUPAMT41237,3LOTDFNYADYYO1AUEM8K01OO132FWN,B25CCDC4-6B1C-4A87-A2C6-CF35076978EB,2023-09-28_12h41.19.267,WP_VExplicitOC_HL,2022.2.5,Win32,8,NA,NA,2.113,NA,NA,NA,NA,NA,frustrated,"frustrated, not frustrated","more frustrated, less frustrated",NA,NA,NA,NA,NA,NA,NA,NA,NA,NA,NA,NA,NA,NA,NA,0,2,2,1,1,NA,NA,NA,NA,NA,NA,NA,NA,NA,NA,NA,NA,NA,NA,NA,NA,NA,NA,NA,NA,NA,NA,NA,NA,NA,NA,NA,NA
SUPAMT41237,3LOTDFNYADYYO1AUEM8K01OO132FWN,B25CCDC4-6B1C-4A87-A2C6-CF35076978EB,2023-09-28_12h41.19.267,WP_VExplicitOC_HL,2022.2.5,Win32,8,NA,NA,NA,NA,NA,NA,NA,NA,NA,NA,NA,NA,NA,NA,NA,NA,NA,NA,NA,NA,NA,NA,NA,NA,NA,NA,NA,NA,NA,NA,NA,11,0,11,0,1,NA,NA,NA,NA,NA,NA,NA,NA,NA,NA,NA,NA,NA,NA,NA,NA,NA,NA,NA,NA,NA,NA,NA
SUPAMT41237,3LOTDFNYADYYO1AUEM8K01OO132FWN,B25CCDC4-6B1C-4A87-A2C6-CF35076978EB,2023-09-28_12h41.19.267,WP_VExplicitOC_HL,2022.2.5,Win32,8,76.5625,7.245,2.121,NA,NA,NA,NA,NA,happy,"unhappy, happy","less happy, more happy",NA,NA,NA,NA,NA,NA,NA,NA,NA,NA,NA,NA,NA,NA,NA,0,0,0,0,1,NA,NA,NA,NA,NA,NA,NA,NA,NA,NA,NA,NA,NA,NA,NA,NA,NA,NA,NA,NA,NA,NA,NA,NA,NA,NA,NA,NA
SUPAMT41237,3LOTDFNYADYYO1AUEM8K01OO132FWN,B25CCDC4-6B1C-4A87-A2C6-CF35076978EB,2023-09-28_12h41.19.267,WP_VExplicitOC_HL,2022.2.5,Win32,8,98.17708333,4.564,2.02,NA,NA,NA,NA,NA,bored,"bored, not bored","more bored, less bored",NA,NA,NA,NA,NA,NA,NA,NA,NA,NA,NA,NA,NA,NA,NA,0,1,1,2,1,NA,NA,NA,NA,NA,NA,NA,NA,NA,NA,NA,NA,NA,NA,NA,NA,NA,NA,NA,NA,NA,NA,NA,NA,NA,NA,NA,NA
SUPAMT41237,3LOTDFNYADYYO1AUEM8K01OO132FWN,B25CCDC4-6B1C-4A87-A2C6-CF35076978EB,2023-09-28_12h41.19.267,WP_VExplicitOC_HL,2022.2.5,Win32,8,92.1875,4.279,2.046,NA,NA,NA,NA,NA,frustrated,"frustrated, not frustrated","more frustrated, less frustrated",NA,NA,NA,NA,NA,NA,NA,NA,NA,NA,NA,NA,NA,NA,NA,0,2,2,1,1,NA,NA,NA,NA,NA,NA,NA,NA,NA,NA,NA,NA,NA,NA,NA,NA,NA,NA,NA,NA,NA,NA,NA,NA,NA,NA,NA,NA
SUPAMT41237,3LOTDFNYADYYO1AUEM8K01OO132FWN,B25CCDC4-6B1C-4A87-A2C6-CF35076978EB,2023-09-28_12h41.19.267,WP_VExplicitOC_HL,2022.2.5,Win32,8,NA,NA,NA,NA,NA,NA,NA,NA,NA,NA,NA,NA,NA,NA,NA,NA,NA,NA,NA,NA,NA,NA,NA,NA,NA,NA,NA,NA,NA,NA,NA,12,0,12,0,1,NA,NA,NA,NA,NA,NA,NA,NA,NA,NA,NA,NA,NA,NA,NA,NA,NA,NA,NA,NA,NA,NA,NA
SUPAMT41237,3LOTDFNYADYYO1AUEM8K01OO132FWN,B25CCDC4-6B1C-4A87-A2C6-CF35076978EB,2023-09-28_12h41.19.267,WP_VExplicitOC_HL,2022.2.5,Win32,8,99.73958333,4.315,2.103,NA,NA,NA,NA,NA,bored,"bored, not bored","more bored, less bored",NA,NA,NA,NA,NA,NA,NA,NA,NA,NA,NA,NA,NA,NA,NA,0,0,0,2,1,NA,NA,NA,NA,NA,NA,NA,NA,NA,NA,NA,NA,NA,NA,NA,NA,NA,NA,NA,NA,NA,NA,NA,NA,NA,NA,NA,NA
SUPAMT41237,3LOTDFNYADYYO1AUEM8K01OO132FWN,B25CCDC4-6B1C-4A87-A2C6-CF35076978EB,2023-09-28_12h41.19.267,WP_VExplicitOC_HL,2022.2.5,Win32,8,91.66666667,4.403,2.105,NA,NA,NA,NA,NA,happy,"unhappy, happy","less happy, more happy",NA,NA,NA,NA,NA,NA,NA,NA,NA,NA,NA,NA,NA,NA,NA,0,1,1,0,1,NA,NA,NA,NA,NA,NA,NA,NA,NA,NA,NA,NA,NA,NA,NA,NA,NA,NA,NA,NA,NA,NA,NA,NA,NA,NA,NA,NA
SUPAMT41237,3LOTDFNYADYYO1AUEM8K01OO132FWN,B25CCDC4-6B1C-4A87-A2C6-CF35076978EB,2023-09-28_12h41.19.267,WP_VExplicitOC_HL,2022.2.5,Win32,8,31.25,4.45,2.053,NA,NA,NA,NA,NA,frustrated,"frustrated, not frustrated","more frustrated, less frustrated",NA,NA,NA,NA,NA,NA,NA,NA,NA,NA,NA,NA,NA,NA,NA,0,2,2,1,1,NA,NA,NA,NA,NA,NA,NA,NA,NA,NA,NA,NA,NA,NA,NA,NA,NA,NA,NA,NA,NA,NA,NA,NA,NA,NA,NA,NA
SUPAMT41237,3LOTDFNYADYYO1AUEM8K01OO132FWN,B25CCDC4-6B1C-4A87-A2C6-CF35076978EB,2023-09-28_12h41.19.267,WP_VExplicitOC_HL,2022.2.5,Win32,8,NA,NA,NA,NA,NA,NA,NA,NA,NA,NA,NA,NA,NA,NA,NA,NA,NA,NA,NA,NA,NA,NA,NA,NA,NA,NA,NA,NA,NA,NA,NA,13,0,13,0,1,NA,NA,NA,NA,NA,NA,NA,NA,NA,NA,NA,NA,NA,NA,NA,NA,NA,NA,NA,NA,NA,NA,NA
SUPAMT41237,3LOTDFNYADYYO1AUEM8K01OO132FWN,B25CCDC4-6B1C-4A87-A2C6-CF35076978EB,2023-09-28_12h41.19.267,WP_VExplicitOC_HL,2022.2.5,Win32,8,81.25,6.277,2.004,NA,NA,NA,NA,NA,bored,"bored, not bored","more bored, less bored",NA,NA,NA,NA,NA,NA,NA,NA,NA,NA,NA,NA,NA,NA,NA,0,0,0,2,1,NA,NA,NA,NA,NA,NA,NA,NA,NA,NA,NA,NA,NA,NA,NA,NA,NA,NA,NA,NA,NA,NA,NA,NA,NA,NA,NA,NA
SUPAMT41237,3LOTDFNYADYYO1AUEM8K01OO132FWN,B25CCDC4-6B1C-4A87-A2C6-CF35076978EB,2023-09-28_12h41.19.267,WP_VExplicitOC_HL,2022.2.5,Win32,8,64.58333333,4.823,2.114,NA,NA,NA,NA,NA,happy,"unhappy, happy","less happy, more happy",NA,NA,NA,NA,NA,NA,NA,NA,NA,NA,NA,NA,NA,NA,NA,0,1,1,0,1,NA,NA,NA,NA,NA,NA,NA,NA,NA,NA,NA,NA,NA,NA,NA,NA,NA,NA,NA,NA,NA,NA,NA,NA,NA,NA,NA,NA
SUPAMT41237,3LOTDFNYADYYO1AUEM8K01OO132FWN,B25CCDC4-6B1C-4A87-A2C6-CF35076978EB,2023-09-28_12h41.19.267,WP_VExplicitOC_HL,2022.2.5,Win32,8,66.40625,4.925,2.11,NA,NA,NA,NA,NA,frustrated,"frustrated, not frustrated","more frustrated, less frustrated",NA,NA,NA,NA,NA,NA,NA,NA,NA,NA,NA,NA,NA,NA,NA,0,2,2,1,1,NA,NA,NA,NA,NA,NA,NA,NA,NA,NA,NA,NA,NA,NA,NA,NA,NA,NA,NA,NA,NA,NA,NA,NA,NA,NA,NA,NA
SUPAMT41237,3LOTDFNYADYYO1AUEM8K01OO132FWN,B25CCDC4-6B1C-4A87-A2C6-CF35076978EB,2023-09-28_12h41.19.267,WP_VExplicitOC_HL,2022.2.5,Win32,8,NA,NA,NA,NA,NA,NA,NA,NA,NA,NA,NA,NA,NA,NA,NA,NA,NA,NA,NA,NA,NA,NA,NA,NA,NA,NA,NA,NA,NA,NA,NA,14,0,14,0,1,NA,NA,NA,NA,NA,NA,NA,NA,NA,NA,NA,NA,NA,NA,NA,NA,NA,NA,NA,NA,NA,NA,NA
SUPAMT41237,3LOTDFNYADYYO1AUEM8K01OO132FWN,B25CCDC4-6B1C-4A87-A2C6-CF35076978EB,2023-09-28_12h41.19.267,WP_VExplicitOC_HL,2022.2.5,Win32,8,NA,NA,NA,NA,NA,NA,NA,NA,NA,NA,NA,NA,NA,NA,NA,NA,NA,NA,NA,NA,NA,NA,NA,NA,NA,NA,NA,NA,NA,NA,NA,NA,NA,NA,NA,NA,NA,NA,NA,NA,NA,NA,NA,NA,NA,NA,NA,NA,NA,NA,NA,NA,NA,NA,NA,NA,NA,NA,NA
SUPAMT41237,3LOTDFNYADYYO1AUEM8K01OO132FWN,B25CCDC4-6B1C-4A87-A2C6-CF35076978EB,2023-09-28_12h41.19.267,WP_VExplicitOC_HL,2022.2.5,Win32,8,NA,NA,NA,NA,NA,NA,NA,NA,NA,NA,NA,NA,NA,NA,NA,NA,NA,NA,NA,NA,NA,NA,NA,NA,NA,NA,NA,NA,NA,NA,NA,NA,NA,NA,NA,NA,NA,NA,NA,NA,NA,NA,NA,NA,NA,NA,NA,NA,NA,NA,NA,NA,NA,NA,NA,NA,NA,NA,NA
SUPAMT41237,3LOTDFNYADYYO1AUEM8K01OO132FWN,B25CCDC4-6B1C-4A87-A2C6-CF35076978EB,2023-09-28_12h41.19.267,WP_VExplicitOC_HL,2022.2.5,Win32,8,NA,NA,NA,NA,NA,NA,NA,NA,NA,NA,NA,NA,NA,NA,NA,NA,NA,NA,rest (looking at a fixed cross),001.png,NA,NA,NA,NA,NA,NA,NA,NA,NA,NA,NA,NA,NA,NA,NA,NA,98.4375,4.89,0,0,0,0,1,NA,NA,NA,NA,NA,NA,NA,NA,NA,NA,NA,NA,NA,NA,NA,NA
SUPAMT41237,3LOTDFNYADYYO1AUEM8K01OO132FWN,B25CCDC4-6B1C-4A87-A2C6-CF35076978EB,2023-09-28_12h41.19.267,WP_VExplicitOC_HL,2022.2.5,Win32,8,NA,NA,NA,NA,NA,NA,NA,NA,NA,NA,NA,NA,NA,NA,NA,NA,NA,NA,stand up,002.png,NA,NA,NA,NA,NA,NA,NA,NA,NA,NA,NA,NA,NA,NA,NA,NA,24.47916667,4.888,0,1,1,1,1,NA,NA,NA,NA,NA,NA,NA,NA,NA,NA,NA,NA,NA,NA,NA,NA
SUPAMT41237,3LOTDFNYADYYO1AUEM8K01OO132FWN,B25CCDC4-6B1C-4A87-A2C6-CF35076978EB,2023-09-28_12h41.19.267,WP_VExplicitOC_HL,2022.2.5,Win32,8,NA,NA,NA,NA,NA,NA,NA,NA,NA,NA,NA,NA,NA,NA,NA,NA,NA,NA,stretch,003.png,NA,NA,NA,NA,NA,NA,NA,NA,NA,NA,NA,NA,NA,NA,NA,NA,91.14583333,3.394,0,2,2,2,1,NA,NA,NA,NA,NA,NA,NA,NA,NA,NA,NA,NA,NA,NA,NA,NA
SUPAMT41237,3LOTDFNYADYYO1AUEM8K01OO132FWN,B25CCDC4-6B1C-4A87-A2C6-CF35076978EB,2023-09-28_12h41.19.267,WP_VExplicitOC_HL,2022.2.5,Win32,8,NA,NA,NA,NA,NA,NA,NA,NA,NA,NA,NA,NA,NA,NA,NA,NA,NA,NA,make a drink,004.png,NA,NA,NA,NA,NA,NA,NA,NA,NA,NA,NA,NA,NA,NA,NA,NA,97.65625,5.183,0,3,3,3,1,NA,NA,NA,NA,NA,NA,NA,NA,NA,NA,NA,NA,NA,NA,NA,NA
SUPAMT41237,3LOTDFNYADYYO1AUEM8K01OO132FWN,B25CCDC4-6B1C-4A87-A2C6-CF35076978EB,2023-09-28_12h41.19.267,WP_VExplicitOC_HL,2022.2.5,Win32,8,NA,NA,NA,NA,NA,NA,NA,NA,NA,NA,NA,NA,NA,NA,NA,NA,NA,NA,scroll social media,005.png,NA,NA,NA,NA,NA,NA,NA,NA,NA,NA,NA,NA,NA,NA,NA,NA,34.375,5.715,0,4,4,4,1,NA,NA,NA,NA,NA,NA,NA,NA,NA,NA,NA,NA,NA,NA,NA,NA
SUPAMT41237,3LOTDFNYADYYO1AUEM8K01OO132FWN,B25CCDC4-6B1C-4A87-A2C6-CF35076978EB,2023-09-28_12h41.19.267,WP_VExplicitOC_HL,2022.2.5,Win32,8,NA,NA,NA,NA,NA,NA,NA,NA,NA,NA,NA,NA,NA,NA,NA,NA,NA,NA,listen to music,006.png,NA,NA,NA,NA,NA,NA,NA,NA,NA,NA,NA,NA,NA,NA,NA,NA,97.65625,3.243,0,5,5,5,1,NA,NA,NA,NA,NA,NA,NA,NA,NA,NA,NA,NA,NA,NA,NA,NA
SUPAMT41237,3LOTDFNYADYYO1AUEM8K01OO132FWN,B25CCDC4-6B1C-4A87-A2C6-CF35076978EB,2023-09-28_12h41.19.267,WP_VExplicitOC_HL,2022.2.5,Win32,8,NA,NA,NA,NA,NA,NA,NA,NA,NA,NA,NA,NA,NA,NA,NA,NA,NA,NA,daydream,007.png,NA,NA,NA,NA,NA,NA,NA,NA,NA,NA,NA,NA,NA,NA,NA,NA,-57.8125,4.924,0,6,6,6,1,NA,NA,NA,NA,NA,NA,NA,NA,NA,NA,NA,NA,NA,NA,NA,NA
SUPAMT41237,3LOTDFNYADYYO1AUEM8K01OO132FWN,B25CCDC4-6B1C-4A87-A2C6-CF35076978EB,2023-09-28_12h41.19.267,WP_VExplicitOC_HL,2022.2.5,Win32,8,NA,NA,NA,NA,NA,NA,NA,NA,NA,NA,NA,NA,NA,NA,NA,NA,NA,NA,watch a short animation,008.png,NA,NA,NA,NA,NA,NA,NA,NA,NA,NA,NA,NA,NA,NA,NA,NA,13.28125,4.069,0,7,7,7,1,NA,NA,NA,NA,NA,NA,NA,NA,NA,NA,NA,NA,NA,NA,NA,NA
SUPAMT41237,3LOTDFNYADYYO1AUEM8K01OO132FWN,B25CCDC4-6B1C-4A87-A2C6-CF35076978EB,2023-09-28_12h41.19.267,WP_VExplicitOC_HL,2022.2.5,Win32,8,NA,NA,NA,NA,NA,NA,NA,NA,NA,NA,NA,NA,NA,NA,NA,NA,NA,NA,read a novel,009.png,NA,NA,NA,NA,NA,NA,NA,NA,NA,NA,NA,NA,NA,NA,NA,NA,NA,NA,0,8,8,8,1,NA,NA,NA,NA,NA,NA,NA,NA,NA,NA,NA,NA,NA,NA,NA,NA
SUPAMT41237,3LOTDFNYADYYO1AUEM8K01OO132FWN,B25CCDC4-6B1C-4A87-A2C6-CF35076978EB,2023-09-28_12h41.19.267,WP_VExplicitOC_HL,2022.2.5,Win32,8,NA,NA,NA,NA,NA,NA,NA,NA,NA,NA,NA,NA,NA,NA,NA,NA,NA,NA,read the news,010.png,NA,NA,NA,NA,NA,NA,NA,NA,NA,NA,NA,NA,NA,NA,NA,NA,57.03125,3.298,0,9,9,9,1,NA,NA,NA,NA,NA,NA,NA,NA,NA,NA,NA,NA,NA,NA,NA,NA
SUPAMT41237,3LOTDFNYADYYO1AUEM8K01OO132FWN,B25CCDC4-6B1C-4A87-A2C6-CF35076978EB,2023-09-28_12h41.19.267,WP_VExplicitOC_HL,2022.2.5,Win32,8,NA,NA,NA,NA,NA,NA,NA,NA,NA,NA,NA,NA,NA,NA,NA,NA,NA,NA,NA,NA,NA,NA,NA,NA,NA,NA,NA,NA,NA,NA,NA,NA,NA,NA,NA,NA,NA,NA,NA,NA,NA,NA,NA,daydream,NA,NA,NA,NA,NA,NA,NA,NA,NA,NA,NA,NA,NA,NA,NA
SUPAMT41237,3LOTDFNYADYYO1AUEM8K01OO132FWN,B25CCDC4-6B1C-4A87-A2C6-CF35076978EB,2023-09-28_12h41.19.267,WP_VExplicitOC_HL,2022.2.5,Win32,8,55.98958333,5.397,2.121,NA,NA,NA,NA,NA,frustrated,"frustrated, not frustrated","more frustrated, less frustrated",NA,NA,NA,NA,NA,NA,NA,NA,NA,NA,NA,NA,NA,NA,NA,NA,NA,NA,NA,NA,NA,NA,NA,NA,NA,NA,NA,NA,NA,NA,NA,NA,NA,0,0,0,1,1,NA,NA,NA,NA,NA,NA,NA,NA,NA,NA
SUPAMT41237,3LOTDFNYADYYO1AUEM8K01OO132FWN,B25CCDC4-6B1C-4A87-A2C6-CF35076978EB,2023-09-28_12h41.19.267,WP_VExplicitOC_HL,2022.2.5,Win32,8,69.53125,4.251,2.042,NA,NA,NA,NA,NA,bored,"bored, not bored","more bored, less bored",NA,NA,NA,NA,NA,NA,NA,NA,NA,NA,NA,NA,NA,NA,NA,NA,NA,NA,NA,NA,NA,NA,NA,NA,NA,NA,NA,NA,NA,NA,NA,NA,NA,0,1,1,2,1,NA,NA,NA,NA,NA,NA,NA,NA,NA,NA
SUPAMT41237,3LOTDFNYADYYO1AUEM8K01OO132FWN,B25CCDC4-6B1C-4A87-A2C6-CF35076978EB,2023-09-28_12h41.19.267,WP_VExplicitOC_HL,2022.2.5,Win32,8,72.13541667,4.254,2.034,NA,NA,NA,NA,NA,happy,"unhappy, happy","less happy, more happy",NA,NA,NA,NA,NA,NA,NA,NA,NA,NA,NA,NA,NA,NA,NA,NA,NA,NA,NA,NA,NA,NA,NA,NA,NA,NA,NA,NA,NA,NA,NA,NA,NA,0,2,2,0,1,NA,NA,NA,NA,NA,NA,NA,NA,NA,NA
SUPAMT41237,3LOTDFNYADYYO1AUEM8K01OO132FWN,B25CCDC4-6B1C-4A87-A2C6-CF35076978EB,2023-09-28_12h41.19.267,WP_VExplicitOC_HL,2022.2.5,Win32,8,NA,NA,NA,NA,NA,NA,NA,NA,NA,NA,NA,NA,NA,NA,NA,NA,NA,NA,NA,NA,NA,NA,NA,NA,NA,NA,NA,NA,NA,NA,NA,NA,NA,NA,NA,NA,NA,NA,NA,NA,NA,NA,NA,NA,NA,NA,NA,NA,NA,NA,NA,NA,NA,NA,NA,NA,NA,NA,NA
SUPAMT41237,3LOTDFNYADYYO1AUEM8K01OO132FWN,B25CCDC4-6B1C-4A87-A2C6-CF35076978EB,2023-09-28_12h41.19.267,WP_VExplicitOC_HL,2022.2.5,Win32,8,NA,NA,NA,NA,NA,NA,NA,NA,NA,NA,NA,NA,NA,NA,NA,NA,NA,NA,NA,NA,NA,NA,NA,NA,NA,NA,NA,NA,NA,NA,NA,NA,NA,NA,NA,NA,NA,NA,NA,NA,NA,NA,NA,NA,NA,NA,NA,NA,NA,NA,NA,NA,NA,NA,NA,NA,NA,NA,NA
SUPAMT41237,3LOTDFNYADYYO1AUEM8K01OO132FWN,B25CCDC4-6B1C-4A87-A2C6-CF35076978EB,2023-09-28_12h41.19.267,WP_VExplicitOC_HL,2022.2.5,Win32,8,79.6875,4.953,2.129,NA,NA,NA,NA,NA,happy,"unhappy, happy","less happy, more happy",NA,NA,NA,NA,NA,NA,NA,NA,NA,NA,NA,NA,NA,NA,NA,NA,NA,NA,NA,NA,NA,NA,NA,NA,NA,NA,NA,NA,NA,NA,NA,NA,NA,NA,NA,NA,NA,NA,0,0,0,0,1,NA,NA,NA,NA,NA
SUPAMT41237,3LOTDFNYADYYO1AUEM8K01OO132FWN,B25CCDC4-6B1C-4A87-A2C6-CF35076978EB,2023-09-28_12h41.19.267,WP_VExplicitOC_HL,2022.2.5,Win32,8,74.73958333,4.588,2.053,NA,NA,NA,NA,NA,frustrated,"frustrated, not frustrated","more frustrated, less frustrated",NA,NA,NA,NA,NA,NA,NA,NA,NA,NA,NA,NA,NA,NA,NA,NA,NA,NA,NA,NA,NA,NA,NA,NA,NA,NA,NA,NA,NA,NA,NA,NA,NA,NA,NA,NA,NA,NA,0,1,1,1,1,NA,NA,NA,NA,NA
SUPAMT41237,3LOTDFNYADYYO1AUEM8K01OO132FWN,B25CCDC4-6B1C-4A87-A2C6-CF35076978EB,2023-09-28_12h41.19.267,WP_VExplicitOC_HL,2022.2.5,Win32,8,83.59375,4.471,2.007,NA,NA,NA,NA,NA,bored,"bored, not bored","more bored, less bored",NA,NA,NA,NA,NA,NA,NA,NA,NA,NA,NA,NA,NA,NA,NA,NA,NA,NA,NA,NA,NA,NA,NA,NA,NA,NA,NA,NA,NA,NA,NA,NA,NA,NA,NA,NA,NA,NA,0,2,2,2,1,NA,NA,NA,NA,NA
SUPAMT41237,3LOTDFNYADYYO1AUEM8K01OO132FWN,B25CCDC4-6B1C-4A87-A2C6-CF35076978EB,2023-09-28_12h41.19.267,WP_VExplicitOC_HL,2022.2.5,Win32,8,NA,NA,NA,NA,NA,NA,NA,NA,NA,NA,NA,NA,NA,NA,NA,NA,NA,NA,NA,NA,NA,NA,NA,NA,NA,NA,NA,NA,NA,NA,NA,NA,NA,NA,NA,NA,NA,NA,NA,NA,NA,NA,NA,NA,NA,NA,NA,NA,NA,NA,NA,NA,NA,NA,0,0,0,0,1
SUPAMT41237,3LOTDFNYADYYO1AUEM8K01OO132FWN,B25CCDC4-6B1C-4A87-A2C6-CF35076978EB,2023-09-28_12h41.19.267,WP_VExplicitOC_HL,2022.2.5,Win32,8,76.82291667,4.609,2.158,NA,NA,NA,NA,NA,bored,"bored, not bored","more bored, less bored",NA,NA,NA,NA,NA,NA,NA,NA,NA,NA,NA,NA,NA,NA,NA,NA,NA,NA,NA,NA,NA,NA,NA,NA,NA,NA,NA,NA,NA,NA,NA,NA,NA,NA,NA,NA,NA,NA,0,0,0,2,1,NA,NA,NA,NA,NA
SUPAMT41237,3LOTDFNYADYYO1AUEM8K01OO132FWN,B25CCDC4-6B1C-4A87-A2C6-CF35076978EB,2023-09-28_12h41.19.267,WP_VExplicitOC_HL,2022.2.5,Win32,8,81.77083333,6.907,2.172,NA,NA,NA,NA,NA,frustrated,"frustrated, not frustrated","more frustrated, less frustrated",NA,NA,NA,NA,NA,NA,NA,NA,NA,NA,NA,NA,NA,NA,NA,NA,NA,NA,NA,NA,NA,NA,NA,NA,NA,NA,NA,NA,NA,NA,NA,NA,NA,NA,NA,NA,NA,NA,0,1,1,1,1,NA,NA,NA,NA,NA
SUPAMT41237,3LOTDFNYADYYO1AUEM8K01OO132FWN,B25CCDC4-6B1C-4A87-A2C6-CF35076978EB,2023-09-28_12h41.19.267,WP_VExplicitOC_HL,2022.2.5,Win32,8,55.46875,6.449,2.132,NA,NA,NA,NA,NA,happy,"unhappy, happy","less happy, more happy",NA,NA,NA,NA,NA,NA,NA,NA,NA,NA,NA,NA,NA,NA,NA,NA,NA,NA,NA,NA,NA,NA,NA,NA,NA,NA,NA,NA,NA,NA,NA,NA,NA,NA,NA,NA,NA,NA,0,2,2,0,1,NA,NA,NA,NA,NA
SUPAMT41237,3LOTDFNYADYYO1AUEM8K01OO132FWN,B25CCDC4-6B1C-4A87-A2C6-CF35076978EB,2023-09-28_12h41.19.267,WP_VExplicitOC_HL,2022.2.5,Win32,8,NA,NA,NA,NA,NA,NA,NA,NA,NA,NA,NA,NA,NA,NA,NA,NA,NA,NA,NA,NA,NA,NA,NA,NA,NA,NA,NA,NA,NA,NA,NA,NA,NA,NA,NA,NA,NA,NA,NA,NA,NA,NA,NA,NA,NA,NA,NA,NA,NA,NA,NA,NA,NA,NA,1,0,1,0,1
SUPAMT41237,3LOTDFNYADYYO1AUEM8K01OO132FWN,B25CCDC4-6B1C-4A87-A2C6-CF35076978EB,2023-09-28_12h41.19.267,WP_VExplicitOC_HL,2022.2.5,Win32,8,48.95833333,4.404,2.086,NA,NA,NA,NA,NA,bored,"bored, not bored","more bored, less bored",NA,NA,NA,NA,NA,NA,NA,NA,NA,NA,NA,NA,NA,NA,NA,NA,NA,NA,NA,NA,NA,NA,NA,NA,NA,NA,NA,NA,NA,NA,NA,NA,NA,NA,NA,NA,NA,NA,0,0,0,2,1,NA,NA,NA,NA,NA
SUPAMT41237,3LOTDFNYADYYO1AUEM8K01OO132FWN,B25CCDC4-6B1C-4A87-A2C6-CF35076978EB,2023-09-28_12h41.19.267,WP_VExplicitOC_HL,2022.2.5,Win32,8,73.4375,4.499,2.022,NA,NA,NA,NA,NA,frustrated,"frustrated, not frustrated","more frustrated, less frustrated",NA,NA,NA,NA,NA,NA,NA,NA,NA,NA,NA,NA,NA,NA,NA,NA,NA,NA,NA,NA,NA,NA,NA,NA,NA,NA,NA,NA,NA,NA,NA,NA,NA,NA,NA,NA,NA,NA,0,1,1,1,1,NA,NA,NA,NA,NA
SUPAMT41237,3LOTDFNYADYYO1AUEM8K01OO132FWN,B25CCDC4-6B1C-4A87-A2C6-CF35076978EB,2023-09-28_12h41.19.267,WP_VExplicitOC_HL,2022.2.5,Win32,8,NA,NA,2.01,NA,NA,NA,NA,NA,happy,"unhappy, happy","less happy, more happy",NA,NA,NA,NA,NA,NA,NA,NA,NA,NA,NA,NA,NA,NA,NA,NA,NA,NA,NA,NA,NA,NA,NA,NA,NA,NA,NA,NA,NA,NA,NA,NA,NA,NA,NA,NA,NA,NA,0,2,2,0,1,NA,NA,NA,NA,NA
SUPAMT41237,3LOTDFNYADYYO1AUEM8K01OO132FWN,B25CCDC4-6B1C-4A87-A2C6-CF35076978EB,2023-09-28_12h41.19.267,WP_VExplicitOC_HL,2022.2.5,Win32,8,NA,NA,NA,NA,NA,NA,NA,NA,NA,NA,NA,NA,NA,NA,NA,NA,NA,NA,NA,NA,NA,NA,NA,NA,NA,NA,NA,NA,NA,NA,NA,NA,NA,NA,NA,NA,NA,NA,NA,NA,NA,NA,NA,NA,NA,NA,NA,NA,NA,NA,NA,NA,NA,NA,2,0,2,0,1
SUPAMT41237,3LOTDFNYADYYO1AUEM8K01OO132FWN,B25CCDC4-6B1C-4A87-A2C6-CF35076978EB,2023-09-28_12h41.19.267,WP_VExplicitOC_HL,2022.2.5,Win32,8,84.375,5.558,2.112,NA,NA,NA,NA,NA,happy,"unhappy, happy","less happy, more happy",NA,NA,NA,NA,NA,NA,NA,NA,NA,NA,NA,NA,NA,NA,NA,NA,NA,NA,NA,NA,NA,NA,NA,NA,NA,NA,NA,NA,NA,NA,NA,NA,NA,NA,NA,NA,NA,NA,0,0,0,0,1,NA,NA,NA,NA,NA
SUPAMT41237,3LOTDFNYADYYO1AUEM8K01OO132FWN,B25CCDC4-6B1C-4A87-A2C6-CF35076978EB,2023-09-28_12h41.19.267,WP_VExplicitOC_HL,2022.2.5,Win32,8,82.03125,4.84,2.03,NA,NA,NA,NA,NA,frustrated,"frustrated, not frustrated","more frustrated, less frustrated",NA,NA,NA,NA,NA,NA,NA,NA,NA,NA,NA,NA,NA,NA,NA,NA,NA,NA,NA,NA,NA,NA,NA,NA,NA,NA,NA,NA,NA,NA,NA,NA,NA,NA,NA,NA,NA,NA,0,1,1,1,1,NA,NA,NA,NA,NA
SUPAMT41237,3LOTDFNYADYYO1AUEM8K01OO132FWN,B25CCDC4-6B1C-4A87-A2C6-CF35076978EB,2023-09-28_12h41.19.267,WP_VExplicitOC_HL,2022.2.5,Win32,8,65.88541667,4.934,2.1,NA,NA,NA,NA,NA,bored,"bored, not bored","more bored, less bored",NA,NA,NA,NA,NA,NA,NA,NA,NA,NA,NA,NA,NA,NA,NA,NA,NA,NA,NA,NA,NA,NA,NA,NA,NA,NA,NA,NA,NA,NA,NA,NA,NA,NA,NA,NA,NA,NA,0,2,2,2,1,NA,NA,NA,NA,NA
SUPAMT41237,3LOTDFNYADYYO1AUEM8K01OO132FWN,B25CCDC4-6B1C-4A87-A2C6-CF35076978EB,2023-09-28_12h41.19.267,WP_VExplicitOC_HL,2022.2.5,Win32,8,NA,NA,NA,NA,NA,NA,NA,NA,NA,NA,NA,NA,NA,NA,NA,NA,NA,NA,NA,NA,NA,NA,NA,NA,NA,NA,NA,NA,NA,NA,NA,NA,NA,NA,NA,NA,NA,NA,NA,NA,NA,NA,NA,NA,NA,NA,NA,NA,NA,NA,NA,NA,NA,NA,3,0,3,0,1
SUPAMT41237,3LOTDFNYADYYO1AUEM8K01OO132FWN,B25CCDC4-6B1C-4A87-A2C6-CF35076978EB,2023-09-28_12h41.19.267,WP_VExplicitOC_HL,2022.2.5,Win32,8,69.01041667,7.192,2.053,NA,NA,NA,NA,NA,frustrated,"frustrated, not frustrated","more frustrated, less frustrated",NA,NA,NA,NA,NA,NA,NA,NA,NA,NA,NA,NA,NA,NA,NA,NA,NA,NA,NA,NA,NA,NA,NA,NA,NA,NA,NA,NA,NA,NA,NA,NA,NA,NA,NA,NA,NA,NA,0,0,0,1,1,NA,NA,NA,NA,NA
SUPAMT41237,3LOTDFNYADYYO1AUEM8K01OO132FWN,B25CCDC4-6B1C-4A87-A2C6-CF35076978EB,2023-09-28_12h41.19.267,WP_VExplicitOC_HL,2022.2.5,Win32,8,67.96875,4.335,2.019,NA,NA,NA,NA,NA,bored,"bored, not bored","more bored, less bored",NA,NA,NA,NA,NA,NA,NA,NA,NA,NA,NA,NA,NA,NA,NA,NA,NA,NA,NA,NA,NA,NA,NA,NA,NA,NA,NA,NA,NA,NA,NA,NA,NA,NA,NA,NA,NA,NA,0,1,1,2,1,NA,NA,NA,NA,NA
SUPAMT41237,3LOTDFNYADYYO1AUEM8K01OO132FWN,B25CCDC4-6B1C-4A87-A2C6-CF35076978EB,2023-09-28_12h41.19.267,WP_VExplicitOC_HL,2022.2.5,Win32,8,68.22916667,6.257,2.131,NA,NA,NA,NA,NA,happy,"unhappy, happy","less happy, more happy",NA,NA,NA,NA,NA,NA,NA,NA,NA,NA,NA,NA,NA,NA,NA,NA,NA,NA,NA,NA,NA,NA,NA,NA,NA,NA,NA,NA,NA,NA,NA,NA,NA,NA,NA,NA,NA,NA,0,2,2,0,1,NA,NA,NA,NA,NA
SUPAMT41237,3LOTDFNYADYYO1AUEM8K01OO132FWN,B25CCDC4-6B1C-4A87-A2C6-CF35076978EB,2023-09-28_12h41.19.267,WP_VExplicitOC_HL,2022.2.5,Win32,8,NA,NA,NA,NA,NA,NA,NA,NA,NA,NA,NA,NA,NA,NA,NA,NA,NA,NA,NA,NA,NA,NA,NA,NA,NA,NA,NA,NA,NA,NA,NA,NA,NA,NA,NA,NA,NA,NA,NA,NA,NA,NA,NA,NA,NA,NA,NA,NA,NA,NA,NA,NA,NA,NA,4,0,4,0,1
SUPAMT41237,3LOTDFNYADYYO1AUEM8K01OO132FWN,B25CCDC4-6B1C-4A87-A2C6-CF35076978EB,2023-09-28_12h41.19.267,WP_VExplicitOC_HL,2022.2.5,Win32,8,87.76041667,5.675,2.068,NA,NA,NA,NA,NA,happy,"unhappy, happy","less happy, more happy",NA,NA,NA,NA,NA,NA,NA,NA,NA,NA,NA,NA,NA,NA,NA,NA,NA,NA,NA,NA,NA,NA,NA,NA,NA,NA,NA,NA,NA,NA,NA,NA,NA,NA,NA,NA,NA,NA,0,0,0,0,1,NA,NA,NA,NA,NA
SUPAMT41237,3LOTDFNYADYYO1AUEM8K01OO132FWN,B25CCDC4-6B1C-4A87-A2C6-CF35076978EB,2023-09-28_12h41.19.267,WP_VExplicitOC_HL,2022.2.5,Win32,8,NA,NA,2.007,NA,NA,NA,NA,NA,bored,"bored, not bored","more bored, less bored",NA,NA,NA,NA,NA,NA,NA,NA,NA,NA,NA,NA,NA,NA,NA,NA,NA,NA,NA,NA,NA,NA,NA,NA,NA,NA,NA,NA,NA,NA,NA,NA,NA,NA,NA,NA,NA,NA,0,1,1,2,1,NA,NA,NA,NA,NA
SUPAMT41237,3LOTDFNYADYYO1AUEM8K01OO132FWN,B25CCDC4-6B1C-4A87-A2C6-CF35076978EB,2023-09-28_12h41.19.267,WP_VExplicitOC_HL,2022.2.5,Win32,8,92.44791667,5.418,2.024,NA,NA,NA,NA,NA,frustrated,"frustrated, not frustrated","more frustrated, less frustrated",NA,NA,NA,NA,NA,NA,NA,NA,NA,NA,NA,NA,NA,NA,NA,NA,NA,NA,NA,NA,NA,NA,NA,NA,NA,NA,NA,NA,NA,NA,NA,NA,NA,NA,NA,NA,NA,NA,0,2,2,1,1,NA,NA,NA,NA,NA
SUPAMT41237,3LOTDFNYADYYO1AUEM8K01OO132FWN,B25CCDC4-6B1C-4A87-A2C6-CF35076978EB,2023-09-28_12h41.19.267,WP_VExplicitOC_HL,2022.2.5,Win32,8,NA,NA,NA,NA,NA,NA,NA,NA,NA,NA,NA,NA,NA,NA,NA,NA,NA,NA,NA,NA,NA,NA,NA,NA,NA,NA,NA,NA,NA,NA,NA,NA,NA,NA,NA,NA,NA,NA,NA,NA,NA,NA,NA,NA,NA,NA,NA,NA,NA,NA,NA,NA,NA,NA,5,0,5,0,1
SUPAMT41237,3LOTDFNYADYYO1AUEM8K01OO132FWN,B25CCDC4-6B1C-4A87-A2C6-CF35076978EB,2023-09-28_12h41.19.267,WP_VExplicitOC_HL,2022.2.5,Win32,8,71.09375,4.594,2.03,NA,NA,NA,NA,NA,bored,"bored, not bored","more bored, less bored",NA,NA,NA,NA,NA,NA,NA,NA,NA,NA,NA,NA,NA,NA,NA,NA,NA,NA,NA,NA,NA,NA,NA,NA,NA,NA,NA,NA,NA,NA,NA,NA,NA,NA,NA,NA,NA,NA,0,0,0,2,1,NA,NA,NA,NA,NA
SUPAMT41237,3LOTDFNYADYYO1AUEM8K01OO132FWN,B25CCDC4-6B1C-4A87-A2C6-CF35076978EB,2023-09-28_12h41.19.267,WP_VExplicitOC_HL,2022.2.5,Win32,8,80.98958333,4.037,2.074,NA,NA,NA,NA,NA,happy,"unhappy, happy","less happy, more happy",NA,NA,NA,NA,NA,NA,NA,NA,NA,NA,NA,NA,NA,NA,NA,NA,NA,NA,NA,NA,NA,NA,NA,NA,NA,NA,NA,NA,NA,NA,NA,NA,NA,NA,NA,NA,NA,NA,0,1,1,0,1,NA,NA,NA,NA,NA
SUPAMT41237,3LOTDFNYADYYO1AUEM8K01OO132FWN,B25CCDC4-6B1C-4A87-A2C6-CF35076978EB,2023-09-28_12h41.19.267,WP_VExplicitOC_HL,2022.2.5,Win32,8,57.55208333,3.778,2.06,NA,NA,NA,NA,NA,frustrated,"frustrated, not frustrated","more frustrated, less frustrated",NA,NA,NA,NA,NA,NA,NA,NA,NA,NA,NA,NA,NA,NA,NA,NA,NA,NA,NA,NA,NA,NA,NA,NA,NA,NA,NA,NA,NA,NA,NA,NA,NA,NA,NA,NA,NA,NA,0,2,2,1,1,NA,NA,NA,NA,NA
SUPAMT41237,3LOTDFNYADYYO1AUEM8K01OO132FWN,B25CCDC4-6B1C-4A87-A2C6-CF35076978EB,2023-09-28_12h41.19.267,WP_VExplicitOC_HL,2022.2.5,Win32,8,NA,NA,NA,NA,NA,NA,NA,NA,NA,NA,NA,NA,NA,NA,NA,NA,NA,NA,NA,NA,NA,NA,NA,NA,NA,NA,NA,NA,NA,NA,NA,NA,NA,NA,NA,NA,NA,NA,NA,NA,NA,NA,NA,NA,NA,NA,NA,NA,NA,NA,NA,NA,NA,NA,6,0,6,0,1
SUPAMT41237,3LOTDFNYADYYO1AUEM8K01OO132FWN,B25CCDC4-6B1C-4A87-A2C6-CF35076978EB,2023-09-28_12h41.19.267,WP_VExplicitOC_HL,2022.2.5,Win32,8,NA,NA,2.09,NA,NA,NA,NA,NA,happy,"unhappy, happy","less happy, more happy",NA,NA,NA,NA,NA,NA,NA,NA,NA,NA,NA,NA,NA,NA,NA,NA,NA,NA,NA,NA,NA,NA,NA,NA,NA,NA,NA,NA,NA,NA,NA,NA,NA,NA,NA,NA,NA,NA,0,0,0,0,1,NA,NA,NA,NA,NA
SUPAMT41237,3LOTDFNYADYYO1AUEM8K01OO132FWN,B25CCDC4-6B1C-4A87-A2C6-CF35076978EB,2023-09-28_12h41.19.267,WP_VExplicitOC_HL,2022.2.5,Win32,8,3.385416667,2.508,2.007,NA,NA,NA,NA,NA,frustrated,"frustrated, not frustrated","more frustrated, less frustrated",NA,NA,NA,NA,NA,NA,NA,NA,NA,NA,NA,NA,NA,NA,NA,NA,NA,NA,NA,NA,NA,NA,NA,NA,NA,NA,NA,NA,NA,NA,NA,NA,NA,NA,NA,NA,NA,NA,0,1,1,1,1,NA,NA,NA,NA,NA
SUPAMT41237,3LOTDFNYADYYO1AUEM8K01OO132FWN,B25CCDC4-6B1C-4A87-A2C6-CF35076978EB,2023-09-28_12h41.19.267,WP_VExplicitOC_HL,2022.2.5,Win32,8,76.30208333,6.292,2.032,NA,NA,NA,NA,NA,bored,"bored, not bored","more bored, less bored",NA,NA,NA,NA,NA,NA,NA,NA,NA,NA,NA,NA,NA,NA,NA,NA,NA,NA,NA,NA,NA,NA,NA,NA,NA,NA,NA,NA,NA,NA,NA,NA,NA,NA,NA,NA,NA,NA,0,2,2,2,1,NA,NA,NA,NA,NA
SUPAMT41237,3LOTDFNYADYYO1AUEM8K01OO132FWN,B25CCDC4-6B1C-4A87-A2C6-CF35076978EB,2023-09-28_12h41.19.267,WP_VExplicitOC_HL,2022.2.5,Win32,8,NA,NA,NA,NA,NA,NA,NA,NA,NA,NA,NA,NA,NA,NA,NA,NA,NA,NA,NA,NA,NA,NA,NA,NA,NA,NA,NA,NA,NA,NA,NA,NA,NA,NA,NA,NA,NA,NA,NA,NA,NA,NA,NA,NA,NA,NA,NA,NA,NA,NA,NA,NA,NA,NA,7,0,7,0,1
SUPAMT41237,3LOTDFNYADYYO1AUEM8K01OO132FWN,B25CCDC4-6B1C-4A87-A2C6-CF35076978EB,2023-09-28_12h41.19.267,WP_VExplicitOC_HL,2022.2.5,Win32,8,NA,NA,2.096,NA,NA,NA,NA,NA,bored,"bored, not bored","more bored, less bored",NA,NA,NA,NA,NA,NA,NA,NA,NA,NA,NA,NA,NA,NA,NA,NA,NA,NA,NA,NA,NA,NA,NA,NA,NA,NA,NA,NA,NA,NA,NA,NA,NA,NA,NA,NA,NA,NA,0,0,0,2,1,NA,NA,NA,NA,NA
SUPAMT41237,3LOTDFNYADYYO1AUEM8K01OO132FWN,B25CCDC4-6B1C-4A87-A2C6-CF35076978EB,2023-09-28_12h41.19.267,WP_VExplicitOC_HL,2022.2.5,Win32,8,86.45833333,4.776,2.123,NA,NA,NA,NA,NA,happy,"unhappy, happy","less happy, more happy",NA,NA,NA,NA,NA,NA,NA,NA,NA,NA,NA,NA,NA,NA,NA,NA,NA,NA,NA,NA,NA,NA,NA,NA,NA,NA,NA,NA,NA,NA,NA,NA,NA,NA,NA,NA,NA,NA,0,1,1,0,1,NA,NA,NA,NA,NA
SUPAMT41237,3LOTDFNYADYYO1AUEM8K01OO132FWN,B25CCDC4-6B1C-4A87-A2C6-CF35076978EB,2023-09-28_12h41.19.267,WP_VExplicitOC_HL,2022.2.5,Win32,8,62.23958333,4.525,2.056,NA,NA,NA,NA,NA,frustrated,"frustrated, not frustrated","more frustrated, less frustrated",NA,NA,NA,NA,NA,NA,NA,NA,NA,NA,NA,NA,NA,NA,NA,NA,NA,NA,NA,NA,NA,NA,NA,NA,NA,NA,NA,NA,NA,NA,NA,NA,NA,NA,NA,NA,NA,NA,0,2,2,1,1,NA,NA,NA,NA,NA
SUPAMT41237,3LOTDFNYADYYO1AUEM8K01OO132FWN,B25CCDC4-6B1C-4A87-A2C6-CF35076978EB,2023-09-28_12h41.19.267,WP_VExplicitOC_HL,2022.2.5,Win32,8,NA,NA,NA,NA,NA,NA,NA,NA,NA,NA,NA,NA,NA,NA,NA,NA,NA,NA,NA,NA,NA,NA,NA,NA,NA,NA,NA,NA,NA,NA,NA,NA,NA,NA,NA,NA,NA,NA,NA,NA,NA,NA,NA,NA,NA,NA,NA,NA,NA,NA,NA,NA,NA,NA,8,0,8,0,1
SUPAMT41237,3LOTDFNYADYYO1AUEM8K01OO132FWN,B25CCDC4-6B1C-4A87-A2C6-CF35076978EB,2023-09-28_12h41.19.267,WP_VExplicitOC_HL,2022.2.5,Win32,8,51.82291667,4.63,2.141,NA,NA,NA,NA,NA,happy,"unhappy, happy","less happy, more happy",NA,NA,NA,NA,NA,NA,NA,NA,NA,NA,NA,NA,NA,NA,NA,NA,NA,NA,NA,NA,NA,NA,NA,NA,NA,NA,NA,NA,NA,NA,NA,NA,NA,NA,NA,NA,NA,NA,0,0,0,0,1,NA,NA,NA,NA,NA
SUPAMT41237,3LOTDFNYADYYO1AUEM8K01OO132FWN,B25CCDC4-6B1C-4A87-A2C6-CF35076978EB,2023-09-28_12h41.19.267,WP_VExplicitOC_HL,2022.2.5,Win32,8,69.53125,5.56,2.083,NA,NA,NA,NA,NA,bored,"bored, not bored","more bored, less bored",NA,NA,NA,NA,NA,NA,NA,NA,NA,NA,NA,NA,NA,NA,NA,NA,NA,NA,NA,NA,NA,NA,NA,NA,NA,NA,NA,NA,NA,NA,NA,NA,NA,NA,NA,NA,NA,NA,0,1,1,2,1,NA,NA,NA,NA,NA
SUPAMT41237,3LOTDFNYADYYO1AUEM8K01OO132FWN,B25CCDC4-6B1C-4A87-A2C6-CF35076978EB,2023-09-28_12h41.19.267,WP_VExplicitOC_HL,2022.2.5,Win32,8,60.41666667,4.33,2.154,NA,NA,NA,NA,NA,frustrated,"frustrated, not frustrated","more frustrated, less frustrated",NA,NA,NA,NA,NA,NA,NA,NA,NA,NA,NA,NA,NA,NA,NA,NA,NA,NA,NA,NA,NA,NA,NA,NA,NA,NA,NA,NA,NA,NA,NA,NA,NA,NA,NA,NA,NA,NA,0,2,2,1,1,NA,NA,NA,NA,NA
SUPAMT41237,3LOTDFNYADYYO1AUEM8K01OO132FWN,B25CCDC4-6B1C-4A87-A2C6-CF35076978EB,2023-09-28_12h41.19.267,WP_VExplicitOC_HL,2022.2.5,Win32,8,NA,NA,NA,NA,NA,NA,NA,NA,NA,NA,NA,NA,NA,NA,NA,NA,NA,NA,NA,NA,NA,NA,NA,NA,NA,NA,NA,NA,NA,NA,NA,NA,NA,NA,NA,NA,NA,NA,NA,NA,NA,NA,NA,NA,NA,NA,NA,NA,NA,NA,NA,NA,NA,NA,9,0,9,0,1
SUPAMT41237,3LOTDFNYADYYO1AUEM8K01OO132FWN,B25CCDC4-6B1C-4A87-A2C6-CF35076978EB,2023-09-28_12h41.19.267,WP_VExplicitOC_HL,2022.2.5,Win32,8,74.21875,4.405,2.04,NA,NA,NA,NA,NA,frustrated,"frustrated, not frustrated","more frustrated, less frustrated",NA,NA,NA,NA,NA,NA,NA,NA,NA,NA,NA,NA,NA,NA,NA,NA,NA,NA,NA,NA,NA,NA,NA,NA,NA,NA,NA,NA,NA,NA,NA,NA,NA,NA,NA,NA,NA,NA,0,0,0,1,1,NA,NA,NA,NA,NA
SUPAMT41237,3LOTDFNYADYYO1AUEM8K01OO132FWN,B25CCDC4-6B1C-4A87-A2C6-CF35076978EB,2023-09-28_12h41.19.267,WP_VExplicitOC_HL,2022.2.5,Win32,8,93.75,5.411,2.092,NA,NA,NA,NA,NA,happy,"unhappy, happy","less happy, more happy",NA,NA,NA,NA,NA,NA,NA,NA,NA,NA,NA,NA,NA,NA,NA,NA,NA,NA,NA,NA,NA,NA,NA,NA,NA,NA,NA,NA,NA,NA,NA,NA,NA,NA,NA,NA,NA,NA,0,1,1,0,1,NA,NA,NA,NA,NA
SUPAMT41237,3LOTDFNYADYYO1AUEM8K01OO132FWN,B25CCDC4-6B1C-4A87-A2C6-CF35076978EB,2023-09-28_12h41.19.267,WP_VExplicitOC_HL,2022.2.5,Win32,8,61.19791667,4.368,2.071,NA,NA,NA,NA,NA,bored,"bored, not bored","more bored, less bored",NA,NA,NA,NA,NA,NA,NA,NA,NA,NA,NA,NA,NA,NA,NA,NA,NA,NA,NA,NA,NA,NA,NA,NA,NA,NA,NA,NA,NA,NA,NA,NA,NA,NA,NA,NA,NA,NA,0,2,2,2,1,NA,NA,NA,NA,NA
SUPAMT41237,3LOTDFNYADYYO1AUEM8K01OO132FWN,B25CCDC4-6B1C-4A87-A2C6-CF35076978EB,2023-09-28_12h41.19.267,WP_VExplicitOC_HL,2022.2.5,Win32,8,NA,NA,NA,NA,NA,NA,NA,NA,NA,NA,NA,NA,NA,NA,NA,NA,NA,NA,NA,NA,NA,NA,NA,NA,NA,NA,NA,NA,NA,NA,NA,NA,NA,NA,NA,NA,NA,NA,NA,NA,NA,NA,NA,NA,NA,NA,NA,NA,NA,NA,NA,NA,NA,NA,10,0,10,0,1
SUPAMT41237,3LOTDFNYADYYO1AUEM8K01OO132FWN,B25CCDC4-6B1C-4A87-A2C6-CF35076978EB,2023-09-28_12h41.19.267,WP_VExplicitOC_HL,2022.2.5,Win32,8,86.45833333,5.409,2.02,NA,NA,NA,NA,NA,frustrated,"frustrated, not frustrated","more frustrated, less frustrated",NA,NA,NA,NA,NA,NA,NA,NA,NA,NA,NA,NA,NA,NA,NA,NA,NA,NA,NA,NA,NA,NA,NA,NA,NA,NA,NA,NA,NA,NA,NA,NA,NA,NA,NA,NA,NA,NA,0,0,0,1,1,NA,NA,NA,NA,NA
SUPAMT41237,3LOTDFNYADYYO1AUEM8K01OO132FWN,B25CCDC4-6B1C-4A87-A2C6-CF35076978EB,2023-09-28_12h41.19.267,WP_VExplicitOC_HL,2022.2.5,Win32,8,NA,NA,2.144,NA,NA,NA,NA,NA,happy,"unhappy, happy","less happy, more happy",NA,NA,NA,NA,NA,NA,NA,NA,NA,NA,NA,NA,NA,NA,NA,NA,NA,NA,NA,NA,NA,NA,NA,NA,NA,NA,NA,NA,NA,NA,NA,NA,NA,NA,NA,NA,NA,NA,0,1,1,0,1,NA,NA,NA,NA,NA
SUPAMT41237,3LOTDFNYADYYO1AUEM8K01OO132FWN,B25CCDC4-6B1C-4A87-A2C6-CF35076978EB,2023-09-28_12h41.19.267,WP_VExplicitOC_HL,2022.2.5,Win32,8,75,6.426,2.107,NA,NA,NA,NA,NA,bored,"bored, not bored","more bored, less bored",NA,NA,NA,NA,NA,NA,NA,NA,NA,NA,NA,NA,NA,NA,NA,NA,NA,NA,NA,NA,NA,NA,NA,NA,NA,NA,NA,NA,NA,NA,NA,NA,NA,NA,NA,NA,NA,NA,0,2,2,2,1,NA,NA,NA,NA,NA
SUPAMT41237,3LOTDFNYADYYO1AUEM8K01OO132FWN,B25CCDC4-6B1C-4A87-A2C6-CF35076978EB,2023-09-28_12h41.19.267,WP_VExplicitOC_HL,2022.2.5,Win32,8,NA,NA,NA,NA,NA,NA,NA,NA,NA,NA,NA,NA,NA,NA,NA,NA,NA,NA,NA,NA,NA,NA,NA,NA,NA,NA,NA,NA,NA,NA,NA,NA,NA,NA,NA,NA,NA,NA,NA,NA,NA,NA,NA,NA,NA,NA,NA,NA,NA,NA,NA,NA,NA,NA,11,0,11,0,1
SUPAMT41237,3LOTDFNYADYYO1AUEM8K01OO132FWN,B25CCDC4-6B1C-4A87-A2C6-CF35076978EB,2023-09-28_12h41.19.267,WP_VExplicitOC_HL,2022.2.5,Win32,8,61.71875,7.532,2.08,NA,NA,NA,NA,NA,bored,"bored, not bored","more bored, less bored",NA,NA,NA,NA,NA,NA,NA,NA,NA,NA,NA,NA,NA,NA,NA,NA,NA,NA,NA,NA,NA,NA,NA,NA,NA,NA,NA,NA,NA,NA,NA,NA,NA,NA,NA,NA,NA,NA,0,0,0,2,1,NA,NA,NA,NA,NA
SUPAMT41237,3LOTDFNYADYYO1AUEM8K01OO132FWN,B25CCDC4-6B1C-4A87-A2C6-CF35076978EB,2023-09-28_12h41.19.267,WP_VExplicitOC_HL,2022.2.5,Win32,8,64.32291667,6.837,2.114,NA,NA,NA,NA,NA,happy,"unhappy, happy","less happy, more happy",NA,NA,NA,NA,NA,NA,NA,NA,NA,NA,NA,NA,NA,NA,NA,NA,NA,NA,NA,NA,NA,NA,NA,NA,NA,NA,NA,NA,NA,NA,NA,NA,NA,NA,NA,NA,NA,NA,0,1,1,0,1,NA,NA,NA,NA,NA
SUPAMT41237,3LOTDFNYADYYO1AUEM8K01OO132FWN,B25CCDC4-6B1C-4A87-A2C6-CF35076978EB,2023-09-28_12h41.19.267,WP_VExplicitOC_HL,2022.2.5,Win32,8,81.51041667,6.992,2.075,NA,NA,NA,NA,NA,frustrated,"frustrated, not frustrated","more frustrated, less frustrated",NA,NA,NA,NA,NA,NA,NA,NA,NA,NA,NA,NA,NA,NA,NA,NA,NA,NA,NA,NA,NA,NA,NA,NA,NA,NA,NA,NA,NA,NA,NA,NA,NA,NA,NA,NA,NA,NA,0,2,2,1,1,NA,NA,NA,NA,NA
SUPAMT41237,3LOTDFNYADYYO1AUEM8K01OO132FWN,B25CCDC4-6B1C-4A87-A2C6-CF35076978EB,2023-09-28_12h41.19.267,WP_VExplicitOC_HL,2022.2.5,Win32,8,NA,NA,NA,NA,NA,NA,NA,NA,NA,NA,NA,NA,NA,NA,NA,NA,NA,NA,NA,NA,NA,NA,NA,NA,NA,NA,NA,NA,NA,NA,NA,NA,NA,NA,NA,NA,NA,NA,NA,NA,NA,NA,NA,NA,NA,NA,NA,NA,NA,NA,NA,NA,NA,NA,12,0,12,0,1
SUPAMT41237,3LOTDFNYADYYO1AUEM8K01OO132FWN,B25CCDC4-6B1C-4A87-A2C6-CF35076978EB,2023-09-28_12h41.19.267,WP_VExplicitOC_HL,2022.2.5,Win32,8,90.10416667,5.344,2.022,NA,NA,NA,NA,NA,happy,"unhappy, happy","less happy, more happy",NA,NA,NA,NA,NA,NA,NA,NA,NA,NA,NA,NA,NA,NA,NA,NA,NA,NA,NA,NA,NA,NA,NA,NA,NA,NA,NA,NA,NA,NA,NA,NA,NA,NA,NA,NA,NA,NA,0,0,0,0,1,NA,NA,NA,NA,NA
SUPAMT41237,3LOTDFNYADYYO1AUEM8K01OO132FWN,B25CCDC4-6B1C-4A87-A2C6-CF35076978EB,2023-09-28_12h41.19.267,WP_VExplicitOC_HL,2022.2.5,Win32,8,NA,NA,2.123,NA,NA,NA,NA,NA,frustrated,"frustrated, not frustrated","more frustrated, less frustrated",NA,NA,NA,NA,NA,NA,NA,NA,NA,NA,NA,NA,NA,NA,NA,NA,NA,NA,NA,NA,NA,NA,NA,NA,NA,NA,NA,NA,NA,NA,NA,NA,NA,NA,NA,NA,NA,NA,0,1,1,1,1,NA,NA,NA,NA,NA
SUPAMT41237,3LOTDFNYADYYO1AUEM8K01OO132FWN,B25CCDC4-6B1C-4A87-A2C6-CF35076978EB,2023-09-28_12h41.19.267,WP_VExplicitOC_HL,2022.2.5,Win32,8,76.5625,5.548,2.054,NA,NA,NA,NA,NA,bored,"bored, not bored","more bored, less bored",NA,NA,NA,NA,NA,NA,NA,NA,NA,NA,NA,NA,NA,NA,NA,NA,NA,NA,NA,NA,NA,NA,NA,NA,NA,NA,NA,NA,NA,NA,NA,NA,NA,NA,NA,NA,NA,NA,0,2,2,2,1,NA,NA,NA,NA,NA
SUPAMT41237,3LOTDFNYADYYO1AUEM8K01OO132FWN,B25CCDC4-6B1C-4A87-A2C6-CF35076978EB,2023-09-28_12h41.19.267,WP_VExplicitOC_HL,2022.2.5,Win32,8,NA,NA,NA,NA,NA,NA,NA,NA,NA,NA,NA,NA,NA,NA,NA,NA,NA,NA,NA,NA,NA,NA,NA,NA,NA,NA,NA,NA,NA,NA,NA,NA,NA,NA,NA,NA,NA,NA,NA,NA,NA,NA,NA,NA,NA,NA,NA,NA,NA,NA,NA,NA,NA,NA,13,0,13,0,1
SUPAMT41237,3LOTDFNYADYYO1AUEM8K01OO132FWN,B25CCDC4-6B1C-4A87-A2C6-CF35076978EB,2023-09-28_12h41.19.267,WP_VExplicitOC_HL,2022.2.5,Win32,8,73.4375,5.041,2.047,NA,NA,NA,NA,NA,happy,"unhappy, happy","less happy, more happy",NA,NA,NA,NA,NA,NA,NA,NA,NA,NA,NA,NA,NA,NA,NA,NA,NA,NA,NA,NA,NA,NA,NA,NA,NA,NA,NA,NA,NA,NA,NA,NA,NA,NA,NA,NA,NA,NA,0,0,0,0,1,NA,NA,NA,NA,NA
SUPAMT41237,3LOTDFNYADYYO1AUEM8K01OO132FWN,B25CCDC4-6B1C-4A87-A2C6-CF35076978EB,2023-09-28_12h41.19.267,WP_VExplicitOC_HL,2022.2.5,Win32,8,69.01041667,6.59,2.079,NA,NA,NA,NA,NA,bored,"bored, not bored","more bored, less bored",NA,NA,NA,NA,NA,NA,NA,NA,NA,NA,NA,NA,NA,NA,NA,NA,NA,NA,NA,NA,NA,NA,NA,NA,NA,NA,NA,NA,NA,NA,NA,NA,NA,NA,NA,NA,NA,NA,0,1,1,2,1,NA,NA,NA,NA,NA
SUPAMT41237,3LOTDFNYADYYO1AUEM8K01OO132FWN,B25CCDC4-6B1C-4A87-A2C6-CF35076978EB,2023-09-28_12h41.19.267,WP_VExplicitOC_HL,2022.2.5,Win32,8,70.57291667,5.908,2.102,NA,NA,NA,NA,NA,frustrated,"frustrated, not frustrated","more frustrated, less frustrated",NA,NA,NA,NA,NA,NA,NA,NA,NA,NA,NA,NA,NA,NA,NA,NA,NA,NA,NA,NA,NA,NA,NA,NA,NA,NA,NA,NA,NA,NA,NA,NA,NA,NA,NA,NA,NA,NA,0,2,2,1,1,NA,NA,NA,NA,NA
SUPAMT41237,3LOTDFNYADYYO1AUEM8K01OO132FWN,B25CCDC4-6B1C-4A87-A2C6-CF35076978EB,2023-09-28_12h41.19.267,WP_VExplicitOC_HL,2022.2.5,Win32,8,NA,NA,NA,NA,NA,NA,NA,NA,NA,NA,NA,NA,NA,NA,NA,NA,NA,NA,NA,NA,NA,NA,NA,NA,NA,NA,NA,NA,NA,NA,NA,NA,NA,NA,NA,NA,NA,NA,NA,NA,NA,NA,NA,NA,NA,NA,NA,NA,NA,NA,NA,NA,NA,NA,14,0,14,0,1
SUPAMT41237,3LOTDFNYADYYO1AUEM8K01OO132FWN,B25CCDC4-6B1C-4A87-A2C6-CF35076978EB,2023-09-28_12h41.19.267,WP_VExplicitOC_HL,2022.2.5,Win32,8,NA,NA,NA,NA,NA,NA,NA,NA,NA,NA,NA,NA,NA,NA,NA,NA,NA,NA,NA,NA,NA,NA,NA,NA,NA,NA,NA,NA,NA,NA,NA,NA,NA,NA,NA,NA,NA,NA,NA,NA,NA,NA,NA,NA,NA,NA,NA,NA,NA,NA,NA,NA,NA,NA,NA,NA,NA,NA,NA
