participant,session,completion,date,expName,psychopyVersion,OS,frameRate,rating_all.response,rating_all.rt,rating_all.tStart,rndRat1.thisRepN,rndRat1.thisTrialN,rndRat1.thisN,rndRat1.thisIndex,rndRat1.ran,Emo,Labs,Labs2,rating_alt.response,rating_alt.rt,AltC.thisRepN,AltC.thisTrialN,AltC.thisN,AltC.thisIndex,AltC.ran,alt_choices,pic_choices,BottomAlt_Choice,rndRat2.thisRepN,rndRat2.thisTrialN,rndRat2.thisN,rndRat2.thisIndex,rndRat2.ran,rndRat3.thisRepN,rndRat3.thisTrialN,rndRat3.thisN,rndRat3.thisIndex,rndRat3.ran,trials_FC_L.thisRepN,trials_FC_L.thisTrialN,trials_FC_L.thisN,trials_FC_L.thisIndex,trials_FC_L.ran,rating_alt_2.response,rating_alt_2.rt,AltC2.thisRepN,AltC2.thisTrialN,AltC2.thisN,AltC2.thisIndex,AltC2.ran,TopAlt_Choice,rndRat4.thisRepN,rndRat4.thisTrialN,rndRat4.thisN,rndRat4.thisIndex,rndRat4.ran,rndRat5.thisRepN,rndRat5.thisTrialN,rndRat5.thisN,rndRat5.thisIndex,rndRat5.ran,trials_FC_H.thisRepN,trials_FC_H.thisTrialN,trials_FC_H.thisN,trials_FC_H.thisIndex,trials_FC_H.ran
SUPAMT97669,3L4D84MIL5RWWD112DD5EW6TE7TJHM,4C7F6232-6DF5-4A42-BE81-E8CE96EB4F52,2023-09-26_05h38.01.477,WP_VExplicitOC_LH,2022.2.5,Win32,16.7759902,NA,NA,NA,NA,NA,NA,NA,NA,NA,NA,NA,NA,NA,NA,NA,NA,NA,NA,NA,NA,NA,NA,NA,NA,NA,NA,NA,NA,NA,NA,NA,NA,NA,NA,NA,NA,NA,NA,NA,NA,NA,NA,NA,NA,NA,NA,NA,NA,NA,NA,NA,NA,NA,NA,NA,NA,NA,NA,NA
SUPAMT97669,3L4D84MIL5RWWD112DD5EW6TE7TJHM,4C7F6232-6DF5-4A42-BE81-E8CE96EB4F52,2023-09-26_05h38.01.477,WP_VExplicitOC_LH,2022.2.5,Win32,16.7759902,NA,NA,NA,NA,NA,NA,NA,NA,NA,NA,NA,NA,NA,NA,NA,NA,NA,NA,NA,NA,NA,NA,NA,NA,NA,NA,NA,NA,NA,NA,NA,NA,NA,NA,NA,NA,NA,NA,NA,NA,NA,NA,NA,NA,NA,NA,NA,NA,NA,NA,NA,NA,NA,NA,NA,NA,NA,NA,NA
SUPAMT97669,3L4D84MIL5RWWD112DD5EW6TE7TJHM,4C7F6232-6DF5-4A42-BE81-E8CE96EB4F52,2023-09-26_05h38.01.477,WP_VExplicitOC_LH,2022.2.5,Win32,16.7759902,NA,NA,NA,NA,NA,NA,NA,NA,NA,NA,NA,NA,NA,NA,NA,NA,NA,NA,NA,NA,NA,NA,NA,NA,NA,NA,NA,NA,NA,NA,NA,NA,NA,NA,NA,NA,NA,NA,NA,NA,NA,NA,NA,NA,NA,NA,NA,NA,NA,NA,NA,NA,NA,NA,NA,NA,NA,NA,NA
SUPAMT97669,3L4D84MIL5RWWD112DD5EW6TE7TJHM,4C7F6232-6DF5-4A42-BE81-E8CE96EB4F52,2023-09-26_05h38.01.477,WP_VExplicitOC_LH,2022.2.5,Win32,16.7759902,44,4.6044,2.0577,0,0,0,0,1,happy,"unhappy, happy","less happy, more happy",NA,NA,NA,NA,NA,NA,NA,NA,NA,NA,NA,NA,NA,NA,NA,NA,NA,NA,NA,NA,NA,NA,NA,NA,NA,NA,NA,NA,NA,NA,NA,NA,NA,NA,NA,NA,NA,NA,NA,NA,NA,NA,NA,NA,NA,NA,NA,NA
SUPAMT97669,3L4D84MIL5RWWD112DD5EW6TE7TJHM,4C7F6232-6DF5-4A42-BE81-E8CE96EB4F52,2023-09-26_05h38.01.477,WP_VExplicitOC_LH,2022.2.5,Win32,16.7759902,62,3.6288,2.0336,0,1,1,1,1,frustrated,"frustrated, not frustrated","more frustrated, less frustrated",NA,NA,NA,NA,NA,NA,NA,NA,NA,NA,NA,NA,NA,NA,NA,NA,NA,NA,NA,NA,NA,NA,NA,NA,NA,NA,NA,NA,NA,NA,NA,NA,NA,NA,NA,NA,NA,NA,NA,NA,NA,NA,NA,NA,NA,NA,NA,NA
SUPAMT97669,3L4D84MIL5RWWD112DD5EW6TE7TJHM,4C7F6232-6DF5-4A42-BE81-E8CE96EB4F52,2023-09-26_05h38.01.477,WP_VExplicitOC_LH,2022.2.5,Win32,16.7759902,46,3.9761,2.0016,0,2,2,2,1,bored,"bored, not bored","more bored, less bored",NA,NA,NA,NA,NA,NA,NA,NA,NA,NA,NA,NA,NA,NA,NA,NA,NA,NA,NA,NA,NA,NA,NA,NA,NA,NA,NA,NA,NA,NA,NA,NA,NA,NA,NA,NA,NA,NA,NA,NA,NA,NA,NA,NA,NA,NA,NA,NA
SUPAMT97669,3L4D84MIL5RWWD112DD5EW6TE7TJHM,4C7F6232-6DF5-4A42-BE81-E8CE96EB4F52,2023-09-26_05h38.01.477,WP_VExplicitOC_LH,2022.2.5,Win32,16.7759902,NA,NA,NA,NA,NA,NA,NA,NA,NA,NA,NA,NA,NA,NA,NA,NA,NA,NA,NA,NA,NA,NA,NA,NA,NA,NA,NA,NA,NA,NA,NA,NA,NA,NA,NA,NA,NA,NA,NA,NA,NA,NA,NA,NA,NA,NA,NA,NA,NA,NA,NA,NA,NA,NA,NA,NA,NA,NA,NA
SUPAMT97669,3L4D84MIL5RWWD112DD5EW6TE7TJHM,4C7F6232-6DF5-4A42-BE81-E8CE96EB4F52,2023-09-26_05h38.01.477,WP_VExplicitOC_LH,2022.2.5,Win32,16.7759902,NA,NA,NA,NA,NA,NA,NA,NA,NA,NA,NA,NA,NA,NA,NA,NA,NA,NA,NA,NA,NA,NA,NA,NA,NA,NA,NA,NA,NA,NA,NA,NA,NA,NA,NA,NA,NA,NA,NA,NA,NA,NA,NA,NA,NA,NA,NA,NA,NA,NA,NA,NA,NA,NA,NA,NA,NA,NA,NA
SUPAMT97669,3L4D84MIL5RWWD112DD5EW6TE7TJHM,4C7F6232-6DF5-4A42-BE81-E8CE96EB4F52,2023-09-26_05h38.01.477,WP_VExplicitOC_LH,2022.2.5,Win32,16.7759902,NA,NA,NA,NA,NA,NA,NA,NA,NA,NA,NA,NA,NA,NA,NA,NA,NA,NA,NA,NA,NA,NA,NA,NA,NA,NA,NA,NA,NA,NA,NA,NA,NA,NA,NA,NA,NA,NA,NA,NA,NA,NA,NA,NA,NA,NA,NA,NA,NA,NA,NA,NA,NA,NA,NA,NA,NA,NA,NA
SUPAMT97669,3L4D84MIL5RWWD112DD5EW6TE7TJHM,4C7F6232-6DF5-4A42-BE81-E8CE96EB4F52,2023-09-26_05h38.01.477,WP_VExplicitOC_LH,2022.2.5,Win32,16.7759902,NA,NA,NA,NA,NA,NA,NA,NA,NA,NA,NA,NA,NA,NA,NA,NA,NA,NA,NA,NA,NA,NA,NA,NA,NA,NA,NA,NA,NA,NA,NA,NA,NA,NA,NA,NA,NA,NA,NA,NA,NA,NA,NA,NA,NA,NA,NA,NA,NA,NA,NA,NA,NA,NA,NA,NA,NA,NA,NA
SUPAMT97669,3L4D84MIL5RWWD112DD5EW6TE7TJHM,4C7F6232-6DF5-4A42-BE81-E8CE96EB4F52,2023-09-26_05h38.01.477,WP_VExplicitOC_LH,2022.2.5,Win32,16.7759902,NA,NA,NA,NA,NA,NA,NA,NA,NA,NA,NA,100,3.1901,0,0,0,0,1,rest (looking at a fixed cross),001.png,NA,NA,NA,NA,NA,NA,NA,NA,NA,NA,NA,NA,NA,NA,NA,NA,NA,NA,NA,NA,NA,NA,NA,NA,NA,NA,NA,NA,NA,NA,NA,NA,NA,NA,NA,NA,NA,NA,NA
SUPAMT97669,3L4D84MIL5RWWD112DD5EW6TE7TJHM,4C7F6232-6DF5-4A42-BE81-E8CE96EB4F52,2023-09-26_05h38.01.477,WP_VExplicitOC_LH,2022.2.5,Win32,16.7759902,NA,NA,NA,NA,NA,NA,NA,NA,NA,NA,NA,100,2.2372,0,1,1,1,1,stand up,002.png,NA,NA,NA,NA,NA,NA,NA,NA,NA,NA,NA,NA,NA,NA,NA,NA,NA,NA,NA,NA,NA,NA,NA,NA,NA,NA,NA,NA,NA,NA,NA,NA,NA,NA,NA,NA,NA,NA,NA
SUPAMT97669,3L4D84MIL5RWWD112DD5EW6TE7TJHM,4C7F6232-6DF5-4A42-BE81-E8CE96EB4F52,2023-09-26_05h38.01.477,WP_VExplicitOC_LH,2022.2.5,Win32,16.7759902,NA,NA,NA,NA,NA,NA,NA,NA,NA,NA,NA,100,1.7499,0,2,2,2,1,stretch,003.png,NA,NA,NA,NA,NA,NA,NA,NA,NA,NA,NA,NA,NA,NA,NA,NA,NA,NA,NA,NA,NA,NA,NA,NA,NA,NA,NA,NA,NA,NA,NA,NA,NA,NA,NA,NA,NA,NA,NA
SUPAMT97669,3L4D84MIL5RWWD112DD5EW6TE7TJHM,4C7F6232-6DF5-4A42-BE81-E8CE96EB4F52,2023-09-26_05h38.01.477,WP_VExplicitOC_LH,2022.2.5,Win32,16.7759902,NA,NA,NA,NA,NA,NA,NA,NA,NA,NA,NA,100,1.5607,0,3,3,3,1,make a drink,004.png,NA,NA,NA,NA,NA,NA,NA,NA,NA,NA,NA,NA,NA,NA,NA,NA,NA,NA,NA,NA,NA,NA,NA,NA,NA,NA,NA,NA,NA,NA,NA,NA,NA,NA,NA,NA,NA,NA,NA
SUPAMT97669,3L4D84MIL5RWWD112DD5EW6TE7TJHM,4C7F6232-6DF5-4A42-BE81-E8CE96EB4F52,2023-09-26_05h38.01.477,WP_VExplicitOC_LH,2022.2.5,Win32,16.7759902,NA,NA,NA,NA,NA,NA,NA,NA,NA,NA,NA,100,1.5787,0,4,4,4,1,scroll social media,005.png,NA,NA,NA,NA,NA,NA,NA,NA,NA,NA,NA,NA,NA,NA,NA,NA,NA,NA,NA,NA,NA,NA,NA,NA,NA,NA,NA,NA,NA,NA,NA,NA,NA,NA,NA,NA,NA,NA,NA
SUPAMT97669,3L4D84MIL5RWWD112DD5EW6TE7TJHM,4C7F6232-6DF5-4A42-BE81-E8CE96EB4F52,2023-09-26_05h38.01.477,WP_VExplicitOC_LH,2022.2.5,Win32,16.7759902,NA,NA,NA,NA,NA,NA,NA,NA,NA,NA,NA,100,1.5435,0,5,5,5,1,listen to music,006.png,NA,NA,NA,NA,NA,NA,NA,NA,NA,NA,NA,NA,NA,NA,NA,NA,NA,NA,NA,NA,NA,NA,NA,NA,NA,NA,NA,NA,NA,NA,NA,NA,NA,NA,NA,NA,NA,NA,NA
SUPAMT97669,3L4D84MIL5RWWD112DD5EW6TE7TJHM,4C7F6232-6DF5-4A42-BE81-E8CE96EB4F52,2023-09-26_05h38.01.477,WP_VExplicitOC_LH,2022.2.5,Win32,16.7759902,NA,NA,NA,NA,NA,NA,NA,NA,NA,NA,NA,100,1.7157,0,6,6,6,1,daydream,007.png,NA,NA,NA,NA,NA,NA,NA,NA,NA,NA,NA,NA,NA,NA,NA,NA,NA,NA,NA,NA,NA,NA,NA,NA,NA,NA,NA,NA,NA,NA,NA,NA,NA,NA,NA,NA,NA,NA,NA
SUPAMT97669,3L4D84MIL5RWWD112DD5EW6TE7TJHM,4C7F6232-6DF5-4A42-BE81-E8CE96EB4F52,2023-09-26_05h38.01.477,WP_VExplicitOC_LH,2022.2.5,Win32,16.7759902,NA,NA,NA,NA,NA,NA,NA,NA,NA,NA,NA,100,1.5013,0,7,7,7,1,watch a short animation,008.png,NA,NA,NA,NA,NA,NA,NA,NA,NA,NA,NA,NA,NA,NA,NA,NA,NA,NA,NA,NA,NA,NA,NA,NA,NA,NA,NA,NA,NA,NA,NA,NA,NA,NA,NA,NA,NA,NA,NA
SUPAMT97669,3L4D84MIL5RWWD112DD5EW6TE7TJHM,4C7F6232-6DF5-4A42-BE81-E8CE96EB4F52,2023-09-26_05h38.01.477,WP_VExplicitOC_LH,2022.2.5,Win32,16.7759902,NA,NA,NA,NA,NA,NA,NA,NA,NA,NA,NA,100,1.5291,0,8,8,8,1,read a novel,009.png,NA,NA,NA,NA,NA,NA,NA,NA,NA,NA,NA,NA,NA,NA,NA,NA,NA,NA,NA,NA,NA,NA,NA,NA,NA,NA,NA,NA,NA,NA,NA,NA,NA,NA,NA,NA,NA,NA,NA
SUPAMT97669,3L4D84MIL5RWWD112DD5EW6TE7TJHM,4C7F6232-6DF5-4A42-BE81-E8CE96EB4F52,2023-09-26_05h38.01.477,WP_VExplicitOC_LH,2022.2.5,Win32,16.7759902,NA,NA,NA,NA,NA,NA,NA,NA,NA,NA,NA,100,1.6647,0,9,9,9,1,read the news,010.png,NA,NA,NA,NA,NA,NA,NA,NA,NA,NA,NA,NA,NA,NA,NA,NA,NA,NA,NA,NA,NA,NA,NA,NA,NA,NA,NA,NA,NA,NA,NA,NA,NA,NA,NA,NA,NA,NA,NA
SUPAMT97669,3L4D84MIL5RWWD112DD5EW6TE7TJHM,4C7F6232-6DF5-4A42-BE81-E8CE96EB4F52,2023-09-26_05h38.01.477,WP_VExplicitOC_LH,2022.2.5,Win32,16.7759902,NA,NA,NA,NA,NA,NA,NA,NA,NA,NA,NA,NA,NA,NA,NA,NA,NA,NA,NA,NA,NA,NA,NA,NA,NA,NA,NA,NA,NA,NA,NA,NA,NA,NA,NA,NA,NA,NA,NA,NA,NA,NA,NA,NA,NA,NA,NA,NA,NA,NA,NA,NA,NA,NA,NA,NA,NA,NA,NA
SUPAMT97669,3L4D84MIL5RWWD112DD5EW6TE7TJHM,4C7F6232-6DF5-4A42-BE81-E8CE96EB4F52,2023-09-26_05h38.01.477,WP_VExplicitOC_LH,2022.2.5,Win32,16.7759902,NA,NA,NA,NA,NA,NA,NA,NA,NA,NA,NA,NA,NA,NA,NA,NA,NA,NA,NA,NA,stand up,NA,NA,NA,NA,NA,NA,NA,NA,NA,NA,NA,NA,NA,NA,NA,NA,NA,NA,NA,NA,NA,NA,NA,NA,NA,NA,NA,NA,NA,NA,NA,NA,NA,NA,NA,NA,NA,NA
SUPAMT97669,3L4D84MIL5RWWD112DD5EW6TE7TJHM,4C7F6232-6DF5-4A42-BE81-E8CE96EB4F52,2023-09-26_05h38.01.477,WP_VExplicitOC_LH,2022.2.5,Win32,16.7759902,100,3.8031,2.0115,NA,NA,NA,NA,NA,bored,"bored, not bored","more bored, less bored",NA,NA,NA,NA,NA,NA,NA,NA,NA,NA,0,0,0,2,1,NA,NA,NA,NA,NA,NA,NA,NA,NA,NA,NA,NA,NA,NA,NA,NA,NA,NA,NA,NA,NA,NA,NA,NA,NA,NA,NA,NA,NA,NA,NA,NA,NA
SUPAMT97669,3L4D84MIL5RWWD112DD5EW6TE7TJHM,4C7F6232-6DF5-4A42-BE81-E8CE96EB4F52,2023-09-26_05h38.01.477,WP_VExplicitOC_LH,2022.2.5,Win32,16.7759902,100,3.6926,2.0832,NA,NA,NA,NA,NA,happy,"unhappy, happy","less happy, more happy",NA,NA,NA,NA,NA,NA,NA,NA,NA,NA,0,1,1,0,1,NA,NA,NA,NA,NA,NA,NA,NA,NA,NA,NA,NA,NA,NA,NA,NA,NA,NA,NA,NA,NA,NA,NA,NA,NA,NA,NA,NA,NA,NA,NA,NA,NA
SUPAMT97669,3L4D84MIL5RWWD112DD5EW6TE7TJHM,4C7F6232-6DF5-4A42-BE81-E8CE96EB4F52,2023-09-26_05h38.01.477,WP_VExplicitOC_LH,2022.2.5,Win32,16.7759902,100,3.3277,2.0005,NA,NA,NA,NA,NA,frustrated,"frustrated, not frustrated","more frustrated, less frustrated",NA,NA,NA,NA,NA,NA,NA,NA,NA,NA,0,2,2,1,1,NA,NA,NA,NA,NA,NA,NA,NA,NA,NA,NA,NA,NA,NA,NA,NA,NA,NA,NA,NA,NA,NA,NA,NA,NA,NA,NA,NA,NA,NA,NA,NA,NA
SUPAMT97669,3L4D84MIL5RWWD112DD5EW6TE7TJHM,4C7F6232-6DF5-4A42-BE81-E8CE96EB4F52,2023-09-26_05h38.01.477,WP_VExplicitOC_LH,2022.2.5,Win32,16.7759902,NA,NA,NA,NA,NA,NA,NA,NA,NA,NA,NA,NA,NA,NA,NA,NA,NA,NA,NA,NA,NA,NA,NA,NA,NA,NA,NA,NA,NA,NA,NA,NA,NA,NA,NA,NA,NA,NA,NA,NA,NA,NA,NA,NA,NA,NA,NA,NA,NA,NA,NA,NA,NA,NA,NA,NA,NA,NA,NA
SUPAMT97669,3L4D84MIL5RWWD112DD5EW6TE7TJHM,4C7F6232-6DF5-4A42-BE81-E8CE96EB4F52,2023-09-26_05h38.01.477,WP_VExplicitOC_LH,2022.2.5,Win32,16.7759902,NA,NA,NA,NA,NA,NA,NA,NA,NA,NA,NA,NA,NA,NA,NA,NA,NA,NA,NA,NA,NA,NA,NA,NA,NA,NA,NA,NA,NA,NA,NA,NA,NA,NA,NA,NA,NA,NA,NA,NA,NA,NA,NA,NA,NA,NA,NA,NA,NA,NA,NA,NA,NA,NA,NA,NA,NA,NA,NA
SUPAMT97669,3L4D84MIL5RWWD112DD5EW6TE7TJHM,4C7F6232-6DF5-4A42-BE81-E8CE96EB4F52,2023-09-26_05h38.01.477,WP_VExplicitOC_LH,2022.2.5,Win32,16.7759902,100,4.1055,2.0415,NA,NA,NA,NA,NA,bored,"bored, not bored","more bored, less bored",NA,NA,NA,NA,NA,NA,NA,NA,NA,NA,NA,NA,NA,NA,NA,0,0,0,2,1,NA,NA,NA,NA,NA,NA,NA,NA,NA,NA,NA,NA,NA,NA,NA,NA,NA,NA,NA,NA,NA,NA,NA,NA,NA,NA,NA,NA
SUPAMT97669,3L4D84MIL5RWWD112DD5EW6TE7TJHM,4C7F6232-6DF5-4A42-BE81-E8CE96EB4F52,2023-09-26_05h38.01.477,WP_VExplicitOC_LH,2022.2.5,Win32,16.7759902,100,3.9422,2.0094,NA,NA,NA,NA,NA,happy,"unhappy, happy","less happy, more happy",NA,NA,NA,NA,NA,NA,NA,NA,NA,NA,NA,NA,NA,NA,NA,0,1,1,0,1,NA,NA,NA,NA,NA,NA,NA,NA,NA,NA,NA,NA,NA,NA,NA,NA,NA,NA,NA,NA,NA,NA,NA,NA,NA,NA,NA,NA
SUPAMT97669,3L4D84MIL5RWWD112DD5EW6TE7TJHM,4C7F6232-6DF5-4A42-BE81-E8CE96EB4F52,2023-09-26_05h38.01.477,WP_VExplicitOC_LH,2022.2.5,Win32,16.7759902,100,3.7206,2.0106,NA,NA,NA,NA,NA,frustrated,"frustrated, not frustrated","more frustrated, less frustrated",NA,NA,NA,NA,NA,NA,NA,NA,NA,NA,NA,NA,NA,NA,NA,0,2,2,1,1,NA,NA,NA,NA,NA,NA,NA,NA,NA,NA,NA,NA,NA,NA,NA,NA,NA,NA,NA,NA,NA,NA,NA,NA,NA,NA,NA,NA
SUPAMT97669,3L4D84MIL5RWWD112DD5EW6TE7TJHM,4C7F6232-6DF5-4A42-BE81-E8CE96EB4F52,2023-09-26_05h38.01.477,WP_VExplicitOC_LH,2022.2.5,Win32,16.7759902,NA,NA,NA,NA,NA,NA,NA,NA,NA,NA,NA,NA,NA,NA,NA,NA,NA,NA,NA,NA,NA,NA,NA,NA,NA,NA,NA,NA,NA,NA,NA,0,0,0,0,1,NA,NA,NA,NA,NA,NA,NA,NA,NA,NA,NA,NA,NA,NA,NA,NA,NA,NA,NA,NA,NA,NA,NA
SUPAMT97669,3L4D84MIL5RWWD112DD5EW6TE7TJHM,4C7F6232-6DF5-4A42-BE81-E8CE96EB4F52,2023-09-26_05h38.01.477,WP_VExplicitOC_LH,2022.2.5,Win32,16.7759902,100,4.693,2.0122,NA,NA,NA,NA,NA,bored,"bored, not bored","more bored, less bored",NA,NA,NA,NA,NA,NA,NA,NA,NA,NA,NA,NA,NA,NA,NA,0,0,0,2,1,NA,NA,NA,NA,NA,NA,NA,NA,NA,NA,NA,NA,NA,NA,NA,NA,NA,NA,NA,NA,NA,NA,NA,NA,NA,NA,NA,NA
SUPAMT97669,3L4D84MIL5RWWD112DD5EW6TE7TJHM,4C7F6232-6DF5-4A42-BE81-E8CE96EB4F52,2023-09-26_05h38.01.477,WP_VExplicitOC_LH,2022.2.5,Win32,16.7759902,100,4.1883,2.0306,NA,NA,NA,NA,NA,happy,"unhappy, happy","less happy, more happy",NA,NA,NA,NA,NA,NA,NA,NA,NA,NA,NA,NA,NA,NA,NA,0,1,1,0,1,NA,NA,NA,NA,NA,NA,NA,NA,NA,NA,NA,NA,NA,NA,NA,NA,NA,NA,NA,NA,NA,NA,NA,NA,NA,NA,NA,NA
SUPAMT97669,3L4D84MIL5RWWD112DD5EW6TE7TJHM,4C7F6232-6DF5-4A42-BE81-E8CE96EB4F52,2023-09-26_05h38.01.477,WP_VExplicitOC_LH,2022.2.5,Win32,16.7759902,100,4.6015,2.0678,NA,NA,NA,NA,NA,frustrated,"frustrated, not frustrated","more frustrated, less frustrated",NA,NA,NA,NA,NA,NA,NA,NA,NA,NA,NA,NA,NA,NA,NA,0,2,2,1,1,NA,NA,NA,NA,NA,NA,NA,NA,NA,NA,NA,NA,NA,NA,NA,NA,NA,NA,NA,NA,NA,NA,NA,NA,NA,NA,NA,NA
SUPAMT97669,3L4D84MIL5RWWD112DD5EW6TE7TJHM,4C7F6232-6DF5-4A42-BE81-E8CE96EB4F52,2023-09-26_05h38.01.477,WP_VExplicitOC_LH,2022.2.5,Win32,16.7759902,NA,NA,NA,NA,NA,NA,NA,NA,NA,NA,NA,NA,NA,NA,NA,NA,NA,NA,NA,NA,NA,NA,NA,NA,NA,NA,NA,NA,NA,NA,NA,1,0,1,0,1,NA,NA,NA,NA,NA,NA,NA,NA,NA,NA,NA,NA,NA,NA,NA,NA,NA,NA,NA,NA,NA,NA,NA
SUPAMT97669,3L4D84MIL5RWWD112DD5EW6TE7TJHM,4C7F6232-6DF5-4A42-BE81-E8CE96EB4F52,2023-09-26_05h38.01.477,WP_VExplicitOC_LH,2022.2.5,Win32,16.7759902,100,5.3484,2.1033,NA,NA,NA,NA,NA,frustrated,"frustrated, not frustrated","more frustrated, less frustrated",NA,NA,NA,NA,NA,NA,NA,NA,NA,NA,NA,NA,NA,NA,NA,0,0,0,1,1,NA,NA,NA,NA,NA,NA,NA,NA,NA,NA,NA,NA,NA,NA,NA,NA,NA,NA,NA,NA,NA,NA,NA,NA,NA,NA,NA,NA
SUPAMT97669,3L4D84MIL5RWWD112DD5EW6TE7TJHM,4C7F6232-6DF5-4A42-BE81-E8CE96EB4F52,2023-09-26_05h38.01.477,WP_VExplicitOC_LH,2022.2.5,Win32,16.7759902,100,3.665,2.0486,NA,NA,NA,NA,NA,bored,"bored, not bored","more bored, less bored",NA,NA,NA,NA,NA,NA,NA,NA,NA,NA,NA,NA,NA,NA,NA,0,1,1,2,1,NA,NA,NA,NA,NA,NA,NA,NA,NA,NA,NA,NA,NA,NA,NA,NA,NA,NA,NA,NA,NA,NA,NA,NA,NA,NA,NA,NA
SUPAMT97669,3L4D84MIL5RWWD112DD5EW6TE7TJHM,4C7F6232-6DF5-4A42-BE81-E8CE96EB4F52,2023-09-26_05h38.01.477,WP_VExplicitOC_LH,2022.2.5,Win32,16.7759902,100,3.534,2.0949,NA,NA,NA,NA,NA,happy,"unhappy, happy","less happy, more happy",NA,NA,NA,NA,NA,NA,NA,NA,NA,NA,NA,NA,NA,NA,NA,0,2,2,0,1,NA,NA,NA,NA,NA,NA,NA,NA,NA,NA,NA,NA,NA,NA,NA,NA,NA,NA,NA,NA,NA,NA,NA,NA,NA,NA,NA,NA
SUPAMT97669,3L4D84MIL5RWWD112DD5EW6TE7TJHM,4C7F6232-6DF5-4A42-BE81-E8CE96EB4F52,2023-09-26_05h38.01.477,WP_VExplicitOC_LH,2022.2.5,Win32,16.7759902,NA,NA,NA,NA,NA,NA,NA,NA,NA,NA,NA,NA,NA,NA,NA,NA,NA,NA,NA,NA,NA,NA,NA,NA,NA,NA,NA,NA,NA,NA,NA,2,0,2,0,1,NA,NA,NA,NA,NA,NA,NA,NA,NA,NA,NA,NA,NA,NA,NA,NA,NA,NA,NA,NA,NA,NA,NA
SUPAMT97669,3L4D84MIL5RWWD112DD5EW6TE7TJHM,4C7F6232-6DF5-4A42-BE81-E8CE96EB4F52,2023-09-26_05h38.01.477,WP_VExplicitOC_LH,2022.2.5,Win32,16.7759902,98,6.2302,2.0537,NA,NA,NA,NA,NA,happy,"unhappy, happy","less happy, more happy",NA,NA,NA,NA,NA,NA,NA,NA,NA,NA,NA,NA,NA,NA,NA,0,0,0,0,1,NA,NA,NA,NA,NA,NA,NA,NA,NA,NA,NA,NA,NA,NA,NA,NA,NA,NA,NA,NA,NA,NA,NA,NA,NA,NA,NA,NA
SUPAMT97669,3L4D84MIL5RWWD112DD5EW6TE7TJHM,4C7F6232-6DF5-4A42-BE81-E8CE96EB4F52,2023-09-26_05h38.01.477,WP_VExplicitOC_LH,2022.2.5,Win32,16.7759902,100,4.244,2.0072,NA,NA,NA,NA,NA,bored,"bored, not bored","more bored, less bored",NA,NA,NA,NA,NA,NA,NA,NA,NA,NA,NA,NA,NA,NA,NA,0,1,1,2,1,NA,NA,NA,NA,NA,NA,NA,NA,NA,NA,NA,NA,NA,NA,NA,NA,NA,NA,NA,NA,NA,NA,NA,NA,NA,NA,NA,NA
SUPAMT97669,3L4D84MIL5RWWD112DD5EW6TE7TJHM,4C7F6232-6DF5-4A42-BE81-E8CE96EB4F52,2023-09-26_05h38.01.477,WP_VExplicitOC_LH,2022.2.5,Win32,16.7759902,100,4.1238,2.023,NA,NA,NA,NA,NA,frustrated,"frustrated, not frustrated","more frustrated, less frustrated",NA,NA,NA,NA,NA,NA,NA,NA,NA,NA,NA,NA,NA,NA,NA,0,2,2,1,1,NA,NA,NA,NA,NA,NA,NA,NA,NA,NA,NA,NA,NA,NA,NA,NA,NA,NA,NA,NA,NA,NA,NA,NA,NA,NA,NA,NA
SUPAMT97669,3L4D84MIL5RWWD112DD5EW6TE7TJHM,4C7F6232-6DF5-4A42-BE81-E8CE96EB4F52,2023-09-26_05h38.01.477,WP_VExplicitOC_LH,2022.2.5,Win32,16.7759902,NA,NA,NA,NA,NA,NA,NA,NA,NA,NA,NA,NA,NA,NA,NA,NA,NA,NA,NA,NA,NA,NA,NA,NA,NA,NA,NA,NA,NA,NA,NA,3,0,3,0,1,NA,NA,NA,NA,NA,NA,NA,NA,NA,NA,NA,NA,NA,NA,NA,NA,NA,NA,NA,NA,NA,NA,NA
SUPAMT97669,3L4D84MIL5RWWD112DD5EW6TE7TJHM,4C7F6232-6DF5-4A42-BE81-E8CE96EB4F52,2023-09-26_05h38.01.477,WP_VExplicitOC_LH,2022.2.5,Win32,16.7759902,100,4.0324,2.0251,NA,NA,NA,NA,NA,bored,"bored, not bored","more bored, less bored",NA,NA,NA,NA,NA,NA,NA,NA,NA,NA,NA,NA,NA,NA,NA,0,0,0,2,1,NA,NA,NA,NA,NA,NA,NA,NA,NA,NA,NA,NA,NA,NA,NA,NA,NA,NA,NA,NA,NA,NA,NA,NA,NA,NA,NA,NA
SUPAMT97669,3L4D84MIL5RWWD112DD5EW6TE7TJHM,4C7F6232-6DF5-4A42-BE81-E8CE96EB4F52,2023-09-26_05h38.01.477,WP_VExplicitOC_LH,2022.2.5,Win32,16.7759902,100,4.0152,2.0778,NA,NA,NA,NA,NA,frustrated,"frustrated, not frustrated","more frustrated, less frustrated",NA,NA,NA,NA,NA,NA,NA,NA,NA,NA,NA,NA,NA,NA,NA,0,1,1,1,1,NA,NA,NA,NA,NA,NA,NA,NA,NA,NA,NA,NA,NA,NA,NA,NA,NA,NA,NA,NA,NA,NA,NA,NA,NA,NA,NA,NA
SUPAMT97669,3L4D84MIL5RWWD112DD5EW6TE7TJHM,4C7F6232-6DF5-4A42-BE81-E8CE96EB4F52,2023-09-26_05h38.01.477,WP_VExplicitOC_LH,2022.2.5,Win32,16.7759902,100,5.0684,2.0115,NA,NA,NA,NA,NA,happy,"unhappy, happy","less happy, more happy",NA,NA,NA,NA,NA,NA,NA,NA,NA,NA,NA,NA,NA,NA,NA,0,2,2,0,1,NA,NA,NA,NA,NA,NA,NA,NA,NA,NA,NA,NA,NA,NA,NA,NA,NA,NA,NA,NA,NA,NA,NA,NA,NA,NA,NA,NA
SUPAMT97669,3L4D84MIL5RWWD112DD5EW6TE7TJHM,4C7F6232-6DF5-4A42-BE81-E8CE96EB4F52,2023-09-26_05h38.01.477,WP_VExplicitOC_LH,2022.2.5,Win32,16.7759902,NA,NA,NA,NA,NA,NA,NA,NA,NA,NA,NA,NA,NA,NA,NA,NA,NA,NA,NA,NA,NA,NA,NA,NA,NA,NA,NA,NA,NA,NA,NA,4,0,4,0,1,NA,NA,NA,NA,NA,NA,NA,NA,NA,NA,NA,NA,NA,NA,NA,NA,NA,NA,NA,NA,NA,NA,NA
SUPAMT97669,3L4D84MIL5RWWD112DD5EW6TE7TJHM,4C7F6232-6DF5-4A42-BE81-E8CE96EB4F52,2023-09-26_05h38.01.477,WP_VExplicitOC_LH,2022.2.5,Win32,16.7759902,100,4.2504,2.0513,NA,NA,NA,NA,NA,bored,"bored, not bored","more bored, less bored",NA,NA,NA,NA,NA,NA,NA,NA,NA,NA,NA,NA,NA,NA,NA,0,0,0,2,1,NA,NA,NA,NA,NA,NA,NA,NA,NA,NA,NA,NA,NA,NA,NA,NA,NA,NA,NA,NA,NA,NA,NA,NA,NA,NA,NA,NA
SUPAMT97669,3L4D84MIL5RWWD112DD5EW6TE7TJHM,4C7F6232-6DF5-4A42-BE81-E8CE96EB4F52,2023-09-26_05h38.01.477,WP_VExplicitOC_LH,2022.2.5,Win32,16.7759902,100,3.9997,2.0113,NA,NA,NA,NA,NA,happy,"unhappy, happy","less happy, more happy",NA,NA,NA,NA,NA,NA,NA,NA,NA,NA,NA,NA,NA,NA,NA,0,1,1,0,1,NA,NA,NA,NA,NA,NA,NA,NA,NA,NA,NA,NA,NA,NA,NA,NA,NA,NA,NA,NA,NA,NA,NA,NA,NA,NA,NA,NA
SUPAMT97669,3L4D84MIL5RWWD112DD5EW6TE7TJHM,4C7F6232-6DF5-4A42-BE81-E8CE96EB4F52,2023-09-26_05h38.01.477,WP_VExplicitOC_LH,2022.2.5,Win32,16.7759902,100,3.8143,2.0726,NA,NA,NA,NA,NA,frustrated,"frustrated, not frustrated","more frustrated, less frustrated",NA,NA,NA,NA,NA,NA,NA,NA,NA,NA,NA,NA,NA,NA,NA,0,2,2,1,1,NA,NA,NA,NA,NA,NA,NA,NA,NA,NA,NA,NA,NA,NA,NA,NA,NA,NA,NA,NA,NA,NA,NA,NA,NA,NA,NA,NA
SUPAMT97669,3L4D84MIL5RWWD112DD5EW6TE7TJHM,4C7F6232-6DF5-4A42-BE81-E8CE96EB4F52,2023-09-26_05h38.01.477,WP_VExplicitOC_LH,2022.2.5,Win32,16.7759902,NA,NA,NA,NA,NA,NA,NA,NA,NA,NA,NA,NA,NA,NA,NA,NA,NA,NA,NA,NA,NA,NA,NA,NA,NA,NA,NA,NA,NA,NA,NA,5,0,5,0,1,NA,NA,NA,NA,NA,NA,NA,NA,NA,NA,NA,NA,NA,NA,NA,NA,NA,NA,NA,NA,NA,NA,NA
SUPAMT97669,3L4D84MIL5RWWD112DD5EW6TE7TJHM,4C7F6232-6DF5-4A42-BE81-E8CE96EB4F52,2023-09-26_05h38.01.477,WP_VExplicitOC_LH,2022.2.5,Win32,16.7759902,NA,NA,2.0144,NA,NA,NA,NA,NA,happy,"unhappy, happy","less happy, more happy",NA,NA,NA,NA,NA,NA,NA,NA,NA,NA,NA,NA,NA,NA,NA,0,0,0,0,1,NA,NA,NA,NA,NA,NA,NA,NA,NA,NA,NA,NA,NA,NA,NA,NA,NA,NA,NA,NA,NA,NA,NA,NA,NA,NA,NA,NA
SUPAMT97669,3L4D84MIL5RWWD112DD5EW6TE7TJHM,4C7F6232-6DF5-4A42-BE81-E8CE96EB4F52,2023-09-26_05h38.01.477,WP_VExplicitOC_LH,2022.2.5,Win32,16.7759902,100,5.0748,2.0113,NA,NA,NA,NA,NA,frustrated,"frustrated, not frustrated","more frustrated, less frustrated",NA,NA,NA,NA,NA,NA,NA,NA,NA,NA,NA,NA,NA,NA,NA,0,1,1,1,1,NA,NA,NA,NA,NA,NA,NA,NA,NA,NA,NA,NA,NA,NA,NA,NA,NA,NA,NA,NA,NA,NA,NA,NA,NA,NA,NA,NA
SUPAMT97669,3L4D84MIL5RWWD112DD5EW6TE7TJHM,4C7F6232-6DF5-4A42-BE81-E8CE96EB4F52,2023-09-26_05h38.01.477,WP_VExplicitOC_LH,2022.2.5,Win32,16.7759902,100,4.1874,2.0366,NA,NA,NA,NA,NA,bored,"bored, not bored","more bored, less bored",NA,NA,NA,NA,NA,NA,NA,NA,NA,NA,NA,NA,NA,NA,NA,0,2,2,2,1,NA,NA,NA,NA,NA,NA,NA,NA,NA,NA,NA,NA,NA,NA,NA,NA,NA,NA,NA,NA,NA,NA,NA,NA,NA,NA,NA,NA
SUPAMT97669,3L4D84MIL5RWWD112DD5EW6TE7TJHM,4C7F6232-6DF5-4A42-BE81-E8CE96EB4F52,2023-09-26_05h38.01.477,WP_VExplicitOC_LH,2022.2.5,Win32,16.7759902,NA,NA,NA,NA,NA,NA,NA,NA,NA,NA,NA,NA,NA,NA,NA,NA,NA,NA,NA,NA,NA,NA,NA,NA,NA,NA,NA,NA,NA,NA,NA,6,0,6,0,1,NA,NA,NA,NA,NA,NA,NA,NA,NA,NA,NA,NA,NA,NA,NA,NA,NA,NA,NA,NA,NA,NA,NA
SUPAMT97669,3L4D84MIL5RWWD112DD5EW6TE7TJHM,4C7F6232-6DF5-4A42-BE81-E8CE96EB4F52,2023-09-26_05h38.01.477,WP_VExplicitOC_LH,2022.2.5,Win32,16.7759902,100,3.9163,2.0654,NA,NA,NA,NA,NA,frustrated,"frustrated, not frustrated","more frustrated, less frustrated",NA,NA,NA,NA,NA,NA,NA,NA,NA,NA,NA,NA,NA,NA,NA,0,0,0,1,1,NA,NA,NA,NA,NA,NA,NA,NA,NA,NA,NA,NA,NA,NA,NA,NA,NA,NA,NA,NA,NA,NA,NA,NA,NA,NA,NA,NA
SUPAMT97669,3L4D84MIL5RWWD112DD5EW6TE7TJHM,4C7F6232-6DF5-4A42-BE81-E8CE96EB4F52,2023-09-26_05h38.01.477,WP_VExplicitOC_LH,2022.2.5,Win32,16.7759902,92.25,4.6246,2.0679,NA,NA,NA,NA,NA,happy,"unhappy, happy","less happy, more happy",NA,NA,NA,NA,NA,NA,NA,NA,NA,NA,NA,NA,NA,NA,NA,0,1,1,0,1,NA,NA,NA,NA,NA,NA,NA,NA,NA,NA,NA,NA,NA,NA,NA,NA,NA,NA,NA,NA,NA,NA,NA,NA,NA,NA,NA,NA
SUPAMT97669,3L4D84MIL5RWWD112DD5EW6TE7TJHM,4C7F6232-6DF5-4A42-BE81-E8CE96EB4F52,2023-09-26_05h38.01.477,WP_VExplicitOC_LH,2022.2.5,Win32,16.7759902,100,4.2936,2.0587,NA,NA,NA,NA,NA,bored,"bored, not bored","more bored, less bored",NA,NA,NA,NA,NA,NA,NA,NA,NA,NA,NA,NA,NA,NA,NA,0,2,2,2,1,NA,NA,NA,NA,NA,NA,NA,NA,NA,NA,NA,NA,NA,NA,NA,NA,NA,NA,NA,NA,NA,NA,NA,NA,NA,NA,NA,NA
SUPAMT97669,3L4D84MIL5RWWD112DD5EW6TE7TJHM,4C7F6232-6DF5-4A42-BE81-E8CE96EB4F52,2023-09-26_05h38.01.477,WP_VExplicitOC_LH,2022.2.5,Win32,16.7759902,NA,NA,NA,NA,NA,NA,NA,NA,NA,NA,NA,NA,NA,NA,NA,NA,NA,NA,NA,NA,NA,NA,NA,NA,NA,NA,NA,NA,NA,NA,NA,7,0,7,0,1,NA,NA,NA,NA,NA,NA,NA,NA,NA,NA,NA,NA,NA,NA,NA,NA,NA,NA,NA,NA,NA,NA,NA
SUPAMT97669,3L4D84MIL5RWWD112DD5EW6TE7TJHM,4C7F6232-6DF5-4A42-BE81-E8CE96EB4F52,2023-09-26_05h38.01.477,WP_VExplicitOC_LH,2022.2.5,Win32,16.7759902,100,4.0482,2.0938,NA,NA,NA,NA,NA,happy,"unhappy, happy","less happy, more happy",NA,NA,NA,NA,NA,NA,NA,NA,NA,NA,NA,NA,NA,NA,NA,0,0,0,0,1,NA,NA,NA,NA,NA,NA,NA,NA,NA,NA,NA,NA,NA,NA,NA,NA,NA,NA,NA,NA,NA,NA,NA,NA,NA,NA,NA,NA
SUPAMT97669,3L4D84MIL5RWWD112DD5EW6TE7TJHM,4C7F6232-6DF5-4A42-BE81-E8CE96EB4F52,2023-09-26_05h38.01.477,WP_VExplicitOC_LH,2022.2.5,Win32,16.7759902,NA,NA,2.0037,NA,NA,NA,NA,NA,frustrated,"frustrated, not frustrated","more frustrated, less frustrated",NA,NA,NA,NA,NA,NA,NA,NA,NA,NA,NA,NA,NA,NA,NA,0,1,1,1,1,NA,NA,NA,NA,NA,NA,NA,NA,NA,NA,NA,NA,NA,NA,NA,NA,NA,NA,NA,NA,NA,NA,NA,NA,NA,NA,NA,NA
SUPAMT97669,3L4D84MIL5RWWD112DD5EW6TE7TJHM,4C7F6232-6DF5-4A42-BE81-E8CE96EB4F52,2023-09-26_05h38.01.477,WP_VExplicitOC_LH,2022.2.5,Win32,16.7759902,100,3.8953,2.0598,NA,NA,NA,NA,NA,bored,"bored, not bored","more bored, less bored",NA,NA,NA,NA,NA,NA,NA,NA,NA,NA,NA,NA,NA,NA,NA,0,2,2,2,1,NA,NA,NA,NA,NA,NA,NA,NA,NA,NA,NA,NA,NA,NA,NA,NA,NA,NA,NA,NA,NA,NA,NA,NA,NA,NA,NA,NA
SUPAMT97669,3L4D84MIL5RWWD112DD5EW6TE7TJHM,4C7F6232-6DF5-4A42-BE81-E8CE96EB4F52,2023-09-26_05h38.01.477,WP_VExplicitOC_LH,2022.2.5,Win32,16.7759902,NA,NA,NA,NA,NA,NA,NA,NA,NA,NA,NA,NA,NA,NA,NA,NA,NA,NA,NA,NA,NA,NA,NA,NA,NA,NA,NA,NA,NA,NA,NA,8,0,8,0,1,NA,NA,NA,NA,NA,NA,NA,NA,NA,NA,NA,NA,NA,NA,NA,NA,NA,NA,NA,NA,NA,NA,NA
SUPAMT97669,3L4D84MIL5RWWD112DD5EW6TE7TJHM,4C7F6232-6DF5-4A42-BE81-E8CE96EB4F52,2023-09-26_05h38.01.477,WP_VExplicitOC_LH,2022.2.5,Win32,16.7759902,100,3.947,2.0062,NA,NA,NA,NA,NA,frustrated,"frustrated, not frustrated","more frustrated, less frustrated",NA,NA,NA,NA,NA,NA,NA,NA,NA,NA,NA,NA,NA,NA,NA,0,0,0,1,1,NA,NA,NA,NA,NA,NA,NA,NA,NA,NA,NA,NA,NA,NA,NA,NA,NA,NA,NA,NA,NA,NA,NA,NA,NA,NA,NA,NA
SUPAMT97669,3L4D84MIL5RWWD112DD5EW6TE7TJHM,4C7F6232-6DF5-4A42-BE81-E8CE96EB4F52,2023-09-26_05h38.01.477,WP_VExplicitOC_LH,2022.2.5,Win32,16.7759902,100,3.914,2.0338,NA,NA,NA,NA,NA,bored,"bored, not bored","more bored, less bored",NA,NA,NA,NA,NA,NA,NA,NA,NA,NA,NA,NA,NA,NA,NA,0,1,1,2,1,NA,NA,NA,NA,NA,NA,NA,NA,NA,NA,NA,NA,NA,NA,NA,NA,NA,NA,NA,NA,NA,NA,NA,NA,NA,NA,NA,NA
SUPAMT97669,3L4D84MIL5RWWD112DD5EW6TE7TJHM,4C7F6232-6DF5-4A42-BE81-E8CE96EB4F52,2023-09-26_05h38.01.477,WP_VExplicitOC_LH,2022.2.5,Win32,16.7759902,100,4.1527,2.0435,NA,NA,NA,NA,NA,happy,"unhappy, happy","less happy, more happy",NA,NA,NA,NA,NA,NA,NA,NA,NA,NA,NA,NA,NA,NA,NA,0,2,2,0,1,NA,NA,NA,NA,NA,NA,NA,NA,NA,NA,NA,NA,NA,NA,NA,NA,NA,NA,NA,NA,NA,NA,NA,NA,NA,NA,NA,NA
SUPAMT97669,3L4D84MIL5RWWD112DD5EW6TE7TJHM,4C7F6232-6DF5-4A42-BE81-E8CE96EB4F52,2023-09-26_05h38.01.477,WP_VExplicitOC_LH,2022.2.5,Win32,16.7759902,NA,NA,NA,NA,NA,NA,NA,NA,NA,NA,NA,NA,NA,NA,NA,NA,NA,NA,NA,NA,NA,NA,NA,NA,NA,NA,NA,NA,NA,NA,NA,9,0,9,0,1,NA,NA,NA,NA,NA,NA,NA,NA,NA,NA,NA,NA,NA,NA,NA,NA,NA,NA,NA,NA,NA,NA,NA
SUPAMT97669,3L4D84MIL5RWWD112DD5EW6TE7TJHM,4C7F6232-6DF5-4A42-BE81-E8CE96EB4F52,2023-09-26_05h38.01.477,WP_VExplicitOC_LH,2022.2.5,Win32,16.7759902,100,3.7412,2.0063,NA,NA,NA,NA,NA,bored,"bored, not bored","more bored, less bored",NA,NA,NA,NA,NA,NA,NA,NA,NA,NA,NA,NA,NA,NA,NA,0,0,0,2,1,NA,NA,NA,NA,NA,NA,NA,NA,NA,NA,NA,NA,NA,NA,NA,NA,NA,NA,NA,NA,NA,NA,NA,NA,NA,NA,NA,NA
SUPAMT97669,3L4D84MIL5RWWD112DD5EW6TE7TJHM,4C7F6232-6DF5-4A42-BE81-E8CE96EB4F52,2023-09-26_05h38.01.477,WP_VExplicitOC_LH,2022.2.5,Win32,16.7759902,100,4.2902,2.0281,NA,NA,NA,NA,NA,frustrated,"frustrated, not frustrated","more frustrated, less frustrated",NA,NA,NA,NA,NA,NA,NA,NA,NA,NA,NA,NA,NA,NA,NA,0,1,1,1,1,NA,NA,NA,NA,NA,NA,NA,NA,NA,NA,NA,NA,NA,NA,NA,NA,NA,NA,NA,NA,NA,NA,NA,NA,NA,NA,NA,NA
SUPAMT97669,3L4D84MIL5RWWD112DD5EW6TE7TJHM,4C7F6232-6DF5-4A42-BE81-E8CE96EB4F52,2023-09-26_05h38.01.477,WP_VExplicitOC_LH,2022.2.5,Win32,16.7759902,100,4.1651,2.0314,NA,NA,NA,NA,NA,happy,"unhappy, happy","less happy, more happy",NA,NA,NA,NA,NA,NA,NA,NA,NA,NA,NA,NA,NA,NA,NA,0,2,2,0,1,NA,NA,NA,NA,NA,NA,NA,NA,NA,NA,NA,NA,NA,NA,NA,NA,NA,NA,NA,NA,NA,NA,NA,NA,NA,NA,NA,NA
SUPAMT97669,3L4D84MIL5RWWD112DD5EW6TE7TJHM,4C7F6232-6DF5-4A42-BE81-E8CE96EB4F52,2023-09-26_05h38.01.477,WP_VExplicitOC_LH,2022.2.5,Win32,16.7759902,NA,NA,NA,NA,NA,NA,NA,NA,NA,NA,NA,NA,NA,NA,NA,NA,NA,NA,NA,NA,NA,NA,NA,NA,NA,NA,NA,NA,NA,NA,NA,10,0,10,0,1,NA,NA,NA,NA,NA,NA,NA,NA,NA,NA,NA,NA,NA,NA,NA,NA,NA,NA,NA,NA,NA,NA,NA
SUPAMT97669,3L4D84MIL5RWWD112DD5EW6TE7TJHM,4C7F6232-6DF5-4A42-BE81-E8CE96EB4F52,2023-09-26_05h38.01.477,WP_VExplicitOC_LH,2022.2.5,Win32,16.7759902,100,3.6325,2.0686,NA,NA,NA,NA,NA,bored,"bored, not bored","more bored, less bored",NA,NA,NA,NA,NA,NA,NA,NA,NA,NA,NA,NA,NA,NA,NA,0,0,0,2,1,NA,NA,NA,NA,NA,NA,NA,NA,NA,NA,NA,NA,NA,NA,NA,NA,NA,NA,NA,NA,NA,NA,NA,NA,NA,NA,NA,NA
SUPAMT97669,3L4D84MIL5RWWD112DD5EW6TE7TJHM,4C7F6232-6DF5-4A42-BE81-E8CE96EB4F52,2023-09-26_05h38.01.477,WP_VExplicitOC_LH,2022.2.5,Win32,16.7759902,100,3.9231,2.0798,NA,NA,NA,NA,NA,happy,"unhappy, happy","less happy, more happy",NA,NA,NA,NA,NA,NA,NA,NA,NA,NA,NA,NA,NA,NA,NA,0,1,1,0,1,NA,NA,NA,NA,NA,NA,NA,NA,NA,NA,NA,NA,NA,NA,NA,NA,NA,NA,NA,NA,NA,NA,NA,NA,NA,NA,NA,NA
SUPAMT97669,3L4D84MIL5RWWD112DD5EW6TE7TJHM,4C7F6232-6DF5-4A42-BE81-E8CE96EB4F52,2023-09-26_05h38.01.477,WP_VExplicitOC_LH,2022.2.5,Win32,16.7759902,100,3.8482,2.0035,NA,NA,NA,NA,NA,frustrated,"frustrated, not frustrated","more frustrated, less frustrated",NA,NA,NA,NA,NA,NA,NA,NA,NA,NA,NA,NA,NA,NA,NA,0,2,2,1,1,NA,NA,NA,NA,NA,NA,NA,NA,NA,NA,NA,NA,NA,NA,NA,NA,NA,NA,NA,NA,NA,NA,NA,NA,NA,NA,NA,NA
SUPAMT97669,3L4D84MIL5RWWD112DD5EW6TE7TJHM,4C7F6232-6DF5-4A42-BE81-E8CE96EB4F52,2023-09-26_05h38.01.477,WP_VExplicitOC_LH,2022.2.5,Win32,16.7759902,NA,NA,NA,NA,NA,NA,NA,NA,NA,NA,NA,NA,NA,NA,NA,NA,NA,NA,NA,NA,NA,NA,NA,NA,NA,NA,NA,NA,NA,NA,NA,11,0,11,0,1,NA,NA,NA,NA,NA,NA,NA,NA,NA,NA,NA,NA,NA,NA,NA,NA,NA,NA,NA,NA,NA,NA,NA
SUPAMT97669,3L4D84MIL5RWWD112DD5EW6TE7TJHM,4C7F6232-6DF5-4A42-BE81-E8CE96EB4F52,2023-09-26_05h38.01.477,WP_VExplicitOC_LH,2022.2.5,Win32,16.7759902,100,3.6025,2.0054,NA,NA,NA,NA,NA,happy,"unhappy, happy","less happy, more happy",NA,NA,NA,NA,NA,NA,NA,NA,NA,NA,NA,NA,NA,NA,NA,0,0,0,0,1,NA,NA,NA,NA,NA,NA,NA,NA,NA,NA,NA,NA,NA,NA,NA,NA,NA,NA,NA,NA,NA,NA,NA,NA,NA,NA,NA,NA
SUPAMT97669,3L4D84MIL5RWWD112DD5EW6TE7TJHM,4C7F6232-6DF5-4A42-BE81-E8CE96EB4F52,2023-09-26_05h38.01.477,WP_VExplicitOC_LH,2022.2.5,Win32,16.7759902,100,5.9668,2.0037,NA,NA,NA,NA,NA,frustrated,"frustrated, not frustrated","more frustrated, less frustrated",NA,NA,NA,NA,NA,NA,NA,NA,NA,NA,NA,NA,NA,NA,NA,0,1,1,1,1,NA,NA,NA,NA,NA,NA,NA,NA,NA,NA,NA,NA,NA,NA,NA,NA,NA,NA,NA,NA,NA,NA,NA,NA,NA,NA,NA,NA
SUPAMT97669,3L4D84MIL5RWWD112DD5EW6TE7TJHM,4C7F6232-6DF5-4A42-BE81-E8CE96EB4F52,2023-09-26_05h38.01.477,WP_VExplicitOC_LH,2022.2.5,Win32,16.7759902,100,5.2017,2.0665,NA,NA,NA,NA,NA,bored,"bored, not bored","more bored, less bored",NA,NA,NA,NA,NA,NA,NA,NA,NA,NA,NA,NA,NA,NA,NA,0,2,2,2,1,NA,NA,NA,NA,NA,NA,NA,NA,NA,NA,NA,NA,NA,NA,NA,NA,NA,NA,NA,NA,NA,NA,NA,NA,NA,NA,NA,NA
SUPAMT97669,3L4D84MIL5RWWD112DD5EW6TE7TJHM,4C7F6232-6DF5-4A42-BE81-E8CE96EB4F52,2023-09-26_05h38.01.477,WP_VExplicitOC_LH,2022.2.5,Win32,16.7759902,NA,NA,NA,NA,NA,NA,NA,NA,NA,NA,NA,NA,NA,NA,NA,NA,NA,NA,NA,NA,NA,NA,NA,NA,NA,NA,NA,NA,NA,NA,NA,12,0,12,0,1,NA,NA,NA,NA,NA,NA,NA,NA,NA,NA,NA,NA,NA,NA,NA,NA,NA,NA,NA,NA,NA,NA,NA
SUPAMT97669,3L4D84MIL5RWWD112DD5EW6TE7TJHM,4C7F6232-6DF5-4A42-BE81-E8CE96EB4F52,2023-09-26_05h38.01.477,WP_VExplicitOC_LH,2022.2.5,Win32,16.7759902,100,3.7317,2.0753,NA,NA,NA,NA,NA,frustrated,"frustrated, not frustrated","more frustrated, less frustrated",NA,NA,NA,NA,NA,NA,NA,NA,NA,NA,NA,NA,NA,NA,NA,0,0,0,1,1,NA,NA,NA,NA,NA,NA,NA,NA,NA,NA,NA,NA,NA,NA,NA,NA,NA,NA,NA,NA,NA,NA,NA,NA,NA,NA,NA,NA
SUPAMT97669,3L4D84MIL5RWWD112DD5EW6TE7TJHM,4C7F6232-6DF5-4A42-BE81-E8CE96EB4F52,2023-09-26_05h38.01.477,WP_VExplicitOC_LH,2022.2.5,Win32,16.7759902,100,3.7995,2.0362,NA,NA,NA,NA,NA,happy,"unhappy, happy","less happy, more happy",NA,NA,NA,NA,NA,NA,NA,NA,NA,NA,NA,NA,NA,NA,NA,0,1,1,0,1,NA,NA,NA,NA,NA,NA,NA,NA,NA,NA,NA,NA,NA,NA,NA,NA,NA,NA,NA,NA,NA,NA,NA,NA,NA,NA,NA,NA
SUPAMT97669,3L4D84MIL5RWWD112DD5EW6TE7TJHM,4C7F6232-6DF5-4A42-BE81-E8CE96EB4F52,2023-09-26_05h38.01.477,WP_VExplicitOC_LH,2022.2.5,Win32,16.7759902,100,3.9116,2.0065,NA,NA,NA,NA,NA,bored,"bored, not bored","more bored, less bored",NA,NA,NA,NA,NA,NA,NA,NA,NA,NA,NA,NA,NA,NA,NA,0,2,2,2,1,NA,NA,NA,NA,NA,NA,NA,NA,NA,NA,NA,NA,NA,NA,NA,NA,NA,NA,NA,NA,NA,NA,NA,NA,NA,NA,NA,NA
SUPAMT97669,3L4D84MIL5RWWD112DD5EW6TE7TJHM,4C7F6232-6DF5-4A42-BE81-E8CE96EB4F52,2023-09-26_05h38.01.477,WP_VExplicitOC_LH,2022.2.5,Win32,16.7759902,NA,NA,NA,NA,NA,NA,NA,NA,NA,NA,NA,NA,NA,NA,NA,NA,NA,NA,NA,NA,NA,NA,NA,NA,NA,NA,NA,NA,NA,NA,NA,13,0,13,0,1,NA,NA,NA,NA,NA,NA,NA,NA,NA,NA,NA,NA,NA,NA,NA,NA,NA,NA,NA,NA,NA,NA,NA
SUPAMT97669,3L4D84MIL5RWWD112DD5EW6TE7TJHM,4C7F6232-6DF5-4A42-BE81-E8CE96EB4F52,2023-09-26_05h38.01.477,WP_VExplicitOC_LH,2022.2.5,Win32,16.7759902,100,4.6319,2.0218,NA,NA,NA,NA,NA,happy,"unhappy, happy","less happy, more happy",NA,NA,NA,NA,NA,NA,NA,NA,NA,NA,NA,NA,NA,NA,NA,0,0,0,0,1,NA,NA,NA,NA,NA,NA,NA,NA,NA,NA,NA,NA,NA,NA,NA,NA,NA,NA,NA,NA,NA,NA,NA,NA,NA,NA,NA,NA
SUPAMT97669,3L4D84MIL5RWWD112DD5EW6TE7TJHM,4C7F6232-6DF5-4A42-BE81-E8CE96EB4F52,2023-09-26_05h38.01.477,WP_VExplicitOC_LH,2022.2.5,Win32,16.7759902,100,5.2698,2.0228,NA,NA,NA,NA,NA,frustrated,"frustrated, not frustrated","more frustrated, less frustrated",NA,NA,NA,NA,NA,NA,NA,NA,NA,NA,NA,NA,NA,NA,NA,0,1,1,1,1,NA,NA,NA,NA,NA,NA,NA,NA,NA,NA,NA,NA,NA,NA,NA,NA,NA,NA,NA,NA,NA,NA,NA,NA,NA,NA,NA,NA
SUPAMT97669,3L4D84MIL5RWWD112DD5EW6TE7TJHM,4C7F6232-6DF5-4A42-BE81-E8CE96EB4F52,2023-09-26_05h38.01.477,WP_VExplicitOC_LH,2022.2.5,Win32,16.7759902,100,4.9736,2.0373,NA,NA,NA,NA,NA,bored,"bored, not bored","more bored, less bored",NA,NA,NA,NA,NA,NA,NA,NA,NA,NA,NA,NA,NA,NA,NA,0,2,2,2,1,NA,NA,NA,NA,NA,NA,NA,NA,NA,NA,NA,NA,NA,NA,NA,NA,NA,NA,NA,NA,NA,NA,NA,NA,NA,NA,NA,NA
SUPAMT97669,3L4D84MIL5RWWD112DD5EW6TE7TJHM,4C7F6232-6DF5-4A42-BE81-E8CE96EB4F52,2023-09-26_05h38.01.477,WP_VExplicitOC_LH,2022.2.5,Win32,16.7759902,NA,NA,NA,NA,NA,NA,NA,NA,NA,NA,NA,NA,NA,NA,NA,NA,NA,NA,NA,NA,NA,NA,NA,NA,NA,NA,NA,NA,NA,NA,NA,14,0,14,0,1,NA,NA,NA,NA,NA,NA,NA,NA,NA,NA,NA,NA,NA,NA,NA,NA,NA,NA,NA,NA,NA,NA,NA
SUPAMT97669,3L4D84MIL5RWWD112DD5EW6TE7TJHM,4C7F6232-6DF5-4A42-BE81-E8CE96EB4F52,2023-09-26_05h38.01.477,WP_VExplicitOC_LH,2022.2.5,Win32,16.7759902,NA,NA,NA,NA,NA,NA,NA,NA,NA,NA,NA,NA,NA,NA,NA,NA,NA,NA,NA,NA,NA,NA,NA,NA,NA,NA,NA,NA,NA,NA,NA,NA,NA,NA,NA,NA,NA,NA,NA,NA,NA,NA,NA,NA,NA,NA,NA,NA,NA,NA,NA,NA,NA,NA,NA,NA,NA,NA,NA
SUPAMT97669,3L4D84MIL5RWWD112DD5EW6TE7TJHM,4C7F6232-6DF5-4A42-BE81-E8CE96EB4F52,2023-09-26_05h38.01.477,WP_VExplicitOC_LH,2022.2.5,Win32,16.7759902,NA,NA,NA,NA,NA,NA,NA,NA,NA,NA,NA,NA,NA,NA,NA,NA,NA,NA,NA,NA,NA,NA,NA,NA,NA,NA,NA,NA,NA,NA,NA,NA,NA,NA,NA,NA,NA,NA,NA,NA,NA,NA,NA,NA,NA,NA,NA,NA,NA,NA,NA,NA,NA,NA,NA,NA,NA,NA,NA
SUPAMT97669,3L4D84MIL5RWWD112DD5EW6TE7TJHM,4C7F6232-6DF5-4A42-BE81-E8CE96EB4F52,2023-09-26_05h38.01.477,WP_VExplicitOC_LH,2022.2.5,Win32,16.7759902,NA,NA,NA,NA,NA,NA,NA,NA,NA,NA,NA,NA,NA,NA,NA,NA,NA,NA,rest (looking at a fixed cross),001.png,NA,NA,NA,NA,NA,NA,NA,NA,NA,NA,NA,NA,NA,NA,NA,NA,100,2.994,0,0,0,0,1,NA,NA,NA,NA,NA,NA,NA,NA,NA,NA,NA,NA,NA,NA,NA,NA
SUPAMT97669,3L4D84MIL5RWWD112DD5EW6TE7TJHM,4C7F6232-6DF5-4A42-BE81-E8CE96EB4F52,2023-09-26_05h38.01.477,WP_VExplicitOC_LH,2022.2.5,Win32,16.7759902,NA,NA,NA,NA,NA,NA,NA,NA,NA,NA,NA,NA,NA,NA,NA,NA,NA,NA,stand up,002.png,NA,NA,NA,NA,NA,NA,NA,NA,NA,NA,NA,NA,NA,NA,NA,NA,100,1.7696,0,1,1,1,1,NA,NA,NA,NA,NA,NA,NA,NA,NA,NA,NA,NA,NA,NA,NA,NA
SUPAMT97669,3L4D84MIL5RWWD112DD5EW6TE7TJHM,4C7F6232-6DF5-4A42-BE81-E8CE96EB4F52,2023-09-26_05h38.01.477,WP_VExplicitOC_LH,2022.2.5,Win32,16.7759902,NA,NA,NA,NA,NA,NA,NA,NA,NA,NA,NA,NA,NA,NA,NA,NA,NA,NA,stretch,003.png,NA,NA,NA,NA,NA,NA,NA,NA,NA,NA,NA,NA,NA,NA,NA,NA,100,1.6601,0,2,2,2,1,NA,NA,NA,NA,NA,NA,NA,NA,NA,NA,NA,NA,NA,NA,NA,NA
SUPAMT97669,3L4D84MIL5RWWD112DD5EW6TE7TJHM,4C7F6232-6DF5-4A42-BE81-E8CE96EB4F52,2023-09-26_05h38.01.477,WP_VExplicitOC_LH,2022.2.5,Win32,16.7759902,NA,NA,NA,NA,NA,NA,NA,NA,NA,NA,NA,NA,NA,NA,NA,NA,NA,NA,make a drink,004.png,NA,NA,NA,NA,NA,NA,NA,NA,NA,NA,NA,NA,NA,NA,NA,NA,100,1.8055,0,3,3,3,1,NA,NA,NA,NA,NA,NA,NA,NA,NA,NA,NA,NA,NA,NA,NA,NA
SUPAMT97669,3L4D84MIL5RWWD112DD5EW6TE7TJHM,4C7F6232-6DF5-4A42-BE81-E8CE96EB4F52,2023-09-26_05h38.01.477,WP_VExplicitOC_LH,2022.2.5,Win32,16.7759902,NA,NA,NA,NA,NA,NA,NA,NA,NA,NA,NA,NA,NA,NA,NA,NA,NA,NA,scroll social media,005.png,NA,NA,NA,NA,NA,NA,NA,NA,NA,NA,NA,NA,NA,NA,NA,NA,100,1.7297,0,4,4,4,1,NA,NA,NA,NA,NA,NA,NA,NA,NA,NA,NA,NA,NA,NA,NA,NA
SUPAMT97669,3L4D84MIL5RWWD112DD5EW6TE7TJHM,4C7F6232-6DF5-4A42-BE81-E8CE96EB4F52,2023-09-26_05h38.01.477,WP_VExplicitOC_LH,2022.2.5,Win32,16.7759902,NA,NA,NA,NA,NA,NA,NA,NA,NA,NA,NA,NA,NA,NA,NA,NA,NA,NA,listen to music,006.png,NA,NA,NA,NA,NA,NA,NA,NA,NA,NA,NA,NA,NA,NA,NA,NA,100,1.7379,0,5,5,5,1,NA,NA,NA,NA,NA,NA,NA,NA,NA,NA,NA,NA,NA,NA,NA,NA
SUPAMT97669,3L4D84MIL5RWWD112DD5EW6TE7TJHM,4C7F6232-6DF5-4A42-BE81-E8CE96EB4F52,2023-09-26_05h38.01.477,WP_VExplicitOC_LH,2022.2.5,Win32,16.7759902,NA,NA,NA,NA,NA,NA,NA,NA,NA,NA,NA,NA,NA,NA,NA,NA,NA,NA,daydream,007.png,NA,NA,NA,NA,NA,NA,NA,NA,NA,NA,NA,NA,NA,NA,NA,NA,100,1.7637,0,6,6,6,1,NA,NA,NA,NA,NA,NA,NA,NA,NA,NA,NA,NA,NA,NA,NA,NA
SUPAMT97669,3L4D84MIL5RWWD112DD5EW6TE7TJHM,4C7F6232-6DF5-4A42-BE81-E8CE96EB4F52,2023-09-26_05h38.01.477,WP_VExplicitOC_LH,2022.2.5,Win32,16.7759902,NA,NA,NA,NA,NA,NA,NA,NA,NA,NA,NA,NA,NA,NA,NA,NA,NA,NA,watch a short animation,008.png,NA,NA,NA,NA,NA,NA,NA,NA,NA,NA,NA,NA,NA,NA,NA,NA,100,1.7259,0,7,7,7,1,NA,NA,NA,NA,NA,NA,NA,NA,NA,NA,NA,NA,NA,NA,NA,NA
SUPAMT97669,3L4D84MIL5RWWD112DD5EW6TE7TJHM,4C7F6232-6DF5-4A42-BE81-E8CE96EB4F52,2023-09-26_05h38.01.477,WP_VExplicitOC_LH,2022.2.5,Win32,16.7759902,NA,NA,NA,NA,NA,NA,NA,NA,NA,NA,NA,NA,NA,NA,NA,NA,NA,NA,read a novel,009.png,NA,NA,NA,NA,NA,NA,NA,NA,NA,NA,NA,NA,NA,NA,NA,NA,100,1.6691,0,8,8,8,1,NA,NA,NA,NA,NA,NA,NA,NA,NA,NA,NA,NA,NA,NA,NA,NA
SUPAMT97669,3L4D84MIL5RWWD112DD5EW6TE7TJHM,4C7F6232-6DF5-4A42-BE81-E8CE96EB4F52,2023-09-26_05h38.01.477,WP_VExplicitOC_LH,2022.2.5,Win32,16.7759902,NA,NA,NA,NA,NA,NA,NA,NA,NA,NA,NA,NA,NA,NA,NA,NA,NA,NA,read the news,010.png,NA,NA,NA,NA,NA,NA,NA,NA,NA,NA,NA,NA,NA,NA,NA,NA,100,1.6586,0,9,9,9,1,NA,NA,NA,NA,NA,NA,NA,NA,NA,NA,NA,NA,NA,NA,NA,NA
SUPAMT97669,3L4D84MIL5RWWD112DD5EW6TE7TJHM,4C7F6232-6DF5-4A42-BE81-E8CE96EB4F52,2023-09-26_05h38.01.477,WP_VExplicitOC_LH,2022.2.5,Win32,16.7759902,NA,NA,NA,NA,NA,NA,NA,NA,NA,NA,NA,NA,NA,NA,NA,NA,NA,NA,NA,NA,NA,NA,NA,NA,NA,NA,NA,NA,NA,NA,NA,NA,NA,NA,NA,NA,NA,NA,NA,NA,NA,NA,NA,stand up,NA,NA,NA,NA,NA,NA,NA,NA,NA,NA,NA,NA,NA,NA,NA
SUPAMT97669,3L4D84MIL5RWWD112DD5EW6TE7TJHM,4C7F6232-6DF5-4A42-BE81-E8CE96EB4F52,2023-09-26_05h38.01.477,WP_VExplicitOC_LH,2022.2.5,Win32,16.7759902,100,3.5462,2.078,NA,NA,NA,NA,NA,bored,"bored, not bored","more bored, less bored",NA,NA,NA,NA,NA,NA,NA,NA,NA,NA,NA,NA,NA,NA,NA,NA,NA,NA,NA,NA,NA,NA,NA,NA,NA,NA,NA,NA,NA,NA,NA,NA,NA,0,0,0,2,1,NA,NA,NA,NA,NA,NA,NA,NA,NA,NA
SUPAMT97669,3L4D84MIL5RWWD112DD5EW6TE7TJHM,4C7F6232-6DF5-4A42-BE81-E8CE96EB4F52,2023-09-26_05h38.01.477,WP_VExplicitOC_LH,2022.2.5,Win32,16.7759902,100,3.7899,2.0138,NA,NA,NA,NA,NA,frustrated,"frustrated, not frustrated","more frustrated, less frustrated",NA,NA,NA,NA,NA,NA,NA,NA,NA,NA,NA,NA,NA,NA,NA,NA,NA,NA,NA,NA,NA,NA,NA,NA,NA,NA,NA,NA,NA,NA,NA,NA,NA,0,1,1,1,1,NA,NA,NA,NA,NA,NA,NA,NA,NA,NA
SUPAMT97669,3L4D84MIL5RWWD112DD5EW6TE7TJHM,4C7F6232-6DF5-4A42-BE81-E8CE96EB4F52,2023-09-26_05h38.01.477,WP_VExplicitOC_LH,2022.2.5,Win32,16.7759902,100,4.0339,2.0646,NA,NA,NA,NA,NA,happy,"unhappy, happy","less happy, more happy",NA,NA,NA,NA,NA,NA,NA,NA,NA,NA,NA,NA,NA,NA,NA,NA,NA,NA,NA,NA,NA,NA,NA,NA,NA,NA,NA,NA,NA,NA,NA,NA,NA,0,2,2,0,1,NA,NA,NA,NA,NA,NA,NA,NA,NA,NA
SUPAMT97669,3L4D84MIL5RWWD112DD5EW6TE7TJHM,4C7F6232-6DF5-4A42-BE81-E8CE96EB4F52,2023-09-26_05h38.01.477,WP_VExplicitOC_LH,2022.2.5,Win32,16.7759902,NA,NA,NA,NA,NA,NA,NA,NA,NA,NA,NA,NA,NA,NA,NA,NA,NA,NA,NA,NA,NA,NA,NA,NA,NA,NA,NA,NA,NA,NA,NA,NA,NA,NA,NA,NA,NA,NA,NA,NA,NA,NA,NA,NA,NA,NA,NA,NA,NA,NA,NA,NA,NA,NA,NA,NA,NA,NA,NA
SUPAMT97669,3L4D84MIL5RWWD112DD5EW6TE7TJHM,4C7F6232-6DF5-4A42-BE81-E8CE96EB4F52,2023-09-26_05h38.01.477,WP_VExplicitOC_LH,2022.2.5,Win32,16.7759902,NA,NA,NA,NA,NA,NA,NA,NA,NA,NA,NA,NA,NA,NA,NA,NA,NA,NA,NA,NA,NA,NA,NA,NA,NA,NA,NA,NA,NA,NA,NA,NA,NA,NA,NA,NA,NA,NA,NA,NA,NA,NA,NA,NA,NA,NA,NA,NA,NA,NA,NA,NA,NA,NA,NA,NA,NA,NA,NA
SUPAMT97669,3L4D84MIL5RWWD112DD5EW6TE7TJHM,4C7F6232-6DF5-4A42-BE81-E8CE96EB4F52,2023-09-26_05h38.01.477,WP_VExplicitOC_LH,2022.2.5,Win32,16.7759902,100,3.7358,2.0045,NA,NA,NA,NA,NA,happy,"unhappy, happy","less happy, more happy",NA,NA,NA,NA,NA,NA,NA,NA,NA,NA,NA,NA,NA,NA,NA,NA,NA,NA,NA,NA,NA,NA,NA,NA,NA,NA,NA,NA,NA,NA,NA,NA,NA,NA,NA,NA,NA,NA,0,0,0,0,1,NA,NA,NA,NA,NA
SUPAMT97669,3L4D84MIL5RWWD112DD5EW6TE7TJHM,4C7F6232-6DF5-4A42-BE81-E8CE96EB4F52,2023-09-26_05h38.01.477,WP_VExplicitOC_LH,2022.2.5,Win32,16.7759902,100,3.8537,2.0222,NA,NA,NA,NA,NA,frustrated,"frustrated, not frustrated","more frustrated, less frustrated",NA,NA,NA,NA,NA,NA,NA,NA,NA,NA,NA,NA,NA,NA,NA,NA,NA,NA,NA,NA,NA,NA,NA,NA,NA,NA,NA,NA,NA,NA,NA,NA,NA,NA,NA,NA,NA,NA,0,1,1,1,1,NA,NA,NA,NA,NA
SUPAMT97669,3L4D84MIL5RWWD112DD5EW6TE7TJHM,4C7F6232-6DF5-4A42-BE81-E8CE96EB4F52,2023-09-26_05h38.01.477,WP_VExplicitOC_LH,2022.2.5,Win32,16.7759902,100,3.6795,2.0152,NA,NA,NA,NA,NA,bored,"bored, not bored","more bored, less bored",NA,NA,NA,NA,NA,NA,NA,NA,NA,NA,NA,NA,NA,NA,NA,NA,NA,NA,NA,NA,NA,NA,NA,NA,NA,NA,NA,NA,NA,NA,NA,NA,NA,NA,NA,NA,NA,NA,0,2,2,2,1,NA,NA,NA,NA,NA
SUPAMT97669,3L4D84MIL5RWWD112DD5EW6TE7TJHM,4C7F6232-6DF5-4A42-BE81-E8CE96EB4F52,2023-09-26_05h38.01.477,WP_VExplicitOC_LH,2022.2.5,Win32,16.7759902,NA,NA,NA,NA,NA,NA,NA,NA,NA,NA,NA,NA,NA,NA,NA,NA,NA,NA,NA,NA,NA,NA,NA,NA,NA,NA,NA,NA,NA,NA,NA,NA,NA,NA,NA,NA,NA,NA,NA,NA,NA,NA,NA,NA,NA,NA,NA,NA,NA,NA,NA,NA,NA,NA,0,0,0,0,1
SUPAMT97669,3L4D84MIL5RWWD112DD5EW6TE7TJHM,4C7F6232-6DF5-4A42-BE81-E8CE96EB4F52,2023-09-26_05h38.01.477,WP_VExplicitOC_LH,2022.2.5,Win32,16.7759902,100,3.7666,2.0383,NA,NA,NA,NA,NA,bored,"bored, not bored","more bored, less bored",NA,NA,NA,NA,NA,NA,NA,NA,NA,NA,NA,NA,NA,NA,NA,NA,NA,NA,NA,NA,NA,NA,NA,NA,NA,NA,NA,NA,NA,NA,NA,NA,NA,NA,NA,NA,NA,NA,0,0,0,2,1,NA,NA,NA,NA,NA
SUPAMT97669,3L4D84MIL5RWWD112DD5EW6TE7TJHM,4C7F6232-6DF5-4A42-BE81-E8CE96EB4F52,2023-09-26_05h38.01.477,WP_VExplicitOC_LH,2022.2.5,Win32,16.7759902,100,3.6107,2.0051,NA,NA,NA,NA,NA,happy,"unhappy, happy","less happy, more happy",NA,NA,NA,NA,NA,NA,NA,NA,NA,NA,NA,NA,NA,NA,NA,NA,NA,NA,NA,NA,NA,NA,NA,NA,NA,NA,NA,NA,NA,NA,NA,NA,NA,NA,NA,NA,NA,NA,0,1,1,0,1,NA,NA,NA,NA,NA
SUPAMT97669,3L4D84MIL5RWWD112DD5EW6TE7TJHM,4C7F6232-6DF5-4A42-BE81-E8CE96EB4F52,2023-09-26_05h38.01.477,WP_VExplicitOC_LH,2022.2.5,Win32,16.7759902,100,4.048,2.0371,NA,NA,NA,NA,NA,frustrated,"frustrated, not frustrated","more frustrated, less frustrated",NA,NA,NA,NA,NA,NA,NA,NA,NA,NA,NA,NA,NA,NA,NA,NA,NA,NA,NA,NA,NA,NA,NA,NA,NA,NA,NA,NA,NA,NA,NA,NA,NA,NA,NA,NA,NA,NA,0,2,2,1,1,NA,NA,NA,NA,NA
SUPAMT97669,3L4D84MIL5RWWD112DD5EW6TE7TJHM,4C7F6232-6DF5-4A42-BE81-E8CE96EB4F52,2023-09-26_05h38.01.477,WP_VExplicitOC_LH,2022.2.5,Win32,16.7759902,NA,NA,NA,NA,NA,NA,NA,NA,NA,NA,NA,NA,NA,NA,NA,NA,NA,NA,NA,NA,NA,NA,NA,NA,NA,NA,NA,NA,NA,NA,NA,NA,NA,NA,NA,NA,NA,NA,NA,NA,NA,NA,NA,NA,NA,NA,NA,NA,NA,NA,NA,NA,NA,NA,1,0,1,0,1
SUPAMT97669,3L4D84MIL5RWWD112DD5EW6TE7TJHM,4C7F6232-6DF5-4A42-BE81-E8CE96EB4F52,2023-09-26_05h38.01.477,WP_VExplicitOC_LH,2022.2.5,Win32,16.7759902,100,3.7049,2.076,NA,NA,NA,NA,NA,bored,"bored, not bored","more bored, less bored",NA,NA,NA,NA,NA,NA,NA,NA,NA,NA,NA,NA,NA,NA,NA,NA,NA,NA,NA,NA,NA,NA,NA,NA,NA,NA,NA,NA,NA,NA,NA,NA,NA,NA,NA,NA,NA,NA,0,0,0,2,1,NA,NA,NA,NA,NA
SUPAMT97669,3L4D84MIL5RWWD112DD5EW6TE7TJHM,4C7F6232-6DF5-4A42-BE81-E8CE96EB4F52,2023-09-26_05h38.01.477,WP_VExplicitOC_LH,2022.2.5,Win32,16.7759902,100,3.5859,2.0422,NA,NA,NA,NA,NA,frustrated,"frustrated, not frustrated","more frustrated, less frustrated",NA,NA,NA,NA,NA,NA,NA,NA,NA,NA,NA,NA,NA,NA,NA,NA,NA,NA,NA,NA,NA,NA,NA,NA,NA,NA,NA,NA,NA,NA,NA,NA,NA,NA,NA,NA,NA,NA,0,1,1,1,1,NA,NA,NA,NA,NA
SUPAMT97669,3L4D84MIL5RWWD112DD5EW6TE7TJHM,4C7F6232-6DF5-4A42-BE81-E8CE96EB4F52,2023-09-26_05h38.01.477,WP_VExplicitOC_LH,2022.2.5,Win32,16.7759902,100,4.0397,2.0223,NA,NA,NA,NA,NA,happy,"unhappy, happy","less happy, more happy",NA,NA,NA,NA,NA,NA,NA,NA,NA,NA,NA,NA,NA,NA,NA,NA,NA,NA,NA,NA,NA,NA,NA,NA,NA,NA,NA,NA,NA,NA,NA,NA,NA,NA,NA,NA,NA,NA,0,2,2,0,1,NA,NA,NA,NA,NA
SUPAMT97669,3L4D84MIL5RWWD112DD5EW6TE7TJHM,4C7F6232-6DF5-4A42-BE81-E8CE96EB4F52,2023-09-26_05h38.01.477,WP_VExplicitOC_LH,2022.2.5,Win32,16.7759902,NA,NA,NA,NA,NA,NA,NA,NA,NA,NA,NA,NA,NA,NA,NA,NA,NA,NA,NA,NA,NA,NA,NA,NA,NA,NA,NA,NA,NA,NA,NA,NA,NA,NA,NA,NA,NA,NA,NA,NA,NA,NA,NA,NA,NA,NA,NA,NA,NA,NA,NA,NA,NA,NA,2,0,2,0,1
SUPAMT97669,3L4D84MIL5RWWD112DD5EW6TE7TJHM,4C7F6232-6DF5-4A42-BE81-E8CE96EB4F52,2023-09-26_05h38.01.477,WP_VExplicitOC_LH,2022.2.5,Win32,16.7759902,100,3.6452,2.0239,NA,NA,NA,NA,NA,happy,"unhappy, happy","less happy, more happy",NA,NA,NA,NA,NA,NA,NA,NA,NA,NA,NA,NA,NA,NA,NA,NA,NA,NA,NA,NA,NA,NA,NA,NA,NA,NA,NA,NA,NA,NA,NA,NA,NA,NA,NA,NA,NA,NA,0,0,0,0,1,NA,NA,NA,NA,NA
SUPAMT97669,3L4D84MIL5RWWD112DD5EW6TE7TJHM,4C7F6232-6DF5-4A42-BE81-E8CE96EB4F52,2023-09-26_05h38.01.477,WP_VExplicitOC_LH,2022.2.5,Win32,16.7759902,100,3.6623,2.0574,NA,NA,NA,NA,NA,frustrated,"frustrated, not frustrated","more frustrated, less frustrated",NA,NA,NA,NA,NA,NA,NA,NA,NA,NA,NA,NA,NA,NA,NA,NA,NA,NA,NA,NA,NA,NA,NA,NA,NA,NA,NA,NA,NA,NA,NA,NA,NA,NA,NA,NA,NA,NA,0,1,1,1,1,NA,NA,NA,NA,NA
SUPAMT97669,3L4D84MIL5RWWD112DD5EW6TE7TJHM,4C7F6232-6DF5-4A42-BE81-E8CE96EB4F52,2023-09-26_05h38.01.477,WP_VExplicitOC_LH,2022.2.5,Win32,16.7759902,100,3.7819,2.0914,NA,NA,NA,NA,NA,bored,"bored, not bored","more bored, less bored",NA,NA,NA,NA,NA,NA,NA,NA,NA,NA,NA,NA,NA,NA,NA,NA,NA,NA,NA,NA,NA,NA,NA,NA,NA,NA,NA,NA,NA,NA,NA,NA,NA,NA,NA,NA,NA,NA,0,2,2,2,1,NA,NA,NA,NA,NA
SUPAMT97669,3L4D84MIL5RWWD112DD5EW6TE7TJHM,4C7F6232-6DF5-4A42-BE81-E8CE96EB4F52,2023-09-26_05h38.01.477,WP_VExplicitOC_LH,2022.2.5,Win32,16.7759902,NA,NA,NA,NA,NA,NA,NA,NA,NA,NA,NA,NA,NA,NA,NA,NA,NA,NA,NA,NA,NA,NA,NA,NA,NA,NA,NA,NA,NA,NA,NA,NA,NA,NA,NA,NA,NA,NA,NA,NA,NA,NA,NA,NA,NA,NA,NA,NA,NA,NA,NA,NA,NA,NA,3,0,3,0,1
SUPAMT97669,3L4D84MIL5RWWD112DD5EW6TE7TJHM,4C7F6232-6DF5-4A42-BE81-E8CE96EB4F52,2023-09-26_05h38.01.477,WP_VExplicitOC_LH,2022.2.5,Win32,16.7759902,100,3.4923,2.0054,NA,NA,NA,NA,NA,frustrated,"frustrated, not frustrated","more frustrated, less frustrated",NA,NA,NA,NA,NA,NA,NA,NA,NA,NA,NA,NA,NA,NA,NA,NA,NA,NA,NA,NA,NA,NA,NA,NA,NA,NA,NA,NA,NA,NA,NA,NA,NA,NA,NA,NA,NA,NA,0,0,0,1,1,NA,NA,NA,NA,NA
SUPAMT97669,3L4D84MIL5RWWD112DD5EW6TE7TJHM,4C7F6232-6DF5-4A42-BE81-E8CE96EB4F52,2023-09-26_05h38.01.477,WP_VExplicitOC_LH,2022.2.5,Win32,16.7759902,98.5,3.601,2.0549,NA,NA,NA,NA,NA,happy,"unhappy, happy","less happy, more happy",NA,NA,NA,NA,NA,NA,NA,NA,NA,NA,NA,NA,NA,NA,NA,NA,NA,NA,NA,NA,NA,NA,NA,NA,NA,NA,NA,NA,NA,NA,NA,NA,NA,NA,NA,NA,NA,NA,0,1,1,0,1,NA,NA,NA,NA,NA
SUPAMT97669,3L4D84MIL5RWWD112DD5EW6TE7TJHM,4C7F6232-6DF5-4A42-BE81-E8CE96EB4F52,2023-09-26_05h38.01.477,WP_VExplicitOC_LH,2022.2.5,Win32,16.7759902,100,3.9864,2.0637,NA,NA,NA,NA,NA,bored,"bored, not bored","more bored, less bored",NA,NA,NA,NA,NA,NA,NA,NA,NA,NA,NA,NA,NA,NA,NA,NA,NA,NA,NA,NA,NA,NA,NA,NA,NA,NA,NA,NA,NA,NA,NA,NA,NA,NA,NA,NA,NA,NA,0,2,2,2,1,NA,NA,NA,NA,NA
SUPAMT97669,3L4D84MIL5RWWD112DD5EW6TE7TJHM,4C7F6232-6DF5-4A42-BE81-E8CE96EB4F52,2023-09-26_05h38.01.477,WP_VExplicitOC_LH,2022.2.5,Win32,16.7759902,NA,NA,NA,NA,NA,NA,NA,NA,NA,NA,NA,NA,NA,NA,NA,NA,NA,NA,NA,NA,NA,NA,NA,NA,NA,NA,NA,NA,NA,NA,NA,NA,NA,NA,NA,NA,NA,NA,NA,NA,NA,NA,NA,NA,NA,NA,NA,NA,NA,NA,NA,NA,NA,NA,4,0,4,0,1
SUPAMT97669,3L4D84MIL5RWWD112DD5EW6TE7TJHM,4C7F6232-6DF5-4A42-BE81-E8CE96EB4F52,2023-09-26_05h38.01.477,WP_VExplicitOC_LH,2022.2.5,Win32,16.7759902,100,3.4284,2.0107,NA,NA,NA,NA,NA,happy,"unhappy, happy","less happy, more happy",NA,NA,NA,NA,NA,NA,NA,NA,NA,NA,NA,NA,NA,NA,NA,NA,NA,NA,NA,NA,NA,NA,NA,NA,NA,NA,NA,NA,NA,NA,NA,NA,NA,NA,NA,NA,NA,NA,0,0,0,0,1,NA,NA,NA,NA,NA
SUPAMT97669,3L4D84MIL5RWWD112DD5EW6TE7TJHM,4C7F6232-6DF5-4A42-BE81-E8CE96EB4F52,2023-09-26_05h38.01.477,WP_VExplicitOC_LH,2022.2.5,Win32,16.7759902,100,3.7639,2.0391,NA,NA,NA,NA,NA,frustrated,"frustrated, not frustrated","more frustrated, less frustrated",NA,NA,NA,NA,NA,NA,NA,NA,NA,NA,NA,NA,NA,NA,NA,NA,NA,NA,NA,NA,NA,NA,NA,NA,NA,NA,NA,NA,NA,NA,NA,NA,NA,NA,NA,NA,NA,NA,0,1,1,1,1,NA,NA,NA,NA,NA
SUPAMT97669,3L4D84MIL5RWWD112DD5EW6TE7TJHM,4C7F6232-6DF5-4A42-BE81-E8CE96EB4F52,2023-09-26_05h38.01.477,WP_VExplicitOC_LH,2022.2.5,Win32,16.7759902,100,5.4253,2.0676,NA,NA,NA,NA,NA,bored,"bored, not bored","more bored, less bored",NA,NA,NA,NA,NA,NA,NA,NA,NA,NA,NA,NA,NA,NA,NA,NA,NA,NA,NA,NA,NA,NA,NA,NA,NA,NA,NA,NA,NA,NA,NA,NA,NA,NA,NA,NA,NA,NA,0,2,2,2,1,NA,NA,NA,NA,NA
SUPAMT97669,3L4D84MIL5RWWD112DD5EW6TE7TJHM,4C7F6232-6DF5-4A42-BE81-E8CE96EB4F52,2023-09-26_05h38.01.477,WP_VExplicitOC_LH,2022.2.5,Win32,16.7759902,NA,NA,NA,NA,NA,NA,NA,NA,NA,NA,NA,NA,NA,NA,NA,NA,NA,NA,NA,NA,NA,NA,NA,NA,NA,NA,NA,NA,NA,NA,NA,NA,NA,NA,NA,NA,NA,NA,NA,NA,NA,NA,NA,NA,NA,NA,NA,NA,NA,NA,NA,NA,NA,NA,5,0,5,0,1
SUPAMT97669,3L4D84MIL5RWWD112DD5EW6TE7TJHM,4C7F6232-6DF5-4A42-BE81-E8CE96EB4F52,2023-09-26_05h38.01.477,WP_VExplicitOC_LH,2022.2.5,Win32,16.7759902,100,4.1171,2.0549,NA,NA,NA,NA,NA,frustrated,"frustrated, not frustrated","more frustrated, less frustrated",NA,NA,NA,NA,NA,NA,NA,NA,NA,NA,NA,NA,NA,NA,NA,NA,NA,NA,NA,NA,NA,NA,NA,NA,NA,NA,NA,NA,NA,NA,NA,NA,NA,NA,NA,NA,NA,NA,0,0,0,1,1,NA,NA,NA,NA,NA
SUPAMT97669,3L4D84MIL5RWWD112DD5EW6TE7TJHM,4C7F6232-6DF5-4A42-BE81-E8CE96EB4F52,2023-09-26_05h38.01.477,WP_VExplicitOC_LH,2022.2.5,Win32,16.7759902,100,3.7549,2.0223,NA,NA,NA,NA,NA,happy,"unhappy, happy","less happy, more happy",NA,NA,NA,NA,NA,NA,NA,NA,NA,NA,NA,NA,NA,NA,NA,NA,NA,NA,NA,NA,NA,NA,NA,NA,NA,NA,NA,NA,NA,NA,NA,NA,NA,NA,NA,NA,NA,NA,0,1,1,0,1,NA,NA,NA,NA,NA
SUPAMT97669,3L4D84MIL5RWWD112DD5EW6TE7TJHM,4C7F6232-6DF5-4A42-BE81-E8CE96EB4F52,2023-09-26_05h38.01.477,WP_VExplicitOC_LH,2022.2.5,Win32,16.7759902,100,4.1459,2.0345,NA,NA,NA,NA,NA,bored,"bored, not bored","more bored, less bored",NA,NA,NA,NA,NA,NA,NA,NA,NA,NA,NA,NA,NA,NA,NA,NA,NA,NA,NA,NA,NA,NA,NA,NA,NA,NA,NA,NA,NA,NA,NA,NA,NA,NA,NA,NA,NA,NA,0,2,2,2,1,NA,NA,NA,NA,NA
SUPAMT97669,3L4D84MIL5RWWD112DD5EW6TE7TJHM,4C7F6232-6DF5-4A42-BE81-E8CE96EB4F52,2023-09-26_05h38.01.477,WP_VExplicitOC_LH,2022.2.5,Win32,16.7759902,NA,NA,NA,NA,NA,NA,NA,NA,NA,NA,NA,NA,NA,NA,NA,NA,NA,NA,NA,NA,NA,NA,NA,NA,NA,NA,NA,NA,NA,NA,NA,NA,NA,NA,NA,NA,NA,NA,NA,NA,NA,NA,NA,NA,NA,NA,NA,NA,NA,NA,NA,NA,NA,NA,6,0,6,0,1
SUPAMT97669,3L4D84MIL5RWWD112DD5EW6TE7TJHM,4C7F6232-6DF5-4A42-BE81-E8CE96EB4F52,2023-09-26_05h38.01.477,WP_VExplicitOC_LH,2022.2.5,Win32,16.7759902,100,3.8093,2.074,NA,NA,NA,NA,NA,frustrated,"frustrated, not frustrated","more frustrated, less frustrated",NA,NA,NA,NA,NA,NA,NA,NA,NA,NA,NA,NA,NA,NA,NA,NA,NA,NA,NA,NA,NA,NA,NA,NA,NA,NA,NA,NA,NA,NA,NA,NA,NA,NA,NA,NA,NA,NA,0,0,0,1,1,NA,NA,NA,NA,NA
SUPAMT97669,3L4D84MIL5RWWD112DD5EW6TE7TJHM,4C7F6232-6DF5-4A42-BE81-E8CE96EB4F52,2023-09-26_05h38.01.477,WP_VExplicitOC_LH,2022.2.5,Win32,16.7759902,100,5.6803,2.0046,NA,NA,NA,NA,NA,bored,"bored, not bored","more bored, less bored",NA,NA,NA,NA,NA,NA,NA,NA,NA,NA,NA,NA,NA,NA,NA,NA,NA,NA,NA,NA,NA,NA,NA,NA,NA,NA,NA,NA,NA,NA,NA,NA,NA,NA,NA,NA,NA,NA,0,1,1,2,1,NA,NA,NA,NA,NA
SUPAMT97669,3L4D84MIL5RWWD112DD5EW6TE7TJHM,4C7F6232-6DF5-4A42-BE81-E8CE96EB4F52,2023-09-26_05h38.01.477,WP_VExplicitOC_LH,2022.2.5,Win32,16.7759902,88.25,4.0118,2.0619,NA,NA,NA,NA,NA,happy,"unhappy, happy","less happy, more happy",NA,NA,NA,NA,NA,NA,NA,NA,NA,NA,NA,NA,NA,NA,NA,NA,NA,NA,NA,NA,NA,NA,NA,NA,NA,NA,NA,NA,NA,NA,NA,NA,NA,NA,NA,NA,NA,NA,0,2,2,0,1,NA,NA,NA,NA,NA
SUPAMT97669,3L4D84MIL5RWWD112DD5EW6TE7TJHM,4C7F6232-6DF5-4A42-BE81-E8CE96EB4F52,2023-09-26_05h38.01.477,WP_VExplicitOC_LH,2022.2.5,Win32,16.7759902,NA,NA,NA,NA,NA,NA,NA,NA,NA,NA,NA,NA,NA,NA,NA,NA,NA,NA,NA,NA,NA,NA,NA,NA,NA,NA,NA,NA,NA,NA,NA,NA,NA,NA,NA,NA,NA,NA,NA,NA,NA,NA,NA,NA,NA,NA,NA,NA,NA,NA,NA,NA,NA,NA,7,0,7,0,1
SUPAMT97669,3L4D84MIL5RWWD112DD5EW6TE7TJHM,4C7F6232-6DF5-4A42-BE81-E8CE96EB4F52,2023-09-26_05h38.01.477,WP_VExplicitOC_LH,2022.2.5,Win32,16.7759902,100,3.7298,2.0156,NA,NA,NA,NA,NA,bored,"bored, not bored","more bored, less bored",NA,NA,NA,NA,NA,NA,NA,NA,NA,NA,NA,NA,NA,NA,NA,NA,NA,NA,NA,NA,NA,NA,NA,NA,NA,NA,NA,NA,NA,NA,NA,NA,NA,NA,NA,NA,NA,NA,0,0,0,2,1,NA,NA,NA,NA,NA
SUPAMT97669,3L4D84MIL5RWWD112DD5EW6TE7TJHM,4C7F6232-6DF5-4A42-BE81-E8CE96EB4F52,2023-09-26_05h38.01.477,WP_VExplicitOC_LH,2022.2.5,Win32,16.7759902,100,4.2008,2.0309,NA,NA,NA,NA,NA,happy,"unhappy, happy","less happy, more happy",NA,NA,NA,NA,NA,NA,NA,NA,NA,NA,NA,NA,NA,NA,NA,NA,NA,NA,NA,NA,NA,NA,NA,NA,NA,NA,NA,NA,NA,NA,NA,NA,NA,NA,NA,NA,NA,NA,0,1,1,0,1,NA,NA,NA,NA,NA
SUPAMT97669,3L4D84MIL5RWWD112DD5EW6TE7TJHM,4C7F6232-6DF5-4A42-BE81-E8CE96EB4F52,2023-09-26_05h38.01.477,WP_VExplicitOC_LH,2022.2.5,Win32,16.7759902,100,6.6951,2.0358,NA,NA,NA,NA,NA,frustrated,"frustrated, not frustrated","more frustrated, less frustrated",NA,NA,NA,NA,NA,NA,NA,NA,NA,NA,NA,NA,NA,NA,NA,NA,NA,NA,NA,NA,NA,NA,NA,NA,NA,NA,NA,NA,NA,NA,NA,NA,NA,NA,NA,NA,NA,NA,0,2,2,1,1,NA,NA,NA,NA,NA
SUPAMT97669,3L4D84MIL5RWWD112DD5EW6TE7TJHM,4C7F6232-6DF5-4A42-BE81-E8CE96EB4F52,2023-09-26_05h38.01.477,WP_VExplicitOC_LH,2022.2.5,Win32,16.7759902,NA,NA,NA,NA,NA,NA,NA,NA,NA,NA,NA,NA,NA,NA,NA,NA,NA,NA,NA,NA,NA,NA,NA,NA,NA,NA,NA,NA,NA,NA,NA,NA,NA,NA,NA,NA,NA,NA,NA,NA,NA,NA,NA,NA,NA,NA,NA,NA,NA,NA,NA,NA,NA,NA,8,0,8,0,1
SUPAMT97669,3L4D84MIL5RWWD112DD5EW6TE7TJHM,4C7F6232-6DF5-4A42-BE81-E8CE96EB4F52,2023-09-26_05h38.01.477,WP_VExplicitOC_LH,2022.2.5,Win32,16.7759902,100,5.065,2.025,NA,NA,NA,NA,NA,bored,"bored, not bored","more bored, less bored",NA,NA,NA,NA,NA,NA,NA,NA,NA,NA,NA,NA,NA,NA,NA,NA,NA,NA,NA,NA,NA,NA,NA,NA,NA,NA,NA,NA,NA,NA,NA,NA,NA,NA,NA,NA,NA,NA,0,0,0,2,1,NA,NA,NA,NA,NA
SUPAMT97669,3L4D84MIL5RWWD112DD5EW6TE7TJHM,4C7F6232-6DF5-4A42-BE81-E8CE96EB4F52,2023-09-26_05h38.01.477,WP_VExplicitOC_LH,2022.2.5,Win32,16.7759902,100,5.9733,2.0415,NA,NA,NA,NA,NA,frustrated,"frustrated, not frustrated","more frustrated, less frustrated",NA,NA,NA,NA,NA,NA,NA,NA,NA,NA,NA,NA,NA,NA,NA,NA,NA,NA,NA,NA,NA,NA,NA,NA,NA,NA,NA,NA,NA,NA,NA,NA,NA,NA,NA,NA,NA,NA,0,1,1,1,1,NA,NA,NA,NA,NA
SUPAMT97669,3L4D84MIL5RWWD112DD5EW6TE7TJHM,4C7F6232-6DF5-4A42-BE81-E8CE96EB4F52,2023-09-26_05h38.01.477,WP_VExplicitOC_LH,2022.2.5,Win32,16.7759902,100,5.6025,2.0658,NA,NA,NA,NA,NA,happy,"unhappy, happy","less happy, more happy",NA,NA,NA,NA,NA,NA,NA,NA,NA,NA,NA,NA,NA,NA,NA,NA,NA,NA,NA,NA,NA,NA,NA,NA,NA,NA,NA,NA,NA,NA,NA,NA,NA,NA,NA,NA,NA,NA,0,2,2,0,1,NA,NA,NA,NA,NA
SUPAMT97669,3L4D84MIL5RWWD112DD5EW6TE7TJHM,4C7F6232-6DF5-4A42-BE81-E8CE96EB4F52,2023-09-26_05h38.01.477,WP_VExplicitOC_LH,2022.2.5,Win32,16.7759902,NA,NA,NA,NA,NA,NA,NA,NA,NA,NA,NA,NA,NA,NA,NA,NA,NA,NA,NA,NA,NA,NA,NA,NA,NA,NA,NA,NA,NA,NA,NA,NA,NA,NA,NA,NA,NA,NA,NA,NA,NA,NA,NA,NA,NA,NA,NA,NA,NA,NA,NA,NA,NA,NA,9,0,9,0,1
SUPAMT97669,3L4D84MIL5RWWD112DD5EW6TE7TJHM,4C7F6232-6DF5-4A42-BE81-E8CE96EB4F52,2023-09-26_05h38.01.477,WP_VExplicitOC_LH,2022.2.5,Win32,16.7759902,100,3.5317,2.0639,NA,NA,NA,NA,NA,bored,"bored, not bored","more bored, less bored",NA,NA,NA,NA,NA,NA,NA,NA,NA,NA,NA,NA,NA,NA,NA,NA,NA,NA,NA,NA,NA,NA,NA,NA,NA,NA,NA,NA,NA,NA,NA,NA,NA,NA,NA,NA,NA,NA,0,0,0,2,1,NA,NA,NA,NA,NA
SUPAMT97669,3L4D84MIL5RWWD112DD5EW6TE7TJHM,4C7F6232-6DF5-4A42-BE81-E8CE96EB4F52,2023-09-26_05h38.01.477,WP_VExplicitOC_LH,2022.2.5,Win32,16.7759902,100,3.7258,2.0481,NA,NA,NA,NA,NA,frustrated,"frustrated, not frustrated","more frustrated, less frustrated",NA,NA,NA,NA,NA,NA,NA,NA,NA,NA,NA,NA,NA,NA,NA,NA,NA,NA,NA,NA,NA,NA,NA,NA,NA,NA,NA,NA,NA,NA,NA,NA,NA,NA,NA,NA,NA,NA,0,1,1,1,1,NA,NA,NA,NA,NA
SUPAMT97669,3L4D84MIL5RWWD112DD5EW6TE7TJHM,4C7F6232-6DF5-4A42-BE81-E8CE96EB4F52,2023-09-26_05h38.01.477,WP_VExplicitOC_LH,2022.2.5,Win32,16.7759902,100,3.3221,2.036,NA,NA,NA,NA,NA,happy,"unhappy, happy","less happy, more happy",NA,NA,NA,NA,NA,NA,NA,NA,NA,NA,NA,NA,NA,NA,NA,NA,NA,NA,NA,NA,NA,NA,NA,NA,NA,NA,NA,NA,NA,NA,NA,NA,NA,NA,NA,NA,NA,NA,0,2,2,0,1,NA,NA,NA,NA,NA
SUPAMT97669,3L4D84MIL5RWWD112DD5EW6TE7TJHM,4C7F6232-6DF5-4A42-BE81-E8CE96EB4F52,2023-09-26_05h38.01.477,WP_VExplicitOC_LH,2022.2.5,Win32,16.7759902,NA,NA,NA,NA,NA,NA,NA,NA,NA,NA,NA,NA,NA,NA,NA,NA,NA,NA,NA,NA,NA,NA,NA,NA,NA,NA,NA,NA,NA,NA,NA,NA,NA,NA,NA,NA,NA,NA,NA,NA,NA,NA,NA,NA,NA,NA,NA,NA,NA,NA,NA,NA,NA,NA,10,0,10,0,1
SUPAMT97669,3L4D84MIL5RWWD112DD5EW6TE7TJHM,4C7F6232-6DF5-4A42-BE81-E8CE96EB4F52,2023-09-26_05h38.01.477,WP_VExplicitOC_LH,2022.2.5,Win32,16.7759902,100,3.7556,2.068,NA,NA,NA,NA,NA,frustrated,"frustrated, not frustrated","more frustrated, less frustrated",NA,NA,NA,NA,NA,NA,NA,NA,NA,NA,NA,NA,NA,NA,NA,NA,NA,NA,NA,NA,NA,NA,NA,NA,NA,NA,NA,NA,NA,NA,NA,NA,NA,NA,NA,NA,NA,NA,0,0,0,1,1,NA,NA,NA,NA,NA
SUPAMT97669,3L4D84MIL5RWWD112DD5EW6TE7TJHM,4C7F6232-6DF5-4A42-BE81-E8CE96EB4F52,2023-09-26_05h38.01.477,WP_VExplicitOC_LH,2022.2.5,Win32,16.7759902,100,3.6893,2.081,NA,NA,NA,NA,NA,happy,"unhappy, happy","less happy, more happy",NA,NA,NA,NA,NA,NA,NA,NA,NA,NA,NA,NA,NA,NA,NA,NA,NA,NA,NA,NA,NA,NA,NA,NA,NA,NA,NA,NA,NA,NA,NA,NA,NA,NA,NA,NA,NA,NA,0,1,1,0,1,NA,NA,NA,NA,NA
SUPAMT97669,3L4D84MIL5RWWD112DD5EW6TE7TJHM,4C7F6232-6DF5-4A42-BE81-E8CE96EB4F52,2023-09-26_05h38.01.477,WP_VExplicitOC_LH,2022.2.5,Win32,16.7759902,100,3.8299,2.1064,NA,NA,NA,NA,NA,bored,"bored, not bored","more bored, less bored",NA,NA,NA,NA,NA,NA,NA,NA,NA,NA,NA,NA,NA,NA,NA,NA,NA,NA,NA,NA,NA,NA,NA,NA,NA,NA,NA,NA,NA,NA,NA,NA,NA,NA,NA,NA,NA,NA,0,2,2,2,1,NA,NA,NA,NA,NA
SUPAMT97669,3L4D84MIL5RWWD112DD5EW6TE7TJHM,4C7F6232-6DF5-4A42-BE81-E8CE96EB4F52,2023-09-26_05h38.01.477,WP_VExplicitOC_LH,2022.2.5,Win32,16.7759902,NA,NA,NA,NA,NA,NA,NA,NA,NA,NA,NA,NA,NA,NA,NA,NA,NA,NA,NA,NA,NA,NA,NA,NA,NA,NA,NA,NA,NA,NA,NA,NA,NA,NA,NA,NA,NA,NA,NA,NA,NA,NA,NA,NA,NA,NA,NA,NA,NA,NA,NA,NA,NA,NA,11,0,11,0,1
SUPAMT97669,3L4D84MIL5RWWD112DD5EW6TE7TJHM,4C7F6232-6DF5-4A42-BE81-E8CE96EB4F52,2023-09-26_05h38.01.477,WP_VExplicitOC_LH,2022.2.5,Win32,16.7759902,100,5.7666,2.0341,NA,NA,NA,NA,NA,bored,"bored, not bored","more bored, less bored",NA,NA,NA,NA,NA,NA,NA,NA,NA,NA,NA,NA,NA,NA,NA,NA,NA,NA,NA,NA,NA,NA,NA,NA,NA,NA,NA,NA,NA,NA,NA,NA,NA,NA,NA,NA,NA,NA,0,0,0,2,1,NA,NA,NA,NA,NA
SUPAMT97669,3L4D84MIL5RWWD112DD5EW6TE7TJHM,4C7F6232-6DF5-4A42-BE81-E8CE96EB4F52,2023-09-26_05h38.01.477,WP_VExplicitOC_LH,2022.2.5,Win32,16.7759902,100,3.7902,2.0457,NA,NA,NA,NA,NA,happy,"unhappy, happy","less happy, more happy",NA,NA,NA,NA,NA,NA,NA,NA,NA,NA,NA,NA,NA,NA,NA,NA,NA,NA,NA,NA,NA,NA,NA,NA,NA,NA,NA,NA,NA,NA,NA,NA,NA,NA,NA,NA,NA,NA,0,1,1,0,1,NA,NA,NA,NA,NA
SUPAMT97669,3L4D84MIL5RWWD112DD5EW6TE7TJHM,4C7F6232-6DF5-4A42-BE81-E8CE96EB4F52,2023-09-26_05h38.01.477,WP_VExplicitOC_LH,2022.2.5,Win32,16.7759902,100,3.8275,2.0743,NA,NA,NA,NA,NA,frustrated,"frustrated, not frustrated","more frustrated, less frustrated",NA,NA,NA,NA,NA,NA,NA,NA,NA,NA,NA,NA,NA,NA,NA,NA,NA,NA,NA,NA,NA,NA,NA,NA,NA,NA,NA,NA,NA,NA,NA,NA,NA,NA,NA,NA,NA,NA,0,2,2,1,1,NA,NA,NA,NA,NA
SUPAMT97669,3L4D84MIL5RWWD112DD5EW6TE7TJHM,4C7F6232-6DF5-4A42-BE81-E8CE96EB4F52,2023-09-26_05h38.01.477,WP_VExplicitOC_LH,2022.2.5,Win32,16.7759902,NA,NA,NA,NA,NA,NA,NA,NA,NA,NA,NA,NA,NA,NA,NA,NA,NA,NA,NA,NA,NA,NA,NA,NA,NA,NA,NA,NA,NA,NA,NA,NA,NA,NA,NA,NA,NA,NA,NA,NA,NA,NA,NA,NA,NA,NA,NA,NA,NA,NA,NA,NA,NA,NA,12,0,12,0,1
SUPAMT97669,3L4D84MIL5RWWD112DD5EW6TE7TJHM,4C7F6232-6DF5-4A42-BE81-E8CE96EB4F52,2023-09-26_05h38.01.477,WP_VExplicitOC_LH,2022.2.5,Win32,16.7759902,100,3.4168,2.0088,NA,NA,NA,NA,NA,happy,"unhappy, happy","less happy, more happy",NA,NA,NA,NA,NA,NA,NA,NA,NA,NA,NA,NA,NA,NA,NA,NA,NA,NA,NA,NA,NA,NA,NA,NA,NA,NA,NA,NA,NA,NA,NA,NA,NA,NA,NA,NA,NA,NA,0,0,0,0,1,NA,NA,NA,NA,NA
SUPAMT97669,3L4D84MIL5RWWD112DD5EW6TE7TJHM,4C7F6232-6DF5-4A42-BE81-E8CE96EB4F52,2023-09-26_05h38.01.477,WP_VExplicitOC_LH,2022.2.5,Win32,16.7759902,100,4.1264,2.0892,NA,NA,NA,NA,NA,bored,"bored, not bored","more bored, less bored",NA,NA,NA,NA,NA,NA,NA,NA,NA,NA,NA,NA,NA,NA,NA,NA,NA,NA,NA,NA,NA,NA,NA,NA,NA,NA,NA,NA,NA,NA,NA,NA,NA,NA,NA,NA,NA,NA,0,1,1,2,1,NA,NA,NA,NA,NA
SUPAMT97669,3L4D84MIL5RWWD112DD5EW6TE7TJHM,4C7F6232-6DF5-4A42-BE81-E8CE96EB4F52,2023-09-26_05h38.01.477,WP_VExplicitOC_LH,2022.2.5,Win32,16.7759902,100,3.2947,2.0067,NA,NA,NA,NA,NA,frustrated,"frustrated, not frustrated","more frustrated, less frustrated",NA,NA,NA,NA,NA,NA,NA,NA,NA,NA,NA,NA,NA,NA,NA,NA,NA,NA,NA,NA,NA,NA,NA,NA,NA,NA,NA,NA,NA,NA,NA,NA,NA,NA,NA,NA,NA,NA,0,2,2,1,1,NA,NA,NA,NA,NA
SUPAMT97669,3L4D84MIL5RWWD112DD5EW6TE7TJHM,4C7F6232-6DF5-4A42-BE81-E8CE96EB4F52,2023-09-26_05h38.01.477,WP_VExplicitOC_LH,2022.2.5,Win32,16.7759902,NA,NA,NA,NA,NA,NA,NA,NA,NA,NA,NA,NA,NA,NA,NA,NA,NA,NA,NA,NA,NA,NA,NA,NA,NA,NA,NA,NA,NA,NA,NA,NA,NA,NA,NA,NA,NA,NA,NA,NA,NA,NA,NA,NA,NA,NA,NA,NA,NA,NA,NA,NA,NA,NA,13,0,13,0,1
SUPAMT97669,3L4D84MIL5RWWD112DD5EW6TE7TJHM,4C7F6232-6DF5-4A42-BE81-E8CE96EB4F52,2023-09-26_05h38.01.477,WP_VExplicitOC_LH,2022.2.5,Win32,16.7759902,100,3.5609,2.0717,NA,NA,NA,NA,NA,bored,"bored, not bored","more bored, less bored",NA,NA,NA,NA,NA,NA,NA,NA,NA,NA,NA,NA,NA,NA,NA,NA,NA,NA,NA,NA,NA,NA,NA,NA,NA,NA,NA,NA,NA,NA,NA,NA,NA,NA,NA,NA,NA,NA,0,0,0,2,1,NA,NA,NA,NA,NA
SUPAMT97669,3L4D84MIL5RWWD112DD5EW6TE7TJHM,4C7F6232-6DF5-4A42-BE81-E8CE96EB4F52,2023-09-26_05h38.01.477,WP_VExplicitOC_LH,2022.2.5,Win32,16.7759902,100,3.553,2.0576,NA,NA,NA,NA,NA,happy,"unhappy, happy","less happy, more happy",NA,NA,NA,NA,NA,NA,NA,NA,NA,NA,NA,NA,NA,NA,NA,NA,NA,NA,NA,NA,NA,NA,NA,NA,NA,NA,NA,NA,NA,NA,NA,NA,NA,NA,NA,NA,NA,NA,0,1,1,0,1,NA,NA,NA,NA,NA
SUPAMT97669,3L4D84MIL5RWWD112DD5EW6TE7TJHM,4C7F6232-6DF5-4A42-BE81-E8CE96EB4F52,2023-09-26_05h38.01.477,WP_VExplicitOC_LH,2022.2.5,Win32,16.7759902,100,3.7646,2.0186,NA,NA,NA,NA,NA,frustrated,"frustrated, not frustrated","more frustrated, less frustrated",NA,NA,NA,NA,NA,NA,NA,NA,NA,NA,NA,NA,NA,NA,NA,NA,NA,NA,NA,NA,NA,NA,NA,NA,NA,NA,NA,NA,NA,NA,NA,NA,NA,NA,NA,NA,NA,NA,0,2,2,1,1,NA,NA,NA,NA,NA
SUPAMT97669,3L4D84MIL5RWWD112DD5EW6TE7TJHM,4C7F6232-6DF5-4A42-BE81-E8CE96EB4F52,2023-09-26_05h38.01.477,WP_VExplicitOC_LH,2022.2.5,Win32,16.7759902,NA,NA,NA,NA,NA,NA,NA,NA,NA,NA,NA,NA,NA,NA,NA,NA,NA,NA,NA,NA,NA,NA,NA,NA,NA,NA,NA,NA,NA,NA,NA,NA,NA,NA,NA,NA,NA,NA,NA,NA,NA,NA,NA,NA,NA,NA,NA,NA,NA,NA,NA,NA,NA,NA,14,0,14,0,1
SUPAMT97669,3L4D84MIL5RWWD112DD5EW6TE7TJHM,4C7F6232-6DF5-4A42-BE81-E8CE96EB4F52,2023-09-26_05h38.01.477,WP_VExplicitOC_LH,2022.2.5,Win32,16.7759902,NA,NA,NA,NA,NA,NA,NA,NA,NA,NA,NA,NA,NA,NA,NA,NA,NA,NA,NA,NA,NA,NA,NA,NA,NA,NA,NA,NA,NA,NA,NA,NA,NA,NA,NA,NA,NA,NA,NA,NA,NA,NA,NA,NA,NA,NA,NA,NA,NA,NA,NA,NA,NA,NA,NA,NA,NA,NA,NA
