participant,session,completion,date,expName,psychopyVersion,OS,frameRate,rating_all.response,rating_all.rt,rating_all.tStart,rndRat1.thisRepN,rndRat1.thisTrialN,rndRat1.thisN,rndRat1.thisIndex,rndRat1.ran,Emo,Labs,Labs2,rating_alt.response,rating_alt.rt,AltC.thisRepN,AltC.thisTrialN,AltC.thisN,AltC.thisIndex,AltC.ran,alt_choices,pic_choices,BottomAlt_Choice,rndRat2.thisRepN,rndRat2.thisTrialN,rndRat2.thisN,rndRat2.thisIndex,rndRat2.ran,rndRat3.thisRepN,rndRat3.thisTrialN,rndRat3.thisN,rndRat3.thisIndex,rndRat3.ran,trials_FC_L.thisRepN,trials_FC_L.thisTrialN,trials_FC_L.thisN,trials_FC_L.thisIndex,trials_FC_L.ran,rating_alt_2.response,rating_alt_2.rt,AltC2.thisRepN,AltC2.thisTrialN,AltC2.thisN,AltC2.thisIndex,AltC2.ran,TopAlt_Choice,rndRat4.thisRepN,rndRat4.thisTrialN,rndRat4.thisN,rndRat4.thisIndex,rndRat4.ran,rndRat5.thisRepN,rndRat5.thisTrialN,rndRat5.thisN,rndRat5.thisIndex,rndRat5.ran,trials_FC_H.thisRepN,trials_FC_H.thisTrialN,trials_FC_H.thisN,trials_FC_H.thisIndex,trials_FC_H.ran
SUPAMT72194,3OLQQLKKNYOKC3AZCC5ZTT9GN5AEJ3,D3A8AD4C-6300-49AF-BEDA-7419C001CBC0,2023-09-28_09h23.55.781,WP_VExplicitOC_LH,2022.2.5,Win32,13.10633167,NA,NA,NA,NA,NA,NA,NA,NA,NA,NA,NA,NA,NA,NA,NA,NA,NA,NA,NA,NA,NA,NA,NA,NA,NA,NA,NA,NA,NA,NA,NA,NA,NA,NA,NA,NA,NA,NA,NA,NA,NA,NA,NA,NA,NA,NA,NA,NA,NA,NA,NA,NA,NA,NA,NA,NA,NA,NA,NA
SUPAMT72194,3OLQQLKKNYOKC3AZCC5ZTT9GN5AEJ3,D3A8AD4C-6300-49AF-BEDA-7419C001CBC0,2023-09-28_09h23.55.781,WP_VExplicitOC_LH,2022.2.5,Win32,13.10633167,NA,NA,NA,NA,NA,NA,NA,NA,NA,NA,NA,NA,NA,NA,NA,NA,NA,NA,NA,NA,NA,NA,NA,NA,NA,NA,NA,NA,NA,NA,NA,NA,NA,NA,NA,NA,NA,NA,NA,NA,NA,NA,NA,NA,NA,NA,NA,NA,NA,NA,NA,NA,NA,NA,NA,NA,NA,NA,NA
SUPAMT72194,3OLQQLKKNYOKC3AZCC5ZTT9GN5AEJ3,D3A8AD4C-6300-49AF-BEDA-7419C001CBC0,2023-09-28_09h23.55.781,WP_VExplicitOC_LH,2022.2.5,Win32,13.10633167,NA,NA,NA,NA,NA,NA,NA,NA,NA,NA,NA,NA,NA,NA,NA,NA,NA,NA,NA,NA,NA,NA,NA,NA,NA,NA,NA,NA,NA,NA,NA,NA,NA,NA,NA,NA,NA,NA,NA,NA,NA,NA,NA,NA,NA,NA,NA,NA,NA,NA,NA,NA,NA,NA,NA,NA,NA,NA,NA
SUPAMT72194,3OLQQLKKNYOKC3AZCC5ZTT9GN5AEJ3,D3A8AD4C-6300-49AF-BEDA-7419C001CBC0,2023-09-28_09h23.55.781,WP_VExplicitOC_LH,2022.2.5,Win32,13.10633167,50.37038167,4.5098,2.0179,0,0,0,1,1,frustrated,"frustrated, not frustrated","more frustrated, less frustrated",NA,NA,NA,NA,NA,NA,NA,NA,NA,NA,NA,NA,NA,NA,NA,NA,NA,NA,NA,NA,NA,NA,NA,NA,NA,NA,NA,NA,NA,NA,NA,NA,NA,NA,NA,NA,NA,NA,NA,NA,NA,NA,NA,NA,NA,NA,NA,NA
SUPAMT72194,3OLQQLKKNYOKC3AZCC5ZTT9GN5AEJ3,D3A8AD4C-6300-49AF-BEDA-7419C001CBC0,2023-09-28_09h23.55.781,WP_VExplicitOC_LH,2022.2.5,Win32,13.10633167,69.25927056,4.0108,2.0196,0,1,1,0,1,happy,"unhappy, happy","less happy, more happy",NA,NA,NA,NA,NA,NA,NA,NA,NA,NA,NA,NA,NA,NA,NA,NA,NA,NA,NA,NA,NA,NA,NA,NA,NA,NA,NA,NA,NA,NA,NA,NA,NA,NA,NA,NA,NA,NA,NA,NA,NA,NA,NA,NA,NA,NA,NA,NA
SUPAMT72194,3OLQQLKKNYOKC3AZCC5ZTT9GN5AEJ3,D3A8AD4C-6300-49AF-BEDA-7419C001CBC0,2023-09-28_09h23.55.781,WP_VExplicitOC_LH,2022.2.5,Win32,13.10633167,-79.25925361,5.4447,2.0024,0,2,2,2,1,bored,"bored, not bored","more bored, less bored",NA,NA,NA,NA,NA,NA,NA,NA,NA,NA,NA,NA,NA,NA,NA,NA,NA,NA,NA,NA,NA,NA,NA,NA,NA,NA,NA,NA,NA,NA,NA,NA,NA,NA,NA,NA,NA,NA,NA,NA,NA,NA,NA,NA,NA,NA,NA,NA
SUPAMT72194,3OLQQLKKNYOKC3AZCC5ZTT9GN5AEJ3,D3A8AD4C-6300-49AF-BEDA-7419C001CBC0,2023-09-28_09h23.55.781,WP_VExplicitOC_LH,2022.2.5,Win32,13.10633167,NA,NA,NA,NA,NA,NA,NA,NA,NA,NA,NA,NA,NA,NA,NA,NA,NA,NA,NA,NA,NA,NA,NA,NA,NA,NA,NA,NA,NA,NA,NA,NA,NA,NA,NA,NA,NA,NA,NA,NA,NA,NA,NA,NA,NA,NA,NA,NA,NA,NA,NA,NA,NA,NA,NA,NA,NA,NA,NA
SUPAMT72194,3OLQQLKKNYOKC3AZCC5ZTT9GN5AEJ3,D3A8AD4C-6300-49AF-BEDA-7419C001CBC0,2023-09-28_09h23.55.781,WP_VExplicitOC_LH,2022.2.5,Win32,13.10633167,NA,NA,NA,NA,NA,NA,NA,NA,NA,NA,NA,NA,NA,NA,NA,NA,NA,NA,NA,NA,NA,NA,NA,NA,NA,NA,NA,NA,NA,NA,NA,NA,NA,NA,NA,NA,NA,NA,NA,NA,NA,NA,NA,NA,NA,NA,NA,NA,NA,NA,NA,NA,NA,NA,NA,NA,NA,NA,NA
SUPAMT72194,3OLQQLKKNYOKC3AZCC5ZTT9GN5AEJ3,D3A8AD4C-6300-49AF-BEDA-7419C001CBC0,2023-09-28_09h23.55.781,WP_VExplicitOC_LH,2022.2.5,Win32,13.10633167,NA,NA,NA,NA,NA,NA,NA,NA,NA,NA,NA,NA,NA,NA,NA,NA,NA,NA,NA,NA,NA,NA,NA,NA,NA,NA,NA,NA,NA,NA,NA,NA,NA,NA,NA,NA,NA,NA,NA,NA,NA,NA,NA,NA,NA,NA,NA,NA,NA,NA,NA,NA,NA,NA,NA,NA,NA,NA,NA
SUPAMT72194,3OLQQLKKNYOKC3AZCC5ZTT9GN5AEJ3,D3A8AD4C-6300-49AF-BEDA-7419C001CBC0,2023-09-28_09h23.55.781,WP_VExplicitOC_LH,2022.2.5,Win32,13.10633167,NA,NA,NA,NA,NA,NA,NA,NA,NA,NA,NA,NA,NA,NA,NA,NA,NA,NA,NA,NA,NA,NA,NA,NA,NA,NA,NA,NA,NA,NA,NA,NA,NA,NA,NA,NA,NA,NA,NA,NA,NA,NA,NA,NA,NA,NA,NA,NA,NA,NA,NA,NA,NA,NA,NA,NA,NA,NA,NA
SUPAMT72194,3OLQQLKKNYOKC3AZCC5ZTT9GN5AEJ3,D3A8AD4C-6300-49AF-BEDA-7419C001CBC0,2023-09-28_09h23.55.781,WP_VExplicitOC_LH,2022.2.5,Win32,13.10633167,NA,NA,NA,NA,NA,NA,NA,NA,NA,NA,NA,63.51852417,5.625799999,0,0,0,0,1,rest (looking at a fixed cross),001.png,NA,NA,NA,NA,NA,NA,NA,NA,NA,NA,NA,NA,NA,NA,NA,NA,NA,NA,NA,NA,NA,NA,NA,NA,NA,NA,NA,NA,NA,NA,NA,NA,NA,NA,NA,NA,NA,NA,NA
SUPAMT72194,3OLQQLKKNYOKC3AZCC5ZTT9GN5AEJ3,D3A8AD4C-6300-49AF-BEDA-7419C001CBC0,2023-09-28_09h23.55.781,WP_VExplicitOC_LH,2022.2.5,Win32,13.10633167,NA,NA,NA,NA,NA,NA,NA,NA,NA,NA,NA,68.88888889,3.031400001,0,1,1,1,1,stand up,002.png,NA,NA,NA,NA,NA,NA,NA,NA,NA,NA,NA,NA,NA,NA,NA,NA,NA,NA,NA,NA,NA,NA,NA,NA,NA,NA,NA,NA,NA,NA,NA,NA,NA,NA,NA,NA,NA,NA,NA
SUPAMT72194,3OLQQLKKNYOKC3AZCC5ZTT9GN5AEJ3,D3A8AD4C-6300-49AF-BEDA-7419C001CBC0,2023-09-28_09h23.55.781,WP_VExplicitOC_LH,2022.2.5,Win32,13.10633167,NA,NA,NA,NA,NA,NA,NA,NA,NA,NA,NA,73.70371501,2.4761,0,2,2,2,1,stretch,003.png,NA,NA,NA,NA,NA,NA,NA,NA,NA,NA,NA,NA,NA,NA,NA,NA,NA,NA,NA,NA,NA,NA,NA,NA,NA,NA,NA,NA,NA,NA,NA,NA,NA,NA,NA,NA,NA,NA,NA
SUPAMT72194,3OLQQLKKNYOKC3AZCC5ZTT9GN5AEJ3,D3A8AD4C-6300-49AF-BEDA-7419C001CBC0,2023-09-28_09h23.55.781,WP_VExplicitOC_LH,2022.2.5,Win32,13.10633167,NA,NA,NA,NA,NA,NA,NA,NA,NA,NA,NA,67.77777778,2.5645,0,3,3,3,1,make a drink,004.png,NA,NA,NA,NA,NA,NA,NA,NA,NA,NA,NA,NA,NA,NA,NA,NA,NA,NA,NA,NA,NA,NA,NA,NA,NA,NA,NA,NA,NA,NA,NA,NA,NA,NA,NA,NA,NA,NA,NA
SUPAMT72194,3OLQQLKKNYOKC3AZCC5ZTT9GN5AEJ3,D3A8AD4C-6300-49AF-BEDA-7419C001CBC0,2023-09-28_09h23.55.781,WP_VExplicitOC_LH,2022.2.5,Win32,13.10633167,NA,NA,NA,NA,NA,NA,NA,NA,NA,NA,NA,70.74074639,2.5513,0,4,4,4,1,scroll social media,005.png,NA,NA,NA,NA,NA,NA,NA,NA,NA,NA,NA,NA,NA,NA,NA,NA,NA,NA,NA,NA,NA,NA,NA,NA,NA,NA,NA,NA,NA,NA,NA,NA,NA,NA,NA,NA,NA,NA,NA
SUPAMT72194,3OLQQLKKNYOKC3AZCC5ZTT9GN5AEJ3,D3A8AD4C-6300-49AF-BEDA-7419C001CBC0,2023-09-28_09h23.55.781,WP_VExplicitOC_LH,2022.2.5,Win32,13.10633167,NA,NA,NA,NA,NA,NA,NA,NA,NA,NA,NA,73.70371501,2.6407,0,5,5,5,1,listen to music,006.png,NA,NA,NA,NA,NA,NA,NA,NA,NA,NA,NA,NA,NA,NA,NA,NA,NA,NA,NA,NA,NA,NA,NA,NA,NA,NA,NA,NA,NA,NA,NA,NA,NA,NA,NA,NA,NA,NA,NA
SUPAMT72194,3OLQQLKKNYOKC3AZCC5ZTT9GN5AEJ3,D3A8AD4C-6300-49AF-BEDA-7419C001CBC0,2023-09-28_09h23.55.781,WP_VExplicitOC_LH,2022.2.5,Win32,13.10633167,NA,NA,NA,NA,NA,NA,NA,NA,NA,NA,NA,70.92593723,2.402200001,0,6,6,6,1,daydream,007.png,NA,NA,NA,NA,NA,NA,NA,NA,NA,NA,NA,NA,NA,NA,NA,NA,NA,NA,NA,NA,NA,NA,NA,NA,NA,NA,NA,NA,NA,NA,NA,NA,NA,NA,NA,NA,NA,NA,NA
SUPAMT72194,3OLQQLKKNYOKC3AZCC5ZTT9GN5AEJ3,D3A8AD4C-6300-49AF-BEDA-7419C001CBC0,2023-09-28_09h23.55.781,WP_VExplicitOC_LH,2022.2.5,Win32,13.10633167,NA,NA,NA,NA,NA,NA,NA,NA,NA,NA,NA,88.88888889,2.6967,0,7,7,7,1,watch a short animation,008.png,NA,NA,NA,NA,NA,NA,NA,NA,NA,NA,NA,NA,NA,NA,NA,NA,NA,NA,NA,NA,NA,NA,NA,NA,NA,NA,NA,NA,NA,NA,NA,NA,NA,NA,NA,NA,NA,NA,NA
SUPAMT72194,3OLQQLKKNYOKC3AZCC5ZTT9GN5AEJ3,D3A8AD4C-6300-49AF-BEDA-7419C001CBC0,2023-09-28_09h23.55.781,WP_VExplicitOC_LH,2022.2.5,Win32,13.10633167,NA,NA,NA,NA,NA,NA,NA,NA,NA,NA,NA,78.70371501,2.683599999,0,8,8,8,1,read a novel,009.png,NA,NA,NA,NA,NA,NA,NA,NA,NA,NA,NA,NA,NA,NA,NA,NA,NA,NA,NA,NA,NA,NA,NA,NA,NA,NA,NA,NA,NA,NA,NA,NA,NA,NA,NA,NA,NA,NA,NA
SUPAMT72194,3OLQQLKKNYOKC3AZCC5ZTT9GN5AEJ3,D3A8AD4C-6300-49AF-BEDA-7419C001CBC0,2023-09-28_09h23.55.781,WP_VExplicitOC_LH,2022.2.5,Win32,13.10633167,NA,NA,NA,NA,NA,NA,NA,NA,NA,NA,NA,82.96296861,2.061700001,0,9,9,9,1,read the news,010.png,NA,NA,NA,NA,NA,NA,NA,NA,NA,NA,NA,NA,NA,NA,NA,NA,NA,NA,NA,NA,NA,NA,NA,NA,NA,NA,NA,NA,NA,NA,NA,NA,NA,NA,NA,NA,NA,NA,NA
SUPAMT72194,3OLQQLKKNYOKC3AZCC5ZTT9GN5AEJ3,D3A8AD4C-6300-49AF-BEDA-7419C001CBC0,2023-09-28_09h23.55.781,WP_VExplicitOC_LH,2022.2.5,Win32,13.10633167,NA,NA,NA,NA,NA,NA,NA,NA,NA,NA,NA,NA,NA,NA,NA,NA,NA,NA,NA,NA,NA,NA,NA,NA,NA,NA,NA,NA,NA,NA,NA,NA,NA,NA,NA,NA,NA,NA,NA,NA,NA,NA,NA,NA,NA,NA,NA,NA,NA,NA,NA,NA,NA,NA,NA,NA,NA,NA,NA
SUPAMT72194,3OLQQLKKNYOKC3AZCC5ZTT9GN5AEJ3,D3A8AD4C-6300-49AF-BEDA-7419C001CBC0,2023-09-28_09h23.55.781,WP_VExplicitOC_LH,2022.2.5,Win32,13.10633167,NA,NA,NA,NA,NA,NA,NA,NA,NA,NA,NA,NA,NA,NA,NA,NA,NA,NA,NA,NA,make a drink,NA,NA,NA,NA,NA,NA,NA,NA,NA,NA,NA,NA,NA,NA,NA,NA,NA,NA,NA,NA,NA,NA,NA,NA,NA,NA,NA,NA,NA,NA,NA,NA,NA,NA,NA,NA,NA,NA
SUPAMT72194,3OLQQLKKNYOKC3AZCC5ZTT9GN5AEJ3,D3A8AD4C-6300-49AF-BEDA-7419C001CBC0,2023-09-28_09h23.55.781,WP_VExplicitOC_LH,2022.2.5,Win32,13.10633167,83.51852417,3.774799999,2.078900001,NA,NA,NA,NA,NA,happy,"unhappy, happy","less happy, more happy",NA,NA,NA,NA,NA,NA,NA,NA,NA,NA,0,0,0,0,1,NA,NA,NA,NA,NA,NA,NA,NA,NA,NA,NA,NA,NA,NA,NA,NA,NA,NA,NA,NA,NA,NA,NA,NA,NA,NA,NA,NA,NA,NA,NA,NA,NA
SUPAMT72194,3OLQQLKKNYOKC3AZCC5ZTT9GN5AEJ3,D3A8AD4C-6300-49AF-BEDA-7419C001CBC0,2023-09-28_09h23.55.781,WP_VExplicitOC_LH,2022.2.5,Win32,13.10633167,-44.6296268,4.8035,2.0013,NA,NA,NA,NA,NA,frustrated,"frustrated, not frustrated","more frustrated, less frustrated",NA,NA,NA,NA,NA,NA,NA,NA,NA,NA,0,1,1,1,1,NA,NA,NA,NA,NA,NA,NA,NA,NA,NA,NA,NA,NA,NA,NA,NA,NA,NA,NA,NA,NA,NA,NA,NA,NA,NA,NA,NA,NA,NA,NA,NA,NA
SUPAMT72194,3OLQQLKKNYOKC3AZCC5ZTT9GN5AEJ3,D3A8AD4C-6300-49AF-BEDA-7419C001CBC0,2023-09-28_09h23.55.781,WP_VExplicitOC_LH,2022.2.5,Win32,13.10633167,-63.70369805,4.4326,2.0528,NA,NA,NA,NA,NA,bored,"bored, not bored","more bored, less bored",NA,NA,NA,NA,NA,NA,NA,NA,NA,NA,0,2,2,2,1,NA,NA,NA,NA,NA,NA,NA,NA,NA,NA,NA,NA,NA,NA,NA,NA,NA,NA,NA,NA,NA,NA,NA,NA,NA,NA,NA,NA,NA,NA,NA,NA,NA
SUPAMT72194,3OLQQLKKNYOKC3AZCC5ZTT9GN5AEJ3,D3A8AD4C-6300-49AF-BEDA-7419C001CBC0,2023-09-28_09h23.55.781,WP_VExplicitOC_LH,2022.2.5,Win32,13.10633167,NA,NA,NA,NA,NA,NA,NA,NA,NA,NA,NA,NA,NA,NA,NA,NA,NA,NA,NA,NA,NA,NA,NA,NA,NA,NA,NA,NA,NA,NA,NA,NA,NA,NA,NA,NA,NA,NA,NA,NA,NA,NA,NA,NA,NA,NA,NA,NA,NA,NA,NA,NA,NA,NA,NA,NA,NA,NA,NA
SUPAMT72194,3OLQQLKKNYOKC3AZCC5ZTT9GN5AEJ3,D3A8AD4C-6300-49AF-BEDA-7419C001CBC0,2023-09-28_09h23.55.781,WP_VExplicitOC_LH,2022.2.5,Win32,13.10633167,NA,NA,NA,NA,NA,NA,NA,NA,NA,NA,NA,NA,NA,NA,NA,NA,NA,NA,NA,NA,NA,NA,NA,NA,NA,NA,NA,NA,NA,NA,NA,NA,NA,NA,NA,NA,NA,NA,NA,NA,NA,NA,NA,NA,NA,NA,NA,NA,NA,NA,NA,NA,NA,NA,NA,NA,NA,NA,NA
SUPAMT72194,3OLQQLKKNYOKC3AZCC5ZTT9GN5AEJ3,D3A8AD4C-6300-49AF-BEDA-7419C001CBC0,2023-09-28_09h23.55.781,WP_VExplicitOC_LH,2022.2.5,Win32,13.10633167,-72.96296014,5.164400001,2.105900001,NA,NA,NA,NA,NA,frustrated,"frustrated, not frustrated","more frustrated, less frustrated",NA,NA,NA,NA,NA,NA,NA,NA,NA,NA,NA,NA,NA,NA,NA,0,0,0,1,1,NA,NA,NA,NA,NA,NA,NA,NA,NA,NA,NA,NA,NA,NA,NA,NA,NA,NA,NA,NA,NA,NA,NA,NA,NA,NA,NA,NA
SUPAMT72194,3OLQQLKKNYOKC3AZCC5ZTT9GN5AEJ3,D3A8AD4C-6300-49AF-BEDA-7419C001CBC0,2023-09-28_09h23.55.781,WP_VExplicitOC_LH,2022.2.5,Win32,13.10633167,-44.25925361,4.8653,2.0546,NA,NA,NA,NA,NA,bored,"bored, not bored","more bored, less bored",NA,NA,NA,NA,NA,NA,NA,NA,NA,NA,NA,NA,NA,NA,NA,0,1,1,2,1,NA,NA,NA,NA,NA,NA,NA,NA,NA,NA,NA,NA,NA,NA,NA,NA,NA,NA,NA,NA,NA,NA,NA,NA,NA,NA,NA,NA
SUPAMT72194,3OLQQLKKNYOKC3AZCC5ZTT9GN5AEJ3,D3A8AD4C-6300-49AF-BEDA-7419C001CBC0,2023-09-28_09h23.55.781,WP_VExplicitOC_LH,2022.2.5,Win32,13.10633167,78.70371501,5.6671,2.066200001,NA,NA,NA,NA,NA,happy,"unhappy, happy","less happy, more happy",NA,NA,NA,NA,NA,NA,NA,NA,NA,NA,NA,NA,NA,NA,NA,0,2,2,0,1,NA,NA,NA,NA,NA,NA,NA,NA,NA,NA,NA,NA,NA,NA,NA,NA,NA,NA,NA,NA,NA,NA,NA,NA,NA,NA,NA,NA
SUPAMT72194,3OLQQLKKNYOKC3AZCC5ZTT9GN5AEJ3,D3A8AD4C-6300-49AF-BEDA-7419C001CBC0,2023-09-28_09h23.55.781,WP_VExplicitOC_LH,2022.2.5,Win32,13.10633167,NA,NA,NA,NA,NA,NA,NA,NA,NA,NA,NA,NA,NA,NA,NA,NA,NA,NA,NA,NA,NA,NA,NA,NA,NA,NA,NA,NA,NA,NA,NA,0,0,0,0,1,NA,NA,NA,NA,NA,NA,NA,NA,NA,NA,NA,NA,NA,NA,NA,NA,NA,NA,NA,NA,NA,NA,NA
SUPAMT72194,3OLQQLKKNYOKC3AZCC5ZTT9GN5AEJ3,D3A8AD4C-6300-49AF-BEDA-7419C001CBC0,2023-09-28_09h23.55.781,WP_VExplicitOC_LH,2022.2.5,Win32,13.10633167,-44.22332106,4.5624,2.072900001,NA,NA,NA,NA,NA,bored,"bored, not bored","more bored, less bored",NA,NA,NA,NA,NA,NA,NA,NA,NA,NA,NA,NA,NA,NA,NA,0,0,0,2,1,NA,NA,NA,NA,NA,NA,NA,NA,NA,NA,NA,NA,NA,NA,NA,NA,NA,NA,NA,NA,NA,NA,NA,NA,NA,NA,NA,NA
SUPAMT72194,3OLQQLKKNYOKC3AZCC5ZTT9GN5AEJ3,D3A8AD4C-6300-49AF-BEDA-7419C001CBC0,2023-09-28_09h23.55.781,WP_VExplicitOC_LH,2022.2.5,Win32,13.10633167,-49.30900713,3.981,2.033200001,NA,NA,NA,NA,NA,frustrated,"frustrated, not frustrated","more frustrated, less frustrated",NA,NA,NA,NA,NA,NA,NA,NA,NA,NA,NA,NA,NA,NA,NA,0,1,1,1,1,NA,NA,NA,NA,NA,NA,NA,NA,NA,NA,NA,NA,NA,NA,NA,NA,NA,NA,NA,NA,NA,NA,NA,NA,NA,NA,NA,NA
SUPAMT72194,3OLQQLKKNYOKC3AZCC5ZTT9GN5AEJ3,D3A8AD4C-6300-49AF-BEDA-7419C001CBC0,2023-09-28_09h23.55.781,WP_VExplicitOC_LH,2022.2.5,Win32,13.10633167,67.88281493,3.865700001,2.076799999,NA,NA,NA,NA,NA,happy,"unhappy, happy","less happy, more happy",NA,NA,NA,NA,NA,NA,NA,NA,NA,NA,NA,NA,NA,NA,NA,0,2,2,0,1,NA,NA,NA,NA,NA,NA,NA,NA,NA,NA,NA,NA,NA,NA,NA,NA,NA,NA,NA,NA,NA,NA,NA,NA,NA,NA,NA,NA
SUPAMT72194,3OLQQLKKNYOKC3AZCC5ZTT9GN5AEJ3,D3A8AD4C-6300-49AF-BEDA-7419C001CBC0,2023-09-28_09h23.55.781,WP_VExplicitOC_LH,2022.2.5,Win32,13.10633167,NA,NA,NA,NA,NA,NA,NA,NA,NA,NA,NA,NA,NA,NA,NA,NA,NA,NA,NA,NA,NA,NA,NA,NA,NA,NA,NA,NA,NA,NA,NA,1,0,1,0,1,NA,NA,NA,NA,NA,NA,NA,NA,NA,NA,NA,NA,NA,NA,NA,NA,NA,NA,NA,NA,NA,NA,NA
SUPAMT72194,3OLQQLKKNYOKC3AZCC5ZTT9GN5AEJ3,D3A8AD4C-6300-49AF-BEDA-7419C001CBC0,2023-09-28_09h23.55.781,WP_VExplicitOC_LH,2022.2.5,Win32,13.10633167,-55.50026965,3.9653,2.044200001,NA,NA,NA,NA,NA,bored,"bored, not bored","more bored, less bored",NA,NA,NA,NA,NA,NA,NA,NA,NA,NA,NA,NA,NA,NA,NA,0,0,0,2,1,NA,NA,NA,NA,NA,NA,NA,NA,NA,NA,NA,NA,NA,NA,NA,NA,NA,NA,NA,NA,NA,NA,NA,NA,NA,NA,NA,NA
SUPAMT72194,3OLQQLKKNYOKC3AZCC5ZTT9GN5AEJ3,D3A8AD4C-6300-49AF-BEDA-7419C001CBC0,2023-09-28_09h23.55.781,WP_VExplicitOC_LH,2022.2.5,Win32,13.10633167,-24.54394693,4.2264,2.064799999,NA,NA,NA,NA,NA,frustrated,"frustrated, not frustrated","more frustrated, less frustrated",NA,NA,NA,NA,NA,NA,NA,NA,NA,NA,NA,NA,NA,NA,NA,0,1,1,1,1,NA,NA,NA,NA,NA,NA,NA,NA,NA,NA,NA,NA,NA,NA,NA,NA,NA,NA,NA,NA,NA,NA,NA,NA,NA,NA,NA,NA
SUPAMT72194,3OLQQLKKNYOKC3AZCC5ZTT9GN5AEJ3,D3A8AD4C-6300-49AF-BEDA-7419C001CBC0,2023-09-28_09h23.55.781,WP_VExplicitOC_LH,2022.2.5,Win32,13.10633167,50.85684047,5.0807,2.0686,NA,NA,NA,NA,NA,happy,"unhappy, happy","less happy, more happy",NA,NA,NA,NA,NA,NA,NA,NA,NA,NA,NA,NA,NA,NA,NA,0,2,2,0,1,NA,NA,NA,NA,NA,NA,NA,NA,NA,NA,NA,NA,NA,NA,NA,NA,NA,NA,NA,NA,NA,NA,NA,NA,NA,NA,NA,NA
SUPAMT72194,3OLQQLKKNYOKC3AZCC5ZTT9GN5AEJ3,D3A8AD4C-6300-49AF-BEDA-7419C001CBC0,2023-09-28_09h23.55.781,WP_VExplicitOC_LH,2022.2.5,Win32,13.10633167,NA,NA,NA,NA,NA,NA,NA,NA,NA,NA,NA,NA,NA,NA,NA,NA,NA,NA,NA,NA,NA,NA,NA,NA,NA,NA,NA,NA,NA,NA,NA,2,0,2,0,1,NA,NA,NA,NA,NA,NA,NA,NA,NA,NA,NA,NA,NA,NA,NA,NA,NA,NA,NA,NA,NA,NA,NA
SUPAMT72194,3OLQQLKKNYOKC3AZCC5ZTT9GN5AEJ3,D3A8AD4C-6300-49AF-BEDA-7419C001CBC0,2023-09-28_09h23.55.781,WP_VExplicitOC_LH,2022.2.5,Win32,13.10633167,67.21946501,4.724700001,2.035900001,NA,NA,NA,NA,NA,happy,"unhappy, happy","less happy, more happy",NA,NA,NA,NA,NA,NA,NA,NA,NA,NA,NA,NA,NA,NA,NA,0,0,0,0,1,NA,NA,NA,NA,NA,NA,NA,NA,NA,NA,NA,NA,NA,NA,NA,NA,NA,NA,NA,NA,NA,NA,NA,NA,NA,NA,NA,NA
SUPAMT72194,3OLQQLKKNYOKC3AZCC5ZTT9GN5AEJ3,D3A8AD4C-6300-49AF-BEDA-7419C001CBC0,2023-09-28_09h23.55.781,WP_VExplicitOC_LH,2022.2.5,Win32,13.10633167,NA,NA,2.0689,NA,NA,NA,NA,NA,frustrated,"frustrated, not frustrated","more frustrated, less frustrated",NA,NA,NA,NA,NA,NA,NA,NA,NA,NA,NA,NA,NA,NA,NA,0,1,1,1,1,NA,NA,NA,NA,NA,NA,NA,NA,NA,NA,NA,NA,NA,NA,NA,NA,NA,NA,NA,NA,NA,NA,NA,NA,NA,NA,NA,NA
SUPAMT72194,3OLQQLKKNYOKC3AZCC5ZTT9GN5AEJ3,D3A8AD4C-6300-49AF-BEDA-7419C001CBC0,2023-09-28_09h23.55.781,WP_VExplicitOC_LH,2022.2.5,Win32,13.10633167,-38.69539833,4.294,2.0695,NA,NA,NA,NA,NA,bored,"bored, not bored","more bored, less bored",NA,NA,NA,NA,NA,NA,NA,NA,NA,NA,NA,NA,NA,NA,NA,0,2,2,2,1,NA,NA,NA,NA,NA,NA,NA,NA,NA,NA,NA,NA,NA,NA,NA,NA,NA,NA,NA,NA,NA,NA,NA,NA,NA,NA,NA,NA
SUPAMT72194,3OLQQLKKNYOKC3AZCC5ZTT9GN5AEJ3,D3A8AD4C-6300-49AF-BEDA-7419C001CBC0,2023-09-28_09h23.55.781,WP_VExplicitOC_LH,2022.2.5,Win32,13.10633167,NA,NA,NA,NA,NA,NA,NA,NA,NA,NA,NA,NA,NA,NA,NA,NA,NA,NA,NA,NA,NA,NA,NA,NA,NA,NA,NA,NA,NA,NA,NA,3,0,3,0,1,NA,NA,NA,NA,NA,NA,NA,NA,NA,NA,NA,NA,NA,NA,NA,NA,NA,NA,NA,NA,NA,NA,NA
SUPAMT72194,3OLQQLKKNYOKC3AZCC5ZTT9GN5AEJ3,D3A8AD4C-6300-49AF-BEDA-7419C001CBC0,2023-09-28_09h23.55.781,WP_VExplicitOC_LH,2022.2.5,Win32,13.10633167,-26.75509983,4.0213,2.0589,NA,NA,NA,NA,NA,bored,"bored, not bored","more bored, less bored",NA,NA,NA,NA,NA,NA,NA,NA,NA,NA,NA,NA,NA,NA,NA,0,0,0,2,1,NA,NA,NA,NA,NA,NA,NA,NA,NA,NA,NA,NA,NA,NA,NA,NA,NA,NA,NA,NA,NA,NA,NA,NA,NA,NA,NA,NA
SUPAMT72194,3OLQQLKKNYOKC3AZCC5ZTT9GN5AEJ3,D3A8AD4C-6300-49AF-BEDA-7419C001CBC0,2023-09-28_09h23.55.781,WP_VExplicitOC_LH,2022.2.5,Win32,13.10633167,-26.53399668,5.0622,2.044,NA,NA,NA,NA,NA,frustrated,"frustrated, not frustrated","more frustrated, less frustrated",NA,NA,NA,NA,NA,NA,NA,NA,NA,NA,NA,NA,NA,NA,NA,0,1,1,1,1,NA,NA,NA,NA,NA,NA,NA,NA,NA,NA,NA,NA,NA,NA,NA,NA,NA,NA,NA,NA,NA,NA,NA,NA,NA,NA,NA,NA
SUPAMT72194,3OLQQLKKNYOKC3AZCC5ZTT9GN5AEJ3,D3A8AD4C-6300-49AF-BEDA-7419C001CBC0,2023-09-28_09h23.55.781,WP_VExplicitOC_LH,2022.2.5,Win32,13.10633167,62.13378906,4.386099999,2.0196,NA,NA,NA,NA,NA,happy,"unhappy, happy","less happy, more happy",NA,NA,NA,NA,NA,NA,NA,NA,NA,NA,NA,NA,NA,NA,NA,0,2,2,0,1,NA,NA,NA,NA,NA,NA,NA,NA,NA,NA,NA,NA,NA,NA,NA,NA,NA,NA,NA,NA,NA,NA,NA,NA,NA,NA,NA,NA
SUPAMT72194,3OLQQLKKNYOKC3AZCC5ZTT9GN5AEJ3,D3A8AD4C-6300-49AF-BEDA-7419C001CBC0,2023-09-28_09h23.55.781,WP_VExplicitOC_LH,2022.2.5,Win32,13.10633167,NA,NA,NA,NA,NA,NA,NA,NA,NA,NA,NA,NA,NA,NA,NA,NA,NA,NA,NA,NA,NA,NA,NA,NA,NA,NA,NA,NA,NA,NA,NA,4,0,4,0,1,NA,NA,NA,NA,NA,NA,NA,NA,NA,NA,NA,NA,NA,NA,NA,NA,NA,NA,NA,NA,NA,NA,NA
SUPAMT72194,3OLQQLKKNYOKC3AZCC5ZTT9GN5AEJ3,D3A8AD4C-6300-49AF-BEDA-7419C001CBC0,2023-09-28_09h23.55.781,WP_VExplicitOC_LH,2022.2.5,Win32,13.10633167,NA,NA,2.062,NA,NA,NA,NA,NA,happy,"unhappy, happy","less happy, more happy",NA,NA,NA,NA,NA,NA,NA,NA,NA,NA,NA,NA,NA,NA,NA,0,0,0,0,1,NA,NA,NA,NA,NA,NA,NA,NA,NA,NA,NA,NA,NA,NA,NA,NA,NA,NA,NA,NA,NA,NA,NA,NA,NA,NA,NA,NA
SUPAMT72194,3OLQQLKKNYOKC3AZCC5ZTT9GN5AEJ3,D3A8AD4C-6300-49AF-BEDA-7419C001CBC0,2023-09-28_09h23.55.781,WP_VExplicitOC_LH,2022.2.5,Win32,13.10633167,-48.86677048,4.3754,2.001,NA,NA,NA,NA,NA,bored,"bored, not bored","more bored, less bored",NA,NA,NA,NA,NA,NA,NA,NA,NA,NA,NA,NA,NA,NA,NA,0,1,1,2,1,NA,NA,NA,NA,NA,NA,NA,NA,NA,NA,NA,NA,NA,NA,NA,NA,NA,NA,NA,NA,NA,NA,NA,NA,NA,NA,NA,NA
SUPAMT72194,3OLQQLKKNYOKC3AZCC5ZTT9GN5AEJ3,D3A8AD4C-6300-49AF-BEDA-7419C001CBC0,2023-09-28_09h23.55.781,WP_VExplicitOC_LH,2022.2.5,Win32,13.10633167,-42.89662122,3.8284,2.0379,NA,NA,NA,NA,NA,frustrated,"frustrated, not frustrated","more frustrated, less frustrated",NA,NA,NA,NA,NA,NA,NA,NA,NA,NA,NA,NA,NA,NA,NA,0,2,2,1,1,NA,NA,NA,NA,NA,NA,NA,NA,NA,NA,NA,NA,NA,NA,NA,NA,NA,NA,NA,NA,NA,NA,NA,NA,NA,NA,NA,NA
SUPAMT72194,3OLQQLKKNYOKC3AZCC5ZTT9GN5AEJ3,D3A8AD4C-6300-49AF-BEDA-7419C001CBC0,2023-09-28_09h23.55.781,WP_VExplicitOC_LH,2022.2.5,Win32,13.10633167,NA,NA,NA,NA,NA,NA,NA,NA,NA,NA,NA,NA,NA,NA,NA,NA,NA,NA,NA,NA,NA,NA,NA,NA,NA,NA,NA,NA,NA,NA,NA,5,0,5,0,1,NA,NA,NA,NA,NA,NA,NA,NA,NA,NA,NA,NA,NA,NA,NA,NA,NA,NA,NA,NA,NA,NA,NA
SUPAMT72194,3OLQQLKKNYOKC3AZCC5ZTT9GN5AEJ3,D3A8AD4C-6300-49AF-BEDA-7419C001CBC0,2023-09-28_09h23.55.781,WP_VExplicitOC_LH,2022.2.5,Win32,13.10633167,NA,NA,2.039200001,NA,NA,NA,NA,NA,happy,"unhappy, happy","less happy, more happy",NA,NA,NA,NA,NA,NA,NA,NA,NA,NA,NA,NA,NA,NA,NA,0,0,0,0,1,NA,NA,NA,NA,NA,NA,NA,NA,NA,NA,NA,NA,NA,NA,NA,NA,NA,NA,NA,NA,NA,NA,NA,NA,NA,NA,NA,NA
SUPAMT72194,3OLQQLKKNYOKC3AZCC5ZTT9GN5AEJ3,D3A8AD4C-6300-49AF-BEDA-7419C001CBC0,2023-09-28_09h23.55.781,WP_VExplicitOC_LH,2022.2.5,Win32,13.10633167,-44.44444444,4.320299999,2.0449,NA,NA,NA,NA,NA,bored,"bored, not bored","more bored, less bored",NA,NA,NA,NA,NA,NA,NA,NA,NA,NA,NA,NA,NA,NA,NA,0,1,1,2,1,NA,NA,NA,NA,NA,NA,NA,NA,NA,NA,NA,NA,NA,NA,NA,NA,NA,NA,NA,NA,NA,NA,NA,NA,NA,NA,NA,NA
SUPAMT72194,3OLQQLKKNYOKC3AZCC5ZTT9GN5AEJ3,D3A8AD4C-6300-49AF-BEDA-7419C001CBC0,2023-09-28_09h23.55.781,WP_VExplicitOC_LH,2022.2.5,Win32,13.10633167,-47.98230729,4.001,2.076,NA,NA,NA,NA,NA,frustrated,"frustrated, not frustrated","more frustrated, less frustrated",NA,NA,NA,NA,NA,NA,NA,NA,NA,NA,NA,NA,NA,NA,NA,0,2,2,1,1,NA,NA,NA,NA,NA,NA,NA,NA,NA,NA,NA,NA,NA,NA,NA,NA,NA,NA,NA,NA,NA,NA,NA,NA,NA,NA,NA,NA
SUPAMT72194,3OLQQLKKNYOKC3AZCC5ZTT9GN5AEJ3,D3A8AD4C-6300-49AF-BEDA-7419C001CBC0,2023-09-28_09h23.55.781,WP_VExplicitOC_LH,2022.2.5,Win32,13.10633167,NA,NA,NA,NA,NA,NA,NA,NA,NA,NA,NA,NA,NA,NA,NA,NA,NA,NA,NA,NA,NA,NA,NA,NA,NA,NA,NA,NA,NA,NA,NA,6,0,6,0,1,NA,NA,NA,NA,NA,NA,NA,NA,NA,NA,NA,NA,NA,NA,NA,NA,NA,NA,NA,NA,NA,NA,NA
SUPAMT72194,3OLQQLKKNYOKC3AZCC5ZTT9GN5AEJ3,D3A8AD4C-6300-49AF-BEDA-7419C001CBC0,2023-09-28_09h23.55.781,WP_VExplicitOC_LH,2022.2.5,Win32,13.10633167,85.79326269,5.3235,2.0013,NA,NA,NA,NA,NA,happy,"unhappy, happy","less happy, more happy",NA,NA,NA,NA,NA,NA,NA,NA,NA,NA,NA,NA,NA,NA,NA,0,0,0,0,1,NA,NA,NA,NA,NA,NA,NA,NA,NA,NA,NA,NA,NA,NA,NA,NA,NA,NA,NA,NA,NA,NA,NA,NA,NA,NA,NA,NA
SUPAMT72194,3OLQQLKKNYOKC3AZCC5ZTT9GN5AEJ3,D3A8AD4C-6300-49AF-BEDA-7419C001CBC0,2023-09-28_09h23.55.781,WP_VExplicitOC_LH,2022.2.5,Win32,13.10633167,-52.84686998,4.4979,2.0782,NA,NA,NA,NA,NA,bored,"bored, not bored","more bored, less bored",NA,NA,NA,NA,NA,NA,NA,NA,NA,NA,NA,NA,NA,NA,NA,0,1,1,2,1,NA,NA,NA,NA,NA,NA,NA,NA,NA,NA,NA,NA,NA,NA,NA,NA,NA,NA,NA,NA,NA,NA,NA,NA,NA,NA,NA,NA
SUPAMT72194,3OLQQLKKNYOKC3AZCC5ZTT9GN5AEJ3,D3A8AD4C-6300-49AF-BEDA-7419C001CBC0,2023-09-28_09h23.55.781,WP_VExplicitOC_LH,2022.2.5,Win32,13.10633167,-62.79711874,3.764599999,2.0488,NA,NA,NA,NA,NA,frustrated,"frustrated, not frustrated","more frustrated, less frustrated",NA,NA,NA,NA,NA,NA,NA,NA,NA,NA,NA,NA,NA,NA,NA,0,2,2,1,1,NA,NA,NA,NA,NA,NA,NA,NA,NA,NA,NA,NA,NA,NA,NA,NA,NA,NA,NA,NA,NA,NA,NA,NA,NA,NA,NA,NA
SUPAMT72194,3OLQQLKKNYOKC3AZCC5ZTT9GN5AEJ3,D3A8AD4C-6300-49AF-BEDA-7419C001CBC0,2023-09-28_09h23.55.781,WP_VExplicitOC_LH,2022.2.5,Win32,13.10633167,NA,NA,NA,NA,NA,NA,NA,NA,NA,NA,NA,NA,NA,NA,NA,NA,NA,NA,NA,NA,NA,NA,NA,NA,NA,NA,NA,NA,NA,NA,NA,7,0,7,0,1,NA,NA,NA,NA,NA,NA,NA,NA,NA,NA,NA,NA,NA,NA,NA,NA,NA,NA,NA,NA,NA,NA,NA
SUPAMT72194,3OLQQLKKNYOKC3AZCC5ZTT9GN5AEJ3,D3A8AD4C-6300-49AF-BEDA-7419C001CBC0,2023-09-28_09h23.55.781,WP_VExplicitOC_LH,2022.2.5,Win32,13.10633167,-42.23327131,4.1684,2.0358,NA,NA,NA,NA,NA,bored,"bored, not bored","more bored, less bored",NA,NA,NA,NA,NA,NA,NA,NA,NA,NA,NA,NA,NA,NA,NA,0,0,0,2,1,NA,NA,NA,NA,NA,NA,NA,NA,NA,NA,NA,NA,NA,NA,NA,NA,NA,NA,NA,NA,NA,NA,NA,NA,NA,NA,NA,NA
SUPAMT72194,3OLQQLKKNYOKC3AZCC5ZTT9GN5AEJ3,D3A8AD4C-6300-49AF-BEDA-7419C001CBC0,2023-09-28_09h23.55.781,WP_VExplicitOC_LH,2022.2.5,Win32,13.10633167,-37.81094527,3.8625,2.064700001,NA,NA,NA,NA,NA,frustrated,"frustrated, not frustrated","more frustrated, less frustrated",NA,NA,NA,NA,NA,NA,NA,NA,NA,NA,NA,NA,NA,NA,NA,0,1,1,1,1,NA,NA,NA,NA,NA,NA,NA,NA,NA,NA,NA,NA,NA,NA,NA,NA,NA,NA,NA,NA,NA,NA,NA,NA,NA,NA,NA,NA
SUPAMT72194,3OLQQLKKNYOKC3AZCC5ZTT9GN5AEJ3,D3A8AD4C-6300-49AF-BEDA-7419C001CBC0,2023-09-28_09h23.55.781,WP_VExplicitOC_LH,2022.2.5,Win32,13.10633167,70.75733798,4.31,2.063599999,NA,NA,NA,NA,NA,happy,"unhappy, happy","less happy, more happy",NA,NA,NA,NA,NA,NA,NA,NA,NA,NA,NA,NA,NA,NA,NA,0,2,2,0,1,NA,NA,NA,NA,NA,NA,NA,NA,NA,NA,NA,NA,NA,NA,NA,NA,NA,NA,NA,NA,NA,NA,NA,NA,NA,NA,NA,NA
SUPAMT72194,3OLQQLKKNYOKC3AZCC5ZTT9GN5AEJ3,D3A8AD4C-6300-49AF-BEDA-7419C001CBC0,2023-09-28_09h23.55.781,WP_VExplicitOC_LH,2022.2.5,Win32,13.10633167,NA,NA,NA,NA,NA,NA,NA,NA,NA,NA,NA,NA,NA,NA,NA,NA,NA,NA,NA,NA,NA,NA,NA,NA,NA,NA,NA,NA,NA,NA,NA,8,0,8,0,1,NA,NA,NA,NA,NA,NA,NA,NA,NA,NA,NA,NA,NA,NA,NA,NA,NA,NA,NA,NA,NA,NA,NA
SUPAMT72194,3OLQQLKKNYOKC3AZCC5ZTT9GN5AEJ3,D3A8AD4C-6300-49AF-BEDA-7419C001CBC0,2023-09-28_09h23.55.781,WP_VExplicitOC_LH,2022.2.5,Win32,13.10633167,67.66169154,3.9115,2.0325,NA,NA,NA,NA,NA,happy,"unhappy, happy","less happy, more happy",NA,NA,NA,NA,NA,NA,NA,NA,NA,NA,NA,NA,NA,NA,NA,0,0,0,0,1,NA,NA,NA,NA,NA,NA,NA,NA,NA,NA,NA,NA,NA,NA,NA,NA,NA,NA,NA,NA,NA,NA,NA,NA,NA,NA,NA,NA
SUPAMT72194,3OLQQLKKNYOKC3AZCC5ZTT9GN5AEJ3,D3A8AD4C-6300-49AF-BEDA-7419C001CBC0,2023-09-28_09h23.55.781,WP_VExplicitOC_LH,2022.2.5,Win32,13.10633167,-59.25925589,4.4704,2.0625,NA,NA,NA,NA,NA,frustrated,"frustrated, not frustrated","more frustrated, less frustrated",NA,NA,NA,NA,NA,NA,NA,NA,NA,NA,NA,NA,NA,NA,NA,0,1,1,1,1,NA,NA,NA,NA,NA,NA,NA,NA,NA,NA,NA,NA,NA,NA,NA,NA,NA,NA,NA,NA,NA,NA,NA,NA,NA,NA,NA,NA
SUPAMT72194,3OLQQLKKNYOKC3AZCC5ZTT9GN5AEJ3,D3A8AD4C-6300-49AF-BEDA-7419C001CBC0,2023-09-28_09h23.55.781,WP_VExplicitOC_LH,2022.2.5,Win32,13.10633167,-50.85682023,4.2838,2.0634,NA,NA,NA,NA,NA,bored,"bored, not bored","more bored, less bored",NA,NA,NA,NA,NA,NA,NA,NA,NA,NA,NA,NA,NA,NA,NA,0,2,2,2,1,NA,NA,NA,NA,NA,NA,NA,NA,NA,NA,NA,NA,NA,NA,NA,NA,NA,NA,NA,NA,NA,NA,NA,NA,NA,NA,NA,NA
SUPAMT72194,3OLQQLKKNYOKC3AZCC5ZTT9GN5AEJ3,D3A8AD4C-6300-49AF-BEDA-7419C001CBC0,2023-09-28_09h23.55.781,WP_VExplicitOC_LH,2022.2.5,Win32,13.10633167,NA,NA,NA,NA,NA,NA,NA,NA,NA,NA,NA,NA,NA,NA,NA,NA,NA,NA,NA,NA,NA,NA,NA,NA,NA,NA,NA,NA,NA,NA,NA,9,0,9,0,1,NA,NA,NA,NA,NA,NA,NA,NA,NA,NA,NA,NA,NA,NA,NA,NA,NA,NA,NA,NA,NA,NA,NA
SUPAMT72194,3OLQQLKKNYOKC3AZCC5ZTT9GN5AEJ3,D3A8AD4C-6300-49AF-BEDA-7419C001CBC0,2023-09-28_09h23.55.781,WP_VExplicitOC_LH,2022.2.5,Win32,13.10633167,NA,NA,2.054700001,NA,NA,NA,NA,NA,happy,"unhappy, happy","less happy, more happy",NA,NA,NA,NA,NA,NA,NA,NA,NA,NA,NA,NA,NA,NA,NA,0,0,0,0,1,NA,NA,NA,NA,NA,NA,NA,NA,NA,NA,NA,NA,NA,NA,NA,NA,NA,NA,NA,NA,NA,NA,NA,NA,NA,NA,NA,NA
SUPAMT72194,3OLQQLKKNYOKC3AZCC5ZTT9GN5AEJ3,D3A8AD4C-6300-49AF-BEDA-7419C001CBC0,2023-09-28_09h23.55.781,WP_VExplicitOC_LH,2022.2.5,Win32,13.10633167,-40.02209817,4.0844,2.054,NA,NA,NA,NA,NA,frustrated,"frustrated, not frustrated","more frustrated, less frustrated",NA,NA,NA,NA,NA,NA,NA,NA,NA,NA,NA,NA,NA,NA,NA,0,1,1,1,1,NA,NA,NA,NA,NA,NA,NA,NA,NA,NA,NA,NA,NA,NA,NA,NA,NA,NA,NA,NA,NA,NA,NA,NA,NA,NA,NA,NA
SUPAMT72194,3OLQQLKKNYOKC3AZCC5ZTT9GN5AEJ3,D3A8AD4C-6300-49AF-BEDA-7419C001CBC0,2023-09-28_09h23.55.781,WP_VExplicitOC_LH,2022.2.5,Win32,13.10633167,-39.57987164,3.9648,2.0673,NA,NA,NA,NA,NA,bored,"bored, not bored","more bored, less bored",NA,NA,NA,NA,NA,NA,NA,NA,NA,NA,NA,NA,NA,NA,NA,0,2,2,2,1,NA,NA,NA,NA,NA,NA,NA,NA,NA,NA,NA,NA,NA,NA,NA,NA,NA,NA,NA,NA,NA,NA,NA,NA,NA,NA,NA,NA
SUPAMT72194,3OLQQLKKNYOKC3AZCC5ZTT9GN5AEJ3,D3A8AD4C-6300-49AF-BEDA-7419C001CBC0,2023-09-28_09h23.55.781,WP_VExplicitOC_LH,2022.2.5,Win32,13.10633167,NA,NA,NA,NA,NA,NA,NA,NA,NA,NA,NA,NA,NA,NA,NA,NA,NA,NA,NA,NA,NA,NA,NA,NA,NA,NA,NA,NA,NA,NA,NA,10,0,10,0,1,NA,NA,NA,NA,NA,NA,NA,NA,NA,NA,NA,NA,NA,NA,NA,NA,NA,NA,NA,NA,NA,NA,NA
SUPAMT72194,3OLQQLKKNYOKC3AZCC5ZTT9GN5AEJ3,D3A8AD4C-6300-49AF-BEDA-7419C001CBC0,2023-09-28_09h23.55.781,WP_VExplicitOC_LH,2022.2.5,Win32,13.10633167,-42.23327131,4.2777,2.0487,NA,NA,NA,NA,NA,frustrated,"frustrated, not frustrated","more frustrated, less frustrated",NA,NA,NA,NA,NA,NA,NA,NA,NA,NA,NA,NA,NA,NA,NA,0,0,0,1,1,NA,NA,NA,NA,NA,NA,NA,NA,NA,NA,NA,NA,NA,NA,NA,NA,NA,NA,NA,NA,NA,NA,NA,NA,NA,NA,NA,NA
SUPAMT72194,3OLQQLKKNYOKC3AZCC5ZTT9GN5AEJ3,D3A8AD4C-6300-49AF-BEDA-7419C001CBC0,2023-09-28_09h23.55.781,WP_VExplicitOC_LH,2022.2.5,Win32,13.10633167,58.81703948,3.692299999,2.0211,NA,NA,NA,NA,NA,happy,"unhappy, happy","less happy, more happy",NA,NA,NA,NA,NA,NA,NA,NA,NA,NA,NA,NA,NA,NA,NA,0,1,1,0,1,NA,NA,NA,NA,NA,NA,NA,NA,NA,NA,NA,NA,NA,NA,NA,NA,NA,NA,NA,NA,NA,NA,NA,NA,NA,NA,NA,NA
SUPAMT72194,3OLQQLKKNYOKC3AZCC5ZTT9GN5AEJ3,D3A8AD4C-6300-49AF-BEDA-7419C001CBC0,2023-09-28_09h23.55.781,WP_VExplicitOC_LH,2022.2.5,Win32,13.10633167,-60.36484245,4.1893,2.000200001,NA,NA,NA,NA,NA,bored,"bored, not bored","more bored, less bored",NA,NA,NA,NA,NA,NA,NA,NA,NA,NA,NA,NA,NA,NA,NA,0,2,2,2,1,NA,NA,NA,NA,NA,NA,NA,NA,NA,NA,NA,NA,NA,NA,NA,NA,NA,NA,NA,NA,NA,NA,NA,NA,NA,NA,NA,NA
SUPAMT72194,3OLQQLKKNYOKC3AZCC5ZTT9GN5AEJ3,D3A8AD4C-6300-49AF-BEDA-7419C001CBC0,2023-09-28_09h23.55.781,WP_VExplicitOC_LH,2022.2.5,Win32,13.10633167,NA,NA,NA,NA,NA,NA,NA,NA,NA,NA,NA,NA,NA,NA,NA,NA,NA,NA,NA,NA,NA,NA,NA,NA,NA,NA,NA,NA,NA,NA,NA,11,0,11,0,1,NA,NA,NA,NA,NA,NA,NA,NA,NA,NA,NA,NA,NA,NA,NA,NA,NA,NA,NA,NA,NA,NA,NA
SUPAMT72194,3OLQQLKKNYOKC3AZCC5ZTT9GN5AEJ3,D3A8AD4C-6300-49AF-BEDA-7419C001CBC0,2023-09-28_09h23.55.781,WP_VExplicitOC_LH,2022.2.5,Win32,13.10633167,63.23936551,4.34,2.064799999,NA,NA,NA,NA,NA,happy,"unhappy, happy","less happy, more happy",NA,NA,NA,NA,NA,NA,NA,NA,NA,NA,NA,NA,NA,NA,NA,0,0,0,0,1,NA,NA,NA,NA,NA,NA,NA,NA,NA,NA,NA,NA,NA,NA,NA,NA,NA,NA,NA,NA,NA,NA,NA,NA,NA,NA,NA,NA
SUPAMT72194,3OLQQLKKNYOKC3AZCC5ZTT9GN5AEJ3,D3A8AD4C-6300-49AF-BEDA-7419C001CBC0,2023-09-28_09h23.55.781,WP_VExplicitOC_LH,2022.2.5,Win32,13.10633167,-38.91652172,3.9936,2.0598,NA,NA,NA,NA,NA,frustrated,"frustrated, not frustrated","more frustrated, less frustrated",NA,NA,NA,NA,NA,NA,NA,NA,NA,NA,NA,NA,NA,NA,NA,0,1,1,1,1,NA,NA,NA,NA,NA,NA,NA,NA,NA,NA,NA,NA,NA,NA,NA,NA,NA,NA,NA,NA,NA,NA,NA,NA,NA,NA,NA,NA
SUPAMT72194,3OLQQLKKNYOKC3AZCC5ZTT9GN5AEJ3,D3A8AD4C-6300-49AF-BEDA-7419C001CBC0,2023-09-28_09h23.55.781,WP_VExplicitOC_LH,2022.2.5,Win32,13.10633167,-53.5102199,3.884200001,2.0582,NA,NA,NA,NA,NA,bored,"bored, not bored","more bored, less bored",NA,NA,NA,NA,NA,NA,NA,NA,NA,NA,NA,NA,NA,NA,NA,0,2,2,2,1,NA,NA,NA,NA,NA,NA,NA,NA,NA,NA,NA,NA,NA,NA,NA,NA,NA,NA,NA,NA,NA,NA,NA,NA,NA,NA,NA,NA
SUPAMT72194,3OLQQLKKNYOKC3AZCC5ZTT9GN5AEJ3,D3A8AD4C-6300-49AF-BEDA-7419C001CBC0,2023-09-28_09h23.55.781,WP_VExplicitOC_LH,2022.2.5,Win32,13.10633167,NA,NA,NA,NA,NA,NA,NA,NA,NA,NA,NA,NA,NA,NA,NA,NA,NA,NA,NA,NA,NA,NA,NA,NA,NA,NA,NA,NA,NA,NA,NA,12,0,12,0,1,NA,NA,NA,NA,NA,NA,NA,NA,NA,NA,NA,NA,NA,NA,NA,NA,NA,NA,NA,NA,NA,NA,NA
SUPAMT72194,3OLQQLKKNYOKC3AZCC5ZTT9GN5AEJ3,D3A8AD4C-6300-49AF-BEDA-7419C001CBC0,2023-09-28_09h23.55.781,WP_VExplicitOC_LH,2022.2.5,Win32,13.10633167,73.18961427,4.380700001,2.054900001,NA,NA,NA,NA,NA,happy,"unhappy, happy","less happy, more happy",NA,NA,NA,NA,NA,NA,NA,NA,NA,NA,NA,NA,NA,NA,NA,0,0,0,0,1,NA,NA,NA,NA,NA,NA,NA,NA,NA,NA,NA,NA,NA,NA,NA,NA,NA,NA,NA,NA,NA,NA,NA,NA,NA,NA,NA,NA
SUPAMT72194,3OLQQLKKNYOKC3AZCC5ZTT9GN5AEJ3,D3A8AD4C-6300-49AF-BEDA-7419C001CBC0,2023-09-28_09h23.55.781,WP_VExplicitOC_LH,2022.2.5,Win32,13.10633167,-59.03814262,3.9135,2.0608,NA,NA,NA,NA,NA,bored,"bored, not bored","more bored, less bored",NA,NA,NA,NA,NA,NA,NA,NA,NA,NA,NA,NA,NA,NA,NA,0,1,1,2,1,NA,NA,NA,NA,NA,NA,NA,NA,NA,NA,NA,NA,NA,NA,NA,NA,NA,NA,NA,NA,NA,NA,NA,NA,NA,NA,NA,NA
SUPAMT72194,3OLQQLKKNYOKC3AZCC5ZTT9GN5AEJ3,D3A8AD4C-6300-49AF-BEDA-7419C001CBC0,2023-09-28_09h23.55.781,WP_VExplicitOC_LH,2022.2.5,Win32,13.10633167,2.874523055,3.3439,2.004700001,NA,NA,NA,NA,NA,frustrated,"frustrated, not frustrated","more frustrated, less frustrated",NA,NA,NA,NA,NA,NA,NA,NA,NA,NA,NA,NA,NA,NA,NA,0,2,2,1,1,NA,NA,NA,NA,NA,NA,NA,NA,NA,NA,NA,NA,NA,NA,NA,NA,NA,NA,NA,NA,NA,NA,NA,NA,NA,NA,NA,NA
SUPAMT72194,3OLQQLKKNYOKC3AZCC5ZTT9GN5AEJ3,D3A8AD4C-6300-49AF-BEDA-7419C001CBC0,2023-09-28_09h23.55.781,WP_VExplicitOC_LH,2022.2.5,Win32,13.10633167,NA,NA,NA,NA,NA,NA,NA,NA,NA,NA,NA,NA,NA,NA,NA,NA,NA,NA,NA,NA,NA,NA,NA,NA,NA,NA,NA,NA,NA,NA,NA,13,0,13,0,1,NA,NA,NA,NA,NA,NA,NA,NA,NA,NA,NA,NA,NA,NA,NA,NA,NA,NA,NA,NA,NA,NA,NA
SUPAMT72194,3OLQQLKKNYOKC3AZCC5ZTT9GN5AEJ3,D3A8AD4C-6300-49AF-BEDA-7419C001CBC0,2023-09-28_09h23.55.781,WP_VExplicitOC_LH,2022.2.5,Win32,13.10633167,-41.348798,3.904,2.065099999,NA,NA,NA,NA,NA,bored,"bored, not bored","more bored, less bored",NA,NA,NA,NA,NA,NA,NA,NA,NA,NA,NA,NA,NA,NA,NA,0,0,0,2,1,NA,NA,NA,NA,NA,NA,NA,NA,NA,NA,NA,NA,NA,NA,NA,NA,NA,NA,NA,NA,NA,NA,NA,NA,NA,NA,NA,NA
SUPAMT72194,3OLQQLKKNYOKC3AZCC5ZTT9GN5AEJ3,D3A8AD4C-6300-49AF-BEDA-7419C001CBC0,2023-09-28_09h23.55.781,WP_VExplicitOC_LH,2022.2.5,Win32,13.10633167,61.69154229,3.8699,2.044,NA,NA,NA,NA,NA,happy,"unhappy, happy","less happy, more happy",NA,NA,NA,NA,NA,NA,NA,NA,NA,NA,NA,NA,NA,NA,NA,0,1,1,0,1,NA,NA,NA,NA,NA,NA,NA,NA,NA,NA,NA,NA,NA,NA,NA,NA,NA,NA,NA,NA,NA,NA,NA,NA,NA,NA,NA,NA
SUPAMT72194,3OLQQLKKNYOKC3AZCC5ZTT9GN5AEJ3,D3A8AD4C-6300-49AF-BEDA-7419C001CBC0,2023-09-28_09h23.55.781,WP_VExplicitOC_LH,2022.2.5,Win32,13.10633167,-49.97235705,4.6615,2.0612,NA,NA,NA,NA,NA,frustrated,"frustrated, not frustrated","more frustrated, less frustrated",NA,NA,NA,NA,NA,NA,NA,NA,NA,NA,NA,NA,NA,NA,NA,0,2,2,1,1,NA,NA,NA,NA,NA,NA,NA,NA,NA,NA,NA,NA,NA,NA,NA,NA,NA,NA,NA,NA,NA,NA,NA,NA,NA,NA,NA,NA
SUPAMT72194,3OLQQLKKNYOKC3AZCC5ZTT9GN5AEJ3,D3A8AD4C-6300-49AF-BEDA-7419C001CBC0,2023-09-28_09h23.55.781,WP_VExplicitOC_LH,2022.2.5,Win32,13.10633167,NA,NA,NA,NA,NA,NA,NA,NA,NA,NA,NA,NA,NA,NA,NA,NA,NA,NA,NA,NA,NA,NA,NA,NA,NA,NA,NA,NA,NA,NA,NA,14,0,14,0,1,NA,NA,NA,NA,NA,NA,NA,NA,NA,NA,NA,NA,NA,NA,NA,NA,NA,NA,NA,NA,NA,NA,NA
SUPAMT72194,3OLQQLKKNYOKC3AZCC5ZTT9GN5AEJ3,D3A8AD4C-6300-49AF-BEDA-7419C001CBC0,2023-09-28_09h23.55.781,WP_VExplicitOC_LH,2022.2.5,Win32,13.10633167,NA,NA,NA,NA,NA,NA,NA,NA,NA,NA,NA,NA,NA,NA,NA,NA,NA,NA,NA,NA,NA,NA,NA,NA,NA,NA,NA,NA,NA,NA,NA,NA,NA,NA,NA,NA,NA,NA,NA,NA,NA,NA,NA,NA,NA,NA,NA,NA,NA,NA,NA,NA,NA,NA,NA,NA,NA,NA,NA
SUPAMT72194,3OLQQLKKNYOKC3AZCC5ZTT9GN5AEJ3,D3A8AD4C-6300-49AF-BEDA-7419C001CBC0,2023-09-28_09h23.55.781,WP_VExplicitOC_LH,2022.2.5,Win32,13.10633167,NA,NA,NA,NA,NA,NA,NA,NA,NA,NA,NA,NA,NA,NA,NA,NA,NA,NA,NA,NA,NA,NA,NA,NA,NA,NA,NA,NA,NA,NA,NA,NA,NA,NA,NA,NA,NA,NA,NA,NA,NA,NA,NA,NA,NA,NA,NA,NA,NA,NA,NA,NA,NA,NA,NA,NA,NA,NA,NA
SUPAMT72194,3OLQQLKKNYOKC3AZCC5ZTT9GN5AEJ3,D3A8AD4C-6300-49AF-BEDA-7419C001CBC0,2023-09-28_09h23.55.781,WP_VExplicitOC_LH,2022.2.5,Win32,13.10633167,NA,NA,NA,NA,NA,NA,NA,NA,NA,NA,NA,NA,NA,NA,NA,NA,NA,NA,rest (looking at a fixed cross),001.png,NA,NA,NA,NA,NA,NA,NA,NA,NA,NA,NA,NA,NA,NA,NA,NA,78.4964136,4.3932,0,0,0,0,1,NA,NA,NA,NA,NA,NA,NA,NA,NA,NA,NA,NA,NA,NA,NA,NA
SUPAMT72194,3OLQQLKKNYOKC3AZCC5ZTT9GN5AEJ3,D3A8AD4C-6300-49AF-BEDA-7419C001CBC0,2023-09-28_09h23.55.781,WP_VExplicitOC_LH,2022.2.5,Win32,13.10633167,NA,NA,NA,NA,NA,NA,NA,NA,NA,NA,NA,NA,NA,NA,NA,NA,NA,NA,stand up,002.png,NA,NA,NA,NA,NA,NA,NA,NA,NA,NA,NA,NA,NA,NA,NA,NA,60.58596584,3.6402,0,1,1,1,1,NA,NA,NA,NA,NA,NA,NA,NA,NA,NA,NA,NA,NA,NA,NA,NA
SUPAMT72194,3OLQQLKKNYOKC3AZCC5ZTT9GN5AEJ3,D3A8AD4C-6300-49AF-BEDA-7419C001CBC0,2023-09-28_09h23.55.781,WP_VExplicitOC_LH,2022.2.5,Win32,13.10633167,NA,NA,NA,NA,NA,NA,NA,NA,NA,NA,NA,NA,NA,NA,NA,NA,NA,NA,stretch,003.png,NA,NA,NA,NA,NA,NA,NA,NA,NA,NA,NA,NA,NA,NA,NA,NA,69.65174129,3.0903,0,2,2,2,1,NA,NA,NA,NA,NA,NA,NA,NA,NA,NA,NA,NA,NA,NA,NA,NA
SUPAMT72194,3OLQQLKKNYOKC3AZCC5ZTT9GN5AEJ3,D3A8AD4C-6300-49AF-BEDA-7419C001CBC0,2023-09-28_09h23.55.781,WP_VExplicitOC_LH,2022.2.5,Win32,13.10633167,NA,NA,NA,NA,NA,NA,NA,NA,NA,NA,NA,NA,NA,NA,NA,NA,NA,NA,make a drink,004.png,NA,NA,NA,NA,NA,NA,NA,NA,NA,NA,NA,NA,NA,NA,NA,NA,49.08789386,2.6463,0,3,3,3,1,NA,NA,NA,NA,NA,NA,NA,NA,NA,NA,NA,NA,NA,NA,NA,NA
SUPAMT72194,3OLQQLKKNYOKC3AZCC5ZTT9GN5AEJ3,D3A8AD4C-6300-49AF-BEDA-7419C001CBC0,2023-09-28_09h23.55.781,WP_VExplicitOC_LH,2022.2.5,Win32,13.10633167,NA,NA,NA,NA,NA,NA,NA,NA,NA,NA,NA,NA,NA,NA,NA,NA,NA,NA,scroll social media,005.png,NA,NA,NA,NA,NA,NA,NA,NA,NA,NA,NA,NA,NA,NA,NA,NA,55.05804312,2.5834,0,4,4,4,1,NA,NA,NA,NA,NA,NA,NA,NA,NA,NA,NA,NA,NA,NA,NA,NA
SUPAMT72194,3OLQQLKKNYOKC3AZCC5ZTT9GN5AEJ3,D3A8AD4C-6300-49AF-BEDA-7419C001CBC0,2023-09-28_09h23.55.781,WP_VExplicitOC_LH,2022.2.5,Win32,13.10633167,NA,NA,NA,NA,NA,NA,NA,NA,NA,NA,NA,NA,NA,NA,NA,NA,NA,NA,listen to music,006.png,NA,NA,NA,NA,NA,NA,NA,NA,NA,NA,NA,NA,NA,NA,NA,NA,55.05804312,2.427099999,0,5,5,5,1,NA,NA,NA,NA,NA,NA,NA,NA,NA,NA,NA,NA,NA,NA,NA,NA
SUPAMT72194,3OLQQLKKNYOKC3AZCC5ZTT9GN5AEJ3,D3A8AD4C-6300-49AF-BEDA-7419C001CBC0,2023-09-28_09h23.55.781,WP_VExplicitOC_LH,2022.2.5,Win32,13.10633167,NA,NA,NA,NA,NA,NA,NA,NA,NA,NA,NA,NA,NA,NA,NA,NA,NA,NA,daydream,007.png,NA,NA,NA,NA,NA,NA,NA,NA,NA,NA,NA,NA,NA,NA,NA,NA,75.4007874,2.4301,0,6,6,6,1,NA,NA,NA,NA,NA,NA,NA,NA,NA,NA,NA,NA,NA,NA,NA,NA
SUPAMT72194,3OLQQLKKNYOKC3AZCC5ZTT9GN5AEJ3,D3A8AD4C-6300-49AF-BEDA-7419C001CBC0,2023-09-28_09h23.55.781,WP_VExplicitOC_LH,2022.2.5,Win32,13.10633167,NA,NA,NA,NA,NA,NA,NA,NA,NA,NA,NA,NA,NA,NA,NA,NA,NA,NA,watch a short animation,008.png,NA,NA,NA,NA,NA,NA,NA,NA,NA,NA,NA,NA,NA,NA,NA,NA,53.95246667,2.2588,0,7,7,7,1,NA,NA,NA,NA,NA,NA,NA,NA,NA,NA,NA,NA,NA,NA,NA,NA
SUPAMT72194,3OLQQLKKNYOKC3AZCC5ZTT9GN5AEJ3,D3A8AD4C-6300-49AF-BEDA-7419C001CBC0,2023-09-28_09h23.55.781,WP_VExplicitOC_LH,2022.2.5,Win32,13.10633167,NA,NA,NA,NA,NA,NA,NA,NA,NA,NA,NA,NA,NA,NA,NA,NA,NA,NA,read a novel,009.png,NA,NA,NA,NA,NA,NA,NA,NA,NA,NA,NA,NA,NA,NA,NA,NA,30.51409619,1.968299999,0,8,8,8,1,NA,NA,NA,NA,NA,NA,NA,NA,NA,NA,NA,NA,NA,NA,NA,NA
SUPAMT72194,3OLQQLKKNYOKC3AZCC5ZTT9GN5AEJ3,D3A8AD4C-6300-49AF-BEDA-7419C001CBC0,2023-09-28_09h23.55.781,WP_VExplicitOC_LH,2022.2.5,Win32,13.10633167,NA,NA,NA,NA,NA,NA,NA,NA,NA,NA,NA,NA,NA,NA,NA,NA,NA,NA,read the news,010.png,NA,NA,NA,NA,NA,NA,NA,NA,NA,NA,NA,NA,NA,NA,NA,NA,42.89664147,1.9858,0,9,9,9,1,NA,NA,NA,NA,NA,NA,NA,NA,NA,NA,NA,NA,NA,NA,NA,NA
SUPAMT72194,3OLQQLKKNYOKC3AZCC5ZTT9GN5AEJ3,D3A8AD4C-6300-49AF-BEDA-7419C001CBC0,2023-09-28_09h23.55.781,WP_VExplicitOC_LH,2022.2.5,Win32,13.10633167,NA,NA,NA,NA,NA,NA,NA,NA,NA,NA,NA,NA,NA,NA,NA,NA,NA,NA,NA,NA,NA,NA,NA,NA,NA,NA,NA,NA,NA,NA,NA,NA,NA,NA,NA,NA,NA,NA,NA,NA,NA,NA,NA,daydream,NA,NA,NA,NA,NA,NA,NA,NA,NA,NA,NA,NA,NA,NA,NA
SUPAMT72194,3OLQQLKKNYOKC3AZCC5ZTT9GN5AEJ3,D3A8AD4C-6300-49AF-BEDA-7419C001CBC0,2023-09-28_09h23.55.781,WP_VExplicitOC_LH,2022.2.5,Win32,13.10633167,-45.99225754,4.1189,2.0658,NA,NA,NA,NA,NA,bored,"bored, not bored","more bored, less bored",NA,NA,NA,NA,NA,NA,NA,NA,NA,NA,NA,NA,NA,NA,NA,NA,NA,NA,NA,NA,NA,NA,NA,NA,NA,NA,NA,NA,NA,NA,NA,NA,NA,0,0,0,2,1,NA,NA,NA,NA,NA,NA,NA,NA,NA,NA
SUPAMT72194,3OLQQLKKNYOKC3AZCC5ZTT9GN5AEJ3,D3A8AD4C-6300-49AF-BEDA-7419C001CBC0,2023-09-28_09h23.55.781,WP_VExplicitOC_LH,2022.2.5,Win32,13.10633167,79.38088691,3.6739,2.017099999,NA,NA,NA,NA,NA,happy,"unhappy, happy","less happy, more happy",NA,NA,NA,NA,NA,NA,NA,NA,NA,NA,NA,NA,NA,NA,NA,NA,NA,NA,NA,NA,NA,NA,NA,NA,NA,NA,NA,NA,NA,NA,NA,NA,NA,0,1,1,0,1,NA,NA,NA,NA,NA,NA,NA,NA,NA,NA
SUPAMT72194,3OLQQLKKNYOKC3AZCC5ZTT9GN5AEJ3,D3A8AD4C-6300-49AF-BEDA-7419C001CBC0,2023-09-28_09h23.55.781,WP_VExplicitOC_LH,2022.2.5,Win32,13.10633167,-40.68544809,3.855700001,2.0511,NA,NA,NA,NA,NA,frustrated,"frustrated, not frustrated","more frustrated, less frustrated",NA,NA,NA,NA,NA,NA,NA,NA,NA,NA,NA,NA,NA,NA,NA,NA,NA,NA,NA,NA,NA,NA,NA,NA,NA,NA,NA,NA,NA,NA,NA,NA,NA,0,2,2,1,1,NA,NA,NA,NA,NA,NA,NA,NA,NA,NA
SUPAMT72194,3OLQQLKKNYOKC3AZCC5ZTT9GN5AEJ3,D3A8AD4C-6300-49AF-BEDA-7419C001CBC0,2023-09-28_09h23.55.781,WP_VExplicitOC_LH,2022.2.5,Win32,13.10633167,NA,NA,NA,NA,NA,NA,NA,NA,NA,NA,NA,NA,NA,NA,NA,NA,NA,NA,NA,NA,NA,NA,NA,NA,NA,NA,NA,NA,NA,NA,NA,NA,NA,NA,NA,NA,NA,NA,NA,NA,NA,NA,NA,NA,NA,NA,NA,NA,NA,NA,NA,NA,NA,NA,NA,NA,NA,NA,NA
SUPAMT72194,3OLQQLKKNYOKC3AZCC5ZTT9GN5AEJ3,D3A8AD4C-6300-49AF-BEDA-7419C001CBC0,2023-09-28_09h23.55.781,WP_VExplicitOC_LH,2022.2.5,Win32,13.10633167,NA,NA,NA,NA,NA,NA,NA,NA,NA,NA,NA,NA,NA,NA,NA,NA,NA,NA,NA,NA,NA,NA,NA,NA,NA,NA,NA,NA,NA,NA,NA,NA,NA,NA,NA,NA,NA,NA,NA,NA,NA,NA,NA,NA,NA,NA,NA,NA,NA,NA,NA,NA,NA,NA,NA,NA,NA,NA,NA
SUPAMT72194,3OLQQLKKNYOKC3AZCC5ZTT9GN5AEJ3,D3A8AD4C-6300-49AF-BEDA-7419C001CBC0,2023-09-28_09h23.55.781,WP_VExplicitOC_LH,2022.2.5,Win32,13.10633167,53.28911675,6.299599999,2.063,NA,NA,NA,NA,NA,happy,"unhappy, happy","less happy, more happy",NA,NA,NA,NA,NA,NA,NA,NA,NA,NA,NA,NA,NA,NA,NA,NA,NA,NA,NA,NA,NA,NA,NA,NA,NA,NA,NA,NA,NA,NA,NA,NA,NA,NA,NA,NA,NA,NA,0,0,0,0,1,NA,NA,NA,NA,NA
SUPAMT72194,3OLQQLKKNYOKC3AZCC5ZTT9GN5AEJ3,D3A8AD4C-6300-49AF-BEDA-7419C001CBC0,2023-09-28_09h23.55.781,WP_VExplicitOC_LH,2022.2.5,Win32,13.10633167,-57.4903194,4.1939,2.057200001,NA,NA,NA,NA,NA,frustrated,"frustrated, not frustrated","more frustrated, less frustrated",NA,NA,NA,NA,NA,NA,NA,NA,NA,NA,NA,NA,NA,NA,NA,NA,NA,NA,NA,NA,NA,NA,NA,NA,NA,NA,NA,NA,NA,NA,NA,NA,NA,NA,NA,NA,NA,NA,0,1,1,1,1,NA,NA,NA,NA,NA
SUPAMT72194,3OLQQLKKNYOKC3AZCC5ZTT9GN5AEJ3,D3A8AD4C-6300-49AF-BEDA-7419C001CBC0,2023-09-28_09h23.55.781,WP_VExplicitOC_LH,2022.2.5,Win32,13.10633167,-54.83691973,4.2904,2.0327,NA,NA,NA,NA,NA,bored,"bored, not bored","more bored, less bored",NA,NA,NA,NA,NA,NA,NA,NA,NA,NA,NA,NA,NA,NA,NA,NA,NA,NA,NA,NA,NA,NA,NA,NA,NA,NA,NA,NA,NA,NA,NA,NA,NA,NA,NA,NA,NA,NA,0,2,2,2,1,NA,NA,NA,NA,NA
SUPAMT72194,3OLQQLKKNYOKC3AZCC5ZTT9GN5AEJ3,D3A8AD4C-6300-49AF-BEDA-7419C001CBC0,2023-09-28_09h23.55.781,WP_VExplicitOC_LH,2022.2.5,Win32,13.10633167,NA,NA,NA,NA,NA,NA,NA,NA,NA,NA,NA,NA,NA,NA,NA,NA,NA,NA,NA,NA,NA,NA,NA,NA,NA,NA,NA,NA,NA,NA,NA,NA,NA,NA,NA,NA,NA,NA,NA,NA,NA,NA,NA,NA,NA,NA,NA,NA,NA,NA,NA,NA,NA,NA,0,0,0,0,1
SUPAMT72194,3OLQQLKKNYOKC3AZCC5ZTT9GN5AEJ3,D3A8AD4C-6300-49AF-BEDA-7419C001CBC0,2023-09-28_09h23.55.781,WP_VExplicitOC_LH,2022.2.5,Win32,13.10633167,-77.6119403,4.687299999,2.060799999,NA,NA,NA,NA,NA,frustrated,"frustrated, not frustrated","more frustrated, less frustrated",NA,NA,NA,NA,NA,NA,NA,NA,NA,NA,NA,NA,NA,NA,NA,NA,NA,NA,NA,NA,NA,NA,NA,NA,NA,NA,NA,NA,NA,NA,NA,NA,NA,NA,NA,NA,NA,NA,0,0,0,1,1,NA,NA,NA,NA,NA
SUPAMT72194,3OLQQLKKNYOKC3AZCC5ZTT9GN5AEJ3,D3A8AD4C-6300-49AF-BEDA-7419C001CBC0,2023-09-28_09h23.55.781,WP_VExplicitOC_LH,2022.2.5,Win32,13.10633167,64.34494196,4.061,2.055900001,NA,NA,NA,NA,NA,happy,"unhappy, happy","less happy, more happy",NA,NA,NA,NA,NA,NA,NA,NA,NA,NA,NA,NA,NA,NA,NA,NA,NA,NA,NA,NA,NA,NA,NA,NA,NA,NA,NA,NA,NA,NA,NA,NA,NA,NA,NA,NA,NA,NA,0,1,1,0,1,NA,NA,NA,NA,NA
SUPAMT72194,3OLQQLKKNYOKC3AZCC5ZTT9GN5AEJ3,D3A8AD4C-6300-49AF-BEDA-7419C001CBC0,2023-09-28_09h23.55.781,WP_VExplicitOC_LH,2022.2.5,Win32,13.10633167,-49.08789386,3.7554,2.0072,NA,NA,NA,NA,NA,bored,"bored, not bored","more bored, less bored",NA,NA,NA,NA,NA,NA,NA,NA,NA,NA,NA,NA,NA,NA,NA,NA,NA,NA,NA,NA,NA,NA,NA,NA,NA,NA,NA,NA,NA,NA,NA,NA,NA,NA,NA,NA,NA,NA,0,2,2,2,1,NA,NA,NA,NA,NA
SUPAMT72194,3OLQQLKKNYOKC3AZCC5ZTT9GN5AEJ3,D3A8AD4C-6300-49AF-BEDA-7419C001CBC0,2023-09-28_09h23.55.781,WP_VExplicitOC_LH,2022.2.5,Win32,13.10633167,NA,NA,NA,NA,NA,NA,NA,NA,NA,NA,NA,NA,NA,NA,NA,NA,NA,NA,NA,NA,NA,NA,NA,NA,NA,NA,NA,NA,NA,NA,NA,NA,NA,NA,NA,NA,NA,NA,NA,NA,NA,NA,NA,NA,NA,NA,NA,NA,NA,NA,NA,NA,NA,NA,1,0,1,0,1
SUPAMT72194,3OLQQLKKNYOKC3AZCC5ZTT9GN5AEJ3,D3A8AD4C-6300-49AF-BEDA-7419C001CBC0,2023-09-28_09h23.55.781,WP_VExplicitOC_LH,2022.2.5,Win32,13.10633167,-43.33885788,4.1364,2.0643,NA,NA,NA,NA,NA,frustrated,"frustrated, not frustrated","more frustrated, less frustrated",NA,NA,NA,NA,NA,NA,NA,NA,NA,NA,NA,NA,NA,NA,NA,NA,NA,NA,NA,NA,NA,NA,NA,NA,NA,NA,NA,NA,NA,NA,NA,NA,NA,NA,NA,NA,NA,NA,0,0,0,1,1,NA,NA,NA,NA,NA
SUPAMT72194,3OLQQLKKNYOKC3AZCC5ZTT9GN5AEJ3,D3A8AD4C-6300-49AF-BEDA-7419C001CBC0,2023-09-28_09h23.55.781,WP_VExplicitOC_LH,2022.2.5,Win32,13.10633167,-40.46434494,3.670700001,2.0406,NA,NA,NA,NA,NA,bored,"bored, not bored","more bored, less bored",NA,NA,NA,NA,NA,NA,NA,NA,NA,NA,NA,NA,NA,NA,NA,NA,NA,NA,NA,NA,NA,NA,NA,NA,NA,NA,NA,NA,NA,NA,NA,NA,NA,NA,NA,NA,NA,NA,0,1,1,2,1,NA,NA,NA,NA,NA
SUPAMT72194,3OLQQLKKNYOKC3AZCC5ZTT9GN5AEJ3,D3A8AD4C-6300-49AF-BEDA-7419C001CBC0,2023-09-28_09h23.55.781,WP_VExplicitOC_LH,2022.2.5,Win32,13.10633167,53.06799337,3.703900001,2.0631,NA,NA,NA,NA,NA,happy,"unhappy, happy","less happy, more happy",NA,NA,NA,NA,NA,NA,NA,NA,NA,NA,NA,NA,NA,NA,NA,NA,NA,NA,NA,NA,NA,NA,NA,NA,NA,NA,NA,NA,NA,NA,NA,NA,NA,NA,NA,NA,NA,NA,0,2,2,0,1,NA,NA,NA,NA,NA
SUPAMT72194,3OLQQLKKNYOKC3AZCC5ZTT9GN5AEJ3,D3A8AD4C-6300-49AF-BEDA-7419C001CBC0,2023-09-28_09h23.55.781,WP_VExplicitOC_LH,2022.2.5,Win32,13.10633167,NA,NA,NA,NA,NA,NA,NA,NA,NA,NA,NA,NA,NA,NA,NA,NA,NA,NA,NA,NA,NA,NA,NA,NA,NA,NA,NA,NA,NA,NA,NA,NA,NA,NA,NA,NA,NA,NA,NA,NA,NA,NA,NA,NA,NA,NA,NA,NA,NA,NA,NA,NA,NA,NA,2,0,2,0,1
SUPAMT72194,3OLQQLKKNYOKC3AZCC5ZTT9GN5AEJ3,D3A8AD4C-6300-49AF-BEDA-7419C001CBC0,2023-09-28_09h23.55.781,WP_VExplicitOC_LH,2022.2.5,Win32,13.10633167,56.38474295,5.3349,2.059099999,NA,NA,NA,NA,NA,happy,"unhappy, happy","less happy, more happy",NA,NA,NA,NA,NA,NA,NA,NA,NA,NA,NA,NA,NA,NA,NA,NA,NA,NA,NA,NA,NA,NA,NA,NA,NA,NA,NA,NA,NA,NA,NA,NA,NA,NA,NA,NA,NA,NA,0,0,0,0,1,NA,NA,NA,NA,NA
SUPAMT72194,3OLQQLKKNYOKC3AZCC5ZTT9GN5AEJ3,D3A8AD4C-6300-49AF-BEDA-7419C001CBC0,2023-09-28_09h23.55.781,WP_VExplicitOC_LH,2022.2.5,Win32,13.10633167,-55.50026965,4.3829,2.0592,NA,NA,NA,NA,NA,bored,"bored, not bored","more bored, less bored",NA,NA,NA,NA,NA,NA,NA,NA,NA,NA,NA,NA,NA,NA,NA,NA,NA,NA,NA,NA,NA,NA,NA,NA,NA,NA,NA,NA,NA,NA,NA,NA,NA,NA,NA,NA,NA,NA,0,1,1,2,1,NA,NA,NA,NA,NA
SUPAMT72194,3OLQQLKKNYOKC3AZCC5ZTT9GN5AEJ3,D3A8AD4C-6300-49AF-BEDA-7419C001CBC0,2023-09-28_09h23.55.781,WP_VExplicitOC_LH,2022.2.5,Win32,13.10633167,-53.5102199,4.5489,2.0212,NA,NA,NA,NA,NA,frustrated,"frustrated, not frustrated","more frustrated, less frustrated",NA,NA,NA,NA,NA,NA,NA,NA,NA,NA,NA,NA,NA,NA,NA,NA,NA,NA,NA,NA,NA,NA,NA,NA,NA,NA,NA,NA,NA,NA,NA,NA,NA,NA,NA,NA,NA,NA,0,2,2,1,1,NA,NA,NA,NA,NA
SUPAMT72194,3OLQQLKKNYOKC3AZCC5ZTT9GN5AEJ3,D3A8AD4C-6300-49AF-BEDA-7419C001CBC0,2023-09-28_09h23.55.781,WP_VExplicitOC_LH,2022.2.5,Win32,13.10633167,NA,NA,NA,NA,NA,NA,NA,NA,NA,NA,NA,NA,NA,NA,NA,NA,NA,NA,NA,NA,NA,NA,NA,NA,NA,NA,NA,NA,NA,NA,NA,NA,NA,NA,NA,NA,NA,NA,NA,NA,NA,NA,NA,NA,NA,NA,NA,NA,NA,NA,NA,NA,NA,NA,3,0,3,0,1
SUPAMT72194,3OLQQLKKNYOKC3AZCC5ZTT9GN5AEJ3,D3A8AD4C-6300-49AF-BEDA-7419C001CBC0,2023-09-28_09h23.55.781,WP_VExplicitOC_LH,2022.2.5,Win32,13.10633167,-59.03814262,4.2156,2.0503,NA,NA,NA,NA,NA,bored,"bored, not bored","more bored, less bored",NA,NA,NA,NA,NA,NA,NA,NA,NA,NA,NA,NA,NA,NA,NA,NA,NA,NA,NA,NA,NA,NA,NA,NA,NA,NA,NA,NA,NA,NA,NA,NA,NA,NA,NA,NA,NA,NA,0,0,0,2,1,NA,NA,NA,NA,NA
SUPAMT72194,3OLQQLKKNYOKC3AZCC5ZTT9GN5AEJ3,D3A8AD4C-6300-49AF-BEDA-7419C001CBC0,2023-09-28_09h23.55.781,WP_VExplicitOC_LH,2022.2.5,Win32,13.10633167,-52.40464345,4.4556,2.0067,NA,NA,NA,NA,NA,frustrated,"frustrated, not frustrated","more frustrated, less frustrated",NA,NA,NA,NA,NA,NA,NA,NA,NA,NA,NA,NA,NA,NA,NA,NA,NA,NA,NA,NA,NA,NA,NA,NA,NA,NA,NA,NA,NA,NA,NA,NA,NA,NA,NA,NA,NA,NA,0,1,1,1,1,NA,NA,NA,NA,NA
SUPAMT72194,3OLQQLKKNYOKC3AZCC5ZTT9GN5AEJ3,D3A8AD4C-6300-49AF-BEDA-7419C001CBC0,2023-09-28_09h23.55.781,WP_VExplicitOC_LH,2022.2.5,Win32,13.10633167,NA,NA,2.04,NA,NA,NA,NA,NA,happy,"unhappy, happy","less happy, more happy",NA,NA,NA,NA,NA,NA,NA,NA,NA,NA,NA,NA,NA,NA,NA,NA,NA,NA,NA,NA,NA,NA,NA,NA,NA,NA,NA,NA,NA,NA,NA,NA,NA,NA,NA,NA,NA,NA,0,2,2,0,1,NA,NA,NA,NA,NA
SUPAMT72194,3OLQQLKKNYOKC3AZCC5ZTT9GN5AEJ3,D3A8AD4C-6300-49AF-BEDA-7419C001CBC0,2023-09-28_09h23.55.781,WP_VExplicitOC_LH,2022.2.5,Win32,13.10633167,NA,NA,NA,NA,NA,NA,NA,NA,NA,NA,NA,NA,NA,NA,NA,NA,NA,NA,NA,NA,NA,NA,NA,NA,NA,NA,NA,NA,NA,NA,NA,NA,NA,NA,NA,NA,NA,NA,NA,NA,NA,NA,NA,NA,NA,NA,NA,NA,NA,NA,NA,NA,NA,NA,4,0,4,0,1
SUPAMT72194,3OLQQLKKNYOKC3AZCC5ZTT9GN5AEJ3,D3A8AD4C-6300-49AF-BEDA-7419C001CBC0,2023-09-28_09h23.55.781,WP_VExplicitOC_LH,2022.2.5,Win32,13.10633167,-41.79104478,4.157799999,2.066,NA,NA,NA,NA,NA,frustrated,"frustrated, not frustrated","more frustrated, less frustrated",NA,NA,NA,NA,NA,NA,NA,NA,NA,NA,NA,NA,NA,NA,NA,NA,NA,NA,NA,NA,NA,NA,NA,NA,NA,NA,NA,NA,NA,NA,NA,NA,NA,NA,NA,NA,NA,NA,0,0,0,1,1,NA,NA,NA,NA,NA
SUPAMT72194,3OLQQLKKNYOKC3AZCC5ZTT9GN5AEJ3,D3A8AD4C-6300-49AF-BEDA-7419C001CBC0,2023-09-28_09h23.55.781,WP_VExplicitOC_LH,2022.2.5,Win32,13.10633167,54.83693997,6.900799999,2.0564,NA,NA,NA,NA,NA,happy,"unhappy, happy","less happy, more happy",NA,NA,NA,NA,NA,NA,NA,NA,NA,NA,NA,NA,NA,NA,NA,NA,NA,NA,NA,NA,NA,NA,NA,NA,NA,NA,NA,NA,NA,NA,NA,NA,NA,NA,NA,NA,NA,NA,0,1,1,0,1,NA,NA,NA,NA,NA
SUPAMT72194,3OLQQLKKNYOKC3AZCC5ZTT9GN5AEJ3,D3A8AD4C-6300-49AF-BEDA-7419C001CBC0,2023-09-28_09h23.55.781,WP_VExplicitOC_LH,2022.2.5,Win32,13.10633167,-47.98230729,4.215900001,2.0008,NA,NA,NA,NA,NA,bored,"bored, not bored","more bored, less bored",NA,NA,NA,NA,NA,NA,NA,NA,NA,NA,NA,NA,NA,NA,NA,NA,NA,NA,NA,NA,NA,NA,NA,NA,NA,NA,NA,NA,NA,NA,NA,NA,NA,NA,NA,NA,NA,NA,0,2,2,2,1,NA,NA,NA,NA,NA
SUPAMT72194,3OLQQLKKNYOKC3AZCC5ZTT9GN5AEJ3,D3A8AD4C-6300-49AF-BEDA-7419C001CBC0,2023-09-28_09h23.55.781,WP_VExplicitOC_LH,2022.2.5,Win32,13.10633167,NA,NA,NA,NA,NA,NA,NA,NA,NA,NA,NA,NA,NA,NA,NA,NA,NA,NA,NA,NA,NA,NA,NA,NA,NA,NA,NA,NA,NA,NA,NA,NA,NA,NA,NA,NA,NA,NA,NA,NA,NA,NA,NA,NA,NA,NA,NA,NA,NA,NA,NA,NA,NA,NA,5,0,5,0,1
SUPAMT72194,3OLQQLKKNYOKC3AZCC5ZTT9GN5AEJ3,D3A8AD4C-6300-49AF-BEDA-7419C001CBC0,2023-09-28_09h23.55.781,WP_VExplicitOC_LH,2022.2.5,Win32,13.10633167,NA,NA,2.0185,NA,NA,NA,NA,NA,frustrated,"frustrated, not frustrated","more frustrated, less frustrated",NA,NA,NA,NA,NA,NA,NA,NA,NA,NA,NA,NA,NA,NA,NA,NA,NA,NA,NA,NA,NA,NA,NA,NA,NA,NA,NA,NA,NA,NA,NA,NA,NA,NA,NA,NA,NA,NA,0,0,0,1,1,NA,NA,NA,NA,NA
SUPAMT72194,3OLQQLKKNYOKC3AZCC5ZTT9GN5AEJ3,D3A8AD4C-6300-49AF-BEDA-7419C001CBC0,2023-09-28_09h23.55.781,WP_VExplicitOC_LH,2022.2.5,Win32,13.10633167,59.92261592,4.552900001,2.0856,NA,NA,NA,NA,NA,happy,"unhappy, happy","less happy, more happy",NA,NA,NA,NA,NA,NA,NA,NA,NA,NA,NA,NA,NA,NA,NA,NA,NA,NA,NA,NA,NA,NA,NA,NA,NA,NA,NA,NA,NA,NA,NA,NA,NA,NA,NA,NA,NA,NA,0,1,1,0,1,NA,NA,NA,NA,NA
SUPAMT72194,3OLQQLKKNYOKC3AZCC5ZTT9GN5AEJ3,D3A8AD4C-6300-49AF-BEDA-7419C001CBC0,2023-09-28_09h23.55.781,WP_VExplicitOC_LH,2022.2.5,Win32,13.10633167,-49.97235705,4.0107,2.0576,NA,NA,NA,NA,NA,bored,"bored, not bored","more bored, less bored",NA,NA,NA,NA,NA,NA,NA,NA,NA,NA,NA,NA,NA,NA,NA,NA,NA,NA,NA,NA,NA,NA,NA,NA,NA,NA,NA,NA,NA,NA,NA,NA,NA,NA,NA,NA,NA,NA,0,2,2,2,1,NA,NA,NA,NA,NA
SUPAMT72194,3OLQQLKKNYOKC3AZCC5ZTT9GN5AEJ3,D3A8AD4C-6300-49AF-BEDA-7419C001CBC0,2023-09-28_09h23.55.781,WP_VExplicitOC_LH,2022.2.5,Win32,13.10633167,NA,NA,NA,NA,NA,NA,NA,NA,NA,NA,NA,NA,NA,NA,NA,NA,NA,NA,NA,NA,NA,NA,NA,NA,NA,NA,NA,NA,NA,NA,NA,NA,NA,NA,NA,NA,NA,NA,NA,NA,NA,NA,NA,NA,NA,NA,NA,NA,NA,NA,NA,NA,NA,NA,6,0,6,0,1
SUPAMT72194,3OLQQLKKNYOKC3AZCC5ZTT9GN5AEJ3,D3A8AD4C-6300-49AF-BEDA-7419C001CBC0,2023-09-28_09h23.55.781,WP_VExplicitOC_LH,2022.2.5,Win32,13.10633167,-59.25925589,4.0703,2.072,NA,NA,NA,NA,NA,bored,"bored, not bored","more bored, less bored",NA,NA,NA,NA,NA,NA,NA,NA,NA,NA,NA,NA,NA,NA,NA,NA,NA,NA,NA,NA,NA,NA,NA,NA,NA,NA,NA,NA,NA,NA,NA,NA,NA,NA,NA,NA,NA,NA,0,0,0,2,1,NA,NA,NA,NA,NA
SUPAMT72194,3OLQQLKKNYOKC3AZCC5ZTT9GN5AEJ3,D3A8AD4C-6300-49AF-BEDA-7419C001CBC0,2023-09-28_09h23.55.781,WP_VExplicitOC_LH,2022.2.5,Win32,13.10633167,55.2791665,3.765700001,2.068,NA,NA,NA,NA,NA,happy,"unhappy, happy","less happy, more happy",NA,NA,NA,NA,NA,NA,NA,NA,NA,NA,NA,NA,NA,NA,NA,NA,NA,NA,NA,NA,NA,NA,NA,NA,NA,NA,NA,NA,NA,NA,NA,NA,NA,NA,NA,NA,NA,NA,0,1,1,0,1,NA,NA,NA,NA,NA
SUPAMT72194,3OLQQLKKNYOKC3AZCC5ZTT9GN5AEJ3,D3A8AD4C-6300-49AF-BEDA-7419C001CBC0,2023-09-28_09h23.55.781,WP_VExplicitOC_LH,2022.2.5,Win32,13.10633167,-49.75124378,3.96,2.0572,NA,NA,NA,NA,NA,frustrated,"frustrated, not frustrated","more frustrated, less frustrated",NA,NA,NA,NA,NA,NA,NA,NA,NA,NA,NA,NA,NA,NA,NA,NA,NA,NA,NA,NA,NA,NA,NA,NA,NA,NA,NA,NA,NA,NA,NA,NA,NA,NA,NA,NA,NA,NA,0,2,2,1,1,NA,NA,NA,NA,NA
SUPAMT72194,3OLQQLKKNYOKC3AZCC5ZTT9GN5AEJ3,D3A8AD4C-6300-49AF-BEDA-7419C001CBC0,2023-09-28_09h23.55.781,WP_VExplicitOC_LH,2022.2.5,Win32,13.10633167,NA,NA,NA,NA,NA,NA,NA,NA,NA,NA,NA,NA,NA,NA,NA,NA,NA,NA,NA,NA,NA,NA,NA,NA,NA,NA,NA,NA,NA,NA,NA,NA,NA,NA,NA,NA,NA,NA,NA,NA,NA,NA,NA,NA,NA,NA,NA,NA,NA,NA,NA,NA,NA,NA,7,0,7,0,1
SUPAMT72194,3OLQQLKKNYOKC3AZCC5ZTT9GN5AEJ3,D3A8AD4C-6300-49AF-BEDA-7419C001CBC0,2023-09-28_09h23.55.781,WP_VExplicitOC_LH,2022.2.5,Win32,13.10633167,-59.03814262,3.9833,2.048,NA,NA,NA,NA,NA,bored,"bored, not bored","more bored, less bored",NA,NA,NA,NA,NA,NA,NA,NA,NA,NA,NA,NA,NA,NA,NA,NA,NA,NA,NA,NA,NA,NA,NA,NA,NA,NA,NA,NA,NA,NA,NA,NA,NA,NA,NA,NA,NA,NA,0,0,0,2,1,NA,NA,NA,NA,NA
SUPAMT72194,3OLQQLKKNYOKC3AZCC5ZTT9GN5AEJ3,D3A8AD4C-6300-49AF-BEDA-7419C001CBC0,2023-09-28_09h23.55.781,WP_VExplicitOC_LH,2022.2.5,Win32,13.10633167,-58.15366932,4.513400001,2.0576,NA,NA,NA,NA,NA,frustrated,"frustrated, not frustrated","more frustrated, less frustrated",NA,NA,NA,NA,NA,NA,NA,NA,NA,NA,NA,NA,NA,NA,NA,NA,NA,NA,NA,NA,NA,NA,NA,NA,NA,NA,NA,NA,NA,NA,NA,NA,NA,NA,NA,NA,NA,NA,0,1,1,1,1,NA,NA,NA,NA,NA
SUPAMT72194,3OLQQLKKNYOKC3AZCC5ZTT9GN5AEJ3,D3A8AD4C-6300-49AF-BEDA-7419C001CBC0,2023-09-28_09h23.55.781,WP_VExplicitOC_LH,2022.2.5,Win32,13.10633167,72.30514096,4.8343,2.062599999,NA,NA,NA,NA,NA,happy,"unhappy, happy","less happy, more happy",NA,NA,NA,NA,NA,NA,NA,NA,NA,NA,NA,NA,NA,NA,NA,NA,NA,NA,NA,NA,NA,NA,NA,NA,NA,NA,NA,NA,NA,NA,NA,NA,NA,NA,NA,NA,NA,NA,0,2,2,0,1,NA,NA,NA,NA,NA
SUPAMT72194,3OLQQLKKNYOKC3AZCC5ZTT9GN5AEJ3,D3A8AD4C-6300-49AF-BEDA-7419C001CBC0,2023-09-28_09h23.55.781,WP_VExplicitOC_LH,2022.2.5,Win32,13.10633167,NA,NA,NA,NA,NA,NA,NA,NA,NA,NA,NA,NA,NA,NA,NA,NA,NA,NA,NA,NA,NA,NA,NA,NA,NA,NA,NA,NA,NA,NA,NA,NA,NA,NA,NA,NA,NA,NA,NA,NA,NA,NA,NA,NA,NA,NA,NA,NA,NA,NA,NA,NA,NA,NA,8,0,8,0,1
SUPAMT72194,3OLQQLKKNYOKC3AZCC5ZTT9GN5AEJ3,D3A8AD4C-6300-49AF-BEDA-7419C001CBC0,2023-09-28_09h23.55.781,WP_VExplicitOC_LH,2022.2.5,Win32,13.10633167,58.81703948,4.154,2.0201,NA,NA,NA,NA,NA,happy,"unhappy, happy","less happy, more happy",NA,NA,NA,NA,NA,NA,NA,NA,NA,NA,NA,NA,NA,NA,NA,NA,NA,NA,NA,NA,NA,NA,NA,NA,NA,NA,NA,NA,NA,NA,NA,NA,NA,NA,NA,NA,NA,NA,0,0,0,0,1,NA,NA,NA,NA,NA
SUPAMT72194,3OLQQLKKNYOKC3AZCC5ZTT9GN5AEJ3,D3A8AD4C-6300-49AF-BEDA-7419C001CBC0,2023-09-28_09h23.55.781,WP_VExplicitOC_LH,2022.2.5,Win32,13.10633167,-54.17356981,4.1935,2.054799999,NA,NA,NA,NA,NA,bored,"bored, not bored","more bored, less bored",NA,NA,NA,NA,NA,NA,NA,NA,NA,NA,NA,NA,NA,NA,NA,NA,NA,NA,NA,NA,NA,NA,NA,NA,NA,NA,NA,NA,NA,NA,NA,NA,NA,NA,NA,NA,NA,NA,0,1,1,2,1,NA,NA,NA,NA,NA
SUPAMT72194,3OLQQLKKNYOKC3AZCC5ZTT9GN5AEJ3,D3A8AD4C-6300-49AF-BEDA-7419C001CBC0,2023-09-28_09h23.55.781,WP_VExplicitOC_LH,2022.2.5,Win32,13.10633167,-46.87672073,4.018099999,2.0685,NA,NA,NA,NA,NA,frustrated,"frustrated, not frustrated","more frustrated, less frustrated",NA,NA,NA,NA,NA,NA,NA,NA,NA,NA,NA,NA,NA,NA,NA,NA,NA,NA,NA,NA,NA,NA,NA,NA,NA,NA,NA,NA,NA,NA,NA,NA,NA,NA,NA,NA,NA,NA,0,2,2,1,1,NA,NA,NA,NA,NA
SUPAMT72194,3OLQQLKKNYOKC3AZCC5ZTT9GN5AEJ3,D3A8AD4C-6300-49AF-BEDA-7419C001CBC0,2023-09-28_09h23.55.781,WP_VExplicitOC_LH,2022.2.5,Win32,13.10633167,NA,NA,NA,NA,NA,NA,NA,NA,NA,NA,NA,NA,NA,NA,NA,NA,NA,NA,NA,NA,NA,NA,NA,NA,NA,NA,NA,NA,NA,NA,NA,NA,NA,NA,NA,NA,NA,NA,NA,NA,NA,NA,NA,NA,NA,NA,NA,NA,NA,NA,NA,NA,NA,NA,9,0,9,0,1
SUPAMT72194,3OLQQLKKNYOKC3AZCC5ZTT9GN5AEJ3,D3A8AD4C-6300-49AF-BEDA-7419C001CBC0,2023-09-28_09h23.55.781,WP_VExplicitOC_LH,2022.2.5,Win32,13.10633167,-46.4344942,6.3586,2.0544,NA,NA,NA,NA,NA,frustrated,"frustrated, not frustrated","more frustrated, less frustrated",NA,NA,NA,NA,NA,NA,NA,NA,NA,NA,NA,NA,NA,NA,NA,NA,NA,NA,NA,NA,NA,NA,NA,NA,NA,NA,NA,NA,NA,NA,NA,NA,NA,NA,NA,NA,NA,NA,0,0,0,1,1,NA,NA,NA,NA,NA
SUPAMT72194,3OLQQLKKNYOKC3AZCC5ZTT9GN5AEJ3,D3A8AD4C-6300-49AF-BEDA-7419C001CBC0,2023-09-28_09h23.55.781,WP_VExplicitOC_LH,2022.2.5,Win32,13.10633167,63.01824212,4.0352,2.066,NA,NA,NA,NA,NA,happy,"unhappy, happy","less happy, more happy",NA,NA,NA,NA,NA,NA,NA,NA,NA,NA,NA,NA,NA,NA,NA,NA,NA,NA,NA,NA,NA,NA,NA,NA,NA,NA,NA,NA,NA,NA,NA,NA,NA,NA,NA,NA,NA,NA,0,1,1,0,1,NA,NA,NA,NA,NA
SUPAMT72194,3OLQQLKKNYOKC3AZCC5ZTT9GN5AEJ3,D3A8AD4C-6300-49AF-BEDA-7419C001CBC0,2023-09-28_09h23.55.781,WP_VExplicitOC_LH,2022.2.5,Win32,13.10633167,-57.93255605,4.237900001,2.080599999,NA,NA,NA,NA,NA,bored,"bored, not bored","more bored, less bored",NA,NA,NA,NA,NA,NA,NA,NA,NA,NA,NA,NA,NA,NA,NA,NA,NA,NA,NA,NA,NA,NA,NA,NA,NA,NA,NA,NA,NA,NA,NA,NA,NA,NA,NA,NA,NA,NA,0,2,2,2,1,NA,NA,NA,NA,NA
SUPAMT72194,3OLQQLKKNYOKC3AZCC5ZTT9GN5AEJ3,D3A8AD4C-6300-49AF-BEDA-7419C001CBC0,2023-09-28_09h23.55.781,WP_VExplicitOC_LH,2022.2.5,Win32,13.10633167,NA,NA,NA,NA,NA,NA,NA,NA,NA,NA,NA,NA,NA,NA,NA,NA,NA,NA,NA,NA,NA,NA,NA,NA,NA,NA,NA,NA,NA,NA,NA,NA,NA,NA,NA,NA,NA,NA,NA,NA,NA,NA,NA,NA,NA,NA,NA,NA,NA,NA,NA,NA,NA,NA,10,0,10,0,1
SUPAMT72194,3OLQQLKKNYOKC3AZCC5ZTT9GN5AEJ3,D3A8AD4C-6300-49AF-BEDA-7419C001CBC0,2023-09-28_09h23.55.781,WP_VExplicitOC_LH,2022.2.5,Win32,13.10633167,-46.4344942,5.4064,2.0305,NA,NA,NA,NA,NA,frustrated,"frustrated, not frustrated","more frustrated, less frustrated",NA,NA,NA,NA,NA,NA,NA,NA,NA,NA,NA,NA,NA,NA,NA,NA,NA,NA,NA,NA,NA,NA,NA,NA,NA,NA,NA,NA,NA,NA,NA,NA,NA,NA,NA,NA,NA,NA,0,0,0,1,1,NA,NA,NA,NA,NA
SUPAMT72194,3OLQQLKKNYOKC3AZCC5ZTT9GN5AEJ3,D3A8AD4C-6300-49AF-BEDA-7419C001CBC0,2023-09-28_09h23.55.781,WP_VExplicitOC_LH,2022.2.5,Win32,13.10633167,-48.64565721,3.9415,2.051799999,NA,NA,NA,NA,NA,bored,"bored, not bored","more bored, less bored",NA,NA,NA,NA,NA,NA,NA,NA,NA,NA,NA,NA,NA,NA,NA,NA,NA,NA,NA,NA,NA,NA,NA,NA,NA,NA,NA,NA,NA,NA,NA,NA,NA,NA,NA,NA,NA,NA,0,1,1,2,1,NA,NA,NA,NA,NA
SUPAMT72194,3OLQQLKKNYOKC3AZCC5ZTT9GN5AEJ3,D3A8AD4C-6300-49AF-BEDA-7419C001CBC0,2023-09-28_09h23.55.781,WP_VExplicitOC_LH,2022.2.5,Win32,13.10633167,48.64566733,3.5351,2.030700001,NA,NA,NA,NA,NA,happy,"unhappy, happy","less happy, more happy",NA,NA,NA,NA,NA,NA,NA,NA,NA,NA,NA,NA,NA,NA,NA,NA,NA,NA,NA,NA,NA,NA,NA,NA,NA,NA,NA,NA,NA,NA,NA,NA,NA,NA,NA,NA,NA,NA,0,2,2,0,1,NA,NA,NA,NA,NA
SUPAMT72194,3OLQQLKKNYOKC3AZCC5ZTT9GN5AEJ3,D3A8AD4C-6300-49AF-BEDA-7419C001CBC0,2023-09-28_09h23.55.781,WP_VExplicitOC_LH,2022.2.5,Win32,13.10633167,NA,NA,NA,NA,NA,NA,NA,NA,NA,NA,NA,NA,NA,NA,NA,NA,NA,NA,NA,NA,NA,NA,NA,NA,NA,NA,NA,NA,NA,NA,NA,NA,NA,NA,NA,NA,NA,NA,NA,NA,NA,NA,NA,NA,NA,NA,NA,NA,NA,NA,NA,NA,NA,NA,11,0,11,0,1
SUPAMT72194,3OLQQLKKNYOKC3AZCC5ZTT9GN5AEJ3,D3A8AD4C-6300-49AF-BEDA-7419C001CBC0,2023-09-28_09h23.55.781,WP_VExplicitOC_LH,2022.2.5,Win32,13.10633167,-50.63570696,4.368099999,2.067299999,NA,NA,NA,NA,NA,frustrated,"frustrated, not frustrated","more frustrated, less frustrated",NA,NA,NA,NA,NA,NA,NA,NA,NA,NA,NA,NA,NA,NA,NA,NA,NA,NA,NA,NA,NA,NA,NA,NA,NA,NA,NA,NA,NA,NA,NA,NA,NA,NA,NA,NA,NA,NA,0,0,0,1,1,NA,NA,NA,NA,NA
SUPAMT72194,3OLQQLKKNYOKC3AZCC5ZTT9GN5AEJ3,D3A8AD4C-6300-49AF-BEDA-7419C001CBC0,2023-09-28_09h23.55.781,WP_VExplicitOC_LH,2022.2.5,Win32,13.10633167,-45.77114428,4.1772,2.0177,NA,NA,NA,NA,NA,bored,"bored, not bored","more bored, less bored",NA,NA,NA,NA,NA,NA,NA,NA,NA,NA,NA,NA,NA,NA,NA,NA,NA,NA,NA,NA,NA,NA,NA,NA,NA,NA,NA,NA,NA,NA,NA,NA,NA,NA,NA,NA,NA,NA,0,1,1,2,1,NA,NA,NA,NA,NA
SUPAMT72194,3OLQQLKKNYOKC3AZCC5ZTT9GN5AEJ3,D3A8AD4C-6300-49AF-BEDA-7419C001CBC0,2023-09-28_09h23.55.781,WP_VExplicitOC_LH,2022.2.5,Win32,13.10633167,71.4206879,4.6695,2.072,NA,NA,NA,NA,NA,happy,"unhappy, happy","less happy, more happy",NA,NA,NA,NA,NA,NA,NA,NA,NA,NA,NA,NA,NA,NA,NA,NA,NA,NA,NA,NA,NA,NA,NA,NA,NA,NA,NA,NA,NA,NA,NA,NA,NA,NA,NA,NA,NA,NA,0,2,2,0,1,NA,NA,NA,NA,NA
SUPAMT72194,3OLQQLKKNYOKC3AZCC5ZTT9GN5AEJ3,D3A8AD4C-6300-49AF-BEDA-7419C001CBC0,2023-09-28_09h23.55.781,WP_VExplicitOC_LH,2022.2.5,Win32,13.10633167,NA,NA,NA,NA,NA,NA,NA,NA,NA,NA,NA,NA,NA,NA,NA,NA,NA,NA,NA,NA,NA,NA,NA,NA,NA,NA,NA,NA,NA,NA,NA,NA,NA,NA,NA,NA,NA,NA,NA,NA,NA,NA,NA,NA,NA,NA,NA,NA,NA,NA,NA,NA,NA,NA,12,0,12,0,1
SUPAMT72194,3OLQQLKKNYOKC3AZCC5ZTT9GN5AEJ3,D3A8AD4C-6300-49AF-BEDA-7419C001CBC0,2023-09-28_09h23.55.781,WP_VExplicitOC_LH,2022.2.5,Win32,13.10633167,-52.84686998,6.8233,2.0942,NA,NA,NA,NA,NA,bored,"bored, not bored","more bored, less bored",NA,NA,NA,NA,NA,NA,NA,NA,NA,NA,NA,NA,NA,NA,NA,NA,NA,NA,NA,NA,NA,NA,NA,NA,NA,NA,NA,NA,NA,NA,NA,NA,NA,NA,NA,NA,NA,NA,0,0,0,2,1,NA,NA,NA,NA,NA
SUPAMT72194,3OLQQLKKNYOKC3AZCC5ZTT9GN5AEJ3,D3A8AD4C-6300-49AF-BEDA-7419C001CBC0,2023-09-28_09h23.55.781,WP_VExplicitOC_LH,2022.2.5,Win32,13.10633167,-56.16361956,3.6281,2.0547,NA,NA,NA,NA,NA,frustrated,"frustrated, not frustrated","more frustrated, less frustrated",NA,NA,NA,NA,NA,NA,NA,NA,NA,NA,NA,NA,NA,NA,NA,NA,NA,NA,NA,NA,NA,NA,NA,NA,NA,NA,NA,NA,NA,NA,NA,NA,NA,NA,NA,NA,NA,NA,0,1,1,1,1,NA,NA,NA,NA,NA
SUPAMT72194,3OLQQLKKNYOKC3AZCC5ZTT9GN5AEJ3,D3A8AD4C-6300-49AF-BEDA-7419C001CBC0,2023-09-28_09h23.55.781,WP_VExplicitOC_LH,2022.2.5,Win32,13.10633167,67.21946501,3.5714,2.0328,NA,NA,NA,NA,NA,happy,"unhappy, happy","less happy, more happy",NA,NA,NA,NA,NA,NA,NA,NA,NA,NA,NA,NA,NA,NA,NA,NA,NA,NA,NA,NA,NA,NA,NA,NA,NA,NA,NA,NA,NA,NA,NA,NA,NA,NA,NA,NA,NA,NA,0,2,2,0,1,NA,NA,NA,NA,NA
SUPAMT72194,3OLQQLKKNYOKC3AZCC5ZTT9GN5AEJ3,D3A8AD4C-6300-49AF-BEDA-7419C001CBC0,2023-09-28_09h23.55.781,WP_VExplicitOC_LH,2022.2.5,Win32,13.10633167,NA,NA,NA,NA,NA,NA,NA,NA,NA,NA,NA,NA,NA,NA,NA,NA,NA,NA,NA,NA,NA,NA,NA,NA,NA,NA,NA,NA,NA,NA,NA,NA,NA,NA,NA,NA,NA,NA,NA,NA,NA,NA,NA,NA,NA,NA,NA,NA,NA,NA,NA,NA,NA,NA,13,0,13,0,1
SUPAMT72194,3OLQQLKKNYOKC3AZCC5ZTT9GN5AEJ3,D3A8AD4C-6300-49AF-BEDA-7419C001CBC0,2023-09-28_09h23.55.781,WP_VExplicitOC_LH,2022.2.5,Win32,13.10633167,-43.55997114,3.853,2.0735,NA,NA,NA,NA,NA,frustrated,"frustrated, not frustrated","more frustrated, less frustrated",NA,NA,NA,NA,NA,NA,NA,NA,NA,NA,NA,NA,NA,NA,NA,NA,NA,NA,NA,NA,NA,NA,NA,NA,NA,NA,NA,NA,NA,NA,NA,NA,NA,NA,NA,NA,NA,NA,0,0,0,1,1,NA,NA,NA,NA,NA
SUPAMT72194,3OLQQLKKNYOKC3AZCC5ZTT9GN5AEJ3,D3A8AD4C-6300-49AF-BEDA-7419C001CBC0,2023-09-28_09h23.55.781,WP_VExplicitOC_LH,2022.2.5,Win32,13.10633167,-43.33885788,3.6988,2.0699,NA,NA,NA,NA,NA,bored,"bored, not bored","more bored, less bored",NA,NA,NA,NA,NA,NA,NA,NA,NA,NA,NA,NA,NA,NA,NA,NA,NA,NA,NA,NA,NA,NA,NA,NA,NA,NA,NA,NA,NA,NA,NA,NA,NA,NA,NA,NA,NA,NA,0,1,1,2,1,NA,NA,NA,NA,NA
SUPAMT72194,3OLQQLKKNYOKC3AZCC5ZTT9GN5AEJ3,D3A8AD4C-6300-49AF-BEDA-7419C001CBC0,2023-09-28_09h23.55.781,WP_VExplicitOC_LH,2022.2.5,Win32,13.10633167,47.98231742,3.7747,2.024099999,NA,NA,NA,NA,NA,happy,"unhappy, happy","less happy, more happy",NA,NA,NA,NA,NA,NA,NA,NA,NA,NA,NA,NA,NA,NA,NA,NA,NA,NA,NA,NA,NA,NA,NA,NA,NA,NA,NA,NA,NA,NA,NA,NA,NA,NA,NA,NA,NA,NA,0,2,2,0,1,NA,NA,NA,NA,NA
SUPAMT72194,3OLQQLKKNYOKC3AZCC5ZTT9GN5AEJ3,D3A8AD4C-6300-49AF-BEDA-7419C001CBC0,2023-09-28_09h23.55.781,WP_VExplicitOC_LH,2022.2.5,Win32,13.10633167,NA,NA,NA,NA,NA,NA,NA,NA,NA,NA,NA,NA,NA,NA,NA,NA,NA,NA,NA,NA,NA,NA,NA,NA,NA,NA,NA,NA,NA,NA,NA,NA,NA,NA,NA,NA,NA,NA,NA,NA,NA,NA,NA,NA,NA,NA,NA,NA,NA,NA,NA,NA,NA,NA,14,0,14,0,1
SUPAMT72194,3OLQQLKKNYOKC3AZCC5ZTT9GN5AEJ3,D3A8AD4C-6300-49AF-BEDA-7419C001CBC0,2023-09-28_09h23.55.781,WP_VExplicitOC_LH,2022.2.5,Win32,13.10633167,NA,NA,NA,NA,NA,NA,NA,NA,NA,NA,NA,NA,NA,NA,NA,NA,NA,NA,NA,NA,NA,NA,NA,NA,NA,NA,NA,NA,NA,NA,NA,NA,NA,NA,NA,NA,NA,NA,NA,NA,NA,NA,NA,NA,NA,NA,NA,NA,NA,NA,NA,NA,NA,NA,NA,NA,NA,NA,NA
