participant,session,completion,date,expName,psychopyVersion,OS,frameRate,rating_all.response,rating_all.rt,rating_all.tStart,rndRat1.thisRepN,rndRat1.thisTrialN,rndRat1.thisN,rndRat1.thisIndex,rndRat1.ran,Emo,Labs,Labs2,rating_alt.response,rating_alt.rt,AltC.thisRepN,AltC.thisTrialN,AltC.thisN,AltC.thisIndex,AltC.ran,alt_choices,pic_choices,BottomAlt_Choice,rndRat2.thisRepN,rndRat2.thisTrialN,rndRat2.thisN,rndRat2.thisIndex,rndRat2.ran,rndRat3.thisRepN,rndRat3.thisTrialN,rndRat3.thisN,rndRat3.thisIndex,rndRat3.ran,trials_FC_L.thisRepN,trials_FC_L.thisTrialN,trials_FC_L.thisN,trials_FC_L.thisIndex,trials_FC_L.ran,rating_alt_2.response,rating_alt_2.rt,AltC2.thisRepN,AltC2.thisTrialN,AltC2.thisN,AltC2.thisIndex,AltC2.ran,TopAlt_Choice,rndRat4.thisRepN,rndRat4.thisTrialN,rndRat4.thisN,rndRat4.thisIndex,rndRat4.ran,rndRat5.thisRepN,rndRat5.thisTrialN,rndRat5.thisN,rndRat5.thisIndex,rndRat5.ran,trials_FC_H.thisRepN,trials_FC_H.thisTrialN,trials_FC_H.thisN,trials_FC_H.thisIndex,trials_FC_H.ran
SUPAMT84633,3570Y55XZVI8R61P47WQ3J9GDVMGYG,1111290B-7B6B-4BD2-99AF-DEDBB2E8B91B,2023-09-29_08h13.12.271,WP_VExplicitOC_LH,2022.2.5,Win32,12.7131034,NA,NA,NA,NA,NA,NA,NA,NA,NA,NA,NA,NA,NA,NA,NA,NA,NA,NA,NA,NA,NA,NA,NA,NA,NA,NA,NA,NA,NA,NA,NA,NA,NA,NA,NA,NA,NA,NA,NA,NA,NA,NA,NA,NA,NA,NA,NA,NA,NA,NA,NA,NA,NA,NA,NA,NA,NA,NA,NA
SUPAMT84633,3570Y55XZVI8R61P47WQ3J9GDVMGYG,1111290B-7B6B-4BD2-99AF-DEDBB2E8B91B,2023-09-29_08h13.12.271,WP_VExplicitOC_LH,2022.2.5,Win32,12.7131034,NA,NA,NA,NA,NA,NA,NA,NA,NA,NA,NA,NA,NA,NA,NA,NA,NA,NA,NA,NA,NA,NA,NA,NA,NA,NA,NA,NA,NA,NA,NA,NA,NA,NA,NA,NA,NA,NA,NA,NA,NA,NA,NA,NA,NA,NA,NA,NA,NA,NA,NA,NA,NA,NA,NA,NA,NA,NA,NA
SUPAMT84633,3570Y55XZVI8R61P47WQ3J9GDVMGYG,1111290B-7B6B-4BD2-99AF-DEDBB2E8B91B,2023-09-29_08h13.12.271,WP_VExplicitOC_LH,2022.2.5,Win32,12.7131034,NA,NA,NA,NA,NA,NA,NA,NA,NA,NA,NA,NA,NA,NA,NA,NA,NA,NA,NA,NA,NA,NA,NA,NA,NA,NA,NA,NA,NA,NA,NA,NA,NA,NA,NA,NA,NA,NA,NA,NA,NA,NA,NA,NA,NA,NA,NA,NA,NA,NA,NA,NA,NA,NA,NA,NA,NA,NA,NA
SUPAMT84633,3570Y55XZVI8R61P47WQ3J9GDVMGYG,1111290B-7B6B-4BD2-99AF-DEDBB2E8B91B,2023-09-29_08h13.12.271,WP_VExplicitOC_LH,2022.2.5,Win32,12.7131034,100,3.915099999,2.0123,0,0,0,1,1,frustrated,"frustrated, not frustrated","more frustrated, less frustrated",NA,NA,NA,NA,NA,NA,NA,NA,NA,NA,NA,NA,NA,NA,NA,NA,NA,NA,NA,NA,NA,NA,NA,NA,NA,NA,NA,NA,NA,NA,NA,NA,NA,NA,NA,NA,NA,NA,NA,NA,NA,NA,NA,NA,NA,NA,NA,NA
SUPAMT84633,3570Y55XZVI8R61P47WQ3J9GDVMGYG,1111290B-7B6B-4BD2-99AF-DEDBB2E8B91B,2023-09-29_08h13.12.271,WP_VExplicitOC_LH,2022.2.5,Win32,12.7131034,100,4.024,2.0201,0,1,1,0,1,happy,"unhappy, happy","less happy, more happy",NA,NA,NA,NA,NA,NA,NA,NA,NA,NA,NA,NA,NA,NA,NA,NA,NA,NA,NA,NA,NA,NA,NA,NA,NA,NA,NA,NA,NA,NA,NA,NA,NA,NA,NA,NA,NA,NA,NA,NA,NA,NA,NA,NA,NA,NA,NA,NA
SUPAMT84633,3570Y55XZVI8R61P47WQ3J9GDVMGYG,1111290B-7B6B-4BD2-99AF-DEDBB2E8B91B,2023-09-29_08h13.12.271,WP_VExplicitOC_LH,2022.2.5,Win32,12.7131034,100,4.094299999,2.0235,0,2,2,2,1,bored,"bored, not bored","more bored, less bored",NA,NA,NA,NA,NA,NA,NA,NA,NA,NA,NA,NA,NA,NA,NA,NA,NA,NA,NA,NA,NA,NA,NA,NA,NA,NA,NA,NA,NA,NA,NA,NA,NA,NA,NA,NA,NA,NA,NA,NA,NA,NA,NA,NA,NA,NA,NA,NA
SUPAMT84633,3570Y55XZVI8R61P47WQ3J9GDVMGYG,1111290B-7B6B-4BD2-99AF-DEDBB2E8B91B,2023-09-29_08h13.12.271,WP_VExplicitOC_LH,2022.2.5,Win32,12.7131034,NA,NA,NA,NA,NA,NA,NA,NA,NA,NA,NA,NA,NA,NA,NA,NA,NA,NA,NA,NA,NA,NA,NA,NA,NA,NA,NA,NA,NA,NA,NA,NA,NA,NA,NA,NA,NA,NA,NA,NA,NA,NA,NA,NA,NA,NA,NA,NA,NA,NA,NA,NA,NA,NA,NA,NA,NA,NA,NA
SUPAMT84633,3570Y55XZVI8R61P47WQ3J9GDVMGYG,1111290B-7B6B-4BD2-99AF-DEDBB2E8B91B,2023-09-29_08h13.12.271,WP_VExplicitOC_LH,2022.2.5,Win32,12.7131034,NA,NA,NA,NA,NA,NA,NA,NA,NA,NA,NA,NA,NA,NA,NA,NA,NA,NA,NA,NA,NA,NA,NA,NA,NA,NA,NA,NA,NA,NA,NA,NA,NA,NA,NA,NA,NA,NA,NA,NA,NA,NA,NA,NA,NA,NA,NA,NA,NA,NA,NA,NA,NA,NA,NA,NA,NA,NA,NA
SUPAMT84633,3570Y55XZVI8R61P47WQ3J9GDVMGYG,1111290B-7B6B-4BD2-99AF-DEDBB2E8B91B,2023-09-29_08h13.12.271,WP_VExplicitOC_LH,2022.2.5,Win32,12.7131034,NA,NA,NA,NA,NA,NA,NA,NA,NA,NA,NA,NA,NA,NA,NA,NA,NA,NA,NA,NA,NA,NA,NA,NA,NA,NA,NA,NA,NA,NA,NA,NA,NA,NA,NA,NA,NA,NA,NA,NA,NA,NA,NA,NA,NA,NA,NA,NA,NA,NA,NA,NA,NA,NA,NA,NA,NA,NA,NA
SUPAMT84633,3570Y55XZVI8R61P47WQ3J9GDVMGYG,1111290B-7B6B-4BD2-99AF-DEDBB2E8B91B,2023-09-29_08h13.12.271,WP_VExplicitOC_LH,2022.2.5,Win32,12.7131034,NA,NA,NA,NA,NA,NA,NA,NA,NA,NA,NA,NA,NA,NA,NA,NA,NA,NA,NA,NA,NA,NA,NA,NA,NA,NA,NA,NA,NA,NA,NA,NA,NA,NA,NA,NA,NA,NA,NA,NA,NA,NA,NA,NA,NA,NA,NA,NA,NA,NA,NA,NA,NA,NA,NA,NA,NA,NA,NA
SUPAMT84633,3570Y55XZVI8R61P47WQ3J9GDVMGYG,1111290B-7B6B-4BD2-99AF-DEDBB2E8B91B,2023-09-29_08h13.12.271,WP_VExplicitOC_LH,2022.2.5,Win32,12.7131034,NA,NA,NA,NA,NA,NA,NA,NA,NA,NA,NA,100,2.4246,0,0,0,0,1,rest (looking at a fixed cross),001.png,NA,NA,NA,NA,NA,NA,NA,NA,NA,NA,NA,NA,NA,NA,NA,NA,NA,NA,NA,NA,NA,NA,NA,NA,NA,NA,NA,NA,NA,NA,NA,NA,NA,NA,NA,NA,NA,NA,NA
SUPAMT84633,3570Y55XZVI8R61P47WQ3J9GDVMGYG,1111290B-7B6B-4BD2-99AF-DEDBB2E8B91B,2023-09-29_08h13.12.271,WP_VExplicitOC_LH,2022.2.5,Win32,12.7131034,NA,NA,NA,NA,NA,NA,NA,NA,NA,NA,NA,100,2.179,0,1,1,1,1,stand up,002.png,NA,NA,NA,NA,NA,NA,NA,NA,NA,NA,NA,NA,NA,NA,NA,NA,NA,NA,NA,NA,NA,NA,NA,NA,NA,NA,NA,NA,NA,NA,NA,NA,NA,NA,NA,NA,NA,NA,NA
SUPAMT84633,3570Y55XZVI8R61P47WQ3J9GDVMGYG,1111290B-7B6B-4BD2-99AF-DEDBB2E8B91B,2023-09-29_08h13.12.271,WP_VExplicitOC_LH,2022.2.5,Win32,12.7131034,NA,NA,NA,NA,NA,NA,NA,NA,NA,NA,NA,100,1.7197,0,2,2,2,1,stretch,003.png,NA,NA,NA,NA,NA,NA,NA,NA,NA,NA,NA,NA,NA,NA,NA,NA,NA,NA,NA,NA,NA,NA,NA,NA,NA,NA,NA,NA,NA,NA,NA,NA,NA,NA,NA,NA,NA,NA,NA
SUPAMT84633,3570Y55XZVI8R61P47WQ3J9GDVMGYG,1111290B-7B6B-4BD2-99AF-DEDBB2E8B91B,2023-09-29_08h13.12.271,WP_VExplicitOC_LH,2022.2.5,Win32,12.7131034,NA,NA,NA,NA,NA,NA,NA,NA,NA,NA,NA,100,5.2297,0,3,3,3,1,make a drink,004.png,NA,NA,NA,NA,NA,NA,NA,NA,NA,NA,NA,NA,NA,NA,NA,NA,NA,NA,NA,NA,NA,NA,NA,NA,NA,NA,NA,NA,NA,NA,NA,NA,NA,NA,NA,NA,NA,NA,NA
SUPAMT84633,3570Y55XZVI8R61P47WQ3J9GDVMGYG,1111290B-7B6B-4BD2-99AF-DEDBB2E8B91B,2023-09-29_08h13.12.271,WP_VExplicitOC_LH,2022.2.5,Win32,12.7131034,NA,NA,NA,NA,NA,NA,NA,NA,NA,NA,NA,100,2.2028,0,4,4,4,1,scroll social media,005.png,NA,NA,NA,NA,NA,NA,NA,NA,NA,NA,NA,NA,NA,NA,NA,NA,NA,NA,NA,NA,NA,NA,NA,NA,NA,NA,NA,NA,NA,NA,NA,NA,NA,NA,NA,NA,NA,NA,NA
SUPAMT84633,3570Y55XZVI8R61P47WQ3J9GDVMGYG,1111290B-7B6B-4BD2-99AF-DEDBB2E8B91B,2023-09-29_08h13.12.271,WP_VExplicitOC_LH,2022.2.5,Win32,12.7131034,NA,NA,NA,NA,NA,NA,NA,NA,NA,NA,NA,100,1.839700001,0,5,5,5,1,listen to music,006.png,NA,NA,NA,NA,NA,NA,NA,NA,NA,NA,NA,NA,NA,NA,NA,NA,NA,NA,NA,NA,NA,NA,NA,NA,NA,NA,NA,NA,NA,NA,NA,NA,NA,NA,NA,NA,NA,NA,NA
SUPAMT84633,3570Y55XZVI8R61P47WQ3J9GDVMGYG,1111290B-7B6B-4BD2-99AF-DEDBB2E8B91B,2023-09-29_08h13.12.271,WP_VExplicitOC_LH,2022.2.5,Win32,12.7131034,NA,NA,NA,NA,NA,NA,NA,NA,NA,NA,NA,100,2.105400001,0,6,6,6,1,daydream,007.png,NA,NA,NA,NA,NA,NA,NA,NA,NA,NA,NA,NA,NA,NA,NA,NA,NA,NA,NA,NA,NA,NA,NA,NA,NA,NA,NA,NA,NA,NA,NA,NA,NA,NA,NA,NA,NA,NA,NA
SUPAMT84633,3570Y55XZVI8R61P47WQ3J9GDVMGYG,1111290B-7B6B-4BD2-99AF-DEDBB2E8B91B,2023-09-29_08h13.12.271,WP_VExplicitOC_LH,2022.2.5,Win32,12.7131034,NA,NA,NA,NA,NA,NA,NA,NA,NA,NA,NA,100,1.6632,0,7,7,7,1,watch a short animation,008.png,NA,NA,NA,NA,NA,NA,NA,NA,NA,NA,NA,NA,NA,NA,NA,NA,NA,NA,NA,NA,NA,NA,NA,NA,NA,NA,NA,NA,NA,NA,NA,NA,NA,NA,NA,NA,NA,NA,NA
SUPAMT84633,3570Y55XZVI8R61P47WQ3J9GDVMGYG,1111290B-7B6B-4BD2-99AF-DEDBB2E8B91B,2023-09-29_08h13.12.271,WP_VExplicitOC_LH,2022.2.5,Win32,12.7131034,NA,NA,NA,NA,NA,NA,NA,NA,NA,NA,NA,100,1.7823,0,8,8,8,1,read a novel,009.png,NA,NA,NA,NA,NA,NA,NA,NA,NA,NA,NA,NA,NA,NA,NA,NA,NA,NA,NA,NA,NA,NA,NA,NA,NA,NA,NA,NA,NA,NA,NA,NA,NA,NA,NA,NA,NA,NA,NA
SUPAMT84633,3570Y55XZVI8R61P47WQ3J9GDVMGYG,1111290B-7B6B-4BD2-99AF-DEDBB2E8B91B,2023-09-29_08h13.12.271,WP_VExplicitOC_LH,2022.2.5,Win32,12.7131034,NA,NA,NA,NA,NA,NA,NA,NA,NA,NA,NA,100,1.659700001,0,9,9,9,1,read the news,010.png,NA,NA,NA,NA,NA,NA,NA,NA,NA,NA,NA,NA,NA,NA,NA,NA,NA,NA,NA,NA,NA,NA,NA,NA,NA,NA,NA,NA,NA,NA,NA,NA,NA,NA,NA,NA,NA,NA,NA
SUPAMT84633,3570Y55XZVI8R61P47WQ3J9GDVMGYG,1111290B-7B6B-4BD2-99AF-DEDBB2E8B91B,2023-09-29_08h13.12.271,WP_VExplicitOC_LH,2022.2.5,Win32,12.7131034,NA,NA,NA,NA,NA,NA,NA,NA,NA,NA,NA,NA,NA,NA,NA,NA,NA,NA,NA,NA,NA,NA,NA,NA,NA,NA,NA,NA,NA,NA,NA,NA,NA,NA,NA,NA,NA,NA,NA,NA,NA,NA,NA,NA,NA,NA,NA,NA,NA,NA,NA,NA,NA,NA,NA,NA,NA,NA,NA
SUPAMT84633,3570Y55XZVI8R61P47WQ3J9GDVMGYG,1111290B-7B6B-4BD2-99AF-DEDBB2E8B91B,2023-09-29_08h13.12.271,WP_VExplicitOC_LH,2022.2.5,Win32,12.7131034,NA,NA,NA,NA,NA,NA,NA,NA,NA,NA,NA,NA,NA,NA,NA,NA,NA,NA,NA,NA,stand up,NA,NA,NA,NA,NA,NA,NA,NA,NA,NA,NA,NA,NA,NA,NA,NA,NA,NA,NA,NA,NA,NA,NA,NA,NA,NA,NA,NA,NA,NA,NA,NA,NA,NA,NA,NA,NA,NA
SUPAMT84633,3570Y55XZVI8R61P47WQ3J9GDVMGYG,1111290B-7B6B-4BD2-99AF-DEDBB2E8B91B,2023-09-29_08h13.12.271,WP_VExplicitOC_LH,2022.2.5,Win32,12.7131034,100,3.883099999,2.0312,NA,NA,NA,NA,NA,frustrated,"frustrated, not frustrated","more frustrated, less frustrated",NA,NA,NA,NA,NA,NA,NA,NA,NA,NA,0,0,0,1,1,NA,NA,NA,NA,NA,NA,NA,NA,NA,NA,NA,NA,NA,NA,NA,NA,NA,NA,NA,NA,NA,NA,NA,NA,NA,NA,NA,NA,NA,NA,NA,NA,NA
SUPAMT84633,3570Y55XZVI8R61P47WQ3J9GDVMGYG,1111290B-7B6B-4BD2-99AF-DEDBB2E8B91B,2023-09-29_08h13.12.271,WP_VExplicitOC_LH,2022.2.5,Win32,12.7131034,100,3.975299999,2.0616,NA,NA,NA,NA,NA,happy,"unhappy, happy","less happy, more happy",NA,NA,NA,NA,NA,NA,NA,NA,NA,NA,0,1,1,0,1,NA,NA,NA,NA,NA,NA,NA,NA,NA,NA,NA,NA,NA,NA,NA,NA,NA,NA,NA,NA,NA,NA,NA,NA,NA,NA,NA,NA,NA,NA,NA,NA,NA
SUPAMT84633,3570Y55XZVI8R61P47WQ3J9GDVMGYG,1111290B-7B6B-4BD2-99AF-DEDBB2E8B91B,2023-09-29_08h13.12.271,WP_VExplicitOC_LH,2022.2.5,Win32,12.7131034,100,3.6052,2.0275,NA,NA,NA,NA,NA,bored,"bored, not bored","more bored, less bored",NA,NA,NA,NA,NA,NA,NA,NA,NA,NA,0,2,2,2,1,NA,NA,NA,NA,NA,NA,NA,NA,NA,NA,NA,NA,NA,NA,NA,NA,NA,NA,NA,NA,NA,NA,NA,NA,NA,NA,NA,NA,NA,NA,NA,NA,NA
SUPAMT84633,3570Y55XZVI8R61P47WQ3J9GDVMGYG,1111290B-7B6B-4BD2-99AF-DEDBB2E8B91B,2023-09-29_08h13.12.271,WP_VExplicitOC_LH,2022.2.5,Win32,12.7131034,NA,NA,NA,NA,NA,NA,NA,NA,NA,NA,NA,NA,NA,NA,NA,NA,NA,NA,NA,NA,NA,NA,NA,NA,NA,NA,NA,NA,NA,NA,NA,NA,NA,NA,NA,NA,NA,NA,NA,NA,NA,NA,NA,NA,NA,NA,NA,NA,NA,NA,NA,NA,NA,NA,NA,NA,NA,NA,NA
SUPAMT84633,3570Y55XZVI8R61P47WQ3J9GDVMGYG,1111290B-7B6B-4BD2-99AF-DEDBB2E8B91B,2023-09-29_08h13.12.271,WP_VExplicitOC_LH,2022.2.5,Win32,12.7131034,NA,NA,NA,NA,NA,NA,NA,NA,NA,NA,NA,NA,NA,NA,NA,NA,NA,NA,NA,NA,NA,NA,NA,NA,NA,NA,NA,NA,NA,NA,NA,NA,NA,NA,NA,NA,NA,NA,NA,NA,NA,NA,NA,NA,NA,NA,NA,NA,NA,NA,NA,NA,NA,NA,NA,NA,NA,NA,NA
SUPAMT84633,3570Y55XZVI8R61P47WQ3J9GDVMGYG,1111290B-7B6B-4BD2-99AF-DEDBB2E8B91B,2023-09-29_08h13.12.271,WP_VExplicitOC_LH,2022.2.5,Win32,12.7131034,100,5.0298,2.0347,NA,NA,NA,NA,NA,frustrated,"frustrated, not frustrated","more frustrated, less frustrated",NA,NA,NA,NA,NA,NA,NA,NA,NA,NA,NA,NA,NA,NA,NA,0,0,0,1,1,NA,NA,NA,NA,NA,NA,NA,NA,NA,NA,NA,NA,NA,NA,NA,NA,NA,NA,NA,NA,NA,NA,NA,NA,NA,NA,NA,NA
SUPAMT84633,3570Y55XZVI8R61P47WQ3J9GDVMGYG,1111290B-7B6B-4BD2-99AF-DEDBB2E8B91B,2023-09-29_08h13.12.271,WP_VExplicitOC_LH,2022.2.5,Win32,12.7131034,100,4.1195,2.0587,NA,NA,NA,NA,NA,bored,"bored, not bored","more bored, less bored",NA,NA,NA,NA,NA,NA,NA,NA,NA,NA,NA,NA,NA,NA,NA,0,1,1,2,1,NA,NA,NA,NA,NA,NA,NA,NA,NA,NA,NA,NA,NA,NA,NA,NA,NA,NA,NA,NA,NA,NA,NA,NA,NA,NA,NA,NA
SUPAMT84633,3570Y55XZVI8R61P47WQ3J9GDVMGYG,1111290B-7B6B-4BD2-99AF-DEDBB2E8B91B,2023-09-29_08h13.12.271,WP_VExplicitOC_LH,2022.2.5,Win32,12.7131034,100,3.7926,2.029799999,NA,NA,NA,NA,NA,happy,"unhappy, happy","less happy, more happy",NA,NA,NA,NA,NA,NA,NA,NA,NA,NA,NA,NA,NA,NA,NA,0,2,2,0,1,NA,NA,NA,NA,NA,NA,NA,NA,NA,NA,NA,NA,NA,NA,NA,NA,NA,NA,NA,NA,NA,NA,NA,NA,NA,NA,NA,NA
SUPAMT84633,3570Y55XZVI8R61P47WQ3J9GDVMGYG,1111290B-7B6B-4BD2-99AF-DEDBB2E8B91B,2023-09-29_08h13.12.271,WP_VExplicitOC_LH,2022.2.5,Win32,12.7131034,NA,NA,NA,NA,NA,NA,NA,NA,NA,NA,NA,NA,NA,NA,NA,NA,NA,NA,NA,NA,NA,NA,NA,NA,NA,NA,NA,NA,NA,NA,NA,0,0,0,0,1,NA,NA,NA,NA,NA,NA,NA,NA,NA,NA,NA,NA,NA,NA,NA,NA,NA,NA,NA,NA,NA,NA,NA
SUPAMT84633,3570Y55XZVI8R61P47WQ3J9GDVMGYG,1111290B-7B6B-4BD2-99AF-DEDBB2E8B91B,2023-09-29_08h13.12.271,WP_VExplicitOC_LH,2022.2.5,Win32,12.7131034,100,3.5484,2.0495,NA,NA,NA,NA,NA,happy,"unhappy, happy","less happy, more happy",NA,NA,NA,NA,NA,NA,NA,NA,NA,NA,NA,NA,NA,NA,NA,0,0,0,0,1,NA,NA,NA,NA,NA,NA,NA,NA,NA,NA,NA,NA,NA,NA,NA,NA,NA,NA,NA,NA,NA,NA,NA,NA,NA,NA,NA,NA
SUPAMT84633,3570Y55XZVI8R61P47WQ3J9GDVMGYG,1111290B-7B6B-4BD2-99AF-DEDBB2E8B91B,2023-09-29_08h13.12.271,WP_VExplicitOC_LH,2022.2.5,Win32,12.7131034,100,3.518099999,2.0716,NA,NA,NA,NA,NA,bored,"bored, not bored","more bored, less bored",NA,NA,NA,NA,NA,NA,NA,NA,NA,NA,NA,NA,NA,NA,NA,0,1,1,2,1,NA,NA,NA,NA,NA,NA,NA,NA,NA,NA,NA,NA,NA,NA,NA,NA,NA,NA,NA,NA,NA,NA,NA,NA,NA,NA,NA,NA
SUPAMT84633,3570Y55XZVI8R61P47WQ3J9GDVMGYG,1111290B-7B6B-4BD2-99AF-DEDBB2E8B91B,2023-09-29_08h13.12.271,WP_VExplicitOC_LH,2022.2.5,Win32,12.7131034,NA,NA,2.043900001,NA,NA,NA,NA,NA,frustrated,"frustrated, not frustrated","more frustrated, less frustrated",NA,NA,NA,NA,NA,NA,NA,NA,NA,NA,NA,NA,NA,NA,NA,0,2,2,1,1,NA,NA,NA,NA,NA,NA,NA,NA,NA,NA,NA,NA,NA,NA,NA,NA,NA,NA,NA,NA,NA,NA,NA,NA,NA,NA,NA,NA
SUPAMT84633,3570Y55XZVI8R61P47WQ3J9GDVMGYG,1111290B-7B6B-4BD2-99AF-DEDBB2E8B91B,2023-09-29_08h13.12.271,WP_VExplicitOC_LH,2022.2.5,Win32,12.7131034,NA,NA,NA,NA,NA,NA,NA,NA,NA,NA,NA,NA,NA,NA,NA,NA,NA,NA,NA,NA,NA,NA,NA,NA,NA,NA,NA,NA,NA,NA,NA,1,0,1,0,1,NA,NA,NA,NA,NA,NA,NA,NA,NA,NA,NA,NA,NA,NA,NA,NA,NA,NA,NA,NA,NA,NA,NA
SUPAMT84633,3570Y55XZVI8R61P47WQ3J9GDVMGYG,1111290B-7B6B-4BD2-99AF-DEDBB2E8B91B,2023-09-29_08h13.12.271,WP_VExplicitOC_LH,2022.2.5,Win32,12.7131034,100,4.942299999,2.0228,NA,NA,NA,NA,NA,happy,"unhappy, happy","less happy, more happy",NA,NA,NA,NA,NA,NA,NA,NA,NA,NA,NA,NA,NA,NA,NA,0,0,0,0,1,NA,NA,NA,NA,NA,NA,NA,NA,NA,NA,NA,NA,NA,NA,NA,NA,NA,NA,NA,NA,NA,NA,NA,NA,NA,NA,NA,NA
SUPAMT84633,3570Y55XZVI8R61P47WQ3J9GDVMGYG,1111290B-7B6B-4BD2-99AF-DEDBB2E8B91B,2023-09-29_08h13.12.271,WP_VExplicitOC_LH,2022.2.5,Win32,12.7131034,100,4.3863,2.0689,NA,NA,NA,NA,NA,frustrated,"frustrated, not frustrated","more frustrated, less frustrated",NA,NA,NA,NA,NA,NA,NA,NA,NA,NA,NA,NA,NA,NA,NA,0,1,1,1,1,NA,NA,NA,NA,NA,NA,NA,NA,NA,NA,NA,NA,NA,NA,NA,NA,NA,NA,NA,NA,NA,NA,NA,NA,NA,NA,NA,NA
SUPAMT84633,3570Y55XZVI8R61P47WQ3J9GDVMGYG,1111290B-7B6B-4BD2-99AF-DEDBB2E8B91B,2023-09-29_08h13.12.271,WP_VExplicitOC_LH,2022.2.5,Win32,12.7131034,100,3.755599999,2.0557,NA,NA,NA,NA,NA,bored,"bored, not bored","more bored, less bored",NA,NA,NA,NA,NA,NA,NA,NA,NA,NA,NA,NA,NA,NA,NA,0,2,2,2,1,NA,NA,NA,NA,NA,NA,NA,NA,NA,NA,NA,NA,NA,NA,NA,NA,NA,NA,NA,NA,NA,NA,NA,NA,NA,NA,NA,NA
SUPAMT84633,3570Y55XZVI8R61P47WQ3J9GDVMGYG,1111290B-7B6B-4BD2-99AF-DEDBB2E8B91B,2023-09-29_08h13.12.271,WP_VExplicitOC_LH,2022.2.5,Win32,12.7131034,NA,NA,NA,NA,NA,NA,NA,NA,NA,NA,NA,NA,NA,NA,NA,NA,NA,NA,NA,NA,NA,NA,NA,NA,NA,NA,NA,NA,NA,NA,NA,2,0,2,0,1,NA,NA,NA,NA,NA,NA,NA,NA,NA,NA,NA,NA,NA,NA,NA,NA,NA,NA,NA,NA,NA,NA,NA
SUPAMT84633,3570Y55XZVI8R61P47WQ3J9GDVMGYG,1111290B-7B6B-4BD2-99AF-DEDBB2E8B91B,2023-09-29_08h13.12.271,WP_VExplicitOC_LH,2022.2.5,Win32,12.7131034,100,3.979,2.044099999,NA,NA,NA,NA,NA,bored,"bored, not bored","more bored, less bored",NA,NA,NA,NA,NA,NA,NA,NA,NA,NA,NA,NA,NA,NA,NA,0,0,0,2,1,NA,NA,NA,NA,NA,NA,NA,NA,NA,NA,NA,NA,NA,NA,NA,NA,NA,NA,NA,NA,NA,NA,NA,NA,NA,NA,NA,NA
SUPAMT84633,3570Y55XZVI8R61P47WQ3J9GDVMGYG,1111290B-7B6B-4BD2-99AF-DEDBB2E8B91B,2023-09-29_08h13.12.271,WP_VExplicitOC_LH,2022.2.5,Win32,12.7131034,100,3.7526,2.0335,NA,NA,NA,NA,NA,happy,"unhappy, happy","less happy, more happy",NA,NA,NA,NA,NA,NA,NA,NA,NA,NA,NA,NA,NA,NA,NA,0,1,1,0,1,NA,NA,NA,NA,NA,NA,NA,NA,NA,NA,NA,NA,NA,NA,NA,NA,NA,NA,NA,NA,NA,NA,NA,NA,NA,NA,NA,NA
SUPAMT84633,3570Y55XZVI8R61P47WQ3J9GDVMGYG,1111290B-7B6B-4BD2-99AF-DEDBB2E8B91B,2023-09-29_08h13.12.271,WP_VExplicitOC_LH,2022.2.5,Win32,12.7131034,100,3.9199,2.0353,NA,NA,NA,NA,NA,frustrated,"frustrated, not frustrated","more frustrated, less frustrated",NA,NA,NA,NA,NA,NA,NA,NA,NA,NA,NA,NA,NA,NA,NA,0,2,2,1,1,NA,NA,NA,NA,NA,NA,NA,NA,NA,NA,NA,NA,NA,NA,NA,NA,NA,NA,NA,NA,NA,NA,NA,NA,NA,NA,NA,NA
SUPAMT84633,3570Y55XZVI8R61P47WQ3J9GDVMGYG,1111290B-7B6B-4BD2-99AF-DEDBB2E8B91B,2023-09-29_08h13.12.271,WP_VExplicitOC_LH,2022.2.5,Win32,12.7131034,NA,NA,NA,NA,NA,NA,NA,NA,NA,NA,NA,NA,NA,NA,NA,NA,NA,NA,NA,NA,NA,NA,NA,NA,NA,NA,NA,NA,NA,NA,NA,3,0,3,0,1,NA,NA,NA,NA,NA,NA,NA,NA,NA,NA,NA,NA,NA,NA,NA,NA,NA,NA,NA,NA,NA,NA,NA
SUPAMT84633,3570Y55XZVI8R61P47WQ3J9GDVMGYG,1111290B-7B6B-4BD2-99AF-DEDBB2E8B91B,2023-09-29_08h13.12.271,WP_VExplicitOC_LH,2022.2.5,Win32,12.7131034,100,3.616,2.0252,NA,NA,NA,NA,NA,frustrated,"frustrated, not frustrated","more frustrated, less frustrated",NA,NA,NA,NA,NA,NA,NA,NA,NA,NA,NA,NA,NA,NA,NA,0,0,0,1,1,NA,NA,NA,NA,NA,NA,NA,NA,NA,NA,NA,NA,NA,NA,NA,NA,NA,NA,NA,NA,NA,NA,NA,NA,NA,NA,NA,NA
SUPAMT84633,3570Y55XZVI8R61P47WQ3J9GDVMGYG,1111290B-7B6B-4BD2-99AF-DEDBB2E8B91B,2023-09-29_08h13.12.271,WP_VExplicitOC_LH,2022.2.5,Win32,12.7131034,100,5.701400001,2.0598,NA,NA,NA,NA,NA,bored,"bored, not bored","more bored, less bored",NA,NA,NA,NA,NA,NA,NA,NA,NA,NA,NA,NA,NA,NA,NA,0,1,1,2,1,NA,NA,NA,NA,NA,NA,NA,NA,NA,NA,NA,NA,NA,NA,NA,NA,NA,NA,NA,NA,NA,NA,NA,NA,NA,NA,NA,NA
SUPAMT84633,3570Y55XZVI8R61P47WQ3J9GDVMGYG,1111290B-7B6B-4BD2-99AF-DEDBB2E8B91B,2023-09-29_08h13.12.271,WP_VExplicitOC_LH,2022.2.5,Win32,12.7131034,100,6.832099999,2.04,NA,NA,NA,NA,NA,happy,"unhappy, happy","less happy, more happy",NA,NA,NA,NA,NA,NA,NA,NA,NA,NA,NA,NA,NA,NA,NA,0,2,2,0,1,NA,NA,NA,NA,NA,NA,NA,NA,NA,NA,NA,NA,NA,NA,NA,NA,NA,NA,NA,NA,NA,NA,NA,NA,NA,NA,NA,NA
SUPAMT84633,3570Y55XZVI8R61P47WQ3J9GDVMGYG,1111290B-7B6B-4BD2-99AF-DEDBB2E8B91B,2023-09-29_08h13.12.271,WP_VExplicitOC_LH,2022.2.5,Win32,12.7131034,NA,NA,NA,NA,NA,NA,NA,NA,NA,NA,NA,NA,NA,NA,NA,NA,NA,NA,NA,NA,NA,NA,NA,NA,NA,NA,NA,NA,NA,NA,NA,4,0,4,0,1,NA,NA,NA,NA,NA,NA,NA,NA,NA,NA,NA,NA,NA,NA,NA,NA,NA,NA,NA,NA,NA,NA,NA
SUPAMT84633,3570Y55XZVI8R61P47WQ3J9GDVMGYG,1111290B-7B6B-4BD2-99AF-DEDBB2E8B91B,2023-09-29_08h13.12.271,WP_VExplicitOC_LH,2022.2.5,Win32,12.7131034,100,4.7346,2.0044,NA,NA,NA,NA,NA,bored,"bored, not bored","more bored, less bored",NA,NA,NA,NA,NA,NA,NA,NA,NA,NA,NA,NA,NA,NA,NA,0,0,0,2,1,NA,NA,NA,NA,NA,NA,NA,NA,NA,NA,NA,NA,NA,NA,NA,NA,NA,NA,NA,NA,NA,NA,NA,NA,NA,NA,NA,NA
SUPAMT84633,3570Y55XZVI8R61P47WQ3J9GDVMGYG,1111290B-7B6B-4BD2-99AF-DEDBB2E8B91B,2023-09-29_08h13.12.271,WP_VExplicitOC_LH,2022.2.5,Win32,12.7131034,100,5.5645,2.0475,NA,NA,NA,NA,NA,happy,"unhappy, happy","less happy, more happy",NA,NA,NA,NA,NA,NA,NA,NA,NA,NA,NA,NA,NA,NA,NA,0,1,1,0,1,NA,NA,NA,NA,NA,NA,NA,NA,NA,NA,NA,NA,NA,NA,NA,NA,NA,NA,NA,NA,NA,NA,NA,NA,NA,NA,NA,NA
SUPAMT84633,3570Y55XZVI8R61P47WQ3J9GDVMGYG,1111290B-7B6B-4BD2-99AF-DEDBB2E8B91B,2023-09-29_08h13.12.271,WP_VExplicitOC_LH,2022.2.5,Win32,12.7131034,100,4.3639,2.0195,NA,NA,NA,NA,NA,frustrated,"frustrated, not frustrated","more frustrated, less frustrated",NA,NA,NA,NA,NA,NA,NA,NA,NA,NA,NA,NA,NA,NA,NA,0,2,2,1,1,NA,NA,NA,NA,NA,NA,NA,NA,NA,NA,NA,NA,NA,NA,NA,NA,NA,NA,NA,NA,NA,NA,NA,NA,NA,NA,NA,NA
SUPAMT84633,3570Y55XZVI8R61P47WQ3J9GDVMGYG,1111290B-7B6B-4BD2-99AF-DEDBB2E8B91B,2023-09-29_08h13.12.271,WP_VExplicitOC_LH,2022.2.5,Win32,12.7131034,NA,NA,NA,NA,NA,NA,NA,NA,NA,NA,NA,NA,NA,NA,NA,NA,NA,NA,NA,NA,NA,NA,NA,NA,NA,NA,NA,NA,NA,NA,NA,5,0,5,0,1,NA,NA,NA,NA,NA,NA,NA,NA,NA,NA,NA,NA,NA,NA,NA,NA,NA,NA,NA,NA,NA,NA,NA
SUPAMT84633,3570Y55XZVI8R61P47WQ3J9GDVMGYG,1111290B-7B6B-4BD2-99AF-DEDBB2E8B91B,2023-09-29_08h13.12.271,WP_VExplicitOC_LH,2022.2.5,Win32,12.7131034,NA,NA,2.070099999,NA,NA,NA,NA,NA,frustrated,"frustrated, not frustrated","more frustrated, less frustrated",NA,NA,NA,NA,NA,NA,NA,NA,NA,NA,NA,NA,NA,NA,NA,0,0,0,1,1,NA,NA,NA,NA,NA,NA,NA,NA,NA,NA,NA,NA,NA,NA,NA,NA,NA,NA,NA,NA,NA,NA,NA,NA,NA,NA,NA,NA
SUPAMT84633,3570Y55XZVI8R61P47WQ3J9GDVMGYG,1111290B-7B6B-4BD2-99AF-DEDBB2E8B91B,2023-09-29_08h13.12.271,WP_VExplicitOC_LH,2022.2.5,Win32,12.7131034,NA,NA,2.0469,NA,NA,NA,NA,NA,happy,"unhappy, happy","less happy, more happy",NA,NA,NA,NA,NA,NA,NA,NA,NA,NA,NA,NA,NA,NA,NA,0,1,1,0,1,NA,NA,NA,NA,NA,NA,NA,NA,NA,NA,NA,NA,NA,NA,NA,NA,NA,NA,NA,NA,NA,NA,NA,NA,NA,NA,NA,NA
SUPAMT84633,3570Y55XZVI8R61P47WQ3J9GDVMGYG,1111290B-7B6B-4BD2-99AF-DEDBB2E8B91B,2023-09-29_08h13.12.271,WP_VExplicitOC_LH,2022.2.5,Win32,12.7131034,100,4.7517,2.048200001,NA,NA,NA,NA,NA,bored,"bored, not bored","more bored, less bored",NA,NA,NA,NA,NA,NA,NA,NA,NA,NA,NA,NA,NA,NA,NA,0,2,2,2,1,NA,NA,NA,NA,NA,NA,NA,NA,NA,NA,NA,NA,NA,NA,NA,NA,NA,NA,NA,NA,NA,NA,NA,NA,NA,NA,NA,NA
SUPAMT84633,3570Y55XZVI8R61P47WQ3J9GDVMGYG,1111290B-7B6B-4BD2-99AF-DEDBB2E8B91B,2023-09-29_08h13.12.271,WP_VExplicitOC_LH,2022.2.5,Win32,12.7131034,NA,NA,NA,NA,NA,NA,NA,NA,NA,NA,NA,NA,NA,NA,NA,NA,NA,NA,NA,NA,NA,NA,NA,NA,NA,NA,NA,NA,NA,NA,NA,6,0,6,0,1,NA,NA,NA,NA,NA,NA,NA,NA,NA,NA,NA,NA,NA,NA,NA,NA,NA,NA,NA,NA,NA,NA,NA
SUPAMT84633,3570Y55XZVI8R61P47WQ3J9GDVMGYG,1111290B-7B6B-4BD2-99AF-DEDBB2E8B91B,2023-09-29_08h13.12.271,WP_VExplicitOC_LH,2022.2.5,Win32,12.7131034,100,4.0232,2.0345,NA,NA,NA,NA,NA,frustrated,"frustrated, not frustrated","more frustrated, less frustrated",NA,NA,NA,NA,NA,NA,NA,NA,NA,NA,NA,NA,NA,NA,NA,0,0,0,1,1,NA,NA,NA,NA,NA,NA,NA,NA,NA,NA,NA,NA,NA,NA,NA,NA,NA,NA,NA,NA,NA,NA,NA,NA,NA,NA,NA,NA
SUPAMT84633,3570Y55XZVI8R61P47WQ3J9GDVMGYG,1111290B-7B6B-4BD2-99AF-DEDBB2E8B91B,2023-09-29_08h13.12.271,WP_VExplicitOC_LH,2022.2.5,Win32,12.7131034,100,3.748900001,2.0874,NA,NA,NA,NA,NA,happy,"unhappy, happy","less happy, more happy",NA,NA,NA,NA,NA,NA,NA,NA,NA,NA,NA,NA,NA,NA,NA,0,1,1,0,1,NA,NA,NA,NA,NA,NA,NA,NA,NA,NA,NA,NA,NA,NA,NA,NA,NA,NA,NA,NA,NA,NA,NA,NA,NA,NA,NA,NA
SUPAMT84633,3570Y55XZVI8R61P47WQ3J9GDVMGYG,1111290B-7B6B-4BD2-99AF-DEDBB2E8B91B,2023-09-29_08h13.12.271,WP_VExplicitOC_LH,2022.2.5,Win32,12.7131034,100,3.873700001,2.0628,NA,NA,NA,NA,NA,bored,"bored, not bored","more bored, less bored",NA,NA,NA,NA,NA,NA,NA,NA,NA,NA,NA,NA,NA,NA,NA,0,2,2,2,1,NA,NA,NA,NA,NA,NA,NA,NA,NA,NA,NA,NA,NA,NA,NA,NA,NA,NA,NA,NA,NA,NA,NA,NA,NA,NA,NA,NA
SUPAMT84633,3570Y55XZVI8R61P47WQ3J9GDVMGYG,1111290B-7B6B-4BD2-99AF-DEDBB2E8B91B,2023-09-29_08h13.12.271,WP_VExplicitOC_LH,2022.2.5,Win32,12.7131034,NA,NA,NA,NA,NA,NA,NA,NA,NA,NA,NA,NA,NA,NA,NA,NA,NA,NA,NA,NA,NA,NA,NA,NA,NA,NA,NA,NA,NA,NA,NA,7,0,7,0,1,NA,NA,NA,NA,NA,NA,NA,NA,NA,NA,NA,NA,NA,NA,NA,NA,NA,NA,NA,NA,NA,NA,NA
SUPAMT84633,3570Y55XZVI8R61P47WQ3J9GDVMGYG,1111290B-7B6B-4BD2-99AF-DEDBB2E8B91B,2023-09-29_08h13.12.271,WP_VExplicitOC_LH,2022.2.5,Win32,12.7131034,100,4.3986,2.0709,NA,NA,NA,NA,NA,happy,"unhappy, happy","less happy, more happy",NA,NA,NA,NA,NA,NA,NA,NA,NA,NA,NA,NA,NA,NA,NA,0,0,0,0,1,NA,NA,NA,NA,NA,NA,NA,NA,NA,NA,NA,NA,NA,NA,NA,NA,NA,NA,NA,NA,NA,NA,NA,NA,NA,NA,NA,NA
SUPAMT84633,3570Y55XZVI8R61P47WQ3J9GDVMGYG,1111290B-7B6B-4BD2-99AF-DEDBB2E8B91B,2023-09-29_08h13.12.271,WP_VExplicitOC_LH,2022.2.5,Win32,12.7131034,100,3.744400001,2.0324,NA,NA,NA,NA,NA,frustrated,"frustrated, not frustrated","more frustrated, less frustrated",NA,NA,NA,NA,NA,NA,NA,NA,NA,NA,NA,NA,NA,NA,NA,0,1,1,1,1,NA,NA,NA,NA,NA,NA,NA,NA,NA,NA,NA,NA,NA,NA,NA,NA,NA,NA,NA,NA,NA,NA,NA,NA,NA,NA,NA,NA
SUPAMT84633,3570Y55XZVI8R61P47WQ3J9GDVMGYG,1111290B-7B6B-4BD2-99AF-DEDBB2E8B91B,2023-09-29_08h13.12.271,WP_VExplicitOC_LH,2022.2.5,Win32,12.7131034,100,4.693,2.06,NA,NA,NA,NA,NA,bored,"bored, not bored","more bored, less bored",NA,NA,NA,NA,NA,NA,NA,NA,NA,NA,NA,NA,NA,NA,NA,0,2,2,2,1,NA,NA,NA,NA,NA,NA,NA,NA,NA,NA,NA,NA,NA,NA,NA,NA,NA,NA,NA,NA,NA,NA,NA,NA,NA,NA,NA,NA
SUPAMT84633,3570Y55XZVI8R61P47WQ3J9GDVMGYG,1111290B-7B6B-4BD2-99AF-DEDBB2E8B91B,2023-09-29_08h13.12.271,WP_VExplicitOC_LH,2022.2.5,Win32,12.7131034,NA,NA,NA,NA,NA,NA,NA,NA,NA,NA,NA,NA,NA,NA,NA,NA,NA,NA,NA,NA,NA,NA,NA,NA,NA,NA,NA,NA,NA,NA,NA,8,0,8,0,1,NA,NA,NA,NA,NA,NA,NA,NA,NA,NA,NA,NA,NA,NA,NA,NA,NA,NA,NA,NA,NA,NA,NA
SUPAMT84633,3570Y55XZVI8R61P47WQ3J9GDVMGYG,1111290B-7B6B-4BD2-99AF-DEDBB2E8B91B,2023-09-29_08h13.12.271,WP_VExplicitOC_LH,2022.2.5,Win32,12.7131034,100,4.3806,2.0449,NA,NA,NA,NA,NA,bored,"bored, not bored","more bored, less bored",NA,NA,NA,NA,NA,NA,NA,NA,NA,NA,NA,NA,NA,NA,NA,0,0,0,2,1,NA,NA,NA,NA,NA,NA,NA,NA,NA,NA,NA,NA,NA,NA,NA,NA,NA,NA,NA,NA,NA,NA,NA,NA,NA,NA,NA,NA
SUPAMT84633,3570Y55XZVI8R61P47WQ3J9GDVMGYG,1111290B-7B6B-4BD2-99AF-DEDBB2E8B91B,2023-09-29_08h13.12.271,WP_VExplicitOC_LH,2022.2.5,Win32,12.7131034,100,3.999400001,2.0088,NA,NA,NA,NA,NA,frustrated,"frustrated, not frustrated","more frustrated, less frustrated",NA,NA,NA,NA,NA,NA,NA,NA,NA,NA,NA,NA,NA,NA,NA,0,1,1,1,1,NA,NA,NA,NA,NA,NA,NA,NA,NA,NA,NA,NA,NA,NA,NA,NA,NA,NA,NA,NA,NA,NA,NA,NA,NA,NA,NA,NA
SUPAMT84633,3570Y55XZVI8R61P47WQ3J9GDVMGYG,1111290B-7B6B-4BD2-99AF-DEDBB2E8B91B,2023-09-29_08h13.12.271,WP_VExplicitOC_LH,2022.2.5,Win32,12.7131034,100,5.5941,2.0159,NA,NA,NA,NA,NA,happy,"unhappy, happy","less happy, more happy",NA,NA,NA,NA,NA,NA,NA,NA,NA,NA,NA,NA,NA,NA,NA,0,2,2,0,1,NA,NA,NA,NA,NA,NA,NA,NA,NA,NA,NA,NA,NA,NA,NA,NA,NA,NA,NA,NA,NA,NA,NA,NA,NA,NA,NA,NA
SUPAMT84633,3570Y55XZVI8R61P47WQ3J9GDVMGYG,1111290B-7B6B-4BD2-99AF-DEDBB2E8B91B,2023-09-29_08h13.12.271,WP_VExplicitOC_LH,2022.2.5,Win32,12.7131034,NA,NA,NA,NA,NA,NA,NA,NA,NA,NA,NA,NA,NA,NA,NA,NA,NA,NA,NA,NA,NA,NA,NA,NA,NA,NA,NA,NA,NA,NA,NA,9,0,9,0,1,NA,NA,NA,NA,NA,NA,NA,NA,NA,NA,NA,NA,NA,NA,NA,NA,NA,NA,NA,NA,NA,NA,NA
SUPAMT84633,3570Y55XZVI8R61P47WQ3J9GDVMGYG,1111290B-7B6B-4BD2-99AF-DEDBB2E8B91B,2023-09-29_08h13.12.271,WP_VExplicitOC_LH,2022.2.5,Win32,12.7131034,100,3.9007,2.058900001,NA,NA,NA,NA,NA,bored,"bored, not bored","more bored, less bored",NA,NA,NA,NA,NA,NA,NA,NA,NA,NA,NA,NA,NA,NA,NA,0,0,0,2,1,NA,NA,NA,NA,NA,NA,NA,NA,NA,NA,NA,NA,NA,NA,NA,NA,NA,NA,NA,NA,NA,NA,NA,NA,NA,NA,NA,NA
SUPAMT84633,3570Y55XZVI8R61P47WQ3J9GDVMGYG,1111290B-7B6B-4BD2-99AF-DEDBB2E8B91B,2023-09-29_08h13.12.271,WP_VExplicitOC_LH,2022.2.5,Win32,12.7131034,100,4.9887,2.0397,NA,NA,NA,NA,NA,happy,"unhappy, happy","less happy, more happy",NA,NA,NA,NA,NA,NA,NA,NA,NA,NA,NA,NA,NA,NA,NA,0,1,1,0,1,NA,NA,NA,NA,NA,NA,NA,NA,NA,NA,NA,NA,NA,NA,NA,NA,NA,NA,NA,NA,NA,NA,NA,NA,NA,NA,NA,NA
SUPAMT84633,3570Y55XZVI8R61P47WQ3J9GDVMGYG,1111290B-7B6B-4BD2-99AF-DEDBB2E8B91B,2023-09-29_08h13.12.271,WP_VExplicitOC_LH,2022.2.5,Win32,12.7131034,100,3.9835,2.0379,NA,NA,NA,NA,NA,frustrated,"frustrated, not frustrated","more frustrated, less frustrated",NA,NA,NA,NA,NA,NA,NA,NA,NA,NA,NA,NA,NA,NA,NA,0,2,2,1,1,NA,NA,NA,NA,NA,NA,NA,NA,NA,NA,NA,NA,NA,NA,NA,NA,NA,NA,NA,NA,NA,NA,NA,NA,NA,NA,NA,NA
SUPAMT84633,3570Y55XZVI8R61P47WQ3J9GDVMGYG,1111290B-7B6B-4BD2-99AF-DEDBB2E8B91B,2023-09-29_08h13.12.271,WP_VExplicitOC_LH,2022.2.5,Win32,12.7131034,NA,NA,NA,NA,NA,NA,NA,NA,NA,NA,NA,NA,NA,NA,NA,NA,NA,NA,NA,NA,NA,NA,NA,NA,NA,NA,NA,NA,NA,NA,NA,10,0,10,0,1,NA,NA,NA,NA,NA,NA,NA,NA,NA,NA,NA,NA,NA,NA,NA,NA,NA,NA,NA,NA,NA,NA,NA
SUPAMT84633,3570Y55XZVI8R61P47WQ3J9GDVMGYG,1111290B-7B6B-4BD2-99AF-DEDBB2E8B91B,2023-09-29_08h13.12.271,WP_VExplicitOC_LH,2022.2.5,Win32,12.7131034,100,4.630900001,2.0573,NA,NA,NA,NA,NA,happy,"unhappy, happy","less happy, more happy",NA,NA,NA,NA,NA,NA,NA,NA,NA,NA,NA,NA,NA,NA,NA,0,0,0,0,1,NA,NA,NA,NA,NA,NA,NA,NA,NA,NA,NA,NA,NA,NA,NA,NA,NA,NA,NA,NA,NA,NA,NA,NA,NA,NA,NA,NA
SUPAMT84633,3570Y55XZVI8R61P47WQ3J9GDVMGYG,1111290B-7B6B-4BD2-99AF-DEDBB2E8B91B,2023-09-29_08h13.12.271,WP_VExplicitOC_LH,2022.2.5,Win32,12.7131034,100,4.6668,2.0532,NA,NA,NA,NA,NA,frustrated,"frustrated, not frustrated","more frustrated, less frustrated",NA,NA,NA,NA,NA,NA,NA,NA,NA,NA,NA,NA,NA,NA,NA,0,1,1,1,1,NA,NA,NA,NA,NA,NA,NA,NA,NA,NA,NA,NA,NA,NA,NA,NA,NA,NA,NA,NA,NA,NA,NA,NA,NA,NA,NA,NA
SUPAMT84633,3570Y55XZVI8R61P47WQ3J9GDVMGYG,1111290B-7B6B-4BD2-99AF-DEDBB2E8B91B,2023-09-29_08h13.12.271,WP_VExplicitOC_LH,2022.2.5,Win32,12.7131034,100,3.6894,2.0775,NA,NA,NA,NA,NA,bored,"bored, not bored","more bored, less bored",NA,NA,NA,NA,NA,NA,NA,NA,NA,NA,NA,NA,NA,NA,NA,0,2,2,2,1,NA,NA,NA,NA,NA,NA,NA,NA,NA,NA,NA,NA,NA,NA,NA,NA,NA,NA,NA,NA,NA,NA,NA,NA,NA,NA,NA,NA
SUPAMT84633,3570Y55XZVI8R61P47WQ3J9GDVMGYG,1111290B-7B6B-4BD2-99AF-DEDBB2E8B91B,2023-09-29_08h13.12.271,WP_VExplicitOC_LH,2022.2.5,Win32,12.7131034,NA,NA,NA,NA,NA,NA,NA,NA,NA,NA,NA,NA,NA,NA,NA,NA,NA,NA,NA,NA,NA,NA,NA,NA,NA,NA,NA,NA,NA,NA,NA,11,0,11,0,1,NA,NA,NA,NA,NA,NA,NA,NA,NA,NA,NA,NA,NA,NA,NA,NA,NA,NA,NA,NA,NA,NA,NA
SUPAMT84633,3570Y55XZVI8R61P47WQ3J9GDVMGYG,1111290B-7B6B-4BD2-99AF-DEDBB2E8B91B,2023-09-29_08h13.12.271,WP_VExplicitOC_LH,2022.2.5,Win32,12.7131034,100,5.232700001,2.029700001,NA,NA,NA,NA,NA,frustrated,"frustrated, not frustrated","more frustrated, less frustrated",NA,NA,NA,NA,NA,NA,NA,NA,NA,NA,NA,NA,NA,NA,NA,0,0,0,1,1,NA,NA,NA,NA,NA,NA,NA,NA,NA,NA,NA,NA,NA,NA,NA,NA,NA,NA,NA,NA,NA,NA,NA,NA,NA,NA,NA,NA
SUPAMT84633,3570Y55XZVI8R61P47WQ3J9GDVMGYG,1111290B-7B6B-4BD2-99AF-DEDBB2E8B91B,2023-09-29_08h13.12.271,WP_VExplicitOC_LH,2022.2.5,Win32,12.7131034,100,4.1516,2.0667,NA,NA,NA,NA,NA,bored,"bored, not bored","more bored, less bored",NA,NA,NA,NA,NA,NA,NA,NA,NA,NA,NA,NA,NA,NA,NA,0,1,1,2,1,NA,NA,NA,NA,NA,NA,NA,NA,NA,NA,NA,NA,NA,NA,NA,NA,NA,NA,NA,NA,NA,NA,NA,NA,NA,NA,NA,NA
SUPAMT84633,3570Y55XZVI8R61P47WQ3J9GDVMGYG,1111290B-7B6B-4BD2-99AF-DEDBB2E8B91B,2023-09-29_08h13.12.271,WP_VExplicitOC_LH,2022.2.5,Win32,12.7131034,100,5.332299999,2.0523,NA,NA,NA,NA,NA,happy,"unhappy, happy","less happy, more happy",NA,NA,NA,NA,NA,NA,NA,NA,NA,NA,NA,NA,NA,NA,NA,0,2,2,0,1,NA,NA,NA,NA,NA,NA,NA,NA,NA,NA,NA,NA,NA,NA,NA,NA,NA,NA,NA,NA,NA,NA,NA,NA,NA,NA,NA,NA
SUPAMT84633,3570Y55XZVI8R61P47WQ3J9GDVMGYG,1111290B-7B6B-4BD2-99AF-DEDBB2E8B91B,2023-09-29_08h13.12.271,WP_VExplicitOC_LH,2022.2.5,Win32,12.7131034,NA,NA,NA,NA,NA,NA,NA,NA,NA,NA,NA,NA,NA,NA,NA,NA,NA,NA,NA,NA,NA,NA,NA,NA,NA,NA,NA,NA,NA,NA,NA,12,0,12,0,1,NA,NA,NA,NA,NA,NA,NA,NA,NA,NA,NA,NA,NA,NA,NA,NA,NA,NA,NA,NA,NA,NA,NA
SUPAMT84633,3570Y55XZVI8R61P47WQ3J9GDVMGYG,1111290B-7B6B-4BD2-99AF-DEDBB2E8B91B,2023-09-29_08h13.12.271,WP_VExplicitOC_LH,2022.2.5,Win32,12.7131034,100,4.3728,2.076900001,NA,NA,NA,NA,NA,happy,"unhappy, happy","less happy, more happy",NA,NA,NA,NA,NA,NA,NA,NA,NA,NA,NA,NA,NA,NA,NA,0,0,0,0,1,NA,NA,NA,NA,NA,NA,NA,NA,NA,NA,NA,NA,NA,NA,NA,NA,NA,NA,NA,NA,NA,NA,NA,NA,NA,NA,NA,NA
SUPAMT84633,3570Y55XZVI8R61P47WQ3J9GDVMGYG,1111290B-7B6B-4BD2-99AF-DEDBB2E8B91B,2023-09-29_08h13.12.271,WP_VExplicitOC_LH,2022.2.5,Win32,12.7131034,100,3.817099999,2.0224,NA,NA,NA,NA,NA,bored,"bored, not bored","more bored, less bored",NA,NA,NA,NA,NA,NA,NA,NA,NA,NA,NA,NA,NA,NA,NA,0,1,1,2,1,NA,NA,NA,NA,NA,NA,NA,NA,NA,NA,NA,NA,NA,NA,NA,NA,NA,NA,NA,NA,NA,NA,NA,NA,NA,NA,NA,NA
SUPAMT84633,3570Y55XZVI8R61P47WQ3J9GDVMGYG,1111290B-7B6B-4BD2-99AF-DEDBB2E8B91B,2023-09-29_08h13.12.271,WP_VExplicitOC_LH,2022.2.5,Win32,12.7131034,100,4.9333,2.06,NA,NA,NA,NA,NA,frustrated,"frustrated, not frustrated","more frustrated, less frustrated",NA,NA,NA,NA,NA,NA,NA,NA,NA,NA,NA,NA,NA,NA,NA,0,2,2,1,1,NA,NA,NA,NA,NA,NA,NA,NA,NA,NA,NA,NA,NA,NA,NA,NA,NA,NA,NA,NA,NA,NA,NA,NA,NA,NA,NA,NA
SUPAMT84633,3570Y55XZVI8R61P47WQ3J9GDVMGYG,1111290B-7B6B-4BD2-99AF-DEDBB2E8B91B,2023-09-29_08h13.12.271,WP_VExplicitOC_LH,2022.2.5,Win32,12.7131034,NA,NA,NA,NA,NA,NA,NA,NA,NA,NA,NA,NA,NA,NA,NA,NA,NA,NA,NA,NA,NA,NA,NA,NA,NA,NA,NA,NA,NA,NA,NA,13,0,13,0,1,NA,NA,NA,NA,NA,NA,NA,NA,NA,NA,NA,NA,NA,NA,NA,NA,NA,NA,NA,NA,NA,NA,NA
SUPAMT84633,3570Y55XZVI8R61P47WQ3J9GDVMGYG,1111290B-7B6B-4BD2-99AF-DEDBB2E8B91B,2023-09-29_08h13.12.271,WP_VExplicitOC_LH,2022.2.5,Win32,12.7131034,100,3.570099999,2.0341,NA,NA,NA,NA,NA,happy,"unhappy, happy","less happy, more happy",NA,NA,NA,NA,NA,NA,NA,NA,NA,NA,NA,NA,NA,NA,NA,0,0,0,0,1,NA,NA,NA,NA,NA,NA,NA,NA,NA,NA,NA,NA,NA,NA,NA,NA,NA,NA,NA,NA,NA,NA,NA,NA,NA,NA,NA,NA
SUPAMT84633,3570Y55XZVI8R61P47WQ3J9GDVMGYG,1111290B-7B6B-4BD2-99AF-DEDBB2E8B91B,2023-09-29_08h13.12.271,WP_VExplicitOC_LH,2022.2.5,Win32,12.7131034,100,5.1957,2.0213,NA,NA,NA,NA,NA,frustrated,"frustrated, not frustrated","more frustrated, less frustrated",NA,NA,NA,NA,NA,NA,NA,NA,NA,NA,NA,NA,NA,NA,NA,0,1,1,1,1,NA,NA,NA,NA,NA,NA,NA,NA,NA,NA,NA,NA,NA,NA,NA,NA,NA,NA,NA,NA,NA,NA,NA,NA,NA,NA,NA,NA
SUPAMT84633,3570Y55XZVI8R61P47WQ3J9GDVMGYG,1111290B-7B6B-4BD2-99AF-DEDBB2E8B91B,2023-09-29_08h13.12.271,WP_VExplicitOC_LH,2022.2.5,Win32,12.7131034,100,3.8354,2.0187,NA,NA,NA,NA,NA,bored,"bored, not bored","more bored, less bored",NA,NA,NA,NA,NA,NA,NA,NA,NA,NA,NA,NA,NA,NA,NA,0,2,2,2,1,NA,NA,NA,NA,NA,NA,NA,NA,NA,NA,NA,NA,NA,NA,NA,NA,NA,NA,NA,NA,NA,NA,NA,NA,NA,NA,NA,NA
SUPAMT84633,3570Y55XZVI8R61P47WQ3J9GDVMGYG,1111290B-7B6B-4BD2-99AF-DEDBB2E8B91B,2023-09-29_08h13.12.271,WP_VExplicitOC_LH,2022.2.5,Win32,12.7131034,NA,NA,NA,NA,NA,NA,NA,NA,NA,NA,NA,NA,NA,NA,NA,NA,NA,NA,NA,NA,NA,NA,NA,NA,NA,NA,NA,NA,NA,NA,NA,14,0,14,0,1,NA,NA,NA,NA,NA,NA,NA,NA,NA,NA,NA,NA,NA,NA,NA,NA,NA,NA,NA,NA,NA,NA,NA
SUPAMT84633,3570Y55XZVI8R61P47WQ3J9GDVMGYG,1111290B-7B6B-4BD2-99AF-DEDBB2E8B91B,2023-09-29_08h13.12.271,WP_VExplicitOC_LH,2022.2.5,Win32,12.7131034,NA,NA,NA,NA,NA,NA,NA,NA,NA,NA,NA,NA,NA,NA,NA,NA,NA,NA,NA,NA,NA,NA,NA,NA,NA,NA,NA,NA,NA,NA,NA,NA,NA,NA,NA,NA,NA,NA,NA,NA,NA,NA,NA,NA,NA,NA,NA,NA,NA,NA,NA,NA,NA,NA,NA,NA,NA,NA,NA
SUPAMT84633,3570Y55XZVI8R61P47WQ3J9GDVMGYG,1111290B-7B6B-4BD2-99AF-DEDBB2E8B91B,2023-09-29_08h13.12.271,WP_VExplicitOC_LH,2022.2.5,Win32,12.7131034,NA,NA,NA,NA,NA,NA,NA,NA,NA,NA,NA,NA,NA,NA,NA,NA,NA,NA,NA,NA,NA,NA,NA,NA,NA,NA,NA,NA,NA,NA,NA,NA,NA,NA,NA,NA,NA,NA,NA,NA,NA,NA,NA,NA,NA,NA,NA,NA,NA,NA,NA,NA,NA,NA,NA,NA,NA,NA,NA
SUPAMT84633,3570Y55XZVI8R61P47WQ3J9GDVMGYG,1111290B-7B6B-4BD2-99AF-DEDBB2E8B91B,2023-09-29_08h13.12.271,WP_VExplicitOC_LH,2022.2.5,Win32,12.7131034,NA,NA,NA,NA,NA,NA,NA,NA,NA,NA,NA,NA,NA,NA,NA,NA,NA,NA,rest (looking at a fixed cross),001.png,NA,NA,NA,NA,NA,NA,NA,NA,NA,NA,NA,NA,NA,NA,NA,NA,100,1.943,0,0,0,0,1,NA,NA,NA,NA,NA,NA,NA,NA,NA,NA,NA,NA,NA,NA,NA,NA
SUPAMT84633,3570Y55XZVI8R61P47WQ3J9GDVMGYG,1111290B-7B6B-4BD2-99AF-DEDBB2E8B91B,2023-09-29_08h13.12.271,WP_VExplicitOC_LH,2022.2.5,Win32,12.7131034,NA,NA,NA,NA,NA,NA,NA,NA,NA,NA,NA,NA,NA,NA,NA,NA,NA,NA,stand up,002.png,NA,NA,NA,NA,NA,NA,NA,NA,NA,NA,NA,NA,NA,NA,NA,NA,100,1.9027,0,1,1,1,1,NA,NA,NA,NA,NA,NA,NA,NA,NA,NA,NA,NA,NA,NA,NA,NA
SUPAMT84633,3570Y55XZVI8R61P47WQ3J9GDVMGYG,1111290B-7B6B-4BD2-99AF-DEDBB2E8B91B,2023-09-29_08h13.12.271,WP_VExplicitOC_LH,2022.2.5,Win32,12.7131034,NA,NA,NA,NA,NA,NA,NA,NA,NA,NA,NA,NA,NA,NA,NA,NA,NA,NA,stretch,003.png,NA,NA,NA,NA,NA,NA,NA,NA,NA,NA,NA,NA,NA,NA,NA,NA,100,2.0295,0,2,2,2,1,NA,NA,NA,NA,NA,NA,NA,NA,NA,NA,NA,NA,NA,NA,NA,NA
SUPAMT84633,3570Y55XZVI8R61P47WQ3J9GDVMGYG,1111290B-7B6B-4BD2-99AF-DEDBB2E8B91B,2023-09-29_08h13.12.271,WP_VExplicitOC_LH,2022.2.5,Win32,12.7131034,NA,NA,NA,NA,NA,NA,NA,NA,NA,NA,NA,NA,NA,NA,NA,NA,NA,NA,make a drink,004.png,NA,NA,NA,NA,NA,NA,NA,NA,NA,NA,NA,NA,NA,NA,NA,NA,100,1.5715,0,3,3,3,1,NA,NA,NA,NA,NA,NA,NA,NA,NA,NA,NA,NA,NA,NA,NA,NA
SUPAMT84633,3570Y55XZVI8R61P47WQ3J9GDVMGYG,1111290B-7B6B-4BD2-99AF-DEDBB2E8B91B,2023-09-29_08h13.12.271,WP_VExplicitOC_LH,2022.2.5,Win32,12.7131034,NA,NA,NA,NA,NA,NA,NA,NA,NA,NA,NA,NA,NA,NA,NA,NA,NA,NA,scroll social media,005.png,NA,NA,NA,NA,NA,NA,NA,NA,NA,NA,NA,NA,NA,NA,NA,NA,100,1.545900001,0,4,4,4,1,NA,NA,NA,NA,NA,NA,NA,NA,NA,NA,NA,NA,NA,NA,NA,NA
SUPAMT84633,3570Y55XZVI8R61P47WQ3J9GDVMGYG,1111290B-7B6B-4BD2-99AF-DEDBB2E8B91B,2023-09-29_08h13.12.271,WP_VExplicitOC_LH,2022.2.5,Win32,12.7131034,NA,NA,NA,NA,NA,NA,NA,NA,NA,NA,NA,NA,NA,NA,NA,NA,NA,NA,listen to music,006.png,NA,NA,NA,NA,NA,NA,NA,NA,NA,NA,NA,NA,NA,NA,NA,NA,100,1.970400001,0,5,5,5,1,NA,NA,NA,NA,NA,NA,NA,NA,NA,NA,NA,NA,NA,NA,NA,NA
SUPAMT84633,3570Y55XZVI8R61P47WQ3J9GDVMGYG,1111290B-7B6B-4BD2-99AF-DEDBB2E8B91B,2023-09-29_08h13.12.271,WP_VExplicitOC_LH,2022.2.5,Win32,12.7131034,NA,NA,NA,NA,NA,NA,NA,NA,NA,NA,NA,NA,NA,NA,NA,NA,NA,NA,daydream,007.png,NA,NA,NA,NA,NA,NA,NA,NA,NA,NA,NA,NA,NA,NA,NA,NA,100,1.6065,0,6,6,6,1,NA,NA,NA,NA,NA,NA,NA,NA,NA,NA,NA,NA,NA,NA,NA,NA
SUPAMT84633,3570Y55XZVI8R61P47WQ3J9GDVMGYG,1111290B-7B6B-4BD2-99AF-DEDBB2E8B91B,2023-09-29_08h13.12.271,WP_VExplicitOC_LH,2022.2.5,Win32,12.7131034,NA,NA,NA,NA,NA,NA,NA,NA,NA,NA,NA,NA,NA,NA,NA,NA,NA,NA,watch a short animation,008.png,NA,NA,NA,NA,NA,NA,NA,NA,NA,NA,NA,NA,NA,NA,NA,NA,100,2.3649,0,7,7,7,1,NA,NA,NA,NA,NA,NA,NA,NA,NA,NA,NA,NA,NA,NA,NA,NA
SUPAMT84633,3570Y55XZVI8R61P47WQ3J9GDVMGYG,1111290B-7B6B-4BD2-99AF-DEDBB2E8B91B,2023-09-29_08h13.12.271,WP_VExplicitOC_LH,2022.2.5,Win32,12.7131034,NA,NA,NA,NA,NA,NA,NA,NA,NA,NA,NA,NA,NA,NA,NA,NA,NA,NA,read a novel,009.png,NA,NA,NA,NA,NA,NA,NA,NA,NA,NA,NA,NA,NA,NA,NA,NA,100,1.694599999,0,8,8,8,1,NA,NA,NA,NA,NA,NA,NA,NA,NA,NA,NA,NA,NA,NA,NA,NA
SUPAMT84633,3570Y55XZVI8R61P47WQ3J9GDVMGYG,1111290B-7B6B-4BD2-99AF-DEDBB2E8B91B,2023-09-29_08h13.12.271,WP_VExplicitOC_LH,2022.2.5,Win32,12.7131034,NA,NA,NA,NA,NA,NA,NA,NA,NA,NA,NA,NA,NA,NA,NA,NA,NA,NA,read the news,010.png,NA,NA,NA,NA,NA,NA,NA,NA,NA,NA,NA,NA,NA,NA,NA,NA,100,1.3699,0,9,9,9,1,NA,NA,NA,NA,NA,NA,NA,NA,NA,NA,NA,NA,NA,NA,NA,NA
SUPAMT84633,3570Y55XZVI8R61P47WQ3J9GDVMGYG,1111290B-7B6B-4BD2-99AF-DEDBB2E8B91B,2023-09-29_08h13.12.271,WP_VExplicitOC_LH,2022.2.5,Win32,12.7131034,NA,NA,NA,NA,NA,NA,NA,NA,NA,NA,NA,NA,NA,NA,NA,NA,NA,NA,NA,NA,NA,NA,NA,NA,NA,NA,NA,NA,NA,NA,NA,NA,NA,NA,NA,NA,NA,NA,NA,NA,NA,NA,NA,stand up,NA,NA,NA,NA,NA,NA,NA,NA,NA,NA,NA,NA,NA,NA,NA
SUPAMT84633,3570Y55XZVI8R61P47WQ3J9GDVMGYG,1111290B-7B6B-4BD2-99AF-DEDBB2E8B91B,2023-09-29_08h13.12.271,WP_VExplicitOC_LH,2022.2.5,Win32,12.7131034,100,5.4675,2.0754,NA,NA,NA,NA,NA,frustrated,"frustrated, not frustrated","more frustrated, less frustrated",NA,NA,NA,NA,NA,NA,NA,NA,NA,NA,NA,NA,NA,NA,NA,NA,NA,NA,NA,NA,NA,NA,NA,NA,NA,NA,NA,NA,NA,NA,NA,NA,NA,0,0,0,1,1,NA,NA,NA,NA,NA,NA,NA,NA,NA,NA
SUPAMT84633,3570Y55XZVI8R61P47WQ3J9GDVMGYG,1111290B-7B6B-4BD2-99AF-DEDBB2E8B91B,2023-09-29_08h13.12.271,WP_VExplicitOC_LH,2022.2.5,Win32,12.7131034,100,3.6201,2.0118,NA,NA,NA,NA,NA,bored,"bored, not bored","more bored, less bored",NA,NA,NA,NA,NA,NA,NA,NA,NA,NA,NA,NA,NA,NA,NA,NA,NA,NA,NA,NA,NA,NA,NA,NA,NA,NA,NA,NA,NA,NA,NA,NA,NA,0,1,1,2,1,NA,NA,NA,NA,NA,NA,NA,NA,NA,NA
SUPAMT84633,3570Y55XZVI8R61P47WQ3J9GDVMGYG,1111290B-7B6B-4BD2-99AF-DEDBB2E8B91B,2023-09-29_08h13.12.271,WP_VExplicitOC_LH,2022.2.5,Win32,12.7131034,100,4.2662,2.0257,NA,NA,NA,NA,NA,happy,"unhappy, happy","less happy, more happy",NA,NA,NA,NA,NA,NA,NA,NA,NA,NA,NA,NA,NA,NA,NA,NA,NA,NA,NA,NA,NA,NA,NA,NA,NA,NA,NA,NA,NA,NA,NA,NA,NA,0,2,2,0,1,NA,NA,NA,NA,NA,NA,NA,NA,NA,NA
SUPAMT84633,3570Y55XZVI8R61P47WQ3J9GDVMGYG,1111290B-7B6B-4BD2-99AF-DEDBB2E8B91B,2023-09-29_08h13.12.271,WP_VExplicitOC_LH,2022.2.5,Win32,12.7131034,NA,NA,NA,NA,NA,NA,NA,NA,NA,NA,NA,NA,NA,NA,NA,NA,NA,NA,NA,NA,NA,NA,NA,NA,NA,NA,NA,NA,NA,NA,NA,NA,NA,NA,NA,NA,NA,NA,NA,NA,NA,NA,NA,NA,NA,NA,NA,NA,NA,NA,NA,NA,NA,NA,NA,NA,NA,NA,NA
SUPAMT84633,3570Y55XZVI8R61P47WQ3J9GDVMGYG,1111290B-7B6B-4BD2-99AF-DEDBB2E8B91B,2023-09-29_08h13.12.271,WP_VExplicitOC_LH,2022.2.5,Win32,12.7131034,NA,NA,NA,NA,NA,NA,NA,NA,NA,NA,NA,NA,NA,NA,NA,NA,NA,NA,NA,NA,NA,NA,NA,NA,NA,NA,NA,NA,NA,NA,NA,NA,NA,NA,NA,NA,NA,NA,NA,NA,NA,NA,NA,NA,NA,NA,NA,NA,NA,NA,NA,NA,NA,NA,NA,NA,NA,NA,NA
SUPAMT84633,3570Y55XZVI8R61P47WQ3J9GDVMGYG,1111290B-7B6B-4BD2-99AF-DEDBB2E8B91B,2023-09-29_08h13.12.271,WP_VExplicitOC_LH,2022.2.5,Win32,12.7131034,100,4.5058,2.0435,NA,NA,NA,NA,NA,frustrated,"frustrated, not frustrated","more frustrated, less frustrated",NA,NA,NA,NA,NA,NA,NA,NA,NA,NA,NA,NA,NA,NA,NA,NA,NA,NA,NA,NA,NA,NA,NA,NA,NA,NA,NA,NA,NA,NA,NA,NA,NA,NA,NA,NA,NA,NA,0,0,0,1,1,NA,NA,NA,NA,NA
SUPAMT84633,3570Y55XZVI8R61P47WQ3J9GDVMGYG,1111290B-7B6B-4BD2-99AF-DEDBB2E8B91B,2023-09-29_08h13.12.271,WP_VExplicitOC_LH,2022.2.5,Win32,12.7131034,100,4.8589,2.0537,NA,NA,NA,NA,NA,happy,"unhappy, happy","less happy, more happy",NA,NA,NA,NA,NA,NA,NA,NA,NA,NA,NA,NA,NA,NA,NA,NA,NA,NA,NA,NA,NA,NA,NA,NA,NA,NA,NA,NA,NA,NA,NA,NA,NA,NA,NA,NA,NA,NA,0,1,1,0,1,NA,NA,NA,NA,NA
SUPAMT84633,3570Y55XZVI8R61P47WQ3J9GDVMGYG,1111290B-7B6B-4BD2-99AF-DEDBB2E8B91B,2023-09-29_08h13.12.271,WP_VExplicitOC_LH,2022.2.5,Win32,12.7131034,100,3.913599999,2.064,NA,NA,NA,NA,NA,bored,"bored, not bored","more bored, less bored",NA,NA,NA,NA,NA,NA,NA,NA,NA,NA,NA,NA,NA,NA,NA,NA,NA,NA,NA,NA,NA,NA,NA,NA,NA,NA,NA,NA,NA,NA,NA,NA,NA,NA,NA,NA,NA,NA,0,2,2,2,1,NA,NA,NA,NA,NA
SUPAMT84633,3570Y55XZVI8R61P47WQ3J9GDVMGYG,1111290B-7B6B-4BD2-99AF-DEDBB2E8B91B,2023-09-29_08h13.12.271,WP_VExplicitOC_LH,2022.2.5,Win32,12.7131034,NA,NA,NA,NA,NA,NA,NA,NA,NA,NA,NA,NA,NA,NA,NA,NA,NA,NA,NA,NA,NA,NA,NA,NA,NA,NA,NA,NA,NA,NA,NA,NA,NA,NA,NA,NA,NA,NA,NA,NA,NA,NA,NA,NA,NA,NA,NA,NA,NA,NA,NA,NA,NA,NA,0,0,0,0,1
SUPAMT84633,3570Y55XZVI8R61P47WQ3J9GDVMGYG,1111290B-7B6B-4BD2-99AF-DEDBB2E8B91B,2023-09-29_08h13.12.271,WP_VExplicitOC_LH,2022.2.5,Win32,12.7131034,100,4.4718,2.0025,NA,NA,NA,NA,NA,bored,"bored, not bored","more bored, less bored",NA,NA,NA,NA,NA,NA,NA,NA,NA,NA,NA,NA,NA,NA,NA,NA,NA,NA,NA,NA,NA,NA,NA,NA,NA,NA,NA,NA,NA,NA,NA,NA,NA,NA,NA,NA,NA,NA,0,0,0,2,1,NA,NA,NA,NA,NA
SUPAMT84633,3570Y55XZVI8R61P47WQ3J9GDVMGYG,1111290B-7B6B-4BD2-99AF-DEDBB2E8B91B,2023-09-29_08h13.12.271,WP_VExplicitOC_LH,2022.2.5,Win32,12.7131034,100,4.5367,2.0402,NA,NA,NA,NA,NA,happy,"unhappy, happy","less happy, more happy",NA,NA,NA,NA,NA,NA,NA,NA,NA,NA,NA,NA,NA,NA,NA,NA,NA,NA,NA,NA,NA,NA,NA,NA,NA,NA,NA,NA,NA,NA,NA,NA,NA,NA,NA,NA,NA,NA,0,1,1,0,1,NA,NA,NA,NA,NA
SUPAMT84633,3570Y55XZVI8R61P47WQ3J9GDVMGYG,1111290B-7B6B-4BD2-99AF-DEDBB2E8B91B,2023-09-29_08h13.12.271,WP_VExplicitOC_LH,2022.2.5,Win32,12.7131034,100,4.341299999,2.058400001,NA,NA,NA,NA,NA,frustrated,"frustrated, not frustrated","more frustrated, less frustrated",NA,NA,NA,NA,NA,NA,NA,NA,NA,NA,NA,NA,NA,NA,NA,NA,NA,NA,NA,NA,NA,NA,NA,NA,NA,NA,NA,NA,NA,NA,NA,NA,NA,NA,NA,NA,NA,NA,0,2,2,1,1,NA,NA,NA,NA,NA
SUPAMT84633,3570Y55XZVI8R61P47WQ3J9GDVMGYG,1111290B-7B6B-4BD2-99AF-DEDBB2E8B91B,2023-09-29_08h13.12.271,WP_VExplicitOC_LH,2022.2.5,Win32,12.7131034,NA,NA,NA,NA,NA,NA,NA,NA,NA,NA,NA,NA,NA,NA,NA,NA,NA,NA,NA,NA,NA,NA,NA,NA,NA,NA,NA,NA,NA,NA,NA,NA,NA,NA,NA,NA,NA,NA,NA,NA,NA,NA,NA,NA,NA,NA,NA,NA,NA,NA,NA,NA,NA,NA,1,0,1,0,1
SUPAMT84633,3570Y55XZVI8R61P47WQ3J9GDVMGYG,1111290B-7B6B-4BD2-99AF-DEDBB2E8B91B,2023-09-29_08h13.12.271,WP_VExplicitOC_LH,2022.2.5,Win32,12.7131034,100,6.2099,2.0384,NA,NA,NA,NA,NA,frustrated,"frustrated, not frustrated","more frustrated, less frustrated",NA,NA,NA,NA,NA,NA,NA,NA,NA,NA,NA,NA,NA,NA,NA,NA,NA,NA,NA,NA,NA,NA,NA,NA,NA,NA,NA,NA,NA,NA,NA,NA,NA,NA,NA,NA,NA,NA,0,0,0,1,1,NA,NA,NA,NA,NA
SUPAMT84633,3570Y55XZVI8R61P47WQ3J9GDVMGYG,1111290B-7B6B-4BD2-99AF-DEDBB2E8B91B,2023-09-29_08h13.12.271,WP_VExplicitOC_LH,2022.2.5,Win32,12.7131034,100,4.9812,2.012900001,NA,NA,NA,NA,NA,happy,"unhappy, happy","less happy, more happy",NA,NA,NA,NA,NA,NA,NA,NA,NA,NA,NA,NA,NA,NA,NA,NA,NA,NA,NA,NA,NA,NA,NA,NA,NA,NA,NA,NA,NA,NA,NA,NA,NA,NA,NA,NA,NA,NA,0,1,1,0,1,NA,NA,NA,NA,NA
SUPAMT84633,3570Y55XZVI8R61P47WQ3J9GDVMGYG,1111290B-7B6B-4BD2-99AF-DEDBB2E8B91B,2023-09-29_08h13.12.271,WP_VExplicitOC_LH,2022.2.5,Win32,12.7131034,100,6.333200001,2.037799999,NA,NA,NA,NA,NA,bored,"bored, not bored","more bored, less bored",NA,NA,NA,NA,NA,NA,NA,NA,NA,NA,NA,NA,NA,NA,NA,NA,NA,NA,NA,NA,NA,NA,NA,NA,NA,NA,NA,NA,NA,NA,NA,NA,NA,NA,NA,NA,NA,NA,0,2,2,2,1,NA,NA,NA,NA,NA
SUPAMT84633,3570Y55XZVI8R61P47WQ3J9GDVMGYG,1111290B-7B6B-4BD2-99AF-DEDBB2E8B91B,2023-09-29_08h13.12.271,WP_VExplicitOC_LH,2022.2.5,Win32,12.7131034,NA,NA,NA,NA,NA,NA,NA,NA,NA,NA,NA,NA,NA,NA,NA,NA,NA,NA,NA,NA,NA,NA,NA,NA,NA,NA,NA,NA,NA,NA,NA,NA,NA,NA,NA,NA,NA,NA,NA,NA,NA,NA,NA,NA,NA,NA,NA,NA,NA,NA,NA,NA,NA,NA,2,0,2,0,1
SUPAMT84633,3570Y55XZVI8R61P47WQ3J9GDVMGYG,1111290B-7B6B-4BD2-99AF-DEDBB2E8B91B,2023-09-29_08h13.12.271,WP_VExplicitOC_LH,2022.2.5,Win32,12.7131034,-5.208333333,3.3706,2.0749,NA,NA,NA,NA,NA,frustrated,"frustrated, not frustrated","more frustrated, less frustrated",NA,NA,NA,NA,NA,NA,NA,NA,NA,NA,NA,NA,NA,NA,NA,NA,NA,NA,NA,NA,NA,NA,NA,NA,NA,NA,NA,NA,NA,NA,NA,NA,NA,NA,NA,NA,NA,NA,0,0,0,1,1,NA,NA,NA,NA,NA
SUPAMT84633,3570Y55XZVI8R61P47WQ3J9GDVMGYG,1111290B-7B6B-4BD2-99AF-DEDBB2E8B91B,2023-09-29_08h13.12.271,WP_VExplicitOC_LH,2022.2.5,Win32,12.7131034,100,4.6265,2.0636,NA,NA,NA,NA,NA,bored,"bored, not bored","more bored, less bored",NA,NA,NA,NA,NA,NA,NA,NA,NA,NA,NA,NA,NA,NA,NA,NA,NA,NA,NA,NA,NA,NA,NA,NA,NA,NA,NA,NA,NA,NA,NA,NA,NA,NA,NA,NA,NA,NA,0,1,1,2,1,NA,NA,NA,NA,NA
SUPAMT84633,3570Y55XZVI8R61P47WQ3J9GDVMGYG,1111290B-7B6B-4BD2-99AF-DEDBB2E8B91B,2023-09-29_08h13.12.271,WP_VExplicitOC_LH,2022.2.5,Win32,12.7131034,100,5.0497,2.0716,NA,NA,NA,NA,NA,happy,"unhappy, happy","less happy, more happy",NA,NA,NA,NA,NA,NA,NA,NA,NA,NA,NA,NA,NA,NA,NA,NA,NA,NA,NA,NA,NA,NA,NA,NA,NA,NA,NA,NA,NA,NA,NA,NA,NA,NA,NA,NA,NA,NA,0,2,2,0,1,NA,NA,NA,NA,NA
SUPAMT84633,3570Y55XZVI8R61P47WQ3J9GDVMGYG,1111290B-7B6B-4BD2-99AF-DEDBB2E8B91B,2023-09-29_08h13.12.271,WP_VExplicitOC_LH,2022.2.5,Win32,12.7131034,NA,NA,NA,NA,NA,NA,NA,NA,NA,NA,NA,NA,NA,NA,NA,NA,NA,NA,NA,NA,NA,NA,NA,NA,NA,NA,NA,NA,NA,NA,NA,NA,NA,NA,NA,NA,NA,NA,NA,NA,NA,NA,NA,NA,NA,NA,NA,NA,NA,NA,NA,NA,NA,NA,3,0,3,0,1
SUPAMT84633,3570Y55XZVI8R61P47WQ3J9GDVMGYG,1111290B-7B6B-4BD2-99AF-DEDBB2E8B91B,2023-09-29_08h13.12.271,WP_VExplicitOC_LH,2022.2.5,Win32,12.7131034,100,3.6947,2.033,NA,NA,NA,NA,NA,happy,"unhappy, happy","less happy, more happy",NA,NA,NA,NA,NA,NA,NA,NA,NA,NA,NA,NA,NA,NA,NA,NA,NA,NA,NA,NA,NA,NA,NA,NA,NA,NA,NA,NA,NA,NA,NA,NA,NA,NA,NA,NA,NA,NA,0,0,0,0,1,NA,NA,NA,NA,NA
SUPAMT84633,3570Y55XZVI8R61P47WQ3J9GDVMGYG,1111290B-7B6B-4BD2-99AF-DEDBB2E8B91B,2023-09-29_08h13.12.271,WP_VExplicitOC_LH,2022.2.5,Win32,12.7131034,100,5.2541,2.0153,NA,NA,NA,NA,NA,bored,"bored, not bored","more bored, less bored",NA,NA,NA,NA,NA,NA,NA,NA,NA,NA,NA,NA,NA,NA,NA,NA,NA,NA,NA,NA,NA,NA,NA,NA,NA,NA,NA,NA,NA,NA,NA,NA,NA,NA,NA,NA,NA,NA,0,1,1,2,1,NA,NA,NA,NA,NA
SUPAMT84633,3570Y55XZVI8R61P47WQ3J9GDVMGYG,1111290B-7B6B-4BD2-99AF-DEDBB2E8B91B,2023-09-29_08h13.12.271,WP_VExplicitOC_LH,2022.2.5,Win32,12.7131034,100,4.5903,2.0412,NA,NA,NA,NA,NA,frustrated,"frustrated, not frustrated","more frustrated, less frustrated",NA,NA,NA,NA,NA,NA,NA,NA,NA,NA,NA,NA,NA,NA,NA,NA,NA,NA,NA,NA,NA,NA,NA,NA,NA,NA,NA,NA,NA,NA,NA,NA,NA,NA,NA,NA,NA,NA,0,2,2,1,1,NA,NA,NA,NA,NA
SUPAMT84633,3570Y55XZVI8R61P47WQ3J9GDVMGYG,1111290B-7B6B-4BD2-99AF-DEDBB2E8B91B,2023-09-29_08h13.12.271,WP_VExplicitOC_LH,2022.2.5,Win32,12.7131034,NA,NA,NA,NA,NA,NA,NA,NA,NA,NA,NA,NA,NA,NA,NA,NA,NA,NA,NA,NA,NA,NA,NA,NA,NA,NA,NA,NA,NA,NA,NA,NA,NA,NA,NA,NA,NA,NA,NA,NA,NA,NA,NA,NA,NA,NA,NA,NA,NA,NA,NA,NA,NA,NA,4,0,4,0,1
SUPAMT84633,3570Y55XZVI8R61P47WQ3J9GDVMGYG,1111290B-7B6B-4BD2-99AF-DEDBB2E8B91B,2023-09-29_08h13.12.271,WP_VExplicitOC_LH,2022.2.5,Win32,12.7131034,100,3.424,2.0076,NA,NA,NA,NA,NA,frustrated,"frustrated, not frustrated","more frustrated, less frustrated",NA,NA,NA,NA,NA,NA,NA,NA,NA,NA,NA,NA,NA,NA,NA,NA,NA,NA,NA,NA,NA,NA,NA,NA,NA,NA,NA,NA,NA,NA,NA,NA,NA,NA,NA,NA,NA,NA,0,0,0,1,1,NA,NA,NA,NA,NA
SUPAMT84633,3570Y55XZVI8R61P47WQ3J9GDVMGYG,1111290B-7B6B-4BD2-99AF-DEDBB2E8B91B,2023-09-29_08h13.12.271,WP_VExplicitOC_LH,2022.2.5,Win32,12.7131034,100,3.4295,2.0048,NA,NA,NA,NA,NA,bored,"bored, not bored","more bored, less bored",NA,NA,NA,NA,NA,NA,NA,NA,NA,NA,NA,NA,NA,NA,NA,NA,NA,NA,NA,NA,NA,NA,NA,NA,NA,NA,NA,NA,NA,NA,NA,NA,NA,NA,NA,NA,NA,NA,0,1,1,2,1,NA,NA,NA,NA,NA
SUPAMT84633,3570Y55XZVI8R61P47WQ3J9GDVMGYG,1111290B-7B6B-4BD2-99AF-DEDBB2E8B91B,2023-09-29_08h13.12.271,WP_VExplicitOC_LH,2022.2.5,Win32,12.7131034,100,4.8007,2.0377,NA,NA,NA,NA,NA,happy,"unhappy, happy","less happy, more happy",NA,NA,NA,NA,NA,NA,NA,NA,NA,NA,NA,NA,NA,NA,NA,NA,NA,NA,NA,NA,NA,NA,NA,NA,NA,NA,NA,NA,NA,NA,NA,NA,NA,NA,NA,NA,NA,NA,0,2,2,0,1,NA,NA,NA,NA,NA
SUPAMT84633,3570Y55XZVI8R61P47WQ3J9GDVMGYG,1111290B-7B6B-4BD2-99AF-DEDBB2E8B91B,2023-09-29_08h13.12.271,WP_VExplicitOC_LH,2022.2.5,Win32,12.7131034,NA,NA,NA,NA,NA,NA,NA,NA,NA,NA,NA,NA,NA,NA,NA,NA,NA,NA,NA,NA,NA,NA,NA,NA,NA,NA,NA,NA,NA,NA,NA,NA,NA,NA,NA,NA,NA,NA,NA,NA,NA,NA,NA,NA,NA,NA,NA,NA,NA,NA,NA,NA,NA,NA,5,0,5,0,1
SUPAMT84633,3570Y55XZVI8R61P47WQ3J9GDVMGYG,1111290B-7B6B-4BD2-99AF-DEDBB2E8B91B,2023-09-29_08h13.12.271,WP_VExplicitOC_LH,2022.2.5,Win32,12.7131034,100,3.8032,2.046,NA,NA,NA,NA,NA,frustrated,"frustrated, not frustrated","more frustrated, less frustrated",NA,NA,NA,NA,NA,NA,NA,NA,NA,NA,NA,NA,NA,NA,NA,NA,NA,NA,NA,NA,NA,NA,NA,NA,NA,NA,NA,NA,NA,NA,NA,NA,NA,NA,NA,NA,NA,NA,0,0,0,1,1,NA,NA,NA,NA,NA
SUPAMT84633,3570Y55XZVI8R61P47WQ3J9GDVMGYG,1111290B-7B6B-4BD2-99AF-DEDBB2E8B91B,2023-09-29_08h13.12.271,WP_VExplicitOC_LH,2022.2.5,Win32,12.7131034,100,3.8533,2.0195,NA,NA,NA,NA,NA,bored,"bored, not bored","more bored, less bored",NA,NA,NA,NA,NA,NA,NA,NA,NA,NA,NA,NA,NA,NA,NA,NA,NA,NA,NA,NA,NA,NA,NA,NA,NA,NA,NA,NA,NA,NA,NA,NA,NA,NA,NA,NA,NA,NA,0,1,1,2,1,NA,NA,NA,NA,NA
SUPAMT84633,3570Y55XZVI8R61P47WQ3J9GDVMGYG,1111290B-7B6B-4BD2-99AF-DEDBB2E8B91B,2023-09-29_08h13.12.271,WP_VExplicitOC_LH,2022.2.5,Win32,12.7131034,100,3.751900001,2.0731,NA,NA,NA,NA,NA,happy,"unhappy, happy","less happy, more happy",NA,NA,NA,NA,NA,NA,NA,NA,NA,NA,NA,NA,NA,NA,NA,NA,NA,NA,NA,NA,NA,NA,NA,NA,NA,NA,NA,NA,NA,NA,NA,NA,NA,NA,NA,NA,NA,NA,0,2,2,0,1,NA,NA,NA,NA,NA
SUPAMT84633,3570Y55XZVI8R61P47WQ3J9GDVMGYG,1111290B-7B6B-4BD2-99AF-DEDBB2E8B91B,2023-09-29_08h13.12.271,WP_VExplicitOC_LH,2022.2.5,Win32,12.7131034,NA,NA,NA,NA,NA,NA,NA,NA,NA,NA,NA,NA,NA,NA,NA,NA,NA,NA,NA,NA,NA,NA,NA,NA,NA,NA,NA,NA,NA,NA,NA,NA,NA,NA,NA,NA,NA,NA,NA,NA,NA,NA,NA,NA,NA,NA,NA,NA,NA,NA,NA,NA,NA,NA,6,0,6,0,1
SUPAMT84633,3570Y55XZVI8R61P47WQ3J9GDVMGYG,1111290B-7B6B-4BD2-99AF-DEDBB2E8B91B,2023-09-29_08h13.12.271,WP_VExplicitOC_LH,2022.2.5,Win32,12.7131034,100,4.1343,2.001700001,NA,NA,NA,NA,NA,happy,"unhappy, happy","less happy, more happy",NA,NA,NA,NA,NA,NA,NA,NA,NA,NA,NA,NA,NA,NA,NA,NA,NA,NA,NA,NA,NA,NA,NA,NA,NA,NA,NA,NA,NA,NA,NA,NA,NA,NA,NA,NA,NA,NA,0,0,0,0,1,NA,NA,NA,NA,NA
SUPAMT84633,3570Y55XZVI8R61P47WQ3J9GDVMGYG,1111290B-7B6B-4BD2-99AF-DEDBB2E8B91B,2023-09-29_08h13.12.271,WP_VExplicitOC_LH,2022.2.5,Win32,12.7131034,100,3.7442,2.0672,NA,NA,NA,NA,NA,bored,"bored, not bored","more bored, less bored",NA,NA,NA,NA,NA,NA,NA,NA,NA,NA,NA,NA,NA,NA,NA,NA,NA,NA,NA,NA,NA,NA,NA,NA,NA,NA,NA,NA,NA,NA,NA,NA,NA,NA,NA,NA,NA,NA,0,1,1,2,1,NA,NA,NA,NA,NA
SUPAMT84633,3570Y55XZVI8R61P47WQ3J9GDVMGYG,1111290B-7B6B-4BD2-99AF-DEDBB2E8B91B,2023-09-29_08h13.12.271,WP_VExplicitOC_LH,2022.2.5,Win32,12.7131034,100,4.0778,2.0465,NA,NA,NA,NA,NA,frustrated,"frustrated, not frustrated","more frustrated, less frustrated",NA,NA,NA,NA,NA,NA,NA,NA,NA,NA,NA,NA,NA,NA,NA,NA,NA,NA,NA,NA,NA,NA,NA,NA,NA,NA,NA,NA,NA,NA,NA,NA,NA,NA,NA,NA,NA,NA,0,2,2,1,1,NA,NA,NA,NA,NA
SUPAMT84633,3570Y55XZVI8R61P47WQ3J9GDVMGYG,1111290B-7B6B-4BD2-99AF-DEDBB2E8B91B,2023-09-29_08h13.12.271,WP_VExplicitOC_LH,2022.2.5,Win32,12.7131034,NA,NA,NA,NA,NA,NA,NA,NA,NA,NA,NA,NA,NA,NA,NA,NA,NA,NA,NA,NA,NA,NA,NA,NA,NA,NA,NA,NA,NA,NA,NA,NA,NA,NA,NA,NA,NA,NA,NA,NA,NA,NA,NA,NA,NA,NA,NA,NA,NA,NA,NA,NA,NA,NA,7,0,7,0,1
SUPAMT84633,3570Y55XZVI8R61P47WQ3J9GDVMGYG,1111290B-7B6B-4BD2-99AF-DEDBB2E8B91B,2023-09-29_08h13.12.271,WP_VExplicitOC_LH,2022.2.5,Win32,12.7131034,100,4.7062,2.031599999,NA,NA,NA,NA,NA,happy,"unhappy, happy","less happy, more happy",NA,NA,NA,NA,NA,NA,NA,NA,NA,NA,NA,NA,NA,NA,NA,NA,NA,NA,NA,NA,NA,NA,NA,NA,NA,NA,NA,NA,NA,NA,NA,NA,NA,NA,NA,NA,NA,NA,0,0,0,0,1,NA,NA,NA,NA,NA
SUPAMT84633,3570Y55XZVI8R61P47WQ3J9GDVMGYG,1111290B-7B6B-4BD2-99AF-DEDBB2E8B91B,2023-09-29_08h13.12.271,WP_VExplicitOC_LH,2022.2.5,Win32,12.7131034,100,4.133,2.0783,NA,NA,NA,NA,NA,frustrated,"frustrated, not frustrated","more frustrated, less frustrated",NA,NA,NA,NA,NA,NA,NA,NA,NA,NA,NA,NA,NA,NA,NA,NA,NA,NA,NA,NA,NA,NA,NA,NA,NA,NA,NA,NA,NA,NA,NA,NA,NA,NA,NA,NA,NA,NA,0,1,1,1,1,NA,NA,NA,NA,NA
SUPAMT84633,3570Y55XZVI8R61P47WQ3J9GDVMGYG,1111290B-7B6B-4BD2-99AF-DEDBB2E8B91B,2023-09-29_08h13.12.271,WP_VExplicitOC_LH,2022.2.5,Win32,12.7131034,100,3.553700001,2.0203,NA,NA,NA,NA,NA,bored,"bored, not bored","more bored, less bored",NA,NA,NA,NA,NA,NA,NA,NA,NA,NA,NA,NA,NA,NA,NA,NA,NA,NA,NA,NA,NA,NA,NA,NA,NA,NA,NA,NA,NA,NA,NA,NA,NA,NA,NA,NA,NA,NA,0,2,2,2,1,NA,NA,NA,NA,NA
SUPAMT84633,3570Y55XZVI8R61P47WQ3J9GDVMGYG,1111290B-7B6B-4BD2-99AF-DEDBB2E8B91B,2023-09-29_08h13.12.271,WP_VExplicitOC_LH,2022.2.5,Win32,12.7131034,NA,NA,NA,NA,NA,NA,NA,NA,NA,NA,NA,NA,NA,NA,NA,NA,NA,NA,NA,NA,NA,NA,NA,NA,NA,NA,NA,NA,NA,NA,NA,NA,NA,NA,NA,NA,NA,NA,NA,NA,NA,NA,NA,NA,NA,NA,NA,NA,NA,NA,NA,NA,NA,NA,8,0,8,0,1
SUPAMT84633,3570Y55XZVI8R61P47WQ3J9GDVMGYG,1111290B-7B6B-4BD2-99AF-DEDBB2E8B91B,2023-09-29_08h13.12.271,WP_VExplicitOC_LH,2022.2.5,Win32,12.7131034,100,3.321400001,2.0191,NA,NA,NA,NA,NA,bored,"bored, not bored","more bored, less bored",NA,NA,NA,NA,NA,NA,NA,NA,NA,NA,NA,NA,NA,NA,NA,NA,NA,NA,NA,NA,NA,NA,NA,NA,NA,NA,NA,NA,NA,NA,NA,NA,NA,NA,NA,NA,NA,NA,0,0,0,2,1,NA,NA,NA,NA,NA
SUPAMT84633,3570Y55XZVI8R61P47WQ3J9GDVMGYG,1111290B-7B6B-4BD2-99AF-DEDBB2E8B91B,2023-09-29_08h13.12.271,WP_VExplicitOC_LH,2022.2.5,Win32,12.7131034,100,4.1727,2.011,NA,NA,NA,NA,NA,happy,"unhappy, happy","less happy, more happy",NA,NA,NA,NA,NA,NA,NA,NA,NA,NA,NA,NA,NA,NA,NA,NA,NA,NA,NA,NA,NA,NA,NA,NA,NA,NA,NA,NA,NA,NA,NA,NA,NA,NA,NA,NA,NA,NA,0,1,1,0,1,NA,NA,NA,NA,NA
SUPAMT84633,3570Y55XZVI8R61P47WQ3J9GDVMGYG,1111290B-7B6B-4BD2-99AF-DEDBB2E8B91B,2023-09-29_08h13.12.271,WP_VExplicitOC_LH,2022.2.5,Win32,12.7131034,100,3.968299999,2.069,NA,NA,NA,NA,NA,frustrated,"frustrated, not frustrated","more frustrated, less frustrated",NA,NA,NA,NA,NA,NA,NA,NA,NA,NA,NA,NA,NA,NA,NA,NA,NA,NA,NA,NA,NA,NA,NA,NA,NA,NA,NA,NA,NA,NA,NA,NA,NA,NA,NA,NA,NA,NA,0,2,2,1,1,NA,NA,NA,NA,NA
SUPAMT84633,3570Y55XZVI8R61P47WQ3J9GDVMGYG,1111290B-7B6B-4BD2-99AF-DEDBB2E8B91B,2023-09-29_08h13.12.271,WP_VExplicitOC_LH,2022.2.5,Win32,12.7131034,NA,NA,NA,NA,NA,NA,NA,NA,NA,NA,NA,NA,NA,NA,NA,NA,NA,NA,NA,NA,NA,NA,NA,NA,NA,NA,NA,NA,NA,NA,NA,NA,NA,NA,NA,NA,NA,NA,NA,NA,NA,NA,NA,NA,NA,NA,NA,NA,NA,NA,NA,NA,NA,NA,9,0,9,0,1
SUPAMT84633,3570Y55XZVI8R61P47WQ3J9GDVMGYG,1111290B-7B6B-4BD2-99AF-DEDBB2E8B91B,2023-09-29_08h13.12.271,WP_VExplicitOC_LH,2022.2.5,Win32,12.7131034,100,3.316299999,2.041099999,NA,NA,NA,NA,NA,happy,"unhappy, happy","less happy, more happy",NA,NA,NA,NA,NA,NA,NA,NA,NA,NA,NA,NA,NA,NA,NA,NA,NA,NA,NA,NA,NA,NA,NA,NA,NA,NA,NA,NA,NA,NA,NA,NA,NA,NA,NA,NA,NA,NA,0,0,0,0,1,NA,NA,NA,NA,NA
SUPAMT84633,3570Y55XZVI8R61P47WQ3J9GDVMGYG,1111290B-7B6B-4BD2-99AF-DEDBB2E8B91B,2023-09-29_08h13.12.271,WP_VExplicitOC_LH,2022.2.5,Win32,12.7131034,100,4.2414,2.0493,NA,NA,NA,NA,NA,bored,"bored, not bored","more bored, less bored",NA,NA,NA,NA,NA,NA,NA,NA,NA,NA,NA,NA,NA,NA,NA,NA,NA,NA,NA,NA,NA,NA,NA,NA,NA,NA,NA,NA,NA,NA,NA,NA,NA,NA,NA,NA,NA,NA,0,1,1,2,1,NA,NA,NA,NA,NA
SUPAMT84633,3570Y55XZVI8R61P47WQ3J9GDVMGYG,1111290B-7B6B-4BD2-99AF-DEDBB2E8B91B,2023-09-29_08h13.12.271,WP_VExplicitOC_LH,2022.2.5,Win32,12.7131034,95.57291667,4.3614,2.0152,NA,NA,NA,NA,NA,frustrated,"frustrated, not frustrated","more frustrated, less frustrated",NA,NA,NA,NA,NA,NA,NA,NA,NA,NA,NA,NA,NA,NA,NA,NA,NA,NA,NA,NA,NA,NA,NA,NA,NA,NA,NA,NA,NA,NA,NA,NA,NA,NA,NA,NA,NA,NA,0,2,2,1,1,NA,NA,NA,NA,NA
SUPAMT84633,3570Y55XZVI8R61P47WQ3J9GDVMGYG,1111290B-7B6B-4BD2-99AF-DEDBB2E8B91B,2023-09-29_08h13.12.271,WP_VExplicitOC_LH,2022.2.5,Win32,12.7131034,NA,NA,NA,NA,NA,NA,NA,NA,NA,NA,NA,NA,NA,NA,NA,NA,NA,NA,NA,NA,NA,NA,NA,NA,NA,NA,NA,NA,NA,NA,NA,NA,NA,NA,NA,NA,NA,NA,NA,NA,NA,NA,NA,NA,NA,NA,NA,NA,NA,NA,NA,NA,NA,NA,10,0,10,0,1
SUPAMT84633,3570Y55XZVI8R61P47WQ3J9GDVMGYG,1111290B-7B6B-4BD2-99AF-DEDBB2E8B91B,2023-09-29_08h13.12.271,WP_VExplicitOC_LH,2022.2.5,Win32,12.7131034,100,3.4158,2.0193,NA,NA,NA,NA,NA,frustrated,"frustrated, not frustrated","more frustrated, less frustrated",NA,NA,NA,NA,NA,NA,NA,NA,NA,NA,NA,NA,NA,NA,NA,NA,NA,NA,NA,NA,NA,NA,NA,NA,NA,NA,NA,NA,NA,NA,NA,NA,NA,NA,NA,NA,NA,NA,0,0,0,1,1,NA,NA,NA,NA,NA
SUPAMT84633,3570Y55XZVI8R61P47WQ3J9GDVMGYG,1111290B-7B6B-4BD2-99AF-DEDBB2E8B91B,2023-09-29_08h13.12.271,WP_VExplicitOC_LH,2022.2.5,Win32,12.7131034,100,4.129299999,2.0027,NA,NA,NA,NA,NA,bored,"bored, not bored","more bored, less bored",NA,NA,NA,NA,NA,NA,NA,NA,NA,NA,NA,NA,NA,NA,NA,NA,NA,NA,NA,NA,NA,NA,NA,NA,NA,NA,NA,NA,NA,NA,NA,NA,NA,NA,NA,NA,NA,NA,0,1,1,2,1,NA,NA,NA,NA,NA
SUPAMT84633,3570Y55XZVI8R61P47WQ3J9GDVMGYG,1111290B-7B6B-4BD2-99AF-DEDBB2E8B91B,2023-09-29_08h13.12.271,WP_VExplicitOC_LH,2022.2.5,Win32,12.7131034,100,4.3163,2.0277,NA,NA,NA,NA,NA,happy,"unhappy, happy","less happy, more happy",NA,NA,NA,NA,NA,NA,NA,NA,NA,NA,NA,NA,NA,NA,NA,NA,NA,NA,NA,NA,NA,NA,NA,NA,NA,NA,NA,NA,NA,NA,NA,NA,NA,NA,NA,NA,NA,NA,0,2,2,0,1,NA,NA,NA,NA,NA
SUPAMT84633,3570Y55XZVI8R61P47WQ3J9GDVMGYG,1111290B-7B6B-4BD2-99AF-DEDBB2E8B91B,2023-09-29_08h13.12.271,WP_VExplicitOC_LH,2022.2.5,Win32,12.7131034,NA,NA,NA,NA,NA,NA,NA,NA,NA,NA,NA,NA,NA,NA,NA,NA,NA,NA,NA,NA,NA,NA,NA,NA,NA,NA,NA,NA,NA,NA,NA,NA,NA,NA,NA,NA,NA,NA,NA,NA,NA,NA,NA,NA,NA,NA,NA,NA,NA,NA,NA,NA,NA,NA,11,0,11,0,1
SUPAMT84633,3570Y55XZVI8R61P47WQ3J9GDVMGYG,1111290B-7B6B-4BD2-99AF-DEDBB2E8B91B,2023-09-29_08h13.12.271,WP_VExplicitOC_LH,2022.2.5,Win32,12.7131034,100,3.494099999,2.034,NA,NA,NA,NA,NA,frustrated,"frustrated, not frustrated","more frustrated, less frustrated",NA,NA,NA,NA,NA,NA,NA,NA,NA,NA,NA,NA,NA,NA,NA,NA,NA,NA,NA,NA,NA,NA,NA,NA,NA,NA,NA,NA,NA,NA,NA,NA,NA,NA,NA,NA,NA,NA,0,0,0,1,1,NA,NA,NA,NA,NA
SUPAMT84633,3570Y55XZVI8R61P47WQ3J9GDVMGYG,1111290B-7B6B-4BD2-99AF-DEDBB2E8B91B,2023-09-29_08h13.12.271,WP_VExplicitOC_LH,2022.2.5,Win32,12.7131034,100,3.3687,2.0024,NA,NA,NA,NA,NA,happy,"unhappy, happy","less happy, more happy",NA,NA,NA,NA,NA,NA,NA,NA,NA,NA,NA,NA,NA,NA,NA,NA,NA,NA,NA,NA,NA,NA,NA,NA,NA,NA,NA,NA,NA,NA,NA,NA,NA,NA,NA,NA,NA,NA,0,1,1,0,1,NA,NA,NA,NA,NA
SUPAMT84633,3570Y55XZVI8R61P47WQ3J9GDVMGYG,1111290B-7B6B-4BD2-99AF-DEDBB2E8B91B,2023-09-29_08h13.12.271,WP_VExplicitOC_LH,2022.2.5,Win32,12.7131034,100,4.2148,2.0031,NA,NA,NA,NA,NA,bored,"bored, not bored","more bored, less bored",NA,NA,NA,NA,NA,NA,NA,NA,NA,NA,NA,NA,NA,NA,NA,NA,NA,NA,NA,NA,NA,NA,NA,NA,NA,NA,NA,NA,NA,NA,NA,NA,NA,NA,NA,NA,NA,NA,0,2,2,2,1,NA,NA,NA,NA,NA
SUPAMT84633,3570Y55XZVI8R61P47WQ3J9GDVMGYG,1111290B-7B6B-4BD2-99AF-DEDBB2E8B91B,2023-09-29_08h13.12.271,WP_VExplicitOC_LH,2022.2.5,Win32,12.7131034,NA,NA,NA,NA,NA,NA,NA,NA,NA,NA,NA,NA,NA,NA,NA,NA,NA,NA,NA,NA,NA,NA,NA,NA,NA,NA,NA,NA,NA,NA,NA,NA,NA,NA,NA,NA,NA,NA,NA,NA,NA,NA,NA,NA,NA,NA,NA,NA,NA,NA,NA,NA,NA,NA,12,0,12,0,1
SUPAMT84633,3570Y55XZVI8R61P47WQ3J9GDVMGYG,1111290B-7B6B-4BD2-99AF-DEDBB2E8B91B,2023-09-29_08h13.12.271,WP_VExplicitOC_LH,2022.2.5,Win32,12.7131034,100,3.646,2.0343,NA,NA,NA,NA,NA,frustrated,"frustrated, not frustrated","more frustrated, less frustrated",NA,NA,NA,NA,NA,NA,NA,NA,NA,NA,NA,NA,NA,NA,NA,NA,NA,NA,NA,NA,NA,NA,NA,NA,NA,NA,NA,NA,NA,NA,NA,NA,NA,NA,NA,NA,NA,NA,0,0,0,1,1,NA,NA,NA,NA,NA
SUPAMT84633,3570Y55XZVI8R61P47WQ3J9GDVMGYG,1111290B-7B6B-4BD2-99AF-DEDBB2E8B91B,2023-09-29_08h13.12.271,WP_VExplicitOC_LH,2022.2.5,Win32,12.7131034,100,3.8748,2.001599999,NA,NA,NA,NA,NA,happy,"unhappy, happy","less happy, more happy",NA,NA,NA,NA,NA,NA,NA,NA,NA,NA,NA,NA,NA,NA,NA,NA,NA,NA,NA,NA,NA,NA,NA,NA,NA,NA,NA,NA,NA,NA,NA,NA,NA,NA,NA,NA,NA,NA,0,1,1,0,1,NA,NA,NA,NA,NA
SUPAMT84633,3570Y55XZVI8R61P47WQ3J9GDVMGYG,1111290B-7B6B-4BD2-99AF-DEDBB2E8B91B,2023-09-29_08h13.12.271,WP_VExplicitOC_LH,2022.2.5,Win32,12.7131034,100,5.9235,2.061099999,NA,NA,NA,NA,NA,bored,"bored, not bored","more bored, less bored",NA,NA,NA,NA,NA,NA,NA,NA,NA,NA,NA,NA,NA,NA,NA,NA,NA,NA,NA,NA,NA,NA,NA,NA,NA,NA,NA,NA,NA,NA,NA,NA,NA,NA,NA,NA,NA,NA,0,2,2,2,1,NA,NA,NA,NA,NA
SUPAMT84633,3570Y55XZVI8R61P47WQ3J9GDVMGYG,1111290B-7B6B-4BD2-99AF-DEDBB2E8B91B,2023-09-29_08h13.12.271,WP_VExplicitOC_LH,2022.2.5,Win32,12.7131034,NA,NA,NA,NA,NA,NA,NA,NA,NA,NA,NA,NA,NA,NA,NA,NA,NA,NA,NA,NA,NA,NA,NA,NA,NA,NA,NA,NA,NA,NA,NA,NA,NA,NA,NA,NA,NA,NA,NA,NA,NA,NA,NA,NA,NA,NA,NA,NA,NA,NA,NA,NA,NA,NA,13,0,13,0,1
SUPAMT84633,3570Y55XZVI8R61P47WQ3J9GDVMGYG,1111290B-7B6B-4BD2-99AF-DEDBB2E8B91B,2023-09-29_08h13.12.271,WP_VExplicitOC_LH,2022.2.5,Win32,12.7131034,100,3.8595,2.0383,NA,NA,NA,NA,NA,bored,"bored, not bored","more bored, less bored",NA,NA,NA,NA,NA,NA,NA,NA,NA,NA,NA,NA,NA,NA,NA,NA,NA,NA,NA,NA,NA,NA,NA,NA,NA,NA,NA,NA,NA,NA,NA,NA,NA,NA,NA,NA,NA,NA,0,0,0,2,1,NA,NA,NA,NA,NA
SUPAMT84633,3570Y55XZVI8R61P47WQ3J9GDVMGYG,1111290B-7B6B-4BD2-99AF-DEDBB2E8B91B,2023-09-29_08h13.12.271,WP_VExplicitOC_LH,2022.2.5,Win32,12.7131034,100,3.661400001,2.0892,NA,NA,NA,NA,NA,happy,"unhappy, happy","less happy, more happy",NA,NA,NA,NA,NA,NA,NA,NA,NA,NA,NA,NA,NA,NA,NA,NA,NA,NA,NA,NA,NA,NA,NA,NA,NA,NA,NA,NA,NA,NA,NA,NA,NA,NA,NA,NA,NA,NA,0,1,1,0,1,NA,NA,NA,NA,NA
SUPAMT84633,3570Y55XZVI8R61P47WQ3J9GDVMGYG,1111290B-7B6B-4BD2-99AF-DEDBB2E8B91B,2023-09-29_08h13.12.271,WP_VExplicitOC_LH,2022.2.5,Win32,12.7131034,100,4.873400001,2.032,NA,NA,NA,NA,NA,frustrated,"frustrated, not frustrated","more frustrated, less frustrated",NA,NA,NA,NA,NA,NA,NA,NA,NA,NA,NA,NA,NA,NA,NA,NA,NA,NA,NA,NA,NA,NA,NA,NA,NA,NA,NA,NA,NA,NA,NA,NA,NA,NA,NA,NA,NA,NA,0,2,2,1,1,NA,NA,NA,NA,NA
SUPAMT84633,3570Y55XZVI8R61P47WQ3J9GDVMGYG,1111290B-7B6B-4BD2-99AF-DEDBB2E8B91B,2023-09-29_08h13.12.271,WP_VExplicitOC_LH,2022.2.5,Win32,12.7131034,NA,NA,NA,NA,NA,NA,NA,NA,NA,NA,NA,NA,NA,NA,NA,NA,NA,NA,NA,NA,NA,NA,NA,NA,NA,NA,NA,NA,NA,NA,NA,NA,NA,NA,NA,NA,NA,NA,NA,NA,NA,NA,NA,NA,NA,NA,NA,NA,NA,NA,NA,NA,NA,NA,14,0,14,0,1
SUPAMT84633,3570Y55XZVI8R61P47WQ3J9GDVMGYG,1111290B-7B6B-4BD2-99AF-DEDBB2E8B91B,2023-09-29_08h13.12.271,WP_VExplicitOC_LH,2022.2.5,Win32,12.7131034,NA,NA,NA,NA,NA,NA,NA,NA,NA,NA,NA,NA,NA,NA,NA,NA,NA,NA,NA,NA,NA,NA,NA,NA,NA,NA,NA,NA,NA,NA,NA,NA,NA,NA,NA,NA,NA,NA,NA,NA,NA,NA,NA,NA,NA,NA,NA,NA,NA,NA,NA,NA,NA,NA,NA,NA,NA,NA,NA
