participant,session,completion,date,expName,psychopyVersion,OS,frameRate,rating_all.response,rating_all.rt,rating_all.tStart,rndRat1.thisRepN,rndRat1.thisTrialN,rndRat1.thisN,rndRat1.thisIndex,rndRat1.ran,Emo,Labs,Labs2,rating_alt.response,rating_alt.rt,AltC.thisRepN,AltC.thisTrialN,AltC.thisN,AltC.thisIndex,AltC.ran,alt_choices,pic_choices,BottomAlt_Choice,rndRat2.thisRepN,rndRat2.thisTrialN,rndRat2.thisN,rndRat2.thisIndex,rndRat2.ran,rndRat3.thisRepN,rndRat3.thisTrialN,rndRat3.thisN,rndRat3.thisIndex,rndRat3.ran,trials_FC_L.thisRepN,trials_FC_L.thisTrialN,trials_FC_L.thisN,trials_FC_L.thisIndex,trials_FC_L.ran,rating_alt_2.response,rating_alt_2.rt,AltC2.thisRepN,AltC2.thisTrialN,AltC2.thisN,AltC2.thisIndex,AltC2.ran,TopAlt_Choice,rndRat4.thisRepN,rndRat4.thisTrialN,rndRat4.thisN,rndRat4.thisIndex,rndRat4.ran,rndRat5.thisRepN,rndRat5.thisTrialN,rndRat5.thisN,rndRat5.thisIndex,rndRat5.ran,trials_FC_H.thisRepN,trials_FC_H.thisTrialN,trials_FC_H.thisN,trials_FC_H.thisIndex,trials_FC_H.ran
SUPAMT17915,3C8HJ7UOPDT8O67GBWW4UV2FF4GMZL,3FABF480-235F-4B9B-82AF-CBF9ADBCA1E3,2023-09-28_04h13.04.425,WP_VExplicitOC_LH,2022.2.5,Win32,22.08578117,NA,NA,NA,NA,NA,NA,NA,NA,NA,NA,NA,NA,NA,NA,NA,NA,NA,NA,NA,NA,NA,NA,NA,NA,NA,NA,NA,NA,NA,NA,NA,NA,NA,NA,NA,NA,NA,NA,NA,NA,NA,NA,NA,NA,NA,NA,NA,NA,NA,NA,NA,NA,NA,NA,NA,NA,NA,NA,NA
SUPAMT17915,3C8HJ7UOPDT8O67GBWW4UV2FF4GMZL,3FABF480-235F-4B9B-82AF-CBF9ADBCA1E3,2023-09-28_04h13.04.425,WP_VExplicitOC_LH,2022.2.5,Win32,22.08578117,NA,NA,NA,NA,NA,NA,NA,NA,NA,NA,NA,NA,NA,NA,NA,NA,NA,NA,NA,NA,NA,NA,NA,NA,NA,NA,NA,NA,NA,NA,NA,NA,NA,NA,NA,NA,NA,NA,NA,NA,NA,NA,NA,NA,NA,NA,NA,NA,NA,NA,NA,NA,NA,NA,NA,NA,NA,NA,NA
SUPAMT17915,3C8HJ7UOPDT8O67GBWW4UV2FF4GMZL,3FABF480-235F-4B9B-82AF-CBF9ADBCA1E3,2023-09-28_04h13.04.425,WP_VExplicitOC_LH,2022.2.5,Win32,22.08578117,NA,NA,NA,NA,NA,NA,NA,NA,NA,NA,NA,NA,NA,NA,NA,NA,NA,NA,NA,NA,NA,NA,NA,NA,NA,NA,NA,NA,NA,NA,NA,NA,NA,NA,NA,NA,NA,NA,NA,NA,NA,NA,NA,NA,NA,NA,NA,NA,NA,NA,NA,NA,NA,NA,NA,NA,NA,NA,NA
SUPAMT17915,3C8HJ7UOPDT8O67GBWW4UV2FF4GMZL,3FABF480-235F-4B9B-82AF-CBF9ADBCA1E3,2023-09-28_04h13.04.425,WP_VExplicitOC_LH,2022.2.5,Win32,22.08578117,100,6.0221,2.0639,0,0,0,0,1,happy,"unhappy, happy","less happy, more happy",NA,NA,NA,NA,NA,NA,NA,NA,NA,NA,NA,NA,NA,NA,NA,NA,NA,NA,NA,NA,NA,NA,NA,NA,NA,NA,NA,NA,NA,NA,NA,NA,NA,NA,NA,NA,NA,NA,NA,NA,NA,NA,NA,NA,NA,NA,NA,NA
SUPAMT17915,3C8HJ7UOPDT8O67GBWW4UV2FF4GMZL,3FABF480-235F-4B9B-82AF-CBF9ADBCA1E3,2023-09-28_04h13.04.425,WP_VExplicitOC_LH,2022.2.5,Win32,22.08578117,100,3.7537,2.0441,0,1,1,2,1,bored,"bored, not bored","more bored, less bored",NA,NA,NA,NA,NA,NA,NA,NA,NA,NA,NA,NA,NA,NA,NA,NA,NA,NA,NA,NA,NA,NA,NA,NA,NA,NA,NA,NA,NA,NA,NA,NA,NA,NA,NA,NA,NA,NA,NA,NA,NA,NA,NA,NA,NA,NA,NA,NA
SUPAMT17915,3C8HJ7UOPDT8O67GBWW4UV2FF4GMZL,3FABF480-235F-4B9B-82AF-CBF9ADBCA1E3,2023-09-28_04h13.04.425,WP_VExplicitOC_LH,2022.2.5,Win32,22.08578117,100,5.8185,2.0368,0,2,2,1,1,frustrated,"frustrated, not frustrated","more frustrated, less frustrated",NA,NA,NA,NA,NA,NA,NA,NA,NA,NA,NA,NA,NA,NA,NA,NA,NA,NA,NA,NA,NA,NA,NA,NA,NA,NA,NA,NA,NA,NA,NA,NA,NA,NA,NA,NA,NA,NA,NA,NA,NA,NA,NA,NA,NA,NA,NA,NA
SUPAMT17915,3C8HJ7UOPDT8O67GBWW4UV2FF4GMZL,3FABF480-235F-4B9B-82AF-CBF9ADBCA1E3,2023-09-28_04h13.04.425,WP_VExplicitOC_LH,2022.2.5,Win32,22.08578117,NA,NA,NA,NA,NA,NA,NA,NA,NA,NA,NA,NA,NA,NA,NA,NA,NA,NA,NA,NA,NA,NA,NA,NA,NA,NA,NA,NA,NA,NA,NA,NA,NA,NA,NA,NA,NA,NA,NA,NA,NA,NA,NA,NA,NA,NA,NA,NA,NA,NA,NA,NA,NA,NA,NA,NA,NA,NA,NA
SUPAMT17915,3C8HJ7UOPDT8O67GBWW4UV2FF4GMZL,3FABF480-235F-4B9B-82AF-CBF9ADBCA1E3,2023-09-28_04h13.04.425,WP_VExplicitOC_LH,2022.2.5,Win32,22.08578117,NA,NA,NA,NA,NA,NA,NA,NA,NA,NA,NA,NA,NA,NA,NA,NA,NA,NA,NA,NA,NA,NA,NA,NA,NA,NA,NA,NA,NA,NA,NA,NA,NA,NA,NA,NA,NA,NA,NA,NA,NA,NA,NA,NA,NA,NA,NA,NA,NA,NA,NA,NA,NA,NA,NA,NA,NA,NA,NA
SUPAMT17915,3C8HJ7UOPDT8O67GBWW4UV2FF4GMZL,3FABF480-235F-4B9B-82AF-CBF9ADBCA1E3,2023-09-28_04h13.04.425,WP_VExplicitOC_LH,2022.2.5,Win32,22.08578117,NA,NA,NA,NA,NA,NA,NA,NA,NA,NA,NA,NA,NA,NA,NA,NA,NA,NA,NA,NA,NA,NA,NA,NA,NA,NA,NA,NA,NA,NA,NA,NA,NA,NA,NA,NA,NA,NA,NA,NA,NA,NA,NA,NA,NA,NA,NA,NA,NA,NA,NA,NA,NA,NA,NA,NA,NA,NA,NA
SUPAMT17915,3C8HJ7UOPDT8O67GBWW4UV2FF4GMZL,3FABF480-235F-4B9B-82AF-CBF9ADBCA1E3,2023-09-28_04h13.04.425,WP_VExplicitOC_LH,2022.2.5,Win32,22.08578117,NA,NA,NA,NA,NA,NA,NA,NA,NA,NA,NA,NA,NA,NA,NA,NA,NA,NA,NA,NA,NA,NA,NA,NA,NA,NA,NA,NA,NA,NA,NA,NA,NA,NA,NA,NA,NA,NA,NA,NA,NA,NA,NA,NA,NA,NA,NA,NA,NA,NA,NA,NA,NA,NA,NA,NA,NA,NA,NA
SUPAMT17915,3C8HJ7UOPDT8O67GBWW4UV2FF4GMZL,3FABF480-235F-4B9B-82AF-CBF9ADBCA1E3,2023-09-28_04h13.04.425,WP_VExplicitOC_LH,2022.2.5,Win32,22.08578117,NA,NA,NA,NA,NA,NA,NA,NA,NA,NA,NA,100,2.2731,0,0,0,0,1,rest (looking at a fixed cross),001.png,NA,NA,NA,NA,NA,NA,NA,NA,NA,NA,NA,NA,NA,NA,NA,NA,NA,NA,NA,NA,NA,NA,NA,NA,NA,NA,NA,NA,NA,NA,NA,NA,NA,NA,NA,NA,NA,NA,NA
SUPAMT17915,3C8HJ7UOPDT8O67GBWW4UV2FF4GMZL,3FABF480-235F-4B9B-82AF-CBF9ADBCA1E3,2023-09-28_04h13.04.425,WP_VExplicitOC_LH,2022.2.5,Win32,22.08578117,NA,NA,NA,NA,NA,NA,NA,NA,NA,NA,NA,100,1.8046,0,1,1,1,1,stand up,002.png,NA,NA,NA,NA,NA,NA,NA,NA,NA,NA,NA,NA,NA,NA,NA,NA,NA,NA,NA,NA,NA,NA,NA,NA,NA,NA,NA,NA,NA,NA,NA,NA,NA,NA,NA,NA,NA,NA,NA
SUPAMT17915,3C8HJ7UOPDT8O67GBWW4UV2FF4GMZL,3FABF480-235F-4B9B-82AF-CBF9ADBCA1E3,2023-09-28_04h13.04.425,WP_VExplicitOC_LH,2022.2.5,Win32,22.08578117,NA,NA,NA,NA,NA,NA,NA,NA,NA,NA,NA,100,1.9049,0,2,2,2,1,stretch,003.png,NA,NA,NA,NA,NA,NA,NA,NA,NA,NA,NA,NA,NA,NA,NA,NA,NA,NA,NA,NA,NA,NA,NA,NA,NA,NA,NA,NA,NA,NA,NA,NA,NA,NA,NA,NA,NA,NA,NA
SUPAMT17915,3C8HJ7UOPDT8O67GBWW4UV2FF4GMZL,3FABF480-235F-4B9B-82AF-CBF9ADBCA1E3,2023-09-28_04h13.04.425,WP_VExplicitOC_LH,2022.2.5,Win32,22.08578117,NA,NA,NA,NA,NA,NA,NA,NA,NA,NA,NA,100,1.8107,0,3,3,3,1,make a drink,004.png,NA,NA,NA,NA,NA,NA,NA,NA,NA,NA,NA,NA,NA,NA,NA,NA,NA,NA,NA,NA,NA,NA,NA,NA,NA,NA,NA,NA,NA,NA,NA,NA,NA,NA,NA,NA,NA,NA,NA
SUPAMT17915,3C8HJ7UOPDT8O67GBWW4UV2FF4GMZL,3FABF480-235F-4B9B-82AF-CBF9ADBCA1E3,2023-09-28_04h13.04.425,WP_VExplicitOC_LH,2022.2.5,Win32,22.08578117,NA,NA,NA,NA,NA,NA,NA,NA,NA,NA,NA,100,1.836,0,4,4,4,1,scroll social media,005.png,NA,NA,NA,NA,NA,NA,NA,NA,NA,NA,NA,NA,NA,NA,NA,NA,NA,NA,NA,NA,NA,NA,NA,NA,NA,NA,NA,NA,NA,NA,NA,NA,NA,NA,NA,NA,NA,NA,NA
SUPAMT17915,3C8HJ7UOPDT8O67GBWW4UV2FF4GMZL,3FABF480-235F-4B9B-82AF-CBF9ADBCA1E3,2023-09-28_04h13.04.425,WP_VExplicitOC_LH,2022.2.5,Win32,22.08578117,NA,NA,NA,NA,NA,NA,NA,NA,NA,NA,NA,100,1.9114,0,5,5,5,1,listen to music,006.png,NA,NA,NA,NA,NA,NA,NA,NA,NA,NA,NA,NA,NA,NA,NA,NA,NA,NA,NA,NA,NA,NA,NA,NA,NA,NA,NA,NA,NA,NA,NA,NA,NA,NA,NA,NA,NA,NA,NA
SUPAMT17915,3C8HJ7UOPDT8O67GBWW4UV2FF4GMZL,3FABF480-235F-4B9B-82AF-CBF9ADBCA1E3,2023-09-28_04h13.04.425,WP_VExplicitOC_LH,2022.2.5,Win32,22.08578117,NA,NA,NA,NA,NA,NA,NA,NA,NA,NA,NA,100,1.9812,0,6,6,6,1,daydream,007.png,NA,NA,NA,NA,NA,NA,NA,NA,NA,NA,NA,NA,NA,NA,NA,NA,NA,NA,NA,NA,NA,NA,NA,NA,NA,NA,NA,NA,NA,NA,NA,NA,NA,NA,NA,NA,NA,NA,NA
SUPAMT17915,3C8HJ7UOPDT8O67GBWW4UV2FF4GMZL,3FABF480-235F-4B9B-82AF-CBF9ADBCA1E3,2023-09-28_04h13.04.425,WP_VExplicitOC_LH,2022.2.5,Win32,22.08578117,NA,NA,NA,NA,NA,NA,NA,NA,NA,NA,NA,100,2.1024,0,7,7,7,1,watch a short animation,008.png,NA,NA,NA,NA,NA,NA,NA,NA,NA,NA,NA,NA,NA,NA,NA,NA,NA,NA,NA,NA,NA,NA,NA,NA,NA,NA,NA,NA,NA,NA,NA,NA,NA,NA,NA,NA,NA,NA,NA
SUPAMT17915,3C8HJ7UOPDT8O67GBWW4UV2FF4GMZL,3FABF480-235F-4B9B-82AF-CBF9ADBCA1E3,2023-09-28_04h13.04.425,WP_VExplicitOC_LH,2022.2.5,Win32,22.08578117,NA,NA,NA,NA,NA,NA,NA,NA,NA,NA,NA,100,2.0846,0,8,8,8,1,read a novel,009.png,NA,NA,NA,NA,NA,NA,NA,NA,NA,NA,NA,NA,NA,NA,NA,NA,NA,NA,NA,NA,NA,NA,NA,NA,NA,NA,NA,NA,NA,NA,NA,NA,NA,NA,NA,NA,NA,NA,NA
SUPAMT17915,3C8HJ7UOPDT8O67GBWW4UV2FF4GMZL,3FABF480-235F-4B9B-82AF-CBF9ADBCA1E3,2023-09-28_04h13.04.425,WP_VExplicitOC_LH,2022.2.5,Win32,22.08578117,NA,NA,NA,NA,NA,NA,NA,NA,NA,NA,NA,100,1.7343,0,9,9,9,1,read the news,010.png,NA,NA,NA,NA,NA,NA,NA,NA,NA,NA,NA,NA,NA,NA,NA,NA,NA,NA,NA,NA,NA,NA,NA,NA,NA,NA,NA,NA,NA,NA,NA,NA,NA,NA,NA,NA,NA,NA,NA
SUPAMT17915,3C8HJ7UOPDT8O67GBWW4UV2FF4GMZL,3FABF480-235F-4B9B-82AF-CBF9ADBCA1E3,2023-09-28_04h13.04.425,WP_VExplicitOC_LH,2022.2.5,Win32,22.08578117,NA,NA,NA,NA,NA,NA,NA,NA,NA,NA,NA,NA,NA,NA,NA,NA,NA,NA,NA,NA,NA,NA,NA,NA,NA,NA,NA,NA,NA,NA,NA,NA,NA,NA,NA,NA,NA,NA,NA,NA,NA,NA,NA,NA,NA,NA,NA,NA,NA,NA,NA,NA,NA,NA,NA,NA,NA,NA,NA
SUPAMT17915,3C8HJ7UOPDT8O67GBWW4UV2FF4GMZL,3FABF480-235F-4B9B-82AF-CBF9ADBCA1E3,2023-09-28_04h13.04.425,WP_VExplicitOC_LH,2022.2.5,Win32,22.08578117,NA,NA,NA,NA,NA,NA,NA,NA,NA,NA,NA,NA,NA,NA,NA,NA,NA,NA,NA,NA,stand up,NA,NA,NA,NA,NA,NA,NA,NA,NA,NA,NA,NA,NA,NA,NA,NA,NA,NA,NA,NA,NA,NA,NA,NA,NA,NA,NA,NA,NA,NA,NA,NA,NA,NA,NA,NA,NA,NA
SUPAMT17915,3C8HJ7UOPDT8O67GBWW4UV2FF4GMZL,3FABF480-235F-4B9B-82AF-CBF9ADBCA1E3,2023-09-28_04h13.04.425,WP_VExplicitOC_LH,2022.2.5,Win32,22.08578117,100,3.7879,2.0584,NA,NA,NA,NA,NA,frustrated,"frustrated, not frustrated","more frustrated, less frustrated",NA,NA,NA,NA,NA,NA,NA,NA,NA,NA,0,0,0,1,1,NA,NA,NA,NA,NA,NA,NA,NA,NA,NA,NA,NA,NA,NA,NA,NA,NA,NA,NA,NA,NA,NA,NA,NA,NA,NA,NA,NA,NA,NA,NA,NA,NA
SUPAMT17915,3C8HJ7UOPDT8O67GBWW4UV2FF4GMZL,3FABF480-235F-4B9B-82AF-CBF9ADBCA1E3,2023-09-28_04h13.04.425,WP_VExplicitOC_LH,2022.2.5,Win32,22.08578117,100,3.2787,2.0373,NA,NA,NA,NA,NA,bored,"bored, not bored","more bored, less bored",NA,NA,NA,NA,NA,NA,NA,NA,NA,NA,0,1,1,2,1,NA,NA,NA,NA,NA,NA,NA,NA,NA,NA,NA,NA,NA,NA,NA,NA,NA,NA,NA,NA,NA,NA,NA,NA,NA,NA,NA,NA,NA,NA,NA,NA,NA
SUPAMT17915,3C8HJ7UOPDT8O67GBWW4UV2FF4GMZL,3FABF480-235F-4B9B-82AF-CBF9ADBCA1E3,2023-09-28_04h13.04.425,WP_VExplicitOC_LH,2022.2.5,Win32,22.08578117,100,4.2743,2,NA,NA,NA,NA,NA,happy,"unhappy, happy","less happy, more happy",NA,NA,NA,NA,NA,NA,NA,NA,NA,NA,0,2,2,0,1,NA,NA,NA,NA,NA,NA,NA,NA,NA,NA,NA,NA,NA,NA,NA,NA,NA,NA,NA,NA,NA,NA,NA,NA,NA,NA,NA,NA,NA,NA,NA,NA,NA
SUPAMT17915,3C8HJ7UOPDT8O67GBWW4UV2FF4GMZL,3FABF480-235F-4B9B-82AF-CBF9ADBCA1E3,2023-09-28_04h13.04.425,WP_VExplicitOC_LH,2022.2.5,Win32,22.08578117,NA,NA,NA,NA,NA,NA,NA,NA,NA,NA,NA,NA,NA,NA,NA,NA,NA,NA,NA,NA,NA,NA,NA,NA,NA,NA,NA,NA,NA,NA,NA,NA,NA,NA,NA,NA,NA,NA,NA,NA,NA,NA,NA,NA,NA,NA,NA,NA,NA,NA,NA,NA,NA,NA,NA,NA,NA,NA,NA
SUPAMT17915,3C8HJ7UOPDT8O67GBWW4UV2FF4GMZL,3FABF480-235F-4B9B-82AF-CBF9ADBCA1E3,2023-09-28_04h13.04.425,WP_VExplicitOC_LH,2022.2.5,Win32,22.08578117,NA,NA,NA,NA,NA,NA,NA,NA,NA,NA,NA,NA,NA,NA,NA,NA,NA,NA,NA,NA,NA,NA,NA,NA,NA,NA,NA,NA,NA,NA,NA,NA,NA,NA,NA,NA,NA,NA,NA,NA,NA,NA,NA,NA,NA,NA,NA,NA,NA,NA,NA,NA,NA,NA,NA,NA,NA,NA,NA
SUPAMT17915,3C8HJ7UOPDT8O67GBWW4UV2FF4GMZL,3FABF480-235F-4B9B-82AF-CBF9ADBCA1E3,2023-09-28_04h13.04.425,WP_VExplicitOC_LH,2022.2.5,Win32,22.08578117,100,4.7645,2.0525,NA,NA,NA,NA,NA,frustrated,"frustrated, not frustrated","more frustrated, less frustrated",NA,NA,NA,NA,NA,NA,NA,NA,NA,NA,NA,NA,NA,NA,NA,0,0,0,1,1,NA,NA,NA,NA,NA,NA,NA,NA,NA,NA,NA,NA,NA,NA,NA,NA,NA,NA,NA,NA,NA,NA,NA,NA,NA,NA,NA,NA
SUPAMT17915,3C8HJ7UOPDT8O67GBWW4UV2FF4GMZL,3FABF480-235F-4B9B-82AF-CBF9ADBCA1E3,2023-09-28_04h13.04.425,WP_VExplicitOC_LH,2022.2.5,Win32,22.08578117,100,3.8988,2.0224,NA,NA,NA,NA,NA,bored,"bored, not bored","more bored, less bored",NA,NA,NA,NA,NA,NA,NA,NA,NA,NA,NA,NA,NA,NA,NA,0,1,1,2,1,NA,NA,NA,NA,NA,NA,NA,NA,NA,NA,NA,NA,NA,NA,NA,NA,NA,NA,NA,NA,NA,NA,NA,NA,NA,NA,NA,NA
SUPAMT17915,3C8HJ7UOPDT8O67GBWW4UV2FF4GMZL,3FABF480-235F-4B9B-82AF-CBF9ADBCA1E3,2023-09-28_04h13.04.425,WP_VExplicitOC_LH,2022.2.5,Win32,22.08578117,100,4.687,2.057,NA,NA,NA,NA,NA,happy,"unhappy, happy","less happy, more happy",NA,NA,NA,NA,NA,NA,NA,NA,NA,NA,NA,NA,NA,NA,NA,0,2,2,0,1,NA,NA,NA,NA,NA,NA,NA,NA,NA,NA,NA,NA,NA,NA,NA,NA,NA,NA,NA,NA,NA,NA,NA,NA,NA,NA,NA,NA
SUPAMT17915,3C8HJ7UOPDT8O67GBWW4UV2FF4GMZL,3FABF480-235F-4B9B-82AF-CBF9ADBCA1E3,2023-09-28_04h13.04.425,WP_VExplicitOC_LH,2022.2.5,Win32,22.08578117,NA,NA,NA,NA,NA,NA,NA,NA,NA,NA,NA,NA,NA,NA,NA,NA,NA,NA,NA,NA,NA,NA,NA,NA,NA,NA,NA,NA,NA,NA,NA,0,0,0,0,1,NA,NA,NA,NA,NA,NA,NA,NA,NA,NA,NA,NA,NA,NA,NA,NA,NA,NA,NA,NA,NA,NA,NA
SUPAMT17915,3C8HJ7UOPDT8O67GBWW4UV2FF4GMZL,3FABF480-235F-4B9B-82AF-CBF9ADBCA1E3,2023-09-28_04h13.04.425,WP_VExplicitOC_LH,2022.2.5,Win32,22.08578117,100,6.8366,2.0597,NA,NA,NA,NA,NA,happy,"unhappy, happy","less happy, more happy",NA,NA,NA,NA,NA,NA,NA,NA,NA,NA,NA,NA,NA,NA,NA,0,0,0,0,1,NA,NA,NA,NA,NA,NA,NA,NA,NA,NA,NA,NA,NA,NA,NA,NA,NA,NA,NA,NA,NA,NA,NA,NA,NA,NA,NA,NA
SUPAMT17915,3C8HJ7UOPDT8O67GBWW4UV2FF4GMZL,3FABF480-235F-4B9B-82AF-CBF9ADBCA1E3,2023-09-28_04h13.04.425,WP_VExplicitOC_LH,2022.2.5,Win32,22.08578117,96.5,4.38,2.0439,NA,NA,NA,NA,NA,frustrated,"frustrated, not frustrated","more frustrated, less frustrated",NA,NA,NA,NA,NA,NA,NA,NA,NA,NA,NA,NA,NA,NA,NA,0,1,1,1,1,NA,NA,NA,NA,NA,NA,NA,NA,NA,NA,NA,NA,NA,NA,NA,NA,NA,NA,NA,NA,NA,NA,NA,NA,NA,NA,NA,NA
SUPAMT17915,3C8HJ7UOPDT8O67GBWW4UV2FF4GMZL,3FABF480-235F-4B9B-82AF-CBF9ADBCA1E3,2023-09-28_04h13.04.425,WP_VExplicitOC_LH,2022.2.5,Win32,22.08578117,100,3.6386,2.0683,NA,NA,NA,NA,NA,bored,"bored, not bored","more bored, less bored",NA,NA,NA,NA,NA,NA,NA,NA,NA,NA,NA,NA,NA,NA,NA,0,2,2,2,1,NA,NA,NA,NA,NA,NA,NA,NA,NA,NA,NA,NA,NA,NA,NA,NA,NA,NA,NA,NA,NA,NA,NA,NA,NA,NA,NA,NA
SUPAMT17915,3C8HJ7UOPDT8O67GBWW4UV2FF4GMZL,3FABF480-235F-4B9B-82AF-CBF9ADBCA1E3,2023-09-28_04h13.04.425,WP_VExplicitOC_LH,2022.2.5,Win32,22.08578117,NA,NA,NA,NA,NA,NA,NA,NA,NA,NA,NA,NA,NA,NA,NA,NA,NA,NA,NA,NA,NA,NA,NA,NA,NA,NA,NA,NA,NA,NA,NA,1,0,1,0,1,NA,NA,NA,NA,NA,NA,NA,NA,NA,NA,NA,NA,NA,NA,NA,NA,NA,NA,NA,NA,NA,NA,NA
SUPAMT17915,3C8HJ7UOPDT8O67GBWW4UV2FF4GMZL,3FABF480-235F-4B9B-82AF-CBF9ADBCA1E3,2023-09-28_04h13.04.425,WP_VExplicitOC_LH,2022.2.5,Win32,22.08578117,100,4.4636,2.0479,NA,NA,NA,NA,NA,bored,"bored, not bored","more bored, less bored",NA,NA,NA,NA,NA,NA,NA,NA,NA,NA,NA,NA,NA,NA,NA,0,0,0,2,1,NA,NA,NA,NA,NA,NA,NA,NA,NA,NA,NA,NA,NA,NA,NA,NA,NA,NA,NA,NA,NA,NA,NA,NA,NA,NA,NA,NA
SUPAMT17915,3C8HJ7UOPDT8O67GBWW4UV2FF4GMZL,3FABF480-235F-4B9B-82AF-CBF9ADBCA1E3,2023-09-28_04h13.04.425,WP_VExplicitOC_LH,2022.2.5,Win32,22.08578117,NA,NA,2.0314,NA,NA,NA,NA,NA,frustrated,"frustrated, not frustrated","more frustrated, less frustrated",NA,NA,NA,NA,NA,NA,NA,NA,NA,NA,NA,NA,NA,NA,NA,0,1,1,1,1,NA,NA,NA,NA,NA,NA,NA,NA,NA,NA,NA,NA,NA,NA,NA,NA,NA,NA,NA,NA,NA,NA,NA,NA,NA,NA,NA,NA
SUPAMT17915,3C8HJ7UOPDT8O67GBWW4UV2FF4GMZL,3FABF480-235F-4B9B-82AF-CBF9ADBCA1E3,2023-09-28_04h13.04.425,WP_VExplicitOC_LH,2022.2.5,Win32,22.08578117,100,4.1564,2.0341,NA,NA,NA,NA,NA,happy,"unhappy, happy","less happy, more happy",NA,NA,NA,NA,NA,NA,NA,NA,NA,NA,NA,NA,NA,NA,NA,0,2,2,0,1,NA,NA,NA,NA,NA,NA,NA,NA,NA,NA,NA,NA,NA,NA,NA,NA,NA,NA,NA,NA,NA,NA,NA,NA,NA,NA,NA,NA
SUPAMT17915,3C8HJ7UOPDT8O67GBWW4UV2FF4GMZL,3FABF480-235F-4B9B-82AF-CBF9ADBCA1E3,2023-09-28_04h13.04.425,WP_VExplicitOC_LH,2022.2.5,Win32,22.08578117,NA,NA,NA,NA,NA,NA,NA,NA,NA,NA,NA,NA,NA,NA,NA,NA,NA,NA,NA,NA,NA,NA,NA,NA,NA,NA,NA,NA,NA,NA,NA,2,0,2,0,1,NA,NA,NA,NA,NA,NA,NA,NA,NA,NA,NA,NA,NA,NA,NA,NA,NA,NA,NA,NA,NA,NA,NA
SUPAMT17915,3C8HJ7UOPDT8O67GBWW4UV2FF4GMZL,3FABF480-235F-4B9B-82AF-CBF9ADBCA1E3,2023-09-28_04h13.04.425,WP_VExplicitOC_LH,2022.2.5,Win32,22.08578117,100,4.3776,2.0035,NA,NA,NA,NA,NA,frustrated,"frustrated, not frustrated","more frustrated, less frustrated",NA,NA,NA,NA,NA,NA,NA,NA,NA,NA,NA,NA,NA,NA,NA,0,0,0,1,1,NA,NA,NA,NA,NA,NA,NA,NA,NA,NA,NA,NA,NA,NA,NA,NA,NA,NA,NA,NA,NA,NA,NA,NA,NA,NA,NA,NA
SUPAMT17915,3C8HJ7UOPDT8O67GBWW4UV2FF4GMZL,3FABF480-235F-4B9B-82AF-CBF9ADBCA1E3,2023-09-28_04h13.04.425,WP_VExplicitOC_LH,2022.2.5,Win32,22.08578117,100,5.3803,2.0413,NA,NA,NA,NA,NA,happy,"unhappy, happy","less happy, more happy",NA,NA,NA,NA,NA,NA,NA,NA,NA,NA,NA,NA,NA,NA,NA,0,1,1,0,1,NA,NA,NA,NA,NA,NA,NA,NA,NA,NA,NA,NA,NA,NA,NA,NA,NA,NA,NA,NA,NA,NA,NA,NA,NA,NA,NA,NA
SUPAMT17915,3C8HJ7UOPDT8O67GBWW4UV2FF4GMZL,3FABF480-235F-4B9B-82AF-CBF9ADBCA1E3,2023-09-28_04h13.04.425,WP_VExplicitOC_LH,2022.2.5,Win32,22.08578117,NA,NA,2.0494,NA,NA,NA,NA,NA,bored,"bored, not bored","more bored, less bored",NA,NA,NA,NA,NA,NA,NA,NA,NA,NA,NA,NA,NA,NA,NA,0,2,2,2,1,NA,NA,NA,NA,NA,NA,NA,NA,NA,NA,NA,NA,NA,NA,NA,NA,NA,NA,NA,NA,NA,NA,NA,NA,NA,NA,NA,NA
SUPAMT17915,3C8HJ7UOPDT8O67GBWW4UV2FF4GMZL,3FABF480-235F-4B9B-82AF-CBF9ADBCA1E3,2023-09-28_04h13.04.425,WP_VExplicitOC_LH,2022.2.5,Win32,22.08578117,NA,NA,NA,NA,NA,NA,NA,NA,NA,NA,NA,NA,NA,NA,NA,NA,NA,NA,NA,NA,NA,NA,NA,NA,NA,NA,NA,NA,NA,NA,NA,3,0,3,0,1,NA,NA,NA,NA,NA,NA,NA,NA,NA,NA,NA,NA,NA,NA,NA,NA,NA,NA,NA,NA,NA,NA,NA
SUPAMT17915,3C8HJ7UOPDT8O67GBWW4UV2FF4GMZL,3FABF480-235F-4B9B-82AF-CBF9ADBCA1E3,2023-09-28_04h13.04.425,WP_VExplicitOC_LH,2022.2.5,Win32,22.08578117,100,4.514,2.0203,NA,NA,NA,NA,NA,bored,"bored, not bored","more bored, less bored",NA,NA,NA,NA,NA,NA,NA,NA,NA,NA,NA,NA,NA,NA,NA,0,0,0,2,1,NA,NA,NA,NA,NA,NA,NA,NA,NA,NA,NA,NA,NA,NA,NA,NA,NA,NA,NA,NA,NA,NA,NA,NA,NA,NA,NA,NA
SUPAMT17915,3C8HJ7UOPDT8O67GBWW4UV2FF4GMZL,3FABF480-235F-4B9B-82AF-CBF9ADBCA1E3,2023-09-28_04h13.04.425,WP_VExplicitOC_LH,2022.2.5,Win32,22.08578117,100,3.6167,2.0262,NA,NA,NA,NA,NA,frustrated,"frustrated, not frustrated","more frustrated, less frustrated",NA,NA,NA,NA,NA,NA,NA,NA,NA,NA,NA,NA,NA,NA,NA,0,1,1,1,1,NA,NA,NA,NA,NA,NA,NA,NA,NA,NA,NA,NA,NA,NA,NA,NA,NA,NA,NA,NA,NA,NA,NA,NA,NA,NA,NA,NA
SUPAMT17915,3C8HJ7UOPDT8O67GBWW4UV2FF4GMZL,3FABF480-235F-4B9B-82AF-CBF9ADBCA1E3,2023-09-28_04h13.04.425,WP_VExplicitOC_LH,2022.2.5,Win32,22.08578117,100,3.6801,2.0671,NA,NA,NA,NA,NA,happy,"unhappy, happy","less happy, more happy",NA,NA,NA,NA,NA,NA,NA,NA,NA,NA,NA,NA,NA,NA,NA,0,2,2,0,1,NA,NA,NA,NA,NA,NA,NA,NA,NA,NA,NA,NA,NA,NA,NA,NA,NA,NA,NA,NA,NA,NA,NA,NA,NA,NA,NA,NA
SUPAMT17915,3C8HJ7UOPDT8O67GBWW4UV2FF4GMZL,3FABF480-235F-4B9B-82AF-CBF9ADBCA1E3,2023-09-28_04h13.04.425,WP_VExplicitOC_LH,2022.2.5,Win32,22.08578117,NA,NA,NA,NA,NA,NA,NA,NA,NA,NA,NA,NA,NA,NA,NA,NA,NA,NA,NA,NA,NA,NA,NA,NA,NA,NA,NA,NA,NA,NA,NA,4,0,4,0,1,NA,NA,NA,NA,NA,NA,NA,NA,NA,NA,NA,NA,NA,NA,NA,NA,NA,NA,NA,NA,NA,NA,NA
SUPAMT17915,3C8HJ7UOPDT8O67GBWW4UV2FF4GMZL,3FABF480-235F-4B9B-82AF-CBF9ADBCA1E3,2023-09-28_04h13.04.425,WP_VExplicitOC_LH,2022.2.5,Win32,22.08578117,100,4.0852,2.0558,NA,NA,NA,NA,NA,happy,"unhappy, happy","less happy, more happy",NA,NA,NA,NA,NA,NA,NA,NA,NA,NA,NA,NA,NA,NA,NA,0,0,0,0,1,NA,NA,NA,NA,NA,NA,NA,NA,NA,NA,NA,NA,NA,NA,NA,NA,NA,NA,NA,NA,NA,NA,NA,NA,NA,NA,NA,NA
SUPAMT17915,3C8HJ7UOPDT8O67GBWW4UV2FF4GMZL,3FABF480-235F-4B9B-82AF-CBF9ADBCA1E3,2023-09-28_04h13.04.425,WP_VExplicitOC_LH,2022.2.5,Win32,22.08578117,100,3.7518,2.0374,NA,NA,NA,NA,NA,bored,"bored, not bored","more bored, less bored",NA,NA,NA,NA,NA,NA,NA,NA,NA,NA,NA,NA,NA,NA,NA,0,1,1,2,1,NA,NA,NA,NA,NA,NA,NA,NA,NA,NA,NA,NA,NA,NA,NA,NA,NA,NA,NA,NA,NA,NA,NA,NA,NA,NA,NA,NA
SUPAMT17915,3C8HJ7UOPDT8O67GBWW4UV2FF4GMZL,3FABF480-235F-4B9B-82AF-CBF9ADBCA1E3,2023-09-28_04h13.04.425,WP_VExplicitOC_LH,2022.2.5,Win32,22.08578117,100,3.6002,2.0616,NA,NA,NA,NA,NA,frustrated,"frustrated, not frustrated","more frustrated, less frustrated",NA,NA,NA,NA,NA,NA,NA,NA,NA,NA,NA,NA,NA,NA,NA,0,2,2,1,1,NA,NA,NA,NA,NA,NA,NA,NA,NA,NA,NA,NA,NA,NA,NA,NA,NA,NA,NA,NA,NA,NA,NA,NA,NA,NA,NA,NA
SUPAMT17915,3C8HJ7UOPDT8O67GBWW4UV2FF4GMZL,3FABF480-235F-4B9B-82AF-CBF9ADBCA1E3,2023-09-28_04h13.04.425,WP_VExplicitOC_LH,2022.2.5,Win32,22.08578117,NA,NA,NA,NA,NA,NA,NA,NA,NA,NA,NA,NA,NA,NA,NA,NA,NA,NA,NA,NA,NA,NA,NA,NA,NA,NA,NA,NA,NA,NA,NA,5,0,5,0,1,NA,NA,NA,NA,NA,NA,NA,NA,NA,NA,NA,NA,NA,NA,NA,NA,NA,NA,NA,NA,NA,NA,NA
SUPAMT17915,3C8HJ7UOPDT8O67GBWW4UV2FF4GMZL,3FABF480-235F-4B9B-82AF-CBF9ADBCA1E3,2023-09-28_04h13.04.425,WP_VExplicitOC_LH,2022.2.5,Win32,22.08578117,100,3.7552,2.0475,NA,NA,NA,NA,NA,happy,"unhappy, happy","less happy, more happy",NA,NA,NA,NA,NA,NA,NA,NA,NA,NA,NA,NA,NA,NA,NA,0,0,0,0,1,NA,NA,NA,NA,NA,NA,NA,NA,NA,NA,NA,NA,NA,NA,NA,NA,NA,NA,NA,NA,NA,NA,NA,NA,NA,NA,NA,NA
SUPAMT17915,3C8HJ7UOPDT8O67GBWW4UV2FF4GMZL,3FABF480-235F-4B9B-82AF-CBF9ADBCA1E3,2023-09-28_04h13.04.425,WP_VExplicitOC_LH,2022.2.5,Win32,22.08578117,100,3.4124,2.0327,NA,NA,NA,NA,NA,bored,"bored, not bored","more bored, less bored",NA,NA,NA,NA,NA,NA,NA,NA,NA,NA,NA,NA,NA,NA,NA,0,1,1,2,1,NA,NA,NA,NA,NA,NA,NA,NA,NA,NA,NA,NA,NA,NA,NA,NA,NA,NA,NA,NA,NA,NA,NA,NA,NA,NA,NA,NA
SUPAMT17915,3C8HJ7UOPDT8O67GBWW4UV2FF4GMZL,3FABF480-235F-4B9B-82AF-CBF9ADBCA1E3,2023-09-28_04h13.04.425,WP_VExplicitOC_LH,2022.2.5,Win32,22.08578117,100,3.4514,2.0194,NA,NA,NA,NA,NA,frustrated,"frustrated, not frustrated","more frustrated, less frustrated",NA,NA,NA,NA,NA,NA,NA,NA,NA,NA,NA,NA,NA,NA,NA,0,2,2,1,1,NA,NA,NA,NA,NA,NA,NA,NA,NA,NA,NA,NA,NA,NA,NA,NA,NA,NA,NA,NA,NA,NA,NA,NA,NA,NA,NA,NA
SUPAMT17915,3C8HJ7UOPDT8O67GBWW4UV2FF4GMZL,3FABF480-235F-4B9B-82AF-CBF9ADBCA1E3,2023-09-28_04h13.04.425,WP_VExplicitOC_LH,2022.2.5,Win32,22.08578117,NA,NA,NA,NA,NA,NA,NA,NA,NA,NA,NA,NA,NA,NA,NA,NA,NA,NA,NA,NA,NA,NA,NA,NA,NA,NA,NA,NA,NA,NA,NA,6,0,6,0,1,NA,NA,NA,NA,NA,NA,NA,NA,NA,NA,NA,NA,NA,NA,NA,NA,NA,NA,NA,NA,NA,NA,NA
SUPAMT17915,3C8HJ7UOPDT8O67GBWW4UV2FF4GMZL,3FABF480-235F-4B9B-82AF-CBF9ADBCA1E3,2023-09-28_04h13.04.425,WP_VExplicitOC_LH,2022.2.5,Win32,22.08578117,NA,NA,2.0326,NA,NA,NA,NA,NA,frustrated,"frustrated, not frustrated","more frustrated, less frustrated",NA,NA,NA,NA,NA,NA,NA,NA,NA,NA,NA,NA,NA,NA,NA,0,0,0,1,1,NA,NA,NA,NA,NA,NA,NA,NA,NA,NA,NA,NA,NA,NA,NA,NA,NA,NA,NA,NA,NA,NA,NA,NA,NA,NA,NA,NA
SUPAMT17915,3C8HJ7UOPDT8O67GBWW4UV2FF4GMZL,3FABF480-235F-4B9B-82AF-CBF9ADBCA1E3,2023-09-28_04h13.04.425,WP_VExplicitOC_LH,2022.2.5,Win32,22.08578117,100,3.9458,2.0405,NA,NA,NA,NA,NA,happy,"unhappy, happy","less happy, more happy",NA,NA,NA,NA,NA,NA,NA,NA,NA,NA,NA,NA,NA,NA,NA,0,1,1,0,1,NA,NA,NA,NA,NA,NA,NA,NA,NA,NA,NA,NA,NA,NA,NA,NA,NA,NA,NA,NA,NA,NA,NA,NA,NA,NA,NA,NA
SUPAMT17915,3C8HJ7UOPDT8O67GBWW4UV2FF4GMZL,3FABF480-235F-4B9B-82AF-CBF9ADBCA1E3,2023-09-28_04h13.04.425,WP_VExplicitOC_LH,2022.2.5,Win32,22.08578117,100,3.8845,2.0629,NA,NA,NA,NA,NA,bored,"bored, not bored","more bored, less bored",NA,NA,NA,NA,NA,NA,NA,NA,NA,NA,NA,NA,NA,NA,NA,0,2,2,2,1,NA,NA,NA,NA,NA,NA,NA,NA,NA,NA,NA,NA,NA,NA,NA,NA,NA,NA,NA,NA,NA,NA,NA,NA,NA,NA,NA,NA
SUPAMT17915,3C8HJ7UOPDT8O67GBWW4UV2FF4GMZL,3FABF480-235F-4B9B-82AF-CBF9ADBCA1E3,2023-09-28_04h13.04.425,WP_VExplicitOC_LH,2022.2.5,Win32,22.08578117,NA,NA,NA,NA,NA,NA,NA,NA,NA,NA,NA,NA,NA,NA,NA,NA,NA,NA,NA,NA,NA,NA,NA,NA,NA,NA,NA,NA,NA,NA,NA,7,0,7,0,1,NA,NA,NA,NA,NA,NA,NA,NA,NA,NA,NA,NA,NA,NA,NA,NA,NA,NA,NA,NA,NA,NA,NA
SUPAMT17915,3C8HJ7UOPDT8O67GBWW4UV2FF4GMZL,3FABF480-235F-4B9B-82AF-CBF9ADBCA1E3,2023-09-28_04h13.04.425,WP_VExplicitOC_LH,2022.2.5,Win32,22.08578117,100,4.3509,2.02,NA,NA,NA,NA,NA,frustrated,"frustrated, not frustrated","more frustrated, less frustrated",NA,NA,NA,NA,NA,NA,NA,NA,NA,NA,NA,NA,NA,NA,NA,0,0,0,1,1,NA,NA,NA,NA,NA,NA,NA,NA,NA,NA,NA,NA,NA,NA,NA,NA,NA,NA,NA,NA,NA,NA,NA,NA,NA,NA,NA,NA
SUPAMT17915,3C8HJ7UOPDT8O67GBWW4UV2FF4GMZL,3FABF480-235F-4B9B-82AF-CBF9ADBCA1E3,2023-09-28_04h13.04.425,WP_VExplicitOC_LH,2022.2.5,Win32,22.08578117,100,5.7681,2.0447,NA,NA,NA,NA,NA,bored,"bored, not bored","more bored, less bored",NA,NA,NA,NA,NA,NA,NA,NA,NA,NA,NA,NA,NA,NA,NA,0,1,1,2,1,NA,NA,NA,NA,NA,NA,NA,NA,NA,NA,NA,NA,NA,NA,NA,NA,NA,NA,NA,NA,NA,NA,NA,NA,NA,NA,NA,NA
SUPAMT17915,3C8HJ7UOPDT8O67GBWW4UV2FF4GMZL,3FABF480-235F-4B9B-82AF-CBF9ADBCA1E3,2023-09-28_04h13.04.425,WP_VExplicitOC_LH,2022.2.5,Win32,22.08578117,100,4.3225,2.0178,NA,NA,NA,NA,NA,happy,"unhappy, happy","less happy, more happy",NA,NA,NA,NA,NA,NA,NA,NA,NA,NA,NA,NA,NA,NA,NA,0,2,2,0,1,NA,NA,NA,NA,NA,NA,NA,NA,NA,NA,NA,NA,NA,NA,NA,NA,NA,NA,NA,NA,NA,NA,NA,NA,NA,NA,NA,NA
SUPAMT17915,3C8HJ7UOPDT8O67GBWW4UV2FF4GMZL,3FABF480-235F-4B9B-82AF-CBF9ADBCA1E3,2023-09-28_04h13.04.425,WP_VExplicitOC_LH,2022.2.5,Win32,22.08578117,NA,NA,NA,NA,NA,NA,NA,NA,NA,NA,NA,NA,NA,NA,NA,NA,NA,NA,NA,NA,NA,NA,NA,NA,NA,NA,NA,NA,NA,NA,NA,8,0,8,0,1,NA,NA,NA,NA,NA,NA,NA,NA,NA,NA,NA,NA,NA,NA,NA,NA,NA,NA,NA,NA,NA,NA,NA
SUPAMT17915,3C8HJ7UOPDT8O67GBWW4UV2FF4GMZL,3FABF480-235F-4B9B-82AF-CBF9ADBCA1E3,2023-09-28_04h13.04.425,WP_VExplicitOC_LH,2022.2.5,Win32,22.08578117,100,5.5526,2.0059,NA,NA,NA,NA,NA,happy,"unhappy, happy","less happy, more happy",NA,NA,NA,NA,NA,NA,NA,NA,NA,NA,NA,NA,NA,NA,NA,0,0,0,0,1,NA,NA,NA,NA,NA,NA,NA,NA,NA,NA,NA,NA,NA,NA,NA,NA,NA,NA,NA,NA,NA,NA,NA,NA,NA,NA,NA,NA
SUPAMT17915,3C8HJ7UOPDT8O67GBWW4UV2FF4GMZL,3FABF480-235F-4B9B-82AF-CBF9ADBCA1E3,2023-09-28_04h13.04.425,WP_VExplicitOC_LH,2022.2.5,Win32,22.08578117,100,4.381,2.0203,NA,NA,NA,NA,NA,frustrated,"frustrated, not frustrated","more frustrated, less frustrated",NA,NA,NA,NA,NA,NA,NA,NA,NA,NA,NA,NA,NA,NA,NA,0,1,1,1,1,NA,NA,NA,NA,NA,NA,NA,NA,NA,NA,NA,NA,NA,NA,NA,NA,NA,NA,NA,NA,NA,NA,NA,NA,NA,NA,NA,NA
SUPAMT17915,3C8HJ7UOPDT8O67GBWW4UV2FF4GMZL,3FABF480-235F-4B9B-82AF-CBF9ADBCA1E3,2023-09-28_04h13.04.425,WP_VExplicitOC_LH,2022.2.5,Win32,22.08578117,100,3.4853,2.0246,NA,NA,NA,NA,NA,bored,"bored, not bored","more bored, less bored",NA,NA,NA,NA,NA,NA,NA,NA,NA,NA,NA,NA,NA,NA,NA,0,2,2,2,1,NA,NA,NA,NA,NA,NA,NA,NA,NA,NA,NA,NA,NA,NA,NA,NA,NA,NA,NA,NA,NA,NA,NA,NA,NA,NA,NA,NA
SUPAMT17915,3C8HJ7UOPDT8O67GBWW4UV2FF4GMZL,3FABF480-235F-4B9B-82AF-CBF9ADBCA1E3,2023-09-28_04h13.04.425,WP_VExplicitOC_LH,2022.2.5,Win32,22.08578117,NA,NA,NA,NA,NA,NA,NA,NA,NA,NA,NA,NA,NA,NA,NA,NA,NA,NA,NA,NA,NA,NA,NA,NA,NA,NA,NA,NA,NA,NA,NA,9,0,9,0,1,NA,NA,NA,NA,NA,NA,NA,NA,NA,NA,NA,NA,NA,NA,NA,NA,NA,NA,NA,NA,NA,NA,NA
SUPAMT17915,3C8HJ7UOPDT8O67GBWW4UV2FF4GMZL,3FABF480-235F-4B9B-82AF-CBF9ADBCA1E3,2023-09-28_04h13.04.425,WP_VExplicitOC_LH,2022.2.5,Win32,22.08578117,100,5.3985,2.0707,NA,NA,NA,NA,NA,happy,"unhappy, happy","less happy, more happy",NA,NA,NA,NA,NA,NA,NA,NA,NA,NA,NA,NA,NA,NA,NA,0,0,0,0,1,NA,NA,NA,NA,NA,NA,NA,NA,NA,NA,NA,NA,NA,NA,NA,NA,NA,NA,NA,NA,NA,NA,NA,NA,NA,NA,NA,NA
SUPAMT17915,3C8HJ7UOPDT8O67GBWW4UV2FF4GMZL,3FABF480-235F-4B9B-82AF-CBF9ADBCA1E3,2023-09-28_04h13.04.425,WP_VExplicitOC_LH,2022.2.5,Win32,22.08578117,100,3.6657,2.0411,NA,NA,NA,NA,NA,bored,"bored, not bored","more bored, less bored",NA,NA,NA,NA,NA,NA,NA,NA,NA,NA,NA,NA,NA,NA,NA,0,1,1,2,1,NA,NA,NA,NA,NA,NA,NA,NA,NA,NA,NA,NA,NA,NA,NA,NA,NA,NA,NA,NA,NA,NA,NA,NA,NA,NA,NA,NA
SUPAMT17915,3C8HJ7UOPDT8O67GBWW4UV2FF4GMZL,3FABF480-235F-4B9B-82AF-CBF9ADBCA1E3,2023-09-28_04h13.04.425,WP_VExplicitOC_LH,2022.2.5,Win32,22.08578117,97.25,4.9801,2.0525,NA,NA,NA,NA,NA,frustrated,"frustrated, not frustrated","more frustrated, less frustrated",NA,NA,NA,NA,NA,NA,NA,NA,NA,NA,NA,NA,NA,NA,NA,0,2,2,1,1,NA,NA,NA,NA,NA,NA,NA,NA,NA,NA,NA,NA,NA,NA,NA,NA,NA,NA,NA,NA,NA,NA,NA,NA,NA,NA,NA,NA
SUPAMT17915,3C8HJ7UOPDT8O67GBWW4UV2FF4GMZL,3FABF480-235F-4B9B-82AF-CBF9ADBCA1E3,2023-09-28_04h13.04.425,WP_VExplicitOC_LH,2022.2.5,Win32,22.08578117,NA,NA,NA,NA,NA,NA,NA,NA,NA,NA,NA,NA,NA,NA,NA,NA,NA,NA,NA,NA,NA,NA,NA,NA,NA,NA,NA,NA,NA,NA,NA,10,0,10,0,1,NA,NA,NA,NA,NA,NA,NA,NA,NA,NA,NA,NA,NA,NA,NA,NA,NA,NA,NA,NA,NA,NA,NA
SUPAMT17915,3C8HJ7UOPDT8O67GBWW4UV2FF4GMZL,3FABF480-235F-4B9B-82AF-CBF9ADBCA1E3,2023-09-28_04h13.04.425,WP_VExplicitOC_LH,2022.2.5,Win32,22.08578117,NA,NA,2.0443,NA,NA,NA,NA,NA,frustrated,"frustrated, not frustrated","more frustrated, less frustrated",NA,NA,NA,NA,NA,NA,NA,NA,NA,NA,NA,NA,NA,NA,NA,0,0,0,1,1,NA,NA,NA,NA,NA,NA,NA,NA,NA,NA,NA,NA,NA,NA,NA,NA,NA,NA,NA,NA,NA,NA,NA,NA,NA,NA,NA,NA
SUPAMT17915,3C8HJ7UOPDT8O67GBWW4UV2FF4GMZL,3FABF480-235F-4B9B-82AF-CBF9ADBCA1E3,2023-09-28_04h13.04.425,WP_VExplicitOC_LH,2022.2.5,Win32,22.08578117,100,3.7129,2.0221,NA,NA,NA,NA,NA,bored,"bored, not bored","more bored, less bored",NA,NA,NA,NA,NA,NA,NA,NA,NA,NA,NA,NA,NA,NA,NA,0,1,1,2,1,NA,NA,NA,NA,NA,NA,NA,NA,NA,NA,NA,NA,NA,NA,NA,NA,NA,NA,NA,NA,NA,NA,NA,NA,NA,NA,NA,NA
SUPAMT17915,3C8HJ7UOPDT8O67GBWW4UV2FF4GMZL,3FABF480-235F-4B9B-82AF-CBF9ADBCA1E3,2023-09-28_04h13.04.425,WP_VExplicitOC_LH,2022.2.5,Win32,22.08578117,100,3.9375,2.0554,NA,NA,NA,NA,NA,happy,"unhappy, happy","less happy, more happy",NA,NA,NA,NA,NA,NA,NA,NA,NA,NA,NA,NA,NA,NA,NA,0,2,2,0,1,NA,NA,NA,NA,NA,NA,NA,NA,NA,NA,NA,NA,NA,NA,NA,NA,NA,NA,NA,NA,NA,NA,NA,NA,NA,NA,NA,NA
SUPAMT17915,3C8HJ7UOPDT8O67GBWW4UV2FF4GMZL,3FABF480-235F-4B9B-82AF-CBF9ADBCA1E3,2023-09-28_04h13.04.425,WP_VExplicitOC_LH,2022.2.5,Win32,22.08578117,NA,NA,NA,NA,NA,NA,NA,NA,NA,NA,NA,NA,NA,NA,NA,NA,NA,NA,NA,NA,NA,NA,NA,NA,NA,NA,NA,NA,NA,NA,NA,11,0,11,0,1,NA,NA,NA,NA,NA,NA,NA,NA,NA,NA,NA,NA,NA,NA,NA,NA,NA,NA,NA,NA,NA,NA,NA
SUPAMT17915,3C8HJ7UOPDT8O67GBWW4UV2FF4GMZL,3FABF480-235F-4B9B-82AF-CBF9ADBCA1E3,2023-09-28_04h13.04.425,WP_VExplicitOC_LH,2022.2.5,Win32,22.08578117,NA,NA,2.0461,NA,NA,NA,NA,NA,bored,"bored, not bored","more bored, less bored",NA,NA,NA,NA,NA,NA,NA,NA,NA,NA,NA,NA,NA,NA,NA,0,0,0,2,1,NA,NA,NA,NA,NA,NA,NA,NA,NA,NA,NA,NA,NA,NA,NA,NA,NA,NA,NA,NA,NA,NA,NA,NA,NA,NA,NA,NA
SUPAMT17915,3C8HJ7UOPDT8O67GBWW4UV2FF4GMZL,3FABF480-235F-4B9B-82AF-CBF9ADBCA1E3,2023-09-28_04h13.04.425,WP_VExplicitOC_LH,2022.2.5,Win32,22.08578117,100,6.241,2.0368,NA,NA,NA,NA,NA,frustrated,"frustrated, not frustrated","more frustrated, less frustrated",NA,NA,NA,NA,NA,NA,NA,NA,NA,NA,NA,NA,NA,NA,NA,0,1,1,1,1,NA,NA,NA,NA,NA,NA,NA,NA,NA,NA,NA,NA,NA,NA,NA,NA,NA,NA,NA,NA,NA,NA,NA,NA,NA,NA,NA,NA
SUPAMT17915,3C8HJ7UOPDT8O67GBWW4UV2FF4GMZL,3FABF480-235F-4B9B-82AF-CBF9ADBCA1E3,2023-09-28_04h13.04.425,WP_VExplicitOC_LH,2022.2.5,Win32,22.08578117,NA,NA,2.0312,NA,NA,NA,NA,NA,happy,"unhappy, happy","less happy, more happy",NA,NA,NA,NA,NA,NA,NA,NA,NA,NA,NA,NA,NA,NA,NA,0,2,2,0,1,NA,NA,NA,NA,NA,NA,NA,NA,NA,NA,NA,NA,NA,NA,NA,NA,NA,NA,NA,NA,NA,NA,NA,NA,NA,NA,NA,NA
SUPAMT17915,3C8HJ7UOPDT8O67GBWW4UV2FF4GMZL,3FABF480-235F-4B9B-82AF-CBF9ADBCA1E3,2023-09-28_04h13.04.425,WP_VExplicitOC_LH,2022.2.5,Win32,22.08578117,NA,NA,NA,NA,NA,NA,NA,NA,NA,NA,NA,NA,NA,NA,NA,NA,NA,NA,NA,NA,NA,NA,NA,NA,NA,NA,NA,NA,NA,NA,NA,12,0,12,0,1,NA,NA,NA,NA,NA,NA,NA,NA,NA,NA,NA,NA,NA,NA,NA,NA,NA,NA,NA,NA,NA,NA,NA
SUPAMT17915,3C8HJ7UOPDT8O67GBWW4UV2FF4GMZL,3FABF480-235F-4B9B-82AF-CBF9ADBCA1E3,2023-09-28_04h13.04.425,WP_VExplicitOC_LH,2022.2.5,Win32,22.08578117,100,7.2687,2.0398,NA,NA,NA,NA,NA,frustrated,"frustrated, not frustrated","more frustrated, less frustrated",NA,NA,NA,NA,NA,NA,NA,NA,NA,NA,NA,NA,NA,NA,NA,0,0,0,1,1,NA,NA,NA,NA,NA,NA,NA,NA,NA,NA,NA,NA,NA,NA,NA,NA,NA,NA,NA,NA,NA,NA,NA,NA,NA,NA,NA,NA
SUPAMT17915,3C8HJ7UOPDT8O67GBWW4UV2FF4GMZL,3FABF480-235F-4B9B-82AF-CBF9ADBCA1E3,2023-09-28_04h13.04.425,WP_VExplicitOC_LH,2022.2.5,Win32,22.08578117,58.5,4.0338,2.0248,NA,NA,NA,NA,NA,bored,"bored, not bored","more bored, less bored",NA,NA,NA,NA,NA,NA,NA,NA,NA,NA,NA,NA,NA,NA,NA,0,1,1,2,1,NA,NA,NA,NA,NA,NA,NA,NA,NA,NA,NA,NA,NA,NA,NA,NA,NA,NA,NA,NA,NA,NA,NA,NA,NA,NA,NA,NA
SUPAMT17915,3C8HJ7UOPDT8O67GBWW4UV2FF4GMZL,3FABF480-235F-4B9B-82AF-CBF9ADBCA1E3,2023-09-28_04h13.04.425,WP_VExplicitOC_LH,2022.2.5,Win32,22.08578117,100,3.87,2.0186,NA,NA,NA,NA,NA,happy,"unhappy, happy","less happy, more happy",NA,NA,NA,NA,NA,NA,NA,NA,NA,NA,NA,NA,NA,NA,NA,0,2,2,0,1,NA,NA,NA,NA,NA,NA,NA,NA,NA,NA,NA,NA,NA,NA,NA,NA,NA,NA,NA,NA,NA,NA,NA,NA,NA,NA,NA,NA
SUPAMT17915,3C8HJ7UOPDT8O67GBWW4UV2FF4GMZL,3FABF480-235F-4B9B-82AF-CBF9ADBCA1E3,2023-09-28_04h13.04.425,WP_VExplicitOC_LH,2022.2.5,Win32,22.08578117,NA,NA,NA,NA,NA,NA,NA,NA,NA,NA,NA,NA,NA,NA,NA,NA,NA,NA,NA,NA,NA,NA,NA,NA,NA,NA,NA,NA,NA,NA,NA,13,0,13,0,1,NA,NA,NA,NA,NA,NA,NA,NA,NA,NA,NA,NA,NA,NA,NA,NA,NA,NA,NA,NA,NA,NA,NA
SUPAMT17915,3C8HJ7UOPDT8O67GBWW4UV2FF4GMZL,3FABF480-235F-4B9B-82AF-CBF9ADBCA1E3,2023-09-28_04h13.04.425,WP_VExplicitOC_LH,2022.2.5,Win32,22.08578117,100,4.3405,2.0568,NA,NA,NA,NA,NA,frustrated,"frustrated, not frustrated","more frustrated, less frustrated",NA,NA,NA,NA,NA,NA,NA,NA,NA,NA,NA,NA,NA,NA,NA,0,0,0,1,1,NA,NA,NA,NA,NA,NA,NA,NA,NA,NA,NA,NA,NA,NA,NA,NA,NA,NA,NA,NA,NA,NA,NA,NA,NA,NA,NA,NA
SUPAMT17915,3C8HJ7UOPDT8O67GBWW4UV2FF4GMZL,3FABF480-235F-4B9B-82AF-CBF9ADBCA1E3,2023-09-28_04h13.04.425,WP_VExplicitOC_LH,2022.2.5,Win32,22.08578117,100,4.0812,2.047,NA,NA,NA,NA,NA,bored,"bored, not bored","more bored, less bored",NA,NA,NA,NA,NA,NA,NA,NA,NA,NA,NA,NA,NA,NA,NA,0,1,1,2,1,NA,NA,NA,NA,NA,NA,NA,NA,NA,NA,NA,NA,NA,NA,NA,NA,NA,NA,NA,NA,NA,NA,NA,NA,NA,NA,NA,NA
SUPAMT17915,3C8HJ7UOPDT8O67GBWW4UV2FF4GMZL,3FABF480-235F-4B9B-82AF-CBF9ADBCA1E3,2023-09-28_04h13.04.425,WP_VExplicitOC_LH,2022.2.5,Win32,22.08578117,100,3.9202,2.0431,NA,NA,NA,NA,NA,happy,"unhappy, happy","less happy, more happy",NA,NA,NA,NA,NA,NA,NA,NA,NA,NA,NA,NA,NA,NA,NA,0,2,2,0,1,NA,NA,NA,NA,NA,NA,NA,NA,NA,NA,NA,NA,NA,NA,NA,NA,NA,NA,NA,NA,NA,NA,NA,NA,NA,NA,NA,NA
SUPAMT17915,3C8HJ7UOPDT8O67GBWW4UV2FF4GMZL,3FABF480-235F-4B9B-82AF-CBF9ADBCA1E3,2023-09-28_04h13.04.425,WP_VExplicitOC_LH,2022.2.5,Win32,22.08578117,NA,NA,NA,NA,NA,NA,NA,NA,NA,NA,NA,NA,NA,NA,NA,NA,NA,NA,NA,NA,NA,NA,NA,NA,NA,NA,NA,NA,NA,NA,NA,14,0,14,0,1,NA,NA,NA,NA,NA,NA,NA,NA,NA,NA,NA,NA,NA,NA,NA,NA,NA,NA,NA,NA,NA,NA,NA
SUPAMT17915,3C8HJ7UOPDT8O67GBWW4UV2FF4GMZL,3FABF480-235F-4B9B-82AF-CBF9ADBCA1E3,2023-09-28_04h13.04.425,WP_VExplicitOC_LH,2022.2.5,Win32,22.08578117,NA,NA,NA,NA,NA,NA,NA,NA,NA,NA,NA,NA,NA,NA,NA,NA,NA,NA,NA,NA,NA,NA,NA,NA,NA,NA,NA,NA,NA,NA,NA,NA,NA,NA,NA,NA,NA,NA,NA,NA,NA,NA,NA,NA,NA,NA,NA,NA,NA,NA,NA,NA,NA,NA,NA,NA,NA,NA,NA
SUPAMT17915,3C8HJ7UOPDT8O67GBWW4UV2FF4GMZL,3FABF480-235F-4B9B-82AF-CBF9ADBCA1E3,2023-09-28_04h13.04.425,WP_VExplicitOC_LH,2022.2.5,Win32,22.08578117,NA,NA,NA,NA,NA,NA,NA,NA,NA,NA,NA,NA,NA,NA,NA,NA,NA,NA,NA,NA,NA,NA,NA,NA,NA,NA,NA,NA,NA,NA,NA,NA,NA,NA,NA,NA,NA,NA,NA,NA,NA,NA,NA,NA,NA,NA,NA,NA,NA,NA,NA,NA,NA,NA,NA,NA,NA,NA,NA
SUPAMT17915,3C8HJ7UOPDT8O67GBWW4UV2FF4GMZL,3FABF480-235F-4B9B-82AF-CBF9ADBCA1E3,2023-09-28_04h13.04.425,WP_VExplicitOC_LH,2022.2.5,Win32,22.08578117,NA,NA,NA,NA,NA,NA,NA,NA,NA,NA,NA,NA,NA,NA,NA,NA,NA,NA,rest (looking at a fixed cross),001.png,NA,NA,NA,NA,NA,NA,NA,NA,NA,NA,NA,NA,NA,NA,NA,NA,100,2.0455,0,0,0,0,1,NA,NA,NA,NA,NA,NA,NA,NA,NA,NA,NA,NA,NA,NA,NA,NA
SUPAMT17915,3C8HJ7UOPDT8O67GBWW4UV2FF4GMZL,3FABF480-235F-4B9B-82AF-CBF9ADBCA1E3,2023-09-28_04h13.04.425,WP_VExplicitOC_LH,2022.2.5,Win32,22.08578117,NA,NA,NA,NA,NA,NA,NA,NA,NA,NA,NA,NA,NA,NA,NA,NA,NA,NA,stand up,002.png,NA,NA,NA,NA,NA,NA,NA,NA,NA,NA,NA,NA,NA,NA,NA,NA,100,2.9504,0,1,1,1,1,NA,NA,NA,NA,NA,NA,NA,NA,NA,NA,NA,NA,NA,NA,NA,NA
SUPAMT17915,3C8HJ7UOPDT8O67GBWW4UV2FF4GMZL,3FABF480-235F-4B9B-82AF-CBF9ADBCA1E3,2023-09-28_04h13.04.425,WP_VExplicitOC_LH,2022.2.5,Win32,22.08578117,NA,NA,NA,NA,NA,NA,NA,NA,NA,NA,NA,NA,NA,NA,NA,NA,NA,NA,stretch,003.png,NA,NA,NA,NA,NA,NA,NA,NA,NA,NA,NA,NA,NA,NA,NA,NA,96.75,2.2585,0,2,2,2,1,NA,NA,NA,NA,NA,NA,NA,NA,NA,NA,NA,NA,NA,NA,NA,NA
SUPAMT17915,3C8HJ7UOPDT8O67GBWW4UV2FF4GMZL,3FABF480-235F-4B9B-82AF-CBF9ADBCA1E3,2023-09-28_04h13.04.425,WP_VExplicitOC_LH,2022.2.5,Win32,22.08578117,NA,NA,NA,NA,NA,NA,NA,NA,NA,NA,NA,NA,NA,NA,NA,NA,NA,NA,make a drink,004.png,NA,NA,NA,NA,NA,NA,NA,NA,NA,NA,NA,NA,NA,NA,NA,NA,96.25,2.2064,0,3,3,3,1,NA,NA,NA,NA,NA,NA,NA,NA,NA,NA,NA,NA,NA,NA,NA,NA
SUPAMT17915,3C8HJ7UOPDT8O67GBWW4UV2FF4GMZL,3FABF480-235F-4B9B-82AF-CBF9ADBCA1E3,2023-09-28_04h13.04.425,WP_VExplicitOC_LH,2022.2.5,Win32,22.08578117,NA,NA,NA,NA,NA,NA,NA,NA,NA,NA,NA,NA,NA,NA,NA,NA,NA,NA,scroll social media,005.png,NA,NA,NA,NA,NA,NA,NA,NA,NA,NA,NA,NA,NA,NA,NA,NA,100,2.3008,0,4,4,4,1,NA,NA,NA,NA,NA,NA,NA,NA,NA,NA,NA,NA,NA,NA,NA,NA
SUPAMT17915,3C8HJ7UOPDT8O67GBWW4UV2FF4GMZL,3FABF480-235F-4B9B-82AF-CBF9ADBCA1E3,2023-09-28_04h13.04.425,WP_VExplicitOC_LH,2022.2.5,Win32,22.08578117,NA,NA,NA,NA,NA,NA,NA,NA,NA,NA,NA,NA,NA,NA,NA,NA,NA,NA,listen to music,006.png,NA,NA,NA,NA,NA,NA,NA,NA,NA,NA,NA,NA,NA,NA,NA,NA,100,1.7869,0,5,5,5,1,NA,NA,NA,NA,NA,NA,NA,NA,NA,NA,NA,NA,NA,NA,NA,NA
SUPAMT17915,3C8HJ7UOPDT8O67GBWW4UV2FF4GMZL,3FABF480-235F-4B9B-82AF-CBF9ADBCA1E3,2023-09-28_04h13.04.425,WP_VExplicitOC_LH,2022.2.5,Win32,22.08578117,NA,NA,NA,NA,NA,NA,NA,NA,NA,NA,NA,NA,NA,NA,NA,NA,NA,NA,daydream,007.png,NA,NA,NA,NA,NA,NA,NA,NA,NA,NA,NA,NA,NA,NA,NA,NA,100,2.1652,0,6,6,6,1,NA,NA,NA,NA,NA,NA,NA,NA,NA,NA,NA,NA,NA,NA,NA,NA
SUPAMT17915,3C8HJ7UOPDT8O67GBWW4UV2FF4GMZL,3FABF480-235F-4B9B-82AF-CBF9ADBCA1E3,2023-09-28_04h13.04.425,WP_VExplicitOC_LH,2022.2.5,Win32,22.08578117,NA,NA,NA,NA,NA,NA,NA,NA,NA,NA,NA,NA,NA,NA,NA,NA,NA,NA,watch a short animation,008.png,NA,NA,NA,NA,NA,NA,NA,NA,NA,NA,NA,NA,NA,NA,NA,NA,100,1.7486,0,7,7,7,1,NA,NA,NA,NA,NA,NA,NA,NA,NA,NA,NA,NA,NA,NA,NA,NA
SUPAMT17915,3C8HJ7UOPDT8O67GBWW4UV2FF4GMZL,3FABF480-235F-4B9B-82AF-CBF9ADBCA1E3,2023-09-28_04h13.04.425,WP_VExplicitOC_LH,2022.2.5,Win32,22.08578117,NA,NA,NA,NA,NA,NA,NA,NA,NA,NA,NA,NA,NA,NA,NA,NA,NA,NA,read a novel,009.png,NA,NA,NA,NA,NA,NA,NA,NA,NA,NA,NA,NA,NA,NA,NA,NA,100,1.8709,0,8,8,8,1,NA,NA,NA,NA,NA,NA,NA,NA,NA,NA,NA,NA,NA,NA,NA,NA
SUPAMT17915,3C8HJ7UOPDT8O67GBWW4UV2FF4GMZL,3FABF480-235F-4B9B-82AF-CBF9ADBCA1E3,2023-09-28_04h13.04.425,WP_VExplicitOC_LH,2022.2.5,Win32,22.08578117,NA,NA,NA,NA,NA,NA,NA,NA,NA,NA,NA,NA,NA,NA,NA,NA,NA,NA,read the news,010.png,NA,NA,NA,NA,NA,NA,NA,NA,NA,NA,NA,NA,NA,NA,NA,NA,100,2.0463,0,9,9,9,1,NA,NA,NA,NA,NA,NA,NA,NA,NA,NA,NA,NA,NA,NA,NA,NA
SUPAMT17915,3C8HJ7UOPDT8O67GBWW4UV2FF4GMZL,3FABF480-235F-4B9B-82AF-CBF9ADBCA1E3,2023-09-28_04h13.04.425,WP_VExplicitOC_LH,2022.2.5,Win32,22.08578117,NA,NA,NA,NA,NA,NA,NA,NA,NA,NA,NA,NA,NA,NA,NA,NA,NA,NA,NA,NA,NA,NA,NA,NA,NA,NA,NA,NA,NA,NA,NA,NA,NA,NA,NA,NA,NA,NA,NA,NA,NA,NA,NA,stand up,NA,NA,NA,NA,NA,NA,NA,NA,NA,NA,NA,NA,NA,NA,NA
SUPAMT17915,3C8HJ7UOPDT8O67GBWW4UV2FF4GMZL,3FABF480-235F-4B9B-82AF-CBF9ADBCA1E3,2023-09-28_04h13.04.425,WP_VExplicitOC_LH,2022.2.5,Win32,22.08578117,100,4.2152,2.0456,NA,NA,NA,NA,NA,frustrated,"frustrated, not frustrated","more frustrated, less frustrated",NA,NA,NA,NA,NA,NA,NA,NA,NA,NA,NA,NA,NA,NA,NA,NA,NA,NA,NA,NA,NA,NA,NA,NA,NA,NA,NA,NA,NA,NA,NA,NA,NA,0,0,0,1,1,NA,NA,NA,NA,NA,NA,NA,NA,NA,NA
SUPAMT17915,3C8HJ7UOPDT8O67GBWW4UV2FF4GMZL,3FABF480-235F-4B9B-82AF-CBF9ADBCA1E3,2023-09-28_04h13.04.425,WP_VExplicitOC_LH,2022.2.5,Win32,22.08578117,100,3.8128,2.0743,NA,NA,NA,NA,NA,bored,"bored, not bored","more bored, less bored",NA,NA,NA,NA,NA,NA,NA,NA,NA,NA,NA,NA,NA,NA,NA,NA,NA,NA,NA,NA,NA,NA,NA,NA,NA,NA,NA,NA,NA,NA,NA,NA,NA,0,1,1,2,1,NA,NA,NA,NA,NA,NA,NA,NA,NA,NA
SUPAMT17915,3C8HJ7UOPDT8O67GBWW4UV2FF4GMZL,3FABF480-235F-4B9B-82AF-CBF9ADBCA1E3,2023-09-28_04h13.04.425,WP_VExplicitOC_LH,2022.2.5,Win32,22.08578117,100,3.7462,2.0143,NA,NA,NA,NA,NA,happy,"unhappy, happy","less happy, more happy",NA,NA,NA,NA,NA,NA,NA,NA,NA,NA,NA,NA,NA,NA,NA,NA,NA,NA,NA,NA,NA,NA,NA,NA,NA,NA,NA,NA,NA,NA,NA,NA,NA,0,2,2,0,1,NA,NA,NA,NA,NA,NA,NA,NA,NA,NA
SUPAMT17915,3C8HJ7UOPDT8O67GBWW4UV2FF4GMZL,3FABF480-235F-4B9B-82AF-CBF9ADBCA1E3,2023-09-28_04h13.04.425,WP_VExplicitOC_LH,2022.2.5,Win32,22.08578117,NA,NA,NA,NA,NA,NA,NA,NA,NA,NA,NA,NA,NA,NA,NA,NA,NA,NA,NA,NA,NA,NA,NA,NA,NA,NA,NA,NA,NA,NA,NA,NA,NA,NA,NA,NA,NA,NA,NA,NA,NA,NA,NA,NA,NA,NA,NA,NA,NA,NA,NA,NA,NA,NA,NA,NA,NA,NA,NA
SUPAMT17915,3C8HJ7UOPDT8O67GBWW4UV2FF4GMZL,3FABF480-235F-4B9B-82AF-CBF9ADBCA1E3,2023-09-28_04h13.04.425,WP_VExplicitOC_LH,2022.2.5,Win32,22.08578117,NA,NA,NA,NA,NA,NA,NA,NA,NA,NA,NA,NA,NA,NA,NA,NA,NA,NA,NA,NA,NA,NA,NA,NA,NA,NA,NA,NA,NA,NA,NA,NA,NA,NA,NA,NA,NA,NA,NA,NA,NA,NA,NA,NA,NA,NA,NA,NA,NA,NA,NA,NA,NA,NA,NA,NA,NA,NA,NA
SUPAMT17915,3C8HJ7UOPDT8O67GBWW4UV2FF4GMZL,3FABF480-235F-4B9B-82AF-CBF9ADBCA1E3,2023-09-28_04h13.04.425,WP_VExplicitOC_LH,2022.2.5,Win32,22.08578117,100,3.9685,2.0344,NA,NA,NA,NA,NA,bored,"bored, not bored","more bored, less bored",NA,NA,NA,NA,NA,NA,NA,NA,NA,NA,NA,NA,NA,NA,NA,NA,NA,NA,NA,NA,NA,NA,NA,NA,NA,NA,NA,NA,NA,NA,NA,NA,NA,NA,NA,NA,NA,NA,0,0,0,2,1,NA,NA,NA,NA,NA
SUPAMT17915,3C8HJ7UOPDT8O67GBWW4UV2FF4GMZL,3FABF480-235F-4B9B-82AF-CBF9ADBCA1E3,2023-09-28_04h13.04.425,WP_VExplicitOC_LH,2022.2.5,Win32,22.08578117,100,3.4921,2.0306,NA,NA,NA,NA,NA,happy,"unhappy, happy","less happy, more happy",NA,NA,NA,NA,NA,NA,NA,NA,NA,NA,NA,NA,NA,NA,NA,NA,NA,NA,NA,NA,NA,NA,NA,NA,NA,NA,NA,NA,NA,NA,NA,NA,NA,NA,NA,NA,NA,NA,0,1,1,0,1,NA,NA,NA,NA,NA
SUPAMT17915,3C8HJ7UOPDT8O67GBWW4UV2FF4GMZL,3FABF480-235F-4B9B-82AF-CBF9ADBCA1E3,2023-09-28_04h13.04.425,WP_VExplicitOC_LH,2022.2.5,Win32,22.08578117,100,3.3684,2.0356,NA,NA,NA,NA,NA,frustrated,"frustrated, not frustrated","more frustrated, less frustrated",NA,NA,NA,NA,NA,NA,NA,NA,NA,NA,NA,NA,NA,NA,NA,NA,NA,NA,NA,NA,NA,NA,NA,NA,NA,NA,NA,NA,NA,NA,NA,NA,NA,NA,NA,NA,NA,NA,0,2,2,1,1,NA,NA,NA,NA,NA
SUPAMT17915,3C8HJ7UOPDT8O67GBWW4UV2FF4GMZL,3FABF480-235F-4B9B-82AF-CBF9ADBCA1E3,2023-09-28_04h13.04.425,WP_VExplicitOC_LH,2022.2.5,Win32,22.08578117,NA,NA,NA,NA,NA,NA,NA,NA,NA,NA,NA,NA,NA,NA,NA,NA,NA,NA,NA,NA,NA,NA,NA,NA,NA,NA,NA,NA,NA,NA,NA,NA,NA,NA,NA,NA,NA,NA,NA,NA,NA,NA,NA,NA,NA,NA,NA,NA,NA,NA,NA,NA,NA,NA,0,0,0,0,1
SUPAMT17915,3C8HJ7UOPDT8O67GBWW4UV2FF4GMZL,3FABF480-235F-4B9B-82AF-CBF9ADBCA1E3,2023-09-28_04h13.04.425,WP_VExplicitOC_LH,2022.2.5,Win32,22.08578117,100,5.1383,2.0339,NA,NA,NA,NA,NA,bored,"bored, not bored","more bored, less bored",NA,NA,NA,NA,NA,NA,NA,NA,NA,NA,NA,NA,NA,NA,NA,NA,NA,NA,NA,NA,NA,NA,NA,NA,NA,NA,NA,NA,NA,NA,NA,NA,NA,NA,NA,NA,NA,NA,0,0,0,2,1,NA,NA,NA,NA,NA
SUPAMT17915,3C8HJ7UOPDT8O67GBWW4UV2FF4GMZL,3FABF480-235F-4B9B-82AF-CBF9ADBCA1E3,2023-09-28_04h13.04.425,WP_VExplicitOC_LH,2022.2.5,Win32,22.08578117,100,4.8372,2.0216,NA,NA,NA,NA,NA,happy,"unhappy, happy","less happy, more happy",NA,NA,NA,NA,NA,NA,NA,NA,NA,NA,NA,NA,NA,NA,NA,NA,NA,NA,NA,NA,NA,NA,NA,NA,NA,NA,NA,NA,NA,NA,NA,NA,NA,NA,NA,NA,NA,NA,0,1,1,0,1,NA,NA,NA,NA,NA
SUPAMT17915,3C8HJ7UOPDT8O67GBWW4UV2FF4GMZL,3FABF480-235F-4B9B-82AF-CBF9ADBCA1E3,2023-09-28_04h13.04.425,WP_VExplicitOC_LH,2022.2.5,Win32,22.08578117,100,4.2419,2.0097,NA,NA,NA,NA,NA,frustrated,"frustrated, not frustrated","more frustrated, less frustrated",NA,NA,NA,NA,NA,NA,NA,NA,NA,NA,NA,NA,NA,NA,NA,NA,NA,NA,NA,NA,NA,NA,NA,NA,NA,NA,NA,NA,NA,NA,NA,NA,NA,NA,NA,NA,NA,NA,0,2,2,1,1,NA,NA,NA,NA,NA
SUPAMT17915,3C8HJ7UOPDT8O67GBWW4UV2FF4GMZL,3FABF480-235F-4B9B-82AF-CBF9ADBCA1E3,2023-09-28_04h13.04.425,WP_VExplicitOC_LH,2022.2.5,Win32,22.08578117,NA,NA,NA,NA,NA,NA,NA,NA,NA,NA,NA,NA,NA,NA,NA,NA,NA,NA,NA,NA,NA,NA,NA,NA,NA,NA,NA,NA,NA,NA,NA,NA,NA,NA,NA,NA,NA,NA,NA,NA,NA,NA,NA,NA,NA,NA,NA,NA,NA,NA,NA,NA,NA,NA,1,0,1,0,1
SUPAMT17915,3C8HJ7UOPDT8O67GBWW4UV2FF4GMZL,3FABF480-235F-4B9B-82AF-CBF9ADBCA1E3,2023-09-28_04h13.04.425,WP_VExplicitOC_LH,2022.2.5,Win32,22.08578117,100,4.1521,2.0086,NA,NA,NA,NA,NA,frustrated,"frustrated, not frustrated","more frustrated, less frustrated",NA,NA,NA,NA,NA,NA,NA,NA,NA,NA,NA,NA,NA,NA,NA,NA,NA,NA,NA,NA,NA,NA,NA,NA,NA,NA,NA,NA,NA,NA,NA,NA,NA,NA,NA,NA,NA,NA,0,0,0,1,1,NA,NA,NA,NA,NA
SUPAMT17915,3C8HJ7UOPDT8O67GBWW4UV2FF4GMZL,3FABF480-235F-4B9B-82AF-CBF9ADBCA1E3,2023-09-28_04h13.04.425,WP_VExplicitOC_LH,2022.2.5,Win32,22.08578117,100,4.353,2.0148,NA,NA,NA,NA,NA,bored,"bored, not bored","more bored, less bored",NA,NA,NA,NA,NA,NA,NA,NA,NA,NA,NA,NA,NA,NA,NA,NA,NA,NA,NA,NA,NA,NA,NA,NA,NA,NA,NA,NA,NA,NA,NA,NA,NA,NA,NA,NA,NA,NA,0,1,1,2,1,NA,NA,NA,NA,NA
SUPAMT17915,3C8HJ7UOPDT8O67GBWW4UV2FF4GMZL,3FABF480-235F-4B9B-82AF-CBF9ADBCA1E3,2023-09-28_04h13.04.425,WP_VExplicitOC_LH,2022.2.5,Win32,22.08578117,100,4.5904,2.0721,NA,NA,NA,NA,NA,happy,"unhappy, happy","less happy, more happy",NA,NA,NA,NA,NA,NA,NA,NA,NA,NA,NA,NA,NA,NA,NA,NA,NA,NA,NA,NA,NA,NA,NA,NA,NA,NA,NA,NA,NA,NA,NA,NA,NA,NA,NA,NA,NA,NA,0,2,2,0,1,NA,NA,NA,NA,NA
SUPAMT17915,3C8HJ7UOPDT8O67GBWW4UV2FF4GMZL,3FABF480-235F-4B9B-82AF-CBF9ADBCA1E3,2023-09-28_04h13.04.425,WP_VExplicitOC_LH,2022.2.5,Win32,22.08578117,NA,NA,NA,NA,NA,NA,NA,NA,NA,NA,NA,NA,NA,NA,NA,NA,NA,NA,NA,NA,NA,NA,NA,NA,NA,NA,NA,NA,NA,NA,NA,NA,NA,NA,NA,NA,NA,NA,NA,NA,NA,NA,NA,NA,NA,NA,NA,NA,NA,NA,NA,NA,NA,NA,2,0,2,0,1
SUPAMT17915,3C8HJ7UOPDT8O67GBWW4UV2FF4GMZL,3FABF480-235F-4B9B-82AF-CBF9ADBCA1E3,2023-09-28_04h13.04.425,WP_VExplicitOC_LH,2022.2.5,Win32,22.08578117,100,4.2588,2.0297,NA,NA,NA,NA,NA,bored,"bored, not bored","more bored, less bored",NA,NA,NA,NA,NA,NA,NA,NA,NA,NA,NA,NA,NA,NA,NA,NA,NA,NA,NA,NA,NA,NA,NA,NA,NA,NA,NA,NA,NA,NA,NA,NA,NA,NA,NA,NA,NA,NA,0,0,0,2,1,NA,NA,NA,NA,NA
SUPAMT17915,3C8HJ7UOPDT8O67GBWW4UV2FF4GMZL,3FABF480-235F-4B9B-82AF-CBF9ADBCA1E3,2023-09-28_04h13.04.425,WP_VExplicitOC_LH,2022.2.5,Win32,22.08578117,100,4.0953,2.015,NA,NA,NA,NA,NA,happy,"unhappy, happy","less happy, more happy",NA,NA,NA,NA,NA,NA,NA,NA,NA,NA,NA,NA,NA,NA,NA,NA,NA,NA,NA,NA,NA,NA,NA,NA,NA,NA,NA,NA,NA,NA,NA,NA,NA,NA,NA,NA,NA,NA,0,1,1,0,1,NA,NA,NA,NA,NA
SUPAMT17915,3C8HJ7UOPDT8O67GBWW4UV2FF4GMZL,3FABF480-235F-4B9B-82AF-CBF9ADBCA1E3,2023-09-28_04h13.04.425,WP_VExplicitOC_LH,2022.2.5,Win32,22.08578117,100,4.2158,2.0285,NA,NA,NA,NA,NA,frustrated,"frustrated, not frustrated","more frustrated, less frustrated",NA,NA,NA,NA,NA,NA,NA,NA,NA,NA,NA,NA,NA,NA,NA,NA,NA,NA,NA,NA,NA,NA,NA,NA,NA,NA,NA,NA,NA,NA,NA,NA,NA,NA,NA,NA,NA,NA,0,2,2,1,1,NA,NA,NA,NA,NA
SUPAMT17915,3C8HJ7UOPDT8O67GBWW4UV2FF4GMZL,3FABF480-235F-4B9B-82AF-CBF9ADBCA1E3,2023-09-28_04h13.04.425,WP_VExplicitOC_LH,2022.2.5,Win32,22.08578117,NA,NA,NA,NA,NA,NA,NA,NA,NA,NA,NA,NA,NA,NA,NA,NA,NA,NA,NA,NA,NA,NA,NA,NA,NA,NA,NA,NA,NA,NA,NA,NA,NA,NA,NA,NA,NA,NA,NA,NA,NA,NA,NA,NA,NA,NA,NA,NA,NA,NA,NA,NA,NA,NA,3,0,3,0,1
SUPAMT17915,3C8HJ7UOPDT8O67GBWW4UV2FF4GMZL,3FABF480-235F-4B9B-82AF-CBF9ADBCA1E3,2023-09-28_04h13.04.425,WP_VExplicitOC_LH,2022.2.5,Win32,22.08578117,100,4.3416,2.0293,NA,NA,NA,NA,NA,frustrated,"frustrated, not frustrated","more frustrated, less frustrated",NA,NA,NA,NA,NA,NA,NA,NA,NA,NA,NA,NA,NA,NA,NA,NA,NA,NA,NA,NA,NA,NA,NA,NA,NA,NA,NA,NA,NA,NA,NA,NA,NA,NA,NA,NA,NA,NA,0,0,0,1,1,NA,NA,NA,NA,NA
SUPAMT17915,3C8HJ7UOPDT8O67GBWW4UV2FF4GMZL,3FABF480-235F-4B9B-82AF-CBF9ADBCA1E3,2023-09-28_04h13.04.425,WP_VExplicitOC_LH,2022.2.5,Win32,22.08578117,96.5,3.6872,2.0414,NA,NA,NA,NA,NA,bored,"bored, not bored","more bored, less bored",NA,NA,NA,NA,NA,NA,NA,NA,NA,NA,NA,NA,NA,NA,NA,NA,NA,NA,NA,NA,NA,NA,NA,NA,NA,NA,NA,NA,NA,NA,NA,NA,NA,NA,NA,NA,NA,NA,0,1,1,2,1,NA,NA,NA,NA,NA
SUPAMT17915,3C8HJ7UOPDT8O67GBWW4UV2FF4GMZL,3FABF480-235F-4B9B-82AF-CBF9ADBCA1E3,2023-09-28_04h13.04.425,WP_VExplicitOC_LH,2022.2.5,Win32,22.08578117,100,3.9342,2.0509,NA,NA,NA,NA,NA,happy,"unhappy, happy","less happy, more happy",NA,NA,NA,NA,NA,NA,NA,NA,NA,NA,NA,NA,NA,NA,NA,NA,NA,NA,NA,NA,NA,NA,NA,NA,NA,NA,NA,NA,NA,NA,NA,NA,NA,NA,NA,NA,NA,NA,0,2,2,0,1,NA,NA,NA,NA,NA
SUPAMT17915,3C8HJ7UOPDT8O67GBWW4UV2FF4GMZL,3FABF480-235F-4B9B-82AF-CBF9ADBCA1E3,2023-09-28_04h13.04.425,WP_VExplicitOC_LH,2022.2.5,Win32,22.08578117,NA,NA,NA,NA,NA,NA,NA,NA,NA,NA,NA,NA,NA,NA,NA,NA,NA,NA,NA,NA,NA,NA,NA,NA,NA,NA,NA,NA,NA,NA,NA,NA,NA,NA,NA,NA,NA,NA,NA,NA,NA,NA,NA,NA,NA,NA,NA,NA,NA,NA,NA,NA,NA,NA,4,0,4,0,1
SUPAMT17915,3C8HJ7UOPDT8O67GBWW4UV2FF4GMZL,3FABF480-235F-4B9B-82AF-CBF9ADBCA1E3,2023-09-28_04h13.04.425,WP_VExplicitOC_LH,2022.2.5,Win32,22.08578117,93.75,3.6345,2.0087,NA,NA,NA,NA,NA,happy,"unhappy, happy","less happy, more happy",NA,NA,NA,NA,NA,NA,NA,NA,NA,NA,NA,NA,NA,NA,NA,NA,NA,NA,NA,NA,NA,NA,NA,NA,NA,NA,NA,NA,NA,NA,NA,NA,NA,NA,NA,NA,NA,NA,0,0,0,0,1,NA,NA,NA,NA,NA
SUPAMT17915,3C8HJ7UOPDT8O67GBWW4UV2FF4GMZL,3FABF480-235F-4B9B-82AF-CBF9ADBCA1E3,2023-09-28_04h13.04.425,WP_VExplicitOC_LH,2022.2.5,Win32,22.08578117,100,5.1318,2.0153,NA,NA,NA,NA,NA,frustrated,"frustrated, not frustrated","more frustrated, less frustrated",NA,NA,NA,NA,NA,NA,NA,NA,NA,NA,NA,NA,NA,NA,NA,NA,NA,NA,NA,NA,NA,NA,NA,NA,NA,NA,NA,NA,NA,NA,NA,NA,NA,NA,NA,NA,NA,NA,0,1,1,1,1,NA,NA,NA,NA,NA
SUPAMT17915,3C8HJ7UOPDT8O67GBWW4UV2FF4GMZL,3FABF480-235F-4B9B-82AF-CBF9ADBCA1E3,2023-09-28_04h13.04.425,WP_VExplicitOC_LH,2022.2.5,Win32,22.08578117,NA,NA,2.0674,NA,NA,NA,NA,NA,bored,"bored, not bored","more bored, less bored",NA,NA,NA,NA,NA,NA,NA,NA,NA,NA,NA,NA,NA,NA,NA,NA,NA,NA,NA,NA,NA,NA,NA,NA,NA,NA,NA,NA,NA,NA,NA,NA,NA,NA,NA,NA,NA,NA,0,2,2,2,1,NA,NA,NA,NA,NA
SUPAMT17915,3C8HJ7UOPDT8O67GBWW4UV2FF4GMZL,3FABF480-235F-4B9B-82AF-CBF9ADBCA1E3,2023-09-28_04h13.04.425,WP_VExplicitOC_LH,2022.2.5,Win32,22.08578117,NA,NA,NA,NA,NA,NA,NA,NA,NA,NA,NA,NA,NA,NA,NA,NA,NA,NA,NA,NA,NA,NA,NA,NA,NA,NA,NA,NA,NA,NA,NA,NA,NA,NA,NA,NA,NA,NA,NA,NA,NA,NA,NA,NA,NA,NA,NA,NA,NA,NA,NA,NA,NA,NA,5,0,5,0,1
SUPAMT17915,3C8HJ7UOPDT8O67GBWW4UV2FF4GMZL,3FABF480-235F-4B9B-82AF-CBF9ADBCA1E3,2023-09-28_04h13.04.425,WP_VExplicitOC_LH,2022.2.5,Win32,22.08578117,100,4.7715,2.023,NA,NA,NA,NA,NA,frustrated,"frustrated, not frustrated","more frustrated, less frustrated",NA,NA,NA,NA,NA,NA,NA,NA,NA,NA,NA,NA,NA,NA,NA,NA,NA,NA,NA,NA,NA,NA,NA,NA,NA,NA,NA,NA,NA,NA,NA,NA,NA,NA,NA,NA,NA,NA,0,0,0,1,1,NA,NA,NA,NA,NA
SUPAMT17915,3C8HJ7UOPDT8O67GBWW4UV2FF4GMZL,3FABF480-235F-4B9B-82AF-CBF9ADBCA1E3,2023-09-28_04h13.04.425,WP_VExplicitOC_LH,2022.2.5,Win32,22.08578117,100,4.623,2.0448,NA,NA,NA,NA,NA,happy,"unhappy, happy","less happy, more happy",NA,NA,NA,NA,NA,NA,NA,NA,NA,NA,NA,NA,NA,NA,NA,NA,NA,NA,NA,NA,NA,NA,NA,NA,NA,NA,NA,NA,NA,NA,NA,NA,NA,NA,NA,NA,NA,NA,0,1,1,0,1,NA,NA,NA,NA,NA
SUPAMT17915,3C8HJ7UOPDT8O67GBWW4UV2FF4GMZL,3FABF480-235F-4B9B-82AF-CBF9ADBCA1E3,2023-09-28_04h13.04.425,WP_VExplicitOC_LH,2022.2.5,Win32,22.08578117,100,4.015,2.0258,NA,NA,NA,NA,NA,bored,"bored, not bored","more bored, less bored",NA,NA,NA,NA,NA,NA,NA,NA,NA,NA,NA,NA,NA,NA,NA,NA,NA,NA,NA,NA,NA,NA,NA,NA,NA,NA,NA,NA,NA,NA,NA,NA,NA,NA,NA,NA,NA,NA,0,2,2,2,1,NA,NA,NA,NA,NA
SUPAMT17915,3C8HJ7UOPDT8O67GBWW4UV2FF4GMZL,3FABF480-235F-4B9B-82AF-CBF9ADBCA1E3,2023-09-28_04h13.04.425,WP_VExplicitOC_LH,2022.2.5,Win32,22.08578117,NA,NA,NA,NA,NA,NA,NA,NA,NA,NA,NA,NA,NA,NA,NA,NA,NA,NA,NA,NA,NA,NA,NA,NA,NA,NA,NA,NA,NA,NA,NA,NA,NA,NA,NA,NA,NA,NA,NA,NA,NA,NA,NA,NA,NA,NA,NA,NA,NA,NA,NA,NA,NA,NA,6,0,6,0,1
SUPAMT17915,3C8HJ7UOPDT8O67GBWW4UV2FF4GMZL,3FABF480-235F-4B9B-82AF-CBF9ADBCA1E3,2023-09-28_04h13.04.425,WP_VExplicitOC_LH,2022.2.5,Win32,22.08578117,100,4.4207,2.0736,NA,NA,NA,NA,NA,bored,"bored, not bored","more bored, less bored",NA,NA,NA,NA,NA,NA,NA,NA,NA,NA,NA,NA,NA,NA,NA,NA,NA,NA,NA,NA,NA,NA,NA,NA,NA,NA,NA,NA,NA,NA,NA,NA,NA,NA,NA,NA,NA,NA,0,0,0,2,1,NA,NA,NA,NA,NA
SUPAMT17915,3C8HJ7UOPDT8O67GBWW4UV2FF4GMZL,3FABF480-235F-4B9B-82AF-CBF9ADBCA1E3,2023-09-28_04h13.04.425,WP_VExplicitOC_LH,2022.2.5,Win32,22.08578117,100,3.8748,2.0152,NA,NA,NA,NA,NA,happy,"unhappy, happy","less happy, more happy",NA,NA,NA,NA,NA,NA,NA,NA,NA,NA,NA,NA,NA,NA,NA,NA,NA,NA,NA,NA,NA,NA,NA,NA,NA,NA,NA,NA,NA,NA,NA,NA,NA,NA,NA,NA,NA,NA,0,1,1,0,1,NA,NA,NA,NA,NA
SUPAMT17915,3C8HJ7UOPDT8O67GBWW4UV2FF4GMZL,3FABF480-235F-4B9B-82AF-CBF9ADBCA1E3,2023-09-28_04h13.04.425,WP_VExplicitOC_LH,2022.2.5,Win32,22.08578117,100,3.903,2.0049,NA,NA,NA,NA,NA,frustrated,"frustrated, not frustrated","more frustrated, less frustrated",NA,NA,NA,NA,NA,NA,NA,NA,NA,NA,NA,NA,NA,NA,NA,NA,NA,NA,NA,NA,NA,NA,NA,NA,NA,NA,NA,NA,NA,NA,NA,NA,NA,NA,NA,NA,NA,NA,0,2,2,1,1,NA,NA,NA,NA,NA
SUPAMT17915,3C8HJ7UOPDT8O67GBWW4UV2FF4GMZL,3FABF480-235F-4B9B-82AF-CBF9ADBCA1E3,2023-09-28_04h13.04.425,WP_VExplicitOC_LH,2022.2.5,Win32,22.08578117,NA,NA,NA,NA,NA,NA,NA,NA,NA,NA,NA,NA,NA,NA,NA,NA,NA,NA,NA,NA,NA,NA,NA,NA,NA,NA,NA,NA,NA,NA,NA,NA,NA,NA,NA,NA,NA,NA,NA,NA,NA,NA,NA,NA,NA,NA,NA,NA,NA,NA,NA,NA,NA,NA,7,0,7,0,1
SUPAMT17915,3C8HJ7UOPDT8O67GBWW4UV2FF4GMZL,3FABF480-235F-4B9B-82AF-CBF9ADBCA1E3,2023-09-28_04h13.04.425,WP_VExplicitOC_LH,2022.2.5,Win32,22.08578117,100,3.9472,2.0522,NA,NA,NA,NA,NA,bored,"bored, not bored","more bored, less bored",NA,NA,NA,NA,NA,NA,NA,NA,NA,NA,NA,NA,NA,NA,NA,NA,NA,NA,NA,NA,NA,NA,NA,NA,NA,NA,NA,NA,NA,NA,NA,NA,NA,NA,NA,NA,NA,NA,0,0,0,2,1,NA,NA,NA,NA,NA
SUPAMT17915,3C8HJ7UOPDT8O67GBWW4UV2FF4GMZL,3FABF480-235F-4B9B-82AF-CBF9ADBCA1E3,2023-09-28_04h13.04.425,WP_VExplicitOC_LH,2022.2.5,Win32,22.08578117,100,4.8669,2.0069,NA,NA,NA,NA,NA,happy,"unhappy, happy","less happy, more happy",NA,NA,NA,NA,NA,NA,NA,NA,NA,NA,NA,NA,NA,NA,NA,NA,NA,NA,NA,NA,NA,NA,NA,NA,NA,NA,NA,NA,NA,NA,NA,NA,NA,NA,NA,NA,NA,NA,0,1,1,0,1,NA,NA,NA,NA,NA
SUPAMT17915,3C8HJ7UOPDT8O67GBWW4UV2FF4GMZL,3FABF480-235F-4B9B-82AF-CBF9ADBCA1E3,2023-09-28_04h13.04.425,WP_VExplicitOC_LH,2022.2.5,Win32,22.08578117,100,3.9117,2.0525,NA,NA,NA,NA,NA,frustrated,"frustrated, not frustrated","more frustrated, less frustrated",NA,NA,NA,NA,NA,NA,NA,NA,NA,NA,NA,NA,NA,NA,NA,NA,NA,NA,NA,NA,NA,NA,NA,NA,NA,NA,NA,NA,NA,NA,NA,NA,NA,NA,NA,NA,NA,NA,0,2,2,1,1,NA,NA,NA,NA,NA
SUPAMT17915,3C8HJ7UOPDT8O67GBWW4UV2FF4GMZL,3FABF480-235F-4B9B-82AF-CBF9ADBCA1E3,2023-09-28_04h13.04.425,WP_VExplicitOC_LH,2022.2.5,Win32,22.08578117,NA,NA,NA,NA,NA,NA,NA,NA,NA,NA,NA,NA,NA,NA,NA,NA,NA,NA,NA,NA,NA,NA,NA,NA,NA,NA,NA,NA,NA,NA,NA,NA,NA,NA,NA,NA,NA,NA,NA,NA,NA,NA,NA,NA,NA,NA,NA,NA,NA,NA,NA,NA,NA,NA,8,0,8,0,1
SUPAMT17915,3C8HJ7UOPDT8O67GBWW4UV2FF4GMZL,3FABF480-235F-4B9B-82AF-CBF9ADBCA1E3,2023-09-28_04h13.04.425,WP_VExplicitOC_LH,2022.2.5,Win32,22.08578117,100,5.0941,2.0332,NA,NA,NA,NA,NA,happy,"unhappy, happy","less happy, more happy",NA,NA,NA,NA,NA,NA,NA,NA,NA,NA,NA,NA,NA,NA,NA,NA,NA,NA,NA,NA,NA,NA,NA,NA,NA,NA,NA,NA,NA,NA,NA,NA,NA,NA,NA,NA,NA,NA,0,0,0,0,1,NA,NA,NA,NA,NA
SUPAMT17915,3C8HJ7UOPDT8O67GBWW4UV2FF4GMZL,3FABF480-235F-4B9B-82AF-CBF9ADBCA1E3,2023-09-28_04h13.04.425,WP_VExplicitOC_LH,2022.2.5,Win32,22.08578117,100,3.9554,2.0587,NA,NA,NA,NA,NA,bored,"bored, not bored","more bored, less bored",NA,NA,NA,NA,NA,NA,NA,NA,NA,NA,NA,NA,NA,NA,NA,NA,NA,NA,NA,NA,NA,NA,NA,NA,NA,NA,NA,NA,NA,NA,NA,NA,NA,NA,NA,NA,NA,NA,0,1,1,2,1,NA,NA,NA,NA,NA
SUPAMT17915,3C8HJ7UOPDT8O67GBWW4UV2FF4GMZL,3FABF480-235F-4B9B-82AF-CBF9ADBCA1E3,2023-09-28_04h13.04.425,WP_VExplicitOC_LH,2022.2.5,Win32,22.08578117,100,4.5393,2.0659,NA,NA,NA,NA,NA,frustrated,"frustrated, not frustrated","more frustrated, less frustrated",NA,NA,NA,NA,NA,NA,NA,NA,NA,NA,NA,NA,NA,NA,NA,NA,NA,NA,NA,NA,NA,NA,NA,NA,NA,NA,NA,NA,NA,NA,NA,NA,NA,NA,NA,NA,NA,NA,0,2,2,1,1,NA,NA,NA,NA,NA
SUPAMT17915,3C8HJ7UOPDT8O67GBWW4UV2FF4GMZL,3FABF480-235F-4B9B-82AF-CBF9ADBCA1E3,2023-09-28_04h13.04.425,WP_VExplicitOC_LH,2022.2.5,Win32,22.08578117,NA,NA,NA,NA,NA,NA,NA,NA,NA,NA,NA,NA,NA,NA,NA,NA,NA,NA,NA,NA,NA,NA,NA,NA,NA,NA,NA,NA,NA,NA,NA,NA,NA,NA,NA,NA,NA,NA,NA,NA,NA,NA,NA,NA,NA,NA,NA,NA,NA,NA,NA,NA,NA,NA,9,0,9,0,1
SUPAMT17915,3C8HJ7UOPDT8O67GBWW4UV2FF4GMZL,3FABF480-235F-4B9B-82AF-CBF9ADBCA1E3,2023-09-28_04h13.04.425,WP_VExplicitOC_LH,2022.2.5,Win32,22.08578117,100,5.7298,2.0222,NA,NA,NA,NA,NA,happy,"unhappy, happy","less happy, more happy",NA,NA,NA,NA,NA,NA,NA,NA,NA,NA,NA,NA,NA,NA,NA,NA,NA,NA,NA,NA,NA,NA,NA,NA,NA,NA,NA,NA,NA,NA,NA,NA,NA,NA,NA,NA,NA,NA,0,0,0,0,1,NA,NA,NA,NA,NA
SUPAMT17915,3C8HJ7UOPDT8O67GBWW4UV2FF4GMZL,3FABF480-235F-4B9B-82AF-CBF9ADBCA1E3,2023-09-28_04h13.04.425,WP_VExplicitOC_LH,2022.2.5,Win32,22.08578117,100,4.1717,2.0304,NA,NA,NA,NA,NA,frustrated,"frustrated, not frustrated","more frustrated, less frustrated",NA,NA,NA,NA,NA,NA,NA,NA,NA,NA,NA,NA,NA,NA,NA,NA,NA,NA,NA,NA,NA,NA,NA,NA,NA,NA,NA,NA,NA,NA,NA,NA,NA,NA,NA,NA,NA,NA,0,1,1,1,1,NA,NA,NA,NA,NA
SUPAMT17915,3C8HJ7UOPDT8O67GBWW4UV2FF4GMZL,3FABF480-235F-4B9B-82AF-CBF9ADBCA1E3,2023-09-28_04h13.04.425,WP_VExplicitOC_LH,2022.2.5,Win32,22.08578117,100,5.2942,2.0646,NA,NA,NA,NA,NA,bored,"bored, not bored","more bored, less bored",NA,NA,NA,NA,NA,NA,NA,NA,NA,NA,NA,NA,NA,NA,NA,NA,NA,NA,NA,NA,NA,NA,NA,NA,NA,NA,NA,NA,NA,NA,NA,NA,NA,NA,NA,NA,NA,NA,0,2,2,2,1,NA,NA,NA,NA,NA
SUPAMT17915,3C8HJ7UOPDT8O67GBWW4UV2FF4GMZL,3FABF480-235F-4B9B-82AF-CBF9ADBCA1E3,2023-09-28_04h13.04.425,WP_VExplicitOC_LH,2022.2.5,Win32,22.08578117,NA,NA,NA,NA,NA,NA,NA,NA,NA,NA,NA,NA,NA,NA,NA,NA,NA,NA,NA,NA,NA,NA,NA,NA,NA,NA,NA,NA,NA,NA,NA,NA,NA,NA,NA,NA,NA,NA,NA,NA,NA,NA,NA,NA,NA,NA,NA,NA,NA,NA,NA,NA,NA,NA,10,0,10,0,1
SUPAMT17915,3C8HJ7UOPDT8O67GBWW4UV2FF4GMZL,3FABF480-235F-4B9B-82AF-CBF9ADBCA1E3,2023-09-28_04h13.04.425,WP_VExplicitOC_LH,2022.2.5,Win32,22.08578117,100,6.4627,2.0605,NA,NA,NA,NA,NA,frustrated,"frustrated, not frustrated","more frustrated, less frustrated",NA,NA,NA,NA,NA,NA,NA,NA,NA,NA,NA,NA,NA,NA,NA,NA,NA,NA,NA,NA,NA,NA,NA,NA,NA,NA,NA,NA,NA,NA,NA,NA,NA,NA,NA,NA,NA,NA,0,0,0,1,1,NA,NA,NA,NA,NA
SUPAMT17915,3C8HJ7UOPDT8O67GBWW4UV2FF4GMZL,3FABF480-235F-4B9B-82AF-CBF9ADBCA1E3,2023-09-28_04h13.04.425,WP_VExplicitOC_LH,2022.2.5,Win32,22.08578117,100,3.4731,2.0246,NA,NA,NA,NA,NA,bored,"bored, not bored","more bored, less bored",NA,NA,NA,NA,NA,NA,NA,NA,NA,NA,NA,NA,NA,NA,NA,NA,NA,NA,NA,NA,NA,NA,NA,NA,NA,NA,NA,NA,NA,NA,NA,NA,NA,NA,NA,NA,NA,NA,0,1,1,2,1,NA,NA,NA,NA,NA
SUPAMT17915,3C8HJ7UOPDT8O67GBWW4UV2FF4GMZL,3FABF480-235F-4B9B-82AF-CBF9ADBCA1E3,2023-09-28_04h13.04.425,WP_VExplicitOC_LH,2022.2.5,Win32,22.08578117,100,3.5806,2.0574,NA,NA,NA,NA,NA,happy,"unhappy, happy","less happy, more happy",NA,NA,NA,NA,NA,NA,NA,NA,NA,NA,NA,NA,NA,NA,NA,NA,NA,NA,NA,NA,NA,NA,NA,NA,NA,NA,NA,NA,NA,NA,NA,NA,NA,NA,NA,NA,NA,NA,0,2,2,0,1,NA,NA,NA,NA,NA
SUPAMT17915,3C8HJ7UOPDT8O67GBWW4UV2FF4GMZL,3FABF480-235F-4B9B-82AF-CBF9ADBCA1E3,2023-09-28_04h13.04.425,WP_VExplicitOC_LH,2022.2.5,Win32,22.08578117,NA,NA,NA,NA,NA,NA,NA,NA,NA,NA,NA,NA,NA,NA,NA,NA,NA,NA,NA,NA,NA,NA,NA,NA,NA,NA,NA,NA,NA,NA,NA,NA,NA,NA,NA,NA,NA,NA,NA,NA,NA,NA,NA,NA,NA,NA,NA,NA,NA,NA,NA,NA,NA,NA,11,0,11,0,1
SUPAMT17915,3C8HJ7UOPDT8O67GBWW4UV2FF4GMZL,3FABF480-235F-4B9B-82AF-CBF9ADBCA1E3,2023-09-28_04h13.04.425,WP_VExplicitOC_LH,2022.2.5,Win32,22.08578117,100,4.3332,2.011,NA,NA,NA,NA,NA,frustrated,"frustrated, not frustrated","more frustrated, less frustrated",NA,NA,NA,NA,NA,NA,NA,NA,NA,NA,NA,NA,NA,NA,NA,NA,NA,NA,NA,NA,NA,NA,NA,NA,NA,NA,NA,NA,NA,NA,NA,NA,NA,NA,NA,NA,NA,NA,0,0,0,1,1,NA,NA,NA,NA,NA
SUPAMT17915,3C8HJ7UOPDT8O67GBWW4UV2FF4GMZL,3FABF480-235F-4B9B-82AF-CBF9ADBCA1E3,2023-09-28_04h13.04.425,WP_VExplicitOC_LH,2022.2.5,Win32,22.08578117,100,3.842,2.0284,NA,NA,NA,NA,NA,happy,"unhappy, happy","less happy, more happy",NA,NA,NA,NA,NA,NA,NA,NA,NA,NA,NA,NA,NA,NA,NA,NA,NA,NA,NA,NA,NA,NA,NA,NA,NA,NA,NA,NA,NA,NA,NA,NA,NA,NA,NA,NA,NA,NA,0,1,1,0,1,NA,NA,NA,NA,NA
SUPAMT17915,3C8HJ7UOPDT8O67GBWW4UV2FF4GMZL,3FABF480-235F-4B9B-82AF-CBF9ADBCA1E3,2023-09-28_04h13.04.425,WP_VExplicitOC_LH,2022.2.5,Win32,22.08578117,100,3.3345,2.0444,NA,NA,NA,NA,NA,bored,"bored, not bored","more bored, less bored",NA,NA,NA,NA,NA,NA,NA,NA,NA,NA,NA,NA,NA,NA,NA,NA,NA,NA,NA,NA,NA,NA,NA,NA,NA,NA,NA,NA,NA,NA,NA,NA,NA,NA,NA,NA,NA,NA,0,2,2,2,1,NA,NA,NA,NA,NA
SUPAMT17915,3C8HJ7UOPDT8O67GBWW4UV2FF4GMZL,3FABF480-235F-4B9B-82AF-CBF9ADBCA1E3,2023-09-28_04h13.04.425,WP_VExplicitOC_LH,2022.2.5,Win32,22.08578117,NA,NA,NA,NA,NA,NA,NA,NA,NA,NA,NA,NA,NA,NA,NA,NA,NA,NA,NA,NA,NA,NA,NA,NA,NA,NA,NA,NA,NA,NA,NA,NA,NA,NA,NA,NA,NA,NA,NA,NA,NA,NA,NA,NA,NA,NA,NA,NA,NA,NA,NA,NA,NA,NA,12,0,12,0,1
SUPAMT17915,3C8HJ7UOPDT8O67GBWW4UV2FF4GMZL,3FABF480-235F-4B9B-82AF-CBF9ADBCA1E3,2023-09-28_04h13.04.425,WP_VExplicitOC_LH,2022.2.5,Win32,22.08578117,NA,NA,2.0554,NA,NA,NA,NA,NA,bored,"bored, not bored","more bored, less bored",NA,NA,NA,NA,NA,NA,NA,NA,NA,NA,NA,NA,NA,NA,NA,NA,NA,NA,NA,NA,NA,NA,NA,NA,NA,NA,NA,NA,NA,NA,NA,NA,NA,NA,NA,NA,NA,NA,0,0,0,2,1,NA,NA,NA,NA,NA
SUPAMT17915,3C8HJ7UOPDT8O67GBWW4UV2FF4GMZL,3FABF480-235F-4B9B-82AF-CBF9ADBCA1E3,2023-09-28_04h13.04.425,WP_VExplicitOC_LH,2022.2.5,Win32,22.08578117,100,4.3558,2.0245,NA,NA,NA,NA,NA,happy,"unhappy, happy","less happy, more happy",NA,NA,NA,NA,NA,NA,NA,NA,NA,NA,NA,NA,NA,NA,NA,NA,NA,NA,NA,NA,NA,NA,NA,NA,NA,NA,NA,NA,NA,NA,NA,NA,NA,NA,NA,NA,NA,NA,0,1,1,0,1,NA,NA,NA,NA,NA
SUPAMT17915,3C8HJ7UOPDT8O67GBWW4UV2FF4GMZL,3FABF480-235F-4B9B-82AF-CBF9ADBCA1E3,2023-09-28_04h13.04.425,WP_VExplicitOC_LH,2022.2.5,Win32,22.08578117,NA,NA,2.0317,NA,NA,NA,NA,NA,frustrated,"frustrated, not frustrated","more frustrated, less frustrated",NA,NA,NA,NA,NA,NA,NA,NA,NA,NA,NA,NA,NA,NA,NA,NA,NA,NA,NA,NA,NA,NA,NA,NA,NA,NA,NA,NA,NA,NA,NA,NA,NA,NA,NA,NA,NA,NA,0,2,2,1,1,NA,NA,NA,NA,NA
SUPAMT17915,3C8HJ7UOPDT8O67GBWW4UV2FF4GMZL,3FABF480-235F-4B9B-82AF-CBF9ADBCA1E3,2023-09-28_04h13.04.425,WP_VExplicitOC_LH,2022.2.5,Win32,22.08578117,NA,NA,NA,NA,NA,NA,NA,NA,NA,NA,NA,NA,NA,NA,NA,NA,NA,NA,NA,NA,NA,NA,NA,NA,NA,NA,NA,NA,NA,NA,NA,NA,NA,NA,NA,NA,NA,NA,NA,NA,NA,NA,NA,NA,NA,NA,NA,NA,NA,NA,NA,NA,NA,NA,13,0,13,0,1
SUPAMT17915,3C8HJ7UOPDT8O67GBWW4UV2FF4GMZL,3FABF480-235F-4B9B-82AF-CBF9ADBCA1E3,2023-09-28_04h13.04.425,WP_VExplicitOC_LH,2022.2.5,Win32,22.08578117,100,3.8447,2.0515,NA,NA,NA,NA,NA,frustrated,"frustrated, not frustrated","more frustrated, less frustrated",NA,NA,NA,NA,NA,NA,NA,NA,NA,NA,NA,NA,NA,NA,NA,NA,NA,NA,NA,NA,NA,NA,NA,NA,NA,NA,NA,NA,NA,NA,NA,NA,NA,NA,NA,NA,NA,NA,0,0,0,1,1,NA,NA,NA,NA,NA
SUPAMT17915,3C8HJ7UOPDT8O67GBWW4UV2FF4GMZL,3FABF480-235F-4B9B-82AF-CBF9ADBCA1E3,2023-09-28_04h13.04.425,WP_VExplicitOC_LH,2022.2.5,Win32,22.08578117,100,4.9342,2.0464,NA,NA,NA,NA,NA,happy,"unhappy, happy","less happy, more happy",NA,NA,NA,NA,NA,NA,NA,NA,NA,NA,NA,NA,NA,NA,NA,NA,NA,NA,NA,NA,NA,NA,NA,NA,NA,NA,NA,NA,NA,NA,NA,NA,NA,NA,NA,NA,NA,NA,0,1,1,0,1,NA,NA,NA,NA,NA
SUPAMT17915,3C8HJ7UOPDT8O67GBWW4UV2FF4GMZL,3FABF480-235F-4B9B-82AF-CBF9ADBCA1E3,2023-09-28_04h13.04.425,WP_VExplicitOC_LH,2022.2.5,Win32,22.08578117,100,3.9806,2.0259,NA,NA,NA,NA,NA,bored,"bored, not bored","more bored, less bored",NA,NA,NA,NA,NA,NA,NA,NA,NA,NA,NA,NA,NA,NA,NA,NA,NA,NA,NA,NA,NA,NA,NA,NA,NA,NA,NA,NA,NA,NA,NA,NA,NA,NA,NA,NA,NA,NA,0,2,2,2,1,NA,NA,NA,NA,NA
SUPAMT17915,3C8HJ7UOPDT8O67GBWW4UV2FF4GMZL,3FABF480-235F-4B9B-82AF-CBF9ADBCA1E3,2023-09-28_04h13.04.425,WP_VExplicitOC_LH,2022.2.5,Win32,22.08578117,NA,NA,NA,NA,NA,NA,NA,NA,NA,NA,NA,NA,NA,NA,NA,NA,NA,NA,NA,NA,NA,NA,NA,NA,NA,NA,NA,NA,NA,NA,NA,NA,NA,NA,NA,NA,NA,NA,NA,NA,NA,NA,NA,NA,NA,NA,NA,NA,NA,NA,NA,NA,NA,NA,14,0,14,0,1
SUPAMT17915,3C8HJ7UOPDT8O67GBWW4UV2FF4GMZL,3FABF480-235F-4B9B-82AF-CBF9ADBCA1E3,2023-09-28_04h13.04.425,WP_VExplicitOC_LH,2022.2.5,Win32,22.08578117,NA,NA,NA,NA,NA,NA,NA,NA,NA,NA,NA,NA,NA,NA,NA,NA,NA,NA,NA,NA,NA,NA,NA,NA,NA,NA,NA,NA,NA,NA,NA,NA,NA,NA,NA,NA,NA,NA,NA,NA,NA,NA,NA,NA,NA,NA,NA,NA,NA,NA,NA,NA,NA,NA,NA,NA,NA,NA,NA
