participant,session,completion,date,expName,psychopyVersion,OS,frameRate,rating_all.response,rating_all.rt,rating_all.tStart,rndRat1.thisRepN,rndRat1.thisTrialN,rndRat1.thisN,rndRat1.thisIndex,rndRat1.ran,Emo,Labs,Labs2,rating_alt.response,rating_alt.rt,AltC.thisRepN,AltC.thisTrialN,AltC.thisN,AltC.thisIndex,AltC.ran,alt_choices,pic_choices,BottomAlt_Choice,rndRat2.thisRepN,rndRat2.thisTrialN,rndRat2.thisN,rndRat2.thisIndex,rndRat2.ran,rndRat3.thisRepN,rndRat3.thisTrialN,rndRat3.thisN,rndRat3.thisIndex,rndRat3.ran,trials_FC_L.thisRepN,trials_FC_L.thisTrialN,trials_FC_L.thisN,trials_FC_L.thisIndex,trials_FC_L.ran,rating_alt_2.response,rating_alt_2.rt,AltC2.thisRepN,AltC2.thisTrialN,AltC2.thisN,AltC2.thisIndex,AltC2.ran,TopAlt_Choice,rndRat4.thisRepN,rndRat4.thisTrialN,rndRat4.thisN,rndRat4.thisIndex,rndRat4.ran,rndRat5.thisRepN,rndRat5.thisTrialN,rndRat5.thisN,rndRat5.thisIndex,rndRat5.ran,trials_FC_H.thisRepN,trials_FC_H.thisTrialN,trials_FC_H.thisN,trials_FC_H.thisIndex,trials_FC_H.ran
SUPAMT61541,39PAAFCODSZVSHSQJW8DV3KBKQYVT0,98C08389-4276-4267-A6E5-E887D67CC43C,2023-09-26_10h28.54.751,WP_VExplicitOC_LH,2022.2.5,Win32,11.03898971,NA,NA,NA,NA,NA,NA,NA,NA,NA,NA,NA,NA,NA,NA,NA,NA,NA,NA,NA,NA,NA,NA,NA,NA,NA,NA,NA,NA,NA,NA,NA,NA,NA,NA,NA,NA,NA,NA,NA,NA,NA,NA,NA,NA,NA,NA,NA,NA,NA,NA,NA,NA,NA,NA,NA,NA,NA,NA,NA
SUPAMT61541,39PAAFCODSZVSHSQJW8DV3KBKQYVT0,98C08389-4276-4267-A6E5-E887D67CC43C,2023-09-26_10h28.54.751,WP_VExplicitOC_LH,2022.2.5,Win32,11.03898971,NA,NA,NA,NA,NA,NA,NA,NA,NA,NA,NA,NA,NA,NA,NA,NA,NA,NA,NA,NA,NA,NA,NA,NA,NA,NA,NA,NA,NA,NA,NA,NA,NA,NA,NA,NA,NA,NA,NA,NA,NA,NA,NA,NA,NA,NA,NA,NA,NA,NA,NA,NA,NA,NA,NA,NA,NA,NA,NA
SUPAMT61541,39PAAFCODSZVSHSQJW8DV3KBKQYVT0,98C08389-4276-4267-A6E5-E887D67CC43C,2023-09-26_10h28.54.751,WP_VExplicitOC_LH,2022.2.5,Win32,11.03898971,NA,NA,NA,NA,NA,NA,NA,NA,NA,NA,NA,NA,NA,NA,NA,NA,NA,NA,NA,NA,NA,NA,NA,NA,NA,NA,NA,NA,NA,NA,NA,NA,NA,NA,NA,NA,NA,NA,NA,NA,NA,NA,NA,NA,NA,NA,NA,NA,NA,NA,NA,NA,NA,NA,NA,NA,NA,NA,NA
SUPAMT61541,39PAAFCODSZVSHSQJW8DV3KBKQYVT0,98C08389-4276-4267-A6E5-E887D67CC43C,2023-09-26_10h28.54.751,WP_VExplicitOC_LH,2022.2.5,Win32,11.03898971,70.44444444,5.7282,2.0502,0,0,0,2,1,bored,"bored, not bored","more bored, less bored",NA,NA,NA,NA,NA,NA,NA,NA,NA,NA,NA,NA,NA,NA,NA,NA,NA,NA,NA,NA,NA,NA,NA,NA,NA,NA,NA,NA,NA,NA,NA,NA,NA,NA,NA,NA,NA,NA,NA,NA,NA,NA,NA,NA,NA,NA,NA,NA
SUPAMT61541,39PAAFCODSZVSHSQJW8DV3KBKQYVT0,98C08389-4276-4267-A6E5-E887D67CC43C,2023-09-26_10h28.54.751,WP_VExplicitOC_LH,2022.2.5,Win32,11.03898971,64.22222222,4.191,2.0073,0,1,1,1,1,frustrated,"frustrated, not frustrated","more frustrated, less frustrated",NA,NA,NA,NA,NA,NA,NA,NA,NA,NA,NA,NA,NA,NA,NA,NA,NA,NA,NA,NA,NA,NA,NA,NA,NA,NA,NA,NA,NA,NA,NA,NA,NA,NA,NA,NA,NA,NA,NA,NA,NA,NA,NA,NA,NA,NA,NA,NA
SUPAMT61541,39PAAFCODSZVSHSQJW8DV3KBKQYVT0,98C08389-4276-4267-A6E5-E887D67CC43C,2023-09-26_10h28.54.751,WP_VExplicitOC_LH,2022.2.5,Win32,11.03898971,76.44444444,3.6966,2.0321,0,2,2,0,1,happy,"unhappy, happy","less happy, more happy",NA,NA,NA,NA,NA,NA,NA,NA,NA,NA,NA,NA,NA,NA,NA,NA,NA,NA,NA,NA,NA,NA,NA,NA,NA,NA,NA,NA,NA,NA,NA,NA,NA,NA,NA,NA,NA,NA,NA,NA,NA,NA,NA,NA,NA,NA,NA,NA
SUPAMT61541,39PAAFCODSZVSHSQJW8DV3KBKQYVT0,98C08389-4276-4267-A6E5-E887D67CC43C,2023-09-26_10h28.54.751,WP_VExplicitOC_LH,2022.2.5,Win32,11.03898971,NA,NA,NA,NA,NA,NA,NA,NA,NA,NA,NA,NA,NA,NA,NA,NA,NA,NA,NA,NA,NA,NA,NA,NA,NA,NA,NA,NA,NA,NA,NA,NA,NA,NA,NA,NA,NA,NA,NA,NA,NA,NA,NA,NA,NA,NA,NA,NA,NA,NA,NA,NA,NA,NA,NA,NA,NA,NA,NA
SUPAMT61541,39PAAFCODSZVSHSQJW8DV3KBKQYVT0,98C08389-4276-4267-A6E5-E887D67CC43C,2023-09-26_10h28.54.751,WP_VExplicitOC_LH,2022.2.5,Win32,11.03898971,NA,NA,NA,NA,NA,NA,NA,NA,NA,NA,NA,NA,NA,NA,NA,NA,NA,NA,NA,NA,NA,NA,NA,NA,NA,NA,NA,NA,NA,NA,NA,NA,NA,NA,NA,NA,NA,NA,NA,NA,NA,NA,NA,NA,NA,NA,NA,NA,NA,NA,NA,NA,NA,NA,NA,NA,NA,NA,NA
SUPAMT61541,39PAAFCODSZVSHSQJW8DV3KBKQYVT0,98C08389-4276-4267-A6E5-E887D67CC43C,2023-09-26_10h28.54.751,WP_VExplicitOC_LH,2022.2.5,Win32,11.03898971,NA,NA,NA,NA,NA,NA,NA,NA,NA,NA,NA,NA,NA,NA,NA,NA,NA,NA,NA,NA,NA,NA,NA,NA,NA,NA,NA,NA,NA,NA,NA,NA,NA,NA,NA,NA,NA,NA,NA,NA,NA,NA,NA,NA,NA,NA,NA,NA,NA,NA,NA,NA,NA,NA,NA,NA,NA,NA,NA
SUPAMT61541,39PAAFCODSZVSHSQJW8DV3KBKQYVT0,98C08389-4276-4267-A6E5-E887D67CC43C,2023-09-26_10h28.54.751,WP_VExplicitOC_LH,2022.2.5,Win32,11.03898971,NA,NA,NA,NA,NA,NA,NA,NA,NA,NA,NA,NA,NA,NA,NA,NA,NA,NA,NA,NA,NA,NA,NA,NA,NA,NA,NA,NA,NA,NA,NA,NA,NA,NA,NA,NA,NA,NA,NA,NA,NA,NA,NA,NA,NA,NA,NA,NA,NA,NA,NA,NA,NA,NA,NA,NA,NA,NA,NA
SUPAMT61541,39PAAFCODSZVSHSQJW8DV3KBKQYVT0,98C08389-4276-4267-A6E5-E887D67CC43C,2023-09-26_10h28.54.751,WP_VExplicitOC_LH,2022.2.5,Win32,11.03898971,NA,NA,NA,NA,NA,NA,NA,NA,NA,NA,NA,65.11111111,3.4931,0,0,0,0,1,rest (looking at a fixed cross),001.png,NA,NA,NA,NA,NA,NA,NA,NA,NA,NA,NA,NA,NA,NA,NA,NA,NA,NA,NA,NA,NA,NA,NA,NA,NA,NA,NA,NA,NA,NA,NA,NA,NA,NA,NA,NA,NA,NA,NA
SUPAMT61541,39PAAFCODSZVSHSQJW8DV3KBKQYVT0,98C08389-4276-4267-A6E5-E887D67CC43C,2023-09-26_10h28.54.751,WP_VExplicitOC_LH,2022.2.5,Win32,11.03898971,NA,NA,NA,NA,NA,NA,NA,NA,NA,NA,NA,66.22222222,2.8795,0,1,1,1,1,stand up,002.png,NA,NA,NA,NA,NA,NA,NA,NA,NA,NA,NA,NA,NA,NA,NA,NA,NA,NA,NA,NA,NA,NA,NA,NA,NA,NA,NA,NA,NA,NA,NA,NA,NA,NA,NA,NA,NA,NA,NA
SUPAMT61541,39PAAFCODSZVSHSQJW8DV3KBKQYVT0,98C08389-4276-4267-A6E5-E887D67CC43C,2023-09-26_10h28.54.751,WP_VExplicitOC_LH,2022.2.5,Win32,11.03898971,NA,NA,NA,NA,NA,NA,NA,NA,NA,NA,NA,70,2.2756,0,2,2,2,1,stretch,003.png,NA,NA,NA,NA,NA,NA,NA,NA,NA,NA,NA,NA,NA,NA,NA,NA,NA,NA,NA,NA,NA,NA,NA,NA,NA,NA,NA,NA,NA,NA,NA,NA,NA,NA,NA,NA,NA,NA,NA
SUPAMT61541,39PAAFCODSZVSHSQJW8DV3KBKQYVT0,98C08389-4276-4267-A6E5-E887D67CC43C,2023-09-26_10h28.54.751,WP_VExplicitOC_LH,2022.2.5,Win32,11.03898971,NA,NA,NA,NA,NA,NA,NA,NA,NA,NA,NA,74.66666667,2.1205,0,3,3,3,1,make a drink,004.png,NA,NA,NA,NA,NA,NA,NA,NA,NA,NA,NA,NA,NA,NA,NA,NA,NA,NA,NA,NA,NA,NA,NA,NA,NA,NA,NA,NA,NA,NA,NA,NA,NA,NA,NA,NA,NA,NA,NA
SUPAMT61541,39PAAFCODSZVSHSQJW8DV3KBKQYVT0,98C08389-4276-4267-A6E5-E887D67CC43C,2023-09-26_10h28.54.751,WP_VExplicitOC_LH,2022.2.5,Win32,11.03898971,NA,NA,NA,NA,NA,NA,NA,NA,NA,NA,NA,77.77777778,1.7577,0,4,4,4,1,scroll social media,005.png,NA,NA,NA,NA,NA,NA,NA,NA,NA,NA,NA,NA,NA,NA,NA,NA,NA,NA,NA,NA,NA,NA,NA,NA,NA,NA,NA,NA,NA,NA,NA,NA,NA,NA,NA,NA,NA,NA,NA
SUPAMT61541,39PAAFCODSZVSHSQJW8DV3KBKQYVT0,98C08389-4276-4267-A6E5-E887D67CC43C,2023-09-26_10h28.54.751,WP_VExplicitOC_LH,2022.2.5,Win32,11.03898971,NA,NA,NA,NA,NA,NA,NA,NA,NA,NA,NA,67.55555556,2.12,0,5,5,5,1,listen to music,006.png,NA,NA,NA,NA,NA,NA,NA,NA,NA,NA,NA,NA,NA,NA,NA,NA,NA,NA,NA,NA,NA,NA,NA,NA,NA,NA,NA,NA,NA,NA,NA,NA,NA,NA,NA,NA,NA,NA,NA
SUPAMT61541,39PAAFCODSZVSHSQJW8DV3KBKQYVT0,98C08389-4276-4267-A6E5-E887D67CC43C,2023-09-26_10h28.54.751,WP_VExplicitOC_LH,2022.2.5,Win32,11.03898971,NA,NA,NA,NA,NA,NA,NA,NA,NA,NA,NA,72.66666667,1.8818,0,6,6,6,1,daydream,007.png,NA,NA,NA,NA,NA,NA,NA,NA,NA,NA,NA,NA,NA,NA,NA,NA,NA,NA,NA,NA,NA,NA,NA,NA,NA,NA,NA,NA,NA,NA,NA,NA,NA,NA,NA,NA,NA,NA,NA
SUPAMT61541,39PAAFCODSZVSHSQJW8DV3KBKQYVT0,98C08389-4276-4267-A6E5-E887D67CC43C,2023-09-26_10h28.54.751,WP_VExplicitOC_LH,2022.2.5,Win32,11.03898971,NA,NA,NA,NA,NA,NA,NA,NA,NA,NA,NA,71.55555556,2.1195,0,7,7,7,1,watch a short animation,008.png,NA,NA,NA,NA,NA,NA,NA,NA,NA,NA,NA,NA,NA,NA,NA,NA,NA,NA,NA,NA,NA,NA,NA,NA,NA,NA,NA,NA,NA,NA,NA,NA,NA,NA,NA,NA,NA,NA,NA
SUPAMT61541,39PAAFCODSZVSHSQJW8DV3KBKQYVT0,98C08389-4276-4267-A6E5-E887D67CC43C,2023-09-26_10h28.54.751,WP_VExplicitOC_LH,2022.2.5,Win32,11.03898971,NA,NA,NA,NA,NA,NA,NA,NA,NA,NA,NA,68.22222222,2.6449,0,8,8,8,1,read a novel,009.png,NA,NA,NA,NA,NA,NA,NA,NA,NA,NA,NA,NA,NA,NA,NA,NA,NA,NA,NA,NA,NA,NA,NA,NA,NA,NA,NA,NA,NA,NA,NA,NA,NA,NA,NA,NA,NA,NA,NA
SUPAMT61541,39PAAFCODSZVSHSQJW8DV3KBKQYVT0,98C08389-4276-4267-A6E5-E887D67CC43C,2023-09-26_10h28.54.751,WP_VExplicitOC_LH,2022.2.5,Win32,11.03898971,NA,NA,NA,NA,NA,NA,NA,NA,NA,NA,NA,64.44444444,2.8114,0,9,9,9,1,read the news,010.png,NA,NA,NA,NA,NA,NA,NA,NA,NA,NA,NA,NA,NA,NA,NA,NA,NA,NA,NA,NA,NA,NA,NA,NA,NA,NA,NA,NA,NA,NA,NA,NA,NA,NA,NA,NA,NA,NA,NA
SUPAMT61541,39PAAFCODSZVSHSQJW8DV3KBKQYVT0,98C08389-4276-4267-A6E5-E887D67CC43C,2023-09-26_10h28.54.751,WP_VExplicitOC_LH,2022.2.5,Win32,11.03898971,NA,NA,NA,NA,NA,NA,NA,NA,NA,NA,NA,NA,NA,NA,NA,NA,NA,NA,NA,NA,NA,NA,NA,NA,NA,NA,NA,NA,NA,NA,NA,NA,NA,NA,NA,NA,NA,NA,NA,NA,NA,NA,NA,NA,NA,NA,NA,NA,NA,NA,NA,NA,NA,NA,NA,NA,NA,NA,NA
SUPAMT61541,39PAAFCODSZVSHSQJW8DV3KBKQYVT0,98C08389-4276-4267-A6E5-E887D67CC43C,2023-09-26_10h28.54.751,WP_VExplicitOC_LH,2022.2.5,Win32,11.03898971,NA,NA,NA,NA,NA,NA,NA,NA,NA,NA,NA,NA,NA,NA,NA,NA,NA,NA,NA,NA,read the news,NA,NA,NA,NA,NA,NA,NA,NA,NA,NA,NA,NA,NA,NA,NA,NA,NA,NA,NA,NA,NA,NA,NA,NA,NA,NA,NA,NA,NA,NA,NA,NA,NA,NA,NA,NA,NA,NA
SUPAMT61541,39PAAFCODSZVSHSQJW8DV3KBKQYVT0,98C08389-4276-4267-A6E5-E887D67CC43C,2023-09-26_10h28.54.751,WP_VExplicitOC_LH,2022.2.5,Win32,11.03898971,79.33333333,5.5057,2.0489,NA,NA,NA,NA,NA,happy,"unhappy, happy","less happy, more happy",NA,NA,NA,NA,NA,NA,NA,NA,NA,NA,0,0,0,0,1,NA,NA,NA,NA,NA,NA,NA,NA,NA,NA,NA,NA,NA,NA,NA,NA,NA,NA,NA,NA,NA,NA,NA,NA,NA,NA,NA,NA,NA,NA,NA,NA,NA
SUPAMT61541,39PAAFCODSZVSHSQJW8DV3KBKQYVT0,98C08389-4276-4267-A6E5-E887D67CC43C,2023-09-26_10h28.54.751,WP_VExplicitOC_LH,2022.2.5,Win32,11.03898971,67.33333333,4.2558,2.0711,NA,NA,NA,NA,NA,bored,"bored, not bored","more bored, less bored",NA,NA,NA,NA,NA,NA,NA,NA,NA,NA,0,1,1,2,1,NA,NA,NA,NA,NA,NA,NA,NA,NA,NA,NA,NA,NA,NA,NA,NA,NA,NA,NA,NA,NA,NA,NA,NA,NA,NA,NA,NA,NA,NA,NA,NA,NA
SUPAMT61541,39PAAFCODSZVSHSQJW8DV3KBKQYVT0,98C08389-4276-4267-A6E5-E887D67CC43C,2023-09-26_10h28.54.751,WP_VExplicitOC_LH,2022.2.5,Win32,11.03898971,57.33333333,5.5813,2.1134,NA,NA,NA,NA,NA,frustrated,"frustrated, not frustrated","more frustrated, less frustrated",NA,NA,NA,NA,NA,NA,NA,NA,NA,NA,0,2,2,1,1,NA,NA,NA,NA,NA,NA,NA,NA,NA,NA,NA,NA,NA,NA,NA,NA,NA,NA,NA,NA,NA,NA,NA,NA,NA,NA,NA,NA,NA,NA,NA,NA,NA
SUPAMT61541,39PAAFCODSZVSHSQJW8DV3KBKQYVT0,98C08389-4276-4267-A6E5-E887D67CC43C,2023-09-26_10h28.54.751,WP_VExplicitOC_LH,2022.2.5,Win32,11.03898971,NA,NA,NA,NA,NA,NA,NA,NA,NA,NA,NA,NA,NA,NA,NA,NA,NA,NA,NA,NA,NA,NA,NA,NA,NA,NA,NA,NA,NA,NA,NA,NA,NA,NA,NA,NA,NA,NA,NA,NA,NA,NA,NA,NA,NA,NA,NA,NA,NA,NA,NA,NA,NA,NA,NA,NA,NA,NA,NA
SUPAMT61541,39PAAFCODSZVSHSQJW8DV3KBKQYVT0,98C08389-4276-4267-A6E5-E887D67CC43C,2023-09-26_10h28.54.751,WP_VExplicitOC_LH,2022.2.5,Win32,11.03898971,NA,NA,NA,NA,NA,NA,NA,NA,NA,NA,NA,NA,NA,NA,NA,NA,NA,NA,NA,NA,NA,NA,NA,NA,NA,NA,NA,NA,NA,NA,NA,NA,NA,NA,NA,NA,NA,NA,NA,NA,NA,NA,NA,NA,NA,NA,NA,NA,NA,NA,NA,NA,NA,NA,NA,NA,NA,NA,NA
SUPAMT61541,39PAAFCODSZVSHSQJW8DV3KBKQYVT0,98C08389-4276-4267-A6E5-E887D67CC43C,2023-09-26_10h28.54.751,WP_VExplicitOC_LH,2022.2.5,Win32,11.03898971,80.66666667,4.5137,2.1108,NA,NA,NA,NA,NA,happy,"unhappy, happy","less happy, more happy",NA,NA,NA,NA,NA,NA,NA,NA,NA,NA,NA,NA,NA,NA,NA,0,0,0,0,1,NA,NA,NA,NA,NA,NA,NA,NA,NA,NA,NA,NA,NA,NA,NA,NA,NA,NA,NA,NA,NA,NA,NA,NA,NA,NA,NA,NA
SUPAMT61541,39PAAFCODSZVSHSQJW8DV3KBKQYVT0,98C08389-4276-4267-A6E5-E887D67CC43C,2023-09-26_10h28.54.751,WP_VExplicitOC_LH,2022.2.5,Win32,11.03898971,76,5.4802,2.0159,NA,NA,NA,NA,NA,bored,"bored, not bored","more bored, less bored",NA,NA,NA,NA,NA,NA,NA,NA,NA,NA,NA,NA,NA,NA,NA,0,1,1,2,1,NA,NA,NA,NA,NA,NA,NA,NA,NA,NA,NA,NA,NA,NA,NA,NA,NA,NA,NA,NA,NA,NA,NA,NA,NA,NA,NA,NA
SUPAMT61541,39PAAFCODSZVSHSQJW8DV3KBKQYVT0,98C08389-4276-4267-A6E5-E887D67CC43C,2023-09-26_10h28.54.751,WP_VExplicitOC_LH,2022.2.5,Win32,11.03898971,70,4.8767,2.0359,NA,NA,NA,NA,NA,frustrated,"frustrated, not frustrated","more frustrated, less frustrated",NA,NA,NA,NA,NA,NA,NA,NA,NA,NA,NA,NA,NA,NA,NA,0,2,2,1,1,NA,NA,NA,NA,NA,NA,NA,NA,NA,NA,NA,NA,NA,NA,NA,NA,NA,NA,NA,NA,NA,NA,NA,NA,NA,NA,NA,NA
SUPAMT61541,39PAAFCODSZVSHSQJW8DV3KBKQYVT0,98C08389-4276-4267-A6E5-E887D67CC43C,2023-09-26_10h28.54.751,WP_VExplicitOC_LH,2022.2.5,Win32,11.03898971,NA,NA,NA,NA,NA,NA,NA,NA,NA,NA,NA,NA,NA,NA,NA,NA,NA,NA,NA,NA,NA,NA,NA,NA,NA,NA,NA,NA,NA,NA,NA,0,0,0,0,1,NA,NA,NA,NA,NA,NA,NA,NA,NA,NA,NA,NA,NA,NA,NA,NA,NA,NA,NA,NA,NA,NA,NA
SUPAMT61541,39PAAFCODSZVSHSQJW8DV3KBKQYVT0,98C08389-4276-4267-A6E5-E887D67CC43C,2023-09-26_10h28.54.751,WP_VExplicitOC_LH,2022.2.5,Win32,11.03898971,89.55555556,4.6932,2.0524,NA,NA,NA,NA,NA,happy,"unhappy, happy","less happy, more happy",NA,NA,NA,NA,NA,NA,NA,NA,NA,NA,NA,NA,NA,NA,NA,0,0,0,0,1,NA,NA,NA,NA,NA,NA,NA,NA,NA,NA,NA,NA,NA,NA,NA,NA,NA,NA,NA,NA,NA,NA,NA,NA,NA,NA,NA,NA
SUPAMT61541,39PAAFCODSZVSHSQJW8DV3KBKQYVT0,98C08389-4276-4267-A6E5-E887D67CC43C,2023-09-26_10h28.54.751,WP_VExplicitOC_LH,2022.2.5,Win32,11.03898971,92.66666667,3.7609,2.0264,NA,NA,NA,NA,NA,bored,"bored, not bored","more bored, less bored",NA,NA,NA,NA,NA,NA,NA,NA,NA,NA,NA,NA,NA,NA,NA,0,1,1,2,1,NA,NA,NA,NA,NA,NA,NA,NA,NA,NA,NA,NA,NA,NA,NA,NA,NA,NA,NA,NA,NA,NA,NA,NA,NA,NA,NA,NA
SUPAMT61541,39PAAFCODSZVSHSQJW8DV3KBKQYVT0,98C08389-4276-4267-A6E5-E887D67CC43C,2023-09-26_10h28.54.751,WP_VExplicitOC_LH,2022.2.5,Win32,11.03898971,100,3.6803,2.007,NA,NA,NA,NA,NA,frustrated,"frustrated, not frustrated","more frustrated, less frustrated",NA,NA,NA,NA,NA,NA,NA,NA,NA,NA,NA,NA,NA,NA,NA,0,2,2,1,1,NA,NA,NA,NA,NA,NA,NA,NA,NA,NA,NA,NA,NA,NA,NA,NA,NA,NA,NA,NA,NA,NA,NA,NA,NA,NA,NA,NA
SUPAMT61541,39PAAFCODSZVSHSQJW8DV3KBKQYVT0,98C08389-4276-4267-A6E5-E887D67CC43C,2023-09-26_10h28.54.751,WP_VExplicitOC_LH,2022.2.5,Win32,11.03898971,NA,NA,NA,NA,NA,NA,NA,NA,NA,NA,NA,NA,NA,NA,NA,NA,NA,NA,NA,NA,NA,NA,NA,NA,NA,NA,NA,NA,NA,NA,NA,1,0,1,0,1,NA,NA,NA,NA,NA,NA,NA,NA,NA,NA,NA,NA,NA,NA,NA,NA,NA,NA,NA,NA,NA,NA,NA
SUPAMT61541,39PAAFCODSZVSHSQJW8DV3KBKQYVT0,98C08389-4276-4267-A6E5-E887D67CC43C,2023-09-26_10h28.54.751,WP_VExplicitOC_LH,2022.2.5,Win32,11.03898971,80,3.7486,2.0854,NA,NA,NA,NA,NA,frustrated,"frustrated, not frustrated","more frustrated, less frustrated",NA,NA,NA,NA,NA,NA,NA,NA,NA,NA,NA,NA,NA,NA,NA,0,0,0,1,1,NA,NA,NA,NA,NA,NA,NA,NA,NA,NA,NA,NA,NA,NA,NA,NA,NA,NA,NA,NA,NA,NA,NA,NA,NA,NA,NA,NA
SUPAMT61541,39PAAFCODSZVSHSQJW8DV3KBKQYVT0,98C08389-4276-4267-A6E5-E887D67CC43C,2023-09-26_10h28.54.751,WP_VExplicitOC_LH,2022.2.5,Win32,11.03898971,75.11111111,3.8854,2.1063,NA,NA,NA,NA,NA,happy,"unhappy, happy","less happy, more happy",NA,NA,NA,NA,NA,NA,NA,NA,NA,NA,NA,NA,NA,NA,NA,0,1,1,0,1,NA,NA,NA,NA,NA,NA,NA,NA,NA,NA,NA,NA,NA,NA,NA,NA,NA,NA,NA,NA,NA,NA,NA,NA,NA,NA,NA,NA
SUPAMT61541,39PAAFCODSZVSHSQJW8DV3KBKQYVT0,98C08389-4276-4267-A6E5-E887D67CC43C,2023-09-26_10h28.54.751,WP_VExplicitOC_LH,2022.2.5,Win32,11.03898971,60.66666667,5.2119,2.0706,NA,NA,NA,NA,NA,bored,"bored, not bored","more bored, less bored",NA,NA,NA,NA,NA,NA,NA,NA,NA,NA,NA,NA,NA,NA,NA,0,2,2,2,1,NA,NA,NA,NA,NA,NA,NA,NA,NA,NA,NA,NA,NA,NA,NA,NA,NA,NA,NA,NA,NA,NA,NA,NA,NA,NA,NA,NA
SUPAMT61541,39PAAFCODSZVSHSQJW8DV3KBKQYVT0,98C08389-4276-4267-A6E5-E887D67CC43C,2023-09-26_10h28.54.751,WP_VExplicitOC_LH,2022.2.5,Win32,11.03898971,NA,NA,NA,NA,NA,NA,NA,NA,NA,NA,NA,NA,NA,NA,NA,NA,NA,NA,NA,NA,NA,NA,NA,NA,NA,NA,NA,NA,NA,NA,NA,2,0,2,0,1,NA,NA,NA,NA,NA,NA,NA,NA,NA,NA,NA,NA,NA,NA,NA,NA,NA,NA,NA,NA,NA,NA,NA
SUPAMT61541,39PAAFCODSZVSHSQJW8DV3KBKQYVT0,98C08389-4276-4267-A6E5-E887D67CC43C,2023-09-26_10h28.54.751,WP_VExplicitOC_LH,2022.2.5,Win32,11.03898971,NA,NA,2.0313,NA,NA,NA,NA,NA,bored,"bored, not bored","more bored, less bored",NA,NA,NA,NA,NA,NA,NA,NA,NA,NA,NA,NA,NA,NA,NA,0,0,0,2,1,NA,NA,NA,NA,NA,NA,NA,NA,NA,NA,NA,NA,NA,NA,NA,NA,NA,NA,NA,NA,NA,NA,NA,NA,NA,NA,NA,NA
SUPAMT61541,39PAAFCODSZVSHSQJW8DV3KBKQYVT0,98C08389-4276-4267-A6E5-E887D67CC43C,2023-09-26_10h28.54.751,WP_VExplicitOC_LH,2022.2.5,Win32,11.03898971,NA,NA,2.0073,NA,NA,NA,NA,NA,happy,"unhappy, happy","less happy, more happy",NA,NA,NA,NA,NA,NA,NA,NA,NA,NA,NA,NA,NA,NA,NA,0,1,1,0,1,NA,NA,NA,NA,NA,NA,NA,NA,NA,NA,NA,NA,NA,NA,NA,NA,NA,NA,NA,NA,NA,NA,NA,NA,NA,NA,NA,NA
SUPAMT61541,39PAAFCODSZVSHSQJW8DV3KBKQYVT0,98C08389-4276-4267-A6E5-E887D67CC43C,2023-09-26_10h28.54.751,WP_VExplicitOC_LH,2022.2.5,Win32,11.03898971,NA,NA,2.0913,NA,NA,NA,NA,NA,frustrated,"frustrated, not frustrated","more frustrated, less frustrated",NA,NA,NA,NA,NA,NA,NA,NA,NA,NA,NA,NA,NA,NA,NA,0,2,2,1,1,NA,NA,NA,NA,NA,NA,NA,NA,NA,NA,NA,NA,NA,NA,NA,NA,NA,NA,NA,NA,NA,NA,NA,NA,NA,NA,NA,NA
SUPAMT61541,39PAAFCODSZVSHSQJW8DV3KBKQYVT0,98C08389-4276-4267-A6E5-E887D67CC43C,2023-09-26_10h28.54.751,WP_VExplicitOC_LH,2022.2.5,Win32,11.03898971,NA,NA,NA,NA,NA,NA,NA,NA,NA,NA,NA,NA,NA,NA,NA,NA,NA,NA,NA,NA,NA,NA,NA,NA,NA,NA,NA,NA,NA,NA,NA,3,0,3,0,1,NA,NA,NA,NA,NA,NA,NA,NA,NA,NA,NA,NA,NA,NA,NA,NA,NA,NA,NA,NA,NA,NA,NA
SUPAMT61541,39PAAFCODSZVSHSQJW8DV3KBKQYVT0,98C08389-4276-4267-A6E5-E887D67CC43C,2023-09-26_10h28.54.751,WP_VExplicitOC_LH,2022.2.5,Win32,11.03898971,NA,NA,2.0511,NA,NA,NA,NA,NA,bored,"bored, not bored","more bored, less bored",NA,NA,NA,NA,NA,NA,NA,NA,NA,NA,NA,NA,NA,NA,NA,0,0,0,2,1,NA,NA,NA,NA,NA,NA,NA,NA,NA,NA,NA,NA,NA,NA,NA,NA,NA,NA,NA,NA,NA,NA,NA,NA,NA,NA,NA,NA
SUPAMT61541,39PAAFCODSZVSHSQJW8DV3KBKQYVT0,98C08389-4276-4267-A6E5-E887D67CC43C,2023-09-26_10h28.54.751,WP_VExplicitOC_LH,2022.2.5,Win32,11.03898971,NA,NA,2.0685,NA,NA,NA,NA,NA,frustrated,"frustrated, not frustrated","more frustrated, less frustrated",NA,NA,NA,NA,NA,NA,NA,NA,NA,NA,NA,NA,NA,NA,NA,0,1,1,1,1,NA,NA,NA,NA,NA,NA,NA,NA,NA,NA,NA,NA,NA,NA,NA,NA,NA,NA,NA,NA,NA,NA,NA,NA,NA,NA,NA,NA
SUPAMT61541,39PAAFCODSZVSHSQJW8DV3KBKQYVT0,98C08389-4276-4267-A6E5-E887D67CC43C,2023-09-26_10h28.54.751,WP_VExplicitOC_LH,2022.2.5,Win32,11.03898971,NA,NA,2.1088,NA,NA,NA,NA,NA,happy,"unhappy, happy","less happy, more happy",NA,NA,NA,NA,NA,NA,NA,NA,NA,NA,NA,NA,NA,NA,NA,0,2,2,0,1,NA,NA,NA,NA,NA,NA,NA,NA,NA,NA,NA,NA,NA,NA,NA,NA,NA,NA,NA,NA,NA,NA,NA,NA,NA,NA,NA,NA
SUPAMT61541,39PAAFCODSZVSHSQJW8DV3KBKQYVT0,98C08389-4276-4267-A6E5-E887D67CC43C,2023-09-26_10h28.54.751,WP_VExplicitOC_LH,2022.2.5,Win32,11.03898971,NA,NA,NA,NA,NA,NA,NA,NA,NA,NA,NA,NA,NA,NA,NA,NA,NA,NA,NA,NA,NA,NA,NA,NA,NA,NA,NA,NA,NA,NA,NA,4,0,4,0,1,NA,NA,NA,NA,NA,NA,NA,NA,NA,NA,NA,NA,NA,NA,NA,NA,NA,NA,NA,NA,NA,NA,NA
SUPAMT61541,39PAAFCODSZVSHSQJW8DV3KBKQYVT0,98C08389-4276-4267-A6E5-E887D67CC43C,2023-09-26_10h28.54.751,WP_VExplicitOC_LH,2022.2.5,Win32,11.03898971,NA,NA,2.1224,NA,NA,NA,NA,NA,frustrated,"frustrated, not frustrated","more frustrated, less frustrated",NA,NA,NA,NA,NA,NA,NA,NA,NA,NA,NA,NA,NA,NA,NA,0,0,0,1,1,NA,NA,NA,NA,NA,NA,NA,NA,NA,NA,NA,NA,NA,NA,NA,NA,NA,NA,NA,NA,NA,NA,NA,NA,NA,NA,NA,NA
SUPAMT61541,39PAAFCODSZVSHSQJW8DV3KBKQYVT0,98C08389-4276-4267-A6E5-E887D67CC43C,2023-09-26_10h28.54.751,WP_VExplicitOC_LH,2022.2.5,Win32,11.03898971,NA,NA,2.0479,NA,NA,NA,NA,NA,bored,"bored, not bored","more bored, less bored",NA,NA,NA,NA,NA,NA,NA,NA,NA,NA,NA,NA,NA,NA,NA,0,1,1,2,1,NA,NA,NA,NA,NA,NA,NA,NA,NA,NA,NA,NA,NA,NA,NA,NA,NA,NA,NA,NA,NA,NA,NA,NA,NA,NA,NA,NA
SUPAMT61541,39PAAFCODSZVSHSQJW8DV3KBKQYVT0,98C08389-4276-4267-A6E5-E887D67CC43C,2023-09-26_10h28.54.751,WP_VExplicitOC_LH,2022.2.5,Win32,11.03898971,NA,NA,2.085,NA,NA,NA,NA,NA,happy,"unhappy, happy","less happy, more happy",NA,NA,NA,NA,NA,NA,NA,NA,NA,NA,NA,NA,NA,NA,NA,0,2,2,0,1,NA,NA,NA,NA,NA,NA,NA,NA,NA,NA,NA,NA,NA,NA,NA,NA,NA,NA,NA,NA,NA,NA,NA,NA,NA,NA,NA,NA
SUPAMT61541,39PAAFCODSZVSHSQJW8DV3KBKQYVT0,98C08389-4276-4267-A6E5-E887D67CC43C,2023-09-26_10h28.54.751,WP_VExplicitOC_LH,2022.2.5,Win32,11.03898971,NA,NA,NA,NA,NA,NA,NA,NA,NA,NA,NA,NA,NA,NA,NA,NA,NA,NA,NA,NA,NA,NA,NA,NA,NA,NA,NA,NA,NA,NA,NA,5,0,5,0,1,NA,NA,NA,NA,NA,NA,NA,NA,NA,NA,NA,NA,NA,NA,NA,NA,NA,NA,NA,NA,NA,NA,NA
SUPAMT61541,39PAAFCODSZVSHSQJW8DV3KBKQYVT0,98C08389-4276-4267-A6E5-E887D67CC43C,2023-09-26_10h28.54.751,WP_VExplicitOC_LH,2022.2.5,Win32,11.03898971,NA,NA,2.0085,NA,NA,NA,NA,NA,bored,"bored, not bored","more bored, less bored",NA,NA,NA,NA,NA,NA,NA,NA,NA,NA,NA,NA,NA,NA,NA,0,0,0,2,1,NA,NA,NA,NA,NA,NA,NA,NA,NA,NA,NA,NA,NA,NA,NA,NA,NA,NA,NA,NA,NA,NA,NA,NA,NA,NA,NA,NA
SUPAMT61541,39PAAFCODSZVSHSQJW8DV3KBKQYVT0,98C08389-4276-4267-A6E5-E887D67CC43C,2023-09-26_10h28.54.751,WP_VExplicitOC_LH,2022.2.5,Win32,11.03898971,NA,NA,2.0051,NA,NA,NA,NA,NA,frustrated,"frustrated, not frustrated","more frustrated, less frustrated",NA,NA,NA,NA,NA,NA,NA,NA,NA,NA,NA,NA,NA,NA,NA,0,1,1,1,1,NA,NA,NA,NA,NA,NA,NA,NA,NA,NA,NA,NA,NA,NA,NA,NA,NA,NA,NA,NA,NA,NA,NA,NA,NA,NA,NA,NA
SUPAMT61541,39PAAFCODSZVSHSQJW8DV3KBKQYVT0,98C08389-4276-4267-A6E5-E887D67CC43C,2023-09-26_10h28.54.751,WP_VExplicitOC_LH,2022.2.5,Win32,11.03898971,NA,NA,2.0766,NA,NA,NA,NA,NA,happy,"unhappy, happy","less happy, more happy",NA,NA,NA,NA,NA,NA,NA,NA,NA,NA,NA,NA,NA,NA,NA,0,2,2,0,1,NA,NA,NA,NA,NA,NA,NA,NA,NA,NA,NA,NA,NA,NA,NA,NA,NA,NA,NA,NA,NA,NA,NA,NA,NA,NA,NA,NA
SUPAMT61541,39PAAFCODSZVSHSQJW8DV3KBKQYVT0,98C08389-4276-4267-A6E5-E887D67CC43C,2023-09-26_10h28.54.751,WP_VExplicitOC_LH,2022.2.5,Win32,11.03898971,NA,NA,NA,NA,NA,NA,NA,NA,NA,NA,NA,NA,NA,NA,NA,NA,NA,NA,NA,NA,NA,NA,NA,NA,NA,NA,NA,NA,NA,NA,NA,6,0,6,0,1,NA,NA,NA,NA,NA,NA,NA,NA,NA,NA,NA,NA,NA,NA,NA,NA,NA,NA,NA,NA,NA,NA,NA
SUPAMT61541,39PAAFCODSZVSHSQJW8DV3KBKQYVT0,98C08389-4276-4267-A6E5-E887D67CC43C,2023-09-26_10h28.54.751,WP_VExplicitOC_LH,2022.2.5,Win32,11.03898971,NA,NA,2.0208,NA,NA,NA,NA,NA,frustrated,"frustrated, not frustrated","more frustrated, less frustrated",NA,NA,NA,NA,NA,NA,NA,NA,NA,NA,NA,NA,NA,NA,NA,0,0,0,1,1,NA,NA,NA,NA,NA,NA,NA,NA,NA,NA,NA,NA,NA,NA,NA,NA,NA,NA,NA,NA,NA,NA,NA,NA,NA,NA,NA,NA
SUPAMT61541,39PAAFCODSZVSHSQJW8DV3KBKQYVT0,98C08389-4276-4267-A6E5-E887D67CC43C,2023-09-26_10h28.54.751,WP_VExplicitOC_LH,2022.2.5,Win32,11.03898971,NA,NA,2.069,NA,NA,NA,NA,NA,happy,"unhappy, happy","less happy, more happy",NA,NA,NA,NA,NA,NA,NA,NA,NA,NA,NA,NA,NA,NA,NA,0,1,1,0,1,NA,NA,NA,NA,NA,NA,NA,NA,NA,NA,NA,NA,NA,NA,NA,NA,NA,NA,NA,NA,NA,NA,NA,NA,NA,NA,NA,NA
SUPAMT61541,39PAAFCODSZVSHSQJW8DV3KBKQYVT0,98C08389-4276-4267-A6E5-E887D67CC43C,2023-09-26_10h28.54.751,WP_VExplicitOC_LH,2022.2.5,Win32,11.03898971,NA,NA,2.0049,NA,NA,NA,NA,NA,bored,"bored, not bored","more bored, less bored",NA,NA,NA,NA,NA,NA,NA,NA,NA,NA,NA,NA,NA,NA,NA,0,2,2,2,1,NA,NA,NA,NA,NA,NA,NA,NA,NA,NA,NA,NA,NA,NA,NA,NA,NA,NA,NA,NA,NA,NA,NA,NA,NA,NA,NA,NA
SUPAMT61541,39PAAFCODSZVSHSQJW8DV3KBKQYVT0,98C08389-4276-4267-A6E5-E887D67CC43C,2023-09-26_10h28.54.751,WP_VExplicitOC_LH,2022.2.5,Win32,11.03898971,NA,NA,NA,NA,NA,NA,NA,NA,NA,NA,NA,NA,NA,NA,NA,NA,NA,NA,NA,NA,NA,NA,NA,NA,NA,NA,NA,NA,NA,NA,NA,7,0,7,0,1,NA,NA,NA,NA,NA,NA,NA,NA,NA,NA,NA,NA,NA,NA,NA,NA,NA,NA,NA,NA,NA,NA,NA
SUPAMT61541,39PAAFCODSZVSHSQJW8DV3KBKQYVT0,98C08389-4276-4267-A6E5-E887D67CC43C,2023-09-26_10h28.54.751,WP_VExplicitOC_LH,2022.2.5,Win32,11.03898971,NA,NA,2.0981,NA,NA,NA,NA,NA,bored,"bored, not bored","more bored, less bored",NA,NA,NA,NA,NA,NA,NA,NA,NA,NA,NA,NA,NA,NA,NA,0,0,0,2,1,NA,NA,NA,NA,NA,NA,NA,NA,NA,NA,NA,NA,NA,NA,NA,NA,NA,NA,NA,NA,NA,NA,NA,NA,NA,NA,NA,NA
SUPAMT61541,39PAAFCODSZVSHSQJW8DV3KBKQYVT0,98C08389-4276-4267-A6E5-E887D67CC43C,2023-09-26_10h28.54.751,WP_VExplicitOC_LH,2022.2.5,Win32,11.03898971,NA,NA,2.0261,NA,NA,NA,NA,NA,frustrated,"frustrated, not frustrated","more frustrated, less frustrated",NA,NA,NA,NA,NA,NA,NA,NA,NA,NA,NA,NA,NA,NA,NA,0,1,1,1,1,NA,NA,NA,NA,NA,NA,NA,NA,NA,NA,NA,NA,NA,NA,NA,NA,NA,NA,NA,NA,NA,NA,NA,NA,NA,NA,NA,NA
SUPAMT61541,39PAAFCODSZVSHSQJW8DV3KBKQYVT0,98C08389-4276-4267-A6E5-E887D67CC43C,2023-09-26_10h28.54.751,WP_VExplicitOC_LH,2022.2.5,Win32,11.03898971,NA,NA,2.0743,NA,NA,NA,NA,NA,happy,"unhappy, happy","less happy, more happy",NA,NA,NA,NA,NA,NA,NA,NA,NA,NA,NA,NA,NA,NA,NA,0,2,2,0,1,NA,NA,NA,NA,NA,NA,NA,NA,NA,NA,NA,NA,NA,NA,NA,NA,NA,NA,NA,NA,NA,NA,NA,NA,NA,NA,NA,NA
SUPAMT61541,39PAAFCODSZVSHSQJW8DV3KBKQYVT0,98C08389-4276-4267-A6E5-E887D67CC43C,2023-09-26_10h28.54.751,WP_VExplicitOC_LH,2022.2.5,Win32,11.03898971,NA,NA,NA,NA,NA,NA,NA,NA,NA,NA,NA,NA,NA,NA,NA,NA,NA,NA,NA,NA,NA,NA,NA,NA,NA,NA,NA,NA,NA,NA,NA,8,0,8,0,1,NA,NA,NA,NA,NA,NA,NA,NA,NA,NA,NA,NA,NA,NA,NA,NA,NA,NA,NA,NA,NA,NA,NA
SUPAMT61541,39PAAFCODSZVSHSQJW8DV3KBKQYVT0,98C08389-4276-4267-A6E5-E887D67CC43C,2023-09-26_10h28.54.751,WP_VExplicitOC_LH,2022.2.5,Win32,11.03898971,NA,NA,2.1257,NA,NA,NA,NA,NA,frustrated,"frustrated, not frustrated","more frustrated, less frustrated",NA,NA,NA,NA,NA,NA,NA,NA,NA,NA,NA,NA,NA,NA,NA,0,0,0,1,1,NA,NA,NA,NA,NA,NA,NA,NA,NA,NA,NA,NA,NA,NA,NA,NA,NA,NA,NA,NA,NA,NA,NA,NA,NA,NA,NA,NA
SUPAMT61541,39PAAFCODSZVSHSQJW8DV3KBKQYVT0,98C08389-4276-4267-A6E5-E887D67CC43C,2023-09-26_10h28.54.751,WP_VExplicitOC_LH,2022.2.5,Win32,11.03898971,NA,NA,2.0393,NA,NA,NA,NA,NA,happy,"unhappy, happy","less happy, more happy",NA,NA,NA,NA,NA,NA,NA,NA,NA,NA,NA,NA,NA,NA,NA,0,1,1,0,1,NA,NA,NA,NA,NA,NA,NA,NA,NA,NA,NA,NA,NA,NA,NA,NA,NA,NA,NA,NA,NA,NA,NA,NA,NA,NA,NA,NA
SUPAMT61541,39PAAFCODSZVSHSQJW8DV3KBKQYVT0,98C08389-4276-4267-A6E5-E887D67CC43C,2023-09-26_10h28.54.751,WP_VExplicitOC_LH,2022.2.5,Win32,11.03898971,NA,NA,2.0666,NA,NA,NA,NA,NA,bored,"bored, not bored","more bored, less bored",NA,NA,NA,NA,NA,NA,NA,NA,NA,NA,NA,NA,NA,NA,NA,0,2,2,2,1,NA,NA,NA,NA,NA,NA,NA,NA,NA,NA,NA,NA,NA,NA,NA,NA,NA,NA,NA,NA,NA,NA,NA,NA,NA,NA,NA,NA
SUPAMT61541,39PAAFCODSZVSHSQJW8DV3KBKQYVT0,98C08389-4276-4267-A6E5-E887D67CC43C,2023-09-26_10h28.54.751,WP_VExplicitOC_LH,2022.2.5,Win32,11.03898971,NA,NA,NA,NA,NA,NA,NA,NA,NA,NA,NA,NA,NA,NA,NA,NA,NA,NA,NA,NA,NA,NA,NA,NA,NA,NA,NA,NA,NA,NA,NA,9,0,9,0,1,NA,NA,NA,NA,NA,NA,NA,NA,NA,NA,NA,NA,NA,NA,NA,NA,NA,NA,NA,NA,NA,NA,NA
SUPAMT61541,39PAAFCODSZVSHSQJW8DV3KBKQYVT0,98C08389-4276-4267-A6E5-E887D67CC43C,2023-09-26_10h28.54.751,WP_VExplicitOC_LH,2022.2.5,Win32,11.03898971,NA,NA,2.0914,NA,NA,NA,NA,NA,frustrated,"frustrated, not frustrated","more frustrated, less frustrated",NA,NA,NA,NA,NA,NA,NA,NA,NA,NA,NA,NA,NA,NA,NA,0,0,0,1,1,NA,NA,NA,NA,NA,NA,NA,NA,NA,NA,NA,NA,NA,NA,NA,NA,NA,NA,NA,NA,NA,NA,NA,NA,NA,NA,NA,NA
SUPAMT61541,39PAAFCODSZVSHSQJW8DV3KBKQYVT0,98C08389-4276-4267-A6E5-E887D67CC43C,2023-09-26_10h28.54.751,WP_VExplicitOC_LH,2022.2.5,Win32,11.03898971,NA,NA,2.0451,NA,NA,NA,NA,NA,bored,"bored, not bored","more bored, less bored",NA,NA,NA,NA,NA,NA,NA,NA,NA,NA,NA,NA,NA,NA,NA,0,1,1,2,1,NA,NA,NA,NA,NA,NA,NA,NA,NA,NA,NA,NA,NA,NA,NA,NA,NA,NA,NA,NA,NA,NA,NA,NA,NA,NA,NA,NA
SUPAMT61541,39PAAFCODSZVSHSQJW8DV3KBKQYVT0,98C08389-4276-4267-A6E5-E887D67CC43C,2023-09-26_10h28.54.751,WP_VExplicitOC_LH,2022.2.5,Win32,11.03898971,NA,NA,2.1143,NA,NA,NA,NA,NA,happy,"unhappy, happy","less happy, more happy",NA,NA,NA,NA,NA,NA,NA,NA,NA,NA,NA,NA,NA,NA,NA,0,2,2,0,1,NA,NA,NA,NA,NA,NA,NA,NA,NA,NA,NA,NA,NA,NA,NA,NA,NA,NA,NA,NA,NA,NA,NA,NA,NA,NA,NA,NA
SUPAMT61541,39PAAFCODSZVSHSQJW8DV3KBKQYVT0,98C08389-4276-4267-A6E5-E887D67CC43C,2023-09-26_10h28.54.751,WP_VExplicitOC_LH,2022.2.5,Win32,11.03898971,NA,NA,NA,NA,NA,NA,NA,NA,NA,NA,NA,NA,NA,NA,NA,NA,NA,NA,NA,NA,NA,NA,NA,NA,NA,NA,NA,NA,NA,NA,NA,10,0,10,0,1,NA,NA,NA,NA,NA,NA,NA,NA,NA,NA,NA,NA,NA,NA,NA,NA,NA,NA,NA,NA,NA,NA,NA
SUPAMT61541,39PAAFCODSZVSHSQJW8DV3KBKQYVT0,98C08389-4276-4267-A6E5-E887D67CC43C,2023-09-26_10h28.54.751,WP_VExplicitOC_LH,2022.2.5,Win32,11.03898971,NA,NA,2.0713,NA,NA,NA,NA,NA,bored,"bored, not bored","more bored, less bored",NA,NA,NA,NA,NA,NA,NA,NA,NA,NA,NA,NA,NA,NA,NA,0,0,0,2,1,NA,NA,NA,NA,NA,NA,NA,NA,NA,NA,NA,NA,NA,NA,NA,NA,NA,NA,NA,NA,NA,NA,NA,NA,NA,NA,NA,NA
SUPAMT61541,39PAAFCODSZVSHSQJW8DV3KBKQYVT0,98C08389-4276-4267-A6E5-E887D67CC43C,2023-09-26_10h28.54.751,WP_VExplicitOC_LH,2022.2.5,Win32,11.03898971,NA,NA,2.0767,NA,NA,NA,NA,NA,frustrated,"frustrated, not frustrated","more frustrated, less frustrated",NA,NA,NA,NA,NA,NA,NA,NA,NA,NA,NA,NA,NA,NA,NA,0,1,1,1,1,NA,NA,NA,NA,NA,NA,NA,NA,NA,NA,NA,NA,NA,NA,NA,NA,NA,NA,NA,NA,NA,NA,NA,NA,NA,NA,NA,NA
SUPAMT61541,39PAAFCODSZVSHSQJW8DV3KBKQYVT0,98C08389-4276-4267-A6E5-E887D67CC43C,2023-09-26_10h28.54.751,WP_VExplicitOC_LH,2022.2.5,Win32,11.03898971,NA,NA,2.0194,NA,NA,NA,NA,NA,happy,"unhappy, happy","less happy, more happy",NA,NA,NA,NA,NA,NA,NA,NA,NA,NA,NA,NA,NA,NA,NA,0,2,2,0,1,NA,NA,NA,NA,NA,NA,NA,NA,NA,NA,NA,NA,NA,NA,NA,NA,NA,NA,NA,NA,NA,NA,NA,NA,NA,NA,NA,NA
SUPAMT61541,39PAAFCODSZVSHSQJW8DV3KBKQYVT0,98C08389-4276-4267-A6E5-E887D67CC43C,2023-09-26_10h28.54.751,WP_VExplicitOC_LH,2022.2.5,Win32,11.03898971,NA,NA,NA,NA,NA,NA,NA,NA,NA,NA,NA,NA,NA,NA,NA,NA,NA,NA,NA,NA,NA,NA,NA,NA,NA,NA,NA,NA,NA,NA,NA,11,0,11,0,1,NA,NA,NA,NA,NA,NA,NA,NA,NA,NA,NA,NA,NA,NA,NA,NA,NA,NA,NA,NA,NA,NA,NA
SUPAMT61541,39PAAFCODSZVSHSQJW8DV3KBKQYVT0,98C08389-4276-4267-A6E5-E887D67CC43C,2023-09-26_10h28.54.751,WP_VExplicitOC_LH,2022.2.5,Win32,11.03898971,72.88888889,3.9153,2.1323,NA,NA,NA,NA,NA,bored,"bored, not bored","more bored, less bored",NA,NA,NA,NA,NA,NA,NA,NA,NA,NA,NA,NA,NA,NA,NA,0,0,0,2,1,NA,NA,NA,NA,NA,NA,NA,NA,NA,NA,NA,NA,NA,NA,NA,NA,NA,NA,NA,NA,NA,NA,NA,NA,NA,NA,NA,NA
SUPAMT61541,39PAAFCODSZVSHSQJW8DV3KBKQYVT0,98C08389-4276-4267-A6E5-E887D67CC43C,2023-09-26_10h28.54.751,WP_VExplicitOC_LH,2022.2.5,Win32,11.03898971,71.77777778,3.7958,2.0113,NA,NA,NA,NA,NA,happy,"unhappy, happy","less happy, more happy",NA,NA,NA,NA,NA,NA,NA,NA,NA,NA,NA,NA,NA,NA,NA,0,1,1,0,1,NA,NA,NA,NA,NA,NA,NA,NA,NA,NA,NA,NA,NA,NA,NA,NA,NA,NA,NA,NA,NA,NA,NA,NA,NA,NA,NA,NA
SUPAMT61541,39PAAFCODSZVSHSQJW8DV3KBKQYVT0,98C08389-4276-4267-A6E5-E887D67CC43C,2023-09-26_10h28.54.751,WP_VExplicitOC_LH,2022.2.5,Win32,11.03898971,76,3.8304,2.0164,NA,NA,NA,NA,NA,frustrated,"frustrated, not frustrated","more frustrated, less frustrated",NA,NA,NA,NA,NA,NA,NA,NA,NA,NA,NA,NA,NA,NA,NA,0,2,2,1,1,NA,NA,NA,NA,NA,NA,NA,NA,NA,NA,NA,NA,NA,NA,NA,NA,NA,NA,NA,NA,NA,NA,NA,NA,NA,NA,NA,NA
SUPAMT61541,39PAAFCODSZVSHSQJW8DV3KBKQYVT0,98C08389-4276-4267-A6E5-E887D67CC43C,2023-09-26_10h28.54.751,WP_VExplicitOC_LH,2022.2.5,Win32,11.03898971,NA,NA,NA,NA,NA,NA,NA,NA,NA,NA,NA,NA,NA,NA,NA,NA,NA,NA,NA,NA,NA,NA,NA,NA,NA,NA,NA,NA,NA,NA,NA,12,0,12,0,1,NA,NA,NA,NA,NA,NA,NA,NA,NA,NA,NA,NA,NA,NA,NA,NA,NA,NA,NA,NA,NA,NA,NA
SUPAMT61541,39PAAFCODSZVSHSQJW8DV3KBKQYVT0,98C08389-4276-4267-A6E5-E887D67CC43C,2023-09-26_10h28.54.751,WP_VExplicitOC_LH,2022.2.5,Win32,11.03898971,86,3.7006,2.0745,NA,NA,NA,NA,NA,frustrated,"frustrated, not frustrated","more frustrated, less frustrated",NA,NA,NA,NA,NA,NA,NA,NA,NA,NA,NA,NA,NA,NA,NA,0,0,0,1,1,NA,NA,NA,NA,NA,NA,NA,NA,NA,NA,NA,NA,NA,NA,NA,NA,NA,NA,NA,NA,NA,NA,NA,NA,NA,NA,NA,NA
SUPAMT61541,39PAAFCODSZVSHSQJW8DV3KBKQYVT0,98C08389-4276-4267-A6E5-E887D67CC43C,2023-09-26_10h28.54.751,WP_VExplicitOC_LH,2022.2.5,Win32,11.03898971,82.66666667,3.5524,2.0282,NA,NA,NA,NA,NA,happy,"unhappy, happy","less happy, more happy",NA,NA,NA,NA,NA,NA,NA,NA,NA,NA,NA,NA,NA,NA,NA,0,1,1,0,1,NA,NA,NA,NA,NA,NA,NA,NA,NA,NA,NA,NA,NA,NA,NA,NA,NA,NA,NA,NA,NA,NA,NA,NA,NA,NA,NA,NA
SUPAMT61541,39PAAFCODSZVSHSQJW8DV3KBKQYVT0,98C08389-4276-4267-A6E5-E887D67CC43C,2023-09-26_10h28.54.751,WP_VExplicitOC_LH,2022.2.5,Win32,11.03898971,89.55555556,3.6534,2.0721,NA,NA,NA,NA,NA,bored,"bored, not bored","more bored, less bored",NA,NA,NA,NA,NA,NA,NA,NA,NA,NA,NA,NA,NA,NA,NA,0,2,2,2,1,NA,NA,NA,NA,NA,NA,NA,NA,NA,NA,NA,NA,NA,NA,NA,NA,NA,NA,NA,NA,NA,NA,NA,NA,NA,NA,NA,NA
SUPAMT61541,39PAAFCODSZVSHSQJW8DV3KBKQYVT0,98C08389-4276-4267-A6E5-E887D67CC43C,2023-09-26_10h28.54.751,WP_VExplicitOC_LH,2022.2.5,Win32,11.03898971,NA,NA,NA,NA,NA,NA,NA,NA,NA,NA,NA,NA,NA,NA,NA,NA,NA,NA,NA,NA,NA,NA,NA,NA,NA,NA,NA,NA,NA,NA,NA,13,0,13,0,1,NA,NA,NA,NA,NA,NA,NA,NA,NA,NA,NA,NA,NA,NA,NA,NA,NA,NA,NA,NA,NA,NA,NA
SUPAMT61541,39PAAFCODSZVSHSQJW8DV3KBKQYVT0,98C08389-4276-4267-A6E5-E887D67CC43C,2023-09-26_10h28.54.751,WP_VExplicitOC_LH,2022.2.5,Win32,11.03898971,75.77777778,3.6115,2.0737,NA,NA,NA,NA,NA,happy,"unhappy, happy","less happy, more happy",NA,NA,NA,NA,NA,NA,NA,NA,NA,NA,NA,NA,NA,NA,NA,0,0,0,0,1,NA,NA,NA,NA,NA,NA,NA,NA,NA,NA,NA,NA,NA,NA,NA,NA,NA,NA,NA,NA,NA,NA,NA,NA,NA,NA,NA,NA
SUPAMT61541,39PAAFCODSZVSHSQJW8DV3KBKQYVT0,98C08389-4276-4267-A6E5-E887D67CC43C,2023-09-26_10h28.54.751,WP_VExplicitOC_LH,2022.2.5,Win32,11.03898971,86.44444444,3.8627,2.0019,NA,NA,NA,NA,NA,frustrated,"frustrated, not frustrated","more frustrated, less frustrated",NA,NA,NA,NA,NA,NA,NA,NA,NA,NA,NA,NA,NA,NA,NA,0,1,1,1,1,NA,NA,NA,NA,NA,NA,NA,NA,NA,NA,NA,NA,NA,NA,NA,NA,NA,NA,NA,NA,NA,NA,NA,NA,NA,NA,NA,NA
SUPAMT61541,39PAAFCODSZVSHSQJW8DV3KBKQYVT0,98C08389-4276-4267-A6E5-E887D67CC43C,2023-09-26_10h28.54.751,WP_VExplicitOC_LH,2022.2.5,Win32,11.03898971,95.55555556,3.6229,2.0078,NA,NA,NA,NA,NA,bored,"bored, not bored","more bored, less bored",NA,NA,NA,NA,NA,NA,NA,NA,NA,NA,NA,NA,NA,NA,NA,0,2,2,2,1,NA,NA,NA,NA,NA,NA,NA,NA,NA,NA,NA,NA,NA,NA,NA,NA,NA,NA,NA,NA,NA,NA,NA,NA,NA,NA,NA,NA
SUPAMT61541,39PAAFCODSZVSHSQJW8DV3KBKQYVT0,98C08389-4276-4267-A6E5-E887D67CC43C,2023-09-26_10h28.54.751,WP_VExplicitOC_LH,2022.2.5,Win32,11.03898971,NA,NA,NA,NA,NA,NA,NA,NA,NA,NA,NA,NA,NA,NA,NA,NA,NA,NA,NA,NA,NA,NA,NA,NA,NA,NA,NA,NA,NA,NA,NA,14,0,14,0,1,NA,NA,NA,NA,NA,NA,NA,NA,NA,NA,NA,NA,NA,NA,NA,NA,NA,NA,NA,NA,NA,NA,NA
SUPAMT61541,39PAAFCODSZVSHSQJW8DV3KBKQYVT0,98C08389-4276-4267-A6E5-E887D67CC43C,2023-09-26_10h28.54.751,WP_VExplicitOC_LH,2022.2.5,Win32,11.03898971,NA,NA,NA,NA,NA,NA,NA,NA,NA,NA,NA,NA,NA,NA,NA,NA,NA,NA,NA,NA,NA,NA,NA,NA,NA,NA,NA,NA,NA,NA,NA,NA,NA,NA,NA,NA,NA,NA,NA,NA,NA,NA,NA,NA,NA,NA,NA,NA,NA,NA,NA,NA,NA,NA,NA,NA,NA,NA,NA
SUPAMT61541,39PAAFCODSZVSHSQJW8DV3KBKQYVT0,98C08389-4276-4267-A6E5-E887D67CC43C,2023-09-26_10h28.54.751,WP_VExplicitOC_LH,2022.2.5,Win32,11.03898971,NA,NA,NA,NA,NA,NA,NA,NA,NA,NA,NA,NA,NA,NA,NA,NA,NA,NA,NA,NA,NA,NA,NA,NA,NA,NA,NA,NA,NA,NA,NA,NA,NA,NA,NA,NA,NA,NA,NA,NA,NA,NA,NA,NA,NA,NA,NA,NA,NA,NA,NA,NA,NA,NA,NA,NA,NA,NA,NA
SUPAMT61541,39PAAFCODSZVSHSQJW8DV3KBKQYVT0,98C08389-4276-4267-A6E5-E887D67CC43C,2023-09-26_10h28.54.751,WP_VExplicitOC_LH,2022.2.5,Win32,11.03898971,NA,NA,NA,NA,NA,NA,NA,NA,NA,NA,NA,NA,NA,NA,NA,NA,NA,NA,rest (looking at a fixed cross),001.png,NA,NA,NA,NA,NA,NA,NA,NA,NA,NA,NA,NA,NA,NA,NA,NA,46.22222222,2.2288,0,0,0,0,1,NA,NA,NA,NA,NA,NA,NA,NA,NA,NA,NA,NA,NA,NA,NA,NA
SUPAMT61541,39PAAFCODSZVSHSQJW8DV3KBKQYVT0,98C08389-4276-4267-A6E5-E887D67CC43C,2023-09-26_10h28.54.751,WP_VExplicitOC_LH,2022.2.5,Win32,11.03898971,NA,NA,NA,NA,NA,NA,NA,NA,NA,NA,NA,NA,NA,NA,NA,NA,NA,NA,stand up,002.png,NA,NA,NA,NA,NA,NA,NA,NA,NA,NA,NA,NA,NA,NA,NA,NA,56.44444444,1.4024,0,1,1,1,1,NA,NA,NA,NA,NA,NA,NA,NA,NA,NA,NA,NA,NA,NA,NA,NA
SUPAMT61541,39PAAFCODSZVSHSQJW8DV3KBKQYVT0,98C08389-4276-4267-A6E5-E887D67CC43C,2023-09-26_10h28.54.751,WP_VExplicitOC_LH,2022.2.5,Win32,11.03898971,NA,NA,NA,NA,NA,NA,NA,NA,NA,NA,NA,NA,NA,NA,NA,NA,NA,NA,stretch,003.png,NA,NA,NA,NA,NA,NA,NA,NA,NA,NA,NA,NA,NA,NA,NA,NA,61.33333333,1.2689,0,2,2,2,1,NA,NA,NA,NA,NA,NA,NA,NA,NA,NA,NA,NA,NA,NA,NA,NA
SUPAMT61541,39PAAFCODSZVSHSQJW8DV3KBKQYVT0,98C08389-4276-4267-A6E5-E887D67CC43C,2023-09-26_10h28.54.751,WP_VExplicitOC_LH,2022.2.5,Win32,11.03898971,NA,NA,NA,NA,NA,NA,NA,NA,NA,NA,NA,NA,NA,NA,NA,NA,NA,NA,make a drink,004.png,NA,NA,NA,NA,NA,NA,NA,NA,NA,NA,NA,NA,NA,NA,NA,NA,61.33333333,1.0052,0,3,3,3,1,NA,NA,NA,NA,NA,NA,NA,NA,NA,NA,NA,NA,NA,NA,NA,NA
SUPAMT61541,39PAAFCODSZVSHSQJW8DV3KBKQYVT0,98C08389-4276-4267-A6E5-E887D67CC43C,2023-09-26_10h28.54.751,WP_VExplicitOC_LH,2022.2.5,Win32,11.03898971,NA,NA,NA,NA,NA,NA,NA,NA,NA,NA,NA,NA,NA,NA,NA,NA,NA,NA,scroll social media,005.png,NA,NA,NA,NA,NA,NA,NA,NA,NA,NA,NA,NA,NA,NA,NA,NA,61.33333333,1.1397,0,4,4,4,1,NA,NA,NA,NA,NA,NA,NA,NA,NA,NA,NA,NA,NA,NA,NA,NA
SUPAMT61541,39PAAFCODSZVSHSQJW8DV3KBKQYVT0,98C08389-4276-4267-A6E5-E887D67CC43C,2023-09-26_10h28.54.751,WP_VExplicitOC_LH,2022.2.5,Win32,11.03898971,NA,NA,NA,NA,NA,NA,NA,NA,NA,NA,NA,NA,NA,NA,NA,NA,NA,NA,listen to music,006.png,NA,NA,NA,NA,NA,NA,NA,NA,NA,NA,NA,NA,NA,NA,NA,NA,61.33333333,0.8397,0,5,5,5,1,NA,NA,NA,NA,NA,NA,NA,NA,NA,NA,NA,NA,NA,NA,NA,NA
SUPAMT61541,39PAAFCODSZVSHSQJW8DV3KBKQYVT0,98C08389-4276-4267-A6E5-E887D67CC43C,2023-09-26_10h28.54.751,WP_VExplicitOC_LH,2022.2.5,Win32,11.03898971,NA,NA,NA,NA,NA,NA,NA,NA,NA,NA,NA,NA,NA,NA,NA,NA,NA,NA,daydream,007.png,NA,NA,NA,NA,NA,NA,NA,NA,NA,NA,NA,NA,NA,NA,NA,NA,61.33333333,0.9229,0,6,6,6,1,NA,NA,NA,NA,NA,NA,NA,NA,NA,NA,NA,NA,NA,NA,NA,NA
SUPAMT61541,39PAAFCODSZVSHSQJW8DV3KBKQYVT0,98C08389-4276-4267-A6E5-E887D67CC43C,2023-09-26_10h28.54.751,WP_VExplicitOC_LH,2022.2.5,Win32,11.03898971,NA,NA,NA,NA,NA,NA,NA,NA,NA,NA,NA,NA,NA,NA,NA,NA,NA,NA,watch a short animation,008.png,NA,NA,NA,NA,NA,NA,NA,NA,NA,NA,NA,NA,NA,NA,NA,NA,61.33333333,0.6789,0,7,7,7,1,NA,NA,NA,NA,NA,NA,NA,NA,NA,NA,NA,NA,NA,NA,NA,NA
SUPAMT61541,39PAAFCODSZVSHSQJW8DV3KBKQYVT0,98C08389-4276-4267-A6E5-E887D67CC43C,2023-09-26_10h28.54.751,WP_VExplicitOC_LH,2022.2.5,Win32,11.03898971,NA,NA,NA,NA,NA,NA,NA,NA,NA,NA,NA,NA,NA,NA,NA,NA,NA,NA,read a novel,009.png,NA,NA,NA,NA,NA,NA,NA,NA,NA,NA,NA,NA,NA,NA,NA,NA,61.33333333,0.9383,0,8,8,8,1,NA,NA,NA,NA,NA,NA,NA,NA,NA,NA,NA,NA,NA,NA,NA,NA
SUPAMT61541,39PAAFCODSZVSHSQJW8DV3KBKQYVT0,98C08389-4276-4267-A6E5-E887D67CC43C,2023-09-26_10h28.54.751,WP_VExplicitOC_LH,2022.2.5,Win32,11.03898971,NA,NA,NA,NA,NA,NA,NA,NA,NA,NA,NA,NA,NA,NA,NA,NA,NA,NA,read the news,010.png,NA,NA,NA,NA,NA,NA,NA,NA,NA,NA,NA,NA,NA,NA,NA,NA,61.33333333,0.7977,0,9,9,9,1,NA,NA,NA,NA,NA,NA,NA,NA,NA,NA,NA,NA,NA,NA,NA,NA
SUPAMT61541,39PAAFCODSZVSHSQJW8DV3KBKQYVT0,98C08389-4276-4267-A6E5-E887D67CC43C,2023-09-26_10h28.54.751,WP_VExplicitOC_LH,2022.2.5,Win32,11.03898971,NA,NA,NA,NA,NA,NA,NA,NA,NA,NA,NA,NA,NA,NA,NA,NA,NA,NA,NA,NA,NA,NA,NA,NA,NA,NA,NA,NA,NA,NA,NA,NA,NA,NA,NA,NA,NA,NA,NA,NA,NA,NA,NA,stretch,NA,NA,NA,NA,NA,NA,NA,NA,NA,NA,NA,NA,NA,NA,NA
SUPAMT61541,39PAAFCODSZVSHSQJW8DV3KBKQYVT0,98C08389-4276-4267-A6E5-E887D67CC43C,2023-09-26_10h28.54.751,WP_VExplicitOC_LH,2022.2.5,Win32,11.03898971,61.11111111,4.0085,2.1272,NA,NA,NA,NA,NA,frustrated,"frustrated, not frustrated","more frustrated, less frustrated",NA,NA,NA,NA,NA,NA,NA,NA,NA,NA,NA,NA,NA,NA,NA,NA,NA,NA,NA,NA,NA,NA,NA,NA,NA,NA,NA,NA,NA,NA,NA,NA,NA,0,0,0,1,1,NA,NA,NA,NA,NA,NA,NA,NA,NA,NA
SUPAMT61541,39PAAFCODSZVSHSQJW8DV3KBKQYVT0,98C08389-4276-4267-A6E5-E887D67CC43C,2023-09-26_10h28.54.751,WP_VExplicitOC_LH,2022.2.5,Win32,11.03898971,79.77777778,3.6328,2.1006,NA,NA,NA,NA,NA,happy,"unhappy, happy","less happy, more happy",NA,NA,NA,NA,NA,NA,NA,NA,NA,NA,NA,NA,NA,NA,NA,NA,NA,NA,NA,NA,NA,NA,NA,NA,NA,NA,NA,NA,NA,NA,NA,NA,NA,0,1,1,0,1,NA,NA,NA,NA,NA,NA,NA,NA,NA,NA
SUPAMT61541,39PAAFCODSZVSHSQJW8DV3KBKQYVT0,98C08389-4276-4267-A6E5-E887D67CC43C,2023-09-26_10h28.54.751,WP_VExplicitOC_LH,2022.2.5,Win32,11.03898971,78.66666667,3.5206,2.0037,NA,NA,NA,NA,NA,bored,"bored, not bored","more bored, less bored",NA,NA,NA,NA,NA,NA,NA,NA,NA,NA,NA,NA,NA,NA,NA,NA,NA,NA,NA,NA,NA,NA,NA,NA,NA,NA,NA,NA,NA,NA,NA,NA,NA,0,2,2,2,1,NA,NA,NA,NA,NA,NA,NA,NA,NA,NA
SUPAMT61541,39PAAFCODSZVSHSQJW8DV3KBKQYVT0,98C08389-4276-4267-A6E5-E887D67CC43C,2023-09-26_10h28.54.751,WP_VExplicitOC_LH,2022.2.5,Win32,11.03898971,NA,NA,NA,NA,NA,NA,NA,NA,NA,NA,NA,NA,NA,NA,NA,NA,NA,NA,NA,NA,NA,NA,NA,NA,NA,NA,NA,NA,NA,NA,NA,NA,NA,NA,NA,NA,NA,NA,NA,NA,NA,NA,NA,NA,NA,NA,NA,NA,NA,NA,NA,NA,NA,NA,NA,NA,NA,NA,NA
SUPAMT61541,39PAAFCODSZVSHSQJW8DV3KBKQYVT0,98C08389-4276-4267-A6E5-E887D67CC43C,2023-09-26_10h28.54.751,WP_VExplicitOC_LH,2022.2.5,Win32,11.03898971,NA,NA,NA,NA,NA,NA,NA,NA,NA,NA,NA,NA,NA,NA,NA,NA,NA,NA,NA,NA,NA,NA,NA,NA,NA,NA,NA,NA,NA,NA,NA,NA,NA,NA,NA,NA,NA,NA,NA,NA,NA,NA,NA,NA,NA,NA,NA,NA,NA,NA,NA,NA,NA,NA,NA,NA,NA,NA,NA
SUPAMT61541,39PAAFCODSZVSHSQJW8DV3KBKQYVT0,98C08389-4276-4267-A6E5-E887D67CC43C,2023-09-26_10h28.54.751,WP_VExplicitOC_LH,2022.2.5,Win32,11.03898971,99.55555556,4.9943,2.0646,NA,NA,NA,NA,NA,happy,"unhappy, happy","less happy, more happy",NA,NA,NA,NA,NA,NA,NA,NA,NA,NA,NA,NA,NA,NA,NA,NA,NA,NA,NA,NA,NA,NA,NA,NA,NA,NA,NA,NA,NA,NA,NA,NA,NA,NA,NA,NA,NA,NA,0,0,0,0,1,NA,NA,NA,NA,NA
SUPAMT61541,39PAAFCODSZVSHSQJW8DV3KBKQYVT0,98C08389-4276-4267-A6E5-E887D67CC43C,2023-09-26_10h28.54.751,WP_VExplicitOC_LH,2022.2.5,Win32,11.03898971,98.66666667,4.5911,2.0485,NA,NA,NA,NA,NA,bored,"bored, not bored","more bored, less bored",NA,NA,NA,NA,NA,NA,NA,NA,NA,NA,NA,NA,NA,NA,NA,NA,NA,NA,NA,NA,NA,NA,NA,NA,NA,NA,NA,NA,NA,NA,NA,NA,NA,NA,NA,NA,NA,NA,0,1,1,2,1,NA,NA,NA,NA,NA
SUPAMT61541,39PAAFCODSZVSHSQJW8DV3KBKQYVT0,98C08389-4276-4267-A6E5-E887D67CC43C,2023-09-26_10h28.54.751,WP_VExplicitOC_LH,2022.2.5,Win32,11.03898971,93.33333333,4.1427,2,NA,NA,NA,NA,NA,frustrated,"frustrated, not frustrated","more frustrated, less frustrated",NA,NA,NA,NA,NA,NA,NA,NA,NA,NA,NA,NA,NA,NA,NA,NA,NA,NA,NA,NA,NA,NA,NA,NA,NA,NA,NA,NA,NA,NA,NA,NA,NA,NA,NA,NA,NA,NA,0,2,2,1,1,NA,NA,NA,NA,NA
SUPAMT61541,39PAAFCODSZVSHSQJW8DV3KBKQYVT0,98C08389-4276-4267-A6E5-E887D67CC43C,2023-09-26_10h28.54.751,WP_VExplicitOC_LH,2022.2.5,Win32,11.03898971,NA,NA,NA,NA,NA,NA,NA,NA,NA,NA,NA,NA,NA,NA,NA,NA,NA,NA,NA,NA,NA,NA,NA,NA,NA,NA,NA,NA,NA,NA,NA,NA,NA,NA,NA,NA,NA,NA,NA,NA,NA,NA,NA,NA,NA,NA,NA,NA,NA,NA,NA,NA,NA,NA,0,0,0,0,1
SUPAMT61541,39PAAFCODSZVSHSQJW8DV3KBKQYVT0,98C08389-4276-4267-A6E5-E887D67CC43C,2023-09-26_10h28.54.751,WP_VExplicitOC_LH,2022.2.5,Win32,11.03898971,77.55555556,4.0909,2.0612,NA,NA,NA,NA,NA,frustrated,"frustrated, not frustrated","more frustrated, less frustrated",NA,NA,NA,NA,NA,NA,NA,NA,NA,NA,NA,NA,NA,NA,NA,NA,NA,NA,NA,NA,NA,NA,NA,NA,NA,NA,NA,NA,NA,NA,NA,NA,NA,NA,NA,NA,NA,NA,0,0,0,1,1,NA,NA,NA,NA,NA
SUPAMT61541,39PAAFCODSZVSHSQJW8DV3KBKQYVT0,98C08389-4276-4267-A6E5-E887D67CC43C,2023-09-26_10h28.54.751,WP_VExplicitOC_LH,2022.2.5,Win32,11.03898971,91.11111111,4.0283,2.0686,NA,NA,NA,NA,NA,happy,"unhappy, happy","less happy, more happy",NA,NA,NA,NA,NA,NA,NA,NA,NA,NA,NA,NA,NA,NA,NA,NA,NA,NA,NA,NA,NA,NA,NA,NA,NA,NA,NA,NA,NA,NA,NA,NA,NA,NA,NA,NA,NA,NA,0,1,1,0,1,NA,NA,NA,NA,NA
SUPAMT61541,39PAAFCODSZVSHSQJW8DV3KBKQYVT0,98C08389-4276-4267-A6E5-E887D67CC43C,2023-09-26_10h28.54.751,WP_VExplicitOC_LH,2022.2.5,Win32,11.03898971,66.88888889,3.7278,2.0262,NA,NA,NA,NA,NA,bored,"bored, not bored","more bored, less bored",NA,NA,NA,NA,NA,NA,NA,NA,NA,NA,NA,NA,NA,NA,NA,NA,NA,NA,NA,NA,NA,NA,NA,NA,NA,NA,NA,NA,NA,NA,NA,NA,NA,NA,NA,NA,NA,NA,0,2,2,2,1,NA,NA,NA,NA,NA
SUPAMT61541,39PAAFCODSZVSHSQJW8DV3KBKQYVT0,98C08389-4276-4267-A6E5-E887D67CC43C,2023-09-26_10h28.54.751,WP_VExplicitOC_LH,2022.2.5,Win32,11.03898971,NA,NA,NA,NA,NA,NA,NA,NA,NA,NA,NA,NA,NA,NA,NA,NA,NA,NA,NA,NA,NA,NA,NA,NA,NA,NA,NA,NA,NA,NA,NA,NA,NA,NA,NA,NA,NA,NA,NA,NA,NA,NA,NA,NA,NA,NA,NA,NA,NA,NA,NA,NA,NA,NA,1,0,1,0,1
SUPAMT61541,39PAAFCODSZVSHSQJW8DV3KBKQYVT0,98C08389-4276-4267-A6E5-E887D67CC43C,2023-09-26_10h28.54.751,WP_VExplicitOC_LH,2022.2.5,Win32,11.03898971,90.44444444,4.8494,2.0537,NA,NA,NA,NA,NA,happy,"unhappy, happy","less happy, more happy",NA,NA,NA,NA,NA,NA,NA,NA,NA,NA,NA,NA,NA,NA,NA,NA,NA,NA,NA,NA,NA,NA,NA,NA,NA,NA,NA,NA,NA,NA,NA,NA,NA,NA,NA,NA,NA,NA,0,0,0,0,1,NA,NA,NA,NA,NA
SUPAMT61541,39PAAFCODSZVSHSQJW8DV3KBKQYVT0,98C08389-4276-4267-A6E5-E887D67CC43C,2023-09-26_10h28.54.751,WP_VExplicitOC_LH,2022.2.5,Win32,11.03898971,90.44444444,4.0015,2.0945,NA,NA,NA,NA,NA,bored,"bored, not bored","more bored, less bored",NA,NA,NA,NA,NA,NA,NA,NA,NA,NA,NA,NA,NA,NA,NA,NA,NA,NA,NA,NA,NA,NA,NA,NA,NA,NA,NA,NA,NA,NA,NA,NA,NA,NA,NA,NA,NA,NA,0,1,1,2,1,NA,NA,NA,NA,NA
SUPAMT61541,39PAAFCODSZVSHSQJW8DV3KBKQYVT0,98C08389-4276-4267-A6E5-E887D67CC43C,2023-09-26_10h28.54.751,WP_VExplicitOC_LH,2022.2.5,Win32,11.03898971,100,5.0526,2.0299,NA,NA,NA,NA,NA,frustrated,"frustrated, not frustrated","more frustrated, less frustrated",NA,NA,NA,NA,NA,NA,NA,NA,NA,NA,NA,NA,NA,NA,NA,NA,NA,NA,NA,NA,NA,NA,NA,NA,NA,NA,NA,NA,NA,NA,NA,NA,NA,NA,NA,NA,NA,NA,0,2,2,1,1,NA,NA,NA,NA,NA
SUPAMT61541,39PAAFCODSZVSHSQJW8DV3KBKQYVT0,98C08389-4276-4267-A6E5-E887D67CC43C,2023-09-26_10h28.54.751,WP_VExplicitOC_LH,2022.2.5,Win32,11.03898971,NA,NA,NA,NA,NA,NA,NA,NA,NA,NA,NA,NA,NA,NA,NA,NA,NA,NA,NA,NA,NA,NA,NA,NA,NA,NA,NA,NA,NA,NA,NA,NA,NA,NA,NA,NA,NA,NA,NA,NA,NA,NA,NA,NA,NA,NA,NA,NA,NA,NA,NA,NA,NA,NA,2,0,2,0,1
SUPAMT61541,39PAAFCODSZVSHSQJW8DV3KBKQYVT0,98C08389-4276-4267-A6E5-E887D67CC43C,2023-09-26_10h28.54.751,WP_VExplicitOC_LH,2022.2.5,Win32,11.03898971,74.22222222,4.0456,2.0891,NA,NA,NA,NA,NA,bored,"bored, not bored","more bored, less bored",NA,NA,NA,NA,NA,NA,NA,NA,NA,NA,NA,NA,NA,NA,NA,NA,NA,NA,NA,NA,NA,NA,NA,NA,NA,NA,NA,NA,NA,NA,NA,NA,NA,NA,NA,NA,NA,NA,0,0,0,2,1,NA,NA,NA,NA,NA
SUPAMT61541,39PAAFCODSZVSHSQJW8DV3KBKQYVT0,98C08389-4276-4267-A6E5-E887D67CC43C,2023-09-26_10h28.54.751,WP_VExplicitOC_LH,2022.2.5,Win32,11.03898971,85.77777778,3.5766,2.0093,NA,NA,NA,NA,NA,happy,"unhappy, happy","less happy, more happy",NA,NA,NA,NA,NA,NA,NA,NA,NA,NA,NA,NA,NA,NA,NA,NA,NA,NA,NA,NA,NA,NA,NA,NA,NA,NA,NA,NA,NA,NA,NA,NA,NA,NA,NA,NA,NA,NA,0,1,1,0,1,NA,NA,NA,NA,NA
SUPAMT61541,39PAAFCODSZVSHSQJW8DV3KBKQYVT0,98C08389-4276-4267-A6E5-E887D67CC43C,2023-09-26_10h28.54.751,WP_VExplicitOC_LH,2022.2.5,Win32,11.03898971,65.33333333,4.0629,2.0014,NA,NA,NA,NA,NA,frustrated,"frustrated, not frustrated","more frustrated, less frustrated",NA,NA,NA,NA,NA,NA,NA,NA,NA,NA,NA,NA,NA,NA,NA,NA,NA,NA,NA,NA,NA,NA,NA,NA,NA,NA,NA,NA,NA,NA,NA,NA,NA,NA,NA,NA,NA,NA,0,2,2,1,1,NA,NA,NA,NA,NA
SUPAMT61541,39PAAFCODSZVSHSQJW8DV3KBKQYVT0,98C08389-4276-4267-A6E5-E887D67CC43C,2023-09-26_10h28.54.751,WP_VExplicitOC_LH,2022.2.5,Win32,11.03898971,NA,NA,NA,NA,NA,NA,NA,NA,NA,NA,NA,NA,NA,NA,NA,NA,NA,NA,NA,NA,NA,NA,NA,NA,NA,NA,NA,NA,NA,NA,NA,NA,NA,NA,NA,NA,NA,NA,NA,NA,NA,NA,NA,NA,NA,NA,NA,NA,NA,NA,NA,NA,NA,NA,3,0,3,0,1
SUPAMT61541,39PAAFCODSZVSHSQJW8DV3KBKQYVT0,98C08389-4276-4267-A6E5-E887D67CC43C,2023-09-26_10h28.54.751,WP_VExplicitOC_LH,2022.2.5,Win32,11.03898971,100,3.8304,2.081,NA,NA,NA,NA,NA,bored,"bored, not bored","more bored, less bored",NA,NA,NA,NA,NA,NA,NA,NA,NA,NA,NA,NA,NA,NA,NA,NA,NA,NA,NA,NA,NA,NA,NA,NA,NA,NA,NA,NA,NA,NA,NA,NA,NA,NA,NA,NA,NA,NA,0,0,0,2,1,NA,NA,NA,NA,NA
SUPAMT61541,39PAAFCODSZVSHSQJW8DV3KBKQYVT0,98C08389-4276-4267-A6E5-E887D67CC43C,2023-09-26_10h28.54.751,WP_VExplicitOC_LH,2022.2.5,Win32,11.03898971,100,4.0908,2.1224,NA,NA,NA,NA,NA,happy,"unhappy, happy","less happy, more happy",NA,NA,NA,NA,NA,NA,NA,NA,NA,NA,NA,NA,NA,NA,NA,NA,NA,NA,NA,NA,NA,NA,NA,NA,NA,NA,NA,NA,NA,NA,NA,NA,NA,NA,NA,NA,NA,NA,0,1,1,0,1,NA,NA,NA,NA,NA
SUPAMT61541,39PAAFCODSZVSHSQJW8DV3KBKQYVT0,98C08389-4276-4267-A6E5-E887D67CC43C,2023-09-26_10h28.54.751,WP_VExplicitOC_LH,2022.2.5,Win32,11.03898971,100,4.4249,2.0938,NA,NA,NA,NA,NA,frustrated,"frustrated, not frustrated","more frustrated, less frustrated",NA,NA,NA,NA,NA,NA,NA,NA,NA,NA,NA,NA,NA,NA,NA,NA,NA,NA,NA,NA,NA,NA,NA,NA,NA,NA,NA,NA,NA,NA,NA,NA,NA,NA,NA,NA,NA,NA,0,2,2,1,1,NA,NA,NA,NA,NA
SUPAMT61541,39PAAFCODSZVSHSQJW8DV3KBKQYVT0,98C08389-4276-4267-A6E5-E887D67CC43C,2023-09-26_10h28.54.751,WP_VExplicitOC_LH,2022.2.5,Win32,11.03898971,NA,NA,NA,NA,NA,NA,NA,NA,NA,NA,NA,NA,NA,NA,NA,NA,NA,NA,NA,NA,NA,NA,NA,NA,NA,NA,NA,NA,NA,NA,NA,NA,NA,NA,NA,NA,NA,NA,NA,NA,NA,NA,NA,NA,NA,NA,NA,NA,NA,NA,NA,NA,NA,NA,4,0,4,0,1
SUPAMT61541,39PAAFCODSZVSHSQJW8DV3KBKQYVT0,98C08389-4276-4267-A6E5-E887D67CC43C,2023-09-26_10h28.54.751,WP_VExplicitOC_LH,2022.2.5,Win32,11.03898971,86.44444444,3.7095,2.0346,NA,NA,NA,NA,NA,bored,"bored, not bored","more bored, less bored",NA,NA,NA,NA,NA,NA,NA,NA,NA,NA,NA,NA,NA,NA,NA,NA,NA,NA,NA,NA,NA,NA,NA,NA,NA,NA,NA,NA,NA,NA,NA,NA,NA,NA,NA,NA,NA,NA,0,0,0,2,1,NA,NA,NA,NA,NA
SUPAMT61541,39PAAFCODSZVSHSQJW8DV3KBKQYVT0,98C08389-4276-4267-A6E5-E887D67CC43C,2023-09-26_10h28.54.751,WP_VExplicitOC_LH,2022.2.5,Win32,11.03898971,76.44444444,3.6286,2.0098,NA,NA,NA,NA,NA,frustrated,"frustrated, not frustrated","more frustrated, less frustrated",NA,NA,NA,NA,NA,NA,NA,NA,NA,NA,NA,NA,NA,NA,NA,NA,NA,NA,NA,NA,NA,NA,NA,NA,NA,NA,NA,NA,NA,NA,NA,NA,NA,NA,NA,NA,NA,NA,0,1,1,1,1,NA,NA,NA,NA,NA
SUPAMT61541,39PAAFCODSZVSHSQJW8DV3KBKQYVT0,98C08389-4276-4267-A6E5-E887D67CC43C,2023-09-26_10h28.54.751,WP_VExplicitOC_LH,2022.2.5,Win32,11.03898971,83.55555556,3.5613,2.0531,NA,NA,NA,NA,NA,happy,"unhappy, happy","less happy, more happy",NA,NA,NA,NA,NA,NA,NA,NA,NA,NA,NA,NA,NA,NA,NA,NA,NA,NA,NA,NA,NA,NA,NA,NA,NA,NA,NA,NA,NA,NA,NA,NA,NA,NA,NA,NA,NA,NA,0,2,2,0,1,NA,NA,NA,NA,NA
SUPAMT61541,39PAAFCODSZVSHSQJW8DV3KBKQYVT0,98C08389-4276-4267-A6E5-E887D67CC43C,2023-09-26_10h28.54.751,WP_VExplicitOC_LH,2022.2.5,Win32,11.03898971,NA,NA,NA,NA,NA,NA,NA,NA,NA,NA,NA,NA,NA,NA,NA,NA,NA,NA,NA,NA,NA,NA,NA,NA,NA,NA,NA,NA,NA,NA,NA,NA,NA,NA,NA,NA,NA,NA,NA,NA,NA,NA,NA,NA,NA,NA,NA,NA,NA,NA,NA,NA,NA,NA,5,0,5,0,1
SUPAMT61541,39PAAFCODSZVSHSQJW8DV3KBKQYVT0,98C08389-4276-4267-A6E5-E887D67CC43C,2023-09-26_10h28.54.751,WP_VExplicitOC_LH,2022.2.5,Win32,11.03898971,65.33333333,4.4559,2.0715,NA,NA,NA,NA,NA,happy,"unhappy, happy","less happy, more happy",NA,NA,NA,NA,NA,NA,NA,NA,NA,NA,NA,NA,NA,NA,NA,NA,NA,NA,NA,NA,NA,NA,NA,NA,NA,NA,NA,NA,NA,NA,NA,NA,NA,NA,NA,NA,NA,NA,0,0,0,0,1,NA,NA,NA,NA,NA
SUPAMT61541,39PAAFCODSZVSHSQJW8DV3KBKQYVT0,98C08389-4276-4267-A6E5-E887D67CC43C,2023-09-26_10h28.54.751,WP_VExplicitOC_LH,2022.2.5,Win32,11.03898971,65.11111111,3.6774,2.1103,NA,NA,NA,NA,NA,bored,"bored, not bored","more bored, less bored",NA,NA,NA,NA,NA,NA,NA,NA,NA,NA,NA,NA,NA,NA,NA,NA,NA,NA,NA,NA,NA,NA,NA,NA,NA,NA,NA,NA,NA,NA,NA,NA,NA,NA,NA,NA,NA,NA,0,1,1,2,1,NA,NA,NA,NA,NA
SUPAMT61541,39PAAFCODSZVSHSQJW8DV3KBKQYVT0,98C08389-4276-4267-A6E5-E887D67CC43C,2023-09-26_10h28.54.751,WP_VExplicitOC_LH,2022.2.5,Win32,11.03898971,NA,NA,2.0209,NA,NA,NA,NA,NA,frustrated,"frustrated, not frustrated","more frustrated, less frustrated",NA,NA,NA,NA,NA,NA,NA,NA,NA,NA,NA,NA,NA,NA,NA,NA,NA,NA,NA,NA,NA,NA,NA,NA,NA,NA,NA,NA,NA,NA,NA,NA,NA,NA,NA,NA,NA,NA,0,2,2,1,1,NA,NA,NA,NA,NA
SUPAMT61541,39PAAFCODSZVSHSQJW8DV3KBKQYVT0,98C08389-4276-4267-A6E5-E887D67CC43C,2023-09-26_10h28.54.751,WP_VExplicitOC_LH,2022.2.5,Win32,11.03898971,NA,NA,NA,NA,NA,NA,NA,NA,NA,NA,NA,NA,NA,NA,NA,NA,NA,NA,NA,NA,NA,NA,NA,NA,NA,NA,NA,NA,NA,NA,NA,NA,NA,NA,NA,NA,NA,NA,NA,NA,NA,NA,NA,NA,NA,NA,NA,NA,NA,NA,NA,NA,NA,NA,6,0,6,0,1
SUPAMT61541,39PAAFCODSZVSHSQJW8DV3KBKQYVT0,98C08389-4276-4267-A6E5-E887D67CC43C,2023-09-26_10h28.54.751,WP_VExplicitOC_LH,2022.2.5,Win32,11.03898971,69.55555556,3.7562,2.0789,NA,NA,NA,NA,NA,bored,"bored, not bored","more bored, less bored",NA,NA,NA,NA,NA,NA,NA,NA,NA,NA,NA,NA,NA,NA,NA,NA,NA,NA,NA,NA,NA,NA,NA,NA,NA,NA,NA,NA,NA,NA,NA,NA,NA,NA,NA,NA,NA,NA,0,0,0,2,1,NA,NA,NA,NA,NA
SUPAMT61541,39PAAFCODSZVSHSQJW8DV3KBKQYVT0,98C08389-4276-4267-A6E5-E887D67CC43C,2023-09-26_10h28.54.751,WP_VExplicitOC_LH,2022.2.5,Win32,11.03898971,86.88888889,4.3208,2.1207,NA,NA,NA,NA,NA,happy,"unhappy, happy","less happy, more happy",NA,NA,NA,NA,NA,NA,NA,NA,NA,NA,NA,NA,NA,NA,NA,NA,NA,NA,NA,NA,NA,NA,NA,NA,NA,NA,NA,NA,NA,NA,NA,NA,NA,NA,NA,NA,NA,NA,0,1,1,0,1,NA,NA,NA,NA,NA
SUPAMT61541,39PAAFCODSZVSHSQJW8DV3KBKQYVT0,98C08389-4276-4267-A6E5-E887D67CC43C,2023-09-26_10h28.54.751,WP_VExplicitOC_LH,2022.2.5,Win32,11.03898971,76.22222222,4.0812,2.0466,NA,NA,NA,NA,NA,frustrated,"frustrated, not frustrated","more frustrated, less frustrated",NA,NA,NA,NA,NA,NA,NA,NA,NA,NA,NA,NA,NA,NA,NA,NA,NA,NA,NA,NA,NA,NA,NA,NA,NA,NA,NA,NA,NA,NA,NA,NA,NA,NA,NA,NA,NA,NA,0,2,2,1,1,NA,NA,NA,NA,NA
SUPAMT61541,39PAAFCODSZVSHSQJW8DV3KBKQYVT0,98C08389-4276-4267-A6E5-E887D67CC43C,2023-09-26_10h28.54.751,WP_VExplicitOC_LH,2022.2.5,Win32,11.03898971,NA,NA,NA,NA,NA,NA,NA,NA,NA,NA,NA,NA,NA,NA,NA,NA,NA,NA,NA,NA,NA,NA,NA,NA,NA,NA,NA,NA,NA,NA,NA,NA,NA,NA,NA,NA,NA,NA,NA,NA,NA,NA,NA,NA,NA,NA,NA,NA,NA,NA,NA,NA,NA,NA,7,0,7,0,1
SUPAMT61541,39PAAFCODSZVSHSQJW8DV3KBKQYVT0,98C08389-4276-4267-A6E5-E887D67CC43C,2023-09-26_10h28.54.751,WP_VExplicitOC_LH,2022.2.5,Win32,11.03898971,NA,NA,2.0186,NA,NA,NA,NA,NA,frustrated,"frustrated, not frustrated","more frustrated, less frustrated",NA,NA,NA,NA,NA,NA,NA,NA,NA,NA,NA,NA,NA,NA,NA,NA,NA,NA,NA,NA,NA,NA,NA,NA,NA,NA,NA,NA,NA,NA,NA,NA,NA,NA,NA,NA,NA,NA,0,0,0,1,1,NA,NA,NA,NA,NA
SUPAMT61541,39PAAFCODSZVSHSQJW8DV3KBKQYVT0,98C08389-4276-4267-A6E5-E887D67CC43C,2023-09-26_10h28.54.751,WP_VExplicitOC_LH,2022.2.5,Win32,11.03898971,79.55555556,5.3731,2.055,NA,NA,NA,NA,NA,bored,"bored, not bored","more bored, less bored",NA,NA,NA,NA,NA,NA,NA,NA,NA,NA,NA,NA,NA,NA,NA,NA,NA,NA,NA,NA,NA,NA,NA,NA,NA,NA,NA,NA,NA,NA,NA,NA,NA,NA,NA,NA,NA,NA,0,1,1,2,1,NA,NA,NA,NA,NA
SUPAMT61541,39PAAFCODSZVSHSQJW8DV3KBKQYVT0,98C08389-4276-4267-A6E5-E887D67CC43C,2023-09-26_10h28.54.751,WP_VExplicitOC_LH,2022.2.5,Win32,11.03898971,81.55555556,6.2292,2.0998,NA,NA,NA,NA,NA,happy,"unhappy, happy","less happy, more happy",NA,NA,NA,NA,NA,NA,NA,NA,NA,NA,NA,NA,NA,NA,NA,NA,NA,NA,NA,NA,NA,NA,NA,NA,NA,NA,NA,NA,NA,NA,NA,NA,NA,NA,NA,NA,NA,NA,0,2,2,0,1,NA,NA,NA,NA,NA
SUPAMT61541,39PAAFCODSZVSHSQJW8DV3KBKQYVT0,98C08389-4276-4267-A6E5-E887D67CC43C,2023-09-26_10h28.54.751,WP_VExplicitOC_LH,2022.2.5,Win32,11.03898971,NA,NA,NA,NA,NA,NA,NA,NA,NA,NA,NA,NA,NA,NA,NA,NA,NA,NA,NA,NA,NA,NA,NA,NA,NA,NA,NA,NA,NA,NA,NA,NA,NA,NA,NA,NA,NA,NA,NA,NA,NA,NA,NA,NA,NA,NA,NA,NA,NA,NA,NA,NA,NA,NA,8,0,8,0,1
SUPAMT61541,39PAAFCODSZVSHSQJW8DV3KBKQYVT0,98C08389-4276-4267-A6E5-E887D67CC43C,2023-09-26_10h28.54.751,WP_VExplicitOC_LH,2022.2.5,Win32,11.03898971,NA,NA,2.0829,NA,NA,NA,NA,NA,frustrated,"frustrated, not frustrated","more frustrated, less frustrated",NA,NA,NA,NA,NA,NA,NA,NA,NA,NA,NA,NA,NA,NA,NA,NA,NA,NA,NA,NA,NA,NA,NA,NA,NA,NA,NA,NA,NA,NA,NA,NA,NA,NA,NA,NA,NA,NA,0,0,0,1,1,NA,NA,NA,NA,NA
SUPAMT61541,39PAAFCODSZVSHSQJW8DV3KBKQYVT0,98C08389-4276-4267-A6E5-E887D67CC43C,2023-09-26_10h28.54.751,WP_VExplicitOC_LH,2022.2.5,Win32,11.03898971,NA,NA,2.1123,NA,NA,NA,NA,NA,happy,"unhappy, happy","less happy, more happy",NA,NA,NA,NA,NA,NA,NA,NA,NA,NA,NA,NA,NA,NA,NA,NA,NA,NA,NA,NA,NA,NA,NA,NA,NA,NA,NA,NA,NA,NA,NA,NA,NA,NA,NA,NA,NA,NA,0,1,1,0,1,NA,NA,NA,NA,NA
SUPAMT61541,39PAAFCODSZVSHSQJW8DV3KBKQYVT0,98C08389-4276-4267-A6E5-E887D67CC43C,2023-09-26_10h28.54.751,WP_VExplicitOC_LH,2022.2.5,Win32,11.03898971,73.33333333,4.2584,2.0782,NA,NA,NA,NA,NA,bored,"bored, not bored","more bored, less bored",NA,NA,NA,NA,NA,NA,NA,NA,NA,NA,NA,NA,NA,NA,NA,NA,NA,NA,NA,NA,NA,NA,NA,NA,NA,NA,NA,NA,NA,NA,NA,NA,NA,NA,NA,NA,NA,NA,0,2,2,2,1,NA,NA,NA,NA,NA
SUPAMT61541,39PAAFCODSZVSHSQJW8DV3KBKQYVT0,98C08389-4276-4267-A6E5-E887D67CC43C,2023-09-26_10h28.54.751,WP_VExplicitOC_LH,2022.2.5,Win32,11.03898971,NA,NA,NA,NA,NA,NA,NA,NA,NA,NA,NA,NA,NA,NA,NA,NA,NA,NA,NA,NA,NA,NA,NA,NA,NA,NA,NA,NA,NA,NA,NA,NA,NA,NA,NA,NA,NA,NA,NA,NA,NA,NA,NA,NA,NA,NA,NA,NA,NA,NA,NA,NA,NA,NA,9,0,9,0,1
SUPAMT61541,39PAAFCODSZVSHSQJW8DV3KBKQYVT0,98C08389-4276-4267-A6E5-E887D67CC43C,2023-09-26_10h28.54.751,WP_VExplicitOC_LH,2022.2.5,Win32,11.03898971,84.22222222,3.7048,2.013,NA,NA,NA,NA,NA,happy,"unhappy, happy","less happy, more happy",NA,NA,NA,NA,NA,NA,NA,NA,NA,NA,NA,NA,NA,NA,NA,NA,NA,NA,NA,NA,NA,NA,NA,NA,NA,NA,NA,NA,NA,NA,NA,NA,NA,NA,NA,NA,NA,NA,0,0,0,0,1,NA,NA,NA,NA,NA
SUPAMT61541,39PAAFCODSZVSHSQJW8DV3KBKQYVT0,98C08389-4276-4267-A6E5-E887D67CC43C,2023-09-26_10h28.54.751,WP_VExplicitOC_LH,2022.2.5,Win32,11.03898971,NA,NA,2.123,NA,NA,NA,NA,NA,frustrated,"frustrated, not frustrated","more frustrated, less frustrated",NA,NA,NA,NA,NA,NA,NA,NA,NA,NA,NA,NA,NA,NA,NA,NA,NA,NA,NA,NA,NA,NA,NA,NA,NA,NA,NA,NA,NA,NA,NA,NA,NA,NA,NA,NA,NA,NA,0,1,1,1,1,NA,NA,NA,NA,NA
SUPAMT61541,39PAAFCODSZVSHSQJW8DV3KBKQYVT0,98C08389-4276-4267-A6E5-E887D67CC43C,2023-09-26_10h28.54.751,WP_VExplicitOC_LH,2022.2.5,Win32,11.03898971,NA,NA,2.013,NA,NA,NA,NA,NA,bored,"bored, not bored","more bored, less bored",NA,NA,NA,NA,NA,NA,NA,NA,NA,NA,NA,NA,NA,NA,NA,NA,NA,NA,NA,NA,NA,NA,NA,NA,NA,NA,NA,NA,NA,NA,NA,NA,NA,NA,NA,NA,NA,NA,0,2,2,2,1,NA,NA,NA,NA,NA
SUPAMT61541,39PAAFCODSZVSHSQJW8DV3KBKQYVT0,98C08389-4276-4267-A6E5-E887D67CC43C,2023-09-26_10h28.54.751,WP_VExplicitOC_LH,2022.2.5,Win32,11.03898971,NA,NA,NA,NA,NA,NA,NA,NA,NA,NA,NA,NA,NA,NA,NA,NA,NA,NA,NA,NA,NA,NA,NA,NA,NA,NA,NA,NA,NA,NA,NA,NA,NA,NA,NA,NA,NA,NA,NA,NA,NA,NA,NA,NA,NA,NA,NA,NA,NA,NA,NA,NA,NA,NA,10,0,10,0,1
SUPAMT61541,39PAAFCODSZVSHSQJW8DV3KBKQYVT0,98C08389-4276-4267-A6E5-E887D67CC43C,2023-09-26_10h28.54.751,WP_VExplicitOC_LH,2022.2.5,Win32,11.03898971,71.11111111,4.5948,2.0314,NA,NA,NA,NA,NA,bored,"bored, not bored","more bored, less bored",NA,NA,NA,NA,NA,NA,NA,NA,NA,NA,NA,NA,NA,NA,NA,NA,NA,NA,NA,NA,NA,NA,NA,NA,NA,NA,NA,NA,NA,NA,NA,NA,NA,NA,NA,NA,NA,NA,0,0,0,2,1,NA,NA,NA,NA,NA
SUPAMT61541,39PAAFCODSZVSHSQJW8DV3KBKQYVT0,98C08389-4276-4267-A6E5-E887D67CC43C,2023-09-26_10h28.54.751,WP_VExplicitOC_LH,2022.2.5,Win32,11.03898971,80,4.0225,2.0169,NA,NA,NA,NA,NA,happy,"unhappy, happy","less happy, more happy",NA,NA,NA,NA,NA,NA,NA,NA,NA,NA,NA,NA,NA,NA,NA,NA,NA,NA,NA,NA,NA,NA,NA,NA,NA,NA,NA,NA,NA,NA,NA,NA,NA,NA,NA,NA,NA,NA,0,1,1,0,1,NA,NA,NA,NA,NA
SUPAMT61541,39PAAFCODSZVSHSQJW8DV3KBKQYVT0,98C08389-4276-4267-A6E5-E887D67CC43C,2023-09-26_10h28.54.751,WP_VExplicitOC_LH,2022.2.5,Win32,11.03898971,67.33333333,3.792,2.0595,NA,NA,NA,NA,NA,frustrated,"frustrated, not frustrated","more frustrated, less frustrated",NA,NA,NA,NA,NA,NA,NA,NA,NA,NA,NA,NA,NA,NA,NA,NA,NA,NA,NA,NA,NA,NA,NA,NA,NA,NA,NA,NA,NA,NA,NA,NA,NA,NA,NA,NA,NA,NA,0,2,2,1,1,NA,NA,NA,NA,NA
SUPAMT61541,39PAAFCODSZVSHSQJW8DV3KBKQYVT0,98C08389-4276-4267-A6E5-E887D67CC43C,2023-09-26_10h28.54.751,WP_VExplicitOC_LH,2022.2.5,Win32,11.03898971,NA,NA,NA,NA,NA,NA,NA,NA,NA,NA,NA,NA,NA,NA,NA,NA,NA,NA,NA,NA,NA,NA,NA,NA,NA,NA,NA,NA,NA,NA,NA,NA,NA,NA,NA,NA,NA,NA,NA,NA,NA,NA,NA,NA,NA,NA,NA,NA,NA,NA,NA,NA,NA,NA,11,0,11,0,1
SUPAMT61541,39PAAFCODSZVSHSQJW8DV3KBKQYVT0,98C08389-4276-4267-A6E5-E887D67CC43C,2023-09-26_10h28.54.751,WP_VExplicitOC_LH,2022.2.5,Win32,11.03898971,92,4.2944,2.105,NA,NA,NA,NA,NA,happy,"unhappy, happy","less happy, more happy",NA,NA,NA,NA,NA,NA,NA,NA,NA,NA,NA,NA,NA,NA,NA,NA,NA,NA,NA,NA,NA,NA,NA,NA,NA,NA,NA,NA,NA,NA,NA,NA,NA,NA,NA,NA,NA,NA,0,0,0,0,1,NA,NA,NA,NA,NA
SUPAMT61541,39PAAFCODSZVSHSQJW8DV3KBKQYVT0,98C08389-4276-4267-A6E5-E887D67CC43C,2023-09-26_10h28.54.751,WP_VExplicitOC_LH,2022.2.5,Win32,11.03898971,79.55555556,4.0613,2.0057,NA,NA,NA,NA,NA,bored,"bored, not bored","more bored, less bored",NA,NA,NA,NA,NA,NA,NA,NA,NA,NA,NA,NA,NA,NA,NA,NA,NA,NA,NA,NA,NA,NA,NA,NA,NA,NA,NA,NA,NA,NA,NA,NA,NA,NA,NA,NA,NA,NA,0,1,1,2,1,NA,NA,NA,NA,NA
SUPAMT61541,39PAAFCODSZVSHSQJW8DV3KBKQYVT0,98C08389-4276-4267-A6E5-E887D67CC43C,2023-09-26_10h28.54.751,WP_VExplicitOC_LH,2022.2.5,Win32,11.03898971,92.66666667,3.7747,2.0224,NA,NA,NA,NA,NA,frustrated,"frustrated, not frustrated","more frustrated, less frustrated",NA,NA,NA,NA,NA,NA,NA,NA,NA,NA,NA,NA,NA,NA,NA,NA,NA,NA,NA,NA,NA,NA,NA,NA,NA,NA,NA,NA,NA,NA,NA,NA,NA,NA,NA,NA,NA,NA,0,2,2,1,1,NA,NA,NA,NA,NA
SUPAMT61541,39PAAFCODSZVSHSQJW8DV3KBKQYVT0,98C08389-4276-4267-A6E5-E887D67CC43C,2023-09-26_10h28.54.751,WP_VExplicitOC_LH,2022.2.5,Win32,11.03898971,NA,NA,NA,NA,NA,NA,NA,NA,NA,NA,NA,NA,NA,NA,NA,NA,NA,NA,NA,NA,NA,NA,NA,NA,NA,NA,NA,NA,NA,NA,NA,NA,NA,NA,NA,NA,NA,NA,NA,NA,NA,NA,NA,NA,NA,NA,NA,NA,NA,NA,NA,NA,NA,NA,12,0,12,0,1
SUPAMT61541,39PAAFCODSZVSHSQJW8DV3KBKQYVT0,98C08389-4276-4267-A6E5-E887D67CC43C,2023-09-26_10h28.54.751,WP_VExplicitOC_LH,2022.2.5,Win32,11.03898971,91.33333333,4.0836,2.0917,NA,NA,NA,NA,NA,frustrated,"frustrated, not frustrated","more frustrated, less frustrated",NA,NA,NA,NA,NA,NA,NA,NA,NA,NA,NA,NA,NA,NA,NA,NA,NA,NA,NA,NA,NA,NA,NA,NA,NA,NA,NA,NA,NA,NA,NA,NA,NA,NA,NA,NA,NA,NA,0,0,0,1,1,NA,NA,NA,NA,NA
SUPAMT61541,39PAAFCODSZVSHSQJW8DV3KBKQYVT0,98C08389-4276-4267-A6E5-E887D67CC43C,2023-09-26_10h28.54.751,WP_VExplicitOC_LH,2022.2.5,Win32,11.03898971,100,3.7014,2.0746000000000002,NA,NA,NA,NA,NA,bored,"bored, not bored","more bored, less bored",NA,NA,NA,NA,NA,NA,NA,NA,NA,NA,NA,NA,NA,NA,NA,NA,NA,NA,NA,NA,NA,NA,NA,NA,NA,NA,NA,NA,NA,NA,NA,NA,NA,NA,NA,NA,NA,NA,0,1,1,2,1,NA,NA,NA,NA,NA
SUPAMT61541,39PAAFCODSZVSHSQJW8DV3KBKQYVT0,98C08389-4276-4267-A6E5-E887D67CC43C,2023-09-26_10h28.54.751,WP_VExplicitOC_LH,2022.2.5,Win32,11.03898971,100,3.9789,2.0885,NA,NA,NA,NA,NA,happy,"unhappy, happy","less happy, more happy",NA,NA,NA,NA,NA,NA,NA,NA,NA,NA,NA,NA,NA,NA,NA,NA,NA,NA,NA,NA,NA,NA,NA,NA,NA,NA,NA,NA,NA,NA,NA,NA,NA,NA,NA,NA,NA,NA,0,2,2,0,1,NA,NA,NA,NA,NA
SUPAMT61541,39PAAFCODSZVSHSQJW8DV3KBKQYVT0,98C08389-4276-4267-A6E5-E887D67CC43C,2023-09-26_10h28.54.751,WP_VExplicitOC_LH,2022.2.5,Win32,11.03898971,NA,NA,NA,NA,NA,NA,NA,NA,NA,NA,NA,NA,NA,NA,NA,NA,NA,NA,NA,NA,NA,NA,NA,NA,NA,NA,NA,NA,NA,NA,NA,NA,NA,NA,NA,NA,NA,NA,NA,NA,NA,NA,NA,NA,NA,NA,NA,NA,NA,NA,NA,NA,NA,NA,13,0,13,0,1
SUPAMT61541,39PAAFCODSZVSHSQJW8DV3KBKQYVT0,98C08389-4276-4267-A6E5-E887D67CC43C,2023-09-26_10h28.54.751,WP_VExplicitOC_LH,2022.2.5,Win32,11.03898971,100,4.221,2.1169,NA,NA,NA,NA,NA,happy,"unhappy, happy","less happy, more happy",NA,NA,NA,NA,NA,NA,NA,NA,NA,NA,NA,NA,NA,NA,NA,NA,NA,NA,NA,NA,NA,NA,NA,NA,NA,NA,NA,NA,NA,NA,NA,NA,NA,NA,NA,NA,NA,NA,0,0,0,0,1,NA,NA,NA,NA,NA
SUPAMT61541,39PAAFCODSZVSHSQJW8DV3KBKQYVT0,98C08389-4276-4267-A6E5-E887D67CC43C,2023-09-26_10h28.54.751,WP_VExplicitOC_LH,2022.2.5,Win32,11.03898971,100,3.719,2.0481,NA,NA,NA,NA,NA,frustrated,"frustrated, not frustrated","more frustrated, less frustrated",NA,NA,NA,NA,NA,NA,NA,NA,NA,NA,NA,NA,NA,NA,NA,NA,NA,NA,NA,NA,NA,NA,NA,NA,NA,NA,NA,NA,NA,NA,NA,NA,NA,NA,NA,NA,NA,NA,0,1,1,1,1,NA,NA,NA,NA,NA
SUPAMT61541,39PAAFCODSZVSHSQJW8DV3KBKQYVT0,98C08389-4276-4267-A6E5-E887D67CC43C,2023-09-26_10h28.54.751,WP_VExplicitOC_LH,2022.2.5,Win32,11.03898971,100,3.7976,2.0374,NA,NA,NA,NA,NA,bored,"bored, not bored","more bored, less bored",NA,NA,NA,NA,NA,NA,NA,NA,NA,NA,NA,NA,NA,NA,NA,NA,NA,NA,NA,NA,NA,NA,NA,NA,NA,NA,NA,NA,NA,NA,NA,NA,NA,NA,NA,NA,NA,NA,0,2,2,2,1,NA,NA,NA,NA,NA
SUPAMT61541,39PAAFCODSZVSHSQJW8DV3KBKQYVT0,98C08389-4276-4267-A6E5-E887D67CC43C,2023-09-26_10h28.54.751,WP_VExplicitOC_LH,2022.2.5,Win32,11.03898971,NA,NA,NA,NA,NA,NA,NA,NA,NA,NA,NA,NA,NA,NA,NA,NA,NA,NA,NA,NA,NA,NA,NA,NA,NA,NA,NA,NA,NA,NA,NA,NA,NA,NA,NA,NA,NA,NA,NA,NA,NA,NA,NA,NA,NA,NA,NA,NA,NA,NA,NA,NA,NA,NA,14,0,14,0,1
SUPAMT61541,39PAAFCODSZVSHSQJW8DV3KBKQYVT0,98C08389-4276-4267-A6E5-E887D67CC43C,2023-09-26_10h28.54.751,WP_VExplicitOC_LH,2022.2.5,Win32,11.03898971,NA,NA,NA,NA,NA,NA,NA,NA,NA,NA,NA,NA,NA,NA,NA,NA,NA,NA,NA,NA,NA,NA,NA,NA,NA,NA,NA,NA,NA,NA,NA,NA,NA,NA,NA,NA,NA,NA,NA,NA,NA,NA,NA,NA,NA,NA,NA,NA,NA,NA,NA,NA,NA,NA,NA,NA,NA,NA,NA
