participant,session,completion,date,expName,psychopyVersion,OS,frameRate,rating_all.response,rating_all.rt,rating_all.tStart,rndRat1.thisRepN,rndRat1.thisTrialN,rndRat1.thisN,rndRat1.thisIndex,rndRat1.ran,Emo,Labs,Labs2,rating_alt.response,rating_alt.rt,AltC.thisRepN,AltC.thisTrialN,AltC.thisN,AltC.thisIndex,AltC.ran,alt_choices,pic_choices,TopAlt_Choice,rndRat2.thisRepN,rndRat2.thisTrialN,rndRat2.thisN,rndRat2.thisIndex,rndRat2.ran,rndRat3.thisRepN,rndRat3.thisTrialN,rndRat3.thisN,rndRat3.thisIndex,rndRat3.ran,trials_FC_H.thisRepN,trials_FC_H.thisTrialN,trials_FC_H.thisN,trials_FC_H.thisIndex,trials_FC_H.ran,rating_alt_2.response,rating_alt_2.rt,AltC2.thisRepN,AltC2.thisTrialN,AltC2.thisN,AltC2.thisIndex,AltC2.ran,BottomAlt_Choice,rndRat4.thisRepN,rndRat4.thisTrialN,rndRat4.thisN,rndRat4.thisIndex,rndRat4.ran,rndRat5.thisRepN,rndRat5.thisTrialN,rndRat5.thisN,rndRat5.thisIndex,rndRat5.ran,trials_FC_L.thisRepN,trials_FC_L.thisTrialN,trials_FC_L.thisN,trials_FC_L.thisIndex,trials_FC_L.ran
SUPAMT52689,3WI0P0II67RWILFCOM3OP2DMX5SDRG,27FEE187-DCD9-49C4-853E-B8C8B58C5B1C,2023-09-27_11h52.54.977,WP_VExplicitOC_HL,2022.2.5,Win32,16.06245081,NA,NA,NA,NA,NA,NA,NA,NA,NA,NA,NA,NA,NA,NA,NA,NA,NA,NA,NA,NA,NA,NA,NA,NA,NA,NA,NA,NA,NA,NA,NA,NA,NA,NA,NA,NA,NA,NA,NA,NA,NA,NA,NA,NA,NA,NA,NA,NA,NA,NA,NA,NA,NA,NA,NA,NA,NA,NA,NA
SUPAMT52689,3WI0P0II67RWILFCOM3OP2DMX5SDRG,27FEE187-DCD9-49C4-853E-B8C8B58C5B1C,2023-09-27_11h52.54.977,WP_VExplicitOC_HL,2022.2.5,Win32,16.06245081,NA,NA,NA,NA,NA,NA,NA,NA,NA,NA,NA,NA,NA,NA,NA,NA,NA,NA,NA,NA,NA,NA,NA,NA,NA,NA,NA,NA,NA,NA,NA,NA,NA,NA,NA,NA,NA,NA,NA,NA,NA,NA,NA,NA,NA,NA,NA,NA,NA,NA,NA,NA,NA,NA,NA,NA,NA,NA,NA
SUPAMT52689,3WI0P0II67RWILFCOM3OP2DMX5SDRG,27FEE187-DCD9-49C4-853E-B8C8B58C5B1C,2023-09-27_11h52.54.977,WP_VExplicitOC_HL,2022.2.5,Win32,16.06245081,NA,NA,NA,NA,NA,NA,NA,NA,NA,NA,NA,NA,NA,NA,NA,NA,NA,NA,NA,NA,NA,NA,NA,NA,NA,NA,NA,NA,NA,NA,NA,NA,NA,NA,NA,NA,NA,NA,NA,NA,NA,NA,NA,NA,NA,NA,NA,NA,NA,NA,NA,NA,NA,NA,NA,NA,NA,NA,NA
SUPAMT52689,3WI0P0II67RWILFCOM3OP2DMX5SDRG,27FEE187-DCD9-49C4-853E-B8C8B58C5B1C,2023-09-27_11h52.54.977,WP_VExplicitOC_HL,2022.2.5,Win32,16.06245081,83.36025848,5.5044,2.0517,0,0,0,0,1,happy,"unhappy, happy","less happy, more happy",NA,NA,NA,NA,NA,NA,NA,NA,NA,NA,NA,NA,NA,NA,NA,NA,NA,NA,NA,NA,NA,NA,NA,NA,NA,NA,NA,NA,NA,NA,NA,NA,NA,NA,NA,NA,NA,NA,NA,NA,NA,NA,NA,NA,NA,NA,NA,NA
SUPAMT52689,3WI0P0II67RWILFCOM3OP2DMX5SDRG,27FEE187-DCD9-49C4-853E-B8C8B58C5B1C,2023-09-27_11h52.54.977,WP_VExplicitOC_HL,2022.2.5,Win32,16.06245081,66.88206785,3.4971,2.0092,0,1,1,2,1,bored,"bored, not bored","more bored, less bored",NA,NA,NA,NA,NA,NA,NA,NA,NA,NA,NA,NA,NA,NA,NA,NA,NA,NA,NA,NA,NA,NA,NA,NA,NA,NA,NA,NA,NA,NA,NA,NA,NA,NA,NA,NA,NA,NA,NA,NA,NA,NA,NA,NA,NA,NA,NA,NA
SUPAMT52689,3WI0P0II67RWILFCOM3OP2DMX5SDRG,27FEE187-DCD9-49C4-853E-B8C8B58C5B1C,2023-09-27_11h52.54.977,WP_VExplicitOC_HL,2022.2.5,Win32,16.06245081,59.77382876,3.693,2.0041,0,2,2,1,1,frustrated,"frustrated, not frustrated","more frustrated, less frustrated",NA,NA,NA,NA,NA,NA,NA,NA,NA,NA,NA,NA,NA,NA,NA,NA,NA,NA,NA,NA,NA,NA,NA,NA,NA,NA,NA,NA,NA,NA,NA,NA,NA,NA,NA,NA,NA,NA,NA,NA,NA,NA,NA,NA,NA,NA,NA,NA
SUPAMT52689,3WI0P0II67RWILFCOM3OP2DMX5SDRG,27FEE187-DCD9-49C4-853E-B8C8B58C5B1C,2023-09-27_11h52.54.977,WP_VExplicitOC_HL,2022.2.5,Win32,16.06245081,NA,NA,NA,NA,NA,NA,NA,NA,NA,NA,NA,NA,NA,NA,NA,NA,NA,NA,NA,NA,NA,NA,NA,NA,NA,NA,NA,NA,NA,NA,NA,NA,NA,NA,NA,NA,NA,NA,NA,NA,NA,NA,NA,NA,NA,NA,NA,NA,NA,NA,NA,NA,NA,NA,NA,NA,NA,NA,NA
SUPAMT52689,3WI0P0II67RWILFCOM3OP2DMX5SDRG,27FEE187-DCD9-49C4-853E-B8C8B58C5B1C,2023-09-27_11h52.54.977,WP_VExplicitOC_HL,2022.2.5,Win32,16.06245081,NA,NA,NA,NA,NA,NA,NA,NA,NA,NA,NA,NA,NA,NA,NA,NA,NA,NA,NA,NA,NA,NA,NA,NA,NA,NA,NA,NA,NA,NA,NA,NA,NA,NA,NA,NA,NA,NA,NA,NA,NA,NA,NA,NA,NA,NA,NA,NA,NA,NA,NA,NA,NA,NA,NA,NA,NA,NA,NA
SUPAMT52689,3WI0P0II67RWILFCOM3OP2DMX5SDRG,27FEE187-DCD9-49C4-853E-B8C8B58C5B1C,2023-09-27_11h52.54.977,WP_VExplicitOC_HL,2022.2.5,Win32,16.06245081,NA,NA,NA,NA,NA,NA,NA,NA,NA,NA,NA,NA,NA,NA,NA,NA,NA,NA,NA,NA,NA,NA,NA,NA,NA,NA,NA,NA,NA,NA,NA,NA,NA,NA,NA,NA,NA,NA,NA,NA,NA,NA,NA,NA,NA,NA,NA,NA,NA,NA,NA,NA,NA,NA,NA,NA,NA,NA,NA
SUPAMT52689,3WI0P0II67RWILFCOM3OP2DMX5SDRG,27FEE187-DCD9-49C4-853E-B8C8B58C5B1C,2023-09-27_11h52.54.977,WP_VExplicitOC_HL,2022.2.5,Win32,16.06245081,NA,NA,NA,NA,NA,NA,NA,NA,NA,NA,NA,NA,NA,NA,NA,NA,NA,NA,NA,NA,NA,NA,NA,NA,NA,NA,NA,NA,NA,NA,NA,NA,NA,NA,NA,NA,NA,NA,NA,NA,NA,NA,NA,NA,NA,NA,NA,NA,NA,NA,NA,NA,NA,NA,NA,NA,NA,NA,NA
SUPAMT52689,3WI0P0II67RWILFCOM3OP2DMX5SDRG,27FEE187-DCD9-49C4-853E-B8C8B58C5B1C,2023-09-27_11h52.54.977,WP_VExplicitOC_HL,2022.2.5,Win32,16.06245081,NA,NA,NA,NA,NA,NA,NA,NA,NA,NA,NA,NA,NA,0,0,0,0,1,rest (looking at a fixed cross),001.png,NA,NA,NA,NA,NA,NA,NA,NA,NA,NA,NA,NA,NA,NA,NA,NA,NA,NA,NA,NA,NA,NA,NA,NA,NA,NA,NA,NA,NA,NA,NA,NA,NA,NA,NA,NA,NA,NA,NA
SUPAMT52689,3WI0P0II67RWILFCOM3OP2DMX5SDRG,27FEE187-DCD9-49C4-853E-B8C8B58C5B1C,2023-09-27_11h52.54.977,WP_VExplicitOC_HL,2022.2.5,Win32,16.06245081,NA,NA,NA,NA,NA,NA,NA,NA,NA,NA,NA,NA,NA,0,1,1,1,1,stand up,002.png,NA,NA,NA,NA,NA,NA,NA,NA,NA,NA,NA,NA,NA,NA,NA,NA,NA,NA,NA,NA,NA,NA,NA,NA,NA,NA,NA,NA,NA,NA,NA,NA,NA,NA,NA,NA,NA,NA,NA
SUPAMT52689,3WI0P0II67RWILFCOM3OP2DMX5SDRG,27FEE187-DCD9-49C4-853E-B8C8B58C5B1C,2023-09-27_11h52.54.977,WP_VExplicitOC_HL,2022.2.5,Win32,16.06245081,NA,NA,NA,NA,NA,NA,NA,NA,NA,NA,NA,65.88541667,2.1944,0,2,2,2,1,stretch,003.png,NA,NA,NA,NA,NA,NA,NA,NA,NA,NA,NA,NA,NA,NA,NA,NA,NA,NA,NA,NA,NA,NA,NA,NA,NA,NA,NA,NA,NA,NA,NA,NA,NA,NA,NA,NA,NA,NA,NA
SUPAMT52689,3WI0P0II67RWILFCOM3OP2DMX5SDRG,27FEE187-DCD9-49C4-853E-B8C8B58C5B1C,2023-09-27_11h52.54.977,WP_VExplicitOC_HL,2022.2.5,Win32,16.06245081,NA,NA,NA,NA,NA,NA,NA,NA,NA,NA,NA,63.80208333,1.8369,0,3,3,3,1,make a drink,004.png,NA,NA,NA,NA,NA,NA,NA,NA,NA,NA,NA,NA,NA,NA,NA,NA,NA,NA,NA,NA,NA,NA,NA,NA,NA,NA,NA,NA,NA,NA,NA,NA,NA,NA,NA,NA,NA,NA,NA
SUPAMT52689,3WI0P0II67RWILFCOM3OP2DMX5SDRG,27FEE187-DCD9-49C4-853E-B8C8B58C5B1C,2023-09-27_11h52.54.977,WP_VExplicitOC_HL,2022.2.5,Win32,16.06245081,NA,NA,NA,NA,NA,NA,NA,NA,NA,NA,NA,56.77083333,1.5426,0,4,4,4,1,scroll social media,005.png,NA,NA,NA,NA,NA,NA,NA,NA,NA,NA,NA,NA,NA,NA,NA,NA,NA,NA,NA,NA,NA,NA,NA,NA,NA,NA,NA,NA,NA,NA,NA,NA,NA,NA,NA,NA,NA,NA,NA
SUPAMT52689,3WI0P0II67RWILFCOM3OP2DMX5SDRG,27FEE187-DCD9-49C4-853E-B8C8B58C5B1C,2023-09-27_11h52.54.977,WP_VExplicitOC_HL,2022.2.5,Win32,16.06245081,NA,NA,NA,NA,NA,NA,NA,NA,NA,NA,NA,58.33333333,1.4655,0,5,5,5,1,listen to music,006.png,NA,NA,NA,NA,NA,NA,NA,NA,NA,NA,NA,NA,NA,NA,NA,NA,NA,NA,NA,NA,NA,NA,NA,NA,NA,NA,NA,NA,NA,NA,NA,NA,NA,NA,NA,NA,NA,NA,NA
SUPAMT52689,3WI0P0II67RWILFCOM3OP2DMX5SDRG,27FEE187-DCD9-49C4-853E-B8C8B58C5B1C,2023-09-27_11h52.54.977,WP_VExplicitOC_HL,2022.2.5,Win32,16.06245081,NA,NA,NA,NA,NA,NA,NA,NA,NA,NA,NA,53.64583333,1.4286,0,6,6,6,1,daydream,007.png,NA,NA,NA,NA,NA,NA,NA,NA,NA,NA,NA,NA,NA,NA,NA,NA,NA,NA,NA,NA,NA,NA,NA,NA,NA,NA,NA,NA,NA,NA,NA,NA,NA,NA,NA,NA,NA,NA,NA
SUPAMT52689,3WI0P0II67RWILFCOM3OP2DMX5SDRG,27FEE187-DCD9-49C4-853E-B8C8B58C5B1C,2023-09-27_11h52.54.977,WP_VExplicitOC_HL,2022.2.5,Win32,16.06245081,NA,NA,NA,NA,NA,NA,NA,NA,NA,NA,NA,NA,NA,0,7,7,7,1,watch a short animation,008.png,NA,NA,NA,NA,NA,NA,NA,NA,NA,NA,NA,NA,NA,NA,NA,NA,NA,NA,NA,NA,NA,NA,NA,NA,NA,NA,NA,NA,NA,NA,NA,NA,NA,NA,NA,NA,NA,NA,NA
SUPAMT52689,3WI0P0II67RWILFCOM3OP2DMX5SDRG,27FEE187-DCD9-49C4-853E-B8C8B58C5B1C,2023-09-27_11h52.54.977,WP_VExplicitOC_HL,2022.2.5,Win32,16.06245081,NA,NA,NA,NA,NA,NA,NA,NA,NA,NA,NA,48.4375,1.2981,0,8,8,8,1,read a novel,009.png,NA,NA,NA,NA,NA,NA,NA,NA,NA,NA,NA,NA,NA,NA,NA,NA,NA,NA,NA,NA,NA,NA,NA,NA,NA,NA,NA,NA,NA,NA,NA,NA,NA,NA,NA,NA,NA,NA,NA
SUPAMT52689,3WI0P0II67RWILFCOM3OP2DMX5SDRG,27FEE187-DCD9-49C4-853E-B8C8B58C5B1C,2023-09-27_11h52.54.977,WP_VExplicitOC_HL,2022.2.5,Win32,16.06245081,NA,NA,NA,NA,NA,NA,NA,NA,NA,NA,NA,58.07291667,1.877,0,9,9,9,1,read the news,010.png,NA,NA,NA,NA,NA,NA,NA,NA,NA,NA,NA,NA,NA,NA,NA,NA,NA,NA,NA,NA,NA,NA,NA,NA,NA,NA,NA,NA,NA,NA,NA,NA,NA,NA,NA,NA,NA,NA,NA
SUPAMT52689,3WI0P0II67RWILFCOM3OP2DMX5SDRG,27FEE187-DCD9-49C4-853E-B8C8B58C5B1C,2023-09-27_11h52.54.977,WP_VExplicitOC_HL,2022.2.5,Win32,16.06245081,NA,NA,NA,NA,NA,NA,NA,NA,NA,NA,NA,NA,NA,NA,NA,NA,NA,NA,NA,NA,NA,NA,NA,NA,NA,NA,NA,NA,NA,NA,NA,NA,NA,NA,NA,NA,NA,NA,NA,NA,NA,NA,NA,NA,NA,NA,NA,NA,NA,NA,NA,NA,NA,NA,NA,NA,NA,NA,NA
SUPAMT52689,3WI0P0II67RWILFCOM3OP2DMX5SDRG,27FEE187-DCD9-49C4-853E-B8C8B58C5B1C,2023-09-27_11h52.54.977,WP_VExplicitOC_HL,2022.2.5,Win32,16.06245081,NA,NA,NA,NA,NA,NA,NA,NA,NA,NA,NA,NA,NA,NA,NA,NA,NA,NA,NA,NA,stand up,NA,NA,NA,NA,NA,NA,NA,NA,NA,NA,NA,NA,NA,NA,NA,NA,NA,NA,NA,NA,NA,NA,NA,NA,NA,NA,NA,NA,NA,NA,NA,NA,NA,NA,NA,NA,NA,NA
SUPAMT52689,3WI0P0II67RWILFCOM3OP2DMX5SDRG,27FEE187-DCD9-49C4-853E-B8C8B58C5B1C,2023-09-27_11h52.54.977,WP_VExplicitOC_HL,2022.2.5,Win32,16.06245081,60.41666667,3.918,2.0331,NA,NA,NA,NA,NA,frustrated,"frustrated, not frustrated","more frustrated, less frustrated",NA,NA,NA,NA,NA,NA,NA,NA,NA,NA,0,0,0,1,1,NA,NA,NA,NA,NA,NA,NA,NA,NA,NA,NA,NA,NA,NA,NA,NA,NA,NA,NA,NA,NA,NA,NA,NA,NA,NA,NA,NA,NA,NA,NA,NA,NA
SUPAMT52689,3WI0P0II67RWILFCOM3OP2DMX5SDRG,27FEE187-DCD9-49C4-853E-B8C8B58C5B1C,2023-09-27_11h52.54.977,WP_VExplicitOC_HL,2022.2.5,Win32,16.06245081,53.125,4.2278,2.0563,NA,NA,NA,NA,NA,happy,"unhappy, happy","less happy, more happy",NA,NA,NA,NA,NA,NA,NA,NA,NA,NA,0,1,1,0,1,NA,NA,NA,NA,NA,NA,NA,NA,NA,NA,NA,NA,NA,NA,NA,NA,NA,NA,NA,NA,NA,NA,NA,NA,NA,NA,NA,NA,NA,NA,NA,NA,NA
SUPAMT52689,3WI0P0II67RWILFCOM3OP2DMX5SDRG,27FEE187-DCD9-49C4-853E-B8C8B58C5B1C,2023-09-27_11h52.54.977,WP_VExplicitOC_HL,2022.2.5,Win32,16.06245081,63.28125,3.4772,2.0226,NA,NA,NA,NA,NA,bored,"bored, not bored","more bored, less bored",NA,NA,NA,NA,NA,NA,NA,NA,NA,NA,0,2,2,2,1,NA,NA,NA,NA,NA,NA,NA,NA,NA,NA,NA,NA,NA,NA,NA,NA,NA,NA,NA,NA,NA,NA,NA,NA,NA,NA,NA,NA,NA,NA,NA,NA,NA
SUPAMT52689,3WI0P0II67RWILFCOM3OP2DMX5SDRG,27FEE187-DCD9-49C4-853E-B8C8B58C5B1C,2023-09-27_11h52.54.977,WP_VExplicitOC_HL,2022.2.5,Win32,16.06245081,NA,NA,NA,NA,NA,NA,NA,NA,NA,NA,NA,NA,NA,NA,NA,NA,NA,NA,NA,NA,NA,NA,NA,NA,NA,NA,NA,NA,NA,NA,NA,NA,NA,NA,NA,NA,NA,NA,NA,NA,NA,NA,NA,NA,NA,NA,NA,NA,NA,NA,NA,NA,NA,NA,NA,NA,NA,NA,NA
SUPAMT52689,3WI0P0II67RWILFCOM3OP2DMX5SDRG,27FEE187-DCD9-49C4-853E-B8C8B58C5B1C,2023-09-27_11h52.54.977,WP_VExplicitOC_HL,2022.2.5,Win32,16.06245081,NA,NA,NA,NA,NA,NA,NA,NA,NA,NA,NA,NA,NA,NA,NA,NA,NA,NA,NA,NA,NA,NA,NA,NA,NA,NA,NA,NA,NA,NA,NA,NA,NA,NA,NA,NA,NA,NA,NA,NA,NA,NA,NA,NA,NA,NA,NA,NA,NA,NA,NA,NA,NA,NA,NA,NA,NA,NA,NA
SUPAMT52689,3WI0P0II67RWILFCOM3OP2DMX5SDRG,27FEE187-DCD9-49C4-853E-B8C8B58C5B1C,2023-09-27_11h52.54.977,WP_VExplicitOC_HL,2022.2.5,Win32,16.06245081,44.79166667,4.2046,2.0798,NA,NA,NA,NA,NA,happy,"unhappy, happy","less happy, more happy",NA,NA,NA,NA,NA,NA,NA,NA,NA,NA,NA,NA,NA,NA,NA,0,0,0,0,1,NA,NA,NA,NA,NA,NA,NA,NA,NA,NA,NA,NA,NA,NA,NA,NA,NA,NA,NA,NA,NA,NA,NA,NA,NA,NA,NA,NA
SUPAMT52689,3WI0P0II67RWILFCOM3OP2DMX5SDRG,27FEE187-DCD9-49C4-853E-B8C8B58C5B1C,2023-09-27_11h52.54.977,WP_VExplicitOC_HL,2022.2.5,Win32,16.06245081,57.55208333,3.918,2.0418,NA,NA,NA,NA,NA,bored,"bored, not bored","more bored, less bored",NA,NA,NA,NA,NA,NA,NA,NA,NA,NA,NA,NA,NA,NA,NA,0,1,1,2,1,NA,NA,NA,NA,NA,NA,NA,NA,NA,NA,NA,NA,NA,NA,NA,NA,NA,NA,NA,NA,NA,NA,NA,NA,NA,NA,NA,NA
SUPAMT52689,3WI0P0II67RWILFCOM3OP2DMX5SDRG,27FEE187-DCD9-49C4-853E-B8C8B58C5B1C,2023-09-27_11h52.54.977,WP_VExplicitOC_HL,2022.2.5,Win32,16.06245081,46.875,4.0894,2.0292,NA,NA,NA,NA,NA,frustrated,"frustrated, not frustrated","more frustrated, less frustrated",NA,NA,NA,NA,NA,NA,NA,NA,NA,NA,NA,NA,NA,NA,NA,0,2,2,1,1,NA,NA,NA,NA,NA,NA,NA,NA,NA,NA,NA,NA,NA,NA,NA,NA,NA,NA,NA,NA,NA,NA,NA,NA,NA,NA,NA,NA
SUPAMT52689,3WI0P0II67RWILFCOM3OP2DMX5SDRG,27FEE187-DCD9-49C4-853E-B8C8B58C5B1C,2023-09-27_11h52.54.977,WP_VExplicitOC_HL,2022.2.5,Win32,16.06245081,NA,NA,NA,NA,NA,NA,NA,NA,NA,NA,NA,NA,NA,NA,NA,NA,NA,NA,NA,NA,NA,NA,NA,NA,NA,NA,NA,NA,NA,NA,NA,0,0,0,0,1,NA,NA,NA,NA,NA,NA,NA,NA,NA,NA,NA,NA,NA,NA,NA,NA,NA,NA,NA,NA,NA,NA,NA
SUPAMT52689,3WI0P0II67RWILFCOM3OP2DMX5SDRG,27FEE187-DCD9-49C4-853E-B8C8B58C5B1C,2023-09-27_11h52.54.977,WP_VExplicitOC_HL,2022.2.5,Win32,16.06245081,-32.29166667,3.689,2.0895,NA,NA,NA,NA,NA,bored,"bored, not bored","more bored, less bored",NA,NA,NA,NA,NA,NA,NA,NA,NA,NA,NA,NA,NA,NA,NA,0,0,0,2,1,NA,NA,NA,NA,NA,NA,NA,NA,NA,NA,NA,NA,NA,NA,NA,NA,NA,NA,NA,NA,NA,NA,NA,NA,NA,NA,NA,NA
SUPAMT52689,3WI0P0II67RWILFCOM3OP2DMX5SDRG,27FEE187-DCD9-49C4-853E-B8C8B58C5B1C,2023-09-27_11h52.54.977,WP_VExplicitOC_HL,2022.2.5,Win32,16.06245081,-53.90625,4.7467,2.0275,NA,NA,NA,NA,NA,frustrated,"frustrated, not frustrated","more frustrated, less frustrated",NA,NA,NA,NA,NA,NA,NA,NA,NA,NA,NA,NA,NA,NA,NA,0,1,1,1,1,NA,NA,NA,NA,NA,NA,NA,NA,NA,NA,NA,NA,NA,NA,NA,NA,NA,NA,NA,NA,NA,NA,NA,NA,NA,NA,NA,NA
SUPAMT52689,3WI0P0II67RWILFCOM3OP2DMX5SDRG,27FEE187-DCD9-49C4-853E-B8C8B58C5B1C,2023-09-27_11h52.54.977,WP_VExplicitOC_HL,2022.2.5,Win32,16.06245081,64.0625,4.0212,2.0103,NA,NA,NA,NA,NA,happy,"unhappy, happy","less happy, more happy",NA,NA,NA,NA,NA,NA,NA,NA,NA,NA,NA,NA,NA,NA,NA,0,2,2,0,1,NA,NA,NA,NA,NA,NA,NA,NA,NA,NA,NA,NA,NA,NA,NA,NA,NA,NA,NA,NA,NA,NA,NA,NA,NA,NA,NA,NA
SUPAMT52689,3WI0P0II67RWILFCOM3OP2DMX5SDRG,27FEE187-DCD9-49C4-853E-B8C8B58C5B1C,2023-09-27_11h52.54.977,WP_VExplicitOC_HL,2022.2.5,Win32,16.06245081,NA,NA,NA,NA,NA,NA,NA,NA,NA,NA,NA,NA,NA,NA,NA,NA,NA,NA,NA,NA,NA,NA,NA,NA,NA,NA,NA,NA,NA,NA,NA,1,0,1,0,1,NA,NA,NA,NA,NA,NA,NA,NA,NA,NA,NA,NA,NA,NA,NA,NA,NA,NA,NA,NA,NA,NA,NA
SUPAMT52689,3WI0P0II67RWILFCOM3OP2DMX5SDRG,27FEE187-DCD9-49C4-853E-B8C8B58C5B1C,2023-09-27_11h52.54.977,WP_VExplicitOC_HL,2022.2.5,Win32,16.06245081,42.70833333,4.0502,2.0018,NA,NA,NA,NA,NA,happy,"unhappy, happy","less happy, more happy",NA,NA,NA,NA,NA,NA,NA,NA,NA,NA,NA,NA,NA,NA,NA,0,0,0,0,1,NA,NA,NA,NA,NA,NA,NA,NA,NA,NA,NA,NA,NA,NA,NA,NA,NA,NA,NA,NA,NA,NA,NA,NA,NA,NA,NA,NA
SUPAMT52689,3WI0P0II67RWILFCOM3OP2DMX5SDRG,27FEE187-DCD9-49C4-853E-B8C8B58C5B1C,2023-09-27_11h52.54.977,WP_VExplicitOC_HL,2022.2.5,Win32,16.06245081,-35.67708333,4.3058,2.0553,NA,NA,NA,NA,NA,frustrated,"frustrated, not frustrated","more frustrated, less frustrated",NA,NA,NA,NA,NA,NA,NA,NA,NA,NA,NA,NA,NA,NA,NA,0,1,1,1,1,NA,NA,NA,NA,NA,NA,NA,NA,NA,NA,NA,NA,NA,NA,NA,NA,NA,NA,NA,NA,NA,NA,NA,NA,NA,NA,NA,NA
SUPAMT52689,3WI0P0II67RWILFCOM3OP2DMX5SDRG,27FEE187-DCD9-49C4-853E-B8C8B58C5B1C,2023-09-27_11h52.54.977,WP_VExplicitOC_HL,2022.2.5,Win32,16.06245081,-35.41666667,3.8409,2.0844,NA,NA,NA,NA,NA,bored,"bored, not bored","more bored, less bored",NA,NA,NA,NA,NA,NA,NA,NA,NA,NA,NA,NA,NA,NA,NA,0,2,2,2,1,NA,NA,NA,NA,NA,NA,NA,NA,NA,NA,NA,NA,NA,NA,NA,NA,NA,NA,NA,NA,NA,NA,NA,NA,NA,NA,NA,NA
SUPAMT52689,3WI0P0II67RWILFCOM3OP2DMX5SDRG,27FEE187-DCD9-49C4-853E-B8C8B58C5B1C,2023-09-27_11h52.54.977,WP_VExplicitOC_HL,2022.2.5,Win32,16.06245081,NA,NA,NA,NA,NA,NA,NA,NA,NA,NA,NA,NA,NA,NA,NA,NA,NA,NA,NA,NA,NA,NA,NA,NA,NA,NA,NA,NA,NA,NA,NA,2,0,2,0,1,NA,NA,NA,NA,NA,NA,NA,NA,NA,NA,NA,NA,NA,NA,NA,NA,NA,NA,NA,NA,NA,NA,NA
SUPAMT52689,3WI0P0II67RWILFCOM3OP2DMX5SDRG,27FEE187-DCD9-49C4-853E-B8C8B58C5B1C,2023-09-27_11h52.54.977,WP_VExplicitOC_HL,2022.2.5,Win32,16.06245081,-52.08333333,3.9176,2.0162,NA,NA,NA,NA,NA,frustrated,"frustrated, not frustrated","more frustrated, less frustrated",NA,NA,NA,NA,NA,NA,NA,NA,NA,NA,NA,NA,NA,NA,NA,0,0,0,1,1,NA,NA,NA,NA,NA,NA,NA,NA,NA,NA,NA,NA,NA,NA,NA,NA,NA,NA,NA,NA,NA,NA,NA,NA,NA,NA,NA,NA
SUPAMT52689,3WI0P0II67RWILFCOM3OP2DMX5SDRG,27FEE187-DCD9-49C4-853E-B8C8B58C5B1C,2023-09-27_11h52.54.977,WP_VExplicitOC_HL,2022.2.5,Win32,16.06245081,-45.05208333,3.756,2.0637,NA,NA,NA,NA,NA,bored,"bored, not bored","more bored, less bored",NA,NA,NA,NA,NA,NA,NA,NA,NA,NA,NA,NA,NA,NA,NA,0,1,1,2,1,NA,NA,NA,NA,NA,NA,NA,NA,NA,NA,NA,NA,NA,NA,NA,NA,NA,NA,NA,NA,NA,NA,NA,NA,NA,NA,NA,NA
SUPAMT52689,3WI0P0II67RWILFCOM3OP2DMX5SDRG,27FEE187-DCD9-49C4-853E-B8C8B58C5B1C,2023-09-27_11h52.54.977,WP_VExplicitOC_HL,2022.2.5,Win32,16.06245081,45.83333333,4.255,2.0632,NA,NA,NA,NA,NA,happy,"unhappy, happy","less happy, more happy",NA,NA,NA,NA,NA,NA,NA,NA,NA,NA,NA,NA,NA,NA,NA,0,2,2,0,1,NA,NA,NA,NA,NA,NA,NA,NA,NA,NA,NA,NA,NA,NA,NA,NA,NA,NA,NA,NA,NA,NA,NA,NA,NA,NA,NA,NA
SUPAMT52689,3WI0P0II67RWILFCOM3OP2DMX5SDRG,27FEE187-DCD9-49C4-853E-B8C8B58C5B1C,2023-09-27_11h52.54.977,WP_VExplicitOC_HL,2022.2.5,Win32,16.06245081,NA,NA,NA,NA,NA,NA,NA,NA,NA,NA,NA,NA,NA,NA,NA,NA,NA,NA,NA,NA,NA,NA,NA,NA,NA,NA,NA,NA,NA,NA,NA,3,0,3,0,1,NA,NA,NA,NA,NA,NA,NA,NA,NA,NA,NA,NA,NA,NA,NA,NA,NA,NA,NA,NA,NA,NA,NA
SUPAMT52689,3WI0P0II67RWILFCOM3OP2DMX5SDRG,27FEE187-DCD9-49C4-853E-B8C8B58C5B1C,2023-09-27_11h52.54.977,WP_VExplicitOC_HL,2022.2.5,Win32,16.06245081,NA,NA,2.0329,NA,NA,NA,NA,NA,bored,"bored, not bored","more bored, less bored",NA,NA,NA,NA,NA,NA,NA,NA,NA,NA,NA,NA,NA,NA,NA,0,0,0,2,1,NA,NA,NA,NA,NA,NA,NA,NA,NA,NA,NA,NA,NA,NA,NA,NA,NA,NA,NA,NA,NA,NA,NA,NA,NA,NA,NA,NA
SUPAMT52689,3WI0P0II67RWILFCOM3OP2DMX5SDRG,27FEE187-DCD9-49C4-853E-B8C8B58C5B1C,2023-09-27_11h52.54.977,WP_VExplicitOC_HL,2022.2.5,Win32,16.06245081,NA,NA,2.067,NA,NA,NA,NA,NA,happy,"unhappy, happy","less happy, more happy",NA,NA,NA,NA,NA,NA,NA,NA,NA,NA,NA,NA,NA,NA,NA,0,1,1,0,1,NA,NA,NA,NA,NA,NA,NA,NA,NA,NA,NA,NA,NA,NA,NA,NA,NA,NA,NA,NA,NA,NA,NA,NA,NA,NA,NA,NA
SUPAMT52689,3WI0P0II67RWILFCOM3OP2DMX5SDRG,27FEE187-DCD9-49C4-853E-B8C8B58C5B1C,2023-09-27_11h52.54.977,WP_VExplicitOC_HL,2022.2.5,Win32,16.06245081,NA,NA,2.0803,NA,NA,NA,NA,NA,frustrated,"frustrated, not frustrated","more frustrated, less frustrated",NA,NA,NA,NA,NA,NA,NA,NA,NA,NA,NA,NA,NA,NA,NA,0,2,2,1,1,NA,NA,NA,NA,NA,NA,NA,NA,NA,NA,NA,NA,NA,NA,NA,NA,NA,NA,NA,NA,NA,NA,NA,NA,NA,NA,NA,NA
SUPAMT52689,3WI0P0II67RWILFCOM3OP2DMX5SDRG,27FEE187-DCD9-49C4-853E-B8C8B58C5B1C,2023-09-27_11h52.54.977,WP_VExplicitOC_HL,2022.2.5,Win32,16.06245081,NA,NA,NA,NA,NA,NA,NA,NA,NA,NA,NA,NA,NA,NA,NA,NA,NA,NA,NA,NA,NA,NA,NA,NA,NA,NA,NA,NA,NA,NA,NA,4,0,4,0,1,NA,NA,NA,NA,NA,NA,NA,NA,NA,NA,NA,NA,NA,NA,NA,NA,NA,NA,NA,NA,NA,NA,NA
SUPAMT52689,3WI0P0II67RWILFCOM3OP2DMX5SDRG,27FEE187-DCD9-49C4-853E-B8C8B58C5B1C,2023-09-27_11h52.54.977,WP_VExplicitOC_HL,2022.2.5,Win32,16.06245081,-52.86458333,3.8032,2.0021,NA,NA,NA,NA,NA,bored,"bored, not bored","more bored, less bored",NA,NA,NA,NA,NA,NA,NA,NA,NA,NA,NA,NA,NA,NA,NA,0,0,0,2,1,NA,NA,NA,NA,NA,NA,NA,NA,NA,NA,NA,NA,NA,NA,NA,NA,NA,NA,NA,NA,NA,NA,NA,NA,NA,NA,NA,NA
SUPAMT52689,3WI0P0II67RWILFCOM3OP2DMX5SDRG,27FEE187-DCD9-49C4-853E-B8C8B58C5B1C,2023-09-27_11h52.54.977,WP_VExplicitOC_HL,2022.2.5,Win32,16.06245081,65.36458333,4.0725,2.0621,NA,NA,NA,NA,NA,happy,"unhappy, happy","less happy, more happy",NA,NA,NA,NA,NA,NA,NA,NA,NA,NA,NA,NA,NA,NA,NA,0,1,1,0,1,NA,NA,NA,NA,NA,NA,NA,NA,NA,NA,NA,NA,NA,NA,NA,NA,NA,NA,NA,NA,NA,NA,NA,NA,NA,NA,NA,NA
SUPAMT52689,3WI0P0II67RWILFCOM3OP2DMX5SDRG,27FEE187-DCD9-49C4-853E-B8C8B58C5B1C,2023-09-27_11h52.54.977,WP_VExplicitOC_HL,2022.2.5,Win32,16.06245081,-60.15625,3.8638,2.0284,NA,NA,NA,NA,NA,frustrated,"frustrated, not frustrated","more frustrated, less frustrated",NA,NA,NA,NA,NA,NA,NA,NA,NA,NA,NA,NA,NA,NA,NA,0,2,2,1,1,NA,NA,NA,NA,NA,NA,NA,NA,NA,NA,NA,NA,NA,NA,NA,NA,NA,NA,NA,NA,NA,NA,NA,NA,NA,NA,NA,NA
SUPAMT52689,3WI0P0II67RWILFCOM3OP2DMX5SDRG,27FEE187-DCD9-49C4-853E-B8C8B58C5B1C,2023-09-27_11h52.54.977,WP_VExplicitOC_HL,2022.2.5,Win32,16.06245081,NA,NA,NA,NA,NA,NA,NA,NA,NA,NA,NA,NA,NA,NA,NA,NA,NA,NA,NA,NA,NA,NA,NA,NA,NA,NA,NA,NA,NA,NA,NA,5,0,5,0,1,NA,NA,NA,NA,NA,NA,NA,NA,NA,NA,NA,NA,NA,NA,NA,NA,NA,NA,NA,NA,NA,NA,NA
SUPAMT52689,3WI0P0II67RWILFCOM3OP2DMX5SDRG,27FEE187-DCD9-49C4-853E-B8C8B58C5B1C,2023-09-27_11h52.54.977,WP_VExplicitOC_HL,2022.2.5,Win32,16.06245081,61.97916667,3.7077,2.0042,NA,NA,NA,NA,NA,happy,"unhappy, happy","less happy, more happy",NA,NA,NA,NA,NA,NA,NA,NA,NA,NA,NA,NA,NA,NA,NA,0,0,0,0,1,NA,NA,NA,NA,NA,NA,NA,NA,NA,NA,NA,NA,NA,NA,NA,NA,NA,NA,NA,NA,NA,NA,NA,NA,NA,NA,NA,NA
SUPAMT52689,3WI0P0II67RWILFCOM3OP2DMX5SDRG,27FEE187-DCD9-49C4-853E-B8C8B58C5B1C,2023-09-27_11h52.54.977,WP_VExplicitOC_HL,2022.2.5,Win32,16.06245081,-68.22916667,3.7883,2.0206,NA,NA,NA,NA,NA,bored,"bored, not bored","more bored, less bored",NA,NA,NA,NA,NA,NA,NA,NA,NA,NA,NA,NA,NA,NA,NA,0,1,1,2,1,NA,NA,NA,NA,NA,NA,NA,NA,NA,NA,NA,NA,NA,NA,NA,NA,NA,NA,NA,NA,NA,NA,NA,NA,NA,NA,NA,NA
SUPAMT52689,3WI0P0II67RWILFCOM3OP2DMX5SDRG,27FEE187-DCD9-49C4-853E-B8C8B58C5B1C,2023-09-27_11h52.54.977,WP_VExplicitOC_HL,2022.2.5,Win32,16.06245081,-77.08333333,3.7594,2.0207,NA,NA,NA,NA,NA,frustrated,"frustrated, not frustrated","more frustrated, less frustrated",NA,NA,NA,NA,NA,NA,NA,NA,NA,NA,NA,NA,NA,NA,NA,0,2,2,1,1,NA,NA,NA,NA,NA,NA,NA,NA,NA,NA,NA,NA,NA,NA,NA,NA,NA,NA,NA,NA,NA,NA,NA,NA,NA,NA,NA,NA
SUPAMT52689,3WI0P0II67RWILFCOM3OP2DMX5SDRG,27FEE187-DCD9-49C4-853E-B8C8B58C5B1C,2023-09-27_11h52.54.977,WP_VExplicitOC_HL,2022.2.5,Win32,16.06245081,NA,NA,NA,NA,NA,NA,NA,NA,NA,NA,NA,NA,NA,NA,NA,NA,NA,NA,NA,NA,NA,NA,NA,NA,NA,NA,NA,NA,NA,NA,NA,6,0,6,0,1,NA,NA,NA,NA,NA,NA,NA,NA,NA,NA,NA,NA,NA,NA,NA,NA,NA,NA,NA,NA,NA,NA,NA
SUPAMT52689,3WI0P0II67RWILFCOM3OP2DMX5SDRG,27FEE187-DCD9-49C4-853E-B8C8B58C5B1C,2023-09-27_11h52.54.977,WP_VExplicitOC_HL,2022.2.5,Win32,16.06245081,52.86458333,4.0268,2.0186,NA,NA,NA,NA,NA,happy,"unhappy, happy","less happy, more happy",NA,NA,NA,NA,NA,NA,NA,NA,NA,NA,NA,NA,NA,NA,NA,0,0,0,0,1,NA,NA,NA,NA,NA,NA,NA,NA,NA,NA,NA,NA,NA,NA,NA,NA,NA,NA,NA,NA,NA,NA,NA,NA,NA,NA,NA,NA
SUPAMT52689,3WI0P0II67RWILFCOM3OP2DMX5SDRG,27FEE187-DCD9-49C4-853E-B8C8B58C5B1C,2023-09-27_11h52.54.977,WP_VExplicitOC_HL,2022.2.5,Win32,16.06245081,-64.84375,3.9668,2.0613,NA,NA,NA,NA,NA,bored,"bored, not bored","more bored, less bored",NA,NA,NA,NA,NA,NA,NA,NA,NA,NA,NA,NA,NA,NA,NA,0,1,1,2,1,NA,NA,NA,NA,NA,NA,NA,NA,NA,NA,NA,NA,NA,NA,NA,NA,NA,NA,NA,NA,NA,NA,NA,NA,NA,NA,NA,NA
SUPAMT52689,3WI0P0II67RWILFCOM3OP2DMX5SDRG,27FEE187-DCD9-49C4-853E-B8C8B58C5B1C,2023-09-27_11h52.54.977,WP_VExplicitOC_HL,2022.2.5,Win32,16.06245081,-48.17708333,3.8243,2.0776,NA,NA,NA,NA,NA,frustrated,"frustrated, not frustrated","more frustrated, less frustrated",NA,NA,NA,NA,NA,NA,NA,NA,NA,NA,NA,NA,NA,NA,NA,0,2,2,1,1,NA,NA,NA,NA,NA,NA,NA,NA,NA,NA,NA,NA,NA,NA,NA,NA,NA,NA,NA,NA,NA,NA,NA,NA,NA,NA,NA,NA
SUPAMT52689,3WI0P0II67RWILFCOM3OP2DMX5SDRG,27FEE187-DCD9-49C4-853E-B8C8B58C5B1C,2023-09-27_11h52.54.977,WP_VExplicitOC_HL,2022.2.5,Win32,16.06245081,NA,NA,NA,NA,NA,NA,NA,NA,NA,NA,NA,NA,NA,NA,NA,NA,NA,NA,NA,NA,NA,NA,NA,NA,NA,NA,NA,NA,NA,NA,NA,7,0,7,0,1,NA,NA,NA,NA,NA,NA,NA,NA,NA,NA,NA,NA,NA,NA,NA,NA,NA,NA,NA,NA,NA,NA,NA
SUPAMT52689,3WI0P0II67RWILFCOM3OP2DMX5SDRG,27FEE187-DCD9-49C4-853E-B8C8B58C5B1C,2023-09-27_11h52.54.977,WP_VExplicitOC_HL,2022.2.5,Win32,16.06245081,-68.22916667,3.7535,2.0186,NA,NA,NA,NA,NA,bored,"bored, not bored","more bored, less bored",NA,NA,NA,NA,NA,NA,NA,NA,NA,NA,NA,NA,NA,NA,NA,0,0,0,2,1,NA,NA,NA,NA,NA,NA,NA,NA,NA,NA,NA,NA,NA,NA,NA,NA,NA,NA,NA,NA,NA,NA,NA,NA,NA,NA,NA,NA
SUPAMT52689,3WI0P0II67RWILFCOM3OP2DMX5SDRG,27FEE187-DCD9-49C4-853E-B8C8B58C5B1C,2023-09-27_11h52.54.977,WP_VExplicitOC_HL,2022.2.5,Win32,16.06245081,-56.77083333,3.7457,2.0107,NA,NA,NA,NA,NA,frustrated,"frustrated, not frustrated","more frustrated, less frustrated",NA,NA,NA,NA,NA,NA,NA,NA,NA,NA,NA,NA,NA,NA,NA,0,1,1,1,1,NA,NA,NA,NA,NA,NA,NA,NA,NA,NA,NA,NA,NA,NA,NA,NA,NA,NA,NA,NA,NA,NA,NA,NA,NA,NA,NA,NA
SUPAMT52689,3WI0P0II67RWILFCOM3OP2DMX5SDRG,27FEE187-DCD9-49C4-853E-B8C8B58C5B1C,2023-09-27_11h52.54.977,WP_VExplicitOC_HL,2022.2.5,Win32,16.06245081,65.625,3.6787,2.0262,NA,NA,NA,NA,NA,happy,"unhappy, happy","less happy, more happy",NA,NA,NA,NA,NA,NA,NA,NA,NA,NA,NA,NA,NA,NA,NA,0,2,2,0,1,NA,NA,NA,NA,NA,NA,NA,NA,NA,NA,NA,NA,NA,NA,NA,NA,NA,NA,NA,NA,NA,NA,NA,NA,NA,NA,NA,NA
SUPAMT52689,3WI0P0II67RWILFCOM3OP2DMX5SDRG,27FEE187-DCD9-49C4-853E-B8C8B58C5B1C,2023-09-27_11h52.54.977,WP_VExplicitOC_HL,2022.2.5,Win32,16.06245081,NA,NA,NA,NA,NA,NA,NA,NA,NA,NA,NA,NA,NA,NA,NA,NA,NA,NA,NA,NA,NA,NA,NA,NA,NA,NA,NA,NA,NA,NA,NA,8,0,8,0,1,NA,NA,NA,NA,NA,NA,NA,NA,NA,NA,NA,NA,NA,NA,NA,NA,NA,NA,NA,NA,NA,NA,NA
SUPAMT52689,3WI0P0II67RWILFCOM3OP2DMX5SDRG,27FEE187-DCD9-49C4-853E-B8C8B58C5B1C,2023-09-27_11h52.54.977,WP_VExplicitOC_HL,2022.2.5,Win32,16.06245081,-61.45833333,3.9349,2.0498,NA,NA,NA,NA,NA,bored,"bored, not bored","more bored, less bored",NA,NA,NA,NA,NA,NA,NA,NA,NA,NA,NA,NA,NA,NA,NA,0,0,0,2,1,NA,NA,NA,NA,NA,NA,NA,NA,NA,NA,NA,NA,NA,NA,NA,NA,NA,NA,NA,NA,NA,NA,NA,NA,NA,NA,NA,NA
SUPAMT52689,3WI0P0II67RWILFCOM3OP2DMX5SDRG,27FEE187-DCD9-49C4-853E-B8C8B58C5B1C,2023-09-27_11h52.54.977,WP_VExplicitOC_HL,2022.2.5,Win32,16.06245081,-34.375,4.1121,2.0658,NA,NA,NA,NA,NA,frustrated,"frustrated, not frustrated","more frustrated, less frustrated",NA,NA,NA,NA,NA,NA,NA,NA,NA,NA,NA,NA,NA,NA,NA,0,1,1,1,1,NA,NA,NA,NA,NA,NA,NA,NA,NA,NA,NA,NA,NA,NA,NA,NA,NA,NA,NA,NA,NA,NA,NA,NA,NA,NA,NA,NA
SUPAMT52689,3WI0P0II67RWILFCOM3OP2DMX5SDRG,27FEE187-DCD9-49C4-853E-B8C8B58C5B1C,2023-09-27_11h52.54.977,WP_VExplicitOC_HL,2022.2.5,Win32,16.06245081,64.32291667,3.7625,2.0178,NA,NA,NA,NA,NA,happy,"unhappy, happy","less happy, more happy",NA,NA,NA,NA,NA,NA,NA,NA,NA,NA,NA,NA,NA,NA,NA,0,2,2,0,1,NA,NA,NA,NA,NA,NA,NA,NA,NA,NA,NA,NA,NA,NA,NA,NA,NA,NA,NA,NA,NA,NA,NA,NA,NA,NA,NA,NA
SUPAMT52689,3WI0P0II67RWILFCOM3OP2DMX5SDRG,27FEE187-DCD9-49C4-853E-B8C8B58C5B1C,2023-09-27_11h52.54.977,WP_VExplicitOC_HL,2022.2.5,Win32,16.06245081,NA,NA,NA,NA,NA,NA,NA,NA,NA,NA,NA,NA,NA,NA,NA,NA,NA,NA,NA,NA,NA,NA,NA,NA,NA,NA,NA,NA,NA,NA,NA,9,0,9,0,1,NA,NA,NA,NA,NA,NA,NA,NA,NA,NA,NA,NA,NA,NA,NA,NA,NA,NA,NA,NA,NA,NA,NA
SUPAMT52689,3WI0P0II67RWILFCOM3OP2DMX5SDRG,27FEE187-DCD9-49C4-853E-B8C8B58C5B1C,2023-09-27_11h52.54.977,WP_VExplicitOC_HL,2022.2.5,Win32,16.06245081,-52.60416667,3.7723,2.0043,NA,NA,NA,NA,NA,bored,"bored, not bored","more bored, less bored",NA,NA,NA,NA,NA,NA,NA,NA,NA,NA,NA,NA,NA,NA,NA,0,0,0,2,1,NA,NA,NA,NA,NA,NA,NA,NA,NA,NA,NA,NA,NA,NA,NA,NA,NA,NA,NA,NA,NA,NA,NA,NA,NA,NA,NA,NA
SUPAMT52689,3WI0P0II67RWILFCOM3OP2DMX5SDRG,27FEE187-DCD9-49C4-853E-B8C8B58C5B1C,2023-09-27_11h52.54.977,WP_VExplicitOC_HL,2022.2.5,Win32,16.06245081,-100,3.6661,2.0309,NA,NA,NA,NA,NA,frustrated,"frustrated, not frustrated","more frustrated, less frustrated",NA,NA,NA,NA,NA,NA,NA,NA,NA,NA,NA,NA,NA,NA,NA,0,1,1,1,1,NA,NA,NA,NA,NA,NA,NA,NA,NA,NA,NA,NA,NA,NA,NA,NA,NA,NA,NA,NA,NA,NA,NA,NA,NA,NA,NA,NA
SUPAMT52689,3WI0P0II67RWILFCOM3OP2DMX5SDRG,27FEE187-DCD9-49C4-853E-B8C8B58C5B1C,2023-09-27_11h52.54.977,WP_VExplicitOC_HL,2022.2.5,Win32,16.06245081,50.78125,3.8281,2.0916,NA,NA,NA,NA,NA,happy,"unhappy, happy","less happy, more happy",NA,NA,NA,NA,NA,NA,NA,NA,NA,NA,NA,NA,NA,NA,NA,0,2,2,0,1,NA,NA,NA,NA,NA,NA,NA,NA,NA,NA,NA,NA,NA,NA,NA,NA,NA,NA,NA,NA,NA,NA,NA,NA,NA,NA,NA,NA
SUPAMT52689,3WI0P0II67RWILFCOM3OP2DMX5SDRG,27FEE187-DCD9-49C4-853E-B8C8B58C5B1C,2023-09-27_11h52.54.977,WP_VExplicitOC_HL,2022.2.5,Win32,16.06245081,NA,NA,NA,NA,NA,NA,NA,NA,NA,NA,NA,NA,NA,NA,NA,NA,NA,NA,NA,NA,NA,NA,NA,NA,NA,NA,NA,NA,NA,NA,NA,10,0,10,0,1,NA,NA,NA,NA,NA,NA,NA,NA,NA,NA,NA,NA,NA,NA,NA,NA,NA,NA,NA,NA,NA,NA,NA
SUPAMT52689,3WI0P0II67RWILFCOM3OP2DMX5SDRG,27FEE187-DCD9-49C4-853E-B8C8B58C5B1C,2023-09-27_11h52.54.977,WP_VExplicitOC_HL,2022.2.5,Win32,16.06245081,-32.29166667,3.7906,2.0232,NA,NA,NA,NA,NA,bored,"bored, not bored","more bored, less bored",NA,NA,NA,NA,NA,NA,NA,NA,NA,NA,NA,NA,NA,NA,NA,0,0,0,2,1,NA,NA,NA,NA,NA,NA,NA,NA,NA,NA,NA,NA,NA,NA,NA,NA,NA,NA,NA,NA,NA,NA,NA,NA,NA,NA,NA,NA
SUPAMT52689,3WI0P0II67RWILFCOM3OP2DMX5SDRG,27FEE187-DCD9-49C4-853E-B8C8B58C5B1C,2023-09-27_11h52.54.977,WP_VExplicitOC_HL,2022.2.5,Win32,16.06245081,-57.8125,3.7418,2.0383,NA,NA,NA,NA,NA,frustrated,"frustrated, not frustrated","more frustrated, less frustrated",NA,NA,NA,NA,NA,NA,NA,NA,NA,NA,NA,NA,NA,NA,NA,0,1,1,1,1,NA,NA,NA,NA,NA,NA,NA,NA,NA,NA,NA,NA,NA,NA,NA,NA,NA,NA,NA,NA,NA,NA,NA,NA,NA,NA,NA,NA
SUPAMT52689,3WI0P0II67RWILFCOM3OP2DMX5SDRG,27FEE187-DCD9-49C4-853E-B8C8B58C5B1C,2023-09-27_11h52.54.977,WP_VExplicitOC_HL,2022.2.5,Win32,16.06245081,69.79166667,3.6573,2.0523,NA,NA,NA,NA,NA,happy,"unhappy, happy","less happy, more happy",NA,NA,NA,NA,NA,NA,NA,NA,NA,NA,NA,NA,NA,NA,NA,0,2,2,0,1,NA,NA,NA,NA,NA,NA,NA,NA,NA,NA,NA,NA,NA,NA,NA,NA,NA,NA,NA,NA,NA,NA,NA,NA,NA,NA,NA,NA
SUPAMT52689,3WI0P0II67RWILFCOM3OP2DMX5SDRG,27FEE187-DCD9-49C4-853E-B8C8B58C5B1C,2023-09-27_11h52.54.977,WP_VExplicitOC_HL,2022.2.5,Win32,16.06245081,NA,NA,NA,NA,NA,NA,NA,NA,NA,NA,NA,NA,NA,NA,NA,NA,NA,NA,NA,NA,NA,NA,NA,NA,NA,NA,NA,NA,NA,NA,NA,11,0,11,0,1,NA,NA,NA,NA,NA,NA,NA,NA,NA,NA,NA,NA,NA,NA,NA,NA,NA,NA,NA,NA,NA,NA,NA
SUPAMT52689,3WI0P0II67RWILFCOM3OP2DMX5SDRG,27FEE187-DCD9-49C4-853E-B8C8B58C5B1C,2023-09-27_11h52.54.977,WP_VExplicitOC_HL,2022.2.5,Win32,16.06245081,-51.5625,6.2729,2.0843,NA,NA,NA,NA,NA,happy,"unhappy, happy","less happy, more happy",NA,NA,NA,NA,NA,NA,NA,NA,NA,NA,NA,NA,NA,NA,NA,0,0,0,0,1,NA,NA,NA,NA,NA,NA,NA,NA,NA,NA,NA,NA,NA,NA,NA,NA,NA,NA,NA,NA,NA,NA,NA,NA,NA,NA,NA,NA
SUPAMT52689,3WI0P0II67RWILFCOM3OP2DMX5SDRG,27FEE187-DCD9-49C4-853E-B8C8B58C5B1C,2023-09-27_11h52.54.977,WP_VExplicitOC_HL,2022.2.5,Win32,16.06245081,-53.90625,3.9021,2.096,NA,NA,NA,NA,NA,bored,"bored, not bored","more bored, less bored",NA,NA,NA,NA,NA,NA,NA,NA,NA,NA,NA,NA,NA,NA,NA,0,1,1,2,1,NA,NA,NA,NA,NA,NA,NA,NA,NA,NA,NA,NA,NA,NA,NA,NA,NA,NA,NA,NA,NA,NA,NA,NA,NA,NA,NA,NA
SUPAMT52689,3WI0P0II67RWILFCOM3OP2DMX5SDRG,27FEE187-DCD9-49C4-853E-B8C8B58C5B1C,2023-09-27_11h52.54.977,WP_VExplicitOC_HL,2022.2.5,Win32,16.06245081,-58.07291667,4.2836,2.042,NA,NA,NA,NA,NA,frustrated,"frustrated, not frustrated","more frustrated, less frustrated",NA,NA,NA,NA,NA,NA,NA,NA,NA,NA,NA,NA,NA,NA,NA,0,2,2,1,1,NA,NA,NA,NA,NA,NA,NA,NA,NA,NA,NA,NA,NA,NA,NA,NA,NA,NA,NA,NA,NA,NA,NA,NA,NA,NA,NA,NA
SUPAMT52689,3WI0P0II67RWILFCOM3OP2DMX5SDRG,27FEE187-DCD9-49C4-853E-B8C8B58C5B1C,2023-09-27_11h52.54.977,WP_VExplicitOC_HL,2022.2.5,Win32,16.06245081,NA,NA,NA,NA,NA,NA,NA,NA,NA,NA,NA,NA,NA,NA,NA,NA,NA,NA,NA,NA,NA,NA,NA,NA,NA,NA,NA,NA,NA,NA,NA,12,0,12,0,1,NA,NA,NA,NA,NA,NA,NA,NA,NA,NA,NA,NA,NA,NA,NA,NA,NA,NA,NA,NA,NA,NA,NA
SUPAMT52689,3WI0P0II67RWILFCOM3OP2DMX5SDRG,27FEE187-DCD9-49C4-853E-B8C8B58C5B1C,2023-09-27_11h52.54.977,WP_VExplicitOC_HL,2022.2.5,Win32,16.06245081,-70.83333333,3.8108,2.0645,NA,NA,NA,NA,NA,bored,"bored, not bored","more bored, less bored",NA,NA,NA,NA,NA,NA,NA,NA,NA,NA,NA,NA,NA,NA,NA,0,0,0,2,1,NA,NA,NA,NA,NA,NA,NA,NA,NA,NA,NA,NA,NA,NA,NA,NA,NA,NA,NA,NA,NA,NA,NA,NA,NA,NA,NA,NA
SUPAMT52689,3WI0P0II67RWILFCOM3OP2DMX5SDRG,27FEE187-DCD9-49C4-853E-B8C8B58C5B1C,2023-09-27_11h52.54.977,WP_VExplicitOC_HL,2022.2.5,Win32,16.06245081,53.125,4.0918,2.0023,NA,NA,NA,NA,NA,happy,"unhappy, happy","less happy, more happy",NA,NA,NA,NA,NA,NA,NA,NA,NA,NA,NA,NA,NA,NA,NA,0,1,1,0,1,NA,NA,NA,NA,NA,NA,NA,NA,NA,NA,NA,NA,NA,NA,NA,NA,NA,NA,NA,NA,NA,NA,NA,NA,NA,NA,NA,NA
SUPAMT52689,3WI0P0II67RWILFCOM3OP2DMX5SDRG,27FEE187-DCD9-49C4-853E-B8C8B58C5B1C,2023-09-27_11h52.54.977,WP_VExplicitOC_HL,2022.2.5,Win32,16.06245081,-53.90625,3.8456,2.0524,NA,NA,NA,NA,NA,frustrated,"frustrated, not frustrated","more frustrated, less frustrated",NA,NA,NA,NA,NA,NA,NA,NA,NA,NA,NA,NA,NA,NA,NA,0,2,2,1,1,NA,NA,NA,NA,NA,NA,NA,NA,NA,NA,NA,NA,NA,NA,NA,NA,NA,NA,NA,NA,NA,NA,NA,NA,NA,NA,NA,NA
SUPAMT52689,3WI0P0II67RWILFCOM3OP2DMX5SDRG,27FEE187-DCD9-49C4-853E-B8C8B58C5B1C,2023-09-27_11h52.54.977,WP_VExplicitOC_HL,2022.2.5,Win32,16.06245081,NA,NA,NA,NA,NA,NA,NA,NA,NA,NA,NA,NA,NA,NA,NA,NA,NA,NA,NA,NA,NA,NA,NA,NA,NA,NA,NA,NA,NA,NA,NA,13,0,13,0,1,NA,NA,NA,NA,NA,NA,NA,NA,NA,NA,NA,NA,NA,NA,NA,NA,NA,NA,NA,NA,NA,NA,NA
SUPAMT52689,3WI0P0II67RWILFCOM3OP2DMX5SDRG,27FEE187-DCD9-49C4-853E-B8C8B58C5B1C,2023-09-27_11h52.54.977,WP_VExplicitOC_HL,2022.2.5,Win32,16.06245081,NA,NA,2.0889,NA,NA,NA,NA,NA,happy,"unhappy, happy","less happy, more happy",NA,NA,NA,NA,NA,NA,NA,NA,NA,NA,NA,NA,NA,NA,NA,0,0,0,0,1,NA,NA,NA,NA,NA,NA,NA,NA,NA,NA,NA,NA,NA,NA,NA,NA,NA,NA,NA,NA,NA,NA,NA,NA,NA,NA,NA,NA
SUPAMT52689,3WI0P0II67RWILFCOM3OP2DMX5SDRG,27FEE187-DCD9-49C4-853E-B8C8B58C5B1C,2023-09-27_11h52.54.977,WP_VExplicitOC_HL,2022.2.5,Win32,16.06245081,-46.61458333,3.5877,2.066,NA,NA,NA,NA,NA,bored,"bored, not bored","more bored, less bored",NA,NA,NA,NA,NA,NA,NA,NA,NA,NA,NA,NA,NA,NA,NA,0,1,1,2,1,NA,NA,NA,NA,NA,NA,NA,NA,NA,NA,NA,NA,NA,NA,NA,NA,NA,NA,NA,NA,NA,NA,NA,NA,NA,NA,NA,NA
SUPAMT52689,3WI0P0II67RWILFCOM3OP2DMX5SDRG,27FEE187-DCD9-49C4-853E-B8C8B58C5B1C,2023-09-27_11h52.54.977,WP_VExplicitOC_HL,2022.2.5,Win32,16.06245081,-37.23958333,3.4511,2.0842,NA,NA,NA,NA,NA,frustrated,"frustrated, not frustrated","more frustrated, less frustrated",NA,NA,NA,NA,NA,NA,NA,NA,NA,NA,NA,NA,NA,NA,NA,0,2,2,1,1,NA,NA,NA,NA,NA,NA,NA,NA,NA,NA,NA,NA,NA,NA,NA,NA,NA,NA,NA,NA,NA,NA,NA,NA,NA,NA,NA,NA
SUPAMT52689,3WI0P0II67RWILFCOM3OP2DMX5SDRG,27FEE187-DCD9-49C4-853E-B8C8B58C5B1C,2023-09-27_11h52.54.977,WP_VExplicitOC_HL,2022.2.5,Win32,16.06245081,NA,NA,NA,NA,NA,NA,NA,NA,NA,NA,NA,NA,NA,NA,NA,NA,NA,NA,NA,NA,NA,NA,NA,NA,NA,NA,NA,NA,NA,NA,NA,14,0,14,0,1,NA,NA,NA,NA,NA,NA,NA,NA,NA,NA,NA,NA,NA,NA,NA,NA,NA,NA,NA,NA,NA,NA,NA
SUPAMT52689,3WI0P0II67RWILFCOM3OP2DMX5SDRG,27FEE187-DCD9-49C4-853E-B8C8B58C5B1C,2023-09-27_11h52.54.977,WP_VExplicitOC_HL,2022.2.5,Win32,16.06245081,NA,NA,NA,NA,NA,NA,NA,NA,NA,NA,NA,NA,NA,NA,NA,NA,NA,NA,NA,NA,NA,NA,NA,NA,NA,NA,NA,NA,NA,NA,NA,NA,NA,NA,NA,NA,NA,NA,NA,NA,NA,NA,NA,NA,NA,NA,NA,NA,NA,NA,NA,NA,NA,NA,NA,NA,NA,NA,NA
SUPAMT52689,3WI0P0II67RWILFCOM3OP2DMX5SDRG,27FEE187-DCD9-49C4-853E-B8C8B58C5B1C,2023-09-27_11h52.54.977,WP_VExplicitOC_HL,2022.2.5,Win32,16.06245081,NA,NA,NA,NA,NA,NA,NA,NA,NA,NA,NA,NA,NA,NA,NA,NA,NA,NA,NA,NA,NA,NA,NA,NA,NA,NA,NA,NA,NA,NA,NA,NA,NA,NA,NA,NA,NA,NA,NA,NA,NA,NA,NA,NA,NA,NA,NA,NA,NA,NA,NA,NA,NA,NA,NA,NA,NA,NA,NA
SUPAMT52689,3WI0P0II67RWILFCOM3OP2DMX5SDRG,27FEE187-DCD9-49C4-853E-B8C8B58C5B1C,2023-09-27_11h52.54.977,WP_VExplicitOC_HL,2022.2.5,Win32,16.06245081,NA,NA,NA,NA,NA,NA,NA,NA,NA,NA,NA,NA,NA,NA,NA,NA,NA,NA,rest (looking at a fixed cross),001.png,NA,NA,NA,NA,NA,NA,NA,NA,NA,NA,NA,NA,NA,NA,NA,NA,65.10416667,3.0407,0,0,0,0,1,NA,NA,NA,NA,NA,NA,NA,NA,NA,NA,NA,NA,NA,NA,NA,NA
SUPAMT52689,3WI0P0II67RWILFCOM3OP2DMX5SDRG,27FEE187-DCD9-49C4-853E-B8C8B58C5B1C,2023-09-27_11h52.54.977,WP_VExplicitOC_HL,2022.2.5,Win32,16.06245081,NA,NA,NA,NA,NA,NA,NA,NA,NA,NA,NA,NA,NA,NA,NA,NA,NA,NA,stand up,002.png,NA,NA,NA,NA,NA,NA,NA,NA,NA,NA,NA,NA,NA,NA,NA,NA,71.09375,2.7039,0,1,1,1,1,NA,NA,NA,NA,NA,NA,NA,NA,NA,NA,NA,NA,NA,NA,NA,NA
SUPAMT52689,3WI0P0II67RWILFCOM3OP2DMX5SDRG,27FEE187-DCD9-49C4-853E-B8C8B58C5B1C,2023-09-27_11h52.54.977,WP_VExplicitOC_HL,2022.2.5,Win32,16.06245081,NA,NA,NA,NA,NA,NA,NA,NA,NA,NA,NA,NA,NA,NA,NA,NA,NA,NA,stretch,003.png,NA,NA,NA,NA,NA,NA,NA,NA,NA,NA,NA,NA,NA,NA,NA,NA,80.20833333,1.8811,0,2,2,2,1,NA,NA,NA,NA,NA,NA,NA,NA,NA,NA,NA,NA,NA,NA,NA,NA
SUPAMT52689,3WI0P0II67RWILFCOM3OP2DMX5SDRG,27FEE187-DCD9-49C4-853E-B8C8B58C5B1C,2023-09-27_11h52.54.977,WP_VExplicitOC_HL,2022.2.5,Win32,16.06245081,NA,NA,NA,NA,NA,NA,NA,NA,NA,NA,NA,NA,NA,NA,NA,NA,NA,NA,make a drink,004.png,NA,NA,NA,NA,NA,NA,NA,NA,NA,NA,NA,NA,NA,NA,NA,NA,71.09375,1.7311,0,3,3,3,1,NA,NA,NA,NA,NA,NA,NA,NA,NA,NA,NA,NA,NA,NA,NA,NA
SUPAMT52689,3WI0P0II67RWILFCOM3OP2DMX5SDRG,27FEE187-DCD9-49C4-853E-B8C8B58C5B1C,2023-09-27_11h52.54.977,WP_VExplicitOC_HL,2022.2.5,Win32,16.06245081,NA,NA,NA,NA,NA,NA,NA,NA,NA,NA,NA,NA,NA,NA,NA,NA,NA,NA,scroll social media,005.png,NA,NA,NA,NA,NA,NA,NA,NA,NA,NA,NA,NA,NA,NA,NA,NA,90.625,1.7348,0,4,4,4,1,NA,NA,NA,NA,NA,NA,NA,NA,NA,NA,NA,NA,NA,NA,NA,NA
SUPAMT52689,3WI0P0II67RWILFCOM3OP2DMX5SDRG,27FEE187-DCD9-49C4-853E-B8C8B58C5B1C,2023-09-27_11h52.54.977,WP_VExplicitOC_HL,2022.2.5,Win32,16.06245081,NA,NA,NA,NA,NA,NA,NA,NA,NA,NA,NA,NA,NA,NA,NA,NA,NA,NA,listen to music,006.png,NA,NA,NA,NA,NA,NA,NA,NA,NA,NA,NA,NA,NA,NA,NA,NA,100,1.7751,0,5,5,5,1,NA,NA,NA,NA,NA,NA,NA,NA,NA,NA,NA,NA,NA,NA,NA,NA
SUPAMT52689,3WI0P0II67RWILFCOM3OP2DMX5SDRG,27FEE187-DCD9-49C4-853E-B8C8B58C5B1C,2023-09-27_11h52.54.977,WP_VExplicitOC_HL,2022.2.5,Win32,16.06245081,NA,NA,NA,NA,NA,NA,NA,NA,NA,NA,NA,NA,NA,NA,NA,NA,NA,NA,daydream,007.png,NA,NA,NA,NA,NA,NA,NA,NA,NA,NA,NA,NA,NA,NA,NA,NA,52.60416667,2.4697,0,6,6,6,1,NA,NA,NA,NA,NA,NA,NA,NA,NA,NA,NA,NA,NA,NA,NA,NA
SUPAMT52689,3WI0P0II67RWILFCOM3OP2DMX5SDRG,27FEE187-DCD9-49C4-853E-B8C8B58C5B1C,2023-09-27_11h52.54.977,WP_VExplicitOC_HL,2022.2.5,Win32,16.06245081,NA,NA,NA,NA,NA,NA,NA,NA,NA,NA,NA,NA,NA,NA,NA,NA,NA,NA,watch a short animation,008.png,NA,NA,NA,NA,NA,NA,NA,NA,NA,NA,NA,NA,NA,NA,NA,NA,84.89583333,2.189,0,7,7,7,1,NA,NA,NA,NA,NA,NA,NA,NA,NA,NA,NA,NA,NA,NA,NA,NA
SUPAMT52689,3WI0P0II67RWILFCOM3OP2DMX5SDRG,27FEE187-DCD9-49C4-853E-B8C8B58C5B1C,2023-09-27_11h52.54.977,WP_VExplicitOC_HL,2022.2.5,Win32,16.06245081,NA,NA,NA,NA,NA,NA,NA,NA,NA,NA,NA,NA,NA,NA,NA,NA,NA,NA,read a novel,009.png,NA,NA,NA,NA,NA,NA,NA,NA,NA,NA,NA,NA,NA,NA,NA,NA,88.02083333,2.0235,0,8,8,8,1,NA,NA,NA,NA,NA,NA,NA,NA,NA,NA,NA,NA,NA,NA,NA,NA
SUPAMT52689,3WI0P0II67RWILFCOM3OP2DMX5SDRG,27FEE187-DCD9-49C4-853E-B8C8B58C5B1C,2023-09-27_11h52.54.977,WP_VExplicitOC_HL,2022.2.5,Win32,16.06245081,NA,NA,NA,NA,NA,NA,NA,NA,NA,NA,NA,NA,NA,NA,NA,NA,NA,NA,read the news,010.png,NA,NA,NA,NA,NA,NA,NA,NA,NA,NA,NA,NA,NA,NA,NA,NA,71.09375,1.9361,0,9,9,9,1,NA,NA,NA,NA,NA,NA,NA,NA,NA,NA,NA,NA,NA,NA,NA,NA
SUPAMT52689,3WI0P0II67RWILFCOM3OP2DMX5SDRG,27FEE187-DCD9-49C4-853E-B8C8B58C5B1C,2023-09-27_11h52.54.977,WP_VExplicitOC_HL,2022.2.5,Win32,16.06245081,NA,NA,NA,NA,NA,NA,NA,NA,NA,NA,NA,NA,NA,NA,NA,NA,NA,NA,NA,NA,NA,NA,NA,NA,NA,NA,NA,NA,NA,NA,NA,NA,NA,NA,NA,NA,NA,NA,NA,NA,NA,NA,NA,daydream,NA,NA,NA,NA,NA,NA,NA,NA,NA,NA,NA,NA,NA,NA,NA
SUPAMT52689,3WI0P0II67RWILFCOM3OP2DMX5SDRG,27FEE187-DCD9-49C4-853E-B8C8B58C5B1C,2023-09-27_11h52.54.977,WP_VExplicitOC_HL,2022.2.5,Win32,16.06245081,-58.33333333,6.0679,2.0677,NA,NA,NA,NA,NA,bored,"bored, not bored","more bored, less bored",NA,NA,NA,NA,NA,NA,NA,NA,NA,NA,NA,NA,NA,NA,NA,NA,NA,NA,NA,NA,NA,NA,NA,NA,NA,NA,NA,NA,NA,NA,NA,NA,NA,0,0,0,2,1,NA,NA,NA,NA,NA,NA,NA,NA,NA,NA
SUPAMT52689,3WI0P0II67RWILFCOM3OP2DMX5SDRG,27FEE187-DCD9-49C4-853E-B8C8B58C5B1C,2023-09-27_11h52.54.977,WP_VExplicitOC_HL,2022.2.5,Win32,16.06245081,57.29166667,3.8891,2.0305,NA,NA,NA,NA,NA,happy,"unhappy, happy","less happy, more happy",NA,NA,NA,NA,NA,NA,NA,NA,NA,NA,NA,NA,NA,NA,NA,NA,NA,NA,NA,NA,NA,NA,NA,NA,NA,NA,NA,NA,NA,NA,NA,NA,NA,0,1,1,0,1,NA,NA,NA,NA,NA,NA,NA,NA,NA,NA
SUPAMT52689,3WI0P0II67RWILFCOM3OP2DMX5SDRG,27FEE187-DCD9-49C4-853E-B8C8B58C5B1C,2023-09-27_11h52.54.977,WP_VExplicitOC_HL,2022.2.5,Win32,16.06245081,-54.6875,4.0711,2.0534,NA,NA,NA,NA,NA,frustrated,"frustrated, not frustrated","more frustrated, less frustrated",NA,NA,NA,NA,NA,NA,NA,NA,NA,NA,NA,NA,NA,NA,NA,NA,NA,NA,NA,NA,NA,NA,NA,NA,NA,NA,NA,NA,NA,NA,NA,NA,NA,0,2,2,1,1,NA,NA,NA,NA,NA,NA,NA,NA,NA,NA
SUPAMT52689,3WI0P0II67RWILFCOM3OP2DMX5SDRG,27FEE187-DCD9-49C4-853E-B8C8B58C5B1C,2023-09-27_11h52.54.977,WP_VExplicitOC_HL,2022.2.5,Win32,16.06245081,NA,NA,NA,NA,NA,NA,NA,NA,NA,NA,NA,NA,NA,NA,NA,NA,NA,NA,NA,NA,NA,NA,NA,NA,NA,NA,NA,NA,NA,NA,NA,NA,NA,NA,NA,NA,NA,NA,NA,NA,NA,NA,NA,NA,NA,NA,NA,NA,NA,NA,NA,NA,NA,NA,NA,NA,NA,NA,NA
SUPAMT52689,3WI0P0II67RWILFCOM3OP2DMX5SDRG,27FEE187-DCD9-49C4-853E-B8C8B58C5B1C,2023-09-27_11h52.54.977,WP_VExplicitOC_HL,2022.2.5,Win32,16.06245081,NA,NA,NA,NA,NA,NA,NA,NA,NA,NA,NA,NA,NA,NA,NA,NA,NA,NA,NA,NA,NA,NA,NA,NA,NA,NA,NA,NA,NA,NA,NA,NA,NA,NA,NA,NA,NA,NA,NA,NA,NA,NA,NA,NA,NA,NA,NA,NA,NA,NA,NA,NA,NA,NA,NA,NA,NA,NA,NA
SUPAMT52689,3WI0P0II67RWILFCOM3OP2DMX5SDRG,27FEE187-DCD9-49C4-853E-B8C8B58C5B1C,2023-09-27_11h52.54.977,WP_VExplicitOC_HL,2022.2.5,Win32,16.06245081,41.66666667,4.1721,2.0941,NA,NA,NA,NA,NA,happy,"unhappy, happy","less happy, more happy",NA,NA,NA,NA,NA,NA,NA,NA,NA,NA,NA,NA,NA,NA,NA,NA,NA,NA,NA,NA,NA,NA,NA,NA,NA,NA,NA,NA,NA,NA,NA,NA,NA,NA,NA,NA,NA,NA,0,0,0,0,1,NA,NA,NA,NA,NA
SUPAMT52689,3WI0P0II67RWILFCOM3OP2DMX5SDRG,27FEE187-DCD9-49C4-853E-B8C8B58C5B1C,2023-09-27_11h52.54.977,WP_VExplicitOC_HL,2022.2.5,Win32,16.06245081,-56.51041667,3.8801,2.0869,NA,NA,NA,NA,NA,frustrated,"frustrated, not frustrated","more frustrated, less frustrated",NA,NA,NA,NA,NA,NA,NA,NA,NA,NA,NA,NA,NA,NA,NA,NA,NA,NA,NA,NA,NA,NA,NA,NA,NA,NA,NA,NA,NA,NA,NA,NA,NA,NA,NA,NA,NA,NA,0,1,1,1,1,NA,NA,NA,NA,NA
SUPAMT52689,3WI0P0II67RWILFCOM3OP2DMX5SDRG,27FEE187-DCD9-49C4-853E-B8C8B58C5B1C,2023-09-27_11h52.54.977,WP_VExplicitOC_HL,2022.2.5,Win32,16.06245081,-47.91666667,4.8128,2.0409,NA,NA,NA,NA,NA,bored,"bored, not bored","more bored, less bored",NA,NA,NA,NA,NA,NA,NA,NA,NA,NA,NA,NA,NA,NA,NA,NA,NA,NA,NA,NA,NA,NA,NA,NA,NA,NA,NA,NA,NA,NA,NA,NA,NA,NA,NA,NA,NA,NA,0,2,2,2,1,NA,NA,NA,NA,NA
SUPAMT52689,3WI0P0II67RWILFCOM3OP2DMX5SDRG,27FEE187-DCD9-49C4-853E-B8C8B58C5B1C,2023-09-27_11h52.54.977,WP_VExplicitOC_HL,2022.2.5,Win32,16.06245081,NA,NA,NA,NA,NA,NA,NA,NA,NA,NA,NA,NA,NA,NA,NA,NA,NA,NA,NA,NA,NA,NA,NA,NA,NA,NA,NA,NA,NA,NA,NA,NA,NA,NA,NA,NA,NA,NA,NA,NA,NA,NA,NA,NA,NA,NA,NA,NA,NA,NA,NA,NA,NA,NA,0,0,0,0,1
SUPAMT52689,3WI0P0II67RWILFCOM3OP2DMX5SDRG,27FEE187-DCD9-49C4-853E-B8C8B58C5B1C,2023-09-27_11h52.54.977,WP_VExplicitOC_HL,2022.2.5,Win32,16.06245081,-42.70833333,7.2481,2.1213,NA,NA,NA,NA,NA,bored,"bored, not bored","more bored, less bored",NA,NA,NA,NA,NA,NA,NA,NA,NA,NA,NA,NA,NA,NA,NA,NA,NA,NA,NA,NA,NA,NA,NA,NA,NA,NA,NA,NA,NA,NA,NA,NA,NA,NA,NA,NA,NA,NA,0,0,0,2,1,NA,NA,NA,NA,NA
SUPAMT52689,3WI0P0II67RWILFCOM3OP2DMX5SDRG,27FEE187-DCD9-49C4-853E-B8C8B58C5B1C,2023-09-27_11h52.54.977,WP_VExplicitOC_HL,2022.2.5,Win32,16.06245081,35.41666667,4.0144,2.0284,NA,NA,NA,NA,NA,happy,"unhappy, happy","less happy, more happy",NA,NA,NA,NA,NA,NA,NA,NA,NA,NA,NA,NA,NA,NA,NA,NA,NA,NA,NA,NA,NA,NA,NA,NA,NA,NA,NA,NA,NA,NA,NA,NA,NA,NA,NA,NA,NA,NA,0,1,1,0,1,NA,NA,NA,NA,NA
SUPAMT52689,3WI0P0II67RWILFCOM3OP2DMX5SDRG,27FEE187-DCD9-49C4-853E-B8C8B58C5B1C,2023-09-27_11h52.54.977,WP_VExplicitOC_HL,2022.2.5,Win32,16.06245081,-41.14583333,4.4318,2.0268,NA,NA,NA,NA,NA,frustrated,"frustrated, not frustrated","more frustrated, less frustrated",NA,NA,NA,NA,NA,NA,NA,NA,NA,NA,NA,NA,NA,NA,NA,NA,NA,NA,NA,NA,NA,NA,NA,NA,NA,NA,NA,NA,NA,NA,NA,NA,NA,NA,NA,NA,NA,NA,0,2,2,1,1,NA,NA,NA,NA,NA
SUPAMT52689,3WI0P0II67RWILFCOM3OP2DMX5SDRG,27FEE187-DCD9-49C4-853E-B8C8B58C5B1C,2023-09-27_11h52.54.977,WP_VExplicitOC_HL,2022.2.5,Win32,16.06245081,NA,NA,NA,NA,NA,NA,NA,NA,NA,NA,NA,NA,NA,NA,NA,NA,NA,NA,NA,NA,NA,NA,NA,NA,NA,NA,NA,NA,NA,NA,NA,NA,NA,NA,NA,NA,NA,NA,NA,NA,NA,NA,NA,NA,NA,NA,NA,NA,NA,NA,NA,NA,NA,NA,1,0,1,0,1
SUPAMT52689,3WI0P0II67RWILFCOM3OP2DMX5SDRG,27FEE187-DCD9-49C4-853E-B8C8B58C5B1C,2023-09-27_11h52.54.977,WP_VExplicitOC_HL,2022.2.5,Win32,16.06245081,-39.32291667,4.9652,2.0763,NA,NA,NA,NA,NA,bored,"bored, not bored","more bored, less bored",NA,NA,NA,NA,NA,NA,NA,NA,NA,NA,NA,NA,NA,NA,NA,NA,NA,NA,NA,NA,NA,NA,NA,NA,NA,NA,NA,NA,NA,NA,NA,NA,NA,NA,NA,NA,NA,NA,0,0,0,2,1,NA,NA,NA,NA,NA
SUPAMT52689,3WI0P0II67RWILFCOM3OP2DMX5SDRG,27FEE187-DCD9-49C4-853E-B8C8B58C5B1C,2023-09-27_11h52.54.977,WP_VExplicitOC_HL,2022.2.5,Win32,16.06245081,52.08333333,4.0956,2.0528,NA,NA,NA,NA,NA,happy,"unhappy, happy","less happy, more happy",NA,NA,NA,NA,NA,NA,NA,NA,NA,NA,NA,NA,NA,NA,NA,NA,NA,NA,NA,NA,NA,NA,NA,NA,NA,NA,NA,NA,NA,NA,NA,NA,NA,NA,NA,NA,NA,NA,0,1,1,0,1,NA,NA,NA,NA,NA
SUPAMT52689,3WI0P0II67RWILFCOM3OP2DMX5SDRG,27FEE187-DCD9-49C4-853E-B8C8B58C5B1C,2023-09-27_11h52.54.977,WP_VExplicitOC_HL,2022.2.5,Win32,16.06245081,-38.28125,4.3065,2.0143,NA,NA,NA,NA,NA,frustrated,"frustrated, not frustrated","more frustrated, less frustrated",NA,NA,NA,NA,NA,NA,NA,NA,NA,NA,NA,NA,NA,NA,NA,NA,NA,NA,NA,NA,NA,NA,NA,NA,NA,NA,NA,NA,NA,NA,NA,NA,NA,NA,NA,NA,NA,NA,0,2,2,1,1,NA,NA,NA,NA,NA
SUPAMT52689,3WI0P0II67RWILFCOM3OP2DMX5SDRG,27FEE187-DCD9-49C4-853E-B8C8B58C5B1C,2023-09-27_11h52.54.977,WP_VExplicitOC_HL,2022.2.5,Win32,16.06245081,NA,NA,NA,NA,NA,NA,NA,NA,NA,NA,NA,NA,NA,NA,NA,NA,NA,NA,NA,NA,NA,NA,NA,NA,NA,NA,NA,NA,NA,NA,NA,NA,NA,NA,NA,NA,NA,NA,NA,NA,NA,NA,NA,NA,NA,NA,NA,NA,NA,NA,NA,NA,NA,NA,2,0,2,0,1
SUPAMT52689,3WI0P0II67RWILFCOM3OP2DMX5SDRG,27FEE187-DCD9-49C4-853E-B8C8B58C5B1C,2023-09-27_11h52.54.977,WP_VExplicitOC_HL,2022.2.5,Win32,16.06245081,-71.72859451,6.1886,2.0196,NA,NA,NA,NA,NA,frustrated,"frustrated, not frustrated","more frustrated, less frustrated",NA,NA,NA,NA,NA,NA,NA,NA,NA,NA,NA,NA,NA,NA,NA,NA,NA,NA,NA,NA,NA,NA,NA,NA,NA,NA,NA,NA,NA,NA,NA,NA,NA,NA,NA,NA,NA,NA,0,0,0,1,1,NA,NA,NA,NA,NA
SUPAMT52689,3WI0P0II67RWILFCOM3OP2DMX5SDRG,27FEE187-DCD9-49C4-853E-B8C8B58C5B1C,2023-09-27_11h52.54.977,WP_VExplicitOC_HL,2022.2.5,Win32,16.06245081,47.39583333,4.2003,2.029,NA,NA,NA,NA,NA,happy,"unhappy, happy","less happy, more happy",NA,NA,NA,NA,NA,NA,NA,NA,NA,NA,NA,NA,NA,NA,NA,NA,NA,NA,NA,NA,NA,NA,NA,NA,NA,NA,NA,NA,NA,NA,NA,NA,NA,NA,NA,NA,NA,NA,0,1,1,0,1,NA,NA,NA,NA,NA
SUPAMT52689,3WI0P0II67RWILFCOM3OP2DMX5SDRG,27FEE187-DCD9-49C4-853E-B8C8B58C5B1C,2023-09-27_11h52.54.977,WP_VExplicitOC_HL,2022.2.5,Win32,16.06245081,-50.52083333,3.9949,2.0112,NA,NA,NA,NA,NA,bored,"bored, not bored","more bored, less bored",NA,NA,NA,NA,NA,NA,NA,NA,NA,NA,NA,NA,NA,NA,NA,NA,NA,NA,NA,NA,NA,NA,NA,NA,NA,NA,NA,NA,NA,NA,NA,NA,NA,NA,NA,NA,NA,NA,0,2,2,2,1,NA,NA,NA,NA,NA
SUPAMT52689,3WI0P0II67RWILFCOM3OP2DMX5SDRG,27FEE187-DCD9-49C4-853E-B8C8B58C5B1C,2023-09-27_11h52.54.977,WP_VExplicitOC_HL,2022.2.5,Win32,16.06245081,NA,NA,NA,NA,NA,NA,NA,NA,NA,NA,NA,NA,NA,NA,NA,NA,NA,NA,NA,NA,NA,NA,NA,NA,NA,NA,NA,NA,NA,NA,NA,NA,NA,NA,NA,NA,NA,NA,NA,NA,NA,NA,NA,NA,NA,NA,NA,NA,NA,NA,NA,NA,NA,NA,3,0,3,0,1
SUPAMT52689,3WI0P0II67RWILFCOM3OP2DMX5SDRG,27FEE187-DCD9-49C4-853E-B8C8B58C5B1C,2023-09-27_11h52.54.977,WP_VExplicitOC_HL,2022.2.5,Win32,16.06245081,55.46875,4.1147,2.0583,NA,NA,NA,NA,NA,happy,"unhappy, happy","less happy, more happy",NA,NA,NA,NA,NA,NA,NA,NA,NA,NA,NA,NA,NA,NA,NA,NA,NA,NA,NA,NA,NA,NA,NA,NA,NA,NA,NA,NA,NA,NA,NA,NA,NA,NA,NA,NA,NA,NA,0,0,0,0,1,NA,NA,NA,NA,NA
SUPAMT52689,3WI0P0II67RWILFCOM3OP2DMX5SDRG,27FEE187-DCD9-49C4-853E-B8C8B58C5B1C,2023-09-27_11h52.54.977,WP_VExplicitOC_HL,2022.2.5,Win32,16.06245081,NA,NA,2.0666,NA,NA,NA,NA,NA,frustrated,"frustrated, not frustrated","more frustrated, less frustrated",NA,NA,NA,NA,NA,NA,NA,NA,NA,NA,NA,NA,NA,NA,NA,NA,NA,NA,NA,NA,NA,NA,NA,NA,NA,NA,NA,NA,NA,NA,NA,NA,NA,NA,NA,NA,NA,NA,0,1,1,1,1,NA,NA,NA,NA,NA
SUPAMT52689,3WI0P0II67RWILFCOM3OP2DMX5SDRG,27FEE187-DCD9-49C4-853E-B8C8B58C5B1C,2023-09-27_11h52.54.977,WP_VExplicitOC_HL,2022.2.5,Win32,16.06245081,-46.35416667,4.406,2.0963,NA,NA,NA,NA,NA,bored,"bored, not bored","more bored, less bored",NA,NA,NA,NA,NA,NA,NA,NA,NA,NA,NA,NA,NA,NA,NA,NA,NA,NA,NA,NA,NA,NA,NA,NA,NA,NA,NA,NA,NA,NA,NA,NA,NA,NA,NA,NA,NA,NA,0,2,2,2,1,NA,NA,NA,NA,NA
SUPAMT52689,3WI0P0II67RWILFCOM3OP2DMX5SDRG,27FEE187-DCD9-49C4-853E-B8C8B58C5B1C,2023-09-27_11h52.54.977,WP_VExplicitOC_HL,2022.2.5,Win32,16.06245081,NA,NA,NA,NA,NA,NA,NA,NA,NA,NA,NA,NA,NA,NA,NA,NA,NA,NA,NA,NA,NA,NA,NA,NA,NA,NA,NA,NA,NA,NA,NA,NA,NA,NA,NA,NA,NA,NA,NA,NA,NA,NA,NA,NA,NA,NA,NA,NA,NA,NA,NA,NA,NA,NA,4,0,4,0,1
SUPAMT52689,3WI0P0II67RWILFCOM3OP2DMX5SDRG,27FEE187-DCD9-49C4-853E-B8C8B58C5B1C,2023-09-27_11h52.54.977,WP_VExplicitOC_HL,2022.2.5,Win32,16.06245081,-54.94791667,4.3945,2.0735,NA,NA,NA,NA,NA,bored,"bored, not bored","more bored, less bored",NA,NA,NA,NA,NA,NA,NA,NA,NA,NA,NA,NA,NA,NA,NA,NA,NA,NA,NA,NA,NA,NA,NA,NA,NA,NA,NA,NA,NA,NA,NA,NA,NA,NA,NA,NA,NA,NA,0,0,0,2,1,NA,NA,NA,NA,NA
SUPAMT52689,3WI0P0II67RWILFCOM3OP2DMX5SDRG,27FEE187-DCD9-49C4-853E-B8C8B58C5B1C,2023-09-27_11h52.54.977,WP_VExplicitOC_HL,2022.2.5,Win32,16.06245081,46.35416667,4.2405,2.0706,NA,NA,NA,NA,NA,happy,"unhappy, happy","less happy, more happy",NA,NA,NA,NA,NA,NA,NA,NA,NA,NA,NA,NA,NA,NA,NA,NA,NA,NA,NA,NA,NA,NA,NA,NA,NA,NA,NA,NA,NA,NA,NA,NA,NA,NA,NA,NA,NA,NA,0,1,1,0,1,NA,NA,NA,NA,NA
SUPAMT52689,3WI0P0II67RWILFCOM3OP2DMX5SDRG,27FEE187-DCD9-49C4-853E-B8C8B58C5B1C,2023-09-27_11h52.54.977,WP_VExplicitOC_HL,2022.2.5,Win32,16.06245081,-63.54166667,3.801,2.0115,NA,NA,NA,NA,NA,frustrated,"frustrated, not frustrated","more frustrated, less frustrated",NA,NA,NA,NA,NA,NA,NA,NA,NA,NA,NA,NA,NA,NA,NA,NA,NA,NA,NA,NA,NA,NA,NA,NA,NA,NA,NA,NA,NA,NA,NA,NA,NA,NA,NA,NA,NA,NA,0,2,2,1,1,NA,NA,NA,NA,NA
SUPAMT52689,3WI0P0II67RWILFCOM3OP2DMX5SDRG,27FEE187-DCD9-49C4-853E-B8C8B58C5B1C,2023-09-27_11h52.54.977,WP_VExplicitOC_HL,2022.2.5,Win32,16.06245081,NA,NA,NA,NA,NA,NA,NA,NA,NA,NA,NA,NA,NA,NA,NA,NA,NA,NA,NA,NA,NA,NA,NA,NA,NA,NA,NA,NA,NA,NA,NA,NA,NA,NA,NA,NA,NA,NA,NA,NA,NA,NA,NA,NA,NA,NA,NA,NA,NA,NA,NA,NA,NA,NA,5,0,5,0,1
SUPAMT52689,3WI0P0II67RWILFCOM3OP2DMX5SDRG,27FEE187-DCD9-49C4-853E-B8C8B58C5B1C,2023-09-27_11h52.54.977,WP_VExplicitOC_HL,2022.2.5,Win32,16.06245081,-52.86458333,5.0726,2.074,NA,NA,NA,NA,NA,happy,"unhappy, happy","less happy, more happy",NA,NA,NA,NA,NA,NA,NA,NA,NA,NA,NA,NA,NA,NA,NA,NA,NA,NA,NA,NA,NA,NA,NA,NA,NA,NA,NA,NA,NA,NA,NA,NA,NA,NA,NA,NA,NA,NA,0,0,0,0,1,NA,NA,NA,NA,NA
SUPAMT52689,3WI0P0II67RWILFCOM3OP2DMX5SDRG,27FEE187-DCD9-49C4-853E-B8C8B58C5B1C,2023-09-27_11h52.54.977,WP_VExplicitOC_HL,2022.2.5,Win32,16.06245081,-52.86458333,3.9646,2.0815,NA,NA,NA,NA,NA,frustrated,"frustrated, not frustrated","more frustrated, less frustrated",NA,NA,NA,NA,NA,NA,NA,NA,NA,NA,NA,NA,NA,NA,NA,NA,NA,NA,NA,NA,NA,NA,NA,NA,NA,NA,NA,NA,NA,NA,NA,NA,NA,NA,NA,NA,NA,NA,0,1,1,1,1,NA,NA,NA,NA,NA
SUPAMT52689,3WI0P0II67RWILFCOM3OP2DMX5SDRG,27FEE187-DCD9-49C4-853E-B8C8B58C5B1C,2023-09-27_11h52.54.977,WP_VExplicitOC_HL,2022.2.5,Win32,16.06245081,-70.57291667,4.088,2.0223,NA,NA,NA,NA,NA,bored,"bored, not bored","more bored, less bored",NA,NA,NA,NA,NA,NA,NA,NA,NA,NA,NA,NA,NA,NA,NA,NA,NA,NA,NA,NA,NA,NA,NA,NA,NA,NA,NA,NA,NA,NA,NA,NA,NA,NA,NA,NA,NA,NA,0,2,2,2,1,NA,NA,NA,NA,NA
SUPAMT52689,3WI0P0II67RWILFCOM3OP2DMX5SDRG,27FEE187-DCD9-49C4-853E-B8C8B58C5B1C,2023-09-27_11h52.54.977,WP_VExplicitOC_HL,2022.2.5,Win32,16.06245081,NA,NA,NA,NA,NA,NA,NA,NA,NA,NA,NA,NA,NA,NA,NA,NA,NA,NA,NA,NA,NA,NA,NA,NA,NA,NA,NA,NA,NA,NA,NA,NA,NA,NA,NA,NA,NA,NA,NA,NA,NA,NA,NA,NA,NA,NA,NA,NA,NA,NA,NA,NA,NA,NA,6,0,6,0,1
SUPAMT52689,3WI0P0II67RWILFCOM3OP2DMX5SDRG,27FEE187-DCD9-49C4-853E-B8C8B58C5B1C,2023-09-27_11h52.54.977,WP_VExplicitOC_HL,2022.2.5,Win32,16.06245081,40.88541667,3.7524,2.0715,NA,NA,NA,NA,NA,happy,"unhappy, happy","less happy, more happy",NA,NA,NA,NA,NA,NA,NA,NA,NA,NA,NA,NA,NA,NA,NA,NA,NA,NA,NA,NA,NA,NA,NA,NA,NA,NA,NA,NA,NA,NA,NA,NA,NA,NA,NA,NA,NA,NA,0,0,0,0,1,NA,NA,NA,NA,NA
SUPAMT52689,3WI0P0II67RWILFCOM3OP2DMX5SDRG,27FEE187-DCD9-49C4-853E-B8C8B58C5B1C,2023-09-27_11h52.54.977,WP_VExplicitOC_HL,2022.2.5,Win32,16.06245081,-48.95833333,3.6037,2.0529,NA,NA,NA,NA,NA,frustrated,"frustrated, not frustrated","more frustrated, less frustrated",NA,NA,NA,NA,NA,NA,NA,NA,NA,NA,NA,NA,NA,NA,NA,NA,NA,NA,NA,NA,NA,NA,NA,NA,NA,NA,NA,NA,NA,NA,NA,NA,NA,NA,NA,NA,NA,NA,0,1,1,1,1,NA,NA,NA,NA,NA
SUPAMT52689,3WI0P0II67RWILFCOM3OP2DMX5SDRG,27FEE187-DCD9-49C4-853E-B8C8B58C5B1C,2023-09-27_11h52.54.977,WP_VExplicitOC_HL,2022.2.5,Win32,16.06245081,-58.33333333,3.8092,2.0375,NA,NA,NA,NA,NA,bored,"bored, not bored","more bored, less bored",NA,NA,NA,NA,NA,NA,NA,NA,NA,NA,NA,NA,NA,NA,NA,NA,NA,NA,NA,NA,NA,NA,NA,NA,NA,NA,NA,NA,NA,NA,NA,NA,NA,NA,NA,NA,NA,NA,0,2,2,2,1,NA,NA,NA,NA,NA
SUPAMT52689,3WI0P0II67RWILFCOM3OP2DMX5SDRG,27FEE187-DCD9-49C4-853E-B8C8B58C5B1C,2023-09-27_11h52.54.977,WP_VExplicitOC_HL,2022.2.5,Win32,16.06245081,NA,NA,NA,NA,NA,NA,NA,NA,NA,NA,NA,NA,NA,NA,NA,NA,NA,NA,NA,NA,NA,NA,NA,NA,NA,NA,NA,NA,NA,NA,NA,NA,NA,NA,NA,NA,NA,NA,NA,NA,NA,NA,NA,NA,NA,NA,NA,NA,NA,NA,NA,NA,NA,NA,7,0,7,0,1
SUPAMT52689,3WI0P0II67RWILFCOM3OP2DMX5SDRG,27FEE187-DCD9-49C4-853E-B8C8B58C5B1C,2023-09-27_11h52.54.977,WP_VExplicitOC_HL,2022.2.5,Win32,16.06245081,-60.15625,4.398,2.0589,NA,NA,NA,NA,NA,bored,"bored, not bored","more bored, less bored",NA,NA,NA,NA,NA,NA,NA,NA,NA,NA,NA,NA,NA,NA,NA,NA,NA,NA,NA,NA,NA,NA,NA,NA,NA,NA,NA,NA,NA,NA,NA,NA,NA,NA,NA,NA,NA,NA,0,0,0,2,1,NA,NA,NA,NA,NA
SUPAMT52689,3WI0P0II67RWILFCOM3OP2DMX5SDRG,27FEE187-DCD9-49C4-853E-B8C8B58C5B1C,2023-09-27_11h52.54.977,WP_VExplicitOC_HL,2022.2.5,Win32,16.06245081,-60.9375,3.9029,2.0617,NA,NA,NA,NA,NA,frustrated,"frustrated, not frustrated","more frustrated, less frustrated",NA,NA,NA,NA,NA,NA,NA,NA,NA,NA,NA,NA,NA,NA,NA,NA,NA,NA,NA,NA,NA,NA,NA,NA,NA,NA,NA,NA,NA,NA,NA,NA,NA,NA,NA,NA,NA,NA,0,1,1,1,1,NA,NA,NA,NA,NA
SUPAMT52689,3WI0P0II67RWILFCOM3OP2DMX5SDRG,27FEE187-DCD9-49C4-853E-B8C8B58C5B1C,2023-09-27_11h52.54.977,WP_VExplicitOC_HL,2022.2.5,Win32,16.06245081,60.67708333,3.8753,2.0606,NA,NA,NA,NA,NA,happy,"unhappy, happy","less happy, more happy",NA,NA,NA,NA,NA,NA,NA,NA,NA,NA,NA,NA,NA,NA,NA,NA,NA,NA,NA,NA,NA,NA,NA,NA,NA,NA,NA,NA,NA,NA,NA,NA,NA,NA,NA,NA,NA,NA,0,2,2,0,1,NA,NA,NA,NA,NA
SUPAMT52689,3WI0P0II67RWILFCOM3OP2DMX5SDRG,27FEE187-DCD9-49C4-853E-B8C8B58C5B1C,2023-09-27_11h52.54.977,WP_VExplicitOC_HL,2022.2.5,Win32,16.06245081,NA,NA,NA,NA,NA,NA,NA,NA,NA,NA,NA,NA,NA,NA,NA,NA,NA,NA,NA,NA,NA,NA,NA,NA,NA,NA,NA,NA,NA,NA,NA,NA,NA,NA,NA,NA,NA,NA,NA,NA,NA,NA,NA,NA,NA,NA,NA,NA,NA,NA,NA,NA,NA,NA,8,0,8,0,1
SUPAMT52689,3WI0P0II67RWILFCOM3OP2DMX5SDRG,27FEE187-DCD9-49C4-853E-B8C8B58C5B1C,2023-09-27_11h52.54.977,WP_VExplicitOC_HL,2022.2.5,Win32,16.06245081,-57.55208333,3.9859,2.0008,NA,NA,NA,NA,NA,frustrated,"frustrated, not frustrated","more frustrated, less frustrated",NA,NA,NA,NA,NA,NA,NA,NA,NA,NA,NA,NA,NA,NA,NA,NA,NA,NA,NA,NA,NA,NA,NA,NA,NA,NA,NA,NA,NA,NA,NA,NA,NA,NA,NA,NA,NA,NA,0,0,0,1,1,NA,NA,NA,NA,NA
SUPAMT52689,3WI0P0II67RWILFCOM3OP2DMX5SDRG,27FEE187-DCD9-49C4-853E-B8C8B58C5B1C,2023-09-27_11h52.54.977,WP_VExplicitOC_HL,2022.2.5,Win32,16.06245081,-52.60416667,3.9235,2.015,NA,NA,NA,NA,NA,bored,"bored, not bored","more bored, less bored",NA,NA,NA,NA,NA,NA,NA,NA,NA,NA,NA,NA,NA,NA,NA,NA,NA,NA,NA,NA,NA,NA,NA,NA,NA,NA,NA,NA,NA,NA,NA,NA,NA,NA,NA,NA,NA,NA,0,1,1,2,1,NA,NA,NA,NA,NA
SUPAMT52689,3WI0P0II67RWILFCOM3OP2DMX5SDRG,27FEE187-DCD9-49C4-853E-B8C8B58C5B1C,2023-09-27_11h52.54.977,WP_VExplicitOC_HL,2022.2.5,Win32,16.06245081,-63.28125,4.1598,2.0596,NA,NA,NA,NA,NA,happy,"unhappy, happy","less happy, more happy",NA,NA,NA,NA,NA,NA,NA,NA,NA,NA,NA,NA,NA,NA,NA,NA,NA,NA,NA,NA,NA,NA,NA,NA,NA,NA,NA,NA,NA,NA,NA,NA,NA,NA,NA,NA,NA,NA,0,2,2,0,1,NA,NA,NA,NA,NA
SUPAMT52689,3WI0P0II67RWILFCOM3OP2DMX5SDRG,27FEE187-DCD9-49C4-853E-B8C8B58C5B1C,2023-09-27_11h52.54.977,WP_VExplicitOC_HL,2022.2.5,Win32,16.06245081,NA,NA,NA,NA,NA,NA,NA,NA,NA,NA,NA,NA,NA,NA,NA,NA,NA,NA,NA,NA,NA,NA,NA,NA,NA,NA,NA,NA,NA,NA,NA,NA,NA,NA,NA,NA,NA,NA,NA,NA,NA,NA,NA,NA,NA,NA,NA,NA,NA,NA,NA,NA,NA,NA,9,0,9,0,1
SUPAMT52689,3WI0P0II67RWILFCOM3OP2DMX5SDRG,27FEE187-DCD9-49C4-853E-B8C8B58C5B1C,2023-09-27_11h52.54.977,WP_VExplicitOC_HL,2022.2.5,Win32,16.06245081,-75.78125,4.2542,2.0219,NA,NA,NA,NA,NA,frustrated,"frustrated, not frustrated","more frustrated, less frustrated",NA,NA,NA,NA,NA,NA,NA,NA,NA,NA,NA,NA,NA,NA,NA,NA,NA,NA,NA,NA,NA,NA,NA,NA,NA,NA,NA,NA,NA,NA,NA,NA,NA,NA,NA,NA,NA,NA,0,0,0,1,1,NA,NA,NA,NA,NA
SUPAMT52689,3WI0P0II67RWILFCOM3OP2DMX5SDRG,27FEE187-DCD9-49C4-853E-B8C8B58C5B1C,2023-09-27_11h52.54.977,WP_VExplicitOC_HL,2022.2.5,Win32,16.06245081,-41.14583333,3.9268,2.0551,NA,NA,NA,NA,NA,bored,"bored, not bored","more bored, less bored",NA,NA,NA,NA,NA,NA,NA,NA,NA,NA,NA,NA,NA,NA,NA,NA,NA,NA,NA,NA,NA,NA,NA,NA,NA,NA,NA,NA,NA,NA,NA,NA,NA,NA,NA,NA,NA,NA,0,1,1,2,1,NA,NA,NA,NA,NA
SUPAMT52689,3WI0P0II67RWILFCOM3OP2DMX5SDRG,27FEE187-DCD9-49C4-853E-B8C8B58C5B1C,2023-09-27_11h52.54.977,WP_VExplicitOC_HL,2022.2.5,Win32,16.06245081,65.10416667,3.7057,2.0304,NA,NA,NA,NA,NA,happy,"unhappy, happy","less happy, more happy",NA,NA,NA,NA,NA,NA,NA,NA,NA,NA,NA,NA,NA,NA,NA,NA,NA,NA,NA,NA,NA,NA,NA,NA,NA,NA,NA,NA,NA,NA,NA,NA,NA,NA,NA,NA,NA,NA,0,2,2,0,1,NA,NA,NA,NA,NA
SUPAMT52689,3WI0P0II67RWILFCOM3OP2DMX5SDRG,27FEE187-DCD9-49C4-853E-B8C8B58C5B1C,2023-09-27_11h52.54.977,WP_VExplicitOC_HL,2022.2.5,Win32,16.06245081,NA,NA,NA,NA,NA,NA,NA,NA,NA,NA,NA,NA,NA,NA,NA,NA,NA,NA,NA,NA,NA,NA,NA,NA,NA,NA,NA,NA,NA,NA,NA,NA,NA,NA,NA,NA,NA,NA,NA,NA,NA,NA,NA,NA,NA,NA,NA,NA,NA,NA,NA,NA,NA,NA,10,0,10,0,1
SUPAMT52689,3WI0P0II67RWILFCOM3OP2DMX5SDRG,27FEE187-DCD9-49C4-853E-B8C8B58C5B1C,2023-09-27_11h52.54.977,WP_VExplicitOC_HL,2022.2.5,Win32,16.06245081,-57.55208333,3.7225,2.0211,NA,NA,NA,NA,NA,frustrated,"frustrated, not frustrated","more frustrated, less frustrated",NA,NA,NA,NA,NA,NA,NA,NA,NA,NA,NA,NA,NA,NA,NA,NA,NA,NA,NA,NA,NA,NA,NA,NA,NA,NA,NA,NA,NA,NA,NA,NA,NA,NA,NA,NA,NA,NA,0,0,0,1,1,NA,NA,NA,NA,NA
SUPAMT52689,3WI0P0II67RWILFCOM3OP2DMX5SDRG,27FEE187-DCD9-49C4-853E-B8C8B58C5B1C,2023-09-27_11h52.54.977,WP_VExplicitOC_HL,2022.2.5,Win32,16.06245081,-53.90625,3.4988,2.0584,NA,NA,NA,NA,NA,bored,"bored, not bored","more bored, less bored",NA,NA,NA,NA,NA,NA,NA,NA,NA,NA,NA,NA,NA,NA,NA,NA,NA,NA,NA,NA,NA,NA,NA,NA,NA,NA,NA,NA,NA,NA,NA,NA,NA,NA,NA,NA,NA,NA,0,1,1,2,1,NA,NA,NA,NA,NA
SUPAMT52689,3WI0P0II67RWILFCOM3OP2DMX5SDRG,27FEE187-DCD9-49C4-853E-B8C8B58C5B1C,2023-09-27_11h52.54.977,WP_VExplicitOC_HL,2022.2.5,Win32,16.06245081,48.95833333,3.6396,2.0084,NA,NA,NA,NA,NA,happy,"unhappy, happy","less happy, more happy",NA,NA,NA,NA,NA,NA,NA,NA,NA,NA,NA,NA,NA,NA,NA,NA,NA,NA,NA,NA,NA,NA,NA,NA,NA,NA,NA,NA,NA,NA,NA,NA,NA,NA,NA,NA,NA,NA,0,2,2,0,1,NA,NA,NA,NA,NA
SUPAMT52689,3WI0P0II67RWILFCOM3OP2DMX5SDRG,27FEE187-DCD9-49C4-853E-B8C8B58C5B1C,2023-09-27_11h52.54.977,WP_VExplicitOC_HL,2022.2.5,Win32,16.06245081,NA,NA,NA,NA,NA,NA,NA,NA,NA,NA,NA,NA,NA,NA,NA,NA,NA,NA,NA,NA,NA,NA,NA,NA,NA,NA,NA,NA,NA,NA,NA,NA,NA,NA,NA,NA,NA,NA,NA,NA,NA,NA,NA,NA,NA,NA,NA,NA,NA,NA,NA,NA,NA,NA,11,0,11,0,1
SUPAMT52689,3WI0P0II67RWILFCOM3OP2DMX5SDRG,27FEE187-DCD9-49C4-853E-B8C8B58C5B1C,2023-09-27_11h52.54.977,WP_VExplicitOC_HL,2022.2.5,Win32,16.06245081,41.40625,3.9053,2.0839,NA,NA,NA,NA,NA,happy,"unhappy, happy","less happy, more happy",NA,NA,NA,NA,NA,NA,NA,NA,NA,NA,NA,NA,NA,NA,NA,NA,NA,NA,NA,NA,NA,NA,NA,NA,NA,NA,NA,NA,NA,NA,NA,NA,NA,NA,NA,NA,NA,NA,0,0,0,0,1,NA,NA,NA,NA,NA
SUPAMT52689,3WI0P0II67RWILFCOM3OP2DMX5SDRG,27FEE187-DCD9-49C4-853E-B8C8B58C5B1C,2023-09-27_11h52.54.977,WP_VExplicitOC_HL,2022.2.5,Win32,16.06245081,-63.28125,4.0844,2.0092,NA,NA,NA,NA,NA,bored,"bored, not bored","more bored, less bored",NA,NA,NA,NA,NA,NA,NA,NA,NA,NA,NA,NA,NA,NA,NA,NA,NA,NA,NA,NA,NA,NA,NA,NA,NA,NA,NA,NA,NA,NA,NA,NA,NA,NA,NA,NA,NA,NA,0,1,1,2,1,NA,NA,NA,NA,NA
SUPAMT52689,3WI0P0II67RWILFCOM3OP2DMX5SDRG,27FEE187-DCD9-49C4-853E-B8C8B58C5B1C,2023-09-27_11h52.54.977,WP_VExplicitOC_HL,2022.2.5,Win32,16.06245081,-44.27083333,4.2902,2.0906,NA,NA,NA,NA,NA,frustrated,"frustrated, not frustrated","more frustrated, less frustrated",NA,NA,NA,NA,NA,NA,NA,NA,NA,NA,NA,NA,NA,NA,NA,NA,NA,NA,NA,NA,NA,NA,NA,NA,NA,NA,NA,NA,NA,NA,NA,NA,NA,NA,NA,NA,NA,NA,0,2,2,1,1,NA,NA,NA,NA,NA
SUPAMT52689,3WI0P0II67RWILFCOM3OP2DMX5SDRG,27FEE187-DCD9-49C4-853E-B8C8B58C5B1C,2023-09-27_11h52.54.977,WP_VExplicitOC_HL,2022.2.5,Win32,16.06245081,NA,NA,NA,NA,NA,NA,NA,NA,NA,NA,NA,NA,NA,NA,NA,NA,NA,NA,NA,NA,NA,NA,NA,NA,NA,NA,NA,NA,NA,NA,NA,NA,NA,NA,NA,NA,NA,NA,NA,NA,NA,NA,NA,NA,NA,NA,NA,NA,NA,NA,NA,NA,NA,NA,12,0,12,0,1
SUPAMT52689,3WI0P0II67RWILFCOM3OP2DMX5SDRG,27FEE187-DCD9-49C4-853E-B8C8B58C5B1C,2023-09-27_11h52.54.977,WP_VExplicitOC_HL,2022.2.5,Win32,16.06245081,-50.52083333,4.3137,2.0599,NA,NA,NA,NA,NA,frustrated,"frustrated, not frustrated","more frustrated, less frustrated",NA,NA,NA,NA,NA,NA,NA,NA,NA,NA,NA,NA,NA,NA,NA,NA,NA,NA,NA,NA,NA,NA,NA,NA,NA,NA,NA,NA,NA,NA,NA,NA,NA,NA,NA,NA,NA,NA,0,0,0,1,1,NA,NA,NA,NA,NA
SUPAMT52689,3WI0P0II67RWILFCOM3OP2DMX5SDRG,27FEE187-DCD9-49C4-853E-B8C8B58C5B1C,2023-09-27_11h52.54.977,WP_VExplicitOC_HL,2022.2.5,Win32,16.06245081,-44.79166667,4.2136,2.0693,NA,NA,NA,NA,NA,bored,"bored, not bored","more bored, less bored",NA,NA,NA,NA,NA,NA,NA,NA,NA,NA,NA,NA,NA,NA,NA,NA,NA,NA,NA,NA,NA,NA,NA,NA,NA,NA,NA,NA,NA,NA,NA,NA,NA,NA,NA,NA,NA,NA,0,1,1,2,1,NA,NA,NA,NA,NA
SUPAMT52689,3WI0P0II67RWILFCOM3OP2DMX5SDRG,27FEE187-DCD9-49C4-853E-B8C8B58C5B1C,2023-09-27_11h52.54.977,WP_VExplicitOC_HL,2022.2.5,Win32,16.06245081,58.59375,3.4891,2.0852,NA,NA,NA,NA,NA,happy,"unhappy, happy","less happy, more happy",NA,NA,NA,NA,NA,NA,NA,NA,NA,NA,NA,NA,NA,NA,NA,NA,NA,NA,NA,NA,NA,NA,NA,NA,NA,NA,NA,NA,NA,NA,NA,NA,NA,NA,NA,NA,NA,NA,0,2,2,0,1,NA,NA,NA,NA,NA
SUPAMT52689,3WI0P0II67RWILFCOM3OP2DMX5SDRG,27FEE187-DCD9-49C4-853E-B8C8B58C5B1C,2023-09-27_11h52.54.977,WP_VExplicitOC_HL,2022.2.5,Win32,16.06245081,NA,NA,NA,NA,NA,NA,NA,NA,NA,NA,NA,NA,NA,NA,NA,NA,NA,NA,NA,NA,NA,NA,NA,NA,NA,NA,NA,NA,NA,NA,NA,NA,NA,NA,NA,NA,NA,NA,NA,NA,NA,NA,NA,NA,NA,NA,NA,NA,NA,NA,NA,NA,NA,NA,13,0,13,0,1
SUPAMT52689,3WI0P0II67RWILFCOM3OP2DMX5SDRG,27FEE187-DCD9-49C4-853E-B8C8B58C5B1C,2023-09-27_11h52.54.977,WP_VExplicitOC_HL,2022.2.5,Win32,16.06245081,-71.08239095,3.9795,2.0467,NA,NA,NA,NA,NA,frustrated,"frustrated, not frustrated","more frustrated, less frustrated",NA,NA,NA,NA,NA,NA,NA,NA,NA,NA,NA,NA,NA,NA,NA,NA,NA,NA,NA,NA,NA,NA,NA,NA,NA,NA,NA,NA,NA,NA,NA,NA,NA,NA,NA,NA,NA,NA,0,0,0,1,1,NA,NA,NA,NA,NA
SUPAMT52689,3WI0P0II67RWILFCOM3OP2DMX5SDRG,27FEE187-DCD9-49C4-853E-B8C8B58C5B1C,2023-09-27_11h52.54.977,WP_VExplicitOC_HL,2022.2.5,Win32,16.06245081,50.726979,3.6652,2.0526,NA,NA,NA,NA,NA,happy,"unhappy, happy","less happy, more happy",NA,NA,NA,NA,NA,NA,NA,NA,NA,NA,NA,NA,NA,NA,NA,NA,NA,NA,NA,NA,NA,NA,NA,NA,NA,NA,NA,NA,NA,NA,NA,NA,NA,NA,NA,NA,NA,NA,0,1,1,0,1,NA,NA,NA,NA,NA
SUPAMT52689,3WI0P0II67RWILFCOM3OP2DMX5SDRG,27FEE187-DCD9-49C4-853E-B8C8B58C5B1C,2023-09-27_11h52.54.977,WP_VExplicitOC_HL,2022.2.5,Win32,16.06245081,-49.75767367,3.7491,2.0673,NA,NA,NA,NA,NA,bored,"bored, not bored","more bored, less bored",NA,NA,NA,NA,NA,NA,NA,NA,NA,NA,NA,NA,NA,NA,NA,NA,NA,NA,NA,NA,NA,NA,NA,NA,NA,NA,NA,NA,NA,NA,NA,NA,NA,NA,NA,NA,NA,NA,0,2,2,2,1,NA,NA,NA,NA,NA
SUPAMT52689,3WI0P0II67RWILFCOM3OP2DMX5SDRG,27FEE187-DCD9-49C4-853E-B8C8B58C5B1C,2023-09-27_11h52.54.977,WP_VExplicitOC_HL,2022.2.5,Win32,16.06245081,NA,NA,NA,NA,NA,NA,NA,NA,NA,NA,NA,NA,NA,NA,NA,NA,NA,NA,NA,NA,NA,NA,NA,NA,NA,NA,NA,NA,NA,NA,NA,NA,NA,NA,NA,NA,NA,NA,NA,NA,NA,NA,NA,NA,NA,NA,NA,NA,NA,NA,NA,NA,NA,NA,14,0,14,0,1
SUPAMT52689,3WI0P0II67RWILFCOM3OP2DMX5SDRG,27FEE187-DCD9-49C4-853E-B8C8B58C5B1C,2023-09-27_11h52.54.977,WP_VExplicitOC_HL,2022.2.5,Win32,16.06245081,NA,NA,NA,NA,NA,NA,NA,NA,NA,NA,NA,NA,NA,NA,NA,NA,NA,NA,NA,NA,NA,NA,NA,NA,NA,NA,NA,NA,NA,NA,NA,NA,NA,NA,NA,NA,NA,NA,NA,NA,NA,NA,NA,NA,NA,NA,NA,NA,NA,NA,NA,NA,NA,NA,NA,NA,NA,NA,NA
