participant,session,completion,date,expName,psychopyVersion,OS,frameRate,rating_all.response,rating_all.rt,rating_all.tStart,rndRat1.thisRepN,rndRat1.thisTrialN,rndRat1.thisN,rndRat1.thisIndex,rndRat1.ran,Emo,Labs,Labs2,rating_alt.response,rating_alt.rt,AltC.thisRepN,AltC.thisTrialN,AltC.thisN,AltC.thisIndex,AltC.ran,alt_choices,pic_choices,BottomAlt_Choice,rndRat2.thisRepN,rndRat2.thisTrialN,rndRat2.thisN,rndRat2.thisIndex,rndRat2.ran,rndRat3.thisRepN,rndRat3.thisTrialN,rndRat3.thisN,rndRat3.thisIndex,rndRat3.ran,trials_FC_L.thisRepN,trials_FC_L.thisTrialN,trials_FC_L.thisN,trials_FC_L.thisIndex,trials_FC_L.ran,rating_alt_2.response,rating_alt_2.rt,AltC2.thisRepN,AltC2.thisTrialN,AltC2.thisN,AltC2.thisIndex,AltC2.ran,TopAlt_Choice,rndRat4.thisRepN,rndRat4.thisTrialN,rndRat4.thisN,rndRat4.thisIndex,rndRat4.ran,rndRat5.thisRepN,rndRat5.thisTrialN,rndRat5.thisN,rndRat5.thisIndex,rndRat5.ran,trials_FC_H.thisRepN,trials_FC_H.thisTrialN,trials_FC_H.thisN,trials_FC_H.thisIndex,trials_FC_H.ran
SUPAMT00201,34PGFRQONUAET3WQXCZ5FZGGU2KWJS,BA3E692D-7698-4F9D-B8D7-A9ABD5BD51D5,2023-09-27_08h29.07.949,WP_VExplicitOC_LH,2022.2.5,Win32,16.45900884,NA,NA,NA,NA,NA,NA,NA,NA,NA,NA,NA,NA,NA,NA,NA,NA,NA,NA,NA,NA,NA,NA,NA,NA,NA,NA,NA,NA,NA,NA,NA,NA,NA,NA,NA,NA,NA,NA,NA,NA,NA,NA,NA,NA,NA,NA,NA,NA,NA,NA,NA,NA,NA,NA,NA,NA,NA,NA,NA
SUPAMT00201,34PGFRQONUAET3WQXCZ5FZGGU2KWJS,BA3E692D-7698-4F9D-B8D7-A9ABD5BD51D5,2023-09-27_08h29.07.949,WP_VExplicitOC_LH,2022.2.5,Win32,16.45900884,NA,NA,NA,NA,NA,NA,NA,NA,NA,NA,NA,NA,NA,NA,NA,NA,NA,NA,NA,NA,NA,NA,NA,NA,NA,NA,NA,NA,NA,NA,NA,NA,NA,NA,NA,NA,NA,NA,NA,NA,NA,NA,NA,NA,NA,NA,NA,NA,NA,NA,NA,NA,NA,NA,NA,NA,NA,NA,NA
SUPAMT00201,34PGFRQONUAET3WQXCZ5FZGGU2KWJS,BA3E692D-7698-4F9D-B8D7-A9ABD5BD51D5,2023-09-27_08h29.07.949,WP_VExplicitOC_LH,2022.2.5,Win32,16.45900884,NA,NA,NA,NA,NA,NA,NA,NA,NA,NA,NA,NA,NA,NA,NA,NA,NA,NA,NA,NA,NA,NA,NA,NA,NA,NA,NA,NA,NA,NA,NA,NA,NA,NA,NA,NA,NA,NA,NA,NA,NA,NA,NA,NA,NA,NA,NA,NA,NA,NA,NA,NA,NA,NA,NA,NA,NA,NA,NA
SUPAMT00201,34PGFRQONUAET3WQXCZ5FZGGU2KWJS,BA3E692D-7698-4F9D-B8D7-A9ABD5BD51D5,2023-09-27_08h29.07.949,WP_VExplicitOC_LH,2022.2.5,Win32,16.45900884,NA,NA,2.035,0,0,0,2,1,bored,"bored, not bored","more bored, less bored",NA,NA,NA,NA,NA,NA,NA,NA,NA,NA,NA,NA,NA,NA,NA,NA,NA,NA,NA,NA,NA,NA,NA,NA,NA,NA,NA,NA,NA,NA,NA,NA,NA,NA,NA,NA,NA,NA,NA,NA,NA,NA,NA,NA,NA,NA,NA,NA
SUPAMT00201,34PGFRQONUAET3WQXCZ5FZGGU2KWJS,BA3E692D-7698-4F9D-B8D7-A9ABD5BD51D5,2023-09-27_08h29.07.949,WP_VExplicitOC_LH,2022.2.5,Win32,16.45900884,41.25,3.1393,2.0068,0,1,1,0,1,happy,"unhappy, happy","less happy, more happy",NA,NA,NA,NA,NA,NA,NA,NA,NA,NA,NA,NA,NA,NA,NA,NA,NA,NA,NA,NA,NA,NA,NA,NA,NA,NA,NA,NA,NA,NA,NA,NA,NA,NA,NA,NA,NA,NA,NA,NA,NA,NA,NA,NA,NA,NA,NA,NA
SUPAMT00201,34PGFRQONUAET3WQXCZ5FZGGU2KWJS,BA3E692D-7698-4F9D-B8D7-A9ABD5BD51D5,2023-09-27_08h29.07.949,WP_VExplicitOC_LH,2022.2.5,Win32,16.45900884,44.25,3.4753,2.0752,0,2,2,1,1,frustrated,"frustrated, not frustrated","more frustrated, less frustrated",NA,NA,NA,NA,NA,NA,NA,NA,NA,NA,NA,NA,NA,NA,NA,NA,NA,NA,NA,NA,NA,NA,NA,NA,NA,NA,NA,NA,NA,NA,NA,NA,NA,NA,NA,NA,NA,NA,NA,NA,NA,NA,NA,NA,NA,NA,NA,NA
SUPAMT00201,34PGFRQONUAET3WQXCZ5FZGGU2KWJS,BA3E692D-7698-4F9D-B8D7-A9ABD5BD51D5,2023-09-27_08h29.07.949,WP_VExplicitOC_LH,2022.2.5,Win32,16.45900884,NA,NA,NA,NA,NA,NA,NA,NA,NA,NA,NA,NA,NA,NA,NA,NA,NA,NA,NA,NA,NA,NA,NA,NA,NA,NA,NA,NA,NA,NA,NA,NA,NA,NA,NA,NA,NA,NA,NA,NA,NA,NA,NA,NA,NA,NA,NA,NA,NA,NA,NA,NA,NA,NA,NA,NA,NA,NA,NA
SUPAMT00201,34PGFRQONUAET3WQXCZ5FZGGU2KWJS,BA3E692D-7698-4F9D-B8D7-A9ABD5BD51D5,2023-09-27_08h29.07.949,WP_VExplicitOC_LH,2022.2.5,Win32,16.45900884,NA,NA,NA,NA,NA,NA,NA,NA,NA,NA,NA,NA,NA,NA,NA,NA,NA,NA,NA,NA,NA,NA,NA,NA,NA,NA,NA,NA,NA,NA,NA,NA,NA,NA,NA,NA,NA,NA,NA,NA,NA,NA,NA,NA,NA,NA,NA,NA,NA,NA,NA,NA,NA,NA,NA,NA,NA,NA,NA
SUPAMT00201,34PGFRQONUAET3WQXCZ5FZGGU2KWJS,BA3E692D-7698-4F9D-B8D7-A9ABD5BD51D5,2023-09-27_08h29.07.949,WP_VExplicitOC_LH,2022.2.5,Win32,16.45900884,NA,NA,NA,NA,NA,NA,NA,NA,NA,NA,NA,NA,NA,NA,NA,NA,NA,NA,NA,NA,NA,NA,NA,NA,NA,NA,NA,NA,NA,NA,NA,NA,NA,NA,NA,NA,NA,NA,NA,NA,NA,NA,NA,NA,NA,NA,NA,NA,NA,NA,NA,NA,NA,NA,NA,NA,NA,NA,NA
SUPAMT00201,34PGFRQONUAET3WQXCZ5FZGGU2KWJS,BA3E692D-7698-4F9D-B8D7-A9ABD5BD51D5,2023-09-27_08h29.07.949,WP_VExplicitOC_LH,2022.2.5,Win32,16.45900884,NA,NA,NA,NA,NA,NA,NA,NA,NA,NA,NA,NA,NA,NA,NA,NA,NA,NA,NA,NA,NA,NA,NA,NA,NA,NA,NA,NA,NA,NA,NA,NA,NA,NA,NA,NA,NA,NA,NA,NA,NA,NA,NA,NA,NA,NA,NA,NA,NA,NA,NA,NA,NA,NA,NA,NA,NA,NA,NA
SUPAMT00201,34PGFRQONUAET3WQXCZ5FZGGU2KWJS,BA3E692D-7698-4F9D-B8D7-A9ABD5BD51D5,2023-09-27_08h29.07.949,WP_VExplicitOC_LH,2022.2.5,Win32,16.45900884,NA,NA,NA,NA,NA,NA,NA,NA,NA,NA,NA,-33,1.661,0,0,0,0,1,rest (looking at a fixed cross),001.png,NA,NA,NA,NA,NA,NA,NA,NA,NA,NA,NA,NA,NA,NA,NA,NA,NA,NA,NA,NA,NA,NA,NA,NA,NA,NA,NA,NA,NA,NA,NA,NA,NA,NA,NA,NA,NA,NA,NA
SUPAMT00201,34PGFRQONUAET3WQXCZ5FZGGU2KWJS,BA3E692D-7698-4F9D-B8D7-A9ABD5BD51D5,2023-09-27_08h29.07.949,WP_VExplicitOC_LH,2022.2.5,Win32,16.45900884,NA,NA,NA,NA,NA,NA,NA,NA,NA,NA,NA,26.75,2.0153,0,1,1,1,1,stand up,002.png,NA,NA,NA,NA,NA,NA,NA,NA,NA,NA,NA,NA,NA,NA,NA,NA,NA,NA,NA,NA,NA,NA,NA,NA,NA,NA,NA,NA,NA,NA,NA,NA,NA,NA,NA,NA,NA,NA,NA
SUPAMT00201,34PGFRQONUAET3WQXCZ5FZGGU2KWJS,BA3E692D-7698-4F9D-B8D7-A9ABD5BD51D5,2023-09-27_08h29.07.949,WP_VExplicitOC_LH,2022.2.5,Win32,16.45900884,NA,NA,NA,NA,NA,NA,NA,NA,NA,NA,NA,34.5,1.411,0,2,2,2,1,stretch,003.png,NA,NA,NA,NA,NA,NA,NA,NA,NA,NA,NA,NA,NA,NA,NA,NA,NA,NA,NA,NA,NA,NA,NA,NA,NA,NA,NA,NA,NA,NA,NA,NA,NA,NA,NA,NA,NA,NA,NA
SUPAMT00201,34PGFRQONUAET3WQXCZ5FZGGU2KWJS,BA3E692D-7698-4F9D-B8D7-A9ABD5BD51D5,2023-09-27_08h29.07.949,WP_VExplicitOC_LH,2022.2.5,Win32,16.45900884,NA,NA,NA,NA,NA,NA,NA,NA,NA,NA,NA,43.75,1.4626,0,3,3,3,1,make a drink,004.png,NA,NA,NA,NA,NA,NA,NA,NA,NA,NA,NA,NA,NA,NA,NA,NA,NA,NA,NA,NA,NA,NA,NA,NA,NA,NA,NA,NA,NA,NA,NA,NA,NA,NA,NA,NA,NA,NA,NA
SUPAMT00201,34PGFRQONUAET3WQXCZ5FZGGU2KWJS,BA3E692D-7698-4F9D-B8D7-A9ABD5BD51D5,2023-09-27_08h29.07.949,WP_VExplicitOC_LH,2022.2.5,Win32,16.45900884,NA,NA,NA,NA,NA,NA,NA,NA,NA,NA,NA,49.25,1.4705,0,4,4,4,1,scroll social media,005.png,NA,NA,NA,NA,NA,NA,NA,NA,NA,NA,NA,NA,NA,NA,NA,NA,NA,NA,NA,NA,NA,NA,NA,NA,NA,NA,NA,NA,NA,NA,NA,NA,NA,NA,NA,NA,NA,NA,NA
SUPAMT00201,34PGFRQONUAET3WQXCZ5FZGGU2KWJS,BA3E692D-7698-4F9D-B8D7-A9ABD5BD51D5,2023-09-27_08h29.07.949,WP_VExplicitOC_LH,2022.2.5,Win32,16.45900884,NA,NA,NA,NA,NA,NA,NA,NA,NA,NA,NA,43.25,1.2803,0,5,5,5,1,listen to music,006.png,NA,NA,NA,NA,NA,NA,NA,NA,NA,NA,NA,NA,NA,NA,NA,NA,NA,NA,NA,NA,NA,NA,NA,NA,NA,NA,NA,NA,NA,NA,NA,NA,NA,NA,NA,NA,NA,NA,NA
SUPAMT00201,34PGFRQONUAET3WQXCZ5FZGGU2KWJS,BA3E692D-7698-4F9D-B8D7-A9ABD5BD51D5,2023-09-27_08h29.07.949,WP_VExplicitOC_LH,2022.2.5,Win32,16.45900884,NA,NA,NA,NA,NA,NA,NA,NA,NA,NA,NA,33.75,1.0117,0,6,6,6,1,daydream,007.png,NA,NA,NA,NA,NA,NA,NA,NA,NA,NA,NA,NA,NA,NA,NA,NA,NA,NA,NA,NA,NA,NA,NA,NA,NA,NA,NA,NA,NA,NA,NA,NA,NA,NA,NA,NA,NA,NA,NA
SUPAMT00201,34PGFRQONUAET3WQXCZ5FZGGU2KWJS,BA3E692D-7698-4F9D-B8D7-A9ABD5BD51D5,2023-09-27_08h29.07.949,WP_VExplicitOC_LH,2022.2.5,Win32,16.45900884,NA,NA,NA,NA,NA,NA,NA,NA,NA,NA,NA,47.75,1.1527,0,7,7,7,1,watch a short animation,008.png,NA,NA,NA,NA,NA,NA,NA,NA,NA,NA,NA,NA,NA,NA,NA,NA,NA,NA,NA,NA,NA,NA,NA,NA,NA,NA,NA,NA,NA,NA,NA,NA,NA,NA,NA,NA,NA,NA,NA
SUPAMT00201,34PGFRQONUAET3WQXCZ5FZGGU2KWJS,BA3E692D-7698-4F9D-B8D7-A9ABD5BD51D5,2023-09-27_08h29.07.949,WP_VExplicitOC_LH,2022.2.5,Win32,16.45900884,NA,NA,NA,NA,NA,NA,NA,NA,NA,NA,NA,38.5,1.1509,0,8,8,8,1,read a novel,009.png,NA,NA,NA,NA,NA,NA,NA,NA,NA,NA,NA,NA,NA,NA,NA,NA,NA,NA,NA,NA,NA,NA,NA,NA,NA,NA,NA,NA,NA,NA,NA,NA,NA,NA,NA,NA,NA,NA,NA
SUPAMT00201,34PGFRQONUAET3WQXCZ5FZGGU2KWJS,BA3E692D-7698-4F9D-B8D7-A9ABD5BD51D5,2023-09-27_08h29.07.949,WP_VExplicitOC_LH,2022.2.5,Win32,16.45900884,NA,NA,NA,NA,NA,NA,NA,NA,NA,NA,NA,29,1.228,0,9,9,9,1,read the news,010.png,NA,NA,NA,NA,NA,NA,NA,NA,NA,NA,NA,NA,NA,NA,NA,NA,NA,NA,NA,NA,NA,NA,NA,NA,NA,NA,NA,NA,NA,NA,NA,NA,NA,NA,NA,NA,NA,NA,NA
SUPAMT00201,34PGFRQONUAET3WQXCZ5FZGGU2KWJS,BA3E692D-7698-4F9D-B8D7-A9ABD5BD51D5,2023-09-27_08h29.07.949,WP_VExplicitOC_LH,2022.2.5,Win32,16.45900884,NA,NA,NA,NA,NA,NA,NA,NA,NA,NA,NA,NA,NA,NA,NA,NA,NA,NA,NA,NA,NA,NA,NA,NA,NA,NA,NA,NA,NA,NA,NA,NA,NA,NA,NA,NA,NA,NA,NA,NA,NA,NA,NA,NA,NA,NA,NA,NA,NA,NA,NA,NA,NA,NA,NA,NA,NA,NA,NA
SUPAMT00201,34PGFRQONUAET3WQXCZ5FZGGU2KWJS,BA3E692D-7698-4F9D-B8D7-A9ABD5BD51D5,2023-09-27_08h29.07.949,WP_VExplicitOC_LH,2022.2.5,Win32,16.45900884,NA,NA,NA,NA,NA,NA,NA,NA,NA,NA,NA,NA,NA,NA,NA,NA,NA,NA,NA,NA,stand up,NA,NA,NA,NA,NA,NA,NA,NA,NA,NA,NA,NA,NA,NA,NA,NA,NA,NA,NA,NA,NA,NA,NA,NA,NA,NA,NA,NA,NA,NA,NA,NA,NA,NA,NA,NA,NA,NA
SUPAMT00201,34PGFRQONUAET3WQXCZ5FZGGU2KWJS,BA3E692D-7698-4F9D-B8D7-A9ABD5BD51D5,2023-09-27_08h29.07.949,WP_VExplicitOC_LH,2022.2.5,Win32,16.45900884,40.75,3.2252,2.044,NA,NA,NA,NA,NA,bored,"bored, not bored","more bored, less bored",NA,NA,NA,NA,NA,NA,NA,NA,NA,NA,0,0,0,2,1,NA,NA,NA,NA,NA,NA,NA,NA,NA,NA,NA,NA,NA,NA,NA,NA,NA,NA,NA,NA,NA,NA,NA,NA,NA,NA,NA,NA,NA,NA,NA,NA,NA
SUPAMT00201,34PGFRQONUAET3WQXCZ5FZGGU2KWJS,BA3E692D-7698-4F9D-B8D7-A9ABD5BD51D5,2023-09-27_08h29.07.949,WP_VExplicitOC_LH,2022.2.5,Win32,16.45900884,37,3.9023,2.0392,NA,NA,NA,NA,NA,happy,"unhappy, happy","less happy, more happy",NA,NA,NA,NA,NA,NA,NA,NA,NA,NA,0,1,1,0,1,NA,NA,NA,NA,NA,NA,NA,NA,NA,NA,NA,NA,NA,NA,NA,NA,NA,NA,NA,NA,NA,NA,NA,NA,NA,NA,NA,NA,NA,NA,NA,NA,NA
SUPAMT00201,34PGFRQONUAET3WQXCZ5FZGGU2KWJS,BA3E692D-7698-4F9D-B8D7-A9ABD5BD51D5,2023-09-27_08h29.07.949,WP_VExplicitOC_LH,2022.2.5,Win32,16.45900884,45,3.329,2.0831,NA,NA,NA,NA,NA,frustrated,"frustrated, not frustrated","more frustrated, less frustrated",NA,NA,NA,NA,NA,NA,NA,NA,NA,NA,0,2,2,1,1,NA,NA,NA,NA,NA,NA,NA,NA,NA,NA,NA,NA,NA,NA,NA,NA,NA,NA,NA,NA,NA,NA,NA,NA,NA,NA,NA,NA,NA,NA,NA,NA,NA
SUPAMT00201,34PGFRQONUAET3WQXCZ5FZGGU2KWJS,BA3E692D-7698-4F9D-B8D7-A9ABD5BD51D5,2023-09-27_08h29.07.949,WP_VExplicitOC_LH,2022.2.5,Win32,16.45900884,NA,NA,NA,NA,NA,NA,NA,NA,NA,NA,NA,NA,NA,NA,NA,NA,NA,NA,NA,NA,NA,NA,NA,NA,NA,NA,NA,NA,NA,NA,NA,NA,NA,NA,NA,NA,NA,NA,NA,NA,NA,NA,NA,NA,NA,NA,NA,NA,NA,NA,NA,NA,NA,NA,NA,NA,NA,NA,NA
SUPAMT00201,34PGFRQONUAET3WQXCZ5FZGGU2KWJS,BA3E692D-7698-4F9D-B8D7-A9ABD5BD51D5,2023-09-27_08h29.07.949,WP_VExplicitOC_LH,2022.2.5,Win32,16.45900884,NA,NA,NA,NA,NA,NA,NA,NA,NA,NA,NA,NA,NA,NA,NA,NA,NA,NA,NA,NA,NA,NA,NA,NA,NA,NA,NA,NA,NA,NA,NA,NA,NA,NA,NA,NA,NA,NA,NA,NA,NA,NA,NA,NA,NA,NA,NA,NA,NA,NA,NA,NA,NA,NA,NA,NA,NA,NA,NA
SUPAMT00201,34PGFRQONUAET3WQXCZ5FZGGU2KWJS,BA3E692D-7698-4F9D-B8D7-A9ABD5BD51D5,2023-09-27_08h29.07.949,WP_VExplicitOC_LH,2022.2.5,Win32,16.45900884,39.25,3.8839,2.1907,NA,NA,NA,NA,NA,bored,"bored, not bored","more bored, less bored",NA,NA,NA,NA,NA,NA,NA,NA,NA,NA,NA,NA,NA,NA,NA,0,0,0,2,1,NA,NA,NA,NA,NA,NA,NA,NA,NA,NA,NA,NA,NA,NA,NA,NA,NA,NA,NA,NA,NA,NA,NA,NA,NA,NA,NA,NA
SUPAMT00201,34PGFRQONUAET3WQXCZ5FZGGU2KWJS,BA3E692D-7698-4F9D-B8D7-A9ABD5BD51D5,2023-09-27_08h29.07.949,WP_VExplicitOC_LH,2022.2.5,Win32,16.45900884,49.25,3.7341,2.155,NA,NA,NA,NA,NA,happy,"unhappy, happy","less happy, more happy",NA,NA,NA,NA,NA,NA,NA,NA,NA,NA,NA,NA,NA,NA,NA,0,1,1,0,1,NA,NA,NA,NA,NA,NA,NA,NA,NA,NA,NA,NA,NA,NA,NA,NA,NA,NA,NA,NA,NA,NA,NA,NA,NA,NA,NA,NA
SUPAMT00201,34PGFRQONUAET3WQXCZ5FZGGU2KWJS,BA3E692D-7698-4F9D-B8D7-A9ABD5BD51D5,2023-09-27_08h29.07.949,WP_VExplicitOC_LH,2022.2.5,Win32,16.45900884,58,3.8842,2.0047,NA,NA,NA,NA,NA,frustrated,"frustrated, not frustrated","more frustrated, less frustrated",NA,NA,NA,NA,NA,NA,NA,NA,NA,NA,NA,NA,NA,NA,NA,0,2,2,1,1,NA,NA,NA,NA,NA,NA,NA,NA,NA,NA,NA,NA,NA,NA,NA,NA,NA,NA,NA,NA,NA,NA,NA,NA,NA,NA,NA,NA
SUPAMT00201,34PGFRQONUAET3WQXCZ5FZGGU2KWJS,BA3E692D-7698-4F9D-B8D7-A9ABD5BD51D5,2023-09-27_08h29.07.949,WP_VExplicitOC_LH,2022.2.5,Win32,16.45900884,NA,NA,NA,NA,NA,NA,NA,NA,NA,NA,NA,NA,NA,NA,NA,NA,NA,NA,NA,NA,NA,NA,NA,NA,NA,NA,NA,NA,NA,NA,NA,0,0,0,0,1,NA,NA,NA,NA,NA,NA,NA,NA,NA,NA,NA,NA,NA,NA,NA,NA,NA,NA,NA,NA,NA,NA,NA
SUPAMT00201,34PGFRQONUAET3WQXCZ5FZGGU2KWJS,BA3E692D-7698-4F9D-B8D7-A9ABD5BD51D5,2023-09-27_08h29.07.949,WP_VExplicitOC_LH,2022.2.5,Win32,16.45900884,35,3.6202,2.101,NA,NA,NA,NA,NA,frustrated,"frustrated, not frustrated","more frustrated, less frustrated",NA,NA,NA,NA,NA,NA,NA,NA,NA,NA,NA,NA,NA,NA,NA,0,0,0,1,1,NA,NA,NA,NA,NA,NA,NA,NA,NA,NA,NA,NA,NA,NA,NA,NA,NA,NA,NA,NA,NA,NA,NA,NA,NA,NA,NA,NA
SUPAMT00201,34PGFRQONUAET3WQXCZ5FZGGU2KWJS,BA3E692D-7698-4F9D-B8D7-A9ABD5BD51D5,2023-09-27_08h29.07.949,WP_VExplicitOC_LH,2022.2.5,Win32,16.45900884,42,3.4187,2.0593,NA,NA,NA,NA,NA,happy,"unhappy, happy","less happy, more happy",NA,NA,NA,NA,NA,NA,NA,NA,NA,NA,NA,NA,NA,NA,NA,0,1,1,0,1,NA,NA,NA,NA,NA,NA,NA,NA,NA,NA,NA,NA,NA,NA,NA,NA,NA,NA,NA,NA,NA,NA,NA,NA,NA,NA,NA,NA
SUPAMT00201,34PGFRQONUAET3WQXCZ5FZGGU2KWJS,BA3E692D-7698-4F9D-B8D7-A9ABD5BD51D5,2023-09-27_08h29.07.949,WP_VExplicitOC_LH,2022.2.5,Win32,16.45900884,41.25,3.6127,2.0546,NA,NA,NA,NA,NA,bored,"bored, not bored","more bored, less bored",NA,NA,NA,NA,NA,NA,NA,NA,NA,NA,NA,NA,NA,NA,NA,0,2,2,2,1,NA,NA,NA,NA,NA,NA,NA,NA,NA,NA,NA,NA,NA,NA,NA,NA,NA,NA,NA,NA,NA,NA,NA,NA,NA,NA,NA,NA
SUPAMT00201,34PGFRQONUAET3WQXCZ5FZGGU2KWJS,BA3E692D-7698-4F9D-B8D7-A9ABD5BD51D5,2023-09-27_08h29.07.949,WP_VExplicitOC_LH,2022.2.5,Win32,16.45900884,NA,NA,NA,NA,NA,NA,NA,NA,NA,NA,NA,NA,NA,NA,NA,NA,NA,NA,NA,NA,NA,NA,NA,NA,NA,NA,NA,NA,NA,NA,NA,1,0,1,0,1,NA,NA,NA,NA,NA,NA,NA,NA,NA,NA,NA,NA,NA,NA,NA,NA,NA,NA,NA,NA,NA,NA,NA
SUPAMT00201,34PGFRQONUAET3WQXCZ5FZGGU2KWJS,BA3E692D-7698-4F9D-B8D7-A9ABD5BD51D5,2023-09-27_08h29.07.949,WP_VExplicitOC_LH,2022.2.5,Win32,16.45900884,28.75,3.6055,2.0317,NA,NA,NA,NA,NA,bored,"bored, not bored","more bored, less bored",NA,NA,NA,NA,NA,NA,NA,NA,NA,NA,NA,NA,NA,NA,NA,0,0,0,2,1,NA,NA,NA,NA,NA,NA,NA,NA,NA,NA,NA,NA,NA,NA,NA,NA,NA,NA,NA,NA,NA,NA,NA,NA,NA,NA,NA,NA
SUPAMT00201,34PGFRQONUAET3WQXCZ5FZGGU2KWJS,BA3E692D-7698-4F9D-B8D7-A9ABD5BD51D5,2023-09-27_08h29.07.949,WP_VExplicitOC_LH,2022.2.5,Win32,16.45900884,66.75,5.5454,2.1739,NA,NA,NA,NA,NA,happy,"unhappy, happy","less happy, more happy",NA,NA,NA,NA,NA,NA,NA,NA,NA,NA,NA,NA,NA,NA,NA,0,1,1,0,1,NA,NA,NA,NA,NA,NA,NA,NA,NA,NA,NA,NA,NA,NA,NA,NA,NA,NA,NA,NA,NA,NA,NA,NA,NA,NA,NA,NA
SUPAMT00201,34PGFRQONUAET3WQXCZ5FZGGU2KWJS,BA3E692D-7698-4F9D-B8D7-A9ABD5BD51D5,2023-09-27_08h29.07.949,WP_VExplicitOC_LH,2022.2.5,Win32,16.45900884,38,3.8083,2.1412,NA,NA,NA,NA,NA,frustrated,"frustrated, not frustrated","more frustrated, less frustrated",NA,NA,NA,NA,NA,NA,NA,NA,NA,NA,NA,NA,NA,NA,NA,0,2,2,1,1,NA,NA,NA,NA,NA,NA,NA,NA,NA,NA,NA,NA,NA,NA,NA,NA,NA,NA,NA,NA,NA,NA,NA,NA,NA,NA,NA,NA
SUPAMT00201,34PGFRQONUAET3WQXCZ5FZGGU2KWJS,BA3E692D-7698-4F9D-B8D7-A9ABD5BD51D5,2023-09-27_08h29.07.949,WP_VExplicitOC_LH,2022.2.5,Win32,16.45900884,NA,NA,NA,NA,NA,NA,NA,NA,NA,NA,NA,NA,NA,NA,NA,NA,NA,NA,NA,NA,NA,NA,NA,NA,NA,NA,NA,NA,NA,NA,NA,2,0,2,0,1,NA,NA,NA,NA,NA,NA,NA,NA,NA,NA,NA,NA,NA,NA,NA,NA,NA,NA,NA,NA,NA,NA,NA
SUPAMT00201,34PGFRQONUAET3WQXCZ5FZGGU2KWJS,BA3E692D-7698-4F9D-B8D7-A9ABD5BD51D5,2023-09-27_08h29.07.949,WP_VExplicitOC_LH,2022.2.5,Win32,16.45900884,33.25,3.7633,2.1115,NA,NA,NA,NA,NA,bored,"bored, not bored","more bored, less bored",NA,NA,NA,NA,NA,NA,NA,NA,NA,NA,NA,NA,NA,NA,NA,0,0,0,2,1,NA,NA,NA,NA,NA,NA,NA,NA,NA,NA,NA,NA,NA,NA,NA,NA,NA,NA,NA,NA,NA,NA,NA,NA,NA,NA,NA,NA
SUPAMT00201,34PGFRQONUAET3WQXCZ5FZGGU2KWJS,BA3E692D-7698-4F9D-B8D7-A9ABD5BD51D5,2023-09-27_08h29.07.949,WP_VExplicitOC_LH,2022.2.5,Win32,16.45900884,45.25,3.7123,2.0339,NA,NA,NA,NA,NA,frustrated,"frustrated, not frustrated","more frustrated, less frustrated",NA,NA,NA,NA,NA,NA,NA,NA,NA,NA,NA,NA,NA,NA,NA,0,1,1,1,1,NA,NA,NA,NA,NA,NA,NA,NA,NA,NA,NA,NA,NA,NA,NA,NA,NA,NA,NA,NA,NA,NA,NA,NA,NA,NA,NA,NA
SUPAMT00201,34PGFRQONUAET3WQXCZ5FZGGU2KWJS,BA3E692D-7698-4F9D-B8D7-A9ABD5BD51D5,2023-09-27_08h29.07.949,WP_VExplicitOC_LH,2022.2.5,Win32,16.45900884,52.5,3.6286,2.1622,NA,NA,NA,NA,NA,happy,"unhappy, happy","less happy, more happy",NA,NA,NA,NA,NA,NA,NA,NA,NA,NA,NA,NA,NA,NA,NA,0,2,2,0,1,NA,NA,NA,NA,NA,NA,NA,NA,NA,NA,NA,NA,NA,NA,NA,NA,NA,NA,NA,NA,NA,NA,NA,NA,NA,NA,NA,NA
SUPAMT00201,34PGFRQONUAET3WQXCZ5FZGGU2KWJS,BA3E692D-7698-4F9D-B8D7-A9ABD5BD51D5,2023-09-27_08h29.07.949,WP_VExplicitOC_LH,2022.2.5,Win32,16.45900884,NA,NA,NA,NA,NA,NA,NA,NA,NA,NA,NA,NA,NA,NA,NA,NA,NA,NA,NA,NA,NA,NA,NA,NA,NA,NA,NA,NA,NA,NA,NA,3,0,3,0,1,NA,NA,NA,NA,NA,NA,NA,NA,NA,NA,NA,NA,NA,NA,NA,NA,NA,NA,NA,NA,NA,NA,NA
SUPAMT00201,34PGFRQONUAET3WQXCZ5FZGGU2KWJS,BA3E692D-7698-4F9D-B8D7-A9ABD5BD51D5,2023-09-27_08h29.07.949,WP_VExplicitOC_LH,2022.2.5,Win32,16.45900884,43.75,3.5871,2.1372,NA,NA,NA,NA,NA,happy,"unhappy, happy","less happy, more happy",NA,NA,NA,NA,NA,NA,NA,NA,NA,NA,NA,NA,NA,NA,NA,0,0,0,0,1,NA,NA,NA,NA,NA,NA,NA,NA,NA,NA,NA,NA,NA,NA,NA,NA,NA,NA,NA,NA,NA,NA,NA,NA,NA,NA,NA,NA
SUPAMT00201,34PGFRQONUAET3WQXCZ5FZGGU2KWJS,BA3E692D-7698-4F9D-B8D7-A9ABD5BD51D5,2023-09-27_08h29.07.949,WP_VExplicitOC_LH,2022.2.5,Win32,16.45900884,50.5,4.0989,2.0093,NA,NA,NA,NA,NA,bored,"bored, not bored","more bored, less bored",NA,NA,NA,NA,NA,NA,NA,NA,NA,NA,NA,NA,NA,NA,NA,0,1,1,2,1,NA,NA,NA,NA,NA,NA,NA,NA,NA,NA,NA,NA,NA,NA,NA,NA,NA,NA,NA,NA,NA,NA,NA,NA,NA,NA,NA,NA
SUPAMT00201,34PGFRQONUAET3WQXCZ5FZGGU2KWJS,BA3E692D-7698-4F9D-B8D7-A9ABD5BD51D5,2023-09-27_08h29.07.949,WP_VExplicitOC_LH,2022.2.5,Win32,16.45900884,56.25,3.597,2.0624,NA,NA,NA,NA,NA,frustrated,"frustrated, not frustrated","more frustrated, less frustrated",NA,NA,NA,NA,NA,NA,NA,NA,NA,NA,NA,NA,NA,NA,NA,0,2,2,1,1,NA,NA,NA,NA,NA,NA,NA,NA,NA,NA,NA,NA,NA,NA,NA,NA,NA,NA,NA,NA,NA,NA,NA,NA,NA,NA,NA,NA
SUPAMT00201,34PGFRQONUAET3WQXCZ5FZGGU2KWJS,BA3E692D-7698-4F9D-B8D7-A9ABD5BD51D5,2023-09-27_08h29.07.949,WP_VExplicitOC_LH,2022.2.5,Win32,16.45900884,NA,NA,NA,NA,NA,NA,NA,NA,NA,NA,NA,NA,NA,NA,NA,NA,NA,NA,NA,NA,NA,NA,NA,NA,NA,NA,NA,NA,NA,NA,NA,4,0,4,0,1,NA,NA,NA,NA,NA,NA,NA,NA,NA,NA,NA,NA,NA,NA,NA,NA,NA,NA,NA,NA,NA,NA,NA
SUPAMT00201,34PGFRQONUAET3WQXCZ5FZGGU2KWJS,BA3E692D-7698-4F9D-B8D7-A9ABD5BD51D5,2023-09-27_08h29.07.949,WP_VExplicitOC_LH,2022.2.5,Win32,16.45900884,57.25,3.7474,2.1125,NA,NA,NA,NA,NA,frustrated,"frustrated, not frustrated","more frustrated, less frustrated",NA,NA,NA,NA,NA,NA,NA,NA,NA,NA,NA,NA,NA,NA,NA,0,0,0,1,1,NA,NA,NA,NA,NA,NA,NA,NA,NA,NA,NA,NA,NA,NA,NA,NA,NA,NA,NA,NA,NA,NA,NA,NA,NA,NA,NA,NA
SUPAMT00201,34PGFRQONUAET3WQXCZ5FZGGU2KWJS,BA3E692D-7698-4F9D-B8D7-A9ABD5BD51D5,2023-09-27_08h29.07.949,WP_VExplicitOC_LH,2022.2.5,Win32,16.45900884,52,3.591,2.1105,NA,NA,NA,NA,NA,bored,"bored, not bored","more bored, less bored",NA,NA,NA,NA,NA,NA,NA,NA,NA,NA,NA,NA,NA,NA,NA,0,1,1,2,1,NA,NA,NA,NA,NA,NA,NA,NA,NA,NA,NA,NA,NA,NA,NA,NA,NA,NA,NA,NA,NA,NA,NA,NA,NA,NA,NA,NA
SUPAMT00201,34PGFRQONUAET3WQXCZ5FZGGU2KWJS,BA3E692D-7698-4F9D-B8D7-A9ABD5BD51D5,2023-09-27_08h29.07.949,WP_VExplicitOC_LH,2022.2.5,Win32,16.45900884,45.75,3.5101,2.0283,NA,NA,NA,NA,NA,happy,"unhappy, happy","less happy, more happy",NA,NA,NA,NA,NA,NA,NA,NA,NA,NA,NA,NA,NA,NA,NA,0,2,2,0,1,NA,NA,NA,NA,NA,NA,NA,NA,NA,NA,NA,NA,NA,NA,NA,NA,NA,NA,NA,NA,NA,NA,NA,NA,NA,NA,NA,NA
SUPAMT00201,34PGFRQONUAET3WQXCZ5FZGGU2KWJS,BA3E692D-7698-4F9D-B8D7-A9ABD5BD51D5,2023-09-27_08h29.07.949,WP_VExplicitOC_LH,2022.2.5,Win32,16.45900884,NA,NA,NA,NA,NA,NA,NA,NA,NA,NA,NA,NA,NA,NA,NA,NA,NA,NA,NA,NA,NA,NA,NA,NA,NA,NA,NA,NA,NA,NA,NA,5,0,5,0,1,NA,NA,NA,NA,NA,NA,NA,NA,NA,NA,NA,NA,NA,NA,NA,NA,NA,NA,NA,NA,NA,NA,NA
SUPAMT00201,34PGFRQONUAET3WQXCZ5FZGGU2KWJS,BA3E692D-7698-4F9D-B8D7-A9ABD5BD51D5,2023-09-27_08h29.07.949,WP_VExplicitOC_LH,2022.2.5,Win32,16.45900884,44.5,3.6812,2.0616,NA,NA,NA,NA,NA,happy,"unhappy, happy","less happy, more happy",NA,NA,NA,NA,NA,NA,NA,NA,NA,NA,NA,NA,NA,NA,NA,0,0,0,0,1,NA,NA,NA,NA,NA,NA,NA,NA,NA,NA,NA,NA,NA,NA,NA,NA,NA,NA,NA,NA,NA,NA,NA,NA,NA,NA,NA,NA
SUPAMT00201,34PGFRQONUAET3WQXCZ5FZGGU2KWJS,BA3E692D-7698-4F9D-B8D7-A9ABD5BD51D5,2023-09-27_08h29.07.949,WP_VExplicitOC_LH,2022.2.5,Win32,16.45900884,46,3.7007,2.0489,NA,NA,NA,NA,NA,frustrated,"frustrated, not frustrated","more frustrated, less frustrated",NA,NA,NA,NA,NA,NA,NA,NA,NA,NA,NA,NA,NA,NA,NA,0,1,1,1,1,NA,NA,NA,NA,NA,NA,NA,NA,NA,NA,NA,NA,NA,NA,NA,NA,NA,NA,NA,NA,NA,NA,NA,NA,NA,NA,NA,NA
SUPAMT00201,34PGFRQONUAET3WQXCZ5FZGGU2KWJS,BA3E692D-7698-4F9D-B8D7-A9ABD5BD51D5,2023-09-27_08h29.07.949,WP_VExplicitOC_LH,2022.2.5,Win32,16.45900884,59.25,3.6212,2.0664,NA,NA,NA,NA,NA,bored,"bored, not bored","more bored, less bored",NA,NA,NA,NA,NA,NA,NA,NA,NA,NA,NA,NA,NA,NA,NA,0,2,2,2,1,NA,NA,NA,NA,NA,NA,NA,NA,NA,NA,NA,NA,NA,NA,NA,NA,NA,NA,NA,NA,NA,NA,NA,NA,NA,NA,NA,NA
SUPAMT00201,34PGFRQONUAET3WQXCZ5FZGGU2KWJS,BA3E692D-7698-4F9D-B8D7-A9ABD5BD51D5,2023-09-27_08h29.07.949,WP_VExplicitOC_LH,2022.2.5,Win32,16.45900884,NA,NA,NA,NA,NA,NA,NA,NA,NA,NA,NA,NA,NA,NA,NA,NA,NA,NA,NA,NA,NA,NA,NA,NA,NA,NA,NA,NA,NA,NA,NA,6,0,6,0,1,NA,NA,NA,NA,NA,NA,NA,NA,NA,NA,NA,NA,NA,NA,NA,NA,NA,NA,NA,NA,NA,NA,NA
SUPAMT00201,34PGFRQONUAET3WQXCZ5FZGGU2KWJS,BA3E692D-7698-4F9D-B8D7-A9ABD5BD51D5,2023-09-27_08h29.07.949,WP_VExplicitOC_LH,2022.2.5,Win32,16.45900884,59.5,3.6493,2.0518,NA,NA,NA,NA,NA,happy,"unhappy, happy","less happy, more happy",NA,NA,NA,NA,NA,NA,NA,NA,NA,NA,NA,NA,NA,NA,NA,0,0,0,0,1,NA,NA,NA,NA,NA,NA,NA,NA,NA,NA,NA,NA,NA,NA,NA,NA,NA,NA,NA,NA,NA,NA,NA,NA,NA,NA,NA,NA
SUPAMT00201,34PGFRQONUAET3WQXCZ5FZGGU2KWJS,BA3E692D-7698-4F9D-B8D7-A9ABD5BD51D5,2023-09-27_08h29.07.949,WP_VExplicitOC_LH,2022.2.5,Win32,16.45900884,47.75,3.7258,2.0979,NA,NA,NA,NA,NA,frustrated,"frustrated, not frustrated","more frustrated, less frustrated",NA,NA,NA,NA,NA,NA,NA,NA,NA,NA,NA,NA,NA,NA,NA,0,1,1,1,1,NA,NA,NA,NA,NA,NA,NA,NA,NA,NA,NA,NA,NA,NA,NA,NA,NA,NA,NA,NA,NA,NA,NA,NA,NA,NA,NA,NA
SUPAMT00201,34PGFRQONUAET3WQXCZ5FZGGU2KWJS,BA3E692D-7698-4F9D-B8D7-A9ABD5BD51D5,2023-09-27_08h29.07.949,WP_VExplicitOC_LH,2022.2.5,Win32,16.45900884,53.5,3.6344,2.0071,NA,NA,NA,NA,NA,bored,"bored, not bored","more bored, less bored",NA,NA,NA,NA,NA,NA,NA,NA,NA,NA,NA,NA,NA,NA,NA,0,2,2,2,1,NA,NA,NA,NA,NA,NA,NA,NA,NA,NA,NA,NA,NA,NA,NA,NA,NA,NA,NA,NA,NA,NA,NA,NA,NA,NA,NA,NA
SUPAMT00201,34PGFRQONUAET3WQXCZ5FZGGU2KWJS,BA3E692D-7698-4F9D-B8D7-A9ABD5BD51D5,2023-09-27_08h29.07.949,WP_VExplicitOC_LH,2022.2.5,Win32,16.45900884,NA,NA,NA,NA,NA,NA,NA,NA,NA,NA,NA,NA,NA,NA,NA,NA,NA,NA,NA,NA,NA,NA,NA,NA,NA,NA,NA,NA,NA,NA,NA,7,0,7,0,1,NA,NA,NA,NA,NA,NA,NA,NA,NA,NA,NA,NA,NA,NA,NA,NA,NA,NA,NA,NA,NA,NA,NA
SUPAMT00201,34PGFRQONUAET3WQXCZ5FZGGU2KWJS,BA3E692D-7698-4F9D-B8D7-A9ABD5BD51D5,2023-09-27_08h29.07.949,WP_VExplicitOC_LH,2022.2.5,Win32,16.45900884,41.25,4.0449,2.0916,NA,NA,NA,NA,NA,bored,"bored, not bored","more bored, less bored",NA,NA,NA,NA,NA,NA,NA,NA,NA,NA,NA,NA,NA,NA,NA,0,0,0,2,1,NA,NA,NA,NA,NA,NA,NA,NA,NA,NA,NA,NA,NA,NA,NA,NA,NA,NA,NA,NA,NA,NA,NA,NA,NA,NA,NA,NA
SUPAMT00201,34PGFRQONUAET3WQXCZ5FZGGU2KWJS,BA3E692D-7698-4F9D-B8D7-A9ABD5BD51D5,2023-09-27_08h29.07.949,WP_VExplicitOC_LH,2022.2.5,Win32,16.45900884,48.5,3.8437,2.1199,NA,NA,NA,NA,NA,happy,"unhappy, happy","less happy, more happy",NA,NA,NA,NA,NA,NA,NA,NA,NA,NA,NA,NA,NA,NA,NA,0,1,1,0,1,NA,NA,NA,NA,NA,NA,NA,NA,NA,NA,NA,NA,NA,NA,NA,NA,NA,NA,NA,NA,NA,NA,NA,NA,NA,NA,NA,NA
SUPAMT00201,34PGFRQONUAET3WQXCZ5FZGGU2KWJS,BA3E692D-7698-4F9D-B8D7-A9ABD5BD51D5,2023-09-27_08h29.07.949,WP_VExplicitOC_LH,2022.2.5,Win32,16.45900884,47.5,3.7755,2.0625,NA,NA,NA,NA,NA,frustrated,"frustrated, not frustrated","more frustrated, less frustrated",NA,NA,NA,NA,NA,NA,NA,NA,NA,NA,NA,NA,NA,NA,NA,0,2,2,1,1,NA,NA,NA,NA,NA,NA,NA,NA,NA,NA,NA,NA,NA,NA,NA,NA,NA,NA,NA,NA,NA,NA,NA,NA,NA,NA,NA,NA
SUPAMT00201,34PGFRQONUAET3WQXCZ5FZGGU2KWJS,BA3E692D-7698-4F9D-B8D7-A9ABD5BD51D5,2023-09-27_08h29.07.949,WP_VExplicitOC_LH,2022.2.5,Win32,16.45900884,NA,NA,NA,NA,NA,NA,NA,NA,NA,NA,NA,NA,NA,NA,NA,NA,NA,NA,NA,NA,NA,NA,NA,NA,NA,NA,NA,NA,NA,NA,NA,8,0,8,0,1,NA,NA,NA,NA,NA,NA,NA,NA,NA,NA,NA,NA,NA,NA,NA,NA,NA,NA,NA,NA,NA,NA,NA
SUPAMT00201,34PGFRQONUAET3WQXCZ5FZGGU2KWJS,BA3E692D-7698-4F9D-B8D7-A9ABD5BD51D5,2023-09-27_08h29.07.949,WP_VExplicitOC_LH,2022.2.5,Win32,16.45900884,57.5,3.7644,2.0461,NA,NA,NA,NA,NA,bored,"bored, not bored","more bored, less bored",NA,NA,NA,NA,NA,NA,NA,NA,NA,NA,NA,NA,NA,NA,NA,0,0,0,2,1,NA,NA,NA,NA,NA,NA,NA,NA,NA,NA,NA,NA,NA,NA,NA,NA,NA,NA,NA,NA,NA,NA,NA,NA,NA,NA,NA,NA
SUPAMT00201,34PGFRQONUAET3WQXCZ5FZGGU2KWJS,BA3E692D-7698-4F9D-B8D7-A9ABD5BD51D5,2023-09-27_08h29.07.949,WP_VExplicitOC_LH,2022.2.5,Win32,16.45900884,32.5,3.5574,2.106,NA,NA,NA,NA,NA,frustrated,"frustrated, not frustrated","more frustrated, less frustrated",NA,NA,NA,NA,NA,NA,NA,NA,NA,NA,NA,NA,NA,NA,NA,0,1,1,1,1,NA,NA,NA,NA,NA,NA,NA,NA,NA,NA,NA,NA,NA,NA,NA,NA,NA,NA,NA,NA,NA,NA,NA,NA,NA,NA,NA,NA
SUPAMT00201,34PGFRQONUAET3WQXCZ5FZGGU2KWJS,BA3E692D-7698-4F9D-B8D7-A9ABD5BD51D5,2023-09-27_08h29.07.949,WP_VExplicitOC_LH,2022.2.5,Win32,16.45900884,56.5,3.9555,2.067,NA,NA,NA,NA,NA,happy,"unhappy, happy","less happy, more happy",NA,NA,NA,NA,NA,NA,NA,NA,NA,NA,NA,NA,NA,NA,NA,0,2,2,0,1,NA,NA,NA,NA,NA,NA,NA,NA,NA,NA,NA,NA,NA,NA,NA,NA,NA,NA,NA,NA,NA,NA,NA,NA,NA,NA,NA,NA
SUPAMT00201,34PGFRQONUAET3WQXCZ5FZGGU2KWJS,BA3E692D-7698-4F9D-B8D7-A9ABD5BD51D5,2023-09-27_08h29.07.949,WP_VExplicitOC_LH,2022.2.5,Win32,16.45900884,NA,NA,NA,NA,NA,NA,NA,NA,NA,NA,NA,NA,NA,NA,NA,NA,NA,NA,NA,NA,NA,NA,NA,NA,NA,NA,NA,NA,NA,NA,NA,9,0,9,0,1,NA,NA,NA,NA,NA,NA,NA,NA,NA,NA,NA,NA,NA,NA,NA,NA,NA,NA,NA,NA,NA,NA,NA
SUPAMT00201,34PGFRQONUAET3WQXCZ5FZGGU2KWJS,BA3E692D-7698-4F9D-B8D7-A9ABD5BD51D5,2023-09-27_08h29.07.949,WP_VExplicitOC_LH,2022.2.5,Win32,16.45900884,42.25,3.7456,2.1055,NA,NA,NA,NA,NA,frustrated,"frustrated, not frustrated","more frustrated, less frustrated",NA,NA,NA,NA,NA,NA,NA,NA,NA,NA,NA,NA,NA,NA,NA,0,0,0,1,1,NA,NA,NA,NA,NA,NA,NA,NA,NA,NA,NA,NA,NA,NA,NA,NA,NA,NA,NA,NA,NA,NA,NA,NA,NA,NA,NA,NA
SUPAMT00201,34PGFRQONUAET3WQXCZ5FZGGU2KWJS,BA3E692D-7698-4F9D-B8D7-A9ABD5BD51D5,2023-09-27_08h29.07.949,WP_VExplicitOC_LH,2022.2.5,Win32,16.45900884,55,3.4872,2.0278,NA,NA,NA,NA,NA,happy,"unhappy, happy","less happy, more happy",NA,NA,NA,NA,NA,NA,NA,NA,NA,NA,NA,NA,NA,NA,NA,0,1,1,0,1,NA,NA,NA,NA,NA,NA,NA,NA,NA,NA,NA,NA,NA,NA,NA,NA,NA,NA,NA,NA,NA,NA,NA,NA,NA,NA,NA,NA
SUPAMT00201,34PGFRQONUAET3WQXCZ5FZGGU2KWJS,BA3E692D-7698-4F9D-B8D7-A9ABD5BD51D5,2023-09-27_08h29.07.949,WP_VExplicitOC_LH,2022.2.5,Win32,16.45900884,55,3.7179,2.0013,NA,NA,NA,NA,NA,bored,"bored, not bored","more bored, less bored",NA,NA,NA,NA,NA,NA,NA,NA,NA,NA,NA,NA,NA,NA,NA,0,2,2,2,1,NA,NA,NA,NA,NA,NA,NA,NA,NA,NA,NA,NA,NA,NA,NA,NA,NA,NA,NA,NA,NA,NA,NA,NA,NA,NA,NA,NA
SUPAMT00201,34PGFRQONUAET3WQXCZ5FZGGU2KWJS,BA3E692D-7698-4F9D-B8D7-A9ABD5BD51D5,2023-09-27_08h29.07.949,WP_VExplicitOC_LH,2022.2.5,Win32,16.45900884,NA,NA,NA,NA,NA,NA,NA,NA,NA,NA,NA,NA,NA,NA,NA,NA,NA,NA,NA,NA,NA,NA,NA,NA,NA,NA,NA,NA,NA,NA,NA,10,0,10,0,1,NA,NA,NA,NA,NA,NA,NA,NA,NA,NA,NA,NA,NA,NA,NA,NA,NA,NA,NA,NA,NA,NA,NA
SUPAMT00201,34PGFRQONUAET3WQXCZ5FZGGU2KWJS,BA3E692D-7698-4F9D-B8D7-A9ABD5BD51D5,2023-09-27_08h29.07.949,WP_VExplicitOC_LH,2022.2.5,Win32,16.45900884,19.75,3.8563,2.1426,NA,NA,NA,NA,NA,happy,"unhappy, happy","less happy, more happy",NA,NA,NA,NA,NA,NA,NA,NA,NA,NA,NA,NA,NA,NA,NA,0,0,0,0,1,NA,NA,NA,NA,NA,NA,NA,NA,NA,NA,NA,NA,NA,NA,NA,NA,NA,NA,NA,NA,NA,NA,NA,NA,NA,NA,NA,NA
SUPAMT00201,34PGFRQONUAET3WQXCZ5FZGGU2KWJS,BA3E692D-7698-4F9D-B8D7-A9ABD5BD51D5,2023-09-27_08h29.07.949,WP_VExplicitOC_LH,2022.2.5,Win32,16.45900884,31.75,5.5725,2.0736,NA,NA,NA,NA,NA,frustrated,"frustrated, not frustrated","more frustrated, less frustrated",NA,NA,NA,NA,NA,NA,NA,NA,NA,NA,NA,NA,NA,NA,NA,0,1,1,1,1,NA,NA,NA,NA,NA,NA,NA,NA,NA,NA,NA,NA,NA,NA,NA,NA,NA,NA,NA,NA,NA,NA,NA,NA,NA,NA,NA,NA
SUPAMT00201,34PGFRQONUAET3WQXCZ5FZGGU2KWJS,BA3E692D-7698-4F9D-B8D7-A9ABD5BD51D5,2023-09-27_08h29.07.949,WP_VExplicitOC_LH,2022.2.5,Win32,16.45900884,32,4.0515,2.0886,NA,NA,NA,NA,NA,bored,"bored, not bored","more bored, less bored",NA,NA,NA,NA,NA,NA,NA,NA,NA,NA,NA,NA,NA,NA,NA,0,2,2,2,1,NA,NA,NA,NA,NA,NA,NA,NA,NA,NA,NA,NA,NA,NA,NA,NA,NA,NA,NA,NA,NA,NA,NA,NA,NA,NA,NA,NA
SUPAMT00201,34PGFRQONUAET3WQXCZ5FZGGU2KWJS,BA3E692D-7698-4F9D-B8D7-A9ABD5BD51D5,2023-09-27_08h29.07.949,WP_VExplicitOC_LH,2022.2.5,Win32,16.45900884,NA,NA,NA,NA,NA,NA,NA,NA,NA,NA,NA,NA,NA,NA,NA,NA,NA,NA,NA,NA,NA,NA,NA,NA,NA,NA,NA,NA,NA,NA,NA,11,0,11,0,1,NA,NA,NA,NA,NA,NA,NA,NA,NA,NA,NA,NA,NA,NA,NA,NA,NA,NA,NA,NA,NA,NA,NA
SUPAMT00201,34PGFRQONUAET3WQXCZ5FZGGU2KWJS,BA3E692D-7698-4F9D-B8D7-A9ABD5BD51D5,2023-09-27_08h29.07.949,WP_VExplicitOC_LH,2022.2.5,Win32,16.45900884,35,3.603,2.0096,NA,NA,NA,NA,NA,happy,"unhappy, happy","less happy, more happy",NA,NA,NA,NA,NA,NA,NA,NA,NA,NA,NA,NA,NA,NA,NA,0,0,0,0,1,NA,NA,NA,NA,NA,NA,NA,NA,NA,NA,NA,NA,NA,NA,NA,NA,NA,NA,NA,NA,NA,NA,NA,NA,NA,NA,NA,NA
SUPAMT00201,34PGFRQONUAET3WQXCZ5FZGGU2KWJS,BA3E692D-7698-4F9D-B8D7-A9ABD5BD51D5,2023-09-27_08h29.07.949,WP_VExplicitOC_LH,2022.2.5,Win32,16.45900884,34.5,3.742,2.0082,NA,NA,NA,NA,NA,bored,"bored, not bored","more bored, less bored",NA,NA,NA,NA,NA,NA,NA,NA,NA,NA,NA,NA,NA,NA,NA,0,1,1,2,1,NA,NA,NA,NA,NA,NA,NA,NA,NA,NA,NA,NA,NA,NA,NA,NA,NA,NA,NA,NA,NA,NA,NA,NA,NA,NA,NA,NA
SUPAMT00201,34PGFRQONUAET3WQXCZ5FZGGU2KWJS,BA3E692D-7698-4F9D-B8D7-A9ABD5BD51D5,2023-09-27_08h29.07.949,WP_VExplicitOC_LH,2022.2.5,Win32,16.45900884,57.5,4.2334,2.1205,NA,NA,NA,NA,NA,frustrated,"frustrated, not frustrated","more frustrated, less frustrated",NA,NA,NA,NA,NA,NA,NA,NA,NA,NA,NA,NA,NA,NA,NA,0,2,2,1,1,NA,NA,NA,NA,NA,NA,NA,NA,NA,NA,NA,NA,NA,NA,NA,NA,NA,NA,NA,NA,NA,NA,NA,NA,NA,NA,NA,NA
SUPAMT00201,34PGFRQONUAET3WQXCZ5FZGGU2KWJS,BA3E692D-7698-4F9D-B8D7-A9ABD5BD51D5,2023-09-27_08h29.07.949,WP_VExplicitOC_LH,2022.2.5,Win32,16.45900884,NA,NA,NA,NA,NA,NA,NA,NA,NA,NA,NA,NA,NA,NA,NA,NA,NA,NA,NA,NA,NA,NA,NA,NA,NA,NA,NA,NA,NA,NA,NA,12,0,12,0,1,NA,NA,NA,NA,NA,NA,NA,NA,NA,NA,NA,NA,NA,NA,NA,NA,NA,NA,NA,NA,NA,NA,NA
SUPAMT00201,34PGFRQONUAET3WQXCZ5FZGGU2KWJS,BA3E692D-7698-4F9D-B8D7-A9ABD5BD51D5,2023-09-27_08h29.07.949,WP_VExplicitOC_LH,2022.2.5,Win32,16.45900884,52,3.5763,2.005,NA,NA,NA,NA,NA,happy,"unhappy, happy","less happy, more happy",NA,NA,NA,NA,NA,NA,NA,NA,NA,NA,NA,NA,NA,NA,NA,0,0,0,0,1,NA,NA,NA,NA,NA,NA,NA,NA,NA,NA,NA,NA,NA,NA,NA,NA,NA,NA,NA,NA,NA,NA,NA,NA,NA,NA,NA,NA
SUPAMT00201,34PGFRQONUAET3WQXCZ5FZGGU2KWJS,BA3E692D-7698-4F9D-B8D7-A9ABD5BD51D5,2023-09-27_08h29.07.949,WP_VExplicitOC_LH,2022.2.5,Win32,16.45900884,70.5,4.324,2.0144,NA,NA,NA,NA,NA,bored,"bored, not bored","more bored, less bored",NA,NA,NA,NA,NA,NA,NA,NA,NA,NA,NA,NA,NA,NA,NA,0,1,1,2,1,NA,NA,NA,NA,NA,NA,NA,NA,NA,NA,NA,NA,NA,NA,NA,NA,NA,NA,NA,NA,NA,NA,NA,NA,NA,NA,NA,NA
SUPAMT00201,34PGFRQONUAET3WQXCZ5FZGGU2KWJS,BA3E692D-7698-4F9D-B8D7-A9ABD5BD51D5,2023-09-27_08h29.07.949,WP_VExplicitOC_LH,2022.2.5,Win32,16.45900884,43.25,4.1731,2.1073,NA,NA,NA,NA,NA,frustrated,"frustrated, not frustrated","more frustrated, less frustrated",NA,NA,NA,NA,NA,NA,NA,NA,NA,NA,NA,NA,NA,NA,NA,0,2,2,1,1,NA,NA,NA,NA,NA,NA,NA,NA,NA,NA,NA,NA,NA,NA,NA,NA,NA,NA,NA,NA,NA,NA,NA,NA,NA,NA,NA,NA
SUPAMT00201,34PGFRQONUAET3WQXCZ5FZGGU2KWJS,BA3E692D-7698-4F9D-B8D7-A9ABD5BD51D5,2023-09-27_08h29.07.949,WP_VExplicitOC_LH,2022.2.5,Win32,16.45900884,NA,NA,NA,NA,NA,NA,NA,NA,NA,NA,NA,NA,NA,NA,NA,NA,NA,NA,NA,NA,NA,NA,NA,NA,NA,NA,NA,NA,NA,NA,NA,13,0,13,0,1,NA,NA,NA,NA,NA,NA,NA,NA,NA,NA,NA,NA,NA,NA,NA,NA,NA,NA,NA,NA,NA,NA,NA
SUPAMT00201,34PGFRQONUAET3WQXCZ5FZGGU2KWJS,BA3E692D-7698-4F9D-B8D7-A9ABD5BD51D5,2023-09-27_08h29.07.949,WP_VExplicitOC_LH,2022.2.5,Win32,16.45900884,49.5,4.0693,2.165,NA,NA,NA,NA,NA,happy,"unhappy, happy","less happy, more happy",NA,NA,NA,NA,NA,NA,NA,NA,NA,NA,NA,NA,NA,NA,NA,0,0,0,0,1,NA,NA,NA,NA,NA,NA,NA,NA,NA,NA,NA,NA,NA,NA,NA,NA,NA,NA,NA,NA,NA,NA,NA,NA,NA,NA,NA,NA
SUPAMT00201,34PGFRQONUAET3WQXCZ5FZGGU2KWJS,BA3E692D-7698-4F9D-B8D7-A9ABD5BD51D5,2023-09-27_08h29.07.949,WP_VExplicitOC_LH,2022.2.5,Win32,16.45900884,51.25,3.797,2.1295,NA,NA,NA,NA,NA,bored,"bored, not bored","more bored, less bored",NA,NA,NA,NA,NA,NA,NA,NA,NA,NA,NA,NA,NA,NA,NA,0,1,1,2,1,NA,NA,NA,NA,NA,NA,NA,NA,NA,NA,NA,NA,NA,NA,NA,NA,NA,NA,NA,NA,NA,NA,NA,NA,NA,NA,NA,NA
SUPAMT00201,34PGFRQONUAET3WQXCZ5FZGGU2KWJS,BA3E692D-7698-4F9D-B8D7-A9ABD5BD51D5,2023-09-27_08h29.07.949,WP_VExplicitOC_LH,2022.2.5,Win32,16.45900884,53.25,3.6106,2.0533,NA,NA,NA,NA,NA,frustrated,"frustrated, not frustrated","more frustrated, less frustrated",NA,NA,NA,NA,NA,NA,NA,NA,NA,NA,NA,NA,NA,NA,NA,0,2,2,1,1,NA,NA,NA,NA,NA,NA,NA,NA,NA,NA,NA,NA,NA,NA,NA,NA,NA,NA,NA,NA,NA,NA,NA,NA,NA,NA,NA,NA
SUPAMT00201,34PGFRQONUAET3WQXCZ5FZGGU2KWJS,BA3E692D-7698-4F9D-B8D7-A9ABD5BD51D5,2023-09-27_08h29.07.949,WP_VExplicitOC_LH,2022.2.5,Win32,16.45900884,NA,NA,NA,NA,NA,NA,NA,NA,NA,NA,NA,NA,NA,NA,NA,NA,NA,NA,NA,NA,NA,NA,NA,NA,NA,NA,NA,NA,NA,NA,NA,14,0,14,0,1,NA,NA,NA,NA,NA,NA,NA,NA,NA,NA,NA,NA,NA,NA,NA,NA,NA,NA,NA,NA,NA,NA,NA
SUPAMT00201,34PGFRQONUAET3WQXCZ5FZGGU2KWJS,BA3E692D-7698-4F9D-B8D7-A9ABD5BD51D5,2023-09-27_08h29.07.949,WP_VExplicitOC_LH,2022.2.5,Win32,16.45900884,NA,NA,NA,NA,NA,NA,NA,NA,NA,NA,NA,NA,NA,NA,NA,NA,NA,NA,NA,NA,NA,NA,NA,NA,NA,NA,NA,NA,NA,NA,NA,NA,NA,NA,NA,NA,NA,NA,NA,NA,NA,NA,NA,NA,NA,NA,NA,NA,NA,NA,NA,NA,NA,NA,NA,NA,NA,NA,NA
SUPAMT00201,34PGFRQONUAET3WQXCZ5FZGGU2KWJS,BA3E692D-7698-4F9D-B8D7-A9ABD5BD51D5,2023-09-27_08h29.07.949,WP_VExplicitOC_LH,2022.2.5,Win32,16.45900884,NA,NA,NA,NA,NA,NA,NA,NA,NA,NA,NA,NA,NA,NA,NA,NA,NA,NA,NA,NA,NA,NA,NA,NA,NA,NA,NA,NA,NA,NA,NA,NA,NA,NA,NA,NA,NA,NA,NA,NA,NA,NA,NA,NA,NA,NA,NA,NA,NA,NA,NA,NA,NA,NA,NA,NA,NA,NA,NA
SUPAMT00201,34PGFRQONUAET3WQXCZ5FZGGU2KWJS,BA3E692D-7698-4F9D-B8D7-A9ABD5BD51D5,2023-09-27_08h29.07.949,WP_VExplicitOC_LH,2022.2.5,Win32,16.45900884,NA,NA,NA,NA,NA,NA,NA,NA,NA,NA,NA,NA,NA,NA,NA,NA,NA,NA,rest (looking at a fixed cross),001.png,NA,NA,NA,NA,NA,NA,NA,NA,NA,NA,NA,NA,NA,NA,NA,NA,-47,3.6436,0,0,0,0,1,NA,NA,NA,NA,NA,NA,NA,NA,NA,NA,NA,NA,NA,NA,NA,NA
SUPAMT00201,34PGFRQONUAET3WQXCZ5FZGGU2KWJS,BA3E692D-7698-4F9D-B8D7-A9ABD5BD51D5,2023-09-27_08h29.07.949,WP_VExplicitOC_LH,2022.2.5,Win32,16.45900884,NA,NA,NA,NA,NA,NA,NA,NA,NA,NA,NA,NA,NA,NA,NA,NA,NA,NA,stand up,002.png,NA,NA,NA,NA,NA,NA,NA,NA,NA,NA,NA,NA,NA,NA,NA,NA,44,1.6258,0,1,1,1,1,NA,NA,NA,NA,NA,NA,NA,NA,NA,NA,NA,NA,NA,NA,NA,NA
SUPAMT00201,34PGFRQONUAET3WQXCZ5FZGGU2KWJS,BA3E692D-7698-4F9D-B8D7-A9ABD5BD51D5,2023-09-27_08h29.07.949,WP_VExplicitOC_LH,2022.2.5,Win32,16.45900884,NA,NA,NA,NA,NA,NA,NA,NA,NA,NA,NA,NA,NA,NA,NA,NA,NA,NA,stretch,003.png,NA,NA,NA,NA,NA,NA,NA,NA,NA,NA,NA,NA,NA,NA,NA,NA,37,1.2572,0,2,2,2,1,NA,NA,NA,NA,NA,NA,NA,NA,NA,NA,NA,NA,NA,NA,NA,NA
SUPAMT00201,34PGFRQONUAET3WQXCZ5FZGGU2KWJS,BA3E692D-7698-4F9D-B8D7-A9ABD5BD51D5,2023-09-27_08h29.07.949,WP_VExplicitOC_LH,2022.2.5,Win32,16.45900884,NA,NA,NA,NA,NA,NA,NA,NA,NA,NA,NA,NA,NA,NA,NA,NA,NA,NA,make a drink,004.png,NA,NA,NA,NA,NA,NA,NA,NA,NA,NA,NA,NA,NA,NA,NA,NA,33,1.3565,0,3,3,3,1,NA,NA,NA,NA,NA,NA,NA,NA,NA,NA,NA,NA,NA,NA,NA,NA
SUPAMT00201,34PGFRQONUAET3WQXCZ5FZGGU2KWJS,BA3E692D-7698-4F9D-B8D7-A9ABD5BD51D5,2023-09-27_08h29.07.949,WP_VExplicitOC_LH,2022.2.5,Win32,16.45900884,NA,NA,NA,NA,NA,NA,NA,NA,NA,NA,NA,NA,NA,NA,NA,NA,NA,NA,scroll social media,005.png,NA,NA,NA,NA,NA,NA,NA,NA,NA,NA,NA,NA,NA,NA,NA,NA,32,1.1383,0,4,4,4,1,NA,NA,NA,NA,NA,NA,NA,NA,NA,NA,NA,NA,NA,NA,NA,NA
SUPAMT00201,34PGFRQONUAET3WQXCZ5FZGGU2KWJS,BA3E692D-7698-4F9D-B8D7-A9ABD5BD51D5,2023-09-27_08h29.07.949,WP_VExplicitOC_LH,2022.2.5,Win32,16.45900884,NA,NA,NA,NA,NA,NA,NA,NA,NA,NA,NA,NA,NA,NA,NA,NA,NA,NA,listen to music,006.png,NA,NA,NA,NA,NA,NA,NA,NA,NA,NA,NA,NA,NA,NA,NA,NA,47.5,1.1645,0,5,5,5,1,NA,NA,NA,NA,NA,NA,NA,NA,NA,NA,NA,NA,NA,NA,NA,NA
SUPAMT00201,34PGFRQONUAET3WQXCZ5FZGGU2KWJS,BA3E692D-7698-4F9D-B8D7-A9ABD5BD51D5,2023-09-27_08h29.07.949,WP_VExplicitOC_LH,2022.2.5,Win32,16.45900884,NA,NA,NA,NA,NA,NA,NA,NA,NA,NA,NA,NA,NA,NA,NA,NA,NA,NA,daydream,007.png,NA,NA,NA,NA,NA,NA,NA,NA,NA,NA,NA,NA,NA,NA,NA,NA,57,1.3517,0,6,6,6,1,NA,NA,NA,NA,NA,NA,NA,NA,NA,NA,NA,NA,NA,NA,NA,NA
SUPAMT00201,34PGFRQONUAET3WQXCZ5FZGGU2KWJS,BA3E692D-7698-4F9D-B8D7-A9ABD5BD51D5,2023-09-27_08h29.07.949,WP_VExplicitOC_LH,2022.2.5,Win32,16.45900884,NA,NA,NA,NA,NA,NA,NA,NA,NA,NA,NA,NA,NA,NA,NA,NA,NA,NA,watch a short animation,008.png,NA,NA,NA,NA,NA,NA,NA,NA,NA,NA,NA,NA,NA,NA,NA,NA,52.75,1.1439,0,7,7,7,1,NA,NA,NA,NA,NA,NA,NA,NA,NA,NA,NA,NA,NA,NA,NA,NA
SUPAMT00201,34PGFRQONUAET3WQXCZ5FZGGU2KWJS,BA3E692D-7698-4F9D-B8D7-A9ABD5BD51D5,2023-09-27_08h29.07.949,WP_VExplicitOC_LH,2022.2.5,Win32,16.45900884,NA,NA,NA,NA,NA,NA,NA,NA,NA,NA,NA,NA,NA,NA,NA,NA,NA,NA,read a novel,009.png,NA,NA,NA,NA,NA,NA,NA,NA,NA,NA,NA,NA,NA,NA,NA,NA,64,1.036,0,8,8,8,1,NA,NA,NA,NA,NA,NA,NA,NA,NA,NA,NA,NA,NA,NA,NA,NA
SUPAMT00201,34PGFRQONUAET3WQXCZ5FZGGU2KWJS,BA3E692D-7698-4F9D-B8D7-A9ABD5BD51D5,2023-09-27_08h29.07.949,WP_VExplicitOC_LH,2022.2.5,Win32,16.45900884,NA,NA,NA,NA,NA,NA,NA,NA,NA,NA,NA,NA,NA,NA,NA,NA,NA,NA,read the news,010.png,NA,NA,NA,NA,NA,NA,NA,NA,NA,NA,NA,NA,NA,NA,NA,NA,72.75,1.2013,0,9,9,9,1,NA,NA,NA,NA,NA,NA,NA,NA,NA,NA,NA,NA,NA,NA,NA,NA
SUPAMT00201,34PGFRQONUAET3WQXCZ5FZGGU2KWJS,BA3E692D-7698-4F9D-B8D7-A9ABD5BD51D5,2023-09-27_08h29.07.949,WP_VExplicitOC_LH,2022.2.5,Win32,16.45900884,NA,NA,NA,NA,NA,NA,NA,NA,NA,NA,NA,NA,NA,NA,NA,NA,NA,NA,NA,NA,NA,NA,NA,NA,NA,NA,NA,NA,NA,NA,NA,NA,NA,NA,NA,NA,NA,NA,NA,NA,NA,NA,NA,read the news,NA,NA,NA,NA,NA,NA,NA,NA,NA,NA,NA,NA,NA,NA,NA
SUPAMT00201,34PGFRQONUAET3WQXCZ5FZGGU2KWJS,BA3E692D-7698-4F9D-B8D7-A9ABD5BD51D5,2023-09-27_08h29.07.949,WP_VExplicitOC_LH,2022.2.5,Win32,16.45900884,56,3.6666,2.0243,NA,NA,NA,NA,NA,happy,"unhappy, happy","less happy, more happy",NA,NA,NA,NA,NA,NA,NA,NA,NA,NA,NA,NA,NA,NA,NA,NA,NA,NA,NA,NA,NA,NA,NA,NA,NA,NA,NA,NA,NA,NA,NA,NA,NA,0,0,0,0,1,NA,NA,NA,NA,NA,NA,NA,NA,NA,NA
SUPAMT00201,34PGFRQONUAET3WQXCZ5FZGGU2KWJS,BA3E692D-7698-4F9D-B8D7-A9ABD5BD51D5,2023-09-27_08h29.07.949,WP_VExplicitOC_LH,2022.2.5,Win32,16.45900884,49.25,3.1376,2.0015,NA,NA,NA,NA,NA,bored,"bored, not bored","more bored, less bored",NA,NA,NA,NA,NA,NA,NA,NA,NA,NA,NA,NA,NA,NA,NA,NA,NA,NA,NA,NA,NA,NA,NA,NA,NA,NA,NA,NA,NA,NA,NA,NA,NA,0,1,1,2,1,NA,NA,NA,NA,NA,NA,NA,NA,NA,NA
SUPAMT00201,34PGFRQONUAET3WQXCZ5FZGGU2KWJS,BA3E692D-7698-4F9D-B8D7-A9ABD5BD51D5,2023-09-27_08h29.07.949,WP_VExplicitOC_LH,2022.2.5,Win32,16.45900884,55.5,3.2778,2.0145,NA,NA,NA,NA,NA,frustrated,"frustrated, not frustrated","more frustrated, less frustrated",NA,NA,NA,NA,NA,NA,NA,NA,NA,NA,NA,NA,NA,NA,NA,NA,NA,NA,NA,NA,NA,NA,NA,NA,NA,NA,NA,NA,NA,NA,NA,NA,NA,0,2,2,1,1,NA,NA,NA,NA,NA,NA,NA,NA,NA,NA
SUPAMT00201,34PGFRQONUAET3WQXCZ5FZGGU2KWJS,BA3E692D-7698-4F9D-B8D7-A9ABD5BD51D5,2023-09-27_08h29.07.949,WP_VExplicitOC_LH,2022.2.5,Win32,16.45900884,NA,NA,NA,NA,NA,NA,NA,NA,NA,NA,NA,NA,NA,NA,NA,NA,NA,NA,NA,NA,NA,NA,NA,NA,NA,NA,NA,NA,NA,NA,NA,NA,NA,NA,NA,NA,NA,NA,NA,NA,NA,NA,NA,NA,NA,NA,NA,NA,NA,NA,NA,NA,NA,NA,NA,NA,NA,NA,NA
SUPAMT00201,34PGFRQONUAET3WQXCZ5FZGGU2KWJS,BA3E692D-7698-4F9D-B8D7-A9ABD5BD51D5,2023-09-27_08h29.07.949,WP_VExplicitOC_LH,2022.2.5,Win32,16.45900884,NA,NA,NA,NA,NA,NA,NA,NA,NA,NA,NA,NA,NA,NA,NA,NA,NA,NA,NA,NA,NA,NA,NA,NA,NA,NA,NA,NA,NA,NA,NA,NA,NA,NA,NA,NA,NA,NA,NA,NA,NA,NA,NA,NA,NA,NA,NA,NA,NA,NA,NA,NA,NA,NA,NA,NA,NA,NA,NA
SUPAMT00201,34PGFRQONUAET3WQXCZ5FZGGU2KWJS,BA3E692D-7698-4F9D-B8D7-A9ABD5BD51D5,2023-09-27_08h29.07.949,WP_VExplicitOC_LH,2022.2.5,Win32,16.45900884,50.25,3.3324,2.0195,NA,NA,NA,NA,NA,happy,"unhappy, happy","less happy, more happy",NA,NA,NA,NA,NA,NA,NA,NA,NA,NA,NA,NA,NA,NA,NA,NA,NA,NA,NA,NA,NA,NA,NA,NA,NA,NA,NA,NA,NA,NA,NA,NA,NA,NA,NA,NA,NA,NA,0,0,0,0,1,NA,NA,NA,NA,NA
SUPAMT00201,34PGFRQONUAET3WQXCZ5FZGGU2KWJS,BA3E692D-7698-4F9D-B8D7-A9ABD5BD51D5,2023-09-27_08h29.07.949,WP_VExplicitOC_LH,2022.2.5,Win32,16.45900884,51.5,3.4061,2.05,NA,NA,NA,NA,NA,frustrated,"frustrated, not frustrated","more frustrated, less frustrated",NA,NA,NA,NA,NA,NA,NA,NA,NA,NA,NA,NA,NA,NA,NA,NA,NA,NA,NA,NA,NA,NA,NA,NA,NA,NA,NA,NA,NA,NA,NA,NA,NA,NA,NA,NA,NA,NA,0,1,1,1,1,NA,NA,NA,NA,NA
SUPAMT00201,34PGFRQONUAET3WQXCZ5FZGGU2KWJS,BA3E692D-7698-4F9D-B8D7-A9ABD5BD51D5,2023-09-27_08h29.07.949,WP_VExplicitOC_LH,2022.2.5,Win32,16.45900884,62.5,3.9468,2.1364,NA,NA,NA,NA,NA,bored,"bored, not bored","more bored, less bored",NA,NA,NA,NA,NA,NA,NA,NA,NA,NA,NA,NA,NA,NA,NA,NA,NA,NA,NA,NA,NA,NA,NA,NA,NA,NA,NA,NA,NA,NA,NA,NA,NA,NA,NA,NA,NA,NA,0,2,2,2,1,NA,NA,NA,NA,NA
SUPAMT00201,34PGFRQONUAET3WQXCZ5FZGGU2KWJS,BA3E692D-7698-4F9D-B8D7-A9ABD5BD51D5,2023-09-27_08h29.07.949,WP_VExplicitOC_LH,2022.2.5,Win32,16.45900884,NA,NA,NA,NA,NA,NA,NA,NA,NA,NA,NA,NA,NA,NA,NA,NA,NA,NA,NA,NA,NA,NA,NA,NA,NA,NA,NA,NA,NA,NA,NA,NA,NA,NA,NA,NA,NA,NA,NA,NA,NA,NA,NA,NA,NA,NA,NA,NA,NA,NA,NA,NA,NA,NA,0,0,0,0,1
SUPAMT00201,34PGFRQONUAET3WQXCZ5FZGGU2KWJS,BA3E692D-7698-4F9D-B8D7-A9ABD5BD51D5,2023-09-27_08h29.07.949,WP_VExplicitOC_LH,2022.2.5,Win32,16.45900884,51,3.497,2.0289,NA,NA,NA,NA,NA,frustrated,"frustrated, not frustrated","more frustrated, less frustrated",NA,NA,NA,NA,NA,NA,NA,NA,NA,NA,NA,NA,NA,NA,NA,NA,NA,NA,NA,NA,NA,NA,NA,NA,NA,NA,NA,NA,NA,NA,NA,NA,NA,NA,NA,NA,NA,NA,0,0,0,1,1,NA,NA,NA,NA,NA
SUPAMT00201,34PGFRQONUAET3WQXCZ5FZGGU2KWJS,BA3E692D-7698-4F9D-B8D7-A9ABD5BD51D5,2023-09-27_08h29.07.949,WP_VExplicitOC_LH,2022.2.5,Win32,16.45900884,54,3.582,2.0998,NA,NA,NA,NA,NA,bored,"bored, not bored","more bored, less bored",NA,NA,NA,NA,NA,NA,NA,NA,NA,NA,NA,NA,NA,NA,NA,NA,NA,NA,NA,NA,NA,NA,NA,NA,NA,NA,NA,NA,NA,NA,NA,NA,NA,NA,NA,NA,NA,NA,0,1,1,2,1,NA,NA,NA,NA,NA
SUPAMT00201,34PGFRQONUAET3WQXCZ5FZGGU2KWJS,BA3E692D-7698-4F9D-B8D7-A9ABD5BD51D5,2023-09-27_08h29.07.949,WP_VExplicitOC_LH,2022.2.5,Win32,16.45900884,51.75,3.236,2.0059,NA,NA,NA,NA,NA,happy,"unhappy, happy","less happy, more happy",NA,NA,NA,NA,NA,NA,NA,NA,NA,NA,NA,NA,NA,NA,NA,NA,NA,NA,NA,NA,NA,NA,NA,NA,NA,NA,NA,NA,NA,NA,NA,NA,NA,NA,NA,NA,NA,NA,0,2,2,0,1,NA,NA,NA,NA,NA
SUPAMT00201,34PGFRQONUAET3WQXCZ5FZGGU2KWJS,BA3E692D-7698-4F9D-B8D7-A9ABD5BD51D5,2023-09-27_08h29.07.949,WP_VExplicitOC_LH,2022.2.5,Win32,16.45900884,NA,NA,NA,NA,NA,NA,NA,NA,NA,NA,NA,NA,NA,NA,NA,NA,NA,NA,NA,NA,NA,NA,NA,NA,NA,NA,NA,NA,NA,NA,NA,NA,NA,NA,NA,NA,NA,NA,NA,NA,NA,NA,NA,NA,NA,NA,NA,NA,NA,NA,NA,NA,NA,NA,1,0,1,0,1
SUPAMT00201,34PGFRQONUAET3WQXCZ5FZGGU2KWJS,BA3E692D-7698-4F9D-B8D7-A9ABD5BD51D5,2023-09-27_08h29.07.949,WP_VExplicitOC_LH,2022.2.5,Win32,16.45900884,21.25,5.9043,2.1092,NA,NA,NA,NA,NA,bored,"bored, not bored","more bored, less bored",NA,NA,NA,NA,NA,NA,NA,NA,NA,NA,NA,NA,NA,NA,NA,NA,NA,NA,NA,NA,NA,NA,NA,NA,NA,NA,NA,NA,NA,NA,NA,NA,NA,NA,NA,NA,NA,NA,0,0,0,2,1,NA,NA,NA,NA,NA
SUPAMT00201,34PGFRQONUAET3WQXCZ5FZGGU2KWJS,BA3E692D-7698-4F9D-B8D7-A9ABD5BD51D5,2023-09-27_08h29.07.949,WP_VExplicitOC_LH,2022.2.5,Win32,16.45900884,NA,NA,2.1359,NA,NA,NA,NA,NA,happy,"unhappy, happy","less happy, more happy",NA,NA,NA,NA,NA,NA,NA,NA,NA,NA,NA,NA,NA,NA,NA,NA,NA,NA,NA,NA,NA,NA,NA,NA,NA,NA,NA,NA,NA,NA,NA,NA,NA,NA,NA,NA,NA,NA,0,1,1,0,1,NA,NA,NA,NA,NA
SUPAMT00201,34PGFRQONUAET3WQXCZ5FZGGU2KWJS,BA3E692D-7698-4F9D-B8D7-A9ABD5BD51D5,2023-09-27_08h29.07.949,WP_VExplicitOC_LH,2022.2.5,Win32,16.45900884,25.25,3.5849,2.0869,NA,NA,NA,NA,NA,frustrated,"frustrated, not frustrated","more frustrated, less frustrated",NA,NA,NA,NA,NA,NA,NA,NA,NA,NA,NA,NA,NA,NA,NA,NA,NA,NA,NA,NA,NA,NA,NA,NA,NA,NA,NA,NA,NA,NA,NA,NA,NA,NA,NA,NA,NA,NA,0,2,2,1,1,NA,NA,NA,NA,NA
SUPAMT00201,34PGFRQONUAET3WQXCZ5FZGGU2KWJS,BA3E692D-7698-4F9D-B8D7-A9ABD5BD51D5,2023-09-27_08h29.07.949,WP_VExplicitOC_LH,2022.2.5,Win32,16.45900884,NA,NA,NA,NA,NA,NA,NA,NA,NA,NA,NA,NA,NA,NA,NA,NA,NA,NA,NA,NA,NA,NA,NA,NA,NA,NA,NA,NA,NA,NA,NA,NA,NA,NA,NA,NA,NA,NA,NA,NA,NA,NA,NA,NA,NA,NA,NA,NA,NA,NA,NA,NA,NA,NA,2,0,2,0,1
SUPAMT00201,34PGFRQONUAET3WQXCZ5FZGGU2KWJS,BA3E692D-7698-4F9D-B8D7-A9ABD5BD51D5,2023-09-27_08h29.07.949,WP_VExplicitOC_LH,2022.2.5,Win32,16.45900884,39.75,4.2326,2.0524,NA,NA,NA,NA,NA,bored,"bored, not bored","more bored, less bored",NA,NA,NA,NA,NA,NA,NA,NA,NA,NA,NA,NA,NA,NA,NA,NA,NA,NA,NA,NA,NA,NA,NA,NA,NA,NA,NA,NA,NA,NA,NA,NA,NA,NA,NA,NA,NA,NA,0,0,0,2,1,NA,NA,NA,NA,NA
SUPAMT00201,34PGFRQONUAET3WQXCZ5FZGGU2KWJS,BA3E692D-7698-4F9D-B8D7-A9ABD5BD51D5,2023-09-27_08h29.07.949,WP_VExplicitOC_LH,2022.2.5,Win32,16.45900884,36.75,3.6492,2.1105,NA,NA,NA,NA,NA,frustrated,"frustrated, not frustrated","more frustrated, less frustrated",NA,NA,NA,NA,NA,NA,NA,NA,NA,NA,NA,NA,NA,NA,NA,NA,NA,NA,NA,NA,NA,NA,NA,NA,NA,NA,NA,NA,NA,NA,NA,NA,NA,NA,NA,NA,NA,NA,0,1,1,1,1,NA,NA,NA,NA,NA
SUPAMT00201,34PGFRQONUAET3WQXCZ5FZGGU2KWJS,BA3E692D-7698-4F9D-B8D7-A9ABD5BD51D5,2023-09-27_08h29.07.949,WP_VExplicitOC_LH,2022.2.5,Win32,16.45900884,52.75,3.8386,2.0124,NA,NA,NA,NA,NA,happy,"unhappy, happy","less happy, more happy",NA,NA,NA,NA,NA,NA,NA,NA,NA,NA,NA,NA,NA,NA,NA,NA,NA,NA,NA,NA,NA,NA,NA,NA,NA,NA,NA,NA,NA,NA,NA,NA,NA,NA,NA,NA,NA,NA,0,2,2,0,1,NA,NA,NA,NA,NA
SUPAMT00201,34PGFRQONUAET3WQXCZ5FZGGU2KWJS,BA3E692D-7698-4F9D-B8D7-A9ABD5BD51D5,2023-09-27_08h29.07.949,WP_VExplicitOC_LH,2022.2.5,Win32,16.45900884,NA,NA,NA,NA,NA,NA,NA,NA,NA,NA,NA,NA,NA,NA,NA,NA,NA,NA,NA,NA,NA,NA,NA,NA,NA,NA,NA,NA,NA,NA,NA,NA,NA,NA,NA,NA,NA,NA,NA,NA,NA,NA,NA,NA,NA,NA,NA,NA,NA,NA,NA,NA,NA,NA,3,0,3,0,1
SUPAMT00201,34PGFRQONUAET3WQXCZ5FZGGU2KWJS,BA3E692D-7698-4F9D-B8D7-A9ABD5BD51D5,2023-09-27_08h29.07.949,WP_VExplicitOC_LH,2022.2.5,Win32,16.45900884,46.25,3.7858,2.0455,NA,NA,NA,NA,NA,bored,"bored, not bored","more bored, less bored",NA,NA,NA,NA,NA,NA,NA,NA,NA,NA,NA,NA,NA,NA,NA,NA,NA,NA,NA,NA,NA,NA,NA,NA,NA,NA,NA,NA,NA,NA,NA,NA,NA,NA,NA,NA,NA,NA,0,0,0,2,1,NA,NA,NA,NA,NA
SUPAMT00201,34PGFRQONUAET3WQXCZ5FZGGU2KWJS,BA3E692D-7698-4F9D-B8D7-A9ABD5BD51D5,2023-09-27_08h29.07.949,WP_VExplicitOC_LH,2022.2.5,Win32,16.45900884,52.25,3.8302,2.0899,NA,NA,NA,NA,NA,frustrated,"frustrated, not frustrated","more frustrated, less frustrated",NA,NA,NA,NA,NA,NA,NA,NA,NA,NA,NA,NA,NA,NA,NA,NA,NA,NA,NA,NA,NA,NA,NA,NA,NA,NA,NA,NA,NA,NA,NA,NA,NA,NA,NA,NA,NA,NA,0,1,1,1,1,NA,NA,NA,NA,NA
SUPAMT00201,34PGFRQONUAET3WQXCZ5FZGGU2KWJS,BA3E692D-7698-4F9D-B8D7-A9ABD5BD51D5,2023-09-27_08h29.07.949,WP_VExplicitOC_LH,2022.2.5,Win32,16.45900884,59.75,3.8919,2.0521,NA,NA,NA,NA,NA,happy,"unhappy, happy","less happy, more happy",NA,NA,NA,NA,NA,NA,NA,NA,NA,NA,NA,NA,NA,NA,NA,NA,NA,NA,NA,NA,NA,NA,NA,NA,NA,NA,NA,NA,NA,NA,NA,NA,NA,NA,NA,NA,NA,NA,0,2,2,0,1,NA,NA,NA,NA,NA
SUPAMT00201,34PGFRQONUAET3WQXCZ5FZGGU2KWJS,BA3E692D-7698-4F9D-B8D7-A9ABD5BD51D5,2023-09-27_08h29.07.949,WP_VExplicitOC_LH,2022.2.5,Win32,16.45900884,NA,NA,NA,NA,NA,NA,NA,NA,NA,NA,NA,NA,NA,NA,NA,NA,NA,NA,NA,NA,NA,NA,NA,NA,NA,NA,NA,NA,NA,NA,NA,NA,NA,NA,NA,NA,NA,NA,NA,NA,NA,NA,NA,NA,NA,NA,NA,NA,NA,NA,NA,NA,NA,NA,4,0,4,0,1
SUPAMT00201,34PGFRQONUAET3WQXCZ5FZGGU2KWJS,BA3E692D-7698-4F9D-B8D7-A9ABD5BD51D5,2023-09-27_08h29.07.949,WP_VExplicitOC_LH,2022.2.5,Win32,16.45900884,22.5,4.9845,2.0939,NA,NA,NA,NA,NA,happy,"unhappy, happy","less happy, more happy",NA,NA,NA,NA,NA,NA,NA,NA,NA,NA,NA,NA,NA,NA,NA,NA,NA,NA,NA,NA,NA,NA,NA,NA,NA,NA,NA,NA,NA,NA,NA,NA,NA,NA,NA,NA,NA,NA,0,0,0,0,1,NA,NA,NA,NA,NA
SUPAMT00201,34PGFRQONUAET3WQXCZ5FZGGU2KWJS,BA3E692D-7698-4F9D-B8D7-A9ABD5BD51D5,2023-09-27_08h29.07.949,WP_VExplicitOC_LH,2022.2.5,Win32,16.45900884,70,4.0052,2.0901,NA,NA,NA,NA,NA,frustrated,"frustrated, not frustrated","more frustrated, less frustrated",NA,NA,NA,NA,NA,NA,NA,NA,NA,NA,NA,NA,NA,NA,NA,NA,NA,NA,NA,NA,NA,NA,NA,NA,NA,NA,NA,NA,NA,NA,NA,NA,NA,NA,NA,NA,NA,NA,0,1,1,1,1,NA,NA,NA,NA,NA
SUPAMT00201,34PGFRQONUAET3WQXCZ5FZGGU2KWJS,BA3E692D-7698-4F9D-B8D7-A9ABD5BD51D5,2023-09-27_08h29.07.949,WP_VExplicitOC_LH,2022.2.5,Win32,16.45900884,38.5,3.5687,2.0165,NA,NA,NA,NA,NA,bored,"bored, not bored","more bored, less bored",NA,NA,NA,NA,NA,NA,NA,NA,NA,NA,NA,NA,NA,NA,NA,NA,NA,NA,NA,NA,NA,NA,NA,NA,NA,NA,NA,NA,NA,NA,NA,NA,NA,NA,NA,NA,NA,NA,0,2,2,2,1,NA,NA,NA,NA,NA
SUPAMT00201,34PGFRQONUAET3WQXCZ5FZGGU2KWJS,BA3E692D-7698-4F9D-B8D7-A9ABD5BD51D5,2023-09-27_08h29.07.949,WP_VExplicitOC_LH,2022.2.5,Win32,16.45900884,NA,NA,NA,NA,NA,NA,NA,NA,NA,NA,NA,NA,NA,NA,NA,NA,NA,NA,NA,NA,NA,NA,NA,NA,NA,NA,NA,NA,NA,NA,NA,NA,NA,NA,NA,NA,NA,NA,NA,NA,NA,NA,NA,NA,NA,NA,NA,NA,NA,NA,NA,NA,NA,NA,5,0,5,0,1
SUPAMT00201,34PGFRQONUAET3WQXCZ5FZGGU2KWJS,BA3E692D-7698-4F9D-B8D7-A9ABD5BD51D5,2023-09-27_08h29.07.949,WP_VExplicitOC_LH,2022.2.5,Win32,16.45900884,34.25,3.9503,2.0813,NA,NA,NA,NA,NA,frustrated,"frustrated, not frustrated","more frustrated, less frustrated",NA,NA,NA,NA,NA,NA,NA,NA,NA,NA,NA,NA,NA,NA,NA,NA,NA,NA,NA,NA,NA,NA,NA,NA,NA,NA,NA,NA,NA,NA,NA,NA,NA,NA,NA,NA,NA,NA,0,0,0,1,1,NA,NA,NA,NA,NA
SUPAMT00201,34PGFRQONUAET3WQXCZ5FZGGU2KWJS,BA3E692D-7698-4F9D-B8D7-A9ABD5BD51D5,2023-09-27_08h29.07.949,WP_VExplicitOC_LH,2022.2.5,Win32,16.45900884,26.5,4.6466,2.0875,NA,NA,NA,NA,NA,happy,"unhappy, happy","less happy, more happy",NA,NA,NA,NA,NA,NA,NA,NA,NA,NA,NA,NA,NA,NA,NA,NA,NA,NA,NA,NA,NA,NA,NA,NA,NA,NA,NA,NA,NA,NA,NA,NA,NA,NA,NA,NA,NA,NA,0,1,1,0,1,NA,NA,NA,NA,NA
SUPAMT00201,34PGFRQONUAET3WQXCZ5FZGGU2KWJS,BA3E692D-7698-4F9D-B8D7-A9ABD5BD51D5,2023-09-27_08h29.07.949,WP_VExplicitOC_LH,2022.2.5,Win32,16.45900884,NA,NA,2.1037,NA,NA,NA,NA,NA,bored,"bored, not bored","more bored, less bored",NA,NA,NA,NA,NA,NA,NA,NA,NA,NA,NA,NA,NA,NA,NA,NA,NA,NA,NA,NA,NA,NA,NA,NA,NA,NA,NA,NA,NA,NA,NA,NA,NA,NA,NA,NA,NA,NA,0,2,2,2,1,NA,NA,NA,NA,NA
SUPAMT00201,34PGFRQONUAET3WQXCZ5FZGGU2KWJS,BA3E692D-7698-4F9D-B8D7-A9ABD5BD51D5,2023-09-27_08h29.07.949,WP_VExplicitOC_LH,2022.2.5,Win32,16.45900884,NA,NA,NA,NA,NA,NA,NA,NA,NA,NA,NA,NA,NA,NA,NA,NA,NA,NA,NA,NA,NA,NA,NA,NA,NA,NA,NA,NA,NA,NA,NA,NA,NA,NA,NA,NA,NA,NA,NA,NA,NA,NA,NA,NA,NA,NA,NA,NA,NA,NA,NA,NA,NA,NA,6,0,6,0,1
SUPAMT00201,34PGFRQONUAET3WQXCZ5FZGGU2KWJS,BA3E692D-7698-4F9D-B8D7-A9ABD5BD51D5,2023-09-27_08h29.07.949,WP_VExplicitOC_LH,2022.2.5,Win32,16.45900884,45.25,6.142,2.0743,NA,NA,NA,NA,NA,bored,"bored, not bored","more bored, less bored",NA,NA,NA,NA,NA,NA,NA,NA,NA,NA,NA,NA,NA,NA,NA,NA,NA,NA,NA,NA,NA,NA,NA,NA,NA,NA,NA,NA,NA,NA,NA,NA,NA,NA,NA,NA,NA,NA,0,0,0,2,1,NA,NA,NA,NA,NA
SUPAMT00201,34PGFRQONUAET3WQXCZ5FZGGU2KWJS,BA3E692D-7698-4F9D-B8D7-A9ABD5BD51D5,2023-09-27_08h29.07.949,WP_VExplicitOC_LH,2022.2.5,Win32,16.45900884,61.5,3.5675,2.0606,NA,NA,NA,NA,NA,frustrated,"frustrated, not frustrated","more frustrated, less frustrated",NA,NA,NA,NA,NA,NA,NA,NA,NA,NA,NA,NA,NA,NA,NA,NA,NA,NA,NA,NA,NA,NA,NA,NA,NA,NA,NA,NA,NA,NA,NA,NA,NA,NA,NA,NA,NA,NA,0,1,1,1,1,NA,NA,NA,NA,NA
SUPAMT00201,34PGFRQONUAET3WQXCZ5FZGGU2KWJS,BA3E692D-7698-4F9D-B8D7-A9ABD5BD51D5,2023-09-27_08h29.07.949,WP_VExplicitOC_LH,2022.2.5,Win32,16.45900884,49.25,3.5704,2.1026,NA,NA,NA,NA,NA,happy,"unhappy, happy","less happy, more happy",NA,NA,NA,NA,NA,NA,NA,NA,NA,NA,NA,NA,NA,NA,NA,NA,NA,NA,NA,NA,NA,NA,NA,NA,NA,NA,NA,NA,NA,NA,NA,NA,NA,NA,NA,NA,NA,NA,0,2,2,0,1,NA,NA,NA,NA,NA
SUPAMT00201,34PGFRQONUAET3WQXCZ5FZGGU2KWJS,BA3E692D-7698-4F9D-B8D7-A9ABD5BD51D5,2023-09-27_08h29.07.949,WP_VExplicitOC_LH,2022.2.5,Win32,16.45900884,NA,NA,NA,NA,NA,NA,NA,NA,NA,NA,NA,NA,NA,NA,NA,NA,NA,NA,NA,NA,NA,NA,NA,NA,NA,NA,NA,NA,NA,NA,NA,NA,NA,NA,NA,NA,NA,NA,NA,NA,NA,NA,NA,NA,NA,NA,NA,NA,NA,NA,NA,NA,NA,NA,7,0,7,0,1
SUPAMT00201,34PGFRQONUAET3WQXCZ5FZGGU2KWJS,BA3E692D-7698-4F9D-B8D7-A9ABD5BD51D5,2023-09-27_08h29.07.949,WP_VExplicitOC_LH,2022.2.5,Win32,16.45900884,36.5,3.7274,2.0105,NA,NA,NA,NA,NA,bored,"bored, not bored","more bored, less bored",NA,NA,NA,NA,NA,NA,NA,NA,NA,NA,NA,NA,NA,NA,NA,NA,NA,NA,NA,NA,NA,NA,NA,NA,NA,NA,NA,NA,NA,NA,NA,NA,NA,NA,NA,NA,NA,NA,0,0,0,2,1,NA,NA,NA,NA,NA
SUPAMT00201,34PGFRQONUAET3WQXCZ5FZGGU2KWJS,BA3E692D-7698-4F9D-B8D7-A9ABD5BD51D5,2023-09-27_08h29.07.949,WP_VExplicitOC_LH,2022.2.5,Win32,16.45900884,55.25,3.3824,2.0839,NA,NA,NA,NA,NA,frustrated,"frustrated, not frustrated","more frustrated, less frustrated",NA,NA,NA,NA,NA,NA,NA,NA,NA,NA,NA,NA,NA,NA,NA,NA,NA,NA,NA,NA,NA,NA,NA,NA,NA,NA,NA,NA,NA,NA,NA,NA,NA,NA,NA,NA,NA,NA,0,1,1,1,1,NA,NA,NA,NA,NA
SUPAMT00201,34PGFRQONUAET3WQXCZ5FZGGU2KWJS,BA3E692D-7698-4F9D-B8D7-A9ABD5BD51D5,2023-09-27_08h29.07.949,WP_VExplicitOC_LH,2022.2.5,Win32,16.45900884,40,3.3958,2.0576,NA,NA,NA,NA,NA,happy,"unhappy, happy","less happy, more happy",NA,NA,NA,NA,NA,NA,NA,NA,NA,NA,NA,NA,NA,NA,NA,NA,NA,NA,NA,NA,NA,NA,NA,NA,NA,NA,NA,NA,NA,NA,NA,NA,NA,NA,NA,NA,NA,NA,0,2,2,0,1,NA,NA,NA,NA,NA
SUPAMT00201,34PGFRQONUAET3WQXCZ5FZGGU2KWJS,BA3E692D-7698-4F9D-B8D7-A9ABD5BD51D5,2023-09-27_08h29.07.949,WP_VExplicitOC_LH,2022.2.5,Win32,16.45900884,NA,NA,NA,NA,NA,NA,NA,NA,NA,NA,NA,NA,NA,NA,NA,NA,NA,NA,NA,NA,NA,NA,NA,NA,NA,NA,NA,NA,NA,NA,NA,NA,NA,NA,NA,NA,NA,NA,NA,NA,NA,NA,NA,NA,NA,NA,NA,NA,NA,NA,NA,NA,NA,NA,8,0,8,0,1
SUPAMT00201,34PGFRQONUAET3WQXCZ5FZGGU2KWJS,BA3E692D-7698-4F9D-B8D7-A9ABD5BD51D5,2023-09-27_08h29.07.949,WP_VExplicitOC_LH,2022.2.5,Win32,16.45900884,52.25,3.5994,2.0756,NA,NA,NA,NA,NA,happy,"unhappy, happy","less happy, more happy",NA,NA,NA,NA,NA,NA,NA,NA,NA,NA,NA,NA,NA,NA,NA,NA,NA,NA,NA,NA,NA,NA,NA,NA,NA,NA,NA,NA,NA,NA,NA,NA,NA,NA,NA,NA,NA,NA,0,0,0,0,1,NA,NA,NA,NA,NA
SUPAMT00201,34PGFRQONUAET3WQXCZ5FZGGU2KWJS,BA3E692D-7698-4F9D-B8D7-A9ABD5BD51D5,2023-09-27_08h29.07.949,WP_VExplicitOC_LH,2022.2.5,Win32,16.45900884,43.25,3.7424,2.0041,NA,NA,NA,NA,NA,bored,"bored, not bored","more bored, less bored",NA,NA,NA,NA,NA,NA,NA,NA,NA,NA,NA,NA,NA,NA,NA,NA,NA,NA,NA,NA,NA,NA,NA,NA,NA,NA,NA,NA,NA,NA,NA,NA,NA,NA,NA,NA,NA,NA,0,1,1,2,1,NA,NA,NA,NA,NA
SUPAMT00201,34PGFRQONUAET3WQXCZ5FZGGU2KWJS,BA3E692D-7698-4F9D-B8D7-A9ABD5BD51D5,2023-09-27_08h29.07.949,WP_VExplicitOC_LH,2022.2.5,Win32,16.45900884,47,4.2655,2.1203,NA,NA,NA,NA,NA,frustrated,"frustrated, not frustrated","more frustrated, less frustrated",NA,NA,NA,NA,NA,NA,NA,NA,NA,NA,NA,NA,NA,NA,NA,NA,NA,NA,NA,NA,NA,NA,NA,NA,NA,NA,NA,NA,NA,NA,NA,NA,NA,NA,NA,NA,NA,NA,0,2,2,1,1,NA,NA,NA,NA,NA
SUPAMT00201,34PGFRQONUAET3WQXCZ5FZGGU2KWJS,BA3E692D-7698-4F9D-B8D7-A9ABD5BD51D5,2023-09-27_08h29.07.949,WP_VExplicitOC_LH,2022.2.5,Win32,16.45900884,NA,NA,NA,NA,NA,NA,NA,NA,NA,NA,NA,NA,NA,NA,NA,NA,NA,NA,NA,NA,NA,NA,NA,NA,NA,NA,NA,NA,NA,NA,NA,NA,NA,NA,NA,NA,NA,NA,NA,NA,NA,NA,NA,NA,NA,NA,NA,NA,NA,NA,NA,NA,NA,NA,9,0,9,0,1
SUPAMT00201,34PGFRQONUAET3WQXCZ5FZGGU2KWJS,BA3E692D-7698-4F9D-B8D7-A9ABD5BD51D5,2023-09-27_08h29.07.949,WP_VExplicitOC_LH,2022.2.5,Win32,16.45900884,NA,NA,2.1524,NA,NA,NA,NA,NA,bored,"bored, not bored","more bored, less bored",NA,NA,NA,NA,NA,NA,NA,NA,NA,NA,NA,NA,NA,NA,NA,NA,NA,NA,NA,NA,NA,NA,NA,NA,NA,NA,NA,NA,NA,NA,NA,NA,NA,NA,NA,NA,NA,NA,0,0,0,2,1,NA,NA,NA,NA,NA
SUPAMT00201,34PGFRQONUAET3WQXCZ5FZGGU2KWJS,BA3E692D-7698-4F9D-B8D7-A9ABD5BD51D5,2023-09-27_08h29.07.949,WP_VExplicitOC_LH,2022.2.5,Win32,16.45900884,31,3.7954,2.0554,NA,NA,NA,NA,NA,frustrated,"frustrated, not frustrated","more frustrated, less frustrated",NA,NA,NA,NA,NA,NA,NA,NA,NA,NA,NA,NA,NA,NA,NA,NA,NA,NA,NA,NA,NA,NA,NA,NA,NA,NA,NA,NA,NA,NA,NA,NA,NA,NA,NA,NA,NA,NA,0,1,1,1,1,NA,NA,NA,NA,NA
SUPAMT00201,34PGFRQONUAET3WQXCZ5FZGGU2KWJS,BA3E692D-7698-4F9D-B8D7-A9ABD5BD51D5,2023-09-27_08h29.07.949,WP_VExplicitOC_LH,2022.2.5,Win32,16.45900884,36.25,3.8575,2.0786,NA,NA,NA,NA,NA,happy,"unhappy, happy","less happy, more happy",NA,NA,NA,NA,NA,NA,NA,NA,NA,NA,NA,NA,NA,NA,NA,NA,NA,NA,NA,NA,NA,NA,NA,NA,NA,NA,NA,NA,NA,NA,NA,NA,NA,NA,NA,NA,NA,NA,0,2,2,0,1,NA,NA,NA,NA,NA
SUPAMT00201,34PGFRQONUAET3WQXCZ5FZGGU2KWJS,BA3E692D-7698-4F9D-B8D7-A9ABD5BD51D5,2023-09-27_08h29.07.949,WP_VExplicitOC_LH,2022.2.5,Win32,16.45900884,NA,NA,NA,NA,NA,NA,NA,NA,NA,NA,NA,NA,NA,NA,NA,NA,NA,NA,NA,NA,NA,NA,NA,NA,NA,NA,NA,NA,NA,NA,NA,NA,NA,NA,NA,NA,NA,NA,NA,NA,NA,NA,NA,NA,NA,NA,NA,NA,NA,NA,NA,NA,NA,NA,10,0,10,0,1
SUPAMT00201,34PGFRQONUAET3WQXCZ5FZGGU2KWJS,BA3E692D-7698-4F9D-B8D7-A9ABD5BD51D5,2023-09-27_08h29.07.949,WP_VExplicitOC_LH,2022.2.5,Win32,16.45900884,NA,NA,2.0347,NA,NA,NA,NA,NA,bored,"bored, not bored","more bored, less bored",NA,NA,NA,NA,NA,NA,NA,NA,NA,NA,NA,NA,NA,NA,NA,NA,NA,NA,NA,NA,NA,NA,NA,NA,NA,NA,NA,NA,NA,NA,NA,NA,NA,NA,NA,NA,NA,NA,0,0,0,2,1,NA,NA,NA,NA,NA
SUPAMT00201,34PGFRQONUAET3WQXCZ5FZGGU2KWJS,BA3E692D-7698-4F9D-B8D7-A9ABD5BD51D5,2023-09-27_08h29.07.949,WP_VExplicitOC_LH,2022.2.5,Win32,16.45900884,41.25,3.6717,2.0374,NA,NA,NA,NA,NA,frustrated,"frustrated, not frustrated","more frustrated, less frustrated",NA,NA,NA,NA,NA,NA,NA,NA,NA,NA,NA,NA,NA,NA,NA,NA,NA,NA,NA,NA,NA,NA,NA,NA,NA,NA,NA,NA,NA,NA,NA,NA,NA,NA,NA,NA,NA,NA,0,1,1,1,1,NA,NA,NA,NA,NA
SUPAMT00201,34PGFRQONUAET3WQXCZ5FZGGU2KWJS,BA3E692D-7698-4F9D-B8D7-A9ABD5BD51D5,2023-09-27_08h29.07.949,WP_VExplicitOC_LH,2022.2.5,Win32,16.45900884,23.25,4.4189,2.0489,NA,NA,NA,NA,NA,happy,"unhappy, happy","less happy, more happy",NA,NA,NA,NA,NA,NA,NA,NA,NA,NA,NA,NA,NA,NA,NA,NA,NA,NA,NA,NA,NA,NA,NA,NA,NA,NA,NA,NA,NA,NA,NA,NA,NA,NA,NA,NA,NA,NA,0,2,2,0,1,NA,NA,NA,NA,NA
SUPAMT00201,34PGFRQONUAET3WQXCZ5FZGGU2KWJS,BA3E692D-7698-4F9D-B8D7-A9ABD5BD51D5,2023-09-27_08h29.07.949,WP_VExplicitOC_LH,2022.2.5,Win32,16.45900884,NA,NA,NA,NA,NA,NA,NA,NA,NA,NA,NA,NA,NA,NA,NA,NA,NA,NA,NA,NA,NA,NA,NA,NA,NA,NA,NA,NA,NA,NA,NA,NA,NA,NA,NA,NA,NA,NA,NA,NA,NA,NA,NA,NA,NA,NA,NA,NA,NA,NA,NA,NA,NA,NA,11,0,11,0,1
SUPAMT00201,34PGFRQONUAET3WQXCZ5FZGGU2KWJS,BA3E692D-7698-4F9D-B8D7-A9ABD5BD51D5,2023-09-27_08h29.07.949,WP_VExplicitOC_LH,2022.2.5,Win32,16.45900884,61.13671275,3.3951,2.0581,NA,NA,NA,NA,NA,bored,"bored, not bored","more bored, less bored",NA,NA,NA,NA,NA,NA,NA,NA,NA,NA,NA,NA,NA,NA,NA,NA,NA,NA,NA,NA,NA,NA,NA,NA,NA,NA,NA,NA,NA,NA,NA,NA,NA,NA,NA,NA,NA,NA,0,0,0,2,1,NA,NA,NA,NA,NA
SUPAMT00201,34PGFRQONUAET3WQXCZ5FZGGU2KWJS,BA3E692D-7698-4F9D-B8D7-A9ABD5BD51D5,2023-09-27_08h29.07.949,WP_VExplicitOC_LH,2022.2.5,Win32,16.45900884,42.70353303,3.1164,2.0486,NA,NA,NA,NA,NA,happy,"unhappy, happy","less happy, more happy",NA,NA,NA,NA,NA,NA,NA,NA,NA,NA,NA,NA,NA,NA,NA,NA,NA,NA,NA,NA,NA,NA,NA,NA,NA,NA,NA,NA,NA,NA,NA,NA,NA,NA,NA,NA,NA,NA,0,1,1,0,1,NA,NA,NA,NA,NA
SUPAMT00201,34PGFRQONUAET3WQXCZ5FZGGU2KWJS,BA3E692D-7698-4F9D-B8D7-A9ABD5BD51D5,2023-09-27_08h29.07.949,WP_VExplicitOC_LH,2022.2.5,Win32,16.45900884,52.53456221,3.3374,2.0072,NA,NA,NA,NA,NA,frustrated,"frustrated, not frustrated","more frustrated, less frustrated",NA,NA,NA,NA,NA,NA,NA,NA,NA,NA,NA,NA,NA,NA,NA,NA,NA,NA,NA,NA,NA,NA,NA,NA,NA,NA,NA,NA,NA,NA,NA,NA,NA,NA,NA,NA,NA,NA,0,2,2,1,1,NA,NA,NA,NA,NA
SUPAMT00201,34PGFRQONUAET3WQXCZ5FZGGU2KWJS,BA3E692D-7698-4F9D-B8D7-A9ABD5BD51D5,2023-09-27_08h29.07.949,WP_VExplicitOC_LH,2022.2.5,Win32,16.45900884,NA,NA,NA,NA,NA,NA,NA,NA,NA,NA,NA,NA,NA,NA,NA,NA,NA,NA,NA,NA,NA,NA,NA,NA,NA,NA,NA,NA,NA,NA,NA,NA,NA,NA,NA,NA,NA,NA,NA,NA,NA,NA,NA,NA,NA,NA,NA,NA,NA,NA,NA,NA,NA,NA,12,0,12,0,1
SUPAMT00201,34PGFRQONUAET3WQXCZ5FZGGU2KWJS,BA3E692D-7698-4F9D-B8D7-A9ABD5BD51D5,2023-09-27_08h29.07.949,WP_VExplicitOC_LH,2022.2.5,Win32,16.45900884,31.64362519,3.9745,2.1106,NA,NA,NA,NA,NA,bored,"bored, not bored","more bored, less bored",NA,NA,NA,NA,NA,NA,NA,NA,NA,NA,NA,NA,NA,NA,NA,NA,NA,NA,NA,NA,NA,NA,NA,NA,NA,NA,NA,NA,NA,NA,NA,NA,NA,NA,NA,NA,NA,NA,0,0,0,2,1,NA,NA,NA,NA,NA
SUPAMT00201,34PGFRQONUAET3WQXCZ5FZGGU2KWJS,BA3E692D-7698-4F9D-B8D7-A9ABD5BD51D5,2023-09-27_08h29.07.949,WP_VExplicitOC_LH,2022.2.5,Win32,16.45900884,NA,NA,2.094,NA,NA,NA,NA,NA,frustrated,"frustrated, not frustrated","more frustrated, less frustrated",NA,NA,NA,NA,NA,NA,NA,NA,NA,NA,NA,NA,NA,NA,NA,NA,NA,NA,NA,NA,NA,NA,NA,NA,NA,NA,NA,NA,NA,NA,NA,NA,NA,NA,NA,NA,NA,NA,0,1,1,1,1,NA,NA,NA,NA,NA
SUPAMT00201,34PGFRQONUAET3WQXCZ5FZGGU2KWJS,BA3E692D-7698-4F9D-B8D7-A9ABD5BD51D5,2023-09-27_08h29.07.949,WP_VExplicitOC_LH,2022.2.5,Win32,16.45900884,NA,NA,2.0753,NA,NA,NA,NA,NA,happy,"unhappy, happy","less happy, more happy",NA,NA,NA,NA,NA,NA,NA,NA,NA,NA,NA,NA,NA,NA,NA,NA,NA,NA,NA,NA,NA,NA,NA,NA,NA,NA,NA,NA,NA,NA,NA,NA,NA,NA,NA,NA,NA,NA,0,2,2,0,1,NA,NA,NA,NA,NA
SUPAMT00201,34PGFRQONUAET3WQXCZ5FZGGU2KWJS,BA3E692D-7698-4F9D-B8D7-A9ABD5BD51D5,2023-09-27_08h29.07.949,WP_VExplicitOC_LH,2022.2.5,Win32,16.45900884,NA,NA,NA,NA,NA,NA,NA,NA,NA,NA,NA,NA,NA,NA,NA,NA,NA,NA,NA,NA,NA,NA,NA,NA,NA,NA,NA,NA,NA,NA,NA,NA,NA,NA,NA,NA,NA,NA,NA,NA,NA,NA,NA,NA,NA,NA,NA,NA,NA,NA,NA,NA,NA,NA,13,0,13,0,1
SUPAMT00201,34PGFRQONUAET3WQXCZ5FZGGU2KWJS,BA3E692D-7698-4F9D-B8D7-A9ABD5BD51D5,2023-09-27_08h29.07.949,WP_VExplicitOC_LH,2022.2.5,Win32,16.45900884,52.53456221,3.6431,2.1043,NA,NA,NA,NA,NA,happy,"unhappy, happy","less happy, more happy",NA,NA,NA,NA,NA,NA,NA,NA,NA,NA,NA,NA,NA,NA,NA,NA,NA,NA,NA,NA,NA,NA,NA,NA,NA,NA,NA,NA,NA,NA,NA,NA,NA,NA,NA,NA,NA,NA,0,0,0,0,1,NA,NA,NA,NA,NA
SUPAMT00201,34PGFRQONUAET3WQXCZ5FZGGU2KWJS,BA3E692D-7698-4F9D-B8D7-A9ABD5BD51D5,2023-09-27_08h29.07.949,WP_VExplicitOC_LH,2022.2.5,Win32,16.45900884,41.78187404,4.1407,2.0354,NA,NA,NA,NA,NA,frustrated,"frustrated, not frustrated","more frustrated, less frustrated",NA,NA,NA,NA,NA,NA,NA,NA,NA,NA,NA,NA,NA,NA,NA,NA,NA,NA,NA,NA,NA,NA,NA,NA,NA,NA,NA,NA,NA,NA,NA,NA,NA,NA,NA,NA,NA,NA,0,1,1,1,1,NA,NA,NA,NA,NA
SUPAMT00201,34PGFRQONUAET3WQXCZ5FZGGU2KWJS,BA3E692D-7698-4F9D-B8D7-A9ABD5BD51D5,2023-09-27_08h29.07.949,WP_VExplicitOC_LH,2022.2.5,Win32,16.45900884,33.48694316,3.6524,2.1406,NA,NA,NA,NA,NA,bored,"bored, not bored","more bored, less bored",NA,NA,NA,NA,NA,NA,NA,NA,NA,NA,NA,NA,NA,NA,NA,NA,NA,NA,NA,NA,NA,NA,NA,NA,NA,NA,NA,NA,NA,NA,NA,NA,NA,NA,NA,NA,NA,NA,0,2,2,2,1,NA,NA,NA,NA,NA
SUPAMT00201,34PGFRQONUAET3WQXCZ5FZGGU2KWJS,BA3E692D-7698-4F9D-B8D7-A9ABD5BD51D5,2023-09-27_08h29.07.949,WP_VExplicitOC_LH,2022.2.5,Win32,16.45900884,NA,NA,NA,NA,NA,NA,NA,NA,NA,NA,NA,NA,NA,NA,NA,NA,NA,NA,NA,NA,NA,NA,NA,NA,NA,NA,NA,NA,NA,NA,NA,NA,NA,NA,NA,NA,NA,NA,NA,NA,NA,NA,NA,NA,NA,NA,NA,NA,NA,NA,NA,NA,NA,NA,14,0,14,0,1
SUPAMT00201,34PGFRQONUAET3WQXCZ5FZGGU2KWJS,BA3E692D-7698-4F9D-B8D7-A9ABD5BD51D5,2023-09-27_08h29.07.949,WP_VExplicitOC_LH,2022.2.5,Win32,16.45900884,NA,NA,NA,NA,NA,NA,NA,NA,NA,NA,NA,NA,NA,NA,NA,NA,NA,NA,NA,NA,NA,NA,NA,NA,NA,NA,NA,NA,NA,NA,NA,NA,NA,NA,NA,NA,NA,NA,NA,NA,NA,NA,NA,NA,NA,NA,NA,NA,NA,NA,NA,NA,NA,NA,NA,NA,NA,NA,NA
