participant,session,completion,date,expName,psychopyVersion,OS,frameRate,rating_all.response,rating_all.rt,rating_all.tStart,rndRat1.thisRepN,rndRat1.thisTrialN,rndRat1.thisN,rndRat1.thisIndex,rndRat1.ran,Emo,Labs,Labs2,rating_alt.response,rating_alt.rt,AltC.thisRepN,AltC.thisTrialN,AltC.thisN,AltC.thisIndex,AltC.ran,alt_choices,pic_choices,TopAlt_Choice,rndRat2.thisRepN,rndRat2.thisTrialN,rndRat2.thisN,rndRat2.thisIndex,rndRat2.ran,rndRat3.thisRepN,rndRat3.thisTrialN,rndRat3.thisN,rndRat3.thisIndex,rndRat3.ran,trials_FC_H.thisRepN,trials_FC_H.thisTrialN,trials_FC_H.thisN,trials_FC_H.thisIndex,trials_FC_H.ran,rating_alt_2.response,rating_alt_2.rt,AltC2.thisRepN,AltC2.thisTrialN,AltC2.thisN,AltC2.thisIndex,AltC2.ran,BottomAlt_Choice,rndRat4.thisRepN,rndRat4.thisTrialN,rndRat4.thisN,rndRat4.thisIndex,rndRat4.ran,rndRat5.thisRepN,rndRat5.thisTrialN,rndRat5.thisN,rndRat5.thisIndex,rndRat5.ran,trials_FC_L.thisRepN,trials_FC_L.thisTrialN,trials_FC_L.thisN,trials_FC_L.thisIndex,trials_FC_L.ran
SUPAMT45287,3QFUFYSY94EMFZRA4G21595XHBCF4C,8DF310F3-4744-4027-B1FE-0F85DDCC25EF,2023-09-28_22h54.17.502,WP_VExplicitOC_HL,2022.2.5,Win32,3.529552947,NA,NA,NA,NA,NA,NA,NA,NA,NA,NA,NA,NA,NA,NA,NA,NA,NA,NA,NA,NA,NA,NA,NA,NA,NA,NA,NA,NA,NA,NA,NA,NA,NA,NA,NA,NA,NA,NA,NA,NA,NA,NA,NA,NA,NA,NA,NA,NA,NA,NA,NA,NA,NA,NA,NA,NA,NA,NA,NA
SUPAMT45287,3QFUFYSY94EMFZRA4G21595XHBCF4C,8DF310F3-4744-4027-B1FE-0F85DDCC25EF,2023-09-28_22h54.17.502,WP_VExplicitOC_HL,2022.2.5,Win32,3.529552947,NA,NA,NA,NA,NA,NA,NA,NA,NA,NA,NA,NA,NA,NA,NA,NA,NA,NA,NA,NA,NA,NA,NA,NA,NA,NA,NA,NA,NA,NA,NA,NA,NA,NA,NA,NA,NA,NA,NA,NA,NA,NA,NA,NA,NA,NA,NA,NA,NA,NA,NA,NA,NA,NA,NA,NA,NA,NA,NA
SUPAMT45287,3QFUFYSY94EMFZRA4G21595XHBCF4C,8DF310F3-4744-4027-B1FE-0F85DDCC25EF,2023-09-28_22h54.17.502,WP_VExplicitOC_HL,2022.2.5,Win32,3.529552947,NA,NA,NA,NA,NA,NA,NA,NA,NA,NA,NA,NA,NA,NA,NA,NA,NA,NA,NA,NA,NA,NA,NA,NA,NA,NA,NA,NA,NA,NA,NA,NA,NA,NA,NA,NA,NA,NA,NA,NA,NA,NA,NA,NA,NA,NA,NA,NA,NA,NA,NA,NA,NA,NA,NA,NA,NA,NA,NA
SUPAMT45287,3QFUFYSY94EMFZRA4G21595XHBCF4C,8DF310F3-4744-4027-B1FE-0F85DDCC25EF,2023-09-28_22h54.17.502,WP_VExplicitOC_HL,2022.2.5,Win32,3.529552947,87.5,4.8087,2.0296,0,0,0,1,1,frustrated,"frustrated, not frustrated","more frustrated, less frustrated",NA,NA,NA,NA,NA,NA,NA,NA,NA,NA,NA,NA,NA,NA,NA,NA,NA,NA,NA,NA,NA,NA,NA,NA,NA,NA,NA,NA,NA,NA,NA,NA,NA,NA,NA,NA,NA,NA,NA,NA,NA,NA,NA,NA,NA,NA,NA,NA
SUPAMT45287,3QFUFYSY94EMFZRA4G21595XHBCF4C,8DF310F3-4744-4027-B1FE-0F85DDCC25EF,2023-09-28_22h54.17.502,WP_VExplicitOC_HL,2022.2.5,Win32,3.529552947,68.22916667,4.3383,2.0377,0,1,1,0,1,happy,"unhappy, happy","less happy, more happy",NA,NA,NA,NA,NA,NA,NA,NA,NA,NA,NA,NA,NA,NA,NA,NA,NA,NA,NA,NA,NA,NA,NA,NA,NA,NA,NA,NA,NA,NA,NA,NA,NA,NA,NA,NA,NA,NA,NA,NA,NA,NA,NA,NA,NA,NA,NA,NA
SUPAMT45287,3QFUFYSY94EMFZRA4G21595XHBCF4C,8DF310F3-4744-4027-B1FE-0F85DDCC25EF,2023-09-28_22h54.17.502,WP_VExplicitOC_HL,2022.2.5,Win32,3.529552947,68.22916667,3.4018,2.027,0,2,2,2,1,bored,"bored, not bored","more bored, less bored",NA,NA,NA,NA,NA,NA,NA,NA,NA,NA,NA,NA,NA,NA,NA,NA,NA,NA,NA,NA,NA,NA,NA,NA,NA,NA,NA,NA,NA,NA,NA,NA,NA,NA,NA,NA,NA,NA,NA,NA,NA,NA,NA,NA,NA,NA,NA,NA
SUPAMT45287,3QFUFYSY94EMFZRA4G21595XHBCF4C,8DF310F3-4744-4027-B1FE-0F85DDCC25EF,2023-09-28_22h54.17.502,WP_VExplicitOC_HL,2022.2.5,Win32,3.529552947,NA,NA,NA,NA,NA,NA,NA,NA,NA,NA,NA,NA,NA,NA,NA,NA,NA,NA,NA,NA,NA,NA,NA,NA,NA,NA,NA,NA,NA,NA,NA,NA,NA,NA,NA,NA,NA,NA,NA,NA,NA,NA,NA,NA,NA,NA,NA,NA,NA,NA,NA,NA,NA,NA,NA,NA,NA,NA,NA
SUPAMT45287,3QFUFYSY94EMFZRA4G21595XHBCF4C,8DF310F3-4744-4027-B1FE-0F85DDCC25EF,2023-09-28_22h54.17.502,WP_VExplicitOC_HL,2022.2.5,Win32,3.529552947,NA,NA,NA,NA,NA,NA,NA,NA,NA,NA,NA,NA,NA,NA,NA,NA,NA,NA,NA,NA,NA,NA,NA,NA,NA,NA,NA,NA,NA,NA,NA,NA,NA,NA,NA,NA,NA,NA,NA,NA,NA,NA,NA,NA,NA,NA,NA,NA,NA,NA,NA,NA,NA,NA,NA,NA,NA,NA,NA
SUPAMT45287,3QFUFYSY94EMFZRA4G21595XHBCF4C,8DF310F3-4744-4027-B1FE-0F85DDCC25EF,2023-09-28_22h54.17.502,WP_VExplicitOC_HL,2022.2.5,Win32,3.529552947,NA,NA,NA,NA,NA,NA,NA,NA,NA,NA,NA,NA,NA,NA,NA,NA,NA,NA,NA,NA,NA,NA,NA,NA,NA,NA,NA,NA,NA,NA,NA,NA,NA,NA,NA,NA,NA,NA,NA,NA,NA,NA,NA,NA,NA,NA,NA,NA,NA,NA,NA,NA,NA,NA,NA,NA,NA,NA,NA
SUPAMT45287,3QFUFYSY94EMFZRA4G21595XHBCF4C,8DF310F3-4744-4027-B1FE-0F85DDCC25EF,2023-09-28_22h54.17.502,WP_VExplicitOC_HL,2022.2.5,Win32,3.529552947,NA,NA,NA,NA,NA,NA,NA,NA,NA,NA,NA,NA,NA,NA,NA,NA,NA,NA,NA,NA,NA,NA,NA,NA,NA,NA,NA,NA,NA,NA,NA,NA,NA,NA,NA,NA,NA,NA,NA,NA,NA,NA,NA,NA,NA,NA,NA,NA,NA,NA,NA,NA,NA,NA,NA,NA,NA,NA,NA
SUPAMT45287,3QFUFYSY94EMFZRA4G21595XHBCF4C,8DF310F3-4744-4027-B1FE-0F85DDCC25EF,2023-09-28_22h54.17.502,WP_VExplicitOC_HL,2022.2.5,Win32,3.529552947,NA,NA,NA,NA,NA,NA,NA,NA,NA,NA,NA,92.1875,1.4429,0,0,0,0,1,rest (looking at a fixed cross),001.png,NA,NA,NA,NA,NA,NA,NA,NA,NA,NA,NA,NA,NA,NA,NA,NA,NA,NA,NA,NA,NA,NA,NA,NA,NA,NA,NA,NA,NA,NA,NA,NA,NA,NA,NA,NA,NA,NA,NA
SUPAMT45287,3QFUFYSY94EMFZRA4G21595XHBCF4C,8DF310F3-4744-4027-B1FE-0F85DDCC25EF,2023-09-28_22h54.17.502,WP_VExplicitOC_HL,2022.2.5,Win32,3.529552947,NA,NA,NA,NA,NA,NA,NA,NA,NA,NA,NA,92.1875,1.0513,0,1,1,1,1,stand up,002.png,NA,NA,NA,NA,NA,NA,NA,NA,NA,NA,NA,NA,NA,NA,NA,NA,NA,NA,NA,NA,NA,NA,NA,NA,NA,NA,NA,NA,NA,NA,NA,NA,NA,NA,NA,NA,NA,NA,NA
SUPAMT45287,3QFUFYSY94EMFZRA4G21595XHBCF4C,8DF310F3-4744-4027-B1FE-0F85DDCC25EF,2023-09-28_22h54.17.502,WP_VExplicitOC_HL,2022.2.5,Win32,3.529552947,NA,NA,NA,NA,NA,NA,NA,NA,NA,NA,NA,92.1875,1.407,0,2,2,2,1,stretch,003.png,NA,NA,NA,NA,NA,NA,NA,NA,NA,NA,NA,NA,NA,NA,NA,NA,NA,NA,NA,NA,NA,NA,NA,NA,NA,NA,NA,NA,NA,NA,NA,NA,NA,NA,NA,NA,NA,NA,NA
SUPAMT45287,3QFUFYSY94EMFZRA4G21595XHBCF4C,8DF310F3-4744-4027-B1FE-0F85DDCC25EF,2023-09-28_22h54.17.502,WP_VExplicitOC_HL,2022.2.5,Win32,3.529552947,NA,NA,NA,NA,NA,NA,NA,NA,NA,NA,NA,92.1875,1.0816,0,3,3,3,1,make a drink,004.png,NA,NA,NA,NA,NA,NA,NA,NA,NA,NA,NA,NA,NA,NA,NA,NA,NA,NA,NA,NA,NA,NA,NA,NA,NA,NA,NA,NA,NA,NA,NA,NA,NA,NA,NA,NA,NA,NA,NA
SUPAMT45287,3QFUFYSY94EMFZRA4G21595XHBCF4C,8DF310F3-4744-4027-B1FE-0F85DDCC25EF,2023-09-28_22h54.17.502,WP_VExplicitOC_HL,2022.2.5,Win32,3.529552947,NA,NA,NA,NA,NA,NA,NA,NA,NA,NA,NA,92.1875,0.7196,0,4,4,4,1,scroll social media,005.png,NA,NA,NA,NA,NA,NA,NA,NA,NA,NA,NA,NA,NA,NA,NA,NA,NA,NA,NA,NA,NA,NA,NA,NA,NA,NA,NA,NA,NA,NA,NA,NA,NA,NA,NA,NA,NA,NA,NA
SUPAMT45287,3QFUFYSY94EMFZRA4G21595XHBCF4C,8DF310F3-4744-4027-B1FE-0F85DDCC25EF,2023-09-28_22h54.17.502,WP_VExplicitOC_HL,2022.2.5,Win32,3.529552947,NA,NA,NA,NA,NA,NA,NA,NA,NA,NA,NA,92.1875,0.3669,0,5,5,5,1,listen to music,006.png,NA,NA,NA,NA,NA,NA,NA,NA,NA,NA,NA,NA,NA,NA,NA,NA,NA,NA,NA,NA,NA,NA,NA,NA,NA,NA,NA,NA,NA,NA,NA,NA,NA,NA,NA,NA,NA,NA,NA
SUPAMT45287,3QFUFYSY94EMFZRA4G21595XHBCF4C,8DF310F3-4744-4027-B1FE-0F85DDCC25EF,2023-09-28_22h54.17.502,WP_VExplicitOC_HL,2022.2.5,Win32,3.529552947,NA,NA,NA,NA,NA,NA,NA,NA,NA,NA,NA,92.1875,0.7045,0,6,6,6,1,daydream,007.png,NA,NA,NA,NA,NA,NA,NA,NA,NA,NA,NA,NA,NA,NA,NA,NA,NA,NA,NA,NA,NA,NA,NA,NA,NA,NA,NA,NA,NA,NA,NA,NA,NA,NA,NA,NA,NA,NA,NA
SUPAMT45287,3QFUFYSY94EMFZRA4G21595XHBCF4C,8DF310F3-4744-4027-B1FE-0F85DDCC25EF,2023-09-28_22h54.17.502,WP_VExplicitOC_HL,2022.2.5,Win32,3.529552947,NA,NA,NA,NA,NA,NA,NA,NA,NA,NA,NA,92.1875,0.7067,0,7,7,7,1,watch a short animation,008.png,NA,NA,NA,NA,NA,NA,NA,NA,NA,NA,NA,NA,NA,NA,NA,NA,NA,NA,NA,NA,NA,NA,NA,NA,NA,NA,NA,NA,NA,NA,NA,NA,NA,NA,NA,NA,NA,NA,NA
SUPAMT45287,3QFUFYSY94EMFZRA4G21595XHBCF4C,8DF310F3-4744-4027-B1FE-0F85DDCC25EF,2023-09-28_22h54.17.502,WP_VExplicitOC_HL,2022.2.5,Win32,3.529552947,NA,NA,NA,NA,NA,NA,NA,NA,NA,NA,NA,92.1875,0.7059,0,8,8,8,1,read a novel,009.png,NA,NA,NA,NA,NA,NA,NA,NA,NA,NA,NA,NA,NA,NA,NA,NA,NA,NA,NA,NA,NA,NA,NA,NA,NA,NA,NA,NA,NA,NA,NA,NA,NA,NA,NA,NA,NA,NA,NA
SUPAMT45287,3QFUFYSY94EMFZRA4G21595XHBCF4C,8DF310F3-4744-4027-B1FE-0F85DDCC25EF,2023-09-28_22h54.17.502,WP_VExplicitOC_HL,2022.2.5,Win32,3.529552947,NA,NA,NA,NA,NA,NA,NA,NA,NA,NA,NA,92.1875,0.3611,0,9,9,9,1,read the news,010.png,NA,NA,NA,NA,NA,NA,NA,NA,NA,NA,NA,NA,NA,NA,NA,NA,NA,NA,NA,NA,NA,NA,NA,NA,NA,NA,NA,NA,NA,NA,NA,NA,NA,NA,NA,NA,NA,NA,NA
SUPAMT45287,3QFUFYSY94EMFZRA4G21595XHBCF4C,8DF310F3-4744-4027-B1FE-0F85DDCC25EF,2023-09-28_22h54.17.502,WP_VExplicitOC_HL,2022.2.5,Win32,3.529552947,NA,NA,NA,NA,NA,NA,NA,NA,NA,NA,NA,NA,NA,NA,NA,NA,NA,NA,NA,NA,NA,NA,NA,NA,NA,NA,NA,NA,NA,NA,NA,NA,NA,NA,NA,NA,NA,NA,NA,NA,NA,NA,NA,NA,NA,NA,NA,NA,NA,NA,NA,NA,NA,NA,NA,NA,NA,NA,NA
SUPAMT45287,3QFUFYSY94EMFZRA4G21595XHBCF4C,8DF310F3-4744-4027-B1FE-0F85DDCC25EF,2023-09-28_22h54.17.502,WP_VExplicitOC_HL,2022.2.5,Win32,3.529552947,NA,NA,NA,NA,NA,NA,NA,NA,NA,NA,NA,NA,NA,NA,NA,NA,NA,NA,NA,NA,stand up,NA,NA,NA,NA,NA,NA,NA,NA,NA,NA,NA,NA,NA,NA,NA,NA,NA,NA,NA,NA,NA,NA,NA,NA,NA,NA,NA,NA,NA,NA,NA,NA,NA,NA,NA,NA,NA,NA
SUPAMT45287,3QFUFYSY94EMFZRA4G21595XHBCF4C,8DF310F3-4744-4027-B1FE-0F85DDCC25EF,2023-09-28_22h54.17.502,WP_VExplicitOC_HL,2022.2.5,Win32,3.529552947,92.1875,3.4141,2.025,NA,NA,NA,NA,NA,frustrated,"frustrated, not frustrated","more frustrated, less frustrated",NA,NA,NA,NA,NA,NA,NA,NA,NA,NA,0,0,0,1,1,NA,NA,NA,NA,NA,NA,NA,NA,NA,NA,NA,NA,NA,NA,NA,NA,NA,NA,NA,NA,NA,NA,NA,NA,NA,NA,NA,NA,NA,NA,NA,NA,NA
SUPAMT45287,3QFUFYSY94EMFZRA4G21595XHBCF4C,8DF310F3-4744-4027-B1FE-0F85DDCC25EF,2023-09-28_22h54.17.502,WP_VExplicitOC_HL,2022.2.5,Win32,3.529552947,92.1875,3.0675,2.0318,NA,NA,NA,NA,NA,bored,"bored, not bored","more bored, less bored",NA,NA,NA,NA,NA,NA,NA,NA,NA,NA,0,1,1,2,1,NA,NA,NA,NA,NA,NA,NA,NA,NA,NA,NA,NA,NA,NA,NA,NA,NA,NA,NA,NA,NA,NA,NA,NA,NA,NA,NA,NA,NA,NA,NA,NA,NA
SUPAMT45287,3QFUFYSY94EMFZRA4G21595XHBCF4C,8DF310F3-4744-4027-B1FE-0F85DDCC25EF,2023-09-28_22h54.17.502,WP_VExplicitOC_HL,2022.2.5,Win32,3.529552947,92.1875,3.7383,2.0216,NA,NA,NA,NA,NA,happy,"unhappy, happy","less happy, more happy",NA,NA,NA,NA,NA,NA,NA,NA,NA,NA,0,2,2,0,1,NA,NA,NA,NA,NA,NA,NA,NA,NA,NA,NA,NA,NA,NA,NA,NA,NA,NA,NA,NA,NA,NA,NA,NA,NA,NA,NA,NA,NA,NA,NA,NA,NA
SUPAMT45287,3QFUFYSY94EMFZRA4G21595XHBCF4C,8DF310F3-4744-4027-B1FE-0F85DDCC25EF,2023-09-28_22h54.17.502,WP_VExplicitOC_HL,2022.2.5,Win32,3.529552947,NA,NA,NA,NA,NA,NA,NA,NA,NA,NA,NA,NA,NA,NA,NA,NA,NA,NA,NA,NA,NA,NA,NA,NA,NA,NA,NA,NA,NA,NA,NA,NA,NA,NA,NA,NA,NA,NA,NA,NA,NA,NA,NA,NA,NA,NA,NA,NA,NA,NA,NA,NA,NA,NA,NA,NA,NA,NA,NA
SUPAMT45287,3QFUFYSY94EMFZRA4G21595XHBCF4C,8DF310F3-4744-4027-B1FE-0F85DDCC25EF,2023-09-28_22h54.17.502,WP_VExplicitOC_HL,2022.2.5,Win32,3.529552947,NA,NA,NA,NA,NA,NA,NA,NA,NA,NA,NA,NA,NA,NA,NA,NA,NA,NA,NA,NA,NA,NA,NA,NA,NA,NA,NA,NA,NA,NA,NA,NA,NA,NA,NA,NA,NA,NA,NA,NA,NA,NA,NA,NA,NA,NA,NA,NA,NA,NA,NA,NA,NA,NA,NA,NA,NA,NA,NA
SUPAMT45287,3QFUFYSY94EMFZRA4G21595XHBCF4C,8DF310F3-4744-4027-B1FE-0F85DDCC25EF,2023-09-28_22h54.17.502,WP_VExplicitOC_HL,2022.2.5,Win32,3.529552947,82.8125,3.4082,2.0256,NA,NA,NA,NA,NA,frustrated,"frustrated, not frustrated","more frustrated, less frustrated",NA,NA,NA,NA,NA,NA,NA,NA,NA,NA,NA,NA,NA,NA,NA,0,0,0,1,1,NA,NA,NA,NA,NA,NA,NA,NA,NA,NA,NA,NA,NA,NA,NA,NA,NA,NA,NA,NA,NA,NA,NA,NA,NA,NA,NA,NA
SUPAMT45287,3QFUFYSY94EMFZRA4G21595XHBCF4C,8DF310F3-4744-4027-B1FE-0F85DDCC25EF,2023-09-28_22h54.17.502,WP_VExplicitOC_HL,2022.2.5,Win32,3.529552947,91.40625,4.7483,2.0227,NA,NA,NA,NA,NA,happy,"unhappy, happy","less happy, more happy",NA,NA,NA,NA,NA,NA,NA,NA,NA,NA,NA,NA,NA,NA,NA,0,1,1,0,1,NA,NA,NA,NA,NA,NA,NA,NA,NA,NA,NA,NA,NA,NA,NA,NA,NA,NA,NA,NA,NA,NA,NA,NA,NA,NA,NA,NA
SUPAMT45287,3QFUFYSY94EMFZRA4G21595XHBCF4C,8DF310F3-4744-4027-B1FE-0F85DDCC25EF,2023-09-28_22h54.17.502,WP_VExplicitOC_HL,2022.2.5,Win32,3.529552947,91.14583333,4.3807,2.3314,NA,NA,NA,NA,NA,bored,"bored, not bored","more bored, less bored",NA,NA,NA,NA,NA,NA,NA,NA,NA,NA,NA,NA,NA,NA,NA,0,2,2,2,1,NA,NA,NA,NA,NA,NA,NA,NA,NA,NA,NA,NA,NA,NA,NA,NA,NA,NA,NA,NA,NA,NA,NA,NA,NA,NA,NA,NA
SUPAMT45287,3QFUFYSY94EMFZRA4G21595XHBCF4C,8DF310F3-4744-4027-B1FE-0F85DDCC25EF,2023-09-28_22h54.17.502,WP_VExplicitOC_HL,2022.2.5,Win32,3.529552947,NA,NA,NA,NA,NA,NA,NA,NA,NA,NA,NA,NA,NA,NA,NA,NA,NA,NA,NA,NA,NA,NA,NA,NA,NA,NA,NA,NA,NA,NA,NA,0,0,0,0,1,NA,NA,NA,NA,NA,NA,NA,NA,NA,NA,NA,NA,NA,NA,NA,NA,NA,NA,NA,NA,NA,NA,NA
SUPAMT45287,3QFUFYSY94EMFZRA4G21595XHBCF4C,8DF310F3-4744-4027-B1FE-0F85DDCC25EF,2023-09-28_22h54.17.502,WP_VExplicitOC_HL,2022.2.5,Win32,3.529552947,91.14583333,3.7017,2.3323,NA,NA,NA,NA,NA,frustrated,"frustrated, not frustrated","more frustrated, less frustrated",NA,NA,NA,NA,NA,NA,NA,NA,NA,NA,NA,NA,NA,NA,NA,0,0,0,1,1,NA,NA,NA,NA,NA,NA,NA,NA,NA,NA,NA,NA,NA,NA,NA,NA,NA,NA,NA,NA,NA,NA,NA,NA,NA,NA,NA,NA
SUPAMT45287,3QFUFYSY94EMFZRA4G21595XHBCF4C,8DF310F3-4744-4027-B1FE-0F85DDCC25EF,2023-09-28_22h54.17.502,WP_VExplicitOC_HL,2022.2.5,Win32,3.529552947,91.14583333,3.0297,2.0086,NA,NA,NA,NA,NA,bored,"bored, not bored","more bored, less bored",NA,NA,NA,NA,NA,NA,NA,NA,NA,NA,NA,NA,NA,NA,NA,0,1,1,2,1,NA,NA,NA,NA,NA,NA,NA,NA,NA,NA,NA,NA,NA,NA,NA,NA,NA,NA,NA,NA,NA,NA,NA,NA,NA,NA,NA,NA
SUPAMT45287,3QFUFYSY94EMFZRA4G21595XHBCF4C,8DF310F3-4744-4027-B1FE-0F85DDCC25EF,2023-09-28_22h54.17.502,WP_VExplicitOC_HL,2022.2.5,Win32,3.529552947,91.14583333,3.0254,2.0003,NA,NA,NA,NA,NA,happy,"unhappy, happy","less happy, more happy",NA,NA,NA,NA,NA,NA,NA,NA,NA,NA,NA,NA,NA,NA,NA,0,2,2,0,1,NA,NA,NA,NA,NA,NA,NA,NA,NA,NA,NA,NA,NA,NA,NA,NA,NA,NA,NA,NA,NA,NA,NA,NA,NA,NA,NA,NA
SUPAMT45287,3QFUFYSY94EMFZRA4G21595XHBCF4C,8DF310F3-4744-4027-B1FE-0F85DDCC25EF,2023-09-28_22h54.17.502,WP_VExplicitOC_HL,2022.2.5,Win32,3.529552947,NA,NA,NA,NA,NA,NA,NA,NA,NA,NA,NA,NA,NA,NA,NA,NA,NA,NA,NA,NA,NA,NA,NA,NA,NA,NA,NA,NA,NA,NA,NA,1,0,1,0,1,NA,NA,NA,NA,NA,NA,NA,NA,NA,NA,NA,NA,NA,NA,NA,NA,NA,NA,NA,NA,NA,NA,NA
SUPAMT45287,3QFUFYSY94EMFZRA4G21595XHBCF4C,8DF310F3-4744-4027-B1FE-0F85DDCC25EF,2023-09-28_22h54.17.502,WP_VExplicitOC_HL,2022.2.5,Win32,3.529552947,85.67708333,3.3919,2.0089,NA,NA,NA,NA,NA,frustrated,"frustrated, not frustrated","more frustrated, less frustrated",NA,NA,NA,NA,NA,NA,NA,NA,NA,NA,NA,NA,NA,NA,NA,0,0,0,1,1,NA,NA,NA,NA,NA,NA,NA,NA,NA,NA,NA,NA,NA,NA,NA,NA,NA,NA,NA,NA,NA,NA,NA,NA,NA,NA,NA,NA
SUPAMT45287,3QFUFYSY94EMFZRA4G21595XHBCF4C,8DF310F3-4744-4027-B1FE-0F85DDCC25EF,2023-09-28_22h54.17.502,WP_VExplicitOC_HL,2022.2.5,Win32,3.529552947,85.67708333,3.048,2.0094,NA,NA,NA,NA,NA,happy,"unhappy, happy","less happy, more happy",NA,NA,NA,NA,NA,NA,NA,NA,NA,NA,NA,NA,NA,NA,NA,0,1,1,0,1,NA,NA,NA,NA,NA,NA,NA,NA,NA,NA,NA,NA,NA,NA,NA,NA,NA,NA,NA,NA,NA,NA,NA,NA,NA,NA,NA,NA
SUPAMT45287,3QFUFYSY94EMFZRA4G21595XHBCF4C,8DF310F3-4744-4027-B1FE-0F85DDCC25EF,2023-09-28_22h54.17.502,WP_VExplicitOC_HL,2022.2.5,Win32,3.529552947,93.22916667,3.0515,2.0149,NA,NA,NA,NA,NA,bored,"bored, not bored","more bored, less bored",NA,NA,NA,NA,NA,NA,NA,NA,NA,NA,NA,NA,NA,NA,NA,0,2,2,2,1,NA,NA,NA,NA,NA,NA,NA,NA,NA,NA,NA,NA,NA,NA,NA,NA,NA,NA,NA,NA,NA,NA,NA,NA,NA,NA,NA,NA
SUPAMT45287,3QFUFYSY94EMFZRA4G21595XHBCF4C,8DF310F3-4744-4027-B1FE-0F85DDCC25EF,2023-09-28_22h54.17.502,WP_VExplicitOC_HL,2022.2.5,Win32,3.529552947,NA,NA,NA,NA,NA,NA,NA,NA,NA,NA,NA,NA,NA,NA,NA,NA,NA,NA,NA,NA,NA,NA,NA,NA,NA,NA,NA,NA,NA,NA,NA,2,0,2,0,1,NA,NA,NA,NA,NA,NA,NA,NA,NA,NA,NA,NA,NA,NA,NA,NA,NA,NA,NA,NA,NA,NA,NA
SUPAMT45287,3QFUFYSY94EMFZRA4G21595XHBCF4C,8DF310F3-4744-4027-B1FE-0F85DDCC25EF,2023-09-28_22h54.17.502,WP_VExplicitOC_HL,2022.2.5,Win32,3.529552947,93.22916667,3.3732,2.3225,NA,NA,NA,NA,NA,happy,"unhappy, happy","less happy, more happy",NA,NA,NA,NA,NA,NA,NA,NA,NA,NA,NA,NA,NA,NA,NA,0,0,0,0,1,NA,NA,NA,NA,NA,NA,NA,NA,NA,NA,NA,NA,NA,NA,NA,NA,NA,NA,NA,NA,NA,NA,NA,NA,NA,NA,NA,NA
SUPAMT45287,3QFUFYSY94EMFZRA4G21595XHBCF4C,8DF310F3-4744-4027-B1FE-0F85DDCC25EF,2023-09-28_22h54.17.502,WP_VExplicitOC_HL,2022.2.5,Win32,3.529552947,93.22916667,3.3563,2.3344,NA,NA,NA,NA,NA,bored,"bored, not bored","more bored, less bored",NA,NA,NA,NA,NA,NA,NA,NA,NA,NA,NA,NA,NA,NA,NA,0,1,1,2,1,NA,NA,NA,NA,NA,NA,NA,NA,NA,NA,NA,NA,NA,NA,NA,NA,NA,NA,NA,NA,NA,NA,NA,NA,NA,NA,NA,NA
SUPAMT45287,3QFUFYSY94EMFZRA4G21595XHBCF4C,8DF310F3-4744-4027-B1FE-0F85DDCC25EF,2023-09-28_22h54.17.502,WP_VExplicitOC_HL,2022.2.5,Win32,3.529552947,93.22916667,3.0452,2.0073,NA,NA,NA,NA,NA,frustrated,"frustrated, not frustrated","more frustrated, less frustrated",NA,NA,NA,NA,NA,NA,NA,NA,NA,NA,NA,NA,NA,NA,NA,0,2,2,1,1,NA,NA,NA,NA,NA,NA,NA,NA,NA,NA,NA,NA,NA,NA,NA,NA,NA,NA,NA,NA,NA,NA,NA,NA,NA,NA,NA,NA
SUPAMT45287,3QFUFYSY94EMFZRA4G21595XHBCF4C,8DF310F3-4744-4027-B1FE-0F85DDCC25EF,2023-09-28_22h54.17.502,WP_VExplicitOC_HL,2022.2.5,Win32,3.529552947,NA,NA,NA,NA,NA,NA,NA,NA,NA,NA,NA,NA,NA,NA,NA,NA,NA,NA,NA,NA,NA,NA,NA,NA,NA,NA,NA,NA,NA,NA,NA,3,0,3,0,1,NA,NA,NA,NA,NA,NA,NA,NA,NA,NA,NA,NA,NA,NA,NA,NA,NA,NA,NA,NA,NA,NA,NA
SUPAMT45287,3QFUFYSY94EMFZRA4G21595XHBCF4C,8DF310F3-4744-4027-B1FE-0F85DDCC25EF,2023-09-28_22h54.17.502,WP_VExplicitOC_HL,2022.2.5,Win32,3.529552947,93.22916667,3.0487,2.016,NA,NA,NA,NA,NA,bored,"bored, not bored","more bored, less bored",NA,NA,NA,NA,NA,NA,NA,NA,NA,NA,NA,NA,NA,NA,NA,0,0,0,2,1,NA,NA,NA,NA,NA,NA,NA,NA,NA,NA,NA,NA,NA,NA,NA,NA,NA,NA,NA,NA,NA,NA,NA,NA,NA,NA,NA,NA
SUPAMT45287,3QFUFYSY94EMFZRA4G21595XHBCF4C,8DF310F3-4744-4027-B1FE-0F85DDCC25EF,2023-09-28_22h54.17.502,WP_VExplicitOC_HL,2022.2.5,Win32,3.529552947,93.22916667,3.0744,2.0306,NA,NA,NA,NA,NA,frustrated,"frustrated, not frustrated","more frustrated, less frustrated",NA,NA,NA,NA,NA,NA,NA,NA,NA,NA,NA,NA,NA,NA,NA,0,1,1,1,1,NA,NA,NA,NA,NA,NA,NA,NA,NA,NA,NA,NA,NA,NA,NA,NA,NA,NA,NA,NA,NA,NA,NA,NA,NA,NA,NA,NA
SUPAMT45287,3QFUFYSY94EMFZRA4G21595XHBCF4C,8DF310F3-4744-4027-B1FE-0F85DDCC25EF,2023-09-28_22h54.17.502,WP_VExplicitOC_HL,2022.2.5,Win32,3.529552947,93.22916667,3.0539,2.0213,NA,NA,NA,NA,NA,happy,"unhappy, happy","less happy, more happy",NA,NA,NA,NA,NA,NA,NA,NA,NA,NA,NA,NA,NA,NA,NA,0,2,2,0,1,NA,NA,NA,NA,NA,NA,NA,NA,NA,NA,NA,NA,NA,NA,NA,NA,NA,NA,NA,NA,NA,NA,NA,NA,NA,NA,NA,NA
SUPAMT45287,3QFUFYSY94EMFZRA4G21595XHBCF4C,8DF310F3-4744-4027-B1FE-0F85DDCC25EF,2023-09-28_22h54.17.502,WP_VExplicitOC_HL,2022.2.5,Win32,3.529552947,NA,NA,NA,NA,NA,NA,NA,NA,NA,NA,NA,NA,NA,NA,NA,NA,NA,NA,NA,NA,NA,NA,NA,NA,NA,NA,NA,NA,NA,NA,NA,4,0,4,0,1,NA,NA,NA,NA,NA,NA,NA,NA,NA,NA,NA,NA,NA,NA,NA,NA,NA,NA,NA,NA,NA,NA,NA
SUPAMT45287,3QFUFYSY94EMFZRA4G21595XHBCF4C,8DF310F3-4744-4027-B1FE-0F85DDCC25EF,2023-09-28_22h54.17.502,WP_VExplicitOC_HL,2022.2.5,Win32,3.529552947,79.16666667,3.7091,2.004,NA,NA,NA,NA,NA,happy,"unhappy, happy","less happy, more happy",NA,NA,NA,NA,NA,NA,NA,NA,NA,NA,NA,NA,NA,NA,NA,0,0,0,0,1,NA,NA,NA,NA,NA,NA,NA,NA,NA,NA,NA,NA,NA,NA,NA,NA,NA,NA,NA,NA,NA,NA,NA,NA,NA,NA,NA,NA
SUPAMT45287,3QFUFYSY94EMFZRA4G21595XHBCF4C,8DF310F3-4744-4027-B1FE-0F85DDCC25EF,2023-09-28_22h54.17.502,WP_VExplicitOC_HL,2022.2.5,Win32,3.529552947,82.55208333,3.0373,2.0074,NA,NA,NA,NA,NA,frustrated,"frustrated, not frustrated","more frustrated, less frustrated",NA,NA,NA,NA,NA,NA,NA,NA,NA,NA,NA,NA,NA,NA,NA,0,1,1,1,1,NA,NA,NA,NA,NA,NA,NA,NA,NA,NA,NA,NA,NA,NA,NA,NA,NA,NA,NA,NA,NA,NA,NA,NA,NA,NA,NA,NA
SUPAMT45287,3QFUFYSY94EMFZRA4G21595XHBCF4C,8DF310F3-4744-4027-B1FE-0F85DDCC25EF,2023-09-28_22h54.17.502,WP_VExplicitOC_HL,2022.2.5,Win32,3.529552947,83.85416667,3.0301,2.0012,NA,NA,NA,NA,NA,bored,"bored, not bored","more bored, less bored",NA,NA,NA,NA,NA,NA,NA,NA,NA,NA,NA,NA,NA,NA,NA,0,2,2,2,1,NA,NA,NA,NA,NA,NA,NA,NA,NA,NA,NA,NA,NA,NA,NA,NA,NA,NA,NA,NA,NA,NA,NA,NA,NA,NA,NA,NA
SUPAMT45287,3QFUFYSY94EMFZRA4G21595XHBCF4C,8DF310F3-4744-4027-B1FE-0F85DDCC25EF,2023-09-28_22h54.17.502,WP_VExplicitOC_HL,2022.2.5,Win32,3.529552947,NA,NA,NA,NA,NA,NA,NA,NA,NA,NA,NA,NA,NA,NA,NA,NA,NA,NA,NA,NA,NA,NA,NA,NA,NA,NA,NA,NA,NA,NA,NA,5,0,5,0,1,NA,NA,NA,NA,NA,NA,NA,NA,NA,NA,NA,NA,NA,NA,NA,NA,NA,NA,NA,NA,NA,NA,NA
SUPAMT45287,3QFUFYSY94EMFZRA4G21595XHBCF4C,8DF310F3-4744-4027-B1FE-0F85DDCC25EF,2023-09-28_22h54.17.502,WP_VExplicitOC_HL,2022.2.5,Win32,3.529552947,82.03125,3.7596,2.0389,NA,NA,NA,NA,NA,bored,"bored, not bored","more bored, less bored",NA,NA,NA,NA,NA,NA,NA,NA,NA,NA,NA,NA,NA,NA,NA,0,0,0,2,1,NA,NA,NA,NA,NA,NA,NA,NA,NA,NA,NA,NA,NA,NA,NA,NA,NA,NA,NA,NA,NA,NA,NA,NA,NA,NA,NA,NA
SUPAMT45287,3QFUFYSY94EMFZRA4G21595XHBCF4C,8DF310F3-4744-4027-B1FE-0F85DDCC25EF,2023-09-28_22h54.17.502,WP_VExplicitOC_HL,2022.2.5,Win32,3.529552947,84.89583333,3.4184,2.0447,NA,NA,NA,NA,NA,happy,"unhappy, happy","less happy, more happy",NA,NA,NA,NA,NA,NA,NA,NA,NA,NA,NA,NA,NA,NA,NA,0,1,1,0,1,NA,NA,NA,NA,NA,NA,NA,NA,NA,NA,NA,NA,NA,NA,NA,NA,NA,NA,NA,NA,NA,NA,NA,NA,NA,NA,NA,NA
SUPAMT45287,3QFUFYSY94EMFZRA4G21595XHBCF4C,8DF310F3-4744-4027-B1FE-0F85DDCC25EF,2023-09-28_22h54.17.502,WP_VExplicitOC_HL,2022.2.5,Win32,3.529552947,86.97916667,3.0607,2.028,NA,NA,NA,NA,NA,frustrated,"frustrated, not frustrated","more frustrated, less frustrated",NA,NA,NA,NA,NA,NA,NA,NA,NA,NA,NA,NA,NA,NA,NA,0,2,2,1,1,NA,NA,NA,NA,NA,NA,NA,NA,NA,NA,NA,NA,NA,NA,NA,NA,NA,NA,NA,NA,NA,NA,NA,NA,NA,NA,NA,NA
SUPAMT45287,3QFUFYSY94EMFZRA4G21595XHBCF4C,8DF310F3-4744-4027-B1FE-0F85DDCC25EF,2023-09-28_22h54.17.502,WP_VExplicitOC_HL,2022.2.5,Win32,3.529552947,NA,NA,NA,NA,NA,NA,NA,NA,NA,NA,NA,NA,NA,NA,NA,NA,NA,NA,NA,NA,NA,NA,NA,NA,NA,NA,NA,NA,NA,NA,NA,6,0,6,0,1,NA,NA,NA,NA,NA,NA,NA,NA,NA,NA,NA,NA,NA,NA,NA,NA,NA,NA,NA,NA,NA,NA,NA
SUPAMT45287,3QFUFYSY94EMFZRA4G21595XHBCF4C,8DF310F3-4744-4027-B1FE-0F85DDCC25EF,2023-09-28_22h54.17.502,WP_VExplicitOC_HL,2022.2.5,Win32,3.529552947,95.3125,4.0487,2.3367,NA,NA,NA,NA,NA,happy,"unhappy, happy","less happy, more happy",NA,NA,NA,NA,NA,NA,NA,NA,NA,NA,NA,NA,NA,NA,NA,0,0,0,0,1,NA,NA,NA,NA,NA,NA,NA,NA,NA,NA,NA,NA,NA,NA,NA,NA,NA,NA,NA,NA,NA,NA,NA,NA,NA,NA,NA,NA
SUPAMT45287,3QFUFYSY94EMFZRA4G21595XHBCF4C,8DF310F3-4744-4027-B1FE-0F85DDCC25EF,2023-09-28_22h54.17.502,WP_VExplicitOC_HL,2022.2.5,Win32,3.529552947,95.3125,3.3822,2.0133,NA,NA,NA,NA,NA,bored,"bored, not bored","more bored, less bored",NA,NA,NA,NA,NA,NA,NA,NA,NA,NA,NA,NA,NA,NA,NA,0,1,1,2,1,NA,NA,NA,NA,NA,NA,NA,NA,NA,NA,NA,NA,NA,NA,NA,NA,NA,NA,NA,NA,NA,NA,NA,NA,NA,NA,NA,NA
SUPAMT45287,3QFUFYSY94EMFZRA4G21595XHBCF4C,8DF310F3-4744-4027-B1FE-0F85DDCC25EF,2023-09-28_22h54.17.502,WP_VExplicitOC_HL,2022.2.5,Win32,3.529552947,95.3125,3.1761,2.0083,NA,NA,NA,NA,NA,frustrated,"frustrated, not frustrated","more frustrated, less frustrated",NA,NA,NA,NA,NA,NA,NA,NA,NA,NA,NA,NA,NA,NA,NA,0,2,2,1,1,NA,NA,NA,NA,NA,NA,NA,NA,NA,NA,NA,NA,NA,NA,NA,NA,NA,NA,NA,NA,NA,NA,NA,NA,NA,NA,NA,NA
SUPAMT45287,3QFUFYSY94EMFZRA4G21595XHBCF4C,8DF310F3-4744-4027-B1FE-0F85DDCC25EF,2023-09-28_22h54.17.502,WP_VExplicitOC_HL,2022.2.5,Win32,3.529552947,NA,NA,NA,NA,NA,NA,NA,NA,NA,NA,NA,NA,NA,NA,NA,NA,NA,NA,NA,NA,NA,NA,NA,NA,NA,NA,NA,NA,NA,NA,NA,7,0,7,0,1,NA,NA,NA,NA,NA,NA,NA,NA,NA,NA,NA,NA,NA,NA,NA,NA,NA,NA,NA,NA,NA,NA,NA
SUPAMT45287,3QFUFYSY94EMFZRA4G21595XHBCF4C,8DF310F3-4744-4027-B1FE-0F85DDCC25EF,2023-09-28_22h54.17.502,WP_VExplicitOC_HL,2022.2.5,Win32,3.529552947,54.16666667,3.6939,2.3307,NA,NA,NA,NA,NA,bored,"bored, not bored","more bored, less bored",NA,NA,NA,NA,NA,NA,NA,NA,NA,NA,NA,NA,NA,NA,NA,0,0,0,2,1,NA,NA,NA,NA,NA,NA,NA,NA,NA,NA,NA,NA,NA,NA,NA,NA,NA,NA,NA,NA,NA,NA,NA,NA,NA,NA,NA,NA
SUPAMT45287,3QFUFYSY94EMFZRA4G21595XHBCF4C,8DF310F3-4744-4027-B1FE-0F85DDCC25EF,2023-09-28_22h54.17.502,WP_VExplicitOC_HL,2022.2.5,Win32,3.529552947,90.88541667,4.4284,2.0321,NA,NA,NA,NA,NA,frustrated,"frustrated, not frustrated","more frustrated, less frustrated",NA,NA,NA,NA,NA,NA,NA,NA,NA,NA,NA,NA,NA,NA,NA,0,1,1,1,1,NA,NA,NA,NA,NA,NA,NA,NA,NA,NA,NA,NA,NA,NA,NA,NA,NA,NA,NA,NA,NA,NA,NA,NA,NA,NA,NA,NA
SUPAMT45287,3QFUFYSY94EMFZRA4G21595XHBCF4C,8DF310F3-4744-4027-B1FE-0F85DDCC25EF,2023-09-28_22h54.17.502,WP_VExplicitOC_HL,2022.2.5,Win32,3.529552947,91.66666667,3.0383,2.0151,NA,NA,NA,NA,NA,happy,"unhappy, happy","less happy, more happy",NA,NA,NA,NA,NA,NA,NA,NA,NA,NA,NA,NA,NA,NA,NA,0,2,2,0,1,NA,NA,NA,NA,NA,NA,NA,NA,NA,NA,NA,NA,NA,NA,NA,NA,NA,NA,NA,NA,NA,NA,NA,NA,NA,NA,NA,NA
SUPAMT45287,3QFUFYSY94EMFZRA4G21595XHBCF4C,8DF310F3-4744-4027-B1FE-0F85DDCC25EF,2023-09-28_22h54.17.502,WP_VExplicitOC_HL,2022.2.5,Win32,3.529552947,NA,NA,NA,NA,NA,NA,NA,NA,NA,NA,NA,NA,NA,NA,NA,NA,NA,NA,NA,NA,NA,NA,NA,NA,NA,NA,NA,NA,NA,NA,NA,8,0,8,0,1,NA,NA,NA,NA,NA,NA,NA,NA,NA,NA,NA,NA,NA,NA,NA,NA,NA,NA,NA,NA,NA,NA,NA
SUPAMT45287,3QFUFYSY94EMFZRA4G21595XHBCF4C,8DF310F3-4744-4027-B1FE-0F85DDCC25EF,2023-09-28_22h54.17.502,WP_VExplicitOC_HL,2022.2.5,Win32,3.529552947,91.66666667,6.4013,2.3285,NA,NA,NA,NA,NA,bored,"bored, not bored","more bored, less bored",NA,NA,NA,NA,NA,NA,NA,NA,NA,NA,NA,NA,NA,NA,NA,0,0,0,2,1,NA,NA,NA,NA,NA,NA,NA,NA,NA,NA,NA,NA,NA,NA,NA,NA,NA,NA,NA,NA,NA,NA,NA,NA,NA,NA,NA,NA
SUPAMT45287,3QFUFYSY94EMFZRA4G21595XHBCF4C,8DF310F3-4744-4027-B1FE-0F85DDCC25EF,2023-09-28_22h54.17.502,WP_VExplicitOC_HL,2022.2.5,Win32,3.529552947,91.66666667,2.362,2.0102,NA,NA,NA,NA,NA,frustrated,"frustrated, not frustrated","more frustrated, less frustrated",NA,NA,NA,NA,NA,NA,NA,NA,NA,NA,NA,NA,NA,NA,NA,0,1,1,1,1,NA,NA,NA,NA,NA,NA,NA,NA,NA,NA,NA,NA,NA,NA,NA,NA,NA,NA,NA,NA,NA,NA,NA,NA,NA,NA,NA,NA
SUPAMT45287,3QFUFYSY94EMFZRA4G21595XHBCF4C,8DF310F3-4744-4027-B1FE-0F85DDCC25EF,2023-09-28_22h54.17.502,WP_VExplicitOC_HL,2022.2.5,Win32,3.529552947,91.66666667,3.0515,2.026,NA,NA,NA,NA,NA,happy,"unhappy, happy","less happy, more happy",NA,NA,NA,NA,NA,NA,NA,NA,NA,NA,NA,NA,NA,NA,NA,0,2,2,0,1,NA,NA,NA,NA,NA,NA,NA,NA,NA,NA,NA,NA,NA,NA,NA,NA,NA,NA,NA,NA,NA,NA,NA,NA,NA,NA,NA,NA
SUPAMT45287,3QFUFYSY94EMFZRA4G21595XHBCF4C,8DF310F3-4744-4027-B1FE-0F85DDCC25EF,2023-09-28_22h54.17.502,WP_VExplicitOC_HL,2022.2.5,Win32,3.529552947,NA,NA,NA,NA,NA,NA,NA,NA,NA,NA,NA,NA,NA,NA,NA,NA,NA,NA,NA,NA,NA,NA,NA,NA,NA,NA,NA,NA,NA,NA,NA,9,0,9,0,1,NA,NA,NA,NA,NA,NA,NA,NA,NA,NA,NA,NA,NA,NA,NA,NA,NA,NA,NA,NA,NA,NA,NA
SUPAMT45287,3QFUFYSY94EMFZRA4G21595XHBCF4C,8DF310F3-4744-4027-B1FE-0F85DDCC25EF,2023-09-28_22h54.17.502,WP_VExplicitOC_HL,2022.2.5,Win32,3.529552947,92.44791667,3.3511,2.3266,NA,NA,NA,NA,NA,bored,"bored, not bored","more bored, less bored",NA,NA,NA,NA,NA,NA,NA,NA,NA,NA,NA,NA,NA,NA,NA,0,0,0,2,1,NA,NA,NA,NA,NA,NA,NA,NA,NA,NA,NA,NA,NA,NA,NA,NA,NA,NA,NA,NA,NA,NA,NA,NA,NA,NA,NA,NA
SUPAMT45287,3QFUFYSY94EMFZRA4G21595XHBCF4C,8DF310F3-4744-4027-B1FE-0F85DDCC25EF,2023-09-28_22h54.17.502,WP_VExplicitOC_HL,2022.2.5,Win32,3.529552947,92.44791667,3.7489,2.0112,NA,NA,NA,NA,NA,frustrated,"frustrated, not frustrated","more frustrated, less frustrated",NA,NA,NA,NA,NA,NA,NA,NA,NA,NA,NA,NA,NA,NA,NA,0,1,1,1,1,NA,NA,NA,NA,NA,NA,NA,NA,NA,NA,NA,NA,NA,NA,NA,NA,NA,NA,NA,NA,NA,NA,NA,NA,NA,NA,NA,NA
SUPAMT45287,3QFUFYSY94EMFZRA4G21595XHBCF4C,8DF310F3-4744-4027-B1FE-0F85DDCC25EF,2023-09-28_22h54.17.502,WP_VExplicitOC_HL,2022.2.5,Win32,3.529552947,92.96875,3.0261,2.0032,NA,NA,NA,NA,NA,happy,"unhappy, happy","less happy, more happy",NA,NA,NA,NA,NA,NA,NA,NA,NA,NA,NA,NA,NA,NA,NA,0,2,2,0,1,NA,NA,NA,NA,NA,NA,NA,NA,NA,NA,NA,NA,NA,NA,NA,NA,NA,NA,NA,NA,NA,NA,NA,NA,NA,NA,NA,NA
SUPAMT45287,3QFUFYSY94EMFZRA4G21595XHBCF4C,8DF310F3-4744-4027-B1FE-0F85DDCC25EF,2023-09-28_22h54.17.502,WP_VExplicitOC_HL,2022.2.5,Win32,3.529552947,NA,NA,NA,NA,NA,NA,NA,NA,NA,NA,NA,NA,NA,NA,NA,NA,NA,NA,NA,NA,NA,NA,NA,NA,NA,NA,NA,NA,NA,NA,NA,10,0,10,0,1,NA,NA,NA,NA,NA,NA,NA,NA,NA,NA,NA,NA,NA,NA,NA,NA,NA,NA,NA,NA,NA,NA,NA
SUPAMT45287,3QFUFYSY94EMFZRA4G21595XHBCF4C,8DF310F3-4744-4027-B1FE-0F85DDCC25EF,2023-09-28_22h54.17.502,WP_VExplicitOC_HL,2022.2.5,Win32,3.529552947,94.01041667,3.3526,2.3264,NA,NA,NA,NA,NA,bored,"bored, not bored","more bored, less bored",NA,NA,NA,NA,NA,NA,NA,NA,NA,NA,NA,NA,NA,NA,NA,0,0,0,2,1,NA,NA,NA,NA,NA,NA,NA,NA,NA,NA,NA,NA,NA,NA,NA,NA,NA,NA,NA,NA,NA,NA,NA,NA,NA,NA,NA,NA
SUPAMT45287,3QFUFYSY94EMFZRA4G21595XHBCF4C,8DF310F3-4744-4027-B1FE-0F85DDCC25EF,2023-09-28_22h54.17.502,WP_VExplicitOC_HL,2022.2.5,Win32,3.529552947,94.01041667,2.7138,2.0232,NA,NA,NA,NA,NA,happy,"unhappy, happy","less happy, more happy",NA,NA,NA,NA,NA,NA,NA,NA,NA,NA,NA,NA,NA,NA,NA,0,1,1,0,1,NA,NA,NA,NA,NA,NA,NA,NA,NA,NA,NA,NA,NA,NA,NA,NA,NA,NA,NA,NA,NA,NA,NA,NA,NA,NA,NA,NA
SUPAMT45287,3QFUFYSY94EMFZRA4G21595XHBCF4C,8DF310F3-4744-4027-B1FE-0F85DDCC25EF,2023-09-28_22h54.17.502,WP_VExplicitOC_HL,2022.2.5,Win32,3.529552947,94.01041667,3.0596,2.0229,NA,NA,NA,NA,NA,frustrated,"frustrated, not frustrated","more frustrated, less frustrated",NA,NA,NA,NA,NA,NA,NA,NA,NA,NA,NA,NA,NA,NA,NA,0,2,2,1,1,NA,NA,NA,NA,NA,NA,NA,NA,NA,NA,NA,NA,NA,NA,NA,NA,NA,NA,NA,NA,NA,NA,NA,NA,NA,NA,NA,NA
SUPAMT45287,3QFUFYSY94EMFZRA4G21595XHBCF4C,8DF310F3-4744-4027-B1FE-0F85DDCC25EF,2023-09-28_22h54.17.502,WP_VExplicitOC_HL,2022.2.5,Win32,3.529552947,NA,NA,NA,NA,NA,NA,NA,NA,NA,NA,NA,NA,NA,NA,NA,NA,NA,NA,NA,NA,NA,NA,NA,NA,NA,NA,NA,NA,NA,NA,NA,11,0,11,0,1,NA,NA,NA,NA,NA,NA,NA,NA,NA,NA,NA,NA,NA,NA,NA,NA,NA,NA,NA,NA,NA,NA,NA
SUPAMT45287,3QFUFYSY94EMFZRA4G21595XHBCF4C,8DF310F3-4744-4027-B1FE-0F85DDCC25EF,2023-09-28_22h54.17.502,WP_VExplicitOC_HL,2022.2.5,Win32,3.529552947,93.22916667,3.0476,2.0255,NA,NA,NA,NA,NA,bored,"bored, not bored","more bored, less bored",NA,NA,NA,NA,NA,NA,NA,NA,NA,NA,NA,NA,NA,NA,NA,0,0,0,2,1,NA,NA,NA,NA,NA,NA,NA,NA,NA,NA,NA,NA,NA,NA,NA,NA,NA,NA,NA,NA,NA,NA,NA,NA,NA,NA,NA,NA
SUPAMT45287,3QFUFYSY94EMFZRA4G21595XHBCF4C,8DF310F3-4744-4027-B1FE-0F85DDCC25EF,2023-09-28_22h54.17.502,WP_VExplicitOC_HL,2022.2.5,Win32,3.529552947,93.22916667,3.0321,2.0042,NA,NA,NA,NA,NA,happy,"unhappy, happy","less happy, more happy",NA,NA,NA,NA,NA,NA,NA,NA,NA,NA,NA,NA,NA,NA,NA,0,1,1,0,1,NA,NA,NA,NA,NA,NA,NA,NA,NA,NA,NA,NA,NA,NA,NA,NA,NA,NA,NA,NA,NA,NA,NA,NA,NA,NA,NA,NA
SUPAMT45287,3QFUFYSY94EMFZRA4G21595XHBCF4C,8DF310F3-4744-4027-B1FE-0F85DDCC25EF,2023-09-28_22h54.17.502,WP_VExplicitOC_HL,2022.2.5,Win32,3.529552947,93.22916667,3.0431,2.0077,NA,NA,NA,NA,NA,frustrated,"frustrated, not frustrated","more frustrated, less frustrated",NA,NA,NA,NA,NA,NA,NA,NA,NA,NA,NA,NA,NA,NA,NA,0,2,2,1,1,NA,NA,NA,NA,NA,NA,NA,NA,NA,NA,NA,NA,NA,NA,NA,NA,NA,NA,NA,NA,NA,NA,NA,NA,NA,NA,NA,NA
SUPAMT45287,3QFUFYSY94EMFZRA4G21595XHBCF4C,8DF310F3-4744-4027-B1FE-0F85DDCC25EF,2023-09-28_22h54.17.502,WP_VExplicitOC_HL,2022.2.5,Win32,3.529552947,NA,NA,NA,NA,NA,NA,NA,NA,NA,NA,NA,NA,NA,NA,NA,NA,NA,NA,NA,NA,NA,NA,NA,NA,NA,NA,NA,NA,NA,NA,NA,12,0,12,0,1,NA,NA,NA,NA,NA,NA,NA,NA,NA,NA,NA,NA,NA,NA,NA,NA,NA,NA,NA,NA,NA,NA,NA
SUPAMT45287,3QFUFYSY94EMFZRA4G21595XHBCF4C,8DF310F3-4744-4027-B1FE-0F85DDCC25EF,2023-09-28_22h54.17.502,WP_VExplicitOC_HL,2022.2.5,Win32,3.529552947,93.22916667,3.3631,2.3287,NA,NA,NA,NA,NA,frustrated,"frustrated, not frustrated","more frustrated, less frustrated",NA,NA,NA,NA,NA,NA,NA,NA,NA,NA,NA,NA,NA,NA,NA,0,0,0,1,1,NA,NA,NA,NA,NA,NA,NA,NA,NA,NA,NA,NA,NA,NA,NA,NA,NA,NA,NA,NA,NA,NA,NA,NA,NA,NA,NA,NA
SUPAMT45287,3QFUFYSY94EMFZRA4G21595XHBCF4C,8DF310F3-4744-4027-B1FE-0F85DDCC25EF,2023-09-28_22h54.17.502,WP_VExplicitOC_HL,2022.2.5,Win32,3.529552947,93.22916667,2.3464,2.0002,NA,NA,NA,NA,NA,bored,"bored, not bored","more bored, less bored",NA,NA,NA,NA,NA,NA,NA,NA,NA,NA,NA,NA,NA,NA,NA,0,1,1,2,1,NA,NA,NA,NA,NA,NA,NA,NA,NA,NA,NA,NA,NA,NA,NA,NA,NA,NA,NA,NA,NA,NA,NA,NA,NA,NA,NA,NA
SUPAMT45287,3QFUFYSY94EMFZRA4G21595XHBCF4C,8DF310F3-4744-4027-B1FE-0F85DDCC25EF,2023-09-28_22h54.17.502,WP_VExplicitOC_HL,2022.2.5,Win32,3.529552947,93.22916667,2.703,2.0163,NA,NA,NA,NA,NA,happy,"unhappy, happy","less happy, more happy",NA,NA,NA,NA,NA,NA,NA,NA,NA,NA,NA,NA,NA,NA,NA,0,2,2,0,1,NA,NA,NA,NA,NA,NA,NA,NA,NA,NA,NA,NA,NA,NA,NA,NA,NA,NA,NA,NA,NA,NA,NA,NA,NA,NA,NA,NA
SUPAMT45287,3QFUFYSY94EMFZRA4G21595XHBCF4C,8DF310F3-4744-4027-B1FE-0F85DDCC25EF,2023-09-28_22h54.17.502,WP_VExplicitOC_HL,2022.2.5,Win32,3.529552947,NA,NA,NA,NA,NA,NA,NA,NA,NA,NA,NA,NA,NA,NA,NA,NA,NA,NA,NA,NA,NA,NA,NA,NA,NA,NA,NA,NA,NA,NA,NA,13,0,13,0,1,NA,NA,NA,NA,NA,NA,NA,NA,NA,NA,NA,NA,NA,NA,NA,NA,NA,NA,NA,NA,NA,NA,NA
SUPAMT45287,3QFUFYSY94EMFZRA4G21595XHBCF4C,8DF310F3-4744-4027-B1FE-0F85DDCC25EF,2023-09-28_22h54.17.502,WP_VExplicitOC_HL,2022.2.5,Win32,3.529552947,83.33333333,4.7284,2.3297,NA,NA,NA,NA,NA,frustrated,"frustrated, not frustrated","more frustrated, less frustrated",NA,NA,NA,NA,NA,NA,NA,NA,NA,NA,NA,NA,NA,NA,NA,0,0,0,1,1,NA,NA,NA,NA,NA,NA,NA,NA,NA,NA,NA,NA,NA,NA,NA,NA,NA,NA,NA,NA,NA,NA,NA,NA,NA,NA,NA,NA
SUPAMT45287,3QFUFYSY94EMFZRA4G21595XHBCF4C,8DF310F3-4744-4027-B1FE-0F85DDCC25EF,2023-09-28_22h54.17.502,WP_VExplicitOC_HL,2022.2.5,Win32,3.529552947,88.80208333,3.718,2.0124,NA,NA,NA,NA,NA,happy,"unhappy, happy","less happy, more happy",NA,NA,NA,NA,NA,NA,NA,NA,NA,NA,NA,NA,NA,NA,NA,0,1,1,0,1,NA,NA,NA,NA,NA,NA,NA,NA,NA,NA,NA,NA,NA,NA,NA,NA,NA,NA,NA,NA,NA,NA,NA,NA,NA,NA,NA,NA
SUPAMT45287,3QFUFYSY94EMFZRA4G21595XHBCF4C,8DF310F3-4744-4027-B1FE-0F85DDCC25EF,2023-09-28_22h54.17.502,WP_VExplicitOC_HL,2022.2.5,Win32,3.529552947,88.28125,3.3634,2.333,NA,NA,NA,NA,NA,bored,"bored, not bored","more bored, less bored",NA,NA,NA,NA,NA,NA,NA,NA,NA,NA,NA,NA,NA,NA,NA,0,2,2,2,1,NA,NA,NA,NA,NA,NA,NA,NA,NA,NA,NA,NA,NA,NA,NA,NA,NA,NA,NA,NA,NA,NA,NA,NA,NA,NA,NA,NA
SUPAMT45287,3QFUFYSY94EMFZRA4G21595XHBCF4C,8DF310F3-4744-4027-B1FE-0F85DDCC25EF,2023-09-28_22h54.17.502,WP_VExplicitOC_HL,2022.2.5,Win32,3.529552947,NA,NA,NA,NA,NA,NA,NA,NA,NA,NA,NA,NA,NA,NA,NA,NA,NA,NA,NA,NA,NA,NA,NA,NA,NA,NA,NA,NA,NA,NA,NA,14,0,14,0,1,NA,NA,NA,NA,NA,NA,NA,NA,NA,NA,NA,NA,NA,NA,NA,NA,NA,NA,NA,NA,NA,NA,NA
SUPAMT45287,3QFUFYSY94EMFZRA4G21595XHBCF4C,8DF310F3-4744-4027-B1FE-0F85DDCC25EF,2023-09-28_22h54.17.502,WP_VExplicitOC_HL,2022.2.5,Win32,3.529552947,NA,NA,NA,NA,NA,NA,NA,NA,NA,NA,NA,NA,NA,NA,NA,NA,NA,NA,NA,NA,NA,NA,NA,NA,NA,NA,NA,NA,NA,NA,NA,NA,NA,NA,NA,NA,NA,NA,NA,NA,NA,NA,NA,NA,NA,NA,NA,NA,NA,NA,NA,NA,NA,NA,NA,NA,NA,NA,NA
SUPAMT45287,3QFUFYSY94EMFZRA4G21595XHBCF4C,8DF310F3-4744-4027-B1FE-0F85DDCC25EF,2023-09-28_22h54.17.502,WP_VExplicitOC_HL,2022.2.5,Win32,3.529552947,NA,NA,NA,NA,NA,NA,NA,NA,NA,NA,NA,NA,NA,NA,NA,NA,NA,NA,NA,NA,NA,NA,NA,NA,NA,NA,NA,NA,NA,NA,NA,NA,NA,NA,NA,NA,NA,NA,NA,NA,NA,NA,NA,NA,NA,NA,NA,NA,NA,NA,NA,NA,NA,NA,NA,NA,NA,NA,NA
SUPAMT45287,3QFUFYSY94EMFZRA4G21595XHBCF4C,8DF310F3-4744-4027-B1FE-0F85DDCC25EF,2023-09-28_22h54.17.502,WP_VExplicitOC_HL,2022.2.5,Win32,3.529552947,NA,NA,NA,NA,NA,NA,NA,NA,NA,NA,NA,NA,NA,NA,NA,NA,NA,NA,rest (looking at a fixed cross),001.png,NA,NA,NA,NA,NA,NA,NA,NA,NA,NA,NA,NA,NA,NA,NA,NA,82.29166667,1.7603,0,0,0,0,1,NA,NA,NA,NA,NA,NA,NA,NA,NA,NA,NA,NA,NA,NA,NA,NA
SUPAMT45287,3QFUFYSY94EMFZRA4G21595XHBCF4C,8DF310F3-4744-4027-B1FE-0F85DDCC25EF,2023-09-28_22h54.17.502,WP_VExplicitOC_HL,2022.2.5,Win32,3.529552947,NA,NA,NA,NA,NA,NA,NA,NA,NA,NA,NA,NA,NA,NA,NA,NA,NA,NA,stand up,002.png,NA,NA,NA,NA,NA,NA,NA,NA,NA,NA,NA,NA,NA,NA,NA,NA,87.23958333,0.7068,0,1,1,1,1,NA,NA,NA,NA,NA,NA,NA,NA,NA,NA,NA,NA,NA,NA,NA,NA
SUPAMT45287,3QFUFYSY94EMFZRA4G21595XHBCF4C,8DF310F3-4744-4027-B1FE-0F85DDCC25EF,2023-09-28_22h54.17.502,WP_VExplicitOC_HL,2022.2.5,Win32,3.529552947,NA,NA,NA,NA,NA,NA,NA,NA,NA,NA,NA,NA,NA,NA,NA,NA,NA,NA,stretch,003.png,NA,NA,NA,NA,NA,NA,NA,NA,NA,NA,NA,NA,NA,NA,NA,NA,87.23958333,0.7036,0,2,2,2,1,NA,NA,NA,NA,NA,NA,NA,NA,NA,NA,NA,NA,NA,NA,NA,NA
SUPAMT45287,3QFUFYSY94EMFZRA4G21595XHBCF4C,8DF310F3-4744-4027-B1FE-0F85DDCC25EF,2023-09-28_22h54.17.502,WP_VExplicitOC_HL,2022.2.5,Win32,3.529552947,NA,NA,NA,NA,NA,NA,NA,NA,NA,NA,NA,NA,NA,NA,NA,NA,NA,NA,make a drink,004.png,NA,NA,NA,NA,NA,NA,NA,NA,NA,NA,NA,NA,NA,NA,NA,NA,87.23958333,0.3606,0,3,3,3,1,NA,NA,NA,NA,NA,NA,NA,NA,NA,NA,NA,NA,NA,NA,NA,NA
SUPAMT45287,3QFUFYSY94EMFZRA4G21595XHBCF4C,8DF310F3-4744-4027-B1FE-0F85DDCC25EF,2023-09-28_22h54.17.502,WP_VExplicitOC_HL,2022.2.5,Win32,3.529552947,NA,NA,NA,NA,NA,NA,NA,NA,NA,NA,NA,NA,NA,NA,NA,NA,NA,NA,scroll social media,005.png,NA,NA,NA,NA,NA,NA,NA,NA,NA,NA,NA,NA,NA,NA,NA,NA,87.23958333,0.3773,0,4,4,4,1,NA,NA,NA,NA,NA,NA,NA,NA,NA,NA,NA,NA,NA,NA,NA,NA
SUPAMT45287,3QFUFYSY94EMFZRA4G21595XHBCF4C,8DF310F3-4744-4027-B1FE-0F85DDCC25EF,2023-09-28_22h54.17.502,WP_VExplicitOC_HL,2022.2.5,Win32,3.529552947,NA,NA,NA,NA,NA,NA,NA,NA,NA,NA,NA,NA,NA,NA,NA,NA,NA,NA,listen to music,006.png,NA,NA,NA,NA,NA,NA,NA,NA,NA,NA,NA,NA,NA,NA,NA,NA,87.23958333,0.3641,0,5,5,5,1,NA,NA,NA,NA,NA,NA,NA,NA,NA,NA,NA,NA,NA,NA,NA,NA
SUPAMT45287,3QFUFYSY94EMFZRA4G21595XHBCF4C,8DF310F3-4744-4027-B1FE-0F85DDCC25EF,2023-09-28_22h54.17.502,WP_VExplicitOC_HL,2022.2.5,Win32,3.529552947,NA,NA,NA,NA,NA,NA,NA,NA,NA,NA,NA,NA,NA,NA,NA,NA,NA,NA,daydream,007.png,NA,NA,NA,NA,NA,NA,NA,NA,NA,NA,NA,NA,NA,NA,NA,NA,87.23958333,0.3709,0,6,6,6,1,NA,NA,NA,NA,NA,NA,NA,NA,NA,NA,NA,NA,NA,NA,NA,NA
SUPAMT45287,3QFUFYSY94EMFZRA4G21595XHBCF4C,8DF310F3-4744-4027-B1FE-0F85DDCC25EF,2023-09-28_22h54.17.502,WP_VExplicitOC_HL,2022.2.5,Win32,3.529552947,NA,NA,NA,NA,NA,NA,NA,NA,NA,NA,NA,NA,NA,NA,NA,NA,NA,NA,watch a short animation,008.png,NA,NA,NA,NA,NA,NA,NA,NA,NA,NA,NA,NA,NA,NA,NA,NA,87.23958333,0.3641,0,7,7,7,1,NA,NA,NA,NA,NA,NA,NA,NA,NA,NA,NA,NA,NA,NA,NA,NA
SUPAMT45287,3QFUFYSY94EMFZRA4G21595XHBCF4C,8DF310F3-4744-4027-B1FE-0F85DDCC25EF,2023-09-28_22h54.17.502,WP_VExplicitOC_HL,2022.2.5,Win32,3.529552947,NA,NA,NA,NA,NA,NA,NA,NA,NA,NA,NA,NA,NA,NA,NA,NA,NA,NA,read a novel,009.png,NA,NA,NA,NA,NA,NA,NA,NA,NA,NA,NA,NA,NA,NA,NA,NA,87.23958333,0.3606,0,8,8,8,1,NA,NA,NA,NA,NA,NA,NA,NA,NA,NA,NA,NA,NA,NA,NA,NA
SUPAMT45287,3QFUFYSY94EMFZRA4G21595XHBCF4C,8DF310F3-4744-4027-B1FE-0F85DDCC25EF,2023-09-28_22h54.17.502,WP_VExplicitOC_HL,2022.2.5,Win32,3.529552947,NA,NA,NA,NA,NA,NA,NA,NA,NA,NA,NA,NA,NA,NA,NA,NA,NA,NA,read the news,010.png,NA,NA,NA,NA,NA,NA,NA,NA,NA,NA,NA,NA,NA,NA,NA,NA,87.23958333,0.725,0,9,9,9,1,NA,NA,NA,NA,NA,NA,NA,NA,NA,NA,NA,NA,NA,NA,NA,NA
SUPAMT45287,3QFUFYSY94EMFZRA4G21595XHBCF4C,8DF310F3-4744-4027-B1FE-0F85DDCC25EF,2023-09-28_22h54.17.502,WP_VExplicitOC_HL,2022.2.5,Win32,3.529552947,NA,NA,NA,NA,NA,NA,NA,NA,NA,NA,NA,NA,NA,NA,NA,NA,NA,NA,NA,NA,NA,NA,NA,NA,NA,NA,NA,NA,NA,NA,NA,NA,NA,NA,NA,NA,NA,NA,NA,NA,NA,NA,NA,stand up,NA,NA,NA,NA,NA,NA,NA,NA,NA,NA,NA,NA,NA,NA,NA
SUPAMT45287,3QFUFYSY94EMFZRA4G21595XHBCF4C,8DF310F3-4744-4027-B1FE-0F85DDCC25EF,2023-09-28_22h54.17.502,WP_VExplicitOC_HL,2022.2.5,Win32,3.529552947,87.23958333,4.0243,2.325,NA,NA,NA,NA,NA,happy,"unhappy, happy","less happy, more happy",NA,NA,NA,NA,NA,NA,NA,NA,NA,NA,NA,NA,NA,NA,NA,NA,NA,NA,NA,NA,NA,NA,NA,NA,NA,NA,NA,NA,NA,NA,NA,NA,NA,0,0,0,0,1,NA,NA,NA,NA,NA,NA,NA,NA,NA,NA
SUPAMT45287,3QFUFYSY94EMFZRA4G21595XHBCF4C,8DF310F3-4744-4027-B1FE-0F85DDCC25EF,2023-09-28_22h54.17.502,WP_VExplicitOC_HL,2022.2.5,Win32,3.529552947,87.23958333,3.3819,2.0111,NA,NA,NA,NA,NA,frustrated,"frustrated, not frustrated","more frustrated, less frustrated",NA,NA,NA,NA,NA,NA,NA,NA,NA,NA,NA,NA,NA,NA,NA,NA,NA,NA,NA,NA,NA,NA,NA,NA,NA,NA,NA,NA,NA,NA,NA,NA,NA,0,1,1,1,1,NA,NA,NA,NA,NA,NA,NA,NA,NA,NA
SUPAMT45287,3QFUFYSY94EMFZRA4G21595XHBCF4C,8DF310F3-4744-4027-B1FE-0F85DDCC25EF,2023-09-28_22h54.17.502,WP_VExplicitOC_HL,2022.2.5,Win32,3.529552947,87.23958333,3.7026,2.0007,NA,NA,NA,NA,NA,bored,"bored, not bored","more bored, less bored",NA,NA,NA,NA,NA,NA,NA,NA,NA,NA,NA,NA,NA,NA,NA,NA,NA,NA,NA,NA,NA,NA,NA,NA,NA,NA,NA,NA,NA,NA,NA,NA,NA,0,2,2,2,1,NA,NA,NA,NA,NA,NA,NA,NA,NA,NA
SUPAMT45287,3QFUFYSY94EMFZRA4G21595XHBCF4C,8DF310F3-4744-4027-B1FE-0F85DDCC25EF,2023-09-28_22h54.17.502,WP_VExplicitOC_HL,2022.2.5,Win32,3.529552947,NA,NA,NA,NA,NA,NA,NA,NA,NA,NA,NA,NA,NA,NA,NA,NA,NA,NA,NA,NA,NA,NA,NA,NA,NA,NA,NA,NA,NA,NA,NA,NA,NA,NA,NA,NA,NA,NA,NA,NA,NA,NA,NA,NA,NA,NA,NA,NA,NA,NA,NA,NA,NA,NA,NA,NA,NA,NA,NA
SUPAMT45287,3QFUFYSY94EMFZRA4G21595XHBCF4C,8DF310F3-4744-4027-B1FE-0F85DDCC25EF,2023-09-28_22h54.17.502,WP_VExplicitOC_HL,2022.2.5,Win32,3.529552947,NA,NA,NA,NA,NA,NA,NA,NA,NA,NA,NA,NA,NA,NA,NA,NA,NA,NA,NA,NA,NA,NA,NA,NA,NA,NA,NA,NA,NA,NA,NA,NA,NA,NA,NA,NA,NA,NA,NA,NA,NA,NA,NA,NA,NA,NA,NA,NA,NA,NA,NA,NA,NA,NA,NA,NA,NA,NA,NA
SUPAMT45287,3QFUFYSY94EMFZRA4G21595XHBCF4C,8DF310F3-4744-4027-B1FE-0F85DDCC25EF,2023-09-28_22h54.17.502,WP_VExplicitOC_HL,2022.2.5,Win32,3.529552947,87.23958333,3.3544,2.3267,NA,NA,NA,NA,NA,happy,"unhappy, happy","less happy, more happy",NA,NA,NA,NA,NA,NA,NA,NA,NA,NA,NA,NA,NA,NA,NA,NA,NA,NA,NA,NA,NA,NA,NA,NA,NA,NA,NA,NA,NA,NA,NA,NA,NA,NA,NA,NA,NA,NA,0,0,0,0,1,NA,NA,NA,NA,NA
SUPAMT45287,3QFUFYSY94EMFZRA4G21595XHBCF4C,8DF310F3-4744-4027-B1FE-0F85DDCC25EF,2023-09-28_22h54.17.502,WP_VExplicitOC_HL,2022.2.5,Win32,3.529552947,87.23958333,3.0403,2.0066,NA,NA,NA,NA,NA,frustrated,"frustrated, not frustrated","more frustrated, less frustrated",NA,NA,NA,NA,NA,NA,NA,NA,NA,NA,NA,NA,NA,NA,NA,NA,NA,NA,NA,NA,NA,NA,NA,NA,NA,NA,NA,NA,NA,NA,NA,NA,NA,NA,NA,NA,NA,NA,0,1,1,1,1,NA,NA,NA,NA,NA
SUPAMT45287,3QFUFYSY94EMFZRA4G21595XHBCF4C,8DF310F3-4744-4027-B1FE-0F85DDCC25EF,2023-09-28_22h54.17.502,WP_VExplicitOC_HL,2022.2.5,Win32,3.529552947,87.23958333,3.3542,2.3322,NA,NA,NA,NA,NA,bored,"bored, not bored","more bored, less bored",NA,NA,NA,NA,NA,NA,NA,NA,NA,NA,NA,NA,NA,NA,NA,NA,NA,NA,NA,NA,NA,NA,NA,NA,NA,NA,NA,NA,NA,NA,NA,NA,NA,NA,NA,NA,NA,NA,0,2,2,2,1,NA,NA,NA,NA,NA
SUPAMT45287,3QFUFYSY94EMFZRA4G21595XHBCF4C,8DF310F3-4744-4027-B1FE-0F85DDCC25EF,2023-09-28_22h54.17.502,WP_VExplicitOC_HL,2022.2.5,Win32,3.529552947,NA,NA,NA,NA,NA,NA,NA,NA,NA,NA,NA,NA,NA,NA,NA,NA,NA,NA,NA,NA,NA,NA,NA,NA,NA,NA,NA,NA,NA,NA,NA,NA,NA,NA,NA,NA,NA,NA,NA,NA,NA,NA,NA,NA,NA,NA,NA,NA,NA,NA,NA,NA,NA,NA,0,0,0,0,1
SUPAMT45287,3QFUFYSY94EMFZRA4G21595XHBCF4C,8DF310F3-4744-4027-B1FE-0F85DDCC25EF,2023-09-28_22h54.17.502,WP_VExplicitOC_HL,2022.2.5,Win32,3.529552947,87.23958333,3.3602,2.3317,NA,NA,NA,NA,NA,frustrated,"frustrated, not frustrated","more frustrated, less frustrated",NA,NA,NA,NA,NA,NA,NA,NA,NA,NA,NA,NA,NA,NA,NA,NA,NA,NA,NA,NA,NA,NA,NA,NA,NA,NA,NA,NA,NA,NA,NA,NA,NA,NA,NA,NA,NA,NA,0,0,0,1,1,NA,NA,NA,NA,NA
SUPAMT45287,3QFUFYSY94EMFZRA4G21595XHBCF4C,8DF310F3-4744-4027-B1FE-0F85DDCC25EF,2023-09-28_22h54.17.502,WP_VExplicitOC_HL,2022.2.5,Win32,3.529552947,87.23958333,3.3569,2.3311,NA,NA,NA,NA,NA,bored,"bored, not bored","more bored, less bored",NA,NA,NA,NA,NA,NA,NA,NA,NA,NA,NA,NA,NA,NA,NA,NA,NA,NA,NA,NA,NA,NA,NA,NA,NA,NA,NA,NA,NA,NA,NA,NA,NA,NA,NA,NA,NA,NA,0,1,1,2,1,NA,NA,NA,NA,NA
SUPAMT45287,3QFUFYSY94EMFZRA4G21595XHBCF4C,8DF310F3-4744-4027-B1FE-0F85DDCC25EF,2023-09-28_22h54.17.502,WP_VExplicitOC_HL,2022.2.5,Win32,3.529552947,87.23958333,3.0267,2.0002,NA,NA,NA,NA,NA,happy,"unhappy, happy","less happy, more happy",NA,NA,NA,NA,NA,NA,NA,NA,NA,NA,NA,NA,NA,NA,NA,NA,NA,NA,NA,NA,NA,NA,NA,NA,NA,NA,NA,NA,NA,NA,NA,NA,NA,NA,NA,NA,NA,NA,0,2,2,0,1,NA,NA,NA,NA,NA
SUPAMT45287,3QFUFYSY94EMFZRA4G21595XHBCF4C,8DF310F3-4744-4027-B1FE-0F85DDCC25EF,2023-09-28_22h54.17.502,WP_VExplicitOC_HL,2022.2.5,Win32,3.529552947,NA,NA,NA,NA,NA,NA,NA,NA,NA,NA,NA,NA,NA,NA,NA,NA,NA,NA,NA,NA,NA,NA,NA,NA,NA,NA,NA,NA,NA,NA,NA,NA,NA,NA,NA,NA,NA,NA,NA,NA,NA,NA,NA,NA,NA,NA,NA,NA,NA,NA,NA,NA,NA,NA,1,0,1,0,1
SUPAMT45287,3QFUFYSY94EMFZRA4G21595XHBCF4C,8DF310F3-4744-4027-B1FE-0F85DDCC25EF,2023-09-28_22h54.17.502,WP_VExplicitOC_HL,2022.2.5,Win32,3.529552947,87.23958333,3.362,2.3331,NA,NA,NA,NA,NA,frustrated,"frustrated, not frustrated","more frustrated, less frustrated",NA,NA,NA,NA,NA,NA,NA,NA,NA,NA,NA,NA,NA,NA,NA,NA,NA,NA,NA,NA,NA,NA,NA,NA,NA,NA,NA,NA,NA,NA,NA,NA,NA,NA,NA,NA,NA,NA,0,0,0,1,1,NA,NA,NA,NA,NA
SUPAMT45287,3QFUFYSY94EMFZRA4G21595XHBCF4C,8DF310F3-4744-4027-B1FE-0F85DDCC25EF,2023-09-28_22h54.17.502,WP_VExplicitOC_HL,2022.2.5,Win32,3.529552947,87.23958333,3.3667,2.0027,NA,NA,NA,NA,NA,bored,"bored, not bored","more bored, less bored",NA,NA,NA,NA,NA,NA,NA,NA,NA,NA,NA,NA,NA,NA,NA,NA,NA,NA,NA,NA,NA,NA,NA,NA,NA,NA,NA,NA,NA,NA,NA,NA,NA,NA,NA,NA,NA,NA,0,1,1,2,1,NA,NA,NA,NA,NA
SUPAMT45287,3QFUFYSY94EMFZRA4G21595XHBCF4C,8DF310F3-4744-4027-B1FE-0F85DDCC25EF,2023-09-28_22h54.17.502,WP_VExplicitOC_HL,2022.2.5,Win32,3.529552947,87.23958333,3.0265,2.0015,NA,NA,NA,NA,NA,happy,"unhappy, happy","less happy, more happy",NA,NA,NA,NA,NA,NA,NA,NA,NA,NA,NA,NA,NA,NA,NA,NA,NA,NA,NA,NA,NA,NA,NA,NA,NA,NA,NA,NA,NA,NA,NA,NA,NA,NA,NA,NA,NA,NA,0,2,2,0,1,NA,NA,NA,NA,NA
SUPAMT45287,3QFUFYSY94EMFZRA4G21595XHBCF4C,8DF310F3-4744-4027-B1FE-0F85DDCC25EF,2023-09-28_22h54.17.502,WP_VExplicitOC_HL,2022.2.5,Win32,3.529552947,NA,NA,NA,NA,NA,NA,NA,NA,NA,NA,NA,NA,NA,NA,NA,NA,NA,NA,NA,NA,NA,NA,NA,NA,NA,NA,NA,NA,NA,NA,NA,NA,NA,NA,NA,NA,NA,NA,NA,NA,NA,NA,NA,NA,NA,NA,NA,NA,NA,NA,NA,NA,NA,NA,2,0,2,0,1
SUPAMT45287,3QFUFYSY94EMFZRA4G21595XHBCF4C,8DF310F3-4744-4027-B1FE-0F85DDCC25EF,2023-09-28_22h54.17.502,WP_VExplicitOC_HL,2022.2.5,Win32,3.529552947,87.23958333,3.0709,2.032,NA,NA,NA,NA,NA,frustrated,"frustrated, not frustrated","more frustrated, less frustrated",NA,NA,NA,NA,NA,NA,NA,NA,NA,NA,NA,NA,NA,NA,NA,NA,NA,NA,NA,NA,NA,NA,NA,NA,NA,NA,NA,NA,NA,NA,NA,NA,NA,NA,NA,NA,NA,NA,0,0,0,1,1,NA,NA,NA,NA,NA
SUPAMT45287,3QFUFYSY94EMFZRA4G21595XHBCF4C,8DF310F3-4744-4027-B1FE-0F85DDCC25EF,2023-09-28_22h54.17.502,WP_VExplicitOC_HL,2022.2.5,Win32,3.529552947,87.23958333,4.1111,2.0679,NA,NA,NA,NA,NA,happy,"unhappy, happy","less happy, more happy",NA,NA,NA,NA,NA,NA,NA,NA,NA,NA,NA,NA,NA,NA,NA,NA,NA,NA,NA,NA,NA,NA,NA,NA,NA,NA,NA,NA,NA,NA,NA,NA,NA,NA,NA,NA,NA,NA,0,1,1,0,1,NA,NA,NA,NA,NA
SUPAMT45287,3QFUFYSY94EMFZRA4G21595XHBCF4C,8DF310F3-4744-4027-B1FE-0F85DDCC25EF,2023-09-28_22h54.17.502,WP_VExplicitOC_HL,2022.2.5,Win32,3.529552947,87.23958333,3.0239,2.0001,NA,NA,NA,NA,NA,bored,"bored, not bored","more bored, less bored",NA,NA,NA,NA,NA,NA,NA,NA,NA,NA,NA,NA,NA,NA,NA,NA,NA,NA,NA,NA,NA,NA,NA,NA,NA,NA,NA,NA,NA,NA,NA,NA,NA,NA,NA,NA,NA,NA,0,2,2,2,1,NA,NA,NA,NA,NA
SUPAMT45287,3QFUFYSY94EMFZRA4G21595XHBCF4C,8DF310F3-4744-4027-B1FE-0F85DDCC25EF,2023-09-28_22h54.17.502,WP_VExplicitOC_HL,2022.2.5,Win32,3.529552947,NA,NA,NA,NA,NA,NA,NA,NA,NA,NA,NA,NA,NA,NA,NA,NA,NA,NA,NA,NA,NA,NA,NA,NA,NA,NA,NA,NA,NA,NA,NA,NA,NA,NA,NA,NA,NA,NA,NA,NA,NA,NA,NA,NA,NA,NA,NA,NA,NA,NA,NA,NA,NA,NA,3,0,3,0,1
SUPAMT45287,3QFUFYSY94EMFZRA4G21595XHBCF4C,8DF310F3-4744-4027-B1FE-0F85DDCC25EF,2023-09-28_22h54.17.502,WP_VExplicitOC_HL,2022.2.5,Win32,3.529552947,90.625,3.4036,2.0196,NA,NA,NA,NA,NA,happy,"unhappy, happy","less happy, more happy",NA,NA,NA,NA,NA,NA,NA,NA,NA,NA,NA,NA,NA,NA,NA,NA,NA,NA,NA,NA,NA,NA,NA,NA,NA,NA,NA,NA,NA,NA,NA,NA,NA,NA,NA,NA,NA,NA,0,0,0,0,1,NA,NA,NA,NA,NA
SUPAMT45287,3QFUFYSY94EMFZRA4G21595XHBCF4C,8DF310F3-4744-4027-B1FE-0F85DDCC25EF,2023-09-28_22h54.17.502,WP_VExplicitOC_HL,2022.2.5,Win32,3.529552947,90.88541667,3.0547,2.0223,NA,NA,NA,NA,NA,bored,"bored, not bored","more bored, less bored",NA,NA,NA,NA,NA,NA,NA,NA,NA,NA,NA,NA,NA,NA,NA,NA,NA,NA,NA,NA,NA,NA,NA,NA,NA,NA,NA,NA,NA,NA,NA,NA,NA,NA,NA,NA,NA,NA,0,1,1,2,1,NA,NA,NA,NA,NA
SUPAMT45287,3QFUFYSY94EMFZRA4G21595XHBCF4C,8DF310F3-4744-4027-B1FE-0F85DDCC25EF,2023-09-28_22h54.17.502,WP_VExplicitOC_HL,2022.2.5,Win32,3.529552947,90.88541667,3.0608,2.0267,NA,NA,NA,NA,NA,frustrated,"frustrated, not frustrated","more frustrated, less frustrated",NA,NA,NA,NA,NA,NA,NA,NA,NA,NA,NA,NA,NA,NA,NA,NA,NA,NA,NA,NA,NA,NA,NA,NA,NA,NA,NA,NA,NA,NA,NA,NA,NA,NA,NA,NA,NA,NA,0,2,2,1,1,NA,NA,NA,NA,NA
SUPAMT45287,3QFUFYSY94EMFZRA4G21595XHBCF4C,8DF310F3-4744-4027-B1FE-0F85DDCC25EF,2023-09-28_22h54.17.502,WP_VExplicitOC_HL,2022.2.5,Win32,3.529552947,NA,NA,NA,NA,NA,NA,NA,NA,NA,NA,NA,NA,NA,NA,NA,NA,NA,NA,NA,NA,NA,NA,NA,NA,NA,NA,NA,NA,NA,NA,NA,NA,NA,NA,NA,NA,NA,NA,NA,NA,NA,NA,NA,NA,NA,NA,NA,NA,NA,NA,NA,NA,NA,NA,4,0,4,0,1
SUPAMT45287,3QFUFYSY94EMFZRA4G21595XHBCF4C,8DF310F3-4744-4027-B1FE-0F85DDCC25EF,2023-09-28_22h54.17.502,WP_VExplicitOC_HL,2022.2.5,Win32,3.529552947,90.36458333,4.0324,2.3252,NA,NA,NA,NA,NA,bored,"bored, not bored","more bored, less bored",NA,NA,NA,NA,NA,NA,NA,NA,NA,NA,NA,NA,NA,NA,NA,NA,NA,NA,NA,NA,NA,NA,NA,NA,NA,NA,NA,NA,NA,NA,NA,NA,NA,NA,NA,NA,NA,NA,0,0,0,2,1,NA,NA,NA,NA,NA
SUPAMT45287,3QFUFYSY94EMFZRA4G21595XHBCF4C,8DF310F3-4744-4027-B1FE-0F85DDCC25EF,2023-09-28_22h54.17.502,WP_VExplicitOC_HL,2022.2.5,Win32,3.529552947,90.36458333,3.0256,2.0012,NA,NA,NA,NA,NA,happy,"unhappy, happy","less happy, more happy",NA,NA,NA,NA,NA,NA,NA,NA,NA,NA,NA,NA,NA,NA,NA,NA,NA,NA,NA,NA,NA,NA,NA,NA,NA,NA,NA,NA,NA,NA,NA,NA,NA,NA,NA,NA,NA,NA,0,1,1,0,1,NA,NA,NA,NA,NA
SUPAMT45287,3QFUFYSY94EMFZRA4G21595XHBCF4C,8DF310F3-4744-4027-B1FE-0F85DDCC25EF,2023-09-28_22h54.17.502,WP_VExplicitOC_HL,2022.2.5,Win32,3.529552947,90.36458333,3.037,2.0073,NA,NA,NA,NA,NA,frustrated,"frustrated, not frustrated","more frustrated, less frustrated",NA,NA,NA,NA,NA,NA,NA,NA,NA,NA,NA,NA,NA,NA,NA,NA,NA,NA,NA,NA,NA,NA,NA,NA,NA,NA,NA,NA,NA,NA,NA,NA,NA,NA,NA,NA,NA,NA,0,2,2,1,1,NA,NA,NA,NA,NA
SUPAMT45287,3QFUFYSY94EMFZRA4G21595XHBCF4C,8DF310F3-4744-4027-B1FE-0F85DDCC25EF,2023-09-28_22h54.17.502,WP_VExplicitOC_HL,2022.2.5,Win32,3.529552947,NA,NA,NA,NA,NA,NA,NA,NA,NA,NA,NA,NA,NA,NA,NA,NA,NA,NA,NA,NA,NA,NA,NA,NA,NA,NA,NA,NA,NA,NA,NA,NA,NA,NA,NA,NA,NA,NA,NA,NA,NA,NA,NA,NA,NA,NA,NA,NA,NA,NA,NA,NA,NA,NA,5,0,5,0,1
SUPAMT45287,3QFUFYSY94EMFZRA4G21595XHBCF4C,8DF310F3-4744-4027-B1FE-0F85DDCC25EF,2023-09-28_22h54.17.502,WP_VExplicitOC_HL,2022.2.5,Win32,3.529552947,90.36458333,2.681,2.3328,NA,NA,NA,NA,NA,frustrated,"frustrated, not frustrated","more frustrated, less frustrated",NA,NA,NA,NA,NA,NA,NA,NA,NA,NA,NA,NA,NA,NA,NA,NA,NA,NA,NA,NA,NA,NA,NA,NA,NA,NA,NA,NA,NA,NA,NA,NA,NA,NA,NA,NA,NA,NA,0,0,0,1,1,NA,NA,NA,NA,NA
SUPAMT45287,3QFUFYSY94EMFZRA4G21595XHBCF4C,8DF310F3-4744-4027-B1FE-0F85DDCC25EF,2023-09-28_22h54.17.502,WP_VExplicitOC_HL,2022.2.5,Win32,3.529552947,90.36458333,3.3559,2.3301,NA,NA,NA,NA,NA,happy,"unhappy, happy","less happy, more happy",NA,NA,NA,NA,NA,NA,NA,NA,NA,NA,NA,NA,NA,NA,NA,NA,NA,NA,NA,NA,NA,NA,NA,NA,NA,NA,NA,NA,NA,NA,NA,NA,NA,NA,NA,NA,NA,NA,0,1,1,0,1,NA,NA,NA,NA,NA
SUPAMT45287,3QFUFYSY94EMFZRA4G21595XHBCF4C,8DF310F3-4744-4027-B1FE-0F85DDCC25EF,2023-09-28_22h54.17.502,WP_VExplicitOC_HL,2022.2.5,Win32,3.529552947,90.88541667,3.0505,2.0248,NA,NA,NA,NA,NA,bored,"bored, not bored","more bored, less bored",NA,NA,NA,NA,NA,NA,NA,NA,NA,NA,NA,NA,NA,NA,NA,NA,NA,NA,NA,NA,NA,NA,NA,NA,NA,NA,NA,NA,NA,NA,NA,NA,NA,NA,NA,NA,NA,NA,0,2,2,2,1,NA,NA,NA,NA,NA
SUPAMT45287,3QFUFYSY94EMFZRA4G21595XHBCF4C,8DF310F3-4744-4027-B1FE-0F85DDCC25EF,2023-09-28_22h54.17.502,WP_VExplicitOC_HL,2022.2.5,Win32,3.529552947,NA,NA,NA,NA,NA,NA,NA,NA,NA,NA,NA,NA,NA,NA,NA,NA,NA,NA,NA,NA,NA,NA,NA,NA,NA,NA,NA,NA,NA,NA,NA,NA,NA,NA,NA,NA,NA,NA,NA,NA,NA,NA,NA,NA,NA,NA,NA,NA,NA,NA,NA,NA,NA,NA,6,0,6,0,1
SUPAMT45287,3QFUFYSY94EMFZRA4G21595XHBCF4C,8DF310F3-4744-4027-B1FE-0F85DDCC25EF,2023-09-28_22h54.17.502,WP_VExplicitOC_HL,2022.2.5,Win32,3.529552947,90.88541667,3.3607,2.3309,NA,NA,NA,NA,NA,frustrated,"frustrated, not frustrated","more frustrated, less frustrated",NA,NA,NA,NA,NA,NA,NA,NA,NA,NA,NA,NA,NA,NA,NA,NA,NA,NA,NA,NA,NA,NA,NA,NA,NA,NA,NA,NA,NA,NA,NA,NA,NA,NA,NA,NA,NA,NA,0,0,0,1,1,NA,NA,NA,NA,NA
SUPAMT45287,3QFUFYSY94EMFZRA4G21595XHBCF4C,8DF310F3-4744-4027-B1FE-0F85DDCC25EF,2023-09-28_22h54.17.502,WP_VExplicitOC_HL,2022.2.5,Win32,3.529552947,90.88541667,3.355,2.3317,NA,NA,NA,NA,NA,bored,"bored, not bored","more bored, less bored",NA,NA,NA,NA,NA,NA,NA,NA,NA,NA,NA,NA,NA,NA,NA,NA,NA,NA,NA,NA,NA,NA,NA,NA,NA,NA,NA,NA,NA,NA,NA,NA,NA,NA,NA,NA,NA,NA,0,1,1,2,1,NA,NA,NA,NA,NA
SUPAMT45287,3QFUFYSY94EMFZRA4G21595XHBCF4C,8DF310F3-4744-4027-B1FE-0F85DDCC25EF,2023-09-28_22h54.17.502,WP_VExplicitOC_HL,2022.2.5,Win32,3.529552947,90.88541667,3.3586,2.333,NA,NA,NA,NA,NA,happy,"unhappy, happy","less happy, more happy",NA,NA,NA,NA,NA,NA,NA,NA,NA,NA,NA,NA,NA,NA,NA,NA,NA,NA,NA,NA,NA,NA,NA,NA,NA,NA,NA,NA,NA,NA,NA,NA,NA,NA,NA,NA,NA,NA,0,2,2,0,1,NA,NA,NA,NA,NA
SUPAMT45287,3QFUFYSY94EMFZRA4G21595XHBCF4C,8DF310F3-4744-4027-B1FE-0F85DDCC25EF,2023-09-28_22h54.17.502,WP_VExplicitOC_HL,2022.2.5,Win32,3.529552947,NA,NA,NA,NA,NA,NA,NA,NA,NA,NA,NA,NA,NA,NA,NA,NA,NA,NA,NA,NA,NA,NA,NA,NA,NA,NA,NA,NA,NA,NA,NA,NA,NA,NA,NA,NA,NA,NA,NA,NA,NA,NA,NA,NA,NA,NA,NA,NA,NA,NA,NA,NA,NA,NA,7,0,7,0,1
SUPAMT45287,3QFUFYSY94EMFZRA4G21595XHBCF4C,8DF310F3-4744-4027-B1FE-0F85DDCC25EF,2023-09-28_22h54.17.502,WP_VExplicitOC_HL,2022.2.5,Win32,3.529552947,90.88541667,3.3483,2.3244,NA,NA,NA,NA,NA,happy,"unhappy, happy","less happy, more happy",NA,NA,NA,NA,NA,NA,NA,NA,NA,NA,NA,NA,NA,NA,NA,NA,NA,NA,NA,NA,NA,NA,NA,NA,NA,NA,NA,NA,NA,NA,NA,NA,NA,NA,NA,NA,NA,NA,0,0,0,0,1,NA,NA,NA,NA,NA
SUPAMT45287,3QFUFYSY94EMFZRA4G21595XHBCF4C,8DF310F3-4744-4027-B1FE-0F85DDCC25EF,2023-09-28_22h54.17.502,WP_VExplicitOC_HL,2022.2.5,Win32,3.529552947,90.88541667,2.3724,2.0214,NA,NA,NA,NA,NA,bored,"bored, not bored","more bored, less bored",NA,NA,NA,NA,NA,NA,NA,NA,NA,NA,NA,NA,NA,NA,NA,NA,NA,NA,NA,NA,NA,NA,NA,NA,NA,NA,NA,NA,NA,NA,NA,NA,NA,NA,NA,NA,NA,NA,0,1,1,2,1,NA,NA,NA,NA,NA
SUPAMT45287,3QFUFYSY94EMFZRA4G21595XHBCF4C,8DF310F3-4744-4027-B1FE-0F85DDCC25EF,2023-09-28_22h54.17.502,WP_VExplicitOC_HL,2022.2.5,Win32,3.529552947,90.88541667,2.3583,2.0098,NA,NA,NA,NA,NA,frustrated,"frustrated, not frustrated","more frustrated, less frustrated",NA,NA,NA,NA,NA,NA,NA,NA,NA,NA,NA,NA,NA,NA,NA,NA,NA,NA,NA,NA,NA,NA,NA,NA,NA,NA,NA,NA,NA,NA,NA,NA,NA,NA,NA,NA,NA,NA,0,2,2,1,1,NA,NA,NA,NA,NA
SUPAMT45287,3QFUFYSY94EMFZRA4G21595XHBCF4C,8DF310F3-4744-4027-B1FE-0F85DDCC25EF,2023-09-28_22h54.17.502,WP_VExplicitOC_HL,2022.2.5,Win32,3.529552947,NA,NA,NA,NA,NA,NA,NA,NA,NA,NA,NA,NA,NA,NA,NA,NA,NA,NA,NA,NA,NA,NA,NA,NA,NA,NA,NA,NA,NA,NA,NA,NA,NA,NA,NA,NA,NA,NA,NA,NA,NA,NA,NA,NA,NA,NA,NA,NA,NA,NA,NA,NA,NA,NA,8,0,8,0,1
SUPAMT45287,3QFUFYSY94EMFZRA4G21595XHBCF4C,8DF310F3-4744-4027-B1FE-0F85DDCC25EF,2023-09-28_22h54.17.502,WP_VExplicitOC_HL,2022.2.5,Win32,3.529552947,90.88541667,3.7284,2.0161,NA,NA,NA,NA,NA,frustrated,"frustrated, not frustrated","more frustrated, less frustrated",NA,NA,NA,NA,NA,NA,NA,NA,NA,NA,NA,NA,NA,NA,NA,NA,NA,NA,NA,NA,NA,NA,NA,NA,NA,NA,NA,NA,NA,NA,NA,NA,NA,NA,NA,NA,NA,NA,0,0,0,1,1,NA,NA,NA,NA,NA
SUPAMT45287,3QFUFYSY94EMFZRA4G21595XHBCF4C,8DF310F3-4744-4027-B1FE-0F85DDCC25EF,2023-09-28_22h54.17.502,WP_VExplicitOC_HL,2022.2.5,Win32,3.529552947,90.88541667,3.7083,2.0034,NA,NA,NA,NA,NA,happy,"unhappy, happy","less happy, more happy",NA,NA,NA,NA,NA,NA,NA,NA,NA,NA,NA,NA,NA,NA,NA,NA,NA,NA,NA,NA,NA,NA,NA,NA,NA,NA,NA,NA,NA,NA,NA,NA,NA,NA,NA,NA,NA,NA,0,1,1,0,1,NA,NA,NA,NA,NA
SUPAMT45287,3QFUFYSY94EMFZRA4G21595XHBCF4C,8DF310F3-4744-4027-B1FE-0F85DDCC25EF,2023-09-28_22h54.17.502,WP_VExplicitOC_HL,2022.2.5,Win32,3.529552947,90.88541667,3.0458,2.012,NA,NA,NA,NA,NA,bored,"bored, not bored","more bored, less bored",NA,NA,NA,NA,NA,NA,NA,NA,NA,NA,NA,NA,NA,NA,NA,NA,NA,NA,NA,NA,NA,NA,NA,NA,NA,NA,NA,NA,NA,NA,NA,NA,NA,NA,NA,NA,NA,NA,0,2,2,2,1,NA,NA,NA,NA,NA
SUPAMT45287,3QFUFYSY94EMFZRA4G21595XHBCF4C,8DF310F3-4744-4027-B1FE-0F85DDCC25EF,2023-09-28_22h54.17.502,WP_VExplicitOC_HL,2022.2.5,Win32,3.529552947,NA,NA,NA,NA,NA,NA,NA,NA,NA,NA,NA,NA,NA,NA,NA,NA,NA,NA,NA,NA,NA,NA,NA,NA,NA,NA,NA,NA,NA,NA,NA,NA,NA,NA,NA,NA,NA,NA,NA,NA,NA,NA,NA,NA,NA,NA,NA,NA,NA,NA,NA,NA,NA,NA,9,0,9,0,1
SUPAMT45287,3QFUFYSY94EMFZRA4G21595XHBCF4C,8DF310F3-4744-4027-B1FE-0F85DDCC25EF,2023-09-28_22h54.17.502,WP_VExplicitOC_HL,2022.2.5,Win32,3.529552947,90.88541667,3.3494,2.3192,NA,NA,NA,NA,NA,bored,"bored, not bored","more bored, less bored",NA,NA,NA,NA,NA,NA,NA,NA,NA,NA,NA,NA,NA,NA,NA,NA,NA,NA,NA,NA,NA,NA,NA,NA,NA,NA,NA,NA,NA,NA,NA,NA,NA,NA,NA,NA,NA,NA,0,0,0,2,1,NA,NA,NA,NA,NA
SUPAMT45287,3QFUFYSY94EMFZRA4G21595XHBCF4C,8DF310F3-4744-4027-B1FE-0F85DDCC25EF,2023-09-28_22h54.17.502,WP_VExplicitOC_HL,2022.2.5,Win32,3.529552947,90.88541667,2.3622,2.0132,NA,NA,NA,NA,NA,frustrated,"frustrated, not frustrated","more frustrated, less frustrated",NA,NA,NA,NA,NA,NA,NA,NA,NA,NA,NA,NA,NA,NA,NA,NA,NA,NA,NA,NA,NA,NA,NA,NA,NA,NA,NA,NA,NA,NA,NA,NA,NA,NA,NA,NA,NA,NA,0,1,1,1,1,NA,NA,NA,NA,NA
SUPAMT45287,3QFUFYSY94EMFZRA4G21595XHBCF4C,8DF310F3-4744-4027-B1FE-0F85DDCC25EF,2023-09-28_22h54.17.502,WP_VExplicitOC_HL,2022.2.5,Win32,3.529552947,90.88541667,3.3998,2.0311,NA,NA,NA,NA,NA,happy,"unhappy, happy","less happy, more happy",NA,NA,NA,NA,NA,NA,NA,NA,NA,NA,NA,NA,NA,NA,NA,NA,NA,NA,NA,NA,NA,NA,NA,NA,NA,NA,NA,NA,NA,NA,NA,NA,NA,NA,NA,NA,NA,NA,0,2,2,0,1,NA,NA,NA,NA,NA
SUPAMT45287,3QFUFYSY94EMFZRA4G21595XHBCF4C,8DF310F3-4744-4027-B1FE-0F85DDCC25EF,2023-09-28_22h54.17.502,WP_VExplicitOC_HL,2022.2.5,Win32,3.529552947,NA,NA,NA,NA,NA,NA,NA,NA,NA,NA,NA,NA,NA,NA,NA,NA,NA,NA,NA,NA,NA,NA,NA,NA,NA,NA,NA,NA,NA,NA,NA,NA,NA,NA,NA,NA,NA,NA,NA,NA,NA,NA,NA,NA,NA,NA,NA,NA,NA,NA,NA,NA,NA,NA,10,0,10,0,1
SUPAMT45287,3QFUFYSY94EMFZRA4G21595XHBCF4C,8DF310F3-4744-4027-B1FE-0F85DDCC25EF,2023-09-28_22h54.17.502,WP_VExplicitOC_HL,2022.2.5,Win32,3.529552947,91.66666667,3.3703,2.0008,NA,NA,NA,NA,NA,frustrated,"frustrated, not frustrated","more frustrated, less frustrated",NA,NA,NA,NA,NA,NA,NA,NA,NA,NA,NA,NA,NA,NA,NA,NA,NA,NA,NA,NA,NA,NA,NA,NA,NA,NA,NA,NA,NA,NA,NA,NA,NA,NA,NA,NA,NA,NA,0,0,0,1,1,NA,NA,NA,NA,NA
SUPAMT45287,3QFUFYSY94EMFZRA4G21595XHBCF4C,8DF310F3-4744-4027-B1FE-0F85DDCC25EF,2023-09-28_22h54.17.502,WP_VExplicitOC_HL,2022.2.5,Win32,3.529552947,91.92708333,3.0529,2.0305,NA,NA,NA,NA,NA,bored,"bored, not bored","more bored, less bored",NA,NA,NA,NA,NA,NA,NA,NA,NA,NA,NA,NA,NA,NA,NA,NA,NA,NA,NA,NA,NA,NA,NA,NA,NA,NA,NA,NA,NA,NA,NA,NA,NA,NA,NA,NA,NA,NA,0,1,1,2,1,NA,NA,NA,NA,NA
SUPAMT45287,3QFUFYSY94EMFZRA4G21595XHBCF4C,8DF310F3-4744-4027-B1FE-0F85DDCC25EF,2023-09-28_22h54.17.502,WP_VExplicitOC_HL,2022.2.5,Win32,3.529552947,91.92708333,3.3666,2.0034,NA,NA,NA,NA,NA,happy,"unhappy, happy","less happy, more happy",NA,NA,NA,NA,NA,NA,NA,NA,NA,NA,NA,NA,NA,NA,NA,NA,NA,NA,NA,NA,NA,NA,NA,NA,NA,NA,NA,NA,NA,NA,NA,NA,NA,NA,NA,NA,NA,NA,0,2,2,0,1,NA,NA,NA,NA,NA
SUPAMT45287,3QFUFYSY94EMFZRA4G21595XHBCF4C,8DF310F3-4744-4027-B1FE-0F85DDCC25EF,2023-09-28_22h54.17.502,WP_VExplicitOC_HL,2022.2.5,Win32,3.529552947,NA,NA,NA,NA,NA,NA,NA,NA,NA,NA,NA,NA,NA,NA,NA,NA,NA,NA,NA,NA,NA,NA,NA,NA,NA,NA,NA,NA,NA,NA,NA,NA,NA,NA,NA,NA,NA,NA,NA,NA,NA,NA,NA,NA,NA,NA,NA,NA,NA,NA,NA,NA,NA,NA,11,0,11,0,1
SUPAMT45287,3QFUFYSY94EMFZRA4G21595XHBCF4C,8DF310F3-4744-4027-B1FE-0F85DDCC25EF,2023-09-28_22h54.17.502,WP_VExplicitOC_HL,2022.2.5,Win32,3.529552947,91.92708333,3.3465,2.3236,NA,NA,NA,NA,NA,happy,"unhappy, happy","less happy, more happy",NA,NA,NA,NA,NA,NA,NA,NA,NA,NA,NA,NA,NA,NA,NA,NA,NA,NA,NA,NA,NA,NA,NA,NA,NA,NA,NA,NA,NA,NA,NA,NA,NA,NA,NA,NA,NA,NA,0,0,0,0,1,NA,NA,NA,NA,NA
SUPAMT45287,3QFUFYSY94EMFZRA4G21595XHBCF4C,8DF310F3-4744-4027-B1FE-0F85DDCC25EF,2023-09-28_22h54.17.502,WP_VExplicitOC_HL,2022.2.5,Win32,3.529552947,91.92708333,3.0463,2.009,NA,NA,NA,NA,NA,frustrated,"frustrated, not frustrated","more frustrated, less frustrated",NA,NA,NA,NA,NA,NA,NA,NA,NA,NA,NA,NA,NA,NA,NA,NA,NA,NA,NA,NA,NA,NA,NA,NA,NA,NA,NA,NA,NA,NA,NA,NA,NA,NA,NA,NA,NA,NA,0,1,1,1,1,NA,NA,NA,NA,NA
SUPAMT45287,3QFUFYSY94EMFZRA4G21595XHBCF4C,8DF310F3-4744-4027-B1FE-0F85DDCC25EF,2023-09-28_22h54.17.502,WP_VExplicitOC_HL,2022.2.5,Win32,3.529552947,91.92708333,3.0274,2.0016,NA,NA,NA,NA,NA,bored,"bored, not bored","more bored, less bored",NA,NA,NA,NA,NA,NA,NA,NA,NA,NA,NA,NA,NA,NA,NA,NA,NA,NA,NA,NA,NA,NA,NA,NA,NA,NA,NA,NA,NA,NA,NA,NA,NA,NA,NA,NA,NA,NA,0,2,2,2,1,NA,NA,NA,NA,NA
SUPAMT45287,3QFUFYSY94EMFZRA4G21595XHBCF4C,8DF310F3-4744-4027-B1FE-0F85DDCC25EF,2023-09-28_22h54.17.502,WP_VExplicitOC_HL,2022.2.5,Win32,3.529552947,NA,NA,NA,NA,NA,NA,NA,NA,NA,NA,NA,NA,NA,NA,NA,NA,NA,NA,NA,NA,NA,NA,NA,NA,NA,NA,NA,NA,NA,NA,NA,NA,NA,NA,NA,NA,NA,NA,NA,NA,NA,NA,NA,NA,NA,NA,NA,NA,NA,NA,NA,NA,NA,NA,12,0,12,0,1
SUPAMT45287,3QFUFYSY94EMFZRA4G21595XHBCF4C,8DF310F3-4744-4027-B1FE-0F85DDCC25EF,2023-09-28_22h54.17.502,WP_VExplicitOC_HL,2022.2.5,Win32,3.529552947,91.92708333,3.3554,2.3247,NA,NA,NA,NA,NA,happy,"unhappy, happy","less happy, more happy",NA,NA,NA,NA,NA,NA,NA,NA,NA,NA,NA,NA,NA,NA,NA,NA,NA,NA,NA,NA,NA,NA,NA,NA,NA,NA,NA,NA,NA,NA,NA,NA,NA,NA,NA,NA,NA,NA,0,0,0,0,1,NA,NA,NA,NA,NA
SUPAMT45287,3QFUFYSY94EMFZRA4G21595XHBCF4C,8DF310F3-4744-4027-B1FE-0F85DDCC25EF,2023-09-28_22h54.17.502,WP_VExplicitOC_HL,2022.2.5,Win32,3.529552947,91.92708333,3.0471,2.0092,NA,NA,NA,NA,NA,frustrated,"frustrated, not frustrated","more frustrated, less frustrated",NA,NA,NA,NA,NA,NA,NA,NA,NA,NA,NA,NA,NA,NA,NA,NA,NA,NA,NA,NA,NA,NA,NA,NA,NA,NA,NA,NA,NA,NA,NA,NA,NA,NA,NA,NA,NA,NA,0,1,1,1,1,NA,NA,NA,NA,NA
SUPAMT45287,3QFUFYSY94EMFZRA4G21595XHBCF4C,8DF310F3-4744-4027-B1FE-0F85DDCC25EF,2023-09-28_22h54.17.502,WP_VExplicitOC_HL,2022.2.5,Win32,3.529552947,91.92708333,3.3597,2.3286,NA,NA,NA,NA,NA,bored,"bored, not bored","more bored, less bored",NA,NA,NA,NA,NA,NA,NA,NA,NA,NA,NA,NA,NA,NA,NA,NA,NA,NA,NA,NA,NA,NA,NA,NA,NA,NA,NA,NA,NA,NA,NA,NA,NA,NA,NA,NA,NA,NA,0,2,2,2,1,NA,NA,NA,NA,NA
SUPAMT45287,3QFUFYSY94EMFZRA4G21595XHBCF4C,8DF310F3-4744-4027-B1FE-0F85DDCC25EF,2023-09-28_22h54.17.502,WP_VExplicitOC_HL,2022.2.5,Win32,3.529552947,NA,NA,NA,NA,NA,NA,NA,NA,NA,NA,NA,NA,NA,NA,NA,NA,NA,NA,NA,NA,NA,NA,NA,NA,NA,NA,NA,NA,NA,NA,NA,NA,NA,NA,NA,NA,NA,NA,NA,NA,NA,NA,NA,NA,NA,NA,NA,NA,NA,NA,NA,NA,NA,NA,13,0,13,0,1
SUPAMT45287,3QFUFYSY94EMFZRA4G21595XHBCF4C,8DF310F3-4744-4027-B1FE-0F85DDCC25EF,2023-09-28_22h54.17.502,WP_VExplicitOC_HL,2022.2.5,Win32,3.529552947,91.92708333,3.6459,2.4079,NA,NA,NA,NA,NA,bored,"bored, not bored","more bored, less bored",NA,NA,NA,NA,NA,NA,NA,NA,NA,NA,NA,NA,NA,NA,NA,NA,NA,NA,NA,NA,NA,NA,NA,NA,NA,NA,NA,NA,NA,NA,NA,NA,NA,NA,NA,NA,NA,NA,0,0,0,2,1,NA,NA,NA,NA,NA
SUPAMT45287,3QFUFYSY94EMFZRA4G21595XHBCF4C,8DF310F3-4744-4027-B1FE-0F85DDCC25EF,2023-09-28_22h54.17.502,WP_VExplicitOC_HL,2022.2.5,Win32,3.529552947,91.92708333,3.2493,2.2223,NA,NA,NA,NA,NA,frustrated,"frustrated, not frustrated","more frustrated, less frustrated",NA,NA,NA,NA,NA,NA,NA,NA,NA,NA,NA,NA,NA,NA,NA,NA,NA,NA,NA,NA,NA,NA,NA,NA,NA,NA,NA,NA,NA,NA,NA,NA,NA,NA,NA,NA,NA,NA,0,1,1,1,1,NA,NA,NA,NA,NA
SUPAMT45287,3QFUFYSY94EMFZRA4G21595XHBCF4C,8DF310F3-4744-4027-B1FE-0F85DDCC25EF,2023-09-28_22h54.17.502,WP_VExplicitOC_HL,2022.2.5,Win32,3.529552947,91.92708333,2.6999,2.0079,NA,NA,NA,NA,NA,happy,"unhappy, happy","less happy, more happy",NA,NA,NA,NA,NA,NA,NA,NA,NA,NA,NA,NA,NA,NA,NA,NA,NA,NA,NA,NA,NA,NA,NA,NA,NA,NA,NA,NA,NA,NA,NA,NA,NA,NA,NA,NA,NA,NA,0,2,2,0,1,NA,NA,NA,NA,NA
SUPAMT45287,3QFUFYSY94EMFZRA4G21595XHBCF4C,8DF310F3-4744-4027-B1FE-0F85DDCC25EF,2023-09-28_22h54.17.502,WP_VExplicitOC_HL,2022.2.5,Win32,3.529552947,NA,NA,NA,NA,NA,NA,NA,NA,NA,NA,NA,NA,NA,NA,NA,NA,NA,NA,NA,NA,NA,NA,NA,NA,NA,NA,NA,NA,NA,NA,NA,NA,NA,NA,NA,NA,NA,NA,NA,NA,NA,NA,NA,NA,NA,NA,NA,NA,NA,NA,NA,NA,NA,NA,14,0,14,0,1
SUPAMT45287,3QFUFYSY94EMFZRA4G21595XHBCF4C,8DF310F3-4744-4027-B1FE-0F85DDCC25EF,2023-09-28_22h54.17.502,WP_VExplicitOC_HL,2022.2.5,Win32,3.529552947,NA,NA,NA,NA,NA,NA,NA,NA,NA,NA,NA,NA,NA,NA,NA,NA,NA,NA,NA,NA,NA,NA,NA,NA,NA,NA,NA,NA,NA,NA,NA,NA,NA,NA,NA,NA,NA,NA,NA,NA,NA,NA,NA,NA,NA,NA,NA,NA,NA,NA,NA,NA,NA,NA,NA,NA,NA,NA,NA
