participant,session,completion,date,expName,psychopyVersion,OS,frameRate,rating_all.response,rating_all.rt,rating_all.tStart,rndRat1.thisRepN,rndRat1.thisTrialN,rndRat1.thisN,rndRat1.thisIndex,rndRat1.ran,Emo,Labs,Labs2,rating_alt.response,rating_alt.rt,AltC.thisRepN,AltC.thisTrialN,AltC.thisN,AltC.thisIndex,AltC.ran,alt_choices,pic_choices,BottomAlt_Choice,rndRat2.thisRepN,rndRat2.thisTrialN,rndRat2.thisN,rndRat2.thisIndex,rndRat2.ran,rndRat3.thisRepN,rndRat3.thisTrialN,rndRat3.thisN,rndRat3.thisIndex,rndRat3.ran,trials_FC_L.thisRepN,trials_FC_L.thisTrialN,trials_FC_L.thisN,trials_FC_L.thisIndex,trials_FC_L.ran,rating_alt_2.response,rating_alt_2.rt,AltC2.thisRepN,AltC2.thisTrialN,AltC2.thisN,AltC2.thisIndex,AltC2.ran,TopAlt_Choice,rndRat4.thisRepN,rndRat4.thisTrialN,rndRat4.thisN,rndRat4.thisIndex,rndRat4.ran,rndRat5.thisRepN,rndRat5.thisTrialN,rndRat5.thisN,rndRat5.thisIndex,rndRat5.ran,trials_FC_H.thisRepN,trials_FC_H.thisTrialN,trials_FC_H.thisN,trials_FC_H.thisIndex,trials_FC_H.ran
SUPAMT76205,3JAOYWH7VO39CX7I7M1QHULXZMCL9S,2232F1F6-7982-46FB-B42D-41FF46FFABBA,2023-09-26_10h21.02.406,WP_VExplicitOC_LH,2022.2.5,Win32,120.1923077,NA,NA,NA,NA,NA,NA,NA,NA,NA,NA,NA,NA,NA,NA,NA,NA,NA,NA,NA,NA,NA,NA,NA,NA,NA,NA,NA,NA,NA,NA,NA,NA,NA,NA,NA,NA,NA,NA,NA,NA,NA,NA,NA,NA,NA,NA,NA,NA,NA,NA,NA,NA,NA,NA,NA,NA,NA,NA,NA
SUPAMT76205,3JAOYWH7VO39CX7I7M1QHULXZMCL9S,2232F1F6-7982-46FB-B42D-41FF46FFABBA,2023-09-26_10h21.02.406,WP_VExplicitOC_LH,2022.2.5,Win32,120.1923077,NA,NA,NA,NA,NA,NA,NA,NA,NA,NA,NA,NA,NA,NA,NA,NA,NA,NA,NA,NA,NA,NA,NA,NA,NA,NA,NA,NA,NA,NA,NA,NA,NA,NA,NA,NA,NA,NA,NA,NA,NA,NA,NA,NA,NA,NA,NA,NA,NA,NA,NA,NA,NA,NA,NA,NA,NA,NA,NA
SUPAMT76205,3JAOYWH7VO39CX7I7M1QHULXZMCL9S,2232F1F6-7982-46FB-B42D-41FF46FFABBA,2023-09-26_10h21.02.406,WP_VExplicitOC_LH,2022.2.5,Win32,120.1923077,NA,NA,NA,NA,NA,NA,NA,NA,NA,NA,NA,NA,NA,NA,NA,NA,NA,NA,NA,NA,NA,NA,NA,NA,NA,NA,NA,NA,NA,NA,NA,NA,NA,NA,NA,NA,NA,NA,NA,NA,NA,NA,NA,NA,NA,NA,NA,NA,NA,NA,NA,NA,NA,NA,NA,NA,NA,NA,NA
SUPAMT76205,3JAOYWH7VO39CX7I7M1QHULXZMCL9S,2232F1F6-7982-46FB-B42D-41FF46FFABBA,2023-09-26_10h21.02.406,WP_VExplicitOC_LH,2022.2.5,Win32,120.1923077,100,3.792,2.008,0,0,0,0,1,happy,"unhappy, happy","less happy, more happy",NA,NA,NA,NA,NA,NA,NA,NA,NA,NA,NA,NA,NA,NA,NA,NA,NA,NA,NA,NA,NA,NA,NA,NA,NA,NA,NA,NA,NA,NA,NA,NA,NA,NA,NA,NA,NA,NA,NA,NA,NA,NA,NA,NA,NA,NA,NA,NA
SUPAMT76205,3JAOYWH7VO39CX7I7M1QHULXZMCL9S,2232F1F6-7982-46FB-B42D-41FF46FFABBA,2023-09-26_10h21.02.406,WP_VExplicitOC_LH,2022.2.5,Win32,120.1923077,100,3.757,2,0,1,1,2,1,bored,"bored, not bored","more bored, less bored",NA,NA,NA,NA,NA,NA,NA,NA,NA,NA,NA,NA,NA,NA,NA,NA,NA,NA,NA,NA,NA,NA,NA,NA,NA,NA,NA,NA,NA,NA,NA,NA,NA,NA,NA,NA,NA,NA,NA,NA,NA,NA,NA,NA,NA,NA,NA,NA
SUPAMT76205,3JAOYWH7VO39CX7I7M1QHULXZMCL9S,2232F1F6-7982-46FB-B42D-41FF46FFABBA,2023-09-26_10h21.02.406,WP_VExplicitOC_LH,2022.2.5,Win32,120.1923077,100,3.242,2,0,2,2,1,1,frustrated,"frustrated, not frustrated","more frustrated, less frustrated",NA,NA,NA,NA,NA,NA,NA,NA,NA,NA,NA,NA,NA,NA,NA,NA,NA,NA,NA,NA,NA,NA,NA,NA,NA,NA,NA,NA,NA,NA,NA,NA,NA,NA,NA,NA,NA,NA,NA,NA,NA,NA,NA,NA,NA,NA,NA,NA
SUPAMT76205,3JAOYWH7VO39CX7I7M1QHULXZMCL9S,2232F1F6-7982-46FB-B42D-41FF46FFABBA,2023-09-26_10h21.02.406,WP_VExplicitOC_LH,2022.2.5,Win32,120.1923077,NA,NA,NA,NA,NA,NA,NA,NA,NA,NA,NA,NA,NA,NA,NA,NA,NA,NA,NA,NA,NA,NA,NA,NA,NA,NA,NA,NA,NA,NA,NA,NA,NA,NA,NA,NA,NA,NA,NA,NA,NA,NA,NA,NA,NA,NA,NA,NA,NA,NA,NA,NA,NA,NA,NA,NA,NA,NA,NA
SUPAMT76205,3JAOYWH7VO39CX7I7M1QHULXZMCL9S,2232F1F6-7982-46FB-B42D-41FF46FFABBA,2023-09-26_10h21.02.406,WP_VExplicitOC_LH,2022.2.5,Win32,120.1923077,NA,NA,NA,NA,NA,NA,NA,NA,NA,NA,NA,NA,NA,NA,NA,NA,NA,NA,NA,NA,NA,NA,NA,NA,NA,NA,NA,NA,NA,NA,NA,NA,NA,NA,NA,NA,NA,NA,NA,NA,NA,NA,NA,NA,NA,NA,NA,NA,NA,NA,NA,NA,NA,NA,NA,NA,NA,NA,NA
SUPAMT76205,3JAOYWH7VO39CX7I7M1QHULXZMCL9S,2232F1F6-7982-46FB-B42D-41FF46FFABBA,2023-09-26_10h21.02.406,WP_VExplicitOC_LH,2022.2.5,Win32,120.1923077,NA,NA,NA,NA,NA,NA,NA,NA,NA,NA,NA,NA,NA,NA,NA,NA,NA,NA,NA,NA,NA,NA,NA,NA,NA,NA,NA,NA,NA,NA,NA,NA,NA,NA,NA,NA,NA,NA,NA,NA,NA,NA,NA,NA,NA,NA,NA,NA,NA,NA,NA,NA,NA,NA,NA,NA,NA,NA,NA
SUPAMT76205,3JAOYWH7VO39CX7I7M1QHULXZMCL9S,2232F1F6-7982-46FB-B42D-41FF46FFABBA,2023-09-26_10h21.02.406,WP_VExplicitOC_LH,2022.2.5,Win32,120.1923077,NA,NA,NA,NA,NA,NA,NA,NA,NA,NA,NA,NA,NA,NA,NA,NA,NA,NA,NA,NA,NA,NA,NA,NA,NA,NA,NA,NA,NA,NA,NA,NA,NA,NA,NA,NA,NA,NA,NA,NA,NA,NA,NA,NA,NA,NA,NA,NA,NA,NA,NA,NA,NA,NA,NA,NA,NA,NA,NA
SUPAMT76205,3JAOYWH7VO39CX7I7M1QHULXZMCL9S,2232F1F6-7982-46FB-B42D-41FF46FFABBA,2023-09-26_10h21.02.406,WP_VExplicitOC_LH,2022.2.5,Win32,120.1923077,NA,NA,NA,NA,NA,NA,NA,NA,NA,NA,NA,16.2037037,1.918,0,0,0,0,1,rest (looking at a fixed cross),001.png,NA,NA,NA,NA,NA,NA,NA,NA,NA,NA,NA,NA,NA,NA,NA,NA,NA,NA,NA,NA,NA,NA,NA,NA,NA,NA,NA,NA,NA,NA,NA,NA,NA,NA,NA,NA,NA,NA,NA
SUPAMT76205,3JAOYWH7VO39CX7I7M1QHULXZMCL9S,2232F1F6-7982-46FB-B42D-41FF46FFABBA,2023-09-26_10h21.02.406,WP_VExplicitOC_LH,2022.2.5,Win32,120.1923077,NA,NA,NA,NA,NA,NA,NA,NA,NA,NA,NA,100,1.489,0,1,1,1,1,stand up,002.png,NA,NA,NA,NA,NA,NA,NA,NA,NA,NA,NA,NA,NA,NA,NA,NA,NA,NA,NA,NA,NA,NA,NA,NA,NA,NA,NA,NA,NA,NA,NA,NA,NA,NA,NA,NA,NA,NA,NA
SUPAMT76205,3JAOYWH7VO39CX7I7M1QHULXZMCL9S,2232F1F6-7982-46FB-B42D-41FF46FFABBA,2023-09-26_10h21.02.406,WP_VExplicitOC_LH,2022.2.5,Win32,120.1923077,NA,NA,NA,NA,NA,NA,NA,NA,NA,NA,NA,100,1.189,0,2,2,2,1,stretch,003.png,NA,NA,NA,NA,NA,NA,NA,NA,NA,NA,NA,NA,NA,NA,NA,NA,NA,NA,NA,NA,NA,NA,NA,NA,NA,NA,NA,NA,NA,NA,NA,NA,NA,NA,NA,NA,NA,NA,NA
SUPAMT76205,3JAOYWH7VO39CX7I7M1QHULXZMCL9S,2232F1F6-7982-46FB-B42D-41FF46FFABBA,2023-09-26_10h21.02.406,WP_VExplicitOC_LH,2022.2.5,Win32,120.1923077,NA,NA,NA,NA,NA,NA,NA,NA,NA,NA,NA,100,1.554,0,3,3,3,1,make a drink,004.png,NA,NA,NA,NA,NA,NA,NA,NA,NA,NA,NA,NA,NA,NA,NA,NA,NA,NA,NA,NA,NA,NA,NA,NA,NA,NA,NA,NA,NA,NA,NA,NA,NA,NA,NA,NA,NA,NA,NA
SUPAMT76205,3JAOYWH7VO39CX7I7M1QHULXZMCL9S,2232F1F6-7982-46FB-B42D-41FF46FFABBA,2023-09-26_10h21.02.406,WP_VExplicitOC_LH,2022.2.5,Win32,120.1923077,NA,NA,NA,NA,NA,NA,NA,NA,NA,NA,NA,100,1.128,0,4,4,4,1,scroll social media,005.png,NA,NA,NA,NA,NA,NA,NA,NA,NA,NA,NA,NA,NA,NA,NA,NA,NA,NA,NA,NA,NA,NA,NA,NA,NA,NA,NA,NA,NA,NA,NA,NA,NA,NA,NA,NA,NA,NA,NA
SUPAMT76205,3JAOYWH7VO39CX7I7M1QHULXZMCL9S,2232F1F6-7982-46FB-B42D-41FF46FFABBA,2023-09-26_10h21.02.406,WP_VExplicitOC_LH,2022.2.5,Win32,120.1923077,NA,NA,NA,NA,NA,NA,NA,NA,NA,NA,NA,100,1.327,0,5,5,5,1,listen to music,006.png,NA,NA,NA,NA,NA,NA,NA,NA,NA,NA,NA,NA,NA,NA,NA,NA,NA,NA,NA,NA,NA,NA,NA,NA,NA,NA,NA,NA,NA,NA,NA,NA,NA,NA,NA,NA,NA,NA,NA
SUPAMT76205,3JAOYWH7VO39CX7I7M1QHULXZMCL9S,2232F1F6-7982-46FB-B42D-41FF46FFABBA,2023-09-26_10h21.02.406,WP_VExplicitOC_LH,2022.2.5,Win32,120.1923077,NA,NA,NA,NA,NA,NA,NA,NA,NA,NA,NA,69.21296296,1.677,0,6,6,6,1,daydream,007.png,NA,NA,NA,NA,NA,NA,NA,NA,NA,NA,NA,NA,NA,NA,NA,NA,NA,NA,NA,NA,NA,NA,NA,NA,NA,NA,NA,NA,NA,NA,NA,NA,NA,NA,NA,NA,NA,NA,NA
SUPAMT76205,3JAOYWH7VO39CX7I7M1QHULXZMCL9S,2232F1F6-7982-46FB-B42D-41FF46FFABBA,2023-09-26_10h21.02.406,WP_VExplicitOC_LH,2022.2.5,Win32,120.1923077,NA,NA,NA,NA,NA,NA,NA,NA,NA,NA,NA,100,0.827,0,7,7,7,1,watch a short animation,008.png,NA,NA,NA,NA,NA,NA,NA,NA,NA,NA,NA,NA,NA,NA,NA,NA,NA,NA,NA,NA,NA,NA,NA,NA,NA,NA,NA,NA,NA,NA,NA,NA,NA,NA,NA,NA,NA,NA,NA
SUPAMT76205,3JAOYWH7VO39CX7I7M1QHULXZMCL9S,2232F1F6-7982-46FB-B42D-41FF46FFABBA,2023-09-26_10h21.02.406,WP_VExplicitOC_LH,2022.2.5,Win32,120.1923077,NA,NA,NA,NA,NA,NA,NA,NA,NA,NA,NA,31.48148148,1.22,0,8,8,8,1,read a novel,009.png,NA,NA,NA,NA,NA,NA,NA,NA,NA,NA,NA,NA,NA,NA,NA,NA,NA,NA,NA,NA,NA,NA,NA,NA,NA,NA,NA,NA,NA,NA,NA,NA,NA,NA,NA,NA,NA,NA,NA
SUPAMT76205,3JAOYWH7VO39CX7I7M1QHULXZMCL9S,2232F1F6-7982-46FB-B42D-41FF46FFABBA,2023-09-26_10h21.02.406,WP_VExplicitOC_LH,2022.2.5,Win32,120.1923077,NA,NA,NA,NA,NA,NA,NA,NA,NA,NA,NA,-37.5,1.327,0,9,9,9,1,read the news,010.png,NA,NA,NA,NA,NA,NA,NA,NA,NA,NA,NA,NA,NA,NA,NA,NA,NA,NA,NA,NA,NA,NA,NA,NA,NA,NA,NA,NA,NA,NA,NA,NA,NA,NA,NA,NA,NA,NA,NA
SUPAMT76205,3JAOYWH7VO39CX7I7M1QHULXZMCL9S,2232F1F6-7982-46FB-B42D-41FF46FFABBA,2023-09-26_10h21.02.406,WP_VExplicitOC_LH,2022.2.5,Win32,120.1923077,NA,NA,NA,NA,NA,NA,NA,NA,NA,NA,NA,NA,NA,NA,NA,NA,NA,NA,NA,NA,NA,NA,NA,NA,NA,NA,NA,NA,NA,NA,NA,NA,NA,NA,NA,NA,NA,NA,NA,NA,NA,NA,NA,NA,NA,NA,NA,NA,NA,NA,NA,NA,NA,NA,NA,NA,NA,NA,NA
SUPAMT76205,3JAOYWH7VO39CX7I7M1QHULXZMCL9S,2232F1F6-7982-46FB-B42D-41FF46FFABBA,2023-09-26_10h21.02.406,WP_VExplicitOC_LH,2022.2.5,Win32,120.1923077,NA,NA,NA,NA,NA,NA,NA,NA,NA,NA,NA,NA,NA,NA,NA,NA,NA,NA,NA,NA,read the news,NA,NA,NA,NA,NA,NA,NA,NA,NA,NA,NA,NA,NA,NA,NA,NA,NA,NA,NA,NA,NA,NA,NA,NA,NA,NA,NA,NA,NA,NA,NA,NA,NA,NA,NA,NA,NA,NA
SUPAMT76205,3JAOYWH7VO39CX7I7M1QHULXZMCL9S,2232F1F6-7982-46FB-B42D-41FF46FFABBA,2023-09-26_10h21.02.406,WP_VExplicitOC_LH,2022.2.5,Win32,120.1923077,94.44444444,2.965,2.001,NA,NA,NA,NA,NA,frustrated,"frustrated, not frustrated","more frustrated, less frustrated",NA,NA,NA,NA,NA,NA,NA,NA,NA,NA,0,0,0,1,1,NA,NA,NA,NA,NA,NA,NA,NA,NA,NA,NA,NA,NA,NA,NA,NA,NA,NA,NA,NA,NA,NA,NA,NA,NA,NA,NA,NA,NA,NA,NA,NA,NA
SUPAMT76205,3JAOYWH7VO39CX7I7M1QHULXZMCL9S,2232F1F6-7982-46FB-B42D-41FF46FFABBA,2023-09-26_10h21.02.406,WP_VExplicitOC_LH,2022.2.5,Win32,120.1923077,100,2.587,2,NA,NA,NA,NA,NA,happy,"unhappy, happy","less happy, more happy",NA,NA,NA,NA,NA,NA,NA,NA,NA,NA,0,1,1,0,1,NA,NA,NA,NA,NA,NA,NA,NA,NA,NA,NA,NA,NA,NA,NA,NA,NA,NA,NA,NA,NA,NA,NA,NA,NA,NA,NA,NA,NA,NA,NA,NA,NA
SUPAMT76205,3JAOYWH7VO39CX7I7M1QHULXZMCL9S,2232F1F6-7982-46FB-B42D-41FF46FFABBA,2023-09-26_10h21.02.406,WP_VExplicitOC_LH,2022.2.5,Win32,120.1923077,100,2.577,2,NA,NA,NA,NA,NA,bored,"bored, not bored","more bored, less bored",NA,NA,NA,NA,NA,NA,NA,NA,NA,NA,0,2,2,2,1,NA,NA,NA,NA,NA,NA,NA,NA,NA,NA,NA,NA,NA,NA,NA,NA,NA,NA,NA,NA,NA,NA,NA,NA,NA,NA,NA,NA,NA,NA,NA,NA,NA
SUPAMT76205,3JAOYWH7VO39CX7I7M1QHULXZMCL9S,2232F1F6-7982-46FB-B42D-41FF46FFABBA,2023-09-26_10h21.02.406,WP_VExplicitOC_LH,2022.2.5,Win32,120.1923077,NA,NA,NA,NA,NA,NA,NA,NA,NA,NA,NA,NA,NA,NA,NA,NA,NA,NA,NA,NA,NA,NA,NA,NA,NA,NA,NA,NA,NA,NA,NA,NA,NA,NA,NA,NA,NA,NA,NA,NA,NA,NA,NA,NA,NA,NA,NA,NA,NA,NA,NA,NA,NA,NA,NA,NA,NA,NA,NA
SUPAMT76205,3JAOYWH7VO39CX7I7M1QHULXZMCL9S,2232F1F6-7982-46FB-B42D-41FF46FFABBA,2023-09-26_10h21.02.406,WP_VExplicitOC_LH,2022.2.5,Win32,120.1923077,NA,NA,NA,NA,NA,NA,NA,NA,NA,NA,NA,NA,NA,NA,NA,NA,NA,NA,NA,NA,NA,NA,NA,NA,NA,NA,NA,NA,NA,NA,NA,NA,NA,NA,NA,NA,NA,NA,NA,NA,NA,NA,NA,NA,NA,NA,NA,NA,NA,NA,NA,NA,NA,NA,NA,NA,NA,NA,NA
SUPAMT76205,3JAOYWH7VO39CX7I7M1QHULXZMCL9S,2232F1F6-7982-46FB-B42D-41FF46FFABBA,2023-09-26_10h21.02.406,WP_VExplicitOC_LH,2022.2.5,Win32,120.1923077,100,2.703,2.001,NA,NA,NA,NA,NA,happy,"unhappy, happy","less happy, more happy",NA,NA,NA,NA,NA,NA,NA,NA,NA,NA,NA,NA,NA,NA,NA,0,0,0,0,1,NA,NA,NA,NA,NA,NA,NA,NA,NA,NA,NA,NA,NA,NA,NA,NA,NA,NA,NA,NA,NA,NA,NA,NA,NA,NA,NA,NA
SUPAMT76205,3JAOYWH7VO39CX7I7M1QHULXZMCL9S,2232F1F6-7982-46FB-B42D-41FF46FFABBA,2023-09-26_10h21.02.406,WP_VExplicitOC_LH,2022.2.5,Win32,120.1923077,83.33333333,3.601,2,NA,NA,NA,NA,NA,bored,"bored, not bored","more bored, less bored",NA,NA,NA,NA,NA,NA,NA,NA,NA,NA,NA,NA,NA,NA,NA,0,1,1,2,1,NA,NA,NA,NA,NA,NA,NA,NA,NA,NA,NA,NA,NA,NA,NA,NA,NA,NA,NA,NA,NA,NA,NA,NA,NA,NA,NA,NA
SUPAMT76205,3JAOYWH7VO39CX7I7M1QHULXZMCL9S,2232F1F6-7982-46FB-B42D-41FF46FFABBA,2023-09-26_10h21.02.406,WP_VExplicitOC_LH,2022.2.5,Win32,120.1923077,89.58333333,2.818,2,NA,NA,NA,NA,NA,frustrated,"frustrated, not frustrated","more frustrated, less frustrated",NA,NA,NA,NA,NA,NA,NA,NA,NA,NA,NA,NA,NA,NA,NA,0,2,2,1,1,NA,NA,NA,NA,NA,NA,NA,NA,NA,NA,NA,NA,NA,NA,NA,NA,NA,NA,NA,NA,NA,NA,NA,NA,NA,NA,NA,NA
SUPAMT76205,3JAOYWH7VO39CX7I7M1QHULXZMCL9S,2232F1F6-7982-46FB-B42D-41FF46FFABBA,2023-09-26_10h21.02.406,WP_VExplicitOC_LH,2022.2.5,Win32,120.1923077,NA,NA,NA,NA,NA,NA,NA,NA,NA,NA,NA,NA,NA,NA,NA,NA,NA,NA,NA,NA,NA,NA,NA,NA,NA,NA,NA,NA,NA,NA,NA,0,0,0,0,1,NA,NA,NA,NA,NA,NA,NA,NA,NA,NA,NA,NA,NA,NA,NA,NA,NA,NA,NA,NA,NA,NA,NA
SUPAMT76205,3JAOYWH7VO39CX7I7M1QHULXZMCL9S,2232F1F6-7982-46FB-B42D-41FF46FFABBA,2023-09-26_10h21.02.406,WP_VExplicitOC_LH,2022.2.5,Win32,120.1923077,100,2.893,2.007,NA,NA,NA,NA,NA,happy,"unhappy, happy","less happy, more happy",NA,NA,NA,NA,NA,NA,NA,NA,NA,NA,NA,NA,NA,NA,NA,0,0,0,0,1,NA,NA,NA,NA,NA,NA,NA,NA,NA,NA,NA,NA,NA,NA,NA,NA,NA,NA,NA,NA,NA,NA,NA,NA,NA,NA,NA,NA
SUPAMT76205,3JAOYWH7VO39CX7I7M1QHULXZMCL9S,2232F1F6-7982-46FB-B42D-41FF46FFABBA,2023-09-26_10h21.02.406,WP_VExplicitOC_LH,2022.2.5,Win32,120.1923077,81.94444444,2.827,2,NA,NA,NA,NA,NA,bored,"bored, not bored","more bored, less bored",NA,NA,NA,NA,NA,NA,NA,NA,NA,NA,NA,NA,NA,NA,NA,0,1,1,2,1,NA,NA,NA,NA,NA,NA,NA,NA,NA,NA,NA,NA,NA,NA,NA,NA,NA,NA,NA,NA,NA,NA,NA,NA,NA,NA,NA,NA
SUPAMT76205,3JAOYWH7VO39CX7I7M1QHULXZMCL9S,2232F1F6-7982-46FB-B42D-41FF46FFABBA,2023-09-26_10h21.02.406,WP_VExplicitOC_LH,2022.2.5,Win32,120.1923077,80.32407407,2.968,2,NA,NA,NA,NA,NA,frustrated,"frustrated, not frustrated","more frustrated, less frustrated",NA,NA,NA,NA,NA,NA,NA,NA,NA,NA,NA,NA,NA,NA,NA,0,2,2,1,1,NA,NA,NA,NA,NA,NA,NA,NA,NA,NA,NA,NA,NA,NA,NA,NA,NA,NA,NA,NA,NA,NA,NA,NA,NA,NA,NA,NA
SUPAMT76205,3JAOYWH7VO39CX7I7M1QHULXZMCL9S,2232F1F6-7982-46FB-B42D-41FF46FFABBA,2023-09-26_10h21.02.406,WP_VExplicitOC_LH,2022.2.5,Win32,120.1923077,NA,NA,NA,NA,NA,NA,NA,NA,NA,NA,NA,NA,NA,NA,NA,NA,NA,NA,NA,NA,NA,NA,NA,NA,NA,NA,NA,NA,NA,NA,NA,1,0,1,0,1,NA,NA,NA,NA,NA,NA,NA,NA,NA,NA,NA,NA,NA,NA,NA,NA,NA,NA,NA,NA,NA,NA,NA
SUPAMT76205,3JAOYWH7VO39CX7I7M1QHULXZMCL9S,2232F1F6-7982-46FB-B42D-41FF46FFABBA,2023-09-26_10h21.02.406,WP_VExplicitOC_LH,2022.2.5,Win32,120.1923077,96.2962963,3.318,2.007,NA,NA,NA,NA,NA,frustrated,"frustrated, not frustrated","more frustrated, less frustrated",NA,NA,NA,NA,NA,NA,NA,NA,NA,NA,NA,NA,NA,NA,NA,0,0,0,1,1,NA,NA,NA,NA,NA,NA,NA,NA,NA,NA,NA,NA,NA,NA,NA,NA,NA,NA,NA,NA,NA,NA,NA,NA,NA,NA,NA,NA
SUPAMT76205,3JAOYWH7VO39CX7I7M1QHULXZMCL9S,2232F1F6-7982-46FB-B42D-41FF46FFABBA,2023-09-26_10h21.02.406,WP_VExplicitOC_LH,2022.2.5,Win32,120.1923077,83.7962963,3.069,2.008,NA,NA,NA,NA,NA,bored,"bored, not bored","more bored, less bored",NA,NA,NA,NA,NA,NA,NA,NA,NA,NA,NA,NA,NA,NA,NA,0,1,1,2,1,NA,NA,NA,NA,NA,NA,NA,NA,NA,NA,NA,NA,NA,NA,NA,NA,NA,NA,NA,NA,NA,NA,NA,NA,NA,NA,NA,NA
SUPAMT76205,3JAOYWH7VO39CX7I7M1QHULXZMCL9S,2232F1F6-7982-46FB-B42D-41FF46FFABBA,2023-09-26_10h21.02.406,WP_VExplicitOC_LH,2022.2.5,Win32,120.1923077,81.71296296,3.378,2,NA,NA,NA,NA,NA,happy,"unhappy, happy","less happy, more happy",NA,NA,NA,NA,NA,NA,NA,NA,NA,NA,NA,NA,NA,NA,NA,0,2,2,0,1,NA,NA,NA,NA,NA,NA,NA,NA,NA,NA,NA,NA,NA,NA,NA,NA,NA,NA,NA,NA,NA,NA,NA,NA,NA,NA,NA,NA
SUPAMT76205,3JAOYWH7VO39CX7I7M1QHULXZMCL9S,2232F1F6-7982-46FB-B42D-41FF46FFABBA,2023-09-26_10h21.02.406,WP_VExplicitOC_LH,2022.2.5,Win32,120.1923077,NA,NA,NA,NA,NA,NA,NA,NA,NA,NA,NA,NA,NA,NA,NA,NA,NA,NA,NA,NA,NA,NA,NA,NA,NA,NA,NA,NA,NA,NA,NA,2,0,2,0,1,NA,NA,NA,NA,NA,NA,NA,NA,NA,NA,NA,NA,NA,NA,NA,NA,NA,NA,NA,NA,NA,NA,NA
SUPAMT76205,3JAOYWH7VO39CX7I7M1QHULXZMCL9S,2232F1F6-7982-46FB-B42D-41FF46FFABBA,2023-09-26_10h21.02.406,WP_VExplicitOC_LH,2022.2.5,Win32,120.1923077,91.66666667,3.058,2.008,NA,NA,NA,NA,NA,frustrated,"frustrated, not frustrated","more frustrated, less frustrated",NA,NA,NA,NA,NA,NA,NA,NA,NA,NA,NA,NA,NA,NA,NA,0,0,0,1,1,NA,NA,NA,NA,NA,NA,NA,NA,NA,NA,NA,NA,NA,NA,NA,NA,NA,NA,NA,NA,NA,NA,NA,NA,NA,NA,NA,NA
SUPAMT76205,3JAOYWH7VO39CX7I7M1QHULXZMCL9S,2232F1F6-7982-46FB-B42D-41FF46FFABBA,2023-09-26_10h21.02.406,WP_VExplicitOC_LH,2022.2.5,Win32,120.1923077,84.49074074,3.404,2,NA,NA,NA,NA,NA,happy,"unhappy, happy","less happy, more happy",NA,NA,NA,NA,NA,NA,NA,NA,NA,NA,NA,NA,NA,NA,NA,0,1,1,0,1,NA,NA,NA,NA,NA,NA,NA,NA,NA,NA,NA,NA,NA,NA,NA,NA,NA,NA,NA,NA,NA,NA,NA,NA,NA,NA,NA,NA
SUPAMT76205,3JAOYWH7VO39CX7I7M1QHULXZMCL9S,2232F1F6-7982-46FB-B42D-41FF46FFABBA,2023-09-26_10h21.02.406,WP_VExplicitOC_LH,2022.2.5,Win32,120.1923077,90.0462963,2.939,2,NA,NA,NA,NA,NA,bored,"bored, not bored","more bored, less bored",NA,NA,NA,NA,NA,NA,NA,NA,NA,NA,NA,NA,NA,NA,NA,0,2,2,2,1,NA,NA,NA,NA,NA,NA,NA,NA,NA,NA,NA,NA,NA,NA,NA,NA,NA,NA,NA,NA,NA,NA,NA,NA,NA,NA,NA,NA
SUPAMT76205,3JAOYWH7VO39CX7I7M1QHULXZMCL9S,2232F1F6-7982-46FB-B42D-41FF46FFABBA,2023-09-26_10h21.02.406,WP_VExplicitOC_LH,2022.2.5,Win32,120.1923077,NA,NA,NA,NA,NA,NA,NA,NA,NA,NA,NA,NA,NA,NA,NA,NA,NA,NA,NA,NA,NA,NA,NA,NA,NA,NA,NA,NA,NA,NA,NA,3,0,3,0,1,NA,NA,NA,NA,NA,NA,NA,NA,NA,NA,NA,NA,NA,NA,NA,NA,NA,NA,NA,NA,NA,NA,NA
SUPAMT76205,3JAOYWH7VO39CX7I7M1QHULXZMCL9S,2232F1F6-7982-46FB-B42D-41FF46FFABBA,2023-09-26_10h21.02.406,WP_VExplicitOC_LH,2022.2.5,Win32,120.1923077,87.26851852,3.333,2,NA,NA,NA,NA,NA,happy,"unhappy, happy","less happy, more happy",NA,NA,NA,NA,NA,NA,NA,NA,NA,NA,NA,NA,NA,NA,NA,0,0,0,0,1,NA,NA,NA,NA,NA,NA,NA,NA,NA,NA,NA,NA,NA,NA,NA,NA,NA,NA,NA,NA,NA,NA,NA,NA,NA,NA,NA,NA
SUPAMT76205,3JAOYWH7VO39CX7I7M1QHULXZMCL9S,2232F1F6-7982-46FB-B42D-41FF46FFABBA,2023-09-26_10h21.02.406,WP_VExplicitOC_LH,2022.2.5,Win32,120.1923077,84.02777778,3.476,2.007,NA,NA,NA,NA,NA,bored,"bored, not bored","more bored, less bored",NA,NA,NA,NA,NA,NA,NA,NA,NA,NA,NA,NA,NA,NA,NA,0,1,1,2,1,NA,NA,NA,NA,NA,NA,NA,NA,NA,NA,NA,NA,NA,NA,NA,NA,NA,NA,NA,NA,NA,NA,NA,NA,NA,NA,NA,NA
SUPAMT76205,3JAOYWH7VO39CX7I7M1QHULXZMCL9S,2232F1F6-7982-46FB-B42D-41FF46FFABBA,2023-09-26_10h21.02.406,WP_VExplicitOC_LH,2022.2.5,Win32,120.1923077,79.16666667,2.918,2.007,NA,NA,NA,NA,NA,frustrated,"frustrated, not frustrated","more frustrated, less frustrated",NA,NA,NA,NA,NA,NA,NA,NA,NA,NA,NA,NA,NA,NA,NA,0,2,2,1,1,NA,NA,NA,NA,NA,NA,NA,NA,NA,NA,NA,NA,NA,NA,NA,NA,NA,NA,NA,NA,NA,NA,NA,NA,NA,NA,NA,NA
SUPAMT76205,3JAOYWH7VO39CX7I7M1QHULXZMCL9S,2232F1F6-7982-46FB-B42D-41FF46FFABBA,2023-09-26_10h21.02.406,WP_VExplicitOC_LH,2022.2.5,Win32,120.1923077,NA,NA,NA,NA,NA,NA,NA,NA,NA,NA,NA,NA,NA,NA,NA,NA,NA,NA,NA,NA,NA,NA,NA,NA,NA,NA,NA,NA,NA,NA,NA,4,0,4,0,1,NA,NA,NA,NA,NA,NA,NA,NA,NA,NA,NA,NA,NA,NA,NA,NA,NA,NA,NA,NA,NA,NA,NA
SUPAMT76205,3JAOYWH7VO39CX7I7M1QHULXZMCL9S,2232F1F6-7982-46FB-B42D-41FF46FFABBA,2023-09-26_10h21.02.406,WP_VExplicitOC_LH,2022.2.5,Win32,120.1923077,81.94444444,3.285,2,NA,NA,NA,NA,NA,frustrated,"frustrated, not frustrated","more frustrated, less frustrated",NA,NA,NA,NA,NA,NA,NA,NA,NA,NA,NA,NA,NA,NA,NA,0,0,0,1,1,NA,NA,NA,NA,NA,NA,NA,NA,NA,NA,NA,NA,NA,NA,NA,NA,NA,NA,NA,NA,NA,NA,NA,NA,NA,NA,NA,NA
SUPAMT76205,3JAOYWH7VO39CX7I7M1QHULXZMCL9S,2232F1F6-7982-46FB-B42D-41FF46FFABBA,2023-09-26_10h21.02.406,WP_VExplicitOC_LH,2022.2.5,Win32,120.1923077,80.55555556,3.698,2,NA,NA,NA,NA,NA,bored,"bored, not bored","more bored, less bored",NA,NA,NA,NA,NA,NA,NA,NA,NA,NA,NA,NA,NA,NA,NA,0,1,1,2,1,NA,NA,NA,NA,NA,NA,NA,NA,NA,NA,NA,NA,NA,NA,NA,NA,NA,NA,NA,NA,NA,NA,NA,NA,NA,NA,NA,NA
SUPAMT76205,3JAOYWH7VO39CX7I7M1QHULXZMCL9S,2232F1F6-7982-46FB-B42D-41FF46FFABBA,2023-09-26_10h21.02.406,WP_VExplicitOC_LH,2022.2.5,Win32,120.1923077,85.87962963,3.38,2.007,NA,NA,NA,NA,NA,happy,"unhappy, happy","less happy, more happy",NA,NA,NA,NA,NA,NA,NA,NA,NA,NA,NA,NA,NA,NA,NA,0,2,2,0,1,NA,NA,NA,NA,NA,NA,NA,NA,NA,NA,NA,NA,NA,NA,NA,NA,NA,NA,NA,NA,NA,NA,NA,NA,NA,NA,NA,NA
SUPAMT76205,3JAOYWH7VO39CX7I7M1QHULXZMCL9S,2232F1F6-7982-46FB-B42D-41FF46FFABBA,2023-09-26_10h21.02.406,WP_VExplicitOC_LH,2022.2.5,Win32,120.1923077,NA,NA,NA,NA,NA,NA,NA,NA,NA,NA,NA,NA,NA,NA,NA,NA,NA,NA,NA,NA,NA,NA,NA,NA,NA,NA,NA,NA,NA,NA,NA,5,0,5,0,1,NA,NA,NA,NA,NA,NA,NA,NA,NA,NA,NA,NA,NA,NA,NA,NA,NA,NA,NA,NA,NA,NA,NA
SUPAMT76205,3JAOYWH7VO39CX7I7M1QHULXZMCL9S,2232F1F6-7982-46FB-B42D-41FF46FFABBA,2023-09-26_10h21.02.406,WP_VExplicitOC_LH,2022.2.5,Win32,120.1923077,78.00925926,3.1,2,NA,NA,NA,NA,NA,bored,"bored, not bored","more bored, less bored",NA,NA,NA,NA,NA,NA,NA,NA,NA,NA,NA,NA,NA,NA,NA,0,0,0,2,1,NA,NA,NA,NA,NA,NA,NA,NA,NA,NA,NA,NA,NA,NA,NA,NA,NA,NA,NA,NA,NA,NA,NA,NA,NA,NA,NA,NA
SUPAMT76205,3JAOYWH7VO39CX7I7M1QHULXZMCL9S,2232F1F6-7982-46FB-B42D-41FF46FFABBA,2023-09-26_10h21.02.406,WP_VExplicitOC_LH,2022.2.5,Win32,120.1923077,73.14814815,3.086,2.007,NA,NA,NA,NA,NA,frustrated,"frustrated, not frustrated","more frustrated, less frustrated",NA,NA,NA,NA,NA,NA,NA,NA,NA,NA,NA,NA,NA,NA,NA,0,1,1,1,1,NA,NA,NA,NA,NA,NA,NA,NA,NA,NA,NA,NA,NA,NA,NA,NA,NA,NA,NA,NA,NA,NA,NA,NA,NA,NA,NA,NA
SUPAMT76205,3JAOYWH7VO39CX7I7M1QHULXZMCL9S,2232F1F6-7982-46FB-B42D-41FF46FFABBA,2023-09-26_10h21.02.406,WP_VExplicitOC_LH,2022.2.5,Win32,120.1923077,82.17592593,2.906,2.007,NA,NA,NA,NA,NA,happy,"unhappy, happy","less happy, more happy",NA,NA,NA,NA,NA,NA,NA,NA,NA,NA,NA,NA,NA,NA,NA,0,2,2,0,1,NA,NA,NA,NA,NA,NA,NA,NA,NA,NA,NA,NA,NA,NA,NA,NA,NA,NA,NA,NA,NA,NA,NA,NA,NA,NA,NA,NA
SUPAMT76205,3JAOYWH7VO39CX7I7M1QHULXZMCL9S,2232F1F6-7982-46FB-B42D-41FF46FFABBA,2023-09-26_10h21.02.406,WP_VExplicitOC_LH,2022.2.5,Win32,120.1923077,NA,NA,NA,NA,NA,NA,NA,NA,NA,NA,NA,NA,NA,NA,NA,NA,NA,NA,NA,NA,NA,NA,NA,NA,NA,NA,NA,NA,NA,NA,NA,6,0,6,0,1,NA,NA,NA,NA,NA,NA,NA,NA,NA,NA,NA,NA,NA,NA,NA,NA,NA,NA,NA,NA,NA,NA,NA
SUPAMT76205,3JAOYWH7VO39CX7I7M1QHULXZMCL9S,2232F1F6-7982-46FB-B42D-41FF46FFABBA,2023-09-26_10h21.02.406,WP_VExplicitOC_LH,2022.2.5,Win32,120.1923077,86.57407407,3.343,2,NA,NA,NA,NA,NA,bored,"bored, not bored","more bored, less bored",NA,NA,NA,NA,NA,NA,NA,NA,NA,NA,NA,NA,NA,NA,NA,0,0,0,2,1,NA,NA,NA,NA,NA,NA,NA,NA,NA,NA,NA,NA,NA,NA,NA,NA,NA,NA,NA,NA,NA,NA,NA,NA,NA,NA,NA,NA
SUPAMT76205,3JAOYWH7VO39CX7I7M1QHULXZMCL9S,2232F1F6-7982-46FB-B42D-41FF46FFABBA,2023-09-26_10h21.02.406,WP_VExplicitOC_LH,2022.2.5,Win32,120.1923077,79.39814815,3.075,2.007,NA,NA,NA,NA,NA,frustrated,"frustrated, not frustrated","more frustrated, less frustrated",NA,NA,NA,NA,NA,NA,NA,NA,NA,NA,NA,NA,NA,NA,NA,0,1,1,1,1,NA,NA,NA,NA,NA,NA,NA,NA,NA,NA,NA,NA,NA,NA,NA,NA,NA,NA,NA,NA,NA,NA,NA,NA,NA,NA,NA,NA
SUPAMT76205,3JAOYWH7VO39CX7I7M1QHULXZMCL9S,2232F1F6-7982-46FB-B42D-41FF46FFABBA,2023-09-26_10h21.02.406,WP_VExplicitOC_LH,2022.2.5,Win32,120.1923077,87.96296296,3.705,2,NA,NA,NA,NA,NA,happy,"unhappy, happy","less happy, more happy",NA,NA,NA,NA,NA,NA,NA,NA,NA,NA,NA,NA,NA,NA,NA,0,2,2,0,1,NA,NA,NA,NA,NA,NA,NA,NA,NA,NA,NA,NA,NA,NA,NA,NA,NA,NA,NA,NA,NA,NA,NA,NA,NA,NA,NA,NA
SUPAMT76205,3JAOYWH7VO39CX7I7M1QHULXZMCL9S,2232F1F6-7982-46FB-B42D-41FF46FFABBA,2023-09-26_10h21.02.406,WP_VExplicitOC_LH,2022.2.5,Win32,120.1923077,NA,NA,NA,NA,NA,NA,NA,NA,NA,NA,NA,NA,NA,NA,NA,NA,NA,NA,NA,NA,NA,NA,NA,NA,NA,NA,NA,NA,NA,NA,NA,7,0,7,0,1,NA,NA,NA,NA,NA,NA,NA,NA,NA,NA,NA,NA,NA,NA,NA,NA,NA,NA,NA,NA,NA,NA,NA
SUPAMT76205,3JAOYWH7VO39CX7I7M1QHULXZMCL9S,2232F1F6-7982-46FB-B42D-41FF46FFABBA,2023-09-26_10h21.02.406,WP_VExplicitOC_LH,2022.2.5,Win32,120.1923077,80.09259259,3.316,2.006,NA,NA,NA,NA,NA,frustrated,"frustrated, not frustrated","more frustrated, less frustrated",NA,NA,NA,NA,NA,NA,NA,NA,NA,NA,NA,NA,NA,NA,NA,0,0,0,1,1,NA,NA,NA,NA,NA,NA,NA,NA,NA,NA,NA,NA,NA,NA,NA,NA,NA,NA,NA,NA,NA,NA,NA,NA,NA,NA,NA,NA
SUPAMT76205,3JAOYWH7VO39CX7I7M1QHULXZMCL9S,2232F1F6-7982-46FB-B42D-41FF46FFABBA,2023-09-26_10h21.02.406,WP_VExplicitOC_LH,2022.2.5,Win32,120.1923077,83.7962963,3.118,2.007,NA,NA,NA,NA,NA,bored,"bored, not bored","more bored, less bored",NA,NA,NA,NA,NA,NA,NA,NA,NA,NA,NA,NA,NA,NA,NA,0,1,1,2,1,NA,NA,NA,NA,NA,NA,NA,NA,NA,NA,NA,NA,NA,NA,NA,NA,NA,NA,NA,NA,NA,NA,NA,NA,NA,NA,NA,NA
SUPAMT76205,3JAOYWH7VO39CX7I7M1QHULXZMCL9S,2232F1F6-7982-46FB-B42D-41FF46FFABBA,2023-09-26_10h21.02.406,WP_VExplicitOC_LH,2022.2.5,Win32,120.1923077,75.46296296,3.62,2.007,NA,NA,NA,NA,NA,happy,"unhappy, happy","less happy, more happy",NA,NA,NA,NA,NA,NA,NA,NA,NA,NA,NA,NA,NA,NA,NA,0,2,2,0,1,NA,NA,NA,NA,NA,NA,NA,NA,NA,NA,NA,NA,NA,NA,NA,NA,NA,NA,NA,NA,NA,NA,NA,NA,NA,NA,NA,NA
SUPAMT76205,3JAOYWH7VO39CX7I7M1QHULXZMCL9S,2232F1F6-7982-46FB-B42D-41FF46FFABBA,2023-09-26_10h21.02.406,WP_VExplicitOC_LH,2022.2.5,Win32,120.1923077,NA,NA,NA,NA,NA,NA,NA,NA,NA,NA,NA,NA,NA,NA,NA,NA,NA,NA,NA,NA,NA,NA,NA,NA,NA,NA,NA,NA,NA,NA,NA,8,0,8,0,1,NA,NA,NA,NA,NA,NA,NA,NA,NA,NA,NA,NA,NA,NA,NA,NA,NA,NA,NA,NA,NA,NA,NA
SUPAMT76205,3JAOYWH7VO39CX7I7M1QHULXZMCL9S,2232F1F6-7982-46FB-B42D-41FF46FFABBA,2023-09-26_10h21.02.406,WP_VExplicitOC_LH,2022.2.5,Win32,120.1923077,91.2037037,2.915,2.006,NA,NA,NA,NA,NA,happy,"unhappy, happy","less happy, more happy",NA,NA,NA,NA,NA,NA,NA,NA,NA,NA,NA,NA,NA,NA,NA,0,0,0,0,1,NA,NA,NA,NA,NA,NA,NA,NA,NA,NA,NA,NA,NA,NA,NA,NA,NA,NA,NA,NA,NA,NA,NA,NA,NA,NA,NA,NA
SUPAMT76205,3JAOYWH7VO39CX7I7M1QHULXZMCL9S,2232F1F6-7982-46FB-B42D-41FF46FFABBA,2023-09-26_10h21.02.406,WP_VExplicitOC_LH,2022.2.5,Win32,120.1923077,76.15740741,3.286,2,NA,NA,NA,NA,NA,bored,"bored, not bored","more bored, less bored",NA,NA,NA,NA,NA,NA,NA,NA,NA,NA,NA,NA,NA,NA,NA,0,1,1,2,1,NA,NA,NA,NA,NA,NA,NA,NA,NA,NA,NA,NA,NA,NA,NA,NA,NA,NA,NA,NA,NA,NA,NA,NA,NA,NA,NA,NA
SUPAMT76205,3JAOYWH7VO39CX7I7M1QHULXZMCL9S,2232F1F6-7982-46FB-B42D-41FF46FFABBA,2023-09-26_10h21.02.406,WP_VExplicitOC_LH,2022.2.5,Win32,120.1923077,79.16666667,2.944,2.001,NA,NA,NA,NA,NA,frustrated,"frustrated, not frustrated","more frustrated, less frustrated",NA,NA,NA,NA,NA,NA,NA,NA,NA,NA,NA,NA,NA,NA,NA,0,2,2,1,1,NA,NA,NA,NA,NA,NA,NA,NA,NA,NA,NA,NA,NA,NA,NA,NA,NA,NA,NA,NA,NA,NA,NA,NA,NA,NA,NA,NA
SUPAMT76205,3JAOYWH7VO39CX7I7M1QHULXZMCL9S,2232F1F6-7982-46FB-B42D-41FF46FFABBA,2023-09-26_10h21.02.406,WP_VExplicitOC_LH,2022.2.5,Win32,120.1923077,NA,NA,NA,NA,NA,NA,NA,NA,NA,NA,NA,NA,NA,NA,NA,NA,NA,NA,NA,NA,NA,NA,NA,NA,NA,NA,NA,NA,NA,NA,NA,9,0,9,0,1,NA,NA,NA,NA,NA,NA,NA,NA,NA,NA,NA,NA,NA,NA,NA,NA,NA,NA,NA,NA,NA,NA,NA
SUPAMT76205,3JAOYWH7VO39CX7I7M1QHULXZMCL9S,2232F1F6-7982-46FB-B42D-41FF46FFABBA,2023-09-26_10h21.02.406,WP_VExplicitOC_LH,2022.2.5,Win32,120.1923077,74.30555556,3.241,2.007,NA,NA,NA,NA,NA,bored,"bored, not bored","more bored, less bored",NA,NA,NA,NA,NA,NA,NA,NA,NA,NA,NA,NA,NA,NA,NA,0,0,0,2,1,NA,NA,NA,NA,NA,NA,NA,NA,NA,NA,NA,NA,NA,NA,NA,NA,NA,NA,NA,NA,NA,NA,NA,NA,NA,NA,NA,NA
SUPAMT76205,3JAOYWH7VO39CX7I7M1QHULXZMCL9S,2232F1F6-7982-46FB-B42D-41FF46FFABBA,2023-09-26_10h21.02.406,WP_VExplicitOC_LH,2022.2.5,Win32,120.1923077,80.55555556,3.406,2,NA,NA,NA,NA,NA,happy,"unhappy, happy","less happy, more happy",NA,NA,NA,NA,NA,NA,NA,NA,NA,NA,NA,NA,NA,NA,NA,0,1,1,0,1,NA,NA,NA,NA,NA,NA,NA,NA,NA,NA,NA,NA,NA,NA,NA,NA,NA,NA,NA,NA,NA,NA,NA,NA,NA,NA,NA,NA
SUPAMT76205,3JAOYWH7VO39CX7I7M1QHULXZMCL9S,2232F1F6-7982-46FB-B42D-41FF46FFABBA,2023-09-26_10h21.02.406,WP_VExplicitOC_LH,2022.2.5,Win32,120.1923077,64.58333333,3.778,2.007,NA,NA,NA,NA,NA,frustrated,"frustrated, not frustrated","more frustrated, less frustrated",NA,NA,NA,NA,NA,NA,NA,NA,NA,NA,NA,NA,NA,NA,NA,0,2,2,1,1,NA,NA,NA,NA,NA,NA,NA,NA,NA,NA,NA,NA,NA,NA,NA,NA,NA,NA,NA,NA,NA,NA,NA,NA,NA,NA,NA,NA
SUPAMT76205,3JAOYWH7VO39CX7I7M1QHULXZMCL9S,2232F1F6-7982-46FB-B42D-41FF46FFABBA,2023-09-26_10h21.02.406,WP_VExplicitOC_LH,2022.2.5,Win32,120.1923077,NA,NA,NA,NA,NA,NA,NA,NA,NA,NA,NA,NA,NA,NA,NA,NA,NA,NA,NA,NA,NA,NA,NA,NA,NA,NA,NA,NA,NA,NA,NA,10,0,10,0,1,NA,NA,NA,NA,NA,NA,NA,NA,NA,NA,NA,NA,NA,NA,NA,NA,NA,NA,NA,NA,NA,NA,NA
SUPAMT76205,3JAOYWH7VO39CX7I7M1QHULXZMCL9S,2232F1F6-7982-46FB-B42D-41FF46FFABBA,2023-09-26_10h21.02.406,WP_VExplicitOC_LH,2022.2.5,Win32,120.1923077,72.68518519,2.744,2.001,NA,NA,NA,NA,NA,frustrated,"frustrated, not frustrated","more frustrated, less frustrated",NA,NA,NA,NA,NA,NA,NA,NA,NA,NA,NA,NA,NA,NA,NA,0,0,0,1,1,NA,NA,NA,NA,NA,NA,NA,NA,NA,NA,NA,NA,NA,NA,NA,NA,NA,NA,NA,NA,NA,NA,NA,NA,NA,NA,NA,NA
SUPAMT76205,3JAOYWH7VO39CX7I7M1QHULXZMCL9S,2232F1F6-7982-46FB-B42D-41FF46FFABBA,2023-09-26_10h21.02.406,WP_VExplicitOC_LH,2022.2.5,Win32,120.1923077,80.78703704,2.729,2,NA,NA,NA,NA,NA,happy,"unhappy, happy","less happy, more happy",NA,NA,NA,NA,NA,NA,NA,NA,NA,NA,NA,NA,NA,NA,NA,0,1,1,0,1,NA,NA,NA,NA,NA,NA,NA,NA,NA,NA,NA,NA,NA,NA,NA,NA,NA,NA,NA,NA,NA,NA,NA,NA,NA,NA,NA,NA
SUPAMT76205,3JAOYWH7VO39CX7I7M1QHULXZMCL9S,2232F1F6-7982-46FB-B42D-41FF46FFABBA,2023-09-26_10h21.02.406,WP_VExplicitOC_LH,2022.2.5,Win32,120.1923077,76.15740741,2.727,2.001,NA,NA,NA,NA,NA,bored,"bored, not bored","more bored, less bored",NA,NA,NA,NA,NA,NA,NA,NA,NA,NA,NA,NA,NA,NA,NA,0,2,2,2,1,NA,NA,NA,NA,NA,NA,NA,NA,NA,NA,NA,NA,NA,NA,NA,NA,NA,NA,NA,NA,NA,NA,NA,NA,NA,NA,NA,NA
SUPAMT76205,3JAOYWH7VO39CX7I7M1QHULXZMCL9S,2232F1F6-7982-46FB-B42D-41FF46FFABBA,2023-09-26_10h21.02.406,WP_VExplicitOC_LH,2022.2.5,Win32,120.1923077,NA,NA,NA,NA,NA,NA,NA,NA,NA,NA,NA,NA,NA,NA,NA,NA,NA,NA,NA,NA,NA,NA,NA,NA,NA,NA,NA,NA,NA,NA,NA,11,0,11,0,1,NA,NA,NA,NA,NA,NA,NA,NA,NA,NA,NA,NA,NA,NA,NA,NA,NA,NA,NA,NA,NA,NA,NA
SUPAMT76205,3JAOYWH7VO39CX7I7M1QHULXZMCL9S,2232F1F6-7982-46FB-B42D-41FF46FFABBA,2023-09-26_10h21.02.406,WP_VExplicitOC_LH,2022.2.5,Win32,120.1923077,100,3.559,2.007,NA,NA,NA,NA,NA,bored,"bored, not bored","more bored, less bored",NA,NA,NA,NA,NA,NA,NA,NA,NA,NA,NA,NA,NA,NA,NA,0,0,0,2,1,NA,NA,NA,NA,NA,NA,NA,NA,NA,NA,NA,NA,NA,NA,NA,NA,NA,NA,NA,NA,NA,NA,NA,NA,NA,NA,NA,NA
SUPAMT76205,3JAOYWH7VO39CX7I7M1QHULXZMCL9S,2232F1F6-7982-46FB-B42D-41FF46FFABBA,2023-09-26_10h21.02.406,WP_VExplicitOC_LH,2022.2.5,Win32,120.1923077,100,2.573,2,NA,NA,NA,NA,NA,frustrated,"frustrated, not frustrated","more frustrated, less frustrated",NA,NA,NA,NA,NA,NA,NA,NA,NA,NA,NA,NA,NA,NA,NA,0,1,1,1,1,NA,NA,NA,NA,NA,NA,NA,NA,NA,NA,NA,NA,NA,NA,NA,NA,NA,NA,NA,NA,NA,NA,NA,NA,NA,NA,NA,NA
SUPAMT76205,3JAOYWH7VO39CX7I7M1QHULXZMCL9S,2232F1F6-7982-46FB-B42D-41FF46FFABBA,2023-09-26_10h21.02.406,WP_VExplicitOC_LH,2022.2.5,Win32,120.1923077,100,3.085,2.008,NA,NA,NA,NA,NA,happy,"unhappy, happy","less happy, more happy",NA,NA,NA,NA,NA,NA,NA,NA,NA,NA,NA,NA,NA,NA,NA,0,2,2,0,1,NA,NA,NA,NA,NA,NA,NA,NA,NA,NA,NA,NA,NA,NA,NA,NA,NA,NA,NA,NA,NA,NA,NA,NA,NA,NA,NA,NA
SUPAMT76205,3JAOYWH7VO39CX7I7M1QHULXZMCL9S,2232F1F6-7982-46FB-B42D-41FF46FFABBA,2023-09-26_10h21.02.406,WP_VExplicitOC_LH,2022.2.5,Win32,120.1923077,NA,NA,NA,NA,NA,NA,NA,NA,NA,NA,NA,NA,NA,NA,NA,NA,NA,NA,NA,NA,NA,NA,NA,NA,NA,NA,NA,NA,NA,NA,NA,12,0,12,0,1,NA,NA,NA,NA,NA,NA,NA,NA,NA,NA,NA,NA,NA,NA,NA,NA,NA,NA,NA,NA,NA,NA,NA
SUPAMT76205,3JAOYWH7VO39CX7I7M1QHULXZMCL9S,2232F1F6-7982-46FB-B42D-41FF46FFABBA,2023-09-26_10h21.02.406,WP_VExplicitOC_LH,2022.2.5,Win32,120.1923077,60.18518519,2.541,2.008,NA,NA,NA,NA,NA,frustrated,"frustrated, not frustrated","more frustrated, less frustrated",NA,NA,NA,NA,NA,NA,NA,NA,NA,NA,NA,NA,NA,NA,NA,0,0,0,1,1,NA,NA,NA,NA,NA,NA,NA,NA,NA,NA,NA,NA,NA,NA,NA,NA,NA,NA,NA,NA,NA,NA,NA,NA,NA,NA,NA,NA
SUPAMT76205,3JAOYWH7VO39CX7I7M1QHULXZMCL9S,2232F1F6-7982-46FB-B42D-41FF46FFABBA,2023-09-26_10h21.02.406,WP_VExplicitOC_LH,2022.2.5,Win32,120.1923077,80.78703704,2.527,2.007,NA,NA,NA,NA,NA,happy,"unhappy, happy","less happy, more happy",NA,NA,NA,NA,NA,NA,NA,NA,NA,NA,NA,NA,NA,NA,NA,0,1,1,0,1,NA,NA,NA,NA,NA,NA,NA,NA,NA,NA,NA,NA,NA,NA,NA,NA,NA,NA,NA,NA,NA,NA,NA,NA,NA,NA,NA,NA
SUPAMT76205,3JAOYWH7VO39CX7I7M1QHULXZMCL9S,2232F1F6-7982-46FB-B42D-41FF46FFABBA,2023-09-26_10h21.02.406,WP_VExplicitOC_LH,2022.2.5,Win32,120.1923077,70.37037037,2.528,2.007,NA,NA,NA,NA,NA,bored,"bored, not bored","more bored, less bored",NA,NA,NA,NA,NA,NA,NA,NA,NA,NA,NA,NA,NA,NA,NA,0,2,2,2,1,NA,NA,NA,NA,NA,NA,NA,NA,NA,NA,NA,NA,NA,NA,NA,NA,NA,NA,NA,NA,NA,NA,NA,NA,NA,NA,NA,NA
SUPAMT76205,3JAOYWH7VO39CX7I7M1QHULXZMCL9S,2232F1F6-7982-46FB-B42D-41FF46FFABBA,2023-09-26_10h21.02.406,WP_VExplicitOC_LH,2022.2.5,Win32,120.1923077,NA,NA,NA,NA,NA,NA,NA,NA,NA,NA,NA,NA,NA,NA,NA,NA,NA,NA,NA,NA,NA,NA,NA,NA,NA,NA,NA,NA,NA,NA,NA,13,0,13,0,1,NA,NA,NA,NA,NA,NA,NA,NA,NA,NA,NA,NA,NA,NA,NA,NA,NA,NA,NA,NA,NA,NA,NA
SUPAMT76205,3JAOYWH7VO39CX7I7M1QHULXZMCL9S,2232F1F6-7982-46FB-B42D-41FF46FFABBA,2023-09-26_10h21.02.406,WP_VExplicitOC_LH,2022.2.5,Win32,120.1923077,65.0462963,2.645,2.007,NA,NA,NA,NA,NA,bored,"bored, not bored","more bored, less bored",NA,NA,NA,NA,NA,NA,NA,NA,NA,NA,NA,NA,NA,NA,NA,0,0,0,2,1,NA,NA,NA,NA,NA,NA,NA,NA,NA,NA,NA,NA,NA,NA,NA,NA,NA,NA,NA,NA,NA,NA,NA,NA,NA,NA,NA,NA
SUPAMT76205,3JAOYWH7VO39CX7I7M1QHULXZMCL9S,2232F1F6-7982-46FB-B42D-41FF46FFABBA,2023-09-26_10h21.02.406,WP_VExplicitOC_LH,2022.2.5,Win32,120.1923077,33.10185185,2.511,2,NA,NA,NA,NA,NA,frustrated,"frustrated, not frustrated","more frustrated, less frustrated",NA,NA,NA,NA,NA,NA,NA,NA,NA,NA,NA,NA,NA,NA,NA,0,1,1,1,1,NA,NA,NA,NA,NA,NA,NA,NA,NA,NA,NA,NA,NA,NA,NA,NA,NA,NA,NA,NA,NA,NA,NA,NA,NA,NA,NA,NA
SUPAMT76205,3JAOYWH7VO39CX7I7M1QHULXZMCL9S,2232F1F6-7982-46FB-B42D-41FF46FFABBA,2023-09-26_10h21.02.406,WP_VExplicitOC_LH,2022.2.5,Win32,120.1923077,62.96296296,2.519,2.008,NA,NA,NA,NA,NA,happy,"unhappy, happy","less happy, more happy",NA,NA,NA,NA,NA,NA,NA,NA,NA,NA,NA,NA,NA,NA,NA,0,2,2,0,1,NA,NA,NA,NA,NA,NA,NA,NA,NA,NA,NA,NA,NA,NA,NA,NA,NA,NA,NA,NA,NA,NA,NA,NA,NA,NA,NA,NA
SUPAMT76205,3JAOYWH7VO39CX7I7M1QHULXZMCL9S,2232F1F6-7982-46FB-B42D-41FF46FFABBA,2023-09-26_10h21.02.406,WP_VExplicitOC_LH,2022.2.5,Win32,120.1923077,NA,NA,NA,NA,NA,NA,NA,NA,NA,NA,NA,NA,NA,NA,NA,NA,NA,NA,NA,NA,NA,NA,NA,NA,NA,NA,NA,NA,NA,NA,NA,14,0,14,0,1,NA,NA,NA,NA,NA,NA,NA,NA,NA,NA,NA,NA,NA,NA,NA,NA,NA,NA,NA,NA,NA,NA,NA
SUPAMT76205,3JAOYWH7VO39CX7I7M1QHULXZMCL9S,2232F1F6-7982-46FB-B42D-41FF46FFABBA,2023-09-26_10h21.02.406,WP_VExplicitOC_LH,2022.2.5,Win32,120.1923077,NA,NA,NA,NA,NA,NA,NA,NA,NA,NA,NA,NA,NA,NA,NA,NA,NA,NA,NA,NA,NA,NA,NA,NA,NA,NA,NA,NA,NA,NA,NA,NA,NA,NA,NA,NA,NA,NA,NA,NA,NA,NA,NA,NA,NA,NA,NA,NA,NA,NA,NA,NA,NA,NA,NA,NA,NA,NA,NA
SUPAMT76205,3JAOYWH7VO39CX7I7M1QHULXZMCL9S,2232F1F6-7982-46FB-B42D-41FF46FFABBA,2023-09-26_10h21.02.406,WP_VExplicitOC_LH,2022.2.5,Win32,120.1923077,NA,NA,NA,NA,NA,NA,NA,NA,NA,NA,NA,NA,NA,NA,NA,NA,NA,NA,NA,NA,NA,NA,NA,NA,NA,NA,NA,NA,NA,NA,NA,NA,NA,NA,NA,NA,NA,NA,NA,NA,NA,NA,NA,NA,NA,NA,NA,NA,NA,NA,NA,NA,NA,NA,NA,NA,NA,NA,NA
SUPAMT76205,3JAOYWH7VO39CX7I7M1QHULXZMCL9S,2232F1F6-7982-46FB-B42D-41FF46FFABBA,2023-09-26_10h21.02.406,WP_VExplicitOC_LH,2022.2.5,Win32,120.1923077,NA,NA,NA,NA,NA,NA,NA,NA,NA,NA,NA,NA,NA,NA,NA,NA,NA,NA,rest (looking at a fixed cross),001.png,NA,NA,NA,NA,NA,NA,NA,NA,NA,NA,NA,NA,NA,NA,NA,NA,38.19444444,2.943,0,0,0,0,1,NA,NA,NA,NA,NA,NA,NA,NA,NA,NA,NA,NA,NA,NA,NA,NA
SUPAMT76205,3JAOYWH7VO39CX7I7M1QHULXZMCL9S,2232F1F6-7982-46FB-B42D-41FF46FFABBA,2023-09-26_10h21.02.406,WP_VExplicitOC_LH,2022.2.5,Win32,120.1923077,NA,NA,NA,NA,NA,NA,NA,NA,NA,NA,NA,NA,NA,NA,NA,NA,NA,NA,stand up,002.png,NA,NA,NA,NA,NA,NA,NA,NA,NA,NA,NA,NA,NA,NA,NA,NA,72.68518519,1.068,0,1,1,1,1,NA,NA,NA,NA,NA,NA,NA,NA,NA,NA,NA,NA,NA,NA,NA,NA
SUPAMT76205,3JAOYWH7VO39CX7I7M1QHULXZMCL9S,2232F1F6-7982-46FB-B42D-41FF46FFABBA,2023-09-26_10h21.02.406,WP_VExplicitOC_LH,2022.2.5,Win32,120.1923077,NA,NA,NA,NA,NA,NA,NA,NA,NA,NA,NA,NA,NA,NA,NA,NA,NA,NA,stretch,003.png,NA,NA,NA,NA,NA,NA,NA,NA,NA,NA,NA,NA,NA,NA,NA,NA,88.19444444,0.885,0,2,2,2,1,NA,NA,NA,NA,NA,NA,NA,NA,NA,NA,NA,NA,NA,NA,NA,NA
SUPAMT76205,3JAOYWH7VO39CX7I7M1QHULXZMCL9S,2232F1F6-7982-46FB-B42D-41FF46FFABBA,2023-09-26_10h21.02.406,WP_VExplicitOC_LH,2022.2.5,Win32,120.1923077,NA,NA,NA,NA,NA,NA,NA,NA,NA,NA,NA,NA,NA,NA,NA,NA,NA,NA,make a drink,004.png,NA,NA,NA,NA,NA,NA,NA,NA,NA,NA,NA,NA,NA,NA,NA,NA,86.11111111,1.026,0,3,3,3,1,NA,NA,NA,NA,NA,NA,NA,NA,NA,NA,NA,NA,NA,NA,NA,NA
SUPAMT76205,3JAOYWH7VO39CX7I7M1QHULXZMCL9S,2232F1F6-7982-46FB-B42D-41FF46FFABBA,2023-09-26_10h21.02.406,WP_VExplicitOC_LH,2022.2.5,Win32,120.1923077,NA,NA,NA,NA,NA,NA,NA,NA,NA,NA,NA,NA,NA,NA,NA,NA,NA,NA,scroll social media,005.png,NA,NA,NA,NA,NA,NA,NA,NA,NA,NA,NA,NA,NA,NA,NA,NA,100,0.82,0,4,4,4,1,NA,NA,NA,NA,NA,NA,NA,NA,NA,NA,NA,NA,NA,NA,NA,NA
SUPAMT76205,3JAOYWH7VO39CX7I7M1QHULXZMCL9S,2232F1F6-7982-46FB-B42D-41FF46FFABBA,2023-09-26_10h21.02.406,WP_VExplicitOC_LH,2022.2.5,Win32,120.1923077,NA,NA,NA,NA,NA,NA,NA,NA,NA,NA,NA,NA,NA,NA,NA,NA,NA,NA,listen to music,006.png,NA,NA,NA,NA,NA,NA,NA,NA,NA,NA,NA,NA,NA,NA,NA,NA,100,0.936,0,5,5,5,1,NA,NA,NA,NA,NA,NA,NA,NA,NA,NA,NA,NA,NA,NA,NA,NA
SUPAMT76205,3JAOYWH7VO39CX7I7M1QHULXZMCL9S,2232F1F6-7982-46FB-B42D-41FF46FFABBA,2023-09-26_10h21.02.406,WP_VExplicitOC_LH,2022.2.5,Win32,120.1923077,NA,NA,NA,NA,NA,NA,NA,NA,NA,NA,NA,NA,NA,NA,NA,NA,NA,NA,daydream,007.png,NA,NA,NA,NA,NA,NA,NA,NA,NA,NA,NA,NA,NA,NA,NA,NA,60.18518519,1.087,0,6,6,6,1,NA,NA,NA,NA,NA,NA,NA,NA,NA,NA,NA,NA,NA,NA,NA,NA
SUPAMT76205,3JAOYWH7VO39CX7I7M1QHULXZMCL9S,2232F1F6-7982-46FB-B42D-41FF46FFABBA,2023-09-26_10h21.02.406,WP_VExplicitOC_LH,2022.2.5,Win32,120.1923077,NA,NA,NA,NA,NA,NA,NA,NA,NA,NA,NA,NA,NA,NA,NA,NA,NA,NA,watch a short animation,008.png,NA,NA,NA,NA,NA,NA,NA,NA,NA,NA,NA,NA,NA,NA,NA,NA,100,0.82,0,7,7,7,1,NA,NA,NA,NA,NA,NA,NA,NA,NA,NA,NA,NA,NA,NA,NA,NA
SUPAMT76205,3JAOYWH7VO39CX7I7M1QHULXZMCL9S,2232F1F6-7982-46FB-B42D-41FF46FFABBA,2023-09-26_10h21.02.406,WP_VExplicitOC_LH,2022.2.5,Win32,120.1923077,NA,NA,NA,NA,NA,NA,NA,NA,NA,NA,NA,NA,NA,NA,NA,NA,NA,NA,read a novel,009.png,NA,NA,NA,NA,NA,NA,NA,NA,NA,NA,NA,NA,NA,NA,NA,NA,94.90740741,1.528,0,8,8,8,1,NA,NA,NA,NA,NA,NA,NA,NA,NA,NA,NA,NA,NA,NA,NA,NA
SUPAMT76205,3JAOYWH7VO39CX7I7M1QHULXZMCL9S,2232F1F6-7982-46FB-B42D-41FF46FFABBA,2023-09-26_10h21.02.406,WP_VExplicitOC_LH,2022.2.5,Win32,120.1923077,NA,NA,NA,NA,NA,NA,NA,NA,NA,NA,NA,NA,NA,NA,NA,NA,NA,NA,read the news,010.png,NA,NA,NA,NA,NA,NA,NA,NA,NA,NA,NA,NA,NA,NA,NA,NA,-36.57407407,0.84,0,9,9,9,1,NA,NA,NA,NA,NA,NA,NA,NA,NA,NA,NA,NA,NA,NA,NA,NA
SUPAMT76205,3JAOYWH7VO39CX7I7M1QHULXZMCL9S,2232F1F6-7982-46FB-B42D-41FF46FFABBA,2023-09-26_10h21.02.406,WP_VExplicitOC_LH,2022.2.5,Win32,120.1923077,NA,NA,NA,NA,NA,NA,NA,NA,NA,NA,NA,NA,NA,NA,NA,NA,NA,NA,NA,NA,NA,NA,NA,NA,NA,NA,NA,NA,NA,NA,NA,NA,NA,NA,NA,NA,NA,NA,NA,NA,NA,NA,NA,scroll social media,NA,NA,NA,NA,NA,NA,NA,NA,NA,NA,NA,NA,NA,NA,NA
SUPAMT76205,3JAOYWH7VO39CX7I7M1QHULXZMCL9S,2232F1F6-7982-46FB-B42D-41FF46FFABBA,2023-09-26_10h21.02.406,WP_VExplicitOC_LH,2022.2.5,Win32,120.1923077,56.01851852,3.422,2.008,NA,NA,NA,NA,NA,happy,"unhappy, happy","less happy, more happy",NA,NA,NA,NA,NA,NA,NA,NA,NA,NA,NA,NA,NA,NA,NA,NA,NA,NA,NA,NA,NA,NA,NA,NA,NA,NA,NA,NA,NA,NA,NA,NA,NA,0,0,0,0,1,NA,NA,NA,NA,NA,NA,NA,NA,NA,NA
SUPAMT76205,3JAOYWH7VO39CX7I7M1QHULXZMCL9S,2232F1F6-7982-46FB-B42D-41FF46FFABBA,2023-09-26_10h21.02.406,WP_VExplicitOC_LH,2022.2.5,Win32,120.1923077,59.49074074,2.97,2,NA,NA,NA,NA,NA,bored,"bored, not bored","more bored, less bored",NA,NA,NA,NA,NA,NA,NA,NA,NA,NA,NA,NA,NA,NA,NA,NA,NA,NA,NA,NA,NA,NA,NA,NA,NA,NA,NA,NA,NA,NA,NA,NA,NA,0,1,1,2,1,NA,NA,NA,NA,NA,NA,NA,NA,NA,NA
SUPAMT76205,3JAOYWH7VO39CX7I7M1QHULXZMCL9S,2232F1F6-7982-46FB-B42D-41FF46FFABBA,2023-09-26_10h21.02.406,WP_VExplicitOC_LH,2022.2.5,Win32,120.1923077,44.90740741,2.791,2,NA,NA,NA,NA,NA,frustrated,"frustrated, not frustrated","more frustrated, less frustrated",NA,NA,NA,NA,NA,NA,NA,NA,NA,NA,NA,NA,NA,NA,NA,NA,NA,NA,NA,NA,NA,NA,NA,NA,NA,NA,NA,NA,NA,NA,NA,NA,NA,0,2,2,1,1,NA,NA,NA,NA,NA,NA,NA,NA,NA,NA
SUPAMT76205,3JAOYWH7VO39CX7I7M1QHULXZMCL9S,2232F1F6-7982-46FB-B42D-41FF46FFABBA,2023-09-26_10h21.02.406,WP_VExplicitOC_LH,2022.2.5,Win32,120.1923077,NA,NA,NA,NA,NA,NA,NA,NA,NA,NA,NA,NA,NA,NA,NA,NA,NA,NA,NA,NA,NA,NA,NA,NA,NA,NA,NA,NA,NA,NA,NA,NA,NA,NA,NA,NA,NA,NA,NA,NA,NA,NA,NA,NA,NA,NA,NA,NA,NA,NA,NA,NA,NA,NA,NA,NA,NA,NA,NA
SUPAMT76205,3JAOYWH7VO39CX7I7M1QHULXZMCL9S,2232F1F6-7982-46FB-B42D-41FF46FFABBA,2023-09-26_10h21.02.406,WP_VExplicitOC_LH,2022.2.5,Win32,120.1923077,NA,NA,NA,NA,NA,NA,NA,NA,NA,NA,NA,NA,NA,NA,NA,NA,NA,NA,NA,NA,NA,NA,NA,NA,NA,NA,NA,NA,NA,NA,NA,NA,NA,NA,NA,NA,NA,NA,NA,NA,NA,NA,NA,NA,NA,NA,NA,NA,NA,NA,NA,NA,NA,NA,NA,NA,NA,NA,NA
SUPAMT76205,3JAOYWH7VO39CX7I7M1QHULXZMCL9S,2232F1F6-7982-46FB-B42D-41FF46FFABBA,2023-09-26_10h21.02.406,WP_VExplicitOC_LH,2022.2.5,Win32,120.1923077,56.48148148,2.882,2.007,NA,NA,NA,NA,NA,frustrated,"frustrated, not frustrated","more frustrated, less frustrated",NA,NA,NA,NA,NA,NA,NA,NA,NA,NA,NA,NA,NA,NA,NA,NA,NA,NA,NA,NA,NA,NA,NA,NA,NA,NA,NA,NA,NA,NA,NA,NA,NA,NA,NA,NA,NA,NA,0,0,0,1,1,NA,NA,NA,NA,NA
SUPAMT76205,3JAOYWH7VO39CX7I7M1QHULXZMCL9S,2232F1F6-7982-46FB-B42D-41FF46FFABBA,2023-09-26_10h21.02.406,WP_VExplicitOC_LH,2022.2.5,Win32,120.1923077,68.51851852,2.747,2,NA,NA,NA,NA,NA,happy,"unhappy, happy","less happy, more happy",NA,NA,NA,NA,NA,NA,NA,NA,NA,NA,NA,NA,NA,NA,NA,NA,NA,NA,NA,NA,NA,NA,NA,NA,NA,NA,NA,NA,NA,NA,NA,NA,NA,NA,NA,NA,NA,NA,0,1,1,0,1,NA,NA,NA,NA,NA
SUPAMT76205,3JAOYWH7VO39CX7I7M1QHULXZMCL9S,2232F1F6-7982-46FB-B42D-41FF46FFABBA,2023-09-26_10h21.02.406,WP_VExplicitOC_LH,2022.2.5,Win32,120.1923077,54.16666667,2.751,2.007,NA,NA,NA,NA,NA,bored,"bored, not bored","more bored, less bored",NA,NA,NA,NA,NA,NA,NA,NA,NA,NA,NA,NA,NA,NA,NA,NA,NA,NA,NA,NA,NA,NA,NA,NA,NA,NA,NA,NA,NA,NA,NA,NA,NA,NA,NA,NA,NA,NA,0,2,2,2,1,NA,NA,NA,NA,NA
SUPAMT76205,3JAOYWH7VO39CX7I7M1QHULXZMCL9S,2232F1F6-7982-46FB-B42D-41FF46FFABBA,2023-09-26_10h21.02.406,WP_VExplicitOC_LH,2022.2.5,Win32,120.1923077,NA,NA,NA,NA,NA,NA,NA,NA,NA,NA,NA,NA,NA,NA,NA,NA,NA,NA,NA,NA,NA,NA,NA,NA,NA,NA,NA,NA,NA,NA,NA,NA,NA,NA,NA,NA,NA,NA,NA,NA,NA,NA,NA,NA,NA,NA,NA,NA,NA,NA,NA,NA,NA,NA,0,0,0,0,1
SUPAMT76205,3JAOYWH7VO39CX7I7M1QHULXZMCL9S,2232F1F6-7982-46FB-B42D-41FF46FFABBA,2023-09-26_10h21.02.406,WP_VExplicitOC_LH,2022.2.5,Win32,120.1923077,38.65740741,2.648,2,NA,NA,NA,NA,NA,bored,"bored, not bored","more bored, less bored",NA,NA,NA,NA,NA,NA,NA,NA,NA,NA,NA,NA,NA,NA,NA,NA,NA,NA,NA,NA,NA,NA,NA,NA,NA,NA,NA,NA,NA,NA,NA,NA,NA,NA,NA,NA,NA,NA,0,0,0,2,1,NA,NA,NA,NA,NA
SUPAMT76205,3JAOYWH7VO39CX7I7M1QHULXZMCL9S,2232F1F6-7982-46FB-B42D-41FF46FFABBA,2023-09-26_10h21.02.406,WP_VExplicitOC_LH,2022.2.5,Win32,120.1923077,34.72222222,2.585,2.007,NA,NA,NA,NA,NA,happy,"unhappy, happy","less happy, more happy",NA,NA,NA,NA,NA,NA,NA,NA,NA,NA,NA,NA,NA,NA,NA,NA,NA,NA,NA,NA,NA,NA,NA,NA,NA,NA,NA,NA,NA,NA,NA,NA,NA,NA,NA,NA,NA,NA,0,1,1,0,1,NA,NA,NA,NA,NA
SUPAMT76205,3JAOYWH7VO39CX7I7M1QHULXZMCL9S,2232F1F6-7982-46FB-B42D-41FF46FFABBA,2023-09-26_10h21.02.406,WP_VExplicitOC_LH,2022.2.5,Win32,120.1923077,37.96296296,2.772,2,NA,NA,NA,NA,NA,frustrated,"frustrated, not frustrated","more frustrated, less frustrated",NA,NA,NA,NA,NA,NA,NA,NA,NA,NA,NA,NA,NA,NA,NA,NA,NA,NA,NA,NA,NA,NA,NA,NA,NA,NA,NA,NA,NA,NA,NA,NA,NA,NA,NA,NA,NA,NA,0,2,2,1,1,NA,NA,NA,NA,NA
SUPAMT76205,3JAOYWH7VO39CX7I7M1QHULXZMCL9S,2232F1F6-7982-46FB-B42D-41FF46FFABBA,2023-09-26_10h21.02.406,WP_VExplicitOC_LH,2022.2.5,Win32,120.1923077,NA,NA,NA,NA,NA,NA,NA,NA,NA,NA,NA,NA,NA,NA,NA,NA,NA,NA,NA,NA,NA,NA,NA,NA,NA,NA,NA,NA,NA,NA,NA,NA,NA,NA,NA,NA,NA,NA,NA,NA,NA,NA,NA,NA,NA,NA,NA,NA,NA,NA,NA,NA,NA,NA,1,0,1,0,1
SUPAMT76205,3JAOYWH7VO39CX7I7M1QHULXZMCL9S,2232F1F6-7982-46FB-B42D-41FF46FFABBA,2023-09-26_10h21.02.406,WP_VExplicitOC_LH,2022.2.5,Win32,120.1923077,42.36111111,2.59,2.007,NA,NA,NA,NA,NA,happy,"unhappy, happy","less happy, more happy",NA,NA,NA,NA,NA,NA,NA,NA,NA,NA,NA,NA,NA,NA,NA,NA,NA,NA,NA,NA,NA,NA,NA,NA,NA,NA,NA,NA,NA,NA,NA,NA,NA,NA,NA,NA,NA,NA,0,0,0,0,1,NA,NA,NA,NA,NA
SUPAMT76205,3JAOYWH7VO39CX7I7M1QHULXZMCL9S,2232F1F6-7982-46FB-B42D-41FF46FFABBA,2023-09-26_10h21.02.406,WP_VExplicitOC_LH,2022.2.5,Win32,120.1923077,29.16666667,2.693,2,NA,NA,NA,NA,NA,bored,"bored, not bored","more bored, less bored",NA,NA,NA,NA,NA,NA,NA,NA,NA,NA,NA,NA,NA,NA,NA,NA,NA,NA,NA,NA,NA,NA,NA,NA,NA,NA,NA,NA,NA,NA,NA,NA,NA,NA,NA,NA,NA,NA,0,1,1,2,1,NA,NA,NA,NA,NA
SUPAMT76205,3JAOYWH7VO39CX7I7M1QHULXZMCL9S,2232F1F6-7982-46FB-B42D-41FF46FFABBA,2023-09-26_10h21.02.406,WP_VExplicitOC_LH,2022.2.5,Win32,120.1923077,32.40740741,2.668,2.007,NA,NA,NA,NA,NA,frustrated,"frustrated, not frustrated","more frustrated, less frustrated",NA,NA,NA,NA,NA,NA,NA,NA,NA,NA,NA,NA,NA,NA,NA,NA,NA,NA,NA,NA,NA,NA,NA,NA,NA,NA,NA,NA,NA,NA,NA,NA,NA,NA,NA,NA,NA,NA,0,2,2,1,1,NA,NA,NA,NA,NA
SUPAMT76205,3JAOYWH7VO39CX7I7M1QHULXZMCL9S,2232F1F6-7982-46FB-B42D-41FF46FFABBA,2023-09-26_10h21.02.406,WP_VExplicitOC_LH,2022.2.5,Win32,120.1923077,NA,NA,NA,NA,NA,NA,NA,NA,NA,NA,NA,NA,NA,NA,NA,NA,NA,NA,NA,NA,NA,NA,NA,NA,NA,NA,NA,NA,NA,NA,NA,NA,NA,NA,NA,NA,NA,NA,NA,NA,NA,NA,NA,NA,NA,NA,NA,NA,NA,NA,NA,NA,NA,NA,2,0,2,0,1
SUPAMT76205,3JAOYWH7VO39CX7I7M1QHULXZMCL9S,2232F1F6-7982-46FB-B42D-41FF46FFABBA,2023-09-26_10h21.02.406,WP_VExplicitOC_LH,2022.2.5,Win32,120.1923077,59.49074074,3.025,2.007,NA,NA,NA,NA,NA,happy,"unhappy, happy","less happy, more happy",NA,NA,NA,NA,NA,NA,NA,NA,NA,NA,NA,NA,NA,NA,NA,NA,NA,NA,NA,NA,NA,NA,NA,NA,NA,NA,NA,NA,NA,NA,NA,NA,NA,NA,NA,NA,NA,NA,0,0,0,0,1,NA,NA,NA,NA,NA
SUPAMT76205,3JAOYWH7VO39CX7I7M1QHULXZMCL9S,2232F1F6-7982-46FB-B42D-41FF46FFABBA,2023-09-26_10h21.02.406,WP_VExplicitOC_LH,2022.2.5,Win32,120.1923077,46.99074074,2.975,2.007,NA,NA,NA,NA,NA,frustrated,"frustrated, not frustrated","more frustrated, less frustrated",NA,NA,NA,NA,NA,NA,NA,NA,NA,NA,NA,NA,NA,NA,NA,NA,NA,NA,NA,NA,NA,NA,NA,NA,NA,NA,NA,NA,NA,NA,NA,NA,NA,NA,NA,NA,NA,NA,0,1,1,1,1,NA,NA,NA,NA,NA
SUPAMT76205,3JAOYWH7VO39CX7I7M1QHULXZMCL9S,2232F1F6-7982-46FB-B42D-41FF46FFABBA,2023-09-26_10h21.02.406,WP_VExplicitOC_LH,2022.2.5,Win32,120.1923077,31.01851852,2.856,2,NA,NA,NA,NA,NA,bored,"bored, not bored","more bored, less bored",NA,NA,NA,NA,NA,NA,NA,NA,NA,NA,NA,NA,NA,NA,NA,NA,NA,NA,NA,NA,NA,NA,NA,NA,NA,NA,NA,NA,NA,NA,NA,NA,NA,NA,NA,NA,NA,NA,0,2,2,2,1,NA,NA,NA,NA,NA
SUPAMT76205,3JAOYWH7VO39CX7I7M1QHULXZMCL9S,2232F1F6-7982-46FB-B42D-41FF46FFABBA,2023-09-26_10h21.02.406,WP_VExplicitOC_LH,2022.2.5,Win32,120.1923077,NA,NA,NA,NA,NA,NA,NA,NA,NA,NA,NA,NA,NA,NA,NA,NA,NA,NA,NA,NA,NA,NA,NA,NA,NA,NA,NA,NA,NA,NA,NA,NA,NA,NA,NA,NA,NA,NA,NA,NA,NA,NA,NA,NA,NA,NA,NA,NA,NA,NA,NA,NA,NA,NA,3,0,3,0,1
SUPAMT76205,3JAOYWH7VO39CX7I7M1QHULXZMCL9S,2232F1F6-7982-46FB-B42D-41FF46FFABBA,2023-09-26_10h21.02.406,WP_VExplicitOC_LH,2022.2.5,Win32,120.1923077,48.61111111,3.144,2.008,NA,NA,NA,NA,NA,bored,"bored, not bored","more bored, less bored",NA,NA,NA,NA,NA,NA,NA,NA,NA,NA,NA,NA,NA,NA,NA,NA,NA,NA,NA,NA,NA,NA,NA,NA,NA,NA,NA,NA,NA,NA,NA,NA,NA,NA,NA,NA,NA,NA,0,0,0,2,1,NA,NA,NA,NA,NA
SUPAMT76205,3JAOYWH7VO39CX7I7M1QHULXZMCL9S,2232F1F6-7982-46FB-B42D-41FF46FFABBA,2023-09-26_10h21.02.406,WP_VExplicitOC_LH,2022.2.5,Win32,120.1923077,30.324074070000002,2.888,2.007,NA,NA,NA,NA,NA,happy,"unhappy, happy","less happy, more happy",NA,NA,NA,NA,NA,NA,NA,NA,NA,NA,NA,NA,NA,NA,NA,NA,NA,NA,NA,NA,NA,NA,NA,NA,NA,NA,NA,NA,NA,NA,NA,NA,NA,NA,NA,NA,NA,NA,0,1,1,0,1,NA,NA,NA,NA,NA
SUPAMT76205,3JAOYWH7VO39CX7I7M1QHULXZMCL9S,2232F1F6-7982-46FB-B42D-41FF46FFABBA,2023-09-26_10h21.02.406,WP_VExplicitOC_LH,2022.2.5,Win32,120.1923077,34.9537037,2.436,2,NA,NA,NA,NA,NA,frustrated,"frustrated, not frustrated","more frustrated, less frustrated",NA,NA,NA,NA,NA,NA,NA,NA,NA,NA,NA,NA,NA,NA,NA,NA,NA,NA,NA,NA,NA,NA,NA,NA,NA,NA,NA,NA,NA,NA,NA,NA,NA,NA,NA,NA,NA,NA,0,2,2,1,1,NA,NA,NA,NA,NA
SUPAMT76205,3JAOYWH7VO39CX7I7M1QHULXZMCL9S,2232F1F6-7982-46FB-B42D-41FF46FFABBA,2023-09-26_10h21.02.406,WP_VExplicitOC_LH,2022.2.5,Win32,120.1923077,NA,NA,NA,NA,NA,NA,NA,NA,NA,NA,NA,NA,NA,NA,NA,NA,NA,NA,NA,NA,NA,NA,NA,NA,NA,NA,NA,NA,NA,NA,NA,NA,NA,NA,NA,NA,NA,NA,NA,NA,NA,NA,NA,NA,NA,NA,NA,NA,NA,NA,NA,NA,NA,NA,4,0,4,0,1
SUPAMT76205,3JAOYWH7VO39CX7I7M1QHULXZMCL9S,2232F1F6-7982-46FB-B42D-41FF46FFABBA,2023-09-26_10h21.02.406,WP_VExplicitOC_LH,2022.2.5,Win32,120.1923077,28.93518519,3.165,2.006,NA,NA,NA,NA,NA,bored,"bored, not bored","more bored, less bored",NA,NA,NA,NA,NA,NA,NA,NA,NA,NA,NA,NA,NA,NA,NA,NA,NA,NA,NA,NA,NA,NA,NA,NA,NA,NA,NA,NA,NA,NA,NA,NA,NA,NA,NA,NA,NA,NA,0,0,0,2,1,NA,NA,NA,NA,NA
SUPAMT76205,3JAOYWH7VO39CX7I7M1QHULXZMCL9S,2232F1F6-7982-46FB-B42D-41FF46FFABBA,2023-09-26_10h21.02.406,WP_VExplicitOC_LH,2022.2.5,Win32,120.1923077,27.31481481,2.804,2.007,NA,NA,NA,NA,NA,frustrated,"frustrated, not frustrated","more frustrated, less frustrated",NA,NA,NA,NA,NA,NA,NA,NA,NA,NA,NA,NA,NA,NA,NA,NA,NA,NA,NA,NA,NA,NA,NA,NA,NA,NA,NA,NA,NA,NA,NA,NA,NA,NA,NA,NA,NA,NA,0,1,1,1,1,NA,NA,NA,NA,NA
SUPAMT76205,3JAOYWH7VO39CX7I7M1QHULXZMCL9S,2232F1F6-7982-46FB-B42D-41FF46FFABBA,2023-09-26_10h21.02.406,WP_VExplicitOC_LH,2022.2.5,Win32,120.1923077,25.69444444,3.852,2.008,NA,NA,NA,NA,NA,happy,"unhappy, happy","less happy, more happy",NA,NA,NA,NA,NA,NA,NA,NA,NA,NA,NA,NA,NA,NA,NA,NA,NA,NA,NA,NA,NA,NA,NA,NA,NA,NA,NA,NA,NA,NA,NA,NA,NA,NA,NA,NA,NA,NA,0,2,2,0,1,NA,NA,NA,NA,NA
SUPAMT76205,3JAOYWH7VO39CX7I7M1QHULXZMCL9S,2232F1F6-7982-46FB-B42D-41FF46FFABBA,2023-09-26_10h21.02.406,WP_VExplicitOC_LH,2022.2.5,Win32,120.1923077,NA,NA,NA,NA,NA,NA,NA,NA,NA,NA,NA,NA,NA,NA,NA,NA,NA,NA,NA,NA,NA,NA,NA,NA,NA,NA,NA,NA,NA,NA,NA,NA,NA,NA,NA,NA,NA,NA,NA,NA,NA,NA,NA,NA,NA,NA,NA,NA,NA,NA,NA,NA,NA,NA,5,0,5,0,1
SUPAMT76205,3JAOYWH7VO39CX7I7M1QHULXZMCL9S,2232F1F6-7982-46FB-B42D-41FF46FFABBA,2023-09-26_10h21.02.406,WP_VExplicitOC_LH,2022.2.5,Win32,120.1923077,31.01851852,5.235,2.007,NA,NA,NA,NA,NA,happy,"unhappy, happy","less happy, more happy",NA,NA,NA,NA,NA,NA,NA,NA,NA,NA,NA,NA,NA,NA,NA,NA,NA,NA,NA,NA,NA,NA,NA,NA,NA,NA,NA,NA,NA,NA,NA,NA,NA,NA,NA,NA,NA,NA,0,0,0,0,1,NA,NA,NA,NA,NA
SUPAMT76205,3JAOYWH7VO39CX7I7M1QHULXZMCL9S,2232F1F6-7982-46FB-B42D-41FF46FFABBA,2023-09-26_10h21.02.406,WP_VExplicitOC_LH,2022.2.5,Win32,120.1923077,43.28703704,2.272,2,NA,NA,NA,NA,NA,bored,"bored, not bored","more bored, less bored",NA,NA,NA,NA,NA,NA,NA,NA,NA,NA,NA,NA,NA,NA,NA,NA,NA,NA,NA,NA,NA,NA,NA,NA,NA,NA,NA,NA,NA,NA,NA,NA,NA,NA,NA,NA,NA,NA,0,1,1,2,1,NA,NA,NA,NA,NA
SUPAMT76205,3JAOYWH7VO39CX7I7M1QHULXZMCL9S,2232F1F6-7982-46FB-B42D-41FF46FFABBA,2023-09-26_10h21.02.406,WP_VExplicitOC_LH,2022.2.5,Win32,120.1923077,43.75,2.26,2.007,NA,NA,NA,NA,NA,frustrated,"frustrated, not frustrated","more frustrated, less frustrated",NA,NA,NA,NA,NA,NA,NA,NA,NA,NA,NA,NA,NA,NA,NA,NA,NA,NA,NA,NA,NA,NA,NA,NA,NA,NA,NA,NA,NA,NA,NA,NA,NA,NA,NA,NA,NA,NA,0,2,2,1,1,NA,NA,NA,NA,NA
SUPAMT76205,3JAOYWH7VO39CX7I7M1QHULXZMCL9S,2232F1F6-7982-46FB-B42D-41FF46FFABBA,2023-09-26_10h21.02.406,WP_VExplicitOC_LH,2022.2.5,Win32,120.1923077,NA,NA,NA,NA,NA,NA,NA,NA,NA,NA,NA,NA,NA,NA,NA,NA,NA,NA,NA,NA,NA,NA,NA,NA,NA,NA,NA,NA,NA,NA,NA,NA,NA,NA,NA,NA,NA,NA,NA,NA,NA,NA,NA,NA,NA,NA,NA,NA,NA,NA,NA,NA,NA,NA,6,0,6,0,1
SUPAMT76205,3JAOYWH7VO39CX7I7M1QHULXZMCL9S,2232F1F6-7982-46FB-B42D-41FF46FFABBA,2023-09-26_10h21.02.406,WP_VExplicitOC_LH,2022.2.5,Win32,120.1923077,35.64814815,2.842,2.008,NA,NA,NA,NA,NA,frustrated,"frustrated, not frustrated","more frustrated, less frustrated",NA,NA,NA,NA,NA,NA,NA,NA,NA,NA,NA,NA,NA,NA,NA,NA,NA,NA,NA,NA,NA,NA,NA,NA,NA,NA,NA,NA,NA,NA,NA,NA,NA,NA,NA,NA,NA,NA,0,0,0,1,1,NA,NA,NA,NA,NA
SUPAMT76205,3JAOYWH7VO39CX7I7M1QHULXZMCL9S,2232F1F6-7982-46FB-B42D-41FF46FFABBA,2023-09-26_10h21.02.406,WP_VExplicitOC_LH,2022.2.5,Win32,120.1923077,35.64814815,2.16,2.008,NA,NA,NA,NA,NA,bored,"bored, not bored","more bored, less bored",NA,NA,NA,NA,NA,NA,NA,NA,NA,NA,NA,NA,NA,NA,NA,NA,NA,NA,NA,NA,NA,NA,NA,NA,NA,NA,NA,NA,NA,NA,NA,NA,NA,NA,NA,NA,NA,NA,0,1,1,2,1,NA,NA,NA,NA,NA
SUPAMT76205,3JAOYWH7VO39CX7I7M1QHULXZMCL9S,2232F1F6-7982-46FB-B42D-41FF46FFABBA,2023-09-26_10h21.02.406,WP_VExplicitOC_LH,2022.2.5,Win32,120.1923077,35.64814815,2.36,2,NA,NA,NA,NA,NA,happy,"unhappy, happy","less happy, more happy",NA,NA,NA,NA,NA,NA,NA,NA,NA,NA,NA,NA,NA,NA,NA,NA,NA,NA,NA,NA,NA,NA,NA,NA,NA,NA,NA,NA,NA,NA,NA,NA,NA,NA,NA,NA,NA,NA,0,2,2,0,1,NA,NA,NA,NA,NA
SUPAMT76205,3JAOYWH7VO39CX7I7M1QHULXZMCL9S,2232F1F6-7982-46FB-B42D-41FF46FFABBA,2023-09-26_10h21.02.406,WP_VExplicitOC_LH,2022.2.5,Win32,120.1923077,NA,NA,NA,NA,NA,NA,NA,NA,NA,NA,NA,NA,NA,NA,NA,NA,NA,NA,NA,NA,NA,NA,NA,NA,NA,NA,NA,NA,NA,NA,NA,NA,NA,NA,NA,NA,NA,NA,NA,NA,NA,NA,NA,NA,NA,NA,NA,NA,NA,NA,NA,NA,NA,NA,7,0,7,0,1
SUPAMT76205,3JAOYWH7VO39CX7I7M1QHULXZMCL9S,2232F1F6-7982-46FB-B42D-41FF46FFABBA,2023-09-26_10h21.02.406,WP_VExplicitOC_LH,2022.2.5,Win32,120.1923077,34.25925926,3.516,2.007,NA,NA,NA,NA,NA,frustrated,"frustrated, not frustrated","more frustrated, less frustrated",NA,NA,NA,NA,NA,NA,NA,NA,NA,NA,NA,NA,NA,NA,NA,NA,NA,NA,NA,NA,NA,NA,NA,NA,NA,NA,NA,NA,NA,NA,NA,NA,NA,NA,NA,NA,NA,NA,0,0,0,1,1,NA,NA,NA,NA,NA
SUPAMT76205,3JAOYWH7VO39CX7I7M1QHULXZMCL9S,2232F1F6-7982-46FB-B42D-41FF46FFABBA,2023-09-26_10h21.02.406,WP_VExplicitOC_LH,2022.2.5,Win32,120.1923077,39.12037037,2.453,2.007,NA,NA,NA,NA,NA,happy,"unhappy, happy","less happy, more happy",NA,NA,NA,NA,NA,NA,NA,NA,NA,NA,NA,NA,NA,NA,NA,NA,NA,NA,NA,NA,NA,NA,NA,NA,NA,NA,NA,NA,NA,NA,NA,NA,NA,NA,NA,NA,NA,NA,0,1,1,0,1,NA,NA,NA,NA,NA
SUPAMT76205,3JAOYWH7VO39CX7I7M1QHULXZMCL9S,2232F1F6-7982-46FB-B42D-41FF46FFABBA,2023-09-26_10h21.02.406,WP_VExplicitOC_LH,2022.2.5,Win32,120.1923077,41.2037037,2.978,2.008,NA,NA,NA,NA,NA,bored,"bored, not bored","more bored, less bored",NA,NA,NA,NA,NA,NA,NA,NA,NA,NA,NA,NA,NA,NA,NA,NA,NA,NA,NA,NA,NA,NA,NA,NA,NA,NA,NA,NA,NA,NA,NA,NA,NA,NA,NA,NA,NA,NA,0,2,2,2,1,NA,NA,NA,NA,NA
SUPAMT76205,3JAOYWH7VO39CX7I7M1QHULXZMCL9S,2232F1F6-7982-46FB-B42D-41FF46FFABBA,2023-09-26_10h21.02.406,WP_VExplicitOC_LH,2022.2.5,Win32,120.1923077,NA,NA,NA,NA,NA,NA,NA,NA,NA,NA,NA,NA,NA,NA,NA,NA,NA,NA,NA,NA,NA,NA,NA,NA,NA,NA,NA,NA,NA,NA,NA,NA,NA,NA,NA,NA,NA,NA,NA,NA,NA,NA,NA,NA,NA,NA,NA,NA,NA,NA,NA,NA,NA,NA,8,0,8,0,1
SUPAMT76205,3JAOYWH7VO39CX7I7M1QHULXZMCL9S,2232F1F6-7982-46FB-B42D-41FF46FFABBA,2023-09-26_10h21.02.406,WP_VExplicitOC_LH,2022.2.5,Win32,120.1923077,42.12962963,2.317,2.006,NA,NA,NA,NA,NA,frustrated,"frustrated, not frustrated","more frustrated, less frustrated",NA,NA,NA,NA,NA,NA,NA,NA,NA,NA,NA,NA,NA,NA,NA,NA,NA,NA,NA,NA,NA,NA,NA,NA,NA,NA,NA,NA,NA,NA,NA,NA,NA,NA,NA,NA,NA,NA,0,0,0,1,1,NA,NA,NA,NA,NA
SUPAMT76205,3JAOYWH7VO39CX7I7M1QHULXZMCL9S,2232F1F6-7982-46FB-B42D-41FF46FFABBA,2023-09-26_10h21.02.406,WP_VExplicitOC_LH,2022.2.5,Win32,120.1923077,39.35185185,2.33,2,NA,NA,NA,NA,NA,bored,"bored, not bored","more bored, less bored",NA,NA,NA,NA,NA,NA,NA,NA,NA,NA,NA,NA,NA,NA,NA,NA,NA,NA,NA,NA,NA,NA,NA,NA,NA,NA,NA,NA,NA,NA,NA,NA,NA,NA,NA,NA,NA,NA,0,1,1,2,1,NA,NA,NA,NA,NA
SUPAMT76205,3JAOYWH7VO39CX7I7M1QHULXZMCL9S,2232F1F6-7982-46FB-B42D-41FF46FFABBA,2023-09-26_10h21.02.406,WP_VExplicitOC_LH,2022.2.5,Win32,120.1923077,45.83333333,2.411,2.007,NA,NA,NA,NA,NA,happy,"unhappy, happy","less happy, more happy",NA,NA,NA,NA,NA,NA,NA,NA,NA,NA,NA,NA,NA,NA,NA,NA,NA,NA,NA,NA,NA,NA,NA,NA,NA,NA,NA,NA,NA,NA,NA,NA,NA,NA,NA,NA,NA,NA,0,2,2,0,1,NA,NA,NA,NA,NA
SUPAMT76205,3JAOYWH7VO39CX7I7M1QHULXZMCL9S,2232F1F6-7982-46FB-B42D-41FF46FFABBA,2023-09-26_10h21.02.406,WP_VExplicitOC_LH,2022.2.5,Win32,120.1923077,NA,NA,NA,NA,NA,NA,NA,NA,NA,NA,NA,NA,NA,NA,NA,NA,NA,NA,NA,NA,NA,NA,NA,NA,NA,NA,NA,NA,NA,NA,NA,NA,NA,NA,NA,NA,NA,NA,NA,NA,NA,NA,NA,NA,NA,NA,NA,NA,NA,NA,NA,NA,NA,NA,9,0,9,0,1
SUPAMT76205,3JAOYWH7VO39CX7I7M1QHULXZMCL9S,2232F1F6-7982-46FB-B42D-41FF46FFABBA,2023-09-26_10h21.02.406,WP_VExplicitOC_LH,2022.2.5,Win32,120.1923077,43.75,2.369,2.006,NA,NA,NA,NA,NA,happy,"unhappy, happy","less happy, more happy",NA,NA,NA,NA,NA,NA,NA,NA,NA,NA,NA,NA,NA,NA,NA,NA,NA,NA,NA,NA,NA,NA,NA,NA,NA,NA,NA,NA,NA,NA,NA,NA,NA,NA,NA,NA,NA,NA,0,0,0,0,1,NA,NA,NA,NA,NA
SUPAMT76205,3JAOYWH7VO39CX7I7M1QHULXZMCL9S,2232F1F6-7982-46FB-B42D-41FF46FFABBA,2023-09-26_10h21.02.406,WP_VExplicitOC_LH,2022.2.5,Win32,120.1923077,49.76851852,2.988,2,NA,NA,NA,NA,NA,frustrated,"frustrated, not frustrated","more frustrated, less frustrated",NA,NA,NA,NA,NA,NA,NA,NA,NA,NA,NA,NA,NA,NA,NA,NA,NA,NA,NA,NA,NA,NA,NA,NA,NA,NA,NA,NA,NA,NA,NA,NA,NA,NA,NA,NA,NA,NA,0,1,1,1,1,NA,NA,NA,NA,NA
SUPAMT76205,3JAOYWH7VO39CX7I7M1QHULXZMCL9S,2232F1F6-7982-46FB-B42D-41FF46FFABBA,2023-09-26_10h21.02.406,WP_VExplicitOC_LH,2022.2.5,Win32,120.1923077,50.46296296,2.524,2.008,NA,NA,NA,NA,NA,bored,"bored, not bored","more bored, less bored",NA,NA,NA,NA,NA,NA,NA,NA,NA,NA,NA,NA,NA,NA,NA,NA,NA,NA,NA,NA,NA,NA,NA,NA,NA,NA,NA,NA,NA,NA,NA,NA,NA,NA,NA,NA,NA,NA,0,2,2,2,1,NA,NA,NA,NA,NA
SUPAMT76205,3JAOYWH7VO39CX7I7M1QHULXZMCL9S,2232F1F6-7982-46FB-B42D-41FF46FFABBA,2023-09-26_10h21.02.406,WP_VExplicitOC_LH,2022.2.5,Win32,120.1923077,NA,NA,NA,NA,NA,NA,NA,NA,NA,NA,NA,NA,NA,NA,NA,NA,NA,NA,NA,NA,NA,NA,NA,NA,NA,NA,NA,NA,NA,NA,NA,NA,NA,NA,NA,NA,NA,NA,NA,NA,NA,NA,NA,NA,NA,NA,NA,NA,NA,NA,NA,NA,NA,NA,10,0,10,0,1
SUPAMT76205,3JAOYWH7VO39CX7I7M1QHULXZMCL9S,2232F1F6-7982-46FB-B42D-41FF46FFABBA,2023-09-26_10h21.02.406,WP_VExplicitOC_LH,2022.2.5,Win32,120.1923077,34.9537037,3.036,2.002,NA,NA,NA,NA,NA,bored,"bored, not bored","more bored, less bored",NA,NA,NA,NA,NA,NA,NA,NA,NA,NA,NA,NA,NA,NA,NA,NA,NA,NA,NA,NA,NA,NA,NA,NA,NA,NA,NA,NA,NA,NA,NA,NA,NA,NA,NA,NA,NA,NA,0,0,0,2,1,NA,NA,NA,NA,NA
SUPAMT76205,3JAOYWH7VO39CX7I7M1QHULXZMCL9S,2232F1F6-7982-46FB-B42D-41FF46FFABBA,2023-09-26_10h21.02.406,WP_VExplicitOC_LH,2022.2.5,Win32,120.1923077,41.2037037,2.376,2.008,NA,NA,NA,NA,NA,frustrated,"frustrated, not frustrated","more frustrated, less frustrated",NA,NA,NA,NA,NA,NA,NA,NA,NA,NA,NA,NA,NA,NA,NA,NA,NA,NA,NA,NA,NA,NA,NA,NA,NA,NA,NA,NA,NA,NA,NA,NA,NA,NA,NA,NA,NA,NA,0,1,1,1,1,NA,NA,NA,NA,NA
SUPAMT76205,3JAOYWH7VO39CX7I7M1QHULXZMCL9S,2232F1F6-7982-46FB-B42D-41FF46FFABBA,2023-09-26_10h21.02.406,WP_VExplicitOC_LH,2022.2.5,Win32,120.1923077,41.2037037,2.662,2.008,NA,NA,NA,NA,NA,happy,"unhappy, happy","less happy, more happy",NA,NA,NA,NA,NA,NA,NA,NA,NA,NA,NA,NA,NA,NA,NA,NA,NA,NA,NA,NA,NA,NA,NA,NA,NA,NA,NA,NA,NA,NA,NA,NA,NA,NA,NA,NA,NA,NA,0,2,2,0,1,NA,NA,NA,NA,NA
SUPAMT76205,3JAOYWH7VO39CX7I7M1QHULXZMCL9S,2232F1F6-7982-46FB-B42D-41FF46FFABBA,2023-09-26_10h21.02.406,WP_VExplicitOC_LH,2022.2.5,Win32,120.1923077,NA,NA,NA,NA,NA,NA,NA,NA,NA,NA,NA,NA,NA,NA,NA,NA,NA,NA,NA,NA,NA,NA,NA,NA,NA,NA,NA,NA,NA,NA,NA,NA,NA,NA,NA,NA,NA,NA,NA,NA,NA,NA,NA,NA,NA,NA,NA,NA,NA,NA,NA,NA,NA,NA,11,0,11,0,1
SUPAMT76205,3JAOYWH7VO39CX7I7M1QHULXZMCL9S,2232F1F6-7982-46FB-B42D-41FF46FFABBA,2023-09-26_10h21.02.406,WP_VExplicitOC_LH,2022.2.5,Win32,120.1923077,32.17592593,2.706,2.006,NA,NA,NA,NA,NA,bored,"bored, not bored","more bored, less bored",NA,NA,NA,NA,NA,NA,NA,NA,NA,NA,NA,NA,NA,NA,NA,NA,NA,NA,NA,NA,NA,NA,NA,NA,NA,NA,NA,NA,NA,NA,NA,NA,NA,NA,NA,NA,NA,NA,0,0,0,2,1,NA,NA,NA,NA,NA
SUPAMT76205,3JAOYWH7VO39CX7I7M1QHULXZMCL9S,2232F1F6-7982-46FB-B42D-41FF46FFABBA,2023-09-26_10h21.02.406,WP_VExplicitOC_LH,2022.2.5,Win32,120.1923077,46.52777778,2.281,2.007,NA,NA,NA,NA,NA,happy,"unhappy, happy","less happy, more happy",NA,NA,NA,NA,NA,NA,NA,NA,NA,NA,NA,NA,NA,NA,NA,NA,NA,NA,NA,NA,NA,NA,NA,NA,NA,NA,NA,NA,NA,NA,NA,NA,NA,NA,NA,NA,NA,NA,0,1,1,0,1,NA,NA,NA,NA,NA
SUPAMT76205,3JAOYWH7VO39CX7I7M1QHULXZMCL9S,2232F1F6-7982-46FB-B42D-41FF46FFABBA,2023-09-26_10h21.02.406,WP_VExplicitOC_LH,2022.2.5,Win32,120.1923077,49.76851852,2.361,2.007,NA,NA,NA,NA,NA,frustrated,"frustrated, not frustrated","more frustrated, less frustrated",NA,NA,NA,NA,NA,NA,NA,NA,NA,NA,NA,NA,NA,NA,NA,NA,NA,NA,NA,NA,NA,NA,NA,NA,NA,NA,NA,NA,NA,NA,NA,NA,NA,NA,NA,NA,NA,NA,0,2,2,1,1,NA,NA,NA,NA,NA
SUPAMT76205,3JAOYWH7VO39CX7I7M1QHULXZMCL9S,2232F1F6-7982-46FB-B42D-41FF46FFABBA,2023-09-26_10h21.02.406,WP_VExplicitOC_LH,2022.2.5,Win32,120.1923077,NA,NA,NA,NA,NA,NA,NA,NA,NA,NA,NA,NA,NA,NA,NA,NA,NA,NA,NA,NA,NA,NA,NA,NA,NA,NA,NA,NA,NA,NA,NA,NA,NA,NA,NA,NA,NA,NA,NA,NA,NA,NA,NA,NA,NA,NA,NA,NA,NA,NA,NA,NA,NA,NA,12,0,12,0,1
SUPAMT76205,3JAOYWH7VO39CX7I7M1QHULXZMCL9S,2232F1F6-7982-46FB-B42D-41FF46FFABBA,2023-09-26_10h21.02.406,WP_VExplicitOC_LH,2022.2.5,Win32,120.1923077,38.19444444,3.04,2.006,NA,NA,NA,NA,NA,bored,"bored, not bored","more bored, less bored",NA,NA,NA,NA,NA,NA,NA,NA,NA,NA,NA,NA,NA,NA,NA,NA,NA,NA,NA,NA,NA,NA,NA,NA,NA,NA,NA,NA,NA,NA,NA,NA,NA,NA,NA,NA,NA,NA,0,0,0,2,1,NA,NA,NA,NA,NA
SUPAMT76205,3JAOYWH7VO39CX7I7M1QHULXZMCL9S,2232F1F6-7982-46FB-B42D-41FF46FFABBA,2023-09-26_10h21.02.406,WP_VExplicitOC_LH,2022.2.5,Win32,120.1923077,38.19444444,2.368,2,NA,NA,NA,NA,NA,frustrated,"frustrated, not frustrated","more frustrated, less frustrated",NA,NA,NA,NA,NA,NA,NA,NA,NA,NA,NA,NA,NA,NA,NA,NA,NA,NA,NA,NA,NA,NA,NA,NA,NA,NA,NA,NA,NA,NA,NA,NA,NA,NA,NA,NA,NA,NA,0,1,1,1,1,NA,NA,NA,NA,NA
SUPAMT76205,3JAOYWH7VO39CX7I7M1QHULXZMCL9S,2232F1F6-7982-46FB-B42D-41FF46FFABBA,2023-09-26_10h21.02.406,WP_VExplicitOC_LH,2022.2.5,Win32,120.1923077,52.31481481,2.329,2,NA,NA,NA,NA,NA,happy,"unhappy, happy","less happy, more happy",NA,NA,NA,NA,NA,NA,NA,NA,NA,NA,NA,NA,NA,NA,NA,NA,NA,NA,NA,NA,NA,NA,NA,NA,NA,NA,NA,NA,NA,NA,NA,NA,NA,NA,NA,NA,NA,NA,0,2,2,0,1,NA,NA,NA,NA,NA
SUPAMT76205,3JAOYWH7VO39CX7I7M1QHULXZMCL9S,2232F1F6-7982-46FB-B42D-41FF46FFABBA,2023-09-26_10h21.02.406,WP_VExplicitOC_LH,2022.2.5,Win32,120.1923077,NA,NA,NA,NA,NA,NA,NA,NA,NA,NA,NA,NA,NA,NA,NA,NA,NA,NA,NA,NA,NA,NA,NA,NA,NA,NA,NA,NA,NA,NA,NA,NA,NA,NA,NA,NA,NA,NA,NA,NA,NA,NA,NA,NA,NA,NA,NA,NA,NA,NA,NA,NA,NA,NA,13,0,13,0,1
SUPAMT76205,3JAOYWH7VO39CX7I7M1QHULXZMCL9S,2232F1F6-7982-46FB-B42D-41FF46FFABBA,2023-09-26_10h21.02.406,WP_VExplicitOC_LH,2022.2.5,Win32,120.1923077,40.27777778,2.4,2.006,NA,NA,NA,NA,NA,bored,"bored, not bored","more bored, less bored",NA,NA,NA,NA,NA,NA,NA,NA,NA,NA,NA,NA,NA,NA,NA,NA,NA,NA,NA,NA,NA,NA,NA,NA,NA,NA,NA,NA,NA,NA,NA,NA,NA,NA,NA,NA,NA,NA,0,0,0,2,1,NA,NA,NA,NA,NA
SUPAMT76205,3JAOYWH7VO39CX7I7M1QHULXZMCL9S,2232F1F6-7982-46FB-B42D-41FF46FFABBA,2023-09-26_10h21.02.406,WP_VExplicitOC_LH,2022.2.5,Win32,120.1923077,50.46296296,2.312,2.007,NA,NA,NA,NA,NA,happy,"unhappy, happy","less happy, more happy",NA,NA,NA,NA,NA,NA,NA,NA,NA,NA,NA,NA,NA,NA,NA,NA,NA,NA,NA,NA,NA,NA,NA,NA,NA,NA,NA,NA,NA,NA,NA,NA,NA,NA,NA,NA,NA,NA,0,1,1,0,1,NA,NA,NA,NA,NA
SUPAMT76205,3JAOYWH7VO39CX7I7M1QHULXZMCL9S,2232F1F6-7982-46FB-B42D-41FF46FFABBA,2023-09-26_10h21.02.406,WP_VExplicitOC_LH,2022.2.5,Win32,120.1923077,44.90740741,2.285,2,NA,NA,NA,NA,NA,frustrated,"frustrated, not frustrated","more frustrated, less frustrated",NA,NA,NA,NA,NA,NA,NA,NA,NA,NA,NA,NA,NA,NA,NA,NA,NA,NA,NA,NA,NA,NA,NA,NA,NA,NA,NA,NA,NA,NA,NA,NA,NA,NA,NA,NA,NA,NA,0,2,2,1,1,NA,NA,NA,NA,NA
SUPAMT76205,3JAOYWH7VO39CX7I7M1QHULXZMCL9S,2232F1F6-7982-46FB-B42D-41FF46FFABBA,2023-09-26_10h21.02.406,WP_VExplicitOC_LH,2022.2.5,Win32,120.1923077,NA,NA,NA,NA,NA,NA,NA,NA,NA,NA,NA,NA,NA,NA,NA,NA,NA,NA,NA,NA,NA,NA,NA,NA,NA,NA,NA,NA,NA,NA,NA,NA,NA,NA,NA,NA,NA,NA,NA,NA,NA,NA,NA,NA,NA,NA,NA,NA,NA,NA,NA,NA,NA,NA,14,0,14,0,1
SUPAMT76205,3JAOYWH7VO39CX7I7M1QHULXZMCL9S,2232F1F6-7982-46FB-B42D-41FF46FFABBA,2023-09-26_10h21.02.406,WP_VExplicitOC_LH,2022.2.5,Win32,120.1923077,NA,NA,NA,NA,NA,NA,NA,NA,NA,NA,NA,NA,NA,NA,NA,NA,NA,NA,NA,NA,NA,NA,NA,NA,NA,NA,NA,NA,NA,NA,NA,NA,NA,NA,NA,NA,NA,NA,NA,NA,NA,NA,NA,NA,NA,NA,NA,NA,NA,NA,NA,NA,NA,NA,NA,NA,NA,NA,NA
