participant,session,completion,date,expName,psychopyVersion,OS,frameRate,rating_all.response,rating_all.rt,rating_all.tStart,rndRat1.thisRepN,rndRat1.thisTrialN,rndRat1.thisN,rndRat1.thisIndex,rndRat1.ran,Emo,Labs,Labs2,rating_alt.response,rating_alt.rt,AltC.thisRepN,AltC.thisTrialN,AltC.thisN,AltC.thisIndex,AltC.ran,alt_choices,pic_choices,BottomAlt_Choice,rndRat2.thisRepN,rndRat2.thisTrialN,rndRat2.thisN,rndRat2.thisIndex,rndRat2.ran,rndRat3.thisRepN,rndRat3.thisTrialN,rndRat3.thisN,rndRat3.thisIndex,rndRat3.ran,trials_FC_L.thisRepN,trials_FC_L.thisTrialN,trials_FC_L.thisN,trials_FC_L.thisIndex,trials_FC_L.ran,rating_alt_2.response,rating_alt_2.rt,AltC2.thisRepN,AltC2.thisTrialN,AltC2.thisN,AltC2.thisIndex,AltC2.ran,TopAlt_Choice,rndRat4.thisRepN,rndRat4.thisTrialN,rndRat4.thisN,rndRat4.thisIndex,rndRat4.ran,rndRat5.thisRepN,rndRat5.thisTrialN,rndRat5.thisN,rndRat5.thisIndex,rndRat5.ran,trials_FC_H.thisRepN,trials_FC_H.thisTrialN,trials_FC_H.thisN,trials_FC_H.thisIndex,trials_FC_H.ran
SUPAMT40282,3O6CYIULEJ0N7J7K9B3JM1PRBQGUW0,BA960FAF-D2E8-49FD-BD0C-64AC40233BD7,2023-09-28_12h35.32.591,WP_VExplicitOC_LH,2022.2.5,Win32,16.75827859,NA,NA,NA,NA,NA,NA,NA,NA,NA,NA,NA,NA,NA,NA,NA,NA,NA,NA,NA,NA,NA,NA,NA,NA,NA,NA,NA,NA,NA,NA,NA,NA,NA,NA,NA,NA,NA,NA,NA,NA,NA,NA,NA,NA,NA,NA,NA,NA,NA,NA,NA,NA,NA,NA,NA,NA,NA,NA,NA
SUPAMT40282,3O6CYIULEJ0N7J7K9B3JM1PRBQGUW0,BA960FAF-D2E8-49FD-BD0C-64AC40233BD7,2023-09-28_12h35.32.591,WP_VExplicitOC_LH,2022.2.5,Win32,16.75827859,NA,NA,NA,NA,NA,NA,NA,NA,NA,NA,NA,NA,NA,NA,NA,NA,NA,NA,NA,NA,NA,NA,NA,NA,NA,NA,NA,NA,NA,NA,NA,NA,NA,NA,NA,NA,NA,NA,NA,NA,NA,NA,NA,NA,NA,NA,NA,NA,NA,NA,NA,NA,NA,NA,NA,NA,NA,NA,NA
SUPAMT40282,3O6CYIULEJ0N7J7K9B3JM1PRBQGUW0,BA960FAF-D2E8-49FD-BD0C-64AC40233BD7,2023-09-28_12h35.32.591,WP_VExplicitOC_LH,2022.2.5,Win32,16.75827859,NA,NA,NA,NA,NA,NA,NA,NA,NA,NA,NA,NA,NA,NA,NA,NA,NA,NA,NA,NA,NA,NA,NA,NA,NA,NA,NA,NA,NA,NA,NA,NA,NA,NA,NA,NA,NA,NA,NA,NA,NA,NA,NA,NA,NA,NA,NA,NA,NA,NA,NA,NA,NA,NA,NA,NA,NA,NA,NA
SUPAMT40282,3O6CYIULEJ0N7J7K9B3JM1PRBQGUW0,BA960FAF-D2E8-49FD-BD0C-64AC40233BD7,2023-09-28_12h35.32.591,WP_VExplicitOC_LH,2022.2.5,Win32,16.75827859,81.8359375,6.3704,2.0357,0,0,0,1,1,frustrated,"frustrated, not frustrated","more frustrated, less frustrated",NA,NA,NA,NA,NA,NA,NA,NA,NA,NA,NA,NA,NA,NA,NA,NA,NA,NA,NA,NA,NA,NA,NA,NA,NA,NA,NA,NA,NA,NA,NA,NA,NA,NA,NA,NA,NA,NA,NA,NA,NA,NA,NA,NA,NA,NA,NA,NA
SUPAMT40282,3O6CYIULEJ0N7J7K9B3JM1PRBQGUW0,BA960FAF-D2E8-49FD-BD0C-64AC40233BD7,2023-09-28_12h35.32.591,WP_VExplicitOC_LH,2022.2.5,Win32,16.75827859,100,4.9583,2.0723,0,1,1,0,1,happy,"unhappy, happy","less happy, more happy",NA,NA,NA,NA,NA,NA,NA,NA,NA,NA,NA,NA,NA,NA,NA,NA,NA,NA,NA,NA,NA,NA,NA,NA,NA,NA,NA,NA,NA,NA,NA,NA,NA,NA,NA,NA,NA,NA,NA,NA,NA,NA,NA,NA,NA,NA,NA,NA
SUPAMT40282,3O6CYIULEJ0N7J7K9B3JM1PRBQGUW0,BA960FAF-D2E8-49FD-BD0C-64AC40233BD7,2023-09-28_12h35.32.591,WP_VExplicitOC_LH,2022.2.5,Win32,16.75827859,NA,NA,2.0431,0,2,2,2,1,bored,"bored, not bored","more bored, less bored",NA,NA,NA,NA,NA,NA,NA,NA,NA,NA,NA,NA,NA,NA,NA,NA,NA,NA,NA,NA,NA,NA,NA,NA,NA,NA,NA,NA,NA,NA,NA,NA,NA,NA,NA,NA,NA,NA,NA,NA,NA,NA,NA,NA,NA,NA,NA,NA
SUPAMT40282,3O6CYIULEJ0N7J7K9B3JM1PRBQGUW0,BA960FAF-D2E8-49FD-BD0C-64AC40233BD7,2023-09-28_12h35.32.591,WP_VExplicitOC_LH,2022.2.5,Win32,16.75827859,NA,NA,NA,NA,NA,NA,NA,NA,NA,NA,NA,NA,NA,NA,NA,NA,NA,NA,NA,NA,NA,NA,NA,NA,NA,NA,NA,NA,NA,NA,NA,NA,NA,NA,NA,NA,NA,NA,NA,NA,NA,NA,NA,NA,NA,NA,NA,NA,NA,NA,NA,NA,NA,NA,NA,NA,NA,NA,NA
SUPAMT40282,3O6CYIULEJ0N7J7K9B3JM1PRBQGUW0,BA960FAF-D2E8-49FD-BD0C-64AC40233BD7,2023-09-28_12h35.32.591,WP_VExplicitOC_LH,2022.2.5,Win32,16.75827859,NA,NA,NA,NA,NA,NA,NA,NA,NA,NA,NA,NA,NA,NA,NA,NA,NA,NA,NA,NA,NA,NA,NA,NA,NA,NA,NA,NA,NA,NA,NA,NA,NA,NA,NA,NA,NA,NA,NA,NA,NA,NA,NA,NA,NA,NA,NA,NA,NA,NA,NA,NA,NA,NA,NA,NA,NA,NA,NA
SUPAMT40282,3O6CYIULEJ0N7J7K9B3JM1PRBQGUW0,BA960FAF-D2E8-49FD-BD0C-64AC40233BD7,2023-09-28_12h35.32.591,WP_VExplicitOC_LH,2022.2.5,Win32,16.75827859,NA,NA,NA,NA,NA,NA,NA,NA,NA,NA,NA,NA,NA,NA,NA,NA,NA,NA,NA,NA,NA,NA,NA,NA,NA,NA,NA,NA,NA,NA,NA,NA,NA,NA,NA,NA,NA,NA,NA,NA,NA,NA,NA,NA,NA,NA,NA,NA,NA,NA,NA,NA,NA,NA,NA,NA,NA,NA,NA
SUPAMT40282,3O6CYIULEJ0N7J7K9B3JM1PRBQGUW0,BA960FAF-D2E8-49FD-BD0C-64AC40233BD7,2023-09-28_12h35.32.591,WP_VExplicitOC_LH,2022.2.5,Win32,16.75827859,NA,NA,NA,NA,NA,NA,NA,NA,NA,NA,NA,NA,NA,NA,NA,NA,NA,NA,NA,NA,NA,NA,NA,NA,NA,NA,NA,NA,NA,NA,NA,NA,NA,NA,NA,NA,NA,NA,NA,NA,NA,NA,NA,NA,NA,NA,NA,NA,NA,NA,NA,NA,NA,NA,NA,NA,NA,NA,NA
SUPAMT40282,3O6CYIULEJ0N7J7K9B3JM1PRBQGUW0,BA960FAF-D2E8-49FD-BD0C-64AC40233BD7,2023-09-28_12h35.32.591,WP_VExplicitOC_LH,2022.2.5,Win32,16.75827859,NA,NA,NA,NA,NA,NA,NA,NA,NA,NA,NA,98.6328125,5.8512,0,0,0,0,1,rest (looking at a fixed cross),001.png,NA,NA,NA,NA,NA,NA,NA,NA,NA,NA,NA,NA,NA,NA,NA,NA,NA,NA,NA,NA,NA,NA,NA,NA,NA,NA,NA,NA,NA,NA,NA,NA,NA,NA,NA,NA,NA,NA,NA
SUPAMT40282,3O6CYIULEJ0N7J7K9B3JM1PRBQGUW0,BA960FAF-D2E8-49FD-BD0C-64AC40233BD7,2023-09-28_12h35.32.591,WP_VExplicitOC_LH,2022.2.5,Win32,16.75827859,NA,NA,NA,NA,NA,NA,NA,NA,NA,NA,NA,-43.75,4.1663,0,1,1,1,1,stand up,002.png,NA,NA,NA,NA,NA,NA,NA,NA,NA,NA,NA,NA,NA,NA,NA,NA,NA,NA,NA,NA,NA,NA,NA,NA,NA,NA,NA,NA,NA,NA,NA,NA,NA,NA,NA,NA,NA,NA,NA
SUPAMT40282,3O6CYIULEJ0N7J7K9B3JM1PRBQGUW0,BA960FAF-D2E8-49FD-BD0C-64AC40233BD7,2023-09-28_12h35.32.591,WP_VExplicitOC_LH,2022.2.5,Win32,16.75827859,NA,NA,NA,NA,NA,NA,NA,NA,NA,NA,NA,-97.265625,3.0358,0,2,2,2,1,stretch,003.png,NA,NA,NA,NA,NA,NA,NA,NA,NA,NA,NA,NA,NA,NA,NA,NA,NA,NA,NA,NA,NA,NA,NA,NA,NA,NA,NA,NA,NA,NA,NA,NA,NA,NA,NA,NA,NA,NA,NA
SUPAMT40282,3O6CYIULEJ0N7J7K9B3JM1PRBQGUW0,BA960FAF-D2E8-49FD-BD0C-64AC40233BD7,2023-09-28_12h35.32.591,WP_VExplicitOC_LH,2022.2.5,Win32,16.75827859,NA,NA,NA,NA,NA,NA,NA,NA,NA,NA,NA,100,4.6269,0,3,3,3,1,make a drink,004.png,NA,NA,NA,NA,NA,NA,NA,NA,NA,NA,NA,NA,NA,NA,NA,NA,NA,NA,NA,NA,NA,NA,NA,NA,NA,NA,NA,NA,NA,NA,NA,NA,NA,NA,NA,NA,NA,NA,NA
SUPAMT40282,3O6CYIULEJ0N7J7K9B3JM1PRBQGUW0,BA960FAF-D2E8-49FD-BD0C-64AC40233BD7,2023-09-28_12h35.32.591,WP_VExplicitOC_LH,2022.2.5,Win32,16.75827859,NA,NA,NA,NA,NA,NA,NA,NA,NA,NA,NA,100,3.4313,0,4,4,4,1,scroll social media,005.png,NA,NA,NA,NA,NA,NA,NA,NA,NA,NA,NA,NA,NA,NA,NA,NA,NA,NA,NA,NA,NA,NA,NA,NA,NA,NA,NA,NA,NA,NA,NA,NA,NA,NA,NA,NA,NA,NA,NA
SUPAMT40282,3O6CYIULEJ0N7J7K9B3JM1PRBQGUW0,BA960FAF-D2E8-49FD-BD0C-64AC40233BD7,2023-09-28_12h35.32.591,WP_VExplicitOC_LH,2022.2.5,Win32,16.75827859,NA,NA,NA,NA,NA,NA,NA,NA,NA,NA,NA,100,2.7741,0,5,5,5,1,listen to music,006.png,NA,NA,NA,NA,NA,NA,NA,NA,NA,NA,NA,NA,NA,NA,NA,NA,NA,NA,NA,NA,NA,NA,NA,NA,NA,NA,NA,NA,NA,NA,NA,NA,NA,NA,NA,NA,NA,NA,NA
SUPAMT40282,3O6CYIULEJ0N7J7K9B3JM1PRBQGUW0,BA960FAF-D2E8-49FD-BD0C-64AC40233BD7,2023-09-28_12h35.32.591,WP_VExplicitOC_LH,2022.2.5,Win32,16.75827859,NA,NA,NA,NA,NA,NA,NA,NA,NA,NA,NA,40.0390625,3.5512,0,6,6,6,1,daydream,007.png,NA,NA,NA,NA,NA,NA,NA,NA,NA,NA,NA,NA,NA,NA,NA,NA,NA,NA,NA,NA,NA,NA,NA,NA,NA,NA,NA,NA,NA,NA,NA,NA,NA,NA,NA,NA,NA,NA,NA
SUPAMT40282,3O6CYIULEJ0N7J7K9B3JM1PRBQGUW0,BA960FAF-D2E8-49FD-BD0C-64AC40233BD7,2023-09-28_12h35.32.591,WP_VExplicitOC_LH,2022.2.5,Win32,16.75827859,NA,NA,NA,NA,NA,NA,NA,NA,NA,NA,NA,50.78125,2.8812,0,7,7,7,1,watch a short animation,008.png,NA,NA,NA,NA,NA,NA,NA,NA,NA,NA,NA,NA,NA,NA,NA,NA,NA,NA,NA,NA,NA,NA,NA,NA,NA,NA,NA,NA,NA,NA,NA,NA,NA,NA,NA,NA,NA,NA,NA
SUPAMT40282,3O6CYIULEJ0N7J7K9B3JM1PRBQGUW0,BA960FAF-D2E8-49FD-BD0C-64AC40233BD7,2023-09-28_12h35.32.591,WP_VExplicitOC_LH,2022.2.5,Win32,16.75827859,NA,NA,NA,NA,NA,NA,NA,NA,NA,NA,NA,100,2.2217,0,8,8,8,1,read a novel,009.png,NA,NA,NA,NA,NA,NA,NA,NA,NA,NA,NA,NA,NA,NA,NA,NA,NA,NA,NA,NA,NA,NA,NA,NA,NA,NA,NA,NA,NA,NA,NA,NA,NA,NA,NA,NA,NA,NA,NA
SUPAMT40282,3O6CYIULEJ0N7J7K9B3JM1PRBQGUW0,BA960FAF-D2E8-49FD-BD0C-64AC40233BD7,2023-09-28_12h35.32.591,WP_VExplicitOC_LH,2022.2.5,Win32,16.75827859,NA,NA,NA,NA,NA,NA,NA,NA,NA,NA,NA,100,2.1427,0,9,9,9,1,read the news,010.png,NA,NA,NA,NA,NA,NA,NA,NA,NA,NA,NA,NA,NA,NA,NA,NA,NA,NA,NA,NA,NA,NA,NA,NA,NA,NA,NA,NA,NA,NA,NA,NA,NA,NA,NA,NA,NA,NA,NA
SUPAMT40282,3O6CYIULEJ0N7J7K9B3JM1PRBQGUW0,BA960FAF-D2E8-49FD-BD0C-64AC40233BD7,2023-09-28_12h35.32.591,WP_VExplicitOC_LH,2022.2.5,Win32,16.75827859,NA,NA,NA,NA,NA,NA,NA,NA,NA,NA,NA,NA,NA,NA,NA,NA,NA,NA,NA,NA,NA,NA,NA,NA,NA,NA,NA,NA,NA,NA,NA,NA,NA,NA,NA,NA,NA,NA,NA,NA,NA,NA,NA,NA,NA,NA,NA,NA,NA,NA,NA,NA,NA,NA,NA,NA,NA,NA,NA
SUPAMT40282,3O6CYIULEJ0N7J7K9B3JM1PRBQGUW0,BA960FAF-D2E8-49FD-BD0C-64AC40233BD7,2023-09-28_12h35.32.591,WP_VExplicitOC_LH,2022.2.5,Win32,16.75827859,NA,NA,NA,NA,NA,NA,NA,NA,NA,NA,NA,NA,NA,NA,NA,NA,NA,NA,NA,NA,stretch,NA,NA,NA,NA,NA,NA,NA,NA,NA,NA,NA,NA,NA,NA,NA,NA,NA,NA,NA,NA,NA,NA,NA,NA,NA,NA,NA,NA,NA,NA,NA,NA,NA,NA,NA,NA,NA,NA
SUPAMT40282,3O6CYIULEJ0N7J7K9B3JM1PRBQGUW0,BA960FAF-D2E8-49FD-BD0C-64AC40233BD7,2023-09-28_12h35.32.591,WP_VExplicitOC_LH,2022.2.5,Win32,16.75827859,40.625,4.9272,2.05,NA,NA,NA,NA,NA,frustrated,"frustrated, not frustrated","more frustrated, less frustrated",NA,NA,NA,NA,NA,NA,NA,NA,NA,NA,0,0,0,1,1,NA,NA,NA,NA,NA,NA,NA,NA,NA,NA,NA,NA,NA,NA,NA,NA,NA,NA,NA,NA,NA,NA,NA,NA,NA,NA,NA,NA,NA,NA,NA,NA,NA
SUPAMT40282,3O6CYIULEJ0N7J7K9B3JM1PRBQGUW0,BA960FAF-D2E8-49FD-BD0C-64AC40233BD7,2023-09-28_12h35.32.591,WP_VExplicitOC_LH,2022.2.5,Win32,16.75827859,100,4.0584,2.0685,NA,NA,NA,NA,NA,happy,"unhappy, happy","less happy, more happy",NA,NA,NA,NA,NA,NA,NA,NA,NA,NA,0,1,1,0,1,NA,NA,NA,NA,NA,NA,NA,NA,NA,NA,NA,NA,NA,NA,NA,NA,NA,NA,NA,NA,NA,NA,NA,NA,NA,NA,NA,NA,NA,NA,NA,NA,NA
SUPAMT40282,3O6CYIULEJ0N7J7K9B3JM1PRBQGUW0,BA960FAF-D2E8-49FD-BD0C-64AC40233BD7,2023-09-28_12h35.32.591,WP_VExplicitOC_LH,2022.2.5,Win32,16.75827859,-41.40625,7.3619,2.0321,NA,NA,NA,NA,NA,bored,"bored, not bored","more bored, less bored",NA,NA,NA,NA,NA,NA,NA,NA,NA,NA,0,2,2,2,1,NA,NA,NA,NA,NA,NA,NA,NA,NA,NA,NA,NA,NA,NA,NA,NA,NA,NA,NA,NA,NA,NA,NA,NA,NA,NA,NA,NA,NA,NA,NA,NA,NA
SUPAMT40282,3O6CYIULEJ0N7J7K9B3JM1PRBQGUW0,BA960FAF-D2E8-49FD-BD0C-64AC40233BD7,2023-09-28_12h35.32.591,WP_VExplicitOC_LH,2022.2.5,Win32,16.75827859,NA,NA,NA,NA,NA,NA,NA,NA,NA,NA,NA,NA,NA,NA,NA,NA,NA,NA,NA,NA,NA,NA,NA,NA,NA,NA,NA,NA,NA,NA,NA,NA,NA,NA,NA,NA,NA,NA,NA,NA,NA,NA,NA,NA,NA,NA,NA,NA,NA,NA,NA,NA,NA,NA,NA,NA,NA,NA,NA
SUPAMT40282,3O6CYIULEJ0N7J7K9B3JM1PRBQGUW0,BA960FAF-D2E8-49FD-BD0C-64AC40233BD7,2023-09-28_12h35.32.591,WP_VExplicitOC_LH,2022.2.5,Win32,16.75827859,NA,NA,NA,NA,NA,NA,NA,NA,NA,NA,NA,NA,NA,NA,NA,NA,NA,NA,NA,NA,NA,NA,NA,NA,NA,NA,NA,NA,NA,NA,NA,NA,NA,NA,NA,NA,NA,NA,NA,NA,NA,NA,NA,NA,NA,NA,NA,NA,NA,NA,NA,NA,NA,NA,NA,NA,NA,NA,NA
SUPAMT40282,3O6CYIULEJ0N7J7K9B3JM1PRBQGUW0,BA960FAF-D2E8-49FD-BD0C-64AC40233BD7,2023-09-28_12h35.32.591,WP_VExplicitOC_LH,2022.2.5,Win32,16.75827859,45.703125,5.7933,2.0256,NA,NA,NA,NA,NA,frustrated,"frustrated, not frustrated","more frustrated, less frustrated",NA,NA,NA,NA,NA,NA,NA,NA,NA,NA,NA,NA,NA,NA,NA,0,0,0,1,1,NA,NA,NA,NA,NA,NA,NA,NA,NA,NA,NA,NA,NA,NA,NA,NA,NA,NA,NA,NA,NA,NA,NA,NA,NA,NA,NA,NA
SUPAMT40282,3O6CYIULEJ0N7J7K9B3JM1PRBQGUW0,BA960FAF-D2E8-49FD-BD0C-64AC40233BD7,2023-09-28_12h35.32.591,WP_VExplicitOC_LH,2022.2.5,Win32,16.75827859,100,3.9513,2.084,NA,NA,NA,NA,NA,happy,"unhappy, happy","less happy, more happy",NA,NA,NA,NA,NA,NA,NA,NA,NA,NA,NA,NA,NA,NA,NA,0,1,1,0,1,NA,NA,NA,NA,NA,NA,NA,NA,NA,NA,NA,NA,NA,NA,NA,NA,NA,NA,NA,NA,NA,NA,NA,NA,NA,NA,NA,NA
SUPAMT40282,3O6CYIULEJ0N7J7K9B3JM1PRBQGUW0,BA960FAF-D2E8-49FD-BD0C-64AC40233BD7,2023-09-28_12h35.32.591,WP_VExplicitOC_LH,2022.2.5,Win32,16.75827859,-33.203125,5.8595,2.0457,NA,NA,NA,NA,NA,bored,"bored, not bored","more bored, less bored",NA,NA,NA,NA,NA,NA,NA,NA,NA,NA,NA,NA,NA,NA,NA,0,2,2,2,1,NA,NA,NA,NA,NA,NA,NA,NA,NA,NA,NA,NA,NA,NA,NA,NA,NA,NA,NA,NA,NA,NA,NA,NA,NA,NA,NA,NA
SUPAMT40282,3O6CYIULEJ0N7J7K9B3JM1PRBQGUW0,BA960FAF-D2E8-49FD-BD0C-64AC40233BD7,2023-09-28_12h35.32.591,WP_VExplicitOC_LH,2022.2.5,Win32,16.75827859,NA,NA,NA,NA,NA,NA,NA,NA,NA,NA,NA,NA,NA,NA,NA,NA,NA,NA,NA,NA,NA,NA,NA,NA,NA,NA,NA,NA,NA,NA,NA,0,0,0,0,1,NA,NA,NA,NA,NA,NA,NA,NA,NA,NA,NA,NA,NA,NA,NA,NA,NA,NA,NA,NA,NA,NA,NA
SUPAMT40282,3O6CYIULEJ0N7J7K9B3JM1PRBQGUW0,BA960FAF-D2E8-49FD-BD0C-64AC40233BD7,2023-09-28_12h35.32.591,WP_VExplicitOC_LH,2022.2.5,Win32,16.75827859,-18.359375,5.2112,2.0392,NA,NA,NA,NA,NA,frustrated,"frustrated, not frustrated","more frustrated, less frustrated",NA,NA,NA,NA,NA,NA,NA,NA,NA,NA,NA,NA,NA,NA,NA,0,0,0,1,1,NA,NA,NA,NA,NA,NA,NA,NA,NA,NA,NA,NA,NA,NA,NA,NA,NA,NA,NA,NA,NA,NA,NA,NA,NA,NA,NA,NA
SUPAMT40282,3O6CYIULEJ0N7J7K9B3JM1PRBQGUW0,BA960FAF-D2E8-49FD-BD0C-64AC40233BD7,2023-09-28_12h35.32.591,WP_VExplicitOC_LH,2022.2.5,Win32,16.75827859,37.3046875,4.2437,2.0788,NA,NA,NA,NA,NA,bored,"bored, not bored","more bored, less bored",NA,NA,NA,NA,NA,NA,NA,NA,NA,NA,NA,NA,NA,NA,NA,0,1,1,2,1,NA,NA,NA,NA,NA,NA,NA,NA,NA,NA,NA,NA,NA,NA,NA,NA,NA,NA,NA,NA,NA,NA,NA,NA,NA,NA,NA,NA
SUPAMT40282,3O6CYIULEJ0N7J7K9B3JM1PRBQGUW0,BA960FAF-D2E8-49FD-BD0C-64AC40233BD7,2023-09-28_12h35.32.591,WP_VExplicitOC_LH,2022.2.5,Win32,16.75827859,100,4.1649,2.0283,NA,NA,NA,NA,NA,happy,"unhappy, happy","less happy, more happy",NA,NA,NA,NA,NA,NA,NA,NA,NA,NA,NA,NA,NA,NA,NA,0,2,2,0,1,NA,NA,NA,NA,NA,NA,NA,NA,NA,NA,NA,NA,NA,NA,NA,NA,NA,NA,NA,NA,NA,NA,NA,NA,NA,NA,NA,NA
SUPAMT40282,3O6CYIULEJ0N7J7K9B3JM1PRBQGUW0,BA960FAF-D2E8-49FD-BD0C-64AC40233BD7,2023-09-28_12h35.32.591,WP_VExplicitOC_LH,2022.2.5,Win32,16.75827859,NA,NA,NA,NA,NA,NA,NA,NA,NA,NA,NA,NA,NA,NA,NA,NA,NA,NA,NA,NA,NA,NA,NA,NA,NA,NA,NA,NA,NA,NA,NA,1,0,1,0,1,NA,NA,NA,NA,NA,NA,NA,NA,NA,NA,NA,NA,NA,NA,NA,NA,NA,NA,NA,NA,NA,NA,NA
SUPAMT40282,3O6CYIULEJ0N7J7K9B3JM1PRBQGUW0,BA960FAF-D2E8-49FD-BD0C-64AC40233BD7,2023-09-28_12h35.32.591,WP_VExplicitOC_LH,2022.2.5,Win32,16.75827859,100,4.3771,2.0004,NA,NA,NA,NA,NA,happy,"unhappy, happy","less happy, more happy",NA,NA,NA,NA,NA,NA,NA,NA,NA,NA,NA,NA,NA,NA,NA,0,0,0,0,1,NA,NA,NA,NA,NA,NA,NA,NA,NA,NA,NA,NA,NA,NA,NA,NA,NA,NA,NA,NA,NA,NA,NA,NA,NA,NA,NA,NA
SUPAMT40282,3O6CYIULEJ0N7J7K9B3JM1PRBQGUW0,BA960FAF-D2E8-49FD-BD0C-64AC40233BD7,2023-09-28_12h35.32.591,WP_VExplicitOC_LH,2022.2.5,Win32,16.75827859,59.5703125,4.2927,2.0547,NA,NA,NA,NA,NA,frustrated,"frustrated, not frustrated","more frustrated, less frustrated",NA,NA,NA,NA,NA,NA,NA,NA,NA,NA,NA,NA,NA,NA,NA,0,1,1,1,1,NA,NA,NA,NA,NA,NA,NA,NA,NA,NA,NA,NA,NA,NA,NA,NA,NA,NA,NA,NA,NA,NA,NA,NA,NA,NA,NA,NA
SUPAMT40282,3O6CYIULEJ0N7J7K9B3JM1PRBQGUW0,BA960FAF-D2E8-49FD-BD0C-64AC40233BD7,2023-09-28_12h35.32.591,WP_VExplicitOC_LH,2022.2.5,Win32,16.75827859,88.671875,4.0838,2.0905,NA,NA,NA,NA,NA,bored,"bored, not bored","more bored, less bored",NA,NA,NA,NA,NA,NA,NA,NA,NA,NA,NA,NA,NA,NA,NA,0,2,2,2,1,NA,NA,NA,NA,NA,NA,NA,NA,NA,NA,NA,NA,NA,NA,NA,NA,NA,NA,NA,NA,NA,NA,NA,NA,NA,NA,NA,NA
SUPAMT40282,3O6CYIULEJ0N7J7K9B3JM1PRBQGUW0,BA960FAF-D2E8-49FD-BD0C-64AC40233BD7,2023-09-28_12h35.32.591,WP_VExplicitOC_LH,2022.2.5,Win32,16.75827859,NA,NA,NA,NA,NA,NA,NA,NA,NA,NA,NA,NA,NA,NA,NA,NA,NA,NA,NA,NA,NA,NA,NA,NA,NA,NA,NA,NA,NA,NA,NA,2,0,2,0,1,NA,NA,NA,NA,NA,NA,NA,NA,NA,NA,NA,NA,NA,NA,NA,NA,NA,NA,NA,NA,NA,NA,NA
SUPAMT40282,3O6CYIULEJ0N7J7K9B3JM1PRBQGUW0,BA960FAF-D2E8-49FD-BD0C-64AC40233BD7,2023-09-28_12h35.32.591,WP_VExplicitOC_LH,2022.2.5,Win32,16.75827859,100,4.5812,2.0258,NA,NA,NA,NA,NA,happy,"unhappy, happy","less happy, more happy",NA,NA,NA,NA,NA,NA,NA,NA,NA,NA,NA,NA,NA,NA,NA,0,0,0,0,1,NA,NA,NA,NA,NA,NA,NA,NA,NA,NA,NA,NA,NA,NA,NA,NA,NA,NA,NA,NA,NA,NA,NA,NA,NA,NA,NA,NA
SUPAMT40282,3O6CYIULEJ0N7J7K9B3JM1PRBQGUW0,BA960FAF-D2E8-49FD-BD0C-64AC40233BD7,2023-09-28_12h35.32.591,WP_VExplicitOC_LH,2022.2.5,Win32,16.75827859,54.4921875,4.6245,2.0505,NA,NA,NA,NA,NA,bored,"bored, not bored","more bored, less bored",NA,NA,NA,NA,NA,NA,NA,NA,NA,NA,NA,NA,NA,NA,NA,0,1,1,2,1,NA,NA,NA,NA,NA,NA,NA,NA,NA,NA,NA,NA,NA,NA,NA,NA,NA,NA,NA,NA,NA,NA,NA,NA,NA,NA,NA,NA
SUPAMT40282,3O6CYIULEJ0N7J7K9B3JM1PRBQGUW0,BA960FAF-D2E8-49FD-BD0C-64AC40233BD7,2023-09-28_12h35.32.591,WP_VExplicitOC_LH,2022.2.5,Win32,16.75827859,43.1640625,4.2856,2.0438,NA,NA,NA,NA,NA,frustrated,"frustrated, not frustrated","more frustrated, less frustrated",NA,NA,NA,NA,NA,NA,NA,NA,NA,NA,NA,NA,NA,NA,NA,0,2,2,1,1,NA,NA,NA,NA,NA,NA,NA,NA,NA,NA,NA,NA,NA,NA,NA,NA,NA,NA,NA,NA,NA,NA,NA,NA,NA,NA,NA,NA
SUPAMT40282,3O6CYIULEJ0N7J7K9B3JM1PRBQGUW0,BA960FAF-D2E8-49FD-BD0C-64AC40233BD7,2023-09-28_12h35.32.591,WP_VExplicitOC_LH,2022.2.5,Win32,16.75827859,NA,NA,NA,NA,NA,NA,NA,NA,NA,NA,NA,NA,NA,NA,NA,NA,NA,NA,NA,NA,NA,NA,NA,NA,NA,NA,NA,NA,NA,NA,NA,3,0,3,0,1,NA,NA,NA,NA,NA,NA,NA,NA,NA,NA,NA,NA,NA,NA,NA,NA,NA,NA,NA,NA,NA,NA,NA
SUPAMT40282,3O6CYIULEJ0N7J7K9B3JM1PRBQGUW0,BA960FAF-D2E8-49FD-BD0C-64AC40233BD7,2023-09-28_12h35.32.591,WP_VExplicitOC_LH,2022.2.5,Win32,16.75827859,100,3.8295,2.0183,NA,NA,NA,NA,NA,happy,"unhappy, happy","less happy, more happy",NA,NA,NA,NA,NA,NA,NA,NA,NA,NA,NA,NA,NA,NA,NA,0,0,0,0,1,NA,NA,NA,NA,NA,NA,NA,NA,NA,NA,NA,NA,NA,NA,NA,NA,NA,NA,NA,NA,NA,NA,NA,NA,NA,NA,NA,NA
SUPAMT40282,3O6CYIULEJ0N7J7K9B3JM1PRBQGUW0,BA960FAF-D2E8-49FD-BD0C-64AC40233BD7,2023-09-28_12h35.32.591,WP_VExplicitOC_LH,2022.2.5,Win32,16.75827859,100,3.5871,2.0178,NA,NA,NA,NA,NA,frustrated,"frustrated, not frustrated","more frustrated, less frustrated",NA,NA,NA,NA,NA,NA,NA,NA,NA,NA,NA,NA,NA,NA,NA,0,1,1,1,1,NA,NA,NA,NA,NA,NA,NA,NA,NA,NA,NA,NA,NA,NA,NA,NA,NA,NA,NA,NA,NA,NA,NA,NA,NA,NA,NA,NA
SUPAMT40282,3O6CYIULEJ0N7J7K9B3JM1PRBQGUW0,BA960FAF-D2E8-49FD-BD0C-64AC40233BD7,2023-09-28_12h35.32.591,WP_VExplicitOC_LH,2022.2.5,Win32,16.75827859,100,3.6735,2.0759,NA,NA,NA,NA,NA,bored,"bored, not bored","more bored, less bored",NA,NA,NA,NA,NA,NA,NA,NA,NA,NA,NA,NA,NA,NA,NA,0,2,2,2,1,NA,NA,NA,NA,NA,NA,NA,NA,NA,NA,NA,NA,NA,NA,NA,NA,NA,NA,NA,NA,NA,NA,NA,NA,NA,NA,NA,NA
SUPAMT40282,3O6CYIULEJ0N7J7K9B3JM1PRBQGUW0,BA960FAF-D2E8-49FD-BD0C-64AC40233BD7,2023-09-28_12h35.32.591,WP_VExplicitOC_LH,2022.2.5,Win32,16.75827859,NA,NA,NA,NA,NA,NA,NA,NA,NA,NA,NA,NA,NA,NA,NA,NA,NA,NA,NA,NA,NA,NA,NA,NA,NA,NA,NA,NA,NA,NA,NA,4,0,4,0,1,NA,NA,NA,NA,NA,NA,NA,NA,NA,NA,NA,NA,NA,NA,NA,NA,NA,NA,NA,NA,NA,NA,NA
SUPAMT40282,3O6CYIULEJ0N7J7K9B3JM1PRBQGUW0,BA960FAF-D2E8-49FD-BD0C-64AC40233BD7,2023-09-28_12h35.32.591,WP_VExplicitOC_LH,2022.2.5,Win32,16.75827859,100,5.2077,2.0392,NA,NA,NA,NA,NA,frustrated,"frustrated, not frustrated","more frustrated, less frustrated",NA,NA,NA,NA,NA,NA,NA,NA,NA,NA,NA,NA,NA,NA,NA,0,0,0,1,1,NA,NA,NA,NA,NA,NA,NA,NA,NA,NA,NA,NA,NA,NA,NA,NA,NA,NA,NA,NA,NA,NA,NA,NA,NA,NA,NA,NA
SUPAMT40282,3O6CYIULEJ0N7J7K9B3JM1PRBQGUW0,BA960FAF-D2E8-49FD-BD0C-64AC40233BD7,2023-09-28_12h35.32.591,WP_VExplicitOC_LH,2022.2.5,Win32,16.75827859,100,3.8949,2.0789,NA,NA,NA,NA,NA,happy,"unhappy, happy","less happy, more happy",NA,NA,NA,NA,NA,NA,NA,NA,NA,NA,NA,NA,NA,NA,NA,0,1,1,0,1,NA,NA,NA,NA,NA,NA,NA,NA,NA,NA,NA,NA,NA,NA,NA,NA,NA,NA,NA,NA,NA,NA,NA,NA,NA,NA,NA,NA
SUPAMT40282,3O6CYIULEJ0N7J7K9B3JM1PRBQGUW0,BA960FAF-D2E8-49FD-BD0C-64AC40233BD7,2023-09-28_12h35.32.591,WP_VExplicitOC_LH,2022.2.5,Win32,16.75827859,100,4.9023,2.0625,NA,NA,NA,NA,NA,bored,"bored, not bored","more bored, less bored",NA,NA,NA,NA,NA,NA,NA,NA,NA,NA,NA,NA,NA,NA,NA,0,2,2,2,1,NA,NA,NA,NA,NA,NA,NA,NA,NA,NA,NA,NA,NA,NA,NA,NA,NA,NA,NA,NA,NA,NA,NA,NA,NA,NA,NA,NA
SUPAMT40282,3O6CYIULEJ0N7J7K9B3JM1PRBQGUW0,BA960FAF-D2E8-49FD-BD0C-64AC40233BD7,2023-09-28_12h35.32.591,WP_VExplicitOC_LH,2022.2.5,Win32,16.75827859,NA,NA,NA,NA,NA,NA,NA,NA,NA,NA,NA,NA,NA,NA,NA,NA,NA,NA,NA,NA,NA,NA,NA,NA,NA,NA,NA,NA,NA,NA,NA,5,0,5,0,1,NA,NA,NA,NA,NA,NA,NA,NA,NA,NA,NA,NA,NA,NA,NA,NA,NA,NA,NA,NA,NA,NA,NA
SUPAMT40282,3O6CYIULEJ0N7J7K9B3JM1PRBQGUW0,BA960FAF-D2E8-49FD-BD0C-64AC40233BD7,2023-09-28_12h35.32.591,WP_VExplicitOC_LH,2022.2.5,Win32,16.75827859,100,4.3507,2.0521,NA,NA,NA,NA,NA,bored,"bored, not bored","more bored, less bored",NA,NA,NA,NA,NA,NA,NA,NA,NA,NA,NA,NA,NA,NA,NA,0,0,0,2,1,NA,NA,NA,NA,NA,NA,NA,NA,NA,NA,NA,NA,NA,NA,NA,NA,NA,NA,NA,NA,NA,NA,NA,NA,NA,NA,NA,NA
SUPAMT40282,3O6CYIULEJ0N7J7K9B3JM1PRBQGUW0,BA960FAF-D2E8-49FD-BD0C-64AC40233BD7,2023-09-28_12h35.32.591,WP_VExplicitOC_LH,2022.2.5,Win32,16.75827859,-40.0390625,4.2408,2.0062,NA,NA,NA,NA,NA,happy,"unhappy, happy","less happy, more happy",NA,NA,NA,NA,NA,NA,NA,NA,NA,NA,NA,NA,NA,NA,NA,0,1,1,0,1,NA,NA,NA,NA,NA,NA,NA,NA,NA,NA,NA,NA,NA,NA,NA,NA,NA,NA,NA,NA,NA,NA,NA,NA,NA,NA,NA,NA
SUPAMT40282,3O6CYIULEJ0N7J7K9B3JM1PRBQGUW0,BA960FAF-D2E8-49FD-BD0C-64AC40233BD7,2023-09-28_12h35.32.591,WP_VExplicitOC_LH,2022.2.5,Win32,16.75827859,50.390625,3.9721,2.0499,NA,NA,NA,NA,NA,frustrated,"frustrated, not frustrated","more frustrated, less frustrated",NA,NA,NA,NA,NA,NA,NA,NA,NA,NA,NA,NA,NA,NA,NA,0,2,2,1,1,NA,NA,NA,NA,NA,NA,NA,NA,NA,NA,NA,NA,NA,NA,NA,NA,NA,NA,NA,NA,NA,NA,NA,NA,NA,NA,NA,NA
SUPAMT40282,3O6CYIULEJ0N7J7K9B3JM1PRBQGUW0,BA960FAF-D2E8-49FD-BD0C-64AC40233BD7,2023-09-28_12h35.32.591,WP_VExplicitOC_LH,2022.2.5,Win32,16.75827859,NA,NA,NA,NA,NA,NA,NA,NA,NA,NA,NA,NA,NA,NA,NA,NA,NA,NA,NA,NA,NA,NA,NA,NA,NA,NA,NA,NA,NA,NA,NA,6,0,6,0,1,NA,NA,NA,NA,NA,NA,NA,NA,NA,NA,NA,NA,NA,NA,NA,NA,NA,NA,NA,NA,NA,NA,NA
SUPAMT40282,3O6CYIULEJ0N7J7K9B3JM1PRBQGUW0,BA960FAF-D2E8-49FD-BD0C-64AC40233BD7,2023-09-28_12h35.32.591,WP_VExplicitOC_LH,2022.2.5,Win32,16.75827859,71.09375,4.1675,2.0428,NA,NA,NA,NA,NA,frustrated,"frustrated, not frustrated","more frustrated, less frustrated",NA,NA,NA,NA,NA,NA,NA,NA,NA,NA,NA,NA,NA,NA,NA,0,0,0,1,1,NA,NA,NA,NA,NA,NA,NA,NA,NA,NA,NA,NA,NA,NA,NA,NA,NA,NA,NA,NA,NA,NA,NA,NA,NA,NA,NA,NA
SUPAMT40282,3O6CYIULEJ0N7J7K9B3JM1PRBQGUW0,BA960FAF-D2E8-49FD-BD0C-64AC40233BD7,2023-09-28_12h35.32.591,WP_VExplicitOC_LH,2022.2.5,Win32,16.75827859,73.828125,4.0571,2.0259,NA,NA,NA,NA,NA,bored,"bored, not bored","more bored, less bored",NA,NA,NA,NA,NA,NA,NA,NA,NA,NA,NA,NA,NA,NA,NA,0,1,1,2,1,NA,NA,NA,NA,NA,NA,NA,NA,NA,NA,NA,NA,NA,NA,NA,NA,NA,NA,NA,NA,NA,NA,NA,NA,NA,NA,NA,NA
SUPAMT40282,3O6CYIULEJ0N7J7K9B3JM1PRBQGUW0,BA960FAF-D2E8-49FD-BD0C-64AC40233BD7,2023-09-28_12h35.32.591,WP_VExplicitOC_LH,2022.2.5,Win32,16.75827859,100,3.7255,2.0649,NA,NA,NA,NA,NA,happy,"unhappy, happy","less happy, more happy",NA,NA,NA,NA,NA,NA,NA,NA,NA,NA,NA,NA,NA,NA,NA,0,2,2,0,1,NA,NA,NA,NA,NA,NA,NA,NA,NA,NA,NA,NA,NA,NA,NA,NA,NA,NA,NA,NA,NA,NA,NA,NA,NA,NA,NA,NA
SUPAMT40282,3O6CYIULEJ0N7J7K9B3JM1PRBQGUW0,BA960FAF-D2E8-49FD-BD0C-64AC40233BD7,2023-09-28_12h35.32.591,WP_VExplicitOC_LH,2022.2.5,Win32,16.75827859,NA,NA,NA,NA,NA,NA,NA,NA,NA,NA,NA,NA,NA,NA,NA,NA,NA,NA,NA,NA,NA,NA,NA,NA,NA,NA,NA,NA,NA,NA,NA,7,0,7,0,1,NA,NA,NA,NA,NA,NA,NA,NA,NA,NA,NA,NA,NA,NA,NA,NA,NA,NA,NA,NA,NA,NA,NA
SUPAMT40282,3O6CYIULEJ0N7J7K9B3JM1PRBQGUW0,BA960FAF-D2E8-49FD-BD0C-64AC40233BD7,2023-09-28_12h35.32.591,WP_VExplicitOC_LH,2022.2.5,Win32,16.75827859,100,4.8029,2.07,NA,NA,NA,NA,NA,happy,"unhappy, happy","less happy, more happy",NA,NA,NA,NA,NA,NA,NA,NA,NA,NA,NA,NA,NA,NA,NA,0,0,0,0,1,NA,NA,NA,NA,NA,NA,NA,NA,NA,NA,NA,NA,NA,NA,NA,NA,NA,NA,NA,NA,NA,NA,NA,NA,NA,NA,NA,NA
SUPAMT40282,3O6CYIULEJ0N7J7K9B3JM1PRBQGUW0,BA960FAF-D2E8-49FD-BD0C-64AC40233BD7,2023-09-28_12h35.32.591,WP_VExplicitOC_LH,2022.2.5,Win32,16.75827859,56.640625,5.8539,2.0412,NA,NA,NA,NA,NA,frustrated,"frustrated, not frustrated","more frustrated, less frustrated",NA,NA,NA,NA,NA,NA,NA,NA,NA,NA,NA,NA,NA,NA,NA,0,1,1,1,1,NA,NA,NA,NA,NA,NA,NA,NA,NA,NA,NA,NA,NA,NA,NA,NA,NA,NA,NA,NA,NA,NA,NA,NA,NA,NA,NA,NA
SUPAMT40282,3O6CYIULEJ0N7J7K9B3JM1PRBQGUW0,BA960FAF-D2E8-49FD-BD0C-64AC40233BD7,2023-09-28_12h35.32.591,WP_VExplicitOC_LH,2022.2.5,Win32,16.75827859,64.84375,4.0386,2.0449,NA,NA,NA,NA,NA,bored,"bored, not bored","more bored, less bored",NA,NA,NA,NA,NA,NA,NA,NA,NA,NA,NA,NA,NA,NA,NA,0,2,2,2,1,NA,NA,NA,NA,NA,NA,NA,NA,NA,NA,NA,NA,NA,NA,NA,NA,NA,NA,NA,NA,NA,NA,NA,NA,NA,NA,NA,NA
SUPAMT40282,3O6CYIULEJ0N7J7K9B3JM1PRBQGUW0,BA960FAF-D2E8-49FD-BD0C-64AC40233BD7,2023-09-28_12h35.32.591,WP_VExplicitOC_LH,2022.2.5,Win32,16.75827859,NA,NA,NA,NA,NA,NA,NA,NA,NA,NA,NA,NA,NA,NA,NA,NA,NA,NA,NA,NA,NA,NA,NA,NA,NA,NA,NA,NA,NA,NA,NA,8,0,8,0,1,NA,NA,NA,NA,NA,NA,NA,NA,NA,NA,NA,NA,NA,NA,NA,NA,NA,NA,NA,NA,NA,NA,NA
SUPAMT40282,3O6CYIULEJ0N7J7K9B3JM1PRBQGUW0,BA960FAF-D2E8-49FD-BD0C-64AC40233BD7,2023-09-28_12h35.32.591,WP_VExplicitOC_LH,2022.2.5,Win32,16.75827859,51.5625,4.0094,2.0058,NA,NA,NA,NA,NA,happy,"unhappy, happy","less happy, more happy",NA,NA,NA,NA,NA,NA,NA,NA,NA,NA,NA,NA,NA,NA,NA,0,0,0,0,1,NA,NA,NA,NA,NA,NA,NA,NA,NA,NA,NA,NA,NA,NA,NA,NA,NA,NA,NA,NA,NA,NA,NA,NA,NA,NA,NA,NA
SUPAMT40282,3O6CYIULEJ0N7J7K9B3JM1PRBQGUW0,BA960FAF-D2E8-49FD-BD0C-64AC40233BD7,2023-09-28_12h35.32.591,WP_VExplicitOC_LH,2022.2.5,Win32,16.75827859,63.4765625,5.0006,2.0573,NA,NA,NA,NA,NA,bored,"bored, not bored","more bored, less bored",NA,NA,NA,NA,NA,NA,NA,NA,NA,NA,NA,NA,NA,NA,NA,0,1,1,2,1,NA,NA,NA,NA,NA,NA,NA,NA,NA,NA,NA,NA,NA,NA,NA,NA,NA,NA,NA,NA,NA,NA,NA,NA,NA,NA,NA,NA
SUPAMT40282,3O6CYIULEJ0N7J7K9B3JM1PRBQGUW0,BA960FAF-D2E8-49FD-BD0C-64AC40233BD7,2023-09-28_12h35.32.591,WP_VExplicitOC_LH,2022.2.5,Win32,16.75827859,NA,NA,2.0469,NA,NA,NA,NA,NA,frustrated,"frustrated, not frustrated","more frustrated, less frustrated",NA,NA,NA,NA,NA,NA,NA,NA,NA,NA,NA,NA,NA,NA,NA,0,2,2,1,1,NA,NA,NA,NA,NA,NA,NA,NA,NA,NA,NA,NA,NA,NA,NA,NA,NA,NA,NA,NA,NA,NA,NA,NA,NA,NA,NA,NA
SUPAMT40282,3O6CYIULEJ0N7J7K9B3JM1PRBQGUW0,BA960FAF-D2E8-49FD-BD0C-64AC40233BD7,2023-09-28_12h35.32.591,WP_VExplicitOC_LH,2022.2.5,Win32,16.75827859,NA,NA,NA,NA,NA,NA,NA,NA,NA,NA,NA,NA,NA,NA,NA,NA,NA,NA,NA,NA,NA,NA,NA,NA,NA,NA,NA,NA,NA,NA,NA,9,0,9,0,1,NA,NA,NA,NA,NA,NA,NA,NA,NA,NA,NA,NA,NA,NA,NA,NA,NA,NA,NA,NA,NA,NA,NA
SUPAMT40282,3O6CYIULEJ0N7J7K9B3JM1PRBQGUW0,BA960FAF-D2E8-49FD-BD0C-64AC40233BD7,2023-09-28_12h35.32.591,WP_VExplicitOC_LH,2022.2.5,Win32,16.75827859,100,4.6286,2.0653,NA,NA,NA,NA,NA,happy,"unhappy, happy","less happy, more happy",NA,NA,NA,NA,NA,NA,NA,NA,NA,NA,NA,NA,NA,NA,NA,0,0,0,0,1,NA,NA,NA,NA,NA,NA,NA,NA,NA,NA,NA,NA,NA,NA,NA,NA,NA,NA,NA,NA,NA,NA,NA,NA,NA,NA,NA,NA
SUPAMT40282,3O6CYIULEJ0N7J7K9B3JM1PRBQGUW0,BA960FAF-D2E8-49FD-BD0C-64AC40233BD7,2023-09-28_12h35.32.591,WP_VExplicitOC_LH,2022.2.5,Win32,16.75827859,60.15625,4.73,2.0097,NA,NA,NA,NA,NA,frustrated,"frustrated, not frustrated","more frustrated, less frustrated",NA,NA,NA,NA,NA,NA,NA,NA,NA,NA,NA,NA,NA,NA,NA,0,1,1,1,1,NA,NA,NA,NA,NA,NA,NA,NA,NA,NA,NA,NA,NA,NA,NA,NA,NA,NA,NA,NA,NA,NA,NA,NA,NA,NA,NA,NA
SUPAMT40282,3O6CYIULEJ0N7J7K9B3JM1PRBQGUW0,BA960FAF-D2E8-49FD-BD0C-64AC40233BD7,2023-09-28_12h35.32.591,WP_VExplicitOC_LH,2022.2.5,Win32,16.75827859,NA,NA,2.0544,NA,NA,NA,NA,NA,bored,"bored, not bored","more bored, less bored",NA,NA,NA,NA,NA,NA,NA,NA,NA,NA,NA,NA,NA,NA,NA,0,2,2,2,1,NA,NA,NA,NA,NA,NA,NA,NA,NA,NA,NA,NA,NA,NA,NA,NA,NA,NA,NA,NA,NA,NA,NA,NA,NA,NA,NA,NA
SUPAMT40282,3O6CYIULEJ0N7J7K9B3JM1PRBQGUW0,BA960FAF-D2E8-49FD-BD0C-64AC40233BD7,2023-09-28_12h35.32.591,WP_VExplicitOC_LH,2022.2.5,Win32,16.75827859,NA,NA,NA,NA,NA,NA,NA,NA,NA,NA,NA,NA,NA,NA,NA,NA,NA,NA,NA,NA,NA,NA,NA,NA,NA,NA,NA,NA,NA,NA,NA,10,0,10,0,1,NA,NA,NA,NA,NA,NA,NA,NA,NA,NA,NA,NA,NA,NA,NA,NA,NA,NA,NA,NA,NA,NA,NA
SUPAMT40282,3O6CYIULEJ0N7J7K9B3JM1PRBQGUW0,BA960FAF-D2E8-49FD-BD0C-64AC40233BD7,2023-09-28_12h35.32.591,WP_VExplicitOC_LH,2022.2.5,Win32,16.75827859,NA,NA,2.0678,NA,NA,NA,NA,NA,bored,"bored, not bored","more bored, less bored",NA,NA,NA,NA,NA,NA,NA,NA,NA,NA,NA,NA,NA,NA,NA,0,0,0,2,1,NA,NA,NA,NA,NA,NA,NA,NA,NA,NA,NA,NA,NA,NA,NA,NA,NA,NA,NA,NA,NA,NA,NA,NA,NA,NA,NA,NA
SUPAMT40282,3O6CYIULEJ0N7J7K9B3JM1PRBQGUW0,BA960FAF-D2E8-49FD-BD0C-64AC40233BD7,2023-09-28_12h35.32.591,WP_VExplicitOC_LH,2022.2.5,Win32,16.75827859,79.4921875,3.5916,2.04,NA,NA,NA,NA,NA,frustrated,"frustrated, not frustrated","more frustrated, less frustrated",NA,NA,NA,NA,NA,NA,NA,NA,NA,NA,NA,NA,NA,NA,NA,0,1,1,1,1,NA,NA,NA,NA,NA,NA,NA,NA,NA,NA,NA,NA,NA,NA,NA,NA,NA,NA,NA,NA,NA,NA,NA,NA,NA,NA,NA,NA
SUPAMT40282,3O6CYIULEJ0N7J7K9B3JM1PRBQGUW0,BA960FAF-D2E8-49FD-BD0C-64AC40233BD7,2023-09-28_12h35.32.591,WP_VExplicitOC_LH,2022.2.5,Win32,16.75827859,49.609375,4.4795,2.003,NA,NA,NA,NA,NA,happy,"unhappy, happy","less happy, more happy",NA,NA,NA,NA,NA,NA,NA,NA,NA,NA,NA,NA,NA,NA,NA,0,2,2,0,1,NA,NA,NA,NA,NA,NA,NA,NA,NA,NA,NA,NA,NA,NA,NA,NA,NA,NA,NA,NA,NA,NA,NA,NA,NA,NA,NA,NA
SUPAMT40282,3O6CYIULEJ0N7J7K9B3JM1PRBQGUW0,BA960FAF-D2E8-49FD-BD0C-64AC40233BD7,2023-09-28_12h35.32.591,WP_VExplicitOC_LH,2022.2.5,Win32,16.75827859,NA,NA,NA,NA,NA,NA,NA,NA,NA,NA,NA,NA,NA,NA,NA,NA,NA,NA,NA,NA,NA,NA,NA,NA,NA,NA,NA,NA,NA,NA,NA,11,0,11,0,1,NA,NA,NA,NA,NA,NA,NA,NA,NA,NA,NA,NA,NA,NA,NA,NA,NA,NA,NA,NA,NA,NA,NA
SUPAMT40282,3O6CYIULEJ0N7J7K9B3JM1PRBQGUW0,BA960FAF-D2E8-49FD-BD0C-64AC40233BD7,2023-09-28_12h35.32.591,WP_VExplicitOC_LH,2022.2.5,Win32,16.75827859,34.9609375,4.288,2.0556,NA,NA,NA,NA,NA,bored,"bored, not bored","more bored, less bored",NA,NA,NA,NA,NA,NA,NA,NA,NA,NA,NA,NA,NA,NA,NA,0,0,0,2,1,NA,NA,NA,NA,NA,NA,NA,NA,NA,NA,NA,NA,NA,NA,NA,NA,NA,NA,NA,NA,NA,NA,NA,NA,NA,NA,NA,NA
SUPAMT40282,3O6CYIULEJ0N7J7K9B3JM1PRBQGUW0,BA960FAF-D2E8-49FD-BD0C-64AC40233BD7,2023-09-28_12h35.32.591,WP_VExplicitOC_LH,2022.2.5,Win32,16.75827859,57.2265625,3.6462,2.0439,NA,NA,NA,NA,NA,happy,"unhappy, happy","less happy, more happy",NA,NA,NA,NA,NA,NA,NA,NA,NA,NA,NA,NA,NA,NA,NA,0,1,1,0,1,NA,NA,NA,NA,NA,NA,NA,NA,NA,NA,NA,NA,NA,NA,NA,NA,NA,NA,NA,NA,NA,NA,NA,NA,NA,NA,NA,NA
SUPAMT40282,3O6CYIULEJ0N7J7K9B3JM1PRBQGUW0,BA960FAF-D2E8-49FD-BD0C-64AC40233BD7,2023-09-28_12h35.32.591,WP_VExplicitOC_LH,2022.2.5,Win32,16.75827859,-25.390625,4.296,2.0546,NA,NA,NA,NA,NA,frustrated,"frustrated, not frustrated","more frustrated, less frustrated",NA,NA,NA,NA,NA,NA,NA,NA,NA,NA,NA,NA,NA,NA,NA,0,2,2,1,1,NA,NA,NA,NA,NA,NA,NA,NA,NA,NA,NA,NA,NA,NA,NA,NA,NA,NA,NA,NA,NA,NA,NA,NA,NA,NA,NA,NA
SUPAMT40282,3O6CYIULEJ0N7J7K9B3JM1PRBQGUW0,BA960FAF-D2E8-49FD-BD0C-64AC40233BD7,2023-09-28_12h35.32.591,WP_VExplicitOC_LH,2022.2.5,Win32,16.75827859,NA,NA,NA,NA,NA,NA,NA,NA,NA,NA,NA,NA,NA,NA,NA,NA,NA,NA,NA,NA,NA,NA,NA,NA,NA,NA,NA,NA,NA,NA,NA,12,0,12,0,1,NA,NA,NA,NA,NA,NA,NA,NA,NA,NA,NA,NA,NA,NA,NA,NA,NA,NA,NA,NA,NA,NA,NA
SUPAMT40282,3O6CYIULEJ0N7J7K9B3JM1PRBQGUW0,BA960FAF-D2E8-49FD-BD0C-64AC40233BD7,2023-09-28_12h35.32.591,WP_VExplicitOC_LH,2022.2.5,Win32,16.75827859,69.140625,4.8786,2.0244,NA,NA,NA,NA,NA,frustrated,"frustrated, not frustrated","more frustrated, less frustrated",NA,NA,NA,NA,NA,NA,NA,NA,NA,NA,NA,NA,NA,NA,NA,0,0,0,1,1,NA,NA,NA,NA,NA,NA,NA,NA,NA,NA,NA,NA,NA,NA,NA,NA,NA,NA,NA,NA,NA,NA,NA,NA,NA,NA,NA,NA
SUPAMT40282,3O6CYIULEJ0N7J7K9B3JM1PRBQGUW0,BA960FAF-D2E8-49FD-BD0C-64AC40233BD7,2023-09-28_12h35.32.591,WP_VExplicitOC_LH,2022.2.5,Win32,16.75827859,67.3828125,3.6685,2.0855,NA,NA,NA,NA,NA,bored,"bored, not bored","more bored, less bored",NA,NA,NA,NA,NA,NA,NA,NA,NA,NA,NA,NA,NA,NA,NA,0,1,1,2,1,NA,NA,NA,NA,NA,NA,NA,NA,NA,NA,NA,NA,NA,NA,NA,NA,NA,NA,NA,NA,NA,NA,NA,NA,NA,NA,NA,NA
SUPAMT40282,3O6CYIULEJ0N7J7K9B3JM1PRBQGUW0,BA960FAF-D2E8-49FD-BD0C-64AC40233BD7,2023-09-28_12h35.32.591,WP_VExplicitOC_LH,2022.2.5,Win32,16.75827859,-40.4296875,5.3611,2.0334,NA,NA,NA,NA,NA,happy,"unhappy, happy","less happy, more happy",NA,NA,NA,NA,NA,NA,NA,NA,NA,NA,NA,NA,NA,NA,NA,0,2,2,0,1,NA,NA,NA,NA,NA,NA,NA,NA,NA,NA,NA,NA,NA,NA,NA,NA,NA,NA,NA,NA,NA,NA,NA,NA,NA,NA,NA,NA
SUPAMT40282,3O6CYIULEJ0N7J7K9B3JM1PRBQGUW0,BA960FAF-D2E8-49FD-BD0C-64AC40233BD7,2023-09-28_12h35.32.591,WP_VExplicitOC_LH,2022.2.5,Win32,16.75827859,NA,NA,NA,NA,NA,NA,NA,NA,NA,NA,NA,NA,NA,NA,NA,NA,NA,NA,NA,NA,NA,NA,NA,NA,NA,NA,NA,NA,NA,NA,NA,13,0,13,0,1,NA,NA,NA,NA,NA,NA,NA,NA,NA,NA,NA,NA,NA,NA,NA,NA,NA,NA,NA,NA,NA,NA,NA
SUPAMT40282,3O6CYIULEJ0N7J7K9B3JM1PRBQGUW0,BA960FAF-D2E8-49FD-BD0C-64AC40233BD7,2023-09-28_12h35.32.591,WP_VExplicitOC_LH,2022.2.5,Win32,16.75827859,36.328125,3.9521,2.0445,NA,NA,NA,NA,NA,frustrated,"frustrated, not frustrated","more frustrated, less frustrated",NA,NA,NA,NA,NA,NA,NA,NA,NA,NA,NA,NA,NA,NA,NA,0,0,0,1,1,NA,NA,NA,NA,NA,NA,NA,NA,NA,NA,NA,NA,NA,NA,NA,NA,NA,NA,NA,NA,NA,NA,NA,NA,NA,NA,NA,NA
SUPAMT40282,3O6CYIULEJ0N7J7K9B3JM1PRBQGUW0,BA960FAF-D2E8-49FD-BD0C-64AC40233BD7,2023-09-28_12h35.32.591,WP_VExplicitOC_LH,2022.2.5,Win32,16.75827859,48.046875,3.6665,2.0181,NA,NA,NA,NA,NA,happy,"unhappy, happy","less happy, more happy",NA,NA,NA,NA,NA,NA,NA,NA,NA,NA,NA,NA,NA,NA,NA,0,1,1,0,1,NA,NA,NA,NA,NA,NA,NA,NA,NA,NA,NA,NA,NA,NA,NA,NA,NA,NA,NA,NA,NA,NA,NA,NA,NA,NA,NA,NA
SUPAMT40282,3O6CYIULEJ0N7J7K9B3JM1PRBQGUW0,BA960FAF-D2E8-49FD-BD0C-64AC40233BD7,2023-09-28_12h35.32.591,WP_VExplicitOC_LH,2022.2.5,Win32,16.75827859,-27.9296875,3.9596,2.0765,NA,NA,NA,NA,NA,bored,"bored, not bored","more bored, less bored",NA,NA,NA,NA,NA,NA,NA,NA,NA,NA,NA,NA,NA,NA,NA,0,2,2,2,1,NA,NA,NA,NA,NA,NA,NA,NA,NA,NA,NA,NA,NA,NA,NA,NA,NA,NA,NA,NA,NA,NA,NA,NA,NA,NA,NA,NA
SUPAMT40282,3O6CYIULEJ0N7J7K9B3JM1PRBQGUW0,BA960FAF-D2E8-49FD-BD0C-64AC40233BD7,2023-09-28_12h35.32.591,WP_VExplicitOC_LH,2022.2.5,Win32,16.75827859,NA,NA,NA,NA,NA,NA,NA,NA,NA,NA,NA,NA,NA,NA,NA,NA,NA,NA,NA,NA,NA,NA,NA,NA,NA,NA,NA,NA,NA,NA,NA,14,0,14,0,1,NA,NA,NA,NA,NA,NA,NA,NA,NA,NA,NA,NA,NA,NA,NA,NA,NA,NA,NA,NA,NA,NA,NA
SUPAMT40282,3O6CYIULEJ0N7J7K9B3JM1PRBQGUW0,BA960FAF-D2E8-49FD-BD0C-64AC40233BD7,2023-09-28_12h35.32.591,WP_VExplicitOC_LH,2022.2.5,Win32,16.75827859,NA,NA,NA,NA,NA,NA,NA,NA,NA,NA,NA,NA,NA,NA,NA,NA,NA,NA,NA,NA,NA,NA,NA,NA,NA,NA,NA,NA,NA,NA,NA,NA,NA,NA,NA,NA,NA,NA,NA,NA,NA,NA,NA,NA,NA,NA,NA,NA,NA,NA,NA,NA,NA,NA,NA,NA,NA,NA,NA
SUPAMT40282,3O6CYIULEJ0N7J7K9B3JM1PRBQGUW0,BA960FAF-D2E8-49FD-BD0C-64AC40233BD7,2023-09-28_12h35.32.591,WP_VExplicitOC_LH,2022.2.5,Win32,16.75827859,NA,NA,NA,NA,NA,NA,NA,NA,NA,NA,NA,NA,NA,NA,NA,NA,NA,NA,NA,NA,NA,NA,NA,NA,NA,NA,NA,NA,NA,NA,NA,NA,NA,NA,NA,NA,NA,NA,NA,NA,NA,NA,NA,NA,NA,NA,NA,NA,NA,NA,NA,NA,NA,NA,NA,NA,NA,NA,NA
SUPAMT40282,3O6CYIULEJ0N7J7K9B3JM1PRBQGUW0,BA960FAF-D2E8-49FD-BD0C-64AC40233BD7,2023-09-28_12h35.32.591,WP_VExplicitOC_LH,2022.2.5,Win32,16.75827859,NA,NA,NA,NA,NA,NA,NA,NA,NA,NA,NA,NA,NA,NA,NA,NA,NA,NA,rest (looking at a fixed cross),001.png,NA,NA,NA,NA,NA,NA,NA,NA,NA,NA,NA,NA,NA,NA,NA,NA,100,5.0242000000000004,0,0,0,0,1,NA,NA,NA,NA,NA,NA,NA,NA,NA,NA,NA,NA,NA,NA,NA,NA
SUPAMT40282,3O6CYIULEJ0N7J7K9B3JM1PRBQGUW0,BA960FAF-D2E8-49FD-BD0C-64AC40233BD7,2023-09-28_12h35.32.591,WP_VExplicitOC_LH,2022.2.5,Win32,16.75827859,NA,NA,NA,NA,NA,NA,NA,NA,NA,NA,NA,NA,NA,NA,NA,NA,NA,NA,stand up,002.png,NA,NA,NA,NA,NA,NA,NA,NA,NA,NA,NA,NA,NA,NA,NA,NA,100,2.0428,0,1,1,1,1,NA,NA,NA,NA,NA,NA,NA,NA,NA,NA,NA,NA,NA,NA,NA,NA
SUPAMT40282,3O6CYIULEJ0N7J7K9B3JM1PRBQGUW0,BA960FAF-D2E8-49FD-BD0C-64AC40233BD7,2023-09-28_12h35.32.591,WP_VExplicitOC_LH,2022.2.5,Win32,16.75827859,NA,NA,NA,NA,NA,NA,NA,NA,NA,NA,NA,NA,NA,NA,NA,NA,NA,NA,stretch,003.png,NA,NA,NA,NA,NA,NA,NA,NA,NA,NA,NA,NA,NA,NA,NA,NA,68.359375,1.874,0,2,2,2,1,NA,NA,NA,NA,NA,NA,NA,NA,NA,NA,NA,NA,NA,NA,NA,NA
SUPAMT40282,3O6CYIULEJ0N7J7K9B3JM1PRBQGUW0,BA960FAF-D2E8-49FD-BD0C-64AC40233BD7,2023-09-28_12h35.32.591,WP_VExplicitOC_LH,2022.2.5,Win32,16.75827859,NA,NA,NA,NA,NA,NA,NA,NA,NA,NA,NA,NA,NA,NA,NA,NA,NA,NA,make a drink,004.png,NA,NA,NA,NA,NA,NA,NA,NA,NA,NA,NA,NA,NA,NA,NA,NA,100,1.5836,0,3,3,3,1,NA,NA,NA,NA,NA,NA,NA,NA,NA,NA,NA,NA,NA,NA,NA,NA
SUPAMT40282,3O6CYIULEJ0N7J7K9B3JM1PRBQGUW0,BA960FAF-D2E8-49FD-BD0C-64AC40233BD7,2023-09-28_12h35.32.591,WP_VExplicitOC_LH,2022.2.5,Win32,16.75827859,NA,NA,NA,NA,NA,NA,NA,NA,NA,NA,NA,NA,NA,NA,NA,NA,NA,NA,scroll social media,005.png,NA,NA,NA,NA,NA,NA,NA,NA,NA,NA,NA,NA,NA,NA,NA,NA,91.6015625,1.71,0,4,4,4,1,NA,NA,NA,NA,NA,NA,NA,NA,NA,NA,NA,NA,NA,NA,NA,NA
SUPAMT40282,3O6CYIULEJ0N7J7K9B3JM1PRBQGUW0,BA960FAF-D2E8-49FD-BD0C-64AC40233BD7,2023-09-28_12h35.32.591,WP_VExplicitOC_LH,2022.2.5,Win32,16.75827859,NA,NA,NA,NA,NA,NA,NA,NA,NA,NA,NA,NA,NA,NA,NA,NA,NA,NA,listen to music,006.png,NA,NA,NA,NA,NA,NA,NA,NA,NA,NA,NA,NA,NA,NA,NA,NA,100,1.3907,0,5,5,5,1,NA,NA,NA,NA,NA,NA,NA,NA,NA,NA,NA,NA,NA,NA,NA,NA
SUPAMT40282,3O6CYIULEJ0N7J7K9B3JM1PRBQGUW0,BA960FAF-D2E8-49FD-BD0C-64AC40233BD7,2023-09-28_12h35.32.591,WP_VExplicitOC_LH,2022.2.5,Win32,16.75827859,NA,NA,NA,NA,NA,NA,NA,NA,NA,NA,NA,NA,NA,NA,NA,NA,NA,NA,daydream,007.png,NA,NA,NA,NA,NA,NA,NA,NA,NA,NA,NA,NA,NA,NA,NA,NA,100,1.6975,0,6,6,6,1,NA,NA,NA,NA,NA,NA,NA,NA,NA,NA,NA,NA,NA,NA,NA,NA
SUPAMT40282,3O6CYIULEJ0N7J7K9B3JM1PRBQGUW0,BA960FAF-D2E8-49FD-BD0C-64AC40233BD7,2023-09-28_12h35.32.591,WP_VExplicitOC_LH,2022.2.5,Win32,16.75827859,NA,NA,NA,NA,NA,NA,NA,NA,NA,NA,NA,NA,NA,NA,NA,NA,NA,NA,watch a short animation,008.png,NA,NA,NA,NA,NA,NA,NA,NA,NA,NA,NA,NA,NA,NA,NA,NA,100,1.7935,0,7,7,7,1,NA,NA,NA,NA,NA,NA,NA,NA,NA,NA,NA,NA,NA,NA,NA,NA
SUPAMT40282,3O6CYIULEJ0N7J7K9B3JM1PRBQGUW0,BA960FAF-D2E8-49FD-BD0C-64AC40233BD7,2023-09-28_12h35.32.591,WP_VExplicitOC_LH,2022.2.5,Win32,16.75827859,NA,NA,NA,NA,NA,NA,NA,NA,NA,NA,NA,NA,NA,NA,NA,NA,NA,NA,read a novel,009.png,NA,NA,NA,NA,NA,NA,NA,NA,NA,NA,NA,NA,NA,NA,NA,NA,100,2.0652,0,8,8,8,1,NA,NA,NA,NA,NA,NA,NA,NA,NA,NA,NA,NA,NA,NA,NA,NA
SUPAMT40282,3O6CYIULEJ0N7J7K9B3JM1PRBQGUW0,BA960FAF-D2E8-49FD-BD0C-64AC40233BD7,2023-09-28_12h35.32.591,WP_VExplicitOC_LH,2022.2.5,Win32,16.75827859,NA,NA,NA,NA,NA,NA,NA,NA,NA,NA,NA,NA,NA,NA,NA,NA,NA,NA,read the news,010.png,NA,NA,NA,NA,NA,NA,NA,NA,NA,NA,NA,NA,NA,NA,NA,NA,100,1.8476,0,9,9,9,1,NA,NA,NA,NA,NA,NA,NA,NA,NA,NA,NA,NA,NA,NA,NA,NA
SUPAMT40282,3O6CYIULEJ0N7J7K9B3JM1PRBQGUW0,BA960FAF-D2E8-49FD-BD0C-64AC40233BD7,2023-09-28_12h35.32.591,WP_VExplicitOC_LH,2022.2.5,Win32,16.75827859,NA,NA,NA,NA,NA,NA,NA,NA,NA,NA,NA,NA,NA,NA,NA,NA,NA,NA,NA,NA,NA,NA,NA,NA,NA,NA,NA,NA,NA,NA,NA,NA,NA,NA,NA,NA,NA,NA,NA,NA,NA,NA,NA,stand up,NA,NA,NA,NA,NA,NA,NA,NA,NA,NA,NA,NA,NA,NA,NA
SUPAMT40282,3O6CYIULEJ0N7J7K9B3JM1PRBQGUW0,BA960FAF-D2E8-49FD-BD0C-64AC40233BD7,2023-09-28_12h35.32.591,WP_VExplicitOC_LH,2022.2.5,Win32,16.75827859,38.28125,3.8597,2.047,NA,NA,NA,NA,NA,frustrated,"frustrated, not frustrated","more frustrated, less frustrated",NA,NA,NA,NA,NA,NA,NA,NA,NA,NA,NA,NA,NA,NA,NA,NA,NA,NA,NA,NA,NA,NA,NA,NA,NA,NA,NA,NA,NA,NA,NA,NA,NA,0,0,0,1,1,NA,NA,NA,NA,NA,NA,NA,NA,NA,NA
SUPAMT40282,3O6CYIULEJ0N7J7K9B3JM1PRBQGUW0,BA960FAF-D2E8-49FD-BD0C-64AC40233BD7,2023-09-28_12h35.32.591,WP_VExplicitOC_LH,2022.2.5,Win32,16.75827859,55.46875,4.4058,2.0681,NA,NA,NA,NA,NA,bored,"bored, not bored","more bored, less bored",NA,NA,NA,NA,NA,NA,NA,NA,NA,NA,NA,NA,NA,NA,NA,NA,NA,NA,NA,NA,NA,NA,NA,NA,NA,NA,NA,NA,NA,NA,NA,NA,NA,0,1,1,2,1,NA,NA,NA,NA,NA,NA,NA,NA,NA,NA
SUPAMT40282,3O6CYIULEJ0N7J7K9B3JM1PRBQGUW0,BA960FAF-D2E8-49FD-BD0C-64AC40233BD7,2023-09-28_12h35.32.591,WP_VExplicitOC_LH,2022.2.5,Win32,16.75827859,62.109375,3.5235,2.0728,NA,NA,NA,NA,NA,happy,"unhappy, happy","less happy, more happy",NA,NA,NA,NA,NA,NA,NA,NA,NA,NA,NA,NA,NA,NA,NA,NA,NA,NA,NA,NA,NA,NA,NA,NA,NA,NA,NA,NA,NA,NA,NA,NA,NA,0,2,2,0,1,NA,NA,NA,NA,NA,NA,NA,NA,NA,NA
SUPAMT40282,3O6CYIULEJ0N7J7K9B3JM1PRBQGUW0,BA960FAF-D2E8-49FD-BD0C-64AC40233BD7,2023-09-28_12h35.32.591,WP_VExplicitOC_LH,2022.2.5,Win32,16.75827859,NA,NA,NA,NA,NA,NA,NA,NA,NA,NA,NA,NA,NA,NA,NA,NA,NA,NA,NA,NA,NA,NA,NA,NA,NA,NA,NA,NA,NA,NA,NA,NA,NA,NA,NA,NA,NA,NA,NA,NA,NA,NA,NA,NA,NA,NA,NA,NA,NA,NA,NA,NA,NA,NA,NA,NA,NA,NA,NA
SUPAMT40282,3O6CYIULEJ0N7J7K9B3JM1PRBQGUW0,BA960FAF-D2E8-49FD-BD0C-64AC40233BD7,2023-09-28_12h35.32.591,WP_VExplicitOC_LH,2022.2.5,Win32,16.75827859,NA,NA,NA,NA,NA,NA,NA,NA,NA,NA,NA,NA,NA,NA,NA,NA,NA,NA,NA,NA,NA,NA,NA,NA,NA,NA,NA,NA,NA,NA,NA,NA,NA,NA,NA,NA,NA,NA,NA,NA,NA,NA,NA,NA,NA,NA,NA,NA,NA,NA,NA,NA,NA,NA,NA,NA,NA,NA,NA
SUPAMT40282,3O6CYIULEJ0N7J7K9B3JM1PRBQGUW0,BA960FAF-D2E8-49FD-BD0C-64AC40233BD7,2023-09-28_12h35.32.591,WP_VExplicitOC_LH,2022.2.5,Win32,16.75827859,49.609375,5.0057,2.0167,NA,NA,NA,NA,NA,happy,"unhappy, happy","less happy, more happy",NA,NA,NA,NA,NA,NA,NA,NA,NA,NA,NA,NA,NA,NA,NA,NA,NA,NA,NA,NA,NA,NA,NA,NA,NA,NA,NA,NA,NA,NA,NA,NA,NA,NA,NA,NA,NA,NA,0,0,0,0,1,NA,NA,NA,NA,NA
SUPAMT40282,3O6CYIULEJ0N7J7K9B3JM1PRBQGUW0,BA960FAF-D2E8-49FD-BD0C-64AC40233BD7,2023-09-28_12h35.32.591,WP_VExplicitOC_LH,2022.2.5,Win32,16.75827859,92.3828125,5.0636,2.0501,NA,NA,NA,NA,NA,bored,"bored, not bored","more bored, less bored",NA,NA,NA,NA,NA,NA,NA,NA,NA,NA,NA,NA,NA,NA,NA,NA,NA,NA,NA,NA,NA,NA,NA,NA,NA,NA,NA,NA,NA,NA,NA,NA,NA,NA,NA,NA,NA,NA,0,1,1,2,1,NA,NA,NA,NA,NA
SUPAMT40282,3O6CYIULEJ0N7J7K9B3JM1PRBQGUW0,BA960FAF-D2E8-49FD-BD0C-64AC40233BD7,2023-09-28_12h35.32.591,WP_VExplicitOC_LH,2022.2.5,Win32,16.75827859,45.3125,4.035,2.0517,NA,NA,NA,NA,NA,frustrated,"frustrated, not frustrated","more frustrated, less frustrated",NA,NA,NA,NA,NA,NA,NA,NA,NA,NA,NA,NA,NA,NA,NA,NA,NA,NA,NA,NA,NA,NA,NA,NA,NA,NA,NA,NA,NA,NA,NA,NA,NA,NA,NA,NA,NA,NA,0,2,2,1,1,NA,NA,NA,NA,NA
SUPAMT40282,3O6CYIULEJ0N7J7K9B3JM1PRBQGUW0,BA960FAF-D2E8-49FD-BD0C-64AC40233BD7,2023-09-28_12h35.32.591,WP_VExplicitOC_LH,2022.2.5,Win32,16.75827859,NA,NA,NA,NA,NA,NA,NA,NA,NA,NA,NA,NA,NA,NA,NA,NA,NA,NA,NA,NA,NA,NA,NA,NA,NA,NA,NA,NA,NA,NA,NA,NA,NA,NA,NA,NA,NA,NA,NA,NA,NA,NA,NA,NA,NA,NA,NA,NA,NA,NA,NA,NA,NA,NA,0,0,0,0,1
SUPAMT40282,3O6CYIULEJ0N7J7K9B3JM1PRBQGUW0,BA960FAF-D2E8-49FD-BD0C-64AC40233BD7,2023-09-28_12h35.32.591,WP_VExplicitOC_LH,2022.2.5,Win32,16.75827859,43.359375,4.6555,2.0446,NA,NA,NA,NA,NA,happy,"unhappy, happy","less happy, more happy",NA,NA,NA,NA,NA,NA,NA,NA,NA,NA,NA,NA,NA,NA,NA,NA,NA,NA,NA,NA,NA,NA,NA,NA,NA,NA,NA,NA,NA,NA,NA,NA,NA,NA,NA,NA,NA,NA,0,0,0,0,1,NA,NA,NA,NA,NA
SUPAMT40282,3O6CYIULEJ0N7J7K9B3JM1PRBQGUW0,BA960FAF-D2E8-49FD-BD0C-64AC40233BD7,2023-09-28_12h35.32.591,WP_VExplicitOC_LH,2022.2.5,Win32,16.75827859,51.171875,3.1925,2.0213,NA,NA,NA,NA,NA,bored,"bored, not bored","more bored, less bored",NA,NA,NA,NA,NA,NA,NA,NA,NA,NA,NA,NA,NA,NA,NA,NA,NA,NA,NA,NA,NA,NA,NA,NA,NA,NA,NA,NA,NA,NA,NA,NA,NA,NA,NA,NA,NA,NA,0,1,1,2,1,NA,NA,NA,NA,NA
SUPAMT40282,3O6CYIULEJ0N7J7K9B3JM1PRBQGUW0,BA960FAF-D2E8-49FD-BD0C-64AC40233BD7,2023-09-28_12h35.32.591,WP_VExplicitOC_LH,2022.2.5,Win32,16.75827859,58.59375,3.1756,2.0148,NA,NA,NA,NA,NA,frustrated,"frustrated, not frustrated","more frustrated, less frustrated",NA,NA,NA,NA,NA,NA,NA,NA,NA,NA,NA,NA,NA,NA,NA,NA,NA,NA,NA,NA,NA,NA,NA,NA,NA,NA,NA,NA,NA,NA,NA,NA,NA,NA,NA,NA,NA,NA,0,2,2,1,1,NA,NA,NA,NA,NA
SUPAMT40282,3O6CYIULEJ0N7J7K9B3JM1PRBQGUW0,BA960FAF-D2E8-49FD-BD0C-64AC40233BD7,2023-09-28_12h35.32.591,WP_VExplicitOC_LH,2022.2.5,Win32,16.75827859,NA,NA,NA,NA,NA,NA,NA,NA,NA,NA,NA,NA,NA,NA,NA,NA,NA,NA,NA,NA,NA,NA,NA,NA,NA,NA,NA,NA,NA,NA,NA,NA,NA,NA,NA,NA,NA,NA,NA,NA,NA,NA,NA,NA,NA,NA,NA,NA,NA,NA,NA,NA,NA,NA,1,0,1,0,1
SUPAMT40282,3O6CYIULEJ0N7J7K9B3JM1PRBQGUW0,BA960FAF-D2E8-49FD-BD0C-64AC40233BD7,2023-09-28_12h35.32.591,WP_VExplicitOC_LH,2022.2.5,Win32,16.75827859,45.703125,4.8109,2.0125,NA,NA,NA,NA,NA,frustrated,"frustrated, not frustrated","more frustrated, less frustrated",NA,NA,NA,NA,NA,NA,NA,NA,NA,NA,NA,NA,NA,NA,NA,NA,NA,NA,NA,NA,NA,NA,NA,NA,NA,NA,NA,NA,NA,NA,NA,NA,NA,NA,NA,NA,NA,NA,0,0,0,1,1,NA,NA,NA,NA,NA
SUPAMT40282,3O6CYIULEJ0N7J7K9B3JM1PRBQGUW0,BA960FAF-D2E8-49FD-BD0C-64AC40233BD7,2023-09-28_12h35.32.591,WP_VExplicitOC_LH,2022.2.5,Win32,16.75827859,49.21875,3.611,2.0347,NA,NA,NA,NA,NA,happy,"unhappy, happy","less happy, more happy",NA,NA,NA,NA,NA,NA,NA,NA,NA,NA,NA,NA,NA,NA,NA,NA,NA,NA,NA,NA,NA,NA,NA,NA,NA,NA,NA,NA,NA,NA,NA,NA,NA,NA,NA,NA,NA,NA,0,1,1,0,1,NA,NA,NA,NA,NA
SUPAMT40282,3O6CYIULEJ0N7J7K9B3JM1PRBQGUW0,BA960FAF-D2E8-49FD-BD0C-64AC40233BD7,2023-09-28_12h35.32.591,WP_VExplicitOC_LH,2022.2.5,Win32,16.75827859,53.3203125,3.3917,2.0255,NA,NA,NA,NA,NA,bored,"bored, not bored","more bored, less bored",NA,NA,NA,NA,NA,NA,NA,NA,NA,NA,NA,NA,NA,NA,NA,NA,NA,NA,NA,NA,NA,NA,NA,NA,NA,NA,NA,NA,NA,NA,NA,NA,NA,NA,NA,NA,NA,NA,0,2,2,2,1,NA,NA,NA,NA,NA
SUPAMT40282,3O6CYIULEJ0N7J7K9B3JM1PRBQGUW0,BA960FAF-D2E8-49FD-BD0C-64AC40233BD7,2023-09-28_12h35.32.591,WP_VExplicitOC_LH,2022.2.5,Win32,16.75827859,NA,NA,NA,NA,NA,NA,NA,NA,NA,NA,NA,NA,NA,NA,NA,NA,NA,NA,NA,NA,NA,NA,NA,NA,NA,NA,NA,NA,NA,NA,NA,NA,NA,NA,NA,NA,NA,NA,NA,NA,NA,NA,NA,NA,NA,NA,NA,NA,NA,NA,NA,NA,NA,NA,2,0,2,0,1
SUPAMT40282,3O6CYIULEJ0N7J7K9B3JM1PRBQGUW0,BA960FAF-D2E8-49FD-BD0C-64AC40233BD7,2023-09-28_12h35.32.591,WP_VExplicitOC_LH,2022.2.5,Win32,16.75827859,86.1328125,5.0043,2.032,NA,NA,NA,NA,NA,happy,"unhappy, happy","less happy, more happy",NA,NA,NA,NA,NA,NA,NA,NA,NA,NA,NA,NA,NA,NA,NA,NA,NA,NA,NA,NA,NA,NA,NA,NA,NA,NA,NA,NA,NA,NA,NA,NA,NA,NA,NA,NA,NA,NA,0,0,0,0,1,NA,NA,NA,NA,NA
SUPAMT40282,3O6CYIULEJ0N7J7K9B3JM1PRBQGUW0,BA960FAF-D2E8-49FD-BD0C-64AC40233BD7,2023-09-28_12h35.32.591,WP_VExplicitOC_LH,2022.2.5,Win32,16.75827859,100,3.5536,2.0726,NA,NA,NA,NA,NA,frustrated,"frustrated, not frustrated","more frustrated, less frustrated",NA,NA,NA,NA,NA,NA,NA,NA,NA,NA,NA,NA,NA,NA,NA,NA,NA,NA,NA,NA,NA,NA,NA,NA,NA,NA,NA,NA,NA,NA,NA,NA,NA,NA,NA,NA,NA,NA,0,1,1,1,1,NA,NA,NA,NA,NA
SUPAMT40282,3O6CYIULEJ0N7J7K9B3JM1PRBQGUW0,BA960FAF-D2E8-49FD-BD0C-64AC40233BD7,2023-09-28_12h35.32.591,WP_VExplicitOC_LH,2022.2.5,Win32,16.75827859,100,3.9532,2.0727,NA,NA,NA,NA,NA,bored,"bored, not bored","more bored, less bored",NA,NA,NA,NA,NA,NA,NA,NA,NA,NA,NA,NA,NA,NA,NA,NA,NA,NA,NA,NA,NA,NA,NA,NA,NA,NA,NA,NA,NA,NA,NA,NA,NA,NA,NA,NA,NA,NA,0,2,2,2,1,NA,NA,NA,NA,NA
SUPAMT40282,3O6CYIULEJ0N7J7K9B3JM1PRBQGUW0,BA960FAF-D2E8-49FD-BD0C-64AC40233BD7,2023-09-28_12h35.32.591,WP_VExplicitOC_LH,2022.2.5,Win32,16.75827859,NA,NA,NA,NA,NA,NA,NA,NA,NA,NA,NA,NA,NA,NA,NA,NA,NA,NA,NA,NA,NA,NA,NA,NA,NA,NA,NA,NA,NA,NA,NA,NA,NA,NA,NA,NA,NA,NA,NA,NA,NA,NA,NA,NA,NA,NA,NA,NA,NA,NA,NA,NA,NA,NA,3,0,3,0,1
SUPAMT40282,3O6CYIULEJ0N7J7K9B3JM1PRBQGUW0,BA960FAF-D2E8-49FD-BD0C-64AC40233BD7,2023-09-28_12h35.32.591,WP_VExplicitOC_LH,2022.2.5,Win32,16.75827859,100,3.7796,2.0823,NA,NA,NA,NA,NA,happy,"unhappy, happy","less happy, more happy",NA,NA,NA,NA,NA,NA,NA,NA,NA,NA,NA,NA,NA,NA,NA,NA,NA,NA,NA,NA,NA,NA,NA,NA,NA,NA,NA,NA,NA,NA,NA,NA,NA,NA,NA,NA,NA,NA,0,0,0,0,1,NA,NA,NA,NA,NA
SUPAMT40282,3O6CYIULEJ0N7J7K9B3JM1PRBQGUW0,BA960FAF-D2E8-49FD-BD0C-64AC40233BD7,2023-09-28_12h35.32.591,WP_VExplicitOC_LH,2022.2.5,Win32,16.75827859,100,3.3035,2.0466,NA,NA,NA,NA,NA,bored,"bored, not bored","more bored, less bored",NA,NA,NA,NA,NA,NA,NA,NA,NA,NA,NA,NA,NA,NA,NA,NA,NA,NA,NA,NA,NA,NA,NA,NA,NA,NA,NA,NA,NA,NA,NA,NA,NA,NA,NA,NA,NA,NA,0,1,1,2,1,NA,NA,NA,NA,NA
SUPAMT40282,3O6CYIULEJ0N7J7K9B3JM1PRBQGUW0,BA960FAF-D2E8-49FD-BD0C-64AC40233BD7,2023-09-28_12h35.32.591,WP_VExplicitOC_LH,2022.2.5,Win32,16.75827859,100,3.7048,2.0137,NA,NA,NA,NA,NA,frustrated,"frustrated, not frustrated","more frustrated, less frustrated",NA,NA,NA,NA,NA,NA,NA,NA,NA,NA,NA,NA,NA,NA,NA,NA,NA,NA,NA,NA,NA,NA,NA,NA,NA,NA,NA,NA,NA,NA,NA,NA,NA,NA,NA,NA,NA,NA,0,2,2,1,1,NA,NA,NA,NA,NA
SUPAMT40282,3O6CYIULEJ0N7J7K9B3JM1PRBQGUW0,BA960FAF-D2E8-49FD-BD0C-64AC40233BD7,2023-09-28_12h35.32.591,WP_VExplicitOC_LH,2022.2.5,Win32,16.75827859,NA,NA,NA,NA,NA,NA,NA,NA,NA,NA,NA,NA,NA,NA,NA,NA,NA,NA,NA,NA,NA,NA,NA,NA,NA,NA,NA,NA,NA,NA,NA,NA,NA,NA,NA,NA,NA,NA,NA,NA,NA,NA,NA,NA,NA,NA,NA,NA,NA,NA,NA,NA,NA,NA,4,0,4,0,1
SUPAMT40282,3O6CYIULEJ0N7J7K9B3JM1PRBQGUW0,BA960FAF-D2E8-49FD-BD0C-64AC40233BD7,2023-09-28_12h35.32.591,WP_VExplicitOC_LH,2022.2.5,Win32,16.75827859,41.6015625,3.69,2.0058,NA,NA,NA,NA,NA,bored,"bored, not bored","more bored, less bored",NA,NA,NA,NA,NA,NA,NA,NA,NA,NA,NA,NA,NA,NA,NA,NA,NA,NA,NA,NA,NA,NA,NA,NA,NA,NA,NA,NA,NA,NA,NA,NA,NA,NA,NA,NA,NA,NA,0,0,0,2,1,NA,NA,NA,NA,NA
SUPAMT40282,3O6CYIULEJ0N7J7K9B3JM1PRBQGUW0,BA960FAF-D2E8-49FD-BD0C-64AC40233BD7,2023-09-28_12h35.32.591,WP_VExplicitOC_LH,2022.2.5,Win32,16.75827859,57.6171875,3.4608,2.0093,NA,NA,NA,NA,NA,frustrated,"frustrated, not frustrated","more frustrated, less frustrated",NA,NA,NA,NA,NA,NA,NA,NA,NA,NA,NA,NA,NA,NA,NA,NA,NA,NA,NA,NA,NA,NA,NA,NA,NA,NA,NA,NA,NA,NA,NA,NA,NA,NA,NA,NA,NA,NA,0,1,1,1,1,NA,NA,NA,NA,NA
SUPAMT40282,3O6CYIULEJ0N7J7K9B3JM1PRBQGUW0,BA960FAF-D2E8-49FD-BD0C-64AC40233BD7,2023-09-28_12h35.32.591,WP_VExplicitOC_LH,2022.2.5,Win32,16.75827859,76.953125,3.4331,2.0023,NA,NA,NA,NA,NA,happy,"unhappy, happy","less happy, more happy",NA,NA,NA,NA,NA,NA,NA,NA,NA,NA,NA,NA,NA,NA,NA,NA,NA,NA,NA,NA,NA,NA,NA,NA,NA,NA,NA,NA,NA,NA,NA,NA,NA,NA,NA,NA,NA,NA,0,2,2,0,1,NA,NA,NA,NA,NA
SUPAMT40282,3O6CYIULEJ0N7J7K9B3JM1PRBQGUW0,BA960FAF-D2E8-49FD-BD0C-64AC40233BD7,2023-09-28_12h35.32.591,WP_VExplicitOC_LH,2022.2.5,Win32,16.75827859,NA,NA,NA,NA,NA,NA,NA,NA,NA,NA,NA,NA,NA,NA,NA,NA,NA,NA,NA,NA,NA,NA,NA,NA,NA,NA,NA,NA,NA,NA,NA,NA,NA,NA,NA,NA,NA,NA,NA,NA,NA,NA,NA,NA,NA,NA,NA,NA,NA,NA,NA,NA,NA,NA,5,0,5,0,1
SUPAMT40282,3O6CYIULEJ0N7J7K9B3JM1PRBQGUW0,BA960FAF-D2E8-49FD-BD0C-64AC40233BD7,2023-09-28_12h35.32.591,WP_VExplicitOC_LH,2022.2.5,Win32,16.75827859,50.9765625,4.072,2.0783,NA,NA,NA,NA,NA,frustrated,"frustrated, not frustrated","more frustrated, less frustrated",NA,NA,NA,NA,NA,NA,NA,NA,NA,NA,NA,NA,NA,NA,NA,NA,NA,NA,NA,NA,NA,NA,NA,NA,NA,NA,NA,NA,NA,NA,NA,NA,NA,NA,NA,NA,NA,NA,0,0,0,1,1,NA,NA,NA,NA,NA
SUPAMT40282,3O6CYIULEJ0N7J7K9B3JM1PRBQGUW0,BA960FAF-D2E8-49FD-BD0C-64AC40233BD7,2023-09-28_12h35.32.591,WP_VExplicitOC_LH,2022.2.5,Win32,16.75827859,74.609375,3.361,2.0275,NA,NA,NA,NA,NA,bored,"bored, not bored","more bored, less bored",NA,NA,NA,NA,NA,NA,NA,NA,NA,NA,NA,NA,NA,NA,NA,NA,NA,NA,NA,NA,NA,NA,NA,NA,NA,NA,NA,NA,NA,NA,NA,NA,NA,NA,NA,NA,NA,NA,0,1,1,2,1,NA,NA,NA,NA,NA
SUPAMT40282,3O6CYIULEJ0N7J7K9B3JM1PRBQGUW0,BA960FAF-D2E8-49FD-BD0C-64AC40233BD7,2023-09-28_12h35.32.591,WP_VExplicitOC_LH,2022.2.5,Win32,16.75827859,73.046875,3.5673,2.0621,NA,NA,NA,NA,NA,happy,"unhappy, happy","less happy, more happy",NA,NA,NA,NA,NA,NA,NA,NA,NA,NA,NA,NA,NA,NA,NA,NA,NA,NA,NA,NA,NA,NA,NA,NA,NA,NA,NA,NA,NA,NA,NA,NA,NA,NA,NA,NA,NA,NA,0,2,2,0,1,NA,NA,NA,NA,NA
SUPAMT40282,3O6CYIULEJ0N7J7K9B3JM1PRBQGUW0,BA960FAF-D2E8-49FD-BD0C-64AC40233BD7,2023-09-28_12h35.32.591,WP_VExplicitOC_LH,2022.2.5,Win32,16.75827859,NA,NA,NA,NA,NA,NA,NA,NA,NA,NA,NA,NA,NA,NA,NA,NA,NA,NA,NA,NA,NA,NA,NA,NA,NA,NA,NA,NA,NA,NA,NA,NA,NA,NA,NA,NA,NA,NA,NA,NA,NA,NA,NA,NA,NA,NA,NA,NA,NA,NA,NA,NA,NA,NA,6,0,6,0,1
SUPAMT40282,3O6CYIULEJ0N7J7K9B3JM1PRBQGUW0,BA960FAF-D2E8-49FD-BD0C-64AC40233BD7,2023-09-28_12h35.32.591,WP_VExplicitOC_LH,2022.2.5,Win32,16.75827859,NA,NA,2.0559,NA,NA,NA,NA,NA,happy,"unhappy, happy","less happy, more happy",NA,NA,NA,NA,NA,NA,NA,NA,NA,NA,NA,NA,NA,NA,NA,NA,NA,NA,NA,NA,NA,NA,NA,NA,NA,NA,NA,NA,NA,NA,NA,NA,NA,NA,NA,NA,NA,NA,0,0,0,0,1,NA,NA,NA,NA,NA
SUPAMT40282,3O6CYIULEJ0N7J7K9B3JM1PRBQGUW0,BA960FAF-D2E8-49FD-BD0C-64AC40233BD7,2023-09-28_12h35.32.591,WP_VExplicitOC_LH,2022.2.5,Win32,16.75827859,69.7265625,6.615,2.0603,NA,NA,NA,NA,NA,frustrated,"frustrated, not frustrated","more frustrated, less frustrated",NA,NA,NA,NA,NA,NA,NA,NA,NA,NA,NA,NA,NA,NA,NA,NA,NA,NA,NA,NA,NA,NA,NA,NA,NA,NA,NA,NA,NA,NA,NA,NA,NA,NA,NA,NA,NA,NA,0,1,1,1,1,NA,NA,NA,NA,NA
SUPAMT40282,3O6CYIULEJ0N7J7K9B3JM1PRBQGUW0,BA960FAF-D2E8-49FD-BD0C-64AC40233BD7,2023-09-28_12h35.32.591,WP_VExplicitOC_LH,2022.2.5,Win32,16.75827859,64.0625,3.6517,2.0827,NA,NA,NA,NA,NA,bored,"bored, not bored","more bored, less bored",NA,NA,NA,NA,NA,NA,NA,NA,NA,NA,NA,NA,NA,NA,NA,NA,NA,NA,NA,NA,NA,NA,NA,NA,NA,NA,NA,NA,NA,NA,NA,NA,NA,NA,NA,NA,NA,NA,0,2,2,2,1,NA,NA,NA,NA,NA
SUPAMT40282,3O6CYIULEJ0N7J7K9B3JM1PRBQGUW0,BA960FAF-D2E8-49FD-BD0C-64AC40233BD7,2023-09-28_12h35.32.591,WP_VExplicitOC_LH,2022.2.5,Win32,16.75827859,NA,NA,NA,NA,NA,NA,NA,NA,NA,NA,NA,NA,NA,NA,NA,NA,NA,NA,NA,NA,NA,NA,NA,NA,NA,NA,NA,NA,NA,NA,NA,NA,NA,NA,NA,NA,NA,NA,NA,NA,NA,NA,NA,NA,NA,NA,NA,NA,NA,NA,NA,NA,NA,NA,7,0,7,0,1
SUPAMT40282,3O6CYIULEJ0N7J7K9B3JM1PRBQGUW0,BA960FAF-D2E8-49FD-BD0C-64AC40233BD7,2023-09-28_12h35.32.591,WP_VExplicitOC_LH,2022.2.5,Win32,16.75827859,72.4609375,3.9894,2.0695,NA,NA,NA,NA,NA,bored,"bored, not bored","more bored, less bored",NA,NA,NA,NA,NA,NA,NA,NA,NA,NA,NA,NA,NA,NA,NA,NA,NA,NA,NA,NA,NA,NA,NA,NA,NA,NA,NA,NA,NA,NA,NA,NA,NA,NA,NA,NA,NA,NA,0,0,0,2,1,NA,NA,NA,NA,NA
SUPAMT40282,3O6CYIULEJ0N7J7K9B3JM1PRBQGUW0,BA960FAF-D2E8-49FD-BD0C-64AC40233BD7,2023-09-28_12h35.32.591,WP_VExplicitOC_LH,2022.2.5,Win32,16.75827859,76.5625,3.5976,2.0538,NA,NA,NA,NA,NA,happy,"unhappy, happy","less happy, more happy",NA,NA,NA,NA,NA,NA,NA,NA,NA,NA,NA,NA,NA,NA,NA,NA,NA,NA,NA,NA,NA,NA,NA,NA,NA,NA,NA,NA,NA,NA,NA,NA,NA,NA,NA,NA,NA,NA,0,1,1,0,1,NA,NA,NA,NA,NA
SUPAMT40282,3O6CYIULEJ0N7J7K9B3JM1PRBQGUW0,BA960FAF-D2E8-49FD-BD0C-64AC40233BD7,2023-09-28_12h35.32.591,WP_VExplicitOC_LH,2022.2.5,Win32,16.75827859,56.8359375,3.4745,2.0165,NA,NA,NA,NA,NA,frustrated,"frustrated, not frustrated","more frustrated, less frustrated",NA,NA,NA,NA,NA,NA,NA,NA,NA,NA,NA,NA,NA,NA,NA,NA,NA,NA,NA,NA,NA,NA,NA,NA,NA,NA,NA,NA,NA,NA,NA,NA,NA,NA,NA,NA,NA,NA,0,2,2,1,1,NA,NA,NA,NA,NA
SUPAMT40282,3O6CYIULEJ0N7J7K9B3JM1PRBQGUW0,BA960FAF-D2E8-49FD-BD0C-64AC40233BD7,2023-09-28_12h35.32.591,WP_VExplicitOC_LH,2022.2.5,Win32,16.75827859,NA,NA,NA,NA,NA,NA,NA,NA,NA,NA,NA,NA,NA,NA,NA,NA,NA,NA,NA,NA,NA,NA,NA,NA,NA,NA,NA,NA,NA,NA,NA,NA,NA,NA,NA,NA,NA,NA,NA,NA,NA,NA,NA,NA,NA,NA,NA,NA,NA,NA,NA,NA,NA,NA,8,0,8,0,1
SUPAMT40282,3O6CYIULEJ0N7J7K9B3JM1PRBQGUW0,BA960FAF-D2E8-49FD-BD0C-64AC40233BD7,2023-09-28_12h35.32.591,WP_VExplicitOC_LH,2022.2.5,Win32,16.75827859,67.3828125,3.9163,2.0696,NA,NA,NA,NA,NA,happy,"unhappy, happy","less happy, more happy",NA,NA,NA,NA,NA,NA,NA,NA,NA,NA,NA,NA,NA,NA,NA,NA,NA,NA,NA,NA,NA,NA,NA,NA,NA,NA,NA,NA,NA,NA,NA,NA,NA,NA,NA,NA,NA,NA,0,0,0,0,1,NA,NA,NA,NA,NA
SUPAMT40282,3O6CYIULEJ0N7J7K9B3JM1PRBQGUW0,BA960FAF-D2E8-49FD-BD0C-64AC40233BD7,2023-09-28_12h35.32.591,WP_VExplicitOC_LH,2022.2.5,Win32,16.75827859,61.71875,3.2453,2.0335,NA,NA,NA,NA,NA,frustrated,"frustrated, not frustrated","more frustrated, less frustrated",NA,NA,NA,NA,NA,NA,NA,NA,NA,NA,NA,NA,NA,NA,NA,NA,NA,NA,NA,NA,NA,NA,NA,NA,NA,NA,NA,NA,NA,NA,NA,NA,NA,NA,NA,NA,NA,NA,0,1,1,1,1,NA,NA,NA,NA,NA
SUPAMT40282,3O6CYIULEJ0N7J7K9B3JM1PRBQGUW0,BA960FAF-D2E8-49FD-BD0C-64AC40233BD7,2023-09-28_12h35.32.591,WP_VExplicitOC_LH,2022.2.5,Win32,16.75827859,78.125,3.3587,2.0765,NA,NA,NA,NA,NA,bored,"bored, not bored","more bored, less bored",NA,NA,NA,NA,NA,NA,NA,NA,NA,NA,NA,NA,NA,NA,NA,NA,NA,NA,NA,NA,NA,NA,NA,NA,NA,NA,NA,NA,NA,NA,NA,NA,NA,NA,NA,NA,NA,NA,0,2,2,2,1,NA,NA,NA,NA,NA
SUPAMT40282,3O6CYIULEJ0N7J7K9B3JM1PRBQGUW0,BA960FAF-D2E8-49FD-BD0C-64AC40233BD7,2023-09-28_12h35.32.591,WP_VExplicitOC_LH,2022.2.5,Win32,16.75827859,NA,NA,NA,NA,NA,NA,NA,NA,NA,NA,NA,NA,NA,NA,NA,NA,NA,NA,NA,NA,NA,NA,NA,NA,NA,NA,NA,NA,NA,NA,NA,NA,NA,NA,NA,NA,NA,NA,NA,NA,NA,NA,NA,NA,NA,NA,NA,NA,NA,NA,NA,NA,NA,NA,9,0,9,0,1
SUPAMT40282,3O6CYIULEJ0N7J7K9B3JM1PRBQGUW0,BA960FAF-D2E8-49FD-BD0C-64AC40233BD7,2023-09-28_12h35.32.591,WP_VExplicitOC_LH,2022.2.5,Win32,16.75827859,NA,NA,2.0502,NA,NA,NA,NA,NA,frustrated,"frustrated, not frustrated","more frustrated, less frustrated",NA,NA,NA,NA,NA,NA,NA,NA,NA,NA,NA,NA,NA,NA,NA,NA,NA,NA,NA,NA,NA,NA,NA,NA,NA,NA,NA,NA,NA,NA,NA,NA,NA,NA,NA,NA,NA,NA,0,0,0,1,1,NA,NA,NA,NA,NA
SUPAMT40282,3O6CYIULEJ0N7J7K9B3JM1PRBQGUW0,BA960FAF-D2E8-49FD-BD0C-64AC40233BD7,2023-09-28_12h35.32.591,WP_VExplicitOC_LH,2022.2.5,Win32,16.75827859,NA,NA,2.0109,NA,NA,NA,NA,NA,bored,"bored, not bored","more bored, less bored",NA,NA,NA,NA,NA,NA,NA,NA,NA,NA,NA,NA,NA,NA,NA,NA,NA,NA,NA,NA,NA,NA,NA,NA,NA,NA,NA,NA,NA,NA,NA,NA,NA,NA,NA,NA,NA,NA,0,1,1,2,1,NA,NA,NA,NA,NA
SUPAMT40282,3O6CYIULEJ0N7J7K9B3JM1PRBQGUW0,BA960FAF-D2E8-49FD-BD0C-64AC40233BD7,2023-09-28_12h35.32.591,WP_VExplicitOC_LH,2022.2.5,Win32,16.75827859,NA,NA,2.004,NA,NA,NA,NA,NA,happy,"unhappy, happy","less happy, more happy",NA,NA,NA,NA,NA,NA,NA,NA,NA,NA,NA,NA,NA,NA,NA,NA,NA,NA,NA,NA,NA,NA,NA,NA,NA,NA,NA,NA,NA,NA,NA,NA,NA,NA,NA,NA,NA,NA,0,2,2,0,1,NA,NA,NA,NA,NA
SUPAMT40282,3O6CYIULEJ0N7J7K9B3JM1PRBQGUW0,BA960FAF-D2E8-49FD-BD0C-64AC40233BD7,2023-09-28_12h35.32.591,WP_VExplicitOC_LH,2022.2.5,Win32,16.75827859,NA,NA,NA,NA,NA,NA,NA,NA,NA,NA,NA,NA,NA,NA,NA,NA,NA,NA,NA,NA,NA,NA,NA,NA,NA,NA,NA,NA,NA,NA,NA,NA,NA,NA,NA,NA,NA,NA,NA,NA,NA,NA,NA,NA,NA,NA,NA,NA,NA,NA,NA,NA,NA,NA,10,0,10,0,1
SUPAMT40282,3O6CYIULEJ0N7J7K9B3JM1PRBQGUW0,BA960FAF-D2E8-49FD-BD0C-64AC40233BD7,2023-09-28_12h35.32.591,WP_VExplicitOC_LH,2022.2.5,Win32,16.75827859,57.2265625,3.591,2.0889,NA,NA,NA,NA,NA,happy,"unhappy, happy","less happy, more happy",NA,NA,NA,NA,NA,NA,NA,NA,NA,NA,NA,NA,NA,NA,NA,NA,NA,NA,NA,NA,NA,NA,NA,NA,NA,NA,NA,NA,NA,NA,NA,NA,NA,NA,NA,NA,NA,NA,0,0,0,0,1,NA,NA,NA,NA,NA
SUPAMT40282,3O6CYIULEJ0N7J7K9B3JM1PRBQGUW0,BA960FAF-D2E8-49FD-BD0C-64AC40233BD7,2023-09-28_12h35.32.591,WP_VExplicitOC_LH,2022.2.5,Win32,16.75827859,-34.375,4.3799,2.081,NA,NA,NA,NA,NA,frustrated,"frustrated, not frustrated","more frustrated, less frustrated",NA,NA,NA,NA,NA,NA,NA,NA,NA,NA,NA,NA,NA,NA,NA,NA,NA,NA,NA,NA,NA,NA,NA,NA,NA,NA,NA,NA,NA,NA,NA,NA,NA,NA,NA,NA,NA,NA,0,1,1,1,1,NA,NA,NA,NA,NA
SUPAMT40282,3O6CYIULEJ0N7J7K9B3JM1PRBQGUW0,BA960FAF-D2E8-49FD-BD0C-64AC40233BD7,2023-09-28_12h35.32.591,WP_VExplicitOC_LH,2022.2.5,Win32,16.75827859,49.0234375,4.0915,2.0818,NA,NA,NA,NA,NA,bored,"bored, not bored","more bored, less bored",NA,NA,NA,NA,NA,NA,NA,NA,NA,NA,NA,NA,NA,NA,NA,NA,NA,NA,NA,NA,NA,NA,NA,NA,NA,NA,NA,NA,NA,NA,NA,NA,NA,NA,NA,NA,NA,NA,0,2,2,2,1,NA,NA,NA,NA,NA
SUPAMT40282,3O6CYIULEJ0N7J7K9B3JM1PRBQGUW0,BA960FAF-D2E8-49FD-BD0C-64AC40233BD7,2023-09-28_12h35.32.591,WP_VExplicitOC_LH,2022.2.5,Win32,16.75827859,NA,NA,NA,NA,NA,NA,NA,NA,NA,NA,NA,NA,NA,NA,NA,NA,NA,NA,NA,NA,NA,NA,NA,NA,NA,NA,NA,NA,NA,NA,NA,NA,NA,NA,NA,NA,NA,NA,NA,NA,NA,NA,NA,NA,NA,NA,NA,NA,NA,NA,NA,NA,NA,NA,11,0,11,0,1
SUPAMT40282,3O6CYIULEJ0N7J7K9B3JM1PRBQGUW0,BA960FAF-D2E8-49FD-BD0C-64AC40233BD7,2023-09-28_12h35.32.591,WP_VExplicitOC_LH,2022.2.5,Win32,16.75827859,29.1015625,5.2579,2.0507,NA,NA,NA,NA,NA,bored,"bored, not bored","more bored, less bored",NA,NA,NA,NA,NA,NA,NA,NA,NA,NA,NA,NA,NA,NA,NA,NA,NA,NA,NA,NA,NA,NA,NA,NA,NA,NA,NA,NA,NA,NA,NA,NA,NA,NA,NA,NA,NA,NA,0,0,0,2,1,NA,NA,NA,NA,NA
SUPAMT40282,3O6CYIULEJ0N7J7K9B3JM1PRBQGUW0,BA960FAF-D2E8-49FD-BD0C-64AC40233BD7,2023-09-28_12h35.32.591,WP_VExplicitOC_LH,2022.2.5,Win32,16.75827859,30.46875,3.613,2.0508,NA,NA,NA,NA,NA,frustrated,"frustrated, not frustrated","more frustrated, less frustrated",NA,NA,NA,NA,NA,NA,NA,NA,NA,NA,NA,NA,NA,NA,NA,NA,NA,NA,NA,NA,NA,NA,NA,NA,NA,NA,NA,NA,NA,NA,NA,NA,NA,NA,NA,NA,NA,NA,0,1,1,1,1,NA,NA,NA,NA,NA
SUPAMT40282,3O6CYIULEJ0N7J7K9B3JM1PRBQGUW0,BA960FAF-D2E8-49FD-BD0C-64AC40233BD7,2023-09-28_12h35.32.591,WP_VExplicitOC_LH,2022.2.5,Win32,16.75827859,33.984375,3.5496,2.0351,NA,NA,NA,NA,NA,happy,"unhappy, happy","less happy, more happy",NA,NA,NA,NA,NA,NA,NA,NA,NA,NA,NA,NA,NA,NA,NA,NA,NA,NA,NA,NA,NA,NA,NA,NA,NA,NA,NA,NA,NA,NA,NA,NA,NA,NA,NA,NA,NA,NA,0,2,2,0,1,NA,NA,NA,NA,NA
SUPAMT40282,3O6CYIULEJ0N7J7K9B3JM1PRBQGUW0,BA960FAF-D2E8-49FD-BD0C-64AC40233BD7,2023-09-28_12h35.32.591,WP_VExplicitOC_LH,2022.2.5,Win32,16.75827859,NA,NA,NA,NA,NA,NA,NA,NA,NA,NA,NA,NA,NA,NA,NA,NA,NA,NA,NA,NA,NA,NA,NA,NA,NA,NA,NA,NA,NA,NA,NA,NA,NA,NA,NA,NA,NA,NA,NA,NA,NA,NA,NA,NA,NA,NA,NA,NA,NA,NA,NA,NA,NA,NA,12,0,12,0,1
SUPAMT40282,3O6CYIULEJ0N7J7K9B3JM1PRBQGUW0,BA960FAF-D2E8-49FD-BD0C-64AC40233BD7,2023-09-28_12h35.32.591,WP_VExplicitOC_LH,2022.2.5,Win32,16.75827859,57.6171875,5.8783,2.0017,NA,NA,NA,NA,NA,frustrated,"frustrated, not frustrated","more frustrated, less frustrated",NA,NA,NA,NA,NA,NA,NA,NA,NA,NA,NA,NA,NA,NA,NA,NA,NA,NA,NA,NA,NA,NA,NA,NA,NA,NA,NA,NA,NA,NA,NA,NA,NA,NA,NA,NA,NA,NA,0,0,0,1,1,NA,NA,NA,NA,NA
SUPAMT40282,3O6CYIULEJ0N7J7K9B3JM1PRBQGUW0,BA960FAF-D2E8-49FD-BD0C-64AC40233BD7,2023-09-28_12h35.32.591,WP_VExplicitOC_LH,2022.2.5,Win32,16.75827859,87.890625,3.5577,2.0033,NA,NA,NA,NA,NA,bored,"bored, not bored","more bored, less bored",NA,NA,NA,NA,NA,NA,NA,NA,NA,NA,NA,NA,NA,NA,NA,NA,NA,NA,NA,NA,NA,NA,NA,NA,NA,NA,NA,NA,NA,NA,NA,NA,NA,NA,NA,NA,NA,NA,0,1,1,2,1,NA,NA,NA,NA,NA
SUPAMT40282,3O6CYIULEJ0N7J7K9B3JM1PRBQGUW0,BA960FAF-D2E8-49FD-BD0C-64AC40233BD7,2023-09-28_12h35.32.591,WP_VExplicitOC_LH,2022.2.5,Win32,16.75827859,99.4140625,3.354,2.0677,NA,NA,NA,NA,NA,happy,"unhappy, happy","less happy, more happy",NA,NA,NA,NA,NA,NA,NA,NA,NA,NA,NA,NA,NA,NA,NA,NA,NA,NA,NA,NA,NA,NA,NA,NA,NA,NA,NA,NA,NA,NA,NA,NA,NA,NA,NA,NA,NA,NA,0,2,2,0,1,NA,NA,NA,NA,NA
SUPAMT40282,3O6CYIULEJ0N7J7K9B3JM1PRBQGUW0,BA960FAF-D2E8-49FD-BD0C-64AC40233BD7,2023-09-28_12h35.32.591,WP_VExplicitOC_LH,2022.2.5,Win32,16.75827859,NA,NA,NA,NA,NA,NA,NA,NA,NA,NA,NA,NA,NA,NA,NA,NA,NA,NA,NA,NA,NA,NA,NA,NA,NA,NA,NA,NA,NA,NA,NA,NA,NA,NA,NA,NA,NA,NA,NA,NA,NA,NA,NA,NA,NA,NA,NA,NA,NA,NA,NA,NA,NA,NA,13,0,13,0,1
SUPAMT40282,3O6CYIULEJ0N7J7K9B3JM1PRBQGUW0,BA960FAF-D2E8-49FD-BD0C-64AC40233BD7,2023-09-28_12h35.32.591,WP_VExplicitOC_LH,2022.2.5,Win32,16.75827859,98.6328125,3.7601,2.0318,NA,NA,NA,NA,NA,happy,"unhappy, happy","less happy, more happy",NA,NA,NA,NA,NA,NA,NA,NA,NA,NA,NA,NA,NA,NA,NA,NA,NA,NA,NA,NA,NA,NA,NA,NA,NA,NA,NA,NA,NA,NA,NA,NA,NA,NA,NA,NA,NA,NA,0,0,0,0,1,NA,NA,NA,NA,NA
SUPAMT40282,3O6CYIULEJ0N7J7K9B3JM1PRBQGUW0,BA960FAF-D2E8-49FD-BD0C-64AC40233BD7,2023-09-28_12h35.32.591,WP_VExplicitOC_LH,2022.2.5,Win32,16.75827859,77.5390625,4.1276,2.0666,NA,NA,NA,NA,NA,frustrated,"frustrated, not frustrated","more frustrated, less frustrated",NA,NA,NA,NA,NA,NA,NA,NA,NA,NA,NA,NA,NA,NA,NA,NA,NA,NA,NA,NA,NA,NA,NA,NA,NA,NA,NA,NA,NA,NA,NA,NA,NA,NA,NA,NA,NA,NA,0,1,1,1,1,NA,NA,NA,NA,NA
SUPAMT40282,3O6CYIULEJ0N7J7K9B3JM1PRBQGUW0,BA960FAF-D2E8-49FD-BD0C-64AC40233BD7,2023-09-28_12h35.32.591,WP_VExplicitOC_LH,2022.2.5,Win32,16.75827859,96.484375,3.943,2.0182,NA,NA,NA,NA,NA,bored,"bored, not bored","more bored, less bored",NA,NA,NA,NA,NA,NA,NA,NA,NA,NA,NA,NA,NA,NA,NA,NA,NA,NA,NA,NA,NA,NA,NA,NA,NA,NA,NA,NA,NA,NA,NA,NA,NA,NA,NA,NA,NA,NA,0,2,2,2,1,NA,NA,NA,NA,NA
SUPAMT40282,3O6CYIULEJ0N7J7K9B3JM1PRBQGUW0,BA960FAF-D2E8-49FD-BD0C-64AC40233BD7,2023-09-28_12h35.32.591,WP_VExplicitOC_LH,2022.2.5,Win32,16.75827859,NA,NA,NA,NA,NA,NA,NA,NA,NA,NA,NA,NA,NA,NA,NA,NA,NA,NA,NA,NA,NA,NA,NA,NA,NA,NA,NA,NA,NA,NA,NA,NA,NA,NA,NA,NA,NA,NA,NA,NA,NA,NA,NA,NA,NA,NA,NA,NA,NA,NA,NA,NA,NA,NA,14,0,14,0,1
SUPAMT40282,3O6CYIULEJ0N7J7K9B3JM1PRBQGUW0,BA960FAF-D2E8-49FD-BD0C-64AC40233BD7,2023-09-28_12h35.32.591,WP_VExplicitOC_LH,2022.2.5,Win32,16.75827859,NA,NA,NA,NA,NA,NA,NA,NA,NA,NA,NA,NA,NA,NA,NA,NA,NA,NA,NA,NA,NA,NA,NA,NA,NA,NA,NA,NA,NA,NA,NA,NA,NA,NA,NA,NA,NA,NA,NA,NA,NA,NA,NA,NA,NA,NA,NA,NA,NA,NA,NA,NA,NA,NA,NA,NA,NA,NA,NA
