participant,session,completion,date,expName,psychopyVersion,OS,frameRate,rating_all.response,rating_all.rt,rating_all.tStart,rndRat1.thisRepN,rndRat1.thisTrialN,rndRat1.thisN,rndRat1.thisIndex,rndRat1.ran,Emo,Labs,Labs2,rating_alt.response,rating_alt.rt,AltC.thisRepN,AltC.thisTrialN,AltC.thisN,AltC.thisIndex,AltC.ran,alt_choices,pic_choices,TopAlt_Choice,rndRat2.thisRepN,rndRat2.thisTrialN,rndRat2.thisN,rndRat2.thisIndex,rndRat2.ran,rndRat3.thisRepN,rndRat3.thisTrialN,rndRat3.thisN,rndRat3.thisIndex,rndRat3.ran,trials_FC_H.thisRepN,trials_FC_H.thisTrialN,trials_FC_H.thisN,trials_FC_H.thisIndex,trials_FC_H.ran,rating_alt_2.response,rating_alt_2.rt,AltC2.thisRepN,AltC2.thisTrialN,AltC2.thisN,AltC2.thisIndex,AltC2.ran,BottomAlt_Choice,rndRat4.thisRepN,rndRat4.thisTrialN,rndRat4.thisN,rndRat4.thisIndex,rndRat4.ran,rndRat5.thisRepN,rndRat5.thisTrialN,rndRat5.thisN,rndRat5.thisIndex,rndRat5.ran,trials_FC_L.thisRepN,trials_FC_L.thisTrialN,trials_FC_L.thisN,trials_FC_L.thisIndex,trials_FC_L.ran
SUPAMT30004,3MMN5BL1W5373D0NQP1VQUX003BM36,B71E337D-1E59-462B-84C0-838B0D523BDD,2023-09-27_07h30.46.452,WP_VExplicitOC_HL,2022.2.5,Win32,6.357036604,NA,NA,NA,NA,NA,NA,NA,NA,NA,NA,NA,NA,NA,NA,NA,NA,NA,NA,NA,NA,NA,NA,NA,NA,NA,NA,NA,NA,NA,NA,NA,NA,NA,NA,NA,NA,NA,NA,NA,NA,NA,NA,NA,NA,NA,NA,NA,NA,NA,NA,NA,NA,NA,NA,NA,NA,NA,NA,NA
SUPAMT30004,3MMN5BL1W5373D0NQP1VQUX003BM36,B71E337D-1E59-462B-84C0-838B0D523BDD,2023-09-27_07h30.46.452,WP_VExplicitOC_HL,2022.2.5,Win32,6.357036604,NA,NA,NA,NA,NA,NA,NA,NA,NA,NA,NA,NA,NA,NA,NA,NA,NA,NA,NA,NA,NA,NA,NA,NA,NA,NA,NA,NA,NA,NA,NA,NA,NA,NA,NA,NA,NA,NA,NA,NA,NA,NA,NA,NA,NA,NA,NA,NA,NA,NA,NA,NA,NA,NA,NA,NA,NA,NA,NA
SUPAMT30004,3MMN5BL1W5373D0NQP1VQUX003BM36,B71E337D-1E59-462B-84C0-838B0D523BDD,2023-09-27_07h30.46.452,WP_VExplicitOC_HL,2022.2.5,Win32,6.357036604,NA,NA,NA,NA,NA,NA,NA,NA,NA,NA,NA,NA,NA,NA,NA,NA,NA,NA,NA,NA,NA,NA,NA,NA,NA,NA,NA,NA,NA,NA,NA,NA,NA,NA,NA,NA,NA,NA,NA,NA,NA,NA,NA,NA,NA,NA,NA,NA,NA,NA,NA,NA,NA,NA,NA,NA,NA,NA,NA
SUPAMT30004,3MMN5BL1W5373D0NQP1VQUX003BM36,B71E337D-1E59-462B-84C0-838B0D523BDD,2023-09-27_07h30.46.452,WP_VExplicitOC_HL,2022.2.5,Win32,6.357036604,-35.3515625,4.7517,2.139299999,0,0,0,1,1,frustrated,"frustrated, not frustrated","more frustrated, less frustrated",NA,NA,NA,NA,NA,NA,NA,NA,NA,NA,NA,NA,NA,NA,NA,NA,NA,NA,NA,NA,NA,NA,NA,NA,NA,NA,NA,NA,NA,NA,NA,NA,NA,NA,NA,NA,NA,NA,NA,NA,NA,NA,NA,NA,NA,NA,NA,NA
SUPAMT30004,3MMN5BL1W5373D0NQP1VQUX003BM36,B71E337D-1E59-462B-84C0-838B0D523BDD,2023-09-27_07h30.46.452,WP_VExplicitOC_HL,2022.2.5,Win32,6.357036604,58.3984375,3.8028,2.0553,0,1,1,0,1,happy,"unhappy, happy","less happy, more happy",NA,NA,NA,NA,NA,NA,NA,NA,NA,NA,NA,NA,NA,NA,NA,NA,NA,NA,NA,NA,NA,NA,NA,NA,NA,NA,NA,NA,NA,NA,NA,NA,NA,NA,NA,NA,NA,NA,NA,NA,NA,NA,NA,NA,NA,NA,NA,NA
SUPAMT30004,3MMN5BL1W5373D0NQP1VQUX003BM36,B71E337D-1E59-462B-84C0-838B0D523BDD,2023-09-27_07h30.46.452,WP_VExplicitOC_HL,2022.2.5,Win32,6.357036604,-58.203125,4.3518,2.0704,0,2,2,2,1,bored,"bored, not bored","more bored, less bored",NA,NA,NA,NA,NA,NA,NA,NA,NA,NA,NA,NA,NA,NA,NA,NA,NA,NA,NA,NA,NA,NA,NA,NA,NA,NA,NA,NA,NA,NA,NA,NA,NA,NA,NA,NA,NA,NA,NA,NA,NA,NA,NA,NA,NA,NA,NA,NA
SUPAMT30004,3MMN5BL1W5373D0NQP1VQUX003BM36,B71E337D-1E59-462B-84C0-838B0D523BDD,2023-09-27_07h30.46.452,WP_VExplicitOC_HL,2022.2.5,Win32,6.357036604,NA,NA,NA,NA,NA,NA,NA,NA,NA,NA,NA,NA,NA,NA,NA,NA,NA,NA,NA,NA,NA,NA,NA,NA,NA,NA,NA,NA,NA,NA,NA,NA,NA,NA,NA,NA,NA,NA,NA,NA,NA,NA,NA,NA,NA,NA,NA,NA,NA,NA,NA,NA,NA,NA,NA,NA,NA,NA,NA
SUPAMT30004,3MMN5BL1W5373D0NQP1VQUX003BM36,B71E337D-1E59-462B-84C0-838B0D523BDD,2023-09-27_07h30.46.452,WP_VExplicitOC_HL,2022.2.5,Win32,6.357036604,NA,NA,NA,NA,NA,NA,NA,NA,NA,NA,NA,NA,NA,NA,NA,NA,NA,NA,NA,NA,NA,NA,NA,NA,NA,NA,NA,NA,NA,NA,NA,NA,NA,NA,NA,NA,NA,NA,NA,NA,NA,NA,NA,NA,NA,NA,NA,NA,NA,NA,NA,NA,NA,NA,NA,NA,NA,NA,NA
SUPAMT30004,3MMN5BL1W5373D0NQP1VQUX003BM36,B71E337D-1E59-462B-84C0-838B0D523BDD,2023-09-27_07h30.46.452,WP_VExplicitOC_HL,2022.2.5,Win32,6.357036604,NA,NA,NA,NA,NA,NA,NA,NA,NA,NA,NA,NA,NA,NA,NA,NA,NA,NA,NA,NA,NA,NA,NA,NA,NA,NA,NA,NA,NA,NA,NA,NA,NA,NA,NA,NA,NA,NA,NA,NA,NA,NA,NA,NA,NA,NA,NA,NA,NA,NA,NA,NA,NA,NA,NA,NA,NA,NA,NA
SUPAMT30004,3MMN5BL1W5373D0NQP1VQUX003BM36,B71E337D-1E59-462B-84C0-838B0D523BDD,2023-09-27_07h30.46.452,WP_VExplicitOC_HL,2022.2.5,Win32,6.357036604,NA,NA,NA,NA,NA,NA,NA,NA,NA,NA,NA,NA,NA,NA,NA,NA,NA,NA,NA,NA,NA,NA,NA,NA,NA,NA,NA,NA,NA,NA,NA,NA,NA,NA,NA,NA,NA,NA,NA,NA,NA,NA,NA,NA,NA,NA,NA,NA,NA,NA,NA,NA,NA,NA,NA,NA,NA,NA,NA
SUPAMT30004,3MMN5BL1W5373D0NQP1VQUX003BM36,B71E337D-1E59-462B-84C0-838B0D523BDD,2023-09-27_07h30.46.452,WP_VExplicitOC_HL,2022.2.5,Win32,6.357036604,NA,NA,NA,NA,NA,NA,NA,NA,NA,NA,NA,64.0625,5.7547,0,0,0,0,1,rest (looking at a fixed cross),001.png,NA,NA,NA,NA,NA,NA,NA,NA,NA,NA,NA,NA,NA,NA,NA,NA,NA,NA,NA,NA,NA,NA,NA,NA,NA,NA,NA,NA,NA,NA,NA,NA,NA,NA,NA,NA,NA,NA,NA
SUPAMT30004,3MMN5BL1W5373D0NQP1VQUX003BM36,B71E337D-1E59-462B-84C0-838B0D523BDD,2023-09-27_07h30.46.452,WP_VExplicitOC_HL,2022.2.5,Win32,6.357036604,NA,NA,NA,NA,NA,NA,NA,NA,NA,NA,NA,68.359375,3.801,0,1,1,1,1,stand up,002.png,NA,NA,NA,NA,NA,NA,NA,NA,NA,NA,NA,NA,NA,NA,NA,NA,NA,NA,NA,NA,NA,NA,NA,NA,NA,NA,NA,NA,NA,NA,NA,NA,NA,NA,NA,NA,NA,NA,NA
SUPAMT30004,3MMN5BL1W5373D0NQP1VQUX003BM36,B71E337D-1E59-462B-84C0-838B0D523BDD,2023-09-27_07h30.46.452,WP_VExplicitOC_HL,2022.2.5,Win32,6.357036604,NA,NA,NA,NA,NA,NA,NA,NA,NA,NA,NA,79.296875,2.3722,0,2,2,2,1,stretch,003.png,NA,NA,NA,NA,NA,NA,NA,NA,NA,NA,NA,NA,NA,NA,NA,NA,NA,NA,NA,NA,NA,NA,NA,NA,NA,NA,NA,NA,NA,NA,NA,NA,NA,NA,NA,NA,NA,NA,NA
SUPAMT30004,3MMN5BL1W5373D0NQP1VQUX003BM36,B71E337D-1E59-462B-84C0-838B0D523BDD,2023-09-27_07h30.46.452,WP_VExplicitOC_HL,2022.2.5,Win32,6.357036604,NA,NA,NA,NA,NA,NA,NA,NA,NA,NA,NA,79.4921875,0.582900001,0,3,3,3,1,make a drink,004.png,NA,NA,NA,NA,NA,NA,NA,NA,NA,NA,NA,NA,NA,NA,NA,NA,NA,NA,NA,NA,NA,NA,NA,NA,NA,NA,NA,NA,NA,NA,NA,NA,NA,NA,NA,NA,NA,NA,NA
SUPAMT30004,3MMN5BL1W5373D0NQP1VQUX003BM36,B71E337D-1E59-462B-84C0-838B0D523BDD,2023-09-27_07h30.46.452,WP_VExplicitOC_HL,2022.2.5,Win32,6.357036604,NA,NA,NA,NA,NA,NA,NA,NA,NA,NA,NA,44.140625,2.3439,0,4,4,4,1,scroll social media,005.png,NA,NA,NA,NA,NA,NA,NA,NA,NA,NA,NA,NA,NA,NA,NA,NA,NA,NA,NA,NA,NA,NA,NA,NA,NA,NA,NA,NA,NA,NA,NA,NA,NA,NA,NA,NA,NA,NA,NA
SUPAMT30004,3MMN5BL1W5373D0NQP1VQUX003BM36,B71E337D-1E59-462B-84C0-838B0D523BDD,2023-09-27_07h30.46.452,WP_VExplicitOC_HL,2022.2.5,Win32,6.357036604,NA,NA,NA,NA,NA,NA,NA,NA,NA,NA,NA,44.7265625,0.6699,0,5,5,5,1,listen to music,006.png,NA,NA,NA,NA,NA,NA,NA,NA,NA,NA,NA,NA,NA,NA,NA,NA,NA,NA,NA,NA,NA,NA,NA,NA,NA,NA,NA,NA,NA,NA,NA,NA,NA,NA,NA,NA,NA,NA,NA
SUPAMT30004,3MMN5BL1W5373D0NQP1VQUX003BM36,B71E337D-1E59-462B-84C0-838B0D523BDD,2023-09-27_07h30.46.452,WP_VExplicitOC_HL,2022.2.5,Win32,6.357036604,NA,NA,NA,NA,NA,NA,NA,NA,NA,NA,NA,-38.8671875,4.0624,0,6,6,6,1,daydream,007.png,NA,NA,NA,NA,NA,NA,NA,NA,NA,NA,NA,NA,NA,NA,NA,NA,NA,NA,NA,NA,NA,NA,NA,NA,NA,NA,NA,NA,NA,NA,NA,NA,NA,NA,NA,NA,NA,NA,NA
SUPAMT30004,3MMN5BL1W5373D0NQP1VQUX003BM36,B71E337D-1E59-462B-84C0-838B0D523BDD,2023-09-27_07h30.46.452,WP_VExplicitOC_HL,2022.2.5,Win32,6.357036604,NA,NA,NA,NA,NA,NA,NA,NA,NA,NA,NA,45.1171875,1.9207,0,7,7,7,1,watch a short animation,008.png,NA,NA,NA,NA,NA,NA,NA,NA,NA,NA,NA,NA,NA,NA,NA,NA,NA,NA,NA,NA,NA,NA,NA,NA,NA,NA,NA,NA,NA,NA,NA,NA,NA,NA,NA,NA,NA,NA,NA
SUPAMT30004,3MMN5BL1W5373D0NQP1VQUX003BM36,B71E337D-1E59-462B-84C0-838B0D523BDD,2023-09-27_07h30.46.452,WP_VExplicitOC_HL,2022.2.5,Win32,6.357036604,NA,NA,NA,NA,NA,NA,NA,NA,NA,NA,NA,49.21875,1.7385,0,8,8,8,1,read a novel,009.png,NA,NA,NA,NA,NA,NA,NA,NA,NA,NA,NA,NA,NA,NA,NA,NA,NA,NA,NA,NA,NA,NA,NA,NA,NA,NA,NA,NA,NA,NA,NA,NA,NA,NA,NA,NA,NA,NA,NA
SUPAMT30004,3MMN5BL1W5373D0NQP1VQUX003BM36,B71E337D-1E59-462B-84C0-838B0D523BDD,2023-09-27_07h30.46.452,WP_VExplicitOC_HL,2022.2.5,Win32,6.357036604,NA,NA,NA,NA,NA,NA,NA,NA,NA,NA,NA,49.21875,1.550400001,0,9,9,9,1,read the news,010.png,NA,NA,NA,NA,NA,NA,NA,NA,NA,NA,NA,NA,NA,NA,NA,NA,NA,NA,NA,NA,NA,NA,NA,NA,NA,NA,NA,NA,NA,NA,NA,NA,NA,NA,NA,NA,NA,NA,NA
SUPAMT30004,3MMN5BL1W5373D0NQP1VQUX003BM36,B71E337D-1E59-462B-84C0-838B0D523BDD,2023-09-27_07h30.46.452,WP_VExplicitOC_HL,2022.2.5,Win32,6.357036604,NA,NA,NA,NA,NA,NA,NA,NA,NA,NA,NA,NA,NA,NA,NA,NA,NA,NA,NA,NA,NA,NA,NA,NA,NA,NA,NA,NA,NA,NA,NA,NA,NA,NA,NA,NA,NA,NA,NA,NA,NA,NA,NA,NA,NA,NA,NA,NA,NA,NA,NA,NA,NA,NA,NA,NA,NA,NA,NA
SUPAMT30004,3MMN5BL1W5373D0NQP1VQUX003BM36,B71E337D-1E59-462B-84C0-838B0D523BDD,2023-09-27_07h30.46.452,WP_VExplicitOC_HL,2022.2.5,Win32,6.357036604,NA,NA,NA,NA,NA,NA,NA,NA,NA,NA,NA,NA,NA,NA,NA,NA,NA,NA,NA,NA,make a drink,NA,NA,NA,NA,NA,NA,NA,NA,NA,NA,NA,NA,NA,NA,NA,NA,NA,NA,NA,NA,NA,NA,NA,NA,NA,NA,NA,NA,NA,NA,NA,NA,NA,NA,NA,NA,NA,NA
SUPAMT30004,3MMN5BL1W5373D0NQP1VQUX003BM36,B71E337D-1E59-462B-84C0-838B0D523BDD,2023-09-27_07h30.46.452,WP_VExplicitOC_HL,2022.2.5,Win32,6.357036604,63.8671875,5.2903,2.0256,NA,NA,NA,NA,NA,happy,"unhappy, happy","less happy, more happy",NA,NA,NA,NA,NA,NA,NA,NA,NA,NA,0,0,0,0,1,NA,NA,NA,NA,NA,NA,NA,NA,NA,NA,NA,NA,NA,NA,NA,NA,NA,NA,NA,NA,NA,NA,NA,NA,NA,NA,NA,NA,NA,NA,NA,NA,NA
SUPAMT30004,3MMN5BL1W5373D0NQP1VQUX003BM36,B71E337D-1E59-462B-84C0-838B0D523BDD,2023-09-27_07h30.46.452,WP_VExplicitOC_HL,2022.2.5,Win32,6.357036604,-53.3203125,6.7452,2.0186,NA,NA,NA,NA,NA,bored,"bored, not bored","more bored, less bored",NA,NA,NA,NA,NA,NA,NA,NA,NA,NA,0,1,1,2,1,NA,NA,NA,NA,NA,NA,NA,NA,NA,NA,NA,NA,NA,NA,NA,NA,NA,NA,NA,NA,NA,NA,NA,NA,NA,NA,NA,NA,NA,NA,NA,NA,NA
SUPAMT30004,3MMN5BL1W5373D0NQP1VQUX003BM36,B71E337D-1E59-462B-84C0-838B0D523BDD,2023-09-27_07h30.46.452,WP_VExplicitOC_HL,2022.2.5,Win32,6.357036604,-50.1953125,4.3716,2.124299999,NA,NA,NA,NA,NA,frustrated,"frustrated, not frustrated","more frustrated, less frustrated",NA,NA,NA,NA,NA,NA,NA,NA,NA,NA,0,2,2,1,1,NA,NA,NA,NA,NA,NA,NA,NA,NA,NA,NA,NA,NA,NA,NA,NA,NA,NA,NA,NA,NA,NA,NA,NA,NA,NA,NA,NA,NA,NA,NA,NA,NA
SUPAMT30004,3MMN5BL1W5373D0NQP1VQUX003BM36,B71E337D-1E59-462B-84C0-838B0D523BDD,2023-09-27_07h30.46.452,WP_VExplicitOC_HL,2022.2.5,Win32,6.357036604,NA,NA,NA,NA,NA,NA,NA,NA,NA,NA,NA,NA,NA,NA,NA,NA,NA,NA,NA,NA,NA,NA,NA,NA,NA,NA,NA,NA,NA,NA,NA,NA,NA,NA,NA,NA,NA,NA,NA,NA,NA,NA,NA,NA,NA,NA,NA,NA,NA,NA,NA,NA,NA,NA,NA,NA,NA,NA,NA
SUPAMT30004,3MMN5BL1W5373D0NQP1VQUX003BM36,B71E337D-1E59-462B-84C0-838B0D523BDD,2023-09-27_07h30.46.452,WP_VExplicitOC_HL,2022.2.5,Win32,6.357036604,NA,NA,NA,NA,NA,NA,NA,NA,NA,NA,NA,NA,NA,NA,NA,NA,NA,NA,NA,NA,NA,NA,NA,NA,NA,NA,NA,NA,NA,NA,NA,NA,NA,NA,NA,NA,NA,NA,NA,NA,NA,NA,NA,NA,NA,NA,NA,NA,NA,NA,NA,NA,NA,NA,NA,NA,NA,NA,NA
SUPAMT30004,3MMN5BL1W5373D0NQP1VQUX003BM36,B71E337D-1E59-462B-84C0-838B0D523BDD,2023-09-27_07h30.46.452,WP_VExplicitOC_HL,2022.2.5,Win32,6.357036604,-54.296875,5.9171,2.059599999,NA,NA,NA,NA,NA,happy,"unhappy, happy","less happy, more happy",NA,NA,NA,NA,NA,NA,NA,NA,NA,NA,NA,NA,NA,NA,NA,0,0,0,0,1,NA,NA,NA,NA,NA,NA,NA,NA,NA,NA,NA,NA,NA,NA,NA,NA,NA,NA,NA,NA,NA,NA,NA,NA,NA,NA,NA,NA
SUPAMT30004,3MMN5BL1W5373D0NQP1VQUX003BM36,B71E337D-1E59-462B-84C0-838B0D523BDD,2023-09-27_07h30.46.452,WP_VExplicitOC_HL,2022.2.5,Win32,6.357036604,49.4140625,4.6093,2.2177,NA,NA,NA,NA,NA,bored,"bored, not bored","more bored, less bored",NA,NA,NA,NA,NA,NA,NA,NA,NA,NA,NA,NA,NA,NA,NA,0,1,1,2,1,NA,NA,NA,NA,NA,NA,NA,NA,NA,NA,NA,NA,NA,NA,NA,NA,NA,NA,NA,NA,NA,NA,NA,NA,NA,NA,NA,NA
SUPAMT30004,3MMN5BL1W5373D0NQP1VQUX003BM36,B71E337D-1E59-462B-84C0-838B0D523BDD,2023-09-27_07h30.46.452,WP_VExplicitOC_HL,2022.2.5,Win32,6.357036604,-47.265625,5.296900001,2.154900001,NA,NA,NA,NA,NA,frustrated,"frustrated, not frustrated","more frustrated, less frustrated",NA,NA,NA,NA,NA,NA,NA,NA,NA,NA,NA,NA,NA,NA,NA,0,2,2,1,1,NA,NA,NA,NA,NA,NA,NA,NA,NA,NA,NA,NA,NA,NA,NA,NA,NA,NA,NA,NA,NA,NA,NA,NA,NA,NA,NA,NA
SUPAMT30004,3MMN5BL1W5373D0NQP1VQUX003BM36,B71E337D-1E59-462B-84C0-838B0D523BDD,2023-09-27_07h30.46.452,WP_VExplicitOC_HL,2022.2.5,Win32,6.357036604,NA,NA,NA,NA,NA,NA,NA,NA,NA,NA,NA,NA,NA,NA,NA,NA,NA,NA,NA,NA,NA,NA,NA,NA,NA,NA,NA,NA,NA,NA,NA,0,0,0,0,1,NA,NA,NA,NA,NA,NA,NA,NA,NA,NA,NA,NA,NA,NA,NA,NA,NA,NA,NA,NA,NA,NA,NA
SUPAMT30004,3MMN5BL1W5373D0NQP1VQUX003BM36,B71E337D-1E59-462B-84C0-838B0D523BDD,2023-09-27_07h30.46.452,WP_VExplicitOC_HL,2022.2.5,Win32,6.357036604,-41.6015625,5.2223,2.138799999,NA,NA,NA,NA,NA,frustrated,"frustrated, not frustrated","more frustrated, less frustrated",NA,NA,NA,NA,NA,NA,NA,NA,NA,NA,NA,NA,NA,NA,NA,0,0,0,1,1,NA,NA,NA,NA,NA,NA,NA,NA,NA,NA,NA,NA,NA,NA,NA,NA,NA,NA,NA,NA,NA,NA,NA,NA,NA,NA,NA,NA
SUPAMT30004,3MMN5BL1W5373D0NQP1VQUX003BM36,B71E337D-1E59-462B-84C0-838B0D523BDD,2023-09-27_07h30.46.452,WP_VExplicitOC_HL,2022.2.5,Win32,6.357036604,-49.0234375,4.173400001,2.1152,NA,NA,NA,NA,NA,happy,"unhappy, happy","less happy, more happy",NA,NA,NA,NA,NA,NA,NA,NA,NA,NA,NA,NA,NA,NA,NA,0,1,1,0,1,NA,NA,NA,NA,NA,NA,NA,NA,NA,NA,NA,NA,NA,NA,NA,NA,NA,NA,NA,NA,NA,NA,NA,NA,NA,NA,NA,NA
SUPAMT30004,3MMN5BL1W5373D0NQP1VQUX003BM36,B71E337D-1E59-462B-84C0-838B0D523BDD,2023-09-27_07h30.46.452,WP_VExplicitOC_HL,2022.2.5,Win32,6.357036604,-59.5703125,3.7752,2.0414,NA,NA,NA,NA,NA,bored,"bored, not bored","more bored, less bored",NA,NA,NA,NA,NA,NA,NA,NA,NA,NA,NA,NA,NA,NA,NA,0,2,2,2,1,NA,NA,NA,NA,NA,NA,NA,NA,NA,NA,NA,NA,NA,NA,NA,NA,NA,NA,NA,NA,NA,NA,NA,NA,NA,NA,NA,NA
SUPAMT30004,3MMN5BL1W5373D0NQP1VQUX003BM36,B71E337D-1E59-462B-84C0-838B0D523BDD,2023-09-27_07h30.46.452,WP_VExplicitOC_HL,2022.2.5,Win32,6.357036604,NA,NA,NA,NA,NA,NA,NA,NA,NA,NA,NA,NA,NA,NA,NA,NA,NA,NA,NA,NA,NA,NA,NA,NA,NA,NA,NA,NA,NA,NA,NA,1,0,1,0,1,NA,NA,NA,NA,NA,NA,NA,NA,NA,NA,NA,NA,NA,NA,NA,NA,NA,NA,NA,NA,NA,NA,NA
SUPAMT30004,3MMN5BL1W5373D0NQP1VQUX003BM36,B71E337D-1E59-462B-84C0-838B0D523BDD,2023-09-27_07h30.46.452,WP_VExplicitOC_HL,2022.2.5,Win32,6.357036604,61.71875,3.9344,2.1195,NA,NA,NA,NA,NA,happy,"unhappy, happy","less happy, more happy",NA,NA,NA,NA,NA,NA,NA,NA,NA,NA,NA,NA,NA,NA,NA,0,0,0,0,1,NA,NA,NA,NA,NA,NA,NA,NA,NA,NA,NA,NA,NA,NA,NA,NA,NA,NA,NA,NA,NA,NA,NA,NA,NA,NA,NA,NA
SUPAMT30004,3MMN5BL1W5373D0NQP1VQUX003BM36,B71E337D-1E59-462B-84C0-838B0D523BDD,2023-09-27_07h30.46.452,WP_VExplicitOC_HL,2022.2.5,Win32,6.357036604,-50.78125,4.447400001,2.124,NA,NA,NA,NA,NA,bored,"bored, not bored","more bored, less bored",NA,NA,NA,NA,NA,NA,NA,NA,NA,NA,NA,NA,NA,NA,NA,0,1,1,2,1,NA,NA,NA,NA,NA,NA,NA,NA,NA,NA,NA,NA,NA,NA,NA,NA,NA,NA,NA,NA,NA,NA,NA,NA,NA,NA,NA,NA
SUPAMT30004,3MMN5BL1W5373D0NQP1VQUX003BM36,B71E337D-1E59-462B-84C0-838B0D523BDD,2023-09-27_07h30.46.452,WP_VExplicitOC_HL,2022.2.5,Win32,6.357036604,-56.8359375,4.211,2.108400001,NA,NA,NA,NA,NA,frustrated,"frustrated, not frustrated","more frustrated, less frustrated",NA,NA,NA,NA,NA,NA,NA,NA,NA,NA,NA,NA,NA,NA,NA,0,2,2,1,1,NA,NA,NA,NA,NA,NA,NA,NA,NA,NA,NA,NA,NA,NA,NA,NA,NA,NA,NA,NA,NA,NA,NA,NA,NA,NA,NA,NA
SUPAMT30004,3MMN5BL1W5373D0NQP1VQUX003BM36,B71E337D-1E59-462B-84C0-838B0D523BDD,2023-09-27_07h30.46.452,WP_VExplicitOC_HL,2022.2.5,Win32,6.357036604,NA,NA,NA,NA,NA,NA,NA,NA,NA,NA,NA,NA,NA,NA,NA,NA,NA,NA,NA,NA,NA,NA,NA,NA,NA,NA,NA,NA,NA,NA,NA,2,0,2,0,1,NA,NA,NA,NA,NA,NA,NA,NA,NA,NA,NA,NA,NA,NA,NA,NA,NA,NA,NA,NA,NA,NA,NA
SUPAMT30004,3MMN5BL1W5373D0NQP1VQUX003BM36,B71E337D-1E59-462B-84C0-838B0D523BDD,2023-09-27_07h30.46.452,WP_VExplicitOC_HL,2022.2.5,Win32,6.357036604,58.203125,4.1461,2.080400001,NA,NA,NA,NA,NA,happy,"unhappy, happy","less happy, more happy",NA,NA,NA,NA,NA,NA,NA,NA,NA,NA,NA,NA,NA,NA,NA,0,0,0,0,1,NA,NA,NA,NA,NA,NA,NA,NA,NA,NA,NA,NA,NA,NA,NA,NA,NA,NA,NA,NA,NA,NA,NA,NA,NA,NA,NA,NA
SUPAMT30004,3MMN5BL1W5373D0NQP1VQUX003BM36,B71E337D-1E59-462B-84C0-838B0D523BDD,2023-09-27_07h30.46.452,WP_VExplicitOC_HL,2022.2.5,Win32,6.357036604,-32.421875,4.702900001,2.0849,NA,NA,NA,NA,NA,bored,"bored, not bored","more bored, less bored",NA,NA,NA,NA,NA,NA,NA,NA,NA,NA,NA,NA,NA,NA,NA,0,1,1,2,1,NA,NA,NA,NA,NA,NA,NA,NA,NA,NA,NA,NA,NA,NA,NA,NA,NA,NA,NA,NA,NA,NA,NA,NA,NA,NA,NA,NA
SUPAMT30004,3MMN5BL1W5373D0NQP1VQUX003BM36,B71E337D-1E59-462B-84C0-838B0D523BDD,2023-09-27_07h30.46.452,WP_VExplicitOC_HL,2022.2.5,Win32,6.357036604,-52.5390625,4.878400001,2.1037,NA,NA,NA,NA,NA,frustrated,"frustrated, not frustrated","more frustrated, less frustrated",NA,NA,NA,NA,NA,NA,NA,NA,NA,NA,NA,NA,NA,NA,NA,0,2,2,1,1,NA,NA,NA,NA,NA,NA,NA,NA,NA,NA,NA,NA,NA,NA,NA,NA,NA,NA,NA,NA,NA,NA,NA,NA,NA,NA,NA,NA
SUPAMT30004,3MMN5BL1W5373D0NQP1VQUX003BM36,B71E337D-1E59-462B-84C0-838B0D523BDD,2023-09-27_07h30.46.452,WP_VExplicitOC_HL,2022.2.5,Win32,6.357036604,NA,NA,NA,NA,NA,NA,NA,NA,NA,NA,NA,NA,NA,NA,NA,NA,NA,NA,NA,NA,NA,NA,NA,NA,NA,NA,NA,NA,NA,NA,NA,3,0,3,0,1,NA,NA,NA,NA,NA,NA,NA,NA,NA,NA,NA,NA,NA,NA,NA,NA,NA,NA,NA,NA,NA,NA,NA
SUPAMT30004,3MMN5BL1W5373D0NQP1VQUX003BM36,B71E337D-1E59-462B-84C0-838B0D523BDD,2023-09-27_07h30.46.452,WP_VExplicitOC_HL,2022.2.5,Win32,6.357036604,60.546875,3.957,2.056700001,NA,NA,NA,NA,NA,happy,"unhappy, happy","less happy, more happy",NA,NA,NA,NA,NA,NA,NA,NA,NA,NA,NA,NA,NA,NA,NA,0,0,0,0,1,NA,NA,NA,NA,NA,NA,NA,NA,NA,NA,NA,NA,NA,NA,NA,NA,NA,NA,NA,NA,NA,NA,NA,NA,NA,NA,NA,NA
SUPAMT30004,3MMN5BL1W5373D0NQP1VQUX003BM36,B71E337D-1E59-462B-84C0-838B0D523BDD,2023-09-27_07h30.46.452,WP_VExplicitOC_HL,2022.2.5,Win32,6.357036604,-60.15625,4.5612,2.1118,NA,NA,NA,NA,NA,frustrated,"frustrated, not frustrated","more frustrated, less frustrated",NA,NA,NA,NA,NA,NA,NA,NA,NA,NA,NA,NA,NA,NA,NA,0,1,1,1,1,NA,NA,NA,NA,NA,NA,NA,NA,NA,NA,NA,NA,NA,NA,NA,NA,NA,NA,NA,NA,NA,NA,NA,NA,NA,NA,NA,NA
SUPAMT30004,3MMN5BL1W5373D0NQP1VQUX003BM36,B71E337D-1E59-462B-84C0-838B0D523BDD,2023-09-27_07h30.46.452,WP_VExplicitOC_HL,2022.2.5,Win32,6.357036604,-64.84375,4.0753,2.149599999,NA,NA,NA,NA,NA,bored,"bored, not bored","more bored, less bored",NA,NA,NA,NA,NA,NA,NA,NA,NA,NA,NA,NA,NA,NA,NA,0,2,2,2,1,NA,NA,NA,NA,NA,NA,NA,NA,NA,NA,NA,NA,NA,NA,NA,NA,NA,NA,NA,NA,NA,NA,NA,NA,NA,NA,NA,NA
SUPAMT30004,3MMN5BL1W5373D0NQP1VQUX003BM36,B71E337D-1E59-462B-84C0-838B0D523BDD,2023-09-27_07h30.46.452,WP_VExplicitOC_HL,2022.2.5,Win32,6.357036604,NA,NA,NA,NA,NA,NA,NA,NA,NA,NA,NA,NA,NA,NA,NA,NA,NA,NA,NA,NA,NA,NA,NA,NA,NA,NA,NA,NA,NA,NA,NA,4,0,4,0,1,NA,NA,NA,NA,NA,NA,NA,NA,NA,NA,NA,NA,NA,NA,NA,NA,NA,NA,NA,NA,NA,NA,NA
SUPAMT30004,3MMN5BL1W5373D0NQP1VQUX003BM36,B71E337D-1E59-462B-84C0-838B0D523BDD,2023-09-27_07h30.46.452,WP_VExplicitOC_HL,2022.2.5,Win32,6.357036604,-59.765625,4.387,2.102400001,NA,NA,NA,NA,NA,frustrated,"frustrated, not frustrated","more frustrated, less frustrated",NA,NA,NA,NA,NA,NA,NA,NA,NA,NA,NA,NA,NA,NA,NA,0,0,0,1,1,NA,NA,NA,NA,NA,NA,NA,NA,NA,NA,NA,NA,NA,NA,NA,NA,NA,NA,NA,NA,NA,NA,NA,NA,NA,NA,NA,NA
SUPAMT30004,3MMN5BL1W5373D0NQP1VQUX003BM36,B71E337D-1E59-462B-84C0-838B0D523BDD,2023-09-27_07h30.46.452,WP_VExplicitOC_HL,2022.2.5,Win32,6.357036604,-65.4296875,3.8096,2.0133,NA,NA,NA,NA,NA,bored,"bored, not bored","more bored, less bored",NA,NA,NA,NA,NA,NA,NA,NA,NA,NA,NA,NA,NA,NA,NA,0,1,1,2,1,NA,NA,NA,NA,NA,NA,NA,NA,NA,NA,NA,NA,NA,NA,NA,NA,NA,NA,NA,NA,NA,NA,NA,NA,NA,NA,NA,NA
SUPAMT30004,3MMN5BL1W5373D0NQP1VQUX003BM36,B71E337D-1E59-462B-84C0-838B0D523BDD,2023-09-27_07h30.46.452,WP_VExplicitOC_HL,2022.2.5,Win32,6.357036604,46.09375,6.9982,2.041900001,NA,NA,NA,NA,NA,happy,"unhappy, happy","less happy, more happy",NA,NA,NA,NA,NA,NA,NA,NA,NA,NA,NA,NA,NA,NA,NA,0,2,2,0,1,NA,NA,NA,NA,NA,NA,NA,NA,NA,NA,NA,NA,NA,NA,NA,NA,NA,NA,NA,NA,NA,NA,NA,NA,NA,NA,NA,NA
SUPAMT30004,3MMN5BL1W5373D0NQP1VQUX003BM36,B71E337D-1E59-462B-84C0-838B0D523BDD,2023-09-27_07h30.46.452,WP_VExplicitOC_HL,2022.2.5,Win32,6.357036604,NA,NA,NA,NA,NA,NA,NA,NA,NA,NA,NA,NA,NA,NA,NA,NA,NA,NA,NA,NA,NA,NA,NA,NA,NA,NA,NA,NA,NA,NA,NA,5,0,5,0,1,NA,NA,NA,NA,NA,NA,NA,NA,NA,NA,NA,NA,NA,NA,NA,NA,NA,NA,NA,NA,NA,NA,NA
SUPAMT30004,3MMN5BL1W5373D0NQP1VQUX003BM36,B71E337D-1E59-462B-84C0-838B0D523BDD,2023-09-27_07h30.46.452,WP_VExplicitOC_HL,2022.2.5,Win32,6.357036604,-47.8515625,3.9067,2.011,NA,NA,NA,NA,NA,bored,"bored, not bored","more bored, less bored",NA,NA,NA,NA,NA,NA,NA,NA,NA,NA,NA,NA,NA,NA,NA,0,0,0,2,1,NA,NA,NA,NA,NA,NA,NA,NA,NA,NA,NA,NA,NA,NA,NA,NA,NA,NA,NA,NA,NA,NA,NA,NA,NA,NA,NA,NA
SUPAMT30004,3MMN5BL1W5373D0NQP1VQUX003BM36,B71E337D-1E59-462B-84C0-838B0D523BDD,2023-09-27_07h30.46.452,WP_VExplicitOC_HL,2022.2.5,Win32,6.357036604,NA,NA,2.0913,NA,NA,NA,NA,NA,happy,"unhappy, happy","less happy, more happy",NA,NA,NA,NA,NA,NA,NA,NA,NA,NA,NA,NA,NA,NA,NA,0,1,1,0,1,NA,NA,NA,NA,NA,NA,NA,NA,NA,NA,NA,NA,NA,NA,NA,NA,NA,NA,NA,NA,NA,NA,NA,NA,NA,NA,NA,NA
SUPAMT30004,3MMN5BL1W5373D0NQP1VQUX003BM36,B71E337D-1E59-462B-84C0-838B0D523BDD,2023-09-27_07h30.46.452,WP_VExplicitOC_HL,2022.2.5,Win32,6.357036604,-59.9609375,4.312,2.0916,NA,NA,NA,NA,NA,frustrated,"frustrated, not frustrated","more frustrated, less frustrated",NA,NA,NA,NA,NA,NA,NA,NA,NA,NA,NA,NA,NA,NA,NA,0,2,2,1,1,NA,NA,NA,NA,NA,NA,NA,NA,NA,NA,NA,NA,NA,NA,NA,NA,NA,NA,NA,NA,NA,NA,NA,NA,NA,NA,NA,NA
SUPAMT30004,3MMN5BL1W5373D0NQP1VQUX003BM36,B71E337D-1E59-462B-84C0-838B0D523BDD,2023-09-27_07h30.46.452,WP_VExplicitOC_HL,2022.2.5,Win32,6.357036604,NA,NA,NA,NA,NA,NA,NA,NA,NA,NA,NA,NA,NA,NA,NA,NA,NA,NA,NA,NA,NA,NA,NA,NA,NA,NA,NA,NA,NA,NA,NA,6,0,6,0,1,NA,NA,NA,NA,NA,NA,NA,NA,NA,NA,NA,NA,NA,NA,NA,NA,NA,NA,NA,NA,NA,NA,NA
SUPAMT30004,3MMN5BL1W5373D0NQP1VQUX003BM36,B71E337D-1E59-462B-84C0-838B0D523BDD,2023-09-27_07h30.46.452,WP_VExplicitOC_HL,2022.2.5,Win32,6.357036604,-44.53125,4.6589,2.0744,NA,NA,NA,NA,NA,frustrated,"frustrated, not frustrated","more frustrated, less frustrated",NA,NA,NA,NA,NA,NA,NA,NA,NA,NA,NA,NA,NA,NA,NA,0,0,0,1,1,NA,NA,NA,NA,NA,NA,NA,NA,NA,NA,NA,NA,NA,NA,NA,NA,NA,NA,NA,NA,NA,NA,NA,NA,NA,NA,NA,NA
SUPAMT30004,3MMN5BL1W5373D0NQP1VQUX003BM36,B71E337D-1E59-462B-84C0-838B0D523BDD,2023-09-27_07h30.46.452,WP_VExplicitOC_HL,2022.2.5,Win32,6.357036604,43.5546875,5.2263,2.1176,NA,NA,NA,NA,NA,bored,"bored, not bored","more bored, less bored",NA,NA,NA,NA,NA,NA,NA,NA,NA,NA,NA,NA,NA,NA,NA,0,1,1,2,1,NA,NA,NA,NA,NA,NA,NA,NA,NA,NA,NA,NA,NA,NA,NA,NA,NA,NA,NA,NA,NA,NA,NA,NA,NA,NA,NA,NA
SUPAMT30004,3MMN5BL1W5373D0NQP1VQUX003BM36,B71E337D-1E59-462B-84C0-838B0D523BDD,2023-09-27_07h30.46.452,WP_VExplicitOC_HL,2022.2.5,Win32,6.357036604,55.078125,3.922299999,2.1158,NA,NA,NA,NA,NA,happy,"unhappy, happy","less happy, more happy",NA,NA,NA,NA,NA,NA,NA,NA,NA,NA,NA,NA,NA,NA,NA,0,2,2,0,1,NA,NA,NA,NA,NA,NA,NA,NA,NA,NA,NA,NA,NA,NA,NA,NA,NA,NA,NA,NA,NA,NA,NA,NA,NA,NA,NA,NA
SUPAMT30004,3MMN5BL1W5373D0NQP1VQUX003BM36,B71E337D-1E59-462B-84C0-838B0D523BDD,2023-09-27_07h30.46.452,WP_VExplicitOC_HL,2022.2.5,Win32,6.357036604,NA,NA,NA,NA,NA,NA,NA,NA,NA,NA,NA,NA,NA,NA,NA,NA,NA,NA,NA,NA,NA,NA,NA,NA,NA,NA,NA,NA,NA,NA,NA,7,0,7,0,1,NA,NA,NA,NA,NA,NA,NA,NA,NA,NA,NA,NA,NA,NA,NA,NA,NA,NA,NA,NA,NA,NA,NA
SUPAMT30004,3MMN5BL1W5373D0NQP1VQUX003BM36,B71E337D-1E59-462B-84C0-838B0D523BDD,2023-09-27_07h30.46.452,WP_VExplicitOC_HL,2022.2.5,Win32,6.357036604,-58.203125,3.9141,2.0783,NA,NA,NA,NA,NA,frustrated,"frustrated, not frustrated","more frustrated, less frustrated",NA,NA,NA,NA,NA,NA,NA,NA,NA,NA,NA,NA,NA,NA,NA,0,0,0,1,1,NA,NA,NA,NA,NA,NA,NA,NA,NA,NA,NA,NA,NA,NA,NA,NA,NA,NA,NA,NA,NA,NA,NA,NA,NA,NA,NA,NA
SUPAMT30004,3MMN5BL1W5373D0NQP1VQUX003BM36,B71E337D-1E59-462B-84C0-838B0D523BDD,2023-09-27_07h30.46.452,WP_VExplicitOC_HL,2022.2.5,Win32,6.357036604,63.8671875,3.8948,2.0605,NA,NA,NA,NA,NA,bored,"bored, not bored","more bored, less bored",NA,NA,NA,NA,NA,NA,NA,NA,NA,NA,NA,NA,NA,NA,NA,0,1,1,2,1,NA,NA,NA,NA,NA,NA,NA,NA,NA,NA,NA,NA,NA,NA,NA,NA,NA,NA,NA,NA,NA,NA,NA,NA,NA,NA,NA,NA
SUPAMT30004,3MMN5BL1W5373D0NQP1VQUX003BM36,B71E337D-1E59-462B-84C0-838B0D523BDD,2023-09-27_07h30.46.452,WP_VExplicitOC_HL,2022.2.5,Win32,6.357036604,-30.2734375,4.054599999,2.020599999,NA,NA,NA,NA,NA,happy,"unhappy, happy","less happy, more happy",NA,NA,NA,NA,NA,NA,NA,NA,NA,NA,NA,NA,NA,NA,NA,0,2,2,0,1,NA,NA,NA,NA,NA,NA,NA,NA,NA,NA,NA,NA,NA,NA,NA,NA,NA,NA,NA,NA,NA,NA,NA,NA,NA,NA,NA,NA
SUPAMT30004,3MMN5BL1W5373D0NQP1VQUX003BM36,B71E337D-1E59-462B-84C0-838B0D523BDD,2023-09-27_07h30.46.452,WP_VExplicitOC_HL,2022.2.5,Win32,6.357036604,NA,NA,NA,NA,NA,NA,NA,NA,NA,NA,NA,NA,NA,NA,NA,NA,NA,NA,NA,NA,NA,NA,NA,NA,NA,NA,NA,NA,NA,NA,NA,8,0,8,0,1,NA,NA,NA,NA,NA,NA,NA,NA,NA,NA,NA,NA,NA,NA,NA,NA,NA,NA,NA,NA,NA,NA,NA
SUPAMT30004,3MMN5BL1W5373D0NQP1VQUX003BM36,B71E337D-1E59-462B-84C0-838B0D523BDD,2023-09-27_07h30.46.452,WP_VExplicitOC_HL,2022.2.5,Win32,6.357036604,73.828125,4.3237,2.1048,NA,NA,NA,NA,NA,happy,"unhappy, happy","less happy, more happy",NA,NA,NA,NA,NA,NA,NA,NA,NA,NA,NA,NA,NA,NA,NA,0,0,0,0,1,NA,NA,NA,NA,NA,NA,NA,NA,NA,NA,NA,NA,NA,NA,NA,NA,NA,NA,NA,NA,NA,NA,NA,NA,NA,NA,NA,NA
SUPAMT30004,3MMN5BL1W5373D0NQP1VQUX003BM36,B71E337D-1E59-462B-84C0-838B0D523BDD,2023-09-27_07h30.46.452,WP_VExplicitOC_HL,2022.2.5,Win32,6.357036604,-46.6796875,4.354,2.108700001,NA,NA,NA,NA,NA,bored,"bored, not bored","more bored, less bored",NA,NA,NA,NA,NA,NA,NA,NA,NA,NA,NA,NA,NA,NA,NA,0,1,1,2,1,NA,NA,NA,NA,NA,NA,NA,NA,NA,NA,NA,NA,NA,NA,NA,NA,NA,NA,NA,NA,NA,NA,NA,NA,NA,NA,NA,NA
SUPAMT30004,3MMN5BL1W5373D0NQP1VQUX003BM36,B71E337D-1E59-462B-84C0-838B0D523BDD,2023-09-27_07h30.46.452,WP_VExplicitOC_HL,2022.2.5,Win32,6.357036604,-42.7734375,4.0591,2.0963,NA,NA,NA,NA,NA,frustrated,"frustrated, not frustrated","more frustrated, less frustrated",NA,NA,NA,NA,NA,NA,NA,NA,NA,NA,NA,NA,NA,NA,NA,0,2,2,1,1,NA,NA,NA,NA,NA,NA,NA,NA,NA,NA,NA,NA,NA,NA,NA,NA,NA,NA,NA,NA,NA,NA,NA,NA,NA,NA,NA,NA
SUPAMT30004,3MMN5BL1W5373D0NQP1VQUX003BM36,B71E337D-1E59-462B-84C0-838B0D523BDD,2023-09-27_07h30.46.452,WP_VExplicitOC_HL,2022.2.5,Win32,6.357036604,NA,NA,NA,NA,NA,NA,NA,NA,NA,NA,NA,NA,NA,NA,NA,NA,NA,NA,NA,NA,NA,NA,NA,NA,NA,NA,NA,NA,NA,NA,NA,9,0,9,0,1,NA,NA,NA,NA,NA,NA,NA,NA,NA,NA,NA,NA,NA,NA,NA,NA,NA,NA,NA,NA,NA,NA,NA
SUPAMT30004,3MMN5BL1W5373D0NQP1VQUX003BM36,B71E337D-1E59-462B-84C0-838B0D523BDD,2023-09-27_07h30.46.452,WP_VExplicitOC_HL,2022.2.5,Win32,6.357036604,47.265625,4.1802,2.1262,NA,NA,NA,NA,NA,happy,"unhappy, happy","less happy, more happy",NA,NA,NA,NA,NA,NA,NA,NA,NA,NA,NA,NA,NA,NA,NA,0,0,0,0,1,NA,NA,NA,NA,NA,NA,NA,NA,NA,NA,NA,NA,NA,NA,NA,NA,NA,NA,NA,NA,NA,NA,NA,NA,NA,NA,NA,NA
SUPAMT30004,3MMN5BL1W5373D0NQP1VQUX003BM36,B71E337D-1E59-462B-84C0-838B0D523BDD,2023-09-27_07h30.46.452,WP_VExplicitOC_HL,2022.2.5,Win32,6.357036604,-27.734375,6.8003,2.193,NA,NA,NA,NA,NA,frustrated,"frustrated, not frustrated","more frustrated, less frustrated",NA,NA,NA,NA,NA,NA,NA,NA,NA,NA,NA,NA,NA,NA,NA,0,1,1,1,1,NA,NA,NA,NA,NA,NA,NA,NA,NA,NA,NA,NA,NA,NA,NA,NA,NA,NA,NA,NA,NA,NA,NA,NA,NA,NA,NA,NA
SUPAMT30004,3MMN5BL1W5373D0NQP1VQUX003BM36,B71E337D-1E59-462B-84C0-838B0D523BDD,2023-09-27_07h30.46.452,WP_VExplicitOC_HL,2022.2.5,Win32,6.357036604,NA,NA,2.1132,NA,NA,NA,NA,NA,bored,"bored, not bored","more bored, less bored",NA,NA,NA,NA,NA,NA,NA,NA,NA,NA,NA,NA,NA,NA,NA,0,2,2,2,1,NA,NA,NA,NA,NA,NA,NA,NA,NA,NA,NA,NA,NA,NA,NA,NA,NA,NA,NA,NA,NA,NA,NA,NA,NA,NA,NA,NA
SUPAMT30004,3MMN5BL1W5373D0NQP1VQUX003BM36,B71E337D-1E59-462B-84C0-838B0D523BDD,2023-09-27_07h30.46.452,WP_VExplicitOC_HL,2022.2.5,Win32,6.357036604,NA,NA,NA,NA,NA,NA,NA,NA,NA,NA,NA,NA,NA,NA,NA,NA,NA,NA,NA,NA,NA,NA,NA,NA,NA,NA,NA,NA,NA,NA,NA,10,0,10,0,1,NA,NA,NA,NA,NA,NA,NA,NA,NA,NA,NA,NA,NA,NA,NA,NA,NA,NA,NA,NA,NA,NA,NA
SUPAMT30004,3MMN5BL1W5373D0NQP1VQUX003BM36,B71E337D-1E59-462B-84C0-838B0D523BDD,2023-09-27_07h30.46.452,WP_VExplicitOC_HL,2022.2.5,Win32,6.357036604,-56.640625,3.907700001,2.015700001,NA,NA,NA,NA,NA,frustrated,"frustrated, not frustrated","more frustrated, less frustrated",NA,NA,NA,NA,NA,NA,NA,NA,NA,NA,NA,NA,NA,NA,NA,0,0,0,1,1,NA,NA,NA,NA,NA,NA,NA,NA,NA,NA,NA,NA,NA,NA,NA,NA,NA,NA,NA,NA,NA,NA,NA,NA,NA,NA,NA,NA
SUPAMT30004,3MMN5BL1W5373D0NQP1VQUX003BM36,B71E337D-1E59-462B-84C0-838B0D523BDD,2023-09-27_07h30.46.452,WP_VExplicitOC_HL,2022.2.5,Win32,6.357036604,50.390625,4.409599999,2.0297,NA,NA,NA,NA,NA,bored,"bored, not bored","more bored, less bored",NA,NA,NA,NA,NA,NA,NA,NA,NA,NA,NA,NA,NA,NA,NA,0,1,1,2,1,NA,NA,NA,NA,NA,NA,NA,NA,NA,NA,NA,NA,NA,NA,NA,NA,NA,NA,NA,NA,NA,NA,NA,NA,NA,NA,NA,NA
SUPAMT30004,3MMN5BL1W5373D0NQP1VQUX003BM36,B71E337D-1E59-462B-84C0-838B0D523BDD,2023-09-27_07h30.46.452,WP_VExplicitOC_HL,2022.2.5,Win32,6.357036604,-33.3984375,4.059599999,2.0669,NA,NA,NA,NA,NA,happy,"unhappy, happy","less happy, more happy",NA,NA,NA,NA,NA,NA,NA,NA,NA,NA,NA,NA,NA,NA,NA,0,2,2,0,1,NA,NA,NA,NA,NA,NA,NA,NA,NA,NA,NA,NA,NA,NA,NA,NA,NA,NA,NA,NA,NA,NA,NA,NA,NA,NA,NA,NA
SUPAMT30004,3MMN5BL1W5373D0NQP1VQUX003BM36,B71E337D-1E59-462B-84C0-838B0D523BDD,2023-09-27_07h30.46.452,WP_VExplicitOC_HL,2022.2.5,Win32,6.357036604,NA,NA,NA,NA,NA,NA,NA,NA,NA,NA,NA,NA,NA,NA,NA,NA,NA,NA,NA,NA,NA,NA,NA,NA,NA,NA,NA,NA,NA,NA,NA,11,0,11,0,1,NA,NA,NA,NA,NA,NA,NA,NA,NA,NA,NA,NA,NA,NA,NA,NA,NA,NA,NA,NA,NA,NA,NA
SUPAMT30004,3MMN5BL1W5373D0NQP1VQUX003BM36,B71E337D-1E59-462B-84C0-838B0D523BDD,2023-09-27_07h30.46.452,WP_VExplicitOC_HL,2022.2.5,Win32,6.357036604,49.8046875,3.7601,2.0473,NA,NA,NA,NA,NA,happy,"unhappy, happy","less happy, more happy",NA,NA,NA,NA,NA,NA,NA,NA,NA,NA,NA,NA,NA,NA,NA,0,0,0,0,1,NA,NA,NA,NA,NA,NA,NA,NA,NA,NA,NA,NA,NA,NA,NA,NA,NA,NA,NA,NA,NA,NA,NA,NA,NA,NA,NA,NA
SUPAMT30004,3MMN5BL1W5373D0NQP1VQUX003BM36,B71E337D-1E59-462B-84C0-838B0D523BDD,2023-09-27_07h30.46.452,WP_VExplicitOC_HL,2022.2.5,Win32,6.357036604,-58.3984375,3.9913,2.066,NA,NA,NA,NA,NA,bored,"bored, not bored","more bored, less bored",NA,NA,NA,NA,NA,NA,NA,NA,NA,NA,NA,NA,NA,NA,NA,0,1,1,2,1,NA,NA,NA,NA,NA,NA,NA,NA,NA,NA,NA,NA,NA,NA,NA,NA,NA,NA,NA,NA,NA,NA,NA,NA,NA,NA,NA,NA
SUPAMT30004,3MMN5BL1W5373D0NQP1VQUX003BM36,B71E337D-1E59-462B-84C0-838B0D523BDD,2023-09-27_07h30.46.452,WP_VExplicitOC_HL,2022.2.5,Win32,6.357036604,-47.8515625,3.9992,2.0815,NA,NA,NA,NA,NA,frustrated,"frustrated, not frustrated","more frustrated, less frustrated",NA,NA,NA,NA,NA,NA,NA,NA,NA,NA,NA,NA,NA,NA,NA,0,2,2,1,1,NA,NA,NA,NA,NA,NA,NA,NA,NA,NA,NA,NA,NA,NA,NA,NA,NA,NA,NA,NA,NA,NA,NA,NA,NA,NA,NA,NA
SUPAMT30004,3MMN5BL1W5373D0NQP1VQUX003BM36,B71E337D-1E59-462B-84C0-838B0D523BDD,2023-09-27_07h30.46.452,WP_VExplicitOC_HL,2022.2.5,Win32,6.357036604,NA,NA,NA,NA,NA,NA,NA,NA,NA,NA,NA,NA,NA,NA,NA,NA,NA,NA,NA,NA,NA,NA,NA,NA,NA,NA,NA,NA,NA,NA,NA,12,0,12,0,1,NA,NA,NA,NA,NA,NA,NA,NA,NA,NA,NA,NA,NA,NA,NA,NA,NA,NA,NA,NA,NA,NA,NA
SUPAMT30004,3MMN5BL1W5373D0NQP1VQUX003BM36,B71E337D-1E59-462B-84C0-838B0D523BDD,2023-09-27_07h30.46.452,WP_VExplicitOC_HL,2022.2.5,Win32,6.357036604,-41.796875,4.131,2.1244,NA,NA,NA,NA,NA,frustrated,"frustrated, not frustrated","more frustrated, less frustrated",NA,NA,NA,NA,NA,NA,NA,NA,NA,NA,NA,NA,NA,NA,NA,0,0,0,1,1,NA,NA,NA,NA,NA,NA,NA,NA,NA,NA,NA,NA,NA,NA,NA,NA,NA,NA,NA,NA,NA,NA,NA,NA,NA,NA,NA,NA
SUPAMT30004,3MMN5BL1W5373D0NQP1VQUX003BM36,B71E337D-1E59-462B-84C0-838B0D523BDD,2023-09-27_07h30.46.452,WP_VExplicitOC_HL,2022.2.5,Win32,6.357036604,62.5,4.860099999,2.0884,NA,NA,NA,NA,NA,bored,"bored, not bored","more bored, less bored",NA,NA,NA,NA,NA,NA,NA,NA,NA,NA,NA,NA,NA,NA,NA,0,1,1,2,1,NA,NA,NA,NA,NA,NA,NA,NA,NA,NA,NA,NA,NA,NA,NA,NA,NA,NA,NA,NA,NA,NA,NA,NA,NA,NA,NA,NA
SUPAMT30004,3MMN5BL1W5373D0NQP1VQUX003BM36,B71E337D-1E59-462B-84C0-838B0D523BDD,2023-09-27_07h30.46.452,WP_VExplicitOC_HL,2022.2.5,Win32,6.357036604,56.4453125,4.0802,2.126099999,NA,NA,NA,NA,NA,happy,"unhappy, happy","less happy, more happy",NA,NA,NA,NA,NA,NA,NA,NA,NA,NA,NA,NA,NA,NA,NA,0,2,2,0,1,NA,NA,NA,NA,NA,NA,NA,NA,NA,NA,NA,NA,NA,NA,NA,NA,NA,NA,NA,NA,NA,NA,NA,NA,NA,NA,NA,NA
SUPAMT30004,3MMN5BL1W5373D0NQP1VQUX003BM36,B71E337D-1E59-462B-84C0-838B0D523BDD,2023-09-27_07h30.46.452,WP_VExplicitOC_HL,2022.2.5,Win32,6.357036604,NA,NA,NA,NA,NA,NA,NA,NA,NA,NA,NA,NA,NA,NA,NA,NA,NA,NA,NA,NA,NA,NA,NA,NA,NA,NA,NA,NA,NA,NA,NA,13,0,13,0,1,NA,NA,NA,NA,NA,NA,NA,NA,NA,NA,NA,NA,NA,NA,NA,NA,NA,NA,NA,NA,NA,NA,NA
SUPAMT30004,3MMN5BL1W5373D0NQP1VQUX003BM36,B71E337D-1E59-462B-84C0-838B0D523BDD,2023-09-27_07h30.46.452,WP_VExplicitOC_HL,2022.2.5,Win32,6.357036604,NA,NA,2.063599999,NA,NA,NA,NA,NA,happy,"unhappy, happy","less happy, more happy",NA,NA,NA,NA,NA,NA,NA,NA,NA,NA,NA,NA,NA,NA,NA,0,0,0,0,1,NA,NA,NA,NA,NA,NA,NA,NA,NA,NA,NA,NA,NA,NA,NA,NA,NA,NA,NA,NA,NA,NA,NA,NA,NA,NA,NA,NA
SUPAMT30004,3MMN5BL1W5373D0NQP1VQUX003BM36,B71E337D-1E59-462B-84C0-838B0D523BDD,2023-09-27_07h30.46.452,WP_VExplicitOC_HL,2022.2.5,Win32,6.357036604,-54.296875,4.9282,2.0528,NA,NA,NA,NA,NA,frustrated,"frustrated, not frustrated","more frustrated, less frustrated",NA,NA,NA,NA,NA,NA,NA,NA,NA,NA,NA,NA,NA,NA,NA,0,1,1,1,1,NA,NA,NA,NA,NA,NA,NA,NA,NA,NA,NA,NA,NA,NA,NA,NA,NA,NA,NA,NA,NA,NA,NA,NA,NA,NA,NA,NA
SUPAMT30004,3MMN5BL1W5373D0NQP1VQUX003BM36,B71E337D-1E59-462B-84C0-838B0D523BDD,2023-09-27_07h30.46.452,WP_VExplicitOC_HL,2022.2.5,Win32,6.357036604,52.34375,5.079599999,2.114700001,NA,NA,NA,NA,NA,bored,"bored, not bored","more bored, less bored",NA,NA,NA,NA,NA,NA,NA,NA,NA,NA,NA,NA,NA,NA,NA,0,2,2,2,1,NA,NA,NA,NA,NA,NA,NA,NA,NA,NA,NA,NA,NA,NA,NA,NA,NA,NA,NA,NA,NA,NA,NA,NA,NA,NA,NA,NA
SUPAMT30004,3MMN5BL1W5373D0NQP1VQUX003BM36,B71E337D-1E59-462B-84C0-838B0D523BDD,2023-09-27_07h30.46.452,WP_VExplicitOC_HL,2022.2.5,Win32,6.357036604,NA,NA,NA,NA,NA,NA,NA,NA,NA,NA,NA,NA,NA,NA,NA,NA,NA,NA,NA,NA,NA,NA,NA,NA,NA,NA,NA,NA,NA,NA,NA,14,0,14,0,1,NA,NA,NA,NA,NA,NA,NA,NA,NA,NA,NA,NA,NA,NA,NA,NA,NA,NA,NA,NA,NA,NA,NA
SUPAMT30004,3MMN5BL1W5373D0NQP1VQUX003BM36,B71E337D-1E59-462B-84C0-838B0D523BDD,2023-09-27_07h30.46.452,WP_VExplicitOC_HL,2022.2.5,Win32,6.357036604,NA,NA,NA,NA,NA,NA,NA,NA,NA,NA,NA,NA,NA,NA,NA,NA,NA,NA,NA,NA,NA,NA,NA,NA,NA,NA,NA,NA,NA,NA,NA,NA,NA,NA,NA,NA,NA,NA,NA,NA,NA,NA,NA,NA,NA,NA,NA,NA,NA,NA,NA,NA,NA,NA,NA,NA,NA,NA,NA
SUPAMT30004,3MMN5BL1W5373D0NQP1VQUX003BM36,B71E337D-1E59-462B-84C0-838B0D523BDD,2023-09-27_07h30.46.452,WP_VExplicitOC_HL,2022.2.5,Win32,6.357036604,NA,NA,NA,NA,NA,NA,NA,NA,NA,NA,NA,NA,NA,NA,NA,NA,NA,NA,NA,NA,NA,NA,NA,NA,NA,NA,NA,NA,NA,NA,NA,NA,NA,NA,NA,NA,NA,NA,NA,NA,NA,NA,NA,NA,NA,NA,NA,NA,NA,NA,NA,NA,NA,NA,NA,NA,NA,NA,NA
SUPAMT30004,3MMN5BL1W5373D0NQP1VQUX003BM36,B71E337D-1E59-462B-84C0-838B0D523BDD,2023-09-27_07h30.46.452,WP_VExplicitOC_HL,2022.2.5,Win32,6.357036604,NA,NA,NA,NA,NA,NA,NA,NA,NA,NA,NA,NA,NA,NA,NA,NA,NA,NA,rest (looking at a fixed cross),001.png,NA,NA,NA,NA,NA,NA,NA,NA,NA,NA,NA,NA,NA,NA,NA,NA,55.6640625,1.855400001,0,0,0,0,1,NA,NA,NA,NA,NA,NA,NA,NA,NA,NA,NA,NA,NA,NA,NA,NA
SUPAMT30004,3MMN5BL1W5373D0NQP1VQUX003BM36,B71E337D-1E59-462B-84C0-838B0D523BDD,2023-09-27_07h30.46.452,WP_VExplicitOC_HL,2022.2.5,Win32,6.357036604,NA,NA,NA,NA,NA,NA,NA,NA,NA,NA,NA,NA,NA,NA,NA,NA,NA,NA,stand up,002.png,NA,NA,NA,NA,NA,NA,NA,NA,NA,NA,NA,NA,NA,NA,NA,NA,-30.2734375,2.0742,0,1,1,1,1,NA,NA,NA,NA,NA,NA,NA,NA,NA,NA,NA,NA,NA,NA,NA,NA
SUPAMT30004,3MMN5BL1W5373D0NQP1VQUX003BM36,B71E337D-1E59-462B-84C0-838B0D523BDD,2023-09-27_07h30.46.452,WP_VExplicitOC_HL,2022.2.5,Win32,6.357036604,NA,NA,NA,NA,NA,NA,NA,NA,NA,NA,NA,NA,NA,NA,NA,NA,NA,NA,stretch,003.png,NA,NA,NA,NA,NA,NA,NA,NA,NA,NA,NA,NA,NA,NA,NA,NA,20.5078125,2.3793,0,2,2,2,1,NA,NA,NA,NA,NA,NA,NA,NA,NA,NA,NA,NA,NA,NA,NA,NA
SUPAMT30004,3MMN5BL1W5373D0NQP1VQUX003BM36,B71E337D-1E59-462B-84C0-838B0D523BDD,2023-09-27_07h30.46.452,WP_VExplicitOC_HL,2022.2.5,Win32,6.357036604,NA,NA,NA,NA,NA,NA,NA,NA,NA,NA,NA,NA,NA,NA,NA,NA,NA,NA,make a drink,004.png,NA,NA,NA,NA,NA,NA,NA,NA,NA,NA,NA,NA,NA,NA,NA,NA,-28.125,1.8915,0,3,3,3,1,NA,NA,NA,NA,NA,NA,NA,NA,NA,NA,NA,NA,NA,NA,NA,NA
SUPAMT30004,3MMN5BL1W5373D0NQP1VQUX003BM36,B71E337D-1E59-462B-84C0-838B0D523BDD,2023-09-27_07h30.46.452,WP_VExplicitOC_HL,2022.2.5,Win32,6.357036604,NA,NA,NA,NA,NA,NA,NA,NA,NA,NA,NA,NA,NA,NA,NA,NA,NA,NA,scroll social media,005.png,NA,NA,NA,NA,NA,NA,NA,NA,NA,NA,NA,NA,NA,NA,NA,NA,31.640625,0.8267,0,4,4,4,1,NA,NA,NA,NA,NA,NA,NA,NA,NA,NA,NA,NA,NA,NA,NA,NA
SUPAMT30004,3MMN5BL1W5373D0NQP1VQUX003BM36,B71E337D-1E59-462B-84C0-838B0D523BDD,2023-09-27_07h30.46.452,WP_VExplicitOC_HL,2022.2.5,Win32,6.357036604,NA,NA,NA,NA,NA,NA,NA,NA,NA,NA,NA,NA,NA,NA,NA,NA,NA,NA,listen to music,006.png,NA,NA,NA,NA,NA,NA,NA,NA,NA,NA,NA,NA,NA,NA,NA,NA,33.984375,1.3322,0,5,5,5,1,NA,NA,NA,NA,NA,NA,NA,NA,NA,NA,NA,NA,NA,NA,NA,NA
SUPAMT30004,3MMN5BL1W5373D0NQP1VQUX003BM36,B71E337D-1E59-462B-84C0-838B0D523BDD,2023-09-27_07h30.46.452,WP_VExplicitOC_HL,2022.2.5,Win32,6.357036604,NA,NA,NA,NA,NA,NA,NA,NA,NA,NA,NA,NA,NA,NA,NA,NA,NA,NA,daydream,007.png,NA,NA,NA,NA,NA,NA,NA,NA,NA,NA,NA,NA,NA,NA,NA,NA,77.734375,1.7538,0,6,6,6,1,NA,NA,NA,NA,NA,NA,NA,NA,NA,NA,NA,NA,NA,NA,NA,NA
SUPAMT30004,3MMN5BL1W5373D0NQP1VQUX003BM36,B71E337D-1E59-462B-84C0-838B0D523BDD,2023-09-27_07h30.46.452,WP_VExplicitOC_HL,2022.2.5,Win32,6.357036604,NA,NA,NA,NA,NA,NA,NA,NA,NA,NA,NA,NA,NA,NA,NA,NA,NA,NA,watch a short animation,008.png,NA,NA,NA,NA,NA,NA,NA,NA,NA,NA,NA,NA,NA,NA,NA,NA,57.6171875,1.4711,0,7,7,7,1,NA,NA,NA,NA,NA,NA,NA,NA,NA,NA,NA,NA,NA,NA,NA,NA
SUPAMT30004,3MMN5BL1W5373D0NQP1VQUX003BM36,B71E337D-1E59-462B-84C0-838B0D523BDD,2023-09-27_07h30.46.452,WP_VExplicitOC_HL,2022.2.5,Win32,6.357036604,NA,NA,NA,NA,NA,NA,NA,NA,NA,NA,NA,NA,NA,NA,NA,NA,NA,NA,read a novel,009.png,NA,NA,NA,NA,NA,NA,NA,NA,NA,NA,NA,NA,NA,NA,NA,NA,-29.8828125,1.7772,0,8,8,8,1,NA,NA,NA,NA,NA,NA,NA,NA,NA,NA,NA,NA,NA,NA,NA,NA
SUPAMT30004,3MMN5BL1W5373D0NQP1VQUX003BM36,B71E337D-1E59-462B-84C0-838B0D523BDD,2023-09-27_07h30.46.452,WP_VExplicitOC_HL,2022.2.5,Win32,6.357036604,NA,NA,NA,NA,NA,NA,NA,NA,NA,NA,NA,NA,NA,NA,NA,NA,NA,NA,read the news,010.png,NA,NA,NA,NA,NA,NA,NA,NA,NA,NA,NA,NA,NA,NA,NA,NA,47.0703125,2.0065,0,9,9,9,1,NA,NA,NA,NA,NA,NA,NA,NA,NA,NA,NA,NA,NA,NA,NA,NA
SUPAMT30004,3MMN5BL1W5373D0NQP1VQUX003BM36,B71E337D-1E59-462B-84C0-838B0D523BDD,2023-09-27_07h30.46.452,WP_VExplicitOC_HL,2022.2.5,Win32,6.357036604,NA,NA,NA,NA,NA,NA,NA,NA,NA,NA,NA,NA,NA,NA,NA,NA,NA,NA,NA,NA,NA,NA,NA,NA,NA,NA,NA,NA,NA,NA,NA,NA,NA,NA,NA,NA,NA,NA,NA,NA,NA,NA,NA,stand up,NA,NA,NA,NA,NA,NA,NA,NA,NA,NA,NA,NA,NA,NA,NA
SUPAMT30004,3MMN5BL1W5373D0NQP1VQUX003BM36,B71E337D-1E59-462B-84C0-838B0D523BDD,2023-09-27_07h30.46.452,WP_VExplicitOC_HL,2022.2.5,Win32,6.357036604,-35.9375,4.4228,2.0712,NA,NA,NA,NA,NA,frustrated,"frustrated, not frustrated","more frustrated, less frustrated",NA,NA,NA,NA,NA,NA,NA,NA,NA,NA,NA,NA,NA,NA,NA,NA,NA,NA,NA,NA,NA,NA,NA,NA,NA,NA,NA,NA,NA,NA,NA,NA,NA,0,0,0,1,1,NA,NA,NA,NA,NA,NA,NA,NA,NA,NA
SUPAMT30004,3MMN5BL1W5373D0NQP1VQUX003BM36,B71E337D-1E59-462B-84C0-838B0D523BDD,2023-09-27_07h30.46.452,WP_VExplicitOC_HL,2022.2.5,Win32,6.357036604,57.8125,4.409299999,2.0996,NA,NA,NA,NA,NA,bored,"bored, not bored","more bored, less bored",NA,NA,NA,NA,NA,NA,NA,NA,NA,NA,NA,NA,NA,NA,NA,NA,NA,NA,NA,NA,NA,NA,NA,NA,NA,NA,NA,NA,NA,NA,NA,NA,NA,0,1,1,2,1,NA,NA,NA,NA,NA,NA,NA,NA,NA,NA
SUPAMT30004,3MMN5BL1W5373D0NQP1VQUX003BM36,B71E337D-1E59-462B-84C0-838B0D523BDD,2023-09-27_07h30.46.452,WP_VExplicitOC_HL,2022.2.5,Win32,6.357036604,46.875,4.1864,2.0015,NA,NA,NA,NA,NA,happy,"unhappy, happy","less happy, more happy",NA,NA,NA,NA,NA,NA,NA,NA,NA,NA,NA,NA,NA,NA,NA,NA,NA,NA,NA,NA,NA,NA,NA,NA,NA,NA,NA,NA,NA,NA,NA,NA,NA,0,2,2,0,1,NA,NA,NA,NA,NA,NA,NA,NA,NA,NA
SUPAMT30004,3MMN5BL1W5373D0NQP1VQUX003BM36,B71E337D-1E59-462B-84C0-838B0D523BDD,2023-09-27_07h30.46.452,WP_VExplicitOC_HL,2022.2.5,Win32,6.357036604,NA,NA,NA,NA,NA,NA,NA,NA,NA,NA,NA,NA,NA,NA,NA,NA,NA,NA,NA,NA,NA,NA,NA,NA,NA,NA,NA,NA,NA,NA,NA,NA,NA,NA,NA,NA,NA,NA,NA,NA,NA,NA,NA,NA,NA,NA,NA,NA,NA,NA,NA,NA,NA,NA,NA,NA,NA,NA,NA
SUPAMT30004,3MMN5BL1W5373D0NQP1VQUX003BM36,B71E337D-1E59-462B-84C0-838B0D523BDD,2023-09-27_07h30.46.452,WP_VExplicitOC_HL,2022.2.5,Win32,6.357036604,NA,NA,NA,NA,NA,NA,NA,NA,NA,NA,NA,NA,NA,NA,NA,NA,NA,NA,NA,NA,NA,NA,NA,NA,NA,NA,NA,NA,NA,NA,NA,NA,NA,NA,NA,NA,NA,NA,NA,NA,NA,NA,NA,NA,NA,NA,NA,NA,NA,NA,NA,NA,NA,NA,NA,NA,NA,NA,NA
SUPAMT30004,3MMN5BL1W5373D0NQP1VQUX003BM36,B71E337D-1E59-462B-84C0-838B0D523BDD,2023-09-27_07h30.46.452,WP_VExplicitOC_HL,2022.2.5,Win32,6.357036604,-26.953125,6.7735,2.1117,NA,NA,NA,NA,NA,bored,"bored, not bored","more bored, less bored",NA,NA,NA,NA,NA,NA,NA,NA,NA,NA,NA,NA,NA,NA,NA,NA,NA,NA,NA,NA,NA,NA,NA,NA,NA,NA,NA,NA,NA,NA,NA,NA,NA,NA,NA,NA,NA,NA,0,0,0,2,1,NA,NA,NA,NA,NA
SUPAMT30004,3MMN5BL1W5373D0NQP1VQUX003BM36,B71E337D-1E59-462B-84C0-838B0D523BDD,2023-09-27_07h30.46.452,WP_VExplicitOC_HL,2022.2.5,Win32,6.357036604,68.5546875,3.6419,2.1085,NA,NA,NA,NA,NA,happy,"unhappy, happy","less happy, more happy",NA,NA,NA,NA,NA,NA,NA,NA,NA,NA,NA,NA,NA,NA,NA,NA,NA,NA,NA,NA,NA,NA,NA,NA,NA,NA,NA,NA,NA,NA,NA,NA,NA,NA,NA,NA,NA,NA,0,1,1,0,1,NA,NA,NA,NA,NA
SUPAMT30004,3MMN5BL1W5373D0NQP1VQUX003BM36,B71E337D-1E59-462B-84C0-838B0D523BDD,2023-09-27_07h30.46.452,WP_VExplicitOC_HL,2022.2.5,Win32,6.357036604,-30.859375,4.597099999,2.1656,NA,NA,NA,NA,NA,frustrated,"frustrated, not frustrated","more frustrated, less frustrated",NA,NA,NA,NA,NA,NA,NA,NA,NA,NA,NA,NA,NA,NA,NA,NA,NA,NA,NA,NA,NA,NA,NA,NA,NA,NA,NA,NA,NA,NA,NA,NA,NA,NA,NA,NA,NA,NA,0,2,2,1,1,NA,NA,NA,NA,NA
SUPAMT30004,3MMN5BL1W5373D0NQP1VQUX003BM36,B71E337D-1E59-462B-84C0-838B0D523BDD,2023-09-27_07h30.46.452,WP_VExplicitOC_HL,2022.2.5,Win32,6.357036604,NA,NA,NA,NA,NA,NA,NA,NA,NA,NA,NA,NA,NA,NA,NA,NA,NA,NA,NA,NA,NA,NA,NA,NA,NA,NA,NA,NA,NA,NA,NA,NA,NA,NA,NA,NA,NA,NA,NA,NA,NA,NA,NA,NA,NA,NA,NA,NA,NA,NA,NA,NA,NA,NA,0,0,0,0,1
SUPAMT30004,3MMN5BL1W5373D0NQP1VQUX003BM36,B71E337D-1E59-462B-84C0-838B0D523BDD,2023-09-27_07h30.46.452,WP_VExplicitOC_HL,2022.2.5,Win32,6.357036604,-47.0703125,6.7265,2.132599999,NA,NA,NA,NA,NA,frustrated,"frustrated, not frustrated","more frustrated, less frustrated",NA,NA,NA,NA,NA,NA,NA,NA,NA,NA,NA,NA,NA,NA,NA,NA,NA,NA,NA,NA,NA,NA,NA,NA,NA,NA,NA,NA,NA,NA,NA,NA,NA,NA,NA,NA,NA,NA,0,0,0,1,1,NA,NA,NA,NA,NA
SUPAMT30004,3MMN5BL1W5373D0NQP1VQUX003BM36,B71E337D-1E59-462B-84C0-838B0D523BDD,2023-09-27_07h30.46.452,WP_VExplicitOC_HL,2022.2.5,Win32,6.357036604,NA,NA,2.0169,NA,NA,NA,NA,NA,happy,"unhappy, happy","less happy, more happy",NA,NA,NA,NA,NA,NA,NA,NA,NA,NA,NA,NA,NA,NA,NA,NA,NA,NA,NA,NA,NA,NA,NA,NA,NA,NA,NA,NA,NA,NA,NA,NA,NA,NA,NA,NA,NA,NA,0,1,1,0,1,NA,NA,NA,NA,NA
SUPAMT30004,3MMN5BL1W5373D0NQP1VQUX003BM36,B71E337D-1E59-462B-84C0-838B0D523BDD,2023-09-27_07h30.46.452,WP_VExplicitOC_HL,2022.2.5,Win32,6.357036604,47.265625,3.4043,2.051700001,NA,NA,NA,NA,NA,bored,"bored, not bored","more bored, less bored",NA,NA,NA,NA,NA,NA,NA,NA,NA,NA,NA,NA,NA,NA,NA,NA,NA,NA,NA,NA,NA,NA,NA,NA,NA,NA,NA,NA,NA,NA,NA,NA,NA,NA,NA,NA,NA,NA,0,2,2,2,1,NA,NA,NA,NA,NA
SUPAMT30004,3MMN5BL1W5373D0NQP1VQUX003BM36,B71E337D-1E59-462B-84C0-838B0D523BDD,2023-09-27_07h30.46.452,WP_VExplicitOC_HL,2022.2.5,Win32,6.357036604,NA,NA,NA,NA,NA,NA,NA,NA,NA,NA,NA,NA,NA,NA,NA,NA,NA,NA,NA,NA,NA,NA,NA,NA,NA,NA,NA,NA,NA,NA,NA,NA,NA,NA,NA,NA,NA,NA,NA,NA,NA,NA,NA,NA,NA,NA,NA,NA,NA,NA,NA,NA,NA,NA,1,0,1,0,1
SUPAMT30004,3MMN5BL1W5373D0NQP1VQUX003BM36,B71E337D-1E59-462B-84C0-838B0D523BDD,2023-09-27_07h30.46.452,WP_VExplicitOC_HL,2022.2.5,Win32,6.357036604,34.9609375,4.497099999,2.154400001,NA,NA,NA,NA,NA,bored,"bored, not bored","more bored, less bored",NA,NA,NA,NA,NA,NA,NA,NA,NA,NA,NA,NA,NA,NA,NA,NA,NA,NA,NA,NA,NA,NA,NA,NA,NA,NA,NA,NA,NA,NA,NA,NA,NA,NA,NA,NA,NA,NA,0,0,0,2,1,NA,NA,NA,NA,NA
SUPAMT30004,3MMN5BL1W5373D0NQP1VQUX003BM36,B71E337D-1E59-462B-84C0-838B0D523BDD,2023-09-27_07h30.46.452,WP_VExplicitOC_HL,2022.2.5,Win32,6.357036604,-31.0546875,3.9583,2.0995,NA,NA,NA,NA,NA,frustrated,"frustrated, not frustrated","more frustrated, less frustrated",NA,NA,NA,NA,NA,NA,NA,NA,NA,NA,NA,NA,NA,NA,NA,NA,NA,NA,NA,NA,NA,NA,NA,NA,NA,NA,NA,NA,NA,NA,NA,NA,NA,NA,NA,NA,NA,NA,0,1,1,1,1,NA,NA,NA,NA,NA
SUPAMT30004,3MMN5BL1W5373D0NQP1VQUX003BM36,B71E337D-1E59-462B-84C0-838B0D523BDD,2023-09-27_07h30.46.452,WP_VExplicitOC_HL,2022.2.5,Win32,6.357036604,56.4453125,5.7823,2.0001,NA,NA,NA,NA,NA,happy,"unhappy, happy","less happy, more happy",NA,NA,NA,NA,NA,NA,NA,NA,NA,NA,NA,NA,NA,NA,NA,NA,NA,NA,NA,NA,NA,NA,NA,NA,NA,NA,NA,NA,NA,NA,NA,NA,NA,NA,NA,NA,NA,NA,0,2,2,0,1,NA,NA,NA,NA,NA
SUPAMT30004,3MMN5BL1W5373D0NQP1VQUX003BM36,B71E337D-1E59-462B-84C0-838B0D523BDD,2023-09-27_07h30.46.452,WP_VExplicitOC_HL,2022.2.5,Win32,6.357036604,NA,NA,NA,NA,NA,NA,NA,NA,NA,NA,NA,NA,NA,NA,NA,NA,NA,NA,NA,NA,NA,NA,NA,NA,NA,NA,NA,NA,NA,NA,NA,NA,NA,NA,NA,NA,NA,NA,NA,NA,NA,NA,NA,NA,NA,NA,NA,NA,NA,NA,NA,NA,NA,NA,2,0,2,0,1
SUPAMT30004,3MMN5BL1W5373D0NQP1VQUX003BM36,B71E337D-1E59-462B-84C0-838B0D523BDD,2023-09-27_07h30.46.452,WP_VExplicitOC_HL,2022.2.5,Win32,6.357036604,NA,NA,2.032099999,NA,NA,NA,NA,NA,bored,"bored, not bored","more bored, less bored",NA,NA,NA,NA,NA,NA,NA,NA,NA,NA,NA,NA,NA,NA,NA,NA,NA,NA,NA,NA,NA,NA,NA,NA,NA,NA,NA,NA,NA,NA,NA,NA,NA,NA,NA,NA,NA,NA,0,0,0,2,1,NA,NA,NA,NA,NA
SUPAMT30004,3MMN5BL1W5373D0NQP1VQUX003BM36,B71E337D-1E59-462B-84C0-838B0D523BDD,2023-09-27_07h30.46.452,WP_VExplicitOC_HL,2022.2.5,Win32,6.357036604,-22.4609375,7.1022,2.1263,NA,NA,NA,NA,NA,frustrated,"frustrated, not frustrated","more frustrated, less frustrated",NA,NA,NA,NA,NA,NA,NA,NA,NA,NA,NA,NA,NA,NA,NA,NA,NA,NA,NA,NA,NA,NA,NA,NA,NA,NA,NA,NA,NA,NA,NA,NA,NA,NA,NA,NA,NA,NA,0,1,1,1,1,NA,NA,NA,NA,NA
SUPAMT30004,3MMN5BL1W5373D0NQP1VQUX003BM36,B71E337D-1E59-462B-84C0-838B0D523BDD,2023-09-27_07h30.46.452,WP_VExplicitOC_HL,2022.2.5,Win32,6.357036604,50.9765625,3.5947,2.0062,NA,NA,NA,NA,NA,happy,"unhappy, happy","less happy, more happy",NA,NA,NA,NA,NA,NA,NA,NA,NA,NA,NA,NA,NA,NA,NA,NA,NA,NA,NA,NA,NA,NA,NA,NA,NA,NA,NA,NA,NA,NA,NA,NA,NA,NA,NA,NA,NA,NA,0,2,2,0,1,NA,NA,NA,NA,NA
SUPAMT30004,3MMN5BL1W5373D0NQP1VQUX003BM36,B71E337D-1E59-462B-84C0-838B0D523BDD,2023-09-27_07h30.46.452,WP_VExplicitOC_HL,2022.2.5,Win32,6.357036604,NA,NA,NA,NA,NA,NA,NA,NA,NA,NA,NA,NA,NA,NA,NA,NA,NA,NA,NA,NA,NA,NA,NA,NA,NA,NA,NA,NA,NA,NA,NA,NA,NA,NA,NA,NA,NA,NA,NA,NA,NA,NA,NA,NA,NA,NA,NA,NA,NA,NA,NA,NA,NA,NA,3,0,3,0,1
SUPAMT30004,3MMN5BL1W5373D0NQP1VQUX003BM36,B71E337D-1E59-462B-84C0-838B0D523BDD,2023-09-27_07h30.46.452,WP_VExplicitOC_HL,2022.2.5,Win32,6.357036604,67.578125,3.8991,2.007400001,NA,NA,NA,NA,NA,happy,"unhappy, happy","less happy, more happy",NA,NA,NA,NA,NA,NA,NA,NA,NA,NA,NA,NA,NA,NA,NA,NA,NA,NA,NA,NA,NA,NA,NA,NA,NA,NA,NA,NA,NA,NA,NA,NA,NA,NA,NA,NA,NA,NA,0,0,0,0,1,NA,NA,NA,NA,NA
SUPAMT30004,3MMN5BL1W5373D0NQP1VQUX003BM36,B71E337D-1E59-462B-84C0-838B0D523BDD,2023-09-27_07h30.46.452,WP_VExplicitOC_HL,2022.2.5,Win32,6.357036604,NA,NA,2.011,NA,NA,NA,NA,NA,bored,"bored, not bored","more bored, less bored",NA,NA,NA,NA,NA,NA,NA,NA,NA,NA,NA,NA,NA,NA,NA,NA,NA,NA,NA,NA,NA,NA,NA,NA,NA,NA,NA,NA,NA,NA,NA,NA,NA,NA,NA,NA,NA,NA,0,1,1,2,1,NA,NA,NA,NA,NA
SUPAMT30004,3MMN5BL1W5373D0NQP1VQUX003BM36,B71E337D-1E59-462B-84C0-838B0D523BDD,2023-09-27_07h30.46.452,WP_VExplicitOC_HL,2022.2.5,Win32,6.357036604,50,4.491599999,2.2863,NA,NA,NA,NA,NA,frustrated,"frustrated, not frustrated","more frustrated, less frustrated",NA,NA,NA,NA,NA,NA,NA,NA,NA,NA,NA,NA,NA,NA,NA,NA,NA,NA,NA,NA,NA,NA,NA,NA,NA,NA,NA,NA,NA,NA,NA,NA,NA,NA,NA,NA,NA,NA,0,2,2,1,1,NA,NA,NA,NA,NA
SUPAMT30004,3MMN5BL1W5373D0NQP1VQUX003BM36,B71E337D-1E59-462B-84C0-838B0D523BDD,2023-09-27_07h30.46.452,WP_VExplicitOC_HL,2022.2.5,Win32,6.357036604,NA,NA,NA,NA,NA,NA,NA,NA,NA,NA,NA,NA,NA,NA,NA,NA,NA,NA,NA,NA,NA,NA,NA,NA,NA,NA,NA,NA,NA,NA,NA,NA,NA,NA,NA,NA,NA,NA,NA,NA,NA,NA,NA,NA,NA,NA,NA,NA,NA,NA,NA,NA,NA,NA,4,0,4,0,1
SUPAMT30004,3MMN5BL1W5373D0NQP1VQUX003BM36,B71E337D-1E59-462B-84C0-838B0D523BDD,2023-09-27_07h30.46.452,WP_VExplicitOC_HL,2022.2.5,Win32,6.357036604,64.84375,4.850200001,2.1178,NA,NA,NA,NA,NA,happy,"unhappy, happy","less happy, more happy",NA,NA,NA,NA,NA,NA,NA,NA,NA,NA,NA,NA,NA,NA,NA,NA,NA,NA,NA,NA,NA,NA,NA,NA,NA,NA,NA,NA,NA,NA,NA,NA,NA,NA,NA,NA,NA,NA,0,0,0,0,1,NA,NA,NA,NA,NA
SUPAMT30004,3MMN5BL1W5373D0NQP1VQUX003BM36,B71E337D-1E59-462B-84C0-838B0D523BDD,2023-09-27_07h30.46.452,WP_VExplicitOC_HL,2022.2.5,Win32,6.357036604,62.890625,4.351,2.0346,NA,NA,NA,NA,NA,frustrated,"frustrated, not frustrated","more frustrated, less frustrated",NA,NA,NA,NA,NA,NA,NA,NA,NA,NA,NA,NA,NA,NA,NA,NA,NA,NA,NA,NA,NA,NA,NA,NA,NA,NA,NA,NA,NA,NA,NA,NA,NA,NA,NA,NA,NA,NA,0,1,1,1,1,NA,NA,NA,NA,NA
SUPAMT30004,3MMN5BL1W5373D0NQP1VQUX003BM36,B71E337D-1E59-462B-84C0-838B0D523BDD,2023-09-27_07h30.46.452,WP_VExplicitOC_HL,2022.2.5,Win32,6.357036604,65.234375,4.0696,2.0524,NA,NA,NA,NA,NA,bored,"bored, not bored","more bored, less bored",NA,NA,NA,NA,NA,NA,NA,NA,NA,NA,NA,NA,NA,NA,NA,NA,NA,NA,NA,NA,NA,NA,NA,NA,NA,NA,NA,NA,NA,NA,NA,NA,NA,NA,NA,NA,NA,NA,0,2,2,2,1,NA,NA,NA,NA,NA
SUPAMT30004,3MMN5BL1W5373D0NQP1VQUX003BM36,B71E337D-1E59-462B-84C0-838B0D523BDD,2023-09-27_07h30.46.452,WP_VExplicitOC_HL,2022.2.5,Win32,6.357036604,NA,NA,NA,NA,NA,NA,NA,NA,NA,NA,NA,NA,NA,NA,NA,NA,NA,NA,NA,NA,NA,NA,NA,NA,NA,NA,NA,NA,NA,NA,NA,NA,NA,NA,NA,NA,NA,NA,NA,NA,NA,NA,NA,NA,NA,NA,NA,NA,NA,NA,NA,NA,NA,NA,5,0,5,0,1
SUPAMT30004,3MMN5BL1W5373D0NQP1VQUX003BM36,B71E337D-1E59-462B-84C0-838B0D523BDD,2023-09-27_07h30.46.452,WP_VExplicitOC_HL,2022.2.5,Win32,6.357036604,-19.7265625,4.8471,2.0863,NA,NA,NA,NA,NA,frustrated,"frustrated, not frustrated","more frustrated, less frustrated",NA,NA,NA,NA,NA,NA,NA,NA,NA,NA,NA,NA,NA,NA,NA,NA,NA,NA,NA,NA,NA,NA,NA,NA,NA,NA,NA,NA,NA,NA,NA,NA,NA,NA,NA,NA,NA,NA,0,0,0,1,1,NA,NA,NA,NA,NA
SUPAMT30004,3MMN5BL1W5373D0NQP1VQUX003BM36,B71E337D-1E59-462B-84C0-838B0D523BDD,2023-09-27_07h30.46.452,WP_VExplicitOC_HL,2022.2.5,Win32,6.357036604,38.8671875,4.2498,2.0633,NA,NA,NA,NA,NA,bored,"bored, not bored","more bored, less bored",NA,NA,NA,NA,NA,NA,NA,NA,NA,NA,NA,NA,NA,NA,NA,NA,NA,NA,NA,NA,NA,NA,NA,NA,NA,NA,NA,NA,NA,NA,NA,NA,NA,NA,NA,NA,NA,NA,0,1,1,2,1,NA,NA,NA,NA,NA
SUPAMT30004,3MMN5BL1W5373D0NQP1VQUX003BM36,B71E337D-1E59-462B-84C0-838B0D523BDD,2023-09-27_07h30.46.452,WP_VExplicitOC_HL,2022.2.5,Win32,6.357036604,36.71875,4.095599999,2.091,NA,NA,NA,NA,NA,happy,"unhappy, happy","less happy, more happy",NA,NA,NA,NA,NA,NA,NA,NA,NA,NA,NA,NA,NA,NA,NA,NA,NA,NA,NA,NA,NA,NA,NA,NA,NA,NA,NA,NA,NA,NA,NA,NA,NA,NA,NA,NA,NA,NA,0,2,2,0,1,NA,NA,NA,NA,NA
SUPAMT30004,3MMN5BL1W5373D0NQP1VQUX003BM36,B71E337D-1E59-462B-84C0-838B0D523BDD,2023-09-27_07h30.46.452,WP_VExplicitOC_HL,2022.2.5,Win32,6.357036604,NA,NA,NA,NA,NA,NA,NA,NA,NA,NA,NA,NA,NA,NA,NA,NA,NA,NA,NA,NA,NA,NA,NA,NA,NA,NA,NA,NA,NA,NA,NA,NA,NA,NA,NA,NA,NA,NA,NA,NA,NA,NA,NA,NA,NA,NA,NA,NA,NA,NA,NA,NA,NA,NA,6,0,6,0,1
SUPAMT30004,3MMN5BL1W5373D0NQP1VQUX003BM36,B71E337D-1E59-462B-84C0-838B0D523BDD,2023-09-27_07h30.46.452,WP_VExplicitOC_HL,2022.2.5,Win32,6.357036604,48.4375,3.6244,2.054400001,NA,NA,NA,NA,NA,happy,"unhappy, happy","less happy, more happy",NA,NA,NA,NA,NA,NA,NA,NA,NA,NA,NA,NA,NA,NA,NA,NA,NA,NA,NA,NA,NA,NA,NA,NA,NA,NA,NA,NA,NA,NA,NA,NA,NA,NA,NA,NA,NA,NA,0,0,0,0,1,NA,NA,NA,NA,NA
SUPAMT30004,3MMN5BL1W5373D0NQP1VQUX003BM36,B71E337D-1E59-462B-84C0-838B0D523BDD,2023-09-27_07h30.46.452,WP_VExplicitOC_HL,2022.2.5,Win32,6.357036604,64.0625,4.4828,2.0756,NA,NA,NA,NA,NA,bored,"bored, not bored","more bored, less bored",NA,NA,NA,NA,NA,NA,NA,NA,NA,NA,NA,NA,NA,NA,NA,NA,NA,NA,NA,NA,NA,NA,NA,NA,NA,NA,NA,NA,NA,NA,NA,NA,NA,NA,NA,NA,NA,NA,0,1,1,2,1,NA,NA,NA,NA,NA
SUPAMT30004,3MMN5BL1W5373D0NQP1VQUX003BM36,B71E337D-1E59-462B-84C0-838B0D523BDD,2023-09-27_07h30.46.452,WP_VExplicitOC_HL,2022.2.5,Win32,6.357036604,-29.1015625,3.6572,2.0958,NA,NA,NA,NA,NA,frustrated,"frustrated, not frustrated","more frustrated, less frustrated",NA,NA,NA,NA,NA,NA,NA,NA,NA,NA,NA,NA,NA,NA,NA,NA,NA,NA,NA,NA,NA,NA,NA,NA,NA,NA,NA,NA,NA,NA,NA,NA,NA,NA,NA,NA,NA,NA,0,2,2,1,1,NA,NA,NA,NA,NA
SUPAMT30004,3MMN5BL1W5373D0NQP1VQUX003BM36,B71E337D-1E59-462B-84C0-838B0D523BDD,2023-09-27_07h30.46.452,WP_VExplicitOC_HL,2022.2.5,Win32,6.357036604,NA,NA,NA,NA,NA,NA,NA,NA,NA,NA,NA,NA,NA,NA,NA,NA,NA,NA,NA,NA,NA,NA,NA,NA,NA,NA,NA,NA,NA,NA,NA,NA,NA,NA,NA,NA,NA,NA,NA,NA,NA,NA,NA,NA,NA,NA,NA,NA,NA,NA,NA,NA,NA,NA,7,0,7,0,1
SUPAMT30004,3MMN5BL1W5373D0NQP1VQUX003BM36,B71E337D-1E59-462B-84C0-838B0D523BDD,2023-09-27_07h30.46.452,WP_VExplicitOC_HL,2022.2.5,Win32,6.357036604,31.25,4.5987,2.151700001,NA,NA,NA,NA,NA,bored,"bored, not bored","more bored, less bored",NA,NA,NA,NA,NA,NA,NA,NA,NA,NA,NA,NA,NA,NA,NA,NA,NA,NA,NA,NA,NA,NA,NA,NA,NA,NA,NA,NA,NA,NA,NA,NA,NA,NA,NA,NA,NA,NA,0,0,0,2,1,NA,NA,NA,NA,NA
SUPAMT30004,3MMN5BL1W5373D0NQP1VQUX003BM36,B71E337D-1E59-462B-84C0-838B0D523BDD,2023-09-27_07h30.46.452,WP_VExplicitOC_HL,2022.2.5,Win32,6.357036604,31.640625,4.1191,2.122,NA,NA,NA,NA,NA,frustrated,"frustrated, not frustrated","more frustrated, less frustrated",NA,NA,NA,NA,NA,NA,NA,NA,NA,NA,NA,NA,NA,NA,NA,NA,NA,NA,NA,NA,NA,NA,NA,NA,NA,NA,NA,NA,NA,NA,NA,NA,NA,NA,NA,NA,NA,NA,0,1,1,1,1,NA,NA,NA,NA,NA
SUPAMT30004,3MMN5BL1W5373D0NQP1VQUX003BM36,B71E337D-1E59-462B-84C0-838B0D523BDD,2023-09-27_07h30.46.452,WP_VExplicitOC_HL,2022.2.5,Win32,6.357036604,35.546875,3.9863,2.0103,NA,NA,NA,NA,NA,happy,"unhappy, happy","less happy, more happy",NA,NA,NA,NA,NA,NA,NA,NA,NA,NA,NA,NA,NA,NA,NA,NA,NA,NA,NA,NA,NA,NA,NA,NA,NA,NA,NA,NA,NA,NA,NA,NA,NA,NA,NA,NA,NA,NA,0,2,2,0,1,NA,NA,NA,NA,NA
SUPAMT30004,3MMN5BL1W5373D0NQP1VQUX003BM36,B71E337D-1E59-462B-84C0-838B0D523BDD,2023-09-27_07h30.46.452,WP_VExplicitOC_HL,2022.2.5,Win32,6.357036604,NA,NA,NA,NA,NA,NA,NA,NA,NA,NA,NA,NA,NA,NA,NA,NA,NA,NA,NA,NA,NA,NA,NA,NA,NA,NA,NA,NA,NA,NA,NA,NA,NA,NA,NA,NA,NA,NA,NA,NA,NA,NA,NA,NA,NA,NA,NA,NA,NA,NA,NA,NA,NA,NA,8,0,8,0,1
SUPAMT30004,3MMN5BL1W5373D0NQP1VQUX003BM36,B71E337D-1E59-462B-84C0-838B0D523BDD,2023-09-27_07h30.46.452,WP_VExplicitOC_HL,2022.2.5,Win32,6.357036604,30.6640625,4.7697,2.0371,NA,NA,NA,NA,NA,frustrated,"frustrated, not frustrated","more frustrated, less frustrated",NA,NA,NA,NA,NA,NA,NA,NA,NA,NA,NA,NA,NA,NA,NA,NA,NA,NA,NA,NA,NA,NA,NA,NA,NA,NA,NA,NA,NA,NA,NA,NA,NA,NA,NA,NA,NA,NA,0,0,0,1,1,NA,NA,NA,NA,NA
SUPAMT30004,3MMN5BL1W5373D0NQP1VQUX003BM36,B71E337D-1E59-462B-84C0-838B0D523BDD,2023-09-27_07h30.46.452,WP_VExplicitOC_HL,2022.2.5,Win32,6.357036604,39.2578125,5.6608,2.0532,NA,NA,NA,NA,NA,bored,"bored, not bored","more bored, less bored",NA,NA,NA,NA,NA,NA,NA,NA,NA,NA,NA,NA,NA,NA,NA,NA,NA,NA,NA,NA,NA,NA,NA,NA,NA,NA,NA,NA,NA,NA,NA,NA,NA,NA,NA,NA,NA,NA,0,1,1,2,1,NA,NA,NA,NA,NA
SUPAMT30004,3MMN5BL1W5373D0NQP1VQUX003BM36,B71E337D-1E59-462B-84C0-838B0D523BDD,2023-09-27_07h30.46.452,WP_VExplicitOC_HL,2022.2.5,Win32,6.357036604,45.3125,4.0443,2.019900001,NA,NA,NA,NA,NA,happy,"unhappy, happy","less happy, more happy",NA,NA,NA,NA,NA,NA,NA,NA,NA,NA,NA,NA,NA,NA,NA,NA,NA,NA,NA,NA,NA,NA,NA,NA,NA,NA,NA,NA,NA,NA,NA,NA,NA,NA,NA,NA,NA,NA,0,2,2,0,1,NA,NA,NA,NA,NA
SUPAMT30004,3MMN5BL1W5373D0NQP1VQUX003BM36,B71E337D-1E59-462B-84C0-838B0D523BDD,2023-09-27_07h30.46.452,WP_VExplicitOC_HL,2022.2.5,Win32,6.357036604,NA,NA,NA,NA,NA,NA,NA,NA,NA,NA,NA,NA,NA,NA,NA,NA,NA,NA,NA,NA,NA,NA,NA,NA,NA,NA,NA,NA,NA,NA,NA,NA,NA,NA,NA,NA,NA,NA,NA,NA,NA,NA,NA,NA,NA,NA,NA,NA,NA,NA,NA,NA,NA,NA,9,0,9,0,1
SUPAMT30004,3MMN5BL1W5373D0NQP1VQUX003BM36,B71E337D-1E59-462B-84C0-838B0D523BDD,2023-09-27_07h30.46.452,WP_VExplicitOC_HL,2022.2.5,Win32,6.357036604,-21.2890625,4.134299999,2.071200001,NA,NA,NA,NA,NA,frustrated,"frustrated, not frustrated","more frustrated, less frustrated",NA,NA,NA,NA,NA,NA,NA,NA,NA,NA,NA,NA,NA,NA,NA,NA,NA,NA,NA,NA,NA,NA,NA,NA,NA,NA,NA,NA,NA,NA,NA,NA,NA,NA,NA,NA,NA,NA,0,0,0,1,1,NA,NA,NA,NA,NA
SUPAMT30004,3MMN5BL1W5373D0NQP1VQUX003BM36,B71E337D-1E59-462B-84C0-838B0D523BDD,2023-09-27_07h30.46.452,WP_VExplicitOC_HL,2022.2.5,Win32,6.357036604,NA,NA,2.11,NA,NA,NA,NA,NA,happy,"unhappy, happy","less happy, more happy",NA,NA,NA,NA,NA,NA,NA,NA,NA,NA,NA,NA,NA,NA,NA,NA,NA,NA,NA,NA,NA,NA,NA,NA,NA,NA,NA,NA,NA,NA,NA,NA,NA,NA,NA,NA,NA,NA,0,1,1,0,1,NA,NA,NA,NA,NA
SUPAMT30004,3MMN5BL1W5373D0NQP1VQUX003BM36,B71E337D-1E59-462B-84C0-838B0D523BDD,2023-09-27_07h30.46.452,WP_VExplicitOC_HL,2022.2.5,Win32,6.357036604,NA,NA,2.1115,NA,NA,NA,NA,NA,bored,"bored, not bored","more bored, less bored",NA,NA,NA,NA,NA,NA,NA,NA,NA,NA,NA,NA,NA,NA,NA,NA,NA,NA,NA,NA,NA,NA,NA,NA,NA,NA,NA,NA,NA,NA,NA,NA,NA,NA,NA,NA,NA,NA,0,2,2,2,1,NA,NA,NA,NA,NA
SUPAMT30004,3MMN5BL1W5373D0NQP1VQUX003BM36,B71E337D-1E59-462B-84C0-838B0D523BDD,2023-09-27_07h30.46.452,WP_VExplicitOC_HL,2022.2.5,Win32,6.357036604,NA,NA,NA,NA,NA,NA,NA,NA,NA,NA,NA,NA,NA,NA,NA,NA,NA,NA,NA,NA,NA,NA,NA,NA,NA,NA,NA,NA,NA,NA,NA,NA,NA,NA,NA,NA,NA,NA,NA,NA,NA,NA,NA,NA,NA,NA,NA,NA,NA,NA,NA,NA,NA,NA,10,0,10,0,1
SUPAMT30004,3MMN5BL1W5373D0NQP1VQUX003BM36,B71E337D-1E59-462B-84C0-838B0D523BDD,2023-09-27_07h30.46.452,WP_VExplicitOC_HL,2022.2.5,Win32,6.357036604,-24.21875,4.044,2.025900001,NA,NA,NA,NA,NA,bored,"bored, not bored","more bored, less bored",NA,NA,NA,NA,NA,NA,NA,NA,NA,NA,NA,NA,NA,NA,NA,NA,NA,NA,NA,NA,NA,NA,NA,NA,NA,NA,NA,NA,NA,NA,NA,NA,NA,NA,NA,NA,NA,NA,0,0,0,2,1,NA,NA,NA,NA,NA
SUPAMT30004,3MMN5BL1W5373D0NQP1VQUX003BM36,B71E337D-1E59-462B-84C0-838B0D523BDD,2023-09-27_07h30.46.452,WP_VExplicitOC_HL,2022.2.5,Win32,6.357036604,35.546875,4.9405,2.1178,NA,NA,NA,NA,NA,happy,"unhappy, happy","less happy, more happy",NA,NA,NA,NA,NA,NA,NA,NA,NA,NA,NA,NA,NA,NA,NA,NA,NA,NA,NA,NA,NA,NA,NA,NA,NA,NA,NA,NA,NA,NA,NA,NA,NA,NA,NA,NA,NA,NA,0,1,1,0,1,NA,NA,NA,NA,NA
SUPAMT30004,3MMN5BL1W5373D0NQP1VQUX003BM36,B71E337D-1E59-462B-84C0-838B0D523BDD,2023-09-27_07h30.46.452,WP_VExplicitOC_HL,2022.2.5,Win32,6.357036604,39.0625,4.488599999,2.1113,NA,NA,NA,NA,NA,frustrated,"frustrated, not frustrated","more frustrated, less frustrated",NA,NA,NA,NA,NA,NA,NA,NA,NA,NA,NA,NA,NA,NA,NA,NA,NA,NA,NA,NA,NA,NA,NA,NA,NA,NA,NA,NA,NA,NA,NA,NA,NA,NA,NA,NA,NA,NA,0,2,2,1,1,NA,NA,NA,NA,NA
SUPAMT30004,3MMN5BL1W5373D0NQP1VQUX003BM36,B71E337D-1E59-462B-84C0-838B0D523BDD,2023-09-27_07h30.46.452,WP_VExplicitOC_HL,2022.2.5,Win32,6.357036604,NA,NA,NA,NA,NA,NA,NA,NA,NA,NA,NA,NA,NA,NA,NA,NA,NA,NA,NA,NA,NA,NA,NA,NA,NA,NA,NA,NA,NA,NA,NA,NA,NA,NA,NA,NA,NA,NA,NA,NA,NA,NA,NA,NA,NA,NA,NA,NA,NA,NA,NA,NA,NA,NA,11,0,11,0,1
SUPAMT30004,3MMN5BL1W5373D0NQP1VQUX003BM36,B71E337D-1E59-462B-84C0-838B0D523BDD,2023-09-27_07h30.46.452,WP_VExplicitOC_HL,2022.2.5,Win32,6.357036604,-38.28125,3.7625,2.0252,NA,NA,NA,NA,NA,bored,"bored, not bored","more bored, less bored",NA,NA,NA,NA,NA,NA,NA,NA,NA,NA,NA,NA,NA,NA,NA,NA,NA,NA,NA,NA,NA,NA,NA,NA,NA,NA,NA,NA,NA,NA,NA,NA,NA,NA,NA,NA,NA,NA,0,0,0,2,1,NA,NA,NA,NA,NA
SUPAMT30004,3MMN5BL1W5373D0NQP1VQUX003BM36,B71E337D-1E59-462B-84C0-838B0D523BDD,2023-09-27_07h30.46.452,WP_VExplicitOC_HL,2022.2.5,Win32,6.357036604,44.140625,4.8592,2.143,NA,NA,NA,NA,NA,happy,"unhappy, happy","less happy, more happy",NA,NA,NA,NA,NA,NA,NA,NA,NA,NA,NA,NA,NA,NA,NA,NA,NA,NA,NA,NA,NA,NA,NA,NA,NA,NA,NA,NA,NA,NA,NA,NA,NA,NA,NA,NA,NA,NA,0,1,1,0,1,NA,NA,NA,NA,NA
SUPAMT30004,3MMN5BL1W5373D0NQP1VQUX003BM36,B71E337D-1E59-462B-84C0-838B0D523BDD,2023-09-27_07h30.46.452,WP_VExplicitOC_HL,2022.2.5,Win32,6.357036604,43.359375,3.4187,2.0047,NA,NA,NA,NA,NA,frustrated,"frustrated, not frustrated","more frustrated, less frustrated",NA,NA,NA,NA,NA,NA,NA,NA,NA,NA,NA,NA,NA,NA,NA,NA,NA,NA,NA,NA,NA,NA,NA,NA,NA,NA,NA,NA,NA,NA,NA,NA,NA,NA,NA,NA,NA,NA,0,2,2,1,1,NA,NA,NA,NA,NA
SUPAMT30004,3MMN5BL1W5373D0NQP1VQUX003BM36,B71E337D-1E59-462B-84C0-838B0D523BDD,2023-09-27_07h30.46.452,WP_VExplicitOC_HL,2022.2.5,Win32,6.357036604,NA,NA,NA,NA,NA,NA,NA,NA,NA,NA,NA,NA,NA,NA,NA,NA,NA,NA,NA,NA,NA,NA,NA,NA,NA,NA,NA,NA,NA,NA,NA,NA,NA,NA,NA,NA,NA,NA,NA,NA,NA,NA,NA,NA,NA,NA,NA,NA,NA,NA,NA,NA,NA,NA,12,0,12,0,1
SUPAMT30004,3MMN5BL1W5373D0NQP1VQUX003BM36,B71E337D-1E59-462B-84C0-838B0D523BDD,2023-09-27_07h30.46.452,WP_VExplicitOC_HL,2022.2.5,Win32,6.357036604,-36.9140625,4.0912,2.0977,NA,NA,NA,NA,NA,bored,"bored, not bored","more bored, less bored",NA,NA,NA,NA,NA,NA,NA,NA,NA,NA,NA,NA,NA,NA,NA,NA,NA,NA,NA,NA,NA,NA,NA,NA,NA,NA,NA,NA,NA,NA,NA,NA,NA,NA,NA,NA,NA,NA,0,0,0,2,1,NA,NA,NA,NA,NA
SUPAMT30004,3MMN5BL1W5373D0NQP1VQUX003BM36,B71E337D-1E59-462B-84C0-838B0D523BDD,2023-09-27_07h30.46.452,WP_VExplicitOC_HL,2022.2.5,Win32,6.357036604,-36.9140625,3.9534,2.0742,NA,NA,NA,NA,NA,frustrated,"frustrated, not frustrated","more frustrated, less frustrated",NA,NA,NA,NA,NA,NA,NA,NA,NA,NA,NA,NA,NA,NA,NA,NA,NA,NA,NA,NA,NA,NA,NA,NA,NA,NA,NA,NA,NA,NA,NA,NA,NA,NA,NA,NA,NA,NA,0,1,1,1,1,NA,NA,NA,NA,NA
SUPAMT30004,3MMN5BL1W5373D0NQP1VQUX003BM36,B71E337D-1E59-462B-84C0-838B0D523BDD,2023-09-27_07h30.46.452,WP_VExplicitOC_HL,2022.2.5,Win32,6.357036604,45.703125,4.2118,2.001200001,NA,NA,NA,NA,NA,happy,"unhappy, happy","less happy, more happy",NA,NA,NA,NA,NA,NA,NA,NA,NA,NA,NA,NA,NA,NA,NA,NA,NA,NA,NA,NA,NA,NA,NA,NA,NA,NA,NA,NA,NA,NA,NA,NA,NA,NA,NA,NA,NA,NA,0,2,2,0,1,NA,NA,NA,NA,NA
SUPAMT30004,3MMN5BL1W5373D0NQP1VQUX003BM36,B71E337D-1E59-462B-84C0-838B0D523BDD,2023-09-27_07h30.46.452,WP_VExplicitOC_HL,2022.2.5,Win32,6.357036604,NA,NA,NA,NA,NA,NA,NA,NA,NA,NA,NA,NA,NA,NA,NA,NA,NA,NA,NA,NA,NA,NA,NA,NA,NA,NA,NA,NA,NA,NA,NA,NA,NA,NA,NA,NA,NA,NA,NA,NA,NA,NA,NA,NA,NA,NA,NA,NA,NA,NA,NA,NA,NA,NA,13,0,13,0,1
SUPAMT30004,3MMN5BL1W5373D0NQP1VQUX003BM36,B71E337D-1E59-462B-84C0-838B0D523BDD,2023-09-27_07h30.46.452,WP_VExplicitOC_HL,2022.2.5,Win32,6.357036604,NA,NA,2.061400001,NA,NA,NA,NA,NA,happy,"unhappy, happy","less happy, more happy",NA,NA,NA,NA,NA,NA,NA,NA,NA,NA,NA,NA,NA,NA,NA,NA,NA,NA,NA,NA,NA,NA,NA,NA,NA,NA,NA,NA,NA,NA,NA,NA,NA,NA,NA,NA,NA,NA,0,0,0,0,1,NA,NA,NA,NA,NA
SUPAMT30004,3MMN5BL1W5373D0NQP1VQUX003BM36,B71E337D-1E59-462B-84C0-838B0D523BDD,2023-09-27_07h30.46.452,WP_VExplicitOC_HL,2022.2.5,Win32,6.357036604,-51.7578125,5.451900001,2.1661,NA,NA,NA,NA,NA,bored,"bored, not bored","more bored, less bored",NA,NA,NA,NA,NA,NA,NA,NA,NA,NA,NA,NA,NA,NA,NA,NA,NA,NA,NA,NA,NA,NA,NA,NA,NA,NA,NA,NA,NA,NA,NA,NA,NA,NA,NA,NA,NA,NA,0,1,1,2,1,NA,NA,NA,NA,NA
SUPAMT30004,3MMN5BL1W5373D0NQP1VQUX003BM36,B71E337D-1E59-462B-84C0-838B0D523BDD,2023-09-27_07h30.46.452,WP_VExplicitOC_HL,2022.2.5,Win32,6.357036604,34.375,6.706,2.0457,NA,NA,NA,NA,NA,frustrated,"frustrated, not frustrated","more frustrated, less frustrated",NA,NA,NA,NA,NA,NA,NA,NA,NA,NA,NA,NA,NA,NA,NA,NA,NA,NA,NA,NA,NA,NA,NA,NA,NA,NA,NA,NA,NA,NA,NA,NA,NA,NA,NA,NA,NA,NA,0,2,2,1,1,NA,NA,NA,NA,NA
SUPAMT30004,3MMN5BL1W5373D0NQP1VQUX003BM36,B71E337D-1E59-462B-84C0-838B0D523BDD,2023-09-27_07h30.46.452,WP_VExplicitOC_HL,2022.2.5,Win32,6.357036604,NA,NA,NA,NA,NA,NA,NA,NA,NA,NA,NA,NA,NA,NA,NA,NA,NA,NA,NA,NA,NA,NA,NA,NA,NA,NA,NA,NA,NA,NA,NA,NA,NA,NA,NA,NA,NA,NA,NA,NA,NA,NA,NA,NA,NA,NA,NA,NA,NA,NA,NA,NA,NA,NA,14,0,14,0,1
SUPAMT30004,3MMN5BL1W5373D0NQP1VQUX003BM36,B71E337D-1E59-462B-84C0-838B0D523BDD,2023-09-27_07h30.46.452,WP_VExplicitOC_HL,2022.2.5,Win32,6.357036604,NA,NA,NA,NA,NA,NA,NA,NA,NA,NA,NA,NA,NA,NA,NA,NA,NA,NA,NA,NA,NA,NA,NA,NA,NA,NA,NA,NA,NA,NA,NA,NA,NA,NA,NA,NA,NA,NA,NA,NA,NA,NA,NA,NA,NA,NA,NA,NA,NA,NA,NA,NA,NA,NA,NA,NA,NA,NA,NA
