participant,session,completion,date,expName,psychopyVersion,OS,frameRate,rating_all.response,rating_all.rt,rating_all.tStart,rndRat1.thisRepN,rndRat1.thisTrialN,rndRat1.thisN,rndRat1.thisIndex,rndRat1.ran,Emo,Labs,Labs2,rating_alt.response,rating_alt.rt,AltC.thisRepN,AltC.thisTrialN,AltC.thisN,AltC.thisIndex,AltC.ran,alt_choices,pic_choices,BottomAlt_Choice,rndRat2.thisRepN,rndRat2.thisTrialN,rndRat2.thisN,rndRat2.thisIndex,rndRat2.ran,rndRat3.thisRepN,rndRat3.thisTrialN,rndRat3.thisN,rndRat3.thisIndex,rndRat3.ran,trials_FC_L.thisRepN,trials_FC_L.thisTrialN,trials_FC_L.thisN,trials_FC_L.thisIndex,trials_FC_L.ran,rating_alt_2.response,rating_alt_2.rt,AltC2.thisRepN,AltC2.thisTrialN,AltC2.thisN,AltC2.thisIndex,AltC2.ran,TopAlt_Choice,rndRat4.thisRepN,rndRat4.thisTrialN,rndRat4.thisN,rndRat4.thisIndex,rndRat4.ran,rndRat5.thisRepN,rndRat5.thisTrialN,rndRat5.thisN,rndRat5.thisIndex,rndRat5.ran,trials_FC_H.thisRepN,trials_FC_H.thisTrialN,trials_FC_H.thisN,trials_FC_H.thisIndex,trials_FC_H.ran
SUPAMT43564,3C6FJU71TWSRWO2KOCL77YA7MQIYUP,AC0BA02A-85A6-42AE-880D-882BC5A4B1FF,2023-09-27_08h30.27.687,WP_VExplicitOC_LH,2022.2.5,Win32,8.016289099,NA,NA,NA,NA,NA,NA,NA,NA,NA,NA,NA,NA,NA,NA,NA,NA,NA,NA,NA,NA,NA,NA,NA,NA,NA,NA,NA,NA,NA,NA,NA,NA,NA,NA,NA,NA,NA,NA,NA,NA,NA,NA,NA,NA,NA,NA,NA,NA,NA,NA,NA,NA,NA,NA,NA,NA,NA,NA,NA
SUPAMT43564,3C6FJU71TWSRWO2KOCL77YA7MQIYUP,AC0BA02A-85A6-42AE-880D-882BC5A4B1FF,2023-09-27_08h30.27.687,WP_VExplicitOC_LH,2022.2.5,Win32,8.016289099,NA,NA,NA,NA,NA,NA,NA,NA,NA,NA,NA,NA,NA,NA,NA,NA,NA,NA,NA,NA,NA,NA,NA,NA,NA,NA,NA,NA,NA,NA,NA,NA,NA,NA,NA,NA,NA,NA,NA,NA,NA,NA,NA,NA,NA,NA,NA,NA,NA,NA,NA,NA,NA,NA,NA,NA,NA,NA,NA
SUPAMT43564,3C6FJU71TWSRWO2KOCL77YA7MQIYUP,AC0BA02A-85A6-42AE-880D-882BC5A4B1FF,2023-09-27_08h30.27.687,WP_VExplicitOC_LH,2022.2.5,Win32,8.016289099,NA,NA,NA,NA,NA,NA,NA,NA,NA,NA,NA,NA,NA,NA,NA,NA,NA,NA,NA,NA,NA,NA,NA,NA,NA,NA,NA,NA,NA,NA,NA,NA,NA,NA,NA,NA,NA,NA,NA,NA,NA,NA,NA,NA,NA,NA,NA,NA,NA,NA,NA,NA,NA,NA,NA,NA,NA,NA,NA
SUPAMT43564,3C6FJU71TWSRWO2KOCL77YA7MQIYUP,AC0BA02A-85A6-42AE-880D-882BC5A4B1FF,2023-09-27_08h30.27.687,WP_VExplicitOC_LH,2022.2.5,Win32,8.016289099,52.86458333,7.228,2.0042,0,0,0,1,1,frustrated,"frustrated, not frustrated","more frustrated, less frustrated",NA,NA,NA,NA,NA,NA,NA,NA,NA,NA,NA,NA,NA,NA,NA,NA,NA,NA,NA,NA,NA,NA,NA,NA,NA,NA,NA,NA,NA,NA,NA,NA,NA,NA,NA,NA,NA,NA,NA,NA,NA,NA,NA,NA,NA,NA,NA,NA
SUPAMT43564,3C6FJU71TWSRWO2KOCL77YA7MQIYUP,AC0BA02A-85A6-42AE-880D-882BC5A4B1FF,2023-09-27_08h30.27.687,WP_VExplicitOC_LH,2022.2.5,Win32,8.016289099,53.64583333,5.7467,2.0411,0,1,1,0,1,happy,"unhappy, happy","less happy, more happy",NA,NA,NA,NA,NA,NA,NA,NA,NA,NA,NA,NA,NA,NA,NA,NA,NA,NA,NA,NA,NA,NA,NA,NA,NA,NA,NA,NA,NA,NA,NA,NA,NA,NA,NA,NA,NA,NA,NA,NA,NA,NA,NA,NA,NA,NA,NA,NA
SUPAMT43564,3C6FJU71TWSRWO2KOCL77YA7MQIYUP,AC0BA02A-85A6-42AE-880D-882BC5A4B1FF,2023-09-27_08h30.27.687,WP_VExplicitOC_LH,2022.2.5,Win32,8.016289099,43.22916667,5.7621,2.158,0,2,2,2,1,bored,"bored, not bored","more bored, less bored",NA,NA,NA,NA,NA,NA,NA,NA,NA,NA,NA,NA,NA,NA,NA,NA,NA,NA,NA,NA,NA,NA,NA,NA,NA,NA,NA,NA,NA,NA,NA,NA,NA,NA,NA,NA,NA,NA,NA,NA,NA,NA,NA,NA,NA,NA,NA,NA
SUPAMT43564,3C6FJU71TWSRWO2KOCL77YA7MQIYUP,AC0BA02A-85A6-42AE-880D-882BC5A4B1FF,2023-09-27_08h30.27.687,WP_VExplicitOC_LH,2022.2.5,Win32,8.016289099,NA,NA,NA,NA,NA,NA,NA,NA,NA,NA,NA,NA,NA,NA,NA,NA,NA,NA,NA,NA,NA,NA,NA,NA,NA,NA,NA,NA,NA,NA,NA,NA,NA,NA,NA,NA,NA,NA,NA,NA,NA,NA,NA,NA,NA,NA,NA,NA,NA,NA,NA,NA,NA,NA,NA,NA,NA,NA,NA
SUPAMT43564,3C6FJU71TWSRWO2KOCL77YA7MQIYUP,AC0BA02A-85A6-42AE-880D-882BC5A4B1FF,2023-09-27_08h30.27.687,WP_VExplicitOC_LH,2022.2.5,Win32,8.016289099,NA,NA,NA,NA,NA,NA,NA,NA,NA,NA,NA,NA,NA,NA,NA,NA,NA,NA,NA,NA,NA,NA,NA,NA,NA,NA,NA,NA,NA,NA,NA,NA,NA,NA,NA,NA,NA,NA,NA,NA,NA,NA,NA,NA,NA,NA,NA,NA,NA,NA,NA,NA,NA,NA,NA,NA,NA,NA,NA
SUPAMT43564,3C6FJU71TWSRWO2KOCL77YA7MQIYUP,AC0BA02A-85A6-42AE-880D-882BC5A4B1FF,2023-09-27_08h30.27.687,WP_VExplicitOC_LH,2022.2.5,Win32,8.016289099,NA,NA,NA,NA,NA,NA,NA,NA,NA,NA,NA,NA,NA,NA,NA,NA,NA,NA,NA,NA,NA,NA,NA,NA,NA,NA,NA,NA,NA,NA,NA,NA,NA,NA,NA,NA,NA,NA,NA,NA,NA,NA,NA,NA,NA,NA,NA,NA,NA,NA,NA,NA,NA,NA,NA,NA,NA,NA,NA
SUPAMT43564,3C6FJU71TWSRWO2KOCL77YA7MQIYUP,AC0BA02A-85A6-42AE-880D-882BC5A4B1FF,2023-09-27_08h30.27.687,WP_VExplicitOC_LH,2022.2.5,Win32,8.016289099,NA,NA,NA,NA,NA,NA,NA,NA,NA,NA,NA,NA,NA,NA,NA,NA,NA,NA,NA,NA,NA,NA,NA,NA,NA,NA,NA,NA,NA,NA,NA,NA,NA,NA,NA,NA,NA,NA,NA,NA,NA,NA,NA,NA,NA,NA,NA,NA,NA,NA,NA,NA,NA,NA,NA,NA,NA,NA,NA
SUPAMT43564,3C6FJU71TWSRWO2KOCL77YA7MQIYUP,AC0BA02A-85A6-42AE-880D-882BC5A4B1FF,2023-09-27_08h30.27.687,WP_VExplicitOC_LH,2022.2.5,Win32,8.016289099,NA,NA,NA,NA,NA,NA,NA,NA,NA,NA,NA,45.57291667,3.5571,0,0,0,0,1,rest (looking at a fixed cross),001.png,NA,NA,NA,NA,NA,NA,NA,NA,NA,NA,NA,NA,NA,NA,NA,NA,NA,NA,NA,NA,NA,NA,NA,NA,NA,NA,NA,NA,NA,NA,NA,NA,NA,NA,NA,NA,NA,NA,NA
SUPAMT43564,3C6FJU71TWSRWO2KOCL77YA7MQIYUP,AC0BA02A-85A6-42AE-880D-882BC5A4B1FF,2023-09-27_08h30.27.687,WP_VExplicitOC_LH,2022.2.5,Win32,8.016289099,NA,NA,NA,NA,NA,NA,NA,NA,NA,NA,NA,45.57291667,1.595,0,1,1,1,1,stand up,002.png,NA,NA,NA,NA,NA,NA,NA,NA,NA,NA,NA,NA,NA,NA,NA,NA,NA,NA,NA,NA,NA,NA,NA,NA,NA,NA,NA,NA,NA,NA,NA,NA,NA,NA,NA,NA,NA,NA,NA
SUPAMT43564,3C6FJU71TWSRWO2KOCL77YA7MQIYUP,AC0BA02A-85A6-42AE-880D-882BC5A4B1FF,2023-09-27_08h30.27.687,WP_VExplicitOC_LH,2022.2.5,Win32,8.016289099,NA,NA,NA,NA,NA,NA,NA,NA,NA,NA,NA,45.83333333,1.3467,0,2,2,2,1,stretch,003.png,NA,NA,NA,NA,NA,NA,NA,NA,NA,NA,NA,NA,NA,NA,NA,NA,NA,NA,NA,NA,NA,NA,NA,NA,NA,NA,NA,NA,NA,NA,NA,NA,NA,NA,NA,NA,NA,NA,NA
SUPAMT43564,3C6FJU71TWSRWO2KOCL77YA7MQIYUP,AC0BA02A-85A6-42AE-880D-882BC5A4B1FF,2023-09-27_08h30.27.687,WP_VExplicitOC_LH,2022.2.5,Win32,8.016289099,NA,NA,NA,NA,NA,NA,NA,NA,NA,NA,NA,45.83333333,1.0125,0,3,3,3,1,make a drink,004.png,NA,NA,NA,NA,NA,NA,NA,NA,NA,NA,NA,NA,NA,NA,NA,NA,NA,NA,NA,NA,NA,NA,NA,NA,NA,NA,NA,NA,NA,NA,NA,NA,NA,NA,NA,NA,NA,NA,NA
SUPAMT43564,3C6FJU71TWSRWO2KOCL77YA7MQIYUP,AC0BA02A-85A6-42AE-880D-882BC5A4B1FF,2023-09-27_08h30.27.687,WP_VExplicitOC_LH,2022.2.5,Win32,8.016289099,NA,NA,NA,NA,NA,NA,NA,NA,NA,NA,NA,45.83333333,0.7923,0,4,4,4,1,scroll social media,005.png,NA,NA,NA,NA,NA,NA,NA,NA,NA,NA,NA,NA,NA,NA,NA,NA,NA,NA,NA,NA,NA,NA,NA,NA,NA,NA,NA,NA,NA,NA,NA,NA,NA,NA,NA,NA,NA,NA,NA
SUPAMT43564,3C6FJU71TWSRWO2KOCL77YA7MQIYUP,AC0BA02A-85A6-42AE-880D-882BC5A4B1FF,2023-09-27_08h30.27.687,WP_VExplicitOC_LH,2022.2.5,Win32,8.016289099,NA,NA,NA,NA,NA,NA,NA,NA,NA,NA,NA,51.04166667,4.6883,0,5,5,5,1,listen to music,006.png,NA,NA,NA,NA,NA,NA,NA,NA,NA,NA,NA,NA,NA,NA,NA,NA,NA,NA,NA,NA,NA,NA,NA,NA,NA,NA,NA,NA,NA,NA,NA,NA,NA,NA,NA,NA,NA,NA,NA
SUPAMT43564,3C6FJU71TWSRWO2KOCL77YA7MQIYUP,AC0BA02A-85A6-42AE-880D-882BC5A4B1FF,2023-09-27_08h30.27.687,WP_VExplicitOC_LH,2022.2.5,Win32,8.016289099,NA,NA,NA,NA,NA,NA,NA,NA,NA,NA,NA,65.625,5.4496,0,6,6,6,1,daydream,007.png,NA,NA,NA,NA,NA,NA,NA,NA,NA,NA,NA,NA,NA,NA,NA,NA,NA,NA,NA,NA,NA,NA,NA,NA,NA,NA,NA,NA,NA,NA,NA,NA,NA,NA,NA,NA,NA,NA,NA
SUPAMT43564,3C6FJU71TWSRWO2KOCL77YA7MQIYUP,AC0BA02A-85A6-42AE-880D-882BC5A4B1FF,2023-09-27_08h30.27.687,WP_VExplicitOC_LH,2022.2.5,Win32,8.016289099,NA,NA,NA,NA,NA,NA,NA,NA,NA,NA,NA,65.36458333,0.9821,0,7,7,7,1,watch a short animation,008.png,NA,NA,NA,NA,NA,NA,NA,NA,NA,NA,NA,NA,NA,NA,NA,NA,NA,NA,NA,NA,NA,NA,NA,NA,NA,NA,NA,NA,NA,NA,NA,NA,NA,NA,NA,NA,NA,NA,NA
SUPAMT43564,3C6FJU71TWSRWO2KOCL77YA7MQIYUP,AC0BA02A-85A6-42AE-880D-882BC5A4B1FF,2023-09-27_08h30.27.687,WP_VExplicitOC_LH,2022.2.5,Win32,8.016289099,NA,NA,NA,NA,NA,NA,NA,NA,NA,NA,NA,65.36458333,0.7572,0,8,8,8,1,read a novel,009.png,NA,NA,NA,NA,NA,NA,NA,NA,NA,NA,NA,NA,NA,NA,NA,NA,NA,NA,NA,NA,NA,NA,NA,NA,NA,NA,NA,NA,NA,NA,NA,NA,NA,NA,NA,NA,NA,NA,NA
SUPAMT43564,3C6FJU71TWSRWO2KOCL77YA7MQIYUP,AC0BA02A-85A6-42AE-880D-882BC5A4B1FF,2023-09-27_08h30.27.687,WP_VExplicitOC_LH,2022.2.5,Win32,8.016289099,NA,NA,NA,NA,NA,NA,NA,NA,NA,NA,NA,65.36458333,0.775,0,9,9,9,1,read the news,010.png,NA,NA,NA,NA,NA,NA,NA,NA,NA,NA,NA,NA,NA,NA,NA,NA,NA,NA,NA,NA,NA,NA,NA,NA,NA,NA,NA,NA,NA,NA,NA,NA,NA,NA,NA,NA,NA,NA,NA
SUPAMT43564,3C6FJU71TWSRWO2KOCL77YA7MQIYUP,AC0BA02A-85A6-42AE-880D-882BC5A4B1FF,2023-09-27_08h30.27.687,WP_VExplicitOC_LH,2022.2.5,Win32,8.016289099,NA,NA,NA,NA,NA,NA,NA,NA,NA,NA,NA,NA,NA,NA,NA,NA,NA,NA,NA,NA,NA,NA,NA,NA,NA,NA,NA,NA,NA,NA,NA,NA,NA,NA,NA,NA,NA,NA,NA,NA,NA,NA,NA,NA,NA,NA,NA,NA,NA,NA,NA,NA,NA,NA,NA,NA,NA,NA,NA
SUPAMT43564,3C6FJU71TWSRWO2KOCL77YA7MQIYUP,AC0BA02A-85A6-42AE-880D-882BC5A4B1FF,2023-09-27_08h30.27.687,WP_VExplicitOC_LH,2022.2.5,Win32,8.016289099,NA,NA,NA,NA,NA,NA,NA,NA,NA,NA,NA,NA,NA,NA,NA,NA,NA,NA,NA,NA,stand up,NA,NA,NA,NA,NA,NA,NA,NA,NA,NA,NA,NA,NA,NA,NA,NA,NA,NA,NA,NA,NA,NA,NA,NA,NA,NA,NA,NA,NA,NA,NA,NA,NA,NA,NA,NA,NA,NA
SUPAMT43564,3C6FJU71TWSRWO2KOCL77YA7MQIYUP,AC0BA02A-85A6-42AE-880D-882BC5A4B1FF,2023-09-27_08h30.27.687,WP_VExplicitOC_LH,2022.2.5,Win32,8.016289099,50.78125,4.903,2.0612,NA,NA,NA,NA,NA,bored,"bored, not bored","more bored, less bored",NA,NA,NA,NA,NA,NA,NA,NA,NA,NA,0,0,0,2,1,NA,NA,NA,NA,NA,NA,NA,NA,NA,NA,NA,NA,NA,NA,NA,NA,NA,NA,NA,NA,NA,NA,NA,NA,NA,NA,NA,NA,NA,NA,NA,NA,NA
SUPAMT43564,3C6FJU71TWSRWO2KOCL77YA7MQIYUP,AC0BA02A-85A6-42AE-880D-882BC5A4B1FF,2023-09-27_08h30.27.687,WP_VExplicitOC_LH,2022.2.5,Win32,8.016289099,51.5625,5.3777,2.0781,NA,NA,NA,NA,NA,happy,"unhappy, happy","less happy, more happy",NA,NA,NA,NA,NA,NA,NA,NA,NA,NA,0,1,1,0,1,NA,NA,NA,NA,NA,NA,NA,NA,NA,NA,NA,NA,NA,NA,NA,NA,NA,NA,NA,NA,NA,NA,NA,NA,NA,NA,NA,NA,NA,NA,NA,NA,NA
SUPAMT43564,3C6FJU71TWSRWO2KOCL77YA7MQIYUP,AC0BA02A-85A6-42AE-880D-882BC5A4B1FF,2023-09-27_08h30.27.687,WP_VExplicitOC_LH,2022.2.5,Win32,8.016289099,45.57291667,4.1646,2.0988,NA,NA,NA,NA,NA,frustrated,"frustrated, not frustrated","more frustrated, less frustrated",NA,NA,NA,NA,NA,NA,NA,NA,NA,NA,0,2,2,1,1,NA,NA,NA,NA,NA,NA,NA,NA,NA,NA,NA,NA,NA,NA,NA,NA,NA,NA,NA,NA,NA,NA,NA,NA,NA,NA,NA,NA,NA,NA,NA,NA,NA
SUPAMT43564,3C6FJU71TWSRWO2KOCL77YA7MQIYUP,AC0BA02A-85A6-42AE-880D-882BC5A4B1FF,2023-09-27_08h30.27.687,WP_VExplicitOC_LH,2022.2.5,Win32,8.016289099,NA,NA,NA,NA,NA,NA,NA,NA,NA,NA,NA,NA,NA,NA,NA,NA,NA,NA,NA,NA,NA,NA,NA,NA,NA,NA,NA,NA,NA,NA,NA,NA,NA,NA,NA,NA,NA,NA,NA,NA,NA,NA,NA,NA,NA,NA,NA,NA,NA,NA,NA,NA,NA,NA,NA,NA,NA,NA,NA
SUPAMT43564,3C6FJU71TWSRWO2KOCL77YA7MQIYUP,AC0BA02A-85A6-42AE-880D-882BC5A4B1FF,2023-09-27_08h30.27.687,WP_VExplicitOC_LH,2022.2.5,Win32,8.016289099,NA,NA,NA,NA,NA,NA,NA,NA,NA,NA,NA,NA,NA,NA,NA,NA,NA,NA,NA,NA,NA,NA,NA,NA,NA,NA,NA,NA,NA,NA,NA,NA,NA,NA,NA,NA,NA,NA,NA,NA,NA,NA,NA,NA,NA,NA,NA,NA,NA,NA,NA,NA,NA,NA,NA,NA,NA,NA,NA
SUPAMT43564,3C6FJU71TWSRWO2KOCL77YA7MQIYUP,AC0BA02A-85A6-42AE-880D-882BC5A4B1FF,2023-09-27_08h30.27.687,WP_VExplicitOC_LH,2022.2.5,Win32,8.016289099,55.20833333,5.4,2.2241,NA,NA,NA,NA,NA,bored,"bored, not bored","more bored, less bored",NA,NA,NA,NA,NA,NA,NA,NA,NA,NA,NA,NA,NA,NA,NA,0,0,0,2,1,NA,NA,NA,NA,NA,NA,NA,NA,NA,NA,NA,NA,NA,NA,NA,NA,NA,NA,NA,NA,NA,NA,NA,NA,NA,NA,NA,NA
SUPAMT43564,3C6FJU71TWSRWO2KOCL77YA7MQIYUP,AC0BA02A-85A6-42AE-880D-882BC5A4B1FF,2023-09-27_08h30.27.687,WP_VExplicitOC_LH,2022.2.5,Win32,8.016289099,33.59375,5.0109,2.0598,NA,NA,NA,NA,NA,frustrated,"frustrated, not frustrated","more frustrated, less frustrated",NA,NA,NA,NA,NA,NA,NA,NA,NA,NA,NA,NA,NA,NA,NA,0,1,1,1,1,NA,NA,NA,NA,NA,NA,NA,NA,NA,NA,NA,NA,NA,NA,NA,NA,NA,NA,NA,NA,NA,NA,NA,NA,NA,NA,NA,NA
SUPAMT43564,3C6FJU71TWSRWO2KOCL77YA7MQIYUP,AC0BA02A-85A6-42AE-880D-882BC5A4B1FF,2023-09-27_08h30.27.687,WP_VExplicitOC_LH,2022.2.5,Win32,8.016289099,34.89583333,4.7848,2.0335,NA,NA,NA,NA,NA,happy,"unhappy, happy","less happy, more happy",NA,NA,NA,NA,NA,NA,NA,NA,NA,NA,NA,NA,NA,NA,NA,0,2,2,0,1,NA,NA,NA,NA,NA,NA,NA,NA,NA,NA,NA,NA,NA,NA,NA,NA,NA,NA,NA,NA,NA,NA,NA,NA,NA,NA,NA,NA
SUPAMT43564,3C6FJU71TWSRWO2KOCL77YA7MQIYUP,AC0BA02A-85A6-42AE-880D-882BC5A4B1FF,2023-09-27_08h30.27.687,WP_VExplicitOC_LH,2022.2.5,Win32,8.016289099,NA,NA,NA,NA,NA,NA,NA,NA,NA,NA,NA,NA,NA,NA,NA,NA,NA,NA,NA,NA,NA,NA,NA,NA,NA,NA,NA,NA,NA,NA,NA,0,0,0,0,1,NA,NA,NA,NA,NA,NA,NA,NA,NA,NA,NA,NA,NA,NA,NA,NA,NA,NA,NA,NA,NA,NA,NA
SUPAMT43564,3C6FJU71TWSRWO2KOCL77YA7MQIYUP,AC0BA02A-85A6-42AE-880D-882BC5A4B1FF,2023-09-27_08h30.27.687,WP_VExplicitOC_LH,2022.2.5,Win32,8.016289099,37.5,4.5171,2.0333,NA,NA,NA,NA,NA,frustrated,"frustrated, not frustrated","more frustrated, less frustrated",NA,NA,NA,NA,NA,NA,NA,NA,NA,NA,NA,NA,NA,NA,NA,0,0,0,1,1,NA,NA,NA,NA,NA,NA,NA,NA,NA,NA,NA,NA,NA,NA,NA,NA,NA,NA,NA,NA,NA,NA,NA,NA,NA,NA,NA,NA
SUPAMT43564,3C6FJU71TWSRWO2KOCL77YA7MQIYUP,AC0BA02A-85A6-42AE-880D-882BC5A4B1FF,2023-09-27_08h30.27.687,WP_VExplicitOC_LH,2022.2.5,Win32,8.016289099,47.91666667,5.4799,2.0156,NA,NA,NA,NA,NA,bored,"bored, not bored","more bored, less bored",NA,NA,NA,NA,NA,NA,NA,NA,NA,NA,NA,NA,NA,NA,NA,0,1,1,2,1,NA,NA,NA,NA,NA,NA,NA,NA,NA,NA,NA,NA,NA,NA,NA,NA,NA,NA,NA,NA,NA,NA,NA,NA,NA,NA,NA,NA
SUPAMT43564,3C6FJU71TWSRWO2KOCL77YA7MQIYUP,AC0BA02A-85A6-42AE-880D-882BC5A4B1FF,2023-09-27_08h30.27.687,WP_VExplicitOC_LH,2022.2.5,Win32,8.016289099,51.30208333,4.4713,2.0049,NA,NA,NA,NA,NA,happy,"unhappy, happy","less happy, more happy",NA,NA,NA,NA,NA,NA,NA,NA,NA,NA,NA,NA,NA,NA,NA,0,2,2,0,1,NA,NA,NA,NA,NA,NA,NA,NA,NA,NA,NA,NA,NA,NA,NA,NA,NA,NA,NA,NA,NA,NA,NA,NA,NA,NA,NA,NA
SUPAMT43564,3C6FJU71TWSRWO2KOCL77YA7MQIYUP,AC0BA02A-85A6-42AE-880D-882BC5A4B1FF,2023-09-27_08h30.27.687,WP_VExplicitOC_LH,2022.2.5,Win32,8.016289099,NA,NA,NA,NA,NA,NA,NA,NA,NA,NA,NA,NA,NA,NA,NA,NA,NA,NA,NA,NA,NA,NA,NA,NA,NA,NA,NA,NA,NA,NA,NA,1,0,1,0,1,NA,NA,NA,NA,NA,NA,NA,NA,NA,NA,NA,NA,NA,NA,NA,NA,NA,NA,NA,NA,NA,NA,NA
SUPAMT43564,3C6FJU71TWSRWO2KOCL77YA7MQIYUP,AC0BA02A-85A6-42AE-880D-882BC5A4B1FF,2023-09-27_08h30.27.687,WP_VExplicitOC_LH,2022.2.5,Win32,8.016289099,46.61458333,4.3872,2.0986,NA,NA,NA,NA,NA,happy,"unhappy, happy","less happy, more happy",NA,NA,NA,NA,NA,NA,NA,NA,NA,NA,NA,NA,NA,NA,NA,0,0,0,0,1,NA,NA,NA,NA,NA,NA,NA,NA,NA,NA,NA,NA,NA,NA,NA,NA,NA,NA,NA,NA,NA,NA,NA,NA,NA,NA,NA,NA
SUPAMT43564,3C6FJU71TWSRWO2KOCL77YA7MQIYUP,AC0BA02A-85A6-42AE-880D-882BC5A4B1FF,2023-09-27_08h30.27.687,WP_VExplicitOC_LH,2022.2.5,Win32,8.016289099,60.9375,5.326,2.1254,NA,NA,NA,NA,NA,frustrated,"frustrated, not frustrated","more frustrated, less frustrated",NA,NA,NA,NA,NA,NA,NA,NA,NA,NA,NA,NA,NA,NA,NA,0,1,1,1,1,NA,NA,NA,NA,NA,NA,NA,NA,NA,NA,NA,NA,NA,NA,NA,NA,NA,NA,NA,NA,NA,NA,NA,NA,NA,NA,NA,NA
SUPAMT43564,3C6FJU71TWSRWO2KOCL77YA7MQIYUP,AC0BA02A-85A6-42AE-880D-882BC5A4B1FF,2023-09-27_08h30.27.687,WP_VExplicitOC_LH,2022.2.5,Win32,8.016289099,49.21875,5.0931,2.0412,NA,NA,NA,NA,NA,bored,"bored, not bored","more bored, less bored",NA,NA,NA,NA,NA,NA,NA,NA,NA,NA,NA,NA,NA,NA,NA,0,2,2,2,1,NA,NA,NA,NA,NA,NA,NA,NA,NA,NA,NA,NA,NA,NA,NA,NA,NA,NA,NA,NA,NA,NA,NA,NA,NA,NA,NA,NA
SUPAMT43564,3C6FJU71TWSRWO2KOCL77YA7MQIYUP,AC0BA02A-85A6-42AE-880D-882BC5A4B1FF,2023-09-27_08h30.27.687,WP_VExplicitOC_LH,2022.2.5,Win32,8.016289099,NA,NA,NA,NA,NA,NA,NA,NA,NA,NA,NA,NA,NA,NA,NA,NA,NA,NA,NA,NA,NA,NA,NA,NA,NA,NA,NA,NA,NA,NA,NA,2,0,2,0,1,NA,NA,NA,NA,NA,NA,NA,NA,NA,NA,NA,NA,NA,NA,NA,NA,NA,NA,NA,NA,NA,NA,NA
SUPAMT43564,3C6FJU71TWSRWO2KOCL77YA7MQIYUP,AC0BA02A-85A6-42AE-880D-882BC5A4B1FF,2023-09-27_08h30.27.687,WP_VExplicitOC_LH,2022.2.5,Win32,8.016289099,52.86458333,4.3499,2.0386,NA,NA,NA,NA,NA,happy,"unhappy, happy","less happy, more happy",NA,NA,NA,NA,NA,NA,NA,NA,NA,NA,NA,NA,NA,NA,NA,0,0,0,0,1,NA,NA,NA,NA,NA,NA,NA,NA,NA,NA,NA,NA,NA,NA,NA,NA,NA,NA,NA,NA,NA,NA,NA,NA,NA,NA,NA,NA
SUPAMT43564,3C6FJU71TWSRWO2KOCL77YA7MQIYUP,AC0BA02A-85A6-42AE-880D-882BC5A4B1FF,2023-09-27_08h30.27.687,WP_VExplicitOC_LH,2022.2.5,Win32,8.016289099,51.30208333,5.0713,2.0416,NA,NA,NA,NA,NA,bored,"bored, not bored","more bored, less bored",NA,NA,NA,NA,NA,NA,NA,NA,NA,NA,NA,NA,NA,NA,NA,0,1,1,2,1,NA,NA,NA,NA,NA,NA,NA,NA,NA,NA,NA,NA,NA,NA,NA,NA,NA,NA,NA,NA,NA,NA,NA,NA,NA,NA,NA,NA
SUPAMT43564,3C6FJU71TWSRWO2KOCL77YA7MQIYUP,AC0BA02A-85A6-42AE-880D-882BC5A4B1FF,2023-09-27_08h30.27.687,WP_VExplicitOC_LH,2022.2.5,Win32,8.016289099,45.83333333,3.9859,2.0062,NA,NA,NA,NA,NA,frustrated,"frustrated, not frustrated","more frustrated, less frustrated",NA,NA,NA,NA,NA,NA,NA,NA,NA,NA,NA,NA,NA,NA,NA,0,2,2,1,1,NA,NA,NA,NA,NA,NA,NA,NA,NA,NA,NA,NA,NA,NA,NA,NA,NA,NA,NA,NA,NA,NA,NA,NA,NA,NA,NA,NA
SUPAMT43564,3C6FJU71TWSRWO2KOCL77YA7MQIYUP,AC0BA02A-85A6-42AE-880D-882BC5A4B1FF,2023-09-27_08h30.27.687,WP_VExplicitOC_LH,2022.2.5,Win32,8.016289099,NA,NA,NA,NA,NA,NA,NA,NA,NA,NA,NA,NA,NA,NA,NA,NA,NA,NA,NA,NA,NA,NA,NA,NA,NA,NA,NA,NA,NA,NA,NA,3,0,3,0,1,NA,NA,NA,NA,NA,NA,NA,NA,NA,NA,NA,NA,NA,NA,NA,NA,NA,NA,NA,NA,NA,NA,NA
SUPAMT43564,3C6FJU71TWSRWO2KOCL77YA7MQIYUP,AC0BA02A-85A6-42AE-880D-882BC5A4B1FF,2023-09-27_08h30.27.687,WP_VExplicitOC_LH,2022.2.5,Win32,8.016289099,52.08333333,4.1259,2.1104,NA,NA,NA,NA,NA,happy,"unhappy, happy","less happy, more happy",NA,NA,NA,NA,NA,NA,NA,NA,NA,NA,NA,NA,NA,NA,NA,0,0,0,0,1,NA,NA,NA,NA,NA,NA,NA,NA,NA,NA,NA,NA,NA,NA,NA,NA,NA,NA,NA,NA,NA,NA,NA,NA,NA,NA,NA,NA
SUPAMT43564,3C6FJU71TWSRWO2KOCL77YA7MQIYUP,AC0BA02A-85A6-42AE-880D-882BC5A4B1FF,2023-09-27_08h30.27.687,WP_VExplicitOC_LH,2022.2.5,Win32,8.016289099,54.6875,5.0981,2.1155,NA,NA,NA,NA,NA,frustrated,"frustrated, not frustrated","more frustrated, less frustrated",NA,NA,NA,NA,NA,NA,NA,NA,NA,NA,NA,NA,NA,NA,NA,0,1,1,1,1,NA,NA,NA,NA,NA,NA,NA,NA,NA,NA,NA,NA,NA,NA,NA,NA,NA,NA,NA,NA,NA,NA,NA,NA,NA,NA,NA,NA
SUPAMT43564,3C6FJU71TWSRWO2KOCL77YA7MQIYUP,AC0BA02A-85A6-42AE-880D-882BC5A4B1FF,2023-09-27_08h30.27.687,WP_VExplicitOC_LH,2022.2.5,Win32,8.016289099,54.6875,4.7252,2.119,NA,NA,NA,NA,NA,bored,"bored, not bored","more bored, less bored",NA,NA,NA,NA,NA,NA,NA,NA,NA,NA,NA,NA,NA,NA,NA,0,2,2,2,1,NA,NA,NA,NA,NA,NA,NA,NA,NA,NA,NA,NA,NA,NA,NA,NA,NA,NA,NA,NA,NA,NA,NA,NA,NA,NA,NA,NA
SUPAMT43564,3C6FJU71TWSRWO2KOCL77YA7MQIYUP,AC0BA02A-85A6-42AE-880D-882BC5A4B1FF,2023-09-27_08h30.27.687,WP_VExplicitOC_LH,2022.2.5,Win32,8.016289099,NA,NA,NA,NA,NA,NA,NA,NA,NA,NA,NA,NA,NA,NA,NA,NA,NA,NA,NA,NA,NA,NA,NA,NA,NA,NA,NA,NA,NA,NA,NA,4,0,4,0,1,NA,NA,NA,NA,NA,NA,NA,NA,NA,NA,NA,NA,NA,NA,NA,NA,NA,NA,NA,NA,NA,NA,NA
SUPAMT43564,3C6FJU71TWSRWO2KOCL77YA7MQIYUP,AC0BA02A-85A6-42AE-880D-882BC5A4B1FF,2023-09-27_08h30.27.687,WP_VExplicitOC_LH,2022.2.5,Win32,8.016289099,47.39583333,4.1659,2.0352,NA,NA,NA,NA,NA,bored,"bored, not bored","more bored, less bored",NA,NA,NA,NA,NA,NA,NA,NA,NA,NA,NA,NA,NA,NA,NA,0,0,0,2,1,NA,NA,NA,NA,NA,NA,NA,NA,NA,NA,NA,NA,NA,NA,NA,NA,NA,NA,NA,NA,NA,NA,NA,NA,NA,NA,NA,NA
SUPAMT43564,3C6FJU71TWSRWO2KOCL77YA7MQIYUP,AC0BA02A-85A6-42AE-880D-882BC5A4B1FF,2023-09-27_08h30.27.687,WP_VExplicitOC_LH,2022.2.5,Win32,8.016289099,48.17708333,4.8601,2.0292,NA,NA,NA,NA,NA,frustrated,"frustrated, not frustrated","more frustrated, less frustrated",NA,NA,NA,NA,NA,NA,NA,NA,NA,NA,NA,NA,NA,NA,NA,0,1,1,1,1,NA,NA,NA,NA,NA,NA,NA,NA,NA,NA,NA,NA,NA,NA,NA,NA,NA,NA,NA,NA,NA,NA,NA,NA,NA,NA,NA,NA
SUPAMT43564,3C6FJU71TWSRWO2KOCL77YA7MQIYUP,AC0BA02A-85A6-42AE-880D-882BC5A4B1FF,2023-09-27_08h30.27.687,WP_VExplicitOC_LH,2022.2.5,Win32,8.016289099,60.67708333,4.6164,2.108,NA,NA,NA,NA,NA,happy,"unhappy, happy","less happy, more happy",NA,NA,NA,NA,NA,NA,NA,NA,NA,NA,NA,NA,NA,NA,NA,0,2,2,0,1,NA,NA,NA,NA,NA,NA,NA,NA,NA,NA,NA,NA,NA,NA,NA,NA,NA,NA,NA,NA,NA,NA,NA,NA,NA,NA,NA,NA
SUPAMT43564,3C6FJU71TWSRWO2KOCL77YA7MQIYUP,AC0BA02A-85A6-42AE-880D-882BC5A4B1FF,2023-09-27_08h30.27.687,WP_VExplicitOC_LH,2022.2.5,Win32,8.016289099,NA,NA,NA,NA,NA,NA,NA,NA,NA,NA,NA,NA,NA,NA,NA,NA,NA,NA,NA,NA,NA,NA,NA,NA,NA,NA,NA,NA,NA,NA,NA,5,0,5,0,1,NA,NA,NA,NA,NA,NA,NA,NA,NA,NA,NA,NA,NA,NA,NA,NA,NA,NA,NA,NA,NA,NA,NA
SUPAMT43564,3C6FJU71TWSRWO2KOCL77YA7MQIYUP,AC0BA02A-85A6-42AE-880D-882BC5A4B1FF,2023-09-27_08h30.27.687,WP_VExplicitOC_LH,2022.2.5,Win32,8.016289099,53.90625,4.3534,2.0291,NA,NA,NA,NA,NA,happy,"unhappy, happy","less happy, more happy",NA,NA,NA,NA,NA,NA,NA,NA,NA,NA,NA,NA,NA,NA,NA,0,0,0,0,1,NA,NA,NA,NA,NA,NA,NA,NA,NA,NA,NA,NA,NA,NA,NA,NA,NA,NA,NA,NA,NA,NA,NA,NA,NA,NA,NA,NA
SUPAMT43564,3C6FJU71TWSRWO2KOCL77YA7MQIYUP,AC0BA02A-85A6-42AE-880D-882BC5A4B1FF,2023-09-27_08h30.27.687,WP_VExplicitOC_LH,2022.2.5,Win32,8.016289099,47.91666667,5.1323,2.1163,NA,NA,NA,NA,NA,frustrated,"frustrated, not frustrated","more frustrated, less frustrated",NA,NA,NA,NA,NA,NA,NA,NA,NA,NA,NA,NA,NA,NA,NA,0,1,1,1,1,NA,NA,NA,NA,NA,NA,NA,NA,NA,NA,NA,NA,NA,NA,NA,NA,NA,NA,NA,NA,NA,NA,NA,NA,NA,NA,NA,NA
SUPAMT43564,3C6FJU71TWSRWO2KOCL77YA7MQIYUP,AC0BA02A-85A6-42AE-880D-882BC5A4B1FF,2023-09-27_08h30.27.687,WP_VExplicitOC_LH,2022.2.5,Win32,8.016289099,52.08333333,4.6195,2.0288,NA,NA,NA,NA,NA,bored,"bored, not bored","more bored, less bored",NA,NA,NA,NA,NA,NA,NA,NA,NA,NA,NA,NA,NA,NA,NA,0,2,2,2,1,NA,NA,NA,NA,NA,NA,NA,NA,NA,NA,NA,NA,NA,NA,NA,NA,NA,NA,NA,NA,NA,NA,NA,NA,NA,NA,NA,NA
SUPAMT43564,3C6FJU71TWSRWO2KOCL77YA7MQIYUP,AC0BA02A-85A6-42AE-880D-882BC5A4B1FF,2023-09-27_08h30.27.687,WP_VExplicitOC_LH,2022.2.5,Win32,8.016289099,NA,NA,NA,NA,NA,NA,NA,NA,NA,NA,NA,NA,NA,NA,NA,NA,NA,NA,NA,NA,NA,NA,NA,NA,NA,NA,NA,NA,NA,NA,NA,6,0,6,0,1,NA,NA,NA,NA,NA,NA,NA,NA,NA,NA,NA,NA,NA,NA,NA,NA,NA,NA,NA,NA,NA,NA,NA
SUPAMT43564,3C6FJU71TWSRWO2KOCL77YA7MQIYUP,AC0BA02A-85A6-42AE-880D-882BC5A4B1FF,2023-09-27_08h30.27.687,WP_VExplicitOC_LH,2022.2.5,Win32,8.016289099,49.73958333,4.5352,2.0103,NA,NA,NA,NA,NA,happy,"unhappy, happy","less happy, more happy",NA,NA,NA,NA,NA,NA,NA,NA,NA,NA,NA,NA,NA,NA,NA,0,0,0,0,1,NA,NA,NA,NA,NA,NA,NA,NA,NA,NA,NA,NA,NA,NA,NA,NA,NA,NA,NA,NA,NA,NA,NA,NA,NA,NA,NA,NA
SUPAMT43564,3C6FJU71TWSRWO2KOCL77YA7MQIYUP,AC0BA02A-85A6-42AE-880D-882BC5A4B1FF,2023-09-27_08h30.27.687,WP_VExplicitOC_LH,2022.2.5,Win32,8.016289099,54.42708333,5.2716,2.0329,NA,NA,NA,NA,NA,bored,"bored, not bored","more bored, less bored",NA,NA,NA,NA,NA,NA,NA,NA,NA,NA,NA,NA,NA,NA,NA,0,1,1,2,1,NA,NA,NA,NA,NA,NA,NA,NA,NA,NA,NA,NA,NA,NA,NA,NA,NA,NA,NA,NA,NA,NA,NA,NA,NA,NA,NA,NA
SUPAMT43564,3C6FJU71TWSRWO2KOCL77YA7MQIYUP,AC0BA02A-85A6-42AE-880D-882BC5A4B1FF,2023-09-27_08h30.27.687,WP_VExplicitOC_LH,2022.2.5,Win32,8.016289099,50.26041667,4.7741,2.0676,NA,NA,NA,NA,NA,frustrated,"frustrated, not frustrated","more frustrated, less frustrated",NA,NA,NA,NA,NA,NA,NA,NA,NA,NA,NA,NA,NA,NA,NA,0,2,2,1,1,NA,NA,NA,NA,NA,NA,NA,NA,NA,NA,NA,NA,NA,NA,NA,NA,NA,NA,NA,NA,NA,NA,NA,NA,NA,NA,NA,NA
SUPAMT43564,3C6FJU71TWSRWO2KOCL77YA7MQIYUP,AC0BA02A-85A6-42AE-880D-882BC5A4B1FF,2023-09-27_08h30.27.687,WP_VExplicitOC_LH,2022.2.5,Win32,8.016289099,NA,NA,NA,NA,NA,NA,NA,NA,NA,NA,NA,NA,NA,NA,NA,NA,NA,NA,NA,NA,NA,NA,NA,NA,NA,NA,NA,NA,NA,NA,NA,7,0,7,0,1,NA,NA,NA,NA,NA,NA,NA,NA,NA,NA,NA,NA,NA,NA,NA,NA,NA,NA,NA,NA,NA,NA,NA
SUPAMT43564,3C6FJU71TWSRWO2KOCL77YA7MQIYUP,AC0BA02A-85A6-42AE-880D-882BC5A4B1FF,2023-09-27_08h30.27.687,WP_VExplicitOC_LH,2022.2.5,Win32,8.016289099,60.41666667,5.2982,2.0098,NA,NA,NA,NA,NA,happy,"unhappy, happy","less happy, more happy",NA,NA,NA,NA,NA,NA,NA,NA,NA,NA,NA,NA,NA,NA,NA,0,0,0,0,1,NA,NA,NA,NA,NA,NA,NA,NA,NA,NA,NA,NA,NA,NA,NA,NA,NA,NA,NA,NA,NA,NA,NA,NA,NA,NA,NA,NA
SUPAMT43564,3C6FJU71TWSRWO2KOCL77YA7MQIYUP,AC0BA02A-85A6-42AE-880D-882BC5A4B1FF,2023-09-27_08h30.27.687,WP_VExplicitOC_LH,2022.2.5,Win32,8.016289099,51.30208333,4.591,2.0926,NA,NA,NA,NA,NA,frustrated,"frustrated, not frustrated","more frustrated, less frustrated",NA,NA,NA,NA,NA,NA,NA,NA,NA,NA,NA,NA,NA,NA,NA,0,1,1,1,1,NA,NA,NA,NA,NA,NA,NA,NA,NA,NA,NA,NA,NA,NA,NA,NA,NA,NA,NA,NA,NA,NA,NA,NA,NA,NA,NA,NA
SUPAMT43564,3C6FJU71TWSRWO2KOCL77YA7MQIYUP,AC0BA02A-85A6-42AE-880D-882BC5A4B1FF,2023-09-27_08h30.27.687,WP_VExplicitOC_LH,2022.2.5,Win32,8.016289099,60.15625,4.8494,2.059,NA,NA,NA,NA,NA,bored,"bored, not bored","more bored, less bored",NA,NA,NA,NA,NA,NA,NA,NA,NA,NA,NA,NA,NA,NA,NA,0,2,2,2,1,NA,NA,NA,NA,NA,NA,NA,NA,NA,NA,NA,NA,NA,NA,NA,NA,NA,NA,NA,NA,NA,NA,NA,NA,NA,NA,NA,NA
SUPAMT43564,3C6FJU71TWSRWO2KOCL77YA7MQIYUP,AC0BA02A-85A6-42AE-880D-882BC5A4B1FF,2023-09-27_08h30.27.687,WP_VExplicitOC_LH,2022.2.5,Win32,8.016289099,NA,NA,NA,NA,NA,NA,NA,NA,NA,NA,NA,NA,NA,NA,NA,NA,NA,NA,NA,NA,NA,NA,NA,NA,NA,NA,NA,NA,NA,NA,NA,8,0,8,0,1,NA,NA,NA,NA,NA,NA,NA,NA,NA,NA,NA,NA,NA,NA,NA,NA,NA,NA,NA,NA,NA,NA,NA
SUPAMT43564,3C6FJU71TWSRWO2KOCL77YA7MQIYUP,AC0BA02A-85A6-42AE-880D-882BC5A4B1FF,2023-09-27_08h30.27.687,WP_VExplicitOC_LH,2022.2.5,Win32,8.016289099,47.39583333,4.416,2.0622,NA,NA,NA,NA,NA,frustrated,"frustrated, not frustrated","more frustrated, less frustrated",NA,NA,NA,NA,NA,NA,NA,NA,NA,NA,NA,NA,NA,NA,NA,0,0,0,1,1,NA,NA,NA,NA,NA,NA,NA,NA,NA,NA,NA,NA,NA,NA,NA,NA,NA,NA,NA,NA,NA,NA,NA,NA,NA,NA,NA,NA
SUPAMT43564,3C6FJU71TWSRWO2KOCL77YA7MQIYUP,AC0BA02A-85A6-42AE-880D-882BC5A4B1FF,2023-09-27_08h30.27.687,WP_VExplicitOC_LH,2022.2.5,Win32,8.016289099,52.60416667,5.4562,2.1429,NA,NA,NA,NA,NA,bored,"bored, not bored","more bored, less bored",NA,NA,NA,NA,NA,NA,NA,NA,NA,NA,NA,NA,NA,NA,NA,0,1,1,2,1,NA,NA,NA,NA,NA,NA,NA,NA,NA,NA,NA,NA,NA,NA,NA,NA,NA,NA,NA,NA,NA,NA,NA,NA,NA,NA,NA,NA
SUPAMT43564,3C6FJU71TWSRWO2KOCL77YA7MQIYUP,AC0BA02A-85A6-42AE-880D-882BC5A4B1FF,2023-09-27_08h30.27.687,WP_VExplicitOC_LH,2022.2.5,Win32,8.016289099,50.78125,5.1294,2.0267,NA,NA,NA,NA,NA,happy,"unhappy, happy","less happy, more happy",NA,NA,NA,NA,NA,NA,NA,NA,NA,NA,NA,NA,NA,NA,NA,0,2,2,0,1,NA,NA,NA,NA,NA,NA,NA,NA,NA,NA,NA,NA,NA,NA,NA,NA,NA,NA,NA,NA,NA,NA,NA,NA,NA,NA,NA,NA
SUPAMT43564,3C6FJU71TWSRWO2KOCL77YA7MQIYUP,AC0BA02A-85A6-42AE-880D-882BC5A4B1FF,2023-09-27_08h30.27.687,WP_VExplicitOC_LH,2022.2.5,Win32,8.016289099,NA,NA,NA,NA,NA,NA,NA,NA,NA,NA,NA,NA,NA,NA,NA,NA,NA,NA,NA,NA,NA,NA,NA,NA,NA,NA,NA,NA,NA,NA,NA,9,0,9,0,1,NA,NA,NA,NA,NA,NA,NA,NA,NA,NA,NA,NA,NA,NA,NA,NA,NA,NA,NA,NA,NA,NA,NA
SUPAMT43564,3C6FJU71TWSRWO2KOCL77YA7MQIYUP,AC0BA02A-85A6-42AE-880D-882BC5A4B1FF,2023-09-27_08h30.27.687,WP_VExplicitOC_LH,2022.2.5,Win32,8.016289099,41.92708333,6.7711,2.1444,NA,NA,NA,NA,NA,happy,"unhappy, happy","less happy, more happy",NA,NA,NA,NA,NA,NA,NA,NA,NA,NA,NA,NA,NA,NA,NA,0,0,0,0,1,NA,NA,NA,NA,NA,NA,NA,NA,NA,NA,NA,NA,NA,NA,NA,NA,NA,NA,NA,NA,NA,NA,NA,NA,NA,NA,NA,NA
SUPAMT43564,3C6FJU71TWSRWO2KOCL77YA7MQIYUP,AC0BA02A-85A6-42AE-880D-882BC5A4B1FF,2023-09-27_08h30.27.687,WP_VExplicitOC_LH,2022.2.5,Win32,8.016289099,47.91666667,5.6834,2.1067,NA,NA,NA,NA,NA,frustrated,"frustrated, not frustrated","more frustrated, less frustrated",NA,NA,NA,NA,NA,NA,NA,NA,NA,NA,NA,NA,NA,NA,NA,0,1,1,1,1,NA,NA,NA,NA,NA,NA,NA,NA,NA,NA,NA,NA,NA,NA,NA,NA,NA,NA,NA,NA,NA,NA,NA,NA,NA,NA,NA,NA
SUPAMT43564,3C6FJU71TWSRWO2KOCL77YA7MQIYUP,AC0BA02A-85A6-42AE-880D-882BC5A4B1FF,2023-09-27_08h30.27.687,WP_VExplicitOC_LH,2022.2.5,Win32,8.016289099,50,4.0433,2.0273,NA,NA,NA,NA,NA,bored,"bored, not bored","more bored, less bored",NA,NA,NA,NA,NA,NA,NA,NA,NA,NA,NA,NA,NA,NA,NA,0,2,2,2,1,NA,NA,NA,NA,NA,NA,NA,NA,NA,NA,NA,NA,NA,NA,NA,NA,NA,NA,NA,NA,NA,NA,NA,NA,NA,NA,NA,NA
SUPAMT43564,3C6FJU71TWSRWO2KOCL77YA7MQIYUP,AC0BA02A-85A6-42AE-880D-882BC5A4B1FF,2023-09-27_08h30.27.687,WP_VExplicitOC_LH,2022.2.5,Win32,8.016289099,NA,NA,NA,NA,NA,NA,NA,NA,NA,NA,NA,NA,NA,NA,NA,NA,NA,NA,NA,NA,NA,NA,NA,NA,NA,NA,NA,NA,NA,NA,NA,10,0,10,0,1,NA,NA,NA,NA,NA,NA,NA,NA,NA,NA,NA,NA,NA,NA,NA,NA,NA,NA,NA,NA,NA,NA,NA
SUPAMT43564,3C6FJU71TWSRWO2KOCL77YA7MQIYUP,AC0BA02A-85A6-42AE-880D-882BC5A4B1FF,2023-09-27_08h30.27.687,WP_VExplicitOC_LH,2022.2.5,Win32,8.016289099,35.9375,3.7227,2.0348,NA,NA,NA,NA,NA,frustrated,"frustrated, not frustrated","more frustrated, less frustrated",NA,NA,NA,NA,NA,NA,NA,NA,NA,NA,NA,NA,NA,NA,NA,0,0,0,1,1,NA,NA,NA,NA,NA,NA,NA,NA,NA,NA,NA,NA,NA,NA,NA,NA,NA,NA,NA,NA,NA,NA,NA,NA,NA,NA,NA,NA
SUPAMT43564,3C6FJU71TWSRWO2KOCL77YA7MQIYUP,AC0BA02A-85A6-42AE-880D-882BC5A4B1FF,2023-09-27_08h30.27.687,WP_VExplicitOC_LH,2022.2.5,Win32,8.016289099,41.66666667,4.8731,2.1008,NA,NA,NA,NA,NA,happy,"unhappy, happy","less happy, more happy",NA,NA,NA,NA,NA,NA,NA,NA,NA,NA,NA,NA,NA,NA,NA,0,1,1,0,1,NA,NA,NA,NA,NA,NA,NA,NA,NA,NA,NA,NA,NA,NA,NA,NA,NA,NA,NA,NA,NA,NA,NA,NA,NA,NA,NA,NA
SUPAMT43564,3C6FJU71TWSRWO2KOCL77YA7MQIYUP,AC0BA02A-85A6-42AE-880D-882BC5A4B1FF,2023-09-27_08h30.27.687,WP_VExplicitOC_LH,2022.2.5,Win32,8.016289099,45.83333333,5.116,2.0529,NA,NA,NA,NA,NA,bored,"bored, not bored","more bored, less bored",NA,NA,NA,NA,NA,NA,NA,NA,NA,NA,NA,NA,NA,NA,NA,0,2,2,2,1,NA,NA,NA,NA,NA,NA,NA,NA,NA,NA,NA,NA,NA,NA,NA,NA,NA,NA,NA,NA,NA,NA,NA,NA,NA,NA,NA,NA
SUPAMT43564,3C6FJU71TWSRWO2KOCL77YA7MQIYUP,AC0BA02A-85A6-42AE-880D-882BC5A4B1FF,2023-09-27_08h30.27.687,WP_VExplicitOC_LH,2022.2.5,Win32,8.016289099,NA,NA,NA,NA,NA,NA,NA,NA,NA,NA,NA,NA,NA,NA,NA,NA,NA,NA,NA,NA,NA,NA,NA,NA,NA,NA,NA,NA,NA,NA,NA,11,0,11,0,1,NA,NA,NA,NA,NA,NA,NA,NA,NA,NA,NA,NA,NA,NA,NA,NA,NA,NA,NA,NA,NA,NA,NA
SUPAMT43564,3C6FJU71TWSRWO2KOCL77YA7MQIYUP,AC0BA02A-85A6-42AE-880D-882BC5A4B1FF,2023-09-27_08h30.27.687,WP_VExplicitOC_LH,2022.2.5,Win32,8.016289099,56.25,3.9282,2.1072,NA,NA,NA,NA,NA,bored,"bored, not bored","more bored, less bored",NA,NA,NA,NA,NA,NA,NA,NA,NA,NA,NA,NA,NA,NA,NA,0,0,0,2,1,NA,NA,NA,NA,NA,NA,NA,NA,NA,NA,NA,NA,NA,NA,NA,NA,NA,NA,NA,NA,NA,NA,NA,NA,NA,NA,NA,NA
SUPAMT43564,3C6FJU71TWSRWO2KOCL77YA7MQIYUP,AC0BA02A-85A6-42AE-880D-882BC5A4B1FF,2023-09-27_08h30.27.687,WP_VExplicitOC_LH,2022.2.5,Win32,8.016289099,53.125,3.7667,2.0099,NA,NA,NA,NA,NA,happy,"unhappy, happy","less happy, more happy",NA,NA,NA,NA,NA,NA,NA,NA,NA,NA,NA,NA,NA,NA,NA,0,1,1,0,1,NA,NA,NA,NA,NA,NA,NA,NA,NA,NA,NA,NA,NA,NA,NA,NA,NA,NA,NA,NA,NA,NA,NA,NA,NA,NA,NA,NA
SUPAMT43564,3C6FJU71TWSRWO2KOCL77YA7MQIYUP,AC0BA02A-85A6-42AE-880D-882BC5A4B1FF,2023-09-27_08h30.27.687,WP_VExplicitOC_LH,2022.2.5,Win32,8.016289099,67.96875,3.7878,2.0569,NA,NA,NA,NA,NA,frustrated,"frustrated, not frustrated","more frustrated, less frustrated",NA,NA,NA,NA,NA,NA,NA,NA,NA,NA,NA,NA,NA,NA,NA,0,2,2,1,1,NA,NA,NA,NA,NA,NA,NA,NA,NA,NA,NA,NA,NA,NA,NA,NA,NA,NA,NA,NA,NA,NA,NA,NA,NA,NA,NA,NA
SUPAMT43564,3C6FJU71TWSRWO2KOCL77YA7MQIYUP,AC0BA02A-85A6-42AE-880D-882BC5A4B1FF,2023-09-27_08h30.27.687,WP_VExplicitOC_LH,2022.2.5,Win32,8.016289099,NA,NA,NA,NA,NA,NA,NA,NA,NA,NA,NA,NA,NA,NA,NA,NA,NA,NA,NA,NA,NA,NA,NA,NA,NA,NA,NA,NA,NA,NA,NA,12,0,12,0,1,NA,NA,NA,NA,NA,NA,NA,NA,NA,NA,NA,NA,NA,NA,NA,NA,NA,NA,NA,NA,NA,NA,NA
SUPAMT43564,3C6FJU71TWSRWO2KOCL77YA7MQIYUP,AC0BA02A-85A6-42AE-880D-882BC5A4B1FF,2023-09-27_08h30.27.687,WP_VExplicitOC_LH,2022.2.5,Win32,8.016289099,43.22916667,4.038,2.0751,NA,NA,NA,NA,NA,bored,"bored, not bored","more bored, less bored",NA,NA,NA,NA,NA,NA,NA,NA,NA,NA,NA,NA,NA,NA,NA,0,0,0,2,1,NA,NA,NA,NA,NA,NA,NA,NA,NA,NA,NA,NA,NA,NA,NA,NA,NA,NA,NA,NA,NA,NA,NA,NA,NA,NA,NA,NA
SUPAMT43564,3C6FJU71TWSRWO2KOCL77YA7MQIYUP,AC0BA02A-85A6-42AE-880D-882BC5A4B1FF,2023-09-27_08h30.27.687,WP_VExplicitOC_LH,2022.2.5,Win32,8.016289099,39.32291667,5.1642,2.0366,NA,NA,NA,NA,NA,frustrated,"frustrated, not frustrated","more frustrated, less frustrated",NA,NA,NA,NA,NA,NA,NA,NA,NA,NA,NA,NA,NA,NA,NA,0,1,1,1,1,NA,NA,NA,NA,NA,NA,NA,NA,NA,NA,NA,NA,NA,NA,NA,NA,NA,NA,NA,NA,NA,NA,NA,NA,NA,NA,NA,NA
SUPAMT43564,3C6FJU71TWSRWO2KOCL77YA7MQIYUP,AC0BA02A-85A6-42AE-880D-882BC5A4B1FF,2023-09-27_08h30.27.687,WP_VExplicitOC_LH,2022.2.5,Win32,8.016289099,41.40625,4.7293,2.0477,NA,NA,NA,NA,NA,happy,"unhappy, happy","less happy, more happy",NA,NA,NA,NA,NA,NA,NA,NA,NA,NA,NA,NA,NA,NA,NA,0,2,2,0,1,NA,NA,NA,NA,NA,NA,NA,NA,NA,NA,NA,NA,NA,NA,NA,NA,NA,NA,NA,NA,NA,NA,NA,NA,NA,NA,NA,NA
SUPAMT43564,3C6FJU71TWSRWO2KOCL77YA7MQIYUP,AC0BA02A-85A6-42AE-880D-882BC5A4B1FF,2023-09-27_08h30.27.687,WP_VExplicitOC_LH,2022.2.5,Win32,8.016289099,NA,NA,NA,NA,NA,NA,NA,NA,NA,NA,NA,NA,NA,NA,NA,NA,NA,NA,NA,NA,NA,NA,NA,NA,NA,NA,NA,NA,NA,NA,NA,13,0,13,0,1,NA,NA,NA,NA,NA,NA,NA,NA,NA,NA,NA,NA,NA,NA,NA,NA,NA,NA,NA,NA,NA,NA,NA
SUPAMT43564,3C6FJU71TWSRWO2KOCL77YA7MQIYUP,AC0BA02A-85A6-42AE-880D-882BC5A4B1FF,2023-09-27_08h30.27.687,WP_VExplicitOC_LH,2022.2.5,Win32,8.016289099,43.22916667,4.6222,2.0199,NA,NA,NA,NA,NA,bored,"bored, not bored","more bored, less bored",NA,NA,NA,NA,NA,NA,NA,NA,NA,NA,NA,NA,NA,NA,NA,0,0,0,2,1,NA,NA,NA,NA,NA,NA,NA,NA,NA,NA,NA,NA,NA,NA,NA,NA,NA,NA,NA,NA,NA,NA,NA,NA,NA,NA,NA,NA
SUPAMT43564,3C6FJU71TWSRWO2KOCL77YA7MQIYUP,AC0BA02A-85A6-42AE-880D-882BC5A4B1FF,2023-09-27_08h30.27.687,WP_VExplicitOC_LH,2022.2.5,Win32,8.016289099,48.95833333,5.0082,2.074,NA,NA,NA,NA,NA,frustrated,"frustrated, not frustrated","more frustrated, less frustrated",NA,NA,NA,NA,NA,NA,NA,NA,NA,NA,NA,NA,NA,NA,NA,0,1,1,1,1,NA,NA,NA,NA,NA,NA,NA,NA,NA,NA,NA,NA,NA,NA,NA,NA,NA,NA,NA,NA,NA,NA,NA,NA,NA,NA,NA,NA
SUPAMT43564,3C6FJU71TWSRWO2KOCL77YA7MQIYUP,AC0BA02A-85A6-42AE-880D-882BC5A4B1FF,2023-09-27_08h30.27.687,WP_VExplicitOC_LH,2022.2.5,Win32,8.016289099,46.875,4.4226,2.0505,NA,NA,NA,NA,NA,happy,"unhappy, happy","less happy, more happy",NA,NA,NA,NA,NA,NA,NA,NA,NA,NA,NA,NA,NA,NA,NA,0,2,2,0,1,NA,NA,NA,NA,NA,NA,NA,NA,NA,NA,NA,NA,NA,NA,NA,NA,NA,NA,NA,NA,NA,NA,NA,NA,NA,NA,NA,NA
SUPAMT43564,3C6FJU71TWSRWO2KOCL77YA7MQIYUP,AC0BA02A-85A6-42AE-880D-882BC5A4B1FF,2023-09-27_08h30.27.687,WP_VExplicitOC_LH,2022.2.5,Win32,8.016289099,NA,NA,NA,NA,NA,NA,NA,NA,NA,NA,NA,NA,NA,NA,NA,NA,NA,NA,NA,NA,NA,NA,NA,NA,NA,NA,NA,NA,NA,NA,NA,14,0,14,0,1,NA,NA,NA,NA,NA,NA,NA,NA,NA,NA,NA,NA,NA,NA,NA,NA,NA,NA,NA,NA,NA,NA,NA
SUPAMT43564,3C6FJU71TWSRWO2KOCL77YA7MQIYUP,AC0BA02A-85A6-42AE-880D-882BC5A4B1FF,2023-09-27_08h30.27.687,WP_VExplicitOC_LH,2022.2.5,Win32,8.016289099,NA,NA,NA,NA,NA,NA,NA,NA,NA,NA,NA,NA,NA,NA,NA,NA,NA,NA,NA,NA,NA,NA,NA,NA,NA,NA,NA,NA,NA,NA,NA,NA,NA,NA,NA,NA,NA,NA,NA,NA,NA,NA,NA,NA,NA,NA,NA,NA,NA,NA,NA,NA,NA,NA,NA,NA,NA,NA,NA
SUPAMT43564,3C6FJU71TWSRWO2KOCL77YA7MQIYUP,AC0BA02A-85A6-42AE-880D-882BC5A4B1FF,2023-09-27_08h30.27.687,WP_VExplicitOC_LH,2022.2.5,Win32,8.016289099,NA,NA,NA,NA,NA,NA,NA,NA,NA,NA,NA,NA,NA,NA,NA,NA,NA,NA,NA,NA,NA,NA,NA,NA,NA,NA,NA,NA,NA,NA,NA,NA,NA,NA,NA,NA,NA,NA,NA,NA,NA,NA,NA,NA,NA,NA,NA,NA,NA,NA,NA,NA,NA,NA,NA,NA,NA,NA,NA
SUPAMT43564,3C6FJU71TWSRWO2KOCL77YA7MQIYUP,AC0BA02A-85A6-42AE-880D-882BC5A4B1FF,2023-09-27_08h30.27.687,WP_VExplicitOC_LH,2022.2.5,Win32,8.016289099,NA,NA,NA,NA,NA,NA,NA,NA,NA,NA,NA,NA,NA,NA,NA,NA,NA,NA,rest (looking at a fixed cross),001.png,NA,NA,NA,NA,NA,NA,NA,NA,NA,NA,NA,NA,NA,NA,NA,NA,57.03125,2.7733,0,0,0,0,1,NA,NA,NA,NA,NA,NA,NA,NA,NA,NA,NA,NA,NA,NA,NA,NA
SUPAMT43564,3C6FJU71TWSRWO2KOCL77YA7MQIYUP,AC0BA02A-85A6-42AE-880D-882BC5A4B1FF,2023-09-27_08h30.27.687,WP_VExplicitOC_LH,2022.2.5,Win32,8.016289099,NA,NA,NA,NA,NA,NA,NA,NA,NA,NA,NA,NA,NA,NA,NA,NA,NA,NA,stand up,002.png,NA,NA,NA,NA,NA,NA,NA,NA,NA,NA,NA,NA,NA,NA,NA,NA,59.375,2.8543,0,1,1,1,1,NA,NA,NA,NA,NA,NA,NA,NA,NA,NA,NA,NA,NA,NA,NA,NA
SUPAMT43564,3C6FJU71TWSRWO2KOCL77YA7MQIYUP,AC0BA02A-85A6-42AE-880D-882BC5A4B1FF,2023-09-27_08h30.27.687,WP_VExplicitOC_LH,2022.2.5,Win32,8.016289099,NA,NA,NA,NA,NA,NA,NA,NA,NA,NA,NA,NA,NA,NA,NA,NA,NA,NA,stretch,003.png,NA,NA,NA,NA,NA,NA,NA,NA,NA,NA,NA,NA,NA,NA,NA,NA,51.04166667,4.1763,0,2,2,2,1,NA,NA,NA,NA,NA,NA,NA,NA,NA,NA,NA,NA,NA,NA,NA,NA
SUPAMT43564,3C6FJU71TWSRWO2KOCL77YA7MQIYUP,AC0BA02A-85A6-42AE-880D-882BC5A4B1FF,2023-09-27_08h30.27.687,WP_VExplicitOC_LH,2022.2.5,Win32,8.016289099,NA,NA,NA,NA,NA,NA,NA,NA,NA,NA,NA,NA,NA,NA,NA,NA,NA,NA,make a drink,004.png,NA,NA,NA,NA,NA,NA,NA,NA,NA,NA,NA,NA,NA,NA,NA,NA,32.55208333,4.0257,0,3,3,3,1,NA,NA,NA,NA,NA,NA,NA,NA,NA,NA,NA,NA,NA,NA,NA,NA
SUPAMT43564,3C6FJU71TWSRWO2KOCL77YA7MQIYUP,AC0BA02A-85A6-42AE-880D-882BC5A4B1FF,2023-09-27_08h30.27.687,WP_VExplicitOC_LH,2022.2.5,Win32,8.016289099,NA,NA,NA,NA,NA,NA,NA,NA,NA,NA,NA,NA,NA,NA,NA,NA,NA,NA,scroll social media,005.png,NA,NA,NA,NA,NA,NA,NA,NA,NA,NA,NA,NA,NA,NA,NA,NA,48.4375,0.9239,0,4,4,4,1,NA,NA,NA,NA,NA,NA,NA,NA,NA,NA,NA,NA,NA,NA,NA,NA
SUPAMT43564,3C6FJU71TWSRWO2KOCL77YA7MQIYUP,AC0BA02A-85A6-42AE-880D-882BC5A4B1FF,2023-09-27_08h30.27.687,WP_VExplicitOC_LH,2022.2.5,Win32,8.016289099,NA,NA,NA,NA,NA,NA,NA,NA,NA,NA,NA,NA,NA,NA,NA,NA,NA,NA,listen to music,006.png,NA,NA,NA,NA,NA,NA,NA,NA,NA,NA,NA,NA,NA,NA,NA,NA,44.79166667,4.1901,0,5,5,5,1,NA,NA,NA,NA,NA,NA,NA,NA,NA,NA,NA,NA,NA,NA,NA,NA
SUPAMT43564,3C6FJU71TWSRWO2KOCL77YA7MQIYUP,AC0BA02A-85A6-42AE-880D-882BC5A4B1FF,2023-09-27_08h30.27.687,WP_VExplicitOC_LH,2022.2.5,Win32,8.016289099,NA,NA,NA,NA,NA,NA,NA,NA,NA,NA,NA,NA,NA,NA,NA,NA,NA,NA,daydream,007.png,NA,NA,NA,NA,NA,NA,NA,NA,NA,NA,NA,NA,NA,NA,NA,NA,39.58333333,4.0425,0,6,6,6,1,NA,NA,NA,NA,NA,NA,NA,NA,NA,NA,NA,NA,NA,NA,NA,NA
SUPAMT43564,3C6FJU71TWSRWO2KOCL77YA7MQIYUP,AC0BA02A-85A6-42AE-880D-882BC5A4B1FF,2023-09-27_08h30.27.687,WP_VExplicitOC_LH,2022.2.5,Win32,8.016289099,NA,NA,NA,NA,NA,NA,NA,NA,NA,NA,NA,NA,NA,NA,NA,NA,NA,NA,watch a short animation,008.png,NA,NA,NA,NA,NA,NA,NA,NA,NA,NA,NA,NA,NA,NA,NA,NA,48.69791667,4.7174,0,7,7,7,1,NA,NA,NA,NA,NA,NA,NA,NA,NA,NA,NA,NA,NA,NA,NA,NA
SUPAMT43564,3C6FJU71TWSRWO2KOCL77YA7MQIYUP,AC0BA02A-85A6-42AE-880D-882BC5A4B1FF,2023-09-27_08h30.27.687,WP_VExplicitOC_LH,2022.2.5,Win32,8.016289099,NA,NA,NA,NA,NA,NA,NA,NA,NA,NA,NA,NA,NA,NA,NA,NA,NA,NA,read a novel,009.png,NA,NA,NA,NA,NA,NA,NA,NA,NA,NA,NA,NA,NA,NA,NA,NA,38.54166667,3.9927,0,8,8,8,1,NA,NA,NA,NA,NA,NA,NA,NA,NA,NA,NA,NA,NA,NA,NA,NA
SUPAMT43564,3C6FJU71TWSRWO2KOCL77YA7MQIYUP,AC0BA02A-85A6-42AE-880D-882BC5A4B1FF,2023-09-27_08h30.27.687,WP_VExplicitOC_LH,2022.2.5,Win32,8.016289099,NA,NA,NA,NA,NA,NA,NA,NA,NA,NA,NA,NA,NA,NA,NA,NA,NA,NA,read the news,010.png,NA,NA,NA,NA,NA,NA,NA,NA,NA,NA,NA,NA,NA,NA,NA,NA,52.86458333,3.5327,0,9,9,9,1,NA,NA,NA,NA,NA,NA,NA,NA,NA,NA,NA,NA,NA,NA,NA,NA
SUPAMT43564,3C6FJU71TWSRWO2KOCL77YA7MQIYUP,AC0BA02A-85A6-42AE-880D-882BC5A4B1FF,2023-09-27_08h30.27.687,WP_VExplicitOC_LH,2022.2.5,Win32,8.016289099,NA,NA,NA,NA,NA,NA,NA,NA,NA,NA,NA,NA,NA,NA,NA,NA,NA,NA,NA,NA,NA,NA,NA,NA,NA,NA,NA,NA,NA,NA,NA,NA,NA,NA,NA,NA,NA,NA,NA,NA,NA,NA,NA,stand up,NA,NA,NA,NA,NA,NA,NA,NA,NA,NA,NA,NA,NA,NA,NA
SUPAMT43564,3C6FJU71TWSRWO2KOCL77YA7MQIYUP,AC0BA02A-85A6-42AE-880D-882BC5A4B1FF,2023-09-27_08h30.27.687,WP_VExplicitOC_LH,2022.2.5,Win32,8.016289099,50.78125,4.4974,2.0266,NA,NA,NA,NA,NA,happy,"unhappy, happy","less happy, more happy",NA,NA,NA,NA,NA,NA,NA,NA,NA,NA,NA,NA,NA,NA,NA,NA,NA,NA,NA,NA,NA,NA,NA,NA,NA,NA,NA,NA,NA,NA,NA,NA,NA,0,0,0,0,1,NA,NA,NA,NA,NA,NA,NA,NA,NA,NA
SUPAMT43564,3C6FJU71TWSRWO2KOCL77YA7MQIYUP,AC0BA02A-85A6-42AE-880D-882BC5A4B1FF,2023-09-27_08h30.27.687,WP_VExplicitOC_LH,2022.2.5,Win32,8.016289099,52.34375,4.8846,2.007,NA,NA,NA,NA,NA,bored,"bored, not bored","more bored, less bored",NA,NA,NA,NA,NA,NA,NA,NA,NA,NA,NA,NA,NA,NA,NA,NA,NA,NA,NA,NA,NA,NA,NA,NA,NA,NA,NA,NA,NA,NA,NA,NA,NA,0,1,1,2,1,NA,NA,NA,NA,NA,NA,NA,NA,NA,NA
SUPAMT43564,3C6FJU71TWSRWO2KOCL77YA7MQIYUP,AC0BA02A-85A6-42AE-880D-882BC5A4B1FF,2023-09-27_08h30.27.687,WP_VExplicitOC_LH,2022.2.5,Win32,8.016289099,48.4375,4.4249,2.1461,NA,NA,NA,NA,NA,frustrated,"frustrated, not frustrated","more frustrated, less frustrated",NA,NA,NA,NA,NA,NA,NA,NA,NA,NA,NA,NA,NA,NA,NA,NA,NA,NA,NA,NA,NA,NA,NA,NA,NA,NA,NA,NA,NA,NA,NA,NA,NA,0,2,2,1,1,NA,NA,NA,NA,NA,NA,NA,NA,NA,NA
SUPAMT43564,3C6FJU71TWSRWO2KOCL77YA7MQIYUP,AC0BA02A-85A6-42AE-880D-882BC5A4B1FF,2023-09-27_08h30.27.687,WP_VExplicitOC_LH,2022.2.5,Win32,8.016289099,NA,NA,NA,NA,NA,NA,NA,NA,NA,NA,NA,NA,NA,NA,NA,NA,NA,NA,NA,NA,NA,NA,NA,NA,NA,NA,NA,NA,NA,NA,NA,NA,NA,NA,NA,NA,NA,NA,NA,NA,NA,NA,NA,NA,NA,NA,NA,NA,NA,NA,NA,NA,NA,NA,NA,NA,NA,NA,NA
SUPAMT43564,3C6FJU71TWSRWO2KOCL77YA7MQIYUP,AC0BA02A-85A6-42AE-880D-882BC5A4B1FF,2023-09-27_08h30.27.687,WP_VExplicitOC_LH,2022.2.5,Win32,8.016289099,NA,NA,NA,NA,NA,NA,NA,NA,NA,NA,NA,NA,NA,NA,NA,NA,NA,NA,NA,NA,NA,NA,NA,NA,NA,NA,NA,NA,NA,NA,NA,NA,NA,NA,NA,NA,NA,NA,NA,NA,NA,NA,NA,NA,NA,NA,NA,NA,NA,NA,NA,NA,NA,NA,NA,NA,NA,NA,NA
SUPAMT43564,3C6FJU71TWSRWO2KOCL77YA7MQIYUP,AC0BA02A-85A6-42AE-880D-882BC5A4B1FF,2023-09-27_08h30.27.687,WP_VExplicitOC_LH,2022.2.5,Win32,8.016289099,53.90625,3.9271,2.0539,NA,NA,NA,NA,NA,bored,"bored, not bored","more bored, less bored",NA,NA,NA,NA,NA,NA,NA,NA,NA,NA,NA,NA,NA,NA,NA,NA,NA,NA,NA,NA,NA,NA,NA,NA,NA,NA,NA,NA,NA,NA,NA,NA,NA,NA,NA,NA,NA,NA,0,0,0,2,1,NA,NA,NA,NA,NA
SUPAMT43564,3C6FJU71TWSRWO2KOCL77YA7MQIYUP,AC0BA02A-85A6-42AE-880D-882BC5A4B1FF,2023-09-27_08h30.27.687,WP_VExplicitOC_LH,2022.2.5,Win32,8.016289099,51.30208333,4.2997,2.007,NA,NA,NA,NA,NA,frustrated,"frustrated, not frustrated","more frustrated, less frustrated",NA,NA,NA,NA,NA,NA,NA,NA,NA,NA,NA,NA,NA,NA,NA,NA,NA,NA,NA,NA,NA,NA,NA,NA,NA,NA,NA,NA,NA,NA,NA,NA,NA,NA,NA,NA,NA,NA,0,1,1,1,1,NA,NA,NA,NA,NA
SUPAMT43564,3C6FJU71TWSRWO2KOCL77YA7MQIYUP,AC0BA02A-85A6-42AE-880D-882BC5A4B1FF,2023-09-27_08h30.27.687,WP_VExplicitOC_LH,2022.2.5,Win32,8.016289099,65.625,3.9808,2.0398,NA,NA,NA,NA,NA,happy,"unhappy, happy","less happy, more happy",NA,NA,NA,NA,NA,NA,NA,NA,NA,NA,NA,NA,NA,NA,NA,NA,NA,NA,NA,NA,NA,NA,NA,NA,NA,NA,NA,NA,NA,NA,NA,NA,NA,NA,NA,NA,NA,NA,0,2,2,0,1,NA,NA,NA,NA,NA
SUPAMT43564,3C6FJU71TWSRWO2KOCL77YA7MQIYUP,AC0BA02A-85A6-42AE-880D-882BC5A4B1FF,2023-09-27_08h30.27.687,WP_VExplicitOC_LH,2022.2.5,Win32,8.016289099,NA,NA,NA,NA,NA,NA,NA,NA,NA,NA,NA,NA,NA,NA,NA,NA,NA,NA,NA,NA,NA,NA,NA,NA,NA,NA,NA,NA,NA,NA,NA,NA,NA,NA,NA,NA,NA,NA,NA,NA,NA,NA,NA,NA,NA,NA,NA,NA,NA,NA,NA,NA,NA,NA,0,0,0,0,1
SUPAMT43564,3C6FJU71TWSRWO2KOCL77YA7MQIYUP,AC0BA02A-85A6-42AE-880D-882BC5A4B1FF,2023-09-27_08h30.27.687,WP_VExplicitOC_LH,2022.2.5,Win32,8.016289099,44.27083333,4.5189,2.0732,NA,NA,NA,NA,NA,bored,"bored, not bored","more bored, less bored",NA,NA,NA,NA,NA,NA,NA,NA,NA,NA,NA,NA,NA,NA,NA,NA,NA,NA,NA,NA,NA,NA,NA,NA,NA,NA,NA,NA,NA,NA,NA,NA,NA,NA,NA,NA,NA,NA,0,0,0,2,1,NA,NA,NA,NA,NA
SUPAMT43564,3C6FJU71TWSRWO2KOCL77YA7MQIYUP,AC0BA02A-85A6-42AE-880D-882BC5A4B1FF,2023-09-27_08h30.27.687,WP_VExplicitOC_LH,2022.2.5,Win32,8.016289099,57.8125,4.2182,2.1166,NA,NA,NA,NA,NA,happy,"unhappy, happy","less happy, more happy",NA,NA,NA,NA,NA,NA,NA,NA,NA,NA,NA,NA,NA,NA,NA,NA,NA,NA,NA,NA,NA,NA,NA,NA,NA,NA,NA,NA,NA,NA,NA,NA,NA,NA,NA,NA,NA,NA,0,1,1,0,1,NA,NA,NA,NA,NA
SUPAMT43564,3C6FJU71TWSRWO2KOCL77YA7MQIYUP,AC0BA02A-85A6-42AE-880D-882BC5A4B1FF,2023-09-27_08h30.27.687,WP_VExplicitOC_LH,2022.2.5,Win32,8.016289099,57.55208333,4.0789,2.0122,NA,NA,NA,NA,NA,frustrated,"frustrated, not frustrated","more frustrated, less frustrated",NA,NA,NA,NA,NA,NA,NA,NA,NA,NA,NA,NA,NA,NA,NA,NA,NA,NA,NA,NA,NA,NA,NA,NA,NA,NA,NA,NA,NA,NA,NA,NA,NA,NA,NA,NA,NA,NA,0,2,2,1,1,NA,NA,NA,NA,NA
SUPAMT43564,3C6FJU71TWSRWO2KOCL77YA7MQIYUP,AC0BA02A-85A6-42AE-880D-882BC5A4B1FF,2023-09-27_08h30.27.687,WP_VExplicitOC_LH,2022.2.5,Win32,8.016289099,NA,NA,NA,NA,NA,NA,NA,NA,NA,NA,NA,NA,NA,NA,NA,NA,NA,NA,NA,NA,NA,NA,NA,NA,NA,NA,NA,NA,NA,NA,NA,NA,NA,NA,NA,NA,NA,NA,NA,NA,NA,NA,NA,NA,NA,NA,NA,NA,NA,NA,NA,NA,NA,NA,1,0,1,0,1
SUPAMT43564,3C6FJU71TWSRWO2KOCL77YA7MQIYUP,AC0BA02A-85A6-42AE-880D-882BC5A4B1FF,2023-09-27_08h30.27.687,WP_VExplicitOC_LH,2022.2.5,Win32,8.016289099,61.45833333,5.2264,2.004,NA,NA,NA,NA,NA,frustrated,"frustrated, not frustrated","more frustrated, less frustrated",NA,NA,NA,NA,NA,NA,NA,NA,NA,NA,NA,NA,NA,NA,NA,NA,NA,NA,NA,NA,NA,NA,NA,NA,NA,NA,NA,NA,NA,NA,NA,NA,NA,NA,NA,NA,NA,NA,0,0,0,1,1,NA,NA,NA,NA,NA
SUPAMT43564,3C6FJU71TWSRWO2KOCL77YA7MQIYUP,AC0BA02A-85A6-42AE-880D-882BC5A4B1FF,2023-09-27_08h30.27.687,WP_VExplicitOC_LH,2022.2.5,Win32,8.016289099,49.47916667,4.0907,2.0737,NA,NA,NA,NA,NA,happy,"unhappy, happy","less happy, more happy",NA,NA,NA,NA,NA,NA,NA,NA,NA,NA,NA,NA,NA,NA,NA,NA,NA,NA,NA,NA,NA,NA,NA,NA,NA,NA,NA,NA,NA,NA,NA,NA,NA,NA,NA,NA,NA,NA,0,1,1,0,1,NA,NA,NA,NA,NA
SUPAMT43564,3C6FJU71TWSRWO2KOCL77YA7MQIYUP,AC0BA02A-85A6-42AE-880D-882BC5A4B1FF,2023-09-27_08h30.27.687,WP_VExplicitOC_LH,2022.2.5,Win32,8.016289099,54.42708333,4.188,2.1782,NA,NA,NA,NA,NA,bored,"bored, not bored","more bored, less bored",NA,NA,NA,NA,NA,NA,NA,NA,NA,NA,NA,NA,NA,NA,NA,NA,NA,NA,NA,NA,NA,NA,NA,NA,NA,NA,NA,NA,NA,NA,NA,NA,NA,NA,NA,NA,NA,NA,0,2,2,2,1,NA,NA,NA,NA,NA
SUPAMT43564,3C6FJU71TWSRWO2KOCL77YA7MQIYUP,AC0BA02A-85A6-42AE-880D-882BC5A4B1FF,2023-09-27_08h30.27.687,WP_VExplicitOC_LH,2022.2.5,Win32,8.016289099,NA,NA,NA,NA,NA,NA,NA,NA,NA,NA,NA,NA,NA,NA,NA,NA,NA,NA,NA,NA,NA,NA,NA,NA,NA,NA,NA,NA,NA,NA,NA,NA,NA,NA,NA,NA,NA,NA,NA,NA,NA,NA,NA,NA,NA,NA,NA,NA,NA,NA,NA,NA,NA,NA,2,0,2,0,1
SUPAMT43564,3C6FJU71TWSRWO2KOCL77YA7MQIYUP,AC0BA02A-85A6-42AE-880D-882BC5A4B1FF,2023-09-27_08h30.27.687,WP_VExplicitOC_LH,2022.2.5,Win32,8.016289099,NA,NA,2.0944,NA,NA,NA,NA,NA,bored,"bored, not bored","more bored, less bored",NA,NA,NA,NA,NA,NA,NA,NA,NA,NA,NA,NA,NA,NA,NA,NA,NA,NA,NA,NA,NA,NA,NA,NA,NA,NA,NA,NA,NA,NA,NA,NA,NA,NA,NA,NA,NA,NA,0,0,0,2,1,NA,NA,NA,NA,NA
SUPAMT43564,3C6FJU71TWSRWO2KOCL77YA7MQIYUP,AC0BA02A-85A6-42AE-880D-882BC5A4B1FF,2023-09-27_08h30.27.687,WP_VExplicitOC_LH,2022.2.5,Win32,8.016289099,57.29166667,4.4307,2.061,NA,NA,NA,NA,NA,happy,"unhappy, happy","less happy, more happy",NA,NA,NA,NA,NA,NA,NA,NA,NA,NA,NA,NA,NA,NA,NA,NA,NA,NA,NA,NA,NA,NA,NA,NA,NA,NA,NA,NA,NA,NA,NA,NA,NA,NA,NA,NA,NA,NA,0,1,1,0,1,NA,NA,NA,NA,NA
SUPAMT43564,3C6FJU71TWSRWO2KOCL77YA7MQIYUP,AC0BA02A-85A6-42AE-880D-882BC5A4B1FF,2023-09-27_08h30.27.687,WP_VExplicitOC_LH,2022.2.5,Win32,8.016289099,55.98958333,4.2644,2.0945,NA,NA,NA,NA,NA,frustrated,"frustrated, not frustrated","more frustrated, less frustrated",NA,NA,NA,NA,NA,NA,NA,NA,NA,NA,NA,NA,NA,NA,NA,NA,NA,NA,NA,NA,NA,NA,NA,NA,NA,NA,NA,NA,NA,NA,NA,NA,NA,NA,NA,NA,NA,NA,0,2,2,1,1,NA,NA,NA,NA,NA
SUPAMT43564,3C6FJU71TWSRWO2KOCL77YA7MQIYUP,AC0BA02A-85A6-42AE-880D-882BC5A4B1FF,2023-09-27_08h30.27.687,WP_VExplicitOC_LH,2022.2.5,Win32,8.016289099,NA,NA,NA,NA,NA,NA,NA,NA,NA,NA,NA,NA,NA,NA,NA,NA,NA,NA,NA,NA,NA,NA,NA,NA,NA,NA,NA,NA,NA,NA,NA,NA,NA,NA,NA,NA,NA,NA,NA,NA,NA,NA,NA,NA,NA,NA,NA,NA,NA,NA,NA,NA,NA,NA,3,0,3,0,1
SUPAMT43564,3C6FJU71TWSRWO2KOCL77YA7MQIYUP,AC0BA02A-85A6-42AE-880D-882BC5A4B1FF,2023-09-27_08h30.27.687,WP_VExplicitOC_LH,2022.2.5,Win32,8.016289099,55.72916667,4.3855,2.0986,NA,NA,NA,NA,NA,bored,"bored, not bored","more bored, less bored",NA,NA,NA,NA,NA,NA,NA,NA,NA,NA,NA,NA,NA,NA,NA,NA,NA,NA,NA,NA,NA,NA,NA,NA,NA,NA,NA,NA,NA,NA,NA,NA,NA,NA,NA,NA,NA,NA,0,0,0,2,1,NA,NA,NA,NA,NA
SUPAMT43564,3C6FJU71TWSRWO2KOCL77YA7MQIYUP,AC0BA02A-85A6-42AE-880D-882BC5A4B1FF,2023-09-27_08h30.27.687,WP_VExplicitOC_LH,2022.2.5,Win32,8.016289099,58.07291667,4.2221,2.0244,NA,NA,NA,NA,NA,frustrated,"frustrated, not frustrated","more frustrated, less frustrated",NA,NA,NA,NA,NA,NA,NA,NA,NA,NA,NA,NA,NA,NA,NA,NA,NA,NA,NA,NA,NA,NA,NA,NA,NA,NA,NA,NA,NA,NA,NA,NA,NA,NA,NA,NA,NA,NA,0,1,1,1,1,NA,NA,NA,NA,NA
SUPAMT43564,3C6FJU71TWSRWO2KOCL77YA7MQIYUP,AC0BA02A-85A6-42AE-880D-882BC5A4B1FF,2023-09-27_08h30.27.687,WP_VExplicitOC_LH,2022.2.5,Win32,8.016289099,60.41666667,4.2214,2.1384,NA,NA,NA,NA,NA,happy,"unhappy, happy","less happy, more happy",NA,NA,NA,NA,NA,NA,NA,NA,NA,NA,NA,NA,NA,NA,NA,NA,NA,NA,NA,NA,NA,NA,NA,NA,NA,NA,NA,NA,NA,NA,NA,NA,NA,NA,NA,NA,NA,NA,0,2,2,0,1,NA,NA,NA,NA,NA
SUPAMT43564,3C6FJU71TWSRWO2KOCL77YA7MQIYUP,AC0BA02A-85A6-42AE-880D-882BC5A4B1FF,2023-09-27_08h30.27.687,WP_VExplicitOC_LH,2022.2.5,Win32,8.016289099,NA,NA,NA,NA,NA,NA,NA,NA,NA,NA,NA,NA,NA,NA,NA,NA,NA,NA,NA,NA,NA,NA,NA,NA,NA,NA,NA,NA,NA,NA,NA,NA,NA,NA,NA,NA,NA,NA,NA,NA,NA,NA,NA,NA,NA,NA,NA,NA,NA,NA,NA,NA,NA,NA,4,0,4,0,1
SUPAMT43564,3C6FJU71TWSRWO2KOCL77YA7MQIYUP,AC0BA02A-85A6-42AE-880D-882BC5A4B1FF,2023-09-27_08h30.27.687,WP_VExplicitOC_LH,2022.2.5,Win32,8.016289099,36.71875,4.4613,2.133,NA,NA,NA,NA,NA,frustrated,"frustrated, not frustrated","more frustrated, less frustrated",NA,NA,NA,NA,NA,NA,NA,NA,NA,NA,NA,NA,NA,NA,NA,NA,NA,NA,NA,NA,NA,NA,NA,NA,NA,NA,NA,NA,NA,NA,NA,NA,NA,NA,NA,NA,NA,NA,0,0,0,1,1,NA,NA,NA,NA,NA
SUPAMT43564,3C6FJU71TWSRWO2KOCL77YA7MQIYUP,AC0BA02A-85A6-42AE-880D-882BC5A4B1FF,2023-09-27_08h30.27.687,WP_VExplicitOC_LH,2022.2.5,Win32,8.016289099,43.48958333,4.2885,2.0445,NA,NA,NA,NA,NA,happy,"unhappy, happy","less happy, more happy",NA,NA,NA,NA,NA,NA,NA,NA,NA,NA,NA,NA,NA,NA,NA,NA,NA,NA,NA,NA,NA,NA,NA,NA,NA,NA,NA,NA,NA,NA,NA,NA,NA,NA,NA,NA,NA,NA,0,1,1,0,1,NA,NA,NA,NA,NA
SUPAMT43564,3C6FJU71TWSRWO2KOCL77YA7MQIYUP,AC0BA02A-85A6-42AE-880D-882BC5A4B1FF,2023-09-27_08h30.27.687,WP_VExplicitOC_LH,2022.2.5,Win32,8.016289099,51.82291667,4.1731,2.0165,NA,NA,NA,NA,NA,bored,"bored, not bored","more bored, less bored",NA,NA,NA,NA,NA,NA,NA,NA,NA,NA,NA,NA,NA,NA,NA,NA,NA,NA,NA,NA,NA,NA,NA,NA,NA,NA,NA,NA,NA,NA,NA,NA,NA,NA,NA,NA,NA,NA,0,2,2,2,1,NA,NA,NA,NA,NA
SUPAMT43564,3C6FJU71TWSRWO2KOCL77YA7MQIYUP,AC0BA02A-85A6-42AE-880D-882BC5A4B1FF,2023-09-27_08h30.27.687,WP_VExplicitOC_LH,2022.2.5,Win32,8.016289099,NA,NA,NA,NA,NA,NA,NA,NA,NA,NA,NA,NA,NA,NA,NA,NA,NA,NA,NA,NA,NA,NA,NA,NA,NA,NA,NA,NA,NA,NA,NA,NA,NA,NA,NA,NA,NA,NA,NA,NA,NA,NA,NA,NA,NA,NA,NA,NA,NA,NA,NA,NA,NA,NA,5,0,5,0,1
SUPAMT43564,3C6FJU71TWSRWO2KOCL77YA7MQIYUP,AC0BA02A-85A6-42AE-880D-882BC5A4B1FF,2023-09-27_08h30.27.687,WP_VExplicitOC_LH,2022.2.5,Win32,8.016289099,46.61458333,4.9124,2.049,NA,NA,NA,NA,NA,frustrated,"frustrated, not frustrated","more frustrated, less frustrated",NA,NA,NA,NA,NA,NA,NA,NA,NA,NA,NA,NA,NA,NA,NA,NA,NA,NA,NA,NA,NA,NA,NA,NA,NA,NA,NA,NA,NA,NA,NA,NA,NA,NA,NA,NA,NA,NA,0,0,0,1,1,NA,NA,NA,NA,NA
SUPAMT43564,3C6FJU71TWSRWO2KOCL77YA7MQIYUP,AC0BA02A-85A6-42AE-880D-882BC5A4B1FF,2023-09-27_08h30.27.687,WP_VExplicitOC_LH,2022.2.5,Win32,8.016289099,53.125,3.8218,2.0629,NA,NA,NA,NA,NA,bored,"bored, not bored","more bored, less bored",NA,NA,NA,NA,NA,NA,NA,NA,NA,NA,NA,NA,NA,NA,NA,NA,NA,NA,NA,NA,NA,NA,NA,NA,NA,NA,NA,NA,NA,NA,NA,NA,NA,NA,NA,NA,NA,NA,0,1,1,2,1,NA,NA,NA,NA,NA
SUPAMT43564,3C6FJU71TWSRWO2KOCL77YA7MQIYUP,AC0BA02A-85A6-42AE-880D-882BC5A4B1FF,2023-09-27_08h30.27.687,WP_VExplicitOC_LH,2022.2.5,Win32,8.016289099,59.89583333,4.2005,2.1042,NA,NA,NA,NA,NA,happy,"unhappy, happy","less happy, more happy",NA,NA,NA,NA,NA,NA,NA,NA,NA,NA,NA,NA,NA,NA,NA,NA,NA,NA,NA,NA,NA,NA,NA,NA,NA,NA,NA,NA,NA,NA,NA,NA,NA,NA,NA,NA,NA,NA,0,2,2,0,1,NA,NA,NA,NA,NA
SUPAMT43564,3C6FJU71TWSRWO2KOCL77YA7MQIYUP,AC0BA02A-85A6-42AE-880D-882BC5A4B1FF,2023-09-27_08h30.27.687,WP_VExplicitOC_LH,2022.2.5,Win32,8.016289099,NA,NA,NA,NA,NA,NA,NA,NA,NA,NA,NA,NA,NA,NA,NA,NA,NA,NA,NA,NA,NA,NA,NA,NA,NA,NA,NA,NA,NA,NA,NA,NA,NA,NA,NA,NA,NA,NA,NA,NA,NA,NA,NA,NA,NA,NA,NA,NA,NA,NA,NA,NA,NA,NA,6,0,6,0,1
SUPAMT43564,3C6FJU71TWSRWO2KOCL77YA7MQIYUP,AC0BA02A-85A6-42AE-880D-882BC5A4B1FF,2023-09-27_08h30.27.687,WP_VExplicitOC_LH,2022.2.5,Win32,8.016289099,55.72916667,6.905,2.1717,NA,NA,NA,NA,NA,frustrated,"frustrated, not frustrated","more frustrated, less frustrated",NA,NA,NA,NA,NA,NA,NA,NA,NA,NA,NA,NA,NA,NA,NA,NA,NA,NA,NA,NA,NA,NA,NA,NA,NA,NA,NA,NA,NA,NA,NA,NA,NA,NA,NA,NA,NA,NA,0,0,0,1,1,NA,NA,NA,NA,NA
SUPAMT43564,3C6FJU71TWSRWO2KOCL77YA7MQIYUP,AC0BA02A-85A6-42AE-880D-882BC5A4B1FF,2023-09-27_08h30.27.687,WP_VExplicitOC_LH,2022.2.5,Win32,8.016289099,57.03125,3.9574,2.0288,NA,NA,NA,NA,NA,bored,"bored, not bored","more bored, less bored",NA,NA,NA,NA,NA,NA,NA,NA,NA,NA,NA,NA,NA,NA,NA,NA,NA,NA,NA,NA,NA,NA,NA,NA,NA,NA,NA,NA,NA,NA,NA,NA,NA,NA,NA,NA,NA,NA,0,1,1,2,1,NA,NA,NA,NA,NA
SUPAMT43564,3C6FJU71TWSRWO2KOCL77YA7MQIYUP,AC0BA02A-85A6-42AE-880D-882BC5A4B1FF,2023-09-27_08h30.27.687,WP_VExplicitOC_LH,2022.2.5,Win32,8.016289099,51.30208333,3.873,2.0247,NA,NA,NA,NA,NA,happy,"unhappy, happy","less happy, more happy",NA,NA,NA,NA,NA,NA,NA,NA,NA,NA,NA,NA,NA,NA,NA,NA,NA,NA,NA,NA,NA,NA,NA,NA,NA,NA,NA,NA,NA,NA,NA,NA,NA,NA,NA,NA,NA,NA,0,2,2,0,1,NA,NA,NA,NA,NA
SUPAMT43564,3C6FJU71TWSRWO2KOCL77YA7MQIYUP,AC0BA02A-85A6-42AE-880D-882BC5A4B1FF,2023-09-27_08h30.27.687,WP_VExplicitOC_LH,2022.2.5,Win32,8.016289099,NA,NA,NA,NA,NA,NA,NA,NA,NA,NA,NA,NA,NA,NA,NA,NA,NA,NA,NA,NA,NA,NA,NA,NA,NA,NA,NA,NA,NA,NA,NA,NA,NA,NA,NA,NA,NA,NA,NA,NA,NA,NA,NA,NA,NA,NA,NA,NA,NA,NA,NA,NA,NA,NA,7,0,7,0,1
SUPAMT43564,3C6FJU71TWSRWO2KOCL77YA7MQIYUP,AC0BA02A-85A6-42AE-880D-882BC5A4B1FF,2023-09-27_08h30.27.687,WP_VExplicitOC_LH,2022.2.5,Win32,8.016289099,47.65625,4.354,2.1038,NA,NA,NA,NA,NA,bored,"bored, not bored","more bored, less bored",NA,NA,NA,NA,NA,NA,NA,NA,NA,NA,NA,NA,NA,NA,NA,NA,NA,NA,NA,NA,NA,NA,NA,NA,NA,NA,NA,NA,NA,NA,NA,NA,NA,NA,NA,NA,NA,NA,0,0,0,2,1,NA,NA,NA,NA,NA
SUPAMT43564,3C6FJU71TWSRWO2KOCL77YA7MQIYUP,AC0BA02A-85A6-42AE-880D-882BC5A4B1FF,2023-09-27_08h30.27.687,WP_VExplicitOC_LH,2022.2.5,Win32,8.016289099,62.5,3.8739,2.0984,NA,NA,NA,NA,NA,frustrated,"frustrated, not frustrated","more frustrated, less frustrated",NA,NA,NA,NA,NA,NA,NA,NA,NA,NA,NA,NA,NA,NA,NA,NA,NA,NA,NA,NA,NA,NA,NA,NA,NA,NA,NA,NA,NA,NA,NA,NA,NA,NA,NA,NA,NA,NA,0,1,1,1,1,NA,NA,NA,NA,NA
SUPAMT43564,3C6FJU71TWSRWO2KOCL77YA7MQIYUP,AC0BA02A-85A6-42AE-880D-882BC5A4B1FF,2023-09-27_08h30.27.687,WP_VExplicitOC_LH,2022.2.5,Win32,8.016289099,53.38541667,4.4259,2.1149,NA,NA,NA,NA,NA,happy,"unhappy, happy","less happy, more happy",NA,NA,NA,NA,NA,NA,NA,NA,NA,NA,NA,NA,NA,NA,NA,NA,NA,NA,NA,NA,NA,NA,NA,NA,NA,NA,NA,NA,NA,NA,NA,NA,NA,NA,NA,NA,NA,NA,0,2,2,0,1,NA,NA,NA,NA,NA
SUPAMT43564,3C6FJU71TWSRWO2KOCL77YA7MQIYUP,AC0BA02A-85A6-42AE-880D-882BC5A4B1FF,2023-09-27_08h30.27.687,WP_VExplicitOC_LH,2022.2.5,Win32,8.016289099,NA,NA,NA,NA,NA,NA,NA,NA,NA,NA,NA,NA,NA,NA,NA,NA,NA,NA,NA,NA,NA,NA,NA,NA,NA,NA,NA,NA,NA,NA,NA,NA,NA,NA,NA,NA,NA,NA,NA,NA,NA,NA,NA,NA,NA,NA,NA,NA,NA,NA,NA,NA,NA,NA,8,0,8,0,1
SUPAMT43564,3C6FJU71TWSRWO2KOCL77YA7MQIYUP,AC0BA02A-85A6-42AE-880D-882BC5A4B1FF,2023-09-27_08h30.27.687,WP_VExplicitOC_LH,2022.2.5,Win32,8.016289099,-0.260416667,3.6008,2.0949,NA,NA,NA,NA,NA,happy,"unhappy, happy","less happy, more happy",NA,NA,NA,NA,NA,NA,NA,NA,NA,NA,NA,NA,NA,NA,NA,NA,NA,NA,NA,NA,NA,NA,NA,NA,NA,NA,NA,NA,NA,NA,NA,NA,NA,NA,NA,NA,NA,NA,0,0,0,0,1,NA,NA,NA,NA,NA
SUPAMT43564,3C6FJU71TWSRWO2KOCL77YA7MQIYUP,AC0BA02A-85A6-42AE-880D-882BC5A4B1FF,2023-09-27_08h30.27.687,WP_VExplicitOC_LH,2022.2.5,Win32,8.016289099,46.875,6.9405,2.1579,NA,NA,NA,NA,NA,bored,"bored, not bored","more bored, less bored",NA,NA,NA,NA,NA,NA,NA,NA,NA,NA,NA,NA,NA,NA,NA,NA,NA,NA,NA,NA,NA,NA,NA,NA,NA,NA,NA,NA,NA,NA,NA,NA,NA,NA,NA,NA,NA,NA,0,1,1,2,1,NA,NA,NA,NA,NA
SUPAMT43564,3C6FJU71TWSRWO2KOCL77YA7MQIYUP,AC0BA02A-85A6-42AE-880D-882BC5A4B1FF,2023-09-27_08h30.27.687,WP_VExplicitOC_LH,2022.2.5,Win32,8.016289099,49.47916667,3.8132,2.0227,NA,NA,NA,NA,NA,frustrated,"frustrated, not frustrated","more frustrated, less frustrated",NA,NA,NA,NA,NA,NA,NA,NA,NA,NA,NA,NA,NA,NA,NA,NA,NA,NA,NA,NA,NA,NA,NA,NA,NA,NA,NA,NA,NA,NA,NA,NA,NA,NA,NA,NA,NA,NA,0,2,2,1,1,NA,NA,NA,NA,NA
SUPAMT43564,3C6FJU71TWSRWO2KOCL77YA7MQIYUP,AC0BA02A-85A6-42AE-880D-882BC5A4B1FF,2023-09-27_08h30.27.687,WP_VExplicitOC_LH,2022.2.5,Win32,8.016289099,NA,NA,NA,NA,NA,NA,NA,NA,NA,NA,NA,NA,NA,NA,NA,NA,NA,NA,NA,NA,NA,NA,NA,NA,NA,NA,NA,NA,NA,NA,NA,NA,NA,NA,NA,NA,NA,NA,NA,NA,NA,NA,NA,NA,NA,NA,NA,NA,NA,NA,NA,NA,NA,NA,9,0,9,0,1
SUPAMT43564,3C6FJU71TWSRWO2KOCL77YA7MQIYUP,AC0BA02A-85A6-42AE-880D-882BC5A4B1FF,2023-09-27_08h30.27.687,WP_VExplicitOC_LH,2022.2.5,Win32,8.016289099,58.85416667,4.8292,2.0492,NA,NA,NA,NA,NA,frustrated,"frustrated, not frustrated","more frustrated, less frustrated",NA,NA,NA,NA,NA,NA,NA,NA,NA,NA,NA,NA,NA,NA,NA,NA,NA,NA,NA,NA,NA,NA,NA,NA,NA,NA,NA,NA,NA,NA,NA,NA,NA,NA,NA,NA,NA,NA,0,0,0,1,1,NA,NA,NA,NA,NA
SUPAMT43564,3C6FJU71TWSRWO2KOCL77YA7MQIYUP,AC0BA02A-85A6-42AE-880D-882BC5A4B1FF,2023-09-27_08h30.27.687,WP_VExplicitOC_LH,2022.2.5,Win32,8.016289099,49.73958333,4.2963,2.1009,NA,NA,NA,NA,NA,happy,"unhappy, happy","less happy, more happy",NA,NA,NA,NA,NA,NA,NA,NA,NA,NA,NA,NA,NA,NA,NA,NA,NA,NA,NA,NA,NA,NA,NA,NA,NA,NA,NA,NA,NA,NA,NA,NA,NA,NA,NA,NA,NA,NA,0,1,1,0,1,NA,NA,NA,NA,NA
SUPAMT43564,3C6FJU71TWSRWO2KOCL77YA7MQIYUP,AC0BA02A-85A6-42AE-880D-882BC5A4B1FF,2023-09-27_08h30.27.687,WP_VExplicitOC_LH,2022.2.5,Win32,8.016289099,63.02083333,4.3596,2.0941,NA,NA,NA,NA,NA,bored,"bored, not bored","more bored, less bored",NA,NA,NA,NA,NA,NA,NA,NA,NA,NA,NA,NA,NA,NA,NA,NA,NA,NA,NA,NA,NA,NA,NA,NA,NA,NA,NA,NA,NA,NA,NA,NA,NA,NA,NA,NA,NA,NA,0,2,2,2,1,NA,NA,NA,NA,NA
SUPAMT43564,3C6FJU71TWSRWO2KOCL77YA7MQIYUP,AC0BA02A-85A6-42AE-880D-882BC5A4B1FF,2023-09-27_08h30.27.687,WP_VExplicitOC_LH,2022.2.5,Win32,8.016289099,NA,NA,NA,NA,NA,NA,NA,NA,NA,NA,NA,NA,NA,NA,NA,NA,NA,NA,NA,NA,NA,NA,NA,NA,NA,NA,NA,NA,NA,NA,NA,NA,NA,NA,NA,NA,NA,NA,NA,NA,NA,NA,NA,NA,NA,NA,NA,NA,NA,NA,NA,NA,NA,NA,10,0,10,0,1
SUPAMT43564,3C6FJU71TWSRWO2KOCL77YA7MQIYUP,AC0BA02A-85A6-42AE-880D-882BC5A4B1FF,2023-09-27_08h30.27.687,WP_VExplicitOC_LH,2022.2.5,Win32,8.016289099,57.55208333,4.8275,2.0345,NA,NA,NA,NA,NA,frustrated,"frustrated, not frustrated","more frustrated, less frustrated",NA,NA,NA,NA,NA,NA,NA,NA,NA,NA,NA,NA,NA,NA,NA,NA,NA,NA,NA,NA,NA,NA,NA,NA,NA,NA,NA,NA,NA,NA,NA,NA,NA,NA,NA,NA,NA,NA,0,0,0,1,1,NA,NA,NA,NA,NA
SUPAMT43564,3C6FJU71TWSRWO2KOCL77YA7MQIYUP,AC0BA02A-85A6-42AE-880D-882BC5A4B1FF,2023-09-27_08h30.27.687,WP_VExplicitOC_LH,2022.2.5,Win32,8.016289099,51.5625,3.8889,2.0273,NA,NA,NA,NA,NA,bored,"bored, not bored","more bored, less bored",NA,NA,NA,NA,NA,NA,NA,NA,NA,NA,NA,NA,NA,NA,NA,NA,NA,NA,NA,NA,NA,NA,NA,NA,NA,NA,NA,NA,NA,NA,NA,NA,NA,NA,NA,NA,NA,NA,0,1,1,2,1,NA,NA,NA,NA,NA
SUPAMT43564,3C6FJU71TWSRWO2KOCL77YA7MQIYUP,AC0BA02A-85A6-42AE-880D-882BC5A4B1FF,2023-09-27_08h30.27.687,WP_VExplicitOC_LH,2022.2.5,Win32,8.016289099,59.375,3.8015,2.0986,NA,NA,NA,NA,NA,happy,"unhappy, happy","less happy, more happy",NA,NA,NA,NA,NA,NA,NA,NA,NA,NA,NA,NA,NA,NA,NA,NA,NA,NA,NA,NA,NA,NA,NA,NA,NA,NA,NA,NA,NA,NA,NA,NA,NA,NA,NA,NA,NA,NA,0,2,2,0,1,NA,NA,NA,NA,NA
SUPAMT43564,3C6FJU71TWSRWO2KOCL77YA7MQIYUP,AC0BA02A-85A6-42AE-880D-882BC5A4B1FF,2023-09-27_08h30.27.687,WP_VExplicitOC_LH,2022.2.5,Win32,8.016289099,NA,NA,NA,NA,NA,NA,NA,NA,NA,NA,NA,NA,NA,NA,NA,NA,NA,NA,NA,NA,NA,NA,NA,NA,NA,NA,NA,NA,NA,NA,NA,NA,NA,NA,NA,NA,NA,NA,NA,NA,NA,NA,NA,NA,NA,NA,NA,NA,NA,NA,NA,NA,NA,NA,11,0,11,0,1
SUPAMT43564,3C6FJU71TWSRWO2KOCL77YA7MQIYUP,AC0BA02A-85A6-42AE-880D-882BC5A4B1FF,2023-09-27_08h30.27.687,WP_VExplicitOC_LH,2022.2.5,Win32,8.016289099,28.125,3.5717,2.0974,NA,NA,NA,NA,NA,happy,"unhappy, happy","less happy, more happy",NA,NA,NA,NA,NA,NA,NA,NA,NA,NA,NA,NA,NA,NA,NA,NA,NA,NA,NA,NA,NA,NA,NA,NA,NA,NA,NA,NA,NA,NA,NA,NA,NA,NA,NA,NA,NA,NA,0,0,0,0,1,NA,NA,NA,NA,NA
SUPAMT43564,3C6FJU71TWSRWO2KOCL77YA7MQIYUP,AC0BA02A-85A6-42AE-880D-882BC5A4B1FF,2023-09-27_08h30.27.687,WP_VExplicitOC_LH,2022.2.5,Win32,8.016289099,56.25,4.6634,2.0714,NA,NA,NA,NA,NA,bored,"bored, not bored","more bored, less bored",NA,NA,NA,NA,NA,NA,NA,NA,NA,NA,NA,NA,NA,NA,NA,NA,NA,NA,NA,NA,NA,NA,NA,NA,NA,NA,NA,NA,NA,NA,NA,NA,NA,NA,NA,NA,NA,NA,0,1,1,2,1,NA,NA,NA,NA,NA
SUPAMT43564,3C6FJU71TWSRWO2KOCL77YA7MQIYUP,AC0BA02A-85A6-42AE-880D-882BC5A4B1FF,2023-09-27_08h30.27.687,WP_VExplicitOC_LH,2022.2.5,Win32,8.016289099,39.84375,5.0072,2.0581,NA,NA,NA,NA,NA,frustrated,"frustrated, not frustrated","more frustrated, less frustrated",NA,NA,NA,NA,NA,NA,NA,NA,NA,NA,NA,NA,NA,NA,NA,NA,NA,NA,NA,NA,NA,NA,NA,NA,NA,NA,NA,NA,NA,NA,NA,NA,NA,NA,NA,NA,NA,NA,0,2,2,1,1,NA,NA,NA,NA,NA
SUPAMT43564,3C6FJU71TWSRWO2KOCL77YA7MQIYUP,AC0BA02A-85A6-42AE-880D-882BC5A4B1FF,2023-09-27_08h30.27.687,WP_VExplicitOC_LH,2022.2.5,Win32,8.016289099,NA,NA,NA,NA,NA,NA,NA,NA,NA,NA,NA,NA,NA,NA,NA,NA,NA,NA,NA,NA,NA,NA,NA,NA,NA,NA,NA,NA,NA,NA,NA,NA,NA,NA,NA,NA,NA,NA,NA,NA,NA,NA,NA,NA,NA,NA,NA,NA,NA,NA,NA,NA,NA,NA,12,0,12,0,1
SUPAMT43564,3C6FJU71TWSRWO2KOCL77YA7MQIYUP,AC0BA02A-85A6-42AE-880D-882BC5A4B1FF,2023-09-27_08h30.27.687,WP_VExplicitOC_LH,2022.2.5,Win32,8.016289099,44.27083333,3.7005,2.0974,NA,NA,NA,NA,NA,frustrated,"frustrated, not frustrated","more frustrated, less frustrated",NA,NA,NA,NA,NA,NA,NA,NA,NA,NA,NA,NA,NA,NA,NA,NA,NA,NA,NA,NA,NA,NA,NA,NA,NA,NA,NA,NA,NA,NA,NA,NA,NA,NA,NA,NA,NA,NA,0,0,0,1,1,NA,NA,NA,NA,NA
SUPAMT43564,3C6FJU71TWSRWO2KOCL77YA7MQIYUP,AC0BA02A-85A6-42AE-880D-882BC5A4B1FF,2023-09-27_08h30.27.687,WP_VExplicitOC_LH,2022.2.5,Win32,8.016289099,33.59375,3.5582,2.0002,NA,NA,NA,NA,NA,bored,"bored, not bored","more bored, less bored",NA,NA,NA,NA,NA,NA,NA,NA,NA,NA,NA,NA,NA,NA,NA,NA,NA,NA,NA,NA,NA,NA,NA,NA,NA,NA,NA,NA,NA,NA,NA,NA,NA,NA,NA,NA,NA,NA,0,1,1,2,1,NA,NA,NA,NA,NA
SUPAMT43564,3C6FJU71TWSRWO2KOCL77YA7MQIYUP,AC0BA02A-85A6-42AE-880D-882BC5A4B1FF,2023-09-27_08h30.27.687,WP_VExplicitOC_LH,2022.2.5,Win32,8.016289099,25,3.3349,2.034,NA,NA,NA,NA,NA,happy,"unhappy, happy","less happy, more happy",NA,NA,NA,NA,NA,NA,NA,NA,NA,NA,NA,NA,NA,NA,NA,NA,NA,NA,NA,NA,NA,NA,NA,NA,NA,NA,NA,NA,NA,NA,NA,NA,NA,NA,NA,NA,NA,NA,0,2,2,0,1,NA,NA,NA,NA,NA
SUPAMT43564,3C6FJU71TWSRWO2KOCL77YA7MQIYUP,AC0BA02A-85A6-42AE-880D-882BC5A4B1FF,2023-09-27_08h30.27.687,WP_VExplicitOC_LH,2022.2.5,Win32,8.016289099,NA,NA,NA,NA,NA,NA,NA,NA,NA,NA,NA,NA,NA,NA,NA,NA,NA,NA,NA,NA,NA,NA,NA,NA,NA,NA,NA,NA,NA,NA,NA,NA,NA,NA,NA,NA,NA,NA,NA,NA,NA,NA,NA,NA,NA,NA,NA,NA,NA,NA,NA,NA,NA,NA,13,0,13,0,1
SUPAMT43564,3C6FJU71TWSRWO2KOCL77YA7MQIYUP,AC0BA02A-85A6-42AE-880D-882BC5A4B1FF,2023-09-27_08h30.27.687,WP_VExplicitOC_LH,2022.2.5,Win32,8.016289099,41.40625,3.795,2.005,NA,NA,NA,NA,NA,bored,"bored, not bored","more bored, less bored",NA,NA,NA,NA,NA,NA,NA,NA,NA,NA,NA,NA,NA,NA,NA,NA,NA,NA,NA,NA,NA,NA,NA,NA,NA,NA,NA,NA,NA,NA,NA,NA,NA,NA,NA,NA,NA,NA,0,0,0,2,1,NA,NA,NA,NA,NA
SUPAMT43564,3C6FJU71TWSRWO2KOCL77YA7MQIYUP,AC0BA02A-85A6-42AE-880D-882BC5A4B1FF,2023-09-27_08h30.27.687,WP_VExplicitOC_LH,2022.2.5,Win32,8.016289099,33.59375,4.4293,2.0384,NA,NA,NA,NA,NA,happy,"unhappy, happy","less happy, more happy",NA,NA,NA,NA,NA,NA,NA,NA,NA,NA,NA,NA,NA,NA,NA,NA,NA,NA,NA,NA,NA,NA,NA,NA,NA,NA,NA,NA,NA,NA,NA,NA,NA,NA,NA,NA,NA,NA,0,1,1,0,1,NA,NA,NA,NA,NA
SUPAMT43564,3C6FJU71TWSRWO2KOCL77YA7MQIYUP,AC0BA02A-85A6-42AE-880D-882BC5A4B1FF,2023-09-27_08h30.27.687,WP_VExplicitOC_LH,2022.2.5,Win32,8.016289099,55.98958333,4.6373,2.0449,NA,NA,NA,NA,NA,frustrated,"frustrated, not frustrated","more frustrated, less frustrated",NA,NA,NA,NA,NA,NA,NA,NA,NA,NA,NA,NA,NA,NA,NA,NA,NA,NA,NA,NA,NA,NA,NA,NA,NA,NA,NA,NA,NA,NA,NA,NA,NA,NA,NA,NA,NA,NA,0,2,2,1,1,NA,NA,NA,NA,NA
SUPAMT43564,3C6FJU71TWSRWO2KOCL77YA7MQIYUP,AC0BA02A-85A6-42AE-880D-882BC5A4B1FF,2023-09-27_08h30.27.687,WP_VExplicitOC_LH,2022.2.5,Win32,8.016289099,NA,NA,NA,NA,NA,NA,NA,NA,NA,NA,NA,NA,NA,NA,NA,NA,NA,NA,NA,NA,NA,NA,NA,NA,NA,NA,NA,NA,NA,NA,NA,NA,NA,NA,NA,NA,NA,NA,NA,NA,NA,NA,NA,NA,NA,NA,NA,NA,NA,NA,NA,NA,NA,NA,14,0,14,0,1
SUPAMT43564,3C6FJU71TWSRWO2KOCL77YA7MQIYUP,AC0BA02A-85A6-42AE-880D-882BC5A4B1FF,2023-09-27_08h30.27.687,WP_VExplicitOC_LH,2022.2.5,Win32,8.016289099,NA,NA,NA,NA,NA,NA,NA,NA,NA,NA,NA,NA,NA,NA,NA,NA,NA,NA,NA,NA,NA,NA,NA,NA,NA,NA,NA,NA,NA,NA,NA,NA,NA,NA,NA,NA,NA,NA,NA,NA,NA,NA,NA,NA,NA,NA,NA,NA,NA,NA,NA,NA,NA,NA,NA,NA,NA,NA,NA
