participant,session,completion,date,expName,psychopyVersion,OS,frameRate,rating_all.response,rating_all.rt,rating_all.tStart,rndRat1.thisRepN,rndRat1.thisTrialN,rndRat1.thisN,rndRat1.thisIndex,rndRat1.ran,Emo,Labs,Labs2,rating_alt.response,rating_alt.rt,AltC.thisRepN,AltC.thisTrialN,AltC.thisN,AltC.thisIndex,AltC.ran,alt_choices,pic_choices,TopAlt_Choice,rndRat2.thisRepN,rndRat2.thisTrialN,rndRat2.thisN,rndRat2.thisIndex,rndRat2.ran,rndRat3.thisRepN,rndRat3.thisTrialN,rndRat3.thisN,rndRat3.thisIndex,rndRat3.ran,trials_FC_H.thisRepN,trials_FC_H.thisTrialN,trials_FC_H.thisN,trials_FC_H.thisIndex,trials_FC_H.ran,rating_alt_2.response,rating_alt_2.rt,AltC2.thisRepN,AltC2.thisTrialN,AltC2.thisN,AltC2.thisIndex,AltC2.ran,BottomAlt_Choice,rndRat4.thisRepN,rndRat4.thisTrialN,rndRat4.thisN,rndRat4.thisIndex,rndRat4.ran,rndRat5.thisRepN,rndRat5.thisTrialN,rndRat5.thisN,rndRat5.thisIndex,rndRat5.ran,trials_FC_L.thisRepN,trials_FC_L.thisTrialN,trials_FC_L.thisN,trials_FC_L.thisIndex,trials_FC_L.ran
SUPAMT68034,3VP0C6EFSMV60WN59RZTXX9KA14M6H,6ABC660E-50F0-4B8B-AEB1-9359AEE2E686,2023-09-28_07h45.35.345,WP_VExplicitOC_HL,2022.2.5,Win32,16.75940202,NA,NA,NA,NA,NA,NA,NA,NA,NA,NA,NA,NA,NA,NA,NA,NA,NA,NA,NA,NA,NA,NA,NA,NA,NA,NA,NA,NA,NA,NA,NA,NA,NA,NA,NA,NA,NA,NA,NA,NA,NA,NA,NA,NA,NA,NA,NA,NA,NA,NA,NA,NA,NA,NA,NA,NA,NA,NA,NA
SUPAMT68034,3VP0C6EFSMV60WN59RZTXX9KA14M6H,6ABC660E-50F0-4B8B-AEB1-9359AEE2E686,2023-09-28_07h45.35.345,WP_VExplicitOC_HL,2022.2.5,Win32,16.75940202,NA,NA,NA,NA,NA,NA,NA,NA,NA,NA,NA,NA,NA,NA,NA,NA,NA,NA,NA,NA,NA,NA,NA,NA,NA,NA,NA,NA,NA,NA,NA,NA,NA,NA,NA,NA,NA,NA,NA,NA,NA,NA,NA,NA,NA,NA,NA,NA,NA,NA,NA,NA,NA,NA,NA,NA,NA,NA,NA
SUPAMT68034,3VP0C6EFSMV60WN59RZTXX9KA14M6H,6ABC660E-50F0-4B8B-AEB1-9359AEE2E686,2023-09-28_07h45.35.345,WP_VExplicitOC_HL,2022.2.5,Win32,16.75940202,NA,NA,NA,NA,NA,NA,NA,NA,NA,NA,NA,NA,NA,NA,NA,NA,NA,NA,NA,NA,NA,NA,NA,NA,NA,NA,NA,NA,NA,NA,NA,NA,NA,NA,NA,NA,NA,NA,NA,NA,NA,NA,NA,NA,NA,NA,NA,NA,NA,NA,NA,NA,NA,NA,NA,NA,NA,NA,NA
SUPAMT68034,3VP0C6EFSMV60WN59RZTXX9KA14M6H,6ABC660E-50F0-4B8B-AEB1-9359AEE2E686,2023-09-28_07h45.35.345,WP_VExplicitOC_HL,2022.2.5,Win32,16.75940202,34.89583333,4.5685,2.1048,0,0,0,1,1,frustrated,"frustrated, not frustrated","more frustrated, less frustrated",NA,NA,NA,NA,NA,NA,NA,NA,NA,NA,NA,NA,NA,NA,NA,NA,NA,NA,NA,NA,NA,NA,NA,NA,NA,NA,NA,NA,NA,NA,NA,NA,NA,NA,NA,NA,NA,NA,NA,NA,NA,NA,NA,NA,NA,NA,NA,NA
SUPAMT68034,3VP0C6EFSMV60WN59RZTXX9KA14M6H,6ABC660E-50F0-4B8B-AEB1-9359AEE2E686,2023-09-28_07h45.35.345,WP_VExplicitOC_HL,2022.2.5,Win32,16.75940202,48.4375,2.3858,2.0347,0,1,1,0,1,happy,"unhappy, happy","less happy, more happy",NA,NA,NA,NA,NA,NA,NA,NA,NA,NA,NA,NA,NA,NA,NA,NA,NA,NA,NA,NA,NA,NA,NA,NA,NA,NA,NA,NA,NA,NA,NA,NA,NA,NA,NA,NA,NA,NA,NA,NA,NA,NA,NA,NA,NA,NA,NA,NA
SUPAMT68034,3VP0C6EFSMV60WN59RZTXX9KA14M6H,6ABC660E-50F0-4B8B-AEB1-9359AEE2E686,2023-09-28_07h45.35.345,WP_VExplicitOC_HL,2022.2.5,Win32,16.75940202,24.73958333,2.7804,2.0796,0,2,2,2,1,bored,"bored, not bored","more bored, less bored",NA,NA,NA,NA,NA,NA,NA,NA,NA,NA,NA,NA,NA,NA,NA,NA,NA,NA,NA,NA,NA,NA,NA,NA,NA,NA,NA,NA,NA,NA,NA,NA,NA,NA,NA,NA,NA,NA,NA,NA,NA,NA,NA,NA,NA,NA,NA,NA
SUPAMT68034,3VP0C6EFSMV60WN59RZTXX9KA14M6H,6ABC660E-50F0-4B8B-AEB1-9359AEE2E686,2023-09-28_07h45.35.345,WP_VExplicitOC_HL,2022.2.5,Win32,16.75940202,NA,NA,NA,NA,NA,NA,NA,NA,NA,NA,NA,NA,NA,NA,NA,NA,NA,NA,NA,NA,NA,NA,NA,NA,NA,NA,NA,NA,NA,NA,NA,NA,NA,NA,NA,NA,NA,NA,NA,NA,NA,NA,NA,NA,NA,NA,NA,NA,NA,NA,NA,NA,NA,NA,NA,NA,NA,NA,NA
SUPAMT68034,3VP0C6EFSMV60WN59RZTXX9KA14M6H,6ABC660E-50F0-4B8B-AEB1-9359AEE2E686,2023-09-28_07h45.35.345,WP_VExplicitOC_HL,2022.2.5,Win32,16.75940202,NA,NA,NA,NA,NA,NA,NA,NA,NA,NA,NA,NA,NA,NA,NA,NA,NA,NA,NA,NA,NA,NA,NA,NA,NA,NA,NA,NA,NA,NA,NA,NA,NA,NA,NA,NA,NA,NA,NA,NA,NA,NA,NA,NA,NA,NA,NA,NA,NA,NA,NA,NA,NA,NA,NA,NA,NA,NA,NA
SUPAMT68034,3VP0C6EFSMV60WN59RZTXX9KA14M6H,6ABC660E-50F0-4B8B-AEB1-9359AEE2E686,2023-09-28_07h45.35.345,WP_VExplicitOC_HL,2022.2.5,Win32,16.75940202,NA,NA,NA,NA,NA,NA,NA,NA,NA,NA,NA,NA,NA,NA,NA,NA,NA,NA,NA,NA,NA,NA,NA,NA,NA,NA,NA,NA,NA,NA,NA,NA,NA,NA,NA,NA,NA,NA,NA,NA,NA,NA,NA,NA,NA,NA,NA,NA,NA,NA,NA,NA,NA,NA,NA,NA,NA,NA,NA
SUPAMT68034,3VP0C6EFSMV60WN59RZTXX9KA14M6H,6ABC660E-50F0-4B8B-AEB1-9359AEE2E686,2023-09-28_07h45.35.345,WP_VExplicitOC_HL,2022.2.5,Win32,16.75940202,NA,NA,NA,NA,NA,NA,NA,NA,NA,NA,NA,NA,NA,NA,NA,NA,NA,NA,NA,NA,NA,NA,NA,NA,NA,NA,NA,NA,NA,NA,NA,NA,NA,NA,NA,NA,NA,NA,NA,NA,NA,NA,NA,NA,NA,NA,NA,NA,NA,NA,NA,NA,NA,NA,NA,NA,NA,NA,NA
SUPAMT68034,3VP0C6EFSMV60WN59RZTXX9KA14M6H,6ABC660E-50F0-4B8B-AEB1-9359AEE2E686,2023-09-28_07h45.35.345,WP_VExplicitOC_HL,2022.2.5,Win32,16.75940202,NA,NA,NA,NA,NA,NA,NA,NA,NA,NA,NA,33.33333333,1.5854,0,0,0,0,1,rest (looking at a fixed cross),001.png,NA,NA,NA,NA,NA,NA,NA,NA,NA,NA,NA,NA,NA,NA,NA,NA,NA,NA,NA,NA,NA,NA,NA,NA,NA,NA,NA,NA,NA,NA,NA,NA,NA,NA,NA,NA,NA,NA,NA
SUPAMT68034,3VP0C6EFSMV60WN59RZTXX9KA14M6H,6ABC660E-50F0-4B8B-AEB1-9359AEE2E686,2023-09-28_07h45.35.345,WP_VExplicitOC_HL,2022.2.5,Win32,16.75940202,NA,NA,NA,NA,NA,NA,NA,NA,NA,NA,NA,46.35416667,0.6653,0,1,1,1,1,stand up,002.png,NA,NA,NA,NA,NA,NA,NA,NA,NA,NA,NA,NA,NA,NA,NA,NA,NA,NA,NA,NA,NA,NA,NA,NA,NA,NA,NA,NA,NA,NA,NA,NA,NA,NA,NA,NA,NA,NA,NA
SUPAMT68034,3VP0C6EFSMV60WN59RZTXX9KA14M6H,6ABC660E-50F0-4B8B-AEB1-9359AEE2E686,2023-09-28_07h45.35.345,WP_VExplicitOC_HL,2022.2.5,Win32,16.75940202,NA,NA,NA,NA,NA,NA,NA,NA,NA,NA,NA,54.6875,0.3907,0,2,2,2,1,stretch,003.png,NA,NA,NA,NA,NA,NA,NA,NA,NA,NA,NA,NA,NA,NA,NA,NA,NA,NA,NA,NA,NA,NA,NA,NA,NA,NA,NA,NA,NA,NA,NA,NA,NA,NA,NA,NA,NA,NA,NA
SUPAMT68034,3VP0C6EFSMV60WN59RZTXX9KA14M6H,6ABC660E-50F0-4B8B-AEB1-9359AEE2E686,2023-09-28_07h45.35.345,WP_VExplicitOC_HL,2022.2.5,Win32,16.75940202,NA,NA,NA,NA,NA,NA,NA,NA,NA,NA,NA,41.14583333,0.6418,0,3,3,3,1,make a drink,004.png,NA,NA,NA,NA,NA,NA,NA,NA,NA,NA,NA,NA,NA,NA,NA,NA,NA,NA,NA,NA,NA,NA,NA,NA,NA,NA,NA,NA,NA,NA,NA,NA,NA,NA,NA,NA,NA,NA,NA
SUPAMT68034,3VP0C6EFSMV60WN59RZTXX9KA14M6H,6ABC660E-50F0-4B8B-AEB1-9359AEE2E686,2023-09-28_07h45.35.345,WP_VExplicitOC_HL,2022.2.5,Win32,16.75940202,NA,NA,NA,NA,NA,NA,NA,NA,NA,NA,NA,28.64583333,0.4343,0,4,4,4,1,scroll social media,005.png,NA,NA,NA,NA,NA,NA,NA,NA,NA,NA,NA,NA,NA,NA,NA,NA,NA,NA,NA,NA,NA,NA,NA,NA,NA,NA,NA,NA,NA,NA,NA,NA,NA,NA,NA,NA,NA,NA,NA
SUPAMT68034,3VP0C6EFSMV60WN59RZTXX9KA14M6H,6ABC660E-50F0-4B8B-AEB1-9359AEE2E686,2023-09-28_07h45.35.345,WP_VExplicitOC_HL,2022.2.5,Win32,16.75940202,NA,NA,NA,NA,NA,NA,NA,NA,NA,NA,NA,42.70833333,0.5511,0,5,5,5,1,listen to music,006.png,NA,NA,NA,NA,NA,NA,NA,NA,NA,NA,NA,NA,NA,NA,NA,NA,NA,NA,NA,NA,NA,NA,NA,NA,NA,NA,NA,NA,NA,NA,NA,NA,NA,NA,NA,NA,NA,NA,NA
SUPAMT68034,3VP0C6EFSMV60WN59RZTXX9KA14M6H,6ABC660E-50F0-4B8B-AEB1-9359AEE2E686,2023-09-28_07h45.35.345,WP_VExplicitOC_HL,2022.2.5,Win32,16.75940202,NA,NA,NA,NA,NA,NA,NA,NA,NA,NA,NA,58.59375,0.4633,0,6,6,6,1,daydream,007.png,NA,NA,NA,NA,NA,NA,NA,NA,NA,NA,NA,NA,NA,NA,NA,NA,NA,NA,NA,NA,NA,NA,NA,NA,NA,NA,NA,NA,NA,NA,NA,NA,NA,NA,NA,NA,NA,NA,NA
SUPAMT68034,3VP0C6EFSMV60WN59RZTXX9KA14M6H,6ABC660E-50F0-4B8B-AEB1-9359AEE2E686,2023-09-28_07h45.35.345,WP_VExplicitOC_HL,2022.2.5,Win32,16.75940202,NA,NA,NA,NA,NA,NA,NA,NA,NA,NA,NA,42.44791667,0.6049,0,7,7,7,1,watch a short animation,008.png,NA,NA,NA,NA,NA,NA,NA,NA,NA,NA,NA,NA,NA,NA,NA,NA,NA,NA,NA,NA,NA,NA,NA,NA,NA,NA,NA,NA,NA,NA,NA,NA,NA,NA,NA,NA,NA,NA,NA
SUPAMT68034,3VP0C6EFSMV60WN59RZTXX9KA14M6H,6ABC660E-50F0-4B8B-AEB1-9359AEE2E686,2023-09-28_07h45.35.345,WP_VExplicitOC_HL,2022.2.5,Win32,16.75940202,NA,NA,NA,NA,NA,NA,NA,NA,NA,NA,NA,30.46875,0.5334,0,8,8,8,1,read a novel,009.png,NA,NA,NA,NA,NA,NA,NA,NA,NA,NA,NA,NA,NA,NA,NA,NA,NA,NA,NA,NA,NA,NA,NA,NA,NA,NA,NA,NA,NA,NA,NA,NA,NA,NA,NA,NA,NA,NA,NA
SUPAMT68034,3VP0C6EFSMV60WN59RZTXX9KA14M6H,6ABC660E-50F0-4B8B-AEB1-9359AEE2E686,2023-09-28_07h45.35.345,WP_VExplicitOC_HL,2022.2.5,Win32,16.75940202,NA,NA,NA,NA,NA,NA,NA,NA,NA,NA,NA,17.70833333,0.4581,0,9,9,9,1,read the news,010.png,NA,NA,NA,NA,NA,NA,NA,NA,NA,NA,NA,NA,NA,NA,NA,NA,NA,NA,NA,NA,NA,NA,NA,NA,NA,NA,NA,NA,NA,NA,NA,NA,NA,NA,NA,NA,NA,NA,NA
SUPAMT68034,3VP0C6EFSMV60WN59RZTXX9KA14M6H,6ABC660E-50F0-4B8B-AEB1-9359AEE2E686,2023-09-28_07h45.35.345,WP_VExplicitOC_HL,2022.2.5,Win32,16.75940202,NA,NA,NA,NA,NA,NA,NA,NA,NA,NA,NA,NA,NA,NA,NA,NA,NA,NA,NA,NA,NA,NA,NA,NA,NA,NA,NA,NA,NA,NA,NA,NA,NA,NA,NA,NA,NA,NA,NA,NA,NA,NA,NA,NA,NA,NA,NA,NA,NA,NA,NA,NA,NA,NA,NA,NA,NA,NA,NA
SUPAMT68034,3VP0C6EFSMV60WN59RZTXX9KA14M6H,6ABC660E-50F0-4B8B-AEB1-9359AEE2E686,2023-09-28_07h45.35.345,WP_VExplicitOC_HL,2022.2.5,Win32,16.75940202,NA,NA,NA,NA,NA,NA,NA,NA,NA,NA,NA,NA,NA,NA,NA,NA,NA,NA,NA,NA,daydream,NA,NA,NA,NA,NA,NA,NA,NA,NA,NA,NA,NA,NA,NA,NA,NA,NA,NA,NA,NA,NA,NA,NA,NA,NA,NA,NA,NA,NA,NA,NA,NA,NA,NA,NA,NA,NA,NA
SUPAMT68034,3VP0C6EFSMV60WN59RZTXX9KA14M6H,6ABC660E-50F0-4B8B-AEB1-9359AEE2E686,2023-09-28_07h45.35.345,WP_VExplicitOC_HL,2022.2.5,Win32,16.75940202,25.26041667,3.343,2.038,NA,NA,NA,NA,NA,happy,"unhappy, happy","less happy, more happy",NA,NA,NA,NA,NA,NA,NA,NA,NA,NA,0,0,0,0,1,NA,NA,NA,NA,NA,NA,NA,NA,NA,NA,NA,NA,NA,NA,NA,NA,NA,NA,NA,NA,NA,NA,NA,NA,NA,NA,NA,NA,NA,NA,NA,NA,NA
SUPAMT68034,3VP0C6EFSMV60WN59RZTXX9KA14M6H,6ABC660E-50F0-4B8B-AEB1-9359AEE2E686,2023-09-28_07h45.35.345,WP_VExplicitOC_HL,2022.2.5,Win32,16.75940202,53.38541667,3.0978,2.0938,NA,NA,NA,NA,NA,frustrated,"frustrated, not frustrated","more frustrated, less frustrated",NA,NA,NA,NA,NA,NA,NA,NA,NA,NA,0,1,1,1,1,NA,NA,NA,NA,NA,NA,NA,NA,NA,NA,NA,NA,NA,NA,NA,NA,NA,NA,NA,NA,NA,NA,NA,NA,NA,NA,NA,NA,NA,NA,NA,NA,NA
SUPAMT68034,3VP0C6EFSMV60WN59RZTXX9KA14M6H,6ABC660E-50F0-4B8B-AEB1-9359AEE2E686,2023-09-28_07h45.35.345,WP_VExplicitOC_HL,2022.2.5,Win32,16.75940202,18.48958333,2.2112,2.0555,NA,NA,NA,NA,NA,bored,"bored, not bored","more bored, less bored",NA,NA,NA,NA,NA,NA,NA,NA,NA,NA,0,2,2,2,1,NA,NA,NA,NA,NA,NA,NA,NA,NA,NA,NA,NA,NA,NA,NA,NA,NA,NA,NA,NA,NA,NA,NA,NA,NA,NA,NA,NA,NA,NA,NA,NA,NA
SUPAMT68034,3VP0C6EFSMV60WN59RZTXX9KA14M6H,6ABC660E-50F0-4B8B-AEB1-9359AEE2E686,2023-09-28_07h45.35.345,WP_VExplicitOC_HL,2022.2.5,Win32,16.75940202,NA,NA,NA,NA,NA,NA,NA,NA,NA,NA,NA,NA,NA,NA,NA,NA,NA,NA,NA,NA,NA,NA,NA,NA,NA,NA,NA,NA,NA,NA,NA,NA,NA,NA,NA,NA,NA,NA,NA,NA,NA,NA,NA,NA,NA,NA,NA,NA,NA,NA,NA,NA,NA,NA,NA,NA,NA,NA,NA
SUPAMT68034,3VP0C6EFSMV60WN59RZTXX9KA14M6H,6ABC660E-50F0-4B8B-AEB1-9359AEE2E686,2023-09-28_07h45.35.345,WP_VExplicitOC_HL,2022.2.5,Win32,16.75940202,NA,NA,NA,NA,NA,NA,NA,NA,NA,NA,NA,NA,NA,NA,NA,NA,NA,NA,NA,NA,NA,NA,NA,NA,NA,NA,NA,NA,NA,NA,NA,NA,NA,NA,NA,NA,NA,NA,NA,NA,NA,NA,NA,NA,NA,NA,NA,NA,NA,NA,NA,NA,NA,NA,NA,NA,NA,NA,NA
SUPAMT68034,3VP0C6EFSMV60WN59RZTXX9KA14M6H,6ABC660E-50F0-4B8B-AEB1-9359AEE2E686,2023-09-28_07h45.35.345,WP_VExplicitOC_HL,2022.2.5,Win32,16.75940202,61.71875,4.8757,2.0195,NA,NA,NA,NA,NA,bored,"bored, not bored","more bored, less bored",NA,NA,NA,NA,NA,NA,NA,NA,NA,NA,NA,NA,NA,NA,NA,0,0,0,2,1,NA,NA,NA,NA,NA,NA,NA,NA,NA,NA,NA,NA,NA,NA,NA,NA,NA,NA,NA,NA,NA,NA,NA,NA,NA,NA,NA,NA
SUPAMT68034,3VP0C6EFSMV60WN59RZTXX9KA14M6H,6ABC660E-50F0-4B8B-AEB1-9359AEE2E686,2023-09-28_07h45.35.345,WP_VExplicitOC_HL,2022.2.5,Win32,16.75940202,NA,NA,2.0542,NA,NA,NA,NA,NA,happy,"unhappy, happy","less happy, more happy",NA,NA,NA,NA,NA,NA,NA,NA,NA,NA,NA,NA,NA,NA,NA,0,1,1,0,1,NA,NA,NA,NA,NA,NA,NA,NA,NA,NA,NA,NA,NA,NA,NA,NA,NA,NA,NA,NA,NA,NA,NA,NA,NA,NA,NA,NA
SUPAMT68034,3VP0C6EFSMV60WN59RZTXX9KA14M6H,6ABC660E-50F0-4B8B-AEB1-9359AEE2E686,2023-09-28_07h45.35.345,WP_VExplicitOC_HL,2022.2.5,Win32,16.75940202,22.91666667,5.7443,2.0276,NA,NA,NA,NA,NA,frustrated,"frustrated, not frustrated","more frustrated, less frustrated",NA,NA,NA,NA,NA,NA,NA,NA,NA,NA,NA,NA,NA,NA,NA,0,2,2,1,1,NA,NA,NA,NA,NA,NA,NA,NA,NA,NA,NA,NA,NA,NA,NA,NA,NA,NA,NA,NA,NA,NA,NA,NA,NA,NA,NA,NA
SUPAMT68034,3VP0C6EFSMV60WN59RZTXX9KA14M6H,6ABC660E-50F0-4B8B-AEB1-9359AEE2E686,2023-09-28_07h45.35.345,WP_VExplicitOC_HL,2022.2.5,Win32,16.75940202,NA,NA,NA,NA,NA,NA,NA,NA,NA,NA,NA,NA,NA,NA,NA,NA,NA,NA,NA,NA,NA,NA,NA,NA,NA,NA,NA,NA,NA,NA,NA,0,0,0,0,1,NA,NA,NA,NA,NA,NA,NA,NA,NA,NA,NA,NA,NA,NA,NA,NA,NA,NA,NA,NA,NA,NA,NA
SUPAMT68034,3VP0C6EFSMV60WN59RZTXX9KA14M6H,6ABC660E-50F0-4B8B-AEB1-9359AEE2E686,2023-09-28_07h45.35.345,WP_VExplicitOC_HL,2022.2.5,Win32,16.75940202,56.25,6.7757,2.0325,NA,NA,NA,NA,NA,frustrated,"frustrated, not frustrated","more frustrated, less frustrated",NA,NA,NA,NA,NA,NA,NA,NA,NA,NA,NA,NA,NA,NA,NA,0,0,0,1,1,NA,NA,NA,NA,NA,NA,NA,NA,NA,NA,NA,NA,NA,NA,NA,NA,NA,NA,NA,NA,NA,NA,NA,NA,NA,NA,NA,NA
SUPAMT68034,3VP0C6EFSMV60WN59RZTXX9KA14M6H,6ABC660E-50F0-4B8B-AEB1-9359AEE2E686,2023-09-28_07h45.35.345,WP_VExplicitOC_HL,2022.2.5,Win32,16.75940202,59.375,3.8848,2.0556,NA,NA,NA,NA,NA,bored,"bored, not bored","more bored, less bored",NA,NA,NA,NA,NA,NA,NA,NA,NA,NA,NA,NA,NA,NA,NA,0,1,1,2,1,NA,NA,NA,NA,NA,NA,NA,NA,NA,NA,NA,NA,NA,NA,NA,NA,NA,NA,NA,NA,NA,NA,NA,NA,NA,NA,NA,NA
SUPAMT68034,3VP0C6EFSMV60WN59RZTXX9KA14M6H,6ABC660E-50F0-4B8B-AEB1-9359AEE2E686,2023-09-28_07h45.35.345,WP_VExplicitOC_HL,2022.2.5,Win32,16.75940202,59.375,7.1567,2.0787,NA,NA,NA,NA,NA,happy,"unhappy, happy","less happy, more happy",NA,NA,NA,NA,NA,NA,NA,NA,NA,NA,NA,NA,NA,NA,NA,0,2,2,0,1,NA,NA,NA,NA,NA,NA,NA,NA,NA,NA,NA,NA,NA,NA,NA,NA,NA,NA,NA,NA,NA,NA,NA,NA,NA,NA,NA,NA
SUPAMT68034,3VP0C6EFSMV60WN59RZTXX9KA14M6H,6ABC660E-50F0-4B8B-AEB1-9359AEE2E686,2023-09-28_07h45.35.345,WP_VExplicitOC_HL,2022.2.5,Win32,16.75940202,NA,NA,NA,NA,NA,NA,NA,NA,NA,NA,NA,NA,NA,NA,NA,NA,NA,NA,NA,NA,NA,NA,NA,NA,NA,NA,NA,NA,NA,NA,NA,1,0,1,0,1,NA,NA,NA,NA,NA,NA,NA,NA,NA,NA,NA,NA,NA,NA,NA,NA,NA,NA,NA,NA,NA,NA,NA
SUPAMT68034,3VP0C6EFSMV60WN59RZTXX9KA14M6H,6ABC660E-50F0-4B8B-AEB1-9359AEE2E686,2023-09-28_07h45.35.345,WP_VExplicitOC_HL,2022.2.5,Win32,16.75940202,37.5,3.4227,2.0878,NA,NA,NA,NA,NA,bored,"bored, not bored","more bored, less bored",NA,NA,NA,NA,NA,NA,NA,NA,NA,NA,NA,NA,NA,NA,NA,0,0,0,2,1,NA,NA,NA,NA,NA,NA,NA,NA,NA,NA,NA,NA,NA,NA,NA,NA,NA,NA,NA,NA,NA,NA,NA,NA,NA,NA,NA,NA
SUPAMT68034,3VP0C6EFSMV60WN59RZTXX9KA14M6H,6ABC660E-50F0-4B8B-AEB1-9359AEE2E686,2023-09-28_07h45.35.345,WP_VExplicitOC_HL,2022.2.5,Win32,16.75940202,65.625,2.8262,2.0923,NA,NA,NA,NA,NA,frustrated,"frustrated, not frustrated","more frustrated, less frustrated",NA,NA,NA,NA,NA,NA,NA,NA,NA,NA,NA,NA,NA,NA,NA,0,1,1,1,1,NA,NA,NA,NA,NA,NA,NA,NA,NA,NA,NA,NA,NA,NA,NA,NA,NA,NA,NA,NA,NA,NA,NA,NA,NA,NA,NA,NA
SUPAMT68034,3VP0C6EFSMV60WN59RZTXX9KA14M6H,6ABC660E-50F0-4B8B-AEB1-9359AEE2E686,2023-09-28_07h45.35.345,WP_VExplicitOC_HL,2022.2.5,Win32,16.75940202,72.65625,2.801,2.0197,NA,NA,NA,NA,NA,happy,"unhappy, happy","less happy, more happy",NA,NA,NA,NA,NA,NA,NA,NA,NA,NA,NA,NA,NA,NA,NA,0,2,2,0,1,NA,NA,NA,NA,NA,NA,NA,NA,NA,NA,NA,NA,NA,NA,NA,NA,NA,NA,NA,NA,NA,NA,NA,NA,NA,NA,NA,NA
SUPAMT68034,3VP0C6EFSMV60WN59RZTXX9KA14M6H,6ABC660E-50F0-4B8B-AEB1-9359AEE2E686,2023-09-28_07h45.35.345,WP_VExplicitOC_HL,2022.2.5,Win32,16.75940202,NA,NA,NA,NA,NA,NA,NA,NA,NA,NA,NA,NA,NA,NA,NA,NA,NA,NA,NA,NA,NA,NA,NA,NA,NA,NA,NA,NA,NA,NA,NA,2,0,2,0,1,NA,NA,NA,NA,NA,NA,NA,NA,NA,NA,NA,NA,NA,NA,NA,NA,NA,NA,NA,NA,NA,NA,NA
SUPAMT68034,3VP0C6EFSMV60WN59RZTXX9KA14M6H,6ABC660E-50F0-4B8B-AEB1-9359AEE2E686,2023-09-28_07h45.35.345,WP_VExplicitOC_HL,2022.2.5,Win32,16.75940202,61.19791667,2.4892,2.0369,NA,NA,NA,NA,NA,bored,"bored, not bored","more bored, less bored",NA,NA,NA,NA,NA,NA,NA,NA,NA,NA,NA,NA,NA,NA,NA,0,0,0,2,1,NA,NA,NA,NA,NA,NA,NA,NA,NA,NA,NA,NA,NA,NA,NA,NA,NA,NA,NA,NA,NA,NA,NA,NA,NA,NA,NA,NA
SUPAMT68034,3VP0C6EFSMV60WN59RZTXX9KA14M6H,6ABC660E-50F0-4B8B-AEB1-9359AEE2E686,2023-09-28_07h45.35.345,WP_VExplicitOC_HL,2022.2.5,Win32,16.75940202,37.23958333,2.5228,2.0533,NA,NA,NA,NA,NA,happy,"unhappy, happy","less happy, more happy",NA,NA,NA,NA,NA,NA,NA,NA,NA,NA,NA,NA,NA,NA,NA,0,1,1,0,1,NA,NA,NA,NA,NA,NA,NA,NA,NA,NA,NA,NA,NA,NA,NA,NA,NA,NA,NA,NA,NA,NA,NA,NA,NA,NA,NA,NA
SUPAMT68034,3VP0C6EFSMV60WN59RZTXX9KA14M6H,6ABC660E-50F0-4B8B-AEB1-9359AEE2E686,2023-09-28_07h45.35.345,WP_VExplicitOC_HL,2022.2.5,Win32,16.75940202,60.9375,3.086,2.0006,NA,NA,NA,NA,NA,frustrated,"frustrated, not frustrated","more frustrated, less frustrated",NA,NA,NA,NA,NA,NA,NA,NA,NA,NA,NA,NA,NA,NA,NA,0,2,2,1,1,NA,NA,NA,NA,NA,NA,NA,NA,NA,NA,NA,NA,NA,NA,NA,NA,NA,NA,NA,NA,NA,NA,NA,NA,NA,NA,NA,NA
SUPAMT68034,3VP0C6EFSMV60WN59RZTXX9KA14M6H,6ABC660E-50F0-4B8B-AEB1-9359AEE2E686,2023-09-28_07h45.35.345,WP_VExplicitOC_HL,2022.2.5,Win32,16.75940202,NA,NA,NA,NA,NA,NA,NA,NA,NA,NA,NA,NA,NA,NA,NA,NA,NA,NA,NA,NA,NA,NA,NA,NA,NA,NA,NA,NA,NA,NA,NA,3,0,3,0,1,NA,NA,NA,NA,NA,NA,NA,NA,NA,NA,NA,NA,NA,NA,NA,NA,NA,NA,NA,NA,NA,NA,NA
SUPAMT68034,3VP0C6EFSMV60WN59RZTXX9KA14M6H,6ABC660E-50F0-4B8B-AEB1-9359AEE2E686,2023-09-28_07h45.35.345,WP_VExplicitOC_HL,2022.2.5,Win32,16.75940202,NA,NA,2.0505,NA,NA,NA,NA,NA,frustrated,"frustrated, not frustrated","more frustrated, less frustrated",NA,NA,NA,NA,NA,NA,NA,NA,NA,NA,NA,NA,NA,NA,NA,0,0,0,1,1,NA,NA,NA,NA,NA,NA,NA,NA,NA,NA,NA,NA,NA,NA,NA,NA,NA,NA,NA,NA,NA,NA,NA,NA,NA,NA,NA,NA
SUPAMT68034,3VP0C6EFSMV60WN59RZTXX9KA14M6H,6ABC660E-50F0-4B8B-AEB1-9359AEE2E686,2023-09-28_07h45.35.345,WP_VExplicitOC_HL,2022.2.5,Win32,16.75940202,NA,NA,2.0492,NA,NA,NA,NA,NA,happy,"unhappy, happy","less happy, more happy",NA,NA,NA,NA,NA,NA,NA,NA,NA,NA,NA,NA,NA,NA,NA,0,1,1,0,1,NA,NA,NA,NA,NA,NA,NA,NA,NA,NA,NA,NA,NA,NA,NA,NA,NA,NA,NA,NA,NA,NA,NA,NA,NA,NA,NA,NA
SUPAMT68034,3VP0C6EFSMV60WN59RZTXX9KA14M6H,6ABC660E-50F0-4B8B-AEB1-9359AEE2E686,2023-09-28_07h45.35.345,WP_VExplicitOC_HL,2022.2.5,Win32,16.75940202,NA,NA,2.0521,NA,NA,NA,NA,NA,bored,"bored, not bored","more bored, less bored",NA,NA,NA,NA,NA,NA,NA,NA,NA,NA,NA,NA,NA,NA,NA,0,2,2,2,1,NA,NA,NA,NA,NA,NA,NA,NA,NA,NA,NA,NA,NA,NA,NA,NA,NA,NA,NA,NA,NA,NA,NA,NA,NA,NA,NA,NA
SUPAMT68034,3VP0C6EFSMV60WN59RZTXX9KA14M6H,6ABC660E-50F0-4B8B-AEB1-9359AEE2E686,2023-09-28_07h45.35.345,WP_VExplicitOC_HL,2022.2.5,Win32,16.75940202,NA,NA,NA,NA,NA,NA,NA,NA,NA,NA,NA,NA,NA,NA,NA,NA,NA,NA,NA,NA,NA,NA,NA,NA,NA,NA,NA,NA,NA,NA,NA,4,0,4,0,1,NA,NA,NA,NA,NA,NA,NA,NA,NA,NA,NA,NA,NA,NA,NA,NA,NA,NA,NA,NA,NA,NA,NA
SUPAMT68034,3VP0C6EFSMV60WN59RZTXX9KA14M6H,6ABC660E-50F0-4B8B-AEB1-9359AEE2E686,2023-09-28_07h45.35.345,WP_VExplicitOC_HL,2022.2.5,Win32,16.75940202,NA,NA,2.0369,NA,NA,NA,NA,NA,frustrated,"frustrated, not frustrated","more frustrated, less frustrated",NA,NA,NA,NA,NA,NA,NA,NA,NA,NA,NA,NA,NA,NA,NA,0,0,0,1,1,NA,NA,NA,NA,NA,NA,NA,NA,NA,NA,NA,NA,NA,NA,NA,NA,NA,NA,NA,NA,NA,NA,NA,NA,NA,NA,NA,NA
SUPAMT68034,3VP0C6EFSMV60WN59RZTXX9KA14M6H,6ABC660E-50F0-4B8B-AEB1-9359AEE2E686,2023-09-28_07h45.35.345,WP_VExplicitOC_HL,2022.2.5,Win32,16.75940202,31.25,4.6641,2.0395,NA,NA,NA,NA,NA,happy,"unhappy, happy","less happy, more happy",NA,NA,NA,NA,NA,NA,NA,NA,NA,NA,NA,NA,NA,NA,NA,0,1,1,0,1,NA,NA,NA,NA,NA,NA,NA,NA,NA,NA,NA,NA,NA,NA,NA,NA,NA,NA,NA,NA,NA,NA,NA,NA,NA,NA,NA,NA
SUPAMT68034,3VP0C6EFSMV60WN59RZTXX9KA14M6H,6ABC660E-50F0-4B8B-AEB1-9359AEE2E686,2023-09-28_07h45.35.345,WP_VExplicitOC_HL,2022.2.5,Win32,16.75940202,53.125,2.6299,2.0417,NA,NA,NA,NA,NA,bored,"bored, not bored","more bored, less bored",NA,NA,NA,NA,NA,NA,NA,NA,NA,NA,NA,NA,NA,NA,NA,0,2,2,2,1,NA,NA,NA,NA,NA,NA,NA,NA,NA,NA,NA,NA,NA,NA,NA,NA,NA,NA,NA,NA,NA,NA,NA,NA,NA,NA,NA,NA
SUPAMT68034,3VP0C6EFSMV60WN59RZTXX9KA14M6H,6ABC660E-50F0-4B8B-AEB1-9359AEE2E686,2023-09-28_07h45.35.345,WP_VExplicitOC_HL,2022.2.5,Win32,16.75940202,NA,NA,NA,NA,NA,NA,NA,NA,NA,NA,NA,NA,NA,NA,NA,NA,NA,NA,NA,NA,NA,NA,NA,NA,NA,NA,NA,NA,NA,NA,NA,5,0,5,0,1,NA,NA,NA,NA,NA,NA,NA,NA,NA,NA,NA,NA,NA,NA,NA,NA,NA,NA,NA,NA,NA,NA,NA
SUPAMT68034,3VP0C6EFSMV60WN59RZTXX9KA14M6H,6ABC660E-50F0-4B8B-AEB1-9359AEE2E686,2023-09-28_07h45.35.345,WP_VExplicitOC_HL,2022.2.5,Win32,16.75940202,70.05208333,4.1139,2.0722,NA,NA,NA,NA,NA,frustrated,"frustrated, not frustrated","more frustrated, less frustrated",NA,NA,NA,NA,NA,NA,NA,NA,NA,NA,NA,NA,NA,NA,NA,0,0,0,1,1,NA,NA,NA,NA,NA,NA,NA,NA,NA,NA,NA,NA,NA,NA,NA,NA,NA,NA,NA,NA,NA,NA,NA,NA,NA,NA,NA,NA
SUPAMT68034,3VP0C6EFSMV60WN59RZTXX9KA14M6H,6ABC660E-50F0-4B8B-AEB1-9359AEE2E686,2023-09-28_07h45.35.345,WP_VExplicitOC_HL,2022.2.5,Win32,16.75940202,47.91666667,2.5574,2.0445,NA,NA,NA,NA,NA,happy,"unhappy, happy","less happy, more happy",NA,NA,NA,NA,NA,NA,NA,NA,NA,NA,NA,NA,NA,NA,NA,0,1,1,0,1,NA,NA,NA,NA,NA,NA,NA,NA,NA,NA,NA,NA,NA,NA,NA,NA,NA,NA,NA,NA,NA,NA,NA,NA,NA,NA,NA,NA
SUPAMT68034,3VP0C6EFSMV60WN59RZTXX9KA14M6H,6ABC660E-50F0-4B8B-AEB1-9359AEE2E686,2023-09-28_07h45.35.345,WP_VExplicitOC_HL,2022.2.5,Win32,16.75940202,22.91666667,5.4018,2.0734,NA,NA,NA,NA,NA,bored,"bored, not bored","more bored, less bored",NA,NA,NA,NA,NA,NA,NA,NA,NA,NA,NA,NA,NA,NA,NA,0,2,2,2,1,NA,NA,NA,NA,NA,NA,NA,NA,NA,NA,NA,NA,NA,NA,NA,NA,NA,NA,NA,NA,NA,NA,NA,NA,NA,NA,NA,NA
SUPAMT68034,3VP0C6EFSMV60WN59RZTXX9KA14M6H,6ABC660E-50F0-4B8B-AEB1-9359AEE2E686,2023-09-28_07h45.35.345,WP_VExplicitOC_HL,2022.2.5,Win32,16.75940202,NA,NA,NA,NA,NA,NA,NA,NA,NA,NA,NA,NA,NA,NA,NA,NA,NA,NA,NA,NA,NA,NA,NA,NA,NA,NA,NA,NA,NA,NA,NA,6,0,6,0,1,NA,NA,NA,NA,NA,NA,NA,NA,NA,NA,NA,NA,NA,NA,NA,NA,NA,NA,NA,NA,NA,NA,NA
SUPAMT68034,3VP0C6EFSMV60WN59RZTXX9KA14M6H,6ABC660E-50F0-4B8B-AEB1-9359AEE2E686,2023-09-28_07h45.35.345,WP_VExplicitOC_HL,2022.2.5,Win32,16.75940202,60.67708333,4.3167,2.0943,NA,NA,NA,NA,NA,happy,"unhappy, happy","less happy, more happy",NA,NA,NA,NA,NA,NA,NA,NA,NA,NA,NA,NA,NA,NA,NA,0,0,0,0,1,NA,NA,NA,NA,NA,NA,NA,NA,NA,NA,NA,NA,NA,NA,NA,NA,NA,NA,NA,NA,NA,NA,NA,NA,NA,NA,NA,NA
SUPAMT68034,3VP0C6EFSMV60WN59RZTXX9KA14M6H,6ABC660E-50F0-4B8B-AEB1-9359AEE2E686,2023-09-28_07h45.35.345,WP_VExplicitOC_HL,2022.2.5,Win32,16.75940202,79.16666667,3.6379,2.0883,NA,NA,NA,NA,NA,bored,"bored, not bored","more bored, less bored",NA,NA,NA,NA,NA,NA,NA,NA,NA,NA,NA,NA,NA,NA,NA,0,1,1,2,1,NA,NA,NA,NA,NA,NA,NA,NA,NA,NA,NA,NA,NA,NA,NA,NA,NA,NA,NA,NA,NA,NA,NA,NA,NA,NA,NA,NA
SUPAMT68034,3VP0C6EFSMV60WN59RZTXX9KA14M6H,6ABC660E-50F0-4B8B-AEB1-9359AEE2E686,2023-09-28_07h45.35.345,WP_VExplicitOC_HL,2022.2.5,Win32,16.75940202,63.54166667,3.5907,2.1651,NA,NA,NA,NA,NA,frustrated,"frustrated, not frustrated","more frustrated, less frustrated",NA,NA,NA,NA,NA,NA,NA,NA,NA,NA,NA,NA,NA,NA,NA,0,2,2,1,1,NA,NA,NA,NA,NA,NA,NA,NA,NA,NA,NA,NA,NA,NA,NA,NA,NA,NA,NA,NA,NA,NA,NA,NA,NA,NA,NA,NA
SUPAMT68034,3VP0C6EFSMV60WN59RZTXX9KA14M6H,6ABC660E-50F0-4B8B-AEB1-9359AEE2E686,2023-09-28_07h45.35.345,WP_VExplicitOC_HL,2022.2.5,Win32,16.75940202,NA,NA,NA,NA,NA,NA,NA,NA,NA,NA,NA,NA,NA,NA,NA,NA,NA,NA,NA,NA,NA,NA,NA,NA,NA,NA,NA,NA,NA,NA,NA,7,0,7,0,1,NA,NA,NA,NA,NA,NA,NA,NA,NA,NA,NA,NA,NA,NA,NA,NA,NA,NA,NA,NA,NA,NA,NA
SUPAMT68034,3VP0C6EFSMV60WN59RZTXX9KA14M6H,6ABC660E-50F0-4B8B-AEB1-9359AEE2E686,2023-09-28_07h45.35.345,WP_VExplicitOC_HL,2022.2.5,Win32,16.75940202,61.19791667,5.316,2.0586,NA,NA,NA,NA,NA,bored,"bored, not bored","more bored, less bored",NA,NA,NA,NA,NA,NA,NA,NA,NA,NA,NA,NA,NA,NA,NA,0,0,0,2,1,NA,NA,NA,NA,NA,NA,NA,NA,NA,NA,NA,NA,NA,NA,NA,NA,NA,NA,NA,NA,NA,NA,NA,NA,NA,NA,NA,NA
SUPAMT68034,3VP0C6EFSMV60WN59RZTXX9KA14M6H,6ABC660E-50F0-4B8B-AEB1-9359AEE2E686,2023-09-28_07h45.35.345,WP_VExplicitOC_HL,2022.2.5,Win32,16.75940202,100,3.4033,2.0203,NA,NA,NA,NA,NA,happy,"unhappy, happy","less happy, more happy",NA,NA,NA,NA,NA,NA,NA,NA,NA,NA,NA,NA,NA,NA,NA,0,1,1,0,1,NA,NA,NA,NA,NA,NA,NA,NA,NA,NA,NA,NA,NA,NA,NA,NA,NA,NA,NA,NA,NA,NA,NA,NA,NA,NA,NA,NA
SUPAMT68034,3VP0C6EFSMV60WN59RZTXX9KA14M6H,6ABC660E-50F0-4B8B-AEB1-9359AEE2E686,2023-09-28_07h45.35.345,WP_VExplicitOC_HL,2022.2.5,Win32,16.75940202,54.16666667,4.1629,2.2691,NA,NA,NA,NA,NA,frustrated,"frustrated, not frustrated","more frustrated, less frustrated",NA,NA,NA,NA,NA,NA,NA,NA,NA,NA,NA,NA,NA,NA,NA,0,2,2,1,1,NA,NA,NA,NA,NA,NA,NA,NA,NA,NA,NA,NA,NA,NA,NA,NA,NA,NA,NA,NA,NA,NA,NA,NA,NA,NA,NA,NA
SUPAMT68034,3VP0C6EFSMV60WN59RZTXX9KA14M6H,6ABC660E-50F0-4B8B-AEB1-9359AEE2E686,2023-09-28_07h45.35.345,WP_VExplicitOC_HL,2022.2.5,Win32,16.75940202,NA,NA,NA,NA,NA,NA,NA,NA,NA,NA,NA,NA,NA,NA,NA,NA,NA,NA,NA,NA,NA,NA,NA,NA,NA,NA,NA,NA,NA,NA,NA,8,0,8,0,1,NA,NA,NA,NA,NA,NA,NA,NA,NA,NA,NA,NA,NA,NA,NA,NA,NA,NA,NA,NA,NA,NA,NA
SUPAMT68034,3VP0C6EFSMV60WN59RZTXX9KA14M6H,6ABC660E-50F0-4B8B-AEB1-9359AEE2E686,2023-09-28_07h45.35.345,WP_VExplicitOC_HL,2022.2.5,Win32,16.75940202,2.864583333,2.2139,2.0548,NA,NA,NA,NA,NA,bored,"bored, not bored","more bored, less bored",NA,NA,NA,NA,NA,NA,NA,NA,NA,NA,NA,NA,NA,NA,NA,0,0,0,2,1,NA,NA,NA,NA,NA,NA,NA,NA,NA,NA,NA,NA,NA,NA,NA,NA,NA,NA,NA,NA,NA,NA,NA,NA,NA,NA,NA,NA
SUPAMT68034,3VP0C6EFSMV60WN59RZTXX9KA14M6H,6ABC660E-50F0-4B8B-AEB1-9359AEE2E686,2023-09-28_07h45.35.345,WP_VExplicitOC_HL,2022.2.5,Win32,16.75940202,71.09375,3.0576,2.0254,NA,NA,NA,NA,NA,happy,"unhappy, happy","less happy, more happy",NA,NA,NA,NA,NA,NA,NA,NA,NA,NA,NA,NA,NA,NA,NA,0,1,1,0,1,NA,NA,NA,NA,NA,NA,NA,NA,NA,NA,NA,NA,NA,NA,NA,NA,NA,NA,NA,NA,NA,NA,NA,NA,NA,NA,NA,NA
SUPAMT68034,3VP0C6EFSMV60WN59RZTXX9KA14M6H,6ABC660E-50F0-4B8B-AEB1-9359AEE2E686,2023-09-28_07h45.35.345,WP_VExplicitOC_HL,2022.2.5,Win32,16.75940202,82.03125,3.1162,2.0872,NA,NA,NA,NA,NA,frustrated,"frustrated, not frustrated","more frustrated, less frustrated",NA,NA,NA,NA,NA,NA,NA,NA,NA,NA,NA,NA,NA,NA,NA,0,2,2,1,1,NA,NA,NA,NA,NA,NA,NA,NA,NA,NA,NA,NA,NA,NA,NA,NA,NA,NA,NA,NA,NA,NA,NA,NA,NA,NA,NA,NA
SUPAMT68034,3VP0C6EFSMV60WN59RZTXX9KA14M6H,6ABC660E-50F0-4B8B-AEB1-9359AEE2E686,2023-09-28_07h45.35.345,WP_VExplicitOC_HL,2022.2.5,Win32,16.75940202,NA,NA,NA,NA,NA,NA,NA,NA,NA,NA,NA,NA,NA,NA,NA,NA,NA,NA,NA,NA,NA,NA,NA,NA,NA,NA,NA,NA,NA,NA,NA,9,0,9,0,1,NA,NA,NA,NA,NA,NA,NA,NA,NA,NA,NA,NA,NA,NA,NA,NA,NA,NA,NA,NA,NA,NA,NA
SUPAMT68034,3VP0C6EFSMV60WN59RZTXX9KA14M6H,6ABC660E-50F0-4B8B-AEB1-9359AEE2E686,2023-09-28_07h45.35.345,WP_VExplicitOC_HL,2022.2.5,Win32,16.75940202,20.57291667,2.3239,2.0277,NA,NA,NA,NA,NA,frustrated,"frustrated, not frustrated","more frustrated, less frustrated",NA,NA,NA,NA,NA,NA,NA,NA,NA,NA,NA,NA,NA,NA,NA,0,0,0,1,1,NA,NA,NA,NA,NA,NA,NA,NA,NA,NA,NA,NA,NA,NA,NA,NA,NA,NA,NA,NA,NA,NA,NA,NA,NA,NA,NA,NA
SUPAMT68034,3VP0C6EFSMV60WN59RZTXX9KA14M6H,6ABC660E-50F0-4B8B-AEB1-9359AEE2E686,2023-09-28_07h45.35.345,WP_VExplicitOC_HL,2022.2.5,Win32,16.75940202,100,3.0796,2.0379,NA,NA,NA,NA,NA,happy,"unhappy, happy","less happy, more happy",NA,NA,NA,NA,NA,NA,NA,NA,NA,NA,NA,NA,NA,NA,NA,0,1,1,0,1,NA,NA,NA,NA,NA,NA,NA,NA,NA,NA,NA,NA,NA,NA,NA,NA,NA,NA,NA,NA,NA,NA,NA,NA,NA,NA,NA,NA
SUPAMT68034,3VP0C6EFSMV60WN59RZTXX9KA14M6H,6ABC660E-50F0-4B8B-AEB1-9359AEE2E686,2023-09-28_07h45.35.345,WP_VExplicitOC_HL,2022.2.5,Win32,16.75940202,100,3.0991,2.0676,NA,NA,NA,NA,NA,bored,"bored, not bored","more bored, less bored",NA,NA,NA,NA,NA,NA,NA,NA,NA,NA,NA,NA,NA,NA,NA,0,2,2,2,1,NA,NA,NA,NA,NA,NA,NA,NA,NA,NA,NA,NA,NA,NA,NA,NA,NA,NA,NA,NA,NA,NA,NA,NA,NA,NA,NA,NA
SUPAMT68034,3VP0C6EFSMV60WN59RZTXX9KA14M6H,6ABC660E-50F0-4B8B-AEB1-9359AEE2E686,2023-09-28_07h45.35.345,WP_VExplicitOC_HL,2022.2.5,Win32,16.75940202,NA,NA,NA,NA,NA,NA,NA,NA,NA,NA,NA,NA,NA,NA,NA,NA,NA,NA,NA,NA,NA,NA,NA,NA,NA,NA,NA,NA,NA,NA,NA,10,0,10,0,1,NA,NA,NA,NA,NA,NA,NA,NA,NA,NA,NA,NA,NA,NA,NA,NA,NA,NA,NA,NA,NA,NA,NA
SUPAMT68034,3VP0C6EFSMV60WN59RZTXX9KA14M6H,6ABC660E-50F0-4B8B-AEB1-9359AEE2E686,2023-09-28_07h45.35.345,WP_VExplicitOC_HL,2022.2.5,Win32,16.75940202,42.70833333,3.5609,2.0146,NA,NA,NA,NA,NA,frustrated,"frustrated, not frustrated","more frustrated, less frustrated",NA,NA,NA,NA,NA,NA,NA,NA,NA,NA,NA,NA,NA,NA,NA,0,0,0,1,1,NA,NA,NA,NA,NA,NA,NA,NA,NA,NA,NA,NA,NA,NA,NA,NA,NA,NA,NA,NA,NA,NA,NA,NA,NA,NA,NA,NA
SUPAMT68034,3VP0C6EFSMV60WN59RZTXX9KA14M6H,6ABC660E-50F0-4B8B-AEB1-9359AEE2E686,2023-09-28_07h45.35.345,WP_VExplicitOC_HL,2022.2.5,Win32,16.75940202,82.03125,3.1972,2.0258,NA,NA,NA,NA,NA,bored,"bored, not bored","more bored, less bored",NA,NA,NA,NA,NA,NA,NA,NA,NA,NA,NA,NA,NA,NA,NA,0,1,1,2,1,NA,NA,NA,NA,NA,NA,NA,NA,NA,NA,NA,NA,NA,NA,NA,NA,NA,NA,NA,NA,NA,NA,NA,NA,NA,NA,NA,NA
SUPAMT68034,3VP0C6EFSMV60WN59RZTXX9KA14M6H,6ABC660E-50F0-4B8B-AEB1-9359AEE2E686,2023-09-28_07h45.35.345,WP_VExplicitOC_HL,2022.2.5,Win32,16.75940202,52.08333333,3.2307,2.0814,NA,NA,NA,NA,NA,happy,"unhappy, happy","less happy, more happy",NA,NA,NA,NA,NA,NA,NA,NA,NA,NA,NA,NA,NA,NA,NA,0,2,2,0,1,NA,NA,NA,NA,NA,NA,NA,NA,NA,NA,NA,NA,NA,NA,NA,NA,NA,NA,NA,NA,NA,NA,NA,NA,NA,NA,NA,NA
SUPAMT68034,3VP0C6EFSMV60WN59RZTXX9KA14M6H,6ABC660E-50F0-4B8B-AEB1-9359AEE2E686,2023-09-28_07h45.35.345,WP_VExplicitOC_HL,2022.2.5,Win32,16.75940202,NA,NA,NA,NA,NA,NA,NA,NA,NA,NA,NA,NA,NA,NA,NA,NA,NA,NA,NA,NA,NA,NA,NA,NA,NA,NA,NA,NA,NA,NA,NA,11,0,11,0,1,NA,NA,NA,NA,NA,NA,NA,NA,NA,NA,NA,NA,NA,NA,NA,NA,NA,NA,NA,NA,NA,NA,NA
SUPAMT68034,3VP0C6EFSMV60WN59RZTXX9KA14M6H,6ABC660E-50F0-4B8B-AEB1-9359AEE2E686,2023-09-28_07h45.35.345,WP_VExplicitOC_HL,2022.2.5,Win32,16.75940202,46.35416667,3.8306,2.0108,NA,NA,NA,NA,NA,bored,"bored, not bored","more bored, less bored",NA,NA,NA,NA,NA,NA,NA,NA,NA,NA,NA,NA,NA,NA,NA,0,0,0,2,1,NA,NA,NA,NA,NA,NA,NA,NA,NA,NA,NA,NA,NA,NA,NA,NA,NA,NA,NA,NA,NA,NA,NA,NA,NA,NA,NA,NA
SUPAMT68034,3VP0C6EFSMV60WN59RZTXX9KA14M6H,6ABC660E-50F0-4B8B-AEB1-9359AEE2E686,2023-09-28_07h45.35.345,WP_VExplicitOC_HL,2022.2.5,Win32,16.75940202,62.5,3.1481,2.0046,NA,NA,NA,NA,NA,happy,"unhappy, happy","less happy, more happy",NA,NA,NA,NA,NA,NA,NA,NA,NA,NA,NA,NA,NA,NA,NA,0,1,1,0,1,NA,NA,NA,NA,NA,NA,NA,NA,NA,NA,NA,NA,NA,NA,NA,NA,NA,NA,NA,NA,NA,NA,NA,NA,NA,NA,NA,NA
SUPAMT68034,3VP0C6EFSMV60WN59RZTXX9KA14M6H,6ABC660E-50F0-4B8B-AEB1-9359AEE2E686,2023-09-28_07h45.35.345,WP_VExplicitOC_HL,2022.2.5,Win32,16.75940202,62.76041667,3.5016,2.0355,NA,NA,NA,NA,NA,frustrated,"frustrated, not frustrated","more frustrated, less frustrated",NA,NA,NA,NA,NA,NA,NA,NA,NA,NA,NA,NA,NA,NA,NA,0,2,2,1,1,NA,NA,NA,NA,NA,NA,NA,NA,NA,NA,NA,NA,NA,NA,NA,NA,NA,NA,NA,NA,NA,NA,NA,NA,NA,NA,NA,NA
SUPAMT68034,3VP0C6EFSMV60WN59RZTXX9KA14M6H,6ABC660E-50F0-4B8B-AEB1-9359AEE2E686,2023-09-28_07h45.35.345,WP_VExplicitOC_HL,2022.2.5,Win32,16.75940202,NA,NA,NA,NA,NA,NA,NA,NA,NA,NA,NA,NA,NA,NA,NA,NA,NA,NA,NA,NA,NA,NA,NA,NA,NA,NA,NA,NA,NA,NA,NA,12,0,12,0,1,NA,NA,NA,NA,NA,NA,NA,NA,NA,NA,NA,NA,NA,NA,NA,NA,NA,NA,NA,NA,NA,NA,NA
SUPAMT68034,3VP0C6EFSMV60WN59RZTXX9KA14M6H,6ABC660E-50F0-4B8B-AEB1-9359AEE2E686,2023-09-28_07h45.35.345,WP_VExplicitOC_HL,2022.2.5,Win32,16.75940202,60.67708333,3.8602,2.0632,NA,NA,NA,NA,NA,frustrated,"frustrated, not frustrated","more frustrated, less frustrated",NA,NA,NA,NA,NA,NA,NA,NA,NA,NA,NA,NA,NA,NA,NA,0,0,0,1,1,NA,NA,NA,NA,NA,NA,NA,NA,NA,NA,NA,NA,NA,NA,NA,NA,NA,NA,NA,NA,NA,NA,NA,NA,NA,NA,NA,NA
SUPAMT68034,3VP0C6EFSMV60WN59RZTXX9KA14M6H,6ABC660E-50F0-4B8B-AEB1-9359AEE2E686,2023-09-28_07h45.35.345,WP_VExplicitOC_HL,2022.2.5,Win32,16.75940202,53.90625,3.4302,2.0865,NA,NA,NA,NA,NA,happy,"unhappy, happy","less happy, more happy",NA,NA,NA,NA,NA,NA,NA,NA,NA,NA,NA,NA,NA,NA,NA,0,1,1,0,1,NA,NA,NA,NA,NA,NA,NA,NA,NA,NA,NA,NA,NA,NA,NA,NA,NA,NA,NA,NA,NA,NA,NA,NA,NA,NA,NA,NA
SUPAMT68034,3VP0C6EFSMV60WN59RZTXX9KA14M6H,6ABC660E-50F0-4B8B-AEB1-9359AEE2E686,2023-09-28_07h45.35.345,WP_VExplicitOC_HL,2022.2.5,Win32,16.75940202,88.28125,3.2276,2.0675,NA,NA,NA,NA,NA,bored,"bored, not bored","more bored, less bored",NA,NA,NA,NA,NA,NA,NA,NA,NA,NA,NA,NA,NA,NA,NA,0,2,2,2,1,NA,NA,NA,NA,NA,NA,NA,NA,NA,NA,NA,NA,NA,NA,NA,NA,NA,NA,NA,NA,NA,NA,NA,NA,NA,NA,NA,NA
SUPAMT68034,3VP0C6EFSMV60WN59RZTXX9KA14M6H,6ABC660E-50F0-4B8B-AEB1-9359AEE2E686,2023-09-28_07h45.35.345,WP_VExplicitOC_HL,2022.2.5,Win32,16.75940202,NA,NA,NA,NA,NA,NA,NA,NA,NA,NA,NA,NA,NA,NA,NA,NA,NA,NA,NA,NA,NA,NA,NA,NA,NA,NA,NA,NA,NA,NA,NA,13,0,13,0,1,NA,NA,NA,NA,NA,NA,NA,NA,NA,NA,NA,NA,NA,NA,NA,NA,NA,NA,NA,NA,NA,NA,NA
SUPAMT68034,3VP0C6EFSMV60WN59RZTXX9KA14M6H,6ABC660E-50F0-4B8B-AEB1-9359AEE2E686,2023-09-28_07h45.35.345,WP_VExplicitOC_HL,2022.2.5,Win32,16.75940202,NA,NA,2.0017,NA,NA,NA,NA,NA,frustrated,"frustrated, not frustrated","more frustrated, less frustrated",NA,NA,NA,NA,NA,NA,NA,NA,NA,NA,NA,NA,NA,NA,NA,0,0,0,1,1,NA,NA,NA,NA,NA,NA,NA,NA,NA,NA,NA,NA,NA,NA,NA,NA,NA,NA,NA,NA,NA,NA,NA,NA,NA,NA,NA,NA
SUPAMT68034,3VP0C6EFSMV60WN59RZTXX9KA14M6H,6ABC660E-50F0-4B8B-AEB1-9359AEE2E686,2023-09-28_07h45.35.345,WP_VExplicitOC_HL,2022.2.5,Win32,16.75940202,NA,NA,2.0739,NA,NA,NA,NA,NA,bored,"bored, not bored","more bored, less bored",NA,NA,NA,NA,NA,NA,NA,NA,NA,NA,NA,NA,NA,NA,NA,0,1,1,2,1,NA,NA,NA,NA,NA,NA,NA,NA,NA,NA,NA,NA,NA,NA,NA,NA,NA,NA,NA,NA,NA,NA,NA,NA,NA,NA,NA,NA
SUPAMT68034,3VP0C6EFSMV60WN59RZTXX9KA14M6H,6ABC660E-50F0-4B8B-AEB1-9359AEE2E686,2023-09-28_07h45.35.345,WP_VExplicitOC_HL,2022.2.5,Win32,16.75940202,69.01041667,7.0134,2.0188,NA,NA,NA,NA,NA,happy,"unhappy, happy","less happy, more happy",NA,NA,NA,NA,NA,NA,NA,NA,NA,NA,NA,NA,NA,NA,NA,0,2,2,0,1,NA,NA,NA,NA,NA,NA,NA,NA,NA,NA,NA,NA,NA,NA,NA,NA,NA,NA,NA,NA,NA,NA,NA,NA,NA,NA,NA,NA
SUPAMT68034,3VP0C6EFSMV60WN59RZTXX9KA14M6H,6ABC660E-50F0-4B8B-AEB1-9359AEE2E686,2023-09-28_07h45.35.345,WP_VExplicitOC_HL,2022.2.5,Win32,16.75940202,NA,NA,NA,NA,NA,NA,NA,NA,NA,NA,NA,NA,NA,NA,NA,NA,NA,NA,NA,NA,NA,NA,NA,NA,NA,NA,NA,NA,NA,NA,NA,14,0,14,0,1,NA,NA,NA,NA,NA,NA,NA,NA,NA,NA,NA,NA,NA,NA,NA,NA,NA,NA,NA,NA,NA,NA,NA
SUPAMT68034,3VP0C6EFSMV60WN59RZTXX9KA14M6H,6ABC660E-50F0-4B8B-AEB1-9359AEE2E686,2023-09-28_07h45.35.345,WP_VExplicitOC_HL,2022.2.5,Win32,16.75940202,NA,NA,NA,NA,NA,NA,NA,NA,NA,NA,NA,NA,NA,NA,NA,NA,NA,NA,NA,NA,NA,NA,NA,NA,NA,NA,NA,NA,NA,NA,NA,NA,NA,NA,NA,NA,NA,NA,NA,NA,NA,NA,NA,NA,NA,NA,NA,NA,NA,NA,NA,NA,NA,NA,NA,NA,NA,NA,NA
SUPAMT68034,3VP0C6EFSMV60WN59RZTXX9KA14M6H,6ABC660E-50F0-4B8B-AEB1-9359AEE2E686,2023-09-28_07h45.35.345,WP_VExplicitOC_HL,2022.2.5,Win32,16.75940202,NA,NA,NA,NA,NA,NA,NA,NA,NA,NA,NA,NA,NA,NA,NA,NA,NA,NA,NA,NA,NA,NA,NA,NA,NA,NA,NA,NA,NA,NA,NA,NA,NA,NA,NA,NA,NA,NA,NA,NA,NA,NA,NA,NA,NA,NA,NA,NA,NA,NA,NA,NA,NA,NA,NA,NA,NA,NA,NA
SUPAMT68034,3VP0C6EFSMV60WN59RZTXX9KA14M6H,6ABC660E-50F0-4B8B-AEB1-9359AEE2E686,2023-09-28_07h45.35.345,WP_VExplicitOC_HL,2022.2.5,Win32,16.75940202,NA,NA,NA,NA,NA,NA,NA,NA,NA,NA,NA,NA,NA,NA,NA,NA,NA,NA,rest (looking at a fixed cross),001.png,NA,NA,NA,NA,NA,NA,NA,NA,NA,NA,NA,NA,NA,NA,NA,NA,60.67708333,1.5297,0,0,0,0,1,NA,NA,NA,NA,NA,NA,NA,NA,NA,NA,NA,NA,NA,NA,NA,NA
SUPAMT68034,3VP0C6EFSMV60WN59RZTXX9KA14M6H,6ABC660E-50F0-4B8B-AEB1-9359AEE2E686,2023-09-28_07h45.35.345,WP_VExplicitOC_HL,2022.2.5,Win32,16.75940202,NA,NA,NA,NA,NA,NA,NA,NA,NA,NA,NA,NA,NA,NA,NA,NA,NA,NA,stand up,002.png,NA,NA,NA,NA,NA,NA,NA,NA,NA,NA,NA,NA,NA,NA,NA,NA,76.04166667,1.2656,0,1,1,1,1,NA,NA,NA,NA,NA,NA,NA,NA,NA,NA,NA,NA,NA,NA,NA,NA
SUPAMT68034,3VP0C6EFSMV60WN59RZTXX9KA14M6H,6ABC660E-50F0-4B8B-AEB1-9359AEE2E686,2023-09-28_07h45.35.345,WP_VExplicitOC_HL,2022.2.5,Win32,16.75940202,NA,NA,NA,NA,NA,NA,NA,NA,NA,NA,NA,NA,NA,NA,NA,NA,NA,NA,stretch,003.png,NA,NA,NA,NA,NA,NA,NA,NA,NA,NA,NA,NA,NA,NA,NA,NA,65.625,1.8264,0,2,2,2,1,NA,NA,NA,NA,NA,NA,NA,NA,NA,NA,NA,NA,NA,NA,NA,NA
SUPAMT68034,3VP0C6EFSMV60WN59RZTXX9KA14M6H,6ABC660E-50F0-4B8B-AEB1-9359AEE2E686,2023-09-28_07h45.35.345,WP_VExplicitOC_HL,2022.2.5,Win32,16.75940202,NA,NA,NA,NA,NA,NA,NA,NA,NA,NA,NA,NA,NA,NA,NA,NA,NA,NA,make a drink,004.png,NA,NA,NA,NA,NA,NA,NA,NA,NA,NA,NA,NA,NA,NA,NA,NA,67.96875,4.1302,0,3,3,3,1,NA,NA,NA,NA,NA,NA,NA,NA,NA,NA,NA,NA,NA,NA,NA,NA
SUPAMT68034,3VP0C6EFSMV60WN59RZTXX9KA14M6H,6ABC660E-50F0-4B8B-AEB1-9359AEE2E686,2023-09-28_07h45.35.345,WP_VExplicitOC_HL,2022.2.5,Win32,16.75940202,NA,NA,NA,NA,NA,NA,NA,NA,NA,NA,NA,NA,NA,NA,NA,NA,NA,NA,scroll social media,005.png,NA,NA,NA,NA,NA,NA,NA,NA,NA,NA,NA,NA,NA,NA,NA,NA,84.11458333,1.419,0,4,4,4,1,NA,NA,NA,NA,NA,NA,NA,NA,NA,NA,NA,NA,NA,NA,NA,NA
SUPAMT68034,3VP0C6EFSMV60WN59RZTXX9KA14M6H,6ABC660E-50F0-4B8B-AEB1-9359AEE2E686,2023-09-28_07h45.35.345,WP_VExplicitOC_HL,2022.2.5,Win32,16.75940202,NA,NA,NA,NA,NA,NA,NA,NA,NA,NA,NA,NA,NA,NA,NA,NA,NA,NA,listen to music,006.png,NA,NA,NA,NA,NA,NA,NA,NA,NA,NA,NA,NA,NA,NA,NA,NA,58.07291667,1.6387,0,5,5,5,1,NA,NA,NA,NA,NA,NA,NA,NA,NA,NA,NA,NA,NA,NA,NA,NA
SUPAMT68034,3VP0C6EFSMV60WN59RZTXX9KA14M6H,6ABC660E-50F0-4B8B-AEB1-9359AEE2E686,2023-09-28_07h45.35.345,WP_VExplicitOC_HL,2022.2.5,Win32,16.75940202,NA,NA,NA,NA,NA,NA,NA,NA,NA,NA,NA,NA,NA,NA,NA,NA,NA,NA,daydream,007.png,NA,NA,NA,NA,NA,NA,NA,NA,NA,NA,NA,NA,NA,NA,NA,NA,98.95833333,1.1562,0,6,6,6,1,NA,NA,NA,NA,NA,NA,NA,NA,NA,NA,NA,NA,NA,NA,NA,NA
SUPAMT68034,3VP0C6EFSMV60WN59RZTXX9KA14M6H,6ABC660E-50F0-4B8B-AEB1-9359AEE2E686,2023-09-28_07h45.35.345,WP_VExplicitOC_HL,2022.2.5,Win32,16.75940202,NA,NA,NA,NA,NA,NA,NA,NA,NA,NA,NA,NA,NA,NA,NA,NA,NA,NA,watch a short animation,008.png,NA,NA,NA,NA,NA,NA,NA,NA,NA,NA,NA,NA,NA,NA,NA,NA,77.60416667,1.7266,0,7,7,7,1,NA,NA,NA,NA,NA,NA,NA,NA,NA,NA,NA,NA,NA,NA,NA,NA
SUPAMT68034,3VP0C6EFSMV60WN59RZTXX9KA14M6H,6ABC660E-50F0-4B8B-AEB1-9359AEE2E686,2023-09-28_07h45.35.345,WP_VExplicitOC_HL,2022.2.5,Win32,16.75940202,NA,NA,NA,NA,NA,NA,NA,NA,NA,NA,NA,NA,NA,NA,NA,NA,NA,NA,read a novel,009.png,NA,NA,NA,NA,NA,NA,NA,NA,NA,NA,NA,NA,NA,NA,NA,NA,91.14583333,1.8174,0,8,8,8,1,NA,NA,NA,NA,NA,NA,NA,NA,NA,NA,NA,NA,NA,NA,NA,NA
SUPAMT68034,3VP0C6EFSMV60WN59RZTXX9KA14M6H,6ABC660E-50F0-4B8B-AEB1-9359AEE2E686,2023-09-28_07h45.35.345,WP_VExplicitOC_HL,2022.2.5,Win32,16.75940202,NA,NA,NA,NA,NA,NA,NA,NA,NA,NA,NA,NA,NA,NA,NA,NA,NA,NA,read the news,010.png,NA,NA,NA,NA,NA,NA,NA,NA,NA,NA,NA,NA,NA,NA,NA,NA,100,1.2161,0,9,9,9,1,NA,NA,NA,NA,NA,NA,NA,NA,NA,NA,NA,NA,NA,NA,NA,NA
SUPAMT68034,3VP0C6EFSMV60WN59RZTXX9KA14M6H,6ABC660E-50F0-4B8B-AEB1-9359AEE2E686,2023-09-28_07h45.35.345,WP_VExplicitOC_HL,2022.2.5,Win32,16.75940202,NA,NA,NA,NA,NA,NA,NA,NA,NA,NA,NA,NA,NA,NA,NA,NA,NA,NA,NA,NA,NA,NA,NA,NA,NA,NA,NA,NA,NA,NA,NA,NA,NA,NA,NA,NA,NA,NA,NA,NA,NA,NA,NA,listen to music,NA,NA,NA,NA,NA,NA,NA,NA,NA,NA,NA,NA,NA,NA,NA
SUPAMT68034,3VP0C6EFSMV60WN59RZTXX9KA14M6H,6ABC660E-50F0-4B8B-AEB1-9359AEE2E686,2023-09-28_07h45.35.345,WP_VExplicitOC_HL,2022.2.5,Win32,16.75940202,94.01041667,6.4268,2.0337,NA,NA,NA,NA,NA,happy,"unhappy, happy","less happy, more happy",NA,NA,NA,NA,NA,NA,NA,NA,NA,NA,NA,NA,NA,NA,NA,NA,NA,NA,NA,NA,NA,NA,NA,NA,NA,NA,NA,NA,NA,NA,NA,NA,NA,0,0,0,0,1,NA,NA,NA,NA,NA,NA,NA,NA,NA,NA
SUPAMT68034,3VP0C6EFSMV60WN59RZTXX9KA14M6H,6ABC660E-50F0-4B8B-AEB1-9359AEE2E686,2023-09-28_07h45.35.345,WP_VExplicitOC_HL,2022.2.5,Win32,16.75940202,84.11458333,3.1023,2.0261,NA,NA,NA,NA,NA,bored,"bored, not bored","more bored, less bored",NA,NA,NA,NA,NA,NA,NA,NA,NA,NA,NA,NA,NA,NA,NA,NA,NA,NA,NA,NA,NA,NA,NA,NA,NA,NA,NA,NA,NA,NA,NA,NA,NA,0,1,1,2,1,NA,NA,NA,NA,NA,NA,NA,NA,NA,NA
SUPAMT68034,3VP0C6EFSMV60WN59RZTXX9KA14M6H,6ABC660E-50F0-4B8B-AEB1-9359AEE2E686,2023-09-28_07h45.35.345,WP_VExplicitOC_HL,2022.2.5,Win32,16.75940202,55.72916667,7.2784,2.0762,NA,NA,NA,NA,NA,frustrated,"frustrated, not frustrated","more frustrated, less frustrated",NA,NA,NA,NA,NA,NA,NA,NA,NA,NA,NA,NA,NA,NA,NA,NA,NA,NA,NA,NA,NA,NA,NA,NA,NA,NA,NA,NA,NA,NA,NA,NA,NA,0,2,2,1,1,NA,NA,NA,NA,NA,NA,NA,NA,NA,NA
SUPAMT68034,3VP0C6EFSMV60WN59RZTXX9KA14M6H,6ABC660E-50F0-4B8B-AEB1-9359AEE2E686,2023-09-28_07h45.35.345,WP_VExplicitOC_HL,2022.2.5,Win32,16.75940202,NA,NA,NA,NA,NA,NA,NA,NA,NA,NA,NA,NA,NA,NA,NA,NA,NA,NA,NA,NA,NA,NA,NA,NA,NA,NA,NA,NA,NA,NA,NA,NA,NA,NA,NA,NA,NA,NA,NA,NA,NA,NA,NA,NA,NA,NA,NA,NA,NA,NA,NA,NA,NA,NA,NA,NA,NA,NA,NA
SUPAMT68034,3VP0C6EFSMV60WN59RZTXX9KA14M6H,6ABC660E-50F0-4B8B-AEB1-9359AEE2E686,2023-09-28_07h45.35.345,WP_VExplicitOC_HL,2022.2.5,Win32,16.75940202,NA,NA,NA,NA,NA,NA,NA,NA,NA,NA,NA,NA,NA,NA,NA,NA,NA,NA,NA,NA,NA,NA,NA,NA,NA,NA,NA,NA,NA,NA,NA,NA,NA,NA,NA,NA,NA,NA,NA,NA,NA,NA,NA,NA,NA,NA,NA,NA,NA,NA,NA,NA,NA,NA,NA,NA,NA,NA,NA
SUPAMT68034,3VP0C6EFSMV60WN59RZTXX9KA14M6H,6ABC660E-50F0-4B8B-AEB1-9359AEE2E686,2023-09-28_07h45.35.345,WP_VExplicitOC_HL,2022.2.5,Win32,16.75940202,90.88541667,3.34,2.0021,NA,NA,NA,NA,NA,frustrated,"frustrated, not frustrated","more frustrated, less frustrated",NA,NA,NA,NA,NA,NA,NA,NA,NA,NA,NA,NA,NA,NA,NA,NA,NA,NA,NA,NA,NA,NA,NA,NA,NA,NA,NA,NA,NA,NA,NA,NA,NA,NA,NA,NA,NA,NA,0,0,0,1,1,NA,NA,NA,NA,NA
SUPAMT68034,3VP0C6EFSMV60WN59RZTXX9KA14M6H,6ABC660E-50F0-4B8B-AEB1-9359AEE2E686,2023-09-28_07h45.35.345,WP_VExplicitOC_HL,2022.2.5,Win32,16.75940202,78.125,3.3352,2.0605,NA,NA,NA,NA,NA,bored,"bored, not bored","more bored, less bored",NA,NA,NA,NA,NA,NA,NA,NA,NA,NA,NA,NA,NA,NA,NA,NA,NA,NA,NA,NA,NA,NA,NA,NA,NA,NA,NA,NA,NA,NA,NA,NA,NA,NA,NA,NA,NA,NA,0,1,1,2,1,NA,NA,NA,NA,NA
SUPAMT68034,3VP0C6EFSMV60WN59RZTXX9KA14M6H,6ABC660E-50F0-4B8B-AEB1-9359AEE2E686,2023-09-28_07h45.35.345,WP_VExplicitOC_HL,2022.2.5,Win32,16.75940202,85.67708333,3.094,2.0034,NA,NA,NA,NA,NA,happy,"unhappy, happy","less happy, more happy",NA,NA,NA,NA,NA,NA,NA,NA,NA,NA,NA,NA,NA,NA,NA,NA,NA,NA,NA,NA,NA,NA,NA,NA,NA,NA,NA,NA,NA,NA,NA,NA,NA,NA,NA,NA,NA,NA,0,2,2,0,1,NA,NA,NA,NA,NA
SUPAMT68034,3VP0C6EFSMV60WN59RZTXX9KA14M6H,6ABC660E-50F0-4B8B-AEB1-9359AEE2E686,2023-09-28_07h45.35.345,WP_VExplicitOC_HL,2022.2.5,Win32,16.75940202,NA,NA,NA,NA,NA,NA,NA,NA,NA,NA,NA,NA,NA,NA,NA,NA,NA,NA,NA,NA,NA,NA,NA,NA,NA,NA,NA,NA,NA,NA,NA,NA,NA,NA,NA,NA,NA,NA,NA,NA,NA,NA,NA,NA,NA,NA,NA,NA,NA,NA,NA,NA,NA,NA,0,0,0,0,1
SUPAMT68034,3VP0C6EFSMV60WN59RZTXX9KA14M6H,6ABC660E-50F0-4B8B-AEB1-9359AEE2E686,2023-09-28_07h45.35.345,WP_VExplicitOC_HL,2022.2.5,Win32,16.75940202,63.80208333,3.5291,2.0632,NA,NA,NA,NA,NA,bored,"bored, not bored","more bored, less bored",NA,NA,NA,NA,NA,NA,NA,NA,NA,NA,NA,NA,NA,NA,NA,NA,NA,NA,NA,NA,NA,NA,NA,NA,NA,NA,NA,NA,NA,NA,NA,NA,NA,NA,NA,NA,NA,NA,0,0,0,2,1,NA,NA,NA,NA,NA
SUPAMT68034,3VP0C6EFSMV60WN59RZTXX9KA14M6H,6ABC660E-50F0-4B8B-AEB1-9359AEE2E686,2023-09-28_07h45.35.345,WP_VExplicitOC_HL,2022.2.5,Win32,16.75940202,45.3125,3.7268,2.0836,NA,NA,NA,NA,NA,happy,"unhappy, happy","less happy, more happy",NA,NA,NA,NA,NA,NA,NA,NA,NA,NA,NA,NA,NA,NA,NA,NA,NA,NA,NA,NA,NA,NA,NA,NA,NA,NA,NA,NA,NA,NA,NA,NA,NA,NA,NA,NA,NA,NA,0,1,1,0,1,NA,NA,NA,NA,NA
SUPAMT68034,3VP0C6EFSMV60WN59RZTXX9KA14M6H,6ABC660E-50F0-4B8B-AEB1-9359AEE2E686,2023-09-28_07h45.35.345,WP_VExplicitOC_HL,2022.2.5,Win32,16.75940202,56.51041667,3.4626,2.0232,NA,NA,NA,NA,NA,frustrated,"frustrated, not frustrated","more frustrated, less frustrated",NA,NA,NA,NA,NA,NA,NA,NA,NA,NA,NA,NA,NA,NA,NA,NA,NA,NA,NA,NA,NA,NA,NA,NA,NA,NA,NA,NA,NA,NA,NA,NA,NA,NA,NA,NA,NA,NA,0,2,2,1,1,NA,NA,NA,NA,NA
SUPAMT68034,3VP0C6EFSMV60WN59RZTXX9KA14M6H,6ABC660E-50F0-4B8B-AEB1-9359AEE2E686,2023-09-28_07h45.35.345,WP_VExplicitOC_HL,2022.2.5,Win32,16.75940202,NA,NA,NA,NA,NA,NA,NA,NA,NA,NA,NA,NA,NA,NA,NA,NA,NA,NA,NA,NA,NA,NA,NA,NA,NA,NA,NA,NA,NA,NA,NA,NA,NA,NA,NA,NA,NA,NA,NA,NA,NA,NA,NA,NA,NA,NA,NA,NA,NA,NA,NA,NA,NA,NA,1,0,1,0,1
SUPAMT68034,3VP0C6EFSMV60WN59RZTXX9KA14M6H,6ABC660E-50F0-4B8B-AEB1-9359AEE2E686,2023-09-28_07h45.35.345,WP_VExplicitOC_HL,2022.2.5,Win32,16.75940202,75.78125,4.2137,2.0222,NA,NA,NA,NA,NA,happy,"unhappy, happy","less happy, more happy",NA,NA,NA,NA,NA,NA,NA,NA,NA,NA,NA,NA,NA,NA,NA,NA,NA,NA,NA,NA,NA,NA,NA,NA,NA,NA,NA,NA,NA,NA,NA,NA,NA,NA,NA,NA,NA,NA,0,0,0,0,1,NA,NA,NA,NA,NA
SUPAMT68034,3VP0C6EFSMV60WN59RZTXX9KA14M6H,6ABC660E-50F0-4B8B-AEB1-9359AEE2E686,2023-09-28_07h45.35.345,WP_VExplicitOC_HL,2022.2.5,Win32,16.75940202,85.41666667,3.151,2.0829,NA,NA,NA,NA,NA,frustrated,"frustrated, not frustrated","more frustrated, less frustrated",NA,NA,NA,NA,NA,NA,NA,NA,NA,NA,NA,NA,NA,NA,NA,NA,NA,NA,NA,NA,NA,NA,NA,NA,NA,NA,NA,NA,NA,NA,NA,NA,NA,NA,NA,NA,NA,NA,0,1,1,1,1,NA,NA,NA,NA,NA
SUPAMT68034,3VP0C6EFSMV60WN59RZTXX9KA14M6H,6ABC660E-50F0-4B8B-AEB1-9359AEE2E686,2023-09-28_07h45.35.345,WP_VExplicitOC_HL,2022.2.5,Win32,16.75940202,67.1875,3.1185,2.0284,NA,NA,NA,NA,NA,bored,"bored, not bored","more bored, less bored",NA,NA,NA,NA,NA,NA,NA,NA,NA,NA,NA,NA,NA,NA,NA,NA,NA,NA,NA,NA,NA,NA,NA,NA,NA,NA,NA,NA,NA,NA,NA,NA,NA,NA,NA,NA,NA,NA,0,2,2,2,1,NA,NA,NA,NA,NA
SUPAMT68034,3VP0C6EFSMV60WN59RZTXX9KA14M6H,6ABC660E-50F0-4B8B-AEB1-9359AEE2E686,2023-09-28_07h45.35.345,WP_VExplicitOC_HL,2022.2.5,Win32,16.75940202,NA,NA,NA,NA,NA,NA,NA,NA,NA,NA,NA,NA,NA,NA,NA,NA,NA,NA,NA,NA,NA,NA,NA,NA,NA,NA,NA,NA,NA,NA,NA,NA,NA,NA,NA,NA,NA,NA,NA,NA,NA,NA,NA,NA,NA,NA,NA,NA,NA,NA,NA,NA,NA,NA,2,0,2,0,1
SUPAMT68034,3VP0C6EFSMV60WN59RZTXX9KA14M6H,6ABC660E-50F0-4B8B-AEB1-9359AEE2E686,2023-09-28_07h45.35.345,WP_VExplicitOC_HL,2022.2.5,Win32,16.75940202,76.5625,3.2327,2.0066,NA,NA,NA,NA,NA,happy,"unhappy, happy","less happy, more happy",NA,NA,NA,NA,NA,NA,NA,NA,NA,NA,NA,NA,NA,NA,NA,NA,NA,NA,NA,NA,NA,NA,NA,NA,NA,NA,NA,NA,NA,NA,NA,NA,NA,NA,NA,NA,NA,NA,0,0,0,0,1,NA,NA,NA,NA,NA
SUPAMT68034,3VP0C6EFSMV60WN59RZTXX9KA14M6H,6ABC660E-50F0-4B8B-AEB1-9359AEE2E686,2023-09-28_07h45.35.345,WP_VExplicitOC_HL,2022.2.5,Win32,16.75940202,54.6875,3.8149,2.0149,NA,NA,NA,NA,NA,frustrated,"frustrated, not frustrated","more frustrated, less frustrated",NA,NA,NA,NA,NA,NA,NA,NA,NA,NA,NA,NA,NA,NA,NA,NA,NA,NA,NA,NA,NA,NA,NA,NA,NA,NA,NA,NA,NA,NA,NA,NA,NA,NA,NA,NA,NA,NA,0,1,1,1,1,NA,NA,NA,NA,NA
SUPAMT68034,3VP0C6EFSMV60WN59RZTXX9KA14M6H,6ABC660E-50F0-4B8B-AEB1-9359AEE2E686,2023-09-28_07h45.35.345,WP_VExplicitOC_HL,2022.2.5,Win32,16.75940202,100,3.1038,2.0629,NA,NA,NA,NA,NA,bored,"bored, not bored","more bored, less bored",NA,NA,NA,NA,NA,NA,NA,NA,NA,NA,NA,NA,NA,NA,NA,NA,NA,NA,NA,NA,NA,NA,NA,NA,NA,NA,NA,NA,NA,NA,NA,NA,NA,NA,NA,NA,NA,NA,0,2,2,2,1,NA,NA,NA,NA,NA
SUPAMT68034,3VP0C6EFSMV60WN59RZTXX9KA14M6H,6ABC660E-50F0-4B8B-AEB1-9359AEE2E686,2023-09-28_07h45.35.345,WP_VExplicitOC_HL,2022.2.5,Win32,16.75940202,NA,NA,NA,NA,NA,NA,NA,NA,NA,NA,NA,NA,NA,NA,NA,NA,NA,NA,NA,NA,NA,NA,NA,NA,NA,NA,NA,NA,NA,NA,NA,NA,NA,NA,NA,NA,NA,NA,NA,NA,NA,NA,NA,NA,NA,NA,NA,NA,NA,NA,NA,NA,NA,NA,3,0,3,0,1
SUPAMT68034,3VP0C6EFSMV60WN59RZTXX9KA14M6H,6ABC660E-50F0-4B8B-AEB1-9359AEE2E686,2023-09-28_07h45.35.345,WP_VExplicitOC_HL,2022.2.5,Win32,16.75940202,48.17708333,3.8698,2.0743,NA,NA,NA,NA,NA,bored,"bored, not bored","more bored, less bored",NA,NA,NA,NA,NA,NA,NA,NA,NA,NA,NA,NA,NA,NA,NA,NA,NA,NA,NA,NA,NA,NA,NA,NA,NA,NA,NA,NA,NA,NA,NA,NA,NA,NA,NA,NA,NA,NA,0,0,0,2,1,NA,NA,NA,NA,NA
SUPAMT68034,3VP0C6EFSMV60WN59RZTXX9KA14M6H,6ABC660E-50F0-4B8B-AEB1-9359AEE2E686,2023-09-28_07h45.35.345,WP_VExplicitOC_HL,2022.2.5,Win32,16.75940202,56.25,4.8452,2.0519,NA,NA,NA,NA,NA,frustrated,"frustrated, not frustrated","more frustrated, less frustrated",NA,NA,NA,NA,NA,NA,NA,NA,NA,NA,NA,NA,NA,NA,NA,NA,NA,NA,NA,NA,NA,NA,NA,NA,NA,NA,NA,NA,NA,NA,NA,NA,NA,NA,NA,NA,NA,NA,0,1,1,1,1,NA,NA,NA,NA,NA
SUPAMT68034,3VP0C6EFSMV60WN59RZTXX9KA14M6H,6ABC660E-50F0-4B8B-AEB1-9359AEE2E686,2023-09-28_07h45.35.345,WP_VExplicitOC_HL,2022.2.5,Win32,16.75940202,52.60416667,3.2548,2.0624,NA,NA,NA,NA,NA,happy,"unhappy, happy","less happy, more happy",NA,NA,NA,NA,NA,NA,NA,NA,NA,NA,NA,NA,NA,NA,NA,NA,NA,NA,NA,NA,NA,NA,NA,NA,NA,NA,NA,NA,NA,NA,NA,NA,NA,NA,NA,NA,NA,NA,0,2,2,0,1,NA,NA,NA,NA,NA
SUPAMT68034,3VP0C6EFSMV60WN59RZTXX9KA14M6H,6ABC660E-50F0-4B8B-AEB1-9359AEE2E686,2023-09-28_07h45.35.345,WP_VExplicitOC_HL,2022.2.5,Win32,16.75940202,NA,NA,NA,NA,NA,NA,NA,NA,NA,NA,NA,NA,NA,NA,NA,NA,NA,NA,NA,NA,NA,NA,NA,NA,NA,NA,NA,NA,NA,NA,NA,NA,NA,NA,NA,NA,NA,NA,NA,NA,NA,NA,NA,NA,NA,NA,NA,NA,NA,NA,NA,NA,NA,NA,4,0,4,0,1
SUPAMT68034,3VP0C6EFSMV60WN59RZTXX9KA14M6H,6ABC660E-50F0-4B8B-AEB1-9359AEE2E686,2023-09-28_07h45.35.345,WP_VExplicitOC_HL,2022.2.5,Win32,16.75940202,42.70833333,3.6793,2.0046,NA,NA,NA,NA,NA,bored,"bored, not bored","more bored, less bored",NA,NA,NA,NA,NA,NA,NA,NA,NA,NA,NA,NA,NA,NA,NA,NA,NA,NA,NA,NA,NA,NA,NA,NA,NA,NA,NA,NA,NA,NA,NA,NA,NA,NA,NA,NA,NA,NA,0,0,0,2,1,NA,NA,NA,NA,NA
SUPAMT68034,3VP0C6EFSMV60WN59RZTXX9KA14M6H,6ABC660E-50F0-4B8B-AEB1-9359AEE2E686,2023-09-28_07h45.35.345,WP_VExplicitOC_HL,2022.2.5,Win32,16.75940202,52.60416667,3.637,2.0733,NA,NA,NA,NA,NA,happy,"unhappy, happy","less happy, more happy",NA,NA,NA,NA,NA,NA,NA,NA,NA,NA,NA,NA,NA,NA,NA,NA,NA,NA,NA,NA,NA,NA,NA,NA,NA,NA,NA,NA,NA,NA,NA,NA,NA,NA,NA,NA,NA,NA,0,1,1,0,1,NA,NA,NA,NA,NA
SUPAMT68034,3VP0C6EFSMV60WN59RZTXX9KA14M6H,6ABC660E-50F0-4B8B-AEB1-9359AEE2E686,2023-09-28_07h45.35.345,WP_VExplicitOC_HL,2022.2.5,Win32,16.75940202,52.60416667,4.1256,2.0193,NA,NA,NA,NA,NA,frustrated,"frustrated, not frustrated","more frustrated, less frustrated",NA,NA,NA,NA,NA,NA,NA,NA,NA,NA,NA,NA,NA,NA,NA,NA,NA,NA,NA,NA,NA,NA,NA,NA,NA,NA,NA,NA,NA,NA,NA,NA,NA,NA,NA,NA,NA,NA,0,2,2,1,1,NA,NA,NA,NA,NA
SUPAMT68034,3VP0C6EFSMV60WN59RZTXX9KA14M6H,6ABC660E-50F0-4B8B-AEB1-9359AEE2E686,2023-09-28_07h45.35.345,WP_VExplicitOC_HL,2022.2.5,Win32,16.75940202,NA,NA,NA,NA,NA,NA,NA,NA,NA,NA,NA,NA,NA,NA,NA,NA,NA,NA,NA,NA,NA,NA,NA,NA,NA,NA,NA,NA,NA,NA,NA,NA,NA,NA,NA,NA,NA,NA,NA,NA,NA,NA,NA,NA,NA,NA,NA,NA,NA,NA,NA,NA,NA,NA,5,0,5,0,1
SUPAMT68034,3VP0C6EFSMV60WN59RZTXX9KA14M6H,6ABC660E-50F0-4B8B-AEB1-9359AEE2E686,2023-09-28_07h45.35.345,WP_VExplicitOC_HL,2022.2.5,Win32,16.75940202,36.45833333,3.4692,2.0673,NA,NA,NA,NA,NA,bored,"bored, not bored","more bored, less bored",NA,NA,NA,NA,NA,NA,NA,NA,NA,NA,NA,NA,NA,NA,NA,NA,NA,NA,NA,NA,NA,NA,NA,NA,NA,NA,NA,NA,NA,NA,NA,NA,NA,NA,NA,NA,NA,NA,0,0,0,2,1,NA,NA,NA,NA,NA
SUPAMT68034,3VP0C6EFSMV60WN59RZTXX9KA14M6H,6ABC660E-50F0-4B8B-AEB1-9359AEE2E686,2023-09-28_07h45.35.345,WP_VExplicitOC_HL,2022.2.5,Win32,16.75940202,48.4375,3.7308,2.0553,NA,NA,NA,NA,NA,happy,"unhappy, happy","less happy, more happy",NA,NA,NA,NA,NA,NA,NA,NA,NA,NA,NA,NA,NA,NA,NA,NA,NA,NA,NA,NA,NA,NA,NA,NA,NA,NA,NA,NA,NA,NA,NA,NA,NA,NA,NA,NA,NA,NA,0,1,1,0,1,NA,NA,NA,NA,NA
SUPAMT68034,3VP0C6EFSMV60WN59RZTXX9KA14M6H,6ABC660E-50F0-4B8B-AEB1-9359AEE2E686,2023-09-28_07h45.35.345,WP_VExplicitOC_HL,2022.2.5,Win32,16.75940202,76.82291667,3.2961,2.0001,NA,NA,NA,NA,NA,frustrated,"frustrated, not frustrated","more frustrated, less frustrated",NA,NA,NA,NA,NA,NA,NA,NA,NA,NA,NA,NA,NA,NA,NA,NA,NA,NA,NA,NA,NA,NA,NA,NA,NA,NA,NA,NA,NA,NA,NA,NA,NA,NA,NA,NA,NA,NA,0,2,2,1,1,NA,NA,NA,NA,NA
SUPAMT68034,3VP0C6EFSMV60WN59RZTXX9KA14M6H,6ABC660E-50F0-4B8B-AEB1-9359AEE2E686,2023-09-28_07h45.35.345,WP_VExplicitOC_HL,2022.2.5,Win32,16.75940202,NA,NA,NA,NA,NA,NA,NA,NA,NA,NA,NA,NA,NA,NA,NA,NA,NA,NA,NA,NA,NA,NA,NA,NA,NA,NA,NA,NA,NA,NA,NA,NA,NA,NA,NA,NA,NA,NA,NA,NA,NA,NA,NA,NA,NA,NA,NA,NA,NA,NA,NA,NA,NA,NA,6,0,6,0,1
SUPAMT68034,3VP0C6EFSMV60WN59RZTXX9KA14M6H,6ABC660E-50F0-4B8B-AEB1-9359AEE2E686,2023-09-28_07h45.35.345,WP_VExplicitOC_HL,2022.2.5,Win32,16.75940202,71.61458333,4.0705,2.0029,NA,NA,NA,NA,NA,frustrated,"frustrated, not frustrated","more frustrated, less frustrated",NA,NA,NA,NA,NA,NA,NA,NA,NA,NA,NA,NA,NA,NA,NA,NA,NA,NA,NA,NA,NA,NA,NA,NA,NA,NA,NA,NA,NA,NA,NA,NA,NA,NA,NA,NA,NA,NA,0,0,0,1,1,NA,NA,NA,NA,NA
SUPAMT68034,3VP0C6EFSMV60WN59RZTXX9KA14M6H,6ABC660E-50F0-4B8B-AEB1-9359AEE2E686,2023-09-28_07h45.35.345,WP_VExplicitOC_HL,2022.2.5,Win32,16.75940202,70.3125,3.3498,2.0838,NA,NA,NA,NA,NA,bored,"bored, not bored","more bored, less bored",NA,NA,NA,NA,NA,NA,NA,NA,NA,NA,NA,NA,NA,NA,NA,NA,NA,NA,NA,NA,NA,NA,NA,NA,NA,NA,NA,NA,NA,NA,NA,NA,NA,NA,NA,NA,NA,NA,0,1,1,2,1,NA,NA,NA,NA,NA
SUPAMT68034,3VP0C6EFSMV60WN59RZTXX9KA14M6H,6ABC660E-50F0-4B8B-AEB1-9359AEE2E686,2023-09-28_07h45.35.345,WP_VExplicitOC_HL,2022.2.5,Win32,16.75940202,59.89583333,3.8954,2.0402,NA,NA,NA,NA,NA,happy,"unhappy, happy","less happy, more happy",NA,NA,NA,NA,NA,NA,NA,NA,NA,NA,NA,NA,NA,NA,NA,NA,NA,NA,NA,NA,NA,NA,NA,NA,NA,NA,NA,NA,NA,NA,NA,NA,NA,NA,NA,NA,NA,NA,0,2,2,0,1,NA,NA,NA,NA,NA
SUPAMT68034,3VP0C6EFSMV60WN59RZTXX9KA14M6H,6ABC660E-50F0-4B8B-AEB1-9359AEE2E686,2023-09-28_07h45.35.345,WP_VExplicitOC_HL,2022.2.5,Win32,16.75940202,NA,NA,NA,NA,NA,NA,NA,NA,NA,NA,NA,NA,NA,NA,NA,NA,NA,NA,NA,NA,NA,NA,NA,NA,NA,NA,NA,NA,NA,NA,NA,NA,NA,NA,NA,NA,NA,NA,NA,NA,NA,NA,NA,NA,NA,NA,NA,NA,NA,NA,NA,NA,NA,NA,7,0,7,0,1
SUPAMT68034,3VP0C6EFSMV60WN59RZTXX9KA14M6H,6ABC660E-50F0-4B8B-AEB1-9359AEE2E686,2023-09-28_07h45.35.345,WP_VExplicitOC_HL,2022.2.5,Win32,16.75940202,NA,NA,2.0916,NA,NA,NA,NA,NA,frustrated,"frustrated, not frustrated","more frustrated, less frustrated",NA,NA,NA,NA,NA,NA,NA,NA,NA,NA,NA,NA,NA,NA,NA,NA,NA,NA,NA,NA,NA,NA,NA,NA,NA,NA,NA,NA,NA,NA,NA,NA,NA,NA,NA,NA,NA,NA,0,0,0,1,1,NA,NA,NA,NA,NA
SUPAMT68034,3VP0C6EFSMV60WN59RZTXX9KA14M6H,6ABC660E-50F0-4B8B-AEB1-9359AEE2E686,2023-09-28_07h45.35.345,WP_VExplicitOC_HL,2022.2.5,Win32,16.75940202,NA,NA,2.0705,NA,NA,NA,NA,NA,happy,"unhappy, happy","less happy, more happy",NA,NA,NA,NA,NA,NA,NA,NA,NA,NA,NA,NA,NA,NA,NA,NA,NA,NA,NA,NA,NA,NA,NA,NA,NA,NA,NA,NA,NA,NA,NA,NA,NA,NA,NA,NA,NA,NA,0,1,1,0,1,NA,NA,NA,NA,NA
SUPAMT68034,3VP0C6EFSMV60WN59RZTXX9KA14M6H,6ABC660E-50F0-4B8B-AEB1-9359AEE2E686,2023-09-28_07h45.35.345,WP_VExplicitOC_HL,2022.2.5,Win32,16.75940202,NA,NA,2.0533,NA,NA,NA,NA,NA,bored,"bored, not bored","more bored, less bored",NA,NA,NA,NA,NA,NA,NA,NA,NA,NA,NA,NA,NA,NA,NA,NA,NA,NA,NA,NA,NA,NA,NA,NA,NA,NA,NA,NA,NA,NA,NA,NA,NA,NA,NA,NA,NA,NA,0,2,2,2,1,NA,NA,NA,NA,NA
SUPAMT68034,3VP0C6EFSMV60WN59RZTXX9KA14M6H,6ABC660E-50F0-4B8B-AEB1-9359AEE2E686,2023-09-28_07h45.35.345,WP_VExplicitOC_HL,2022.2.5,Win32,16.75940202,NA,NA,NA,NA,NA,NA,NA,NA,NA,NA,NA,NA,NA,NA,NA,NA,NA,NA,NA,NA,NA,NA,NA,NA,NA,NA,NA,NA,NA,NA,NA,NA,NA,NA,NA,NA,NA,NA,NA,NA,NA,NA,NA,NA,NA,NA,NA,NA,NA,NA,NA,NA,NA,NA,8,0,8,0,1
SUPAMT68034,3VP0C6EFSMV60WN59RZTXX9KA14M6H,6ABC660E-50F0-4B8B-AEB1-9359AEE2E686,2023-09-28_07h45.35.345,WP_VExplicitOC_HL,2022.2.5,Win32,16.75940202,14.0625,2.7073,2.0712,NA,NA,NA,NA,NA,frustrated,"frustrated, not frustrated","more frustrated, less frustrated",NA,NA,NA,NA,NA,NA,NA,NA,NA,NA,NA,NA,NA,NA,NA,NA,NA,NA,NA,NA,NA,NA,NA,NA,NA,NA,NA,NA,NA,NA,NA,NA,NA,NA,NA,NA,NA,NA,0,0,0,1,1,NA,NA,NA,NA,NA
SUPAMT68034,3VP0C6EFSMV60WN59RZTXX9KA14M6H,6ABC660E-50F0-4B8B-AEB1-9359AEE2E686,2023-09-28_07h45.35.345,WP_VExplicitOC_HL,2022.2.5,Win32,16.75940202,68.75,4.5656,2.0191,NA,NA,NA,NA,NA,happy,"unhappy, happy","less happy, more happy",NA,NA,NA,NA,NA,NA,NA,NA,NA,NA,NA,NA,NA,NA,NA,NA,NA,NA,NA,NA,NA,NA,NA,NA,NA,NA,NA,NA,NA,NA,NA,NA,NA,NA,NA,NA,NA,NA,0,1,1,0,1,NA,NA,NA,NA,NA
SUPAMT68034,3VP0C6EFSMV60WN59RZTXX9KA14M6H,6ABC660E-50F0-4B8B-AEB1-9359AEE2E686,2023-09-28_07h45.35.345,WP_VExplicitOC_HL,2022.2.5,Win32,16.75940202,54.94791667,3.3021,2.0017,NA,NA,NA,NA,NA,bored,"bored, not bored","more bored, less bored",NA,NA,NA,NA,NA,NA,NA,NA,NA,NA,NA,NA,NA,NA,NA,NA,NA,NA,NA,NA,NA,NA,NA,NA,NA,NA,NA,NA,NA,NA,NA,NA,NA,NA,NA,NA,NA,NA,0,2,2,2,1,NA,NA,NA,NA,NA
SUPAMT68034,3VP0C6EFSMV60WN59RZTXX9KA14M6H,6ABC660E-50F0-4B8B-AEB1-9359AEE2E686,2023-09-28_07h45.35.345,WP_VExplicitOC_HL,2022.2.5,Win32,16.75940202,NA,NA,NA,NA,NA,NA,NA,NA,NA,NA,NA,NA,NA,NA,NA,NA,NA,NA,NA,NA,NA,NA,NA,NA,NA,NA,NA,NA,NA,NA,NA,NA,NA,NA,NA,NA,NA,NA,NA,NA,NA,NA,NA,NA,NA,NA,NA,NA,NA,NA,NA,NA,NA,NA,9,0,9,0,1
SUPAMT68034,3VP0C6EFSMV60WN59RZTXX9KA14M6H,6ABC660E-50F0-4B8B-AEB1-9359AEE2E686,2023-09-28_07h45.35.345,WP_VExplicitOC_HL,2022.2.5,Win32,16.75940202,62.76041667,3.6922,2.0619,NA,NA,NA,NA,NA,frustrated,"frustrated, not frustrated","more frustrated, less frustrated",NA,NA,NA,NA,NA,NA,NA,NA,NA,NA,NA,NA,NA,NA,NA,NA,NA,NA,NA,NA,NA,NA,NA,NA,NA,NA,NA,NA,NA,NA,NA,NA,NA,NA,NA,NA,NA,NA,0,0,0,1,1,NA,NA,NA,NA,NA
SUPAMT68034,3VP0C6EFSMV60WN59RZTXX9KA14M6H,6ABC660E-50F0-4B8B-AEB1-9359AEE2E686,2023-09-28_07h45.35.345,WP_VExplicitOC_HL,2022.2.5,Win32,16.75940202,74.73958333,3.7514,2.0054,NA,NA,NA,NA,NA,happy,"unhappy, happy","less happy, more happy",NA,NA,NA,NA,NA,NA,NA,NA,NA,NA,NA,NA,NA,NA,NA,NA,NA,NA,NA,NA,NA,NA,NA,NA,NA,NA,NA,NA,NA,NA,NA,NA,NA,NA,NA,NA,NA,NA,0,1,1,0,1,NA,NA,NA,NA,NA
SUPAMT68034,3VP0C6EFSMV60WN59RZTXX9KA14M6H,6ABC660E-50F0-4B8B-AEB1-9359AEE2E686,2023-09-28_07h45.35.345,WP_VExplicitOC_HL,2022.2.5,Win32,16.75940202,85.41666667,3.2688,2.0639,NA,NA,NA,NA,NA,bored,"bored, not bored","more bored, less bored",NA,NA,NA,NA,NA,NA,NA,NA,NA,NA,NA,NA,NA,NA,NA,NA,NA,NA,NA,NA,NA,NA,NA,NA,NA,NA,NA,NA,NA,NA,NA,NA,NA,NA,NA,NA,NA,NA,0,2,2,2,1,NA,NA,NA,NA,NA
SUPAMT68034,3VP0C6EFSMV60WN59RZTXX9KA14M6H,6ABC660E-50F0-4B8B-AEB1-9359AEE2E686,2023-09-28_07h45.35.345,WP_VExplicitOC_HL,2022.2.5,Win32,16.75940202,NA,NA,NA,NA,NA,NA,NA,NA,NA,NA,NA,NA,NA,NA,NA,NA,NA,NA,NA,NA,NA,NA,NA,NA,NA,NA,NA,NA,NA,NA,NA,NA,NA,NA,NA,NA,NA,NA,NA,NA,NA,NA,NA,NA,NA,NA,NA,NA,NA,NA,NA,NA,NA,NA,10,0,10,0,1
SUPAMT68034,3VP0C6EFSMV60WN59RZTXX9KA14M6H,6ABC660E-50F0-4B8B-AEB1-9359AEE2E686,2023-09-28_07h45.35.345,WP_VExplicitOC_HL,2022.2.5,Win32,16.75940202,100,3.8767,2.0759,NA,NA,NA,NA,NA,frustrated,"frustrated, not frustrated","more frustrated, less frustrated",NA,NA,NA,NA,NA,NA,NA,NA,NA,NA,NA,NA,NA,NA,NA,NA,NA,NA,NA,NA,NA,NA,NA,NA,NA,NA,NA,NA,NA,NA,NA,NA,NA,NA,NA,NA,NA,NA,0,0,0,1,1,NA,NA,NA,NA,NA
SUPAMT68034,3VP0C6EFSMV60WN59RZTXX9KA14M6H,6ABC660E-50F0-4B8B-AEB1-9359AEE2E686,2023-09-28_07h45.35.345,WP_VExplicitOC_HL,2022.2.5,Win32,16.75940202,100,3.2537,2.0166,NA,NA,NA,NA,NA,bored,"bored, not bored","more bored, less bored",NA,NA,NA,NA,NA,NA,NA,NA,NA,NA,NA,NA,NA,NA,NA,NA,NA,NA,NA,NA,NA,NA,NA,NA,NA,NA,NA,NA,NA,NA,NA,NA,NA,NA,NA,NA,NA,NA,0,1,1,2,1,NA,NA,NA,NA,NA
SUPAMT68034,3VP0C6EFSMV60WN59RZTXX9KA14M6H,6ABC660E-50F0-4B8B-AEB1-9359AEE2E686,2023-09-28_07h45.35.345,WP_VExplicitOC_HL,2022.2.5,Win32,16.75940202,75.26041667,3.29,2.0476,NA,NA,NA,NA,NA,happy,"unhappy, happy","less happy, more happy",NA,NA,NA,NA,NA,NA,NA,NA,NA,NA,NA,NA,NA,NA,NA,NA,NA,NA,NA,NA,NA,NA,NA,NA,NA,NA,NA,NA,NA,NA,NA,NA,NA,NA,NA,NA,NA,NA,0,2,2,0,1,NA,NA,NA,NA,NA
SUPAMT68034,3VP0C6EFSMV60WN59RZTXX9KA14M6H,6ABC660E-50F0-4B8B-AEB1-9359AEE2E686,2023-09-28_07h45.35.345,WP_VExplicitOC_HL,2022.2.5,Win32,16.75940202,NA,NA,NA,NA,NA,NA,NA,NA,NA,NA,NA,NA,NA,NA,NA,NA,NA,NA,NA,NA,NA,NA,NA,NA,NA,NA,NA,NA,NA,NA,NA,NA,NA,NA,NA,NA,NA,NA,NA,NA,NA,NA,NA,NA,NA,NA,NA,NA,NA,NA,NA,NA,NA,NA,11,0,11,0,1
SUPAMT68034,3VP0C6EFSMV60WN59RZTXX9KA14M6H,6ABC660E-50F0-4B8B-AEB1-9359AEE2E686,2023-09-28_07h45.35.345,WP_VExplicitOC_HL,2022.2.5,Win32,16.75940202,53.125,3.5087,2.0737,NA,NA,NA,NA,NA,bored,"bored, not bored","more bored, less bored",NA,NA,NA,NA,NA,NA,NA,NA,NA,NA,NA,NA,NA,NA,NA,NA,NA,NA,NA,NA,NA,NA,NA,NA,NA,NA,NA,NA,NA,NA,NA,NA,NA,NA,NA,NA,NA,NA,0,0,0,2,1,NA,NA,NA,NA,NA
SUPAMT68034,3VP0C6EFSMV60WN59RZTXX9KA14M6H,6ABC660E-50F0-4B8B-AEB1-9359AEE2E686,2023-09-28_07h45.35.345,WP_VExplicitOC_HL,2022.2.5,Win32,16.75940202,49.21875,3.2266,2.0621,NA,NA,NA,NA,NA,frustrated,"frustrated, not frustrated","more frustrated, less frustrated",NA,NA,NA,NA,NA,NA,NA,NA,NA,NA,NA,NA,NA,NA,NA,NA,NA,NA,NA,NA,NA,NA,NA,NA,NA,NA,NA,NA,NA,NA,NA,NA,NA,NA,NA,NA,NA,NA,0,1,1,1,1,NA,NA,NA,NA,NA
SUPAMT68034,3VP0C6EFSMV60WN59RZTXX9KA14M6H,6ABC660E-50F0-4B8B-AEB1-9359AEE2E686,2023-09-28_07h45.35.345,WP_VExplicitOC_HL,2022.2.5,Win32,16.75940202,74.73958333,3.4848,2.0466,NA,NA,NA,NA,NA,happy,"unhappy, happy","less happy, more happy",NA,NA,NA,NA,NA,NA,NA,NA,NA,NA,NA,NA,NA,NA,NA,NA,NA,NA,NA,NA,NA,NA,NA,NA,NA,NA,NA,NA,NA,NA,NA,NA,NA,NA,NA,NA,NA,NA,0,2,2,0,1,NA,NA,NA,NA,NA
SUPAMT68034,3VP0C6EFSMV60WN59RZTXX9KA14M6H,6ABC660E-50F0-4B8B-AEB1-9359AEE2E686,2023-09-28_07h45.35.345,WP_VExplicitOC_HL,2022.2.5,Win32,16.75940202,NA,NA,NA,NA,NA,NA,NA,NA,NA,NA,NA,NA,NA,NA,NA,NA,NA,NA,NA,NA,NA,NA,NA,NA,NA,NA,NA,NA,NA,NA,NA,NA,NA,NA,NA,NA,NA,NA,NA,NA,NA,NA,NA,NA,NA,NA,NA,NA,NA,NA,NA,NA,NA,NA,12,0,12,0,1
SUPAMT68034,3VP0C6EFSMV60WN59RZTXX9KA14M6H,6ABC660E-50F0-4B8B-AEB1-9359AEE2E686,2023-09-28_07h45.35.345,WP_VExplicitOC_HL,2022.2.5,Win32,16.75940202,96.35416667,4.1183,2.0863,NA,NA,NA,NA,NA,bored,"bored, not bored","more bored, less bored",NA,NA,NA,NA,NA,NA,NA,NA,NA,NA,NA,NA,NA,NA,NA,NA,NA,NA,NA,NA,NA,NA,NA,NA,NA,NA,NA,NA,NA,NA,NA,NA,NA,NA,NA,NA,NA,NA,0,0,0,2,1,NA,NA,NA,NA,NA
SUPAMT68034,3VP0C6EFSMV60WN59RZTXX9KA14M6H,6ABC660E-50F0-4B8B-AEB1-9359AEE2E686,2023-09-28_07h45.35.345,WP_VExplicitOC_HL,2022.2.5,Win32,16.75940202,63.02083333,4.1069,2.0691,NA,NA,NA,NA,NA,frustrated,"frustrated, not frustrated","more frustrated, less frustrated",NA,NA,NA,NA,NA,NA,NA,NA,NA,NA,NA,NA,NA,NA,NA,NA,NA,NA,NA,NA,NA,NA,NA,NA,NA,NA,NA,NA,NA,NA,NA,NA,NA,NA,NA,NA,NA,NA,0,1,1,1,1,NA,NA,NA,NA,NA
SUPAMT68034,3VP0C6EFSMV60WN59RZTXX9KA14M6H,6ABC660E-50F0-4B8B-AEB1-9359AEE2E686,2023-09-28_07h45.35.345,WP_VExplicitOC_HL,2022.2.5,Win32,16.75940202,62.5,4.4762,2.0787,NA,NA,NA,NA,NA,happy,"unhappy, happy","less happy, more happy",NA,NA,NA,NA,NA,NA,NA,NA,NA,NA,NA,NA,NA,NA,NA,NA,NA,NA,NA,NA,NA,NA,NA,NA,NA,NA,NA,NA,NA,NA,NA,NA,NA,NA,NA,NA,NA,NA,0,2,2,0,1,NA,NA,NA,NA,NA
SUPAMT68034,3VP0C6EFSMV60WN59RZTXX9KA14M6H,6ABC660E-50F0-4B8B-AEB1-9359AEE2E686,2023-09-28_07h45.35.345,WP_VExplicitOC_HL,2022.2.5,Win32,16.75940202,NA,NA,NA,NA,NA,NA,NA,NA,NA,NA,NA,NA,NA,NA,NA,NA,NA,NA,NA,NA,NA,NA,NA,NA,NA,NA,NA,NA,NA,NA,NA,NA,NA,NA,NA,NA,NA,NA,NA,NA,NA,NA,NA,NA,NA,NA,NA,NA,NA,NA,NA,NA,NA,NA,13,0,13,0,1
SUPAMT68034,3VP0C6EFSMV60WN59RZTXX9KA14M6H,6ABC660E-50F0-4B8B-AEB1-9359AEE2E686,2023-09-28_07h45.35.345,WP_VExplicitOC_HL,2022.2.5,Win32,16.75940202,NA,NA,2.0634,NA,NA,NA,NA,NA,happy,"unhappy, happy","less happy, more happy",NA,NA,NA,NA,NA,NA,NA,NA,NA,NA,NA,NA,NA,NA,NA,NA,NA,NA,NA,NA,NA,NA,NA,NA,NA,NA,NA,NA,NA,NA,NA,NA,NA,NA,NA,NA,NA,NA,0,0,0,0,1,NA,NA,NA,NA,NA
SUPAMT68034,3VP0C6EFSMV60WN59RZTXX9KA14M6H,6ABC660E-50F0-4B8B-AEB1-9359AEE2E686,2023-09-28_07h45.35.345,WP_VExplicitOC_HL,2022.2.5,Win32,16.75940202,91.14583333,3.1942,2.0369,NA,NA,NA,NA,NA,bored,"bored, not bored","more bored, less bored",NA,NA,NA,NA,NA,NA,NA,NA,NA,NA,NA,NA,NA,NA,NA,NA,NA,NA,NA,NA,NA,NA,NA,NA,NA,NA,NA,NA,NA,NA,NA,NA,NA,NA,NA,NA,NA,NA,0,1,1,2,1,NA,NA,NA,NA,NA
SUPAMT68034,3VP0C6EFSMV60WN59RZTXX9KA14M6H,6ABC660E-50F0-4B8B-AEB1-9359AEE2E686,2023-09-28_07h45.35.345,WP_VExplicitOC_HL,2022.2.5,Win32,16.75940202,91.66666667,3.208,2.0732,NA,NA,NA,NA,NA,frustrated,"frustrated, not frustrated","more frustrated, less frustrated",NA,NA,NA,NA,NA,NA,NA,NA,NA,NA,NA,NA,NA,NA,NA,NA,NA,NA,NA,NA,NA,NA,NA,NA,NA,NA,NA,NA,NA,NA,NA,NA,NA,NA,NA,NA,NA,NA,0,2,2,1,1,NA,NA,NA,NA,NA
SUPAMT68034,3VP0C6EFSMV60WN59RZTXX9KA14M6H,6ABC660E-50F0-4B8B-AEB1-9359AEE2E686,2023-09-28_07h45.35.345,WP_VExplicitOC_HL,2022.2.5,Win32,16.75940202,NA,NA,NA,NA,NA,NA,NA,NA,NA,NA,NA,NA,NA,NA,NA,NA,NA,NA,NA,NA,NA,NA,NA,NA,NA,NA,NA,NA,NA,NA,NA,NA,NA,NA,NA,NA,NA,NA,NA,NA,NA,NA,NA,NA,NA,NA,NA,NA,NA,NA,NA,NA,NA,NA,14,0,14,0,1
SUPAMT68034,3VP0C6EFSMV60WN59RZTXX9KA14M6H,6ABC660E-50F0-4B8B-AEB1-9359AEE2E686,2023-09-28_07h45.35.345,WP_VExplicitOC_HL,2022.2.5,Win32,16.75940202,NA,NA,NA,NA,NA,NA,NA,NA,NA,NA,NA,NA,NA,NA,NA,NA,NA,NA,NA,NA,NA,NA,NA,NA,NA,NA,NA,NA,NA,NA,NA,NA,NA,NA,NA,NA,NA,NA,NA,NA,NA,NA,NA,NA,NA,NA,NA,NA,NA,NA,NA,NA,NA,NA,NA,NA,NA,NA,NA
