participant,session,completion,date,expName,psychopyVersion,OS,frameRate,rating_all.response,rating_all.rt,rating_all.tStart,rndRat1.thisRepN,rndRat1.thisTrialN,rndRat1.thisN,rndRat1.thisIndex,rndRat1.ran,Emo,Labs,Labs2,rating_alt.response,rating_alt.rt,AltC.thisRepN,AltC.thisTrialN,AltC.thisN,AltC.thisIndex,AltC.ran,alt_choices,pic_choices,BottomAlt_Choice,rndRat2.thisRepN,rndRat2.thisTrialN,rndRat2.thisN,rndRat2.thisIndex,rndRat2.ran,rndRat3.thisRepN,rndRat3.thisTrialN,rndRat3.thisN,rndRat3.thisIndex,rndRat3.ran,trials_FC_L.thisRepN,trials_FC_L.thisTrialN,trials_FC_L.thisN,trials_FC_L.thisIndex,trials_FC_L.ran,rating_alt_2.response,rating_alt_2.rt,AltC2.thisRepN,AltC2.thisTrialN,AltC2.thisN,AltC2.thisIndex,AltC2.ran,TopAlt_Choice,rndRat4.thisRepN,rndRat4.thisTrialN,rndRat4.thisN,rndRat4.thisIndex,rndRat4.ran,rndRat5.thisRepN,rndRat5.thisTrialN,rndRat5.thisN,rndRat5.thisIndex,rndRat5.ran,trials_FC_H.thisRepN,trials_FC_H.thisTrialN,trials_FC_H.thisN,trials_FC_H.thisIndex,trials_FC_H.ran
SUPAMT65935,336YQZE831DAHSNR48PO5RVKDSXM5C,B16B35FA-9ADD-4F27-8DFB-D72670E79B4C,2023-09-26_05h52.23.405,WP_VExplicitOC_LH,2022.2.5,Win32,20.98283604,NA,NA,NA,NA,NA,NA,NA,NA,NA,NA,NA,NA,NA,NA,NA,NA,NA,NA,NA,NA,NA,NA,NA,NA,NA,NA,NA,NA,NA,NA,NA,NA,NA,NA,NA,NA,NA,NA,NA,NA,NA,NA,NA,NA,NA,NA,NA,NA,NA,NA,NA,NA,NA,NA,NA,NA,NA,NA,NA
SUPAMT65935,336YQZE831DAHSNR48PO5RVKDSXM5C,B16B35FA-9ADD-4F27-8DFB-D72670E79B4C,2023-09-26_05h52.23.405,WP_VExplicitOC_LH,2022.2.5,Win32,20.98283604,NA,NA,NA,NA,NA,NA,NA,NA,NA,NA,NA,NA,NA,NA,NA,NA,NA,NA,NA,NA,NA,NA,NA,NA,NA,NA,NA,NA,NA,NA,NA,NA,NA,NA,NA,NA,NA,NA,NA,NA,NA,NA,NA,NA,NA,NA,NA,NA,NA,NA,NA,NA,NA,NA,NA,NA,NA,NA,NA
SUPAMT65935,336YQZE831DAHSNR48PO5RVKDSXM5C,B16B35FA-9ADD-4F27-8DFB-D72670E79B4C,2023-09-26_05h52.23.405,WP_VExplicitOC_LH,2022.2.5,Win32,20.98283604,NA,NA,NA,NA,NA,NA,NA,NA,NA,NA,NA,NA,NA,NA,NA,NA,NA,NA,NA,NA,NA,NA,NA,NA,NA,NA,NA,NA,NA,NA,NA,NA,NA,NA,NA,NA,NA,NA,NA,NA,NA,NA,NA,NA,NA,NA,NA,NA,NA,NA,NA,NA,NA,NA,NA,NA,NA,NA,NA
SUPAMT65935,336YQZE831DAHSNR48PO5RVKDSXM5C,B16B35FA-9ADD-4F27-8DFB-D72670E79B4C,2023-09-26_05h52.23.405,WP_VExplicitOC_LH,2022.2.5,Win32,20.98283604,58.5,3.706099999,2.033200001,0,0,0,1,1,frustrated,"frustrated, not frustrated","more frustrated, less frustrated",NA,NA,NA,NA,NA,NA,NA,NA,NA,NA,NA,NA,NA,NA,NA,NA,NA,NA,NA,NA,NA,NA,NA,NA,NA,NA,NA,NA,NA,NA,NA,NA,NA,NA,NA,NA,NA,NA,NA,NA,NA,NA,NA,NA,NA,NA,NA,NA
SUPAMT65935,336YQZE831DAHSNR48PO5RVKDSXM5C,B16B35FA-9ADD-4F27-8DFB-D72670E79B4C,2023-09-26_05h52.23.405,WP_VExplicitOC_LH,2022.2.5,Win32,20.98283604,-87.5,3.954900001,2.0518,0,1,1,0,1,happy,"unhappy, happy","less happy, more happy",NA,NA,NA,NA,NA,NA,NA,NA,NA,NA,NA,NA,NA,NA,NA,NA,NA,NA,NA,NA,NA,NA,NA,NA,NA,NA,NA,NA,NA,NA,NA,NA,NA,NA,NA,NA,NA,NA,NA,NA,NA,NA,NA,NA,NA,NA,NA,NA
SUPAMT65935,336YQZE831DAHSNR48PO5RVKDSXM5C,B16B35FA-9ADD-4F27-8DFB-D72670E79B4C,2023-09-26_05h52.23.405,WP_VExplicitOC_LH,2022.2.5,Win32,20.98283604,61.5,4.755,2.0048,0,2,2,2,1,bored,"bored, not bored","more bored, less bored",NA,NA,NA,NA,NA,NA,NA,NA,NA,NA,NA,NA,NA,NA,NA,NA,NA,NA,NA,NA,NA,NA,NA,NA,NA,NA,NA,NA,NA,NA,NA,NA,NA,NA,NA,NA,NA,NA,NA,NA,NA,NA,NA,NA,NA,NA,NA,NA
SUPAMT65935,336YQZE831DAHSNR48PO5RVKDSXM5C,B16B35FA-9ADD-4F27-8DFB-D72670E79B4C,2023-09-26_05h52.23.405,WP_VExplicitOC_LH,2022.2.5,Win32,20.98283604,NA,NA,NA,NA,NA,NA,NA,NA,NA,NA,NA,NA,NA,NA,NA,NA,NA,NA,NA,NA,NA,NA,NA,NA,NA,NA,NA,NA,NA,NA,NA,NA,NA,NA,NA,NA,NA,NA,NA,NA,NA,NA,NA,NA,NA,NA,NA,NA,NA,NA,NA,NA,NA,NA,NA,NA,NA,NA,NA
SUPAMT65935,336YQZE831DAHSNR48PO5RVKDSXM5C,B16B35FA-9ADD-4F27-8DFB-D72670E79B4C,2023-09-26_05h52.23.405,WP_VExplicitOC_LH,2022.2.5,Win32,20.98283604,NA,NA,NA,NA,NA,NA,NA,NA,NA,NA,NA,NA,NA,NA,NA,NA,NA,NA,NA,NA,NA,NA,NA,NA,NA,NA,NA,NA,NA,NA,NA,NA,NA,NA,NA,NA,NA,NA,NA,NA,NA,NA,NA,NA,NA,NA,NA,NA,NA,NA,NA,NA,NA,NA,NA,NA,NA,NA,NA
SUPAMT65935,336YQZE831DAHSNR48PO5RVKDSXM5C,B16B35FA-9ADD-4F27-8DFB-D72670E79B4C,2023-09-26_05h52.23.405,WP_VExplicitOC_LH,2022.2.5,Win32,20.98283604,NA,NA,NA,NA,NA,NA,NA,NA,NA,NA,NA,NA,NA,NA,NA,NA,NA,NA,NA,NA,NA,NA,NA,NA,NA,NA,NA,NA,NA,NA,NA,NA,NA,NA,NA,NA,NA,NA,NA,NA,NA,NA,NA,NA,NA,NA,NA,NA,NA,NA,NA,NA,NA,NA,NA,NA,NA,NA,NA
SUPAMT65935,336YQZE831DAHSNR48PO5RVKDSXM5C,B16B35FA-9ADD-4F27-8DFB-D72670E79B4C,2023-09-26_05h52.23.405,WP_VExplicitOC_LH,2022.2.5,Win32,20.98283604,NA,NA,NA,NA,NA,NA,NA,NA,NA,NA,NA,NA,NA,NA,NA,NA,NA,NA,NA,NA,NA,NA,NA,NA,NA,NA,NA,NA,NA,NA,NA,NA,NA,NA,NA,NA,NA,NA,NA,NA,NA,NA,NA,NA,NA,NA,NA,NA,NA,NA,NA,NA,NA,NA,NA,NA,NA,NA,NA
SUPAMT65935,336YQZE831DAHSNR48PO5RVKDSXM5C,B16B35FA-9ADD-4F27-8DFB-D72670E79B4C,2023-09-26_05h52.23.405,WP_VExplicitOC_LH,2022.2.5,Win32,20.98283604,NA,NA,NA,NA,NA,NA,NA,NA,NA,NA,NA,58.5,2.262599999,0,0,0,0,1,rest (looking at a fixed cross),001.png,NA,NA,NA,NA,NA,NA,NA,NA,NA,NA,NA,NA,NA,NA,NA,NA,NA,NA,NA,NA,NA,NA,NA,NA,NA,NA,NA,NA,NA,NA,NA,NA,NA,NA,NA,NA,NA,NA,NA
SUPAMT65935,336YQZE831DAHSNR48PO5RVKDSXM5C,B16B35FA-9ADD-4F27-8DFB-D72670E79B4C,2023-09-26_05h52.23.405,WP_VExplicitOC_LH,2022.2.5,Win32,20.98283604,NA,NA,NA,NA,NA,NA,NA,NA,NA,NA,NA,42.5,2.394299999,0,1,1,1,1,stand up,002.png,NA,NA,NA,NA,NA,NA,NA,NA,NA,NA,NA,NA,NA,NA,NA,NA,NA,NA,NA,NA,NA,NA,NA,NA,NA,NA,NA,NA,NA,NA,NA,NA,NA,NA,NA,NA,NA,NA,NA
SUPAMT65935,336YQZE831DAHSNR48PO5RVKDSXM5C,B16B35FA-9ADD-4F27-8DFB-D72670E79B4C,2023-09-26_05h52.23.405,WP_VExplicitOC_LH,2022.2.5,Win32,20.98283604,NA,NA,NA,NA,NA,NA,NA,NA,NA,NA,NA,49,1.1914,0,2,2,2,1,stretch,003.png,NA,NA,NA,NA,NA,NA,NA,NA,NA,NA,NA,NA,NA,NA,NA,NA,NA,NA,NA,NA,NA,NA,NA,NA,NA,NA,NA,NA,NA,NA,NA,NA,NA,NA,NA,NA,NA,NA,NA
SUPAMT65935,336YQZE831DAHSNR48PO5RVKDSXM5C,B16B35FA-9ADD-4F27-8DFB-D72670E79B4C,2023-09-26_05h52.23.405,WP_VExplicitOC_LH,2022.2.5,Win32,20.98283604,NA,NA,NA,NA,NA,NA,NA,NA,NA,NA,NA,36.75,1.6085,0,3,3,3,1,make a drink,004.png,NA,NA,NA,NA,NA,NA,NA,NA,NA,NA,NA,NA,NA,NA,NA,NA,NA,NA,NA,NA,NA,NA,NA,NA,NA,NA,NA,NA,NA,NA,NA,NA,NA,NA,NA,NA,NA,NA,NA
SUPAMT65935,336YQZE831DAHSNR48PO5RVKDSXM5C,B16B35FA-9ADD-4F27-8DFB-D72670E79B4C,2023-09-26_05h52.23.405,WP_VExplicitOC_LH,2022.2.5,Win32,20.98283604,NA,NA,NA,NA,NA,NA,NA,NA,NA,NA,NA,71.5,1.4916,0,4,4,4,1,scroll social media,005.png,NA,NA,NA,NA,NA,NA,NA,NA,NA,NA,NA,NA,NA,NA,NA,NA,NA,NA,NA,NA,NA,NA,NA,NA,NA,NA,NA,NA,NA,NA,NA,NA,NA,NA,NA,NA,NA,NA,NA
SUPAMT65935,336YQZE831DAHSNR48PO5RVKDSXM5C,B16B35FA-9ADD-4F27-8DFB-D72670E79B4C,2023-09-26_05h52.23.405,WP_VExplicitOC_LH,2022.2.5,Win32,20.98283604,NA,NA,NA,NA,NA,NA,NA,NA,NA,NA,NA,65.5,1.0396,0,5,5,5,1,listen to music,006.png,NA,NA,NA,NA,NA,NA,NA,NA,NA,NA,NA,NA,NA,NA,NA,NA,NA,NA,NA,NA,NA,NA,NA,NA,NA,NA,NA,NA,NA,NA,NA,NA,NA,NA,NA,NA,NA,NA,NA
SUPAMT65935,336YQZE831DAHSNR48PO5RVKDSXM5C,B16B35FA-9ADD-4F27-8DFB-D72670E79B4C,2023-09-26_05h52.23.405,WP_VExplicitOC_LH,2022.2.5,Win32,20.98283604,NA,NA,NA,NA,NA,NA,NA,NA,NA,NA,NA,26.75,0.9893,0,6,6,6,1,daydream,007.png,NA,NA,NA,NA,NA,NA,NA,NA,NA,NA,NA,NA,NA,NA,NA,NA,NA,NA,NA,NA,NA,NA,NA,NA,NA,NA,NA,NA,NA,NA,NA,NA,NA,NA,NA,NA,NA,NA,NA
SUPAMT65935,336YQZE831DAHSNR48PO5RVKDSXM5C,B16B35FA-9ADD-4F27-8DFB-D72670E79B4C,2023-09-26_05h52.23.405,WP_VExplicitOC_LH,2022.2.5,Win32,20.98283604,NA,NA,NA,NA,NA,NA,NA,NA,NA,NA,NA,46.25,0.8291,0,7,7,7,1,watch a short animation,008.png,NA,NA,NA,NA,NA,NA,NA,NA,NA,NA,NA,NA,NA,NA,NA,NA,NA,NA,NA,NA,NA,NA,NA,NA,NA,NA,NA,NA,NA,NA,NA,NA,NA,NA,NA,NA,NA,NA,NA
SUPAMT65935,336YQZE831DAHSNR48PO5RVKDSXM5C,B16B35FA-9ADD-4F27-8DFB-D72670E79B4C,2023-09-26_05h52.23.405,WP_VExplicitOC_LH,2022.2.5,Win32,20.98283604,NA,NA,NA,NA,NA,NA,NA,NA,NA,NA,NA,56.25,1.0525,0,8,8,8,1,read a novel,009.png,NA,NA,NA,NA,NA,NA,NA,NA,NA,NA,NA,NA,NA,NA,NA,NA,NA,NA,NA,NA,NA,NA,NA,NA,NA,NA,NA,NA,NA,NA,NA,NA,NA,NA,NA,NA,NA,NA,NA
SUPAMT65935,336YQZE831DAHSNR48PO5RVKDSXM5C,B16B35FA-9ADD-4F27-8DFB-D72670E79B4C,2023-09-26_05h52.23.405,WP_VExplicitOC_LH,2022.2.5,Win32,20.98283604,NA,NA,NA,NA,NA,NA,NA,NA,NA,NA,NA,55.75,0.9021,0,9,9,9,1,read the news,010.png,NA,NA,NA,NA,NA,NA,NA,NA,NA,NA,NA,NA,NA,NA,NA,NA,NA,NA,NA,NA,NA,NA,NA,NA,NA,NA,NA,NA,NA,NA,NA,NA,NA,NA,NA,NA,NA,NA,NA
SUPAMT65935,336YQZE831DAHSNR48PO5RVKDSXM5C,B16B35FA-9ADD-4F27-8DFB-D72670E79B4C,2023-09-26_05h52.23.405,WP_VExplicitOC_LH,2022.2.5,Win32,20.98283604,NA,NA,NA,NA,NA,NA,NA,NA,NA,NA,NA,NA,NA,NA,NA,NA,NA,NA,NA,NA,NA,NA,NA,NA,NA,NA,NA,NA,NA,NA,NA,NA,NA,NA,NA,NA,NA,NA,NA,NA,NA,NA,NA,NA,NA,NA,NA,NA,NA,NA,NA,NA,NA,NA,NA,NA,NA,NA,NA
SUPAMT65935,336YQZE831DAHSNR48PO5RVKDSXM5C,B16B35FA-9ADD-4F27-8DFB-D72670E79B4C,2023-09-26_05h52.23.405,WP_VExplicitOC_LH,2022.2.5,Win32,20.98283604,NA,NA,NA,NA,NA,NA,NA,NA,NA,NA,NA,NA,NA,NA,NA,NA,NA,NA,NA,NA,daydream,NA,NA,NA,NA,NA,NA,NA,NA,NA,NA,NA,NA,NA,NA,NA,NA,NA,NA,NA,NA,NA,NA,NA,NA,NA,NA,NA,NA,NA,NA,NA,NA,NA,NA,NA,NA,NA,NA
SUPAMT65935,336YQZE831DAHSNR48PO5RVKDSXM5C,B16B35FA-9ADD-4F27-8DFB-D72670E79B4C,2023-09-26_05h52.23.405,WP_VExplicitOC_LH,2022.2.5,Win32,20.98283604,99,5.921900001,2.0566,NA,NA,NA,NA,NA,bored,"bored, not bored","more bored, less bored",NA,NA,NA,NA,NA,NA,NA,NA,NA,NA,0,0,0,2,1,NA,NA,NA,NA,NA,NA,NA,NA,NA,NA,NA,NA,NA,NA,NA,NA,NA,NA,NA,NA,NA,NA,NA,NA,NA,NA,NA,NA,NA,NA,NA,NA,NA
SUPAMT65935,336YQZE831DAHSNR48PO5RVKDSXM5C,B16B35FA-9ADD-4F27-8DFB-D72670E79B4C,2023-09-26_05h52.23.405,WP_VExplicitOC_LH,2022.2.5,Win32,20.98283604,95.75,4.1295,2.0127,NA,NA,NA,NA,NA,happy,"unhappy, happy","less happy, more happy",NA,NA,NA,NA,NA,NA,NA,NA,NA,NA,0,1,1,0,1,NA,NA,NA,NA,NA,NA,NA,NA,NA,NA,NA,NA,NA,NA,NA,NA,NA,NA,NA,NA,NA,NA,NA,NA,NA,NA,NA,NA,NA,NA,NA,NA,NA
SUPAMT65935,336YQZE831DAHSNR48PO5RVKDSXM5C,B16B35FA-9ADD-4F27-8DFB-D72670E79B4C,2023-09-26_05h52.23.405,WP_VExplicitOC_LH,2022.2.5,Win32,20.98283604,57,5.2409,2.061799999,NA,NA,NA,NA,NA,frustrated,"frustrated, not frustrated","more frustrated, less frustrated",NA,NA,NA,NA,NA,NA,NA,NA,NA,NA,0,2,2,1,1,NA,NA,NA,NA,NA,NA,NA,NA,NA,NA,NA,NA,NA,NA,NA,NA,NA,NA,NA,NA,NA,NA,NA,NA,NA,NA,NA,NA,NA,NA,NA,NA,NA
SUPAMT65935,336YQZE831DAHSNR48PO5RVKDSXM5C,B16B35FA-9ADD-4F27-8DFB-D72670E79B4C,2023-09-26_05h52.23.405,WP_VExplicitOC_LH,2022.2.5,Win32,20.98283604,NA,NA,NA,NA,NA,NA,NA,NA,NA,NA,NA,NA,NA,NA,NA,NA,NA,NA,NA,NA,NA,NA,NA,NA,NA,NA,NA,NA,NA,NA,NA,NA,NA,NA,NA,NA,NA,NA,NA,NA,NA,NA,NA,NA,NA,NA,NA,NA,NA,NA,NA,NA,NA,NA,NA,NA,NA,NA,NA
SUPAMT65935,336YQZE831DAHSNR48PO5RVKDSXM5C,B16B35FA-9ADD-4F27-8DFB-D72670E79B4C,2023-09-26_05h52.23.405,WP_VExplicitOC_LH,2022.2.5,Win32,20.98283604,NA,NA,NA,NA,NA,NA,NA,NA,NA,NA,NA,NA,NA,NA,NA,NA,NA,NA,NA,NA,NA,NA,NA,NA,NA,NA,NA,NA,NA,NA,NA,NA,NA,NA,NA,NA,NA,NA,NA,NA,NA,NA,NA,NA,NA,NA,NA,NA,NA,NA,NA,NA,NA,NA,NA,NA,NA,NA,NA
SUPAMT65935,336YQZE831DAHSNR48PO5RVKDSXM5C,B16B35FA-9ADD-4F27-8DFB-D72670E79B4C,2023-09-26_05h52.23.405,WP_VExplicitOC_LH,2022.2.5,Win32,20.98283604,97.25,4.054599999,2.058,NA,NA,NA,NA,NA,bored,"bored, not bored","more bored, less bored",NA,NA,NA,NA,NA,NA,NA,NA,NA,NA,NA,NA,NA,NA,NA,0,0,0,2,1,NA,NA,NA,NA,NA,NA,NA,NA,NA,NA,NA,NA,NA,NA,NA,NA,NA,NA,NA,NA,NA,NA,NA,NA,NA,NA,NA,NA
SUPAMT65935,336YQZE831DAHSNR48PO5RVKDSXM5C,B16B35FA-9ADD-4F27-8DFB-D72670E79B4C,2023-09-26_05h52.23.405,WP_VExplicitOC_LH,2022.2.5,Win32,20.98283604,99,4.1441,2.029599999,NA,NA,NA,NA,NA,happy,"unhappy, happy","less happy, more happy",NA,NA,NA,NA,NA,NA,NA,NA,NA,NA,NA,NA,NA,NA,NA,0,1,1,0,1,NA,NA,NA,NA,NA,NA,NA,NA,NA,NA,NA,NA,NA,NA,NA,NA,NA,NA,NA,NA,NA,NA,NA,NA,NA,NA,NA,NA
SUPAMT65935,336YQZE831DAHSNR48PO5RVKDSXM5C,B16B35FA-9ADD-4F27-8DFB-D72670E79B4C,2023-09-26_05h52.23.405,WP_VExplicitOC_LH,2022.2.5,Win32,20.98283604,66.25,3.441,2.004900001,NA,NA,NA,NA,NA,frustrated,"frustrated, not frustrated","more frustrated, less frustrated",NA,NA,NA,NA,NA,NA,NA,NA,NA,NA,NA,NA,NA,NA,NA,0,2,2,1,1,NA,NA,NA,NA,NA,NA,NA,NA,NA,NA,NA,NA,NA,NA,NA,NA,NA,NA,NA,NA,NA,NA,NA,NA,NA,NA,NA,NA
SUPAMT65935,336YQZE831DAHSNR48PO5RVKDSXM5C,B16B35FA-9ADD-4F27-8DFB-D72670E79B4C,2023-09-26_05h52.23.405,WP_VExplicitOC_LH,2022.2.5,Win32,20.98283604,NA,NA,NA,NA,NA,NA,NA,NA,NA,NA,NA,NA,NA,NA,NA,NA,NA,NA,NA,NA,NA,NA,NA,NA,NA,NA,NA,NA,NA,NA,NA,0,0,0,0,1,NA,NA,NA,NA,NA,NA,NA,NA,NA,NA,NA,NA,NA,NA,NA,NA,NA,NA,NA,NA,NA,NA,NA
SUPAMT65935,336YQZE831DAHSNR48PO5RVKDSXM5C,B16B35FA-9ADD-4F27-8DFB-D72670E79B4C,2023-09-26_05h52.23.405,WP_VExplicitOC_LH,2022.2.5,Win32,20.98283604,98,4.3372,2.0726,NA,NA,NA,NA,NA,frustrated,"frustrated, not frustrated","more frustrated, less frustrated",NA,NA,NA,NA,NA,NA,NA,NA,NA,NA,NA,NA,NA,NA,NA,0,0,0,1,1,NA,NA,NA,NA,NA,NA,NA,NA,NA,NA,NA,NA,NA,NA,NA,NA,NA,NA,NA,NA,NA,NA,NA,NA,NA,NA,NA,NA
SUPAMT65935,336YQZE831DAHSNR48PO5RVKDSXM5C,B16B35FA-9ADD-4F27-8DFB-D72670E79B4C,2023-09-26_05h52.23.405,WP_VExplicitOC_LH,2022.2.5,Win32,20.98283604,96.25,4.384200001,2.0695,NA,NA,NA,NA,NA,bored,"bored, not bored","more bored, less bored",NA,NA,NA,NA,NA,NA,NA,NA,NA,NA,NA,NA,NA,NA,NA,0,1,1,2,1,NA,NA,NA,NA,NA,NA,NA,NA,NA,NA,NA,NA,NA,NA,NA,NA,NA,NA,NA,NA,NA,NA,NA,NA,NA,NA,NA,NA
SUPAMT65935,336YQZE831DAHSNR48PO5RVKDSXM5C,B16B35FA-9ADD-4F27-8DFB-D72670E79B4C,2023-09-26_05h52.23.405,WP_VExplicitOC_LH,2022.2.5,Win32,20.98283604,97.75,2.946299999,2.053099999,NA,NA,NA,NA,NA,happy,"unhappy, happy","less happy, more happy",NA,NA,NA,NA,NA,NA,NA,NA,NA,NA,NA,NA,NA,NA,NA,0,2,2,0,1,NA,NA,NA,NA,NA,NA,NA,NA,NA,NA,NA,NA,NA,NA,NA,NA,NA,NA,NA,NA,NA,NA,NA,NA,NA,NA,NA,NA
SUPAMT65935,336YQZE831DAHSNR48PO5RVKDSXM5C,B16B35FA-9ADD-4F27-8DFB-D72670E79B4C,2023-09-26_05h52.23.405,WP_VExplicitOC_LH,2022.2.5,Win32,20.98283604,NA,NA,NA,NA,NA,NA,NA,NA,NA,NA,NA,NA,NA,NA,NA,NA,NA,NA,NA,NA,NA,NA,NA,NA,NA,NA,NA,NA,NA,NA,NA,1,0,1,0,1,NA,NA,NA,NA,NA,NA,NA,NA,NA,NA,NA,NA,NA,NA,NA,NA,NA,NA,NA,NA,NA,NA,NA
SUPAMT65935,336YQZE831DAHSNR48PO5RVKDSXM5C,B16B35FA-9ADD-4F27-8DFB-D72670E79B4C,2023-09-26_05h52.23.405,WP_VExplicitOC_LH,2022.2.5,Win32,20.98283604,97.25,3.594799999,2.0521,NA,NA,NA,NA,NA,happy,"unhappy, happy","less happy, more happy",NA,NA,NA,NA,NA,NA,NA,NA,NA,NA,NA,NA,NA,NA,NA,0,0,0,0,1,NA,NA,NA,NA,NA,NA,NA,NA,NA,NA,NA,NA,NA,NA,NA,NA,NA,NA,NA,NA,NA,NA,NA,NA,NA,NA,NA,NA
SUPAMT65935,336YQZE831DAHSNR48PO5RVKDSXM5C,B16B35FA-9ADD-4F27-8DFB-D72670E79B4C,2023-09-26_05h52.23.405,WP_VExplicitOC_LH,2022.2.5,Win32,20.98283604,99.25,4.9799,2.0087,NA,NA,NA,NA,NA,frustrated,"frustrated, not frustrated","more frustrated, less frustrated",NA,NA,NA,NA,NA,NA,NA,NA,NA,NA,NA,NA,NA,NA,NA,0,1,1,1,1,NA,NA,NA,NA,NA,NA,NA,NA,NA,NA,NA,NA,NA,NA,NA,NA,NA,NA,NA,NA,NA,NA,NA,NA,NA,NA,NA,NA
SUPAMT65935,336YQZE831DAHSNR48PO5RVKDSXM5C,B16B35FA-9ADD-4F27-8DFB-D72670E79B4C,2023-09-26_05h52.23.405,WP_VExplicitOC_LH,2022.2.5,Win32,20.98283604,98.25,3.419599999,2.0169,NA,NA,NA,NA,NA,bored,"bored, not bored","more bored, less bored",NA,NA,NA,NA,NA,NA,NA,NA,NA,NA,NA,NA,NA,NA,NA,0,2,2,2,1,NA,NA,NA,NA,NA,NA,NA,NA,NA,NA,NA,NA,NA,NA,NA,NA,NA,NA,NA,NA,NA,NA,NA,NA,NA,NA,NA,NA
SUPAMT65935,336YQZE831DAHSNR48PO5RVKDSXM5C,B16B35FA-9ADD-4F27-8DFB-D72670E79B4C,2023-09-26_05h52.23.405,WP_VExplicitOC_LH,2022.2.5,Win32,20.98283604,NA,NA,NA,NA,NA,NA,NA,NA,NA,NA,NA,NA,NA,NA,NA,NA,NA,NA,NA,NA,NA,NA,NA,NA,NA,NA,NA,NA,NA,NA,NA,2,0,2,0,1,NA,NA,NA,NA,NA,NA,NA,NA,NA,NA,NA,NA,NA,NA,NA,NA,NA,NA,NA,NA,NA,NA,NA
SUPAMT65935,336YQZE831DAHSNR48PO5RVKDSXM5C,B16B35FA-9ADD-4F27-8DFB-D72670E79B4C,2023-09-26_05h52.23.405,WP_VExplicitOC_LH,2022.2.5,Win32,20.98283604,NA,NA,2.0254,NA,NA,NA,NA,NA,happy,"unhappy, happy","less happy, more happy",NA,NA,NA,NA,NA,NA,NA,NA,NA,NA,NA,NA,NA,NA,NA,0,0,0,0,1,NA,NA,NA,NA,NA,NA,NA,NA,NA,NA,NA,NA,NA,NA,NA,NA,NA,NA,NA,NA,NA,NA,NA,NA,NA,NA,NA,NA
SUPAMT65935,336YQZE831DAHSNR48PO5RVKDSXM5C,B16B35FA-9ADD-4F27-8DFB-D72670E79B4C,2023-09-26_05h52.23.405,WP_VExplicitOC_LH,2022.2.5,Win32,20.98283604,98.75,3.082,2.049,NA,NA,NA,NA,NA,frustrated,"frustrated, not frustrated","more frustrated, less frustrated",NA,NA,NA,NA,NA,NA,NA,NA,NA,NA,NA,NA,NA,NA,NA,0,1,1,1,1,NA,NA,NA,NA,NA,NA,NA,NA,NA,NA,NA,NA,NA,NA,NA,NA,NA,NA,NA,NA,NA,NA,NA,NA,NA,NA,NA,NA
SUPAMT65935,336YQZE831DAHSNR48PO5RVKDSXM5C,B16B35FA-9ADD-4F27-8DFB-D72670E79B4C,2023-09-26_05h52.23.405,WP_VExplicitOC_LH,2022.2.5,Win32,20.98283604,99,2.9322,2.0622,NA,NA,NA,NA,NA,bored,"bored, not bored","more bored, less bored",NA,NA,NA,NA,NA,NA,NA,NA,NA,NA,NA,NA,NA,NA,NA,0,2,2,2,1,NA,NA,NA,NA,NA,NA,NA,NA,NA,NA,NA,NA,NA,NA,NA,NA,NA,NA,NA,NA,NA,NA,NA,NA,NA,NA,NA,NA
SUPAMT65935,336YQZE831DAHSNR48PO5RVKDSXM5C,B16B35FA-9ADD-4F27-8DFB-D72670E79B4C,2023-09-26_05h52.23.405,WP_VExplicitOC_LH,2022.2.5,Win32,20.98283604,NA,NA,NA,NA,NA,NA,NA,NA,NA,NA,NA,NA,NA,NA,NA,NA,NA,NA,NA,NA,NA,NA,NA,NA,NA,NA,NA,NA,NA,NA,NA,3,0,3,0,1,NA,NA,NA,NA,NA,NA,NA,NA,NA,NA,NA,NA,NA,NA,NA,NA,NA,NA,NA,NA,NA,NA,NA
SUPAMT65935,336YQZE831DAHSNR48PO5RVKDSXM5C,B16B35FA-9ADD-4F27-8DFB-D72670E79B4C,2023-09-26_05h52.23.405,WP_VExplicitOC_LH,2022.2.5,Win32,20.98283604,95.5,4.0573,2.011700001,NA,NA,NA,NA,NA,happy,"unhappy, happy","less happy, more happy",NA,NA,NA,NA,NA,NA,NA,NA,NA,NA,NA,NA,NA,NA,NA,0,0,0,0,1,NA,NA,NA,NA,NA,NA,NA,NA,NA,NA,NA,NA,NA,NA,NA,NA,NA,NA,NA,NA,NA,NA,NA,NA,NA,NA,NA,NA
SUPAMT65935,336YQZE831DAHSNR48PO5RVKDSXM5C,B16B35FA-9ADD-4F27-8DFB-D72670E79B4C,2023-09-26_05h52.23.405,WP_VExplicitOC_LH,2022.2.5,Win32,20.98283604,100,3.4602,2.028,NA,NA,NA,NA,NA,bored,"bored, not bored","more bored, less bored",NA,NA,NA,NA,NA,NA,NA,NA,NA,NA,NA,NA,NA,NA,NA,0,1,1,2,1,NA,NA,NA,NA,NA,NA,NA,NA,NA,NA,NA,NA,NA,NA,NA,NA,NA,NA,NA,NA,NA,NA,NA,NA,NA,NA,NA,NA
SUPAMT65935,336YQZE831DAHSNR48PO5RVKDSXM5C,B16B35FA-9ADD-4F27-8DFB-D72670E79B4C,2023-09-26_05h52.23.405,WP_VExplicitOC_LH,2022.2.5,Win32,20.98283604,89,3.662099999,2.0082,NA,NA,NA,NA,NA,frustrated,"frustrated, not frustrated","more frustrated, less frustrated",NA,NA,NA,NA,NA,NA,NA,NA,NA,NA,NA,NA,NA,NA,NA,0,2,2,1,1,NA,NA,NA,NA,NA,NA,NA,NA,NA,NA,NA,NA,NA,NA,NA,NA,NA,NA,NA,NA,NA,NA,NA,NA,NA,NA,NA,NA
SUPAMT65935,336YQZE831DAHSNR48PO5RVKDSXM5C,B16B35FA-9ADD-4F27-8DFB-D72670E79B4C,2023-09-26_05h52.23.405,WP_VExplicitOC_LH,2022.2.5,Win32,20.98283604,NA,NA,NA,NA,NA,NA,NA,NA,NA,NA,NA,NA,NA,NA,NA,NA,NA,NA,NA,NA,NA,NA,NA,NA,NA,NA,NA,NA,NA,NA,NA,4,0,4,0,1,NA,NA,NA,NA,NA,NA,NA,NA,NA,NA,NA,NA,NA,NA,NA,NA,NA,NA,NA,NA,NA,NA,NA
SUPAMT65935,336YQZE831DAHSNR48PO5RVKDSXM5C,B16B35FA-9ADD-4F27-8DFB-D72670E79B4C,2023-09-26_05h52.23.405,WP_VExplicitOC_LH,2022.2.5,Win32,20.98283604,100,3.3109,2.002799999,NA,NA,NA,NA,NA,happy,"unhappy, happy","less happy, more happy",NA,NA,NA,NA,NA,NA,NA,NA,NA,NA,NA,NA,NA,NA,NA,0,0,0,0,1,NA,NA,NA,NA,NA,NA,NA,NA,NA,NA,NA,NA,NA,NA,NA,NA,NA,NA,NA,NA,NA,NA,NA,NA,NA,NA,NA,NA
SUPAMT65935,336YQZE831DAHSNR48PO5RVKDSXM5C,B16B35FA-9ADD-4F27-8DFB-D72670E79B4C,2023-09-26_05h52.23.405,WP_VExplicitOC_LH,2022.2.5,Win32,20.98283604,100,3.688,2.0557,NA,NA,NA,NA,NA,frustrated,"frustrated, not frustrated","more frustrated, less frustrated",NA,NA,NA,NA,NA,NA,NA,NA,NA,NA,NA,NA,NA,NA,NA,0,1,1,1,1,NA,NA,NA,NA,NA,NA,NA,NA,NA,NA,NA,NA,NA,NA,NA,NA,NA,NA,NA,NA,NA,NA,NA,NA,NA,NA,NA,NA
SUPAMT65935,336YQZE831DAHSNR48PO5RVKDSXM5C,B16B35FA-9ADD-4F27-8DFB-D72670E79B4C,2023-09-26_05h52.23.405,WP_VExplicitOC_LH,2022.2.5,Win32,20.98283604,93.25,3.4428,2.0043,NA,NA,NA,NA,NA,bored,"bored, not bored","more bored, less bored",NA,NA,NA,NA,NA,NA,NA,NA,NA,NA,NA,NA,NA,NA,NA,0,2,2,2,1,NA,NA,NA,NA,NA,NA,NA,NA,NA,NA,NA,NA,NA,NA,NA,NA,NA,NA,NA,NA,NA,NA,NA,NA,NA,NA,NA,NA
SUPAMT65935,336YQZE831DAHSNR48PO5RVKDSXM5C,B16B35FA-9ADD-4F27-8DFB-D72670E79B4C,2023-09-26_05h52.23.405,WP_VExplicitOC_LH,2022.2.5,Win32,20.98283604,NA,NA,NA,NA,NA,NA,NA,NA,NA,NA,NA,NA,NA,NA,NA,NA,NA,NA,NA,NA,NA,NA,NA,NA,NA,NA,NA,NA,NA,NA,NA,5,0,5,0,1,NA,NA,NA,NA,NA,NA,NA,NA,NA,NA,NA,NA,NA,NA,NA,NA,NA,NA,NA,NA,NA,NA,NA
SUPAMT65935,336YQZE831DAHSNR48PO5RVKDSXM5C,B16B35FA-9ADD-4F27-8DFB-D72670E79B4C,2023-09-26_05h52.23.405,WP_VExplicitOC_LH,2022.2.5,Win32,20.98283604,98.5,6.8203,2.004799999,NA,NA,NA,NA,NA,bored,"bored, not bored","more bored, less bored",NA,NA,NA,NA,NA,NA,NA,NA,NA,NA,NA,NA,NA,NA,NA,0,0,0,2,1,NA,NA,NA,NA,NA,NA,NA,NA,NA,NA,NA,NA,NA,NA,NA,NA,NA,NA,NA,NA,NA,NA,NA,NA,NA,NA,NA,NA
SUPAMT65935,336YQZE831DAHSNR48PO5RVKDSXM5C,B16B35FA-9ADD-4F27-8DFB-D72670E79B4C,2023-09-26_05h52.23.405,WP_VExplicitOC_LH,2022.2.5,Win32,20.98283604,100,3.6365,2.029099999,NA,NA,NA,NA,NA,happy,"unhappy, happy","less happy, more happy",NA,NA,NA,NA,NA,NA,NA,NA,NA,NA,NA,NA,NA,NA,NA,0,1,1,0,1,NA,NA,NA,NA,NA,NA,NA,NA,NA,NA,NA,NA,NA,NA,NA,NA,NA,NA,NA,NA,NA,NA,NA,NA,NA,NA,NA,NA
SUPAMT65935,336YQZE831DAHSNR48PO5RVKDSXM5C,B16B35FA-9ADD-4F27-8DFB-D72670E79B4C,2023-09-26_05h52.23.405,WP_VExplicitOC_LH,2022.2.5,Win32,20.98283604,100,3.2334,2.0241,NA,NA,NA,NA,NA,frustrated,"frustrated, not frustrated","more frustrated, less frustrated",NA,NA,NA,NA,NA,NA,NA,NA,NA,NA,NA,NA,NA,NA,NA,0,2,2,1,1,NA,NA,NA,NA,NA,NA,NA,NA,NA,NA,NA,NA,NA,NA,NA,NA,NA,NA,NA,NA,NA,NA,NA,NA,NA,NA,NA,NA
SUPAMT65935,336YQZE831DAHSNR48PO5RVKDSXM5C,B16B35FA-9ADD-4F27-8DFB-D72670E79B4C,2023-09-26_05h52.23.405,WP_VExplicitOC_LH,2022.2.5,Win32,20.98283604,NA,NA,NA,NA,NA,NA,NA,NA,NA,NA,NA,NA,NA,NA,NA,NA,NA,NA,NA,NA,NA,NA,NA,NA,NA,NA,NA,NA,NA,NA,NA,6,0,6,0,1,NA,NA,NA,NA,NA,NA,NA,NA,NA,NA,NA,NA,NA,NA,NA,NA,NA,NA,NA,NA,NA,NA,NA
SUPAMT65935,336YQZE831DAHSNR48PO5RVKDSXM5C,B16B35FA-9ADD-4F27-8DFB-D72670E79B4C,2023-09-26_05h52.23.405,WP_VExplicitOC_LH,2022.2.5,Win32,20.98283604,100,3.7125,2.061,NA,NA,NA,NA,NA,frustrated,"frustrated, not frustrated","more frustrated, less frustrated",NA,NA,NA,NA,NA,NA,NA,NA,NA,NA,NA,NA,NA,NA,NA,0,0,0,1,1,NA,NA,NA,NA,NA,NA,NA,NA,NA,NA,NA,NA,NA,NA,NA,NA,NA,NA,NA,NA,NA,NA,NA,NA,NA,NA,NA,NA
SUPAMT65935,336YQZE831DAHSNR48PO5RVKDSXM5C,B16B35FA-9ADD-4F27-8DFB-D72670E79B4C,2023-09-26_05h52.23.405,WP_VExplicitOC_LH,2022.2.5,Win32,20.98283604,98,3.0185,2.023299999,NA,NA,NA,NA,NA,happy,"unhappy, happy","less happy, more happy",NA,NA,NA,NA,NA,NA,NA,NA,NA,NA,NA,NA,NA,NA,NA,0,1,1,0,1,NA,NA,NA,NA,NA,NA,NA,NA,NA,NA,NA,NA,NA,NA,NA,NA,NA,NA,NA,NA,NA,NA,NA,NA,NA,NA,NA,NA
SUPAMT65935,336YQZE831DAHSNR48PO5RVKDSXM5C,B16B35FA-9ADD-4F27-8DFB-D72670E79B4C,2023-09-26_05h52.23.405,WP_VExplicitOC_LH,2022.2.5,Win32,20.98283604,99.25,3.3255,2.0173,NA,NA,NA,NA,NA,bored,"bored, not bored","more bored, less bored",NA,NA,NA,NA,NA,NA,NA,NA,NA,NA,NA,NA,NA,NA,NA,0,2,2,2,1,NA,NA,NA,NA,NA,NA,NA,NA,NA,NA,NA,NA,NA,NA,NA,NA,NA,NA,NA,NA,NA,NA,NA,NA,NA,NA,NA,NA
SUPAMT65935,336YQZE831DAHSNR48PO5RVKDSXM5C,B16B35FA-9ADD-4F27-8DFB-D72670E79B4C,2023-09-26_05h52.23.405,WP_VExplicitOC_LH,2022.2.5,Win32,20.98283604,NA,NA,NA,NA,NA,NA,NA,NA,NA,NA,NA,NA,NA,NA,NA,NA,NA,NA,NA,NA,NA,NA,NA,NA,NA,NA,NA,NA,NA,NA,NA,7,0,7,0,1,NA,NA,NA,NA,NA,NA,NA,NA,NA,NA,NA,NA,NA,NA,NA,NA,NA,NA,NA,NA,NA,NA,NA
SUPAMT65935,336YQZE831DAHSNR48PO5RVKDSXM5C,B16B35FA-9ADD-4F27-8DFB-D72670E79B4C,2023-09-26_05h52.23.405,WP_VExplicitOC_LH,2022.2.5,Win32,20.98283604,98,4.479799999,2.0202,NA,NA,NA,NA,NA,frustrated,"frustrated, not frustrated","more frustrated, less frustrated",NA,NA,NA,NA,NA,NA,NA,NA,NA,NA,NA,NA,NA,NA,NA,0,0,0,1,1,NA,NA,NA,NA,NA,NA,NA,NA,NA,NA,NA,NA,NA,NA,NA,NA,NA,NA,NA,NA,NA,NA,NA,NA,NA,NA,NA,NA
SUPAMT65935,336YQZE831DAHSNR48PO5RVKDSXM5C,B16B35FA-9ADD-4F27-8DFB-D72670E79B4C,2023-09-26_05h52.23.405,WP_VExplicitOC_LH,2022.2.5,Win32,20.98283604,NA,NA,2.031799999,NA,NA,NA,NA,NA,happy,"unhappy, happy","less happy, more happy",NA,NA,NA,NA,NA,NA,NA,NA,NA,NA,NA,NA,NA,NA,NA,0,1,1,0,1,NA,NA,NA,NA,NA,NA,NA,NA,NA,NA,NA,NA,NA,NA,NA,NA,NA,NA,NA,NA,NA,NA,NA,NA,NA,NA,NA,NA
SUPAMT65935,336YQZE831DAHSNR48PO5RVKDSXM5C,B16B35FA-9ADD-4F27-8DFB-D72670E79B4C,2023-09-26_05h52.23.405,WP_VExplicitOC_LH,2022.2.5,Win32,20.98283604,100,3.4491,2.046599999,NA,NA,NA,NA,NA,bored,"bored, not bored","more bored, less bored",NA,NA,NA,NA,NA,NA,NA,NA,NA,NA,NA,NA,NA,NA,NA,0,2,2,2,1,NA,NA,NA,NA,NA,NA,NA,NA,NA,NA,NA,NA,NA,NA,NA,NA,NA,NA,NA,NA,NA,NA,NA,NA,NA,NA,NA,NA
SUPAMT65935,336YQZE831DAHSNR48PO5RVKDSXM5C,B16B35FA-9ADD-4F27-8DFB-D72670E79B4C,2023-09-26_05h52.23.405,WP_VExplicitOC_LH,2022.2.5,Win32,20.98283604,NA,NA,NA,NA,NA,NA,NA,NA,NA,NA,NA,NA,NA,NA,NA,NA,NA,NA,NA,NA,NA,NA,NA,NA,NA,NA,NA,NA,NA,NA,NA,8,0,8,0,1,NA,NA,NA,NA,NA,NA,NA,NA,NA,NA,NA,NA,NA,NA,NA,NA,NA,NA,NA,NA,NA,NA,NA
SUPAMT65935,336YQZE831DAHSNR48PO5RVKDSXM5C,B16B35FA-9ADD-4F27-8DFB-D72670E79B4C,2023-09-26_05h52.23.405,WP_VExplicitOC_LH,2022.2.5,Win32,20.98283604,100,3.3421,2.006599999,NA,NA,NA,NA,NA,bored,"bored, not bored","more bored, less bored",NA,NA,NA,NA,NA,NA,NA,NA,NA,NA,NA,NA,NA,NA,NA,0,0,0,2,1,NA,NA,NA,NA,NA,NA,NA,NA,NA,NA,NA,NA,NA,NA,NA,NA,NA,NA,NA,NA,NA,NA,NA,NA,NA,NA,NA,NA
SUPAMT65935,336YQZE831DAHSNR48PO5RVKDSXM5C,B16B35FA-9ADD-4F27-8DFB-D72670E79B4C,2023-09-26_05h52.23.405,WP_VExplicitOC_LH,2022.2.5,Win32,20.98283604,98.75,3.523599999,2.021099999,NA,NA,NA,NA,NA,frustrated,"frustrated, not frustrated","more frustrated, less frustrated",NA,NA,NA,NA,NA,NA,NA,NA,NA,NA,NA,NA,NA,NA,NA,0,1,1,1,1,NA,NA,NA,NA,NA,NA,NA,NA,NA,NA,NA,NA,NA,NA,NA,NA,NA,NA,NA,NA,NA,NA,NA,NA,NA,NA,NA,NA
SUPAMT65935,336YQZE831DAHSNR48PO5RVKDSXM5C,B16B35FA-9ADD-4F27-8DFB-D72670E79B4C,2023-09-26_05h52.23.405,WP_VExplicitOC_LH,2022.2.5,Win32,20.98283604,98.75,2.9282,2.017299999,NA,NA,NA,NA,NA,happy,"unhappy, happy","less happy, more happy",NA,NA,NA,NA,NA,NA,NA,NA,NA,NA,NA,NA,NA,NA,NA,0,2,2,0,1,NA,NA,NA,NA,NA,NA,NA,NA,NA,NA,NA,NA,NA,NA,NA,NA,NA,NA,NA,NA,NA,NA,NA,NA,NA,NA,NA,NA
SUPAMT65935,336YQZE831DAHSNR48PO5RVKDSXM5C,B16B35FA-9ADD-4F27-8DFB-D72670E79B4C,2023-09-26_05h52.23.405,WP_VExplicitOC_LH,2022.2.5,Win32,20.98283604,NA,NA,NA,NA,NA,NA,NA,NA,NA,NA,NA,NA,NA,NA,NA,NA,NA,NA,NA,NA,NA,NA,NA,NA,NA,NA,NA,NA,NA,NA,NA,9,0,9,0,1,NA,NA,NA,NA,NA,NA,NA,NA,NA,NA,NA,NA,NA,NA,NA,NA,NA,NA,NA,NA,NA,NA,NA
SUPAMT65935,336YQZE831DAHSNR48PO5RVKDSXM5C,B16B35FA-9ADD-4F27-8DFB-D72670E79B4C,2023-09-26_05h52.23.405,WP_VExplicitOC_LH,2022.2.5,Win32,20.98283604,97.75,4.6341,2.0688,NA,NA,NA,NA,NA,bored,"bored, not bored","more bored, less bored",NA,NA,NA,NA,NA,NA,NA,NA,NA,NA,NA,NA,NA,NA,NA,0,0,0,2,1,NA,NA,NA,NA,NA,NA,NA,NA,NA,NA,NA,NA,NA,NA,NA,NA,NA,NA,NA,NA,NA,NA,NA,NA,NA,NA,NA,NA
SUPAMT65935,336YQZE831DAHSNR48PO5RVKDSXM5C,B16B35FA-9ADD-4F27-8DFB-D72670E79B4C,2023-09-26_05h52.23.405,WP_VExplicitOC_LH,2022.2.5,Win32,20.98283604,99.75,3.2787,2.0541,NA,NA,NA,NA,NA,frustrated,"frustrated, not frustrated","more frustrated, less frustrated",NA,NA,NA,NA,NA,NA,NA,NA,NA,NA,NA,NA,NA,NA,NA,0,1,1,1,1,NA,NA,NA,NA,NA,NA,NA,NA,NA,NA,NA,NA,NA,NA,NA,NA,NA,NA,NA,NA,NA,NA,NA,NA,NA,NA,NA,NA
SUPAMT65935,336YQZE831DAHSNR48PO5RVKDSXM5C,B16B35FA-9ADD-4F27-8DFB-D72670E79B4C,2023-09-26_05h52.23.405,WP_VExplicitOC_LH,2022.2.5,Win32,20.98283604,100,4.0403,2.031799999,NA,NA,NA,NA,NA,happy,"unhappy, happy","less happy, more happy",NA,NA,NA,NA,NA,NA,NA,NA,NA,NA,NA,NA,NA,NA,NA,0,2,2,0,1,NA,NA,NA,NA,NA,NA,NA,NA,NA,NA,NA,NA,NA,NA,NA,NA,NA,NA,NA,NA,NA,NA,NA,NA,NA,NA,NA,NA
SUPAMT65935,336YQZE831DAHSNR48PO5RVKDSXM5C,B16B35FA-9ADD-4F27-8DFB-D72670E79B4C,2023-09-26_05h52.23.405,WP_VExplicitOC_LH,2022.2.5,Win32,20.98283604,NA,NA,NA,NA,NA,NA,NA,NA,NA,NA,NA,NA,NA,NA,NA,NA,NA,NA,NA,NA,NA,NA,NA,NA,NA,NA,NA,NA,NA,NA,NA,10,0,10,0,1,NA,NA,NA,NA,NA,NA,NA,NA,NA,NA,NA,NA,NA,NA,NA,NA,NA,NA,NA,NA,NA,NA,NA
SUPAMT65935,336YQZE831DAHSNR48PO5RVKDSXM5C,B16B35FA-9ADD-4F27-8DFB-D72670E79B4C,2023-09-26_05h52.23.405,WP_VExplicitOC_LH,2022.2.5,Win32,20.98283604,100,3.720900001,2.0269,NA,NA,NA,NA,NA,frustrated,"frustrated, not frustrated","more frustrated, less frustrated",NA,NA,NA,NA,NA,NA,NA,NA,NA,NA,NA,NA,NA,NA,NA,0,0,0,1,1,NA,NA,NA,NA,NA,NA,NA,NA,NA,NA,NA,NA,NA,NA,NA,NA,NA,NA,NA,NA,NA,NA,NA,NA,NA,NA,NA,NA
SUPAMT65935,336YQZE831DAHSNR48PO5RVKDSXM5C,B16B35FA-9ADD-4F27-8DFB-D72670E79B4C,2023-09-26_05h52.23.405,WP_VExplicitOC_LH,2022.2.5,Win32,20.98283604,100,3.8532,2.012,NA,NA,NA,NA,NA,happy,"unhappy, happy","less happy, more happy",NA,NA,NA,NA,NA,NA,NA,NA,NA,NA,NA,NA,NA,NA,NA,0,1,1,0,1,NA,NA,NA,NA,NA,NA,NA,NA,NA,NA,NA,NA,NA,NA,NA,NA,NA,NA,NA,NA,NA,NA,NA,NA,NA,NA,NA,NA
SUPAMT65935,336YQZE831DAHSNR48PO5RVKDSXM5C,B16B35FA-9ADD-4F27-8DFB-D72670E79B4C,2023-09-26_05h52.23.405,WP_VExplicitOC_LH,2022.2.5,Win32,20.98283604,100,4.7738,2.0549,NA,NA,NA,NA,NA,bored,"bored, not bored","more bored, less bored",NA,NA,NA,NA,NA,NA,NA,NA,NA,NA,NA,NA,NA,NA,NA,0,2,2,2,1,NA,NA,NA,NA,NA,NA,NA,NA,NA,NA,NA,NA,NA,NA,NA,NA,NA,NA,NA,NA,NA,NA,NA,NA,NA,NA,NA,NA
SUPAMT65935,336YQZE831DAHSNR48PO5RVKDSXM5C,B16B35FA-9ADD-4F27-8DFB-D72670E79B4C,2023-09-26_05h52.23.405,WP_VExplicitOC_LH,2022.2.5,Win32,20.98283604,NA,NA,NA,NA,NA,NA,NA,NA,NA,NA,NA,NA,NA,NA,NA,NA,NA,NA,NA,NA,NA,NA,NA,NA,NA,NA,NA,NA,NA,NA,NA,11,0,11,0,1,NA,NA,NA,NA,NA,NA,NA,NA,NA,NA,NA,NA,NA,NA,NA,NA,NA,NA,NA,NA,NA,NA,NA
SUPAMT65935,336YQZE831DAHSNR48PO5RVKDSXM5C,B16B35FA-9ADD-4F27-8DFB-D72670E79B4C,2023-09-26_05h52.23.405,WP_VExplicitOC_LH,2022.2.5,Win32,20.98283604,100,4.029,2.0041,NA,NA,NA,NA,NA,happy,"unhappy, happy","less happy, more happy",NA,NA,NA,NA,NA,NA,NA,NA,NA,NA,NA,NA,NA,NA,NA,0,0,0,0,1,NA,NA,NA,NA,NA,NA,NA,NA,NA,NA,NA,NA,NA,NA,NA,NA,NA,NA,NA,NA,NA,NA,NA,NA,NA,NA,NA,NA
SUPAMT65935,336YQZE831DAHSNR48PO5RVKDSXM5C,B16B35FA-9ADD-4F27-8DFB-D72670E79B4C,2023-09-26_05h52.23.405,WP_VExplicitOC_LH,2022.2.5,Win32,20.98283604,100,3.7659,2.0343,NA,NA,NA,NA,NA,frustrated,"frustrated, not frustrated","more frustrated, less frustrated",NA,NA,NA,NA,NA,NA,NA,NA,NA,NA,NA,NA,NA,NA,NA,0,1,1,1,1,NA,NA,NA,NA,NA,NA,NA,NA,NA,NA,NA,NA,NA,NA,NA,NA,NA,NA,NA,NA,NA,NA,NA,NA,NA,NA,NA,NA
SUPAMT65935,336YQZE831DAHSNR48PO5RVKDSXM5C,B16B35FA-9ADD-4F27-8DFB-D72670E79B4C,2023-09-26_05h52.23.405,WP_VExplicitOC_LH,2022.2.5,Win32,20.98283604,100,3.4326,2.0247,NA,NA,NA,NA,NA,bored,"bored, not bored","more bored, less bored",NA,NA,NA,NA,NA,NA,NA,NA,NA,NA,NA,NA,NA,NA,NA,0,2,2,2,1,NA,NA,NA,NA,NA,NA,NA,NA,NA,NA,NA,NA,NA,NA,NA,NA,NA,NA,NA,NA,NA,NA,NA,NA,NA,NA,NA,NA
SUPAMT65935,336YQZE831DAHSNR48PO5RVKDSXM5C,B16B35FA-9ADD-4F27-8DFB-D72670E79B4C,2023-09-26_05h52.23.405,WP_VExplicitOC_LH,2022.2.5,Win32,20.98283604,NA,NA,NA,NA,NA,NA,NA,NA,NA,NA,NA,NA,NA,NA,NA,NA,NA,NA,NA,NA,NA,NA,NA,NA,NA,NA,NA,NA,NA,NA,NA,12,0,12,0,1,NA,NA,NA,NA,NA,NA,NA,NA,NA,NA,NA,NA,NA,NA,NA,NA,NA,NA,NA,NA,NA,NA,NA
SUPAMT65935,336YQZE831DAHSNR48PO5RVKDSXM5C,B16B35FA-9ADD-4F27-8DFB-D72670E79B4C,2023-09-26_05h52.23.405,WP_VExplicitOC_LH,2022.2.5,Win32,20.98283604,100,3.5074,2.0572,NA,NA,NA,NA,NA,happy,"unhappy, happy","less happy, more happy",NA,NA,NA,NA,NA,NA,NA,NA,NA,NA,NA,NA,NA,NA,NA,0,0,0,0,1,NA,NA,NA,NA,NA,NA,NA,NA,NA,NA,NA,NA,NA,NA,NA,NA,NA,NA,NA,NA,NA,NA,NA,NA,NA,NA,NA,NA
SUPAMT65935,336YQZE831DAHSNR48PO5RVKDSXM5C,B16B35FA-9ADD-4F27-8DFB-D72670E79B4C,2023-09-26_05h52.23.405,WP_VExplicitOC_LH,2022.2.5,Win32,20.98283604,100,3.9767,2.0247,NA,NA,NA,NA,NA,frustrated,"frustrated, not frustrated","more frustrated, less frustrated",NA,NA,NA,NA,NA,NA,NA,NA,NA,NA,NA,NA,NA,NA,NA,0,1,1,1,1,NA,NA,NA,NA,NA,NA,NA,NA,NA,NA,NA,NA,NA,NA,NA,NA,NA,NA,NA,NA,NA,NA,NA,NA,NA,NA,NA,NA
SUPAMT65935,336YQZE831DAHSNR48PO5RVKDSXM5C,B16B35FA-9ADD-4F27-8DFB-D72670E79B4C,2023-09-26_05h52.23.405,WP_VExplicitOC_LH,2022.2.5,Win32,20.98283604,100,4.1251,2.0223,NA,NA,NA,NA,NA,bored,"bored, not bored","more bored, less bored",NA,NA,NA,NA,NA,NA,NA,NA,NA,NA,NA,NA,NA,NA,NA,0,2,2,2,1,NA,NA,NA,NA,NA,NA,NA,NA,NA,NA,NA,NA,NA,NA,NA,NA,NA,NA,NA,NA,NA,NA,NA,NA,NA,NA,NA,NA
SUPAMT65935,336YQZE831DAHSNR48PO5RVKDSXM5C,B16B35FA-9ADD-4F27-8DFB-D72670E79B4C,2023-09-26_05h52.23.405,WP_VExplicitOC_LH,2022.2.5,Win32,20.98283604,NA,NA,NA,NA,NA,NA,NA,NA,NA,NA,NA,NA,NA,NA,NA,NA,NA,NA,NA,NA,NA,NA,NA,NA,NA,NA,NA,NA,NA,NA,NA,13,0,13,0,1,NA,NA,NA,NA,NA,NA,NA,NA,NA,NA,NA,NA,NA,NA,NA,NA,NA,NA,NA,NA,NA,NA,NA
SUPAMT65935,336YQZE831DAHSNR48PO5RVKDSXM5C,B16B35FA-9ADD-4F27-8DFB-D72670E79B4C,2023-09-26_05h52.23.405,WP_VExplicitOC_LH,2022.2.5,Win32,20.98283604,100,4.005,2.030799999,NA,NA,NA,NA,NA,bored,"bored, not bored","more bored, less bored",NA,NA,NA,NA,NA,NA,NA,NA,NA,NA,NA,NA,NA,NA,NA,0,0,0,2,1,NA,NA,NA,NA,NA,NA,NA,NA,NA,NA,NA,NA,NA,NA,NA,NA,NA,NA,NA,NA,NA,NA,NA,NA,NA,NA,NA,NA
SUPAMT65935,336YQZE831DAHSNR48PO5RVKDSXM5C,B16B35FA-9ADD-4F27-8DFB-D72670E79B4C,2023-09-26_05h52.23.405,WP_VExplicitOC_LH,2022.2.5,Win32,20.98283604,94.5,4.7568,2.0322,NA,NA,NA,NA,NA,frustrated,"frustrated, not frustrated","more frustrated, less frustrated",NA,NA,NA,NA,NA,NA,NA,NA,NA,NA,NA,NA,NA,NA,NA,0,1,1,1,1,NA,NA,NA,NA,NA,NA,NA,NA,NA,NA,NA,NA,NA,NA,NA,NA,NA,NA,NA,NA,NA,NA,NA,NA,NA,NA,NA,NA
SUPAMT65935,336YQZE831DAHSNR48PO5RVKDSXM5C,B16B35FA-9ADD-4F27-8DFB-D72670E79B4C,2023-09-26_05h52.23.405,WP_VExplicitOC_LH,2022.2.5,Win32,20.98283604,100,3.8043,2.0095,NA,NA,NA,NA,NA,happy,"unhappy, happy","less happy, more happy",NA,NA,NA,NA,NA,NA,NA,NA,NA,NA,NA,NA,NA,NA,NA,0,2,2,0,1,NA,NA,NA,NA,NA,NA,NA,NA,NA,NA,NA,NA,NA,NA,NA,NA,NA,NA,NA,NA,NA,NA,NA,NA,NA,NA,NA,NA
SUPAMT65935,336YQZE831DAHSNR48PO5RVKDSXM5C,B16B35FA-9ADD-4F27-8DFB-D72670E79B4C,2023-09-26_05h52.23.405,WP_VExplicitOC_LH,2022.2.5,Win32,20.98283604,NA,NA,NA,NA,NA,NA,NA,NA,NA,NA,NA,NA,NA,NA,NA,NA,NA,NA,NA,NA,NA,NA,NA,NA,NA,NA,NA,NA,NA,NA,NA,14,0,14,0,1,NA,NA,NA,NA,NA,NA,NA,NA,NA,NA,NA,NA,NA,NA,NA,NA,NA,NA,NA,NA,NA,NA,NA
SUPAMT65935,336YQZE831DAHSNR48PO5RVKDSXM5C,B16B35FA-9ADD-4F27-8DFB-D72670E79B4C,2023-09-26_05h52.23.405,WP_VExplicitOC_LH,2022.2.5,Win32,20.98283604,NA,NA,NA,NA,NA,NA,NA,NA,NA,NA,NA,NA,NA,NA,NA,NA,NA,NA,NA,NA,NA,NA,NA,NA,NA,NA,NA,NA,NA,NA,NA,NA,NA,NA,NA,NA,NA,NA,NA,NA,NA,NA,NA,NA,NA,NA,NA,NA,NA,NA,NA,NA,NA,NA,NA,NA,NA,NA,NA
SUPAMT65935,336YQZE831DAHSNR48PO5RVKDSXM5C,B16B35FA-9ADD-4F27-8DFB-D72670E79B4C,2023-09-26_05h52.23.405,WP_VExplicitOC_LH,2022.2.5,Win32,20.98283604,NA,NA,NA,NA,NA,NA,NA,NA,NA,NA,NA,NA,NA,NA,NA,NA,NA,NA,NA,NA,NA,NA,NA,NA,NA,NA,NA,NA,NA,NA,NA,NA,NA,NA,NA,NA,NA,NA,NA,NA,NA,NA,NA,NA,NA,NA,NA,NA,NA,NA,NA,NA,NA,NA,NA,NA,NA,NA,NA
SUPAMT65935,336YQZE831DAHSNR48PO5RVKDSXM5C,B16B35FA-9ADD-4F27-8DFB-D72670E79B4C,2023-09-26_05h52.23.405,WP_VExplicitOC_LH,2022.2.5,Win32,20.98283604,NA,NA,NA,NA,NA,NA,NA,NA,NA,NA,NA,NA,NA,NA,NA,NA,NA,NA,rest (looking at a fixed cross),001.png,NA,NA,NA,NA,NA,NA,NA,NA,NA,NA,NA,NA,NA,NA,NA,NA,77.25,5.5522,0,0,0,0,1,NA,NA,NA,NA,NA,NA,NA,NA,NA,NA,NA,NA,NA,NA,NA,NA
SUPAMT65935,336YQZE831DAHSNR48PO5RVKDSXM5C,B16B35FA-9ADD-4F27-8DFB-D72670E79B4C,2023-09-26_05h52.23.405,WP_VExplicitOC_LH,2022.2.5,Win32,20.98283604,NA,NA,NA,NA,NA,NA,NA,NA,NA,NA,NA,NA,NA,NA,NA,NA,NA,NA,stand up,002.png,NA,NA,NA,NA,NA,NA,NA,NA,NA,NA,NA,NA,NA,NA,NA,NA,54.5,3.0907,0,1,1,1,1,NA,NA,NA,NA,NA,NA,NA,NA,NA,NA,NA,NA,NA,NA,NA,NA
SUPAMT65935,336YQZE831DAHSNR48PO5RVKDSXM5C,B16B35FA-9ADD-4F27-8DFB-D72670E79B4C,2023-09-26_05h52.23.405,WP_VExplicitOC_LH,2022.2.5,Win32,20.98283604,NA,NA,NA,NA,NA,NA,NA,NA,NA,NA,NA,NA,NA,NA,NA,NA,NA,NA,stretch,003.png,NA,NA,NA,NA,NA,NA,NA,NA,NA,NA,NA,NA,NA,NA,NA,NA,25,2.024400001,0,2,2,2,1,NA,NA,NA,NA,NA,NA,NA,NA,NA,NA,NA,NA,NA,NA,NA,NA
SUPAMT65935,336YQZE831DAHSNR48PO5RVKDSXM5C,B16B35FA-9ADD-4F27-8DFB-D72670E79B4C,2023-09-26_05h52.23.405,WP_VExplicitOC_LH,2022.2.5,Win32,20.98283604,NA,NA,NA,NA,NA,NA,NA,NA,NA,NA,NA,NA,NA,NA,NA,NA,NA,NA,make a drink,004.png,NA,NA,NA,NA,NA,NA,NA,NA,NA,NA,NA,NA,NA,NA,NA,NA,53.5,1.939599999,0,3,3,3,1,NA,NA,NA,NA,NA,NA,NA,NA,NA,NA,NA,NA,NA,NA,NA,NA
SUPAMT65935,336YQZE831DAHSNR48PO5RVKDSXM5C,B16B35FA-9ADD-4F27-8DFB-D72670E79B4C,2023-09-26_05h52.23.405,WP_VExplicitOC_LH,2022.2.5,Win32,20.98283604,NA,NA,NA,NA,NA,NA,NA,NA,NA,NA,NA,NA,NA,NA,NA,NA,NA,NA,scroll social media,005.png,NA,NA,NA,NA,NA,NA,NA,NA,NA,NA,NA,NA,NA,NA,NA,NA,74.25,2.04,0,4,4,4,1,NA,NA,NA,NA,NA,NA,NA,NA,NA,NA,NA,NA,NA,NA,NA,NA
SUPAMT65935,336YQZE831DAHSNR48PO5RVKDSXM5C,B16B35FA-9ADD-4F27-8DFB-D72670E79B4C,2023-09-26_05h52.23.405,WP_VExplicitOC_LH,2022.2.5,Win32,20.98283604,NA,NA,NA,NA,NA,NA,NA,NA,NA,NA,NA,NA,NA,NA,NA,NA,NA,NA,listen to music,006.png,NA,NA,NA,NA,NA,NA,NA,NA,NA,NA,NA,NA,NA,NA,NA,NA,64.5,2.1022,0,5,5,5,1,NA,NA,NA,NA,NA,NA,NA,NA,NA,NA,NA,NA,NA,NA,NA,NA
SUPAMT65935,336YQZE831DAHSNR48PO5RVKDSXM5C,B16B35FA-9ADD-4F27-8DFB-D72670E79B4C,2023-09-26_05h52.23.405,WP_VExplicitOC_LH,2022.2.5,Win32,20.98283604,NA,NA,NA,NA,NA,NA,NA,NA,NA,NA,NA,NA,NA,NA,NA,NA,NA,NA,daydream,007.png,NA,NA,NA,NA,NA,NA,NA,NA,NA,NA,NA,NA,NA,NA,NA,NA,76.75,1.4111,0,6,6,6,1,NA,NA,NA,NA,NA,NA,NA,NA,NA,NA,NA,NA,NA,NA,NA,NA
SUPAMT65935,336YQZE831DAHSNR48PO5RVKDSXM5C,B16B35FA-9ADD-4F27-8DFB-D72670E79B4C,2023-09-26_05h52.23.405,WP_VExplicitOC_LH,2022.2.5,Win32,20.98283604,NA,NA,NA,NA,NA,NA,NA,NA,NA,NA,NA,NA,NA,NA,NA,NA,NA,NA,watch a short animation,008.png,NA,NA,NA,NA,NA,NA,NA,NA,NA,NA,NA,NA,NA,NA,NA,NA,55,1.5365,0,7,7,7,1,NA,NA,NA,NA,NA,NA,NA,NA,NA,NA,NA,NA,NA,NA,NA,NA
SUPAMT65935,336YQZE831DAHSNR48PO5RVKDSXM5C,B16B35FA-9ADD-4F27-8DFB-D72670E79B4C,2023-09-26_05h52.23.405,WP_VExplicitOC_LH,2022.2.5,Win32,20.98283604,NA,NA,NA,NA,NA,NA,NA,NA,NA,NA,NA,NA,NA,NA,NA,NA,NA,NA,read a novel,009.png,NA,NA,NA,NA,NA,NA,NA,NA,NA,NA,NA,NA,NA,NA,NA,NA,89.25,2.153,0,8,8,8,1,NA,NA,NA,NA,NA,NA,NA,NA,NA,NA,NA,NA,NA,NA,NA,NA
SUPAMT65935,336YQZE831DAHSNR48PO5RVKDSXM5C,B16B35FA-9ADD-4F27-8DFB-D72670E79B4C,2023-09-26_05h52.23.405,WP_VExplicitOC_LH,2022.2.5,Win32,20.98283604,NA,NA,NA,NA,NA,NA,NA,NA,NA,NA,NA,NA,NA,NA,NA,NA,NA,NA,read the news,010.png,NA,NA,NA,NA,NA,NA,NA,NA,NA,NA,NA,NA,NA,NA,NA,NA,61.25,1.3224,0,9,9,9,1,NA,NA,NA,NA,NA,NA,NA,NA,NA,NA,NA,NA,NA,NA,NA,NA
SUPAMT65935,336YQZE831DAHSNR48PO5RVKDSXM5C,B16B35FA-9ADD-4F27-8DFB-D72670E79B4C,2023-09-26_05h52.23.405,WP_VExplicitOC_LH,2022.2.5,Win32,20.98283604,NA,NA,NA,NA,NA,NA,NA,NA,NA,NA,NA,NA,NA,NA,NA,NA,NA,NA,NA,NA,NA,NA,NA,NA,NA,NA,NA,NA,NA,NA,NA,NA,NA,NA,NA,NA,NA,NA,NA,NA,NA,NA,NA,read a novel,NA,NA,NA,NA,NA,NA,NA,NA,NA,NA,NA,NA,NA,NA,NA
SUPAMT65935,336YQZE831DAHSNR48PO5RVKDSXM5C,B16B35FA-9ADD-4F27-8DFB-D72670E79B4C,2023-09-26_05h52.23.405,WP_VExplicitOC_LH,2022.2.5,Win32,20.98283604,100,4.111700001,2.0271,NA,NA,NA,NA,NA,bored,"bored, not bored","more bored, less bored",NA,NA,NA,NA,NA,NA,NA,NA,NA,NA,NA,NA,NA,NA,NA,NA,NA,NA,NA,NA,NA,NA,NA,NA,NA,NA,NA,NA,NA,NA,NA,NA,NA,0,0,0,2,1,NA,NA,NA,NA,NA,NA,NA,NA,NA,NA
SUPAMT65935,336YQZE831DAHSNR48PO5RVKDSXM5C,B16B35FA-9ADD-4F27-8DFB-D72670E79B4C,2023-09-26_05h52.23.405,WP_VExplicitOC_LH,2022.2.5,Win32,20.98283604,100,3.5836,2.0127,NA,NA,NA,NA,NA,happy,"unhappy, happy","less happy, more happy",NA,NA,NA,NA,NA,NA,NA,NA,NA,NA,NA,NA,NA,NA,NA,NA,NA,NA,NA,NA,NA,NA,NA,NA,NA,NA,NA,NA,NA,NA,NA,NA,NA,0,1,1,0,1,NA,NA,NA,NA,NA,NA,NA,NA,NA,NA
SUPAMT65935,336YQZE831DAHSNR48PO5RVKDSXM5C,B16B35FA-9ADD-4F27-8DFB-D72670E79B4C,2023-09-26_05h52.23.405,WP_VExplicitOC_LH,2022.2.5,Win32,20.98283604,100,3.4604,2.021599999,NA,NA,NA,NA,NA,frustrated,"frustrated, not frustrated","more frustrated, less frustrated",NA,NA,NA,NA,NA,NA,NA,NA,NA,NA,NA,NA,NA,NA,NA,NA,NA,NA,NA,NA,NA,NA,NA,NA,NA,NA,NA,NA,NA,NA,NA,NA,NA,0,2,2,1,1,NA,NA,NA,NA,NA,NA,NA,NA,NA,NA
SUPAMT65935,336YQZE831DAHSNR48PO5RVKDSXM5C,B16B35FA-9ADD-4F27-8DFB-D72670E79B4C,2023-09-26_05h52.23.405,WP_VExplicitOC_LH,2022.2.5,Win32,20.98283604,NA,NA,NA,NA,NA,NA,NA,NA,NA,NA,NA,NA,NA,NA,NA,NA,NA,NA,NA,NA,NA,NA,NA,NA,NA,NA,NA,NA,NA,NA,NA,NA,NA,NA,NA,NA,NA,NA,NA,NA,NA,NA,NA,NA,NA,NA,NA,NA,NA,NA,NA,NA,NA,NA,NA,NA,NA,NA,NA
SUPAMT65935,336YQZE831DAHSNR48PO5RVKDSXM5C,B16B35FA-9ADD-4F27-8DFB-D72670E79B4C,2023-09-26_05h52.23.405,WP_VExplicitOC_LH,2022.2.5,Win32,20.98283604,NA,NA,NA,NA,NA,NA,NA,NA,NA,NA,NA,NA,NA,NA,NA,NA,NA,NA,NA,NA,NA,NA,NA,NA,NA,NA,NA,NA,NA,NA,NA,NA,NA,NA,NA,NA,NA,NA,NA,NA,NA,NA,NA,NA,NA,NA,NA,NA,NA,NA,NA,NA,NA,NA,NA,NA,NA,NA,NA
SUPAMT65935,336YQZE831DAHSNR48PO5RVKDSXM5C,B16B35FA-9ADD-4F27-8DFB-D72670E79B4C,2023-09-26_05h52.23.405,WP_VExplicitOC_LH,2022.2.5,Win32,20.98283604,99.75,3.7007,2.064,NA,NA,NA,NA,NA,bored,"bored, not bored","more bored, less bored",NA,NA,NA,NA,NA,NA,NA,NA,NA,NA,NA,NA,NA,NA,NA,NA,NA,NA,NA,NA,NA,NA,NA,NA,NA,NA,NA,NA,NA,NA,NA,NA,NA,NA,NA,NA,NA,NA,0,0,0,2,1,NA,NA,NA,NA,NA
SUPAMT65935,336YQZE831DAHSNR48PO5RVKDSXM5C,B16B35FA-9ADD-4F27-8DFB-D72670E79B4C,2023-09-26_05h52.23.405,WP_VExplicitOC_LH,2022.2.5,Win32,20.98283604,96.25,6.8098,2.058900001,NA,NA,NA,NA,NA,happy,"unhappy, happy","less happy, more happy",NA,NA,NA,NA,NA,NA,NA,NA,NA,NA,NA,NA,NA,NA,NA,NA,NA,NA,NA,NA,NA,NA,NA,NA,NA,NA,NA,NA,NA,NA,NA,NA,NA,NA,NA,NA,NA,NA,0,1,1,0,1,NA,NA,NA,NA,NA
SUPAMT65935,336YQZE831DAHSNR48PO5RVKDSXM5C,B16B35FA-9ADD-4F27-8DFB-D72670E79B4C,2023-09-26_05h52.23.405,WP_VExplicitOC_LH,2022.2.5,Win32,20.98283604,99.5,3.551599999,2.047099999,NA,NA,NA,NA,NA,frustrated,"frustrated, not frustrated","more frustrated, less frustrated",NA,NA,NA,NA,NA,NA,NA,NA,NA,NA,NA,NA,NA,NA,NA,NA,NA,NA,NA,NA,NA,NA,NA,NA,NA,NA,NA,NA,NA,NA,NA,NA,NA,NA,NA,NA,NA,NA,0,2,2,1,1,NA,NA,NA,NA,NA
SUPAMT65935,336YQZE831DAHSNR48PO5RVKDSXM5C,B16B35FA-9ADD-4F27-8DFB-D72670E79B4C,2023-09-26_05h52.23.405,WP_VExplicitOC_LH,2022.2.5,Win32,20.98283604,NA,NA,NA,NA,NA,NA,NA,NA,NA,NA,NA,NA,NA,NA,NA,NA,NA,NA,NA,NA,NA,NA,NA,NA,NA,NA,NA,NA,NA,NA,NA,NA,NA,NA,NA,NA,NA,NA,NA,NA,NA,NA,NA,NA,NA,NA,NA,NA,NA,NA,NA,NA,NA,NA,0,0,0,0,1
SUPAMT65935,336YQZE831DAHSNR48PO5RVKDSXM5C,B16B35FA-9ADD-4F27-8DFB-D72670E79B4C,2023-09-26_05h52.23.405,WP_VExplicitOC_LH,2022.2.5,Win32,20.98283604,74,3.8341,2.020599999,NA,NA,NA,NA,NA,bored,"bored, not bored","more bored, less bored",NA,NA,NA,NA,NA,NA,NA,NA,NA,NA,NA,NA,NA,NA,NA,NA,NA,NA,NA,NA,NA,NA,NA,NA,NA,NA,NA,NA,NA,NA,NA,NA,NA,NA,NA,NA,NA,NA,0,0,0,2,1,NA,NA,NA,NA,NA
SUPAMT65935,336YQZE831DAHSNR48PO5RVKDSXM5C,B16B35FA-9ADD-4F27-8DFB-D72670E79B4C,2023-09-26_05h52.23.405,WP_VExplicitOC_LH,2022.2.5,Win32,20.98283604,55.25,3.807599999,2.031099999,NA,NA,NA,NA,NA,frustrated,"frustrated, not frustrated","more frustrated, less frustrated",NA,NA,NA,NA,NA,NA,NA,NA,NA,NA,NA,NA,NA,NA,NA,NA,NA,NA,NA,NA,NA,NA,NA,NA,NA,NA,NA,NA,NA,NA,NA,NA,NA,NA,NA,NA,NA,NA,0,1,1,1,1,NA,NA,NA,NA,NA
SUPAMT65935,336YQZE831DAHSNR48PO5RVKDSXM5C,B16B35FA-9ADD-4F27-8DFB-D72670E79B4C,2023-09-26_05h52.23.405,WP_VExplicitOC_LH,2022.2.5,Win32,20.98283604,99.25,3.4912,2.0173,NA,NA,NA,NA,NA,happy,"unhappy, happy","less happy, more happy",NA,NA,NA,NA,NA,NA,NA,NA,NA,NA,NA,NA,NA,NA,NA,NA,NA,NA,NA,NA,NA,NA,NA,NA,NA,NA,NA,NA,NA,NA,NA,NA,NA,NA,NA,NA,NA,NA,0,2,2,0,1,NA,NA,NA,NA,NA
SUPAMT65935,336YQZE831DAHSNR48PO5RVKDSXM5C,B16B35FA-9ADD-4F27-8DFB-D72670E79B4C,2023-09-26_05h52.23.405,WP_VExplicitOC_LH,2022.2.5,Win32,20.98283604,NA,NA,NA,NA,NA,NA,NA,NA,NA,NA,NA,NA,NA,NA,NA,NA,NA,NA,NA,NA,NA,NA,NA,NA,NA,NA,NA,NA,NA,NA,NA,NA,NA,NA,NA,NA,NA,NA,NA,NA,NA,NA,NA,NA,NA,NA,NA,NA,NA,NA,NA,NA,NA,NA,1,0,1,0,1
SUPAMT65935,336YQZE831DAHSNR48PO5RVKDSXM5C,B16B35FA-9ADD-4F27-8DFB-D72670E79B4C,2023-09-26_05h52.23.405,WP_VExplicitOC_LH,2022.2.5,Win32,20.98283604,82.75,3.8697,2.0122,NA,NA,NA,NA,NA,happy,"unhappy, happy","less happy, more happy",NA,NA,NA,NA,NA,NA,NA,NA,NA,NA,NA,NA,NA,NA,NA,NA,NA,NA,NA,NA,NA,NA,NA,NA,NA,NA,NA,NA,NA,NA,NA,NA,NA,NA,NA,NA,NA,NA,0,0,0,0,1,NA,NA,NA,NA,NA
SUPAMT65935,336YQZE831DAHSNR48PO5RVKDSXM5C,B16B35FA-9ADD-4F27-8DFB-D72670E79B4C,2023-09-26_05h52.23.405,WP_VExplicitOC_LH,2022.2.5,Win32,20.98283604,67.75,3.561400001,2.0574,NA,NA,NA,NA,NA,frustrated,"frustrated, not frustrated","more frustrated, less frustrated",NA,NA,NA,NA,NA,NA,NA,NA,NA,NA,NA,NA,NA,NA,NA,NA,NA,NA,NA,NA,NA,NA,NA,NA,NA,NA,NA,NA,NA,NA,NA,NA,NA,NA,NA,NA,NA,NA,0,1,1,1,1,NA,NA,NA,NA,NA
SUPAMT65935,336YQZE831DAHSNR48PO5RVKDSXM5C,B16B35FA-9ADD-4F27-8DFB-D72670E79B4C,2023-09-26_05h52.23.405,WP_VExplicitOC_LH,2022.2.5,Win32,20.98283604,80.75,3.3335,2.057799999,NA,NA,NA,NA,NA,bored,"bored, not bored","more bored, less bored",NA,NA,NA,NA,NA,NA,NA,NA,NA,NA,NA,NA,NA,NA,NA,NA,NA,NA,NA,NA,NA,NA,NA,NA,NA,NA,NA,NA,NA,NA,NA,NA,NA,NA,NA,NA,NA,NA,0,2,2,2,1,NA,NA,NA,NA,NA
SUPAMT65935,336YQZE831DAHSNR48PO5RVKDSXM5C,B16B35FA-9ADD-4F27-8DFB-D72670E79B4C,2023-09-26_05h52.23.405,WP_VExplicitOC_LH,2022.2.5,Win32,20.98283604,NA,NA,NA,NA,NA,NA,NA,NA,NA,NA,NA,NA,NA,NA,NA,NA,NA,NA,NA,NA,NA,NA,NA,NA,NA,NA,NA,NA,NA,NA,NA,NA,NA,NA,NA,NA,NA,NA,NA,NA,NA,NA,NA,NA,NA,NA,NA,NA,NA,NA,NA,NA,NA,NA,2,0,2,0,1
SUPAMT65935,336YQZE831DAHSNR48PO5RVKDSXM5C,B16B35FA-9ADD-4F27-8DFB-D72670E79B4C,2023-09-26_05h52.23.405,WP_VExplicitOC_LH,2022.2.5,Win32,20.98283604,82.75,4.3795,2.0061,NA,NA,NA,NA,NA,bored,"bored, not bored","more bored, less bored",NA,NA,NA,NA,NA,NA,NA,NA,NA,NA,NA,NA,NA,NA,NA,NA,NA,NA,NA,NA,NA,NA,NA,NA,NA,NA,NA,NA,NA,NA,NA,NA,NA,NA,NA,NA,NA,NA,0,0,0,2,1,NA,NA,NA,NA,NA
SUPAMT65935,336YQZE831DAHSNR48PO5RVKDSXM5C,B16B35FA-9ADD-4F27-8DFB-D72670E79B4C,2023-09-26_05h52.23.405,WP_VExplicitOC_LH,2022.2.5,Win32,20.98283604,59,3.6267,2.0159,NA,NA,NA,NA,NA,frustrated,"frustrated, not frustrated","more frustrated, less frustrated",NA,NA,NA,NA,NA,NA,NA,NA,NA,NA,NA,NA,NA,NA,NA,NA,NA,NA,NA,NA,NA,NA,NA,NA,NA,NA,NA,NA,NA,NA,NA,NA,NA,NA,NA,NA,NA,NA,0,1,1,1,1,NA,NA,NA,NA,NA
SUPAMT65935,336YQZE831DAHSNR48PO5RVKDSXM5C,B16B35FA-9ADD-4F27-8DFB-D72670E79B4C,2023-09-26_05h52.23.405,WP_VExplicitOC_LH,2022.2.5,Win32,20.98283604,94.25,3.406,2.0819,NA,NA,NA,NA,NA,happy,"unhappy, happy","less happy, more happy",NA,NA,NA,NA,NA,NA,NA,NA,NA,NA,NA,NA,NA,NA,NA,NA,NA,NA,NA,NA,NA,NA,NA,NA,NA,NA,NA,NA,NA,NA,NA,NA,NA,NA,NA,NA,NA,NA,0,2,2,0,1,NA,NA,NA,NA,NA
SUPAMT65935,336YQZE831DAHSNR48PO5RVKDSXM5C,B16B35FA-9ADD-4F27-8DFB-D72670E79B4C,2023-09-26_05h52.23.405,WP_VExplicitOC_LH,2022.2.5,Win32,20.98283604,NA,NA,NA,NA,NA,NA,NA,NA,NA,NA,NA,NA,NA,NA,NA,NA,NA,NA,NA,NA,NA,NA,NA,NA,NA,NA,NA,NA,NA,NA,NA,NA,NA,NA,NA,NA,NA,NA,NA,NA,NA,NA,NA,NA,NA,NA,NA,NA,NA,NA,NA,NA,NA,NA,3,0,3,0,1
SUPAMT65935,336YQZE831DAHSNR48PO5RVKDSXM5C,B16B35FA-9ADD-4F27-8DFB-D72670E79B4C,2023-09-26_05h52.23.405,WP_VExplicitOC_LH,2022.2.5,Win32,20.98283604,76.5,3.569,2.0109,NA,NA,NA,NA,NA,happy,"unhappy, happy","less happy, more happy",NA,NA,NA,NA,NA,NA,NA,NA,NA,NA,NA,NA,NA,NA,NA,NA,NA,NA,NA,NA,NA,NA,NA,NA,NA,NA,NA,NA,NA,NA,NA,NA,NA,NA,NA,NA,NA,NA,0,0,0,0,1,NA,NA,NA,NA,NA
SUPAMT65935,336YQZE831DAHSNR48PO5RVKDSXM5C,B16B35FA-9ADD-4F27-8DFB-D72670E79B4C,2023-09-26_05h52.23.405,WP_VExplicitOC_LH,2022.2.5,Win32,20.98283604,45,3.299299999,2.0318,NA,NA,NA,NA,NA,frustrated,"frustrated, not frustrated","more frustrated, less frustrated",NA,NA,NA,NA,NA,NA,NA,NA,NA,NA,NA,NA,NA,NA,NA,NA,NA,NA,NA,NA,NA,NA,NA,NA,NA,NA,NA,NA,NA,NA,NA,NA,NA,NA,NA,NA,NA,NA,0,1,1,1,1,NA,NA,NA,NA,NA
SUPAMT65935,336YQZE831DAHSNR48PO5RVKDSXM5C,B16B35FA-9ADD-4F27-8DFB-D72670E79B4C,2023-09-26_05h52.23.405,WP_VExplicitOC_LH,2022.2.5,Win32,20.98283604,86.75,4.465099999,2.0604,NA,NA,NA,NA,NA,bored,"bored, not bored","more bored, less bored",NA,NA,NA,NA,NA,NA,NA,NA,NA,NA,NA,NA,NA,NA,NA,NA,NA,NA,NA,NA,NA,NA,NA,NA,NA,NA,NA,NA,NA,NA,NA,NA,NA,NA,NA,NA,NA,NA,0,2,2,2,1,NA,NA,NA,NA,NA
SUPAMT65935,336YQZE831DAHSNR48PO5RVKDSXM5C,B16B35FA-9ADD-4F27-8DFB-D72670E79B4C,2023-09-26_05h52.23.405,WP_VExplicitOC_LH,2022.2.5,Win32,20.98283604,NA,NA,NA,NA,NA,NA,NA,NA,NA,NA,NA,NA,NA,NA,NA,NA,NA,NA,NA,NA,NA,NA,NA,NA,NA,NA,NA,NA,NA,NA,NA,NA,NA,NA,NA,NA,NA,NA,NA,NA,NA,NA,NA,NA,NA,NA,NA,NA,NA,NA,NA,NA,NA,NA,4,0,4,0,1
SUPAMT65935,336YQZE831DAHSNR48PO5RVKDSXM5C,B16B35FA-9ADD-4F27-8DFB-D72670E79B4C,2023-09-26_05h52.23.405,WP_VExplicitOC_LH,2022.2.5,Win32,20.98283604,72.5,4.3355,2.0083,NA,NA,NA,NA,NA,frustrated,"frustrated, not frustrated","more frustrated, less frustrated",NA,NA,NA,NA,NA,NA,NA,NA,NA,NA,NA,NA,NA,NA,NA,NA,NA,NA,NA,NA,NA,NA,NA,NA,NA,NA,NA,NA,NA,NA,NA,NA,NA,NA,NA,NA,NA,NA,0,0,0,1,1,NA,NA,NA,NA,NA
SUPAMT65935,336YQZE831DAHSNR48PO5RVKDSXM5C,B16B35FA-9ADD-4F27-8DFB-D72670E79B4C,2023-09-26_05h52.23.405,WP_VExplicitOC_LH,2022.2.5,Win32,20.98283604,93.5,3.9006,2.050400001,NA,NA,NA,NA,NA,bored,"bored, not bored","more bored, less bored",NA,NA,NA,NA,NA,NA,NA,NA,NA,NA,NA,NA,NA,NA,NA,NA,NA,NA,NA,NA,NA,NA,NA,NA,NA,NA,NA,NA,NA,NA,NA,NA,NA,NA,NA,NA,NA,NA,0,1,1,2,1,NA,NA,NA,NA,NA
SUPAMT65935,336YQZE831DAHSNR48PO5RVKDSXM5C,B16B35FA-9ADD-4F27-8DFB-D72670E79B4C,2023-09-26_05h52.23.405,WP_VExplicitOC_LH,2022.2.5,Win32,20.98283604,68.75,3.7903,2.0195,NA,NA,NA,NA,NA,happy,"unhappy, happy","less happy, more happy",NA,NA,NA,NA,NA,NA,NA,NA,NA,NA,NA,NA,NA,NA,NA,NA,NA,NA,NA,NA,NA,NA,NA,NA,NA,NA,NA,NA,NA,NA,NA,NA,NA,NA,NA,NA,NA,NA,0,2,2,0,1,NA,NA,NA,NA,NA
SUPAMT65935,336YQZE831DAHSNR48PO5RVKDSXM5C,B16B35FA-9ADD-4F27-8DFB-D72670E79B4C,2023-09-26_05h52.23.405,WP_VExplicitOC_LH,2022.2.5,Win32,20.98283604,NA,NA,NA,NA,NA,NA,NA,NA,NA,NA,NA,NA,NA,NA,NA,NA,NA,NA,NA,NA,NA,NA,NA,NA,NA,NA,NA,NA,NA,NA,NA,NA,NA,NA,NA,NA,NA,NA,NA,NA,NA,NA,NA,NA,NA,NA,NA,NA,NA,NA,NA,NA,NA,NA,5,0,5,0,1
SUPAMT65935,336YQZE831DAHSNR48PO5RVKDSXM5C,B16B35FA-9ADD-4F27-8DFB-D72670E79B4C,2023-09-26_05h52.23.405,WP_VExplicitOC_LH,2022.2.5,Win32,20.98283604,81.25,4.3666,2.0582,NA,NA,NA,NA,NA,bored,"bored, not bored","more bored, less bored",NA,NA,NA,NA,NA,NA,NA,NA,NA,NA,NA,NA,NA,NA,NA,NA,NA,NA,NA,NA,NA,NA,NA,NA,NA,NA,NA,NA,NA,NA,NA,NA,NA,NA,NA,NA,NA,NA,0,0,0,2,1,NA,NA,NA,NA,NA
SUPAMT65935,336YQZE831DAHSNR48PO5RVKDSXM5C,B16B35FA-9ADD-4F27-8DFB-D72670E79B4C,2023-09-26_05h52.23.405,WP_VExplicitOC_LH,2022.2.5,Win32,20.98283604,100,3.8052,2.048299999,NA,NA,NA,NA,NA,frustrated,"frustrated, not frustrated","more frustrated, less frustrated",NA,NA,NA,NA,NA,NA,NA,NA,NA,NA,NA,NA,NA,NA,NA,NA,NA,NA,NA,NA,NA,NA,NA,NA,NA,NA,NA,NA,NA,NA,NA,NA,NA,NA,NA,NA,NA,NA,0,1,1,1,1,NA,NA,NA,NA,NA
SUPAMT65935,336YQZE831DAHSNR48PO5RVKDSXM5C,B16B35FA-9ADD-4F27-8DFB-D72670E79B4C,2023-09-26_05h52.23.405,WP_VExplicitOC_LH,2022.2.5,Win32,20.98283604,89.25,3.6905,2.036400001,NA,NA,NA,NA,NA,happy,"unhappy, happy","less happy, more happy",NA,NA,NA,NA,NA,NA,NA,NA,NA,NA,NA,NA,NA,NA,NA,NA,NA,NA,NA,NA,NA,NA,NA,NA,NA,NA,NA,NA,NA,NA,NA,NA,NA,NA,NA,NA,NA,NA,0,2,2,0,1,NA,NA,NA,NA,NA
SUPAMT65935,336YQZE831DAHSNR48PO5RVKDSXM5C,B16B35FA-9ADD-4F27-8DFB-D72670E79B4C,2023-09-26_05h52.23.405,WP_VExplicitOC_LH,2022.2.5,Win32,20.98283604,NA,NA,NA,NA,NA,NA,NA,NA,NA,NA,NA,NA,NA,NA,NA,NA,NA,NA,NA,NA,NA,NA,NA,NA,NA,NA,NA,NA,NA,NA,NA,NA,NA,NA,NA,NA,NA,NA,NA,NA,NA,NA,NA,NA,NA,NA,NA,NA,NA,NA,NA,NA,NA,NA,6,0,6,0,1
SUPAMT65935,336YQZE831DAHSNR48PO5RVKDSXM5C,B16B35FA-9ADD-4F27-8DFB-D72670E79B4C,2023-09-26_05h52.23.405,WP_VExplicitOC_LH,2022.2.5,Win32,20.98283604,100,4.273400001,2.0673,NA,NA,NA,NA,NA,happy,"unhappy, happy","less happy, more happy",NA,NA,NA,NA,NA,NA,NA,NA,NA,NA,NA,NA,NA,NA,NA,NA,NA,NA,NA,NA,NA,NA,NA,NA,NA,NA,NA,NA,NA,NA,NA,NA,NA,NA,NA,NA,NA,NA,0,0,0,0,1,NA,NA,NA,NA,NA
SUPAMT65935,336YQZE831DAHSNR48PO5RVKDSXM5C,B16B35FA-9ADD-4F27-8DFB-D72670E79B4C,2023-09-26_05h52.23.405,WP_VExplicitOC_LH,2022.2.5,Win32,20.98283604,100,3.7988,2.000900001,NA,NA,NA,NA,NA,bored,"bored, not bored","more bored, less bored",NA,NA,NA,NA,NA,NA,NA,NA,NA,NA,NA,NA,NA,NA,NA,NA,NA,NA,NA,NA,NA,NA,NA,NA,NA,NA,NA,NA,NA,NA,NA,NA,NA,NA,NA,NA,NA,NA,0,1,1,2,1,NA,NA,NA,NA,NA
SUPAMT65935,336YQZE831DAHSNR48PO5RVKDSXM5C,B16B35FA-9ADD-4F27-8DFB-D72670E79B4C,2023-09-26_05h52.23.405,WP_VExplicitOC_LH,2022.2.5,Win32,20.98283604,100,3.642,2.003099999,NA,NA,NA,NA,NA,frustrated,"frustrated, not frustrated","more frustrated, less frustrated",NA,NA,NA,NA,NA,NA,NA,NA,NA,NA,NA,NA,NA,NA,NA,NA,NA,NA,NA,NA,NA,NA,NA,NA,NA,NA,NA,NA,NA,NA,NA,NA,NA,NA,NA,NA,NA,NA,0,2,2,1,1,NA,NA,NA,NA,NA
SUPAMT65935,336YQZE831DAHSNR48PO5RVKDSXM5C,B16B35FA-9ADD-4F27-8DFB-D72670E79B4C,2023-09-26_05h52.23.405,WP_VExplicitOC_LH,2022.2.5,Win32,20.98283604,NA,NA,NA,NA,NA,NA,NA,NA,NA,NA,NA,NA,NA,NA,NA,NA,NA,NA,NA,NA,NA,NA,NA,NA,NA,NA,NA,NA,NA,NA,NA,NA,NA,NA,NA,NA,NA,NA,NA,NA,NA,NA,NA,NA,NA,NA,NA,NA,NA,NA,NA,NA,NA,NA,7,0,7,0,1
SUPAMT65935,336YQZE831DAHSNR48PO5RVKDSXM5C,B16B35FA-9ADD-4F27-8DFB-D72670E79B4C,2023-09-26_05h52.23.405,WP_VExplicitOC_LH,2022.2.5,Win32,20.98283604,100,4.0848,2.0112,NA,NA,NA,NA,NA,bored,"bored, not bored","more bored, less bored",NA,NA,NA,NA,NA,NA,NA,NA,NA,NA,NA,NA,NA,NA,NA,NA,NA,NA,NA,NA,NA,NA,NA,NA,NA,NA,NA,NA,NA,NA,NA,NA,NA,NA,NA,NA,NA,NA,0,0,0,2,1,NA,NA,NA,NA,NA
SUPAMT65935,336YQZE831DAHSNR48PO5RVKDSXM5C,B16B35FA-9ADD-4F27-8DFB-D72670E79B4C,2023-09-26_05h52.23.405,WP_VExplicitOC_LH,2022.2.5,Win32,20.98283604,100,3.329099999,2.0289,NA,NA,NA,NA,NA,frustrated,"frustrated, not frustrated","more frustrated, less frustrated",NA,NA,NA,NA,NA,NA,NA,NA,NA,NA,NA,NA,NA,NA,NA,NA,NA,NA,NA,NA,NA,NA,NA,NA,NA,NA,NA,NA,NA,NA,NA,NA,NA,NA,NA,NA,NA,NA,0,1,1,1,1,NA,NA,NA,NA,NA
SUPAMT65935,336YQZE831DAHSNR48PO5RVKDSXM5C,B16B35FA-9ADD-4F27-8DFB-D72670E79B4C,2023-09-26_05h52.23.405,WP_VExplicitOC_LH,2022.2.5,Win32,20.98283604,100,3.8192,2.0231,NA,NA,NA,NA,NA,happy,"unhappy, happy","less happy, more happy",NA,NA,NA,NA,NA,NA,NA,NA,NA,NA,NA,NA,NA,NA,NA,NA,NA,NA,NA,NA,NA,NA,NA,NA,NA,NA,NA,NA,NA,NA,NA,NA,NA,NA,NA,NA,NA,NA,0,2,2,0,1,NA,NA,NA,NA,NA
SUPAMT65935,336YQZE831DAHSNR48PO5RVKDSXM5C,B16B35FA-9ADD-4F27-8DFB-D72670E79B4C,2023-09-26_05h52.23.405,WP_VExplicitOC_LH,2022.2.5,Win32,20.98283604,NA,NA,NA,NA,NA,NA,NA,NA,NA,NA,NA,NA,NA,NA,NA,NA,NA,NA,NA,NA,NA,NA,NA,NA,NA,NA,NA,NA,NA,NA,NA,NA,NA,NA,NA,NA,NA,NA,NA,NA,NA,NA,NA,NA,NA,NA,NA,NA,NA,NA,NA,NA,NA,NA,8,0,8,0,1
SUPAMT65935,336YQZE831DAHSNR48PO5RVKDSXM5C,B16B35FA-9ADD-4F27-8DFB-D72670E79B4C,2023-09-26_05h52.23.405,WP_VExplicitOC_LH,2022.2.5,Win32,20.98283604,100,3.7359,2.062599999,NA,NA,NA,NA,NA,bored,"bored, not bored","more bored, less bored",NA,NA,NA,NA,NA,NA,NA,NA,NA,NA,NA,NA,NA,NA,NA,NA,NA,NA,NA,NA,NA,NA,NA,NA,NA,NA,NA,NA,NA,NA,NA,NA,NA,NA,NA,NA,NA,NA,0,0,0,2,1,NA,NA,NA,NA,NA
SUPAMT65935,336YQZE831DAHSNR48PO5RVKDSXM5C,B16B35FA-9ADD-4F27-8DFB-D72670E79B4C,2023-09-26_05h52.23.405,WP_VExplicitOC_LH,2022.2.5,Win32,20.98283604,100,3.439,2.019,NA,NA,NA,NA,NA,happy,"unhappy, happy","less happy, more happy",NA,NA,NA,NA,NA,NA,NA,NA,NA,NA,NA,NA,NA,NA,NA,NA,NA,NA,NA,NA,NA,NA,NA,NA,NA,NA,NA,NA,NA,NA,NA,NA,NA,NA,NA,NA,NA,NA,0,1,1,0,1,NA,NA,NA,NA,NA
SUPAMT65935,336YQZE831DAHSNR48PO5RVKDSXM5C,B16B35FA-9ADD-4F27-8DFB-D72670E79B4C,2023-09-26_05h52.23.405,WP_VExplicitOC_LH,2022.2.5,Win32,20.98283604,100,3.655299999,2.0025,NA,NA,NA,NA,NA,frustrated,"frustrated, not frustrated","more frustrated, less frustrated",NA,NA,NA,NA,NA,NA,NA,NA,NA,NA,NA,NA,NA,NA,NA,NA,NA,NA,NA,NA,NA,NA,NA,NA,NA,NA,NA,NA,NA,NA,NA,NA,NA,NA,NA,NA,NA,NA,0,2,2,1,1,NA,NA,NA,NA,NA
SUPAMT65935,336YQZE831DAHSNR48PO5RVKDSXM5C,B16B35FA-9ADD-4F27-8DFB-D72670E79B4C,2023-09-26_05h52.23.405,WP_VExplicitOC_LH,2022.2.5,Win32,20.98283604,NA,NA,NA,NA,NA,NA,NA,NA,NA,NA,NA,NA,NA,NA,NA,NA,NA,NA,NA,NA,NA,NA,NA,NA,NA,NA,NA,NA,NA,NA,NA,NA,NA,NA,NA,NA,NA,NA,NA,NA,NA,NA,NA,NA,NA,NA,NA,NA,NA,NA,NA,NA,NA,NA,9,0,9,0,1
SUPAMT65935,336YQZE831DAHSNR48PO5RVKDSXM5C,B16B35FA-9ADD-4F27-8DFB-D72670E79B4C,2023-09-26_05h52.23.405,WP_VExplicitOC_LH,2022.2.5,Win32,20.98283604,100,5.0431,2.0537,NA,NA,NA,NA,NA,frustrated,"frustrated, not frustrated","more frustrated, less frustrated",NA,NA,NA,NA,NA,NA,NA,NA,NA,NA,NA,NA,NA,NA,NA,NA,NA,NA,NA,NA,NA,NA,NA,NA,NA,NA,NA,NA,NA,NA,NA,NA,NA,NA,NA,NA,NA,NA,0,0,0,1,1,NA,NA,NA,NA,NA
SUPAMT65935,336YQZE831DAHSNR48PO5RVKDSXM5C,B16B35FA-9ADD-4F27-8DFB-D72670E79B4C,2023-09-26_05h52.23.405,WP_VExplicitOC_LH,2022.2.5,Win32,20.98283604,100,3.2958,2.024,NA,NA,NA,NA,NA,happy,"unhappy, happy","less happy, more happy",NA,NA,NA,NA,NA,NA,NA,NA,NA,NA,NA,NA,NA,NA,NA,NA,NA,NA,NA,NA,NA,NA,NA,NA,NA,NA,NA,NA,NA,NA,NA,NA,NA,NA,NA,NA,NA,NA,0,1,1,0,1,NA,NA,NA,NA,NA
SUPAMT65935,336YQZE831DAHSNR48PO5RVKDSXM5C,B16B35FA-9ADD-4F27-8DFB-D72670E79B4C,2023-09-26_05h52.23.405,WP_VExplicitOC_LH,2022.2.5,Win32,20.98283604,100,3.372900001,2.0298,NA,NA,NA,NA,NA,bored,"bored, not bored","more bored, less bored",NA,NA,NA,NA,NA,NA,NA,NA,NA,NA,NA,NA,NA,NA,NA,NA,NA,NA,NA,NA,NA,NA,NA,NA,NA,NA,NA,NA,NA,NA,NA,NA,NA,NA,NA,NA,NA,NA,0,2,2,2,1,NA,NA,NA,NA,NA
SUPAMT65935,336YQZE831DAHSNR48PO5RVKDSXM5C,B16B35FA-9ADD-4F27-8DFB-D72670E79B4C,2023-09-26_05h52.23.405,WP_VExplicitOC_LH,2022.2.5,Win32,20.98283604,NA,NA,NA,NA,NA,NA,NA,NA,NA,NA,NA,NA,NA,NA,NA,NA,NA,NA,NA,NA,NA,NA,NA,NA,NA,NA,NA,NA,NA,NA,NA,NA,NA,NA,NA,NA,NA,NA,NA,NA,NA,NA,NA,NA,NA,NA,NA,NA,NA,NA,NA,NA,NA,NA,10,0,10,0,1
SUPAMT65935,336YQZE831DAHSNR48PO5RVKDSXM5C,B16B35FA-9ADD-4F27-8DFB-D72670E79B4C,2023-09-26_05h52.23.405,WP_VExplicitOC_LH,2022.2.5,Win32,20.98283604,91,3.4108,2.034,NA,NA,NA,NA,NA,bored,"bored, not bored","more bored, less bored",NA,NA,NA,NA,NA,NA,NA,NA,NA,NA,NA,NA,NA,NA,NA,NA,NA,NA,NA,NA,NA,NA,NA,NA,NA,NA,NA,NA,NA,NA,NA,NA,NA,NA,NA,NA,NA,NA,0,0,0,2,1,NA,NA,NA,NA,NA
SUPAMT65935,336YQZE831DAHSNR48PO5RVKDSXM5C,B16B35FA-9ADD-4F27-8DFB-D72670E79B4C,2023-09-26_05h52.23.405,WP_VExplicitOC_LH,2022.2.5,Win32,20.98283604,99.25,3.1782,2.0438,NA,NA,NA,NA,NA,happy,"unhappy, happy","less happy, more happy",NA,NA,NA,NA,NA,NA,NA,NA,NA,NA,NA,NA,NA,NA,NA,NA,NA,NA,NA,NA,NA,NA,NA,NA,NA,NA,NA,NA,NA,NA,NA,NA,NA,NA,NA,NA,NA,NA,0,1,1,0,1,NA,NA,NA,NA,NA
SUPAMT65935,336YQZE831DAHSNR48PO5RVKDSXM5C,B16B35FA-9ADD-4F27-8DFB-D72670E79B4C,2023-09-26_05h52.23.405,WP_VExplicitOC_LH,2022.2.5,Win32,20.98283604,83.25,3.287,2.0591,NA,NA,NA,NA,NA,frustrated,"frustrated, not frustrated","more frustrated, less frustrated",NA,NA,NA,NA,NA,NA,NA,NA,NA,NA,NA,NA,NA,NA,NA,NA,NA,NA,NA,NA,NA,NA,NA,NA,NA,NA,NA,NA,NA,NA,NA,NA,NA,NA,NA,NA,NA,NA,0,2,2,1,1,NA,NA,NA,NA,NA
SUPAMT65935,336YQZE831DAHSNR48PO5RVKDSXM5C,B16B35FA-9ADD-4F27-8DFB-D72670E79B4C,2023-09-26_05h52.23.405,WP_VExplicitOC_LH,2022.2.5,Win32,20.98283604,NA,NA,NA,NA,NA,NA,NA,NA,NA,NA,NA,NA,NA,NA,NA,NA,NA,NA,NA,NA,NA,NA,NA,NA,NA,NA,NA,NA,NA,NA,NA,NA,NA,NA,NA,NA,NA,NA,NA,NA,NA,NA,NA,NA,NA,NA,NA,NA,NA,NA,NA,NA,NA,NA,11,0,11,0,1
SUPAMT65935,336YQZE831DAHSNR48PO5RVKDSXM5C,B16B35FA-9ADD-4F27-8DFB-D72670E79B4C,2023-09-26_05h52.23.405,WP_VExplicitOC_LH,2022.2.5,Win32,20.98283604,100,3.911599999,2.038599999,NA,NA,NA,NA,NA,frustrated,"frustrated, not frustrated","more frustrated, less frustrated",NA,NA,NA,NA,NA,NA,NA,NA,NA,NA,NA,NA,NA,NA,NA,NA,NA,NA,NA,NA,NA,NA,NA,NA,NA,NA,NA,NA,NA,NA,NA,NA,NA,NA,NA,NA,NA,NA,0,0,0,1,1,NA,NA,NA,NA,NA
SUPAMT65935,336YQZE831DAHSNR48PO5RVKDSXM5C,B16B35FA-9ADD-4F27-8DFB-D72670E79B4C,2023-09-26_05h52.23.405,WP_VExplicitOC_LH,2022.2.5,Win32,20.98283604,100,4.3469,2.0205,NA,NA,NA,NA,NA,bored,"bored, not bored","more bored, less bored",NA,NA,NA,NA,NA,NA,NA,NA,NA,NA,NA,NA,NA,NA,NA,NA,NA,NA,NA,NA,NA,NA,NA,NA,NA,NA,NA,NA,NA,NA,NA,NA,NA,NA,NA,NA,NA,NA,0,1,1,2,1,NA,NA,NA,NA,NA
SUPAMT65935,336YQZE831DAHSNR48PO5RVKDSXM5C,B16B35FA-9ADD-4F27-8DFB-D72670E79B4C,2023-09-26_05h52.23.405,WP_VExplicitOC_LH,2022.2.5,Win32,20.98283604,100,4.3218,2.0063,NA,NA,NA,NA,NA,happy,"unhappy, happy","less happy, more happy",NA,NA,NA,NA,NA,NA,NA,NA,NA,NA,NA,NA,NA,NA,NA,NA,NA,NA,NA,NA,NA,NA,NA,NA,NA,NA,NA,NA,NA,NA,NA,NA,NA,NA,NA,NA,NA,NA,0,2,2,0,1,NA,NA,NA,NA,NA
SUPAMT65935,336YQZE831DAHSNR48PO5RVKDSXM5C,B16B35FA-9ADD-4F27-8DFB-D72670E79B4C,2023-09-26_05h52.23.405,WP_VExplicitOC_LH,2022.2.5,Win32,20.98283604,NA,NA,NA,NA,NA,NA,NA,NA,NA,NA,NA,NA,NA,NA,NA,NA,NA,NA,NA,NA,NA,NA,NA,NA,NA,NA,NA,NA,NA,NA,NA,NA,NA,NA,NA,NA,NA,NA,NA,NA,NA,NA,NA,NA,NA,NA,NA,NA,NA,NA,NA,NA,NA,NA,12,0,12,0,1
SUPAMT65935,336YQZE831DAHSNR48PO5RVKDSXM5C,B16B35FA-9ADD-4F27-8DFB-D72670E79B4C,2023-09-26_05h52.23.405,WP_VExplicitOC_LH,2022.2.5,Win32,20.98283604,100,4.6347,2.0083,NA,NA,NA,NA,NA,frustrated,"frustrated, not frustrated","more frustrated, less frustrated",NA,NA,NA,NA,NA,NA,NA,NA,NA,NA,NA,NA,NA,NA,NA,NA,NA,NA,NA,NA,NA,NA,NA,NA,NA,NA,NA,NA,NA,NA,NA,NA,NA,NA,NA,NA,NA,NA,0,0,0,1,1,NA,NA,NA,NA,NA
SUPAMT65935,336YQZE831DAHSNR48PO5RVKDSXM5C,B16B35FA-9ADD-4F27-8DFB-D72670E79B4C,2023-09-26_05h52.23.405,WP_VExplicitOC_LH,2022.2.5,Win32,20.98283604,100,4.7477,2.0157,NA,NA,NA,NA,NA,happy,"unhappy, happy","less happy, more happy",NA,NA,NA,NA,NA,NA,NA,NA,NA,NA,NA,NA,NA,NA,NA,NA,NA,NA,NA,NA,NA,NA,NA,NA,NA,NA,NA,NA,NA,NA,NA,NA,NA,NA,NA,NA,NA,NA,0,1,1,0,1,NA,NA,NA,NA,NA
SUPAMT65935,336YQZE831DAHSNR48PO5RVKDSXM5C,B16B35FA-9ADD-4F27-8DFB-D72670E79B4C,2023-09-26_05h52.23.405,WP_VExplicitOC_LH,2022.2.5,Win32,20.98283604,100,3.5317,2.0145,NA,NA,NA,NA,NA,bored,"bored, not bored","more bored, less bored",NA,NA,NA,NA,NA,NA,NA,NA,NA,NA,NA,NA,NA,NA,NA,NA,NA,NA,NA,NA,NA,NA,NA,NA,NA,NA,NA,NA,NA,NA,NA,NA,NA,NA,NA,NA,NA,NA,0,2,2,2,1,NA,NA,NA,NA,NA
SUPAMT65935,336YQZE831DAHSNR48PO5RVKDSXM5C,B16B35FA-9ADD-4F27-8DFB-D72670E79B4C,2023-09-26_05h52.23.405,WP_VExplicitOC_LH,2022.2.5,Win32,20.98283604,NA,NA,NA,NA,NA,NA,NA,NA,NA,NA,NA,NA,NA,NA,NA,NA,NA,NA,NA,NA,NA,NA,NA,NA,NA,NA,NA,NA,NA,NA,NA,NA,NA,NA,NA,NA,NA,NA,NA,NA,NA,NA,NA,NA,NA,NA,NA,NA,NA,NA,NA,NA,NA,NA,13,0,13,0,1
SUPAMT65935,336YQZE831DAHSNR48PO5RVKDSXM5C,B16B35FA-9ADD-4F27-8DFB-D72670E79B4C,2023-09-26_05h52.23.405,WP_VExplicitOC_LH,2022.2.5,Win32,20.98283604,100,4.3259,2.0389,NA,NA,NA,NA,NA,frustrated,"frustrated, not frustrated","more frustrated, less frustrated",NA,NA,NA,NA,NA,NA,NA,NA,NA,NA,NA,NA,NA,NA,NA,NA,NA,NA,NA,NA,NA,NA,NA,NA,NA,NA,NA,NA,NA,NA,NA,NA,NA,NA,NA,NA,NA,NA,0,0,0,1,1,NA,NA,NA,NA,NA
SUPAMT65935,336YQZE831DAHSNR48PO5RVKDSXM5C,B16B35FA-9ADD-4F27-8DFB-D72670E79B4C,2023-09-26_05h52.23.405,WP_VExplicitOC_LH,2022.2.5,Win32,20.98283604,100,3.3762,2.027400001,NA,NA,NA,NA,NA,happy,"unhappy, happy","less happy, more happy",NA,NA,NA,NA,NA,NA,NA,NA,NA,NA,NA,NA,NA,NA,NA,NA,NA,NA,NA,NA,NA,NA,NA,NA,NA,NA,NA,NA,NA,NA,NA,NA,NA,NA,NA,NA,NA,NA,0,1,1,0,1,NA,NA,NA,NA,NA
SUPAMT65935,336YQZE831DAHSNR48PO5RVKDSXM5C,B16B35FA-9ADD-4F27-8DFB-D72670E79B4C,2023-09-26_05h52.23.405,WP_VExplicitOC_LH,2022.2.5,Win32,20.98283604,100,3.3768,2.0232,NA,NA,NA,NA,NA,bored,"bored, not bored","more bored, less bored",NA,NA,NA,NA,NA,NA,NA,NA,NA,NA,NA,NA,NA,NA,NA,NA,NA,NA,NA,NA,NA,NA,NA,NA,NA,NA,NA,NA,NA,NA,NA,NA,NA,NA,NA,NA,NA,NA,0,2,2,2,1,NA,NA,NA,NA,NA
SUPAMT65935,336YQZE831DAHSNR48PO5RVKDSXM5C,B16B35FA-9ADD-4F27-8DFB-D72670E79B4C,2023-09-26_05h52.23.405,WP_VExplicitOC_LH,2022.2.5,Win32,20.98283604,NA,NA,NA,NA,NA,NA,NA,NA,NA,NA,NA,NA,NA,NA,NA,NA,NA,NA,NA,NA,NA,NA,NA,NA,NA,NA,NA,NA,NA,NA,NA,NA,NA,NA,NA,NA,NA,NA,NA,NA,NA,NA,NA,NA,NA,NA,NA,NA,NA,NA,NA,NA,NA,NA,14,0,14,0,1
SUPAMT65935,336YQZE831DAHSNR48PO5RVKDSXM5C,B16B35FA-9ADD-4F27-8DFB-D72670E79B4C,2023-09-26_05h52.23.405,WP_VExplicitOC_LH,2022.2.5,Win32,20.98283604,NA,NA,NA,NA,NA,NA,NA,NA,NA,NA,NA,NA,NA,NA,NA,NA,NA,NA,NA,NA,NA,NA,NA,NA,NA,NA,NA,NA,NA,NA,NA,NA,NA,NA,NA,NA,NA,NA,NA,NA,NA,NA,NA,NA,NA,NA,NA,NA,NA,NA,NA,NA,NA,NA,NA,NA,NA,NA,NA
