participant,session,completion,date,expName,psychopyVersion,OS,frameRate,rating_all.response,rating_all.rt,rating_all.tStart,rndRat1.thisRepN,rndRat1.thisTrialN,rndRat1.thisN,rndRat1.thisIndex,rndRat1.ran,Emo,Labs,Labs2,rating_alt.response,rating_alt.rt,AltC.thisRepN,AltC.thisTrialN,AltC.thisN,AltC.thisIndex,AltC.ran,alt_choices,pic_choices,BottomAlt_Choice,rndRat2.thisRepN,rndRat2.thisTrialN,rndRat2.thisN,rndRat2.thisIndex,rndRat2.ran,rndRat3.thisRepN,rndRat3.thisTrialN,rndRat3.thisN,rndRat3.thisIndex,rndRat3.ran,trials_FC_L.thisRepN,trials_FC_L.thisTrialN,trials_FC_L.thisN,trials_FC_L.thisIndex,trials_FC_L.ran,rating_alt_2.response,rating_alt_2.rt,AltC2.thisRepN,AltC2.thisTrialN,AltC2.thisN,AltC2.thisIndex,AltC2.ran,TopAlt_Choice,rndRat4.thisRepN,rndRat4.thisTrialN,rndRat4.thisN,rndRat4.thisIndex,rndRat4.ran,rndRat5.thisRepN,rndRat5.thisTrialN,rndRat5.thisN,rndRat5.thisIndex,rndRat5.ran,trials_FC_H.thisRepN,trials_FC_H.thisTrialN,trials_FC_H.thisN,trials_FC_H.thisIndex,trials_FC_H.ran
SUPAMT59092,34V1S5K3GY0RTC4BKIVOSB30AVG96A,85AEF770-5A2C-4643-8B0D-66BABFB01925,2023-09-27_09h12.05.982,WP_VExplicitOC_LH,2022.2.5,Win32,16.13423685,NA,NA,NA,NA,NA,NA,NA,NA,NA,NA,NA,NA,NA,NA,NA,NA,NA,NA,NA,NA,NA,NA,NA,NA,NA,NA,NA,NA,NA,NA,NA,NA,NA,NA,NA,NA,NA,NA,NA,NA,NA,NA,NA,NA,NA,NA,NA,NA,NA,NA,NA,NA,NA,NA,NA,NA,NA,NA,NA
SUPAMT59092,34V1S5K3GY0RTC4BKIVOSB30AVG96A,85AEF770-5A2C-4643-8B0D-66BABFB01925,2023-09-27_09h12.05.982,WP_VExplicitOC_LH,2022.2.5,Win32,16.13423685,NA,NA,NA,NA,NA,NA,NA,NA,NA,NA,NA,NA,NA,NA,NA,NA,NA,NA,NA,NA,NA,NA,NA,NA,NA,NA,NA,NA,NA,NA,NA,NA,NA,NA,NA,NA,NA,NA,NA,NA,NA,NA,NA,NA,NA,NA,NA,NA,NA,NA,NA,NA,NA,NA,NA,NA,NA,NA,NA
SUPAMT59092,34V1S5K3GY0RTC4BKIVOSB30AVG96A,85AEF770-5A2C-4643-8B0D-66BABFB01925,2023-09-27_09h12.05.982,WP_VExplicitOC_LH,2022.2.5,Win32,16.13423685,NA,NA,NA,NA,NA,NA,NA,NA,NA,NA,NA,NA,NA,NA,NA,NA,NA,NA,NA,NA,NA,NA,NA,NA,NA,NA,NA,NA,NA,NA,NA,NA,NA,NA,NA,NA,NA,NA,NA,NA,NA,NA,NA,NA,NA,NA,NA,NA,NA,NA,NA,NA,NA,NA,NA,NA,NA,NA,NA
SUPAMT59092,34V1S5K3GY0RTC4BKIVOSB30AVG96A,85AEF770-5A2C-4643-8B0D-66BABFB01925,2023-09-27_09h12.05.982,WP_VExplicitOC_LH,2022.2.5,Win32,16.13423685,NA,NA,2.0265,0,0,0,1,1,frustrated,"frustrated, not frustrated","more frustrated, less frustrated",NA,NA,NA,NA,NA,NA,NA,NA,NA,NA,NA,NA,NA,NA,NA,NA,NA,NA,NA,NA,NA,NA,NA,NA,NA,NA,NA,NA,NA,NA,NA,NA,NA,NA,NA,NA,NA,NA,NA,NA,NA,NA,NA,NA,NA,NA,NA,NA
SUPAMT59092,34V1S5K3GY0RTC4BKIVOSB30AVG96A,85AEF770-5A2C-4643-8B0D-66BABFB01925,2023-09-27_09h12.05.982,WP_VExplicitOC_LH,2022.2.5,Win32,16.13423685,42.70833333,5.2163,2.06,0,1,1,2,1,bored,"bored, not bored","more bored, less bored",NA,NA,NA,NA,NA,NA,NA,NA,NA,NA,NA,NA,NA,NA,NA,NA,NA,NA,NA,NA,NA,NA,NA,NA,NA,NA,NA,NA,NA,NA,NA,NA,NA,NA,NA,NA,NA,NA,NA,NA,NA,NA,NA,NA,NA,NA,NA,NA
SUPAMT59092,34V1S5K3GY0RTC4BKIVOSB30AVG96A,85AEF770-5A2C-4643-8B0D-66BABFB01925,2023-09-27_09h12.05.982,WP_VExplicitOC_LH,2022.2.5,Win32,16.13423685,54.6875,5.4116,2.0207,0,2,2,0,1,happy,"unhappy, happy","less happy, more happy",NA,NA,NA,NA,NA,NA,NA,NA,NA,NA,NA,NA,NA,NA,NA,NA,NA,NA,NA,NA,NA,NA,NA,NA,NA,NA,NA,NA,NA,NA,NA,NA,NA,NA,NA,NA,NA,NA,NA,NA,NA,NA,NA,NA,NA,NA,NA,NA
SUPAMT59092,34V1S5K3GY0RTC4BKIVOSB30AVG96A,85AEF770-5A2C-4643-8B0D-66BABFB01925,2023-09-27_09h12.05.982,WP_VExplicitOC_LH,2022.2.5,Win32,16.13423685,NA,NA,NA,NA,NA,NA,NA,NA,NA,NA,NA,NA,NA,NA,NA,NA,NA,NA,NA,NA,NA,NA,NA,NA,NA,NA,NA,NA,NA,NA,NA,NA,NA,NA,NA,NA,NA,NA,NA,NA,NA,NA,NA,NA,NA,NA,NA,NA,NA,NA,NA,NA,NA,NA,NA,NA,NA,NA,NA
SUPAMT59092,34V1S5K3GY0RTC4BKIVOSB30AVG96A,85AEF770-5A2C-4643-8B0D-66BABFB01925,2023-09-27_09h12.05.982,WP_VExplicitOC_LH,2022.2.5,Win32,16.13423685,NA,NA,NA,NA,NA,NA,NA,NA,NA,NA,NA,NA,NA,NA,NA,NA,NA,NA,NA,NA,NA,NA,NA,NA,NA,NA,NA,NA,NA,NA,NA,NA,NA,NA,NA,NA,NA,NA,NA,NA,NA,NA,NA,NA,NA,NA,NA,NA,NA,NA,NA,NA,NA,NA,NA,NA,NA,NA,NA
SUPAMT59092,34V1S5K3GY0RTC4BKIVOSB30AVG96A,85AEF770-5A2C-4643-8B0D-66BABFB01925,2023-09-27_09h12.05.982,WP_VExplicitOC_LH,2022.2.5,Win32,16.13423685,NA,NA,NA,NA,NA,NA,NA,NA,NA,NA,NA,NA,NA,NA,NA,NA,NA,NA,NA,NA,NA,NA,NA,NA,NA,NA,NA,NA,NA,NA,NA,NA,NA,NA,NA,NA,NA,NA,NA,NA,NA,NA,NA,NA,NA,NA,NA,NA,NA,NA,NA,NA,NA,NA,NA,NA,NA,NA,NA
SUPAMT59092,34V1S5K3GY0RTC4BKIVOSB30AVG96A,85AEF770-5A2C-4643-8B0D-66BABFB01925,2023-09-27_09h12.05.982,WP_VExplicitOC_LH,2022.2.5,Win32,16.13423685,NA,NA,NA,NA,NA,NA,NA,NA,NA,NA,NA,NA,NA,NA,NA,NA,NA,NA,NA,NA,NA,NA,NA,NA,NA,NA,NA,NA,NA,NA,NA,NA,NA,NA,NA,NA,NA,NA,NA,NA,NA,NA,NA,NA,NA,NA,NA,NA,NA,NA,NA,NA,NA,NA,NA,NA,NA,NA,NA
SUPAMT59092,34V1S5K3GY0RTC4BKIVOSB30AVG96A,85AEF770-5A2C-4643-8B0D-66BABFB01925,2023-09-27_09h12.05.982,WP_VExplicitOC_LH,2022.2.5,Win32,16.13423685,NA,NA,NA,NA,NA,NA,NA,NA,NA,NA,NA,26.5625,5.3692,0,0,0,0,1,rest (looking at a fixed cross),001.png,NA,NA,NA,NA,NA,NA,NA,NA,NA,NA,NA,NA,NA,NA,NA,NA,NA,NA,NA,NA,NA,NA,NA,NA,NA,NA,NA,NA,NA,NA,NA,NA,NA,NA,NA,NA,NA,NA,NA
SUPAMT59092,34V1S5K3GY0RTC4BKIVOSB30AVG96A,85AEF770-5A2C-4643-8B0D-66BABFB01925,2023-09-27_09h12.05.982,WP_VExplicitOC_LH,2022.2.5,Win32,16.13423685,NA,NA,NA,NA,NA,NA,NA,NA,NA,NA,NA,21.875,3.6574,0,1,1,1,1,stand up,002.png,NA,NA,NA,NA,NA,NA,NA,NA,NA,NA,NA,NA,NA,NA,NA,NA,NA,NA,NA,NA,NA,NA,NA,NA,NA,NA,NA,NA,NA,NA,NA,NA,NA,NA,NA,NA,NA,NA,NA
SUPAMT59092,34V1S5K3GY0RTC4BKIVOSB30AVG96A,85AEF770-5A2C-4643-8B0D-66BABFB01925,2023-09-27_09h12.05.982,WP_VExplicitOC_LH,2022.2.5,Win32,16.13423685,NA,NA,NA,NA,NA,NA,NA,NA,NA,NA,NA,51.04166667,4.7751,0,2,2,2,1,stretch,003.png,NA,NA,NA,NA,NA,NA,NA,NA,NA,NA,NA,NA,NA,NA,NA,NA,NA,NA,NA,NA,NA,NA,NA,NA,NA,NA,NA,NA,NA,NA,NA,NA,NA,NA,NA,NA,NA,NA,NA
SUPAMT59092,34V1S5K3GY0RTC4BKIVOSB30AVG96A,85AEF770-5A2C-4643-8B0D-66BABFB01925,2023-09-27_09h12.05.982,WP_VExplicitOC_LH,2022.2.5,Win32,16.13423685,NA,NA,NA,NA,NA,NA,NA,NA,NA,NA,NA,40.625,3.5677,0,3,3,3,1,make a drink,004.png,NA,NA,NA,NA,NA,NA,NA,NA,NA,NA,NA,NA,NA,NA,NA,NA,NA,NA,NA,NA,NA,NA,NA,NA,NA,NA,NA,NA,NA,NA,NA,NA,NA,NA,NA,NA,NA,NA,NA
SUPAMT59092,34V1S5K3GY0RTC4BKIVOSB30AVG96A,85AEF770-5A2C-4643-8B0D-66BABFB01925,2023-09-27_09h12.05.982,WP_VExplicitOC_LH,2022.2.5,Win32,16.13423685,NA,NA,NA,NA,NA,NA,NA,NA,NA,NA,NA,-44.53125,6.8143,0,4,4,4,1,scroll social media,005.png,NA,NA,NA,NA,NA,NA,NA,NA,NA,NA,NA,NA,NA,NA,NA,NA,NA,NA,NA,NA,NA,NA,NA,NA,NA,NA,NA,NA,NA,NA,NA,NA,NA,NA,NA,NA,NA,NA,NA
SUPAMT59092,34V1S5K3GY0RTC4BKIVOSB30AVG96A,85AEF770-5A2C-4643-8B0D-66BABFB01925,2023-09-27_09h12.05.982,WP_VExplicitOC_LH,2022.2.5,Win32,16.13423685,NA,NA,NA,NA,NA,NA,NA,NA,NA,NA,NA,-56.25,2.755,0,5,5,5,1,listen to music,006.png,NA,NA,NA,NA,NA,NA,NA,NA,NA,NA,NA,NA,NA,NA,NA,NA,NA,NA,NA,NA,NA,NA,NA,NA,NA,NA,NA,NA,NA,NA,NA,NA,NA,NA,NA,NA,NA,NA,NA
SUPAMT59092,34V1S5K3GY0RTC4BKIVOSB30AVG96A,85AEF770-5A2C-4643-8B0D-66BABFB01925,2023-09-27_09h12.05.982,WP_VExplicitOC_LH,2022.2.5,Win32,16.13423685,NA,NA,NA,NA,NA,NA,NA,NA,NA,NA,NA,-49.73958333,2.8815,0,6,6,6,1,daydream,007.png,NA,NA,NA,NA,NA,NA,NA,NA,NA,NA,NA,NA,NA,NA,NA,NA,NA,NA,NA,NA,NA,NA,NA,NA,NA,NA,NA,NA,NA,NA,NA,NA,NA,NA,NA,NA,NA,NA,NA
SUPAMT59092,34V1S5K3GY0RTC4BKIVOSB30AVG96A,85AEF770-5A2C-4643-8B0D-66BABFB01925,2023-09-27_09h12.05.982,WP_VExplicitOC_LH,2022.2.5,Win32,16.13423685,NA,NA,NA,NA,NA,NA,NA,NA,NA,NA,NA,-60.15625,2.9307,0,7,7,7,1,watch a short animation,008.png,NA,NA,NA,NA,NA,NA,NA,NA,NA,NA,NA,NA,NA,NA,NA,NA,NA,NA,NA,NA,NA,NA,NA,NA,NA,NA,NA,NA,NA,NA,NA,NA,NA,NA,NA,NA,NA,NA,NA
SUPAMT59092,34V1S5K3GY0RTC4BKIVOSB30AVG96A,85AEF770-5A2C-4643-8B0D-66BABFB01925,2023-09-27_09h12.05.982,WP_VExplicitOC_LH,2022.2.5,Win32,16.13423685,NA,NA,NA,NA,NA,NA,NA,NA,NA,NA,NA,-61.97916667,2.924,0,8,8,8,1,read a novel,009.png,NA,NA,NA,NA,NA,NA,NA,NA,NA,NA,NA,NA,NA,NA,NA,NA,NA,NA,NA,NA,NA,NA,NA,NA,NA,NA,NA,NA,NA,NA,NA,NA,NA,NA,NA,NA,NA,NA,NA
SUPAMT59092,34V1S5K3GY0RTC4BKIVOSB30AVG96A,85AEF770-5A2C-4643-8B0D-66BABFB01925,2023-09-27_09h12.05.982,WP_VExplicitOC_LH,2022.2.5,Win32,16.13423685,NA,NA,NA,NA,NA,NA,NA,NA,NA,NA,NA,-41.92708333,2.7626,0,9,9,9,1,read the news,010.png,NA,NA,NA,NA,NA,NA,NA,NA,NA,NA,NA,NA,NA,NA,NA,NA,NA,NA,NA,NA,NA,NA,NA,NA,NA,NA,NA,NA,NA,NA,NA,NA,NA,NA,NA,NA,NA,NA,NA
SUPAMT59092,34V1S5K3GY0RTC4BKIVOSB30AVG96A,85AEF770-5A2C-4643-8B0D-66BABFB01925,2023-09-27_09h12.05.982,WP_VExplicitOC_LH,2022.2.5,Win32,16.13423685,NA,NA,NA,NA,NA,NA,NA,NA,NA,NA,NA,NA,NA,NA,NA,NA,NA,NA,NA,NA,NA,NA,NA,NA,NA,NA,NA,NA,NA,NA,NA,NA,NA,NA,NA,NA,NA,NA,NA,NA,NA,NA,NA,NA,NA,NA,NA,NA,NA,NA,NA,NA,NA,NA,NA,NA,NA,NA,NA
SUPAMT59092,34V1S5K3GY0RTC4BKIVOSB30AVG96A,85AEF770-5A2C-4643-8B0D-66BABFB01925,2023-09-27_09h12.05.982,WP_VExplicitOC_LH,2022.2.5,Win32,16.13423685,NA,NA,NA,NA,NA,NA,NA,NA,NA,NA,NA,NA,NA,NA,NA,NA,NA,NA,NA,NA,read a novel,NA,NA,NA,NA,NA,NA,NA,NA,NA,NA,NA,NA,NA,NA,NA,NA,NA,NA,NA,NA,NA,NA,NA,NA,NA,NA,NA,NA,NA,NA,NA,NA,NA,NA,NA,NA,NA,NA
SUPAMT59092,34V1S5K3GY0RTC4BKIVOSB30AVG96A,85AEF770-5A2C-4643-8B0D-66BABFB01925,2023-09-27_09h12.05.982,WP_VExplicitOC_LH,2022.2.5,Win32,16.13423685,50,5.1429,2.0685,NA,NA,NA,NA,NA,happy,"unhappy, happy","less happy, more happy",NA,NA,NA,NA,NA,NA,NA,NA,NA,NA,0,0,0,0,1,NA,NA,NA,NA,NA,NA,NA,NA,NA,NA,NA,NA,NA,NA,NA,NA,NA,NA,NA,NA,NA,NA,NA,NA,NA,NA,NA,NA,NA,NA,NA,NA,NA
SUPAMT59092,34V1S5K3GY0RTC4BKIVOSB30AVG96A,85AEF770-5A2C-4643-8B0D-66BABFB01925,2023-09-27_09h12.05.982,WP_VExplicitOC_LH,2022.2.5,Win32,16.13423685,NA,NA,2.0103,NA,NA,NA,NA,NA,frustrated,"frustrated, not frustrated","more frustrated, less frustrated",NA,NA,NA,NA,NA,NA,NA,NA,NA,NA,0,1,1,1,1,NA,NA,NA,NA,NA,NA,NA,NA,NA,NA,NA,NA,NA,NA,NA,NA,NA,NA,NA,NA,NA,NA,NA,NA,NA,NA,NA,NA,NA,NA,NA,NA,NA
SUPAMT59092,34V1S5K3GY0RTC4BKIVOSB30AVG96A,85AEF770-5A2C-4643-8B0D-66BABFB01925,2023-09-27_09h12.05.982,WP_VExplicitOC_LH,2022.2.5,Win32,16.13423685,48.95833333,5.2003,2.0327,NA,NA,NA,NA,NA,bored,"bored, not bored","more bored, less bored",NA,NA,NA,NA,NA,NA,NA,NA,NA,NA,0,2,2,2,1,NA,NA,NA,NA,NA,NA,NA,NA,NA,NA,NA,NA,NA,NA,NA,NA,NA,NA,NA,NA,NA,NA,NA,NA,NA,NA,NA,NA,NA,NA,NA,NA,NA
SUPAMT59092,34V1S5K3GY0RTC4BKIVOSB30AVG96A,85AEF770-5A2C-4643-8B0D-66BABFB01925,2023-09-27_09h12.05.982,WP_VExplicitOC_LH,2022.2.5,Win32,16.13423685,NA,NA,NA,NA,NA,NA,NA,NA,NA,NA,NA,NA,NA,NA,NA,NA,NA,NA,NA,NA,NA,NA,NA,NA,NA,NA,NA,NA,NA,NA,NA,NA,NA,NA,NA,NA,NA,NA,NA,NA,NA,NA,NA,NA,NA,NA,NA,NA,NA,NA,NA,NA,NA,NA,NA,NA,NA,NA,NA
SUPAMT59092,34V1S5K3GY0RTC4BKIVOSB30AVG96A,85AEF770-5A2C-4643-8B0D-66BABFB01925,2023-09-27_09h12.05.982,WP_VExplicitOC_LH,2022.2.5,Win32,16.13423685,NA,NA,NA,NA,NA,NA,NA,NA,NA,NA,NA,NA,NA,NA,NA,NA,NA,NA,NA,NA,NA,NA,NA,NA,NA,NA,NA,NA,NA,NA,NA,NA,NA,NA,NA,NA,NA,NA,NA,NA,NA,NA,NA,NA,NA,NA,NA,NA,NA,NA,NA,NA,NA,NA,NA,NA,NA,NA,NA
SUPAMT59092,34V1S5K3GY0RTC4BKIVOSB30AVG96A,85AEF770-5A2C-4643-8B0D-66BABFB01925,2023-09-27_09h12.05.982,WP_VExplicitOC_LH,2022.2.5,Win32,16.13423685,33.85416667,6.4291,2.0416,NA,NA,NA,NA,NA,bored,"bored, not bored","more bored, less bored",NA,NA,NA,NA,NA,NA,NA,NA,NA,NA,NA,NA,NA,NA,NA,0,0,0,2,1,NA,NA,NA,NA,NA,NA,NA,NA,NA,NA,NA,NA,NA,NA,NA,NA,NA,NA,NA,NA,NA,NA,NA,NA,NA,NA,NA,NA
SUPAMT59092,34V1S5K3GY0RTC4BKIVOSB30AVG96A,85AEF770-5A2C-4643-8B0D-66BABFB01925,2023-09-27_09h12.05.982,WP_VExplicitOC_LH,2022.2.5,Win32,16.13423685,31.25,6.4764,2.0349,NA,NA,NA,NA,NA,happy,"unhappy, happy","less happy, more happy",NA,NA,NA,NA,NA,NA,NA,NA,NA,NA,NA,NA,NA,NA,NA,0,1,1,0,1,NA,NA,NA,NA,NA,NA,NA,NA,NA,NA,NA,NA,NA,NA,NA,NA,NA,NA,NA,NA,NA,NA,NA,NA,NA,NA,NA,NA
SUPAMT59092,34V1S5K3GY0RTC4BKIVOSB30AVG96A,85AEF770-5A2C-4643-8B0D-66BABFB01925,2023-09-27_09h12.05.982,WP_VExplicitOC_LH,2022.2.5,Win32,16.13423685,-38.54166667,6.3717,2.0966,NA,NA,NA,NA,NA,frustrated,"frustrated, not frustrated","more frustrated, less frustrated",NA,NA,NA,NA,NA,NA,NA,NA,NA,NA,NA,NA,NA,NA,NA,0,2,2,1,1,NA,NA,NA,NA,NA,NA,NA,NA,NA,NA,NA,NA,NA,NA,NA,NA,NA,NA,NA,NA,NA,NA,NA,NA,NA,NA,NA,NA
SUPAMT59092,34V1S5K3GY0RTC4BKIVOSB30AVG96A,85AEF770-5A2C-4643-8B0D-66BABFB01925,2023-09-27_09h12.05.982,WP_VExplicitOC_LH,2022.2.5,Win32,16.13423685,NA,NA,NA,NA,NA,NA,NA,NA,NA,NA,NA,NA,NA,NA,NA,NA,NA,NA,NA,NA,NA,NA,NA,NA,NA,NA,NA,NA,NA,NA,NA,0,0,0,0,1,NA,NA,NA,NA,NA,NA,NA,NA,NA,NA,NA,NA,NA,NA,NA,NA,NA,NA,NA,NA,NA,NA,NA
SUPAMT59092,34V1S5K3GY0RTC4BKIVOSB30AVG96A,85AEF770-5A2C-4643-8B0D-66BABFB01925,2023-09-27_09h12.05.982,WP_VExplicitOC_LH,2022.2.5,Win32,16.13423685,NA,NA,2.0368,NA,NA,NA,NA,NA,bored,"bored, not bored","more bored, less bored",NA,NA,NA,NA,NA,NA,NA,NA,NA,NA,NA,NA,NA,NA,NA,0,0,0,2,1,NA,NA,NA,NA,NA,NA,NA,NA,NA,NA,NA,NA,NA,NA,NA,NA,NA,NA,NA,NA,NA,NA,NA,NA,NA,NA,NA,NA
SUPAMT59092,34V1S5K3GY0RTC4BKIVOSB30AVG96A,85AEF770-5A2C-4643-8B0D-66BABFB01925,2023-09-27_09h12.05.982,WP_VExplicitOC_LH,2022.2.5,Win32,16.13423685,25.78125,4.5382,2.0417,NA,NA,NA,NA,NA,frustrated,"frustrated, not frustrated","more frustrated, less frustrated",NA,NA,NA,NA,NA,NA,NA,NA,NA,NA,NA,NA,NA,NA,NA,0,1,1,1,1,NA,NA,NA,NA,NA,NA,NA,NA,NA,NA,NA,NA,NA,NA,NA,NA,NA,NA,NA,NA,NA,NA,NA,NA,NA,NA,NA,NA
SUPAMT59092,34V1S5K3GY0RTC4BKIVOSB30AVG96A,85AEF770-5A2C-4643-8B0D-66BABFB01925,2023-09-27_09h12.05.982,WP_VExplicitOC_LH,2022.2.5,Win32,16.13423685,36.45833333,5.6391,2.0607,NA,NA,NA,NA,NA,happy,"unhappy, happy","less happy, more happy",NA,NA,NA,NA,NA,NA,NA,NA,NA,NA,NA,NA,NA,NA,NA,0,2,2,0,1,NA,NA,NA,NA,NA,NA,NA,NA,NA,NA,NA,NA,NA,NA,NA,NA,NA,NA,NA,NA,NA,NA,NA,NA,NA,NA,NA,NA
SUPAMT59092,34V1S5K3GY0RTC4BKIVOSB30AVG96A,85AEF770-5A2C-4643-8B0D-66BABFB01925,2023-09-27_09h12.05.982,WP_VExplicitOC_LH,2022.2.5,Win32,16.13423685,NA,NA,NA,NA,NA,NA,NA,NA,NA,NA,NA,NA,NA,NA,NA,NA,NA,NA,NA,NA,NA,NA,NA,NA,NA,NA,NA,NA,NA,NA,NA,1,0,1,0,1,NA,NA,NA,NA,NA,NA,NA,NA,NA,NA,NA,NA,NA,NA,NA,NA,NA,NA,NA,NA,NA,NA,NA
SUPAMT59092,34V1S5K3GY0RTC4BKIVOSB30AVG96A,85AEF770-5A2C-4643-8B0D-66BABFB01925,2023-09-27_09h12.05.982,WP_VExplicitOC_LH,2022.2.5,Win32,16.13423685,NA,NA,2.0107,NA,NA,NA,NA,NA,bored,"bored, not bored","more bored, less bored",NA,NA,NA,NA,NA,NA,NA,NA,NA,NA,NA,NA,NA,NA,NA,0,0,0,2,1,NA,NA,NA,NA,NA,NA,NA,NA,NA,NA,NA,NA,NA,NA,NA,NA,NA,NA,NA,NA,NA,NA,NA,NA,NA,NA,NA,NA
SUPAMT59092,34V1S5K3GY0RTC4BKIVOSB30AVG96A,85AEF770-5A2C-4643-8B0D-66BABFB01925,2023-09-27_09h12.05.982,WP_VExplicitOC_LH,2022.2.5,Win32,16.13423685,-23.95833333,7.4377,2.0499,NA,NA,NA,NA,NA,frustrated,"frustrated, not frustrated","more frustrated, less frustrated",NA,NA,NA,NA,NA,NA,NA,NA,NA,NA,NA,NA,NA,NA,NA,0,1,1,1,1,NA,NA,NA,NA,NA,NA,NA,NA,NA,NA,NA,NA,NA,NA,NA,NA,NA,NA,NA,NA,NA,NA,NA,NA,NA,NA,NA,NA
SUPAMT59092,34V1S5K3GY0RTC4BKIVOSB30AVG96A,85AEF770-5A2C-4643-8B0D-66BABFB01925,2023-09-27_09h12.05.982,WP_VExplicitOC_LH,2022.2.5,Win32,16.13423685,24.47916667,5.3967,2.0477,NA,NA,NA,NA,NA,happy,"unhappy, happy","less happy, more happy",NA,NA,NA,NA,NA,NA,NA,NA,NA,NA,NA,NA,NA,NA,NA,0,2,2,0,1,NA,NA,NA,NA,NA,NA,NA,NA,NA,NA,NA,NA,NA,NA,NA,NA,NA,NA,NA,NA,NA,NA,NA,NA,NA,NA,NA,NA
SUPAMT59092,34V1S5K3GY0RTC4BKIVOSB30AVG96A,85AEF770-5A2C-4643-8B0D-66BABFB01925,2023-09-27_09h12.05.982,WP_VExplicitOC_LH,2022.2.5,Win32,16.13423685,NA,NA,NA,NA,NA,NA,NA,NA,NA,NA,NA,NA,NA,NA,NA,NA,NA,NA,NA,NA,NA,NA,NA,NA,NA,NA,NA,NA,NA,NA,NA,2,0,2,0,1,NA,NA,NA,NA,NA,NA,NA,NA,NA,NA,NA,NA,NA,NA,NA,NA,NA,NA,NA,NA,NA,NA,NA
SUPAMT59092,34V1S5K3GY0RTC4BKIVOSB30AVG96A,85AEF770-5A2C-4643-8B0D-66BABFB01925,2023-09-27_09h12.05.982,WP_VExplicitOC_LH,2022.2.5,Win32,16.13423685,-20.05208333,6.5662,2.0161,NA,NA,NA,NA,NA,bored,"bored, not bored","more bored, less bored",NA,NA,NA,NA,NA,NA,NA,NA,NA,NA,NA,NA,NA,NA,NA,0,0,0,2,1,NA,NA,NA,NA,NA,NA,NA,NA,NA,NA,NA,NA,NA,NA,NA,NA,NA,NA,NA,NA,NA,NA,NA,NA,NA,NA,NA,NA
SUPAMT59092,34V1S5K3GY0RTC4BKIVOSB30AVG96A,85AEF770-5A2C-4643-8B0D-66BABFB01925,2023-09-27_09h12.05.982,WP_VExplicitOC_LH,2022.2.5,Win32,16.13423685,NA,NA,2.0217,NA,NA,NA,NA,NA,frustrated,"frustrated, not frustrated","more frustrated, less frustrated",NA,NA,NA,NA,NA,NA,NA,NA,NA,NA,NA,NA,NA,NA,NA,0,1,1,1,1,NA,NA,NA,NA,NA,NA,NA,NA,NA,NA,NA,NA,NA,NA,NA,NA,NA,NA,NA,NA,NA,NA,NA,NA,NA,NA,NA,NA
SUPAMT59092,34V1S5K3GY0RTC4BKIVOSB30AVG96A,85AEF770-5A2C-4643-8B0D-66BABFB01925,2023-09-27_09h12.05.982,WP_VExplicitOC_LH,2022.2.5,Win32,16.13423685,-12.23958333,7.1756,2.0013,NA,NA,NA,NA,NA,happy,"unhappy, happy","less happy, more happy",NA,NA,NA,NA,NA,NA,NA,NA,NA,NA,NA,NA,NA,NA,NA,0,2,2,0,1,NA,NA,NA,NA,NA,NA,NA,NA,NA,NA,NA,NA,NA,NA,NA,NA,NA,NA,NA,NA,NA,NA,NA,NA,NA,NA,NA,NA
SUPAMT59092,34V1S5K3GY0RTC4BKIVOSB30AVG96A,85AEF770-5A2C-4643-8B0D-66BABFB01925,2023-09-27_09h12.05.982,WP_VExplicitOC_LH,2022.2.5,Win32,16.13423685,NA,NA,NA,NA,NA,NA,NA,NA,NA,NA,NA,NA,NA,NA,NA,NA,NA,NA,NA,NA,NA,NA,NA,NA,NA,NA,NA,NA,NA,NA,NA,3,0,3,0,1,NA,NA,NA,NA,NA,NA,NA,NA,NA,NA,NA,NA,NA,NA,NA,NA,NA,NA,NA,NA,NA,NA,NA
SUPAMT59092,34V1S5K3GY0RTC4BKIVOSB30AVG96A,85AEF770-5A2C-4643-8B0D-66BABFB01925,2023-09-27_09h12.05.982,WP_VExplicitOC_LH,2022.2.5,Win32,16.13423685,17.1875,4.7957,2.0284,NA,NA,NA,NA,NA,happy,"unhappy, happy","less happy, more happy",NA,NA,NA,NA,NA,NA,NA,NA,NA,NA,NA,NA,NA,NA,NA,0,0,0,0,1,NA,NA,NA,NA,NA,NA,NA,NA,NA,NA,NA,NA,NA,NA,NA,NA,NA,NA,NA,NA,NA,NA,NA,NA,NA,NA,NA,NA
SUPAMT59092,34V1S5K3GY0RTC4BKIVOSB30AVG96A,85AEF770-5A2C-4643-8B0D-66BABFB01925,2023-09-27_09h12.05.982,WP_VExplicitOC_LH,2022.2.5,Win32,16.13423685,-16.92708333,6.129,2.0021,NA,NA,NA,NA,NA,bored,"bored, not bored","more bored, less bored",NA,NA,NA,NA,NA,NA,NA,NA,NA,NA,NA,NA,NA,NA,NA,0,1,1,2,1,NA,NA,NA,NA,NA,NA,NA,NA,NA,NA,NA,NA,NA,NA,NA,NA,NA,NA,NA,NA,NA,NA,NA,NA,NA,NA,NA,NA
SUPAMT59092,34V1S5K3GY0RTC4BKIVOSB30AVG96A,85AEF770-5A2C-4643-8B0D-66BABFB01925,2023-09-27_09h12.05.982,WP_VExplicitOC_LH,2022.2.5,Win32,16.13423685,-17.44791667,5.0071,2.0625,NA,NA,NA,NA,NA,frustrated,"frustrated, not frustrated","more frustrated, less frustrated",NA,NA,NA,NA,NA,NA,NA,NA,NA,NA,NA,NA,NA,NA,NA,0,2,2,1,1,NA,NA,NA,NA,NA,NA,NA,NA,NA,NA,NA,NA,NA,NA,NA,NA,NA,NA,NA,NA,NA,NA,NA,NA,NA,NA,NA,NA
SUPAMT59092,34V1S5K3GY0RTC4BKIVOSB30AVG96A,85AEF770-5A2C-4643-8B0D-66BABFB01925,2023-09-27_09h12.05.982,WP_VExplicitOC_LH,2022.2.5,Win32,16.13423685,NA,NA,NA,NA,NA,NA,NA,NA,NA,NA,NA,NA,NA,NA,NA,NA,NA,NA,NA,NA,NA,NA,NA,NA,NA,NA,NA,NA,NA,NA,NA,4,0,4,0,1,NA,NA,NA,NA,NA,NA,NA,NA,NA,NA,NA,NA,NA,NA,NA,NA,NA,NA,NA,NA,NA,NA,NA
SUPAMT59092,34V1S5K3GY0RTC4BKIVOSB30AVG96A,85AEF770-5A2C-4643-8B0D-66BABFB01925,2023-09-27_09h12.05.982,WP_VExplicitOC_LH,2022.2.5,Win32,16.13423685,-13.54166667,5.6047,2.0248,NA,NA,NA,NA,NA,bored,"bored, not bored","more bored, less bored",NA,NA,NA,NA,NA,NA,NA,NA,NA,NA,NA,NA,NA,NA,NA,0,0,0,2,1,NA,NA,NA,NA,NA,NA,NA,NA,NA,NA,NA,NA,NA,NA,NA,NA,NA,NA,NA,NA,NA,NA,NA,NA,NA,NA,NA,NA
SUPAMT59092,34V1S5K3GY0RTC4BKIVOSB30AVG96A,85AEF770-5A2C-4643-8B0D-66BABFB01925,2023-09-27_09h12.05.982,WP_VExplicitOC_LH,2022.2.5,Win32,16.13423685,24.21875,7.4354,2.0598,NA,NA,NA,NA,NA,happy,"unhappy, happy","less happy, more happy",NA,NA,NA,NA,NA,NA,NA,NA,NA,NA,NA,NA,NA,NA,NA,0,1,1,0,1,NA,NA,NA,NA,NA,NA,NA,NA,NA,NA,NA,NA,NA,NA,NA,NA,NA,NA,NA,NA,NA,NA,NA,NA,NA,NA,NA,NA
SUPAMT59092,34V1S5K3GY0RTC4BKIVOSB30AVG96A,85AEF770-5A2C-4643-8B0D-66BABFB01925,2023-09-27_09h12.05.982,WP_VExplicitOC_LH,2022.2.5,Win32,16.13423685,-17.70833333,4.6816,2.0661,NA,NA,NA,NA,NA,frustrated,"frustrated, not frustrated","more frustrated, less frustrated",NA,NA,NA,NA,NA,NA,NA,NA,NA,NA,NA,NA,NA,NA,NA,0,2,2,1,1,NA,NA,NA,NA,NA,NA,NA,NA,NA,NA,NA,NA,NA,NA,NA,NA,NA,NA,NA,NA,NA,NA,NA,NA,NA,NA,NA,NA
SUPAMT59092,34V1S5K3GY0RTC4BKIVOSB30AVG96A,85AEF770-5A2C-4643-8B0D-66BABFB01925,2023-09-27_09h12.05.982,WP_VExplicitOC_LH,2022.2.5,Win32,16.13423685,NA,NA,NA,NA,NA,NA,NA,NA,NA,NA,NA,NA,NA,NA,NA,NA,NA,NA,NA,NA,NA,NA,NA,NA,NA,NA,NA,NA,NA,NA,NA,5,0,5,0,1,NA,NA,NA,NA,NA,NA,NA,NA,NA,NA,NA,NA,NA,NA,NA,NA,NA,NA,NA,NA,NA,NA,NA
SUPAMT59092,34V1S5K3GY0RTC4BKIVOSB30AVG96A,85AEF770-5A2C-4643-8B0D-66BABFB01925,2023-09-27_09h12.05.982,WP_VExplicitOC_LH,2022.2.5,Win32,16.13423685,-15.625,5.205,2.0607,NA,NA,NA,NA,NA,frustrated,"frustrated, not frustrated","more frustrated, less frustrated",NA,NA,NA,NA,NA,NA,NA,NA,NA,NA,NA,NA,NA,NA,NA,0,0,0,1,1,NA,NA,NA,NA,NA,NA,NA,NA,NA,NA,NA,NA,NA,NA,NA,NA,NA,NA,NA,NA,NA,NA,NA,NA,NA,NA,NA,NA
SUPAMT59092,34V1S5K3GY0RTC4BKIVOSB30AVG96A,85AEF770-5A2C-4643-8B0D-66BABFB01925,2023-09-27_09h12.05.982,WP_VExplicitOC_LH,2022.2.5,Win32,16.13423685,-45.05208333,5.1173,2.03,NA,NA,NA,NA,NA,bored,"bored, not bored","more bored, less bored",NA,NA,NA,NA,NA,NA,NA,NA,NA,NA,NA,NA,NA,NA,NA,0,1,1,2,1,NA,NA,NA,NA,NA,NA,NA,NA,NA,NA,NA,NA,NA,NA,NA,NA,NA,NA,NA,NA,NA,NA,NA,NA,NA,NA,NA,NA
SUPAMT59092,34V1S5K3GY0RTC4BKIVOSB30AVG96A,85AEF770-5A2C-4643-8B0D-66BABFB01925,2023-09-27_09h12.05.982,WP_VExplicitOC_LH,2022.2.5,Win32,16.13423685,-20.05208333,5.9117,2.0695,NA,NA,NA,NA,NA,happy,"unhappy, happy","less happy, more happy",NA,NA,NA,NA,NA,NA,NA,NA,NA,NA,NA,NA,NA,NA,NA,0,2,2,0,1,NA,NA,NA,NA,NA,NA,NA,NA,NA,NA,NA,NA,NA,NA,NA,NA,NA,NA,NA,NA,NA,NA,NA,NA,NA,NA,NA,NA
SUPAMT59092,34V1S5K3GY0RTC4BKIVOSB30AVG96A,85AEF770-5A2C-4643-8B0D-66BABFB01925,2023-09-27_09h12.05.982,WP_VExplicitOC_LH,2022.2.5,Win32,16.13423685,NA,NA,NA,NA,NA,NA,NA,NA,NA,NA,NA,NA,NA,NA,NA,NA,NA,NA,NA,NA,NA,NA,NA,NA,NA,NA,NA,NA,NA,NA,NA,6,0,6,0,1,NA,NA,NA,NA,NA,NA,NA,NA,NA,NA,NA,NA,NA,NA,NA,NA,NA,NA,NA,NA,NA,NA,NA
SUPAMT59092,34V1S5K3GY0RTC4BKIVOSB30AVG96A,85AEF770-5A2C-4643-8B0D-66BABFB01925,2023-09-27_09h12.05.982,WP_VExplicitOC_LH,2022.2.5,Win32,16.13423685,21.875,6.055,2.0097,NA,NA,NA,NA,NA,bored,"bored, not bored","more bored, less bored",NA,NA,NA,NA,NA,NA,NA,NA,NA,NA,NA,NA,NA,NA,NA,0,0,0,2,1,NA,NA,NA,NA,NA,NA,NA,NA,NA,NA,NA,NA,NA,NA,NA,NA,NA,NA,NA,NA,NA,NA,NA,NA,NA,NA,NA,NA
SUPAMT59092,34V1S5K3GY0RTC4BKIVOSB30AVG96A,85AEF770-5A2C-4643-8B0D-66BABFB01925,2023-09-27_09h12.05.982,WP_VExplicitOC_LH,2022.2.5,Win32,16.13423685,38.02083333,4.8973,2.0307,NA,NA,NA,NA,NA,happy,"unhappy, happy","less happy, more happy",NA,NA,NA,NA,NA,NA,NA,NA,NA,NA,NA,NA,NA,NA,NA,0,1,1,0,1,NA,NA,NA,NA,NA,NA,NA,NA,NA,NA,NA,NA,NA,NA,NA,NA,NA,NA,NA,NA,NA,NA,NA,NA,NA,NA,NA,NA
SUPAMT59092,34V1S5K3GY0RTC4BKIVOSB30AVG96A,85AEF770-5A2C-4643-8B0D-66BABFB01925,2023-09-27_09h12.05.982,WP_VExplicitOC_LH,2022.2.5,Win32,16.13423685,42.96875,4.941,2.0027,NA,NA,NA,NA,NA,frustrated,"frustrated, not frustrated","more frustrated, less frustrated",NA,NA,NA,NA,NA,NA,NA,NA,NA,NA,NA,NA,NA,NA,NA,0,2,2,1,1,NA,NA,NA,NA,NA,NA,NA,NA,NA,NA,NA,NA,NA,NA,NA,NA,NA,NA,NA,NA,NA,NA,NA,NA,NA,NA,NA,NA
SUPAMT59092,34V1S5K3GY0RTC4BKIVOSB30AVG96A,85AEF770-5A2C-4643-8B0D-66BABFB01925,2023-09-27_09h12.05.982,WP_VExplicitOC_LH,2022.2.5,Win32,16.13423685,NA,NA,NA,NA,NA,NA,NA,NA,NA,NA,NA,NA,NA,NA,NA,NA,NA,NA,NA,NA,NA,NA,NA,NA,NA,NA,NA,NA,NA,NA,NA,7,0,7,0,1,NA,NA,NA,NA,NA,NA,NA,NA,NA,NA,NA,NA,NA,NA,NA,NA,NA,NA,NA,NA,NA,NA,NA
SUPAMT59092,34V1S5K3GY0RTC4BKIVOSB30AVG96A,85AEF770-5A2C-4643-8B0D-66BABFB01925,2023-09-27_09h12.05.982,WP_VExplicitOC_LH,2022.2.5,Win32,16.13423685,31.77083333,5.8469,2.054,NA,NA,NA,NA,NA,happy,"unhappy, happy","less happy, more happy",NA,NA,NA,NA,NA,NA,NA,NA,NA,NA,NA,NA,NA,NA,NA,0,0,0,0,1,NA,NA,NA,NA,NA,NA,NA,NA,NA,NA,NA,NA,NA,NA,NA,NA,NA,NA,NA,NA,NA,NA,NA,NA,NA,NA,NA,NA
SUPAMT59092,34V1S5K3GY0RTC4BKIVOSB30AVG96A,85AEF770-5A2C-4643-8B0D-66BABFB01925,2023-09-27_09h12.05.982,WP_VExplicitOC_LH,2022.2.5,Win32,16.13423685,-19.79166667,7.127,2.0819,NA,NA,NA,NA,NA,frustrated,"frustrated, not frustrated","more frustrated, less frustrated",NA,NA,NA,NA,NA,NA,NA,NA,NA,NA,NA,NA,NA,NA,NA,0,1,1,1,1,NA,NA,NA,NA,NA,NA,NA,NA,NA,NA,NA,NA,NA,NA,NA,NA,NA,NA,NA,NA,NA,NA,NA,NA,NA,NA,NA,NA
SUPAMT59092,34V1S5K3GY0RTC4BKIVOSB30AVG96A,85AEF770-5A2C-4643-8B0D-66BABFB01925,2023-09-27_09h12.05.982,WP_VExplicitOC_LH,2022.2.5,Win32,16.13423685,19.01041667,4.5031,2.0536,NA,NA,NA,NA,NA,bored,"bored, not bored","more bored, less bored",NA,NA,NA,NA,NA,NA,NA,NA,NA,NA,NA,NA,NA,NA,NA,0,2,2,2,1,NA,NA,NA,NA,NA,NA,NA,NA,NA,NA,NA,NA,NA,NA,NA,NA,NA,NA,NA,NA,NA,NA,NA,NA,NA,NA,NA,NA
SUPAMT59092,34V1S5K3GY0RTC4BKIVOSB30AVG96A,85AEF770-5A2C-4643-8B0D-66BABFB01925,2023-09-27_09h12.05.982,WP_VExplicitOC_LH,2022.2.5,Win32,16.13423685,NA,NA,NA,NA,NA,NA,NA,NA,NA,NA,NA,NA,NA,NA,NA,NA,NA,NA,NA,NA,NA,NA,NA,NA,NA,NA,NA,NA,NA,NA,NA,8,0,8,0,1,NA,NA,NA,NA,NA,NA,NA,NA,NA,NA,NA,NA,NA,NA,NA,NA,NA,NA,NA,NA,NA,NA,NA
SUPAMT59092,34V1S5K3GY0RTC4BKIVOSB30AVG96A,85AEF770-5A2C-4643-8B0D-66BABFB01925,2023-09-27_09h12.05.982,WP_VExplicitOC_LH,2022.2.5,Win32,16.13423685,26.30208333,7.3439,2.0092,NA,NA,NA,NA,NA,happy,"unhappy, happy","less happy, more happy",NA,NA,NA,NA,NA,NA,NA,NA,NA,NA,NA,NA,NA,NA,NA,0,0,0,0,1,NA,NA,NA,NA,NA,NA,NA,NA,NA,NA,NA,NA,NA,NA,NA,NA,NA,NA,NA,NA,NA,NA,NA,NA,NA,NA,NA,NA
SUPAMT59092,34V1S5K3GY0RTC4BKIVOSB30AVG96A,85AEF770-5A2C-4643-8B0D-66BABFB01925,2023-09-27_09h12.05.982,WP_VExplicitOC_LH,2022.2.5,Win32,16.13423685,-22.91666667,5.1181,2.0656,NA,NA,NA,NA,NA,frustrated,"frustrated, not frustrated","more frustrated, less frustrated",NA,NA,NA,NA,NA,NA,NA,NA,NA,NA,NA,NA,NA,NA,NA,0,1,1,1,1,NA,NA,NA,NA,NA,NA,NA,NA,NA,NA,NA,NA,NA,NA,NA,NA,NA,NA,NA,NA,NA,NA,NA,NA,NA,NA,NA,NA
SUPAMT59092,34V1S5K3GY0RTC4BKIVOSB30AVG96A,85AEF770-5A2C-4643-8B0D-66BABFB01925,2023-09-27_09h12.05.982,WP_VExplicitOC_LH,2022.2.5,Win32,16.13423685,22.39583333,4.6243,2.062,NA,NA,NA,NA,NA,bored,"bored, not bored","more bored, less bored",NA,NA,NA,NA,NA,NA,NA,NA,NA,NA,NA,NA,NA,NA,NA,0,2,2,2,1,NA,NA,NA,NA,NA,NA,NA,NA,NA,NA,NA,NA,NA,NA,NA,NA,NA,NA,NA,NA,NA,NA,NA,NA,NA,NA,NA,NA
SUPAMT59092,34V1S5K3GY0RTC4BKIVOSB30AVG96A,85AEF770-5A2C-4643-8B0D-66BABFB01925,2023-09-27_09h12.05.982,WP_VExplicitOC_LH,2022.2.5,Win32,16.13423685,NA,NA,NA,NA,NA,NA,NA,NA,NA,NA,NA,NA,NA,NA,NA,NA,NA,NA,NA,NA,NA,NA,NA,NA,NA,NA,NA,NA,NA,NA,NA,9,0,9,0,1,NA,NA,NA,NA,NA,NA,NA,NA,NA,NA,NA,NA,NA,NA,NA,NA,NA,NA,NA,NA,NA,NA,NA
SUPAMT59092,34V1S5K3GY0RTC4BKIVOSB30AVG96A,85AEF770-5A2C-4643-8B0D-66BABFB01925,2023-09-27_09h12.05.982,WP_VExplicitOC_LH,2022.2.5,Win32,16.13423685,-48.17708333,5.3809,2.0783,NA,NA,NA,NA,NA,happy,"unhappy, happy","less happy, more happy",NA,NA,NA,NA,NA,NA,NA,NA,NA,NA,NA,NA,NA,NA,NA,0,0,0,0,1,NA,NA,NA,NA,NA,NA,NA,NA,NA,NA,NA,NA,NA,NA,NA,NA,NA,NA,NA,NA,NA,NA,NA,NA,NA,NA,NA,NA
SUPAMT59092,34V1S5K3GY0RTC4BKIVOSB30AVG96A,85AEF770-5A2C-4643-8B0D-66BABFB01925,2023-09-27_09h12.05.982,WP_VExplicitOC_LH,2022.2.5,Win32,16.13423685,NA,NA,2.0032,NA,NA,NA,NA,NA,frustrated,"frustrated, not frustrated","more frustrated, less frustrated",NA,NA,NA,NA,NA,NA,NA,NA,NA,NA,NA,NA,NA,NA,NA,0,1,1,1,1,NA,NA,NA,NA,NA,NA,NA,NA,NA,NA,NA,NA,NA,NA,NA,NA,NA,NA,NA,NA,NA,NA,NA,NA,NA,NA,NA,NA
SUPAMT59092,34V1S5K3GY0RTC4BKIVOSB30AVG96A,85AEF770-5A2C-4643-8B0D-66BABFB01925,2023-09-27_09h12.05.982,WP_VExplicitOC_LH,2022.2.5,Win32,16.13423685,-39.32291667,7.0966,2.0426,NA,NA,NA,NA,NA,bored,"bored, not bored","more bored, less bored",NA,NA,NA,NA,NA,NA,NA,NA,NA,NA,NA,NA,NA,NA,NA,0,2,2,2,1,NA,NA,NA,NA,NA,NA,NA,NA,NA,NA,NA,NA,NA,NA,NA,NA,NA,NA,NA,NA,NA,NA,NA,NA,NA,NA,NA,NA
SUPAMT59092,34V1S5K3GY0RTC4BKIVOSB30AVG96A,85AEF770-5A2C-4643-8B0D-66BABFB01925,2023-09-27_09h12.05.982,WP_VExplicitOC_LH,2022.2.5,Win32,16.13423685,NA,NA,NA,NA,NA,NA,NA,NA,NA,NA,NA,NA,NA,NA,NA,NA,NA,NA,NA,NA,NA,NA,NA,NA,NA,NA,NA,NA,NA,NA,NA,10,0,10,0,1,NA,NA,NA,NA,NA,NA,NA,NA,NA,NA,NA,NA,NA,NA,NA,NA,NA,NA,NA,NA,NA,NA,NA
SUPAMT59092,34V1S5K3GY0RTC4BKIVOSB30AVG96A,85AEF770-5A2C-4643-8B0D-66BABFB01925,2023-09-27_09h12.05.982,WP_VExplicitOC_LH,2022.2.5,Win32,16.13423685,-32.03125,5.979,2.0064,NA,NA,NA,NA,NA,frustrated,"frustrated, not frustrated","more frustrated, less frustrated",NA,NA,NA,NA,NA,NA,NA,NA,NA,NA,NA,NA,NA,NA,NA,0,0,0,1,1,NA,NA,NA,NA,NA,NA,NA,NA,NA,NA,NA,NA,NA,NA,NA,NA,NA,NA,NA,NA,NA,NA,NA,NA,NA,NA,NA,NA
SUPAMT59092,34V1S5K3GY0RTC4BKIVOSB30AVG96A,85AEF770-5A2C-4643-8B0D-66BABFB01925,2023-09-27_09h12.05.982,WP_VExplicitOC_LH,2022.2.5,Win32,16.13423685,-22.39583333,4.9274,2.0627,NA,NA,NA,NA,NA,bored,"bored, not bored","more bored, less bored",NA,NA,NA,NA,NA,NA,NA,NA,NA,NA,NA,NA,NA,NA,NA,0,1,1,2,1,NA,NA,NA,NA,NA,NA,NA,NA,NA,NA,NA,NA,NA,NA,NA,NA,NA,NA,NA,NA,NA,NA,NA,NA,NA,NA,NA,NA
SUPAMT59092,34V1S5K3GY0RTC4BKIVOSB30AVG96A,85AEF770-5A2C-4643-8B0D-66BABFB01925,2023-09-27_09h12.05.982,WP_VExplicitOC_LH,2022.2.5,Win32,16.13423685,-21.35416667,5.3186,2.0504,NA,NA,NA,NA,NA,happy,"unhappy, happy","less happy, more happy",NA,NA,NA,NA,NA,NA,NA,NA,NA,NA,NA,NA,NA,NA,NA,0,2,2,0,1,NA,NA,NA,NA,NA,NA,NA,NA,NA,NA,NA,NA,NA,NA,NA,NA,NA,NA,NA,NA,NA,NA,NA,NA,NA,NA,NA,NA
SUPAMT59092,34V1S5K3GY0RTC4BKIVOSB30AVG96A,85AEF770-5A2C-4643-8B0D-66BABFB01925,2023-09-27_09h12.05.982,WP_VExplicitOC_LH,2022.2.5,Win32,16.13423685,NA,NA,NA,NA,NA,NA,NA,NA,NA,NA,NA,NA,NA,NA,NA,NA,NA,NA,NA,NA,NA,NA,NA,NA,NA,NA,NA,NA,NA,NA,NA,11,0,11,0,1,NA,NA,NA,NA,NA,NA,NA,NA,NA,NA,NA,NA,NA,NA,NA,NA,NA,NA,NA,NA,NA,NA,NA
SUPAMT59092,34V1S5K3GY0RTC4BKIVOSB30AVG96A,85AEF770-5A2C-4643-8B0D-66BABFB01925,2023-09-27_09h12.05.982,WP_VExplicitOC_LH,2022.2.5,Win32,16.13423685,NA,NA,2.0227,NA,NA,NA,NA,NA,bored,"bored, not bored","more bored, less bored",NA,NA,NA,NA,NA,NA,NA,NA,NA,NA,NA,NA,NA,NA,NA,0,0,0,2,1,NA,NA,NA,NA,NA,NA,NA,NA,NA,NA,NA,NA,NA,NA,NA,NA,NA,NA,NA,NA,NA,NA,NA,NA,NA,NA,NA,NA
SUPAMT59092,34V1S5K3GY0RTC4BKIVOSB30AVG96A,85AEF770-5A2C-4643-8B0D-66BABFB01925,2023-09-27_09h12.05.982,WP_VExplicitOC_LH,2022.2.5,Win32,16.13423685,-31.51041667,5.7935,2.0281,NA,NA,NA,NA,NA,frustrated,"frustrated, not frustrated","more frustrated, less frustrated",NA,NA,NA,NA,NA,NA,NA,NA,NA,NA,NA,NA,NA,NA,NA,0,1,1,1,1,NA,NA,NA,NA,NA,NA,NA,NA,NA,NA,NA,NA,NA,NA,NA,NA,NA,NA,NA,NA,NA,NA,NA,NA,NA,NA,NA,NA
SUPAMT59092,34V1S5K3GY0RTC4BKIVOSB30AVG96A,85AEF770-5A2C-4643-8B0D-66BABFB01925,2023-09-27_09h12.05.982,WP_VExplicitOC_LH,2022.2.5,Win32,16.13423685,NA,NA,2.0477,NA,NA,NA,NA,NA,happy,"unhappy, happy","less happy, more happy",NA,NA,NA,NA,NA,NA,NA,NA,NA,NA,NA,NA,NA,NA,NA,0,2,2,0,1,NA,NA,NA,NA,NA,NA,NA,NA,NA,NA,NA,NA,NA,NA,NA,NA,NA,NA,NA,NA,NA,NA,NA,NA,NA,NA,NA,NA
SUPAMT59092,34V1S5K3GY0RTC4BKIVOSB30AVG96A,85AEF770-5A2C-4643-8B0D-66BABFB01925,2023-09-27_09h12.05.982,WP_VExplicitOC_LH,2022.2.5,Win32,16.13423685,NA,NA,NA,NA,NA,NA,NA,NA,NA,NA,NA,NA,NA,NA,NA,NA,NA,NA,NA,NA,NA,NA,NA,NA,NA,NA,NA,NA,NA,NA,NA,12,0,12,0,1,NA,NA,NA,NA,NA,NA,NA,NA,NA,NA,NA,NA,NA,NA,NA,NA,NA,NA,NA,NA,NA,NA,NA
SUPAMT59092,34V1S5K3GY0RTC4BKIVOSB30AVG96A,85AEF770-5A2C-4643-8B0D-66BABFB01925,2023-09-27_09h12.05.982,WP_VExplicitOC_LH,2022.2.5,Win32,16.13423685,-24.47916667,5.4463,2.0216,NA,NA,NA,NA,NA,bored,"bored, not bored","more bored, less bored",NA,NA,NA,NA,NA,NA,NA,NA,NA,NA,NA,NA,NA,NA,NA,0,0,0,2,1,NA,NA,NA,NA,NA,NA,NA,NA,NA,NA,NA,NA,NA,NA,NA,NA,NA,NA,NA,NA,NA,NA,NA,NA,NA,NA,NA,NA
SUPAMT59092,34V1S5K3GY0RTC4BKIVOSB30AVG96A,85AEF770-5A2C-4643-8B0D-66BABFB01925,2023-09-27_09h12.05.982,WP_VExplicitOC_LH,2022.2.5,Win32,16.13423685,-34.11458333,4.7276,2.0821,NA,NA,NA,NA,NA,frustrated,"frustrated, not frustrated","more frustrated, less frustrated",NA,NA,NA,NA,NA,NA,NA,NA,NA,NA,NA,NA,NA,NA,NA,0,1,1,1,1,NA,NA,NA,NA,NA,NA,NA,NA,NA,NA,NA,NA,NA,NA,NA,NA,NA,NA,NA,NA,NA,NA,NA,NA,NA,NA,NA,NA
SUPAMT59092,34V1S5K3GY0RTC4BKIVOSB30AVG96A,85AEF770-5A2C-4643-8B0D-66BABFB01925,2023-09-27_09h12.05.982,WP_VExplicitOC_LH,2022.2.5,Win32,16.13423685,-42.70833333,4.5627,2.0321,NA,NA,NA,NA,NA,happy,"unhappy, happy","less happy, more happy",NA,NA,NA,NA,NA,NA,NA,NA,NA,NA,NA,NA,NA,NA,NA,0,2,2,0,1,NA,NA,NA,NA,NA,NA,NA,NA,NA,NA,NA,NA,NA,NA,NA,NA,NA,NA,NA,NA,NA,NA,NA,NA,NA,NA,NA,NA
SUPAMT59092,34V1S5K3GY0RTC4BKIVOSB30AVG96A,85AEF770-5A2C-4643-8B0D-66BABFB01925,2023-09-27_09h12.05.982,WP_VExplicitOC_LH,2022.2.5,Win32,16.13423685,NA,NA,NA,NA,NA,NA,NA,NA,NA,NA,NA,NA,NA,NA,NA,NA,NA,NA,NA,NA,NA,NA,NA,NA,NA,NA,NA,NA,NA,NA,NA,13,0,13,0,1,NA,NA,NA,NA,NA,NA,NA,NA,NA,NA,NA,NA,NA,NA,NA,NA,NA,NA,NA,NA,NA,NA,NA
SUPAMT59092,34V1S5K3GY0RTC4BKIVOSB30AVG96A,85AEF770-5A2C-4643-8B0D-66BABFB01925,2023-09-27_09h12.05.982,WP_VExplicitOC_LH,2022.2.5,Win32,16.13423685,-24.47916667,4.558,2.0202,NA,NA,NA,NA,NA,happy,"unhappy, happy","less happy, more happy",NA,NA,NA,NA,NA,NA,NA,NA,NA,NA,NA,NA,NA,NA,NA,0,0,0,0,1,NA,NA,NA,NA,NA,NA,NA,NA,NA,NA,NA,NA,NA,NA,NA,NA,NA,NA,NA,NA,NA,NA,NA,NA,NA,NA,NA,NA
SUPAMT59092,34V1S5K3GY0RTC4BKIVOSB30AVG96A,85AEF770-5A2C-4643-8B0D-66BABFB01925,2023-09-27_09h12.05.982,WP_VExplicitOC_LH,2022.2.5,Win32,16.13423685,-56.77083333,7.1205,2.0283,NA,NA,NA,NA,NA,bored,"bored, not bored","more bored, less bored",NA,NA,NA,NA,NA,NA,NA,NA,NA,NA,NA,NA,NA,NA,NA,0,1,1,2,1,NA,NA,NA,NA,NA,NA,NA,NA,NA,NA,NA,NA,NA,NA,NA,NA,NA,NA,NA,NA,NA,NA,NA,NA,NA,NA,NA,NA
SUPAMT59092,34V1S5K3GY0RTC4BKIVOSB30AVG96A,85AEF770-5A2C-4643-8B0D-66BABFB01925,2023-09-27_09h12.05.982,WP_VExplicitOC_LH,2022.2.5,Win32,16.13423685,-46.35416667,4.6609,2.0003,NA,NA,NA,NA,NA,frustrated,"frustrated, not frustrated","more frustrated, less frustrated",NA,NA,NA,NA,NA,NA,NA,NA,NA,NA,NA,NA,NA,NA,NA,0,2,2,1,1,NA,NA,NA,NA,NA,NA,NA,NA,NA,NA,NA,NA,NA,NA,NA,NA,NA,NA,NA,NA,NA,NA,NA,NA,NA,NA,NA,NA
SUPAMT59092,34V1S5K3GY0RTC4BKIVOSB30AVG96A,85AEF770-5A2C-4643-8B0D-66BABFB01925,2023-09-27_09h12.05.982,WP_VExplicitOC_LH,2022.2.5,Win32,16.13423685,NA,NA,NA,NA,NA,NA,NA,NA,NA,NA,NA,NA,NA,NA,NA,NA,NA,NA,NA,NA,NA,NA,NA,NA,NA,NA,NA,NA,NA,NA,NA,14,0,14,0,1,NA,NA,NA,NA,NA,NA,NA,NA,NA,NA,NA,NA,NA,NA,NA,NA,NA,NA,NA,NA,NA,NA,NA
SUPAMT59092,34V1S5K3GY0RTC4BKIVOSB30AVG96A,85AEF770-5A2C-4643-8B0D-66BABFB01925,2023-09-27_09h12.05.982,WP_VExplicitOC_LH,2022.2.5,Win32,16.13423685,NA,NA,NA,NA,NA,NA,NA,NA,NA,NA,NA,NA,NA,NA,NA,NA,NA,NA,NA,NA,NA,NA,NA,NA,NA,NA,NA,NA,NA,NA,NA,NA,NA,NA,NA,NA,NA,NA,NA,NA,NA,NA,NA,NA,NA,NA,NA,NA,NA,NA,NA,NA,NA,NA,NA,NA,NA,NA,NA
SUPAMT59092,34V1S5K3GY0RTC4BKIVOSB30AVG96A,85AEF770-5A2C-4643-8B0D-66BABFB01925,2023-09-27_09h12.05.982,WP_VExplicitOC_LH,2022.2.5,Win32,16.13423685,NA,NA,NA,NA,NA,NA,NA,NA,NA,NA,NA,NA,NA,NA,NA,NA,NA,NA,NA,NA,NA,NA,NA,NA,NA,NA,NA,NA,NA,NA,NA,NA,NA,NA,NA,NA,NA,NA,NA,NA,NA,NA,NA,NA,NA,NA,NA,NA,NA,NA,NA,NA,NA,NA,NA,NA,NA,NA,NA
SUPAMT59092,34V1S5K3GY0RTC4BKIVOSB30AVG96A,85AEF770-5A2C-4643-8B0D-66BABFB01925,2023-09-27_09h12.05.982,WP_VExplicitOC_LH,2022.2.5,Win32,16.13423685,NA,NA,NA,NA,NA,NA,NA,NA,NA,NA,NA,NA,NA,NA,NA,NA,NA,NA,rest (looking at a fixed cross),001.png,NA,NA,NA,NA,NA,NA,NA,NA,NA,NA,NA,NA,NA,NA,NA,NA,NA,NA,0,0,0,0,1,NA,NA,NA,NA,NA,NA,NA,NA,NA,NA,NA,NA,NA,NA,NA,NA
SUPAMT59092,34V1S5K3GY0RTC4BKIVOSB30AVG96A,85AEF770-5A2C-4643-8B0D-66BABFB01925,2023-09-27_09h12.05.982,WP_VExplicitOC_LH,2022.2.5,Win32,16.13423685,NA,NA,NA,NA,NA,NA,NA,NA,NA,NA,NA,NA,NA,NA,NA,NA,NA,NA,stand up,002.png,NA,NA,NA,NA,NA,NA,NA,NA,NA,NA,NA,NA,NA,NA,NA,NA,20.83333333,5.9736,0,1,1,1,1,NA,NA,NA,NA,NA,NA,NA,NA,NA,NA,NA,NA,NA,NA,NA,NA
SUPAMT59092,34V1S5K3GY0RTC4BKIVOSB30AVG96A,85AEF770-5A2C-4643-8B0D-66BABFB01925,2023-09-27_09h12.05.982,WP_VExplicitOC_LH,2022.2.5,Win32,16.13423685,NA,NA,NA,NA,NA,NA,NA,NA,NA,NA,NA,NA,NA,NA,NA,NA,NA,NA,stretch,003.png,NA,NA,NA,NA,NA,NA,NA,NA,NA,NA,NA,NA,NA,NA,NA,NA,68.75,3.6081,0,2,2,2,1,NA,NA,NA,NA,NA,NA,NA,NA,NA,NA,NA,NA,NA,NA,NA,NA
SUPAMT59092,34V1S5K3GY0RTC4BKIVOSB30AVG96A,85AEF770-5A2C-4643-8B0D-66BABFB01925,2023-09-27_09h12.05.982,WP_VExplicitOC_LH,2022.2.5,Win32,16.13423685,NA,NA,NA,NA,NA,NA,NA,NA,NA,NA,NA,NA,NA,NA,NA,NA,NA,NA,make a drink,004.png,NA,NA,NA,NA,NA,NA,NA,NA,NA,NA,NA,NA,NA,NA,NA,NA,68.75,3.2241,0,3,3,3,1,NA,NA,NA,NA,NA,NA,NA,NA,NA,NA,NA,NA,NA,NA,NA,NA
SUPAMT59092,34V1S5K3GY0RTC4BKIVOSB30AVG96A,85AEF770-5A2C-4643-8B0D-66BABFB01925,2023-09-27_09h12.05.982,WP_VExplicitOC_LH,2022.2.5,Win32,16.13423685,NA,NA,NA,NA,NA,NA,NA,NA,NA,NA,NA,NA,NA,NA,NA,NA,NA,NA,scroll social media,005.png,NA,NA,NA,NA,NA,NA,NA,NA,NA,NA,NA,NA,NA,NA,NA,NA,-40.36458333,3.8278,0,4,4,4,1,NA,NA,NA,NA,NA,NA,NA,NA,NA,NA,NA,NA,NA,NA,NA,NA
SUPAMT59092,34V1S5K3GY0RTC4BKIVOSB30AVG96A,85AEF770-5A2C-4643-8B0D-66BABFB01925,2023-09-27_09h12.05.982,WP_VExplicitOC_LH,2022.2.5,Win32,16.13423685,NA,NA,NA,NA,NA,NA,NA,NA,NA,NA,NA,NA,NA,NA,NA,NA,NA,NA,listen to music,006.png,NA,NA,NA,NA,NA,NA,NA,NA,NA,NA,NA,NA,NA,NA,NA,NA,22.13541667,5.5964,0,5,5,5,1,NA,NA,NA,NA,NA,NA,NA,NA,NA,NA,NA,NA,NA,NA,NA,NA
SUPAMT59092,34V1S5K3GY0RTC4BKIVOSB30AVG96A,85AEF770-5A2C-4643-8B0D-66BABFB01925,2023-09-27_09h12.05.982,WP_VExplicitOC_LH,2022.2.5,Win32,16.13423685,NA,NA,NA,NA,NA,NA,NA,NA,NA,NA,NA,NA,NA,NA,NA,NA,NA,NA,daydream,007.png,NA,NA,NA,NA,NA,NA,NA,NA,NA,NA,NA,NA,NA,NA,NA,NA,-39.58333333,3.4052,0,6,6,6,1,NA,NA,NA,NA,NA,NA,NA,NA,NA,NA,NA,NA,NA,NA,NA,NA
SUPAMT59092,34V1S5K3GY0RTC4BKIVOSB30AVG96A,85AEF770-5A2C-4643-8B0D-66BABFB01925,2023-09-27_09h12.05.982,WP_VExplicitOC_LH,2022.2.5,Win32,16.13423685,NA,NA,NA,NA,NA,NA,NA,NA,NA,NA,NA,NA,NA,NA,NA,NA,NA,NA,watch a short animation,008.png,NA,NA,NA,NA,NA,NA,NA,NA,NA,NA,NA,NA,NA,NA,NA,NA,-54.94791667,3.2603,0,7,7,7,1,NA,NA,NA,NA,NA,NA,NA,NA,NA,NA,NA,NA,NA,NA,NA,NA
SUPAMT59092,34V1S5K3GY0RTC4BKIVOSB30AVG96A,85AEF770-5A2C-4643-8B0D-66BABFB01925,2023-09-27_09h12.05.982,WP_VExplicitOC_LH,2022.2.5,Win32,16.13423685,NA,NA,NA,NA,NA,NA,NA,NA,NA,NA,NA,NA,NA,NA,NA,NA,NA,NA,read a novel,009.png,NA,NA,NA,NA,NA,NA,NA,NA,NA,NA,NA,NA,NA,NA,NA,NA,-62.23958333,4.0006,0,8,8,8,1,NA,NA,NA,NA,NA,NA,NA,NA,NA,NA,NA,NA,NA,NA,NA,NA
SUPAMT59092,34V1S5K3GY0RTC4BKIVOSB30AVG96A,85AEF770-5A2C-4643-8B0D-66BABFB01925,2023-09-27_09h12.05.982,WP_VExplicitOC_LH,2022.2.5,Win32,16.13423685,NA,NA,NA,NA,NA,NA,NA,NA,NA,NA,NA,NA,NA,NA,NA,NA,NA,NA,read the news,010.png,NA,NA,NA,NA,NA,NA,NA,NA,NA,NA,NA,NA,NA,NA,NA,NA,-59.375,5.0024,0,9,9,9,1,NA,NA,NA,NA,NA,NA,NA,NA,NA,NA,NA,NA,NA,NA,NA,NA
SUPAMT59092,34V1S5K3GY0RTC4BKIVOSB30AVG96A,85AEF770-5A2C-4643-8B0D-66BABFB01925,2023-09-27_09h12.05.982,WP_VExplicitOC_LH,2022.2.5,Win32,16.13423685,NA,NA,NA,NA,NA,NA,NA,NA,NA,NA,NA,NA,NA,NA,NA,NA,NA,NA,NA,NA,NA,NA,NA,NA,NA,NA,NA,NA,NA,NA,NA,NA,NA,NA,NA,NA,NA,NA,NA,NA,NA,NA,NA,stand up,NA,NA,NA,NA,NA,NA,NA,NA,NA,NA,NA,NA,NA,NA,NA
SUPAMT59092,34V1S5K3GY0RTC4BKIVOSB30AVG96A,85AEF770-5A2C-4643-8B0D-66BABFB01925,2023-09-27_09h12.05.982,WP_VExplicitOC_LH,2022.2.5,Win32,16.13423685,35.15625,6.1599,2.0374,NA,NA,NA,NA,NA,happy,"unhappy, happy","less happy, more happy",NA,NA,NA,NA,NA,NA,NA,NA,NA,NA,NA,NA,NA,NA,NA,NA,NA,NA,NA,NA,NA,NA,NA,NA,NA,NA,NA,NA,NA,NA,NA,NA,NA,0,0,0,0,1,NA,NA,NA,NA,NA,NA,NA,NA,NA,NA
SUPAMT59092,34V1S5K3GY0RTC4BKIVOSB30AVG96A,85AEF770-5A2C-4643-8B0D-66BABFB01925,2023-09-27_09h12.05.982,WP_VExplicitOC_LH,2022.2.5,Win32,16.13423685,-34.89583333,6.5706,2.0838,NA,NA,NA,NA,NA,bored,"bored, not bored","more bored, less bored",NA,NA,NA,NA,NA,NA,NA,NA,NA,NA,NA,NA,NA,NA,NA,NA,NA,NA,NA,NA,NA,NA,NA,NA,NA,NA,NA,NA,NA,NA,NA,NA,NA,0,1,1,2,1,NA,NA,NA,NA,NA,NA,NA,NA,NA,NA
SUPAMT59092,34V1S5K3GY0RTC4BKIVOSB30AVG96A,85AEF770-5A2C-4643-8B0D-66BABFB01925,2023-09-27_09h12.05.982,WP_VExplicitOC_LH,2022.2.5,Win32,16.13423685,NA,NA,2.0274,NA,NA,NA,NA,NA,frustrated,"frustrated, not frustrated","more frustrated, less frustrated",NA,NA,NA,NA,NA,NA,NA,NA,NA,NA,NA,NA,NA,NA,NA,NA,NA,NA,NA,NA,NA,NA,NA,NA,NA,NA,NA,NA,NA,NA,NA,NA,NA,0,2,2,1,1,NA,NA,NA,NA,NA,NA,NA,NA,NA,NA
SUPAMT59092,34V1S5K3GY0RTC4BKIVOSB30AVG96A,85AEF770-5A2C-4643-8B0D-66BABFB01925,2023-09-27_09h12.05.982,WP_VExplicitOC_LH,2022.2.5,Win32,16.13423685,NA,NA,NA,NA,NA,NA,NA,NA,NA,NA,NA,NA,NA,NA,NA,NA,NA,NA,NA,NA,NA,NA,NA,NA,NA,NA,NA,NA,NA,NA,NA,NA,NA,NA,NA,NA,NA,NA,NA,NA,NA,NA,NA,NA,NA,NA,NA,NA,NA,NA,NA,NA,NA,NA,NA,NA,NA,NA,NA
SUPAMT59092,34V1S5K3GY0RTC4BKIVOSB30AVG96A,85AEF770-5A2C-4643-8B0D-66BABFB01925,2023-09-27_09h12.05.982,WP_VExplicitOC_LH,2022.2.5,Win32,16.13423685,NA,NA,NA,NA,NA,NA,NA,NA,NA,NA,NA,NA,NA,NA,NA,NA,NA,NA,NA,NA,NA,NA,NA,NA,NA,NA,NA,NA,NA,NA,NA,NA,NA,NA,NA,NA,NA,NA,NA,NA,NA,NA,NA,NA,NA,NA,NA,NA,NA,NA,NA,NA,NA,NA,NA,NA,NA,NA,NA
SUPAMT59092,34V1S5K3GY0RTC4BKIVOSB30AVG96A,85AEF770-5A2C-4643-8B0D-66BABFB01925,2023-09-27_09h12.05.982,WP_VExplicitOC_LH,2022.2.5,Win32,16.13423685,-30.98958333,7.2756,2.005,NA,NA,NA,NA,NA,frustrated,"frustrated, not frustrated","more frustrated, less frustrated",NA,NA,NA,NA,NA,NA,NA,NA,NA,NA,NA,NA,NA,NA,NA,NA,NA,NA,NA,NA,NA,NA,NA,NA,NA,NA,NA,NA,NA,NA,NA,NA,NA,NA,NA,NA,NA,NA,0,0,0,1,1,NA,NA,NA,NA,NA
SUPAMT59092,34V1S5K3GY0RTC4BKIVOSB30AVG96A,85AEF770-5A2C-4643-8B0D-66BABFB01925,2023-09-27_09h12.05.982,WP_VExplicitOC_LH,2022.2.5,Win32,16.13423685,-44.27083333,6.3118,2.0453,NA,NA,NA,NA,NA,bored,"bored, not bored","more bored, less bored",NA,NA,NA,NA,NA,NA,NA,NA,NA,NA,NA,NA,NA,NA,NA,NA,NA,NA,NA,NA,NA,NA,NA,NA,NA,NA,NA,NA,NA,NA,NA,NA,NA,NA,NA,NA,NA,NA,0,1,1,2,1,NA,NA,NA,NA,NA
SUPAMT59092,34V1S5K3GY0RTC4BKIVOSB30AVG96A,85AEF770-5A2C-4643-8B0D-66BABFB01925,2023-09-27_09h12.05.982,WP_VExplicitOC_LH,2022.2.5,Win32,16.13423685,NA,NA,2.0664,NA,NA,NA,NA,NA,happy,"unhappy, happy","less happy, more happy",NA,NA,NA,NA,NA,NA,NA,NA,NA,NA,NA,NA,NA,NA,NA,NA,NA,NA,NA,NA,NA,NA,NA,NA,NA,NA,NA,NA,NA,NA,NA,NA,NA,NA,NA,NA,NA,NA,0,2,2,0,1,NA,NA,NA,NA,NA
SUPAMT59092,34V1S5K3GY0RTC4BKIVOSB30AVG96A,85AEF770-5A2C-4643-8B0D-66BABFB01925,2023-09-27_09h12.05.982,WP_VExplicitOC_LH,2022.2.5,Win32,16.13423685,NA,NA,NA,NA,NA,NA,NA,NA,NA,NA,NA,NA,NA,NA,NA,NA,NA,NA,NA,NA,NA,NA,NA,NA,NA,NA,NA,NA,NA,NA,NA,NA,NA,NA,NA,NA,NA,NA,NA,NA,NA,NA,NA,NA,NA,NA,NA,NA,NA,NA,NA,NA,NA,NA,0,0,0,0,1
SUPAMT59092,34V1S5K3GY0RTC4BKIVOSB30AVG96A,85AEF770-5A2C-4643-8B0D-66BABFB01925,2023-09-27_09h12.05.982,WP_VExplicitOC_LH,2022.2.5,Win32,16.13423685,-41.14583333,5.7532,2.0395,NA,NA,NA,NA,NA,frustrated,"frustrated, not frustrated","more frustrated, less frustrated",NA,NA,NA,NA,NA,NA,NA,NA,NA,NA,NA,NA,NA,NA,NA,NA,NA,NA,NA,NA,NA,NA,NA,NA,NA,NA,NA,NA,NA,NA,NA,NA,NA,NA,NA,NA,NA,NA,0,0,0,1,1,NA,NA,NA,NA,NA
SUPAMT59092,34V1S5K3GY0RTC4BKIVOSB30AVG96A,85AEF770-5A2C-4643-8B0D-66BABFB01925,2023-09-27_09h12.05.982,WP_VExplicitOC_LH,2022.2.5,Win32,16.13423685,-36.97916667,5.0193,2.0587,NA,NA,NA,NA,NA,bored,"bored, not bored","more bored, less bored",NA,NA,NA,NA,NA,NA,NA,NA,NA,NA,NA,NA,NA,NA,NA,NA,NA,NA,NA,NA,NA,NA,NA,NA,NA,NA,NA,NA,NA,NA,NA,NA,NA,NA,NA,NA,NA,NA,0,1,1,2,1,NA,NA,NA,NA,NA
SUPAMT59092,34V1S5K3GY0RTC4BKIVOSB30AVG96A,85AEF770-5A2C-4643-8B0D-66BABFB01925,2023-09-27_09h12.05.982,WP_VExplicitOC_LH,2022.2.5,Win32,16.13423685,-38.80208333,4.6682,2.045,NA,NA,NA,NA,NA,happy,"unhappy, happy","less happy, more happy",NA,NA,NA,NA,NA,NA,NA,NA,NA,NA,NA,NA,NA,NA,NA,NA,NA,NA,NA,NA,NA,NA,NA,NA,NA,NA,NA,NA,NA,NA,NA,NA,NA,NA,NA,NA,NA,NA,0,2,2,0,1,NA,NA,NA,NA,NA
SUPAMT59092,34V1S5K3GY0RTC4BKIVOSB30AVG96A,85AEF770-5A2C-4643-8B0D-66BABFB01925,2023-09-27_09h12.05.982,WP_VExplicitOC_LH,2022.2.5,Win32,16.13423685,NA,NA,NA,NA,NA,NA,NA,NA,NA,NA,NA,NA,NA,NA,NA,NA,NA,NA,NA,NA,NA,NA,NA,NA,NA,NA,NA,NA,NA,NA,NA,NA,NA,NA,NA,NA,NA,NA,NA,NA,NA,NA,NA,NA,NA,NA,NA,NA,NA,NA,NA,NA,NA,NA,1,0,1,0,1
SUPAMT59092,34V1S5K3GY0RTC4BKIVOSB30AVG96A,85AEF770-5A2C-4643-8B0D-66BABFB01925,2023-09-27_09h12.05.982,WP_VExplicitOC_LH,2022.2.5,Win32,16.13423685,-44.27083333,5.9499,2.0001,NA,NA,NA,NA,NA,bored,"bored, not bored","more bored, less bored",NA,NA,NA,NA,NA,NA,NA,NA,NA,NA,NA,NA,NA,NA,NA,NA,NA,NA,NA,NA,NA,NA,NA,NA,NA,NA,NA,NA,NA,NA,NA,NA,NA,NA,NA,NA,NA,NA,0,0,0,2,1,NA,NA,NA,NA,NA
SUPAMT59092,34V1S5K3GY0RTC4BKIVOSB30AVG96A,85AEF770-5A2C-4643-8B0D-66BABFB01925,2023-09-27_09h12.05.982,WP_VExplicitOC_LH,2022.2.5,Win32,16.13423685,-38.80208333,6.1284,2.0011,NA,NA,NA,NA,NA,frustrated,"frustrated, not frustrated","more frustrated, less frustrated",NA,NA,NA,NA,NA,NA,NA,NA,NA,NA,NA,NA,NA,NA,NA,NA,NA,NA,NA,NA,NA,NA,NA,NA,NA,NA,NA,NA,NA,NA,NA,NA,NA,NA,NA,NA,NA,NA,0,1,1,1,1,NA,NA,NA,NA,NA
SUPAMT59092,34V1S5K3GY0RTC4BKIVOSB30AVG96A,85AEF770-5A2C-4643-8B0D-66BABFB01925,2023-09-27_09h12.05.982,WP_VExplicitOC_LH,2022.2.5,Win32,16.13423685,-45.57291667,6.16,2.0366,NA,NA,NA,NA,NA,happy,"unhappy, happy","less happy, more happy",NA,NA,NA,NA,NA,NA,NA,NA,NA,NA,NA,NA,NA,NA,NA,NA,NA,NA,NA,NA,NA,NA,NA,NA,NA,NA,NA,NA,NA,NA,NA,NA,NA,NA,NA,NA,NA,NA,0,2,2,0,1,NA,NA,NA,NA,NA
SUPAMT59092,34V1S5K3GY0RTC4BKIVOSB30AVG96A,85AEF770-5A2C-4643-8B0D-66BABFB01925,2023-09-27_09h12.05.982,WP_VExplicitOC_LH,2022.2.5,Win32,16.13423685,NA,NA,NA,NA,NA,NA,NA,NA,NA,NA,NA,NA,NA,NA,NA,NA,NA,NA,NA,NA,NA,NA,NA,NA,NA,NA,NA,NA,NA,NA,NA,NA,NA,NA,NA,NA,NA,NA,NA,NA,NA,NA,NA,NA,NA,NA,NA,NA,NA,NA,NA,NA,NA,NA,2,0,2,0,1
SUPAMT59092,34V1S5K3GY0RTC4BKIVOSB30AVG96A,85AEF770-5A2C-4643-8B0D-66BABFB01925,2023-09-27_09h12.05.982,WP_VExplicitOC_LH,2022.2.5,Win32,16.13423685,36.45833333,4.8731,2.0735,NA,NA,NA,NA,NA,happy,"unhappy, happy","less happy, more happy",NA,NA,NA,NA,NA,NA,NA,NA,NA,NA,NA,NA,NA,NA,NA,NA,NA,NA,NA,NA,NA,NA,NA,NA,NA,NA,NA,NA,NA,NA,NA,NA,NA,NA,NA,NA,NA,NA,0,0,0,0,1,NA,NA,NA,NA,NA
SUPAMT59092,34V1S5K3GY0RTC4BKIVOSB30AVG96A,85AEF770-5A2C-4643-8B0D-66BABFB01925,2023-09-27_09h12.05.982,WP_VExplicitOC_LH,2022.2.5,Win32,16.13423685,-21.09375,6.7946,2.0379,NA,NA,NA,NA,NA,frustrated,"frustrated, not frustrated","more frustrated, less frustrated",NA,NA,NA,NA,NA,NA,NA,NA,NA,NA,NA,NA,NA,NA,NA,NA,NA,NA,NA,NA,NA,NA,NA,NA,NA,NA,NA,NA,NA,NA,NA,NA,NA,NA,NA,NA,NA,NA,0,1,1,1,1,NA,NA,NA,NA,NA
SUPAMT59092,34V1S5K3GY0RTC4BKIVOSB30AVG96A,85AEF770-5A2C-4643-8B0D-66BABFB01925,2023-09-27_09h12.05.982,WP_VExplicitOC_LH,2022.2.5,Win32,16.13423685,NA,NA,2.0293,NA,NA,NA,NA,NA,bored,"bored, not bored","more bored, less bored",NA,NA,NA,NA,NA,NA,NA,NA,NA,NA,NA,NA,NA,NA,NA,NA,NA,NA,NA,NA,NA,NA,NA,NA,NA,NA,NA,NA,NA,NA,NA,NA,NA,NA,NA,NA,NA,NA,0,2,2,2,1,NA,NA,NA,NA,NA
SUPAMT59092,34V1S5K3GY0RTC4BKIVOSB30AVG96A,85AEF770-5A2C-4643-8B0D-66BABFB01925,2023-09-27_09h12.05.982,WP_VExplicitOC_LH,2022.2.5,Win32,16.13423685,NA,NA,NA,NA,NA,NA,NA,NA,NA,NA,NA,NA,NA,NA,NA,NA,NA,NA,NA,NA,NA,NA,NA,NA,NA,NA,NA,NA,NA,NA,NA,NA,NA,NA,NA,NA,NA,NA,NA,NA,NA,NA,NA,NA,NA,NA,NA,NA,NA,NA,NA,NA,NA,NA,3,0,3,0,1
SUPAMT59092,34V1S5K3GY0RTC4BKIVOSB30AVG96A,85AEF770-5A2C-4643-8B0D-66BABFB01925,2023-09-27_09h12.05.982,WP_VExplicitOC_LH,2022.2.5,Win32,16.13423685,-28.90625,6.3404,2.0258,NA,NA,NA,NA,NA,happy,"unhappy, happy","less happy, more happy",NA,NA,NA,NA,NA,NA,NA,NA,NA,NA,NA,NA,NA,NA,NA,NA,NA,NA,NA,NA,NA,NA,NA,NA,NA,NA,NA,NA,NA,NA,NA,NA,NA,NA,NA,NA,NA,NA,0,0,0,0,1,NA,NA,NA,NA,NA
SUPAMT59092,34V1S5K3GY0RTC4BKIVOSB30AVG96A,85AEF770-5A2C-4643-8B0D-66BABFB01925,2023-09-27_09h12.05.982,WP_VExplicitOC_LH,2022.2.5,Win32,16.13423685,NA,NA,2.0514,NA,NA,NA,NA,NA,frustrated,"frustrated, not frustrated","more frustrated, less frustrated",NA,NA,NA,NA,NA,NA,NA,NA,NA,NA,NA,NA,NA,NA,NA,NA,NA,NA,NA,NA,NA,NA,NA,NA,NA,NA,NA,NA,NA,NA,NA,NA,NA,NA,NA,NA,NA,NA,0,1,1,1,1,NA,NA,NA,NA,NA
SUPAMT59092,34V1S5K3GY0RTC4BKIVOSB30AVG96A,85AEF770-5A2C-4643-8B0D-66BABFB01925,2023-09-27_09h12.05.982,WP_VExplicitOC_LH,2022.2.5,Win32,16.13423685,-41.14583333,5.5621,2.0689,NA,NA,NA,NA,NA,bored,"bored, not bored","more bored, less bored",NA,NA,NA,NA,NA,NA,NA,NA,NA,NA,NA,NA,NA,NA,NA,NA,NA,NA,NA,NA,NA,NA,NA,NA,NA,NA,NA,NA,NA,NA,NA,NA,NA,NA,NA,NA,NA,NA,0,2,2,2,1,NA,NA,NA,NA,NA
SUPAMT59092,34V1S5K3GY0RTC4BKIVOSB30AVG96A,85AEF770-5A2C-4643-8B0D-66BABFB01925,2023-09-27_09h12.05.982,WP_VExplicitOC_LH,2022.2.5,Win32,16.13423685,NA,NA,NA,NA,NA,NA,NA,NA,NA,NA,NA,NA,NA,NA,NA,NA,NA,NA,NA,NA,NA,NA,NA,NA,NA,NA,NA,NA,NA,NA,NA,NA,NA,NA,NA,NA,NA,NA,NA,NA,NA,NA,NA,NA,NA,NA,NA,NA,NA,NA,NA,NA,NA,NA,4,0,4,0,1
SUPAMT59092,34V1S5K3GY0RTC4BKIVOSB30AVG96A,85AEF770-5A2C-4643-8B0D-66BABFB01925,2023-09-27_09h12.05.982,WP_VExplicitOC_LH,2022.2.5,Win32,16.13423685,-36.45833333,5.0548,2.0227,NA,NA,NA,NA,NA,frustrated,"frustrated, not frustrated","more frustrated, less frustrated",NA,NA,NA,NA,NA,NA,NA,NA,NA,NA,NA,NA,NA,NA,NA,NA,NA,NA,NA,NA,NA,NA,NA,NA,NA,NA,NA,NA,NA,NA,NA,NA,NA,NA,NA,NA,NA,NA,0,0,0,1,1,NA,NA,NA,NA,NA
SUPAMT59092,34V1S5K3GY0RTC4BKIVOSB30AVG96A,85AEF770-5A2C-4643-8B0D-66BABFB01925,2023-09-27_09h12.05.982,WP_VExplicitOC_LH,2022.2.5,Win32,16.13423685,-33.59375,4.5458,2.0066,NA,NA,NA,NA,NA,bored,"bored, not bored","more bored, less bored",NA,NA,NA,NA,NA,NA,NA,NA,NA,NA,NA,NA,NA,NA,NA,NA,NA,NA,NA,NA,NA,NA,NA,NA,NA,NA,NA,NA,NA,NA,NA,NA,NA,NA,NA,NA,NA,NA,0,1,1,2,1,NA,NA,NA,NA,NA
SUPAMT59092,34V1S5K3GY0RTC4BKIVOSB30AVG96A,85AEF770-5A2C-4643-8B0D-66BABFB01925,2023-09-27_09h12.05.982,WP_VExplicitOC_LH,2022.2.5,Win32,16.13423685,-32.03125,4.2601,2.0149,NA,NA,NA,NA,NA,happy,"unhappy, happy","less happy, more happy",NA,NA,NA,NA,NA,NA,NA,NA,NA,NA,NA,NA,NA,NA,NA,NA,NA,NA,NA,NA,NA,NA,NA,NA,NA,NA,NA,NA,NA,NA,NA,NA,NA,NA,NA,NA,NA,NA,0,2,2,0,1,NA,NA,NA,NA,NA
SUPAMT59092,34V1S5K3GY0RTC4BKIVOSB30AVG96A,85AEF770-5A2C-4643-8B0D-66BABFB01925,2023-09-27_09h12.05.982,WP_VExplicitOC_LH,2022.2.5,Win32,16.13423685,NA,NA,NA,NA,NA,NA,NA,NA,NA,NA,NA,NA,NA,NA,NA,NA,NA,NA,NA,NA,NA,NA,NA,NA,NA,NA,NA,NA,NA,NA,NA,NA,NA,NA,NA,NA,NA,NA,NA,NA,NA,NA,NA,NA,NA,NA,NA,NA,NA,NA,NA,NA,NA,NA,5,0,5,0,1
SUPAMT59092,34V1S5K3GY0RTC4BKIVOSB30AVG96A,85AEF770-5A2C-4643-8B0D-66BABFB01925,2023-09-27_09h12.05.982,WP_VExplicitOC_LH,2022.2.5,Win32,16.13423685,-39.32291667,4.5627,2.0202,NA,NA,NA,NA,NA,frustrated,"frustrated, not frustrated","more frustrated, less frustrated",NA,NA,NA,NA,NA,NA,NA,NA,NA,NA,NA,NA,NA,NA,NA,NA,NA,NA,NA,NA,NA,NA,NA,NA,NA,NA,NA,NA,NA,NA,NA,NA,NA,NA,NA,NA,NA,NA,0,0,0,1,1,NA,NA,NA,NA,NA
SUPAMT59092,34V1S5K3GY0RTC4BKIVOSB30AVG96A,85AEF770-5A2C-4643-8B0D-66BABFB01925,2023-09-27_09h12.05.982,WP_VExplicitOC_LH,2022.2.5,Win32,16.13423685,-34.375,5.7868,2.0103,NA,NA,NA,NA,NA,bored,"bored, not bored","more bored, less bored",NA,NA,NA,NA,NA,NA,NA,NA,NA,NA,NA,NA,NA,NA,NA,NA,NA,NA,NA,NA,NA,NA,NA,NA,NA,NA,NA,NA,NA,NA,NA,NA,NA,NA,NA,NA,NA,NA,0,1,1,2,1,NA,NA,NA,NA,NA
SUPAMT59092,34V1S5K3GY0RTC4BKIVOSB30AVG96A,85AEF770-5A2C-4643-8B0D-66BABFB01925,2023-09-27_09h12.05.982,WP_VExplicitOC_LH,2022.2.5,Win32,16.13423685,-36.45833333,4.8306,2.0054,NA,NA,NA,NA,NA,happy,"unhappy, happy","less happy, more happy",NA,NA,NA,NA,NA,NA,NA,NA,NA,NA,NA,NA,NA,NA,NA,NA,NA,NA,NA,NA,NA,NA,NA,NA,NA,NA,NA,NA,NA,NA,NA,NA,NA,NA,NA,NA,NA,NA,0,2,2,0,1,NA,NA,NA,NA,NA
SUPAMT59092,34V1S5K3GY0RTC4BKIVOSB30AVG96A,85AEF770-5A2C-4643-8B0D-66BABFB01925,2023-09-27_09h12.05.982,WP_VExplicitOC_LH,2022.2.5,Win32,16.13423685,NA,NA,NA,NA,NA,NA,NA,NA,NA,NA,NA,NA,NA,NA,NA,NA,NA,NA,NA,NA,NA,NA,NA,NA,NA,NA,NA,NA,NA,NA,NA,NA,NA,NA,NA,NA,NA,NA,NA,NA,NA,NA,NA,NA,NA,NA,NA,NA,NA,NA,NA,NA,NA,NA,6,0,6,0,1
SUPAMT59092,34V1S5K3GY0RTC4BKIVOSB30AVG96A,85AEF770-5A2C-4643-8B0D-66BABFB01925,2023-09-27_09h12.05.982,WP_VExplicitOC_LH,2022.2.5,Win32,16.13423685,-36.19791667,6.8279,2.0203,NA,NA,NA,NA,NA,bored,"bored, not bored","more bored, less bored",NA,NA,NA,NA,NA,NA,NA,NA,NA,NA,NA,NA,NA,NA,NA,NA,NA,NA,NA,NA,NA,NA,NA,NA,NA,NA,NA,NA,NA,NA,NA,NA,NA,NA,NA,NA,NA,NA,0,0,0,2,1,NA,NA,NA,NA,NA
SUPAMT59092,34V1S5K3GY0RTC4BKIVOSB30AVG96A,85AEF770-5A2C-4643-8B0D-66BABFB01925,2023-09-27_09h12.05.982,WP_VExplicitOC_LH,2022.2.5,Win32,16.13423685,-27.60416667,4.1625,2.0666,NA,NA,NA,NA,NA,happy,"unhappy, happy","less happy, more happy",NA,NA,NA,NA,NA,NA,NA,NA,NA,NA,NA,NA,NA,NA,NA,NA,NA,NA,NA,NA,NA,NA,NA,NA,NA,NA,NA,NA,NA,NA,NA,NA,NA,NA,NA,NA,NA,NA,0,1,1,0,1,NA,NA,NA,NA,NA
SUPAMT59092,34V1S5K3GY0RTC4BKIVOSB30AVG96A,85AEF770-5A2C-4643-8B0D-66BABFB01925,2023-09-27_09h12.05.982,WP_VExplicitOC_LH,2022.2.5,Win32,16.13423685,-43.22916667,4.3469,2.0665,NA,NA,NA,NA,NA,frustrated,"frustrated, not frustrated","more frustrated, less frustrated",NA,NA,NA,NA,NA,NA,NA,NA,NA,NA,NA,NA,NA,NA,NA,NA,NA,NA,NA,NA,NA,NA,NA,NA,NA,NA,NA,NA,NA,NA,NA,NA,NA,NA,NA,NA,NA,NA,0,2,2,1,1,NA,NA,NA,NA,NA
SUPAMT59092,34V1S5K3GY0RTC4BKIVOSB30AVG96A,85AEF770-5A2C-4643-8B0D-66BABFB01925,2023-09-27_09h12.05.982,WP_VExplicitOC_LH,2022.2.5,Win32,16.13423685,NA,NA,NA,NA,NA,NA,NA,NA,NA,NA,NA,NA,NA,NA,NA,NA,NA,NA,NA,NA,NA,NA,NA,NA,NA,NA,NA,NA,NA,NA,NA,NA,NA,NA,NA,NA,NA,NA,NA,NA,NA,NA,NA,NA,NA,NA,NA,NA,NA,NA,NA,NA,NA,NA,7,0,7,0,1
SUPAMT59092,34V1S5K3GY0RTC4BKIVOSB30AVG96A,85AEF770-5A2C-4643-8B0D-66BABFB01925,2023-09-27_09h12.05.982,WP_VExplicitOC_LH,2022.2.5,Win32,16.13423685,-51.30208333,4.4709,2.0015,NA,NA,NA,NA,NA,frustrated,"frustrated, not frustrated","more frustrated, less frustrated",NA,NA,NA,NA,NA,NA,NA,NA,NA,NA,NA,NA,NA,NA,NA,NA,NA,NA,NA,NA,NA,NA,NA,NA,NA,NA,NA,NA,NA,NA,NA,NA,NA,NA,NA,NA,NA,NA,0,0,0,1,1,NA,NA,NA,NA,NA
SUPAMT59092,34V1S5K3GY0RTC4BKIVOSB30AVG96A,85AEF770-5A2C-4643-8B0D-66BABFB01925,2023-09-27_09h12.05.982,WP_VExplicitOC_LH,2022.2.5,Win32,16.13423685,-70.57291667,4.8523,2.0454,NA,NA,NA,NA,NA,happy,"unhappy, happy","less happy, more happy",NA,NA,NA,NA,NA,NA,NA,NA,NA,NA,NA,NA,NA,NA,NA,NA,NA,NA,NA,NA,NA,NA,NA,NA,NA,NA,NA,NA,NA,NA,NA,NA,NA,NA,NA,NA,NA,NA,0,1,1,0,1,NA,NA,NA,NA,NA
SUPAMT59092,34V1S5K3GY0RTC4BKIVOSB30AVG96A,85AEF770-5A2C-4643-8B0D-66BABFB01925,2023-09-27_09h12.05.982,WP_VExplicitOC_LH,2022.2.5,Win32,16.13423685,-68.22916667,5.0289,2.0374,NA,NA,NA,NA,NA,bored,"bored, not bored","more bored, less bored",NA,NA,NA,NA,NA,NA,NA,NA,NA,NA,NA,NA,NA,NA,NA,NA,NA,NA,NA,NA,NA,NA,NA,NA,NA,NA,NA,NA,NA,NA,NA,NA,NA,NA,NA,NA,NA,NA,0,2,2,2,1,NA,NA,NA,NA,NA
SUPAMT59092,34V1S5K3GY0RTC4BKIVOSB30AVG96A,85AEF770-5A2C-4643-8B0D-66BABFB01925,2023-09-27_09h12.05.982,WP_VExplicitOC_LH,2022.2.5,Win32,16.13423685,NA,NA,NA,NA,NA,NA,NA,NA,NA,NA,NA,NA,NA,NA,NA,NA,NA,NA,NA,NA,NA,NA,NA,NA,NA,NA,NA,NA,NA,NA,NA,NA,NA,NA,NA,NA,NA,NA,NA,NA,NA,NA,NA,NA,NA,NA,NA,NA,NA,NA,NA,NA,NA,NA,8,0,8,0,1
SUPAMT59092,34V1S5K3GY0RTC4BKIVOSB30AVG96A,85AEF770-5A2C-4643-8B0D-66BABFB01925,2023-09-27_09h12.05.982,WP_VExplicitOC_LH,2022.2.5,Win32,16.13423685,-67.44791667,5.2611,2.0242,NA,NA,NA,NA,NA,bored,"bored, not bored","more bored, less bored",NA,NA,NA,NA,NA,NA,NA,NA,NA,NA,NA,NA,NA,NA,NA,NA,NA,NA,NA,NA,NA,NA,NA,NA,NA,NA,NA,NA,NA,NA,NA,NA,NA,NA,NA,NA,NA,NA,0,0,0,2,1,NA,NA,NA,NA,NA
SUPAMT59092,34V1S5K3GY0RTC4BKIVOSB30AVG96A,85AEF770-5A2C-4643-8B0D-66BABFB01925,2023-09-27_09h12.05.982,WP_VExplicitOC_LH,2022.2.5,Win32,16.13423685,-65.36458333,5.142,2.029,NA,NA,NA,NA,NA,frustrated,"frustrated, not frustrated","more frustrated, less frustrated",NA,NA,NA,NA,NA,NA,NA,NA,NA,NA,NA,NA,NA,NA,NA,NA,NA,NA,NA,NA,NA,NA,NA,NA,NA,NA,NA,NA,NA,NA,NA,NA,NA,NA,NA,NA,NA,NA,0,1,1,1,1,NA,NA,NA,NA,NA
SUPAMT59092,34V1S5K3GY0RTC4BKIVOSB30AVG96A,85AEF770-5A2C-4643-8B0D-66BABFB01925,2023-09-27_09h12.05.982,WP_VExplicitOC_LH,2022.2.5,Win32,16.13423685,-47.39583333,5.0444,2.0169,NA,NA,NA,NA,NA,happy,"unhappy, happy","less happy, more happy",NA,NA,NA,NA,NA,NA,NA,NA,NA,NA,NA,NA,NA,NA,NA,NA,NA,NA,NA,NA,NA,NA,NA,NA,NA,NA,NA,NA,NA,NA,NA,NA,NA,NA,NA,NA,NA,NA,0,2,2,0,1,NA,NA,NA,NA,NA
SUPAMT59092,34V1S5K3GY0RTC4BKIVOSB30AVG96A,85AEF770-5A2C-4643-8B0D-66BABFB01925,2023-09-27_09h12.05.982,WP_VExplicitOC_LH,2022.2.5,Win32,16.13423685,NA,NA,NA,NA,NA,NA,NA,NA,NA,NA,NA,NA,NA,NA,NA,NA,NA,NA,NA,NA,NA,NA,NA,NA,NA,NA,NA,NA,NA,NA,NA,NA,NA,NA,NA,NA,NA,NA,NA,NA,NA,NA,NA,NA,NA,NA,NA,NA,NA,NA,NA,NA,NA,NA,9,0,9,0,1
SUPAMT59092,34V1S5K3GY0RTC4BKIVOSB30AVG96A,85AEF770-5A2C-4643-8B0D-66BABFB01925,2023-09-27_09h12.05.982,WP_VExplicitOC_LH,2022.2.5,Win32,16.13423685,-71.875,4.8937,2.0074,NA,NA,NA,NA,NA,bored,"bored, not bored","more bored, less bored",NA,NA,NA,NA,NA,NA,NA,NA,NA,NA,NA,NA,NA,NA,NA,NA,NA,NA,NA,NA,NA,NA,NA,NA,NA,NA,NA,NA,NA,NA,NA,NA,NA,NA,NA,NA,NA,NA,0,0,0,2,1,NA,NA,NA,NA,NA
SUPAMT59092,34V1S5K3GY0RTC4BKIVOSB30AVG96A,85AEF770-5A2C-4643-8B0D-66BABFB01925,2023-09-27_09h12.05.982,WP_VExplicitOC_LH,2022.2.5,Win32,16.13423685,-57.03125,4.7561,2.0563,NA,NA,NA,NA,NA,happy,"unhappy, happy","less happy, more happy",NA,NA,NA,NA,NA,NA,NA,NA,NA,NA,NA,NA,NA,NA,NA,NA,NA,NA,NA,NA,NA,NA,NA,NA,NA,NA,NA,NA,NA,NA,NA,NA,NA,NA,NA,NA,NA,NA,0,1,1,0,1,NA,NA,NA,NA,NA
SUPAMT59092,34V1S5K3GY0RTC4BKIVOSB30AVG96A,85AEF770-5A2C-4643-8B0D-66BABFB01925,2023-09-27_09h12.05.982,WP_VExplicitOC_LH,2022.2.5,Win32,16.13423685,-60.15625,4.2516,2.0204,NA,NA,NA,NA,NA,frustrated,"frustrated, not frustrated","more frustrated, less frustrated",NA,NA,NA,NA,NA,NA,NA,NA,NA,NA,NA,NA,NA,NA,NA,NA,NA,NA,NA,NA,NA,NA,NA,NA,NA,NA,NA,NA,NA,NA,NA,NA,NA,NA,NA,NA,NA,NA,0,2,2,1,1,NA,NA,NA,NA,NA
SUPAMT59092,34V1S5K3GY0RTC4BKIVOSB30AVG96A,85AEF770-5A2C-4643-8B0D-66BABFB01925,2023-09-27_09h12.05.982,WP_VExplicitOC_LH,2022.2.5,Win32,16.13423685,NA,NA,NA,NA,NA,NA,NA,NA,NA,NA,NA,NA,NA,NA,NA,NA,NA,NA,NA,NA,NA,NA,NA,NA,NA,NA,NA,NA,NA,NA,NA,NA,NA,NA,NA,NA,NA,NA,NA,NA,NA,NA,NA,NA,NA,NA,NA,NA,NA,NA,NA,NA,NA,NA,10,0,10,0,1
SUPAMT59092,34V1S5K3GY0RTC4BKIVOSB30AVG96A,85AEF770-5A2C-4643-8B0D-66BABFB01925,2023-09-27_09h12.05.982,WP_VExplicitOC_LH,2022.2.5,Win32,16.13423685,-42.44791667,5.6901,2.0833,NA,NA,NA,NA,NA,happy,"unhappy, happy","less happy, more happy",NA,NA,NA,NA,NA,NA,NA,NA,NA,NA,NA,NA,NA,NA,NA,NA,NA,NA,NA,NA,NA,NA,NA,NA,NA,NA,NA,NA,NA,NA,NA,NA,NA,NA,NA,NA,NA,NA,0,0,0,0,1,NA,NA,NA,NA,NA
SUPAMT59092,34V1S5K3GY0RTC4BKIVOSB30AVG96A,85AEF770-5A2C-4643-8B0D-66BABFB01925,2023-09-27_09h12.05.982,WP_VExplicitOC_LH,2022.2.5,Win32,16.13423685,NA,NA,2.0765,NA,NA,NA,NA,NA,bored,"bored, not bored","more bored, less bored",NA,NA,NA,NA,NA,NA,NA,NA,NA,NA,NA,NA,NA,NA,NA,NA,NA,NA,NA,NA,NA,NA,NA,NA,NA,NA,NA,NA,NA,NA,NA,NA,NA,NA,NA,NA,NA,NA,0,1,1,2,1,NA,NA,NA,NA,NA
SUPAMT59092,34V1S5K3GY0RTC4BKIVOSB30AVG96A,85AEF770-5A2C-4643-8B0D-66BABFB01925,2023-09-27_09h12.05.982,WP_VExplicitOC_LH,2022.2.5,Win32,16.13423685,-52.60416667,5.9685,2.0372,NA,NA,NA,NA,NA,frustrated,"frustrated, not frustrated","more frustrated, less frustrated",NA,NA,NA,NA,NA,NA,NA,NA,NA,NA,NA,NA,NA,NA,NA,NA,NA,NA,NA,NA,NA,NA,NA,NA,NA,NA,NA,NA,NA,NA,NA,NA,NA,NA,NA,NA,NA,NA,0,2,2,1,1,NA,NA,NA,NA,NA
SUPAMT59092,34V1S5K3GY0RTC4BKIVOSB30AVG96A,85AEF770-5A2C-4643-8B0D-66BABFB01925,2023-09-27_09h12.05.982,WP_VExplicitOC_LH,2022.2.5,Win32,16.13423685,NA,NA,NA,NA,NA,NA,NA,NA,NA,NA,NA,NA,NA,NA,NA,NA,NA,NA,NA,NA,NA,NA,NA,NA,NA,NA,NA,NA,NA,NA,NA,NA,NA,NA,NA,NA,NA,NA,NA,NA,NA,NA,NA,NA,NA,NA,NA,NA,NA,NA,NA,NA,NA,NA,11,0,11,0,1
SUPAMT59092,34V1S5K3GY0RTC4BKIVOSB30AVG96A,85AEF770-5A2C-4643-8B0D-66BABFB01925,2023-09-27_09h12.05.982,WP_VExplicitOC_LH,2022.2.5,Win32,16.13423685,-46.875,5.3205,2.0051,NA,NA,NA,NA,NA,happy,"unhappy, happy","less happy, more happy",NA,NA,NA,NA,NA,NA,NA,NA,NA,NA,NA,NA,NA,NA,NA,NA,NA,NA,NA,NA,NA,NA,NA,NA,NA,NA,NA,NA,NA,NA,NA,NA,NA,NA,NA,NA,NA,NA,0,0,0,0,1,NA,NA,NA,NA,NA
SUPAMT59092,34V1S5K3GY0RTC4BKIVOSB30AVG96A,85AEF770-5A2C-4643-8B0D-66BABFB01925,2023-09-27_09h12.05.982,WP_VExplicitOC_LH,2022.2.5,Win32,16.13423685,-52.34375,4.6956,2.0533,NA,NA,NA,NA,NA,frustrated,"frustrated, not frustrated","more frustrated, less frustrated",NA,NA,NA,NA,NA,NA,NA,NA,NA,NA,NA,NA,NA,NA,NA,NA,NA,NA,NA,NA,NA,NA,NA,NA,NA,NA,NA,NA,NA,NA,NA,NA,NA,NA,NA,NA,NA,NA,0,1,1,1,1,NA,NA,NA,NA,NA
SUPAMT59092,34V1S5K3GY0RTC4BKIVOSB30AVG96A,85AEF770-5A2C-4643-8B0D-66BABFB01925,2023-09-27_09h12.05.982,WP_VExplicitOC_LH,2022.2.5,Win32,16.13423685,-47.39583333,5.0751,2.0665,NA,NA,NA,NA,NA,bored,"bored, not bored","more bored, less bored",NA,NA,NA,NA,NA,NA,NA,NA,NA,NA,NA,NA,NA,NA,NA,NA,NA,NA,NA,NA,NA,NA,NA,NA,NA,NA,NA,NA,NA,NA,NA,NA,NA,NA,NA,NA,NA,NA,0,2,2,2,1,NA,NA,NA,NA,NA
SUPAMT59092,34V1S5K3GY0RTC4BKIVOSB30AVG96A,85AEF770-5A2C-4643-8B0D-66BABFB01925,2023-09-27_09h12.05.982,WP_VExplicitOC_LH,2022.2.5,Win32,16.13423685,NA,NA,NA,NA,NA,NA,NA,NA,NA,NA,NA,NA,NA,NA,NA,NA,NA,NA,NA,NA,NA,NA,NA,NA,NA,NA,NA,NA,NA,NA,NA,NA,NA,NA,NA,NA,NA,NA,NA,NA,NA,NA,NA,NA,NA,NA,NA,NA,NA,NA,NA,NA,NA,NA,12,0,12,0,1
SUPAMT59092,34V1S5K3GY0RTC4BKIVOSB30AVG96A,85AEF770-5A2C-4643-8B0D-66BABFB01925,2023-09-27_09h12.05.982,WP_VExplicitOC_LH,2022.2.5,Win32,16.13423685,-40.88541667,4.6885,2.0522,NA,NA,NA,NA,NA,happy,"unhappy, happy","less happy, more happy",NA,NA,NA,NA,NA,NA,NA,NA,NA,NA,NA,NA,NA,NA,NA,NA,NA,NA,NA,NA,NA,NA,NA,NA,NA,NA,NA,NA,NA,NA,NA,NA,NA,NA,NA,NA,NA,NA,0,0,0,0,1,NA,NA,NA,NA,NA
SUPAMT59092,34V1S5K3GY0RTC4BKIVOSB30AVG96A,85AEF770-5A2C-4643-8B0D-66BABFB01925,2023-09-27_09h12.05.982,WP_VExplicitOC_LH,2022.2.5,Win32,16.13423685,-43.48958333,4.8804,2.0078,NA,NA,NA,NA,NA,frustrated,"frustrated, not frustrated","more frustrated, less frustrated",NA,NA,NA,NA,NA,NA,NA,NA,NA,NA,NA,NA,NA,NA,NA,NA,NA,NA,NA,NA,NA,NA,NA,NA,NA,NA,NA,NA,NA,NA,NA,NA,NA,NA,NA,NA,NA,NA,0,1,1,1,1,NA,NA,NA,NA,NA
SUPAMT59092,34V1S5K3GY0RTC4BKIVOSB30AVG96A,85AEF770-5A2C-4643-8B0D-66BABFB01925,2023-09-27_09h12.05.982,WP_VExplicitOC_LH,2022.2.5,Win32,16.13423685,-49.47916667,4.2763,2.0545,NA,NA,NA,NA,NA,bored,"bored, not bored","more bored, less bored",NA,NA,NA,NA,NA,NA,NA,NA,NA,NA,NA,NA,NA,NA,NA,NA,NA,NA,NA,NA,NA,NA,NA,NA,NA,NA,NA,NA,NA,NA,NA,NA,NA,NA,NA,NA,NA,NA,0,2,2,2,1,NA,NA,NA,NA,NA
SUPAMT59092,34V1S5K3GY0RTC4BKIVOSB30AVG96A,85AEF770-5A2C-4643-8B0D-66BABFB01925,2023-09-27_09h12.05.982,WP_VExplicitOC_LH,2022.2.5,Win32,16.13423685,NA,NA,NA,NA,NA,NA,NA,NA,NA,NA,NA,NA,NA,NA,NA,NA,NA,NA,NA,NA,NA,NA,NA,NA,NA,NA,NA,NA,NA,NA,NA,NA,NA,NA,NA,NA,NA,NA,NA,NA,NA,NA,NA,NA,NA,NA,NA,NA,NA,NA,NA,NA,NA,NA,13,0,13,0,1
SUPAMT59092,34V1S5K3GY0RTC4BKIVOSB30AVG96A,85AEF770-5A2C-4643-8B0D-66BABFB01925,2023-09-27_09h12.05.982,WP_VExplicitOC_LH,2022.2.5,Win32,16.13423685,-52.60416667,5.0685,2.0244,NA,NA,NA,NA,NA,frustrated,"frustrated, not frustrated","more frustrated, less frustrated",NA,NA,NA,NA,NA,NA,NA,NA,NA,NA,NA,NA,NA,NA,NA,NA,NA,NA,NA,NA,NA,NA,NA,NA,NA,NA,NA,NA,NA,NA,NA,NA,NA,NA,NA,NA,NA,NA,0,0,0,1,1,NA,NA,NA,NA,NA
SUPAMT59092,34V1S5K3GY0RTC4BKIVOSB30AVG96A,85AEF770-5A2C-4643-8B0D-66BABFB01925,2023-09-27_09h12.05.982,WP_VExplicitOC_LH,2022.2.5,Win32,16.13423685,-57.29166667,5.2856,2.0877,NA,NA,NA,NA,NA,happy,"unhappy, happy","less happy, more happy",NA,NA,NA,NA,NA,NA,NA,NA,NA,NA,NA,NA,NA,NA,NA,NA,NA,NA,NA,NA,NA,NA,NA,NA,NA,NA,NA,NA,NA,NA,NA,NA,NA,NA,NA,NA,NA,NA,0,1,1,0,1,NA,NA,NA,NA,NA
SUPAMT59092,34V1S5K3GY0RTC4BKIVOSB30AVG96A,85AEF770-5A2C-4643-8B0D-66BABFB01925,2023-09-27_09h12.05.982,WP_VExplicitOC_LH,2022.2.5,Win32,16.13423685,-45.83333333,4.5607,2.0325,NA,NA,NA,NA,NA,bored,"bored, not bored","more bored, less bored",NA,NA,NA,NA,NA,NA,NA,NA,NA,NA,NA,NA,NA,NA,NA,NA,NA,NA,NA,NA,NA,NA,NA,NA,NA,NA,NA,NA,NA,NA,NA,NA,NA,NA,NA,NA,NA,NA,0,2,2,2,1,NA,NA,NA,NA,NA
SUPAMT59092,34V1S5K3GY0RTC4BKIVOSB30AVG96A,85AEF770-5A2C-4643-8B0D-66BABFB01925,2023-09-27_09h12.05.982,WP_VExplicitOC_LH,2022.2.5,Win32,16.13423685,NA,NA,NA,NA,NA,NA,NA,NA,NA,NA,NA,NA,NA,NA,NA,NA,NA,NA,NA,NA,NA,NA,NA,NA,NA,NA,NA,NA,NA,NA,NA,NA,NA,NA,NA,NA,NA,NA,NA,NA,NA,NA,NA,NA,NA,NA,NA,NA,NA,NA,NA,NA,NA,NA,14,0,14,0,1
SUPAMT59092,34V1S5K3GY0RTC4BKIVOSB30AVG96A,85AEF770-5A2C-4643-8B0D-66BABFB01925,2023-09-27_09h12.05.982,WP_VExplicitOC_LH,2022.2.5,Win32,16.13423685,NA,NA,NA,NA,NA,NA,NA,NA,NA,NA,NA,NA,NA,NA,NA,NA,NA,NA,NA,NA,NA,NA,NA,NA,NA,NA,NA,NA,NA,NA,NA,NA,NA,NA,NA,NA,NA,NA,NA,NA,NA,NA,NA,NA,NA,NA,NA,NA,NA,NA,NA,NA,NA,NA,NA,NA,NA,NA,NA
