participant,session,completion,date,expName,psychopyVersion,OS,frameRate,rating_all.response,rating_all.rt,rating_all.tStart,rndRat1.thisRepN,rndRat1.thisTrialN,rndRat1.thisN,rndRat1.thisIndex,rndRat1.ran,Emo,Labs,Labs2,rating_alt.response,rating_alt.rt,AltC.thisRepN,AltC.thisTrialN,AltC.thisN,AltC.thisIndex,AltC.ran,alt_choices,pic_choices,TopAlt_Choice,rndRat2.thisRepN,rndRat2.thisTrialN,rndRat2.thisN,rndRat2.thisIndex,rndRat2.ran,rndRat3.thisRepN,rndRat3.thisTrialN,rndRat3.thisN,rndRat3.thisIndex,rndRat3.ran,trials_FC_H.thisRepN,trials_FC_H.thisTrialN,trials_FC_H.thisN,trials_FC_H.thisIndex,trials_FC_H.ran,rating_alt_2.response,rating_alt_2.rt,AltC2.thisRepN,AltC2.thisTrialN,AltC2.thisN,AltC2.thisIndex,AltC2.ran,BottomAlt_Choice,rndRat4.thisRepN,rndRat4.thisTrialN,rndRat4.thisN,rndRat4.thisIndex,rndRat4.ran,rndRat5.thisRepN,rndRat5.thisTrialN,rndRat5.thisN,rndRat5.thisIndex,rndRat5.ran,trials_FC_L.thisRepN,trials_FC_L.thisTrialN,trials_FC_L.thisN,trials_FC_L.thisIndex,trials_FC_L.ran
SUPAMT01454,30IQTZXKAQ5MGX0UL9LLZDFR4VL0XJ,F833C0D0-AD53-487B-9D71-EF81BB432AEF,2023-09-27_08h30.24.882,WP_VExplicitOC_HL,2022.2.5,Win32,9.360578858,NA,NA,NA,NA,NA,NA,NA,NA,NA,NA,NA,NA,NA,NA,NA,NA,NA,NA,NA,NA,NA,NA,NA,NA,NA,NA,NA,NA,NA,NA,NA,NA,NA,NA,NA,NA,NA,NA,NA,NA,NA,NA,NA,NA,NA,NA,NA,NA,NA,NA,NA,NA,NA,NA,NA,NA,NA,NA,NA
SUPAMT01454,30IQTZXKAQ5MGX0UL9LLZDFR4VL0XJ,F833C0D0-AD53-487B-9D71-EF81BB432AEF,2023-09-27_08h30.24.882,WP_VExplicitOC_HL,2022.2.5,Win32,9.360578858,NA,NA,NA,NA,NA,NA,NA,NA,NA,NA,NA,NA,NA,NA,NA,NA,NA,NA,NA,NA,NA,NA,NA,NA,NA,NA,NA,NA,NA,NA,NA,NA,NA,NA,NA,NA,NA,NA,NA,NA,NA,NA,NA,NA,NA,NA,NA,NA,NA,NA,NA,NA,NA,NA,NA,NA,NA,NA,NA
SUPAMT01454,30IQTZXKAQ5MGX0UL9LLZDFR4VL0XJ,F833C0D0-AD53-487B-9D71-EF81BB432AEF,2023-09-27_08h30.24.882,WP_VExplicitOC_HL,2022.2.5,Win32,9.360578858,NA,NA,NA,NA,NA,NA,NA,NA,NA,NA,NA,NA,NA,NA,NA,NA,NA,NA,NA,NA,NA,NA,NA,NA,NA,NA,NA,NA,NA,NA,NA,NA,NA,NA,NA,NA,NA,NA,NA,NA,NA,NA,NA,NA,NA,NA,NA,NA,NA,NA,NA,NA,NA,NA,NA,NA,NA,NA,NA
SUPAMT01454,30IQTZXKAQ5MGX0UL9LLZDFR4VL0XJ,F833C0D0-AD53-487B-9D71-EF81BB432AEF,2023-09-27_08h30.24.882,WP_VExplicitOC_HL,2022.2.5,Win32,9.360578858,43.22916667,5.4705,2.1193,0,0,0,0,1,happy,"unhappy, happy","less happy, more happy",NA,NA,NA,NA,NA,NA,NA,NA,NA,NA,NA,NA,NA,NA,NA,NA,NA,NA,NA,NA,NA,NA,NA,NA,NA,NA,NA,NA,NA,NA,NA,NA,NA,NA,NA,NA,NA,NA,NA,NA,NA,NA,NA,NA,NA,NA,NA,NA
SUPAMT01454,30IQTZXKAQ5MGX0UL9LLZDFR4VL0XJ,F833C0D0-AD53-487B-9D71-EF81BB432AEF,2023-09-27_08h30.24.882,WP_VExplicitOC_HL,2022.2.5,Win32,9.360578858,54.6875,6.0344,2.0265,0,1,1,2,1,bored,"bored, not bored","more bored, less bored",NA,NA,NA,NA,NA,NA,NA,NA,NA,NA,NA,NA,NA,NA,NA,NA,NA,NA,NA,NA,NA,NA,NA,NA,NA,NA,NA,NA,NA,NA,NA,NA,NA,NA,NA,NA,NA,NA,NA,NA,NA,NA,NA,NA,NA,NA,NA,NA
SUPAMT01454,30IQTZXKAQ5MGX0UL9LLZDFR4VL0XJ,F833C0D0-AD53-487B-9D71-EF81BB432AEF,2023-09-27_08h30.24.882,WP_VExplicitOC_HL,2022.2.5,Win32,9.360578858,61.45833333,5.8537,2.18,0,2,2,1,1,frustrated,"frustrated, not frustrated","more frustrated, less frustrated",NA,NA,NA,NA,NA,NA,NA,NA,NA,NA,NA,NA,NA,NA,NA,NA,NA,NA,NA,NA,NA,NA,NA,NA,NA,NA,NA,NA,NA,NA,NA,NA,NA,NA,NA,NA,NA,NA,NA,NA,NA,NA,NA,NA,NA,NA,NA,NA
SUPAMT01454,30IQTZXKAQ5MGX0UL9LLZDFR4VL0XJ,F833C0D0-AD53-487B-9D71-EF81BB432AEF,2023-09-27_08h30.24.882,WP_VExplicitOC_HL,2022.2.5,Win32,9.360578858,NA,NA,NA,NA,NA,NA,NA,NA,NA,NA,NA,NA,NA,NA,NA,NA,NA,NA,NA,NA,NA,NA,NA,NA,NA,NA,NA,NA,NA,NA,NA,NA,NA,NA,NA,NA,NA,NA,NA,NA,NA,NA,NA,NA,NA,NA,NA,NA,NA,NA,NA,NA,NA,NA,NA,NA,NA,NA,NA
SUPAMT01454,30IQTZXKAQ5MGX0UL9LLZDFR4VL0XJ,F833C0D0-AD53-487B-9D71-EF81BB432AEF,2023-09-27_08h30.24.882,WP_VExplicitOC_HL,2022.2.5,Win32,9.360578858,NA,NA,NA,NA,NA,NA,NA,NA,NA,NA,NA,NA,NA,NA,NA,NA,NA,NA,NA,NA,NA,NA,NA,NA,NA,NA,NA,NA,NA,NA,NA,NA,NA,NA,NA,NA,NA,NA,NA,NA,NA,NA,NA,NA,NA,NA,NA,NA,NA,NA,NA,NA,NA,NA,NA,NA,NA,NA,NA
SUPAMT01454,30IQTZXKAQ5MGX0UL9LLZDFR4VL0XJ,F833C0D0-AD53-487B-9D71-EF81BB432AEF,2023-09-27_08h30.24.882,WP_VExplicitOC_HL,2022.2.5,Win32,9.360578858,NA,NA,NA,NA,NA,NA,NA,NA,NA,NA,NA,NA,NA,NA,NA,NA,NA,NA,NA,NA,NA,NA,NA,NA,NA,NA,NA,NA,NA,NA,NA,NA,NA,NA,NA,NA,NA,NA,NA,NA,NA,NA,NA,NA,NA,NA,NA,NA,NA,NA,NA,NA,NA,NA,NA,NA,NA,NA,NA
SUPAMT01454,30IQTZXKAQ5MGX0UL9LLZDFR4VL0XJ,F833C0D0-AD53-487B-9D71-EF81BB432AEF,2023-09-27_08h30.24.882,WP_VExplicitOC_HL,2022.2.5,Win32,9.360578858,NA,NA,NA,NA,NA,NA,NA,NA,NA,NA,NA,NA,NA,NA,NA,NA,NA,NA,NA,NA,NA,NA,NA,NA,NA,NA,NA,NA,NA,NA,NA,NA,NA,NA,NA,NA,NA,NA,NA,NA,NA,NA,NA,NA,NA,NA,NA,NA,NA,NA,NA,NA,NA,NA,NA,NA,NA,NA,NA
SUPAMT01454,30IQTZXKAQ5MGX0UL9LLZDFR4VL0XJ,F833C0D0-AD53-487B-9D71-EF81BB432AEF,2023-09-27_08h30.24.882,WP_VExplicitOC_HL,2022.2.5,Win32,9.360578858,NA,NA,NA,NA,NA,NA,NA,NA,NA,NA,NA,46.875,3.3126,0,0,0,0,1,rest (looking at a fixed cross),001.png,NA,NA,NA,NA,NA,NA,NA,NA,NA,NA,NA,NA,NA,NA,NA,NA,NA,NA,NA,NA,NA,NA,NA,NA,NA,NA,NA,NA,NA,NA,NA,NA,NA,NA,NA,NA,NA,NA,NA
SUPAMT01454,30IQTZXKAQ5MGX0UL9LLZDFR4VL0XJ,F833C0D0-AD53-487B-9D71-EF81BB432AEF,2023-09-27_08h30.24.882,WP_VExplicitOC_HL,2022.2.5,Win32,9.360578858,NA,NA,NA,NA,NA,NA,NA,NA,NA,NA,NA,NA,NA,0,1,1,1,1,stand up,002.png,NA,NA,NA,NA,NA,NA,NA,NA,NA,NA,NA,NA,NA,NA,NA,NA,NA,NA,NA,NA,NA,NA,NA,NA,NA,NA,NA,NA,NA,NA,NA,NA,NA,NA,NA,NA,NA,NA,NA
SUPAMT01454,30IQTZXKAQ5MGX0UL9LLZDFR4VL0XJ,F833C0D0-AD53-487B-9D71-EF81BB432AEF,2023-09-27_08h30.24.882,WP_VExplicitOC_HL,2022.2.5,Win32,9.360578858,NA,NA,NA,NA,NA,NA,NA,NA,NA,NA,NA,42.1875,2.0215,0,2,2,2,1,stretch,003.png,NA,NA,NA,NA,NA,NA,NA,NA,NA,NA,NA,NA,NA,NA,NA,NA,NA,NA,NA,NA,NA,NA,NA,NA,NA,NA,NA,NA,NA,NA,NA,NA,NA,NA,NA,NA,NA,NA,NA
SUPAMT01454,30IQTZXKAQ5MGX0UL9LLZDFR4VL0XJ,F833C0D0-AD53-487B-9D71-EF81BB432AEF,2023-09-27_08h30.24.882,WP_VExplicitOC_HL,2022.2.5,Win32,9.360578858,NA,NA,NA,NA,NA,NA,NA,NA,NA,NA,NA,46.35416667,0.6904,0,3,3,3,1,make a drink,004.png,NA,NA,NA,NA,NA,NA,NA,NA,NA,NA,NA,NA,NA,NA,NA,NA,NA,NA,NA,NA,NA,NA,NA,NA,NA,NA,NA,NA,NA,NA,NA,NA,NA,NA,NA,NA,NA,NA,NA
SUPAMT01454,30IQTZXKAQ5MGX0UL9LLZDFR4VL0XJ,F833C0D0-AD53-487B-9D71-EF81BB432AEF,2023-09-27_08h30.24.882,WP_VExplicitOC_HL,2022.2.5,Win32,9.360578858,NA,NA,NA,NA,NA,NA,NA,NA,NA,NA,NA,30.46875,5.3367000000000004,0,4,4,4,1,scroll social media,005.png,NA,NA,NA,NA,NA,NA,NA,NA,NA,NA,NA,NA,NA,NA,NA,NA,NA,NA,NA,NA,NA,NA,NA,NA,NA,NA,NA,NA,NA,NA,NA,NA,NA,NA,NA,NA,NA,NA,NA
SUPAMT01454,30IQTZXKAQ5MGX0UL9LLZDFR4VL0XJ,F833C0D0-AD53-487B-9D71-EF81BB432AEF,2023-09-27_08h30.24.882,WP_VExplicitOC_HL,2022.2.5,Win32,9.360578858,NA,NA,NA,NA,NA,NA,NA,NA,NA,NA,NA,34.63541667,2.0578,0,5,5,5,1,listen to music,006.png,NA,NA,NA,NA,NA,NA,NA,NA,NA,NA,NA,NA,NA,NA,NA,NA,NA,NA,NA,NA,NA,NA,NA,NA,NA,NA,NA,NA,NA,NA,NA,NA,NA,NA,NA,NA,NA,NA,NA
SUPAMT01454,30IQTZXKAQ5MGX0UL9LLZDFR4VL0XJ,F833C0D0-AD53-487B-9D71-EF81BB432AEF,2023-09-27_08h30.24.882,WP_VExplicitOC_HL,2022.2.5,Win32,9.360578858,NA,NA,NA,NA,NA,NA,NA,NA,NA,NA,NA,34.63541667,0.8663,0,6,6,6,1,daydream,007.png,NA,NA,NA,NA,NA,NA,NA,NA,NA,NA,NA,NA,NA,NA,NA,NA,NA,NA,NA,NA,NA,NA,NA,NA,NA,NA,NA,NA,NA,NA,NA,NA,NA,NA,NA,NA,NA,NA,NA
SUPAMT01454,30IQTZXKAQ5MGX0UL9LLZDFR4VL0XJ,F833C0D0-AD53-487B-9D71-EF81BB432AEF,2023-09-27_08h30.24.882,WP_VExplicitOC_HL,2022.2.5,Win32,9.360578858,NA,NA,NA,NA,NA,NA,NA,NA,NA,NA,NA,34.63541667,0.6074,0,7,7,7,1,watch a short animation,008.png,NA,NA,NA,NA,NA,NA,NA,NA,NA,NA,NA,NA,NA,NA,NA,NA,NA,NA,NA,NA,NA,NA,NA,NA,NA,NA,NA,NA,NA,NA,NA,NA,NA,NA,NA,NA,NA,NA,NA
SUPAMT01454,30IQTZXKAQ5MGX0UL9LLZDFR4VL0XJ,F833C0D0-AD53-487B-9D71-EF81BB432AEF,2023-09-27_08h30.24.882,WP_VExplicitOC_HL,2022.2.5,Win32,9.360578858,NA,NA,NA,NA,NA,NA,NA,NA,NA,NA,NA,34.63541667,0.9281,0,8,8,8,1,read a novel,009.png,NA,NA,NA,NA,NA,NA,NA,NA,NA,NA,NA,NA,NA,NA,NA,NA,NA,NA,NA,NA,NA,NA,NA,NA,NA,NA,NA,NA,NA,NA,NA,NA,NA,NA,NA,NA,NA,NA,NA
SUPAMT01454,30IQTZXKAQ5MGX0UL9LLZDFR4VL0XJ,F833C0D0-AD53-487B-9D71-EF81BB432AEF,2023-09-27_08h30.24.882,WP_VExplicitOC_HL,2022.2.5,Win32,9.360578858,NA,NA,NA,NA,NA,NA,NA,NA,NA,NA,NA,34.63541667,0.6832,0,9,9,9,1,read the news,010.png,NA,NA,NA,NA,NA,NA,NA,NA,NA,NA,NA,NA,NA,NA,NA,NA,NA,NA,NA,NA,NA,NA,NA,NA,NA,NA,NA,NA,NA,NA,NA,NA,NA,NA,NA,NA,NA,NA,NA
SUPAMT01454,30IQTZXKAQ5MGX0UL9LLZDFR4VL0XJ,F833C0D0-AD53-487B-9D71-EF81BB432AEF,2023-09-27_08h30.24.882,WP_VExplicitOC_HL,2022.2.5,Win32,9.360578858,NA,NA,NA,NA,NA,NA,NA,NA,NA,NA,NA,NA,NA,NA,NA,NA,NA,NA,NA,NA,NA,NA,NA,NA,NA,NA,NA,NA,NA,NA,NA,NA,NA,NA,NA,NA,NA,NA,NA,NA,NA,NA,NA,NA,NA,NA,NA,NA,NA,NA,NA,NA,NA,NA,NA,NA,NA,NA,NA
SUPAMT01454,30IQTZXKAQ5MGX0UL9LLZDFR4VL0XJ,F833C0D0-AD53-487B-9D71-EF81BB432AEF,2023-09-27_08h30.24.882,WP_VExplicitOC_HL,2022.2.5,Win32,9.360578858,NA,NA,NA,NA,NA,NA,NA,NA,NA,NA,NA,NA,NA,NA,NA,NA,NA,NA,NA,NA,stretch,NA,NA,NA,NA,NA,NA,NA,NA,NA,NA,NA,NA,NA,NA,NA,NA,NA,NA,NA,NA,NA,NA,NA,NA,NA,NA,NA,NA,NA,NA,NA,NA,NA,NA,NA,NA,NA,NA
SUPAMT01454,30IQTZXKAQ5MGX0UL9LLZDFR4VL0XJ,F833C0D0-AD53-487B-9D71-EF81BB432AEF,2023-09-27_08h30.24.882,WP_VExplicitOC_HL,2022.2.5,Win32,9.360578858,68.75,6.715,2.0879,NA,NA,NA,NA,NA,bored,"bored, not bored","more bored, less bored",NA,NA,NA,NA,NA,NA,NA,NA,NA,NA,0,0,0,2,1,NA,NA,NA,NA,NA,NA,NA,NA,NA,NA,NA,NA,NA,NA,NA,NA,NA,NA,NA,NA,NA,NA,NA,NA,NA,NA,NA,NA,NA,NA,NA,NA,NA
SUPAMT01454,30IQTZXKAQ5MGX0UL9LLZDFR4VL0XJ,F833C0D0-AD53-487B-9D71-EF81BB432AEF,2023-09-27_08h30.24.882,WP_VExplicitOC_HL,2022.2.5,Win32,9.360578858,61.97916667,4.7867,2.0989,NA,NA,NA,NA,NA,happy,"unhappy, happy","less happy, more happy",NA,NA,NA,NA,NA,NA,NA,NA,NA,NA,0,1,1,0,1,NA,NA,NA,NA,NA,NA,NA,NA,NA,NA,NA,NA,NA,NA,NA,NA,NA,NA,NA,NA,NA,NA,NA,NA,NA,NA,NA,NA,NA,NA,NA,NA,NA
SUPAMT01454,30IQTZXKAQ5MGX0UL9LLZDFR4VL0XJ,F833C0D0-AD53-487B-9D71-EF81BB432AEF,2023-09-27_08h30.24.882,WP_VExplicitOC_HL,2022.2.5,Win32,9.360578858,48.17708333,4.1617,2.0688,NA,NA,NA,NA,NA,frustrated,"frustrated, not frustrated","more frustrated, less frustrated",NA,NA,NA,NA,NA,NA,NA,NA,NA,NA,0,2,2,1,1,NA,NA,NA,NA,NA,NA,NA,NA,NA,NA,NA,NA,NA,NA,NA,NA,NA,NA,NA,NA,NA,NA,NA,NA,NA,NA,NA,NA,NA,NA,NA,NA,NA
SUPAMT01454,30IQTZXKAQ5MGX0UL9LLZDFR4VL0XJ,F833C0D0-AD53-487B-9D71-EF81BB432AEF,2023-09-27_08h30.24.882,WP_VExplicitOC_HL,2022.2.5,Win32,9.360578858,NA,NA,NA,NA,NA,NA,NA,NA,NA,NA,NA,NA,NA,NA,NA,NA,NA,NA,NA,NA,NA,NA,NA,NA,NA,NA,NA,NA,NA,NA,NA,NA,NA,NA,NA,NA,NA,NA,NA,NA,NA,NA,NA,NA,NA,NA,NA,NA,NA,NA,NA,NA,NA,NA,NA,NA,NA,NA,NA
SUPAMT01454,30IQTZXKAQ5MGX0UL9LLZDFR4VL0XJ,F833C0D0-AD53-487B-9D71-EF81BB432AEF,2023-09-27_08h30.24.882,WP_VExplicitOC_HL,2022.2.5,Win32,9.360578858,NA,NA,NA,NA,NA,NA,NA,NA,NA,NA,NA,NA,NA,NA,NA,NA,NA,NA,NA,NA,NA,NA,NA,NA,NA,NA,NA,NA,NA,NA,NA,NA,NA,NA,NA,NA,NA,NA,NA,NA,NA,NA,NA,NA,NA,NA,NA,NA,NA,NA,NA,NA,NA,NA,NA,NA,NA,NA,NA
SUPAMT01454,30IQTZXKAQ5MGX0UL9LLZDFR4VL0XJ,F833C0D0-AD53-487B-9D71-EF81BB432AEF,2023-09-27_08h30.24.882,WP_VExplicitOC_HL,2022.2.5,Win32,9.360578858,48.95833333,6.2653,2.1589,NA,NA,NA,NA,NA,frustrated,"frustrated, not frustrated","more frustrated, less frustrated",NA,NA,NA,NA,NA,NA,NA,NA,NA,NA,NA,NA,NA,NA,NA,0,0,0,1,1,NA,NA,NA,NA,NA,NA,NA,NA,NA,NA,NA,NA,NA,NA,NA,NA,NA,NA,NA,NA,NA,NA,NA,NA,NA,NA,NA,NA
SUPAMT01454,30IQTZXKAQ5MGX0UL9LLZDFR4VL0XJ,F833C0D0-AD53-487B-9D71-EF81BB432AEF,2023-09-27_08h30.24.882,WP_VExplicitOC_HL,2022.2.5,Win32,9.360578858,52.86458333,4.9804,2.0464,NA,NA,NA,NA,NA,bored,"bored, not bored","more bored, less bored",NA,NA,NA,NA,NA,NA,NA,NA,NA,NA,NA,NA,NA,NA,NA,0,1,1,2,1,NA,NA,NA,NA,NA,NA,NA,NA,NA,NA,NA,NA,NA,NA,NA,NA,NA,NA,NA,NA,NA,NA,NA,NA,NA,NA,NA,NA
SUPAMT01454,30IQTZXKAQ5MGX0UL9LLZDFR4VL0XJ,F833C0D0-AD53-487B-9D71-EF81BB432AEF,2023-09-27_08h30.24.882,WP_VExplicitOC_HL,2022.2.5,Win32,9.360578858,49.21875,5.3689,2.1585,NA,NA,NA,NA,NA,happy,"unhappy, happy","less happy, more happy",NA,NA,NA,NA,NA,NA,NA,NA,NA,NA,NA,NA,NA,NA,NA,0,2,2,0,1,NA,NA,NA,NA,NA,NA,NA,NA,NA,NA,NA,NA,NA,NA,NA,NA,NA,NA,NA,NA,NA,NA,NA,NA,NA,NA,NA,NA
SUPAMT01454,30IQTZXKAQ5MGX0UL9LLZDFR4VL0XJ,F833C0D0-AD53-487B-9D71-EF81BB432AEF,2023-09-27_08h30.24.882,WP_VExplicitOC_HL,2022.2.5,Win32,9.360578858,NA,NA,NA,NA,NA,NA,NA,NA,NA,NA,NA,NA,NA,NA,NA,NA,NA,NA,NA,NA,NA,NA,NA,NA,NA,NA,NA,NA,NA,NA,NA,0,0,0,0,1,NA,NA,NA,NA,NA,NA,NA,NA,NA,NA,NA,NA,NA,NA,NA,NA,NA,NA,NA,NA,NA,NA,NA
SUPAMT01454,30IQTZXKAQ5MGX0UL9LLZDFR4VL0XJ,F833C0D0-AD53-487B-9D71-EF81BB432AEF,2023-09-27_08h30.24.882,WP_VExplicitOC_HL,2022.2.5,Win32,9.360578858,49.21875,4.7828,2.0302,NA,NA,NA,NA,NA,bored,"bored, not bored","more bored, less bored",NA,NA,NA,NA,NA,NA,NA,NA,NA,NA,NA,NA,NA,NA,NA,0,0,0,2,1,NA,NA,NA,NA,NA,NA,NA,NA,NA,NA,NA,NA,NA,NA,NA,NA,NA,NA,NA,NA,NA,NA,NA,NA,NA,NA,NA,NA
SUPAMT01454,30IQTZXKAQ5MGX0UL9LLZDFR4VL0XJ,F833C0D0-AD53-487B-9D71-EF81BB432AEF,2023-09-27_08h30.24.882,WP_VExplicitOC_HL,2022.2.5,Win32,9.360578858,53.64583333,3.9614,2.0998,NA,NA,NA,NA,NA,frustrated,"frustrated, not frustrated","more frustrated, less frustrated",NA,NA,NA,NA,NA,NA,NA,NA,NA,NA,NA,NA,NA,NA,NA,0,1,1,1,1,NA,NA,NA,NA,NA,NA,NA,NA,NA,NA,NA,NA,NA,NA,NA,NA,NA,NA,NA,NA,NA,NA,NA,NA,NA,NA,NA,NA
SUPAMT01454,30IQTZXKAQ5MGX0UL9LLZDFR4VL0XJ,F833C0D0-AD53-487B-9D71-EF81BB432AEF,2023-09-27_08h30.24.882,WP_VExplicitOC_HL,2022.2.5,Win32,9.360578858,51.5625,4.3696,2.0326,NA,NA,NA,NA,NA,happy,"unhappy, happy","less happy, more happy",NA,NA,NA,NA,NA,NA,NA,NA,NA,NA,NA,NA,NA,NA,NA,0,2,2,0,1,NA,NA,NA,NA,NA,NA,NA,NA,NA,NA,NA,NA,NA,NA,NA,NA,NA,NA,NA,NA,NA,NA,NA,NA,NA,NA,NA,NA
SUPAMT01454,30IQTZXKAQ5MGX0UL9LLZDFR4VL0XJ,F833C0D0-AD53-487B-9D71-EF81BB432AEF,2023-09-27_08h30.24.882,WP_VExplicitOC_HL,2022.2.5,Win32,9.360578858,NA,NA,NA,NA,NA,NA,NA,NA,NA,NA,NA,NA,NA,NA,NA,NA,NA,NA,NA,NA,NA,NA,NA,NA,NA,NA,NA,NA,NA,NA,NA,1,0,1,0,1,NA,NA,NA,NA,NA,NA,NA,NA,NA,NA,NA,NA,NA,NA,NA,NA,NA,NA,NA,NA,NA,NA,NA
SUPAMT01454,30IQTZXKAQ5MGX0UL9LLZDFR4VL0XJ,F833C0D0-AD53-487B-9D71-EF81BB432AEF,2023-09-27_08h30.24.882,WP_VExplicitOC_HL,2022.2.5,Win32,9.360578858,57.29166667,4.957,2.0548,NA,NA,NA,NA,NA,happy,"unhappy, happy","less happy, more happy",NA,NA,NA,NA,NA,NA,NA,NA,NA,NA,NA,NA,NA,NA,NA,0,0,0,0,1,NA,NA,NA,NA,NA,NA,NA,NA,NA,NA,NA,NA,NA,NA,NA,NA,NA,NA,NA,NA,NA,NA,NA,NA,NA,NA,NA,NA
SUPAMT01454,30IQTZXKAQ5MGX0UL9LLZDFR4VL0XJ,F833C0D0-AD53-487B-9D71-EF81BB432AEF,2023-09-27_08h30.24.882,WP_VExplicitOC_HL,2022.2.5,Win32,9.360578858,47.13541667,5.6064,2.009,NA,NA,NA,NA,NA,bored,"bored, not bored","more bored, less bored",NA,NA,NA,NA,NA,NA,NA,NA,NA,NA,NA,NA,NA,NA,NA,0,1,1,2,1,NA,NA,NA,NA,NA,NA,NA,NA,NA,NA,NA,NA,NA,NA,NA,NA,NA,NA,NA,NA,NA,NA,NA,NA,NA,NA,NA,NA
SUPAMT01454,30IQTZXKAQ5MGX0UL9LLZDFR4VL0XJ,F833C0D0-AD53-487B-9D71-EF81BB432AEF,2023-09-27_08h30.24.882,WP_VExplicitOC_HL,2022.2.5,Win32,9.360578858,57.29166667,4.8471,2.0364,NA,NA,NA,NA,NA,frustrated,"frustrated, not frustrated","more frustrated, less frustrated",NA,NA,NA,NA,NA,NA,NA,NA,NA,NA,NA,NA,NA,NA,NA,0,2,2,1,1,NA,NA,NA,NA,NA,NA,NA,NA,NA,NA,NA,NA,NA,NA,NA,NA,NA,NA,NA,NA,NA,NA,NA,NA,NA,NA,NA,NA
SUPAMT01454,30IQTZXKAQ5MGX0UL9LLZDFR4VL0XJ,F833C0D0-AD53-487B-9D71-EF81BB432AEF,2023-09-27_08h30.24.882,WP_VExplicitOC_HL,2022.2.5,Win32,9.360578858,NA,NA,NA,NA,NA,NA,NA,NA,NA,NA,NA,NA,NA,NA,NA,NA,NA,NA,NA,NA,NA,NA,NA,NA,NA,NA,NA,NA,NA,NA,NA,2,0,2,0,1,NA,NA,NA,NA,NA,NA,NA,NA,NA,NA,NA,NA,NA,NA,NA,NA,NA,NA,NA,NA,NA,NA,NA
SUPAMT01454,30IQTZXKAQ5MGX0UL9LLZDFR4VL0XJ,F833C0D0-AD53-487B-9D71-EF81BB432AEF,2023-09-27_08h30.24.882,WP_VExplicitOC_HL,2022.2.5,Win32,9.360578858,44.79166667,5.025,2.1343,NA,NA,NA,NA,NA,bored,"bored, not bored","more bored, less bored",NA,NA,NA,NA,NA,NA,NA,NA,NA,NA,NA,NA,NA,NA,NA,0,0,0,2,1,NA,NA,NA,NA,NA,NA,NA,NA,NA,NA,NA,NA,NA,NA,NA,NA,NA,NA,NA,NA,NA,NA,NA,NA,NA,NA,NA,NA
SUPAMT01454,30IQTZXKAQ5MGX0UL9LLZDFR4VL0XJ,F833C0D0-AD53-487B-9D71-EF81BB432AEF,2023-09-27_08h30.24.882,WP_VExplicitOC_HL,2022.2.5,Win32,9.360578858,50.26041667,4.2226,2.044,NA,NA,NA,NA,NA,happy,"unhappy, happy","less happy, more happy",NA,NA,NA,NA,NA,NA,NA,NA,NA,NA,NA,NA,NA,NA,NA,0,1,1,0,1,NA,NA,NA,NA,NA,NA,NA,NA,NA,NA,NA,NA,NA,NA,NA,NA,NA,NA,NA,NA,NA,NA,NA,NA,NA,NA,NA,NA
SUPAMT01454,30IQTZXKAQ5MGX0UL9LLZDFR4VL0XJ,F833C0D0-AD53-487B-9D71-EF81BB432AEF,2023-09-27_08h30.24.882,WP_VExplicitOC_HL,2022.2.5,Win32,9.360578858,53.38541667,4.1101,2.0019,NA,NA,NA,NA,NA,frustrated,"frustrated, not frustrated","more frustrated, less frustrated",NA,NA,NA,NA,NA,NA,NA,NA,NA,NA,NA,NA,NA,NA,NA,0,2,2,1,1,NA,NA,NA,NA,NA,NA,NA,NA,NA,NA,NA,NA,NA,NA,NA,NA,NA,NA,NA,NA,NA,NA,NA,NA,NA,NA,NA,NA
SUPAMT01454,30IQTZXKAQ5MGX0UL9LLZDFR4VL0XJ,F833C0D0-AD53-487B-9D71-EF81BB432AEF,2023-09-27_08h30.24.882,WP_VExplicitOC_HL,2022.2.5,Win32,9.360578858,NA,NA,NA,NA,NA,NA,NA,NA,NA,NA,NA,NA,NA,NA,NA,NA,NA,NA,NA,NA,NA,NA,NA,NA,NA,NA,NA,NA,NA,NA,NA,3,0,3,0,1,NA,NA,NA,NA,NA,NA,NA,NA,NA,NA,NA,NA,NA,NA,NA,NA,NA,NA,NA,NA,NA,NA,NA
SUPAMT01454,30IQTZXKAQ5MGX0UL9LLZDFR4VL0XJ,F833C0D0-AD53-487B-9D71-EF81BB432AEF,2023-09-27_08h30.24.882,WP_VExplicitOC_HL,2022.2.5,Win32,9.360578858,61.19791667,4.748,2.1601,NA,NA,NA,NA,NA,happy,"unhappy, happy","less happy, more happy",NA,NA,NA,NA,NA,NA,NA,NA,NA,NA,NA,NA,NA,NA,NA,0,0,0,0,1,NA,NA,NA,NA,NA,NA,NA,NA,NA,NA,NA,NA,NA,NA,NA,NA,NA,NA,NA,NA,NA,NA,NA,NA,NA,NA,NA,NA
SUPAMT01454,30IQTZXKAQ5MGX0UL9LLZDFR4VL0XJ,F833C0D0-AD53-487B-9D71-EF81BB432AEF,2023-09-27_08h30.24.882,WP_VExplicitOC_HL,2022.2.5,Win32,9.360578858,47.39583333,4.9535,2.1116,NA,NA,NA,NA,NA,frustrated,"frustrated, not frustrated","more frustrated, less frustrated",NA,NA,NA,NA,NA,NA,NA,NA,NA,NA,NA,NA,NA,NA,NA,0,1,1,1,1,NA,NA,NA,NA,NA,NA,NA,NA,NA,NA,NA,NA,NA,NA,NA,NA,NA,NA,NA,NA,NA,NA,NA,NA,NA,NA,NA,NA
SUPAMT01454,30IQTZXKAQ5MGX0UL9LLZDFR4VL0XJ,F833C0D0-AD53-487B-9D71-EF81BB432AEF,2023-09-27_08h30.24.882,WP_VExplicitOC_HL,2022.2.5,Win32,9.360578858,64.58333333,4.1773,2.003,NA,NA,NA,NA,NA,bored,"bored, not bored","more bored, less bored",NA,NA,NA,NA,NA,NA,NA,NA,NA,NA,NA,NA,NA,NA,NA,0,2,2,2,1,NA,NA,NA,NA,NA,NA,NA,NA,NA,NA,NA,NA,NA,NA,NA,NA,NA,NA,NA,NA,NA,NA,NA,NA,NA,NA,NA,NA
SUPAMT01454,30IQTZXKAQ5MGX0UL9LLZDFR4VL0XJ,F833C0D0-AD53-487B-9D71-EF81BB432AEF,2023-09-27_08h30.24.882,WP_VExplicitOC_HL,2022.2.5,Win32,9.360578858,NA,NA,NA,NA,NA,NA,NA,NA,NA,NA,NA,NA,NA,NA,NA,NA,NA,NA,NA,NA,NA,NA,NA,NA,NA,NA,NA,NA,NA,NA,NA,4,0,4,0,1,NA,NA,NA,NA,NA,NA,NA,NA,NA,NA,NA,NA,NA,NA,NA,NA,NA,NA,NA,NA,NA,NA,NA
SUPAMT01454,30IQTZXKAQ5MGX0UL9LLZDFR4VL0XJ,F833C0D0-AD53-487B-9D71-EF81BB432AEF,2023-09-27_08h30.24.882,WP_VExplicitOC_HL,2022.2.5,Win32,9.360578858,53.38541667,4.978,2.0982,NA,NA,NA,NA,NA,happy,"unhappy, happy","less happy, more happy",NA,NA,NA,NA,NA,NA,NA,NA,NA,NA,NA,NA,NA,NA,NA,0,0,0,0,1,NA,NA,NA,NA,NA,NA,NA,NA,NA,NA,NA,NA,NA,NA,NA,NA,NA,NA,NA,NA,NA,NA,NA,NA,NA,NA,NA,NA
SUPAMT01454,30IQTZXKAQ5MGX0UL9LLZDFR4VL0XJ,F833C0D0-AD53-487B-9D71-EF81BB432AEF,2023-09-27_08h30.24.882,WP_VExplicitOC_HL,2022.2.5,Win32,9.360578858,59.63541667,4.3221,2.0757,NA,NA,NA,NA,NA,frustrated,"frustrated, not frustrated","more frustrated, less frustrated",NA,NA,NA,NA,NA,NA,NA,NA,NA,NA,NA,NA,NA,NA,NA,0,1,1,1,1,NA,NA,NA,NA,NA,NA,NA,NA,NA,NA,NA,NA,NA,NA,NA,NA,NA,NA,NA,NA,NA,NA,NA,NA,NA,NA,NA,NA
SUPAMT01454,30IQTZXKAQ5MGX0UL9LLZDFR4VL0XJ,F833C0D0-AD53-487B-9D71-EF81BB432AEF,2023-09-27_08h30.24.882,WP_VExplicitOC_HL,2022.2.5,Win32,9.360578858,62.5,4.8757,2.0694,NA,NA,NA,NA,NA,bored,"bored, not bored","more bored, less bored",NA,NA,NA,NA,NA,NA,NA,NA,NA,NA,NA,NA,NA,NA,NA,0,2,2,2,1,NA,NA,NA,NA,NA,NA,NA,NA,NA,NA,NA,NA,NA,NA,NA,NA,NA,NA,NA,NA,NA,NA,NA,NA,NA,NA,NA,NA
SUPAMT01454,30IQTZXKAQ5MGX0UL9LLZDFR4VL0XJ,F833C0D0-AD53-487B-9D71-EF81BB432AEF,2023-09-27_08h30.24.882,WP_VExplicitOC_HL,2022.2.5,Win32,9.360578858,NA,NA,NA,NA,NA,NA,NA,NA,NA,NA,NA,NA,NA,NA,NA,NA,NA,NA,NA,NA,NA,NA,NA,NA,NA,NA,NA,NA,NA,NA,NA,5,0,5,0,1,NA,NA,NA,NA,NA,NA,NA,NA,NA,NA,NA,NA,NA,NA,NA,NA,NA,NA,NA,NA,NA,NA,NA
SUPAMT01454,30IQTZXKAQ5MGX0UL9LLZDFR4VL0XJ,F833C0D0-AD53-487B-9D71-EF81BB432AEF,2023-09-27_08h30.24.882,WP_VExplicitOC_HL,2022.2.5,Win32,9.360578858,61.71875,4.4997,2.1387,NA,NA,NA,NA,NA,happy,"unhappy, happy","less happy, more happy",NA,NA,NA,NA,NA,NA,NA,NA,NA,NA,NA,NA,NA,NA,NA,0,0,0,0,1,NA,NA,NA,NA,NA,NA,NA,NA,NA,NA,NA,NA,NA,NA,NA,NA,NA,NA,NA,NA,NA,NA,NA,NA,NA,NA,NA,NA
SUPAMT01454,30IQTZXKAQ5MGX0UL9LLZDFR4VL0XJ,F833C0D0-AD53-487B-9D71-EF81BB432AEF,2023-09-27_08h30.24.882,WP_VExplicitOC_HL,2022.2.5,Win32,9.360578858,46.61458333,4.7009,2.0953,NA,NA,NA,NA,NA,bored,"bored, not bored","more bored, less bored",NA,NA,NA,NA,NA,NA,NA,NA,NA,NA,NA,NA,NA,NA,NA,0,1,1,2,1,NA,NA,NA,NA,NA,NA,NA,NA,NA,NA,NA,NA,NA,NA,NA,NA,NA,NA,NA,NA,NA,NA,NA,NA,NA,NA,NA,NA
SUPAMT01454,30IQTZXKAQ5MGX0UL9LLZDFR4VL0XJ,F833C0D0-AD53-487B-9D71-EF81BB432AEF,2023-09-27_08h30.24.882,WP_VExplicitOC_HL,2022.2.5,Win32,9.360578858,52.34375,4.4207,2.0132,NA,NA,NA,NA,NA,frustrated,"frustrated, not frustrated","more frustrated, less frustrated",NA,NA,NA,NA,NA,NA,NA,NA,NA,NA,NA,NA,NA,NA,NA,0,2,2,1,1,NA,NA,NA,NA,NA,NA,NA,NA,NA,NA,NA,NA,NA,NA,NA,NA,NA,NA,NA,NA,NA,NA,NA,NA,NA,NA,NA,NA
SUPAMT01454,30IQTZXKAQ5MGX0UL9LLZDFR4VL0XJ,F833C0D0-AD53-487B-9D71-EF81BB432AEF,2023-09-27_08h30.24.882,WP_VExplicitOC_HL,2022.2.5,Win32,9.360578858,NA,NA,NA,NA,NA,NA,NA,NA,NA,NA,NA,NA,NA,NA,NA,NA,NA,NA,NA,NA,NA,NA,NA,NA,NA,NA,NA,NA,NA,NA,NA,6,0,6,0,1,NA,NA,NA,NA,NA,NA,NA,NA,NA,NA,NA,NA,NA,NA,NA,NA,NA,NA,NA,NA,NA,NA,NA
SUPAMT01454,30IQTZXKAQ5MGX0UL9LLZDFR4VL0XJ,F833C0D0-AD53-487B-9D71-EF81BB432AEF,2023-09-27_08h30.24.882,WP_VExplicitOC_HL,2022.2.5,Win32,9.360578858,51.04166667,5.299,2.1004,NA,NA,NA,NA,NA,frustrated,"frustrated, not frustrated","more frustrated, less frustrated",NA,NA,NA,NA,NA,NA,NA,NA,NA,NA,NA,NA,NA,NA,NA,0,0,0,1,1,NA,NA,NA,NA,NA,NA,NA,NA,NA,NA,NA,NA,NA,NA,NA,NA,NA,NA,NA,NA,NA,NA,NA,NA,NA,NA,NA,NA
SUPAMT01454,30IQTZXKAQ5MGX0UL9LLZDFR4VL0XJ,F833C0D0-AD53-487B-9D71-EF81BB432AEF,2023-09-27_08h30.24.882,WP_VExplicitOC_HL,2022.2.5,Win32,9.360578858,54.42708333,5.2186,2.0256,NA,NA,NA,NA,NA,bored,"bored, not bored","more bored, less bored",NA,NA,NA,NA,NA,NA,NA,NA,NA,NA,NA,NA,NA,NA,NA,0,1,1,2,1,NA,NA,NA,NA,NA,NA,NA,NA,NA,NA,NA,NA,NA,NA,NA,NA,NA,NA,NA,NA,NA,NA,NA,NA,NA,NA,NA,NA
SUPAMT01454,30IQTZXKAQ5MGX0UL9LLZDFR4VL0XJ,F833C0D0-AD53-487B-9D71-EF81BB432AEF,2023-09-27_08h30.24.882,WP_VExplicitOC_HL,2022.2.5,Win32,9.360578858,54.42708333,4.2963,2.1329,NA,NA,NA,NA,NA,happy,"unhappy, happy","less happy, more happy",NA,NA,NA,NA,NA,NA,NA,NA,NA,NA,NA,NA,NA,NA,NA,0,2,2,0,1,NA,NA,NA,NA,NA,NA,NA,NA,NA,NA,NA,NA,NA,NA,NA,NA,NA,NA,NA,NA,NA,NA,NA,NA,NA,NA,NA,NA
SUPAMT01454,30IQTZXKAQ5MGX0UL9LLZDFR4VL0XJ,F833C0D0-AD53-487B-9D71-EF81BB432AEF,2023-09-27_08h30.24.882,WP_VExplicitOC_HL,2022.2.5,Win32,9.360578858,NA,NA,NA,NA,NA,NA,NA,NA,NA,NA,NA,NA,NA,NA,NA,NA,NA,NA,NA,NA,NA,NA,NA,NA,NA,NA,NA,NA,NA,NA,NA,7,0,7,0,1,NA,NA,NA,NA,NA,NA,NA,NA,NA,NA,NA,NA,NA,NA,NA,NA,NA,NA,NA,NA,NA,NA,NA
SUPAMT01454,30IQTZXKAQ5MGX0UL9LLZDFR4VL0XJ,F833C0D0-AD53-487B-9D71-EF81BB432AEF,2023-09-27_08h30.24.882,WP_VExplicitOC_HL,2022.2.5,Win32,9.360578858,55.20833333,5.4234,2.047,NA,NA,NA,NA,NA,bored,"bored, not bored","more bored, less bored",NA,NA,NA,NA,NA,NA,NA,NA,NA,NA,NA,NA,NA,NA,NA,0,0,0,2,1,NA,NA,NA,NA,NA,NA,NA,NA,NA,NA,NA,NA,NA,NA,NA,NA,NA,NA,NA,NA,NA,NA,NA,NA,NA,NA,NA,NA
SUPAMT01454,30IQTZXKAQ5MGX0UL9LLZDFR4VL0XJ,F833C0D0-AD53-487B-9D71-EF81BB432AEF,2023-09-27_08h30.24.882,WP_VExplicitOC_HL,2022.2.5,Win32,9.360578858,61.97916667,4.8236,2.0946,NA,NA,NA,NA,NA,happy,"unhappy, happy","less happy, more happy",NA,NA,NA,NA,NA,NA,NA,NA,NA,NA,NA,NA,NA,NA,NA,0,1,1,0,1,NA,NA,NA,NA,NA,NA,NA,NA,NA,NA,NA,NA,NA,NA,NA,NA,NA,NA,NA,NA,NA,NA,NA,NA,NA,NA,NA,NA
SUPAMT01454,30IQTZXKAQ5MGX0UL9LLZDFR4VL0XJ,F833C0D0-AD53-487B-9D71-EF81BB432AEF,2023-09-27_08h30.24.882,WP_VExplicitOC_HL,2022.2.5,Win32,9.360578858,56.77083333,4.6443,2.0118,NA,NA,NA,NA,NA,frustrated,"frustrated, not frustrated","more frustrated, less frustrated",NA,NA,NA,NA,NA,NA,NA,NA,NA,NA,NA,NA,NA,NA,NA,0,2,2,1,1,NA,NA,NA,NA,NA,NA,NA,NA,NA,NA,NA,NA,NA,NA,NA,NA,NA,NA,NA,NA,NA,NA,NA,NA,NA,NA,NA,NA
SUPAMT01454,30IQTZXKAQ5MGX0UL9LLZDFR4VL0XJ,F833C0D0-AD53-487B-9D71-EF81BB432AEF,2023-09-27_08h30.24.882,WP_VExplicitOC_HL,2022.2.5,Win32,9.360578858,NA,NA,NA,NA,NA,NA,NA,NA,NA,NA,NA,NA,NA,NA,NA,NA,NA,NA,NA,NA,NA,NA,NA,NA,NA,NA,NA,NA,NA,NA,NA,8,0,8,0,1,NA,NA,NA,NA,NA,NA,NA,NA,NA,NA,NA,NA,NA,NA,NA,NA,NA,NA,NA,NA,NA,NA,NA
SUPAMT01454,30IQTZXKAQ5MGX0UL9LLZDFR4VL0XJ,F833C0D0-AD53-487B-9D71-EF81BB432AEF,2023-09-27_08h30.24.882,WP_VExplicitOC_HL,2022.2.5,Win32,9.360578858,48.4375,4.7319,2.0159,NA,NA,NA,NA,NA,frustrated,"frustrated, not frustrated","more frustrated, less frustrated",NA,NA,NA,NA,NA,NA,NA,NA,NA,NA,NA,NA,NA,NA,NA,0,0,0,1,1,NA,NA,NA,NA,NA,NA,NA,NA,NA,NA,NA,NA,NA,NA,NA,NA,NA,NA,NA,NA,NA,NA,NA,NA,NA,NA,NA,NA
SUPAMT01454,30IQTZXKAQ5MGX0UL9LLZDFR4VL0XJ,F833C0D0-AD53-487B-9D71-EF81BB432AEF,2023-09-27_08h30.24.882,WP_VExplicitOC_HL,2022.2.5,Win32,9.360578858,54.42708333,5.8547,2.0211,NA,NA,NA,NA,NA,happy,"unhappy, happy","less happy, more happy",NA,NA,NA,NA,NA,NA,NA,NA,NA,NA,NA,NA,NA,NA,NA,0,1,1,0,1,NA,NA,NA,NA,NA,NA,NA,NA,NA,NA,NA,NA,NA,NA,NA,NA,NA,NA,NA,NA,NA,NA,NA,NA,NA,NA,NA,NA
SUPAMT01454,30IQTZXKAQ5MGX0UL9LLZDFR4VL0XJ,F833C0D0-AD53-487B-9D71-EF81BB432AEF,2023-09-27_08h30.24.882,WP_VExplicitOC_HL,2022.2.5,Win32,9.360578858,53.125,4.3693,2.034,NA,NA,NA,NA,NA,bored,"bored, not bored","more bored, less bored",NA,NA,NA,NA,NA,NA,NA,NA,NA,NA,NA,NA,NA,NA,NA,0,2,2,2,1,NA,NA,NA,NA,NA,NA,NA,NA,NA,NA,NA,NA,NA,NA,NA,NA,NA,NA,NA,NA,NA,NA,NA,NA,NA,NA,NA,NA
SUPAMT01454,30IQTZXKAQ5MGX0UL9LLZDFR4VL0XJ,F833C0D0-AD53-487B-9D71-EF81BB432AEF,2023-09-27_08h30.24.882,WP_VExplicitOC_HL,2022.2.5,Win32,9.360578858,NA,NA,NA,NA,NA,NA,NA,NA,NA,NA,NA,NA,NA,NA,NA,NA,NA,NA,NA,NA,NA,NA,NA,NA,NA,NA,NA,NA,NA,NA,NA,9,0,9,0,1,NA,NA,NA,NA,NA,NA,NA,NA,NA,NA,NA,NA,NA,NA,NA,NA,NA,NA,NA,NA,NA,NA,NA
SUPAMT01454,30IQTZXKAQ5MGX0UL9LLZDFR4VL0XJ,F833C0D0-AD53-487B-9D71-EF81BB432AEF,2023-09-27_08h30.24.882,WP_VExplicitOC_HL,2022.2.5,Win32,9.360578858,NA,NA,2.1453,NA,NA,NA,NA,NA,bored,"bored, not bored","more bored, less bored",NA,NA,NA,NA,NA,NA,NA,NA,NA,NA,NA,NA,NA,NA,NA,0,0,0,2,1,NA,NA,NA,NA,NA,NA,NA,NA,NA,NA,NA,NA,NA,NA,NA,NA,NA,NA,NA,NA,NA,NA,NA,NA,NA,NA,NA,NA
SUPAMT01454,30IQTZXKAQ5MGX0UL9LLZDFR4VL0XJ,F833C0D0-AD53-487B-9D71-EF81BB432AEF,2023-09-27_08h30.24.882,WP_VExplicitOC_HL,2022.2.5,Win32,9.360578858,51.30208333,4.6884,2.0117,NA,NA,NA,NA,NA,happy,"unhappy, happy","less happy, more happy",NA,NA,NA,NA,NA,NA,NA,NA,NA,NA,NA,NA,NA,NA,NA,0,1,1,0,1,NA,NA,NA,NA,NA,NA,NA,NA,NA,NA,NA,NA,NA,NA,NA,NA,NA,NA,NA,NA,NA,NA,NA,NA,NA,NA,NA,NA
SUPAMT01454,30IQTZXKAQ5MGX0UL9LLZDFR4VL0XJ,F833C0D0-AD53-487B-9D71-EF81BB432AEF,2023-09-27_08h30.24.882,WP_VExplicitOC_HL,2022.2.5,Win32,9.360578858,56.51041667,4.4482,2.1085,NA,NA,NA,NA,NA,frustrated,"frustrated, not frustrated","more frustrated, less frustrated",NA,NA,NA,NA,NA,NA,NA,NA,NA,NA,NA,NA,NA,NA,NA,0,2,2,1,1,NA,NA,NA,NA,NA,NA,NA,NA,NA,NA,NA,NA,NA,NA,NA,NA,NA,NA,NA,NA,NA,NA,NA,NA,NA,NA,NA,NA
SUPAMT01454,30IQTZXKAQ5MGX0UL9LLZDFR4VL0XJ,F833C0D0-AD53-487B-9D71-EF81BB432AEF,2023-09-27_08h30.24.882,WP_VExplicitOC_HL,2022.2.5,Win32,9.360578858,NA,NA,NA,NA,NA,NA,NA,NA,NA,NA,NA,NA,NA,NA,NA,NA,NA,NA,NA,NA,NA,NA,NA,NA,NA,NA,NA,NA,NA,NA,NA,10,0,10,0,1,NA,NA,NA,NA,NA,NA,NA,NA,NA,NA,NA,NA,NA,NA,NA,NA,NA,NA,NA,NA,NA,NA,NA
SUPAMT01454,30IQTZXKAQ5MGX0UL9LLZDFR4VL0XJ,F833C0D0-AD53-487B-9D71-EF81BB432AEF,2023-09-27_08h30.24.882,WP_VExplicitOC_HL,2022.2.5,Win32,9.360578858,44.01041667,4.1021,2.0261,NA,NA,NA,NA,NA,bored,"bored, not bored","more bored, less bored",NA,NA,NA,NA,NA,NA,NA,NA,NA,NA,NA,NA,NA,NA,NA,0,0,0,2,1,NA,NA,NA,NA,NA,NA,NA,NA,NA,NA,NA,NA,NA,NA,NA,NA,NA,NA,NA,NA,NA,NA,NA,NA,NA,NA,NA,NA
SUPAMT01454,30IQTZXKAQ5MGX0UL9LLZDFR4VL0XJ,F833C0D0-AD53-487B-9D71-EF81BB432AEF,2023-09-27_08h30.24.882,WP_VExplicitOC_HL,2022.2.5,Win32,9.360578858,47.65625,4.3942,2.0764,NA,NA,NA,NA,NA,frustrated,"frustrated, not frustrated","more frustrated, less frustrated",NA,NA,NA,NA,NA,NA,NA,NA,NA,NA,NA,NA,NA,NA,NA,0,1,1,1,1,NA,NA,NA,NA,NA,NA,NA,NA,NA,NA,NA,NA,NA,NA,NA,NA,NA,NA,NA,NA,NA,NA,NA,NA,NA,NA,NA,NA
SUPAMT01454,30IQTZXKAQ5MGX0UL9LLZDFR4VL0XJ,F833C0D0-AD53-487B-9D71-EF81BB432AEF,2023-09-27_08h30.24.882,WP_VExplicitOC_HL,2022.2.5,Win32,9.360578858,53.38541667,4.4681,2.1895,NA,NA,NA,NA,NA,happy,"unhappy, happy","less happy, more happy",NA,NA,NA,NA,NA,NA,NA,NA,NA,NA,NA,NA,NA,NA,NA,0,2,2,0,1,NA,NA,NA,NA,NA,NA,NA,NA,NA,NA,NA,NA,NA,NA,NA,NA,NA,NA,NA,NA,NA,NA,NA,NA,NA,NA,NA,NA
SUPAMT01454,30IQTZXKAQ5MGX0UL9LLZDFR4VL0XJ,F833C0D0-AD53-487B-9D71-EF81BB432AEF,2023-09-27_08h30.24.882,WP_VExplicitOC_HL,2022.2.5,Win32,9.360578858,NA,NA,NA,NA,NA,NA,NA,NA,NA,NA,NA,NA,NA,NA,NA,NA,NA,NA,NA,NA,NA,NA,NA,NA,NA,NA,NA,NA,NA,NA,NA,11,0,11,0,1,NA,NA,NA,NA,NA,NA,NA,NA,NA,NA,NA,NA,NA,NA,NA,NA,NA,NA,NA,NA,NA,NA,NA
SUPAMT01454,30IQTZXKAQ5MGX0UL9LLZDFR4VL0XJ,F833C0D0-AD53-487B-9D71-EF81BB432AEF,2023-09-27_08h30.24.882,WP_VExplicitOC_HL,2022.2.5,Win32,9.360578858,53.64583333,4.0508,2.0354,NA,NA,NA,NA,NA,bored,"bored, not bored","more bored, less bored",NA,NA,NA,NA,NA,NA,NA,NA,NA,NA,NA,NA,NA,NA,NA,0,0,0,2,1,NA,NA,NA,NA,NA,NA,NA,NA,NA,NA,NA,NA,NA,NA,NA,NA,NA,NA,NA,NA,NA,NA,NA,NA,NA,NA,NA,NA
SUPAMT01454,30IQTZXKAQ5MGX0UL9LLZDFR4VL0XJ,F833C0D0-AD53-487B-9D71-EF81BB432AEF,2023-09-27_08h30.24.882,WP_VExplicitOC_HL,2022.2.5,Win32,9.360578858,66.14583333,3.9989,2.0283,NA,NA,NA,NA,NA,happy,"unhappy, happy","less happy, more happy",NA,NA,NA,NA,NA,NA,NA,NA,NA,NA,NA,NA,NA,NA,NA,0,1,1,0,1,NA,NA,NA,NA,NA,NA,NA,NA,NA,NA,NA,NA,NA,NA,NA,NA,NA,NA,NA,NA,NA,NA,NA,NA,NA,NA,NA,NA
SUPAMT01454,30IQTZXKAQ5MGX0UL9LLZDFR4VL0XJ,F833C0D0-AD53-487B-9D71-EF81BB432AEF,2023-09-27_08h30.24.882,WP_VExplicitOC_HL,2022.2.5,Win32,9.360578858,50.26041667,4.1647,2.0678,NA,NA,NA,NA,NA,frustrated,"frustrated, not frustrated","more frustrated, less frustrated",NA,NA,NA,NA,NA,NA,NA,NA,NA,NA,NA,NA,NA,NA,NA,0,2,2,1,1,NA,NA,NA,NA,NA,NA,NA,NA,NA,NA,NA,NA,NA,NA,NA,NA,NA,NA,NA,NA,NA,NA,NA,NA,NA,NA,NA,NA
SUPAMT01454,30IQTZXKAQ5MGX0UL9LLZDFR4VL0XJ,F833C0D0-AD53-487B-9D71-EF81BB432AEF,2023-09-27_08h30.24.882,WP_VExplicitOC_HL,2022.2.5,Win32,9.360578858,NA,NA,NA,NA,NA,NA,NA,NA,NA,NA,NA,NA,NA,NA,NA,NA,NA,NA,NA,NA,NA,NA,NA,NA,NA,NA,NA,NA,NA,NA,NA,12,0,12,0,1,NA,NA,NA,NA,NA,NA,NA,NA,NA,NA,NA,NA,NA,NA,NA,NA,NA,NA,NA,NA,NA,NA,NA
SUPAMT01454,30IQTZXKAQ5MGX0UL9LLZDFR4VL0XJ,F833C0D0-AD53-487B-9D71-EF81BB432AEF,2023-09-27_08h30.24.882,WP_VExplicitOC_HL,2022.2.5,Win32,9.360578858,60.67708333,4.1255,2.0444,NA,NA,NA,NA,NA,bored,"bored, not bored","more bored, less bored",NA,NA,NA,NA,NA,NA,NA,NA,NA,NA,NA,NA,NA,NA,NA,0,0,0,2,1,NA,NA,NA,NA,NA,NA,NA,NA,NA,NA,NA,NA,NA,NA,NA,NA,NA,NA,NA,NA,NA,NA,NA,NA,NA,NA,NA,NA
SUPAMT01454,30IQTZXKAQ5MGX0UL9LLZDFR4VL0XJ,F833C0D0-AD53-487B-9D71-EF81BB432AEF,2023-09-27_08h30.24.882,WP_VExplicitOC_HL,2022.2.5,Win32,9.360578858,35.67708333,4.9627,2.1044,NA,NA,NA,NA,NA,frustrated,"frustrated, not frustrated","more frustrated, less frustrated",NA,NA,NA,NA,NA,NA,NA,NA,NA,NA,NA,NA,NA,NA,NA,0,1,1,1,1,NA,NA,NA,NA,NA,NA,NA,NA,NA,NA,NA,NA,NA,NA,NA,NA,NA,NA,NA,NA,NA,NA,NA,NA,NA,NA,NA,NA
SUPAMT01454,30IQTZXKAQ5MGX0UL9LLZDFR4VL0XJ,F833C0D0-AD53-487B-9D71-EF81BB432AEF,2023-09-27_08h30.24.882,WP_VExplicitOC_HL,2022.2.5,Win32,9.360578858,47.39583333,4.7483,2.1433,NA,NA,NA,NA,NA,happy,"unhappy, happy","less happy, more happy",NA,NA,NA,NA,NA,NA,NA,NA,NA,NA,NA,NA,NA,NA,NA,0,2,2,0,1,NA,NA,NA,NA,NA,NA,NA,NA,NA,NA,NA,NA,NA,NA,NA,NA,NA,NA,NA,NA,NA,NA,NA,NA,NA,NA,NA,NA
SUPAMT01454,30IQTZXKAQ5MGX0UL9LLZDFR4VL0XJ,F833C0D0-AD53-487B-9D71-EF81BB432AEF,2023-09-27_08h30.24.882,WP_VExplicitOC_HL,2022.2.5,Win32,9.360578858,NA,NA,NA,NA,NA,NA,NA,NA,NA,NA,NA,NA,NA,NA,NA,NA,NA,NA,NA,NA,NA,NA,NA,NA,NA,NA,NA,NA,NA,NA,NA,13,0,13,0,1,NA,NA,NA,NA,NA,NA,NA,NA,NA,NA,NA,NA,NA,NA,NA,NA,NA,NA,NA,NA,NA,NA,NA
SUPAMT01454,30IQTZXKAQ5MGX0UL9LLZDFR4VL0XJ,F833C0D0-AD53-487B-9D71-EF81BB432AEF,2023-09-27_08h30.24.882,WP_VExplicitOC_HL,2022.2.5,Win32,9.360578858,51.5625,5.11,2.0027,NA,NA,NA,NA,NA,happy,"unhappy, happy","less happy, more happy",NA,NA,NA,NA,NA,NA,NA,NA,NA,NA,NA,NA,NA,NA,NA,0,0,0,0,1,NA,NA,NA,NA,NA,NA,NA,NA,NA,NA,NA,NA,NA,NA,NA,NA,NA,NA,NA,NA,NA,NA,NA,NA,NA,NA,NA,NA
SUPAMT01454,30IQTZXKAQ5MGX0UL9LLZDFR4VL0XJ,F833C0D0-AD53-487B-9D71-EF81BB432AEF,2023-09-27_08h30.24.882,WP_VExplicitOC_HL,2022.2.5,Win32,9.360578858,45.57291667,4.3341,2.0944,NA,NA,NA,NA,NA,bored,"bored, not bored","more bored, less bored",NA,NA,NA,NA,NA,NA,NA,NA,NA,NA,NA,NA,NA,NA,NA,0,1,1,2,1,NA,NA,NA,NA,NA,NA,NA,NA,NA,NA,NA,NA,NA,NA,NA,NA,NA,NA,NA,NA,NA,NA,NA,NA,NA,NA,NA,NA
SUPAMT01454,30IQTZXKAQ5MGX0UL9LLZDFR4VL0XJ,F833C0D0-AD53-487B-9D71-EF81BB432AEF,2023-09-27_08h30.24.882,WP_VExplicitOC_HL,2022.2.5,Win32,9.360578858,59.11458333,5.3046,2.1514,NA,NA,NA,NA,NA,frustrated,"frustrated, not frustrated","more frustrated, less frustrated",NA,NA,NA,NA,NA,NA,NA,NA,NA,NA,NA,NA,NA,NA,NA,0,2,2,1,1,NA,NA,NA,NA,NA,NA,NA,NA,NA,NA,NA,NA,NA,NA,NA,NA,NA,NA,NA,NA,NA,NA,NA,NA,NA,NA,NA,NA
SUPAMT01454,30IQTZXKAQ5MGX0UL9LLZDFR4VL0XJ,F833C0D0-AD53-487B-9D71-EF81BB432AEF,2023-09-27_08h30.24.882,WP_VExplicitOC_HL,2022.2.5,Win32,9.360578858,NA,NA,NA,NA,NA,NA,NA,NA,NA,NA,NA,NA,NA,NA,NA,NA,NA,NA,NA,NA,NA,NA,NA,NA,NA,NA,NA,NA,NA,NA,NA,14,0,14,0,1,NA,NA,NA,NA,NA,NA,NA,NA,NA,NA,NA,NA,NA,NA,NA,NA,NA,NA,NA,NA,NA,NA,NA
SUPAMT01454,30IQTZXKAQ5MGX0UL9LLZDFR4VL0XJ,F833C0D0-AD53-487B-9D71-EF81BB432AEF,2023-09-27_08h30.24.882,WP_VExplicitOC_HL,2022.2.5,Win32,9.360578858,NA,NA,NA,NA,NA,NA,NA,NA,NA,NA,NA,NA,NA,NA,NA,NA,NA,NA,NA,NA,NA,NA,NA,NA,NA,NA,NA,NA,NA,NA,NA,NA,NA,NA,NA,NA,NA,NA,NA,NA,NA,NA,NA,NA,NA,NA,NA,NA,NA,NA,NA,NA,NA,NA,NA,NA,NA,NA,NA
SUPAMT01454,30IQTZXKAQ5MGX0UL9LLZDFR4VL0XJ,F833C0D0-AD53-487B-9D71-EF81BB432AEF,2023-09-27_08h30.24.882,WP_VExplicitOC_HL,2022.2.5,Win32,9.360578858,NA,NA,NA,NA,NA,NA,NA,NA,NA,NA,NA,NA,NA,NA,NA,NA,NA,NA,NA,NA,NA,NA,NA,NA,NA,NA,NA,NA,NA,NA,NA,NA,NA,NA,NA,NA,NA,NA,NA,NA,NA,NA,NA,NA,NA,NA,NA,NA,NA,NA,NA,NA,NA,NA,NA,NA,NA,NA,NA
SUPAMT01454,30IQTZXKAQ5MGX0UL9LLZDFR4VL0XJ,F833C0D0-AD53-487B-9D71-EF81BB432AEF,2023-09-27_08h30.24.882,WP_VExplicitOC_HL,2022.2.5,Win32,9.360578858,NA,NA,NA,NA,NA,NA,NA,NA,NA,NA,NA,NA,NA,NA,NA,NA,NA,NA,rest (looking at a fixed cross),001.png,NA,NA,NA,NA,NA,NA,NA,NA,NA,NA,NA,NA,NA,NA,NA,NA,90.88541667,4.5023,0,0,0,0,1,NA,NA,NA,NA,NA,NA,NA,NA,NA,NA,NA,NA,NA,NA,NA,NA
SUPAMT01454,30IQTZXKAQ5MGX0UL9LLZDFR4VL0XJ,F833C0D0-AD53-487B-9D71-EF81BB432AEF,2023-09-27_08h30.24.882,WP_VExplicitOC_HL,2022.2.5,Win32,9.360578858,NA,NA,NA,NA,NA,NA,NA,NA,NA,NA,NA,NA,NA,NA,NA,NA,NA,NA,stand up,002.png,NA,NA,NA,NA,NA,NA,NA,NA,NA,NA,NA,NA,NA,NA,NA,NA,51.5625,4.6305,0,1,1,1,1,NA,NA,NA,NA,NA,NA,NA,NA,NA,NA,NA,NA,NA,NA,NA,NA
SUPAMT01454,30IQTZXKAQ5MGX0UL9LLZDFR4VL0XJ,F833C0D0-AD53-487B-9D71-EF81BB432AEF,2023-09-27_08h30.24.882,WP_VExplicitOC_HL,2022.2.5,Win32,9.360578858,NA,NA,NA,NA,NA,NA,NA,NA,NA,NA,NA,NA,NA,NA,NA,NA,NA,NA,stretch,003.png,NA,NA,NA,NA,NA,NA,NA,NA,NA,NA,NA,NA,NA,NA,NA,NA,40.36458333,4.4982,0,2,2,2,1,NA,NA,NA,NA,NA,NA,NA,NA,NA,NA,NA,NA,NA,NA,NA,NA
SUPAMT01454,30IQTZXKAQ5MGX0UL9LLZDFR4VL0XJ,F833C0D0-AD53-487B-9D71-EF81BB432AEF,2023-09-27_08h30.24.882,WP_VExplicitOC_HL,2022.2.5,Win32,9.360578858,NA,NA,NA,NA,NA,NA,NA,NA,NA,NA,NA,NA,NA,NA,NA,NA,NA,NA,make a drink,004.png,NA,NA,NA,NA,NA,NA,NA,NA,NA,NA,NA,NA,NA,NA,NA,NA,46.875,4.486,0,3,3,3,1,NA,NA,NA,NA,NA,NA,NA,NA,NA,NA,NA,NA,NA,NA,NA,NA
SUPAMT01454,30IQTZXKAQ5MGX0UL9LLZDFR4VL0XJ,F833C0D0-AD53-487B-9D71-EF81BB432AEF,2023-09-27_08h30.24.882,WP_VExplicitOC_HL,2022.2.5,Win32,9.360578858,NA,NA,NA,NA,NA,NA,NA,NA,NA,NA,NA,NA,NA,NA,NA,NA,NA,NA,scroll social media,005.png,NA,NA,NA,NA,NA,NA,NA,NA,NA,NA,NA,NA,NA,NA,NA,NA,48.69791667,3.8409,0,4,4,4,1,NA,NA,NA,NA,NA,NA,NA,NA,NA,NA,NA,NA,NA,NA,NA,NA
SUPAMT01454,30IQTZXKAQ5MGX0UL9LLZDFR4VL0XJ,F833C0D0-AD53-487B-9D71-EF81BB432AEF,2023-09-27_08h30.24.882,WP_VExplicitOC_HL,2022.2.5,Win32,9.360578858,NA,NA,NA,NA,NA,NA,NA,NA,NA,NA,NA,NA,NA,NA,NA,NA,NA,NA,listen to music,006.png,NA,NA,NA,NA,NA,NA,NA,NA,NA,NA,NA,NA,NA,NA,NA,NA,43.48958333,4.6488,0,5,5,5,1,NA,NA,NA,NA,NA,NA,NA,NA,NA,NA,NA,NA,NA,NA,NA,NA
SUPAMT01454,30IQTZXKAQ5MGX0UL9LLZDFR4VL0XJ,F833C0D0-AD53-487B-9D71-EF81BB432AEF,2023-09-27_08h30.24.882,WP_VExplicitOC_HL,2022.2.5,Win32,9.360578858,NA,NA,NA,NA,NA,NA,NA,NA,NA,NA,NA,NA,NA,NA,NA,NA,NA,NA,daydream,007.png,NA,NA,NA,NA,NA,NA,NA,NA,NA,NA,NA,NA,NA,NA,NA,NA,51.30208333,3.8527,0,6,6,6,1,NA,NA,NA,NA,NA,NA,NA,NA,NA,NA,NA,NA,NA,NA,NA,NA
SUPAMT01454,30IQTZXKAQ5MGX0UL9LLZDFR4VL0XJ,F833C0D0-AD53-487B-9D71-EF81BB432AEF,2023-09-27_08h30.24.882,WP_VExplicitOC_HL,2022.2.5,Win32,9.360578858,NA,NA,NA,NA,NA,NA,NA,NA,NA,NA,NA,NA,NA,NA,NA,NA,NA,NA,watch a short animation,008.png,NA,NA,NA,NA,NA,NA,NA,NA,NA,NA,NA,NA,NA,NA,NA,NA,48.95833333,3.8215,0,7,7,7,1,NA,NA,NA,NA,NA,NA,NA,NA,NA,NA,NA,NA,NA,NA,NA,NA
SUPAMT01454,30IQTZXKAQ5MGX0UL9LLZDFR4VL0XJ,F833C0D0-AD53-487B-9D71-EF81BB432AEF,2023-09-27_08h30.24.882,WP_VExplicitOC_HL,2022.2.5,Win32,9.360578858,NA,NA,NA,NA,NA,NA,NA,NA,NA,NA,NA,NA,NA,NA,NA,NA,NA,NA,read a novel,009.png,NA,NA,NA,NA,NA,NA,NA,NA,NA,NA,NA,NA,NA,NA,NA,NA,51.30208333,2.4425,0,8,8,8,1,NA,NA,NA,NA,NA,NA,NA,NA,NA,NA,NA,NA,NA,NA,NA,NA
SUPAMT01454,30IQTZXKAQ5MGX0UL9LLZDFR4VL0XJ,F833C0D0-AD53-487B-9D71-EF81BB432AEF,2023-09-27_08h30.24.882,WP_VExplicitOC_HL,2022.2.5,Win32,9.360578858,NA,NA,NA,NA,NA,NA,NA,NA,NA,NA,NA,NA,NA,NA,NA,NA,NA,NA,read the news,010.png,NA,NA,NA,NA,NA,NA,NA,NA,NA,NA,NA,NA,NA,NA,NA,NA,49.73958333,1.6848,0,9,9,9,1,NA,NA,NA,NA,NA,NA,NA,NA,NA,NA,NA,NA,NA,NA,NA,NA
SUPAMT01454,30IQTZXKAQ5MGX0UL9LLZDFR4VL0XJ,F833C0D0-AD53-487B-9D71-EF81BB432AEF,2023-09-27_08h30.24.882,WP_VExplicitOC_HL,2022.2.5,Win32,9.360578858,NA,NA,NA,NA,NA,NA,NA,NA,NA,NA,NA,NA,NA,NA,NA,NA,NA,NA,NA,NA,NA,NA,NA,NA,NA,NA,NA,NA,NA,NA,NA,NA,NA,NA,NA,NA,NA,NA,NA,NA,NA,NA,NA,stretch,NA,NA,NA,NA,NA,NA,NA,NA,NA,NA,NA,NA,NA,NA,NA
SUPAMT01454,30IQTZXKAQ5MGX0UL9LLZDFR4VL0XJ,F833C0D0-AD53-487B-9D71-EF81BB432AEF,2023-09-27_08h30.24.882,WP_VExplicitOC_HL,2022.2.5,Win32,9.360578858,76.04166667,4.9937,2.0515,NA,NA,NA,NA,NA,happy,"unhappy, happy","less happy, more happy",NA,NA,NA,NA,NA,NA,NA,NA,NA,NA,NA,NA,NA,NA,NA,NA,NA,NA,NA,NA,NA,NA,NA,NA,NA,NA,NA,NA,NA,NA,NA,NA,NA,0,0,0,0,1,NA,NA,NA,NA,NA,NA,NA,NA,NA,NA
SUPAMT01454,30IQTZXKAQ5MGX0UL9LLZDFR4VL0XJ,F833C0D0-AD53-487B-9D71-EF81BB432AEF,2023-09-27_08h30.24.882,WP_VExplicitOC_HL,2022.2.5,Win32,9.360578858,45.3125,4.6178,2.069,NA,NA,NA,NA,NA,bored,"bored, not bored","more bored, less bored",NA,NA,NA,NA,NA,NA,NA,NA,NA,NA,NA,NA,NA,NA,NA,NA,NA,NA,NA,NA,NA,NA,NA,NA,NA,NA,NA,NA,NA,NA,NA,NA,NA,0,1,1,2,1,NA,NA,NA,NA,NA,NA,NA,NA,NA,NA
SUPAMT01454,30IQTZXKAQ5MGX0UL9LLZDFR4VL0XJ,F833C0D0-AD53-487B-9D71-EF81BB432AEF,2023-09-27_08h30.24.882,WP_VExplicitOC_HL,2022.2.5,Win32,9.360578858,33.07291667,4.9929,2.0462,NA,NA,NA,NA,NA,frustrated,"frustrated, not frustrated","more frustrated, less frustrated",NA,NA,NA,NA,NA,NA,NA,NA,NA,NA,NA,NA,NA,NA,NA,NA,NA,NA,NA,NA,NA,NA,NA,NA,NA,NA,NA,NA,NA,NA,NA,NA,NA,0,2,2,1,1,NA,NA,NA,NA,NA,NA,NA,NA,NA,NA
SUPAMT01454,30IQTZXKAQ5MGX0UL9LLZDFR4VL0XJ,F833C0D0-AD53-487B-9D71-EF81BB432AEF,2023-09-27_08h30.24.882,WP_VExplicitOC_HL,2022.2.5,Win32,9.360578858,NA,NA,NA,NA,NA,NA,NA,NA,NA,NA,NA,NA,NA,NA,NA,NA,NA,NA,NA,NA,NA,NA,NA,NA,NA,NA,NA,NA,NA,NA,NA,NA,NA,NA,NA,NA,NA,NA,NA,NA,NA,NA,NA,NA,NA,NA,NA,NA,NA,NA,NA,NA,NA,NA,NA,NA,NA,NA,NA
SUPAMT01454,30IQTZXKAQ5MGX0UL9LLZDFR4VL0XJ,F833C0D0-AD53-487B-9D71-EF81BB432AEF,2023-09-27_08h30.24.882,WP_VExplicitOC_HL,2022.2.5,Win32,9.360578858,NA,NA,NA,NA,NA,NA,NA,NA,NA,NA,NA,NA,NA,NA,NA,NA,NA,NA,NA,NA,NA,NA,NA,NA,NA,NA,NA,NA,NA,NA,NA,NA,NA,NA,NA,NA,NA,NA,NA,NA,NA,NA,NA,NA,NA,NA,NA,NA,NA,NA,NA,NA,NA,NA,NA,NA,NA,NA,NA
SUPAMT01454,30IQTZXKAQ5MGX0UL9LLZDFR4VL0XJ,F833C0D0-AD53-487B-9D71-EF81BB432AEF,2023-09-27_08h30.24.882,WP_VExplicitOC_HL,2022.2.5,Win32,9.360578858,42.96875,7.3568,2.0553,NA,NA,NA,NA,NA,frustrated,"frustrated, not frustrated","more frustrated, less frustrated",NA,NA,NA,NA,NA,NA,NA,NA,NA,NA,NA,NA,NA,NA,NA,NA,NA,NA,NA,NA,NA,NA,NA,NA,NA,NA,NA,NA,NA,NA,NA,NA,NA,NA,NA,NA,NA,NA,0,0,0,1,1,NA,NA,NA,NA,NA
SUPAMT01454,30IQTZXKAQ5MGX0UL9LLZDFR4VL0XJ,F833C0D0-AD53-487B-9D71-EF81BB432AEF,2023-09-27_08h30.24.882,WP_VExplicitOC_HL,2022.2.5,Win32,9.360578858,57.55208333,4.4095,2.1046,NA,NA,NA,NA,NA,bored,"bored, not bored","more bored, less bored",NA,NA,NA,NA,NA,NA,NA,NA,NA,NA,NA,NA,NA,NA,NA,NA,NA,NA,NA,NA,NA,NA,NA,NA,NA,NA,NA,NA,NA,NA,NA,NA,NA,NA,NA,NA,NA,NA,0,1,1,2,1,NA,NA,NA,NA,NA
SUPAMT01454,30IQTZXKAQ5MGX0UL9LLZDFR4VL0XJ,F833C0D0-AD53-487B-9D71-EF81BB432AEF,2023-09-27_08h30.24.882,WP_VExplicitOC_HL,2022.2.5,Win32,9.360578858,48.4375,3.7954,2.0318,NA,NA,NA,NA,NA,happy,"unhappy, happy","less happy, more happy",NA,NA,NA,NA,NA,NA,NA,NA,NA,NA,NA,NA,NA,NA,NA,NA,NA,NA,NA,NA,NA,NA,NA,NA,NA,NA,NA,NA,NA,NA,NA,NA,NA,NA,NA,NA,NA,NA,0,2,2,0,1,NA,NA,NA,NA,NA
SUPAMT01454,30IQTZXKAQ5MGX0UL9LLZDFR4VL0XJ,F833C0D0-AD53-487B-9D71-EF81BB432AEF,2023-09-27_08h30.24.882,WP_VExplicitOC_HL,2022.2.5,Win32,9.360578858,NA,NA,NA,NA,NA,NA,NA,NA,NA,NA,NA,NA,NA,NA,NA,NA,NA,NA,NA,NA,NA,NA,NA,NA,NA,NA,NA,NA,NA,NA,NA,NA,NA,NA,NA,NA,NA,NA,NA,NA,NA,NA,NA,NA,NA,NA,NA,NA,NA,NA,NA,NA,NA,NA,0,0,0,0,1
SUPAMT01454,30IQTZXKAQ5MGX0UL9LLZDFR4VL0XJ,F833C0D0-AD53-487B-9D71-EF81BB432AEF,2023-09-27_08h30.24.882,WP_VExplicitOC_HL,2022.2.5,Win32,9.360578858,51.5625,5.3836,2.0455,NA,NA,NA,NA,NA,frustrated,"frustrated, not frustrated","more frustrated, less frustrated",NA,NA,NA,NA,NA,NA,NA,NA,NA,NA,NA,NA,NA,NA,NA,NA,NA,NA,NA,NA,NA,NA,NA,NA,NA,NA,NA,NA,NA,NA,NA,NA,NA,NA,NA,NA,NA,NA,0,0,0,1,1,NA,NA,NA,NA,NA
SUPAMT01454,30IQTZXKAQ5MGX0UL9LLZDFR4VL0XJ,F833C0D0-AD53-487B-9D71-EF81BB432AEF,2023-09-27_08h30.24.882,WP_VExplicitOC_HL,2022.2.5,Win32,9.360578858,54.94791667,4.0214,2.0217,NA,NA,NA,NA,NA,bored,"bored, not bored","more bored, less bored",NA,NA,NA,NA,NA,NA,NA,NA,NA,NA,NA,NA,NA,NA,NA,NA,NA,NA,NA,NA,NA,NA,NA,NA,NA,NA,NA,NA,NA,NA,NA,NA,NA,NA,NA,NA,NA,NA,0,1,1,2,1,NA,NA,NA,NA,NA
SUPAMT01454,30IQTZXKAQ5MGX0UL9LLZDFR4VL0XJ,F833C0D0-AD53-487B-9D71-EF81BB432AEF,2023-09-27_08h30.24.882,WP_VExplicitOC_HL,2022.2.5,Win32,9.360578858,46.61458333,3.835,2.0094,NA,NA,NA,NA,NA,happy,"unhappy, happy","less happy, more happy",NA,NA,NA,NA,NA,NA,NA,NA,NA,NA,NA,NA,NA,NA,NA,NA,NA,NA,NA,NA,NA,NA,NA,NA,NA,NA,NA,NA,NA,NA,NA,NA,NA,NA,NA,NA,NA,NA,0,2,2,0,1,NA,NA,NA,NA,NA
SUPAMT01454,30IQTZXKAQ5MGX0UL9LLZDFR4VL0XJ,F833C0D0-AD53-487B-9D71-EF81BB432AEF,2023-09-27_08h30.24.882,WP_VExplicitOC_HL,2022.2.5,Win32,9.360578858,NA,NA,NA,NA,NA,NA,NA,NA,NA,NA,NA,NA,NA,NA,NA,NA,NA,NA,NA,NA,NA,NA,NA,NA,NA,NA,NA,NA,NA,NA,NA,NA,NA,NA,NA,NA,NA,NA,NA,NA,NA,NA,NA,NA,NA,NA,NA,NA,NA,NA,NA,NA,NA,NA,1,0,1,0,1
SUPAMT01454,30IQTZXKAQ5MGX0UL9LLZDFR4VL0XJ,F833C0D0-AD53-487B-9D71-EF81BB432AEF,2023-09-27_08h30.24.882,WP_VExplicitOC_HL,2022.2.5,Win32,9.360578858,57.55208333,5.2264,2.05,NA,NA,NA,NA,NA,frustrated,"frustrated, not frustrated","more frustrated, less frustrated",NA,NA,NA,NA,NA,NA,NA,NA,NA,NA,NA,NA,NA,NA,NA,NA,NA,NA,NA,NA,NA,NA,NA,NA,NA,NA,NA,NA,NA,NA,NA,NA,NA,NA,NA,NA,NA,NA,0,0,0,1,1,NA,NA,NA,NA,NA
SUPAMT01454,30IQTZXKAQ5MGX0UL9LLZDFR4VL0XJ,F833C0D0-AD53-487B-9D71-EF81BB432AEF,2023-09-27_08h30.24.882,WP_VExplicitOC_HL,2022.2.5,Win32,9.360578858,61.97916667,3.8659,2.0168,NA,NA,NA,NA,NA,bored,"bored, not bored","more bored, less bored",NA,NA,NA,NA,NA,NA,NA,NA,NA,NA,NA,NA,NA,NA,NA,NA,NA,NA,NA,NA,NA,NA,NA,NA,NA,NA,NA,NA,NA,NA,NA,NA,NA,NA,NA,NA,NA,NA,0,1,1,2,1,NA,NA,NA,NA,NA
SUPAMT01454,30IQTZXKAQ5MGX0UL9LLZDFR4VL0XJ,F833C0D0-AD53-487B-9D71-EF81BB432AEF,2023-09-27_08h30.24.882,WP_VExplicitOC_HL,2022.2.5,Win32,9.360578858,66.14583333,4.0942,2.0096,NA,NA,NA,NA,NA,happy,"unhappy, happy","less happy, more happy",NA,NA,NA,NA,NA,NA,NA,NA,NA,NA,NA,NA,NA,NA,NA,NA,NA,NA,NA,NA,NA,NA,NA,NA,NA,NA,NA,NA,NA,NA,NA,NA,NA,NA,NA,NA,NA,NA,0,2,2,0,1,NA,NA,NA,NA,NA
SUPAMT01454,30IQTZXKAQ5MGX0UL9LLZDFR4VL0XJ,F833C0D0-AD53-487B-9D71-EF81BB432AEF,2023-09-27_08h30.24.882,WP_VExplicitOC_HL,2022.2.5,Win32,9.360578858,NA,NA,NA,NA,NA,NA,NA,NA,NA,NA,NA,NA,NA,NA,NA,NA,NA,NA,NA,NA,NA,NA,NA,NA,NA,NA,NA,NA,NA,NA,NA,NA,NA,NA,NA,NA,NA,NA,NA,NA,NA,NA,NA,NA,NA,NA,NA,NA,NA,NA,NA,NA,NA,NA,2,0,2,0,1
SUPAMT01454,30IQTZXKAQ5MGX0UL9LLZDFR4VL0XJ,F833C0D0-AD53-487B-9D71-EF81BB432AEF,2023-09-27_08h30.24.882,WP_VExplicitOC_HL,2022.2.5,Win32,9.360578858,NA,NA,2.0072,NA,NA,NA,NA,NA,bored,"bored, not bored","more bored, less bored",NA,NA,NA,NA,NA,NA,NA,NA,NA,NA,NA,NA,NA,NA,NA,NA,NA,NA,NA,NA,NA,NA,NA,NA,NA,NA,NA,NA,NA,NA,NA,NA,NA,NA,NA,NA,NA,NA,0,0,0,2,1,NA,NA,NA,NA,NA
SUPAMT01454,30IQTZXKAQ5MGX0UL9LLZDFR4VL0XJ,F833C0D0-AD53-487B-9D71-EF81BB432AEF,2023-09-27_08h30.24.882,WP_VExplicitOC_HL,2022.2.5,Win32,9.360578858,58.07291667,4.2957,2.0903,NA,NA,NA,NA,NA,happy,"unhappy, happy","less happy, more happy",NA,NA,NA,NA,NA,NA,NA,NA,NA,NA,NA,NA,NA,NA,NA,NA,NA,NA,NA,NA,NA,NA,NA,NA,NA,NA,NA,NA,NA,NA,NA,NA,NA,NA,NA,NA,NA,NA,0,1,1,0,1,NA,NA,NA,NA,NA
SUPAMT01454,30IQTZXKAQ5MGX0UL9LLZDFR4VL0XJ,F833C0D0-AD53-487B-9D71-EF81BB432AEF,2023-09-27_08h30.24.882,WP_VExplicitOC_HL,2022.2.5,Win32,9.360578858,60.67708333,3.9485,2.043,NA,NA,NA,NA,NA,frustrated,"frustrated, not frustrated","more frustrated, less frustrated",NA,NA,NA,NA,NA,NA,NA,NA,NA,NA,NA,NA,NA,NA,NA,NA,NA,NA,NA,NA,NA,NA,NA,NA,NA,NA,NA,NA,NA,NA,NA,NA,NA,NA,NA,NA,NA,NA,0,2,2,1,1,NA,NA,NA,NA,NA
SUPAMT01454,30IQTZXKAQ5MGX0UL9LLZDFR4VL0XJ,F833C0D0-AD53-487B-9D71-EF81BB432AEF,2023-09-27_08h30.24.882,WP_VExplicitOC_HL,2022.2.5,Win32,9.360578858,NA,NA,NA,NA,NA,NA,NA,NA,NA,NA,NA,NA,NA,NA,NA,NA,NA,NA,NA,NA,NA,NA,NA,NA,NA,NA,NA,NA,NA,NA,NA,NA,NA,NA,NA,NA,NA,NA,NA,NA,NA,NA,NA,NA,NA,NA,NA,NA,NA,NA,NA,NA,NA,NA,3,0,3,0,1
SUPAMT01454,30IQTZXKAQ5MGX0UL9LLZDFR4VL0XJ,F833C0D0-AD53-487B-9D71-EF81BB432AEF,2023-09-27_08h30.24.882,WP_VExplicitOC_HL,2022.2.5,Win32,9.360578858,50.52083333,4.9702,2.1157,NA,NA,NA,NA,NA,happy,"unhappy, happy","less happy, more happy",NA,NA,NA,NA,NA,NA,NA,NA,NA,NA,NA,NA,NA,NA,NA,NA,NA,NA,NA,NA,NA,NA,NA,NA,NA,NA,NA,NA,NA,NA,NA,NA,NA,NA,NA,NA,NA,NA,0,0,0,0,1,NA,NA,NA,NA,NA
SUPAMT01454,30IQTZXKAQ5MGX0UL9LLZDFR4VL0XJ,F833C0D0-AD53-487B-9D71-EF81BB432AEF,2023-09-27_08h30.24.882,WP_VExplicitOC_HL,2022.2.5,Win32,9.360578858,56.25,4.0698,2.0503,NA,NA,NA,NA,NA,bored,"bored, not bored","more bored, less bored",NA,NA,NA,NA,NA,NA,NA,NA,NA,NA,NA,NA,NA,NA,NA,NA,NA,NA,NA,NA,NA,NA,NA,NA,NA,NA,NA,NA,NA,NA,NA,NA,NA,NA,NA,NA,NA,NA,0,1,1,2,1,NA,NA,NA,NA,NA
SUPAMT01454,30IQTZXKAQ5MGX0UL9LLZDFR4VL0XJ,F833C0D0-AD53-487B-9D71-EF81BB432AEF,2023-09-27_08h30.24.882,WP_VExplicitOC_HL,2022.2.5,Win32,9.360578858,67.44791667,4.0431,2.0629,NA,NA,NA,NA,NA,frustrated,"frustrated, not frustrated","more frustrated, less frustrated",NA,NA,NA,NA,NA,NA,NA,NA,NA,NA,NA,NA,NA,NA,NA,NA,NA,NA,NA,NA,NA,NA,NA,NA,NA,NA,NA,NA,NA,NA,NA,NA,NA,NA,NA,NA,NA,NA,0,2,2,1,1,NA,NA,NA,NA,NA
SUPAMT01454,30IQTZXKAQ5MGX0UL9LLZDFR4VL0XJ,F833C0D0-AD53-487B-9D71-EF81BB432AEF,2023-09-27_08h30.24.882,WP_VExplicitOC_HL,2022.2.5,Win32,9.360578858,NA,NA,NA,NA,NA,NA,NA,NA,NA,NA,NA,NA,NA,NA,NA,NA,NA,NA,NA,NA,NA,NA,NA,NA,NA,NA,NA,NA,NA,NA,NA,NA,NA,NA,NA,NA,NA,NA,NA,NA,NA,NA,NA,NA,NA,NA,NA,NA,NA,NA,NA,NA,NA,NA,4,0,4,0,1
SUPAMT01454,30IQTZXKAQ5MGX0UL9LLZDFR4VL0XJ,F833C0D0-AD53-487B-9D71-EF81BB432AEF,2023-09-27_08h30.24.882,WP_VExplicitOC_HL,2022.2.5,Win32,9.360578858,47.91666667,5.159,2.0253,NA,NA,NA,NA,NA,bored,"bored, not bored","more bored, less bored",NA,NA,NA,NA,NA,NA,NA,NA,NA,NA,NA,NA,NA,NA,NA,NA,NA,NA,NA,NA,NA,NA,NA,NA,NA,NA,NA,NA,NA,NA,NA,NA,NA,NA,NA,NA,NA,NA,0,0,0,2,1,NA,NA,NA,NA,NA
SUPAMT01454,30IQTZXKAQ5MGX0UL9LLZDFR4VL0XJ,F833C0D0-AD53-487B-9D71-EF81BB432AEF,2023-09-27_08h30.24.882,WP_VExplicitOC_HL,2022.2.5,Win32,9.360578858,48.69791667,3.75,2.0228,NA,NA,NA,NA,NA,frustrated,"frustrated, not frustrated","more frustrated, less frustrated",NA,NA,NA,NA,NA,NA,NA,NA,NA,NA,NA,NA,NA,NA,NA,NA,NA,NA,NA,NA,NA,NA,NA,NA,NA,NA,NA,NA,NA,NA,NA,NA,NA,NA,NA,NA,NA,NA,0,1,1,1,1,NA,NA,NA,NA,NA
SUPAMT01454,30IQTZXKAQ5MGX0UL9LLZDFR4VL0XJ,F833C0D0-AD53-487B-9D71-EF81BB432AEF,2023-09-27_08h30.24.882,WP_VExplicitOC_HL,2022.2.5,Win32,9.360578858,46.875,3.8171,2.0511,NA,NA,NA,NA,NA,happy,"unhappy, happy","less happy, more happy",NA,NA,NA,NA,NA,NA,NA,NA,NA,NA,NA,NA,NA,NA,NA,NA,NA,NA,NA,NA,NA,NA,NA,NA,NA,NA,NA,NA,NA,NA,NA,NA,NA,NA,NA,NA,NA,NA,0,2,2,0,1,NA,NA,NA,NA,NA
SUPAMT01454,30IQTZXKAQ5MGX0UL9LLZDFR4VL0XJ,F833C0D0-AD53-487B-9D71-EF81BB432AEF,2023-09-27_08h30.24.882,WP_VExplicitOC_HL,2022.2.5,Win32,9.360578858,NA,NA,NA,NA,NA,NA,NA,NA,NA,NA,NA,NA,NA,NA,NA,NA,NA,NA,NA,NA,NA,NA,NA,NA,NA,NA,NA,NA,NA,NA,NA,NA,NA,NA,NA,NA,NA,NA,NA,NA,NA,NA,NA,NA,NA,NA,NA,NA,NA,NA,NA,NA,NA,NA,5,0,5,0,1
SUPAMT01454,30IQTZXKAQ5MGX0UL9LLZDFR4VL0XJ,F833C0D0-AD53-487B-9D71-EF81BB432AEF,2023-09-27_08h30.24.882,WP_VExplicitOC_HL,2022.2.5,Win32,9.360578858,50.52083333,5.454,2.0654,NA,NA,NA,NA,NA,bored,"bored, not bored","more bored, less bored",NA,NA,NA,NA,NA,NA,NA,NA,NA,NA,NA,NA,NA,NA,NA,NA,NA,NA,NA,NA,NA,NA,NA,NA,NA,NA,NA,NA,NA,NA,NA,NA,NA,NA,NA,NA,NA,NA,0,0,0,2,1,NA,NA,NA,NA,NA
SUPAMT01454,30IQTZXKAQ5MGX0UL9LLZDFR4VL0XJ,F833C0D0-AD53-487B-9D71-EF81BB432AEF,2023-09-27_08h30.24.882,WP_VExplicitOC_HL,2022.2.5,Win32,9.360578858,51.82291667,3.7933,2.1382,NA,NA,NA,NA,NA,happy,"unhappy, happy","less happy, more happy",NA,NA,NA,NA,NA,NA,NA,NA,NA,NA,NA,NA,NA,NA,NA,NA,NA,NA,NA,NA,NA,NA,NA,NA,NA,NA,NA,NA,NA,NA,NA,NA,NA,NA,NA,NA,NA,NA,0,1,1,0,1,NA,NA,NA,NA,NA
SUPAMT01454,30IQTZXKAQ5MGX0UL9LLZDFR4VL0XJ,F833C0D0-AD53-487B-9D71-EF81BB432AEF,2023-09-27_08h30.24.882,WP_VExplicitOC_HL,2022.2.5,Win32,9.360578858,55.46875,4.2082,2.0556,NA,NA,NA,NA,NA,frustrated,"frustrated, not frustrated","more frustrated, less frustrated",NA,NA,NA,NA,NA,NA,NA,NA,NA,NA,NA,NA,NA,NA,NA,NA,NA,NA,NA,NA,NA,NA,NA,NA,NA,NA,NA,NA,NA,NA,NA,NA,NA,NA,NA,NA,NA,NA,0,2,2,1,1,NA,NA,NA,NA,NA
SUPAMT01454,30IQTZXKAQ5MGX0UL9LLZDFR4VL0XJ,F833C0D0-AD53-487B-9D71-EF81BB432AEF,2023-09-27_08h30.24.882,WP_VExplicitOC_HL,2022.2.5,Win32,9.360578858,NA,NA,NA,NA,NA,NA,NA,NA,NA,NA,NA,NA,NA,NA,NA,NA,NA,NA,NA,NA,NA,NA,NA,NA,NA,NA,NA,NA,NA,NA,NA,NA,NA,NA,NA,NA,NA,NA,NA,NA,NA,NA,NA,NA,NA,NA,NA,NA,NA,NA,NA,NA,NA,NA,6,0,6,0,1
SUPAMT01454,30IQTZXKAQ5MGX0UL9LLZDFR4VL0XJ,F833C0D0-AD53-487B-9D71-EF81BB432AEF,2023-09-27_08h30.24.882,WP_VExplicitOC_HL,2022.2.5,Win32,9.360578858,60.15625,6.4267,2.006,NA,NA,NA,NA,NA,bored,"bored, not bored","more bored, less bored",NA,NA,NA,NA,NA,NA,NA,NA,NA,NA,NA,NA,NA,NA,NA,NA,NA,NA,NA,NA,NA,NA,NA,NA,NA,NA,NA,NA,NA,NA,NA,NA,NA,NA,NA,NA,NA,NA,0,0,0,2,1,NA,NA,NA,NA,NA
SUPAMT01454,30IQTZXKAQ5MGX0UL9LLZDFR4VL0XJ,F833C0D0-AD53-487B-9D71-EF81BB432AEF,2023-09-27_08h30.24.882,WP_VExplicitOC_HL,2022.2.5,Win32,9.360578858,52.86458333,3.6726,2.0419,NA,NA,NA,NA,NA,happy,"unhappy, happy","less happy, more happy",NA,NA,NA,NA,NA,NA,NA,NA,NA,NA,NA,NA,NA,NA,NA,NA,NA,NA,NA,NA,NA,NA,NA,NA,NA,NA,NA,NA,NA,NA,NA,NA,NA,NA,NA,NA,NA,NA,0,1,1,0,1,NA,NA,NA,NA,NA
SUPAMT01454,30IQTZXKAQ5MGX0UL9LLZDFR4VL0XJ,F833C0D0-AD53-487B-9D71-EF81BB432AEF,2023-09-27_08h30.24.882,WP_VExplicitOC_HL,2022.2.5,Win32,9.360578858,45.05208333,3.8514,2.0798,NA,NA,NA,NA,NA,frustrated,"frustrated, not frustrated","more frustrated, less frustrated",NA,NA,NA,NA,NA,NA,NA,NA,NA,NA,NA,NA,NA,NA,NA,NA,NA,NA,NA,NA,NA,NA,NA,NA,NA,NA,NA,NA,NA,NA,NA,NA,NA,NA,NA,NA,NA,NA,0,2,2,1,1,NA,NA,NA,NA,NA
SUPAMT01454,30IQTZXKAQ5MGX0UL9LLZDFR4VL0XJ,F833C0D0-AD53-487B-9D71-EF81BB432AEF,2023-09-27_08h30.24.882,WP_VExplicitOC_HL,2022.2.5,Win32,9.360578858,NA,NA,NA,NA,NA,NA,NA,NA,NA,NA,NA,NA,NA,NA,NA,NA,NA,NA,NA,NA,NA,NA,NA,NA,NA,NA,NA,NA,NA,NA,NA,NA,NA,NA,NA,NA,NA,NA,NA,NA,NA,NA,NA,NA,NA,NA,NA,NA,NA,NA,NA,NA,NA,NA,7,0,7,0,1
SUPAMT01454,30IQTZXKAQ5MGX0UL9LLZDFR4VL0XJ,F833C0D0-AD53-487B-9D71-EF81BB432AEF,2023-09-27_08h30.24.882,WP_VExplicitOC_HL,2022.2.5,Win32,9.360578858,60.41666667,5.2954,2.0903,NA,NA,NA,NA,NA,frustrated,"frustrated, not frustrated","more frustrated, less frustrated",NA,NA,NA,NA,NA,NA,NA,NA,NA,NA,NA,NA,NA,NA,NA,NA,NA,NA,NA,NA,NA,NA,NA,NA,NA,NA,NA,NA,NA,NA,NA,NA,NA,NA,NA,NA,NA,NA,0,0,0,1,1,NA,NA,NA,NA,NA
SUPAMT01454,30IQTZXKAQ5MGX0UL9LLZDFR4VL0XJ,F833C0D0-AD53-487B-9D71-EF81BB432AEF,2023-09-27_08h30.24.882,WP_VExplicitOC_HL,2022.2.5,Win32,9.360578858,54.94791667,3.9506,2.0179,NA,NA,NA,NA,NA,happy,"unhappy, happy","less happy, more happy",NA,NA,NA,NA,NA,NA,NA,NA,NA,NA,NA,NA,NA,NA,NA,NA,NA,NA,NA,NA,NA,NA,NA,NA,NA,NA,NA,NA,NA,NA,NA,NA,NA,NA,NA,NA,NA,NA,0,1,1,0,1,NA,NA,NA,NA,NA
SUPAMT01454,30IQTZXKAQ5MGX0UL9LLZDFR4VL0XJ,F833C0D0-AD53-487B-9D71-EF81BB432AEF,2023-09-27_08h30.24.882,WP_VExplicitOC_HL,2022.2.5,Win32,9.360578858,48.69791667,3.9617,2.0974,NA,NA,NA,NA,NA,bored,"bored, not bored","more bored, less bored",NA,NA,NA,NA,NA,NA,NA,NA,NA,NA,NA,NA,NA,NA,NA,NA,NA,NA,NA,NA,NA,NA,NA,NA,NA,NA,NA,NA,NA,NA,NA,NA,NA,NA,NA,NA,NA,NA,0,2,2,2,1,NA,NA,NA,NA,NA
SUPAMT01454,30IQTZXKAQ5MGX0UL9LLZDFR4VL0XJ,F833C0D0-AD53-487B-9D71-EF81BB432AEF,2023-09-27_08h30.24.882,WP_VExplicitOC_HL,2022.2.5,Win32,9.360578858,NA,NA,NA,NA,NA,NA,NA,NA,NA,NA,NA,NA,NA,NA,NA,NA,NA,NA,NA,NA,NA,NA,NA,NA,NA,NA,NA,NA,NA,NA,NA,NA,NA,NA,NA,NA,NA,NA,NA,NA,NA,NA,NA,NA,NA,NA,NA,NA,NA,NA,NA,NA,NA,NA,8,0,8,0,1
SUPAMT01454,30IQTZXKAQ5MGX0UL9LLZDFR4VL0XJ,F833C0D0-AD53-487B-9D71-EF81BB432AEF,2023-09-27_08h30.24.882,WP_VExplicitOC_HL,2022.2.5,Win32,9.360578858,NA,NA,4.5178,NA,NA,NA,NA,NA,happy,"unhappy, happy","less happy, more happy",NA,NA,NA,NA,NA,NA,NA,NA,NA,NA,NA,NA,NA,NA,NA,NA,NA,NA,NA,NA,NA,NA,NA,NA,NA,NA,NA,NA,NA,NA,NA,NA,NA,NA,NA,NA,NA,NA,0,0,0,0,1,NA,NA,NA,NA,NA
SUPAMT01454,30IQTZXKAQ5MGX0UL9LLZDFR4VL0XJ,F833C0D0-AD53-487B-9D71-EF81BB432AEF,2023-09-27_08h30.24.882,WP_VExplicitOC_HL,2022.2.5,Win32,9.360578858,51.37318255,3.8905,2.0662,NA,NA,NA,NA,NA,bored,"bored, not bored","more bored, less bored",NA,NA,NA,NA,NA,NA,NA,NA,NA,NA,NA,NA,NA,NA,NA,NA,NA,NA,NA,NA,NA,NA,NA,NA,NA,NA,NA,NA,NA,NA,NA,NA,NA,NA,NA,NA,NA,NA,0,1,1,2,1,NA,NA,NA,NA,NA
SUPAMT01454,30IQTZXKAQ5MGX0UL9LLZDFR4VL0XJ,F833C0D0-AD53-487B-9D71-EF81BB432AEF,2023-09-27_08h30.24.882,WP_VExplicitOC_HL,2022.2.5,Win32,9.360578858,39.0625,4.1549,2.1267,NA,NA,NA,NA,NA,frustrated,"frustrated, not frustrated","more frustrated, less frustrated",NA,NA,NA,NA,NA,NA,NA,NA,NA,NA,NA,NA,NA,NA,NA,NA,NA,NA,NA,NA,NA,NA,NA,NA,NA,NA,NA,NA,NA,NA,NA,NA,NA,NA,NA,NA,NA,NA,0,2,2,1,1,NA,NA,NA,NA,NA
SUPAMT01454,30IQTZXKAQ5MGX0UL9LLZDFR4VL0XJ,F833C0D0-AD53-487B-9D71-EF81BB432AEF,2023-09-27_08h30.24.882,WP_VExplicitOC_HL,2022.2.5,Win32,9.360578858,NA,NA,NA,NA,NA,NA,NA,NA,NA,NA,NA,NA,NA,NA,NA,NA,NA,NA,NA,NA,NA,NA,NA,NA,NA,NA,NA,NA,NA,NA,NA,NA,NA,NA,NA,NA,NA,NA,NA,NA,NA,NA,NA,NA,NA,NA,NA,NA,NA,NA,NA,NA,NA,NA,9,0,9,0,1
SUPAMT01454,30IQTZXKAQ5MGX0UL9LLZDFR4VL0XJ,F833C0D0-AD53-487B-9D71-EF81BB432AEF,2023-09-27_08h30.24.882,WP_VExplicitOC_HL,2022.2.5,Win32,9.360578858,59.89583333,4.6151,2.1173,NA,NA,NA,NA,NA,happy,"unhappy, happy","less happy, more happy",NA,NA,NA,NA,NA,NA,NA,NA,NA,NA,NA,NA,NA,NA,NA,NA,NA,NA,NA,NA,NA,NA,NA,NA,NA,NA,NA,NA,NA,NA,NA,NA,NA,NA,NA,NA,NA,NA,0,0,0,0,1,NA,NA,NA,NA,NA
SUPAMT01454,30IQTZXKAQ5MGX0UL9LLZDFR4VL0XJ,F833C0D0-AD53-487B-9D71-EF81BB432AEF,2023-09-27_08h30.24.882,WP_VExplicitOC_HL,2022.2.5,Win32,9.360578858,60.15625,3.875,2.0733,NA,NA,NA,NA,NA,bored,"bored, not bored","more bored, less bored",NA,NA,NA,NA,NA,NA,NA,NA,NA,NA,NA,NA,NA,NA,NA,NA,NA,NA,NA,NA,NA,NA,NA,NA,NA,NA,NA,NA,NA,NA,NA,NA,NA,NA,NA,NA,NA,NA,0,1,1,2,1,NA,NA,NA,NA,NA
SUPAMT01454,30IQTZXKAQ5MGX0UL9LLZDFR4VL0XJ,F833C0D0-AD53-487B-9D71-EF81BB432AEF,2023-09-27_08h30.24.882,WP_VExplicitOC_HL,2022.2.5,Win32,9.360578858,55.46875,3.8674,2.1155,NA,NA,NA,NA,NA,frustrated,"frustrated, not frustrated","more frustrated, less frustrated",NA,NA,NA,NA,NA,NA,NA,NA,NA,NA,NA,NA,NA,NA,NA,NA,NA,NA,NA,NA,NA,NA,NA,NA,NA,NA,NA,NA,NA,NA,NA,NA,NA,NA,NA,NA,NA,NA,0,2,2,1,1,NA,NA,NA,NA,NA
SUPAMT01454,30IQTZXKAQ5MGX0UL9LLZDFR4VL0XJ,F833C0D0-AD53-487B-9D71-EF81BB432AEF,2023-09-27_08h30.24.882,WP_VExplicitOC_HL,2022.2.5,Win32,9.360578858,NA,NA,NA,NA,NA,NA,NA,NA,NA,NA,NA,NA,NA,NA,NA,NA,NA,NA,NA,NA,NA,NA,NA,NA,NA,NA,NA,NA,NA,NA,NA,NA,NA,NA,NA,NA,NA,NA,NA,NA,NA,NA,NA,NA,NA,NA,NA,NA,NA,NA,NA,NA,NA,NA,10,0,10,0,1
SUPAMT01454,30IQTZXKAQ5MGX0UL9LLZDFR4VL0XJ,F833C0D0-AD53-487B-9D71-EF81BB432AEF,2023-09-27_08h30.24.882,WP_VExplicitOC_HL,2022.2.5,Win32,9.360578858,61.71875,5.1349,2.0838,NA,NA,NA,NA,NA,happy,"unhappy, happy","less happy, more happy",NA,NA,NA,NA,NA,NA,NA,NA,NA,NA,NA,NA,NA,NA,NA,NA,NA,NA,NA,NA,NA,NA,NA,NA,NA,NA,NA,NA,NA,NA,NA,NA,NA,NA,NA,NA,NA,NA,0,0,0,0,1,NA,NA,NA,NA,NA
SUPAMT01454,30IQTZXKAQ5MGX0UL9LLZDFR4VL0XJ,F833C0D0-AD53-487B-9D71-EF81BB432AEF,2023-09-27_08h30.24.882,WP_VExplicitOC_HL,2022.2.5,Win32,9.360578858,50.26041667,4.3863,2.059,NA,NA,NA,NA,NA,bored,"bored, not bored","more bored, less bored",NA,NA,NA,NA,NA,NA,NA,NA,NA,NA,NA,NA,NA,NA,NA,NA,NA,NA,NA,NA,NA,NA,NA,NA,NA,NA,NA,NA,NA,NA,NA,NA,NA,NA,NA,NA,NA,NA,0,1,1,2,1,NA,NA,NA,NA,NA
SUPAMT01454,30IQTZXKAQ5MGX0UL9LLZDFR4VL0XJ,F833C0D0-AD53-487B-9D71-EF81BB432AEF,2023-09-27_08h30.24.882,WP_VExplicitOC_HL,2022.2.5,Win32,9.360578858,52.08333333,4.3488,2.0293,NA,NA,NA,NA,NA,frustrated,"frustrated, not frustrated","more frustrated, less frustrated",NA,NA,NA,NA,NA,NA,NA,NA,NA,NA,NA,NA,NA,NA,NA,NA,NA,NA,NA,NA,NA,NA,NA,NA,NA,NA,NA,NA,NA,NA,NA,NA,NA,NA,NA,NA,NA,NA,0,2,2,1,1,NA,NA,NA,NA,NA
SUPAMT01454,30IQTZXKAQ5MGX0UL9LLZDFR4VL0XJ,F833C0D0-AD53-487B-9D71-EF81BB432AEF,2023-09-27_08h30.24.882,WP_VExplicitOC_HL,2022.2.5,Win32,9.360578858,NA,NA,NA,NA,NA,NA,NA,NA,NA,NA,NA,NA,NA,NA,NA,NA,NA,NA,NA,NA,NA,NA,NA,NA,NA,NA,NA,NA,NA,NA,NA,NA,NA,NA,NA,NA,NA,NA,NA,NA,NA,NA,NA,NA,NA,NA,NA,NA,NA,NA,NA,NA,NA,NA,11,0,11,0,1
SUPAMT01454,30IQTZXKAQ5MGX0UL9LLZDFR4VL0XJ,F833C0D0-AD53-487B-9D71-EF81BB432AEF,2023-09-27_08h30.24.882,WP_VExplicitOC_HL,2022.2.5,Win32,9.360578858,58.07291667,3.7915,2.0297,NA,NA,NA,NA,NA,happy,"unhappy, happy","less happy, more happy",NA,NA,NA,NA,NA,NA,NA,NA,NA,NA,NA,NA,NA,NA,NA,NA,NA,NA,NA,NA,NA,NA,NA,NA,NA,NA,NA,NA,NA,NA,NA,NA,NA,NA,NA,NA,NA,NA,0,0,0,0,1,NA,NA,NA,NA,NA
SUPAMT01454,30IQTZXKAQ5MGX0UL9LLZDFR4VL0XJ,F833C0D0-AD53-487B-9D71-EF81BB432AEF,2023-09-27_08h30.24.882,WP_VExplicitOC_HL,2022.2.5,Win32,9.360578858,38.28125,3.3697,2.0447,NA,NA,NA,NA,NA,bored,"bored, not bored","more bored, less bored",NA,NA,NA,NA,NA,NA,NA,NA,NA,NA,NA,NA,NA,NA,NA,NA,NA,NA,NA,NA,NA,NA,NA,NA,NA,NA,NA,NA,NA,NA,NA,NA,NA,NA,NA,NA,NA,NA,0,1,1,2,1,NA,NA,NA,NA,NA
SUPAMT01454,30IQTZXKAQ5MGX0UL9LLZDFR4VL0XJ,F833C0D0-AD53-487B-9D71-EF81BB432AEF,2023-09-27_08h30.24.882,WP_VExplicitOC_HL,2022.2.5,Win32,9.360578858,43.48958333,3.7784,2.1552,NA,NA,NA,NA,NA,frustrated,"frustrated, not frustrated","more frustrated, less frustrated",NA,NA,NA,NA,NA,NA,NA,NA,NA,NA,NA,NA,NA,NA,NA,NA,NA,NA,NA,NA,NA,NA,NA,NA,NA,NA,NA,NA,NA,NA,NA,NA,NA,NA,NA,NA,NA,NA,0,2,2,1,1,NA,NA,NA,NA,NA
SUPAMT01454,30IQTZXKAQ5MGX0UL9LLZDFR4VL0XJ,F833C0D0-AD53-487B-9D71-EF81BB432AEF,2023-09-27_08h30.24.882,WP_VExplicitOC_HL,2022.2.5,Win32,9.360578858,NA,NA,NA,NA,NA,NA,NA,NA,NA,NA,NA,NA,NA,NA,NA,NA,NA,NA,NA,NA,NA,NA,NA,NA,NA,NA,NA,NA,NA,NA,NA,NA,NA,NA,NA,NA,NA,NA,NA,NA,NA,NA,NA,NA,NA,NA,NA,NA,NA,NA,NA,NA,NA,NA,12,0,12,0,1
SUPAMT01454,30IQTZXKAQ5MGX0UL9LLZDFR4VL0XJ,F833C0D0-AD53-487B-9D71-EF81BB432AEF,2023-09-27_08h30.24.882,WP_VExplicitOC_HL,2022.2.5,Win32,9.360578858,28.38541667,3.4965,2.0166,NA,NA,NA,NA,NA,frustrated,"frustrated, not frustrated","more frustrated, less frustrated",NA,NA,NA,NA,NA,NA,NA,NA,NA,NA,NA,NA,NA,NA,NA,NA,NA,NA,NA,NA,NA,NA,NA,NA,NA,NA,NA,NA,NA,NA,NA,NA,NA,NA,NA,NA,NA,NA,0,0,0,1,1,NA,NA,NA,NA,NA
SUPAMT01454,30IQTZXKAQ5MGX0UL9LLZDFR4VL0XJ,F833C0D0-AD53-487B-9D71-EF81BB432AEF,2023-09-27_08h30.24.882,WP_VExplicitOC_HL,2022.2.5,Win32,9.360578858,48.95833333,3.2873,2.0698,NA,NA,NA,NA,NA,happy,"unhappy, happy","less happy, more happy",NA,NA,NA,NA,NA,NA,NA,NA,NA,NA,NA,NA,NA,NA,NA,NA,NA,NA,NA,NA,NA,NA,NA,NA,NA,NA,NA,NA,NA,NA,NA,NA,NA,NA,NA,NA,NA,NA,0,1,1,0,1,NA,NA,NA,NA,NA
SUPAMT01454,30IQTZXKAQ5MGX0UL9LLZDFR4VL0XJ,F833C0D0-AD53-487B-9D71-EF81BB432AEF,2023-09-27_08h30.24.882,WP_VExplicitOC_HL,2022.2.5,Win32,9.360578858,42.96875,4.8092,2.0053,NA,NA,NA,NA,NA,bored,"bored, not bored","more bored, less bored",NA,NA,NA,NA,NA,NA,NA,NA,NA,NA,NA,NA,NA,NA,NA,NA,NA,NA,NA,NA,NA,NA,NA,NA,NA,NA,NA,NA,NA,NA,NA,NA,NA,NA,NA,NA,NA,NA,0,2,2,2,1,NA,NA,NA,NA,NA
SUPAMT01454,30IQTZXKAQ5MGX0UL9LLZDFR4VL0XJ,F833C0D0-AD53-487B-9D71-EF81BB432AEF,2023-09-27_08h30.24.882,WP_VExplicitOC_HL,2022.2.5,Win32,9.360578858,NA,NA,NA,NA,NA,NA,NA,NA,NA,NA,NA,NA,NA,NA,NA,NA,NA,NA,NA,NA,NA,NA,NA,NA,NA,NA,NA,NA,NA,NA,NA,NA,NA,NA,NA,NA,NA,NA,NA,NA,NA,NA,NA,NA,NA,NA,NA,NA,NA,NA,NA,NA,NA,NA,13,0,13,0,1
SUPAMT01454,30IQTZXKAQ5MGX0UL9LLZDFR4VL0XJ,F833C0D0-AD53-487B-9D71-EF81BB432AEF,2023-09-27_08h30.24.882,WP_VExplicitOC_HL,2022.2.5,Win32,9.360578858,47.39583333,3.435,2.0184,NA,NA,NA,NA,NA,happy,"unhappy, happy","less happy, more happy",NA,NA,NA,NA,NA,NA,NA,NA,NA,NA,NA,NA,NA,NA,NA,NA,NA,NA,NA,NA,NA,NA,NA,NA,NA,NA,NA,NA,NA,NA,NA,NA,NA,NA,NA,NA,NA,NA,0,0,0,0,1,NA,NA,NA,NA,NA
SUPAMT01454,30IQTZXKAQ5MGX0UL9LLZDFR4VL0XJ,F833C0D0-AD53-487B-9D71-EF81BB432AEF,2023-09-27_08h30.24.882,WP_VExplicitOC_HL,2022.2.5,Win32,9.360578858,54.6875,4.1329,2.0417,NA,NA,NA,NA,NA,bored,"bored, not bored","more bored, less bored",NA,NA,NA,NA,NA,NA,NA,NA,NA,NA,NA,NA,NA,NA,NA,NA,NA,NA,NA,NA,NA,NA,NA,NA,NA,NA,NA,NA,NA,NA,NA,NA,NA,NA,NA,NA,NA,NA,0,1,1,2,1,NA,NA,NA,NA,NA
SUPAMT01454,30IQTZXKAQ5MGX0UL9LLZDFR4VL0XJ,F833C0D0-AD53-487B-9D71-EF81BB432AEF,2023-09-27_08h30.24.882,WP_VExplicitOC_HL,2022.2.5,Win32,9.360578858,55.46875,3.5129,2.0024,NA,NA,NA,NA,NA,frustrated,"frustrated, not frustrated","more frustrated, less frustrated",NA,NA,NA,NA,NA,NA,NA,NA,NA,NA,NA,NA,NA,NA,NA,NA,NA,NA,NA,NA,NA,NA,NA,NA,NA,NA,NA,NA,NA,NA,NA,NA,NA,NA,NA,NA,NA,NA,0,2,2,1,1,NA,NA,NA,NA,NA
SUPAMT01454,30IQTZXKAQ5MGX0UL9LLZDFR4VL0XJ,F833C0D0-AD53-487B-9D71-EF81BB432AEF,2023-09-27_08h30.24.882,WP_VExplicitOC_HL,2022.2.5,Win32,9.360578858,NA,NA,NA,NA,NA,NA,NA,NA,NA,NA,NA,NA,NA,NA,NA,NA,NA,NA,NA,NA,NA,NA,NA,NA,NA,NA,NA,NA,NA,NA,NA,NA,NA,NA,NA,NA,NA,NA,NA,NA,NA,NA,NA,NA,NA,NA,NA,NA,NA,NA,NA,NA,NA,NA,14,0,14,0,1
SUPAMT01454,30IQTZXKAQ5MGX0UL9LLZDFR4VL0XJ,F833C0D0-AD53-487B-9D71-EF81BB432AEF,2023-09-27_08h30.24.882,WP_VExplicitOC_HL,2022.2.5,Win32,9.360578858,NA,NA,NA,NA,NA,NA,NA,NA,NA,NA,NA,NA,NA,NA,NA,NA,NA,NA,NA,NA,NA,NA,NA,NA,NA,NA,NA,NA,NA,NA,NA,NA,NA,NA,NA,NA,NA,NA,NA,NA,NA,NA,NA,NA,NA,NA,NA,NA,NA,NA,NA,NA,NA,NA,NA,NA,NA,NA,NA
