participant,session,completion,date,expName,psychopyVersion,OS,frameRate,rating_all.response,rating_all.rt,rating_all.tStart,rndRat1.thisRepN,rndRat1.thisTrialN,rndRat1.thisN,rndRat1.thisIndex,rndRat1.ran,Emo,Labs,Labs2,rating_alt.response,rating_alt.rt,AltC.thisRepN,AltC.thisTrialN,AltC.thisN,AltC.thisIndex,AltC.ran,alt_choices,pic_choices,BottomAlt_Choice,rndRat2.thisRepN,rndRat2.thisTrialN,rndRat2.thisN,rndRat2.thisIndex,rndRat2.ran,rndRat3.thisRepN,rndRat3.thisTrialN,rndRat3.thisN,rndRat3.thisIndex,rndRat3.ran,trials_FC_L.thisRepN,trials_FC_L.thisTrialN,trials_FC_L.thisN,trials_FC_L.thisIndex,trials_FC_L.ran,rating_alt_2.response,rating_alt_2.rt,AltC2.thisRepN,AltC2.thisTrialN,AltC2.thisN,AltC2.thisIndex,AltC2.ran,TopAlt_Choice,rndRat4.thisRepN,rndRat4.thisTrialN,rndRat4.thisN,rndRat4.thisIndex,rndRat4.ran,rndRat5.thisRepN,rndRat5.thisTrialN,rndRat5.thisN,rndRat5.thisIndex,rndRat5.ran,trials_FC_H.thisRepN,trials_FC_H.thisTrialN,trials_FC_H.thisN,trials_FC_H.thisIndex,trials_FC_H.ran
SUPAMT92039,3H8DHMCCWFAAVH2HY2UROQR82JDDKE,FE0F6AFD-F9A9-4527-B403-93CAE1B85938,2023-09-28_12h45.23.223,WP_VExplicitOC_LH,2022.2.5,Win32,16.07536129,NA,NA,NA,NA,NA,NA,NA,NA,NA,NA,NA,NA,NA,NA,NA,NA,NA,NA,NA,NA,NA,NA,NA,NA,NA,NA,NA,NA,NA,NA,NA,NA,NA,NA,NA,NA,NA,NA,NA,NA,NA,NA,NA,NA,NA,NA,NA,NA,NA,NA,NA,NA,NA,NA,NA,NA,NA,NA,NA
SUPAMT92039,3H8DHMCCWFAAVH2HY2UROQR82JDDKE,FE0F6AFD-F9A9-4527-B403-93CAE1B85938,2023-09-28_12h45.23.223,WP_VExplicitOC_LH,2022.2.5,Win32,16.07536129,NA,NA,NA,NA,NA,NA,NA,NA,NA,NA,NA,NA,NA,NA,NA,NA,NA,NA,NA,NA,NA,NA,NA,NA,NA,NA,NA,NA,NA,NA,NA,NA,NA,NA,NA,NA,NA,NA,NA,NA,NA,NA,NA,NA,NA,NA,NA,NA,NA,NA,NA,NA,NA,NA,NA,NA,NA,NA,NA
SUPAMT92039,3H8DHMCCWFAAVH2HY2UROQR82JDDKE,FE0F6AFD-F9A9-4527-B403-93CAE1B85938,2023-09-28_12h45.23.223,WP_VExplicitOC_LH,2022.2.5,Win32,16.07536129,NA,NA,NA,NA,NA,NA,NA,NA,NA,NA,NA,NA,NA,NA,NA,NA,NA,NA,NA,NA,NA,NA,NA,NA,NA,NA,NA,NA,NA,NA,NA,NA,NA,NA,NA,NA,NA,NA,NA,NA,NA,NA,NA,NA,NA,NA,NA,NA,NA,NA,NA,NA,NA,NA,NA,NA,NA,NA,NA
SUPAMT92039,3H8DHMCCWFAAVH2HY2UROQR82JDDKE,FE0F6AFD-F9A9-4527-B403-93CAE1B85938,2023-09-28_12h45.23.223,WP_VExplicitOC_LH,2022.2.5,Win32,16.07536129,50.08130081,5.6917,2.0207,0,0,0,0,1,happy,"unhappy, happy","less happy, more happy",NA,NA,NA,NA,NA,NA,NA,NA,NA,NA,NA,NA,NA,NA,NA,NA,NA,NA,NA,NA,NA,NA,NA,NA,NA,NA,NA,NA,NA,NA,NA,NA,NA,NA,NA,NA,NA,NA,NA,NA,NA,NA,NA,NA,NA,NA,NA,NA
SUPAMT92039,3H8DHMCCWFAAVH2HY2UROQR82JDDKE,FE0F6AFD-F9A9-4527-B403-93CAE1B85938,2023-09-28_12h45.23.223,WP_VExplicitOC_LH,2022.2.5,Win32,16.07536129,-18.86178862,4.3982,2.0375,0,1,1,2,1,bored,"bored, not bored","more bored, less bored",NA,NA,NA,NA,NA,NA,NA,NA,NA,NA,NA,NA,NA,NA,NA,NA,NA,NA,NA,NA,NA,NA,NA,NA,NA,NA,NA,NA,NA,NA,NA,NA,NA,NA,NA,NA,NA,NA,NA,NA,NA,NA,NA,NA,NA,NA,NA,NA
SUPAMT92039,3H8DHMCCWFAAVH2HY2UROQR82JDDKE,FE0F6AFD-F9A9-4527-B403-93CAE1B85938,2023-09-28_12h45.23.223,WP_VExplicitOC_LH,2022.2.5,Win32,16.07536129,32.91057308,4.6355,2.0323,0,2,2,1,1,frustrated,"frustrated, not frustrated","more frustrated, less frustrated",NA,NA,NA,NA,NA,NA,NA,NA,NA,NA,NA,NA,NA,NA,NA,NA,NA,NA,NA,NA,NA,NA,NA,NA,NA,NA,NA,NA,NA,NA,NA,NA,NA,NA,NA,NA,NA,NA,NA,NA,NA,NA,NA,NA,NA,NA,NA,NA
SUPAMT92039,3H8DHMCCWFAAVH2HY2UROQR82JDDKE,FE0F6AFD-F9A9-4527-B403-93CAE1B85938,2023-09-28_12h45.23.223,WP_VExplicitOC_LH,2022.2.5,Win32,16.07536129,NA,NA,NA,NA,NA,NA,NA,NA,NA,NA,NA,NA,NA,NA,NA,NA,NA,NA,NA,NA,NA,NA,NA,NA,NA,NA,NA,NA,NA,NA,NA,NA,NA,NA,NA,NA,NA,NA,NA,NA,NA,NA,NA,NA,NA,NA,NA,NA,NA,NA,NA,NA,NA,NA,NA,NA,NA,NA,NA
SUPAMT92039,3H8DHMCCWFAAVH2HY2UROQR82JDDKE,FE0F6AFD-F9A9-4527-B403-93CAE1B85938,2023-09-28_12h45.23.223,WP_VExplicitOC_LH,2022.2.5,Win32,16.07536129,NA,NA,NA,NA,NA,NA,NA,NA,NA,NA,NA,NA,NA,NA,NA,NA,NA,NA,NA,NA,NA,NA,NA,NA,NA,NA,NA,NA,NA,NA,NA,NA,NA,NA,NA,NA,NA,NA,NA,NA,NA,NA,NA,NA,NA,NA,NA,NA,NA,NA,NA,NA,NA,NA,NA,NA,NA,NA,NA
SUPAMT92039,3H8DHMCCWFAAVH2HY2UROQR82JDDKE,FE0F6AFD-F9A9-4527-B403-93CAE1B85938,2023-09-28_12h45.23.223,WP_VExplicitOC_LH,2022.2.5,Win32,16.07536129,NA,NA,NA,NA,NA,NA,NA,NA,NA,NA,NA,NA,NA,NA,NA,NA,NA,NA,NA,NA,NA,NA,NA,NA,NA,NA,NA,NA,NA,NA,NA,NA,NA,NA,NA,NA,NA,NA,NA,NA,NA,NA,NA,NA,NA,NA,NA,NA,NA,NA,NA,NA,NA,NA,NA,NA,NA,NA,NA
SUPAMT92039,3H8DHMCCWFAAVH2HY2UROQR82JDDKE,FE0F6AFD-F9A9-4527-B403-93CAE1B85938,2023-09-28_12h45.23.223,WP_VExplicitOC_LH,2022.2.5,Win32,16.07536129,NA,NA,NA,NA,NA,NA,NA,NA,NA,NA,NA,NA,NA,NA,NA,NA,NA,NA,NA,NA,NA,NA,NA,NA,NA,NA,NA,NA,NA,NA,NA,NA,NA,NA,NA,NA,NA,NA,NA,NA,NA,NA,NA,NA,NA,NA,NA,NA,NA,NA,NA,NA,NA,NA,NA,NA,NA,NA,NA
SUPAMT92039,3H8DHMCCWFAAVH2HY2UROQR82JDDKE,FE0F6AFD-F9A9-4527-B403-93CAE1B85938,2023-09-28_12h45.23.223,WP_VExplicitOC_LH,2022.2.5,Win32,16.07536129,NA,NA,NA,NA,NA,NA,NA,NA,NA,NA,NA,NA,NA,0,0,0,0,1,rest (looking at a fixed cross),001.png,NA,NA,NA,NA,NA,NA,NA,NA,NA,NA,NA,NA,NA,NA,NA,NA,NA,NA,NA,NA,NA,NA,NA,NA,NA,NA,NA,NA,NA,NA,NA,NA,NA,NA,NA,NA,NA,NA,NA
SUPAMT92039,3H8DHMCCWFAAVH2HY2UROQR82JDDKE,FE0F6AFD-F9A9-4527-B403-93CAE1B85938,2023-09-28_12h45.23.223,WP_VExplicitOC_LH,2022.2.5,Win32,16.07536129,NA,NA,NA,NA,NA,NA,NA,NA,NA,NA,NA,37.85366648,5.7909,0,1,1,1,1,stand up,002.png,NA,NA,NA,NA,NA,NA,NA,NA,NA,NA,NA,NA,NA,NA,NA,NA,NA,NA,NA,NA,NA,NA,NA,NA,NA,NA,NA,NA,NA,NA,NA,NA,NA,NA,NA,NA,NA,NA,NA
SUPAMT92039,3H8DHMCCWFAAVH2HY2UROQR82JDDKE,FE0F6AFD-F9A9-4527-B403-93CAE1B85938,2023-09-28_12h45.23.223,WP_VExplicitOC_LH,2022.2.5,Win32,16.07536129,NA,NA,NA,NA,NA,NA,NA,NA,NA,NA,NA,2.991873888,2.0392,0,2,2,2,1,stretch,003.png,NA,NA,NA,NA,NA,NA,NA,NA,NA,NA,NA,NA,NA,NA,NA,NA,NA,NA,NA,NA,NA,NA,NA,NA,NA,NA,NA,NA,NA,NA,NA,NA,NA,NA,NA,NA,NA,NA,NA
SUPAMT92039,3H8DHMCCWFAAVH2HY2UROQR82JDDKE,FE0F6AFD-F9A9-4527-B403-93CAE1B85938,2023-09-28_12h45.23.223,WP_VExplicitOC_LH,2022.2.5,Win32,16.07536129,NA,NA,NA,NA,NA,NA,NA,NA,NA,NA,NA,79.2195241,4.3705,0,3,3,3,1,make a drink,004.png,NA,NA,NA,NA,NA,NA,NA,NA,NA,NA,NA,NA,NA,NA,NA,NA,NA,NA,NA,NA,NA,NA,NA,NA,NA,NA,NA,NA,NA,NA,NA,NA,NA,NA,NA,NA,NA,NA,NA
SUPAMT92039,3H8DHMCCWFAAVH2HY2UROQR82JDDKE,FE0F6AFD-F9A9-4527-B403-93CAE1B85938,2023-09-28_12h45.23.223,WP_VExplicitOC_LH,2022.2.5,Win32,16.07536129,NA,NA,NA,NA,NA,NA,NA,NA,NA,NA,NA,45.13820741,5.2045,0,4,4,4,1,scroll social media,005.png,NA,NA,NA,NA,NA,NA,NA,NA,NA,NA,NA,NA,NA,NA,NA,NA,NA,NA,NA,NA,NA,NA,NA,NA,NA,NA,NA,NA,NA,NA,NA,NA,NA,NA,NA,NA,NA,NA,NA
SUPAMT92039,3H8DHMCCWFAAVH2HY2UROQR82JDDKE,FE0F6AFD-F9A9-4527-B403-93CAE1B85938,2023-09-28_12h45.23.223,WP_VExplicitOC_LH,2022.2.5,Win32,16.07536129,NA,NA,NA,NA,NA,NA,NA,NA,NA,NA,NA,92.22765419,3.4716,0,5,5,5,1,listen to music,006.png,NA,NA,NA,NA,NA,NA,NA,NA,NA,NA,NA,NA,NA,NA,NA,NA,NA,NA,NA,NA,NA,NA,NA,NA,NA,NA,NA,NA,NA,NA,NA,NA,NA,NA,NA,NA,NA,NA,NA
SUPAMT92039,3H8DHMCCWFAAVH2HY2UROQR82JDDKE,FE0F6AFD-F9A9-4527-B403-93CAE1B85938,2023-09-28_12h45.23.223,WP_VExplicitOC_LH,2022.2.5,Win32,16.07536129,NA,NA,NA,NA,NA,NA,NA,NA,NA,NA,NA,23.28455483,3.8983,0,6,6,6,1,daydream,007.png,NA,NA,NA,NA,NA,NA,NA,NA,NA,NA,NA,NA,NA,NA,NA,NA,NA,NA,NA,NA,NA,NA,NA,NA,NA,NA,NA,NA,NA,NA,NA,NA,NA,NA,NA,NA,NA,NA,NA
SUPAMT92039,3H8DHMCCWFAAVH2HY2UROQR82JDDKE,FE0F6AFD-F9A9-4527-B403-93CAE1B85938,2023-09-28_12h45.23.223,WP_VExplicitOC_LH,2022.2.5,Win32,16.07536129,NA,NA,NA,NA,NA,NA,NA,NA,NA,NA,NA,NA,NA,0,7,7,7,1,watch a short animation,008.png,NA,NA,NA,NA,NA,NA,NA,NA,NA,NA,NA,NA,NA,NA,NA,NA,NA,NA,NA,NA,NA,NA,NA,NA,NA,NA,NA,NA,NA,NA,NA,NA,NA,NA,NA,NA,NA,NA,NA
SUPAMT92039,3H8DHMCCWFAAVH2HY2UROQR82JDDKE,FE0F6AFD-F9A9-4527-B403-93CAE1B85938,2023-09-28_12h45.23.223,WP_VExplicitOC_LH,2022.2.5,Win32,16.07536129,NA,NA,NA,NA,NA,NA,NA,NA,NA,NA,NA,29.52846124,3.9287,0,8,8,8,1,read a novel,009.png,NA,NA,NA,NA,NA,NA,NA,NA,NA,NA,NA,NA,NA,NA,NA,NA,NA,NA,NA,NA,NA,NA,NA,NA,NA,NA,NA,NA,NA,NA,NA,NA,NA,NA,NA,NA,NA,NA,NA
SUPAMT92039,3H8DHMCCWFAAVH2HY2UROQR82JDDKE,FE0F6AFD-F9A9-4527-B403-93CAE1B85938,2023-09-28_12h45.23.223,WP_VExplicitOC_LH,2022.2.5,Win32,16.07536129,NA,NA,NA,NA,NA,NA,NA,NA,NA,NA,NA,71.67480469,2.7179,0,9,9,9,1,read the news,010.png,NA,NA,NA,NA,NA,NA,NA,NA,NA,NA,NA,NA,NA,NA,NA,NA,NA,NA,NA,NA,NA,NA,NA,NA,NA,NA,NA,NA,NA,NA,NA,NA,NA,NA,NA,NA,NA,NA,NA
SUPAMT92039,3H8DHMCCWFAAVH2HY2UROQR82JDDKE,FE0F6AFD-F9A9-4527-B403-93CAE1B85938,2023-09-28_12h45.23.223,WP_VExplicitOC_LH,2022.2.5,Win32,16.07536129,NA,NA,NA,NA,NA,NA,NA,NA,NA,NA,NA,NA,NA,NA,NA,NA,NA,NA,NA,NA,NA,NA,NA,NA,NA,NA,NA,NA,NA,NA,NA,NA,NA,NA,NA,NA,NA,NA,NA,NA,NA,NA,NA,NA,NA,NA,NA,NA,NA,NA,NA,NA,NA,NA,NA,NA,NA,NA,NA
SUPAMT92039,3H8DHMCCWFAAVH2HY2UROQR82JDDKE,FE0F6AFD-F9A9-4527-B403-93CAE1B85938,2023-09-28_12h45.23.223,WP_VExplicitOC_LH,2022.2.5,Win32,16.07536129,NA,NA,NA,NA,NA,NA,NA,NA,NA,NA,NA,NA,NA,NA,NA,NA,NA,NA,NA,NA,stand up,NA,NA,NA,NA,NA,NA,NA,NA,NA,NA,NA,NA,NA,NA,NA,NA,NA,NA,NA,NA,NA,NA,NA,NA,NA,NA,NA,NA,NA,NA,NA,NA,NA,NA,NA,NA,NA,NA
SUPAMT92039,3H8DHMCCWFAAVH2HY2UROQR82JDDKE,FE0F6AFD-F9A9-4527-B403-93CAE1B85938,2023-09-28_12h45.23.223,WP_VExplicitOC_LH,2022.2.5,Win32,16.07536129,63.34958953,5.9129,2.0274,NA,NA,NA,NA,NA,happy,"unhappy, happy","less happy, more happy",NA,NA,NA,NA,NA,NA,NA,NA,NA,NA,0,0,0,0,1,NA,NA,NA,NA,NA,NA,NA,NA,NA,NA,NA,NA,NA,NA,NA,NA,NA,NA,NA,NA,NA,NA,NA,NA,NA,NA,NA,NA,NA,NA,NA,NA,NA
SUPAMT92039,3H8DHMCCWFAAVH2HY2UROQR82JDDKE,FE0F6AFD-F9A9-4527-B403-93CAE1B85938,2023-09-28_12h45.23.223,WP_VExplicitOC_LH,2022.2.5,Win32,16.07536129,65.69105691,4.8774,2.0248,NA,NA,NA,NA,NA,bored,"bored, not bored","more bored, less bored",NA,NA,NA,NA,NA,NA,NA,NA,NA,NA,0,1,1,2,1,NA,NA,NA,NA,NA,NA,NA,NA,NA,NA,NA,NA,NA,NA,NA,NA,NA,NA,NA,NA,NA,NA,NA,NA,NA,NA,NA,NA,NA,NA,NA,NA,NA
SUPAMT92039,3H8DHMCCWFAAVH2HY2UROQR82JDDKE,FE0F6AFD-F9A9-4527-B403-93CAE1B85938,2023-09-28_12h45.23.223,WP_VExplicitOC_LH,2022.2.5,Win32,16.07536129,-32.65040452,5.2017,2.0023,NA,NA,NA,NA,NA,frustrated,"frustrated, not frustrated","more frustrated, less frustrated",NA,NA,NA,NA,NA,NA,NA,NA,NA,NA,0,2,2,1,1,NA,NA,NA,NA,NA,NA,NA,NA,NA,NA,NA,NA,NA,NA,NA,NA,NA,NA,NA,NA,NA,NA,NA,NA,NA,NA,NA,NA,NA,NA,NA,NA,NA
SUPAMT92039,3H8DHMCCWFAAVH2HY2UROQR82JDDKE,FE0F6AFD-F9A9-4527-B403-93CAE1B85938,2023-09-28_12h45.23.223,WP_VExplicitOC_LH,2022.2.5,Win32,16.07536129,NA,NA,NA,NA,NA,NA,NA,NA,NA,NA,NA,NA,NA,NA,NA,NA,NA,NA,NA,NA,NA,NA,NA,NA,NA,NA,NA,NA,NA,NA,NA,NA,NA,NA,NA,NA,NA,NA,NA,NA,NA,NA,NA,NA,NA,NA,NA,NA,NA,NA,NA,NA,NA,NA,NA,NA,NA,NA,NA
SUPAMT92039,3H8DHMCCWFAAVH2HY2UROQR82JDDKE,FE0F6AFD-F9A9-4527-B403-93CAE1B85938,2023-09-28_12h45.23.223,WP_VExplicitOC_LH,2022.2.5,Win32,16.07536129,NA,NA,NA,NA,NA,NA,NA,NA,NA,NA,NA,NA,NA,NA,NA,NA,NA,NA,NA,NA,NA,NA,NA,NA,NA,NA,NA,NA,NA,NA,NA,NA,NA,NA,NA,NA,NA,NA,NA,NA,NA,NA,NA,NA,NA,NA,NA,NA,NA,NA,NA,NA,NA,NA,NA,NA,NA,NA,NA
SUPAMT92039,3H8DHMCCWFAAVH2HY2UROQR82JDDKE,FE0F6AFD-F9A9-4527-B403-93CAE1B85938,2023-09-28_12h45.23.223,WP_VExplicitOC_LH,2022.2.5,Win32,16.07536129,52.4227682,4.2857,2.0405,NA,NA,NA,NA,NA,frustrated,"frustrated, not frustrated","more frustrated, less frustrated",NA,NA,NA,NA,NA,NA,NA,NA,NA,NA,NA,NA,NA,NA,NA,0,0,0,1,1,NA,NA,NA,NA,NA,NA,NA,NA,NA,NA,NA,NA,NA,NA,NA,NA,NA,NA,NA,NA,NA,NA,NA,NA,NA,NA,NA,NA
SUPAMT92039,3H8DHMCCWFAAVH2HY2UROQR82JDDKE,FE0F6AFD-F9A9-4527-B403-93CAE1B85938,2023-09-28_12h45.23.223,WP_VExplicitOC_LH,2022.2.5,Win32,16.07536129,55.28455285,4.2199,2.0177,NA,NA,NA,NA,NA,happy,"unhappy, happy","less happy, more happy",NA,NA,NA,NA,NA,NA,NA,NA,NA,NA,NA,NA,NA,NA,NA,0,1,1,0,1,NA,NA,NA,NA,NA,NA,NA,NA,NA,NA,NA,NA,NA,NA,NA,NA,NA,NA,NA,NA,NA,NA,NA,NA,NA,NA,NA,NA
SUPAMT92039,3H8DHMCCWFAAVH2HY2UROQR82JDDKE,FE0F6AFD-F9A9-4527-B403-93CAE1B85938,2023-09-28_12h45.23.223,WP_VExplicitOC_LH,2022.2.5,Win32,16.07536129,52.4227682,4.2578,2.0287,NA,NA,NA,NA,NA,bored,"bored, not bored","more bored, less bored",NA,NA,NA,NA,NA,NA,NA,NA,NA,NA,NA,NA,NA,NA,NA,0,2,2,2,1,NA,NA,NA,NA,NA,NA,NA,NA,NA,NA,NA,NA,NA,NA,NA,NA,NA,NA,NA,NA,NA,NA,NA,NA,NA,NA,NA,NA
SUPAMT92039,3H8DHMCCWFAAVH2HY2UROQR82JDDKE,FE0F6AFD-F9A9-4527-B403-93CAE1B85938,2023-09-28_12h45.23.223,WP_VExplicitOC_LH,2022.2.5,Win32,16.07536129,NA,NA,NA,NA,NA,NA,NA,NA,NA,NA,NA,NA,NA,NA,NA,NA,NA,NA,NA,NA,NA,NA,NA,NA,NA,NA,NA,NA,NA,NA,NA,0,0,0,0,1,NA,NA,NA,NA,NA,NA,NA,NA,NA,NA,NA,NA,NA,NA,NA,NA,NA,NA,NA,NA,NA,NA,NA
SUPAMT92039,3H8DHMCCWFAAVH2HY2UROQR82JDDKE,FE0F6AFD-F9A9-4527-B403-93CAE1B85938,2023-09-28_12h45.23.223,WP_VExplicitOC_LH,2022.2.5,Win32,16.07536129,-27.44715249,4.1619,2.0005,NA,NA,NA,NA,NA,bored,"bored, not bored","more bored, less bored",NA,NA,NA,NA,NA,NA,NA,NA,NA,NA,NA,NA,NA,NA,NA,0,0,0,2,1,NA,NA,NA,NA,NA,NA,NA,NA,NA,NA,NA,NA,NA,NA,NA,NA,NA,NA,NA,NA,NA,NA,NA,NA,NA,NA,NA,NA
SUPAMT92039,3H8DHMCCWFAAVH2HY2UROQR82JDDKE,FE0F6AFD-F9A9-4527-B403-93CAE1B85938,2023-09-28_12h45.23.223,WP_VExplicitOC_LH,2022.2.5,Win32,16.07536129,49.30082492,4.3696,2.0406,NA,NA,NA,NA,NA,happy,"unhappy, happy","less happy, more happy",NA,NA,NA,NA,NA,NA,NA,NA,NA,NA,NA,NA,NA,NA,NA,0,1,1,0,1,NA,NA,NA,NA,NA,NA,NA,NA,NA,NA,NA,NA,NA,NA,NA,NA,NA,NA,NA,NA,NA,NA,NA,NA,NA,NA,NA,NA
SUPAMT92039,3H8DHMCCWFAAVH2HY2UROQR82JDDKE,FE0F6AFD-F9A9-4527-B403-93CAE1B85938,2023-09-28_12h45.23.223,WP_VExplicitOC_LH,2022.2.5,Win32,16.07536129,-53.20324906,4.9634,2.0354,NA,NA,NA,NA,NA,frustrated,"frustrated, not frustrated","more frustrated, less frustrated",NA,NA,NA,NA,NA,NA,NA,NA,NA,NA,NA,NA,NA,NA,NA,0,2,2,1,1,NA,NA,NA,NA,NA,NA,NA,NA,NA,NA,NA,NA,NA,NA,NA,NA,NA,NA,NA,NA,NA,NA,NA,NA,NA,NA,NA,NA
SUPAMT92039,3H8DHMCCWFAAVH2HY2UROQR82JDDKE,FE0F6AFD-F9A9-4527-B403-93CAE1B85938,2023-09-28_12h45.23.223,WP_VExplicitOC_LH,2022.2.5,Win32,16.07536129,NA,NA,NA,NA,NA,NA,NA,NA,NA,NA,NA,NA,NA,NA,NA,NA,NA,NA,NA,NA,NA,NA,NA,NA,NA,NA,NA,NA,NA,NA,NA,1,0,1,0,1,NA,NA,NA,NA,NA,NA,NA,NA,NA,NA,NA,NA,NA,NA,NA,NA,NA,NA,NA,NA,NA,NA,NA
SUPAMT92039,3H8DHMCCWFAAVH2HY2UROQR82JDDKE,FE0F6AFD-F9A9-4527-B403-93CAE1B85938,2023-09-28_12h45.23.223,WP_VExplicitOC_LH,2022.2.5,Win32,16.07536129,-36.03251636,4.4842,2.0089,NA,NA,NA,NA,NA,bored,"bored, not bored","more bored, less bored",NA,NA,NA,NA,NA,NA,NA,NA,NA,NA,NA,NA,NA,NA,NA,0,0,0,2,1,NA,NA,NA,NA,NA,NA,NA,NA,NA,NA,NA,NA,NA,NA,NA,NA,NA,NA,NA,NA,NA,NA,NA,NA,NA,NA,NA,NA
SUPAMT92039,3H8DHMCCWFAAVH2HY2UROQR82JDDKE,FE0F6AFD-F9A9-4527-B403-93CAE1B85938,2023-09-28_12h45.23.223,WP_VExplicitOC_LH,2022.2.5,Win32,16.07536129,NA,NA,2.0178,NA,NA,NA,NA,NA,happy,"unhappy, happy","less happy, more happy",NA,NA,NA,NA,NA,NA,NA,NA,NA,NA,NA,NA,NA,NA,NA,0,1,1,0,1,NA,NA,NA,NA,NA,NA,NA,NA,NA,NA,NA,NA,NA,NA,NA,NA,NA,NA,NA,NA,NA,NA,NA,NA,NA,NA,NA,NA
SUPAMT92039,3H8DHMCCWFAAVH2HY2UROQR82JDDKE,FE0F6AFD-F9A9-4527-B403-93CAE1B85938,2023-09-28_12h45.23.223,WP_VExplicitOC_LH,2022.2.5,Win32,16.07536129,NA,NA,2.0491,NA,NA,NA,NA,NA,frustrated,"frustrated, not frustrated","more frustrated, less frustrated",NA,NA,NA,NA,NA,NA,NA,NA,NA,NA,NA,NA,NA,NA,NA,0,2,2,1,1,NA,NA,NA,NA,NA,NA,NA,NA,NA,NA,NA,NA,NA,NA,NA,NA,NA,NA,NA,NA,NA,NA,NA,NA,NA,NA,NA,NA
SUPAMT92039,3H8DHMCCWFAAVH2HY2UROQR82JDDKE,FE0F6AFD-F9A9-4527-B403-93CAE1B85938,2023-09-28_12h45.23.223,WP_VExplicitOC_LH,2022.2.5,Win32,16.07536129,NA,NA,NA,NA,NA,NA,NA,NA,NA,NA,NA,NA,NA,NA,NA,NA,NA,NA,NA,NA,NA,NA,NA,NA,NA,NA,NA,NA,NA,NA,NA,2,0,2,0,1,NA,NA,NA,NA,NA,NA,NA,NA,NA,NA,NA,NA,NA,NA,NA,NA,NA,NA,NA,NA,NA,NA,NA
SUPAMT92039,3H8DHMCCWFAAVH2HY2UROQR82JDDKE,FE0F6AFD-F9A9-4527-B403-93CAE1B85938,2023-09-28_12h45.23.223,WP_VExplicitOC_LH,2022.2.5,Win32,16.07536129,30.82927425,3.7508,2.0272,NA,NA,NA,NA,NA,happy,"unhappy, happy","less happy, more happy",NA,NA,NA,NA,NA,NA,NA,NA,NA,NA,NA,NA,NA,NA,NA,0,0,0,0,1,NA,NA,NA,NA,NA,NA,NA,NA,NA,NA,NA,NA,NA,NA,NA,NA,NA,NA,NA,NA,NA,NA,NA,NA,NA,NA,NA,NA
SUPAMT92039,3H8DHMCCWFAAVH2HY2UROQR82JDDKE,FE0F6AFD-F9A9-4527-B403-93CAE1B85938,2023-09-28_12h45.23.223,WP_VExplicitOC_LH,2022.2.5,Win32,16.07536129,-56.06503867,4.5138,2.0242,NA,NA,NA,NA,NA,frustrated,"frustrated, not frustrated","more frustrated, less frustrated",NA,NA,NA,NA,NA,NA,NA,NA,NA,NA,NA,NA,NA,NA,NA,0,1,1,1,1,NA,NA,NA,NA,NA,NA,NA,NA,NA,NA,NA,NA,NA,NA,NA,NA,NA,NA,NA,NA,NA,NA,NA,NA,NA,NA,NA,NA
SUPAMT92039,3H8DHMCCWFAAVH2HY2UROQR82JDDKE,FE0F6AFD-F9A9-4527-B403-93CAE1B85938,2023-09-28_12h45.23.223,WP_VExplicitOC_LH,2022.2.5,Win32,16.07536129,43.8373944,5.6593,2.0019,NA,NA,NA,NA,NA,bored,"bored, not bored","more bored, less bored",NA,NA,NA,NA,NA,NA,NA,NA,NA,NA,NA,NA,NA,NA,NA,0,2,2,2,1,NA,NA,NA,NA,NA,NA,NA,NA,NA,NA,NA,NA,NA,NA,NA,NA,NA,NA,NA,NA,NA,NA,NA,NA,NA,NA,NA,NA
SUPAMT92039,3H8DHMCCWFAAVH2HY2UROQR82JDDKE,FE0F6AFD-F9A9-4527-B403-93CAE1B85938,2023-09-28_12h45.23.223,WP_VExplicitOC_LH,2022.2.5,Win32,16.07536129,NA,NA,NA,NA,NA,NA,NA,NA,NA,NA,NA,NA,NA,NA,NA,NA,NA,NA,NA,NA,NA,NA,NA,NA,NA,NA,NA,NA,NA,NA,NA,3,0,3,0,1,NA,NA,NA,NA,NA,NA,NA,NA,NA,NA,NA,NA,NA,NA,NA,NA,NA,NA,NA,NA,NA,NA,NA
SUPAMT92039,3H8DHMCCWFAAVH2HY2UROQR82JDDKE,FE0F6AFD-F9A9-4527-B403-93CAE1B85938,2023-09-28_12h45.23.223,WP_VExplicitOC_LH,2022.2.5,Win32,16.07536129,26.40650803,4.8836,2.0173,NA,NA,NA,NA,NA,frustrated,"frustrated, not frustrated","more frustrated, less frustrated",NA,NA,NA,NA,NA,NA,NA,NA,NA,NA,NA,NA,NA,NA,NA,0,0,0,1,1,NA,NA,NA,NA,NA,NA,NA,NA,NA,NA,NA,NA,NA,NA,NA,NA,NA,NA,NA,NA,NA,NA,NA,NA,NA,NA,NA,NA
SUPAMT92039,3H8DHMCCWFAAVH2HY2UROQR82JDDKE,FE0F6AFD-F9A9-4527-B403-93CAE1B85938,2023-09-28_12h45.23.223,WP_VExplicitOC_LH,2022.2.5,Win32,16.07536129,56.58536585,4.0471,2.018,NA,NA,NA,NA,NA,happy,"unhappy, happy","less happy, more happy",NA,NA,NA,NA,NA,NA,NA,NA,NA,NA,NA,NA,NA,NA,NA,0,1,1,0,1,NA,NA,NA,NA,NA,NA,NA,NA,NA,NA,NA,NA,NA,NA,NA,NA,NA,NA,NA,NA,NA,NA,NA,NA,NA,NA,NA,NA
SUPAMT92039,3H8DHMCCWFAAVH2HY2UROQR82JDDKE,FE0F6AFD-F9A9-4527-B403-93CAE1B85938,2023-09-28_12h45.23.223,WP_VExplicitOC_LH,2022.2.5,Win32,16.07536129,-18.0813028,3.7543,2.0111,NA,NA,NA,NA,NA,bored,"bored, not bored","more bored, less bored",NA,NA,NA,NA,NA,NA,NA,NA,NA,NA,NA,NA,NA,NA,NA,0,2,2,2,1,NA,NA,NA,NA,NA,NA,NA,NA,NA,NA,NA,NA,NA,NA,NA,NA,NA,NA,NA,NA,NA,NA,NA,NA,NA,NA,NA,NA
SUPAMT92039,3H8DHMCCWFAAVH2HY2UROQR82JDDKE,FE0F6AFD-F9A9-4527-B403-93CAE1B85938,2023-09-28_12h45.23.223,WP_VExplicitOC_LH,2022.2.5,Win32,16.07536129,NA,NA,NA,NA,NA,NA,NA,NA,NA,NA,NA,NA,NA,NA,NA,NA,NA,NA,NA,NA,NA,NA,NA,NA,NA,NA,NA,NA,NA,NA,NA,4,0,4,0,1,NA,NA,NA,NA,NA,NA,NA,NA,NA,NA,NA,NA,NA,NA,NA,NA,NA,NA,NA,NA,NA,NA,NA
SUPAMT92039,3H8DHMCCWFAAVH2HY2UROQR82JDDKE,FE0F6AFD-F9A9-4527-B403-93CAE1B85938,2023-09-28_12h45.23.223,WP_VExplicitOC_LH,2022.2.5,Win32,16.07536129,-81.5609766,4.2213,2.0412,NA,NA,NA,NA,NA,happy,"unhappy, happy","less happy, more happy",NA,NA,NA,NA,NA,NA,NA,NA,NA,NA,NA,NA,NA,NA,NA,0,0,0,0,1,NA,NA,NA,NA,NA,NA,NA,NA,NA,NA,NA,NA,NA,NA,NA,NA,NA,NA,NA,NA,NA,NA,NA,NA,NA,NA,NA,NA
SUPAMT92039,3H8DHMCCWFAAVH2HY2UROQR82JDDKE,FE0F6AFD-F9A9-4527-B403-93CAE1B85938,2023-09-28_12h45.23.223,WP_VExplicitOC_LH,2022.2.5,Win32,16.07536129,57.10570297,5.5982,2.0405,NA,NA,NA,NA,NA,bored,"bored, not bored","more bored, less bored",NA,NA,NA,NA,NA,NA,NA,NA,NA,NA,NA,NA,NA,NA,NA,0,1,1,2,1,NA,NA,NA,NA,NA,NA,NA,NA,NA,NA,NA,NA,NA,NA,NA,NA,NA,NA,NA,NA,NA,NA,NA,NA,NA,NA,NA,NA
SUPAMT92039,3H8DHMCCWFAAVH2HY2UROQR82JDDKE,FE0F6AFD-F9A9-4527-B403-93CAE1B85938,2023-09-28_12h45.23.223,WP_VExplicitOC_LH,2022.2.5,Win32,16.07536129,-24.32519928,4.3361,2.0056,NA,NA,NA,NA,NA,frustrated,"frustrated, not frustrated","more frustrated, less frustrated",NA,NA,NA,NA,NA,NA,NA,NA,NA,NA,NA,NA,NA,NA,NA,0,2,2,1,1,NA,NA,NA,NA,NA,NA,NA,NA,NA,NA,NA,NA,NA,NA,NA,NA,NA,NA,NA,NA,NA,NA,NA,NA,NA,NA,NA,NA
SUPAMT92039,3H8DHMCCWFAAVH2HY2UROQR82JDDKE,FE0F6AFD-F9A9-4527-B403-93CAE1B85938,2023-09-28_12h45.23.223,WP_VExplicitOC_LH,2022.2.5,Win32,16.07536129,NA,NA,NA,NA,NA,NA,NA,NA,NA,NA,NA,NA,NA,NA,NA,NA,NA,NA,NA,NA,NA,NA,NA,NA,NA,NA,NA,NA,NA,NA,NA,5,0,5,0,1,NA,NA,NA,NA,NA,NA,NA,NA,NA,NA,NA,NA,NA,NA,NA,NA,NA,NA,NA,NA,NA,NA,NA
SUPAMT92039,3H8DHMCCWFAAVH2HY2UROQR82JDDKE,FE0F6AFD-F9A9-4527-B403-93CAE1B85938,2023-09-28_12h45.23.223,WP_VExplicitOC_LH,2022.2.5,Win32,16.07536129,-26.40649811,6.0739,2.0214,NA,NA,NA,NA,NA,bored,"bored, not bored","more bored, less bored",NA,NA,NA,NA,NA,NA,NA,NA,NA,NA,NA,NA,NA,NA,NA,0,0,0,2,1,NA,NA,NA,NA,NA,NA,NA,NA,NA,NA,NA,NA,NA,NA,NA,NA,NA,NA,NA,NA,NA,NA,NA,NA,NA,NA,NA,NA
SUPAMT92039,3H8DHMCCWFAAVH2HY2UROQR82JDDKE,FE0F6AFD-F9A9-4527-B403-93CAE1B85938,2023-09-28_12h45.23.223,WP_VExplicitOC_LH,2022.2.5,Win32,16.07536129,56.58536585,5.7883,2.0369,NA,NA,NA,NA,NA,happy,"unhappy, happy","less happy, more happy",NA,NA,NA,NA,NA,NA,NA,NA,NA,NA,NA,NA,NA,NA,NA,0,1,1,0,1,NA,NA,NA,NA,NA,NA,NA,NA,NA,NA,NA,NA,NA,NA,NA,NA,NA,NA,NA,NA,NA,NA,NA,NA,NA,NA,NA,NA
SUPAMT92039,3H8DHMCCWFAAVH2HY2UROQR82JDDKE,FE0F6AFD-F9A9-4527-B403-93CAE1B85938,2023-09-28_12h45.23.223,WP_VExplicitOC_LH,2022.2.5,Win32,16.07536129,NA,NA,2.0473,NA,NA,NA,NA,NA,frustrated,"frustrated, not frustrated","more frustrated, less frustrated",NA,NA,NA,NA,NA,NA,NA,NA,NA,NA,NA,NA,NA,NA,NA,0,2,2,1,1,NA,NA,NA,NA,NA,NA,NA,NA,NA,NA,NA,NA,NA,NA,NA,NA,NA,NA,NA,NA,NA,NA,NA,NA,NA,NA,NA,NA
SUPAMT92039,3H8DHMCCWFAAVH2HY2UROQR82JDDKE,FE0F6AFD-F9A9-4527-B403-93CAE1B85938,2023-09-28_12h45.23.223,WP_VExplicitOC_LH,2022.2.5,Win32,16.07536129,NA,NA,NA,NA,NA,NA,NA,NA,NA,NA,NA,NA,NA,NA,NA,NA,NA,NA,NA,NA,NA,NA,NA,NA,NA,NA,NA,NA,NA,NA,NA,6,0,6,0,1,NA,NA,NA,NA,NA,NA,NA,NA,NA,NA,NA,NA,NA,NA,NA,NA,NA,NA,NA,NA,NA,NA,NA
SUPAMT92039,3H8DHMCCWFAAVH2HY2UROQR82JDDKE,FE0F6AFD-F9A9-4527-B403-93CAE1B85938,2023-09-28_12h45.23.223,WP_VExplicitOC_LH,2022.2.5,Win32,16.07536129,-37.85365655,4.8525,2.0059,NA,NA,NA,NA,NA,bored,"bored, not bored","more bored, less bored",NA,NA,NA,NA,NA,NA,NA,NA,NA,NA,NA,NA,NA,NA,NA,0,0,0,2,1,NA,NA,NA,NA,NA,NA,NA,NA,NA,NA,NA,NA,NA,NA,NA,NA,NA,NA,NA,NA,NA,NA,NA,NA,NA,NA,NA,NA
SUPAMT92039,3H8DHMCCWFAAVH2HY2UROQR82JDDKE,FE0F6AFD-F9A9-4527-B403-93CAE1B85938,2023-09-28_12h45.23.223,WP_VExplicitOC_LH,2022.2.5,Win32,16.07536129,-44.87804878,4.6234,2.0201,NA,NA,NA,NA,NA,frustrated,"frustrated, not frustrated","more frustrated, less frustrated",NA,NA,NA,NA,NA,NA,NA,NA,NA,NA,NA,NA,NA,NA,NA,0,1,1,1,1,NA,NA,NA,NA,NA,NA,NA,NA,NA,NA,NA,NA,NA,NA,NA,NA,NA,NA,NA,NA,NA,NA,NA,NA,NA,NA,NA,NA
SUPAMT92039,3H8DHMCCWFAAVH2HY2UROQR82JDDKE,FE0F6AFD-F9A9-4527-B403-93CAE1B85938,2023-09-28_12h45.23.223,WP_VExplicitOC_LH,2022.2.5,Win32,16.07536129,52.94308546,4.7518,2.0095,NA,NA,NA,NA,NA,happy,"unhappy, happy","less happy, more happy",NA,NA,NA,NA,NA,NA,NA,NA,NA,NA,NA,NA,NA,NA,NA,0,2,2,0,1,NA,NA,NA,NA,NA,NA,NA,NA,NA,NA,NA,NA,NA,NA,NA,NA,NA,NA,NA,NA,NA,NA,NA,NA,NA,NA,NA,NA
SUPAMT92039,3H8DHMCCWFAAVH2HY2UROQR82JDDKE,FE0F6AFD-F9A9-4527-B403-93CAE1B85938,2023-09-28_12h45.23.223,WP_VExplicitOC_LH,2022.2.5,Win32,16.07536129,NA,NA,NA,NA,NA,NA,NA,NA,NA,NA,NA,NA,NA,NA,NA,NA,NA,NA,NA,NA,NA,NA,NA,NA,NA,NA,NA,NA,NA,NA,NA,7,0,7,0,1,NA,NA,NA,NA,NA,NA,NA,NA,NA,NA,NA,NA,NA,NA,NA,NA,NA,NA,NA,NA,NA,NA,NA
SUPAMT92039,3H8DHMCCWFAAVH2HY2UROQR82JDDKE,FE0F6AFD-F9A9-4527-B403-93CAE1B85938,2023-09-28_12h45.23.223,WP_VExplicitOC_LH,2022.2.5,Win32,16.07536129,-34.9918719,6.1349,2.0011,NA,NA,NA,NA,NA,frustrated,"frustrated, not frustrated","more frustrated, less frustrated",NA,NA,NA,NA,NA,NA,NA,NA,NA,NA,NA,NA,NA,NA,NA,0,0,0,1,1,NA,NA,NA,NA,NA,NA,NA,NA,NA,NA,NA,NA,NA,NA,NA,NA,NA,NA,NA,NA,NA,NA,NA,NA,NA,NA,NA,NA
SUPAMT92039,3H8DHMCCWFAAVH2HY2UROQR82JDDKE,FE0F6AFD-F9A9-4527-B403-93CAE1B85938,2023-09-28_12h45.23.223,WP_VExplicitOC_LH,2022.2.5,Win32,16.07536129,56.06504859,5.4186,2.0145,NA,NA,NA,NA,NA,happy,"unhappy, happy","less happy, more happy",NA,NA,NA,NA,NA,NA,NA,NA,NA,NA,NA,NA,NA,NA,NA,0,1,1,0,1,NA,NA,NA,NA,NA,NA,NA,NA,NA,NA,NA,NA,NA,NA,NA,NA,NA,NA,NA,NA,NA,NA,NA,NA,NA,NA,NA,NA
SUPAMT92039,3H8DHMCCWFAAVH2HY2UROQR82JDDKE,FE0F6AFD-F9A9-4527-B403-93CAE1B85938,2023-09-28_12h45.23.223,WP_VExplicitOC_LH,2022.2.5,Win32,16.07536129,-52.94309042,4.6786,2.005,NA,NA,NA,NA,NA,bored,"bored, not bored","more bored, less bored",NA,NA,NA,NA,NA,NA,NA,NA,NA,NA,NA,NA,NA,NA,NA,0,2,2,2,1,NA,NA,NA,NA,NA,NA,NA,NA,NA,NA,NA,NA,NA,NA,NA,NA,NA,NA,NA,NA,NA,NA,NA,NA,NA,NA,NA,NA
SUPAMT92039,3H8DHMCCWFAAVH2HY2UROQR82JDDKE,FE0F6AFD-F9A9-4527-B403-93CAE1B85938,2023-09-28_12h45.23.223,WP_VExplicitOC_LH,2022.2.5,Win32,16.07536129,NA,NA,NA,NA,NA,NA,NA,NA,NA,NA,NA,NA,NA,NA,NA,NA,NA,NA,NA,NA,NA,NA,NA,NA,NA,NA,NA,NA,NA,NA,NA,8,0,8,0,1,NA,NA,NA,NA,NA,NA,NA,NA,NA,NA,NA,NA,NA,NA,NA,NA,NA,NA,NA,NA,NA,NA,NA
SUPAMT92039,3H8DHMCCWFAAVH2HY2UROQR82JDDKE,FE0F6AFD-F9A9-4527-B403-93CAE1B85938,2023-09-28_12h45.23.223,WP_VExplicitOC_LH,2022.2.5,Win32,16.07536129,-33.6910589,5.2659,2.0417,NA,NA,NA,NA,NA,frustrated,"frustrated, not frustrated","more frustrated, less frustrated",NA,NA,NA,NA,NA,NA,NA,NA,NA,NA,NA,NA,NA,NA,NA,0,0,0,1,1,NA,NA,NA,NA,NA,NA,NA,NA,NA,NA,NA,NA,NA,NA,NA,NA,NA,NA,NA,NA,NA,NA,NA,NA,NA,NA,NA,NA
SUPAMT92039,3H8DHMCCWFAAVH2HY2UROQR82JDDKE,FE0F6AFD-F9A9-4527-B403-93CAE1B85938,2023-09-28_12h45.23.223,WP_VExplicitOC_LH,2022.2.5,Win32,16.07536129,20.16260163,4.4137,2.0504,NA,NA,NA,NA,NA,bored,"bored, not bored","more bored, less bored",NA,NA,NA,NA,NA,NA,NA,NA,NA,NA,NA,NA,NA,NA,NA,0,1,1,2,1,NA,NA,NA,NA,NA,NA,NA,NA,NA,NA,NA,NA,NA,NA,NA,NA,NA,NA,NA,NA,NA,NA,NA,NA,NA,NA,NA,NA
SUPAMT92039,3H8DHMCCWFAAVH2HY2UROQR82JDDKE,FE0F6AFD-F9A9-4527-B403-93CAE1B85938,2023-09-28_12h45.23.223,WP_VExplicitOC_LH,2022.2.5,Win32,16.07536129,36.55285347,4.6341,2.0392,NA,NA,NA,NA,NA,happy,"unhappy, happy","less happy, more happy",NA,NA,NA,NA,NA,NA,NA,NA,NA,NA,NA,NA,NA,NA,NA,0,2,2,0,1,NA,NA,NA,NA,NA,NA,NA,NA,NA,NA,NA,NA,NA,NA,NA,NA,NA,NA,NA,NA,NA,NA,NA,NA,NA,NA,NA,NA
SUPAMT92039,3H8DHMCCWFAAVH2HY2UROQR82JDDKE,FE0F6AFD-F9A9-4527-B403-93CAE1B85938,2023-09-28_12h45.23.223,WP_VExplicitOC_LH,2022.2.5,Win32,16.07536129,NA,NA,NA,NA,NA,NA,NA,NA,NA,NA,NA,NA,NA,NA,NA,NA,NA,NA,NA,NA,NA,NA,NA,NA,NA,NA,NA,NA,NA,NA,NA,9,0,9,0,1,NA,NA,NA,NA,NA,NA,NA,NA,NA,NA,NA,NA,NA,NA,NA,NA,NA,NA,NA,NA,NA,NA,NA
SUPAMT92039,3H8DHMCCWFAAVH2HY2UROQR82JDDKE,FE0F6AFD-F9A9-4527-B403-93CAE1B85938,2023-09-28_12h45.23.223,WP_VExplicitOC_LH,2022.2.5,Win32,16.07536129,21.72358319,6.4934,2.0367,NA,NA,NA,NA,NA,bored,"bored, not bored","more bored, less bored",NA,NA,NA,NA,NA,NA,NA,NA,NA,NA,NA,NA,NA,NA,NA,0,0,0,2,1,NA,NA,NA,NA,NA,NA,NA,NA,NA,NA,NA,NA,NA,NA,NA,NA,NA,NA,NA,NA,NA,NA,NA,NA,NA,NA,NA,NA
SUPAMT92039,3H8DHMCCWFAAVH2HY2UROQR82JDDKE,FE0F6AFD-F9A9-4527-B403-93CAE1B85938,2023-09-28_12h45.23.223,WP_VExplicitOC_LH,2022.2.5,Win32,16.07536129,70.11383305,6.9047,2.0197,NA,NA,NA,NA,NA,happy,"unhappy, happy","less happy, more happy",NA,NA,NA,NA,NA,NA,NA,NA,NA,NA,NA,NA,NA,NA,NA,0,1,1,0,1,NA,NA,NA,NA,NA,NA,NA,NA,NA,NA,NA,NA,NA,NA,NA,NA,NA,NA,NA,NA,NA,NA,NA,NA,NA,NA,NA,NA
SUPAMT92039,3H8DHMCCWFAAVH2HY2UROQR82JDDKE,FE0F6AFD-F9A9-4527-B403-93CAE1B85938,2023-09-28_12h45.23.223,WP_VExplicitOC_LH,2022.2.5,Win32,16.07536129,35.77235772,3.7539,2.022,NA,NA,NA,NA,NA,frustrated,"frustrated, not frustrated","more frustrated, less frustrated",NA,NA,NA,NA,NA,NA,NA,NA,NA,NA,NA,NA,NA,NA,NA,0,2,2,1,1,NA,NA,NA,NA,NA,NA,NA,NA,NA,NA,NA,NA,NA,NA,NA,NA,NA,NA,NA,NA,NA,NA,NA,NA,NA,NA,NA,NA
SUPAMT92039,3H8DHMCCWFAAVH2HY2UROQR82JDDKE,FE0F6AFD-F9A9-4527-B403-93CAE1B85938,2023-09-28_12h45.23.223,WP_VExplicitOC_LH,2022.2.5,Win32,16.07536129,NA,NA,NA,NA,NA,NA,NA,NA,NA,NA,NA,NA,NA,NA,NA,NA,NA,NA,NA,NA,NA,NA,NA,NA,NA,NA,NA,NA,NA,NA,NA,10,0,10,0,1,NA,NA,NA,NA,NA,NA,NA,NA,NA,NA,NA,NA,NA,NA,NA,NA,NA,NA,NA,NA,NA,NA,NA
SUPAMT92039,3H8DHMCCWFAAVH2HY2UROQR82JDDKE,FE0F6AFD-F9A9-4527-B403-93CAE1B85938,2023-09-28_12h45.23.223,WP_VExplicitOC_LH,2022.2.5,Win32,16.07536129,NA,NA,2.0233,NA,NA,NA,NA,NA,bored,"bored, not bored","more bored, less bored",NA,NA,NA,NA,NA,NA,NA,NA,NA,NA,NA,NA,NA,NA,NA,0,0,0,2,1,NA,NA,NA,NA,NA,NA,NA,NA,NA,NA,NA,NA,NA,NA,NA,NA,NA,NA,NA,NA,NA,NA,NA,NA,NA,NA,NA,NA
SUPAMT92039,3H8DHMCCWFAAVH2HY2UROQR82JDDKE,FE0F6AFD-F9A9-4527-B403-93CAE1B85938,2023-09-28_12h45.23.223,WP_VExplicitOC_LH,2022.2.5,Win32,16.07536129,-56.84552945,4.2907,2.0197,NA,NA,NA,NA,NA,frustrated,"frustrated, not frustrated","more frustrated, less frustrated",NA,NA,NA,NA,NA,NA,NA,NA,NA,NA,NA,NA,NA,NA,NA,0,1,1,1,1,NA,NA,NA,NA,NA,NA,NA,NA,NA,NA,NA,NA,NA,NA,NA,NA,NA,NA,NA,NA,NA,NA,NA,NA,NA,NA,NA,NA
SUPAMT92039,3H8DHMCCWFAAVH2HY2UROQR82JDDKE,FE0F6AFD-F9A9-4527-B403-93CAE1B85938,2023-09-28_12h45.23.223,WP_VExplicitOC_LH,2022.2.5,Win32,16.07536129,51.12195519,5.422,2.0131,NA,NA,NA,NA,NA,happy,"unhappy, happy","less happy, more happy",NA,NA,NA,NA,NA,NA,NA,NA,NA,NA,NA,NA,NA,NA,NA,0,2,2,0,1,NA,NA,NA,NA,NA,NA,NA,NA,NA,NA,NA,NA,NA,NA,NA,NA,NA,NA,NA,NA,NA,NA,NA,NA,NA,NA,NA,NA
SUPAMT92039,3H8DHMCCWFAAVH2HY2UROQR82JDDKE,FE0F6AFD-F9A9-4527-B403-93CAE1B85938,2023-09-28_12h45.23.223,WP_VExplicitOC_LH,2022.2.5,Win32,16.07536129,NA,NA,NA,NA,NA,NA,NA,NA,NA,NA,NA,NA,NA,NA,NA,NA,NA,NA,NA,NA,NA,NA,NA,NA,NA,NA,NA,NA,NA,NA,NA,11,0,11,0,1,NA,NA,NA,NA,NA,NA,NA,NA,NA,NA,NA,NA,NA,NA,NA,NA,NA,NA,NA,NA,NA,NA,NA
SUPAMT92039,3H8DHMCCWFAAVH2HY2UROQR82JDDKE,FE0F6AFD-F9A9-4527-B403-93CAE1B85938,2023-09-28_12h45.23.223,WP_VExplicitOC_LH,2022.2.5,Win32,16.07536129,44.35773152,3.9993,2.0294,NA,NA,NA,NA,NA,happy,"unhappy, happy","less happy, more happy",NA,NA,NA,NA,NA,NA,NA,NA,NA,NA,NA,NA,NA,NA,NA,0,0,0,0,1,NA,NA,NA,NA,NA,NA,NA,NA,NA,NA,NA,NA,NA,NA,NA,NA,NA,NA,NA,NA,NA,NA,NA,NA,NA,NA,NA,NA
SUPAMT92039,3H8DHMCCWFAAVH2HY2UROQR82JDDKE,FE0F6AFD-F9A9-4527-B403-93CAE1B85938,2023-09-28_12h45.23.223,WP_VExplicitOC_LH,2022.2.5,Win32,16.07536129,-33.6910589,4.638,2.0367,NA,NA,NA,NA,NA,frustrated,"frustrated, not frustrated","more frustrated, less frustrated",NA,NA,NA,NA,NA,NA,NA,NA,NA,NA,NA,NA,NA,NA,NA,0,1,1,1,1,NA,NA,NA,NA,NA,NA,NA,NA,NA,NA,NA,NA,NA,NA,NA,NA,NA,NA,NA,NA,NA,NA,NA,NA,NA,NA,NA,NA
SUPAMT92039,3H8DHMCCWFAAVH2HY2UROQR82JDDKE,FE0F6AFD-F9A9-4527-B403-93CAE1B85938,2023-09-28_12h45.23.223,WP_VExplicitOC_LH,2022.2.5,Win32,16.07536129,20.68292881,5.5069,2.0083,NA,NA,NA,NA,NA,bored,"bored, not bored","more bored, less bored",NA,NA,NA,NA,NA,NA,NA,NA,NA,NA,NA,NA,NA,NA,NA,0,2,2,2,1,NA,NA,NA,NA,NA,NA,NA,NA,NA,NA,NA,NA,NA,NA,NA,NA,NA,NA,NA,NA,NA,NA,NA,NA,NA,NA,NA,NA
SUPAMT92039,3H8DHMCCWFAAVH2HY2UROQR82JDDKE,FE0F6AFD-F9A9-4527-B403-93CAE1B85938,2023-09-28_12h45.23.223,WP_VExplicitOC_LH,2022.2.5,Win32,16.07536129,NA,NA,NA,NA,NA,NA,NA,NA,NA,NA,NA,NA,NA,NA,NA,NA,NA,NA,NA,NA,NA,NA,NA,NA,NA,NA,NA,NA,NA,NA,NA,12,0,12,0,1,NA,NA,NA,NA,NA,NA,NA,NA,NA,NA,NA,NA,NA,NA,NA,NA,NA,NA,NA,NA,NA,NA,NA
SUPAMT92039,3H8DHMCCWFAAVH2HY2UROQR82JDDKE,FE0F6AFD-F9A9-4527-B403-93CAE1B85938,2023-09-28_12h45.23.223,WP_VExplicitOC_LH,2022.2.5,Win32,16.07536129,-29.52845131,3.7409,2.0265,NA,NA,NA,NA,NA,frustrated,"frustrated, not frustrated","more frustrated, less frustrated",NA,NA,NA,NA,NA,NA,NA,NA,NA,NA,NA,NA,NA,NA,NA,0,0,0,1,1,NA,NA,NA,NA,NA,NA,NA,NA,NA,NA,NA,NA,NA,NA,NA,NA,NA,NA,NA,NA,NA,NA,NA,NA,NA,NA,NA,NA
SUPAMT92039,3H8DHMCCWFAAVH2HY2UROQR82JDDKE,FE0F6AFD-F9A9-4527-B403-93CAE1B85938,2023-09-28_12h45.23.223,WP_VExplicitOC_LH,2022.2.5,Win32,16.07536129,33.95122745,3.6267,2.0302,NA,NA,NA,NA,NA,happy,"unhappy, happy","less happy, more happy",NA,NA,NA,NA,NA,NA,NA,NA,NA,NA,NA,NA,NA,NA,NA,0,1,1,0,1,NA,NA,NA,NA,NA,NA,NA,NA,NA,NA,NA,NA,NA,NA,NA,NA,NA,NA,NA,NA,NA,NA,NA,NA,NA,NA,NA,NA
SUPAMT92039,3H8DHMCCWFAAVH2HY2UROQR82JDDKE,FE0F6AFD-F9A9-4527-B403-93CAE1B85938,2023-09-28_12h45.23.223,WP_VExplicitOC_LH,2022.2.5,Win32,16.07536129,37.85366648,3.823,2.0232,NA,NA,NA,NA,NA,bored,"bored, not bored","more bored, less bored",NA,NA,NA,NA,NA,NA,NA,NA,NA,NA,NA,NA,NA,NA,NA,0,2,2,2,1,NA,NA,NA,NA,NA,NA,NA,NA,NA,NA,NA,NA,NA,NA,NA,NA,NA,NA,NA,NA,NA,NA,NA,NA,NA,NA,NA,NA
SUPAMT92039,3H8DHMCCWFAAVH2HY2UROQR82JDDKE,FE0F6AFD-F9A9-4527-B403-93CAE1B85938,2023-09-28_12h45.23.223,WP_VExplicitOC_LH,2022.2.5,Win32,16.07536129,NA,NA,NA,NA,NA,NA,NA,NA,NA,NA,NA,NA,NA,NA,NA,NA,NA,NA,NA,NA,NA,NA,NA,NA,NA,NA,NA,NA,NA,NA,NA,13,0,13,0,1,NA,NA,NA,NA,NA,NA,NA,NA,NA,NA,NA,NA,NA,NA,NA,NA,NA,NA,NA,NA,NA,NA,NA
SUPAMT92039,3H8DHMCCWFAAVH2HY2UROQR82JDDKE,FE0F6AFD-F9A9-4527-B403-93CAE1B85938,2023-09-28_12h45.23.223,WP_VExplicitOC_LH,2022.2.5,Win32,16.07536129,-48.52031925,4.5057,2.0336,NA,NA,NA,NA,NA,frustrated,"frustrated, not frustrated","more frustrated, less frustrated",NA,NA,NA,NA,NA,NA,NA,NA,NA,NA,NA,NA,NA,NA,NA,0,0,0,1,1,NA,NA,NA,NA,NA,NA,NA,NA,NA,NA,NA,NA,NA,NA,NA,NA,NA,NA,NA,NA,NA,NA,NA,NA,NA,NA,NA,NA
SUPAMT92039,3H8DHMCCWFAAVH2HY2UROQR82JDDKE,FE0F6AFD-F9A9-4527-B403-93CAE1B85938,2023-09-28_12h45.23.223,WP_VExplicitOC_LH,2022.2.5,Win32,16.07536129,43.31707714,4.762,2.0298,NA,NA,NA,NA,NA,happy,"unhappy, happy","less happy, more happy",NA,NA,NA,NA,NA,NA,NA,NA,NA,NA,NA,NA,NA,NA,NA,0,1,1,0,1,NA,NA,NA,NA,NA,NA,NA,NA,NA,NA,NA,NA,NA,NA,NA,NA,NA,NA,NA,NA,NA,NA,NA,NA,NA,NA,NA,NA
SUPAMT92039,3H8DHMCCWFAAVH2HY2UROQR82JDDKE,FE0F6AFD-F9A9-4527-B403-93CAE1B85938,2023-09-28_12h45.23.223,WP_VExplicitOC_LH,2022.2.5,Win32,16.07536129,NA,NA,2.0428,NA,NA,NA,NA,NA,bored,"bored, not bored","more bored, less bored",NA,NA,NA,NA,NA,NA,NA,NA,NA,NA,NA,NA,NA,NA,NA,0,2,2,2,1,NA,NA,NA,NA,NA,NA,NA,NA,NA,NA,NA,NA,NA,NA,NA,NA,NA,NA,NA,NA,NA,NA,NA,NA,NA,NA,NA,NA
SUPAMT92039,3H8DHMCCWFAAVH2HY2UROQR82JDDKE,FE0F6AFD-F9A9-4527-B403-93CAE1B85938,2023-09-28_12h45.23.223,WP_VExplicitOC_LH,2022.2.5,Win32,16.07536129,NA,NA,NA,NA,NA,NA,NA,NA,NA,NA,NA,NA,NA,NA,NA,NA,NA,NA,NA,NA,NA,NA,NA,NA,NA,NA,NA,NA,NA,NA,NA,14,0,14,0,1,NA,NA,NA,NA,NA,NA,NA,NA,NA,NA,NA,NA,NA,NA,NA,NA,NA,NA,NA,NA,NA,NA,NA
SUPAMT92039,3H8DHMCCWFAAVH2HY2UROQR82JDDKE,FE0F6AFD-F9A9-4527-B403-93CAE1B85938,2023-09-28_12h45.23.223,WP_VExplicitOC_LH,2022.2.5,Win32,16.07536129,NA,NA,NA,NA,NA,NA,NA,NA,NA,NA,NA,NA,NA,NA,NA,NA,NA,NA,NA,NA,NA,NA,NA,NA,NA,NA,NA,NA,NA,NA,NA,NA,NA,NA,NA,NA,NA,NA,NA,NA,NA,NA,NA,NA,NA,NA,NA,NA,NA,NA,NA,NA,NA,NA,NA,NA,NA,NA,NA
SUPAMT92039,3H8DHMCCWFAAVH2HY2UROQR82JDDKE,FE0F6AFD-F9A9-4527-B403-93CAE1B85938,2023-09-28_12h45.23.223,WP_VExplicitOC_LH,2022.2.5,Win32,16.07536129,NA,NA,NA,NA,NA,NA,NA,NA,NA,NA,NA,NA,NA,NA,NA,NA,NA,NA,NA,NA,NA,NA,NA,NA,NA,NA,NA,NA,NA,NA,NA,NA,NA,NA,NA,NA,NA,NA,NA,NA,NA,NA,NA,NA,NA,NA,NA,NA,NA,NA,NA,NA,NA,NA,NA,NA,NA,NA,NA
SUPAMT92039,3H8DHMCCWFAAVH2HY2UROQR82JDDKE,FE0F6AFD-F9A9-4527-B403-93CAE1B85938,2023-09-28_12h45.23.223,WP_VExplicitOC_LH,2022.2.5,Win32,16.07536129,NA,NA,NA,NA,NA,NA,NA,NA,NA,NA,NA,NA,NA,NA,NA,NA,NA,NA,rest (looking at a fixed cross),001.png,NA,NA,NA,NA,NA,NA,NA,NA,NA,NA,NA,NA,NA,NA,NA,NA,58.40651597,5.5654,0,0,0,0,1,NA,NA,NA,NA,NA,NA,NA,NA,NA,NA,NA,NA,NA,NA,NA,NA
SUPAMT92039,3H8DHMCCWFAAVH2HY2UROQR82JDDKE,FE0F6AFD-F9A9-4527-B403-93CAE1B85938,2023-09-28_12h45.23.223,WP_VExplicitOC_LH,2022.2.5,Win32,16.07536129,NA,NA,NA,NA,NA,NA,NA,NA,NA,NA,NA,NA,NA,NA,NA,NA,NA,NA,stand up,002.png,NA,NA,NA,NA,NA,NA,NA,NA,NA,NA,NA,NA,NA,NA,NA,NA,73.75609359,3.8254,0,1,1,1,1,NA,NA,NA,NA,NA,NA,NA,NA,NA,NA,NA,NA,NA,NA,NA,NA
SUPAMT92039,3H8DHMCCWFAAVH2HY2UROQR82JDDKE,FE0F6AFD-F9A9-4527-B403-93CAE1B85938,2023-09-28_12h45.23.223,WP_VExplicitOC_LH,2022.2.5,Win32,16.07536129,NA,NA,NA,NA,NA,NA,NA,NA,NA,NA,NA,NA,NA,NA,NA,NA,NA,NA,stretch,003.png,NA,NA,NA,NA,NA,NA,NA,NA,NA,NA,NA,NA,NA,NA,NA,NA,-22.24390045,4.1367,0,2,2,2,1,NA,NA,NA,NA,NA,NA,NA,NA,NA,NA,NA,NA,NA,NA,NA,NA
SUPAMT92039,3H8DHMCCWFAAVH2HY2UROQR82JDDKE,FE0F6AFD-F9A9-4527-B403-93CAE1B85938,2023-09-28_12h45.23.223,WP_VExplicitOC_LH,2022.2.5,Win32,16.07536129,NA,NA,NA,NA,NA,NA,NA,NA,NA,NA,NA,NA,NA,NA,NA,NA,NA,NA,make a drink,004.png,NA,NA,NA,NA,NA,NA,NA,NA,NA,NA,NA,NA,NA,NA,NA,NA,36.55285347,3.6398,0,3,3,3,1,NA,NA,NA,NA,NA,NA,NA,NA,NA,NA,NA,NA,NA,NA,NA,NA
SUPAMT92039,3H8DHMCCWFAAVH2HY2UROQR82JDDKE,FE0F6AFD-F9A9-4527-B403-93CAE1B85938,2023-09-28_12h45.23.223,WP_VExplicitOC_LH,2022.2.5,Win32,16.07536129,NA,NA,NA,NA,NA,NA,NA,NA,NA,NA,NA,NA,NA,NA,NA,NA,NA,NA,scroll social media,005.png,NA,NA,NA,NA,NA,NA,NA,NA,NA,NA,NA,NA,NA,NA,NA,NA,90.14634543,4.4505,0,4,4,4,1,NA,NA,NA,NA,NA,NA,NA,NA,NA,NA,NA,NA,NA,NA,NA,NA
SUPAMT92039,3H8DHMCCWFAAVH2HY2UROQR82JDDKE,FE0F6AFD-F9A9-4527-B403-93CAE1B85938,2023-09-28_12h45.23.223,WP_VExplicitOC_LH,2022.2.5,Win32,16.07536129,NA,NA,NA,NA,NA,NA,NA,NA,NA,NA,NA,NA,NA,NA,NA,NA,NA,NA,listen to music,006.png,NA,NA,NA,NA,NA,NA,NA,NA,NA,NA,NA,NA,NA,NA,NA,NA,88.84553243,3.6086,0,5,5,5,1,NA,NA,NA,NA,NA,NA,NA,NA,NA,NA,NA,NA,NA,NA,NA,NA
SUPAMT92039,3H8DHMCCWFAAVH2HY2UROQR82JDDKE,FE0F6AFD-F9A9-4527-B403-93CAE1B85938,2023-09-28_12h45.23.223,WP_VExplicitOC_LH,2022.2.5,Win32,16.07536129,NA,NA,NA,NA,NA,NA,NA,NA,NA,NA,NA,NA,NA,NA,NA,NA,NA,NA,daydream,007.png,NA,NA,NA,NA,NA,NA,NA,NA,NA,NA,NA,NA,NA,NA,NA,NA,20.42277018,3.4983,0,6,6,6,1,NA,NA,NA,NA,NA,NA,NA,NA,NA,NA,NA,NA,NA,NA,NA,NA
SUPAMT92039,3H8DHMCCWFAAVH2HY2UROQR82JDDKE,FE0F6AFD-F9A9-4527-B403-93CAE1B85938,2023-09-28_12h45.23.223,WP_VExplicitOC_LH,2022.2.5,Win32,16.07536129,NA,NA,NA,NA,NA,NA,NA,NA,NA,NA,NA,NA,NA,NA,NA,NA,NA,NA,watch a short animation,008.png,NA,NA,NA,NA,NA,NA,NA,NA,NA,NA,NA,NA,NA,NA,NA,NA,-19.38211581,2.8145,0,7,7,7,1,NA,NA,NA,NA,NA,NA,NA,NA,NA,NA,NA,NA,NA,NA,NA,NA
SUPAMT92039,3H8DHMCCWFAAVH2HY2UROQR82JDDKE,FE0F6AFD-F9A9-4527-B403-93CAE1B85938,2023-09-28_12h45.23.223,WP_VExplicitOC_LH,2022.2.5,Win32,16.07536129,NA,NA,NA,NA,NA,NA,NA,NA,NA,NA,NA,NA,NA,NA,NA,NA,NA,NA,read a novel,009.png,NA,NA,NA,NA,NA,NA,NA,NA,NA,NA,NA,NA,NA,NA,NA,NA,43.05691851,2.4755,0,8,8,8,1,NA,NA,NA,NA,NA,NA,NA,NA,NA,NA,NA,NA,NA,NA,NA,NA
SUPAMT92039,3H8DHMCCWFAAVH2HY2UROQR82JDDKE,FE0F6AFD-F9A9-4527-B403-93CAE1B85938,2023-09-28_12h45.23.223,WP_VExplicitOC_LH,2022.2.5,Win32,16.07536129,NA,NA,NA,NA,NA,NA,NA,NA,NA,NA,NA,NA,NA,NA,NA,NA,NA,NA,read the news,010.png,NA,NA,NA,NA,NA,NA,NA,NA,NA,NA,NA,NA,NA,NA,NA,NA,44.09757288,2.5998,0,9,9,9,1,NA,NA,NA,NA,NA,NA,NA,NA,NA,NA,NA,NA,NA,NA,NA,NA
SUPAMT92039,3H8DHMCCWFAAVH2HY2UROQR82JDDKE,FE0F6AFD-F9A9-4527-B403-93CAE1B85938,2023-09-28_12h45.23.223,WP_VExplicitOC_LH,2022.2.5,Win32,16.07536129,NA,NA,NA,NA,NA,NA,NA,NA,NA,NA,NA,NA,NA,NA,NA,NA,NA,NA,NA,NA,NA,NA,NA,NA,NA,NA,NA,NA,NA,NA,NA,NA,NA,NA,NA,NA,NA,NA,NA,NA,NA,NA,NA,scroll social media,NA,NA,NA,NA,NA,NA,NA,NA,NA,NA,NA,NA,NA,NA,NA
SUPAMT92039,3H8DHMCCWFAAVH2HY2UROQR82JDDKE,FE0F6AFD-F9A9-4527-B403-93CAE1B85938,2023-09-28_12h45.23.223,WP_VExplicitOC_LH,2022.2.5,Win32,16.07536129,58.66667461,4.886,2.0152,NA,NA,NA,NA,NA,bored,"bored, not bored","more bored, less bored",NA,NA,NA,NA,NA,NA,NA,NA,NA,NA,NA,NA,NA,NA,NA,NA,NA,NA,NA,NA,NA,NA,NA,NA,NA,NA,NA,NA,NA,NA,NA,NA,NA,0,0,0,2,1,NA,NA,NA,NA,NA,NA,NA,NA,NA,NA
SUPAMT92039,3H8DHMCCWFAAVH2HY2UROQR82JDDKE,FE0F6AFD-F9A9-4527-B403-93CAE1B85938,2023-09-28_12h45.23.223,WP_VExplicitOC_LH,2022.2.5,Win32,16.07536129,77.65853262,4.3633,2.0031,NA,NA,NA,NA,NA,happy,"unhappy, happy","less happy, more happy",NA,NA,NA,NA,NA,NA,NA,NA,NA,NA,NA,NA,NA,NA,NA,NA,NA,NA,NA,NA,NA,NA,NA,NA,NA,NA,NA,NA,NA,NA,NA,NA,NA,0,1,1,0,1,NA,NA,NA,NA,NA,NA,NA,NA,NA,NA
SUPAMT92039,3H8DHMCCWFAAVH2HY2UROQR82JDDKE,FE0F6AFD-F9A9-4527-B403-93CAE1B85938,2023-09-28_12h45.23.223,WP_VExplicitOC_LH,2022.2.5,Win32,16.07536129,-25.88618085,4.6852,2.041,NA,NA,NA,NA,NA,frustrated,"frustrated, not frustrated","more frustrated, less frustrated",NA,NA,NA,NA,NA,NA,NA,NA,NA,NA,NA,NA,NA,NA,NA,NA,NA,NA,NA,NA,NA,NA,NA,NA,NA,NA,NA,NA,NA,NA,NA,NA,NA,0,2,2,1,1,NA,NA,NA,NA,NA,NA,NA,NA,NA,NA
SUPAMT92039,3H8DHMCCWFAAVH2HY2UROQR82JDDKE,FE0F6AFD-F9A9-4527-B403-93CAE1B85938,2023-09-28_12h45.23.223,WP_VExplicitOC_LH,2022.2.5,Win32,16.07536129,NA,NA,NA,NA,NA,NA,NA,NA,NA,NA,NA,NA,NA,NA,NA,NA,NA,NA,NA,NA,NA,NA,NA,NA,NA,NA,NA,NA,NA,NA,NA,NA,NA,NA,NA,NA,NA,NA,NA,NA,NA,NA,NA,NA,NA,NA,NA,NA,NA,NA,NA,NA,NA,NA,NA,NA,NA,NA,NA
SUPAMT92039,3H8DHMCCWFAAVH2HY2UROQR82JDDKE,FE0F6AFD-F9A9-4527-B403-93CAE1B85938,2023-09-28_12h45.23.223,WP_VExplicitOC_LH,2022.2.5,Win32,16.07536129,NA,NA,NA,NA,NA,NA,NA,NA,NA,NA,NA,NA,NA,NA,NA,NA,NA,NA,NA,NA,NA,NA,NA,NA,NA,NA,NA,NA,NA,NA,NA,NA,NA,NA,NA,NA,NA,NA,NA,NA,NA,NA,NA,NA,NA,NA,NA,NA,NA,NA,NA,NA,NA,NA,NA,NA,NA,NA,NA
SUPAMT92039,3H8DHMCCWFAAVH2HY2UROQR82JDDKE,FE0F6AFD-F9A9-4527-B403-93CAE1B85938,2023-09-28_12h45.23.223,WP_VExplicitOC_LH,2022.2.5,Win32,16.07536129,-49.04064644,4.7829,2.0359,NA,NA,NA,NA,NA,bored,"bored, not bored","more bored, less bored",NA,NA,NA,NA,NA,NA,NA,NA,NA,NA,NA,NA,NA,NA,NA,NA,NA,NA,NA,NA,NA,NA,NA,NA,NA,NA,NA,NA,NA,NA,NA,NA,NA,NA,NA,NA,NA,NA,0,0,0,2,1,NA,NA,NA,NA,NA
SUPAMT92039,3H8DHMCCWFAAVH2HY2UROQR82JDDKE,FE0F6AFD-F9A9-4527-B403-93CAE1B85938,2023-09-28_12h45.23.223,WP_VExplicitOC_LH,2022.2.5,Win32,16.07536129,-46.95934761,4.7828,2.0044,NA,NA,NA,NA,NA,frustrated,"frustrated, not frustrated","more frustrated, less frustrated",NA,NA,NA,NA,NA,NA,NA,NA,NA,NA,NA,NA,NA,NA,NA,NA,NA,NA,NA,NA,NA,NA,NA,NA,NA,NA,NA,NA,NA,NA,NA,NA,NA,NA,NA,NA,NA,NA,0,1,1,1,1,NA,NA,NA,NA,NA
SUPAMT92039,3H8DHMCCWFAAVH2HY2UROQR82JDDKE,FE0F6AFD-F9A9-4527-B403-93CAE1B85938,2023-09-28_12h45.23.223,WP_VExplicitOC_LH,2022.2.5,Win32,16.07536129,40.97560976,3.9723,2.0235,NA,NA,NA,NA,NA,happy,"unhappy, happy","less happy, more happy",NA,NA,NA,NA,NA,NA,NA,NA,NA,NA,NA,NA,NA,NA,NA,NA,NA,NA,NA,NA,NA,NA,NA,NA,NA,NA,NA,NA,NA,NA,NA,NA,NA,NA,NA,NA,NA,NA,0,2,2,0,1,NA,NA,NA,NA,NA
SUPAMT92039,3H8DHMCCWFAAVH2HY2UROQR82JDDKE,FE0F6AFD-F9A9-4527-B403-93CAE1B85938,2023-09-28_12h45.23.223,WP_VExplicitOC_LH,2022.2.5,Win32,16.07536129,NA,NA,NA,NA,NA,NA,NA,NA,NA,NA,NA,NA,NA,NA,NA,NA,NA,NA,NA,NA,NA,NA,NA,NA,NA,NA,NA,NA,NA,NA,NA,NA,NA,NA,NA,NA,NA,NA,NA,NA,NA,NA,NA,NA,NA,NA,NA,NA,NA,NA,NA,NA,NA,NA,0,0,0,0,1
SUPAMT92039,3H8DHMCCWFAAVH2HY2UROQR82JDDKE,FE0F6AFD-F9A9-4527-B403-93CAE1B85938,2023-09-28_12h45.23.223,WP_VExplicitOC_LH,2022.2.5,Win32,16.07536129,61.26830062,4.4007,2.02,NA,NA,NA,NA,NA,happy,"unhappy, happy","less happy, more happy",NA,NA,NA,NA,NA,NA,NA,NA,NA,NA,NA,NA,NA,NA,NA,NA,NA,NA,NA,NA,NA,NA,NA,NA,NA,NA,NA,NA,NA,NA,NA,NA,NA,NA,NA,NA,NA,NA,0,0,0,0,1,NA,NA,NA,NA,NA
SUPAMT92039,3H8DHMCCWFAAVH2HY2UROQR82JDDKE,FE0F6AFD-F9A9-4527-B403-93CAE1B85938,2023-09-28_12h45.23.223,WP_VExplicitOC_LH,2022.2.5,Win32,16.07536129,58.66667461,4.9127,2.0111,NA,NA,NA,NA,NA,bored,"bored, not bored","more bored, less bored",NA,NA,NA,NA,NA,NA,NA,NA,NA,NA,NA,NA,NA,NA,NA,NA,NA,NA,NA,NA,NA,NA,NA,NA,NA,NA,NA,NA,NA,NA,NA,NA,NA,NA,NA,NA,NA,NA,0,1,1,2,1,NA,NA,NA,NA,NA
SUPAMT92039,3H8DHMCCWFAAVH2HY2UROQR82JDDKE,FE0F6AFD-F9A9-4527-B403-93CAE1B85938,2023-09-28_12h45.23.223,WP_VExplicitOC_LH,2022.2.5,Win32,16.07536129,-25.36585366,4.8552,2.0231,NA,NA,NA,NA,NA,frustrated,"frustrated, not frustrated","more frustrated, less frustrated",NA,NA,NA,NA,NA,NA,NA,NA,NA,NA,NA,NA,NA,NA,NA,NA,NA,NA,NA,NA,NA,NA,NA,NA,NA,NA,NA,NA,NA,NA,NA,NA,NA,NA,NA,NA,NA,NA,0,2,2,1,1,NA,NA,NA,NA,NA
SUPAMT92039,3H8DHMCCWFAAVH2HY2UROQR82JDDKE,FE0F6AFD-F9A9-4527-B403-93CAE1B85938,2023-09-28_12h45.23.223,WP_VExplicitOC_LH,2022.2.5,Win32,16.07536129,NA,NA,NA,NA,NA,NA,NA,NA,NA,NA,NA,NA,NA,NA,NA,NA,NA,NA,NA,NA,NA,NA,NA,NA,NA,NA,NA,NA,NA,NA,NA,NA,NA,NA,NA,NA,NA,NA,NA,NA,NA,NA,NA,NA,NA,NA,NA,NA,NA,NA,NA,NA,NA,NA,1,0,1,0,1
SUPAMT92039,3H8DHMCCWFAAVH2HY2UROQR82JDDKE,FE0F6AFD-F9A9-4527-B403-93CAE1B85938,2023-09-28_12h45.23.223,WP_VExplicitOC_LH,2022.2.5,Win32,16.07536129,30.82927425,6.1977,2.0322,NA,NA,NA,NA,NA,frustrated,"frustrated, not frustrated","more frustrated, less frustrated",NA,NA,NA,NA,NA,NA,NA,NA,NA,NA,NA,NA,NA,NA,NA,NA,NA,NA,NA,NA,NA,NA,NA,NA,NA,NA,NA,NA,NA,NA,NA,NA,NA,NA,NA,NA,NA,NA,0,0,0,1,1,NA,NA,NA,NA,NA
SUPAMT92039,3H8DHMCCWFAAVH2HY2UROQR82JDDKE,FE0F6AFD-F9A9-4527-B403-93CAE1B85938,2023-09-28_12h45.23.223,WP_VExplicitOC_LH,2022.2.5,Win32,16.07536129,70.11383305,5.2944,2.0297,NA,NA,NA,NA,NA,bored,"bored, not bored","more bored, less bored",NA,NA,NA,NA,NA,NA,NA,NA,NA,NA,NA,NA,NA,NA,NA,NA,NA,NA,NA,NA,NA,NA,NA,NA,NA,NA,NA,NA,NA,NA,NA,NA,NA,NA,NA,NA,NA,NA,0,1,1,2,1,NA,NA,NA,NA,NA
SUPAMT92039,3H8DHMCCWFAAVH2HY2UROQR82JDDKE,FE0F6AFD-F9A9-4527-B403-93CAE1B85938,2023-09-28_12h45.23.223,WP_VExplicitOC_LH,2022.2.5,Win32,16.07536129,72.19512195,4.1783,2.0165,NA,NA,NA,NA,NA,happy,"unhappy, happy","less happy, more happy",NA,NA,NA,NA,NA,NA,NA,NA,NA,NA,NA,NA,NA,NA,NA,NA,NA,NA,NA,NA,NA,NA,NA,NA,NA,NA,NA,NA,NA,NA,NA,NA,NA,NA,NA,NA,NA,NA,0,2,2,0,1,NA,NA,NA,NA,NA
SUPAMT92039,3H8DHMCCWFAAVH2HY2UROQR82JDDKE,FE0F6AFD-F9A9-4527-B403-93CAE1B85938,2023-09-28_12h45.23.223,WP_VExplicitOC_LH,2022.2.5,Win32,16.07536129,NA,NA,NA,NA,NA,NA,NA,NA,NA,NA,NA,NA,NA,NA,NA,NA,NA,NA,NA,NA,NA,NA,NA,NA,NA,NA,NA,NA,NA,NA,NA,NA,NA,NA,NA,NA,NA,NA,NA,NA,NA,NA,NA,NA,NA,NA,NA,NA,NA,NA,NA,NA,NA,NA,2,0,2,0,1
SUPAMT92039,3H8DHMCCWFAAVH2HY2UROQR82JDDKE,FE0F6AFD-F9A9-4527-B403-93CAE1B85938,2023-09-28_12h45.23.223,WP_VExplicitOC_LH,2022.2.5,Win32,16.07536129,47.4796748,4.6231,2.0267,NA,NA,NA,NA,NA,frustrated,"frustrated, not frustrated","more frustrated, less frustrated",NA,NA,NA,NA,NA,NA,NA,NA,NA,NA,NA,NA,NA,NA,NA,NA,NA,NA,NA,NA,NA,NA,NA,NA,NA,NA,NA,NA,NA,NA,NA,NA,NA,NA,NA,NA,NA,NA,0,0,0,1,1,NA,NA,NA,NA,NA
SUPAMT92039,3H8DHMCCWFAAVH2HY2UROQR82JDDKE,FE0F6AFD-F9A9-4527-B403-93CAE1B85938,2023-09-28_12h45.23.223,WP_VExplicitOC_LH,2022.2.5,Win32,16.07536129,83.38212176,4.7926,2.032,NA,NA,NA,NA,NA,bored,"bored, not bored","more bored, less bored",NA,NA,NA,NA,NA,NA,NA,NA,NA,NA,NA,NA,NA,NA,NA,NA,NA,NA,NA,NA,NA,NA,NA,NA,NA,NA,NA,NA,NA,NA,NA,NA,NA,NA,NA,NA,NA,NA,0,1,1,2,1,NA,NA,NA,NA,NA
SUPAMT92039,3H8DHMCCWFAAVH2HY2UROQR82JDDKE,FE0F6AFD-F9A9-4527-B403-93CAE1B85938,2023-09-28_12h45.23.223,WP_VExplicitOC_LH,2022.2.5,Win32,16.07536129,75.57724371,3.8923,2.0196,NA,NA,NA,NA,NA,happy,"unhappy, happy","less happy, more happy",NA,NA,NA,NA,NA,NA,NA,NA,NA,NA,NA,NA,NA,NA,NA,NA,NA,NA,NA,NA,NA,NA,NA,NA,NA,NA,NA,NA,NA,NA,NA,NA,NA,NA,NA,NA,NA,NA,0,2,2,0,1,NA,NA,NA,NA,NA
SUPAMT92039,3H8DHMCCWFAAVH2HY2UROQR82JDDKE,FE0F6AFD-F9A9-4527-B403-93CAE1B85938,2023-09-28_12h45.23.223,WP_VExplicitOC_LH,2022.2.5,Win32,16.07536129,NA,NA,NA,NA,NA,NA,NA,NA,NA,NA,NA,NA,NA,NA,NA,NA,NA,NA,NA,NA,NA,NA,NA,NA,NA,NA,NA,NA,NA,NA,NA,NA,NA,NA,NA,NA,NA,NA,NA,NA,NA,NA,NA,NA,NA,NA,NA,NA,NA,NA,NA,NA,NA,NA,3,0,3,0,1
SUPAMT92039,3H8DHMCCWFAAVH2HY2UROQR82JDDKE,FE0F6AFD-F9A9-4527-B403-93CAE1B85938,2023-09-28_12h45.23.223,WP_VExplicitOC_LH,2022.2.5,Win32,16.07536129,66.21139402,4.1211,2.02,NA,NA,NA,NA,NA,bored,"bored, not bored","more bored, less bored",NA,NA,NA,NA,NA,NA,NA,NA,NA,NA,NA,NA,NA,NA,NA,NA,NA,NA,NA,NA,NA,NA,NA,NA,NA,NA,NA,NA,NA,NA,NA,NA,NA,NA,NA,NA,NA,NA,0,0,0,2,1,NA,NA,NA,NA,NA
SUPAMT92039,3H8DHMCCWFAAVH2HY2UROQR82JDDKE,FE0F6AFD-F9A9-4527-B403-93CAE1B85938,2023-09-28_12h45.23.223,WP_VExplicitOC_LH,2022.2.5,Win32,16.07536129,68.55284156,4.0285,2.018,NA,NA,NA,NA,NA,frustrated,"frustrated, not frustrated","more frustrated, less frustrated",NA,NA,NA,NA,NA,NA,NA,NA,NA,NA,NA,NA,NA,NA,NA,NA,NA,NA,NA,NA,NA,NA,NA,NA,NA,NA,NA,NA,NA,NA,NA,NA,NA,NA,NA,NA,NA,NA,0,1,1,1,1,NA,NA,NA,NA,NA
SUPAMT92039,3H8DHMCCWFAAVH2HY2UROQR82JDDKE,FE0F6AFD-F9A9-4527-B403-93CAE1B85938,2023-09-28_12h45.23.223,WP_VExplicitOC_LH,2022.2.5,Win32,16.07536129,83.12196313,4.0476,2.0056,NA,NA,NA,NA,NA,happy,"unhappy, happy","less happy, more happy",NA,NA,NA,NA,NA,NA,NA,NA,NA,NA,NA,NA,NA,NA,NA,NA,NA,NA,NA,NA,NA,NA,NA,NA,NA,NA,NA,NA,NA,NA,NA,NA,NA,NA,NA,NA,NA,NA,0,2,2,0,1,NA,NA,NA,NA,NA
SUPAMT92039,3H8DHMCCWFAAVH2HY2UROQR82JDDKE,FE0F6AFD-F9A9-4527-B403-93CAE1B85938,2023-09-28_12h45.23.223,WP_VExplicitOC_LH,2022.2.5,Win32,16.07536129,NA,NA,NA,NA,NA,NA,NA,NA,NA,NA,NA,NA,NA,NA,NA,NA,NA,NA,NA,NA,NA,NA,NA,NA,NA,NA,NA,NA,NA,NA,NA,NA,NA,NA,NA,NA,NA,NA,NA,NA,NA,NA,NA,NA,NA,NA,NA,NA,NA,NA,NA,NA,NA,NA,4,0,4,0,1
SUPAMT92039,3H8DHMCCWFAAVH2HY2UROQR82JDDKE,FE0F6AFD-F9A9-4527-B403-93CAE1B85938,2023-09-28_12h45.23.223,WP_VExplicitOC_LH,2022.2.5,Win32,16.07536129,69.85365457,3.7185,2.0303,NA,NA,NA,NA,NA,bored,"bored, not bored","more bored, less bored",NA,NA,NA,NA,NA,NA,NA,NA,NA,NA,NA,NA,NA,NA,NA,NA,NA,NA,NA,NA,NA,NA,NA,NA,NA,NA,NA,NA,NA,NA,NA,NA,NA,NA,NA,NA,NA,NA,0,0,0,2,1,NA,NA,NA,NA,NA
SUPAMT92039,3H8DHMCCWFAAVH2HY2UROQR82JDDKE,FE0F6AFD-F9A9-4527-B403-93CAE1B85938,2023-09-28_12h45.23.223,WP_VExplicitOC_LH,2022.2.5,Win32,16.07536129,82.08130875,3.263,2.0144,NA,NA,NA,NA,NA,frustrated,"frustrated, not frustrated","more frustrated, less frustrated",NA,NA,NA,NA,NA,NA,NA,NA,NA,NA,NA,NA,NA,NA,NA,NA,NA,NA,NA,NA,NA,NA,NA,NA,NA,NA,NA,NA,NA,NA,NA,NA,NA,NA,NA,NA,NA,NA,0,1,1,1,1,NA,NA,NA,NA,NA
SUPAMT92039,3H8DHMCCWFAAVH2HY2UROQR82JDDKE,FE0F6AFD-F9A9-4527-B403-93CAE1B85938,2023-09-28_12h45.23.223,WP_VExplicitOC_LH,2022.2.5,Win32,16.07536129,82.08130875,3.7698,2.0086,NA,NA,NA,NA,NA,happy,"unhappy, happy","less happy, more happy",NA,NA,NA,NA,NA,NA,NA,NA,NA,NA,NA,NA,NA,NA,NA,NA,NA,NA,NA,NA,NA,NA,NA,NA,NA,NA,NA,NA,NA,NA,NA,NA,NA,NA,NA,NA,NA,NA,0,2,2,0,1,NA,NA,NA,NA,NA
SUPAMT92039,3H8DHMCCWFAAVH2HY2UROQR82JDDKE,FE0F6AFD-F9A9-4527-B403-93CAE1B85938,2023-09-28_12h45.23.223,WP_VExplicitOC_LH,2022.2.5,Win32,16.07536129,NA,NA,NA,NA,NA,NA,NA,NA,NA,NA,NA,NA,NA,NA,NA,NA,NA,NA,NA,NA,NA,NA,NA,NA,NA,NA,NA,NA,NA,NA,NA,NA,NA,NA,NA,NA,NA,NA,NA,NA,NA,NA,NA,NA,NA,NA,NA,NA,NA,NA,NA,NA,NA,NA,5,0,5,0,1
SUPAMT92039,3H8DHMCCWFAAVH2HY2UROQR82JDDKE,FE0F6AFD-F9A9-4527-B403-93CAE1B85938,2023-09-28_12h45.23.223,WP_VExplicitOC_LH,2022.2.5,Win32,16.07536129,62.56911363,4.2095,2.0081,NA,NA,NA,NA,NA,bored,"bored, not bored","more bored, less bored",NA,NA,NA,NA,NA,NA,NA,NA,NA,NA,NA,NA,NA,NA,NA,NA,NA,NA,NA,NA,NA,NA,NA,NA,NA,NA,NA,NA,NA,NA,NA,NA,NA,NA,NA,NA,NA,NA,0,0,0,2,1,NA,NA,NA,NA,NA
SUPAMT92039,3H8DHMCCWFAAVH2HY2UROQR82JDDKE,FE0F6AFD-F9A9-4527-B403-93CAE1B85938,2023-09-28_12h45.23.223,WP_VExplicitOC_LH,2022.2.5,Win32,16.07536129,70.37399168,3.8771,2.0084,NA,NA,NA,NA,NA,happy,"unhappy, happy","less happy, more happy",NA,NA,NA,NA,NA,NA,NA,NA,NA,NA,NA,NA,NA,NA,NA,NA,NA,NA,NA,NA,NA,NA,NA,NA,NA,NA,NA,NA,NA,NA,NA,NA,NA,NA,NA,NA,NA,NA,0,1,1,0,1,NA,NA,NA,NA,NA
SUPAMT92039,3H8DHMCCWFAAVH2HY2UROQR82JDDKE,FE0F6AFD-F9A9-4527-B403-93CAE1B85938,2023-09-28_12h45.23.223,WP_VExplicitOC_LH,2022.2.5,Win32,16.07536129,76.35771961,5.1887,2.0236,NA,NA,NA,NA,NA,frustrated,"frustrated, not frustrated","more frustrated, less frustrated",NA,NA,NA,NA,NA,NA,NA,NA,NA,NA,NA,NA,NA,NA,NA,NA,NA,NA,NA,NA,NA,NA,NA,NA,NA,NA,NA,NA,NA,NA,NA,NA,NA,NA,NA,NA,NA,NA,0,2,2,1,1,NA,NA,NA,NA,NA
SUPAMT92039,3H8DHMCCWFAAVH2HY2UROQR82JDDKE,FE0F6AFD-F9A9-4527-B403-93CAE1B85938,2023-09-28_12h45.23.223,WP_VExplicitOC_LH,2022.2.5,Win32,16.07536129,NA,NA,NA,NA,NA,NA,NA,NA,NA,NA,NA,NA,NA,NA,NA,NA,NA,NA,NA,NA,NA,NA,NA,NA,NA,NA,NA,NA,NA,NA,NA,NA,NA,NA,NA,NA,NA,NA,NA,NA,NA,NA,NA,NA,NA,NA,NA,NA,NA,NA,NA,NA,NA,NA,6,0,6,0,1
SUPAMT92039,3H8DHMCCWFAAVH2HY2UROQR82JDDKE,FE0F6AFD-F9A9-4527-B403-93CAE1B85938,2023-09-28_12h45.23.223,WP_VExplicitOC_LH,2022.2.5,Win32,16.07536129,-43.05690858,5.5742,2.0272,NA,NA,NA,NA,NA,frustrated,"frustrated, not frustrated","more frustrated, less frustrated",NA,NA,NA,NA,NA,NA,NA,NA,NA,NA,NA,NA,NA,NA,NA,NA,NA,NA,NA,NA,NA,NA,NA,NA,NA,NA,NA,NA,NA,NA,NA,NA,NA,NA,NA,NA,NA,NA,0,0,0,1,1,NA,NA,NA,NA,NA
SUPAMT92039,3H8DHMCCWFAAVH2HY2UROQR82JDDKE,FE0F6AFD-F9A9-4527-B403-93CAE1B85938,2023-09-28_12h45.23.223,WP_VExplicitOC_LH,2022.2.5,Win32,16.07536129,64.13008527,5.4515,2.0026,NA,NA,NA,NA,NA,happy,"unhappy, happy","less happy, more happy",NA,NA,NA,NA,NA,NA,NA,NA,NA,NA,NA,NA,NA,NA,NA,NA,NA,NA,NA,NA,NA,NA,NA,NA,NA,NA,NA,NA,NA,NA,NA,NA,NA,NA,NA,NA,NA,NA,0,1,1,0,1,NA,NA,NA,NA,NA
SUPAMT92039,3H8DHMCCWFAAVH2HY2UROQR82JDDKE,FE0F6AFD-F9A9-4527-B403-93CAE1B85938,2023-09-28_12h45.23.223,WP_VExplicitOC_LH,2022.2.5,Win32,16.07536129,70.89430894,4.5378,2.0405,NA,NA,NA,NA,NA,bored,"bored, not bored","more bored, less bored",NA,NA,NA,NA,NA,NA,NA,NA,NA,NA,NA,NA,NA,NA,NA,NA,NA,NA,NA,NA,NA,NA,NA,NA,NA,NA,NA,NA,NA,NA,NA,NA,NA,NA,NA,NA,NA,NA,0,2,2,2,1,NA,NA,NA,NA,NA
SUPAMT92039,3H8DHMCCWFAAVH2HY2UROQR82JDDKE,FE0F6AFD-F9A9-4527-B403-93CAE1B85938,2023-09-28_12h45.23.223,WP_VExplicitOC_LH,2022.2.5,Win32,16.07536129,NA,NA,NA,NA,NA,NA,NA,NA,NA,NA,NA,NA,NA,NA,NA,NA,NA,NA,NA,NA,NA,NA,NA,NA,NA,NA,NA,NA,NA,NA,NA,NA,NA,NA,NA,NA,NA,NA,NA,NA,NA,NA,NA,NA,NA,NA,NA,NA,NA,NA,NA,NA,NA,NA,7,0,7,0,1
SUPAMT92039,3H8DHMCCWFAAVH2HY2UROQR82JDDKE,FE0F6AFD-F9A9-4527-B403-93CAE1B85938,2023-09-28_12h45.23.223,WP_VExplicitOC_LH,2022.2.5,Win32,16.07536129,84.9430934,4.8239,2.0224,NA,NA,NA,NA,NA,frustrated,"frustrated, not frustrated","more frustrated, less frustrated",NA,NA,NA,NA,NA,NA,NA,NA,NA,NA,NA,NA,NA,NA,NA,NA,NA,NA,NA,NA,NA,NA,NA,NA,NA,NA,NA,NA,NA,NA,NA,NA,NA,NA,NA,NA,NA,NA,0,0,0,1,1,NA,NA,NA,NA,NA
SUPAMT92039,3H8DHMCCWFAAVH2HY2UROQR82JDDKE,FE0F6AFD-F9A9-4527-B403-93CAE1B85938,2023-09-28_12h45.23.223,WP_VExplicitOC_LH,2022.2.5,Win32,16.07536129,94.04878446,4.7266,2.031,NA,NA,NA,NA,NA,happy,"unhappy, happy","less happy, more happy",NA,NA,NA,NA,NA,NA,NA,NA,NA,NA,NA,NA,NA,NA,NA,NA,NA,NA,NA,NA,NA,NA,NA,NA,NA,NA,NA,NA,NA,NA,NA,NA,NA,NA,NA,NA,NA,NA,0,1,1,0,1,NA,NA,NA,NA,NA
SUPAMT92039,3H8DHMCCWFAAVH2HY2UROQR82JDDKE,FE0F6AFD-F9A9-4527-B403-93CAE1B85938,2023-09-28_12h45.23.223,WP_VExplicitOC_LH,2022.2.5,Win32,16.07536129,66.47155265,4.8789,2.0047,NA,NA,NA,NA,NA,bored,"bored, not bored","more bored, less bored",NA,NA,NA,NA,NA,NA,NA,NA,NA,NA,NA,NA,NA,NA,NA,NA,NA,NA,NA,NA,NA,NA,NA,NA,NA,NA,NA,NA,NA,NA,NA,NA,NA,NA,NA,NA,NA,NA,0,2,2,2,1,NA,NA,NA,NA,NA
SUPAMT92039,3H8DHMCCWFAAVH2HY2UROQR82JDDKE,FE0F6AFD-F9A9-4527-B403-93CAE1B85938,2023-09-28_12h45.23.223,WP_VExplicitOC_LH,2022.2.5,Win32,16.07536129,NA,NA,NA,NA,NA,NA,NA,NA,NA,NA,NA,NA,NA,NA,NA,NA,NA,NA,NA,NA,NA,NA,NA,NA,NA,NA,NA,NA,NA,NA,NA,NA,NA,NA,NA,NA,NA,NA,NA,NA,NA,NA,NA,NA,NA,NA,NA,NA,NA,NA,NA,NA,NA,NA,8,0,8,0,1
SUPAMT92039,3H8DHMCCWFAAVH2HY2UROQR82JDDKE,FE0F6AFD-F9A9-4527-B403-93CAE1B85938,2023-09-28_12h45.23.223,WP_VExplicitOC_LH,2022.2.5,Win32,16.07536129,76.09756098,4.6813,2.0114,NA,NA,NA,NA,NA,bored,"bored, not bored","more bored, less bored",NA,NA,NA,NA,NA,NA,NA,NA,NA,NA,NA,NA,NA,NA,NA,NA,NA,NA,NA,NA,NA,NA,NA,NA,NA,NA,NA,NA,NA,NA,NA,NA,NA,NA,NA,NA,NA,NA,0,0,0,2,1,NA,NA,NA,NA,NA
SUPAMT92039,3H8DHMCCWFAAVH2HY2UROQR82JDDKE,FE0F6AFD-F9A9-4527-B403-93CAE1B85938,2023-09-28_12h45.23.223,WP_VExplicitOC_LH,2022.2.5,Win32,16.07536129,85.72358915,4.0835,2.0446,NA,NA,NA,NA,NA,happy,"unhappy, happy","less happy, more happy",NA,NA,NA,NA,NA,NA,NA,NA,NA,NA,NA,NA,NA,NA,NA,NA,NA,NA,NA,NA,NA,NA,NA,NA,NA,NA,NA,NA,NA,NA,NA,NA,NA,NA,NA,NA,NA,NA,0,1,1,0,1,NA,NA,NA,NA,NA
SUPAMT92039,3H8DHMCCWFAAVH2HY2UROQR82JDDKE,FE0F6AFD-F9A9-4527-B403-93CAE1B85938,2023-09-28_12h45.23.223,WP_VExplicitOC_LH,2022.2.5,Win32,16.07536129,74.01627207,4.4782,2.025,NA,NA,NA,NA,NA,frustrated,"frustrated, not frustrated","more frustrated, less frustrated",NA,NA,NA,NA,NA,NA,NA,NA,NA,NA,NA,NA,NA,NA,NA,NA,NA,NA,NA,NA,NA,NA,NA,NA,NA,NA,NA,NA,NA,NA,NA,NA,NA,NA,NA,NA,NA,NA,0,2,2,1,1,NA,NA,NA,NA,NA
SUPAMT92039,3H8DHMCCWFAAVH2HY2UROQR82JDDKE,FE0F6AFD-F9A9-4527-B403-93CAE1B85938,2023-09-28_12h45.23.223,WP_VExplicitOC_LH,2022.2.5,Win32,16.07536129,NA,NA,NA,NA,NA,NA,NA,NA,NA,NA,NA,NA,NA,NA,NA,NA,NA,NA,NA,NA,NA,NA,NA,NA,NA,NA,NA,NA,NA,NA,NA,NA,NA,NA,NA,NA,NA,NA,NA,NA,NA,NA,NA,NA,NA,NA,NA,NA,NA,NA,NA,NA,NA,NA,9,0,9,0,1
SUPAMT92039,3H8DHMCCWFAAVH2HY2UROQR82JDDKE,FE0F6AFD-F9A9-4527-B403-93CAE1B85938,2023-09-28_12h45.23.223,WP_VExplicitOC_LH,2022.2.5,Win32,16.07536129,71.15446757,4.9952,2.0099,NA,NA,NA,NA,NA,happy,"unhappy, happy","less happy, more happy",NA,NA,NA,NA,NA,NA,NA,NA,NA,NA,NA,NA,NA,NA,NA,NA,NA,NA,NA,NA,NA,NA,NA,NA,NA,NA,NA,NA,NA,NA,NA,NA,NA,NA,NA,NA,NA,NA,0,0,0,0,1,NA,NA,NA,NA,NA
SUPAMT92039,3H8DHMCCWFAAVH2HY2UROQR82JDDKE,FE0F6AFD-F9A9-4527-B403-93CAE1B85938,2023-09-28_12h45.23.223,WP_VExplicitOC_LH,2022.2.5,Win32,16.07536129,85.20325203,4.7312,2.0383,NA,NA,NA,NA,NA,frustrated,"frustrated, not frustrated","more frustrated, less frustrated",NA,NA,NA,NA,NA,NA,NA,NA,NA,NA,NA,NA,NA,NA,NA,NA,NA,NA,NA,NA,NA,NA,NA,NA,NA,NA,NA,NA,NA,NA,NA,NA,NA,NA,NA,NA,NA,NA,0,1,1,1,1,NA,NA,NA,NA,NA
SUPAMT92039,3H8DHMCCWFAAVH2HY2UROQR82JDDKE,FE0F6AFD-F9A9-4527-B403-93CAE1B85938,2023-09-28_12h45.23.223,WP_VExplicitOC_LH,2022.2.5,Win32,16.07536129,89.10569106,4.8476,2.001,NA,NA,NA,NA,NA,bored,"bored, not bored","more bored, less bored",NA,NA,NA,NA,NA,NA,NA,NA,NA,NA,NA,NA,NA,NA,NA,NA,NA,NA,NA,NA,NA,NA,NA,NA,NA,NA,NA,NA,NA,NA,NA,NA,NA,NA,NA,NA,NA,NA,0,2,2,2,1,NA,NA,NA,NA,NA
SUPAMT92039,3H8DHMCCWFAAVH2HY2UROQR82JDDKE,FE0F6AFD-F9A9-4527-B403-93CAE1B85938,2023-09-28_12h45.23.223,WP_VExplicitOC_LH,2022.2.5,Win32,16.07536129,NA,NA,NA,NA,NA,NA,NA,NA,NA,NA,NA,NA,NA,NA,NA,NA,NA,NA,NA,NA,NA,NA,NA,NA,NA,NA,NA,NA,NA,NA,NA,NA,NA,NA,NA,NA,NA,NA,NA,NA,NA,NA,NA,NA,NA,NA,NA,NA,NA,NA,NA,NA,NA,NA,10,0,10,0,1
SUPAMT92039,3H8DHMCCWFAAVH2HY2UROQR82JDDKE,FE0F6AFD-F9A9-4527-B403-93CAE1B85938,2023-09-28_12h45.23.223,WP_VExplicitOC_LH,2022.2.5,Win32,16.07536129,84.16259766,4.5128,2.0054,NA,NA,NA,NA,NA,frustrated,"frustrated, not frustrated","more frustrated, less frustrated",NA,NA,NA,NA,NA,NA,NA,NA,NA,NA,NA,NA,NA,NA,NA,NA,NA,NA,NA,NA,NA,NA,NA,NA,NA,NA,NA,NA,NA,NA,NA,NA,NA,NA,NA,NA,NA,NA,0,0,0,1,1,NA,NA,NA,NA,NA
SUPAMT92039,3H8DHMCCWFAAVH2HY2UROQR82JDDKE,FE0F6AFD-F9A9-4527-B403-93CAE1B85938,2023-09-28_12h45.23.223,WP_VExplicitOC_LH,2022.2.5,Win32,16.07536129,80.26015863,4.4779,2.0435,NA,NA,NA,NA,NA,happy,"unhappy, happy","less happy, more happy",NA,NA,NA,NA,NA,NA,NA,NA,NA,NA,NA,NA,NA,NA,NA,NA,NA,NA,NA,NA,NA,NA,NA,NA,NA,NA,NA,NA,NA,NA,NA,NA,NA,NA,NA,NA,NA,NA,0,1,1,0,1,NA,NA,NA,NA,NA
SUPAMT92039,3H8DHMCCWFAAVH2HY2UROQR82JDDKE,FE0F6AFD-F9A9-4527-B403-93CAE1B85938,2023-09-28_12h45.23.223,WP_VExplicitOC_LH,2022.2.5,Win32,16.07536129,82.86178465,4.8735,2.0184,NA,NA,NA,NA,NA,bored,"bored, not bored","more bored, less bored",NA,NA,NA,NA,NA,NA,NA,NA,NA,NA,NA,NA,NA,NA,NA,NA,NA,NA,NA,NA,NA,NA,NA,NA,NA,NA,NA,NA,NA,NA,NA,NA,NA,NA,NA,NA,NA,NA,0,2,2,2,1,NA,NA,NA,NA,NA
SUPAMT92039,3H8DHMCCWFAAVH2HY2UROQR82JDDKE,FE0F6AFD-F9A9-4527-B403-93CAE1B85938,2023-09-28_12h45.23.223,WP_VExplicitOC_LH,2022.2.5,Win32,16.07536129,NA,NA,NA,NA,NA,NA,NA,NA,NA,NA,NA,NA,NA,NA,NA,NA,NA,NA,NA,NA,NA,NA,NA,NA,NA,NA,NA,NA,NA,NA,NA,NA,NA,NA,NA,NA,NA,NA,NA,NA,NA,NA,NA,NA,NA,NA,NA,NA,NA,NA,NA,NA,NA,NA,11,0,11,0,1
SUPAMT92039,3H8DHMCCWFAAVH2HY2UROQR82JDDKE,FE0F6AFD-F9A9-4527-B403-93CAE1B85938,2023-09-28_12h45.23.223,WP_VExplicitOC_LH,2022.2.5,Win32,16.07536129,66.21139402,4.8037,2.0209,NA,NA,NA,NA,NA,bored,"bored, not bored","more bored, less bored",NA,NA,NA,NA,NA,NA,NA,NA,NA,NA,NA,NA,NA,NA,NA,NA,NA,NA,NA,NA,NA,NA,NA,NA,NA,NA,NA,NA,NA,NA,NA,NA,NA,NA,NA,NA,NA,NA,0,0,0,2,1,NA,NA,NA,NA,NA
SUPAMT92039,3H8DHMCCWFAAVH2HY2UROQR82JDDKE,FE0F6AFD-F9A9-4527-B403-93CAE1B85938,2023-09-28_12h45.23.223,WP_VExplicitOC_LH,2022.2.5,Win32,16.07536129,77.13821535,5.2891,2.0207,NA,NA,NA,NA,NA,frustrated,"frustrated, not frustrated","more frustrated, less frustrated",NA,NA,NA,NA,NA,NA,NA,NA,NA,NA,NA,NA,NA,NA,NA,NA,NA,NA,NA,NA,NA,NA,NA,NA,NA,NA,NA,NA,NA,NA,NA,NA,NA,NA,NA,NA,NA,NA,0,1,1,1,1,NA,NA,NA,NA,NA
SUPAMT92039,3H8DHMCCWFAAVH2HY2UROQR82JDDKE,FE0F6AFD-F9A9-4527-B403-93CAE1B85938,2023-09-28_12h45.23.223,WP_VExplicitOC_LH,2022.2.5,Win32,16.07536129,74.01627207,3.8838,2.0248,NA,NA,NA,NA,NA,happy,"unhappy, happy","less happy, more happy",NA,NA,NA,NA,NA,NA,NA,NA,NA,NA,NA,NA,NA,NA,NA,NA,NA,NA,NA,NA,NA,NA,NA,NA,NA,NA,NA,NA,NA,NA,NA,NA,NA,NA,NA,NA,NA,NA,0,2,2,0,1,NA,NA,NA,NA,NA
SUPAMT92039,3H8DHMCCWFAAVH2HY2UROQR82JDDKE,FE0F6AFD-F9A9-4527-B403-93CAE1B85938,2023-09-28_12h45.23.223,WP_VExplicitOC_LH,2022.2.5,Win32,16.07536129,NA,NA,NA,NA,NA,NA,NA,NA,NA,NA,NA,NA,NA,NA,NA,NA,NA,NA,NA,NA,NA,NA,NA,NA,NA,NA,NA,NA,NA,NA,NA,NA,NA,NA,NA,NA,NA,NA,NA,NA,NA,NA,NA,NA,NA,NA,NA,NA,NA,NA,NA,NA,NA,NA,12,0,12,0,1
SUPAMT92039,3H8DHMCCWFAAVH2HY2UROQR82JDDKE,FE0F6AFD-F9A9-4527-B403-93CAE1B85938,2023-09-28_12h45.23.223,WP_VExplicitOC_LH,2022.2.5,Win32,16.07536129,76.87805672,4.7069,2.0285,NA,NA,NA,NA,NA,frustrated,"frustrated, not frustrated","more frustrated, less frustrated",NA,NA,NA,NA,NA,NA,NA,NA,NA,NA,NA,NA,NA,NA,NA,NA,NA,NA,NA,NA,NA,NA,NA,NA,NA,NA,NA,NA,NA,NA,NA,NA,NA,NA,NA,NA,NA,NA,0,0,0,1,1,NA,NA,NA,NA,NA
SUPAMT92039,3H8DHMCCWFAAVH2HY2UROQR82JDDKE,FE0F6AFD-F9A9-4527-B403-93CAE1B85938,2023-09-28_12h45.23.223,WP_VExplicitOC_LH,2022.2.5,Win32,16.07536129,81.82115012,4.9281,2.0119,NA,NA,NA,NA,NA,happy,"unhappy, happy","less happy, more happy",NA,NA,NA,NA,NA,NA,NA,NA,NA,NA,NA,NA,NA,NA,NA,NA,NA,NA,NA,NA,NA,NA,NA,NA,NA,NA,NA,NA,NA,NA,NA,NA,NA,NA,NA,NA,NA,NA,0,1,1,0,1,NA,NA,NA,NA,NA
SUPAMT92039,3H8DHMCCWFAAVH2HY2UROQR82JDDKE,FE0F6AFD-F9A9-4527-B403-93CAE1B85938,2023-09-28_12h45.23.223,WP_VExplicitOC_LH,2022.2.5,Win32,16.07536129,73.23577633,3.6049,2.0242,NA,NA,NA,NA,NA,bored,"bored, not bored","more bored, less bored",NA,NA,NA,NA,NA,NA,NA,NA,NA,NA,NA,NA,NA,NA,NA,NA,NA,NA,NA,NA,NA,NA,NA,NA,NA,NA,NA,NA,NA,NA,NA,NA,NA,NA,NA,NA,NA,NA,0,2,2,2,1,NA,NA,NA,NA,NA
SUPAMT92039,3H8DHMCCWFAAVH2HY2UROQR82JDDKE,FE0F6AFD-F9A9-4527-B403-93CAE1B85938,2023-09-28_12h45.23.223,WP_VExplicitOC_LH,2022.2.5,Win32,16.07536129,NA,NA,NA,NA,NA,NA,NA,NA,NA,NA,NA,NA,NA,NA,NA,NA,NA,NA,NA,NA,NA,NA,NA,NA,NA,NA,NA,NA,NA,NA,NA,NA,NA,NA,NA,NA,NA,NA,NA,NA,NA,NA,NA,NA,NA,NA,NA,NA,NA,NA,NA,NA,NA,NA,13,0,13,0,1
SUPAMT92039,3H8DHMCCWFAAVH2HY2UROQR82JDDKE,FE0F6AFD-F9A9-4527-B403-93CAE1B85938,2023-09-28_12h45.23.223,WP_VExplicitOC_LH,2022.2.5,Win32,16.07536129,70.89430894,4.2028,2.0226,NA,NA,NA,NA,NA,bored,"bored, not bored","more bored, less bored",NA,NA,NA,NA,NA,NA,NA,NA,NA,NA,NA,NA,NA,NA,NA,NA,NA,NA,NA,NA,NA,NA,NA,NA,NA,NA,NA,NA,NA,NA,NA,NA,NA,NA,NA,NA,NA,NA,0,0,0,2,1,NA,NA,NA,NA,NA
SUPAMT92039,3H8DHMCCWFAAVH2HY2UROQR82JDDKE,FE0F6AFD-F9A9-4527-B403-93CAE1B85938,2023-09-28_12h45.23.223,WP_VExplicitOC_LH,2022.2.5,Win32,16.07536129,79.47968274,4.3724,2.0012,NA,NA,NA,NA,NA,happy,"unhappy, happy","less happy, more happy",NA,NA,NA,NA,NA,NA,NA,NA,NA,NA,NA,NA,NA,NA,NA,NA,NA,NA,NA,NA,NA,NA,NA,NA,NA,NA,NA,NA,NA,NA,NA,NA,NA,NA,NA,NA,NA,NA,0,1,1,0,1,NA,NA,NA,NA,NA
SUPAMT92039,3H8DHMCCWFAAVH2HY2UROQR82JDDKE,FE0F6AFD-F9A9-4527-B403-93CAE1B85938,2023-09-28_12h45.23.223,WP_VExplicitOC_LH,2022.2.5,Win32,16.07536129,79.47968274,3.2785,2.0044,NA,NA,NA,NA,NA,frustrated,"frustrated, not frustrated","more frustrated, less frustrated",NA,NA,NA,NA,NA,NA,NA,NA,NA,NA,NA,NA,NA,NA,NA,NA,NA,NA,NA,NA,NA,NA,NA,NA,NA,NA,NA,NA,NA,NA,NA,NA,NA,NA,NA,NA,NA,NA,0,2,2,1,1,NA,NA,NA,NA,NA
SUPAMT92039,3H8DHMCCWFAAVH2HY2UROQR82JDDKE,FE0F6AFD-F9A9-4527-B403-93CAE1B85938,2023-09-28_12h45.23.223,WP_VExplicitOC_LH,2022.2.5,Win32,16.07536129,NA,NA,NA,NA,NA,NA,NA,NA,NA,NA,NA,NA,NA,NA,NA,NA,NA,NA,NA,NA,NA,NA,NA,NA,NA,NA,NA,NA,NA,NA,NA,NA,NA,NA,NA,NA,NA,NA,NA,NA,NA,NA,NA,NA,NA,NA,NA,NA,NA,NA,NA,NA,NA,NA,14,0,14,0,1
SUPAMT92039,3H8DHMCCWFAAVH2HY2UROQR82JDDKE,FE0F6AFD-F9A9-4527-B403-93CAE1B85938,2023-09-28_12h45.23.223,WP_VExplicitOC_LH,2022.2.5,Win32,16.07536129,NA,NA,NA,NA,NA,NA,NA,NA,NA,NA,NA,NA,NA,NA,NA,NA,NA,NA,NA,NA,NA,NA,NA,NA,NA,NA,NA,NA,NA,NA,NA,NA,NA,NA,NA,NA,NA,NA,NA,NA,NA,NA,NA,NA,NA,NA,NA,NA,NA,NA,NA,NA,NA,NA,NA,NA,NA,NA,NA
