participant,session,completion,date,expName,psychopyVersion,OS,frameRate,rating_all.response,rating_all.rt,rating_all.tStart,rndRat1.thisRepN,rndRat1.thisTrialN,rndRat1.thisN,rndRat1.thisIndex,rndRat1.ran,Emo,Labs,Labs2,rating_alt.response,rating_alt.rt,AltC.thisRepN,AltC.thisTrialN,AltC.thisN,AltC.thisIndex,AltC.ran,alt_choices,pic_choices,BottomAlt_Choice,rndRat2.thisRepN,rndRat2.thisTrialN,rndRat2.thisN,rndRat2.thisIndex,rndRat2.ran,rndRat3.thisRepN,rndRat3.thisTrialN,rndRat3.thisN,rndRat3.thisIndex,rndRat3.ran,trials_FC_L.thisRepN,trials_FC_L.thisTrialN,trials_FC_L.thisN,trials_FC_L.thisIndex,trials_FC_L.ran,rating_alt_2.response,rating_alt_2.rt,AltC2.thisRepN,AltC2.thisTrialN,AltC2.thisN,AltC2.thisIndex,AltC2.ran,TopAlt_Choice,rndRat4.thisRepN,rndRat4.thisTrialN,rndRat4.thisN,rndRat4.thisIndex,rndRat4.ran,rndRat5.thisRepN,rndRat5.thisTrialN,rndRat5.thisN,rndRat5.thisIndex,rndRat5.ran,trials_FC_H.thisRepN,trials_FC_H.thisTrialN,trials_FC_H.thisN,trials_FC_H.thisIndex,trials_FC_H.ran
SUPAMT15429,32SVAV9L3L861CRYTMBQH3206OS3AD,1BC19645-853C-40B0-B664-234BF4A9FADF,2023-09-27_18h27.25.052,WP_VExplicitOC_LH,2022.2.5,Win32,32.00102403,NA,NA,NA,NA,NA,NA,NA,NA,NA,NA,NA,NA,NA,NA,NA,NA,NA,NA,NA,NA,NA,NA,NA,NA,NA,NA,NA,NA,NA,NA,NA,NA,NA,NA,NA,NA,NA,NA,NA,NA,NA,NA,NA,NA,NA,NA,NA,NA,NA,NA,NA,NA,NA,NA,NA,NA,NA,NA,NA
SUPAMT15429,32SVAV9L3L861CRYTMBQH3206OS3AD,1BC19645-853C-40B0-B664-234BF4A9FADF,2023-09-27_18h27.25.052,WP_VExplicitOC_LH,2022.2.5,Win32,32.00102403,NA,NA,NA,NA,NA,NA,NA,NA,NA,NA,NA,NA,NA,NA,NA,NA,NA,NA,NA,NA,NA,NA,NA,NA,NA,NA,NA,NA,NA,NA,NA,NA,NA,NA,NA,NA,NA,NA,NA,NA,NA,NA,NA,NA,NA,NA,NA,NA,NA,NA,NA,NA,NA,NA,NA,NA,NA,NA,NA
SUPAMT15429,32SVAV9L3L861CRYTMBQH3206OS3AD,1BC19645-853C-40B0-B664-234BF4A9FADF,2023-09-27_18h27.25.052,WP_VExplicitOC_LH,2022.2.5,Win32,32.00102403,NA,NA,NA,NA,NA,NA,NA,NA,NA,NA,NA,NA,NA,NA,NA,NA,NA,NA,NA,NA,NA,NA,NA,NA,NA,NA,NA,NA,NA,NA,NA,NA,NA,NA,NA,NA,NA,NA,NA,NA,NA,NA,NA,NA,NA,NA,NA,NA,NA,NA,NA,NA,NA,NA,NA,NA,NA,NA,NA
SUPAMT15429,32SVAV9L3L861CRYTMBQH3206OS3AD,1BC19645-853C-40B0-B664-234BF4A9FADF,2023-09-27_18h27.25.052,WP_VExplicitOC_LH,2022.2.5,Win32,32.00102403,24.55573506,3.734,2.0055,0,0,0,1,1,frustrated,"frustrated, not frustrated","more frustrated, less frustrated",NA,NA,NA,NA,NA,NA,NA,NA,NA,NA,NA,NA,NA,NA,NA,NA,NA,NA,NA,NA,NA,NA,NA,NA,NA,NA,NA,NA,NA,NA,NA,NA,NA,NA,NA,NA,NA,NA,NA,NA,NA,NA,NA,NA,NA,NA,NA,NA
SUPAMT15429,32SVAV9L3L861CRYTMBQH3206OS3AD,1BC19645-853C-40B0-B664-234BF4A9FADF,2023-09-27_18h27.25.052,WP_VExplicitOC_LH,2022.2.5,Win32,32.00102403,23.58642973,3.1215,2.0431,0,1,1,2,1,bored,"bored, not bored","more bored, less bored",NA,NA,NA,NA,NA,NA,NA,NA,NA,NA,NA,NA,NA,NA,NA,NA,NA,NA,NA,NA,NA,NA,NA,NA,NA,NA,NA,NA,NA,NA,NA,NA,NA,NA,NA,NA,NA,NA,NA,NA,NA,NA,NA,NA,NA,NA,NA,NA
SUPAMT15429,32SVAV9L3L861CRYTMBQH3206OS3AD,1BC19645-853C-40B0-B664-234BF4A9FADF,2023-09-27_18h27.25.052,WP_VExplicitOC_LH,2022.2.5,Win32,32.00102403,64.94345719,3.3869,2.045,0,2,2,0,1,happy,"unhappy, happy","less happy, more happy",NA,NA,NA,NA,NA,NA,NA,NA,NA,NA,NA,NA,NA,NA,NA,NA,NA,NA,NA,NA,NA,NA,NA,NA,NA,NA,NA,NA,NA,NA,NA,NA,NA,NA,NA,NA,NA,NA,NA,NA,NA,NA,NA,NA,NA,NA,NA,NA
SUPAMT15429,32SVAV9L3L861CRYTMBQH3206OS3AD,1BC19645-853C-40B0-B664-234BF4A9FADF,2023-09-27_18h27.25.052,WP_VExplicitOC_LH,2022.2.5,Win32,32.00102403,NA,NA,NA,NA,NA,NA,NA,NA,NA,NA,NA,NA,NA,NA,NA,NA,NA,NA,NA,NA,NA,NA,NA,NA,NA,NA,NA,NA,NA,NA,NA,NA,NA,NA,NA,NA,NA,NA,NA,NA,NA,NA,NA,NA,NA,NA,NA,NA,NA,NA,NA,NA,NA,NA,NA,NA,NA,NA,NA
SUPAMT15429,32SVAV9L3L861CRYTMBQH3206OS3AD,1BC19645-853C-40B0-B664-234BF4A9FADF,2023-09-27_18h27.25.052,WP_VExplicitOC_LH,2022.2.5,Win32,32.00102403,NA,NA,NA,NA,NA,NA,NA,NA,NA,NA,NA,NA,NA,NA,NA,NA,NA,NA,NA,NA,NA,NA,NA,NA,NA,NA,NA,NA,NA,NA,NA,NA,NA,NA,NA,NA,NA,NA,NA,NA,NA,NA,NA,NA,NA,NA,NA,NA,NA,NA,NA,NA,NA,NA,NA,NA,NA,NA,NA
SUPAMT15429,32SVAV9L3L861CRYTMBQH3206OS3AD,1BC19645-853C-40B0-B664-234BF4A9FADF,2023-09-27_18h27.25.052,WP_VExplicitOC_LH,2022.2.5,Win32,32.00102403,NA,NA,NA,NA,NA,NA,NA,NA,NA,NA,NA,NA,NA,NA,NA,NA,NA,NA,NA,NA,NA,NA,NA,NA,NA,NA,NA,NA,NA,NA,NA,NA,NA,NA,NA,NA,NA,NA,NA,NA,NA,NA,NA,NA,NA,NA,NA,NA,NA,NA,NA,NA,NA,NA,NA,NA,NA,NA,NA
SUPAMT15429,32SVAV9L3L861CRYTMBQH3206OS3AD,1BC19645-853C-40B0-B664-234BF4A9FADF,2023-09-27_18h27.25.052,WP_VExplicitOC_LH,2022.2.5,Win32,32.00102403,NA,NA,NA,NA,NA,NA,NA,NA,NA,NA,NA,NA,NA,NA,NA,NA,NA,NA,NA,NA,NA,NA,NA,NA,NA,NA,NA,NA,NA,NA,NA,NA,NA,NA,NA,NA,NA,NA,NA,NA,NA,NA,NA,NA,NA,NA,NA,NA,NA,NA,NA,NA,NA,NA,NA,NA,NA,NA,NA
SUPAMT15429,32SVAV9L3L861CRYTMBQH3206OS3AD,1BC19645-853C-40B0-B664-234BF4A9FADF,2023-09-27_18h27.25.052,WP_VExplicitOC_LH,2022.2.5,Win32,32.00102403,NA,NA,NA,NA,NA,NA,NA,NA,NA,NA,NA,13.89337641,1.7479,0,0,0,0,1,rest (looking at a fixed cross),001.png,NA,NA,NA,NA,NA,NA,NA,NA,NA,NA,NA,NA,NA,NA,NA,NA,NA,NA,NA,NA,NA,NA,NA,NA,NA,NA,NA,NA,NA,NA,NA,NA,NA,NA,NA,NA,NA,NA,NA
SUPAMT15429,32SVAV9L3L861CRYTMBQH3206OS3AD,1BC19645-853C-40B0-B664-234BF4A9FADF,2023-09-27_18h27.25.052,WP_VExplicitOC_LH,2022.2.5,Win32,32.00102403,NA,NA,NA,NA,NA,NA,NA,NA,NA,NA,NA,30.69466882,1.4126,0,1,1,1,1,stand up,002.png,NA,NA,NA,NA,NA,NA,NA,NA,NA,NA,NA,NA,NA,NA,NA,NA,NA,NA,NA,NA,NA,NA,NA,NA,NA,NA,NA,NA,NA,NA,NA,NA,NA,NA,NA,NA,NA,NA,NA
SUPAMT15429,32SVAV9L3L861CRYTMBQH3206OS3AD,1BC19645-853C-40B0-B664-234BF4A9FADF,2023-09-27_18h27.25.052,WP_VExplicitOC_LH,2022.2.5,Win32,32.00102403,NA,NA,NA,NA,NA,NA,NA,NA,NA,NA,NA,18.73990307,1.3743,0,2,2,2,1,stretch,003.png,NA,NA,NA,NA,NA,NA,NA,NA,NA,NA,NA,NA,NA,NA,NA,NA,NA,NA,NA,NA,NA,NA,NA,NA,NA,NA,NA,NA,NA,NA,NA,NA,NA,NA,NA,NA,NA,NA,NA
SUPAMT15429,32SVAV9L3L861CRYTMBQH3206OS3AD,1BC19645-853C-40B0-B664-234BF4A9FADF,2023-09-27_18h27.25.052,WP_VExplicitOC_LH,2022.2.5,Win32,32.00102403,NA,NA,NA,NA,NA,NA,NA,NA,NA,NA,NA,41.03392569,0.9084,0,3,3,3,1,make a drink,004.png,NA,NA,NA,NA,NA,NA,NA,NA,NA,NA,NA,NA,NA,NA,NA,NA,NA,NA,NA,NA,NA,NA,NA,NA,NA,NA,NA,NA,NA,NA,NA,NA,NA,NA,NA,NA,NA,NA,NA
SUPAMT15429,32SVAV9L3L861CRYTMBQH3206OS3AD,1BC19645-853C-40B0-B664-234BF4A9FADF,2023-09-27_18h27.25.052,WP_VExplicitOC_LH,2022.2.5,Win32,32.00102403,NA,NA,NA,NA,NA,NA,NA,NA,NA,NA,NA,22.94022617,1.1168,0,4,4,4,1,scroll social media,005.png,NA,NA,NA,NA,NA,NA,NA,NA,NA,NA,NA,NA,NA,NA,NA,NA,NA,NA,NA,NA,NA,NA,NA,NA,NA,NA,NA,NA,NA,NA,NA,NA,NA,NA,NA,NA,NA,NA,NA
SUPAMT15429,32SVAV9L3L861CRYTMBQH3206OS3AD,1BC19645-853C-40B0-B664-234BF4A9FADF,2023-09-27_18h27.25.052,WP_VExplicitOC_LH,2022.2.5,Win32,32.00102403,NA,NA,NA,NA,NA,NA,NA,NA,NA,NA,NA,39.4184168,0.8776,0,5,5,5,1,listen to music,006.png,NA,NA,NA,NA,NA,NA,NA,NA,NA,NA,NA,NA,NA,NA,NA,NA,NA,NA,NA,NA,NA,NA,NA,NA,NA,NA,NA,NA,NA,NA,NA,NA,NA,NA,NA,NA,NA,NA,NA
SUPAMT15429,32SVAV9L3L861CRYTMBQH3206OS3AD,1BC19645-853C-40B0-B664-234BF4A9FADF,2023-09-27_18h27.25.052,WP_VExplicitOC_LH,2022.2.5,Win32,32.00102403,NA,NA,NA,NA,NA,NA,NA,NA,NA,NA,NA,16.15508885,1.4123000000000001,0,6,6,6,1,daydream,007.png,NA,NA,NA,NA,NA,NA,NA,NA,NA,NA,NA,NA,NA,NA,NA,NA,NA,NA,NA,NA,NA,NA,NA,NA,NA,NA,NA,NA,NA,NA,NA,NA,NA,NA,NA,NA,NA,NA,NA
SUPAMT15429,32SVAV9L3L861CRYTMBQH3206OS3AD,1BC19645-853C-40B0-B664-234BF4A9FADF,2023-09-27_18h27.25.052,WP_VExplicitOC_LH,2022.2.5,Win32,32.00102403,NA,NA,NA,NA,NA,NA,NA,NA,NA,NA,NA,44.91114701,1.1005,0,7,7,7,1,watch a short animation,008.png,NA,NA,NA,NA,NA,NA,NA,NA,NA,NA,NA,NA,NA,NA,NA,NA,NA,NA,NA,NA,NA,NA,NA,NA,NA,NA,NA,NA,NA,NA,NA,NA,NA,NA,NA,NA,NA,NA,NA
SUPAMT15429,32SVAV9L3L861CRYTMBQH3206OS3AD,1BC19645-853C-40B0-B664-234BF4A9FADF,2023-09-27_18h27.25.052,WP_VExplicitOC_LH,2022.2.5,Win32,32.00102403,NA,NA,NA,NA,NA,NA,NA,NA,NA,NA,NA,20.03231018,1.0655,0,8,8,8,1,read a novel,009.png,NA,NA,NA,NA,NA,NA,NA,NA,NA,NA,NA,NA,NA,NA,NA,NA,NA,NA,NA,NA,NA,NA,NA,NA,NA,NA,NA,NA,NA,NA,NA,NA,NA,NA,NA,NA,NA,NA,NA
SUPAMT15429,32SVAV9L3L861CRYTMBQH3206OS3AD,1BC19645-853C-40B0-B664-234BF4A9FADF,2023-09-27_18h27.25.052,WP_VExplicitOC_LH,2022.2.5,Win32,32.00102403,NA,NA,NA,NA,NA,NA,NA,NA,NA,NA,NA,32.95638126,1.0385,0,9,9,9,1,read the news,010.png,NA,NA,NA,NA,NA,NA,NA,NA,NA,NA,NA,NA,NA,NA,NA,NA,NA,NA,NA,NA,NA,NA,NA,NA,NA,NA,NA,NA,NA,NA,NA,NA,NA,NA,NA,NA,NA,NA,NA
SUPAMT15429,32SVAV9L3L861CRYTMBQH3206OS3AD,1BC19645-853C-40B0-B664-234BF4A9FADF,2023-09-27_18h27.25.052,WP_VExplicitOC_LH,2022.2.5,Win32,32.00102403,NA,NA,NA,NA,NA,NA,NA,NA,NA,NA,NA,NA,NA,NA,NA,NA,NA,NA,NA,NA,NA,NA,NA,NA,NA,NA,NA,NA,NA,NA,NA,NA,NA,NA,NA,NA,NA,NA,NA,NA,NA,NA,NA,NA,NA,NA,NA,NA,NA,NA,NA,NA,NA,NA,NA,NA,NA,NA,NA
SUPAMT15429,32SVAV9L3L861CRYTMBQH3206OS3AD,1BC19645-853C-40B0-B664-234BF4A9FADF,2023-09-27_18h27.25.052,WP_VExplicitOC_LH,2022.2.5,Win32,32.00102403,NA,NA,NA,NA,NA,NA,NA,NA,NA,NA,NA,NA,NA,NA,NA,NA,NA,NA,NA,NA,daydream,NA,NA,NA,NA,NA,NA,NA,NA,NA,NA,NA,NA,NA,NA,NA,NA,NA,NA,NA,NA,NA,NA,NA,NA,NA,NA,NA,NA,NA,NA,NA,NA,NA,NA,NA,NA,NA,NA
SUPAMT15429,32SVAV9L3L861CRYTMBQH3206OS3AD,1BC19645-853C-40B0-B664-234BF4A9FADF,2023-09-27_18h27.25.052,WP_VExplicitOC_LH,2022.2.5,Win32,32.00102403,21.97092084,3.7023,2.0095,NA,NA,NA,NA,NA,frustrated,"frustrated, not frustrated","more frustrated, less frustrated",NA,NA,NA,NA,NA,NA,NA,NA,NA,NA,0,0,0,1,1,NA,NA,NA,NA,NA,NA,NA,NA,NA,NA,NA,NA,NA,NA,NA,NA,NA,NA,NA,NA,NA,NA,NA,NA,NA,NA,NA,NA,NA,NA,NA,NA,NA
SUPAMT15429,32SVAV9L3L861CRYTMBQH3206OS3AD,1BC19645-853C-40B0-B664-234BF4A9FADF,2023-09-27_18h27.25.052,WP_VExplicitOC_LH,2022.2.5,Win32,32.00102403,64.29725363,3.6309,2.0352,NA,NA,NA,NA,NA,happy,"unhappy, happy","less happy, more happy",NA,NA,NA,NA,NA,NA,NA,NA,NA,NA,0,1,1,0,1,NA,NA,NA,NA,NA,NA,NA,NA,NA,NA,NA,NA,NA,NA,NA,NA,NA,NA,NA,NA,NA,NA,NA,NA,NA,NA,NA,NA,NA,NA,NA,NA,NA
SUPAMT15429,32SVAV9L3L861CRYTMBQH3206OS3AD,1BC19645-853C-40B0-B664-234BF4A9FADF,2023-09-27_18h27.25.052,WP_VExplicitOC_LH,2022.2.5,Win32,32.00102403,17.44749596,3.3566,2.0334,NA,NA,NA,NA,NA,bored,"bored, not bored","more bored, less bored",NA,NA,NA,NA,NA,NA,NA,NA,NA,NA,0,2,2,2,1,NA,NA,NA,NA,NA,NA,NA,NA,NA,NA,NA,NA,NA,NA,NA,NA,NA,NA,NA,NA,NA,NA,NA,NA,NA,NA,NA,NA,NA,NA,NA,NA,NA
SUPAMT15429,32SVAV9L3L861CRYTMBQH3206OS3AD,1BC19645-853C-40B0-B664-234BF4A9FADF,2023-09-27_18h27.25.052,WP_VExplicitOC_LH,2022.2.5,Win32,32.00102403,NA,NA,NA,NA,NA,NA,NA,NA,NA,NA,NA,NA,NA,NA,NA,NA,NA,NA,NA,NA,NA,NA,NA,NA,NA,NA,NA,NA,NA,NA,NA,NA,NA,NA,NA,NA,NA,NA,NA,NA,NA,NA,NA,NA,NA,NA,NA,NA,NA,NA,NA,NA,NA,NA,NA,NA,NA,NA,NA
SUPAMT15429,32SVAV9L3L861CRYTMBQH3206OS3AD,1BC19645-853C-40B0-B664-234BF4A9FADF,2023-09-27_18h27.25.052,WP_VExplicitOC_LH,2022.2.5,Win32,32.00102403,NA,NA,NA,NA,NA,NA,NA,NA,NA,NA,NA,NA,NA,NA,NA,NA,NA,NA,NA,NA,NA,NA,NA,NA,NA,NA,NA,NA,NA,NA,NA,NA,NA,NA,NA,NA,NA,NA,NA,NA,NA,NA,NA,NA,NA,NA,NA,NA,NA,NA,NA,NA,NA,NA,NA,NA,NA,NA,NA
SUPAMT15429,32SVAV9L3L861CRYTMBQH3206OS3AD,1BC19645-853C-40B0-B664-234BF4A9FADF,2023-09-27_18h27.25.052,WP_VExplicitOC_LH,2022.2.5,Win32,32.00102403,23.9095315,3.884,2.0209,NA,NA,NA,NA,NA,bored,"bored, not bored","more bored, less bored",NA,NA,NA,NA,NA,NA,NA,NA,NA,NA,NA,NA,NA,NA,NA,0,0,0,2,1,NA,NA,NA,NA,NA,NA,NA,NA,NA,NA,NA,NA,NA,NA,NA,NA,NA,NA,NA,NA,NA,NA,NA,NA,NA,NA,NA,NA
SUPAMT15429,32SVAV9L3L861CRYTMBQH3206OS3AD,1BC19645-853C-40B0-B664-234BF4A9FADF,2023-09-27_18h27.25.052,WP_VExplicitOC_LH,2022.2.5,Win32,32.00102403,40.38772213,3.4617,2.0214,NA,NA,NA,NA,NA,happy,"unhappy, happy","less happy, more happy",NA,NA,NA,NA,NA,NA,NA,NA,NA,NA,NA,NA,NA,NA,NA,0,1,1,0,1,NA,NA,NA,NA,NA,NA,NA,NA,NA,NA,NA,NA,NA,NA,NA,NA,NA,NA,NA,NA,NA,NA,NA,NA,NA,NA,NA,NA
SUPAMT15429,32SVAV9L3L861CRYTMBQH3206OS3AD,1BC19645-853C-40B0-B664-234BF4A9FADF,2023-09-27_18h27.25.052,WP_VExplicitOC_LH,2022.2.5,Win32,32.00102403,14.21647819,3.44,2.0487,NA,NA,NA,NA,NA,frustrated,"frustrated, not frustrated","more frustrated, less frustrated",NA,NA,NA,NA,NA,NA,NA,NA,NA,NA,NA,NA,NA,NA,NA,0,2,2,1,1,NA,NA,NA,NA,NA,NA,NA,NA,NA,NA,NA,NA,NA,NA,NA,NA,NA,NA,NA,NA,NA,NA,NA,NA,NA,NA,NA,NA
SUPAMT15429,32SVAV9L3L861CRYTMBQH3206OS3AD,1BC19645-853C-40B0-B664-234BF4A9FADF,2023-09-27_18h27.25.052,WP_VExplicitOC_LH,2022.2.5,Win32,32.00102403,NA,NA,NA,NA,NA,NA,NA,NA,NA,NA,NA,NA,NA,NA,NA,NA,NA,NA,NA,NA,NA,NA,NA,NA,NA,NA,NA,NA,NA,NA,NA,0,0,0,0,1,NA,NA,NA,NA,NA,NA,NA,NA,NA,NA,NA,NA,NA,NA,NA,NA,NA,NA,NA,NA,NA,NA,NA
SUPAMT15429,32SVAV9L3L861CRYTMBQH3206OS3AD,1BC19645-853C-40B0-B664-234BF4A9FADF,2023-09-27_18h27.25.052,WP_VExplicitOC_LH,2022.2.5,Win32,32.00102403,26.49434572,4.6159,2.0361,NA,NA,NA,NA,NA,bored,"bored, not bored","more bored, less bored",NA,NA,NA,NA,NA,NA,NA,NA,NA,NA,NA,NA,NA,NA,NA,0,0,0,2,1,NA,NA,NA,NA,NA,NA,NA,NA,NA,NA,NA,NA,NA,NA,NA,NA,NA,NA,NA,NA,NA,NA,NA,NA,NA,NA,NA,NA
SUPAMT15429,32SVAV9L3L861CRYTMBQH3206OS3AD,1BC19645-853C-40B0-B664-234BF4A9FADF,2023-09-27_18h27.25.052,WP_VExplicitOC_LH,2022.2.5,Win32,32.00102403,18.41680129,3.162,2.0099,NA,NA,NA,NA,NA,frustrated,"frustrated, not frustrated","more frustrated, less frustrated",NA,NA,NA,NA,NA,NA,NA,NA,NA,NA,NA,NA,NA,NA,NA,0,1,1,1,1,NA,NA,NA,NA,NA,NA,NA,NA,NA,NA,NA,NA,NA,NA,NA,NA,NA,NA,NA,NA,NA,NA,NA,NA,NA,NA,NA,NA
SUPAMT15429,32SVAV9L3L861CRYTMBQH3206OS3AD,1BC19645-853C-40B0-B664-234BF4A9FADF,2023-09-27_18h27.25.052,WP_VExplicitOC_LH,2022.2.5,Win32,32.00102403,61.38933764,3.0091,2.0261,NA,NA,NA,NA,NA,happy,"unhappy, happy","less happy, more happy",NA,NA,NA,NA,NA,NA,NA,NA,NA,NA,NA,NA,NA,NA,NA,0,2,2,0,1,NA,NA,NA,NA,NA,NA,NA,NA,NA,NA,NA,NA,NA,NA,NA,NA,NA,NA,NA,NA,NA,NA,NA,NA,NA,NA,NA,NA
SUPAMT15429,32SVAV9L3L861CRYTMBQH3206OS3AD,1BC19645-853C-40B0-B664-234BF4A9FADF,2023-09-27_18h27.25.052,WP_VExplicitOC_LH,2022.2.5,Win32,32.00102403,NA,NA,NA,NA,NA,NA,NA,NA,NA,NA,NA,NA,NA,NA,NA,NA,NA,NA,NA,NA,NA,NA,NA,NA,NA,NA,NA,NA,NA,NA,NA,1,0,1,0,1,NA,NA,NA,NA,NA,NA,NA,NA,NA,NA,NA,NA,NA,NA,NA,NA,NA,NA,NA,NA,NA,NA,NA
SUPAMT15429,32SVAV9L3L861CRYTMBQH3206OS3AD,1BC19645-853C-40B0-B664-234BF4A9FADF,2023-09-27_18h27.25.052,WP_VExplicitOC_LH,2022.2.5,Win32,32.00102403,25.20193861,3.6193,2.0035,NA,NA,NA,NA,NA,happy,"unhappy, happy","less happy, more happy",NA,NA,NA,NA,NA,NA,NA,NA,NA,NA,NA,NA,NA,NA,NA,0,0,0,0,1,NA,NA,NA,NA,NA,NA,NA,NA,NA,NA,NA,NA,NA,NA,NA,NA,NA,NA,NA,NA,NA,NA,NA,NA,NA,NA,NA,NA
SUPAMT15429,32SVAV9L3L861CRYTMBQH3206OS3AD,1BC19645-853C-40B0-B664-234BF4A9FADF,2023-09-27_18h27.25.052,WP_VExplicitOC_LH,2022.2.5,Win32,32.00102403,19.06300485,3.4743,2.0126,NA,NA,NA,NA,NA,frustrated,"frustrated, not frustrated","more frustrated, less frustrated",NA,NA,NA,NA,NA,NA,NA,NA,NA,NA,NA,NA,NA,NA,NA,0,1,1,1,1,NA,NA,NA,NA,NA,NA,NA,NA,NA,NA,NA,NA,NA,NA,NA,NA,NA,NA,NA,NA,NA,NA,NA,NA,NA,NA,NA,NA
SUPAMT15429,32SVAV9L3L861CRYTMBQH3206OS3AD,1BC19645-853C-40B0-B664-234BF4A9FADF,2023-09-27_18h27.25.052,WP_VExplicitOC_LH,2022.2.5,Win32,32.00102403,30.04846527,3.8188,2.0189,NA,NA,NA,NA,NA,bored,"bored, not bored","more bored, less bored",NA,NA,NA,NA,NA,NA,NA,NA,NA,NA,NA,NA,NA,NA,NA,0,2,2,2,1,NA,NA,NA,NA,NA,NA,NA,NA,NA,NA,NA,NA,NA,NA,NA,NA,NA,NA,NA,NA,NA,NA,NA,NA,NA,NA,NA,NA
SUPAMT15429,32SVAV9L3L861CRYTMBQH3206OS3AD,1BC19645-853C-40B0-B664-234BF4A9FADF,2023-09-27_18h27.25.052,WP_VExplicitOC_LH,2022.2.5,Win32,32.00102403,NA,NA,NA,NA,NA,NA,NA,NA,NA,NA,NA,NA,NA,NA,NA,NA,NA,NA,NA,NA,NA,NA,NA,NA,NA,NA,NA,NA,NA,NA,NA,2,0,2,0,1,NA,NA,NA,NA,NA,NA,NA,NA,NA,NA,NA,NA,NA,NA,NA,NA,NA,NA,NA,NA,NA,NA,NA
SUPAMT15429,32SVAV9L3L861CRYTMBQH3206OS3AD,1BC19645-853C-40B0-B664-234BF4A9FADF,2023-09-27_18h27.25.052,WP_VExplicitOC_LH,2022.2.5,Win32,32.00102403,19.38610662,3.5109,2.0197,NA,NA,NA,NA,NA,frustrated,"frustrated, not frustrated","more frustrated, less frustrated",NA,NA,NA,NA,NA,NA,NA,NA,NA,NA,NA,NA,NA,NA,NA,0,0,0,1,1,NA,NA,NA,NA,NA,NA,NA,NA,NA,NA,NA,NA,NA,NA,NA,NA,NA,NA,NA,NA,NA,NA,NA,NA,NA,NA,NA,NA
SUPAMT15429,32SVAV9L3L861CRYTMBQH3206OS3AD,1BC19645-853C-40B0-B664-234BF4A9FADF,2023-09-27_18h27.25.052,WP_VExplicitOC_LH,2022.2.5,Win32,32.00102403,23.9095315,3.5667,2.0261,NA,NA,NA,NA,NA,bored,"bored, not bored","more bored, less bored",NA,NA,NA,NA,NA,NA,NA,NA,NA,NA,NA,NA,NA,NA,NA,0,1,1,2,1,NA,NA,NA,NA,NA,NA,NA,NA,NA,NA,NA,NA,NA,NA,NA,NA,NA,NA,NA,NA,NA,NA,NA,NA,NA,NA,NA,NA
SUPAMT15429,32SVAV9L3L861CRYTMBQH3206OS3AD,1BC19645-853C-40B0-B664-234BF4A9FADF,2023-09-27_18h27.25.052,WP_VExplicitOC_LH,2022.2.5,Win32,32.00102403,68.49757674,3.1748,2.0262,NA,NA,NA,NA,NA,happy,"unhappy, happy","less happy, more happy",NA,NA,NA,NA,NA,NA,NA,NA,NA,NA,NA,NA,NA,NA,NA,0,2,2,0,1,NA,NA,NA,NA,NA,NA,NA,NA,NA,NA,NA,NA,NA,NA,NA,NA,NA,NA,NA,NA,NA,NA,NA,NA,NA,NA,NA,NA
SUPAMT15429,32SVAV9L3L861CRYTMBQH3206OS3AD,1BC19645-853C-40B0-B664-234BF4A9FADF,2023-09-27_18h27.25.052,WP_VExplicitOC_LH,2022.2.5,Win32,32.00102403,NA,NA,NA,NA,NA,NA,NA,NA,NA,NA,NA,NA,NA,NA,NA,NA,NA,NA,NA,NA,NA,NA,NA,NA,NA,NA,NA,NA,NA,NA,NA,3,0,3,0,1,NA,NA,NA,NA,NA,NA,NA,NA,NA,NA,NA,NA,NA,NA,NA,NA,NA,NA,NA,NA,NA,NA,NA
SUPAMT15429,32SVAV9L3L861CRYTMBQH3206OS3AD,1BC19645-853C-40B0-B664-234BF4A9FADF,2023-09-27_18h27.25.052,WP_VExplicitOC_LH,2022.2.5,Win32,32.00102403,NA,NA,2.0096,NA,NA,NA,NA,NA,bored,"bored, not bored","more bored, less bored",NA,NA,NA,NA,NA,NA,NA,NA,NA,NA,NA,NA,NA,NA,NA,0,0,0,2,1,NA,NA,NA,NA,NA,NA,NA,NA,NA,NA,NA,NA,NA,NA,NA,NA,NA,NA,NA,NA,NA,NA,NA,NA,NA,NA,NA,NA
SUPAMT15429,32SVAV9L3L861CRYTMBQH3206OS3AD,1BC19645-853C-40B0-B664-234BF4A9FADF,2023-09-27_18h27.25.052,WP_VExplicitOC_LH,2022.2.5,Win32,32.00102403,15.5088853,3.4617,2.0474,NA,NA,NA,NA,NA,frustrated,"frustrated, not frustrated","more frustrated, less frustrated",NA,NA,NA,NA,NA,NA,NA,NA,NA,NA,NA,NA,NA,NA,NA,0,1,1,1,1,NA,NA,NA,NA,NA,NA,NA,NA,NA,NA,NA,NA,NA,NA,NA,NA,NA,NA,NA,NA,NA,NA,NA,NA,NA,NA,NA,NA
SUPAMT15429,32SVAV9L3L861CRYTMBQH3206OS3AD,1BC19645-853C-40B0-B664-234BF4A9FADF,2023-09-27_18h27.25.052,WP_VExplicitOC_LH,2022.2.5,Win32,32.00102403,56.86591276,2.897,2.0363,NA,NA,NA,NA,NA,happy,"unhappy, happy","less happy, more happy",NA,NA,NA,NA,NA,NA,NA,NA,NA,NA,NA,NA,NA,NA,NA,0,2,2,0,1,NA,NA,NA,NA,NA,NA,NA,NA,NA,NA,NA,NA,NA,NA,NA,NA,NA,NA,NA,NA,NA,NA,NA,NA,NA,NA,NA,NA
SUPAMT15429,32SVAV9L3L861CRYTMBQH3206OS3AD,1BC19645-853C-40B0-B664-234BF4A9FADF,2023-09-27_18h27.25.052,WP_VExplicitOC_LH,2022.2.5,Win32,32.00102403,NA,NA,NA,NA,NA,NA,NA,NA,NA,NA,NA,NA,NA,NA,NA,NA,NA,NA,NA,NA,NA,NA,NA,NA,NA,NA,NA,NA,NA,NA,NA,4,0,4,0,1,NA,NA,NA,NA,NA,NA,NA,NA,NA,NA,NA,NA,NA,NA,NA,NA,NA,NA,NA,NA,NA,NA,NA
SUPAMT15429,32SVAV9L3L861CRYTMBQH3206OS3AD,1BC19645-853C-40B0-B664-234BF4A9FADF,2023-09-27_18h27.25.052,WP_VExplicitOC_LH,2022.2.5,Win32,32.00102403,60.74313409,3.8224,2.0195,NA,NA,NA,NA,NA,happy,"unhappy, happy","less happy, more happy",NA,NA,NA,NA,NA,NA,NA,NA,NA,NA,NA,NA,NA,NA,NA,0,0,0,0,1,NA,NA,NA,NA,NA,NA,NA,NA,NA,NA,NA,NA,NA,NA,NA,NA,NA,NA,NA,NA,NA,NA,NA,NA,NA,NA,NA,NA
SUPAMT15429,32SVAV9L3L861CRYTMBQH3206OS3AD,1BC19645-853C-40B0-B664-234BF4A9FADF,2023-09-27_18h27.25.052,WP_VExplicitOC_LH,2022.2.5,Win32,32.00102403,22.94022617,3.7632,2.0371,NA,NA,NA,NA,NA,frustrated,"frustrated, not frustrated","more frustrated, less frustrated",NA,NA,NA,NA,NA,NA,NA,NA,NA,NA,NA,NA,NA,NA,NA,0,1,1,1,1,NA,NA,NA,NA,NA,NA,NA,NA,NA,NA,NA,NA,NA,NA,NA,NA,NA,NA,NA,NA,NA,NA,NA,NA,NA,NA,NA,NA
SUPAMT15429,32SVAV9L3L861CRYTMBQH3206OS3AD,1BC19645-853C-40B0-B664-234BF4A9FADF,2023-09-27_18h27.25.052,WP_VExplicitOC_LH,2022.2.5,Win32,32.00102403,18.09369952,3.3604,2.0339,NA,NA,NA,NA,NA,bored,"bored, not bored","more bored, less bored",NA,NA,NA,NA,NA,NA,NA,NA,NA,NA,NA,NA,NA,NA,NA,0,2,2,2,1,NA,NA,NA,NA,NA,NA,NA,NA,NA,NA,NA,NA,NA,NA,NA,NA,NA,NA,NA,NA,NA,NA,NA,NA,NA,NA,NA,NA
SUPAMT15429,32SVAV9L3L861CRYTMBQH3206OS3AD,1BC19645-853C-40B0-B664-234BF4A9FADF,2023-09-27_18h27.25.052,WP_VExplicitOC_LH,2022.2.5,Win32,32.00102403,NA,NA,NA,NA,NA,NA,NA,NA,NA,NA,NA,NA,NA,NA,NA,NA,NA,NA,NA,NA,NA,NA,NA,NA,NA,NA,NA,NA,NA,NA,NA,5,0,5,0,1,NA,NA,NA,NA,NA,NA,NA,NA,NA,NA,NA,NA,NA,NA,NA,NA,NA,NA,NA,NA,NA,NA,NA
SUPAMT15429,32SVAV9L3L861CRYTMBQH3206OS3AD,1BC19645-853C-40B0-B664-234BF4A9FADF,2023-09-27_18h27.25.052,WP_VExplicitOC_LH,2022.2.5,Win32,32.00102403,15.18578352,3.5188,2.0142,NA,NA,NA,NA,NA,frustrated,"frustrated, not frustrated","more frustrated, less frustrated",NA,NA,NA,NA,NA,NA,NA,NA,NA,NA,NA,NA,NA,NA,NA,0,0,0,1,1,NA,NA,NA,NA,NA,NA,NA,NA,NA,NA,NA,NA,NA,NA,NA,NA,NA,NA,NA,NA,NA,NA,NA,NA,NA,NA,NA,NA
SUPAMT15429,32SVAV9L3L861CRYTMBQH3206OS3AD,1BC19645-853C-40B0-B664-234BF4A9FADF,2023-09-27_18h27.25.052,WP_VExplicitOC_LH,2022.2.5,Win32,32.00102403,39.09531502,2.9426,2.0033,NA,NA,NA,NA,NA,bored,"bored, not bored","more bored, less bored",NA,NA,NA,NA,NA,NA,NA,NA,NA,NA,NA,NA,NA,NA,NA,0,1,1,2,1,NA,NA,NA,NA,NA,NA,NA,NA,NA,NA,NA,NA,NA,NA,NA,NA,NA,NA,NA,NA,NA,NA,NA,NA,NA,NA,NA,NA
SUPAMT15429,32SVAV9L3L861CRYTMBQH3206OS3AD,1BC19645-853C-40B0-B664-234BF4A9FADF,2023-09-27_18h27.25.052,WP_VExplicitOC_LH,2022.2.5,Win32,32.00102403,64.94345719,3.2217,2.025,NA,NA,NA,NA,NA,happy,"unhappy, happy","less happy, more happy",NA,NA,NA,NA,NA,NA,NA,NA,NA,NA,NA,NA,NA,NA,NA,0,2,2,0,1,NA,NA,NA,NA,NA,NA,NA,NA,NA,NA,NA,NA,NA,NA,NA,NA,NA,NA,NA,NA,NA,NA,NA,NA,NA,NA,NA,NA
SUPAMT15429,32SVAV9L3L861CRYTMBQH3206OS3AD,1BC19645-853C-40B0-B664-234BF4A9FADF,2023-09-27_18h27.25.052,WP_VExplicitOC_LH,2022.2.5,Win32,32.00102403,NA,NA,NA,NA,NA,NA,NA,NA,NA,NA,NA,NA,NA,NA,NA,NA,NA,NA,NA,NA,NA,NA,NA,NA,NA,NA,NA,NA,NA,NA,NA,6,0,6,0,1,NA,NA,NA,NA,NA,NA,NA,NA,NA,NA,NA,NA,NA,NA,NA,NA,NA,NA,NA,NA,NA,NA,NA
SUPAMT15429,32SVAV9L3L861CRYTMBQH3206OS3AD,1BC19645-853C-40B0-B664-234BF4A9FADF,2023-09-27_18h27.25.052,WP_VExplicitOC_LH,2022.2.5,Win32,32.00102403,18.41680129,3.4427,2.0037,NA,NA,NA,NA,NA,bored,"bored, not bored","more bored, less bored",NA,NA,NA,NA,NA,NA,NA,NA,NA,NA,NA,NA,NA,NA,NA,0,0,0,2,1,NA,NA,NA,NA,NA,NA,NA,NA,NA,NA,NA,NA,NA,NA,NA,NA,NA,NA,NA,NA,NA,NA,NA,NA,NA,NA,NA,NA
SUPAMT15429,32SVAV9L3L861CRYTMBQH3206OS3AD,1BC19645-853C-40B0-B664-234BF4A9FADF,2023-09-27_18h27.25.052,WP_VExplicitOC_LH,2022.2.5,Win32,32.00102403,35.54119548,3.0201,2.0108,NA,NA,NA,NA,NA,frustrated,"frustrated, not frustrated","more frustrated, less frustrated",NA,NA,NA,NA,NA,NA,NA,NA,NA,NA,NA,NA,NA,NA,NA,0,1,1,1,1,NA,NA,NA,NA,NA,NA,NA,NA,NA,NA,NA,NA,NA,NA,NA,NA,NA,NA,NA,NA,NA,NA,NA,NA,NA,NA,NA,NA
SUPAMT15429,32SVAV9L3L861CRYTMBQH3206OS3AD,1BC19645-853C-40B0-B664-234BF4A9FADF,2023-09-27_18h27.25.052,WP_VExplicitOC_LH,2022.2.5,Win32,32.00102403,54.9273021,3.4091,2.0304,NA,NA,NA,NA,NA,happy,"unhappy, happy","less happy, more happy",NA,NA,NA,NA,NA,NA,NA,NA,NA,NA,NA,NA,NA,NA,NA,0,2,2,0,1,NA,NA,NA,NA,NA,NA,NA,NA,NA,NA,NA,NA,NA,NA,NA,NA,NA,NA,NA,NA,NA,NA,NA,NA,NA,NA,NA,NA
SUPAMT15429,32SVAV9L3L861CRYTMBQH3206OS3AD,1BC19645-853C-40B0-B664-234BF4A9FADF,2023-09-27_18h27.25.052,WP_VExplicitOC_LH,2022.2.5,Win32,32.00102403,NA,NA,NA,NA,NA,NA,NA,NA,NA,NA,NA,NA,NA,NA,NA,NA,NA,NA,NA,NA,NA,NA,NA,NA,NA,NA,NA,NA,NA,NA,NA,7,0,7,0,1,NA,NA,NA,NA,NA,NA,NA,NA,NA,NA,NA,NA,NA,NA,NA,NA,NA,NA,NA,NA,NA,NA,NA
SUPAMT15429,32SVAV9L3L861CRYTMBQH3206OS3AD,1BC19645-853C-40B0-B664-234BF4A9FADF,2023-09-27_18h27.25.052,WP_VExplicitOC_LH,2022.2.5,Win32,32.00102403,18.09369952,3.427,2.0145,NA,NA,NA,NA,NA,bored,"bored, not bored","more bored, less bored",NA,NA,NA,NA,NA,NA,NA,NA,NA,NA,NA,NA,NA,NA,NA,0,0,0,2,1,NA,NA,NA,NA,NA,NA,NA,NA,NA,NA,NA,NA,NA,NA,NA,NA,NA,NA,NA,NA,NA,NA,NA,NA,NA,NA,NA,NA
SUPAMT15429,32SVAV9L3L861CRYTMBQH3206OS3AD,1BC19645-853C-40B0-B664-234BF4A9FADF,2023-09-27_18h27.25.052,WP_VExplicitOC_LH,2022.2.5,Win32,32.00102403,36.83360258,3.1893,2.0263,NA,NA,NA,NA,NA,frustrated,"frustrated, not frustrated","more frustrated, less frustrated",NA,NA,NA,NA,NA,NA,NA,NA,NA,NA,NA,NA,NA,NA,NA,0,1,1,1,1,NA,NA,NA,NA,NA,NA,NA,NA,NA,NA,NA,NA,NA,NA,NA,NA,NA,NA,NA,NA,NA,NA,NA,NA,NA,NA,NA,NA
SUPAMT15429,32SVAV9L3L861CRYTMBQH3206OS3AD,1BC19645-853C-40B0-B664-234BF4A9FADF,2023-09-27_18h27.25.052,WP_VExplicitOC_LH,2022.2.5,Win32,32.00102403,50.726979,3.0999,2.0065,NA,NA,NA,NA,NA,happy,"unhappy, happy","less happy, more happy",NA,NA,NA,NA,NA,NA,NA,NA,NA,NA,NA,NA,NA,NA,NA,0,2,2,0,1,NA,NA,NA,NA,NA,NA,NA,NA,NA,NA,NA,NA,NA,NA,NA,NA,NA,NA,NA,NA,NA,NA,NA,NA,NA,NA,NA,NA
SUPAMT15429,32SVAV9L3L861CRYTMBQH3206OS3AD,1BC19645-853C-40B0-B664-234BF4A9FADF,2023-09-27_18h27.25.052,WP_VExplicitOC_LH,2022.2.5,Win32,32.00102403,NA,NA,NA,NA,NA,NA,NA,NA,NA,NA,NA,NA,NA,NA,NA,NA,NA,NA,NA,NA,NA,NA,NA,NA,NA,NA,NA,NA,NA,NA,NA,8,0,8,0,1,NA,NA,NA,NA,NA,NA,NA,NA,NA,NA,NA,NA,NA,NA,NA,NA,NA,NA,NA,NA,NA,NA,NA
SUPAMT15429,32SVAV9L3L861CRYTMBQH3206OS3AD,1BC19645-853C-40B0-B664-234BF4A9FADF,2023-09-27_18h27.25.052,WP_VExplicitOC_LH,2022.2.5,Win32,32.00102403,17.44749596,3.4181,2.0098,NA,NA,NA,NA,NA,frustrated,"frustrated, not frustrated","more frustrated, less frustrated",NA,NA,NA,NA,NA,NA,NA,NA,NA,NA,NA,NA,NA,NA,NA,0,0,0,1,1,NA,NA,NA,NA,NA,NA,NA,NA,NA,NA,NA,NA,NA,NA,NA,NA,NA,NA,NA,NA,NA,NA,NA,NA,NA,NA,NA,NA
SUPAMT15429,32SVAV9L3L861CRYTMBQH3206OS3AD,1BC19645-853C-40B0-B664-234BF4A9FADF,2023-09-27_18h27.25.052,WP_VExplicitOC_LH,2022.2.5,Win32,32.00102403,63.3279483,3.5166,2.0491,NA,NA,NA,NA,NA,happy,"unhappy, happy","less happy, more happy",NA,NA,NA,NA,NA,NA,NA,NA,NA,NA,NA,NA,NA,NA,NA,0,1,1,0,1,NA,NA,NA,NA,NA,NA,NA,NA,NA,NA,NA,NA,NA,NA,NA,NA,NA,NA,NA,NA,NA,NA,NA,NA,NA,NA,NA,NA
SUPAMT15429,32SVAV9L3L861CRYTMBQH3206OS3AD,1BC19645-853C-40B0-B664-234BF4A9FADF,2023-09-27_18h27.25.052,WP_VExplicitOC_LH,2022.2.5,Win32,32.00102403,20.35541195,3.1211,2.0149,NA,NA,NA,NA,NA,bored,"bored, not bored","more bored, less bored",NA,NA,NA,NA,NA,NA,NA,NA,NA,NA,NA,NA,NA,NA,NA,0,2,2,2,1,NA,NA,NA,NA,NA,NA,NA,NA,NA,NA,NA,NA,NA,NA,NA,NA,NA,NA,NA,NA,NA,NA,NA,NA,NA,NA,NA,NA
SUPAMT15429,32SVAV9L3L861CRYTMBQH3206OS3AD,1BC19645-853C-40B0-B664-234BF4A9FADF,2023-09-27_18h27.25.052,WP_VExplicitOC_LH,2022.2.5,Win32,32.00102403,NA,NA,NA,NA,NA,NA,NA,NA,NA,NA,NA,NA,NA,NA,NA,NA,NA,NA,NA,NA,NA,NA,NA,NA,NA,NA,NA,NA,NA,NA,NA,9,0,9,0,1,NA,NA,NA,NA,NA,NA,NA,NA,NA,NA,NA,NA,NA,NA,NA,NA,NA,NA,NA,NA,NA,NA,NA
SUPAMT15429,32SVAV9L3L861CRYTMBQH3206OS3AD,1BC19645-853C-40B0-B664-234BF4A9FADF,2023-09-27_18h27.25.052,WP_VExplicitOC_LH,2022.2.5,Win32,32.00102403,18.09369952,3.507,2.0399,NA,NA,NA,NA,NA,bored,"bored, not bored","more bored, less bored",NA,NA,NA,NA,NA,NA,NA,NA,NA,NA,NA,NA,NA,NA,NA,0,0,0,2,1,NA,NA,NA,NA,NA,NA,NA,NA,NA,NA,NA,NA,NA,NA,NA,NA,NA,NA,NA,NA,NA,NA,NA,NA,NA,NA,NA,NA
SUPAMT15429,32SVAV9L3L861CRYTMBQH3206OS3AD,1BC19645-853C-40B0-B664-234BF4A9FADF,2023-09-27_18h27.25.052,WP_VExplicitOC_LH,2022.2.5,Win32,32.00102403,73.99030695,3.3027,2.0037,NA,NA,NA,NA,NA,happy,"unhappy, happy","less happy, more happy",NA,NA,NA,NA,NA,NA,NA,NA,NA,NA,NA,NA,NA,NA,NA,0,1,1,0,1,NA,NA,NA,NA,NA,NA,NA,NA,NA,NA,NA,NA,NA,NA,NA,NA,NA,NA,NA,NA,NA,NA,NA,NA,NA,NA,NA,NA
SUPAMT15429,32SVAV9L3L861CRYTMBQH3206OS3AD,1BC19645-853C-40B0-B664-234BF4A9FADF,2023-09-27_18h27.25.052,WP_VExplicitOC_LH,2022.2.5,Win32,32.00102403,18.09369952,3.2859,2.0276,NA,NA,NA,NA,NA,frustrated,"frustrated, not frustrated","more frustrated, less frustrated",NA,NA,NA,NA,NA,NA,NA,NA,NA,NA,NA,NA,NA,NA,NA,0,2,2,1,1,NA,NA,NA,NA,NA,NA,NA,NA,NA,NA,NA,NA,NA,NA,NA,NA,NA,NA,NA,NA,NA,NA,NA,NA,NA,NA,NA,NA
SUPAMT15429,32SVAV9L3L861CRYTMBQH3206OS3AD,1BC19645-853C-40B0-B664-234BF4A9FADF,2023-09-27_18h27.25.052,WP_VExplicitOC_LH,2022.2.5,Win32,32.00102403,NA,NA,NA,NA,NA,NA,NA,NA,NA,NA,NA,NA,NA,NA,NA,NA,NA,NA,NA,NA,NA,NA,NA,NA,NA,NA,NA,NA,NA,NA,NA,10,0,10,0,1,NA,NA,NA,NA,NA,NA,NA,NA,NA,NA,NA,NA,NA,NA,NA,NA,NA,NA,NA,NA,NA,NA,NA
SUPAMT15429,32SVAV9L3L861CRYTMBQH3206OS3AD,1BC19645-853C-40B0-B664-234BF4A9FADF,2023-09-27_18h27.25.052,WP_VExplicitOC_LH,2022.2.5,Win32,32.00102403,17.77059774,3.915,2.0119,NA,NA,NA,NA,NA,bored,"bored, not bored","more bored, less bored",NA,NA,NA,NA,NA,NA,NA,NA,NA,NA,NA,NA,NA,NA,NA,0,0,0,2,1,NA,NA,NA,NA,NA,NA,NA,NA,NA,NA,NA,NA,NA,NA,NA,NA,NA,NA,NA,NA,NA,NA,NA,NA,NA,NA,NA,NA
SUPAMT15429,32SVAV9L3L861CRYTMBQH3206OS3AD,1BC19645-853C-40B0-B664-234BF4A9FADF,2023-09-27_18h27.25.052,WP_VExplicitOC_LH,2022.2.5,Win32,32.00102403,60.74313409,4.0026,2.0435,NA,NA,NA,NA,NA,happy,"unhappy, happy","less happy, more happy",NA,NA,NA,NA,NA,NA,NA,NA,NA,NA,NA,NA,NA,NA,NA,0,1,1,0,1,NA,NA,NA,NA,NA,NA,NA,NA,NA,NA,NA,NA,NA,NA,NA,NA,NA,NA,NA,NA,NA,NA,NA,NA,NA,NA,NA,NA
SUPAMT15429,32SVAV9L3L861CRYTMBQH3206OS3AD,1BC19645-853C-40B0-B664-234BF4A9FADF,2023-09-27_18h27.25.052,WP_VExplicitOC_LH,2022.2.5,Win32,32.00102403,15.5088853,3.5968,2.0065,NA,NA,NA,NA,NA,frustrated,"frustrated, not frustrated","more frustrated, less frustrated",NA,NA,NA,NA,NA,NA,NA,NA,NA,NA,NA,NA,NA,NA,NA,0,2,2,1,1,NA,NA,NA,NA,NA,NA,NA,NA,NA,NA,NA,NA,NA,NA,NA,NA,NA,NA,NA,NA,NA,NA,NA,NA,NA,NA,NA,NA
SUPAMT15429,32SVAV9L3L861CRYTMBQH3206OS3AD,1BC19645-853C-40B0-B664-234BF4A9FADF,2023-09-27_18h27.25.052,WP_VExplicitOC_LH,2022.2.5,Win32,32.00102403,NA,NA,NA,NA,NA,NA,NA,NA,NA,NA,NA,NA,NA,NA,NA,NA,NA,NA,NA,NA,NA,NA,NA,NA,NA,NA,NA,NA,NA,NA,NA,11,0,11,0,1,NA,NA,NA,NA,NA,NA,NA,NA,NA,NA,NA,NA,NA,NA,NA,NA,NA,NA,NA,NA,NA,NA,NA
SUPAMT15429,32SVAV9L3L861CRYTMBQH3206OS3AD,1BC19645-853C-40B0-B664-234BF4A9FADF,2023-09-27_18h27.25.052,WP_VExplicitOC_LH,2022.2.5,Win32,32.00102403,31.0177706,6.0664,2.0369,NA,NA,NA,NA,NA,happy,"unhappy, happy","less happy, more happy",NA,NA,NA,NA,NA,NA,NA,NA,NA,NA,NA,NA,NA,NA,NA,0,0,0,0,1,NA,NA,NA,NA,NA,NA,NA,NA,NA,NA,NA,NA,NA,NA,NA,NA,NA,NA,NA,NA,NA,NA,NA,NA,NA,NA,NA,NA
SUPAMT15429,32SVAV9L3L861CRYTMBQH3206OS3AD,1BC19645-853C-40B0-B664-234BF4A9FADF,2023-09-27_18h27.25.052,WP_VExplicitOC_LH,2022.2.5,Win32,32.00102403,18.09369952,3.24,2.0054,NA,NA,NA,NA,NA,frustrated,"frustrated, not frustrated","more frustrated, less frustrated",NA,NA,NA,NA,NA,NA,NA,NA,NA,NA,NA,NA,NA,NA,NA,0,1,1,1,1,NA,NA,NA,NA,NA,NA,NA,NA,NA,NA,NA,NA,NA,NA,NA,NA,NA,NA,NA,NA,NA,NA,NA,NA,NA,NA,NA,NA
SUPAMT15429,32SVAV9L3L861CRYTMBQH3206OS3AD,1BC19645-853C-40B0-B664-234BF4A9FADF,2023-09-27_18h27.25.052,WP_VExplicitOC_LH,2022.2.5,Win32,32.00102403,29.07915994,3.3016,2.0419,NA,NA,NA,NA,NA,bored,"bored, not bored","more bored, less bored",NA,NA,NA,NA,NA,NA,NA,NA,NA,NA,NA,NA,NA,NA,NA,0,2,2,2,1,NA,NA,NA,NA,NA,NA,NA,NA,NA,NA,NA,NA,NA,NA,NA,NA,NA,NA,NA,NA,NA,NA,NA,NA,NA,NA,NA,NA
SUPAMT15429,32SVAV9L3L861CRYTMBQH3206OS3AD,1BC19645-853C-40B0-B664-234BF4A9FADF,2023-09-27_18h27.25.052,WP_VExplicitOC_LH,2022.2.5,Win32,32.00102403,NA,NA,NA,NA,NA,NA,NA,NA,NA,NA,NA,NA,NA,NA,NA,NA,NA,NA,NA,NA,NA,NA,NA,NA,NA,NA,NA,NA,NA,NA,NA,12,0,12,0,1,NA,NA,NA,NA,NA,NA,NA,NA,NA,NA,NA,NA,NA,NA,NA,NA,NA,NA,NA,NA,NA,NA,NA
SUPAMT15429,32SVAV9L3L861CRYTMBQH3206OS3AD,1BC19645-853C-40B0-B664-234BF4A9FADF,2023-09-27_18h27.25.052,WP_VExplicitOC_LH,2022.2.5,Win32,32.00102403,54.60420032,6.8452,2.0043,NA,NA,NA,NA,NA,happy,"unhappy, happy","less happy, more happy",NA,NA,NA,NA,NA,NA,NA,NA,NA,NA,NA,NA,NA,NA,NA,0,0,0,0,1,NA,NA,NA,NA,NA,NA,NA,NA,NA,NA,NA,NA,NA,NA,NA,NA,NA,NA,NA,NA,NA,NA,NA,NA,NA,NA,NA,NA
SUPAMT15429,32SVAV9L3L861CRYTMBQH3206OS3AD,1BC19645-853C-40B0-B664-234BF4A9FADF,2023-09-27_18h27.25.052,WP_VExplicitOC_LH,2022.2.5,Win32,32.00102403,15.83198708,3.5615,2.0235,NA,NA,NA,NA,NA,frustrated,"frustrated, not frustrated","more frustrated, less frustrated",NA,NA,NA,NA,NA,NA,NA,NA,NA,NA,NA,NA,NA,NA,NA,0,1,1,1,1,NA,NA,NA,NA,NA,NA,NA,NA,NA,NA,NA,NA,NA,NA,NA,NA,NA,NA,NA,NA,NA,NA,NA,NA,NA,NA,NA,NA
SUPAMT15429,32SVAV9L3L861CRYTMBQH3206OS3AD,1BC19645-853C-40B0-B664-234BF4A9FADF,2023-09-27_18h27.25.052,WP_VExplicitOC_LH,2022.2.5,Win32,32.00102403,27.14054927,4.1417,2.0072,NA,NA,NA,NA,NA,bored,"bored, not bored","more bored, less bored",NA,NA,NA,NA,NA,NA,NA,NA,NA,NA,NA,NA,NA,NA,NA,0,2,2,2,1,NA,NA,NA,NA,NA,NA,NA,NA,NA,NA,NA,NA,NA,NA,NA,NA,NA,NA,NA,NA,NA,NA,NA,NA,NA,NA,NA,NA
SUPAMT15429,32SVAV9L3L861CRYTMBQH3206OS3AD,1BC19645-853C-40B0-B664-234BF4A9FADF,2023-09-27_18h27.25.052,WP_VExplicitOC_LH,2022.2.5,Win32,32.00102403,NA,NA,NA,NA,NA,NA,NA,NA,NA,NA,NA,NA,NA,NA,NA,NA,NA,NA,NA,NA,NA,NA,NA,NA,NA,NA,NA,NA,NA,NA,NA,13,0,13,0,1,NA,NA,NA,NA,NA,NA,NA,NA,NA,NA,NA,NA,NA,NA,NA,NA,NA,NA,NA,NA,NA,NA,NA
SUPAMT15429,32SVAV9L3L861CRYTMBQH3206OS3AD,1BC19645-853C-40B0-B664-234BF4A9FADF,2023-09-27_18h27.25.052,WP_VExplicitOC_LH,2022.2.5,Win32,32.00102403,15.83198708,3.3659,2.0153,NA,NA,NA,NA,NA,bored,"bored, not bored","more bored, less bored",NA,NA,NA,NA,NA,NA,NA,NA,NA,NA,NA,NA,NA,NA,NA,0,0,0,2,1,NA,NA,NA,NA,NA,NA,NA,NA,NA,NA,NA,NA,NA,NA,NA,NA,NA,NA,NA,NA,NA,NA,NA,NA,NA,NA,NA,NA
SUPAMT15429,32SVAV9L3L861CRYTMBQH3206OS3AD,1BC19645-853C-40B0-B664-234BF4A9FADF,2023-09-27_18h27.25.052,WP_VExplicitOC_LH,2022.2.5,Win32,32.00102403,60.09693053,3.3459,2.0271,NA,NA,NA,NA,NA,happy,"unhappy, happy","less happy, more happy",NA,NA,NA,NA,NA,NA,NA,NA,NA,NA,NA,NA,NA,NA,NA,0,1,1,0,1,NA,NA,NA,NA,NA,NA,NA,NA,NA,NA,NA,NA,NA,NA,NA,NA,NA,NA,NA,NA,NA,NA,NA,NA,NA,NA,NA,NA
SUPAMT15429,32SVAV9L3L861CRYTMBQH3206OS3AD,1BC19645-853C-40B0-B664-234BF4A9FADF,2023-09-27_18h27.25.052,WP_VExplicitOC_LH,2022.2.5,Win32,32.00102403,14.86268174,3.2373,2.0501,NA,NA,NA,NA,NA,frustrated,"frustrated, not frustrated","more frustrated, less frustrated",NA,NA,NA,NA,NA,NA,NA,NA,NA,NA,NA,NA,NA,NA,NA,0,2,2,1,1,NA,NA,NA,NA,NA,NA,NA,NA,NA,NA,NA,NA,NA,NA,NA,NA,NA,NA,NA,NA,NA,NA,NA,NA,NA,NA,NA,NA
SUPAMT15429,32SVAV9L3L861CRYTMBQH3206OS3AD,1BC19645-853C-40B0-B664-234BF4A9FADF,2023-09-27_18h27.25.052,WP_VExplicitOC_LH,2022.2.5,Win32,32.00102403,NA,NA,NA,NA,NA,NA,NA,NA,NA,NA,NA,NA,NA,NA,NA,NA,NA,NA,NA,NA,NA,NA,NA,NA,NA,NA,NA,NA,NA,NA,NA,14,0,14,0,1,NA,NA,NA,NA,NA,NA,NA,NA,NA,NA,NA,NA,NA,NA,NA,NA,NA,NA,NA,NA,NA,NA,NA
SUPAMT15429,32SVAV9L3L861CRYTMBQH3206OS3AD,1BC19645-853C-40B0-B664-234BF4A9FADF,2023-09-27_18h27.25.052,WP_VExplicitOC_LH,2022.2.5,Win32,32.00102403,NA,NA,NA,NA,NA,NA,NA,NA,NA,NA,NA,NA,NA,NA,NA,NA,NA,NA,NA,NA,NA,NA,NA,NA,NA,NA,NA,NA,NA,NA,NA,NA,NA,NA,NA,NA,NA,NA,NA,NA,NA,NA,NA,NA,NA,NA,NA,NA,NA,NA,NA,NA,NA,NA,NA,NA,NA,NA,NA
SUPAMT15429,32SVAV9L3L861CRYTMBQH3206OS3AD,1BC19645-853C-40B0-B664-234BF4A9FADF,2023-09-27_18h27.25.052,WP_VExplicitOC_LH,2022.2.5,Win32,32.00102403,NA,NA,NA,NA,NA,NA,NA,NA,NA,NA,NA,NA,NA,NA,NA,NA,NA,NA,NA,NA,NA,NA,NA,NA,NA,NA,NA,NA,NA,NA,NA,NA,NA,NA,NA,NA,NA,NA,NA,NA,NA,NA,NA,NA,NA,NA,NA,NA,NA,NA,NA,NA,NA,NA,NA,NA,NA,NA,NA
SUPAMT15429,32SVAV9L3L861CRYTMBQH3206OS3AD,1BC19645-853C-40B0-B664-234BF4A9FADF,2023-09-27_18h27.25.052,WP_VExplicitOC_LH,2022.2.5,Win32,32.00102403,NA,NA,NA,NA,NA,NA,NA,NA,NA,NA,NA,NA,NA,NA,NA,NA,NA,NA,rest (looking at a fixed cross),001.png,NA,NA,NA,NA,NA,NA,NA,NA,NA,NA,NA,NA,NA,NA,NA,NA,26.49434572,2.5341,0,0,0,0,1,NA,NA,NA,NA,NA,NA,NA,NA,NA,NA,NA,NA,NA,NA,NA,NA
SUPAMT15429,32SVAV9L3L861CRYTMBQH3206OS3AD,1BC19645-853C-40B0-B664-234BF4A9FADF,2023-09-27_18h27.25.052,WP_VExplicitOC_LH,2022.2.5,Win32,32.00102403,NA,NA,NA,NA,NA,NA,NA,NA,NA,NA,NA,NA,NA,NA,NA,NA,NA,NA,stand up,002.png,NA,NA,NA,NA,NA,NA,NA,NA,NA,NA,NA,NA,NA,NA,NA,NA,40.38772213,1.1434,0,1,1,1,1,NA,NA,NA,NA,NA,NA,NA,NA,NA,NA,NA,NA,NA,NA,NA,NA
SUPAMT15429,32SVAV9L3L861CRYTMBQH3206OS3AD,1BC19645-853C-40B0-B664-234BF4A9FADF,2023-09-27_18h27.25.052,WP_VExplicitOC_LH,2022.2.5,Win32,32.00102403,NA,NA,NA,NA,NA,NA,NA,NA,NA,NA,NA,NA,NA,NA,NA,NA,NA,NA,stretch,003.png,NA,NA,NA,NA,NA,NA,NA,NA,NA,NA,NA,NA,NA,NA,NA,NA,27.46365105,0.9561,0,2,2,2,1,NA,NA,NA,NA,NA,NA,NA,NA,NA,NA,NA,NA,NA,NA,NA,NA
SUPAMT15429,32SVAV9L3L861CRYTMBQH3206OS3AD,1BC19645-853C-40B0-B664-234BF4A9FADF,2023-09-27_18h27.25.052,WP_VExplicitOC_LH,2022.2.5,Win32,32.00102403,NA,NA,NA,NA,NA,NA,NA,NA,NA,NA,NA,NA,NA,NA,NA,NA,NA,NA,make a drink,004.png,NA,NA,NA,NA,NA,NA,NA,NA,NA,NA,NA,NA,NA,NA,NA,NA,50.40387722,0.8567,0,3,3,3,1,NA,NA,NA,NA,NA,NA,NA,NA,NA,NA,NA,NA,NA,NA,NA,NA
SUPAMT15429,32SVAV9L3L861CRYTMBQH3206OS3AD,1BC19645-853C-40B0-B664-234BF4A9FADF,2023-09-27_18h27.25.052,WP_VExplicitOC_LH,2022.2.5,Win32,32.00102403,NA,NA,NA,NA,NA,NA,NA,NA,NA,NA,NA,NA,NA,NA,NA,NA,NA,NA,scroll social media,005.png,NA,NA,NA,NA,NA,NA,NA,NA,NA,NA,NA,NA,NA,NA,NA,NA,34.57189015,0.8998,0,4,4,4,1,NA,NA,NA,NA,NA,NA,NA,NA,NA,NA,NA,NA,NA,NA,NA,NA
SUPAMT15429,32SVAV9L3L861CRYTMBQH3206OS3AD,1BC19645-853C-40B0-B664-234BF4A9FADF,2023-09-27_18h27.25.052,WP_VExplicitOC_LH,2022.2.5,Win32,32.00102403,NA,NA,NA,NA,NA,NA,NA,NA,NA,NA,NA,NA,NA,NA,NA,NA,NA,NA,listen to music,006.png,NA,NA,NA,NA,NA,NA,NA,NA,NA,NA,NA,NA,NA,NA,NA,NA,44.58804523,0.8691,0,5,5,5,1,NA,NA,NA,NA,NA,NA,NA,NA,NA,NA,NA,NA,NA,NA,NA,NA
SUPAMT15429,32SVAV9L3L861CRYTMBQH3206OS3AD,1BC19645-853C-40B0-B664-234BF4A9FADF,2023-09-27_18h27.25.052,WP_VExplicitOC_LH,2022.2.5,Win32,32.00102403,NA,NA,NA,NA,NA,NA,NA,NA,NA,NA,NA,NA,NA,NA,NA,NA,NA,NA,daydream,007.png,NA,NA,NA,NA,NA,NA,NA,NA,NA,NA,NA,NA,NA,NA,NA,NA,28.43295638,1.2955,0,6,6,6,1,NA,NA,NA,NA,NA,NA,NA,NA,NA,NA,NA,NA,NA,NA,NA,NA
SUPAMT15429,32SVAV9L3L861CRYTMBQH3206OS3AD,1BC19645-853C-40B0-B664-234BF4A9FADF,2023-09-27_18h27.25.052,WP_VExplicitOC_LH,2022.2.5,Win32,32.00102403,NA,NA,NA,NA,NA,NA,NA,NA,NA,NA,NA,NA,NA,NA,NA,NA,NA,NA,watch a short animation,008.png,NA,NA,NA,NA,NA,NA,NA,NA,NA,NA,NA,NA,NA,NA,NA,NA,44.58804523,1.0133,0,7,7,7,1,NA,NA,NA,NA,NA,NA,NA,NA,NA,NA,NA,NA,NA,NA,NA,NA
SUPAMT15429,32SVAV9L3L861CRYTMBQH3206OS3AD,1BC19645-853C-40B0-B664-234BF4A9FADF,2023-09-27_18h27.25.052,WP_VExplicitOC_LH,2022.2.5,Win32,32.00102403,NA,NA,NA,NA,NA,NA,NA,NA,NA,NA,NA,NA,NA,NA,NA,NA,NA,NA,read a novel,009.png,NA,NA,NA,NA,NA,NA,NA,NA,NA,NA,NA,NA,NA,NA,NA,NA,35.86429725,0.9168,0,8,8,8,1,NA,NA,NA,NA,NA,NA,NA,NA,NA,NA,NA,NA,NA,NA,NA,NA
SUPAMT15429,32SVAV9L3L861CRYTMBQH3206OS3AD,1BC19645-853C-40B0-B664-234BF4A9FADF,2023-09-27_18h27.25.052,WP_VExplicitOC_LH,2022.2.5,Win32,32.00102403,NA,NA,NA,NA,NA,NA,NA,NA,NA,NA,NA,NA,NA,NA,NA,NA,NA,NA,read the news,010.png,NA,NA,NA,NA,NA,NA,NA,NA,NA,NA,NA,NA,NA,NA,NA,NA,47.49596123,0.9345,0,9,9,9,1,NA,NA,NA,NA,NA,NA,NA,NA,NA,NA,NA,NA,NA,NA,NA,NA
SUPAMT15429,32SVAV9L3L861CRYTMBQH3206OS3AD,1BC19645-853C-40B0-B664-234BF4A9FADF,2023-09-27_18h27.25.052,WP_VExplicitOC_LH,2022.2.5,Win32,32.00102403,NA,NA,NA,NA,NA,NA,NA,NA,NA,NA,NA,NA,NA,NA,NA,NA,NA,NA,NA,NA,NA,NA,NA,NA,NA,NA,NA,NA,NA,NA,NA,NA,NA,NA,NA,NA,NA,NA,NA,NA,NA,NA,NA,make a drink,NA,NA,NA,NA,NA,NA,NA,NA,NA,NA,NA,NA,NA,NA,NA
SUPAMT15429,32SVAV9L3L861CRYTMBQH3206OS3AD,1BC19645-853C-40B0-B664-234BF4A9FADF,2023-09-27_18h27.25.052,WP_VExplicitOC_LH,2022.2.5,Win32,32.00102403,19.7092084,3.1837,2.0174,NA,NA,NA,NA,NA,bored,"bored, not bored","more bored, less bored",NA,NA,NA,NA,NA,NA,NA,NA,NA,NA,NA,NA,NA,NA,NA,NA,NA,NA,NA,NA,NA,NA,NA,NA,NA,NA,NA,NA,NA,NA,NA,NA,NA,0,0,0,2,1,NA,NA,NA,NA,NA,NA,NA,NA,NA,NA
SUPAMT15429,32SVAV9L3L861CRYTMBQH3206OS3AD,1BC19645-853C-40B0-B664-234BF4A9FADF,2023-09-27_18h27.25.052,WP_VExplicitOC_LH,2022.2.5,Win32,32.00102403,37.80290792,3.2083,2.0353,NA,NA,NA,NA,NA,frustrated,"frustrated, not frustrated","more frustrated, less frustrated",NA,NA,NA,NA,NA,NA,NA,NA,NA,NA,NA,NA,NA,NA,NA,NA,NA,NA,NA,NA,NA,NA,NA,NA,NA,NA,NA,NA,NA,NA,NA,NA,NA,0,1,1,1,1,NA,NA,NA,NA,NA,NA,NA,NA,NA,NA
SUPAMT15429,32SVAV9L3L861CRYTMBQH3206OS3AD,1BC19645-853C-40B0-B664-234BF4A9FADF,2023-09-27_18h27.25.052,WP_VExplicitOC_LH,2022.2.5,Win32,32.00102403,71.08239095,3.2834,2.0258,NA,NA,NA,NA,NA,happy,"unhappy, happy","less happy, more happy",NA,NA,NA,NA,NA,NA,NA,NA,NA,NA,NA,NA,NA,NA,NA,NA,NA,NA,NA,NA,NA,NA,NA,NA,NA,NA,NA,NA,NA,NA,NA,NA,NA,0,2,2,0,1,NA,NA,NA,NA,NA,NA,NA,NA,NA,NA
SUPAMT15429,32SVAV9L3L861CRYTMBQH3206OS3AD,1BC19645-853C-40B0-B664-234BF4A9FADF,2023-09-27_18h27.25.052,WP_VExplicitOC_LH,2022.2.5,Win32,32.00102403,NA,NA,NA,NA,NA,NA,NA,NA,NA,NA,NA,NA,NA,NA,NA,NA,NA,NA,NA,NA,NA,NA,NA,NA,NA,NA,NA,NA,NA,NA,NA,NA,NA,NA,NA,NA,NA,NA,NA,NA,NA,NA,NA,NA,NA,NA,NA,NA,NA,NA,NA,NA,NA,NA,NA,NA,NA,NA,NA
SUPAMT15429,32SVAV9L3L861CRYTMBQH3206OS3AD,1BC19645-853C-40B0-B664-234BF4A9FADF,2023-09-27_18h27.25.052,WP_VExplicitOC_LH,2022.2.5,Win32,32.00102403,NA,NA,NA,NA,NA,NA,NA,NA,NA,NA,NA,NA,NA,NA,NA,NA,NA,NA,NA,NA,NA,NA,NA,NA,NA,NA,NA,NA,NA,NA,NA,NA,NA,NA,NA,NA,NA,NA,NA,NA,NA,NA,NA,NA,NA,NA,NA,NA,NA,NA,NA,NA,NA,NA,NA,NA,NA,NA,NA
SUPAMT15429,32SVAV9L3L861CRYTMBQH3206OS3AD,1BC19645-853C-40B0-B664-234BF4A9FADF,2023-09-27_18h27.25.052,WP_VExplicitOC_LH,2022.2.5,Win32,32.00102403,17.77059774,3.5668,2.0081,NA,NA,NA,NA,NA,frustrated,"frustrated, not frustrated","more frustrated, less frustrated",NA,NA,NA,NA,NA,NA,NA,NA,NA,NA,NA,NA,NA,NA,NA,NA,NA,NA,NA,NA,NA,NA,NA,NA,NA,NA,NA,NA,NA,NA,NA,NA,NA,NA,NA,NA,NA,NA,0,0,0,1,1,NA,NA,NA,NA,NA
SUPAMT15429,32SVAV9L3L861CRYTMBQH3206OS3AD,1BC19645-853C-40B0-B664-234BF4A9FADF,2023-09-27_18h27.25.052,WP_VExplicitOC_LH,2022.2.5,Win32,32.00102403,70.11308562,3.3392,2.0182,NA,NA,NA,NA,NA,happy,"unhappy, happy","less happy, more happy",NA,NA,NA,NA,NA,NA,NA,NA,NA,NA,NA,NA,NA,NA,NA,NA,NA,NA,NA,NA,NA,NA,NA,NA,NA,NA,NA,NA,NA,NA,NA,NA,NA,NA,NA,NA,NA,NA,0,1,1,0,1,NA,NA,NA,NA,NA
SUPAMT15429,32SVAV9L3L861CRYTMBQH3206OS3AD,1BC19645-853C-40B0-B664-234BF4A9FADF,2023-09-27_18h27.25.052,WP_VExplicitOC_LH,2022.2.5,Win32,32.00102403,17.12439418,3.4726,2.0239,NA,NA,NA,NA,NA,bored,"bored, not bored","more bored, less bored",NA,NA,NA,NA,NA,NA,NA,NA,NA,NA,NA,NA,NA,NA,NA,NA,NA,NA,NA,NA,NA,NA,NA,NA,NA,NA,NA,NA,NA,NA,NA,NA,NA,NA,NA,NA,NA,NA,0,2,2,2,1,NA,NA,NA,NA,NA
SUPAMT15429,32SVAV9L3L861CRYTMBQH3206OS3AD,1BC19645-853C-40B0-B664-234BF4A9FADF,2023-09-27_18h27.25.052,WP_VExplicitOC_LH,2022.2.5,Win32,32.00102403,NA,NA,NA,NA,NA,NA,NA,NA,NA,NA,NA,NA,NA,NA,NA,NA,NA,NA,NA,NA,NA,NA,NA,NA,NA,NA,NA,NA,NA,NA,NA,NA,NA,NA,NA,NA,NA,NA,NA,NA,NA,NA,NA,NA,NA,NA,NA,NA,NA,NA,NA,NA,NA,NA,0,0,0,0,1
SUPAMT15429,32SVAV9L3L861CRYTMBQH3206OS3AD,1BC19645-853C-40B0-B664-234BF4A9FADF,2023-09-27_18h27.25.052,WP_VExplicitOC_LH,2022.2.5,Win32,32.00102403,32.63327948,6.242,2.0051,NA,NA,NA,NA,NA,happy,"unhappy, happy","less happy, more happy",NA,NA,NA,NA,NA,NA,NA,NA,NA,NA,NA,NA,NA,NA,NA,NA,NA,NA,NA,NA,NA,NA,NA,NA,NA,NA,NA,NA,NA,NA,NA,NA,NA,NA,NA,NA,NA,NA,0,0,0,0,1,NA,NA,NA,NA,NA
SUPAMT15429,32SVAV9L3L861CRYTMBQH3206OS3AD,1BC19645-853C-40B0-B664-234BF4A9FADF,2023-09-27_18h27.25.052,WP_VExplicitOC_LH,2022.2.5,Win32,32.00102403,16.15508885,3.2951,2.0166,NA,NA,NA,NA,NA,bored,"bored, not bored","more bored, less bored",NA,NA,NA,NA,NA,NA,NA,NA,NA,NA,NA,NA,NA,NA,NA,NA,NA,NA,NA,NA,NA,NA,NA,NA,NA,NA,NA,NA,NA,NA,NA,NA,NA,NA,NA,NA,NA,NA,0,1,1,2,1,NA,NA,NA,NA,NA
SUPAMT15429,32SVAV9L3L861CRYTMBQH3206OS3AD,1BC19645-853C-40B0-B664-234BF4A9FADF,2023-09-27_18h27.25.052,WP_VExplicitOC_LH,2022.2.5,Win32,32.00102403,15.83198708,3.1689,2.0231,NA,NA,NA,NA,NA,frustrated,"frustrated, not frustrated","more frustrated, less frustrated",NA,NA,NA,NA,NA,NA,NA,NA,NA,NA,NA,NA,NA,NA,NA,NA,NA,NA,NA,NA,NA,NA,NA,NA,NA,NA,NA,NA,NA,NA,NA,NA,NA,NA,NA,NA,NA,NA,0,2,2,1,1,NA,NA,NA,NA,NA
SUPAMT15429,32SVAV9L3L861CRYTMBQH3206OS3AD,1BC19645-853C-40B0-B664-234BF4A9FADF,2023-09-27_18h27.25.052,WP_VExplicitOC_LH,2022.2.5,Win32,32.00102403,NA,NA,NA,NA,NA,NA,NA,NA,NA,NA,NA,NA,NA,NA,NA,NA,NA,NA,NA,NA,NA,NA,NA,NA,NA,NA,NA,NA,NA,NA,NA,NA,NA,NA,NA,NA,NA,NA,NA,NA,NA,NA,NA,NA,NA,NA,NA,NA,NA,NA,NA,NA,NA,NA,1,0,1,0,1
SUPAMT15429,32SVAV9L3L861CRYTMBQH3206OS3AD,1BC19645-853C-40B0-B664-234BF4A9FADF,2023-09-27_18h27.25.052,WP_VExplicitOC_LH,2022.2.5,Win32,32.00102403,17.12439418,5.0629,2.0108,NA,NA,NA,NA,NA,frustrated,"frustrated, not frustrated","more frustrated, less frustrated",NA,NA,NA,NA,NA,NA,NA,NA,NA,NA,NA,NA,NA,NA,NA,NA,NA,NA,NA,NA,NA,NA,NA,NA,NA,NA,NA,NA,NA,NA,NA,NA,NA,NA,NA,NA,NA,NA,0,0,0,1,1,NA,NA,NA,NA,NA
SUPAMT15429,32SVAV9L3L861CRYTMBQH3206OS3AD,1BC19645-853C-40B0-B664-234BF4A9FADF,2023-09-27_18h27.25.052,WP_VExplicitOC_LH,2022.2.5,Win32,32.00102403,23.26332795,3.1704,2.0238,NA,NA,NA,NA,NA,bored,"bored, not bored","more bored, less bored",NA,NA,NA,NA,NA,NA,NA,NA,NA,NA,NA,NA,NA,NA,NA,NA,NA,NA,NA,NA,NA,NA,NA,NA,NA,NA,NA,NA,NA,NA,NA,NA,NA,NA,NA,NA,NA,NA,0,1,1,2,1,NA,NA,NA,NA,NA
SUPAMT15429,32SVAV9L3L861CRYTMBQH3206OS3AD,1BC19645-853C-40B0-B664-234BF4A9FADF,2023-09-27_18h27.25.052,WP_VExplicitOC_LH,2022.2.5,Win32,32.00102403,67.20516963,3.824,2.0408,NA,NA,NA,NA,NA,happy,"unhappy, happy","less happy, more happy",NA,NA,NA,NA,NA,NA,NA,NA,NA,NA,NA,NA,NA,NA,NA,NA,NA,NA,NA,NA,NA,NA,NA,NA,NA,NA,NA,NA,NA,NA,NA,NA,NA,NA,NA,NA,NA,NA,0,2,2,0,1,NA,NA,NA,NA,NA
SUPAMT15429,32SVAV9L3L861CRYTMBQH3206OS3AD,1BC19645-853C-40B0-B664-234BF4A9FADF,2023-09-27_18h27.25.052,WP_VExplicitOC_LH,2022.2.5,Win32,32.00102403,NA,NA,NA,NA,NA,NA,NA,NA,NA,NA,NA,NA,NA,NA,NA,NA,NA,NA,NA,NA,NA,NA,NA,NA,NA,NA,NA,NA,NA,NA,NA,NA,NA,NA,NA,NA,NA,NA,NA,NA,NA,NA,NA,NA,NA,NA,NA,NA,NA,NA,NA,NA,NA,NA,2,0,2,0,1
SUPAMT15429,32SVAV9L3L861CRYTMBQH3206OS3AD,1BC19645-853C-40B0-B664-234BF4A9FADF,2023-09-27_18h27.25.052,WP_VExplicitOC_LH,2022.2.5,Win32,32.00102403,25.84814216,4.1677,2.0505,NA,NA,NA,NA,NA,bored,"bored, not bored","more bored, less bored",NA,NA,NA,NA,NA,NA,NA,NA,NA,NA,NA,NA,NA,NA,NA,NA,NA,NA,NA,NA,NA,NA,NA,NA,NA,NA,NA,NA,NA,NA,NA,NA,NA,NA,NA,NA,NA,NA,0,0,0,2,1,NA,NA,NA,NA,NA
SUPAMT15429,32SVAV9L3L861CRYTMBQH3206OS3AD,1BC19645-853C-40B0-B664-234BF4A9FADF,2023-09-27_18h27.25.052,WP_VExplicitOC_LH,2022.2.5,Win32,32.00102403,11.95476575,3.2495,2.0064,NA,NA,NA,NA,NA,frustrated,"frustrated, not frustrated","more frustrated, less frustrated",NA,NA,NA,NA,NA,NA,NA,NA,NA,NA,NA,NA,NA,NA,NA,NA,NA,NA,NA,NA,NA,NA,NA,NA,NA,NA,NA,NA,NA,NA,NA,NA,NA,NA,NA,NA,NA,NA,0,1,1,1,1,NA,NA,NA,NA,NA
SUPAMT15429,32SVAV9L3L861CRYTMBQH3206OS3AD,1BC19645-853C-40B0-B664-234BF4A9FADF,2023-09-27_18h27.25.052,WP_VExplicitOC_LH,2022.2.5,Win32,32.00102403,65.26655897,3.1155,2.0221,NA,NA,NA,NA,NA,happy,"unhappy, happy","less happy, more happy",NA,NA,NA,NA,NA,NA,NA,NA,NA,NA,NA,NA,NA,NA,NA,NA,NA,NA,NA,NA,NA,NA,NA,NA,NA,NA,NA,NA,NA,NA,NA,NA,NA,NA,NA,NA,NA,NA,0,2,2,0,1,NA,NA,NA,NA,NA
SUPAMT15429,32SVAV9L3L861CRYTMBQH3206OS3AD,1BC19645-853C-40B0-B664-234BF4A9FADF,2023-09-27_18h27.25.052,WP_VExplicitOC_LH,2022.2.5,Win32,32.00102403,NA,NA,NA,NA,NA,NA,NA,NA,NA,NA,NA,NA,NA,NA,NA,NA,NA,NA,NA,NA,NA,NA,NA,NA,NA,NA,NA,NA,NA,NA,NA,NA,NA,NA,NA,NA,NA,NA,NA,NA,NA,NA,NA,NA,NA,NA,NA,NA,NA,NA,NA,NA,NA,NA,3,0,3,0,1
SUPAMT15429,32SVAV9L3L861CRYTMBQH3206OS3AD,1BC19645-853C-40B0-B664-234BF4A9FADF,2023-09-27_18h27.25.052,WP_VExplicitOC_LH,2022.2.5,Win32,32.00102403,60.74313409,3.7273,2.0067,NA,NA,NA,NA,NA,happy,"unhappy, happy","less happy, more happy",NA,NA,NA,NA,NA,NA,NA,NA,NA,NA,NA,NA,NA,NA,NA,NA,NA,NA,NA,NA,NA,NA,NA,NA,NA,NA,NA,NA,NA,NA,NA,NA,NA,NA,NA,NA,NA,NA,0,0,0,0,1,NA,NA,NA,NA,NA
SUPAMT15429,32SVAV9L3L861CRYTMBQH3206OS3AD,1BC19645-853C-40B0-B664-234BF4A9FADF,2023-09-27_18h27.25.052,WP_VExplicitOC_LH,2022.2.5,Win32,32.00102403,14.53957997,3.0896,2.0337,NA,NA,NA,NA,NA,bored,"bored, not bored","more bored, less bored",NA,NA,NA,NA,NA,NA,NA,NA,NA,NA,NA,NA,NA,NA,NA,NA,NA,NA,NA,NA,NA,NA,NA,NA,NA,NA,NA,NA,NA,NA,NA,NA,NA,NA,NA,NA,NA,NA,0,1,1,2,1,NA,NA,NA,NA,NA
SUPAMT15429,32SVAV9L3L861CRYTMBQH3206OS3AD,1BC19645-853C-40B0-B664-234BF4A9FADF,2023-09-27_18h27.25.052,WP_VExplicitOC_LH,2022.2.5,Win32,32.00102403,23.58642973,3.3205,2.0097,NA,NA,NA,NA,NA,frustrated,"frustrated, not frustrated","more frustrated, less frustrated",NA,NA,NA,NA,NA,NA,NA,NA,NA,NA,NA,NA,NA,NA,NA,NA,NA,NA,NA,NA,NA,NA,NA,NA,NA,NA,NA,NA,NA,NA,NA,NA,NA,NA,NA,NA,NA,NA,0,2,2,1,1,NA,NA,NA,NA,NA
SUPAMT15429,32SVAV9L3L861CRYTMBQH3206OS3AD,1BC19645-853C-40B0-B664-234BF4A9FADF,2023-09-27_18h27.25.052,WP_VExplicitOC_LH,2022.2.5,Win32,32.00102403,NA,NA,NA,NA,NA,NA,NA,NA,NA,NA,NA,NA,NA,NA,NA,NA,NA,NA,NA,NA,NA,NA,NA,NA,NA,NA,NA,NA,NA,NA,NA,NA,NA,NA,NA,NA,NA,NA,NA,NA,NA,NA,NA,NA,NA,NA,NA,NA,NA,NA,NA,NA,NA,NA,4,0,4,0,1
SUPAMT15429,32SVAV9L3L861CRYTMBQH3206OS3AD,1BC19645-853C-40B0-B664-234BF4A9FADF,2023-09-27_18h27.25.052,WP_VExplicitOC_LH,2022.2.5,Win32,32.00102403,15.18578352,3.1244,2.0005,NA,NA,NA,NA,NA,bored,"bored, not bored","more bored, less bored",NA,NA,NA,NA,NA,NA,NA,NA,NA,NA,NA,NA,NA,NA,NA,NA,NA,NA,NA,NA,NA,NA,NA,NA,NA,NA,NA,NA,NA,NA,NA,NA,NA,NA,NA,NA,NA,NA,0,0,0,2,1,NA,NA,NA,NA,NA
SUPAMT15429,32SVAV9L3L861CRYTMBQH3206OS3AD,1BC19645-853C-40B0-B664-234BF4A9FADF,2023-09-27_18h27.25.052,WP_VExplicitOC_LH,2022.2.5,Win32,32.00102403,29.40226171,3.3214,2.0308,NA,NA,NA,NA,NA,frustrated,"frustrated, not frustrated","more frustrated, less frustrated",NA,NA,NA,NA,NA,NA,NA,NA,NA,NA,NA,NA,NA,NA,NA,NA,NA,NA,NA,NA,NA,NA,NA,NA,NA,NA,NA,NA,NA,NA,NA,NA,NA,NA,NA,NA,NA,NA,0,1,1,1,1,NA,NA,NA,NA,NA
SUPAMT15429,32SVAV9L3L861CRYTMBQH3206OS3AD,1BC19645-853C-40B0-B664-234BF4A9FADF,2023-09-27_18h27.25.052,WP_VExplicitOC_LH,2022.2.5,Win32,32.00102403,69.46688207,3.6519,2.0037,NA,NA,NA,NA,NA,happy,"unhappy, happy","less happy, more happy",NA,NA,NA,NA,NA,NA,NA,NA,NA,NA,NA,NA,NA,NA,NA,NA,NA,NA,NA,NA,NA,NA,NA,NA,NA,NA,NA,NA,NA,NA,NA,NA,NA,NA,NA,NA,NA,NA,0,2,2,0,1,NA,NA,NA,NA,NA
SUPAMT15429,32SVAV9L3L861CRYTMBQH3206OS3AD,1BC19645-853C-40B0-B664-234BF4A9FADF,2023-09-27_18h27.25.052,WP_VExplicitOC_LH,2022.2.5,Win32,32.00102403,NA,NA,NA,NA,NA,NA,NA,NA,NA,NA,NA,NA,NA,NA,NA,NA,NA,NA,NA,NA,NA,NA,NA,NA,NA,NA,NA,NA,NA,NA,NA,NA,NA,NA,NA,NA,NA,NA,NA,NA,NA,NA,NA,NA,NA,NA,NA,NA,NA,NA,NA,NA,NA,NA,5,0,5,0,1
SUPAMT15429,32SVAV9L3L861CRYTMBQH3206OS3AD,1BC19645-853C-40B0-B664-234BF4A9FADF,2023-09-27_18h27.25.052,WP_VExplicitOC_LH,2022.2.5,Win32,32.00102403,63.97415186,3.443,2.0341,NA,NA,NA,NA,NA,happy,"unhappy, happy","less happy, more happy",NA,NA,NA,NA,NA,NA,NA,NA,NA,NA,NA,NA,NA,NA,NA,NA,NA,NA,NA,NA,NA,NA,NA,NA,NA,NA,NA,NA,NA,NA,NA,NA,NA,NA,NA,NA,NA,NA,0,0,0,0,1,NA,NA,NA,NA,NA
SUPAMT15429,32SVAV9L3L861CRYTMBQH3206OS3AD,1BC19645-853C-40B0-B664-234BF4A9FADF,2023-09-27_18h27.25.052,WP_VExplicitOC_LH,2022.2.5,Win32,32.00102403,16.80129241,3.7622,2.032,NA,NA,NA,NA,NA,bored,"bored, not bored","more bored, less bored",NA,NA,NA,NA,NA,NA,NA,NA,NA,NA,NA,NA,NA,NA,NA,NA,NA,NA,NA,NA,NA,NA,NA,NA,NA,NA,NA,NA,NA,NA,NA,NA,NA,NA,NA,NA,NA,NA,0,1,1,2,1,NA,NA,NA,NA,NA
SUPAMT15429,32SVAV9L3L861CRYTMBQH3206OS3AD,1BC19645-853C-40B0-B664-234BF4A9FADF,2023-09-27_18h27.25.052,WP_VExplicitOC_LH,2022.2.5,Win32,32.00102403,29.40226171,3.7422,2.0476,NA,NA,NA,NA,NA,frustrated,"frustrated, not frustrated","more frustrated, less frustrated",NA,NA,NA,NA,NA,NA,NA,NA,NA,NA,NA,NA,NA,NA,NA,NA,NA,NA,NA,NA,NA,NA,NA,NA,NA,NA,NA,NA,NA,NA,NA,NA,NA,NA,NA,NA,NA,NA,0,2,2,1,1,NA,NA,NA,NA,NA
SUPAMT15429,32SVAV9L3L861CRYTMBQH3206OS3AD,1BC19645-853C-40B0-B664-234BF4A9FADF,2023-09-27_18h27.25.052,WP_VExplicitOC_LH,2022.2.5,Win32,32.00102403,NA,NA,NA,NA,NA,NA,NA,NA,NA,NA,NA,NA,NA,NA,NA,NA,NA,NA,NA,NA,NA,NA,NA,NA,NA,NA,NA,NA,NA,NA,NA,NA,NA,NA,NA,NA,NA,NA,NA,NA,NA,NA,NA,NA,NA,NA,NA,NA,NA,NA,NA,NA,NA,NA,6,0,6,0,1
SUPAMT15429,32SVAV9L3L861CRYTMBQH3206OS3AD,1BC19645-853C-40B0-B664-234BF4A9FADF,2023-09-27_18h27.25.052,WP_VExplicitOC_LH,2022.2.5,Win32,32.00102403,-27.14054927,3.2529,2.0045,NA,NA,NA,NA,NA,bored,"bored, not bored","more bored, less bored",NA,NA,NA,NA,NA,NA,NA,NA,NA,NA,NA,NA,NA,NA,NA,NA,NA,NA,NA,NA,NA,NA,NA,NA,NA,NA,NA,NA,NA,NA,NA,NA,NA,NA,NA,NA,NA,NA,0,0,0,2,1,NA,NA,NA,NA,NA
SUPAMT15429,32SVAV9L3L861CRYTMBQH3206OS3AD,1BC19645-853C-40B0-B664-234BF4A9FADF,2023-09-27_18h27.25.052,WP_VExplicitOC_LH,2022.2.5,Win32,32.00102403,55.25040388,3.2602,2.0133,NA,NA,NA,NA,NA,happy,"unhappy, happy","less happy, more happy",NA,NA,NA,NA,NA,NA,NA,NA,NA,NA,NA,NA,NA,NA,NA,NA,NA,NA,NA,NA,NA,NA,NA,NA,NA,NA,NA,NA,NA,NA,NA,NA,NA,NA,NA,NA,NA,NA,0,1,1,0,1,NA,NA,NA,NA,NA
SUPAMT15429,32SVAV9L3L861CRYTMBQH3206OS3AD,1BC19645-853C-40B0-B664-234BF4A9FADF,2023-09-27_18h27.25.052,WP_VExplicitOC_LH,2022.2.5,Win32,32.00102403,14.21647819,3.4187,2.0315,NA,NA,NA,NA,NA,frustrated,"frustrated, not frustrated","more frustrated, less frustrated",NA,NA,NA,NA,NA,NA,NA,NA,NA,NA,NA,NA,NA,NA,NA,NA,NA,NA,NA,NA,NA,NA,NA,NA,NA,NA,NA,NA,NA,NA,NA,NA,NA,NA,NA,NA,NA,NA,0,2,2,1,1,NA,NA,NA,NA,NA
SUPAMT15429,32SVAV9L3L861CRYTMBQH3206OS3AD,1BC19645-853C-40B0-B664-234BF4A9FADF,2023-09-27_18h27.25.052,WP_VExplicitOC_LH,2022.2.5,Win32,32.00102403,NA,NA,NA,NA,NA,NA,NA,NA,NA,NA,NA,NA,NA,NA,NA,NA,NA,NA,NA,NA,NA,NA,NA,NA,NA,NA,NA,NA,NA,NA,NA,NA,NA,NA,NA,NA,NA,NA,NA,NA,NA,NA,NA,NA,NA,NA,NA,NA,NA,NA,NA,NA,NA,NA,7,0,7,0,1
SUPAMT15429,32SVAV9L3L861CRYTMBQH3206OS3AD,1BC19645-853C-40B0-B664-234BF4A9FADF,2023-09-27_18h27.25.052,WP_VExplicitOC_LH,2022.2.5,Win32,32.00102403,25.52504039,3.8155,2.0158,NA,NA,NA,NA,NA,frustrated,"frustrated, not frustrated","more frustrated, less frustrated",NA,NA,NA,NA,NA,NA,NA,NA,NA,NA,NA,NA,NA,NA,NA,NA,NA,NA,NA,NA,NA,NA,NA,NA,NA,NA,NA,NA,NA,NA,NA,NA,NA,NA,NA,NA,NA,NA,0,0,0,1,1,NA,NA,NA,NA,NA
SUPAMT15429,32SVAV9L3L861CRYTMBQH3206OS3AD,1BC19645-853C-40B0-B664-234BF4A9FADF,2023-09-27_18h27.25.052,WP_VExplicitOC_LH,2022.2.5,Win32,32.00102403,69.46688207,3.0337,2.018,NA,NA,NA,NA,NA,happy,"unhappy, happy","less happy, more happy",NA,NA,NA,NA,NA,NA,NA,NA,NA,NA,NA,NA,NA,NA,NA,NA,NA,NA,NA,NA,NA,NA,NA,NA,NA,NA,NA,NA,NA,NA,NA,NA,NA,NA,NA,NA,NA,NA,0,1,1,0,1,NA,NA,NA,NA,NA
SUPAMT15429,32SVAV9L3L861CRYTMBQH3206OS3AD,1BC19645-853C-40B0-B664-234BF4A9FADF,2023-09-27_18h27.25.052,WP_VExplicitOC_LH,2022.2.5,Win32,32.00102403,19.7092084,3.6482,2.0302,NA,NA,NA,NA,NA,bored,"bored, not bored","more bored, less bored",NA,NA,NA,NA,NA,NA,NA,NA,NA,NA,NA,NA,NA,NA,NA,NA,NA,NA,NA,NA,NA,NA,NA,NA,NA,NA,NA,NA,NA,NA,NA,NA,NA,NA,NA,NA,NA,NA,0,2,2,2,1,NA,NA,NA,NA,NA
SUPAMT15429,32SVAV9L3L861CRYTMBQH3206OS3AD,1BC19645-853C-40B0-B664-234BF4A9FADF,2023-09-27_18h27.25.052,WP_VExplicitOC_LH,2022.2.5,Win32,32.00102403,NA,NA,NA,NA,NA,NA,NA,NA,NA,NA,NA,NA,NA,NA,NA,NA,NA,NA,NA,NA,NA,NA,NA,NA,NA,NA,NA,NA,NA,NA,NA,NA,NA,NA,NA,NA,NA,NA,NA,NA,NA,NA,NA,NA,NA,NA,NA,NA,NA,NA,NA,NA,NA,NA,8,0,8,0,1
SUPAMT15429,32SVAV9L3L861CRYTMBQH3206OS3AD,1BC19645-853C-40B0-B664-234BF4A9FADF,2023-09-27_18h27.25.052,WP_VExplicitOC_LH,2022.2.5,Win32,32.00102403,66.88206785,6.6219,2.0131,NA,NA,NA,NA,NA,happy,"unhappy, happy","less happy, more happy",NA,NA,NA,NA,NA,NA,NA,NA,NA,NA,NA,NA,NA,NA,NA,NA,NA,NA,NA,NA,NA,NA,NA,NA,NA,NA,NA,NA,NA,NA,NA,NA,NA,NA,NA,NA,NA,NA,0,0,0,0,1,NA,NA,NA,NA,NA
SUPAMT15429,32SVAV9L3L861CRYTMBQH3206OS3AD,1BC19645-853C-40B0-B664-234BF4A9FADF,2023-09-27_18h27.25.052,WP_VExplicitOC_LH,2022.2.5,Win32,32.00102403,14.86268174,3.1721,2.0049,NA,NA,NA,NA,NA,bored,"bored, not bored","more bored, less bored",NA,NA,NA,NA,NA,NA,NA,NA,NA,NA,NA,NA,NA,NA,NA,NA,NA,NA,NA,NA,NA,NA,NA,NA,NA,NA,NA,NA,NA,NA,NA,NA,NA,NA,NA,NA,NA,NA,0,1,1,2,1,NA,NA,NA,NA,NA
SUPAMT15429,32SVAV9L3L861CRYTMBQH3206OS3AD,1BC19645-853C-40B0-B664-234BF4A9FADF,2023-09-27_18h27.25.052,WP_VExplicitOC_LH,2022.2.5,Win32,32.00102403,34.89499192,3.1473,2.0253,NA,NA,NA,NA,NA,frustrated,"frustrated, not frustrated","more frustrated, less frustrated",NA,NA,NA,NA,NA,NA,NA,NA,NA,NA,NA,NA,NA,NA,NA,NA,NA,NA,NA,NA,NA,NA,NA,NA,NA,NA,NA,NA,NA,NA,NA,NA,NA,NA,NA,NA,NA,NA,0,2,2,1,1,NA,NA,NA,NA,NA
SUPAMT15429,32SVAV9L3L861CRYTMBQH3206OS3AD,1BC19645-853C-40B0-B664-234BF4A9FADF,2023-09-27_18h27.25.052,WP_VExplicitOC_LH,2022.2.5,Win32,32.00102403,NA,NA,NA,NA,NA,NA,NA,NA,NA,NA,NA,NA,NA,NA,NA,NA,NA,NA,NA,NA,NA,NA,NA,NA,NA,NA,NA,NA,NA,NA,NA,NA,NA,NA,NA,NA,NA,NA,NA,NA,NA,NA,NA,NA,NA,NA,NA,NA,NA,NA,NA,NA,NA,NA,9,0,9,0,1
SUPAMT15429,32SVAV9L3L861CRYTMBQH3206OS3AD,1BC19645-853C-40B0-B664-234BF4A9FADF,2023-09-27_18h27.25.052,WP_VExplicitOC_LH,2022.2.5,Win32,32.00102403,20.67851373,3.7931,2.0096,NA,NA,NA,NA,NA,bored,"bored, not bored","more bored, less bored",NA,NA,NA,NA,NA,NA,NA,NA,NA,NA,NA,NA,NA,NA,NA,NA,NA,NA,NA,NA,NA,NA,NA,NA,NA,NA,NA,NA,NA,NA,NA,NA,NA,NA,NA,NA,NA,NA,0,0,0,2,1,NA,NA,NA,NA,NA
SUPAMT15429,32SVAV9L3L861CRYTMBQH3206OS3AD,1BC19645-853C-40B0-B664-234BF4A9FADF,2023-09-27_18h27.25.052,WP_VExplicitOC_LH,2022.2.5,Win32,32.00102403,11.95476575,3.5132,2.0467,NA,NA,NA,NA,NA,frustrated,"frustrated, not frustrated","more frustrated, less frustrated",NA,NA,NA,NA,NA,NA,NA,NA,NA,NA,NA,NA,NA,NA,NA,NA,NA,NA,NA,NA,NA,NA,NA,NA,NA,NA,NA,NA,NA,NA,NA,NA,NA,NA,NA,NA,NA,NA,0,1,1,1,1,NA,NA,NA,NA,NA
SUPAMT15429,32SVAV9L3L861CRYTMBQH3206OS3AD,1BC19645-853C-40B0-B664-234BF4A9FADF,2023-09-27_18h27.25.052,WP_VExplicitOC_LH,2022.2.5,Win32,32.00102403,58.48142165,3.1446,2.0032,NA,NA,NA,NA,NA,happy,"unhappy, happy","less happy, more happy",NA,NA,NA,NA,NA,NA,NA,NA,NA,NA,NA,NA,NA,NA,NA,NA,NA,NA,NA,NA,NA,NA,NA,NA,NA,NA,NA,NA,NA,NA,NA,NA,NA,NA,NA,NA,NA,NA,0,2,2,0,1,NA,NA,NA,NA,NA
SUPAMT15429,32SVAV9L3L861CRYTMBQH3206OS3AD,1BC19645-853C-40B0-B664-234BF4A9FADF,2023-09-27_18h27.25.052,WP_VExplicitOC_LH,2022.2.5,Win32,32.00102403,NA,NA,NA,NA,NA,NA,NA,NA,NA,NA,NA,NA,NA,NA,NA,NA,NA,NA,NA,NA,NA,NA,NA,NA,NA,NA,NA,NA,NA,NA,NA,NA,NA,NA,NA,NA,NA,NA,NA,NA,NA,NA,NA,NA,NA,NA,NA,NA,NA,NA,NA,NA,NA,NA,10,0,10,0,1
SUPAMT15429,32SVAV9L3L861CRYTMBQH3206OS3AD,1BC19645-853C-40B0-B664-234BF4A9FADF,2023-09-27_18h27.25.052,WP_VExplicitOC_LH,2022.2.5,Win32,32.00102403,14.21647819,3.5187,2.0155,NA,NA,NA,NA,NA,bored,"bored, not bored","more bored, less bored",NA,NA,NA,NA,NA,NA,NA,NA,NA,NA,NA,NA,NA,NA,NA,NA,NA,NA,NA,NA,NA,NA,NA,NA,NA,NA,NA,NA,NA,NA,NA,NA,NA,NA,NA,NA,NA,NA,0,0,0,2,1,NA,NA,NA,NA,NA
SUPAMT15429,32SVAV9L3L861CRYTMBQH3206OS3AD,1BC19645-853C-40B0-B664-234BF4A9FADF,2023-09-27_18h27.25.052,WP_VExplicitOC_LH,2022.2.5,Win32,32.00102403,75.60581583,3.097,2.0431,NA,NA,NA,NA,NA,happy,"unhappy, happy","less happy, more happy",NA,NA,NA,NA,NA,NA,NA,NA,NA,NA,NA,NA,NA,NA,NA,NA,NA,NA,NA,NA,NA,NA,NA,NA,NA,NA,NA,NA,NA,NA,NA,NA,NA,NA,NA,NA,NA,NA,0,1,1,0,1,NA,NA,NA,NA,NA
SUPAMT15429,32SVAV9L3L861CRYTMBQH3206OS3AD,1BC19645-853C-40B0-B664-234BF4A9FADF,2023-09-27_18h27.25.052,WP_VExplicitOC_LH,2022.2.5,Win32,32.00102403,14.53957997,3.0151,2.0147,NA,NA,NA,NA,NA,frustrated,"frustrated, not frustrated","more frustrated, less frustrated",NA,NA,NA,NA,NA,NA,NA,NA,NA,NA,NA,NA,NA,NA,NA,NA,NA,NA,NA,NA,NA,NA,NA,NA,NA,NA,NA,NA,NA,NA,NA,NA,NA,NA,NA,NA,NA,NA,0,2,2,1,1,NA,NA,NA,NA,NA
SUPAMT15429,32SVAV9L3L861CRYTMBQH3206OS3AD,1BC19645-853C-40B0-B664-234BF4A9FADF,2023-09-27_18h27.25.052,WP_VExplicitOC_LH,2022.2.5,Win32,32.00102403,NA,NA,NA,NA,NA,NA,NA,NA,NA,NA,NA,NA,NA,NA,NA,NA,NA,NA,NA,NA,NA,NA,NA,NA,NA,NA,NA,NA,NA,NA,NA,NA,NA,NA,NA,NA,NA,NA,NA,NA,NA,NA,NA,NA,NA,NA,NA,NA,NA,NA,NA,NA,NA,NA,11,0,11,0,1
SUPAMT15429,32SVAV9L3L861CRYTMBQH3206OS3AD,1BC19645-853C-40B0-B664-234BF4A9FADF,2023-09-27_18h27.25.052,WP_VExplicitOC_LH,2022.2.5,Win32,32.00102403,24.87883683,3.9001,2.0131,NA,NA,NA,NA,NA,bored,"bored, not bored","more bored, less bored",NA,NA,NA,NA,NA,NA,NA,NA,NA,NA,NA,NA,NA,NA,NA,NA,NA,NA,NA,NA,NA,NA,NA,NA,NA,NA,NA,NA,NA,NA,NA,NA,NA,NA,NA,NA,NA,NA,0,0,0,2,1,NA,NA,NA,NA,NA
SUPAMT15429,32SVAV9L3L861CRYTMBQH3206OS3AD,1BC19645-853C-40B0-B664-234BF4A9FADF,2023-09-27_18h27.25.052,WP_VExplicitOC_LH,2022.2.5,Win32,32.00102403,15.5088853,3.3704,2.0744,NA,NA,NA,NA,NA,frustrated,"frustrated, not frustrated","more frustrated, less frustrated",NA,NA,NA,NA,NA,NA,NA,NA,NA,NA,NA,NA,NA,NA,NA,NA,NA,NA,NA,NA,NA,NA,NA,NA,NA,NA,NA,NA,NA,NA,NA,NA,NA,NA,NA,NA,NA,NA,0,1,1,1,1,NA,NA,NA,NA,NA
SUPAMT15429,32SVAV9L3L861CRYTMBQH3206OS3AD,1BC19645-853C-40B0-B664-234BF4A9FADF,2023-09-27_18h27.25.052,WP_VExplicitOC_LH,2022.2.5,Win32,32.00102403,54.28109855,3.0718,2.0184,NA,NA,NA,NA,NA,happy,"unhappy, happy","less happy, more happy",NA,NA,NA,NA,NA,NA,NA,NA,NA,NA,NA,NA,NA,NA,NA,NA,NA,NA,NA,NA,NA,NA,NA,NA,NA,NA,NA,NA,NA,NA,NA,NA,NA,NA,NA,NA,NA,NA,0,2,2,0,1,NA,NA,NA,NA,NA
SUPAMT15429,32SVAV9L3L861CRYTMBQH3206OS3AD,1BC19645-853C-40B0-B664-234BF4A9FADF,2023-09-27_18h27.25.052,WP_VExplicitOC_LH,2022.2.5,Win32,32.00102403,NA,NA,NA,NA,NA,NA,NA,NA,NA,NA,NA,NA,NA,NA,NA,NA,NA,NA,NA,NA,NA,NA,NA,NA,NA,NA,NA,NA,NA,NA,NA,NA,NA,NA,NA,NA,NA,NA,NA,NA,NA,NA,NA,NA,NA,NA,NA,NA,NA,NA,NA,NA,NA,NA,12,0,12,0,1
SUPAMT15429,32SVAV9L3L861CRYTMBQH3206OS3AD,1BC19645-853C-40B0-B664-234BF4A9FADF,2023-09-27_18h27.25.052,WP_VExplicitOC_LH,2022.2.5,Win32,32.00102403,44.91114701,3.3616,2.0193,NA,NA,NA,NA,NA,happy,"unhappy, happy","less happy, more happy",NA,NA,NA,NA,NA,NA,NA,NA,NA,NA,NA,NA,NA,NA,NA,NA,NA,NA,NA,NA,NA,NA,NA,NA,NA,NA,NA,NA,NA,NA,NA,NA,NA,NA,NA,NA,NA,NA,0,0,0,0,1,NA,NA,NA,NA,NA
SUPAMT15429,32SVAV9L3L861CRYTMBQH3206OS3AD,1BC19645-853C-40B0-B664-234BF4A9FADF,2023-09-27_18h27.25.052,WP_VExplicitOC_LH,2022.2.5,Win32,32.00102403,15.18578352,3.2823,2.041,NA,NA,NA,NA,NA,frustrated,"frustrated, not frustrated","more frustrated, less frustrated",NA,NA,NA,NA,NA,NA,NA,NA,NA,NA,NA,NA,NA,NA,NA,NA,NA,NA,NA,NA,NA,NA,NA,NA,NA,NA,NA,NA,NA,NA,NA,NA,NA,NA,NA,NA,NA,NA,0,1,1,1,1,NA,NA,NA,NA,NA
SUPAMT15429,32SVAV9L3L861CRYTMBQH3206OS3AD,1BC19645-853C-40B0-B664-234BF4A9FADF,2023-09-27_18h27.25.052,WP_VExplicitOC_LH,2022.2.5,Win32,32.00102403,30.04846527,3.2681,2.0243,NA,NA,NA,NA,NA,bored,"bored, not bored","more bored, less bored",NA,NA,NA,NA,NA,NA,NA,NA,NA,NA,NA,NA,NA,NA,NA,NA,NA,NA,NA,NA,NA,NA,NA,NA,NA,NA,NA,NA,NA,NA,NA,NA,NA,NA,NA,NA,NA,NA,0,2,2,2,1,NA,NA,NA,NA,NA
SUPAMT15429,32SVAV9L3L861CRYTMBQH3206OS3AD,1BC19645-853C-40B0-B664-234BF4A9FADF,2023-09-27_18h27.25.052,WP_VExplicitOC_LH,2022.2.5,Win32,32.00102403,NA,NA,NA,NA,NA,NA,NA,NA,NA,NA,NA,NA,NA,NA,NA,NA,NA,NA,NA,NA,NA,NA,NA,NA,NA,NA,NA,NA,NA,NA,NA,NA,NA,NA,NA,NA,NA,NA,NA,NA,NA,NA,NA,NA,NA,NA,NA,NA,NA,NA,NA,NA,NA,NA,13,0,13,0,1
SUPAMT15429,32SVAV9L3L861CRYTMBQH3206OS3AD,1BC19645-853C-40B0-B664-234BF4A9FADF,2023-09-27_18h27.25.052,WP_VExplicitOC_LH,2022.2.5,Win32,32.00102403,15.18578352,3.627,2.0029,NA,NA,NA,NA,NA,frustrated,"frustrated, not frustrated","more frustrated, less frustrated",NA,NA,NA,NA,NA,NA,NA,NA,NA,NA,NA,NA,NA,NA,NA,NA,NA,NA,NA,NA,NA,NA,NA,NA,NA,NA,NA,NA,NA,NA,NA,NA,NA,NA,NA,NA,NA,NA,0,0,0,1,1,NA,NA,NA,NA,NA
SUPAMT15429,32SVAV9L3L861CRYTMBQH3206OS3AD,1BC19645-853C-40B0-B664-234BF4A9FADF,2023-09-27_18h27.25.052,WP_VExplicitOC_LH,2022.2.5,Win32,32.00102403,31.0177706,3.4838,2.0226,NA,NA,NA,NA,NA,bored,"bored, not bored","more bored, less bored",NA,NA,NA,NA,NA,NA,NA,NA,NA,NA,NA,NA,NA,NA,NA,NA,NA,NA,NA,NA,NA,NA,NA,NA,NA,NA,NA,NA,NA,NA,NA,NA,NA,NA,NA,NA,NA,NA,0,1,1,2,1,NA,NA,NA,NA,NA
SUPAMT15429,32SVAV9L3L861CRYTMBQH3206OS3AD,1BC19645-853C-40B0-B664-234BF4A9FADF,2023-09-27_18h27.25.052,WP_VExplicitOC_LH,2022.2.5,Win32,32.00102403,67.20516963,3.2692,2.0074,NA,NA,NA,NA,NA,happy,"unhappy, happy","less happy, more happy",NA,NA,NA,NA,NA,NA,NA,NA,NA,NA,NA,NA,NA,NA,NA,NA,NA,NA,NA,NA,NA,NA,NA,NA,NA,NA,NA,NA,NA,NA,NA,NA,NA,NA,NA,NA,NA,NA,0,2,2,0,1,NA,NA,NA,NA,NA
SUPAMT15429,32SVAV9L3L861CRYTMBQH3206OS3AD,1BC19645-853C-40B0-B664-234BF4A9FADF,2023-09-27_18h27.25.052,WP_VExplicitOC_LH,2022.2.5,Win32,32.00102403,NA,NA,NA,NA,NA,NA,NA,NA,NA,NA,NA,NA,NA,NA,NA,NA,NA,NA,NA,NA,NA,NA,NA,NA,NA,NA,NA,NA,NA,NA,NA,NA,NA,NA,NA,NA,NA,NA,NA,NA,NA,NA,NA,NA,NA,NA,NA,NA,NA,NA,NA,NA,NA,NA,14,0,14,0,1
SUPAMT15429,32SVAV9L3L861CRYTMBQH3206OS3AD,1BC19645-853C-40B0-B664-234BF4A9FADF,2023-09-27_18h27.25.052,WP_VExplicitOC_LH,2022.2.5,Win32,32.00102403,NA,NA,NA,NA,NA,NA,NA,NA,NA,NA,NA,NA,NA,NA,NA,NA,NA,NA,NA,NA,NA,NA,NA,NA,NA,NA,NA,NA,NA,NA,NA,NA,NA,NA,NA,NA,NA,NA,NA,NA,NA,NA,NA,NA,NA,NA,NA,NA,NA,NA,NA,NA,NA,NA,NA,NA,NA,NA,NA
