participant,session,completion,date,expName,psychopyVersion,OS,frameRate,rating_all.response,rating_all.rt,rating_all.tStart,rndRat1.thisRepN,rndRat1.thisTrialN,rndRat1.thisN,rndRat1.thisIndex,rndRat1.ran,Emo,Labs,Labs2,rating_alt.response,rating_alt.rt,AltC.thisRepN,AltC.thisTrialN,AltC.thisN,AltC.thisIndex,AltC.ran,alt_choices,pic_choices,BottomAlt_Choice,rndRat2.thisRepN,rndRat2.thisTrialN,rndRat2.thisN,rndRat2.thisIndex,rndRat2.ran,rndRat3.thisRepN,rndRat3.thisTrialN,rndRat3.thisN,rndRat3.thisIndex,rndRat3.ran,trials_FC_L.thisRepN,trials_FC_L.thisTrialN,trials_FC_L.thisN,trials_FC_L.thisIndex,trials_FC_L.ran,rating_alt_2.response,rating_alt_2.rt,AltC2.thisRepN,AltC2.thisTrialN,AltC2.thisN,AltC2.thisIndex,AltC2.ran,TopAlt_Choice,rndRat4.thisRepN,rndRat4.thisTrialN,rndRat4.thisN,rndRat4.thisIndex,rndRat4.ran,rndRat5.thisRepN,rndRat5.thisTrialN,rndRat5.thisN,rndRat5.thisIndex,rndRat5.ran,trials_FC_H.thisRepN,trials_FC_H.thisTrialN,trials_FC_H.thisN,trials_FC_H.thisIndex,trials_FC_H.ran
SUPAMT45961,3STRJBFXO2QHC6YEKSU6TU9U5ZIKT9,8AD1C2FC-B885-4B2B-BEE5-199E7D1FCE17,2023-09-27_10h25.55.028,WP_VExplicitOC_LH,2022.2.5,Win32,9.119927041,NA,NA,NA,NA,NA,NA,NA,NA,NA,NA,NA,NA,NA,NA,NA,NA,NA,NA,NA,NA,NA,NA,NA,NA,NA,NA,NA,NA,NA,NA,NA,NA,NA,NA,NA,NA,NA,NA,NA,NA,NA,NA,NA,NA,NA,NA,NA,NA,NA,NA,NA,NA,NA,NA,NA,NA,NA,NA,NA
SUPAMT45961,3STRJBFXO2QHC6YEKSU6TU9U5ZIKT9,8AD1C2FC-B885-4B2B-BEE5-199E7D1FCE17,2023-09-27_10h25.55.028,WP_VExplicitOC_LH,2022.2.5,Win32,9.119927041,NA,NA,NA,NA,NA,NA,NA,NA,NA,NA,NA,NA,NA,NA,NA,NA,NA,NA,NA,NA,NA,NA,NA,NA,NA,NA,NA,NA,NA,NA,NA,NA,NA,NA,NA,NA,NA,NA,NA,NA,NA,NA,NA,NA,NA,NA,NA,NA,NA,NA,NA,NA,NA,NA,NA,NA,NA,NA,NA
SUPAMT45961,3STRJBFXO2QHC6YEKSU6TU9U5ZIKT9,8AD1C2FC-B885-4B2B-BEE5-199E7D1FCE17,2023-09-27_10h25.55.028,WP_VExplicitOC_LH,2022.2.5,Win32,9.119927041,NA,NA,NA,NA,NA,NA,NA,NA,NA,NA,NA,NA,NA,NA,NA,NA,NA,NA,NA,NA,NA,NA,NA,NA,NA,NA,NA,NA,NA,NA,NA,NA,NA,NA,NA,NA,NA,NA,NA,NA,NA,NA,NA,NA,NA,NA,NA,NA,NA,NA,NA,NA,NA,NA,NA,NA,NA,NA,NA
SUPAMT45961,3STRJBFXO2QHC6YEKSU6TU9U5ZIKT9,8AD1C2FC-B885-4B2B-BEE5-199E7D1FCE17,2023-09-27_10h25.55.028,WP_VExplicitOC_LH,2022.2.5,Win32,9.119927041,39.0625,5.2175,2.0155,0,0,0,1,1,frustrated,"frustrated, not frustrated","more frustrated, less frustrated",NA,NA,NA,NA,NA,NA,NA,NA,NA,NA,NA,NA,NA,NA,NA,NA,NA,NA,NA,NA,NA,NA,NA,NA,NA,NA,NA,NA,NA,NA,NA,NA,NA,NA,NA,NA,NA,NA,NA,NA,NA,NA,NA,NA,NA,NA,NA,NA
SUPAMT45961,3STRJBFXO2QHC6YEKSU6TU9U5ZIKT9,8AD1C2FC-B885-4B2B-BEE5-199E7D1FCE17,2023-09-27_10h25.55.028,WP_VExplicitOC_LH,2022.2.5,Win32,9.119927041,50.52083333,3.3068,2.0102,0,1,1,0,1,happy,"unhappy, happy","less happy, more happy",NA,NA,NA,NA,NA,NA,NA,NA,NA,NA,NA,NA,NA,NA,NA,NA,NA,NA,NA,NA,NA,NA,NA,NA,NA,NA,NA,NA,NA,NA,NA,NA,NA,NA,NA,NA,NA,NA,NA,NA,NA,NA,NA,NA,NA,NA,NA,NA
SUPAMT45961,3STRJBFXO2QHC6YEKSU6TU9U5ZIKT9,8AD1C2FC-B885-4B2B-BEE5-199E7D1FCE17,2023-09-27_10h25.55.028,WP_VExplicitOC_LH,2022.2.5,Win32,9.119927041,60.9375,3.6688,2.0407,0,2,2,2,1,bored,"bored, not bored","more bored, less bored",NA,NA,NA,NA,NA,NA,NA,NA,NA,NA,NA,NA,NA,NA,NA,NA,NA,NA,NA,NA,NA,NA,NA,NA,NA,NA,NA,NA,NA,NA,NA,NA,NA,NA,NA,NA,NA,NA,NA,NA,NA,NA,NA,NA,NA,NA,NA,NA
SUPAMT45961,3STRJBFXO2QHC6YEKSU6TU9U5ZIKT9,8AD1C2FC-B885-4B2B-BEE5-199E7D1FCE17,2023-09-27_10h25.55.028,WP_VExplicitOC_LH,2022.2.5,Win32,9.119927041,NA,NA,NA,NA,NA,NA,NA,NA,NA,NA,NA,NA,NA,NA,NA,NA,NA,NA,NA,NA,NA,NA,NA,NA,NA,NA,NA,NA,NA,NA,NA,NA,NA,NA,NA,NA,NA,NA,NA,NA,NA,NA,NA,NA,NA,NA,NA,NA,NA,NA,NA,NA,NA,NA,NA,NA,NA,NA,NA
SUPAMT45961,3STRJBFXO2QHC6YEKSU6TU9U5ZIKT9,8AD1C2FC-B885-4B2B-BEE5-199E7D1FCE17,2023-09-27_10h25.55.028,WP_VExplicitOC_LH,2022.2.5,Win32,9.119927041,NA,NA,NA,NA,NA,NA,NA,NA,NA,NA,NA,NA,NA,NA,NA,NA,NA,NA,NA,NA,NA,NA,NA,NA,NA,NA,NA,NA,NA,NA,NA,NA,NA,NA,NA,NA,NA,NA,NA,NA,NA,NA,NA,NA,NA,NA,NA,NA,NA,NA,NA,NA,NA,NA,NA,NA,NA,NA,NA
SUPAMT45961,3STRJBFXO2QHC6YEKSU6TU9U5ZIKT9,8AD1C2FC-B885-4B2B-BEE5-199E7D1FCE17,2023-09-27_10h25.55.028,WP_VExplicitOC_LH,2022.2.5,Win32,9.119927041,NA,NA,NA,NA,NA,NA,NA,NA,NA,NA,NA,NA,NA,NA,NA,NA,NA,NA,NA,NA,NA,NA,NA,NA,NA,NA,NA,NA,NA,NA,NA,NA,NA,NA,NA,NA,NA,NA,NA,NA,NA,NA,NA,NA,NA,NA,NA,NA,NA,NA,NA,NA,NA,NA,NA,NA,NA,NA,NA
SUPAMT45961,3STRJBFXO2QHC6YEKSU6TU9U5ZIKT9,8AD1C2FC-B885-4B2B-BEE5-199E7D1FCE17,2023-09-27_10h25.55.028,WP_VExplicitOC_LH,2022.2.5,Win32,9.119927041,NA,NA,NA,NA,NA,NA,NA,NA,NA,NA,NA,NA,NA,NA,NA,NA,NA,NA,NA,NA,NA,NA,NA,NA,NA,NA,NA,NA,NA,NA,NA,NA,NA,NA,NA,NA,NA,NA,NA,NA,NA,NA,NA,NA,NA,NA,NA,NA,NA,NA,NA,NA,NA,NA,NA,NA,NA,NA,NA
SUPAMT45961,3STRJBFXO2QHC6YEKSU6TU9U5ZIKT9,8AD1C2FC-B885-4B2B-BEE5-199E7D1FCE17,2023-09-27_10h25.55.028,WP_VExplicitOC_LH,2022.2.5,Win32,9.119927041,NA,NA,NA,NA,NA,NA,NA,NA,NA,NA,NA,56.51041667,1.4778,0,0,0,0,1,rest (looking at a fixed cross),001.png,NA,NA,NA,NA,NA,NA,NA,NA,NA,NA,NA,NA,NA,NA,NA,NA,NA,NA,NA,NA,NA,NA,NA,NA,NA,NA,NA,NA,NA,NA,NA,NA,NA,NA,NA,NA,NA,NA,NA
SUPAMT45961,3STRJBFXO2QHC6YEKSU6TU9U5ZIKT9,8AD1C2FC-B885-4B2B-BEE5-199E7D1FCE17,2023-09-27_10h25.55.028,WP_VExplicitOC_LH,2022.2.5,Win32,9.119927041,NA,NA,NA,NA,NA,NA,NA,NA,NA,NA,NA,56.51041667,0.5537,0,1,1,1,1,stand up,002.png,NA,NA,NA,NA,NA,NA,NA,NA,NA,NA,NA,NA,NA,NA,NA,NA,NA,NA,NA,NA,NA,NA,NA,NA,NA,NA,NA,NA,NA,NA,NA,NA,NA,NA,NA,NA,NA,NA,NA
SUPAMT45961,3STRJBFXO2QHC6YEKSU6TU9U5ZIKT9,8AD1C2FC-B885-4B2B-BEE5-199E7D1FCE17,2023-09-27_10h25.55.028,WP_VExplicitOC_LH,2022.2.5,Win32,9.119927041,NA,NA,NA,NA,NA,NA,NA,NA,NA,NA,NA,56.51041667,0.3209,0,2,2,2,1,stretch,003.png,NA,NA,NA,NA,NA,NA,NA,NA,NA,NA,NA,NA,NA,NA,NA,NA,NA,NA,NA,NA,NA,NA,NA,NA,NA,NA,NA,NA,NA,NA,NA,NA,NA,NA,NA,NA,NA,NA,NA
SUPAMT45961,3STRJBFXO2QHC6YEKSU6TU9U5ZIKT9,8AD1C2FC-B885-4B2B-BEE5-199E7D1FCE17,2023-09-27_10h25.55.028,WP_VExplicitOC_LH,2022.2.5,Win32,9.119927041,NA,NA,NA,NA,NA,NA,NA,NA,NA,NA,NA,56.51041667,0.2509,0,3,3,3,1,make a drink,004.png,NA,NA,NA,NA,NA,NA,NA,NA,NA,NA,NA,NA,NA,NA,NA,NA,NA,NA,NA,NA,NA,NA,NA,NA,NA,NA,NA,NA,NA,NA,NA,NA,NA,NA,NA,NA,NA,NA,NA
SUPAMT45961,3STRJBFXO2QHC6YEKSU6TU9U5ZIKT9,8AD1C2FC-B885-4B2B-BEE5-199E7D1FCE17,2023-09-27_10h25.55.028,WP_VExplicitOC_LH,2022.2.5,Win32,9.119927041,NA,NA,NA,NA,NA,NA,NA,NA,NA,NA,NA,56.51041667,0.0921,0,4,4,4,1,scroll social media,005.png,NA,NA,NA,NA,NA,NA,NA,NA,NA,NA,NA,NA,NA,NA,NA,NA,NA,NA,NA,NA,NA,NA,NA,NA,NA,NA,NA,NA,NA,NA,NA,NA,NA,NA,NA,NA,NA,NA,NA
SUPAMT45961,3STRJBFXO2QHC6YEKSU6TU9U5ZIKT9,8AD1C2FC-B885-4B2B-BEE5-199E7D1FCE17,2023-09-27_10h25.55.028,WP_VExplicitOC_LH,2022.2.5,Win32,9.119927041,NA,NA,NA,NA,NA,NA,NA,NA,NA,NA,NA,56.51041667,0.1132,0,5,5,5,1,listen to music,006.png,NA,NA,NA,NA,NA,NA,NA,NA,NA,NA,NA,NA,NA,NA,NA,NA,NA,NA,NA,NA,NA,NA,NA,NA,NA,NA,NA,NA,NA,NA,NA,NA,NA,NA,NA,NA,NA,NA,NA
SUPAMT45961,3STRJBFXO2QHC6YEKSU6TU9U5ZIKT9,8AD1C2FC-B885-4B2B-BEE5-199E7D1FCE17,2023-09-27_10h25.55.028,WP_VExplicitOC_LH,2022.2.5,Win32,9.119927041,NA,NA,NA,NA,NA,NA,NA,NA,NA,NA,NA,56.51041667,0.6405,0,6,6,6,1,daydream,007.png,NA,NA,NA,NA,NA,NA,NA,NA,NA,NA,NA,NA,NA,NA,NA,NA,NA,NA,NA,NA,NA,NA,NA,NA,NA,NA,NA,NA,NA,NA,NA,NA,NA,NA,NA,NA,NA,NA,NA
SUPAMT45961,3STRJBFXO2QHC6YEKSU6TU9U5ZIKT9,8AD1C2FC-B885-4B2B-BEE5-199E7D1FCE17,2023-09-27_10h25.55.028,WP_VExplicitOC_LH,2022.2.5,Win32,9.119927041,NA,NA,NA,NA,NA,NA,NA,NA,NA,NA,NA,56.51041667,0.1873,0,7,7,7,1,watch a short animation,008.png,NA,NA,NA,NA,NA,NA,NA,NA,NA,NA,NA,NA,NA,NA,NA,NA,NA,NA,NA,NA,NA,NA,NA,NA,NA,NA,NA,NA,NA,NA,NA,NA,NA,NA,NA,NA,NA,NA,NA
SUPAMT45961,3STRJBFXO2QHC6YEKSU6TU9U5ZIKT9,8AD1C2FC-B885-4B2B-BEE5-199E7D1FCE17,2023-09-27_10h25.55.028,WP_VExplicitOC_LH,2022.2.5,Win32,9.119927041,NA,NA,NA,NA,NA,NA,NA,NA,NA,NA,NA,56.51041667,0.1843,0,8,8,8,1,read a novel,009.png,NA,NA,NA,NA,NA,NA,NA,NA,NA,NA,NA,NA,NA,NA,NA,NA,NA,NA,NA,NA,NA,NA,NA,NA,NA,NA,NA,NA,NA,NA,NA,NA,NA,NA,NA,NA,NA,NA,NA
SUPAMT45961,3STRJBFXO2QHC6YEKSU6TU9U5ZIKT9,8AD1C2FC-B885-4B2B-BEE5-199E7D1FCE17,2023-09-27_10h25.55.028,WP_VExplicitOC_LH,2022.2.5,Win32,9.119927041,NA,NA,NA,NA,NA,NA,NA,NA,NA,NA,NA,56.51041667,0.9856,0,9,9,9,1,read the news,010.png,NA,NA,NA,NA,NA,NA,NA,NA,NA,NA,NA,NA,NA,NA,NA,NA,NA,NA,NA,NA,NA,NA,NA,NA,NA,NA,NA,NA,NA,NA,NA,NA,NA,NA,NA,NA,NA,NA,NA
SUPAMT45961,3STRJBFXO2QHC6YEKSU6TU9U5ZIKT9,8AD1C2FC-B885-4B2B-BEE5-199E7D1FCE17,2023-09-27_10h25.55.028,WP_VExplicitOC_LH,2022.2.5,Win32,9.119927041,NA,NA,NA,NA,NA,NA,NA,NA,NA,NA,NA,NA,NA,NA,NA,NA,NA,NA,NA,NA,NA,NA,NA,NA,NA,NA,NA,NA,NA,NA,NA,NA,NA,NA,NA,NA,NA,NA,NA,NA,NA,NA,NA,NA,NA,NA,NA,NA,NA,NA,NA,NA,NA,NA,NA,NA,NA,NA,NA
SUPAMT45961,3STRJBFXO2QHC6YEKSU6TU9U5ZIKT9,8AD1C2FC-B885-4B2B-BEE5-199E7D1FCE17,2023-09-27_10h25.55.028,WP_VExplicitOC_LH,2022.2.5,Win32,9.119927041,NA,NA,NA,NA,NA,NA,NA,NA,NA,NA,NA,NA,NA,NA,NA,NA,NA,NA,NA,NA,stand up,NA,NA,NA,NA,NA,NA,NA,NA,NA,NA,NA,NA,NA,NA,NA,NA,NA,NA,NA,NA,NA,NA,NA,NA,NA,NA,NA,NA,NA,NA,NA,NA,NA,NA,NA,NA,NA,NA
SUPAMT45961,3STRJBFXO2QHC6YEKSU6TU9U5ZIKT9,8AD1C2FC-B885-4B2B-BEE5-199E7D1FCE17,2023-09-27_10h25.55.028,WP_VExplicitOC_LH,2022.2.5,Win32,9.119927041,NA,NA,2.1029,NA,NA,NA,NA,NA,happy,"unhappy, happy","less happy, more happy",NA,NA,NA,NA,NA,NA,NA,NA,NA,NA,0,0,0,0,1,NA,NA,NA,NA,NA,NA,NA,NA,NA,NA,NA,NA,NA,NA,NA,NA,NA,NA,NA,NA,NA,NA,NA,NA,NA,NA,NA,NA,NA,NA,NA,NA,NA
SUPAMT45961,3STRJBFXO2QHC6YEKSU6TU9U5ZIKT9,8AD1C2FC-B885-4B2B-BEE5-199E7D1FCE17,2023-09-27_10h25.55.028,WP_VExplicitOC_LH,2022.2.5,Win32,9.119927041,63.54166667,3.0097,2.1039,NA,NA,NA,NA,NA,bored,"bored, not bored","more bored, less bored",NA,NA,NA,NA,NA,NA,NA,NA,NA,NA,0,1,1,2,1,NA,NA,NA,NA,NA,NA,NA,NA,NA,NA,NA,NA,NA,NA,NA,NA,NA,NA,NA,NA,NA,NA,NA,NA,NA,NA,NA,NA,NA,NA,NA,NA,NA
SUPAMT45961,3STRJBFXO2QHC6YEKSU6TU9U5ZIKT9,8AD1C2FC-B885-4B2B-BEE5-199E7D1FCE17,2023-09-27_10h25.55.028,WP_VExplicitOC_LH,2022.2.5,Win32,9.119927041,67.1875,3.6006,2.0078,NA,NA,NA,NA,NA,frustrated,"frustrated, not frustrated","more frustrated, less frustrated",NA,NA,NA,NA,NA,NA,NA,NA,NA,NA,0,2,2,1,1,NA,NA,NA,NA,NA,NA,NA,NA,NA,NA,NA,NA,NA,NA,NA,NA,NA,NA,NA,NA,NA,NA,NA,NA,NA,NA,NA,NA,NA,NA,NA,NA,NA
SUPAMT45961,3STRJBFXO2QHC6YEKSU6TU9U5ZIKT9,8AD1C2FC-B885-4B2B-BEE5-199E7D1FCE17,2023-09-27_10h25.55.028,WP_VExplicitOC_LH,2022.2.5,Win32,9.119927041,NA,NA,NA,NA,NA,NA,NA,NA,NA,NA,NA,NA,NA,NA,NA,NA,NA,NA,NA,NA,NA,NA,NA,NA,NA,NA,NA,NA,NA,NA,NA,NA,NA,NA,NA,NA,NA,NA,NA,NA,NA,NA,NA,NA,NA,NA,NA,NA,NA,NA,NA,NA,NA,NA,NA,NA,NA,NA,NA
SUPAMT45961,3STRJBFXO2QHC6YEKSU6TU9U5ZIKT9,8AD1C2FC-B885-4B2B-BEE5-199E7D1FCE17,2023-09-27_10h25.55.028,WP_VExplicitOC_LH,2022.2.5,Win32,9.119927041,NA,NA,NA,NA,NA,NA,NA,NA,NA,NA,NA,NA,NA,NA,NA,NA,NA,NA,NA,NA,NA,NA,NA,NA,NA,NA,NA,NA,NA,NA,NA,NA,NA,NA,NA,NA,NA,NA,NA,NA,NA,NA,NA,NA,NA,NA,NA,NA,NA,NA,NA,NA,NA,NA,NA,NA,NA,NA,NA
SUPAMT45961,3STRJBFXO2QHC6YEKSU6TU9U5ZIKT9,8AD1C2FC-B885-4B2B-BEE5-199E7D1FCE17,2023-09-27_10h25.55.028,WP_VExplicitOC_LH,2022.2.5,Win32,9.119927041,77.34375,3.7906,2.0691,NA,NA,NA,NA,NA,happy,"unhappy, happy","less happy, more happy",NA,NA,NA,NA,NA,NA,NA,NA,NA,NA,NA,NA,NA,NA,NA,0,0,0,0,1,NA,NA,NA,NA,NA,NA,NA,NA,NA,NA,NA,NA,NA,NA,NA,NA,NA,NA,NA,NA,NA,NA,NA,NA,NA,NA,NA,NA
SUPAMT45961,3STRJBFXO2QHC6YEKSU6TU9U5ZIKT9,8AD1C2FC-B885-4B2B-BEE5-199E7D1FCE17,2023-09-27_10h25.55.028,WP_VExplicitOC_LH,2022.2.5,Win32,9.119927041,76.30208333,3.2817,2.0981,NA,NA,NA,NA,NA,frustrated,"frustrated, not frustrated","more frustrated, less frustrated",NA,NA,NA,NA,NA,NA,NA,NA,NA,NA,NA,NA,NA,NA,NA,0,1,1,1,1,NA,NA,NA,NA,NA,NA,NA,NA,NA,NA,NA,NA,NA,NA,NA,NA,NA,NA,NA,NA,NA,NA,NA,NA,NA,NA,NA,NA
SUPAMT45961,3STRJBFXO2QHC6YEKSU6TU9U5ZIKT9,8AD1C2FC-B885-4B2B-BEE5-199E7D1FCE17,2023-09-27_10h25.55.028,WP_VExplicitOC_LH,2022.2.5,Win32,9.119927041,48.69791667,3.5681,2.05,NA,NA,NA,NA,NA,bored,"bored, not bored","more bored, less bored",NA,NA,NA,NA,NA,NA,NA,NA,NA,NA,NA,NA,NA,NA,NA,0,2,2,2,1,NA,NA,NA,NA,NA,NA,NA,NA,NA,NA,NA,NA,NA,NA,NA,NA,NA,NA,NA,NA,NA,NA,NA,NA,NA,NA,NA,NA
SUPAMT45961,3STRJBFXO2QHC6YEKSU6TU9U5ZIKT9,8AD1C2FC-B885-4B2B-BEE5-199E7D1FCE17,2023-09-27_10h25.55.028,WP_VExplicitOC_LH,2022.2.5,Win32,9.119927041,NA,NA,NA,NA,NA,NA,NA,NA,NA,NA,NA,NA,NA,NA,NA,NA,NA,NA,NA,NA,NA,NA,NA,NA,NA,NA,NA,NA,NA,NA,NA,0,0,0,0,1,NA,NA,NA,NA,NA,NA,NA,NA,NA,NA,NA,NA,NA,NA,NA,NA,NA,NA,NA,NA,NA,NA,NA
SUPAMT45961,3STRJBFXO2QHC6YEKSU6TU9U5ZIKT9,8AD1C2FC-B885-4B2B-BEE5-199E7D1FCE17,2023-09-27_10h25.55.028,WP_VExplicitOC_LH,2022.2.5,Win32,9.119927041,50,3.7249,2.0006,NA,NA,NA,NA,NA,happy,"unhappy, happy","less happy, more happy",NA,NA,NA,NA,NA,NA,NA,NA,NA,NA,NA,NA,NA,NA,NA,0,0,0,0,1,NA,NA,NA,NA,NA,NA,NA,NA,NA,NA,NA,NA,NA,NA,NA,NA,NA,NA,NA,NA,NA,NA,NA,NA,NA,NA,NA,NA
SUPAMT45961,3STRJBFXO2QHC6YEKSU6TU9U5ZIKT9,8AD1C2FC-B885-4B2B-BEE5-199E7D1FCE17,2023-09-27_10h25.55.028,WP_VExplicitOC_LH,2022.2.5,Win32,9.119927041,65.10416667,4.3809,2.0786,NA,NA,NA,NA,NA,frustrated,"frustrated, not frustrated","more frustrated, less frustrated",NA,NA,NA,NA,NA,NA,NA,NA,NA,NA,NA,NA,NA,NA,NA,0,1,1,1,1,NA,NA,NA,NA,NA,NA,NA,NA,NA,NA,NA,NA,NA,NA,NA,NA,NA,NA,NA,NA,NA,NA,NA,NA,NA,NA,NA,NA
SUPAMT45961,3STRJBFXO2QHC6YEKSU6TU9U5ZIKT9,8AD1C2FC-B885-4B2B-BEE5-199E7D1FCE17,2023-09-27_10h25.55.028,WP_VExplicitOC_LH,2022.2.5,Win32,9.119927041,58.33333333,3.3759,2.0693,NA,NA,NA,NA,NA,bored,"bored, not bored","more bored, less bored",NA,NA,NA,NA,NA,NA,NA,NA,NA,NA,NA,NA,NA,NA,NA,0,2,2,2,1,NA,NA,NA,NA,NA,NA,NA,NA,NA,NA,NA,NA,NA,NA,NA,NA,NA,NA,NA,NA,NA,NA,NA,NA,NA,NA,NA,NA
SUPAMT45961,3STRJBFXO2QHC6YEKSU6TU9U5ZIKT9,8AD1C2FC-B885-4B2B-BEE5-199E7D1FCE17,2023-09-27_10h25.55.028,WP_VExplicitOC_LH,2022.2.5,Win32,9.119927041,NA,NA,NA,NA,NA,NA,NA,NA,NA,NA,NA,NA,NA,NA,NA,NA,NA,NA,NA,NA,NA,NA,NA,NA,NA,NA,NA,NA,NA,NA,NA,1,0,1,0,1,NA,NA,NA,NA,NA,NA,NA,NA,NA,NA,NA,NA,NA,NA,NA,NA,NA,NA,NA,NA,NA,NA,NA
SUPAMT45961,3STRJBFXO2QHC6YEKSU6TU9U5ZIKT9,8AD1C2FC-B885-4B2B-BEE5-199E7D1FCE17,2023-09-27_10h25.55.028,WP_VExplicitOC_LH,2022.2.5,Win32,9.119927041,58.85416667,3.5132,2.0585,NA,NA,NA,NA,NA,bored,"bored, not bored","more bored, less bored",NA,NA,NA,NA,NA,NA,NA,NA,NA,NA,NA,NA,NA,NA,NA,0,0,0,2,1,NA,NA,NA,NA,NA,NA,NA,NA,NA,NA,NA,NA,NA,NA,NA,NA,NA,NA,NA,NA,NA,NA,NA,NA,NA,NA,NA,NA
SUPAMT45961,3STRJBFXO2QHC6YEKSU6TU9U5ZIKT9,8AD1C2FC-B885-4B2B-BEE5-199E7D1FCE17,2023-09-27_10h25.55.028,WP_VExplicitOC_LH,2022.2.5,Win32,9.119927041,56.51041667,3.3361,2.0224,NA,NA,NA,NA,NA,happy,"unhappy, happy","less happy, more happy",NA,NA,NA,NA,NA,NA,NA,NA,NA,NA,NA,NA,NA,NA,NA,0,1,1,0,1,NA,NA,NA,NA,NA,NA,NA,NA,NA,NA,NA,NA,NA,NA,NA,NA,NA,NA,NA,NA,NA,NA,NA,NA,NA,NA,NA,NA
SUPAMT45961,3STRJBFXO2QHC6YEKSU6TU9U5ZIKT9,8AD1C2FC-B885-4B2B-BEE5-199E7D1FCE17,2023-09-27_10h25.55.028,WP_VExplicitOC_LH,2022.2.5,Win32,9.119927041,56.51041667,4.4201,2.0289,NA,NA,NA,NA,NA,frustrated,"frustrated, not frustrated","more frustrated, less frustrated",NA,NA,NA,NA,NA,NA,NA,NA,NA,NA,NA,NA,NA,NA,NA,0,2,2,1,1,NA,NA,NA,NA,NA,NA,NA,NA,NA,NA,NA,NA,NA,NA,NA,NA,NA,NA,NA,NA,NA,NA,NA,NA,NA,NA,NA,NA
SUPAMT45961,3STRJBFXO2QHC6YEKSU6TU9U5ZIKT9,8AD1C2FC-B885-4B2B-BEE5-199E7D1FCE17,2023-09-27_10h25.55.028,WP_VExplicitOC_LH,2022.2.5,Win32,9.119927041,NA,NA,NA,NA,NA,NA,NA,NA,NA,NA,NA,NA,NA,NA,NA,NA,NA,NA,NA,NA,NA,NA,NA,NA,NA,NA,NA,NA,NA,NA,NA,2,0,2,0,1,NA,NA,NA,NA,NA,NA,NA,NA,NA,NA,NA,NA,NA,NA,NA,NA,NA,NA,NA,NA,NA,NA,NA
SUPAMT45961,3STRJBFXO2QHC6YEKSU6TU9U5ZIKT9,8AD1C2FC-B885-4B2B-BEE5-199E7D1FCE17,2023-09-27_10h25.55.028,WP_VExplicitOC_LH,2022.2.5,Win32,9.119927041,71.09375,3.5132,2.0709,NA,NA,NA,NA,NA,happy,"unhappy, happy","less happy, more happy",NA,NA,NA,NA,NA,NA,NA,NA,NA,NA,NA,NA,NA,NA,NA,0,0,0,0,1,NA,NA,NA,NA,NA,NA,NA,NA,NA,NA,NA,NA,NA,NA,NA,NA,NA,NA,NA,NA,NA,NA,NA,NA,NA,NA,NA,NA
SUPAMT45961,3STRJBFXO2QHC6YEKSU6TU9U5ZIKT9,8AD1C2FC-B885-4B2B-BEE5-199E7D1FCE17,2023-09-27_10h25.55.028,WP_VExplicitOC_LH,2022.2.5,Win32,9.119927041,70.83333333,2.9683,2.0299,NA,NA,NA,NA,NA,bored,"bored, not bored","more bored, less bored",NA,NA,NA,NA,NA,NA,NA,NA,NA,NA,NA,NA,NA,NA,NA,0,1,1,2,1,NA,NA,NA,NA,NA,NA,NA,NA,NA,NA,NA,NA,NA,NA,NA,NA,NA,NA,NA,NA,NA,NA,NA,NA,NA,NA,NA,NA
SUPAMT45961,3STRJBFXO2QHC6YEKSU6TU9U5ZIKT9,8AD1C2FC-B885-4B2B-BEE5-199E7D1FCE17,2023-09-27_10h25.55.028,WP_VExplicitOC_LH,2022.2.5,Win32,9.119927041,70.05208333,3.4523,2.1251,NA,NA,NA,NA,NA,frustrated,"frustrated, not frustrated","more frustrated, less frustrated",NA,NA,NA,NA,NA,NA,NA,NA,NA,NA,NA,NA,NA,NA,NA,0,2,2,1,1,NA,NA,NA,NA,NA,NA,NA,NA,NA,NA,NA,NA,NA,NA,NA,NA,NA,NA,NA,NA,NA,NA,NA,NA,NA,NA,NA,NA
SUPAMT45961,3STRJBFXO2QHC6YEKSU6TU9U5ZIKT9,8AD1C2FC-B885-4B2B-BEE5-199E7D1FCE17,2023-09-27_10h25.55.028,WP_VExplicitOC_LH,2022.2.5,Win32,9.119927041,NA,NA,NA,NA,NA,NA,NA,NA,NA,NA,NA,NA,NA,NA,NA,NA,NA,NA,NA,NA,NA,NA,NA,NA,NA,NA,NA,NA,NA,NA,NA,3,0,3,0,1,NA,NA,NA,NA,NA,NA,NA,NA,NA,NA,NA,NA,NA,NA,NA,NA,NA,NA,NA,NA,NA,NA,NA
SUPAMT45961,3STRJBFXO2QHC6YEKSU6TU9U5ZIKT9,8AD1C2FC-B885-4B2B-BEE5-199E7D1FCE17,2023-09-27_10h25.55.028,WP_VExplicitOC_LH,2022.2.5,Win32,9.119927041,68.22916667,3.8803,2.0121000000000002,NA,NA,NA,NA,NA,frustrated,"frustrated, not frustrated","more frustrated, less frustrated",NA,NA,NA,NA,NA,NA,NA,NA,NA,NA,NA,NA,NA,NA,NA,0,0,0,1,1,NA,NA,NA,NA,NA,NA,NA,NA,NA,NA,NA,NA,NA,NA,NA,NA,NA,NA,NA,NA,NA,NA,NA,NA,NA,NA,NA,NA
SUPAMT45961,3STRJBFXO2QHC6YEKSU6TU9U5ZIKT9,8AD1C2FC-B885-4B2B-BEE5-199E7D1FCE17,2023-09-27_10h25.55.028,WP_VExplicitOC_LH,2022.2.5,Win32,9.119927041,68.22916667,4.4318,2.0592,NA,NA,NA,NA,NA,happy,"unhappy, happy","less happy, more happy",NA,NA,NA,NA,NA,NA,NA,NA,NA,NA,NA,NA,NA,NA,NA,0,1,1,0,1,NA,NA,NA,NA,NA,NA,NA,NA,NA,NA,NA,NA,NA,NA,NA,NA,NA,NA,NA,NA,NA,NA,NA,NA,NA,NA,NA,NA
SUPAMT45961,3STRJBFXO2QHC6YEKSU6TU9U5ZIKT9,8AD1C2FC-B885-4B2B-BEE5-199E7D1FCE17,2023-09-27_10h25.55.028,WP_VExplicitOC_LH,2022.2.5,Win32,9.119927041,NA,NA,2.0083,NA,NA,NA,NA,NA,bored,"bored, not bored","more bored, less bored",NA,NA,NA,NA,NA,NA,NA,NA,NA,NA,NA,NA,NA,NA,NA,0,2,2,2,1,NA,NA,NA,NA,NA,NA,NA,NA,NA,NA,NA,NA,NA,NA,NA,NA,NA,NA,NA,NA,NA,NA,NA,NA,NA,NA,NA,NA
SUPAMT45961,3STRJBFXO2QHC6YEKSU6TU9U5ZIKT9,8AD1C2FC-B885-4B2B-BEE5-199E7D1FCE17,2023-09-27_10h25.55.028,WP_VExplicitOC_LH,2022.2.5,Win32,9.119927041,NA,NA,NA,NA,NA,NA,NA,NA,NA,NA,NA,NA,NA,NA,NA,NA,NA,NA,NA,NA,NA,NA,NA,NA,NA,NA,NA,NA,NA,NA,NA,4,0,4,0,1,NA,NA,NA,NA,NA,NA,NA,NA,NA,NA,NA,NA,NA,NA,NA,NA,NA,NA,NA,NA,NA,NA,NA
SUPAMT45961,3STRJBFXO2QHC6YEKSU6TU9U5ZIKT9,8AD1C2FC-B885-4B2B-BEE5-199E7D1FCE17,2023-09-27_10h25.55.028,WP_VExplicitOC_LH,2022.2.5,Win32,9.119927041,73.95833333,4.1618,2.0453,NA,NA,NA,NA,NA,bored,"bored, not bored","more bored, less bored",NA,NA,NA,NA,NA,NA,NA,NA,NA,NA,NA,NA,NA,NA,NA,0,0,0,2,1,NA,NA,NA,NA,NA,NA,NA,NA,NA,NA,NA,NA,NA,NA,NA,NA,NA,NA,NA,NA,NA,NA,NA,NA,NA,NA,NA,NA
SUPAMT45961,3STRJBFXO2QHC6YEKSU6TU9U5ZIKT9,8AD1C2FC-B885-4B2B-BEE5-199E7D1FCE17,2023-09-27_10h25.55.028,WP_VExplicitOC_LH,2022.2.5,Win32,9.119927041,69.27083333,4.1138,2.044,NA,NA,NA,NA,NA,frustrated,"frustrated, not frustrated","more frustrated, less frustrated",NA,NA,NA,NA,NA,NA,NA,NA,NA,NA,NA,NA,NA,NA,NA,0,1,1,1,1,NA,NA,NA,NA,NA,NA,NA,NA,NA,NA,NA,NA,NA,NA,NA,NA,NA,NA,NA,NA,NA,NA,NA,NA,NA,NA,NA,NA
SUPAMT45961,3STRJBFXO2QHC6YEKSU6TU9U5ZIKT9,8AD1C2FC-B885-4B2B-BEE5-199E7D1FCE17,2023-09-27_10h25.55.028,WP_VExplicitOC_LH,2022.2.5,Win32,9.119927041,56.77083333,3.8756,2.0685,NA,NA,NA,NA,NA,happy,"unhappy, happy","less happy, more happy",NA,NA,NA,NA,NA,NA,NA,NA,NA,NA,NA,NA,NA,NA,NA,0,2,2,0,1,NA,NA,NA,NA,NA,NA,NA,NA,NA,NA,NA,NA,NA,NA,NA,NA,NA,NA,NA,NA,NA,NA,NA,NA,NA,NA,NA,NA
SUPAMT45961,3STRJBFXO2QHC6YEKSU6TU9U5ZIKT9,8AD1C2FC-B885-4B2B-BEE5-199E7D1FCE17,2023-09-27_10h25.55.028,WP_VExplicitOC_LH,2022.2.5,Win32,9.119927041,NA,NA,NA,NA,NA,NA,NA,NA,NA,NA,NA,NA,NA,NA,NA,NA,NA,NA,NA,NA,NA,NA,NA,NA,NA,NA,NA,NA,NA,NA,NA,5,0,5,0,1,NA,NA,NA,NA,NA,NA,NA,NA,NA,NA,NA,NA,NA,NA,NA,NA,NA,NA,NA,NA,NA,NA,NA
SUPAMT45961,3STRJBFXO2QHC6YEKSU6TU9U5ZIKT9,8AD1C2FC-B885-4B2B-BEE5-199E7D1FCE17,2023-09-27_10h25.55.028,WP_VExplicitOC_LH,2022.2.5,Win32,9.119927041,60.41666667,5.8301,2.0212,NA,NA,NA,NA,NA,happy,"unhappy, happy","less happy, more happy",NA,NA,NA,NA,NA,NA,NA,NA,NA,NA,NA,NA,NA,NA,NA,0,0,0,0,1,NA,NA,NA,NA,NA,NA,NA,NA,NA,NA,NA,NA,NA,NA,NA,NA,NA,NA,NA,NA,NA,NA,NA,NA,NA,NA,NA,NA
SUPAMT45961,3STRJBFXO2QHC6YEKSU6TU9U5ZIKT9,8AD1C2FC-B885-4B2B-BEE5-199E7D1FCE17,2023-09-27_10h25.55.028,WP_VExplicitOC_LH,2022.2.5,Win32,9.119927041,64.32291667,2.9671,2.0778,NA,NA,NA,NA,NA,bored,"bored, not bored","more bored, less bored",NA,NA,NA,NA,NA,NA,NA,NA,NA,NA,NA,NA,NA,NA,NA,0,1,1,2,1,NA,NA,NA,NA,NA,NA,NA,NA,NA,NA,NA,NA,NA,NA,NA,NA,NA,NA,NA,NA,NA,NA,NA,NA,NA,NA,NA,NA
SUPAMT45961,3STRJBFXO2QHC6YEKSU6TU9U5ZIKT9,8AD1C2FC-B885-4B2B-BEE5-199E7D1FCE17,2023-09-27_10h25.55.028,WP_VExplicitOC_LH,2022.2.5,Win32,9.119927041,64.32291667,2.8994,2.0447,NA,NA,NA,NA,NA,frustrated,"frustrated, not frustrated","more frustrated, less frustrated",NA,NA,NA,NA,NA,NA,NA,NA,NA,NA,NA,NA,NA,NA,NA,0,2,2,1,1,NA,NA,NA,NA,NA,NA,NA,NA,NA,NA,NA,NA,NA,NA,NA,NA,NA,NA,NA,NA,NA,NA,NA,NA,NA,NA,NA,NA
SUPAMT45961,3STRJBFXO2QHC6YEKSU6TU9U5ZIKT9,8AD1C2FC-B885-4B2B-BEE5-199E7D1FCE17,2023-09-27_10h25.55.028,WP_VExplicitOC_LH,2022.2.5,Win32,9.119927041,NA,NA,NA,NA,NA,NA,NA,NA,NA,NA,NA,NA,NA,NA,NA,NA,NA,NA,NA,NA,NA,NA,NA,NA,NA,NA,NA,NA,NA,NA,NA,6,0,6,0,1,NA,NA,NA,NA,NA,NA,NA,NA,NA,NA,NA,NA,NA,NA,NA,NA,NA,NA,NA,NA,NA,NA,NA
SUPAMT45961,3STRJBFXO2QHC6YEKSU6TU9U5ZIKT9,8AD1C2FC-B885-4B2B-BEE5-199E7D1FCE17,2023-09-27_10h25.55.028,WP_VExplicitOC_LH,2022.2.5,Win32,9.119927041,61.71875,6.095,2.0809,NA,NA,NA,NA,NA,frustrated,"frustrated, not frustrated","more frustrated, less frustrated",NA,NA,NA,NA,NA,NA,NA,NA,NA,NA,NA,NA,NA,NA,NA,0,0,0,1,1,NA,NA,NA,NA,NA,NA,NA,NA,NA,NA,NA,NA,NA,NA,NA,NA,NA,NA,NA,NA,NA,NA,NA,NA,NA,NA,NA,NA
SUPAMT45961,3STRJBFXO2QHC6YEKSU6TU9U5ZIKT9,8AD1C2FC-B885-4B2B-BEE5-199E7D1FCE17,2023-09-27_10h25.55.028,WP_VExplicitOC_LH,2022.2.5,Win32,9.119927041,66.66666667,3.1374,2.0244,NA,NA,NA,NA,NA,happy,"unhappy, happy","less happy, more happy",NA,NA,NA,NA,NA,NA,NA,NA,NA,NA,NA,NA,NA,NA,NA,0,1,1,0,1,NA,NA,NA,NA,NA,NA,NA,NA,NA,NA,NA,NA,NA,NA,NA,NA,NA,NA,NA,NA,NA,NA,NA,NA,NA,NA,NA,NA
SUPAMT45961,3STRJBFXO2QHC6YEKSU6TU9U5ZIKT9,8AD1C2FC-B885-4B2B-BEE5-199E7D1FCE17,2023-09-27_10h25.55.028,WP_VExplicitOC_LH,2022.2.5,Win32,9.119927041,67.96875,3.4718,2.0379,NA,NA,NA,NA,NA,bored,"bored, not bored","more bored, less bored",NA,NA,NA,NA,NA,NA,NA,NA,NA,NA,NA,NA,NA,NA,NA,0,2,2,2,1,NA,NA,NA,NA,NA,NA,NA,NA,NA,NA,NA,NA,NA,NA,NA,NA,NA,NA,NA,NA,NA,NA,NA,NA,NA,NA,NA,NA
SUPAMT45961,3STRJBFXO2QHC6YEKSU6TU9U5ZIKT9,8AD1C2FC-B885-4B2B-BEE5-199E7D1FCE17,2023-09-27_10h25.55.028,WP_VExplicitOC_LH,2022.2.5,Win32,9.119927041,NA,NA,NA,NA,NA,NA,NA,NA,NA,NA,NA,NA,NA,NA,NA,NA,NA,NA,NA,NA,NA,NA,NA,NA,NA,NA,NA,NA,NA,NA,NA,7,0,7,0,1,NA,NA,NA,NA,NA,NA,NA,NA,NA,NA,NA,NA,NA,NA,NA,NA,NA,NA,NA,NA,NA,NA,NA
SUPAMT45961,3STRJBFXO2QHC6YEKSU6TU9U5ZIKT9,8AD1C2FC-B885-4B2B-BEE5-199E7D1FCE17,2023-09-27_10h25.55.028,WP_VExplicitOC_LH,2022.2.5,Win32,9.119927041,NA,NA,2.1039,NA,NA,NA,NA,NA,bored,"bored, not bored","more bored, less bored",NA,NA,NA,NA,NA,NA,NA,NA,NA,NA,NA,NA,NA,NA,NA,0,0,0,2,1,NA,NA,NA,NA,NA,NA,NA,NA,NA,NA,NA,NA,NA,NA,NA,NA,NA,NA,NA,NA,NA,NA,NA,NA,NA,NA,NA,NA
SUPAMT45961,3STRJBFXO2QHC6YEKSU6TU9U5ZIKT9,8AD1C2FC-B885-4B2B-BEE5-199E7D1FCE17,2023-09-27_10h25.55.028,WP_VExplicitOC_LH,2022.2.5,Win32,9.119927041,NA,NA,2.0376,NA,NA,NA,NA,NA,frustrated,"frustrated, not frustrated","more frustrated, less frustrated",NA,NA,NA,NA,NA,NA,NA,NA,NA,NA,NA,NA,NA,NA,NA,0,1,1,1,1,NA,NA,NA,NA,NA,NA,NA,NA,NA,NA,NA,NA,NA,NA,NA,NA,NA,NA,NA,NA,NA,NA,NA,NA,NA,NA,NA,NA
SUPAMT45961,3STRJBFXO2QHC6YEKSU6TU9U5ZIKT9,8AD1C2FC-B885-4B2B-BEE5-199E7D1FCE17,2023-09-27_10h25.55.028,WP_VExplicitOC_LH,2022.2.5,Win32,9.119927041,66.66666667,3.3667,2.0492,NA,NA,NA,NA,NA,happy,"unhappy, happy","less happy, more happy",NA,NA,NA,NA,NA,NA,NA,NA,NA,NA,NA,NA,NA,NA,NA,0,2,2,0,1,NA,NA,NA,NA,NA,NA,NA,NA,NA,NA,NA,NA,NA,NA,NA,NA,NA,NA,NA,NA,NA,NA,NA,NA,NA,NA,NA,NA
SUPAMT45961,3STRJBFXO2QHC6YEKSU6TU9U5ZIKT9,8AD1C2FC-B885-4B2B-BEE5-199E7D1FCE17,2023-09-27_10h25.55.028,WP_VExplicitOC_LH,2022.2.5,Win32,9.119927041,NA,NA,NA,NA,NA,NA,NA,NA,NA,NA,NA,NA,NA,NA,NA,NA,NA,NA,NA,NA,NA,NA,NA,NA,NA,NA,NA,NA,NA,NA,NA,8,0,8,0,1,NA,NA,NA,NA,NA,NA,NA,NA,NA,NA,NA,NA,NA,NA,NA,NA,NA,NA,NA,NA,NA,NA,NA
SUPAMT45961,3STRJBFXO2QHC6YEKSU6TU9U5ZIKT9,8AD1C2FC-B885-4B2B-BEE5-199E7D1FCE17,2023-09-27_10h25.55.028,WP_VExplicitOC_LH,2022.2.5,Win32,9.119927041,NA,NA,2.0516,NA,NA,NA,NA,NA,bored,"bored, not bored","more bored, less bored",NA,NA,NA,NA,NA,NA,NA,NA,NA,NA,NA,NA,NA,NA,NA,0,0,0,2,1,NA,NA,NA,NA,NA,NA,NA,NA,NA,NA,NA,NA,NA,NA,NA,NA,NA,NA,NA,NA,NA,NA,NA,NA,NA,NA,NA,NA
SUPAMT45961,3STRJBFXO2QHC6YEKSU6TU9U5ZIKT9,8AD1C2FC-B885-4B2B-BEE5-199E7D1FCE17,2023-09-27_10h25.55.028,WP_VExplicitOC_LH,2022.2.5,Win32,9.119927041,64.32291667,7.4171,2.068,NA,NA,NA,NA,NA,happy,"unhappy, happy","less happy, more happy",NA,NA,NA,NA,NA,NA,NA,NA,NA,NA,NA,NA,NA,NA,NA,0,1,1,0,1,NA,NA,NA,NA,NA,NA,NA,NA,NA,NA,NA,NA,NA,NA,NA,NA,NA,NA,NA,NA,NA,NA,NA,NA,NA,NA,NA,NA
SUPAMT45961,3STRJBFXO2QHC6YEKSU6TU9U5ZIKT9,8AD1C2FC-B885-4B2B-BEE5-199E7D1FCE17,2023-09-27_10h25.55.028,WP_VExplicitOC_LH,2022.2.5,Win32,9.119927041,60.41666667,3.3008,2.0788,NA,NA,NA,NA,NA,frustrated,"frustrated, not frustrated","more frustrated, less frustrated",NA,NA,NA,NA,NA,NA,NA,NA,NA,NA,NA,NA,NA,NA,NA,0,2,2,1,1,NA,NA,NA,NA,NA,NA,NA,NA,NA,NA,NA,NA,NA,NA,NA,NA,NA,NA,NA,NA,NA,NA,NA,NA,NA,NA,NA,NA
SUPAMT45961,3STRJBFXO2QHC6YEKSU6TU9U5ZIKT9,8AD1C2FC-B885-4B2B-BEE5-199E7D1FCE17,2023-09-27_10h25.55.028,WP_VExplicitOC_LH,2022.2.5,Win32,9.119927041,NA,NA,NA,NA,NA,NA,NA,NA,NA,NA,NA,NA,NA,NA,NA,NA,NA,NA,NA,NA,NA,NA,NA,NA,NA,NA,NA,NA,NA,NA,NA,9,0,9,0,1,NA,NA,NA,NA,NA,NA,NA,NA,NA,NA,NA,NA,NA,NA,NA,NA,NA,NA,NA,NA,NA,NA,NA
SUPAMT45961,3STRJBFXO2QHC6YEKSU6TU9U5ZIKT9,8AD1C2FC-B885-4B2B-BEE5-199E7D1FCE17,2023-09-27_10h25.55.028,WP_VExplicitOC_LH,2022.2.5,Win32,9.119927041,41.92708333,3.5674,2.0677,NA,NA,NA,NA,NA,frustrated,"frustrated, not frustrated","more frustrated, less frustrated",NA,NA,NA,NA,NA,NA,NA,NA,NA,NA,NA,NA,NA,NA,NA,0,0,0,1,1,NA,NA,NA,NA,NA,NA,NA,NA,NA,NA,NA,NA,NA,NA,NA,NA,NA,NA,NA,NA,NA,NA,NA,NA,NA,NA,NA,NA
SUPAMT45961,3STRJBFXO2QHC6YEKSU6TU9U5ZIKT9,8AD1C2FC-B885-4B2B-BEE5-199E7D1FCE17,2023-09-27_10h25.55.028,WP_VExplicitOC_LH,2022.2.5,Win32,9.119927041,41.66666667,3.4901,2.0503,NA,NA,NA,NA,NA,happy,"unhappy, happy","less happy, more happy",NA,NA,NA,NA,NA,NA,NA,NA,NA,NA,NA,NA,NA,NA,NA,0,1,1,0,1,NA,NA,NA,NA,NA,NA,NA,NA,NA,NA,NA,NA,NA,NA,NA,NA,NA,NA,NA,NA,NA,NA,NA,NA,NA,NA,NA,NA
SUPAMT45961,3STRJBFXO2QHC6YEKSU6TU9U5ZIKT9,8AD1C2FC-B885-4B2B-BEE5-199E7D1FCE17,2023-09-27_10h25.55.028,WP_VExplicitOC_LH,2022.2.5,Win32,9.119927041,41.66666667,3.0343,2.0302,NA,NA,NA,NA,NA,bored,"bored, not bored","more bored, less bored",NA,NA,NA,NA,NA,NA,NA,NA,NA,NA,NA,NA,NA,NA,NA,0,2,2,2,1,NA,NA,NA,NA,NA,NA,NA,NA,NA,NA,NA,NA,NA,NA,NA,NA,NA,NA,NA,NA,NA,NA,NA,NA,NA,NA,NA,NA
SUPAMT45961,3STRJBFXO2QHC6YEKSU6TU9U5ZIKT9,8AD1C2FC-B885-4B2B-BEE5-199E7D1FCE17,2023-09-27_10h25.55.028,WP_VExplicitOC_LH,2022.2.5,Win32,9.119927041,NA,NA,NA,NA,NA,NA,NA,NA,NA,NA,NA,NA,NA,NA,NA,NA,NA,NA,NA,NA,NA,NA,NA,NA,NA,NA,NA,NA,NA,NA,NA,10,0,10,0,1,NA,NA,NA,NA,NA,NA,NA,NA,NA,NA,NA,NA,NA,NA,NA,NA,NA,NA,NA,NA,NA,NA,NA
SUPAMT45961,3STRJBFXO2QHC6YEKSU6TU9U5ZIKT9,8AD1C2FC-B885-4B2B-BEE5-199E7D1FCE17,2023-09-27_10h25.55.028,WP_VExplicitOC_LH,2022.2.5,Win32,9.119927041,42.70833333,4.1456,2.0898,NA,NA,NA,NA,NA,happy,"unhappy, happy","less happy, more happy",NA,NA,NA,NA,NA,NA,NA,NA,NA,NA,NA,NA,NA,NA,NA,0,0,0,0,1,NA,NA,NA,NA,NA,NA,NA,NA,NA,NA,NA,NA,NA,NA,NA,NA,NA,NA,NA,NA,NA,NA,NA,NA,NA,NA,NA,NA
SUPAMT45961,3STRJBFXO2QHC6YEKSU6TU9U5ZIKT9,8AD1C2FC-B885-4B2B-BEE5-199E7D1FCE17,2023-09-27_10h25.55.028,WP_VExplicitOC_LH,2022.2.5,Win32,9.119927041,66.40625,4.9139,2.0316,NA,NA,NA,NA,NA,bored,"bored, not bored","more bored, less bored",NA,NA,NA,NA,NA,NA,NA,NA,NA,NA,NA,NA,NA,NA,NA,0,1,1,2,1,NA,NA,NA,NA,NA,NA,NA,NA,NA,NA,NA,NA,NA,NA,NA,NA,NA,NA,NA,NA,NA,NA,NA,NA,NA,NA,NA,NA
SUPAMT45961,3STRJBFXO2QHC6YEKSU6TU9U5ZIKT9,8AD1C2FC-B885-4B2B-BEE5-199E7D1FCE17,2023-09-27_10h25.55.028,WP_VExplicitOC_LH,2022.2.5,Win32,9.119927041,71.09375,3.7303,2.0232,NA,NA,NA,NA,NA,frustrated,"frustrated, not frustrated","more frustrated, less frustrated",NA,NA,NA,NA,NA,NA,NA,NA,NA,NA,NA,NA,NA,NA,NA,0,2,2,1,1,NA,NA,NA,NA,NA,NA,NA,NA,NA,NA,NA,NA,NA,NA,NA,NA,NA,NA,NA,NA,NA,NA,NA,NA,NA,NA,NA,NA
SUPAMT45961,3STRJBFXO2QHC6YEKSU6TU9U5ZIKT9,8AD1C2FC-B885-4B2B-BEE5-199E7D1FCE17,2023-09-27_10h25.55.028,WP_VExplicitOC_LH,2022.2.5,Win32,9.119927041,NA,NA,NA,NA,NA,NA,NA,NA,NA,NA,NA,NA,NA,NA,NA,NA,NA,NA,NA,NA,NA,NA,NA,NA,NA,NA,NA,NA,NA,NA,NA,11,0,11,0,1,NA,NA,NA,NA,NA,NA,NA,NA,NA,NA,NA,NA,NA,NA,NA,NA,NA,NA,NA,NA,NA,NA,NA
SUPAMT45961,3STRJBFXO2QHC6YEKSU6TU9U5ZIKT9,8AD1C2FC-B885-4B2B-BEE5-199E7D1FCE17,2023-09-27_10h25.55.028,WP_VExplicitOC_LH,2022.2.5,Win32,9.119927041,58.59375,3.2278,2.0451,NA,NA,NA,NA,NA,frustrated,"frustrated, not frustrated","more frustrated, less frustrated",NA,NA,NA,NA,NA,NA,NA,NA,NA,NA,NA,NA,NA,NA,NA,0,0,0,1,1,NA,NA,NA,NA,NA,NA,NA,NA,NA,NA,NA,NA,NA,NA,NA,NA,NA,NA,NA,NA,NA,NA,NA,NA,NA,NA,NA,NA
SUPAMT45961,3STRJBFXO2QHC6YEKSU6TU9U5ZIKT9,8AD1C2FC-B885-4B2B-BEE5-199E7D1FCE17,2023-09-27_10h25.55.028,WP_VExplicitOC_LH,2022.2.5,Win32,9.119927041,58.85416667,3.4216,2.0916,NA,NA,NA,NA,NA,bored,"bored, not bored","more bored, less bored",NA,NA,NA,NA,NA,NA,NA,NA,NA,NA,NA,NA,NA,NA,NA,0,1,1,2,1,NA,NA,NA,NA,NA,NA,NA,NA,NA,NA,NA,NA,NA,NA,NA,NA,NA,NA,NA,NA,NA,NA,NA,NA,NA,NA,NA,NA
SUPAMT45961,3STRJBFXO2QHC6YEKSU6TU9U5ZIKT9,8AD1C2FC-B885-4B2B-BEE5-199E7D1FCE17,2023-09-27_10h25.55.028,WP_VExplicitOC_LH,2022.2.5,Win32,9.119927041,58.85416667,3.0847,2.094,NA,NA,NA,NA,NA,happy,"unhappy, happy","less happy, more happy",NA,NA,NA,NA,NA,NA,NA,NA,NA,NA,NA,NA,NA,NA,NA,0,2,2,0,1,NA,NA,NA,NA,NA,NA,NA,NA,NA,NA,NA,NA,NA,NA,NA,NA,NA,NA,NA,NA,NA,NA,NA,NA,NA,NA,NA,NA
SUPAMT45961,3STRJBFXO2QHC6YEKSU6TU9U5ZIKT9,8AD1C2FC-B885-4B2B-BEE5-199E7D1FCE17,2023-09-27_10h25.55.028,WP_VExplicitOC_LH,2022.2.5,Win32,9.119927041,NA,NA,NA,NA,NA,NA,NA,NA,NA,NA,NA,NA,NA,NA,NA,NA,NA,NA,NA,NA,NA,NA,NA,NA,NA,NA,NA,NA,NA,NA,NA,12,0,12,0,1,NA,NA,NA,NA,NA,NA,NA,NA,NA,NA,NA,NA,NA,NA,NA,NA,NA,NA,NA,NA,NA,NA,NA
SUPAMT45961,3STRJBFXO2QHC6YEKSU6TU9U5ZIKT9,8AD1C2FC-B885-4B2B-BEE5-199E7D1FCE17,2023-09-27_10h25.55.028,WP_VExplicitOC_LH,2022.2.5,Win32,9.119927041,69.27083333,3.2912,2.0846,NA,NA,NA,NA,NA,bored,"bored, not bored","more bored, less bored",NA,NA,NA,NA,NA,NA,NA,NA,NA,NA,NA,NA,NA,NA,NA,0,0,0,2,1,NA,NA,NA,NA,NA,NA,NA,NA,NA,NA,NA,NA,NA,NA,NA,NA,NA,NA,NA,NA,NA,NA,NA,NA,NA,NA,NA,NA
SUPAMT45961,3STRJBFXO2QHC6YEKSU6TU9U5ZIKT9,8AD1C2FC-B885-4B2B-BEE5-199E7D1FCE17,2023-09-27_10h25.55.028,WP_VExplicitOC_LH,2022.2.5,Win32,9.119927041,69.27083333,2.9142,2.0771,NA,NA,NA,NA,NA,frustrated,"frustrated, not frustrated","more frustrated, less frustrated",NA,NA,NA,NA,NA,NA,NA,NA,NA,NA,NA,NA,NA,NA,NA,0,1,1,1,1,NA,NA,NA,NA,NA,NA,NA,NA,NA,NA,NA,NA,NA,NA,NA,NA,NA,NA,NA,NA,NA,NA,NA,NA,NA,NA,NA,NA
SUPAMT45961,3STRJBFXO2QHC6YEKSU6TU9U5ZIKT9,8AD1C2FC-B885-4B2B-BEE5-199E7D1FCE17,2023-09-27_10h25.55.028,WP_VExplicitOC_LH,2022.2.5,Win32,9.119927041,72.91666667,3.0321,2.042,NA,NA,NA,NA,NA,happy,"unhappy, happy","less happy, more happy",NA,NA,NA,NA,NA,NA,NA,NA,NA,NA,NA,NA,NA,NA,NA,0,2,2,0,1,NA,NA,NA,NA,NA,NA,NA,NA,NA,NA,NA,NA,NA,NA,NA,NA,NA,NA,NA,NA,NA,NA,NA,NA,NA,NA,NA,NA
SUPAMT45961,3STRJBFXO2QHC6YEKSU6TU9U5ZIKT9,8AD1C2FC-B885-4B2B-BEE5-199E7D1FCE17,2023-09-27_10h25.55.028,WP_VExplicitOC_LH,2022.2.5,Win32,9.119927041,NA,NA,NA,NA,NA,NA,NA,NA,NA,NA,NA,NA,NA,NA,NA,NA,NA,NA,NA,NA,NA,NA,NA,NA,NA,NA,NA,NA,NA,NA,NA,13,0,13,0,1,NA,NA,NA,NA,NA,NA,NA,NA,NA,NA,NA,NA,NA,NA,NA,NA,NA,NA,NA,NA,NA,NA,NA
SUPAMT45961,3STRJBFXO2QHC6YEKSU6TU9U5ZIKT9,8AD1C2FC-B885-4B2B-BEE5-199E7D1FCE17,2023-09-27_10h25.55.028,WP_VExplicitOC_LH,2022.2.5,Win32,9.119927041,2.864583333,2.1771,2.0185,NA,NA,NA,NA,NA,bored,"bored, not bored","more bored, less bored",NA,NA,NA,NA,NA,NA,NA,NA,NA,NA,NA,NA,NA,NA,NA,0,0,0,2,1,NA,NA,NA,NA,NA,NA,NA,NA,NA,NA,NA,NA,NA,NA,NA,NA,NA,NA,NA,NA,NA,NA,NA,NA,NA,NA,NA,NA
SUPAMT45961,3STRJBFXO2QHC6YEKSU6TU9U5ZIKT9,8AD1C2FC-B885-4B2B-BEE5-199E7D1FCE17,2023-09-27_10h25.55.028,WP_VExplicitOC_LH,2022.2.5,Win32,9.119927041,NA,NA,2.0215,NA,NA,NA,NA,NA,happy,"unhappy, happy","less happy, more happy",NA,NA,NA,NA,NA,NA,NA,NA,NA,NA,NA,NA,NA,NA,NA,0,1,1,0,1,NA,NA,NA,NA,NA,NA,NA,NA,NA,NA,NA,NA,NA,NA,NA,NA,NA,NA,NA,NA,NA,NA,NA,NA,NA,NA,NA,NA
SUPAMT45961,3STRJBFXO2QHC6YEKSU6TU9U5ZIKT9,8AD1C2FC-B885-4B2B-BEE5-199E7D1FCE17,2023-09-27_10h25.55.028,WP_VExplicitOC_LH,2022.2.5,Win32,9.119927041,45.3125,4.287,2.0004,NA,NA,NA,NA,NA,frustrated,"frustrated, not frustrated","more frustrated, less frustrated",NA,NA,NA,NA,NA,NA,NA,NA,NA,NA,NA,NA,NA,NA,NA,0,2,2,1,1,NA,NA,NA,NA,NA,NA,NA,NA,NA,NA,NA,NA,NA,NA,NA,NA,NA,NA,NA,NA,NA,NA,NA,NA,NA,NA,NA,NA
SUPAMT45961,3STRJBFXO2QHC6YEKSU6TU9U5ZIKT9,8AD1C2FC-B885-4B2B-BEE5-199E7D1FCE17,2023-09-27_10h25.55.028,WP_VExplicitOC_LH,2022.2.5,Win32,9.119927041,NA,NA,NA,NA,NA,NA,NA,NA,NA,NA,NA,NA,NA,NA,NA,NA,NA,NA,NA,NA,NA,NA,NA,NA,NA,NA,NA,NA,NA,NA,NA,14,0,14,0,1,NA,NA,NA,NA,NA,NA,NA,NA,NA,NA,NA,NA,NA,NA,NA,NA,NA,NA,NA,NA,NA,NA,NA
SUPAMT45961,3STRJBFXO2QHC6YEKSU6TU9U5ZIKT9,8AD1C2FC-B885-4B2B-BEE5-199E7D1FCE17,2023-09-27_10h25.55.028,WP_VExplicitOC_LH,2022.2.5,Win32,9.119927041,NA,NA,NA,NA,NA,NA,NA,NA,NA,NA,NA,NA,NA,NA,NA,NA,NA,NA,NA,NA,NA,NA,NA,NA,NA,NA,NA,NA,NA,NA,NA,NA,NA,NA,NA,NA,NA,NA,NA,NA,NA,NA,NA,NA,NA,NA,NA,NA,NA,NA,NA,NA,NA,NA,NA,NA,NA,NA,NA
SUPAMT45961,3STRJBFXO2QHC6YEKSU6TU9U5ZIKT9,8AD1C2FC-B885-4B2B-BEE5-199E7D1FCE17,2023-09-27_10h25.55.028,WP_VExplicitOC_LH,2022.2.5,Win32,9.119927041,NA,NA,NA,NA,NA,NA,NA,NA,NA,NA,NA,NA,NA,NA,NA,NA,NA,NA,NA,NA,NA,NA,NA,NA,NA,NA,NA,NA,NA,NA,NA,NA,NA,NA,NA,NA,NA,NA,NA,NA,NA,NA,NA,NA,NA,NA,NA,NA,NA,NA,NA,NA,NA,NA,NA,NA,NA,NA,NA
SUPAMT45961,3STRJBFXO2QHC6YEKSU6TU9U5ZIKT9,8AD1C2FC-B885-4B2B-BEE5-199E7D1FCE17,2023-09-27_10h25.55.028,WP_VExplicitOC_LH,2022.2.5,Win32,9.119927041,NA,NA,NA,NA,NA,NA,NA,NA,NA,NA,NA,NA,NA,NA,NA,NA,NA,NA,rest (looking at a fixed cross),001.png,NA,NA,NA,NA,NA,NA,NA,NA,NA,NA,NA,NA,NA,NA,NA,NA,45.3125,2.2893,0,0,0,0,1,NA,NA,NA,NA,NA,NA,NA,NA,NA,NA,NA,NA,NA,NA,NA,NA
SUPAMT45961,3STRJBFXO2QHC6YEKSU6TU9U5ZIKT9,8AD1C2FC-B885-4B2B-BEE5-199E7D1FCE17,2023-09-27_10h25.55.028,WP_VExplicitOC_LH,2022.2.5,Win32,9.119927041,NA,NA,NA,NA,NA,NA,NA,NA,NA,NA,NA,NA,NA,NA,NA,NA,NA,NA,stand up,002.png,NA,NA,NA,NA,NA,NA,NA,NA,NA,NA,NA,NA,NA,NA,NA,NA,45.3125,0.2708,0,1,1,1,1,NA,NA,NA,NA,NA,NA,NA,NA,NA,NA,NA,NA,NA,NA,NA,NA
SUPAMT45961,3STRJBFXO2QHC6YEKSU6TU9U5ZIKT9,8AD1C2FC-B885-4B2B-BEE5-199E7D1FCE17,2023-09-27_10h25.55.028,WP_VExplicitOC_LH,2022.2.5,Win32,9.119927041,NA,NA,NA,NA,NA,NA,NA,NA,NA,NA,NA,NA,NA,NA,NA,NA,NA,NA,stretch,003.png,NA,NA,NA,NA,NA,NA,NA,NA,NA,NA,NA,NA,NA,NA,NA,NA,45.3125,0.2072,0,2,2,2,1,NA,NA,NA,NA,NA,NA,NA,NA,NA,NA,NA,NA,NA,NA,NA,NA
SUPAMT45961,3STRJBFXO2QHC6YEKSU6TU9U5ZIKT9,8AD1C2FC-B885-4B2B-BEE5-199E7D1FCE17,2023-09-27_10h25.55.028,WP_VExplicitOC_LH,2022.2.5,Win32,9.119927041,NA,NA,NA,NA,NA,NA,NA,NA,NA,NA,NA,NA,NA,NA,NA,NA,NA,NA,make a drink,004.png,NA,NA,NA,NA,NA,NA,NA,NA,NA,NA,NA,NA,NA,NA,NA,NA,45.3125,0.4123,0,3,3,3,1,NA,NA,NA,NA,NA,NA,NA,NA,NA,NA,NA,NA,NA,NA,NA,NA
SUPAMT45961,3STRJBFXO2QHC6YEKSU6TU9U5ZIKT9,8AD1C2FC-B885-4B2B-BEE5-199E7D1FCE17,2023-09-27_10h25.55.028,WP_VExplicitOC_LH,2022.2.5,Win32,9.119927041,NA,NA,NA,NA,NA,NA,NA,NA,NA,NA,NA,NA,NA,NA,NA,NA,NA,NA,scroll social media,005.png,NA,NA,NA,NA,NA,NA,NA,NA,NA,NA,NA,NA,NA,NA,NA,NA,45.3125,0.2857,0,4,4,4,1,NA,NA,NA,NA,NA,NA,NA,NA,NA,NA,NA,NA,NA,NA,NA,NA
SUPAMT45961,3STRJBFXO2QHC6YEKSU6TU9U5ZIKT9,8AD1C2FC-B885-4B2B-BEE5-199E7D1FCE17,2023-09-27_10h25.55.028,WP_VExplicitOC_LH,2022.2.5,Win32,9.119927041,NA,NA,NA,NA,NA,NA,NA,NA,NA,NA,NA,NA,NA,NA,NA,NA,NA,NA,listen to music,006.png,NA,NA,NA,NA,NA,NA,NA,NA,NA,NA,NA,NA,NA,NA,NA,NA,45.3125,0.0889,0,5,5,5,1,NA,NA,NA,NA,NA,NA,NA,NA,NA,NA,NA,NA,NA,NA,NA,NA
SUPAMT45961,3STRJBFXO2QHC6YEKSU6TU9U5ZIKT9,8AD1C2FC-B885-4B2B-BEE5-199E7D1FCE17,2023-09-27_10h25.55.028,WP_VExplicitOC_LH,2022.2.5,Win32,9.119927041,NA,NA,NA,NA,NA,NA,NA,NA,NA,NA,NA,NA,NA,NA,NA,NA,NA,NA,daydream,007.png,NA,NA,NA,NA,NA,NA,NA,NA,NA,NA,NA,NA,NA,NA,NA,NA,45.3125,0.187,0,6,6,6,1,NA,NA,NA,NA,NA,NA,NA,NA,NA,NA,NA,NA,NA,NA,NA,NA
SUPAMT45961,3STRJBFXO2QHC6YEKSU6TU9U5ZIKT9,8AD1C2FC-B885-4B2B-BEE5-199E7D1FCE17,2023-09-27_10h25.55.028,WP_VExplicitOC_LH,2022.2.5,Win32,9.119927041,NA,NA,NA,NA,NA,NA,NA,NA,NA,NA,NA,NA,NA,NA,NA,NA,NA,NA,watch a short animation,008.png,NA,NA,NA,NA,NA,NA,NA,NA,NA,NA,NA,NA,NA,NA,NA,NA,45.3125,0.3224,0,7,7,7,1,NA,NA,NA,NA,NA,NA,NA,NA,NA,NA,NA,NA,NA,NA,NA,NA
SUPAMT45961,3STRJBFXO2QHC6YEKSU6TU9U5ZIKT9,8AD1C2FC-B885-4B2B-BEE5-199E7D1FCE17,2023-09-27_10h25.55.028,WP_VExplicitOC_LH,2022.2.5,Win32,9.119927041,NA,NA,NA,NA,NA,NA,NA,NA,NA,NA,NA,NA,NA,NA,NA,NA,NA,NA,read a novel,009.png,NA,NA,NA,NA,NA,NA,NA,NA,NA,NA,NA,NA,NA,NA,NA,NA,45.3125,0.2099,0,8,8,8,1,NA,NA,NA,NA,NA,NA,NA,NA,NA,NA,NA,NA,NA,NA,NA,NA
SUPAMT45961,3STRJBFXO2QHC6YEKSU6TU9U5ZIKT9,8AD1C2FC-B885-4B2B-BEE5-199E7D1FCE17,2023-09-27_10h25.55.028,WP_VExplicitOC_LH,2022.2.5,Win32,9.119927041,NA,NA,NA,NA,NA,NA,NA,NA,NA,NA,NA,NA,NA,NA,NA,NA,NA,NA,read the news,010.png,NA,NA,NA,NA,NA,NA,NA,NA,NA,NA,NA,NA,NA,NA,NA,NA,45.3125,0.179,0,9,9,9,1,NA,NA,NA,NA,NA,NA,NA,NA,NA,NA,NA,NA,NA,NA,NA,NA
SUPAMT45961,3STRJBFXO2QHC6YEKSU6TU9U5ZIKT9,8AD1C2FC-B885-4B2B-BEE5-199E7D1FCE17,2023-09-27_10h25.55.028,WP_VExplicitOC_LH,2022.2.5,Win32,9.119927041,NA,NA,NA,NA,NA,NA,NA,NA,NA,NA,NA,NA,NA,NA,NA,NA,NA,NA,NA,NA,NA,NA,NA,NA,NA,NA,NA,NA,NA,NA,NA,NA,NA,NA,NA,NA,NA,NA,NA,NA,NA,NA,NA,stand up,NA,NA,NA,NA,NA,NA,NA,NA,NA,NA,NA,NA,NA,NA,NA
SUPAMT45961,3STRJBFXO2QHC6YEKSU6TU9U5ZIKT9,8AD1C2FC-B885-4B2B-BEE5-199E7D1FCE17,2023-09-27_10h25.55.028,WP_VExplicitOC_LH,2022.2.5,Win32,9.119927041,NA,NA,2.0121000000000002,NA,NA,NA,NA,NA,bored,"bored, not bored","more bored, less bored",NA,NA,NA,NA,NA,NA,NA,NA,NA,NA,NA,NA,NA,NA,NA,NA,NA,NA,NA,NA,NA,NA,NA,NA,NA,NA,NA,NA,NA,NA,NA,NA,NA,0,0,0,2,1,NA,NA,NA,NA,NA,NA,NA,NA,NA,NA
SUPAMT45961,3STRJBFXO2QHC6YEKSU6TU9U5ZIKT9,8AD1C2FC-B885-4B2B-BEE5-199E7D1FCE17,2023-09-27_10h25.55.028,WP_VExplicitOC_LH,2022.2.5,Win32,9.119927041,44.79166667,4.1069,2.0422,NA,NA,NA,NA,NA,happy,"unhappy, happy","less happy, more happy",NA,NA,NA,NA,NA,NA,NA,NA,NA,NA,NA,NA,NA,NA,NA,NA,NA,NA,NA,NA,NA,NA,NA,NA,NA,NA,NA,NA,NA,NA,NA,NA,NA,0,1,1,0,1,NA,NA,NA,NA,NA,NA,NA,NA,NA,NA
SUPAMT45961,3STRJBFXO2QHC6YEKSU6TU9U5ZIKT9,8AD1C2FC-B885-4B2B-BEE5-199E7D1FCE17,2023-09-27_10h25.55.028,WP_VExplicitOC_LH,2022.2.5,Win32,9.119927041,NA,NA,2.0166,NA,NA,NA,NA,NA,frustrated,"frustrated, not frustrated","more frustrated, less frustrated",NA,NA,NA,NA,NA,NA,NA,NA,NA,NA,NA,NA,NA,NA,NA,NA,NA,NA,NA,NA,NA,NA,NA,NA,NA,NA,NA,NA,NA,NA,NA,NA,NA,0,2,2,1,1,NA,NA,NA,NA,NA,NA,NA,NA,NA,NA
SUPAMT45961,3STRJBFXO2QHC6YEKSU6TU9U5ZIKT9,8AD1C2FC-B885-4B2B-BEE5-199E7D1FCE17,2023-09-27_10h25.55.028,WP_VExplicitOC_LH,2022.2.5,Win32,9.119927041,NA,NA,NA,NA,NA,NA,NA,NA,NA,NA,NA,NA,NA,NA,NA,NA,NA,NA,NA,NA,NA,NA,NA,NA,NA,NA,NA,NA,NA,NA,NA,NA,NA,NA,NA,NA,NA,NA,NA,NA,NA,NA,NA,NA,NA,NA,NA,NA,NA,NA,NA,NA,NA,NA,NA,NA,NA,NA,NA
SUPAMT45961,3STRJBFXO2QHC6YEKSU6TU9U5ZIKT9,8AD1C2FC-B885-4B2B-BEE5-199E7D1FCE17,2023-09-27_10h25.55.028,WP_VExplicitOC_LH,2022.2.5,Win32,9.119927041,NA,NA,NA,NA,NA,NA,NA,NA,NA,NA,NA,NA,NA,NA,NA,NA,NA,NA,NA,NA,NA,NA,NA,NA,NA,NA,NA,NA,NA,NA,NA,NA,NA,NA,NA,NA,NA,NA,NA,NA,NA,NA,NA,NA,NA,NA,NA,NA,NA,NA,NA,NA,NA,NA,NA,NA,NA,NA,NA
SUPAMT45961,3STRJBFXO2QHC6YEKSU6TU9U5ZIKT9,8AD1C2FC-B885-4B2B-BEE5-199E7D1FCE17,2023-09-27_10h25.55.028,WP_VExplicitOC_LH,2022.2.5,Win32,9.119927041,62.76041667,6.0177,2.072,NA,NA,NA,NA,NA,frustrated,"frustrated, not frustrated","more frustrated, less frustrated",NA,NA,NA,NA,NA,NA,NA,NA,NA,NA,NA,NA,NA,NA,NA,NA,NA,NA,NA,NA,NA,NA,NA,NA,NA,NA,NA,NA,NA,NA,NA,NA,NA,NA,NA,NA,NA,NA,0,0,0,1,1,NA,NA,NA,NA,NA
SUPAMT45961,3STRJBFXO2QHC6YEKSU6TU9U5ZIKT9,8AD1C2FC-B885-4B2B-BEE5-199E7D1FCE17,2023-09-27_10h25.55.028,WP_VExplicitOC_LH,2022.2.5,Win32,9.119927041,53.64583333,3.2423,2.068,NA,NA,NA,NA,NA,bored,"bored, not bored","more bored, less bored",NA,NA,NA,NA,NA,NA,NA,NA,NA,NA,NA,NA,NA,NA,NA,NA,NA,NA,NA,NA,NA,NA,NA,NA,NA,NA,NA,NA,NA,NA,NA,NA,NA,NA,NA,NA,NA,NA,0,1,1,2,1,NA,NA,NA,NA,NA
SUPAMT45961,3STRJBFXO2QHC6YEKSU6TU9U5ZIKT9,8AD1C2FC-B885-4B2B-BEE5-199E7D1FCE17,2023-09-27_10h25.55.028,WP_VExplicitOC_LH,2022.2.5,Win32,9.119927041,58.33333333,3.2127,2.0549,NA,NA,NA,NA,NA,happy,"unhappy, happy","less happy, more happy",NA,NA,NA,NA,NA,NA,NA,NA,NA,NA,NA,NA,NA,NA,NA,NA,NA,NA,NA,NA,NA,NA,NA,NA,NA,NA,NA,NA,NA,NA,NA,NA,NA,NA,NA,NA,NA,NA,0,2,2,0,1,NA,NA,NA,NA,NA
SUPAMT45961,3STRJBFXO2QHC6YEKSU6TU9U5ZIKT9,8AD1C2FC-B885-4B2B-BEE5-199E7D1FCE17,2023-09-27_10h25.55.028,WP_VExplicitOC_LH,2022.2.5,Win32,9.119927041,NA,NA,NA,NA,NA,NA,NA,NA,NA,NA,NA,NA,NA,NA,NA,NA,NA,NA,NA,NA,NA,NA,NA,NA,NA,NA,NA,NA,NA,NA,NA,NA,NA,NA,NA,NA,NA,NA,NA,NA,NA,NA,NA,NA,NA,NA,NA,NA,NA,NA,NA,NA,NA,NA,0,0,0,0,1
SUPAMT45961,3STRJBFXO2QHC6YEKSU6TU9U5ZIKT9,8AD1C2FC-B885-4B2B-BEE5-199E7D1FCE17,2023-09-27_10h25.55.028,WP_VExplicitOC_LH,2022.2.5,Win32,9.119927041,49.47916667,3.1139,2.0942,NA,NA,NA,NA,NA,bored,"bored, not bored","more bored, less bored",NA,NA,NA,NA,NA,NA,NA,NA,NA,NA,NA,NA,NA,NA,NA,NA,NA,NA,NA,NA,NA,NA,NA,NA,NA,NA,NA,NA,NA,NA,NA,NA,NA,NA,NA,NA,NA,NA,0,0,0,2,1,NA,NA,NA,NA,NA
SUPAMT45961,3STRJBFXO2QHC6YEKSU6TU9U5ZIKT9,8AD1C2FC-B885-4B2B-BEE5-199E7D1FCE17,2023-09-27_10h25.55.028,WP_VExplicitOC_LH,2022.2.5,Win32,9.119927041,50,2.8538,2.0122,NA,NA,NA,NA,NA,happy,"unhappy, happy","less happy, more happy",NA,NA,NA,NA,NA,NA,NA,NA,NA,NA,NA,NA,NA,NA,NA,NA,NA,NA,NA,NA,NA,NA,NA,NA,NA,NA,NA,NA,NA,NA,NA,NA,NA,NA,NA,NA,NA,NA,0,1,1,0,1,NA,NA,NA,NA,NA
SUPAMT45961,3STRJBFXO2QHC6YEKSU6TU9U5ZIKT9,8AD1C2FC-B885-4B2B-BEE5-199E7D1FCE17,2023-09-27_10h25.55.028,WP_VExplicitOC_LH,2022.2.5,Win32,9.119927041,50,3.0754,2.0358,NA,NA,NA,NA,NA,frustrated,"frustrated, not frustrated","more frustrated, less frustrated",NA,NA,NA,NA,NA,NA,NA,NA,NA,NA,NA,NA,NA,NA,NA,NA,NA,NA,NA,NA,NA,NA,NA,NA,NA,NA,NA,NA,NA,NA,NA,NA,NA,NA,NA,NA,NA,NA,0,2,2,1,1,NA,NA,NA,NA,NA
SUPAMT45961,3STRJBFXO2QHC6YEKSU6TU9U5ZIKT9,8AD1C2FC-B885-4B2B-BEE5-199E7D1FCE17,2023-09-27_10h25.55.028,WP_VExplicitOC_LH,2022.2.5,Win32,9.119927041,NA,NA,NA,NA,NA,NA,NA,NA,NA,NA,NA,NA,NA,NA,NA,NA,NA,NA,NA,NA,NA,NA,NA,NA,NA,NA,NA,NA,NA,NA,NA,NA,NA,NA,NA,NA,NA,NA,NA,NA,NA,NA,NA,NA,NA,NA,NA,NA,NA,NA,NA,NA,NA,NA,1,0,1,0,1
SUPAMT45961,3STRJBFXO2QHC6YEKSU6TU9U5ZIKT9,8AD1C2FC-B885-4B2B-BEE5-199E7D1FCE17,2023-09-27_10h25.55.028,WP_VExplicitOC_LH,2022.2.5,Win32,9.119927041,55.46875,2.8827,2.0036,NA,NA,NA,NA,NA,bored,"bored, not bored","more bored, less bored",NA,NA,NA,NA,NA,NA,NA,NA,NA,NA,NA,NA,NA,NA,NA,NA,NA,NA,NA,NA,NA,NA,NA,NA,NA,NA,NA,NA,NA,NA,NA,NA,NA,NA,NA,NA,NA,NA,0,0,0,2,1,NA,NA,NA,NA,NA
SUPAMT45961,3STRJBFXO2QHC6YEKSU6TU9U5ZIKT9,8AD1C2FC-B885-4B2B-BEE5-199E7D1FCE17,2023-09-27_10h25.55.028,WP_VExplicitOC_LH,2022.2.5,Win32,9.119927041,53.64583333,2.8883,2.0223,NA,NA,NA,NA,NA,happy,"unhappy, happy","less happy, more happy",NA,NA,NA,NA,NA,NA,NA,NA,NA,NA,NA,NA,NA,NA,NA,NA,NA,NA,NA,NA,NA,NA,NA,NA,NA,NA,NA,NA,NA,NA,NA,NA,NA,NA,NA,NA,NA,NA,0,1,1,0,1,NA,NA,NA,NA,NA
SUPAMT45961,3STRJBFXO2QHC6YEKSU6TU9U5ZIKT9,8AD1C2FC-B885-4B2B-BEE5-199E7D1FCE17,2023-09-27_10h25.55.028,WP_VExplicitOC_LH,2022.2.5,Win32,9.119927041,53.64583333,3.009,2.0129,NA,NA,NA,NA,NA,frustrated,"frustrated, not frustrated","more frustrated, less frustrated",NA,NA,NA,NA,NA,NA,NA,NA,NA,NA,NA,NA,NA,NA,NA,NA,NA,NA,NA,NA,NA,NA,NA,NA,NA,NA,NA,NA,NA,NA,NA,NA,NA,NA,NA,NA,NA,NA,0,2,2,1,1,NA,NA,NA,NA,NA
SUPAMT45961,3STRJBFXO2QHC6YEKSU6TU9U5ZIKT9,8AD1C2FC-B885-4B2B-BEE5-199E7D1FCE17,2023-09-27_10h25.55.028,WP_VExplicitOC_LH,2022.2.5,Win32,9.119927041,NA,NA,NA,NA,NA,NA,NA,NA,NA,NA,NA,NA,NA,NA,NA,NA,NA,NA,NA,NA,NA,NA,NA,NA,NA,NA,NA,NA,NA,NA,NA,NA,NA,NA,NA,NA,NA,NA,NA,NA,NA,NA,NA,NA,NA,NA,NA,NA,NA,NA,NA,NA,NA,NA,2,0,2,0,1
SUPAMT45961,3STRJBFXO2QHC6YEKSU6TU9U5ZIKT9,8AD1C2FC-B885-4B2B-BEE5-199E7D1FCE17,2023-09-27_10h25.55.028,WP_VExplicitOC_LH,2022.2.5,Win32,9.119927041,45.83333333,2.9638,2.0022,NA,NA,NA,NA,NA,happy,"unhappy, happy","less happy, more happy",NA,NA,NA,NA,NA,NA,NA,NA,NA,NA,NA,NA,NA,NA,NA,NA,NA,NA,NA,NA,NA,NA,NA,NA,NA,NA,NA,NA,NA,NA,NA,NA,NA,NA,NA,NA,NA,NA,0,0,0,0,1,NA,NA,NA,NA,NA
SUPAMT45961,3STRJBFXO2QHC6YEKSU6TU9U5ZIKT9,8AD1C2FC-B885-4B2B-BEE5-199E7D1FCE17,2023-09-27_10h25.55.028,WP_VExplicitOC_LH,2022.2.5,Win32,9.119927041,45.05208333,2.9798,2.0765,NA,NA,NA,NA,NA,frustrated,"frustrated, not frustrated","more frustrated, less frustrated",NA,NA,NA,NA,NA,NA,NA,NA,NA,NA,NA,NA,NA,NA,NA,NA,NA,NA,NA,NA,NA,NA,NA,NA,NA,NA,NA,NA,NA,NA,NA,NA,NA,NA,NA,NA,NA,NA,0,1,1,1,1,NA,NA,NA,NA,NA
SUPAMT45961,3STRJBFXO2QHC6YEKSU6TU9U5ZIKT9,8AD1C2FC-B885-4B2B-BEE5-199E7D1FCE17,2023-09-27_10h25.55.028,WP_VExplicitOC_LH,2022.2.5,Win32,9.119927041,45.05208333,2.8791,2.0309,NA,NA,NA,NA,NA,bored,"bored, not bored","more bored, less bored",NA,NA,NA,NA,NA,NA,NA,NA,NA,NA,NA,NA,NA,NA,NA,NA,NA,NA,NA,NA,NA,NA,NA,NA,NA,NA,NA,NA,NA,NA,NA,NA,NA,NA,NA,NA,NA,NA,0,2,2,2,1,NA,NA,NA,NA,NA
SUPAMT45961,3STRJBFXO2QHC6YEKSU6TU9U5ZIKT9,8AD1C2FC-B885-4B2B-BEE5-199E7D1FCE17,2023-09-27_10h25.55.028,WP_VExplicitOC_LH,2022.2.5,Win32,9.119927041,NA,NA,NA,NA,NA,NA,NA,NA,NA,NA,NA,NA,NA,NA,NA,NA,NA,NA,NA,NA,NA,NA,NA,NA,NA,NA,NA,NA,NA,NA,NA,NA,NA,NA,NA,NA,NA,NA,NA,NA,NA,NA,NA,NA,NA,NA,NA,NA,NA,NA,NA,NA,NA,NA,3,0,3,0,1
SUPAMT45961,3STRJBFXO2QHC6YEKSU6TU9U5ZIKT9,8AD1C2FC-B885-4B2B-BEE5-199E7D1FCE17,2023-09-27_10h25.55.028,WP_VExplicitOC_LH,2022.2.5,Win32,9.119927041,45.57291667,3.5946,2.0681,NA,NA,NA,NA,NA,bored,"bored, not bored","more bored, less bored",NA,NA,NA,NA,NA,NA,NA,NA,NA,NA,NA,NA,NA,NA,NA,NA,NA,NA,NA,NA,NA,NA,NA,NA,NA,NA,NA,NA,NA,NA,NA,NA,NA,NA,NA,NA,NA,NA,0,0,0,2,1,NA,NA,NA,NA,NA
SUPAMT45961,3STRJBFXO2QHC6YEKSU6TU9U5ZIKT9,8AD1C2FC-B885-4B2B-BEE5-199E7D1FCE17,2023-09-27_10h25.55.028,WP_VExplicitOC_LH,2022.2.5,Win32,9.119927041,69.79166667,3.0119,2.0001,NA,NA,NA,NA,NA,happy,"unhappy, happy","less happy, more happy",NA,NA,NA,NA,NA,NA,NA,NA,NA,NA,NA,NA,NA,NA,NA,NA,NA,NA,NA,NA,NA,NA,NA,NA,NA,NA,NA,NA,NA,NA,NA,NA,NA,NA,NA,NA,NA,NA,0,1,1,0,1,NA,NA,NA,NA,NA
SUPAMT45961,3STRJBFXO2QHC6YEKSU6TU9U5ZIKT9,8AD1C2FC-B885-4B2B-BEE5-199E7D1FCE17,2023-09-27_10h25.55.028,WP_VExplicitOC_LH,2022.2.5,Win32,9.119927041,69.79166667,3.1215,2.0446,NA,NA,NA,NA,NA,frustrated,"frustrated, not frustrated","more frustrated, less frustrated",NA,NA,NA,NA,NA,NA,NA,NA,NA,NA,NA,NA,NA,NA,NA,NA,NA,NA,NA,NA,NA,NA,NA,NA,NA,NA,NA,NA,NA,NA,NA,NA,NA,NA,NA,NA,NA,NA,0,2,2,1,1,NA,NA,NA,NA,NA
SUPAMT45961,3STRJBFXO2QHC6YEKSU6TU9U5ZIKT9,8AD1C2FC-B885-4B2B-BEE5-199E7D1FCE17,2023-09-27_10h25.55.028,WP_VExplicitOC_LH,2022.2.5,Win32,9.119927041,NA,NA,NA,NA,NA,NA,NA,NA,NA,NA,NA,NA,NA,NA,NA,NA,NA,NA,NA,NA,NA,NA,NA,NA,NA,NA,NA,NA,NA,NA,NA,NA,NA,NA,NA,NA,NA,NA,NA,NA,NA,NA,NA,NA,NA,NA,NA,NA,NA,NA,NA,NA,NA,NA,4,0,4,0,1
SUPAMT45961,3STRJBFXO2QHC6YEKSU6TU9U5ZIKT9,8AD1C2FC-B885-4B2B-BEE5-199E7D1FCE17,2023-09-27_10h25.55.028,WP_VExplicitOC_LH,2022.2.5,Win32,9.119927041,78.38541667,2.9881,2.0444,NA,NA,NA,NA,NA,frustrated,"frustrated, not frustrated","more frustrated, less frustrated",NA,NA,NA,NA,NA,NA,NA,NA,NA,NA,NA,NA,NA,NA,NA,NA,NA,NA,NA,NA,NA,NA,NA,NA,NA,NA,NA,NA,NA,NA,NA,NA,NA,NA,NA,NA,NA,NA,0,0,0,1,1,NA,NA,NA,NA,NA
SUPAMT45961,3STRJBFXO2QHC6YEKSU6TU9U5ZIKT9,8AD1C2FC-B885-4B2B-BEE5-199E7D1FCE17,2023-09-27_10h25.55.028,WP_VExplicitOC_LH,2022.2.5,Win32,9.119927041,65.10416667,3.0172,2.0135,NA,NA,NA,NA,NA,bored,"bored, not bored","more bored, less bored",NA,NA,NA,NA,NA,NA,NA,NA,NA,NA,NA,NA,NA,NA,NA,NA,NA,NA,NA,NA,NA,NA,NA,NA,NA,NA,NA,NA,NA,NA,NA,NA,NA,NA,NA,NA,NA,NA,0,1,1,2,1,NA,NA,NA,NA,NA
SUPAMT45961,3STRJBFXO2QHC6YEKSU6TU9U5ZIKT9,8AD1C2FC-B885-4B2B-BEE5-199E7D1FCE17,2023-09-27_10h25.55.028,WP_VExplicitOC_LH,2022.2.5,Win32,9.119927041,65.10416667,2.9951,2.0467,NA,NA,NA,NA,NA,happy,"unhappy, happy","less happy, more happy",NA,NA,NA,NA,NA,NA,NA,NA,NA,NA,NA,NA,NA,NA,NA,NA,NA,NA,NA,NA,NA,NA,NA,NA,NA,NA,NA,NA,NA,NA,NA,NA,NA,NA,NA,NA,NA,NA,0,2,2,0,1,NA,NA,NA,NA,NA
SUPAMT45961,3STRJBFXO2QHC6YEKSU6TU9U5ZIKT9,8AD1C2FC-B885-4B2B-BEE5-199E7D1FCE17,2023-09-27_10h25.55.028,WP_VExplicitOC_LH,2022.2.5,Win32,9.119927041,NA,NA,NA,NA,NA,NA,NA,NA,NA,NA,NA,NA,NA,NA,NA,NA,NA,NA,NA,NA,NA,NA,NA,NA,NA,NA,NA,NA,NA,NA,NA,NA,NA,NA,NA,NA,NA,NA,NA,NA,NA,NA,NA,NA,NA,NA,NA,NA,NA,NA,NA,NA,NA,NA,5,0,5,0,1
SUPAMT45961,3STRJBFXO2QHC6YEKSU6TU9U5ZIKT9,8AD1C2FC-B885-4B2B-BEE5-199E7D1FCE17,2023-09-27_10h25.55.028,WP_VExplicitOC_LH,2022.2.5,Win32,9.119927041,60.67708333,7.2008,2.0309,NA,NA,NA,NA,NA,bored,"bored, not bored","more bored, less bored",NA,NA,NA,NA,NA,NA,NA,NA,NA,NA,NA,NA,NA,NA,NA,NA,NA,NA,NA,NA,NA,NA,NA,NA,NA,NA,NA,NA,NA,NA,NA,NA,NA,NA,NA,NA,NA,NA,0,0,0,2,1,NA,NA,NA,NA,NA
SUPAMT45961,3STRJBFXO2QHC6YEKSU6TU9U5ZIKT9,8AD1C2FC-B885-4B2B-BEE5-199E7D1FCE17,2023-09-27_10h25.55.028,WP_VExplicitOC_LH,2022.2.5,Win32,9.119927041,66.92708333,3.3258,2.0393,NA,NA,NA,NA,NA,happy,"unhappy, happy","less happy, more happy",NA,NA,NA,NA,NA,NA,NA,NA,NA,NA,NA,NA,NA,NA,NA,NA,NA,NA,NA,NA,NA,NA,NA,NA,NA,NA,NA,NA,NA,NA,NA,NA,NA,NA,NA,NA,NA,NA,0,1,1,0,1,NA,NA,NA,NA,NA
SUPAMT45961,3STRJBFXO2QHC6YEKSU6TU9U5ZIKT9,8AD1C2FC-B885-4B2B-BEE5-199E7D1FCE17,2023-09-27_10h25.55.028,WP_VExplicitOC_LH,2022.2.5,Win32,9.119927041,66.92708333,3.221,2.0046,NA,NA,NA,NA,NA,frustrated,"frustrated, not frustrated","more frustrated, less frustrated",NA,NA,NA,NA,NA,NA,NA,NA,NA,NA,NA,NA,NA,NA,NA,NA,NA,NA,NA,NA,NA,NA,NA,NA,NA,NA,NA,NA,NA,NA,NA,NA,NA,NA,NA,NA,NA,NA,0,2,2,1,1,NA,NA,NA,NA,NA
SUPAMT45961,3STRJBFXO2QHC6YEKSU6TU9U5ZIKT9,8AD1C2FC-B885-4B2B-BEE5-199E7D1FCE17,2023-09-27_10h25.55.028,WP_VExplicitOC_LH,2022.2.5,Win32,9.119927041,NA,NA,NA,NA,NA,NA,NA,NA,NA,NA,NA,NA,NA,NA,NA,NA,NA,NA,NA,NA,NA,NA,NA,NA,NA,NA,NA,NA,NA,NA,NA,NA,NA,NA,NA,NA,NA,NA,NA,NA,NA,NA,NA,NA,NA,NA,NA,NA,NA,NA,NA,NA,NA,NA,6,0,6,0,1
SUPAMT45961,3STRJBFXO2QHC6YEKSU6TU9U5ZIKT9,8AD1C2FC-B885-4B2B-BEE5-199E7D1FCE17,2023-09-27_10h25.55.028,WP_VExplicitOC_LH,2022.2.5,Win32,9.119927041,61.19791667,3.0556,2.0572,NA,NA,NA,NA,NA,frustrated,"frustrated, not frustrated","more frustrated, less frustrated",NA,NA,NA,NA,NA,NA,NA,NA,NA,NA,NA,NA,NA,NA,NA,NA,NA,NA,NA,NA,NA,NA,NA,NA,NA,NA,NA,NA,NA,NA,NA,NA,NA,NA,NA,NA,NA,NA,0,0,0,1,1,NA,NA,NA,NA,NA
SUPAMT45961,3STRJBFXO2QHC6YEKSU6TU9U5ZIKT9,8AD1C2FC-B885-4B2B-BEE5-199E7D1FCE17,2023-09-27_10h25.55.028,WP_VExplicitOC_LH,2022.2.5,Win32,9.119927041,66.92708333,3.3175,2.0505,NA,NA,NA,NA,NA,happy,"unhappy, happy","less happy, more happy",NA,NA,NA,NA,NA,NA,NA,NA,NA,NA,NA,NA,NA,NA,NA,NA,NA,NA,NA,NA,NA,NA,NA,NA,NA,NA,NA,NA,NA,NA,NA,NA,NA,NA,NA,NA,NA,NA,0,1,1,0,1,NA,NA,NA,NA,NA
SUPAMT45961,3STRJBFXO2QHC6YEKSU6TU9U5ZIKT9,8AD1C2FC-B885-4B2B-BEE5-199E7D1FCE17,2023-09-27_10h25.55.028,WP_VExplicitOC_LH,2022.2.5,Win32,9.119927041,64.84375,3.0471,2.0557,NA,NA,NA,NA,NA,bored,"bored, not bored","more bored, less bored",NA,NA,NA,NA,NA,NA,NA,NA,NA,NA,NA,NA,NA,NA,NA,NA,NA,NA,NA,NA,NA,NA,NA,NA,NA,NA,NA,NA,NA,NA,NA,NA,NA,NA,NA,NA,NA,NA,0,2,2,2,1,NA,NA,NA,NA,NA
SUPAMT45961,3STRJBFXO2QHC6YEKSU6TU9U5ZIKT9,8AD1C2FC-B885-4B2B-BEE5-199E7D1FCE17,2023-09-27_10h25.55.028,WP_VExplicitOC_LH,2022.2.5,Win32,9.119927041,NA,NA,NA,NA,NA,NA,NA,NA,NA,NA,NA,NA,NA,NA,NA,NA,NA,NA,NA,NA,NA,NA,NA,NA,NA,NA,NA,NA,NA,NA,NA,NA,NA,NA,NA,NA,NA,NA,NA,NA,NA,NA,NA,NA,NA,NA,NA,NA,NA,NA,NA,NA,NA,NA,7,0,7,0,1
SUPAMT45961,3STRJBFXO2QHC6YEKSU6TU9U5ZIKT9,8AD1C2FC-B885-4B2B-BEE5-199E7D1FCE17,2023-09-27_10h25.55.028,WP_VExplicitOC_LH,2022.2.5,Win32,9.119927041,50.52083333,3.4941,2.0102,NA,NA,NA,NA,NA,bored,"bored, not bored","more bored, less bored",NA,NA,NA,NA,NA,NA,NA,NA,NA,NA,NA,NA,NA,NA,NA,NA,NA,NA,NA,NA,NA,NA,NA,NA,NA,NA,NA,NA,NA,NA,NA,NA,NA,NA,NA,NA,NA,NA,0,0,0,2,1,NA,NA,NA,NA,NA
SUPAMT45961,3STRJBFXO2QHC6YEKSU6TU9U5ZIKT9,8AD1C2FC-B885-4B2B-BEE5-199E7D1FCE17,2023-09-27_10h25.55.028,WP_VExplicitOC_LH,2022.2.5,Win32,9.119927041,61.19791667,3.6082,2.0591,NA,NA,NA,NA,NA,happy,"unhappy, happy","less happy, more happy",NA,NA,NA,NA,NA,NA,NA,NA,NA,NA,NA,NA,NA,NA,NA,NA,NA,NA,NA,NA,NA,NA,NA,NA,NA,NA,NA,NA,NA,NA,NA,NA,NA,NA,NA,NA,NA,NA,0,1,1,0,1,NA,NA,NA,NA,NA
SUPAMT45961,3STRJBFXO2QHC6YEKSU6TU9U5ZIKT9,8AD1C2FC-B885-4B2B-BEE5-199E7D1FCE17,2023-09-27_10h25.55.028,WP_VExplicitOC_LH,2022.2.5,Win32,9.119927041,61.19791667,2.9651,2.0811,NA,NA,NA,NA,NA,frustrated,"frustrated, not frustrated","more frustrated, less frustrated",NA,NA,NA,NA,NA,NA,NA,NA,NA,NA,NA,NA,NA,NA,NA,NA,NA,NA,NA,NA,NA,NA,NA,NA,NA,NA,NA,NA,NA,NA,NA,NA,NA,NA,NA,NA,NA,NA,0,2,2,1,1,NA,NA,NA,NA,NA
SUPAMT45961,3STRJBFXO2QHC6YEKSU6TU9U5ZIKT9,8AD1C2FC-B885-4B2B-BEE5-199E7D1FCE17,2023-09-27_10h25.55.028,WP_VExplicitOC_LH,2022.2.5,Win32,9.119927041,NA,NA,NA,NA,NA,NA,NA,NA,NA,NA,NA,NA,NA,NA,NA,NA,NA,NA,NA,NA,NA,NA,NA,NA,NA,NA,NA,NA,NA,NA,NA,NA,NA,NA,NA,NA,NA,NA,NA,NA,NA,NA,NA,NA,NA,NA,NA,NA,NA,NA,NA,NA,NA,NA,8,0,8,0,1
SUPAMT45961,3STRJBFXO2QHC6YEKSU6TU9U5ZIKT9,8AD1C2FC-B885-4B2B-BEE5-199E7D1FCE17,2023-09-27_10h25.55.028,WP_VExplicitOC_LH,2022.2.5,Win32,9.119927041,70.57291667,6.387,2.0185,NA,NA,NA,NA,NA,frustrated,"frustrated, not frustrated","more frustrated, less frustrated",NA,NA,NA,NA,NA,NA,NA,NA,NA,NA,NA,NA,NA,NA,NA,NA,NA,NA,NA,NA,NA,NA,NA,NA,NA,NA,NA,NA,NA,NA,NA,NA,NA,NA,NA,NA,NA,NA,0,0,0,1,1,NA,NA,NA,NA,NA
SUPAMT45961,3STRJBFXO2QHC6YEKSU6TU9U5ZIKT9,8AD1C2FC-B885-4B2B-BEE5-199E7D1FCE17,2023-09-27_10h25.55.028,WP_VExplicitOC_LH,2022.2.5,Win32,9.119927041,64.84375,6.7242,2.0601,NA,NA,NA,NA,NA,happy,"unhappy, happy","less happy, more happy",NA,NA,NA,NA,NA,NA,NA,NA,NA,NA,NA,NA,NA,NA,NA,NA,NA,NA,NA,NA,NA,NA,NA,NA,NA,NA,NA,NA,NA,NA,NA,NA,NA,NA,NA,NA,NA,NA,0,1,1,0,1,NA,NA,NA,NA,NA
SUPAMT45961,3STRJBFXO2QHC6YEKSU6TU9U5ZIKT9,8AD1C2FC-B885-4B2B-BEE5-199E7D1FCE17,2023-09-27_10h25.55.028,WP_VExplicitOC_LH,2022.2.5,Win32,9.119927041,64.84375,2.8831,2.0558,NA,NA,NA,NA,NA,bored,"bored, not bored","more bored, less bored",NA,NA,NA,NA,NA,NA,NA,NA,NA,NA,NA,NA,NA,NA,NA,NA,NA,NA,NA,NA,NA,NA,NA,NA,NA,NA,NA,NA,NA,NA,NA,NA,NA,NA,NA,NA,NA,NA,0,2,2,2,1,NA,NA,NA,NA,NA
SUPAMT45961,3STRJBFXO2QHC6YEKSU6TU9U5ZIKT9,8AD1C2FC-B885-4B2B-BEE5-199E7D1FCE17,2023-09-27_10h25.55.028,WP_VExplicitOC_LH,2022.2.5,Win32,9.119927041,NA,NA,NA,NA,NA,NA,NA,NA,NA,NA,NA,NA,NA,NA,NA,NA,NA,NA,NA,NA,NA,NA,NA,NA,NA,NA,NA,NA,NA,NA,NA,NA,NA,NA,NA,NA,NA,NA,NA,NA,NA,NA,NA,NA,NA,NA,NA,NA,NA,NA,NA,NA,NA,NA,9,0,9,0,1
SUPAMT45961,3STRJBFXO2QHC6YEKSU6TU9U5ZIKT9,8AD1C2FC-B885-4B2B-BEE5-199E7D1FCE17,2023-09-27_10h25.55.028,WP_VExplicitOC_LH,2022.2.5,Win32,9.119927041,NA,NA,2.0532,NA,NA,NA,NA,NA,happy,"unhappy, happy","less happy, more happy",NA,NA,NA,NA,NA,NA,NA,NA,NA,NA,NA,NA,NA,NA,NA,NA,NA,NA,NA,NA,NA,NA,NA,NA,NA,NA,NA,NA,NA,NA,NA,NA,NA,NA,NA,NA,NA,NA,0,0,0,0,1,NA,NA,NA,NA,NA
SUPAMT45961,3STRJBFXO2QHC6YEKSU6TU9U5ZIKT9,8AD1C2FC-B885-4B2B-BEE5-199E7D1FCE17,2023-09-27_10h25.55.028,WP_VExplicitOC_LH,2022.2.5,Win32,9.119927041,38.28125,3.6973,2.025,NA,NA,NA,NA,NA,bored,"bored, not bored","more bored, less bored",NA,NA,NA,NA,NA,NA,NA,NA,NA,NA,NA,NA,NA,NA,NA,NA,NA,NA,NA,NA,NA,NA,NA,NA,NA,NA,NA,NA,NA,NA,NA,NA,NA,NA,NA,NA,NA,NA,0,1,1,2,1,NA,NA,NA,NA,NA
SUPAMT45961,3STRJBFXO2QHC6YEKSU6TU9U5ZIKT9,8AD1C2FC-B885-4B2B-BEE5-199E7D1FCE17,2023-09-27_10h25.55.028,WP_VExplicitOC_LH,2022.2.5,Win32,9.119927041,71.875,3.3639,2.071,NA,NA,NA,NA,NA,frustrated,"frustrated, not frustrated","more frustrated, less frustrated",NA,NA,NA,NA,NA,NA,NA,NA,NA,NA,NA,NA,NA,NA,NA,NA,NA,NA,NA,NA,NA,NA,NA,NA,NA,NA,NA,NA,NA,NA,NA,NA,NA,NA,NA,NA,NA,NA,0,2,2,1,1,NA,NA,NA,NA,NA
SUPAMT45961,3STRJBFXO2QHC6YEKSU6TU9U5ZIKT9,8AD1C2FC-B885-4B2B-BEE5-199E7D1FCE17,2023-09-27_10h25.55.028,WP_VExplicitOC_LH,2022.2.5,Win32,9.119927041,NA,NA,NA,NA,NA,NA,NA,NA,NA,NA,NA,NA,NA,NA,NA,NA,NA,NA,NA,NA,NA,NA,NA,NA,NA,NA,NA,NA,NA,NA,NA,NA,NA,NA,NA,NA,NA,NA,NA,NA,NA,NA,NA,NA,NA,NA,NA,NA,NA,NA,NA,NA,NA,NA,10,0,10,0,1
SUPAMT45961,3STRJBFXO2QHC6YEKSU6TU9U5ZIKT9,8AD1C2FC-B885-4B2B-BEE5-199E7D1FCE17,2023-09-27_10h25.55.028,WP_VExplicitOC_LH,2022.2.5,Win32,9.119927041,51.04166667,5.3434,2.1199,NA,NA,NA,NA,NA,bored,"bored, not bored","more bored, less bored",NA,NA,NA,NA,NA,NA,NA,NA,NA,NA,NA,NA,NA,NA,NA,NA,NA,NA,NA,NA,NA,NA,NA,NA,NA,NA,NA,NA,NA,NA,NA,NA,NA,NA,NA,NA,NA,NA,0,0,0,2,1,NA,NA,NA,NA,NA
SUPAMT45961,3STRJBFXO2QHC6YEKSU6TU9U5ZIKT9,8AD1C2FC-B885-4B2B-BEE5-199E7D1FCE17,2023-09-27_10h25.55.028,WP_VExplicitOC_LH,2022.2.5,Win32,9.119927041,NA,NA,2.0703,NA,NA,NA,NA,NA,happy,"unhappy, happy","less happy, more happy",NA,NA,NA,NA,NA,NA,NA,NA,NA,NA,NA,NA,NA,NA,NA,NA,NA,NA,NA,NA,NA,NA,NA,NA,NA,NA,NA,NA,NA,NA,NA,NA,NA,NA,NA,NA,NA,NA,0,1,1,0,1,NA,NA,NA,NA,NA
SUPAMT45961,3STRJBFXO2QHC6YEKSU6TU9U5ZIKT9,8AD1C2FC-B885-4B2B-BEE5-199E7D1FCE17,2023-09-27_10h25.55.028,WP_VExplicitOC_LH,2022.2.5,Win32,9.119927041,51.04166667,3.1008,2.0784,NA,NA,NA,NA,NA,frustrated,"frustrated, not frustrated","more frustrated, less frustrated",NA,NA,NA,NA,NA,NA,NA,NA,NA,NA,NA,NA,NA,NA,NA,NA,NA,NA,NA,NA,NA,NA,NA,NA,NA,NA,NA,NA,NA,NA,NA,NA,NA,NA,NA,NA,NA,NA,0,2,2,1,1,NA,NA,NA,NA,NA
SUPAMT45961,3STRJBFXO2QHC6YEKSU6TU9U5ZIKT9,8AD1C2FC-B885-4B2B-BEE5-199E7D1FCE17,2023-09-27_10h25.55.028,WP_VExplicitOC_LH,2022.2.5,Win32,9.119927041,NA,NA,NA,NA,NA,NA,NA,NA,NA,NA,NA,NA,NA,NA,NA,NA,NA,NA,NA,NA,NA,NA,NA,NA,NA,NA,NA,NA,NA,NA,NA,NA,NA,NA,NA,NA,NA,NA,NA,NA,NA,NA,NA,NA,NA,NA,NA,NA,NA,NA,NA,NA,NA,NA,11,0,11,0,1
SUPAMT45961,3STRJBFXO2QHC6YEKSU6TU9U5ZIKT9,8AD1C2FC-B885-4B2B-BEE5-199E7D1FCE17,2023-09-27_10h25.55.028,WP_VExplicitOC_LH,2022.2.5,Win32,9.119927041,51.30208333,4.4267,2.0021,NA,NA,NA,NA,NA,bored,"bored, not bored","more bored, less bored",NA,NA,NA,NA,NA,NA,NA,NA,NA,NA,NA,NA,NA,NA,NA,NA,NA,NA,NA,NA,NA,NA,NA,NA,NA,NA,NA,NA,NA,NA,NA,NA,NA,NA,NA,NA,NA,NA,0,0,0,2,1,NA,NA,NA,NA,NA
SUPAMT45961,3STRJBFXO2QHC6YEKSU6TU9U5ZIKT9,8AD1C2FC-B885-4B2B-BEE5-199E7D1FCE17,2023-09-27_10h25.55.028,WP_VExplicitOC_LH,2022.2.5,Win32,9.119927041,51.30208333,3.0264,2.0559,NA,NA,NA,NA,NA,frustrated,"frustrated, not frustrated","more frustrated, less frustrated",NA,NA,NA,NA,NA,NA,NA,NA,NA,NA,NA,NA,NA,NA,NA,NA,NA,NA,NA,NA,NA,NA,NA,NA,NA,NA,NA,NA,NA,NA,NA,NA,NA,NA,NA,NA,NA,NA,0,1,1,1,1,NA,NA,NA,NA,NA
SUPAMT45961,3STRJBFXO2QHC6YEKSU6TU9U5ZIKT9,8AD1C2FC-B885-4B2B-BEE5-199E7D1FCE17,2023-09-27_10h25.55.028,WP_VExplicitOC_LH,2022.2.5,Win32,9.119927041,51.30208333,5.3224,2.0001,NA,NA,NA,NA,NA,happy,"unhappy, happy","less happy, more happy",NA,NA,NA,NA,NA,NA,NA,NA,NA,NA,NA,NA,NA,NA,NA,NA,NA,NA,NA,NA,NA,NA,NA,NA,NA,NA,NA,NA,NA,NA,NA,NA,NA,NA,NA,NA,NA,NA,0,2,2,0,1,NA,NA,NA,NA,NA
SUPAMT45961,3STRJBFXO2QHC6YEKSU6TU9U5ZIKT9,8AD1C2FC-B885-4B2B-BEE5-199E7D1FCE17,2023-09-27_10h25.55.028,WP_VExplicitOC_LH,2022.2.5,Win32,9.119927041,NA,NA,NA,NA,NA,NA,NA,NA,NA,NA,NA,NA,NA,NA,NA,NA,NA,NA,NA,NA,NA,NA,NA,NA,NA,NA,NA,NA,NA,NA,NA,NA,NA,NA,NA,NA,NA,NA,NA,NA,NA,NA,NA,NA,NA,NA,NA,NA,NA,NA,NA,NA,NA,NA,12,0,12,0,1
SUPAMT45961,3STRJBFXO2QHC6YEKSU6TU9U5ZIKT9,8AD1C2FC-B885-4B2B-BEE5-199E7D1FCE17,2023-09-27_10h25.55.028,WP_VExplicitOC_LH,2022.2.5,Win32,9.119927041,77.08333333,4.7334,2.0713,NA,NA,NA,NA,NA,happy,"unhappy, happy","less happy, more happy",NA,NA,NA,NA,NA,NA,NA,NA,NA,NA,NA,NA,NA,NA,NA,NA,NA,NA,NA,NA,NA,NA,NA,NA,NA,NA,NA,NA,NA,NA,NA,NA,NA,NA,NA,NA,NA,NA,0,0,0,0,1,NA,NA,NA,NA,NA
SUPAMT45961,3STRJBFXO2QHC6YEKSU6TU9U5ZIKT9,8AD1C2FC-B885-4B2B-BEE5-199E7D1FCE17,2023-09-27_10h25.55.028,WP_VExplicitOC_LH,2022.2.5,Win32,9.119927041,54.6875,3.0022,2.064,NA,NA,NA,NA,NA,bored,"bored, not bored","more bored, less bored",NA,NA,NA,NA,NA,NA,NA,NA,NA,NA,NA,NA,NA,NA,NA,NA,NA,NA,NA,NA,NA,NA,NA,NA,NA,NA,NA,NA,NA,NA,NA,NA,NA,NA,NA,NA,NA,NA,0,1,1,2,1,NA,NA,NA,NA,NA
SUPAMT45961,3STRJBFXO2QHC6YEKSU6TU9U5ZIKT9,8AD1C2FC-B885-4B2B-BEE5-199E7D1FCE17,2023-09-27_10h25.55.028,WP_VExplicitOC_LH,2022.2.5,Win32,9.119927041,54.6875,3.0706,2.0033,NA,NA,NA,NA,NA,frustrated,"frustrated, not frustrated","more frustrated, less frustrated",NA,NA,NA,NA,NA,NA,NA,NA,NA,NA,NA,NA,NA,NA,NA,NA,NA,NA,NA,NA,NA,NA,NA,NA,NA,NA,NA,NA,NA,NA,NA,NA,NA,NA,NA,NA,NA,NA,0,2,2,1,1,NA,NA,NA,NA,NA
SUPAMT45961,3STRJBFXO2QHC6YEKSU6TU9U5ZIKT9,8AD1C2FC-B885-4B2B-BEE5-199E7D1FCE17,2023-09-27_10h25.55.028,WP_VExplicitOC_LH,2022.2.5,Win32,9.119927041,NA,NA,NA,NA,NA,NA,NA,NA,NA,NA,NA,NA,NA,NA,NA,NA,NA,NA,NA,NA,NA,NA,NA,NA,NA,NA,NA,NA,NA,NA,NA,NA,NA,NA,NA,NA,NA,NA,NA,NA,NA,NA,NA,NA,NA,NA,NA,NA,NA,NA,NA,NA,NA,NA,13,0,13,0,1
SUPAMT45961,3STRJBFXO2QHC6YEKSU6TU9U5ZIKT9,8AD1C2FC-B885-4B2B-BEE5-199E7D1FCE17,2023-09-27_10h25.55.028,WP_VExplicitOC_LH,2022.2.5,Win32,9.119927041,NA,NA,2.0603,NA,NA,NA,NA,NA,frustrated,"frustrated, not frustrated","more frustrated, less frustrated",NA,NA,NA,NA,NA,NA,NA,NA,NA,NA,NA,NA,NA,NA,NA,NA,NA,NA,NA,NA,NA,NA,NA,NA,NA,NA,NA,NA,NA,NA,NA,NA,NA,NA,NA,NA,NA,NA,0,0,0,1,1,NA,NA,NA,NA,NA
SUPAMT45961,3STRJBFXO2QHC6YEKSU6TU9U5ZIKT9,8AD1C2FC-B885-4B2B-BEE5-199E7D1FCE17,2023-09-27_10h25.55.028,WP_VExplicitOC_LH,2022.2.5,Win32,9.119927041,NA,NA,2.0117,NA,NA,NA,NA,NA,happy,"unhappy, happy","less happy, more happy",NA,NA,NA,NA,NA,NA,NA,NA,NA,NA,NA,NA,NA,NA,NA,NA,NA,NA,NA,NA,NA,NA,NA,NA,NA,NA,NA,NA,NA,NA,NA,NA,NA,NA,NA,NA,NA,NA,0,1,1,0,1,NA,NA,NA,NA,NA
SUPAMT45961,3STRJBFXO2QHC6YEKSU6TU9U5ZIKT9,8AD1C2FC-B885-4B2B-BEE5-199E7D1FCE17,2023-09-27_10h25.55.028,WP_VExplicitOC_LH,2022.2.5,Win32,9.119927041,NA,NA,2.0461,NA,NA,NA,NA,NA,bored,"bored, not bored","more bored, less bored",NA,NA,NA,NA,NA,NA,NA,NA,NA,NA,NA,NA,NA,NA,NA,NA,NA,NA,NA,NA,NA,NA,NA,NA,NA,NA,NA,NA,NA,NA,NA,NA,NA,NA,NA,NA,NA,NA,0,2,2,2,1,NA,NA,NA,NA,NA
SUPAMT45961,3STRJBFXO2QHC6YEKSU6TU9U5ZIKT9,8AD1C2FC-B885-4B2B-BEE5-199E7D1FCE17,2023-09-27_10h25.55.028,WP_VExplicitOC_LH,2022.2.5,Win32,9.119927041,NA,NA,NA,NA,NA,NA,NA,NA,NA,NA,NA,NA,NA,NA,NA,NA,NA,NA,NA,NA,NA,NA,NA,NA,NA,NA,NA,NA,NA,NA,NA,NA,NA,NA,NA,NA,NA,NA,NA,NA,NA,NA,NA,NA,NA,NA,NA,NA,NA,NA,NA,NA,NA,NA,14,0,14,0,1
SUPAMT45961,3STRJBFXO2QHC6YEKSU6TU9U5ZIKT9,8AD1C2FC-B885-4B2B-BEE5-199E7D1FCE17,2023-09-27_10h25.55.028,WP_VExplicitOC_LH,2022.2.5,Win32,9.119927041,NA,NA,NA,NA,NA,NA,NA,NA,NA,NA,NA,NA,NA,NA,NA,NA,NA,NA,NA,NA,NA,NA,NA,NA,NA,NA,NA,NA,NA,NA,NA,NA,NA,NA,NA,NA,NA,NA,NA,NA,NA,NA,NA,NA,NA,NA,NA,NA,NA,NA,NA,NA,NA,NA,NA,NA,NA,NA,NA
