participant,session,completion,date,expName,psychopyVersion,OS,frameRate,rating_all.response,rating_all.rt,rating_all.tStart,rndRat1.thisRepN,rndRat1.thisTrialN,rndRat1.thisN,rndRat1.thisIndex,rndRat1.ran,Emo,Labs,Labs2,rating_alt.response,rating_alt.rt,AltC.thisRepN,AltC.thisTrialN,AltC.thisN,AltC.thisIndex,AltC.ran,alt_choices,pic_choices,BottomAlt_Choice,rndRat2.thisRepN,rndRat2.thisTrialN,rndRat2.thisN,rndRat2.thisIndex,rndRat2.ran,rndRat3.thisRepN,rndRat3.thisTrialN,rndRat3.thisN,rndRat3.thisIndex,rndRat3.ran,trials_FC_L.thisRepN,trials_FC_L.thisTrialN,trials_FC_L.thisN,trials_FC_L.thisIndex,trials_FC_L.ran,rating_alt_2.response,rating_alt_2.rt,AltC2.thisRepN,AltC2.thisTrialN,AltC2.thisN,AltC2.thisIndex,AltC2.ran,TopAlt_Choice,rndRat4.thisRepN,rndRat4.thisTrialN,rndRat4.thisN,rndRat4.thisIndex,rndRat4.ran,rndRat5.thisRepN,rndRat5.thisTrialN,rndRat5.thisN,rndRat5.thisIndex,rndRat5.ran,trials_FC_H.thisRepN,trials_FC_H.thisTrialN,trials_FC_H.thisN,trials_FC_H.thisIndex,trials_FC_H.ran
SUPAMT36184,3AMW0RGHOJ1KSKQA0OD2GCP1AXLNP7,FEA06326-B87B-4F52-A292-104C55670601,2023-09-28_13h07.29.545,WP_VExplicitOC_LH,2022.2.5,Win32,16,NA,NA,NA,NA,NA,NA,NA,NA,NA,NA,NA,NA,NA,NA,NA,NA,NA,NA,NA,NA,NA,NA,NA,NA,NA,NA,NA,NA,NA,NA,NA,NA,NA,NA,NA,NA,NA,NA,NA,NA,NA,NA,NA,NA,NA,NA,NA,NA,NA,NA,NA,NA,NA,NA,NA,NA,NA,NA,NA
SUPAMT36184,3AMW0RGHOJ1KSKQA0OD2GCP1AXLNP7,FEA06326-B87B-4F52-A292-104C55670601,2023-09-28_13h07.29.545,WP_VExplicitOC_LH,2022.2.5,Win32,16,NA,NA,NA,NA,NA,NA,NA,NA,NA,NA,NA,NA,NA,NA,NA,NA,NA,NA,NA,NA,NA,NA,NA,NA,NA,NA,NA,NA,NA,NA,NA,NA,NA,NA,NA,NA,NA,NA,NA,NA,NA,NA,NA,NA,NA,NA,NA,NA,NA,NA,NA,NA,NA,NA,NA,NA,NA,NA,NA
SUPAMT36184,3AMW0RGHOJ1KSKQA0OD2GCP1AXLNP7,FEA06326-B87B-4F52-A292-104C55670601,2023-09-28_13h07.29.545,WP_VExplicitOC_LH,2022.2.5,Win32,16,NA,NA,NA,NA,NA,NA,NA,NA,NA,NA,NA,NA,NA,NA,NA,NA,NA,NA,NA,NA,NA,NA,NA,NA,NA,NA,NA,NA,NA,NA,NA,NA,NA,NA,NA,NA,NA,NA,NA,NA,NA,NA,NA,NA,NA,NA,NA,NA,NA,NA,NA,NA,NA,NA,NA,NA,NA,NA,NA
SUPAMT36184,3AMW0RGHOJ1KSKQA0OD2GCP1AXLNP7,FEA06326-B87B-4F52-A292-104C55670601,2023-09-28_13h07.29.545,WP_VExplicitOC_LH,2022.2.5,Win32,16,NA,NA,2.049,0,0,0,2,1,bored,"bored, not bored","more bored, less bored",NA,NA,NA,NA,NA,NA,NA,NA,NA,NA,NA,NA,NA,NA,NA,NA,NA,NA,NA,NA,NA,NA,NA,NA,NA,NA,NA,NA,NA,NA,NA,NA,NA,NA,NA,NA,NA,NA,NA,NA,NA,NA,NA,NA,NA,NA,NA,NA
SUPAMT36184,3AMW0RGHOJ1KSKQA0OD2GCP1AXLNP7,FEA06326-B87B-4F52-A292-104C55670601,2023-09-28_13h07.29.545,WP_VExplicitOC_LH,2022.2.5,Win32,16,93.22916667,5.065,2.026,0,1,1,0,1,happy,"unhappy, happy","less happy, more happy",NA,NA,NA,NA,NA,NA,NA,NA,NA,NA,NA,NA,NA,NA,NA,NA,NA,NA,NA,NA,NA,NA,NA,NA,NA,NA,NA,NA,NA,NA,NA,NA,NA,NA,NA,NA,NA,NA,NA,NA,NA,NA,NA,NA,NA,NA,NA,NA
SUPAMT36184,3AMW0RGHOJ1KSKQA0OD2GCP1AXLNP7,FEA06326-B87B-4F52-A292-104C55670601,2023-09-28_13h07.29.545,WP_VExplicitOC_LH,2022.2.5,Win32,16,26.5625,7.108,2.023,0,2,2,1,1,frustrated,"frustrated, not frustrated","more frustrated, less frustrated",NA,NA,NA,NA,NA,NA,NA,NA,NA,NA,NA,NA,NA,NA,NA,NA,NA,NA,NA,NA,NA,NA,NA,NA,NA,NA,NA,NA,NA,NA,NA,NA,NA,NA,NA,NA,NA,NA,NA,NA,NA,NA,NA,NA,NA,NA,NA,NA
SUPAMT36184,3AMW0RGHOJ1KSKQA0OD2GCP1AXLNP7,FEA06326-B87B-4F52-A292-104C55670601,2023-09-28_13h07.29.545,WP_VExplicitOC_LH,2022.2.5,Win32,16,NA,NA,NA,NA,NA,NA,NA,NA,NA,NA,NA,NA,NA,NA,NA,NA,NA,NA,NA,NA,NA,NA,NA,NA,NA,NA,NA,NA,NA,NA,NA,NA,NA,NA,NA,NA,NA,NA,NA,NA,NA,NA,NA,NA,NA,NA,NA,NA,NA,NA,NA,NA,NA,NA,NA,NA,NA,NA,NA
SUPAMT36184,3AMW0RGHOJ1KSKQA0OD2GCP1AXLNP7,FEA06326-B87B-4F52-A292-104C55670601,2023-09-28_13h07.29.545,WP_VExplicitOC_LH,2022.2.5,Win32,16,NA,NA,NA,NA,NA,NA,NA,NA,NA,NA,NA,NA,NA,NA,NA,NA,NA,NA,NA,NA,NA,NA,NA,NA,NA,NA,NA,NA,NA,NA,NA,NA,NA,NA,NA,NA,NA,NA,NA,NA,NA,NA,NA,NA,NA,NA,NA,NA,NA,NA,NA,NA,NA,NA,NA,NA,NA,NA,NA
SUPAMT36184,3AMW0RGHOJ1KSKQA0OD2GCP1AXLNP7,FEA06326-B87B-4F52-A292-104C55670601,2023-09-28_13h07.29.545,WP_VExplicitOC_LH,2022.2.5,Win32,16,NA,NA,NA,NA,NA,NA,NA,NA,NA,NA,NA,NA,NA,NA,NA,NA,NA,NA,NA,NA,NA,NA,NA,NA,NA,NA,NA,NA,NA,NA,NA,NA,NA,NA,NA,NA,NA,NA,NA,NA,NA,NA,NA,NA,NA,NA,NA,NA,NA,NA,NA,NA,NA,NA,NA,NA,NA,NA,NA
SUPAMT36184,3AMW0RGHOJ1KSKQA0OD2GCP1AXLNP7,FEA06326-B87B-4F52-A292-104C55670601,2023-09-28_13h07.29.545,WP_VExplicitOC_LH,2022.2.5,Win32,16,NA,NA,NA,NA,NA,NA,NA,NA,NA,NA,NA,NA,NA,NA,NA,NA,NA,NA,NA,NA,NA,NA,NA,NA,NA,NA,NA,NA,NA,NA,NA,NA,NA,NA,NA,NA,NA,NA,NA,NA,NA,NA,NA,NA,NA,NA,NA,NA,NA,NA,NA,NA,NA,NA,NA,NA,NA,NA,NA
SUPAMT36184,3AMW0RGHOJ1KSKQA0OD2GCP1AXLNP7,FEA06326-B87B-4F52-A292-104C55670601,2023-09-28_13h07.29.545,WP_VExplicitOC_LH,2022.2.5,Win32,16,NA,NA,NA,NA,NA,NA,NA,NA,NA,NA,NA,46.61458333,4.031,0,0,0,0,1,rest (looking at a fixed cross),001.png,NA,NA,NA,NA,NA,NA,NA,NA,NA,NA,NA,NA,NA,NA,NA,NA,NA,NA,NA,NA,NA,NA,NA,NA,NA,NA,NA,NA,NA,NA,NA,NA,NA,NA,NA,NA,NA,NA,NA
SUPAMT36184,3AMW0RGHOJ1KSKQA0OD2GCP1AXLNP7,FEA06326-B87B-4F52-A292-104C55670601,2023-09-28_13h07.29.545,WP_VExplicitOC_LH,2022.2.5,Win32,16,NA,NA,NA,NA,NA,NA,NA,NA,NA,NA,NA,79.42708333,2.47,0,1,1,1,1,stand up,002.png,NA,NA,NA,NA,NA,NA,NA,NA,NA,NA,NA,NA,NA,NA,NA,NA,NA,NA,NA,NA,NA,NA,NA,NA,NA,NA,NA,NA,NA,NA,NA,NA,NA,NA,NA,NA,NA,NA,NA
SUPAMT36184,3AMW0RGHOJ1KSKQA0OD2GCP1AXLNP7,FEA06326-B87B-4F52-A292-104C55670601,2023-09-28_13h07.29.545,WP_VExplicitOC_LH,2022.2.5,Win32,16,NA,NA,NA,NA,NA,NA,NA,NA,NA,NA,NA,24.73958333,4.611,0,2,2,2,1,stretch,003.png,NA,NA,NA,NA,NA,NA,NA,NA,NA,NA,NA,NA,NA,NA,NA,NA,NA,NA,NA,NA,NA,NA,NA,NA,NA,NA,NA,NA,NA,NA,NA,NA,NA,NA,NA,NA,NA,NA,NA
SUPAMT36184,3AMW0RGHOJ1KSKQA0OD2GCP1AXLNP7,FEA06326-B87B-4F52-A292-104C55670601,2023-09-28_13h07.29.545,WP_VExplicitOC_LH,2022.2.5,Win32,16,NA,NA,NA,NA,NA,NA,NA,NA,NA,NA,NA,37.23958333,2.527,0,3,3,3,1,make a drink,004.png,NA,NA,NA,NA,NA,NA,NA,NA,NA,NA,NA,NA,NA,NA,NA,NA,NA,NA,NA,NA,NA,NA,NA,NA,NA,NA,NA,NA,NA,NA,NA,NA,NA,NA,NA,NA,NA,NA,NA
SUPAMT36184,3AMW0RGHOJ1KSKQA0OD2GCP1AXLNP7,FEA06326-B87B-4F52-A292-104C55670601,2023-09-28_13h07.29.545,WP_VExplicitOC_LH,2022.2.5,Win32,16,NA,NA,NA,NA,NA,NA,NA,NA,NA,NA,NA,78.125,4.139,0,4,4,4,1,scroll social media,005.png,NA,NA,NA,NA,NA,NA,NA,NA,NA,NA,NA,NA,NA,NA,NA,NA,NA,NA,NA,NA,NA,NA,NA,NA,NA,NA,NA,NA,NA,NA,NA,NA,NA,NA,NA,NA,NA,NA,NA
SUPAMT36184,3AMW0RGHOJ1KSKQA0OD2GCP1AXLNP7,FEA06326-B87B-4F52-A292-104C55670601,2023-09-28_13h07.29.545,WP_VExplicitOC_LH,2022.2.5,Win32,16,NA,NA,NA,NA,NA,NA,NA,NA,NA,NA,NA,41.66666667,2.619,0,5,5,5,1,listen to music,006.png,NA,NA,NA,NA,NA,NA,NA,NA,NA,NA,NA,NA,NA,NA,NA,NA,NA,NA,NA,NA,NA,NA,NA,NA,NA,NA,NA,NA,NA,NA,NA,NA,NA,NA,NA,NA,NA,NA,NA
SUPAMT36184,3AMW0RGHOJ1KSKQA0OD2GCP1AXLNP7,FEA06326-B87B-4F52-A292-104C55670601,2023-09-28_13h07.29.545,WP_VExplicitOC_LH,2022.2.5,Win32,16,NA,NA,NA,NA,NA,NA,NA,NA,NA,NA,NA,99.47916667,5.622,0,6,6,6,1,daydream,007.png,NA,NA,NA,NA,NA,NA,NA,NA,NA,NA,NA,NA,NA,NA,NA,NA,NA,NA,NA,NA,NA,NA,NA,NA,NA,NA,NA,NA,NA,NA,NA,NA,NA,NA,NA,NA,NA,NA,NA
SUPAMT36184,3AMW0RGHOJ1KSKQA0OD2GCP1AXLNP7,FEA06326-B87B-4F52-A292-104C55670601,2023-09-28_13h07.29.545,WP_VExplicitOC_LH,2022.2.5,Win32,16,NA,NA,NA,NA,NA,NA,NA,NA,NA,NA,NA,36.97916667,6.177,0,7,7,7,1,watch a short animation,008.png,NA,NA,NA,NA,NA,NA,NA,NA,NA,NA,NA,NA,NA,NA,NA,NA,NA,NA,NA,NA,NA,NA,NA,NA,NA,NA,NA,NA,NA,NA,NA,NA,NA,NA,NA,NA,NA,NA,NA
SUPAMT36184,3AMW0RGHOJ1KSKQA0OD2GCP1AXLNP7,FEA06326-B87B-4F52-A292-104C55670601,2023-09-28_13h07.29.545,WP_VExplicitOC_LH,2022.2.5,Win32,16,NA,NA,NA,NA,NA,NA,NA,NA,NA,NA,NA,100,2.924,0,8,8,8,1,read a novel,009.png,NA,NA,NA,NA,NA,NA,NA,NA,NA,NA,NA,NA,NA,NA,NA,NA,NA,NA,NA,NA,NA,NA,NA,NA,NA,NA,NA,NA,NA,NA,NA,NA,NA,NA,NA,NA,NA,NA,NA
SUPAMT36184,3AMW0RGHOJ1KSKQA0OD2GCP1AXLNP7,FEA06326-B87B-4F52-A292-104C55670601,2023-09-28_13h07.29.545,WP_VExplicitOC_LH,2022.2.5,Win32,16,NA,NA,NA,NA,NA,NA,NA,NA,NA,NA,NA,25.52083333,4.503,0,9,9,9,1,read the news,010.png,NA,NA,NA,NA,NA,NA,NA,NA,NA,NA,NA,NA,NA,NA,NA,NA,NA,NA,NA,NA,NA,NA,NA,NA,NA,NA,NA,NA,NA,NA,NA,NA,NA,NA,NA,NA,NA,NA,NA
SUPAMT36184,3AMW0RGHOJ1KSKQA0OD2GCP1AXLNP7,FEA06326-B87B-4F52-A292-104C55670601,2023-09-28_13h07.29.545,WP_VExplicitOC_LH,2022.2.5,Win32,16,NA,NA,NA,NA,NA,NA,NA,NA,NA,NA,NA,NA,NA,NA,NA,NA,NA,NA,NA,NA,NA,NA,NA,NA,NA,NA,NA,NA,NA,NA,NA,NA,NA,NA,NA,NA,NA,NA,NA,NA,NA,NA,NA,NA,NA,NA,NA,NA,NA,NA,NA,NA,NA,NA,NA,NA,NA,NA,NA
SUPAMT36184,3AMW0RGHOJ1KSKQA0OD2GCP1AXLNP7,FEA06326-B87B-4F52-A292-104C55670601,2023-09-28_13h07.29.545,WP_VExplicitOC_LH,2022.2.5,Win32,16,NA,NA,NA,NA,NA,NA,NA,NA,NA,NA,NA,NA,NA,NA,NA,NA,NA,NA,NA,NA,stretch,NA,NA,NA,NA,NA,NA,NA,NA,NA,NA,NA,NA,NA,NA,NA,NA,NA,NA,NA,NA,NA,NA,NA,NA,NA,NA,NA,NA,NA,NA,NA,NA,NA,NA,NA,NA,NA,NA
SUPAMT36184,3AMW0RGHOJ1KSKQA0OD2GCP1AXLNP7,FEA06326-B87B-4F52-A292-104C55670601,2023-09-28_13h07.29.545,WP_VExplicitOC_LH,2022.2.5,Win32,16,78.125,6.923,2.003,NA,NA,NA,NA,NA,bored,"bored, not bored","more bored, less bored",NA,NA,NA,NA,NA,NA,NA,NA,NA,NA,0,0,0,2,1,NA,NA,NA,NA,NA,NA,NA,NA,NA,NA,NA,NA,NA,NA,NA,NA,NA,NA,NA,NA,NA,NA,NA,NA,NA,NA,NA,NA,NA,NA,NA,NA,NA
SUPAMT36184,3AMW0RGHOJ1KSKQA0OD2GCP1AXLNP7,FEA06326-B87B-4F52-A292-104C55670601,2023-09-28_13h07.29.545,WP_VExplicitOC_LH,2022.2.5,Win32,16,99.73958333,4.415,2.098,NA,NA,NA,NA,NA,happy,"unhappy, happy","less happy, more happy",NA,NA,NA,NA,NA,NA,NA,NA,NA,NA,0,1,1,0,1,NA,NA,NA,NA,NA,NA,NA,NA,NA,NA,NA,NA,NA,NA,NA,NA,NA,NA,NA,NA,NA,NA,NA,NA,NA,NA,NA,NA,NA,NA,NA,NA,NA
SUPAMT36184,3AMW0RGHOJ1KSKQA0OD2GCP1AXLNP7,FEA06326-B87B-4F52-A292-104C55670601,2023-09-28_13h07.29.545,WP_VExplicitOC_LH,2022.2.5,Win32,16,26.82291667,6.094,2.003,NA,NA,NA,NA,NA,frustrated,"frustrated, not frustrated","more frustrated, less frustrated",NA,NA,NA,NA,NA,NA,NA,NA,NA,NA,0,2,2,1,1,NA,NA,NA,NA,NA,NA,NA,NA,NA,NA,NA,NA,NA,NA,NA,NA,NA,NA,NA,NA,NA,NA,NA,NA,NA,NA,NA,NA,NA,NA,NA,NA,NA
SUPAMT36184,3AMW0RGHOJ1KSKQA0OD2GCP1AXLNP7,FEA06326-B87B-4F52-A292-104C55670601,2023-09-28_13h07.29.545,WP_VExplicitOC_LH,2022.2.5,Win32,16,NA,NA,NA,NA,NA,NA,NA,NA,NA,NA,NA,NA,NA,NA,NA,NA,NA,NA,NA,NA,NA,NA,NA,NA,NA,NA,NA,NA,NA,NA,NA,NA,NA,NA,NA,NA,NA,NA,NA,NA,NA,NA,NA,NA,NA,NA,NA,NA,NA,NA,NA,NA,NA,NA,NA,NA,NA,NA,NA
SUPAMT36184,3AMW0RGHOJ1KSKQA0OD2GCP1AXLNP7,FEA06326-B87B-4F52-A292-104C55670601,2023-09-28_13h07.29.545,WP_VExplicitOC_LH,2022.2.5,Win32,16,NA,NA,NA,NA,NA,NA,NA,NA,NA,NA,NA,NA,NA,NA,NA,NA,NA,NA,NA,NA,NA,NA,NA,NA,NA,NA,NA,NA,NA,NA,NA,NA,NA,NA,NA,NA,NA,NA,NA,NA,NA,NA,NA,NA,NA,NA,NA,NA,NA,NA,NA,NA,NA,NA,NA,NA,NA,NA,NA
SUPAMT36184,3AMW0RGHOJ1KSKQA0OD2GCP1AXLNP7,FEA06326-B87B-4F52-A292-104C55670601,2023-09-28_13h07.29.545,WP_VExplicitOC_LH,2022.2.5,Win32,16,78.125,4.435,2.058,NA,NA,NA,NA,NA,happy,"unhappy, happy","less happy, more happy",NA,NA,NA,NA,NA,NA,NA,NA,NA,NA,NA,NA,NA,NA,NA,0,0,0,0,1,NA,NA,NA,NA,NA,NA,NA,NA,NA,NA,NA,NA,NA,NA,NA,NA,NA,NA,NA,NA,NA,NA,NA,NA,NA,NA,NA,NA
SUPAMT36184,3AMW0RGHOJ1KSKQA0OD2GCP1AXLNP7,FEA06326-B87B-4F52-A292-104C55670601,2023-09-28_13h07.29.545,WP_VExplicitOC_LH,2022.2.5,Win32,16,21.875,4.153,2.069,NA,NA,NA,NA,NA,frustrated,"frustrated, not frustrated","more frustrated, less frustrated",NA,NA,NA,NA,NA,NA,NA,NA,NA,NA,NA,NA,NA,NA,NA,0,1,1,1,1,NA,NA,NA,NA,NA,NA,NA,NA,NA,NA,NA,NA,NA,NA,NA,NA,NA,NA,NA,NA,NA,NA,NA,NA,NA,NA,NA,NA
SUPAMT36184,3AMW0RGHOJ1KSKQA0OD2GCP1AXLNP7,FEA06326-B87B-4F52-A292-104C55670601,2023-09-28_13h07.29.545,WP_VExplicitOC_LH,2022.2.5,Win32,16,100,6.323,2.058,NA,NA,NA,NA,NA,bored,"bored, not bored","more bored, less bored",NA,NA,NA,NA,NA,NA,NA,NA,NA,NA,NA,NA,NA,NA,NA,0,2,2,2,1,NA,NA,NA,NA,NA,NA,NA,NA,NA,NA,NA,NA,NA,NA,NA,NA,NA,NA,NA,NA,NA,NA,NA,NA,NA,NA,NA,NA
SUPAMT36184,3AMW0RGHOJ1KSKQA0OD2GCP1AXLNP7,FEA06326-B87B-4F52-A292-104C55670601,2023-09-28_13h07.29.545,WP_VExplicitOC_LH,2022.2.5,Win32,16,NA,NA,NA,NA,NA,NA,NA,NA,NA,NA,NA,NA,NA,NA,NA,NA,NA,NA,NA,NA,NA,NA,NA,NA,NA,NA,NA,NA,NA,NA,NA,0,0,0,0,1,NA,NA,NA,NA,NA,NA,NA,NA,NA,NA,NA,NA,NA,NA,NA,NA,NA,NA,NA,NA,NA,NA,NA
SUPAMT36184,3AMW0RGHOJ1KSKQA0OD2GCP1AXLNP7,FEA06326-B87B-4F52-A292-104C55670601,2023-09-28_13h07.29.545,WP_VExplicitOC_LH,2022.2.5,Win32,16,17.1875,4.112,2.09,NA,NA,NA,NA,NA,frustrated,"frustrated, not frustrated","more frustrated, less frustrated",NA,NA,NA,NA,NA,NA,NA,NA,NA,NA,NA,NA,NA,NA,NA,0,0,0,1,1,NA,NA,NA,NA,NA,NA,NA,NA,NA,NA,NA,NA,NA,NA,NA,NA,NA,NA,NA,NA,NA,NA,NA,NA,NA,NA,NA,NA
SUPAMT36184,3AMW0RGHOJ1KSKQA0OD2GCP1AXLNP7,FEA06326-B87B-4F52-A292-104C55670601,2023-09-28_13h07.29.545,WP_VExplicitOC_LH,2022.2.5,Win32,16,47.13541667,4.574,2.06,NA,NA,NA,NA,NA,bored,"bored, not bored","more bored, less bored",NA,NA,NA,NA,NA,NA,NA,NA,NA,NA,NA,NA,NA,NA,NA,0,1,1,2,1,NA,NA,NA,NA,NA,NA,NA,NA,NA,NA,NA,NA,NA,NA,NA,NA,NA,NA,NA,NA,NA,NA,NA,NA,NA,NA,NA,NA
SUPAMT36184,3AMW0RGHOJ1KSKQA0OD2GCP1AXLNP7,FEA06326-B87B-4F52-A292-104C55670601,2023-09-28_13h07.29.545,WP_VExplicitOC_LH,2022.2.5,Win32,16,64.0625,4.522,2.028,NA,NA,NA,NA,NA,happy,"unhappy, happy","less happy, more happy",NA,NA,NA,NA,NA,NA,NA,NA,NA,NA,NA,NA,NA,NA,NA,0,2,2,0,1,NA,NA,NA,NA,NA,NA,NA,NA,NA,NA,NA,NA,NA,NA,NA,NA,NA,NA,NA,NA,NA,NA,NA,NA,NA,NA,NA,NA
SUPAMT36184,3AMW0RGHOJ1KSKQA0OD2GCP1AXLNP7,FEA06326-B87B-4F52-A292-104C55670601,2023-09-28_13h07.29.545,WP_VExplicitOC_LH,2022.2.5,Win32,16,NA,NA,NA,NA,NA,NA,NA,NA,NA,NA,NA,NA,NA,NA,NA,NA,NA,NA,NA,NA,NA,NA,NA,NA,NA,NA,NA,NA,NA,NA,NA,1,0,1,0,1,NA,NA,NA,NA,NA,NA,NA,NA,NA,NA,NA,NA,NA,NA,NA,NA,NA,NA,NA,NA,NA,NA,NA
SUPAMT36184,3AMW0RGHOJ1KSKQA0OD2GCP1AXLNP7,FEA06326-B87B-4F52-A292-104C55670601,2023-09-28_13h07.29.545,WP_VExplicitOC_LH,2022.2.5,Win32,16,36.71875,5.653,2.065,NA,NA,NA,NA,NA,bored,"bored, not bored","more bored, less bored",NA,NA,NA,NA,NA,NA,NA,NA,NA,NA,NA,NA,NA,NA,NA,0,0,0,2,1,NA,NA,NA,NA,NA,NA,NA,NA,NA,NA,NA,NA,NA,NA,NA,NA,NA,NA,NA,NA,NA,NA,NA,NA,NA,NA,NA,NA
SUPAMT36184,3AMW0RGHOJ1KSKQA0OD2GCP1AXLNP7,FEA06326-B87B-4F52-A292-104C55670601,2023-09-28_13h07.29.545,WP_VExplicitOC_LH,2022.2.5,Win32,16,92.44791667,4.53,2.017,NA,NA,NA,NA,NA,happy,"unhappy, happy","less happy, more happy",NA,NA,NA,NA,NA,NA,NA,NA,NA,NA,NA,NA,NA,NA,NA,0,1,1,0,1,NA,NA,NA,NA,NA,NA,NA,NA,NA,NA,NA,NA,NA,NA,NA,NA,NA,NA,NA,NA,NA,NA,NA,NA,NA,NA,NA,NA
SUPAMT36184,3AMW0RGHOJ1KSKQA0OD2GCP1AXLNP7,FEA06326-B87B-4F52-A292-104C55670601,2023-09-28_13h07.29.545,WP_VExplicitOC_LH,2022.2.5,Win32,16,21.35416667,4.511,2.046,NA,NA,NA,NA,NA,frustrated,"frustrated, not frustrated","more frustrated, less frustrated",NA,NA,NA,NA,NA,NA,NA,NA,NA,NA,NA,NA,NA,NA,NA,0,2,2,1,1,NA,NA,NA,NA,NA,NA,NA,NA,NA,NA,NA,NA,NA,NA,NA,NA,NA,NA,NA,NA,NA,NA,NA,NA,NA,NA,NA,NA
SUPAMT36184,3AMW0RGHOJ1KSKQA0OD2GCP1AXLNP7,FEA06326-B87B-4F52-A292-104C55670601,2023-09-28_13h07.29.545,WP_VExplicitOC_LH,2022.2.5,Win32,16,NA,NA,NA,NA,NA,NA,NA,NA,NA,NA,NA,NA,NA,NA,NA,NA,NA,NA,NA,NA,NA,NA,NA,NA,NA,NA,NA,NA,NA,NA,NA,2,0,2,0,1,NA,NA,NA,NA,NA,NA,NA,NA,NA,NA,NA,NA,NA,NA,NA,NA,NA,NA,NA,NA,NA,NA,NA
SUPAMT36184,3AMW0RGHOJ1KSKQA0OD2GCP1AXLNP7,FEA06326-B87B-4F52-A292-104C55670601,2023-09-28_13h07.29.545,WP_VExplicitOC_LH,2022.2.5,Win32,16,4.166666667,3.99,2.085,NA,NA,NA,NA,NA,frustrated,"frustrated, not frustrated","more frustrated, less frustrated",NA,NA,NA,NA,NA,NA,NA,NA,NA,NA,NA,NA,NA,NA,NA,0,0,0,1,1,NA,NA,NA,NA,NA,NA,NA,NA,NA,NA,NA,NA,NA,NA,NA,NA,NA,NA,NA,NA,NA,NA,NA,NA,NA,NA,NA,NA
SUPAMT36184,3AMW0RGHOJ1KSKQA0OD2GCP1AXLNP7,FEA06326-B87B-4F52-A292-104C55670601,2023-09-28_13h07.29.545,WP_VExplicitOC_LH,2022.2.5,Win32,16,51.82291667,4.365,2.08,NA,NA,NA,NA,NA,happy,"unhappy, happy","less happy, more happy",NA,NA,NA,NA,NA,NA,NA,NA,NA,NA,NA,NA,NA,NA,NA,0,1,1,0,1,NA,NA,NA,NA,NA,NA,NA,NA,NA,NA,NA,NA,NA,NA,NA,NA,NA,NA,NA,NA,NA,NA,NA,NA,NA,NA,NA,NA
SUPAMT36184,3AMW0RGHOJ1KSKQA0OD2GCP1AXLNP7,FEA06326-B87B-4F52-A292-104C55670601,2023-09-28_13h07.29.545,WP_VExplicitOC_LH,2022.2.5,Win32,16,83.07291667,4.524,2.099,NA,NA,NA,NA,NA,bored,"bored, not bored","more bored, less bored",NA,NA,NA,NA,NA,NA,NA,NA,NA,NA,NA,NA,NA,NA,NA,0,2,2,2,1,NA,NA,NA,NA,NA,NA,NA,NA,NA,NA,NA,NA,NA,NA,NA,NA,NA,NA,NA,NA,NA,NA,NA,NA,NA,NA,NA,NA
SUPAMT36184,3AMW0RGHOJ1KSKQA0OD2GCP1AXLNP7,FEA06326-B87B-4F52-A292-104C55670601,2023-09-28_13h07.29.545,WP_VExplicitOC_LH,2022.2.5,Win32,16,NA,NA,NA,NA,NA,NA,NA,NA,NA,NA,NA,NA,NA,NA,NA,NA,NA,NA,NA,NA,NA,NA,NA,NA,NA,NA,NA,NA,NA,NA,NA,3,0,3,0,1,NA,NA,NA,NA,NA,NA,NA,NA,NA,NA,NA,NA,NA,NA,NA,NA,NA,NA,NA,NA,NA,NA,NA
SUPAMT36184,3AMW0RGHOJ1KSKQA0OD2GCP1AXLNP7,FEA06326-B87B-4F52-A292-104C55670601,2023-09-28_13h07.29.545,WP_VExplicitOC_LH,2022.2.5,Win32,16,37.76041667,6.933,2.001,NA,NA,NA,NA,NA,happy,"unhappy, happy","less happy, more happy",NA,NA,NA,NA,NA,NA,NA,NA,NA,NA,NA,NA,NA,NA,NA,0,0,0,0,1,NA,NA,NA,NA,NA,NA,NA,NA,NA,NA,NA,NA,NA,NA,NA,NA,NA,NA,NA,NA,NA,NA,NA,NA,NA,NA,NA,NA
SUPAMT36184,3AMW0RGHOJ1KSKQA0OD2GCP1AXLNP7,FEA06326-B87B-4F52-A292-104C55670601,2023-09-28_13h07.29.545,WP_VExplicitOC_LH,2022.2.5,Win32,16,16.92708333,5.774,2.037,NA,NA,NA,NA,NA,frustrated,"frustrated, not frustrated","more frustrated, less frustrated",NA,NA,NA,NA,NA,NA,NA,NA,NA,NA,NA,NA,NA,NA,NA,0,1,1,1,1,NA,NA,NA,NA,NA,NA,NA,NA,NA,NA,NA,NA,NA,NA,NA,NA,NA,NA,NA,NA,NA,NA,NA,NA,NA,NA,NA,NA
SUPAMT36184,3AMW0RGHOJ1KSKQA0OD2GCP1AXLNP7,FEA06326-B87B-4F52-A292-104C55670601,2023-09-28_13h07.29.545,WP_VExplicitOC_LH,2022.2.5,Win32,16,-13.54166667,4.636,2.089,NA,NA,NA,NA,NA,bored,"bored, not bored","more bored, less bored",NA,NA,NA,NA,NA,NA,NA,NA,NA,NA,NA,NA,NA,NA,NA,0,2,2,2,1,NA,NA,NA,NA,NA,NA,NA,NA,NA,NA,NA,NA,NA,NA,NA,NA,NA,NA,NA,NA,NA,NA,NA,NA,NA,NA,NA,NA
SUPAMT36184,3AMW0RGHOJ1KSKQA0OD2GCP1AXLNP7,FEA06326-B87B-4F52-A292-104C55670601,2023-09-28_13h07.29.545,WP_VExplicitOC_LH,2022.2.5,Win32,16,NA,NA,NA,NA,NA,NA,NA,NA,NA,NA,NA,NA,NA,NA,NA,NA,NA,NA,NA,NA,NA,NA,NA,NA,NA,NA,NA,NA,NA,NA,NA,4,0,4,0,1,NA,NA,NA,NA,NA,NA,NA,NA,NA,NA,NA,NA,NA,NA,NA,NA,NA,NA,NA,NA,NA,NA,NA
SUPAMT36184,3AMW0RGHOJ1KSKQA0OD2GCP1AXLNP7,FEA06326-B87B-4F52-A292-104C55670601,2023-09-28_13h07.29.545,WP_VExplicitOC_LH,2022.2.5,Win32,16,36.71875,5.743,2.088,NA,NA,NA,NA,NA,frustrated,"frustrated, not frustrated","more frustrated, less frustrated",NA,NA,NA,NA,NA,NA,NA,NA,NA,NA,NA,NA,NA,NA,NA,0,0,0,1,1,NA,NA,NA,NA,NA,NA,NA,NA,NA,NA,NA,NA,NA,NA,NA,NA,NA,NA,NA,NA,NA,NA,NA,NA,NA,NA,NA,NA
SUPAMT36184,3AMW0RGHOJ1KSKQA0OD2GCP1AXLNP7,FEA06326-B87B-4F52-A292-104C55670601,2023-09-28_13h07.29.545,WP_VExplicitOC_LH,2022.2.5,Win32,16,-23.69791667,4.634,2.015,NA,NA,NA,NA,NA,bored,"bored, not bored","more bored, less bored",NA,NA,NA,NA,NA,NA,NA,NA,NA,NA,NA,NA,NA,NA,NA,0,1,1,2,1,NA,NA,NA,NA,NA,NA,NA,NA,NA,NA,NA,NA,NA,NA,NA,NA,NA,NA,NA,NA,NA,NA,NA,NA,NA,NA,NA,NA
SUPAMT36184,3AMW0RGHOJ1KSKQA0OD2GCP1AXLNP7,FEA06326-B87B-4F52-A292-104C55670601,2023-09-28_13h07.29.545,WP_VExplicitOC_LH,2022.2.5,Win32,16,25.52083333,4.084,2.076,NA,NA,NA,NA,NA,happy,"unhappy, happy","less happy, more happy",NA,NA,NA,NA,NA,NA,NA,NA,NA,NA,NA,NA,NA,NA,NA,0,2,2,0,1,NA,NA,NA,NA,NA,NA,NA,NA,NA,NA,NA,NA,NA,NA,NA,NA,NA,NA,NA,NA,NA,NA,NA,NA,NA,NA,NA,NA
SUPAMT36184,3AMW0RGHOJ1KSKQA0OD2GCP1AXLNP7,FEA06326-B87B-4F52-A292-104C55670601,2023-09-28_13h07.29.545,WP_VExplicitOC_LH,2022.2.5,Win32,16,NA,NA,NA,NA,NA,NA,NA,NA,NA,NA,NA,NA,NA,NA,NA,NA,NA,NA,NA,NA,NA,NA,NA,NA,NA,NA,NA,NA,NA,NA,NA,5,0,5,0,1,NA,NA,NA,NA,NA,NA,NA,NA,NA,NA,NA,NA,NA,NA,NA,NA,NA,NA,NA,NA,NA,NA,NA
SUPAMT36184,3AMW0RGHOJ1KSKQA0OD2GCP1AXLNP7,FEA06326-B87B-4F52-A292-104C55670601,2023-09-28_13h07.29.545,WP_VExplicitOC_LH,2022.2.5,Win32,16,29.16666667,5.104,2.032,NA,NA,NA,NA,NA,bored,"bored, not bored","more bored, less bored",NA,NA,NA,NA,NA,NA,NA,NA,NA,NA,NA,NA,NA,NA,NA,0,0,0,2,1,NA,NA,NA,NA,NA,NA,NA,NA,NA,NA,NA,NA,NA,NA,NA,NA,NA,NA,NA,NA,NA,NA,NA,NA,NA,NA,NA,NA
SUPAMT36184,3AMW0RGHOJ1KSKQA0OD2GCP1AXLNP7,FEA06326-B87B-4F52-A292-104C55670601,2023-09-28_13h07.29.545,WP_VExplicitOC_LH,2022.2.5,Win32,16,16.40625,7.309,2.054,NA,NA,NA,NA,NA,frustrated,"frustrated, not frustrated","more frustrated, less frustrated",NA,NA,NA,NA,NA,NA,NA,NA,NA,NA,NA,NA,NA,NA,NA,0,1,1,1,1,NA,NA,NA,NA,NA,NA,NA,NA,NA,NA,NA,NA,NA,NA,NA,NA,NA,NA,NA,NA,NA,NA,NA,NA,NA,NA,NA,NA
SUPAMT36184,3AMW0RGHOJ1KSKQA0OD2GCP1AXLNP7,FEA06326-B87B-4F52-A292-104C55670601,2023-09-28_13h07.29.545,WP_VExplicitOC_LH,2022.2.5,Win32,16,73.4375,4.51,2.013,NA,NA,NA,NA,NA,happy,"unhappy, happy","less happy, more happy",NA,NA,NA,NA,NA,NA,NA,NA,NA,NA,NA,NA,NA,NA,NA,0,2,2,0,1,NA,NA,NA,NA,NA,NA,NA,NA,NA,NA,NA,NA,NA,NA,NA,NA,NA,NA,NA,NA,NA,NA,NA,NA,NA,NA,NA,NA
SUPAMT36184,3AMW0RGHOJ1KSKQA0OD2GCP1AXLNP7,FEA06326-B87B-4F52-A292-104C55670601,2023-09-28_13h07.29.545,WP_VExplicitOC_LH,2022.2.5,Win32,16,NA,NA,NA,NA,NA,NA,NA,NA,NA,NA,NA,NA,NA,NA,NA,NA,NA,NA,NA,NA,NA,NA,NA,NA,NA,NA,NA,NA,NA,NA,NA,6,0,6,0,1,NA,NA,NA,NA,NA,NA,NA,NA,NA,NA,NA,NA,NA,NA,NA,NA,NA,NA,NA,NA,NA,NA,NA
SUPAMT36184,3AMW0RGHOJ1KSKQA0OD2GCP1AXLNP7,FEA06326-B87B-4F52-A292-104C55670601,2023-09-28_13h07.29.545,WP_VExplicitOC_LH,2022.2.5,Win32,16,30.46875,4.597,2.092,NA,NA,NA,NA,NA,frustrated,"frustrated, not frustrated","more frustrated, less frustrated",NA,NA,NA,NA,NA,NA,NA,NA,NA,NA,NA,NA,NA,NA,NA,0,0,0,1,1,NA,NA,NA,NA,NA,NA,NA,NA,NA,NA,NA,NA,NA,NA,NA,NA,NA,NA,NA,NA,NA,NA,NA,NA,NA,NA,NA,NA
SUPAMT36184,3AMW0RGHOJ1KSKQA0OD2GCP1AXLNP7,FEA06326-B87B-4F52-A292-104C55670601,2023-09-28_13h07.29.545,WP_VExplicitOC_LH,2022.2.5,Win32,16,48.95833333,5.734,2.011,NA,NA,NA,NA,NA,bored,"bored, not bored","more bored, less bored",NA,NA,NA,NA,NA,NA,NA,NA,NA,NA,NA,NA,NA,NA,NA,0,1,1,2,1,NA,NA,NA,NA,NA,NA,NA,NA,NA,NA,NA,NA,NA,NA,NA,NA,NA,NA,NA,NA,NA,NA,NA,NA,NA,NA,NA,NA
SUPAMT36184,3AMW0RGHOJ1KSKQA0OD2GCP1AXLNP7,FEA06326-B87B-4F52-A292-104C55670601,2023-09-28_13h07.29.545,WP_VExplicitOC_LH,2022.2.5,Win32,16,63.80208333,4.662,2.036,NA,NA,NA,NA,NA,happy,"unhappy, happy","less happy, more happy",NA,NA,NA,NA,NA,NA,NA,NA,NA,NA,NA,NA,NA,NA,NA,0,2,2,0,1,NA,NA,NA,NA,NA,NA,NA,NA,NA,NA,NA,NA,NA,NA,NA,NA,NA,NA,NA,NA,NA,NA,NA,NA,NA,NA,NA,NA
SUPAMT36184,3AMW0RGHOJ1KSKQA0OD2GCP1AXLNP7,FEA06326-B87B-4F52-A292-104C55670601,2023-09-28_13h07.29.545,WP_VExplicitOC_LH,2022.2.5,Win32,16,NA,NA,NA,NA,NA,NA,NA,NA,NA,NA,NA,NA,NA,NA,NA,NA,NA,NA,NA,NA,NA,NA,NA,NA,NA,NA,NA,NA,NA,NA,NA,7,0,7,0,1,NA,NA,NA,NA,NA,NA,NA,NA,NA,NA,NA,NA,NA,NA,NA,NA,NA,NA,NA,NA,NA,NA,NA
SUPAMT36184,3AMW0RGHOJ1KSKQA0OD2GCP1AXLNP7,FEA06326-B87B-4F52-A292-104C55670601,2023-09-28_13h07.29.545,WP_VExplicitOC_LH,2022.2.5,Win32,16,59.63541667,5.204,2.092,NA,NA,NA,NA,NA,happy,"unhappy, happy","less happy, more happy",NA,NA,NA,NA,NA,NA,NA,NA,NA,NA,NA,NA,NA,NA,NA,0,0,0,0,1,NA,NA,NA,NA,NA,NA,NA,NA,NA,NA,NA,NA,NA,NA,NA,NA,NA,NA,NA,NA,NA,NA,NA,NA,NA,NA,NA,NA
SUPAMT36184,3AMW0RGHOJ1KSKQA0OD2GCP1AXLNP7,FEA06326-B87B-4F52-A292-104C55670601,2023-09-28_13h07.29.545,WP_VExplicitOC_LH,2022.2.5,Win32,16,-18.22916667,4.485,2.047,NA,NA,NA,NA,NA,frustrated,"frustrated, not frustrated","more frustrated, less frustrated",NA,NA,NA,NA,NA,NA,NA,NA,NA,NA,NA,NA,NA,NA,NA,0,1,1,1,1,NA,NA,NA,NA,NA,NA,NA,NA,NA,NA,NA,NA,NA,NA,NA,NA,NA,NA,NA,NA,NA,NA,NA,NA,NA,NA,NA,NA
SUPAMT36184,3AMW0RGHOJ1KSKQA0OD2GCP1AXLNP7,FEA06326-B87B-4F52-A292-104C55670601,2023-09-28_13h07.29.545,WP_VExplicitOC_LH,2022.2.5,Win32,16,39.58333333,4.485,2.002,NA,NA,NA,NA,NA,bored,"bored, not bored","more bored, less bored",NA,NA,NA,NA,NA,NA,NA,NA,NA,NA,NA,NA,NA,NA,NA,0,2,2,2,1,NA,NA,NA,NA,NA,NA,NA,NA,NA,NA,NA,NA,NA,NA,NA,NA,NA,NA,NA,NA,NA,NA,NA,NA,NA,NA,NA,NA
SUPAMT36184,3AMW0RGHOJ1KSKQA0OD2GCP1AXLNP7,FEA06326-B87B-4F52-A292-104C55670601,2023-09-28_13h07.29.545,WP_VExplicitOC_LH,2022.2.5,Win32,16,NA,NA,NA,NA,NA,NA,NA,NA,NA,NA,NA,NA,NA,NA,NA,NA,NA,NA,NA,NA,NA,NA,NA,NA,NA,NA,NA,NA,NA,NA,NA,8,0,8,0,1,NA,NA,NA,NA,NA,NA,NA,NA,NA,NA,NA,NA,NA,NA,NA,NA,NA,NA,NA,NA,NA,NA,NA
SUPAMT36184,3AMW0RGHOJ1KSKQA0OD2GCP1AXLNP7,FEA06326-B87B-4F52-A292-104C55670601,2023-09-28_13h07.29.545,WP_VExplicitOC_LH,2022.2.5,Win32,16,14.0625,6.258,2.1,NA,NA,NA,NA,NA,bored,"bored, not bored","more bored, less bored",NA,NA,NA,NA,NA,NA,NA,NA,NA,NA,NA,NA,NA,NA,NA,0,0,0,2,1,NA,NA,NA,NA,NA,NA,NA,NA,NA,NA,NA,NA,NA,NA,NA,NA,NA,NA,NA,NA,NA,NA,NA,NA,NA,NA,NA,NA
SUPAMT36184,3AMW0RGHOJ1KSKQA0OD2GCP1AXLNP7,FEA06326-B87B-4F52-A292-104C55670601,2023-09-28_13h07.29.545,WP_VExplicitOC_LH,2022.2.5,Win32,16,67.1875,6.017,2.028,NA,NA,NA,NA,NA,happy,"unhappy, happy","less happy, more happy",NA,NA,NA,NA,NA,NA,NA,NA,NA,NA,NA,NA,NA,NA,NA,0,1,1,0,1,NA,NA,NA,NA,NA,NA,NA,NA,NA,NA,NA,NA,NA,NA,NA,NA,NA,NA,NA,NA,NA,NA,NA,NA,NA,NA,NA,NA
SUPAMT36184,3AMW0RGHOJ1KSKQA0OD2GCP1AXLNP7,FEA06326-B87B-4F52-A292-104C55670601,2023-09-28_13h07.29.545,WP_VExplicitOC_LH,2022.2.5,Win32,16,20.05208333,5.357,2.072,NA,NA,NA,NA,NA,frustrated,"frustrated, not frustrated","more frustrated, less frustrated",NA,NA,NA,NA,NA,NA,NA,NA,NA,NA,NA,NA,NA,NA,NA,0,2,2,1,1,NA,NA,NA,NA,NA,NA,NA,NA,NA,NA,NA,NA,NA,NA,NA,NA,NA,NA,NA,NA,NA,NA,NA,NA,NA,NA,NA,NA
SUPAMT36184,3AMW0RGHOJ1KSKQA0OD2GCP1AXLNP7,FEA06326-B87B-4F52-A292-104C55670601,2023-09-28_13h07.29.545,WP_VExplicitOC_LH,2022.2.5,Win32,16,NA,NA,NA,NA,NA,NA,NA,NA,NA,NA,NA,NA,NA,NA,NA,NA,NA,NA,NA,NA,NA,NA,NA,NA,NA,NA,NA,NA,NA,NA,NA,9,0,9,0,1,NA,NA,NA,NA,NA,NA,NA,NA,NA,NA,NA,NA,NA,NA,NA,NA,NA,NA,NA,NA,NA,NA,NA
SUPAMT36184,3AMW0RGHOJ1KSKQA0OD2GCP1AXLNP7,FEA06326-B87B-4F52-A292-104C55670601,2023-09-28_13h07.29.545,WP_VExplicitOC_LH,2022.2.5,Win32,16,27.60416667,4.168,2.107,NA,NA,NA,NA,NA,frustrated,"frustrated, not frustrated","more frustrated, less frustrated",NA,NA,NA,NA,NA,NA,NA,NA,NA,NA,NA,NA,NA,NA,NA,0,0,0,1,1,NA,NA,NA,NA,NA,NA,NA,NA,NA,NA,NA,NA,NA,NA,NA,NA,NA,NA,NA,NA,NA,NA,NA,NA,NA,NA,NA,NA
SUPAMT36184,3AMW0RGHOJ1KSKQA0OD2GCP1AXLNP7,FEA06326-B87B-4F52-A292-104C55670601,2023-09-28_13h07.29.545,WP_VExplicitOC_LH,2022.2.5,Win32,16,29.42708333,4.784,2.035,NA,NA,NA,NA,NA,bored,"bored, not bored","more bored, less bored",NA,NA,NA,NA,NA,NA,NA,NA,NA,NA,NA,NA,NA,NA,NA,0,1,1,2,1,NA,NA,NA,NA,NA,NA,NA,NA,NA,NA,NA,NA,NA,NA,NA,NA,NA,NA,NA,NA,NA,NA,NA,NA,NA,NA,NA,NA
SUPAMT36184,3AMW0RGHOJ1KSKQA0OD2GCP1AXLNP7,FEA06326-B87B-4F52-A292-104C55670601,2023-09-28_13h07.29.545,WP_VExplicitOC_LH,2022.2.5,Win32,16,74.73958333,4.646,2.086,NA,NA,NA,NA,NA,happy,"unhappy, happy","less happy, more happy",NA,NA,NA,NA,NA,NA,NA,NA,NA,NA,NA,NA,NA,NA,NA,0,2,2,0,1,NA,NA,NA,NA,NA,NA,NA,NA,NA,NA,NA,NA,NA,NA,NA,NA,NA,NA,NA,NA,NA,NA,NA,NA,NA,NA,NA,NA
SUPAMT36184,3AMW0RGHOJ1KSKQA0OD2GCP1AXLNP7,FEA06326-B87B-4F52-A292-104C55670601,2023-09-28_13h07.29.545,WP_VExplicitOC_LH,2022.2.5,Win32,16,NA,NA,NA,NA,NA,NA,NA,NA,NA,NA,NA,NA,NA,NA,NA,NA,NA,NA,NA,NA,NA,NA,NA,NA,NA,NA,NA,NA,NA,NA,NA,10,0,10,0,1,NA,NA,NA,NA,NA,NA,NA,NA,NA,NA,NA,NA,NA,NA,NA,NA,NA,NA,NA,NA,NA,NA,NA
SUPAMT36184,3AMW0RGHOJ1KSKQA0OD2GCP1AXLNP7,FEA06326-B87B-4F52-A292-104C55670601,2023-09-28_13h07.29.545,WP_VExplicitOC_LH,2022.2.5,Win32,16,NA,NA,2.041,NA,NA,NA,NA,NA,bored,"bored, not bored","more bored, less bored",NA,NA,NA,NA,NA,NA,NA,NA,NA,NA,NA,NA,NA,NA,NA,0,0,0,2,1,NA,NA,NA,NA,NA,NA,NA,NA,NA,NA,NA,NA,NA,NA,NA,NA,NA,NA,NA,NA,NA,NA,NA,NA,NA,NA,NA,NA
SUPAMT36184,3AMW0RGHOJ1KSKQA0OD2GCP1AXLNP7,FEA06326-B87B-4F52-A292-104C55670601,2023-09-28_13h07.29.545,WP_VExplicitOC_LH,2022.2.5,Win32,16,63.02083333,5.394,2.062,NA,NA,NA,NA,NA,happy,"unhappy, happy","less happy, more happy",NA,NA,NA,NA,NA,NA,NA,NA,NA,NA,NA,NA,NA,NA,NA,0,1,1,0,1,NA,NA,NA,NA,NA,NA,NA,NA,NA,NA,NA,NA,NA,NA,NA,NA,NA,NA,NA,NA,NA,NA,NA,NA,NA,NA,NA,NA
SUPAMT36184,3AMW0RGHOJ1KSKQA0OD2GCP1AXLNP7,FEA06326-B87B-4F52-A292-104C55670601,2023-09-28_13h07.29.545,WP_VExplicitOC_LH,2022.2.5,Win32,16,20.83333333,4.354,2.011,NA,NA,NA,NA,NA,frustrated,"frustrated, not frustrated","more frustrated, less frustrated",NA,NA,NA,NA,NA,NA,NA,NA,NA,NA,NA,NA,NA,NA,NA,0,2,2,1,1,NA,NA,NA,NA,NA,NA,NA,NA,NA,NA,NA,NA,NA,NA,NA,NA,NA,NA,NA,NA,NA,NA,NA,NA,NA,NA,NA,NA
SUPAMT36184,3AMW0RGHOJ1KSKQA0OD2GCP1AXLNP7,FEA06326-B87B-4F52-A292-104C55670601,2023-09-28_13h07.29.545,WP_VExplicitOC_LH,2022.2.5,Win32,16,NA,NA,NA,NA,NA,NA,NA,NA,NA,NA,NA,NA,NA,NA,NA,NA,NA,NA,NA,NA,NA,NA,NA,NA,NA,NA,NA,NA,NA,NA,NA,11,0,11,0,1,NA,NA,NA,NA,NA,NA,NA,NA,NA,NA,NA,NA,NA,NA,NA,NA,NA,NA,NA,NA,NA,NA,NA
SUPAMT36184,3AMW0RGHOJ1KSKQA0OD2GCP1AXLNP7,FEA06326-B87B-4F52-A292-104C55670601,2023-09-28_13h07.29.545,WP_VExplicitOC_LH,2022.2.5,Win32,16,28.90625,5.218,2.033,NA,NA,NA,NA,NA,bored,"bored, not bored","more bored, less bored",NA,NA,NA,NA,NA,NA,NA,NA,NA,NA,NA,NA,NA,NA,NA,0,0,0,2,1,NA,NA,NA,NA,NA,NA,NA,NA,NA,NA,NA,NA,NA,NA,NA,NA,NA,NA,NA,NA,NA,NA,NA,NA,NA,NA,NA,NA
SUPAMT36184,3AMW0RGHOJ1KSKQA0OD2GCP1AXLNP7,FEA06326-B87B-4F52-A292-104C55670601,2023-09-28_13h07.29.545,WP_VExplicitOC_LH,2022.2.5,Win32,16,28.64583333,5.472,2.055,NA,NA,NA,NA,NA,frustrated,"frustrated, not frustrated","more frustrated, less frustrated",NA,NA,NA,NA,NA,NA,NA,NA,NA,NA,NA,NA,NA,NA,NA,0,1,1,1,1,NA,NA,NA,NA,NA,NA,NA,NA,NA,NA,NA,NA,NA,NA,NA,NA,NA,NA,NA,NA,NA,NA,NA,NA,NA,NA,NA,NA
SUPAMT36184,3AMW0RGHOJ1KSKQA0OD2GCP1AXLNP7,FEA06326-B87B-4F52-A292-104C55670601,2023-09-28_13h07.29.545,WP_VExplicitOC_LH,2022.2.5,Win32,16,82.29166667,4.67,2.086,NA,NA,NA,NA,NA,happy,"unhappy, happy","less happy, more happy",NA,NA,NA,NA,NA,NA,NA,NA,NA,NA,NA,NA,NA,NA,NA,0,2,2,0,1,NA,NA,NA,NA,NA,NA,NA,NA,NA,NA,NA,NA,NA,NA,NA,NA,NA,NA,NA,NA,NA,NA,NA,NA,NA,NA,NA,NA
SUPAMT36184,3AMW0RGHOJ1KSKQA0OD2GCP1AXLNP7,FEA06326-B87B-4F52-A292-104C55670601,2023-09-28_13h07.29.545,WP_VExplicitOC_LH,2022.2.5,Win32,16,NA,NA,NA,NA,NA,NA,NA,NA,NA,NA,NA,NA,NA,NA,NA,NA,NA,NA,NA,NA,NA,NA,NA,NA,NA,NA,NA,NA,NA,NA,NA,12,0,12,0,1,NA,NA,NA,NA,NA,NA,NA,NA,NA,NA,NA,NA,NA,NA,NA,NA,NA,NA,NA,NA,NA,NA,NA
SUPAMT36184,3AMW0RGHOJ1KSKQA0OD2GCP1AXLNP7,FEA06326-B87B-4F52-A292-104C55670601,2023-09-28_13h07.29.545,WP_VExplicitOC_LH,2022.2.5,Win32,16,65.10416667,6.799,2.107,NA,NA,NA,NA,NA,happy,"unhappy, happy","less happy, more happy",NA,NA,NA,NA,NA,NA,NA,NA,NA,NA,NA,NA,NA,NA,NA,0,0,0,0,1,NA,NA,NA,NA,NA,NA,NA,NA,NA,NA,NA,NA,NA,NA,NA,NA,NA,NA,NA,NA,NA,NA,NA,NA,NA,NA,NA,NA
SUPAMT36184,3AMW0RGHOJ1KSKQA0OD2GCP1AXLNP7,FEA06326-B87B-4F52-A292-104C55670601,2023-09-28_13h07.29.545,WP_VExplicitOC_LH,2022.2.5,Win32,16,38.54166667,3.911,2.032,NA,NA,NA,NA,NA,frustrated,"frustrated, not frustrated","more frustrated, less frustrated",NA,NA,NA,NA,NA,NA,NA,NA,NA,NA,NA,NA,NA,NA,NA,0,1,1,1,1,NA,NA,NA,NA,NA,NA,NA,NA,NA,NA,NA,NA,NA,NA,NA,NA,NA,NA,NA,NA,NA,NA,NA,NA,NA,NA,NA,NA
SUPAMT36184,3AMW0RGHOJ1KSKQA0OD2GCP1AXLNP7,FEA06326-B87B-4F52-A292-104C55670601,2023-09-28_13h07.29.545,WP_VExplicitOC_LH,2022.2.5,Win32,16,24.21875,5.943,2.035,NA,NA,NA,NA,NA,bored,"bored, not bored","more bored, less bored",NA,NA,NA,NA,NA,NA,NA,NA,NA,NA,NA,NA,NA,NA,NA,0,2,2,2,1,NA,NA,NA,NA,NA,NA,NA,NA,NA,NA,NA,NA,NA,NA,NA,NA,NA,NA,NA,NA,NA,NA,NA,NA,NA,NA,NA,NA
SUPAMT36184,3AMW0RGHOJ1KSKQA0OD2GCP1AXLNP7,FEA06326-B87B-4F52-A292-104C55670601,2023-09-28_13h07.29.545,WP_VExplicitOC_LH,2022.2.5,Win32,16,NA,NA,NA,NA,NA,NA,NA,NA,NA,NA,NA,NA,NA,NA,NA,NA,NA,NA,NA,NA,NA,NA,NA,NA,NA,NA,NA,NA,NA,NA,NA,13,0,13,0,1,NA,NA,NA,NA,NA,NA,NA,NA,NA,NA,NA,NA,NA,NA,NA,NA,NA,NA,NA,NA,NA,NA,NA
SUPAMT36184,3AMW0RGHOJ1KSKQA0OD2GCP1AXLNP7,FEA06326-B87B-4F52-A292-104C55670601,2023-09-28_13h07.29.545,WP_VExplicitOC_LH,2022.2.5,Win32,16,36.45833333,6.595,2.044,NA,NA,NA,NA,NA,frustrated,"frustrated, not frustrated","more frustrated, less frustrated",NA,NA,NA,NA,NA,NA,NA,NA,NA,NA,NA,NA,NA,NA,NA,0,0,0,1,1,NA,NA,NA,NA,NA,NA,NA,NA,NA,NA,NA,NA,NA,NA,NA,NA,NA,NA,NA,NA,NA,NA,NA,NA,NA,NA,NA,NA
SUPAMT36184,3AMW0RGHOJ1KSKQA0OD2GCP1AXLNP7,FEA06326-B87B-4F52-A292-104C55670601,2023-09-28_13h07.29.545,WP_VExplicitOC_LH,2022.2.5,Win32,16,61.19791667,4.662,2.05,NA,NA,NA,NA,NA,bored,"bored, not bored","more bored, less bored",NA,NA,NA,NA,NA,NA,NA,NA,NA,NA,NA,NA,NA,NA,NA,0,1,1,2,1,NA,NA,NA,NA,NA,NA,NA,NA,NA,NA,NA,NA,NA,NA,NA,NA,NA,NA,NA,NA,NA,NA,NA,NA,NA,NA,NA,NA
SUPAMT36184,3AMW0RGHOJ1KSKQA0OD2GCP1AXLNP7,FEA06326-B87B-4F52-A292-104C55670601,2023-09-28_13h07.29.545,WP_VExplicitOC_LH,2022.2.5,Win32,16,93.48958333,4.572,2.024,NA,NA,NA,NA,NA,happy,"unhappy, happy","less happy, more happy",NA,NA,NA,NA,NA,NA,NA,NA,NA,NA,NA,NA,NA,NA,NA,0,2,2,0,1,NA,NA,NA,NA,NA,NA,NA,NA,NA,NA,NA,NA,NA,NA,NA,NA,NA,NA,NA,NA,NA,NA,NA,NA,NA,NA,NA,NA
SUPAMT36184,3AMW0RGHOJ1KSKQA0OD2GCP1AXLNP7,FEA06326-B87B-4F52-A292-104C55670601,2023-09-28_13h07.29.545,WP_VExplicitOC_LH,2022.2.5,Win32,16,NA,NA,NA,NA,NA,NA,NA,NA,NA,NA,NA,NA,NA,NA,NA,NA,NA,NA,NA,NA,NA,NA,NA,NA,NA,NA,NA,NA,NA,NA,NA,14,0,14,0,1,NA,NA,NA,NA,NA,NA,NA,NA,NA,NA,NA,NA,NA,NA,NA,NA,NA,NA,NA,NA,NA,NA,NA
SUPAMT36184,3AMW0RGHOJ1KSKQA0OD2GCP1AXLNP7,FEA06326-B87B-4F52-A292-104C55670601,2023-09-28_13h07.29.545,WP_VExplicitOC_LH,2022.2.5,Win32,16,NA,NA,NA,NA,NA,NA,NA,NA,NA,NA,NA,NA,NA,NA,NA,NA,NA,NA,NA,NA,NA,NA,NA,NA,NA,NA,NA,NA,NA,NA,NA,NA,NA,NA,NA,NA,NA,NA,NA,NA,NA,NA,NA,NA,NA,NA,NA,NA,NA,NA,NA,NA,NA,NA,NA,NA,NA,NA,NA
SUPAMT36184,3AMW0RGHOJ1KSKQA0OD2GCP1AXLNP7,FEA06326-B87B-4F52-A292-104C55670601,2023-09-28_13h07.29.545,WP_VExplicitOC_LH,2022.2.5,Win32,16,NA,NA,NA,NA,NA,NA,NA,NA,NA,NA,NA,NA,NA,NA,NA,NA,NA,NA,NA,NA,NA,NA,NA,NA,NA,NA,NA,NA,NA,NA,NA,NA,NA,NA,NA,NA,NA,NA,NA,NA,NA,NA,NA,NA,NA,NA,NA,NA,NA,NA,NA,NA,NA,NA,NA,NA,NA,NA,NA
SUPAMT36184,3AMW0RGHOJ1KSKQA0OD2GCP1AXLNP7,FEA06326-B87B-4F52-A292-104C55670601,2023-09-28_13h07.29.545,WP_VExplicitOC_LH,2022.2.5,Win32,16,NA,NA,NA,NA,NA,NA,NA,NA,NA,NA,NA,NA,NA,NA,NA,NA,NA,NA,rest (looking at a fixed cross),001.png,NA,NA,NA,NA,NA,NA,NA,NA,NA,NA,NA,NA,NA,NA,NA,NA,NA,NA,0,0,0,0,1,NA,NA,NA,NA,NA,NA,NA,NA,NA,NA,NA,NA,NA,NA,NA,NA
SUPAMT36184,3AMW0RGHOJ1KSKQA0OD2GCP1AXLNP7,FEA06326-B87B-4F52-A292-104C55670601,2023-09-28_13h07.29.545,WP_VExplicitOC_LH,2022.2.5,Win32,16,NA,NA,NA,NA,NA,NA,NA,NA,NA,NA,NA,NA,NA,NA,NA,NA,NA,NA,stand up,002.png,NA,NA,NA,NA,NA,NA,NA,NA,NA,NA,NA,NA,NA,NA,NA,NA,NA,NA,0,1,1,1,1,NA,NA,NA,NA,NA,NA,NA,NA,NA,NA,NA,NA,NA,NA,NA,NA
SUPAMT36184,3AMW0RGHOJ1KSKQA0OD2GCP1AXLNP7,FEA06326-B87B-4F52-A292-104C55670601,2023-09-28_13h07.29.545,WP_VExplicitOC_LH,2022.2.5,Win32,16,NA,NA,NA,NA,NA,NA,NA,NA,NA,NA,NA,NA,NA,NA,NA,NA,NA,NA,stretch,003.png,NA,NA,NA,NA,NA,NA,NA,NA,NA,NA,NA,NA,NA,NA,NA,NA,-27.86458333,3.744,0,2,2,2,1,NA,NA,NA,NA,NA,NA,NA,NA,NA,NA,NA,NA,NA,NA,NA,NA
SUPAMT36184,3AMW0RGHOJ1KSKQA0OD2GCP1AXLNP7,FEA06326-B87B-4F52-A292-104C55670601,2023-09-28_13h07.29.545,WP_VExplicitOC_LH,2022.2.5,Win32,16,NA,NA,NA,NA,NA,NA,NA,NA,NA,NA,NA,NA,NA,NA,NA,NA,NA,NA,make a drink,004.png,NA,NA,NA,NA,NA,NA,NA,NA,NA,NA,NA,NA,NA,NA,NA,NA,48.17708333,3.711,0,3,3,3,1,NA,NA,NA,NA,NA,NA,NA,NA,NA,NA,NA,NA,NA,NA,NA,NA
SUPAMT36184,3AMW0RGHOJ1KSKQA0OD2GCP1AXLNP7,FEA06326-B87B-4F52-A292-104C55670601,2023-09-28_13h07.29.545,WP_VExplicitOC_LH,2022.2.5,Win32,16,NA,NA,NA,NA,NA,NA,NA,NA,NA,NA,NA,NA,NA,NA,NA,NA,NA,NA,scroll social media,005.png,NA,NA,NA,NA,NA,NA,NA,NA,NA,NA,NA,NA,NA,NA,NA,NA,55.20833333,3.764,0,4,4,4,1,NA,NA,NA,NA,NA,NA,NA,NA,NA,NA,NA,NA,NA,NA,NA,NA
SUPAMT36184,3AMW0RGHOJ1KSKQA0OD2GCP1AXLNP7,FEA06326-B87B-4F52-A292-104C55670601,2023-09-28_13h07.29.545,WP_VExplicitOC_LH,2022.2.5,Win32,16,NA,NA,NA,NA,NA,NA,NA,NA,NA,NA,NA,NA,NA,NA,NA,NA,NA,NA,listen to music,006.png,NA,NA,NA,NA,NA,NA,NA,NA,NA,NA,NA,NA,NA,NA,NA,NA,36.71875,3.475,0,5,5,5,1,NA,NA,NA,NA,NA,NA,NA,NA,NA,NA,NA,NA,NA,NA,NA,NA
SUPAMT36184,3AMW0RGHOJ1KSKQA0OD2GCP1AXLNP7,FEA06326-B87B-4F52-A292-104C55670601,2023-09-28_13h07.29.545,WP_VExplicitOC_LH,2022.2.5,Win32,16,NA,NA,NA,NA,NA,NA,NA,NA,NA,NA,NA,NA,NA,NA,NA,NA,NA,NA,daydream,007.png,NA,NA,NA,NA,NA,NA,NA,NA,NA,NA,NA,NA,NA,NA,NA,NA,66.92708333,3.57,0,6,6,6,1,NA,NA,NA,NA,NA,NA,NA,NA,NA,NA,NA,NA,NA,NA,NA,NA
SUPAMT36184,3AMW0RGHOJ1KSKQA0OD2GCP1AXLNP7,FEA06326-B87B-4F52-A292-104C55670601,2023-09-28_13h07.29.545,WP_VExplicitOC_LH,2022.2.5,Win32,16,NA,NA,NA,NA,NA,NA,NA,NA,NA,NA,NA,NA,NA,NA,NA,NA,NA,NA,watch a short animation,008.png,NA,NA,NA,NA,NA,NA,NA,NA,NA,NA,NA,NA,NA,NA,NA,NA,30.46875,3.24,0,7,7,7,1,NA,NA,NA,NA,NA,NA,NA,NA,NA,NA,NA,NA,NA,NA,NA,NA
SUPAMT36184,3AMW0RGHOJ1KSKQA0OD2GCP1AXLNP7,FEA06326-B87B-4F52-A292-104C55670601,2023-09-28_13h07.29.545,WP_VExplicitOC_LH,2022.2.5,Win32,16,NA,NA,NA,NA,NA,NA,NA,NA,NA,NA,NA,NA,NA,NA,NA,NA,NA,NA,read a novel,009.png,NA,NA,NA,NA,NA,NA,NA,NA,NA,NA,NA,NA,NA,NA,NA,NA,-21.09375,4.765,0,8,8,8,1,NA,NA,NA,NA,NA,NA,NA,NA,NA,NA,NA,NA,NA,NA,NA,NA
SUPAMT36184,3AMW0RGHOJ1KSKQA0OD2GCP1AXLNP7,FEA06326-B87B-4F52-A292-104C55670601,2023-09-28_13h07.29.545,WP_VExplicitOC_LH,2022.2.5,Win32,16,NA,NA,NA,NA,NA,NA,NA,NA,NA,NA,NA,NA,NA,NA,NA,NA,NA,NA,read the news,010.png,NA,NA,NA,NA,NA,NA,NA,NA,NA,NA,NA,NA,NA,NA,NA,NA,23.4375,2.707,0,9,9,9,1,NA,NA,NA,NA,NA,NA,NA,NA,NA,NA,NA,NA,NA,NA,NA,NA
SUPAMT36184,3AMW0RGHOJ1KSKQA0OD2GCP1AXLNP7,FEA06326-B87B-4F52-A292-104C55670601,2023-09-28_13h07.29.545,WP_VExplicitOC_LH,2022.2.5,Win32,16,NA,NA,NA,NA,NA,NA,NA,NA,NA,NA,NA,NA,NA,NA,NA,NA,NA,NA,NA,NA,NA,NA,NA,NA,NA,NA,NA,NA,NA,NA,NA,NA,NA,NA,NA,NA,NA,NA,NA,NA,NA,NA,NA,scroll social media,NA,NA,NA,NA,NA,NA,NA,NA,NA,NA,NA,NA,NA,NA,NA
SUPAMT36184,3AMW0RGHOJ1KSKQA0OD2GCP1AXLNP7,FEA06326-B87B-4F52-A292-104C55670601,2023-09-28_13h07.29.545,WP_VExplicitOC_LH,2022.2.5,Win32,16,NA,NA,2.084,NA,NA,NA,NA,NA,bored,"bored, not bored","more bored, less bored",NA,NA,NA,NA,NA,NA,NA,NA,NA,NA,NA,NA,NA,NA,NA,NA,NA,NA,NA,NA,NA,NA,NA,NA,NA,NA,NA,NA,NA,NA,NA,NA,NA,0,0,0,2,1,NA,NA,NA,NA,NA,NA,NA,NA,NA,NA
SUPAMT36184,3AMW0RGHOJ1KSKQA0OD2GCP1AXLNP7,FEA06326-B87B-4F52-A292-104C55670601,2023-09-28_13h07.29.545,WP_VExplicitOC_LH,2022.2.5,Win32,16,50.52083333,6.628,2.104,NA,NA,NA,NA,NA,frustrated,"frustrated, not frustrated","more frustrated, less frustrated",NA,NA,NA,NA,NA,NA,NA,NA,NA,NA,NA,NA,NA,NA,NA,NA,NA,NA,NA,NA,NA,NA,NA,NA,NA,NA,NA,NA,NA,NA,NA,NA,NA,0,1,1,1,1,NA,NA,NA,NA,NA,NA,NA,NA,NA,NA
SUPAMT36184,3AMW0RGHOJ1KSKQA0OD2GCP1AXLNP7,FEA06326-B87B-4F52-A292-104C55670601,2023-09-28_13h07.29.545,WP_VExplicitOC_LH,2022.2.5,Win32,16,88.54166667,5.903,2.001,NA,NA,NA,NA,NA,happy,"unhappy, happy","less happy, more happy",NA,NA,NA,NA,NA,NA,NA,NA,NA,NA,NA,NA,NA,NA,NA,NA,NA,NA,NA,NA,NA,NA,NA,NA,NA,NA,NA,NA,NA,NA,NA,NA,NA,0,2,2,0,1,NA,NA,NA,NA,NA,NA,NA,NA,NA,NA
SUPAMT36184,3AMW0RGHOJ1KSKQA0OD2GCP1AXLNP7,FEA06326-B87B-4F52-A292-104C55670601,2023-09-28_13h07.29.545,WP_VExplicitOC_LH,2022.2.5,Win32,16,NA,NA,NA,NA,NA,NA,NA,NA,NA,NA,NA,NA,NA,NA,NA,NA,NA,NA,NA,NA,NA,NA,NA,NA,NA,NA,NA,NA,NA,NA,NA,NA,NA,NA,NA,NA,NA,NA,NA,NA,NA,NA,NA,NA,NA,NA,NA,NA,NA,NA,NA,NA,NA,NA,NA,NA,NA,NA,NA
SUPAMT36184,3AMW0RGHOJ1KSKQA0OD2GCP1AXLNP7,FEA06326-B87B-4F52-A292-104C55670601,2023-09-28_13h07.29.545,WP_VExplicitOC_LH,2022.2.5,Win32,16,NA,NA,NA,NA,NA,NA,NA,NA,NA,NA,NA,NA,NA,NA,NA,NA,NA,NA,NA,NA,NA,NA,NA,NA,NA,NA,NA,NA,NA,NA,NA,NA,NA,NA,NA,NA,NA,NA,NA,NA,NA,NA,NA,NA,NA,NA,NA,NA,NA,NA,NA,NA,NA,NA,NA,NA,NA,NA,NA
SUPAMT36184,3AMW0RGHOJ1KSKQA0OD2GCP1AXLNP7,FEA06326-B87B-4F52-A292-104C55670601,2023-09-28_13h07.29.545,WP_VExplicitOC_LH,2022.2.5,Win32,16,42.70833333,4.821,2.084,NA,NA,NA,NA,NA,bored,"bored, not bored","more bored, less bored",NA,NA,NA,NA,NA,NA,NA,NA,NA,NA,NA,NA,NA,NA,NA,NA,NA,NA,NA,NA,NA,NA,NA,NA,NA,NA,NA,NA,NA,NA,NA,NA,NA,NA,NA,NA,NA,NA,0,0,0,2,1,NA,NA,NA,NA,NA
SUPAMT36184,3AMW0RGHOJ1KSKQA0OD2GCP1AXLNP7,FEA06326-B87B-4F52-A292-104C55670601,2023-09-28_13h07.29.545,WP_VExplicitOC_LH,2022.2.5,Win32,16,75.26041667,4.452,2.092,NA,NA,NA,NA,NA,frustrated,"frustrated, not frustrated","more frustrated, less frustrated",NA,NA,NA,NA,NA,NA,NA,NA,NA,NA,NA,NA,NA,NA,NA,NA,NA,NA,NA,NA,NA,NA,NA,NA,NA,NA,NA,NA,NA,NA,NA,NA,NA,NA,NA,NA,NA,NA,0,1,1,1,1,NA,NA,NA,NA,NA
SUPAMT36184,3AMW0RGHOJ1KSKQA0OD2GCP1AXLNP7,FEA06326-B87B-4F52-A292-104C55670601,2023-09-28_13h07.29.545,WP_VExplicitOC_LH,2022.2.5,Win32,16,94.79166667,5.22,2.057,NA,NA,NA,NA,NA,happy,"unhappy, happy","less happy, more happy",NA,NA,NA,NA,NA,NA,NA,NA,NA,NA,NA,NA,NA,NA,NA,NA,NA,NA,NA,NA,NA,NA,NA,NA,NA,NA,NA,NA,NA,NA,NA,NA,NA,NA,NA,NA,NA,NA,0,2,2,0,1,NA,NA,NA,NA,NA
SUPAMT36184,3AMW0RGHOJ1KSKQA0OD2GCP1AXLNP7,FEA06326-B87B-4F52-A292-104C55670601,2023-09-28_13h07.29.545,WP_VExplicitOC_LH,2022.2.5,Win32,16,NA,NA,NA,NA,NA,NA,NA,NA,NA,NA,NA,NA,NA,NA,NA,NA,NA,NA,NA,NA,NA,NA,NA,NA,NA,NA,NA,NA,NA,NA,NA,NA,NA,NA,NA,NA,NA,NA,NA,NA,NA,NA,NA,NA,NA,NA,NA,NA,NA,NA,NA,NA,NA,NA,0,0,0,0,1
SUPAMT36184,3AMW0RGHOJ1KSKQA0OD2GCP1AXLNP7,FEA06326-B87B-4F52-A292-104C55670601,2023-09-28_13h07.29.545,WP_VExplicitOC_LH,2022.2.5,Win32,16,43.22916667,3.758,2.005,NA,NA,NA,NA,NA,happy,"unhappy, happy","less happy, more happy",NA,NA,NA,NA,NA,NA,NA,NA,NA,NA,NA,NA,NA,NA,NA,NA,NA,NA,NA,NA,NA,NA,NA,NA,NA,NA,NA,NA,NA,NA,NA,NA,NA,NA,NA,NA,NA,NA,0,0,0,0,1,NA,NA,NA,NA,NA
SUPAMT36184,3AMW0RGHOJ1KSKQA0OD2GCP1AXLNP7,FEA06326-B87B-4F52-A292-104C55670601,2023-09-28_13h07.29.545,WP_VExplicitOC_LH,2022.2.5,Win32,16,35.9375,4.136,2.04,NA,NA,NA,NA,NA,frustrated,"frustrated, not frustrated","more frustrated, less frustrated",NA,NA,NA,NA,NA,NA,NA,NA,NA,NA,NA,NA,NA,NA,NA,NA,NA,NA,NA,NA,NA,NA,NA,NA,NA,NA,NA,NA,NA,NA,NA,NA,NA,NA,NA,NA,NA,NA,0,1,1,1,1,NA,NA,NA,NA,NA
SUPAMT36184,3AMW0RGHOJ1KSKQA0OD2GCP1AXLNP7,FEA06326-B87B-4F52-A292-104C55670601,2023-09-28_13h07.29.545,WP_VExplicitOC_LH,2022.2.5,Win32,16,56.51041667,4.584,2.05,NA,NA,NA,NA,NA,bored,"bored, not bored","more bored, less bored",NA,NA,NA,NA,NA,NA,NA,NA,NA,NA,NA,NA,NA,NA,NA,NA,NA,NA,NA,NA,NA,NA,NA,NA,NA,NA,NA,NA,NA,NA,NA,NA,NA,NA,NA,NA,NA,NA,0,2,2,2,1,NA,NA,NA,NA,NA
SUPAMT36184,3AMW0RGHOJ1KSKQA0OD2GCP1AXLNP7,FEA06326-B87B-4F52-A292-104C55670601,2023-09-28_13h07.29.545,WP_VExplicitOC_LH,2022.2.5,Win32,16,NA,NA,NA,NA,NA,NA,NA,NA,NA,NA,NA,NA,NA,NA,NA,NA,NA,NA,NA,NA,NA,NA,NA,NA,NA,NA,NA,NA,NA,NA,NA,NA,NA,NA,NA,NA,NA,NA,NA,NA,NA,NA,NA,NA,NA,NA,NA,NA,NA,NA,NA,NA,NA,NA,1,0,1,0,1
SUPAMT36184,3AMW0RGHOJ1KSKQA0OD2GCP1AXLNP7,FEA06326-B87B-4F52-A292-104C55670601,2023-09-28_13h07.29.545,WP_VExplicitOC_LH,2022.2.5,Win32,16,38.80208333,6.363,2,NA,NA,NA,NA,NA,bored,"bored, not bored","more bored, less bored",NA,NA,NA,NA,NA,NA,NA,NA,NA,NA,NA,NA,NA,NA,NA,NA,NA,NA,NA,NA,NA,NA,NA,NA,NA,NA,NA,NA,NA,NA,NA,NA,NA,NA,NA,NA,NA,NA,0,0,0,2,1,NA,NA,NA,NA,NA
SUPAMT36184,3AMW0RGHOJ1KSKQA0OD2GCP1AXLNP7,FEA06326-B87B-4F52-A292-104C55670601,2023-09-28_13h07.29.545,WP_VExplicitOC_LH,2022.2.5,Win32,16,27.60416667,4.268,2.097,NA,NA,NA,NA,NA,frustrated,"frustrated, not frustrated","more frustrated, less frustrated",NA,NA,NA,NA,NA,NA,NA,NA,NA,NA,NA,NA,NA,NA,NA,NA,NA,NA,NA,NA,NA,NA,NA,NA,NA,NA,NA,NA,NA,NA,NA,NA,NA,NA,NA,NA,NA,NA,0,1,1,1,1,NA,NA,NA,NA,NA
SUPAMT36184,3AMW0RGHOJ1KSKQA0OD2GCP1AXLNP7,FEA06326-B87B-4F52-A292-104C55670601,2023-09-28_13h07.29.545,WP_VExplicitOC_LH,2022.2.5,Win32,16,53.90625,3.963,2.026,NA,NA,NA,NA,NA,happy,"unhappy, happy","less happy, more happy",NA,NA,NA,NA,NA,NA,NA,NA,NA,NA,NA,NA,NA,NA,NA,NA,NA,NA,NA,NA,NA,NA,NA,NA,NA,NA,NA,NA,NA,NA,NA,NA,NA,NA,NA,NA,NA,NA,0,2,2,0,1,NA,NA,NA,NA,NA
SUPAMT36184,3AMW0RGHOJ1KSKQA0OD2GCP1AXLNP7,FEA06326-B87B-4F52-A292-104C55670601,2023-09-28_13h07.29.545,WP_VExplicitOC_LH,2022.2.5,Win32,16,NA,NA,NA,NA,NA,NA,NA,NA,NA,NA,NA,NA,NA,NA,NA,NA,NA,NA,NA,NA,NA,NA,NA,NA,NA,NA,NA,NA,NA,NA,NA,NA,NA,NA,NA,NA,NA,NA,NA,NA,NA,NA,NA,NA,NA,NA,NA,NA,NA,NA,NA,NA,NA,NA,2,0,2,0,1
SUPAMT36184,3AMW0RGHOJ1KSKQA0OD2GCP1AXLNP7,FEA06326-B87B-4F52-A292-104C55670601,2023-09-28_13h07.29.545,WP_VExplicitOC_LH,2022.2.5,Win32,16,78.125,6.401,2.014,NA,NA,NA,NA,NA,happy,"unhappy, happy","less happy, more happy",NA,NA,NA,NA,NA,NA,NA,NA,NA,NA,NA,NA,NA,NA,NA,NA,NA,NA,NA,NA,NA,NA,NA,NA,NA,NA,NA,NA,NA,NA,NA,NA,NA,NA,NA,NA,NA,NA,0,0,0,0,1,NA,NA,NA,NA,NA
SUPAMT36184,3AMW0RGHOJ1KSKQA0OD2GCP1AXLNP7,FEA06326-B87B-4F52-A292-104C55670601,2023-09-28_13h07.29.545,WP_VExplicitOC_LH,2022.2.5,Win32,16,46.09375,4.632,2.096,NA,NA,NA,NA,NA,frustrated,"frustrated, not frustrated","more frustrated, less frustrated",NA,NA,NA,NA,NA,NA,NA,NA,NA,NA,NA,NA,NA,NA,NA,NA,NA,NA,NA,NA,NA,NA,NA,NA,NA,NA,NA,NA,NA,NA,NA,NA,NA,NA,NA,NA,NA,NA,0,1,1,1,1,NA,NA,NA,NA,NA
SUPAMT36184,3AMW0RGHOJ1KSKQA0OD2GCP1AXLNP7,FEA06326-B87B-4F52-A292-104C55670601,2023-09-28_13h07.29.545,WP_VExplicitOC_LH,2022.2.5,Win32,16,49.73958333,4.474,2.074,NA,NA,NA,NA,NA,bored,"bored, not bored","more bored, less bored",NA,NA,NA,NA,NA,NA,NA,NA,NA,NA,NA,NA,NA,NA,NA,NA,NA,NA,NA,NA,NA,NA,NA,NA,NA,NA,NA,NA,NA,NA,NA,NA,NA,NA,NA,NA,NA,NA,0,2,2,2,1,NA,NA,NA,NA,NA
SUPAMT36184,3AMW0RGHOJ1KSKQA0OD2GCP1AXLNP7,FEA06326-B87B-4F52-A292-104C55670601,2023-09-28_13h07.29.545,WP_VExplicitOC_LH,2022.2.5,Win32,16,NA,NA,NA,NA,NA,NA,NA,NA,NA,NA,NA,NA,NA,NA,NA,NA,NA,NA,NA,NA,NA,NA,NA,NA,NA,NA,NA,NA,NA,NA,NA,NA,NA,NA,NA,NA,NA,NA,NA,NA,NA,NA,NA,NA,NA,NA,NA,NA,NA,NA,NA,NA,NA,NA,3,0,3,0,1
SUPAMT36184,3AMW0RGHOJ1KSKQA0OD2GCP1AXLNP7,FEA06326-B87B-4F52-A292-104C55670601,2023-09-28_13h07.29.545,WP_VExplicitOC_LH,2022.2.5,Win32,16,48.4375,4.526,2.085,NA,NA,NA,NA,NA,happy,"unhappy, happy","less happy, more happy",NA,NA,NA,NA,NA,NA,NA,NA,NA,NA,NA,NA,NA,NA,NA,NA,NA,NA,NA,NA,NA,NA,NA,NA,NA,NA,NA,NA,NA,NA,NA,NA,NA,NA,NA,NA,NA,NA,0,0,0,0,1,NA,NA,NA,NA,NA
SUPAMT36184,3AMW0RGHOJ1KSKQA0OD2GCP1AXLNP7,FEA06326-B87B-4F52-A292-104C55670601,2023-09-28_13h07.29.545,WP_VExplicitOC_LH,2022.2.5,Win32,16,22.91666667,5.139,2.048,NA,NA,NA,NA,NA,frustrated,"frustrated, not frustrated","more frustrated, less frustrated",NA,NA,NA,NA,NA,NA,NA,NA,NA,NA,NA,NA,NA,NA,NA,NA,NA,NA,NA,NA,NA,NA,NA,NA,NA,NA,NA,NA,NA,NA,NA,NA,NA,NA,NA,NA,NA,NA,0,1,1,1,1,NA,NA,NA,NA,NA
SUPAMT36184,3AMW0RGHOJ1KSKQA0OD2GCP1AXLNP7,FEA06326-B87B-4F52-A292-104C55670601,2023-09-28_13h07.29.545,WP_VExplicitOC_LH,2022.2.5,Win32,16,-22.65625,5.047,2.082,NA,NA,NA,NA,NA,bored,"bored, not bored","more bored, less bored",NA,NA,NA,NA,NA,NA,NA,NA,NA,NA,NA,NA,NA,NA,NA,NA,NA,NA,NA,NA,NA,NA,NA,NA,NA,NA,NA,NA,NA,NA,NA,NA,NA,NA,NA,NA,NA,NA,0,2,2,2,1,NA,NA,NA,NA,NA
SUPAMT36184,3AMW0RGHOJ1KSKQA0OD2GCP1AXLNP7,FEA06326-B87B-4F52-A292-104C55670601,2023-09-28_13h07.29.545,WP_VExplicitOC_LH,2022.2.5,Win32,16,NA,NA,NA,NA,NA,NA,NA,NA,NA,NA,NA,NA,NA,NA,NA,NA,NA,NA,NA,NA,NA,NA,NA,NA,NA,NA,NA,NA,NA,NA,NA,NA,NA,NA,NA,NA,NA,NA,NA,NA,NA,NA,NA,NA,NA,NA,NA,NA,NA,NA,NA,NA,NA,NA,4,0,4,0,1
SUPAMT36184,3AMW0RGHOJ1KSKQA0OD2GCP1AXLNP7,FEA06326-B87B-4F52-A292-104C55670601,2023-09-28_13h07.29.545,WP_VExplicitOC_LH,2022.2.5,Win32,16,17.96875,4.575,2.022,NA,NA,NA,NA,NA,frustrated,"frustrated, not frustrated","more frustrated, less frustrated",NA,NA,NA,NA,NA,NA,NA,NA,NA,NA,NA,NA,NA,NA,NA,NA,NA,NA,NA,NA,NA,NA,NA,NA,NA,NA,NA,NA,NA,NA,NA,NA,NA,NA,NA,NA,NA,NA,0,0,0,1,1,NA,NA,NA,NA,NA
SUPAMT36184,3AMW0RGHOJ1KSKQA0OD2GCP1AXLNP7,FEA06326-B87B-4F52-A292-104C55670601,2023-09-28_13h07.29.545,WP_VExplicitOC_LH,2022.2.5,Win32,16,-19.79166667,4.682,2.07,NA,NA,NA,NA,NA,bored,"bored, not bored","more bored, less bored",NA,NA,NA,NA,NA,NA,NA,NA,NA,NA,NA,NA,NA,NA,NA,NA,NA,NA,NA,NA,NA,NA,NA,NA,NA,NA,NA,NA,NA,NA,NA,NA,NA,NA,NA,NA,NA,NA,0,1,1,2,1,NA,NA,NA,NA,NA
SUPAMT36184,3AMW0RGHOJ1KSKQA0OD2GCP1AXLNP7,FEA06326-B87B-4F52-A292-104C55670601,2023-09-28_13h07.29.545,WP_VExplicitOC_LH,2022.2.5,Win32,16,35.41666667,4.403,2.009,NA,NA,NA,NA,NA,happy,"unhappy, happy","less happy, more happy",NA,NA,NA,NA,NA,NA,NA,NA,NA,NA,NA,NA,NA,NA,NA,NA,NA,NA,NA,NA,NA,NA,NA,NA,NA,NA,NA,NA,NA,NA,NA,NA,NA,NA,NA,NA,NA,NA,0,2,2,0,1,NA,NA,NA,NA,NA
SUPAMT36184,3AMW0RGHOJ1KSKQA0OD2GCP1AXLNP7,FEA06326-B87B-4F52-A292-104C55670601,2023-09-28_13h07.29.545,WP_VExplicitOC_LH,2022.2.5,Win32,16,NA,NA,NA,NA,NA,NA,NA,NA,NA,NA,NA,NA,NA,NA,NA,NA,NA,NA,NA,NA,NA,NA,NA,NA,NA,NA,NA,NA,NA,NA,NA,NA,NA,NA,NA,NA,NA,NA,NA,NA,NA,NA,NA,NA,NA,NA,NA,NA,NA,NA,NA,NA,NA,NA,5,0,5,0,1
SUPAMT36184,3AMW0RGHOJ1KSKQA0OD2GCP1AXLNP7,FEA06326-B87B-4F52-A292-104C55670601,2023-09-28_13h07.29.545,WP_VExplicitOC_LH,2022.2.5,Win32,16,-19.27083333,4.705,2.049,NA,NA,NA,NA,NA,bored,"bored, not bored","more bored, less bored",NA,NA,NA,NA,NA,NA,NA,NA,NA,NA,NA,NA,NA,NA,NA,NA,NA,NA,NA,NA,NA,NA,NA,NA,NA,NA,NA,NA,NA,NA,NA,NA,NA,NA,NA,NA,NA,NA,0,0,0,2,1,NA,NA,NA,NA,NA
SUPAMT36184,3AMW0RGHOJ1KSKQA0OD2GCP1AXLNP7,FEA06326-B87B-4F52-A292-104C55670601,2023-09-28_13h07.29.545,WP_VExplicitOC_LH,2022.2.5,Win32,16,14.32291667,4.677,2.042,NA,NA,NA,NA,NA,frustrated,"frustrated, not frustrated","more frustrated, less frustrated",NA,NA,NA,NA,NA,NA,NA,NA,NA,NA,NA,NA,NA,NA,NA,NA,NA,NA,NA,NA,NA,NA,NA,NA,NA,NA,NA,NA,NA,NA,NA,NA,NA,NA,NA,NA,NA,NA,0,1,1,1,1,NA,NA,NA,NA,NA
SUPAMT36184,3AMW0RGHOJ1KSKQA0OD2GCP1AXLNP7,FEA06326-B87B-4F52-A292-104C55670601,2023-09-28_13h07.29.545,WP_VExplicitOC_LH,2022.2.5,Win32,16,51.04166667,4.446,2.011,NA,NA,NA,NA,NA,happy,"unhappy, happy","less happy, more happy",NA,NA,NA,NA,NA,NA,NA,NA,NA,NA,NA,NA,NA,NA,NA,NA,NA,NA,NA,NA,NA,NA,NA,NA,NA,NA,NA,NA,NA,NA,NA,NA,NA,NA,NA,NA,NA,NA,0,2,2,0,1,NA,NA,NA,NA,NA
SUPAMT36184,3AMW0RGHOJ1KSKQA0OD2GCP1AXLNP7,FEA06326-B87B-4F52-A292-104C55670601,2023-09-28_13h07.29.545,WP_VExplicitOC_LH,2022.2.5,Win32,16,NA,NA,NA,NA,NA,NA,NA,NA,NA,NA,NA,NA,NA,NA,NA,NA,NA,NA,NA,NA,NA,NA,NA,NA,NA,NA,NA,NA,NA,NA,NA,NA,NA,NA,NA,NA,NA,NA,NA,NA,NA,NA,NA,NA,NA,NA,NA,NA,NA,NA,NA,NA,NA,NA,6,0,6,0,1
SUPAMT36184,3AMW0RGHOJ1KSKQA0OD2GCP1AXLNP7,FEA06326-B87B-4F52-A292-104C55670601,2023-09-28_13h07.29.545,WP_VExplicitOC_LH,2022.2.5,Win32,16,-11.19791667,4.444,2.098,NA,NA,NA,NA,NA,bored,"bored, not bored","more bored, less bored",NA,NA,NA,NA,NA,NA,NA,NA,NA,NA,NA,NA,NA,NA,NA,NA,NA,NA,NA,NA,NA,NA,NA,NA,NA,NA,NA,NA,NA,NA,NA,NA,NA,NA,NA,NA,NA,NA,0,0,0,2,1,NA,NA,NA,NA,NA
SUPAMT36184,3AMW0RGHOJ1KSKQA0OD2GCP1AXLNP7,FEA06326-B87B-4F52-A292-104C55670601,2023-09-28_13h07.29.545,WP_VExplicitOC_LH,2022.2.5,Win32,16,57.03125,4.871,2.019,NA,NA,NA,NA,NA,happy,"unhappy, happy","less happy, more happy",NA,NA,NA,NA,NA,NA,NA,NA,NA,NA,NA,NA,NA,NA,NA,NA,NA,NA,NA,NA,NA,NA,NA,NA,NA,NA,NA,NA,NA,NA,NA,NA,NA,NA,NA,NA,NA,NA,0,1,1,0,1,NA,NA,NA,NA,NA
SUPAMT36184,3AMW0RGHOJ1KSKQA0OD2GCP1AXLNP7,FEA06326-B87B-4F52-A292-104C55670601,2023-09-28_13h07.29.545,WP_VExplicitOC_LH,2022.2.5,Win32,16,29.16666667,4.366,2.008,NA,NA,NA,NA,NA,frustrated,"frustrated, not frustrated","more frustrated, less frustrated",NA,NA,NA,NA,NA,NA,NA,NA,NA,NA,NA,NA,NA,NA,NA,NA,NA,NA,NA,NA,NA,NA,NA,NA,NA,NA,NA,NA,NA,NA,NA,NA,NA,NA,NA,NA,NA,NA,0,2,2,1,1,NA,NA,NA,NA,NA
SUPAMT36184,3AMW0RGHOJ1KSKQA0OD2GCP1AXLNP7,FEA06326-B87B-4F52-A292-104C55670601,2023-09-28_13h07.29.545,WP_VExplicitOC_LH,2022.2.5,Win32,16,NA,NA,NA,NA,NA,NA,NA,NA,NA,NA,NA,NA,NA,NA,NA,NA,NA,NA,NA,NA,NA,NA,NA,NA,NA,NA,NA,NA,NA,NA,NA,NA,NA,NA,NA,NA,NA,NA,NA,NA,NA,NA,NA,NA,NA,NA,NA,NA,NA,NA,NA,NA,NA,NA,7,0,7,0,1
SUPAMT36184,3AMW0RGHOJ1KSKQA0OD2GCP1AXLNP7,FEA06326-B87B-4F52-A292-104C55670601,2023-09-28_13h07.29.545,WP_VExplicitOC_LH,2022.2.5,Win32,16,-13.02083333,5.413,2.093,NA,NA,NA,NA,NA,bored,"bored, not bored","more bored, less bored",NA,NA,NA,NA,NA,NA,NA,NA,NA,NA,NA,NA,NA,NA,NA,NA,NA,NA,NA,NA,NA,NA,NA,NA,NA,NA,NA,NA,NA,NA,NA,NA,NA,NA,NA,NA,NA,NA,0,0,0,2,1,NA,NA,NA,NA,NA
SUPAMT36184,3AMW0RGHOJ1KSKQA0OD2GCP1AXLNP7,FEA06326-B87B-4F52-A292-104C55670601,2023-09-28_13h07.29.545,WP_VExplicitOC_LH,2022.2.5,Win32,16,30.20833333,4.692,2.093,NA,NA,NA,NA,NA,frustrated,"frustrated, not frustrated","more frustrated, less frustrated",NA,NA,NA,NA,NA,NA,NA,NA,NA,NA,NA,NA,NA,NA,NA,NA,NA,NA,NA,NA,NA,NA,NA,NA,NA,NA,NA,NA,NA,NA,NA,NA,NA,NA,NA,NA,NA,NA,0,1,1,1,1,NA,NA,NA,NA,NA
SUPAMT36184,3AMW0RGHOJ1KSKQA0OD2GCP1AXLNP7,FEA06326-B87B-4F52-A292-104C55670601,2023-09-28_13h07.29.545,WP_VExplicitOC_LH,2022.2.5,Win32,16,72.13541667,4.251,2.006,NA,NA,NA,NA,NA,happy,"unhappy, happy","less happy, more happy",NA,NA,NA,NA,NA,NA,NA,NA,NA,NA,NA,NA,NA,NA,NA,NA,NA,NA,NA,NA,NA,NA,NA,NA,NA,NA,NA,NA,NA,NA,NA,NA,NA,NA,NA,NA,NA,NA,0,2,2,0,1,NA,NA,NA,NA,NA
SUPAMT36184,3AMW0RGHOJ1KSKQA0OD2GCP1AXLNP7,FEA06326-B87B-4F52-A292-104C55670601,2023-09-28_13h07.29.545,WP_VExplicitOC_LH,2022.2.5,Win32,16,NA,NA,NA,NA,NA,NA,NA,NA,NA,NA,NA,NA,NA,NA,NA,NA,NA,NA,NA,NA,NA,NA,NA,NA,NA,NA,NA,NA,NA,NA,NA,NA,NA,NA,NA,NA,NA,NA,NA,NA,NA,NA,NA,NA,NA,NA,NA,NA,NA,NA,NA,NA,NA,NA,8,0,8,0,1
SUPAMT36184,3AMW0RGHOJ1KSKQA0OD2GCP1AXLNP7,FEA06326-B87B-4F52-A292-104C55670601,2023-09-28_13h07.29.545,WP_VExplicitOC_LH,2022.2.5,Win32,16,23.17708333,3.891,2.063,NA,NA,NA,NA,NA,bored,"bored, not bored","more bored, less bored",NA,NA,NA,NA,NA,NA,NA,NA,NA,NA,NA,NA,NA,NA,NA,NA,NA,NA,NA,NA,NA,NA,NA,NA,NA,NA,NA,NA,NA,NA,NA,NA,NA,NA,NA,NA,NA,NA,0,0,0,2,1,NA,NA,NA,NA,NA
SUPAMT36184,3AMW0RGHOJ1KSKQA0OD2GCP1AXLNP7,FEA06326-B87B-4F52-A292-104C55670601,2023-09-28_13h07.29.545,WP_VExplicitOC_LH,2022.2.5,Win32,16,65.10416667,4.953,2.081,NA,NA,NA,NA,NA,happy,"unhappy, happy","less happy, more happy",NA,NA,NA,NA,NA,NA,NA,NA,NA,NA,NA,NA,NA,NA,NA,NA,NA,NA,NA,NA,NA,NA,NA,NA,NA,NA,NA,NA,NA,NA,NA,NA,NA,NA,NA,NA,NA,NA,0,1,1,0,1,NA,NA,NA,NA,NA
SUPAMT36184,3AMW0RGHOJ1KSKQA0OD2GCP1AXLNP7,FEA06326-B87B-4F52-A292-104C55670601,2023-09-28_13h07.29.545,WP_VExplicitOC_LH,2022.2.5,Win32,16,28.90625,3.866,2.017,NA,NA,NA,NA,NA,frustrated,"frustrated, not frustrated","more frustrated, less frustrated",NA,NA,NA,NA,NA,NA,NA,NA,NA,NA,NA,NA,NA,NA,NA,NA,NA,NA,NA,NA,NA,NA,NA,NA,NA,NA,NA,NA,NA,NA,NA,NA,NA,NA,NA,NA,NA,NA,0,2,2,1,1,NA,NA,NA,NA,NA
SUPAMT36184,3AMW0RGHOJ1KSKQA0OD2GCP1AXLNP7,FEA06326-B87B-4F52-A292-104C55670601,2023-09-28_13h07.29.545,WP_VExplicitOC_LH,2022.2.5,Win32,16,NA,NA,NA,NA,NA,NA,NA,NA,NA,NA,NA,NA,NA,NA,NA,NA,NA,NA,NA,NA,NA,NA,NA,NA,NA,NA,NA,NA,NA,NA,NA,NA,NA,NA,NA,NA,NA,NA,NA,NA,NA,NA,NA,NA,NA,NA,NA,NA,NA,NA,NA,NA,NA,NA,9,0,9,0,1
SUPAMT36184,3AMW0RGHOJ1KSKQA0OD2GCP1AXLNP7,FEA06326-B87B-4F52-A292-104C55670601,2023-09-28_13h07.29.545,WP_VExplicitOC_LH,2022.2.5,Win32,16,32.8125,3.95,2.025,NA,NA,NA,NA,NA,bored,"bored, not bored","more bored, less bored",NA,NA,NA,NA,NA,NA,NA,NA,NA,NA,NA,NA,NA,NA,NA,NA,NA,NA,NA,NA,NA,NA,NA,NA,NA,NA,NA,NA,NA,NA,NA,NA,NA,NA,NA,NA,NA,NA,0,0,0,2,1,NA,NA,NA,NA,NA
SUPAMT36184,3AMW0RGHOJ1KSKQA0OD2GCP1AXLNP7,FEA06326-B87B-4F52-A292-104C55670601,2023-09-28_13h07.29.545,WP_VExplicitOC_LH,2022.2.5,Win32,16,17.96875,4.169,2,NA,NA,NA,NA,NA,frustrated,"frustrated, not frustrated","more frustrated, less frustrated",NA,NA,NA,NA,NA,NA,NA,NA,NA,NA,NA,NA,NA,NA,NA,NA,NA,NA,NA,NA,NA,NA,NA,NA,NA,NA,NA,NA,NA,NA,NA,NA,NA,NA,NA,NA,NA,NA,0,1,1,1,1,NA,NA,NA,NA,NA
SUPAMT36184,3AMW0RGHOJ1KSKQA0OD2GCP1AXLNP7,FEA06326-B87B-4F52-A292-104C55670601,2023-09-28_13h07.29.545,WP_VExplicitOC_LH,2022.2.5,Win32,16,65.10416667,4.207,2.026,NA,NA,NA,NA,NA,happy,"unhappy, happy","less happy, more happy",NA,NA,NA,NA,NA,NA,NA,NA,NA,NA,NA,NA,NA,NA,NA,NA,NA,NA,NA,NA,NA,NA,NA,NA,NA,NA,NA,NA,NA,NA,NA,NA,NA,NA,NA,NA,NA,NA,0,2,2,0,1,NA,NA,NA,NA,NA
SUPAMT36184,3AMW0RGHOJ1KSKQA0OD2GCP1AXLNP7,FEA06326-B87B-4F52-A292-104C55670601,2023-09-28_13h07.29.545,WP_VExplicitOC_LH,2022.2.5,Win32,16,NA,NA,NA,NA,NA,NA,NA,NA,NA,NA,NA,NA,NA,NA,NA,NA,NA,NA,NA,NA,NA,NA,NA,NA,NA,NA,NA,NA,NA,NA,NA,NA,NA,NA,NA,NA,NA,NA,NA,NA,NA,NA,NA,NA,NA,NA,NA,NA,NA,NA,NA,NA,NA,NA,10,0,10,0,1
SUPAMT36184,3AMW0RGHOJ1KSKQA0OD2GCP1AXLNP7,FEA06326-B87B-4F52-A292-104C55670601,2023-09-28_13h07.29.545,WP_VExplicitOC_LH,2022.2.5,Win32,16,72.39583333,3.864,2.006,NA,NA,NA,NA,NA,happy,"unhappy, happy","less happy, more happy",NA,NA,NA,NA,NA,NA,NA,NA,NA,NA,NA,NA,NA,NA,NA,NA,NA,NA,NA,NA,NA,NA,NA,NA,NA,NA,NA,NA,NA,NA,NA,NA,NA,NA,NA,NA,NA,NA,0,0,0,0,1,NA,NA,NA,NA,NA
SUPAMT36184,3AMW0RGHOJ1KSKQA0OD2GCP1AXLNP7,FEA06326-B87B-4F52-A292-104C55670601,2023-09-28_13h07.29.545,WP_VExplicitOC_LH,2022.2.5,Win32,16,34.11458333,4.482,2.02,NA,NA,NA,NA,NA,frustrated,"frustrated, not frustrated","more frustrated, less frustrated",NA,NA,NA,NA,NA,NA,NA,NA,NA,NA,NA,NA,NA,NA,NA,NA,NA,NA,NA,NA,NA,NA,NA,NA,NA,NA,NA,NA,NA,NA,NA,NA,NA,NA,NA,NA,NA,NA,0,1,1,1,1,NA,NA,NA,NA,NA
SUPAMT36184,3AMW0RGHOJ1KSKQA0OD2GCP1AXLNP7,FEA06326-B87B-4F52-A292-104C55670601,2023-09-28_13h07.29.545,WP_VExplicitOC_LH,2022.2.5,Win32,16,25,4.356,2.053,NA,NA,NA,NA,NA,bored,"bored, not bored","more bored, less bored",NA,NA,NA,NA,NA,NA,NA,NA,NA,NA,NA,NA,NA,NA,NA,NA,NA,NA,NA,NA,NA,NA,NA,NA,NA,NA,NA,NA,NA,NA,NA,NA,NA,NA,NA,NA,NA,NA,0,2,2,2,1,NA,NA,NA,NA,NA
SUPAMT36184,3AMW0RGHOJ1KSKQA0OD2GCP1AXLNP7,FEA06326-B87B-4F52-A292-104C55670601,2023-09-28_13h07.29.545,WP_VExplicitOC_LH,2022.2.5,Win32,16,NA,NA,NA,NA,NA,NA,NA,NA,NA,NA,NA,NA,NA,NA,NA,NA,NA,NA,NA,NA,NA,NA,NA,NA,NA,NA,NA,NA,NA,NA,NA,NA,NA,NA,NA,NA,NA,NA,NA,NA,NA,NA,NA,NA,NA,NA,NA,NA,NA,NA,NA,NA,NA,NA,11,0,11,0,1
SUPAMT36184,3AMW0RGHOJ1KSKQA0OD2GCP1AXLNP7,FEA06326-B87B-4F52-A292-104C55670601,2023-09-28_13h07.29.545,WP_VExplicitOC_LH,2022.2.5,Win32,16,43.22916667,3.858,2,NA,NA,NA,NA,NA,frustrated,"frustrated, not frustrated","more frustrated, less frustrated",NA,NA,NA,NA,NA,NA,NA,NA,NA,NA,NA,NA,NA,NA,NA,NA,NA,NA,NA,NA,NA,NA,NA,NA,NA,NA,NA,NA,NA,NA,NA,NA,NA,NA,NA,NA,NA,NA,0,0,0,1,1,NA,NA,NA,NA,NA
SUPAMT36184,3AMW0RGHOJ1KSKQA0OD2GCP1AXLNP7,FEA06326-B87B-4F52-A292-104C55670601,2023-09-28_13h07.29.545,WP_VExplicitOC_LH,2022.2.5,Win32,16,59.375,4.417,2.072,NA,NA,NA,NA,NA,bored,"bored, not bored","more bored, less bored",NA,NA,NA,NA,NA,NA,NA,NA,NA,NA,NA,NA,NA,NA,NA,NA,NA,NA,NA,NA,NA,NA,NA,NA,NA,NA,NA,NA,NA,NA,NA,NA,NA,NA,NA,NA,NA,NA,0,1,1,2,1,NA,NA,NA,NA,NA
SUPAMT36184,3AMW0RGHOJ1KSKQA0OD2GCP1AXLNP7,FEA06326-B87B-4F52-A292-104C55670601,2023-09-28_13h07.29.545,WP_VExplicitOC_LH,2022.2.5,Win32,16,86.71875,4.235,2.082,NA,NA,NA,NA,NA,happy,"unhappy, happy","less happy, more happy",NA,NA,NA,NA,NA,NA,NA,NA,NA,NA,NA,NA,NA,NA,NA,NA,NA,NA,NA,NA,NA,NA,NA,NA,NA,NA,NA,NA,NA,NA,NA,NA,NA,NA,NA,NA,NA,NA,0,2,2,0,1,NA,NA,NA,NA,NA
SUPAMT36184,3AMW0RGHOJ1KSKQA0OD2GCP1AXLNP7,FEA06326-B87B-4F52-A292-104C55670601,2023-09-28_13h07.29.545,WP_VExplicitOC_LH,2022.2.5,Win32,16,NA,NA,NA,NA,NA,NA,NA,NA,NA,NA,NA,NA,NA,NA,NA,NA,NA,NA,NA,NA,NA,NA,NA,NA,NA,NA,NA,NA,NA,NA,NA,NA,NA,NA,NA,NA,NA,NA,NA,NA,NA,NA,NA,NA,NA,NA,NA,NA,NA,NA,NA,NA,NA,NA,12,0,12,0,1
SUPAMT36184,3AMW0RGHOJ1KSKQA0OD2GCP1AXLNP7,FEA06326-B87B-4F52-A292-104C55670601,2023-09-28_13h07.29.545,WP_VExplicitOC_LH,2022.2.5,Win32,16,77.60416667,5.775,2.067,NA,NA,NA,NA,NA,bored,"bored, not bored","more bored, less bored",NA,NA,NA,NA,NA,NA,NA,NA,NA,NA,NA,NA,NA,NA,NA,NA,NA,NA,NA,NA,NA,NA,NA,NA,NA,NA,NA,NA,NA,NA,NA,NA,NA,NA,NA,NA,NA,NA,0,0,0,2,1,NA,NA,NA,NA,NA
SUPAMT36184,3AMW0RGHOJ1KSKQA0OD2GCP1AXLNP7,FEA06326-B87B-4F52-A292-104C55670601,2023-09-28_13h07.29.545,WP_VExplicitOC_LH,2022.2.5,Win32,16,85.9375,5.676,2.073,NA,NA,NA,NA,NA,happy,"unhappy, happy","less happy, more happy",NA,NA,NA,NA,NA,NA,NA,NA,NA,NA,NA,NA,NA,NA,NA,NA,NA,NA,NA,NA,NA,NA,NA,NA,NA,NA,NA,NA,NA,NA,NA,NA,NA,NA,NA,NA,NA,NA,0,1,1,0,1,NA,NA,NA,NA,NA
SUPAMT36184,3AMW0RGHOJ1KSKQA0OD2GCP1AXLNP7,FEA06326-B87B-4F52-A292-104C55670601,2023-09-28_13h07.29.545,WP_VExplicitOC_LH,2022.2.5,Win32,16,36.71875,4.103,2.091,NA,NA,NA,NA,NA,frustrated,"frustrated, not frustrated","more frustrated, less frustrated",NA,NA,NA,NA,NA,NA,NA,NA,NA,NA,NA,NA,NA,NA,NA,NA,NA,NA,NA,NA,NA,NA,NA,NA,NA,NA,NA,NA,NA,NA,NA,NA,NA,NA,NA,NA,NA,NA,0,2,2,1,1,NA,NA,NA,NA,NA
SUPAMT36184,3AMW0RGHOJ1KSKQA0OD2GCP1AXLNP7,FEA06326-B87B-4F52-A292-104C55670601,2023-09-28_13h07.29.545,WP_VExplicitOC_LH,2022.2.5,Win32,16,NA,NA,NA,NA,NA,NA,NA,NA,NA,NA,NA,NA,NA,NA,NA,NA,NA,NA,NA,NA,NA,NA,NA,NA,NA,NA,NA,NA,NA,NA,NA,NA,NA,NA,NA,NA,NA,NA,NA,NA,NA,NA,NA,NA,NA,NA,NA,NA,NA,NA,NA,NA,NA,NA,13,0,13,0,1
SUPAMT36184,3AMW0RGHOJ1KSKQA0OD2GCP1AXLNP7,FEA06326-B87B-4F52-A292-104C55670601,2023-09-28_13h07.29.545,WP_VExplicitOC_LH,2022.2.5,Win32,16,19.27083333,5.742,2.024,NA,NA,NA,NA,NA,bored,"bored, not bored","more bored, less bored",NA,NA,NA,NA,NA,NA,NA,NA,NA,NA,NA,NA,NA,NA,NA,NA,NA,NA,NA,NA,NA,NA,NA,NA,NA,NA,NA,NA,NA,NA,NA,NA,NA,NA,NA,NA,NA,NA,0,0,0,2,1,NA,NA,NA,NA,NA
SUPAMT36184,3AMW0RGHOJ1KSKQA0OD2GCP1AXLNP7,FEA06326-B87B-4F52-A292-104C55670601,2023-09-28_13h07.29.545,WP_VExplicitOC_LH,2022.2.5,Win32,16,72.13541667,4.408,2.059,NA,NA,NA,NA,NA,happy,"unhappy, happy","less happy, more happy",NA,NA,NA,NA,NA,NA,NA,NA,NA,NA,NA,NA,NA,NA,NA,NA,NA,NA,NA,NA,NA,NA,NA,NA,NA,NA,NA,NA,NA,NA,NA,NA,NA,NA,NA,NA,NA,NA,0,1,1,0,1,NA,NA,NA,NA,NA
SUPAMT36184,3AMW0RGHOJ1KSKQA0OD2GCP1AXLNP7,FEA06326-B87B-4F52-A292-104C55670601,2023-09-28_13h07.29.545,WP_VExplicitOC_LH,2022.2.5,Win32,16,37.5,5.501,2.082,NA,NA,NA,NA,NA,frustrated,"frustrated, not frustrated","more frustrated, less frustrated",NA,NA,NA,NA,NA,NA,NA,NA,NA,NA,NA,NA,NA,NA,NA,NA,NA,NA,NA,NA,NA,NA,NA,NA,NA,NA,NA,NA,NA,NA,NA,NA,NA,NA,NA,NA,NA,NA,0,2,2,1,1,NA,NA,NA,NA,NA
SUPAMT36184,3AMW0RGHOJ1KSKQA0OD2GCP1AXLNP7,FEA06326-B87B-4F52-A292-104C55670601,2023-09-28_13h07.29.545,WP_VExplicitOC_LH,2022.2.5,Win32,16,NA,NA,NA,NA,NA,NA,NA,NA,NA,NA,NA,NA,NA,NA,NA,NA,NA,NA,NA,NA,NA,NA,NA,NA,NA,NA,NA,NA,NA,NA,NA,NA,NA,NA,NA,NA,NA,NA,NA,NA,NA,NA,NA,NA,NA,NA,NA,NA,NA,NA,NA,NA,NA,NA,14,0,14,0,1
SUPAMT36184,3AMW0RGHOJ1KSKQA0OD2GCP1AXLNP7,FEA06326-B87B-4F52-A292-104C55670601,2023-09-28_13h07.29.545,WP_VExplicitOC_LH,2022.2.5,Win32,16,NA,NA,NA,NA,NA,NA,NA,NA,NA,NA,NA,NA,NA,NA,NA,NA,NA,NA,NA,NA,NA,NA,NA,NA,NA,NA,NA,NA,NA,NA,NA,NA,NA,NA,NA,NA,NA,NA,NA,NA,NA,NA,NA,NA,NA,NA,NA,NA,NA,NA,NA,NA,NA,NA,NA,NA,NA,NA,NA
