participant,session,completion,date,expName,psychopyVersion,OS,frameRate,rating_all.response,rating_all.rt,rating_all.tStart,rndRat1.thisRepN,rndRat1.thisTrialN,rndRat1.thisN,rndRat1.thisIndex,rndRat1.ran,Emo,Labs,Labs2,rating_alt.response,rating_alt.rt,AltC.thisRepN,AltC.thisTrialN,AltC.thisN,AltC.thisIndex,AltC.ran,alt_choices,pic_choices,BottomAlt_Choice,rndRat2.thisRepN,rndRat2.thisTrialN,rndRat2.thisN,rndRat2.thisIndex,rndRat2.ran,rndRat3.thisRepN,rndRat3.thisTrialN,rndRat3.thisN,rndRat3.thisIndex,rndRat3.ran,trials_FC_L.thisRepN,trials_FC_L.thisTrialN,trials_FC_L.thisN,trials_FC_L.thisIndex,trials_FC_L.ran,rating_alt_2.response,rating_alt_2.rt,AltC2.thisRepN,AltC2.thisTrialN,AltC2.thisN,AltC2.thisIndex,AltC2.ran,TopAlt_Choice,rndRat4.thisRepN,rndRat4.thisTrialN,rndRat4.thisN,rndRat4.thisIndex,rndRat4.ran,rndRat5.thisRepN,rndRat5.thisTrialN,rndRat5.thisN,rndRat5.thisIndex,rndRat5.ran,trials_FC_H.thisRepN,trials_FC_H.thisTrialN,trials_FC_H.thisN,trials_FC_H.thisIndex,trials_FC_H.ran
SUPAMT98515,38BQUHLA92ZWP2T99NLNEXVBV9AOM0,C5DF7EFD-EF75-45CE-B5A9-9C0F7FA89CB7,2023-09-29_12h21.20.517,WP_VExplicitOC_LH,2022.2.5,Win32,1.002956716,NA,NA,NA,NA,NA,NA,NA,NA,NA,NA,NA,NA,NA,NA,NA,NA,NA,NA,NA,NA,NA,NA,NA,NA,NA,NA,NA,NA,NA,NA,NA,NA,NA,NA,NA,NA,NA,NA,NA,NA,NA,NA,NA,NA,NA,NA,NA,NA,NA,NA,NA,NA,NA,NA,NA,NA,NA,NA,NA
SUPAMT98515,38BQUHLA92ZWP2T99NLNEXVBV9AOM0,C5DF7EFD-EF75-45CE-B5A9-9C0F7FA89CB7,2023-09-29_12h21.20.517,WP_VExplicitOC_LH,2022.2.5,Win32,1.002956716,NA,NA,NA,NA,NA,NA,NA,NA,NA,NA,NA,NA,NA,NA,NA,NA,NA,NA,NA,NA,NA,NA,NA,NA,NA,NA,NA,NA,NA,NA,NA,NA,NA,NA,NA,NA,NA,NA,NA,NA,NA,NA,NA,NA,NA,NA,NA,NA,NA,NA,NA,NA,NA,NA,NA,NA,NA,NA,NA
SUPAMT98515,38BQUHLA92ZWP2T99NLNEXVBV9AOM0,C5DF7EFD-EF75-45CE-B5A9-9C0F7FA89CB7,2023-09-29_12h21.20.517,WP_VExplicitOC_LH,2022.2.5,Win32,1.002956716,NA,NA,NA,NA,NA,NA,NA,NA,NA,NA,NA,NA,NA,NA,NA,NA,NA,NA,NA,NA,NA,NA,NA,NA,NA,NA,NA,NA,NA,NA,NA,NA,NA,NA,NA,NA,NA,NA,NA,NA,NA,NA,NA,NA,NA,NA,NA,NA,NA,NA,NA,NA,NA,NA,NA,NA,NA,NA,NA
SUPAMT98515,38BQUHLA92ZWP2T99NLNEXVBV9AOM0,C5DF7EFD-EF75-45CE-B5A9-9C0F7FA89CB7,2023-09-29_12h21.20.517,WP_VExplicitOC_LH,2022.2.5,Win32,1.002956716,NA,NA,2.6039,0,0,0,1,1,frustrated,"frustrated, not frustrated","more frustrated, less frustrated",NA,NA,NA,NA,NA,NA,NA,NA,NA,NA,NA,NA,NA,NA,NA,NA,NA,NA,NA,NA,NA,NA,NA,NA,NA,NA,NA,NA,NA,NA,NA,NA,NA,NA,NA,NA,NA,NA,NA,NA,NA,NA,NA,NA,NA,NA,NA,NA
SUPAMT98515,38BQUHLA92ZWP2T99NLNEXVBV9AOM0,C5DF7EFD-EF75-45CE-B5A9-9C0F7FA89CB7,2023-09-29_12h21.20.517,WP_VExplicitOC_LH,2022.2.5,Win32,1.002956716,NA,NA,2.5949,0,1,1,2,1,bored,"bored, not bored","more bored, less bored",NA,NA,NA,NA,NA,NA,NA,NA,NA,NA,NA,NA,NA,NA,NA,NA,NA,NA,NA,NA,NA,NA,NA,NA,NA,NA,NA,NA,NA,NA,NA,NA,NA,NA,NA,NA,NA,NA,NA,NA,NA,NA,NA,NA,NA,NA,NA,NA
SUPAMT98515,38BQUHLA92ZWP2T99NLNEXVBV9AOM0,C5DF7EFD-EF75-45CE-B5A9-9C0F7FA89CB7,2023-09-29_12h21.20.517,WP_VExplicitOC_LH,2022.2.5,Win32,1.002956716,NA,NA,2.5778,0,2,2,0,1,happy,"unhappy, happy","less happy, more happy",NA,NA,NA,NA,NA,NA,NA,NA,NA,NA,NA,NA,NA,NA,NA,NA,NA,NA,NA,NA,NA,NA,NA,NA,NA,NA,NA,NA,NA,NA,NA,NA,NA,NA,NA,NA,NA,NA,NA,NA,NA,NA,NA,NA,NA,NA,NA,NA
SUPAMT98515,38BQUHLA92ZWP2T99NLNEXVBV9AOM0,C5DF7EFD-EF75-45CE-B5A9-9C0F7FA89CB7,2023-09-29_12h21.20.517,WP_VExplicitOC_LH,2022.2.5,Win32,1.002956716,NA,NA,NA,NA,NA,NA,NA,NA,NA,NA,NA,NA,NA,NA,NA,NA,NA,NA,NA,NA,NA,NA,NA,NA,NA,NA,NA,NA,NA,NA,NA,NA,NA,NA,NA,NA,NA,NA,NA,NA,NA,NA,NA,NA,NA,NA,NA,NA,NA,NA,NA,NA,NA,NA,NA,NA,NA,NA,NA
SUPAMT98515,38BQUHLA92ZWP2T99NLNEXVBV9AOM0,C5DF7EFD-EF75-45CE-B5A9-9C0F7FA89CB7,2023-09-29_12h21.20.517,WP_VExplicitOC_LH,2022.2.5,Win32,1.002956716,NA,NA,NA,NA,NA,NA,NA,NA,NA,NA,NA,NA,NA,NA,NA,NA,NA,NA,NA,NA,NA,NA,NA,NA,NA,NA,NA,NA,NA,NA,NA,NA,NA,NA,NA,NA,NA,NA,NA,NA,NA,NA,NA,NA,NA,NA,NA,NA,NA,NA,NA,NA,NA,NA,NA,NA,NA,NA,NA
SUPAMT98515,38BQUHLA92ZWP2T99NLNEXVBV9AOM0,C5DF7EFD-EF75-45CE-B5A9-9C0F7FA89CB7,2023-09-29_12h21.20.517,WP_VExplicitOC_LH,2022.2.5,Win32,1.002956716,NA,NA,NA,NA,NA,NA,NA,NA,NA,NA,NA,NA,NA,NA,NA,NA,NA,NA,NA,NA,NA,NA,NA,NA,NA,NA,NA,NA,NA,NA,NA,NA,NA,NA,NA,NA,NA,NA,NA,NA,NA,NA,NA,NA,NA,NA,NA,NA,NA,NA,NA,NA,NA,NA,NA,NA,NA,NA,NA
SUPAMT98515,38BQUHLA92ZWP2T99NLNEXVBV9AOM0,C5DF7EFD-EF75-45CE-B5A9-9C0F7FA89CB7,2023-09-29_12h21.20.517,WP_VExplicitOC_LH,2022.2.5,Win32,1.002956716,NA,NA,NA,NA,NA,NA,NA,NA,NA,NA,NA,NA,NA,NA,NA,NA,NA,NA,NA,NA,NA,NA,NA,NA,NA,NA,NA,NA,NA,NA,NA,NA,NA,NA,NA,NA,NA,NA,NA,NA,NA,NA,NA,NA,NA,NA,NA,NA,NA,NA,NA,NA,NA,NA,NA,NA,NA,NA,NA
SUPAMT98515,38BQUHLA92ZWP2T99NLNEXVBV9AOM0,C5DF7EFD-EF75-45CE-B5A9-9C0F7FA89CB7,2023-09-29_12h21.20.517,WP_VExplicitOC_LH,2022.2.5,Win32,1.002956716,NA,NA,NA,NA,NA,NA,NA,NA,NA,NA,NA,34.49691992,3.1735,0,0,0,0,1,rest (looking at a fixed cross),001.png,NA,NA,NA,NA,NA,NA,NA,NA,NA,NA,NA,NA,NA,NA,NA,NA,NA,NA,NA,NA,NA,NA,NA,NA,NA,NA,NA,NA,NA,NA,NA,NA,NA,NA,NA,NA,NA,NA,NA
SUPAMT98515,38BQUHLA92ZWP2T99NLNEXVBV9AOM0,C5DF7EFD-EF75-45CE-B5A9-9C0F7FA89CB7,2023-09-29_12h21.20.517,WP_VExplicitOC_LH,2022.2.5,Win32,1.002956716,NA,NA,NA,NA,NA,NA,NA,NA,NA,NA,NA,49.82890104,1.6776,0,1,1,1,1,stand up,002.png,NA,NA,NA,NA,NA,NA,NA,NA,NA,NA,NA,NA,NA,NA,NA,NA,NA,NA,NA,NA,NA,NA,NA,NA,NA,NA,NA,NA,NA,NA,NA,NA,NA,NA,NA,NA,NA,NA,NA
SUPAMT98515,38BQUHLA92ZWP2T99NLNEXVBV9AOM0,C5DF7EFD-EF75-45CE-B5A9-9C0F7FA89CB7,2023-09-29_12h21.20.517,WP_VExplicitOC_LH,2022.2.5,Win32,1.002956716,NA,NA,NA,NA,NA,NA,NA,NA,NA,NA,NA,29.84258193,2.005,0,2,2,2,1,stretch,003.png,NA,NA,NA,NA,NA,NA,NA,NA,NA,NA,NA,NA,NA,NA,NA,NA,NA,NA,NA,NA,NA,NA,NA,NA,NA,NA,NA,NA,NA,NA,NA,NA,NA,NA,NA,NA,NA,NA,NA
SUPAMT98515,38BQUHLA92ZWP2T99NLNEXVBV9AOM0,C5DF7EFD-EF75-45CE-B5A9-9C0F7FA89CB7,2023-09-29_12h21.20.517,WP_VExplicitOC_LH,2022.2.5,Win32,1.002956716,NA,NA,NA,NA,NA,NA,NA,NA,NA,NA,NA,36.68721726,2.8847,0,3,3,3,1,make a drink,004.png,NA,NA,NA,NA,NA,NA,NA,NA,NA,NA,NA,NA,NA,NA,NA,NA,NA,NA,NA,NA,NA,NA,NA,NA,NA,NA,NA,NA,NA,NA,NA,NA,NA,NA,NA,NA,NA,NA,NA
SUPAMT98515,38BQUHLA92ZWP2T99NLNEXVBV9AOM0,C5DF7EFD-EF75-45CE-B5A9-9C0F7FA89CB7,2023-09-29_12h21.20.517,WP_VExplicitOC_LH,2022.2.5,Win32,1.002956716,NA,NA,NA,NA,NA,NA,NA,NA,NA,NA,NA,0.821355236,1.0404,0,4,4,4,1,scroll social media,005.png,NA,NA,NA,NA,NA,NA,NA,NA,NA,NA,NA,NA,NA,NA,NA,NA,NA,NA,NA,NA,NA,NA,NA,NA,NA,NA,NA,NA,NA,NA,NA,NA,NA,NA,NA,NA,NA,NA,NA
SUPAMT98515,38BQUHLA92ZWP2T99NLNEXVBV9AOM0,C5DF7EFD-EF75-45CE-B5A9-9C0F7FA89CB7,2023-09-29_12h21.20.517,WP_VExplicitOC_LH,2022.2.5,Win32,1.002956716,NA,NA,NA,NA,NA,NA,NA,NA,NA,NA,NA,6.023280087,2.3731,0,5,5,5,1,listen to music,006.png,NA,NA,NA,NA,NA,NA,NA,NA,NA,NA,NA,NA,NA,NA,NA,NA,NA,NA,NA,NA,NA,NA,NA,NA,NA,NA,NA,NA,NA,NA,NA,NA,NA,NA,NA,NA,NA,NA,NA
SUPAMT98515,38BQUHLA92ZWP2T99NLNEXVBV9AOM0,C5DF7EFD-EF75-45CE-B5A9-9C0F7FA89CB7,2023-09-29_12h21.20.517,WP_VExplicitOC_LH,2022.2.5,Win32,1.002956716,NA,NA,NA,NA,NA,NA,NA,NA,NA,NA,NA,29.0212267,1.9545,0,6,6,6,1,daydream,007.png,NA,NA,NA,NA,NA,NA,NA,NA,NA,NA,NA,NA,NA,NA,NA,NA,NA,NA,NA,NA,NA,NA,NA,NA,NA,NA,NA,NA,NA,NA,NA,NA,NA,NA,NA,NA,NA,NA,NA
SUPAMT98515,38BQUHLA92ZWP2T99NLNEXVBV9AOM0,C5DF7EFD-EF75-45CE-B5A9-9C0F7FA89CB7,2023-09-29_12h21.20.517,WP_VExplicitOC_LH,2022.2.5,Win32,1.002956716,NA,NA,NA,NA,NA,NA,NA,NA,NA,NA,NA,29.0212267,2.0126,0,7,7,7,1,watch a short animation,008.png,NA,NA,NA,NA,NA,NA,NA,NA,NA,NA,NA,NA,NA,NA,NA,NA,NA,NA,NA,NA,NA,NA,NA,NA,NA,NA,NA,NA,NA,NA,NA,NA,NA,NA,NA,NA,NA,NA,NA
SUPAMT98515,38BQUHLA92ZWP2T99NLNEXVBV9AOM0,C5DF7EFD-EF75-45CE-B5A9-9C0F7FA89CB7,2023-09-29_12h21.20.517,WP_VExplicitOC_LH,2022.2.5,Win32,1.002956716,NA,NA,NA,NA,NA,NA,NA,NA,NA,NA,NA,38.6036961,2.8796,0,8,8,8,1,read a novel,009.png,NA,NA,NA,NA,NA,NA,NA,NA,NA,NA,NA,NA,NA,NA,NA,NA,NA,NA,NA,NA,NA,NA,NA,NA,NA,NA,NA,NA,NA,NA,NA,NA,NA,NA,NA,NA,NA,NA,NA
SUPAMT98515,38BQUHLA92ZWP2T99NLNEXVBV9AOM0,C5DF7EFD-EF75-45CE-B5A9-9C0F7FA89CB7,2023-09-29_12h21.20.517,WP_VExplicitOC_LH,2022.2.5,Win32,1.002956716,NA,NA,NA,NA,NA,NA,NA,NA,NA,NA,NA,15.87954292,3.4512,0,9,9,9,1,read the news,010.png,NA,NA,NA,NA,NA,NA,NA,NA,NA,NA,NA,NA,NA,NA,NA,NA,NA,NA,NA,NA,NA,NA,NA,NA,NA,NA,NA,NA,NA,NA,NA,NA,NA,NA,NA,NA,NA,NA,NA
SUPAMT98515,38BQUHLA92ZWP2T99NLNEXVBV9AOM0,C5DF7EFD-EF75-45CE-B5A9-9C0F7FA89CB7,2023-09-29_12h21.20.517,WP_VExplicitOC_LH,2022.2.5,Win32,1.002956716,NA,NA,NA,NA,NA,NA,NA,NA,NA,NA,NA,NA,NA,NA,NA,NA,NA,NA,NA,NA,NA,NA,NA,NA,NA,NA,NA,NA,NA,NA,NA,NA,NA,NA,NA,NA,NA,NA,NA,NA,NA,NA,NA,NA,NA,NA,NA,NA,NA,NA,NA,NA,NA,NA,NA,NA,NA,NA,NA
SUPAMT98515,38BQUHLA92ZWP2T99NLNEXVBV9AOM0,C5DF7EFD-EF75-45CE-B5A9-9C0F7FA89CB7,2023-09-29_12h21.20.517,WP_VExplicitOC_LH,2022.2.5,Win32,1.002956716,NA,NA,NA,NA,NA,NA,NA,NA,NA,NA,NA,NA,NA,NA,NA,NA,NA,NA,NA,NA,scroll social media,NA,NA,NA,NA,NA,NA,NA,NA,NA,NA,NA,NA,NA,NA,NA,NA,NA,NA,NA,NA,NA,NA,NA,NA,NA,NA,NA,NA,NA,NA,NA,NA,NA,NA,NA,NA,NA,NA
SUPAMT98515,38BQUHLA92ZWP2T99NLNEXVBV9AOM0,C5DF7EFD-EF75-45CE-B5A9-9C0F7FA89CB7,2023-09-29_12h21.20.517,WP_VExplicitOC_LH,2022.2.5,Win32,1.002956716,NA,NA,2.6756,NA,NA,NA,NA,NA,bored,"bored, not bored","more bored, less bored",NA,NA,NA,NA,NA,NA,NA,NA,NA,NA,0,0,0,2,1,NA,NA,NA,NA,NA,NA,NA,NA,NA,NA,NA,NA,NA,NA,NA,NA,NA,NA,NA,NA,NA,NA,NA,NA,NA,NA,NA,NA,NA,NA,NA,NA,NA
SUPAMT98515,38BQUHLA92ZWP2T99NLNEXVBV9AOM0,C5DF7EFD-EF75-45CE-B5A9-9C0F7FA89CB7,2023-09-29_12h21.20.517,WP_VExplicitOC_LH,2022.2.5,Win32,1.002956716,28.4736649,6.9298,2.5339,NA,NA,NA,NA,NA,happy,"unhappy, happy","less happy, more happy",NA,NA,NA,NA,NA,NA,NA,NA,NA,NA,0,1,1,0,1,NA,NA,NA,NA,NA,NA,NA,NA,NA,NA,NA,NA,NA,NA,NA,NA,NA,NA,NA,NA,NA,NA,NA,NA,NA,NA,NA,NA,NA,NA,NA,NA,NA
SUPAMT98515,38BQUHLA92ZWP2T99NLNEXVBV9AOM0,C5DF7EFD-EF75-45CE-B5A9-9C0F7FA89CB7,2023-09-29_12h21.20.517,WP_VExplicitOC_LH,2022.2.5,Win32,1.002956716,-16.70088562,6.3039,2.6147,NA,NA,NA,NA,NA,frustrated,"frustrated, not frustrated","more frustrated, less frustrated",NA,NA,NA,NA,NA,NA,NA,NA,NA,NA,0,2,2,1,1,NA,NA,NA,NA,NA,NA,NA,NA,NA,NA,NA,NA,NA,NA,NA,NA,NA,NA,NA,NA,NA,NA,NA,NA,NA,NA,NA,NA,NA,NA,NA,NA,NA
SUPAMT98515,38BQUHLA92ZWP2T99NLNEXVBV9AOM0,C5DF7EFD-EF75-45CE-B5A9-9C0F7FA89CB7,2023-09-29_12h21.20.517,WP_VExplicitOC_LH,2022.2.5,Win32,1.002956716,NA,NA,NA,NA,NA,NA,NA,NA,NA,NA,NA,NA,NA,NA,NA,NA,NA,NA,NA,NA,NA,NA,NA,NA,NA,NA,NA,NA,NA,NA,NA,NA,NA,NA,NA,NA,NA,NA,NA,NA,NA,NA,NA,NA,NA,NA,NA,NA,NA,NA,NA,NA,NA,NA,NA,NA,NA,NA,NA
SUPAMT98515,38BQUHLA92ZWP2T99NLNEXVBV9AOM0,C5DF7EFD-EF75-45CE-B5A9-9C0F7FA89CB7,2023-09-29_12h21.20.517,WP_VExplicitOC_LH,2022.2.5,Win32,1.002956716,NA,NA,NA,NA,NA,NA,NA,NA,NA,NA,NA,NA,NA,NA,NA,NA,NA,NA,NA,NA,NA,NA,NA,NA,NA,NA,NA,NA,NA,NA,NA,NA,NA,NA,NA,NA,NA,NA,NA,NA,NA,NA,NA,NA,NA,NA,NA,NA,NA,NA,NA,NA,NA,NA,NA,NA,NA,NA,NA
SUPAMT98515,38BQUHLA92ZWP2T99NLNEXVBV9AOM0,C5DF7EFD-EF75-45CE-B5A9-9C0F7FA89CB7,2023-09-29_12h21.20.517,WP_VExplicitOC_LH,2022.2.5,Win32,1.002956716,-4.380557082,5.5542,2.8015,NA,NA,NA,NA,NA,happy,"unhappy, happy","less happy, more happy",NA,NA,NA,NA,NA,NA,NA,NA,NA,NA,NA,NA,NA,NA,NA,0,0,0,0,1,NA,NA,NA,NA,NA,NA,NA,NA,NA,NA,NA,NA,NA,NA,NA,NA,NA,NA,NA,NA,NA,NA,NA,NA,NA,NA,NA,NA
SUPAMT98515,38BQUHLA92ZWP2T99NLNEXVBV9AOM0,C5DF7EFD-EF75-45CE-B5A9-9C0F7FA89CB7,2023-09-29_12h21.20.517,WP_VExplicitOC_LH,2022.2.5,Win32,1.002956716,NA,NA,2.6622,NA,NA,NA,NA,NA,bored,"bored, not bored","more bored, less bored",NA,NA,NA,NA,NA,NA,NA,NA,NA,NA,NA,NA,NA,NA,NA,0,1,1,2,1,NA,NA,NA,NA,NA,NA,NA,NA,NA,NA,NA,NA,NA,NA,NA,NA,NA,NA,NA,NA,NA,NA,NA,NA,NA,NA,NA,NA
SUPAMT98515,38BQUHLA92ZWP2T99NLNEXVBV9AOM0,C5DF7EFD-EF75-45CE-B5A9-9C0F7FA89CB7,2023-09-29_12h21.20.517,WP_VExplicitOC_LH,2022.2.5,Win32,1.002956716,-28.74743326,6.2541,2.8291,NA,NA,NA,NA,NA,frustrated,"frustrated, not frustrated","more frustrated, less frustrated",NA,NA,NA,NA,NA,NA,NA,NA,NA,NA,NA,NA,NA,NA,NA,0,2,2,1,1,NA,NA,NA,NA,NA,NA,NA,NA,NA,NA,NA,NA,NA,NA,NA,NA,NA,NA,NA,NA,NA,NA,NA,NA,NA,NA,NA,NA
SUPAMT98515,38BQUHLA92ZWP2T99NLNEXVBV9AOM0,C5DF7EFD-EF75-45CE-B5A9-9C0F7FA89CB7,2023-09-29_12h21.20.517,WP_VExplicitOC_LH,2022.2.5,Win32,1.002956716,NA,NA,NA,NA,NA,NA,NA,NA,NA,NA,NA,NA,NA,NA,NA,NA,NA,NA,NA,NA,NA,NA,NA,NA,NA,NA,NA,NA,NA,NA,NA,0,0,0,0,1,NA,NA,NA,NA,NA,NA,NA,NA,NA,NA,NA,NA,NA,NA,NA,NA,NA,NA,NA,NA,NA,NA,NA
SUPAMT98515,38BQUHLA92ZWP2T99NLNEXVBV9AOM0,C5DF7EFD-EF75-45CE-B5A9-9C0F7FA89CB7,2023-09-29_12h21.20.517,WP_VExplicitOC_LH,2022.2.5,Win32,1.002956716,28.74743326,7.2398,2.7503,NA,NA,NA,NA,NA,happy,"unhappy, happy","less happy, more happy",NA,NA,NA,NA,NA,NA,NA,NA,NA,NA,NA,NA,NA,NA,NA,0,0,0,0,1,NA,NA,NA,NA,NA,NA,NA,NA,NA,NA,NA,NA,NA,NA,NA,NA,NA,NA,NA,NA,NA,NA,NA,NA,NA,NA,NA,NA
SUPAMT98515,38BQUHLA92ZWP2T99NLNEXVBV9AOM0,C5DF7EFD-EF75-45CE-B5A9-9C0F7FA89CB7,2023-09-29_12h21.20.517,WP_VExplicitOC_LH,2022.2.5,Win32,1.002956716,17.52225339,6.2808,2.5751,NA,NA,NA,NA,NA,frustrated,"frustrated, not frustrated","more frustrated, less frustrated",NA,NA,NA,NA,NA,NA,NA,NA,NA,NA,NA,NA,NA,NA,NA,0,1,1,1,1,NA,NA,NA,NA,NA,NA,NA,NA,NA,NA,NA,NA,NA,NA,NA,NA,NA,NA,NA,NA,NA,NA,NA,NA,NA,NA,NA,NA
SUPAMT98515,38BQUHLA92ZWP2T99NLNEXVBV9AOM0,C5DF7EFD-EF75-45CE-B5A9-9C0F7FA89CB7,2023-09-29_12h21.20.517,WP_VExplicitOC_LH,2022.2.5,Win32,1.002956716,NA,NA,2.4459,NA,NA,NA,NA,NA,bored,"bored, not bored","more bored, less bored",NA,NA,NA,NA,NA,NA,NA,NA,NA,NA,NA,NA,NA,NA,NA,0,2,2,2,1,NA,NA,NA,NA,NA,NA,NA,NA,NA,NA,NA,NA,NA,NA,NA,NA,NA,NA,NA,NA,NA,NA,NA,NA,NA,NA,NA,NA
SUPAMT98515,38BQUHLA92ZWP2T99NLNEXVBV9AOM0,C5DF7EFD-EF75-45CE-B5A9-9C0F7FA89CB7,2023-09-29_12h21.20.517,WP_VExplicitOC_LH,2022.2.5,Win32,1.002956716,NA,NA,NA,NA,NA,NA,NA,NA,NA,NA,NA,NA,NA,NA,NA,NA,NA,NA,NA,NA,NA,NA,NA,NA,NA,NA,NA,NA,NA,NA,NA,1,0,1,0,1,NA,NA,NA,NA,NA,NA,NA,NA,NA,NA,NA,NA,NA,NA,NA,NA,NA,NA,NA,NA,NA,NA,NA
SUPAMT98515,38BQUHLA92ZWP2T99NLNEXVBV9AOM0,C5DF7EFD-EF75-45CE-B5A9-9C0F7FA89CB7,2023-09-29_12h21.20.517,WP_VExplicitOC_LH,2022.2.5,Win32,1.002956716,-19.16495447,7.1687,2.8205,NA,NA,NA,NA,NA,frustrated,"frustrated, not frustrated","more frustrated, less frustrated",NA,NA,NA,NA,NA,NA,NA,NA,NA,NA,NA,NA,NA,NA,NA,0,0,0,1,1,NA,NA,NA,NA,NA,NA,NA,NA,NA,NA,NA,NA,NA,NA,NA,NA,NA,NA,NA,NA,NA,NA,NA,NA,NA,NA,NA,NA
SUPAMT98515,38BQUHLA92ZWP2T99NLNEXVBV9AOM0,C5DF7EFD-EF75-45CE-B5A9-9C0F7FA89CB7,2023-09-29_12h21.20.517,WP_VExplicitOC_LH,2022.2.5,Win32,1.002956716,-26.83093249,5.4766,2.0317,NA,NA,NA,NA,NA,bored,"bored, not bored","more bored, less bored",NA,NA,NA,NA,NA,NA,NA,NA,NA,NA,NA,NA,NA,NA,NA,0,1,1,2,1,NA,NA,NA,NA,NA,NA,NA,NA,NA,NA,NA,NA,NA,NA,NA,NA,NA,NA,NA,NA,NA,NA,NA,NA,NA,NA,NA,NA
SUPAMT98515,38BQUHLA92ZWP2T99NLNEXVBV9AOM0,C5DF7EFD-EF75-45CE-B5A9-9C0F7FA89CB7,2023-09-29_12h21.20.517,WP_VExplicitOC_LH,2022.2.5,Win32,1.002956716,26.00958352,7.0037,2.7672,NA,NA,NA,NA,NA,happy,"unhappy, happy","less happy, more happy",NA,NA,NA,NA,NA,NA,NA,NA,NA,NA,NA,NA,NA,NA,NA,0,2,2,0,1,NA,NA,NA,NA,NA,NA,NA,NA,NA,NA,NA,NA,NA,NA,NA,NA,NA,NA,NA,NA,NA,NA,NA,NA,NA,NA,NA,NA
SUPAMT98515,38BQUHLA92ZWP2T99NLNEXVBV9AOM0,C5DF7EFD-EF75-45CE-B5A9-9C0F7FA89CB7,2023-09-29_12h21.20.517,WP_VExplicitOC_LH,2022.2.5,Win32,1.002956716,NA,NA,NA,NA,NA,NA,NA,NA,NA,NA,NA,NA,NA,NA,NA,NA,NA,NA,NA,NA,NA,NA,NA,NA,NA,NA,NA,NA,NA,NA,NA,2,0,2,0,1,NA,NA,NA,NA,NA,NA,NA,NA,NA,NA,NA,NA,NA,NA,NA,NA,NA,NA,NA,NA,NA,NA,NA
SUPAMT98515,38BQUHLA92ZWP2T99NLNEXVBV9AOM0,C5DF7EFD-EF75-45CE-B5A9-9C0F7FA89CB7,2023-09-29_12h21.20.517,WP_VExplicitOC_LH,2022.2.5,Win32,1.002956716,-29.0212173,5.8278,2.7245,NA,NA,NA,NA,NA,frustrated,"frustrated, not frustrated","more frustrated, less frustrated",NA,NA,NA,NA,NA,NA,NA,NA,NA,NA,NA,NA,NA,NA,NA,0,0,0,1,1,NA,NA,NA,NA,NA,NA,NA,NA,NA,NA,NA,NA,NA,NA,NA,NA,NA,NA,NA,NA,NA,NA,NA,NA,NA,NA,NA,NA
SUPAMT98515,38BQUHLA92ZWP2T99NLNEXVBV9AOM0,C5DF7EFD-EF75-45CE-B5A9-9C0F7FA89CB7,2023-09-29_12h21.20.517,WP_VExplicitOC_LH,2022.2.5,Win32,1.002956716,-17.79602489,5.0666,2.6278,NA,NA,NA,NA,NA,happy,"unhappy, happy","less happy, more happy",NA,NA,NA,NA,NA,NA,NA,NA,NA,NA,NA,NA,NA,NA,NA,0,1,1,0,1,NA,NA,NA,NA,NA,NA,NA,NA,NA,NA,NA,NA,NA,NA,NA,NA,NA,NA,NA,NA,NA,NA,NA,NA,NA,NA,NA,NA
SUPAMT98515,38BQUHLA92ZWP2T99NLNEXVBV9AOM0,C5DF7EFD-EF75-45CE-B5A9-9C0F7FA89CB7,2023-09-29_12h21.20.517,WP_VExplicitOC_LH,2022.2.5,Win32,1.002956716,-31.75906391,6.1669,2.8391,NA,NA,NA,NA,NA,bored,"bored, not bored","more bored, less bored",NA,NA,NA,NA,NA,NA,NA,NA,NA,NA,NA,NA,NA,NA,NA,0,2,2,2,1,NA,NA,NA,NA,NA,NA,NA,NA,NA,NA,NA,NA,NA,NA,NA,NA,NA,NA,NA,NA,NA,NA,NA,NA,NA,NA,NA,NA
SUPAMT98515,38BQUHLA92ZWP2T99NLNEXVBV9AOM0,C5DF7EFD-EF75-45CE-B5A9-9C0F7FA89CB7,2023-09-29_12h21.20.517,WP_VExplicitOC_LH,2022.2.5,Win32,1.002956716,NA,NA,NA,NA,NA,NA,NA,NA,NA,NA,NA,NA,NA,NA,NA,NA,NA,NA,NA,NA,NA,NA,NA,NA,NA,NA,NA,NA,NA,NA,NA,3,0,3,0,1,NA,NA,NA,NA,NA,NA,NA,NA,NA,NA,NA,NA,NA,NA,NA,NA,NA,NA,NA,NA,NA,NA,NA
SUPAMT98515,38BQUHLA92ZWP2T99NLNEXVBV9AOM0,C5DF7EFD-EF75-45CE-B5A9-9C0F7FA89CB7,2023-09-29_12h21.20.517,WP_VExplicitOC_LH,2022.2.5,Win32,1.002956716,-49.28130477,7.1795,2.7409,NA,NA,NA,NA,NA,frustrated,"frustrated, not frustrated","more frustrated, less frustrated",NA,NA,NA,NA,NA,NA,NA,NA,NA,NA,NA,NA,NA,NA,NA,0,0,0,1,1,NA,NA,NA,NA,NA,NA,NA,NA,NA,NA,NA,NA,NA,NA,NA,NA,NA,NA,NA,NA,NA,NA,NA,NA,NA,NA,NA,NA
SUPAMT98515,38BQUHLA92ZWP2T99NLNEXVBV9AOM0,C5DF7EFD-EF75-45CE-B5A9-9C0F7FA89CB7,2023-09-29_12h21.20.517,WP_VExplicitOC_LH,2022.2.5,Win32,1.002956716,5.475702619,6.2159,2.5213,NA,NA,NA,NA,NA,happy,"unhappy, happy","less happy, more happy",NA,NA,NA,NA,NA,NA,NA,NA,NA,NA,NA,NA,NA,NA,NA,0,1,1,0,1,NA,NA,NA,NA,NA,NA,NA,NA,NA,NA,NA,NA,NA,NA,NA,NA,NA,NA,NA,NA,NA,NA,NA,NA,NA,NA,NA,NA
SUPAMT98515,38BQUHLA92ZWP2T99NLNEXVBV9AOM0,C5DF7EFD-EF75-45CE-B5A9-9C0F7FA89CB7,2023-09-29_12h21.20.517,WP_VExplicitOC_LH,2022.2.5,Win32,1.002956716,NA,NA,2.64,NA,NA,NA,NA,NA,bored,"bored, not bored","more bored, less bored",NA,NA,NA,NA,NA,NA,NA,NA,NA,NA,NA,NA,NA,NA,NA,0,2,2,2,1,NA,NA,NA,NA,NA,NA,NA,NA,NA,NA,NA,NA,NA,NA,NA,NA,NA,NA,NA,NA,NA,NA,NA,NA,NA,NA,NA,NA
SUPAMT98515,38BQUHLA92ZWP2T99NLNEXVBV9AOM0,C5DF7EFD-EF75-45CE-B5A9-9C0F7FA89CB7,2023-09-29_12h21.20.517,WP_VExplicitOC_LH,2022.2.5,Win32,1.002956716,NA,NA,NA,NA,NA,NA,NA,NA,NA,NA,NA,NA,NA,NA,NA,NA,NA,NA,NA,NA,NA,NA,NA,NA,NA,NA,NA,NA,NA,NA,NA,4,0,4,0,1,NA,NA,NA,NA,NA,NA,NA,NA,NA,NA,NA,NA,NA,NA,NA,NA,NA,NA,NA,NA,NA,NA,NA
SUPAMT98515,38BQUHLA92ZWP2T99NLNEXVBV9AOM0,C5DF7EFD-EF75-45CE-B5A9-9C0F7FA89CB7,2023-09-29_12h21.20.517,WP_VExplicitOC_LH,2022.2.5,Win32,1.002956716,-39.69883537,7.1909,2.7585,NA,NA,NA,NA,NA,frustrated,"frustrated, not frustrated","more frustrated, less frustrated",NA,NA,NA,NA,NA,NA,NA,NA,NA,NA,NA,NA,NA,NA,NA,0,0,0,1,1,NA,NA,NA,NA,NA,NA,NA,NA,NA,NA,NA,NA,NA,NA,NA,NA,NA,NA,NA,NA,NA,NA,NA,NA,NA,NA,NA,NA
SUPAMT98515,38BQUHLA92ZWP2T99NLNEXVBV9AOM0,C5DF7EFD-EF75-45CE-B5A9-9C0F7FA89CB7,2023-09-29_12h21.20.517,WP_VExplicitOC_LH,2022.2.5,Win32,1.002956716,NA,NA,2.9507,NA,NA,NA,NA,NA,happy,"unhappy, happy","less happy, more happy",NA,NA,NA,NA,NA,NA,NA,NA,NA,NA,NA,NA,NA,NA,NA,0,1,1,0,1,NA,NA,NA,NA,NA,NA,NA,NA,NA,NA,NA,NA,NA,NA,NA,NA,NA,NA,NA,NA,NA,NA,NA,NA,NA,NA,NA,NA
SUPAMT98515,38BQUHLA92ZWP2T99NLNEXVBV9AOM0,C5DF7EFD-EF75-45CE-B5A9-9C0F7FA89CB7,2023-09-29_12h21.20.517,WP_VExplicitOC_LH,2022.2.5,Win32,1.002956716,NA,NA,2.8048,NA,NA,NA,NA,NA,bored,"bored, not bored","more bored, less bored",NA,NA,NA,NA,NA,NA,NA,NA,NA,NA,NA,NA,NA,NA,NA,0,2,2,2,1,NA,NA,NA,NA,NA,NA,NA,NA,NA,NA,NA,NA,NA,NA,NA,NA,NA,NA,NA,NA,NA,NA,NA,NA,NA,NA,NA,NA
SUPAMT98515,38BQUHLA92ZWP2T99NLNEXVBV9AOM0,C5DF7EFD-EF75-45CE-B5A9-9C0F7FA89CB7,2023-09-29_12h21.20.517,WP_VExplicitOC_LH,2022.2.5,Win32,1.002956716,NA,NA,NA,NA,NA,NA,NA,NA,NA,NA,NA,NA,NA,NA,NA,NA,NA,NA,NA,NA,NA,NA,NA,NA,NA,NA,NA,NA,NA,NA,NA,5,0,5,0,1,NA,NA,NA,NA,NA,NA,NA,NA,NA,NA,NA,NA,NA,NA,NA,NA,NA,NA,NA,NA,NA,NA,NA
SUPAMT98515,38BQUHLA92ZWP2T99NLNEXVBV9AOM0,C5DF7EFD-EF75-45CE-B5A9-9C0F7FA89CB7,2023-09-29_12h21.20.517,WP_VExplicitOC_LH,2022.2.5,Win32,1.002956716,-3.559204979,7.0219,2.5628,NA,NA,NA,NA,NA,bored,"bored, not bored","more bored, less bored",NA,NA,NA,NA,NA,NA,NA,NA,NA,NA,NA,NA,NA,NA,NA,0,0,0,2,1,NA,NA,NA,NA,NA,NA,NA,NA,NA,NA,NA,NA,NA,NA,NA,NA,NA,NA,NA,NA,NA,NA,NA,NA,NA,NA,NA,NA
SUPAMT98515,38BQUHLA92ZWP2T99NLNEXVBV9AOM0,C5DF7EFD-EF75-45CE-B5A9-9C0F7FA89CB7,2023-09-29_12h21.20.517,WP_VExplicitOC_LH,2022.2.5,Win32,1.002956716,-7.939762061,4.3572,2.5279,NA,NA,NA,NA,NA,frustrated,"frustrated, not frustrated","more frustrated, less frustrated",NA,NA,NA,NA,NA,NA,NA,NA,NA,NA,NA,NA,NA,NA,NA,0,1,1,1,1,NA,NA,NA,NA,NA,NA,NA,NA,NA,NA,NA,NA,NA,NA,NA,NA,NA,NA,NA,NA,NA,NA,NA,NA,NA,NA,NA,NA
SUPAMT98515,38BQUHLA92ZWP2T99NLNEXVBV9AOM0,C5DF7EFD-EF75-45CE-B5A9-9C0F7FA89CB7,2023-09-29_12h21.20.517,WP_VExplicitOC_LH,2022.2.5,Win32,1.002956716,36.41343322,6.2339,2.6315,NA,NA,NA,NA,NA,happy,"unhappy, happy","less happy, more happy",NA,NA,NA,NA,NA,NA,NA,NA,NA,NA,NA,NA,NA,NA,NA,0,2,2,0,1,NA,NA,NA,NA,NA,NA,NA,NA,NA,NA,NA,NA,NA,NA,NA,NA,NA,NA,NA,NA,NA,NA,NA,NA,NA,NA,NA,NA
SUPAMT98515,38BQUHLA92ZWP2T99NLNEXVBV9AOM0,C5DF7EFD-EF75-45CE-B5A9-9C0F7FA89CB7,2023-09-29_12h21.20.517,WP_VExplicitOC_LH,2022.2.5,Win32,1.002956716,NA,NA,NA,NA,NA,NA,NA,NA,NA,NA,NA,NA,NA,NA,NA,NA,NA,NA,NA,NA,NA,NA,NA,NA,NA,NA,NA,NA,NA,NA,NA,6,0,6,0,1,NA,NA,NA,NA,NA,NA,NA,NA,NA,NA,NA,NA,NA,NA,NA,NA,NA,NA,NA,NA,NA,NA,NA
SUPAMT98515,38BQUHLA92ZWP2T99NLNEXVBV9AOM0,C5DF7EFD-EF75-45CE-B5A9-9C0F7FA89CB7,2023-09-29_12h21.20.517,WP_VExplicitOC_LH,2022.2.5,Win32,1.002956716,NA,NA,2.5796,NA,NA,NA,NA,NA,frustrated,"frustrated, not frustrated","more frustrated, less frustrated",NA,NA,NA,NA,NA,NA,NA,NA,NA,NA,NA,NA,NA,NA,NA,0,0,0,1,1,NA,NA,NA,NA,NA,NA,NA,NA,NA,NA,NA,NA,NA,NA,NA,NA,NA,NA,NA,NA,NA,NA,NA,NA,NA,NA,NA,NA
SUPAMT98515,38BQUHLA92ZWP2T99NLNEXVBV9AOM0,C5DF7EFD-EF75-45CE-B5A9-9C0F7FA89CB7,2023-09-29_12h21.20.517,WP_VExplicitOC_LH,2022.2.5,Win32,1.002956716,29.8425788,6.2182,2.5972,NA,NA,NA,NA,NA,happy,"unhappy, happy","less happy, more happy",NA,NA,NA,NA,NA,NA,NA,NA,NA,NA,NA,NA,NA,NA,NA,0,1,1,0,1,NA,NA,NA,NA,NA,NA,NA,NA,NA,NA,NA,NA,NA,NA,NA,NA,NA,NA,NA,NA,NA,NA,NA,NA,NA,NA,NA,NA
SUPAMT98515,38BQUHLA92ZWP2T99NLNEXVBV9AOM0,C5DF7EFD-EF75-45CE-B5A9-9C0F7FA89CB7,2023-09-29_12h21.20.517,WP_VExplicitOC_LH,2022.2.5,Win32,1.002956716,20.26009687,6.2706,2.6064,NA,NA,NA,NA,NA,bored,"bored, not bored","more bored, less bored",NA,NA,NA,NA,NA,NA,NA,NA,NA,NA,NA,NA,NA,NA,NA,0,2,2,2,1,NA,NA,NA,NA,NA,NA,NA,NA,NA,NA,NA,NA,NA,NA,NA,NA,NA,NA,NA,NA,NA,NA,NA,NA,NA,NA,NA,NA
SUPAMT98515,38BQUHLA92ZWP2T99NLNEXVBV9AOM0,C5DF7EFD-EF75-45CE-B5A9-9C0F7FA89CB7,2023-09-29_12h21.20.517,WP_VExplicitOC_LH,2022.2.5,Win32,1.002956716,NA,NA,NA,NA,NA,NA,NA,NA,NA,NA,NA,NA,NA,NA,NA,NA,NA,NA,NA,NA,NA,NA,NA,NA,NA,NA,NA,NA,NA,NA,NA,7,0,7,0,1,NA,NA,NA,NA,NA,NA,NA,NA,NA,NA,NA,NA,NA,NA,NA,NA,NA,NA,NA,NA,NA,NA,NA
SUPAMT98515,38BQUHLA92ZWP2T99NLNEXVBV9AOM0,C5DF7EFD-EF75-45CE-B5A9-9C0F7FA89CB7,2023-09-29_12h21.20.517,WP_VExplicitOC_LH,2022.2.5,Win32,1.002956716,-44.35317335,7.0443,2.596,NA,NA,NA,NA,NA,bored,"bored, not bored","more bored, less bored",NA,NA,NA,NA,NA,NA,NA,NA,NA,NA,NA,NA,NA,NA,NA,0,0,0,2,1,NA,NA,NA,NA,NA,NA,NA,NA,NA,NA,NA,NA,NA,NA,NA,NA,NA,NA,NA,NA,NA,NA,NA,NA,NA,NA,NA,NA
SUPAMT98515,38BQUHLA92ZWP2T99NLNEXVBV9AOM0,C5DF7EFD-EF75-45CE-B5A9-9C0F7FA89CB7,2023-09-29_12h21.20.517,WP_VExplicitOC_LH,2022.2.5,Win32,1.002956716,6.297057855,4.7214,2.8975,NA,NA,NA,NA,NA,frustrated,"frustrated, not frustrated","more frustrated, less frustrated",NA,NA,NA,NA,NA,NA,NA,NA,NA,NA,NA,NA,NA,NA,NA,0,1,1,1,1,NA,NA,NA,NA,NA,NA,NA,NA,NA,NA,NA,NA,NA,NA,NA,NA,NA,NA,NA,NA,NA,NA,NA,NA,NA,NA,NA,NA
SUPAMT98515,38BQUHLA92ZWP2T99NLNEXVBV9AOM0,C5DF7EFD-EF75-45CE-B5A9-9C0F7FA89CB7,2023-09-29_12h21.20.517,WP_VExplicitOC_LH,2022.2.5,Win32,1.002956716,1.368926438,4.5534,2.4723,NA,NA,NA,NA,NA,happy,"unhappy, happy","less happy, more happy",NA,NA,NA,NA,NA,NA,NA,NA,NA,NA,NA,NA,NA,NA,NA,0,2,2,0,1,NA,NA,NA,NA,NA,NA,NA,NA,NA,NA,NA,NA,NA,NA,NA,NA,NA,NA,NA,NA,NA,NA,NA,NA,NA,NA,NA,NA
SUPAMT98515,38BQUHLA92ZWP2T99NLNEXVBV9AOM0,C5DF7EFD-EF75-45CE-B5A9-9C0F7FA89CB7,2023-09-29_12h21.20.517,WP_VExplicitOC_LH,2022.2.5,Win32,1.002956716,NA,NA,NA,NA,NA,NA,NA,NA,NA,NA,NA,NA,NA,NA,NA,NA,NA,NA,NA,NA,NA,NA,NA,NA,NA,NA,NA,NA,NA,NA,NA,8,0,8,0,1,NA,NA,NA,NA,NA,NA,NA,NA,NA,NA,NA,NA,NA,NA,NA,NA,NA,NA,NA,NA,NA,NA,NA
SUPAMT98515,38BQUHLA92ZWP2T99NLNEXVBV9AOM0,C5DF7EFD-EF75-45CE-B5A9-9C0F7FA89CB7,2023-09-29_12h21.20.517,WP_VExplicitOC_LH,2022.2.5,Win32,1.002956716,-4.654341116,5.7511,2.7046,NA,NA,NA,NA,NA,bored,"bored, not bored","more bored, less bored",NA,NA,NA,NA,NA,NA,NA,NA,NA,NA,NA,NA,NA,NA,NA,0,0,0,2,1,NA,NA,NA,NA,NA,NA,NA,NA,NA,NA,NA,NA,NA,NA,NA,NA,NA,NA,NA,NA,NA,NA,NA,NA,NA,NA,NA,NA
SUPAMT98515,38BQUHLA92ZWP2T99NLNEXVBV9AOM0,C5DF7EFD-EF75-45CE-B5A9-9C0F7FA89CB7,2023-09-29_12h21.20.517,WP_VExplicitOC_LH,2022.2.5,Win32,1.002956716,-81.31416524,3.6329,2.7326,NA,NA,NA,NA,NA,happy,"unhappy, happy","less happy, more happy",NA,NA,NA,NA,NA,NA,NA,NA,NA,NA,NA,NA,NA,NA,NA,0,1,1,0,1,NA,NA,NA,NA,NA,NA,NA,NA,NA,NA,NA,NA,NA,NA,NA,NA,NA,NA,NA,NA,NA,NA,NA,NA,NA,NA,NA,NA
SUPAMT98515,38BQUHLA92ZWP2T99NLNEXVBV9AOM0,C5DF7EFD-EF75-45CE-B5A9-9C0F7FA89CB7,2023-09-29_12h21.20.517,WP_VExplicitOC_LH,2022.2.5,Win32,1.002956716,-9.308691632,5.7118,2.0807,NA,NA,NA,NA,NA,frustrated,"frustrated, not frustrated","more frustrated, less frustrated",NA,NA,NA,NA,NA,NA,NA,NA,NA,NA,NA,NA,NA,NA,NA,0,2,2,1,1,NA,NA,NA,NA,NA,NA,NA,NA,NA,NA,NA,NA,NA,NA,NA,NA,NA,NA,NA,NA,NA,NA,NA,NA,NA,NA,NA,NA
SUPAMT98515,38BQUHLA92ZWP2T99NLNEXVBV9AOM0,C5DF7EFD-EF75-45CE-B5A9-9C0F7FA89CB7,2023-09-29_12h21.20.517,WP_VExplicitOC_LH,2022.2.5,Win32,1.002956716,NA,NA,NA,NA,NA,NA,NA,NA,NA,NA,NA,NA,NA,NA,NA,NA,NA,NA,NA,NA,NA,NA,NA,NA,NA,NA,NA,NA,NA,NA,NA,9,0,9,0,1,NA,NA,NA,NA,NA,NA,NA,NA,NA,NA,NA,NA,NA,NA,NA,NA,NA,NA,NA,NA,NA,NA,NA
SUPAMT98515,38BQUHLA92ZWP2T99NLNEXVBV9AOM0,C5DF7EFD-EF75-45CE-B5A9-9C0F7FA89CB7,2023-09-29_12h21.20.517,WP_VExplicitOC_LH,2022.2.5,Win32,1.002956716,56.94731413,7.0928,2.8401,NA,NA,NA,NA,NA,happy,"unhappy, happy","less happy, more happy",NA,NA,NA,NA,NA,NA,NA,NA,NA,NA,NA,NA,NA,NA,NA,0,0,0,0,1,NA,NA,NA,NA,NA,NA,NA,NA,NA,NA,NA,NA,NA,NA,NA,NA,NA,NA,NA,NA,NA,NA,NA,NA,NA,NA,NA,NA
SUPAMT98515,38BQUHLA92ZWP2T99NLNEXVBV9AOM0,C5DF7EFD-EF75-45CE-B5A9-9C0F7FA89CB7,2023-09-29_12h21.20.517,WP_VExplicitOC_LH,2022.2.5,Win32,1.002956716,-49.5550982,5.6159,2.1113,NA,NA,NA,NA,NA,frustrated,"frustrated, not frustrated","more frustrated, less frustrated",NA,NA,NA,NA,NA,NA,NA,NA,NA,NA,NA,NA,NA,NA,NA,0,1,1,1,1,NA,NA,NA,NA,NA,NA,NA,NA,NA,NA,NA,NA,NA,NA,NA,NA,NA,NA,NA,NA,NA,NA,NA,NA,NA,NA,NA,NA
SUPAMT98515,38BQUHLA92ZWP2T99NLNEXVBV9AOM0,C5DF7EFD-EF75-45CE-B5A9-9C0F7FA89CB7,2023-09-29_12h21.20.517,WP_VExplicitOC_LH,2022.2.5,Win32,1.002956716,-54.75701052,6.7388,2.7281,NA,NA,NA,NA,NA,bored,"bored, not bored","more bored, less bored",NA,NA,NA,NA,NA,NA,NA,NA,NA,NA,NA,NA,NA,NA,NA,0,2,2,2,1,NA,NA,NA,NA,NA,NA,NA,NA,NA,NA,NA,NA,NA,NA,NA,NA,NA,NA,NA,NA,NA,NA,NA,NA,NA,NA,NA,NA
SUPAMT98515,38BQUHLA92ZWP2T99NLNEXVBV9AOM0,C5DF7EFD-EF75-45CE-B5A9-9C0F7FA89CB7,2023-09-29_12h21.20.517,WP_VExplicitOC_LH,2022.2.5,Win32,1.002956716,NA,NA,NA,NA,NA,NA,NA,NA,NA,NA,NA,NA,NA,NA,NA,NA,NA,NA,NA,NA,NA,NA,NA,NA,NA,NA,NA,NA,NA,NA,NA,10,0,10,0,1,NA,NA,NA,NA,NA,NA,NA,NA,NA,NA,NA,NA,NA,NA,NA,NA,NA,NA,NA,NA,NA,NA,NA
SUPAMT98515,38BQUHLA92ZWP2T99NLNEXVBV9AOM0,C5DF7EFD-EF75-45CE-B5A9-9C0F7FA89CB7,2023-09-29_12h21.20.517,WP_VExplicitOC_LH,2022.2.5,Win32,1.002956716,47.09105129,4.7952,2.0836,NA,NA,NA,NA,NA,happy,"unhappy, happy","less happy, more happy",NA,NA,NA,NA,NA,NA,NA,NA,NA,NA,NA,NA,NA,NA,NA,0,0,0,0,1,NA,NA,NA,NA,NA,NA,NA,NA,NA,NA,NA,NA,NA,NA,NA,NA,NA,NA,NA,NA,NA,NA,NA,NA,NA,NA,NA,NA
SUPAMT98515,38BQUHLA92ZWP2T99NLNEXVBV9AOM0,C5DF7EFD-EF75-45CE-B5A9-9C0F7FA89CB7,2023-09-29_12h21.20.517,WP_VExplicitOC_LH,2022.2.5,Win32,1.002956716,49.555117,6.1348,2.8259,NA,NA,NA,NA,NA,bored,"bored, not bored","more bored, less bored",NA,NA,NA,NA,NA,NA,NA,NA,NA,NA,NA,NA,NA,NA,NA,0,1,1,2,1,NA,NA,NA,NA,NA,NA,NA,NA,NA,NA,NA,NA,NA,NA,NA,NA,NA,NA,NA,NA,NA,NA,NA,NA,NA,NA,NA,NA
SUPAMT98515,38BQUHLA92ZWP2T99NLNEXVBV9AOM0,C5DF7EFD-EF75-45CE-B5A9-9C0F7FA89CB7,2023-09-29_12h21.20.517,WP_VExplicitOC_LH,2022.2.5,Win32,1.002956716,40.5202094,6.3172,2.7418,NA,NA,NA,NA,NA,frustrated,"frustrated, not frustrated","more frustrated, less frustrated",NA,NA,NA,NA,NA,NA,NA,NA,NA,NA,NA,NA,NA,NA,NA,0,2,2,1,1,NA,NA,NA,NA,NA,NA,NA,NA,NA,NA,NA,NA,NA,NA,NA,NA,NA,NA,NA,NA,NA,NA,NA,NA,NA,NA,NA,NA
SUPAMT98515,38BQUHLA92ZWP2T99NLNEXVBV9AOM0,C5DF7EFD-EF75-45CE-B5A9-9C0F7FA89CB7,2023-09-29_12h21.20.517,WP_VExplicitOC_LH,2022.2.5,Win32,1.002956716,NA,NA,NA,NA,NA,NA,NA,NA,NA,NA,NA,NA,NA,NA,NA,NA,NA,NA,NA,NA,NA,NA,NA,NA,NA,NA,NA,NA,NA,NA,NA,11,0,11,0,1,NA,NA,NA,NA,NA,NA,NA,NA,NA,NA,NA,NA,NA,NA,NA,NA,NA,NA,NA,NA,NA,NA,NA
SUPAMT98515,38BQUHLA92ZWP2T99NLNEXVBV9AOM0,C5DF7EFD-EF75-45CE-B5A9-9C0F7FA89CB7,2023-09-29_12h21.20.517,WP_VExplicitOC_LH,2022.2.5,Win32,1.002956716,2.737856009,5.3736,2.7693,NA,NA,NA,NA,NA,frustrated,"frustrated, not frustrated","more frustrated, less frustrated",NA,NA,NA,NA,NA,NA,NA,NA,NA,NA,NA,NA,NA,NA,NA,0,0,0,1,1,NA,NA,NA,NA,NA,NA,NA,NA,NA,NA,NA,NA,NA,NA,NA,NA,NA,NA,NA,NA,NA,NA,NA,NA,NA,NA,NA,NA
SUPAMT98515,38BQUHLA92ZWP2T99NLNEXVBV9AOM0,C5DF7EFD-EF75-45CE-B5A9-9C0F7FA89CB7,2023-09-29_12h21.20.517,WP_VExplicitOC_LH,2022.2.5,Win32,1.002956716,28.47364923,5.7218,2.1617,NA,NA,NA,NA,NA,happy,"unhappy, happy","less happy, more happy",NA,NA,NA,NA,NA,NA,NA,NA,NA,NA,NA,NA,NA,NA,NA,0,1,1,0,1,NA,NA,NA,NA,NA,NA,NA,NA,NA,NA,NA,NA,NA,NA,NA,NA,NA,NA,NA,NA,NA,NA,NA,NA,NA,NA,NA,NA
SUPAMT98515,38BQUHLA92ZWP2T99NLNEXVBV9AOM0,C5DF7EFD-EF75-45CE-B5A9-9C0F7FA89CB7,2023-09-29_12h21.20.517,WP_VExplicitOC_LH,2022.2.5,Win32,1.002956716,1.642719872,6.2784,2.8112,NA,NA,NA,NA,NA,bored,"bored, not bored","more bored, less bored",NA,NA,NA,NA,NA,NA,NA,NA,NA,NA,NA,NA,NA,NA,NA,0,2,2,2,1,NA,NA,NA,NA,NA,NA,NA,NA,NA,NA,NA,NA,NA,NA,NA,NA,NA,NA,NA,NA,NA,NA,NA,NA,NA,NA,NA,NA
SUPAMT98515,38BQUHLA92ZWP2T99NLNEXVBV9AOM0,C5DF7EFD-EF75-45CE-B5A9-9C0F7FA89CB7,2023-09-29_12h21.20.517,WP_VExplicitOC_LH,2022.2.5,Win32,1.002956716,NA,NA,NA,NA,NA,NA,NA,NA,NA,NA,NA,NA,NA,NA,NA,NA,NA,NA,NA,NA,NA,NA,NA,NA,NA,NA,NA,NA,NA,NA,NA,12,0,12,0,1,NA,NA,NA,NA,NA,NA,NA,NA,NA,NA,NA,NA,NA,NA,NA,NA,NA,NA,NA,NA,NA,NA,NA
SUPAMT98515,38BQUHLA92ZWP2T99NLNEXVBV9AOM0,C5DF7EFD-EF75-45CE-B5A9-9C0F7FA89CB7,2023-09-29_12h21.20.517,WP_VExplicitOC_LH,2022.2.5,Win32,1.002956716,39.69885417,7.1742,2.7184,NA,NA,NA,NA,NA,bored,"bored, not bored","more bored, less bored",NA,NA,NA,NA,NA,NA,NA,NA,NA,NA,NA,NA,NA,NA,NA,0,0,0,2,1,NA,NA,NA,NA,NA,NA,NA,NA,NA,NA,NA,NA,NA,NA,NA,NA,NA,NA,NA,NA,NA,NA,NA,NA,NA,NA,NA,NA
SUPAMT98515,38BQUHLA92ZWP2T99NLNEXVBV9AOM0,C5DF7EFD-EF75-45CE-B5A9-9C0F7FA89CB7,2023-09-29_12h21.20.517,WP_VExplicitOC_LH,2022.2.5,Win32,1.002956716,37.23478846,5.4497,2.6218,NA,NA,NA,NA,NA,frustrated,"frustrated, not frustrated","more frustrated, less frustrated",NA,NA,NA,NA,NA,NA,NA,NA,NA,NA,NA,NA,NA,NA,NA,0,1,1,1,1,NA,NA,NA,NA,NA,NA,NA,NA,NA,NA,NA,NA,NA,NA,NA,NA,NA,NA,NA,NA,NA,NA,NA,NA,NA,NA,NA,NA
SUPAMT98515,38BQUHLA92ZWP2T99NLNEXVBV9AOM0,C5DF7EFD-EF75-45CE-B5A9-9C0F7FA89CB7,2023-09-29_12h21.20.517,WP_VExplicitOC_LH,2022.2.5,Win32,1.002956716,46.54346443,7.4413,2.6553,NA,NA,NA,NA,NA,happy,"unhappy, happy","less happy, more happy",NA,NA,NA,NA,NA,NA,NA,NA,NA,NA,NA,NA,NA,NA,NA,0,2,2,0,1,NA,NA,NA,NA,NA,NA,NA,NA,NA,NA,NA,NA,NA,NA,NA,NA,NA,NA,NA,NA,NA,NA,NA,NA,NA,NA,NA,NA
SUPAMT98515,38BQUHLA92ZWP2T99NLNEXVBV9AOM0,C5DF7EFD-EF75-45CE-B5A9-9C0F7FA89CB7,2023-09-29_12h21.20.517,WP_VExplicitOC_LH,2022.2.5,Win32,1.002956716,NA,NA,NA,NA,NA,NA,NA,NA,NA,NA,NA,NA,NA,NA,NA,NA,NA,NA,NA,NA,NA,NA,NA,NA,NA,NA,NA,NA,NA,NA,NA,13,0,13,0,1,NA,NA,NA,NA,NA,NA,NA,NA,NA,NA,NA,NA,NA,NA,NA,NA,NA,NA,NA,NA,NA,NA,NA
SUPAMT98515,38BQUHLA92ZWP2T99NLNEXVBV9AOM0,C5DF7EFD-EF75-45CE-B5A9-9C0F7FA89CB7,2023-09-29_12h21.20.517,WP_VExplicitOC_LH,2022.2.5,Win32,1.002956716,-42.16290108,6.0123,2.4697,NA,NA,NA,NA,NA,bored,"bored, not bored","more bored, less bored",NA,NA,NA,NA,NA,NA,NA,NA,NA,NA,NA,NA,NA,NA,NA,0,0,0,2,1,NA,NA,NA,NA,NA,NA,NA,NA,NA,NA,NA,NA,NA,NA,NA,NA,NA,NA,NA,NA,NA,NA,NA,NA,NA,NA,NA,NA
SUPAMT98515,38BQUHLA92ZWP2T99NLNEXVBV9AOM0,C5DF7EFD-EF75-45CE-B5A9-9C0F7FA89CB7,2023-09-29_12h21.20.517,WP_VExplicitOC_LH,2022.2.5,Win32,1.002956716,NA,NA,2.5182,NA,NA,NA,NA,NA,happy,"unhappy, happy","less happy, more happy",NA,NA,NA,NA,NA,NA,NA,NA,NA,NA,NA,NA,NA,NA,NA,0,1,1,0,1,NA,NA,NA,NA,NA,NA,NA,NA,NA,NA,NA,NA,NA,NA,NA,NA,NA,NA,NA,NA,NA,NA,NA,NA,NA,NA,NA,NA
SUPAMT98515,38BQUHLA92ZWP2T99NLNEXVBV9AOM0,C5DF7EFD-EF75-45CE-B5A9-9C0F7FA89CB7,2023-09-29_12h21.20.517,WP_VExplicitOC_LH,2022.2.5,Win32,1.002956716,-42.98425631,6.1321,2.5527,NA,NA,NA,NA,NA,frustrated,"frustrated, not frustrated","more frustrated, less frustrated",NA,NA,NA,NA,NA,NA,NA,NA,NA,NA,NA,NA,NA,NA,NA,0,2,2,1,1,NA,NA,NA,NA,NA,NA,NA,NA,NA,NA,NA,NA,NA,NA,NA,NA,NA,NA,NA,NA,NA,NA,NA,NA,NA,NA,NA,NA
SUPAMT98515,38BQUHLA92ZWP2T99NLNEXVBV9AOM0,C5DF7EFD-EF75-45CE-B5A9-9C0F7FA89CB7,2023-09-29_12h21.20.517,WP_VExplicitOC_LH,2022.2.5,Win32,1.002956716,NA,NA,NA,NA,NA,NA,NA,NA,NA,NA,NA,NA,NA,NA,NA,NA,NA,NA,NA,NA,NA,NA,NA,NA,NA,NA,NA,NA,NA,NA,NA,14,0,14,0,1,NA,NA,NA,NA,NA,NA,NA,NA,NA,NA,NA,NA,NA,NA,NA,NA,NA,NA,NA,NA,NA,NA,NA
SUPAMT98515,38BQUHLA92ZWP2T99NLNEXVBV9AOM0,C5DF7EFD-EF75-45CE-B5A9-9C0F7FA89CB7,2023-09-29_12h21.20.517,WP_VExplicitOC_LH,2022.2.5,Win32,1.002956716,NA,NA,NA,NA,NA,NA,NA,NA,NA,NA,NA,NA,NA,NA,NA,NA,NA,NA,NA,NA,NA,NA,NA,NA,NA,NA,NA,NA,NA,NA,NA,NA,NA,NA,NA,NA,NA,NA,NA,NA,NA,NA,NA,NA,NA,NA,NA,NA,NA,NA,NA,NA,NA,NA,NA,NA,NA,NA,NA
SUPAMT98515,38BQUHLA92ZWP2T99NLNEXVBV9AOM0,C5DF7EFD-EF75-45CE-B5A9-9C0F7FA89CB7,2023-09-29_12h21.20.517,WP_VExplicitOC_LH,2022.2.5,Win32,1.002956716,NA,NA,NA,NA,NA,NA,NA,NA,NA,NA,NA,NA,NA,NA,NA,NA,NA,NA,NA,NA,NA,NA,NA,NA,NA,NA,NA,NA,NA,NA,NA,NA,NA,NA,NA,NA,NA,NA,NA,NA,NA,NA,NA,NA,NA,NA,NA,NA,NA,NA,NA,NA,NA,NA,NA,NA,NA,NA,NA
SUPAMT98515,38BQUHLA92ZWP2T99NLNEXVBV9AOM0,C5DF7EFD-EF75-45CE-B5A9-9C0F7FA89CB7,2023-09-29_12h21.20.517,WP_VExplicitOC_LH,2022.2.5,Win32,1.002956716,NA,NA,NA,NA,NA,NA,NA,NA,NA,NA,NA,NA,NA,NA,NA,NA,NA,NA,rest (looking at a fixed cross),001.png,NA,NA,NA,NA,NA,NA,NA,NA,NA,NA,NA,NA,NA,NA,NA,NA,35.86584636,4.9423,0,0,0,0,1,NA,NA,NA,NA,NA,NA,NA,NA,NA,NA,NA,NA,NA,NA,NA,NA
SUPAMT98515,38BQUHLA92ZWP2T99NLNEXVBV9AOM0,C5DF7EFD-EF75-45CE-B5A9-9C0F7FA89CB7,2023-09-29_12h21.20.517,WP_VExplicitOC_LH,2022.2.5,Win32,1.002956716,NA,NA,NA,NA,NA,NA,NA,NA,NA,NA,NA,NA,NA,NA,NA,NA,NA,NA,stand up,002.png,NA,NA,NA,NA,NA,NA,NA,NA,NA,NA,NA,NA,NA,NA,NA,NA,41.88912644,1.6882,0,1,1,1,1,NA,NA,NA,NA,NA,NA,NA,NA,NA,NA,NA,NA,NA,NA,NA,NA
SUPAMT98515,38BQUHLA92ZWP2T99NLNEXVBV9AOM0,C5DF7EFD-EF75-45CE-B5A9-9C0F7FA89CB7,2023-09-29_12h21.20.517,WP_VExplicitOC_LH,2022.2.5,Win32,1.002956716,NA,NA,NA,NA,NA,NA,NA,NA,NA,NA,NA,NA,NA,NA,NA,NA,NA,NA,stretch,003.png,NA,NA,NA,NA,NA,NA,NA,NA,NA,NA,NA,NA,NA,NA,NA,NA,3.285430344,1.7491,0,2,2,2,1,NA,NA,NA,NA,NA,NA,NA,NA,NA,NA,NA,NA,NA,NA,NA,NA
SUPAMT98515,38BQUHLA92ZWP2T99NLNEXVBV9AOM0,C5DF7EFD-EF75-45CE-B5A9-9C0F7FA89CB7,2023-09-29_12h21.20.517,WP_VExplicitOC_LH,2022.2.5,Win32,1.002956716,NA,NA,NA,NA,NA,NA,NA,NA,NA,NA,NA,NA,NA,NA,NA,NA,NA,NA,make a drink,004.png,NA,NA,NA,NA,NA,NA,NA,NA,NA,NA,NA,NA,NA,NA,NA,NA,56.12595889,2.0818,0,3,3,3,1,NA,NA,NA,NA,NA,NA,NA,NA,NA,NA,NA,NA,NA,NA,NA,NA
SUPAMT98515,38BQUHLA92ZWP2T99NLNEXVBV9AOM0,C5DF7EFD-EF75-45CE-B5A9-9C0F7FA89CB7,2023-09-29_12h21.20.517,WP_VExplicitOC_LH,2022.2.5,Win32,1.002956716,NA,NA,NA,NA,NA,NA,NA,NA,NA,NA,NA,NA,NA,NA,NA,NA,NA,NA,scroll social media,005.png,NA,NA,NA,NA,NA,NA,NA,NA,NA,NA,NA,NA,NA,NA,NA,NA,-1.368920172,0.8527,0,4,4,4,1,NA,NA,NA,NA,NA,NA,NA,NA,NA,NA,NA,NA,NA,NA,NA,NA
SUPAMT98515,38BQUHLA92ZWP2T99NLNEXVBV9AOM0,C5DF7EFD-EF75-45CE-B5A9-9C0F7FA89CB7,2023-09-29_12h21.20.517,WP_VExplicitOC_LH,2022.2.5,Win32,1.002956716,NA,NA,NA,NA,NA,NA,NA,NA,NA,NA,NA,NA,NA,NA,NA,NA,NA,NA,listen to music,006.png,NA,NA,NA,NA,NA,NA,NA,NA,NA,NA,NA,NA,NA,NA,NA,NA,76.65983979,1.7865,0,5,5,5,1,NA,NA,NA,NA,NA,NA,NA,NA,NA,NA,NA,NA,NA,NA,NA,NA
SUPAMT98515,38BQUHLA92ZWP2T99NLNEXVBV9AOM0,C5DF7EFD-EF75-45CE-B5A9-9C0F7FA89CB7,2023-09-29_12h21.20.517,WP_VExplicitOC_LH,2022.2.5,Win32,1.002956716,NA,NA,NA,NA,NA,NA,NA,NA,NA,NA,NA,NA,NA,NA,NA,NA,NA,NA,daydream,007.png,NA,NA,NA,NA,NA,NA,NA,NA,NA,NA,NA,NA,NA,NA,NA,NA,56.94731413,2.9177,0,6,6,6,1,NA,NA,NA,NA,NA,NA,NA,NA,NA,NA,NA,NA,NA,NA,NA,NA
SUPAMT98515,38BQUHLA92ZWP2T99NLNEXVBV9AOM0,C5DF7EFD-EF75-45CE-B5A9-9C0F7FA89CB7,2023-09-29_12h21.20.517,WP_VExplicitOC_LH,2022.2.5,Win32,1.002956716,NA,NA,NA,NA,NA,NA,NA,NA,NA,NA,NA,NA,NA,NA,NA,NA,NA,NA,watch a short animation,008.png,NA,NA,NA,NA,NA,NA,NA,NA,NA,NA,NA,NA,NA,NA,NA,NA,76.11225293,0.9166,0,7,7,7,1,NA,NA,NA,NA,NA,NA,NA,NA,NA,NA,NA,NA,NA,NA,NA,NA
SUPAMT98515,38BQUHLA92ZWP2T99NLNEXVBV9AOM0,C5DF7EFD-EF75-45CE-B5A9-9C0F7FA89CB7,2023-09-29_12h21.20.517,WP_VExplicitOC_LH,2022.2.5,Win32,1.002956716,NA,NA,NA,NA,NA,NA,NA,NA,NA,NA,NA,NA,NA,NA,NA,NA,NA,NA,read a novel,009.png,NA,NA,NA,NA,NA,NA,NA,NA,NA,NA,NA,NA,NA,NA,NA,NA,57.2210825,4.6482,0,8,8,8,1,NA,NA,NA,NA,NA,NA,NA,NA,NA,NA,NA,NA,NA,NA,NA,NA
SUPAMT98515,38BQUHLA92ZWP2T99NLNEXVBV9AOM0,C5DF7EFD-EF75-45CE-B5A9-9C0F7FA89CB7,2023-09-29_12h21.20.517,WP_VExplicitOC_LH,2022.2.5,Win32,1.002956716,NA,NA,NA,NA,NA,NA,NA,NA,NA,NA,NA,NA,NA,NA,NA,NA,NA,NA,read the news,010.png,NA,NA,NA,NA,NA,NA,NA,NA,NA,NA,NA,NA,NA,NA,NA,NA,42.43668824,1.8169,0,9,9,9,1,NA,NA,NA,NA,NA,NA,NA,NA,NA,NA,NA,NA,NA,NA,NA,NA
SUPAMT98515,38BQUHLA92ZWP2T99NLNEXVBV9AOM0,C5DF7EFD-EF75-45CE-B5A9-9C0F7FA89CB7,2023-09-29_12h21.20.517,WP_VExplicitOC_LH,2022.2.5,Win32,1.002956716,NA,NA,NA,NA,NA,NA,NA,NA,NA,NA,NA,NA,NA,NA,NA,NA,NA,NA,NA,NA,NA,NA,NA,NA,NA,NA,NA,NA,NA,NA,NA,NA,NA,NA,NA,NA,NA,NA,NA,NA,NA,NA,NA,listen to music,NA,NA,NA,NA,NA,NA,NA,NA,NA,NA,NA,NA,NA,NA,NA
SUPAMT98515,38BQUHLA92ZWP2T99NLNEXVBV9AOM0,C5DF7EFD-EF75-45CE-B5A9-9C0F7FA89CB7,2023-09-29_12h21.20.517,WP_VExplicitOC_LH,2022.2.5,Win32,1.002956716,NA,NA,2.4633,NA,NA,NA,NA,NA,frustrated,"frustrated, not frustrated","more frustrated, less frustrated",NA,NA,NA,NA,NA,NA,NA,NA,NA,NA,NA,NA,NA,NA,NA,NA,NA,NA,NA,NA,NA,NA,NA,NA,NA,NA,NA,NA,NA,NA,NA,NA,NA,0,0,0,1,1,NA,NA,NA,NA,NA,NA,NA,NA,NA,NA
SUPAMT98515,38BQUHLA92ZWP2T99NLNEXVBV9AOM0,C5DF7EFD-EF75-45CE-B5A9-9C0F7FA89CB7,2023-09-29_12h21.20.517,WP_VExplicitOC_LH,2022.2.5,Win32,1.002956716,-36.41341442,6.0681,2.4881,NA,NA,NA,NA,NA,happy,"unhappy, happy","less happy, more happy",NA,NA,NA,NA,NA,NA,NA,NA,NA,NA,NA,NA,NA,NA,NA,NA,NA,NA,NA,NA,NA,NA,NA,NA,NA,NA,NA,NA,NA,NA,NA,NA,NA,0,1,1,0,1,NA,NA,NA,NA,NA,NA,NA,NA,NA,NA
SUPAMT98515,38BQUHLA92ZWP2T99NLNEXVBV9AOM0,C5DF7EFD-EF75-45CE-B5A9-9C0F7FA89CB7,2023-09-29_12h21.20.517,WP_VExplicitOC_LH,2022.2.5,Win32,1.002956716,-49.28130477,5.2347,2.4966,NA,NA,NA,NA,NA,bored,"bored, not bored","more bored, less bored",NA,NA,NA,NA,NA,NA,NA,NA,NA,NA,NA,NA,NA,NA,NA,NA,NA,NA,NA,NA,NA,NA,NA,NA,NA,NA,NA,NA,NA,NA,NA,NA,NA,0,2,2,2,1,NA,NA,NA,NA,NA,NA,NA,NA,NA,NA
SUPAMT98515,38BQUHLA92ZWP2T99NLNEXVBV9AOM0,C5DF7EFD-EF75-45CE-B5A9-9C0F7FA89CB7,2023-09-29_12h21.20.517,WP_VExplicitOC_LH,2022.2.5,Win32,1.002956716,NA,NA,NA,NA,NA,NA,NA,NA,NA,NA,NA,NA,NA,NA,NA,NA,NA,NA,NA,NA,NA,NA,NA,NA,NA,NA,NA,NA,NA,NA,NA,NA,NA,NA,NA,NA,NA,NA,NA,NA,NA,NA,NA,NA,NA,NA,NA,NA,NA,NA,NA,NA,NA,NA,NA,NA,NA,NA,NA
SUPAMT98515,38BQUHLA92ZWP2T99NLNEXVBV9AOM0,C5DF7EFD-EF75-45CE-B5A9-9C0F7FA89CB7,2023-09-29_12h21.20.517,WP_VExplicitOC_LH,2022.2.5,Win32,1.002956716,NA,NA,NA,NA,NA,NA,NA,NA,NA,NA,NA,NA,NA,NA,NA,NA,NA,NA,NA,NA,NA,NA,NA,NA,NA,NA,NA,NA,NA,NA,NA,NA,NA,NA,NA,NA,NA,NA,NA,NA,NA,NA,NA,NA,NA,NA,NA,NA,NA,NA,NA,NA,NA,NA,NA,NA,NA,NA,NA
SUPAMT98515,38BQUHLA92ZWP2T99NLNEXVBV9AOM0,C5DF7EFD-EF75-45CE-B5A9-9C0F7FA89CB7,2023-09-29_12h21.20.517,WP_VExplicitOC_LH,2022.2.5,Win32,1.002956716,-29.5687791,5.3103,2.462,NA,NA,NA,NA,NA,frustrated,"frustrated, not frustrated","more frustrated, less frustrated",NA,NA,NA,NA,NA,NA,NA,NA,NA,NA,NA,NA,NA,NA,NA,NA,NA,NA,NA,NA,NA,NA,NA,NA,NA,NA,NA,NA,NA,NA,NA,NA,NA,NA,NA,NA,NA,NA,0,0,0,1,1,NA,NA,NA,NA,NA
SUPAMT98515,38BQUHLA92ZWP2T99NLNEXVBV9AOM0,C5DF7EFD-EF75-45CE-B5A9-9C0F7FA89CB7,2023-09-29_12h21.20.517,WP_VExplicitOC_LH,2022.2.5,Win32,1.002956716,-1.368920172,6.1715,2.4324,NA,NA,NA,NA,NA,bored,"bored, not bored","more bored, less bored",NA,NA,NA,NA,NA,NA,NA,NA,NA,NA,NA,NA,NA,NA,NA,NA,NA,NA,NA,NA,NA,NA,NA,NA,NA,NA,NA,NA,NA,NA,NA,NA,NA,NA,NA,NA,NA,NA,0,1,1,2,1,NA,NA,NA,NA,NA
SUPAMT98515,38BQUHLA92ZWP2T99NLNEXVBV9AOM0,C5DF7EFD-EF75-45CE-B5A9-9C0F7FA89CB7,2023-09-29_12h21.20.517,WP_VExplicitOC_LH,2022.2.5,Win32,1.002956716,NA,NA,2.4757,NA,NA,NA,NA,NA,happy,"unhappy, happy","less happy, more happy",NA,NA,NA,NA,NA,NA,NA,NA,NA,NA,NA,NA,NA,NA,NA,NA,NA,NA,NA,NA,NA,NA,NA,NA,NA,NA,NA,NA,NA,NA,NA,NA,NA,NA,NA,NA,NA,NA,0,2,2,0,1,NA,NA,NA,NA,NA
SUPAMT98515,38BQUHLA92ZWP2T99NLNEXVBV9AOM0,C5DF7EFD-EF75-45CE-B5A9-9C0F7FA89CB7,2023-09-29_12h21.20.517,WP_VExplicitOC_LH,2022.2.5,Win32,1.002956716,NA,NA,NA,NA,NA,NA,NA,NA,NA,NA,NA,NA,NA,NA,NA,NA,NA,NA,NA,NA,NA,NA,NA,NA,NA,NA,NA,NA,NA,NA,NA,NA,NA,NA,NA,NA,NA,NA,NA,NA,NA,NA,NA,NA,NA,NA,NA,NA,NA,NA,NA,NA,NA,NA,0,0,0,0,1
SUPAMT98515,38BQUHLA92ZWP2T99NLNEXVBV9AOM0,C5DF7EFD-EF75-45CE-B5A9-9C0F7FA89CB7,2023-09-29_12h21.20.517,WP_VExplicitOC_LH,2022.2.5,Win32,1.002956716,44.62698559,6.1483,2.6202,NA,NA,NA,NA,NA,happy,"unhappy, happy","less happy, more happy",NA,NA,NA,NA,NA,NA,NA,NA,NA,NA,NA,NA,NA,NA,NA,NA,NA,NA,NA,NA,NA,NA,NA,NA,NA,NA,NA,NA,NA,NA,NA,NA,NA,NA,NA,NA,NA,NA,0,0,0,0,1,NA,NA,NA,NA,NA
SUPAMT98515,38BQUHLA92ZWP2T99NLNEXVBV9AOM0,C5DF7EFD-EF75-45CE-B5A9-9C0F7FA89CB7,2023-09-29_12h21.20.517,WP_VExplicitOC_LH,2022.2.5,Win32,1.002956716,-37.50855056,6.8421,2.5958,NA,NA,NA,NA,NA,frustrated,"frustrated, not frustrated","more frustrated, less frustrated",NA,NA,NA,NA,NA,NA,NA,NA,NA,NA,NA,NA,NA,NA,NA,NA,NA,NA,NA,NA,NA,NA,NA,NA,NA,NA,NA,NA,NA,NA,NA,NA,NA,NA,NA,NA,NA,NA,0,1,1,1,1,NA,NA,NA,NA,NA
SUPAMT98515,38BQUHLA92ZWP2T99NLNEXVBV9AOM0,C5DF7EFD-EF75-45CE-B5A9-9C0F7FA89CB7,2023-09-29_12h21.20.517,WP_VExplicitOC_LH,2022.2.5,Win32,1.002956716,-41.61532674,5.9489,2.6677,NA,NA,NA,NA,NA,bored,"bored, not bored","more bored, less bored",NA,NA,NA,NA,NA,NA,NA,NA,NA,NA,NA,NA,NA,NA,NA,NA,NA,NA,NA,NA,NA,NA,NA,NA,NA,NA,NA,NA,NA,NA,NA,NA,NA,NA,NA,NA,NA,NA,0,2,2,2,1,NA,NA,NA,NA,NA
SUPAMT98515,38BQUHLA92ZWP2T99NLNEXVBV9AOM0,C5DF7EFD-EF75-45CE-B5A9-9C0F7FA89CB7,2023-09-29_12h21.20.517,WP_VExplicitOC_LH,2022.2.5,Win32,1.002956716,NA,NA,NA,NA,NA,NA,NA,NA,NA,NA,NA,NA,NA,NA,NA,NA,NA,NA,NA,NA,NA,NA,NA,NA,NA,NA,NA,NA,NA,NA,NA,NA,NA,NA,NA,NA,NA,NA,NA,NA,NA,NA,NA,NA,NA,NA,NA,NA,NA,NA,NA,NA,NA,NA,1,0,1,0,1
SUPAMT98515,38BQUHLA92ZWP2T99NLNEXVBV9AOM0,C5DF7EFD-EF75-45CE-B5A9-9C0F7FA89CB7,2023-09-29_12h21.20.517,WP_VExplicitOC_LH,2022.2.5,Win32,1.002956716,-24.91444112,6.3456,2.7309,NA,NA,NA,NA,NA,frustrated,"frustrated, not frustrated","more frustrated, less frustrated",NA,NA,NA,NA,NA,NA,NA,NA,NA,NA,NA,NA,NA,NA,NA,NA,NA,NA,NA,NA,NA,NA,NA,NA,NA,NA,NA,NA,NA,NA,NA,NA,NA,NA,NA,NA,NA,NA,0,0,0,1,1,NA,NA,NA,NA,NA
SUPAMT98515,38BQUHLA92ZWP2T99NLNEXVBV9AOM0,C5DF7EFD-EF75-45CE-B5A9-9C0F7FA89CB7,2023-09-29_12h21.20.517,WP_VExplicitOC_LH,2022.2.5,Win32,1.002956716,4.928140817,5.3472,2.7632,NA,NA,NA,NA,NA,happy,"unhappy, happy","less happy, more happy",NA,NA,NA,NA,NA,NA,NA,NA,NA,NA,NA,NA,NA,NA,NA,NA,NA,NA,NA,NA,NA,NA,NA,NA,NA,NA,NA,NA,NA,NA,NA,NA,NA,NA,NA,NA,NA,NA,0,1,1,0,1,NA,NA,NA,NA,NA
SUPAMT98515,38BQUHLA92ZWP2T99NLNEXVBV9AOM0,C5DF7EFD-EF75-45CE-B5A9-9C0F7FA89CB7,2023-09-29_12h21.20.517,WP_VExplicitOC_LH,2022.2.5,Win32,1.002956716,-31.48528301,5.5009,2.0312,NA,NA,NA,NA,NA,bored,"bored, not bored","more bored, less bored",NA,NA,NA,NA,NA,NA,NA,NA,NA,NA,NA,NA,NA,NA,NA,NA,NA,NA,NA,NA,NA,NA,NA,NA,NA,NA,NA,NA,NA,NA,NA,NA,NA,NA,NA,NA,NA,NA,0,2,2,2,1,NA,NA,NA,NA,NA
SUPAMT98515,38BQUHLA92ZWP2T99NLNEXVBV9AOM0,C5DF7EFD-EF75-45CE-B5A9-9C0F7FA89CB7,2023-09-29_12h21.20.517,WP_VExplicitOC_LH,2022.2.5,Win32,1.002956716,NA,NA,NA,NA,NA,NA,NA,NA,NA,NA,NA,NA,NA,NA,NA,NA,NA,NA,NA,NA,NA,NA,NA,NA,NA,NA,NA,NA,NA,NA,NA,NA,NA,NA,NA,NA,NA,NA,NA,NA,NA,NA,NA,NA,NA,NA,NA,NA,NA,NA,NA,NA,NA,NA,2,0,2,0,1
SUPAMT98515,38BQUHLA92ZWP2T99NLNEXVBV9AOM0,C5DF7EFD-EF75-45CE-B5A9-9C0F7FA89CB7,2023-09-29_12h21.20.517,WP_VExplicitOC_LH,2022.2.5,Win32,1.002956716,-39.15126103,7.2308,2.8584,NA,NA,NA,NA,NA,frustrated,"frustrated, not frustrated","more frustrated, less frustrated",NA,NA,NA,NA,NA,NA,NA,NA,NA,NA,NA,NA,NA,NA,NA,NA,NA,NA,NA,NA,NA,NA,NA,NA,NA,NA,NA,NA,NA,NA,NA,NA,NA,NA,NA,NA,NA,NA,0,0,0,1,1,NA,NA,NA,NA,NA
SUPAMT98515,38BQUHLA92ZWP2T99NLNEXVBV9AOM0,C5DF7EFD-EF75-45CE-B5A9-9C0F7FA89CB7,2023-09-29_12h21.20.517,WP_VExplicitOC_LH,2022.2.5,Win32,1.002956716,4.10678558,4.3399,2.5934,NA,NA,NA,NA,NA,bored,"bored, not bored","more bored, less bored",NA,NA,NA,NA,NA,NA,NA,NA,NA,NA,NA,NA,NA,NA,NA,NA,NA,NA,NA,NA,NA,NA,NA,NA,NA,NA,NA,NA,NA,NA,NA,NA,NA,NA,NA,NA,NA,NA,0,1,1,2,1,NA,NA,NA,NA,NA
SUPAMT98515,38BQUHLA92ZWP2T99NLNEXVBV9AOM0,C5DF7EFD-EF75-45CE-B5A9-9C0F7FA89CB7,2023-09-29_12h21.20.517,WP_VExplicitOC_LH,2022.2.5,Win32,1.002956716,-53.38808095,4.5586,2.0036,NA,NA,NA,NA,NA,happy,"unhappy, happy","less happy, more happy",NA,NA,NA,NA,NA,NA,NA,NA,NA,NA,NA,NA,NA,NA,NA,NA,NA,NA,NA,NA,NA,NA,NA,NA,NA,NA,NA,NA,NA,NA,NA,NA,NA,NA,NA,NA,NA,NA,0,2,2,0,1,NA,NA,NA,NA,NA
SUPAMT98515,38BQUHLA92ZWP2T99NLNEXVBV9AOM0,C5DF7EFD-EF75-45CE-B5A9-9C0F7FA89CB7,2023-09-29_12h21.20.517,WP_VExplicitOC_LH,2022.2.5,Win32,1.002956716,NA,NA,NA,NA,NA,NA,NA,NA,NA,NA,NA,NA,NA,NA,NA,NA,NA,NA,NA,NA,NA,NA,NA,NA,NA,NA,NA,NA,NA,NA,NA,NA,NA,NA,NA,NA,NA,NA,NA,NA,NA,NA,NA,NA,NA,NA,NA,NA,NA,NA,NA,NA,NA,NA,3,0,3,0,1
SUPAMT98515,38BQUHLA92ZWP2T99NLNEXVBV9AOM0,C5DF7EFD-EF75-45CE-B5A9-9C0F7FA89CB7,2023-09-29_12h21.20.517,WP_VExplicitOC_LH,2022.2.5,Win32,1.002956716,-24.91444112,6.8304,2.9346,NA,NA,NA,NA,NA,frustrated,"frustrated, not frustrated","more frustrated, less frustrated",NA,NA,NA,NA,NA,NA,NA,NA,NA,NA,NA,NA,NA,NA,NA,NA,NA,NA,NA,NA,NA,NA,NA,NA,NA,NA,NA,NA,NA,NA,NA,NA,NA,NA,NA,NA,NA,NA,0,0,0,1,1,NA,NA,NA,NA,NA
SUPAMT98515,38BQUHLA92ZWP2T99NLNEXVBV9AOM0,C5DF7EFD-EF75-45CE-B5A9-9C0F7FA89CB7,2023-09-29_12h21.20.517,WP_VExplicitOC_LH,2022.2.5,Win32,1.002956716,NA,NA,2.6287,NA,NA,NA,NA,NA,bored,"bored, not bored","more bored, less bored",NA,NA,NA,NA,NA,NA,NA,NA,NA,NA,NA,NA,NA,NA,NA,NA,NA,NA,NA,NA,NA,NA,NA,NA,NA,NA,NA,NA,NA,NA,NA,NA,NA,NA,NA,NA,NA,NA,0,1,1,2,1,NA,NA,NA,NA,NA
SUPAMT98515,38BQUHLA92ZWP2T99NLNEXVBV9AOM0,C5DF7EFD-EF75-45CE-B5A9-9C0F7FA89CB7,2023-09-29_12h21.20.517,WP_VExplicitOC_LH,2022.2.5,Win32,1.002956716,47.36481966,7.4068,2.7028,NA,NA,NA,NA,NA,happy,"unhappy, happy","less happy, more happy",NA,NA,NA,NA,NA,NA,NA,NA,NA,NA,NA,NA,NA,NA,NA,NA,NA,NA,NA,NA,NA,NA,NA,NA,NA,NA,NA,NA,NA,NA,NA,NA,NA,NA,NA,NA,NA,NA,0,2,2,0,1,NA,NA,NA,NA,NA
SUPAMT98515,38BQUHLA92ZWP2T99NLNEXVBV9AOM0,C5DF7EFD-EF75-45CE-B5A9-9C0F7FA89CB7,2023-09-29_12h21.20.517,WP_VExplicitOC_LH,2022.2.5,Win32,1.002956716,NA,NA,NA,NA,NA,NA,NA,NA,NA,NA,NA,NA,NA,NA,NA,NA,NA,NA,NA,NA,NA,NA,NA,NA,NA,NA,NA,NA,NA,NA,NA,NA,NA,NA,NA,NA,NA,NA,NA,NA,NA,NA,NA,NA,NA,NA,NA,NA,NA,NA,NA,NA,NA,NA,4,0,4,0,1
SUPAMT98515,38BQUHLA92ZWP2T99NLNEXVBV9AOM0,C5DF7EFD-EF75-45CE-B5A9-9C0F7FA89CB7,2023-09-29_12h21.20.517,WP_VExplicitOC_LH,2022.2.5,Win32,1.002956716,-26.00957726,5.4774,2.5371,NA,NA,NA,NA,NA,bored,"bored, not bored","more bored, less bored",NA,NA,NA,NA,NA,NA,NA,NA,NA,NA,NA,NA,NA,NA,NA,NA,NA,NA,NA,NA,NA,NA,NA,NA,NA,NA,NA,NA,NA,NA,NA,NA,NA,NA,NA,NA,NA,NA,0,0,0,2,1,NA,NA,NA,NA,NA
SUPAMT98515,38BQUHLA92ZWP2T99NLNEXVBV9AOM0,C5DF7EFD-EF75-45CE-B5A9-9C0F7FA89CB7,2023-09-29_12h21.20.517,WP_VExplicitOC_LH,2022.2.5,Win32,1.002956716,64.88707305,5.387,2.4714,NA,NA,NA,NA,NA,happy,"unhappy, happy","less happy, more happy",NA,NA,NA,NA,NA,NA,NA,NA,NA,NA,NA,NA,NA,NA,NA,NA,NA,NA,NA,NA,NA,NA,NA,NA,NA,NA,NA,NA,NA,NA,NA,NA,NA,NA,NA,NA,NA,NA,0,1,1,0,1,NA,NA,NA,NA,NA
SUPAMT98515,38BQUHLA92ZWP2T99NLNEXVBV9AOM0,C5DF7EFD-EF75-45CE-B5A9-9C0F7FA89CB7,2023-09-29_12h21.20.517,WP_VExplicitOC_LH,2022.2.5,Win32,1.002956716,41.06777121,5.4822,2.5695,NA,NA,NA,NA,NA,frustrated,"frustrated, not frustrated","more frustrated, less frustrated",NA,NA,NA,NA,NA,NA,NA,NA,NA,NA,NA,NA,NA,NA,NA,NA,NA,NA,NA,NA,NA,NA,NA,NA,NA,NA,NA,NA,NA,NA,NA,NA,NA,NA,NA,NA,NA,NA,0,2,2,1,1,NA,NA,NA,NA,NA
SUPAMT98515,38BQUHLA92ZWP2T99NLNEXVBV9AOM0,C5DF7EFD-EF75-45CE-B5A9-9C0F7FA89CB7,2023-09-29_12h21.20.517,WP_VExplicitOC_LH,2022.2.5,Win32,1.002956716,NA,NA,NA,NA,NA,NA,NA,NA,NA,NA,NA,NA,NA,NA,NA,NA,NA,NA,NA,NA,NA,NA,NA,NA,NA,NA,NA,NA,NA,NA,NA,NA,NA,NA,NA,NA,NA,NA,NA,NA,NA,NA,NA,NA,NA,NA,NA,NA,NA,NA,NA,NA,NA,NA,5,0,5,0,1
SUPAMT98515,38BQUHLA92ZWP2T99NLNEXVBV9AOM0,C5DF7EFD-EF75-45CE-B5A9-9C0F7FA89CB7,2023-09-29_12h21.20.517,WP_VExplicitOC_LH,2022.2.5,Win32,1.002956716,NA,NA,2.5955,NA,NA,NA,NA,NA,happy,"unhappy, happy","less happy, more happy",NA,NA,NA,NA,NA,NA,NA,NA,NA,NA,NA,NA,NA,NA,NA,NA,NA,NA,NA,NA,NA,NA,NA,NA,NA,NA,NA,NA,NA,NA,NA,NA,NA,NA,NA,NA,NA,NA,0,0,0,0,1,NA,NA,NA,NA,NA
SUPAMT98515,38BQUHLA92ZWP2T99NLNEXVBV9AOM0,C5DF7EFD-EF75-45CE-B5A9-9C0F7FA89CB7,2023-09-29_12h21.20.517,WP_VExplicitOC_LH,2022.2.5,Win32,1.002956716,NA,NA,2.5826,NA,NA,NA,NA,NA,bored,"bored, not bored","more bored, less bored",NA,NA,NA,NA,NA,NA,NA,NA,NA,NA,NA,NA,NA,NA,NA,NA,NA,NA,NA,NA,NA,NA,NA,NA,NA,NA,NA,NA,NA,NA,NA,NA,NA,NA,NA,NA,NA,NA,0,1,1,2,1,NA,NA,NA,NA,NA
SUPAMT98515,38BQUHLA92ZWP2T99NLNEXVBV9AOM0,C5DF7EFD-EF75-45CE-B5A9-9C0F7FA89CB7,2023-09-29_12h21.20.517,WP_VExplicitOC_LH,2022.2.5,Win32,1.002956716,NA,NA,2.889,NA,NA,NA,NA,NA,frustrated,"frustrated, not frustrated","more frustrated, less frustrated",NA,NA,NA,NA,NA,NA,NA,NA,NA,NA,NA,NA,NA,NA,NA,NA,NA,NA,NA,NA,NA,NA,NA,NA,NA,NA,NA,NA,NA,NA,NA,NA,NA,NA,NA,NA,NA,NA,0,2,2,1,1,NA,NA,NA,NA,NA
SUPAMT98515,38BQUHLA92ZWP2T99NLNEXVBV9AOM0,C5DF7EFD-EF75-45CE-B5A9-9C0F7FA89CB7,2023-09-29_12h21.20.517,WP_VExplicitOC_LH,2022.2.5,Win32,1.002956716,NA,NA,NA,NA,NA,NA,NA,NA,NA,NA,NA,NA,NA,NA,NA,NA,NA,NA,NA,NA,NA,NA,NA,NA,NA,NA,NA,NA,NA,NA,NA,NA,NA,NA,NA,NA,NA,NA,NA,NA,NA,NA,NA,NA,NA,NA,NA,NA,NA,NA,NA,NA,NA,NA,6,0,6,0,1
SUPAMT98515,38BQUHLA92ZWP2T99NLNEXVBV9AOM0,C5DF7EFD-EF75-45CE-B5A9-9C0F7FA89CB7,2023-09-29_12h21.20.517,WP_VExplicitOC_LH,2022.2.5,Win32,1.002956716,NA,NA,2.5436,NA,NA,NA,NA,NA,happy,"unhappy, happy","less happy, more happy",NA,NA,NA,NA,NA,NA,NA,NA,NA,NA,NA,NA,NA,NA,NA,NA,NA,NA,NA,NA,NA,NA,NA,NA,NA,NA,NA,NA,NA,NA,NA,NA,NA,NA,NA,NA,NA,NA,0,0,0,0,1,NA,NA,NA,NA,NA
SUPAMT98515,38BQUHLA92ZWP2T99NLNEXVBV9AOM0,C5DF7EFD-EF75-45CE-B5A9-9C0F7FA89CB7,2023-09-29_12h21.20.517,WP_VExplicitOC_LH,2022.2.5,Win32,1.002956716,NA,NA,3.8449,NA,NA,NA,NA,NA,frustrated,"frustrated, not frustrated","more frustrated, less frustrated",NA,NA,NA,NA,NA,NA,NA,NA,NA,NA,NA,NA,NA,NA,NA,NA,NA,NA,NA,NA,NA,NA,NA,NA,NA,NA,NA,NA,NA,NA,NA,NA,NA,NA,NA,NA,NA,NA,0,1,1,1,1,NA,NA,NA,NA,NA
SUPAMT98515,38BQUHLA92ZWP2T99NLNEXVBV9AOM0,C5DF7EFD-EF75-45CE-B5A9-9C0F7FA89CB7,2023-09-29_12h21.20.517,WP_VExplicitOC_LH,2022.2.5,Win32,1.002956716,-28.74742387,7.0536,2.6794,NA,NA,NA,NA,NA,bored,"bored, not bored","more bored, less bored",NA,NA,NA,NA,NA,NA,NA,NA,NA,NA,NA,NA,NA,NA,NA,NA,NA,NA,NA,NA,NA,NA,NA,NA,NA,NA,NA,NA,NA,NA,NA,NA,NA,NA,NA,NA,NA,NA,0,2,2,2,1,NA,NA,NA,NA,NA
SUPAMT98515,38BQUHLA92ZWP2T99NLNEXVBV9AOM0,C5DF7EFD-EF75-45CE-B5A9-9C0F7FA89CB7,2023-09-29_12h21.20.517,WP_VExplicitOC_LH,2022.2.5,Win32,1.002956716,NA,NA,NA,NA,NA,NA,NA,NA,NA,NA,NA,NA,NA,NA,NA,NA,NA,NA,NA,NA,NA,NA,NA,NA,NA,NA,NA,NA,NA,NA,NA,NA,NA,NA,NA,NA,NA,NA,NA,NA,NA,NA,NA,NA,NA,NA,NA,NA,NA,NA,NA,NA,NA,NA,7,0,7,0,1
SUPAMT98515,38BQUHLA92ZWP2T99NLNEXVBV9AOM0,C5DF7EFD-EF75-45CE-B5A9-9C0F7FA89CB7,2023-09-29_12h21.20.517,WP_VExplicitOC_LH,2022.2.5,Win32,1.002956716,NA,NA,2.7009,NA,NA,NA,NA,NA,bored,"bored, not bored","more bored, less bored",NA,NA,NA,NA,NA,NA,NA,NA,NA,NA,NA,NA,NA,NA,NA,NA,NA,NA,NA,NA,NA,NA,NA,NA,NA,NA,NA,NA,NA,NA,NA,NA,NA,NA,NA,NA,NA,NA,0,0,0,2,1,NA,NA,NA,NA,NA
SUPAMT98515,38BQUHLA92ZWP2T99NLNEXVBV9AOM0,C5DF7EFD-EF75-45CE-B5A9-9C0F7FA89CB7,2023-09-29_12h21.20.517,WP_VExplicitOC_LH,2022.2.5,Win32,1.002956716,NA,NA,2.626,NA,NA,NA,NA,NA,happy,"unhappy, happy","less happy, more happy",NA,NA,NA,NA,NA,NA,NA,NA,NA,NA,NA,NA,NA,NA,NA,NA,NA,NA,NA,NA,NA,NA,NA,NA,NA,NA,NA,NA,NA,NA,NA,NA,NA,NA,NA,NA,NA,NA,0,1,1,0,1,NA,NA,NA,NA,NA
SUPAMT98515,38BQUHLA92ZWP2T99NLNEXVBV9AOM0,C5DF7EFD-EF75-45CE-B5A9-9C0F7FA89CB7,2023-09-29_12h21.20.517,WP_VExplicitOC_LH,2022.2.5,Win32,1.002956716,NA,NA,2.4742,NA,NA,NA,NA,NA,frustrated,"frustrated, not frustrated","more frustrated, less frustrated",NA,NA,NA,NA,NA,NA,NA,NA,NA,NA,NA,NA,NA,NA,NA,NA,NA,NA,NA,NA,NA,NA,NA,NA,NA,NA,NA,NA,NA,NA,NA,NA,NA,NA,NA,NA,NA,NA,0,2,2,1,1,NA,NA,NA,NA,NA
SUPAMT98515,38BQUHLA92ZWP2T99NLNEXVBV9AOM0,C5DF7EFD-EF75-45CE-B5A9-9C0F7FA89CB7,2023-09-29_12h21.20.517,WP_VExplicitOC_LH,2022.2.5,Win32,1.002956716,NA,NA,NA,NA,NA,NA,NA,NA,NA,NA,NA,NA,NA,NA,NA,NA,NA,NA,NA,NA,NA,NA,NA,NA,NA,NA,NA,NA,NA,NA,NA,NA,NA,NA,NA,NA,NA,NA,NA,NA,NA,NA,NA,NA,NA,NA,NA,NA,NA,NA,NA,NA,NA,NA,8,0,8,0,1
SUPAMT98515,38BQUHLA92ZWP2T99NLNEXVBV9AOM0,C5DF7EFD-EF75-45CE-B5A9-9C0F7FA89CB7,2023-09-29_12h21.20.517,WP_VExplicitOC_LH,2022.2.5,Win32,1.002956716,-33.94934872,6.2226,2.8249,NA,NA,NA,NA,NA,frustrated,"frustrated, not frustrated","more frustrated, less frustrated",NA,NA,NA,NA,NA,NA,NA,NA,NA,NA,NA,NA,NA,NA,NA,NA,NA,NA,NA,NA,NA,NA,NA,NA,NA,NA,NA,NA,NA,NA,NA,NA,NA,NA,NA,NA,NA,NA,0,0,0,1,1,NA,NA,NA,NA,NA
SUPAMT98515,38BQUHLA92ZWP2T99NLNEXVBV9AOM0,C5DF7EFD-EF75-45CE-B5A9-9C0F7FA89CB7,2023-09-29_12h21.20.517,WP_VExplicitOC_LH,2022.2.5,Win32,1.002956716,-44.35317335,6.0062,2.7359,NA,NA,NA,NA,NA,bored,"bored, not bored","more bored, less bored",NA,NA,NA,NA,NA,NA,NA,NA,NA,NA,NA,NA,NA,NA,NA,NA,NA,NA,NA,NA,NA,NA,NA,NA,NA,NA,NA,NA,NA,NA,NA,NA,NA,NA,NA,NA,NA,NA,0,1,1,2,1,NA,NA,NA,NA,NA
SUPAMT98515,38BQUHLA92ZWP2T99NLNEXVBV9AOM0,C5DF7EFD-EF75-45CE-B5A9-9C0F7FA89CB7,2023-09-29_12h21.20.517,WP_VExplicitOC_LH,2022.2.5,Win32,1.002956716,NA,NA,2.7076,NA,NA,NA,NA,NA,happy,"unhappy, happy","less happy, more happy",NA,NA,NA,NA,NA,NA,NA,NA,NA,NA,NA,NA,NA,NA,NA,NA,NA,NA,NA,NA,NA,NA,NA,NA,NA,NA,NA,NA,NA,NA,NA,NA,NA,NA,NA,NA,NA,NA,0,2,2,0,1,NA,NA,NA,NA,NA
SUPAMT98515,38BQUHLA92ZWP2T99NLNEXVBV9AOM0,C5DF7EFD-EF75-45CE-B5A9-9C0F7FA89CB7,2023-09-29_12h21.20.517,WP_VExplicitOC_LH,2022.2.5,Win32,1.002956716,NA,NA,NA,NA,NA,NA,NA,NA,NA,NA,NA,NA,NA,NA,NA,NA,NA,NA,NA,NA,NA,NA,NA,NA,NA,NA,NA,NA,NA,NA,NA,NA,NA,NA,NA,NA,NA,NA,NA,NA,NA,NA,NA,NA,NA,NA,NA,NA,NA,NA,NA,NA,NA,NA,9,0,9,0,1
SUPAMT98515,38BQUHLA92ZWP2T99NLNEXVBV9AOM0,C5DF7EFD-EF75-45CE-B5A9-9C0F7FA89CB7,2023-09-29_12h21.20.517,WP_VExplicitOC_LH,2022.2.5,Win32,1.002956716,NA,NA,2.4108,NA,NA,NA,NA,NA,bored,"bored, not bored","more bored, less bored",NA,NA,NA,NA,NA,NA,NA,NA,NA,NA,NA,NA,NA,NA,NA,NA,NA,NA,NA,NA,NA,NA,NA,NA,NA,NA,NA,NA,NA,NA,NA,NA,NA,NA,NA,NA,NA,NA,0,0,0,2,1,NA,NA,NA,NA,NA
SUPAMT98515,38BQUHLA92ZWP2T99NLNEXVBV9AOM0,C5DF7EFD-EF75-45CE-B5A9-9C0F7FA89CB7,2023-09-29_12h21.20.517,WP_VExplicitOC_LH,2022.2.5,Win32,1.002956716,40.5202094,6.0119,2.4719,NA,NA,NA,NA,NA,happy,"unhappy, happy","less happy, more happy",NA,NA,NA,NA,NA,NA,NA,NA,NA,NA,NA,NA,NA,NA,NA,NA,NA,NA,NA,NA,NA,NA,NA,NA,NA,NA,NA,NA,NA,NA,NA,NA,NA,NA,NA,NA,NA,NA,0,1,1,0,1,NA,NA,NA,NA,NA
SUPAMT98515,38BQUHLA92ZWP2T99NLNEXVBV9AOM0,C5DF7EFD-EF75-45CE-B5A9-9C0F7FA89CB7,2023-09-29_12h21.20.517,WP_VExplicitOC_LH,2022.2.5,Win32,1.002956716,NA,NA,2.4841,NA,NA,NA,NA,NA,frustrated,"frustrated, not frustrated","more frustrated, less frustrated",NA,NA,NA,NA,NA,NA,NA,NA,NA,NA,NA,NA,NA,NA,NA,NA,NA,NA,NA,NA,NA,NA,NA,NA,NA,NA,NA,NA,NA,NA,NA,NA,NA,NA,NA,NA,NA,NA,0,2,2,1,1,NA,NA,NA,NA,NA
SUPAMT98515,38BQUHLA92ZWP2T99NLNEXVBV9AOM0,C5DF7EFD-EF75-45CE-B5A9-9C0F7FA89CB7,2023-09-29_12h21.20.517,WP_VExplicitOC_LH,2022.2.5,Win32,1.002956716,NA,NA,NA,NA,NA,NA,NA,NA,NA,NA,NA,NA,NA,NA,NA,NA,NA,NA,NA,NA,NA,NA,NA,NA,NA,NA,NA,NA,NA,NA,NA,NA,NA,NA,NA,NA,NA,NA,NA,NA,NA,NA,NA,NA,NA,NA,NA,NA,NA,NA,NA,NA,NA,NA,10,0,10,0,1
SUPAMT98515,38BQUHLA92ZWP2T99NLNEXVBV9AOM0,C5DF7EFD-EF75-45CE-B5A9-9C0F7FA89CB7,2023-09-29_12h21.20.517,WP_VExplicitOC_LH,2022.2.5,Win32,1.002956716,22.99795601,7.3095,2.8626,NA,NA,NA,NA,NA,happy,"unhappy, happy","less happy, more happy",NA,NA,NA,NA,NA,NA,NA,NA,NA,NA,NA,NA,NA,NA,NA,NA,NA,NA,NA,NA,NA,NA,NA,NA,NA,NA,NA,NA,NA,NA,NA,NA,NA,NA,NA,NA,NA,NA,0,0,0,0,1,NA,NA,NA,NA,NA
SUPAMT98515,38BQUHLA92ZWP2T99NLNEXVBV9AOM0,C5DF7EFD-EF75-45CE-B5A9-9C0F7FA89CB7,2023-09-29_12h21.20.517,WP_VExplicitOC_LH,2022.2.5,Win32,1.002956716,34.49692932,7.4793,2.7474,NA,NA,NA,NA,NA,frustrated,"frustrated, not frustrated","more frustrated, less frustrated",NA,NA,NA,NA,NA,NA,NA,NA,NA,NA,NA,NA,NA,NA,NA,NA,NA,NA,NA,NA,NA,NA,NA,NA,NA,NA,NA,NA,NA,NA,NA,NA,NA,NA,NA,NA,NA,NA,0,1,1,1,1,NA,NA,NA,NA,NA
SUPAMT98515,38BQUHLA92ZWP2T99NLNEXVBV9AOM0,C5DF7EFD-EF75-45CE-B5A9-9C0F7FA89CB7,2023-09-29_12h21.20.517,WP_VExplicitOC_LH,2022.2.5,Win32,1.002956716,NA,NA,2.6163,NA,NA,NA,NA,NA,bored,"bored, not bored","more bored, less bored",NA,NA,NA,NA,NA,NA,NA,NA,NA,NA,NA,NA,NA,NA,NA,NA,NA,NA,NA,NA,NA,NA,NA,NA,NA,NA,NA,NA,NA,NA,NA,NA,NA,NA,NA,NA,NA,NA,0,2,2,2,1,NA,NA,NA,NA,NA
SUPAMT98515,38BQUHLA92ZWP2T99NLNEXVBV9AOM0,C5DF7EFD-EF75-45CE-B5A9-9C0F7FA89CB7,2023-09-29_12h21.20.517,WP_VExplicitOC_LH,2022.2.5,Win32,1.002956716,NA,NA,NA,NA,NA,NA,NA,NA,NA,NA,NA,NA,NA,NA,NA,NA,NA,NA,NA,NA,NA,NA,NA,NA,NA,NA,NA,NA,NA,NA,NA,NA,NA,NA,NA,NA,NA,NA,NA,NA,NA,NA,NA,NA,NA,NA,NA,NA,NA,NA,NA,NA,NA,NA,11,0,11,0,1
SUPAMT98515,38BQUHLA92ZWP2T99NLNEXVBV9AOM0,C5DF7EFD-EF75-45CE-B5A9-9C0F7FA89CB7,2023-09-29_12h21.20.517,WP_VExplicitOC_LH,2022.2.5,Win32,1.002956716,NA,NA,2.5423,NA,NA,NA,NA,NA,happy,"unhappy, happy","less happy, more happy",NA,NA,NA,NA,NA,NA,NA,NA,NA,NA,NA,NA,NA,NA,NA,NA,NA,NA,NA,NA,NA,NA,NA,NA,NA,NA,NA,NA,NA,NA,NA,NA,NA,NA,NA,NA,NA,NA,0,0,0,0,1,NA,NA,NA,NA,NA
SUPAMT98515,38BQUHLA92ZWP2T99NLNEXVBV9AOM0,C5DF7EFD-EF75-45CE-B5A9-9C0F7FA89CB7,2023-09-29_12h21.20.517,WP_VExplicitOC_LH,2022.2.5,Win32,1.002956716,27.92608743,5.3328,2.481,NA,NA,NA,NA,NA,frustrated,"frustrated, not frustrated","more frustrated, less frustrated",NA,NA,NA,NA,NA,NA,NA,NA,NA,NA,NA,NA,NA,NA,NA,NA,NA,NA,NA,NA,NA,NA,NA,NA,NA,NA,NA,NA,NA,NA,NA,NA,NA,NA,NA,NA,NA,NA,0,1,1,1,1,NA,NA,NA,NA,NA
SUPAMT98515,38BQUHLA92ZWP2T99NLNEXVBV9AOM0,C5DF7EFD-EF75-45CE-B5A9-9C0F7FA89CB7,2023-09-29_12h21.20.517,WP_VExplicitOC_LH,2022.2.5,Win32,1.002956716,-41.06775241,5.3527,2.5329,NA,NA,NA,NA,NA,bored,"bored, not bored","more bored, less bored",NA,NA,NA,NA,NA,NA,NA,NA,NA,NA,NA,NA,NA,NA,NA,NA,NA,NA,NA,NA,NA,NA,NA,NA,NA,NA,NA,NA,NA,NA,NA,NA,NA,NA,NA,NA,NA,NA,0,2,2,2,1,NA,NA,NA,NA,NA
SUPAMT98515,38BQUHLA92ZWP2T99NLNEXVBV9AOM0,C5DF7EFD-EF75-45CE-B5A9-9C0F7FA89CB7,2023-09-29_12h21.20.517,WP_VExplicitOC_LH,2022.2.5,Win32,1.002956716,NA,NA,NA,NA,NA,NA,NA,NA,NA,NA,NA,NA,NA,NA,NA,NA,NA,NA,NA,NA,NA,NA,NA,NA,NA,NA,NA,NA,NA,NA,NA,NA,NA,NA,NA,NA,NA,NA,NA,NA,NA,NA,NA,NA,NA,NA,NA,NA,NA,NA,NA,NA,NA,NA,12,0,12,0,1
SUPAMT98515,38BQUHLA92ZWP2T99NLNEXVBV9AOM0,C5DF7EFD-EF75-45CE-B5A9-9C0F7FA89CB7,2023-09-29_12h21.20.517,WP_VExplicitOC_LH,2022.2.5,Win32,1.002956716,-70.91033434,5.9459,2.1052,NA,NA,NA,NA,NA,bored,"bored, not bored","more bored, less bored",NA,NA,NA,NA,NA,NA,NA,NA,NA,NA,NA,NA,NA,NA,NA,NA,NA,NA,NA,NA,NA,NA,NA,NA,NA,NA,NA,NA,NA,NA,NA,NA,NA,NA,NA,NA,NA,NA,0,0,0,2,1,NA,NA,NA,NA,NA
SUPAMT98515,38BQUHLA92ZWP2T99NLNEXVBV9AOM0,C5DF7EFD-EF75-45CE-B5A9-9C0F7FA89CB7,2023-09-29_12h21.20.517,WP_VExplicitOC_LH,2022.2.5,Win32,1.002956716,39.97262254,7.2539,2.9001,NA,NA,NA,NA,NA,happy,"unhappy, happy","less happy, more happy",NA,NA,NA,NA,NA,NA,NA,NA,NA,NA,NA,NA,NA,NA,NA,NA,NA,NA,NA,NA,NA,NA,NA,NA,NA,NA,NA,NA,NA,NA,NA,NA,NA,NA,NA,NA,NA,NA,0,1,1,0,1,NA,NA,NA,NA,NA
SUPAMT98515,38BQUHLA92ZWP2T99NLNEXVBV9AOM0,C5DF7EFD-EF75-45CE-B5A9-9C0F7FA89CB7,2023-09-29_12h21.20.517,WP_VExplicitOC_LH,2022.2.5,Win32,1.002956716,13.96304841,7.3481,2.8368,NA,NA,NA,NA,NA,frustrated,"frustrated, not frustrated","more frustrated, less frustrated",NA,NA,NA,NA,NA,NA,NA,NA,NA,NA,NA,NA,NA,NA,NA,NA,NA,NA,NA,NA,NA,NA,NA,NA,NA,NA,NA,NA,NA,NA,NA,NA,NA,NA,NA,NA,NA,NA,0,2,2,1,1,NA,NA,NA,NA,NA
SUPAMT98515,38BQUHLA92ZWP2T99NLNEXVBV9AOM0,C5DF7EFD-EF75-45CE-B5A9-9C0F7FA89CB7,2023-09-29_12h21.20.517,WP_VExplicitOC_LH,2022.2.5,Win32,1.002956716,NA,NA,NA,NA,NA,NA,NA,NA,NA,NA,NA,NA,NA,NA,NA,NA,NA,NA,NA,NA,NA,NA,NA,NA,NA,NA,NA,NA,NA,NA,NA,NA,NA,NA,NA,NA,NA,NA,NA,NA,NA,NA,NA,NA,NA,NA,NA,NA,NA,NA,NA,NA,NA,NA,13,0,13,0,1
SUPAMT98515,38BQUHLA92ZWP2T99NLNEXVBV9AOM0,C5DF7EFD-EF75-45CE-B5A9-9C0F7FA89CB7,2023-09-29_12h21.20.517,WP_VExplicitOC_LH,2022.2.5,Win32,1.002956716,10.40383404,6.7468,2.4308,NA,NA,NA,NA,NA,bored,"bored, not bored","more bored, less bored",NA,NA,NA,NA,NA,NA,NA,NA,NA,NA,NA,NA,NA,NA,NA,NA,NA,NA,NA,NA,NA,NA,NA,NA,NA,NA,NA,NA,NA,NA,NA,NA,NA,NA,NA,NA,NA,NA,0,0,0,2,1,NA,NA,NA,NA,NA
SUPAMT98515,38BQUHLA92ZWP2T99NLNEXVBV9AOM0,C5DF7EFD-EF75-45CE-B5A9-9C0F7FA89CB7,2023-09-29_12h21.20.517,WP_VExplicitOC_LH,2022.2.5,Win32,1.002956716,65.70842829,6.9868,2.4601,NA,NA,NA,NA,NA,happy,"unhappy, happy","less happy, more happy",NA,NA,NA,NA,NA,NA,NA,NA,NA,NA,NA,NA,NA,NA,NA,NA,NA,NA,NA,NA,NA,NA,NA,NA,NA,NA,NA,NA,NA,NA,NA,NA,NA,NA,NA,NA,NA,NA,0,1,1,0,1,NA,NA,NA,NA,NA
SUPAMT98515,38BQUHLA92ZWP2T99NLNEXVBV9AOM0,C5DF7EFD-EF75-45CE-B5A9-9C0F7FA89CB7,2023-09-29_12h21.20.517,WP_VExplicitOC_LH,2022.2.5,Win32,1.002956716,-30.39013434,6.6285,2.9746,NA,NA,NA,NA,NA,frustrated,"frustrated, not frustrated","more frustrated, less frustrated",NA,NA,NA,NA,NA,NA,NA,NA,NA,NA,NA,NA,NA,NA,NA,NA,NA,NA,NA,NA,NA,NA,NA,NA,NA,NA,NA,NA,NA,NA,NA,NA,NA,NA,NA,NA,NA,NA,0,2,2,1,1,NA,NA,NA,NA,NA
SUPAMT98515,38BQUHLA92ZWP2T99NLNEXVBV9AOM0,C5DF7EFD-EF75-45CE-B5A9-9C0F7FA89CB7,2023-09-29_12h21.20.517,WP_VExplicitOC_LH,2022.2.5,Win32,1.002956716,NA,NA,NA,NA,NA,NA,NA,NA,NA,NA,NA,NA,NA,NA,NA,NA,NA,NA,NA,NA,NA,NA,NA,NA,NA,NA,NA,NA,NA,NA,NA,NA,NA,NA,NA,NA,NA,NA,NA,NA,NA,NA,NA,NA,NA,NA,NA,NA,NA,NA,NA,NA,NA,NA,14,0,14,0,1
SUPAMT98515,38BQUHLA92ZWP2T99NLNEXVBV9AOM0,C5DF7EFD-EF75-45CE-B5A9-9C0F7FA89CB7,2023-09-29_12h21.20.517,WP_VExplicitOC_LH,2022.2.5,Win32,1.002956716,NA,NA,NA,NA,NA,NA,NA,NA,NA,NA,NA,NA,NA,NA,NA,NA,NA,NA,NA,NA,NA,NA,NA,NA,NA,NA,NA,NA,NA,NA,NA,NA,NA,NA,NA,NA,NA,NA,NA,NA,NA,NA,NA,NA,NA,NA,NA,NA,NA,NA,NA,NA,NA,NA,NA,NA,NA,NA,NA
