participant,session,completion,date,expName,psychopyVersion,OS,frameRate,rating_all.response,rating_all.rt,rating_all.tStart,rndRat1.thisRepN,rndRat1.thisTrialN,rndRat1.thisN,rndRat1.thisIndex,rndRat1.ran,Emo,Labs,Labs2,rating_alt.response,rating_alt.rt,AltC.thisRepN,AltC.thisTrialN,AltC.thisN,AltC.thisIndex,AltC.ran,alt_choices,pic_choices,TopAlt_Choice,rndRat2.thisRepN,rndRat2.thisTrialN,rndRat2.thisN,rndRat2.thisIndex,rndRat2.ran,rndRat3.thisRepN,rndRat3.thisTrialN,rndRat3.thisN,rndRat3.thisIndex,rndRat3.ran,trials_FC_H.thisRepN,trials_FC_H.thisTrialN,trials_FC_H.thisN,trials_FC_H.thisIndex,trials_FC_H.ran,rating_alt_2.response,rating_alt_2.rt,AltC2.thisRepN,AltC2.thisTrialN,AltC2.thisN,AltC2.thisIndex,AltC2.ran,BottomAlt_Choice,rndRat4.thisRepN,rndRat4.thisTrialN,rndRat4.thisN,rndRat4.thisIndex,rndRat4.ran,rndRat5.thisRepN,rndRat5.thisTrialN,rndRat5.thisN,rndRat5.thisIndex,rndRat5.ran,trials_FC_L.thisRepN,trials_FC_L.thisTrialN,trials_FC_L.thisN,trials_FC_L.thisIndex,trials_FC_L.ran
SUPAMT63428,3WOKGM4L77FZMOM2KIYPG0OYRK9O0G,415CB1CE-2C48-41F8-A16F-45288D105DB3,2023-09-26_06h28.00.353,WP_VExplicitOC_HL,2022.2.5,Win32,6.383128116,NA,NA,NA,NA,NA,NA,NA,NA,NA,NA,NA,NA,NA,NA,NA,NA,NA,NA,NA,NA,NA,NA,NA,NA,NA,NA,NA,NA,NA,NA,NA,NA,NA,NA,NA,NA,NA,NA,NA,NA,NA,NA,NA,NA,NA,NA,NA,NA,NA,NA,NA,NA,NA,NA,NA,NA,NA,NA,NA
SUPAMT63428,3WOKGM4L77FZMOM2KIYPG0OYRK9O0G,415CB1CE-2C48-41F8-A16F-45288D105DB3,2023-09-26_06h28.00.353,WP_VExplicitOC_HL,2022.2.5,Win32,6.383128116,NA,NA,NA,NA,NA,NA,NA,NA,NA,NA,NA,NA,NA,NA,NA,NA,NA,NA,NA,NA,NA,NA,NA,NA,NA,NA,NA,NA,NA,NA,NA,NA,NA,NA,NA,NA,NA,NA,NA,NA,NA,NA,NA,NA,NA,NA,NA,NA,NA,NA,NA,NA,NA,NA,NA,NA,NA,NA,NA
SUPAMT63428,3WOKGM4L77FZMOM2KIYPG0OYRK9O0G,415CB1CE-2C48-41F8-A16F-45288D105DB3,2023-09-26_06h28.00.353,WP_VExplicitOC_HL,2022.2.5,Win32,6.383128116,NA,NA,NA,NA,NA,NA,NA,NA,NA,NA,NA,NA,NA,NA,NA,NA,NA,NA,NA,NA,NA,NA,NA,NA,NA,NA,NA,NA,NA,NA,NA,NA,NA,NA,NA,NA,NA,NA,NA,NA,NA,NA,NA,NA,NA,NA,NA,NA,NA,NA,NA,NA,NA,NA,NA,NA,NA,NA,NA
SUPAMT63428,3WOKGM4L77FZMOM2KIYPG0OYRK9O0G,415CB1CE-2C48-41F8-A16F-45288D105DB3,2023-09-26_06h28.00.353,WP_VExplicitOC_HL,2022.2.5,Win32,6.383128116,100,5.456,2.0658,0,0,0,1,1,frustrated,"frustrated, not frustrated","more frustrated, less frustrated",NA,NA,NA,NA,NA,NA,NA,NA,NA,NA,NA,NA,NA,NA,NA,NA,NA,NA,NA,NA,NA,NA,NA,NA,NA,NA,NA,NA,NA,NA,NA,NA,NA,NA,NA,NA,NA,NA,NA,NA,NA,NA,NA,NA,NA,NA,NA,NA
SUPAMT63428,3WOKGM4L77FZMOM2KIYPG0OYRK9O0G,415CB1CE-2C48-41F8-A16F-45288D105DB3,2023-09-26_06h28.00.353,WP_VExplicitOC_HL,2022.2.5,Win32,6.383128116,98.31029186,3.4779,2.0354,0,1,1,0,1,happy,"unhappy, happy","less happy, more happy",NA,NA,NA,NA,NA,NA,NA,NA,NA,NA,NA,NA,NA,NA,NA,NA,NA,NA,NA,NA,NA,NA,NA,NA,NA,NA,NA,NA,NA,NA,NA,NA,NA,NA,NA,NA,NA,NA,NA,NA,NA,NA,NA,NA,NA,NA,NA,NA
SUPAMT63428,3WOKGM4L77FZMOM2KIYPG0OYRK9O0G,415CB1CE-2C48-41F8-A16F-45288D105DB3,2023-09-26_06h28.00.353,WP_VExplicitOC_HL,2022.2.5,Win32,6.383128116,98.0030722,3.9347,2.0246,0,2,2,2,1,bored,"bored, not bored","more bored, less bored",NA,NA,NA,NA,NA,NA,NA,NA,NA,NA,NA,NA,NA,NA,NA,NA,NA,NA,NA,NA,NA,NA,NA,NA,NA,NA,NA,NA,NA,NA,NA,NA,NA,NA,NA,NA,NA,NA,NA,NA,NA,NA,NA,NA,NA,NA,NA,NA
SUPAMT63428,3WOKGM4L77FZMOM2KIYPG0OYRK9O0G,415CB1CE-2C48-41F8-A16F-45288D105DB3,2023-09-26_06h28.00.353,WP_VExplicitOC_HL,2022.2.5,Win32,6.383128116,NA,NA,NA,NA,NA,NA,NA,NA,NA,NA,NA,NA,NA,NA,NA,NA,NA,NA,NA,NA,NA,NA,NA,NA,NA,NA,NA,NA,NA,NA,NA,NA,NA,NA,NA,NA,NA,NA,NA,NA,NA,NA,NA,NA,NA,NA,NA,NA,NA,NA,NA,NA,NA,NA,NA,NA,NA,NA,NA
SUPAMT63428,3WOKGM4L77FZMOM2KIYPG0OYRK9O0G,415CB1CE-2C48-41F8-A16F-45288D105DB3,2023-09-26_06h28.00.353,WP_VExplicitOC_HL,2022.2.5,Win32,6.383128116,NA,NA,NA,NA,NA,NA,NA,NA,NA,NA,NA,NA,NA,NA,NA,NA,NA,NA,NA,NA,NA,NA,NA,NA,NA,NA,NA,NA,NA,NA,NA,NA,NA,NA,NA,NA,NA,NA,NA,NA,NA,NA,NA,NA,NA,NA,NA,NA,NA,NA,NA,NA,NA,NA,NA,NA,NA,NA,NA
SUPAMT63428,3WOKGM4L77FZMOM2KIYPG0OYRK9O0G,415CB1CE-2C48-41F8-A16F-45288D105DB3,2023-09-26_06h28.00.353,WP_VExplicitOC_HL,2022.2.5,Win32,6.383128116,NA,NA,NA,NA,NA,NA,NA,NA,NA,NA,NA,NA,NA,NA,NA,NA,NA,NA,NA,NA,NA,NA,NA,NA,NA,NA,NA,NA,NA,NA,NA,NA,NA,NA,NA,NA,NA,NA,NA,NA,NA,NA,NA,NA,NA,NA,NA,NA,NA,NA,NA,NA,NA,NA,NA,NA,NA,NA,NA
SUPAMT63428,3WOKGM4L77FZMOM2KIYPG0OYRK9O0G,415CB1CE-2C48-41F8-A16F-45288D105DB3,2023-09-26_06h28.00.353,WP_VExplicitOC_HL,2022.2.5,Win32,6.383128116,NA,NA,NA,NA,NA,NA,NA,NA,NA,NA,NA,NA,NA,NA,NA,NA,NA,NA,NA,NA,NA,NA,NA,NA,NA,NA,NA,NA,NA,NA,NA,NA,NA,NA,NA,NA,NA,NA,NA,NA,NA,NA,NA,NA,NA,NA,NA,NA,NA,NA,NA,NA,NA,NA,NA,NA,NA,NA,NA
SUPAMT63428,3WOKGM4L77FZMOM2KIYPG0OYRK9O0G,415CB1CE-2C48-41F8-A16F-45288D105DB3,2023-09-26_06h28.00.353,WP_VExplicitOC_HL,2022.2.5,Win32,6.383128116,NA,NA,NA,NA,NA,NA,NA,NA,NA,NA,NA,99.84639017,4.2015,0,0,0,0,1,rest (looking at a fixed cross),001.png,NA,NA,NA,NA,NA,NA,NA,NA,NA,NA,NA,NA,NA,NA,NA,NA,NA,NA,NA,NA,NA,NA,NA,NA,NA,NA,NA,NA,NA,NA,NA,NA,NA,NA,NA,NA,NA,NA,NA
SUPAMT63428,3WOKGM4L77FZMOM2KIYPG0OYRK9O0G,415CB1CE-2C48-41F8-A16F-45288D105DB3,2023-09-26_06h28.00.353,WP_VExplicitOC_HL,2022.2.5,Win32,6.383128116,NA,NA,NA,NA,NA,NA,NA,NA,NA,NA,NA,98.61751152,4.5188,0,1,1,1,1,stand up,002.png,NA,NA,NA,NA,NA,NA,NA,NA,NA,NA,NA,NA,NA,NA,NA,NA,NA,NA,NA,NA,NA,NA,NA,NA,NA,NA,NA,NA,NA,NA,NA,NA,NA,NA,NA,NA,NA,NA,NA
SUPAMT63428,3WOKGM4L77FZMOM2KIYPG0OYRK9O0G,415CB1CE-2C48-41F8-A16F-45288D105DB3,2023-09-26_06h28.00.353,WP_VExplicitOC_HL,2022.2.5,Win32,6.383128116,NA,NA,NA,NA,NA,NA,NA,NA,NA,NA,NA,27.03533026,2.6758,0,2,2,2,1,stretch,003.png,NA,NA,NA,NA,NA,NA,NA,NA,NA,NA,NA,NA,NA,NA,NA,NA,NA,NA,NA,NA,NA,NA,NA,NA,NA,NA,NA,NA,NA,NA,NA,NA,NA,NA,NA,NA,NA,NA,NA
SUPAMT63428,3WOKGM4L77FZMOM2KIYPG0OYRK9O0G,415CB1CE-2C48-41F8-A16F-45288D105DB3,2023-09-26_06h28.00.353,WP_VExplicitOC_HL,2022.2.5,Win32,6.383128116,NA,NA,NA,NA,NA,NA,NA,NA,NA,NA,NA,74.34715822,2.1438,0,3,3,3,1,make a drink,004.png,NA,NA,NA,NA,NA,NA,NA,NA,NA,NA,NA,NA,NA,NA,NA,NA,NA,NA,NA,NA,NA,NA,NA,NA,NA,NA,NA,NA,NA,NA,NA,NA,NA,NA,NA,NA,NA,NA,NA
SUPAMT63428,3WOKGM4L77FZMOM2KIYPG0OYRK9O0G,415CB1CE-2C48-41F8-A16F-45288D105DB3,2023-09-26_06h28.00.353,WP_VExplicitOC_HL,2022.2.5,Win32,6.383128116,NA,NA,NA,NA,NA,NA,NA,NA,NA,NA,NA,85.40706605,1.5618,0,4,4,4,1,scroll social media,005.png,NA,NA,NA,NA,NA,NA,NA,NA,NA,NA,NA,NA,NA,NA,NA,NA,NA,NA,NA,NA,NA,NA,NA,NA,NA,NA,NA,NA,NA,NA,NA,NA,NA,NA,NA,NA,NA,NA,NA
SUPAMT63428,3WOKGM4L77FZMOM2KIYPG0OYRK9O0G,415CB1CE-2C48-41F8-A16F-45288D105DB3,2023-09-26_06h28.00.353,WP_VExplicitOC_HL,2022.2.5,Win32,6.383128116,NA,NA,NA,NA,NA,NA,NA,NA,NA,NA,NA,95.23809524,0.4933,0,5,5,5,1,listen to music,006.png,NA,NA,NA,NA,NA,NA,NA,NA,NA,NA,NA,NA,NA,NA,NA,NA,NA,NA,NA,NA,NA,NA,NA,NA,NA,NA,NA,NA,NA,NA,NA,NA,NA,NA,NA,NA,NA,NA,NA
SUPAMT63428,3WOKGM4L77FZMOM2KIYPG0OYRK9O0G,415CB1CE-2C48-41F8-A16F-45288D105DB3,2023-09-26_06h28.00.353,WP_VExplicitOC_HL,2022.2.5,Win32,6.383128116,NA,NA,NA,NA,NA,NA,NA,NA,NA,NA,NA,-25.49923195,3.5272,0,6,6,6,1,daydream,007.png,NA,NA,NA,NA,NA,NA,NA,NA,NA,NA,NA,NA,NA,NA,NA,NA,NA,NA,NA,NA,NA,NA,NA,NA,NA,NA,NA,NA,NA,NA,NA,NA,NA,NA,NA,NA,NA,NA,NA
SUPAMT63428,3WOKGM4L77FZMOM2KIYPG0OYRK9O0G,415CB1CE-2C48-41F8-A16F-45288D105DB3,2023-09-26_06h28.00.353,WP_VExplicitOC_HL,2022.2.5,Win32,6.383128116,NA,NA,NA,NA,NA,NA,NA,NA,NA,NA,NA,30.10752688,2.7124,0,7,7,7,1,watch a short animation,008.png,NA,NA,NA,NA,NA,NA,NA,NA,NA,NA,NA,NA,NA,NA,NA,NA,NA,NA,NA,NA,NA,NA,NA,NA,NA,NA,NA,NA,NA,NA,NA,NA,NA,NA,NA,NA,NA,NA,NA
SUPAMT63428,3WOKGM4L77FZMOM2KIYPG0OYRK9O0G,415CB1CE-2C48-41F8-A16F-45288D105DB3,2023-09-26_06h28.00.353,WP_VExplicitOC_HL,2022.2.5,Win32,6.383128116,NA,NA,NA,NA,NA,NA,NA,NA,NA,NA,NA,75.2688172,2.6764,0,8,8,8,1,read a novel,009.png,NA,NA,NA,NA,NA,NA,NA,NA,NA,NA,NA,NA,NA,NA,NA,NA,NA,NA,NA,NA,NA,NA,NA,NA,NA,NA,NA,NA,NA,NA,NA,NA,NA,NA,NA,NA,NA,NA,NA
SUPAMT63428,3WOKGM4L77FZMOM2KIYPG0OYRK9O0G,415CB1CE-2C48-41F8-A16F-45288D105DB3,2023-09-26_06h28.00.353,WP_VExplicitOC_HL,2022.2.5,Win32,6.383128116,NA,NA,NA,NA,NA,NA,NA,NA,NA,NA,NA,90.32258065,2.4922,0,9,9,9,1,read the news,010.png,NA,NA,NA,NA,NA,NA,NA,NA,NA,NA,NA,NA,NA,NA,NA,NA,NA,NA,NA,NA,NA,NA,NA,NA,NA,NA,NA,NA,NA,NA,NA,NA,NA,NA,NA,NA,NA,NA,NA
SUPAMT63428,3WOKGM4L77FZMOM2KIYPG0OYRK9O0G,415CB1CE-2C48-41F8-A16F-45288D105DB3,2023-09-26_06h28.00.353,WP_VExplicitOC_HL,2022.2.5,Win32,6.383128116,NA,NA,NA,NA,NA,NA,NA,NA,NA,NA,NA,NA,NA,NA,NA,NA,NA,NA,NA,NA,NA,NA,NA,NA,NA,NA,NA,NA,NA,NA,NA,NA,NA,NA,NA,NA,NA,NA,NA,NA,NA,NA,NA,NA,NA,NA,NA,NA,NA,NA,NA,NA,NA,NA,NA,NA,NA,NA,NA
SUPAMT63428,3WOKGM4L77FZMOM2KIYPG0OYRK9O0G,415CB1CE-2C48-41F8-A16F-45288D105DB3,2023-09-26_06h28.00.353,WP_VExplicitOC_HL,2022.2.5,Win32,6.383128116,NA,NA,NA,NA,NA,NA,NA,NA,NA,NA,NA,NA,NA,NA,NA,NA,NA,NA,NA,NA,stand up,NA,NA,NA,NA,NA,NA,NA,NA,NA,NA,NA,NA,NA,NA,NA,NA,NA,NA,NA,NA,NA,NA,NA,NA,NA,NA,NA,NA,NA,NA,NA,NA,NA,NA,NA,NA,NA,NA
SUPAMT63428,3WOKGM4L77FZMOM2KIYPG0OYRK9O0G,415CB1CE-2C48-41F8-A16F-45288D105DB3,2023-09-26_06h28.00.353,WP_VExplicitOC_HL,2022.2.5,Win32,6.383128116,83.25652842,4.764,2.1144,NA,NA,NA,NA,NA,bored,"bored, not bored","more bored, less bored",NA,NA,NA,NA,NA,NA,NA,NA,NA,NA,0,0,0,2,1,NA,NA,NA,NA,NA,NA,NA,NA,NA,NA,NA,NA,NA,NA,NA,NA,NA,NA,NA,NA,NA,NA,NA,NA,NA,NA,NA,NA,NA,NA,NA,NA,NA
SUPAMT63428,3WOKGM4L77FZMOM2KIYPG0OYRK9O0G,415CB1CE-2C48-41F8-A16F-45288D105DB3,2023-09-26_06h28.00.353,WP_VExplicitOC_HL,2022.2.5,Win32,6.383128116,98.61751152,5.4767,2.1573,NA,NA,NA,NA,NA,frustrated,"frustrated, not frustrated","more frustrated, less frustrated",NA,NA,NA,NA,NA,NA,NA,NA,NA,NA,0,1,1,1,1,NA,NA,NA,NA,NA,NA,NA,NA,NA,NA,NA,NA,NA,NA,NA,NA,NA,NA,NA,NA,NA,NA,NA,NA,NA,NA,NA,NA,NA,NA,NA,NA,NA
SUPAMT63428,3WOKGM4L77FZMOM2KIYPG0OYRK9O0G,415CB1CE-2C48-41F8-A16F-45288D105DB3,2023-09-26_06h28.00.353,WP_VExplicitOC_HL,2022.2.5,Win32,6.383128116,98.31029186,3.9383,2.1113,NA,NA,NA,NA,NA,happy,"unhappy, happy","less happy, more happy",NA,NA,NA,NA,NA,NA,NA,NA,NA,NA,0,2,2,0,1,NA,NA,NA,NA,NA,NA,NA,NA,NA,NA,NA,NA,NA,NA,NA,NA,NA,NA,NA,NA,NA,NA,NA,NA,NA,NA,NA,NA,NA,NA,NA,NA,NA
SUPAMT63428,3WOKGM4L77FZMOM2KIYPG0OYRK9O0G,415CB1CE-2C48-41F8-A16F-45288D105DB3,2023-09-26_06h28.00.353,WP_VExplicitOC_HL,2022.2.5,Win32,6.383128116,NA,NA,NA,NA,NA,NA,NA,NA,NA,NA,NA,NA,NA,NA,NA,NA,NA,NA,NA,NA,NA,NA,NA,NA,NA,NA,NA,NA,NA,NA,NA,NA,NA,NA,NA,NA,NA,NA,NA,NA,NA,NA,NA,NA,NA,NA,NA,NA,NA,NA,NA,NA,NA,NA,NA,NA,NA,NA,NA
SUPAMT63428,3WOKGM4L77FZMOM2KIYPG0OYRK9O0G,415CB1CE-2C48-41F8-A16F-45288D105DB3,2023-09-26_06h28.00.353,WP_VExplicitOC_HL,2022.2.5,Win32,6.383128116,NA,NA,NA,NA,NA,NA,NA,NA,NA,NA,NA,NA,NA,NA,NA,NA,NA,NA,NA,NA,NA,NA,NA,NA,NA,NA,NA,NA,NA,NA,NA,NA,NA,NA,NA,NA,NA,NA,NA,NA,NA,NA,NA,NA,NA,NA,NA,NA,NA,NA,NA,NA,NA,NA,NA,NA,NA,NA,NA
SUPAMT63428,3WOKGM4L77FZMOM2KIYPG0OYRK9O0G,415CB1CE-2C48-41F8-A16F-45288D105DB3,2023-09-26_06h28.00.353,WP_VExplicitOC_HL,2022.2.5,Win32,6.383128116,87.55760369,3.7772,2.0771,NA,NA,NA,NA,NA,happy,"unhappy, happy","less happy, more happy",NA,NA,NA,NA,NA,NA,NA,NA,NA,NA,NA,NA,NA,NA,NA,0,0,0,0,1,NA,NA,NA,NA,NA,NA,NA,NA,NA,NA,NA,NA,NA,NA,NA,NA,NA,NA,NA,NA,NA,NA,NA,NA,NA,NA,NA,NA
SUPAMT63428,3WOKGM4L77FZMOM2KIYPG0OYRK9O0G,415CB1CE-2C48-41F8-A16F-45288D105DB3,2023-09-26_06h28.00.353,WP_VExplicitOC_HL,2022.2.5,Win32,6.383128116,83.25652842,4.7156,2.0119,NA,NA,NA,NA,NA,frustrated,"frustrated, not frustrated","more frustrated, less frustrated",NA,NA,NA,NA,NA,NA,NA,NA,NA,NA,NA,NA,NA,NA,NA,0,1,1,1,1,NA,NA,NA,NA,NA,NA,NA,NA,NA,NA,NA,NA,NA,NA,NA,NA,NA,NA,NA,NA,NA,NA,NA,NA,NA,NA,NA,NA
SUPAMT63428,3WOKGM4L77FZMOM2KIYPG0OYRK9O0G,415CB1CE-2C48-41F8-A16F-45288D105DB3,2023-09-26_06h28.00.353,WP_VExplicitOC_HL,2022.2.5,Win32,6.383128116,89.40092166,5.1665,2.1361,NA,NA,NA,NA,NA,bored,"bored, not bored","more bored, less bored",NA,NA,NA,NA,NA,NA,NA,NA,NA,NA,NA,NA,NA,NA,NA,0,2,2,2,1,NA,NA,NA,NA,NA,NA,NA,NA,NA,NA,NA,NA,NA,NA,NA,NA,NA,NA,NA,NA,NA,NA,NA,NA,NA,NA,NA,NA
SUPAMT63428,3WOKGM4L77FZMOM2KIYPG0OYRK9O0G,415CB1CE-2C48-41F8-A16F-45288D105DB3,2023-09-26_06h28.00.353,WP_VExplicitOC_HL,2022.2.5,Win32,6.383128116,NA,NA,NA,NA,NA,NA,NA,NA,NA,NA,NA,NA,NA,NA,NA,NA,NA,NA,NA,NA,NA,NA,NA,NA,NA,NA,NA,NA,NA,NA,NA,0,0,0,0,1,NA,NA,NA,NA,NA,NA,NA,NA,NA,NA,NA,NA,NA,NA,NA,NA,NA,NA,NA,NA,NA,NA,NA
SUPAMT63428,3WOKGM4L77FZMOM2KIYPG0OYRK9O0G,415CB1CE-2C48-41F8-A16F-45288D105DB3,2023-09-26_06h28.00.353,WP_VExplicitOC_HL,2022.2.5,Win32,6.383128116,52.84178187,3.9464,2.0565,NA,NA,NA,NA,NA,happy,"unhappy, happy","less happy, more happy",NA,NA,NA,NA,NA,NA,NA,NA,NA,NA,NA,NA,NA,NA,NA,0,0,0,0,1,NA,NA,NA,NA,NA,NA,NA,NA,NA,NA,NA,NA,NA,NA,NA,NA,NA,NA,NA,NA,NA,NA,NA,NA,NA,NA,NA,NA
SUPAMT63428,3WOKGM4L77FZMOM2KIYPG0OYRK9O0G,415CB1CE-2C48-41F8-A16F-45288D105DB3,2023-09-26_06h28.00.353,WP_VExplicitOC_HL,2022.2.5,Win32,6.383128116,96.77419355,3.5938,2.018,NA,NA,NA,NA,NA,bored,"bored, not bored","more bored, less bored",NA,NA,NA,NA,NA,NA,NA,NA,NA,NA,NA,NA,NA,NA,NA,0,1,1,2,1,NA,NA,NA,NA,NA,NA,NA,NA,NA,NA,NA,NA,NA,NA,NA,NA,NA,NA,NA,NA,NA,NA,NA,NA,NA,NA,NA,NA
SUPAMT63428,3WOKGM4L77FZMOM2KIYPG0OYRK9O0G,415CB1CE-2C48-41F8-A16F-45288D105DB3,2023-09-26_06h28.00.353,WP_VExplicitOC_HL,2022.2.5,Win32,6.383128116,96.46697389,3.5996,2.024,NA,NA,NA,NA,NA,frustrated,"frustrated, not frustrated","more frustrated, less frustrated",NA,NA,NA,NA,NA,NA,NA,NA,NA,NA,NA,NA,NA,NA,NA,0,2,2,1,1,NA,NA,NA,NA,NA,NA,NA,NA,NA,NA,NA,NA,NA,NA,NA,NA,NA,NA,NA,NA,NA,NA,NA,NA,NA,NA,NA,NA
SUPAMT63428,3WOKGM4L77FZMOM2KIYPG0OYRK9O0G,415CB1CE-2C48-41F8-A16F-45288D105DB3,2023-09-26_06h28.00.353,WP_VExplicitOC_HL,2022.2.5,Win32,6.383128116,NA,NA,NA,NA,NA,NA,NA,NA,NA,NA,NA,NA,NA,NA,NA,NA,NA,NA,NA,NA,NA,NA,NA,NA,NA,NA,NA,NA,NA,NA,NA,1,0,1,0,1,NA,NA,NA,NA,NA,NA,NA,NA,NA,NA,NA,NA,NA,NA,NA,NA,NA,NA,NA,NA,NA,NA,NA
SUPAMT63428,3WOKGM4L77FZMOM2KIYPG0OYRK9O0G,415CB1CE-2C48-41F8-A16F-45288D105DB3,2023-09-26_06h28.00.353,WP_VExplicitOC_HL,2022.2.5,Win32,6.383128116,NA,NA,2.152,NA,NA,NA,NA,NA,frustrated,"frustrated, not frustrated","more frustrated, less frustrated",NA,NA,NA,NA,NA,NA,NA,NA,NA,NA,NA,NA,NA,NA,NA,0,0,0,1,1,NA,NA,NA,NA,NA,NA,NA,NA,NA,NA,NA,NA,NA,NA,NA,NA,NA,NA,NA,NA,NA,NA,NA,NA,NA,NA,NA,NA
SUPAMT63428,3WOKGM4L77FZMOM2KIYPG0OYRK9O0G,415CB1CE-2C48-41F8-A16F-45288D105DB3,2023-09-26_06h28.00.353,WP_VExplicitOC_HL,2022.2.5,Win32,6.383128116,NA,NA,2.1401,NA,NA,NA,NA,NA,happy,"unhappy, happy","less happy, more happy",NA,NA,NA,NA,NA,NA,NA,NA,NA,NA,NA,NA,NA,NA,NA,0,1,1,0,1,NA,NA,NA,NA,NA,NA,NA,NA,NA,NA,NA,NA,NA,NA,NA,NA,NA,NA,NA,NA,NA,NA,NA,NA,NA,NA,NA,NA
SUPAMT63428,3WOKGM4L77FZMOM2KIYPG0OYRK9O0G,415CB1CE-2C48-41F8-A16F-45288D105DB3,2023-09-26_06h28.00.353,WP_VExplicitOC_HL,2022.2.5,Win32,6.383128116,NA,NA,2.1499,NA,NA,NA,NA,NA,bored,"bored, not bored","more bored, less bored",NA,NA,NA,NA,NA,NA,NA,NA,NA,NA,NA,NA,NA,NA,NA,0,2,2,2,1,NA,NA,NA,NA,NA,NA,NA,NA,NA,NA,NA,NA,NA,NA,NA,NA,NA,NA,NA,NA,NA,NA,NA,NA,NA,NA,NA,NA
SUPAMT63428,3WOKGM4L77FZMOM2KIYPG0OYRK9O0G,415CB1CE-2C48-41F8-A16F-45288D105DB3,2023-09-26_06h28.00.353,WP_VExplicitOC_HL,2022.2.5,Win32,6.383128116,NA,NA,NA,NA,NA,NA,NA,NA,NA,NA,NA,NA,NA,NA,NA,NA,NA,NA,NA,NA,NA,NA,NA,NA,NA,NA,NA,NA,NA,NA,NA,2,0,2,0,1,NA,NA,NA,NA,NA,NA,NA,NA,NA,NA,NA,NA,NA,NA,NA,NA,NA,NA,NA,NA,NA,NA,NA
SUPAMT63428,3WOKGM4L77FZMOM2KIYPG0OYRK9O0G,415CB1CE-2C48-41F8-A16F-45288D105DB3,2023-09-26_06h28.00.353,WP_VExplicitOC_HL,2022.2.5,Win32,6.383128116,NA,NA,2.1401,NA,NA,NA,NA,NA,frustrated,"frustrated, not frustrated","more frustrated, less frustrated",NA,NA,NA,NA,NA,NA,NA,NA,NA,NA,NA,NA,NA,NA,NA,0,0,0,1,1,NA,NA,NA,NA,NA,NA,NA,NA,NA,NA,NA,NA,NA,NA,NA,NA,NA,NA,NA,NA,NA,NA,NA,NA,NA,NA,NA,NA
SUPAMT63428,3WOKGM4L77FZMOM2KIYPG0OYRK9O0G,415CB1CE-2C48-41F8-A16F-45288D105DB3,2023-09-26_06h28.00.353,WP_VExplicitOC_HL,2022.2.5,Win32,6.383128116,NA,NA,2.0125,NA,NA,NA,NA,NA,bored,"bored, not bored","more bored, less bored",NA,NA,NA,NA,NA,NA,NA,NA,NA,NA,NA,NA,NA,NA,NA,0,1,1,2,1,NA,NA,NA,NA,NA,NA,NA,NA,NA,NA,NA,NA,NA,NA,NA,NA,NA,NA,NA,NA,NA,NA,NA,NA,NA,NA,NA,NA
SUPAMT63428,3WOKGM4L77FZMOM2KIYPG0OYRK9O0G,415CB1CE-2C48-41F8-A16F-45288D105DB3,2023-09-26_06h28.00.353,WP_VExplicitOC_HL,2022.2.5,Win32,6.383128116,NA,NA,2.152,NA,NA,NA,NA,NA,happy,"unhappy, happy","less happy, more happy",NA,NA,NA,NA,NA,NA,NA,NA,NA,NA,NA,NA,NA,NA,NA,0,2,2,0,1,NA,NA,NA,NA,NA,NA,NA,NA,NA,NA,NA,NA,NA,NA,NA,NA,NA,NA,NA,NA,NA,NA,NA,NA,NA,NA,NA,NA
SUPAMT63428,3WOKGM4L77FZMOM2KIYPG0OYRK9O0G,415CB1CE-2C48-41F8-A16F-45288D105DB3,2023-09-26_06h28.00.353,WP_VExplicitOC_HL,2022.2.5,Win32,6.383128116,NA,NA,NA,NA,NA,NA,NA,NA,NA,NA,NA,NA,NA,NA,NA,NA,NA,NA,NA,NA,NA,NA,NA,NA,NA,NA,NA,NA,NA,NA,NA,3,0,3,0,1,NA,NA,NA,NA,NA,NA,NA,NA,NA,NA,NA,NA,NA,NA,NA,NA,NA,NA,NA,NA,NA,NA,NA
SUPAMT63428,3WOKGM4L77FZMOM2KIYPG0OYRK9O0G,415CB1CE-2C48-41F8-A16F-45288D105DB3,2023-09-26_06h28.00.353,WP_VExplicitOC_HL,2022.2.5,Win32,6.383128116,NA,NA,2.0337,NA,NA,NA,NA,NA,happy,"unhappy, happy","less happy, more happy",NA,NA,NA,NA,NA,NA,NA,NA,NA,NA,NA,NA,NA,NA,NA,0,0,0,0,1,NA,NA,NA,NA,NA,NA,NA,NA,NA,NA,NA,NA,NA,NA,NA,NA,NA,NA,NA,NA,NA,NA,NA,NA,NA,NA,NA,NA
SUPAMT63428,3WOKGM4L77FZMOM2KIYPG0OYRK9O0G,415CB1CE-2C48-41F8-A16F-45288D105DB3,2023-09-26_06h28.00.353,WP_VExplicitOC_HL,2022.2.5,Win32,6.383128116,NA,NA,2.0001,NA,NA,NA,NA,NA,frustrated,"frustrated, not frustrated","more frustrated, less frustrated",NA,NA,NA,NA,NA,NA,NA,NA,NA,NA,NA,NA,NA,NA,NA,0,1,1,1,1,NA,NA,NA,NA,NA,NA,NA,NA,NA,NA,NA,NA,NA,NA,NA,NA,NA,NA,NA,NA,NA,NA,NA,NA,NA,NA,NA,NA
SUPAMT63428,3WOKGM4L77FZMOM2KIYPG0OYRK9O0G,415CB1CE-2C48-41F8-A16F-45288D105DB3,2023-09-26_06h28.00.353,WP_VExplicitOC_HL,2022.2.5,Win32,6.383128116,NA,NA,2.0146,NA,NA,NA,NA,NA,bored,"bored, not bored","more bored, less bored",NA,NA,NA,NA,NA,NA,NA,NA,NA,NA,NA,NA,NA,NA,NA,0,2,2,2,1,NA,NA,NA,NA,NA,NA,NA,NA,NA,NA,NA,NA,NA,NA,NA,NA,NA,NA,NA,NA,NA,NA,NA,NA,NA,NA,NA,NA
SUPAMT63428,3WOKGM4L77FZMOM2KIYPG0OYRK9O0G,415CB1CE-2C48-41F8-A16F-45288D105DB3,2023-09-26_06h28.00.353,WP_VExplicitOC_HL,2022.2.5,Win32,6.383128116,NA,NA,NA,NA,NA,NA,NA,NA,NA,NA,NA,NA,NA,NA,NA,NA,NA,NA,NA,NA,NA,NA,NA,NA,NA,NA,NA,NA,NA,NA,NA,4,0,4,0,1,NA,NA,NA,NA,NA,NA,NA,NA,NA,NA,NA,NA,NA,NA,NA,NA,NA,NA,NA,NA,NA,NA,NA
SUPAMT63428,3WOKGM4L77FZMOM2KIYPG0OYRK9O0G,415CB1CE-2C48-41F8-A16F-45288D105DB3,2023-09-26_06h28.00.353,WP_VExplicitOC_HL,2022.2.5,Win32,6.383128116,NA,NA,2.0242,NA,NA,NA,NA,NA,happy,"unhappy, happy","less happy, more happy",NA,NA,NA,NA,NA,NA,NA,NA,NA,NA,NA,NA,NA,NA,NA,0,0,0,0,1,NA,NA,NA,NA,NA,NA,NA,NA,NA,NA,NA,NA,NA,NA,NA,NA,NA,NA,NA,NA,NA,NA,NA,NA,NA,NA,NA,NA
SUPAMT63428,3WOKGM4L77FZMOM2KIYPG0OYRK9O0G,415CB1CE-2C48-41F8-A16F-45288D105DB3,2023-09-26_06h28.00.353,WP_VExplicitOC_HL,2022.2.5,Win32,6.383128116,NA,NA,2.0071,NA,NA,NA,NA,NA,frustrated,"frustrated, not frustrated","more frustrated, less frustrated",NA,NA,NA,NA,NA,NA,NA,NA,NA,NA,NA,NA,NA,NA,NA,0,1,1,1,1,NA,NA,NA,NA,NA,NA,NA,NA,NA,NA,NA,NA,NA,NA,NA,NA,NA,NA,NA,NA,NA,NA,NA,NA,NA,NA,NA,NA
SUPAMT63428,3WOKGM4L77FZMOM2KIYPG0OYRK9O0G,415CB1CE-2C48-41F8-A16F-45288D105DB3,2023-09-26_06h28.00.353,WP_VExplicitOC_HL,2022.2.5,Win32,6.383128116,NA,NA,2.0426,NA,NA,NA,NA,NA,bored,"bored, not bored","more bored, less bored",NA,NA,NA,NA,NA,NA,NA,NA,NA,NA,NA,NA,NA,NA,NA,0,2,2,2,1,NA,NA,NA,NA,NA,NA,NA,NA,NA,NA,NA,NA,NA,NA,NA,NA,NA,NA,NA,NA,NA,NA,NA,NA,NA,NA,NA,NA
SUPAMT63428,3WOKGM4L77FZMOM2KIYPG0OYRK9O0G,415CB1CE-2C48-41F8-A16F-45288D105DB3,2023-09-26_06h28.00.353,WP_VExplicitOC_HL,2022.2.5,Win32,6.383128116,NA,NA,NA,NA,NA,NA,NA,NA,NA,NA,NA,NA,NA,NA,NA,NA,NA,NA,NA,NA,NA,NA,NA,NA,NA,NA,NA,NA,NA,NA,NA,5,0,5,0,1,NA,NA,NA,NA,NA,NA,NA,NA,NA,NA,NA,NA,NA,NA,NA,NA,NA,NA,NA,NA,NA,NA,NA
SUPAMT63428,3WOKGM4L77FZMOM2KIYPG0OYRK9O0G,415CB1CE-2C48-41F8-A16F-45288D105DB3,2023-09-26_06h28.00.353,WP_VExplicitOC_HL,2022.2.5,Win32,6.383128116,NA,NA,2.0062,NA,NA,NA,NA,NA,happy,"unhappy, happy","less happy, more happy",NA,NA,NA,NA,NA,NA,NA,NA,NA,NA,NA,NA,NA,NA,NA,0,0,0,0,1,NA,NA,NA,NA,NA,NA,NA,NA,NA,NA,NA,NA,NA,NA,NA,NA,NA,NA,NA,NA,NA,NA,NA,NA,NA,NA,NA,NA
SUPAMT63428,3WOKGM4L77FZMOM2KIYPG0OYRK9O0G,415CB1CE-2C48-41F8-A16F-45288D105DB3,2023-09-26_06h28.00.353,WP_VExplicitOC_HL,2022.2.5,Win32,6.383128116,NA,NA,2.0217,NA,NA,NA,NA,NA,frustrated,"frustrated, not frustrated","more frustrated, less frustrated",NA,NA,NA,NA,NA,NA,NA,NA,NA,NA,NA,NA,NA,NA,NA,0,1,1,1,1,NA,NA,NA,NA,NA,NA,NA,NA,NA,NA,NA,NA,NA,NA,NA,NA,NA,NA,NA,NA,NA,NA,NA,NA,NA,NA,NA,NA
SUPAMT63428,3WOKGM4L77FZMOM2KIYPG0OYRK9O0G,415CB1CE-2C48-41F8-A16F-45288D105DB3,2023-09-26_06h28.00.353,WP_VExplicitOC_HL,2022.2.5,Win32,6.383128116,NA,NA,2.144,NA,NA,NA,NA,NA,bored,"bored, not bored","more bored, less bored",NA,NA,NA,NA,NA,NA,NA,NA,NA,NA,NA,NA,NA,NA,NA,0,2,2,2,1,NA,NA,NA,NA,NA,NA,NA,NA,NA,NA,NA,NA,NA,NA,NA,NA,NA,NA,NA,NA,NA,NA,NA,NA,NA,NA,NA,NA
SUPAMT63428,3WOKGM4L77FZMOM2KIYPG0OYRK9O0G,415CB1CE-2C48-41F8-A16F-45288D105DB3,2023-09-26_06h28.00.353,WP_VExplicitOC_HL,2022.2.5,Win32,6.383128116,NA,NA,NA,NA,NA,NA,NA,NA,NA,NA,NA,NA,NA,NA,NA,NA,NA,NA,NA,NA,NA,NA,NA,NA,NA,NA,NA,NA,NA,NA,NA,6,0,6,0,1,NA,NA,NA,NA,NA,NA,NA,NA,NA,NA,NA,NA,NA,NA,NA,NA,NA,NA,NA,NA,NA,NA,NA
SUPAMT63428,3WOKGM4L77FZMOM2KIYPG0OYRK9O0G,415CB1CE-2C48-41F8-A16F-45288D105DB3,2023-09-26_06h28.00.353,WP_VExplicitOC_HL,2022.2.5,Win32,6.383128116,NA,NA,2.1385,NA,NA,NA,NA,NA,happy,"unhappy, happy","less happy, more happy",NA,NA,NA,NA,NA,NA,NA,NA,NA,NA,NA,NA,NA,NA,NA,0,0,0,0,1,NA,NA,NA,NA,NA,NA,NA,NA,NA,NA,NA,NA,NA,NA,NA,NA,NA,NA,NA,NA,NA,NA,NA,NA,NA,NA,NA,NA
SUPAMT63428,3WOKGM4L77FZMOM2KIYPG0OYRK9O0G,415CB1CE-2C48-41F8-A16F-45288D105DB3,2023-09-26_06h28.00.353,WP_VExplicitOC_HL,2022.2.5,Win32,6.383128116,NA,NA,2.1405,NA,NA,NA,NA,NA,bored,"bored, not bored","more bored, less bored",NA,NA,NA,NA,NA,NA,NA,NA,NA,NA,NA,NA,NA,NA,NA,0,1,1,2,1,NA,NA,NA,NA,NA,NA,NA,NA,NA,NA,NA,NA,NA,NA,NA,NA,NA,NA,NA,NA,NA,NA,NA,NA,NA,NA,NA,NA
SUPAMT63428,3WOKGM4L77FZMOM2KIYPG0OYRK9O0G,415CB1CE-2C48-41F8-A16F-45288D105DB3,2023-09-26_06h28.00.353,WP_VExplicitOC_HL,2022.2.5,Win32,6.383128116,NA,NA,2.0176,NA,NA,NA,NA,NA,frustrated,"frustrated, not frustrated","more frustrated, less frustrated",NA,NA,NA,NA,NA,NA,NA,NA,NA,NA,NA,NA,NA,NA,NA,0,2,2,1,1,NA,NA,NA,NA,NA,NA,NA,NA,NA,NA,NA,NA,NA,NA,NA,NA,NA,NA,NA,NA,NA,NA,NA,NA,NA,NA,NA,NA
SUPAMT63428,3WOKGM4L77FZMOM2KIYPG0OYRK9O0G,415CB1CE-2C48-41F8-A16F-45288D105DB3,2023-09-26_06h28.00.353,WP_VExplicitOC_HL,2022.2.5,Win32,6.383128116,NA,NA,NA,NA,NA,NA,NA,NA,NA,NA,NA,NA,NA,NA,NA,NA,NA,NA,NA,NA,NA,NA,NA,NA,NA,NA,NA,NA,NA,NA,NA,7,0,7,0,1,NA,NA,NA,NA,NA,NA,NA,NA,NA,NA,NA,NA,NA,NA,NA,NA,NA,NA,NA,NA,NA,NA,NA
SUPAMT63428,3WOKGM4L77FZMOM2KIYPG0OYRK9O0G,415CB1CE-2C48-41F8-A16F-45288D105DB3,2023-09-26_06h28.00.353,WP_VExplicitOC_HL,2022.2.5,Win32,6.383128116,NA,NA,2.135,NA,NA,NA,NA,NA,happy,"unhappy, happy","less happy, more happy",NA,NA,NA,NA,NA,NA,NA,NA,NA,NA,NA,NA,NA,NA,NA,0,0,0,0,1,NA,NA,NA,NA,NA,NA,NA,NA,NA,NA,NA,NA,NA,NA,NA,NA,NA,NA,NA,NA,NA,NA,NA,NA,NA,NA,NA,NA
SUPAMT63428,3WOKGM4L77FZMOM2KIYPG0OYRK9O0G,415CB1CE-2C48-41F8-A16F-45288D105DB3,2023-09-26_06h28.00.353,WP_VExplicitOC_HL,2022.2.5,Win32,6.383128116,NA,NA,2.1452,NA,NA,NA,NA,NA,frustrated,"frustrated, not frustrated","more frustrated, less frustrated",NA,NA,NA,NA,NA,NA,NA,NA,NA,NA,NA,NA,NA,NA,NA,0,1,1,1,1,NA,NA,NA,NA,NA,NA,NA,NA,NA,NA,NA,NA,NA,NA,NA,NA,NA,NA,NA,NA,NA,NA,NA,NA,NA,NA,NA,NA
SUPAMT63428,3WOKGM4L77FZMOM2KIYPG0OYRK9O0G,415CB1CE-2C48-41F8-A16F-45288D105DB3,2023-09-26_06h28.00.353,WP_VExplicitOC_HL,2022.2.5,Win32,6.383128116,NA,NA,2.1332,NA,NA,NA,NA,NA,bored,"bored, not bored","more bored, less bored",NA,NA,NA,NA,NA,NA,NA,NA,NA,NA,NA,NA,NA,NA,NA,0,2,2,2,1,NA,NA,NA,NA,NA,NA,NA,NA,NA,NA,NA,NA,NA,NA,NA,NA,NA,NA,NA,NA,NA,NA,NA,NA,NA,NA,NA,NA
SUPAMT63428,3WOKGM4L77FZMOM2KIYPG0OYRK9O0G,415CB1CE-2C48-41F8-A16F-45288D105DB3,2023-09-26_06h28.00.353,WP_VExplicitOC_HL,2022.2.5,Win32,6.383128116,NA,NA,NA,NA,NA,NA,NA,NA,NA,NA,NA,NA,NA,NA,NA,NA,NA,NA,NA,NA,NA,NA,NA,NA,NA,NA,NA,NA,NA,NA,NA,8,0,8,0,1,NA,NA,NA,NA,NA,NA,NA,NA,NA,NA,NA,NA,NA,NA,NA,NA,NA,NA,NA,NA,NA,NA,NA
SUPAMT63428,3WOKGM4L77FZMOM2KIYPG0OYRK9O0G,415CB1CE-2C48-41F8-A16F-45288D105DB3,2023-09-26_06h28.00.353,WP_VExplicitOC_HL,2022.2.5,Win32,6.383128116,NA,NA,2.0074,NA,NA,NA,NA,NA,bored,"bored, not bored","more bored, less bored",NA,NA,NA,NA,NA,NA,NA,NA,NA,NA,NA,NA,NA,NA,NA,0,0,0,2,1,NA,NA,NA,NA,NA,NA,NA,NA,NA,NA,NA,NA,NA,NA,NA,NA,NA,NA,NA,NA,NA,NA,NA,NA,NA,NA,NA,NA
SUPAMT63428,3WOKGM4L77FZMOM2KIYPG0OYRK9O0G,415CB1CE-2C48-41F8-A16F-45288D105DB3,2023-09-26_06h28.00.353,WP_VExplicitOC_HL,2022.2.5,Win32,6.383128116,NA,NA,2.1438,NA,NA,NA,NA,NA,frustrated,"frustrated, not frustrated","more frustrated, less frustrated",NA,NA,NA,NA,NA,NA,NA,NA,NA,NA,NA,NA,NA,NA,NA,0,1,1,1,1,NA,NA,NA,NA,NA,NA,NA,NA,NA,NA,NA,NA,NA,NA,NA,NA,NA,NA,NA,NA,NA,NA,NA,NA,NA,NA,NA,NA
SUPAMT63428,3WOKGM4L77FZMOM2KIYPG0OYRK9O0G,415CB1CE-2C48-41F8-A16F-45288D105DB3,2023-09-26_06h28.00.353,WP_VExplicitOC_HL,2022.2.5,Win32,6.383128116,NA,NA,2.1461,NA,NA,NA,NA,NA,happy,"unhappy, happy","less happy, more happy",NA,NA,NA,NA,NA,NA,NA,NA,NA,NA,NA,NA,NA,NA,NA,0,2,2,0,1,NA,NA,NA,NA,NA,NA,NA,NA,NA,NA,NA,NA,NA,NA,NA,NA,NA,NA,NA,NA,NA,NA,NA,NA,NA,NA,NA,NA
SUPAMT63428,3WOKGM4L77FZMOM2KIYPG0OYRK9O0G,415CB1CE-2C48-41F8-A16F-45288D105DB3,2023-09-26_06h28.00.353,WP_VExplicitOC_HL,2022.2.5,Win32,6.383128116,NA,NA,NA,NA,NA,NA,NA,NA,NA,NA,NA,NA,NA,NA,NA,NA,NA,NA,NA,NA,NA,NA,NA,NA,NA,NA,NA,NA,NA,NA,NA,9,0,9,0,1,NA,NA,NA,NA,NA,NA,NA,NA,NA,NA,NA,NA,NA,NA,NA,NA,NA,NA,NA,NA,NA,NA,NA
SUPAMT63428,3WOKGM4L77FZMOM2KIYPG0OYRK9O0G,415CB1CE-2C48-41F8-A16F-45288D105DB3,2023-09-26_06h28.00.353,WP_VExplicitOC_HL,2022.2.5,Win32,6.383128116,NA,NA,2.0019,NA,NA,NA,NA,NA,happy,"unhappy, happy","less happy, more happy",NA,NA,NA,NA,NA,NA,NA,NA,NA,NA,NA,NA,NA,NA,NA,0,0,0,0,1,NA,NA,NA,NA,NA,NA,NA,NA,NA,NA,NA,NA,NA,NA,NA,NA,NA,NA,NA,NA,NA,NA,NA,NA,NA,NA,NA,NA
SUPAMT63428,3WOKGM4L77FZMOM2KIYPG0OYRK9O0G,415CB1CE-2C48-41F8-A16F-45288D105DB3,2023-09-26_06h28.00.353,WP_VExplicitOC_HL,2022.2.5,Win32,6.383128116,NA,NA,2.1467,NA,NA,NA,NA,NA,bored,"bored, not bored","more bored, less bored",NA,NA,NA,NA,NA,NA,NA,NA,NA,NA,NA,NA,NA,NA,NA,0,1,1,2,1,NA,NA,NA,NA,NA,NA,NA,NA,NA,NA,NA,NA,NA,NA,NA,NA,NA,NA,NA,NA,NA,NA,NA,NA,NA,NA,NA,NA
SUPAMT63428,3WOKGM4L77FZMOM2KIYPG0OYRK9O0G,415CB1CE-2C48-41F8-A16F-45288D105DB3,2023-09-26_06h28.00.353,WP_VExplicitOC_HL,2022.2.5,Win32,6.383128116,NA,NA,2.1508,NA,NA,NA,NA,NA,frustrated,"frustrated, not frustrated","more frustrated, less frustrated",NA,NA,NA,NA,NA,NA,NA,NA,NA,NA,NA,NA,NA,NA,NA,0,2,2,1,1,NA,NA,NA,NA,NA,NA,NA,NA,NA,NA,NA,NA,NA,NA,NA,NA,NA,NA,NA,NA,NA,NA,NA,NA,NA,NA,NA,NA
SUPAMT63428,3WOKGM4L77FZMOM2KIYPG0OYRK9O0G,415CB1CE-2C48-41F8-A16F-45288D105DB3,2023-09-26_06h28.00.353,WP_VExplicitOC_HL,2022.2.5,Win32,6.383128116,NA,NA,NA,NA,NA,NA,NA,NA,NA,NA,NA,NA,NA,NA,NA,NA,NA,NA,NA,NA,NA,NA,NA,NA,NA,NA,NA,NA,NA,NA,NA,10,0,10,0,1,NA,NA,NA,NA,NA,NA,NA,NA,NA,NA,NA,NA,NA,NA,NA,NA,NA,NA,NA,NA,NA,NA,NA
SUPAMT63428,3WOKGM4L77FZMOM2KIYPG0OYRK9O0G,415CB1CE-2C48-41F8-A16F-45288D105DB3,2023-09-26_06h28.00.353,WP_VExplicitOC_HL,2022.2.5,Win32,6.383128116,NA,NA,2.0202,NA,NA,NA,NA,NA,frustrated,"frustrated, not frustrated","more frustrated, less frustrated",NA,NA,NA,NA,NA,NA,NA,NA,NA,NA,NA,NA,NA,NA,NA,0,0,0,1,1,NA,NA,NA,NA,NA,NA,NA,NA,NA,NA,NA,NA,NA,NA,NA,NA,NA,NA,NA,NA,NA,NA,NA,NA,NA,NA,NA,NA
SUPAMT63428,3WOKGM4L77FZMOM2KIYPG0OYRK9O0G,415CB1CE-2C48-41F8-A16F-45288D105DB3,2023-09-26_06h28.00.353,WP_VExplicitOC_HL,2022.2.5,Win32,6.383128116,NA,NA,2.1463,NA,NA,NA,NA,NA,happy,"unhappy, happy","less happy, more happy",NA,NA,NA,NA,NA,NA,NA,NA,NA,NA,NA,NA,NA,NA,NA,0,1,1,0,1,NA,NA,NA,NA,NA,NA,NA,NA,NA,NA,NA,NA,NA,NA,NA,NA,NA,NA,NA,NA,NA,NA,NA,NA,NA,NA,NA,NA
SUPAMT63428,3WOKGM4L77FZMOM2KIYPG0OYRK9O0G,415CB1CE-2C48-41F8-A16F-45288D105DB3,2023-09-26_06h28.00.353,WP_VExplicitOC_HL,2022.2.5,Win32,6.383128116,NA,NA,2.0238,NA,NA,NA,NA,NA,bored,"bored, not bored","more bored, less bored",NA,NA,NA,NA,NA,NA,NA,NA,NA,NA,NA,NA,NA,NA,NA,0,2,2,2,1,NA,NA,NA,NA,NA,NA,NA,NA,NA,NA,NA,NA,NA,NA,NA,NA,NA,NA,NA,NA,NA,NA,NA,NA,NA,NA,NA,NA
SUPAMT63428,3WOKGM4L77FZMOM2KIYPG0OYRK9O0G,415CB1CE-2C48-41F8-A16F-45288D105DB3,2023-09-26_06h28.00.353,WP_VExplicitOC_HL,2022.2.5,Win32,6.383128116,NA,NA,NA,NA,NA,NA,NA,NA,NA,NA,NA,NA,NA,NA,NA,NA,NA,NA,NA,NA,NA,NA,NA,NA,NA,NA,NA,NA,NA,NA,NA,11,0,11,0,1,NA,NA,NA,NA,NA,NA,NA,NA,NA,NA,NA,NA,NA,NA,NA,NA,NA,NA,NA,NA,NA,NA,NA
SUPAMT63428,3WOKGM4L77FZMOM2KIYPG0OYRK9O0G,415CB1CE-2C48-41F8-A16F-45288D105DB3,2023-09-26_06h28.00.353,WP_VExplicitOC_HL,2022.2.5,Win32,6.383128116,NA,NA,2.1382,NA,NA,NA,NA,NA,bored,"bored, not bored","more bored, less bored",NA,NA,NA,NA,NA,NA,NA,NA,NA,NA,NA,NA,NA,NA,NA,0,0,0,2,1,NA,NA,NA,NA,NA,NA,NA,NA,NA,NA,NA,NA,NA,NA,NA,NA,NA,NA,NA,NA,NA,NA,NA,NA,NA,NA,NA,NA
SUPAMT63428,3WOKGM4L77FZMOM2KIYPG0OYRK9O0G,415CB1CE-2C48-41F8-A16F-45288D105DB3,2023-09-26_06h28.00.353,WP_VExplicitOC_HL,2022.2.5,Win32,6.383128116,NA,NA,2.1462,NA,NA,NA,NA,NA,frustrated,"frustrated, not frustrated","more frustrated, less frustrated",NA,NA,NA,NA,NA,NA,NA,NA,NA,NA,NA,NA,NA,NA,NA,0,1,1,1,1,NA,NA,NA,NA,NA,NA,NA,NA,NA,NA,NA,NA,NA,NA,NA,NA,NA,NA,NA,NA,NA,NA,NA,NA,NA,NA,NA,NA
SUPAMT63428,3WOKGM4L77FZMOM2KIYPG0OYRK9O0G,415CB1CE-2C48-41F8-A16F-45288D105DB3,2023-09-26_06h28.00.353,WP_VExplicitOC_HL,2022.2.5,Win32,6.383128116,NA,NA,2.1348,NA,NA,NA,NA,NA,happy,"unhappy, happy","less happy, more happy",NA,NA,NA,NA,NA,NA,NA,NA,NA,NA,NA,NA,NA,NA,NA,0,2,2,0,1,NA,NA,NA,NA,NA,NA,NA,NA,NA,NA,NA,NA,NA,NA,NA,NA,NA,NA,NA,NA,NA,NA,NA,NA,NA,NA,NA,NA
SUPAMT63428,3WOKGM4L77FZMOM2KIYPG0OYRK9O0G,415CB1CE-2C48-41F8-A16F-45288D105DB3,2023-09-26_06h28.00.353,WP_VExplicitOC_HL,2022.2.5,Win32,6.383128116,NA,NA,NA,NA,NA,NA,NA,NA,NA,NA,NA,NA,NA,NA,NA,NA,NA,NA,NA,NA,NA,NA,NA,NA,NA,NA,NA,NA,NA,NA,NA,12,0,12,0,1,NA,NA,NA,NA,NA,NA,NA,NA,NA,NA,NA,NA,NA,NA,NA,NA,NA,NA,NA,NA,NA,NA,NA
SUPAMT63428,3WOKGM4L77FZMOM2KIYPG0OYRK9O0G,415CB1CE-2C48-41F8-A16F-45288D105DB3,2023-09-26_06h28.00.353,WP_VExplicitOC_HL,2022.2.5,Win32,6.383128116,NA,NA,2.002,NA,NA,NA,NA,NA,happy,"unhappy, happy","less happy, more happy",NA,NA,NA,NA,NA,NA,NA,NA,NA,NA,NA,NA,NA,NA,NA,0,0,0,0,1,NA,NA,NA,NA,NA,NA,NA,NA,NA,NA,NA,NA,NA,NA,NA,NA,NA,NA,NA,NA,NA,NA,NA,NA,NA,NA,NA,NA
SUPAMT63428,3WOKGM4L77FZMOM2KIYPG0OYRK9O0G,415CB1CE-2C48-41F8-A16F-45288D105DB3,2023-09-26_06h28.00.353,WP_VExplicitOC_HL,2022.2.5,Win32,6.383128116,NA,NA,2.0203,NA,NA,NA,NA,NA,bored,"bored, not bored","more bored, less bored",NA,NA,NA,NA,NA,NA,NA,NA,NA,NA,NA,NA,NA,NA,NA,0,1,1,2,1,NA,NA,NA,NA,NA,NA,NA,NA,NA,NA,NA,NA,NA,NA,NA,NA,NA,NA,NA,NA,NA,NA,NA,NA,NA,NA,NA,NA
SUPAMT63428,3WOKGM4L77FZMOM2KIYPG0OYRK9O0G,415CB1CE-2C48-41F8-A16F-45288D105DB3,2023-09-26_06h28.00.353,WP_VExplicitOC_HL,2022.2.5,Win32,6.383128116,NA,NA,2.0255,NA,NA,NA,NA,NA,frustrated,"frustrated, not frustrated","more frustrated, less frustrated",NA,NA,NA,NA,NA,NA,NA,NA,NA,NA,NA,NA,NA,NA,NA,0,2,2,1,1,NA,NA,NA,NA,NA,NA,NA,NA,NA,NA,NA,NA,NA,NA,NA,NA,NA,NA,NA,NA,NA,NA,NA,NA,NA,NA,NA,NA
SUPAMT63428,3WOKGM4L77FZMOM2KIYPG0OYRK9O0G,415CB1CE-2C48-41F8-A16F-45288D105DB3,2023-09-26_06h28.00.353,WP_VExplicitOC_HL,2022.2.5,Win32,6.383128116,NA,NA,NA,NA,NA,NA,NA,NA,NA,NA,NA,NA,NA,NA,NA,NA,NA,NA,NA,NA,NA,NA,NA,NA,NA,NA,NA,NA,NA,NA,NA,13,0,13,0,1,NA,NA,NA,NA,NA,NA,NA,NA,NA,NA,NA,NA,NA,NA,NA,NA,NA,NA,NA,NA,NA,NA,NA
SUPAMT63428,3WOKGM4L77FZMOM2KIYPG0OYRK9O0G,415CB1CE-2C48-41F8-A16F-45288D105DB3,2023-09-26_06h28.00.353,WP_VExplicitOC_HL,2022.2.5,Win32,6.383128116,NA,NA,2.0195,NA,NA,NA,NA,NA,bored,"bored, not bored","more bored, less bored",NA,NA,NA,NA,NA,NA,NA,NA,NA,NA,NA,NA,NA,NA,NA,0,0,0,2,1,NA,NA,NA,NA,NA,NA,NA,NA,NA,NA,NA,NA,NA,NA,NA,NA,NA,NA,NA,NA,NA,NA,NA,NA,NA,NA,NA,NA
SUPAMT63428,3WOKGM4L77FZMOM2KIYPG0OYRK9O0G,415CB1CE-2C48-41F8-A16F-45288D105DB3,2023-09-26_06h28.00.353,WP_VExplicitOC_HL,2022.2.5,Win32,6.383128116,NA,NA,2.0533,NA,NA,NA,NA,NA,happy,"unhappy, happy","less happy, more happy",NA,NA,NA,NA,NA,NA,NA,NA,NA,NA,NA,NA,NA,NA,NA,0,1,1,0,1,NA,NA,NA,NA,NA,NA,NA,NA,NA,NA,NA,NA,NA,NA,NA,NA,NA,NA,NA,NA,NA,NA,NA,NA,NA,NA,NA,NA
SUPAMT63428,3WOKGM4L77FZMOM2KIYPG0OYRK9O0G,415CB1CE-2C48-41F8-A16F-45288D105DB3,2023-09-26_06h28.00.353,WP_VExplicitOC_HL,2022.2.5,Win32,6.383128116,NA,NA,2.0344,NA,NA,NA,NA,NA,frustrated,"frustrated, not frustrated","more frustrated, less frustrated",NA,NA,NA,NA,NA,NA,NA,NA,NA,NA,NA,NA,NA,NA,NA,0,2,2,1,1,NA,NA,NA,NA,NA,NA,NA,NA,NA,NA,NA,NA,NA,NA,NA,NA,NA,NA,NA,NA,NA,NA,NA,NA,NA,NA,NA,NA
SUPAMT63428,3WOKGM4L77FZMOM2KIYPG0OYRK9O0G,415CB1CE-2C48-41F8-A16F-45288D105DB3,2023-09-26_06h28.00.353,WP_VExplicitOC_HL,2022.2.5,Win32,6.383128116,NA,NA,NA,NA,NA,NA,NA,NA,NA,NA,NA,NA,NA,NA,NA,NA,NA,NA,NA,NA,NA,NA,NA,NA,NA,NA,NA,NA,NA,NA,NA,14,0,14,0,1,NA,NA,NA,NA,NA,NA,NA,NA,NA,NA,NA,NA,NA,NA,NA,NA,NA,NA,NA,NA,NA,NA,NA
SUPAMT63428,3WOKGM4L77FZMOM2KIYPG0OYRK9O0G,415CB1CE-2C48-41F8-A16F-45288D105DB3,2023-09-26_06h28.00.353,WP_VExplicitOC_HL,2022.2.5,Win32,6.383128116,NA,NA,NA,NA,NA,NA,NA,NA,NA,NA,NA,NA,NA,NA,NA,NA,NA,NA,NA,NA,NA,NA,NA,NA,NA,NA,NA,NA,NA,NA,NA,NA,NA,NA,NA,NA,NA,NA,NA,NA,NA,NA,NA,NA,NA,NA,NA,NA,NA,NA,NA,NA,NA,NA,NA,NA,NA,NA,NA
SUPAMT63428,3WOKGM4L77FZMOM2KIYPG0OYRK9O0G,415CB1CE-2C48-41F8-A16F-45288D105DB3,2023-09-26_06h28.00.353,WP_VExplicitOC_HL,2022.2.5,Win32,6.383128116,NA,NA,NA,NA,NA,NA,NA,NA,NA,NA,NA,NA,NA,NA,NA,NA,NA,NA,NA,NA,NA,NA,NA,NA,NA,NA,NA,NA,NA,NA,NA,NA,NA,NA,NA,NA,NA,NA,NA,NA,NA,NA,NA,NA,NA,NA,NA,NA,NA,NA,NA,NA,NA,NA,NA,NA,NA,NA,NA
SUPAMT63428,3WOKGM4L77FZMOM2KIYPG0OYRK9O0G,415CB1CE-2C48-41F8-A16F-45288D105DB3,2023-09-26_06h28.00.353,WP_VExplicitOC_HL,2022.2.5,Win32,6.383128116,NA,NA,NA,NA,NA,NA,NA,NA,NA,NA,NA,NA,NA,NA,NA,NA,NA,NA,rest (looking at a fixed cross),001.png,NA,NA,NA,NA,NA,NA,NA,NA,NA,NA,NA,NA,NA,NA,NA,NA,NA,NA,0,0,0,0,1,NA,NA,NA,NA,NA,NA,NA,NA,NA,NA,NA,NA,NA,NA,NA,NA
SUPAMT63428,3WOKGM4L77FZMOM2KIYPG0OYRK9O0G,415CB1CE-2C48-41F8-A16F-45288D105DB3,2023-09-26_06h28.00.353,WP_VExplicitOC_HL,2022.2.5,Win32,6.383128116,NA,NA,NA,NA,NA,NA,NA,NA,NA,NA,NA,NA,NA,NA,NA,NA,NA,NA,stand up,002.png,NA,NA,NA,NA,NA,NA,NA,NA,NA,NA,NA,NA,NA,NA,NA,NA,NA,NA,0,1,1,1,1,NA,NA,NA,NA,NA,NA,NA,NA,NA,NA,NA,NA,NA,NA,NA,NA
SUPAMT63428,3WOKGM4L77FZMOM2KIYPG0OYRK9O0G,415CB1CE-2C48-41F8-A16F-45288D105DB3,2023-09-26_06h28.00.353,WP_VExplicitOC_HL,2022.2.5,Win32,6.383128116,NA,NA,NA,NA,NA,NA,NA,NA,NA,NA,NA,NA,NA,NA,NA,NA,NA,NA,stretch,003.png,NA,NA,NA,NA,NA,NA,NA,NA,NA,NA,NA,NA,NA,NA,NA,NA,NA,NA,0,2,2,2,1,NA,NA,NA,NA,NA,NA,NA,NA,NA,NA,NA,NA,NA,NA,NA,NA
SUPAMT63428,3WOKGM4L77FZMOM2KIYPG0OYRK9O0G,415CB1CE-2C48-41F8-A16F-45288D105DB3,2023-09-26_06h28.00.353,WP_VExplicitOC_HL,2022.2.5,Win32,6.383128116,NA,NA,NA,NA,NA,NA,NA,NA,NA,NA,NA,NA,NA,NA,NA,NA,NA,NA,make a drink,004.png,NA,NA,NA,NA,NA,NA,NA,NA,NA,NA,NA,NA,NA,NA,NA,NA,NA,NA,0,3,3,3,1,NA,NA,NA,NA,NA,NA,NA,NA,NA,NA,NA,NA,NA,NA,NA,NA
SUPAMT63428,3WOKGM4L77FZMOM2KIYPG0OYRK9O0G,415CB1CE-2C48-41F8-A16F-45288D105DB3,2023-09-26_06h28.00.353,WP_VExplicitOC_HL,2022.2.5,Win32,6.383128116,NA,NA,NA,NA,NA,NA,NA,NA,NA,NA,NA,NA,NA,NA,NA,NA,NA,NA,scroll social media,005.png,NA,NA,NA,NA,NA,NA,NA,NA,NA,NA,NA,NA,NA,NA,NA,NA,NA,NA,0,4,4,4,1,NA,NA,NA,NA,NA,NA,NA,NA,NA,NA,NA,NA,NA,NA,NA,NA
SUPAMT63428,3WOKGM4L77FZMOM2KIYPG0OYRK9O0G,415CB1CE-2C48-41F8-A16F-45288D105DB3,2023-09-26_06h28.00.353,WP_VExplicitOC_HL,2022.2.5,Win32,6.383128116,NA,NA,NA,NA,NA,NA,NA,NA,NA,NA,NA,NA,NA,NA,NA,NA,NA,NA,listen to music,006.png,NA,NA,NA,NA,NA,NA,NA,NA,NA,NA,NA,NA,NA,NA,NA,NA,NA,NA,0,5,5,5,1,NA,NA,NA,NA,NA,NA,NA,NA,NA,NA,NA,NA,NA,NA,NA,NA
SUPAMT63428,3WOKGM4L77FZMOM2KIYPG0OYRK9O0G,415CB1CE-2C48-41F8-A16F-45288D105DB3,2023-09-26_06h28.00.353,WP_VExplicitOC_HL,2022.2.5,Win32,6.383128116,NA,NA,NA,NA,NA,NA,NA,NA,NA,NA,NA,NA,NA,NA,NA,NA,NA,NA,daydream,007.png,NA,NA,NA,NA,NA,NA,NA,NA,NA,NA,NA,NA,NA,NA,NA,NA,NA,NA,0,6,6,6,1,NA,NA,NA,NA,NA,NA,NA,NA,NA,NA,NA,NA,NA,NA,NA,NA
SUPAMT63428,3WOKGM4L77FZMOM2KIYPG0OYRK9O0G,415CB1CE-2C48-41F8-A16F-45288D105DB3,2023-09-26_06h28.00.353,WP_VExplicitOC_HL,2022.2.5,Win32,6.383128116,NA,NA,NA,NA,NA,NA,NA,NA,NA,NA,NA,NA,NA,NA,NA,NA,NA,NA,watch a short animation,008.png,NA,NA,NA,NA,NA,NA,NA,NA,NA,NA,NA,NA,NA,NA,NA,NA,NA,NA,0,7,7,7,1,NA,NA,NA,NA,NA,NA,NA,NA,NA,NA,NA,NA,NA,NA,NA,NA
SUPAMT63428,3WOKGM4L77FZMOM2KIYPG0OYRK9O0G,415CB1CE-2C48-41F8-A16F-45288D105DB3,2023-09-26_06h28.00.353,WP_VExplicitOC_HL,2022.2.5,Win32,6.383128116,NA,NA,NA,NA,NA,NA,NA,NA,NA,NA,NA,NA,NA,NA,NA,NA,NA,NA,read a novel,009.png,NA,NA,NA,NA,NA,NA,NA,NA,NA,NA,NA,NA,NA,NA,NA,NA,NA,NA,0,8,8,8,1,NA,NA,NA,NA,NA,NA,NA,NA,NA,NA,NA,NA,NA,NA,NA,NA
SUPAMT63428,3WOKGM4L77FZMOM2KIYPG0OYRK9O0G,415CB1CE-2C48-41F8-A16F-45288D105DB3,2023-09-26_06h28.00.353,WP_VExplicitOC_HL,2022.2.5,Win32,6.383128116,NA,NA,NA,NA,NA,NA,NA,NA,NA,NA,NA,NA,NA,NA,NA,NA,NA,NA,read the news,010.png,NA,NA,NA,NA,NA,NA,NA,NA,NA,NA,NA,NA,NA,NA,NA,NA,NA,NA,0,9,9,9,1,NA,NA,NA,NA,NA,NA,NA,NA,NA,NA,NA,NA,NA,NA,NA,NA
SUPAMT63428,3WOKGM4L77FZMOM2KIYPG0OYRK9O0G,415CB1CE-2C48-41F8-A16F-45288D105DB3,2023-09-26_06h28.00.353,WP_VExplicitOC_HL,2022.2.5,Win32,6.383128116,NA,NA,NA,NA,NA,NA,NA,NA,NA,NA,NA,NA,NA,NA,NA,NA,NA,NA,NA,NA,NA,NA,NA,NA,NA,NA,NA,NA,NA,NA,NA,NA,NA,NA,NA,NA,NA,NA,NA,NA,NA,NA,NA,visuomotor task,NA,NA,NA,NA,NA,NA,NA,NA,NA,NA,NA,NA,NA,NA,NA
SUPAMT63428,3WOKGM4L77FZMOM2KIYPG0OYRK9O0G,415CB1CE-2C48-41F8-A16F-45288D105DB3,2023-09-26_06h28.00.353,WP_VExplicitOC_HL,2022.2.5,Win32,6.383128116,NA,NA,2.005,NA,NA,NA,NA,NA,happy,"unhappy, happy","less happy, more happy",NA,NA,NA,NA,NA,NA,NA,NA,NA,NA,NA,NA,NA,NA,NA,NA,NA,NA,NA,NA,NA,NA,NA,NA,NA,NA,NA,NA,NA,NA,NA,NA,NA,0,0,0,0,1,NA,NA,NA,NA,NA,NA,NA,NA,NA,NA
SUPAMT63428,3WOKGM4L77FZMOM2KIYPG0OYRK9O0G,415CB1CE-2C48-41F8-A16F-45288D105DB3,2023-09-26_06h28.00.353,WP_VExplicitOC_HL,2022.2.5,Win32,6.383128116,NA,NA,2.1489,NA,NA,NA,NA,NA,frustrated,"frustrated, not frustrated","more frustrated, less frustrated",NA,NA,NA,NA,NA,NA,NA,NA,NA,NA,NA,NA,NA,NA,NA,NA,NA,NA,NA,NA,NA,NA,NA,NA,NA,NA,NA,NA,NA,NA,NA,NA,NA,0,1,1,1,1,NA,NA,NA,NA,NA,NA,NA,NA,NA,NA
SUPAMT63428,3WOKGM4L77FZMOM2KIYPG0OYRK9O0G,415CB1CE-2C48-41F8-A16F-45288D105DB3,2023-09-26_06h28.00.353,WP_VExplicitOC_HL,2022.2.5,Win32,6.383128116,NA,NA,2.144,NA,NA,NA,NA,NA,bored,"bored, not bored","more bored, less bored",NA,NA,NA,NA,NA,NA,NA,NA,NA,NA,NA,NA,NA,NA,NA,NA,NA,NA,NA,NA,NA,NA,NA,NA,NA,NA,NA,NA,NA,NA,NA,NA,NA,0,2,2,2,1,NA,NA,NA,NA,NA,NA,NA,NA,NA,NA
SUPAMT63428,3WOKGM4L77FZMOM2KIYPG0OYRK9O0G,415CB1CE-2C48-41F8-A16F-45288D105DB3,2023-09-26_06h28.00.353,WP_VExplicitOC_HL,2022.2.5,Win32,6.383128116,NA,NA,NA,NA,NA,NA,NA,NA,NA,NA,NA,NA,NA,NA,NA,NA,NA,NA,NA,NA,NA,NA,NA,NA,NA,NA,NA,NA,NA,NA,NA,NA,NA,NA,NA,NA,NA,NA,NA,NA,NA,NA,NA,NA,NA,NA,NA,NA,NA,NA,NA,NA,NA,NA,NA,NA,NA,NA,NA
SUPAMT63428,3WOKGM4L77FZMOM2KIYPG0OYRK9O0G,415CB1CE-2C48-41F8-A16F-45288D105DB3,2023-09-26_06h28.00.353,WP_VExplicitOC_HL,2022.2.5,Win32,6.383128116,NA,NA,NA,NA,NA,NA,NA,NA,NA,NA,NA,NA,NA,NA,NA,NA,NA,NA,NA,NA,NA,NA,NA,NA,NA,NA,NA,NA,NA,NA,NA,NA,NA,NA,NA,NA,NA,NA,NA,NA,NA,NA,NA,NA,NA,NA,NA,NA,NA,NA,NA,NA,NA,NA,NA,NA,NA,NA,NA
SUPAMT63428,3WOKGM4L77FZMOM2KIYPG0OYRK9O0G,415CB1CE-2C48-41F8-A16F-45288D105DB3,2023-09-26_06h28.00.353,WP_VExplicitOC_HL,2022.2.5,Win32,6.383128116,NA,NA,2.131,NA,NA,NA,NA,NA,happy,"unhappy, happy","less happy, more happy",NA,NA,NA,NA,NA,NA,NA,NA,NA,NA,NA,NA,NA,NA,NA,NA,NA,NA,NA,NA,NA,NA,NA,NA,NA,NA,NA,NA,NA,NA,NA,NA,NA,NA,NA,NA,NA,NA,0,0,0,0,1,NA,NA,NA,NA,NA
SUPAMT63428,3WOKGM4L77FZMOM2KIYPG0OYRK9O0G,415CB1CE-2C48-41F8-A16F-45288D105DB3,2023-09-26_06h28.00.353,WP_VExplicitOC_HL,2022.2.5,Win32,6.383128116,NA,NA,2.137,NA,NA,NA,NA,NA,bored,"bored, not bored","more bored, less bored",NA,NA,NA,NA,NA,NA,NA,NA,NA,NA,NA,NA,NA,NA,NA,NA,NA,NA,NA,NA,NA,NA,NA,NA,NA,NA,NA,NA,NA,NA,NA,NA,NA,NA,NA,NA,NA,NA,0,1,1,2,1,NA,NA,NA,NA,NA
SUPAMT63428,3WOKGM4L77FZMOM2KIYPG0OYRK9O0G,415CB1CE-2C48-41F8-A16F-45288D105DB3,2023-09-26_06h28.00.353,WP_VExplicitOC_HL,2022.2.5,Win32,6.383128116,NA,NA,2.0127,NA,NA,NA,NA,NA,frustrated,"frustrated, not frustrated","more frustrated, less frustrated",NA,NA,NA,NA,NA,NA,NA,NA,NA,NA,NA,NA,NA,NA,NA,NA,NA,NA,NA,NA,NA,NA,NA,NA,NA,NA,NA,NA,NA,NA,NA,NA,NA,NA,NA,NA,NA,NA,0,2,2,1,1,NA,NA,NA,NA,NA
SUPAMT63428,3WOKGM4L77FZMOM2KIYPG0OYRK9O0G,415CB1CE-2C48-41F8-A16F-45288D105DB3,2023-09-26_06h28.00.353,WP_VExplicitOC_HL,2022.2.5,Win32,6.383128116,NA,NA,NA,NA,NA,NA,NA,NA,NA,NA,NA,NA,NA,NA,NA,NA,NA,NA,NA,NA,NA,NA,NA,NA,NA,NA,NA,NA,NA,NA,NA,NA,NA,NA,NA,NA,NA,NA,NA,NA,NA,NA,NA,NA,NA,NA,NA,NA,NA,NA,NA,NA,NA,NA,0,0,0,0,1
SUPAMT63428,3WOKGM4L77FZMOM2KIYPG0OYRK9O0G,415CB1CE-2C48-41F8-A16F-45288D105DB3,2023-09-26_06h28.00.353,WP_VExplicitOC_HL,2022.2.5,Win32,6.383128116,NA,NA,2.1341,NA,NA,NA,NA,NA,happy,"unhappy, happy","less happy, more happy",NA,NA,NA,NA,NA,NA,NA,NA,NA,NA,NA,NA,NA,NA,NA,NA,NA,NA,NA,NA,NA,NA,NA,NA,NA,NA,NA,NA,NA,NA,NA,NA,NA,NA,NA,NA,NA,NA,0,0,0,0,1,NA,NA,NA,NA,NA
SUPAMT63428,3WOKGM4L77FZMOM2KIYPG0OYRK9O0G,415CB1CE-2C48-41F8-A16F-45288D105DB3,2023-09-26_06h28.00.353,WP_VExplicitOC_HL,2022.2.5,Win32,6.383128116,NA,NA,2.1282,NA,NA,NA,NA,NA,bored,"bored, not bored","more bored, less bored",NA,NA,NA,NA,NA,NA,NA,NA,NA,NA,NA,NA,NA,NA,NA,NA,NA,NA,NA,NA,NA,NA,NA,NA,NA,NA,NA,NA,NA,NA,NA,NA,NA,NA,NA,NA,NA,NA,0,1,1,2,1,NA,NA,NA,NA,NA
SUPAMT63428,3WOKGM4L77FZMOM2KIYPG0OYRK9O0G,415CB1CE-2C48-41F8-A16F-45288D105DB3,2023-09-26_06h28.00.353,WP_VExplicitOC_HL,2022.2.5,Win32,6.383128116,NA,NA,2,NA,NA,NA,NA,NA,frustrated,"frustrated, not frustrated","more frustrated, less frustrated",NA,NA,NA,NA,NA,NA,NA,NA,NA,NA,NA,NA,NA,NA,NA,NA,NA,NA,NA,NA,NA,NA,NA,NA,NA,NA,NA,NA,NA,NA,NA,NA,NA,NA,NA,NA,NA,NA,0,2,2,1,1,NA,NA,NA,NA,NA
SUPAMT63428,3WOKGM4L77FZMOM2KIYPG0OYRK9O0G,415CB1CE-2C48-41F8-A16F-45288D105DB3,2023-09-26_06h28.00.353,WP_VExplicitOC_HL,2022.2.5,Win32,6.383128116,NA,NA,NA,NA,NA,NA,NA,NA,NA,NA,NA,NA,NA,NA,NA,NA,NA,NA,NA,NA,NA,NA,NA,NA,NA,NA,NA,NA,NA,NA,NA,NA,NA,NA,NA,NA,NA,NA,NA,NA,NA,NA,NA,NA,NA,NA,NA,NA,NA,NA,NA,NA,NA,NA,1,0,1,0,1
SUPAMT63428,3WOKGM4L77FZMOM2KIYPG0OYRK9O0G,415CB1CE-2C48-41F8-A16F-45288D105DB3,2023-09-26_06h28.00.353,WP_VExplicitOC_HL,2022.2.5,Win32,6.383128116,NA,NA,2.0231,NA,NA,NA,NA,NA,frustrated,"frustrated, not frustrated","more frustrated, less frustrated",NA,NA,NA,NA,NA,NA,NA,NA,NA,NA,NA,NA,NA,NA,NA,NA,NA,NA,NA,NA,NA,NA,NA,NA,NA,NA,NA,NA,NA,NA,NA,NA,NA,NA,NA,NA,NA,NA,0,0,0,1,1,NA,NA,NA,NA,NA
SUPAMT63428,3WOKGM4L77FZMOM2KIYPG0OYRK9O0G,415CB1CE-2C48-41F8-A16F-45288D105DB3,2023-09-26_06h28.00.353,WP_VExplicitOC_HL,2022.2.5,Win32,6.383128116,NA,NA,2.1337,NA,NA,NA,NA,NA,bored,"bored, not bored","more bored, less bored",NA,NA,NA,NA,NA,NA,NA,NA,NA,NA,NA,NA,NA,NA,NA,NA,NA,NA,NA,NA,NA,NA,NA,NA,NA,NA,NA,NA,NA,NA,NA,NA,NA,NA,NA,NA,NA,NA,0,1,1,2,1,NA,NA,NA,NA,NA
SUPAMT63428,3WOKGM4L77FZMOM2KIYPG0OYRK9O0G,415CB1CE-2C48-41F8-A16F-45288D105DB3,2023-09-26_06h28.00.353,WP_VExplicitOC_HL,2022.2.5,Win32,6.383128116,NA,NA,2.0128,NA,NA,NA,NA,NA,happy,"unhappy, happy","less happy, more happy",NA,NA,NA,NA,NA,NA,NA,NA,NA,NA,NA,NA,NA,NA,NA,NA,NA,NA,NA,NA,NA,NA,NA,NA,NA,NA,NA,NA,NA,NA,NA,NA,NA,NA,NA,NA,NA,NA,0,2,2,0,1,NA,NA,NA,NA,NA
SUPAMT63428,3WOKGM4L77FZMOM2KIYPG0OYRK9O0G,415CB1CE-2C48-41F8-A16F-45288D105DB3,2023-09-26_06h28.00.353,WP_VExplicitOC_HL,2022.2.5,Win32,6.383128116,NA,NA,NA,NA,NA,NA,NA,NA,NA,NA,NA,NA,NA,NA,NA,NA,NA,NA,NA,NA,NA,NA,NA,NA,NA,NA,NA,NA,NA,NA,NA,NA,NA,NA,NA,NA,NA,NA,NA,NA,NA,NA,NA,NA,NA,NA,NA,NA,NA,NA,NA,NA,NA,NA,2,0,2,0,1
SUPAMT63428,3WOKGM4L77FZMOM2KIYPG0OYRK9O0G,415CB1CE-2C48-41F8-A16F-45288D105DB3,2023-09-26_06h28.00.353,WP_VExplicitOC_HL,2022.2.5,Win32,6.383128116,NA,NA,2.1142,NA,NA,NA,NA,NA,happy,"unhappy, happy","less happy, more happy",NA,NA,NA,NA,NA,NA,NA,NA,NA,NA,NA,NA,NA,NA,NA,NA,NA,NA,NA,NA,NA,NA,NA,NA,NA,NA,NA,NA,NA,NA,NA,NA,NA,NA,NA,NA,NA,NA,0,0,0,0,1,NA,NA,NA,NA,NA
SUPAMT63428,3WOKGM4L77FZMOM2KIYPG0OYRK9O0G,415CB1CE-2C48-41F8-A16F-45288D105DB3,2023-09-26_06h28.00.353,WP_VExplicitOC_HL,2022.2.5,Win32,6.383128116,98.92473118,3.9025,2.0419,NA,NA,NA,NA,NA,bored,"bored, not bored","more bored, less bored",NA,NA,NA,NA,NA,NA,NA,NA,NA,NA,NA,NA,NA,NA,NA,NA,NA,NA,NA,NA,NA,NA,NA,NA,NA,NA,NA,NA,NA,NA,NA,NA,NA,NA,NA,NA,NA,NA,0,1,1,2,1,NA,NA,NA,NA,NA
SUPAMT63428,3WOKGM4L77FZMOM2KIYPG0OYRK9O0G,415CB1CE-2C48-41F8-A16F-45288D105DB3,2023-09-26_06h28.00.353,WP_VExplicitOC_HL,2022.2.5,Win32,6.383128116,98.61751152,3.7268,2.0243,NA,NA,NA,NA,NA,frustrated,"frustrated, not frustrated","more frustrated, less frustrated",NA,NA,NA,NA,NA,NA,NA,NA,NA,NA,NA,NA,NA,NA,NA,NA,NA,NA,NA,NA,NA,NA,NA,NA,NA,NA,NA,NA,NA,NA,NA,NA,NA,NA,NA,NA,NA,NA,0,2,2,1,1,NA,NA,NA,NA,NA
SUPAMT63428,3WOKGM4L77FZMOM2KIYPG0OYRK9O0G,415CB1CE-2C48-41F8-A16F-45288D105DB3,2023-09-26_06h28.00.353,WP_VExplicitOC_HL,2022.2.5,Win32,6.383128116,NA,NA,NA,NA,NA,NA,NA,NA,NA,NA,NA,NA,NA,NA,NA,NA,NA,NA,NA,NA,NA,NA,NA,NA,NA,NA,NA,NA,NA,NA,NA,NA,NA,NA,NA,NA,NA,NA,NA,NA,NA,NA,NA,NA,NA,NA,NA,NA,NA,NA,NA,NA,NA,NA,3,0,3,0,1
SUPAMT63428,3WOKGM4L77FZMOM2KIYPG0OYRK9O0G,415CB1CE-2C48-41F8-A16F-45288D105DB3,2023-09-26_06h28.00.353,WP_VExplicitOC_HL,2022.2.5,Win32,6.383128116,52.84178187,3.8424,2.0869,NA,NA,NA,NA,NA,frustrated,"frustrated, not frustrated","more frustrated, less frustrated",NA,NA,NA,NA,NA,NA,NA,NA,NA,NA,NA,NA,NA,NA,NA,NA,NA,NA,NA,NA,NA,NA,NA,NA,NA,NA,NA,NA,NA,NA,NA,NA,NA,NA,NA,NA,NA,NA,0,0,0,1,1,NA,NA,NA,NA,NA
SUPAMT63428,3WOKGM4L77FZMOM2KIYPG0OYRK9O0G,415CB1CE-2C48-41F8-A16F-45288D105DB3,2023-09-26_06h28.00.353,WP_VExplicitOC_HL,2022.2.5,Win32,6.383128116,94.93087558,3.886,2.1499,NA,NA,NA,NA,NA,bored,"bored, not bored","more bored, less bored",NA,NA,NA,NA,NA,NA,NA,NA,NA,NA,NA,NA,NA,NA,NA,NA,NA,NA,NA,NA,NA,NA,NA,NA,NA,NA,NA,NA,NA,NA,NA,NA,NA,NA,NA,NA,NA,NA,0,1,1,2,1,NA,NA,NA,NA,NA
SUPAMT63428,3WOKGM4L77FZMOM2KIYPG0OYRK9O0G,415CB1CE-2C48-41F8-A16F-45288D105DB3,2023-09-26_06h28.00.353,WP_VExplicitOC_HL,2022.2.5,Win32,6.383128116,94.93087558,3.4495,2.0174,NA,NA,NA,NA,NA,happy,"unhappy, happy","less happy, more happy",NA,NA,NA,NA,NA,NA,NA,NA,NA,NA,NA,NA,NA,NA,NA,NA,NA,NA,NA,NA,NA,NA,NA,NA,NA,NA,NA,NA,NA,NA,NA,NA,NA,NA,NA,NA,NA,NA,0,2,2,0,1,NA,NA,NA,NA,NA
SUPAMT63428,3WOKGM4L77FZMOM2KIYPG0OYRK9O0G,415CB1CE-2C48-41F8-A16F-45288D105DB3,2023-09-26_06h28.00.353,WP_VExplicitOC_HL,2022.2.5,Win32,6.383128116,NA,NA,NA,NA,NA,NA,NA,NA,NA,NA,NA,NA,NA,NA,NA,NA,NA,NA,NA,NA,NA,NA,NA,NA,NA,NA,NA,NA,NA,NA,NA,NA,NA,NA,NA,NA,NA,NA,NA,NA,NA,NA,NA,NA,NA,NA,NA,NA,NA,NA,NA,NA,NA,NA,4,0,4,0,1
SUPAMT63428,3WOKGM4L77FZMOM2KIYPG0OYRK9O0G,415CB1CE-2C48-41F8-A16F-45288D105DB3,2023-09-26_06h28.00.353,WP_VExplicitOC_HL,2022.2.5,Win32,6.383128116,51.30568356,3.4038,2.0249,NA,NA,NA,NA,NA,frustrated,"frustrated, not frustrated","more frustrated, less frustrated",NA,NA,NA,NA,NA,NA,NA,NA,NA,NA,NA,NA,NA,NA,NA,NA,NA,NA,NA,NA,NA,NA,NA,NA,NA,NA,NA,NA,NA,NA,NA,NA,NA,NA,NA,NA,NA,NA,0,0,0,1,1,NA,NA,NA,NA,NA
SUPAMT63428,3WOKGM4L77FZMOM2KIYPG0OYRK9O0G,415CB1CE-2C48-41F8-A16F-45288D105DB3,2023-09-26_06h28.00.353,WP_VExplicitOC_HL,2022.2.5,Win32,6.383128116,62.98003072,3.7415,2.0099,NA,NA,NA,NA,NA,happy,"unhappy, happy","less happy, more happy",NA,NA,NA,NA,NA,NA,NA,NA,NA,NA,NA,NA,NA,NA,NA,NA,NA,NA,NA,NA,NA,NA,NA,NA,NA,NA,NA,NA,NA,NA,NA,NA,NA,NA,NA,NA,NA,NA,0,1,1,0,1,NA,NA,NA,NA,NA
SUPAMT63428,3WOKGM4L77FZMOM2KIYPG0OYRK9O0G,415CB1CE-2C48-41F8-A16F-45288D105DB3,2023-09-26_06h28.00.353,WP_VExplicitOC_HL,2022.2.5,Win32,6.383128116,52.84178187,3.5228,2.1277,NA,NA,NA,NA,NA,bored,"bored, not bored","more bored, less bored",NA,NA,NA,NA,NA,NA,NA,NA,NA,NA,NA,NA,NA,NA,NA,NA,NA,NA,NA,NA,NA,NA,NA,NA,NA,NA,NA,NA,NA,NA,NA,NA,NA,NA,NA,NA,NA,NA,0,2,2,2,1,NA,NA,NA,NA,NA
SUPAMT63428,3WOKGM4L77FZMOM2KIYPG0OYRK9O0G,415CB1CE-2C48-41F8-A16F-45288D105DB3,2023-09-26_06h28.00.353,WP_VExplicitOC_HL,2022.2.5,Win32,6.383128116,NA,NA,NA,NA,NA,NA,NA,NA,NA,NA,NA,NA,NA,NA,NA,NA,NA,NA,NA,NA,NA,NA,NA,NA,NA,NA,NA,NA,NA,NA,NA,NA,NA,NA,NA,NA,NA,NA,NA,NA,NA,NA,NA,NA,NA,NA,NA,NA,NA,NA,NA,NA,NA,NA,5,0,5,0,1
SUPAMT63428,3WOKGM4L77FZMOM2KIYPG0OYRK9O0G,415CB1CE-2C48-41F8-A16F-45288D105DB3,2023-09-26_06h28.00.353,WP_VExplicitOC_HL,2022.2.5,Win32,6.383128116,NA,NA,2.1407,NA,NA,NA,NA,NA,frustrated,"frustrated, not frustrated","more frustrated, less frustrated",NA,NA,NA,NA,NA,NA,NA,NA,NA,NA,NA,NA,NA,NA,NA,NA,NA,NA,NA,NA,NA,NA,NA,NA,NA,NA,NA,NA,NA,NA,NA,NA,NA,NA,NA,NA,NA,NA,0,0,0,1,1,NA,NA,NA,NA,NA
SUPAMT63428,3WOKGM4L77FZMOM2KIYPG0OYRK9O0G,415CB1CE-2C48-41F8-A16F-45288D105DB3,2023-09-26_06h28.00.353,WP_VExplicitOC_HL,2022.2.5,Win32,6.383128116,NA,NA,2.1515,NA,NA,NA,NA,NA,happy,"unhappy, happy","less happy, more happy",NA,NA,NA,NA,NA,NA,NA,NA,NA,NA,NA,NA,NA,NA,NA,NA,NA,NA,NA,NA,NA,NA,NA,NA,NA,NA,NA,NA,NA,NA,NA,NA,NA,NA,NA,NA,NA,NA,0,1,1,0,1,NA,NA,NA,NA,NA
SUPAMT63428,3WOKGM4L77FZMOM2KIYPG0OYRK9O0G,415CB1CE-2C48-41F8-A16F-45288D105DB3,2023-09-26_06h28.00.353,WP_VExplicitOC_HL,2022.2.5,Win32,6.383128116,NA,NA,2.1421,NA,NA,NA,NA,NA,bored,"bored, not bored","more bored, less bored",NA,NA,NA,NA,NA,NA,NA,NA,NA,NA,NA,NA,NA,NA,NA,NA,NA,NA,NA,NA,NA,NA,NA,NA,NA,NA,NA,NA,NA,NA,NA,NA,NA,NA,NA,NA,NA,NA,0,2,2,2,1,NA,NA,NA,NA,NA
SUPAMT63428,3WOKGM4L77FZMOM2KIYPG0OYRK9O0G,415CB1CE-2C48-41F8-A16F-45288D105DB3,2023-09-26_06h28.00.353,WP_VExplicitOC_HL,2022.2.5,Win32,6.383128116,NA,NA,NA,NA,NA,NA,NA,NA,NA,NA,NA,NA,NA,NA,NA,NA,NA,NA,NA,NA,NA,NA,NA,NA,NA,NA,NA,NA,NA,NA,NA,NA,NA,NA,NA,NA,NA,NA,NA,NA,NA,NA,NA,NA,NA,NA,NA,NA,NA,NA,NA,NA,NA,NA,6,0,6,0,1
SUPAMT63428,3WOKGM4L77FZMOM2KIYPG0OYRK9O0G,415CB1CE-2C48-41F8-A16F-45288D105DB3,2023-09-26_06h28.00.353,WP_VExplicitOC_HL,2022.2.5,Win32,6.383128116,75.2688172,4.1909,2.1446,NA,NA,NA,NA,NA,frustrated,"frustrated, not frustrated","more frustrated, less frustrated",NA,NA,NA,NA,NA,NA,NA,NA,NA,NA,NA,NA,NA,NA,NA,NA,NA,NA,NA,NA,NA,NA,NA,NA,NA,NA,NA,NA,NA,NA,NA,NA,NA,NA,NA,NA,NA,NA,0,0,0,1,1,NA,NA,NA,NA,NA
SUPAMT63428,3WOKGM4L77FZMOM2KIYPG0OYRK9O0G,415CB1CE-2C48-41F8-A16F-45288D105DB3,2023-09-26_06h28.00.353,WP_VExplicitOC_HL,2022.2.5,Win32,6.383128116,77.41935484,3.6775,2.1345,NA,NA,NA,NA,NA,happy,"unhappy, happy","less happy, more happy",NA,NA,NA,NA,NA,NA,NA,NA,NA,NA,NA,NA,NA,NA,NA,NA,NA,NA,NA,NA,NA,NA,NA,NA,NA,NA,NA,NA,NA,NA,NA,NA,NA,NA,NA,NA,NA,NA,0,1,1,0,1,NA,NA,NA,NA,NA
SUPAMT63428,3WOKGM4L77FZMOM2KIYPG0OYRK9O0G,415CB1CE-2C48-41F8-A16F-45288D105DB3,2023-09-26_06h28.00.353,WP_VExplicitOC_HL,2022.2.5,Win32,6.383128116,100,4.1761,2.0001,NA,NA,NA,NA,NA,bored,"bored, not bored","more bored, less bored",NA,NA,NA,NA,NA,NA,NA,NA,NA,NA,NA,NA,NA,NA,NA,NA,NA,NA,NA,NA,NA,NA,NA,NA,NA,NA,NA,NA,NA,NA,NA,NA,NA,NA,NA,NA,NA,NA,0,2,2,2,1,NA,NA,NA,NA,NA
SUPAMT63428,3WOKGM4L77FZMOM2KIYPG0OYRK9O0G,415CB1CE-2C48-41F8-A16F-45288D105DB3,2023-09-26_06h28.00.353,WP_VExplicitOC_HL,2022.2.5,Win32,6.383128116,NA,NA,NA,NA,NA,NA,NA,NA,NA,NA,NA,NA,NA,NA,NA,NA,NA,NA,NA,NA,NA,NA,NA,NA,NA,NA,NA,NA,NA,NA,NA,NA,NA,NA,NA,NA,NA,NA,NA,NA,NA,NA,NA,NA,NA,NA,NA,NA,NA,NA,NA,NA,NA,NA,7,0,7,0,1
SUPAMT63428,3WOKGM4L77FZMOM2KIYPG0OYRK9O0G,415CB1CE-2C48-41F8-A16F-45288D105DB3,2023-09-26_06h28.00.353,WP_VExplicitOC_HL,2022.2.5,Win32,6.383128116,54.99231951,3.5747,2.0017,NA,NA,NA,NA,NA,frustrated,"frustrated, not frustrated","more frustrated, less frustrated",NA,NA,NA,NA,NA,NA,NA,NA,NA,NA,NA,NA,NA,NA,NA,NA,NA,NA,NA,NA,NA,NA,NA,NA,NA,NA,NA,NA,NA,NA,NA,NA,NA,NA,NA,NA,NA,NA,0,0,0,1,1,NA,NA,NA,NA,NA
SUPAMT63428,3WOKGM4L77FZMOM2KIYPG0OYRK9O0G,415CB1CE-2C48-41F8-A16F-45288D105DB3,2023-09-26_06h28.00.353,WP_VExplicitOC_HL,2022.2.5,Win32,6.383128116,74.96159754,3.4293,2.0049,NA,NA,NA,NA,NA,bored,"bored, not bored","more bored, less bored",NA,NA,NA,NA,NA,NA,NA,NA,NA,NA,NA,NA,NA,NA,NA,NA,NA,NA,NA,NA,NA,NA,NA,NA,NA,NA,NA,NA,NA,NA,NA,NA,NA,NA,NA,NA,NA,NA,0,1,1,2,1,NA,NA,NA,NA,NA
SUPAMT63428,3WOKGM4L77FZMOM2KIYPG0OYRK9O0G,415CB1CE-2C48-41F8-A16F-45288D105DB3,2023-09-26_06h28.00.353,WP_VExplicitOC_HL,2022.2.5,Win32,6.383128116,66.05222734,4.0455,2.0131,NA,NA,NA,NA,NA,happy,"unhappy, happy","less happy, more happy",NA,NA,NA,NA,NA,NA,NA,NA,NA,NA,NA,NA,NA,NA,NA,NA,NA,NA,NA,NA,NA,NA,NA,NA,NA,NA,NA,NA,NA,NA,NA,NA,NA,NA,NA,NA,NA,NA,0,2,2,0,1,NA,NA,NA,NA,NA
SUPAMT63428,3WOKGM4L77FZMOM2KIYPG0OYRK9O0G,415CB1CE-2C48-41F8-A16F-45288D105DB3,2023-09-26_06h28.00.353,WP_VExplicitOC_HL,2022.2.5,Win32,6.383128116,NA,NA,NA,NA,NA,NA,NA,NA,NA,NA,NA,NA,NA,NA,NA,NA,NA,NA,NA,NA,NA,NA,NA,NA,NA,NA,NA,NA,NA,NA,NA,NA,NA,NA,NA,NA,NA,NA,NA,NA,NA,NA,NA,NA,NA,NA,NA,NA,NA,NA,NA,NA,NA,NA,8,0,8,0,1
SUPAMT63428,3WOKGM4L77FZMOM2KIYPG0OYRK9O0G,415CB1CE-2C48-41F8-A16F-45288D105DB3,2023-09-26_06h28.00.353,WP_VExplicitOC_HL,2022.2.5,Win32,6.383128116,43.62519201,3.5325,2.0003,NA,NA,NA,NA,NA,happy,"unhappy, happy","less happy, more happy",NA,NA,NA,NA,NA,NA,NA,NA,NA,NA,NA,NA,NA,NA,NA,NA,NA,NA,NA,NA,NA,NA,NA,NA,NA,NA,NA,NA,NA,NA,NA,NA,NA,NA,NA,NA,NA,NA,0,0,0,0,1,NA,NA,NA,NA,NA
SUPAMT63428,3WOKGM4L77FZMOM2KIYPG0OYRK9O0G,415CB1CE-2C48-41F8-A16F-45288D105DB3,2023-09-26_06h28.00.353,WP_VExplicitOC_HL,2022.2.5,Win32,6.383128116,49.76958525,3.8711,2.1537,NA,NA,NA,NA,NA,bored,"bored, not bored","more bored, less bored",NA,NA,NA,NA,NA,NA,NA,NA,NA,NA,NA,NA,NA,NA,NA,NA,NA,NA,NA,NA,NA,NA,NA,NA,NA,NA,NA,NA,NA,NA,NA,NA,NA,NA,NA,NA,NA,NA,0,1,1,2,1,NA,NA,NA,NA,NA
SUPAMT63428,3WOKGM4L77FZMOM2KIYPG0OYRK9O0G,415CB1CE-2C48-41F8-A16F-45288D105DB3,2023-09-26_06h28.00.353,WP_VExplicitOC_HL,2022.2.5,Win32,6.383128116,61.44393241,3.4256,2.0002,NA,NA,NA,NA,NA,frustrated,"frustrated, not frustrated","more frustrated, less frustrated",NA,NA,NA,NA,NA,NA,NA,NA,NA,NA,NA,NA,NA,NA,NA,NA,NA,NA,NA,NA,NA,NA,NA,NA,NA,NA,NA,NA,NA,NA,NA,NA,NA,NA,NA,NA,NA,NA,0,2,2,1,1,NA,NA,NA,NA,NA
SUPAMT63428,3WOKGM4L77FZMOM2KIYPG0OYRK9O0G,415CB1CE-2C48-41F8-A16F-45288D105DB3,2023-09-26_06h28.00.353,WP_VExplicitOC_HL,2022.2.5,Win32,6.383128116,NA,NA,NA,NA,NA,NA,NA,NA,NA,NA,NA,NA,NA,NA,NA,NA,NA,NA,NA,NA,NA,NA,NA,NA,NA,NA,NA,NA,NA,NA,NA,NA,NA,NA,NA,NA,NA,NA,NA,NA,NA,NA,NA,NA,NA,NA,NA,NA,NA,NA,NA,NA,NA,NA,9,0,9,0,1
SUPAMT63428,3WOKGM4L77FZMOM2KIYPG0OYRK9O0G,415CB1CE-2C48-41F8-A16F-45288D105DB3,2023-09-26_06h28.00.353,WP_VExplicitOC_HL,2022.2.5,Win32,6.383128116,55.29953917,3.5554,2.0072,NA,NA,NA,NA,NA,bored,"bored, not bored","more bored, less bored",NA,NA,NA,NA,NA,NA,NA,NA,NA,NA,NA,NA,NA,NA,NA,NA,NA,NA,NA,NA,NA,NA,NA,NA,NA,NA,NA,NA,NA,NA,NA,NA,NA,NA,NA,NA,NA,NA,0,0,0,2,1,NA,NA,NA,NA,NA
SUPAMT63428,3WOKGM4L77FZMOM2KIYPG0OYRK9O0G,415CB1CE-2C48-41F8-A16F-45288D105DB3,2023-09-26_06h28.00.353,WP_VExplicitOC_HL,2022.2.5,Win32,6.383128116,84.1781874,3.7247,2.0094,NA,NA,NA,NA,NA,happy,"unhappy, happy","less happy, more happy",NA,NA,NA,NA,NA,NA,NA,NA,NA,NA,NA,NA,NA,NA,NA,NA,NA,NA,NA,NA,NA,NA,NA,NA,NA,NA,NA,NA,NA,NA,NA,NA,NA,NA,NA,NA,NA,NA,0,1,1,0,1,NA,NA,NA,NA,NA
SUPAMT63428,3WOKGM4L77FZMOM2KIYPG0OYRK9O0G,415CB1CE-2C48-41F8-A16F-45288D105DB3,2023-09-26_06h28.00.353,WP_VExplicitOC_HL,2022.2.5,Win32,6.383128116,90.93701997,3.5955,2.0302,NA,NA,NA,NA,NA,frustrated,"frustrated, not frustrated","more frustrated, less frustrated",NA,NA,NA,NA,NA,NA,NA,NA,NA,NA,NA,NA,NA,NA,NA,NA,NA,NA,NA,NA,NA,NA,NA,NA,NA,NA,NA,NA,NA,NA,NA,NA,NA,NA,NA,NA,NA,NA,0,2,2,1,1,NA,NA,NA,NA,NA
SUPAMT63428,3WOKGM4L77FZMOM2KIYPG0OYRK9O0G,415CB1CE-2C48-41F8-A16F-45288D105DB3,2023-09-26_06h28.00.353,WP_VExplicitOC_HL,2022.2.5,Win32,6.383128116,NA,NA,NA,NA,NA,NA,NA,NA,NA,NA,NA,NA,NA,NA,NA,NA,NA,NA,NA,NA,NA,NA,NA,NA,NA,NA,NA,NA,NA,NA,NA,NA,NA,NA,NA,NA,NA,NA,NA,NA,NA,NA,NA,NA,NA,NA,NA,NA,NA,NA,NA,NA,NA,NA,10,0,10,0,1
SUPAMT63428,3WOKGM4L77FZMOM2KIYPG0OYRK9O0G,415CB1CE-2C48-41F8-A16F-45288D105DB3,2023-09-26_06h28.00.353,WP_VExplicitOC_HL,2022.2.5,Win32,6.383128116,77.11213518,3.7267,2.1086,NA,NA,NA,NA,NA,happy,"unhappy, happy","less happy, more happy",NA,NA,NA,NA,NA,NA,NA,NA,NA,NA,NA,NA,NA,NA,NA,NA,NA,NA,NA,NA,NA,NA,NA,NA,NA,NA,NA,NA,NA,NA,NA,NA,NA,NA,NA,NA,NA,NA,0,0,0,0,1,NA,NA,NA,NA,NA
SUPAMT63428,3WOKGM4L77FZMOM2KIYPG0OYRK9O0G,415CB1CE-2C48-41F8-A16F-45288D105DB3,2023-09-26_06h28.00.353,WP_VExplicitOC_HL,2022.2.5,Win32,6.383128116,88.47926267,3.8782,2.1491,NA,NA,NA,NA,NA,bored,"bored, not bored","more bored, less bored",NA,NA,NA,NA,NA,NA,NA,NA,NA,NA,NA,NA,NA,NA,NA,NA,NA,NA,NA,NA,NA,NA,NA,NA,NA,NA,NA,NA,NA,NA,NA,NA,NA,NA,NA,NA,NA,NA,0,1,1,2,1,NA,NA,NA,NA,NA
SUPAMT63428,3WOKGM4L77FZMOM2KIYPG0OYRK9O0G,415CB1CE-2C48-41F8-A16F-45288D105DB3,2023-09-26_06h28.00.353,WP_VExplicitOC_HL,2022.2.5,Win32,6.383128116,80.1843318,3.1186,2.0032,NA,NA,NA,NA,NA,frustrated,"frustrated, not frustrated","more frustrated, less frustrated",NA,NA,NA,NA,NA,NA,NA,NA,NA,NA,NA,NA,NA,NA,NA,NA,NA,NA,NA,NA,NA,NA,NA,NA,NA,NA,NA,NA,NA,NA,NA,NA,NA,NA,NA,NA,NA,NA,0,2,2,1,1,NA,NA,NA,NA,NA
SUPAMT63428,3WOKGM4L77FZMOM2KIYPG0OYRK9O0G,415CB1CE-2C48-41F8-A16F-45288D105DB3,2023-09-26_06h28.00.353,WP_VExplicitOC_HL,2022.2.5,Win32,6.383128116,NA,NA,NA,NA,NA,NA,NA,NA,NA,NA,NA,NA,NA,NA,NA,NA,NA,NA,NA,NA,NA,NA,NA,NA,NA,NA,NA,NA,NA,NA,NA,NA,NA,NA,NA,NA,NA,NA,NA,NA,NA,NA,NA,NA,NA,NA,NA,NA,NA,NA,NA,NA,NA,NA,11,0,11,0,1
SUPAMT63428,3WOKGM4L77FZMOM2KIYPG0OYRK9O0G,415CB1CE-2C48-41F8-A16F-45288D105DB3,2023-09-26_06h28.00.353,WP_VExplicitOC_HL,2022.2.5,Win32,6.383128116,68.20276498,3.8925,2.1511,NA,NA,NA,NA,NA,happy,"unhappy, happy","less happy, more happy",NA,NA,NA,NA,NA,NA,NA,NA,NA,NA,NA,NA,NA,NA,NA,NA,NA,NA,NA,NA,NA,NA,NA,NA,NA,NA,NA,NA,NA,NA,NA,NA,NA,NA,NA,NA,NA,NA,0,0,0,0,1,NA,NA,NA,NA,NA
SUPAMT63428,3WOKGM4L77FZMOM2KIYPG0OYRK9O0G,415CB1CE-2C48-41F8-A16F-45288D105DB3,2023-09-26_06h28.00.353,WP_VExplicitOC_HL,2022.2.5,Win32,6.383128116,56.83563748,4.2772,2.1255,NA,NA,NA,NA,NA,frustrated,"frustrated, not frustrated","more frustrated, less frustrated",NA,NA,NA,NA,NA,NA,NA,NA,NA,NA,NA,NA,NA,NA,NA,NA,NA,NA,NA,NA,NA,NA,NA,NA,NA,NA,NA,NA,NA,NA,NA,NA,NA,NA,NA,NA,NA,NA,0,1,1,1,1,NA,NA,NA,NA,NA
SUPAMT63428,3WOKGM4L77FZMOM2KIYPG0OYRK9O0G,415CB1CE-2C48-41F8-A16F-45288D105DB3,2023-09-26_06h28.00.353,WP_VExplicitOC_HL,2022.2.5,Win32,6.383128116,45.46850998,3.9372,2.1235,NA,NA,NA,NA,NA,bored,"bored, not bored","more bored, less bored",NA,NA,NA,NA,NA,NA,NA,NA,NA,NA,NA,NA,NA,NA,NA,NA,NA,NA,NA,NA,NA,NA,NA,NA,NA,NA,NA,NA,NA,NA,NA,NA,NA,NA,NA,NA,NA,NA,0,2,2,2,1,NA,NA,NA,NA,NA
SUPAMT63428,3WOKGM4L77FZMOM2KIYPG0OYRK9O0G,415CB1CE-2C48-41F8-A16F-45288D105DB3,2023-09-26_06h28.00.353,WP_VExplicitOC_HL,2022.2.5,Win32,6.383128116,NA,NA,NA,NA,NA,NA,NA,NA,NA,NA,NA,NA,NA,NA,NA,NA,NA,NA,NA,NA,NA,NA,NA,NA,NA,NA,NA,NA,NA,NA,NA,NA,NA,NA,NA,NA,NA,NA,NA,NA,NA,NA,NA,NA,NA,NA,NA,NA,NA,NA,NA,NA,NA,NA,12,0,12,0,1
SUPAMT63428,3WOKGM4L77FZMOM2KIYPG0OYRK9O0G,415CB1CE-2C48-41F8-A16F-45288D105DB3,2023-09-26_06h28.00.353,WP_VExplicitOC_HL,2022.2.5,Win32,6.383128116,73.42549923,3.6958,2.0048,NA,NA,NA,NA,NA,bored,"bored, not bored","more bored, less bored",NA,NA,NA,NA,NA,NA,NA,NA,NA,NA,NA,NA,NA,NA,NA,NA,NA,NA,NA,NA,NA,NA,NA,NA,NA,NA,NA,NA,NA,NA,NA,NA,NA,NA,NA,NA,NA,NA,0,0,0,2,1,NA,NA,NA,NA,NA
SUPAMT63428,3WOKGM4L77FZMOM2KIYPG0OYRK9O0G,415CB1CE-2C48-41F8-A16F-45288D105DB3,2023-09-26_06h28.00.353,WP_VExplicitOC_HL,2022.2.5,Win32,6.383128116,84.48540707,3.7617,2.0236,NA,NA,NA,NA,NA,frustrated,"frustrated, not frustrated","more frustrated, less frustrated",NA,NA,NA,NA,NA,NA,NA,NA,NA,NA,NA,NA,NA,NA,NA,NA,NA,NA,NA,NA,NA,NA,NA,NA,NA,NA,NA,NA,NA,NA,NA,NA,NA,NA,NA,NA,NA,NA,0,1,1,1,1,NA,NA,NA,NA,NA
SUPAMT63428,3WOKGM4L77FZMOM2KIYPG0OYRK9O0G,415CB1CE-2C48-41F8-A16F-45288D105DB3,2023-09-26_06h28.00.353,WP_VExplicitOC_HL,2022.2.5,Win32,6.383128116,92.78033794,3.4067,2.0014,NA,NA,NA,NA,NA,happy,"unhappy, happy","less happy, more happy",NA,NA,NA,NA,NA,NA,NA,NA,NA,NA,NA,NA,NA,NA,NA,NA,NA,NA,NA,NA,NA,NA,NA,NA,NA,NA,NA,NA,NA,NA,NA,NA,NA,NA,NA,NA,NA,NA,0,2,2,0,1,NA,NA,NA,NA,NA
SUPAMT63428,3WOKGM4L77FZMOM2KIYPG0OYRK9O0G,415CB1CE-2C48-41F8-A16F-45288D105DB3,2023-09-26_06h28.00.353,WP_VExplicitOC_HL,2022.2.5,Win32,6.383128116,NA,NA,NA,NA,NA,NA,NA,NA,NA,NA,NA,NA,NA,NA,NA,NA,NA,NA,NA,NA,NA,NA,NA,NA,NA,NA,NA,NA,NA,NA,NA,NA,NA,NA,NA,NA,NA,NA,NA,NA,NA,NA,NA,NA,NA,NA,NA,NA,NA,NA,NA,NA,NA,NA,13,0,13,0,1
SUPAMT63428,3WOKGM4L77FZMOM2KIYPG0OYRK9O0G,415CB1CE-2C48-41F8-A16F-45288D105DB3,2023-09-26_06h28.00.353,WP_VExplicitOC_HL,2022.2.5,Win32,6.383128116,100,4.859,2.147,NA,NA,NA,NA,NA,happy,"unhappy, happy","less happy, more happy",NA,NA,NA,NA,NA,NA,NA,NA,NA,NA,NA,NA,NA,NA,NA,NA,NA,NA,NA,NA,NA,NA,NA,NA,NA,NA,NA,NA,NA,NA,NA,NA,NA,NA,NA,NA,NA,NA,0,0,0,0,1,NA,NA,NA,NA,NA
SUPAMT63428,3WOKGM4L77FZMOM2KIYPG0OYRK9O0G,415CB1CE-2C48-41F8-A16F-45288D105DB3,2023-09-26_06h28.00.353,WP_VExplicitOC_HL,2022.2.5,Win32,6.383128116,58.67895545,3.2938,2.0119,NA,NA,NA,NA,NA,bored,"bored, not bored","more bored, less bored",NA,NA,NA,NA,NA,NA,NA,NA,NA,NA,NA,NA,NA,NA,NA,NA,NA,NA,NA,NA,NA,NA,NA,NA,NA,NA,NA,NA,NA,NA,NA,NA,NA,NA,NA,NA,NA,NA,0,1,1,2,1,NA,NA,NA,NA,NA
SUPAMT63428,3WOKGM4L77FZMOM2KIYPG0OYRK9O0G,415CB1CE-2C48-41F8-A16F-45288D105DB3,2023-09-26_06h28.00.353,WP_VExplicitOC_HL,2022.2.5,Win32,6.383128116,57.4500768,3.4092,2,NA,NA,NA,NA,NA,frustrated,"frustrated, not frustrated","more frustrated, less frustrated",NA,NA,NA,NA,NA,NA,NA,NA,NA,NA,NA,NA,NA,NA,NA,NA,NA,NA,NA,NA,NA,NA,NA,NA,NA,NA,NA,NA,NA,NA,NA,NA,NA,NA,NA,NA,NA,NA,0,2,2,1,1,NA,NA,NA,NA,NA
SUPAMT63428,3WOKGM4L77FZMOM2KIYPG0OYRK9O0G,415CB1CE-2C48-41F8-A16F-45288D105DB3,2023-09-26_06h28.00.353,WP_VExplicitOC_HL,2022.2.5,Win32,6.383128116,NA,NA,NA,NA,NA,NA,NA,NA,NA,NA,NA,NA,NA,NA,NA,NA,NA,NA,NA,NA,NA,NA,NA,NA,NA,NA,NA,NA,NA,NA,NA,NA,NA,NA,NA,NA,NA,NA,NA,NA,NA,NA,NA,NA,NA,NA,NA,NA,NA,NA,NA,NA,NA,NA,14,0,14,0,1
SUPAMT63428,3WOKGM4L77FZMOM2KIYPG0OYRK9O0G,415CB1CE-2C48-41F8-A16F-45288D105DB3,2023-09-26_06h28.00.353,WP_VExplicitOC_HL,2022.2.5,Win32,6.383128116,NA,NA,NA,NA,NA,NA,NA,NA,NA,NA,NA,NA,NA,NA,NA,NA,NA,NA,NA,NA,NA,NA,NA,NA,NA,NA,NA,NA,NA,NA,NA,NA,NA,NA,NA,NA,NA,NA,NA,NA,NA,NA,NA,NA,NA,NA,NA,NA,NA,NA,NA,NA,NA,NA,NA,NA,NA,NA,NA
