participant,session,completion,date,expName,psychopyVersion,OS,frameRate,rating_all.response,rating_all.rt,rating_all.tStart,rndRat1.thisRepN,rndRat1.thisTrialN,rndRat1.thisN,rndRat1.thisIndex,rndRat1.ran,Emo,Labs,Labs2,rating_alt.response,rating_alt.rt,AltC.thisRepN,AltC.thisTrialN,AltC.thisN,AltC.thisIndex,AltC.ran,alt_choices,pic_choices,TopAlt_Choice,rndRat2.thisRepN,rndRat2.thisTrialN,rndRat2.thisN,rndRat2.thisIndex,rndRat2.ran,rndRat3.thisRepN,rndRat3.thisTrialN,rndRat3.thisN,rndRat3.thisIndex,rndRat3.ran,trials_FC_H.thisRepN,trials_FC_H.thisTrialN,trials_FC_H.thisN,trials_FC_H.thisIndex,trials_FC_H.ran,rating_alt_2.response,rating_alt_2.rt,AltC2.thisRepN,AltC2.thisTrialN,AltC2.thisN,AltC2.thisIndex,AltC2.ran,BottomAlt_Choice,rndRat4.thisRepN,rndRat4.thisTrialN,rndRat4.thisN,rndRat4.thisIndex,rndRat4.ran,rndRat5.thisRepN,rndRat5.thisTrialN,rndRat5.thisN,rndRat5.thisIndex,rndRat5.ran,trials_FC_L.thisRepN,trials_FC_L.thisTrialN,trials_FC_L.thisN,trials_FC_L.thisIndex,trials_FC_L.ran
SUPAMT59946,3I2PTA7R3ZT4KQ6M3O0BOPY7LY2KQQ,99D5CF25-B8FF-4D40-A437-E936230674D2,2023-09-28_16h50.40.967,WP_VExplicitOC_HL,2022.2.5,Win32,8.073370794,NA,NA,NA,NA,NA,NA,NA,NA,NA,NA,NA,NA,NA,NA,NA,NA,NA,NA,NA,NA,NA,NA,NA,NA,NA,NA,NA,NA,NA,NA,NA,NA,NA,NA,NA,NA,NA,NA,NA,NA,NA,NA,NA,NA,NA,NA,NA,NA,NA,NA,NA,NA,NA,NA,NA,NA,NA,NA,NA
SUPAMT59946,3I2PTA7R3ZT4KQ6M3O0BOPY7LY2KQQ,99D5CF25-B8FF-4D40-A437-E936230674D2,2023-09-28_16h50.40.967,WP_VExplicitOC_HL,2022.2.5,Win32,8.073370794,NA,NA,NA,NA,NA,NA,NA,NA,NA,NA,NA,NA,NA,NA,NA,NA,NA,NA,NA,NA,NA,NA,NA,NA,NA,NA,NA,NA,NA,NA,NA,NA,NA,NA,NA,NA,NA,NA,NA,NA,NA,NA,NA,NA,NA,NA,NA,NA,NA,NA,NA,NA,NA,NA,NA,NA,NA,NA,NA
SUPAMT59946,3I2PTA7R3ZT4KQ6M3O0BOPY7LY2KQQ,99D5CF25-B8FF-4D40-A437-E936230674D2,2023-09-28_16h50.40.967,WP_VExplicitOC_HL,2022.2.5,Win32,8.073370794,NA,NA,NA,NA,NA,NA,NA,NA,NA,NA,NA,NA,NA,NA,NA,NA,NA,NA,NA,NA,NA,NA,NA,NA,NA,NA,NA,NA,NA,NA,NA,NA,NA,NA,NA,NA,NA,NA,NA,NA,NA,NA,NA,NA,NA,NA,NA,NA,NA,NA,NA,NA,NA,NA,NA,NA,NA,NA,NA
SUPAMT59946,3I2PTA7R3ZT4KQ6M3O0BOPY7LY2KQQ,99D5CF25-B8FF-4D40-A437-E936230674D2,2023-09-28_16h50.40.967,WP_VExplicitOC_HL,2022.2.5,Win32,8.073370794,-85.3515625,5.279,2.1124,0,0,0,1,1,frustrated,"frustrated, not frustrated","more frustrated, less frustrated",NA,NA,NA,NA,NA,NA,NA,NA,NA,NA,NA,NA,NA,NA,NA,NA,NA,NA,NA,NA,NA,NA,NA,NA,NA,NA,NA,NA,NA,NA,NA,NA,NA,NA,NA,NA,NA,NA,NA,NA,NA,NA,NA,NA,NA,NA,NA,NA
SUPAMT59946,3I2PTA7R3ZT4KQ6M3O0BOPY7LY2KQQ,99D5CF25-B8FF-4D40-A437-E936230674D2,2023-09-28_16h50.40.967,WP_VExplicitOC_HL,2022.2.5,Win32,8.073370794,48.046875,4.3,2.1039,0,1,1,2,1,bored,"bored, not bored","more bored, less bored",NA,NA,NA,NA,NA,NA,NA,NA,NA,NA,NA,NA,NA,NA,NA,NA,NA,NA,NA,NA,NA,NA,NA,NA,NA,NA,NA,NA,NA,NA,NA,NA,NA,NA,NA,NA,NA,NA,NA,NA,NA,NA,NA,NA,NA,NA,NA,NA
SUPAMT59946,3I2PTA7R3ZT4KQ6M3O0BOPY7LY2KQQ,99D5CF25-B8FF-4D40-A437-E936230674D2,2023-09-28_16h50.40.967,WP_VExplicitOC_HL,2022.2.5,Win32,8.073370794,43.9453125,3.6147,2.0338,0,2,2,0,1,happy,"unhappy, happy","less happy, more happy",NA,NA,NA,NA,NA,NA,NA,NA,NA,NA,NA,NA,NA,NA,NA,NA,NA,NA,NA,NA,NA,NA,NA,NA,NA,NA,NA,NA,NA,NA,NA,NA,NA,NA,NA,NA,NA,NA,NA,NA,NA,NA,NA,NA,NA,NA,NA,NA
SUPAMT59946,3I2PTA7R3ZT4KQ6M3O0BOPY7LY2KQQ,99D5CF25-B8FF-4D40-A437-E936230674D2,2023-09-28_16h50.40.967,WP_VExplicitOC_HL,2022.2.5,Win32,8.073370794,NA,NA,NA,NA,NA,NA,NA,NA,NA,NA,NA,NA,NA,NA,NA,NA,NA,NA,NA,NA,NA,NA,NA,NA,NA,NA,NA,NA,NA,NA,NA,NA,NA,NA,NA,NA,NA,NA,NA,NA,NA,NA,NA,NA,NA,NA,NA,NA,NA,NA,NA,NA,NA,NA,NA,NA,NA,NA,NA
SUPAMT59946,3I2PTA7R3ZT4KQ6M3O0BOPY7LY2KQQ,99D5CF25-B8FF-4D40-A437-E936230674D2,2023-09-28_16h50.40.967,WP_VExplicitOC_HL,2022.2.5,Win32,8.073370794,NA,NA,NA,NA,NA,NA,NA,NA,NA,NA,NA,NA,NA,NA,NA,NA,NA,NA,NA,NA,NA,NA,NA,NA,NA,NA,NA,NA,NA,NA,NA,NA,NA,NA,NA,NA,NA,NA,NA,NA,NA,NA,NA,NA,NA,NA,NA,NA,NA,NA,NA,NA,NA,NA,NA,NA,NA,NA,NA
SUPAMT59946,3I2PTA7R3ZT4KQ6M3O0BOPY7LY2KQQ,99D5CF25-B8FF-4D40-A437-E936230674D2,2023-09-28_16h50.40.967,WP_VExplicitOC_HL,2022.2.5,Win32,8.073370794,NA,NA,NA,NA,NA,NA,NA,NA,NA,NA,NA,NA,NA,NA,NA,NA,NA,NA,NA,NA,NA,NA,NA,NA,NA,NA,NA,NA,NA,NA,NA,NA,NA,NA,NA,NA,NA,NA,NA,NA,NA,NA,NA,NA,NA,NA,NA,NA,NA,NA,NA,NA,NA,NA,NA,NA,NA,NA,NA
SUPAMT59946,3I2PTA7R3ZT4KQ6M3O0BOPY7LY2KQQ,99D5CF25-B8FF-4D40-A437-E936230674D2,2023-09-28_16h50.40.967,WP_VExplicitOC_HL,2022.2.5,Win32,8.073370794,NA,NA,NA,NA,NA,NA,NA,NA,NA,NA,NA,NA,NA,NA,NA,NA,NA,NA,NA,NA,NA,NA,NA,NA,NA,NA,NA,NA,NA,NA,NA,NA,NA,NA,NA,NA,NA,NA,NA,NA,NA,NA,NA,NA,NA,NA,NA,NA,NA,NA,NA,NA,NA,NA,NA,NA,NA,NA,NA
SUPAMT59946,3I2PTA7R3ZT4KQ6M3O0BOPY7LY2KQQ,99D5CF25-B8FF-4D40-A437-E936230674D2,2023-09-28_16h50.40.967,WP_VExplicitOC_HL,2022.2.5,Win32,8.073370794,NA,NA,NA,NA,NA,NA,NA,NA,NA,NA,NA,44.3359375,5.2175,0,0,0,0,1,rest (looking at a fixed cross),001.png,NA,NA,NA,NA,NA,NA,NA,NA,NA,NA,NA,NA,NA,NA,NA,NA,NA,NA,NA,NA,NA,NA,NA,NA,NA,NA,NA,NA,NA,NA,NA,NA,NA,NA,NA,NA,NA,NA,NA
SUPAMT59946,3I2PTA7R3ZT4KQ6M3O0BOPY7LY2KQQ,99D5CF25-B8FF-4D40-A437-E936230674D2,2023-09-28_16h50.40.967,WP_VExplicitOC_HL,2022.2.5,Win32,8.073370794,NA,NA,NA,NA,NA,NA,NA,NA,NA,NA,NA,68.359375,5.4609,0,1,1,1,1,stand up,002.png,NA,NA,NA,NA,NA,NA,NA,NA,NA,NA,NA,NA,NA,NA,NA,NA,NA,NA,NA,NA,NA,NA,NA,NA,NA,NA,NA,NA,NA,NA,NA,NA,NA,NA,NA,NA,NA,NA,NA
SUPAMT59946,3I2PTA7R3ZT4KQ6M3O0BOPY7LY2KQQ,99D5CF25-B8FF-4D40-A437-E936230674D2,2023-09-28_16h50.40.967,WP_VExplicitOC_HL,2022.2.5,Win32,8.073370794,NA,NA,NA,NA,NA,NA,NA,NA,NA,NA,NA,36.328125,6.6422,0,2,2,2,1,stretch,003.png,NA,NA,NA,NA,NA,NA,NA,NA,NA,NA,NA,NA,NA,NA,NA,NA,NA,NA,NA,NA,NA,NA,NA,NA,NA,NA,NA,NA,NA,NA,NA,NA,NA,NA,NA,NA,NA,NA,NA
SUPAMT59946,3I2PTA7R3ZT4KQ6M3O0BOPY7LY2KQQ,99D5CF25-B8FF-4D40-A437-E936230674D2,2023-09-28_16h50.40.967,WP_VExplicitOC_HL,2022.2.5,Win32,8.073370794,NA,NA,NA,NA,NA,NA,NA,NA,NA,NA,NA,100,2.6308,0,3,3,3,1,make a drink,004.png,NA,NA,NA,NA,NA,NA,NA,NA,NA,NA,NA,NA,NA,NA,NA,NA,NA,NA,NA,NA,NA,NA,NA,NA,NA,NA,NA,NA,NA,NA,NA,NA,NA,NA,NA,NA,NA,NA,NA
SUPAMT59946,3I2PTA7R3ZT4KQ6M3O0BOPY7LY2KQQ,99D5CF25-B8FF-4D40-A437-E936230674D2,2023-09-28_16h50.40.967,WP_VExplicitOC_HL,2022.2.5,Win32,8.073370794,NA,NA,NA,NA,NA,NA,NA,NA,NA,NA,NA,60.9375,3.4191,0,4,4,4,1,scroll social media,005.png,NA,NA,NA,NA,NA,NA,NA,NA,NA,NA,NA,NA,NA,NA,NA,NA,NA,NA,NA,NA,NA,NA,NA,NA,NA,NA,NA,NA,NA,NA,NA,NA,NA,NA,NA,NA,NA,NA,NA
SUPAMT59946,3I2PTA7R3ZT4KQ6M3O0BOPY7LY2KQQ,99D5CF25-B8FF-4D40-A437-E936230674D2,2023-09-28_16h50.40.967,WP_VExplicitOC_HL,2022.2.5,Win32,8.073370794,NA,NA,NA,NA,NA,NA,NA,NA,NA,NA,NA,89.2578125,2.2439,0,5,5,5,1,listen to music,006.png,NA,NA,NA,NA,NA,NA,NA,NA,NA,NA,NA,NA,NA,NA,NA,NA,NA,NA,NA,NA,NA,NA,NA,NA,NA,NA,NA,NA,NA,NA,NA,NA,NA,NA,NA,NA,NA,NA,NA
SUPAMT59946,3I2PTA7R3ZT4KQ6M3O0BOPY7LY2KQQ,99D5CF25-B8FF-4D40-A437-E936230674D2,2023-09-28_16h50.40.967,WP_VExplicitOC_HL,2022.2.5,Win32,8.073370794,NA,NA,NA,NA,NA,NA,NA,NA,NA,NA,NA,-6.8359375,2.5837,0,6,6,6,1,daydream,007.png,NA,NA,NA,NA,NA,NA,NA,NA,NA,NA,NA,NA,NA,NA,NA,NA,NA,NA,NA,NA,NA,NA,NA,NA,NA,NA,NA,NA,NA,NA,NA,NA,NA,NA,NA,NA,NA,NA,NA
SUPAMT59946,3I2PTA7R3ZT4KQ6M3O0BOPY7LY2KQQ,99D5CF25-B8FF-4D40-A437-E936230674D2,2023-09-28_16h50.40.967,WP_VExplicitOC_HL,2022.2.5,Win32,8.073370794,NA,NA,NA,NA,NA,NA,NA,NA,NA,NA,NA,66.796875,2.2505,0,7,7,7,1,watch a short animation,008.png,NA,NA,NA,NA,NA,NA,NA,NA,NA,NA,NA,NA,NA,NA,NA,NA,NA,NA,NA,NA,NA,NA,NA,NA,NA,NA,NA,NA,NA,NA,NA,NA,NA,NA,NA,NA,NA,NA,NA
SUPAMT59946,3I2PTA7R3ZT4KQ6M3O0BOPY7LY2KQQ,99D5CF25-B8FF-4D40-A437-E936230674D2,2023-09-28_16h50.40.967,WP_VExplicitOC_HL,2022.2.5,Win32,8.073370794,NA,NA,NA,NA,NA,NA,NA,NA,NA,NA,NA,98.828125,2.521,0,8,8,8,1,read a novel,009.png,NA,NA,NA,NA,NA,NA,NA,NA,NA,NA,NA,NA,NA,NA,NA,NA,NA,NA,NA,NA,NA,NA,NA,NA,NA,NA,NA,NA,NA,NA,NA,NA,NA,NA,NA,NA,NA,NA,NA
SUPAMT59946,3I2PTA7R3ZT4KQ6M3O0BOPY7LY2KQQ,99D5CF25-B8FF-4D40-A437-E936230674D2,2023-09-28_16h50.40.967,WP_VExplicitOC_HL,2022.2.5,Win32,8.073370794,NA,NA,NA,NA,NA,NA,NA,NA,NA,NA,NA,98.6328125,0.1434,0,9,9,9,1,read the news,010.png,NA,NA,NA,NA,NA,NA,NA,NA,NA,NA,NA,NA,NA,NA,NA,NA,NA,NA,NA,NA,NA,NA,NA,NA,NA,NA,NA,NA,NA,NA,NA,NA,NA,NA,NA,NA,NA,NA,NA
SUPAMT59946,3I2PTA7R3ZT4KQ6M3O0BOPY7LY2KQQ,99D5CF25-B8FF-4D40-A437-E936230674D2,2023-09-28_16h50.40.967,WP_VExplicitOC_HL,2022.2.5,Win32,8.073370794,NA,NA,NA,NA,NA,NA,NA,NA,NA,NA,NA,NA,NA,NA,NA,NA,NA,NA,NA,NA,NA,NA,NA,NA,NA,NA,NA,NA,NA,NA,NA,NA,NA,NA,NA,NA,NA,NA,NA,NA,NA,NA,NA,NA,NA,NA,NA,NA,NA,NA,NA,NA,NA,NA,NA,NA,NA,NA,NA
SUPAMT59946,3I2PTA7R3ZT4KQ6M3O0BOPY7LY2KQQ,99D5CF25-B8FF-4D40-A437-E936230674D2,2023-09-28_16h50.40.967,WP_VExplicitOC_HL,2022.2.5,Win32,8.073370794,NA,NA,NA,NA,NA,NA,NA,NA,NA,NA,NA,NA,NA,NA,NA,NA,NA,NA,NA,NA,make a drink,NA,NA,NA,NA,NA,NA,NA,NA,NA,NA,NA,NA,NA,NA,NA,NA,NA,NA,NA,NA,NA,NA,NA,NA,NA,NA,NA,NA,NA,NA,NA,NA,NA,NA,NA,NA,NA,NA
SUPAMT59946,3I2PTA7R3ZT4KQ6M3O0BOPY7LY2KQQ,99D5CF25-B8FF-4D40-A437-E936230674D2,2023-09-28_16h50.40.967,WP_VExplicitOC_HL,2022.2.5,Win32,8.073370794,45.5078125,3.661,2.0036,NA,NA,NA,NA,NA,bored,"bored, not bored","more bored, less bored",NA,NA,NA,NA,NA,NA,NA,NA,NA,NA,0,0,0,2,1,NA,NA,NA,NA,NA,NA,NA,NA,NA,NA,NA,NA,NA,NA,NA,NA,NA,NA,NA,NA,NA,NA,NA,NA,NA,NA,NA,NA,NA,NA,NA,NA,NA
SUPAMT59946,3I2PTA7R3ZT4KQ6M3O0BOPY7LY2KQQ,99D5CF25-B8FF-4D40-A437-E936230674D2,2023-09-28_16h50.40.967,WP_VExplicitOC_HL,2022.2.5,Win32,8.073370794,45.5078125,4.6294,2.0429,NA,NA,NA,NA,NA,happy,"unhappy, happy","less happy, more happy",NA,NA,NA,NA,NA,NA,NA,NA,NA,NA,0,1,1,0,1,NA,NA,NA,NA,NA,NA,NA,NA,NA,NA,NA,NA,NA,NA,NA,NA,NA,NA,NA,NA,NA,NA,NA,NA,NA,NA,NA,NA,NA,NA,NA,NA,NA
SUPAMT59946,3I2PTA7R3ZT4KQ6M3O0BOPY7LY2KQQ,99D5CF25-B8FF-4D40-A437-E936230674D2,2023-09-28_16h50.40.967,WP_VExplicitOC_HL,2022.2.5,Win32,8.073370794,44.7265625,4.3332,2.0256,NA,NA,NA,NA,NA,frustrated,"frustrated, not frustrated","more frustrated, less frustrated",NA,NA,NA,NA,NA,NA,NA,NA,NA,NA,0,2,2,1,1,NA,NA,NA,NA,NA,NA,NA,NA,NA,NA,NA,NA,NA,NA,NA,NA,NA,NA,NA,NA,NA,NA,NA,NA,NA,NA,NA,NA,NA,NA,NA,NA,NA
SUPAMT59946,3I2PTA7R3ZT4KQ6M3O0BOPY7LY2KQQ,99D5CF25-B8FF-4D40-A437-E936230674D2,2023-09-28_16h50.40.967,WP_VExplicitOC_HL,2022.2.5,Win32,8.073370794,NA,NA,NA,NA,NA,NA,NA,NA,NA,NA,NA,NA,NA,NA,NA,NA,NA,NA,NA,NA,NA,NA,NA,NA,NA,NA,NA,NA,NA,NA,NA,NA,NA,NA,NA,NA,NA,NA,NA,NA,NA,NA,NA,NA,NA,NA,NA,NA,NA,NA,NA,NA,NA,NA,NA,NA,NA,NA,NA
SUPAMT59946,3I2PTA7R3ZT4KQ6M3O0BOPY7LY2KQQ,99D5CF25-B8FF-4D40-A437-E936230674D2,2023-09-28_16h50.40.967,WP_VExplicitOC_HL,2022.2.5,Win32,8.073370794,NA,NA,NA,NA,NA,NA,NA,NA,NA,NA,NA,NA,NA,NA,NA,NA,NA,NA,NA,NA,NA,NA,NA,NA,NA,NA,NA,NA,NA,NA,NA,NA,NA,NA,NA,NA,NA,NA,NA,NA,NA,NA,NA,NA,NA,NA,NA,NA,NA,NA,NA,NA,NA,NA,NA,NA,NA,NA,NA
SUPAMT59946,3I2PTA7R3ZT4KQ6M3O0BOPY7LY2KQQ,99D5CF25-B8FF-4D40-A437-E936230674D2,2023-09-28_16h50.40.967,WP_VExplicitOC_HL,2022.2.5,Win32,8.073370794,39.84375,3.6346,2.0275,NA,NA,NA,NA,NA,frustrated,"frustrated, not frustrated","more frustrated, less frustrated",NA,NA,NA,NA,NA,NA,NA,NA,NA,NA,NA,NA,NA,NA,NA,0,0,0,1,1,NA,NA,NA,NA,NA,NA,NA,NA,NA,NA,NA,NA,NA,NA,NA,NA,NA,NA,NA,NA,NA,NA,NA,NA,NA,NA,NA,NA
SUPAMT59946,3I2PTA7R3ZT4KQ6M3O0BOPY7LY2KQQ,99D5CF25-B8FF-4D40-A437-E936230674D2,2023-09-28_16h50.40.967,WP_VExplicitOC_HL,2022.2.5,Win32,8.073370794,50.5859375,4.5719,2.0263,NA,NA,NA,NA,NA,bored,"bored, not bored","more bored, less bored",NA,NA,NA,NA,NA,NA,NA,NA,NA,NA,NA,NA,NA,NA,NA,0,1,1,2,1,NA,NA,NA,NA,NA,NA,NA,NA,NA,NA,NA,NA,NA,NA,NA,NA,NA,NA,NA,NA,NA,NA,NA,NA,NA,NA,NA,NA
SUPAMT59946,3I2PTA7R3ZT4KQ6M3O0BOPY7LY2KQQ,99D5CF25-B8FF-4D40-A437-E936230674D2,2023-09-28_16h50.40.967,WP_VExplicitOC_HL,2022.2.5,Win32,8.073370794,41.796875,3.5285,2.0407,NA,NA,NA,NA,NA,happy,"unhappy, happy","less happy, more happy",NA,NA,NA,NA,NA,NA,NA,NA,NA,NA,NA,NA,NA,NA,NA,0,2,2,0,1,NA,NA,NA,NA,NA,NA,NA,NA,NA,NA,NA,NA,NA,NA,NA,NA,NA,NA,NA,NA,NA,NA,NA,NA,NA,NA,NA,NA
SUPAMT59946,3I2PTA7R3ZT4KQ6M3O0BOPY7LY2KQQ,99D5CF25-B8FF-4D40-A437-E936230674D2,2023-09-28_16h50.40.967,WP_VExplicitOC_HL,2022.2.5,Win32,8.073370794,NA,NA,NA,NA,NA,NA,NA,NA,NA,NA,NA,NA,NA,NA,NA,NA,NA,NA,NA,NA,NA,NA,NA,NA,NA,NA,NA,NA,NA,NA,NA,0,0,0,0,1,NA,NA,NA,NA,NA,NA,NA,NA,NA,NA,NA,NA,NA,NA,NA,NA,NA,NA,NA,NA,NA,NA,NA
SUPAMT59946,3I2PTA7R3ZT4KQ6M3O0BOPY7LY2KQQ,99D5CF25-B8FF-4D40-A437-E936230674D2,2023-09-28_16h50.40.967,WP_VExplicitOC_HL,2022.2.5,Win32,8.073370794,-37.3046875,4.7031,2.0562,NA,NA,NA,NA,NA,frustrated,"frustrated, not frustrated","more frustrated, less frustrated",NA,NA,NA,NA,NA,NA,NA,NA,NA,NA,NA,NA,NA,NA,NA,0,0,0,1,1,NA,NA,NA,NA,NA,NA,NA,NA,NA,NA,NA,NA,NA,NA,NA,NA,NA,NA,NA,NA,NA,NA,NA,NA,NA,NA,NA,NA
SUPAMT59946,3I2PTA7R3ZT4KQ6M3O0BOPY7LY2KQQ,99D5CF25-B8FF-4D40-A437-E936230674D2,2023-09-28_16h50.40.967,WP_VExplicitOC_HL,2022.2.5,Win32,8.073370794,15.4296875,5.7573,2.1412,NA,NA,NA,NA,NA,bored,"bored, not bored","more bored, less bored",NA,NA,NA,NA,NA,NA,NA,NA,NA,NA,NA,NA,NA,NA,NA,0,1,1,2,1,NA,NA,NA,NA,NA,NA,NA,NA,NA,NA,NA,NA,NA,NA,NA,NA,NA,NA,NA,NA,NA,NA,NA,NA,NA,NA,NA,NA
SUPAMT59946,3I2PTA7R3ZT4KQ6M3O0BOPY7LY2KQQ,99D5CF25-B8FF-4D40-A437-E936230674D2,2023-09-28_16h50.40.967,WP_VExplicitOC_HL,2022.2.5,Win32,8.073370794,42.7734375,3.7849,2.0696,NA,NA,NA,NA,NA,happy,"unhappy, happy","less happy, more happy",NA,NA,NA,NA,NA,NA,NA,NA,NA,NA,NA,NA,NA,NA,NA,0,2,2,0,1,NA,NA,NA,NA,NA,NA,NA,NA,NA,NA,NA,NA,NA,NA,NA,NA,NA,NA,NA,NA,NA,NA,NA,NA,NA,NA,NA,NA
SUPAMT59946,3I2PTA7R3ZT4KQ6M3O0BOPY7LY2KQQ,99D5CF25-B8FF-4D40-A437-E936230674D2,2023-09-28_16h50.40.967,WP_VExplicitOC_HL,2022.2.5,Win32,8.073370794,NA,NA,NA,NA,NA,NA,NA,NA,NA,NA,NA,NA,NA,NA,NA,NA,NA,NA,NA,NA,NA,NA,NA,NA,NA,NA,NA,NA,NA,NA,NA,1,0,1,0,1,NA,NA,NA,NA,NA,NA,NA,NA,NA,NA,NA,NA,NA,NA,NA,NA,NA,NA,NA,NA,NA,NA,NA
SUPAMT59946,3I2PTA7R3ZT4KQ6M3O0BOPY7LY2KQQ,99D5CF25-B8FF-4D40-A437-E936230674D2,2023-09-28_16h50.40.967,WP_VExplicitOC_HL,2022.2.5,Win32,8.073370794,12.890625,4.3648,2.0608,NA,NA,NA,NA,NA,happy,"unhappy, happy","less happy, more happy",NA,NA,NA,NA,NA,NA,NA,NA,NA,NA,NA,NA,NA,NA,NA,0,0,0,0,1,NA,NA,NA,NA,NA,NA,NA,NA,NA,NA,NA,NA,NA,NA,NA,NA,NA,NA,NA,NA,NA,NA,NA,NA,NA,NA,NA,NA
SUPAMT59946,3I2PTA7R3ZT4KQ6M3O0BOPY7LY2KQQ,99D5CF25-B8FF-4D40-A437-E936230674D2,2023-09-28_16h50.40.967,WP_VExplicitOC_HL,2022.2.5,Win32,8.073370794,1.5625,3.9034,2.1187,NA,NA,NA,NA,NA,bored,"bored, not bored","more bored, less bored",NA,NA,NA,NA,NA,NA,NA,NA,NA,NA,NA,NA,NA,NA,NA,0,1,1,2,1,NA,NA,NA,NA,NA,NA,NA,NA,NA,NA,NA,NA,NA,NA,NA,NA,NA,NA,NA,NA,NA,NA,NA,NA,NA,NA,NA,NA
SUPAMT59946,3I2PTA7R3ZT4KQ6M3O0BOPY7LY2KQQ,99D5CF25-B8FF-4D40-A437-E936230674D2,2023-09-28_16h50.40.967,WP_VExplicitOC_HL,2022.2.5,Win32,8.073370794,-32.8125,3.0405,2.0189,NA,NA,NA,NA,NA,frustrated,"frustrated, not frustrated","more frustrated, less frustrated",NA,NA,NA,NA,NA,NA,NA,NA,NA,NA,NA,NA,NA,NA,NA,0,2,2,1,1,NA,NA,NA,NA,NA,NA,NA,NA,NA,NA,NA,NA,NA,NA,NA,NA,NA,NA,NA,NA,NA,NA,NA,NA,NA,NA,NA,NA
SUPAMT59946,3I2PTA7R3ZT4KQ6M3O0BOPY7LY2KQQ,99D5CF25-B8FF-4D40-A437-E936230674D2,2023-09-28_16h50.40.967,WP_VExplicitOC_HL,2022.2.5,Win32,8.073370794,NA,NA,NA,NA,NA,NA,NA,NA,NA,NA,NA,NA,NA,NA,NA,NA,NA,NA,NA,NA,NA,NA,NA,NA,NA,NA,NA,NA,NA,NA,NA,2,0,2,0,1,NA,NA,NA,NA,NA,NA,NA,NA,NA,NA,NA,NA,NA,NA,NA,NA,NA,NA,NA,NA,NA,NA,NA
SUPAMT59946,3I2PTA7R3ZT4KQ6M3O0BOPY7LY2KQQ,99D5CF25-B8FF-4D40-A437-E936230674D2,2023-09-28_16h50.40.967,WP_VExplicitOC_HL,2022.2.5,Win32,8.073370794,-2.5390625,3.7276,2.101,NA,NA,NA,NA,NA,happy,"unhappy, happy","less happy, more happy",NA,NA,NA,NA,NA,NA,NA,NA,NA,NA,NA,NA,NA,NA,NA,0,0,0,0,1,NA,NA,NA,NA,NA,NA,NA,NA,NA,NA,NA,NA,NA,NA,NA,NA,NA,NA,NA,NA,NA,NA,NA,NA,NA,NA,NA,NA
SUPAMT59946,3I2PTA7R3ZT4KQ6M3O0BOPY7LY2KQQ,99D5CF25-B8FF-4D40-A437-E936230674D2,2023-09-28_16h50.40.967,WP_VExplicitOC_HL,2022.2.5,Win32,8.073370794,8.203125,3.2379,2.0582,NA,NA,NA,NA,NA,frustrated,"frustrated, not frustrated","more frustrated, less frustrated",NA,NA,NA,NA,NA,NA,NA,NA,NA,NA,NA,NA,NA,NA,NA,0,1,1,1,1,NA,NA,NA,NA,NA,NA,NA,NA,NA,NA,NA,NA,NA,NA,NA,NA,NA,NA,NA,NA,NA,NA,NA,NA,NA,NA,NA,NA
SUPAMT59946,3I2PTA7R3ZT4KQ6M3O0BOPY7LY2KQQ,99D5CF25-B8FF-4D40-A437-E936230674D2,2023-09-28_16h50.40.967,WP_VExplicitOC_HL,2022.2.5,Win32,8.073370794,11.5234375,3.3992,2.0734,NA,NA,NA,NA,NA,bored,"bored, not bored","more bored, less bored",NA,NA,NA,NA,NA,NA,NA,NA,NA,NA,NA,NA,NA,NA,NA,0,2,2,2,1,NA,NA,NA,NA,NA,NA,NA,NA,NA,NA,NA,NA,NA,NA,NA,NA,NA,NA,NA,NA,NA,NA,NA,NA,NA,NA,NA,NA
SUPAMT59946,3I2PTA7R3ZT4KQ6M3O0BOPY7LY2KQQ,99D5CF25-B8FF-4D40-A437-E936230674D2,2023-09-28_16h50.40.967,WP_VExplicitOC_HL,2022.2.5,Win32,8.073370794,NA,NA,NA,NA,NA,NA,NA,NA,NA,NA,NA,NA,NA,NA,NA,NA,NA,NA,NA,NA,NA,NA,NA,NA,NA,NA,NA,NA,NA,NA,NA,3,0,3,0,1,NA,NA,NA,NA,NA,NA,NA,NA,NA,NA,NA,NA,NA,NA,NA,NA,NA,NA,NA,NA,NA,NA,NA
SUPAMT59946,3I2PTA7R3ZT4KQ6M3O0BOPY7LY2KQQ,99D5CF25-B8FF-4D40-A437-E936230674D2,2023-09-28_16h50.40.967,WP_VExplicitOC_HL,2022.2.5,Win32,8.073370794,NA,NA,2.035,NA,NA,NA,NA,NA,bored,"bored, not bored","more bored, less bored",NA,NA,NA,NA,NA,NA,NA,NA,NA,NA,NA,NA,NA,NA,NA,0,0,0,2,1,NA,NA,NA,NA,NA,NA,NA,NA,NA,NA,NA,NA,NA,NA,NA,NA,NA,NA,NA,NA,NA,NA,NA,NA,NA,NA,NA,NA
SUPAMT59946,3I2PTA7R3ZT4KQ6M3O0BOPY7LY2KQQ,99D5CF25-B8FF-4D40-A437-E936230674D2,2023-09-28_16h50.40.967,WP_VExplicitOC_HL,2022.2.5,Win32,8.073370794,11.9140625,3.4999,2.0372,NA,NA,NA,NA,NA,happy,"unhappy, happy","less happy, more happy",NA,NA,NA,NA,NA,NA,NA,NA,NA,NA,NA,NA,NA,NA,NA,0,1,1,0,1,NA,NA,NA,NA,NA,NA,NA,NA,NA,NA,NA,NA,NA,NA,NA,NA,NA,NA,NA,NA,NA,NA,NA,NA,NA,NA,NA,NA
SUPAMT59946,3I2PTA7R3ZT4KQ6M3O0BOPY7LY2KQQ,99D5CF25-B8FF-4D40-A437-E936230674D2,2023-09-28_16h50.40.967,WP_VExplicitOC_HL,2022.2.5,Win32,8.073370794,-13.0859375,3.3176,2.0336,NA,NA,NA,NA,NA,frustrated,"frustrated, not frustrated","more frustrated, less frustrated",NA,NA,NA,NA,NA,NA,NA,NA,NA,NA,NA,NA,NA,NA,NA,0,2,2,1,1,NA,NA,NA,NA,NA,NA,NA,NA,NA,NA,NA,NA,NA,NA,NA,NA,NA,NA,NA,NA,NA,NA,NA,NA,NA,NA,NA,NA
SUPAMT59946,3I2PTA7R3ZT4KQ6M3O0BOPY7LY2KQQ,99D5CF25-B8FF-4D40-A437-E936230674D2,2023-09-28_16h50.40.967,WP_VExplicitOC_HL,2022.2.5,Win32,8.073370794,NA,NA,NA,NA,NA,NA,NA,NA,NA,NA,NA,NA,NA,NA,NA,NA,NA,NA,NA,NA,NA,NA,NA,NA,NA,NA,NA,NA,NA,NA,NA,4,0,4,0,1,NA,NA,NA,NA,NA,NA,NA,NA,NA,NA,NA,NA,NA,NA,NA,NA,NA,NA,NA,NA,NA,NA,NA
SUPAMT59946,3I2PTA7R3ZT4KQ6M3O0BOPY7LY2KQQ,99D5CF25-B8FF-4D40-A437-E936230674D2,2023-09-28_16h50.40.967,WP_VExplicitOC_HL,2022.2.5,Win32,8.073370794,14.453125,5.1767,2.0921,NA,NA,NA,NA,NA,bored,"bored, not bored","more bored, less bored",NA,NA,NA,NA,NA,NA,NA,NA,NA,NA,NA,NA,NA,NA,NA,0,0,0,2,1,NA,NA,NA,NA,NA,NA,NA,NA,NA,NA,NA,NA,NA,NA,NA,NA,NA,NA,NA,NA,NA,NA,NA,NA,NA,NA,NA,NA
SUPAMT59946,3I2PTA7R3ZT4KQ6M3O0BOPY7LY2KQQ,99D5CF25-B8FF-4D40-A437-E936230674D2,2023-09-28_16h50.40.967,WP_VExplicitOC_HL,2022.2.5,Win32,8.073370794,-3.515625,5.3451,2.1107,NA,NA,NA,NA,NA,frustrated,"frustrated, not frustrated","more frustrated, less frustrated",NA,NA,NA,NA,NA,NA,NA,NA,NA,NA,NA,NA,NA,NA,NA,0,1,1,1,1,NA,NA,NA,NA,NA,NA,NA,NA,NA,NA,NA,NA,NA,NA,NA,NA,NA,NA,NA,NA,NA,NA,NA,NA,NA,NA,NA,NA
SUPAMT59946,3I2PTA7R3ZT4KQ6M3O0BOPY7LY2KQQ,99D5CF25-B8FF-4D40-A437-E936230674D2,2023-09-28_16h50.40.967,WP_VExplicitOC_HL,2022.2.5,Win32,8.073370794,9.9609375,5.7727,2.1192,NA,NA,NA,NA,NA,happy,"unhappy, happy","less happy, more happy",NA,NA,NA,NA,NA,NA,NA,NA,NA,NA,NA,NA,NA,NA,NA,0,2,2,0,1,NA,NA,NA,NA,NA,NA,NA,NA,NA,NA,NA,NA,NA,NA,NA,NA,NA,NA,NA,NA,NA,NA,NA,NA,NA,NA,NA,NA
SUPAMT59946,3I2PTA7R3ZT4KQ6M3O0BOPY7LY2KQQ,99D5CF25-B8FF-4D40-A437-E936230674D2,2023-09-28_16h50.40.967,WP_VExplicitOC_HL,2022.2.5,Win32,8.073370794,NA,NA,NA,NA,NA,NA,NA,NA,NA,NA,NA,NA,NA,NA,NA,NA,NA,NA,NA,NA,NA,NA,NA,NA,NA,NA,NA,NA,NA,NA,NA,5,0,5,0,1,NA,NA,NA,NA,NA,NA,NA,NA,NA,NA,NA,NA,NA,NA,NA,NA,NA,NA,NA,NA,NA,NA,NA
SUPAMT59946,3I2PTA7R3ZT4KQ6M3O0BOPY7LY2KQQ,99D5CF25-B8FF-4D40-A437-E936230674D2,2023-09-28_16h50.40.967,WP_VExplicitOC_HL,2022.2.5,Win32,8.073370794,19.53125,3.8862,2.0918,NA,NA,NA,NA,NA,frustrated,"frustrated, not frustrated","more frustrated, less frustrated",NA,NA,NA,NA,NA,NA,NA,NA,NA,NA,NA,NA,NA,NA,NA,0,0,0,1,1,NA,NA,NA,NA,NA,NA,NA,NA,NA,NA,NA,NA,NA,NA,NA,NA,NA,NA,NA,NA,NA,NA,NA,NA,NA,NA,NA,NA
SUPAMT59946,3I2PTA7R3ZT4KQ6M3O0BOPY7LY2KQQ,99D5CF25-B8FF-4D40-A437-E936230674D2,2023-09-28_16h50.40.967,WP_VExplicitOC_HL,2022.2.5,Win32,8.073370794,19.7265625,3.3836,2.1168,NA,NA,NA,NA,NA,bored,"bored, not bored","more bored, less bored",NA,NA,NA,NA,NA,NA,NA,NA,NA,NA,NA,NA,NA,NA,NA,0,1,1,2,1,NA,NA,NA,NA,NA,NA,NA,NA,NA,NA,NA,NA,NA,NA,NA,NA,NA,NA,NA,NA,NA,NA,NA,NA,NA,NA,NA,NA
SUPAMT59946,3I2PTA7R3ZT4KQ6M3O0BOPY7LY2KQQ,99D5CF25-B8FF-4D40-A437-E936230674D2,2023-09-28_16h50.40.967,WP_VExplicitOC_HL,2022.2.5,Win32,8.073370794,13.671875,3.2464,2.0625,NA,NA,NA,NA,NA,happy,"unhappy, happy","less happy, more happy",NA,NA,NA,NA,NA,NA,NA,NA,NA,NA,NA,NA,NA,NA,NA,0,2,2,0,1,NA,NA,NA,NA,NA,NA,NA,NA,NA,NA,NA,NA,NA,NA,NA,NA,NA,NA,NA,NA,NA,NA,NA,NA,NA,NA,NA,NA
SUPAMT59946,3I2PTA7R3ZT4KQ6M3O0BOPY7LY2KQQ,99D5CF25-B8FF-4D40-A437-E936230674D2,2023-09-28_16h50.40.967,WP_VExplicitOC_HL,2022.2.5,Win32,8.073370794,NA,NA,NA,NA,NA,NA,NA,NA,NA,NA,NA,NA,NA,NA,NA,NA,NA,NA,NA,NA,NA,NA,NA,NA,NA,NA,NA,NA,NA,NA,NA,6,0,6,0,1,NA,NA,NA,NA,NA,NA,NA,NA,NA,NA,NA,NA,NA,NA,NA,NA,NA,NA,NA,NA,NA,NA,NA
SUPAMT59946,3I2PTA7R3ZT4KQ6M3O0BOPY7LY2KQQ,99D5CF25-B8FF-4D40-A437-E936230674D2,2023-09-28_16h50.40.967,WP_VExplicitOC_HL,2022.2.5,Win32,8.073370794,-20.8984375,3.2998,2.1164,NA,NA,NA,NA,NA,bored,"bored, not bored","more bored, less bored",NA,NA,NA,NA,NA,NA,NA,NA,NA,NA,NA,NA,NA,NA,NA,0,0,0,2,1,NA,NA,NA,NA,NA,NA,NA,NA,NA,NA,NA,NA,NA,NA,NA,NA,NA,NA,NA,NA,NA,NA,NA,NA,NA,NA,NA,NA
SUPAMT59946,3I2PTA7R3ZT4KQ6M3O0BOPY7LY2KQQ,99D5CF25-B8FF-4D40-A437-E936230674D2,2023-09-28_16h50.40.967,WP_VExplicitOC_HL,2022.2.5,Win32,8.073370794,-38.28125,3.1725,2.1289,NA,NA,NA,NA,NA,frustrated,"frustrated, not frustrated","more frustrated, less frustrated",NA,NA,NA,NA,NA,NA,NA,NA,NA,NA,NA,NA,NA,NA,NA,0,1,1,1,1,NA,NA,NA,NA,NA,NA,NA,NA,NA,NA,NA,NA,NA,NA,NA,NA,NA,NA,NA,NA,NA,NA,NA,NA,NA,NA,NA,NA
SUPAMT59946,3I2PTA7R3ZT4KQ6M3O0BOPY7LY2KQQ,99D5CF25-B8FF-4D40-A437-E936230674D2,2023-09-28_16h50.40.967,WP_VExplicitOC_HL,2022.2.5,Win32,8.073370794,-58.3984375,3.7087,2.0389,NA,NA,NA,NA,NA,happy,"unhappy, happy","less happy, more happy",NA,NA,NA,NA,NA,NA,NA,NA,NA,NA,NA,NA,NA,NA,NA,0,2,2,0,1,NA,NA,NA,NA,NA,NA,NA,NA,NA,NA,NA,NA,NA,NA,NA,NA,NA,NA,NA,NA,NA,NA,NA,NA,NA,NA,NA,NA
SUPAMT59946,3I2PTA7R3ZT4KQ6M3O0BOPY7LY2KQQ,99D5CF25-B8FF-4D40-A437-E936230674D2,2023-09-28_16h50.40.967,WP_VExplicitOC_HL,2022.2.5,Win32,8.073370794,NA,NA,NA,NA,NA,NA,NA,NA,NA,NA,NA,NA,NA,NA,NA,NA,NA,NA,NA,NA,NA,NA,NA,NA,NA,NA,NA,NA,NA,NA,NA,7,0,7,0,1,NA,NA,NA,NA,NA,NA,NA,NA,NA,NA,NA,NA,NA,NA,NA,NA,NA,NA,NA,NA,NA,NA,NA
SUPAMT59946,3I2PTA7R3ZT4KQ6M3O0BOPY7LY2KQQ,99D5CF25-B8FF-4D40-A437-E936230674D2,2023-09-28_16h50.40.967,WP_VExplicitOC_HL,2022.2.5,Win32,8.073370794,12.3046875,3.5889,2.0997,NA,NA,NA,NA,NA,frustrated,"frustrated, not frustrated","more frustrated, less frustrated",NA,NA,NA,NA,NA,NA,NA,NA,NA,NA,NA,NA,NA,NA,NA,0,0,0,1,1,NA,NA,NA,NA,NA,NA,NA,NA,NA,NA,NA,NA,NA,NA,NA,NA,NA,NA,NA,NA,NA,NA,NA,NA,NA,NA,NA,NA
SUPAMT59946,3I2PTA7R3ZT4KQ6M3O0BOPY7LY2KQQ,99D5CF25-B8FF-4D40-A437-E936230674D2,2023-09-28_16h50.40.967,WP_VExplicitOC_HL,2022.2.5,Win32,8.073370794,27.9296875,3.2622,2.0738,NA,NA,NA,NA,NA,happy,"unhappy, happy","less happy, more happy",NA,NA,NA,NA,NA,NA,NA,NA,NA,NA,NA,NA,NA,NA,NA,0,1,1,0,1,NA,NA,NA,NA,NA,NA,NA,NA,NA,NA,NA,NA,NA,NA,NA,NA,NA,NA,NA,NA,NA,NA,NA,NA,NA,NA,NA,NA
SUPAMT59946,3I2PTA7R3ZT4KQ6M3O0BOPY7LY2KQQ,99D5CF25-B8FF-4D40-A437-E936230674D2,2023-09-28_16h50.40.967,WP_VExplicitOC_HL,2022.2.5,Win32,8.073370794,53.7109375,3.0508,2.0253,NA,NA,NA,NA,NA,bored,"bored, not bored","more bored, less bored",NA,NA,NA,NA,NA,NA,NA,NA,NA,NA,NA,NA,NA,NA,NA,0,2,2,2,1,NA,NA,NA,NA,NA,NA,NA,NA,NA,NA,NA,NA,NA,NA,NA,NA,NA,NA,NA,NA,NA,NA,NA,NA,NA,NA,NA,NA
SUPAMT59946,3I2PTA7R3ZT4KQ6M3O0BOPY7LY2KQQ,99D5CF25-B8FF-4D40-A437-E936230674D2,2023-09-28_16h50.40.967,WP_VExplicitOC_HL,2022.2.5,Win32,8.073370794,NA,NA,NA,NA,NA,NA,NA,NA,NA,NA,NA,NA,NA,NA,NA,NA,NA,NA,NA,NA,NA,NA,NA,NA,NA,NA,NA,NA,NA,NA,NA,8,0,8,0,1,NA,NA,NA,NA,NA,NA,NA,NA,NA,NA,NA,NA,NA,NA,NA,NA,NA,NA,NA,NA,NA,NA,NA
SUPAMT59946,3I2PTA7R3ZT4KQ6M3O0BOPY7LY2KQQ,99D5CF25-B8FF-4D40-A437-E936230674D2,2023-09-28_16h50.40.967,WP_VExplicitOC_HL,2022.2.5,Win32,8.073370794,37.109375,3.1763,2.0091,NA,NA,NA,NA,NA,happy,"unhappy, happy","less happy, more happy",NA,NA,NA,NA,NA,NA,NA,NA,NA,NA,NA,NA,NA,NA,NA,0,0,0,0,1,NA,NA,NA,NA,NA,NA,NA,NA,NA,NA,NA,NA,NA,NA,NA,NA,NA,NA,NA,NA,NA,NA,NA,NA,NA,NA,NA,NA
SUPAMT59946,3I2PTA7R3ZT4KQ6M3O0BOPY7LY2KQQ,99D5CF25-B8FF-4D40-A437-E936230674D2,2023-09-28_16h50.40.967,WP_VExplicitOC_HL,2022.2.5,Win32,8.073370794,10.15625,3.1572,2.1093,NA,NA,NA,NA,NA,frustrated,"frustrated, not frustrated","more frustrated, less frustrated",NA,NA,NA,NA,NA,NA,NA,NA,NA,NA,NA,NA,NA,NA,NA,0,1,1,1,1,NA,NA,NA,NA,NA,NA,NA,NA,NA,NA,NA,NA,NA,NA,NA,NA,NA,NA,NA,NA,NA,NA,NA,NA,NA,NA,NA,NA
SUPAMT59946,3I2PTA7R3ZT4KQ6M3O0BOPY7LY2KQQ,99D5CF25-B8FF-4D40-A437-E936230674D2,2023-09-28_16h50.40.967,WP_VExplicitOC_HL,2022.2.5,Win32,8.073370794,5.6640625,3.0445,2.0279,NA,NA,NA,NA,NA,bored,"bored, not bored","more bored, less bored",NA,NA,NA,NA,NA,NA,NA,NA,NA,NA,NA,NA,NA,NA,NA,0,2,2,2,1,NA,NA,NA,NA,NA,NA,NA,NA,NA,NA,NA,NA,NA,NA,NA,NA,NA,NA,NA,NA,NA,NA,NA,NA,NA,NA,NA,NA
SUPAMT59946,3I2PTA7R3ZT4KQ6M3O0BOPY7LY2KQQ,99D5CF25-B8FF-4D40-A437-E936230674D2,2023-09-28_16h50.40.967,WP_VExplicitOC_HL,2022.2.5,Win32,8.073370794,NA,NA,NA,NA,NA,NA,NA,NA,NA,NA,NA,NA,NA,NA,NA,NA,NA,NA,NA,NA,NA,NA,NA,NA,NA,NA,NA,NA,NA,NA,NA,9,0,9,0,1,NA,NA,NA,NA,NA,NA,NA,NA,NA,NA,NA,NA,NA,NA,NA,NA,NA,NA,NA,NA,NA,NA,NA
SUPAMT59946,3I2PTA7R3ZT4KQ6M3O0BOPY7LY2KQQ,99D5CF25-B8FF-4D40-A437-E936230674D2,2023-09-28_16h50.40.967,WP_VExplicitOC_HL,2022.2.5,Win32,8.073370794,NA,NA,2.0272,NA,NA,NA,NA,NA,frustrated,"frustrated, not frustrated","more frustrated, less frustrated",NA,NA,NA,NA,NA,NA,NA,NA,NA,NA,NA,NA,NA,NA,NA,0,0,0,1,1,NA,NA,NA,NA,NA,NA,NA,NA,NA,NA,NA,NA,NA,NA,NA,NA,NA,NA,NA,NA,NA,NA,NA,NA,NA,NA,NA,NA
SUPAMT59946,3I2PTA7R3ZT4KQ6M3O0BOPY7LY2KQQ,99D5CF25-B8FF-4D40-A437-E936230674D2,2023-09-28_16h50.40.967,WP_VExplicitOC_HL,2022.2.5,Win32,8.073370794,26.5625,3.3821,2.0129,NA,NA,NA,NA,NA,happy,"unhappy, happy","less happy, more happy",NA,NA,NA,NA,NA,NA,NA,NA,NA,NA,NA,NA,NA,NA,NA,0,1,1,0,1,NA,NA,NA,NA,NA,NA,NA,NA,NA,NA,NA,NA,NA,NA,NA,NA,NA,NA,NA,NA,NA,NA,NA,NA,NA,NA,NA,NA
SUPAMT59946,3I2PTA7R3ZT4KQ6M3O0BOPY7LY2KQQ,99D5CF25-B8FF-4D40-A437-E936230674D2,2023-09-28_16h50.40.967,WP_VExplicitOC_HL,2022.2.5,Win32,8.073370794,42.3828125,3.8764,2.0165,NA,NA,NA,NA,NA,bored,"bored, not bored","more bored, less bored",NA,NA,NA,NA,NA,NA,NA,NA,NA,NA,NA,NA,NA,NA,NA,0,2,2,2,1,NA,NA,NA,NA,NA,NA,NA,NA,NA,NA,NA,NA,NA,NA,NA,NA,NA,NA,NA,NA,NA,NA,NA,NA,NA,NA,NA,NA
SUPAMT59946,3I2PTA7R3ZT4KQ6M3O0BOPY7LY2KQQ,99D5CF25-B8FF-4D40-A437-E936230674D2,2023-09-28_16h50.40.967,WP_VExplicitOC_HL,2022.2.5,Win32,8.073370794,NA,NA,NA,NA,NA,NA,NA,NA,NA,NA,NA,NA,NA,NA,NA,NA,NA,NA,NA,NA,NA,NA,NA,NA,NA,NA,NA,NA,NA,NA,NA,10,0,10,0,1,NA,NA,NA,NA,NA,NA,NA,NA,NA,NA,NA,NA,NA,NA,NA,NA,NA,NA,NA,NA,NA,NA,NA
SUPAMT59946,3I2PTA7R3ZT4KQ6M3O0BOPY7LY2KQQ,99D5CF25-B8FF-4D40-A437-E936230674D2,2023-09-28_16h50.40.967,WP_VExplicitOC_HL,2022.2.5,Win32,8.073370794,23.6328125,3.1871,2.0242,NA,NA,NA,NA,NA,frustrated,"frustrated, not frustrated","more frustrated, less frustrated",NA,NA,NA,NA,NA,NA,NA,NA,NA,NA,NA,NA,NA,NA,NA,0,0,0,1,1,NA,NA,NA,NA,NA,NA,NA,NA,NA,NA,NA,NA,NA,NA,NA,NA,NA,NA,NA,NA,NA,NA,NA,NA,NA,NA,NA,NA
SUPAMT59946,3I2PTA7R3ZT4KQ6M3O0BOPY7LY2KQQ,99D5CF25-B8FF-4D40-A437-E936230674D2,2023-09-28_16h50.40.967,WP_VExplicitOC_HL,2022.2.5,Win32,8.073370794,48.828125,3.4192,2.0912,NA,NA,NA,NA,NA,happy,"unhappy, happy","less happy, more happy",NA,NA,NA,NA,NA,NA,NA,NA,NA,NA,NA,NA,NA,NA,NA,0,1,1,0,1,NA,NA,NA,NA,NA,NA,NA,NA,NA,NA,NA,NA,NA,NA,NA,NA,NA,NA,NA,NA,NA,NA,NA,NA,NA,NA,NA,NA
SUPAMT59946,3I2PTA7R3ZT4KQ6M3O0BOPY7LY2KQQ,99D5CF25-B8FF-4D40-A437-E936230674D2,2023-09-28_16h50.40.967,WP_VExplicitOC_HL,2022.2.5,Win32,8.073370794,29.4921875,3.6863,2.0203,NA,NA,NA,NA,NA,bored,"bored, not bored","more bored, less bored",NA,NA,NA,NA,NA,NA,NA,NA,NA,NA,NA,NA,NA,NA,NA,0,2,2,2,1,NA,NA,NA,NA,NA,NA,NA,NA,NA,NA,NA,NA,NA,NA,NA,NA,NA,NA,NA,NA,NA,NA,NA,NA,NA,NA,NA,NA
SUPAMT59946,3I2PTA7R3ZT4KQ6M3O0BOPY7LY2KQQ,99D5CF25-B8FF-4D40-A437-E936230674D2,2023-09-28_16h50.40.967,WP_VExplicitOC_HL,2022.2.5,Win32,8.073370794,NA,NA,NA,NA,NA,NA,NA,NA,NA,NA,NA,NA,NA,NA,NA,NA,NA,NA,NA,NA,NA,NA,NA,NA,NA,NA,NA,NA,NA,NA,NA,11,0,11,0,1,NA,NA,NA,NA,NA,NA,NA,NA,NA,NA,NA,NA,NA,NA,NA,NA,NA,NA,NA,NA,NA,NA,NA
SUPAMT59946,3I2PTA7R3ZT4KQ6M3O0BOPY7LY2KQQ,99D5CF25-B8FF-4D40-A437-E936230674D2,2023-09-28_16h50.40.967,WP_VExplicitOC_HL,2022.2.5,Win32,8.073370794,-28.3203125,3.3461,2.1437,NA,NA,NA,NA,NA,bored,"bored, not bored","more bored, less bored",NA,NA,NA,NA,NA,NA,NA,NA,NA,NA,NA,NA,NA,NA,NA,0,0,0,2,1,NA,NA,NA,NA,NA,NA,NA,NA,NA,NA,NA,NA,NA,NA,NA,NA,NA,NA,NA,NA,NA,NA,NA,NA,NA,NA,NA,NA
SUPAMT59946,3I2PTA7R3ZT4KQ6M3O0BOPY7LY2KQQ,99D5CF25-B8FF-4D40-A437-E936230674D2,2023-09-28_16h50.40.967,WP_VExplicitOC_HL,2022.2.5,Win32,8.073370794,30.46875,3.436,2.0651,NA,NA,NA,NA,NA,happy,"unhappy, happy","less happy, more happy",NA,NA,NA,NA,NA,NA,NA,NA,NA,NA,NA,NA,NA,NA,NA,0,1,1,0,1,NA,NA,NA,NA,NA,NA,NA,NA,NA,NA,NA,NA,NA,NA,NA,NA,NA,NA,NA,NA,NA,NA,NA,NA,NA,NA,NA,NA
SUPAMT59946,3I2PTA7R3ZT4KQ6M3O0BOPY7LY2KQQ,99D5CF25-B8FF-4D40-A437-E936230674D2,2023-09-28_16h50.40.967,WP_VExplicitOC_HL,2022.2.5,Win32,8.073370794,22.65625,3.2333,2.0142,NA,NA,NA,NA,NA,frustrated,"frustrated, not frustrated","more frustrated, less frustrated",NA,NA,NA,NA,NA,NA,NA,NA,NA,NA,NA,NA,NA,NA,NA,0,2,2,1,1,NA,NA,NA,NA,NA,NA,NA,NA,NA,NA,NA,NA,NA,NA,NA,NA,NA,NA,NA,NA,NA,NA,NA,NA,NA,NA,NA,NA
SUPAMT59946,3I2PTA7R3ZT4KQ6M3O0BOPY7LY2KQQ,99D5CF25-B8FF-4D40-A437-E936230674D2,2023-09-28_16h50.40.967,WP_VExplicitOC_HL,2022.2.5,Win32,8.073370794,NA,NA,NA,NA,NA,NA,NA,NA,NA,NA,NA,NA,NA,NA,NA,NA,NA,NA,NA,NA,NA,NA,NA,NA,NA,NA,NA,NA,NA,NA,NA,12,0,12,0,1,NA,NA,NA,NA,NA,NA,NA,NA,NA,NA,NA,NA,NA,NA,NA,NA,NA,NA,NA,NA,NA,NA,NA
SUPAMT59946,3I2PTA7R3ZT4KQ6M3O0BOPY7LY2KQQ,99D5CF25-B8FF-4D40-A437-E936230674D2,2023-09-28_16h50.40.967,WP_VExplicitOC_HL,2022.2.5,Win32,8.073370794,16.40625,3.7637,2.093,NA,NA,NA,NA,NA,frustrated,"frustrated, not frustrated","more frustrated, less frustrated",NA,NA,NA,NA,NA,NA,NA,NA,NA,NA,NA,NA,NA,NA,NA,0,0,0,1,1,NA,NA,NA,NA,NA,NA,NA,NA,NA,NA,NA,NA,NA,NA,NA,NA,NA,NA,NA,NA,NA,NA,NA,NA,NA,NA,NA,NA
SUPAMT59946,3I2PTA7R3ZT4KQ6M3O0BOPY7LY2KQQ,99D5CF25-B8FF-4D40-A437-E936230674D2,2023-09-28_16h50.40.967,WP_VExplicitOC_HL,2022.2.5,Win32,8.073370794,9.765625,3.0972,2.126,NA,NA,NA,NA,NA,happy,"unhappy, happy","less happy, more happy",NA,NA,NA,NA,NA,NA,NA,NA,NA,NA,NA,NA,NA,NA,NA,0,1,1,0,1,NA,NA,NA,NA,NA,NA,NA,NA,NA,NA,NA,NA,NA,NA,NA,NA,NA,NA,NA,NA,NA,NA,NA,NA,NA,NA,NA,NA
SUPAMT59946,3I2PTA7R3ZT4KQ6M3O0BOPY7LY2KQQ,99D5CF25-B8FF-4D40-A437-E936230674D2,2023-09-28_16h50.40.967,WP_VExplicitOC_HL,2022.2.5,Win32,8.073370794,20.8984375,3.371,2.1055,NA,NA,NA,NA,NA,bored,"bored, not bored","more bored, less bored",NA,NA,NA,NA,NA,NA,NA,NA,NA,NA,NA,NA,NA,NA,NA,0,2,2,2,1,NA,NA,NA,NA,NA,NA,NA,NA,NA,NA,NA,NA,NA,NA,NA,NA,NA,NA,NA,NA,NA,NA,NA,NA,NA,NA,NA,NA
SUPAMT59946,3I2PTA7R3ZT4KQ6M3O0BOPY7LY2KQQ,99D5CF25-B8FF-4D40-A437-E936230674D2,2023-09-28_16h50.40.967,WP_VExplicitOC_HL,2022.2.5,Win32,8.073370794,NA,NA,NA,NA,NA,NA,NA,NA,NA,NA,NA,NA,NA,NA,NA,NA,NA,NA,NA,NA,NA,NA,NA,NA,NA,NA,NA,NA,NA,NA,NA,13,0,13,0,1,NA,NA,NA,NA,NA,NA,NA,NA,NA,NA,NA,NA,NA,NA,NA,NA,NA,NA,NA,NA,NA,NA,NA
SUPAMT59946,3I2PTA7R3ZT4KQ6M3O0BOPY7LY2KQQ,99D5CF25-B8FF-4D40-A437-E936230674D2,2023-09-28_16h50.40.967,WP_VExplicitOC_HL,2022.2.5,Win32,8.073370794,11.5234375,3.4714,2.1025,NA,NA,NA,NA,NA,frustrated,"frustrated, not frustrated","more frustrated, less frustrated",NA,NA,NA,NA,NA,NA,NA,NA,NA,NA,NA,NA,NA,NA,NA,0,0,0,1,1,NA,NA,NA,NA,NA,NA,NA,NA,NA,NA,NA,NA,NA,NA,NA,NA,NA,NA,NA,NA,NA,NA,NA,NA,NA,NA,NA,NA
SUPAMT59946,3I2PTA7R3ZT4KQ6M3O0BOPY7LY2KQQ,99D5CF25-B8FF-4D40-A437-E936230674D2,2023-09-28_16h50.40.967,WP_VExplicitOC_HL,2022.2.5,Win32,8.073370794,13.671875,3.1702,2.1273,NA,NA,NA,NA,NA,happy,"unhappy, happy","less happy, more happy",NA,NA,NA,NA,NA,NA,NA,NA,NA,NA,NA,NA,NA,NA,NA,0,1,1,0,1,NA,NA,NA,NA,NA,NA,NA,NA,NA,NA,NA,NA,NA,NA,NA,NA,NA,NA,NA,NA,NA,NA,NA,NA,NA,NA,NA,NA
SUPAMT59946,3I2PTA7R3ZT4KQ6M3O0BOPY7LY2KQQ,99D5CF25-B8FF-4D40-A437-E936230674D2,2023-09-28_16h50.40.967,WP_VExplicitOC_HL,2022.2.5,Win32,8.073370794,19.7265625,3.083,2.0141,NA,NA,NA,NA,NA,bored,"bored, not bored","more bored, less bored",NA,NA,NA,NA,NA,NA,NA,NA,NA,NA,NA,NA,NA,NA,NA,0,2,2,2,1,NA,NA,NA,NA,NA,NA,NA,NA,NA,NA,NA,NA,NA,NA,NA,NA,NA,NA,NA,NA,NA,NA,NA,NA,NA,NA,NA,NA
SUPAMT59946,3I2PTA7R3ZT4KQ6M3O0BOPY7LY2KQQ,99D5CF25-B8FF-4D40-A437-E936230674D2,2023-09-28_16h50.40.967,WP_VExplicitOC_HL,2022.2.5,Win32,8.073370794,NA,NA,NA,NA,NA,NA,NA,NA,NA,NA,NA,NA,NA,NA,NA,NA,NA,NA,NA,NA,NA,NA,NA,NA,NA,NA,NA,NA,NA,NA,NA,14,0,14,0,1,NA,NA,NA,NA,NA,NA,NA,NA,NA,NA,NA,NA,NA,NA,NA,NA,NA,NA,NA,NA,NA,NA,NA
SUPAMT59946,3I2PTA7R3ZT4KQ6M3O0BOPY7LY2KQQ,99D5CF25-B8FF-4D40-A437-E936230674D2,2023-09-28_16h50.40.967,WP_VExplicitOC_HL,2022.2.5,Win32,8.073370794,NA,NA,NA,NA,NA,NA,NA,NA,NA,NA,NA,NA,NA,NA,NA,NA,NA,NA,NA,NA,NA,NA,NA,NA,NA,NA,NA,NA,NA,NA,NA,NA,NA,NA,NA,NA,NA,NA,NA,NA,NA,NA,NA,NA,NA,NA,NA,NA,NA,NA,NA,NA,NA,NA,NA,NA,NA,NA,NA
SUPAMT59946,3I2PTA7R3ZT4KQ6M3O0BOPY7LY2KQQ,99D5CF25-B8FF-4D40-A437-E936230674D2,2023-09-28_16h50.40.967,WP_VExplicitOC_HL,2022.2.5,Win32,8.073370794,NA,NA,NA,NA,NA,NA,NA,NA,NA,NA,NA,NA,NA,NA,NA,NA,NA,NA,NA,NA,NA,NA,NA,NA,NA,NA,NA,NA,NA,NA,NA,NA,NA,NA,NA,NA,NA,NA,NA,NA,NA,NA,NA,NA,NA,NA,NA,NA,NA,NA,NA,NA,NA,NA,NA,NA,NA,NA,NA
SUPAMT59946,3I2PTA7R3ZT4KQ6M3O0BOPY7LY2KQQ,99D5CF25-B8FF-4D40-A437-E936230674D2,2023-09-28_16h50.40.967,WP_VExplicitOC_HL,2022.2.5,Win32,8.073370794,NA,NA,NA,NA,NA,NA,NA,NA,NA,NA,NA,NA,NA,NA,NA,NA,NA,NA,rest (looking at a fixed cross),001.png,NA,NA,NA,NA,NA,NA,NA,NA,NA,NA,NA,NA,NA,NA,NA,NA,33.59375,6.6355,0,0,0,0,1,NA,NA,NA,NA,NA,NA,NA,NA,NA,NA,NA,NA,NA,NA,NA,NA
SUPAMT59946,3I2PTA7R3ZT4KQ6M3O0BOPY7LY2KQQ,99D5CF25-B8FF-4D40-A437-E936230674D2,2023-09-28_16h50.40.967,WP_VExplicitOC_HL,2022.2.5,Win32,8.073370794,NA,NA,NA,NA,NA,NA,NA,NA,NA,NA,NA,NA,NA,NA,NA,NA,NA,NA,stand up,002.png,NA,NA,NA,NA,NA,NA,NA,NA,NA,NA,NA,NA,NA,NA,NA,NA,22.65625,4.1739,0,1,1,1,1,NA,NA,NA,NA,NA,NA,NA,NA,NA,NA,NA,NA,NA,NA,NA,NA
SUPAMT59946,3I2PTA7R3ZT4KQ6M3O0BOPY7LY2KQQ,99D5CF25-B8FF-4D40-A437-E936230674D2,2023-09-28_16h50.40.967,WP_VExplicitOC_HL,2022.2.5,Win32,8.073370794,NA,NA,NA,NA,NA,NA,NA,NA,NA,NA,NA,NA,NA,NA,NA,NA,NA,NA,stretch,003.png,NA,NA,NA,NA,NA,NA,NA,NA,NA,NA,NA,NA,NA,NA,NA,NA,49.8046875,3.0079,0,2,2,2,1,NA,NA,NA,NA,NA,NA,NA,NA,NA,NA,NA,NA,NA,NA,NA,NA
SUPAMT59946,3I2PTA7R3ZT4KQ6M3O0BOPY7LY2KQQ,99D5CF25-B8FF-4D40-A437-E936230674D2,2023-09-28_16h50.40.967,WP_VExplicitOC_HL,2022.2.5,Win32,8.073370794,NA,NA,NA,NA,NA,NA,NA,NA,NA,NA,NA,NA,NA,NA,NA,NA,NA,NA,make a drink,004.png,NA,NA,NA,NA,NA,NA,NA,NA,NA,NA,NA,NA,NA,NA,NA,NA,34.375,3.0387,0,3,3,3,1,NA,NA,NA,NA,NA,NA,NA,NA,NA,NA,NA,NA,NA,NA,NA,NA
SUPAMT59946,3I2PTA7R3ZT4KQ6M3O0BOPY7LY2KQQ,99D5CF25-B8FF-4D40-A437-E936230674D2,2023-09-28_16h50.40.967,WP_VExplicitOC_HL,2022.2.5,Win32,8.073370794,NA,NA,NA,NA,NA,NA,NA,NA,NA,NA,NA,NA,NA,NA,NA,NA,NA,NA,scroll social media,005.png,NA,NA,NA,NA,NA,NA,NA,NA,NA,NA,NA,NA,NA,NA,NA,NA,42.3828125,1.9572,0,4,4,4,1,NA,NA,NA,NA,NA,NA,NA,NA,NA,NA,NA,NA,NA,NA,NA,NA
SUPAMT59946,3I2PTA7R3ZT4KQ6M3O0BOPY7LY2KQQ,99D5CF25-B8FF-4D40-A437-E936230674D2,2023-09-28_16h50.40.967,WP_VExplicitOC_HL,2022.2.5,Win32,8.073370794,NA,NA,NA,NA,NA,NA,NA,NA,NA,NA,NA,NA,NA,NA,NA,NA,NA,NA,listen to music,006.png,NA,NA,NA,NA,NA,NA,NA,NA,NA,NA,NA,NA,NA,NA,NA,NA,60.7421875,2.2263,0,5,5,5,1,NA,NA,NA,NA,NA,NA,NA,NA,NA,NA,NA,NA,NA,NA,NA,NA
SUPAMT59946,3I2PTA7R3ZT4KQ6M3O0BOPY7LY2KQQ,99D5CF25-B8FF-4D40-A437-E936230674D2,2023-09-28_16h50.40.967,WP_VExplicitOC_HL,2022.2.5,Win32,8.073370794,NA,NA,NA,NA,NA,NA,NA,NA,NA,NA,NA,NA,NA,NA,NA,NA,NA,NA,daydream,007.png,NA,NA,NA,NA,NA,NA,NA,NA,NA,NA,NA,NA,NA,NA,NA,NA,55.078125,2.2687,0,6,6,6,1,NA,NA,NA,NA,NA,NA,NA,NA,NA,NA,NA,NA,NA,NA,NA,NA
SUPAMT59946,3I2PTA7R3ZT4KQ6M3O0BOPY7LY2KQQ,99D5CF25-B8FF-4D40-A437-E936230674D2,2023-09-28_16h50.40.967,WP_VExplicitOC_HL,2022.2.5,Win32,8.073370794,NA,NA,NA,NA,NA,NA,NA,NA,NA,NA,NA,NA,NA,NA,NA,NA,NA,NA,watch a short animation,008.png,NA,NA,NA,NA,NA,NA,NA,NA,NA,NA,NA,NA,NA,NA,NA,NA,28.3203125,1.895,0,7,7,7,1,NA,NA,NA,NA,NA,NA,NA,NA,NA,NA,NA,NA,NA,NA,NA,NA
SUPAMT59946,3I2PTA7R3ZT4KQ6M3O0BOPY7LY2KQQ,99D5CF25-B8FF-4D40-A437-E936230674D2,2023-09-28_16h50.40.967,WP_VExplicitOC_HL,2022.2.5,Win32,8.073370794,NA,NA,NA,NA,NA,NA,NA,NA,NA,NA,NA,NA,NA,NA,NA,NA,NA,NA,read a novel,009.png,NA,NA,NA,NA,NA,NA,NA,NA,NA,NA,NA,NA,NA,NA,NA,NA,54.4921875,1.6298,0,8,8,8,1,NA,NA,NA,NA,NA,NA,NA,NA,NA,NA,NA,NA,NA,NA,NA,NA
SUPAMT59946,3I2PTA7R3ZT4KQ6M3O0BOPY7LY2KQQ,99D5CF25-B8FF-4D40-A437-E936230674D2,2023-09-28_16h50.40.967,WP_VExplicitOC_HL,2022.2.5,Win32,8.073370794,NA,NA,NA,NA,NA,NA,NA,NA,NA,NA,NA,NA,NA,NA,NA,NA,NA,NA,read the news,010.png,NA,NA,NA,NA,NA,NA,NA,NA,NA,NA,NA,NA,NA,NA,NA,NA,45.1171875,1.6972,0,9,9,9,1,NA,NA,NA,NA,NA,NA,NA,NA,NA,NA,NA,NA,NA,NA,NA,NA
SUPAMT59946,3I2PTA7R3ZT4KQ6M3O0BOPY7LY2KQQ,99D5CF25-B8FF-4D40-A437-E936230674D2,2023-09-28_16h50.40.967,WP_VExplicitOC_HL,2022.2.5,Win32,8.073370794,NA,NA,NA,NA,NA,NA,NA,NA,NA,NA,NA,NA,NA,NA,NA,NA,NA,NA,NA,NA,NA,NA,NA,NA,NA,NA,NA,NA,NA,NA,NA,NA,NA,NA,NA,NA,NA,NA,NA,NA,NA,NA,NA,stand up,NA,NA,NA,NA,NA,NA,NA,NA,NA,NA,NA,NA,NA,NA,NA
SUPAMT59946,3I2PTA7R3ZT4KQ6M3O0BOPY7LY2KQQ,99D5CF25-B8FF-4D40-A437-E936230674D2,2023-09-28_16h50.40.967,WP_VExplicitOC_HL,2022.2.5,Win32,8.073370794,44.53125,3.3471,2.0177,NA,NA,NA,NA,NA,frustrated,"frustrated, not frustrated","more frustrated, less frustrated",NA,NA,NA,NA,NA,NA,NA,NA,NA,NA,NA,NA,NA,NA,NA,NA,NA,NA,NA,NA,NA,NA,NA,NA,NA,NA,NA,NA,NA,NA,NA,NA,NA,0,0,0,1,1,NA,NA,NA,NA,NA,NA,NA,NA,NA,NA
SUPAMT59946,3I2PTA7R3ZT4KQ6M3O0BOPY7LY2KQQ,99D5CF25-B8FF-4D40-A437-E936230674D2,2023-09-28_16h50.40.967,WP_VExplicitOC_HL,2022.2.5,Win32,8.073370794,32.6171875,3.2223,2.0359,NA,NA,NA,NA,NA,bored,"bored, not bored","more bored, less bored",NA,NA,NA,NA,NA,NA,NA,NA,NA,NA,NA,NA,NA,NA,NA,NA,NA,NA,NA,NA,NA,NA,NA,NA,NA,NA,NA,NA,NA,NA,NA,NA,NA,0,1,1,2,1,NA,NA,NA,NA,NA,NA,NA,NA,NA,NA
SUPAMT59946,3I2PTA7R3ZT4KQ6M3O0BOPY7LY2KQQ,99D5CF25-B8FF-4D40-A437-E936230674D2,2023-09-28_16h50.40.967,WP_VExplicitOC_HL,2022.2.5,Win32,8.073370794,7.421875,2.9515,2.0215,NA,NA,NA,NA,NA,happy,"unhappy, happy","less happy, more happy",NA,NA,NA,NA,NA,NA,NA,NA,NA,NA,NA,NA,NA,NA,NA,NA,NA,NA,NA,NA,NA,NA,NA,NA,NA,NA,NA,NA,NA,NA,NA,NA,NA,0,2,2,0,1,NA,NA,NA,NA,NA,NA,NA,NA,NA,NA
SUPAMT59946,3I2PTA7R3ZT4KQ6M3O0BOPY7LY2KQQ,99D5CF25-B8FF-4D40-A437-E936230674D2,2023-09-28_16h50.40.967,WP_VExplicitOC_HL,2022.2.5,Win32,8.073370794,NA,NA,NA,NA,NA,NA,NA,NA,NA,NA,NA,NA,NA,NA,NA,NA,NA,NA,NA,NA,NA,NA,NA,NA,NA,NA,NA,NA,NA,NA,NA,NA,NA,NA,NA,NA,NA,NA,NA,NA,NA,NA,NA,NA,NA,NA,NA,NA,NA,NA,NA,NA,NA,NA,NA,NA,NA,NA,NA
SUPAMT59946,3I2PTA7R3ZT4KQ6M3O0BOPY7LY2KQQ,99D5CF25-B8FF-4D40-A437-E936230674D2,2023-09-28_16h50.40.967,WP_VExplicitOC_HL,2022.2.5,Win32,8.073370794,NA,NA,NA,NA,NA,NA,NA,NA,NA,NA,NA,NA,NA,NA,NA,NA,NA,NA,NA,NA,NA,NA,NA,NA,NA,NA,NA,NA,NA,NA,NA,NA,NA,NA,NA,NA,NA,NA,NA,NA,NA,NA,NA,NA,NA,NA,NA,NA,NA,NA,NA,NA,NA,NA,NA,NA,NA,NA,NA
SUPAMT59946,3I2PTA7R3ZT4KQ6M3O0BOPY7LY2KQQ,99D5CF25-B8FF-4D40-A437-E936230674D2,2023-09-28_16h50.40.967,WP_VExplicitOC_HL,2022.2.5,Win32,8.073370794,41.9921875,3.946,2.0741,NA,NA,NA,NA,NA,happy,"unhappy, happy","less happy, more happy",NA,NA,NA,NA,NA,NA,NA,NA,NA,NA,NA,NA,NA,NA,NA,NA,NA,NA,NA,NA,NA,NA,NA,NA,NA,NA,NA,NA,NA,NA,NA,NA,NA,NA,NA,NA,NA,NA,0,0,0,0,1,NA,NA,NA,NA,NA
SUPAMT59946,3I2PTA7R3ZT4KQ6M3O0BOPY7LY2KQQ,99D5CF25-B8FF-4D40-A437-E936230674D2,2023-09-28_16h50.40.967,WP_VExplicitOC_HL,2022.2.5,Win32,8.073370794,26.7578125,3.2413,2.0522,NA,NA,NA,NA,NA,bored,"bored, not bored","more bored, less bored",NA,NA,NA,NA,NA,NA,NA,NA,NA,NA,NA,NA,NA,NA,NA,NA,NA,NA,NA,NA,NA,NA,NA,NA,NA,NA,NA,NA,NA,NA,NA,NA,NA,NA,NA,NA,NA,NA,0,1,1,2,1,NA,NA,NA,NA,NA
SUPAMT59946,3I2PTA7R3ZT4KQ6M3O0BOPY7LY2KQQ,99D5CF25-B8FF-4D40-A437-E936230674D2,2023-09-28_16h50.40.967,WP_VExplicitOC_HL,2022.2.5,Win32,8.073370794,10.15625,2.5505,2.0582,NA,NA,NA,NA,NA,frustrated,"frustrated, not frustrated","more frustrated, less frustrated",NA,NA,NA,NA,NA,NA,NA,NA,NA,NA,NA,NA,NA,NA,NA,NA,NA,NA,NA,NA,NA,NA,NA,NA,NA,NA,NA,NA,NA,NA,NA,NA,NA,NA,NA,NA,NA,NA,0,2,2,1,1,NA,NA,NA,NA,NA
SUPAMT59946,3I2PTA7R3ZT4KQ6M3O0BOPY7LY2KQQ,99D5CF25-B8FF-4D40-A437-E936230674D2,2023-09-28_16h50.40.967,WP_VExplicitOC_HL,2022.2.5,Win32,8.073370794,NA,NA,NA,NA,NA,NA,NA,NA,NA,NA,NA,NA,NA,NA,NA,NA,NA,NA,NA,NA,NA,NA,NA,NA,NA,NA,NA,NA,NA,NA,NA,NA,NA,NA,NA,NA,NA,NA,NA,NA,NA,NA,NA,NA,NA,NA,NA,NA,NA,NA,NA,NA,NA,NA,0,0,0,0,1
SUPAMT59946,3I2PTA7R3ZT4KQ6M3O0BOPY7LY2KQQ,99D5CF25-B8FF-4D40-A437-E936230674D2,2023-09-28_16h50.40.967,WP_VExplicitOC_HL,2022.2.5,Win32,8.073370794,30.2734375,3.6538,2.0012,NA,NA,NA,NA,NA,bored,"bored, not bored","more bored, less bored",NA,NA,NA,NA,NA,NA,NA,NA,NA,NA,NA,NA,NA,NA,NA,NA,NA,NA,NA,NA,NA,NA,NA,NA,NA,NA,NA,NA,NA,NA,NA,NA,NA,NA,NA,NA,NA,NA,0,0,0,2,1,NA,NA,NA,NA,NA
SUPAMT59946,3I2PTA7R3ZT4KQ6M3O0BOPY7LY2KQQ,99D5CF25-B8FF-4D40-A437-E936230674D2,2023-09-28_16h50.40.967,WP_VExplicitOC_HL,2022.2.5,Win32,8.073370794,11.5234375,4.1709,2.052,NA,NA,NA,NA,NA,happy,"unhappy, happy","less happy, more happy",NA,NA,NA,NA,NA,NA,NA,NA,NA,NA,NA,NA,NA,NA,NA,NA,NA,NA,NA,NA,NA,NA,NA,NA,NA,NA,NA,NA,NA,NA,NA,NA,NA,NA,NA,NA,NA,NA,0,1,1,0,1,NA,NA,NA,NA,NA
SUPAMT59946,3I2PTA7R3ZT4KQ6M3O0BOPY7LY2KQQ,99D5CF25-B8FF-4D40-A437-E936230674D2,2023-09-28_16h50.40.967,WP_VExplicitOC_HL,2022.2.5,Win32,8.073370794,21.2890625,3.4256,2.0221,NA,NA,NA,NA,NA,frustrated,"frustrated, not frustrated","more frustrated, less frustrated",NA,NA,NA,NA,NA,NA,NA,NA,NA,NA,NA,NA,NA,NA,NA,NA,NA,NA,NA,NA,NA,NA,NA,NA,NA,NA,NA,NA,NA,NA,NA,NA,NA,NA,NA,NA,NA,NA,0,2,2,1,1,NA,NA,NA,NA,NA
SUPAMT59946,3I2PTA7R3ZT4KQ6M3O0BOPY7LY2KQQ,99D5CF25-B8FF-4D40-A437-E936230674D2,2023-09-28_16h50.40.967,WP_VExplicitOC_HL,2022.2.5,Win32,8.073370794,NA,NA,NA,NA,NA,NA,NA,NA,NA,NA,NA,NA,NA,NA,NA,NA,NA,NA,NA,NA,NA,NA,NA,NA,NA,NA,NA,NA,NA,NA,NA,NA,NA,NA,NA,NA,NA,NA,NA,NA,NA,NA,NA,NA,NA,NA,NA,NA,NA,NA,NA,NA,NA,NA,1,0,1,0,1
SUPAMT59946,3I2PTA7R3ZT4KQ6M3O0BOPY7LY2KQQ,99D5CF25-B8FF-4D40-A437-E936230674D2,2023-09-28_16h50.40.967,WP_VExplicitOC_HL,2022.2.5,Win32,8.073370794,21.875,4.1577,2.0341,NA,NA,NA,NA,NA,frustrated,"frustrated, not frustrated","more frustrated, less frustrated",NA,NA,NA,NA,NA,NA,NA,NA,NA,NA,NA,NA,NA,NA,NA,NA,NA,NA,NA,NA,NA,NA,NA,NA,NA,NA,NA,NA,NA,NA,NA,NA,NA,NA,NA,NA,NA,NA,0,0,0,1,1,NA,NA,NA,NA,NA
SUPAMT59946,3I2PTA7R3ZT4KQ6M3O0BOPY7LY2KQQ,99D5CF25-B8FF-4D40-A437-E936230674D2,2023-09-28_16h50.40.967,WP_VExplicitOC_HL,2022.2.5,Win32,8.073370794,22.65625,3.068,2.0338,NA,NA,NA,NA,NA,bored,"bored, not bored","more bored, less bored",NA,NA,NA,NA,NA,NA,NA,NA,NA,NA,NA,NA,NA,NA,NA,NA,NA,NA,NA,NA,NA,NA,NA,NA,NA,NA,NA,NA,NA,NA,NA,NA,NA,NA,NA,NA,NA,NA,0,1,1,2,1,NA,NA,NA,NA,NA
SUPAMT59946,3I2PTA7R3ZT4KQ6M3O0BOPY7LY2KQQ,99D5CF25-B8FF-4D40-A437-E936230674D2,2023-09-28_16h50.40.967,WP_VExplicitOC_HL,2022.2.5,Win32,8.073370794,21.2890625,3.0381,2.0532,NA,NA,NA,NA,NA,happy,"unhappy, happy","less happy, more happy",NA,NA,NA,NA,NA,NA,NA,NA,NA,NA,NA,NA,NA,NA,NA,NA,NA,NA,NA,NA,NA,NA,NA,NA,NA,NA,NA,NA,NA,NA,NA,NA,NA,NA,NA,NA,NA,NA,0,2,2,0,1,NA,NA,NA,NA,NA
SUPAMT59946,3I2PTA7R3ZT4KQ6M3O0BOPY7LY2KQQ,99D5CF25-B8FF-4D40-A437-E936230674D2,2023-09-28_16h50.40.967,WP_VExplicitOC_HL,2022.2.5,Win32,8.073370794,NA,NA,NA,NA,NA,NA,NA,NA,NA,NA,NA,NA,NA,NA,NA,NA,NA,NA,NA,NA,NA,NA,NA,NA,NA,NA,NA,NA,NA,NA,NA,NA,NA,NA,NA,NA,NA,NA,NA,NA,NA,NA,NA,NA,NA,NA,NA,NA,NA,NA,NA,NA,NA,NA,2,0,2,0,1
SUPAMT59946,3I2PTA7R3ZT4KQ6M3O0BOPY7LY2KQQ,99D5CF25-B8FF-4D40-A437-E936230674D2,2023-09-28_16h50.40.967,WP_VExplicitOC_HL,2022.2.5,Win32,8.073370794,9.765625,3.1943,2.0086,NA,NA,NA,NA,NA,frustrated,"frustrated, not frustrated","more frustrated, less frustrated",NA,NA,NA,NA,NA,NA,NA,NA,NA,NA,NA,NA,NA,NA,NA,NA,NA,NA,NA,NA,NA,NA,NA,NA,NA,NA,NA,NA,NA,NA,NA,NA,NA,NA,NA,NA,NA,NA,0,0,0,1,1,NA,NA,NA,NA,NA
SUPAMT59946,3I2PTA7R3ZT4KQ6M3O0BOPY7LY2KQQ,99D5CF25-B8FF-4D40-A437-E936230674D2,2023-09-28_16h50.40.967,WP_VExplicitOC_HL,2022.2.5,Win32,8.073370794,10.9375,3.5595,2.0771,NA,NA,NA,NA,NA,bored,"bored, not bored","more bored, less bored",NA,NA,NA,NA,NA,NA,NA,NA,NA,NA,NA,NA,NA,NA,NA,NA,NA,NA,NA,NA,NA,NA,NA,NA,NA,NA,NA,NA,NA,NA,NA,NA,NA,NA,NA,NA,NA,NA,0,1,1,2,1,NA,NA,NA,NA,NA
SUPAMT59946,3I2PTA7R3ZT4KQ6M3O0BOPY7LY2KQQ,99D5CF25-B8FF-4D40-A437-E936230674D2,2023-09-28_16h50.40.967,WP_VExplicitOC_HL,2022.2.5,Win32,8.073370794,13.0859375,5.2593,2.1014,NA,NA,NA,NA,NA,happy,"unhappy, happy","less happy, more happy",NA,NA,NA,NA,NA,NA,NA,NA,NA,NA,NA,NA,NA,NA,NA,NA,NA,NA,NA,NA,NA,NA,NA,NA,NA,NA,NA,NA,NA,NA,NA,NA,NA,NA,NA,NA,NA,NA,0,2,2,0,1,NA,NA,NA,NA,NA
SUPAMT59946,3I2PTA7R3ZT4KQ6M3O0BOPY7LY2KQQ,99D5CF25-B8FF-4D40-A437-E936230674D2,2023-09-28_16h50.40.967,WP_VExplicitOC_HL,2022.2.5,Win32,8.073370794,NA,NA,NA,NA,NA,NA,NA,NA,NA,NA,NA,NA,NA,NA,NA,NA,NA,NA,NA,NA,NA,NA,NA,NA,NA,NA,NA,NA,NA,NA,NA,NA,NA,NA,NA,NA,NA,NA,NA,NA,NA,NA,NA,NA,NA,NA,NA,NA,NA,NA,NA,NA,NA,NA,3,0,3,0,1
SUPAMT59946,3I2PTA7R3ZT4KQ6M3O0BOPY7LY2KQQ,99D5CF25-B8FF-4D40-A437-E936230674D2,2023-09-28_16h50.40.967,WP_VExplicitOC_HL,2022.2.5,Win32,8.073370794,8.984375,3.7155,2.0163,NA,NA,NA,NA,NA,happy,"unhappy, happy","less happy, more happy",NA,NA,NA,NA,NA,NA,NA,NA,NA,NA,NA,NA,NA,NA,NA,NA,NA,NA,NA,NA,NA,NA,NA,NA,NA,NA,NA,NA,NA,NA,NA,NA,NA,NA,NA,NA,NA,NA,0,0,0,0,1,NA,NA,NA,NA,NA
SUPAMT59946,3I2PTA7R3ZT4KQ6M3O0BOPY7LY2KQQ,99D5CF25-B8FF-4D40-A437-E936230674D2,2023-09-28_16h50.40.967,WP_VExplicitOC_HL,2022.2.5,Win32,8.073370794,16.40625,3.7723,2.0911,NA,NA,NA,NA,NA,frustrated,"frustrated, not frustrated","more frustrated, less frustrated",NA,NA,NA,NA,NA,NA,NA,NA,NA,NA,NA,NA,NA,NA,NA,NA,NA,NA,NA,NA,NA,NA,NA,NA,NA,NA,NA,NA,NA,NA,NA,NA,NA,NA,NA,NA,NA,NA,0,1,1,1,1,NA,NA,NA,NA,NA
SUPAMT59946,3I2PTA7R3ZT4KQ6M3O0BOPY7LY2KQQ,99D5CF25-B8FF-4D40-A437-E936230674D2,2023-09-28_16h50.40.967,WP_VExplicitOC_HL,2022.2.5,Win32,8.073370794,NA,NA,2.0175,NA,NA,NA,NA,NA,bored,"bored, not bored","more bored, less bored",NA,NA,NA,NA,NA,NA,NA,NA,NA,NA,NA,NA,NA,NA,NA,NA,NA,NA,NA,NA,NA,NA,NA,NA,NA,NA,NA,NA,NA,NA,NA,NA,NA,NA,NA,NA,NA,NA,0,2,2,2,1,NA,NA,NA,NA,NA
SUPAMT59946,3I2PTA7R3ZT4KQ6M3O0BOPY7LY2KQQ,99D5CF25-B8FF-4D40-A437-E936230674D2,2023-09-28_16h50.40.967,WP_VExplicitOC_HL,2022.2.5,Win32,8.073370794,NA,NA,NA,NA,NA,NA,NA,NA,NA,NA,NA,NA,NA,NA,NA,NA,NA,NA,NA,NA,NA,NA,NA,NA,NA,NA,NA,NA,NA,NA,NA,NA,NA,NA,NA,NA,NA,NA,NA,NA,NA,NA,NA,NA,NA,NA,NA,NA,NA,NA,NA,NA,NA,NA,4,0,4,0,1
SUPAMT59946,3I2PTA7R3ZT4KQ6M3O0BOPY7LY2KQQ,99D5CF25-B8FF-4D40-A437-E936230674D2,2023-09-28_16h50.40.967,WP_VExplicitOC_HL,2022.2.5,Win32,8.073370794,32.2265625,3.5926,2.078,NA,NA,NA,NA,NA,frustrated,"frustrated, not frustrated","more frustrated, less frustrated",NA,NA,NA,NA,NA,NA,NA,NA,NA,NA,NA,NA,NA,NA,NA,NA,NA,NA,NA,NA,NA,NA,NA,NA,NA,NA,NA,NA,NA,NA,NA,NA,NA,NA,NA,NA,NA,NA,0,0,0,1,1,NA,NA,NA,NA,NA
SUPAMT59946,3I2PTA7R3ZT4KQ6M3O0BOPY7LY2KQQ,99D5CF25-B8FF-4D40-A437-E936230674D2,2023-09-28_16h50.40.967,WP_VExplicitOC_HL,2022.2.5,Win32,8.073370794,23.6328125,4.6263,2.0107,NA,NA,NA,NA,NA,happy,"unhappy, happy","less happy, more happy",NA,NA,NA,NA,NA,NA,NA,NA,NA,NA,NA,NA,NA,NA,NA,NA,NA,NA,NA,NA,NA,NA,NA,NA,NA,NA,NA,NA,NA,NA,NA,NA,NA,NA,NA,NA,NA,NA,0,1,1,0,1,NA,NA,NA,NA,NA
SUPAMT59946,3I2PTA7R3ZT4KQ6M3O0BOPY7LY2KQQ,99D5CF25-B8FF-4D40-A437-E936230674D2,2023-09-28_16h50.40.967,WP_VExplicitOC_HL,2022.2.5,Win32,8.073370794,5.6640625,3.4005,2.0224,NA,NA,NA,NA,NA,bored,"bored, not bored","more bored, less bored",NA,NA,NA,NA,NA,NA,NA,NA,NA,NA,NA,NA,NA,NA,NA,NA,NA,NA,NA,NA,NA,NA,NA,NA,NA,NA,NA,NA,NA,NA,NA,NA,NA,NA,NA,NA,NA,NA,0,2,2,2,1,NA,NA,NA,NA,NA
SUPAMT59946,3I2PTA7R3ZT4KQ6M3O0BOPY7LY2KQQ,99D5CF25-B8FF-4D40-A437-E936230674D2,2023-09-28_16h50.40.967,WP_VExplicitOC_HL,2022.2.5,Win32,8.073370794,NA,NA,NA,NA,NA,NA,NA,NA,NA,NA,NA,NA,NA,NA,NA,NA,NA,NA,NA,NA,NA,NA,NA,NA,NA,NA,NA,NA,NA,NA,NA,NA,NA,NA,NA,NA,NA,NA,NA,NA,NA,NA,NA,NA,NA,NA,NA,NA,NA,NA,NA,NA,NA,NA,5,0,5,0,1
SUPAMT59946,3I2PTA7R3ZT4KQ6M3O0BOPY7LY2KQQ,99D5CF25-B8FF-4D40-A437-E936230674D2,2023-09-28_16h50.40.967,WP_VExplicitOC_HL,2022.2.5,Win32,8.073370794,17.96875,4.9912,2.0364,NA,NA,NA,NA,NA,bored,"bored, not bored","more bored, less bored",NA,NA,NA,NA,NA,NA,NA,NA,NA,NA,NA,NA,NA,NA,NA,NA,NA,NA,NA,NA,NA,NA,NA,NA,NA,NA,NA,NA,NA,NA,NA,NA,NA,NA,NA,NA,NA,NA,0,0,0,2,1,NA,NA,NA,NA,NA
SUPAMT59946,3I2PTA7R3ZT4KQ6M3O0BOPY7LY2KQQ,99D5CF25-B8FF-4D40-A437-E936230674D2,2023-09-28_16h50.40.967,WP_VExplicitOC_HL,2022.2.5,Win32,8.073370794,-16.6015625,3.362,2.0531,NA,NA,NA,NA,NA,happy,"unhappy, happy","less happy, more happy",NA,NA,NA,NA,NA,NA,NA,NA,NA,NA,NA,NA,NA,NA,NA,NA,NA,NA,NA,NA,NA,NA,NA,NA,NA,NA,NA,NA,NA,NA,NA,NA,NA,NA,NA,NA,NA,NA,0,1,1,0,1,NA,NA,NA,NA,NA
SUPAMT59946,3I2PTA7R3ZT4KQ6M3O0BOPY7LY2KQQ,99D5CF25-B8FF-4D40-A437-E936230674D2,2023-09-28_16h50.40.967,WP_VExplicitOC_HL,2022.2.5,Win32,8.073370794,-14.6484375,3.7775,2.0491,NA,NA,NA,NA,NA,frustrated,"frustrated, not frustrated","more frustrated, less frustrated",NA,NA,NA,NA,NA,NA,NA,NA,NA,NA,NA,NA,NA,NA,NA,NA,NA,NA,NA,NA,NA,NA,NA,NA,NA,NA,NA,NA,NA,NA,NA,NA,NA,NA,NA,NA,NA,NA,0,2,2,1,1,NA,NA,NA,NA,NA
SUPAMT59946,3I2PTA7R3ZT4KQ6M3O0BOPY7LY2KQQ,99D5CF25-B8FF-4D40-A437-E936230674D2,2023-09-28_16h50.40.967,WP_VExplicitOC_HL,2022.2.5,Win32,8.073370794,NA,NA,NA,NA,NA,NA,NA,NA,NA,NA,NA,NA,NA,NA,NA,NA,NA,NA,NA,NA,NA,NA,NA,NA,NA,NA,NA,NA,NA,NA,NA,NA,NA,NA,NA,NA,NA,NA,NA,NA,NA,NA,NA,NA,NA,NA,NA,NA,NA,NA,NA,NA,NA,NA,6,0,6,0,1
SUPAMT59946,3I2PTA7R3ZT4KQ6M3O0BOPY7LY2KQQ,99D5CF25-B8FF-4D40-A437-E936230674D2,2023-09-28_16h50.40.967,WP_VExplicitOC_HL,2022.2.5,Win32,8.073370794,11.1328125,3.94,2.1096,NA,NA,NA,NA,NA,happy,"unhappy, happy","less happy, more happy",NA,NA,NA,NA,NA,NA,NA,NA,NA,NA,NA,NA,NA,NA,NA,NA,NA,NA,NA,NA,NA,NA,NA,NA,NA,NA,NA,NA,NA,NA,NA,NA,NA,NA,NA,NA,NA,NA,0,0,0,0,1,NA,NA,NA,NA,NA
SUPAMT59946,3I2PTA7R3ZT4KQ6M3O0BOPY7LY2KQQ,99D5CF25-B8FF-4D40-A437-E936230674D2,2023-09-28_16h50.40.967,WP_VExplicitOC_HL,2022.2.5,Win32,8.073370794,8.3984375,3.6412,2.0485,NA,NA,NA,NA,NA,bored,"bored, not bored","more bored, less bored",NA,NA,NA,NA,NA,NA,NA,NA,NA,NA,NA,NA,NA,NA,NA,NA,NA,NA,NA,NA,NA,NA,NA,NA,NA,NA,NA,NA,NA,NA,NA,NA,NA,NA,NA,NA,NA,NA,0,1,1,2,1,NA,NA,NA,NA,NA
SUPAMT59946,3I2PTA7R3ZT4KQ6M3O0BOPY7LY2KQQ,99D5CF25-B8FF-4D40-A437-E936230674D2,2023-09-28_16h50.40.967,WP_VExplicitOC_HL,2022.2.5,Win32,8.073370794,11.71875,3.0773,2.1144,NA,NA,NA,NA,NA,frustrated,"frustrated, not frustrated","more frustrated, less frustrated",NA,NA,NA,NA,NA,NA,NA,NA,NA,NA,NA,NA,NA,NA,NA,NA,NA,NA,NA,NA,NA,NA,NA,NA,NA,NA,NA,NA,NA,NA,NA,NA,NA,NA,NA,NA,NA,NA,0,2,2,1,1,NA,NA,NA,NA,NA
SUPAMT59946,3I2PTA7R3ZT4KQ6M3O0BOPY7LY2KQQ,99D5CF25-B8FF-4D40-A437-E936230674D2,2023-09-28_16h50.40.967,WP_VExplicitOC_HL,2022.2.5,Win32,8.073370794,NA,NA,NA,NA,NA,NA,NA,NA,NA,NA,NA,NA,NA,NA,NA,NA,NA,NA,NA,NA,NA,NA,NA,NA,NA,NA,NA,NA,NA,NA,NA,NA,NA,NA,NA,NA,NA,NA,NA,NA,NA,NA,NA,NA,NA,NA,NA,NA,NA,NA,NA,NA,NA,NA,7,0,7,0,1
SUPAMT59946,3I2PTA7R3ZT4KQ6M3O0BOPY7LY2KQQ,99D5CF25-B8FF-4D40-A437-E936230674D2,2023-09-28_16h50.40.967,WP_VExplicitOC_HL,2022.2.5,Win32,8.073370794,-9.765625,3.9554,2.0009,NA,NA,NA,NA,NA,bored,"bored, not bored","more bored, less bored",NA,NA,NA,NA,NA,NA,NA,NA,NA,NA,NA,NA,NA,NA,NA,NA,NA,NA,NA,NA,NA,NA,NA,NA,NA,NA,NA,NA,NA,NA,NA,NA,NA,NA,NA,NA,NA,NA,0,0,0,2,1,NA,NA,NA,NA,NA
SUPAMT59946,3I2PTA7R3ZT4KQ6M3O0BOPY7LY2KQQ,99D5CF25-B8FF-4D40-A437-E936230674D2,2023-09-28_16h50.40.967,WP_VExplicitOC_HL,2022.2.5,Win32,8.073370794,-8.3984375,6.0217,2.0523,NA,NA,NA,NA,NA,happy,"unhappy, happy","less happy, more happy",NA,NA,NA,NA,NA,NA,NA,NA,NA,NA,NA,NA,NA,NA,NA,NA,NA,NA,NA,NA,NA,NA,NA,NA,NA,NA,NA,NA,NA,NA,NA,NA,NA,NA,NA,NA,NA,NA,0,1,1,0,1,NA,NA,NA,NA,NA
SUPAMT59946,3I2PTA7R3ZT4KQ6M3O0BOPY7LY2KQQ,99D5CF25-B8FF-4D40-A437-E936230674D2,2023-09-28_16h50.40.967,WP_VExplicitOC_HL,2022.2.5,Win32,8.073370794,-6.0546875,3.8512,2.0985,NA,NA,NA,NA,NA,frustrated,"frustrated, not frustrated","more frustrated, less frustrated",NA,NA,NA,NA,NA,NA,NA,NA,NA,NA,NA,NA,NA,NA,NA,NA,NA,NA,NA,NA,NA,NA,NA,NA,NA,NA,NA,NA,NA,NA,NA,NA,NA,NA,NA,NA,NA,NA,0,2,2,1,1,NA,NA,NA,NA,NA
SUPAMT59946,3I2PTA7R3ZT4KQ6M3O0BOPY7LY2KQQ,99D5CF25-B8FF-4D40-A437-E936230674D2,2023-09-28_16h50.40.967,WP_VExplicitOC_HL,2022.2.5,Win32,8.073370794,NA,NA,NA,NA,NA,NA,NA,NA,NA,NA,NA,NA,NA,NA,NA,NA,NA,NA,NA,NA,NA,NA,NA,NA,NA,NA,NA,NA,NA,NA,NA,NA,NA,NA,NA,NA,NA,NA,NA,NA,NA,NA,NA,NA,NA,NA,NA,NA,NA,NA,NA,NA,NA,NA,8,0,8,0,1
SUPAMT59946,3I2PTA7R3ZT4KQ6M3O0BOPY7LY2KQQ,99D5CF25-B8FF-4D40-A437-E936230674D2,2023-09-28_16h50.40.967,WP_VExplicitOC_HL,2022.2.5,Win32,8.073370794,4.6875,3.9209,2.007,NA,NA,NA,NA,NA,happy,"unhappy, happy","less happy, more happy",NA,NA,NA,NA,NA,NA,NA,NA,NA,NA,NA,NA,NA,NA,NA,NA,NA,NA,NA,NA,NA,NA,NA,NA,NA,NA,NA,NA,NA,NA,NA,NA,NA,NA,NA,NA,NA,NA,0,0,0,0,1,NA,NA,NA,NA,NA
SUPAMT59946,3I2PTA7R3ZT4KQ6M3O0BOPY7LY2KQQ,99D5CF25-B8FF-4D40-A437-E936230674D2,2023-09-28_16h50.40.967,WP_VExplicitOC_HL,2022.2.5,Win32,8.073370794,2.1484375,2.8103,2.0672,NA,NA,NA,NA,NA,bored,"bored, not bored","more bored, less bored",NA,NA,NA,NA,NA,NA,NA,NA,NA,NA,NA,NA,NA,NA,NA,NA,NA,NA,NA,NA,NA,NA,NA,NA,NA,NA,NA,NA,NA,NA,NA,NA,NA,NA,NA,NA,NA,NA,0,1,1,2,1,NA,NA,NA,NA,NA
SUPAMT59946,3I2PTA7R3ZT4KQ6M3O0BOPY7LY2KQQ,99D5CF25-B8FF-4D40-A437-E936230674D2,2023-09-28_16h50.40.967,WP_VExplicitOC_HL,2022.2.5,Win32,8.073370794,-12.3046875,3.5791,2.0069,NA,NA,NA,NA,NA,frustrated,"frustrated, not frustrated","more frustrated, less frustrated",NA,NA,NA,NA,NA,NA,NA,NA,NA,NA,NA,NA,NA,NA,NA,NA,NA,NA,NA,NA,NA,NA,NA,NA,NA,NA,NA,NA,NA,NA,NA,NA,NA,NA,NA,NA,NA,NA,0,2,2,1,1,NA,NA,NA,NA,NA
SUPAMT59946,3I2PTA7R3ZT4KQ6M3O0BOPY7LY2KQQ,99D5CF25-B8FF-4D40-A437-E936230674D2,2023-09-28_16h50.40.967,WP_VExplicitOC_HL,2022.2.5,Win32,8.073370794,NA,NA,NA,NA,NA,NA,NA,NA,NA,NA,NA,NA,NA,NA,NA,NA,NA,NA,NA,NA,NA,NA,NA,NA,NA,NA,NA,NA,NA,NA,NA,NA,NA,NA,NA,NA,NA,NA,NA,NA,NA,NA,NA,NA,NA,NA,NA,NA,NA,NA,NA,NA,NA,NA,9,0,9,0,1
SUPAMT59946,3I2PTA7R3ZT4KQ6M3O0BOPY7LY2KQQ,99D5CF25-B8FF-4D40-A437-E936230674D2,2023-09-28_16h50.40.967,WP_VExplicitOC_HL,2022.2.5,Win32,8.073370794,9.765625,6.1177,2.0888,NA,NA,NA,NA,NA,bored,"bored, not bored","more bored, less bored",NA,NA,NA,NA,NA,NA,NA,NA,NA,NA,NA,NA,NA,NA,NA,NA,NA,NA,NA,NA,NA,NA,NA,NA,NA,NA,NA,NA,NA,NA,NA,NA,NA,NA,NA,NA,NA,NA,0,0,0,2,1,NA,NA,NA,NA,NA
SUPAMT59946,3I2PTA7R3ZT4KQ6M3O0BOPY7LY2KQQ,99D5CF25-B8FF-4D40-A437-E936230674D2,2023-09-28_16h50.40.967,WP_VExplicitOC_HL,2022.2.5,Win32,8.073370794,6.0546875,3.5719,2.0337,NA,NA,NA,NA,NA,frustrated,"frustrated, not frustrated","more frustrated, less frustrated",NA,NA,NA,NA,NA,NA,NA,NA,NA,NA,NA,NA,NA,NA,NA,NA,NA,NA,NA,NA,NA,NA,NA,NA,NA,NA,NA,NA,NA,NA,NA,NA,NA,NA,NA,NA,NA,NA,0,1,1,1,1,NA,NA,NA,NA,NA
SUPAMT59946,3I2PTA7R3ZT4KQ6M3O0BOPY7LY2KQQ,99D5CF25-B8FF-4D40-A437-E936230674D2,2023-09-28_16h50.40.967,WP_VExplicitOC_HL,2022.2.5,Win32,8.073370794,-16.2109375,5.8989,2.0512,NA,NA,NA,NA,NA,happy,"unhappy, happy","less happy, more happy",NA,NA,NA,NA,NA,NA,NA,NA,NA,NA,NA,NA,NA,NA,NA,NA,NA,NA,NA,NA,NA,NA,NA,NA,NA,NA,NA,NA,NA,NA,NA,NA,NA,NA,NA,NA,NA,NA,0,2,2,0,1,NA,NA,NA,NA,NA
SUPAMT59946,3I2PTA7R3ZT4KQ6M3O0BOPY7LY2KQQ,99D5CF25-B8FF-4D40-A437-E936230674D2,2023-09-28_16h50.40.967,WP_VExplicitOC_HL,2022.2.5,Win32,8.073370794,NA,NA,NA,NA,NA,NA,NA,NA,NA,NA,NA,NA,NA,NA,NA,NA,NA,NA,NA,NA,NA,NA,NA,NA,NA,NA,NA,NA,NA,NA,NA,NA,NA,NA,NA,NA,NA,NA,NA,NA,NA,NA,NA,NA,NA,NA,NA,NA,NA,NA,NA,NA,NA,NA,10,0,10,0,1
SUPAMT59946,3I2PTA7R3ZT4KQ6M3O0BOPY7LY2KQQ,99D5CF25-B8FF-4D40-A437-E936230674D2,2023-09-28_16h50.40.967,WP_VExplicitOC_HL,2022.2.5,Win32,8.073370794,-10.9375,3.3631,2.0784,NA,NA,NA,NA,NA,bored,"bored, not bored","more bored, less bored",NA,NA,NA,NA,NA,NA,NA,NA,NA,NA,NA,NA,NA,NA,NA,NA,NA,NA,NA,NA,NA,NA,NA,NA,NA,NA,NA,NA,NA,NA,NA,NA,NA,NA,NA,NA,NA,NA,0,0,0,2,1,NA,NA,NA,NA,NA
SUPAMT59946,3I2PTA7R3ZT4KQ6M3O0BOPY7LY2KQQ,99D5CF25-B8FF-4D40-A437-E936230674D2,2023-09-28_16h50.40.967,WP_VExplicitOC_HL,2022.2.5,Win32,8.073370794,-13.28125,4.9566,2.0874,NA,NA,NA,NA,NA,happy,"unhappy, happy","less happy, more happy",NA,NA,NA,NA,NA,NA,NA,NA,NA,NA,NA,NA,NA,NA,NA,NA,NA,NA,NA,NA,NA,NA,NA,NA,NA,NA,NA,NA,NA,NA,NA,NA,NA,NA,NA,NA,NA,NA,0,1,1,0,1,NA,NA,NA,NA,NA
SUPAMT59946,3I2PTA7R3ZT4KQ6M3O0BOPY7LY2KQQ,99D5CF25-B8FF-4D40-A437-E936230674D2,2023-09-28_16h50.40.967,WP_VExplicitOC_HL,2022.2.5,Win32,8.073370794,-11.328125,4.249,2.0006,NA,NA,NA,NA,NA,frustrated,"frustrated, not frustrated","more frustrated, less frustrated",NA,NA,NA,NA,NA,NA,NA,NA,NA,NA,NA,NA,NA,NA,NA,NA,NA,NA,NA,NA,NA,NA,NA,NA,NA,NA,NA,NA,NA,NA,NA,NA,NA,NA,NA,NA,NA,NA,0,2,2,1,1,NA,NA,NA,NA,NA
SUPAMT59946,3I2PTA7R3ZT4KQ6M3O0BOPY7LY2KQQ,99D5CF25-B8FF-4D40-A437-E936230674D2,2023-09-28_16h50.40.967,WP_VExplicitOC_HL,2022.2.5,Win32,8.073370794,NA,NA,NA,NA,NA,NA,NA,NA,NA,NA,NA,NA,NA,NA,NA,NA,NA,NA,NA,NA,NA,NA,NA,NA,NA,NA,NA,NA,NA,NA,NA,NA,NA,NA,NA,NA,NA,NA,NA,NA,NA,NA,NA,NA,NA,NA,NA,NA,NA,NA,NA,NA,NA,NA,11,0,11,0,1
SUPAMT59946,3I2PTA7R3ZT4KQ6M3O0BOPY7LY2KQQ,99D5CF25-B8FF-4D40-A437-E936230674D2,2023-09-28_16h50.40.967,WP_VExplicitOC_HL,2022.2.5,Win32,8.073370794,-2.1484375,3.0851,2.0578,NA,NA,NA,NA,NA,happy,"unhappy, happy","less happy, more happy",NA,NA,NA,NA,NA,NA,NA,NA,NA,NA,NA,NA,NA,NA,NA,NA,NA,NA,NA,NA,NA,NA,NA,NA,NA,NA,NA,NA,NA,NA,NA,NA,NA,NA,NA,NA,NA,NA,0,0,0,0,1,NA,NA,NA,NA,NA
SUPAMT59946,3I2PTA7R3ZT4KQ6M3O0BOPY7LY2KQQ,99D5CF25-B8FF-4D40-A437-E936230674D2,2023-09-28_16h50.40.967,WP_VExplicitOC_HL,2022.2.5,Win32,8.073370794,-20.8984375,4.0192,2.0983,NA,NA,NA,NA,NA,frustrated,"frustrated, not frustrated","more frustrated, less frustrated",NA,NA,NA,NA,NA,NA,NA,NA,NA,NA,NA,NA,NA,NA,NA,NA,NA,NA,NA,NA,NA,NA,NA,NA,NA,NA,NA,NA,NA,NA,NA,NA,NA,NA,NA,NA,NA,NA,0,1,1,1,1,NA,NA,NA,NA,NA
SUPAMT59946,3I2PTA7R3ZT4KQ6M3O0BOPY7LY2KQQ,99D5CF25-B8FF-4D40-A437-E936230674D2,2023-09-28_16h50.40.967,WP_VExplicitOC_HL,2022.2.5,Win32,8.073370794,-15.234375,4.5323,2.0168,NA,NA,NA,NA,NA,bored,"bored, not bored","more bored, less bored",NA,NA,NA,NA,NA,NA,NA,NA,NA,NA,NA,NA,NA,NA,NA,NA,NA,NA,NA,NA,NA,NA,NA,NA,NA,NA,NA,NA,NA,NA,NA,NA,NA,NA,NA,NA,NA,NA,0,2,2,2,1,NA,NA,NA,NA,NA
SUPAMT59946,3I2PTA7R3ZT4KQ6M3O0BOPY7LY2KQQ,99D5CF25-B8FF-4D40-A437-E936230674D2,2023-09-28_16h50.40.967,WP_VExplicitOC_HL,2022.2.5,Win32,8.073370794,NA,NA,NA,NA,NA,NA,NA,NA,NA,NA,NA,NA,NA,NA,NA,NA,NA,NA,NA,NA,NA,NA,NA,NA,NA,NA,NA,NA,NA,NA,NA,NA,NA,NA,NA,NA,NA,NA,NA,NA,NA,NA,NA,NA,NA,NA,NA,NA,NA,NA,NA,NA,NA,NA,12,0,12,0,1
SUPAMT59946,3I2PTA7R3ZT4KQ6M3O0BOPY7LY2KQQ,99D5CF25-B8FF-4D40-A437-E936230674D2,2023-09-28_16h50.40.967,WP_VExplicitOC_HL,2022.2.5,Win32,8.073370794,15.234375,5.9517,2.0395,NA,NA,NA,NA,NA,bored,"bored, not bored","more bored, less bored",NA,NA,NA,NA,NA,NA,NA,NA,NA,NA,NA,NA,NA,NA,NA,NA,NA,NA,NA,NA,NA,NA,NA,NA,NA,NA,NA,NA,NA,NA,NA,NA,NA,NA,NA,NA,NA,NA,0,0,0,2,1,NA,NA,NA,NA,NA
SUPAMT59946,3I2PTA7R3ZT4KQ6M3O0BOPY7LY2KQQ,99D5CF25-B8FF-4D40-A437-E936230674D2,2023-09-28_16h50.40.967,WP_VExplicitOC_HL,2022.2.5,Win32,8.073370794,-6.25,4.0101,2.0567,NA,NA,NA,NA,NA,happy,"unhappy, happy","less happy, more happy",NA,NA,NA,NA,NA,NA,NA,NA,NA,NA,NA,NA,NA,NA,NA,NA,NA,NA,NA,NA,NA,NA,NA,NA,NA,NA,NA,NA,NA,NA,NA,NA,NA,NA,NA,NA,NA,NA,0,1,1,0,1,NA,NA,NA,NA,NA
SUPAMT59946,3I2PTA7R3ZT4KQ6M3O0BOPY7LY2KQQ,99D5CF25-B8FF-4D40-A437-E936230674D2,2023-09-28_16h50.40.967,WP_VExplicitOC_HL,2022.2.5,Win32,8.073370794,-17.96875,4.5354,2.011,NA,NA,NA,NA,NA,frustrated,"frustrated, not frustrated","more frustrated, less frustrated",NA,NA,NA,NA,NA,NA,NA,NA,NA,NA,NA,NA,NA,NA,NA,NA,NA,NA,NA,NA,NA,NA,NA,NA,NA,NA,NA,NA,NA,NA,NA,NA,NA,NA,NA,NA,NA,NA,0,2,2,1,1,NA,NA,NA,NA,NA
SUPAMT59946,3I2PTA7R3ZT4KQ6M3O0BOPY7LY2KQQ,99D5CF25-B8FF-4D40-A437-E936230674D2,2023-09-28_16h50.40.967,WP_VExplicitOC_HL,2022.2.5,Win32,8.073370794,NA,NA,NA,NA,NA,NA,NA,NA,NA,NA,NA,NA,NA,NA,NA,NA,NA,NA,NA,NA,NA,NA,NA,NA,NA,NA,NA,NA,NA,NA,NA,NA,NA,NA,NA,NA,NA,NA,NA,NA,NA,NA,NA,NA,NA,NA,NA,NA,NA,NA,NA,NA,NA,NA,13,0,13,0,1
SUPAMT59946,3I2PTA7R3ZT4KQ6M3O0BOPY7LY2KQQ,99D5CF25-B8FF-4D40-A437-E936230674D2,2023-09-28_16h50.40.967,WP_VExplicitOC_HL,2022.2.5,Win32,8.073370794,-24.4140625,3.5661,2.0645,NA,NA,NA,NA,NA,frustrated,"frustrated, not frustrated","more frustrated, less frustrated",NA,NA,NA,NA,NA,NA,NA,NA,NA,NA,NA,NA,NA,NA,NA,NA,NA,NA,NA,NA,NA,NA,NA,NA,NA,NA,NA,NA,NA,NA,NA,NA,NA,NA,NA,NA,NA,NA,0,0,0,1,1,NA,NA,NA,NA,NA
SUPAMT59946,3I2PTA7R3ZT4KQ6M3O0BOPY7LY2KQQ,99D5CF25-B8FF-4D40-A437-E936230674D2,2023-09-28_16h50.40.967,WP_VExplicitOC_HL,2022.2.5,Win32,8.073370794,-7.421875,3.1617,2.0489,NA,NA,NA,NA,NA,happy,"unhappy, happy","less happy, more happy",NA,NA,NA,NA,NA,NA,NA,NA,NA,NA,NA,NA,NA,NA,NA,NA,NA,NA,NA,NA,NA,NA,NA,NA,NA,NA,NA,NA,NA,NA,NA,NA,NA,NA,NA,NA,NA,NA,0,1,1,0,1,NA,NA,NA,NA,NA
SUPAMT59946,3I2PTA7R3ZT4KQ6M3O0BOPY7LY2KQQ,99D5CF25-B8FF-4D40-A437-E936230674D2,2023-09-28_16h50.40.967,WP_VExplicitOC_HL,2022.2.5,Win32,8.073370794,-14.6484375,4.7553,2.0604,NA,NA,NA,NA,NA,bored,"bored, not bored","more bored, less bored",NA,NA,NA,NA,NA,NA,NA,NA,NA,NA,NA,NA,NA,NA,NA,NA,NA,NA,NA,NA,NA,NA,NA,NA,NA,NA,NA,NA,NA,NA,NA,NA,NA,NA,NA,NA,NA,NA,0,2,2,2,1,NA,NA,NA,NA,NA
SUPAMT59946,3I2PTA7R3ZT4KQ6M3O0BOPY7LY2KQQ,99D5CF25-B8FF-4D40-A437-E936230674D2,2023-09-28_16h50.40.967,WP_VExplicitOC_HL,2022.2.5,Win32,8.073370794,NA,NA,NA,NA,NA,NA,NA,NA,NA,NA,NA,NA,NA,NA,NA,NA,NA,NA,NA,NA,NA,NA,NA,NA,NA,NA,NA,NA,NA,NA,NA,NA,NA,NA,NA,NA,NA,NA,NA,NA,NA,NA,NA,NA,NA,NA,NA,NA,NA,NA,NA,NA,NA,NA,14,0,14,0,1
SUPAMT59946,3I2PTA7R3ZT4KQ6M3O0BOPY7LY2KQQ,99D5CF25-B8FF-4D40-A437-E936230674D2,2023-09-28_16h50.40.967,WP_VExplicitOC_HL,2022.2.5,Win32,8.073370794,NA,NA,NA,NA,NA,NA,NA,NA,NA,NA,NA,NA,NA,NA,NA,NA,NA,NA,NA,NA,NA,NA,NA,NA,NA,NA,NA,NA,NA,NA,NA,NA,NA,NA,NA,NA,NA,NA,NA,NA,NA,NA,NA,NA,NA,NA,NA,NA,NA,NA,NA,NA,NA,NA,NA,NA,NA,NA,NA
