participant,session,completion,date,expName,psychopyVersion,OS,frameRate,rating_all.response,rating_all.rt,rating_all.tStart,rndRat1.thisRepN,rndRat1.thisTrialN,rndRat1.thisN,rndRat1.thisIndex,rndRat1.ran,Emo,Labs,Labs2,rating_alt.response,rating_alt.rt,AltC.thisRepN,AltC.thisTrialN,AltC.thisN,AltC.thisIndex,AltC.ran,alt_choices,pic_choices,BottomAlt_Choice,rndRat2.thisRepN,rndRat2.thisTrialN,rndRat2.thisN,rndRat2.thisIndex,rndRat2.ran,rndRat3.thisRepN,rndRat3.thisTrialN,rndRat3.thisN,rndRat3.thisIndex,rndRat3.ran,trials_FC_L.thisRepN,trials_FC_L.thisTrialN,trials_FC_L.thisN,trials_FC_L.thisIndex,trials_FC_L.ran,rating_alt_2.response,rating_alt_2.rt,AltC2.thisRepN,AltC2.thisTrialN,AltC2.thisN,AltC2.thisIndex,AltC2.ran,TopAlt_Choice,rndRat4.thisRepN,rndRat4.thisTrialN,rndRat4.thisN,rndRat4.thisIndex,rndRat4.ran,rndRat5.thisRepN,rndRat5.thisTrialN,rndRat5.thisN,rndRat5.thisIndex,rndRat5.ran,trials_FC_H.thisRepN,trials_FC_H.thisTrialN,trials_FC_H.thisN,trials_FC_H.thisIndex,trials_FC_H.ran
SUPAMT61143,378XPAWRUICLRF9HEPIDL94PPCTAI0,38FC5CA0-5E00-48F4-BF15-6308AB52050D,2023-09-28_16h40.04.010,WP_VExplicitOC_LH,2022.2.5,Win32,10.4908677,NA,NA,NA,NA,NA,NA,NA,NA,NA,NA,NA,NA,NA,NA,NA,NA,NA,NA,NA,NA,NA,NA,NA,NA,NA,NA,NA,NA,NA,NA,NA,NA,NA,NA,NA,NA,NA,NA,NA,NA,NA,NA,NA,NA,NA,NA,NA,NA,NA,NA,NA,NA,NA,NA,NA,NA,NA,NA,NA
SUPAMT61143,378XPAWRUICLRF9HEPIDL94PPCTAI0,38FC5CA0-5E00-48F4-BF15-6308AB52050D,2023-09-28_16h40.04.010,WP_VExplicitOC_LH,2022.2.5,Win32,10.4908677,NA,NA,NA,NA,NA,NA,NA,NA,NA,NA,NA,NA,NA,NA,NA,NA,NA,NA,NA,NA,NA,NA,NA,NA,NA,NA,NA,NA,NA,NA,NA,NA,NA,NA,NA,NA,NA,NA,NA,NA,NA,NA,NA,NA,NA,NA,NA,NA,NA,NA,NA,NA,NA,NA,NA,NA,NA,NA,NA
SUPAMT61143,378XPAWRUICLRF9HEPIDL94PPCTAI0,38FC5CA0-5E00-48F4-BF15-6308AB52050D,2023-09-28_16h40.04.010,WP_VExplicitOC_LH,2022.2.5,Win32,10.4908677,NA,NA,NA,NA,NA,NA,NA,NA,NA,NA,NA,NA,NA,NA,NA,NA,NA,NA,NA,NA,NA,NA,NA,NA,NA,NA,NA,NA,NA,NA,NA,NA,NA,NA,NA,NA,NA,NA,NA,NA,NA,NA,NA,NA,NA,NA,NA,NA,NA,NA,NA,NA,NA,NA,NA,NA,NA,NA,NA
SUPAMT61143,378XPAWRUICLRF9HEPIDL94PPCTAI0,38FC5CA0-5E00-48F4-BF15-6308AB52050D,2023-09-28_16h40.04.010,WP_VExplicitOC_LH,2022.2.5,Win32,10.4908677,33.984375,5.1874,2.0718,0,0,0,0,1,happy,"unhappy, happy","less happy, more happy",NA,NA,NA,NA,NA,NA,NA,NA,NA,NA,NA,NA,NA,NA,NA,NA,NA,NA,NA,NA,NA,NA,NA,NA,NA,NA,NA,NA,NA,NA,NA,NA,NA,NA,NA,NA,NA,NA,NA,NA,NA,NA,NA,NA,NA,NA,NA,NA
SUPAMT61143,378XPAWRUICLRF9HEPIDL94PPCTAI0,38FC5CA0-5E00-48F4-BF15-6308AB52050D,2023-09-28_16h40.04.010,WP_VExplicitOC_LH,2022.2.5,Win32,10.4908677,45.1171875,3.9053,2.0983,0,1,1,1,1,frustrated,"frustrated, not frustrated","more frustrated, less frustrated",NA,NA,NA,NA,NA,NA,NA,NA,NA,NA,NA,NA,NA,NA,NA,NA,NA,NA,NA,NA,NA,NA,NA,NA,NA,NA,NA,NA,NA,NA,NA,NA,NA,NA,NA,NA,NA,NA,NA,NA,NA,NA,NA,NA,NA,NA,NA,NA
SUPAMT61143,378XPAWRUICLRF9HEPIDL94PPCTAI0,38FC5CA0-5E00-48F4-BF15-6308AB52050D,2023-09-28_16h40.04.010,WP_VExplicitOC_LH,2022.2.5,Win32,10.4908677,35.7421875,4.1561,2.0052,0,2,2,2,1,bored,"bored, not bored","more bored, less bored",NA,NA,NA,NA,NA,NA,NA,NA,NA,NA,NA,NA,NA,NA,NA,NA,NA,NA,NA,NA,NA,NA,NA,NA,NA,NA,NA,NA,NA,NA,NA,NA,NA,NA,NA,NA,NA,NA,NA,NA,NA,NA,NA,NA,NA,NA,NA,NA
SUPAMT61143,378XPAWRUICLRF9HEPIDL94PPCTAI0,38FC5CA0-5E00-48F4-BF15-6308AB52050D,2023-09-28_16h40.04.010,WP_VExplicitOC_LH,2022.2.5,Win32,10.4908677,NA,NA,NA,NA,NA,NA,NA,NA,NA,NA,NA,NA,NA,NA,NA,NA,NA,NA,NA,NA,NA,NA,NA,NA,NA,NA,NA,NA,NA,NA,NA,NA,NA,NA,NA,NA,NA,NA,NA,NA,NA,NA,NA,NA,NA,NA,NA,NA,NA,NA,NA,NA,NA,NA,NA,NA,NA,NA,NA
SUPAMT61143,378XPAWRUICLRF9HEPIDL94PPCTAI0,38FC5CA0-5E00-48F4-BF15-6308AB52050D,2023-09-28_16h40.04.010,WP_VExplicitOC_LH,2022.2.5,Win32,10.4908677,NA,NA,NA,NA,NA,NA,NA,NA,NA,NA,NA,NA,NA,NA,NA,NA,NA,NA,NA,NA,NA,NA,NA,NA,NA,NA,NA,NA,NA,NA,NA,NA,NA,NA,NA,NA,NA,NA,NA,NA,NA,NA,NA,NA,NA,NA,NA,NA,NA,NA,NA,NA,NA,NA,NA,NA,NA,NA,NA
SUPAMT61143,378XPAWRUICLRF9HEPIDL94PPCTAI0,38FC5CA0-5E00-48F4-BF15-6308AB52050D,2023-09-28_16h40.04.010,WP_VExplicitOC_LH,2022.2.5,Win32,10.4908677,NA,NA,NA,NA,NA,NA,NA,NA,NA,NA,NA,NA,NA,NA,NA,NA,NA,NA,NA,NA,NA,NA,NA,NA,NA,NA,NA,NA,NA,NA,NA,NA,NA,NA,NA,NA,NA,NA,NA,NA,NA,NA,NA,NA,NA,NA,NA,NA,NA,NA,NA,NA,NA,NA,NA,NA,NA,NA,NA
SUPAMT61143,378XPAWRUICLRF9HEPIDL94PPCTAI0,38FC5CA0-5E00-48F4-BF15-6308AB52050D,2023-09-28_16h40.04.010,WP_VExplicitOC_LH,2022.2.5,Win32,10.4908677,NA,NA,NA,NA,NA,NA,NA,NA,NA,NA,NA,NA,NA,NA,NA,NA,NA,NA,NA,NA,NA,NA,NA,NA,NA,NA,NA,NA,NA,NA,NA,NA,NA,NA,NA,NA,NA,NA,NA,NA,NA,NA,NA,NA,NA,NA,NA,NA,NA,NA,NA,NA,NA,NA,NA,NA,NA,NA,NA
SUPAMT61143,378XPAWRUICLRF9HEPIDL94PPCTAI0,38FC5CA0-5E00-48F4-BF15-6308AB52050D,2023-09-28_16h40.04.010,WP_VExplicitOC_LH,2022.2.5,Win32,10.4908677,NA,NA,NA,NA,NA,NA,NA,NA,NA,NA,NA,31.25,4.7989,0,0,0,0,1,rest (looking at a fixed cross),001.png,NA,NA,NA,NA,NA,NA,NA,NA,NA,NA,NA,NA,NA,NA,NA,NA,NA,NA,NA,NA,NA,NA,NA,NA,NA,NA,NA,NA,NA,NA,NA,NA,NA,NA,NA,NA,NA,NA,NA
SUPAMT61143,378XPAWRUICLRF9HEPIDL94PPCTAI0,38FC5CA0-5E00-48F4-BF15-6308AB52050D,2023-09-28_16h40.04.010,WP_VExplicitOC_LH,2022.2.5,Win32,10.4908677,NA,NA,NA,NA,NA,NA,NA,NA,NA,NA,NA,21.875,2.1528,0,1,1,1,1,stand up,002.png,NA,NA,NA,NA,NA,NA,NA,NA,NA,NA,NA,NA,NA,NA,NA,NA,NA,NA,NA,NA,NA,NA,NA,NA,NA,NA,NA,NA,NA,NA,NA,NA,NA,NA,NA,NA,NA,NA,NA
SUPAMT61143,378XPAWRUICLRF9HEPIDL94PPCTAI0,38FC5CA0-5E00-48F4-BF15-6308AB52050D,2023-09-28_16h40.04.010,WP_VExplicitOC_LH,2022.2.5,Win32,10.4908677,NA,NA,NA,NA,NA,NA,NA,NA,NA,NA,NA,-33.59375,2.0624,0,2,2,2,1,stretch,003.png,NA,NA,NA,NA,NA,NA,NA,NA,NA,NA,NA,NA,NA,NA,NA,NA,NA,NA,NA,NA,NA,NA,NA,NA,NA,NA,NA,NA,NA,NA,NA,NA,NA,NA,NA,NA,NA,NA,NA
SUPAMT61143,378XPAWRUICLRF9HEPIDL94PPCTAI0,38FC5CA0-5E00-48F4-BF15-6308AB52050D,2023-09-28_16h40.04.010,WP_VExplicitOC_LH,2022.2.5,Win32,10.4908677,NA,NA,NA,NA,NA,NA,NA,NA,NA,NA,NA,66.6015625,2.2203,0,3,3,3,1,make a drink,004.png,NA,NA,NA,NA,NA,NA,NA,NA,NA,NA,NA,NA,NA,NA,NA,NA,NA,NA,NA,NA,NA,NA,NA,NA,NA,NA,NA,NA,NA,NA,NA,NA,NA,NA,NA,NA,NA,NA,NA
SUPAMT61143,378XPAWRUICLRF9HEPIDL94PPCTAI0,38FC5CA0-5E00-48F4-BF15-6308AB52050D,2023-09-28_16h40.04.010,WP_VExplicitOC_LH,2022.2.5,Win32,10.4908677,NA,NA,NA,NA,NA,NA,NA,NA,NA,NA,NA,51.171875,1.8668,0,4,4,4,1,scroll social media,005.png,NA,NA,NA,NA,NA,NA,NA,NA,NA,NA,NA,NA,NA,NA,NA,NA,NA,NA,NA,NA,NA,NA,NA,NA,NA,NA,NA,NA,NA,NA,NA,NA,NA,NA,NA,NA,NA,NA,NA
SUPAMT61143,378XPAWRUICLRF9HEPIDL94PPCTAI0,38FC5CA0-5E00-48F4-BF15-6308AB52050D,2023-09-28_16h40.04.010,WP_VExplicitOC_LH,2022.2.5,Win32,10.4908677,NA,NA,NA,NA,NA,NA,NA,NA,NA,NA,NA,34.375,1.742,0,5,5,5,1,listen to music,006.png,NA,NA,NA,NA,NA,NA,NA,NA,NA,NA,NA,NA,NA,NA,NA,NA,NA,NA,NA,NA,NA,NA,NA,NA,NA,NA,NA,NA,NA,NA,NA,NA,NA,NA,NA,NA,NA,NA,NA
SUPAMT61143,378XPAWRUICLRF9HEPIDL94PPCTAI0,38FC5CA0-5E00-48F4-BF15-6308AB52050D,2023-09-28_16h40.04.010,WP_VExplicitOC_LH,2022.2.5,Win32,10.4908677,NA,NA,NA,NA,NA,NA,NA,NA,NA,NA,NA,-20.5078125,1.9386,0,6,6,6,1,daydream,007.png,NA,NA,NA,NA,NA,NA,NA,NA,NA,NA,NA,NA,NA,NA,NA,NA,NA,NA,NA,NA,NA,NA,NA,NA,NA,NA,NA,NA,NA,NA,NA,NA,NA,NA,NA,NA,NA,NA,NA
SUPAMT61143,378XPAWRUICLRF9HEPIDL94PPCTAI0,38FC5CA0-5E00-48F4-BF15-6308AB52050D,2023-09-28_16h40.04.010,WP_VExplicitOC_LH,2022.2.5,Win32,10.4908677,NA,NA,NA,NA,NA,NA,NA,NA,NA,NA,NA,22.0703125,1.7262,0,7,7,7,1,watch a short animation,008.png,NA,NA,NA,NA,NA,NA,NA,NA,NA,NA,NA,NA,NA,NA,NA,NA,NA,NA,NA,NA,NA,NA,NA,NA,NA,NA,NA,NA,NA,NA,NA,NA,NA,NA,NA,NA,NA,NA,NA
SUPAMT61143,378XPAWRUICLRF9HEPIDL94PPCTAI0,38FC5CA0-5E00-48F4-BF15-6308AB52050D,2023-09-28_16h40.04.010,WP_VExplicitOC_LH,2022.2.5,Win32,10.4908677,NA,NA,NA,NA,NA,NA,NA,NA,NA,NA,NA,38.671875,1.8673,0,8,8,8,1,read a novel,009.png,NA,NA,NA,NA,NA,NA,NA,NA,NA,NA,NA,NA,NA,NA,NA,NA,NA,NA,NA,NA,NA,NA,NA,NA,NA,NA,NA,NA,NA,NA,NA,NA,NA,NA,NA,NA,NA,NA,NA
SUPAMT61143,378XPAWRUICLRF9HEPIDL94PPCTAI0,38FC5CA0-5E00-48F4-BF15-6308AB52050D,2023-09-28_16h40.04.010,WP_VExplicitOC_LH,2022.2.5,Win32,10.4908677,NA,NA,NA,NA,NA,NA,NA,NA,NA,NA,NA,47.8515625,1.7415,0,9,9,9,1,read the news,010.png,NA,NA,NA,NA,NA,NA,NA,NA,NA,NA,NA,NA,NA,NA,NA,NA,NA,NA,NA,NA,NA,NA,NA,NA,NA,NA,NA,NA,NA,NA,NA,NA,NA,NA,NA,NA,NA,NA,NA
SUPAMT61143,378XPAWRUICLRF9HEPIDL94PPCTAI0,38FC5CA0-5E00-48F4-BF15-6308AB52050D,2023-09-28_16h40.04.010,WP_VExplicitOC_LH,2022.2.5,Win32,10.4908677,NA,NA,NA,NA,NA,NA,NA,NA,NA,NA,NA,NA,NA,NA,NA,NA,NA,NA,NA,NA,NA,NA,NA,NA,NA,NA,NA,NA,NA,NA,NA,NA,NA,NA,NA,NA,NA,NA,NA,NA,NA,NA,NA,NA,NA,NA,NA,NA,NA,NA,NA,NA,NA,NA,NA,NA,NA,NA,NA
SUPAMT61143,378XPAWRUICLRF9HEPIDL94PPCTAI0,38FC5CA0-5E00-48F4-BF15-6308AB52050D,2023-09-28_16h40.04.010,WP_VExplicitOC_LH,2022.2.5,Win32,10.4908677,NA,NA,NA,NA,NA,NA,NA,NA,NA,NA,NA,NA,NA,NA,NA,NA,NA,NA,NA,NA,stretch,NA,NA,NA,NA,NA,NA,NA,NA,NA,NA,NA,NA,NA,NA,NA,NA,NA,NA,NA,NA,NA,NA,NA,NA,NA,NA,NA,NA,NA,NA,NA,NA,NA,NA,NA,NA,NA,NA
SUPAMT61143,378XPAWRUICLRF9HEPIDL94PPCTAI0,38FC5CA0-5E00-48F4-BF15-6308AB52050D,2023-09-28_16h40.04.010,WP_VExplicitOC_LH,2022.2.5,Win32,10.4908677,50.390625,3.9444,2.032,NA,NA,NA,NA,NA,frustrated,"frustrated, not frustrated","more frustrated, less frustrated",NA,NA,NA,NA,NA,NA,NA,NA,NA,NA,0,0,0,1,1,NA,NA,NA,NA,NA,NA,NA,NA,NA,NA,NA,NA,NA,NA,NA,NA,NA,NA,NA,NA,NA,NA,NA,NA,NA,NA,NA,NA,NA,NA,NA,NA,NA
SUPAMT61143,378XPAWRUICLRF9HEPIDL94PPCTAI0,38FC5CA0-5E00-48F4-BF15-6308AB52050D,2023-09-28_16h40.04.010,WP_VExplicitOC_LH,2022.2.5,Win32,10.4908677,19.140625,3.3591,2.0761,NA,NA,NA,NA,NA,happy,"unhappy, happy","less happy, more happy",NA,NA,NA,NA,NA,NA,NA,NA,NA,NA,0,1,1,0,1,NA,NA,NA,NA,NA,NA,NA,NA,NA,NA,NA,NA,NA,NA,NA,NA,NA,NA,NA,NA,NA,NA,NA,NA,NA,NA,NA,NA,NA,NA,NA,NA,NA
SUPAMT61143,378XPAWRUICLRF9HEPIDL94PPCTAI0,38FC5CA0-5E00-48F4-BF15-6308AB52050D,2023-09-28_16h40.04.010,WP_VExplicitOC_LH,2022.2.5,Win32,10.4908677,-3.7109375,3.521,2.003,NA,NA,NA,NA,NA,bored,"bored, not bored","more bored, less bored",NA,NA,NA,NA,NA,NA,NA,NA,NA,NA,0,2,2,2,1,NA,NA,NA,NA,NA,NA,NA,NA,NA,NA,NA,NA,NA,NA,NA,NA,NA,NA,NA,NA,NA,NA,NA,NA,NA,NA,NA,NA,NA,NA,NA,NA,NA
SUPAMT61143,378XPAWRUICLRF9HEPIDL94PPCTAI0,38FC5CA0-5E00-48F4-BF15-6308AB52050D,2023-09-28_16h40.04.010,WP_VExplicitOC_LH,2022.2.5,Win32,10.4908677,NA,NA,NA,NA,NA,NA,NA,NA,NA,NA,NA,NA,NA,NA,NA,NA,NA,NA,NA,NA,NA,NA,NA,NA,NA,NA,NA,NA,NA,NA,NA,NA,NA,NA,NA,NA,NA,NA,NA,NA,NA,NA,NA,NA,NA,NA,NA,NA,NA,NA,NA,NA,NA,NA,NA,NA,NA,NA,NA
SUPAMT61143,378XPAWRUICLRF9HEPIDL94PPCTAI0,38FC5CA0-5E00-48F4-BF15-6308AB52050D,2023-09-28_16h40.04.010,WP_VExplicitOC_LH,2022.2.5,Win32,10.4908677,NA,NA,NA,NA,NA,NA,NA,NA,NA,NA,NA,NA,NA,NA,NA,NA,NA,NA,NA,NA,NA,NA,NA,NA,NA,NA,NA,NA,NA,NA,NA,NA,NA,NA,NA,NA,NA,NA,NA,NA,NA,NA,NA,NA,NA,NA,NA,NA,NA,NA,NA,NA,NA,NA,NA,NA,NA,NA,NA
SUPAMT61143,378XPAWRUICLRF9HEPIDL94PPCTAI0,38FC5CA0-5E00-48F4-BF15-6308AB52050D,2023-09-28_16h40.04.010,WP_VExplicitOC_LH,2022.2.5,Win32,10.4908677,NA,NA,2.0165,NA,NA,NA,NA,NA,bored,"bored, not bored","more bored, less bored",NA,NA,NA,NA,NA,NA,NA,NA,NA,NA,NA,NA,NA,NA,NA,0,0,0,2,1,NA,NA,NA,NA,NA,NA,NA,NA,NA,NA,NA,NA,NA,NA,NA,NA,NA,NA,NA,NA,NA,NA,NA,NA,NA,NA,NA,NA
SUPAMT61143,378XPAWRUICLRF9HEPIDL94PPCTAI0,38FC5CA0-5E00-48F4-BF15-6308AB52050D,2023-09-28_16h40.04.010,WP_VExplicitOC_LH,2022.2.5,Win32,10.4908677,NA,NA,2.0979,NA,NA,NA,NA,NA,happy,"unhappy, happy","less happy, more happy",NA,NA,NA,NA,NA,NA,NA,NA,NA,NA,NA,NA,NA,NA,NA,0,1,1,0,1,NA,NA,NA,NA,NA,NA,NA,NA,NA,NA,NA,NA,NA,NA,NA,NA,NA,NA,NA,NA,NA,NA,NA,NA,NA,NA,NA,NA
SUPAMT61143,378XPAWRUICLRF9HEPIDL94PPCTAI0,38FC5CA0-5E00-48F4-BF15-6308AB52050D,2023-09-28_16h40.04.010,WP_VExplicitOC_LH,2022.2.5,Win32,10.4908677,NA,NA,2.0819,NA,NA,NA,NA,NA,frustrated,"frustrated, not frustrated","more frustrated, less frustrated",NA,NA,NA,NA,NA,NA,NA,NA,NA,NA,NA,NA,NA,NA,NA,0,2,2,1,1,NA,NA,NA,NA,NA,NA,NA,NA,NA,NA,NA,NA,NA,NA,NA,NA,NA,NA,NA,NA,NA,NA,NA,NA,NA,NA,NA,NA
SUPAMT61143,378XPAWRUICLRF9HEPIDL94PPCTAI0,38FC5CA0-5E00-48F4-BF15-6308AB52050D,2023-09-28_16h40.04.010,WP_VExplicitOC_LH,2022.2.5,Win32,10.4908677,NA,NA,NA,NA,NA,NA,NA,NA,NA,NA,NA,NA,NA,NA,NA,NA,NA,NA,NA,NA,NA,NA,NA,NA,NA,NA,NA,NA,NA,NA,NA,0,0,0,0,1,NA,NA,NA,NA,NA,NA,NA,NA,NA,NA,NA,NA,NA,NA,NA,NA,NA,NA,NA,NA,NA,NA,NA
SUPAMT61143,378XPAWRUICLRF9HEPIDL94PPCTAI0,38FC5CA0-5E00-48F4-BF15-6308AB52050D,2023-09-28_16h40.04.010,WP_VExplicitOC_LH,2022.2.5,Win32,10.4908677,-29.8828125,6.7486,2.0443,NA,NA,NA,NA,NA,frustrated,"frustrated, not frustrated","more frustrated, less frustrated",NA,NA,NA,NA,NA,NA,NA,NA,NA,NA,NA,NA,NA,NA,NA,0,0,0,1,1,NA,NA,NA,NA,NA,NA,NA,NA,NA,NA,NA,NA,NA,NA,NA,NA,NA,NA,NA,NA,NA,NA,NA,NA,NA,NA,NA,NA
SUPAMT61143,378XPAWRUICLRF9HEPIDL94PPCTAI0,38FC5CA0-5E00-48F4-BF15-6308AB52050D,2023-09-28_16h40.04.010,WP_VExplicitOC_LH,2022.2.5,Win32,10.4908677,-15.8203125,4.2633,2.0784,NA,NA,NA,NA,NA,happy,"unhappy, happy","less happy, more happy",NA,NA,NA,NA,NA,NA,NA,NA,NA,NA,NA,NA,NA,NA,NA,0,1,1,0,1,NA,NA,NA,NA,NA,NA,NA,NA,NA,NA,NA,NA,NA,NA,NA,NA,NA,NA,NA,NA,NA,NA,NA,NA,NA,NA,NA,NA
SUPAMT61143,378XPAWRUICLRF9HEPIDL94PPCTAI0,38FC5CA0-5E00-48F4-BF15-6308AB52050D,2023-09-28_16h40.04.010,WP_VExplicitOC_LH,2022.2.5,Win32,10.4908677,-21.09375,4.6524,2.0681,NA,NA,NA,NA,NA,bored,"bored, not bored","more bored, less bored",NA,NA,NA,NA,NA,NA,NA,NA,NA,NA,NA,NA,NA,NA,NA,0,2,2,2,1,NA,NA,NA,NA,NA,NA,NA,NA,NA,NA,NA,NA,NA,NA,NA,NA,NA,NA,NA,NA,NA,NA,NA,NA,NA,NA,NA,NA
SUPAMT61143,378XPAWRUICLRF9HEPIDL94PPCTAI0,38FC5CA0-5E00-48F4-BF15-6308AB52050D,2023-09-28_16h40.04.010,WP_VExplicitOC_LH,2022.2.5,Win32,10.4908677,NA,NA,NA,NA,NA,NA,NA,NA,NA,NA,NA,NA,NA,NA,NA,NA,NA,NA,NA,NA,NA,NA,NA,NA,NA,NA,NA,NA,NA,NA,NA,1,0,1,0,1,NA,NA,NA,NA,NA,NA,NA,NA,NA,NA,NA,NA,NA,NA,NA,NA,NA,NA,NA,NA,NA,NA,NA
SUPAMT61143,378XPAWRUICLRF9HEPIDL94PPCTAI0,38FC5CA0-5E00-48F4-BF15-6308AB52050D,2023-09-28_16h40.04.010,WP_VExplicitOC_LH,2022.2.5,Win32,10.4908677,17.3828125,4.1824,2.0663,NA,NA,NA,NA,NA,bored,"bored, not bored","more bored, less bored",NA,NA,NA,NA,NA,NA,NA,NA,NA,NA,NA,NA,NA,NA,NA,0,0,0,2,1,NA,NA,NA,NA,NA,NA,NA,NA,NA,NA,NA,NA,NA,NA,NA,NA,NA,NA,NA,NA,NA,NA,NA,NA,NA,NA,NA,NA
SUPAMT61143,378XPAWRUICLRF9HEPIDL94PPCTAI0,38FC5CA0-5E00-48F4-BF15-6308AB52050D,2023-09-28_16h40.04.010,WP_VExplicitOC_LH,2022.2.5,Win32,10.4908677,35.15625,4.5138,2.0274,NA,NA,NA,NA,NA,frustrated,"frustrated, not frustrated","more frustrated, less frustrated",NA,NA,NA,NA,NA,NA,NA,NA,NA,NA,NA,NA,NA,NA,NA,0,1,1,1,1,NA,NA,NA,NA,NA,NA,NA,NA,NA,NA,NA,NA,NA,NA,NA,NA,NA,NA,NA,NA,NA,NA,NA,NA,NA,NA,NA,NA
SUPAMT61143,378XPAWRUICLRF9HEPIDL94PPCTAI0,38FC5CA0-5E00-48F4-BF15-6308AB52050D,2023-09-28_16h40.04.010,WP_VExplicitOC_LH,2022.2.5,Win32,10.4908677,28.7109375,3.748,2.018,NA,NA,NA,NA,NA,happy,"unhappy, happy","less happy, more happy",NA,NA,NA,NA,NA,NA,NA,NA,NA,NA,NA,NA,NA,NA,NA,0,2,2,0,1,NA,NA,NA,NA,NA,NA,NA,NA,NA,NA,NA,NA,NA,NA,NA,NA,NA,NA,NA,NA,NA,NA,NA,NA,NA,NA,NA,NA
SUPAMT61143,378XPAWRUICLRF9HEPIDL94PPCTAI0,38FC5CA0-5E00-48F4-BF15-6308AB52050D,2023-09-28_16h40.04.010,WP_VExplicitOC_LH,2022.2.5,Win32,10.4908677,NA,NA,NA,NA,NA,NA,NA,NA,NA,NA,NA,NA,NA,NA,NA,NA,NA,NA,NA,NA,NA,NA,NA,NA,NA,NA,NA,NA,NA,NA,NA,2,0,2,0,1,NA,NA,NA,NA,NA,NA,NA,NA,NA,NA,NA,NA,NA,NA,NA,NA,NA,NA,NA,NA,NA,NA,NA
SUPAMT61143,378XPAWRUICLRF9HEPIDL94PPCTAI0,38FC5CA0-5E00-48F4-BF15-6308AB52050D,2023-09-28_16h40.04.010,WP_VExplicitOC_LH,2022.2.5,Win32,10.4908677,-29.296875,6.1581,2.0423,NA,NA,NA,NA,NA,frustrated,"frustrated, not frustrated","more frustrated, less frustrated",NA,NA,NA,NA,NA,NA,NA,NA,NA,NA,NA,NA,NA,NA,NA,0,0,0,1,1,NA,NA,NA,NA,NA,NA,NA,NA,NA,NA,NA,NA,NA,NA,NA,NA,NA,NA,NA,NA,NA,NA,NA,NA,NA,NA,NA,NA
SUPAMT61143,378XPAWRUICLRF9HEPIDL94PPCTAI0,38FC5CA0-5E00-48F4-BF15-6308AB52050D,2023-09-28_16h40.04.010,WP_VExplicitOC_LH,2022.2.5,Win32,10.4908677,-18.9453125,3.6455,2.0759,NA,NA,NA,NA,NA,bored,"bored, not bored","more bored, less bored",NA,NA,NA,NA,NA,NA,NA,NA,NA,NA,NA,NA,NA,NA,NA,0,1,1,2,1,NA,NA,NA,NA,NA,NA,NA,NA,NA,NA,NA,NA,NA,NA,NA,NA,NA,NA,NA,NA,NA,NA,NA,NA,NA,NA,NA,NA
SUPAMT61143,378XPAWRUICLRF9HEPIDL94PPCTAI0,38FC5CA0-5E00-48F4-BF15-6308AB52050D,2023-09-28_16h40.04.010,WP_VExplicitOC_LH,2022.2.5,Win32,10.4908677,29.1015625,4.0373,2.0288,NA,NA,NA,NA,NA,happy,"unhappy, happy","less happy, more happy",NA,NA,NA,NA,NA,NA,NA,NA,NA,NA,NA,NA,NA,NA,NA,0,2,2,0,1,NA,NA,NA,NA,NA,NA,NA,NA,NA,NA,NA,NA,NA,NA,NA,NA,NA,NA,NA,NA,NA,NA,NA,NA,NA,NA,NA,NA
SUPAMT61143,378XPAWRUICLRF9HEPIDL94PPCTAI0,38FC5CA0-5E00-48F4-BF15-6308AB52050D,2023-09-28_16h40.04.010,WP_VExplicitOC_LH,2022.2.5,Win32,10.4908677,NA,NA,NA,NA,NA,NA,NA,NA,NA,NA,NA,NA,NA,NA,NA,NA,NA,NA,NA,NA,NA,NA,NA,NA,NA,NA,NA,NA,NA,NA,NA,3,0,3,0,1,NA,NA,NA,NA,NA,NA,NA,NA,NA,NA,NA,NA,NA,NA,NA,NA,NA,NA,NA,NA,NA,NA,NA
SUPAMT61143,378XPAWRUICLRF9HEPIDL94PPCTAI0,38FC5CA0-5E00-48F4-BF15-6308AB52050D,2023-09-28_16h40.04.010,WP_VExplicitOC_LH,2022.2.5,Win32,10.4908677,26.3671875,4.4642,2.0222,NA,NA,NA,NA,NA,frustrated,"frustrated, not frustrated","more frustrated, less frustrated",NA,NA,NA,NA,NA,NA,NA,NA,NA,NA,NA,NA,NA,NA,NA,0,0,0,1,1,NA,NA,NA,NA,NA,NA,NA,NA,NA,NA,NA,NA,NA,NA,NA,NA,NA,NA,NA,NA,NA,NA,NA,NA,NA,NA,NA,NA
SUPAMT61143,378XPAWRUICLRF9HEPIDL94PPCTAI0,38FC5CA0-5E00-48F4-BF15-6308AB52050D,2023-09-28_16h40.04.010,WP_VExplicitOC_LH,2022.2.5,Win32,10.4908677,15.4296875,3.8825,2.0386,NA,NA,NA,NA,NA,happy,"unhappy, happy","less happy, more happy",NA,NA,NA,NA,NA,NA,NA,NA,NA,NA,NA,NA,NA,NA,NA,0,1,1,0,1,NA,NA,NA,NA,NA,NA,NA,NA,NA,NA,NA,NA,NA,NA,NA,NA,NA,NA,NA,NA,NA,NA,NA,NA,NA,NA,NA,NA
SUPAMT61143,378XPAWRUICLRF9HEPIDL94PPCTAI0,38FC5CA0-5E00-48F4-BF15-6308AB52050D,2023-09-28_16h40.04.010,WP_VExplicitOC_LH,2022.2.5,Win32,10.4908677,19.3359375,4.1554,2.0258,NA,NA,NA,NA,NA,bored,"bored, not bored","more bored, less bored",NA,NA,NA,NA,NA,NA,NA,NA,NA,NA,NA,NA,NA,NA,NA,0,2,2,2,1,NA,NA,NA,NA,NA,NA,NA,NA,NA,NA,NA,NA,NA,NA,NA,NA,NA,NA,NA,NA,NA,NA,NA,NA,NA,NA,NA,NA
SUPAMT61143,378XPAWRUICLRF9HEPIDL94PPCTAI0,38FC5CA0-5E00-48F4-BF15-6308AB52050D,2023-09-28_16h40.04.010,WP_VExplicitOC_LH,2022.2.5,Win32,10.4908677,NA,NA,NA,NA,NA,NA,NA,NA,NA,NA,NA,NA,NA,NA,NA,NA,NA,NA,NA,NA,NA,NA,NA,NA,NA,NA,NA,NA,NA,NA,NA,4,0,4,0,1,NA,NA,NA,NA,NA,NA,NA,NA,NA,NA,NA,NA,NA,NA,NA,NA,NA,NA,NA,NA,NA,NA,NA
SUPAMT61143,378XPAWRUICLRF9HEPIDL94PPCTAI0,38FC5CA0-5E00-48F4-BF15-6308AB52050D,2023-09-28_16h40.04.010,WP_VExplicitOC_LH,2022.2.5,Win32,10.4908677,26.953125,6.8119,2.0861,NA,NA,NA,NA,NA,happy,"unhappy, happy","less happy, more happy",NA,NA,NA,NA,NA,NA,NA,NA,NA,NA,NA,NA,NA,NA,NA,0,0,0,0,1,NA,NA,NA,NA,NA,NA,NA,NA,NA,NA,NA,NA,NA,NA,NA,NA,NA,NA,NA,NA,NA,NA,NA,NA,NA,NA,NA,NA
SUPAMT61143,378XPAWRUICLRF9HEPIDL94PPCTAI0,38FC5CA0-5E00-48F4-BF15-6308AB52050D,2023-09-28_16h40.04.010,WP_VExplicitOC_LH,2022.2.5,Win32,10.4908677,25.390625,4.0472,2.0054,NA,NA,NA,NA,NA,frustrated,"frustrated, not frustrated","more frustrated, less frustrated",NA,NA,NA,NA,NA,NA,NA,NA,NA,NA,NA,NA,NA,NA,NA,0,1,1,1,1,NA,NA,NA,NA,NA,NA,NA,NA,NA,NA,NA,NA,NA,NA,NA,NA,NA,NA,NA,NA,NA,NA,NA,NA,NA,NA,NA,NA
SUPAMT61143,378XPAWRUICLRF9HEPIDL94PPCTAI0,38FC5CA0-5E00-48F4-BF15-6308AB52050D,2023-09-28_16h40.04.010,WP_VExplicitOC_LH,2022.2.5,Win32,10.4908677,20.1171875,3.6802,2.0035,NA,NA,NA,NA,NA,bored,"bored, not bored","more bored, less bored",NA,NA,NA,NA,NA,NA,NA,NA,NA,NA,NA,NA,NA,NA,NA,0,2,2,2,1,NA,NA,NA,NA,NA,NA,NA,NA,NA,NA,NA,NA,NA,NA,NA,NA,NA,NA,NA,NA,NA,NA,NA,NA,NA,NA,NA,NA
SUPAMT61143,378XPAWRUICLRF9HEPIDL94PPCTAI0,38FC5CA0-5E00-48F4-BF15-6308AB52050D,2023-09-28_16h40.04.010,WP_VExplicitOC_LH,2022.2.5,Win32,10.4908677,NA,NA,NA,NA,NA,NA,NA,NA,NA,NA,NA,NA,NA,NA,NA,NA,NA,NA,NA,NA,NA,NA,NA,NA,NA,NA,NA,NA,NA,NA,NA,5,0,5,0,1,NA,NA,NA,NA,NA,NA,NA,NA,NA,NA,NA,NA,NA,NA,NA,NA,NA,NA,NA,NA,NA,NA,NA
SUPAMT61143,378XPAWRUICLRF9HEPIDL94PPCTAI0,38FC5CA0-5E00-48F4-BF15-6308AB52050D,2023-09-28_16h40.04.010,WP_VExplicitOC_LH,2022.2.5,Win32,10.4908677,23.2421875,3.8018,2.0405,NA,NA,NA,NA,NA,frustrated,"frustrated, not frustrated","more frustrated, less frustrated",NA,NA,NA,NA,NA,NA,NA,NA,NA,NA,NA,NA,NA,NA,NA,0,0,0,1,1,NA,NA,NA,NA,NA,NA,NA,NA,NA,NA,NA,NA,NA,NA,NA,NA,NA,NA,NA,NA,NA,NA,NA,NA,NA,NA,NA,NA
SUPAMT61143,378XPAWRUICLRF9HEPIDL94PPCTAI0,38FC5CA0-5E00-48F4-BF15-6308AB52050D,2023-09-28_16h40.04.010,WP_VExplicitOC_LH,2022.2.5,Win32,10.4908677,18.1640625,3.7834,2.0859,NA,NA,NA,NA,NA,happy,"unhappy, happy","less happy, more happy",NA,NA,NA,NA,NA,NA,NA,NA,NA,NA,NA,NA,NA,NA,NA,0,1,1,0,1,NA,NA,NA,NA,NA,NA,NA,NA,NA,NA,NA,NA,NA,NA,NA,NA,NA,NA,NA,NA,NA,NA,NA,NA,NA,NA,NA,NA
SUPAMT61143,378XPAWRUICLRF9HEPIDL94PPCTAI0,38FC5CA0-5E00-48F4-BF15-6308AB52050D,2023-09-28_16h40.04.010,WP_VExplicitOC_LH,2022.2.5,Win32,10.4908677,25.78125,4.0732,2.0953,NA,NA,NA,NA,NA,bored,"bored, not bored","more bored, less bored",NA,NA,NA,NA,NA,NA,NA,NA,NA,NA,NA,NA,NA,NA,NA,0,2,2,2,1,NA,NA,NA,NA,NA,NA,NA,NA,NA,NA,NA,NA,NA,NA,NA,NA,NA,NA,NA,NA,NA,NA,NA,NA,NA,NA,NA,NA
SUPAMT61143,378XPAWRUICLRF9HEPIDL94PPCTAI0,38FC5CA0-5E00-48F4-BF15-6308AB52050D,2023-09-28_16h40.04.010,WP_VExplicitOC_LH,2022.2.5,Win32,10.4908677,NA,NA,NA,NA,NA,NA,NA,NA,NA,NA,NA,NA,NA,NA,NA,NA,NA,NA,NA,NA,NA,NA,NA,NA,NA,NA,NA,NA,NA,NA,NA,6,0,6,0,1,NA,NA,NA,NA,NA,NA,NA,NA,NA,NA,NA,NA,NA,NA,NA,NA,NA,NA,NA,NA,NA,NA,NA
SUPAMT61143,378XPAWRUICLRF9HEPIDL94PPCTAI0,38FC5CA0-5E00-48F4-BF15-6308AB52050D,2023-09-28_16h40.04.010,WP_VExplicitOC_LH,2022.2.5,Win32,10.4908677,22.0703125,4.2434,2.0547,NA,NA,NA,NA,NA,frustrated,"frustrated, not frustrated","more frustrated, less frustrated",NA,NA,NA,NA,NA,NA,NA,NA,NA,NA,NA,NA,NA,NA,NA,0,0,0,1,1,NA,NA,NA,NA,NA,NA,NA,NA,NA,NA,NA,NA,NA,NA,NA,NA,NA,NA,NA,NA,NA,NA,NA,NA,NA,NA,NA,NA
SUPAMT61143,378XPAWRUICLRF9HEPIDL94PPCTAI0,38FC5CA0-5E00-48F4-BF15-6308AB52050D,2023-09-28_16h40.04.010,WP_VExplicitOC_LH,2022.2.5,Win32,10.4908677,28.3203125,3.9947,2.0565,NA,NA,NA,NA,NA,bored,"bored, not bored","more bored, less bored",NA,NA,NA,NA,NA,NA,NA,NA,NA,NA,NA,NA,NA,NA,NA,0,1,1,2,1,NA,NA,NA,NA,NA,NA,NA,NA,NA,NA,NA,NA,NA,NA,NA,NA,NA,NA,NA,NA,NA,NA,NA,NA,NA,NA,NA,NA
SUPAMT61143,378XPAWRUICLRF9HEPIDL94PPCTAI0,38FC5CA0-5E00-48F4-BF15-6308AB52050D,2023-09-28_16h40.04.010,WP_VExplicitOC_LH,2022.2.5,Win32,10.4908677,31.4453125,4.0084,2.0094,NA,NA,NA,NA,NA,happy,"unhappy, happy","less happy, more happy",NA,NA,NA,NA,NA,NA,NA,NA,NA,NA,NA,NA,NA,NA,NA,0,2,2,0,1,NA,NA,NA,NA,NA,NA,NA,NA,NA,NA,NA,NA,NA,NA,NA,NA,NA,NA,NA,NA,NA,NA,NA,NA,NA,NA,NA,NA
SUPAMT61143,378XPAWRUICLRF9HEPIDL94PPCTAI0,38FC5CA0-5E00-48F4-BF15-6308AB52050D,2023-09-28_16h40.04.010,WP_VExplicitOC_LH,2022.2.5,Win32,10.4908677,NA,NA,NA,NA,NA,NA,NA,NA,NA,NA,NA,NA,NA,NA,NA,NA,NA,NA,NA,NA,NA,NA,NA,NA,NA,NA,NA,NA,NA,NA,NA,7,0,7,0,1,NA,NA,NA,NA,NA,NA,NA,NA,NA,NA,NA,NA,NA,NA,NA,NA,NA,NA,NA,NA,NA,NA,NA
SUPAMT61143,378XPAWRUICLRF9HEPIDL94PPCTAI0,38FC5CA0-5E00-48F4-BF15-6308AB52050D,2023-09-28_16h40.04.010,WP_VExplicitOC_LH,2022.2.5,Win32,10.4908677,-15.234375,4.2493,2.0679,NA,NA,NA,NA,NA,frustrated,"frustrated, not frustrated","more frustrated, less frustrated",NA,NA,NA,NA,NA,NA,NA,NA,NA,NA,NA,NA,NA,NA,NA,0,0,0,1,1,NA,NA,NA,NA,NA,NA,NA,NA,NA,NA,NA,NA,NA,NA,NA,NA,NA,NA,NA,NA,NA,NA,NA,NA,NA,NA,NA,NA
SUPAMT61143,378XPAWRUICLRF9HEPIDL94PPCTAI0,38FC5CA0-5E00-48F4-BF15-6308AB52050D,2023-09-28_16h40.04.010,WP_VExplicitOC_LH,2022.2.5,Win32,10.4908677,-25,4.7709,2.0176,NA,NA,NA,NA,NA,bored,"bored, not bored","more bored, less bored",NA,NA,NA,NA,NA,NA,NA,NA,NA,NA,NA,NA,NA,NA,NA,0,1,1,2,1,NA,NA,NA,NA,NA,NA,NA,NA,NA,NA,NA,NA,NA,NA,NA,NA,NA,NA,NA,NA,NA,NA,NA,NA,NA,NA,NA,NA
SUPAMT61143,378XPAWRUICLRF9HEPIDL94PPCTAI0,38FC5CA0-5E00-48F4-BF15-6308AB52050D,2023-09-28_16h40.04.010,WP_VExplicitOC_LH,2022.2.5,Win32,10.4908677,-10.9375,3.5149,2.0184,NA,NA,NA,NA,NA,happy,"unhappy, happy","less happy, more happy",NA,NA,NA,NA,NA,NA,NA,NA,NA,NA,NA,NA,NA,NA,NA,0,2,2,0,1,NA,NA,NA,NA,NA,NA,NA,NA,NA,NA,NA,NA,NA,NA,NA,NA,NA,NA,NA,NA,NA,NA,NA,NA,NA,NA,NA,NA
SUPAMT61143,378XPAWRUICLRF9HEPIDL94PPCTAI0,38FC5CA0-5E00-48F4-BF15-6308AB52050D,2023-09-28_16h40.04.010,WP_VExplicitOC_LH,2022.2.5,Win32,10.4908677,NA,NA,NA,NA,NA,NA,NA,NA,NA,NA,NA,NA,NA,NA,NA,NA,NA,NA,NA,NA,NA,NA,NA,NA,NA,NA,NA,NA,NA,NA,NA,8,0,8,0,1,NA,NA,NA,NA,NA,NA,NA,NA,NA,NA,NA,NA,NA,NA,NA,NA,NA,NA,NA,NA,NA,NA,NA
SUPAMT61143,378XPAWRUICLRF9HEPIDL94PPCTAI0,38FC5CA0-5E00-48F4-BF15-6308AB52050D,2023-09-28_16h40.04.010,WP_VExplicitOC_LH,2022.2.5,Win32,10.4908677,19.53125,4.4469,2.0693,NA,NA,NA,NA,NA,happy,"unhappy, happy","less happy, more happy",NA,NA,NA,NA,NA,NA,NA,NA,NA,NA,NA,NA,NA,NA,NA,0,0,0,0,1,NA,NA,NA,NA,NA,NA,NA,NA,NA,NA,NA,NA,NA,NA,NA,NA,NA,NA,NA,NA,NA,NA,NA,NA,NA,NA,NA,NA
SUPAMT61143,378XPAWRUICLRF9HEPIDL94PPCTAI0,38FC5CA0-5E00-48F4-BF15-6308AB52050D,2023-09-28_16h40.04.010,WP_VExplicitOC_LH,2022.2.5,Win32,10.4908677,19.53125,3.5688,2.0012,NA,NA,NA,NA,NA,bored,"bored, not bored","more bored, less bored",NA,NA,NA,NA,NA,NA,NA,NA,NA,NA,NA,NA,NA,NA,NA,0,1,1,2,1,NA,NA,NA,NA,NA,NA,NA,NA,NA,NA,NA,NA,NA,NA,NA,NA,NA,NA,NA,NA,NA,NA,NA,NA,NA,NA,NA,NA
SUPAMT61143,378XPAWRUICLRF9HEPIDL94PPCTAI0,38FC5CA0-5E00-48F4-BF15-6308AB52050D,2023-09-28_16h40.04.010,WP_VExplicitOC_LH,2022.2.5,Win32,10.4908677,20.8984375,3.6883,2.0878,NA,NA,NA,NA,NA,frustrated,"frustrated, not frustrated","more frustrated, less frustrated",NA,NA,NA,NA,NA,NA,NA,NA,NA,NA,NA,NA,NA,NA,NA,0,2,2,1,1,NA,NA,NA,NA,NA,NA,NA,NA,NA,NA,NA,NA,NA,NA,NA,NA,NA,NA,NA,NA,NA,NA,NA,NA,NA,NA,NA,NA
SUPAMT61143,378XPAWRUICLRF9HEPIDL94PPCTAI0,38FC5CA0-5E00-48F4-BF15-6308AB52050D,2023-09-28_16h40.04.010,WP_VExplicitOC_LH,2022.2.5,Win32,10.4908677,NA,NA,NA,NA,NA,NA,NA,NA,NA,NA,NA,NA,NA,NA,NA,NA,NA,NA,NA,NA,NA,NA,NA,NA,NA,NA,NA,NA,NA,NA,NA,9,0,9,0,1,NA,NA,NA,NA,NA,NA,NA,NA,NA,NA,NA,NA,NA,NA,NA,NA,NA,NA,NA,NA,NA,NA,NA
SUPAMT61143,378XPAWRUICLRF9HEPIDL94PPCTAI0,38FC5CA0-5E00-48F4-BF15-6308AB52050D,2023-09-28_16h40.04.010,WP_VExplicitOC_LH,2022.2.5,Win32,10.4908677,29.296875,3.8084,2.0397,NA,NA,NA,NA,NA,happy,"unhappy, happy","less happy, more happy",NA,NA,NA,NA,NA,NA,NA,NA,NA,NA,NA,NA,NA,NA,NA,0,0,0,0,1,NA,NA,NA,NA,NA,NA,NA,NA,NA,NA,NA,NA,NA,NA,NA,NA,NA,NA,NA,NA,NA,NA,NA,NA,NA,NA,NA,NA
SUPAMT61143,378XPAWRUICLRF9HEPIDL94PPCTAI0,38FC5CA0-5E00-48F4-BF15-6308AB52050D,2023-09-28_16h40.04.010,WP_VExplicitOC_LH,2022.2.5,Win32,10.4908677,39.0625,3.7936,2.0342,NA,NA,NA,NA,NA,frustrated,"frustrated, not frustrated","more frustrated, less frustrated",NA,NA,NA,NA,NA,NA,NA,NA,NA,NA,NA,NA,NA,NA,NA,0,1,1,1,1,NA,NA,NA,NA,NA,NA,NA,NA,NA,NA,NA,NA,NA,NA,NA,NA,NA,NA,NA,NA,NA,NA,NA,NA,NA,NA,NA,NA
SUPAMT61143,378XPAWRUICLRF9HEPIDL94PPCTAI0,38FC5CA0-5E00-48F4-BF15-6308AB52050D,2023-09-28_16h40.04.010,WP_VExplicitOC_LH,2022.2.5,Win32,10.4908677,25.390625,3.7165,2.0351,NA,NA,NA,NA,NA,bored,"bored, not bored","more bored, less bored",NA,NA,NA,NA,NA,NA,NA,NA,NA,NA,NA,NA,NA,NA,NA,0,2,2,2,1,NA,NA,NA,NA,NA,NA,NA,NA,NA,NA,NA,NA,NA,NA,NA,NA,NA,NA,NA,NA,NA,NA,NA,NA,NA,NA,NA,NA
SUPAMT61143,378XPAWRUICLRF9HEPIDL94PPCTAI0,38FC5CA0-5E00-48F4-BF15-6308AB52050D,2023-09-28_16h40.04.010,WP_VExplicitOC_LH,2022.2.5,Win32,10.4908677,NA,NA,NA,NA,NA,NA,NA,NA,NA,NA,NA,NA,NA,NA,NA,NA,NA,NA,NA,NA,NA,NA,NA,NA,NA,NA,NA,NA,NA,NA,NA,10,0,10,0,1,NA,NA,NA,NA,NA,NA,NA,NA,NA,NA,NA,NA,NA,NA,NA,NA,NA,NA,NA,NA,NA,NA,NA
SUPAMT61143,378XPAWRUICLRF9HEPIDL94PPCTAI0,38FC5CA0-5E00-48F4-BF15-6308AB52050D,2023-09-28_16h40.04.010,WP_VExplicitOC_LH,2022.2.5,Win32,10.4908677,24.0234375,3.8443,2.0185,NA,NA,NA,NA,NA,frustrated,"frustrated, not frustrated","more frustrated, less frustrated",NA,NA,NA,NA,NA,NA,NA,NA,NA,NA,NA,NA,NA,NA,NA,0,0,0,1,1,NA,NA,NA,NA,NA,NA,NA,NA,NA,NA,NA,NA,NA,NA,NA,NA,NA,NA,NA,NA,NA,NA,NA,NA,NA,NA,NA,NA
SUPAMT61143,378XPAWRUICLRF9HEPIDL94PPCTAI0,38FC5CA0-5E00-48F4-BF15-6308AB52050D,2023-09-28_16h40.04.010,WP_VExplicitOC_LH,2022.2.5,Win32,10.4908677,43.75,3.6389,2.0792,NA,NA,NA,NA,NA,bored,"bored, not bored","more bored, less bored",NA,NA,NA,NA,NA,NA,NA,NA,NA,NA,NA,NA,NA,NA,NA,0,1,1,2,1,NA,NA,NA,NA,NA,NA,NA,NA,NA,NA,NA,NA,NA,NA,NA,NA,NA,NA,NA,NA,NA,NA,NA,NA,NA,NA,NA,NA
SUPAMT61143,378XPAWRUICLRF9HEPIDL94PPCTAI0,38FC5CA0-5E00-48F4-BF15-6308AB52050D,2023-09-28_16h40.04.010,WP_VExplicitOC_LH,2022.2.5,Win32,10.4908677,19.3359375,3.8827,2.0015,NA,NA,NA,NA,NA,happy,"unhappy, happy","less happy, more happy",NA,NA,NA,NA,NA,NA,NA,NA,NA,NA,NA,NA,NA,NA,NA,0,2,2,0,1,NA,NA,NA,NA,NA,NA,NA,NA,NA,NA,NA,NA,NA,NA,NA,NA,NA,NA,NA,NA,NA,NA,NA,NA,NA,NA,NA,NA
SUPAMT61143,378XPAWRUICLRF9HEPIDL94PPCTAI0,38FC5CA0-5E00-48F4-BF15-6308AB52050D,2023-09-28_16h40.04.010,WP_VExplicitOC_LH,2022.2.5,Win32,10.4908677,NA,NA,NA,NA,NA,NA,NA,NA,NA,NA,NA,NA,NA,NA,NA,NA,NA,NA,NA,NA,NA,NA,NA,NA,NA,NA,NA,NA,NA,NA,NA,11,0,11,0,1,NA,NA,NA,NA,NA,NA,NA,NA,NA,NA,NA,NA,NA,NA,NA,NA,NA,NA,NA,NA,NA,NA,NA
SUPAMT61143,378XPAWRUICLRF9HEPIDL94PPCTAI0,38FC5CA0-5E00-48F4-BF15-6308AB52050D,2023-09-28_16h40.04.010,WP_VExplicitOC_LH,2022.2.5,Win32,10.4908677,28.90625,3.8707,2.0099,NA,NA,NA,NA,NA,bored,"bored, not bored","more bored, less bored",NA,NA,NA,NA,NA,NA,NA,NA,NA,NA,NA,NA,NA,NA,NA,0,0,0,2,1,NA,NA,NA,NA,NA,NA,NA,NA,NA,NA,NA,NA,NA,NA,NA,NA,NA,NA,NA,NA,NA,NA,NA,NA,NA,NA,NA,NA
SUPAMT61143,378XPAWRUICLRF9HEPIDL94PPCTAI0,38FC5CA0-5E00-48F4-BF15-6308AB52050D,2023-09-28_16h40.04.010,WP_VExplicitOC_LH,2022.2.5,Win32,10.4908677,21.484375,3.5381,2.0408,NA,NA,NA,NA,NA,frustrated,"frustrated, not frustrated","more frustrated, less frustrated",NA,NA,NA,NA,NA,NA,NA,NA,NA,NA,NA,NA,NA,NA,NA,0,1,1,1,1,NA,NA,NA,NA,NA,NA,NA,NA,NA,NA,NA,NA,NA,NA,NA,NA,NA,NA,NA,NA,NA,NA,NA,NA,NA,NA,NA,NA
SUPAMT61143,378XPAWRUICLRF9HEPIDL94PPCTAI0,38FC5CA0-5E00-48F4-BF15-6308AB52050D,2023-09-28_16h40.04.010,WP_VExplicitOC_LH,2022.2.5,Win32,10.4908677,33.7890625,3.6431,2.0146,NA,NA,NA,NA,NA,happy,"unhappy, happy","less happy, more happy",NA,NA,NA,NA,NA,NA,NA,NA,NA,NA,NA,NA,NA,NA,NA,0,2,2,0,1,NA,NA,NA,NA,NA,NA,NA,NA,NA,NA,NA,NA,NA,NA,NA,NA,NA,NA,NA,NA,NA,NA,NA,NA,NA,NA,NA,NA
SUPAMT61143,378XPAWRUICLRF9HEPIDL94PPCTAI0,38FC5CA0-5E00-48F4-BF15-6308AB52050D,2023-09-28_16h40.04.010,WP_VExplicitOC_LH,2022.2.5,Win32,10.4908677,NA,NA,NA,NA,NA,NA,NA,NA,NA,NA,NA,NA,NA,NA,NA,NA,NA,NA,NA,NA,NA,NA,NA,NA,NA,NA,NA,NA,NA,NA,NA,12,0,12,0,1,NA,NA,NA,NA,NA,NA,NA,NA,NA,NA,NA,NA,NA,NA,NA,NA,NA,NA,NA,NA,NA,NA,NA
SUPAMT61143,378XPAWRUICLRF9HEPIDL94PPCTAI0,38FC5CA0-5E00-48F4-BF15-6308AB52050D,2023-09-28_16h40.04.010,WP_VExplicitOC_LH,2022.2.5,Win32,10.4908677,-22.65625,4.1925,2.0923,NA,NA,NA,NA,NA,happy,"unhappy, happy","less happy, more happy",NA,NA,NA,NA,NA,NA,NA,NA,NA,NA,NA,NA,NA,NA,NA,0,0,0,0,1,NA,NA,NA,NA,NA,NA,NA,NA,NA,NA,NA,NA,NA,NA,NA,NA,NA,NA,NA,NA,NA,NA,NA,NA,NA,NA,NA,NA
SUPAMT61143,378XPAWRUICLRF9HEPIDL94PPCTAI0,38FC5CA0-5E00-48F4-BF15-6308AB52050D,2023-09-28_16h40.04.010,WP_VExplicitOC_LH,2022.2.5,Win32,10.4908677,-15.0390625,3.7779,2.1259,NA,NA,NA,NA,NA,bored,"bored, not bored","more bored, less bored",NA,NA,NA,NA,NA,NA,NA,NA,NA,NA,NA,NA,NA,NA,NA,0,1,1,2,1,NA,NA,NA,NA,NA,NA,NA,NA,NA,NA,NA,NA,NA,NA,NA,NA,NA,NA,NA,NA,NA,NA,NA,NA,NA,NA,NA,NA
SUPAMT61143,378XPAWRUICLRF9HEPIDL94PPCTAI0,38FC5CA0-5E00-48F4-BF15-6308AB52050D,2023-09-28_16h40.04.010,WP_VExplicitOC_LH,2022.2.5,Win32,10.4908677,-11.1328125,4.4618,2.0248,NA,NA,NA,NA,NA,frustrated,"frustrated, not frustrated","more frustrated, less frustrated",NA,NA,NA,NA,NA,NA,NA,NA,NA,NA,NA,NA,NA,NA,NA,0,2,2,1,1,NA,NA,NA,NA,NA,NA,NA,NA,NA,NA,NA,NA,NA,NA,NA,NA,NA,NA,NA,NA,NA,NA,NA,NA,NA,NA,NA,NA
SUPAMT61143,378XPAWRUICLRF9HEPIDL94PPCTAI0,38FC5CA0-5E00-48F4-BF15-6308AB52050D,2023-09-28_16h40.04.010,WP_VExplicitOC_LH,2022.2.5,Win32,10.4908677,NA,NA,NA,NA,NA,NA,NA,NA,NA,NA,NA,NA,NA,NA,NA,NA,NA,NA,NA,NA,NA,NA,NA,NA,NA,NA,NA,NA,NA,NA,NA,13,0,13,0,1,NA,NA,NA,NA,NA,NA,NA,NA,NA,NA,NA,NA,NA,NA,NA,NA,NA,NA,NA,NA,NA,NA,NA
SUPAMT61143,378XPAWRUICLRF9HEPIDL94PPCTAI0,38FC5CA0-5E00-48F4-BF15-6308AB52050D,2023-09-28_16h40.04.010,WP_VExplicitOC_LH,2022.2.5,Win32,10.4908677,15.4296875,3.8788,2.0021,NA,NA,NA,NA,NA,bored,"bored, not bored","more bored, less bored",NA,NA,NA,NA,NA,NA,NA,NA,NA,NA,NA,NA,NA,NA,NA,0,0,0,2,1,NA,NA,NA,NA,NA,NA,NA,NA,NA,NA,NA,NA,NA,NA,NA,NA,NA,NA,NA,NA,NA,NA,NA,NA,NA,NA,NA,NA
SUPAMT61143,378XPAWRUICLRF9HEPIDL94PPCTAI0,38FC5CA0-5E00-48F4-BF15-6308AB52050D,2023-09-28_16h40.04.010,WP_VExplicitOC_LH,2022.2.5,Win32,10.4908677,23.2421875,4.3427,2.0658,NA,NA,NA,NA,NA,frustrated,"frustrated, not frustrated","more frustrated, less frustrated",NA,NA,NA,NA,NA,NA,NA,NA,NA,NA,NA,NA,NA,NA,NA,0,1,1,1,1,NA,NA,NA,NA,NA,NA,NA,NA,NA,NA,NA,NA,NA,NA,NA,NA,NA,NA,NA,NA,NA,NA,NA,NA,NA,NA,NA,NA
SUPAMT61143,378XPAWRUICLRF9HEPIDL94PPCTAI0,38FC5CA0-5E00-48F4-BF15-6308AB52050D,2023-09-28_16h40.04.010,WP_VExplicitOC_LH,2022.2.5,Win32,10.4908677,17.1875,3.5767,2.1712,NA,NA,NA,NA,NA,happy,"unhappy, happy","less happy, more happy",NA,NA,NA,NA,NA,NA,NA,NA,NA,NA,NA,NA,NA,NA,NA,0,2,2,0,1,NA,NA,NA,NA,NA,NA,NA,NA,NA,NA,NA,NA,NA,NA,NA,NA,NA,NA,NA,NA,NA,NA,NA,NA,NA,NA,NA,NA
SUPAMT61143,378XPAWRUICLRF9HEPIDL94PPCTAI0,38FC5CA0-5E00-48F4-BF15-6308AB52050D,2023-09-28_16h40.04.010,WP_VExplicitOC_LH,2022.2.5,Win32,10.4908677,NA,NA,NA,NA,NA,NA,NA,NA,NA,NA,NA,NA,NA,NA,NA,NA,NA,NA,NA,NA,NA,NA,NA,NA,NA,NA,NA,NA,NA,NA,NA,14,0,14,0,1,NA,NA,NA,NA,NA,NA,NA,NA,NA,NA,NA,NA,NA,NA,NA,NA,NA,NA,NA,NA,NA,NA,NA
SUPAMT61143,378XPAWRUICLRF9HEPIDL94PPCTAI0,38FC5CA0-5E00-48F4-BF15-6308AB52050D,2023-09-28_16h40.04.010,WP_VExplicitOC_LH,2022.2.5,Win32,10.4908677,NA,NA,NA,NA,NA,NA,NA,NA,NA,NA,NA,NA,NA,NA,NA,NA,NA,NA,NA,NA,NA,NA,NA,NA,NA,NA,NA,NA,NA,NA,NA,NA,NA,NA,NA,NA,NA,NA,NA,NA,NA,NA,NA,NA,NA,NA,NA,NA,NA,NA,NA,NA,NA,NA,NA,NA,NA,NA,NA
SUPAMT61143,378XPAWRUICLRF9HEPIDL94PPCTAI0,38FC5CA0-5E00-48F4-BF15-6308AB52050D,2023-09-28_16h40.04.010,WP_VExplicitOC_LH,2022.2.5,Win32,10.4908677,NA,NA,NA,NA,NA,NA,NA,NA,NA,NA,NA,NA,NA,NA,NA,NA,NA,NA,NA,NA,NA,NA,NA,NA,NA,NA,NA,NA,NA,NA,NA,NA,NA,NA,NA,NA,NA,NA,NA,NA,NA,NA,NA,NA,NA,NA,NA,NA,NA,NA,NA,NA,NA,NA,NA,NA,NA,NA,NA
SUPAMT61143,378XPAWRUICLRF9HEPIDL94PPCTAI0,38FC5CA0-5E00-48F4-BF15-6308AB52050D,2023-09-28_16h40.04.010,WP_VExplicitOC_LH,2022.2.5,Win32,10.4908677,NA,NA,NA,NA,NA,NA,NA,NA,NA,NA,NA,NA,NA,NA,NA,NA,NA,NA,rest (looking at a fixed cross),001.png,NA,NA,NA,NA,NA,NA,NA,NA,NA,NA,NA,NA,NA,NA,NA,NA,37.109375,2.7742,0,0,0,0,1,NA,NA,NA,NA,NA,NA,NA,NA,NA,NA,NA,NA,NA,NA,NA,NA
SUPAMT61143,378XPAWRUICLRF9HEPIDL94PPCTAI0,38FC5CA0-5E00-48F4-BF15-6308AB52050D,2023-09-28_16h40.04.010,WP_VExplicitOC_LH,2022.2.5,Win32,10.4908677,NA,NA,NA,NA,NA,NA,NA,NA,NA,NA,NA,NA,NA,NA,NA,NA,NA,NA,stand up,002.png,NA,NA,NA,NA,NA,NA,NA,NA,NA,NA,NA,NA,NA,NA,NA,NA,23.046875,2.1103,0,1,1,1,1,NA,NA,NA,NA,NA,NA,NA,NA,NA,NA,NA,NA,NA,NA,NA,NA
SUPAMT61143,378XPAWRUICLRF9HEPIDL94PPCTAI0,38FC5CA0-5E00-48F4-BF15-6308AB52050D,2023-09-28_16h40.04.010,WP_VExplicitOC_LH,2022.2.5,Win32,10.4908677,NA,NA,NA,NA,NA,NA,NA,NA,NA,NA,NA,NA,NA,NA,NA,NA,NA,NA,stretch,003.png,NA,NA,NA,NA,NA,NA,NA,NA,NA,NA,NA,NA,NA,NA,NA,NA,-15.234375,1.792,0,2,2,2,1,NA,NA,NA,NA,NA,NA,NA,NA,NA,NA,NA,NA,NA,NA,NA,NA
SUPAMT61143,378XPAWRUICLRF9HEPIDL94PPCTAI0,38FC5CA0-5E00-48F4-BF15-6308AB52050D,2023-09-28_16h40.04.010,WP_VExplicitOC_LH,2022.2.5,Win32,10.4908677,NA,NA,NA,NA,NA,NA,NA,NA,NA,NA,NA,NA,NA,NA,NA,NA,NA,NA,make a drink,004.png,NA,NA,NA,NA,NA,NA,NA,NA,NA,NA,NA,NA,NA,NA,NA,NA,35.3515625,1.6663,0,3,3,3,1,NA,NA,NA,NA,NA,NA,NA,NA,NA,NA,NA,NA,NA,NA,NA,NA
SUPAMT61143,378XPAWRUICLRF9HEPIDL94PPCTAI0,38FC5CA0-5E00-48F4-BF15-6308AB52050D,2023-09-28_16h40.04.010,WP_VExplicitOC_LH,2022.2.5,Win32,10.4908677,NA,NA,NA,NA,NA,NA,NA,NA,NA,NA,NA,NA,NA,NA,NA,NA,NA,NA,scroll social media,005.png,NA,NA,NA,NA,NA,NA,NA,NA,NA,NA,NA,NA,NA,NA,NA,NA,31.640625,1.4571,0,4,4,4,1,NA,NA,NA,NA,NA,NA,NA,NA,NA,NA,NA,NA,NA,NA,NA,NA
SUPAMT61143,378XPAWRUICLRF9HEPIDL94PPCTAI0,38FC5CA0-5E00-48F4-BF15-6308AB52050D,2023-09-28_16h40.04.010,WP_VExplicitOC_LH,2022.2.5,Win32,10.4908677,NA,NA,NA,NA,NA,NA,NA,NA,NA,NA,NA,NA,NA,NA,NA,NA,NA,NA,listen to music,006.png,NA,NA,NA,NA,NA,NA,NA,NA,NA,NA,NA,NA,NA,NA,NA,NA,27.734375,1.5334,0,5,5,5,1,NA,NA,NA,NA,NA,NA,NA,NA,NA,NA,NA,NA,NA,NA,NA,NA
SUPAMT61143,378XPAWRUICLRF9HEPIDL94PPCTAI0,38FC5CA0-5E00-48F4-BF15-6308AB52050D,2023-09-28_16h40.04.010,WP_VExplicitOC_LH,2022.2.5,Win32,10.4908677,NA,NA,NA,NA,NA,NA,NA,NA,NA,NA,NA,NA,NA,NA,NA,NA,NA,NA,daydream,007.png,NA,NA,NA,NA,NA,NA,NA,NA,NA,NA,NA,NA,NA,NA,NA,NA,-17.7734375,2.2329,0,6,6,6,1,NA,NA,NA,NA,NA,NA,NA,NA,NA,NA,NA,NA,NA,NA,NA,NA
SUPAMT61143,378XPAWRUICLRF9HEPIDL94PPCTAI0,38FC5CA0-5E00-48F4-BF15-6308AB52050D,2023-09-28_16h40.04.010,WP_VExplicitOC_LH,2022.2.5,Win32,10.4908677,NA,NA,NA,NA,NA,NA,NA,NA,NA,NA,NA,NA,NA,NA,NA,NA,NA,NA,watch a short animation,008.png,NA,NA,NA,NA,NA,NA,NA,NA,NA,NA,NA,NA,NA,NA,NA,NA,19.921875,1.5358,0,7,7,7,1,NA,NA,NA,NA,NA,NA,NA,NA,NA,NA,NA,NA,NA,NA,NA,NA
SUPAMT61143,378XPAWRUICLRF9HEPIDL94PPCTAI0,38FC5CA0-5E00-48F4-BF15-6308AB52050D,2023-09-28_16h40.04.010,WP_VExplicitOC_LH,2022.2.5,Win32,10.4908677,NA,NA,NA,NA,NA,NA,NA,NA,NA,NA,NA,NA,NA,NA,NA,NA,NA,NA,read a novel,009.png,NA,NA,NA,NA,NA,NA,NA,NA,NA,NA,NA,NA,NA,NA,NA,NA,32.6171875,1.5645,0,8,8,8,1,NA,NA,NA,NA,NA,NA,NA,NA,NA,NA,NA,NA,NA,NA,NA,NA
SUPAMT61143,378XPAWRUICLRF9HEPIDL94PPCTAI0,38FC5CA0-5E00-48F4-BF15-6308AB52050D,2023-09-28_16h40.04.010,WP_VExplicitOC_LH,2022.2.5,Win32,10.4908677,NA,NA,NA,NA,NA,NA,NA,NA,NA,NA,NA,NA,NA,NA,NA,NA,NA,NA,read the news,010.png,NA,NA,NA,NA,NA,NA,NA,NA,NA,NA,NA,NA,NA,NA,NA,NA,38.28125,1.825,0,9,9,9,1,NA,NA,NA,NA,NA,NA,NA,NA,NA,NA,NA,NA,NA,NA,NA,NA
SUPAMT61143,378XPAWRUICLRF9HEPIDL94PPCTAI0,38FC5CA0-5E00-48F4-BF15-6308AB52050D,2023-09-28_16h40.04.010,WP_VExplicitOC_LH,2022.2.5,Win32,10.4908677,NA,NA,NA,NA,NA,NA,NA,NA,NA,NA,NA,NA,NA,NA,NA,NA,NA,NA,NA,NA,NA,NA,NA,NA,NA,NA,NA,NA,NA,NA,NA,NA,NA,NA,NA,NA,NA,NA,NA,NA,NA,NA,NA,read the news,NA,NA,NA,NA,NA,NA,NA,NA,NA,NA,NA,NA,NA,NA,NA
SUPAMT61143,378XPAWRUICLRF9HEPIDL94PPCTAI0,38FC5CA0-5E00-48F4-BF15-6308AB52050D,2023-09-28_16h40.04.010,WP_VExplicitOC_LH,2022.2.5,Win32,10.4908677,27.734375,4.0887,2.0216,NA,NA,NA,NA,NA,frustrated,"frustrated, not frustrated","more frustrated, less frustrated",NA,NA,NA,NA,NA,NA,NA,NA,NA,NA,NA,NA,NA,NA,NA,NA,NA,NA,NA,NA,NA,NA,NA,NA,NA,NA,NA,NA,NA,NA,NA,NA,NA,0,0,0,1,1,NA,NA,NA,NA,NA,NA,NA,NA,NA,NA
SUPAMT61143,378XPAWRUICLRF9HEPIDL94PPCTAI0,38FC5CA0-5E00-48F4-BF15-6308AB52050D,2023-09-28_16h40.04.010,WP_VExplicitOC_LH,2022.2.5,Win32,10.4908677,33.0078125,3.6861,2.0401,NA,NA,NA,NA,NA,happy,"unhappy, happy","less happy, more happy",NA,NA,NA,NA,NA,NA,NA,NA,NA,NA,NA,NA,NA,NA,NA,NA,NA,NA,NA,NA,NA,NA,NA,NA,NA,NA,NA,NA,NA,NA,NA,NA,NA,0,1,1,0,1,NA,NA,NA,NA,NA,NA,NA,NA,NA,NA
SUPAMT61143,378XPAWRUICLRF9HEPIDL94PPCTAI0,38FC5CA0-5E00-48F4-BF15-6308AB52050D,2023-09-28_16h40.04.010,WP_VExplicitOC_LH,2022.2.5,Win32,10.4908677,26.171875,3.5996,2.1089,NA,NA,NA,NA,NA,bored,"bored, not bored","more bored, less bored",NA,NA,NA,NA,NA,NA,NA,NA,NA,NA,NA,NA,NA,NA,NA,NA,NA,NA,NA,NA,NA,NA,NA,NA,NA,NA,NA,NA,NA,NA,NA,NA,NA,0,2,2,2,1,NA,NA,NA,NA,NA,NA,NA,NA,NA,NA
SUPAMT61143,378XPAWRUICLRF9HEPIDL94PPCTAI0,38FC5CA0-5E00-48F4-BF15-6308AB52050D,2023-09-28_16h40.04.010,WP_VExplicitOC_LH,2022.2.5,Win32,10.4908677,NA,NA,NA,NA,NA,NA,NA,NA,NA,NA,NA,NA,NA,NA,NA,NA,NA,NA,NA,NA,NA,NA,NA,NA,NA,NA,NA,NA,NA,NA,NA,NA,NA,NA,NA,NA,NA,NA,NA,NA,NA,NA,NA,NA,NA,NA,NA,NA,NA,NA,NA,NA,NA,NA,NA,NA,NA,NA,NA
SUPAMT61143,378XPAWRUICLRF9HEPIDL94PPCTAI0,38FC5CA0-5E00-48F4-BF15-6308AB52050D,2023-09-28_16h40.04.010,WP_VExplicitOC_LH,2022.2.5,Win32,10.4908677,NA,NA,NA,NA,NA,NA,NA,NA,NA,NA,NA,NA,NA,NA,NA,NA,NA,NA,NA,NA,NA,NA,NA,NA,NA,NA,NA,NA,NA,NA,NA,NA,NA,NA,NA,NA,NA,NA,NA,NA,NA,NA,NA,NA,NA,NA,NA,NA,NA,NA,NA,NA,NA,NA,NA,NA,NA,NA,NA
SUPAMT61143,378XPAWRUICLRF9HEPIDL94PPCTAI0,38FC5CA0-5E00-48F4-BF15-6308AB52050D,2023-09-28_16h40.04.010,WP_VExplicitOC_LH,2022.2.5,Win32,10.4908677,24.0234375,3.7843,2.042,NA,NA,NA,NA,NA,happy,"unhappy, happy","less happy, more happy",NA,NA,NA,NA,NA,NA,NA,NA,NA,NA,NA,NA,NA,NA,NA,NA,NA,NA,NA,NA,NA,NA,NA,NA,NA,NA,NA,NA,NA,NA,NA,NA,NA,NA,NA,NA,NA,NA,0,0,0,0,1,NA,NA,NA,NA,NA
SUPAMT61143,378XPAWRUICLRF9HEPIDL94PPCTAI0,38FC5CA0-5E00-48F4-BF15-6308AB52050D,2023-09-28_16h40.04.010,WP_VExplicitOC_LH,2022.2.5,Win32,10.4908677,16.015625,3.634,2.1231,NA,NA,NA,NA,NA,bored,"bored, not bored","more bored, less bored",NA,NA,NA,NA,NA,NA,NA,NA,NA,NA,NA,NA,NA,NA,NA,NA,NA,NA,NA,NA,NA,NA,NA,NA,NA,NA,NA,NA,NA,NA,NA,NA,NA,NA,NA,NA,NA,NA,0,1,1,2,1,NA,NA,NA,NA,NA
SUPAMT61143,378XPAWRUICLRF9HEPIDL94PPCTAI0,38FC5CA0-5E00-48F4-BF15-6308AB52050D,2023-09-28_16h40.04.010,WP_VExplicitOC_LH,2022.2.5,Win32,10.4908677,24.0234375,3.5125,2.0787,NA,NA,NA,NA,NA,frustrated,"frustrated, not frustrated","more frustrated, less frustrated",NA,NA,NA,NA,NA,NA,NA,NA,NA,NA,NA,NA,NA,NA,NA,NA,NA,NA,NA,NA,NA,NA,NA,NA,NA,NA,NA,NA,NA,NA,NA,NA,NA,NA,NA,NA,NA,NA,0,2,2,1,1,NA,NA,NA,NA,NA
SUPAMT61143,378XPAWRUICLRF9HEPIDL94PPCTAI0,38FC5CA0-5E00-48F4-BF15-6308AB52050D,2023-09-28_16h40.04.010,WP_VExplicitOC_LH,2022.2.5,Win32,10.4908677,NA,NA,NA,NA,NA,NA,NA,NA,NA,NA,NA,NA,NA,NA,NA,NA,NA,NA,NA,NA,NA,NA,NA,NA,NA,NA,NA,NA,NA,NA,NA,NA,NA,NA,NA,NA,NA,NA,NA,NA,NA,NA,NA,NA,NA,NA,NA,NA,NA,NA,NA,NA,NA,NA,0,0,0,0,1
SUPAMT61143,378XPAWRUICLRF9HEPIDL94PPCTAI0,38FC5CA0-5E00-48F4-BF15-6308AB52050D,2023-09-28_16h40.04.010,WP_VExplicitOC_LH,2022.2.5,Win32,10.4908677,-13.8671875,4.4686,2.0087,NA,NA,NA,NA,NA,bored,"bored, not bored","more bored, less bored",NA,NA,NA,NA,NA,NA,NA,NA,NA,NA,NA,NA,NA,NA,NA,NA,NA,NA,NA,NA,NA,NA,NA,NA,NA,NA,NA,NA,NA,NA,NA,NA,NA,NA,NA,NA,NA,NA,0,0,0,2,1,NA,NA,NA,NA,NA
SUPAMT61143,378XPAWRUICLRF9HEPIDL94PPCTAI0,38FC5CA0-5E00-48F4-BF15-6308AB52050D,2023-09-28_16h40.04.010,WP_VExplicitOC_LH,2022.2.5,Win32,10.4908677,-22.265625,4.7242,2.0322,NA,NA,NA,NA,NA,happy,"unhappy, happy","less happy, more happy",NA,NA,NA,NA,NA,NA,NA,NA,NA,NA,NA,NA,NA,NA,NA,NA,NA,NA,NA,NA,NA,NA,NA,NA,NA,NA,NA,NA,NA,NA,NA,NA,NA,NA,NA,NA,NA,NA,0,1,1,0,1,NA,NA,NA,NA,NA
SUPAMT61143,378XPAWRUICLRF9HEPIDL94PPCTAI0,38FC5CA0-5E00-48F4-BF15-6308AB52050D,2023-09-28_16h40.04.010,WP_VExplicitOC_LH,2022.2.5,Win32,10.4908677,-17.96875,3.8125,2.0373,NA,NA,NA,NA,NA,frustrated,"frustrated, not frustrated","more frustrated, less frustrated",NA,NA,NA,NA,NA,NA,NA,NA,NA,NA,NA,NA,NA,NA,NA,NA,NA,NA,NA,NA,NA,NA,NA,NA,NA,NA,NA,NA,NA,NA,NA,NA,NA,NA,NA,NA,NA,NA,0,2,2,1,1,NA,NA,NA,NA,NA
SUPAMT61143,378XPAWRUICLRF9HEPIDL94PPCTAI0,38FC5CA0-5E00-48F4-BF15-6308AB52050D,2023-09-28_16h40.04.010,WP_VExplicitOC_LH,2022.2.5,Win32,10.4908677,NA,NA,NA,NA,NA,NA,NA,NA,NA,NA,NA,NA,NA,NA,NA,NA,NA,NA,NA,NA,NA,NA,NA,NA,NA,NA,NA,NA,NA,NA,NA,NA,NA,NA,NA,NA,NA,NA,NA,NA,NA,NA,NA,NA,NA,NA,NA,NA,NA,NA,NA,NA,NA,NA,1,0,1,0,1
SUPAMT61143,378XPAWRUICLRF9HEPIDL94PPCTAI0,38FC5CA0-5E00-48F4-BF15-6308AB52050D,2023-09-28_16h40.04.010,WP_VExplicitOC_LH,2022.2.5,Win32,10.4908677,-16.6015625,5.6887,2.0099,NA,NA,NA,NA,NA,frustrated,"frustrated, not frustrated","more frustrated, less frustrated",NA,NA,NA,NA,NA,NA,NA,NA,NA,NA,NA,NA,NA,NA,NA,NA,NA,NA,NA,NA,NA,NA,NA,NA,NA,NA,NA,NA,NA,NA,NA,NA,NA,NA,NA,NA,NA,NA,0,0,0,1,1,NA,NA,NA,NA,NA
SUPAMT61143,378XPAWRUICLRF9HEPIDL94PPCTAI0,38FC5CA0-5E00-48F4-BF15-6308AB52050D,2023-09-28_16h40.04.010,WP_VExplicitOC_LH,2022.2.5,Win32,10.4908677,-14.0625,4.8626,2.0569,NA,NA,NA,NA,NA,bored,"bored, not bored","more bored, less bored",NA,NA,NA,NA,NA,NA,NA,NA,NA,NA,NA,NA,NA,NA,NA,NA,NA,NA,NA,NA,NA,NA,NA,NA,NA,NA,NA,NA,NA,NA,NA,NA,NA,NA,NA,NA,NA,NA,0,1,1,2,1,NA,NA,NA,NA,NA
SUPAMT61143,378XPAWRUICLRF9HEPIDL94PPCTAI0,38FC5CA0-5E00-48F4-BF15-6308AB52050D,2023-09-28_16h40.04.010,WP_VExplicitOC_LH,2022.2.5,Win32,10.4908677,-14.6484375,3.8433,2.0236,NA,NA,NA,NA,NA,happy,"unhappy, happy","less happy, more happy",NA,NA,NA,NA,NA,NA,NA,NA,NA,NA,NA,NA,NA,NA,NA,NA,NA,NA,NA,NA,NA,NA,NA,NA,NA,NA,NA,NA,NA,NA,NA,NA,NA,NA,NA,NA,NA,NA,0,2,2,0,1,NA,NA,NA,NA,NA
SUPAMT61143,378XPAWRUICLRF9HEPIDL94PPCTAI0,38FC5CA0-5E00-48F4-BF15-6308AB52050D,2023-09-28_16h40.04.010,WP_VExplicitOC_LH,2022.2.5,Win32,10.4908677,NA,NA,NA,NA,NA,NA,NA,NA,NA,NA,NA,NA,NA,NA,NA,NA,NA,NA,NA,NA,NA,NA,NA,NA,NA,NA,NA,NA,NA,NA,NA,NA,NA,NA,NA,NA,NA,NA,NA,NA,NA,NA,NA,NA,NA,NA,NA,NA,NA,NA,NA,NA,NA,NA,2,0,2,0,1
SUPAMT61143,378XPAWRUICLRF9HEPIDL94PPCTAI0,38FC5CA0-5E00-48F4-BF15-6308AB52050D,2023-09-28_16h40.04.010,WP_VExplicitOC_LH,2022.2.5,Win32,10.4908677,-15.234375,3.96,2.0927,NA,NA,NA,NA,NA,bored,"bored, not bored","more bored, less bored",NA,NA,NA,NA,NA,NA,NA,NA,NA,NA,NA,NA,NA,NA,NA,NA,NA,NA,NA,NA,NA,NA,NA,NA,NA,NA,NA,NA,NA,NA,NA,NA,NA,NA,NA,NA,NA,NA,0,0,0,2,1,NA,NA,NA,NA,NA
SUPAMT61143,378XPAWRUICLRF9HEPIDL94PPCTAI0,38FC5CA0-5E00-48F4-BF15-6308AB52050D,2023-09-28_16h40.04.010,WP_VExplicitOC_LH,2022.2.5,Win32,10.4908677,-14.0625,3.6521,2.0986,NA,NA,NA,NA,NA,frustrated,"frustrated, not frustrated","more frustrated, less frustrated",NA,NA,NA,NA,NA,NA,NA,NA,NA,NA,NA,NA,NA,NA,NA,NA,NA,NA,NA,NA,NA,NA,NA,NA,NA,NA,NA,NA,NA,NA,NA,NA,NA,NA,NA,NA,NA,NA,0,1,1,1,1,NA,NA,NA,NA,NA
SUPAMT61143,378XPAWRUICLRF9HEPIDL94PPCTAI0,38FC5CA0-5E00-48F4-BF15-6308AB52050D,2023-09-28_16h40.04.010,WP_VExplicitOC_LH,2022.2.5,Win32,10.4908677,-14.453125,3.5435,2.1276,NA,NA,NA,NA,NA,happy,"unhappy, happy","less happy, more happy",NA,NA,NA,NA,NA,NA,NA,NA,NA,NA,NA,NA,NA,NA,NA,NA,NA,NA,NA,NA,NA,NA,NA,NA,NA,NA,NA,NA,NA,NA,NA,NA,NA,NA,NA,NA,NA,NA,0,2,2,0,1,NA,NA,NA,NA,NA
SUPAMT61143,378XPAWRUICLRF9HEPIDL94PPCTAI0,38FC5CA0-5E00-48F4-BF15-6308AB52050D,2023-09-28_16h40.04.010,WP_VExplicitOC_LH,2022.2.5,Win32,10.4908677,NA,NA,NA,NA,NA,NA,NA,NA,NA,NA,NA,NA,NA,NA,NA,NA,NA,NA,NA,NA,NA,NA,NA,NA,NA,NA,NA,NA,NA,NA,NA,NA,NA,NA,NA,NA,NA,NA,NA,NA,NA,NA,NA,NA,NA,NA,NA,NA,NA,NA,NA,NA,NA,NA,3,0,3,0,1
SUPAMT61143,378XPAWRUICLRF9HEPIDL94PPCTAI0,38FC5CA0-5E00-48F4-BF15-6308AB52050D,2023-09-28_16h40.04.010,WP_VExplicitOC_LH,2022.2.5,Win32,10.4908677,14.2578125,3.9728,2.0157,NA,NA,NA,NA,NA,happy,"unhappy, happy","less happy, more happy",NA,NA,NA,NA,NA,NA,NA,NA,NA,NA,NA,NA,NA,NA,NA,NA,NA,NA,NA,NA,NA,NA,NA,NA,NA,NA,NA,NA,NA,NA,NA,NA,NA,NA,NA,NA,NA,NA,0,0,0,0,1,NA,NA,NA,NA,NA
SUPAMT61143,378XPAWRUICLRF9HEPIDL94PPCTAI0,38FC5CA0-5E00-48F4-BF15-6308AB52050D,2023-09-28_16h40.04.010,WP_VExplicitOC_LH,2022.2.5,Win32,10.4908677,20.3125,3.6966,2.0354,NA,NA,NA,NA,NA,frustrated,"frustrated, not frustrated","more frustrated, less frustrated",NA,NA,NA,NA,NA,NA,NA,NA,NA,NA,NA,NA,NA,NA,NA,NA,NA,NA,NA,NA,NA,NA,NA,NA,NA,NA,NA,NA,NA,NA,NA,NA,NA,NA,NA,NA,NA,NA,0,1,1,1,1,NA,NA,NA,NA,NA
SUPAMT61143,378XPAWRUICLRF9HEPIDL94PPCTAI0,38FC5CA0-5E00-48F4-BF15-6308AB52050D,2023-09-28_16h40.04.010,WP_VExplicitOC_LH,2022.2.5,Win32,10.4908677,22.0703125,3.6849,2.111,NA,NA,NA,NA,NA,bored,"bored, not bored","more bored, less bored",NA,NA,NA,NA,NA,NA,NA,NA,NA,NA,NA,NA,NA,NA,NA,NA,NA,NA,NA,NA,NA,NA,NA,NA,NA,NA,NA,NA,NA,NA,NA,NA,NA,NA,NA,NA,NA,NA,0,2,2,2,1,NA,NA,NA,NA,NA
SUPAMT61143,378XPAWRUICLRF9HEPIDL94PPCTAI0,38FC5CA0-5E00-48F4-BF15-6308AB52050D,2023-09-28_16h40.04.010,WP_VExplicitOC_LH,2022.2.5,Win32,10.4908677,NA,NA,NA,NA,NA,NA,NA,NA,NA,NA,NA,NA,NA,NA,NA,NA,NA,NA,NA,NA,NA,NA,NA,NA,NA,NA,NA,NA,NA,NA,NA,NA,NA,NA,NA,NA,NA,NA,NA,NA,NA,NA,NA,NA,NA,NA,NA,NA,NA,NA,NA,NA,NA,NA,4,0,4,0,1
SUPAMT61143,378XPAWRUICLRF9HEPIDL94PPCTAI0,38FC5CA0-5E00-48F4-BF15-6308AB52050D,2023-09-28_16h40.04.010,WP_VExplicitOC_LH,2022.2.5,Win32,10.4908677,15.8203125,4.7499,2.1193,NA,NA,NA,NA,NA,bored,"bored, not bored","more bored, less bored",NA,NA,NA,NA,NA,NA,NA,NA,NA,NA,NA,NA,NA,NA,NA,NA,NA,NA,NA,NA,NA,NA,NA,NA,NA,NA,NA,NA,NA,NA,NA,NA,NA,NA,NA,NA,NA,NA,0,0,0,2,1,NA,NA,NA,NA,NA
SUPAMT61143,378XPAWRUICLRF9HEPIDL94PPCTAI0,38FC5CA0-5E00-48F4-BF15-6308AB52050D,2023-09-28_16h40.04.010,WP_VExplicitOC_LH,2022.2.5,Win32,10.4908677,23.2421875,4.0703,2.0446,NA,NA,NA,NA,NA,happy,"unhappy, happy","less happy, more happy",NA,NA,NA,NA,NA,NA,NA,NA,NA,NA,NA,NA,NA,NA,NA,NA,NA,NA,NA,NA,NA,NA,NA,NA,NA,NA,NA,NA,NA,NA,NA,NA,NA,NA,NA,NA,NA,NA,0,1,1,0,1,NA,NA,NA,NA,NA
SUPAMT61143,378XPAWRUICLRF9HEPIDL94PPCTAI0,38FC5CA0-5E00-48F4-BF15-6308AB52050D,2023-09-28_16h40.04.010,WP_VExplicitOC_LH,2022.2.5,Win32,10.4908677,26.171875,3.9204,2.124,NA,NA,NA,NA,NA,frustrated,"frustrated, not frustrated","more frustrated, less frustrated",NA,NA,NA,NA,NA,NA,NA,NA,NA,NA,NA,NA,NA,NA,NA,NA,NA,NA,NA,NA,NA,NA,NA,NA,NA,NA,NA,NA,NA,NA,NA,NA,NA,NA,NA,NA,NA,NA,0,2,2,1,1,NA,NA,NA,NA,NA
SUPAMT61143,378XPAWRUICLRF9HEPIDL94PPCTAI0,38FC5CA0-5E00-48F4-BF15-6308AB52050D,2023-09-28_16h40.04.010,WP_VExplicitOC_LH,2022.2.5,Win32,10.4908677,NA,NA,NA,NA,NA,NA,NA,NA,NA,NA,NA,NA,NA,NA,NA,NA,NA,NA,NA,NA,NA,NA,NA,NA,NA,NA,NA,NA,NA,NA,NA,NA,NA,NA,NA,NA,NA,NA,NA,NA,NA,NA,NA,NA,NA,NA,NA,NA,NA,NA,NA,NA,NA,NA,5,0,5,0,1
SUPAMT61143,378XPAWRUICLRF9HEPIDL94PPCTAI0,38FC5CA0-5E00-48F4-BF15-6308AB52050D,2023-09-28_16h40.04.010,WP_VExplicitOC_LH,2022.2.5,Win32,10.4908677,-13.8671875,3.7076,2.1249,NA,NA,NA,NA,NA,frustrated,"frustrated, not frustrated","more frustrated, less frustrated",NA,NA,NA,NA,NA,NA,NA,NA,NA,NA,NA,NA,NA,NA,NA,NA,NA,NA,NA,NA,NA,NA,NA,NA,NA,NA,NA,NA,NA,NA,NA,NA,NA,NA,NA,NA,NA,NA,0,0,0,1,1,NA,NA,NA,NA,NA
SUPAMT61143,378XPAWRUICLRF9HEPIDL94PPCTAI0,38FC5CA0-5E00-48F4-BF15-6308AB52050D,2023-09-28_16h40.04.010,WP_VExplicitOC_LH,2022.2.5,Win32,10.4908677,-13.671875,4.0811,2.0354,NA,NA,NA,NA,NA,bored,"bored, not bored","more bored, less bored",NA,NA,NA,NA,NA,NA,NA,NA,NA,NA,NA,NA,NA,NA,NA,NA,NA,NA,NA,NA,NA,NA,NA,NA,NA,NA,NA,NA,NA,NA,NA,NA,NA,NA,NA,NA,NA,NA,0,1,1,2,1,NA,NA,NA,NA,NA
SUPAMT61143,378XPAWRUICLRF9HEPIDL94PPCTAI0,38FC5CA0-5E00-48F4-BF15-6308AB52050D,2023-09-28_16h40.04.010,WP_VExplicitOC_LH,2022.2.5,Win32,10.4908677,-11.5234375,4.9088,2.0616,NA,NA,NA,NA,NA,happy,"unhappy, happy","less happy, more happy",NA,NA,NA,NA,NA,NA,NA,NA,NA,NA,NA,NA,NA,NA,NA,NA,NA,NA,NA,NA,NA,NA,NA,NA,NA,NA,NA,NA,NA,NA,NA,NA,NA,NA,NA,NA,NA,NA,0,2,2,0,1,NA,NA,NA,NA,NA
SUPAMT61143,378XPAWRUICLRF9HEPIDL94PPCTAI0,38FC5CA0-5E00-48F4-BF15-6308AB52050D,2023-09-28_16h40.04.010,WP_VExplicitOC_LH,2022.2.5,Win32,10.4908677,NA,NA,NA,NA,NA,NA,NA,NA,NA,NA,NA,NA,NA,NA,NA,NA,NA,NA,NA,NA,NA,NA,NA,NA,NA,NA,NA,NA,NA,NA,NA,NA,NA,NA,NA,NA,NA,NA,NA,NA,NA,NA,NA,NA,NA,NA,NA,NA,NA,NA,NA,NA,NA,NA,6,0,6,0,1
SUPAMT61143,378XPAWRUICLRF9HEPIDL94PPCTAI0,38FC5CA0-5E00-48F4-BF15-6308AB52050D,2023-09-28_16h40.04.010,WP_VExplicitOC_LH,2022.2.5,Win32,10.4908677,23.828125,4.0724,2.0873,NA,NA,NA,NA,NA,frustrated,"frustrated, not frustrated","more frustrated, less frustrated",NA,NA,NA,NA,NA,NA,NA,NA,NA,NA,NA,NA,NA,NA,NA,NA,NA,NA,NA,NA,NA,NA,NA,NA,NA,NA,NA,NA,NA,NA,NA,NA,NA,NA,NA,NA,NA,NA,0,0,0,1,1,NA,NA,NA,NA,NA
SUPAMT61143,378XPAWRUICLRF9HEPIDL94PPCTAI0,38FC5CA0-5E00-48F4-BF15-6308AB52050D,2023-09-28_16h40.04.010,WP_VExplicitOC_LH,2022.2.5,Win32,10.4908677,16.9921875,3.4418,2.0531,NA,NA,NA,NA,NA,bored,"bored, not bored","more bored, less bored",NA,NA,NA,NA,NA,NA,NA,NA,NA,NA,NA,NA,NA,NA,NA,NA,NA,NA,NA,NA,NA,NA,NA,NA,NA,NA,NA,NA,NA,NA,NA,NA,NA,NA,NA,NA,NA,NA,0,1,1,2,1,NA,NA,NA,NA,NA
SUPAMT61143,378XPAWRUICLRF9HEPIDL94PPCTAI0,38FC5CA0-5E00-48F4-BF15-6308AB52050D,2023-09-28_16h40.04.010,WP_VExplicitOC_LH,2022.2.5,Win32,10.4908677,25,3.6544,2.1245,NA,NA,NA,NA,NA,happy,"unhappy, happy","less happy, more happy",NA,NA,NA,NA,NA,NA,NA,NA,NA,NA,NA,NA,NA,NA,NA,NA,NA,NA,NA,NA,NA,NA,NA,NA,NA,NA,NA,NA,NA,NA,NA,NA,NA,NA,NA,NA,NA,NA,0,2,2,0,1,NA,NA,NA,NA,NA
SUPAMT61143,378XPAWRUICLRF9HEPIDL94PPCTAI0,38FC5CA0-5E00-48F4-BF15-6308AB52050D,2023-09-28_16h40.04.010,WP_VExplicitOC_LH,2022.2.5,Win32,10.4908677,NA,NA,NA,NA,NA,NA,NA,NA,NA,NA,NA,NA,NA,NA,NA,NA,NA,NA,NA,NA,NA,NA,NA,NA,NA,NA,NA,NA,NA,NA,NA,NA,NA,NA,NA,NA,NA,NA,NA,NA,NA,NA,NA,NA,NA,NA,NA,NA,NA,NA,NA,NA,NA,NA,7,0,7,0,1
SUPAMT61143,378XPAWRUICLRF9HEPIDL94PPCTAI0,38FC5CA0-5E00-48F4-BF15-6308AB52050D,2023-09-28_16h40.04.010,WP_VExplicitOC_LH,2022.2.5,Win32,10.4908677,14.84375,4.3405,2.0605,NA,NA,NA,NA,NA,bored,"bored, not bored","more bored, less bored",NA,NA,NA,NA,NA,NA,NA,NA,NA,NA,NA,NA,NA,NA,NA,NA,NA,NA,NA,NA,NA,NA,NA,NA,NA,NA,NA,NA,NA,NA,NA,NA,NA,NA,NA,NA,NA,NA,0,0,0,2,1,NA,NA,NA,NA,NA
SUPAMT61143,378XPAWRUICLRF9HEPIDL94PPCTAI0,38FC5CA0-5E00-48F4-BF15-6308AB52050D,2023-09-28_16h40.04.010,WP_VExplicitOC_LH,2022.2.5,Win32,10.4908677,17.7734375,3.4862,2.0157,NA,NA,NA,NA,NA,happy,"unhappy, happy","less happy, more happy",NA,NA,NA,NA,NA,NA,NA,NA,NA,NA,NA,NA,NA,NA,NA,NA,NA,NA,NA,NA,NA,NA,NA,NA,NA,NA,NA,NA,NA,NA,NA,NA,NA,NA,NA,NA,NA,NA,0,1,1,0,1,NA,NA,NA,NA,NA
SUPAMT61143,378XPAWRUICLRF9HEPIDL94PPCTAI0,38FC5CA0-5E00-48F4-BF15-6308AB52050D,2023-09-28_16h40.04.010,WP_VExplicitOC_LH,2022.2.5,Win32,10.4908677,29.8828125,3.7167,2.0774,NA,NA,NA,NA,NA,frustrated,"frustrated, not frustrated","more frustrated, less frustrated",NA,NA,NA,NA,NA,NA,NA,NA,NA,NA,NA,NA,NA,NA,NA,NA,NA,NA,NA,NA,NA,NA,NA,NA,NA,NA,NA,NA,NA,NA,NA,NA,NA,NA,NA,NA,NA,NA,0,2,2,1,1,NA,NA,NA,NA,NA
SUPAMT61143,378XPAWRUICLRF9HEPIDL94PPCTAI0,38FC5CA0-5E00-48F4-BF15-6308AB52050D,2023-09-28_16h40.04.010,WP_VExplicitOC_LH,2022.2.5,Win32,10.4908677,NA,NA,NA,NA,NA,NA,NA,NA,NA,NA,NA,NA,NA,NA,NA,NA,NA,NA,NA,NA,NA,NA,NA,NA,NA,NA,NA,NA,NA,NA,NA,NA,NA,NA,NA,NA,NA,NA,NA,NA,NA,NA,NA,NA,NA,NA,NA,NA,NA,NA,NA,NA,NA,NA,8,0,8,0,1
SUPAMT61143,378XPAWRUICLRF9HEPIDL94PPCTAI0,38FC5CA0-5E00-48F4-BF15-6308AB52050D,2023-09-28_16h40.04.010,WP_VExplicitOC_LH,2022.2.5,Win32,10.4908677,25.78125,5.7547,2.1237,NA,NA,NA,NA,NA,bored,"bored, not bored","more bored, less bored",NA,NA,NA,NA,NA,NA,NA,NA,NA,NA,NA,NA,NA,NA,NA,NA,NA,NA,NA,NA,NA,NA,NA,NA,NA,NA,NA,NA,NA,NA,NA,NA,NA,NA,NA,NA,NA,NA,0,0,0,2,1,NA,NA,NA,NA,NA
SUPAMT61143,378XPAWRUICLRF9HEPIDL94PPCTAI0,38FC5CA0-5E00-48F4-BF15-6308AB52050D,2023-09-28_16h40.04.010,WP_VExplicitOC_LH,2022.2.5,Win32,10.4908677,16.6015625,4.5025,2.1174,NA,NA,NA,NA,NA,frustrated,"frustrated, not frustrated","more frustrated, less frustrated",NA,NA,NA,NA,NA,NA,NA,NA,NA,NA,NA,NA,NA,NA,NA,NA,NA,NA,NA,NA,NA,NA,NA,NA,NA,NA,NA,NA,NA,NA,NA,NA,NA,NA,NA,NA,NA,NA,0,1,1,1,1,NA,NA,NA,NA,NA
SUPAMT61143,378XPAWRUICLRF9HEPIDL94PPCTAI0,38FC5CA0-5E00-48F4-BF15-6308AB52050D,2023-09-28_16h40.04.010,WP_VExplicitOC_LH,2022.2.5,Win32,10.4908677,21.2890625,4.7681,2.0106,NA,NA,NA,NA,NA,happy,"unhappy, happy","less happy, more happy",NA,NA,NA,NA,NA,NA,NA,NA,NA,NA,NA,NA,NA,NA,NA,NA,NA,NA,NA,NA,NA,NA,NA,NA,NA,NA,NA,NA,NA,NA,NA,NA,NA,NA,NA,NA,NA,NA,0,2,2,0,1,NA,NA,NA,NA,NA
SUPAMT61143,378XPAWRUICLRF9HEPIDL94PPCTAI0,38FC5CA0-5E00-48F4-BF15-6308AB52050D,2023-09-28_16h40.04.010,WP_VExplicitOC_LH,2022.2.5,Win32,10.4908677,NA,NA,NA,NA,NA,NA,NA,NA,NA,NA,NA,NA,NA,NA,NA,NA,NA,NA,NA,NA,NA,NA,NA,NA,NA,NA,NA,NA,NA,NA,NA,NA,NA,NA,NA,NA,NA,NA,NA,NA,NA,NA,NA,NA,NA,NA,NA,NA,NA,NA,NA,NA,NA,NA,9,0,9,0,1
SUPAMT61143,378XPAWRUICLRF9HEPIDL94PPCTAI0,38FC5CA0-5E00-48F4-BF15-6308AB52050D,2023-09-28_16h40.04.010,WP_VExplicitOC_LH,2022.2.5,Win32,10.4908677,21.2890625,6.4945,2.1121,NA,NA,NA,NA,NA,bored,"bored, not bored","more bored, less bored",NA,NA,NA,NA,NA,NA,NA,NA,NA,NA,NA,NA,NA,NA,NA,NA,NA,NA,NA,NA,NA,NA,NA,NA,NA,NA,NA,NA,NA,NA,NA,NA,NA,NA,NA,NA,NA,NA,0,0,0,2,1,NA,NA,NA,NA,NA
SUPAMT61143,378XPAWRUICLRF9HEPIDL94PPCTAI0,38FC5CA0-5E00-48F4-BF15-6308AB52050D,2023-09-28_16h40.04.010,WP_VExplicitOC_LH,2022.2.5,Win32,10.4908677,36.5234375,3.7052,2.0214,NA,NA,NA,NA,NA,happy,"unhappy, happy","less happy, more happy",NA,NA,NA,NA,NA,NA,NA,NA,NA,NA,NA,NA,NA,NA,NA,NA,NA,NA,NA,NA,NA,NA,NA,NA,NA,NA,NA,NA,NA,NA,NA,NA,NA,NA,NA,NA,NA,NA,0,1,1,0,1,NA,NA,NA,NA,NA
SUPAMT61143,378XPAWRUICLRF9HEPIDL94PPCTAI0,38FC5CA0-5E00-48F4-BF15-6308AB52050D,2023-09-28_16h40.04.010,WP_VExplicitOC_LH,2022.2.5,Win32,10.4908677,15.625,4.0411,2.0376,NA,NA,NA,NA,NA,frustrated,"frustrated, not frustrated","more frustrated, less frustrated",NA,NA,NA,NA,NA,NA,NA,NA,NA,NA,NA,NA,NA,NA,NA,NA,NA,NA,NA,NA,NA,NA,NA,NA,NA,NA,NA,NA,NA,NA,NA,NA,NA,NA,NA,NA,NA,NA,0,2,2,1,1,NA,NA,NA,NA,NA
SUPAMT61143,378XPAWRUICLRF9HEPIDL94PPCTAI0,38FC5CA0-5E00-48F4-BF15-6308AB52050D,2023-09-28_16h40.04.010,WP_VExplicitOC_LH,2022.2.5,Win32,10.4908677,NA,NA,NA,NA,NA,NA,NA,NA,NA,NA,NA,NA,NA,NA,NA,NA,NA,NA,NA,NA,NA,NA,NA,NA,NA,NA,NA,NA,NA,NA,NA,NA,NA,NA,NA,NA,NA,NA,NA,NA,NA,NA,NA,NA,NA,NA,NA,NA,NA,NA,NA,NA,NA,NA,10,0,10,0,1
SUPAMT61143,378XPAWRUICLRF9HEPIDL94PPCTAI0,38FC5CA0-5E00-48F4-BF15-6308AB52050D,2023-09-28_16h40.04.010,WP_VExplicitOC_LH,2022.2.5,Win32,10.4908677,17.1875,4.9356,2.0841,NA,NA,NA,NA,NA,frustrated,"frustrated, not frustrated","more frustrated, less frustrated",NA,NA,NA,NA,NA,NA,NA,NA,NA,NA,NA,NA,NA,NA,NA,NA,NA,NA,NA,NA,NA,NA,NA,NA,NA,NA,NA,NA,NA,NA,NA,NA,NA,NA,NA,NA,NA,NA,0,0,0,1,1,NA,NA,NA,NA,NA
SUPAMT61143,378XPAWRUICLRF9HEPIDL94PPCTAI0,38FC5CA0-5E00-48F4-BF15-6308AB52050D,2023-09-28_16h40.04.010,WP_VExplicitOC_LH,2022.2.5,Win32,10.4908677,19.140625,3.6761,2.019,NA,NA,NA,NA,NA,happy,"unhappy, happy","less happy, more happy",NA,NA,NA,NA,NA,NA,NA,NA,NA,NA,NA,NA,NA,NA,NA,NA,NA,NA,NA,NA,NA,NA,NA,NA,NA,NA,NA,NA,NA,NA,NA,NA,NA,NA,NA,NA,NA,NA,0,1,1,0,1,NA,NA,NA,NA,NA
SUPAMT61143,378XPAWRUICLRF9HEPIDL94PPCTAI0,38FC5CA0-5E00-48F4-BF15-6308AB52050D,2023-09-28_16h40.04.010,WP_VExplicitOC_LH,2022.2.5,Win32,10.4908677,26.7578125,4.0691,2.0948,NA,NA,NA,NA,NA,bored,"bored, not bored","more bored, less bored",NA,NA,NA,NA,NA,NA,NA,NA,NA,NA,NA,NA,NA,NA,NA,NA,NA,NA,NA,NA,NA,NA,NA,NA,NA,NA,NA,NA,NA,NA,NA,NA,NA,NA,NA,NA,NA,NA,0,2,2,2,1,NA,NA,NA,NA,NA
SUPAMT61143,378XPAWRUICLRF9HEPIDL94PPCTAI0,38FC5CA0-5E00-48F4-BF15-6308AB52050D,2023-09-28_16h40.04.010,WP_VExplicitOC_LH,2022.2.5,Win32,10.4908677,NA,NA,NA,NA,NA,NA,NA,NA,NA,NA,NA,NA,NA,NA,NA,NA,NA,NA,NA,NA,NA,NA,NA,NA,NA,NA,NA,NA,NA,NA,NA,NA,NA,NA,NA,NA,NA,NA,NA,NA,NA,NA,NA,NA,NA,NA,NA,NA,NA,NA,NA,NA,NA,NA,11,0,11,0,1
SUPAMT61143,378XPAWRUICLRF9HEPIDL94PPCTAI0,38FC5CA0-5E00-48F4-BF15-6308AB52050D,2023-09-28_16h40.04.010,WP_VExplicitOC_LH,2022.2.5,Win32,10.4908677,17.3828125,4.6265,2.0784,NA,NA,NA,NA,NA,frustrated,"frustrated, not frustrated","more frustrated, less frustrated",NA,NA,NA,NA,NA,NA,NA,NA,NA,NA,NA,NA,NA,NA,NA,NA,NA,NA,NA,NA,NA,NA,NA,NA,NA,NA,NA,NA,NA,NA,NA,NA,NA,NA,NA,NA,NA,NA,0,0,0,1,1,NA,NA,NA,NA,NA
SUPAMT61143,378XPAWRUICLRF9HEPIDL94PPCTAI0,38FC5CA0-5E00-48F4-BF15-6308AB52050D,2023-09-28_16h40.04.010,WP_VExplicitOC_LH,2022.2.5,Win32,10.4908677,24.8046875,3.7335,2.0753,NA,NA,NA,NA,NA,bored,"bored, not bored","more bored, less bored",NA,NA,NA,NA,NA,NA,NA,NA,NA,NA,NA,NA,NA,NA,NA,NA,NA,NA,NA,NA,NA,NA,NA,NA,NA,NA,NA,NA,NA,NA,NA,NA,NA,NA,NA,NA,NA,NA,0,1,1,2,1,NA,NA,NA,NA,NA
SUPAMT61143,378XPAWRUICLRF9HEPIDL94PPCTAI0,38FC5CA0-5E00-48F4-BF15-6308AB52050D,2023-09-28_16h40.04.010,WP_VExplicitOC_LH,2022.2.5,Win32,10.4908677,26.171875,3.8637,2.0127,NA,NA,NA,NA,NA,happy,"unhappy, happy","less happy, more happy",NA,NA,NA,NA,NA,NA,NA,NA,NA,NA,NA,NA,NA,NA,NA,NA,NA,NA,NA,NA,NA,NA,NA,NA,NA,NA,NA,NA,NA,NA,NA,NA,NA,NA,NA,NA,NA,NA,0,2,2,0,1,NA,NA,NA,NA,NA
SUPAMT61143,378XPAWRUICLRF9HEPIDL94PPCTAI0,38FC5CA0-5E00-48F4-BF15-6308AB52050D,2023-09-28_16h40.04.010,WP_VExplicitOC_LH,2022.2.5,Win32,10.4908677,NA,NA,NA,NA,NA,NA,NA,NA,NA,NA,NA,NA,NA,NA,NA,NA,NA,NA,NA,NA,NA,NA,NA,NA,NA,NA,NA,NA,NA,NA,NA,NA,NA,NA,NA,NA,NA,NA,NA,NA,NA,NA,NA,NA,NA,NA,NA,NA,NA,NA,NA,NA,NA,NA,12,0,12,0,1
SUPAMT61143,378XPAWRUICLRF9HEPIDL94PPCTAI0,38FC5CA0-5E00-48F4-BF15-6308AB52050D,2023-09-28_16h40.04.010,WP_VExplicitOC_LH,2022.2.5,Win32,10.4908677,22.0703125,4.2217,2.1191,NA,NA,NA,NA,NA,frustrated,"frustrated, not frustrated","more frustrated, less frustrated",NA,NA,NA,NA,NA,NA,NA,NA,NA,NA,NA,NA,NA,NA,NA,NA,NA,NA,NA,NA,NA,NA,NA,NA,NA,NA,NA,NA,NA,NA,NA,NA,NA,NA,NA,NA,NA,NA,0,0,0,1,1,NA,NA,NA,NA,NA
SUPAMT61143,378XPAWRUICLRF9HEPIDL94PPCTAI0,38FC5CA0-5E00-48F4-BF15-6308AB52050D,2023-09-28_16h40.04.010,WP_VExplicitOC_LH,2022.2.5,Win32,10.4908677,29.1015625,3.53,2.1007,NA,NA,NA,NA,NA,bored,"bored, not bored","more bored, less bored",NA,NA,NA,NA,NA,NA,NA,NA,NA,NA,NA,NA,NA,NA,NA,NA,NA,NA,NA,NA,NA,NA,NA,NA,NA,NA,NA,NA,NA,NA,NA,NA,NA,NA,NA,NA,NA,NA,0,1,1,2,1,NA,NA,NA,NA,NA
SUPAMT61143,378XPAWRUICLRF9HEPIDL94PPCTAI0,38FC5CA0-5E00-48F4-BF15-6308AB52050D,2023-09-28_16h40.04.010,WP_VExplicitOC_LH,2022.2.5,Win32,10.4908677,18.1640625,3.8807,2.0362,NA,NA,NA,NA,NA,happy,"unhappy, happy","less happy, more happy",NA,NA,NA,NA,NA,NA,NA,NA,NA,NA,NA,NA,NA,NA,NA,NA,NA,NA,NA,NA,NA,NA,NA,NA,NA,NA,NA,NA,NA,NA,NA,NA,NA,NA,NA,NA,NA,NA,0,2,2,0,1,NA,NA,NA,NA,NA
SUPAMT61143,378XPAWRUICLRF9HEPIDL94PPCTAI0,38FC5CA0-5E00-48F4-BF15-6308AB52050D,2023-09-28_16h40.04.010,WP_VExplicitOC_LH,2022.2.5,Win32,10.4908677,NA,NA,NA,NA,NA,NA,NA,NA,NA,NA,NA,NA,NA,NA,NA,NA,NA,NA,NA,NA,NA,NA,NA,NA,NA,NA,NA,NA,NA,NA,NA,NA,NA,NA,NA,NA,NA,NA,NA,NA,NA,NA,NA,NA,NA,NA,NA,NA,NA,NA,NA,NA,NA,NA,13,0,13,0,1
SUPAMT61143,378XPAWRUICLRF9HEPIDL94PPCTAI0,38FC5CA0-5E00-48F4-BF15-6308AB52050D,2023-09-28_16h40.04.010,WP_VExplicitOC_LH,2022.2.5,Win32,10.4908677,-23.6328125,3.7766,2.0556,NA,NA,NA,NA,NA,bored,"bored, not bored","more bored, less bored",NA,NA,NA,NA,NA,NA,NA,NA,NA,NA,NA,NA,NA,NA,NA,NA,NA,NA,NA,NA,NA,NA,NA,NA,NA,NA,NA,NA,NA,NA,NA,NA,NA,NA,NA,NA,NA,NA,0,0,0,2,1,NA,NA,NA,NA,NA
SUPAMT61143,378XPAWRUICLRF9HEPIDL94PPCTAI0,38FC5CA0-5E00-48F4-BF15-6308AB52050D,2023-09-28_16h40.04.010,WP_VExplicitOC_LH,2022.2.5,Win32,10.4908677,-17.578125,4.443,2.0915,NA,NA,NA,NA,NA,happy,"unhappy, happy","less happy, more happy",NA,NA,NA,NA,NA,NA,NA,NA,NA,NA,NA,NA,NA,NA,NA,NA,NA,NA,NA,NA,NA,NA,NA,NA,NA,NA,NA,NA,NA,NA,NA,NA,NA,NA,NA,NA,NA,NA,0,1,1,0,1,NA,NA,NA,NA,NA
SUPAMT61143,378XPAWRUICLRF9HEPIDL94PPCTAI0,38FC5CA0-5E00-48F4-BF15-6308AB52050D,2023-09-28_16h40.04.010,WP_VExplicitOC_LH,2022.2.5,Win32,10.4908677,-25.9765625,5.1045,2.1131,NA,NA,NA,NA,NA,frustrated,"frustrated, not frustrated","more frustrated, less frustrated",NA,NA,NA,NA,NA,NA,NA,NA,NA,NA,NA,NA,NA,NA,NA,NA,NA,NA,NA,NA,NA,NA,NA,NA,NA,NA,NA,NA,NA,NA,NA,NA,NA,NA,NA,NA,NA,NA,0,2,2,1,1,NA,NA,NA,NA,NA
SUPAMT61143,378XPAWRUICLRF9HEPIDL94PPCTAI0,38FC5CA0-5E00-48F4-BF15-6308AB52050D,2023-09-28_16h40.04.010,WP_VExplicitOC_LH,2022.2.5,Win32,10.4908677,NA,NA,NA,NA,NA,NA,NA,NA,NA,NA,NA,NA,NA,NA,NA,NA,NA,NA,NA,NA,NA,NA,NA,NA,NA,NA,NA,NA,NA,NA,NA,NA,NA,NA,NA,NA,NA,NA,NA,NA,NA,NA,NA,NA,NA,NA,NA,NA,NA,NA,NA,NA,NA,NA,14,0,14,0,1
SUPAMT61143,378XPAWRUICLRF9HEPIDL94PPCTAI0,38FC5CA0-5E00-48F4-BF15-6308AB52050D,2023-09-28_16h40.04.010,WP_VExplicitOC_LH,2022.2.5,Win32,10.4908677,NA,NA,NA,NA,NA,NA,NA,NA,NA,NA,NA,NA,NA,NA,NA,NA,NA,NA,NA,NA,NA,NA,NA,NA,NA,NA,NA,NA,NA,NA,NA,NA,NA,NA,NA,NA,NA,NA,NA,NA,NA,NA,NA,NA,NA,NA,NA,NA,NA,NA,NA,NA,NA,NA,NA,NA,NA,NA,NA
