participant,session,completion,date,expName,psychopyVersion,OS,frameRate,rating_all.response,rating_all.rt,rating_all.tStart,rndRat1.thisRepN,rndRat1.thisTrialN,rndRat1.thisN,rndRat1.thisIndex,rndRat1.ran,Emo,Labs,Labs2,rating_alt.response,rating_alt.rt,AltC.thisRepN,AltC.thisTrialN,AltC.thisN,AltC.thisIndex,AltC.ran,alt_choices,pic_choices,TopAlt_Choice,rndRat2.thisRepN,rndRat2.thisTrialN,rndRat2.thisN,rndRat2.thisIndex,rndRat2.ran,rndRat3.thisRepN,rndRat3.thisTrialN,rndRat3.thisN,rndRat3.thisIndex,rndRat3.ran,trials_FC_H.thisRepN,trials_FC_H.thisTrialN,trials_FC_H.thisN,trials_FC_H.thisIndex,trials_FC_H.ran,rating_alt_2.response,rating_alt_2.rt,AltC2.thisRepN,AltC2.thisTrialN,AltC2.thisN,AltC2.thisIndex,AltC2.ran,BottomAlt_Choice,rndRat4.thisRepN,rndRat4.thisTrialN,rndRat4.thisN,rndRat4.thisIndex,rndRat4.ran,rndRat5.thisRepN,rndRat5.thisTrialN,rndRat5.thisN,rndRat5.thisIndex,rndRat5.ran,trials_FC_L.thisRepN,trials_FC_L.thisTrialN,trials_FC_L.thisN,trials_FC_L.thisIndex,trials_FC_L.ran
SUPAMT75167,3R3YRB5GRL2Q064H867R4CS0JZGAUS,37BA4F52-5B1B-402E-B77D-D0FA93CCD224,2023-09-27_08h24.37.932,WP_VExplicitOC_HL,2022.2.5,Win32,22.19608017,NA,NA,NA,NA,NA,NA,NA,NA,NA,NA,NA,NA,NA,NA,NA,NA,NA,NA,NA,NA,NA,NA,NA,NA,NA,NA,NA,NA,NA,NA,NA,NA,NA,NA,NA,NA,NA,NA,NA,NA,NA,NA,NA,NA,NA,NA,NA,NA,NA,NA,NA,NA,NA,NA,NA,NA,NA,NA,NA
SUPAMT75167,3R3YRB5GRL2Q064H867R4CS0JZGAUS,37BA4F52-5B1B-402E-B77D-D0FA93CCD224,2023-09-27_08h24.37.932,WP_VExplicitOC_HL,2022.2.5,Win32,22.19608017,NA,NA,NA,NA,NA,NA,NA,NA,NA,NA,NA,NA,NA,NA,NA,NA,NA,NA,NA,NA,NA,NA,NA,NA,NA,NA,NA,NA,NA,NA,NA,NA,NA,NA,NA,NA,NA,NA,NA,NA,NA,NA,NA,NA,NA,NA,NA,NA,NA,NA,NA,NA,NA,NA,NA,NA,NA,NA,NA
SUPAMT75167,3R3YRB5GRL2Q064H867R4CS0JZGAUS,37BA4F52-5B1B-402E-B77D-D0FA93CCD224,2023-09-27_08h24.37.932,WP_VExplicitOC_HL,2022.2.5,Win32,22.19608017,NA,NA,NA,NA,NA,NA,NA,NA,NA,NA,NA,NA,NA,NA,NA,NA,NA,NA,NA,NA,NA,NA,NA,NA,NA,NA,NA,NA,NA,NA,NA,NA,NA,NA,NA,NA,NA,NA,NA,NA,NA,NA,NA,NA,NA,NA,NA,NA,NA,NA,NA,NA,NA,NA,NA,NA,NA,NA,NA
SUPAMT75167,3R3YRB5GRL2Q064H867R4CS0JZGAUS,37BA4F52-5B1B-402E-B77D-D0FA93CCD224,2023-09-27_08h24.37.932,WP_VExplicitOC_HL,2022.2.5,Win32,22.19608017,40.4296875,3.4114,2.0236,0,0,0,2,1,bored,"bored, not bored","more bored, less bored",NA,NA,NA,NA,NA,NA,NA,NA,NA,NA,NA,NA,NA,NA,NA,NA,NA,NA,NA,NA,NA,NA,NA,NA,NA,NA,NA,NA,NA,NA,NA,NA,NA,NA,NA,NA,NA,NA,NA,NA,NA,NA,NA,NA,NA,NA,NA,NA
SUPAMT75167,3R3YRB5GRL2Q064H867R4CS0JZGAUS,37BA4F52-5B1B-402E-B77D-D0FA93CCD224,2023-09-27_08h24.37.932,WP_VExplicitOC_HL,2022.2.5,Win32,22.19608017,37.6953125,2.2622,2.0323,0,1,1,0,1,happy,"unhappy, happy","less happy, more happy",NA,NA,NA,NA,NA,NA,NA,NA,NA,NA,NA,NA,NA,NA,NA,NA,NA,NA,NA,NA,NA,NA,NA,NA,NA,NA,NA,NA,NA,NA,NA,NA,NA,NA,NA,NA,NA,NA,NA,NA,NA,NA,NA,NA,NA,NA,NA,NA
SUPAMT75167,3R3YRB5GRL2Q064H867R4CS0JZGAUS,37BA4F52-5B1B-402E-B77D-D0FA93CCD224,2023-09-27_08h24.37.932,WP_VExplicitOC_HL,2022.2.5,Win32,22.19608017,40.4296875,2.7874,2.0005,0,2,2,1,1,frustrated,"frustrated, not frustrated","more frustrated, less frustrated",NA,NA,NA,NA,NA,NA,NA,NA,NA,NA,NA,NA,NA,NA,NA,NA,NA,NA,NA,NA,NA,NA,NA,NA,NA,NA,NA,NA,NA,NA,NA,NA,NA,NA,NA,NA,NA,NA,NA,NA,NA,NA,NA,NA,NA,NA,NA,NA
SUPAMT75167,3R3YRB5GRL2Q064H867R4CS0JZGAUS,37BA4F52-5B1B-402E-B77D-D0FA93CCD224,2023-09-27_08h24.37.932,WP_VExplicitOC_HL,2022.2.5,Win32,22.19608017,NA,NA,NA,NA,NA,NA,NA,NA,NA,NA,NA,NA,NA,NA,NA,NA,NA,NA,NA,NA,NA,NA,NA,NA,NA,NA,NA,NA,NA,NA,NA,NA,NA,NA,NA,NA,NA,NA,NA,NA,NA,NA,NA,NA,NA,NA,NA,NA,NA,NA,NA,NA,NA,NA,NA,NA,NA,NA,NA
SUPAMT75167,3R3YRB5GRL2Q064H867R4CS0JZGAUS,37BA4F52-5B1B-402E-B77D-D0FA93CCD224,2023-09-27_08h24.37.932,WP_VExplicitOC_HL,2022.2.5,Win32,22.19608017,NA,NA,NA,NA,NA,NA,NA,NA,NA,NA,NA,NA,NA,NA,NA,NA,NA,NA,NA,NA,NA,NA,NA,NA,NA,NA,NA,NA,NA,NA,NA,NA,NA,NA,NA,NA,NA,NA,NA,NA,NA,NA,NA,NA,NA,NA,NA,NA,NA,NA,NA,NA,NA,NA,NA,NA,NA,NA,NA
SUPAMT75167,3R3YRB5GRL2Q064H867R4CS0JZGAUS,37BA4F52-5B1B-402E-B77D-D0FA93CCD224,2023-09-27_08h24.37.932,WP_VExplicitOC_HL,2022.2.5,Win32,22.19608017,NA,NA,NA,NA,NA,NA,NA,NA,NA,NA,NA,NA,NA,NA,NA,NA,NA,NA,NA,NA,NA,NA,NA,NA,NA,NA,NA,NA,NA,NA,NA,NA,NA,NA,NA,NA,NA,NA,NA,NA,NA,NA,NA,NA,NA,NA,NA,NA,NA,NA,NA,NA,NA,NA,NA,NA,NA,NA,NA
SUPAMT75167,3R3YRB5GRL2Q064H867R4CS0JZGAUS,37BA4F52-5B1B-402E-B77D-D0FA93CCD224,2023-09-27_08h24.37.932,WP_VExplicitOC_HL,2022.2.5,Win32,22.19608017,NA,NA,NA,NA,NA,NA,NA,NA,NA,NA,NA,NA,NA,NA,NA,NA,NA,NA,NA,NA,NA,NA,NA,NA,NA,NA,NA,NA,NA,NA,NA,NA,NA,NA,NA,NA,NA,NA,NA,NA,NA,NA,NA,NA,NA,NA,NA,NA,NA,NA,NA,NA,NA,NA,NA,NA,NA,NA,NA
SUPAMT75167,3R3YRB5GRL2Q064H867R4CS0JZGAUS,37BA4F52-5B1B-402E-B77D-D0FA93CCD224,2023-09-27_08h24.37.932,WP_VExplicitOC_HL,2022.2.5,Win32,22.19608017,NA,NA,NA,NA,NA,NA,NA,NA,NA,NA,NA,23.046875,1.1731,0,0,0,0,1,rest (looking at a fixed cross),001.png,NA,NA,NA,NA,NA,NA,NA,NA,NA,NA,NA,NA,NA,NA,NA,NA,NA,NA,NA,NA,NA,NA,NA,NA,NA,NA,NA,NA,NA,NA,NA,NA,NA,NA,NA,NA,NA,NA,NA
SUPAMT75167,3R3YRB5GRL2Q064H867R4CS0JZGAUS,37BA4F52-5B1B-402E-B77D-D0FA93CCD224,2023-09-27_08h24.37.932,WP_VExplicitOC_HL,2022.2.5,Win32,22.19608017,NA,NA,NA,NA,NA,NA,NA,NA,NA,NA,NA,-31.8359375,0.7572,0,1,1,1,1,stand up,002.png,NA,NA,NA,NA,NA,NA,NA,NA,NA,NA,NA,NA,NA,NA,NA,NA,NA,NA,NA,NA,NA,NA,NA,NA,NA,NA,NA,NA,NA,NA,NA,NA,NA,NA,NA,NA,NA,NA,NA
SUPAMT75167,3R3YRB5GRL2Q064H867R4CS0JZGAUS,37BA4F52-5B1B-402E-B77D-D0FA93CCD224,2023-09-27_08h24.37.932,WP_VExplicitOC_HL,2022.2.5,Win32,22.19608017,NA,NA,NA,NA,NA,NA,NA,NA,NA,NA,NA,20.5078125,0.7722,0,2,2,2,1,stretch,003.png,NA,NA,NA,NA,NA,NA,NA,NA,NA,NA,NA,NA,NA,NA,NA,NA,NA,NA,NA,NA,NA,NA,NA,NA,NA,NA,NA,NA,NA,NA,NA,NA,NA,NA,NA,NA,NA,NA,NA
SUPAMT75167,3R3YRB5GRL2Q064H867R4CS0JZGAUS,37BA4F52-5B1B-402E-B77D-D0FA93CCD224,2023-09-27_08h24.37.932,WP_VExplicitOC_HL,2022.2.5,Win32,22.19608017,NA,NA,NA,NA,NA,NA,NA,NA,NA,NA,NA,28.125,1.3006,0,3,3,3,1,make a drink,004.png,NA,NA,NA,NA,NA,NA,NA,NA,NA,NA,NA,NA,NA,NA,NA,NA,NA,NA,NA,NA,NA,NA,NA,NA,NA,NA,NA,NA,NA,NA,NA,NA,NA,NA,NA,NA,NA,NA,NA
SUPAMT75167,3R3YRB5GRL2Q064H867R4CS0JZGAUS,37BA4F52-5B1B-402E-B77D-D0FA93CCD224,2023-09-27_08h24.37.932,WP_VExplicitOC_HL,2022.2.5,Win32,22.19608017,NA,NA,NA,NA,NA,NA,NA,NA,NA,NA,NA,31.8359375,0.8417,0,4,4,4,1,scroll social media,005.png,NA,NA,NA,NA,NA,NA,NA,NA,NA,NA,NA,NA,NA,NA,NA,NA,NA,NA,NA,NA,NA,NA,NA,NA,NA,NA,NA,NA,NA,NA,NA,NA,NA,NA,NA,NA,NA,NA,NA
SUPAMT75167,3R3YRB5GRL2Q064H867R4CS0JZGAUS,37BA4F52-5B1B-402E-B77D-D0FA93CCD224,2023-09-27_08h24.37.932,WP_VExplicitOC_HL,2022.2.5,Win32,22.19608017,NA,NA,NA,NA,NA,NA,NA,NA,NA,NA,NA,-38.671875,0.7307,0,5,5,5,1,listen to music,006.png,NA,NA,NA,NA,NA,NA,NA,NA,NA,NA,NA,NA,NA,NA,NA,NA,NA,NA,NA,NA,NA,NA,NA,NA,NA,NA,NA,NA,NA,NA,NA,NA,NA,NA,NA,NA,NA,NA,NA
SUPAMT75167,3R3YRB5GRL2Q064H867R4CS0JZGAUS,37BA4F52-5B1B-402E-B77D-D0FA93CCD224,2023-09-27_08h24.37.932,WP_VExplicitOC_HL,2022.2.5,Win32,22.19608017,NA,NA,NA,NA,NA,NA,NA,NA,NA,NA,NA,22.4609375,0.8085,0,6,6,6,1,daydream,007.png,NA,NA,NA,NA,NA,NA,NA,NA,NA,NA,NA,NA,NA,NA,NA,NA,NA,NA,NA,NA,NA,NA,NA,NA,NA,NA,NA,NA,NA,NA,NA,NA,NA,NA,NA,NA,NA,NA,NA
SUPAMT75167,3R3YRB5GRL2Q064H867R4CS0JZGAUS,37BA4F52-5B1B-402E-B77D-D0FA93CCD224,2023-09-27_08h24.37.932,WP_VExplicitOC_HL,2022.2.5,Win32,22.19608017,NA,NA,NA,NA,NA,NA,NA,NA,NA,NA,NA,22.8515625,0.6085,0,7,7,7,1,watch a short animation,008.png,NA,NA,NA,NA,NA,NA,NA,NA,NA,NA,NA,NA,NA,NA,NA,NA,NA,NA,NA,NA,NA,NA,NA,NA,NA,NA,NA,NA,NA,NA,NA,NA,NA,NA,NA,NA,NA,NA,NA
SUPAMT75167,3R3YRB5GRL2Q064H867R4CS0JZGAUS,37BA4F52-5B1B-402E-B77D-D0FA93CCD224,2023-09-27_08h24.37.932,WP_VExplicitOC_HL,2022.2.5,Win32,22.19608017,NA,NA,NA,NA,NA,NA,NA,NA,NA,NA,NA,-22.65625,0.8304,0,8,8,8,1,read a novel,009.png,NA,NA,NA,NA,NA,NA,NA,NA,NA,NA,NA,NA,NA,NA,NA,NA,NA,NA,NA,NA,NA,NA,NA,NA,NA,NA,NA,NA,NA,NA,NA,NA,NA,NA,NA,NA,NA,NA,NA
SUPAMT75167,3R3YRB5GRL2Q064H867R4CS0JZGAUS,37BA4F52-5B1B-402E-B77D-D0FA93CCD224,2023-09-27_08h24.37.932,WP_VExplicitOC_HL,2022.2.5,Win32,22.19608017,NA,NA,NA,NA,NA,NA,NA,NA,NA,NA,NA,27.34375,0.7087,0,9,9,9,1,read the news,010.png,NA,NA,NA,NA,NA,NA,NA,NA,NA,NA,NA,NA,NA,NA,NA,NA,NA,NA,NA,NA,NA,NA,NA,NA,NA,NA,NA,NA,NA,NA,NA,NA,NA,NA,NA,NA,NA,NA,NA
SUPAMT75167,3R3YRB5GRL2Q064H867R4CS0JZGAUS,37BA4F52-5B1B-402E-B77D-D0FA93CCD224,2023-09-27_08h24.37.932,WP_VExplicitOC_HL,2022.2.5,Win32,22.19608017,NA,NA,NA,NA,NA,NA,NA,NA,NA,NA,NA,NA,NA,NA,NA,NA,NA,NA,NA,NA,NA,NA,NA,NA,NA,NA,NA,NA,NA,NA,NA,NA,NA,NA,NA,NA,NA,NA,NA,NA,NA,NA,NA,NA,NA,NA,NA,NA,NA,NA,NA,NA,NA,NA,NA,NA,NA,NA,NA
SUPAMT75167,3R3YRB5GRL2Q064H867R4CS0JZGAUS,37BA4F52-5B1B-402E-B77D-D0FA93CCD224,2023-09-27_08h24.37.932,WP_VExplicitOC_HL,2022.2.5,Win32,22.19608017,NA,NA,NA,NA,NA,NA,NA,NA,NA,NA,NA,NA,NA,NA,NA,NA,NA,NA,NA,NA,scroll social media,NA,NA,NA,NA,NA,NA,NA,NA,NA,NA,NA,NA,NA,NA,NA,NA,NA,NA,NA,NA,NA,NA,NA,NA,NA,NA,NA,NA,NA,NA,NA,NA,NA,NA,NA,NA,NA,NA
SUPAMT75167,3R3YRB5GRL2Q064H867R4CS0JZGAUS,37BA4F52-5B1B-402E-B77D-D0FA93CCD224,2023-09-27_08h24.37.932,WP_VExplicitOC_HL,2022.2.5,Win32,22.19608017,35.15625,3.2867,2.0458,NA,NA,NA,NA,NA,bored,"bored, not bored","more bored, less bored",NA,NA,NA,NA,NA,NA,NA,NA,NA,NA,0,0,0,2,1,NA,NA,NA,NA,NA,NA,NA,NA,NA,NA,NA,NA,NA,NA,NA,NA,NA,NA,NA,NA,NA,NA,NA,NA,NA,NA,NA,NA,NA,NA,NA,NA,NA
SUPAMT75167,3R3YRB5GRL2Q064H867R4CS0JZGAUS,37BA4F52-5B1B-402E-B77D-D0FA93CCD224,2023-09-27_08h24.37.932,WP_VExplicitOC_HL,2022.2.5,Win32,22.19608017,37.5,3.0989,2.0166,NA,NA,NA,NA,NA,frustrated,"frustrated, not frustrated","more frustrated, less frustrated",NA,NA,NA,NA,NA,NA,NA,NA,NA,NA,0,1,1,1,1,NA,NA,NA,NA,NA,NA,NA,NA,NA,NA,NA,NA,NA,NA,NA,NA,NA,NA,NA,NA,NA,NA,NA,NA,NA,NA,NA,NA,NA,NA,NA,NA,NA
SUPAMT75167,3R3YRB5GRL2Q064H867R4CS0JZGAUS,37BA4F52-5B1B-402E-B77D-D0FA93CCD224,2023-09-27_08h24.37.932,WP_VExplicitOC_HL,2022.2.5,Win32,22.19608017,51.7578125,2.4726,2.0279,NA,NA,NA,NA,NA,happy,"unhappy, happy","less happy, more happy",NA,NA,NA,NA,NA,NA,NA,NA,NA,NA,0,2,2,0,1,NA,NA,NA,NA,NA,NA,NA,NA,NA,NA,NA,NA,NA,NA,NA,NA,NA,NA,NA,NA,NA,NA,NA,NA,NA,NA,NA,NA,NA,NA,NA,NA,NA
SUPAMT75167,3R3YRB5GRL2Q064H867R4CS0JZGAUS,37BA4F52-5B1B-402E-B77D-D0FA93CCD224,2023-09-27_08h24.37.932,WP_VExplicitOC_HL,2022.2.5,Win32,22.19608017,NA,NA,NA,NA,NA,NA,NA,NA,NA,NA,NA,NA,NA,NA,NA,NA,NA,NA,NA,NA,NA,NA,NA,NA,NA,NA,NA,NA,NA,NA,NA,NA,NA,NA,NA,NA,NA,NA,NA,NA,NA,NA,NA,NA,NA,NA,NA,NA,NA,NA,NA,NA,NA,NA,NA,NA,NA,NA,NA
SUPAMT75167,3R3YRB5GRL2Q064H867R4CS0JZGAUS,37BA4F52-5B1B-402E-B77D-D0FA93CCD224,2023-09-27_08h24.37.932,WP_VExplicitOC_HL,2022.2.5,Win32,22.19608017,NA,NA,NA,NA,NA,NA,NA,NA,NA,NA,NA,NA,NA,NA,NA,NA,NA,NA,NA,NA,NA,NA,NA,NA,NA,NA,NA,NA,NA,NA,NA,NA,NA,NA,NA,NA,NA,NA,NA,NA,NA,NA,NA,NA,NA,NA,NA,NA,NA,NA,NA,NA,NA,NA,NA,NA,NA,NA,NA
SUPAMT75167,3R3YRB5GRL2Q064H867R4CS0JZGAUS,37BA4F52-5B1B-402E-B77D-D0FA93CCD224,2023-09-27_08h24.37.932,WP_VExplicitOC_HL,2022.2.5,Win32,22.19608017,NA,NA,2.0283,NA,NA,NA,NA,NA,happy,"unhappy, happy","less happy, more happy",NA,NA,NA,NA,NA,NA,NA,NA,NA,NA,NA,NA,NA,NA,NA,0,0,0,0,1,NA,NA,NA,NA,NA,NA,NA,NA,NA,NA,NA,NA,NA,NA,NA,NA,NA,NA,NA,NA,NA,NA,NA,NA,NA,NA,NA,NA
SUPAMT75167,3R3YRB5GRL2Q064H867R4CS0JZGAUS,37BA4F52-5B1B-402E-B77D-D0FA93CCD224,2023-09-27_08h24.37.932,WP_VExplicitOC_HL,2022.2.5,Win32,22.19608017,NA,NA,2.0255,NA,NA,NA,NA,NA,frustrated,"frustrated, not frustrated","more frustrated, less frustrated",NA,NA,NA,NA,NA,NA,NA,NA,NA,NA,NA,NA,NA,NA,NA,0,1,1,1,1,NA,NA,NA,NA,NA,NA,NA,NA,NA,NA,NA,NA,NA,NA,NA,NA,NA,NA,NA,NA,NA,NA,NA,NA,NA,NA,NA,NA
SUPAMT75167,3R3YRB5GRL2Q064H867R4CS0JZGAUS,37BA4F52-5B1B-402E-B77D-D0FA93CCD224,2023-09-27_08h24.37.932,WP_VExplicitOC_HL,2022.2.5,Win32,22.19608017,NA,NA,2.0246,NA,NA,NA,NA,NA,bored,"bored, not bored","more bored, less bored",NA,NA,NA,NA,NA,NA,NA,NA,NA,NA,NA,NA,NA,NA,NA,0,2,2,2,1,NA,NA,NA,NA,NA,NA,NA,NA,NA,NA,NA,NA,NA,NA,NA,NA,NA,NA,NA,NA,NA,NA,NA,NA,NA,NA,NA,NA
SUPAMT75167,3R3YRB5GRL2Q064H867R4CS0JZGAUS,37BA4F52-5B1B-402E-B77D-D0FA93CCD224,2023-09-27_08h24.37.932,WP_VExplicitOC_HL,2022.2.5,Win32,22.19608017,NA,NA,NA,NA,NA,NA,NA,NA,NA,NA,NA,NA,NA,NA,NA,NA,NA,NA,NA,NA,NA,NA,NA,NA,NA,NA,NA,NA,NA,NA,NA,0,0,0,0,1,NA,NA,NA,NA,NA,NA,NA,NA,NA,NA,NA,NA,NA,NA,NA,NA,NA,NA,NA,NA,NA,NA,NA
SUPAMT75167,3R3YRB5GRL2Q064H867R4CS0JZGAUS,37BA4F52-5B1B-402E-B77D-D0FA93CCD224,2023-09-27_08h24.37.932,WP_VExplicitOC_HL,2022.2.5,Win32,22.19608017,37.109375,3.0525,2.0497,NA,NA,NA,NA,NA,happy,"unhappy, happy","less happy, more happy",NA,NA,NA,NA,NA,NA,NA,NA,NA,NA,NA,NA,NA,NA,NA,0,0,0,0,1,NA,NA,NA,NA,NA,NA,NA,NA,NA,NA,NA,NA,NA,NA,NA,NA,NA,NA,NA,NA,NA,NA,NA,NA,NA,NA,NA,NA
SUPAMT75167,3R3YRB5GRL2Q064H867R4CS0JZGAUS,37BA4F52-5B1B-402E-B77D-D0FA93CCD224,2023-09-27_08h24.37.932,WP_VExplicitOC_HL,2022.2.5,Win32,22.19608017,46.875,2.9883,2.015,NA,NA,NA,NA,NA,bored,"bored, not bored","more bored, less bored",NA,NA,NA,NA,NA,NA,NA,NA,NA,NA,NA,NA,NA,NA,NA,0,1,1,2,1,NA,NA,NA,NA,NA,NA,NA,NA,NA,NA,NA,NA,NA,NA,NA,NA,NA,NA,NA,NA,NA,NA,NA,NA,NA,NA,NA,NA
SUPAMT75167,3R3YRB5GRL2Q064H867R4CS0JZGAUS,37BA4F52-5B1B-402E-B77D-D0FA93CCD224,2023-09-27_08h24.37.932,WP_VExplicitOC_HL,2022.2.5,Win32,22.19608017,47.8515625,3.2903,2.0037,NA,NA,NA,NA,NA,frustrated,"frustrated, not frustrated","more frustrated, less frustrated",NA,NA,NA,NA,NA,NA,NA,NA,NA,NA,NA,NA,NA,NA,NA,0,2,2,1,1,NA,NA,NA,NA,NA,NA,NA,NA,NA,NA,NA,NA,NA,NA,NA,NA,NA,NA,NA,NA,NA,NA,NA,NA,NA,NA,NA,NA
SUPAMT75167,3R3YRB5GRL2Q064H867R4CS0JZGAUS,37BA4F52-5B1B-402E-B77D-D0FA93CCD224,2023-09-27_08h24.37.932,WP_VExplicitOC_HL,2022.2.5,Win32,22.19608017,NA,NA,NA,NA,NA,NA,NA,NA,NA,NA,NA,NA,NA,NA,NA,NA,NA,NA,NA,NA,NA,NA,NA,NA,NA,NA,NA,NA,NA,NA,NA,1,0,1,0,1,NA,NA,NA,NA,NA,NA,NA,NA,NA,NA,NA,NA,NA,NA,NA,NA,NA,NA,NA,NA,NA,NA,NA
SUPAMT75167,3R3YRB5GRL2Q064H867R4CS0JZGAUS,37BA4F52-5B1B-402E-B77D-D0FA93CCD224,2023-09-27_08h24.37.932,WP_VExplicitOC_HL,2022.2.5,Win32,22.19608017,36.1328125,3.4983,2.0123,NA,NA,NA,NA,NA,frustrated,"frustrated, not frustrated","more frustrated, less frustrated",NA,NA,NA,NA,NA,NA,NA,NA,NA,NA,NA,NA,NA,NA,NA,0,0,0,1,1,NA,NA,NA,NA,NA,NA,NA,NA,NA,NA,NA,NA,NA,NA,NA,NA,NA,NA,NA,NA,NA,NA,NA,NA,NA,NA,NA,NA
SUPAMT75167,3R3YRB5GRL2Q064H867R4CS0JZGAUS,37BA4F52-5B1B-402E-B77D-D0FA93CCD224,2023-09-27_08h24.37.932,WP_VExplicitOC_HL,2022.2.5,Win32,22.19608017,36.1328125,2.4838,2.0158,NA,NA,NA,NA,NA,bored,"bored, not bored","more bored, less bored",NA,NA,NA,NA,NA,NA,NA,NA,NA,NA,NA,NA,NA,NA,NA,0,1,1,2,1,NA,NA,NA,NA,NA,NA,NA,NA,NA,NA,NA,NA,NA,NA,NA,NA,NA,NA,NA,NA,NA,NA,NA,NA,NA,NA,NA,NA
SUPAMT75167,3R3YRB5GRL2Q064H867R4CS0JZGAUS,37BA4F52-5B1B-402E-B77D-D0FA93CCD224,2023-09-27_08h24.37.932,WP_VExplicitOC_HL,2022.2.5,Win32,22.19608017,36.1328125,3.0727,2.0032,NA,NA,NA,NA,NA,happy,"unhappy, happy","less happy, more happy",NA,NA,NA,NA,NA,NA,NA,NA,NA,NA,NA,NA,NA,NA,NA,0,2,2,0,1,NA,NA,NA,NA,NA,NA,NA,NA,NA,NA,NA,NA,NA,NA,NA,NA,NA,NA,NA,NA,NA,NA,NA,NA,NA,NA,NA,NA
SUPAMT75167,3R3YRB5GRL2Q064H867R4CS0JZGAUS,37BA4F52-5B1B-402E-B77D-D0FA93CCD224,2023-09-27_08h24.37.932,WP_VExplicitOC_HL,2022.2.5,Win32,22.19608017,NA,NA,NA,NA,NA,NA,NA,NA,NA,NA,NA,NA,NA,NA,NA,NA,NA,NA,NA,NA,NA,NA,NA,NA,NA,NA,NA,NA,NA,NA,NA,2,0,2,0,1,NA,NA,NA,NA,NA,NA,NA,NA,NA,NA,NA,NA,NA,NA,NA,NA,NA,NA,NA,NA,NA,NA,NA
SUPAMT75167,3R3YRB5GRL2Q064H867R4CS0JZGAUS,37BA4F52-5B1B-402E-B77D-D0FA93CCD224,2023-09-27_08h24.37.932,WP_VExplicitOC_HL,2022.2.5,Win32,22.19608017,40.625,5.1536,2.0397,NA,NA,NA,NA,NA,frustrated,"frustrated, not frustrated","more frustrated, less frustrated",NA,NA,NA,NA,NA,NA,NA,NA,NA,NA,NA,NA,NA,NA,NA,0,0,0,1,1,NA,NA,NA,NA,NA,NA,NA,NA,NA,NA,NA,NA,NA,NA,NA,NA,NA,NA,NA,NA,NA,NA,NA,NA,NA,NA,NA,NA
SUPAMT75167,3R3YRB5GRL2Q064H867R4CS0JZGAUS,37BA4F52-5B1B-402E-B77D-D0FA93CCD224,2023-09-27_08h24.37.932,WP_VExplicitOC_HL,2022.2.5,Win32,22.19608017,40.625,2.6099,2.0518,NA,NA,NA,NA,NA,bored,"bored, not bored","more bored, less bored",NA,NA,NA,NA,NA,NA,NA,NA,NA,NA,NA,NA,NA,NA,NA,0,1,1,2,1,NA,NA,NA,NA,NA,NA,NA,NA,NA,NA,NA,NA,NA,NA,NA,NA,NA,NA,NA,NA,NA,NA,NA,NA,NA,NA,NA,NA
SUPAMT75167,3R3YRB5GRL2Q064H867R4CS0JZGAUS,37BA4F52-5B1B-402E-B77D-D0FA93CCD224,2023-09-27_08h24.37.932,WP_VExplicitOC_HL,2022.2.5,Win32,22.19608017,40.625,2.9019,2.0016,NA,NA,NA,NA,NA,happy,"unhappy, happy","less happy, more happy",NA,NA,NA,NA,NA,NA,NA,NA,NA,NA,NA,NA,NA,NA,NA,0,2,2,0,1,NA,NA,NA,NA,NA,NA,NA,NA,NA,NA,NA,NA,NA,NA,NA,NA,NA,NA,NA,NA,NA,NA,NA,NA,NA,NA,NA,NA
SUPAMT75167,3R3YRB5GRL2Q064H867R4CS0JZGAUS,37BA4F52-5B1B-402E-B77D-D0FA93CCD224,2023-09-27_08h24.37.932,WP_VExplicitOC_HL,2022.2.5,Win32,22.19608017,NA,NA,NA,NA,NA,NA,NA,NA,NA,NA,NA,NA,NA,NA,NA,NA,NA,NA,NA,NA,NA,NA,NA,NA,NA,NA,NA,NA,NA,NA,NA,3,0,3,0,1,NA,NA,NA,NA,NA,NA,NA,NA,NA,NA,NA,NA,NA,NA,NA,NA,NA,NA,NA,NA,NA,NA,NA
SUPAMT75167,3R3YRB5GRL2Q064H867R4CS0JZGAUS,37BA4F52-5B1B-402E-B77D-D0FA93CCD224,2023-09-27_08h24.37.932,WP_VExplicitOC_HL,2022.2.5,Win32,22.19608017,33.203125,6.957,2.027,NA,NA,NA,NA,NA,happy,"unhappy, happy","less happy, more happy",NA,NA,NA,NA,NA,NA,NA,NA,NA,NA,NA,NA,NA,NA,NA,0,0,0,0,1,NA,NA,NA,NA,NA,NA,NA,NA,NA,NA,NA,NA,NA,NA,NA,NA,NA,NA,NA,NA,NA,NA,NA,NA,NA,NA,NA,NA
SUPAMT75167,3R3YRB5GRL2Q064H867R4CS0JZGAUS,37BA4F52-5B1B-402E-B77D-D0FA93CCD224,2023-09-27_08h24.37.932,WP_VExplicitOC_HL,2022.2.5,Win32,22.19608017,46.484375,2.8548,2.0455,NA,NA,NA,NA,NA,bored,"bored, not bored","more bored, less bored",NA,NA,NA,NA,NA,NA,NA,NA,NA,NA,NA,NA,NA,NA,NA,0,1,1,2,1,NA,NA,NA,NA,NA,NA,NA,NA,NA,NA,NA,NA,NA,NA,NA,NA,NA,NA,NA,NA,NA,NA,NA,NA,NA,NA,NA,NA
SUPAMT75167,3R3YRB5GRL2Q064H867R4CS0JZGAUS,37BA4F52-5B1B-402E-B77D-D0FA93CCD224,2023-09-27_08h24.37.932,WP_VExplicitOC_HL,2022.2.5,Win32,22.19608017,28.7109375,2.967,2.0278,NA,NA,NA,NA,NA,frustrated,"frustrated, not frustrated","more frustrated, less frustrated",NA,NA,NA,NA,NA,NA,NA,NA,NA,NA,NA,NA,NA,NA,NA,0,2,2,1,1,NA,NA,NA,NA,NA,NA,NA,NA,NA,NA,NA,NA,NA,NA,NA,NA,NA,NA,NA,NA,NA,NA,NA,NA,NA,NA,NA,NA
SUPAMT75167,3R3YRB5GRL2Q064H867R4CS0JZGAUS,37BA4F52-5B1B-402E-B77D-D0FA93CCD224,2023-09-27_08h24.37.932,WP_VExplicitOC_HL,2022.2.5,Win32,22.19608017,NA,NA,NA,NA,NA,NA,NA,NA,NA,NA,NA,NA,NA,NA,NA,NA,NA,NA,NA,NA,NA,NA,NA,NA,NA,NA,NA,NA,NA,NA,NA,4,0,4,0,1,NA,NA,NA,NA,NA,NA,NA,NA,NA,NA,NA,NA,NA,NA,NA,NA,NA,NA,NA,NA,NA,NA,NA
SUPAMT75167,3R3YRB5GRL2Q064H867R4CS0JZGAUS,37BA4F52-5B1B-402E-B77D-D0FA93CCD224,2023-09-27_08h24.37.932,WP_VExplicitOC_HL,2022.2.5,Win32,22.19608017,43.359375,4.9521,2.0088,NA,NA,NA,NA,NA,happy,"unhappy, happy","less happy, more happy",NA,NA,NA,NA,NA,NA,NA,NA,NA,NA,NA,NA,NA,NA,NA,0,0,0,0,1,NA,NA,NA,NA,NA,NA,NA,NA,NA,NA,NA,NA,NA,NA,NA,NA,NA,NA,NA,NA,NA,NA,NA,NA,NA,NA,NA,NA
SUPAMT75167,3R3YRB5GRL2Q064H867R4CS0JZGAUS,37BA4F52-5B1B-402E-B77D-D0FA93CCD224,2023-09-27_08h24.37.932,WP_VExplicitOC_HL,2022.2.5,Win32,22.19608017,42.7734375,3.0184,2.043,NA,NA,NA,NA,NA,bored,"bored, not bored","more bored, less bored",NA,NA,NA,NA,NA,NA,NA,NA,NA,NA,NA,NA,NA,NA,NA,0,1,1,2,1,NA,NA,NA,NA,NA,NA,NA,NA,NA,NA,NA,NA,NA,NA,NA,NA,NA,NA,NA,NA,NA,NA,NA,NA,NA,NA,NA,NA
SUPAMT75167,3R3YRB5GRL2Q064H867R4CS0JZGAUS,37BA4F52-5B1B-402E-B77D-D0FA93CCD224,2023-09-27_08h24.37.932,WP_VExplicitOC_HL,2022.2.5,Win32,22.19608017,44.3359375,2.8972,2.0511,NA,NA,NA,NA,NA,frustrated,"frustrated, not frustrated","more frustrated, less frustrated",NA,NA,NA,NA,NA,NA,NA,NA,NA,NA,NA,NA,NA,NA,NA,0,2,2,1,1,NA,NA,NA,NA,NA,NA,NA,NA,NA,NA,NA,NA,NA,NA,NA,NA,NA,NA,NA,NA,NA,NA,NA,NA,NA,NA,NA,NA
SUPAMT75167,3R3YRB5GRL2Q064H867R4CS0JZGAUS,37BA4F52-5B1B-402E-B77D-D0FA93CCD224,2023-09-27_08h24.37.932,WP_VExplicitOC_HL,2022.2.5,Win32,22.19608017,NA,NA,NA,NA,NA,NA,NA,NA,NA,NA,NA,NA,NA,NA,NA,NA,NA,NA,NA,NA,NA,NA,NA,NA,NA,NA,NA,NA,NA,NA,NA,5,0,5,0,1,NA,NA,NA,NA,NA,NA,NA,NA,NA,NA,NA,NA,NA,NA,NA,NA,NA,NA,NA,NA,NA,NA,NA
SUPAMT75167,3R3YRB5GRL2Q064H867R4CS0JZGAUS,37BA4F52-5B1B-402E-B77D-D0FA93CCD224,2023-09-27_08h24.37.932,WP_VExplicitOC_HL,2022.2.5,Win32,22.19608017,24.609375,2.8675,2.0065,NA,NA,NA,NA,NA,bored,"bored, not bored","more bored, less bored",NA,NA,NA,NA,NA,NA,NA,NA,NA,NA,NA,NA,NA,NA,NA,0,0,0,2,1,NA,NA,NA,NA,NA,NA,NA,NA,NA,NA,NA,NA,NA,NA,NA,NA,NA,NA,NA,NA,NA,NA,NA,NA,NA,NA,NA,NA
SUPAMT75167,3R3YRB5GRL2Q064H867R4CS0JZGAUS,37BA4F52-5B1B-402E-B77D-D0FA93CCD224,2023-09-27_08h24.37.932,WP_VExplicitOC_HL,2022.2.5,Win32,22.19608017,24.609375,2.5079,2.0067,NA,NA,NA,NA,NA,happy,"unhappy, happy","less happy, more happy",NA,NA,NA,NA,NA,NA,NA,NA,NA,NA,NA,NA,NA,NA,NA,0,1,1,0,1,NA,NA,NA,NA,NA,NA,NA,NA,NA,NA,NA,NA,NA,NA,NA,NA,NA,NA,NA,NA,NA,NA,NA,NA,NA,NA,NA,NA
SUPAMT75167,3R3YRB5GRL2Q064H867R4CS0JZGAUS,37BA4F52-5B1B-402E-B77D-D0FA93CCD224,2023-09-27_08h24.37.932,WP_VExplicitOC_HL,2022.2.5,Win32,22.19608017,35.546875,2.2136,2.0287,NA,NA,NA,NA,NA,frustrated,"frustrated, not frustrated","more frustrated, less frustrated",NA,NA,NA,NA,NA,NA,NA,NA,NA,NA,NA,NA,NA,NA,NA,0,2,2,1,1,NA,NA,NA,NA,NA,NA,NA,NA,NA,NA,NA,NA,NA,NA,NA,NA,NA,NA,NA,NA,NA,NA,NA,NA,NA,NA,NA,NA
SUPAMT75167,3R3YRB5GRL2Q064H867R4CS0JZGAUS,37BA4F52-5B1B-402E-B77D-D0FA93CCD224,2023-09-27_08h24.37.932,WP_VExplicitOC_HL,2022.2.5,Win32,22.19608017,NA,NA,NA,NA,NA,NA,NA,NA,NA,NA,NA,NA,NA,NA,NA,NA,NA,NA,NA,NA,NA,NA,NA,NA,NA,NA,NA,NA,NA,NA,NA,6,0,6,0,1,NA,NA,NA,NA,NA,NA,NA,NA,NA,NA,NA,NA,NA,NA,NA,NA,NA,NA,NA,NA,NA,NA,NA
SUPAMT75167,3R3YRB5GRL2Q064H867R4CS0JZGAUS,37BA4F52-5B1B-402E-B77D-D0FA93CCD224,2023-09-27_08h24.37.932,WP_VExplicitOC_HL,2022.2.5,Win32,22.19608017,35.3515625,2.5764,2.0212,NA,NA,NA,NA,NA,happy,"unhappy, happy","less happy, more happy",NA,NA,NA,NA,NA,NA,NA,NA,NA,NA,NA,NA,NA,NA,NA,0,0,0,0,1,NA,NA,NA,NA,NA,NA,NA,NA,NA,NA,NA,NA,NA,NA,NA,NA,NA,NA,NA,NA,NA,NA,NA,NA,NA,NA,NA,NA
SUPAMT75167,3R3YRB5GRL2Q064H867R4CS0JZGAUS,37BA4F52-5B1B-402E-B77D-D0FA93CCD224,2023-09-27_08h24.37.932,WP_VExplicitOC_HL,2022.2.5,Win32,22.19608017,37.5,2.3018,2.0076,NA,NA,NA,NA,NA,bored,"bored, not bored","more bored, less bored",NA,NA,NA,NA,NA,NA,NA,NA,NA,NA,NA,NA,NA,NA,NA,0,1,1,2,1,NA,NA,NA,NA,NA,NA,NA,NA,NA,NA,NA,NA,NA,NA,NA,NA,NA,NA,NA,NA,NA,NA,NA,NA,NA,NA,NA,NA
SUPAMT75167,3R3YRB5GRL2Q064H867R4CS0JZGAUS,37BA4F52-5B1B-402E-B77D-D0FA93CCD224,2023-09-27_08h24.37.932,WP_VExplicitOC_HL,2022.2.5,Win32,22.19608017,37.5,2.8348,2.0257,NA,NA,NA,NA,NA,frustrated,"frustrated, not frustrated","more frustrated, less frustrated",NA,NA,NA,NA,NA,NA,NA,NA,NA,NA,NA,NA,NA,NA,NA,0,2,2,1,1,NA,NA,NA,NA,NA,NA,NA,NA,NA,NA,NA,NA,NA,NA,NA,NA,NA,NA,NA,NA,NA,NA,NA,NA,NA,NA,NA,NA
SUPAMT75167,3R3YRB5GRL2Q064H867R4CS0JZGAUS,37BA4F52-5B1B-402E-B77D-D0FA93CCD224,2023-09-27_08h24.37.932,WP_VExplicitOC_HL,2022.2.5,Win32,22.19608017,NA,NA,NA,NA,NA,NA,NA,NA,NA,NA,NA,NA,NA,NA,NA,NA,NA,NA,NA,NA,NA,NA,NA,NA,NA,NA,NA,NA,NA,NA,NA,7,0,7,0,1,NA,NA,NA,NA,NA,NA,NA,NA,NA,NA,NA,NA,NA,NA,NA,NA,NA,NA,NA,NA,NA,NA,NA
SUPAMT75167,3R3YRB5GRL2Q064H867R4CS0JZGAUS,37BA4F52-5B1B-402E-B77D-D0FA93CCD224,2023-09-27_08h24.37.932,WP_VExplicitOC_HL,2022.2.5,Win32,22.19608017,36.5234375,3.0505,2.0535,NA,NA,NA,NA,NA,happy,"unhappy, happy","less happy, more happy",NA,NA,NA,NA,NA,NA,NA,NA,NA,NA,NA,NA,NA,NA,NA,0,0,0,0,1,NA,NA,NA,NA,NA,NA,NA,NA,NA,NA,NA,NA,NA,NA,NA,NA,NA,NA,NA,NA,NA,NA,NA,NA,NA,NA,NA,NA
SUPAMT75167,3R3YRB5GRL2Q064H867R4CS0JZGAUS,37BA4F52-5B1B-402E-B77D-D0FA93CCD224,2023-09-27_08h24.37.932,WP_VExplicitOC_HL,2022.2.5,Win32,22.19608017,39.2578125,2.553,2.0106,NA,NA,NA,NA,NA,frustrated,"frustrated, not frustrated","more frustrated, less frustrated",NA,NA,NA,NA,NA,NA,NA,NA,NA,NA,NA,NA,NA,NA,NA,0,1,1,1,1,NA,NA,NA,NA,NA,NA,NA,NA,NA,NA,NA,NA,NA,NA,NA,NA,NA,NA,NA,NA,NA,NA,NA,NA,NA,NA,NA,NA
SUPAMT75167,3R3YRB5GRL2Q064H867R4CS0JZGAUS,37BA4F52-5B1B-402E-B77D-D0FA93CCD224,2023-09-27_08h24.37.932,WP_VExplicitOC_HL,2022.2.5,Win32,22.19608017,39.453125,3.2189,2.0513,NA,NA,NA,NA,NA,bored,"bored, not bored","more bored, less bored",NA,NA,NA,NA,NA,NA,NA,NA,NA,NA,NA,NA,NA,NA,NA,0,2,2,2,1,NA,NA,NA,NA,NA,NA,NA,NA,NA,NA,NA,NA,NA,NA,NA,NA,NA,NA,NA,NA,NA,NA,NA,NA,NA,NA,NA,NA
SUPAMT75167,3R3YRB5GRL2Q064H867R4CS0JZGAUS,37BA4F52-5B1B-402E-B77D-D0FA93CCD224,2023-09-27_08h24.37.932,WP_VExplicitOC_HL,2022.2.5,Win32,22.19608017,NA,NA,NA,NA,NA,NA,NA,NA,NA,NA,NA,NA,NA,NA,NA,NA,NA,NA,NA,NA,NA,NA,NA,NA,NA,NA,NA,NA,NA,NA,NA,8,0,8,0,1,NA,NA,NA,NA,NA,NA,NA,NA,NA,NA,NA,NA,NA,NA,NA,NA,NA,NA,NA,NA,NA,NA,NA
SUPAMT75167,3R3YRB5GRL2Q064H867R4CS0JZGAUS,37BA4F52-5B1B-402E-B77D-D0FA93CCD224,2023-09-27_08h24.37.932,WP_VExplicitOC_HL,2022.2.5,Win32,22.19608017,30.859375,3.4489,2.0444,NA,NA,NA,NA,NA,frustrated,"frustrated, not frustrated","more frustrated, less frustrated",NA,NA,NA,NA,NA,NA,NA,NA,NA,NA,NA,NA,NA,NA,NA,0,0,0,1,1,NA,NA,NA,NA,NA,NA,NA,NA,NA,NA,NA,NA,NA,NA,NA,NA,NA,NA,NA,NA,NA,NA,NA,NA,NA,NA,NA,NA
SUPAMT75167,3R3YRB5GRL2Q064H867R4CS0JZGAUS,37BA4F52-5B1B-402E-B77D-D0FA93CCD224,2023-09-27_08h24.37.932,WP_VExplicitOC_HL,2022.2.5,Win32,22.19608017,44.7265625,3.3131,2.0028,NA,NA,NA,NA,NA,happy,"unhappy, happy","less happy, more happy",NA,NA,NA,NA,NA,NA,NA,NA,NA,NA,NA,NA,NA,NA,NA,0,1,1,0,1,NA,NA,NA,NA,NA,NA,NA,NA,NA,NA,NA,NA,NA,NA,NA,NA,NA,NA,NA,NA,NA,NA,NA,NA,NA,NA,NA,NA
SUPAMT75167,3R3YRB5GRL2Q064H867R4CS0JZGAUS,37BA4F52-5B1B-402E-B77D-D0FA93CCD224,2023-09-27_08h24.37.932,WP_VExplicitOC_HL,2022.2.5,Win32,22.19608017,29.296875,2.8026,2.0024,NA,NA,NA,NA,NA,bored,"bored, not bored","more bored, less bored",NA,NA,NA,NA,NA,NA,NA,NA,NA,NA,NA,NA,NA,NA,NA,0,2,2,2,1,NA,NA,NA,NA,NA,NA,NA,NA,NA,NA,NA,NA,NA,NA,NA,NA,NA,NA,NA,NA,NA,NA,NA,NA,NA,NA,NA,NA
SUPAMT75167,3R3YRB5GRL2Q064H867R4CS0JZGAUS,37BA4F52-5B1B-402E-B77D-D0FA93CCD224,2023-09-27_08h24.37.932,WP_VExplicitOC_HL,2022.2.5,Win32,22.19608017,NA,NA,NA,NA,NA,NA,NA,NA,NA,NA,NA,NA,NA,NA,NA,NA,NA,NA,NA,NA,NA,NA,NA,NA,NA,NA,NA,NA,NA,NA,NA,9,0,9,0,1,NA,NA,NA,NA,NA,NA,NA,NA,NA,NA,NA,NA,NA,NA,NA,NA,NA,NA,NA,NA,NA,NA,NA
SUPAMT75167,3R3YRB5GRL2Q064H867R4CS0JZGAUS,37BA4F52-5B1B-402E-B77D-D0FA93CCD224,2023-09-27_08h24.37.932,WP_VExplicitOC_HL,2022.2.5,Win32,22.19608017,24.8046875,6.6411,2.0401,NA,NA,NA,NA,NA,happy,"unhappy, happy","less happy, more happy",NA,NA,NA,NA,NA,NA,NA,NA,NA,NA,NA,NA,NA,NA,NA,0,0,0,0,1,NA,NA,NA,NA,NA,NA,NA,NA,NA,NA,NA,NA,NA,NA,NA,NA,NA,NA,NA,NA,NA,NA,NA,NA,NA,NA,NA,NA
SUPAMT75167,3R3YRB5GRL2Q064H867R4CS0JZGAUS,37BA4F52-5B1B-402E-B77D-D0FA93CCD224,2023-09-27_08h24.37.932,WP_VExplicitOC_HL,2022.2.5,Win32,22.19608017,32.2265625,2.6177,2.0506,NA,NA,NA,NA,NA,bored,"bored, not bored","more bored, less bored",NA,NA,NA,NA,NA,NA,NA,NA,NA,NA,NA,NA,NA,NA,NA,0,1,1,2,1,NA,NA,NA,NA,NA,NA,NA,NA,NA,NA,NA,NA,NA,NA,NA,NA,NA,NA,NA,NA,NA,NA,NA,NA,NA,NA,NA,NA
SUPAMT75167,3R3YRB5GRL2Q064H867R4CS0JZGAUS,37BA4F52-5B1B-402E-B77D-D0FA93CCD224,2023-09-27_08h24.37.932,WP_VExplicitOC_HL,2022.2.5,Win32,22.19608017,32.2265625,2.8664,2.0428,NA,NA,NA,NA,NA,frustrated,"frustrated, not frustrated","more frustrated, less frustrated",NA,NA,NA,NA,NA,NA,NA,NA,NA,NA,NA,NA,NA,NA,NA,0,2,2,1,1,NA,NA,NA,NA,NA,NA,NA,NA,NA,NA,NA,NA,NA,NA,NA,NA,NA,NA,NA,NA,NA,NA,NA,NA,NA,NA,NA,NA
SUPAMT75167,3R3YRB5GRL2Q064H867R4CS0JZGAUS,37BA4F52-5B1B-402E-B77D-D0FA93CCD224,2023-09-27_08h24.37.932,WP_VExplicitOC_HL,2022.2.5,Win32,22.19608017,NA,NA,NA,NA,NA,NA,NA,NA,NA,NA,NA,NA,NA,NA,NA,NA,NA,NA,NA,NA,NA,NA,NA,NA,NA,NA,NA,NA,NA,NA,NA,10,0,10,0,1,NA,NA,NA,NA,NA,NA,NA,NA,NA,NA,NA,NA,NA,NA,NA,NA,NA,NA,NA,NA,NA,NA,NA
SUPAMT75167,3R3YRB5GRL2Q064H867R4CS0JZGAUS,37BA4F52-5B1B-402E-B77D-D0FA93CCD224,2023-09-27_08h24.37.932,WP_VExplicitOC_HL,2022.2.5,Win32,22.19608017,NA,NA,2.0068,NA,NA,NA,NA,NA,bored,"bored, not bored","more bored, less bored",NA,NA,NA,NA,NA,NA,NA,NA,NA,NA,NA,NA,NA,NA,NA,0,0,0,2,1,NA,NA,NA,NA,NA,NA,NA,NA,NA,NA,NA,NA,NA,NA,NA,NA,NA,NA,NA,NA,NA,NA,NA,NA,NA,NA,NA,NA
SUPAMT75167,3R3YRB5GRL2Q064H867R4CS0JZGAUS,37BA4F52-5B1B-402E-B77D-D0FA93CCD224,2023-09-27_08h24.37.932,WP_VExplicitOC_HL,2022.2.5,Win32,22.19608017,NA,NA,2.0216,NA,NA,NA,NA,NA,frustrated,"frustrated, not frustrated","more frustrated, less frustrated",NA,NA,NA,NA,NA,NA,NA,NA,NA,NA,NA,NA,NA,NA,NA,0,1,1,1,1,NA,NA,NA,NA,NA,NA,NA,NA,NA,NA,NA,NA,NA,NA,NA,NA,NA,NA,NA,NA,NA,NA,NA,NA,NA,NA,NA,NA
SUPAMT75167,3R3YRB5GRL2Q064H867R4CS0JZGAUS,37BA4F52-5B1B-402E-B77D-D0FA93CCD224,2023-09-27_08h24.37.932,WP_VExplicitOC_HL,2022.2.5,Win32,22.19608017,31.640625,2.5425,2.0341,NA,NA,NA,NA,NA,happy,"unhappy, happy","less happy, more happy",NA,NA,NA,NA,NA,NA,NA,NA,NA,NA,NA,NA,NA,NA,NA,0,2,2,0,1,NA,NA,NA,NA,NA,NA,NA,NA,NA,NA,NA,NA,NA,NA,NA,NA,NA,NA,NA,NA,NA,NA,NA,NA,NA,NA,NA,NA
SUPAMT75167,3R3YRB5GRL2Q064H867R4CS0JZGAUS,37BA4F52-5B1B-402E-B77D-D0FA93CCD224,2023-09-27_08h24.37.932,WP_VExplicitOC_HL,2022.2.5,Win32,22.19608017,NA,NA,NA,NA,NA,NA,NA,NA,NA,NA,NA,NA,NA,NA,NA,NA,NA,NA,NA,NA,NA,NA,NA,NA,NA,NA,NA,NA,NA,NA,NA,11,0,11,0,1,NA,NA,NA,NA,NA,NA,NA,NA,NA,NA,NA,NA,NA,NA,NA,NA,NA,NA,NA,NA,NA,NA,NA
SUPAMT75167,3R3YRB5GRL2Q064H867R4CS0JZGAUS,37BA4F52-5B1B-402E-B77D-D0FA93CCD224,2023-09-27_08h24.37.932,WP_VExplicitOC_HL,2022.2.5,Win32,22.19608017,NA,NA,2.0405,NA,NA,NA,NA,NA,happy,"unhappy, happy","less happy, more happy",NA,NA,NA,NA,NA,NA,NA,NA,NA,NA,NA,NA,NA,NA,NA,0,0,0,0,1,NA,NA,NA,NA,NA,NA,NA,NA,NA,NA,NA,NA,NA,NA,NA,NA,NA,NA,NA,NA,NA,NA,NA,NA,NA,NA,NA,NA
SUPAMT75167,3R3YRB5GRL2Q064H867R4CS0JZGAUS,37BA4F52-5B1B-402E-B77D-D0FA93CCD224,2023-09-27_08h24.37.932,WP_VExplicitOC_HL,2022.2.5,Win32,22.19608017,NA,NA,2.0357,NA,NA,NA,NA,NA,bored,"bored, not bored","more bored, less bored",NA,NA,NA,NA,NA,NA,NA,NA,NA,NA,NA,NA,NA,NA,NA,0,1,1,2,1,NA,NA,NA,NA,NA,NA,NA,NA,NA,NA,NA,NA,NA,NA,NA,NA,NA,NA,NA,NA,NA,NA,NA,NA,NA,NA,NA,NA
SUPAMT75167,3R3YRB5GRL2Q064H867R4CS0JZGAUS,37BA4F52-5B1B-402E-B77D-D0FA93CCD224,2023-09-27_08h24.37.932,WP_VExplicitOC_HL,2022.2.5,Win32,22.19608017,33.7890625,3.9122,2.0511,NA,NA,NA,NA,NA,frustrated,"frustrated, not frustrated","more frustrated, less frustrated",NA,NA,NA,NA,NA,NA,NA,NA,NA,NA,NA,NA,NA,NA,NA,0,2,2,1,1,NA,NA,NA,NA,NA,NA,NA,NA,NA,NA,NA,NA,NA,NA,NA,NA,NA,NA,NA,NA,NA,NA,NA,NA,NA,NA,NA,NA
SUPAMT75167,3R3YRB5GRL2Q064H867R4CS0JZGAUS,37BA4F52-5B1B-402E-B77D-D0FA93CCD224,2023-09-27_08h24.37.932,WP_VExplicitOC_HL,2022.2.5,Win32,22.19608017,NA,NA,NA,NA,NA,NA,NA,NA,NA,NA,NA,NA,NA,NA,NA,NA,NA,NA,NA,NA,NA,NA,NA,NA,NA,NA,NA,NA,NA,NA,NA,12,0,12,0,1,NA,NA,NA,NA,NA,NA,NA,NA,NA,NA,NA,NA,NA,NA,NA,NA,NA,NA,NA,NA,NA,NA,NA
SUPAMT75167,3R3YRB5GRL2Q064H867R4CS0JZGAUS,37BA4F52-5B1B-402E-B77D-D0FA93CCD224,2023-09-27_08h24.37.932,WP_VExplicitOC_HL,2022.2.5,Win32,22.19608017,31.640625,3.4166,2.0484,NA,NA,NA,NA,NA,bored,"bored, not bored","more bored, less bored",NA,NA,NA,NA,NA,NA,NA,NA,NA,NA,NA,NA,NA,NA,NA,0,0,0,2,1,NA,NA,NA,NA,NA,NA,NA,NA,NA,NA,NA,NA,NA,NA,NA,NA,NA,NA,NA,NA,NA,NA,NA,NA,NA,NA,NA,NA
SUPAMT75167,3R3YRB5GRL2Q064H867R4CS0JZGAUS,37BA4F52-5B1B-402E-B77D-D0FA93CCD224,2023-09-27_08h24.37.932,WP_VExplicitOC_HL,2022.2.5,Win32,22.19608017,42.05714286,3.0178,2.0336,NA,NA,NA,NA,NA,happy,"unhappy, happy","less happy, more happy",NA,NA,NA,NA,NA,NA,NA,NA,NA,NA,NA,NA,NA,NA,NA,0,1,1,0,1,NA,NA,NA,NA,NA,NA,NA,NA,NA,NA,NA,NA,NA,NA,NA,NA,NA,NA,NA,NA,NA,NA,NA,NA,NA,NA,NA,NA
SUPAMT75167,3R3YRB5GRL2Q064H867R4CS0JZGAUS,37BA4F52-5B1B-402E-B77D-D0FA93CCD224,2023-09-27_08h24.37.932,WP_VExplicitOC_HL,2022.2.5,Win32,22.19608017,43.2,2.6094,2.0069,NA,NA,NA,NA,NA,frustrated,"frustrated, not frustrated","more frustrated, less frustrated",NA,NA,NA,NA,NA,NA,NA,NA,NA,NA,NA,NA,NA,NA,NA,0,2,2,1,1,NA,NA,NA,NA,NA,NA,NA,NA,NA,NA,NA,NA,NA,NA,NA,NA,NA,NA,NA,NA,NA,NA,NA,NA,NA,NA,NA,NA
SUPAMT75167,3R3YRB5GRL2Q064H867R4CS0JZGAUS,37BA4F52-5B1B-402E-B77D-D0FA93CCD224,2023-09-27_08h24.37.932,WP_VExplicitOC_HL,2022.2.5,Win32,22.19608017,NA,NA,NA,NA,NA,NA,NA,NA,NA,NA,NA,NA,NA,NA,NA,NA,NA,NA,NA,NA,NA,NA,NA,NA,NA,NA,NA,NA,NA,NA,NA,13,0,13,0,1,NA,NA,NA,NA,NA,NA,NA,NA,NA,NA,NA,NA,NA,NA,NA,NA,NA,NA,NA,NA,NA,NA,NA
SUPAMT75167,3R3YRB5GRL2Q064H867R4CS0JZGAUS,37BA4F52-5B1B-402E-B77D-D0FA93CCD224,2023-09-27_08h24.37.932,WP_VExplicitOC_HL,2022.2.5,Win32,22.19608017,33.82857143,3.301,2.0265,NA,NA,NA,NA,NA,bored,"bored, not bored","more bored, less bored",NA,NA,NA,NA,NA,NA,NA,NA,NA,NA,NA,NA,NA,NA,NA,0,0,0,2,1,NA,NA,NA,NA,NA,NA,NA,NA,NA,NA,NA,NA,NA,NA,NA,NA,NA,NA,NA,NA,NA,NA,NA,NA,NA,NA,NA,NA
SUPAMT75167,3R3YRB5GRL2Q064H867R4CS0JZGAUS,37BA4F52-5B1B-402E-B77D-D0FA93CCD224,2023-09-27_08h24.37.932,WP_VExplicitOC_HL,2022.2.5,Win32,22.19608017,43.88571429,2.9389,2.0411,NA,NA,NA,NA,NA,happy,"unhappy, happy","less happy, more happy",NA,NA,NA,NA,NA,NA,NA,NA,NA,NA,NA,NA,NA,NA,NA,0,1,1,0,1,NA,NA,NA,NA,NA,NA,NA,NA,NA,NA,NA,NA,NA,NA,NA,NA,NA,NA,NA,NA,NA,NA,NA,NA,NA,NA,NA,NA
SUPAMT75167,3R3YRB5GRL2Q064H867R4CS0JZGAUS,37BA4F52-5B1B-402E-B77D-D0FA93CCD224,2023-09-27_08h24.37.932,WP_VExplicitOC_HL,2022.2.5,Win32,22.19608017,45.94285714,3.514,2.0484,NA,NA,NA,NA,NA,frustrated,"frustrated, not frustrated","more frustrated, less frustrated",NA,NA,NA,NA,NA,NA,NA,NA,NA,NA,NA,NA,NA,NA,NA,0,2,2,1,1,NA,NA,NA,NA,NA,NA,NA,NA,NA,NA,NA,NA,NA,NA,NA,NA,NA,NA,NA,NA,NA,NA,NA,NA,NA,NA,NA,NA
SUPAMT75167,3R3YRB5GRL2Q064H867R4CS0JZGAUS,37BA4F52-5B1B-402E-B77D-D0FA93CCD224,2023-09-27_08h24.37.932,WP_VExplicitOC_HL,2022.2.5,Win32,22.19608017,NA,NA,NA,NA,NA,NA,NA,NA,NA,NA,NA,NA,NA,NA,NA,NA,NA,NA,NA,NA,NA,NA,NA,NA,NA,NA,NA,NA,NA,NA,NA,14,0,14,0,1,NA,NA,NA,NA,NA,NA,NA,NA,NA,NA,NA,NA,NA,NA,NA,NA,NA,NA,NA,NA,NA,NA,NA
SUPAMT75167,3R3YRB5GRL2Q064H867R4CS0JZGAUS,37BA4F52-5B1B-402E-B77D-D0FA93CCD224,2023-09-27_08h24.37.932,WP_VExplicitOC_HL,2022.2.5,Win32,22.19608017,NA,NA,NA,NA,NA,NA,NA,NA,NA,NA,NA,NA,NA,NA,NA,NA,NA,NA,NA,NA,NA,NA,NA,NA,NA,NA,NA,NA,NA,NA,NA,NA,NA,NA,NA,NA,NA,NA,NA,NA,NA,NA,NA,NA,NA,NA,NA,NA,NA,NA,NA,NA,NA,NA,NA,NA,NA,NA,NA
SUPAMT75167,3R3YRB5GRL2Q064H867R4CS0JZGAUS,37BA4F52-5B1B-402E-B77D-D0FA93CCD224,2023-09-27_08h24.37.932,WP_VExplicitOC_HL,2022.2.5,Win32,22.19608017,NA,NA,NA,NA,NA,NA,NA,NA,NA,NA,NA,NA,NA,NA,NA,NA,NA,NA,NA,NA,NA,NA,NA,NA,NA,NA,NA,NA,NA,NA,NA,NA,NA,NA,NA,NA,NA,NA,NA,NA,NA,NA,NA,NA,NA,NA,NA,NA,NA,NA,NA,NA,NA,NA,NA,NA,NA,NA,NA
SUPAMT75167,3R3YRB5GRL2Q064H867R4CS0JZGAUS,37BA4F52-5B1B-402E-B77D-D0FA93CCD224,2023-09-27_08h24.37.932,WP_VExplicitOC_HL,2022.2.5,Win32,22.19608017,NA,NA,NA,NA,NA,NA,NA,NA,NA,NA,NA,NA,NA,NA,NA,NA,NA,NA,rest (looking at a fixed cross),001.png,NA,NA,NA,NA,NA,NA,NA,NA,NA,NA,NA,NA,NA,NA,NA,NA,22.4,2.1468,0,0,0,0,1,NA,NA,NA,NA,NA,NA,NA,NA,NA,NA,NA,NA,NA,NA,NA,NA
SUPAMT75167,3R3YRB5GRL2Q064H867R4CS0JZGAUS,37BA4F52-5B1B-402E-B77D-D0FA93CCD224,2023-09-27_08h24.37.932,WP_VExplicitOC_HL,2022.2.5,Win32,22.19608017,NA,NA,NA,NA,NA,NA,NA,NA,NA,NA,NA,NA,NA,NA,NA,NA,NA,NA,stand up,002.png,NA,NA,NA,NA,NA,NA,NA,NA,NA,NA,NA,NA,NA,NA,NA,NA,31.31428571,1.171,0,1,1,1,1,NA,NA,NA,NA,NA,NA,NA,NA,NA,NA,NA,NA,NA,NA,NA,NA
SUPAMT75167,3R3YRB5GRL2Q064H867R4CS0JZGAUS,37BA4F52-5B1B-402E-B77D-D0FA93CCD224,2023-09-27_08h24.37.932,WP_VExplicitOC_HL,2022.2.5,Win32,22.19608017,NA,NA,NA,NA,NA,NA,NA,NA,NA,NA,NA,NA,NA,NA,NA,NA,NA,NA,stretch,003.png,NA,NA,NA,NA,NA,NA,NA,NA,NA,NA,NA,NA,NA,NA,NA,NA,35.42857143,0.9084,0,2,2,2,1,NA,NA,NA,NA,NA,NA,NA,NA,NA,NA,NA,NA,NA,NA,NA,NA
SUPAMT75167,3R3YRB5GRL2Q064H867R4CS0JZGAUS,37BA4F52-5B1B-402E-B77D-D0FA93CCD224,2023-09-27_08h24.37.932,WP_VExplicitOC_HL,2022.2.5,Win32,22.19608017,NA,NA,NA,NA,NA,NA,NA,NA,NA,NA,NA,NA,NA,NA,NA,NA,NA,NA,make a drink,004.png,NA,NA,NA,NA,NA,NA,NA,NA,NA,NA,NA,NA,NA,NA,NA,NA,-26.28571429,0.9087,0,3,3,3,1,NA,NA,NA,NA,NA,NA,NA,NA,NA,NA,NA,NA,NA,NA,NA,NA
SUPAMT75167,3R3YRB5GRL2Q064H867R4CS0JZGAUS,37BA4F52-5B1B-402E-B77D-D0FA93CCD224,2023-09-27_08h24.37.932,WP_VExplicitOC_HL,2022.2.5,Win32,22.19608017,NA,NA,NA,NA,NA,NA,NA,NA,NA,NA,NA,NA,NA,NA,NA,NA,NA,NA,scroll social media,005.png,NA,NA,NA,NA,NA,NA,NA,NA,NA,NA,NA,NA,NA,NA,NA,NA,20.11428571,0.8016,0,4,4,4,1,NA,NA,NA,NA,NA,NA,NA,NA,NA,NA,NA,NA,NA,NA,NA,NA
SUPAMT75167,3R3YRB5GRL2Q064H867R4CS0JZGAUS,37BA4F52-5B1B-402E-B77D-D0FA93CCD224,2023-09-27_08h24.37.932,WP_VExplicitOC_HL,2022.2.5,Win32,22.19608017,NA,NA,NA,NA,NA,NA,NA,NA,NA,NA,NA,NA,NA,NA,NA,NA,NA,NA,listen to music,006.png,NA,NA,NA,NA,NA,NA,NA,NA,NA,NA,NA,NA,NA,NA,NA,NA,-34.28571429,0.6892,0,5,5,5,1,NA,NA,NA,NA,NA,NA,NA,NA,NA,NA,NA,NA,NA,NA,NA,NA
SUPAMT75167,3R3YRB5GRL2Q064H867R4CS0JZGAUS,37BA4F52-5B1B-402E-B77D-D0FA93CCD224,2023-09-27_08h24.37.932,WP_VExplicitOC_HL,2022.2.5,Win32,22.19608017,NA,NA,NA,NA,NA,NA,NA,NA,NA,NA,NA,NA,NA,NA,NA,NA,NA,NA,daydream,007.png,NA,NA,NA,NA,NA,NA,NA,NA,NA,NA,NA,NA,NA,NA,NA,NA,28.11428571,0.5527,0,6,6,6,1,NA,NA,NA,NA,NA,NA,NA,NA,NA,NA,NA,NA,NA,NA,NA,NA
SUPAMT75167,3R3YRB5GRL2Q064H867R4CS0JZGAUS,37BA4F52-5B1B-402E-B77D-D0FA93CCD224,2023-09-27_08h24.37.932,WP_VExplicitOC_HL,2022.2.5,Win32,22.19608017,NA,NA,NA,NA,NA,NA,NA,NA,NA,NA,NA,NA,NA,NA,NA,NA,NA,NA,watch a short animation,008.png,NA,NA,NA,NA,NA,NA,NA,NA,NA,NA,NA,NA,NA,NA,NA,NA,-28.8,0.8163,0,7,7,7,1,NA,NA,NA,NA,NA,NA,NA,NA,NA,NA,NA,NA,NA,NA,NA,NA
SUPAMT75167,3R3YRB5GRL2Q064H867R4CS0JZGAUS,37BA4F52-5B1B-402E-B77D-D0FA93CCD224,2023-09-27_08h24.37.932,WP_VExplicitOC_HL,2022.2.5,Win32,22.19608017,NA,NA,NA,NA,NA,NA,NA,NA,NA,NA,NA,NA,NA,NA,NA,NA,NA,NA,read a novel,009.png,NA,NA,NA,NA,NA,NA,NA,NA,NA,NA,NA,NA,NA,NA,NA,NA,40,3.1284,0,8,8,8,1,NA,NA,NA,NA,NA,NA,NA,NA,NA,NA,NA,NA,NA,NA,NA,NA
SUPAMT75167,3R3YRB5GRL2Q064H867R4CS0JZGAUS,37BA4F52-5B1B-402E-B77D-D0FA93CCD224,2023-09-27_08h24.37.932,WP_VExplicitOC_HL,2022.2.5,Win32,22.19608017,NA,NA,NA,NA,NA,NA,NA,NA,NA,NA,NA,NA,NA,NA,NA,NA,NA,NA,read the news,010.png,NA,NA,NA,NA,NA,NA,NA,NA,NA,NA,NA,NA,NA,NA,NA,NA,38.17142857,0.9034,0,9,9,9,1,NA,NA,NA,NA,NA,NA,NA,NA,NA,NA,NA,NA,NA,NA,NA,NA
SUPAMT75167,3R3YRB5GRL2Q064H867R4CS0JZGAUS,37BA4F52-5B1B-402E-B77D-D0FA93CCD224,2023-09-27_08h24.37.932,WP_VExplicitOC_HL,2022.2.5,Win32,22.19608017,NA,NA,NA,NA,NA,NA,NA,NA,NA,NA,NA,NA,NA,NA,NA,NA,NA,NA,NA,NA,NA,NA,NA,NA,NA,NA,NA,NA,NA,NA,NA,NA,NA,NA,NA,NA,NA,NA,NA,NA,NA,NA,NA,listen to music,NA,NA,NA,NA,NA,NA,NA,NA,NA,NA,NA,NA,NA,NA,NA
SUPAMT75167,3R3YRB5GRL2Q064H867R4CS0JZGAUS,37BA4F52-5B1B-402E-B77D-D0FA93CCD224,2023-09-27_08h24.37.932,WP_VExplicitOC_HL,2022.2.5,Win32,22.19608017,20.8,5.685,2.0044,NA,NA,NA,NA,NA,happy,"unhappy, happy","less happy, more happy",NA,NA,NA,NA,NA,NA,NA,NA,NA,NA,NA,NA,NA,NA,NA,NA,NA,NA,NA,NA,NA,NA,NA,NA,NA,NA,NA,NA,NA,NA,NA,NA,NA,0,0,0,0,1,NA,NA,NA,NA,NA,NA,NA,NA,NA,NA
SUPAMT75167,3R3YRB5GRL2Q064H867R4CS0JZGAUS,37BA4F52-5B1B-402E-B77D-D0FA93CCD224,2023-09-27_08h24.37.932,WP_VExplicitOC_HL,2022.2.5,Win32,22.19608017,37.02857143,2.4354,2.0155,NA,NA,NA,NA,NA,bored,"bored, not bored","more bored, less bored",NA,NA,NA,NA,NA,NA,NA,NA,NA,NA,NA,NA,NA,NA,NA,NA,NA,NA,NA,NA,NA,NA,NA,NA,NA,NA,NA,NA,NA,NA,NA,NA,NA,0,1,1,2,1,NA,NA,NA,NA,NA,NA,NA,NA,NA,NA
SUPAMT75167,3R3YRB5GRL2Q064H867R4CS0JZGAUS,37BA4F52-5B1B-402E-B77D-D0FA93CCD224,2023-09-27_08h24.37.932,WP_VExplicitOC_HL,2022.2.5,Win32,22.19608017,39.54285714,2.79,2.0099,NA,NA,NA,NA,NA,frustrated,"frustrated, not frustrated","more frustrated, less frustrated",NA,NA,NA,NA,NA,NA,NA,NA,NA,NA,NA,NA,NA,NA,NA,NA,NA,NA,NA,NA,NA,NA,NA,NA,NA,NA,NA,NA,NA,NA,NA,NA,NA,0,2,2,1,1,NA,NA,NA,NA,NA,NA,NA,NA,NA,NA
SUPAMT75167,3R3YRB5GRL2Q064H867R4CS0JZGAUS,37BA4F52-5B1B-402E-B77D-D0FA93CCD224,2023-09-27_08h24.37.932,WP_VExplicitOC_HL,2022.2.5,Win32,22.19608017,NA,NA,NA,NA,NA,NA,NA,NA,NA,NA,NA,NA,NA,NA,NA,NA,NA,NA,NA,NA,NA,NA,NA,NA,NA,NA,NA,NA,NA,NA,NA,NA,NA,NA,NA,NA,NA,NA,NA,NA,NA,NA,NA,NA,NA,NA,NA,NA,NA,NA,NA,NA,NA,NA,NA,NA,NA,NA,NA
SUPAMT75167,3R3YRB5GRL2Q064H867R4CS0JZGAUS,37BA4F52-5B1B-402E-B77D-D0FA93CCD224,2023-09-27_08h24.37.932,WP_VExplicitOC_HL,2022.2.5,Win32,22.19608017,NA,NA,NA,NA,NA,NA,NA,NA,NA,NA,NA,NA,NA,NA,NA,NA,NA,NA,NA,NA,NA,NA,NA,NA,NA,NA,NA,NA,NA,NA,NA,NA,NA,NA,NA,NA,NA,NA,NA,NA,NA,NA,NA,NA,NA,NA,NA,NA,NA,NA,NA,NA,NA,NA,NA,NA,NA,NA,NA
SUPAMT75167,3R3YRB5GRL2Q064H867R4CS0JZGAUS,37BA4F52-5B1B-402E-B77D-D0FA93CCD224,2023-09-27_08h24.37.932,WP_VExplicitOC_HL,2022.2.5,Win32,22.19608017,22.62857143,3.0961,2.0056,NA,NA,NA,NA,NA,happy,"unhappy, happy","less happy, more happy",NA,NA,NA,NA,NA,NA,NA,NA,NA,NA,NA,NA,NA,NA,NA,NA,NA,NA,NA,NA,NA,NA,NA,NA,NA,NA,NA,NA,NA,NA,NA,NA,NA,NA,NA,NA,NA,NA,0,0,0,0,1,NA,NA,NA,NA,NA
SUPAMT75167,3R3YRB5GRL2Q064H867R4CS0JZGAUS,37BA4F52-5B1B-402E-B77D-D0FA93CCD224,2023-09-27_08h24.37.932,WP_VExplicitOC_HL,2022.2.5,Win32,22.19608017,42.51428571,3.274,2.0395,NA,NA,NA,NA,NA,bored,"bored, not bored","more bored, less bored",NA,NA,NA,NA,NA,NA,NA,NA,NA,NA,NA,NA,NA,NA,NA,NA,NA,NA,NA,NA,NA,NA,NA,NA,NA,NA,NA,NA,NA,NA,NA,NA,NA,NA,NA,NA,NA,NA,0,1,1,2,1,NA,NA,NA,NA,NA
SUPAMT75167,3R3YRB5GRL2Q064H867R4CS0JZGAUS,37BA4F52-5B1B-402E-B77D-D0FA93CCD224,2023-09-27_08h24.37.932,WP_VExplicitOC_HL,2022.2.5,Win32,22.19608017,43.42857143,2.5641,2.0095,NA,NA,NA,NA,NA,frustrated,"frustrated, not frustrated","more frustrated, less frustrated",NA,NA,NA,NA,NA,NA,NA,NA,NA,NA,NA,NA,NA,NA,NA,NA,NA,NA,NA,NA,NA,NA,NA,NA,NA,NA,NA,NA,NA,NA,NA,NA,NA,NA,NA,NA,NA,NA,0,2,2,1,1,NA,NA,NA,NA,NA
SUPAMT75167,3R3YRB5GRL2Q064H867R4CS0JZGAUS,37BA4F52-5B1B-402E-B77D-D0FA93CCD224,2023-09-27_08h24.37.932,WP_VExplicitOC_HL,2022.2.5,Win32,22.19608017,NA,NA,NA,NA,NA,NA,NA,NA,NA,NA,NA,NA,NA,NA,NA,NA,NA,NA,NA,NA,NA,NA,NA,NA,NA,NA,NA,NA,NA,NA,NA,NA,NA,NA,NA,NA,NA,NA,NA,NA,NA,NA,NA,NA,NA,NA,NA,NA,NA,NA,NA,NA,NA,NA,0,0,0,0,1
SUPAMT75167,3R3YRB5GRL2Q064H867R4CS0JZGAUS,37BA4F52-5B1B-402E-B77D-D0FA93CCD224,2023-09-27_08h24.37.932,WP_VExplicitOC_HL,2022.2.5,Win32,22.19608017,NA,NA,2.0445,NA,NA,NA,NA,NA,bored,"bored, not bored","more bored, less bored",NA,NA,NA,NA,NA,NA,NA,NA,NA,NA,NA,NA,NA,NA,NA,NA,NA,NA,NA,NA,NA,NA,NA,NA,NA,NA,NA,NA,NA,NA,NA,NA,NA,NA,NA,NA,NA,NA,0,0,0,2,1,NA,NA,NA,NA,NA
SUPAMT75167,3R3YRB5GRL2Q064H867R4CS0JZGAUS,37BA4F52-5B1B-402E-B77D-D0FA93CCD224,2023-09-27_08h24.37.932,WP_VExplicitOC_HL,2022.2.5,Win32,22.19608017,29.02857143,4.9275,2.0211,NA,NA,NA,NA,NA,frustrated,"frustrated, not frustrated","more frustrated, less frustrated",NA,NA,NA,NA,NA,NA,NA,NA,NA,NA,NA,NA,NA,NA,NA,NA,NA,NA,NA,NA,NA,NA,NA,NA,NA,NA,NA,NA,NA,NA,NA,NA,NA,NA,NA,NA,NA,NA,0,1,1,1,1,NA,NA,NA,NA,NA
SUPAMT75167,3R3YRB5GRL2Q064H867R4CS0JZGAUS,37BA4F52-5B1B-402E-B77D-D0FA93CCD224,2023-09-27_08h24.37.932,WP_VExplicitOC_HL,2022.2.5,Win32,22.19608017,36.8,2.805,2.0448,NA,NA,NA,NA,NA,happy,"unhappy, happy","less happy, more happy",NA,NA,NA,NA,NA,NA,NA,NA,NA,NA,NA,NA,NA,NA,NA,NA,NA,NA,NA,NA,NA,NA,NA,NA,NA,NA,NA,NA,NA,NA,NA,NA,NA,NA,NA,NA,NA,NA,0,2,2,0,1,NA,NA,NA,NA,NA
SUPAMT75167,3R3YRB5GRL2Q064H867R4CS0JZGAUS,37BA4F52-5B1B-402E-B77D-D0FA93CCD224,2023-09-27_08h24.37.932,WP_VExplicitOC_HL,2022.2.5,Win32,22.19608017,NA,NA,NA,NA,NA,NA,NA,NA,NA,NA,NA,NA,NA,NA,NA,NA,NA,NA,NA,NA,NA,NA,NA,NA,NA,NA,NA,NA,NA,NA,NA,NA,NA,NA,NA,NA,NA,NA,NA,NA,NA,NA,NA,NA,NA,NA,NA,NA,NA,NA,NA,NA,NA,NA,1,0,1,0,1
SUPAMT75167,3R3YRB5GRL2Q064H867R4CS0JZGAUS,37BA4F52-5B1B-402E-B77D-D0FA93CCD224,2023-09-27_08h24.37.932,WP_VExplicitOC_HL,2022.2.5,Win32,22.19608017,32.45714286,3.1312,2.066,NA,NA,NA,NA,NA,happy,"unhappy, happy","less happy, more happy",NA,NA,NA,NA,NA,NA,NA,NA,NA,NA,NA,NA,NA,NA,NA,NA,NA,NA,NA,NA,NA,NA,NA,NA,NA,NA,NA,NA,NA,NA,NA,NA,NA,NA,NA,NA,NA,NA,0,0,0,0,1,NA,NA,NA,NA,NA
SUPAMT75167,3R3YRB5GRL2Q064H867R4CS0JZGAUS,37BA4F52-5B1B-402E-B77D-D0FA93CCD224,2023-09-27_08h24.37.932,WP_VExplicitOC_HL,2022.2.5,Win32,22.19608017,36.8,3.7015,2.0025,NA,NA,NA,NA,NA,frustrated,"frustrated, not frustrated","more frustrated, less frustrated",NA,NA,NA,NA,NA,NA,NA,NA,NA,NA,NA,NA,NA,NA,NA,NA,NA,NA,NA,NA,NA,NA,NA,NA,NA,NA,NA,NA,NA,NA,NA,NA,NA,NA,NA,NA,NA,NA,0,1,1,1,1,NA,NA,NA,NA,NA
SUPAMT75167,3R3YRB5GRL2Q064H867R4CS0JZGAUS,37BA4F52-5B1B-402E-B77D-D0FA93CCD224,2023-09-27_08h24.37.932,WP_VExplicitOC_HL,2022.2.5,Win32,22.19608017,66.51428571,3.5112,2.0042,NA,NA,NA,NA,NA,bored,"bored, not bored","more bored, less bored",NA,NA,NA,NA,NA,NA,NA,NA,NA,NA,NA,NA,NA,NA,NA,NA,NA,NA,NA,NA,NA,NA,NA,NA,NA,NA,NA,NA,NA,NA,NA,NA,NA,NA,NA,NA,NA,NA,0,2,2,2,1,NA,NA,NA,NA,NA
SUPAMT75167,3R3YRB5GRL2Q064H867R4CS0JZGAUS,37BA4F52-5B1B-402E-B77D-D0FA93CCD224,2023-09-27_08h24.37.932,WP_VExplicitOC_HL,2022.2.5,Win32,22.19608017,NA,NA,NA,NA,NA,NA,NA,NA,NA,NA,NA,NA,NA,NA,NA,NA,NA,NA,NA,NA,NA,NA,NA,NA,NA,NA,NA,NA,NA,NA,NA,NA,NA,NA,NA,NA,NA,NA,NA,NA,NA,NA,NA,NA,NA,NA,NA,NA,NA,NA,NA,NA,NA,NA,2,0,2,0,1
SUPAMT75167,3R3YRB5GRL2Q064H867R4CS0JZGAUS,37BA4F52-5B1B-402E-B77D-D0FA93CCD224,2023-09-27_08h24.37.932,WP_VExplicitOC_HL,2022.2.5,Win32,22.19608017,28.57142857,3.2614,2.0356,NA,NA,NA,NA,NA,frustrated,"frustrated, not frustrated","more frustrated, less frustrated",NA,NA,NA,NA,NA,NA,NA,NA,NA,NA,NA,NA,NA,NA,NA,NA,NA,NA,NA,NA,NA,NA,NA,NA,NA,NA,NA,NA,NA,NA,NA,NA,NA,NA,NA,NA,NA,NA,0,0,0,1,1,NA,NA,NA,NA,NA
SUPAMT75167,3R3YRB5GRL2Q064H867R4CS0JZGAUS,37BA4F52-5B1B-402E-B77D-D0FA93CCD224,2023-09-27_08h24.37.932,WP_VExplicitOC_HL,2022.2.5,Win32,22.19608017,33.6,3.3715,2.0152,NA,NA,NA,NA,NA,bored,"bored, not bored","more bored, less bored",NA,NA,NA,NA,NA,NA,NA,NA,NA,NA,NA,NA,NA,NA,NA,NA,NA,NA,NA,NA,NA,NA,NA,NA,NA,NA,NA,NA,NA,NA,NA,NA,NA,NA,NA,NA,NA,NA,0,1,1,2,1,NA,NA,NA,NA,NA
SUPAMT75167,3R3YRB5GRL2Q064H867R4CS0JZGAUS,37BA4F52-5B1B-402E-B77D-D0FA93CCD224,2023-09-27_08h24.37.932,WP_VExplicitOC_HL,2022.2.5,Win32,22.19608017,42.74285714,3.7668,2.0051,NA,NA,NA,NA,NA,happy,"unhappy, happy","less happy, more happy",NA,NA,NA,NA,NA,NA,NA,NA,NA,NA,NA,NA,NA,NA,NA,NA,NA,NA,NA,NA,NA,NA,NA,NA,NA,NA,NA,NA,NA,NA,NA,NA,NA,NA,NA,NA,NA,NA,0,2,2,0,1,NA,NA,NA,NA,NA
SUPAMT75167,3R3YRB5GRL2Q064H867R4CS0JZGAUS,37BA4F52-5B1B-402E-B77D-D0FA93CCD224,2023-09-27_08h24.37.932,WP_VExplicitOC_HL,2022.2.5,Win32,22.19608017,NA,NA,NA,NA,NA,NA,NA,NA,NA,NA,NA,NA,NA,NA,NA,NA,NA,NA,NA,NA,NA,NA,NA,NA,NA,NA,NA,NA,NA,NA,NA,NA,NA,NA,NA,NA,NA,NA,NA,NA,NA,NA,NA,NA,NA,NA,NA,NA,NA,NA,NA,NA,NA,NA,3,0,3,0,1
SUPAMT75167,3R3YRB5GRL2Q064H867R4CS0JZGAUS,37BA4F52-5B1B-402E-B77D-D0FA93CCD224,2023-09-27_08h24.37.932,WP_VExplicitOC_HL,2022.2.5,Win32,22.19608017,32,3.3146,2.0302,NA,NA,NA,NA,NA,happy,"unhappy, happy","less happy, more happy",NA,NA,NA,NA,NA,NA,NA,NA,NA,NA,NA,NA,NA,NA,NA,NA,NA,NA,NA,NA,NA,NA,NA,NA,NA,NA,NA,NA,NA,NA,NA,NA,NA,NA,NA,NA,NA,NA,0,0,0,0,1,NA,NA,NA,NA,NA
SUPAMT75167,3R3YRB5GRL2Q064H867R4CS0JZGAUS,37BA4F52-5B1B-402E-B77D-D0FA93CCD224,2023-09-27_08h24.37.932,WP_VExplicitOC_HL,2022.2.5,Win32,22.19608017,NA,NA,2.0393,NA,NA,NA,NA,NA,bored,"bored, not bored","more bored, less bored",NA,NA,NA,NA,NA,NA,NA,NA,NA,NA,NA,NA,NA,NA,NA,NA,NA,NA,NA,NA,NA,NA,NA,NA,NA,NA,NA,NA,NA,NA,NA,NA,NA,NA,NA,NA,NA,NA,0,1,1,2,1,NA,NA,NA,NA,NA
SUPAMT75167,3R3YRB5GRL2Q064H867R4CS0JZGAUS,37BA4F52-5B1B-402E-B77D-D0FA93CCD224,2023-09-27_08h24.37.932,WP_VExplicitOC_HL,2022.2.5,Win32,22.19608017,43.65714286,2.4478,2.0176,NA,NA,NA,NA,NA,frustrated,"frustrated, not frustrated","more frustrated, less frustrated",NA,NA,NA,NA,NA,NA,NA,NA,NA,NA,NA,NA,NA,NA,NA,NA,NA,NA,NA,NA,NA,NA,NA,NA,NA,NA,NA,NA,NA,NA,NA,NA,NA,NA,NA,NA,NA,NA,0,2,2,1,1,NA,NA,NA,NA,NA
SUPAMT75167,3R3YRB5GRL2Q064H867R4CS0JZGAUS,37BA4F52-5B1B-402E-B77D-D0FA93CCD224,2023-09-27_08h24.37.932,WP_VExplicitOC_HL,2022.2.5,Win32,22.19608017,NA,NA,NA,NA,NA,NA,NA,NA,NA,NA,NA,NA,NA,NA,NA,NA,NA,NA,NA,NA,NA,NA,NA,NA,NA,NA,NA,NA,NA,NA,NA,NA,NA,NA,NA,NA,NA,NA,NA,NA,NA,NA,NA,NA,NA,NA,NA,NA,NA,NA,NA,NA,NA,NA,4,0,4,0,1
SUPAMT75167,3R3YRB5GRL2Q064H867R4CS0JZGAUS,37BA4F52-5B1B-402E-B77D-D0FA93CCD224,2023-09-27_08h24.37.932,WP_VExplicitOC_HL,2022.2.5,Win32,22.19608017,NA,NA,2.0044,NA,NA,NA,NA,NA,frustrated,"frustrated, not frustrated","more frustrated, less frustrated",NA,NA,NA,NA,NA,NA,NA,NA,NA,NA,NA,NA,NA,NA,NA,NA,NA,NA,NA,NA,NA,NA,NA,NA,NA,NA,NA,NA,NA,NA,NA,NA,NA,NA,NA,NA,NA,NA,0,0,0,1,1,NA,NA,NA,NA,NA
SUPAMT75167,3R3YRB5GRL2Q064H867R4CS0JZGAUS,37BA4F52-5B1B-402E-B77D-D0FA93CCD224,2023-09-27_08h24.37.932,WP_VExplicitOC_HL,2022.2.5,Win32,22.19608017,28.57142857,4.0651,2.014,NA,NA,NA,NA,NA,bored,"bored, not bored","more bored, less bored",NA,NA,NA,NA,NA,NA,NA,NA,NA,NA,NA,NA,NA,NA,NA,NA,NA,NA,NA,NA,NA,NA,NA,NA,NA,NA,NA,NA,NA,NA,NA,NA,NA,NA,NA,NA,NA,NA,0,1,1,2,1,NA,NA,NA,NA,NA
SUPAMT75167,3R3YRB5GRL2Q064H867R4CS0JZGAUS,37BA4F52-5B1B-402E-B77D-D0FA93CCD224,2023-09-27_08h24.37.932,WP_VExplicitOC_HL,2022.2.5,Win32,22.19608017,28.57142857,2.6027,2.0136,NA,NA,NA,NA,NA,happy,"unhappy, happy","less happy, more happy",NA,NA,NA,NA,NA,NA,NA,NA,NA,NA,NA,NA,NA,NA,NA,NA,NA,NA,NA,NA,NA,NA,NA,NA,NA,NA,NA,NA,NA,NA,NA,NA,NA,NA,NA,NA,NA,NA,0,2,2,0,1,NA,NA,NA,NA,NA
SUPAMT75167,3R3YRB5GRL2Q064H867R4CS0JZGAUS,37BA4F52-5B1B-402E-B77D-D0FA93CCD224,2023-09-27_08h24.37.932,WP_VExplicitOC_HL,2022.2.5,Win32,22.19608017,NA,NA,NA,NA,NA,NA,NA,NA,NA,NA,NA,NA,NA,NA,NA,NA,NA,NA,NA,NA,NA,NA,NA,NA,NA,NA,NA,NA,NA,NA,NA,NA,NA,NA,NA,NA,NA,NA,NA,NA,NA,NA,NA,NA,NA,NA,NA,NA,NA,NA,NA,NA,NA,NA,5,0,5,0,1
SUPAMT75167,3R3YRB5GRL2Q064H867R4CS0JZGAUS,37BA4F52-5B1B-402E-B77D-D0FA93CCD224,2023-09-27_08h24.37.932,WP_VExplicitOC_HL,2022.2.5,Win32,22.19608017,23.08571429,2.6601,2.0236,NA,NA,NA,NA,NA,happy,"unhappy, happy","less happy, more happy",NA,NA,NA,NA,NA,NA,NA,NA,NA,NA,NA,NA,NA,NA,NA,NA,NA,NA,NA,NA,NA,NA,NA,NA,NA,NA,NA,NA,NA,NA,NA,NA,NA,NA,NA,NA,NA,NA,0,0,0,0,1,NA,NA,NA,NA,NA
SUPAMT75167,3R3YRB5GRL2Q064H867R4CS0JZGAUS,37BA4F52-5B1B-402E-B77D-D0FA93CCD224,2023-09-27_08h24.37.932,WP_VExplicitOC_HL,2022.2.5,Win32,22.19608017,50.51428571,2.3927,2.04,NA,NA,NA,NA,NA,bored,"bored, not bored","more bored, less bored",NA,NA,NA,NA,NA,NA,NA,NA,NA,NA,NA,NA,NA,NA,NA,NA,NA,NA,NA,NA,NA,NA,NA,NA,NA,NA,NA,NA,NA,NA,NA,NA,NA,NA,NA,NA,NA,NA,0,1,1,2,1,NA,NA,NA,NA,NA
SUPAMT75167,3R3YRB5GRL2Q064H867R4CS0JZGAUS,37BA4F52-5B1B-402E-B77D-D0FA93CCD224,2023-09-27_08h24.37.932,WP_VExplicitOC_HL,2022.2.5,Win32,22.19608017,50.51428571,2.7451,2.0583,NA,NA,NA,NA,NA,frustrated,"frustrated, not frustrated","more frustrated, less frustrated",NA,NA,NA,NA,NA,NA,NA,NA,NA,NA,NA,NA,NA,NA,NA,NA,NA,NA,NA,NA,NA,NA,NA,NA,NA,NA,NA,NA,NA,NA,NA,NA,NA,NA,NA,NA,NA,NA,0,2,2,1,1,NA,NA,NA,NA,NA
SUPAMT75167,3R3YRB5GRL2Q064H867R4CS0JZGAUS,37BA4F52-5B1B-402E-B77D-D0FA93CCD224,2023-09-27_08h24.37.932,WP_VExplicitOC_HL,2022.2.5,Win32,22.19608017,NA,NA,NA,NA,NA,NA,NA,NA,NA,NA,NA,NA,NA,NA,NA,NA,NA,NA,NA,NA,NA,NA,NA,NA,NA,NA,NA,NA,NA,NA,NA,NA,NA,NA,NA,NA,NA,NA,NA,NA,NA,NA,NA,NA,NA,NA,NA,NA,NA,NA,NA,NA,NA,NA,6,0,6,0,1
SUPAMT75167,3R3YRB5GRL2Q064H867R4CS0JZGAUS,37BA4F52-5B1B-402E-B77D-D0FA93CCD224,2023-09-27_08h24.37.932,WP_VExplicitOC_HL,2022.2.5,Win32,22.19608017,69.02857143,4.2605,2.0119,NA,NA,NA,NA,NA,happy,"unhappy, happy","less happy, more happy",NA,NA,NA,NA,NA,NA,NA,NA,NA,NA,NA,NA,NA,NA,NA,NA,NA,NA,NA,NA,NA,NA,NA,NA,NA,NA,NA,NA,NA,NA,NA,NA,NA,NA,NA,NA,NA,NA,0,0,0,0,1,NA,NA,NA,NA,NA
SUPAMT75167,3R3YRB5GRL2Q064H867R4CS0JZGAUS,37BA4F52-5B1B-402E-B77D-D0FA93CCD224,2023-09-27_08h24.37.932,WP_VExplicitOC_HL,2022.2.5,Win32,22.19608017,63.77142857,7.4241,2.0363,NA,NA,NA,NA,NA,frustrated,"frustrated, not frustrated","more frustrated, less frustrated",NA,NA,NA,NA,NA,NA,NA,NA,NA,NA,NA,NA,NA,NA,NA,NA,NA,NA,NA,NA,NA,NA,NA,NA,NA,NA,NA,NA,NA,NA,NA,NA,NA,NA,NA,NA,NA,NA,0,1,1,1,1,NA,NA,NA,NA,NA
SUPAMT75167,3R3YRB5GRL2Q064H867R4CS0JZGAUS,37BA4F52-5B1B-402E-B77D-D0FA93CCD224,2023-09-27_08h24.37.932,WP_VExplicitOC_HL,2022.2.5,Win32,22.19608017,39.77142857,3.4402,2.0194,NA,NA,NA,NA,NA,bored,"bored, not bored","more bored, less bored",NA,NA,NA,NA,NA,NA,NA,NA,NA,NA,NA,NA,NA,NA,NA,NA,NA,NA,NA,NA,NA,NA,NA,NA,NA,NA,NA,NA,NA,NA,NA,NA,NA,NA,NA,NA,NA,NA,0,2,2,2,1,NA,NA,NA,NA,NA
SUPAMT75167,3R3YRB5GRL2Q064H867R4CS0JZGAUS,37BA4F52-5B1B-402E-B77D-D0FA93CCD224,2023-09-27_08h24.37.932,WP_VExplicitOC_HL,2022.2.5,Win32,22.19608017,NA,NA,NA,NA,NA,NA,NA,NA,NA,NA,NA,NA,NA,NA,NA,NA,NA,NA,NA,NA,NA,NA,NA,NA,NA,NA,NA,NA,NA,NA,NA,NA,NA,NA,NA,NA,NA,NA,NA,NA,NA,NA,NA,NA,NA,NA,NA,NA,NA,NA,NA,NA,NA,NA,7,0,7,0,1
SUPAMT75167,3R3YRB5GRL2Q064H867R4CS0JZGAUS,37BA4F52-5B1B-402E-B77D-D0FA93CCD224,2023-09-27_08h24.37.932,WP_VExplicitOC_HL,2022.2.5,Win32,22.19608017,NA,NA,2.0603,NA,NA,NA,NA,NA,bored,"bored, not bored","more bored, less bored",NA,NA,NA,NA,NA,NA,NA,NA,NA,NA,NA,NA,NA,NA,NA,NA,NA,NA,NA,NA,NA,NA,NA,NA,NA,NA,NA,NA,NA,NA,NA,NA,NA,NA,NA,NA,NA,NA,0,0,0,2,1,NA,NA,NA,NA,NA
SUPAMT75167,3R3YRB5GRL2Q064H867R4CS0JZGAUS,37BA4F52-5B1B-402E-B77D-D0FA93CCD224,2023-09-27_08h24.37.932,WP_VExplicitOC_HL,2022.2.5,Win32,22.19608017,NA,NA,2.0492,NA,NA,NA,NA,NA,frustrated,"frustrated, not frustrated","more frustrated, less frustrated",NA,NA,NA,NA,NA,NA,NA,NA,NA,NA,NA,NA,NA,NA,NA,NA,NA,NA,NA,NA,NA,NA,NA,NA,NA,NA,NA,NA,NA,NA,NA,NA,NA,NA,NA,NA,NA,NA,0,1,1,1,1,NA,NA,NA,NA,NA
SUPAMT75167,3R3YRB5GRL2Q064H867R4CS0JZGAUS,37BA4F52-5B1B-402E-B77D-D0FA93CCD224,2023-09-27_08h24.37.932,WP_VExplicitOC_HL,2022.2.5,Win32,22.19608017,NA,NA,2.0099,NA,NA,NA,NA,NA,happy,"unhappy, happy","less happy, more happy",NA,NA,NA,NA,NA,NA,NA,NA,NA,NA,NA,NA,NA,NA,NA,NA,NA,NA,NA,NA,NA,NA,NA,NA,NA,NA,NA,NA,NA,NA,NA,NA,NA,NA,NA,NA,NA,NA,0,2,2,0,1,NA,NA,NA,NA,NA
SUPAMT75167,3R3YRB5GRL2Q064H867R4CS0JZGAUS,37BA4F52-5B1B-402E-B77D-D0FA93CCD224,2023-09-27_08h24.37.932,WP_VExplicitOC_HL,2022.2.5,Win32,22.19608017,NA,NA,NA,NA,NA,NA,NA,NA,NA,NA,NA,NA,NA,NA,NA,NA,NA,NA,NA,NA,NA,NA,NA,NA,NA,NA,NA,NA,NA,NA,NA,NA,NA,NA,NA,NA,NA,NA,NA,NA,NA,NA,NA,NA,NA,NA,NA,NA,NA,NA,NA,NA,NA,NA,8,0,8,0,1
SUPAMT75167,3R3YRB5GRL2Q064H867R4CS0JZGAUS,37BA4F52-5B1B-402E-B77D-D0FA93CCD224,2023-09-27_08h24.37.932,WP_VExplicitOC_HL,2022.2.5,Win32,22.19608017,NA,NA,2.0027,NA,NA,NA,NA,NA,bored,"bored, not bored","more bored, less bored",NA,NA,NA,NA,NA,NA,NA,NA,NA,NA,NA,NA,NA,NA,NA,NA,NA,NA,NA,NA,NA,NA,NA,NA,NA,NA,NA,NA,NA,NA,NA,NA,NA,NA,NA,NA,NA,NA,0,0,0,2,1,NA,NA,NA,NA,NA
SUPAMT75167,3R3YRB5GRL2Q064H867R4CS0JZGAUS,37BA4F52-5B1B-402E-B77D-D0FA93CCD224,2023-09-27_08h24.37.932,WP_VExplicitOC_HL,2022.2.5,Win32,22.19608017,NA,NA,2.0286,NA,NA,NA,NA,NA,happy,"unhappy, happy","less happy, more happy",NA,NA,NA,NA,NA,NA,NA,NA,NA,NA,NA,NA,NA,NA,NA,NA,NA,NA,NA,NA,NA,NA,NA,NA,NA,NA,NA,NA,NA,NA,NA,NA,NA,NA,NA,NA,NA,NA,0,1,1,0,1,NA,NA,NA,NA,NA
SUPAMT75167,3R3YRB5GRL2Q064H867R4CS0JZGAUS,37BA4F52-5B1B-402E-B77D-D0FA93CCD224,2023-09-27_08h24.37.932,WP_VExplicitOC_HL,2022.2.5,Win32,22.19608017,NA,NA,2.0432,NA,NA,NA,NA,NA,frustrated,"frustrated, not frustrated","more frustrated, less frustrated",NA,NA,NA,NA,NA,NA,NA,NA,NA,NA,NA,NA,NA,NA,NA,NA,NA,NA,NA,NA,NA,NA,NA,NA,NA,NA,NA,NA,NA,NA,NA,NA,NA,NA,NA,NA,NA,NA,0,2,2,1,1,NA,NA,NA,NA,NA
SUPAMT75167,3R3YRB5GRL2Q064H867R4CS0JZGAUS,37BA4F52-5B1B-402E-B77D-D0FA93CCD224,2023-09-27_08h24.37.932,WP_VExplicitOC_HL,2022.2.5,Win32,22.19608017,NA,NA,NA,NA,NA,NA,NA,NA,NA,NA,NA,NA,NA,NA,NA,NA,NA,NA,NA,NA,NA,NA,NA,NA,NA,NA,NA,NA,NA,NA,NA,NA,NA,NA,NA,NA,NA,NA,NA,NA,NA,NA,NA,NA,NA,NA,NA,NA,NA,NA,NA,NA,NA,NA,9,0,9,0,1
SUPAMT75167,3R3YRB5GRL2Q064H867R4CS0JZGAUS,37BA4F52-5B1B-402E-B77D-D0FA93CCD224,2023-09-27_08h24.37.932,WP_VExplicitOC_HL,2022.2.5,Win32,22.19608017,NA,NA,2.0594,NA,NA,NA,NA,NA,happy,"unhappy, happy","less happy, more happy",NA,NA,NA,NA,NA,NA,NA,NA,NA,NA,NA,NA,NA,NA,NA,NA,NA,NA,NA,NA,NA,NA,NA,NA,NA,NA,NA,NA,NA,NA,NA,NA,NA,NA,NA,NA,NA,NA,0,0,0,0,1,NA,NA,NA,NA,NA
SUPAMT75167,3R3YRB5GRL2Q064H867R4CS0JZGAUS,37BA4F52-5B1B-402E-B77D-D0FA93CCD224,2023-09-27_08h24.37.932,WP_VExplicitOC_HL,2022.2.5,Win32,22.19608017,NA,NA,2.0144,NA,NA,NA,NA,NA,frustrated,"frustrated, not frustrated","more frustrated, less frustrated",NA,NA,NA,NA,NA,NA,NA,NA,NA,NA,NA,NA,NA,NA,NA,NA,NA,NA,NA,NA,NA,NA,NA,NA,NA,NA,NA,NA,NA,NA,NA,NA,NA,NA,NA,NA,NA,NA,0,1,1,1,1,NA,NA,NA,NA,NA
SUPAMT75167,3R3YRB5GRL2Q064H867R4CS0JZGAUS,37BA4F52-5B1B-402E-B77D-D0FA93CCD224,2023-09-27_08h24.37.932,WP_VExplicitOC_HL,2022.2.5,Win32,22.19608017,NA,NA,2.0563,NA,NA,NA,NA,NA,bored,"bored, not bored","more bored, less bored",NA,NA,NA,NA,NA,NA,NA,NA,NA,NA,NA,NA,NA,NA,NA,NA,NA,NA,NA,NA,NA,NA,NA,NA,NA,NA,NA,NA,NA,NA,NA,NA,NA,NA,NA,NA,NA,NA,0,2,2,2,1,NA,NA,NA,NA,NA
SUPAMT75167,3R3YRB5GRL2Q064H867R4CS0JZGAUS,37BA4F52-5B1B-402E-B77D-D0FA93CCD224,2023-09-27_08h24.37.932,WP_VExplicitOC_HL,2022.2.5,Win32,22.19608017,NA,NA,NA,NA,NA,NA,NA,NA,NA,NA,NA,NA,NA,NA,NA,NA,NA,NA,NA,NA,NA,NA,NA,NA,NA,NA,NA,NA,NA,NA,NA,NA,NA,NA,NA,NA,NA,NA,NA,NA,NA,NA,NA,NA,NA,NA,NA,NA,NA,NA,NA,NA,NA,NA,10,0,10,0,1
SUPAMT75167,3R3YRB5GRL2Q064H867R4CS0JZGAUS,37BA4F52-5B1B-402E-B77D-D0FA93CCD224,2023-09-27_08h24.37.932,WP_VExplicitOC_HL,2022.2.5,Win32,22.19608017,NA,NA,2.0078,NA,NA,NA,NA,NA,happy,"unhappy, happy","less happy, more happy",NA,NA,NA,NA,NA,NA,NA,NA,NA,NA,NA,NA,NA,NA,NA,NA,NA,NA,NA,NA,NA,NA,NA,NA,NA,NA,NA,NA,NA,NA,NA,NA,NA,NA,NA,NA,NA,NA,0,0,0,0,1,NA,NA,NA,NA,NA
SUPAMT75167,3R3YRB5GRL2Q064H867R4CS0JZGAUS,37BA4F52-5B1B-402E-B77D-D0FA93CCD224,2023-09-27_08h24.37.932,WP_VExplicitOC_HL,2022.2.5,Win32,22.19608017,NA,NA,2.0595,NA,NA,NA,NA,NA,bored,"bored, not bored","more bored, less bored",NA,NA,NA,NA,NA,NA,NA,NA,NA,NA,NA,NA,NA,NA,NA,NA,NA,NA,NA,NA,NA,NA,NA,NA,NA,NA,NA,NA,NA,NA,NA,NA,NA,NA,NA,NA,NA,NA,0,1,1,2,1,NA,NA,NA,NA,NA
SUPAMT75167,3R3YRB5GRL2Q064H867R4CS0JZGAUS,37BA4F52-5B1B-402E-B77D-D0FA93CCD224,2023-09-27_08h24.37.932,WP_VExplicitOC_HL,2022.2.5,Win32,22.19608017,NA,NA,2.0234,NA,NA,NA,NA,NA,frustrated,"frustrated, not frustrated","more frustrated, less frustrated",NA,NA,NA,NA,NA,NA,NA,NA,NA,NA,NA,NA,NA,NA,NA,NA,NA,NA,NA,NA,NA,NA,NA,NA,NA,NA,NA,NA,NA,NA,NA,NA,NA,NA,NA,NA,NA,NA,0,2,2,1,1,NA,NA,NA,NA,NA
SUPAMT75167,3R3YRB5GRL2Q064H867R4CS0JZGAUS,37BA4F52-5B1B-402E-B77D-D0FA93CCD224,2023-09-27_08h24.37.932,WP_VExplicitOC_HL,2022.2.5,Win32,22.19608017,NA,NA,NA,NA,NA,NA,NA,NA,NA,NA,NA,NA,NA,NA,NA,NA,NA,NA,NA,NA,NA,NA,NA,NA,NA,NA,NA,NA,NA,NA,NA,NA,NA,NA,NA,NA,NA,NA,NA,NA,NA,NA,NA,NA,NA,NA,NA,NA,NA,NA,NA,NA,NA,NA,11,0,11,0,1
SUPAMT75167,3R3YRB5GRL2Q064H867R4CS0JZGAUS,37BA4F52-5B1B-402E-B77D-D0FA93CCD224,2023-09-27_08h24.37.932,WP_VExplicitOC_HL,2022.2.5,Win32,22.19608017,NA,NA,2.0458,NA,NA,NA,NA,NA,happy,"unhappy, happy","less happy, more happy",NA,NA,NA,NA,NA,NA,NA,NA,NA,NA,NA,NA,NA,NA,NA,NA,NA,NA,NA,NA,NA,NA,NA,NA,NA,NA,NA,NA,NA,NA,NA,NA,NA,NA,NA,NA,NA,NA,0,0,0,0,1,NA,NA,NA,NA,NA
SUPAMT75167,3R3YRB5GRL2Q064H867R4CS0JZGAUS,37BA4F52-5B1B-402E-B77D-D0FA93CCD224,2023-09-27_08h24.37.932,WP_VExplicitOC_HL,2022.2.5,Win32,22.19608017,NA,NA,2.0074,NA,NA,NA,NA,NA,bored,"bored, not bored","more bored, less bored",NA,NA,NA,NA,NA,NA,NA,NA,NA,NA,NA,NA,NA,NA,NA,NA,NA,NA,NA,NA,NA,NA,NA,NA,NA,NA,NA,NA,NA,NA,NA,NA,NA,NA,NA,NA,NA,NA,0,1,1,2,1,NA,NA,NA,NA,NA
SUPAMT75167,3R3YRB5GRL2Q064H867R4CS0JZGAUS,37BA4F52-5B1B-402E-B77D-D0FA93CCD224,2023-09-27_08h24.37.932,WP_VExplicitOC_HL,2022.2.5,Win32,22.19608017,NA,NA,2.0261,NA,NA,NA,NA,NA,frustrated,"frustrated, not frustrated","more frustrated, less frustrated",NA,NA,NA,NA,NA,NA,NA,NA,NA,NA,NA,NA,NA,NA,NA,NA,NA,NA,NA,NA,NA,NA,NA,NA,NA,NA,NA,NA,NA,NA,NA,NA,NA,NA,NA,NA,NA,NA,0,2,2,1,1,NA,NA,NA,NA,NA
SUPAMT75167,3R3YRB5GRL2Q064H867R4CS0JZGAUS,37BA4F52-5B1B-402E-B77D-D0FA93CCD224,2023-09-27_08h24.37.932,WP_VExplicitOC_HL,2022.2.5,Win32,22.19608017,NA,NA,NA,NA,NA,NA,NA,NA,NA,NA,NA,NA,NA,NA,NA,NA,NA,NA,NA,NA,NA,NA,NA,NA,NA,NA,NA,NA,NA,NA,NA,NA,NA,NA,NA,NA,NA,NA,NA,NA,NA,NA,NA,NA,NA,NA,NA,NA,NA,NA,NA,NA,NA,NA,12,0,12,0,1
SUPAMT75167,3R3YRB5GRL2Q064H867R4CS0JZGAUS,37BA4F52-5B1B-402E-B77D-D0FA93CCD224,2023-09-27_08h24.37.932,WP_VExplicitOC_HL,2022.2.5,Win32,22.19608017,NA,NA,2.0085,NA,NA,NA,NA,NA,bored,"bored, not bored","more bored, less bored",NA,NA,NA,NA,NA,NA,NA,NA,NA,NA,NA,NA,NA,NA,NA,NA,NA,NA,NA,NA,NA,NA,NA,NA,NA,NA,NA,NA,NA,NA,NA,NA,NA,NA,NA,NA,NA,NA,0,0,0,2,1,NA,NA,NA,NA,NA
SUPAMT75167,3R3YRB5GRL2Q064H867R4CS0JZGAUS,37BA4F52-5B1B-402E-B77D-D0FA93CCD224,2023-09-27_08h24.37.932,WP_VExplicitOC_HL,2022.2.5,Win32,22.19608017,NA,NA,2.0167,NA,NA,NA,NA,NA,happy,"unhappy, happy","less happy, more happy",NA,NA,NA,NA,NA,NA,NA,NA,NA,NA,NA,NA,NA,NA,NA,NA,NA,NA,NA,NA,NA,NA,NA,NA,NA,NA,NA,NA,NA,NA,NA,NA,NA,NA,NA,NA,NA,NA,0,1,1,0,1,NA,NA,NA,NA,NA
SUPAMT75167,3R3YRB5GRL2Q064H867R4CS0JZGAUS,37BA4F52-5B1B-402E-B77D-D0FA93CCD224,2023-09-27_08h24.37.932,WP_VExplicitOC_HL,2022.2.5,Win32,22.19608017,NA,NA,2.0264,NA,NA,NA,NA,NA,frustrated,"frustrated, not frustrated","more frustrated, less frustrated",NA,NA,NA,NA,NA,NA,NA,NA,NA,NA,NA,NA,NA,NA,NA,NA,NA,NA,NA,NA,NA,NA,NA,NA,NA,NA,NA,NA,NA,NA,NA,NA,NA,NA,NA,NA,NA,NA,0,2,2,1,1,NA,NA,NA,NA,NA
SUPAMT75167,3R3YRB5GRL2Q064H867R4CS0JZGAUS,37BA4F52-5B1B-402E-B77D-D0FA93CCD224,2023-09-27_08h24.37.932,WP_VExplicitOC_HL,2022.2.5,Win32,22.19608017,NA,NA,NA,NA,NA,NA,NA,NA,NA,NA,NA,NA,NA,NA,NA,NA,NA,NA,NA,NA,NA,NA,NA,NA,NA,NA,NA,NA,NA,NA,NA,NA,NA,NA,NA,NA,NA,NA,NA,NA,NA,NA,NA,NA,NA,NA,NA,NA,NA,NA,NA,NA,NA,NA,13,0,13,0,1
SUPAMT75167,3R3YRB5GRL2Q064H867R4CS0JZGAUS,37BA4F52-5B1B-402E-B77D-D0FA93CCD224,2023-09-27_08h24.37.932,WP_VExplicitOC_HL,2022.2.5,Win32,22.19608017,NA,NA,2.0372,NA,NA,NA,NA,NA,happy,"unhappy, happy","less happy, more happy",NA,NA,NA,NA,NA,NA,NA,NA,NA,NA,NA,NA,NA,NA,NA,NA,NA,NA,NA,NA,NA,NA,NA,NA,NA,NA,NA,NA,NA,NA,NA,NA,NA,NA,NA,NA,NA,NA,0,0,0,0,1,NA,NA,NA,NA,NA
SUPAMT75167,3R3YRB5GRL2Q064H867R4CS0JZGAUS,37BA4F52-5B1B-402E-B77D-D0FA93CCD224,2023-09-27_08h24.37.932,WP_VExplicitOC_HL,2022.2.5,Win32,22.19608017,NA,NA,2.0348,NA,NA,NA,NA,NA,bored,"bored, not bored","more bored, less bored",NA,NA,NA,NA,NA,NA,NA,NA,NA,NA,NA,NA,NA,NA,NA,NA,NA,NA,NA,NA,NA,NA,NA,NA,NA,NA,NA,NA,NA,NA,NA,NA,NA,NA,NA,NA,NA,NA,0,1,1,2,1,NA,NA,NA,NA,NA
SUPAMT75167,3R3YRB5GRL2Q064H867R4CS0JZGAUS,37BA4F52-5B1B-402E-B77D-D0FA93CCD224,2023-09-27_08h24.37.932,WP_VExplicitOC_HL,2022.2.5,Win32,22.19608017,NA,NA,2.0617,NA,NA,NA,NA,NA,frustrated,"frustrated, not frustrated","more frustrated, less frustrated",NA,NA,NA,NA,NA,NA,NA,NA,NA,NA,NA,NA,NA,NA,NA,NA,NA,NA,NA,NA,NA,NA,NA,NA,NA,NA,NA,NA,NA,NA,NA,NA,NA,NA,NA,NA,NA,NA,0,2,2,1,1,NA,NA,NA,NA,NA
SUPAMT75167,3R3YRB5GRL2Q064H867R4CS0JZGAUS,37BA4F52-5B1B-402E-B77D-D0FA93CCD224,2023-09-27_08h24.37.932,WP_VExplicitOC_HL,2022.2.5,Win32,22.19608017,NA,NA,NA,NA,NA,NA,NA,NA,NA,NA,NA,NA,NA,NA,NA,NA,NA,NA,NA,NA,NA,NA,NA,NA,NA,NA,NA,NA,NA,NA,NA,NA,NA,NA,NA,NA,NA,NA,NA,NA,NA,NA,NA,NA,NA,NA,NA,NA,NA,NA,NA,NA,NA,NA,14,0,14,0,1
SUPAMT75167,3R3YRB5GRL2Q064H867R4CS0JZGAUS,37BA4F52-5B1B-402E-B77D-D0FA93CCD224,2023-09-27_08h24.37.932,WP_VExplicitOC_HL,2022.2.5,Win32,22.19608017,NA,NA,NA,NA,NA,NA,NA,NA,NA,NA,NA,NA,NA,NA,NA,NA,NA,NA,NA,NA,NA,NA,NA,NA,NA,NA,NA,NA,NA,NA,NA,NA,NA,NA,NA,NA,NA,NA,NA,NA,NA,NA,NA,NA,NA,NA,NA,NA,NA,NA,NA,NA,NA,NA,NA,NA,NA,NA,NA
