participant,session,completion,date,expName,psychopyVersion,OS,frameRate,rating_all.response,rating_all.rt,rating_all.tStart,rndRat1.thisRepN,rndRat1.thisTrialN,rndRat1.thisN,rndRat1.thisIndex,rndRat1.ran,Emo,Labs,Labs2,rating_alt.response,rating_alt.rt,AltC.thisRepN,AltC.thisTrialN,AltC.thisN,AltC.thisIndex,AltC.ran,alt_choices,pic_choices,TopAlt_Choice,rndRat2.thisRepN,rndRat2.thisTrialN,rndRat2.thisN,rndRat2.thisIndex,rndRat2.ran,rndRat3.thisRepN,rndRat3.thisTrialN,rndRat3.thisN,rndRat3.thisIndex,rndRat3.ran,trials_FC_H.thisRepN,trials_FC_H.thisTrialN,trials_FC_H.thisN,trials_FC_H.thisIndex,trials_FC_H.ran,rating_alt_2.response,rating_alt_2.rt,AltC2.thisRepN,AltC2.thisTrialN,AltC2.thisN,AltC2.thisIndex,AltC2.ran,BottomAlt_Choice,rndRat4.thisRepN,rndRat4.thisTrialN,rndRat4.thisN,rndRat4.thisIndex,rndRat4.ran,rndRat5.thisRepN,rndRat5.thisTrialN,rndRat5.thisN,rndRat5.thisIndex,rndRat5.ran,trials_FC_L.thisRepN,trials_FC_L.thisTrialN,trials_FC_L.thisN,trials_FC_L.thisIndex,trials_FC_L.ran
SUPAMT02221,3WEV0KO0OSR8J0FP3B3TFCIIJDVSDF,92FE0C8C-A9BE-47C2-9454-726AB0B7CC7F,2023-09-28_14h04.11.635,WP_VExplicitOC_HL,2022.2.5,Win32,13.04835721,NA,NA,NA,NA,NA,NA,NA,NA,NA,NA,NA,NA,NA,NA,NA,NA,NA,NA,NA,NA,NA,NA,NA,NA,NA,NA,NA,NA,NA,NA,NA,NA,NA,NA,NA,NA,NA,NA,NA,NA,NA,NA,NA,NA,NA,NA,NA,NA,NA,NA,NA,NA,NA,NA,NA,NA,NA,NA,NA
SUPAMT02221,3WEV0KO0OSR8J0FP3B3TFCIIJDVSDF,92FE0C8C-A9BE-47C2-9454-726AB0B7CC7F,2023-09-28_14h04.11.635,WP_VExplicitOC_HL,2022.2.5,Win32,13.04835721,NA,NA,NA,NA,NA,NA,NA,NA,NA,NA,NA,NA,NA,NA,NA,NA,NA,NA,NA,NA,NA,NA,NA,NA,NA,NA,NA,NA,NA,NA,NA,NA,NA,NA,NA,NA,NA,NA,NA,NA,NA,NA,NA,NA,NA,NA,NA,NA,NA,NA,NA,NA,NA,NA,NA,NA,NA,NA,NA
SUPAMT02221,3WEV0KO0OSR8J0FP3B3TFCIIJDVSDF,92FE0C8C-A9BE-47C2-9454-726AB0B7CC7F,2023-09-28_14h04.11.635,WP_VExplicitOC_HL,2022.2.5,Win32,13.04835721,NA,NA,NA,NA,NA,NA,NA,NA,NA,NA,NA,NA,NA,NA,NA,NA,NA,NA,NA,NA,NA,NA,NA,NA,NA,NA,NA,NA,NA,NA,NA,NA,NA,NA,NA,NA,NA,NA,NA,NA,NA,NA,NA,NA,NA,NA,NA,NA,NA,NA,NA,NA,NA,NA,NA,NA,NA,NA,NA
SUPAMT02221,3WEV0KO0OSR8J0FP3B3TFCIIJDVSDF,92FE0C8C-A9BE-47C2-9454-726AB0B7CC7F,2023-09-28_14h04.11.635,WP_VExplicitOC_HL,2022.2.5,Win32,13.04835721,98.4375,6.1018,2.0083,0,0,0,0,1,happy,"unhappy, happy","less happy, more happy",NA,NA,NA,NA,NA,NA,NA,NA,NA,NA,NA,NA,NA,NA,NA,NA,NA,NA,NA,NA,NA,NA,NA,NA,NA,NA,NA,NA,NA,NA,NA,NA,NA,NA,NA,NA,NA,NA,NA,NA,NA,NA,NA,NA,NA,NA,NA,NA
SUPAMT02221,3WEV0KO0OSR8J0FP3B3TFCIIJDVSDF,92FE0C8C-A9BE-47C2-9454-726AB0B7CC7F,2023-09-28_14h04.11.635,WP_VExplicitOC_HL,2022.2.5,Win32,13.04835721,NA,NA,2.0467,0,1,1,2,1,bored,"bored, not bored","more bored, less bored",NA,NA,NA,NA,NA,NA,NA,NA,NA,NA,NA,NA,NA,NA,NA,NA,NA,NA,NA,NA,NA,NA,NA,NA,NA,NA,NA,NA,NA,NA,NA,NA,NA,NA,NA,NA,NA,NA,NA,NA,NA,NA,NA,NA,NA,NA,NA,NA
SUPAMT02221,3WEV0KO0OSR8J0FP3B3TFCIIJDVSDF,92FE0C8C-A9BE-47C2-9454-726AB0B7CC7F,2023-09-28_14h04.11.635,WP_VExplicitOC_HL,2022.2.5,Win32,13.04835721,NA,NA,2.0993,0,2,2,1,1,frustrated,"frustrated, not frustrated","more frustrated, less frustrated",NA,NA,NA,NA,NA,NA,NA,NA,NA,NA,NA,NA,NA,NA,NA,NA,NA,NA,NA,NA,NA,NA,NA,NA,NA,NA,NA,NA,NA,NA,NA,NA,NA,NA,NA,NA,NA,NA,NA,NA,NA,NA,NA,NA,NA,NA,NA,NA
SUPAMT02221,3WEV0KO0OSR8J0FP3B3TFCIIJDVSDF,92FE0C8C-A9BE-47C2-9454-726AB0B7CC7F,2023-09-28_14h04.11.635,WP_VExplicitOC_HL,2022.2.5,Win32,13.04835721,NA,NA,NA,NA,NA,NA,NA,NA,NA,NA,NA,NA,NA,NA,NA,NA,NA,NA,NA,NA,NA,NA,NA,NA,NA,NA,NA,NA,NA,NA,NA,NA,NA,NA,NA,NA,NA,NA,NA,NA,NA,NA,NA,NA,NA,NA,NA,NA,NA,NA,NA,NA,NA,NA,NA,NA,NA,NA,NA
SUPAMT02221,3WEV0KO0OSR8J0FP3B3TFCIIJDVSDF,92FE0C8C-A9BE-47C2-9454-726AB0B7CC7F,2023-09-28_14h04.11.635,WP_VExplicitOC_HL,2022.2.5,Win32,13.04835721,NA,NA,NA,NA,NA,NA,NA,NA,NA,NA,NA,NA,NA,NA,NA,NA,NA,NA,NA,NA,NA,NA,NA,NA,NA,NA,NA,NA,NA,NA,NA,NA,NA,NA,NA,NA,NA,NA,NA,NA,NA,NA,NA,NA,NA,NA,NA,NA,NA,NA,NA,NA,NA,NA,NA,NA,NA,NA,NA
SUPAMT02221,3WEV0KO0OSR8J0FP3B3TFCIIJDVSDF,92FE0C8C-A9BE-47C2-9454-726AB0B7CC7F,2023-09-28_14h04.11.635,WP_VExplicitOC_HL,2022.2.5,Win32,13.04835721,NA,NA,NA,NA,NA,NA,NA,NA,NA,NA,NA,NA,NA,NA,NA,NA,NA,NA,NA,NA,NA,NA,NA,NA,NA,NA,NA,NA,NA,NA,NA,NA,NA,NA,NA,NA,NA,NA,NA,NA,NA,NA,NA,NA,NA,NA,NA,NA,NA,NA,NA,NA,NA,NA,NA,NA,NA,NA,NA
SUPAMT02221,3WEV0KO0OSR8J0FP3B3TFCIIJDVSDF,92FE0C8C-A9BE-47C2-9454-726AB0B7CC7F,2023-09-28_14h04.11.635,WP_VExplicitOC_HL,2022.2.5,Win32,13.04835721,NA,NA,NA,NA,NA,NA,NA,NA,NA,NA,NA,NA,NA,NA,NA,NA,NA,NA,NA,NA,NA,NA,NA,NA,NA,NA,NA,NA,NA,NA,NA,NA,NA,NA,NA,NA,NA,NA,NA,NA,NA,NA,NA,NA,NA,NA,NA,NA,NA,NA,NA,NA,NA,NA,NA,NA,NA,NA,NA
SUPAMT02221,3WEV0KO0OSR8J0FP3B3TFCIIJDVSDF,92FE0C8C-A9BE-47C2-9454-726AB0B7CC7F,2023-09-28_14h04.11.635,WP_VExplicitOC_HL,2022.2.5,Win32,13.04835721,NA,NA,NA,NA,NA,NA,NA,NA,NA,NA,NA,59.11458333,2.1957,0,0,0,0,1,rest (looking at a fixed cross),001.png,NA,NA,NA,NA,NA,NA,NA,NA,NA,NA,NA,NA,NA,NA,NA,NA,NA,NA,NA,NA,NA,NA,NA,NA,NA,NA,NA,NA,NA,NA,NA,NA,NA,NA,NA,NA,NA,NA,NA
SUPAMT02221,3WEV0KO0OSR8J0FP3B3TFCIIJDVSDF,92FE0C8C-A9BE-47C2-9454-726AB0B7CC7F,2023-09-28_14h04.11.635,WP_VExplicitOC_HL,2022.2.5,Win32,13.04835721,NA,NA,NA,NA,NA,NA,NA,NA,NA,NA,NA,53.125,2.0217,0,1,1,1,1,stand up,002.png,NA,NA,NA,NA,NA,NA,NA,NA,NA,NA,NA,NA,NA,NA,NA,NA,NA,NA,NA,NA,NA,NA,NA,NA,NA,NA,NA,NA,NA,NA,NA,NA,NA,NA,NA,NA,NA,NA,NA
SUPAMT02221,3WEV0KO0OSR8J0FP3B3TFCIIJDVSDF,92FE0C8C-A9BE-47C2-9454-726AB0B7CC7F,2023-09-28_14h04.11.635,WP_VExplicitOC_HL,2022.2.5,Win32,13.04835721,NA,NA,NA,NA,NA,NA,NA,NA,NA,NA,NA,40.36458333,1.9069,0,2,2,2,1,stretch,003.png,NA,NA,NA,NA,NA,NA,NA,NA,NA,NA,NA,NA,NA,NA,NA,NA,NA,NA,NA,NA,NA,NA,NA,NA,NA,NA,NA,NA,NA,NA,NA,NA,NA,NA,NA,NA,NA,NA,NA
SUPAMT02221,3WEV0KO0OSR8J0FP3B3TFCIIJDVSDF,92FE0C8C-A9BE-47C2-9454-726AB0B7CC7F,2023-09-28_14h04.11.635,WP_VExplicitOC_HL,2022.2.5,Win32,13.04835721,NA,NA,NA,NA,NA,NA,NA,NA,NA,NA,NA,57.29166667,1.6631,0,3,3,3,1,make a drink,004.png,NA,NA,NA,NA,NA,NA,NA,NA,NA,NA,NA,NA,NA,NA,NA,NA,NA,NA,NA,NA,NA,NA,NA,NA,NA,NA,NA,NA,NA,NA,NA,NA,NA,NA,NA,NA,NA,NA,NA
SUPAMT02221,3WEV0KO0OSR8J0FP3B3TFCIIJDVSDF,92FE0C8C-A9BE-47C2-9454-726AB0B7CC7F,2023-09-28_14h04.11.635,WP_VExplicitOC_HL,2022.2.5,Win32,13.04835721,NA,NA,NA,NA,NA,NA,NA,NA,NA,NA,NA,84.11458333,1.4511,0,4,4,4,1,scroll social media,005.png,NA,NA,NA,NA,NA,NA,NA,NA,NA,NA,NA,NA,NA,NA,NA,NA,NA,NA,NA,NA,NA,NA,NA,NA,NA,NA,NA,NA,NA,NA,NA,NA,NA,NA,NA,NA,NA,NA,NA
SUPAMT02221,3WEV0KO0OSR8J0FP3B3TFCIIJDVSDF,92FE0C8C-A9BE-47C2-9454-726AB0B7CC7F,2023-09-28_14h04.11.635,WP_VExplicitOC_HL,2022.2.5,Win32,13.04835721,NA,NA,NA,NA,NA,NA,NA,NA,NA,NA,NA,49.47916667,6.813,0,5,5,5,1,listen to music,006.png,NA,NA,NA,NA,NA,NA,NA,NA,NA,NA,NA,NA,NA,NA,NA,NA,NA,NA,NA,NA,NA,NA,NA,NA,NA,NA,NA,NA,NA,NA,NA,NA,NA,NA,NA,NA,NA,NA,NA
SUPAMT02221,3WEV0KO0OSR8J0FP3B3TFCIIJDVSDF,92FE0C8C-A9BE-47C2-9454-726AB0B7CC7F,2023-09-28_14h04.11.635,WP_VExplicitOC_HL,2022.2.5,Win32,13.04835721,NA,NA,NA,NA,NA,NA,NA,NA,NA,NA,NA,47.91666667,2.6577,0,6,6,6,1,daydream,007.png,NA,NA,NA,NA,NA,NA,NA,NA,NA,NA,NA,NA,NA,NA,NA,NA,NA,NA,NA,NA,NA,NA,NA,NA,NA,NA,NA,NA,NA,NA,NA,NA,NA,NA,NA,NA,NA,NA,NA
SUPAMT02221,3WEV0KO0OSR8J0FP3B3TFCIIJDVSDF,92FE0C8C-A9BE-47C2-9454-726AB0B7CC7F,2023-09-28_14h04.11.635,WP_VExplicitOC_HL,2022.2.5,Win32,13.04835721,NA,NA,NA,NA,NA,NA,NA,NA,NA,NA,NA,71.875,1.6127,0,7,7,7,1,watch a short animation,008.png,NA,NA,NA,NA,NA,NA,NA,NA,NA,NA,NA,NA,NA,NA,NA,NA,NA,NA,NA,NA,NA,NA,NA,NA,NA,NA,NA,NA,NA,NA,NA,NA,NA,NA,NA,NA,NA,NA,NA
SUPAMT02221,3WEV0KO0OSR8J0FP3B3TFCIIJDVSDF,92FE0C8C-A9BE-47C2-9454-726AB0B7CC7F,2023-09-28_14h04.11.635,WP_VExplicitOC_HL,2022.2.5,Win32,13.04835721,NA,NA,NA,NA,NA,NA,NA,NA,NA,NA,NA,75.26041667,1.4826,0,8,8,8,1,read a novel,009.png,NA,NA,NA,NA,NA,NA,NA,NA,NA,NA,NA,NA,NA,NA,NA,NA,NA,NA,NA,NA,NA,NA,NA,NA,NA,NA,NA,NA,NA,NA,NA,NA,NA,NA,NA,NA,NA,NA,NA
SUPAMT02221,3WEV0KO0OSR8J0FP3B3TFCIIJDVSDF,92FE0C8C-A9BE-47C2-9454-726AB0B7CC7F,2023-09-28_14h04.11.635,WP_VExplicitOC_HL,2022.2.5,Win32,13.04835721,NA,NA,NA,NA,NA,NA,NA,NA,NA,NA,NA,58.33333333,1.9174,0,9,9,9,1,read the news,010.png,NA,NA,NA,NA,NA,NA,NA,NA,NA,NA,NA,NA,NA,NA,NA,NA,NA,NA,NA,NA,NA,NA,NA,NA,NA,NA,NA,NA,NA,NA,NA,NA,NA,NA,NA,NA,NA,NA,NA
SUPAMT02221,3WEV0KO0OSR8J0FP3B3TFCIIJDVSDF,92FE0C8C-A9BE-47C2-9454-726AB0B7CC7F,2023-09-28_14h04.11.635,WP_VExplicitOC_HL,2022.2.5,Win32,13.04835721,NA,NA,NA,NA,NA,NA,NA,NA,NA,NA,NA,NA,NA,NA,NA,NA,NA,NA,NA,NA,NA,NA,NA,NA,NA,NA,NA,NA,NA,NA,NA,NA,NA,NA,NA,NA,NA,NA,NA,NA,NA,NA,NA,NA,NA,NA,NA,NA,NA,NA,NA,NA,NA,NA,NA,NA,NA,NA,NA
SUPAMT02221,3WEV0KO0OSR8J0FP3B3TFCIIJDVSDF,92FE0C8C-A9BE-47C2-9454-726AB0B7CC7F,2023-09-28_14h04.11.635,WP_VExplicitOC_HL,2022.2.5,Win32,13.04835721,NA,NA,NA,NA,NA,NA,NA,NA,NA,NA,NA,NA,NA,NA,NA,NA,NA,NA,NA,NA,scroll social media,NA,NA,NA,NA,NA,NA,NA,NA,NA,NA,NA,NA,NA,NA,NA,NA,NA,NA,NA,NA,NA,NA,NA,NA,NA,NA,NA,NA,NA,NA,NA,NA,NA,NA,NA,NA,NA,NA
SUPAMT02221,3WEV0KO0OSR8J0FP3B3TFCIIJDVSDF,92FE0C8C-A9BE-47C2-9454-726AB0B7CC7F,2023-09-28_14h04.11.635,WP_VExplicitOC_HL,2022.2.5,Win32,13.04835721,62.5,4.04,2.0556,NA,NA,NA,NA,NA,bored,"bored, not bored","more bored, less bored",NA,NA,NA,NA,NA,NA,NA,NA,NA,NA,0,0,0,2,1,NA,NA,NA,NA,NA,NA,NA,NA,NA,NA,NA,NA,NA,NA,NA,NA,NA,NA,NA,NA,NA,NA,NA,NA,NA,NA,NA,NA,NA,NA,NA,NA,NA
SUPAMT02221,3WEV0KO0OSR8J0FP3B3TFCIIJDVSDF,92FE0C8C-A9BE-47C2-9454-726AB0B7CC7F,2023-09-28_14h04.11.635,WP_VExplicitOC_HL,2022.2.5,Win32,13.04835721,75.26041667,3.9063,2.0093,NA,NA,NA,NA,NA,frustrated,"frustrated, not frustrated","more frustrated, less frustrated",NA,NA,NA,NA,NA,NA,NA,NA,NA,NA,0,1,1,1,1,NA,NA,NA,NA,NA,NA,NA,NA,NA,NA,NA,NA,NA,NA,NA,NA,NA,NA,NA,NA,NA,NA,NA,NA,NA,NA,NA,NA,NA,NA,NA,NA,NA
SUPAMT02221,3WEV0KO0OSR8J0FP3B3TFCIIJDVSDF,92FE0C8C-A9BE-47C2-9454-726AB0B7CC7F,2023-09-28_14h04.11.635,WP_VExplicitOC_HL,2022.2.5,Win32,13.04835721,37.76041667,6.7843,2.0737,NA,NA,NA,NA,NA,happy,"unhappy, happy","less happy, more happy",NA,NA,NA,NA,NA,NA,NA,NA,NA,NA,0,2,2,0,1,NA,NA,NA,NA,NA,NA,NA,NA,NA,NA,NA,NA,NA,NA,NA,NA,NA,NA,NA,NA,NA,NA,NA,NA,NA,NA,NA,NA,NA,NA,NA,NA,NA
SUPAMT02221,3WEV0KO0OSR8J0FP3B3TFCIIJDVSDF,92FE0C8C-A9BE-47C2-9454-726AB0B7CC7F,2023-09-28_14h04.11.635,WP_VExplicitOC_HL,2022.2.5,Win32,13.04835721,NA,NA,NA,NA,NA,NA,NA,NA,NA,NA,NA,NA,NA,NA,NA,NA,NA,NA,NA,NA,NA,NA,NA,NA,NA,NA,NA,NA,NA,NA,NA,NA,NA,NA,NA,NA,NA,NA,NA,NA,NA,NA,NA,NA,NA,NA,NA,NA,NA,NA,NA,NA,NA,NA,NA,NA,NA,NA,NA
SUPAMT02221,3WEV0KO0OSR8J0FP3B3TFCIIJDVSDF,92FE0C8C-A9BE-47C2-9454-726AB0B7CC7F,2023-09-28_14h04.11.635,WP_VExplicitOC_HL,2022.2.5,Win32,13.04835721,NA,NA,NA,NA,NA,NA,NA,NA,NA,NA,NA,NA,NA,NA,NA,NA,NA,NA,NA,NA,NA,NA,NA,NA,NA,NA,NA,NA,NA,NA,NA,NA,NA,NA,NA,NA,NA,NA,NA,NA,NA,NA,NA,NA,NA,NA,NA,NA,NA,NA,NA,NA,NA,NA,NA,NA,NA,NA,NA
SUPAMT02221,3WEV0KO0OSR8J0FP3B3TFCIIJDVSDF,92FE0C8C-A9BE-47C2-9454-726AB0B7CC7F,2023-09-28_14h04.11.635,WP_VExplicitOC_HL,2022.2.5,Win32,13.04835721,52.60416667,3.8683,2.091,NA,NA,NA,NA,NA,happy,"unhappy, happy","less happy, more happy",NA,NA,NA,NA,NA,NA,NA,NA,NA,NA,NA,NA,NA,NA,NA,0,0,0,0,1,NA,NA,NA,NA,NA,NA,NA,NA,NA,NA,NA,NA,NA,NA,NA,NA,NA,NA,NA,NA,NA,NA,NA,NA,NA,NA,NA,NA
SUPAMT02221,3WEV0KO0OSR8J0FP3B3TFCIIJDVSDF,92FE0C8C-A9BE-47C2-9454-726AB0B7CC7F,2023-09-28_14h04.11.635,WP_VExplicitOC_HL,2022.2.5,Win32,13.04835721,51.04166667,3.6629,2.1032,NA,NA,NA,NA,NA,bored,"bored, not bored","more bored, less bored",NA,NA,NA,NA,NA,NA,NA,NA,NA,NA,NA,NA,NA,NA,NA,0,1,1,2,1,NA,NA,NA,NA,NA,NA,NA,NA,NA,NA,NA,NA,NA,NA,NA,NA,NA,NA,NA,NA,NA,NA,NA,NA,NA,NA,NA,NA
SUPAMT02221,3WEV0KO0OSR8J0FP3B3TFCIIJDVSDF,92FE0C8C-A9BE-47C2-9454-726AB0B7CC7F,2023-09-28_14h04.11.635,WP_VExplicitOC_HL,2022.2.5,Win32,13.04835721,40.88541667,4.0755,2.0597,NA,NA,NA,NA,NA,frustrated,"frustrated, not frustrated","more frustrated, less frustrated",NA,NA,NA,NA,NA,NA,NA,NA,NA,NA,NA,NA,NA,NA,NA,0,2,2,1,1,NA,NA,NA,NA,NA,NA,NA,NA,NA,NA,NA,NA,NA,NA,NA,NA,NA,NA,NA,NA,NA,NA,NA,NA,NA,NA,NA,NA
SUPAMT02221,3WEV0KO0OSR8J0FP3B3TFCIIJDVSDF,92FE0C8C-A9BE-47C2-9454-726AB0B7CC7F,2023-09-28_14h04.11.635,WP_VExplicitOC_HL,2022.2.5,Win32,13.04835721,NA,NA,NA,NA,NA,NA,NA,NA,NA,NA,NA,NA,NA,NA,NA,NA,NA,NA,NA,NA,NA,NA,NA,NA,NA,NA,NA,NA,NA,NA,NA,0,0,0,0,1,NA,NA,NA,NA,NA,NA,NA,NA,NA,NA,NA,NA,NA,NA,NA,NA,NA,NA,NA,NA,NA,NA,NA
SUPAMT02221,3WEV0KO0OSR8J0FP3B3TFCIIJDVSDF,92FE0C8C-A9BE-47C2-9454-726AB0B7CC7F,2023-09-28_14h04.11.635,WP_VExplicitOC_HL,2022.2.5,Win32,13.04835721,100,3.5478,2.0117,NA,NA,NA,NA,NA,happy,"unhappy, happy","less happy, more happy",NA,NA,NA,NA,NA,NA,NA,NA,NA,NA,NA,NA,NA,NA,NA,0,0,0,0,1,NA,NA,NA,NA,NA,NA,NA,NA,NA,NA,NA,NA,NA,NA,NA,NA,NA,NA,NA,NA,NA,NA,NA,NA,NA,NA,NA,NA
SUPAMT02221,3WEV0KO0OSR8J0FP3B3TFCIIJDVSDF,92FE0C8C-A9BE-47C2-9454-726AB0B7CC7F,2023-09-28_14h04.11.635,WP_VExplicitOC_HL,2022.2.5,Win32,13.04835721,74.73958333,4.2664,2.0984,NA,NA,NA,NA,NA,frustrated,"frustrated, not frustrated","more frustrated, less frustrated",NA,NA,NA,NA,NA,NA,NA,NA,NA,NA,NA,NA,NA,NA,NA,0,1,1,1,1,NA,NA,NA,NA,NA,NA,NA,NA,NA,NA,NA,NA,NA,NA,NA,NA,NA,NA,NA,NA,NA,NA,NA,NA,NA,NA,NA,NA
SUPAMT02221,3WEV0KO0OSR8J0FP3B3TFCIIJDVSDF,92FE0C8C-A9BE-47C2-9454-726AB0B7CC7F,2023-09-28_14h04.11.635,WP_VExplicitOC_HL,2022.2.5,Win32,13.04835721,62.5,3.4991,2.032,NA,NA,NA,NA,NA,bored,"bored, not bored","more bored, less bored",NA,NA,NA,NA,NA,NA,NA,NA,NA,NA,NA,NA,NA,NA,NA,0,2,2,2,1,NA,NA,NA,NA,NA,NA,NA,NA,NA,NA,NA,NA,NA,NA,NA,NA,NA,NA,NA,NA,NA,NA,NA,NA,NA,NA,NA,NA
SUPAMT02221,3WEV0KO0OSR8J0FP3B3TFCIIJDVSDF,92FE0C8C-A9BE-47C2-9454-726AB0B7CC7F,2023-09-28_14h04.11.635,WP_VExplicitOC_HL,2022.2.5,Win32,13.04835721,NA,NA,NA,NA,NA,NA,NA,NA,NA,NA,NA,NA,NA,NA,NA,NA,NA,NA,NA,NA,NA,NA,NA,NA,NA,NA,NA,NA,NA,NA,NA,1,0,1,0,1,NA,NA,NA,NA,NA,NA,NA,NA,NA,NA,NA,NA,NA,NA,NA,NA,NA,NA,NA,NA,NA,NA,NA
SUPAMT02221,3WEV0KO0OSR8J0FP3B3TFCIIJDVSDF,92FE0C8C-A9BE-47C2-9454-726AB0B7CC7F,2023-09-28_14h04.11.635,WP_VExplicitOC_HL,2022.2.5,Win32,13.04835721,40.625,5.0911,2.0214,NA,NA,NA,NA,NA,bored,"bored, not bored","more bored, less bored",NA,NA,NA,NA,NA,NA,NA,NA,NA,NA,NA,NA,NA,NA,NA,0,0,0,2,1,NA,NA,NA,NA,NA,NA,NA,NA,NA,NA,NA,NA,NA,NA,NA,NA,NA,NA,NA,NA,NA,NA,NA,NA,NA,NA,NA,NA
SUPAMT02221,3WEV0KO0OSR8J0FP3B3TFCIIJDVSDF,92FE0C8C-A9BE-47C2-9454-726AB0B7CC7F,2023-09-28_14h04.11.635,WP_VExplicitOC_HL,2022.2.5,Win32,13.04835721,NA,NA,2.0649,NA,NA,NA,NA,NA,frustrated,"frustrated, not frustrated","more frustrated, less frustrated",NA,NA,NA,NA,NA,NA,NA,NA,NA,NA,NA,NA,NA,NA,NA,0,1,1,1,1,NA,NA,NA,NA,NA,NA,NA,NA,NA,NA,NA,NA,NA,NA,NA,NA,NA,NA,NA,NA,NA,NA,NA,NA,NA,NA,NA,NA
SUPAMT02221,3WEV0KO0OSR8J0FP3B3TFCIIJDVSDF,92FE0C8C-A9BE-47C2-9454-726AB0B7CC7F,2023-09-28_14h04.11.635,WP_VExplicitOC_HL,2022.2.5,Win32,13.04835721,NA,NA,2.0805,NA,NA,NA,NA,NA,happy,"unhappy, happy","less happy, more happy",NA,NA,NA,NA,NA,NA,NA,NA,NA,NA,NA,NA,NA,NA,NA,0,2,2,0,1,NA,NA,NA,NA,NA,NA,NA,NA,NA,NA,NA,NA,NA,NA,NA,NA,NA,NA,NA,NA,NA,NA,NA,NA,NA,NA,NA,NA
SUPAMT02221,3WEV0KO0OSR8J0FP3B3TFCIIJDVSDF,92FE0C8C-A9BE-47C2-9454-726AB0B7CC7F,2023-09-28_14h04.11.635,WP_VExplicitOC_HL,2022.2.5,Win32,13.04835721,NA,NA,NA,NA,NA,NA,NA,NA,NA,NA,NA,NA,NA,NA,NA,NA,NA,NA,NA,NA,NA,NA,NA,NA,NA,NA,NA,NA,NA,NA,NA,2,0,2,0,1,NA,NA,NA,NA,NA,NA,NA,NA,NA,NA,NA,NA,NA,NA,NA,NA,NA,NA,NA,NA,NA,NA,NA
SUPAMT02221,3WEV0KO0OSR8J0FP3B3TFCIIJDVSDF,92FE0C8C-A9BE-47C2-9454-726AB0B7CC7F,2023-09-28_14h04.11.635,WP_VExplicitOC_HL,2022.2.5,Win32,13.04835721,NA,NA,2.0724,NA,NA,NA,NA,NA,frustrated,"frustrated, not frustrated","more frustrated, less frustrated",NA,NA,NA,NA,NA,NA,NA,NA,NA,NA,NA,NA,NA,NA,NA,0,0,0,1,1,NA,NA,NA,NA,NA,NA,NA,NA,NA,NA,NA,NA,NA,NA,NA,NA,NA,NA,NA,NA,NA,NA,NA,NA,NA,NA,NA,NA
SUPAMT02221,3WEV0KO0OSR8J0FP3B3TFCIIJDVSDF,92FE0C8C-A9BE-47C2-9454-726AB0B7CC7F,2023-09-28_14h04.11.635,WP_VExplicitOC_HL,2022.2.5,Win32,13.04835721,95.57291667,3.3263,2.04,NA,NA,NA,NA,NA,happy,"unhappy, happy","less happy, more happy",NA,NA,NA,NA,NA,NA,NA,NA,NA,NA,NA,NA,NA,NA,NA,0,1,1,0,1,NA,NA,NA,NA,NA,NA,NA,NA,NA,NA,NA,NA,NA,NA,NA,NA,NA,NA,NA,NA,NA,NA,NA,NA,NA,NA,NA,NA
SUPAMT02221,3WEV0KO0OSR8J0FP3B3TFCIIJDVSDF,92FE0C8C-A9BE-47C2-9454-726AB0B7CC7F,2023-09-28_14h04.11.635,WP_VExplicitOC_HL,2022.2.5,Win32,13.04835721,-100,3.7948,2.0192,NA,NA,NA,NA,NA,bored,"bored, not bored","more bored, less bored",NA,NA,NA,NA,NA,NA,NA,NA,NA,NA,NA,NA,NA,NA,NA,0,2,2,2,1,NA,NA,NA,NA,NA,NA,NA,NA,NA,NA,NA,NA,NA,NA,NA,NA,NA,NA,NA,NA,NA,NA,NA,NA,NA,NA,NA,NA
SUPAMT02221,3WEV0KO0OSR8J0FP3B3TFCIIJDVSDF,92FE0C8C-A9BE-47C2-9454-726AB0B7CC7F,2023-09-28_14h04.11.635,WP_VExplicitOC_HL,2022.2.5,Win32,13.04835721,NA,NA,NA,NA,NA,NA,NA,NA,NA,NA,NA,NA,NA,NA,NA,NA,NA,NA,NA,NA,NA,NA,NA,NA,NA,NA,NA,NA,NA,NA,NA,3,0,3,0,1,NA,NA,NA,NA,NA,NA,NA,NA,NA,NA,NA,NA,NA,NA,NA,NA,NA,NA,NA,NA,NA,NA,NA
SUPAMT02221,3WEV0KO0OSR8J0FP3B3TFCIIJDVSDF,92FE0C8C-A9BE-47C2-9454-726AB0B7CC7F,2023-09-28_14h04.11.635,WP_VExplicitOC_HL,2022.2.5,Win32,13.04835721,-100,5.0283,2.0308,NA,NA,NA,NA,NA,bored,"bored, not bored","more bored, less bored",NA,NA,NA,NA,NA,NA,NA,NA,NA,NA,NA,NA,NA,NA,NA,0,0,0,2,1,NA,NA,NA,NA,NA,NA,NA,NA,NA,NA,NA,NA,NA,NA,NA,NA,NA,NA,NA,NA,NA,NA,NA,NA,NA,NA,NA,NA
SUPAMT02221,3WEV0KO0OSR8J0FP3B3TFCIIJDVSDF,92FE0C8C-A9BE-47C2-9454-726AB0B7CC7F,2023-09-28_14h04.11.635,WP_VExplicitOC_HL,2022.2.5,Win32,13.04835721,NA,NA,2.0842,NA,NA,NA,NA,NA,frustrated,"frustrated, not frustrated","more frustrated, less frustrated",NA,NA,NA,NA,NA,NA,NA,NA,NA,NA,NA,NA,NA,NA,NA,0,1,1,1,1,NA,NA,NA,NA,NA,NA,NA,NA,NA,NA,NA,NA,NA,NA,NA,NA,NA,NA,NA,NA,NA,NA,NA,NA,NA,NA,NA,NA
SUPAMT02221,3WEV0KO0OSR8J0FP3B3TFCIIJDVSDF,92FE0C8C-A9BE-47C2-9454-726AB0B7CC7F,2023-09-28_14h04.11.635,WP_VExplicitOC_HL,2022.2.5,Win32,13.04835721,NA,NA,2.0159,NA,NA,NA,NA,NA,happy,"unhappy, happy","less happy, more happy",NA,NA,NA,NA,NA,NA,NA,NA,NA,NA,NA,NA,NA,NA,NA,0,2,2,0,1,NA,NA,NA,NA,NA,NA,NA,NA,NA,NA,NA,NA,NA,NA,NA,NA,NA,NA,NA,NA,NA,NA,NA,NA,NA,NA,NA,NA
SUPAMT02221,3WEV0KO0OSR8J0FP3B3TFCIIJDVSDF,92FE0C8C-A9BE-47C2-9454-726AB0B7CC7F,2023-09-28_14h04.11.635,WP_VExplicitOC_HL,2022.2.5,Win32,13.04835721,NA,NA,NA,NA,NA,NA,NA,NA,NA,NA,NA,NA,NA,NA,NA,NA,NA,NA,NA,NA,NA,NA,NA,NA,NA,NA,NA,NA,NA,NA,NA,4,0,4,0,1,NA,NA,NA,NA,NA,NA,NA,NA,NA,NA,NA,NA,NA,NA,NA,NA,NA,NA,NA,NA,NA,NA,NA
SUPAMT02221,3WEV0KO0OSR8J0FP3B3TFCIIJDVSDF,92FE0C8C-A9BE-47C2-9454-726AB0B7CC7F,2023-09-28_14h04.11.635,WP_VExplicitOC_HL,2022.2.5,Win32,13.04835721,NA,NA,2.0945,NA,NA,NA,NA,NA,happy,"unhappy, happy","less happy, more happy",NA,NA,NA,NA,NA,NA,NA,NA,NA,NA,NA,NA,NA,NA,NA,0,0,0,0,1,NA,NA,NA,NA,NA,NA,NA,NA,NA,NA,NA,NA,NA,NA,NA,NA,NA,NA,NA,NA,NA,NA,NA,NA,NA,NA,NA,NA
SUPAMT02221,3WEV0KO0OSR8J0FP3B3TFCIIJDVSDF,92FE0C8C-A9BE-47C2-9454-726AB0B7CC7F,2023-09-28_14h04.11.635,WP_VExplicitOC_HL,2022.2.5,Win32,13.04835721,100,4.1062,2.1099,NA,NA,NA,NA,NA,frustrated,"frustrated, not frustrated","more frustrated, less frustrated",NA,NA,NA,NA,NA,NA,NA,NA,NA,NA,NA,NA,NA,NA,NA,0,1,1,1,1,NA,NA,NA,NA,NA,NA,NA,NA,NA,NA,NA,NA,NA,NA,NA,NA,NA,NA,NA,NA,NA,NA,NA,NA,NA,NA,NA,NA
SUPAMT02221,3WEV0KO0OSR8J0FP3B3TFCIIJDVSDF,92FE0C8C-A9BE-47C2-9454-726AB0B7CC7F,2023-09-28_14h04.11.635,WP_VExplicitOC_HL,2022.2.5,Win32,13.04835721,-85.41666667,5.3451,2.1211,NA,NA,NA,NA,NA,bored,"bored, not bored","more bored, less bored",NA,NA,NA,NA,NA,NA,NA,NA,NA,NA,NA,NA,NA,NA,NA,0,2,2,2,1,NA,NA,NA,NA,NA,NA,NA,NA,NA,NA,NA,NA,NA,NA,NA,NA,NA,NA,NA,NA,NA,NA,NA,NA,NA,NA,NA,NA
SUPAMT02221,3WEV0KO0OSR8J0FP3B3TFCIIJDVSDF,92FE0C8C-A9BE-47C2-9454-726AB0B7CC7F,2023-09-28_14h04.11.635,WP_VExplicitOC_HL,2022.2.5,Win32,13.04835721,NA,NA,NA,NA,NA,NA,NA,NA,NA,NA,NA,NA,NA,NA,NA,NA,NA,NA,NA,NA,NA,NA,NA,NA,NA,NA,NA,NA,NA,NA,NA,5,0,5,0,1,NA,NA,NA,NA,NA,NA,NA,NA,NA,NA,NA,NA,NA,NA,NA,NA,NA,NA,NA,NA,NA,NA,NA
SUPAMT02221,3WEV0KO0OSR8J0FP3B3TFCIIJDVSDF,92FE0C8C-A9BE-47C2-9454-726AB0B7CC7F,2023-09-28_14h04.11.635,WP_VExplicitOC_HL,2022.2.5,Win32,13.04835721,100,7.3739,2.0289,NA,NA,NA,NA,NA,bored,"bored, not bored","more bored, less bored",NA,NA,NA,NA,NA,NA,NA,NA,NA,NA,NA,NA,NA,NA,NA,0,0,0,2,1,NA,NA,NA,NA,NA,NA,NA,NA,NA,NA,NA,NA,NA,NA,NA,NA,NA,NA,NA,NA,NA,NA,NA,NA,NA,NA,NA,NA
SUPAMT02221,3WEV0KO0OSR8J0FP3B3TFCIIJDVSDF,92FE0C8C-A9BE-47C2-9454-726AB0B7CC7F,2023-09-28_14h04.11.635,WP_VExplicitOC_HL,2022.2.5,Win32,13.04835721,100,4.5531,2.054,NA,NA,NA,NA,NA,frustrated,"frustrated, not frustrated","more frustrated, less frustrated",NA,NA,NA,NA,NA,NA,NA,NA,NA,NA,NA,NA,NA,NA,NA,0,1,1,1,1,NA,NA,NA,NA,NA,NA,NA,NA,NA,NA,NA,NA,NA,NA,NA,NA,NA,NA,NA,NA,NA,NA,NA,NA,NA,NA,NA,NA
SUPAMT02221,3WEV0KO0OSR8J0FP3B3TFCIIJDVSDF,92FE0C8C-A9BE-47C2-9454-726AB0B7CC7F,2023-09-28_14h04.11.635,WP_VExplicitOC_HL,2022.2.5,Win32,13.04835721,100,3.3227,2.0344,NA,NA,NA,NA,NA,happy,"unhappy, happy","less happy, more happy",NA,NA,NA,NA,NA,NA,NA,NA,NA,NA,NA,NA,NA,NA,NA,0,2,2,0,1,NA,NA,NA,NA,NA,NA,NA,NA,NA,NA,NA,NA,NA,NA,NA,NA,NA,NA,NA,NA,NA,NA,NA,NA,NA,NA,NA,NA
SUPAMT02221,3WEV0KO0OSR8J0FP3B3TFCIIJDVSDF,92FE0C8C-A9BE-47C2-9454-726AB0B7CC7F,2023-09-28_14h04.11.635,WP_VExplicitOC_HL,2022.2.5,Win32,13.04835721,NA,NA,NA,NA,NA,NA,NA,NA,NA,NA,NA,NA,NA,NA,NA,NA,NA,NA,NA,NA,NA,NA,NA,NA,NA,NA,NA,NA,NA,NA,NA,6,0,6,0,1,NA,NA,NA,NA,NA,NA,NA,NA,NA,NA,NA,NA,NA,NA,NA,NA,NA,NA,NA,NA,NA,NA,NA
SUPAMT02221,3WEV0KO0OSR8J0FP3B3TFCIIJDVSDF,92FE0C8C-A9BE-47C2-9454-726AB0B7CC7F,2023-09-28_14h04.11.635,WP_VExplicitOC_HL,2022.2.5,Win32,13.04835721,-53.4562212,3.8813,2.0538,NA,NA,NA,NA,NA,bored,"bored, not bored","more bored, less bored",NA,NA,NA,NA,NA,NA,NA,NA,NA,NA,NA,NA,NA,NA,NA,0,0,0,2,1,NA,NA,NA,NA,NA,NA,NA,NA,NA,NA,NA,NA,NA,NA,NA,NA,NA,NA,NA,NA,NA,NA,NA,NA,NA,NA,NA,NA
SUPAMT02221,3WEV0KO0OSR8J0FP3B3TFCIIJDVSDF,92FE0C8C-A9BE-47C2-9454-726AB0B7CC7F,2023-09-28_14h04.11.635,WP_VExplicitOC_HL,2022.2.5,Win32,13.04835721,-49.46236559,3.9835,2.0541,NA,NA,NA,NA,NA,happy,"unhappy, happy","less happy, more happy",NA,NA,NA,NA,NA,NA,NA,NA,NA,NA,NA,NA,NA,NA,NA,0,1,1,0,1,NA,NA,NA,NA,NA,NA,NA,NA,NA,NA,NA,NA,NA,NA,NA,NA,NA,NA,NA,NA,NA,NA,NA,NA,NA,NA,NA,NA
SUPAMT02221,3WEV0KO0OSR8J0FP3B3TFCIIJDVSDF,92FE0C8C-A9BE-47C2-9454-726AB0B7CC7F,2023-09-28_14h04.11.635,WP_VExplicitOC_HL,2022.2.5,Win32,13.04835721,72.19662058,5.0045,2.0736,NA,NA,NA,NA,NA,frustrated,"frustrated, not frustrated","more frustrated, less frustrated",NA,NA,NA,NA,NA,NA,NA,NA,NA,NA,NA,NA,NA,NA,NA,0,2,2,1,1,NA,NA,NA,NA,NA,NA,NA,NA,NA,NA,NA,NA,NA,NA,NA,NA,NA,NA,NA,NA,NA,NA,NA,NA,NA,NA,NA,NA
SUPAMT02221,3WEV0KO0OSR8J0FP3B3TFCIIJDVSDF,92FE0C8C-A9BE-47C2-9454-726AB0B7CC7F,2023-09-28_14h04.11.635,WP_VExplicitOC_HL,2022.2.5,Win32,13.04835721,NA,NA,NA,NA,NA,NA,NA,NA,NA,NA,NA,NA,NA,NA,NA,NA,NA,NA,NA,NA,NA,NA,NA,NA,NA,NA,NA,NA,NA,NA,NA,7,0,7,0,1,NA,NA,NA,NA,NA,NA,NA,NA,NA,NA,NA,NA,NA,NA,NA,NA,NA,NA,NA,NA,NA,NA,NA
SUPAMT02221,3WEV0KO0OSR8J0FP3B3TFCIIJDVSDF,92FE0C8C-A9BE-47C2-9454-726AB0B7CC7F,2023-09-28_14h04.11.635,WP_VExplicitOC_HL,2022.2.5,Win32,13.04835721,100,3.8391,2.0122,NA,NA,NA,NA,NA,bored,"bored, not bored","more bored, less bored",NA,NA,NA,NA,NA,NA,NA,NA,NA,NA,NA,NA,NA,NA,NA,0,0,0,2,1,NA,NA,NA,NA,NA,NA,NA,NA,NA,NA,NA,NA,NA,NA,NA,NA,NA,NA,NA,NA,NA,NA,NA,NA,NA,NA,NA,NA
SUPAMT02221,3WEV0KO0OSR8J0FP3B3TFCIIJDVSDF,92FE0C8C-A9BE-47C2-9454-726AB0B7CC7F,2023-09-28_14h04.11.635,WP_VExplicitOC_HL,2022.2.5,Win32,13.04835721,100,3.566,2.068,NA,NA,NA,NA,NA,happy,"unhappy, happy","less happy, more happy",NA,NA,NA,NA,NA,NA,NA,NA,NA,NA,NA,NA,NA,NA,NA,0,1,1,0,1,NA,NA,NA,NA,NA,NA,NA,NA,NA,NA,NA,NA,NA,NA,NA,NA,NA,NA,NA,NA,NA,NA,NA,NA,NA,NA,NA,NA
SUPAMT02221,3WEV0KO0OSR8J0FP3B3TFCIIJDVSDF,92FE0C8C-A9BE-47C2-9454-726AB0B7CC7F,2023-09-28_14h04.11.635,WP_VExplicitOC_HL,2022.2.5,Win32,13.04835721,-100,4.4691,2.0562,NA,NA,NA,NA,NA,frustrated,"frustrated, not frustrated","more frustrated, less frustrated",NA,NA,NA,NA,NA,NA,NA,NA,NA,NA,NA,NA,NA,NA,NA,0,2,2,1,1,NA,NA,NA,NA,NA,NA,NA,NA,NA,NA,NA,NA,NA,NA,NA,NA,NA,NA,NA,NA,NA,NA,NA,NA,NA,NA,NA,NA
SUPAMT02221,3WEV0KO0OSR8J0FP3B3TFCIIJDVSDF,92FE0C8C-A9BE-47C2-9454-726AB0B7CC7F,2023-09-28_14h04.11.635,WP_VExplicitOC_HL,2022.2.5,Win32,13.04835721,NA,NA,NA,NA,NA,NA,NA,NA,NA,NA,NA,NA,NA,NA,NA,NA,NA,NA,NA,NA,NA,NA,NA,NA,NA,NA,NA,NA,NA,NA,NA,8,0,8,0,1,NA,NA,NA,NA,NA,NA,NA,NA,NA,NA,NA,NA,NA,NA,NA,NA,NA,NA,NA,NA,NA,NA,NA
SUPAMT02221,3WEV0KO0OSR8J0FP3B3TFCIIJDVSDF,92FE0C8C-A9BE-47C2-9454-726AB0B7CC7F,2023-09-28_14h04.11.635,WP_VExplicitOC_HL,2022.2.5,Win32,13.04835721,NA,NA,2.064,NA,NA,NA,NA,NA,bored,"bored, not bored","more bored, less bored",NA,NA,NA,NA,NA,NA,NA,NA,NA,NA,NA,NA,NA,NA,NA,0,0,0,2,1,NA,NA,NA,NA,NA,NA,NA,NA,NA,NA,NA,NA,NA,NA,NA,NA,NA,NA,NA,NA,NA,NA,NA,NA,NA,NA,NA,NA
SUPAMT02221,3WEV0KO0OSR8J0FP3B3TFCIIJDVSDF,92FE0C8C-A9BE-47C2-9454-726AB0B7CC7F,2023-09-28_14h04.11.635,WP_VExplicitOC_HL,2022.2.5,Win32,13.04835721,100,4.4636,2.0005,NA,NA,NA,NA,NA,frustrated,"frustrated, not frustrated","more frustrated, less frustrated",NA,NA,NA,NA,NA,NA,NA,NA,NA,NA,NA,NA,NA,NA,NA,0,1,1,1,1,NA,NA,NA,NA,NA,NA,NA,NA,NA,NA,NA,NA,NA,NA,NA,NA,NA,NA,NA,NA,NA,NA,NA,NA,NA,NA,NA,NA
SUPAMT02221,3WEV0KO0OSR8J0FP3B3TFCIIJDVSDF,92FE0C8C-A9BE-47C2-9454-726AB0B7CC7F,2023-09-28_14h04.11.635,WP_VExplicitOC_HL,2022.2.5,Win32,13.04835721,100,3.5459,2.0834,NA,NA,NA,NA,NA,happy,"unhappy, happy","less happy, more happy",NA,NA,NA,NA,NA,NA,NA,NA,NA,NA,NA,NA,NA,NA,NA,0,2,2,0,1,NA,NA,NA,NA,NA,NA,NA,NA,NA,NA,NA,NA,NA,NA,NA,NA,NA,NA,NA,NA,NA,NA,NA,NA,NA,NA,NA,NA
SUPAMT02221,3WEV0KO0OSR8J0FP3B3TFCIIJDVSDF,92FE0C8C-A9BE-47C2-9454-726AB0B7CC7F,2023-09-28_14h04.11.635,WP_VExplicitOC_HL,2022.2.5,Win32,13.04835721,NA,NA,NA,NA,NA,NA,NA,NA,NA,NA,NA,NA,NA,NA,NA,NA,NA,NA,NA,NA,NA,NA,NA,NA,NA,NA,NA,NA,NA,NA,NA,9,0,9,0,1,NA,NA,NA,NA,NA,NA,NA,NA,NA,NA,NA,NA,NA,NA,NA,NA,NA,NA,NA,NA,NA,NA,NA
SUPAMT02221,3WEV0KO0OSR8J0FP3B3TFCIIJDVSDF,92FE0C8C-A9BE-47C2-9454-726AB0B7CC7F,2023-09-28_14h04.11.635,WP_VExplicitOC_HL,2022.2.5,Win32,13.04835721,100,4.1524,2.066,NA,NA,NA,NA,NA,frustrated,"frustrated, not frustrated","more frustrated, less frustrated",NA,NA,NA,NA,NA,NA,NA,NA,NA,NA,NA,NA,NA,NA,NA,0,0,0,1,1,NA,NA,NA,NA,NA,NA,NA,NA,NA,NA,NA,NA,NA,NA,NA,NA,NA,NA,NA,NA,NA,NA,NA,NA,NA,NA,NA,NA
SUPAMT02221,3WEV0KO0OSR8J0FP3B3TFCIIJDVSDF,92FE0C8C-A9BE-47C2-9454-726AB0B7CC7F,2023-09-28_14h04.11.635,WP_VExplicitOC_HL,2022.2.5,Win32,13.04835721,NA,NA,2.0849,NA,NA,NA,NA,NA,happy,"unhappy, happy","less happy, more happy",NA,NA,NA,NA,NA,NA,NA,NA,NA,NA,NA,NA,NA,NA,NA,0,1,1,0,1,NA,NA,NA,NA,NA,NA,NA,NA,NA,NA,NA,NA,NA,NA,NA,NA,NA,NA,NA,NA,NA,NA,NA,NA,NA,NA,NA,NA
SUPAMT02221,3WEV0KO0OSR8J0FP3B3TFCIIJDVSDF,92FE0C8C-A9BE-47C2-9454-726AB0B7CC7F,2023-09-28_14h04.11.635,WP_VExplicitOC_HL,2022.2.5,Win32,13.04835721,77.11213518,3.9282,2.0109,NA,NA,NA,NA,NA,bored,"bored, not bored","more bored, less bored",NA,NA,NA,NA,NA,NA,NA,NA,NA,NA,NA,NA,NA,NA,NA,0,2,2,2,1,NA,NA,NA,NA,NA,NA,NA,NA,NA,NA,NA,NA,NA,NA,NA,NA,NA,NA,NA,NA,NA,NA,NA,NA,NA,NA,NA,NA
SUPAMT02221,3WEV0KO0OSR8J0FP3B3TFCIIJDVSDF,92FE0C8C-A9BE-47C2-9454-726AB0B7CC7F,2023-09-28_14h04.11.635,WP_VExplicitOC_HL,2022.2.5,Win32,13.04835721,NA,NA,NA,NA,NA,NA,NA,NA,NA,NA,NA,NA,NA,NA,NA,NA,NA,NA,NA,NA,NA,NA,NA,NA,NA,NA,NA,NA,NA,NA,NA,10,0,10,0,1,NA,NA,NA,NA,NA,NA,NA,NA,NA,NA,NA,NA,NA,NA,NA,NA,NA,NA,NA,NA,NA,NA,NA
SUPAMT02221,3WEV0KO0OSR8J0FP3B3TFCIIJDVSDF,92FE0C8C-A9BE-47C2-9454-726AB0B7CC7F,2023-09-28_14h04.11.635,WP_VExplicitOC_HL,2022.2.5,Win32,13.04835721,NA,NA,2.0438,NA,NA,NA,NA,NA,happy,"unhappy, happy","less happy, more happy",NA,NA,NA,NA,NA,NA,NA,NA,NA,NA,NA,NA,NA,NA,NA,0,0,0,0,1,NA,NA,NA,NA,NA,NA,NA,NA,NA,NA,NA,NA,NA,NA,NA,NA,NA,NA,NA,NA,NA,NA,NA,NA,NA,NA,NA,NA
SUPAMT02221,3WEV0KO0OSR8J0FP3B3TFCIIJDVSDF,92FE0C8C-A9BE-47C2-9454-726AB0B7CC7F,2023-09-28_14h04.11.635,WP_VExplicitOC_HL,2022.2.5,Win32,13.04835721,100,4.3574,2.0002,NA,NA,NA,NA,NA,frustrated,"frustrated, not frustrated","more frustrated, less frustrated",NA,NA,NA,NA,NA,NA,NA,NA,NA,NA,NA,NA,NA,NA,NA,0,1,1,1,1,NA,NA,NA,NA,NA,NA,NA,NA,NA,NA,NA,NA,NA,NA,NA,NA,NA,NA,NA,NA,NA,NA,NA,NA,NA,NA,NA,NA
SUPAMT02221,3WEV0KO0OSR8J0FP3B3TFCIIJDVSDF,92FE0C8C-A9BE-47C2-9454-726AB0B7CC7F,2023-09-28_14h04.11.635,WP_VExplicitOC_HL,2022.2.5,Win32,13.04835721,-88.78648233,6.4433,2.0296,NA,NA,NA,NA,NA,bored,"bored, not bored","more bored, less bored",NA,NA,NA,NA,NA,NA,NA,NA,NA,NA,NA,NA,NA,NA,NA,0,2,2,2,1,NA,NA,NA,NA,NA,NA,NA,NA,NA,NA,NA,NA,NA,NA,NA,NA,NA,NA,NA,NA,NA,NA,NA,NA,NA,NA,NA,NA
SUPAMT02221,3WEV0KO0OSR8J0FP3B3TFCIIJDVSDF,92FE0C8C-A9BE-47C2-9454-726AB0B7CC7F,2023-09-28_14h04.11.635,WP_VExplicitOC_HL,2022.2.5,Win32,13.04835721,NA,NA,NA,NA,NA,NA,NA,NA,NA,NA,NA,NA,NA,NA,NA,NA,NA,NA,NA,NA,NA,NA,NA,NA,NA,NA,NA,NA,NA,NA,NA,11,0,11,0,1,NA,NA,NA,NA,NA,NA,NA,NA,NA,NA,NA,NA,NA,NA,NA,NA,NA,NA,NA,NA,NA,NA,NA
SUPAMT02221,3WEV0KO0OSR8J0FP3B3TFCIIJDVSDF,92FE0C8C-A9BE-47C2-9454-726AB0B7CC7F,2023-09-28_14h04.11.635,WP_VExplicitOC_HL,2022.2.5,Win32,13.04835721,-100,6.0792,2.0153,NA,NA,NA,NA,NA,bored,"bored, not bored","more bored, less bored",NA,NA,NA,NA,NA,NA,NA,NA,NA,NA,NA,NA,NA,NA,NA,0,0,0,2,1,NA,NA,NA,NA,NA,NA,NA,NA,NA,NA,NA,NA,NA,NA,NA,NA,NA,NA,NA,NA,NA,NA,NA,NA,NA,NA,NA,NA
SUPAMT02221,3WEV0KO0OSR8J0FP3B3TFCIIJDVSDF,92FE0C8C-A9BE-47C2-9454-726AB0B7CC7F,2023-09-28_14h04.11.635,WP_VExplicitOC_HL,2022.2.5,Win32,13.04835721,100,3.6493,2.0163,NA,NA,NA,NA,NA,happy,"unhappy, happy","less happy, more happy",NA,NA,NA,NA,NA,NA,NA,NA,NA,NA,NA,NA,NA,NA,NA,0,1,1,0,1,NA,NA,NA,NA,NA,NA,NA,NA,NA,NA,NA,NA,NA,NA,NA,NA,NA,NA,NA,NA,NA,NA,NA,NA,NA,NA,NA,NA
SUPAMT02221,3WEV0KO0OSR8J0FP3B3TFCIIJDVSDF,92FE0C8C-A9BE-47C2-9454-726AB0B7CC7F,2023-09-28_14h04.11.635,WP_VExplicitOC_HL,2022.2.5,Win32,13.04835721,100,3.7141,2.0764,NA,NA,NA,NA,NA,frustrated,"frustrated, not frustrated","more frustrated, less frustrated",NA,NA,NA,NA,NA,NA,NA,NA,NA,NA,NA,NA,NA,NA,NA,0,2,2,1,1,NA,NA,NA,NA,NA,NA,NA,NA,NA,NA,NA,NA,NA,NA,NA,NA,NA,NA,NA,NA,NA,NA,NA,NA,NA,NA,NA,NA
SUPAMT02221,3WEV0KO0OSR8J0FP3B3TFCIIJDVSDF,92FE0C8C-A9BE-47C2-9454-726AB0B7CC7F,2023-09-28_14h04.11.635,WP_VExplicitOC_HL,2022.2.5,Win32,13.04835721,NA,NA,NA,NA,NA,NA,NA,NA,NA,NA,NA,NA,NA,NA,NA,NA,NA,NA,NA,NA,NA,NA,NA,NA,NA,NA,NA,NA,NA,NA,NA,12,0,12,0,1,NA,NA,NA,NA,NA,NA,NA,NA,NA,NA,NA,NA,NA,NA,NA,NA,NA,NA,NA,NA,NA,NA,NA
SUPAMT02221,3WEV0KO0OSR8J0FP3B3TFCIIJDVSDF,92FE0C8C-A9BE-47C2-9454-726AB0B7CC7F,2023-09-28_14h04.11.635,WP_VExplicitOC_HL,2022.2.5,Win32,13.04835721,NA,NA,2.0685,NA,NA,NA,NA,NA,frustrated,"frustrated, not frustrated","more frustrated, less frustrated",NA,NA,NA,NA,NA,NA,NA,NA,NA,NA,NA,NA,NA,NA,NA,0,0,0,1,1,NA,NA,NA,NA,NA,NA,NA,NA,NA,NA,NA,NA,NA,NA,NA,NA,NA,NA,NA,NA,NA,NA,NA,NA,NA,NA,NA,NA
SUPAMT02221,3WEV0KO0OSR8J0FP3B3TFCIIJDVSDF,92FE0C8C-A9BE-47C2-9454-726AB0B7CC7F,2023-09-28_14h04.11.635,WP_VExplicitOC_HL,2022.2.5,Win32,13.04835721,100,5.4837,2.0044,NA,NA,NA,NA,NA,happy,"unhappy, happy","less happy, more happy",NA,NA,NA,NA,NA,NA,NA,NA,NA,NA,NA,NA,NA,NA,NA,0,1,1,0,1,NA,NA,NA,NA,NA,NA,NA,NA,NA,NA,NA,NA,NA,NA,NA,NA,NA,NA,NA,NA,NA,NA,NA,NA,NA,NA,NA,NA
SUPAMT02221,3WEV0KO0OSR8J0FP3B3TFCIIJDVSDF,92FE0C8C-A9BE-47C2-9454-726AB0B7CC7F,2023-09-28_14h04.11.635,WP_VExplicitOC_HL,2022.2.5,Win32,13.04835721,NA,NA,2.0435,NA,NA,NA,NA,NA,bored,"bored, not bored","more bored, less bored",NA,NA,NA,NA,NA,NA,NA,NA,NA,NA,NA,NA,NA,NA,NA,0,2,2,2,1,NA,NA,NA,NA,NA,NA,NA,NA,NA,NA,NA,NA,NA,NA,NA,NA,NA,NA,NA,NA,NA,NA,NA,NA,NA,NA,NA,NA
SUPAMT02221,3WEV0KO0OSR8J0FP3B3TFCIIJDVSDF,92FE0C8C-A9BE-47C2-9454-726AB0B7CC7F,2023-09-28_14h04.11.635,WP_VExplicitOC_HL,2022.2.5,Win32,13.04835721,NA,NA,NA,NA,NA,NA,NA,NA,NA,NA,NA,NA,NA,NA,NA,NA,NA,NA,NA,NA,NA,NA,NA,NA,NA,NA,NA,NA,NA,NA,NA,13,0,13,0,1,NA,NA,NA,NA,NA,NA,NA,NA,NA,NA,NA,NA,NA,NA,NA,NA,NA,NA,NA,NA,NA,NA,NA
SUPAMT02221,3WEV0KO0OSR8J0FP3B3TFCIIJDVSDF,92FE0C8C-A9BE-47C2-9454-726AB0B7CC7F,2023-09-28_14h04.11.635,WP_VExplicitOC_HL,2022.2.5,Win32,13.04835721,100,4.02,2.017,NA,NA,NA,NA,NA,happy,"unhappy, happy","less happy, more happy",NA,NA,NA,NA,NA,NA,NA,NA,NA,NA,NA,NA,NA,NA,NA,0,0,0,0,1,NA,NA,NA,NA,NA,NA,NA,NA,NA,NA,NA,NA,NA,NA,NA,NA,NA,NA,NA,NA,NA,NA,NA,NA,NA,NA,NA,NA
SUPAMT02221,3WEV0KO0OSR8J0FP3B3TFCIIJDVSDF,92FE0C8C-A9BE-47C2-9454-726AB0B7CC7F,2023-09-28_14h04.11.635,WP_VExplicitOC_HL,2022.2.5,Win32,13.04835721,NA,NA,2.0366,NA,NA,NA,NA,NA,frustrated,"frustrated, not frustrated","more frustrated, less frustrated",NA,NA,NA,NA,NA,NA,NA,NA,NA,NA,NA,NA,NA,NA,NA,0,1,1,1,1,NA,NA,NA,NA,NA,NA,NA,NA,NA,NA,NA,NA,NA,NA,NA,NA,NA,NA,NA,NA,NA,NA,NA,NA,NA,NA,NA,NA
SUPAMT02221,3WEV0KO0OSR8J0FP3B3TFCIIJDVSDF,92FE0C8C-A9BE-47C2-9454-726AB0B7CC7F,2023-09-28_14h04.11.635,WP_VExplicitOC_HL,2022.2.5,Win32,13.04835721,100,5.0436,2.0588,NA,NA,NA,NA,NA,bored,"bored, not bored","more bored, less bored",NA,NA,NA,NA,NA,NA,NA,NA,NA,NA,NA,NA,NA,NA,NA,0,2,2,2,1,NA,NA,NA,NA,NA,NA,NA,NA,NA,NA,NA,NA,NA,NA,NA,NA,NA,NA,NA,NA,NA,NA,NA,NA,NA,NA,NA,NA
SUPAMT02221,3WEV0KO0OSR8J0FP3B3TFCIIJDVSDF,92FE0C8C-A9BE-47C2-9454-726AB0B7CC7F,2023-09-28_14h04.11.635,WP_VExplicitOC_HL,2022.2.5,Win32,13.04835721,NA,NA,NA,NA,NA,NA,NA,NA,NA,NA,NA,NA,NA,NA,NA,NA,NA,NA,NA,NA,NA,NA,NA,NA,NA,NA,NA,NA,NA,NA,NA,14,0,14,0,1,NA,NA,NA,NA,NA,NA,NA,NA,NA,NA,NA,NA,NA,NA,NA,NA,NA,NA,NA,NA,NA,NA,NA
SUPAMT02221,3WEV0KO0OSR8J0FP3B3TFCIIJDVSDF,92FE0C8C-A9BE-47C2-9454-726AB0B7CC7F,2023-09-28_14h04.11.635,WP_VExplicitOC_HL,2022.2.5,Win32,13.04835721,NA,NA,NA,NA,NA,NA,NA,NA,NA,NA,NA,NA,NA,NA,NA,NA,NA,NA,NA,NA,NA,NA,NA,NA,NA,NA,NA,NA,NA,NA,NA,NA,NA,NA,NA,NA,NA,NA,NA,NA,NA,NA,NA,NA,NA,NA,NA,NA,NA,NA,NA,NA,NA,NA,NA,NA,NA,NA,NA
SUPAMT02221,3WEV0KO0OSR8J0FP3B3TFCIIJDVSDF,92FE0C8C-A9BE-47C2-9454-726AB0B7CC7F,2023-09-28_14h04.11.635,WP_VExplicitOC_HL,2022.2.5,Win32,13.04835721,NA,NA,NA,NA,NA,NA,NA,NA,NA,NA,NA,NA,NA,NA,NA,NA,NA,NA,NA,NA,NA,NA,NA,NA,NA,NA,NA,NA,NA,NA,NA,NA,NA,NA,NA,NA,NA,NA,NA,NA,NA,NA,NA,NA,NA,NA,NA,NA,NA,NA,NA,NA,NA,NA,NA,NA,NA,NA,NA
SUPAMT02221,3WEV0KO0OSR8J0FP3B3TFCIIJDVSDF,92FE0C8C-A9BE-47C2-9454-726AB0B7CC7F,2023-09-28_14h04.11.635,WP_VExplicitOC_HL,2022.2.5,Win32,13.04835721,NA,NA,NA,NA,NA,NA,NA,NA,NA,NA,NA,NA,NA,NA,NA,NA,NA,NA,rest (looking at a fixed cross),001.png,NA,NA,NA,NA,NA,NA,NA,NA,NA,NA,NA,NA,NA,NA,NA,NA,-100,3.7248,0,0,0,0,1,NA,NA,NA,NA,NA,NA,NA,NA,NA,NA,NA,NA,NA,NA,NA,NA
SUPAMT02221,3WEV0KO0OSR8J0FP3B3TFCIIJDVSDF,92FE0C8C-A9BE-47C2-9454-726AB0B7CC7F,2023-09-28_14h04.11.635,WP_VExplicitOC_HL,2022.2.5,Win32,13.04835721,NA,NA,NA,NA,NA,NA,NA,NA,NA,NA,NA,NA,NA,NA,NA,NA,NA,NA,stand up,002.png,NA,NA,NA,NA,NA,NA,NA,NA,NA,NA,NA,NA,NA,NA,NA,NA,100,1.5822,0,1,1,1,1,NA,NA,NA,NA,NA,NA,NA,NA,NA,NA,NA,NA,NA,NA,NA,NA
SUPAMT02221,3WEV0KO0OSR8J0FP3B3TFCIIJDVSDF,92FE0C8C-A9BE-47C2-9454-726AB0B7CC7F,2023-09-28_14h04.11.635,WP_VExplicitOC_HL,2022.2.5,Win32,13.04835721,NA,NA,NA,NA,NA,NA,NA,NA,NA,NA,NA,NA,NA,NA,NA,NA,NA,NA,stretch,003.png,NA,NA,NA,NA,NA,NA,NA,NA,NA,NA,NA,NA,NA,NA,NA,NA,100,1.834,0,2,2,2,1,NA,NA,NA,NA,NA,NA,NA,NA,NA,NA,NA,NA,NA,NA,NA,NA
SUPAMT02221,3WEV0KO0OSR8J0FP3B3TFCIIJDVSDF,92FE0C8C-A9BE-47C2-9454-726AB0B7CC7F,2023-09-28_14h04.11.635,WP_VExplicitOC_HL,2022.2.5,Win32,13.04835721,NA,NA,NA,NA,NA,NA,NA,NA,NA,NA,NA,NA,NA,NA,NA,NA,NA,NA,make a drink,004.png,NA,NA,NA,NA,NA,NA,NA,NA,NA,NA,NA,NA,NA,NA,NA,NA,100,1.6441,0,3,3,3,1,NA,NA,NA,NA,NA,NA,NA,NA,NA,NA,NA,NA,NA,NA,NA,NA
SUPAMT02221,3WEV0KO0OSR8J0FP3B3TFCIIJDVSDF,92FE0C8C-A9BE-47C2-9454-726AB0B7CC7F,2023-09-28_14h04.11.635,WP_VExplicitOC_HL,2022.2.5,Win32,13.04835721,NA,NA,NA,NA,NA,NA,NA,NA,NA,NA,NA,NA,NA,NA,NA,NA,NA,NA,scroll social media,005.png,NA,NA,NA,NA,NA,NA,NA,NA,NA,NA,NA,NA,NA,NA,NA,NA,100,1.6856,0,4,4,4,1,NA,NA,NA,NA,NA,NA,NA,NA,NA,NA,NA,NA,NA,NA,NA,NA
SUPAMT02221,3WEV0KO0OSR8J0FP3B3TFCIIJDVSDF,92FE0C8C-A9BE-47C2-9454-726AB0B7CC7F,2023-09-28_14h04.11.635,WP_VExplicitOC_HL,2022.2.5,Win32,13.04835721,NA,NA,NA,NA,NA,NA,NA,NA,NA,NA,NA,NA,NA,NA,NA,NA,NA,NA,listen to music,006.png,NA,NA,NA,NA,NA,NA,NA,NA,NA,NA,NA,NA,NA,NA,NA,NA,100,2.5053,0,5,5,5,1,NA,NA,NA,NA,NA,NA,NA,NA,NA,NA,NA,NA,NA,NA,NA,NA
SUPAMT02221,3WEV0KO0OSR8J0FP3B3TFCIIJDVSDF,92FE0C8C-A9BE-47C2-9454-726AB0B7CC7F,2023-09-28_14h04.11.635,WP_VExplicitOC_HL,2022.2.5,Win32,13.04835721,NA,NA,NA,NA,NA,NA,NA,NA,NA,NA,NA,NA,NA,NA,NA,NA,NA,NA,daydream,007.png,NA,NA,NA,NA,NA,NA,NA,NA,NA,NA,NA,NA,NA,NA,NA,NA,100,1.9946,0,6,6,6,1,NA,NA,NA,NA,NA,NA,NA,NA,NA,NA,NA,NA,NA,NA,NA,NA
SUPAMT02221,3WEV0KO0OSR8J0FP3B3TFCIIJDVSDF,92FE0C8C-A9BE-47C2-9454-726AB0B7CC7F,2023-09-28_14h04.11.635,WP_VExplicitOC_HL,2022.2.5,Win32,13.04835721,NA,NA,NA,NA,NA,NA,NA,NA,NA,NA,NA,NA,NA,NA,NA,NA,NA,NA,watch a short animation,008.png,NA,NA,NA,NA,NA,NA,NA,NA,NA,NA,NA,NA,NA,NA,NA,NA,-100,6.5388,0,7,7,7,1,NA,NA,NA,NA,NA,NA,NA,NA,NA,NA,NA,NA,NA,NA,NA,NA
SUPAMT02221,3WEV0KO0OSR8J0FP3B3TFCIIJDVSDF,92FE0C8C-A9BE-47C2-9454-726AB0B7CC7F,2023-09-28_14h04.11.635,WP_VExplicitOC_HL,2022.2.5,Win32,13.04835721,NA,NA,NA,NA,NA,NA,NA,NA,NA,NA,NA,NA,NA,NA,NA,NA,NA,NA,read a novel,009.png,NA,NA,NA,NA,NA,NA,NA,NA,NA,NA,NA,NA,NA,NA,NA,NA,NA,NA,0,8,8,8,1,NA,NA,NA,NA,NA,NA,NA,NA,NA,NA,NA,NA,NA,NA,NA,NA
SUPAMT02221,3WEV0KO0OSR8J0FP3B3TFCIIJDVSDF,92FE0C8C-A9BE-47C2-9454-726AB0B7CC7F,2023-09-28_14h04.11.635,WP_VExplicitOC_HL,2022.2.5,Win32,13.04835721,NA,NA,NA,NA,NA,NA,NA,NA,NA,NA,NA,NA,NA,NA,NA,NA,NA,NA,read the news,010.png,NA,NA,NA,NA,NA,NA,NA,NA,NA,NA,NA,NA,NA,NA,NA,NA,100,6.7003,0,9,9,9,1,NA,NA,NA,NA,NA,NA,NA,NA,NA,NA,NA,NA,NA,NA,NA,NA
SUPAMT02221,3WEV0KO0OSR8J0FP3B3TFCIIJDVSDF,92FE0C8C-A9BE-47C2-9454-726AB0B7CC7F,2023-09-28_14h04.11.635,WP_VExplicitOC_HL,2022.2.5,Win32,13.04835721,NA,NA,NA,NA,NA,NA,NA,NA,NA,NA,NA,NA,NA,NA,NA,NA,NA,NA,NA,NA,NA,NA,NA,NA,NA,NA,NA,NA,NA,NA,NA,NA,NA,NA,NA,NA,NA,NA,NA,NA,NA,NA,NA,watch a short animation,NA,NA,NA,NA,NA,NA,NA,NA,NA,NA,NA,NA,NA,NA,NA
SUPAMT02221,3WEV0KO0OSR8J0FP3B3TFCIIJDVSDF,92FE0C8C-A9BE-47C2-9454-726AB0B7CC7F,2023-09-28_14h04.11.635,WP_VExplicitOC_HL,2022.2.5,Win32,13.04835721,-100,4.3217,2.0084,NA,NA,NA,NA,NA,frustrated,"frustrated, not frustrated","more frustrated, less frustrated",NA,NA,NA,NA,NA,NA,NA,NA,NA,NA,NA,NA,NA,NA,NA,NA,NA,NA,NA,NA,NA,NA,NA,NA,NA,NA,NA,NA,NA,NA,NA,NA,NA,0,0,0,1,1,NA,NA,NA,NA,NA,NA,NA,NA,NA,NA
SUPAMT02221,3WEV0KO0OSR8J0FP3B3TFCIIJDVSDF,92FE0C8C-A9BE-47C2-9454-726AB0B7CC7F,2023-09-28_14h04.11.635,WP_VExplicitOC_HL,2022.2.5,Win32,13.04835721,100,3.6435,2.0093,NA,NA,NA,NA,NA,happy,"unhappy, happy","less happy, more happy",NA,NA,NA,NA,NA,NA,NA,NA,NA,NA,NA,NA,NA,NA,NA,NA,NA,NA,NA,NA,NA,NA,NA,NA,NA,NA,NA,NA,NA,NA,NA,NA,NA,0,1,1,0,1,NA,NA,NA,NA,NA,NA,NA,NA,NA,NA
SUPAMT02221,3WEV0KO0OSR8J0FP3B3TFCIIJDVSDF,92FE0C8C-A9BE-47C2-9454-726AB0B7CC7F,2023-09-28_14h04.11.635,WP_VExplicitOC_HL,2022.2.5,Win32,13.04835721,100,3.2139,2.0504,NA,NA,NA,NA,NA,bored,"bored, not bored","more bored, less bored",NA,NA,NA,NA,NA,NA,NA,NA,NA,NA,NA,NA,NA,NA,NA,NA,NA,NA,NA,NA,NA,NA,NA,NA,NA,NA,NA,NA,NA,NA,NA,NA,NA,0,2,2,2,1,NA,NA,NA,NA,NA,NA,NA,NA,NA,NA
SUPAMT02221,3WEV0KO0OSR8J0FP3B3TFCIIJDVSDF,92FE0C8C-A9BE-47C2-9454-726AB0B7CC7F,2023-09-28_14h04.11.635,WP_VExplicitOC_HL,2022.2.5,Win32,13.04835721,NA,NA,NA,NA,NA,NA,NA,NA,NA,NA,NA,NA,NA,NA,NA,NA,NA,NA,NA,NA,NA,NA,NA,NA,NA,NA,NA,NA,NA,NA,NA,NA,NA,NA,NA,NA,NA,NA,NA,NA,NA,NA,NA,NA,NA,NA,NA,NA,NA,NA,NA,NA,NA,NA,NA,NA,NA,NA,NA
SUPAMT02221,3WEV0KO0OSR8J0FP3B3TFCIIJDVSDF,92FE0C8C-A9BE-47C2-9454-726AB0B7CC7F,2023-09-28_14h04.11.635,WP_VExplicitOC_HL,2022.2.5,Win32,13.04835721,NA,NA,NA,NA,NA,NA,NA,NA,NA,NA,NA,NA,NA,NA,NA,NA,NA,NA,NA,NA,NA,NA,NA,NA,NA,NA,NA,NA,NA,NA,NA,NA,NA,NA,NA,NA,NA,NA,NA,NA,NA,NA,NA,NA,NA,NA,NA,NA,NA,NA,NA,NA,NA,NA,NA,NA,NA,NA,NA
SUPAMT02221,3WEV0KO0OSR8J0FP3B3TFCIIJDVSDF,92FE0C8C-A9BE-47C2-9454-726AB0B7CC7F,2023-09-28_14h04.11.635,WP_VExplicitOC_HL,2022.2.5,Win32,13.04835721,100,4.2622,2.0767,NA,NA,NA,NA,NA,happy,"unhappy, happy","less happy, more happy",NA,NA,NA,NA,NA,NA,NA,NA,NA,NA,NA,NA,NA,NA,NA,NA,NA,NA,NA,NA,NA,NA,NA,NA,NA,NA,NA,NA,NA,NA,NA,NA,NA,NA,NA,NA,NA,NA,0,0,0,0,1,NA,NA,NA,NA,NA
SUPAMT02221,3WEV0KO0OSR8J0FP3B3TFCIIJDVSDF,92FE0C8C-A9BE-47C2-9454-726AB0B7CC7F,2023-09-28_14h04.11.635,WP_VExplicitOC_HL,2022.2.5,Win32,13.04835721,100,3.6817,2.0242,NA,NA,NA,NA,NA,bored,"bored, not bored","more bored, less bored",NA,NA,NA,NA,NA,NA,NA,NA,NA,NA,NA,NA,NA,NA,NA,NA,NA,NA,NA,NA,NA,NA,NA,NA,NA,NA,NA,NA,NA,NA,NA,NA,NA,NA,NA,NA,NA,NA,0,1,1,2,1,NA,NA,NA,NA,NA
SUPAMT02221,3WEV0KO0OSR8J0FP3B3TFCIIJDVSDF,92FE0C8C-A9BE-47C2-9454-726AB0B7CC7F,2023-09-28_14h04.11.635,WP_VExplicitOC_HL,2022.2.5,Win32,13.04835721,100,4.4861,2.04,NA,NA,NA,NA,NA,frustrated,"frustrated, not frustrated","more frustrated, less frustrated",NA,NA,NA,NA,NA,NA,NA,NA,NA,NA,NA,NA,NA,NA,NA,NA,NA,NA,NA,NA,NA,NA,NA,NA,NA,NA,NA,NA,NA,NA,NA,NA,NA,NA,NA,NA,NA,NA,0,2,2,1,1,NA,NA,NA,NA,NA
SUPAMT02221,3WEV0KO0OSR8J0FP3B3TFCIIJDVSDF,92FE0C8C-A9BE-47C2-9454-726AB0B7CC7F,2023-09-28_14h04.11.635,WP_VExplicitOC_HL,2022.2.5,Win32,13.04835721,NA,NA,NA,NA,NA,NA,NA,NA,NA,NA,NA,NA,NA,NA,NA,NA,NA,NA,NA,NA,NA,NA,NA,NA,NA,NA,NA,NA,NA,NA,NA,NA,NA,NA,NA,NA,NA,NA,NA,NA,NA,NA,NA,NA,NA,NA,NA,NA,NA,NA,NA,NA,NA,NA,0,0,0,0,1
SUPAMT02221,3WEV0KO0OSR8J0FP3B3TFCIIJDVSDF,92FE0C8C-A9BE-47C2-9454-726AB0B7CC7F,2023-09-28_14h04.11.635,WP_VExplicitOC_HL,2022.2.5,Win32,13.04835721,NA,NA,2.0431,NA,NA,NA,NA,NA,happy,"unhappy, happy","less happy, more happy",NA,NA,NA,NA,NA,NA,NA,NA,NA,NA,NA,NA,NA,NA,NA,NA,NA,NA,NA,NA,NA,NA,NA,NA,NA,NA,NA,NA,NA,NA,NA,NA,NA,NA,NA,NA,NA,NA,0,0,0,0,1,NA,NA,NA,NA,NA
SUPAMT02221,3WEV0KO0OSR8J0FP3B3TFCIIJDVSDF,92FE0C8C-A9BE-47C2-9454-726AB0B7CC7F,2023-09-28_14h04.11.635,WP_VExplicitOC_HL,2022.2.5,Win32,13.04835721,100,5.2304,2.0094,NA,NA,NA,NA,NA,bored,"bored, not bored","more bored, less bored",NA,NA,NA,NA,NA,NA,NA,NA,NA,NA,NA,NA,NA,NA,NA,NA,NA,NA,NA,NA,NA,NA,NA,NA,NA,NA,NA,NA,NA,NA,NA,NA,NA,NA,NA,NA,NA,NA,0,1,1,2,1,NA,NA,NA,NA,NA
SUPAMT02221,3WEV0KO0OSR8J0FP3B3TFCIIJDVSDF,92FE0C8C-A9BE-47C2-9454-726AB0B7CC7F,2023-09-28_14h04.11.635,WP_VExplicitOC_HL,2022.2.5,Win32,13.04835721,100,4.2071,2.092,NA,NA,NA,NA,NA,frustrated,"frustrated, not frustrated","more frustrated, less frustrated",NA,NA,NA,NA,NA,NA,NA,NA,NA,NA,NA,NA,NA,NA,NA,NA,NA,NA,NA,NA,NA,NA,NA,NA,NA,NA,NA,NA,NA,NA,NA,NA,NA,NA,NA,NA,NA,NA,0,2,2,1,1,NA,NA,NA,NA,NA
SUPAMT02221,3WEV0KO0OSR8J0FP3B3TFCIIJDVSDF,92FE0C8C-A9BE-47C2-9454-726AB0B7CC7F,2023-09-28_14h04.11.635,WP_VExplicitOC_HL,2022.2.5,Win32,13.04835721,NA,NA,NA,NA,NA,NA,NA,NA,NA,NA,NA,NA,NA,NA,NA,NA,NA,NA,NA,NA,NA,NA,NA,NA,NA,NA,NA,NA,NA,NA,NA,NA,NA,NA,NA,NA,NA,NA,NA,NA,NA,NA,NA,NA,NA,NA,NA,NA,NA,NA,NA,NA,NA,NA,1,0,1,0,1
SUPAMT02221,3WEV0KO0OSR8J0FP3B3TFCIIJDVSDF,92FE0C8C-A9BE-47C2-9454-726AB0B7CC7F,2023-09-28_14h04.11.635,WP_VExplicitOC_HL,2022.2.5,Win32,13.04835721,100,3.6482,2.0513,NA,NA,NA,NA,NA,bored,"bored, not bored","more bored, less bored",NA,NA,NA,NA,NA,NA,NA,NA,NA,NA,NA,NA,NA,NA,NA,NA,NA,NA,NA,NA,NA,NA,NA,NA,NA,NA,NA,NA,NA,NA,NA,NA,NA,NA,NA,NA,NA,NA,0,0,0,2,1,NA,NA,NA,NA,NA
SUPAMT02221,3WEV0KO0OSR8J0FP3B3TFCIIJDVSDF,92FE0C8C-A9BE-47C2-9454-726AB0B7CC7F,2023-09-28_14h04.11.635,WP_VExplicitOC_HL,2022.2.5,Win32,13.04835721,100,3.1289,2.0279,NA,NA,NA,NA,NA,happy,"unhappy, happy","less happy, more happy",NA,NA,NA,NA,NA,NA,NA,NA,NA,NA,NA,NA,NA,NA,NA,NA,NA,NA,NA,NA,NA,NA,NA,NA,NA,NA,NA,NA,NA,NA,NA,NA,NA,NA,NA,NA,NA,NA,0,1,1,0,1,NA,NA,NA,NA,NA
SUPAMT02221,3WEV0KO0OSR8J0FP3B3TFCIIJDVSDF,92FE0C8C-A9BE-47C2-9454-726AB0B7CC7F,2023-09-28_14h04.11.635,WP_VExplicitOC_HL,2022.2.5,Win32,13.04835721,100,3.5675,2.0902,NA,NA,NA,NA,NA,frustrated,"frustrated, not frustrated","more frustrated, less frustrated",NA,NA,NA,NA,NA,NA,NA,NA,NA,NA,NA,NA,NA,NA,NA,NA,NA,NA,NA,NA,NA,NA,NA,NA,NA,NA,NA,NA,NA,NA,NA,NA,NA,NA,NA,NA,NA,NA,0,2,2,1,1,NA,NA,NA,NA,NA
SUPAMT02221,3WEV0KO0OSR8J0FP3B3TFCIIJDVSDF,92FE0C8C-A9BE-47C2-9454-726AB0B7CC7F,2023-09-28_14h04.11.635,WP_VExplicitOC_HL,2022.2.5,Win32,13.04835721,NA,NA,NA,NA,NA,NA,NA,NA,NA,NA,NA,NA,NA,NA,NA,NA,NA,NA,NA,NA,NA,NA,NA,NA,NA,NA,NA,NA,NA,NA,NA,NA,NA,NA,NA,NA,NA,NA,NA,NA,NA,NA,NA,NA,NA,NA,NA,NA,NA,NA,NA,NA,NA,NA,2,0,2,0,1
SUPAMT02221,3WEV0KO0OSR8J0FP3B3TFCIIJDVSDF,92FE0C8C-A9BE-47C2-9454-726AB0B7CC7F,2023-09-28_14h04.11.635,WP_VExplicitOC_HL,2022.2.5,Win32,13.04835721,100,5.2058,2.0505,NA,NA,NA,NA,NA,frustrated,"frustrated, not frustrated","more frustrated, less frustrated",NA,NA,NA,NA,NA,NA,NA,NA,NA,NA,NA,NA,NA,NA,NA,NA,NA,NA,NA,NA,NA,NA,NA,NA,NA,NA,NA,NA,NA,NA,NA,NA,NA,NA,NA,NA,NA,NA,0,0,0,1,1,NA,NA,NA,NA,NA
SUPAMT02221,3WEV0KO0OSR8J0FP3B3TFCIIJDVSDF,92FE0C8C-A9BE-47C2-9454-726AB0B7CC7F,2023-09-28_14h04.11.635,WP_VExplicitOC_HL,2022.2.5,Win32,13.04835721,NA,NA,2.0092,NA,NA,NA,NA,NA,bored,"bored, not bored","more bored, less bored",NA,NA,NA,NA,NA,NA,NA,NA,NA,NA,NA,NA,NA,NA,NA,NA,NA,NA,NA,NA,NA,NA,NA,NA,NA,NA,NA,NA,NA,NA,NA,NA,NA,NA,NA,NA,NA,NA,0,1,1,2,1,NA,NA,NA,NA,NA
SUPAMT02221,3WEV0KO0OSR8J0FP3B3TFCIIJDVSDF,92FE0C8C-A9BE-47C2-9454-726AB0B7CC7F,2023-09-28_14h04.11.635,WP_VExplicitOC_HL,2022.2.5,Win32,13.04835721,100,3.7739,2.0172,NA,NA,NA,NA,NA,happy,"unhappy, happy","less happy, more happy",NA,NA,NA,NA,NA,NA,NA,NA,NA,NA,NA,NA,NA,NA,NA,NA,NA,NA,NA,NA,NA,NA,NA,NA,NA,NA,NA,NA,NA,NA,NA,NA,NA,NA,NA,NA,NA,NA,0,2,2,0,1,NA,NA,NA,NA,NA
SUPAMT02221,3WEV0KO0OSR8J0FP3B3TFCIIJDVSDF,92FE0C8C-A9BE-47C2-9454-726AB0B7CC7F,2023-09-28_14h04.11.635,WP_VExplicitOC_HL,2022.2.5,Win32,13.04835721,NA,NA,NA,NA,NA,NA,NA,NA,NA,NA,NA,NA,NA,NA,NA,NA,NA,NA,NA,NA,NA,NA,NA,NA,NA,NA,NA,NA,NA,NA,NA,NA,NA,NA,NA,NA,NA,NA,NA,NA,NA,NA,NA,NA,NA,NA,NA,NA,NA,NA,NA,NA,NA,NA,3,0,3,0,1
SUPAMT02221,3WEV0KO0OSR8J0FP3B3TFCIIJDVSDF,92FE0C8C-A9BE-47C2-9454-726AB0B7CC7F,2023-09-28_14h04.11.635,WP_VExplicitOC_HL,2022.2.5,Win32,13.04835721,100,3.8217,2.1208,NA,NA,NA,NA,NA,happy,"unhappy, happy","less happy, more happy",NA,NA,NA,NA,NA,NA,NA,NA,NA,NA,NA,NA,NA,NA,NA,NA,NA,NA,NA,NA,NA,NA,NA,NA,NA,NA,NA,NA,NA,NA,NA,NA,NA,NA,NA,NA,NA,NA,0,0,0,0,1,NA,NA,NA,NA,NA
SUPAMT02221,3WEV0KO0OSR8J0FP3B3TFCIIJDVSDF,92FE0C8C-A9BE-47C2-9454-726AB0B7CC7F,2023-09-28_14h04.11.635,WP_VExplicitOC_HL,2022.2.5,Win32,13.04835721,100,3.3759,2.0454,NA,NA,NA,NA,NA,bored,"bored, not bored","more bored, less bored",NA,NA,NA,NA,NA,NA,NA,NA,NA,NA,NA,NA,NA,NA,NA,NA,NA,NA,NA,NA,NA,NA,NA,NA,NA,NA,NA,NA,NA,NA,NA,NA,NA,NA,NA,NA,NA,NA,0,1,1,2,1,NA,NA,NA,NA,NA
SUPAMT02221,3WEV0KO0OSR8J0FP3B3TFCIIJDVSDF,92FE0C8C-A9BE-47C2-9454-726AB0B7CC7F,2023-09-28_14h04.11.635,WP_VExplicitOC_HL,2022.2.5,Win32,13.04835721,100,3.3081,2.0665,NA,NA,NA,NA,NA,frustrated,"frustrated, not frustrated","more frustrated, less frustrated",NA,NA,NA,NA,NA,NA,NA,NA,NA,NA,NA,NA,NA,NA,NA,NA,NA,NA,NA,NA,NA,NA,NA,NA,NA,NA,NA,NA,NA,NA,NA,NA,NA,NA,NA,NA,NA,NA,0,2,2,1,1,NA,NA,NA,NA,NA
SUPAMT02221,3WEV0KO0OSR8J0FP3B3TFCIIJDVSDF,92FE0C8C-A9BE-47C2-9454-726AB0B7CC7F,2023-09-28_14h04.11.635,WP_VExplicitOC_HL,2022.2.5,Win32,13.04835721,NA,NA,NA,NA,NA,NA,NA,NA,NA,NA,NA,NA,NA,NA,NA,NA,NA,NA,NA,NA,NA,NA,NA,NA,NA,NA,NA,NA,NA,NA,NA,NA,NA,NA,NA,NA,NA,NA,NA,NA,NA,NA,NA,NA,NA,NA,NA,NA,NA,NA,NA,NA,NA,NA,4,0,4,0,1
SUPAMT02221,3WEV0KO0OSR8J0FP3B3TFCIIJDVSDF,92FE0C8C-A9BE-47C2-9454-726AB0B7CC7F,2023-09-28_14h04.11.635,WP_VExplicitOC_HL,2022.2.5,Win32,13.04835721,100,6.0367,2.0042,NA,NA,NA,NA,NA,bored,"bored, not bored","more bored, less bored",NA,NA,NA,NA,NA,NA,NA,NA,NA,NA,NA,NA,NA,NA,NA,NA,NA,NA,NA,NA,NA,NA,NA,NA,NA,NA,NA,NA,NA,NA,NA,NA,NA,NA,NA,NA,NA,NA,0,0,0,2,1,NA,NA,NA,NA,NA
SUPAMT02221,3WEV0KO0OSR8J0FP3B3TFCIIJDVSDF,92FE0C8C-A9BE-47C2-9454-726AB0B7CC7F,2023-09-28_14h04.11.635,WP_VExplicitOC_HL,2022.2.5,Win32,13.04835721,100,3.2417,2.003,NA,NA,NA,NA,NA,happy,"unhappy, happy","less happy, more happy",NA,NA,NA,NA,NA,NA,NA,NA,NA,NA,NA,NA,NA,NA,NA,NA,NA,NA,NA,NA,NA,NA,NA,NA,NA,NA,NA,NA,NA,NA,NA,NA,NA,NA,NA,NA,NA,NA,0,1,1,0,1,NA,NA,NA,NA,NA
SUPAMT02221,3WEV0KO0OSR8J0FP3B3TFCIIJDVSDF,92FE0C8C-A9BE-47C2-9454-726AB0B7CC7F,2023-09-28_14h04.11.635,WP_VExplicitOC_HL,2022.2.5,Win32,13.04835721,100,3.7884,2.0185,NA,NA,NA,NA,NA,frustrated,"frustrated, not frustrated","more frustrated, less frustrated",NA,NA,NA,NA,NA,NA,NA,NA,NA,NA,NA,NA,NA,NA,NA,NA,NA,NA,NA,NA,NA,NA,NA,NA,NA,NA,NA,NA,NA,NA,NA,NA,NA,NA,NA,NA,NA,NA,0,2,2,1,1,NA,NA,NA,NA,NA
SUPAMT02221,3WEV0KO0OSR8J0FP3B3TFCIIJDVSDF,92FE0C8C-A9BE-47C2-9454-726AB0B7CC7F,2023-09-28_14h04.11.635,WP_VExplicitOC_HL,2022.2.5,Win32,13.04835721,NA,NA,NA,NA,NA,NA,NA,NA,NA,NA,NA,NA,NA,NA,NA,NA,NA,NA,NA,NA,NA,NA,NA,NA,NA,NA,NA,NA,NA,NA,NA,NA,NA,NA,NA,NA,NA,NA,NA,NA,NA,NA,NA,NA,NA,NA,NA,NA,NA,NA,NA,NA,NA,NA,5,0,5,0,1
SUPAMT02221,3WEV0KO0OSR8J0FP3B3TFCIIJDVSDF,92FE0C8C-A9BE-47C2-9454-726AB0B7CC7F,2023-09-28_14h04.11.635,WP_VExplicitOC_HL,2022.2.5,Win32,13.04835721,100,3.6087,2.063,NA,NA,NA,NA,NA,frustrated,"frustrated, not frustrated","more frustrated, less frustrated",NA,NA,NA,NA,NA,NA,NA,NA,NA,NA,NA,NA,NA,NA,NA,NA,NA,NA,NA,NA,NA,NA,NA,NA,NA,NA,NA,NA,NA,NA,NA,NA,NA,NA,NA,NA,NA,NA,0,0,0,1,1,NA,NA,NA,NA,NA
SUPAMT02221,3WEV0KO0OSR8J0FP3B3TFCIIJDVSDF,92FE0C8C-A9BE-47C2-9454-726AB0B7CC7F,2023-09-28_14h04.11.635,WP_VExplicitOC_HL,2022.2.5,Win32,13.04835721,100,3.2066,2.0461,NA,NA,NA,NA,NA,happy,"unhappy, happy","less happy, more happy",NA,NA,NA,NA,NA,NA,NA,NA,NA,NA,NA,NA,NA,NA,NA,NA,NA,NA,NA,NA,NA,NA,NA,NA,NA,NA,NA,NA,NA,NA,NA,NA,NA,NA,NA,NA,NA,NA,0,1,1,0,1,NA,NA,NA,NA,NA
SUPAMT02221,3WEV0KO0OSR8J0FP3B3TFCIIJDVSDF,92FE0C8C-A9BE-47C2-9454-726AB0B7CC7F,2023-09-28_14h04.11.635,WP_VExplicitOC_HL,2022.2.5,Win32,13.04835721,100,3.4984,2.0082,NA,NA,NA,NA,NA,bored,"bored, not bored","more bored, less bored",NA,NA,NA,NA,NA,NA,NA,NA,NA,NA,NA,NA,NA,NA,NA,NA,NA,NA,NA,NA,NA,NA,NA,NA,NA,NA,NA,NA,NA,NA,NA,NA,NA,NA,NA,NA,NA,NA,0,2,2,2,1,NA,NA,NA,NA,NA
SUPAMT02221,3WEV0KO0OSR8J0FP3B3TFCIIJDVSDF,92FE0C8C-A9BE-47C2-9454-726AB0B7CC7F,2023-09-28_14h04.11.635,WP_VExplicitOC_HL,2022.2.5,Win32,13.04835721,NA,NA,NA,NA,NA,NA,NA,NA,NA,NA,NA,NA,NA,NA,NA,NA,NA,NA,NA,NA,NA,NA,NA,NA,NA,NA,NA,NA,NA,NA,NA,NA,NA,NA,NA,NA,NA,NA,NA,NA,NA,NA,NA,NA,NA,NA,NA,NA,NA,NA,NA,NA,NA,NA,6,0,6,0,1
SUPAMT02221,3WEV0KO0OSR8J0FP3B3TFCIIJDVSDF,92FE0C8C-A9BE-47C2-9454-726AB0B7CC7F,2023-09-28_14h04.11.635,WP_VExplicitOC_HL,2022.2.5,Win32,13.04835721,100,6.4353,2.0732,NA,NA,NA,NA,NA,happy,"unhappy, happy","less happy, more happy",NA,NA,NA,NA,NA,NA,NA,NA,NA,NA,NA,NA,NA,NA,NA,NA,NA,NA,NA,NA,NA,NA,NA,NA,NA,NA,NA,NA,NA,NA,NA,NA,NA,NA,NA,NA,NA,NA,0,0,0,0,1,NA,NA,NA,NA,NA
SUPAMT02221,3WEV0KO0OSR8J0FP3B3TFCIIJDVSDF,92FE0C8C-A9BE-47C2-9454-726AB0B7CC7F,2023-09-28_14h04.11.635,WP_VExplicitOC_HL,2022.2.5,Win32,13.04835721,100,3.2586,2.012,NA,NA,NA,NA,NA,frustrated,"frustrated, not frustrated","more frustrated, less frustrated",NA,NA,NA,NA,NA,NA,NA,NA,NA,NA,NA,NA,NA,NA,NA,NA,NA,NA,NA,NA,NA,NA,NA,NA,NA,NA,NA,NA,NA,NA,NA,NA,NA,NA,NA,NA,NA,NA,0,1,1,1,1,NA,NA,NA,NA,NA
SUPAMT02221,3WEV0KO0OSR8J0FP3B3TFCIIJDVSDF,92FE0C8C-A9BE-47C2-9454-726AB0B7CC7F,2023-09-28_14h04.11.635,WP_VExplicitOC_HL,2022.2.5,Win32,13.04835721,100,3.2485,2.0436,NA,NA,NA,NA,NA,bored,"bored, not bored","more bored, less bored",NA,NA,NA,NA,NA,NA,NA,NA,NA,NA,NA,NA,NA,NA,NA,NA,NA,NA,NA,NA,NA,NA,NA,NA,NA,NA,NA,NA,NA,NA,NA,NA,NA,NA,NA,NA,NA,NA,0,2,2,2,1,NA,NA,NA,NA,NA
SUPAMT02221,3WEV0KO0OSR8J0FP3B3TFCIIJDVSDF,92FE0C8C-A9BE-47C2-9454-726AB0B7CC7F,2023-09-28_14h04.11.635,WP_VExplicitOC_HL,2022.2.5,Win32,13.04835721,NA,NA,NA,NA,NA,NA,NA,NA,NA,NA,NA,NA,NA,NA,NA,NA,NA,NA,NA,NA,NA,NA,NA,NA,NA,NA,NA,NA,NA,NA,NA,NA,NA,NA,NA,NA,NA,NA,NA,NA,NA,NA,NA,NA,NA,NA,NA,NA,NA,NA,NA,NA,NA,NA,7,0,7,0,1
SUPAMT02221,3WEV0KO0OSR8J0FP3B3TFCIIJDVSDF,92FE0C8C-A9BE-47C2-9454-726AB0B7CC7F,2023-09-28_14h04.11.635,WP_VExplicitOC_HL,2022.2.5,Win32,13.04835721,100,7.1093,2.048,NA,NA,NA,NA,NA,bored,"bored, not bored","more bored, less bored",NA,NA,NA,NA,NA,NA,NA,NA,NA,NA,NA,NA,NA,NA,NA,NA,NA,NA,NA,NA,NA,NA,NA,NA,NA,NA,NA,NA,NA,NA,NA,NA,NA,NA,NA,NA,NA,NA,0,0,0,2,1,NA,NA,NA,NA,NA
SUPAMT02221,3WEV0KO0OSR8J0FP3B3TFCIIJDVSDF,92FE0C8C-A9BE-47C2-9454-726AB0B7CC7F,2023-09-28_14h04.11.635,WP_VExplicitOC_HL,2022.2.5,Win32,13.04835721,100,3.3299,2.1102,NA,NA,NA,NA,NA,happy,"unhappy, happy","less happy, more happy",NA,NA,NA,NA,NA,NA,NA,NA,NA,NA,NA,NA,NA,NA,NA,NA,NA,NA,NA,NA,NA,NA,NA,NA,NA,NA,NA,NA,NA,NA,NA,NA,NA,NA,NA,NA,NA,NA,0,1,1,0,1,NA,NA,NA,NA,NA
SUPAMT02221,3WEV0KO0OSR8J0FP3B3TFCIIJDVSDF,92FE0C8C-A9BE-47C2-9454-726AB0B7CC7F,2023-09-28_14h04.11.635,WP_VExplicitOC_HL,2022.2.5,Win32,13.04835721,100,3.1729,2.009,NA,NA,NA,NA,NA,frustrated,"frustrated, not frustrated","more frustrated, less frustrated",NA,NA,NA,NA,NA,NA,NA,NA,NA,NA,NA,NA,NA,NA,NA,NA,NA,NA,NA,NA,NA,NA,NA,NA,NA,NA,NA,NA,NA,NA,NA,NA,NA,NA,NA,NA,NA,NA,0,2,2,1,1,NA,NA,NA,NA,NA
SUPAMT02221,3WEV0KO0OSR8J0FP3B3TFCIIJDVSDF,92FE0C8C-A9BE-47C2-9454-726AB0B7CC7F,2023-09-28_14h04.11.635,WP_VExplicitOC_HL,2022.2.5,Win32,13.04835721,NA,NA,NA,NA,NA,NA,NA,NA,NA,NA,NA,NA,NA,NA,NA,NA,NA,NA,NA,NA,NA,NA,NA,NA,NA,NA,NA,NA,NA,NA,NA,NA,NA,NA,NA,NA,NA,NA,NA,NA,NA,NA,NA,NA,NA,NA,NA,NA,NA,NA,NA,NA,NA,NA,8,0,8,0,1
SUPAMT02221,3WEV0KO0OSR8J0FP3B3TFCIIJDVSDF,92FE0C8C-A9BE-47C2-9454-726AB0B7CC7F,2023-09-28_14h04.11.635,WP_VExplicitOC_HL,2022.2.5,Win32,13.04835721,100,5.1378,2.0299,NA,NA,NA,NA,NA,bored,"bored, not bored","more bored, less bored",NA,NA,NA,NA,NA,NA,NA,NA,NA,NA,NA,NA,NA,NA,NA,NA,NA,NA,NA,NA,NA,NA,NA,NA,NA,NA,NA,NA,NA,NA,NA,NA,NA,NA,NA,NA,NA,NA,0,0,0,2,1,NA,NA,NA,NA,NA
SUPAMT02221,3WEV0KO0OSR8J0FP3B3TFCIIJDVSDF,92FE0C8C-A9BE-47C2-9454-726AB0B7CC7F,2023-09-28_14h04.11.635,WP_VExplicitOC_HL,2022.2.5,Win32,13.04835721,100,3.4596,2.063,NA,NA,NA,NA,NA,frustrated,"frustrated, not frustrated","more frustrated, less frustrated",NA,NA,NA,NA,NA,NA,NA,NA,NA,NA,NA,NA,NA,NA,NA,NA,NA,NA,NA,NA,NA,NA,NA,NA,NA,NA,NA,NA,NA,NA,NA,NA,NA,NA,NA,NA,NA,NA,0,1,1,1,1,NA,NA,NA,NA,NA
SUPAMT02221,3WEV0KO0OSR8J0FP3B3TFCIIJDVSDF,92FE0C8C-A9BE-47C2-9454-726AB0B7CC7F,2023-09-28_14h04.11.635,WP_VExplicitOC_HL,2022.2.5,Win32,13.04835721,100,3.6634,2.037,NA,NA,NA,NA,NA,happy,"unhappy, happy","less happy, more happy",NA,NA,NA,NA,NA,NA,NA,NA,NA,NA,NA,NA,NA,NA,NA,NA,NA,NA,NA,NA,NA,NA,NA,NA,NA,NA,NA,NA,NA,NA,NA,NA,NA,NA,NA,NA,NA,NA,0,2,2,0,1,NA,NA,NA,NA,NA
SUPAMT02221,3WEV0KO0OSR8J0FP3B3TFCIIJDVSDF,92FE0C8C-A9BE-47C2-9454-726AB0B7CC7F,2023-09-28_14h04.11.635,WP_VExplicitOC_HL,2022.2.5,Win32,13.04835721,NA,NA,NA,NA,NA,NA,NA,NA,NA,NA,NA,NA,NA,NA,NA,NA,NA,NA,NA,NA,NA,NA,NA,NA,NA,NA,NA,NA,NA,NA,NA,NA,NA,NA,NA,NA,NA,NA,NA,NA,NA,NA,NA,NA,NA,NA,NA,NA,NA,NA,NA,NA,NA,NA,9,0,9,0,1
SUPAMT02221,3WEV0KO0OSR8J0FP3B3TFCIIJDVSDF,92FE0C8C-A9BE-47C2-9454-726AB0B7CC7F,2023-09-28_14h04.11.635,WP_VExplicitOC_HL,2022.2.5,Win32,13.04835721,100,3.7919,2.0596,NA,NA,NA,NA,NA,happy,"unhappy, happy","less happy, more happy",NA,NA,NA,NA,NA,NA,NA,NA,NA,NA,NA,NA,NA,NA,NA,NA,NA,NA,NA,NA,NA,NA,NA,NA,NA,NA,NA,NA,NA,NA,NA,NA,NA,NA,NA,NA,NA,NA,0,0,0,0,1,NA,NA,NA,NA,NA
SUPAMT02221,3WEV0KO0OSR8J0FP3B3TFCIIJDVSDF,92FE0C8C-A9BE-47C2-9454-726AB0B7CC7F,2023-09-28_14h04.11.635,WP_VExplicitOC_HL,2022.2.5,Win32,13.04835721,100,3.0875,2.0319,NA,NA,NA,NA,NA,bored,"bored, not bored","more bored, less bored",NA,NA,NA,NA,NA,NA,NA,NA,NA,NA,NA,NA,NA,NA,NA,NA,NA,NA,NA,NA,NA,NA,NA,NA,NA,NA,NA,NA,NA,NA,NA,NA,NA,NA,NA,NA,NA,NA,0,1,1,2,1,NA,NA,NA,NA,NA
SUPAMT02221,3WEV0KO0OSR8J0FP3B3TFCIIJDVSDF,92FE0C8C-A9BE-47C2-9454-726AB0B7CC7F,2023-09-28_14h04.11.635,WP_VExplicitOC_HL,2022.2.5,Win32,13.04835721,100,4.2183,2.0672,NA,NA,NA,NA,NA,frustrated,"frustrated, not frustrated","more frustrated, less frustrated",NA,NA,NA,NA,NA,NA,NA,NA,NA,NA,NA,NA,NA,NA,NA,NA,NA,NA,NA,NA,NA,NA,NA,NA,NA,NA,NA,NA,NA,NA,NA,NA,NA,NA,NA,NA,NA,NA,0,2,2,1,1,NA,NA,NA,NA,NA
SUPAMT02221,3WEV0KO0OSR8J0FP3B3TFCIIJDVSDF,92FE0C8C-A9BE-47C2-9454-726AB0B7CC7F,2023-09-28_14h04.11.635,WP_VExplicitOC_HL,2022.2.5,Win32,13.04835721,NA,NA,NA,NA,NA,NA,NA,NA,NA,NA,NA,NA,NA,NA,NA,NA,NA,NA,NA,NA,NA,NA,NA,NA,NA,NA,NA,NA,NA,NA,NA,NA,NA,NA,NA,NA,NA,NA,NA,NA,NA,NA,NA,NA,NA,NA,NA,NA,NA,NA,NA,NA,NA,NA,10,0,10,0,1
SUPAMT02221,3WEV0KO0OSR8J0FP3B3TFCIIJDVSDF,92FE0C8C-A9BE-47C2-9454-726AB0B7CC7F,2023-09-28_14h04.11.635,WP_VExplicitOC_HL,2022.2.5,Win32,13.04835721,NA,NA,2.0607,NA,NA,NA,NA,NA,frustrated,"frustrated, not frustrated","more frustrated, less frustrated",NA,NA,NA,NA,NA,NA,NA,NA,NA,NA,NA,NA,NA,NA,NA,NA,NA,NA,NA,NA,NA,NA,NA,NA,NA,NA,NA,NA,NA,NA,NA,NA,NA,NA,NA,NA,NA,NA,0,0,0,1,1,NA,NA,NA,NA,NA
SUPAMT02221,3WEV0KO0OSR8J0FP3B3TFCIIJDVSDF,92FE0C8C-A9BE-47C2-9454-726AB0B7CC7F,2023-09-28_14h04.11.635,WP_VExplicitOC_HL,2022.2.5,Win32,13.04835721,100,4.4987,2.0464,NA,NA,NA,NA,NA,bored,"bored, not bored","more bored, less bored",NA,NA,NA,NA,NA,NA,NA,NA,NA,NA,NA,NA,NA,NA,NA,NA,NA,NA,NA,NA,NA,NA,NA,NA,NA,NA,NA,NA,NA,NA,NA,NA,NA,NA,NA,NA,NA,NA,0,1,1,2,1,NA,NA,NA,NA,NA
SUPAMT02221,3WEV0KO0OSR8J0FP3B3TFCIIJDVSDF,92FE0C8C-A9BE-47C2-9454-726AB0B7CC7F,2023-09-28_14h04.11.635,WP_VExplicitOC_HL,2022.2.5,Win32,13.04835721,100,4.9728,2.0728,NA,NA,NA,NA,NA,happy,"unhappy, happy","less happy, more happy",NA,NA,NA,NA,NA,NA,NA,NA,NA,NA,NA,NA,NA,NA,NA,NA,NA,NA,NA,NA,NA,NA,NA,NA,NA,NA,NA,NA,NA,NA,NA,NA,NA,NA,NA,NA,NA,NA,0,2,2,0,1,NA,NA,NA,NA,NA
SUPAMT02221,3WEV0KO0OSR8J0FP3B3TFCIIJDVSDF,92FE0C8C-A9BE-47C2-9454-726AB0B7CC7F,2023-09-28_14h04.11.635,WP_VExplicitOC_HL,2022.2.5,Win32,13.04835721,NA,NA,NA,NA,NA,NA,NA,NA,NA,NA,NA,NA,NA,NA,NA,NA,NA,NA,NA,NA,NA,NA,NA,NA,NA,NA,NA,NA,NA,NA,NA,NA,NA,NA,NA,NA,NA,NA,NA,NA,NA,NA,NA,NA,NA,NA,NA,NA,NA,NA,NA,NA,NA,NA,11,0,11,0,1
SUPAMT02221,3WEV0KO0OSR8J0FP3B3TFCIIJDVSDF,92FE0C8C-A9BE-47C2-9454-726AB0B7CC7F,2023-09-28_14h04.11.635,WP_VExplicitOC_HL,2022.2.5,Win32,13.04835721,100,3.489,2.0118,NA,NA,NA,NA,NA,happy,"unhappy, happy","less happy, more happy",NA,NA,NA,NA,NA,NA,NA,NA,NA,NA,NA,NA,NA,NA,NA,NA,NA,NA,NA,NA,NA,NA,NA,NA,NA,NA,NA,NA,NA,NA,NA,NA,NA,NA,NA,NA,NA,NA,0,0,0,0,1,NA,NA,NA,NA,NA
SUPAMT02221,3WEV0KO0OSR8J0FP3B3TFCIIJDVSDF,92FE0C8C-A9BE-47C2-9454-726AB0B7CC7F,2023-09-28_14h04.11.635,WP_VExplicitOC_HL,2022.2.5,Win32,13.04835721,100,4.7839,2.0132,NA,NA,NA,NA,NA,bored,"bored, not bored","more bored, less bored",NA,NA,NA,NA,NA,NA,NA,NA,NA,NA,NA,NA,NA,NA,NA,NA,NA,NA,NA,NA,NA,NA,NA,NA,NA,NA,NA,NA,NA,NA,NA,NA,NA,NA,NA,NA,NA,NA,0,1,1,2,1,NA,NA,NA,NA,NA
SUPAMT02221,3WEV0KO0OSR8J0FP3B3TFCIIJDVSDF,92FE0C8C-A9BE-47C2-9454-726AB0B7CC7F,2023-09-28_14h04.11.635,WP_VExplicitOC_HL,2022.2.5,Win32,13.04835721,NA,NA,2.0763,NA,NA,NA,NA,NA,frustrated,"frustrated, not frustrated","more frustrated, less frustrated",NA,NA,NA,NA,NA,NA,NA,NA,NA,NA,NA,NA,NA,NA,NA,NA,NA,NA,NA,NA,NA,NA,NA,NA,NA,NA,NA,NA,NA,NA,NA,NA,NA,NA,NA,NA,NA,NA,0,2,2,1,1,NA,NA,NA,NA,NA
SUPAMT02221,3WEV0KO0OSR8J0FP3B3TFCIIJDVSDF,92FE0C8C-A9BE-47C2-9454-726AB0B7CC7F,2023-09-28_14h04.11.635,WP_VExplicitOC_HL,2022.2.5,Win32,13.04835721,NA,NA,NA,NA,NA,NA,NA,NA,NA,NA,NA,NA,NA,NA,NA,NA,NA,NA,NA,NA,NA,NA,NA,NA,NA,NA,NA,NA,NA,NA,NA,NA,NA,NA,NA,NA,NA,NA,NA,NA,NA,NA,NA,NA,NA,NA,NA,NA,NA,NA,NA,NA,NA,NA,12,0,12,0,1
SUPAMT02221,3WEV0KO0OSR8J0FP3B3TFCIIJDVSDF,92FE0C8C-A9BE-47C2-9454-726AB0B7CC7F,2023-09-28_14h04.11.635,WP_VExplicitOC_HL,2022.2.5,Win32,13.04835721,100,5.5971,2.0318,NA,NA,NA,NA,NA,happy,"unhappy, happy","less happy, more happy",NA,NA,NA,NA,NA,NA,NA,NA,NA,NA,NA,NA,NA,NA,NA,NA,NA,NA,NA,NA,NA,NA,NA,NA,NA,NA,NA,NA,NA,NA,NA,NA,NA,NA,NA,NA,NA,NA,0,0,0,0,1,NA,NA,NA,NA,NA
SUPAMT02221,3WEV0KO0OSR8J0FP3B3TFCIIJDVSDF,92FE0C8C-A9BE-47C2-9454-726AB0B7CC7F,2023-09-28_14h04.11.635,WP_VExplicitOC_HL,2022.2.5,Win32,13.04835721,100,5.0324,2.0444,NA,NA,NA,NA,NA,frustrated,"frustrated, not frustrated","more frustrated, less frustrated",NA,NA,NA,NA,NA,NA,NA,NA,NA,NA,NA,NA,NA,NA,NA,NA,NA,NA,NA,NA,NA,NA,NA,NA,NA,NA,NA,NA,NA,NA,NA,NA,NA,NA,NA,NA,NA,NA,0,1,1,1,1,NA,NA,NA,NA,NA
SUPAMT02221,3WEV0KO0OSR8J0FP3B3TFCIIJDVSDF,92FE0C8C-A9BE-47C2-9454-726AB0B7CC7F,2023-09-28_14h04.11.635,WP_VExplicitOC_HL,2022.2.5,Win32,13.04835721,NA,NA,2.006,NA,NA,NA,NA,NA,bored,"bored, not bored","more bored, less bored",NA,NA,NA,NA,NA,NA,NA,NA,NA,NA,NA,NA,NA,NA,NA,NA,NA,NA,NA,NA,NA,NA,NA,NA,NA,NA,NA,NA,NA,NA,NA,NA,NA,NA,NA,NA,NA,NA,0,2,2,2,1,NA,NA,NA,NA,NA
SUPAMT02221,3WEV0KO0OSR8J0FP3B3TFCIIJDVSDF,92FE0C8C-A9BE-47C2-9454-726AB0B7CC7F,2023-09-28_14h04.11.635,WP_VExplicitOC_HL,2022.2.5,Win32,13.04835721,NA,NA,NA,NA,NA,NA,NA,NA,NA,NA,NA,NA,NA,NA,NA,NA,NA,NA,NA,NA,NA,NA,NA,NA,NA,NA,NA,NA,NA,NA,NA,NA,NA,NA,NA,NA,NA,NA,NA,NA,NA,NA,NA,NA,NA,NA,NA,NA,NA,NA,NA,NA,NA,NA,13,0,13,0,1
SUPAMT02221,3WEV0KO0OSR8J0FP3B3TFCIIJDVSDF,92FE0C8C-A9BE-47C2-9454-726AB0B7CC7F,2023-09-28_14h04.11.635,WP_VExplicitOC_HL,2022.2.5,Win32,13.04835721,100,3.192,2.0216,NA,NA,NA,NA,NA,happy,"unhappy, happy","less happy, more happy",NA,NA,NA,NA,NA,NA,NA,NA,NA,NA,NA,NA,NA,NA,NA,NA,NA,NA,NA,NA,NA,NA,NA,NA,NA,NA,NA,NA,NA,NA,NA,NA,NA,NA,NA,NA,NA,NA,0,0,0,0,1,NA,NA,NA,NA,NA
SUPAMT02221,3WEV0KO0OSR8J0FP3B3TFCIIJDVSDF,92FE0C8C-A9BE-47C2-9454-726AB0B7CC7F,2023-09-28_14h04.11.635,WP_VExplicitOC_HL,2022.2.5,Win32,13.04835721,100,5.1501,2.0156,NA,NA,NA,NA,NA,bored,"bored, not bored","more bored, less bored",NA,NA,NA,NA,NA,NA,NA,NA,NA,NA,NA,NA,NA,NA,NA,NA,NA,NA,NA,NA,NA,NA,NA,NA,NA,NA,NA,NA,NA,NA,NA,NA,NA,NA,NA,NA,NA,NA,0,1,1,2,1,NA,NA,NA,NA,NA
SUPAMT02221,3WEV0KO0OSR8J0FP3B3TFCIIJDVSDF,92FE0C8C-A9BE-47C2-9454-726AB0B7CC7F,2023-09-28_14h04.11.635,WP_VExplicitOC_HL,2022.2.5,Win32,13.04835721,100,3.015,2.0233,NA,NA,NA,NA,NA,frustrated,"frustrated, not frustrated","more frustrated, less frustrated",NA,NA,NA,NA,NA,NA,NA,NA,NA,NA,NA,NA,NA,NA,NA,NA,NA,NA,NA,NA,NA,NA,NA,NA,NA,NA,NA,NA,NA,NA,NA,NA,NA,NA,NA,NA,NA,NA,0,2,2,1,1,NA,NA,NA,NA,NA
SUPAMT02221,3WEV0KO0OSR8J0FP3B3TFCIIJDVSDF,92FE0C8C-A9BE-47C2-9454-726AB0B7CC7F,2023-09-28_14h04.11.635,WP_VExplicitOC_HL,2022.2.5,Win32,13.04835721,NA,NA,NA,NA,NA,NA,NA,NA,NA,NA,NA,NA,NA,NA,NA,NA,NA,NA,NA,NA,NA,NA,NA,NA,NA,NA,NA,NA,NA,NA,NA,NA,NA,NA,NA,NA,NA,NA,NA,NA,NA,NA,NA,NA,NA,NA,NA,NA,NA,NA,NA,NA,NA,NA,14,0,14,0,1
SUPAMT02221,3WEV0KO0OSR8J0FP3B3TFCIIJDVSDF,92FE0C8C-A9BE-47C2-9454-726AB0B7CC7F,2023-09-28_14h04.11.635,WP_VExplicitOC_HL,2022.2.5,Win32,13.04835721,NA,NA,NA,NA,NA,NA,NA,NA,NA,NA,NA,NA,NA,NA,NA,NA,NA,NA,NA,NA,NA,NA,NA,NA,NA,NA,NA,NA,NA,NA,NA,NA,NA,NA,NA,NA,NA,NA,NA,NA,NA,NA,NA,NA,NA,NA,NA,NA,NA,NA,NA,NA,NA,NA,NA,NA,NA,NA,NA
