participant,session,completion,date,expName,psychopyVersion,OS,frameRate,rating_all.response,rating_all.rt,rating_all.tStart,rndRat1.thisRepN,rndRat1.thisTrialN,rndRat1.thisN,rndRat1.thisIndex,rndRat1.ran,Emo,Labs,Labs2,rating_alt.response,rating_alt.rt,AltC.thisRepN,AltC.thisTrialN,AltC.thisN,AltC.thisIndex,AltC.ran,alt_choices,pic_choices,TopAlt_Choice,rndRat2.thisRepN,rndRat2.thisTrialN,rndRat2.thisN,rndRat2.thisIndex,rndRat2.ran,rndRat3.thisRepN,rndRat3.thisTrialN,rndRat3.thisN,rndRat3.thisIndex,rndRat3.ran,trials_FC_H.thisRepN,trials_FC_H.thisTrialN,trials_FC_H.thisN,trials_FC_H.thisIndex,trials_FC_H.ran,rating_alt_2.response,rating_alt_2.rt,AltC2.thisRepN,AltC2.thisTrialN,AltC2.thisN,AltC2.thisIndex,AltC2.ran,BottomAlt_Choice,rndRat4.thisRepN,rndRat4.thisTrialN,rndRat4.thisN,rndRat4.thisIndex,rndRat4.ran,rndRat5.thisRepN,rndRat5.thisTrialN,rndRat5.thisN,rndRat5.thisIndex,rndRat5.ran,trials_FC_L.thisRepN,trials_FC_L.thisTrialN,trials_FC_L.thisN,trials_FC_L.thisIndex,trials_FC_L.ran
SUPAMT95465,34Q075JO13CEQWF1EG0E44BQY9Z106,9FF984AD-CD7B-49E5-B56C-9FD45A9FA473,2023-09-26_07h59.36.072,WP_VExplicitOC_HL,2022.2.5,Win32,15.00060002,NA,NA,NA,NA,NA,NA,NA,NA,NA,NA,NA,NA,NA,NA,NA,NA,NA,NA,NA,NA,NA,NA,NA,NA,NA,NA,NA,NA,NA,NA,NA,NA,NA,NA,NA,NA,NA,NA,NA,NA,NA,NA,NA,NA,NA,NA,NA,NA,NA,NA,NA,NA,NA,NA,NA,NA,NA,NA,NA
SUPAMT95465,34Q075JO13CEQWF1EG0E44BQY9Z106,9FF984AD-CD7B-49E5-B56C-9FD45A9FA473,2023-09-26_07h59.36.072,WP_VExplicitOC_HL,2022.2.5,Win32,15.00060002,NA,NA,NA,NA,NA,NA,NA,NA,NA,NA,NA,NA,NA,NA,NA,NA,NA,NA,NA,NA,NA,NA,NA,NA,NA,NA,NA,NA,NA,NA,NA,NA,NA,NA,NA,NA,NA,NA,NA,NA,NA,NA,NA,NA,NA,NA,NA,NA,NA,NA,NA,NA,NA,NA,NA,NA,NA,NA,NA
SUPAMT95465,34Q075JO13CEQWF1EG0E44BQY9Z106,9FF984AD-CD7B-49E5-B56C-9FD45A9FA473,2023-09-26_07h59.36.072,WP_VExplicitOC_HL,2022.2.5,Win32,15.00060002,NA,NA,NA,NA,NA,NA,NA,NA,NA,NA,NA,NA,NA,NA,NA,NA,NA,NA,NA,NA,NA,NA,NA,NA,NA,NA,NA,NA,NA,NA,NA,NA,NA,NA,NA,NA,NA,NA,NA,NA,NA,NA,NA,NA,NA,NA,NA,NA,NA,NA,NA,NA,NA,NA,NA,NA,NA,NA,NA
SUPAMT95465,34Q075JO13CEQWF1EG0E44BQY9Z106,9FF984AD-CD7B-49E5-B56C-9FD45A9FA473,2023-09-26_07h59.36.072,WP_VExplicitOC_HL,2022.2.5,Win32,15.00060002,98.28178694,4.517,2.016,0,0,0,2,1,bored,"bored, not bored","more bored, less bored",NA,NA,NA,NA,NA,NA,NA,NA,NA,NA,NA,NA,NA,NA,NA,NA,NA,NA,NA,NA,NA,NA,NA,NA,NA,NA,NA,NA,NA,NA,NA,NA,NA,NA,NA,NA,NA,NA,NA,NA,NA,NA,NA,NA,NA,NA,NA,NA
SUPAMT95465,34Q075JO13CEQWF1EG0E44BQY9Z106,9FF984AD-CD7B-49E5-B56C-9FD45A9FA473,2023-09-26_07h59.36.072,WP_VExplicitOC_HL,2022.2.5,Win32,15.00060002,98.28178694,4.577,2.01,0,1,1,0,1,happy,"unhappy, happy","less happy, more happy",NA,NA,NA,NA,NA,NA,NA,NA,NA,NA,NA,NA,NA,NA,NA,NA,NA,NA,NA,NA,NA,NA,NA,NA,NA,NA,NA,NA,NA,NA,NA,NA,NA,NA,NA,NA,NA,NA,NA,NA,NA,NA,NA,NA,NA,NA,NA,NA
SUPAMT95465,34Q075JO13CEQWF1EG0E44BQY9Z106,9FF984AD-CD7B-49E5-B56C-9FD45A9FA473,2023-09-26_07h59.36.072,WP_VExplicitOC_HL,2022.2.5,Win32,15.00060002,99.31271478,4.025,2.154,0,2,2,1,1,frustrated,"frustrated, not frustrated","more frustrated, less frustrated",NA,NA,NA,NA,NA,NA,NA,NA,NA,NA,NA,NA,NA,NA,NA,NA,NA,NA,NA,NA,NA,NA,NA,NA,NA,NA,NA,NA,NA,NA,NA,NA,NA,NA,NA,NA,NA,NA,NA,NA,NA,NA,NA,NA,NA,NA,NA,NA
SUPAMT95465,34Q075JO13CEQWF1EG0E44BQY9Z106,9FF984AD-CD7B-49E5-B56C-9FD45A9FA473,2023-09-26_07h59.36.072,WP_VExplicitOC_HL,2022.2.5,Win32,15.00060002,NA,NA,NA,NA,NA,NA,NA,NA,NA,NA,NA,NA,NA,NA,NA,NA,NA,NA,NA,NA,NA,NA,NA,NA,NA,NA,NA,NA,NA,NA,NA,NA,NA,NA,NA,NA,NA,NA,NA,NA,NA,NA,NA,NA,NA,NA,NA,NA,NA,NA,NA,NA,NA,NA,NA,NA,NA,NA,NA
SUPAMT95465,34Q075JO13CEQWF1EG0E44BQY9Z106,9FF984AD-CD7B-49E5-B56C-9FD45A9FA473,2023-09-26_07h59.36.072,WP_VExplicitOC_HL,2022.2.5,Win32,15.00060002,NA,NA,NA,NA,NA,NA,NA,NA,NA,NA,NA,NA,NA,NA,NA,NA,NA,NA,NA,NA,NA,NA,NA,NA,NA,NA,NA,NA,NA,NA,NA,NA,NA,NA,NA,NA,NA,NA,NA,NA,NA,NA,NA,NA,NA,NA,NA,NA,NA,NA,NA,NA,NA,NA,NA,NA,NA,NA,NA
SUPAMT95465,34Q075JO13CEQWF1EG0E44BQY9Z106,9FF984AD-CD7B-49E5-B56C-9FD45A9FA473,2023-09-26_07h59.36.072,WP_VExplicitOC_HL,2022.2.5,Win32,15.00060002,NA,NA,NA,NA,NA,NA,NA,NA,NA,NA,NA,NA,NA,NA,NA,NA,NA,NA,NA,NA,NA,NA,NA,NA,NA,NA,NA,NA,NA,NA,NA,NA,NA,NA,NA,NA,NA,NA,NA,NA,NA,NA,NA,NA,NA,NA,NA,NA,NA,NA,NA,NA,NA,NA,NA,NA,NA,NA,NA
SUPAMT95465,34Q075JO13CEQWF1EG0E44BQY9Z106,9FF984AD-CD7B-49E5-B56C-9FD45A9FA473,2023-09-26_07h59.36.072,WP_VExplicitOC_HL,2022.2.5,Win32,15.00060002,NA,NA,NA,NA,NA,NA,NA,NA,NA,NA,NA,NA,NA,NA,NA,NA,NA,NA,NA,NA,NA,NA,NA,NA,NA,NA,NA,NA,NA,NA,NA,NA,NA,NA,NA,NA,NA,NA,NA,NA,NA,NA,NA,NA,NA,NA,NA,NA,NA,NA,NA,NA,NA,NA,NA,NA,NA,NA,NA
SUPAMT95465,34Q075JO13CEQWF1EG0E44BQY9Z106,9FF984AD-CD7B-49E5-B56C-9FD45A9FA473,2023-09-26_07h59.36.072,WP_VExplicitOC_HL,2022.2.5,Win32,15.00060002,NA,NA,NA,NA,NA,NA,NA,NA,NA,NA,NA,94.50171821,3.253,0,0,0,0,1,rest (looking at a fixed cross),001.png,NA,NA,NA,NA,NA,NA,NA,NA,NA,NA,NA,NA,NA,NA,NA,NA,NA,NA,NA,NA,NA,NA,NA,NA,NA,NA,NA,NA,NA,NA,NA,NA,NA,NA,NA,NA,NA,NA,NA
SUPAMT95465,34Q075JO13CEQWF1EG0E44BQY9Z106,9FF984AD-CD7B-49E5-B56C-9FD45A9FA473,2023-09-26_07h59.36.072,WP_VExplicitOC_HL,2022.2.5,Win32,15.00060002,NA,NA,NA,NA,NA,NA,NA,NA,NA,NA,NA,50.51546392,3.502,0,1,1,1,1,stand up,002.png,NA,NA,NA,NA,NA,NA,NA,NA,NA,NA,NA,NA,NA,NA,NA,NA,NA,NA,NA,NA,NA,NA,NA,NA,NA,NA,NA,NA,NA,NA,NA,NA,NA,NA,NA,NA,NA,NA,NA
SUPAMT95465,34Q075JO13CEQWF1EG0E44BQY9Z106,9FF984AD-CD7B-49E5-B56C-9FD45A9FA473,2023-09-26_07h59.36.072,WP_VExplicitOC_HL,2022.2.5,Win32,15.00060002,NA,NA,NA,NA,NA,NA,NA,NA,NA,NA,NA,95.18900344,5.767,0,2,2,2,1,stretch,003.png,NA,NA,NA,NA,NA,NA,NA,NA,NA,NA,NA,NA,NA,NA,NA,NA,NA,NA,NA,NA,NA,NA,NA,NA,NA,NA,NA,NA,NA,NA,NA,NA,NA,NA,NA,NA,NA,NA,NA
SUPAMT95465,34Q075JO13CEQWF1EG0E44BQY9Z106,9FF984AD-CD7B-49E5-B56C-9FD45A9FA473,2023-09-26_07h59.36.072,WP_VExplicitOC_HL,2022.2.5,Win32,15.00060002,NA,NA,NA,NA,NA,NA,NA,NA,NA,NA,NA,95.18900344,1.644,0,3,3,3,1,make a drink,004.png,NA,NA,NA,NA,NA,NA,NA,NA,NA,NA,NA,NA,NA,NA,NA,NA,NA,NA,NA,NA,NA,NA,NA,NA,NA,NA,NA,NA,NA,NA,NA,NA,NA,NA,NA,NA,NA,NA,NA
SUPAMT95465,34Q075JO13CEQWF1EG0E44BQY9Z106,9FF984AD-CD7B-49E5-B56C-9FD45A9FA473,2023-09-26_07h59.36.072,WP_VExplicitOC_HL,2022.2.5,Win32,15.00060002,NA,NA,NA,NA,NA,NA,NA,NA,NA,NA,NA,95.18900344,1.826,0,4,4,4,1,scroll social media,005.png,NA,NA,NA,NA,NA,NA,NA,NA,NA,NA,NA,NA,NA,NA,NA,NA,NA,NA,NA,NA,NA,NA,NA,NA,NA,NA,NA,NA,NA,NA,NA,NA,NA,NA,NA,NA,NA,NA,NA
SUPAMT95465,34Q075JO13CEQWF1EG0E44BQY9Z106,9FF984AD-CD7B-49E5-B56C-9FD45A9FA473,2023-09-26_07h59.36.072,WP_VExplicitOC_HL,2022.2.5,Win32,15.00060002,NA,NA,NA,NA,NA,NA,NA,NA,NA,NA,NA,95.18900344,2.92,0,5,5,5,1,listen to music,006.png,NA,NA,NA,NA,NA,NA,NA,NA,NA,NA,NA,NA,NA,NA,NA,NA,NA,NA,NA,NA,NA,NA,NA,NA,NA,NA,NA,NA,NA,NA,NA,NA,NA,NA,NA,NA,NA,NA,NA
SUPAMT95465,34Q075JO13CEQWF1EG0E44BQY9Z106,9FF984AD-CD7B-49E5-B56C-9FD45A9FA473,2023-09-26_07h59.36.072,WP_VExplicitOC_HL,2022.2.5,Win32,15.00060002,NA,NA,NA,NA,NA,NA,NA,NA,NA,NA,NA,45.70446735,3.273,0,6,6,6,1,daydream,007.png,NA,NA,NA,NA,NA,NA,NA,NA,NA,NA,NA,NA,NA,NA,NA,NA,NA,NA,NA,NA,NA,NA,NA,NA,NA,NA,NA,NA,NA,NA,NA,NA,NA,NA,NA,NA,NA,NA,NA
SUPAMT95465,34Q075JO13CEQWF1EG0E44BQY9Z106,9FF984AD-CD7B-49E5-B56C-9FD45A9FA473,2023-09-26_07h59.36.072,WP_VExplicitOC_HL,2022.2.5,Win32,15.00060002,NA,NA,NA,NA,NA,NA,NA,NA,NA,NA,NA,94.1580756,2.69,0,7,7,7,1,watch a short animation,008.png,NA,NA,NA,NA,NA,NA,NA,NA,NA,NA,NA,NA,NA,NA,NA,NA,NA,NA,NA,NA,NA,NA,NA,NA,NA,NA,NA,NA,NA,NA,NA,NA,NA,NA,NA,NA,NA,NA,NA
SUPAMT95465,34Q075JO13CEQWF1EG0E44BQY9Z106,9FF984AD-CD7B-49E5-B56C-9FD45A9FA473,2023-09-26_07h59.36.072,WP_VExplicitOC_HL,2022.2.5,Win32,15.00060002,NA,NA,NA,NA,NA,NA,NA,NA,NA,NA,NA,94.1580756,1.186,0,8,8,8,1,read a novel,009.png,NA,NA,NA,NA,NA,NA,NA,NA,NA,NA,NA,NA,NA,NA,NA,NA,NA,NA,NA,NA,NA,NA,NA,NA,NA,NA,NA,NA,NA,NA,NA,NA,NA,NA,NA,NA,NA,NA,NA
SUPAMT95465,34Q075JO13CEQWF1EG0E44BQY9Z106,9FF984AD-CD7B-49E5-B56C-9FD45A9FA473,2023-09-26_07h59.36.072,WP_VExplicitOC_HL,2022.2.5,Win32,15.00060002,NA,NA,NA,NA,NA,NA,NA,NA,NA,NA,NA,94.1580756,0.856,0,9,9,9,1,read the news,010.png,NA,NA,NA,NA,NA,NA,NA,NA,NA,NA,NA,NA,NA,NA,NA,NA,NA,NA,NA,NA,NA,NA,NA,NA,NA,NA,NA,NA,NA,NA,NA,NA,NA,NA,NA,NA,NA,NA,NA
SUPAMT95465,34Q075JO13CEQWF1EG0E44BQY9Z106,9FF984AD-CD7B-49E5-B56C-9FD45A9FA473,2023-09-26_07h59.36.072,WP_VExplicitOC_HL,2022.2.5,Win32,15.00060002,NA,NA,NA,NA,NA,NA,NA,NA,NA,NA,NA,NA,NA,NA,NA,NA,NA,NA,NA,NA,NA,NA,NA,NA,NA,NA,NA,NA,NA,NA,NA,NA,NA,NA,NA,NA,NA,NA,NA,NA,NA,NA,NA,NA,NA,NA,NA,NA,NA,NA,NA,NA,NA,NA,NA,NA,NA,NA,NA
SUPAMT95465,34Q075JO13CEQWF1EG0E44BQY9Z106,9FF984AD-CD7B-49E5-B56C-9FD45A9FA473,2023-09-26_07h59.36.072,WP_VExplicitOC_HL,2022.2.5,Win32,15.00060002,NA,NA,NA,NA,NA,NA,NA,NA,NA,NA,NA,NA,NA,NA,NA,NA,NA,NA,NA,NA,stretch,NA,NA,NA,NA,NA,NA,NA,NA,NA,NA,NA,NA,NA,NA,NA,NA,NA,NA,NA,NA,NA,NA,NA,NA,NA,NA,NA,NA,NA,NA,NA,NA,NA,NA,NA,NA,NA,NA
SUPAMT95465,34Q075JO13CEQWF1EG0E44BQY9Z106,9FF984AD-CD7B-49E5-B56C-9FD45A9FA473,2023-09-26_07h59.36.072,WP_VExplicitOC_HL,2022.2.5,Win32,15.00060002,97.59450172,4.985,2.012,NA,NA,NA,NA,NA,frustrated,"frustrated, not frustrated","more frustrated, less frustrated",NA,NA,NA,NA,NA,NA,NA,NA,NA,NA,0,0,0,1,1,NA,NA,NA,NA,NA,NA,NA,NA,NA,NA,NA,NA,NA,NA,NA,NA,NA,NA,NA,NA,NA,NA,NA,NA,NA,NA,NA,NA,NA,NA,NA,NA,NA
SUPAMT95465,34Q075JO13CEQWF1EG0E44BQY9Z106,9FF984AD-CD7B-49E5-B56C-9FD45A9FA473,2023-09-26_07h59.36.072,WP_VExplicitOC_HL,2022.2.5,Win32,15.00060002,97.93814433,3.669,2.105,NA,NA,NA,NA,NA,happy,"unhappy, happy","less happy, more happy",NA,NA,NA,NA,NA,NA,NA,NA,NA,NA,0,1,1,0,1,NA,NA,NA,NA,NA,NA,NA,NA,NA,NA,NA,NA,NA,NA,NA,NA,NA,NA,NA,NA,NA,NA,NA,NA,NA,NA,NA,NA,NA,NA,NA,NA,NA
SUPAMT95465,34Q075JO13CEQWF1EG0E44BQY9Z106,9FF984AD-CD7B-49E5-B56C-9FD45A9FA473,2023-09-26_07h59.36.072,WP_VExplicitOC_HL,2022.2.5,Win32,15.00060002,97.93814433,3.009,2.053,NA,NA,NA,NA,NA,bored,"bored, not bored","more bored, less bored",NA,NA,NA,NA,NA,NA,NA,NA,NA,NA,0,2,2,2,1,NA,NA,NA,NA,NA,NA,NA,NA,NA,NA,NA,NA,NA,NA,NA,NA,NA,NA,NA,NA,NA,NA,NA,NA,NA,NA,NA,NA,NA,NA,NA,NA,NA
SUPAMT95465,34Q075JO13CEQWF1EG0E44BQY9Z106,9FF984AD-CD7B-49E5-B56C-9FD45A9FA473,2023-09-26_07h59.36.072,WP_VExplicitOC_HL,2022.2.5,Win32,15.00060002,NA,NA,NA,NA,NA,NA,NA,NA,NA,NA,NA,NA,NA,NA,NA,NA,NA,NA,NA,NA,NA,NA,NA,NA,NA,NA,NA,NA,NA,NA,NA,NA,NA,NA,NA,NA,NA,NA,NA,NA,NA,NA,NA,NA,NA,NA,NA,NA,NA,NA,NA,NA,NA,NA,NA,NA,NA,NA,NA
SUPAMT95465,34Q075JO13CEQWF1EG0E44BQY9Z106,9FF984AD-CD7B-49E5-B56C-9FD45A9FA473,2023-09-26_07h59.36.072,WP_VExplicitOC_HL,2022.2.5,Win32,15.00060002,NA,NA,NA,NA,NA,NA,NA,NA,NA,NA,NA,NA,NA,NA,NA,NA,NA,NA,NA,NA,NA,NA,NA,NA,NA,NA,NA,NA,NA,NA,NA,NA,NA,NA,NA,NA,NA,NA,NA,NA,NA,NA,NA,NA,NA,NA,NA,NA,NA,NA,NA,NA,NA,NA,NA,NA,NA,NA,NA
SUPAMT95465,34Q075JO13CEQWF1EG0E44BQY9Z106,9FF984AD-CD7B-49E5-B56C-9FD45A9FA473,2023-09-26_07h59.36.072,WP_VExplicitOC_HL,2022.2.5,Win32,15.00060002,98.28178694,4.154,2.073,NA,NA,NA,NA,NA,happy,"unhappy, happy","less happy, more happy",NA,NA,NA,NA,NA,NA,NA,NA,NA,NA,NA,NA,NA,NA,NA,0,0,0,0,1,NA,NA,NA,NA,NA,NA,NA,NA,NA,NA,NA,NA,NA,NA,NA,NA,NA,NA,NA,NA,NA,NA,NA,NA,NA,NA,NA,NA
SUPAMT95465,34Q075JO13CEQWF1EG0E44BQY9Z106,9FF984AD-CD7B-49E5-B56C-9FD45A9FA473,2023-09-26_07h59.36.072,WP_VExplicitOC_HL,2022.2.5,Win32,15.00060002,98.28178694,3.295,2.024,NA,NA,NA,NA,NA,bored,"bored, not bored","more bored, less bored",NA,NA,NA,NA,NA,NA,NA,NA,NA,NA,NA,NA,NA,NA,NA,0,1,1,2,1,NA,NA,NA,NA,NA,NA,NA,NA,NA,NA,NA,NA,NA,NA,NA,NA,NA,NA,NA,NA,NA,NA,NA,NA,NA,NA,NA,NA
SUPAMT95465,34Q075JO13CEQWF1EG0E44BQY9Z106,9FF984AD-CD7B-49E5-B56C-9FD45A9FA473,2023-09-26_07h59.36.072,WP_VExplicitOC_HL,2022.2.5,Win32,15.00060002,98.28178694,3.491,2.011,NA,NA,NA,NA,NA,frustrated,"frustrated, not frustrated","more frustrated, less frustrated",NA,NA,NA,NA,NA,NA,NA,NA,NA,NA,NA,NA,NA,NA,NA,0,2,2,1,1,NA,NA,NA,NA,NA,NA,NA,NA,NA,NA,NA,NA,NA,NA,NA,NA,NA,NA,NA,NA,NA,NA,NA,NA,NA,NA,NA,NA
SUPAMT95465,34Q075JO13CEQWF1EG0E44BQY9Z106,9FF984AD-CD7B-49E5-B56C-9FD45A9FA473,2023-09-26_07h59.36.072,WP_VExplicitOC_HL,2022.2.5,Win32,15.00060002,NA,NA,NA,NA,NA,NA,NA,NA,NA,NA,NA,NA,NA,NA,NA,NA,NA,NA,NA,NA,NA,NA,NA,NA,NA,NA,NA,NA,NA,NA,NA,0,0,0,0,1,NA,NA,NA,NA,NA,NA,NA,NA,NA,NA,NA,NA,NA,NA,NA,NA,NA,NA,NA,NA,NA,NA,NA
SUPAMT95465,34Q075JO13CEQWF1EG0E44BQY9Z106,9FF984AD-CD7B-49E5-B56C-9FD45A9FA473,2023-09-26_07h59.36.072,WP_VExplicitOC_HL,2022.2.5,Win32,15.00060002,99.31271478,3.652,2.025,NA,NA,NA,NA,NA,frustrated,"frustrated, not frustrated","more frustrated, less frustrated",NA,NA,NA,NA,NA,NA,NA,NA,NA,NA,NA,NA,NA,NA,NA,0,0,0,1,1,NA,NA,NA,NA,NA,NA,NA,NA,NA,NA,NA,NA,NA,NA,NA,NA,NA,NA,NA,NA,NA,NA,NA,NA,NA,NA,NA,NA
SUPAMT95465,34Q075JO13CEQWF1EG0E44BQY9Z106,9FF984AD-CD7B-49E5-B56C-9FD45A9FA473,2023-09-26_07h59.36.072,WP_VExplicitOC_HL,2022.2.5,Win32,15.00060002,NA,NA,2.016,NA,NA,NA,NA,NA,bored,"bored, not bored","more bored, less bored",NA,NA,NA,NA,NA,NA,NA,NA,NA,NA,NA,NA,NA,NA,NA,0,1,1,2,1,NA,NA,NA,NA,NA,NA,NA,NA,NA,NA,NA,NA,NA,NA,NA,NA,NA,NA,NA,NA,NA,NA,NA,NA,NA,NA,NA,NA
SUPAMT95465,34Q075JO13CEQWF1EG0E44BQY9Z106,9FF984AD-CD7B-49E5-B56C-9FD45A9FA473,2023-09-26_07h59.36.072,WP_VExplicitOC_HL,2022.2.5,Win32,15.00060002,98.62542955,3.195,2.135,NA,NA,NA,NA,NA,happy,"unhappy, happy","less happy, more happy",NA,NA,NA,NA,NA,NA,NA,NA,NA,NA,NA,NA,NA,NA,NA,0,2,2,0,1,NA,NA,NA,NA,NA,NA,NA,NA,NA,NA,NA,NA,NA,NA,NA,NA,NA,NA,NA,NA,NA,NA,NA,NA,NA,NA,NA,NA
SUPAMT95465,34Q075JO13CEQWF1EG0E44BQY9Z106,9FF984AD-CD7B-49E5-B56C-9FD45A9FA473,2023-09-26_07h59.36.072,WP_VExplicitOC_HL,2022.2.5,Win32,15.00060002,NA,NA,NA,NA,NA,NA,NA,NA,NA,NA,NA,NA,NA,NA,NA,NA,NA,NA,NA,NA,NA,NA,NA,NA,NA,NA,NA,NA,NA,NA,NA,1,0,1,0,1,NA,NA,NA,NA,NA,NA,NA,NA,NA,NA,NA,NA,NA,NA,NA,NA,NA,NA,NA,NA,NA,NA,NA
SUPAMT95465,34Q075JO13CEQWF1EG0E44BQY9Z106,9FF984AD-CD7B-49E5-B56C-9FD45A9FA473,2023-09-26_07h59.36.072,WP_VExplicitOC_HL,2022.2.5,Win32,15.00060002,95.18900344,4.026,2.034,NA,NA,NA,NA,NA,frustrated,"frustrated, not frustrated","more frustrated, less frustrated",NA,NA,NA,NA,NA,NA,NA,NA,NA,NA,NA,NA,NA,NA,NA,0,0,0,1,1,NA,NA,NA,NA,NA,NA,NA,NA,NA,NA,NA,NA,NA,NA,NA,NA,NA,NA,NA,NA,NA,NA,NA,NA,NA,NA,NA,NA
SUPAMT95465,34Q075JO13CEQWF1EG0E44BQY9Z106,9FF984AD-CD7B-49E5-B56C-9FD45A9FA473,2023-09-26_07h59.36.072,WP_VExplicitOC_HL,2022.2.5,Win32,15.00060002,93.47079038,3.071,2.005,NA,NA,NA,NA,NA,bored,"bored, not bored","more bored, less bored",NA,NA,NA,NA,NA,NA,NA,NA,NA,NA,NA,NA,NA,NA,NA,0,1,1,2,1,NA,NA,NA,NA,NA,NA,NA,NA,NA,NA,NA,NA,NA,NA,NA,NA,NA,NA,NA,NA,NA,NA,NA,NA,NA,NA,NA,NA
SUPAMT95465,34Q075JO13CEQWF1EG0E44BQY9Z106,9FF984AD-CD7B-49E5-B56C-9FD45A9FA473,2023-09-26_07h59.36.072,WP_VExplicitOC_HL,2022.2.5,Win32,15.00060002,98.28178694,4.496,2.092,NA,NA,NA,NA,NA,happy,"unhappy, happy","less happy, more happy",NA,NA,NA,NA,NA,NA,NA,NA,NA,NA,NA,NA,NA,NA,NA,0,2,2,0,1,NA,NA,NA,NA,NA,NA,NA,NA,NA,NA,NA,NA,NA,NA,NA,NA,NA,NA,NA,NA,NA,NA,NA,NA,NA,NA,NA,NA
SUPAMT95465,34Q075JO13CEQWF1EG0E44BQY9Z106,9FF984AD-CD7B-49E5-B56C-9FD45A9FA473,2023-09-26_07h59.36.072,WP_VExplicitOC_HL,2022.2.5,Win32,15.00060002,NA,NA,NA,NA,NA,NA,NA,NA,NA,NA,NA,NA,NA,NA,NA,NA,NA,NA,NA,NA,NA,NA,NA,NA,NA,NA,NA,NA,NA,NA,NA,2,0,2,0,1,NA,NA,NA,NA,NA,NA,NA,NA,NA,NA,NA,NA,NA,NA,NA,NA,NA,NA,NA,NA,NA,NA,NA
SUPAMT95465,34Q075JO13CEQWF1EG0E44BQY9Z106,9FF984AD-CD7B-49E5-B56C-9FD45A9FA473,2023-09-26_07h59.36.072,WP_VExplicitOC_HL,2022.2.5,Win32,15.00060002,95.87628866,4.458,2.072,NA,NA,NA,NA,NA,frustrated,"frustrated, not frustrated","more frustrated, less frustrated",NA,NA,NA,NA,NA,NA,NA,NA,NA,NA,NA,NA,NA,NA,NA,0,0,0,1,1,NA,NA,NA,NA,NA,NA,NA,NA,NA,NA,NA,NA,NA,NA,NA,NA,NA,NA,NA,NA,NA,NA,NA,NA,NA,NA,NA,NA
SUPAMT95465,34Q075JO13CEQWF1EG0E44BQY9Z106,9FF984AD-CD7B-49E5-B56C-9FD45A9FA473,2023-09-26_07h59.36.072,WP_VExplicitOC_HL,2022.2.5,Win32,15.00060002,97.25085911,6.512,2.001,NA,NA,NA,NA,NA,happy,"unhappy, happy","less happy, more happy",NA,NA,NA,NA,NA,NA,NA,NA,NA,NA,NA,NA,NA,NA,NA,0,1,1,0,1,NA,NA,NA,NA,NA,NA,NA,NA,NA,NA,NA,NA,NA,NA,NA,NA,NA,NA,NA,NA,NA,NA,NA,NA,NA,NA,NA,NA
SUPAMT95465,34Q075JO13CEQWF1EG0E44BQY9Z106,9FF984AD-CD7B-49E5-B56C-9FD45A9FA473,2023-09-26_07h59.36.072,WP_VExplicitOC_HL,2022.2.5,Win32,15.00060002,97.25085911,3.223,2.083,NA,NA,NA,NA,NA,bored,"bored, not bored","more bored, less bored",NA,NA,NA,NA,NA,NA,NA,NA,NA,NA,NA,NA,NA,NA,NA,0,2,2,2,1,NA,NA,NA,NA,NA,NA,NA,NA,NA,NA,NA,NA,NA,NA,NA,NA,NA,NA,NA,NA,NA,NA,NA,NA,NA,NA,NA,NA
SUPAMT95465,34Q075JO13CEQWF1EG0E44BQY9Z106,9FF984AD-CD7B-49E5-B56C-9FD45A9FA473,2023-09-26_07h59.36.072,WP_VExplicitOC_HL,2022.2.5,Win32,15.00060002,NA,NA,NA,NA,NA,NA,NA,NA,NA,NA,NA,NA,NA,NA,NA,NA,NA,NA,NA,NA,NA,NA,NA,NA,NA,NA,NA,NA,NA,NA,NA,3,0,3,0,1,NA,NA,NA,NA,NA,NA,NA,NA,NA,NA,NA,NA,NA,NA,NA,NA,NA,NA,NA,NA,NA,NA,NA
SUPAMT95465,34Q075JO13CEQWF1EG0E44BQY9Z106,9FF984AD-CD7B-49E5-B56C-9FD45A9FA473,2023-09-26_07h59.36.072,WP_VExplicitOC_HL,2022.2.5,Win32,15.00060002,96.90721649,6.319,2.116,NA,NA,NA,NA,NA,happy,"unhappy, happy","less happy, more happy",NA,NA,NA,NA,NA,NA,NA,NA,NA,NA,NA,NA,NA,NA,NA,0,0,0,0,1,NA,NA,NA,NA,NA,NA,NA,NA,NA,NA,NA,NA,NA,NA,NA,NA,NA,NA,NA,NA,NA,NA,NA,NA,NA,NA,NA,NA
SUPAMT95465,34Q075JO13CEQWF1EG0E44BQY9Z106,9FF984AD-CD7B-49E5-B56C-9FD45A9FA473,2023-09-26_07h59.36.072,WP_VExplicitOC_HL,2022.2.5,Win32,15.00060002,96.56357388,3.184,2.007,NA,NA,NA,NA,NA,bored,"bored, not bored","more bored, less bored",NA,NA,NA,NA,NA,NA,NA,NA,NA,NA,NA,NA,NA,NA,NA,0,1,1,2,1,NA,NA,NA,NA,NA,NA,NA,NA,NA,NA,NA,NA,NA,NA,NA,NA,NA,NA,NA,NA,NA,NA,NA,NA,NA,NA,NA,NA
SUPAMT95465,34Q075JO13CEQWF1EG0E44BQY9Z106,9FF984AD-CD7B-49E5-B56C-9FD45A9FA473,2023-09-26_07h59.36.072,WP_VExplicitOC_HL,2022.2.5,Win32,15.00060002,96.56357388,3.838,2.029,NA,NA,NA,NA,NA,frustrated,"frustrated, not frustrated","more frustrated, less frustrated",NA,NA,NA,NA,NA,NA,NA,NA,NA,NA,NA,NA,NA,NA,NA,0,2,2,1,1,NA,NA,NA,NA,NA,NA,NA,NA,NA,NA,NA,NA,NA,NA,NA,NA,NA,NA,NA,NA,NA,NA,NA,NA,NA,NA,NA,NA
SUPAMT95465,34Q075JO13CEQWF1EG0E44BQY9Z106,9FF984AD-CD7B-49E5-B56C-9FD45A9FA473,2023-09-26_07h59.36.072,WP_VExplicitOC_HL,2022.2.5,Win32,15.00060002,NA,NA,NA,NA,NA,NA,NA,NA,NA,NA,NA,NA,NA,NA,NA,NA,NA,NA,NA,NA,NA,NA,NA,NA,NA,NA,NA,NA,NA,NA,NA,4,0,4,0,1,NA,NA,NA,NA,NA,NA,NA,NA,NA,NA,NA,NA,NA,NA,NA,NA,NA,NA,NA,NA,NA,NA,NA
SUPAMT95465,34Q075JO13CEQWF1EG0E44BQY9Z106,9FF984AD-CD7B-49E5-B56C-9FD45A9FA473,2023-09-26_07h59.36.072,WP_VExplicitOC_HL,2022.2.5,Win32,15.00060002,96.21993127,4.105,2.104,NA,NA,NA,NA,NA,happy,"unhappy, happy","less happy, more happy",NA,NA,NA,NA,NA,NA,NA,NA,NA,NA,NA,NA,NA,NA,NA,0,0,0,0,1,NA,NA,NA,NA,NA,NA,NA,NA,NA,NA,NA,NA,NA,NA,NA,NA,NA,NA,NA,NA,NA,NA,NA,NA,NA,NA,NA,NA
SUPAMT95465,34Q075JO13CEQWF1EG0E44BQY9Z106,9FF984AD-CD7B-49E5-B56C-9FD45A9FA473,2023-09-26_07h59.36.072,WP_VExplicitOC_HL,2022.2.5,Win32,15.00060002,96.21993127,3.296,2.065,NA,NA,NA,NA,NA,frustrated,"frustrated, not frustrated","more frustrated, less frustrated",NA,NA,NA,NA,NA,NA,NA,NA,NA,NA,NA,NA,NA,NA,NA,0,1,1,1,1,NA,NA,NA,NA,NA,NA,NA,NA,NA,NA,NA,NA,NA,NA,NA,NA,NA,NA,NA,NA,NA,NA,NA,NA,NA,NA,NA,NA
SUPAMT95465,34Q075JO13CEQWF1EG0E44BQY9Z106,9FF984AD-CD7B-49E5-B56C-9FD45A9FA473,2023-09-26_07h59.36.072,WP_VExplicitOC_HL,2022.2.5,Win32,15.00060002,96.21993127,3.833,2.067,NA,NA,NA,NA,NA,bored,"bored, not bored","more bored, less bored",NA,NA,NA,NA,NA,NA,NA,NA,NA,NA,NA,NA,NA,NA,NA,0,2,2,2,1,NA,NA,NA,NA,NA,NA,NA,NA,NA,NA,NA,NA,NA,NA,NA,NA,NA,NA,NA,NA,NA,NA,NA,NA,NA,NA,NA,NA
SUPAMT95465,34Q075JO13CEQWF1EG0E44BQY9Z106,9FF984AD-CD7B-49E5-B56C-9FD45A9FA473,2023-09-26_07h59.36.072,WP_VExplicitOC_HL,2022.2.5,Win32,15.00060002,NA,NA,NA,NA,NA,NA,NA,NA,NA,NA,NA,NA,NA,NA,NA,NA,NA,NA,NA,NA,NA,NA,NA,NA,NA,NA,NA,NA,NA,NA,NA,5,0,5,0,1,NA,NA,NA,NA,NA,NA,NA,NA,NA,NA,NA,NA,NA,NA,NA,NA,NA,NA,NA,NA,NA,NA,NA
SUPAMT95465,34Q075JO13CEQWF1EG0E44BQY9Z106,9FF984AD-CD7B-49E5-B56C-9FD45A9FA473,2023-09-26_07h59.36.072,WP_VExplicitOC_HL,2022.2.5,Win32,15.00060002,98.96907216,5.114,2.095,NA,NA,NA,NA,NA,frustrated,"frustrated, not frustrated","more frustrated, less frustrated",NA,NA,NA,NA,NA,NA,NA,NA,NA,NA,NA,NA,NA,NA,NA,0,0,0,1,1,NA,NA,NA,NA,NA,NA,NA,NA,NA,NA,NA,NA,NA,NA,NA,NA,NA,NA,NA,NA,NA,NA,NA,NA,NA,NA,NA,NA
SUPAMT95465,34Q075JO13CEQWF1EG0E44BQY9Z106,9FF984AD-CD7B-49E5-B56C-9FD45A9FA473,2023-09-26_07h59.36.072,WP_VExplicitOC_HL,2022.2.5,Win32,15.00060002,98.96907216,3.813,2.259,NA,NA,NA,NA,NA,bored,"bored, not bored","more bored, less bored",NA,NA,NA,NA,NA,NA,NA,NA,NA,NA,NA,NA,NA,NA,NA,0,1,1,2,1,NA,NA,NA,NA,NA,NA,NA,NA,NA,NA,NA,NA,NA,NA,NA,NA,NA,NA,NA,NA,NA,NA,NA,NA,NA,NA,NA,NA
SUPAMT95465,34Q075JO13CEQWF1EG0E44BQY9Z106,9FF984AD-CD7B-49E5-B56C-9FD45A9FA473,2023-09-26_07h59.36.072,WP_VExplicitOC_HL,2022.2.5,Win32,15.00060002,98.96907216,3.255,2.017,NA,NA,NA,NA,NA,happy,"unhappy, happy","less happy, more happy",NA,NA,NA,NA,NA,NA,NA,NA,NA,NA,NA,NA,NA,NA,NA,0,2,2,0,1,NA,NA,NA,NA,NA,NA,NA,NA,NA,NA,NA,NA,NA,NA,NA,NA,NA,NA,NA,NA,NA,NA,NA,NA,NA,NA,NA,NA
SUPAMT95465,34Q075JO13CEQWF1EG0E44BQY9Z106,9FF984AD-CD7B-49E5-B56C-9FD45A9FA473,2023-09-26_07h59.36.072,WP_VExplicitOC_HL,2022.2.5,Win32,15.00060002,NA,NA,NA,NA,NA,NA,NA,NA,NA,NA,NA,NA,NA,NA,NA,NA,NA,NA,NA,NA,NA,NA,NA,NA,NA,NA,NA,NA,NA,NA,NA,6,0,6,0,1,NA,NA,NA,NA,NA,NA,NA,NA,NA,NA,NA,NA,NA,NA,NA,NA,NA,NA,NA,NA,NA,NA,NA
SUPAMT95465,34Q075JO13CEQWF1EG0E44BQY9Z106,9FF984AD-CD7B-49E5-B56C-9FD45A9FA473,2023-09-26_07h59.36.072,WP_VExplicitOC_HL,2022.2.5,Win32,15.00060002,97.93814433,4.342,2.01,NA,NA,NA,NA,NA,frustrated,"frustrated, not frustrated","more frustrated, less frustrated",NA,NA,NA,NA,NA,NA,NA,NA,NA,NA,NA,NA,NA,NA,NA,0,0,0,1,1,NA,NA,NA,NA,NA,NA,NA,NA,NA,NA,NA,NA,NA,NA,NA,NA,NA,NA,NA,NA,NA,NA,NA,NA,NA,NA,NA,NA
SUPAMT95465,34Q075JO13CEQWF1EG0E44BQY9Z106,9FF984AD-CD7B-49E5-B56C-9FD45A9FA473,2023-09-26_07h59.36.072,WP_VExplicitOC_HL,2022.2.5,Win32,15.00060002,97.25085911,4.594,2.016,NA,NA,NA,NA,NA,happy,"unhappy, happy","less happy, more happy",NA,NA,NA,NA,NA,NA,NA,NA,NA,NA,NA,NA,NA,NA,NA,0,1,1,0,1,NA,NA,NA,NA,NA,NA,NA,NA,NA,NA,NA,NA,NA,NA,NA,NA,NA,NA,NA,NA,NA,NA,NA,NA,NA,NA,NA,NA
SUPAMT95465,34Q075JO13CEQWF1EG0E44BQY9Z106,9FF984AD-CD7B-49E5-B56C-9FD45A9FA473,2023-09-26_07h59.36.072,WP_VExplicitOC_HL,2022.2.5,Win32,15.00060002,97.25085911,3.4,2.067,NA,NA,NA,NA,NA,bored,"bored, not bored","more bored, less bored",NA,NA,NA,NA,NA,NA,NA,NA,NA,NA,NA,NA,NA,NA,NA,0,2,2,2,1,NA,NA,NA,NA,NA,NA,NA,NA,NA,NA,NA,NA,NA,NA,NA,NA,NA,NA,NA,NA,NA,NA,NA,NA,NA,NA,NA,NA
SUPAMT95465,34Q075JO13CEQWF1EG0E44BQY9Z106,9FF984AD-CD7B-49E5-B56C-9FD45A9FA473,2023-09-26_07h59.36.072,WP_VExplicitOC_HL,2022.2.5,Win32,15.00060002,NA,NA,NA,NA,NA,NA,NA,NA,NA,NA,NA,NA,NA,NA,NA,NA,NA,NA,NA,NA,NA,NA,NA,NA,NA,NA,NA,NA,NA,NA,NA,7,0,7,0,1,NA,NA,NA,NA,NA,NA,NA,NA,NA,NA,NA,NA,NA,NA,NA,NA,NA,NA,NA,NA,NA,NA,NA
SUPAMT95465,34Q075JO13CEQWF1EG0E44BQY9Z106,9FF984AD-CD7B-49E5-B56C-9FD45A9FA473,2023-09-26_07h59.36.072,WP_VExplicitOC_HL,2022.2.5,Win32,15.00060002,97.93814433,3.88,2.008,NA,NA,NA,NA,NA,bored,"bored, not bored","more bored, less bored",NA,NA,NA,NA,NA,NA,NA,NA,NA,NA,NA,NA,NA,NA,NA,0,0,0,2,1,NA,NA,NA,NA,NA,NA,NA,NA,NA,NA,NA,NA,NA,NA,NA,NA,NA,NA,NA,NA,NA,NA,NA,NA,NA,NA,NA,NA
SUPAMT95465,34Q075JO13CEQWF1EG0E44BQY9Z106,9FF984AD-CD7B-49E5-B56C-9FD45A9FA473,2023-09-26_07h59.36.072,WP_VExplicitOC_HL,2022.2.5,Win32,15.00060002,97.93814433,3.773,2.112,NA,NA,NA,NA,NA,happy,"unhappy, happy","less happy, more happy",NA,NA,NA,NA,NA,NA,NA,NA,NA,NA,NA,NA,NA,NA,NA,0,1,1,0,1,NA,NA,NA,NA,NA,NA,NA,NA,NA,NA,NA,NA,NA,NA,NA,NA,NA,NA,NA,NA,NA,NA,NA,NA,NA,NA,NA,NA
SUPAMT95465,34Q075JO13CEQWF1EG0E44BQY9Z106,9FF984AD-CD7B-49E5-B56C-9FD45A9FA473,2023-09-26_07h59.36.072,WP_VExplicitOC_HL,2022.2.5,Win32,15.00060002,97.93814433,3.463,2.081,NA,NA,NA,NA,NA,frustrated,"frustrated, not frustrated","more frustrated, less frustrated",NA,NA,NA,NA,NA,NA,NA,NA,NA,NA,NA,NA,NA,NA,NA,0,2,2,1,1,NA,NA,NA,NA,NA,NA,NA,NA,NA,NA,NA,NA,NA,NA,NA,NA,NA,NA,NA,NA,NA,NA,NA,NA,NA,NA,NA,NA
SUPAMT95465,34Q075JO13CEQWF1EG0E44BQY9Z106,9FF984AD-CD7B-49E5-B56C-9FD45A9FA473,2023-09-26_07h59.36.072,WP_VExplicitOC_HL,2022.2.5,Win32,15.00060002,NA,NA,NA,NA,NA,NA,NA,NA,NA,NA,NA,NA,NA,NA,NA,NA,NA,NA,NA,NA,NA,NA,NA,NA,NA,NA,NA,NA,NA,NA,NA,8,0,8,0,1,NA,NA,NA,NA,NA,NA,NA,NA,NA,NA,NA,NA,NA,NA,NA,NA,NA,NA,NA,NA,NA,NA,NA
SUPAMT95465,34Q075JO13CEQWF1EG0E44BQY9Z106,9FF984AD-CD7B-49E5-B56C-9FD45A9FA473,2023-09-26_07h59.36.072,WP_VExplicitOC_HL,2022.2.5,Win32,15.00060002,97.93814433,4.014,2.073,NA,NA,NA,NA,NA,happy,"unhappy, happy","less happy, more happy",NA,NA,NA,NA,NA,NA,NA,NA,NA,NA,NA,NA,NA,NA,NA,0,0,0,0,1,NA,NA,NA,NA,NA,NA,NA,NA,NA,NA,NA,NA,NA,NA,NA,NA,NA,NA,NA,NA,NA,NA,NA,NA,NA,NA,NA,NA
SUPAMT95465,34Q075JO13CEQWF1EG0E44BQY9Z106,9FF984AD-CD7B-49E5-B56C-9FD45A9FA473,2023-09-26_07h59.36.072,WP_VExplicitOC_HL,2022.2.5,Win32,15.00060002,97.93814433,3.003,2.004,NA,NA,NA,NA,NA,bored,"bored, not bored","more bored, less bored",NA,NA,NA,NA,NA,NA,NA,NA,NA,NA,NA,NA,NA,NA,NA,0,1,1,2,1,NA,NA,NA,NA,NA,NA,NA,NA,NA,NA,NA,NA,NA,NA,NA,NA,NA,NA,NA,NA,NA,NA,NA,NA,NA,NA,NA,NA
SUPAMT95465,34Q075JO13CEQWF1EG0E44BQY9Z106,9FF984AD-CD7B-49E5-B56C-9FD45A9FA473,2023-09-26_07h59.36.072,WP_VExplicitOC_HL,2022.2.5,Win32,15.00060002,97.93814433,3.054,2.003,NA,NA,NA,NA,NA,frustrated,"frustrated, not frustrated","more frustrated, less frustrated",NA,NA,NA,NA,NA,NA,NA,NA,NA,NA,NA,NA,NA,NA,NA,0,2,2,1,1,NA,NA,NA,NA,NA,NA,NA,NA,NA,NA,NA,NA,NA,NA,NA,NA,NA,NA,NA,NA,NA,NA,NA,NA,NA,NA,NA,NA
SUPAMT95465,34Q075JO13CEQWF1EG0E44BQY9Z106,9FF984AD-CD7B-49E5-B56C-9FD45A9FA473,2023-09-26_07h59.36.072,WP_VExplicitOC_HL,2022.2.5,Win32,15.00060002,NA,NA,NA,NA,NA,NA,NA,NA,NA,NA,NA,NA,NA,NA,NA,NA,NA,NA,NA,NA,NA,NA,NA,NA,NA,NA,NA,NA,NA,NA,NA,9,0,9,0,1,NA,NA,NA,NA,NA,NA,NA,NA,NA,NA,NA,NA,NA,NA,NA,NA,NA,NA,NA,NA,NA,NA,NA
SUPAMT95465,34Q075JO13CEQWF1EG0E44BQY9Z106,9FF984AD-CD7B-49E5-B56C-9FD45A9FA473,2023-09-26_07h59.36.072,WP_VExplicitOC_HL,2022.2.5,Win32,15.00060002,NA,NA,2.059,NA,NA,NA,NA,NA,happy,"unhappy, happy","less happy, more happy",NA,NA,NA,NA,NA,NA,NA,NA,NA,NA,NA,NA,NA,NA,NA,0,0,0,0,1,NA,NA,NA,NA,NA,NA,NA,NA,NA,NA,NA,NA,NA,NA,NA,NA,NA,NA,NA,NA,NA,NA,NA,NA,NA,NA,NA,NA
SUPAMT95465,34Q075JO13CEQWF1EG0E44BQY9Z106,9FF984AD-CD7B-49E5-B56C-9FD45A9FA473,2023-09-26_07h59.36.072,WP_VExplicitOC_HL,2022.2.5,Win32,15.00060002,98.28178694,3.572,2.043,NA,NA,NA,NA,NA,frustrated,"frustrated, not frustrated","more frustrated, less frustrated",NA,NA,NA,NA,NA,NA,NA,NA,NA,NA,NA,NA,NA,NA,NA,0,1,1,1,1,NA,NA,NA,NA,NA,NA,NA,NA,NA,NA,NA,NA,NA,NA,NA,NA,NA,NA,NA,NA,NA,NA,NA,NA,NA,NA,NA,NA
SUPAMT95465,34Q075JO13CEQWF1EG0E44BQY9Z106,9FF984AD-CD7B-49E5-B56C-9FD45A9FA473,2023-09-26_07h59.36.072,WP_VExplicitOC_HL,2022.2.5,Win32,15.00060002,98.28178694,3.068,2.039,NA,NA,NA,NA,NA,bored,"bored, not bored","more bored, less bored",NA,NA,NA,NA,NA,NA,NA,NA,NA,NA,NA,NA,NA,NA,NA,0,2,2,2,1,NA,NA,NA,NA,NA,NA,NA,NA,NA,NA,NA,NA,NA,NA,NA,NA,NA,NA,NA,NA,NA,NA,NA,NA,NA,NA,NA,NA
SUPAMT95465,34Q075JO13CEQWF1EG0E44BQY9Z106,9FF984AD-CD7B-49E5-B56C-9FD45A9FA473,2023-09-26_07h59.36.072,WP_VExplicitOC_HL,2022.2.5,Win32,15.00060002,NA,NA,NA,NA,NA,NA,NA,NA,NA,NA,NA,NA,NA,NA,NA,NA,NA,NA,NA,NA,NA,NA,NA,NA,NA,NA,NA,NA,NA,NA,NA,10,0,10,0,1,NA,NA,NA,NA,NA,NA,NA,NA,NA,NA,NA,NA,NA,NA,NA,NA,NA,NA,NA,NA,NA,NA,NA
SUPAMT95465,34Q075JO13CEQWF1EG0E44BQY9Z106,9FF984AD-CD7B-49E5-B56C-9FD45A9FA473,2023-09-26_07h59.36.072,WP_VExplicitOC_HL,2022.2.5,Win32,15.00060002,97.25085911,3.955,2.138,NA,NA,NA,NA,NA,happy,"unhappy, happy","less happy, more happy",NA,NA,NA,NA,NA,NA,NA,NA,NA,NA,NA,NA,NA,NA,NA,0,0,0,0,1,NA,NA,NA,NA,NA,NA,NA,NA,NA,NA,NA,NA,NA,NA,NA,NA,NA,NA,NA,NA,NA,NA,NA,NA,NA,NA,NA,NA
SUPAMT95465,34Q075JO13CEQWF1EG0E44BQY9Z106,9FF984AD-CD7B-49E5-B56C-9FD45A9FA473,2023-09-26_07h59.36.072,WP_VExplicitOC_HL,2022.2.5,Win32,15.00060002,97.25085911,3.222,2.056,NA,NA,NA,NA,NA,bored,"bored, not bored","more bored, less bored",NA,NA,NA,NA,NA,NA,NA,NA,NA,NA,NA,NA,NA,NA,NA,0,1,1,2,1,NA,NA,NA,NA,NA,NA,NA,NA,NA,NA,NA,NA,NA,NA,NA,NA,NA,NA,NA,NA,NA,NA,NA,NA,NA,NA,NA,NA
SUPAMT95465,34Q075JO13CEQWF1EG0E44BQY9Z106,9FF984AD-CD7B-49E5-B56C-9FD45A9FA473,2023-09-26_07h59.36.072,WP_VExplicitOC_HL,2022.2.5,Win32,15.00060002,97.25085911,3.229,2.089,NA,NA,NA,NA,NA,frustrated,"frustrated, not frustrated","more frustrated, less frustrated",NA,NA,NA,NA,NA,NA,NA,NA,NA,NA,NA,NA,NA,NA,NA,0,2,2,1,1,NA,NA,NA,NA,NA,NA,NA,NA,NA,NA,NA,NA,NA,NA,NA,NA,NA,NA,NA,NA,NA,NA,NA,NA,NA,NA,NA,NA
SUPAMT95465,34Q075JO13CEQWF1EG0E44BQY9Z106,9FF984AD-CD7B-49E5-B56C-9FD45A9FA473,2023-09-26_07h59.36.072,WP_VExplicitOC_HL,2022.2.5,Win32,15.00060002,NA,NA,NA,NA,NA,NA,NA,NA,NA,NA,NA,NA,NA,NA,NA,NA,NA,NA,NA,NA,NA,NA,NA,NA,NA,NA,NA,NA,NA,NA,NA,11,0,11,0,1,NA,NA,NA,NA,NA,NA,NA,NA,NA,NA,NA,NA,NA,NA,NA,NA,NA,NA,NA,NA,NA,NA,NA
SUPAMT95465,34Q075JO13CEQWF1EG0E44BQY9Z106,9FF984AD-CD7B-49E5-B56C-9FD45A9FA473,2023-09-26_07h59.36.072,WP_VExplicitOC_HL,2022.2.5,Win32,15.00060002,NA,NA,2.097,NA,NA,NA,NA,NA,bored,"bored, not bored","more bored, less bored",NA,NA,NA,NA,NA,NA,NA,NA,NA,NA,NA,NA,NA,NA,NA,0,0,0,2,1,NA,NA,NA,NA,NA,NA,NA,NA,NA,NA,NA,NA,NA,NA,NA,NA,NA,NA,NA,NA,NA,NA,NA,NA,NA,NA,NA,NA
SUPAMT95465,34Q075JO13CEQWF1EG0E44BQY9Z106,9FF984AD-CD7B-49E5-B56C-9FD45A9FA473,2023-09-26_07h59.36.072,WP_VExplicitOC_HL,2022.2.5,Win32,15.00060002,98.28178694,3.931,2.075,NA,NA,NA,NA,NA,frustrated,"frustrated, not frustrated","more frustrated, less frustrated",NA,NA,NA,NA,NA,NA,NA,NA,NA,NA,NA,NA,NA,NA,NA,0,1,1,1,1,NA,NA,NA,NA,NA,NA,NA,NA,NA,NA,NA,NA,NA,NA,NA,NA,NA,NA,NA,NA,NA,NA,NA,NA,NA,NA,NA,NA
SUPAMT95465,34Q075JO13CEQWF1EG0E44BQY9Z106,9FF984AD-CD7B-49E5-B56C-9FD45A9FA473,2023-09-26_07h59.36.072,WP_VExplicitOC_HL,2022.2.5,Win32,15.00060002,98.28178694,3.41,2.027,NA,NA,NA,NA,NA,happy,"unhappy, happy","less happy, more happy",NA,NA,NA,NA,NA,NA,NA,NA,NA,NA,NA,NA,NA,NA,NA,0,2,2,0,1,NA,NA,NA,NA,NA,NA,NA,NA,NA,NA,NA,NA,NA,NA,NA,NA,NA,NA,NA,NA,NA,NA,NA,NA,NA,NA,NA,NA
SUPAMT95465,34Q075JO13CEQWF1EG0E44BQY9Z106,9FF984AD-CD7B-49E5-B56C-9FD45A9FA473,2023-09-26_07h59.36.072,WP_VExplicitOC_HL,2022.2.5,Win32,15.00060002,NA,NA,NA,NA,NA,NA,NA,NA,NA,NA,NA,NA,NA,NA,NA,NA,NA,NA,NA,NA,NA,NA,NA,NA,NA,NA,NA,NA,NA,NA,NA,12,0,12,0,1,NA,NA,NA,NA,NA,NA,NA,NA,NA,NA,NA,NA,NA,NA,NA,NA,NA,NA,NA,NA,NA,NA,NA
SUPAMT95465,34Q075JO13CEQWF1EG0E44BQY9Z106,9FF984AD-CD7B-49E5-B56C-9FD45A9FA473,2023-09-26_07h59.36.072,WP_VExplicitOC_HL,2022.2.5,Win32,15.00060002,NA,NA,2.147,NA,NA,NA,NA,NA,happy,"unhappy, happy","less happy, more happy",NA,NA,NA,NA,NA,NA,NA,NA,NA,NA,NA,NA,NA,NA,NA,0,0,0,0,1,NA,NA,NA,NA,NA,NA,NA,NA,NA,NA,NA,NA,NA,NA,NA,NA,NA,NA,NA,NA,NA,NA,NA,NA,NA,NA,NA,NA
SUPAMT95465,34Q075JO13CEQWF1EG0E44BQY9Z106,9FF984AD-CD7B-49E5-B56C-9FD45A9FA473,2023-09-26_07h59.36.072,WP_VExplicitOC_HL,2022.2.5,Win32,15.00060002,NA,NA,2.03,NA,NA,NA,NA,NA,frustrated,"frustrated, not frustrated","more frustrated, less frustrated",NA,NA,NA,NA,NA,NA,NA,NA,NA,NA,NA,NA,NA,NA,NA,0,1,1,1,1,NA,NA,NA,NA,NA,NA,NA,NA,NA,NA,NA,NA,NA,NA,NA,NA,NA,NA,NA,NA,NA,NA,NA,NA,NA,NA,NA,NA
SUPAMT95465,34Q075JO13CEQWF1EG0E44BQY9Z106,9FF984AD-CD7B-49E5-B56C-9FD45A9FA473,2023-09-26_07h59.36.072,WP_VExplicitOC_HL,2022.2.5,Win32,15.00060002,NA,NA,2.065,NA,NA,NA,NA,NA,bored,"bored, not bored","more bored, less bored",NA,NA,NA,NA,NA,NA,NA,NA,NA,NA,NA,NA,NA,NA,NA,0,2,2,2,1,NA,NA,NA,NA,NA,NA,NA,NA,NA,NA,NA,NA,NA,NA,NA,NA,NA,NA,NA,NA,NA,NA,NA,NA,NA,NA,NA,NA
SUPAMT95465,34Q075JO13CEQWF1EG0E44BQY9Z106,9FF984AD-CD7B-49E5-B56C-9FD45A9FA473,2023-09-26_07h59.36.072,WP_VExplicitOC_HL,2022.2.5,Win32,15.00060002,NA,NA,NA,NA,NA,NA,NA,NA,NA,NA,NA,NA,NA,NA,NA,NA,NA,NA,NA,NA,NA,NA,NA,NA,NA,NA,NA,NA,NA,NA,NA,13,0,13,0,1,NA,NA,NA,NA,NA,NA,NA,NA,NA,NA,NA,NA,NA,NA,NA,NA,NA,NA,NA,NA,NA,NA,NA
SUPAMT95465,34Q075JO13CEQWF1EG0E44BQY9Z106,9FF984AD-CD7B-49E5-B56C-9FD45A9FA473,2023-09-26_07h59.36.072,WP_VExplicitOC_HL,2022.2.5,Win32,15.00060002,96.21993127,3.736,2.038,NA,NA,NA,NA,NA,happy,"unhappy, happy","less happy, more happy",NA,NA,NA,NA,NA,NA,NA,NA,NA,NA,NA,NA,NA,NA,NA,0,0,0,0,1,NA,NA,NA,NA,NA,NA,NA,NA,NA,NA,NA,NA,NA,NA,NA,NA,NA,NA,NA,NA,NA,NA,NA,NA,NA,NA,NA,NA
SUPAMT95465,34Q075JO13CEQWF1EG0E44BQY9Z106,9FF984AD-CD7B-49E5-B56C-9FD45A9FA473,2023-09-26_07h59.36.072,WP_VExplicitOC_HL,2022.2.5,Win32,15.00060002,NA,NA,2.081,NA,NA,NA,NA,NA,frustrated,"frustrated, not frustrated","more frustrated, less frustrated",NA,NA,NA,NA,NA,NA,NA,NA,NA,NA,NA,NA,NA,NA,NA,0,1,1,1,1,NA,NA,NA,NA,NA,NA,NA,NA,NA,NA,NA,NA,NA,NA,NA,NA,NA,NA,NA,NA,NA,NA,NA,NA,NA,NA,NA,NA
SUPAMT95465,34Q075JO13CEQWF1EG0E44BQY9Z106,9FF984AD-CD7B-49E5-B56C-9FD45A9FA473,2023-09-26_07h59.36.072,WP_VExplicitOC_HL,2022.2.5,Win32,15.00060002,NA,NA,2.046,NA,NA,NA,NA,NA,bored,"bored, not bored","more bored, less bored",NA,NA,NA,NA,NA,NA,NA,NA,NA,NA,NA,NA,NA,NA,NA,0,2,2,2,1,NA,NA,NA,NA,NA,NA,NA,NA,NA,NA,NA,NA,NA,NA,NA,NA,NA,NA,NA,NA,NA,NA,NA,NA,NA,NA,NA,NA
SUPAMT95465,34Q075JO13CEQWF1EG0E44BQY9Z106,9FF984AD-CD7B-49E5-B56C-9FD45A9FA473,2023-09-26_07h59.36.072,WP_VExplicitOC_HL,2022.2.5,Win32,15.00060002,NA,NA,NA,NA,NA,NA,NA,NA,NA,NA,NA,NA,NA,NA,NA,NA,NA,NA,NA,NA,NA,NA,NA,NA,NA,NA,NA,NA,NA,NA,NA,14,0,14,0,1,NA,NA,NA,NA,NA,NA,NA,NA,NA,NA,NA,NA,NA,NA,NA,NA,NA,NA,NA,NA,NA,NA,NA
SUPAMT95465,34Q075JO13CEQWF1EG0E44BQY9Z106,9FF984AD-CD7B-49E5-B56C-9FD45A9FA473,2023-09-26_07h59.36.072,WP_VExplicitOC_HL,2022.2.5,Win32,15.00060002,NA,NA,NA,NA,NA,NA,NA,NA,NA,NA,NA,NA,NA,NA,NA,NA,NA,NA,NA,NA,NA,NA,NA,NA,NA,NA,NA,NA,NA,NA,NA,NA,NA,NA,NA,NA,NA,NA,NA,NA,NA,NA,NA,NA,NA,NA,NA,NA,NA,NA,NA,NA,NA,NA,NA,NA,NA,NA,NA
SUPAMT95465,34Q075JO13CEQWF1EG0E44BQY9Z106,9FF984AD-CD7B-49E5-B56C-9FD45A9FA473,2023-09-26_07h59.36.072,WP_VExplicitOC_HL,2022.2.5,Win32,15.00060002,NA,NA,NA,NA,NA,NA,NA,NA,NA,NA,NA,NA,NA,NA,NA,NA,NA,NA,NA,NA,NA,NA,NA,NA,NA,NA,NA,NA,NA,NA,NA,NA,NA,NA,NA,NA,NA,NA,NA,NA,NA,NA,NA,NA,NA,NA,NA,NA,NA,NA,NA,NA,NA,NA,NA,NA,NA,NA,NA
SUPAMT95465,34Q075JO13CEQWF1EG0E44BQY9Z106,9FF984AD-CD7B-49E5-B56C-9FD45A9FA473,2023-09-26_07h59.36.072,WP_VExplicitOC_HL,2022.2.5,Win32,15.00060002,NA,NA,NA,NA,NA,NA,NA,NA,NA,NA,NA,NA,NA,NA,NA,NA,NA,NA,rest (looking at a fixed cross),001.png,NA,NA,NA,NA,NA,NA,NA,NA,NA,NA,NA,NA,NA,NA,NA,NA,NA,NA,0,0,0,0,1,NA,NA,NA,NA,NA,NA,NA,NA,NA,NA,NA,NA,NA,NA,NA,NA
SUPAMT95465,34Q075JO13CEQWF1EG0E44BQY9Z106,9FF984AD-CD7B-49E5-B56C-9FD45A9FA473,2023-09-26_07h59.36.072,WP_VExplicitOC_HL,2022.2.5,Win32,15.00060002,NA,NA,NA,NA,NA,NA,NA,NA,NA,NA,NA,NA,NA,NA,NA,NA,NA,NA,stand up,002.png,NA,NA,NA,NA,NA,NA,NA,NA,NA,NA,NA,NA,NA,NA,NA,NA,NA,NA,0,1,1,1,1,NA,NA,NA,NA,NA,NA,NA,NA,NA,NA,NA,NA,NA,NA,NA,NA
SUPAMT95465,34Q075JO13CEQWF1EG0E44BQY9Z106,9FF984AD-CD7B-49E5-B56C-9FD45A9FA473,2023-09-26_07h59.36.072,WP_VExplicitOC_HL,2022.2.5,Win32,15.00060002,NA,NA,NA,NA,NA,NA,NA,NA,NA,NA,NA,NA,NA,NA,NA,NA,NA,NA,stretch,003.png,NA,NA,NA,NA,NA,NA,NA,NA,NA,NA,NA,NA,NA,NA,NA,NA,NA,NA,0,2,2,2,1,NA,NA,NA,NA,NA,NA,NA,NA,NA,NA,NA,NA,NA,NA,NA,NA
SUPAMT95465,34Q075JO13CEQWF1EG0E44BQY9Z106,9FF984AD-CD7B-49E5-B56C-9FD45A9FA473,2023-09-26_07h59.36.072,WP_VExplicitOC_HL,2022.2.5,Win32,15.00060002,NA,NA,NA,NA,NA,NA,NA,NA,NA,NA,NA,NA,NA,NA,NA,NA,NA,NA,make a drink,004.png,NA,NA,NA,NA,NA,NA,NA,NA,NA,NA,NA,NA,NA,NA,NA,NA,NA,NA,0,3,3,3,1,NA,NA,NA,NA,NA,NA,NA,NA,NA,NA,NA,NA,NA,NA,NA,NA
SUPAMT95465,34Q075JO13CEQWF1EG0E44BQY9Z106,9FF984AD-CD7B-49E5-B56C-9FD45A9FA473,2023-09-26_07h59.36.072,WP_VExplicitOC_HL,2022.2.5,Win32,15.00060002,NA,NA,NA,NA,NA,NA,NA,NA,NA,NA,NA,NA,NA,NA,NA,NA,NA,NA,scroll social media,005.png,NA,NA,NA,NA,NA,NA,NA,NA,NA,NA,NA,NA,NA,NA,NA,NA,NA,NA,0,4,4,4,1,NA,NA,NA,NA,NA,NA,NA,NA,NA,NA,NA,NA,NA,NA,NA,NA
SUPAMT95465,34Q075JO13CEQWF1EG0E44BQY9Z106,9FF984AD-CD7B-49E5-B56C-9FD45A9FA473,2023-09-26_07h59.36.072,WP_VExplicitOC_HL,2022.2.5,Win32,15.00060002,NA,NA,NA,NA,NA,NA,NA,NA,NA,NA,NA,NA,NA,NA,NA,NA,NA,NA,listen to music,006.png,NA,NA,NA,NA,NA,NA,NA,NA,NA,NA,NA,NA,NA,NA,NA,NA,NA,NA,0,5,5,5,1,NA,NA,NA,NA,NA,NA,NA,NA,NA,NA,NA,NA,NA,NA,NA,NA
SUPAMT95465,34Q075JO13CEQWF1EG0E44BQY9Z106,9FF984AD-CD7B-49E5-B56C-9FD45A9FA473,2023-09-26_07h59.36.072,WP_VExplicitOC_HL,2022.2.5,Win32,15.00060002,NA,NA,NA,NA,NA,NA,NA,NA,NA,NA,NA,NA,NA,NA,NA,NA,NA,NA,daydream,007.png,NA,NA,NA,NA,NA,NA,NA,NA,NA,NA,NA,NA,NA,NA,NA,NA,NA,NA,0,6,6,6,1,NA,NA,NA,NA,NA,NA,NA,NA,NA,NA,NA,NA,NA,NA,NA,NA
SUPAMT95465,34Q075JO13CEQWF1EG0E44BQY9Z106,9FF984AD-CD7B-49E5-B56C-9FD45A9FA473,2023-09-26_07h59.36.072,WP_VExplicitOC_HL,2022.2.5,Win32,15.00060002,NA,NA,NA,NA,NA,NA,NA,NA,NA,NA,NA,NA,NA,NA,NA,NA,NA,NA,watch a short animation,008.png,NA,NA,NA,NA,NA,NA,NA,NA,NA,NA,NA,NA,NA,NA,NA,NA,NA,NA,0,7,7,7,1,NA,NA,NA,NA,NA,NA,NA,NA,NA,NA,NA,NA,NA,NA,NA,NA
SUPAMT95465,34Q075JO13CEQWF1EG0E44BQY9Z106,9FF984AD-CD7B-49E5-B56C-9FD45A9FA473,2023-09-26_07h59.36.072,WP_VExplicitOC_HL,2022.2.5,Win32,15.00060002,NA,NA,NA,NA,NA,NA,NA,NA,NA,NA,NA,NA,NA,NA,NA,NA,NA,NA,read a novel,009.png,NA,NA,NA,NA,NA,NA,NA,NA,NA,NA,NA,NA,NA,NA,NA,NA,NA,NA,0,8,8,8,1,NA,NA,NA,NA,NA,NA,NA,NA,NA,NA,NA,NA,NA,NA,NA,NA
SUPAMT95465,34Q075JO13CEQWF1EG0E44BQY9Z106,9FF984AD-CD7B-49E5-B56C-9FD45A9FA473,2023-09-26_07h59.36.072,WP_VExplicitOC_HL,2022.2.5,Win32,15.00060002,NA,NA,NA,NA,NA,NA,NA,NA,NA,NA,NA,NA,NA,NA,NA,NA,NA,NA,read the news,010.png,NA,NA,NA,NA,NA,NA,NA,NA,NA,NA,NA,NA,NA,NA,NA,NA,NA,NA,0,9,9,9,1,NA,NA,NA,NA,NA,NA,NA,NA,NA,NA,NA,NA,NA,NA,NA,NA
SUPAMT95465,34Q075JO13CEQWF1EG0E44BQY9Z106,9FF984AD-CD7B-49E5-B56C-9FD45A9FA473,2023-09-26_07h59.36.072,WP_VExplicitOC_HL,2022.2.5,Win32,15.00060002,NA,NA,NA,NA,NA,NA,NA,NA,NA,NA,NA,NA,NA,NA,NA,NA,NA,NA,NA,NA,NA,NA,NA,NA,NA,NA,NA,NA,NA,NA,NA,NA,NA,NA,NA,NA,NA,NA,NA,NA,NA,NA,NA,visuomotor task,NA,NA,NA,NA,NA,NA,NA,NA,NA,NA,NA,NA,NA,NA,NA
SUPAMT95465,34Q075JO13CEQWF1EG0E44BQY9Z106,9FF984AD-CD7B-49E5-B56C-9FD45A9FA473,2023-09-26_07h59.36.072,WP_VExplicitOC_HL,2022.2.5,Win32,15.00060002,NA,NA,2.011,NA,NA,NA,NA,NA,bored,"bored, not bored","more bored, less bored",NA,NA,NA,NA,NA,NA,NA,NA,NA,NA,NA,NA,NA,NA,NA,NA,NA,NA,NA,NA,NA,NA,NA,NA,NA,NA,NA,NA,NA,NA,NA,NA,NA,0,0,0,2,1,NA,NA,NA,NA,NA,NA,NA,NA,NA,NA
SUPAMT95465,34Q075JO13CEQWF1EG0E44BQY9Z106,9FF984AD-CD7B-49E5-B56C-9FD45A9FA473,2023-09-26_07h59.36.072,WP_VExplicitOC_HL,2022.2.5,Win32,15.00060002,NA,NA,2.006,NA,NA,NA,NA,NA,frustrated,"frustrated, not frustrated","more frustrated, less frustrated",NA,NA,NA,NA,NA,NA,NA,NA,NA,NA,NA,NA,NA,NA,NA,NA,NA,NA,NA,NA,NA,NA,NA,NA,NA,NA,NA,NA,NA,NA,NA,NA,NA,0,1,1,1,1,NA,NA,NA,NA,NA,NA,NA,NA,NA,NA
SUPAMT95465,34Q075JO13CEQWF1EG0E44BQY9Z106,9FF984AD-CD7B-49E5-B56C-9FD45A9FA473,2023-09-26_07h59.36.072,WP_VExplicitOC_HL,2022.2.5,Win32,15.00060002,NA,NA,2.069,NA,NA,NA,NA,NA,happy,"unhappy, happy","less happy, more happy",NA,NA,NA,NA,NA,NA,NA,NA,NA,NA,NA,NA,NA,NA,NA,NA,NA,NA,NA,NA,NA,NA,NA,NA,NA,NA,NA,NA,NA,NA,NA,NA,NA,0,2,2,0,1,NA,NA,NA,NA,NA,NA,NA,NA,NA,NA
SUPAMT95465,34Q075JO13CEQWF1EG0E44BQY9Z106,9FF984AD-CD7B-49E5-B56C-9FD45A9FA473,2023-09-26_07h59.36.072,WP_VExplicitOC_HL,2022.2.5,Win32,15.00060002,NA,NA,NA,NA,NA,NA,NA,NA,NA,NA,NA,NA,NA,NA,NA,NA,NA,NA,NA,NA,NA,NA,NA,NA,NA,NA,NA,NA,NA,NA,NA,NA,NA,NA,NA,NA,NA,NA,NA,NA,NA,NA,NA,NA,NA,NA,NA,NA,NA,NA,NA,NA,NA,NA,NA,NA,NA,NA,NA
SUPAMT95465,34Q075JO13CEQWF1EG0E44BQY9Z106,9FF984AD-CD7B-49E5-B56C-9FD45A9FA473,2023-09-26_07h59.36.072,WP_VExplicitOC_HL,2022.2.5,Win32,15.00060002,NA,NA,NA,NA,NA,NA,NA,NA,NA,NA,NA,NA,NA,NA,NA,NA,NA,NA,NA,NA,NA,NA,NA,NA,NA,NA,NA,NA,NA,NA,NA,NA,NA,NA,NA,NA,NA,NA,NA,NA,NA,NA,NA,NA,NA,NA,NA,NA,NA,NA,NA,NA,NA,NA,NA,NA,NA,NA,NA
SUPAMT95465,34Q075JO13CEQWF1EG0E44BQY9Z106,9FF984AD-CD7B-49E5-B56C-9FD45A9FA473,2023-09-26_07h59.36.072,WP_VExplicitOC_HL,2022.2.5,Win32,15.00060002,NA,NA,2.046,NA,NA,NA,NA,NA,frustrated,"frustrated, not frustrated","more frustrated, less frustrated",NA,NA,NA,NA,NA,NA,NA,NA,NA,NA,NA,NA,NA,NA,NA,NA,NA,NA,NA,NA,NA,NA,NA,NA,NA,NA,NA,NA,NA,NA,NA,NA,NA,NA,NA,NA,NA,NA,0,0,0,1,1,NA,NA,NA,NA,NA
SUPAMT95465,34Q075JO13CEQWF1EG0E44BQY9Z106,9FF984AD-CD7B-49E5-B56C-9FD45A9FA473,2023-09-26_07h59.36.072,WP_VExplicitOC_HL,2022.2.5,Win32,15.00060002,NA,NA,2.03,NA,NA,NA,NA,NA,happy,"unhappy, happy","less happy, more happy",NA,NA,NA,NA,NA,NA,NA,NA,NA,NA,NA,NA,NA,NA,NA,NA,NA,NA,NA,NA,NA,NA,NA,NA,NA,NA,NA,NA,NA,NA,NA,NA,NA,NA,NA,NA,NA,NA,0,1,1,0,1,NA,NA,NA,NA,NA
SUPAMT95465,34Q075JO13CEQWF1EG0E44BQY9Z106,9FF984AD-CD7B-49E5-B56C-9FD45A9FA473,2023-09-26_07h59.36.072,WP_VExplicitOC_HL,2022.2.5,Win32,15.00060002,NA,NA,2.102,NA,NA,NA,NA,NA,bored,"bored, not bored","more bored, less bored",NA,NA,NA,NA,NA,NA,NA,NA,NA,NA,NA,NA,NA,NA,NA,NA,NA,NA,NA,NA,NA,NA,NA,NA,NA,NA,NA,NA,NA,NA,NA,NA,NA,NA,NA,NA,NA,NA,0,2,2,2,1,NA,NA,NA,NA,NA
SUPAMT95465,34Q075JO13CEQWF1EG0E44BQY9Z106,9FF984AD-CD7B-49E5-B56C-9FD45A9FA473,2023-09-26_07h59.36.072,WP_VExplicitOC_HL,2022.2.5,Win32,15.00060002,NA,NA,NA,NA,NA,NA,NA,NA,NA,NA,NA,NA,NA,NA,NA,NA,NA,NA,NA,NA,NA,NA,NA,NA,NA,NA,NA,NA,NA,NA,NA,NA,NA,NA,NA,NA,NA,NA,NA,NA,NA,NA,NA,NA,NA,NA,NA,NA,NA,NA,NA,NA,NA,NA,0,0,0,0,1
SUPAMT95465,34Q075JO13CEQWF1EG0E44BQY9Z106,9FF984AD-CD7B-49E5-B56C-9FD45A9FA473,2023-09-26_07h59.36.072,WP_VExplicitOC_HL,2022.2.5,Win32,15.00060002,NA,NA,2.187,NA,NA,NA,NA,NA,happy,"unhappy, happy","less happy, more happy",NA,NA,NA,NA,NA,NA,NA,NA,NA,NA,NA,NA,NA,NA,NA,NA,NA,NA,NA,NA,NA,NA,NA,NA,NA,NA,NA,NA,NA,NA,NA,NA,NA,NA,NA,NA,NA,NA,0,0,0,0,1,NA,NA,NA,NA,NA
SUPAMT95465,34Q075JO13CEQWF1EG0E44BQY9Z106,9FF984AD-CD7B-49E5-B56C-9FD45A9FA473,2023-09-26_07h59.36.072,WP_VExplicitOC_HL,2022.2.5,Win32,15.00060002,NA,NA,2.019,NA,NA,NA,NA,NA,frustrated,"frustrated, not frustrated","more frustrated, less frustrated",NA,NA,NA,NA,NA,NA,NA,NA,NA,NA,NA,NA,NA,NA,NA,NA,NA,NA,NA,NA,NA,NA,NA,NA,NA,NA,NA,NA,NA,NA,NA,NA,NA,NA,NA,NA,NA,NA,0,1,1,1,1,NA,NA,NA,NA,NA
SUPAMT95465,34Q075JO13CEQWF1EG0E44BQY9Z106,9FF984AD-CD7B-49E5-B56C-9FD45A9FA473,2023-09-26_07h59.36.072,WP_VExplicitOC_HL,2022.2.5,Win32,15.00060002,NA,NA,2.164,NA,NA,NA,NA,NA,bored,"bored, not bored","more bored, less bored",NA,NA,NA,NA,NA,NA,NA,NA,NA,NA,NA,NA,NA,NA,NA,NA,NA,NA,NA,NA,NA,NA,NA,NA,NA,NA,NA,NA,NA,NA,NA,NA,NA,NA,NA,NA,NA,NA,0,2,2,2,1,NA,NA,NA,NA,NA
SUPAMT95465,34Q075JO13CEQWF1EG0E44BQY9Z106,9FF984AD-CD7B-49E5-B56C-9FD45A9FA473,2023-09-26_07h59.36.072,WP_VExplicitOC_HL,2022.2.5,Win32,15.00060002,NA,NA,NA,NA,NA,NA,NA,NA,NA,NA,NA,NA,NA,NA,NA,NA,NA,NA,NA,NA,NA,NA,NA,NA,NA,NA,NA,NA,NA,NA,NA,NA,NA,NA,NA,NA,NA,NA,NA,NA,NA,NA,NA,NA,NA,NA,NA,NA,NA,NA,NA,NA,NA,NA,1,0,1,0,1
SUPAMT95465,34Q075JO13CEQWF1EG0E44BQY9Z106,9FF984AD-CD7B-49E5-B56C-9FD45A9FA473,2023-09-26_07h59.36.072,WP_VExplicitOC_HL,2022.2.5,Win32,15.00060002,NA,NA,2.117,NA,NA,NA,NA,NA,happy,"unhappy, happy","less happy, more happy",NA,NA,NA,NA,NA,NA,NA,NA,NA,NA,NA,NA,NA,NA,NA,NA,NA,NA,NA,NA,NA,NA,NA,NA,NA,NA,NA,NA,NA,NA,NA,NA,NA,NA,NA,NA,NA,NA,0,0,0,0,1,NA,NA,NA,NA,NA
SUPAMT95465,34Q075JO13CEQWF1EG0E44BQY9Z106,9FF984AD-CD7B-49E5-B56C-9FD45A9FA473,2023-09-26_07h59.36.072,WP_VExplicitOC_HL,2022.2.5,Win32,15.00060002,NA,NA,2.028,NA,NA,NA,NA,NA,bored,"bored, not bored","more bored, less bored",NA,NA,NA,NA,NA,NA,NA,NA,NA,NA,NA,NA,NA,NA,NA,NA,NA,NA,NA,NA,NA,NA,NA,NA,NA,NA,NA,NA,NA,NA,NA,NA,NA,NA,NA,NA,NA,NA,0,1,1,2,1,NA,NA,NA,NA,NA
SUPAMT95465,34Q075JO13CEQWF1EG0E44BQY9Z106,9FF984AD-CD7B-49E5-B56C-9FD45A9FA473,2023-09-26_07h59.36.072,WP_VExplicitOC_HL,2022.2.5,Win32,15.00060002,NA,NA,2.115,NA,NA,NA,NA,NA,frustrated,"frustrated, not frustrated","more frustrated, less frustrated",NA,NA,NA,NA,NA,NA,NA,NA,NA,NA,NA,NA,NA,NA,NA,NA,NA,NA,NA,NA,NA,NA,NA,NA,NA,NA,NA,NA,NA,NA,NA,NA,NA,NA,NA,NA,NA,NA,0,2,2,1,1,NA,NA,NA,NA,NA
SUPAMT95465,34Q075JO13CEQWF1EG0E44BQY9Z106,9FF984AD-CD7B-49E5-B56C-9FD45A9FA473,2023-09-26_07h59.36.072,WP_VExplicitOC_HL,2022.2.5,Win32,15.00060002,NA,NA,NA,NA,NA,NA,NA,NA,NA,NA,NA,NA,NA,NA,NA,NA,NA,NA,NA,NA,NA,NA,NA,NA,NA,NA,NA,NA,NA,NA,NA,NA,NA,NA,NA,NA,NA,NA,NA,NA,NA,NA,NA,NA,NA,NA,NA,NA,NA,NA,NA,NA,NA,NA,2,0,2,0,1
SUPAMT95465,34Q075JO13CEQWF1EG0E44BQY9Z106,9FF984AD-CD7B-49E5-B56C-9FD45A9FA473,2023-09-26_07h59.36.072,WP_VExplicitOC_HL,2022.2.5,Win32,15.00060002,93.81443299,5.816,2.026,NA,NA,NA,NA,NA,happy,"unhappy, happy","less happy, more happy",NA,NA,NA,NA,NA,NA,NA,NA,NA,NA,NA,NA,NA,NA,NA,NA,NA,NA,NA,NA,NA,NA,NA,NA,NA,NA,NA,NA,NA,NA,NA,NA,NA,NA,NA,NA,NA,NA,0,0,0,0,1,NA,NA,NA,NA,NA
SUPAMT95465,34Q075JO13CEQWF1EG0E44BQY9Z106,9FF984AD-CD7B-49E5-B56C-9FD45A9FA473,2023-09-26_07h59.36.072,WP_VExplicitOC_HL,2022.2.5,Win32,15.00060002,97.93814433,3.557,2.047,NA,NA,NA,NA,NA,frustrated,"frustrated, not frustrated","more frustrated, less frustrated",NA,NA,NA,NA,NA,NA,NA,NA,NA,NA,NA,NA,NA,NA,NA,NA,NA,NA,NA,NA,NA,NA,NA,NA,NA,NA,NA,NA,NA,NA,NA,NA,NA,NA,NA,NA,NA,NA,0,1,1,1,1,NA,NA,NA,NA,NA
SUPAMT95465,34Q075JO13CEQWF1EG0E44BQY9Z106,9FF984AD-CD7B-49E5-B56C-9FD45A9FA473,2023-09-26_07h59.36.072,WP_VExplicitOC_HL,2022.2.5,Win32,15.00060002,98.28178694,5.015,2.042,NA,NA,NA,NA,NA,bored,"bored, not bored","more bored, less bored",NA,NA,NA,NA,NA,NA,NA,NA,NA,NA,NA,NA,NA,NA,NA,NA,NA,NA,NA,NA,NA,NA,NA,NA,NA,NA,NA,NA,NA,NA,NA,NA,NA,NA,NA,NA,NA,NA,0,2,2,2,1,NA,NA,NA,NA,NA
SUPAMT95465,34Q075JO13CEQWF1EG0E44BQY9Z106,9FF984AD-CD7B-49E5-B56C-9FD45A9FA473,2023-09-26_07h59.36.072,WP_VExplicitOC_HL,2022.2.5,Win32,15.00060002,NA,NA,NA,NA,NA,NA,NA,NA,NA,NA,NA,NA,NA,NA,NA,NA,NA,NA,NA,NA,NA,NA,NA,NA,NA,NA,NA,NA,NA,NA,NA,NA,NA,NA,NA,NA,NA,NA,NA,NA,NA,NA,NA,NA,NA,NA,NA,NA,NA,NA,NA,NA,NA,NA,3,0,3,0,1
SUPAMT95465,34Q075JO13CEQWF1EG0E44BQY9Z106,9FF984AD-CD7B-49E5-B56C-9FD45A9FA473,2023-09-26_07h59.36.072,WP_VExplicitOC_HL,2022.2.5,Win32,15.00060002,97.93814433,3.829,2.006,NA,NA,NA,NA,NA,frustrated,"frustrated, not frustrated","more frustrated, less frustrated",NA,NA,NA,NA,NA,NA,NA,NA,NA,NA,NA,NA,NA,NA,NA,NA,NA,NA,NA,NA,NA,NA,NA,NA,NA,NA,NA,NA,NA,NA,NA,NA,NA,NA,NA,NA,NA,NA,0,0,0,1,1,NA,NA,NA,NA,NA
SUPAMT95465,34Q075JO13CEQWF1EG0E44BQY9Z106,9FF984AD-CD7B-49E5-B56C-9FD45A9FA473,2023-09-26_07h59.36.072,WP_VExplicitOC_HL,2022.2.5,Win32,15.00060002,97.93814433,3.298,2.072,NA,NA,NA,NA,NA,bored,"bored, not bored","more bored, less bored",NA,NA,NA,NA,NA,NA,NA,NA,NA,NA,NA,NA,NA,NA,NA,NA,NA,NA,NA,NA,NA,NA,NA,NA,NA,NA,NA,NA,NA,NA,NA,NA,NA,NA,NA,NA,NA,NA,0,1,1,2,1,NA,NA,NA,NA,NA
SUPAMT95465,34Q075JO13CEQWF1EG0E44BQY9Z106,9FF984AD-CD7B-49E5-B56C-9FD45A9FA473,2023-09-26_07h59.36.072,WP_VExplicitOC_HL,2022.2.5,Win32,15.00060002,97.93814433,3.25,2.044,NA,NA,NA,NA,NA,happy,"unhappy, happy","less happy, more happy",NA,NA,NA,NA,NA,NA,NA,NA,NA,NA,NA,NA,NA,NA,NA,NA,NA,NA,NA,NA,NA,NA,NA,NA,NA,NA,NA,NA,NA,NA,NA,NA,NA,NA,NA,NA,NA,NA,0,2,2,0,1,NA,NA,NA,NA,NA
SUPAMT95465,34Q075JO13CEQWF1EG0E44BQY9Z106,9FF984AD-CD7B-49E5-B56C-9FD45A9FA473,2023-09-26_07h59.36.072,WP_VExplicitOC_HL,2022.2.5,Win32,15.00060002,NA,NA,NA,NA,NA,NA,NA,NA,NA,NA,NA,NA,NA,NA,NA,NA,NA,NA,NA,NA,NA,NA,NA,NA,NA,NA,NA,NA,NA,NA,NA,NA,NA,NA,NA,NA,NA,NA,NA,NA,NA,NA,NA,NA,NA,NA,NA,NA,NA,NA,NA,NA,NA,NA,4,0,4,0,1
SUPAMT95465,34Q075JO13CEQWF1EG0E44BQY9Z106,9FF984AD-CD7B-49E5-B56C-9FD45A9FA473,2023-09-26_07h59.36.072,WP_VExplicitOC_HL,2022.2.5,Win32,15.00060002,97.93814433,4.184,2.12,NA,NA,NA,NA,NA,frustrated,"frustrated, not frustrated","more frustrated, less frustrated",NA,NA,NA,NA,NA,NA,NA,NA,NA,NA,NA,NA,NA,NA,NA,NA,NA,NA,NA,NA,NA,NA,NA,NA,NA,NA,NA,NA,NA,NA,NA,NA,NA,NA,NA,NA,NA,NA,0,0,0,1,1,NA,NA,NA,NA,NA
SUPAMT95465,34Q075JO13CEQWF1EG0E44BQY9Z106,9FF984AD-CD7B-49E5-B56C-9FD45A9FA473,2023-09-26_07h59.36.072,WP_VExplicitOC_HL,2022.2.5,Win32,15.00060002,97.93814433,3.465,2.069,NA,NA,NA,NA,NA,happy,"unhappy, happy","less happy, more happy",NA,NA,NA,NA,NA,NA,NA,NA,NA,NA,NA,NA,NA,NA,NA,NA,NA,NA,NA,NA,NA,NA,NA,NA,NA,NA,NA,NA,NA,NA,NA,NA,NA,NA,NA,NA,NA,NA,0,1,1,0,1,NA,NA,NA,NA,NA
SUPAMT95465,34Q075JO13CEQWF1EG0E44BQY9Z106,9FF984AD-CD7B-49E5-B56C-9FD45A9FA473,2023-09-26_07h59.36.072,WP_VExplicitOC_HL,2022.2.5,Win32,15.00060002,97.93814433,3.103,2.031,NA,NA,NA,NA,NA,bored,"bored, not bored","more bored, less bored",NA,NA,NA,NA,NA,NA,NA,NA,NA,NA,NA,NA,NA,NA,NA,NA,NA,NA,NA,NA,NA,NA,NA,NA,NA,NA,NA,NA,NA,NA,NA,NA,NA,NA,NA,NA,NA,NA,0,2,2,2,1,NA,NA,NA,NA,NA
SUPAMT95465,34Q075JO13CEQWF1EG0E44BQY9Z106,9FF984AD-CD7B-49E5-B56C-9FD45A9FA473,2023-09-26_07h59.36.072,WP_VExplicitOC_HL,2022.2.5,Win32,15.00060002,NA,NA,NA,NA,NA,NA,NA,NA,NA,NA,NA,NA,NA,NA,NA,NA,NA,NA,NA,NA,NA,NA,NA,NA,NA,NA,NA,NA,NA,NA,NA,NA,NA,NA,NA,NA,NA,NA,NA,NA,NA,NA,NA,NA,NA,NA,NA,NA,NA,NA,NA,NA,NA,NA,5,0,5,0,1
SUPAMT95465,34Q075JO13CEQWF1EG0E44BQY9Z106,9FF984AD-CD7B-49E5-B56C-9FD45A9FA473,2023-09-26_07h59.36.072,WP_VExplicitOC_HL,2022.2.5,Win32,15.00060002,94.50171821,5.36,2.019,NA,NA,NA,NA,NA,happy,"unhappy, happy","less happy, more happy",NA,NA,NA,NA,NA,NA,NA,NA,NA,NA,NA,NA,NA,NA,NA,NA,NA,NA,NA,NA,NA,NA,NA,NA,NA,NA,NA,NA,NA,NA,NA,NA,NA,NA,NA,NA,NA,NA,0,0,0,0,1,NA,NA,NA,NA,NA
SUPAMT95465,34Q075JO13CEQWF1EG0E44BQY9Z106,9FF984AD-CD7B-49E5-B56C-9FD45A9FA473,2023-09-26_07h59.36.072,WP_VExplicitOC_HL,2022.2.5,Win32,15.00060002,96.90721649,3.551,2.037,NA,NA,NA,NA,NA,frustrated,"frustrated, not frustrated","more frustrated, less frustrated",NA,NA,NA,NA,NA,NA,NA,NA,NA,NA,NA,NA,NA,NA,NA,NA,NA,NA,NA,NA,NA,NA,NA,NA,NA,NA,NA,NA,NA,NA,NA,NA,NA,NA,NA,NA,NA,NA,0,1,1,1,1,NA,NA,NA,NA,NA
SUPAMT95465,34Q075JO13CEQWF1EG0E44BQY9Z106,9FF984AD-CD7B-49E5-B56C-9FD45A9FA473,2023-09-26_07h59.36.072,WP_VExplicitOC_HL,2022.2.5,Win32,15.00060002,96.90721649,3.326,2.015,NA,NA,NA,NA,NA,bored,"bored, not bored","more bored, less bored",NA,NA,NA,NA,NA,NA,NA,NA,NA,NA,NA,NA,NA,NA,NA,NA,NA,NA,NA,NA,NA,NA,NA,NA,NA,NA,NA,NA,NA,NA,NA,NA,NA,NA,NA,NA,NA,NA,0,2,2,2,1,NA,NA,NA,NA,NA
SUPAMT95465,34Q075JO13CEQWF1EG0E44BQY9Z106,9FF984AD-CD7B-49E5-B56C-9FD45A9FA473,2023-09-26_07h59.36.072,WP_VExplicitOC_HL,2022.2.5,Win32,15.00060002,NA,NA,NA,NA,NA,NA,NA,NA,NA,NA,NA,NA,NA,NA,NA,NA,NA,NA,NA,NA,NA,NA,NA,NA,NA,NA,NA,NA,NA,NA,NA,NA,NA,NA,NA,NA,NA,NA,NA,NA,NA,NA,NA,NA,NA,NA,NA,NA,NA,NA,NA,NA,NA,NA,6,0,6,0,1
SUPAMT95465,34Q075JO13CEQWF1EG0E44BQY9Z106,9FF984AD-CD7B-49E5-B56C-9FD45A9FA473,2023-09-26_07h59.36.072,WP_VExplicitOC_HL,2022.2.5,Win32,15.00060002,98.28178694,5.142,2.005,NA,NA,NA,NA,NA,bored,"bored, not bored","more bored, less bored",NA,NA,NA,NA,NA,NA,NA,NA,NA,NA,NA,NA,NA,NA,NA,NA,NA,NA,NA,NA,NA,NA,NA,NA,NA,NA,NA,NA,NA,NA,NA,NA,NA,NA,NA,NA,NA,NA,0,0,0,2,1,NA,NA,NA,NA,NA
SUPAMT95465,34Q075JO13CEQWF1EG0E44BQY9Z106,9FF984AD-CD7B-49E5-B56C-9FD45A9FA473,2023-09-26_07h59.36.072,WP_VExplicitOC_HL,2022.2.5,Win32,15.00060002,98.28178694,2.933,2.118,NA,NA,NA,NA,NA,happy,"unhappy, happy","less happy, more happy",NA,NA,NA,NA,NA,NA,NA,NA,NA,NA,NA,NA,NA,NA,NA,NA,NA,NA,NA,NA,NA,NA,NA,NA,NA,NA,NA,NA,NA,NA,NA,NA,NA,NA,NA,NA,NA,NA,0,1,1,0,1,NA,NA,NA,NA,NA
SUPAMT95465,34Q075JO13CEQWF1EG0E44BQY9Z106,9FF984AD-CD7B-49E5-B56C-9FD45A9FA473,2023-09-26_07h59.36.072,WP_VExplicitOC_HL,2022.2.5,Win32,15.00060002,98.28178694,3.139,2.041,NA,NA,NA,NA,NA,frustrated,"frustrated, not frustrated","more frustrated, less frustrated",NA,NA,NA,NA,NA,NA,NA,NA,NA,NA,NA,NA,NA,NA,NA,NA,NA,NA,NA,NA,NA,NA,NA,NA,NA,NA,NA,NA,NA,NA,NA,NA,NA,NA,NA,NA,NA,NA,0,2,2,1,1,NA,NA,NA,NA,NA
SUPAMT95465,34Q075JO13CEQWF1EG0E44BQY9Z106,9FF984AD-CD7B-49E5-B56C-9FD45A9FA473,2023-09-26_07h59.36.072,WP_VExplicitOC_HL,2022.2.5,Win32,15.00060002,NA,NA,NA,NA,NA,NA,NA,NA,NA,NA,NA,NA,NA,NA,NA,NA,NA,NA,NA,NA,NA,NA,NA,NA,NA,NA,NA,NA,NA,NA,NA,NA,NA,NA,NA,NA,NA,NA,NA,NA,NA,NA,NA,NA,NA,NA,NA,NA,NA,NA,NA,NA,NA,NA,7,0,7,0,1
SUPAMT95465,34Q075JO13CEQWF1EG0E44BQY9Z106,9FF984AD-CD7B-49E5-B56C-9FD45A9FA473,2023-09-26_07h59.36.072,WP_VExplicitOC_HL,2022.2.5,Win32,15.00060002,98.28178694,3.079,2.046,NA,NA,NA,NA,NA,bored,"bored, not bored","more bored, less bored",NA,NA,NA,NA,NA,NA,NA,NA,NA,NA,NA,NA,NA,NA,NA,NA,NA,NA,NA,NA,NA,NA,NA,NA,NA,NA,NA,NA,NA,NA,NA,NA,NA,NA,NA,NA,NA,NA,0,0,0,2,1,NA,NA,NA,NA,NA
SUPAMT95465,34Q075JO13CEQWF1EG0E44BQY9Z106,9FF984AD-CD7B-49E5-B56C-9FD45A9FA473,2023-09-26_07h59.36.072,WP_VExplicitOC_HL,2022.2.5,Win32,15.00060002,98.28178694,3.332,2.059,NA,NA,NA,NA,NA,frustrated,"frustrated, not frustrated","more frustrated, less frustrated",NA,NA,NA,NA,NA,NA,NA,NA,NA,NA,NA,NA,NA,NA,NA,NA,NA,NA,NA,NA,NA,NA,NA,NA,NA,NA,NA,NA,NA,NA,NA,NA,NA,NA,NA,NA,NA,NA,0,1,1,1,1,NA,NA,NA,NA,NA
SUPAMT95465,34Q075JO13CEQWF1EG0E44BQY9Z106,9FF984AD-CD7B-49E5-B56C-9FD45A9FA473,2023-09-26_07h59.36.072,WP_VExplicitOC_HL,2022.2.5,Win32,15.00060002,98.28178694,3.23,2.018,NA,NA,NA,NA,NA,happy,"unhappy, happy","less happy, more happy",NA,NA,NA,NA,NA,NA,NA,NA,NA,NA,NA,NA,NA,NA,NA,NA,NA,NA,NA,NA,NA,NA,NA,NA,NA,NA,NA,NA,NA,NA,NA,NA,NA,NA,NA,NA,NA,NA,0,2,2,0,1,NA,NA,NA,NA,NA
SUPAMT95465,34Q075JO13CEQWF1EG0E44BQY9Z106,9FF984AD-CD7B-49E5-B56C-9FD45A9FA473,2023-09-26_07h59.36.072,WP_VExplicitOC_HL,2022.2.5,Win32,15.00060002,NA,NA,NA,NA,NA,NA,NA,NA,NA,NA,NA,NA,NA,NA,NA,NA,NA,NA,NA,NA,NA,NA,NA,NA,NA,NA,NA,NA,NA,NA,NA,NA,NA,NA,NA,NA,NA,NA,NA,NA,NA,NA,NA,NA,NA,NA,NA,NA,NA,NA,NA,NA,NA,NA,8,0,8,0,1
SUPAMT95465,34Q075JO13CEQWF1EG0E44BQY9Z106,9FF984AD-CD7B-49E5-B56C-9FD45A9FA473,2023-09-26_07h59.36.072,WP_VExplicitOC_HL,2022.2.5,Win32,15.00060002,97.59450172,3.97,2.099,NA,NA,NA,NA,NA,frustrated,"frustrated, not frustrated","more frustrated, less frustrated",NA,NA,NA,NA,NA,NA,NA,NA,NA,NA,NA,NA,NA,NA,NA,NA,NA,NA,NA,NA,NA,NA,NA,NA,NA,NA,NA,NA,NA,NA,NA,NA,NA,NA,NA,NA,NA,NA,0,0,0,1,1,NA,NA,NA,NA,NA
SUPAMT95465,34Q075JO13CEQWF1EG0E44BQY9Z106,9FF984AD-CD7B-49E5-B56C-9FD45A9FA473,2023-09-26_07h59.36.072,WP_VExplicitOC_HL,2022.2.5,Win32,15.00060002,97.59450172,3.799,2.018,NA,NA,NA,NA,NA,bored,"bored, not bored","more bored, less bored",NA,NA,NA,NA,NA,NA,NA,NA,NA,NA,NA,NA,NA,NA,NA,NA,NA,NA,NA,NA,NA,NA,NA,NA,NA,NA,NA,NA,NA,NA,NA,NA,NA,NA,NA,NA,NA,NA,0,1,1,2,1,NA,NA,NA,NA,NA
SUPAMT95465,34Q075JO13CEQWF1EG0E44BQY9Z106,9FF984AD-CD7B-49E5-B56C-9FD45A9FA473,2023-09-26_07h59.36.072,WP_VExplicitOC_HL,2022.2.5,Win32,15.00060002,97.59450172,3.135,2.055,NA,NA,NA,NA,NA,happy,"unhappy, happy","less happy, more happy",NA,NA,NA,NA,NA,NA,NA,NA,NA,NA,NA,NA,NA,NA,NA,NA,NA,NA,NA,NA,NA,NA,NA,NA,NA,NA,NA,NA,NA,NA,NA,NA,NA,NA,NA,NA,NA,NA,0,2,2,0,1,NA,NA,NA,NA,NA
SUPAMT95465,34Q075JO13CEQWF1EG0E44BQY9Z106,9FF984AD-CD7B-49E5-B56C-9FD45A9FA473,2023-09-26_07h59.36.072,WP_VExplicitOC_HL,2022.2.5,Win32,15.00060002,NA,NA,NA,NA,NA,NA,NA,NA,NA,NA,NA,NA,NA,NA,NA,NA,NA,NA,NA,NA,NA,NA,NA,NA,NA,NA,NA,NA,NA,NA,NA,NA,NA,NA,NA,NA,NA,NA,NA,NA,NA,NA,NA,NA,NA,NA,NA,NA,NA,NA,NA,NA,NA,NA,9,0,9,0,1
SUPAMT95465,34Q075JO13CEQWF1EG0E44BQY9Z106,9FF984AD-CD7B-49E5-B56C-9FD45A9FA473,2023-09-26_07h59.36.072,WP_VExplicitOC_HL,2022.2.5,Win32,15.00060002,96.56357388,3.846,2.129,NA,NA,NA,NA,NA,bored,"bored, not bored","more bored, less bored",NA,NA,NA,NA,NA,NA,NA,NA,NA,NA,NA,NA,NA,NA,NA,NA,NA,NA,NA,NA,NA,NA,NA,NA,NA,NA,NA,NA,NA,NA,NA,NA,NA,NA,NA,NA,NA,NA,0,0,0,2,1,NA,NA,NA,NA,NA
SUPAMT95465,34Q075JO13CEQWF1EG0E44BQY9Z106,9FF984AD-CD7B-49E5-B56C-9FD45A9FA473,2023-09-26_07h59.36.072,WP_VExplicitOC_HL,2022.2.5,Win32,15.00060002,96.56357388,3.233,2.09,NA,NA,NA,NA,NA,happy,"unhappy, happy","less happy, more happy",NA,NA,NA,NA,NA,NA,NA,NA,NA,NA,NA,NA,NA,NA,NA,NA,NA,NA,NA,NA,NA,NA,NA,NA,NA,NA,NA,NA,NA,NA,NA,NA,NA,NA,NA,NA,NA,NA,0,1,1,0,1,NA,NA,NA,NA,NA
SUPAMT95465,34Q075JO13CEQWF1EG0E44BQY9Z106,9FF984AD-CD7B-49E5-B56C-9FD45A9FA473,2023-09-26_07h59.36.072,WP_VExplicitOC_HL,2022.2.5,Win32,15.00060002,96.56357388,3.08,2.019,NA,NA,NA,NA,NA,frustrated,"frustrated, not frustrated","more frustrated, less frustrated",NA,NA,NA,NA,NA,NA,NA,NA,NA,NA,NA,NA,NA,NA,NA,NA,NA,NA,NA,NA,NA,NA,NA,NA,NA,NA,NA,NA,NA,NA,NA,NA,NA,NA,NA,NA,NA,NA,0,2,2,1,1,NA,NA,NA,NA,NA
SUPAMT95465,34Q075JO13CEQWF1EG0E44BQY9Z106,9FF984AD-CD7B-49E5-B56C-9FD45A9FA473,2023-09-26_07h59.36.072,WP_VExplicitOC_HL,2022.2.5,Win32,15.00060002,NA,NA,NA,NA,NA,NA,NA,NA,NA,NA,NA,NA,NA,NA,NA,NA,NA,NA,NA,NA,NA,NA,NA,NA,NA,NA,NA,NA,NA,NA,NA,NA,NA,NA,NA,NA,NA,NA,NA,NA,NA,NA,NA,NA,NA,NA,NA,NA,NA,NA,NA,NA,NA,NA,10,0,10,0,1
SUPAMT95465,34Q075JO13CEQWF1EG0E44BQY9Z106,9FF984AD-CD7B-49E5-B56C-9FD45A9FA473,2023-09-26_07h59.36.072,WP_VExplicitOC_HL,2022.2.5,Win32,15.00060002,97.59450172,4.394,2.049,NA,NA,NA,NA,NA,frustrated,"frustrated, not frustrated","more frustrated, less frustrated",NA,NA,NA,NA,NA,NA,NA,NA,NA,NA,NA,NA,NA,NA,NA,NA,NA,NA,NA,NA,NA,NA,NA,NA,NA,NA,NA,NA,NA,NA,NA,NA,NA,NA,NA,NA,NA,NA,0,0,0,1,1,NA,NA,NA,NA,NA
SUPAMT95465,34Q075JO13CEQWF1EG0E44BQY9Z106,9FF984AD-CD7B-49E5-B56C-9FD45A9FA473,2023-09-26_07h59.36.072,WP_VExplicitOC_HL,2022.2.5,Win32,15.00060002,97.59450172,3.811,2.059,NA,NA,NA,NA,NA,bored,"bored, not bored","more bored, less bored",NA,NA,NA,NA,NA,NA,NA,NA,NA,NA,NA,NA,NA,NA,NA,NA,NA,NA,NA,NA,NA,NA,NA,NA,NA,NA,NA,NA,NA,NA,NA,NA,NA,NA,NA,NA,NA,NA,0,1,1,2,1,NA,NA,NA,NA,NA
SUPAMT95465,34Q075JO13CEQWF1EG0E44BQY9Z106,9FF984AD-CD7B-49E5-B56C-9FD45A9FA473,2023-09-26_07h59.36.072,WP_VExplicitOC_HL,2022.2.5,Win32,15.00060002,97.59450172,4.517,2.031,NA,NA,NA,NA,NA,happy,"unhappy, happy","less happy, more happy",NA,NA,NA,NA,NA,NA,NA,NA,NA,NA,NA,NA,NA,NA,NA,NA,NA,NA,NA,NA,NA,NA,NA,NA,NA,NA,NA,NA,NA,NA,NA,NA,NA,NA,NA,NA,NA,NA,0,2,2,0,1,NA,NA,NA,NA,NA
SUPAMT95465,34Q075JO13CEQWF1EG0E44BQY9Z106,9FF984AD-CD7B-49E5-B56C-9FD45A9FA473,2023-09-26_07h59.36.072,WP_VExplicitOC_HL,2022.2.5,Win32,15.00060002,NA,NA,NA,NA,NA,NA,NA,NA,NA,NA,NA,NA,NA,NA,NA,NA,NA,NA,NA,NA,NA,NA,NA,NA,NA,NA,NA,NA,NA,NA,NA,NA,NA,NA,NA,NA,NA,NA,NA,NA,NA,NA,NA,NA,NA,NA,NA,NA,NA,NA,NA,NA,NA,NA,11,0,11,0,1
SUPAMT95465,34Q075JO13CEQWF1EG0E44BQY9Z106,9FF984AD-CD7B-49E5-B56C-9FD45A9FA473,2023-09-26_07h59.36.072,WP_VExplicitOC_HL,2022.2.5,Win32,15.00060002,95.53264605,3.505,2.01,NA,NA,NA,NA,NA,happy,"unhappy, happy","less happy, more happy",NA,NA,NA,NA,NA,NA,NA,NA,NA,NA,NA,NA,NA,NA,NA,NA,NA,NA,NA,NA,NA,NA,NA,NA,NA,NA,NA,NA,NA,NA,NA,NA,NA,NA,NA,NA,NA,NA,0,0,0,0,1,NA,NA,NA,NA,NA
SUPAMT95465,34Q075JO13CEQWF1EG0E44BQY9Z106,9FF984AD-CD7B-49E5-B56C-9FD45A9FA473,2023-09-26_07h59.36.072,WP_VExplicitOC_HL,2022.2.5,Win32,15.00060002,95.53264605,3.137,2.061,NA,NA,NA,NA,NA,frustrated,"frustrated, not frustrated","more frustrated, less frustrated",NA,NA,NA,NA,NA,NA,NA,NA,NA,NA,NA,NA,NA,NA,NA,NA,NA,NA,NA,NA,NA,NA,NA,NA,NA,NA,NA,NA,NA,NA,NA,NA,NA,NA,NA,NA,NA,NA,0,1,1,1,1,NA,NA,NA,NA,NA
SUPAMT95465,34Q075JO13CEQWF1EG0E44BQY9Z106,9FF984AD-CD7B-49E5-B56C-9FD45A9FA473,2023-09-26_07h59.36.072,WP_VExplicitOC_HL,2022.2.5,Win32,15.00060002,95.53264605,3.169,2.006,NA,NA,NA,NA,NA,bored,"bored, not bored","more bored, less bored",NA,NA,NA,NA,NA,NA,NA,NA,NA,NA,NA,NA,NA,NA,NA,NA,NA,NA,NA,NA,NA,NA,NA,NA,NA,NA,NA,NA,NA,NA,NA,NA,NA,NA,NA,NA,NA,NA,0,2,2,2,1,NA,NA,NA,NA,NA
SUPAMT95465,34Q075JO13CEQWF1EG0E44BQY9Z106,9FF984AD-CD7B-49E5-B56C-9FD45A9FA473,2023-09-26_07h59.36.072,WP_VExplicitOC_HL,2022.2.5,Win32,15.00060002,NA,NA,NA,NA,NA,NA,NA,NA,NA,NA,NA,NA,NA,NA,NA,NA,NA,NA,NA,NA,NA,NA,NA,NA,NA,NA,NA,NA,NA,NA,NA,NA,NA,NA,NA,NA,NA,NA,NA,NA,NA,NA,NA,NA,NA,NA,NA,NA,NA,NA,NA,NA,NA,NA,12,0,12,0,1
SUPAMT95465,34Q075JO13CEQWF1EG0E44BQY9Z106,9FF984AD-CD7B-49E5-B56C-9FD45A9FA473,2023-09-26_07h59.36.072,WP_VExplicitOC_HL,2022.2.5,Win32,15.00060002,92.43986254,2.903,2.015,NA,NA,NA,NA,NA,bored,"bored, not bored","more bored, less bored",NA,NA,NA,NA,NA,NA,NA,NA,NA,NA,NA,NA,NA,NA,NA,NA,NA,NA,NA,NA,NA,NA,NA,NA,NA,NA,NA,NA,NA,NA,NA,NA,NA,NA,NA,NA,NA,NA,0,0,0,2,1,NA,NA,NA,NA,NA
SUPAMT95465,34Q075JO13CEQWF1EG0E44BQY9Z106,9FF984AD-CD7B-49E5-B56C-9FD45A9FA473,2023-09-26_07h59.36.072,WP_VExplicitOC_HL,2022.2.5,Win32,15.00060002,92.43986254,3.081,2.048,NA,NA,NA,NA,NA,frustrated,"frustrated, not frustrated","more frustrated, less frustrated",NA,NA,NA,NA,NA,NA,NA,NA,NA,NA,NA,NA,NA,NA,NA,NA,NA,NA,NA,NA,NA,NA,NA,NA,NA,NA,NA,NA,NA,NA,NA,NA,NA,NA,NA,NA,NA,NA,0,1,1,1,1,NA,NA,NA,NA,NA
SUPAMT95465,34Q075JO13CEQWF1EG0E44BQY9Z106,9FF984AD-CD7B-49E5-B56C-9FD45A9FA473,2023-09-26_07h59.36.072,WP_VExplicitOC_HL,2022.2.5,Win32,15.00060002,92.43986254,2.923,2.012,NA,NA,NA,NA,NA,happy,"unhappy, happy","less happy, more happy",NA,NA,NA,NA,NA,NA,NA,NA,NA,NA,NA,NA,NA,NA,NA,NA,NA,NA,NA,NA,NA,NA,NA,NA,NA,NA,NA,NA,NA,NA,NA,NA,NA,NA,NA,NA,NA,NA,0,2,2,0,1,NA,NA,NA,NA,NA
SUPAMT95465,34Q075JO13CEQWF1EG0E44BQY9Z106,9FF984AD-CD7B-49E5-B56C-9FD45A9FA473,2023-09-26_07h59.36.072,WP_VExplicitOC_HL,2022.2.5,Win32,15.00060002,NA,NA,NA,NA,NA,NA,NA,NA,NA,NA,NA,NA,NA,NA,NA,NA,NA,NA,NA,NA,NA,NA,NA,NA,NA,NA,NA,NA,NA,NA,NA,NA,NA,NA,NA,NA,NA,NA,NA,NA,NA,NA,NA,NA,NA,NA,NA,NA,NA,NA,NA,NA,NA,NA,13,0,13,0,1
SUPAMT95465,34Q075JO13CEQWF1EG0E44BQY9Z106,9FF984AD-CD7B-49E5-B56C-9FD45A9FA473,2023-09-26_07h59.36.072,WP_VExplicitOC_HL,2022.2.5,Win32,15.00060002,92.43986254,3.831,2.113,NA,NA,NA,NA,NA,happy,"unhappy, happy","less happy, more happy",NA,NA,NA,NA,NA,NA,NA,NA,NA,NA,NA,NA,NA,NA,NA,NA,NA,NA,NA,NA,NA,NA,NA,NA,NA,NA,NA,NA,NA,NA,NA,NA,NA,NA,NA,NA,NA,NA,0,0,0,0,1,NA,NA,NA,NA,NA
SUPAMT95465,34Q075JO13CEQWF1EG0E44BQY9Z106,9FF984AD-CD7B-49E5-B56C-9FD45A9FA473,2023-09-26_07h59.36.072,WP_VExplicitOC_HL,2022.2.5,Win32,15.00060002,92.43986254,3.179,2.044,NA,NA,NA,NA,NA,bored,"bored, not bored","more bored, less bored",NA,NA,NA,NA,NA,NA,NA,NA,NA,NA,NA,NA,NA,NA,NA,NA,NA,NA,NA,NA,NA,NA,NA,NA,NA,NA,NA,NA,NA,NA,NA,NA,NA,NA,NA,NA,NA,NA,0,1,1,2,1,NA,NA,NA,NA,NA
SUPAMT95465,34Q075JO13CEQWF1EG0E44BQY9Z106,9FF984AD-CD7B-49E5-B56C-9FD45A9FA473,2023-09-26_07h59.36.072,WP_VExplicitOC_HL,2022.2.5,Win32,15.00060002,92.43986254,3.341,2.036,NA,NA,NA,NA,NA,frustrated,"frustrated, not frustrated","more frustrated, less frustrated",NA,NA,NA,NA,NA,NA,NA,NA,NA,NA,NA,NA,NA,NA,NA,NA,NA,NA,NA,NA,NA,NA,NA,NA,NA,NA,NA,NA,NA,NA,NA,NA,NA,NA,NA,NA,NA,NA,0,2,2,1,1,NA,NA,NA,NA,NA
SUPAMT95465,34Q075JO13CEQWF1EG0E44BQY9Z106,9FF984AD-CD7B-49E5-B56C-9FD45A9FA473,2023-09-26_07h59.36.072,WP_VExplicitOC_HL,2022.2.5,Win32,15.00060002,NA,NA,NA,NA,NA,NA,NA,NA,NA,NA,NA,NA,NA,NA,NA,NA,NA,NA,NA,NA,NA,NA,NA,NA,NA,NA,NA,NA,NA,NA,NA,NA,NA,NA,NA,NA,NA,NA,NA,NA,NA,NA,NA,NA,NA,NA,NA,NA,NA,NA,NA,NA,NA,NA,14,0,14,0,1
SUPAMT95465,34Q075JO13CEQWF1EG0E44BQY9Z106,9FF984AD-CD7B-49E5-B56C-9FD45A9FA473,2023-09-26_07h59.36.072,WP_VExplicitOC_HL,2022.2.5,Win32,15.00060002,NA,NA,NA,NA,NA,NA,NA,NA,NA,NA,NA,NA,NA,NA,NA,NA,NA,NA,NA,NA,NA,NA,NA,NA,NA,NA,NA,NA,NA,NA,NA,NA,NA,NA,NA,NA,NA,NA,NA,NA,NA,NA,NA,NA,NA,NA,NA,NA,NA,NA,NA,NA,NA,NA,NA,NA,NA,NA,NA
