participant,session,completion,date,expName,psychopyVersion,OS,frameRate,rating_all.response,rating_all.rt,rating_all.tStart,rndRat1.thisRepN,rndRat1.thisTrialN,rndRat1.thisN,rndRat1.thisIndex,rndRat1.ran,Emo,Labs,Labs2,rating_alt.response,rating_alt.rt,AltC.thisRepN,AltC.thisTrialN,AltC.thisN,AltC.thisIndex,AltC.ran,alt_choices,pic_choices,TopAlt_Choice,rndRat2.thisRepN,rndRat2.thisTrialN,rndRat2.thisN,rndRat2.thisIndex,rndRat2.ran,rndRat3.thisRepN,rndRat3.thisTrialN,rndRat3.thisN,rndRat3.thisIndex,rndRat3.ran,trials_FC_H.thisRepN,trials_FC_H.thisTrialN,trials_FC_H.thisN,trials_FC_H.thisIndex,trials_FC_H.ran,rating_alt_2.response,rating_alt_2.rt,AltC2.thisRepN,AltC2.thisTrialN,AltC2.thisN,AltC2.thisIndex,AltC2.ran,BottomAlt_Choice,rndRat4.thisRepN,rndRat4.thisTrialN,rndRat4.thisN,rndRat4.thisIndex,rndRat4.ran,rndRat5.thisRepN,rndRat5.thisTrialN,rndRat5.thisN,rndRat5.thisIndex,rndRat5.ran,trials_FC_L.thisRepN,trials_FC_L.thisTrialN,trials_FC_L.thisN,trials_FC_L.thisIndex,trials_FC_L.ran
SUPAMT89542,3I33IC7ZWL1HGUVFPMXLYTX80AV2A4,E633E90A-B0B7-418D-BE82-73E738B725DB,2023-09-27_12h38.07.523,WP_VExplicitOC_HL,2022.2.5,Win32,16.11291934,NA,NA,NA,NA,NA,NA,NA,NA,NA,NA,NA,NA,NA,NA,NA,NA,NA,NA,NA,NA,NA,NA,NA,NA,NA,NA,NA,NA,NA,NA,NA,NA,NA,NA,NA,NA,NA,NA,NA,NA,NA,NA,NA,NA,NA,NA,NA,NA,NA,NA,NA,NA,NA,NA,NA,NA,NA,NA,NA
SUPAMT89542,3I33IC7ZWL1HGUVFPMXLYTX80AV2A4,E633E90A-B0B7-418D-BE82-73E738B725DB,2023-09-27_12h38.07.523,WP_VExplicitOC_HL,2022.2.5,Win32,16.11291934,NA,NA,NA,NA,NA,NA,NA,NA,NA,NA,NA,NA,NA,NA,NA,NA,NA,NA,NA,NA,NA,NA,NA,NA,NA,NA,NA,NA,NA,NA,NA,NA,NA,NA,NA,NA,NA,NA,NA,NA,NA,NA,NA,NA,NA,NA,NA,NA,NA,NA,NA,NA,NA,NA,NA,NA,NA,NA,NA
SUPAMT89542,3I33IC7ZWL1HGUVFPMXLYTX80AV2A4,E633E90A-B0B7-418D-BE82-73E738B725DB,2023-09-27_12h38.07.523,WP_VExplicitOC_HL,2022.2.5,Win32,16.11291934,NA,NA,NA,NA,NA,NA,NA,NA,NA,NA,NA,NA,NA,NA,NA,NA,NA,NA,NA,NA,NA,NA,NA,NA,NA,NA,NA,NA,NA,NA,NA,NA,NA,NA,NA,NA,NA,NA,NA,NA,NA,NA,NA,NA,NA,NA,NA,NA,NA,NA,NA,NA,NA,NA,NA,NA,NA,NA,NA
SUPAMT89542,3I33IC7ZWL1HGUVFPMXLYTX80AV2A4,E633E90A-B0B7-418D-BE82-73E738B725DB,2023-09-27_12h38.07.523,WP_VExplicitOC_HL,2022.2.5,Win32,16.11291934,-85.9450727,5.6757,2.0601,0,0,0,1,1,frustrated,"frustrated, not frustrated","more frustrated, less frustrated",NA,NA,NA,NA,NA,NA,NA,NA,NA,NA,NA,NA,NA,NA,NA,NA,NA,NA,NA,NA,NA,NA,NA,NA,NA,NA,NA,NA,NA,NA,NA,NA,NA,NA,NA,NA,NA,NA,NA,NA,NA,NA,NA,NA,NA,NA,NA,NA
SUPAMT89542,3I33IC7ZWL1HGUVFPMXLYTX80AV2A4,E633E90A-B0B7-418D-BE82-73E738B725DB,2023-09-27_12h38.07.523,WP_VExplicitOC_HL,2022.2.5,Win32,16.11291934,76.57512116,3.7178,2.0274,0,1,1,0,1,happy,"unhappy, happy","less happy, more happy",NA,NA,NA,NA,NA,NA,NA,NA,NA,NA,NA,NA,NA,NA,NA,NA,NA,NA,NA,NA,NA,NA,NA,NA,NA,NA,NA,NA,NA,NA,NA,NA,NA,NA,NA,NA,NA,NA,NA,NA,NA,NA,NA,NA,NA,NA,NA,NA
SUPAMT89542,3I33IC7ZWL1HGUVFPMXLYTX80AV2A4,E633E90A-B0B7-418D-BE82-73E738B725DB,2023-09-27_12h38.07.523,WP_VExplicitOC_HL,2022.2.5,Win32,16.11291934,-52.66558966,3.7283,2.0215,0,2,2,2,1,bored,"bored, not bored","more bored, less bored",NA,NA,NA,NA,NA,NA,NA,NA,NA,NA,NA,NA,NA,NA,NA,NA,NA,NA,NA,NA,NA,NA,NA,NA,NA,NA,NA,NA,NA,NA,NA,NA,NA,NA,NA,NA,NA,NA,NA,NA,NA,NA,NA,NA,NA,NA,NA,NA
SUPAMT89542,3I33IC7ZWL1HGUVFPMXLYTX80AV2A4,E633E90A-B0B7-418D-BE82-73E738B725DB,2023-09-27_12h38.07.523,WP_VExplicitOC_HL,2022.2.5,Win32,16.11291934,NA,NA,NA,NA,NA,NA,NA,NA,NA,NA,NA,NA,NA,NA,NA,NA,NA,NA,NA,NA,NA,NA,NA,NA,NA,NA,NA,NA,NA,NA,NA,NA,NA,NA,NA,NA,NA,NA,NA,NA,NA,NA,NA,NA,NA,NA,NA,NA,NA,NA,NA,NA,NA,NA,NA,NA,NA,NA,NA
SUPAMT89542,3I33IC7ZWL1HGUVFPMXLYTX80AV2A4,E633E90A-B0B7-418D-BE82-73E738B725DB,2023-09-27_12h38.07.523,WP_VExplicitOC_HL,2022.2.5,Win32,16.11291934,NA,NA,NA,NA,NA,NA,NA,NA,NA,NA,NA,NA,NA,NA,NA,NA,NA,NA,NA,NA,NA,NA,NA,NA,NA,NA,NA,NA,NA,NA,NA,NA,NA,NA,NA,NA,NA,NA,NA,NA,NA,NA,NA,NA,NA,NA,NA,NA,NA,NA,NA,NA,NA,NA,NA,NA,NA,NA,NA
SUPAMT89542,3I33IC7ZWL1HGUVFPMXLYTX80AV2A4,E633E90A-B0B7-418D-BE82-73E738B725DB,2023-09-27_12h38.07.523,WP_VExplicitOC_HL,2022.2.5,Win32,16.11291934,NA,NA,NA,NA,NA,NA,NA,NA,NA,NA,NA,NA,NA,NA,NA,NA,NA,NA,NA,NA,NA,NA,NA,NA,NA,NA,NA,NA,NA,NA,NA,NA,NA,NA,NA,NA,NA,NA,NA,NA,NA,NA,NA,NA,NA,NA,NA,NA,NA,NA,NA,NA,NA,NA,NA,NA,NA,NA,NA
SUPAMT89542,3I33IC7ZWL1HGUVFPMXLYTX80AV2A4,E633E90A-B0B7-418D-BE82-73E738B725DB,2023-09-27_12h38.07.523,WP_VExplicitOC_HL,2022.2.5,Win32,16.11291934,NA,NA,NA,NA,NA,NA,NA,NA,NA,NA,NA,NA,NA,NA,NA,NA,NA,NA,NA,NA,NA,NA,NA,NA,NA,NA,NA,NA,NA,NA,NA,NA,NA,NA,NA,NA,NA,NA,NA,NA,NA,NA,NA,NA,NA,NA,NA,NA,NA,NA,NA,NA,NA,NA,NA,NA,NA,NA,NA
SUPAMT89542,3I33IC7ZWL1HGUVFPMXLYTX80AV2A4,E633E90A-B0B7-418D-BE82-73E738B725DB,2023-09-27_12h38.07.523,WP_VExplicitOC_HL,2022.2.5,Win32,16.11291934,NA,NA,NA,NA,NA,NA,NA,NA,NA,NA,NA,83.68336026,3.5562,0,0,0,0,1,rest (looking at a fixed cross),001.png,NA,NA,NA,NA,NA,NA,NA,NA,NA,NA,NA,NA,NA,NA,NA,NA,NA,NA,NA,NA,NA,NA,NA,NA,NA,NA,NA,NA,NA,NA,NA,NA,NA,NA,NA,NA,NA,NA,NA
SUPAMT89542,3I33IC7ZWL1HGUVFPMXLYTX80AV2A4,E633E90A-B0B7-418D-BE82-73E738B725DB,2023-09-27_12h38.07.523,WP_VExplicitOC_HL,2022.2.5,Win32,16.11291934,NA,NA,NA,NA,NA,NA,NA,NA,NA,NA,NA,97.89983845,1.9101,0,1,1,1,1,stand up,002.png,NA,NA,NA,NA,NA,NA,NA,NA,NA,NA,NA,NA,NA,NA,NA,NA,NA,NA,NA,NA,NA,NA,NA,NA,NA,NA,NA,NA,NA,NA,NA,NA,NA,NA,NA,NA,NA,NA,NA
SUPAMT89542,3I33IC7ZWL1HGUVFPMXLYTX80AV2A4,E633E90A-B0B7-418D-BE82-73E738B725DB,2023-09-27_12h38.07.523,WP_VExplicitOC_HL,2022.2.5,Win32,16.11291934,NA,NA,NA,NA,NA,NA,NA,NA,NA,NA,NA,100,1.5198,0,2,2,2,1,stretch,003.png,NA,NA,NA,NA,NA,NA,NA,NA,NA,NA,NA,NA,NA,NA,NA,NA,NA,NA,NA,NA,NA,NA,NA,NA,NA,NA,NA,NA,NA,NA,NA,NA,NA,NA,NA,NA,NA,NA,NA
SUPAMT89542,3I33IC7ZWL1HGUVFPMXLYTX80AV2A4,E633E90A-B0B7-418D-BE82-73E738B725DB,2023-09-27_12h38.07.523,WP_VExplicitOC_HL,2022.2.5,Win32,16.11291934,NA,NA,NA,NA,NA,NA,NA,NA,NA,NA,NA,73.66720517,1.6165,0,3,3,3,1,make a drink,004.png,NA,NA,NA,NA,NA,NA,NA,NA,NA,NA,NA,NA,NA,NA,NA,NA,NA,NA,NA,NA,NA,NA,NA,NA,NA,NA,NA,NA,NA,NA,NA,NA,NA,NA,NA,NA,NA,NA,NA
SUPAMT89542,3I33IC7ZWL1HGUVFPMXLYTX80AV2A4,E633E90A-B0B7-418D-BE82-73E738B725DB,2023-09-27_12h38.07.523,WP_VExplicitOC_HL,2022.2.5,Win32,16.11291934,NA,NA,NA,NA,NA,NA,NA,NA,NA,NA,NA,85.62197092,1.7004,0,4,4,4,1,scroll social media,005.png,NA,NA,NA,NA,NA,NA,NA,NA,NA,NA,NA,NA,NA,NA,NA,NA,NA,NA,NA,NA,NA,NA,NA,NA,NA,NA,NA,NA,NA,NA,NA,NA,NA,NA,NA,NA,NA,NA,NA
SUPAMT89542,3I33IC7ZWL1HGUVFPMXLYTX80AV2A4,E633E90A-B0B7-418D-BE82-73E738B725DB,2023-09-27_12h38.07.523,WP_VExplicitOC_HL,2022.2.5,Win32,16.11291934,NA,NA,NA,NA,NA,NA,NA,NA,NA,NA,NA,85.29886914,1.3327,0,5,5,5,1,listen to music,006.png,NA,NA,NA,NA,NA,NA,NA,NA,NA,NA,NA,NA,NA,NA,NA,NA,NA,NA,NA,NA,NA,NA,NA,NA,NA,NA,NA,NA,NA,NA,NA,NA,NA,NA,NA,NA,NA,NA,NA
SUPAMT89542,3I33IC7ZWL1HGUVFPMXLYTX80AV2A4,E633E90A-B0B7-418D-BE82-73E738B725DB,2023-09-27_12h38.07.523,WP_VExplicitOC_HL,2022.2.5,Win32,16.11291934,NA,NA,NA,NA,NA,NA,NA,NA,NA,NA,NA,95.31502423,1.4738,0,6,6,6,1,daydream,007.png,NA,NA,NA,NA,NA,NA,NA,NA,NA,NA,NA,NA,NA,NA,NA,NA,NA,NA,NA,NA,NA,NA,NA,NA,NA,NA,NA,NA,NA,NA,NA,NA,NA,NA,NA,NA,NA,NA,NA
SUPAMT89542,3I33IC7ZWL1HGUVFPMXLYTX80AV2A4,E633E90A-B0B7-418D-BE82-73E738B725DB,2023-09-27_12h38.07.523,WP_VExplicitOC_HL,2022.2.5,Win32,16.11291934,NA,NA,NA,NA,NA,NA,NA,NA,NA,NA,NA,79.80613893,1.6516,0,7,7,7,1,watch a short animation,008.png,NA,NA,NA,NA,NA,NA,NA,NA,NA,NA,NA,NA,NA,NA,NA,NA,NA,NA,NA,NA,NA,NA,NA,NA,NA,NA,NA,NA,NA,NA,NA,NA,NA,NA,NA,NA,NA,NA,NA
SUPAMT89542,3I33IC7ZWL1HGUVFPMXLYTX80AV2A4,E633E90A-B0B7-418D-BE82-73E738B725DB,2023-09-27_12h38.07.523,WP_VExplicitOC_HL,2022.2.5,Win32,16.11291934,NA,NA,NA,NA,NA,NA,NA,NA,NA,NA,NA,83.36025848,1.3375,0,8,8,8,1,read a novel,009.png,NA,NA,NA,NA,NA,NA,NA,NA,NA,NA,NA,NA,NA,NA,NA,NA,NA,NA,NA,NA,NA,NA,NA,NA,NA,NA,NA,NA,NA,NA,NA,NA,NA,NA,NA,NA,NA,NA,NA
SUPAMT89542,3I33IC7ZWL1HGUVFPMXLYTX80AV2A4,E633E90A-B0B7-418D-BE82-73E738B725DB,2023-09-27_12h38.07.523,WP_VExplicitOC_HL,2022.2.5,Win32,16.11291934,NA,NA,NA,NA,NA,NA,NA,NA,NA,NA,NA,89.82229402,1.4115,0,9,9,9,1,read the news,010.png,NA,NA,NA,NA,NA,NA,NA,NA,NA,NA,NA,NA,NA,NA,NA,NA,NA,NA,NA,NA,NA,NA,NA,NA,NA,NA,NA,NA,NA,NA,NA,NA,NA,NA,NA,NA,NA,NA,NA
SUPAMT89542,3I33IC7ZWL1HGUVFPMXLYTX80AV2A4,E633E90A-B0B7-418D-BE82-73E738B725DB,2023-09-27_12h38.07.523,WP_VExplicitOC_HL,2022.2.5,Win32,16.11291934,NA,NA,NA,NA,NA,NA,NA,NA,NA,NA,NA,NA,NA,NA,NA,NA,NA,NA,NA,NA,NA,NA,NA,NA,NA,NA,NA,NA,NA,NA,NA,NA,NA,NA,NA,NA,NA,NA,NA,NA,NA,NA,NA,NA,NA,NA,NA,NA,NA,NA,NA,NA,NA,NA,NA,NA,NA,NA,NA
SUPAMT89542,3I33IC7ZWL1HGUVFPMXLYTX80AV2A4,E633E90A-B0B7-418D-BE82-73E738B725DB,2023-09-27_12h38.07.523,WP_VExplicitOC_HL,2022.2.5,Win32,16.11291934,NA,NA,NA,NA,NA,NA,NA,NA,NA,NA,NA,NA,NA,NA,NA,NA,NA,NA,NA,NA,stretch,NA,NA,NA,NA,NA,NA,NA,NA,NA,NA,NA,NA,NA,NA,NA,NA,NA,NA,NA,NA,NA,NA,NA,NA,NA,NA,NA,NA,NA,NA,NA,NA,NA,NA,NA,NA,NA,NA
SUPAMT89542,3I33IC7ZWL1HGUVFPMXLYTX80AV2A4,E633E90A-B0B7-418D-BE82-73E738B725DB,2023-09-27_12h38.07.523,WP_VExplicitOC_HL,2022.2.5,Win32,16.11291934,NA,NA,2.0259,NA,NA,NA,NA,NA,happy,"unhappy, happy","less happy, more happy",NA,NA,NA,NA,NA,NA,NA,NA,NA,NA,0,0,0,0,1,NA,NA,NA,NA,NA,NA,NA,NA,NA,NA,NA,NA,NA,NA,NA,NA,NA,NA,NA,NA,NA,NA,NA,NA,NA,NA,NA,NA,NA,NA,NA,NA,NA
SUPAMT89542,3I33IC7ZWL1HGUVFPMXLYTX80AV2A4,E633E90A-B0B7-418D-BE82-73E738B725DB,2023-09-27_12h38.07.523,WP_VExplicitOC_HL,2022.2.5,Win32,16.11291934,NA,NA,2.0253,NA,NA,NA,NA,NA,frustrated,"frustrated, not frustrated","more frustrated, less frustrated",NA,NA,NA,NA,NA,NA,NA,NA,NA,NA,0,1,1,1,1,NA,NA,NA,NA,NA,NA,NA,NA,NA,NA,NA,NA,NA,NA,NA,NA,NA,NA,NA,NA,NA,NA,NA,NA,NA,NA,NA,NA,NA,NA,NA,NA,NA
SUPAMT89542,3I33IC7ZWL1HGUVFPMXLYTX80AV2A4,E633E90A-B0B7-418D-BE82-73E738B725DB,2023-09-27_12h38.07.523,WP_VExplicitOC_HL,2022.2.5,Win32,16.11291934,NA,NA,2.0342,NA,NA,NA,NA,NA,bored,"bored, not bored","more bored, less bored",NA,NA,NA,NA,NA,NA,NA,NA,NA,NA,0,2,2,2,1,NA,NA,NA,NA,NA,NA,NA,NA,NA,NA,NA,NA,NA,NA,NA,NA,NA,NA,NA,NA,NA,NA,NA,NA,NA,NA,NA,NA,NA,NA,NA,NA,NA
SUPAMT89542,3I33IC7ZWL1HGUVFPMXLYTX80AV2A4,E633E90A-B0B7-418D-BE82-73E738B725DB,2023-09-27_12h38.07.523,WP_VExplicitOC_HL,2022.2.5,Win32,16.11291934,NA,NA,NA,NA,NA,NA,NA,NA,NA,NA,NA,NA,NA,NA,NA,NA,NA,NA,NA,NA,NA,NA,NA,NA,NA,NA,NA,NA,NA,NA,NA,NA,NA,NA,NA,NA,NA,NA,NA,NA,NA,NA,NA,NA,NA,NA,NA,NA,NA,NA,NA,NA,NA,NA,NA,NA,NA,NA,NA
SUPAMT89542,3I33IC7ZWL1HGUVFPMXLYTX80AV2A4,E633E90A-B0B7-418D-BE82-73E738B725DB,2023-09-27_12h38.07.523,WP_VExplicitOC_HL,2022.2.5,Win32,16.11291934,NA,NA,NA,NA,NA,NA,NA,NA,NA,NA,NA,NA,NA,NA,NA,NA,NA,NA,NA,NA,NA,NA,NA,NA,NA,NA,NA,NA,NA,NA,NA,NA,NA,NA,NA,NA,NA,NA,NA,NA,NA,NA,NA,NA,NA,NA,NA,NA,NA,NA,NA,NA,NA,NA,NA,NA,NA,NA,NA
SUPAMT89542,3I33IC7ZWL1HGUVFPMXLYTX80AV2A4,E633E90A-B0B7-418D-BE82-73E738B725DB,2023-09-27_12h38.07.523,WP_VExplicitOC_HL,2022.2.5,Win32,16.11291934,57.51211632,3.6374,2.0083,NA,NA,NA,NA,NA,happy,"unhappy, happy","less happy, more happy",NA,NA,NA,NA,NA,NA,NA,NA,NA,NA,NA,NA,NA,NA,NA,0,0,0,0,1,NA,NA,NA,NA,NA,NA,NA,NA,NA,NA,NA,NA,NA,NA,NA,NA,NA,NA,NA,NA,NA,NA,NA,NA,NA,NA,NA,NA
SUPAMT89542,3I33IC7ZWL1HGUVFPMXLYTX80AV2A4,E633E90A-B0B7-418D-BE82-73E738B725DB,2023-09-27_12h38.07.523,WP_VExplicitOC_HL,2022.2.5,Win32,16.11291934,-56.21970921,3.7173,2.036,NA,NA,NA,NA,NA,bored,"bored, not bored","more bored, less bored",NA,NA,NA,NA,NA,NA,NA,NA,NA,NA,NA,NA,NA,NA,NA,0,1,1,2,1,NA,NA,NA,NA,NA,NA,NA,NA,NA,NA,NA,NA,NA,NA,NA,NA,NA,NA,NA,NA,NA,NA,NA,NA,NA,NA,NA,NA
SUPAMT89542,3I33IC7ZWL1HGUVFPMXLYTX80AV2A4,E633E90A-B0B7-418D-BE82-73E738B725DB,2023-09-27_12h38.07.523,WP_VExplicitOC_HL,2022.2.5,Win32,16.11291934,-66.2358643,3.5613,2,NA,NA,NA,NA,NA,frustrated,"frustrated, not frustrated","more frustrated, less frustrated",NA,NA,NA,NA,NA,NA,NA,NA,NA,NA,NA,NA,NA,NA,NA,0,2,2,1,1,NA,NA,NA,NA,NA,NA,NA,NA,NA,NA,NA,NA,NA,NA,NA,NA,NA,NA,NA,NA,NA,NA,NA,NA,NA,NA,NA,NA
SUPAMT89542,3I33IC7ZWL1HGUVFPMXLYTX80AV2A4,E633E90A-B0B7-418D-BE82-73E738B725DB,2023-09-27_12h38.07.523,WP_VExplicitOC_HL,2022.2.5,Win32,16.11291934,NA,NA,NA,NA,NA,NA,NA,NA,NA,NA,NA,NA,NA,NA,NA,NA,NA,NA,NA,NA,NA,NA,NA,NA,NA,NA,NA,NA,NA,NA,NA,0,0,0,0,1,NA,NA,NA,NA,NA,NA,NA,NA,NA,NA,NA,NA,NA,NA,NA,NA,NA,NA,NA,NA,NA,NA,NA
SUPAMT89542,3I33IC7ZWL1HGUVFPMXLYTX80AV2A4,E633E90A-B0B7-418D-BE82-73E738B725DB,2023-09-27_12h38.07.523,WP_VExplicitOC_HL,2022.2.5,Win32,16.11291934,NA,NA,2.0199,NA,NA,NA,NA,NA,bored,"bored, not bored","more bored, less bored",NA,NA,NA,NA,NA,NA,NA,NA,NA,NA,NA,NA,NA,NA,NA,0,0,0,2,1,NA,NA,NA,NA,NA,NA,NA,NA,NA,NA,NA,NA,NA,NA,NA,NA,NA,NA,NA,NA,NA,NA,NA,NA,NA,NA,NA,NA
SUPAMT89542,3I33IC7ZWL1HGUVFPMXLYTX80AV2A4,E633E90A-B0B7-418D-BE82-73E738B725DB,2023-09-27_12h38.07.523,WP_VExplicitOC_HL,2022.2.5,Win32,16.11291934,NA,NA,2.0088,NA,NA,NA,NA,NA,frustrated,"frustrated, not frustrated","more frustrated, less frustrated",NA,NA,NA,NA,NA,NA,NA,NA,NA,NA,NA,NA,NA,NA,NA,0,1,1,1,1,NA,NA,NA,NA,NA,NA,NA,NA,NA,NA,NA,NA,NA,NA,NA,NA,NA,NA,NA,NA,NA,NA,NA,NA,NA,NA,NA,NA
SUPAMT89542,3I33IC7ZWL1HGUVFPMXLYTX80AV2A4,E633E90A-B0B7-418D-BE82-73E738B725DB,2023-09-27_12h38.07.523,WP_VExplicitOC_HL,2022.2.5,Win32,16.11291934,56.86591276,5.074,2.075,NA,NA,NA,NA,NA,happy,"unhappy, happy","less happy, more happy",NA,NA,NA,NA,NA,NA,NA,NA,NA,NA,NA,NA,NA,NA,NA,0,2,2,0,1,NA,NA,NA,NA,NA,NA,NA,NA,NA,NA,NA,NA,NA,NA,NA,NA,NA,NA,NA,NA,NA,NA,NA,NA,NA,NA,NA,NA
SUPAMT89542,3I33IC7ZWL1HGUVFPMXLYTX80AV2A4,E633E90A-B0B7-418D-BE82-73E738B725DB,2023-09-27_12h38.07.523,WP_VExplicitOC_HL,2022.2.5,Win32,16.11291934,NA,NA,NA,NA,NA,NA,NA,NA,NA,NA,NA,NA,NA,NA,NA,NA,NA,NA,NA,NA,NA,NA,NA,NA,NA,NA,NA,NA,NA,NA,NA,1,0,1,0,1,NA,NA,NA,NA,NA,NA,NA,NA,NA,NA,NA,NA,NA,NA,NA,NA,NA,NA,NA,NA,NA,NA,NA
SUPAMT89542,3I33IC7ZWL1HGUVFPMXLYTX80AV2A4,E633E90A-B0B7-418D-BE82-73E738B725DB,2023-09-27_12h38.07.523,WP_VExplicitOC_HL,2022.2.5,Win32,16.11291934,-48.78836834,4.0616,2.0718,NA,NA,NA,NA,NA,bored,"bored, not bored","more bored, less bored",NA,NA,NA,NA,NA,NA,NA,NA,NA,NA,NA,NA,NA,NA,NA,0,0,0,2,1,NA,NA,NA,NA,NA,NA,NA,NA,NA,NA,NA,NA,NA,NA,NA,NA,NA,NA,NA,NA,NA,NA,NA,NA,NA,NA,NA,NA
SUPAMT89542,3I33IC7ZWL1HGUVFPMXLYTX80AV2A4,E633E90A-B0B7-418D-BE82-73E738B725DB,2023-09-27_12h38.07.523,WP_VExplicitOC_HL,2022.2.5,Win32,16.11291934,52.98869144,4.4347,2.0805,NA,NA,NA,NA,NA,happy,"unhappy, happy","less happy, more happy",NA,NA,NA,NA,NA,NA,NA,NA,NA,NA,NA,NA,NA,NA,NA,0,1,1,0,1,NA,NA,NA,NA,NA,NA,NA,NA,NA,NA,NA,NA,NA,NA,NA,NA,NA,NA,NA,NA,NA,NA,NA,NA,NA,NA,NA,NA
SUPAMT89542,3I33IC7ZWL1HGUVFPMXLYTX80AV2A4,E633E90A-B0B7-418D-BE82-73E738B725DB,2023-09-27_12h38.07.523,WP_VExplicitOC_HL,2022.2.5,Win32,16.11291934,-60.42003231,3.6071,2.0712,NA,NA,NA,NA,NA,frustrated,"frustrated, not frustrated","more frustrated, less frustrated",NA,NA,NA,NA,NA,NA,NA,NA,NA,NA,NA,NA,NA,NA,NA,0,2,2,1,1,NA,NA,NA,NA,NA,NA,NA,NA,NA,NA,NA,NA,NA,NA,NA,NA,NA,NA,NA,NA,NA,NA,NA,NA,NA,NA,NA,NA
SUPAMT89542,3I33IC7ZWL1HGUVFPMXLYTX80AV2A4,E633E90A-B0B7-418D-BE82-73E738B725DB,2023-09-27_12h38.07.523,WP_VExplicitOC_HL,2022.2.5,Win32,16.11291934,NA,NA,NA,NA,NA,NA,NA,NA,NA,NA,NA,NA,NA,NA,NA,NA,NA,NA,NA,NA,NA,NA,NA,NA,NA,NA,NA,NA,NA,NA,NA,2,0,2,0,1,NA,NA,NA,NA,NA,NA,NA,NA,NA,NA,NA,NA,NA,NA,NA,NA,NA,NA,NA,NA,NA,NA,NA
SUPAMT89542,3I33IC7ZWL1HGUVFPMXLYTX80AV2A4,E633E90A-B0B7-418D-BE82-73E738B725DB,2023-09-27_12h38.07.523,WP_VExplicitOC_HL,2022.2.5,Win32,16.11291934,-40.71082391,3.8003,2.0726,NA,NA,NA,NA,NA,frustrated,"frustrated, not frustrated","more frustrated, less frustrated",NA,NA,NA,NA,NA,NA,NA,NA,NA,NA,NA,NA,NA,NA,NA,0,0,0,1,1,NA,NA,NA,NA,NA,NA,NA,NA,NA,NA,NA,NA,NA,NA,NA,NA,NA,NA,NA,NA,NA,NA,NA,NA,NA,NA,NA,NA
SUPAMT89542,3I33IC7ZWL1HGUVFPMXLYTX80AV2A4,E633E90A-B0B7-418D-BE82-73E738B725DB,2023-09-27_12h38.07.523,WP_VExplicitOC_HL,2022.2.5,Win32,16.11291934,-36.18739903,3.7117,2.0588,NA,NA,NA,NA,NA,bored,"bored, not bored","more bored, less bored",NA,NA,NA,NA,NA,NA,NA,NA,NA,NA,NA,NA,NA,NA,NA,0,1,1,2,1,NA,NA,NA,NA,NA,NA,NA,NA,NA,NA,NA,NA,NA,NA,NA,NA,NA,NA,NA,NA,NA,NA,NA,NA,NA,NA,NA,NA
SUPAMT89542,3I33IC7ZWL1HGUVFPMXLYTX80AV2A4,E633E90A-B0B7-418D-BE82-73E738B725DB,2023-09-27_12h38.07.523,WP_VExplicitOC_HL,2022.2.5,Win32,16.11291934,67.20516963,4.9196,2.0315,NA,NA,NA,NA,NA,happy,"unhappy, happy","less happy, more happy",NA,NA,NA,NA,NA,NA,NA,NA,NA,NA,NA,NA,NA,NA,NA,0,2,2,0,1,NA,NA,NA,NA,NA,NA,NA,NA,NA,NA,NA,NA,NA,NA,NA,NA,NA,NA,NA,NA,NA,NA,NA,NA,NA,NA,NA,NA
SUPAMT89542,3I33IC7ZWL1HGUVFPMXLYTX80AV2A4,E633E90A-B0B7-418D-BE82-73E738B725DB,2023-09-27_12h38.07.523,WP_VExplicitOC_HL,2022.2.5,Win32,16.11291934,NA,NA,NA,NA,NA,NA,NA,NA,NA,NA,NA,NA,NA,NA,NA,NA,NA,NA,NA,NA,NA,NA,NA,NA,NA,NA,NA,NA,NA,NA,NA,3,0,3,0,1,NA,NA,NA,NA,NA,NA,NA,NA,NA,NA,NA,NA,NA,NA,NA,NA,NA,NA,NA,NA,NA,NA,NA
SUPAMT89542,3I33IC7ZWL1HGUVFPMXLYTX80AV2A4,E633E90A-B0B7-418D-BE82-73E738B725DB,2023-09-27_12h38.07.523,WP_VExplicitOC_HL,2022.2.5,Win32,16.11291934,-36.51050081,3.5193,2.0651,NA,NA,NA,NA,NA,bored,"bored, not bored","more bored, less bored",NA,NA,NA,NA,NA,NA,NA,NA,NA,NA,NA,NA,NA,NA,NA,0,0,0,2,1,NA,NA,NA,NA,NA,NA,NA,NA,NA,NA,NA,NA,NA,NA,NA,NA,NA,NA,NA,NA,NA,NA,NA,NA,NA,NA,NA,NA
SUPAMT89542,3I33IC7ZWL1HGUVFPMXLYTX80AV2A4,E633E90A-B0B7-418D-BE82-73E738B725DB,2023-09-27_12h38.07.523,WP_VExplicitOC_HL,2022.2.5,Win32,16.11291934,-45.55735057,3.9389,2.0354,NA,NA,NA,NA,NA,frustrated,"frustrated, not frustrated","more frustrated, less frustrated",NA,NA,NA,NA,NA,NA,NA,NA,NA,NA,NA,NA,NA,NA,NA,0,1,1,1,1,NA,NA,NA,NA,NA,NA,NA,NA,NA,NA,NA,NA,NA,NA,NA,NA,NA,NA,NA,NA,NA,NA,NA,NA,NA,NA,NA,NA
SUPAMT89542,3I33IC7ZWL1HGUVFPMXLYTX80AV2A4,E633E90A-B0B7-418D-BE82-73E738B725DB,2023-09-27_12h38.07.523,WP_VExplicitOC_HL,2022.2.5,Win32,16.11291934,43.94184168,3.4077,2.0446,NA,NA,NA,NA,NA,happy,"unhappy, happy","less happy, more happy",NA,NA,NA,NA,NA,NA,NA,NA,NA,NA,NA,NA,NA,NA,NA,0,2,2,0,1,NA,NA,NA,NA,NA,NA,NA,NA,NA,NA,NA,NA,NA,NA,NA,NA,NA,NA,NA,NA,NA,NA,NA,NA,NA,NA,NA,NA
SUPAMT89542,3I33IC7ZWL1HGUVFPMXLYTX80AV2A4,E633E90A-B0B7-418D-BE82-73E738B725DB,2023-09-27_12h38.07.523,WP_VExplicitOC_HL,2022.2.5,Win32,16.11291934,NA,NA,NA,NA,NA,NA,NA,NA,NA,NA,NA,NA,NA,NA,NA,NA,NA,NA,NA,NA,NA,NA,NA,NA,NA,NA,NA,NA,NA,NA,NA,4,0,4,0,1,NA,NA,NA,NA,NA,NA,NA,NA,NA,NA,NA,NA,NA,NA,NA,NA,NA,NA,NA,NA,NA,NA,NA
SUPAMT89542,3I33IC7ZWL1HGUVFPMXLYTX80AV2A4,E633E90A-B0B7-418D-BE82-73E738B725DB,2023-09-27_12h38.07.523,WP_VExplicitOC_HL,2022.2.5,Win32,16.11291934,-50.52083333,4.3641,2.0061,NA,NA,NA,NA,NA,frustrated,"frustrated, not frustrated","more frustrated, less frustrated",NA,NA,NA,NA,NA,NA,NA,NA,NA,NA,NA,NA,NA,NA,NA,0,0,0,1,1,NA,NA,NA,NA,NA,NA,NA,NA,NA,NA,NA,NA,NA,NA,NA,NA,NA,NA,NA,NA,NA,NA,NA,NA,NA,NA,NA,NA
SUPAMT89542,3I33IC7ZWL1HGUVFPMXLYTX80AV2A4,E633E90A-B0B7-418D-BE82-73E738B725DB,2023-09-27_12h38.07.523,WP_VExplicitOC_HL,2022.2.5,Win32,16.11291934,62.5,3.8236,2.0576,NA,NA,NA,NA,NA,happy,"unhappy, happy","less happy, more happy",NA,NA,NA,NA,NA,NA,NA,NA,NA,NA,NA,NA,NA,NA,NA,0,1,1,0,1,NA,NA,NA,NA,NA,NA,NA,NA,NA,NA,NA,NA,NA,NA,NA,NA,NA,NA,NA,NA,NA,NA,NA,NA,NA,NA,NA,NA
SUPAMT89542,3I33IC7ZWL1HGUVFPMXLYTX80AV2A4,E633E90A-B0B7-418D-BE82-73E738B725DB,2023-09-27_12h38.07.523,WP_VExplicitOC_HL,2022.2.5,Win32,16.11291934,-48.4375,3.5502,2.0195,NA,NA,NA,NA,NA,bored,"bored, not bored","more bored, less bored",NA,NA,NA,NA,NA,NA,NA,NA,NA,NA,NA,NA,NA,NA,NA,0,2,2,2,1,NA,NA,NA,NA,NA,NA,NA,NA,NA,NA,NA,NA,NA,NA,NA,NA,NA,NA,NA,NA,NA,NA,NA,NA,NA,NA,NA,NA
SUPAMT89542,3I33IC7ZWL1HGUVFPMXLYTX80AV2A4,E633E90A-B0B7-418D-BE82-73E738B725DB,2023-09-27_12h38.07.523,WP_VExplicitOC_HL,2022.2.5,Win32,16.11291934,NA,NA,NA,NA,NA,NA,NA,NA,NA,NA,NA,NA,NA,NA,NA,NA,NA,NA,NA,NA,NA,NA,NA,NA,NA,NA,NA,NA,NA,NA,NA,5,0,5,0,1,NA,NA,NA,NA,NA,NA,NA,NA,NA,NA,NA,NA,NA,NA,NA,NA,NA,NA,NA,NA,NA,NA,NA
SUPAMT89542,3I33IC7ZWL1HGUVFPMXLYTX80AV2A4,E633E90A-B0B7-418D-BE82-73E738B725DB,2023-09-27_12h38.07.523,WP_VExplicitOC_HL,2022.2.5,Win32,16.11291934,62.76041667,5.6697,2.0075,NA,NA,NA,NA,NA,happy,"unhappy, happy","less happy, more happy",NA,NA,NA,NA,NA,NA,NA,NA,NA,NA,NA,NA,NA,NA,NA,0,0,0,0,1,NA,NA,NA,NA,NA,NA,NA,NA,NA,NA,NA,NA,NA,NA,NA,NA,NA,NA,NA,NA,NA,NA,NA,NA,NA,NA,NA,NA
SUPAMT89542,3I33IC7ZWL1HGUVFPMXLYTX80AV2A4,E633E90A-B0B7-418D-BE82-73E738B725DB,2023-09-27_12h38.07.523,WP_VExplicitOC_HL,2022.2.5,Win32,16.11291934,-55.98958333,3.8276,2.0034,NA,NA,NA,NA,NA,frustrated,"frustrated, not frustrated","more frustrated, less frustrated",NA,NA,NA,NA,NA,NA,NA,NA,NA,NA,NA,NA,NA,NA,NA,0,1,1,1,1,NA,NA,NA,NA,NA,NA,NA,NA,NA,NA,NA,NA,NA,NA,NA,NA,NA,NA,NA,NA,NA,NA,NA,NA,NA,NA,NA,NA
SUPAMT89542,3I33IC7ZWL1HGUVFPMXLYTX80AV2A4,E633E90A-B0B7-418D-BE82-73E738B725DB,2023-09-27_12h38.07.523,WP_VExplicitOC_HL,2022.2.5,Win32,16.11291934,-51.30208333,4.1028,2.0122,NA,NA,NA,NA,NA,bored,"bored, not bored","more bored, less bored",NA,NA,NA,NA,NA,NA,NA,NA,NA,NA,NA,NA,NA,NA,NA,0,2,2,2,1,NA,NA,NA,NA,NA,NA,NA,NA,NA,NA,NA,NA,NA,NA,NA,NA,NA,NA,NA,NA,NA,NA,NA,NA,NA,NA,NA,NA
SUPAMT89542,3I33IC7ZWL1HGUVFPMXLYTX80AV2A4,E633E90A-B0B7-418D-BE82-73E738B725DB,2023-09-27_12h38.07.523,WP_VExplicitOC_HL,2022.2.5,Win32,16.11291934,NA,NA,NA,NA,NA,NA,NA,NA,NA,NA,NA,NA,NA,NA,NA,NA,NA,NA,NA,NA,NA,NA,NA,NA,NA,NA,NA,NA,NA,NA,NA,6,0,6,0,1,NA,NA,NA,NA,NA,NA,NA,NA,NA,NA,NA,NA,NA,NA,NA,NA,NA,NA,NA,NA,NA,NA,NA
SUPAMT89542,3I33IC7ZWL1HGUVFPMXLYTX80AV2A4,E633E90A-B0B7-418D-BE82-73E738B725DB,2023-09-27_12h38.07.523,WP_VExplicitOC_HL,2022.2.5,Win32,16.11291934,NA,NA,2.0335,NA,NA,NA,NA,NA,frustrated,"frustrated, not frustrated","more frustrated, less frustrated",NA,NA,NA,NA,NA,NA,NA,NA,NA,NA,NA,NA,NA,NA,NA,0,0,0,1,1,NA,NA,NA,NA,NA,NA,NA,NA,NA,NA,NA,NA,NA,NA,NA,NA,NA,NA,NA,NA,NA,NA,NA,NA,NA,NA,NA,NA
SUPAMT89542,3I33IC7ZWL1HGUVFPMXLYTX80AV2A4,E633E90A-B0B7-418D-BE82-73E738B725DB,2023-09-27_12h38.07.523,WP_VExplicitOC_HL,2022.2.5,Win32,16.11291934,-61.97916667,4.9268,2.0488,NA,NA,NA,NA,NA,bored,"bored, not bored","more bored, less bored",NA,NA,NA,NA,NA,NA,NA,NA,NA,NA,NA,NA,NA,NA,NA,0,1,1,2,1,NA,NA,NA,NA,NA,NA,NA,NA,NA,NA,NA,NA,NA,NA,NA,NA,NA,NA,NA,NA,NA,NA,NA,NA,NA,NA,NA,NA
SUPAMT89542,3I33IC7ZWL1HGUVFPMXLYTX80AV2A4,E633E90A-B0B7-418D-BE82-73E738B725DB,2023-09-27_12h38.07.523,WP_VExplicitOC_HL,2022.2.5,Win32,16.11291934,63.02083333,6.3467,2.0963,NA,NA,NA,NA,NA,happy,"unhappy, happy","less happy, more happy",NA,NA,NA,NA,NA,NA,NA,NA,NA,NA,NA,NA,NA,NA,NA,0,2,2,0,1,NA,NA,NA,NA,NA,NA,NA,NA,NA,NA,NA,NA,NA,NA,NA,NA,NA,NA,NA,NA,NA,NA,NA,NA,NA,NA,NA,NA
SUPAMT89542,3I33IC7ZWL1HGUVFPMXLYTX80AV2A4,E633E90A-B0B7-418D-BE82-73E738B725DB,2023-09-27_12h38.07.523,WP_VExplicitOC_HL,2022.2.5,Win32,16.11291934,NA,NA,NA,NA,NA,NA,NA,NA,NA,NA,NA,NA,NA,NA,NA,NA,NA,NA,NA,NA,NA,NA,NA,NA,NA,NA,NA,NA,NA,NA,NA,7,0,7,0,1,NA,NA,NA,NA,NA,NA,NA,NA,NA,NA,NA,NA,NA,NA,NA,NA,NA,NA,NA,NA,NA,NA,NA
SUPAMT89542,3I33IC7ZWL1HGUVFPMXLYTX80AV2A4,E633E90A-B0B7-418D-BE82-73E738B725DB,2023-09-27_12h38.07.523,WP_VExplicitOC_HL,2022.2.5,Win32,16.11291934,42.70833333,3.712,2.0157,NA,NA,NA,NA,NA,happy,"unhappy, happy","less happy, more happy",NA,NA,NA,NA,NA,NA,NA,NA,NA,NA,NA,NA,NA,NA,NA,0,0,0,0,1,NA,NA,NA,NA,NA,NA,NA,NA,NA,NA,NA,NA,NA,NA,NA,NA,NA,NA,NA,NA,NA,NA,NA,NA,NA,NA,NA,NA
SUPAMT89542,3I33IC7ZWL1HGUVFPMXLYTX80AV2A4,E633E90A-B0B7-418D-BE82-73E738B725DB,2023-09-27_12h38.07.523,WP_VExplicitOC_HL,2022.2.5,Win32,16.11291934,-66.40625,3.8838,2.0222,NA,NA,NA,NA,NA,frustrated,"frustrated, not frustrated","more frustrated, less frustrated",NA,NA,NA,NA,NA,NA,NA,NA,NA,NA,NA,NA,NA,NA,NA,0,1,1,1,1,NA,NA,NA,NA,NA,NA,NA,NA,NA,NA,NA,NA,NA,NA,NA,NA,NA,NA,NA,NA,NA,NA,NA,NA,NA,NA,NA,NA
SUPAMT89542,3I33IC7ZWL1HGUVFPMXLYTX80AV2A4,E633E90A-B0B7-418D-BE82-73E738B725DB,2023-09-27_12h38.07.523,WP_VExplicitOC_HL,2022.2.5,Win32,16.11291934,-48.4375,3.6294,2.0559,NA,NA,NA,NA,NA,bored,"bored, not bored","more bored, less bored",NA,NA,NA,NA,NA,NA,NA,NA,NA,NA,NA,NA,NA,NA,NA,0,2,2,2,1,NA,NA,NA,NA,NA,NA,NA,NA,NA,NA,NA,NA,NA,NA,NA,NA,NA,NA,NA,NA,NA,NA,NA,NA,NA,NA,NA,NA
SUPAMT89542,3I33IC7ZWL1HGUVFPMXLYTX80AV2A4,E633E90A-B0B7-418D-BE82-73E738B725DB,2023-09-27_12h38.07.523,WP_VExplicitOC_HL,2022.2.5,Win32,16.11291934,NA,NA,NA,NA,NA,NA,NA,NA,NA,NA,NA,NA,NA,NA,NA,NA,NA,NA,NA,NA,NA,NA,NA,NA,NA,NA,NA,NA,NA,NA,NA,8,0,8,0,1,NA,NA,NA,NA,NA,NA,NA,NA,NA,NA,NA,NA,NA,NA,NA,NA,NA,NA,NA,NA,NA,NA,NA
SUPAMT89542,3I33IC7ZWL1HGUVFPMXLYTX80AV2A4,E633E90A-B0B7-418D-BE82-73E738B725DB,2023-09-27_12h38.07.523,WP_VExplicitOC_HL,2022.2.5,Win32,16.11291934,-47.13541667,4.3968,2.0354,NA,NA,NA,NA,NA,frustrated,"frustrated, not frustrated","more frustrated, less frustrated",NA,NA,NA,NA,NA,NA,NA,NA,NA,NA,NA,NA,NA,NA,NA,0,0,0,1,1,NA,NA,NA,NA,NA,NA,NA,NA,NA,NA,NA,NA,NA,NA,NA,NA,NA,NA,NA,NA,NA,NA,NA,NA,NA,NA,NA,NA
SUPAMT89542,3I33IC7ZWL1HGUVFPMXLYTX80AV2A4,E633E90A-B0B7-418D-BE82-73E738B725DB,2023-09-27_12h38.07.523,WP_VExplicitOC_HL,2022.2.5,Win32,16.11291934,51.30208333,4.3504,2.0693,NA,NA,NA,NA,NA,happy,"unhappy, happy","less happy, more happy",NA,NA,NA,NA,NA,NA,NA,NA,NA,NA,NA,NA,NA,NA,NA,0,1,1,0,1,NA,NA,NA,NA,NA,NA,NA,NA,NA,NA,NA,NA,NA,NA,NA,NA,NA,NA,NA,NA,NA,NA,NA,NA,NA,NA,NA,NA
SUPAMT89542,3I33IC7ZWL1HGUVFPMXLYTX80AV2A4,E633E90A-B0B7-418D-BE82-73E738B725DB,2023-09-27_12h38.07.523,WP_VExplicitOC_HL,2022.2.5,Win32,16.11291934,-50.26041667,3.9316,2.0689,NA,NA,NA,NA,NA,bored,"bored, not bored","more bored, less bored",NA,NA,NA,NA,NA,NA,NA,NA,NA,NA,NA,NA,NA,NA,NA,0,2,2,2,1,NA,NA,NA,NA,NA,NA,NA,NA,NA,NA,NA,NA,NA,NA,NA,NA,NA,NA,NA,NA,NA,NA,NA,NA,NA,NA,NA,NA
SUPAMT89542,3I33IC7ZWL1HGUVFPMXLYTX80AV2A4,E633E90A-B0B7-418D-BE82-73E738B725DB,2023-09-27_12h38.07.523,WP_VExplicitOC_HL,2022.2.5,Win32,16.11291934,NA,NA,NA,NA,NA,NA,NA,NA,NA,NA,NA,NA,NA,NA,NA,NA,NA,NA,NA,NA,NA,NA,NA,NA,NA,NA,NA,NA,NA,NA,NA,9,0,9,0,1,NA,NA,NA,NA,NA,NA,NA,NA,NA,NA,NA,NA,NA,NA,NA,NA,NA,NA,NA,NA,NA,NA,NA
SUPAMT89542,3I33IC7ZWL1HGUVFPMXLYTX80AV2A4,E633E90A-B0B7-418D-BE82-73E738B725DB,2023-09-27_12h38.07.523,WP_VExplicitOC_HL,2022.2.5,Win32,16.11291934,54.42708333,4.8459,2.0778,NA,NA,NA,NA,NA,happy,"unhappy, happy","less happy, more happy",NA,NA,NA,NA,NA,NA,NA,NA,NA,NA,NA,NA,NA,NA,NA,0,0,0,0,1,NA,NA,NA,NA,NA,NA,NA,NA,NA,NA,NA,NA,NA,NA,NA,NA,NA,NA,NA,NA,NA,NA,NA,NA,NA,NA,NA,NA
SUPAMT89542,3I33IC7ZWL1HGUVFPMXLYTX80AV2A4,E633E90A-B0B7-418D-BE82-73E738B725DB,2023-09-27_12h38.07.523,WP_VExplicitOC_HL,2022.2.5,Win32,16.11291934,-48.69791667,4.1429,2.0434,NA,NA,NA,NA,NA,bored,"bored, not bored","more bored, less bored",NA,NA,NA,NA,NA,NA,NA,NA,NA,NA,NA,NA,NA,NA,NA,0,1,1,2,1,NA,NA,NA,NA,NA,NA,NA,NA,NA,NA,NA,NA,NA,NA,NA,NA,NA,NA,NA,NA,NA,NA,NA,NA,NA,NA,NA,NA
SUPAMT89542,3I33IC7ZWL1HGUVFPMXLYTX80AV2A4,E633E90A-B0B7-418D-BE82-73E738B725DB,2023-09-27_12h38.07.523,WP_VExplicitOC_HL,2022.2.5,Win32,16.11291934,-52.86458333,3.5929,2.0095,NA,NA,NA,NA,NA,frustrated,"frustrated, not frustrated","more frustrated, less frustrated",NA,NA,NA,NA,NA,NA,NA,NA,NA,NA,NA,NA,NA,NA,NA,0,2,2,1,1,NA,NA,NA,NA,NA,NA,NA,NA,NA,NA,NA,NA,NA,NA,NA,NA,NA,NA,NA,NA,NA,NA,NA,NA,NA,NA,NA,NA
SUPAMT89542,3I33IC7ZWL1HGUVFPMXLYTX80AV2A4,E633E90A-B0B7-418D-BE82-73E738B725DB,2023-09-27_12h38.07.523,WP_VExplicitOC_HL,2022.2.5,Win32,16.11291934,NA,NA,NA,NA,NA,NA,NA,NA,NA,NA,NA,NA,NA,NA,NA,NA,NA,NA,NA,NA,NA,NA,NA,NA,NA,NA,NA,NA,NA,NA,NA,10,0,10,0,1,NA,NA,NA,NA,NA,NA,NA,NA,NA,NA,NA,NA,NA,NA,NA,NA,NA,NA,NA,NA,NA,NA,NA
SUPAMT89542,3I33IC7ZWL1HGUVFPMXLYTX80AV2A4,E633E90A-B0B7-418D-BE82-73E738B725DB,2023-09-27_12h38.07.523,WP_VExplicitOC_HL,2022.2.5,Win32,16.11291934,-47.91666667,3.912,2.0449,NA,NA,NA,NA,NA,frustrated,"frustrated, not frustrated","more frustrated, less frustrated",NA,NA,NA,NA,NA,NA,NA,NA,NA,NA,NA,NA,NA,NA,NA,0,0,0,1,1,NA,NA,NA,NA,NA,NA,NA,NA,NA,NA,NA,NA,NA,NA,NA,NA,NA,NA,NA,NA,NA,NA,NA,NA,NA,NA,NA,NA
SUPAMT89542,3I33IC7ZWL1HGUVFPMXLYTX80AV2A4,E633E90A-B0B7-418D-BE82-73E738B725DB,2023-09-27_12h38.07.523,WP_VExplicitOC_HL,2022.2.5,Win32,16.11291934,-49.47916667,3.8491,2.0732,NA,NA,NA,NA,NA,bored,"bored, not bored","more bored, less bored",NA,NA,NA,NA,NA,NA,NA,NA,NA,NA,NA,NA,NA,NA,NA,0,1,1,2,1,NA,NA,NA,NA,NA,NA,NA,NA,NA,NA,NA,NA,NA,NA,NA,NA,NA,NA,NA,NA,NA,NA,NA,NA,NA,NA,NA,NA
SUPAMT89542,3I33IC7ZWL1HGUVFPMXLYTX80AV2A4,E633E90A-B0B7-418D-BE82-73E738B725DB,2023-09-27_12h38.07.523,WP_VExplicitOC_HL,2022.2.5,Win32,16.11291934,51.30208333,4.7169,2.1117,NA,NA,NA,NA,NA,happy,"unhappy, happy","less happy, more happy",NA,NA,NA,NA,NA,NA,NA,NA,NA,NA,NA,NA,NA,NA,NA,0,2,2,0,1,NA,NA,NA,NA,NA,NA,NA,NA,NA,NA,NA,NA,NA,NA,NA,NA,NA,NA,NA,NA,NA,NA,NA,NA,NA,NA,NA,NA
SUPAMT89542,3I33IC7ZWL1HGUVFPMXLYTX80AV2A4,E633E90A-B0B7-418D-BE82-73E738B725DB,2023-09-27_12h38.07.523,WP_VExplicitOC_HL,2022.2.5,Win32,16.11291934,NA,NA,NA,NA,NA,NA,NA,NA,NA,NA,NA,NA,NA,NA,NA,NA,NA,NA,NA,NA,NA,NA,NA,NA,NA,NA,NA,NA,NA,NA,NA,11,0,11,0,1,NA,NA,NA,NA,NA,NA,NA,NA,NA,NA,NA,NA,NA,NA,NA,NA,NA,NA,NA,NA,NA,NA,NA
SUPAMT89542,3I33IC7ZWL1HGUVFPMXLYTX80AV2A4,E633E90A-B0B7-418D-BE82-73E738B725DB,2023-09-27_12h38.07.523,WP_VExplicitOC_HL,2022.2.5,Win32,16.11291934,-52.60416667,3.7524,2.0982,NA,NA,NA,NA,NA,bored,"bored, not bored","more bored, less bored",NA,NA,NA,NA,NA,NA,NA,NA,NA,NA,NA,NA,NA,NA,NA,0,0,0,2,1,NA,NA,NA,NA,NA,NA,NA,NA,NA,NA,NA,NA,NA,NA,NA,NA,NA,NA,NA,NA,NA,NA,NA,NA,NA,NA,NA,NA
SUPAMT89542,3I33IC7ZWL1HGUVFPMXLYTX80AV2A4,E633E90A-B0B7-418D-BE82-73E738B725DB,2023-09-27_12h38.07.523,WP_VExplicitOC_HL,2022.2.5,Win32,16.11291934,75,3.5566,2.0769,NA,NA,NA,NA,NA,happy,"unhappy, happy","less happy, more happy",NA,NA,NA,NA,NA,NA,NA,NA,NA,NA,NA,NA,NA,NA,NA,0,1,1,0,1,NA,NA,NA,NA,NA,NA,NA,NA,NA,NA,NA,NA,NA,NA,NA,NA,NA,NA,NA,NA,NA,NA,NA,NA,NA,NA,NA,NA
SUPAMT89542,3I33IC7ZWL1HGUVFPMXLYTX80AV2A4,E633E90A-B0B7-418D-BE82-73E738B725DB,2023-09-27_12h38.07.523,WP_VExplicitOC_HL,2022.2.5,Win32,16.11291934,-54.42708333,3.8789,2.0903,NA,NA,NA,NA,NA,frustrated,"frustrated, not frustrated","more frustrated, less frustrated",NA,NA,NA,NA,NA,NA,NA,NA,NA,NA,NA,NA,NA,NA,NA,0,2,2,1,1,NA,NA,NA,NA,NA,NA,NA,NA,NA,NA,NA,NA,NA,NA,NA,NA,NA,NA,NA,NA,NA,NA,NA,NA,NA,NA,NA,NA
SUPAMT89542,3I33IC7ZWL1HGUVFPMXLYTX80AV2A4,E633E90A-B0B7-418D-BE82-73E738B725DB,2023-09-27_12h38.07.523,WP_VExplicitOC_HL,2022.2.5,Win32,16.11291934,NA,NA,NA,NA,NA,NA,NA,NA,NA,NA,NA,NA,NA,NA,NA,NA,NA,NA,NA,NA,NA,NA,NA,NA,NA,NA,NA,NA,NA,NA,NA,12,0,12,0,1,NA,NA,NA,NA,NA,NA,NA,NA,NA,NA,NA,NA,NA,NA,NA,NA,NA,NA,NA,NA,NA,NA,NA
SUPAMT89542,3I33IC7ZWL1HGUVFPMXLYTX80AV2A4,E633E90A-B0B7-418D-BE82-73E738B725DB,2023-09-27_12h38.07.523,WP_VExplicitOC_HL,2022.2.5,Win32,16.11291934,-45.05208333,4.0447,2.0392,NA,NA,NA,NA,NA,frustrated,"frustrated, not frustrated","more frustrated, less frustrated",NA,NA,NA,NA,NA,NA,NA,NA,NA,NA,NA,NA,NA,NA,NA,0,0,0,1,1,NA,NA,NA,NA,NA,NA,NA,NA,NA,NA,NA,NA,NA,NA,NA,NA,NA,NA,NA,NA,NA,NA,NA,NA,NA,NA,NA,NA
SUPAMT89542,3I33IC7ZWL1HGUVFPMXLYTX80AV2A4,E633E90A-B0B7-418D-BE82-73E738B725DB,2023-09-27_12h38.07.523,WP_VExplicitOC_HL,2022.2.5,Win32,16.11291934,42.70833333,3.5645,2.1054,NA,NA,NA,NA,NA,happy,"unhappy, happy","less happy, more happy",NA,NA,NA,NA,NA,NA,NA,NA,NA,NA,NA,NA,NA,NA,NA,0,1,1,0,1,NA,NA,NA,NA,NA,NA,NA,NA,NA,NA,NA,NA,NA,NA,NA,NA,NA,NA,NA,NA,NA,NA,NA,NA,NA,NA,NA,NA
SUPAMT89542,3I33IC7ZWL1HGUVFPMXLYTX80AV2A4,E633E90A-B0B7-418D-BE82-73E738B725DB,2023-09-27_12h38.07.523,WP_VExplicitOC_HL,2022.2.5,Win32,16.11291934,-48.4375,3.5376,2.0471,NA,NA,NA,NA,NA,bored,"bored, not bored","more bored, less bored",NA,NA,NA,NA,NA,NA,NA,NA,NA,NA,NA,NA,NA,NA,NA,0,2,2,2,1,NA,NA,NA,NA,NA,NA,NA,NA,NA,NA,NA,NA,NA,NA,NA,NA,NA,NA,NA,NA,NA,NA,NA,NA,NA,NA,NA,NA
SUPAMT89542,3I33IC7ZWL1HGUVFPMXLYTX80AV2A4,E633E90A-B0B7-418D-BE82-73E738B725DB,2023-09-27_12h38.07.523,WP_VExplicitOC_HL,2022.2.5,Win32,16.11291934,NA,NA,NA,NA,NA,NA,NA,NA,NA,NA,NA,NA,NA,NA,NA,NA,NA,NA,NA,NA,NA,NA,NA,NA,NA,NA,NA,NA,NA,NA,NA,13,0,13,0,1,NA,NA,NA,NA,NA,NA,NA,NA,NA,NA,NA,NA,NA,NA,NA,NA,NA,NA,NA,NA,NA,NA,NA
SUPAMT89542,3I33IC7ZWL1HGUVFPMXLYTX80AV2A4,E633E90A-B0B7-418D-BE82-73E738B725DB,2023-09-27_12h38.07.523,WP_VExplicitOC_HL,2022.2.5,Win32,16.11291934,38.28125,5.2942,2.0077,NA,NA,NA,NA,NA,happy,"unhappy, happy","less happy, more happy",NA,NA,NA,NA,NA,NA,NA,NA,NA,NA,NA,NA,NA,NA,NA,0,0,0,0,1,NA,NA,NA,NA,NA,NA,NA,NA,NA,NA,NA,NA,NA,NA,NA,NA,NA,NA,NA,NA,NA,NA,NA,NA,NA,NA,NA,NA
SUPAMT89542,3I33IC7ZWL1HGUVFPMXLYTX80AV2A4,E633E90A-B0B7-418D-BE82-73E738B725DB,2023-09-27_12h38.07.523,WP_VExplicitOC_HL,2022.2.5,Win32,16.11291934,-42.70833333,4.0082,2.0787,NA,NA,NA,NA,NA,frustrated,"frustrated, not frustrated","more frustrated, less frustrated",NA,NA,NA,NA,NA,NA,NA,NA,NA,NA,NA,NA,NA,NA,NA,0,1,1,1,1,NA,NA,NA,NA,NA,NA,NA,NA,NA,NA,NA,NA,NA,NA,NA,NA,NA,NA,NA,NA,NA,NA,NA,NA,NA,NA,NA,NA
SUPAMT89542,3I33IC7ZWL1HGUVFPMXLYTX80AV2A4,E633E90A-B0B7-418D-BE82-73E738B725DB,2023-09-27_12h38.07.523,WP_VExplicitOC_HL,2022.2.5,Win32,16.11291934,NA,NA,2.0324,NA,NA,NA,NA,NA,bored,"bored, not bored","more bored, less bored",NA,NA,NA,NA,NA,NA,NA,NA,NA,NA,NA,NA,NA,NA,NA,0,2,2,2,1,NA,NA,NA,NA,NA,NA,NA,NA,NA,NA,NA,NA,NA,NA,NA,NA,NA,NA,NA,NA,NA,NA,NA,NA,NA,NA,NA,NA
SUPAMT89542,3I33IC7ZWL1HGUVFPMXLYTX80AV2A4,E633E90A-B0B7-418D-BE82-73E738B725DB,2023-09-27_12h38.07.523,WP_VExplicitOC_HL,2022.2.5,Win32,16.11291934,NA,NA,NA,NA,NA,NA,NA,NA,NA,NA,NA,NA,NA,NA,NA,NA,NA,NA,NA,NA,NA,NA,NA,NA,NA,NA,NA,NA,NA,NA,NA,14,0,14,0,1,NA,NA,NA,NA,NA,NA,NA,NA,NA,NA,NA,NA,NA,NA,NA,NA,NA,NA,NA,NA,NA,NA,NA
SUPAMT89542,3I33IC7ZWL1HGUVFPMXLYTX80AV2A4,E633E90A-B0B7-418D-BE82-73E738B725DB,2023-09-27_12h38.07.523,WP_VExplicitOC_HL,2022.2.5,Win32,16.11291934,NA,NA,NA,NA,NA,NA,NA,NA,NA,NA,NA,NA,NA,NA,NA,NA,NA,NA,NA,NA,NA,NA,NA,NA,NA,NA,NA,NA,NA,NA,NA,NA,NA,NA,NA,NA,NA,NA,NA,NA,NA,NA,NA,NA,NA,NA,NA,NA,NA,NA,NA,NA,NA,NA,NA,NA,NA,NA,NA
SUPAMT89542,3I33IC7ZWL1HGUVFPMXLYTX80AV2A4,E633E90A-B0B7-418D-BE82-73E738B725DB,2023-09-27_12h38.07.523,WP_VExplicitOC_HL,2022.2.5,Win32,16.11291934,NA,NA,NA,NA,NA,NA,NA,NA,NA,NA,NA,NA,NA,NA,NA,NA,NA,NA,NA,NA,NA,NA,NA,NA,NA,NA,NA,NA,NA,NA,NA,NA,NA,NA,NA,NA,NA,NA,NA,NA,NA,NA,NA,NA,NA,NA,NA,NA,NA,NA,NA,NA,NA,NA,NA,NA,NA,NA,NA
SUPAMT89542,3I33IC7ZWL1HGUVFPMXLYTX80AV2A4,E633E90A-B0B7-418D-BE82-73E738B725DB,2023-09-27_12h38.07.523,WP_VExplicitOC_HL,2022.2.5,Win32,16.11291934,NA,NA,NA,NA,NA,NA,NA,NA,NA,NA,NA,NA,NA,NA,NA,NA,NA,NA,rest (looking at a fixed cross),001.png,NA,NA,NA,NA,NA,NA,NA,NA,NA,NA,NA,NA,NA,NA,NA,NA,42.1875,2.878,0,0,0,0,1,NA,NA,NA,NA,NA,NA,NA,NA,NA,NA,NA,NA,NA,NA,NA,NA
SUPAMT89542,3I33IC7ZWL1HGUVFPMXLYTX80AV2A4,E633E90A-B0B7-418D-BE82-73E738B725DB,2023-09-27_12h38.07.523,WP_VExplicitOC_HL,2022.2.5,Win32,16.11291934,NA,NA,NA,NA,NA,NA,NA,NA,NA,NA,NA,NA,NA,NA,NA,NA,NA,NA,stand up,002.png,NA,NA,NA,NA,NA,NA,NA,NA,NA,NA,NA,NA,NA,NA,NA,NA,55.46875,1.7492,0,1,1,1,1,NA,NA,NA,NA,NA,NA,NA,NA,NA,NA,NA,NA,NA,NA,NA,NA
SUPAMT89542,3I33IC7ZWL1HGUVFPMXLYTX80AV2A4,E633E90A-B0B7-418D-BE82-73E738B725DB,2023-09-27_12h38.07.523,WP_VExplicitOC_HL,2022.2.5,Win32,16.11291934,NA,NA,NA,NA,NA,NA,NA,NA,NA,NA,NA,NA,NA,NA,NA,NA,NA,NA,stretch,003.png,NA,NA,NA,NA,NA,NA,NA,NA,NA,NA,NA,NA,NA,NA,NA,NA,62.23958333,1.4907,0,2,2,2,1,NA,NA,NA,NA,NA,NA,NA,NA,NA,NA,NA,NA,NA,NA,NA,NA
SUPAMT89542,3I33IC7ZWL1HGUVFPMXLYTX80AV2A4,E633E90A-B0B7-418D-BE82-73E738B725DB,2023-09-27_12h38.07.523,WP_VExplicitOC_HL,2022.2.5,Win32,16.11291934,NA,NA,NA,NA,NA,NA,NA,NA,NA,NA,NA,NA,NA,NA,NA,NA,NA,NA,make a drink,004.png,NA,NA,NA,NA,NA,NA,NA,NA,NA,NA,NA,NA,NA,NA,NA,NA,52.86458333,3.3026,0,3,3,3,1,NA,NA,NA,NA,NA,NA,NA,NA,NA,NA,NA,NA,NA,NA,NA,NA
SUPAMT89542,3I33IC7ZWL1HGUVFPMXLYTX80AV2A4,E633E90A-B0B7-418D-BE82-73E738B725DB,2023-09-27_12h38.07.523,WP_VExplicitOC_HL,2022.2.5,Win32,16.11291934,NA,NA,NA,NA,NA,NA,NA,NA,NA,NA,NA,NA,NA,NA,NA,NA,NA,NA,scroll social media,005.png,NA,NA,NA,NA,NA,NA,NA,NA,NA,NA,NA,NA,NA,NA,NA,NA,60.67708333,1.3964,0,4,4,4,1,NA,NA,NA,NA,NA,NA,NA,NA,NA,NA,NA,NA,NA,NA,NA,NA
SUPAMT89542,3I33IC7ZWL1HGUVFPMXLYTX80AV2A4,E633E90A-B0B7-418D-BE82-73E738B725DB,2023-09-27_12h38.07.523,WP_VExplicitOC_HL,2022.2.5,Win32,16.11291934,NA,NA,NA,NA,NA,NA,NA,NA,NA,NA,NA,NA,NA,NA,NA,NA,NA,NA,listen to music,006.png,NA,NA,NA,NA,NA,NA,NA,NA,NA,NA,NA,NA,NA,NA,NA,NA,69.79166667,1.5426,0,5,5,5,1,NA,NA,NA,NA,NA,NA,NA,NA,NA,NA,NA,NA,NA,NA,NA,NA
SUPAMT89542,3I33IC7ZWL1HGUVFPMXLYTX80AV2A4,E633E90A-B0B7-418D-BE82-73E738B725DB,2023-09-27_12h38.07.523,WP_VExplicitOC_HL,2022.2.5,Win32,16.11291934,NA,NA,NA,NA,NA,NA,NA,NA,NA,NA,NA,NA,NA,NA,NA,NA,NA,NA,daydream,007.png,NA,NA,NA,NA,NA,NA,NA,NA,NA,NA,NA,NA,NA,NA,NA,NA,64.84375,1.5221,0,6,6,6,1,NA,NA,NA,NA,NA,NA,NA,NA,NA,NA,NA,NA,NA,NA,NA,NA
SUPAMT89542,3I33IC7ZWL1HGUVFPMXLYTX80AV2A4,E633E90A-B0B7-418D-BE82-73E738B725DB,2023-09-27_12h38.07.523,WP_VExplicitOC_HL,2022.2.5,Win32,16.11291934,NA,NA,NA,NA,NA,NA,NA,NA,NA,NA,NA,NA,NA,NA,NA,NA,NA,NA,watch a short animation,008.png,NA,NA,NA,NA,NA,NA,NA,NA,NA,NA,NA,NA,NA,NA,NA,NA,55.72916667,1.6145,0,7,7,7,1,NA,NA,NA,NA,NA,NA,NA,NA,NA,NA,NA,NA,NA,NA,NA,NA
SUPAMT89542,3I33IC7ZWL1HGUVFPMXLYTX80AV2A4,E633E90A-B0B7-418D-BE82-73E738B725DB,2023-09-27_12h38.07.523,WP_VExplicitOC_HL,2022.2.5,Win32,16.11291934,NA,NA,NA,NA,NA,NA,NA,NA,NA,NA,NA,NA,NA,NA,NA,NA,NA,NA,read a novel,009.png,NA,NA,NA,NA,NA,NA,NA,NA,NA,NA,NA,NA,NA,NA,NA,NA,61.97916667,1.587,0,8,8,8,1,NA,NA,NA,NA,NA,NA,NA,NA,NA,NA,NA,NA,NA,NA,NA,NA
SUPAMT89542,3I33IC7ZWL1HGUVFPMXLYTX80AV2A4,E633E90A-B0B7-418D-BE82-73E738B725DB,2023-09-27_12h38.07.523,WP_VExplicitOC_HL,2022.2.5,Win32,16.11291934,NA,NA,NA,NA,NA,NA,NA,NA,NA,NA,NA,NA,NA,NA,NA,NA,NA,NA,read the news,010.png,NA,NA,NA,NA,NA,NA,NA,NA,NA,NA,NA,NA,NA,NA,NA,NA,64.0625,1.3577,0,9,9,9,1,NA,NA,NA,NA,NA,NA,NA,NA,NA,NA,NA,NA,NA,NA,NA,NA
SUPAMT89542,3I33IC7ZWL1HGUVFPMXLYTX80AV2A4,E633E90A-B0B7-418D-BE82-73E738B725DB,2023-09-27_12h38.07.523,WP_VExplicitOC_HL,2022.2.5,Win32,16.11291934,NA,NA,NA,NA,NA,NA,NA,NA,NA,NA,NA,NA,NA,NA,NA,NA,NA,NA,NA,NA,NA,NA,NA,NA,NA,NA,NA,NA,NA,NA,NA,NA,NA,NA,NA,NA,NA,NA,NA,NA,NA,NA,NA,make a drink,NA,NA,NA,NA,NA,NA,NA,NA,NA,NA,NA,NA,NA,NA,NA
SUPAMT89542,3I33IC7ZWL1HGUVFPMXLYTX80AV2A4,E633E90A-B0B7-418D-BE82-73E738B725DB,2023-09-27_12h38.07.523,WP_VExplicitOC_HL,2022.2.5,Win32,16.11291934,NA,NA,2.1031,NA,NA,NA,NA,NA,happy,"unhappy, happy","less happy, more happy",NA,NA,NA,NA,NA,NA,NA,NA,NA,NA,NA,NA,NA,NA,NA,NA,NA,NA,NA,NA,NA,NA,NA,NA,NA,NA,NA,NA,NA,NA,NA,NA,NA,0,0,0,0,1,NA,NA,NA,NA,NA,NA,NA,NA,NA,NA
SUPAMT89542,3I33IC7ZWL1HGUVFPMXLYTX80AV2A4,E633E90A-B0B7-418D-BE82-73E738B725DB,2023-09-27_12h38.07.523,WP_VExplicitOC_HL,2022.2.5,Win32,16.11291934,NA,NA,2.0239,NA,NA,NA,NA,NA,bored,"bored, not bored","more bored, less bored",NA,NA,NA,NA,NA,NA,NA,NA,NA,NA,NA,NA,NA,NA,NA,NA,NA,NA,NA,NA,NA,NA,NA,NA,NA,NA,NA,NA,NA,NA,NA,NA,NA,0,1,1,2,1,NA,NA,NA,NA,NA,NA,NA,NA,NA,NA
SUPAMT89542,3I33IC7ZWL1HGUVFPMXLYTX80AV2A4,E633E90A-B0B7-418D-BE82-73E738B725DB,2023-09-27_12h38.07.523,WP_VExplicitOC_HL,2022.2.5,Win32,16.11291934,NA,NA,2.0399,NA,NA,NA,NA,NA,frustrated,"frustrated, not frustrated","more frustrated, less frustrated",NA,NA,NA,NA,NA,NA,NA,NA,NA,NA,NA,NA,NA,NA,NA,NA,NA,NA,NA,NA,NA,NA,NA,NA,NA,NA,NA,NA,NA,NA,NA,NA,NA,0,2,2,1,1,NA,NA,NA,NA,NA,NA,NA,NA,NA,NA
SUPAMT89542,3I33IC7ZWL1HGUVFPMXLYTX80AV2A4,E633E90A-B0B7-418D-BE82-73E738B725DB,2023-09-27_12h38.07.523,WP_VExplicitOC_HL,2022.2.5,Win32,16.11291934,NA,NA,NA,NA,NA,NA,NA,NA,NA,NA,NA,NA,NA,NA,NA,NA,NA,NA,NA,NA,NA,NA,NA,NA,NA,NA,NA,NA,NA,NA,NA,NA,NA,NA,NA,NA,NA,NA,NA,NA,NA,NA,NA,NA,NA,NA,NA,NA,NA,NA,NA,NA,NA,NA,NA,NA,NA,NA,NA
SUPAMT89542,3I33IC7ZWL1HGUVFPMXLYTX80AV2A4,E633E90A-B0B7-418D-BE82-73E738B725DB,2023-09-27_12h38.07.523,WP_VExplicitOC_HL,2022.2.5,Win32,16.11291934,NA,NA,NA,NA,NA,NA,NA,NA,NA,NA,NA,NA,NA,NA,NA,NA,NA,NA,NA,NA,NA,NA,NA,NA,NA,NA,NA,NA,NA,NA,NA,NA,NA,NA,NA,NA,NA,NA,NA,NA,NA,NA,NA,NA,NA,NA,NA,NA,NA,NA,NA,NA,NA,NA,NA,NA,NA,NA,NA
SUPAMT89542,3I33IC7ZWL1HGUVFPMXLYTX80AV2A4,E633E90A-B0B7-418D-BE82-73E738B725DB,2023-09-27_12h38.07.523,WP_VExplicitOC_HL,2022.2.5,Win32,16.11291934,NA,NA,2.0903,NA,NA,NA,NA,NA,happy,"unhappy, happy","less happy, more happy",NA,NA,NA,NA,NA,NA,NA,NA,NA,NA,NA,NA,NA,NA,NA,NA,NA,NA,NA,NA,NA,NA,NA,NA,NA,NA,NA,NA,NA,NA,NA,NA,NA,NA,NA,NA,NA,NA,0,0,0,0,1,NA,NA,NA,NA,NA
SUPAMT89542,3I33IC7ZWL1HGUVFPMXLYTX80AV2A4,E633E90A-B0B7-418D-BE82-73E738B725DB,2023-09-27_12h38.07.523,WP_VExplicitOC_HL,2022.2.5,Win32,16.11291934,NA,NA,2.0111,NA,NA,NA,NA,NA,frustrated,"frustrated, not frustrated","more frustrated, less frustrated",NA,NA,NA,NA,NA,NA,NA,NA,NA,NA,NA,NA,NA,NA,NA,NA,NA,NA,NA,NA,NA,NA,NA,NA,NA,NA,NA,NA,NA,NA,NA,NA,NA,NA,NA,NA,NA,NA,0,1,1,1,1,NA,NA,NA,NA,NA
SUPAMT89542,3I33IC7ZWL1HGUVFPMXLYTX80AV2A4,E633E90A-B0B7-418D-BE82-73E738B725DB,2023-09-27_12h38.07.523,WP_VExplicitOC_HL,2022.2.5,Win32,16.11291934,NA,NA,2.0538,NA,NA,NA,NA,NA,bored,"bored, not bored","more bored, less bored",NA,NA,NA,NA,NA,NA,NA,NA,NA,NA,NA,NA,NA,NA,NA,NA,NA,NA,NA,NA,NA,NA,NA,NA,NA,NA,NA,NA,NA,NA,NA,NA,NA,NA,NA,NA,NA,NA,0,2,2,2,1,NA,NA,NA,NA,NA
SUPAMT89542,3I33IC7ZWL1HGUVFPMXLYTX80AV2A4,E633E90A-B0B7-418D-BE82-73E738B725DB,2023-09-27_12h38.07.523,WP_VExplicitOC_HL,2022.2.5,Win32,16.11291934,NA,NA,NA,NA,NA,NA,NA,NA,NA,NA,NA,NA,NA,NA,NA,NA,NA,NA,NA,NA,NA,NA,NA,NA,NA,NA,NA,NA,NA,NA,NA,NA,NA,NA,NA,NA,NA,NA,NA,NA,NA,NA,NA,NA,NA,NA,NA,NA,NA,NA,NA,NA,NA,NA,0,0,0,0,1
SUPAMT89542,3I33IC7ZWL1HGUVFPMXLYTX80AV2A4,E633E90A-B0B7-418D-BE82-73E738B725DB,2023-09-27_12h38.07.523,WP_VExplicitOC_HL,2022.2.5,Win32,16.11291934,NA,NA,2.0171,NA,NA,NA,NA,NA,bored,"bored, not bored","more bored, less bored",NA,NA,NA,NA,NA,NA,NA,NA,NA,NA,NA,NA,NA,NA,NA,NA,NA,NA,NA,NA,NA,NA,NA,NA,NA,NA,NA,NA,NA,NA,NA,NA,NA,NA,NA,NA,NA,NA,0,0,0,2,1,NA,NA,NA,NA,NA
SUPAMT89542,3I33IC7ZWL1HGUVFPMXLYTX80AV2A4,E633E90A-B0B7-418D-BE82-73E738B725DB,2023-09-27_12h38.07.523,WP_VExplicitOC_HL,2022.2.5,Win32,16.11291934,NA,NA,2.0234,NA,NA,NA,NA,NA,happy,"unhappy, happy","less happy, more happy",NA,NA,NA,NA,NA,NA,NA,NA,NA,NA,NA,NA,NA,NA,NA,NA,NA,NA,NA,NA,NA,NA,NA,NA,NA,NA,NA,NA,NA,NA,NA,NA,NA,NA,NA,NA,NA,NA,0,1,1,0,1,NA,NA,NA,NA,NA
SUPAMT89542,3I33IC7ZWL1HGUVFPMXLYTX80AV2A4,E633E90A-B0B7-418D-BE82-73E738B725DB,2023-09-27_12h38.07.523,WP_VExplicitOC_HL,2022.2.5,Win32,16.11291934,NA,NA,2.0815,NA,NA,NA,NA,NA,frustrated,"frustrated, not frustrated","more frustrated, less frustrated",NA,NA,NA,NA,NA,NA,NA,NA,NA,NA,NA,NA,NA,NA,NA,NA,NA,NA,NA,NA,NA,NA,NA,NA,NA,NA,NA,NA,NA,NA,NA,NA,NA,NA,NA,NA,NA,NA,0,2,2,1,1,NA,NA,NA,NA,NA
SUPAMT89542,3I33IC7ZWL1HGUVFPMXLYTX80AV2A4,E633E90A-B0B7-418D-BE82-73E738B725DB,2023-09-27_12h38.07.523,WP_VExplicitOC_HL,2022.2.5,Win32,16.11291934,NA,NA,NA,NA,NA,NA,NA,NA,NA,NA,NA,NA,NA,NA,NA,NA,NA,NA,NA,NA,NA,NA,NA,NA,NA,NA,NA,NA,NA,NA,NA,NA,NA,NA,NA,NA,NA,NA,NA,NA,NA,NA,NA,NA,NA,NA,NA,NA,NA,NA,NA,NA,NA,NA,1,0,1,0,1
SUPAMT89542,3I33IC7ZWL1HGUVFPMXLYTX80AV2A4,E633E90A-B0B7-418D-BE82-73E738B725DB,2023-09-27_12h38.07.523,WP_VExplicitOC_HL,2022.2.5,Win32,16.11291934,-50.26041667,4.172,2.108,NA,NA,NA,NA,NA,frustrated,"frustrated, not frustrated","more frustrated, less frustrated",NA,NA,NA,NA,NA,NA,NA,NA,NA,NA,NA,NA,NA,NA,NA,NA,NA,NA,NA,NA,NA,NA,NA,NA,NA,NA,NA,NA,NA,NA,NA,NA,NA,NA,NA,NA,NA,NA,0,0,0,1,1,NA,NA,NA,NA,NA
SUPAMT89542,3I33IC7ZWL1HGUVFPMXLYTX80AV2A4,E633E90A-B0B7-418D-BE82-73E738B725DB,2023-09-27_12h38.07.523,WP_VExplicitOC_HL,2022.2.5,Win32,16.11291934,66.14583333,3.9953,2.101,NA,NA,NA,NA,NA,happy,"unhappy, happy","less happy, more happy",NA,NA,NA,NA,NA,NA,NA,NA,NA,NA,NA,NA,NA,NA,NA,NA,NA,NA,NA,NA,NA,NA,NA,NA,NA,NA,NA,NA,NA,NA,NA,NA,NA,NA,NA,NA,NA,NA,0,1,1,0,1,NA,NA,NA,NA,NA
SUPAMT89542,3I33IC7ZWL1HGUVFPMXLYTX80AV2A4,E633E90A-B0B7-418D-BE82-73E738B725DB,2023-09-27_12h38.07.523,WP_VExplicitOC_HL,2022.2.5,Win32,16.11291934,-42.44791667,3.7875,2.0483,NA,NA,NA,NA,NA,bored,"bored, not bored","more bored, less bored",NA,NA,NA,NA,NA,NA,NA,NA,NA,NA,NA,NA,NA,NA,NA,NA,NA,NA,NA,NA,NA,NA,NA,NA,NA,NA,NA,NA,NA,NA,NA,NA,NA,NA,NA,NA,NA,NA,0,2,2,2,1,NA,NA,NA,NA,NA
SUPAMT89542,3I33IC7ZWL1HGUVFPMXLYTX80AV2A4,E633E90A-B0B7-418D-BE82-73E738B725DB,2023-09-27_12h38.07.523,WP_VExplicitOC_HL,2022.2.5,Win32,16.11291934,NA,NA,NA,NA,NA,NA,NA,NA,NA,NA,NA,NA,NA,NA,NA,NA,NA,NA,NA,NA,NA,NA,NA,NA,NA,NA,NA,NA,NA,NA,NA,NA,NA,NA,NA,NA,NA,NA,NA,NA,NA,NA,NA,NA,NA,NA,NA,NA,NA,NA,NA,NA,NA,NA,2,0,2,0,1
SUPAMT89542,3I33IC7ZWL1HGUVFPMXLYTX80AV2A4,E633E90A-B0B7-418D-BE82-73E738B725DB,2023-09-27_12h38.07.523,WP_VExplicitOC_HL,2022.2.5,Win32,16.11291934,-47.91666667,3.954,2.0645,NA,NA,NA,NA,NA,bored,"bored, not bored","more bored, less bored",NA,NA,NA,NA,NA,NA,NA,NA,NA,NA,NA,NA,NA,NA,NA,NA,NA,NA,NA,NA,NA,NA,NA,NA,NA,NA,NA,NA,NA,NA,NA,NA,NA,NA,NA,NA,NA,NA,0,0,0,2,1,NA,NA,NA,NA,NA
SUPAMT89542,3I33IC7ZWL1HGUVFPMXLYTX80AV2A4,E633E90A-B0B7-418D-BE82-73E738B725DB,2023-09-27_12h38.07.523,WP_VExplicitOC_HL,2022.2.5,Win32,16.11291934,-61.97916667,4.1151,2.0581,NA,NA,NA,NA,NA,frustrated,"frustrated, not frustrated","more frustrated, less frustrated",NA,NA,NA,NA,NA,NA,NA,NA,NA,NA,NA,NA,NA,NA,NA,NA,NA,NA,NA,NA,NA,NA,NA,NA,NA,NA,NA,NA,NA,NA,NA,NA,NA,NA,NA,NA,NA,NA,0,1,1,1,1,NA,NA,NA,NA,NA
SUPAMT89542,3I33IC7ZWL1HGUVFPMXLYTX80AV2A4,E633E90A-B0B7-418D-BE82-73E738B725DB,2023-09-27_12h38.07.523,WP_VExplicitOC_HL,2022.2.5,Win32,16.11291934,43.48958333,3.7848,2.097,NA,NA,NA,NA,NA,happy,"unhappy, happy","less happy, more happy",NA,NA,NA,NA,NA,NA,NA,NA,NA,NA,NA,NA,NA,NA,NA,NA,NA,NA,NA,NA,NA,NA,NA,NA,NA,NA,NA,NA,NA,NA,NA,NA,NA,NA,NA,NA,NA,NA,0,2,2,0,1,NA,NA,NA,NA,NA
SUPAMT89542,3I33IC7ZWL1HGUVFPMXLYTX80AV2A4,E633E90A-B0B7-418D-BE82-73E738B725DB,2023-09-27_12h38.07.523,WP_VExplicitOC_HL,2022.2.5,Win32,16.11291934,NA,NA,NA,NA,NA,NA,NA,NA,NA,NA,NA,NA,NA,NA,NA,NA,NA,NA,NA,NA,NA,NA,NA,NA,NA,NA,NA,NA,NA,NA,NA,NA,NA,NA,NA,NA,NA,NA,NA,NA,NA,NA,NA,NA,NA,NA,NA,NA,NA,NA,NA,NA,NA,NA,3,0,3,0,1
SUPAMT89542,3I33IC7ZWL1HGUVFPMXLYTX80AV2A4,E633E90A-B0B7-418D-BE82-73E738B725DB,2023-09-27_12h38.07.523,WP_VExplicitOC_HL,2022.2.5,Win32,16.11291934,-45.05208333,3.7872,2.0926,NA,NA,NA,NA,NA,bored,"bored, not bored","more bored, less bored",NA,NA,NA,NA,NA,NA,NA,NA,NA,NA,NA,NA,NA,NA,NA,NA,NA,NA,NA,NA,NA,NA,NA,NA,NA,NA,NA,NA,NA,NA,NA,NA,NA,NA,NA,NA,NA,NA,0,0,0,2,1,NA,NA,NA,NA,NA
SUPAMT89542,3I33IC7ZWL1HGUVFPMXLYTX80AV2A4,E633E90A-B0B7-418D-BE82-73E738B725DB,2023-09-27_12h38.07.523,WP_VExplicitOC_HL,2022.2.5,Win32,16.11291934,71.35416667,4.1487,2.0025,NA,NA,NA,NA,NA,happy,"unhappy, happy","less happy, more happy",NA,NA,NA,NA,NA,NA,NA,NA,NA,NA,NA,NA,NA,NA,NA,NA,NA,NA,NA,NA,NA,NA,NA,NA,NA,NA,NA,NA,NA,NA,NA,NA,NA,NA,NA,NA,NA,NA,0,1,1,0,1,NA,NA,NA,NA,NA
SUPAMT89542,3I33IC7ZWL1HGUVFPMXLYTX80AV2A4,E633E90A-B0B7-418D-BE82-73E738B725DB,2023-09-27_12h38.07.523,WP_VExplicitOC_HL,2022.2.5,Win32,16.11291934,-50.78125,3.8117,2.0699,NA,NA,NA,NA,NA,frustrated,"frustrated, not frustrated","more frustrated, less frustrated",NA,NA,NA,NA,NA,NA,NA,NA,NA,NA,NA,NA,NA,NA,NA,NA,NA,NA,NA,NA,NA,NA,NA,NA,NA,NA,NA,NA,NA,NA,NA,NA,NA,NA,NA,NA,NA,NA,0,2,2,1,1,NA,NA,NA,NA,NA
SUPAMT89542,3I33IC7ZWL1HGUVFPMXLYTX80AV2A4,E633E90A-B0B7-418D-BE82-73E738B725DB,2023-09-27_12h38.07.523,WP_VExplicitOC_HL,2022.2.5,Win32,16.11291934,NA,NA,NA,NA,NA,NA,NA,NA,NA,NA,NA,NA,NA,NA,NA,NA,NA,NA,NA,NA,NA,NA,NA,NA,NA,NA,NA,NA,NA,NA,NA,NA,NA,NA,NA,NA,NA,NA,NA,NA,NA,NA,NA,NA,NA,NA,NA,NA,NA,NA,NA,NA,NA,NA,4,0,4,0,1
SUPAMT89542,3I33IC7ZWL1HGUVFPMXLYTX80AV2A4,E633E90A-B0B7-418D-BE82-73E738B725DB,2023-09-27_12h38.07.523,WP_VExplicitOC_HL,2022.2.5,Win32,16.11291934,-57.55208333,3.8388,2.0213,NA,NA,NA,NA,NA,bored,"bored, not bored","more bored, less bored",NA,NA,NA,NA,NA,NA,NA,NA,NA,NA,NA,NA,NA,NA,NA,NA,NA,NA,NA,NA,NA,NA,NA,NA,NA,NA,NA,NA,NA,NA,NA,NA,NA,NA,NA,NA,NA,NA,0,0,0,2,1,NA,NA,NA,NA,NA
SUPAMT89542,3I33IC7ZWL1HGUVFPMXLYTX80AV2A4,E633E90A-B0B7-418D-BE82-73E738B725DB,2023-09-27_12h38.07.523,WP_VExplicitOC_HL,2022.2.5,Win32,16.11291934,-45.3125,5.4996,2.0365,NA,NA,NA,NA,NA,frustrated,"frustrated, not frustrated","more frustrated, less frustrated",NA,NA,NA,NA,NA,NA,NA,NA,NA,NA,NA,NA,NA,NA,NA,NA,NA,NA,NA,NA,NA,NA,NA,NA,NA,NA,NA,NA,NA,NA,NA,NA,NA,NA,NA,NA,NA,NA,0,1,1,1,1,NA,NA,NA,NA,NA
SUPAMT89542,3I33IC7ZWL1HGUVFPMXLYTX80AV2A4,E633E90A-B0B7-418D-BE82-73E738B725DB,2023-09-27_12h38.07.523,WP_VExplicitOC_HL,2022.2.5,Win32,16.11291934,62.76041667,3.6637,2.0878,NA,NA,NA,NA,NA,happy,"unhappy, happy","less happy, more happy",NA,NA,NA,NA,NA,NA,NA,NA,NA,NA,NA,NA,NA,NA,NA,NA,NA,NA,NA,NA,NA,NA,NA,NA,NA,NA,NA,NA,NA,NA,NA,NA,NA,NA,NA,NA,NA,NA,0,2,2,0,1,NA,NA,NA,NA,NA
SUPAMT89542,3I33IC7ZWL1HGUVFPMXLYTX80AV2A4,E633E90A-B0B7-418D-BE82-73E738B725DB,2023-09-27_12h38.07.523,WP_VExplicitOC_HL,2022.2.5,Win32,16.11291934,NA,NA,NA,NA,NA,NA,NA,NA,NA,NA,NA,NA,NA,NA,NA,NA,NA,NA,NA,NA,NA,NA,NA,NA,NA,NA,NA,NA,NA,NA,NA,NA,NA,NA,NA,NA,NA,NA,NA,NA,NA,NA,NA,NA,NA,NA,NA,NA,NA,NA,NA,NA,NA,NA,5,0,5,0,1
SUPAMT89542,3I33IC7ZWL1HGUVFPMXLYTX80AV2A4,E633E90A-B0B7-418D-BE82-73E738B725DB,2023-09-27_12h38.07.523,WP_VExplicitOC_HL,2022.2.5,Win32,16.11291934,-73.4375,4.1744,2.0404,NA,NA,NA,NA,NA,frustrated,"frustrated, not frustrated","more frustrated, less frustrated",NA,NA,NA,NA,NA,NA,NA,NA,NA,NA,NA,NA,NA,NA,NA,NA,NA,NA,NA,NA,NA,NA,NA,NA,NA,NA,NA,NA,NA,NA,NA,NA,NA,NA,NA,NA,NA,NA,0,0,0,1,1,NA,NA,NA,NA,NA
SUPAMT89542,3I33IC7ZWL1HGUVFPMXLYTX80AV2A4,E633E90A-B0B7-418D-BE82-73E738B725DB,2023-09-27_12h38.07.523,WP_VExplicitOC_HL,2022.2.5,Win32,16.11291934,51.5625,3.4952,2.021,NA,NA,NA,NA,NA,happy,"unhappy, happy","less happy, more happy",NA,NA,NA,NA,NA,NA,NA,NA,NA,NA,NA,NA,NA,NA,NA,NA,NA,NA,NA,NA,NA,NA,NA,NA,NA,NA,NA,NA,NA,NA,NA,NA,NA,NA,NA,NA,NA,NA,0,1,1,0,1,NA,NA,NA,NA,NA
SUPAMT89542,3I33IC7ZWL1HGUVFPMXLYTX80AV2A4,E633E90A-B0B7-418D-BE82-73E738B725DB,2023-09-27_12h38.07.523,WP_VExplicitOC_HL,2022.2.5,Win32,16.11291934,-42.1875,4.0881,2.1808,NA,NA,NA,NA,NA,bored,"bored, not bored","more bored, less bored",NA,NA,NA,NA,NA,NA,NA,NA,NA,NA,NA,NA,NA,NA,NA,NA,NA,NA,NA,NA,NA,NA,NA,NA,NA,NA,NA,NA,NA,NA,NA,NA,NA,NA,NA,NA,NA,NA,0,2,2,2,1,NA,NA,NA,NA,NA
SUPAMT89542,3I33IC7ZWL1HGUVFPMXLYTX80AV2A4,E633E90A-B0B7-418D-BE82-73E738B725DB,2023-09-27_12h38.07.523,WP_VExplicitOC_HL,2022.2.5,Win32,16.11291934,NA,NA,NA,NA,NA,NA,NA,NA,NA,NA,NA,NA,NA,NA,NA,NA,NA,NA,NA,NA,NA,NA,NA,NA,NA,NA,NA,NA,NA,NA,NA,NA,NA,NA,NA,NA,NA,NA,NA,NA,NA,NA,NA,NA,NA,NA,NA,NA,NA,NA,NA,NA,NA,NA,6,0,6,0,1
SUPAMT89542,3I33IC7ZWL1HGUVFPMXLYTX80AV2A4,E633E90A-B0B7-418D-BE82-73E738B725DB,2023-09-27_12h38.07.523,WP_VExplicitOC_HL,2022.2.5,Win32,16.11291934,-63.80208333,3.7724,2.0661,NA,NA,NA,NA,NA,frustrated,"frustrated, not frustrated","more frustrated, less frustrated",NA,NA,NA,NA,NA,NA,NA,NA,NA,NA,NA,NA,NA,NA,NA,NA,NA,NA,NA,NA,NA,NA,NA,NA,NA,NA,NA,NA,NA,NA,NA,NA,NA,NA,NA,NA,NA,NA,0,0,0,1,1,NA,NA,NA,NA,NA
SUPAMT89542,3I33IC7ZWL1HGUVFPMXLYTX80AV2A4,E633E90A-B0B7-418D-BE82-73E738B725DB,2023-09-27_12h38.07.523,WP_VExplicitOC_HL,2022.2.5,Win32,16.11291934,78.38541667,3.715,2.0016,NA,NA,NA,NA,NA,happy,"unhappy, happy","less happy, more happy",NA,NA,NA,NA,NA,NA,NA,NA,NA,NA,NA,NA,NA,NA,NA,NA,NA,NA,NA,NA,NA,NA,NA,NA,NA,NA,NA,NA,NA,NA,NA,NA,NA,NA,NA,NA,NA,NA,0,1,1,0,1,NA,NA,NA,NA,NA
SUPAMT89542,3I33IC7ZWL1HGUVFPMXLYTX80AV2A4,E633E90A-B0B7-418D-BE82-73E738B725DB,2023-09-27_12h38.07.523,WP_VExplicitOC_HL,2022.2.5,Win32,16.11291934,-72.13541667,3.9081,2.0665,NA,NA,NA,NA,NA,bored,"bored, not bored","more bored, less bored",NA,NA,NA,NA,NA,NA,NA,NA,NA,NA,NA,NA,NA,NA,NA,NA,NA,NA,NA,NA,NA,NA,NA,NA,NA,NA,NA,NA,NA,NA,NA,NA,NA,NA,NA,NA,NA,NA,0,2,2,2,1,NA,NA,NA,NA,NA
SUPAMT89542,3I33IC7ZWL1HGUVFPMXLYTX80AV2A4,E633E90A-B0B7-418D-BE82-73E738B725DB,2023-09-27_12h38.07.523,WP_VExplicitOC_HL,2022.2.5,Win32,16.11291934,NA,NA,NA,NA,NA,NA,NA,NA,NA,NA,NA,NA,NA,NA,NA,NA,NA,NA,NA,NA,NA,NA,NA,NA,NA,NA,NA,NA,NA,NA,NA,NA,NA,NA,NA,NA,NA,NA,NA,NA,NA,NA,NA,NA,NA,NA,NA,NA,NA,NA,NA,NA,NA,NA,7,0,7,0,1
SUPAMT89542,3I33IC7ZWL1HGUVFPMXLYTX80AV2A4,E633E90A-B0B7-418D-BE82-73E738B725DB,2023-09-27_12h38.07.523,WP_VExplicitOC_HL,2022.2.5,Win32,16.11291934,-71.35416667,3.6634,2.0274,NA,NA,NA,NA,NA,bored,"bored, not bored","more bored, less bored",NA,NA,NA,NA,NA,NA,NA,NA,NA,NA,NA,NA,NA,NA,NA,NA,NA,NA,NA,NA,NA,NA,NA,NA,NA,NA,NA,NA,NA,NA,NA,NA,NA,NA,NA,NA,NA,NA,0,0,0,2,1,NA,NA,NA,NA,NA
SUPAMT89542,3I33IC7ZWL1HGUVFPMXLYTX80AV2A4,E633E90A-B0B7-418D-BE82-73E738B725DB,2023-09-27_12h38.07.523,WP_VExplicitOC_HL,2022.2.5,Win32,16.11291934,65.88541667,3.8382,2.0254,NA,NA,NA,NA,NA,happy,"unhappy, happy","less happy, more happy",NA,NA,NA,NA,NA,NA,NA,NA,NA,NA,NA,NA,NA,NA,NA,NA,NA,NA,NA,NA,NA,NA,NA,NA,NA,NA,NA,NA,NA,NA,NA,NA,NA,NA,NA,NA,NA,NA,0,1,1,0,1,NA,NA,NA,NA,NA
SUPAMT89542,3I33IC7ZWL1HGUVFPMXLYTX80AV2A4,E633E90A-B0B7-418D-BE82-73E738B725DB,2023-09-27_12h38.07.523,WP_VExplicitOC_HL,2022.2.5,Win32,16.11291934,-67.44791667,3.5201,2.0194,NA,NA,NA,NA,NA,frustrated,"frustrated, not frustrated","more frustrated, less frustrated",NA,NA,NA,NA,NA,NA,NA,NA,NA,NA,NA,NA,NA,NA,NA,NA,NA,NA,NA,NA,NA,NA,NA,NA,NA,NA,NA,NA,NA,NA,NA,NA,NA,NA,NA,NA,NA,NA,0,2,2,1,1,NA,NA,NA,NA,NA
SUPAMT89542,3I33IC7ZWL1HGUVFPMXLYTX80AV2A4,E633E90A-B0B7-418D-BE82-73E738B725DB,2023-09-27_12h38.07.523,WP_VExplicitOC_HL,2022.2.5,Win32,16.11291934,NA,NA,NA,NA,NA,NA,NA,NA,NA,NA,NA,NA,NA,NA,NA,NA,NA,NA,NA,NA,NA,NA,NA,NA,NA,NA,NA,NA,NA,NA,NA,NA,NA,NA,NA,NA,NA,NA,NA,NA,NA,NA,NA,NA,NA,NA,NA,NA,NA,NA,NA,NA,NA,NA,8,0,8,0,1
SUPAMT89542,3I33IC7ZWL1HGUVFPMXLYTX80AV2A4,E633E90A-B0B7-418D-BE82-73E738B725DB,2023-09-27_12h38.07.523,WP_VExplicitOC_HL,2022.2.5,Win32,16.11291934,-78.125,6.2275,2.0962,NA,NA,NA,NA,NA,bored,"bored, not bored","more bored, less bored",NA,NA,NA,NA,NA,NA,NA,NA,NA,NA,NA,NA,NA,NA,NA,NA,NA,NA,NA,NA,NA,NA,NA,NA,NA,NA,NA,NA,NA,NA,NA,NA,NA,NA,NA,NA,NA,NA,0,0,0,2,1,NA,NA,NA,NA,NA
SUPAMT89542,3I33IC7ZWL1HGUVFPMXLYTX80AV2A4,E633E90A-B0B7-418D-BE82-73E738B725DB,2023-09-27_12h38.07.523,WP_VExplicitOC_HL,2022.2.5,Win32,16.11291934,-51.5625,4.1079,2.0612,NA,NA,NA,NA,NA,frustrated,"frustrated, not frustrated","more frustrated, less frustrated",NA,NA,NA,NA,NA,NA,NA,NA,NA,NA,NA,NA,NA,NA,NA,NA,NA,NA,NA,NA,NA,NA,NA,NA,NA,NA,NA,NA,NA,NA,NA,NA,NA,NA,NA,NA,NA,NA,0,1,1,1,1,NA,NA,NA,NA,NA
SUPAMT89542,3I33IC7ZWL1HGUVFPMXLYTX80AV2A4,E633E90A-B0B7-418D-BE82-73E738B725DB,2023-09-27_12h38.07.523,WP_VExplicitOC_HL,2022.2.5,Win32,16.11291934,NA,NA,2.0112,NA,NA,NA,NA,NA,happy,"unhappy, happy","less happy, more happy",NA,NA,NA,NA,NA,NA,NA,NA,NA,NA,NA,NA,NA,NA,NA,NA,NA,NA,NA,NA,NA,NA,NA,NA,NA,NA,NA,NA,NA,NA,NA,NA,NA,NA,NA,NA,NA,NA,0,2,2,0,1,NA,NA,NA,NA,NA
SUPAMT89542,3I33IC7ZWL1HGUVFPMXLYTX80AV2A4,E633E90A-B0B7-418D-BE82-73E738B725DB,2023-09-27_12h38.07.523,WP_VExplicitOC_HL,2022.2.5,Win32,16.11291934,NA,NA,NA,NA,NA,NA,NA,NA,NA,NA,NA,NA,NA,NA,NA,NA,NA,NA,NA,NA,NA,NA,NA,NA,NA,NA,NA,NA,NA,NA,NA,NA,NA,NA,NA,NA,NA,NA,NA,NA,NA,NA,NA,NA,NA,NA,NA,NA,NA,NA,NA,NA,NA,NA,9,0,9,0,1
SUPAMT89542,3I33IC7ZWL1HGUVFPMXLYTX80AV2A4,E633E90A-B0B7-418D-BE82-73E738B725DB,2023-09-27_12h38.07.523,WP_VExplicitOC_HL,2022.2.5,Win32,16.11291934,-65.625,4.1809,2.0179,NA,NA,NA,NA,NA,bored,"bored, not bored","more bored, less bored",NA,NA,NA,NA,NA,NA,NA,NA,NA,NA,NA,NA,NA,NA,NA,NA,NA,NA,NA,NA,NA,NA,NA,NA,NA,NA,NA,NA,NA,NA,NA,NA,NA,NA,NA,NA,NA,NA,0,0,0,2,1,NA,NA,NA,NA,NA
SUPAMT89542,3I33IC7ZWL1HGUVFPMXLYTX80AV2A4,E633E90A-B0B7-418D-BE82-73E738B725DB,2023-09-27_12h38.07.523,WP_VExplicitOC_HL,2022.2.5,Win32,16.11291934,67.1875,3.713,2.0724,NA,NA,NA,NA,NA,happy,"unhappy, happy","less happy, more happy",NA,NA,NA,NA,NA,NA,NA,NA,NA,NA,NA,NA,NA,NA,NA,NA,NA,NA,NA,NA,NA,NA,NA,NA,NA,NA,NA,NA,NA,NA,NA,NA,NA,NA,NA,NA,NA,NA,0,1,1,0,1,NA,NA,NA,NA,NA
SUPAMT89542,3I33IC7ZWL1HGUVFPMXLYTX80AV2A4,E633E90A-B0B7-418D-BE82-73E738B725DB,2023-09-27_12h38.07.523,WP_VExplicitOC_HL,2022.2.5,Win32,16.11291934,-65.10416667,3.5989,2.0435,NA,NA,NA,NA,NA,frustrated,"frustrated, not frustrated","more frustrated, less frustrated",NA,NA,NA,NA,NA,NA,NA,NA,NA,NA,NA,NA,NA,NA,NA,NA,NA,NA,NA,NA,NA,NA,NA,NA,NA,NA,NA,NA,NA,NA,NA,NA,NA,NA,NA,NA,NA,NA,0,2,2,1,1,NA,NA,NA,NA,NA
SUPAMT89542,3I33IC7ZWL1HGUVFPMXLYTX80AV2A4,E633E90A-B0B7-418D-BE82-73E738B725DB,2023-09-27_12h38.07.523,WP_VExplicitOC_HL,2022.2.5,Win32,16.11291934,NA,NA,NA,NA,NA,NA,NA,NA,NA,NA,NA,NA,NA,NA,NA,NA,NA,NA,NA,NA,NA,NA,NA,NA,NA,NA,NA,NA,NA,NA,NA,NA,NA,NA,NA,NA,NA,NA,NA,NA,NA,NA,NA,NA,NA,NA,NA,NA,NA,NA,NA,NA,NA,NA,10,0,10,0,1
SUPAMT89542,3I33IC7ZWL1HGUVFPMXLYTX80AV2A4,E633E90A-B0B7-418D-BE82-73E738B725DB,2023-09-27_12h38.07.523,WP_VExplicitOC_HL,2022.2.5,Win32,16.11291934,48.4375,3.5085,2.0065,NA,NA,NA,NA,NA,happy,"unhappy, happy","less happy, more happy",NA,NA,NA,NA,NA,NA,NA,NA,NA,NA,NA,NA,NA,NA,NA,NA,NA,NA,NA,NA,NA,NA,NA,NA,NA,NA,NA,NA,NA,NA,NA,NA,NA,NA,NA,NA,NA,NA,0,0,0,0,1,NA,NA,NA,NA,NA
SUPAMT89542,3I33IC7ZWL1HGUVFPMXLYTX80AV2A4,E633E90A-B0B7-418D-BE82-73E738B725DB,2023-09-27_12h38.07.523,WP_VExplicitOC_HL,2022.2.5,Win32,16.11291934,-42.70833333,3.8844,2.0266,NA,NA,NA,NA,NA,frustrated,"frustrated, not frustrated","more frustrated, less frustrated",NA,NA,NA,NA,NA,NA,NA,NA,NA,NA,NA,NA,NA,NA,NA,NA,NA,NA,NA,NA,NA,NA,NA,NA,NA,NA,NA,NA,NA,NA,NA,NA,NA,NA,NA,NA,NA,NA,0,1,1,1,1,NA,NA,NA,NA,NA
SUPAMT89542,3I33IC7ZWL1HGUVFPMXLYTX80AV2A4,E633E90A-B0B7-418D-BE82-73E738B725DB,2023-09-27_12h38.07.523,WP_VExplicitOC_HL,2022.2.5,Win32,16.11291934,-40.88541667,3.6028,2.0232,NA,NA,NA,NA,NA,bored,"bored, not bored","more bored, less bored",NA,NA,NA,NA,NA,NA,NA,NA,NA,NA,NA,NA,NA,NA,NA,NA,NA,NA,NA,NA,NA,NA,NA,NA,NA,NA,NA,NA,NA,NA,NA,NA,NA,NA,NA,NA,NA,NA,0,2,2,2,1,NA,NA,NA,NA,NA
SUPAMT89542,3I33IC7ZWL1HGUVFPMXLYTX80AV2A4,E633E90A-B0B7-418D-BE82-73E738B725DB,2023-09-27_12h38.07.523,WP_VExplicitOC_HL,2022.2.5,Win32,16.11291934,NA,NA,NA,NA,NA,NA,NA,NA,NA,NA,NA,NA,NA,NA,NA,NA,NA,NA,NA,NA,NA,NA,NA,NA,NA,NA,NA,NA,NA,NA,NA,NA,NA,NA,NA,NA,NA,NA,NA,NA,NA,NA,NA,NA,NA,NA,NA,NA,NA,NA,NA,NA,NA,NA,11,0,11,0,1
SUPAMT89542,3I33IC7ZWL1HGUVFPMXLYTX80AV2A4,E633E90A-B0B7-418D-BE82-73E738B725DB,2023-09-27_12h38.07.523,WP_VExplicitOC_HL,2022.2.5,Win32,16.11291934,-35.41666667,3.7652,2.0145,NA,NA,NA,NA,NA,frustrated,"frustrated, not frustrated","more frustrated, less frustrated",NA,NA,NA,NA,NA,NA,NA,NA,NA,NA,NA,NA,NA,NA,NA,NA,NA,NA,NA,NA,NA,NA,NA,NA,NA,NA,NA,NA,NA,NA,NA,NA,NA,NA,NA,NA,NA,NA,0,0,0,1,1,NA,NA,NA,NA,NA
SUPAMT89542,3I33IC7ZWL1HGUVFPMXLYTX80AV2A4,E633E90A-B0B7-418D-BE82-73E738B725DB,2023-09-27_12h38.07.523,WP_VExplicitOC_HL,2022.2.5,Win32,16.11291934,63.28125,3.8873,2.0115,NA,NA,NA,NA,NA,happy,"unhappy, happy","less happy, more happy",NA,NA,NA,NA,NA,NA,NA,NA,NA,NA,NA,NA,NA,NA,NA,NA,NA,NA,NA,NA,NA,NA,NA,NA,NA,NA,NA,NA,NA,NA,NA,NA,NA,NA,NA,NA,NA,NA,0,1,1,0,1,NA,NA,NA,NA,NA
SUPAMT89542,3I33IC7ZWL1HGUVFPMXLYTX80AV2A4,E633E90A-B0B7-418D-BE82-73E738B725DB,2023-09-27_12h38.07.523,WP_VExplicitOC_HL,2022.2.5,Win32,16.11291934,-57.55208333,3.8023,2.0209,NA,NA,NA,NA,NA,bored,"bored, not bored","more bored, less bored",NA,NA,NA,NA,NA,NA,NA,NA,NA,NA,NA,NA,NA,NA,NA,NA,NA,NA,NA,NA,NA,NA,NA,NA,NA,NA,NA,NA,NA,NA,NA,NA,NA,NA,NA,NA,NA,NA,0,2,2,2,1,NA,NA,NA,NA,NA
SUPAMT89542,3I33IC7ZWL1HGUVFPMXLYTX80AV2A4,E633E90A-B0B7-418D-BE82-73E738B725DB,2023-09-27_12h38.07.523,WP_VExplicitOC_HL,2022.2.5,Win32,16.11291934,NA,NA,NA,NA,NA,NA,NA,NA,NA,NA,NA,NA,NA,NA,NA,NA,NA,NA,NA,NA,NA,NA,NA,NA,NA,NA,NA,NA,NA,NA,NA,NA,NA,NA,NA,NA,NA,NA,NA,NA,NA,NA,NA,NA,NA,NA,NA,NA,NA,NA,NA,NA,NA,NA,12,0,12,0,1
SUPAMT89542,3I33IC7ZWL1HGUVFPMXLYTX80AV2A4,E633E90A-B0B7-418D-BE82-73E738B725DB,2023-09-27_12h38.07.523,WP_VExplicitOC_HL,2022.2.5,Win32,16.11291934,-89.58333333,5.6095,2.0901,NA,NA,NA,NA,NA,frustrated,"frustrated, not frustrated","more frustrated, less frustrated",NA,NA,NA,NA,NA,NA,NA,NA,NA,NA,NA,NA,NA,NA,NA,NA,NA,NA,NA,NA,NA,NA,NA,NA,NA,NA,NA,NA,NA,NA,NA,NA,NA,NA,NA,NA,NA,NA,0,0,0,1,1,NA,NA,NA,NA,NA
SUPAMT89542,3I33IC7ZWL1HGUVFPMXLYTX80AV2A4,E633E90A-B0B7-418D-BE82-73E738B725DB,2023-09-27_12h38.07.523,WP_VExplicitOC_HL,2022.2.5,Win32,16.11291934,-57.29166667,4.0381,2.0815,NA,NA,NA,NA,NA,bored,"bored, not bored","more bored, less bored",NA,NA,NA,NA,NA,NA,NA,NA,NA,NA,NA,NA,NA,NA,NA,NA,NA,NA,NA,NA,NA,NA,NA,NA,NA,NA,NA,NA,NA,NA,NA,NA,NA,NA,NA,NA,NA,NA,0,1,1,2,1,NA,NA,NA,NA,NA
SUPAMT89542,3I33IC7ZWL1HGUVFPMXLYTX80AV2A4,E633E90A-B0B7-418D-BE82-73E738B725DB,2023-09-27_12h38.07.523,WP_VExplicitOC_HL,2022.2.5,Win32,16.11291934,48.95833333,3.7868,2.0338,NA,NA,NA,NA,NA,happy,"unhappy, happy","less happy, more happy",NA,NA,NA,NA,NA,NA,NA,NA,NA,NA,NA,NA,NA,NA,NA,NA,NA,NA,NA,NA,NA,NA,NA,NA,NA,NA,NA,NA,NA,NA,NA,NA,NA,NA,NA,NA,NA,NA,0,2,2,0,1,NA,NA,NA,NA,NA
SUPAMT89542,3I33IC7ZWL1HGUVFPMXLYTX80AV2A4,E633E90A-B0B7-418D-BE82-73E738B725DB,2023-09-27_12h38.07.523,WP_VExplicitOC_HL,2022.2.5,Win32,16.11291934,NA,NA,NA,NA,NA,NA,NA,NA,NA,NA,NA,NA,NA,NA,NA,NA,NA,NA,NA,NA,NA,NA,NA,NA,NA,NA,NA,NA,NA,NA,NA,NA,NA,NA,NA,NA,NA,NA,NA,NA,NA,NA,NA,NA,NA,NA,NA,NA,NA,NA,NA,NA,NA,NA,13,0,13,0,1
SUPAMT89542,3I33IC7ZWL1HGUVFPMXLYTX80AV2A4,E633E90A-B0B7-418D-BE82-73E738B725DB,2023-09-27_12h38.07.523,WP_VExplicitOC_HL,2022.2.5,Win32,16.11291934,-57.03125,4.6448,2.0916,NA,NA,NA,NA,NA,bored,"bored, not bored","more bored, less bored",NA,NA,NA,NA,NA,NA,NA,NA,NA,NA,NA,NA,NA,NA,NA,NA,NA,NA,NA,NA,NA,NA,NA,NA,NA,NA,NA,NA,NA,NA,NA,NA,NA,NA,NA,NA,NA,NA,0,0,0,2,1,NA,NA,NA,NA,NA
SUPAMT89542,3I33IC7ZWL1HGUVFPMXLYTX80AV2A4,E633E90A-B0B7-418D-BE82-73E738B725DB,2023-09-27_12h38.07.523,WP_VExplicitOC_HL,2022.2.5,Win32,16.11291934,45.57291667,4.15,2.0828,NA,NA,NA,NA,NA,happy,"unhappy, happy","less happy, more happy",NA,NA,NA,NA,NA,NA,NA,NA,NA,NA,NA,NA,NA,NA,NA,NA,NA,NA,NA,NA,NA,NA,NA,NA,NA,NA,NA,NA,NA,NA,NA,NA,NA,NA,NA,NA,NA,NA,0,1,1,0,1,NA,NA,NA,NA,NA
SUPAMT89542,3I33IC7ZWL1HGUVFPMXLYTX80AV2A4,E633E90A-B0B7-418D-BE82-73E738B725DB,2023-09-27_12h38.07.523,WP_VExplicitOC_HL,2022.2.5,Win32,16.11291934,NA,NA,2.0155,NA,NA,NA,NA,NA,frustrated,"frustrated, not frustrated","more frustrated, less frustrated",NA,NA,NA,NA,NA,NA,NA,NA,NA,NA,NA,NA,NA,NA,NA,NA,NA,NA,NA,NA,NA,NA,NA,NA,NA,NA,NA,NA,NA,NA,NA,NA,NA,NA,NA,NA,NA,NA,0,2,2,1,1,NA,NA,NA,NA,NA
SUPAMT89542,3I33IC7ZWL1HGUVFPMXLYTX80AV2A4,E633E90A-B0B7-418D-BE82-73E738B725DB,2023-09-27_12h38.07.523,WP_VExplicitOC_HL,2022.2.5,Win32,16.11291934,NA,NA,NA,NA,NA,NA,NA,NA,NA,NA,NA,NA,NA,NA,NA,NA,NA,NA,NA,NA,NA,NA,NA,NA,NA,NA,NA,NA,NA,NA,NA,NA,NA,NA,NA,NA,NA,NA,NA,NA,NA,NA,NA,NA,NA,NA,NA,NA,NA,NA,NA,NA,NA,NA,14,0,14,0,1
SUPAMT89542,3I33IC7ZWL1HGUVFPMXLYTX80AV2A4,E633E90A-B0B7-418D-BE82-73E738B725DB,2023-09-27_12h38.07.523,WP_VExplicitOC_HL,2022.2.5,Win32,16.11291934,NA,NA,NA,NA,NA,NA,NA,NA,NA,NA,NA,NA,NA,NA,NA,NA,NA,NA,NA,NA,NA,NA,NA,NA,NA,NA,NA,NA,NA,NA,NA,NA,NA,NA,NA,NA,NA,NA,NA,NA,NA,NA,NA,NA,NA,NA,NA,NA,NA,NA,NA,NA,NA,NA,NA,NA,NA,NA,NA
