participant,session,completion,date,expName,psychopyVersion,OS,frameRate,rating_all.response,rating_all.rt,rating_all.tStart,rndRat1.thisRepN,rndRat1.thisTrialN,rndRat1.thisN,rndRat1.thisIndex,rndRat1.ran,Emo,Labs,Labs2,rating_alt.response,rating_alt.rt,AltC.thisRepN,AltC.thisTrialN,AltC.thisN,AltC.thisIndex,AltC.ran,alt_choices,pic_choices,BottomAlt_Choice,rndRat2.thisRepN,rndRat2.thisTrialN,rndRat2.thisN,rndRat2.thisIndex,rndRat2.ran,rndRat3.thisRepN,rndRat3.thisTrialN,rndRat3.thisN,rndRat3.thisIndex,rndRat3.ran,trials_FC_L.thisRepN,trials_FC_L.thisTrialN,trials_FC_L.thisN,trials_FC_L.thisIndex,trials_FC_L.ran,rating_alt_2.response,rating_alt_2.rt,AltC2.thisRepN,AltC2.thisTrialN,AltC2.thisN,AltC2.thisIndex,AltC2.ran,TopAlt_Choice,rndRat4.thisRepN,rndRat4.thisTrialN,rndRat4.thisN,rndRat4.thisIndex,rndRat4.ran,rndRat5.thisRepN,rndRat5.thisTrialN,rndRat5.thisN,rndRat5.thisIndex,rndRat5.ran,trials_FC_H.thisRepN,trials_FC_H.thisTrialN,trials_FC_H.thisN,trials_FC_H.thisIndex,trials_FC_H.ran
SUPAMT07437,NA,ED980FD5-D72A-4533-9161-67DE13AFA10B,2023-09-26_23h11.35.542,WP_VExplicitOC_LH,2022.2.5,Win32,16.78049435,NA,NA,NA,NA,NA,NA,NA,NA,NA,NA,NA,NA,NA,NA,NA,NA,NA,NA,NA,NA,NA,NA,NA,NA,NA,NA,NA,NA,NA,NA,NA,NA,NA,NA,NA,NA,NA,NA,NA,NA,NA,NA,NA,NA,NA,NA,NA,NA,NA,NA,NA,NA,NA,NA,NA,NA,NA,NA,NA
SUPAMT07437,NA,ED980FD5-D72A-4533-9161-67DE13AFA10B,2023-09-26_23h11.35.542,WP_VExplicitOC_LH,2022.2.5,Win32,16.78049435,NA,NA,NA,NA,NA,NA,NA,NA,NA,NA,NA,NA,NA,NA,NA,NA,NA,NA,NA,NA,NA,NA,NA,NA,NA,NA,NA,NA,NA,NA,NA,NA,NA,NA,NA,NA,NA,NA,NA,NA,NA,NA,NA,NA,NA,NA,NA,NA,NA,NA,NA,NA,NA,NA,NA,NA,NA,NA,NA
SUPAMT07437,NA,ED980FD5-D72A-4533-9161-67DE13AFA10B,2023-09-26_23h11.35.542,WP_VExplicitOC_LH,2022.2.5,Win32,16.78049435,NA,NA,NA,NA,NA,NA,NA,NA,NA,NA,NA,NA,NA,NA,NA,NA,NA,NA,NA,NA,NA,NA,NA,NA,NA,NA,NA,NA,NA,NA,NA,NA,NA,NA,NA,NA,NA,NA,NA,NA,NA,NA,NA,NA,NA,NA,NA,NA,NA,NA,NA,NA,NA,NA,NA,NA,NA,NA,NA
SUPAMT07437,NA,ED980FD5-D72A-4533-9161-67DE13AFA10B,2023-09-26_23h11.35.542,WP_VExplicitOC_LH,2022.2.5,Win32,16.78049435,79.42708333,4.3272,2.0222,0,0,0,2,1,bored,"bored, not bored","more bored, less bored",NA,NA,NA,NA,NA,NA,NA,NA,NA,NA,NA,NA,NA,NA,NA,NA,NA,NA,NA,NA,NA,NA,NA,NA,NA,NA,NA,NA,NA,NA,NA,NA,NA,NA,NA,NA,NA,NA,NA,NA,NA,NA,NA,NA,NA,NA,NA,NA
SUPAMT07437,NA,ED980FD5-D72A-4533-9161-67DE13AFA10B,2023-09-26_23h11.35.542,WP_VExplicitOC_LH,2022.2.5,Win32,16.78049435,79.42708333,2.9153,2.025,0,1,1,0,1,happy,"unhappy, happy","less happy, more happy",NA,NA,NA,NA,NA,NA,NA,NA,NA,NA,NA,NA,NA,NA,NA,NA,NA,NA,NA,NA,NA,NA,NA,NA,NA,NA,NA,NA,NA,NA,NA,NA,NA,NA,NA,NA,NA,NA,NA,NA,NA,NA,NA,NA,NA,NA,NA,NA
SUPAMT07437,NA,ED980FD5-D72A-4533-9161-67DE13AFA10B,2023-09-26_23h11.35.542,WP_VExplicitOC_LH,2022.2.5,Win32,16.78049435,79.42708333,2.9274,2.0607,0,2,2,1,1,frustrated,"frustrated, not frustrated","more frustrated, less frustrated",NA,NA,NA,NA,NA,NA,NA,NA,NA,NA,NA,NA,NA,NA,NA,NA,NA,NA,NA,NA,NA,NA,NA,NA,NA,NA,NA,NA,NA,NA,NA,NA,NA,NA,NA,NA,NA,NA,NA,NA,NA,NA,NA,NA,NA,NA,NA,NA
SUPAMT07437,NA,ED980FD5-D72A-4533-9161-67DE13AFA10B,2023-09-26_23h11.35.542,WP_VExplicitOC_LH,2022.2.5,Win32,16.78049435,NA,NA,NA,NA,NA,NA,NA,NA,NA,NA,NA,NA,NA,NA,NA,NA,NA,NA,NA,NA,NA,NA,NA,NA,NA,NA,NA,NA,NA,NA,NA,NA,NA,NA,NA,NA,NA,NA,NA,NA,NA,NA,NA,NA,NA,NA,NA,NA,NA,NA,NA,NA,NA,NA,NA,NA,NA,NA,NA
SUPAMT07437,NA,ED980FD5-D72A-4533-9161-67DE13AFA10B,2023-09-26_23h11.35.542,WP_VExplicitOC_LH,2022.2.5,Win32,16.78049435,NA,NA,NA,NA,NA,NA,NA,NA,NA,NA,NA,NA,NA,NA,NA,NA,NA,NA,NA,NA,NA,NA,NA,NA,NA,NA,NA,NA,NA,NA,NA,NA,NA,NA,NA,NA,NA,NA,NA,NA,NA,NA,NA,NA,NA,NA,NA,NA,NA,NA,NA,NA,NA,NA,NA,NA,NA,NA,NA
SUPAMT07437,NA,ED980FD5-D72A-4533-9161-67DE13AFA10B,2023-09-26_23h11.35.542,WP_VExplicitOC_LH,2022.2.5,Win32,16.78049435,NA,NA,NA,NA,NA,NA,NA,NA,NA,NA,NA,NA,NA,NA,NA,NA,NA,NA,NA,NA,NA,NA,NA,NA,NA,NA,NA,NA,NA,NA,NA,NA,NA,NA,NA,NA,NA,NA,NA,NA,NA,NA,NA,NA,NA,NA,NA,NA,NA,NA,NA,NA,NA,NA,NA,NA,NA,NA,NA
SUPAMT07437,NA,ED980FD5-D72A-4533-9161-67DE13AFA10B,2023-09-26_23h11.35.542,WP_VExplicitOC_LH,2022.2.5,Win32,16.78049435,NA,NA,NA,NA,NA,NA,NA,NA,NA,NA,NA,NA,NA,NA,NA,NA,NA,NA,NA,NA,NA,NA,NA,NA,NA,NA,NA,NA,NA,NA,NA,NA,NA,NA,NA,NA,NA,NA,NA,NA,NA,NA,NA,NA,NA,NA,NA,NA,NA,NA,NA,NA,NA,NA,NA,NA,NA,NA,NA
SUPAMT07437,NA,ED980FD5-D72A-4533-9161-67DE13AFA10B,2023-09-26_23h11.35.542,WP_VExplicitOC_LH,2022.2.5,Win32,16.78049435,NA,NA,NA,NA,NA,NA,NA,NA,NA,NA,NA,79.42708333,1.3063,0,0,0,0,1,rest (looking at a fixed cross),001.png,NA,NA,NA,NA,NA,NA,NA,NA,NA,NA,NA,NA,NA,NA,NA,NA,NA,NA,NA,NA,NA,NA,NA,NA,NA,NA,NA,NA,NA,NA,NA,NA,NA,NA,NA,NA,NA,NA,NA
SUPAMT07437,NA,ED980FD5-D72A-4533-9161-67DE13AFA10B,2023-09-26_23h11.35.542,WP_VExplicitOC_LH,2022.2.5,Win32,16.78049435,NA,NA,NA,NA,NA,NA,NA,NA,NA,NA,NA,80.20833333,0.4041,0,1,1,1,1,stand up,002.png,NA,NA,NA,NA,NA,NA,NA,NA,NA,NA,NA,NA,NA,NA,NA,NA,NA,NA,NA,NA,NA,NA,NA,NA,NA,NA,NA,NA,NA,NA,NA,NA,NA,NA,NA,NA,NA,NA,NA
SUPAMT07437,NA,ED980FD5-D72A-4533-9161-67DE13AFA10B,2023-09-26_23h11.35.542,WP_VExplicitOC_LH,2022.2.5,Win32,16.78049435,NA,NA,NA,NA,NA,NA,NA,NA,NA,NA,NA,80.20833333,0.2205,0,2,2,2,1,stretch,003.png,NA,NA,NA,NA,NA,NA,NA,NA,NA,NA,NA,NA,NA,NA,NA,NA,NA,NA,NA,NA,NA,NA,NA,NA,NA,NA,NA,NA,NA,NA,NA,NA,NA,NA,NA,NA,NA,NA,NA
SUPAMT07437,NA,ED980FD5-D72A-4533-9161-67DE13AFA10B,2023-09-26_23h11.35.542,WP_VExplicitOC_LH,2022.2.5,Win32,16.78049435,NA,NA,NA,NA,NA,NA,NA,NA,NA,NA,NA,80.20833333,0.2025,0,3,3,3,1,make a drink,004.png,NA,NA,NA,NA,NA,NA,NA,NA,NA,NA,NA,NA,NA,NA,NA,NA,NA,NA,NA,NA,NA,NA,NA,NA,NA,NA,NA,NA,NA,NA,NA,NA,NA,NA,NA,NA,NA,NA,NA
SUPAMT07437,NA,ED980FD5-D72A-4533-9161-67DE13AFA10B,2023-09-26_23h11.35.542,WP_VExplicitOC_LH,2022.2.5,Win32,16.78049435,NA,NA,NA,NA,NA,NA,NA,NA,NA,NA,NA,80.20833333,0.1999,0,4,4,4,1,scroll social media,005.png,NA,NA,NA,NA,NA,NA,NA,NA,NA,NA,NA,NA,NA,NA,NA,NA,NA,NA,NA,NA,NA,NA,NA,NA,NA,NA,NA,NA,NA,NA,NA,NA,NA,NA,NA,NA,NA,NA,NA
SUPAMT07437,NA,ED980FD5-D72A-4533-9161-67DE13AFA10B,2023-09-26_23h11.35.542,WP_VExplicitOC_LH,2022.2.5,Win32,16.78049435,NA,NA,NA,NA,NA,NA,NA,NA,NA,NA,NA,80.20833333,0.1533,0,5,5,5,1,listen to music,006.png,NA,NA,NA,NA,NA,NA,NA,NA,NA,NA,NA,NA,NA,NA,NA,NA,NA,NA,NA,NA,NA,NA,NA,NA,NA,NA,NA,NA,NA,NA,NA,NA,NA,NA,NA,NA,NA,NA,NA
SUPAMT07437,NA,ED980FD5-D72A-4533-9161-67DE13AFA10B,2023-09-26_23h11.35.542,WP_VExplicitOC_LH,2022.2.5,Win32,16.78049435,NA,NA,NA,NA,NA,NA,NA,NA,NA,NA,NA,80.20833333,0.202,0,6,6,6,1,daydream,007.png,NA,NA,NA,NA,NA,NA,NA,NA,NA,NA,NA,NA,NA,NA,NA,NA,NA,NA,NA,NA,NA,NA,NA,NA,NA,NA,NA,NA,NA,NA,NA,NA,NA,NA,NA,NA,NA,NA,NA
SUPAMT07437,NA,ED980FD5-D72A-4533-9161-67DE13AFA10B,2023-09-26_23h11.35.542,WP_VExplicitOC_LH,2022.2.5,Win32,16.78049435,NA,NA,NA,NA,NA,NA,NA,NA,NA,NA,NA,80.20833333,0.1708,0,7,7,7,1,watch a short animation,008.png,NA,NA,NA,NA,NA,NA,NA,NA,NA,NA,NA,NA,NA,NA,NA,NA,NA,NA,NA,NA,NA,NA,NA,NA,NA,NA,NA,NA,NA,NA,NA,NA,NA,NA,NA,NA,NA,NA,NA
SUPAMT07437,NA,ED980FD5-D72A-4533-9161-67DE13AFA10B,2023-09-26_23h11.35.542,WP_VExplicitOC_LH,2022.2.5,Win32,16.78049435,NA,NA,NA,NA,NA,NA,NA,NA,NA,NA,NA,80.20833333,0.1553,0,8,8,8,1,read a novel,009.png,NA,NA,NA,NA,NA,NA,NA,NA,NA,NA,NA,NA,NA,NA,NA,NA,NA,NA,NA,NA,NA,NA,NA,NA,NA,NA,NA,NA,NA,NA,NA,NA,NA,NA,NA,NA,NA,NA,NA
SUPAMT07437,NA,ED980FD5-D72A-4533-9161-67DE13AFA10B,2023-09-26_23h11.35.542,WP_VExplicitOC_LH,2022.2.5,Win32,16.78049435,NA,NA,NA,NA,NA,NA,NA,NA,NA,NA,NA,80.20833333,0.1957,0,9,9,9,1,read the news,010.png,NA,NA,NA,NA,NA,NA,NA,NA,NA,NA,NA,NA,NA,NA,NA,NA,NA,NA,NA,NA,NA,NA,NA,NA,NA,NA,NA,NA,NA,NA,NA,NA,NA,NA,NA,NA,NA,NA,NA
SUPAMT07437,NA,ED980FD5-D72A-4533-9161-67DE13AFA10B,2023-09-26_23h11.35.542,WP_VExplicitOC_LH,2022.2.5,Win32,16.78049435,NA,NA,NA,NA,NA,NA,NA,NA,NA,NA,NA,NA,NA,NA,NA,NA,NA,NA,NA,NA,NA,NA,NA,NA,NA,NA,NA,NA,NA,NA,NA,NA,NA,NA,NA,NA,NA,NA,NA,NA,NA,NA,NA,NA,NA,NA,NA,NA,NA,NA,NA,NA,NA,NA,NA,NA,NA,NA,NA
SUPAMT07437,NA,ED980FD5-D72A-4533-9161-67DE13AFA10B,2023-09-26_23h11.35.542,WP_VExplicitOC_LH,2022.2.5,Win32,16.78049435,NA,NA,NA,NA,NA,NA,NA,NA,NA,NA,NA,NA,NA,NA,NA,NA,NA,NA,NA,NA,stand up,NA,NA,NA,NA,NA,NA,NA,NA,NA,NA,NA,NA,NA,NA,NA,NA,NA,NA,NA,NA,NA,NA,NA,NA,NA,NA,NA,NA,NA,NA,NA,NA,NA,NA,NA,NA,NA,NA
SUPAMT07437,NA,ED980FD5-D72A-4533-9161-67DE13AFA10B,2023-09-26_23h11.35.542,WP_VExplicitOC_LH,2022.2.5,Win32,16.78049435,78.38541667,3.3096,2.0206,NA,NA,NA,NA,NA,happy,"unhappy, happy","less happy, more happy",NA,NA,NA,NA,NA,NA,NA,NA,NA,NA,0,0,0,0,1,NA,NA,NA,NA,NA,NA,NA,NA,NA,NA,NA,NA,NA,NA,NA,NA,NA,NA,NA,NA,NA,NA,NA,NA,NA,NA,NA,NA,NA,NA,NA,NA,NA
SUPAMT07437,NA,ED980FD5-D72A-4533-9161-67DE13AFA10B,2023-09-26_23h11.35.542,WP_VExplicitOC_LH,2022.2.5,Win32,16.78049435,78.38541667,2.9054,2.0272,NA,NA,NA,NA,NA,bored,"bored, not bored","more bored, less bored",NA,NA,NA,NA,NA,NA,NA,NA,NA,NA,0,1,1,2,1,NA,NA,NA,NA,NA,NA,NA,NA,NA,NA,NA,NA,NA,NA,NA,NA,NA,NA,NA,NA,NA,NA,NA,NA,NA,NA,NA,NA,NA,NA,NA,NA,NA
SUPAMT07437,NA,ED980FD5-D72A-4533-9161-67DE13AFA10B,2023-09-26_23h11.35.542,WP_VExplicitOC_LH,2022.2.5,Win32,16.78049435,78.38541667,2.9847,2.0149,NA,NA,NA,NA,NA,frustrated,"frustrated, not frustrated","more frustrated, less frustrated",NA,NA,NA,NA,NA,NA,NA,NA,NA,NA,0,2,2,1,1,NA,NA,NA,NA,NA,NA,NA,NA,NA,NA,NA,NA,NA,NA,NA,NA,NA,NA,NA,NA,NA,NA,NA,NA,NA,NA,NA,NA,NA,NA,NA,NA,NA
SUPAMT07437,NA,ED980FD5-D72A-4533-9161-67DE13AFA10B,2023-09-26_23h11.35.542,WP_VExplicitOC_LH,2022.2.5,Win32,16.78049435,NA,NA,NA,NA,NA,NA,NA,NA,NA,NA,NA,NA,NA,NA,NA,NA,NA,NA,NA,NA,NA,NA,NA,NA,NA,NA,NA,NA,NA,NA,NA,NA,NA,NA,NA,NA,NA,NA,NA,NA,NA,NA,NA,NA,NA,NA,NA,NA,NA,NA,NA,NA,NA,NA,NA,NA,NA,NA,NA
SUPAMT07437,NA,ED980FD5-D72A-4533-9161-67DE13AFA10B,2023-09-26_23h11.35.542,WP_VExplicitOC_LH,2022.2.5,Win32,16.78049435,NA,NA,NA,NA,NA,NA,NA,NA,NA,NA,NA,NA,NA,NA,NA,NA,NA,NA,NA,NA,NA,NA,NA,NA,NA,NA,NA,NA,NA,NA,NA,NA,NA,NA,NA,NA,NA,NA,NA,NA,NA,NA,NA,NA,NA,NA,NA,NA,NA,NA,NA,NA,NA,NA,NA,NA,NA,NA,NA
SUPAMT07437,NA,ED980FD5-D72A-4533-9161-67DE13AFA10B,2023-09-26_23h11.35.542,WP_VExplicitOC_LH,2022.2.5,Win32,16.78049435,55.20833333,2.8796,2.0076,NA,NA,NA,NA,NA,bored,"bored, not bored","more bored, less bored",NA,NA,NA,NA,NA,NA,NA,NA,NA,NA,NA,NA,NA,NA,NA,0,0,0,2,1,NA,NA,NA,NA,NA,NA,NA,NA,NA,NA,NA,NA,NA,NA,NA,NA,NA,NA,NA,NA,NA,NA,NA,NA,NA,NA,NA,NA
SUPAMT07437,NA,ED980FD5-D72A-4533-9161-67DE13AFA10B,2023-09-26_23h11.35.542,WP_VExplicitOC_LH,2022.2.5,Win32,16.78049435,60.15625,3.1761,2.0008,NA,NA,NA,NA,NA,happy,"unhappy, happy","less happy, more happy",NA,NA,NA,NA,NA,NA,NA,NA,NA,NA,NA,NA,NA,NA,NA,0,1,1,0,1,NA,NA,NA,NA,NA,NA,NA,NA,NA,NA,NA,NA,NA,NA,NA,NA,NA,NA,NA,NA,NA,NA,NA,NA,NA,NA,NA,NA
SUPAMT07437,NA,ED980FD5-D72A-4533-9161-67DE13AFA10B,2023-09-26_23h11.35.542,WP_VExplicitOC_LH,2022.2.5,Win32,16.78049435,60.15625,2.7908,2.027,NA,NA,NA,NA,NA,frustrated,"frustrated, not frustrated","more frustrated, less frustrated",NA,NA,NA,NA,NA,NA,NA,NA,NA,NA,NA,NA,NA,NA,NA,0,2,2,1,1,NA,NA,NA,NA,NA,NA,NA,NA,NA,NA,NA,NA,NA,NA,NA,NA,NA,NA,NA,NA,NA,NA,NA,NA,NA,NA,NA,NA
SUPAMT07437,NA,ED980FD5-D72A-4533-9161-67DE13AFA10B,2023-09-26_23h11.35.542,WP_VExplicitOC_LH,2022.2.5,Win32,16.78049435,NA,NA,NA,NA,NA,NA,NA,NA,NA,NA,NA,NA,NA,NA,NA,NA,NA,NA,NA,NA,NA,NA,NA,NA,NA,NA,NA,NA,NA,NA,NA,0,0,0,0,1,NA,NA,NA,NA,NA,NA,NA,NA,NA,NA,NA,NA,NA,NA,NA,NA,NA,NA,NA,NA,NA,NA,NA
SUPAMT07437,NA,ED980FD5-D72A-4533-9161-67DE13AFA10B,2023-09-26_23h11.35.542,WP_VExplicitOC_LH,2022.2.5,Win32,16.78049435,41.92708333,3.3776,2.0313,NA,NA,NA,NA,NA,happy,"unhappy, happy","less happy, more happy",NA,NA,NA,NA,NA,NA,NA,NA,NA,NA,NA,NA,NA,NA,NA,0,0,0,0,1,NA,NA,NA,NA,NA,NA,NA,NA,NA,NA,NA,NA,NA,NA,NA,NA,NA,NA,NA,NA,NA,NA,NA,NA,NA,NA,NA,NA
SUPAMT07437,NA,ED980FD5-D72A-4533-9161-67DE13AFA10B,2023-09-26_23h11.35.542,WP_VExplicitOC_LH,2022.2.5,Win32,16.78049435,72.91666667,3.3487,2.0403,NA,NA,NA,NA,NA,frustrated,"frustrated, not frustrated","more frustrated, less frustrated",NA,NA,NA,NA,NA,NA,NA,NA,NA,NA,NA,NA,NA,NA,NA,0,1,1,1,1,NA,NA,NA,NA,NA,NA,NA,NA,NA,NA,NA,NA,NA,NA,NA,NA,NA,NA,NA,NA,NA,NA,NA,NA,NA,NA,NA,NA
SUPAMT07437,NA,ED980FD5-D72A-4533-9161-67DE13AFA10B,2023-09-26_23h11.35.542,WP_VExplicitOC_LH,2022.2.5,Win32,16.78049435,72.91666667,2.8633,2.0363,NA,NA,NA,NA,NA,bored,"bored, not bored","more bored, less bored",NA,NA,NA,NA,NA,NA,NA,NA,NA,NA,NA,NA,NA,NA,NA,0,2,2,2,1,NA,NA,NA,NA,NA,NA,NA,NA,NA,NA,NA,NA,NA,NA,NA,NA,NA,NA,NA,NA,NA,NA,NA,NA,NA,NA,NA,NA
SUPAMT07437,NA,ED980FD5-D72A-4533-9161-67DE13AFA10B,2023-09-26_23h11.35.542,WP_VExplicitOC_LH,2022.2.5,Win32,16.78049435,NA,NA,NA,NA,NA,NA,NA,NA,NA,NA,NA,NA,NA,NA,NA,NA,NA,NA,NA,NA,NA,NA,NA,NA,NA,NA,NA,NA,NA,NA,NA,1,0,1,0,1,NA,NA,NA,NA,NA,NA,NA,NA,NA,NA,NA,NA,NA,NA,NA,NA,NA,NA,NA,NA,NA,NA,NA
SUPAMT07437,NA,ED980FD5-D72A-4533-9161-67DE13AFA10B,2023-09-26_23h11.35.542,WP_VExplicitOC_LH,2022.2.5,Win32,16.78049435,53.64583333,4.1031,2.0726,NA,NA,NA,NA,NA,bored,"bored, not bored","more bored, less bored",NA,NA,NA,NA,NA,NA,NA,NA,NA,NA,NA,NA,NA,NA,NA,0,0,0,2,1,NA,NA,NA,NA,NA,NA,NA,NA,NA,NA,NA,NA,NA,NA,NA,NA,NA,NA,NA,NA,NA,NA,NA,NA,NA,NA,NA,NA
SUPAMT07437,NA,ED980FD5-D72A-4533-9161-67DE13AFA10B,2023-09-26_23h11.35.542,WP_VExplicitOC_LH,2022.2.5,Win32,16.78049435,53.64583333,3.0955,2.0726,NA,NA,NA,NA,NA,happy,"unhappy, happy","less happy, more happy",NA,NA,NA,NA,NA,NA,NA,NA,NA,NA,NA,NA,NA,NA,NA,0,1,1,0,1,NA,NA,NA,NA,NA,NA,NA,NA,NA,NA,NA,NA,NA,NA,NA,NA,NA,NA,NA,NA,NA,NA,NA,NA,NA,NA,NA,NA
SUPAMT07437,NA,ED980FD5-D72A-4533-9161-67DE13AFA10B,2023-09-26_23h11.35.542,WP_VExplicitOC_LH,2022.2.5,Win32,16.78049435,53.64583333,2.9182,2.0518,NA,NA,NA,NA,NA,frustrated,"frustrated, not frustrated","more frustrated, less frustrated",NA,NA,NA,NA,NA,NA,NA,NA,NA,NA,NA,NA,NA,NA,NA,0,2,2,1,1,NA,NA,NA,NA,NA,NA,NA,NA,NA,NA,NA,NA,NA,NA,NA,NA,NA,NA,NA,NA,NA,NA,NA,NA,NA,NA,NA,NA
SUPAMT07437,NA,ED980FD5-D72A-4533-9161-67DE13AFA10B,2023-09-26_23h11.35.542,WP_VExplicitOC_LH,2022.2.5,Win32,16.78049435,NA,NA,NA,NA,NA,NA,NA,NA,NA,NA,NA,NA,NA,NA,NA,NA,NA,NA,NA,NA,NA,NA,NA,NA,NA,NA,NA,NA,NA,NA,NA,2,0,2,0,1,NA,NA,NA,NA,NA,NA,NA,NA,NA,NA,NA,NA,NA,NA,NA,NA,NA,NA,NA,NA,NA,NA,NA
SUPAMT07437,NA,ED980FD5-D72A-4533-9161-67DE13AFA10B,2023-09-26_23h11.35.542,WP_VExplicitOC_LH,2022.2.5,Win32,16.78049435,59.11458333,3.1522,2.0517,NA,NA,NA,NA,NA,bored,"bored, not bored","more bored, less bored",NA,NA,NA,NA,NA,NA,NA,NA,NA,NA,NA,NA,NA,NA,NA,0,0,0,2,1,NA,NA,NA,NA,NA,NA,NA,NA,NA,NA,NA,NA,NA,NA,NA,NA,NA,NA,NA,NA,NA,NA,NA,NA,NA,NA,NA,NA
SUPAMT07437,NA,ED980FD5-D72A-4533-9161-67DE13AFA10B,2023-09-26_23h11.35.542,WP_VExplicitOC_LH,2022.2.5,Win32,16.78049435,61.97916667,2.8554,2.0422,NA,NA,NA,NA,NA,frustrated,"frustrated, not frustrated","more frustrated, less frustrated",NA,NA,NA,NA,NA,NA,NA,NA,NA,NA,NA,NA,NA,NA,NA,0,1,1,1,1,NA,NA,NA,NA,NA,NA,NA,NA,NA,NA,NA,NA,NA,NA,NA,NA,NA,NA,NA,NA,NA,NA,NA,NA,NA,NA,NA,NA
SUPAMT07437,NA,ED980FD5-D72A-4533-9161-67DE13AFA10B,2023-09-26_23h11.35.542,WP_VExplicitOC_LH,2022.2.5,Win32,16.78049435,62.23958333,2.9306,2.0393,NA,NA,NA,NA,NA,happy,"unhappy, happy","less happy, more happy",NA,NA,NA,NA,NA,NA,NA,NA,NA,NA,NA,NA,NA,NA,NA,0,2,2,0,1,NA,NA,NA,NA,NA,NA,NA,NA,NA,NA,NA,NA,NA,NA,NA,NA,NA,NA,NA,NA,NA,NA,NA,NA,NA,NA,NA,NA
SUPAMT07437,NA,ED980FD5-D72A-4533-9161-67DE13AFA10B,2023-09-26_23h11.35.542,WP_VExplicitOC_LH,2022.2.5,Win32,16.78049435,NA,NA,NA,NA,NA,NA,NA,NA,NA,NA,NA,NA,NA,NA,NA,NA,NA,NA,NA,NA,NA,NA,NA,NA,NA,NA,NA,NA,NA,NA,NA,3,0,3,0,1,NA,NA,NA,NA,NA,NA,NA,NA,NA,NA,NA,NA,NA,NA,NA,NA,NA,NA,NA,NA,NA,NA,NA
SUPAMT07437,NA,ED980FD5-D72A-4533-9161-67DE13AFA10B,2023-09-26_23h11.35.542,WP_VExplicitOC_LH,2022.2.5,Win32,16.78049435,53.64583333,3.4578,2.0313,NA,NA,NA,NA,NA,bored,"bored, not bored","more bored, less bored",NA,NA,NA,NA,NA,NA,NA,NA,NA,NA,NA,NA,NA,NA,NA,0,0,0,2,1,NA,NA,NA,NA,NA,NA,NA,NA,NA,NA,NA,NA,NA,NA,NA,NA,NA,NA,NA,NA,NA,NA,NA,NA,NA,NA,NA,NA
SUPAMT07437,NA,ED980FD5-D72A-4533-9161-67DE13AFA10B,2023-09-26_23h11.35.542,WP_VExplicitOC_LH,2022.2.5,Win32,16.78049435,53.90625,2.8329,2.0255,NA,NA,NA,NA,NA,happy,"unhappy, happy","less happy, more happy",NA,NA,NA,NA,NA,NA,NA,NA,NA,NA,NA,NA,NA,NA,NA,0,1,1,0,1,NA,NA,NA,NA,NA,NA,NA,NA,NA,NA,NA,NA,NA,NA,NA,NA,NA,NA,NA,NA,NA,NA,NA,NA,NA,NA,NA,NA
SUPAMT07437,NA,ED980FD5-D72A-4533-9161-67DE13AFA10B,2023-09-26_23h11.35.542,WP_VExplicitOC_LH,2022.2.5,Win32,16.78049435,53.90625,2.7992,2.0414,NA,NA,NA,NA,NA,frustrated,"frustrated, not frustrated","more frustrated, less frustrated",NA,NA,NA,NA,NA,NA,NA,NA,NA,NA,NA,NA,NA,NA,NA,0,2,2,1,1,NA,NA,NA,NA,NA,NA,NA,NA,NA,NA,NA,NA,NA,NA,NA,NA,NA,NA,NA,NA,NA,NA,NA,NA,NA,NA,NA,NA
SUPAMT07437,NA,ED980FD5-D72A-4533-9161-67DE13AFA10B,2023-09-26_23h11.35.542,WP_VExplicitOC_LH,2022.2.5,Win32,16.78049435,NA,NA,NA,NA,NA,NA,NA,NA,NA,NA,NA,NA,NA,NA,NA,NA,NA,NA,NA,NA,NA,NA,NA,NA,NA,NA,NA,NA,NA,NA,NA,4,0,4,0,1,NA,NA,NA,NA,NA,NA,NA,NA,NA,NA,NA,NA,NA,NA,NA,NA,NA,NA,NA,NA,NA,NA,NA
SUPAMT07437,NA,ED980FD5-D72A-4533-9161-67DE13AFA10B,2023-09-26_23h11.35.542,WP_VExplicitOC_LH,2022.2.5,Win32,16.78049435,65.10416667,3.4676,2.0236,NA,NA,NA,NA,NA,happy,"unhappy, happy","less happy, more happy",NA,NA,NA,NA,NA,NA,NA,NA,NA,NA,NA,NA,NA,NA,NA,0,0,0,0,1,NA,NA,NA,NA,NA,NA,NA,NA,NA,NA,NA,NA,NA,NA,NA,NA,NA,NA,NA,NA,NA,NA,NA,NA,NA,NA,NA,NA
SUPAMT07437,NA,ED980FD5-D72A-4533-9161-67DE13AFA10B,2023-09-26_23h11.35.542,WP_VExplicitOC_LH,2022.2.5,Win32,16.78049435,65.10416667,2.8856,2.0228,NA,NA,NA,NA,NA,frustrated,"frustrated, not frustrated","more frustrated, less frustrated",NA,NA,NA,NA,NA,NA,NA,NA,NA,NA,NA,NA,NA,NA,NA,0,1,1,1,1,NA,NA,NA,NA,NA,NA,NA,NA,NA,NA,NA,NA,NA,NA,NA,NA,NA,NA,NA,NA,NA,NA,NA,NA,NA,NA,NA,NA
SUPAMT07437,NA,ED980FD5-D72A-4533-9161-67DE13AFA10B,2023-09-26_23h11.35.542,WP_VExplicitOC_LH,2022.2.5,Win32,16.78049435,65.10416667,2.8184,2.0338,NA,NA,NA,NA,NA,bored,"bored, not bored","more bored, less bored",NA,NA,NA,NA,NA,NA,NA,NA,NA,NA,NA,NA,NA,NA,NA,0,2,2,2,1,NA,NA,NA,NA,NA,NA,NA,NA,NA,NA,NA,NA,NA,NA,NA,NA,NA,NA,NA,NA,NA,NA,NA,NA,NA,NA,NA,NA
SUPAMT07437,NA,ED980FD5-D72A-4533-9161-67DE13AFA10B,2023-09-26_23h11.35.542,WP_VExplicitOC_LH,2022.2.5,Win32,16.78049435,NA,NA,NA,NA,NA,NA,NA,NA,NA,NA,NA,NA,NA,NA,NA,NA,NA,NA,NA,NA,NA,NA,NA,NA,NA,NA,NA,NA,NA,NA,NA,5,0,5,0,1,NA,NA,NA,NA,NA,NA,NA,NA,NA,NA,NA,NA,NA,NA,NA,NA,NA,NA,NA,NA,NA,NA,NA
SUPAMT07437,NA,ED980FD5-D72A-4533-9161-67DE13AFA10B,2023-09-26_23h11.35.542,WP_VExplicitOC_LH,2022.2.5,Win32,16.78049435,47.65625,3.4386,2.0362,NA,NA,NA,NA,NA,happy,"unhappy, happy","less happy, more happy",NA,NA,NA,NA,NA,NA,NA,NA,NA,NA,NA,NA,NA,NA,NA,0,0,0,0,1,NA,NA,NA,NA,NA,NA,NA,NA,NA,NA,NA,NA,NA,NA,NA,NA,NA,NA,NA,NA,NA,NA,NA,NA,NA,NA,NA,NA
SUPAMT07437,NA,ED980FD5-D72A-4533-9161-67DE13AFA10B,2023-09-26_23h11.35.542,WP_VExplicitOC_LH,2022.2.5,Win32,16.78049435,54.16666667,2.9286,2.0609,NA,NA,NA,NA,NA,bored,"bored, not bored","more bored, less bored",NA,NA,NA,NA,NA,NA,NA,NA,NA,NA,NA,NA,NA,NA,NA,0,1,1,2,1,NA,NA,NA,NA,NA,NA,NA,NA,NA,NA,NA,NA,NA,NA,NA,NA,NA,NA,NA,NA,NA,NA,NA,NA,NA,NA,NA,NA
SUPAMT07437,NA,ED980FD5-D72A-4533-9161-67DE13AFA10B,2023-09-26_23h11.35.542,WP_VExplicitOC_LH,2022.2.5,Win32,16.78049435,54.16666667,2.912,2.0078,NA,NA,NA,NA,NA,frustrated,"frustrated, not frustrated","more frustrated, less frustrated",NA,NA,NA,NA,NA,NA,NA,NA,NA,NA,NA,NA,NA,NA,NA,0,2,2,1,1,NA,NA,NA,NA,NA,NA,NA,NA,NA,NA,NA,NA,NA,NA,NA,NA,NA,NA,NA,NA,NA,NA,NA,NA,NA,NA,NA,NA
SUPAMT07437,NA,ED980FD5-D72A-4533-9161-67DE13AFA10B,2023-09-26_23h11.35.542,WP_VExplicitOC_LH,2022.2.5,Win32,16.78049435,NA,NA,NA,NA,NA,NA,NA,NA,NA,NA,NA,NA,NA,NA,NA,NA,NA,NA,NA,NA,NA,NA,NA,NA,NA,NA,NA,NA,NA,NA,NA,6,0,6,0,1,NA,NA,NA,NA,NA,NA,NA,NA,NA,NA,NA,NA,NA,NA,NA,NA,NA,NA,NA,NA,NA,NA,NA
SUPAMT07437,NA,ED980FD5-D72A-4533-9161-67DE13AFA10B,2023-09-26_23h11.35.542,WP_VExplicitOC_LH,2022.2.5,Win32,16.78049435,54.6875,3.7787,2.0289,NA,NA,NA,NA,NA,bored,"bored, not bored","more bored, less bored",NA,NA,NA,NA,NA,NA,NA,NA,NA,NA,NA,NA,NA,NA,NA,0,0,0,2,1,NA,NA,NA,NA,NA,NA,NA,NA,NA,NA,NA,NA,NA,NA,NA,NA,NA,NA,NA,NA,NA,NA,NA,NA,NA,NA,NA,NA
SUPAMT07437,NA,ED980FD5-D72A-4533-9161-67DE13AFA10B,2023-09-26_23h11.35.542,WP_VExplicitOC_LH,2022.2.5,Win32,16.78049435,54.6875,2.9352,2.0329,NA,NA,NA,NA,NA,frustrated,"frustrated, not frustrated","more frustrated, less frustrated",NA,NA,NA,NA,NA,NA,NA,NA,NA,NA,NA,NA,NA,NA,NA,0,1,1,1,1,NA,NA,NA,NA,NA,NA,NA,NA,NA,NA,NA,NA,NA,NA,NA,NA,NA,NA,NA,NA,NA,NA,NA,NA,NA,NA,NA,NA
SUPAMT07437,NA,ED980FD5-D72A-4533-9161-67DE13AFA10B,2023-09-26_23h11.35.542,WP_VExplicitOC_LH,2022.2.5,Win32,16.78049435,54.16666667,3.1185,2.0109,NA,NA,NA,NA,NA,happy,"unhappy, happy","less happy, more happy",NA,NA,NA,NA,NA,NA,NA,NA,NA,NA,NA,NA,NA,NA,NA,0,2,2,0,1,NA,NA,NA,NA,NA,NA,NA,NA,NA,NA,NA,NA,NA,NA,NA,NA,NA,NA,NA,NA,NA,NA,NA,NA,NA,NA,NA,NA
SUPAMT07437,NA,ED980FD5-D72A-4533-9161-67DE13AFA10B,2023-09-26_23h11.35.542,WP_VExplicitOC_LH,2022.2.5,Win32,16.78049435,NA,NA,NA,NA,NA,NA,NA,NA,NA,NA,NA,NA,NA,NA,NA,NA,NA,NA,NA,NA,NA,NA,NA,NA,NA,NA,NA,NA,NA,NA,NA,7,0,7,0,1,NA,NA,NA,NA,NA,NA,NA,NA,NA,NA,NA,NA,NA,NA,NA,NA,NA,NA,NA,NA,NA,NA,NA
SUPAMT07437,NA,ED980FD5-D72A-4533-9161-67DE13AFA10B,2023-09-26_23h11.35.542,WP_VExplicitOC_LH,2022.2.5,Win32,16.78049435,51.82291667,5.6755,2.0398,NA,NA,NA,NA,NA,bored,"bored, not bored","more bored, less bored",NA,NA,NA,NA,NA,NA,NA,NA,NA,NA,NA,NA,NA,NA,NA,0,0,0,2,1,NA,NA,NA,NA,NA,NA,NA,NA,NA,NA,NA,NA,NA,NA,NA,NA,NA,NA,NA,NA,NA,NA,NA,NA,NA,NA,NA,NA
SUPAMT07437,NA,ED980FD5-D72A-4533-9161-67DE13AFA10B,2023-09-26_23h11.35.542,WP_VExplicitOC_LH,2022.2.5,Win32,16.78049435,76.04166667,3.6345,2.0253,NA,NA,NA,NA,NA,happy,"unhappy, happy","less happy, more happy",NA,NA,NA,NA,NA,NA,NA,NA,NA,NA,NA,NA,NA,NA,NA,0,1,1,0,1,NA,NA,NA,NA,NA,NA,NA,NA,NA,NA,NA,NA,NA,NA,NA,NA,NA,NA,NA,NA,NA,NA,NA,NA,NA,NA,NA,NA
SUPAMT07437,NA,ED980FD5-D72A-4533-9161-67DE13AFA10B,2023-09-26_23h11.35.542,WP_VExplicitOC_LH,2022.2.5,Win32,16.78049435,100,3.6353,2.0171,NA,NA,NA,NA,NA,frustrated,"frustrated, not frustrated","more frustrated, less frustrated",NA,NA,NA,NA,NA,NA,NA,NA,NA,NA,NA,NA,NA,NA,NA,0,2,2,1,1,NA,NA,NA,NA,NA,NA,NA,NA,NA,NA,NA,NA,NA,NA,NA,NA,NA,NA,NA,NA,NA,NA,NA,NA,NA,NA,NA,NA
SUPAMT07437,NA,ED980FD5-D72A-4533-9161-67DE13AFA10B,2023-09-26_23h11.35.542,WP_VExplicitOC_LH,2022.2.5,Win32,16.78049435,NA,NA,NA,NA,NA,NA,NA,NA,NA,NA,NA,NA,NA,NA,NA,NA,NA,NA,NA,NA,NA,NA,NA,NA,NA,NA,NA,NA,NA,NA,NA,8,0,8,0,1,NA,NA,NA,NA,NA,NA,NA,NA,NA,NA,NA,NA,NA,NA,NA,NA,NA,NA,NA,NA,NA,NA,NA
SUPAMT07437,NA,ED980FD5-D72A-4533-9161-67DE13AFA10B,2023-09-26_23h11.35.542,WP_VExplicitOC_LH,2022.2.5,Win32,16.78049435,52.08333333,3.3535,2.0109,NA,NA,NA,NA,NA,bored,"bored, not bored","more bored, less bored",NA,NA,NA,NA,NA,NA,NA,NA,NA,NA,NA,NA,NA,NA,NA,0,0,0,2,1,NA,NA,NA,NA,NA,NA,NA,NA,NA,NA,NA,NA,NA,NA,NA,NA,NA,NA,NA,NA,NA,NA,NA,NA,NA,NA,NA,NA
SUPAMT07437,NA,ED980FD5-D72A-4533-9161-67DE13AFA10B,2023-09-26_23h11.35.542,WP_VExplicitOC_LH,2022.2.5,Win32,16.78049435,81.77083333,3.5132,2.0652,NA,NA,NA,NA,NA,happy,"unhappy, happy","less happy, more happy",NA,NA,NA,NA,NA,NA,NA,NA,NA,NA,NA,NA,NA,NA,NA,0,1,1,0,1,NA,NA,NA,NA,NA,NA,NA,NA,NA,NA,NA,NA,NA,NA,NA,NA,NA,NA,NA,NA,NA,NA,NA,NA,NA,NA,NA,NA
SUPAMT07437,NA,ED980FD5-D72A-4533-9161-67DE13AFA10B,2023-09-26_23h11.35.542,WP_VExplicitOC_LH,2022.2.5,Win32,16.78049435,70.83333333,3.7366,2.0522,NA,NA,NA,NA,NA,frustrated,"frustrated, not frustrated","more frustrated, less frustrated",NA,NA,NA,NA,NA,NA,NA,NA,NA,NA,NA,NA,NA,NA,NA,0,2,2,1,1,NA,NA,NA,NA,NA,NA,NA,NA,NA,NA,NA,NA,NA,NA,NA,NA,NA,NA,NA,NA,NA,NA,NA,NA,NA,NA,NA,NA
SUPAMT07437,NA,ED980FD5-D72A-4533-9161-67DE13AFA10B,2023-09-26_23h11.35.542,WP_VExplicitOC_LH,2022.2.5,Win32,16.78049435,NA,NA,NA,NA,NA,NA,NA,NA,NA,NA,NA,NA,NA,NA,NA,NA,NA,NA,NA,NA,NA,NA,NA,NA,NA,NA,NA,NA,NA,NA,NA,9,0,9,0,1,NA,NA,NA,NA,NA,NA,NA,NA,NA,NA,NA,NA,NA,NA,NA,NA,NA,NA,NA,NA,NA,NA,NA
SUPAMT07437,NA,ED980FD5-D72A-4533-9161-67DE13AFA10B,2023-09-26_23h11.35.542,WP_VExplicitOC_LH,2022.2.5,Win32,16.78049435,81.51041667,3.7279,2.0258,NA,NA,NA,NA,NA,happy,"unhappy, happy","less happy, more happy",NA,NA,NA,NA,NA,NA,NA,NA,NA,NA,NA,NA,NA,NA,NA,0,0,0,0,1,NA,NA,NA,NA,NA,NA,NA,NA,NA,NA,NA,NA,NA,NA,NA,NA,NA,NA,NA,NA,NA,NA,NA,NA,NA,NA,NA,NA
SUPAMT07437,NA,ED980FD5-D72A-4533-9161-67DE13AFA10B,2023-09-26_23h11.35.542,WP_VExplicitOC_LH,2022.2.5,Win32,16.78049435,77.86458333,3.5453,2.0132,NA,NA,NA,NA,NA,frustrated,"frustrated, not frustrated","more frustrated, less frustrated",NA,NA,NA,NA,NA,NA,NA,NA,NA,NA,NA,NA,NA,NA,NA,0,1,1,1,1,NA,NA,NA,NA,NA,NA,NA,NA,NA,NA,NA,NA,NA,NA,NA,NA,NA,NA,NA,NA,NA,NA,NA,NA,NA,NA,NA,NA
SUPAMT07437,NA,ED980FD5-D72A-4533-9161-67DE13AFA10B,2023-09-26_23h11.35.542,WP_VExplicitOC_LH,2022.2.5,Win32,16.78049435,70.05208333,3.3535,2.0055,NA,NA,NA,NA,NA,bored,"bored, not bored","more bored, less bored",NA,NA,NA,NA,NA,NA,NA,NA,NA,NA,NA,NA,NA,NA,NA,0,2,2,2,1,NA,NA,NA,NA,NA,NA,NA,NA,NA,NA,NA,NA,NA,NA,NA,NA,NA,NA,NA,NA,NA,NA,NA,NA,NA,NA,NA,NA
SUPAMT07437,NA,ED980FD5-D72A-4533-9161-67DE13AFA10B,2023-09-26_23h11.35.542,WP_VExplicitOC_LH,2022.2.5,Win32,16.78049435,NA,NA,NA,NA,NA,NA,NA,NA,NA,NA,NA,NA,NA,NA,NA,NA,NA,NA,NA,NA,NA,NA,NA,NA,NA,NA,NA,NA,NA,NA,NA,10,0,10,0,1,NA,NA,NA,NA,NA,NA,NA,NA,NA,NA,NA,NA,NA,NA,NA,NA,NA,NA,NA,NA,NA,NA,NA
SUPAMT07437,NA,ED980FD5-D72A-4533-9161-67DE13AFA10B,2023-09-26_23h11.35.542,WP_VExplicitOC_LH,2022.2.5,Win32,16.78049435,55.72916667,3.2876,2.0066,NA,NA,NA,NA,NA,bored,"bored, not bored","more bored, less bored",NA,NA,NA,NA,NA,NA,NA,NA,NA,NA,NA,NA,NA,NA,NA,0,0,0,2,1,NA,NA,NA,NA,NA,NA,NA,NA,NA,NA,NA,NA,NA,NA,NA,NA,NA,NA,NA,NA,NA,NA,NA,NA,NA,NA,NA,NA
SUPAMT07437,NA,ED980FD5-D72A-4533-9161-67DE13AFA10B,2023-09-26_23h11.35.542,WP_VExplicitOC_LH,2022.2.5,Win32,16.78049435,50,3.1957,2.0734,NA,NA,NA,NA,NA,frustrated,"frustrated, not frustrated","more frustrated, less frustrated",NA,NA,NA,NA,NA,NA,NA,NA,NA,NA,NA,NA,NA,NA,NA,0,1,1,1,1,NA,NA,NA,NA,NA,NA,NA,NA,NA,NA,NA,NA,NA,NA,NA,NA,NA,NA,NA,NA,NA,NA,NA,NA,NA,NA,NA,NA
SUPAMT07437,NA,ED980FD5-D72A-4533-9161-67DE13AFA10B,2023-09-26_23h11.35.542,WP_VExplicitOC_LH,2022.2.5,Win32,16.78049435,77.34375,3.1327,2.0394,NA,NA,NA,NA,NA,happy,"unhappy, happy","less happy, more happy",NA,NA,NA,NA,NA,NA,NA,NA,NA,NA,NA,NA,NA,NA,NA,0,2,2,0,1,NA,NA,NA,NA,NA,NA,NA,NA,NA,NA,NA,NA,NA,NA,NA,NA,NA,NA,NA,NA,NA,NA,NA,NA,NA,NA,NA,NA
SUPAMT07437,NA,ED980FD5-D72A-4533-9161-67DE13AFA10B,2023-09-26_23h11.35.542,WP_VExplicitOC_LH,2022.2.5,Win32,16.78049435,NA,NA,NA,NA,NA,NA,NA,NA,NA,NA,NA,NA,NA,NA,NA,NA,NA,NA,NA,NA,NA,NA,NA,NA,NA,NA,NA,NA,NA,NA,NA,11,0,11,0,1,NA,NA,NA,NA,NA,NA,NA,NA,NA,NA,NA,NA,NA,NA,NA,NA,NA,NA,NA,NA,NA,NA,NA
SUPAMT07437,NA,ED980FD5-D72A-4533-9161-67DE13AFA10B,2023-09-26_23h11.35.542,WP_VExplicitOC_LH,2022.2.5,Win32,16.78049435,NA,NA,2.0276,NA,NA,NA,NA,NA,frustrated,"frustrated, not frustrated","more frustrated, less frustrated",NA,NA,NA,NA,NA,NA,NA,NA,NA,NA,NA,NA,NA,NA,NA,0,0,0,1,1,NA,NA,NA,NA,NA,NA,NA,NA,NA,NA,NA,NA,NA,NA,NA,NA,NA,NA,NA,NA,NA,NA,NA,NA,NA,NA,NA,NA
SUPAMT07437,NA,ED980FD5-D72A-4533-9161-67DE13AFA10B,2023-09-26_23h11.35.542,WP_VExplicitOC_LH,2022.2.5,Win32,16.78049435,NA,NA,2.0298,NA,NA,NA,NA,NA,bored,"bored, not bored","more bored, less bored",NA,NA,NA,NA,NA,NA,NA,NA,NA,NA,NA,NA,NA,NA,NA,0,1,1,2,1,NA,NA,NA,NA,NA,NA,NA,NA,NA,NA,NA,NA,NA,NA,NA,NA,NA,NA,NA,NA,NA,NA,NA,NA,NA,NA,NA,NA
SUPAMT07437,NA,ED980FD5-D72A-4533-9161-67DE13AFA10B,2023-09-26_23h11.35.542,WP_VExplicitOC_LH,2022.2.5,Win32,16.78049435,99.21875,4.8808,2.0557,NA,NA,NA,NA,NA,happy,"unhappy, happy","less happy, more happy",NA,NA,NA,NA,NA,NA,NA,NA,NA,NA,NA,NA,NA,NA,NA,0,2,2,0,1,NA,NA,NA,NA,NA,NA,NA,NA,NA,NA,NA,NA,NA,NA,NA,NA,NA,NA,NA,NA,NA,NA,NA,NA,NA,NA,NA,NA
SUPAMT07437,NA,ED980FD5-D72A-4533-9161-67DE13AFA10B,2023-09-26_23h11.35.542,WP_VExplicitOC_LH,2022.2.5,Win32,16.78049435,NA,NA,NA,NA,NA,NA,NA,NA,NA,NA,NA,NA,NA,NA,NA,NA,NA,NA,NA,NA,NA,NA,NA,NA,NA,NA,NA,NA,NA,NA,NA,12,0,12,0,1,NA,NA,NA,NA,NA,NA,NA,NA,NA,NA,NA,NA,NA,NA,NA,NA,NA,NA,NA,NA,NA,NA,NA
SUPAMT07437,NA,ED980FD5-D72A-4533-9161-67DE13AFA10B,2023-09-26_23h11.35.542,WP_VExplicitOC_LH,2022.2.5,Win32,16.78049435,53.64583333,6.8309,2.0147,NA,NA,NA,NA,NA,frustrated,"frustrated, not frustrated","more frustrated, less frustrated",NA,NA,NA,NA,NA,NA,NA,NA,NA,NA,NA,NA,NA,NA,NA,0,0,0,1,1,NA,NA,NA,NA,NA,NA,NA,NA,NA,NA,NA,NA,NA,NA,NA,NA,NA,NA,NA,NA,NA,NA,NA,NA,NA,NA,NA,NA
SUPAMT07437,NA,ED980FD5-D72A-4533-9161-67DE13AFA10B,2023-09-26_23h11.35.542,WP_VExplicitOC_LH,2022.2.5,Win32,16.78049435,54.16666667,3.2921,2.0625,NA,NA,NA,NA,NA,bored,"bored, not bored","more bored, less bored",NA,NA,NA,NA,NA,NA,NA,NA,NA,NA,NA,NA,NA,NA,NA,0,1,1,2,1,NA,NA,NA,NA,NA,NA,NA,NA,NA,NA,NA,NA,NA,NA,NA,NA,NA,NA,NA,NA,NA,NA,NA,NA,NA,NA,NA,NA
SUPAMT07437,NA,ED980FD5-D72A-4533-9161-67DE13AFA10B,2023-09-26_23h11.35.542,WP_VExplicitOC_LH,2022.2.5,Win32,16.78049435,89.84375,3.0868,2.0159,NA,NA,NA,NA,NA,happy,"unhappy, happy","less happy, more happy",NA,NA,NA,NA,NA,NA,NA,NA,NA,NA,NA,NA,NA,NA,NA,0,2,2,0,1,NA,NA,NA,NA,NA,NA,NA,NA,NA,NA,NA,NA,NA,NA,NA,NA,NA,NA,NA,NA,NA,NA,NA,NA,NA,NA,NA,NA
SUPAMT07437,NA,ED980FD5-D72A-4533-9161-67DE13AFA10B,2023-09-26_23h11.35.542,WP_VExplicitOC_LH,2022.2.5,Win32,16.78049435,NA,NA,NA,NA,NA,NA,NA,NA,NA,NA,NA,NA,NA,NA,NA,NA,NA,NA,NA,NA,NA,NA,NA,NA,NA,NA,NA,NA,NA,NA,NA,13,0,13,0,1,NA,NA,NA,NA,NA,NA,NA,NA,NA,NA,NA,NA,NA,NA,NA,NA,NA,NA,NA,NA,NA,NA,NA
SUPAMT07437,NA,ED980FD5-D72A-4533-9161-67DE13AFA10B,2023-09-26_23h11.35.542,WP_VExplicitOC_LH,2022.2.5,Win32,16.78049435,57.8125,3.3013,2.0258,NA,NA,NA,NA,NA,frustrated,"frustrated, not frustrated","more frustrated, less frustrated",NA,NA,NA,NA,NA,NA,NA,NA,NA,NA,NA,NA,NA,NA,NA,0,0,0,1,1,NA,NA,NA,NA,NA,NA,NA,NA,NA,NA,NA,NA,NA,NA,NA,NA,NA,NA,NA,NA,NA,NA,NA,NA,NA,NA,NA,NA
SUPAMT07437,NA,ED980FD5-D72A-4533-9161-67DE13AFA10B,2023-09-26_23h11.35.542,WP_VExplicitOC_LH,2022.2.5,Win32,16.78049435,63.54166667,3.7184,2.0279,NA,NA,NA,NA,NA,bored,"bored, not bored","more bored, less bored",NA,NA,NA,NA,NA,NA,NA,NA,NA,NA,NA,NA,NA,NA,NA,0,1,1,2,1,NA,NA,NA,NA,NA,NA,NA,NA,NA,NA,NA,NA,NA,NA,NA,NA,NA,NA,NA,NA,NA,NA,NA,NA,NA,NA,NA,NA
SUPAMT07437,NA,ED980FD5-D72A-4533-9161-67DE13AFA10B,2023-09-26_23h11.35.542,WP_VExplicitOC_LH,2022.2.5,Win32,16.78049435,79.42708333,3.1714,2.0389,NA,NA,NA,NA,NA,happy,"unhappy, happy","less happy, more happy",NA,NA,NA,NA,NA,NA,NA,NA,NA,NA,NA,NA,NA,NA,NA,0,2,2,0,1,NA,NA,NA,NA,NA,NA,NA,NA,NA,NA,NA,NA,NA,NA,NA,NA,NA,NA,NA,NA,NA,NA,NA,NA,NA,NA,NA,NA
SUPAMT07437,NA,ED980FD5-D72A-4533-9161-67DE13AFA10B,2023-09-26_23h11.35.542,WP_VExplicitOC_LH,2022.2.5,Win32,16.78049435,NA,NA,NA,NA,NA,NA,NA,NA,NA,NA,NA,NA,NA,NA,NA,NA,NA,NA,NA,NA,NA,NA,NA,NA,NA,NA,NA,NA,NA,NA,NA,14,0,14,0,1,NA,NA,NA,NA,NA,NA,NA,NA,NA,NA,NA,NA,NA,NA,NA,NA,NA,NA,NA,NA,NA,NA,NA
SUPAMT07437,NA,ED980FD5-D72A-4533-9161-67DE13AFA10B,2023-09-26_23h11.35.542,WP_VExplicitOC_LH,2022.2.5,Win32,16.78049435,NA,NA,NA,NA,NA,NA,NA,NA,NA,NA,NA,NA,NA,NA,NA,NA,NA,NA,NA,NA,NA,NA,NA,NA,NA,NA,NA,NA,NA,NA,NA,NA,NA,NA,NA,NA,NA,NA,NA,NA,NA,NA,NA,NA,NA,NA,NA,NA,NA,NA,NA,NA,NA,NA,NA,NA,NA,NA,NA
SUPAMT07437,NA,ED980FD5-D72A-4533-9161-67DE13AFA10B,2023-09-26_23h11.35.542,WP_VExplicitOC_LH,2022.2.5,Win32,16.78049435,NA,NA,NA,NA,NA,NA,NA,NA,NA,NA,NA,NA,NA,NA,NA,NA,NA,NA,NA,NA,NA,NA,NA,NA,NA,NA,NA,NA,NA,NA,NA,NA,NA,NA,NA,NA,NA,NA,NA,NA,NA,NA,NA,NA,NA,NA,NA,NA,NA,NA,NA,NA,NA,NA,NA,NA,NA,NA,NA
SUPAMT07437,NA,ED980FD5-D72A-4533-9161-67DE13AFA10B,2023-09-26_23h11.35.542,WP_VExplicitOC_LH,2022.2.5,Win32,16.78049435,NA,NA,NA,NA,NA,NA,NA,NA,NA,NA,NA,NA,NA,NA,NA,NA,NA,NA,rest (looking at a fixed cross),001.png,NA,NA,NA,NA,NA,NA,NA,NA,NA,NA,NA,NA,NA,NA,NA,NA,65.88541667,2.5965,0,0,0,0,1,NA,NA,NA,NA,NA,NA,NA,NA,NA,NA,NA,NA,NA,NA,NA,NA
SUPAMT07437,NA,ED980FD5-D72A-4533-9161-67DE13AFA10B,2023-09-26_23h11.35.542,WP_VExplicitOC_LH,2022.2.5,Win32,16.78049435,NA,NA,NA,NA,NA,NA,NA,NA,NA,NA,NA,NA,NA,NA,NA,NA,NA,NA,stand up,002.png,NA,NA,NA,NA,NA,NA,NA,NA,NA,NA,NA,NA,NA,NA,NA,NA,66.92708333,0.2392,0,1,1,1,1,NA,NA,NA,NA,NA,NA,NA,NA,NA,NA,NA,NA,NA,NA,NA,NA
SUPAMT07437,NA,ED980FD5-D72A-4533-9161-67DE13AFA10B,2023-09-26_23h11.35.542,WP_VExplicitOC_LH,2022.2.5,Win32,16.78049435,NA,NA,NA,NA,NA,NA,NA,NA,NA,NA,NA,NA,NA,NA,NA,NA,NA,NA,stretch,003.png,NA,NA,NA,NA,NA,NA,NA,NA,NA,NA,NA,NA,NA,NA,NA,NA,66.92708333,0.4781,0,2,2,2,1,NA,NA,NA,NA,NA,NA,NA,NA,NA,NA,NA,NA,NA,NA,NA,NA
SUPAMT07437,NA,ED980FD5-D72A-4533-9161-67DE13AFA10B,2023-09-26_23h11.35.542,WP_VExplicitOC_LH,2022.2.5,Win32,16.78049435,NA,NA,NA,NA,NA,NA,NA,NA,NA,NA,NA,NA,NA,NA,NA,NA,NA,NA,make a drink,004.png,NA,NA,NA,NA,NA,NA,NA,NA,NA,NA,NA,NA,NA,NA,NA,NA,66.92708333,0.7579,0,3,3,3,1,NA,NA,NA,NA,NA,NA,NA,NA,NA,NA,NA,NA,NA,NA,NA,NA
SUPAMT07437,NA,ED980FD5-D72A-4533-9161-67DE13AFA10B,2023-09-26_23h11.35.542,WP_VExplicitOC_LH,2022.2.5,Win32,16.78049435,NA,NA,NA,NA,NA,NA,NA,NA,NA,NA,NA,NA,NA,NA,NA,NA,NA,NA,scroll social media,005.png,NA,NA,NA,NA,NA,NA,NA,NA,NA,NA,NA,NA,NA,NA,NA,NA,66.92708333,0.1755,0,4,4,4,1,NA,NA,NA,NA,NA,NA,NA,NA,NA,NA,NA,NA,NA,NA,NA,NA
SUPAMT07437,NA,ED980FD5-D72A-4533-9161-67DE13AFA10B,2023-09-26_23h11.35.542,WP_VExplicitOC_LH,2022.2.5,Win32,16.78049435,NA,NA,NA,NA,NA,NA,NA,NA,NA,NA,NA,NA,NA,NA,NA,NA,NA,NA,listen to music,006.png,NA,NA,NA,NA,NA,NA,NA,NA,NA,NA,NA,NA,NA,NA,NA,NA,66.92708333,0.1965,0,5,5,5,1,NA,NA,NA,NA,NA,NA,NA,NA,NA,NA,NA,NA,NA,NA,NA,NA
SUPAMT07437,NA,ED980FD5-D72A-4533-9161-67DE13AFA10B,2023-09-26_23h11.35.542,WP_VExplicitOC_LH,2022.2.5,Win32,16.78049435,NA,NA,NA,NA,NA,NA,NA,NA,NA,NA,NA,NA,NA,NA,NA,NA,NA,NA,daydream,007.png,NA,NA,NA,NA,NA,NA,NA,NA,NA,NA,NA,NA,NA,NA,NA,NA,66.92708333,0.1575,0,6,6,6,1,NA,NA,NA,NA,NA,NA,NA,NA,NA,NA,NA,NA,NA,NA,NA,NA
SUPAMT07437,NA,ED980FD5-D72A-4533-9161-67DE13AFA10B,2023-09-26_23h11.35.542,WP_VExplicitOC_LH,2022.2.5,Win32,16.78049435,NA,NA,NA,NA,NA,NA,NA,NA,NA,NA,NA,NA,NA,NA,NA,NA,NA,NA,watch a short animation,008.png,NA,NA,NA,NA,NA,NA,NA,NA,NA,NA,NA,NA,NA,NA,NA,NA,66.92708333,0.2181,0,7,7,7,1,NA,NA,NA,NA,NA,NA,NA,NA,NA,NA,NA,NA,NA,NA,NA,NA
SUPAMT07437,NA,ED980FD5-D72A-4533-9161-67DE13AFA10B,2023-09-26_23h11.35.542,WP_VExplicitOC_LH,2022.2.5,Win32,16.78049435,NA,NA,NA,NA,NA,NA,NA,NA,NA,NA,NA,NA,NA,NA,NA,NA,NA,NA,read a novel,009.png,NA,NA,NA,NA,NA,NA,NA,NA,NA,NA,NA,NA,NA,NA,NA,NA,66.66666667,0.1877,0,8,8,8,1,NA,NA,NA,NA,NA,NA,NA,NA,NA,NA,NA,NA,NA,NA,NA,NA
SUPAMT07437,NA,ED980FD5-D72A-4533-9161-67DE13AFA10B,2023-09-26_23h11.35.542,WP_VExplicitOC_LH,2022.2.5,Win32,16.78049435,NA,NA,NA,NA,NA,NA,NA,NA,NA,NA,NA,NA,NA,NA,NA,NA,NA,NA,read the news,010.png,NA,NA,NA,NA,NA,NA,NA,NA,NA,NA,NA,NA,NA,NA,NA,NA,66.66666667,0.2375,0,9,9,9,1,NA,NA,NA,NA,NA,NA,NA,NA,NA,NA,NA,NA,NA,NA,NA,NA
SUPAMT07437,NA,ED980FD5-D72A-4533-9161-67DE13AFA10B,2023-09-26_23h11.35.542,WP_VExplicitOC_LH,2022.2.5,Win32,16.78049435,NA,NA,NA,NA,NA,NA,NA,NA,NA,NA,NA,NA,NA,NA,NA,NA,NA,NA,NA,NA,NA,NA,NA,NA,NA,NA,NA,NA,NA,NA,NA,NA,NA,NA,NA,NA,NA,NA,NA,NA,NA,NA,NA,stand up,NA,NA,NA,NA,NA,NA,NA,NA,NA,NA,NA,NA,NA,NA,NA
SUPAMT07437,NA,ED980FD5-D72A-4533-9161-67DE13AFA10B,2023-09-26_23h11.35.542,WP_VExplicitOC_LH,2022.2.5,Win32,16.78049435,72.37479806,3.4389,2.0266,NA,NA,NA,NA,NA,frustrated,"frustrated, not frustrated","more frustrated, less frustrated",NA,NA,NA,NA,NA,NA,NA,NA,NA,NA,NA,NA,NA,NA,NA,NA,NA,NA,NA,NA,NA,NA,NA,NA,NA,NA,NA,NA,NA,NA,NA,NA,NA,0,0,0,1,1,NA,NA,NA,NA,NA,NA,NA,NA,NA,NA
SUPAMT07437,NA,ED980FD5-D72A-4533-9161-67DE13AFA10B,2023-09-26_23h11.35.542,WP_VExplicitOC_LH,2022.2.5,Win32,16.78049435,77.54442649,3.2368,2.0058,NA,NA,NA,NA,NA,bored,"bored, not bored","more bored, less bored",NA,NA,NA,NA,NA,NA,NA,NA,NA,NA,NA,NA,NA,NA,NA,NA,NA,NA,NA,NA,NA,NA,NA,NA,NA,NA,NA,NA,NA,NA,NA,NA,NA,0,1,1,2,1,NA,NA,NA,NA,NA,NA,NA,NA,NA,NA
SUPAMT07437,NA,ED980FD5-D72A-4533-9161-67DE13AFA10B,2023-09-26_23h11.35.542,WP_VExplicitOC_LH,2022.2.5,Win32,16.78049435,91.76090468,3.3197,2.0023,NA,NA,NA,NA,NA,happy,"unhappy, happy","less happy, more happy",NA,NA,NA,NA,NA,NA,NA,NA,NA,NA,NA,NA,NA,NA,NA,NA,NA,NA,NA,NA,NA,NA,NA,NA,NA,NA,NA,NA,NA,NA,NA,NA,NA,0,2,2,0,1,NA,NA,NA,NA,NA,NA,NA,NA,NA,NA
SUPAMT07437,NA,ED980FD5-D72A-4533-9161-67DE13AFA10B,2023-09-26_23h11.35.542,WP_VExplicitOC_LH,2022.2.5,Win32,16.78049435,NA,NA,NA,NA,NA,NA,NA,NA,NA,NA,NA,NA,NA,NA,NA,NA,NA,NA,NA,NA,NA,NA,NA,NA,NA,NA,NA,NA,NA,NA,NA,NA,NA,NA,NA,NA,NA,NA,NA,NA,NA,NA,NA,NA,NA,NA,NA,NA,NA,NA,NA,NA,NA,NA,NA,NA,NA,NA,NA
SUPAMT07437,NA,ED980FD5-D72A-4533-9161-67DE13AFA10B,2023-09-26_23h11.35.542,WP_VExplicitOC_LH,2022.2.5,Win32,16.78049435,NA,NA,NA,NA,NA,NA,NA,NA,NA,NA,NA,NA,NA,NA,NA,NA,NA,NA,NA,NA,NA,NA,NA,NA,NA,NA,NA,NA,NA,NA,NA,NA,NA,NA,NA,NA,NA,NA,NA,NA,NA,NA,NA,NA,NA,NA,NA,NA,NA,NA,NA,NA,NA,NA,NA,NA,NA,NA,NA
SUPAMT07437,NA,ED980FD5-D72A-4533-9161-67DE13AFA10B,2023-09-26_23h11.35.542,WP_VExplicitOC_LH,2022.2.5,Win32,16.78049435,66.55896607,4.1888,2.0266,NA,NA,NA,NA,NA,happy,"unhappy, happy","less happy, more happy",NA,NA,NA,NA,NA,NA,NA,NA,NA,NA,NA,NA,NA,NA,NA,NA,NA,NA,NA,NA,NA,NA,NA,NA,NA,NA,NA,NA,NA,NA,NA,NA,NA,NA,NA,NA,NA,NA,0,0,0,0,1,NA,NA,NA,NA,NA
SUPAMT07437,NA,ED980FD5-D72A-4533-9161-67DE13AFA10B,2023-09-26_23h11.35.542,WP_VExplicitOC_LH,2022.2.5,Win32,16.78049435,75.60581583,3.8308,2.019,NA,NA,NA,NA,NA,frustrated,"frustrated, not frustrated","more frustrated, less frustrated",NA,NA,NA,NA,NA,NA,NA,NA,NA,NA,NA,NA,NA,NA,NA,NA,NA,NA,NA,NA,NA,NA,NA,NA,NA,NA,NA,NA,NA,NA,NA,NA,NA,NA,NA,NA,NA,NA,0,1,1,1,1,NA,NA,NA,NA,NA
SUPAMT07437,NA,ED980FD5-D72A-4533-9161-67DE13AFA10B,2023-09-26_23h11.35.542,WP_VExplicitOC_LH,2022.2.5,Win32,16.78049435,70.75928918,3.4944,2.0174,NA,NA,NA,NA,NA,bored,"bored, not bored","more bored, less bored",NA,NA,NA,NA,NA,NA,NA,NA,NA,NA,NA,NA,NA,NA,NA,NA,NA,NA,NA,NA,NA,NA,NA,NA,NA,NA,NA,NA,NA,NA,NA,NA,NA,NA,NA,NA,NA,NA,0,2,2,2,1,NA,NA,NA,NA,NA
SUPAMT07437,NA,ED980FD5-D72A-4533-9161-67DE13AFA10B,2023-09-26_23h11.35.542,WP_VExplicitOC_LH,2022.2.5,Win32,16.78049435,NA,NA,NA,NA,NA,NA,NA,NA,NA,NA,NA,NA,NA,NA,NA,NA,NA,NA,NA,NA,NA,NA,NA,NA,NA,NA,NA,NA,NA,NA,NA,NA,NA,NA,NA,NA,NA,NA,NA,NA,NA,NA,NA,NA,NA,NA,NA,NA,NA,NA,NA,NA,NA,NA,0,0,0,0,1
SUPAMT07437,NA,ED980FD5-D72A-4533-9161-67DE13AFA10B,2023-09-26_23h11.35.542,WP_VExplicitOC_LH,2022.2.5,Win32,16.78049435,83.0371567,3.4982,2.0524,NA,NA,NA,NA,NA,frustrated,"frustrated, not frustrated","more frustrated, less frustrated",NA,NA,NA,NA,NA,NA,NA,NA,NA,NA,NA,NA,NA,NA,NA,NA,NA,NA,NA,NA,NA,NA,NA,NA,NA,NA,NA,NA,NA,NA,NA,NA,NA,NA,NA,NA,NA,NA,0,0,0,1,1,NA,NA,NA,NA,NA
SUPAMT07437,NA,ED980FD5-D72A-4533-9161-67DE13AFA10B,2023-09-26_23h11.35.542,WP_VExplicitOC_LH,2022.2.5,Win32,16.78049435,81.42164782,3.2678,2.0582,NA,NA,NA,NA,NA,happy,"unhappy, happy","less happy, more happy",NA,NA,NA,NA,NA,NA,NA,NA,NA,NA,NA,NA,NA,NA,NA,NA,NA,NA,NA,NA,NA,NA,NA,NA,NA,NA,NA,NA,NA,NA,NA,NA,NA,NA,NA,NA,NA,NA,0,1,1,0,1,NA,NA,NA,NA,NA
SUPAMT07437,NA,ED980FD5-D72A-4533-9161-67DE13AFA10B,2023-09-26_23h11.35.542,WP_VExplicitOC_LH,2022.2.5,Win32,16.78049435,88.52988691,3.4992,2.0273,NA,NA,NA,NA,NA,bored,"bored, not bored","more bored, less bored",NA,NA,NA,NA,NA,NA,NA,NA,NA,NA,NA,NA,NA,NA,NA,NA,NA,NA,NA,NA,NA,NA,NA,NA,NA,NA,NA,NA,NA,NA,NA,NA,NA,NA,NA,NA,NA,NA,0,2,2,2,1,NA,NA,NA,NA,NA
SUPAMT07437,NA,ED980FD5-D72A-4533-9161-67DE13AFA10B,2023-09-26_23h11.35.542,WP_VExplicitOC_LH,2022.2.5,Win32,16.78049435,NA,NA,NA,NA,NA,NA,NA,NA,NA,NA,NA,NA,NA,NA,NA,NA,NA,NA,NA,NA,NA,NA,NA,NA,NA,NA,NA,NA,NA,NA,NA,NA,NA,NA,NA,NA,NA,NA,NA,NA,NA,NA,NA,NA,NA,NA,NA,NA,NA,NA,NA,NA,NA,NA,1,0,1,0,1
SUPAMT07437,NA,ED980FD5-D72A-4533-9161-67DE13AFA10B,2023-09-26_23h11.35.542,WP_VExplicitOC_LH,2022.2.5,Win32,16.78049435,90.46849758,3.9287,2.0233,NA,NA,NA,NA,NA,frustrated,"frustrated, not frustrated","more frustrated, less frustrated",NA,NA,NA,NA,NA,NA,NA,NA,NA,NA,NA,NA,NA,NA,NA,NA,NA,NA,NA,NA,NA,NA,NA,NA,NA,NA,NA,NA,NA,NA,NA,NA,NA,NA,NA,NA,NA,NA,0,0,0,1,1,NA,NA,NA,NA,NA
SUPAMT07437,NA,ED980FD5-D72A-4533-9161-67DE13AFA10B,2023-09-26_23h11.35.542,WP_VExplicitOC_LH,2022.2.5,Win32,16.78049435,65.58966074,3.5047,2.0433,NA,NA,NA,NA,NA,happy,"unhappy, happy","less happy, more happy",NA,NA,NA,NA,NA,NA,NA,NA,NA,NA,NA,NA,NA,NA,NA,NA,NA,NA,NA,NA,NA,NA,NA,NA,NA,NA,NA,NA,NA,NA,NA,NA,NA,NA,NA,NA,NA,NA,0,1,1,0,1,NA,NA,NA,NA,NA
SUPAMT07437,NA,ED980FD5-D72A-4533-9161-67DE13AFA10B,2023-09-26_23h11.35.542,WP_VExplicitOC_LH,2022.2.5,Win32,16.78049435,71.08239095,3.5156,2.013,NA,NA,NA,NA,NA,bored,"bored, not bored","more bored, less bored",NA,NA,NA,NA,NA,NA,NA,NA,NA,NA,NA,NA,NA,NA,NA,NA,NA,NA,NA,NA,NA,NA,NA,NA,NA,NA,NA,NA,NA,NA,NA,NA,NA,NA,NA,NA,NA,NA,0,2,2,2,1,NA,NA,NA,NA,NA
SUPAMT07437,NA,ED980FD5-D72A-4533-9161-67DE13AFA10B,2023-09-26_23h11.35.542,WP_VExplicitOC_LH,2022.2.5,Win32,16.78049435,NA,NA,NA,NA,NA,NA,NA,NA,NA,NA,NA,NA,NA,NA,NA,NA,NA,NA,NA,NA,NA,NA,NA,NA,NA,NA,NA,NA,NA,NA,NA,NA,NA,NA,NA,NA,NA,NA,NA,NA,NA,NA,NA,NA,NA,NA,NA,NA,NA,NA,NA,NA,NA,NA,2,0,2,0,1
SUPAMT07437,NA,ED980FD5-D72A-4533-9161-67DE13AFA10B,2023-09-26_23h11.35.542,WP_VExplicitOC_LH,2022.2.5,Win32,16.78049435,NA,NA,2.0255,NA,NA,NA,NA,NA,happy,"unhappy, happy","less happy, more happy",NA,NA,NA,NA,NA,NA,NA,NA,NA,NA,NA,NA,NA,NA,NA,NA,NA,NA,NA,NA,NA,NA,NA,NA,NA,NA,NA,NA,NA,NA,NA,NA,NA,NA,NA,NA,NA,NA,0,0,0,0,1,NA,NA,NA,NA,NA
SUPAMT07437,NA,ED980FD5-D72A-4533-9161-67DE13AFA10B,2023-09-26_23h11.35.542,WP_VExplicitOC_LH,2022.2.5,Win32,16.78049435,NA,NA,2.0008,NA,NA,NA,NA,NA,frustrated,"frustrated, not frustrated","more frustrated, less frustrated",NA,NA,NA,NA,NA,NA,NA,NA,NA,NA,NA,NA,NA,NA,NA,NA,NA,NA,NA,NA,NA,NA,NA,NA,NA,NA,NA,NA,NA,NA,NA,NA,NA,NA,NA,NA,NA,NA,0,1,1,1,1,NA,NA,NA,NA,NA
SUPAMT07437,NA,ED980FD5-D72A-4533-9161-67DE13AFA10B,2023-09-26_23h11.35.542,WP_VExplicitOC_LH,2022.2.5,Win32,16.78049435,84.65266559,5.4679,2.0217,NA,NA,NA,NA,NA,bored,"bored, not bored","more bored, less bored",NA,NA,NA,NA,NA,NA,NA,NA,NA,NA,NA,NA,NA,NA,NA,NA,NA,NA,NA,NA,NA,NA,NA,NA,NA,NA,NA,NA,NA,NA,NA,NA,NA,NA,NA,NA,NA,NA,0,2,2,2,1,NA,NA,NA,NA,NA
SUPAMT07437,NA,ED980FD5-D72A-4533-9161-67DE13AFA10B,2023-09-26_23h11.35.542,WP_VExplicitOC_LH,2022.2.5,Win32,16.78049435,NA,NA,NA,NA,NA,NA,NA,NA,NA,NA,NA,NA,NA,NA,NA,NA,NA,NA,NA,NA,NA,NA,NA,NA,NA,NA,NA,NA,NA,NA,NA,NA,NA,NA,NA,NA,NA,NA,NA,NA,NA,NA,NA,NA,NA,NA,NA,NA,NA,NA,NA,NA,NA,NA,3,0,3,0,1
SUPAMT07437,NA,ED980FD5-D72A-4533-9161-67DE13AFA10B,2023-09-26_23h11.35.542,WP_VExplicitOC_LH,2022.2.5,Win32,16.78049435,68.49757674,5.5958,2.0263,NA,NA,NA,NA,NA,bored,"bored, not bored","more bored, less bored",NA,NA,NA,NA,NA,NA,NA,NA,NA,NA,NA,NA,NA,NA,NA,NA,NA,NA,NA,NA,NA,NA,NA,NA,NA,NA,NA,NA,NA,NA,NA,NA,NA,NA,NA,NA,NA,NA,0,0,0,2,1,NA,NA,NA,NA,NA
SUPAMT07437,NA,ED980FD5-D72A-4533-9161-67DE13AFA10B,2023-09-26_23h11.35.542,WP_VExplicitOC_LH,2022.2.5,Win32,16.78049435,74.31340872,4.6112,2.0304,NA,NA,NA,NA,NA,happy,"unhappy, happy","less happy, more happy",NA,NA,NA,NA,NA,NA,NA,NA,NA,NA,NA,NA,NA,NA,NA,NA,NA,NA,NA,NA,NA,NA,NA,NA,NA,NA,NA,NA,NA,NA,NA,NA,NA,NA,NA,NA,NA,NA,0,1,1,0,1,NA,NA,NA,NA,NA
SUPAMT07437,NA,ED980FD5-D72A-4533-9161-67DE13AFA10B,2023-09-26_23h11.35.542,WP_VExplicitOC_LH,2022.2.5,Win32,16.78049435,43.6187399,3.0169,2.0059,NA,NA,NA,NA,NA,frustrated,"frustrated, not frustrated","more frustrated, less frustrated",NA,NA,NA,NA,NA,NA,NA,NA,NA,NA,NA,NA,NA,NA,NA,NA,NA,NA,NA,NA,NA,NA,NA,NA,NA,NA,NA,NA,NA,NA,NA,NA,NA,NA,NA,NA,NA,NA,0,2,2,1,1,NA,NA,NA,NA,NA
SUPAMT07437,NA,ED980FD5-D72A-4533-9161-67DE13AFA10B,2023-09-26_23h11.35.542,WP_VExplicitOC_LH,2022.2.5,Win32,16.78049435,NA,NA,NA,NA,NA,NA,NA,NA,NA,NA,NA,NA,NA,NA,NA,NA,NA,NA,NA,NA,NA,NA,NA,NA,NA,NA,NA,NA,NA,NA,NA,NA,NA,NA,NA,NA,NA,NA,NA,NA,NA,NA,NA,NA,NA,NA,NA,NA,NA,NA,NA,NA,NA,NA,4,0,4,0,1
SUPAMT07437,NA,ED980FD5-D72A-4533-9161-67DE13AFA10B,2023-09-26_23h11.35.542,WP_VExplicitOC_LH,2022.2.5,Win32,16.78049435,NA,NA,2.0292,NA,NA,NA,NA,NA,happy,"unhappy, happy","less happy, more happy",NA,NA,NA,NA,NA,NA,NA,NA,NA,NA,NA,NA,NA,NA,NA,NA,NA,NA,NA,NA,NA,NA,NA,NA,NA,NA,NA,NA,NA,NA,NA,NA,NA,NA,NA,NA,NA,NA,0,0,0,0,1,NA,NA,NA,NA,NA
SUPAMT07437,NA,ED980FD5-D72A-4533-9161-67DE13AFA10B,2023-09-26_23h11.35.542,WP_VExplicitOC_LH,2022.2.5,Win32,16.78049435,NA,NA,2.0634,NA,NA,NA,NA,NA,bored,"bored, not bored","more bored, less bored",NA,NA,NA,NA,NA,NA,NA,NA,NA,NA,NA,NA,NA,NA,NA,NA,NA,NA,NA,NA,NA,NA,NA,NA,NA,NA,NA,NA,NA,NA,NA,NA,NA,NA,NA,NA,NA,NA,0,1,1,2,1,NA,NA,NA,NA,NA
SUPAMT07437,NA,ED980FD5-D72A-4533-9161-67DE13AFA10B,2023-09-26_23h11.35.542,WP_VExplicitOC_LH,2022.2.5,Win32,16.78049435,NA,NA,2.0423,NA,NA,NA,NA,NA,frustrated,"frustrated, not frustrated","more frustrated, less frustrated",NA,NA,NA,NA,NA,NA,NA,NA,NA,NA,NA,NA,NA,NA,NA,NA,NA,NA,NA,NA,NA,NA,NA,NA,NA,NA,NA,NA,NA,NA,NA,NA,NA,NA,NA,NA,NA,NA,0,2,2,1,1,NA,NA,NA,NA,NA
SUPAMT07437,NA,ED980FD5-D72A-4533-9161-67DE13AFA10B,2023-09-26_23h11.35.542,WP_VExplicitOC_LH,2022.2.5,Win32,16.78049435,NA,NA,NA,NA,NA,NA,NA,NA,NA,NA,NA,NA,NA,NA,NA,NA,NA,NA,NA,NA,NA,NA,NA,NA,NA,NA,NA,NA,NA,NA,NA,NA,NA,NA,NA,NA,NA,NA,NA,NA,NA,NA,NA,NA,NA,NA,NA,NA,NA,NA,NA,NA,NA,NA,5,0,5,0,1
SUPAMT07437,NA,ED980FD5-D72A-4533-9161-67DE13AFA10B,2023-09-26_23h11.35.542,WP_VExplicitOC_LH,2022.2.5,Win32,16.78049435,77.86752827,3.4719,2.0405,NA,NA,NA,NA,NA,happy,"unhappy, happy","less happy, more happy",NA,NA,NA,NA,NA,NA,NA,NA,NA,NA,NA,NA,NA,NA,NA,NA,NA,NA,NA,NA,NA,NA,NA,NA,NA,NA,NA,NA,NA,NA,NA,NA,NA,NA,NA,NA,NA,NA,0,0,0,0,1,NA,NA,NA,NA,NA
SUPAMT07437,NA,ED980FD5-D72A-4533-9161-67DE13AFA10B,2023-09-26_23h11.35.542,WP_VExplicitOC_LH,2022.2.5,Win32,16.78049435,46.84975767,3.4877,2.0049,NA,NA,NA,NA,NA,bored,"bored, not bored","more bored, less bored",NA,NA,NA,NA,NA,NA,NA,NA,NA,NA,NA,NA,NA,NA,NA,NA,NA,NA,NA,NA,NA,NA,NA,NA,NA,NA,NA,NA,NA,NA,NA,NA,NA,NA,NA,NA,NA,NA,0,1,1,2,1,NA,NA,NA,NA,NA
SUPAMT07437,NA,ED980FD5-D72A-4533-9161-67DE13AFA10B,2023-09-26_23h11.35.542,WP_VExplicitOC_LH,2022.2.5,Win32,16.78049435,59.45072698,3.7149,2.0172,NA,NA,NA,NA,NA,frustrated,"frustrated, not frustrated","more frustrated, less frustrated",NA,NA,NA,NA,NA,NA,NA,NA,NA,NA,NA,NA,NA,NA,NA,NA,NA,NA,NA,NA,NA,NA,NA,NA,NA,NA,NA,NA,NA,NA,NA,NA,NA,NA,NA,NA,NA,NA,0,2,2,1,1,NA,NA,NA,NA,NA
SUPAMT07437,NA,ED980FD5-D72A-4533-9161-67DE13AFA10B,2023-09-26_23h11.35.542,WP_VExplicitOC_LH,2022.2.5,Win32,16.78049435,NA,NA,NA,NA,NA,NA,NA,NA,NA,NA,NA,NA,NA,NA,NA,NA,NA,NA,NA,NA,NA,NA,NA,NA,NA,NA,NA,NA,NA,NA,NA,NA,NA,NA,NA,NA,NA,NA,NA,NA,NA,NA,NA,NA,NA,NA,NA,NA,NA,NA,NA,NA,NA,NA,6,0,6,0,1
SUPAMT07437,NA,ED980FD5-D72A-4533-9161-67DE13AFA10B,2023-09-26_23h11.35.542,WP_VExplicitOC_LH,2022.2.5,Win32,16.78049435,NA,NA,2.0017,NA,NA,NA,NA,NA,bored,"bored, not bored","more bored, less bored",NA,NA,NA,NA,NA,NA,NA,NA,NA,NA,NA,NA,NA,NA,NA,NA,NA,NA,NA,NA,NA,NA,NA,NA,NA,NA,NA,NA,NA,NA,NA,NA,NA,NA,NA,NA,NA,NA,0,0,0,2,1,NA,NA,NA,NA,NA
SUPAMT07437,NA,ED980FD5-D72A-4533-9161-67DE13AFA10B,2023-09-26_23h11.35.542,WP_VExplicitOC_LH,2022.2.5,Win32,16.78049435,64.62035541,3.7995,2.0544,NA,NA,NA,NA,NA,frustrated,"frustrated, not frustrated","more frustrated, less frustrated",NA,NA,NA,NA,NA,NA,NA,NA,NA,NA,NA,NA,NA,NA,NA,NA,NA,NA,NA,NA,NA,NA,NA,NA,NA,NA,NA,NA,NA,NA,NA,NA,NA,NA,NA,NA,NA,NA,0,1,1,1,1,NA,NA,NA,NA,NA
SUPAMT07437,NA,ED980FD5-D72A-4533-9161-67DE13AFA10B,2023-09-26_23h11.35.542,WP_VExplicitOC_LH,2022.2.5,Win32,16.78049435,87.56058158,2.9863,2.0053,NA,NA,NA,NA,NA,happy,"unhappy, happy","less happy, more happy",NA,NA,NA,NA,NA,NA,NA,NA,NA,NA,NA,NA,NA,NA,NA,NA,NA,NA,NA,NA,NA,NA,NA,NA,NA,NA,NA,NA,NA,NA,NA,NA,NA,NA,NA,NA,NA,NA,0,2,2,0,1,NA,NA,NA,NA,NA
SUPAMT07437,NA,ED980FD5-D72A-4533-9161-67DE13AFA10B,2023-09-26_23h11.35.542,WP_VExplicitOC_LH,2022.2.5,Win32,16.78049435,NA,NA,NA,NA,NA,NA,NA,NA,NA,NA,NA,NA,NA,NA,NA,NA,NA,NA,NA,NA,NA,NA,NA,NA,NA,NA,NA,NA,NA,NA,NA,NA,NA,NA,NA,NA,NA,NA,NA,NA,NA,NA,NA,NA,NA,NA,NA,NA,NA,NA,NA,NA,NA,NA,7,0,7,0,1
SUPAMT07437,NA,ED980FD5-D72A-4533-9161-67DE13AFA10B,2023-09-26_23h11.35.542,WP_VExplicitOC_LH,2022.2.5,Win32,16.78049435,NA,NA,2.0091,NA,NA,NA,NA,NA,bored,"bored, not bored","more bored, less bored",NA,NA,NA,NA,NA,NA,NA,NA,NA,NA,NA,NA,NA,NA,NA,NA,NA,NA,NA,NA,NA,NA,NA,NA,NA,NA,NA,NA,NA,NA,NA,NA,NA,NA,NA,NA,NA,NA,0,0,0,2,1,NA,NA,NA,NA,NA
SUPAMT07437,NA,ED980FD5-D72A-4533-9161-67DE13AFA10B,2023-09-26_23h11.35.542,WP_VExplicitOC_LH,2022.2.5,Win32,16.78049435,79.48303716,3.4206,2.0158,NA,NA,NA,NA,NA,happy,"unhappy, happy","less happy, more happy",NA,NA,NA,NA,NA,NA,NA,NA,NA,NA,NA,NA,NA,NA,NA,NA,NA,NA,NA,NA,NA,NA,NA,NA,NA,NA,NA,NA,NA,NA,NA,NA,NA,NA,NA,NA,NA,NA,0,1,1,0,1,NA,NA,NA,NA,NA
SUPAMT07437,NA,ED980FD5-D72A-4533-9161-67DE13AFA10B,2023-09-26_23h11.35.542,WP_VExplicitOC_LH,2022.2.5,Win32,16.78049435,50.726979,3.0177,2.0291,NA,NA,NA,NA,NA,frustrated,"frustrated, not frustrated","more frustrated, less frustrated",NA,NA,NA,NA,NA,NA,NA,NA,NA,NA,NA,NA,NA,NA,NA,NA,NA,NA,NA,NA,NA,NA,NA,NA,NA,NA,NA,NA,NA,NA,NA,NA,NA,NA,NA,NA,NA,NA,0,2,2,1,1,NA,NA,NA,NA,NA
SUPAMT07437,NA,ED980FD5-D72A-4533-9161-67DE13AFA10B,2023-09-26_23h11.35.542,WP_VExplicitOC_LH,2022.2.5,Win32,16.78049435,NA,NA,NA,NA,NA,NA,NA,NA,NA,NA,NA,NA,NA,NA,NA,NA,NA,NA,NA,NA,NA,NA,NA,NA,NA,NA,NA,NA,NA,NA,NA,NA,NA,NA,NA,NA,NA,NA,NA,NA,NA,NA,NA,NA,NA,NA,NA,NA,NA,NA,NA,NA,NA,NA,8,0,8,0,1
SUPAMT07437,NA,ED980FD5-D72A-4533-9161-67DE13AFA10B,2023-09-26_23h11.35.542,WP_VExplicitOC_LH,2022.2.5,Win32,16.78049435,NA,NA,2.0206,NA,NA,NA,NA,NA,frustrated,"frustrated, not frustrated","more frustrated, less frustrated",NA,NA,NA,NA,NA,NA,NA,NA,NA,NA,NA,NA,NA,NA,NA,NA,NA,NA,NA,NA,NA,NA,NA,NA,NA,NA,NA,NA,NA,NA,NA,NA,NA,NA,NA,NA,NA,NA,0,0,0,1,1,NA,NA,NA,NA,NA
SUPAMT07437,NA,ED980FD5-D72A-4533-9161-67DE13AFA10B,2023-09-26_23h11.35.542,WP_VExplicitOC_LH,2022.2.5,Win32,16.78049435,NA,NA,2.0278,NA,NA,NA,NA,NA,happy,"unhappy, happy","less happy, more happy",NA,NA,NA,NA,NA,NA,NA,NA,NA,NA,NA,NA,NA,NA,NA,NA,NA,NA,NA,NA,NA,NA,NA,NA,NA,NA,NA,NA,NA,NA,NA,NA,NA,NA,NA,NA,NA,NA,0,1,1,0,1,NA,NA,NA,NA,NA
SUPAMT07437,NA,ED980FD5-D72A-4533-9161-67DE13AFA10B,2023-09-26_23h11.35.542,WP_VExplicitOC_LH,2022.2.5,Win32,16.78049435,NA,NA,2.0136,NA,NA,NA,NA,NA,bored,"bored, not bored","more bored, less bored",NA,NA,NA,NA,NA,NA,NA,NA,NA,NA,NA,NA,NA,NA,NA,NA,NA,NA,NA,NA,NA,NA,NA,NA,NA,NA,NA,NA,NA,NA,NA,NA,NA,NA,NA,NA,NA,NA,0,2,2,2,1,NA,NA,NA,NA,NA
SUPAMT07437,NA,ED980FD5-D72A-4533-9161-67DE13AFA10B,2023-09-26_23h11.35.542,WP_VExplicitOC_LH,2022.2.5,Win32,16.78049435,NA,NA,NA,NA,NA,NA,NA,NA,NA,NA,NA,NA,NA,NA,NA,NA,NA,NA,NA,NA,NA,NA,NA,NA,NA,NA,NA,NA,NA,NA,NA,NA,NA,NA,NA,NA,NA,NA,NA,NA,NA,NA,NA,NA,NA,NA,NA,NA,NA,NA,NA,NA,NA,NA,9,0,9,0,1
SUPAMT07437,NA,ED980FD5-D72A-4533-9161-67DE13AFA10B,2023-09-26_23h11.35.542,WP_VExplicitOC_LH,2022.2.5,Win32,16.78049435,NA,NA,2.0394,NA,NA,NA,NA,NA,happy,"unhappy, happy","less happy, more happy",NA,NA,NA,NA,NA,NA,NA,NA,NA,NA,NA,NA,NA,NA,NA,NA,NA,NA,NA,NA,NA,NA,NA,NA,NA,NA,NA,NA,NA,NA,NA,NA,NA,NA,NA,NA,NA,NA,0,0,0,0,1,NA,NA,NA,NA,NA
SUPAMT07437,NA,ED980FD5-D72A-4533-9161-67DE13AFA10B,2023-09-26_23h11.35.542,WP_VExplicitOC_LH,2022.2.5,Win32,16.78049435,NA,NA,2.0315,NA,NA,NA,NA,NA,bored,"bored, not bored","more bored, less bored",NA,NA,NA,NA,NA,NA,NA,NA,NA,NA,NA,NA,NA,NA,NA,NA,NA,NA,NA,NA,NA,NA,NA,NA,NA,NA,NA,NA,NA,NA,NA,NA,NA,NA,NA,NA,NA,NA,0,1,1,2,1,NA,NA,NA,NA,NA
SUPAMT07437,NA,ED980FD5-D72A-4533-9161-67DE13AFA10B,2023-09-26_23h11.35.542,WP_VExplicitOC_LH,2022.2.5,Win32,16.78049435,NA,NA,2.0385,NA,NA,NA,NA,NA,frustrated,"frustrated, not frustrated","more frustrated, less frustrated",NA,NA,NA,NA,NA,NA,NA,NA,NA,NA,NA,NA,NA,NA,NA,NA,NA,NA,NA,NA,NA,NA,NA,NA,NA,NA,NA,NA,NA,NA,NA,NA,NA,NA,NA,NA,NA,NA,0,2,2,1,1,NA,NA,NA,NA,NA
SUPAMT07437,NA,ED980FD5-D72A-4533-9161-67DE13AFA10B,2023-09-26_23h11.35.542,WP_VExplicitOC_LH,2022.2.5,Win32,16.78049435,NA,NA,NA,NA,NA,NA,NA,NA,NA,NA,NA,NA,NA,NA,NA,NA,NA,NA,NA,NA,NA,NA,NA,NA,NA,NA,NA,NA,NA,NA,NA,NA,NA,NA,NA,NA,NA,NA,NA,NA,NA,NA,NA,NA,NA,NA,NA,NA,NA,NA,NA,NA,NA,NA,10,0,10,0,1
SUPAMT07437,NA,ED980FD5-D72A-4533-9161-67DE13AFA10B,2023-09-26_23h11.35.542,WP_VExplicitOC_LH,2022.2.5,Win32,16.78049435,80.45234249,3.0524,2.0099,NA,NA,NA,NA,NA,bored,"bored, not bored","more bored, less bored",NA,NA,NA,NA,NA,NA,NA,NA,NA,NA,NA,NA,NA,NA,NA,NA,NA,NA,NA,NA,NA,NA,NA,NA,NA,NA,NA,NA,NA,NA,NA,NA,NA,NA,NA,NA,NA,NA,0,0,0,2,1,NA,NA,NA,NA,NA
SUPAMT07437,NA,ED980FD5-D72A-4533-9161-67DE13AFA10B,2023-09-26_23h11.35.542,WP_VExplicitOC_LH,2022.2.5,Win32,16.78049435,62.35864297,3.6036,2.0241,NA,NA,NA,NA,NA,frustrated,"frustrated, not frustrated","more frustrated, less frustrated",NA,NA,NA,NA,NA,NA,NA,NA,NA,NA,NA,NA,NA,NA,NA,NA,NA,NA,NA,NA,NA,NA,NA,NA,NA,NA,NA,NA,NA,NA,NA,NA,NA,NA,NA,NA,NA,NA,0,1,1,1,1,NA,NA,NA,NA,NA
SUPAMT07437,NA,ED980FD5-D72A-4533-9161-67DE13AFA10B,2023-09-26_23h11.35.542,WP_VExplicitOC_LH,2022.2.5,Win32,16.78049435,61.06623586,3.1136,2.0348,NA,NA,NA,NA,NA,happy,"unhappy, happy","less happy, more happy",NA,NA,NA,NA,NA,NA,NA,NA,NA,NA,NA,NA,NA,NA,NA,NA,NA,NA,NA,NA,NA,NA,NA,NA,NA,NA,NA,NA,NA,NA,NA,NA,NA,NA,NA,NA,NA,NA,0,2,2,0,1,NA,NA,NA,NA,NA
SUPAMT07437,NA,ED980FD5-D72A-4533-9161-67DE13AFA10B,2023-09-26_23h11.35.542,WP_VExplicitOC_LH,2022.2.5,Win32,16.78049435,NA,NA,NA,NA,NA,NA,NA,NA,NA,NA,NA,NA,NA,NA,NA,NA,NA,NA,NA,NA,NA,NA,NA,NA,NA,NA,NA,NA,NA,NA,NA,NA,NA,NA,NA,NA,NA,NA,NA,NA,NA,NA,NA,NA,NA,NA,NA,NA,NA,NA,NA,NA,NA,NA,11,0,11,0,1
SUPAMT07437,NA,ED980FD5-D72A-4533-9161-67DE13AFA10B,2023-09-26_23h11.35.542,WP_VExplicitOC_LH,2022.2.5,Win32,16.78049435,97.25363489,3.752,2.0207,NA,NA,NA,NA,NA,bored,"bored, not bored","more bored, less bored",NA,NA,NA,NA,NA,NA,NA,NA,NA,NA,NA,NA,NA,NA,NA,NA,NA,NA,NA,NA,NA,NA,NA,NA,NA,NA,NA,NA,NA,NA,NA,NA,NA,NA,NA,NA,NA,NA,0,0,0,2,1,NA,NA,NA,NA,NA
SUPAMT07437,NA,ED980FD5-D72A-4533-9161-67DE13AFA10B,2023-09-26_23h11.35.542,WP_VExplicitOC_LH,2022.2.5,Win32,16.78049435,100,3.229,2.0978,NA,NA,NA,NA,NA,happy,"unhappy, happy","less happy, more happy",NA,NA,NA,NA,NA,NA,NA,NA,NA,NA,NA,NA,NA,NA,NA,NA,NA,NA,NA,NA,NA,NA,NA,NA,NA,NA,NA,NA,NA,NA,NA,NA,NA,NA,NA,NA,NA,NA,0,1,1,0,1,NA,NA,NA,NA,NA
SUPAMT07437,NA,ED980FD5-D72A-4533-9161-67DE13AFA10B,2023-09-26_23h11.35.542,WP_VExplicitOC_LH,2022.2.5,Win32,16.78049435,55.89660743,4.277,2.0385,NA,NA,NA,NA,NA,frustrated,"frustrated, not frustrated","more frustrated, less frustrated",NA,NA,NA,NA,NA,NA,NA,NA,NA,NA,NA,NA,NA,NA,NA,NA,NA,NA,NA,NA,NA,NA,NA,NA,NA,NA,NA,NA,NA,NA,NA,NA,NA,NA,NA,NA,NA,NA,0,2,2,1,1,NA,NA,NA,NA,NA
SUPAMT07437,NA,ED980FD5-D72A-4533-9161-67DE13AFA10B,2023-09-26_23h11.35.542,WP_VExplicitOC_LH,2022.2.5,Win32,16.78049435,NA,NA,NA,NA,NA,NA,NA,NA,NA,NA,NA,NA,NA,NA,NA,NA,NA,NA,NA,NA,NA,NA,NA,NA,NA,NA,NA,NA,NA,NA,NA,NA,NA,NA,NA,NA,NA,NA,NA,NA,NA,NA,NA,NA,NA,NA,NA,NA,NA,NA,NA,NA,NA,NA,12,0,12,0,1
SUPAMT07437,NA,ED980FD5-D72A-4533-9161-67DE13AFA10B,2023-09-26_23h11.35.542,WP_VExplicitOC_LH,2022.2.5,Win32,16.78049435,56.54281099,3.3306,2.0054,NA,NA,NA,NA,NA,frustrated,"frustrated, not frustrated","more frustrated, less frustrated",NA,NA,NA,NA,NA,NA,NA,NA,NA,NA,NA,NA,NA,NA,NA,NA,NA,NA,NA,NA,NA,NA,NA,NA,NA,NA,NA,NA,NA,NA,NA,NA,NA,NA,NA,NA,NA,NA,0,0,0,1,1,NA,NA,NA,NA,NA
SUPAMT07437,NA,ED980FD5-D72A-4533-9161-67DE13AFA10B,2023-09-26_23h11.35.542,WP_VExplicitOC_LH,2022.2.5,Win32,16.78049435,62.0355412,3.2025,2.0458,NA,NA,NA,NA,NA,happy,"unhappy, happy","less happy, more happy",NA,NA,NA,NA,NA,NA,NA,NA,NA,NA,NA,NA,NA,NA,NA,NA,NA,NA,NA,NA,NA,NA,NA,NA,NA,NA,NA,NA,NA,NA,NA,NA,NA,NA,NA,NA,NA,NA,0,1,1,0,1,NA,NA,NA,NA,NA
SUPAMT07437,NA,ED980FD5-D72A-4533-9161-67DE13AFA10B,2023-09-26_23h11.35.542,WP_VExplicitOC_LH,2022.2.5,Win32,16.78049435,60.42003231,3.1142,2.0373,NA,NA,NA,NA,NA,bored,"bored, not bored","more bored, less bored",NA,NA,NA,NA,NA,NA,NA,NA,NA,NA,NA,NA,NA,NA,NA,NA,NA,NA,NA,NA,NA,NA,NA,NA,NA,NA,NA,NA,NA,NA,NA,NA,NA,NA,NA,NA,NA,NA,0,2,2,2,1,NA,NA,NA,NA,NA
SUPAMT07437,NA,ED980FD5-D72A-4533-9161-67DE13AFA10B,2023-09-26_23h11.35.542,WP_VExplicitOC_LH,2022.2.5,Win32,16.78049435,NA,NA,NA,NA,NA,NA,NA,NA,NA,NA,NA,NA,NA,NA,NA,NA,NA,NA,NA,NA,NA,NA,NA,NA,NA,NA,NA,NA,NA,NA,NA,NA,NA,NA,NA,NA,NA,NA,NA,NA,NA,NA,NA,NA,NA,NA,NA,NA,NA,NA,NA,NA,NA,NA,13,0,13,0,1
SUPAMT07437,NA,ED980FD5-D72A-4533-9161-67DE13AFA10B,2023-09-26_23h11.35.542,WP_VExplicitOC_LH,2022.2.5,Win32,16.78049435,44.26494346,4.6526,2.0296,NA,NA,NA,NA,NA,happy,"unhappy, happy","less happy, more happy",NA,NA,NA,NA,NA,NA,NA,NA,NA,NA,NA,NA,NA,NA,NA,NA,NA,NA,NA,NA,NA,NA,NA,NA,NA,NA,NA,NA,NA,NA,NA,NA,NA,NA,NA,NA,NA,NA,0,0,0,0,1,NA,NA,NA,NA,NA
SUPAMT07437,NA,ED980FD5-D72A-4533-9161-67DE13AFA10B,2023-09-26_23h11.35.542,WP_VExplicitOC_LH,2022.2.5,Win32,16.78049435,51.05008078,3.5226,2.0602,NA,NA,NA,NA,NA,bored,"bored, not bored","more bored, less bored",NA,NA,NA,NA,NA,NA,NA,NA,NA,NA,NA,NA,NA,NA,NA,NA,NA,NA,NA,NA,NA,NA,NA,NA,NA,NA,NA,NA,NA,NA,NA,NA,NA,NA,NA,NA,NA,NA,0,1,1,2,1,NA,NA,NA,NA,NA
SUPAMT07437,NA,ED980FD5-D72A-4533-9161-67DE13AFA10B,2023-09-26_23h11.35.542,WP_VExplicitOC_LH,2022.2.5,Win32,16.78049435,63.65105008,3.1616,2.0071,NA,NA,NA,NA,NA,frustrated,"frustrated, not frustrated","more frustrated, less frustrated",NA,NA,NA,NA,NA,NA,NA,NA,NA,NA,NA,NA,NA,NA,NA,NA,NA,NA,NA,NA,NA,NA,NA,NA,NA,NA,NA,NA,NA,NA,NA,NA,NA,NA,NA,NA,NA,NA,0,2,2,1,1,NA,NA,NA,NA,NA
SUPAMT07437,NA,ED980FD5-D72A-4533-9161-67DE13AFA10B,2023-09-26_23h11.35.542,WP_VExplicitOC_LH,2022.2.5,Win32,16.78049435,NA,NA,NA,NA,NA,NA,NA,NA,NA,NA,NA,NA,NA,NA,NA,NA,NA,NA,NA,NA,NA,NA,NA,NA,NA,NA,NA,NA,NA,NA,NA,NA,NA,NA,NA,NA,NA,NA,NA,NA,NA,NA,NA,NA,NA,NA,NA,NA,NA,NA,NA,NA,NA,NA,14,0,14,0,1
SUPAMT07437,NA,ED980FD5-D72A-4533-9161-67DE13AFA10B,2023-09-26_23h11.35.542,WP_VExplicitOC_LH,2022.2.5,Win32,16.78049435,NA,NA,NA,NA,NA,NA,NA,NA,NA,NA,NA,NA,NA,NA,NA,NA,NA,NA,NA,NA,NA,NA,NA,NA,NA,NA,NA,NA,NA,NA,NA,NA,NA,NA,NA,NA,NA,NA,NA,NA,NA,NA,NA,NA,NA,NA,NA,NA,NA,NA,NA,NA,NA,NA,NA,NA,NA,NA,NA
