participant,session,completion,date,expName,psychopyVersion,OS,frameRate,rating_all.response,rating_all.rt,rating_all.tStart,rndRat1.thisRepN,rndRat1.thisTrialN,rndRat1.thisN,rndRat1.thisIndex,rndRat1.ran,Emo,Labs,Labs2,rating_alt.response,rating_alt.rt,AltC.thisRepN,AltC.thisTrialN,AltC.thisN,AltC.thisIndex,AltC.ran,alt_choices,pic_choices,TopAlt_Choice,rndRat2.thisRepN,rndRat2.thisTrialN,rndRat2.thisN,rndRat2.thisIndex,rndRat2.ran,rndRat3.thisRepN,rndRat3.thisTrialN,rndRat3.thisN,rndRat3.thisIndex,rndRat3.ran,trials_FC_H.thisRepN,trials_FC_H.thisTrialN,trials_FC_H.thisN,trials_FC_H.thisIndex,trials_FC_H.ran,rating_alt_2.response,rating_alt_2.rt,AltC2.thisRepN,AltC2.thisTrialN,AltC2.thisN,AltC2.thisIndex,AltC2.ran,BottomAlt_Choice,rndRat4.thisRepN,rndRat4.thisTrialN,rndRat4.thisN,rndRat4.thisIndex,rndRat4.ran,rndRat5.thisRepN,rndRat5.thisTrialN,rndRat5.thisN,rndRat5.thisIndex,rndRat5.ran,trials_FC_L.thisRepN,trials_FC_L.thisTrialN,trials_FC_L.thisN,trials_FC_L.thisIndex,trials_FC_L.ran
SUPAMT75168,NA,D26E50EA-6E79-48AD-84FE-96726154290C,2023-09-26_23h04.11.610,WP_VExplicitOC_HL,2022.2.5,Win32,1.936025958,NA,NA,NA,NA,NA,NA,NA,NA,NA,NA,NA,NA,NA,NA,NA,NA,NA,NA,NA,NA,NA,NA,NA,NA,NA,NA,NA,NA,NA,NA,NA,NA,NA,NA,NA,NA,NA,NA,NA,NA,NA,NA,NA,NA,NA,NA,NA,NA,NA,NA,NA,NA,NA,NA,NA,NA,NA,NA,NA
SUPAMT75168,NA,D26E50EA-6E79-48AD-84FE-96726154290C,2023-09-26_23h04.11.610,WP_VExplicitOC_HL,2022.2.5,Win32,1.936025958,NA,NA,NA,NA,NA,NA,NA,NA,NA,NA,NA,NA,NA,NA,NA,NA,NA,NA,NA,NA,NA,NA,NA,NA,NA,NA,NA,NA,NA,NA,NA,NA,NA,NA,NA,NA,NA,NA,NA,NA,NA,NA,NA,NA,NA,NA,NA,NA,NA,NA,NA,NA,NA,NA,NA,NA,NA,NA,NA
SUPAMT75168,NA,D26E50EA-6E79-48AD-84FE-96726154290C,2023-09-26_23h04.11.610,WP_VExplicitOC_HL,2022.2.5,Win32,1.936025958,NA,NA,NA,NA,NA,NA,NA,NA,NA,NA,NA,NA,NA,NA,NA,NA,NA,NA,NA,NA,NA,NA,NA,NA,NA,NA,NA,NA,NA,NA,NA,NA,NA,NA,NA,NA,NA,NA,NA,NA,NA,NA,NA,NA,NA,NA,NA,NA,NA,NA,NA,NA,NA,NA,NA,NA,NA,NA,NA
SUPAMT75168,NA,D26E50EA-6E79-48AD-84FE-96726154290C,2023-09-26_23h04.11.610,WP_VExplicitOC_HL,2022.2.5,Win32,1.936025958,90.88541667,6.391,2.241,0,0,0,1,1,frustrated,"frustrated, not frustrated","more frustrated, less frustrated",NA,NA,NA,NA,NA,NA,NA,NA,NA,NA,NA,NA,NA,NA,NA,NA,NA,NA,NA,NA,NA,NA,NA,NA,NA,NA,NA,NA,NA,NA,NA,NA,NA,NA,NA,NA,NA,NA,NA,NA,NA,NA,NA,NA,NA,NA,NA,NA
SUPAMT75168,NA,D26E50EA-6E79-48AD-84FE-96726154290C,2023-09-26_23h04.11.610,WP_VExplicitOC_HL,2022.2.5,Win32,1.936025958,92.1875,6.291,2.262,0,1,1,2,1,bored,"bored, not bored","more bored, less bored",NA,NA,NA,NA,NA,NA,NA,NA,NA,NA,NA,NA,NA,NA,NA,NA,NA,NA,NA,NA,NA,NA,NA,NA,NA,NA,NA,NA,NA,NA,NA,NA,NA,NA,NA,NA,NA,NA,NA,NA,NA,NA,NA,NA,NA,NA,NA,NA
SUPAMT75168,NA,D26E50EA-6E79-48AD-84FE-96726154290C,2023-09-26_23h04.11.610,WP_VExplicitOC_HL,2022.2.5,Win32,1.936025958,92.96875,6.325,2.305,0,2,2,0,1,happy,"unhappy, happy","less happy, more happy",NA,NA,NA,NA,NA,NA,NA,NA,NA,NA,NA,NA,NA,NA,NA,NA,NA,NA,NA,NA,NA,NA,NA,NA,NA,NA,NA,NA,NA,NA,NA,NA,NA,NA,NA,NA,NA,NA,NA,NA,NA,NA,NA,NA,NA,NA,NA,NA
SUPAMT75168,NA,D26E50EA-6E79-48AD-84FE-96726154290C,2023-09-26_23h04.11.610,WP_VExplicitOC_HL,2022.2.5,Win32,1.936025958,NA,NA,NA,NA,NA,NA,NA,NA,NA,NA,NA,NA,NA,NA,NA,NA,NA,NA,NA,NA,NA,NA,NA,NA,NA,NA,NA,NA,NA,NA,NA,NA,NA,NA,NA,NA,NA,NA,NA,NA,NA,NA,NA,NA,NA,NA,NA,NA,NA,NA,NA,NA,NA,NA,NA,NA,NA,NA,NA
SUPAMT75168,NA,D26E50EA-6E79-48AD-84FE-96726154290C,2023-09-26_23h04.11.610,WP_VExplicitOC_HL,2022.2.5,Win32,1.936025958,NA,NA,NA,NA,NA,NA,NA,NA,NA,NA,NA,NA,NA,NA,NA,NA,NA,NA,NA,NA,NA,NA,NA,NA,NA,NA,NA,NA,NA,NA,NA,NA,NA,NA,NA,NA,NA,NA,NA,NA,NA,NA,NA,NA,NA,NA,NA,NA,NA,NA,NA,NA,NA,NA,NA,NA,NA,NA,NA
SUPAMT75168,NA,D26E50EA-6E79-48AD-84FE-96726154290C,2023-09-26_23h04.11.610,WP_VExplicitOC_HL,2022.2.5,Win32,1.936025958,NA,NA,NA,NA,NA,NA,NA,NA,NA,NA,NA,NA,NA,NA,NA,NA,NA,NA,NA,NA,NA,NA,NA,NA,NA,NA,NA,NA,NA,NA,NA,NA,NA,NA,NA,NA,NA,NA,NA,NA,NA,NA,NA,NA,NA,NA,NA,NA,NA,NA,NA,NA,NA,NA,NA,NA,NA,NA,NA
SUPAMT75168,NA,D26E50EA-6E79-48AD-84FE-96726154290C,2023-09-26_23h04.11.610,WP_VExplicitOC_HL,2022.2.5,Win32,1.936025958,NA,NA,NA,NA,NA,NA,NA,NA,NA,NA,NA,NA,NA,NA,NA,NA,NA,NA,NA,NA,NA,NA,NA,NA,NA,NA,NA,NA,NA,NA,NA,NA,NA,NA,NA,NA,NA,NA,NA,NA,NA,NA,NA,NA,NA,NA,NA,NA,NA,NA,NA,NA,NA,NA,NA,NA,NA,NA,NA
SUPAMT75168,NA,D26E50EA-6E79-48AD-84FE-96726154290C,2023-09-26_23h04.11.610,WP_VExplicitOC_HL,2022.2.5,Win32,1.936025958,NA,NA,NA,NA,NA,NA,NA,NA,NA,NA,NA,-30.72916667,7.04,0,0,0,0,1,rest (looking at a fixed cross),001.png,NA,NA,NA,NA,NA,NA,NA,NA,NA,NA,NA,NA,NA,NA,NA,NA,NA,NA,NA,NA,NA,NA,NA,NA,NA,NA,NA,NA,NA,NA,NA,NA,NA,NA,NA,NA,NA,NA,NA
SUPAMT75168,NA,D26E50EA-6E79-48AD-84FE-96726154290C,2023-09-26_23h04.11.610,WP_VExplicitOC_HL,2022.2.5,Win32,1.936025958,NA,NA,NA,NA,NA,NA,NA,NA,NA,NA,NA,-27.34375,4.045,0,1,1,1,1,stand up,002.png,NA,NA,NA,NA,NA,NA,NA,NA,NA,NA,NA,NA,NA,NA,NA,NA,NA,NA,NA,NA,NA,NA,NA,NA,NA,NA,NA,NA,NA,NA,NA,NA,NA,NA,NA,NA,NA,NA,NA
SUPAMT75168,NA,D26E50EA-6E79-48AD-84FE-96726154290C,2023-09-26_23h04.11.610,WP_VExplicitOC_HL,2022.2.5,Win32,1.936025958,NA,NA,NA,NA,NA,NA,NA,NA,NA,NA,NA,-29.94791667,3.517,0,2,2,2,1,stretch,003.png,NA,NA,NA,NA,NA,NA,NA,NA,NA,NA,NA,NA,NA,NA,NA,NA,NA,NA,NA,NA,NA,NA,NA,NA,NA,NA,NA,NA,NA,NA,NA,NA,NA,NA,NA,NA,NA,NA,NA
SUPAMT75168,NA,D26E50EA-6E79-48AD-84FE-96726154290C,2023-09-26_23h04.11.610,WP_VExplicitOC_HL,2022.2.5,Win32,1.936025958,NA,NA,NA,NA,NA,NA,NA,NA,NA,NA,NA,-20.05208333,4.105,0,3,3,3,1,make a drink,004.png,NA,NA,NA,NA,NA,NA,NA,NA,NA,NA,NA,NA,NA,NA,NA,NA,NA,NA,NA,NA,NA,NA,NA,NA,NA,NA,NA,NA,NA,NA,NA,NA,NA,NA,NA,NA,NA,NA,NA
SUPAMT75168,NA,D26E50EA-6E79-48AD-84FE-96726154290C,2023-09-26_23h04.11.610,WP_VExplicitOC_HL,2022.2.5,Win32,1.936025958,NA,NA,NA,NA,NA,NA,NA,NA,NA,NA,NA,39.32291667,5.252,0,4,4,4,1,scroll social media,005.png,NA,NA,NA,NA,NA,NA,NA,NA,NA,NA,NA,NA,NA,NA,NA,NA,NA,NA,NA,NA,NA,NA,NA,NA,NA,NA,NA,NA,NA,NA,NA,NA,NA,NA,NA,NA,NA,NA,NA
SUPAMT75168,NA,D26E50EA-6E79-48AD-84FE-96726154290C,2023-09-26_23h04.11.610,WP_VExplicitOC_HL,2022.2.5,Win32,1.936025958,NA,NA,NA,NA,NA,NA,NA,NA,NA,NA,NA,-13.54166667,3.482,0,5,5,5,1,listen to music,006.png,NA,NA,NA,NA,NA,NA,NA,NA,NA,NA,NA,NA,NA,NA,NA,NA,NA,NA,NA,NA,NA,NA,NA,NA,NA,NA,NA,NA,NA,NA,NA,NA,NA,NA,NA,NA,NA,NA,NA
SUPAMT75168,NA,D26E50EA-6E79-48AD-84FE-96726154290C,2023-09-26_23h04.11.610,WP_VExplicitOC_HL,2022.2.5,Win32,1.936025958,NA,NA,NA,NA,NA,NA,NA,NA,NA,NA,NA,-34.375,3.532,0,6,6,6,1,daydream,007.png,NA,NA,NA,NA,NA,NA,NA,NA,NA,NA,NA,NA,NA,NA,NA,NA,NA,NA,NA,NA,NA,NA,NA,NA,NA,NA,NA,NA,NA,NA,NA,NA,NA,NA,NA,NA,NA,NA,NA
SUPAMT75168,NA,D26E50EA-6E79-48AD-84FE-96726154290C,2023-09-26_23h04.11.610,WP_VExplicitOC_HL,2022.2.5,Win32,1.936025958,NA,NA,NA,NA,NA,NA,NA,NA,NA,NA,NA,-21.35416667,3.546,0,7,7,7,1,watch a short animation,008.png,NA,NA,NA,NA,NA,NA,NA,NA,NA,NA,NA,NA,NA,NA,NA,NA,NA,NA,NA,NA,NA,NA,NA,NA,NA,NA,NA,NA,NA,NA,NA,NA,NA,NA,NA,NA,NA,NA,NA
SUPAMT75168,NA,D26E50EA-6E79-48AD-84FE-96726154290C,2023-09-26_23h04.11.610,WP_VExplicitOC_HL,2022.2.5,Win32,1.936025958,NA,NA,NA,NA,NA,NA,NA,NA,NA,NA,NA,-55.98958333,4.08,0,8,8,8,1,read a novel,009.png,NA,NA,NA,NA,NA,NA,NA,NA,NA,NA,NA,NA,NA,NA,NA,NA,NA,NA,NA,NA,NA,NA,NA,NA,NA,NA,NA,NA,NA,NA,NA,NA,NA,NA,NA,NA,NA,NA,NA
SUPAMT75168,NA,D26E50EA-6E79-48AD-84FE-96726154290C,2023-09-26_23h04.11.610,WP_VExplicitOC_HL,2022.2.5,Win32,1.936025958,NA,NA,NA,NA,NA,NA,NA,NA,NA,NA,NA,-28.38541667,3.587,0,9,9,9,1,read the news,010.png,NA,NA,NA,NA,NA,NA,NA,NA,NA,NA,NA,NA,NA,NA,NA,NA,NA,NA,NA,NA,NA,NA,NA,NA,NA,NA,NA,NA,NA,NA,NA,NA,NA,NA,NA,NA,NA,NA,NA
SUPAMT75168,NA,D26E50EA-6E79-48AD-84FE-96726154290C,2023-09-26_23h04.11.610,WP_VExplicitOC_HL,2022.2.5,Win32,1.936025958,NA,NA,NA,NA,NA,NA,NA,NA,NA,NA,NA,NA,NA,NA,NA,NA,NA,NA,NA,NA,NA,NA,NA,NA,NA,NA,NA,NA,NA,NA,NA,NA,NA,NA,NA,NA,NA,NA,NA,NA,NA,NA,NA,NA,NA,NA,NA,NA,NA,NA,NA,NA,NA,NA,NA,NA,NA,NA,NA
SUPAMT75168,NA,D26E50EA-6E79-48AD-84FE-96726154290C,2023-09-26_23h04.11.610,WP_VExplicitOC_HL,2022.2.5,Win32,1.936025958,NA,NA,NA,NA,NA,NA,NA,NA,NA,NA,NA,NA,NA,NA,NA,NA,NA,NA,NA,NA,scroll social media,NA,NA,NA,NA,NA,NA,NA,NA,NA,NA,NA,NA,NA,NA,NA,NA,NA,NA,NA,NA,NA,NA,NA,NA,NA,NA,NA,NA,NA,NA,NA,NA,NA,NA,NA,NA,NA,NA
SUPAMT75168,NA,D26E50EA-6E79-48AD-84FE-96726154290C,2023-09-26_23h04.11.610,WP_VExplicitOC_HL,2022.2.5,Win32,1.936025958,NA,NA,2.16,NA,NA,NA,NA,NA,happy,"unhappy, happy","less happy, more happy",NA,NA,NA,NA,NA,NA,NA,NA,NA,NA,0,0,0,0,1,NA,NA,NA,NA,NA,NA,NA,NA,NA,NA,NA,NA,NA,NA,NA,NA,NA,NA,NA,NA,NA,NA,NA,NA,NA,NA,NA,NA,NA,NA,NA,NA,NA
SUPAMT75168,NA,D26E50EA-6E79-48AD-84FE-96726154290C,2023-09-26_23h04.11.610,WP_VExplicitOC_HL,2022.2.5,Win32,1.936025958,56.25,5.703,2.281,NA,NA,NA,NA,NA,frustrated,"frustrated, not frustrated","more frustrated, less frustrated",NA,NA,NA,NA,NA,NA,NA,NA,NA,NA,0,1,1,1,1,NA,NA,NA,NA,NA,NA,NA,NA,NA,NA,NA,NA,NA,NA,NA,NA,NA,NA,NA,NA,NA,NA,NA,NA,NA,NA,NA,NA,NA,NA,NA,NA,NA
SUPAMT75168,NA,D26E50EA-6E79-48AD-84FE-96726154290C,2023-09-26_23h04.11.610,WP_VExplicitOC_HL,2022.2.5,Win32,1.936025958,34.375,5.586,2.217,NA,NA,NA,NA,NA,bored,"bored, not bored","more bored, less bored",NA,NA,NA,NA,NA,NA,NA,NA,NA,NA,0,2,2,2,1,NA,NA,NA,NA,NA,NA,NA,NA,NA,NA,NA,NA,NA,NA,NA,NA,NA,NA,NA,NA,NA,NA,NA,NA,NA,NA,NA,NA,NA,NA,NA,NA,NA
SUPAMT75168,NA,D26E50EA-6E79-48AD-84FE-96726154290C,2023-09-26_23h04.11.610,WP_VExplicitOC_HL,2022.2.5,Win32,1.936025958,NA,NA,NA,NA,NA,NA,NA,NA,NA,NA,NA,NA,NA,NA,NA,NA,NA,NA,NA,NA,NA,NA,NA,NA,NA,NA,NA,NA,NA,NA,NA,NA,NA,NA,NA,NA,NA,NA,NA,NA,NA,NA,NA,NA,NA,NA,NA,NA,NA,NA,NA,NA,NA,NA,NA,NA,NA,NA,NA
SUPAMT75168,NA,D26E50EA-6E79-48AD-84FE-96726154290C,2023-09-26_23h04.11.610,WP_VExplicitOC_HL,2022.2.5,Win32,1.936025958,NA,NA,NA,NA,NA,NA,NA,NA,NA,NA,NA,NA,NA,NA,NA,NA,NA,NA,NA,NA,NA,NA,NA,NA,NA,NA,NA,NA,NA,NA,NA,NA,NA,NA,NA,NA,NA,NA,NA,NA,NA,NA,NA,NA,NA,NA,NA,NA,NA,NA,NA,NA,NA,NA,NA,NA,NA,NA,NA
SUPAMT75168,NA,D26E50EA-6E79-48AD-84FE-96726154290C,2023-09-26_23h04.11.610,WP_VExplicitOC_HL,2022.2.5,Win32,1.936025958,75.26041667,6.873,2.246,NA,NA,NA,NA,NA,frustrated,"frustrated, not frustrated","more frustrated, less frustrated",NA,NA,NA,NA,NA,NA,NA,NA,NA,NA,NA,NA,NA,NA,NA,0,0,0,1,1,NA,NA,NA,NA,NA,NA,NA,NA,NA,NA,NA,NA,NA,NA,NA,NA,NA,NA,NA,NA,NA,NA,NA,NA,NA,NA,NA,NA
SUPAMT75168,NA,D26E50EA-6E79-48AD-84FE-96726154290C,2023-09-26_23h04.11.610,WP_VExplicitOC_HL,2022.2.5,Win32,1.936025958,75,6.315,2.248,NA,NA,NA,NA,NA,bored,"bored, not bored","more bored, less bored",NA,NA,NA,NA,NA,NA,NA,NA,NA,NA,NA,NA,NA,NA,NA,0,1,1,2,1,NA,NA,NA,NA,NA,NA,NA,NA,NA,NA,NA,NA,NA,NA,NA,NA,NA,NA,NA,NA,NA,NA,NA,NA,NA,NA,NA,NA
SUPAMT75168,NA,D26E50EA-6E79-48AD-84FE-96726154290C,2023-09-26_23h04.11.610,WP_VExplicitOC_HL,2022.2.5,Win32,1.936025958,72.39583333,6.196,2.246,NA,NA,NA,NA,NA,happy,"unhappy, happy","less happy, more happy",NA,NA,NA,NA,NA,NA,NA,NA,NA,NA,NA,NA,NA,NA,NA,0,2,2,0,1,NA,NA,NA,NA,NA,NA,NA,NA,NA,NA,NA,NA,NA,NA,NA,NA,NA,NA,NA,NA,NA,NA,NA,NA,NA,NA,NA,NA
SUPAMT75168,NA,D26E50EA-6E79-48AD-84FE-96726154290C,2023-09-26_23h04.11.610,WP_VExplicitOC_HL,2022.2.5,Win32,1.936025958,NA,NA,NA,NA,NA,NA,NA,NA,NA,NA,NA,NA,NA,NA,NA,NA,NA,NA,NA,NA,NA,NA,NA,NA,NA,NA,NA,NA,NA,NA,NA,0,0,0,0,1,NA,NA,NA,NA,NA,NA,NA,NA,NA,NA,NA,NA,NA,NA,NA,NA,NA,NA,NA,NA,NA,NA,NA
SUPAMT75168,NA,D26E50EA-6E79-48AD-84FE-96726154290C,2023-09-26_23h04.11.610,WP_VExplicitOC_HL,2022.2.5,Win32,1.936025958,53.64583333,6.793,2.261,NA,NA,NA,NA,NA,frustrated,"frustrated, not frustrated","more frustrated, less frustrated",NA,NA,NA,NA,NA,NA,NA,NA,NA,NA,NA,NA,NA,NA,NA,0,0,0,1,1,NA,NA,NA,NA,NA,NA,NA,NA,NA,NA,NA,NA,NA,NA,NA,NA,NA,NA,NA,NA,NA,NA,NA,NA,NA,NA,NA,NA
SUPAMT75168,NA,D26E50EA-6E79-48AD-84FE-96726154290C,2023-09-26_23h04.11.610,WP_VExplicitOC_HL,2022.2.5,Win32,1.936025958,54.16666667,6.279,2.287,NA,NA,NA,NA,NA,happy,"unhappy, happy","less happy, more happy",NA,NA,NA,NA,NA,NA,NA,NA,NA,NA,NA,NA,NA,NA,NA,0,1,1,0,1,NA,NA,NA,NA,NA,NA,NA,NA,NA,NA,NA,NA,NA,NA,NA,NA,NA,NA,NA,NA,NA,NA,NA,NA,NA,NA,NA,NA
SUPAMT75168,NA,D26E50EA-6E79-48AD-84FE-96726154290C,2023-09-26_23h04.11.610,WP_VExplicitOC_HL,2022.2.5,Win32,1.936025958,50.78125,5.549,2.193,NA,NA,NA,NA,NA,bored,"bored, not bored","more bored, less bored",NA,NA,NA,NA,NA,NA,NA,NA,NA,NA,NA,NA,NA,NA,NA,0,2,2,2,1,NA,NA,NA,NA,NA,NA,NA,NA,NA,NA,NA,NA,NA,NA,NA,NA,NA,NA,NA,NA,NA,NA,NA,NA,NA,NA,NA,NA
SUPAMT75168,NA,D26E50EA-6E79-48AD-84FE-96726154290C,2023-09-26_23h04.11.610,WP_VExplicitOC_HL,2022.2.5,Win32,1.936025958,NA,NA,NA,NA,NA,NA,NA,NA,NA,NA,NA,NA,NA,NA,NA,NA,NA,NA,NA,NA,NA,NA,NA,NA,NA,NA,NA,NA,NA,NA,NA,1,0,1,0,1,NA,NA,NA,NA,NA,NA,NA,NA,NA,NA,NA,NA,NA,NA,NA,NA,NA,NA,NA,NA,NA,NA,NA
SUPAMT75168,NA,D26E50EA-6E79-48AD-84FE-96726154290C,2023-09-26_23h04.11.610,WP_VExplicitOC_HL,2022.2.5,Win32,1.936025958,58.07291667,6.114,2.166,NA,NA,NA,NA,NA,bored,"bored, not bored","more bored, less bored",NA,NA,NA,NA,NA,NA,NA,NA,NA,NA,NA,NA,NA,NA,NA,0,0,0,2,1,NA,NA,NA,NA,NA,NA,NA,NA,NA,NA,NA,NA,NA,NA,NA,NA,NA,NA,NA,NA,NA,NA,NA,NA,NA,NA,NA,NA
SUPAMT75168,NA,D26E50EA-6E79-48AD-84FE-96726154290C,2023-09-26_23h04.11.610,WP_VExplicitOC_HL,2022.2.5,Win32,1.936025958,66.92708333,5.643,2.256,NA,NA,NA,NA,NA,happy,"unhappy, happy","less happy, more happy",NA,NA,NA,NA,NA,NA,NA,NA,NA,NA,NA,NA,NA,NA,NA,0,1,1,0,1,NA,NA,NA,NA,NA,NA,NA,NA,NA,NA,NA,NA,NA,NA,NA,NA,NA,NA,NA,NA,NA,NA,NA,NA,NA,NA,NA,NA
SUPAMT75168,NA,D26E50EA-6E79-48AD-84FE-96726154290C,2023-09-26_23h04.11.610,WP_VExplicitOC_HL,2022.2.5,Win32,1.936025958,68.48958333,6.249,2.314,NA,NA,NA,NA,NA,frustrated,"frustrated, not frustrated","more frustrated, less frustrated",NA,NA,NA,NA,NA,NA,NA,NA,NA,NA,NA,NA,NA,NA,NA,0,2,2,1,1,NA,NA,NA,NA,NA,NA,NA,NA,NA,NA,NA,NA,NA,NA,NA,NA,NA,NA,NA,NA,NA,NA,NA,NA,NA,NA,NA,NA
SUPAMT75168,NA,D26E50EA-6E79-48AD-84FE-96726154290C,2023-09-26_23h04.11.610,WP_VExplicitOC_HL,2022.2.5,Win32,1.936025958,NA,NA,NA,NA,NA,NA,NA,NA,NA,NA,NA,NA,NA,NA,NA,NA,NA,NA,NA,NA,NA,NA,NA,NA,NA,NA,NA,NA,NA,NA,NA,2,0,2,0,1,NA,NA,NA,NA,NA,NA,NA,NA,NA,NA,NA,NA,NA,NA,NA,NA,NA,NA,NA,NA,NA,NA,NA
SUPAMT75168,NA,D26E50EA-6E79-48AD-84FE-96726154290C,2023-09-26_23h04.11.610,WP_VExplicitOC_HL,2022.2.5,Win32,1.936025958,72.65625,6.179,2.256,NA,NA,NA,NA,NA,happy,"unhappy, happy","less happy, more happy",NA,NA,NA,NA,NA,NA,NA,NA,NA,NA,NA,NA,NA,NA,NA,0,0,0,0,1,NA,NA,NA,NA,NA,NA,NA,NA,NA,NA,NA,NA,NA,NA,NA,NA,NA,NA,NA,NA,NA,NA,NA,NA,NA,NA,NA,NA
SUPAMT75168,NA,D26E50EA-6E79-48AD-84FE-96726154290C,2023-09-26_23h04.11.610,WP_VExplicitOC_HL,2022.2.5,Win32,1.936025958,72.65625,6.281,2.314,NA,NA,NA,NA,NA,bored,"bored, not bored","more bored, less bored",NA,NA,NA,NA,NA,NA,NA,NA,NA,NA,NA,NA,NA,NA,NA,0,1,1,2,1,NA,NA,NA,NA,NA,NA,NA,NA,NA,NA,NA,NA,NA,NA,NA,NA,NA,NA,NA,NA,NA,NA,NA,NA,NA,NA,NA,NA
SUPAMT75168,NA,D26E50EA-6E79-48AD-84FE-96726154290C,2023-09-26_23h04.11.610,WP_VExplicitOC_HL,2022.2.5,Win32,1.936025958,80.20833333,5.608,2.233,NA,NA,NA,NA,NA,frustrated,"frustrated, not frustrated","more frustrated, less frustrated",NA,NA,NA,NA,NA,NA,NA,NA,NA,NA,NA,NA,NA,NA,NA,0,2,2,1,1,NA,NA,NA,NA,NA,NA,NA,NA,NA,NA,NA,NA,NA,NA,NA,NA,NA,NA,NA,NA,NA,NA,NA,NA,NA,NA,NA,NA
SUPAMT75168,NA,D26E50EA-6E79-48AD-84FE-96726154290C,2023-09-26_23h04.11.610,WP_VExplicitOC_HL,2022.2.5,Win32,1.936025958,NA,NA,NA,NA,NA,NA,NA,NA,NA,NA,NA,NA,NA,NA,NA,NA,NA,NA,NA,NA,NA,NA,NA,NA,NA,NA,NA,NA,NA,NA,NA,3,0,3,0,1,NA,NA,NA,NA,NA,NA,NA,NA,NA,NA,NA,NA,NA,NA,NA,NA,NA,NA,NA,NA,NA,NA,NA
SUPAMT75168,NA,D26E50EA-6E79-48AD-84FE-96726154290C,2023-09-26_23h04.11.610,WP_VExplicitOC_HL,2022.2.5,Win32,1.936025958,47.13541667,6.88,2.225,NA,NA,NA,NA,NA,frustrated,"frustrated, not frustrated","more frustrated, less frustrated",NA,NA,NA,NA,NA,NA,NA,NA,NA,NA,NA,NA,NA,NA,NA,0,0,0,1,1,NA,NA,NA,NA,NA,NA,NA,NA,NA,NA,NA,NA,NA,NA,NA,NA,NA,NA,NA,NA,NA,NA,NA,NA,NA,NA,NA,NA
SUPAMT75168,NA,D26E50EA-6E79-48AD-84FE-96726154290C,2023-09-26_23h04.11.610,WP_VExplicitOC_HL,2022.2.5,Win32,1.936025958,47.91666667,5.686,2.287,NA,NA,NA,NA,NA,happy,"unhappy, happy","less happy, more happy",NA,NA,NA,NA,NA,NA,NA,NA,NA,NA,NA,NA,NA,NA,NA,0,1,1,0,1,NA,NA,NA,NA,NA,NA,NA,NA,NA,NA,NA,NA,NA,NA,NA,NA,NA,NA,NA,NA,NA,NA,NA,NA,NA,NA,NA,NA
SUPAMT75168,NA,D26E50EA-6E79-48AD-84FE-96726154290C,2023-09-26_23h04.11.610,WP_VExplicitOC_HL,2022.2.5,Win32,1.936025958,36.45833333,6.721,2.258,NA,NA,NA,NA,NA,bored,"bored, not bored","more bored, less bored",NA,NA,NA,NA,NA,NA,NA,NA,NA,NA,NA,NA,NA,NA,NA,0,2,2,2,1,NA,NA,NA,NA,NA,NA,NA,NA,NA,NA,NA,NA,NA,NA,NA,NA,NA,NA,NA,NA,NA,NA,NA,NA,NA,NA,NA,NA
SUPAMT75168,NA,D26E50EA-6E79-48AD-84FE-96726154290C,2023-09-26_23h04.11.610,WP_VExplicitOC_HL,2022.2.5,Win32,1.936025958,NA,NA,NA,NA,NA,NA,NA,NA,NA,NA,NA,NA,NA,NA,NA,NA,NA,NA,NA,NA,NA,NA,NA,NA,NA,NA,NA,NA,NA,NA,NA,4,0,4,0,1,NA,NA,NA,NA,NA,NA,NA,NA,NA,NA,NA,NA,NA,NA,NA,NA,NA,NA,NA,NA,NA,NA,NA
SUPAMT75168,NA,D26E50EA-6E79-48AD-84FE-96726154290C,2023-09-26_23h04.11.610,WP_VExplicitOC_HL,2022.2.5,Win32,1.936025958,NA,NA,2.182,NA,NA,NA,NA,NA,happy,"unhappy, happy","less happy, more happy",NA,NA,NA,NA,NA,NA,NA,NA,NA,NA,NA,NA,NA,NA,NA,0,0,0,0,1,NA,NA,NA,NA,NA,NA,NA,NA,NA,NA,NA,NA,NA,NA,NA,NA,NA,NA,NA,NA,NA,NA,NA,NA,NA,NA,NA,NA
SUPAMT75168,NA,D26E50EA-6E79-48AD-84FE-96726154290C,2023-09-26_23h04.11.610,WP_VExplicitOC_HL,2022.2.5,Win32,1.936025958,-19.53125,5.568,2.205,NA,NA,NA,NA,NA,bored,"bored, not bored","more bored, less bored",NA,NA,NA,NA,NA,NA,NA,NA,NA,NA,NA,NA,NA,NA,NA,0,1,1,2,1,NA,NA,NA,NA,NA,NA,NA,NA,NA,NA,NA,NA,NA,NA,NA,NA,NA,NA,NA,NA,NA,NA,NA,NA,NA,NA,NA,NA
SUPAMT75168,NA,D26E50EA-6E79-48AD-84FE-96726154290C,2023-09-26_23h04.11.610,WP_VExplicitOC_HL,2022.2.5,Win32,1.936025958,-20.05208333,5.625,2.26,NA,NA,NA,NA,NA,frustrated,"frustrated, not frustrated","more frustrated, less frustrated",NA,NA,NA,NA,NA,NA,NA,NA,NA,NA,NA,NA,NA,NA,NA,0,2,2,1,1,NA,NA,NA,NA,NA,NA,NA,NA,NA,NA,NA,NA,NA,NA,NA,NA,NA,NA,NA,NA,NA,NA,NA,NA,NA,NA,NA,NA
SUPAMT75168,NA,D26E50EA-6E79-48AD-84FE-96726154290C,2023-09-26_23h04.11.610,WP_VExplicitOC_HL,2022.2.5,Win32,1.936025958,NA,NA,NA,NA,NA,NA,NA,NA,NA,NA,NA,NA,NA,NA,NA,NA,NA,NA,NA,NA,NA,NA,NA,NA,NA,NA,NA,NA,NA,NA,NA,5,0,5,0,1,NA,NA,NA,NA,NA,NA,NA,NA,NA,NA,NA,NA,NA,NA,NA,NA,NA,NA,NA,NA,NA,NA,NA
SUPAMT75168,NA,D26E50EA-6E79-48AD-84FE-96726154290C,2023-09-26_23h04.11.610,WP_VExplicitOC_HL,2022.2.5,Win32,1.936025958,-27.08333333,5.611,2.241,NA,NA,NA,NA,NA,bored,"bored, not bored","more bored, less bored",NA,NA,NA,NA,NA,NA,NA,NA,NA,NA,NA,NA,NA,NA,NA,0,0,0,2,1,NA,NA,NA,NA,NA,NA,NA,NA,NA,NA,NA,NA,NA,NA,NA,NA,NA,NA,NA,NA,NA,NA,NA,NA,NA,NA,NA,NA
SUPAMT75168,NA,D26E50EA-6E79-48AD-84FE-96726154290C,2023-09-26_23h04.11.610,WP_VExplicitOC_HL,2022.2.5,Win32,1.936025958,NA,NA,2.275,NA,NA,NA,NA,NA,happy,"unhappy, happy","less happy, more happy",NA,NA,NA,NA,NA,NA,NA,NA,NA,NA,NA,NA,NA,NA,NA,0,1,1,0,1,NA,NA,NA,NA,NA,NA,NA,NA,NA,NA,NA,NA,NA,NA,NA,NA,NA,NA,NA,NA,NA,NA,NA,NA,NA,NA,NA,NA
SUPAMT75168,NA,D26E50EA-6E79-48AD-84FE-96726154290C,2023-09-26_23h04.11.610,WP_VExplicitOC_HL,2022.2.5,Win32,1.936025958,-15.88541667,6.729,2.214,NA,NA,NA,NA,NA,frustrated,"frustrated, not frustrated","more frustrated, less frustrated",NA,NA,NA,NA,NA,NA,NA,NA,NA,NA,NA,NA,NA,NA,NA,0,2,2,1,1,NA,NA,NA,NA,NA,NA,NA,NA,NA,NA,NA,NA,NA,NA,NA,NA,NA,NA,NA,NA,NA,NA,NA,NA,NA,NA,NA,NA
SUPAMT75168,NA,D26E50EA-6E79-48AD-84FE-96726154290C,2023-09-26_23h04.11.610,WP_VExplicitOC_HL,2022.2.5,Win32,1.936025958,NA,NA,NA,NA,NA,NA,NA,NA,NA,NA,NA,NA,NA,NA,NA,NA,NA,NA,NA,NA,NA,NA,NA,NA,NA,NA,NA,NA,NA,NA,NA,6,0,6,0,1,NA,NA,NA,NA,NA,NA,NA,NA,NA,NA,NA,NA,NA,NA,NA,NA,NA,NA,NA,NA,NA,NA,NA
SUPAMT75168,NA,D26E50EA-6E79-48AD-84FE-96726154290C,2023-09-26_23h04.11.610,WP_VExplicitOC_HL,2022.2.5,Win32,1.936025958,-6.510416667,5.549,2.203,NA,NA,NA,NA,NA,happy,"unhappy, happy","less happy, more happy",NA,NA,NA,NA,NA,NA,NA,NA,NA,NA,NA,NA,NA,NA,NA,0,0,0,0,1,NA,NA,NA,NA,NA,NA,NA,NA,NA,NA,NA,NA,NA,NA,NA,NA,NA,NA,NA,NA,NA,NA,NA,NA,NA,NA,NA,NA
SUPAMT75168,NA,D26E50EA-6E79-48AD-84FE-96726154290C,2023-09-26_23h04.11.610,WP_VExplicitOC_HL,2022.2.5,Win32,1.936025958,-32.03125,5.568,2.207,NA,NA,NA,NA,NA,bored,"bored, not bored","more bored, less bored",NA,NA,NA,NA,NA,NA,NA,NA,NA,NA,NA,NA,NA,NA,NA,0,1,1,2,1,NA,NA,NA,NA,NA,NA,NA,NA,NA,NA,NA,NA,NA,NA,NA,NA,NA,NA,NA,NA,NA,NA,NA,NA,NA,NA,NA,NA
SUPAMT75168,NA,D26E50EA-6E79-48AD-84FE-96726154290C,2023-09-26_23h04.11.610,WP_VExplicitOC_HL,2022.2.5,Win32,1.936025958,-33.85416667,5.623,2.241,NA,NA,NA,NA,NA,frustrated,"frustrated, not frustrated","more frustrated, less frustrated",NA,NA,NA,NA,NA,NA,NA,NA,NA,NA,NA,NA,NA,NA,NA,0,2,2,1,1,NA,NA,NA,NA,NA,NA,NA,NA,NA,NA,NA,NA,NA,NA,NA,NA,NA,NA,NA,NA,NA,NA,NA,NA,NA,NA,NA,NA
SUPAMT75168,NA,D26E50EA-6E79-48AD-84FE-96726154290C,2023-09-26_23h04.11.610,WP_VExplicitOC_HL,2022.2.5,Win32,1.936025958,NA,NA,NA,NA,NA,NA,NA,NA,NA,NA,NA,NA,NA,NA,NA,NA,NA,NA,NA,NA,NA,NA,NA,NA,NA,NA,NA,NA,NA,NA,NA,7,0,7,0,1,NA,NA,NA,NA,NA,NA,NA,NA,NA,NA,NA,NA,NA,NA,NA,NA,NA,NA,NA,NA,NA,NA,NA
SUPAMT75168,NA,D26E50EA-6E79-48AD-84FE-96726154290C,2023-09-26_23h04.11.610,WP_VExplicitOC_HL,2022.2.5,Win32,1.936025958,-18.22916667,5.539,2.185,NA,NA,NA,NA,NA,happy,"unhappy, happy","less happy, more happy",NA,NA,NA,NA,NA,NA,NA,NA,NA,NA,NA,NA,NA,NA,NA,0,0,0,0,1,NA,NA,NA,NA,NA,NA,NA,NA,NA,NA,NA,NA,NA,NA,NA,NA,NA,NA,NA,NA,NA,NA,NA,NA,NA,NA,NA,NA
SUPAMT75168,NA,D26E50EA-6E79-48AD-84FE-96726154290C,2023-09-26_23h04.11.610,WP_VExplicitOC_HL,2022.2.5,Win32,1.936025958,-42.44791667,5.617,2.24,NA,NA,NA,NA,NA,bored,"bored, not bored","more bored, less bored",NA,NA,NA,NA,NA,NA,NA,NA,NA,NA,NA,NA,NA,NA,NA,0,1,1,2,1,NA,NA,NA,NA,NA,NA,NA,NA,NA,NA,NA,NA,NA,NA,NA,NA,NA,NA,NA,NA,NA,NA,NA,NA,NA,NA,NA,NA
SUPAMT75168,NA,D26E50EA-6E79-48AD-84FE-96726154290C,2023-09-26_23h04.11.610,WP_VExplicitOC_HL,2022.2.5,Win32,1.936025958,-40.88541667,5.608,2.236,NA,NA,NA,NA,NA,frustrated,"frustrated, not frustrated","more frustrated, less frustrated",NA,NA,NA,NA,NA,NA,NA,NA,NA,NA,NA,NA,NA,NA,NA,0,2,2,1,1,NA,NA,NA,NA,NA,NA,NA,NA,NA,NA,NA,NA,NA,NA,NA,NA,NA,NA,NA,NA,NA,NA,NA,NA,NA,NA,NA,NA
SUPAMT75168,NA,D26E50EA-6E79-48AD-84FE-96726154290C,2023-09-26_23h04.11.610,WP_VExplicitOC_HL,2022.2.5,Win32,1.936025958,NA,NA,NA,NA,NA,NA,NA,NA,NA,NA,NA,NA,NA,NA,NA,NA,NA,NA,NA,NA,NA,NA,NA,NA,NA,NA,NA,NA,NA,NA,NA,8,0,8,0,1,NA,NA,NA,NA,NA,NA,NA,NA,NA,NA,NA,NA,NA,NA,NA,NA,NA,NA,NA,NA,NA,NA,NA
SUPAMT75168,NA,D26E50EA-6E79-48AD-84FE-96726154290C,2023-09-26_23h04.11.610,WP_VExplicitOC_HL,2022.2.5,Win32,1.936025958,-46.875,6.18,2.216,NA,NA,NA,NA,NA,frustrated,"frustrated, not frustrated","more frustrated, less frustrated",NA,NA,NA,NA,NA,NA,NA,NA,NA,NA,NA,NA,NA,NA,NA,0,0,0,1,1,NA,NA,NA,NA,NA,NA,NA,NA,NA,NA,NA,NA,NA,NA,NA,NA,NA,NA,NA,NA,NA,NA,NA,NA,NA,NA,NA,NA
SUPAMT75168,NA,D26E50EA-6E79-48AD-84FE-96726154290C,2023-09-26_23h04.11.610,WP_VExplicitOC_HL,2022.2.5,Win32,1.936025958,-47.65625,6.201,2.224,NA,NA,NA,NA,NA,bored,"bored, not bored","more bored, less bored",NA,NA,NA,NA,NA,NA,NA,NA,NA,NA,NA,NA,NA,NA,NA,0,1,1,2,1,NA,NA,NA,NA,NA,NA,NA,NA,NA,NA,NA,NA,NA,NA,NA,NA,NA,NA,NA,NA,NA,NA,NA,NA,NA,NA,NA,NA
SUPAMT75168,NA,D26E50EA-6E79-48AD-84FE-96726154290C,2023-09-26_23h04.11.610,WP_VExplicitOC_HL,2022.2.5,Win32,1.936025958,-26.82291667,6.204,2.242,NA,NA,NA,NA,NA,happy,"unhappy, happy","less happy, more happy",NA,NA,NA,NA,NA,NA,NA,NA,NA,NA,NA,NA,NA,NA,NA,0,2,2,0,1,NA,NA,NA,NA,NA,NA,NA,NA,NA,NA,NA,NA,NA,NA,NA,NA,NA,NA,NA,NA,NA,NA,NA,NA,NA,NA,NA,NA
SUPAMT75168,NA,D26E50EA-6E79-48AD-84FE-96726154290C,2023-09-26_23h04.11.610,WP_VExplicitOC_HL,2022.2.5,Win32,1.936025958,NA,NA,NA,NA,NA,NA,NA,NA,NA,NA,NA,NA,NA,NA,NA,NA,NA,NA,NA,NA,NA,NA,NA,NA,NA,NA,NA,NA,NA,NA,NA,9,0,9,0,1,NA,NA,NA,NA,NA,NA,NA,NA,NA,NA,NA,NA,NA,NA,NA,NA,NA,NA,NA,NA,NA,NA,NA
SUPAMT75168,NA,D26E50EA-6E79-48AD-84FE-96726154290C,2023-09-26_23h04.11.610,WP_VExplicitOC_HL,2022.2.5,Win32,1.936025958,NA,NA,2.205,NA,NA,NA,NA,NA,frustrated,"frustrated, not frustrated","more frustrated, less frustrated",NA,NA,NA,NA,NA,NA,NA,NA,NA,NA,NA,NA,NA,NA,NA,0,0,0,1,1,NA,NA,NA,NA,NA,NA,NA,NA,NA,NA,NA,NA,NA,NA,NA,NA,NA,NA,NA,NA,NA,NA,NA,NA,NA,NA,NA,NA
SUPAMT75168,NA,D26E50EA-6E79-48AD-84FE-96726154290C,2023-09-26_23h04.11.610,WP_VExplicitOC_HL,2022.2.5,Win32,1.936025958,-57.55208333,5.627,2.231,NA,NA,NA,NA,NA,bored,"bored, not bored","more bored, less bored",NA,NA,NA,NA,NA,NA,NA,NA,NA,NA,NA,NA,NA,NA,NA,0,1,1,2,1,NA,NA,NA,NA,NA,NA,NA,NA,NA,NA,NA,NA,NA,NA,NA,NA,NA,NA,NA,NA,NA,NA,NA,NA,NA,NA,NA,NA
SUPAMT75168,NA,D26E50EA-6E79-48AD-84FE-96726154290C,2023-09-26_23h04.11.610,WP_VExplicitOC_HL,2022.2.5,Win32,1.936025958,-21.09375,5.544,2.228,NA,NA,NA,NA,NA,happy,"unhappy, happy","less happy, more happy",NA,NA,NA,NA,NA,NA,NA,NA,NA,NA,NA,NA,NA,NA,NA,0,2,2,0,1,NA,NA,NA,NA,NA,NA,NA,NA,NA,NA,NA,NA,NA,NA,NA,NA,NA,NA,NA,NA,NA,NA,NA,NA,NA,NA,NA,NA
SUPAMT75168,NA,D26E50EA-6E79-48AD-84FE-96726154290C,2023-09-26_23h04.11.610,WP_VExplicitOC_HL,2022.2.5,Win32,1.936025958,NA,NA,NA,NA,NA,NA,NA,NA,NA,NA,NA,NA,NA,NA,NA,NA,NA,NA,NA,NA,NA,NA,NA,NA,NA,NA,NA,NA,NA,NA,NA,10,0,10,0,1,NA,NA,NA,NA,NA,NA,NA,NA,NA,NA,NA,NA,NA,NA,NA,NA,NA,NA,NA,NA,NA,NA,NA
SUPAMT75168,NA,D26E50EA-6E79-48AD-84FE-96726154290C,2023-09-26_23h04.11.610,WP_VExplicitOC_HL,2022.2.5,Win32,1.936025958,-39.58333333,6.152,2.18,NA,NA,NA,NA,NA,happy,"unhappy, happy","less happy, more happy",NA,NA,NA,NA,NA,NA,NA,NA,NA,NA,NA,NA,NA,NA,NA,0,0,0,0,1,NA,NA,NA,NA,NA,NA,NA,NA,NA,NA,NA,NA,NA,NA,NA,NA,NA,NA,NA,NA,NA,NA,NA,NA,NA,NA,NA,NA
SUPAMT75168,NA,D26E50EA-6E79-48AD-84FE-96726154290C,2023-09-26_23h04.11.610,WP_VExplicitOC_HL,2022.2.5,Win32,1.936025958,-78.64583333,5.723,2.284,NA,NA,NA,NA,NA,frustrated,"frustrated, not frustrated","more frustrated, less frustrated",NA,NA,NA,NA,NA,NA,NA,NA,NA,NA,NA,NA,NA,NA,NA,0,1,1,1,1,NA,NA,NA,NA,NA,NA,NA,NA,NA,NA,NA,NA,NA,NA,NA,NA,NA,NA,NA,NA,NA,NA,NA,NA,NA,NA,NA,NA
SUPAMT75168,NA,D26E50EA-6E79-48AD-84FE-96726154290C,2023-09-26_23h04.11.610,WP_VExplicitOC_HL,2022.2.5,Win32,1.936025958,-77.08333333,5.642,2.273,NA,NA,NA,NA,NA,bored,"bored, not bored","more bored, less bored",NA,NA,NA,NA,NA,NA,NA,NA,NA,NA,NA,NA,NA,NA,NA,0,2,2,2,1,NA,NA,NA,NA,NA,NA,NA,NA,NA,NA,NA,NA,NA,NA,NA,NA,NA,NA,NA,NA,NA,NA,NA,NA,NA,NA,NA,NA
SUPAMT75168,NA,D26E50EA-6E79-48AD-84FE-96726154290C,2023-09-26_23h04.11.610,WP_VExplicitOC_HL,2022.2.5,Win32,1.936025958,NA,NA,NA,NA,NA,NA,NA,NA,NA,NA,NA,NA,NA,NA,NA,NA,NA,NA,NA,NA,NA,NA,NA,NA,NA,NA,NA,NA,NA,NA,NA,11,0,11,0,1,NA,NA,NA,NA,NA,NA,NA,NA,NA,NA,NA,NA,NA,NA,NA,NA,NA,NA,NA,NA,NA,NA,NA
SUPAMT75168,NA,D26E50EA-6E79-48AD-84FE-96726154290C,2023-09-26_23h04.11.610,WP_VExplicitOC_HL,2022.2.5,Win32,1.936025958,-60.67708333,7.215,2.188,NA,NA,NA,NA,NA,happy,"unhappy, happy","less happy, more happy",NA,NA,NA,NA,NA,NA,NA,NA,NA,NA,NA,NA,NA,NA,NA,0,0,0,0,1,NA,NA,NA,NA,NA,NA,NA,NA,NA,NA,NA,NA,NA,NA,NA,NA,NA,NA,NA,NA,NA,NA,NA,NA,NA,NA,NA,NA
SUPAMT75168,NA,D26E50EA-6E79-48AD-84FE-96726154290C,2023-09-26_23h04.11.610,WP_VExplicitOC_HL,2022.2.5,Win32,1.936025958,-88.28125,5.74,2.315,NA,NA,NA,NA,NA,bored,"bored, not bored","more bored, less bored",NA,NA,NA,NA,NA,NA,NA,NA,NA,NA,NA,NA,NA,NA,NA,0,1,1,2,1,NA,NA,NA,NA,NA,NA,NA,NA,NA,NA,NA,NA,NA,NA,NA,NA,NA,NA,NA,NA,NA,NA,NA,NA,NA,NA,NA,NA
SUPAMT75168,NA,D26E50EA-6E79-48AD-84FE-96726154290C,2023-09-26_23h04.11.610,WP_VExplicitOC_HL,2022.2.5,Win32,1.936025958,-87.5,5.682,2.267,NA,NA,NA,NA,NA,frustrated,"frustrated, not frustrated","more frustrated, less frustrated",NA,NA,NA,NA,NA,NA,NA,NA,NA,NA,NA,NA,NA,NA,NA,0,2,2,1,1,NA,NA,NA,NA,NA,NA,NA,NA,NA,NA,NA,NA,NA,NA,NA,NA,NA,NA,NA,NA,NA,NA,NA,NA,NA,NA,NA,NA
SUPAMT75168,NA,D26E50EA-6E79-48AD-84FE-96726154290C,2023-09-26_23h04.11.610,WP_VExplicitOC_HL,2022.2.5,Win32,1.936025958,NA,NA,NA,NA,NA,NA,NA,NA,NA,NA,NA,NA,NA,NA,NA,NA,NA,NA,NA,NA,NA,NA,NA,NA,NA,NA,NA,NA,NA,NA,NA,12,0,12,0,1,NA,NA,NA,NA,NA,NA,NA,NA,NA,NA,NA,NA,NA,NA,NA,NA,NA,NA,NA,NA,NA,NA,NA
SUPAMT75168,NA,D26E50EA-6E79-48AD-84FE-96726154290C,2023-09-26_23h04.11.610,WP_VExplicitOC_HL,2022.2.5,Win32,1.936025958,-100,6.19,2.243,NA,NA,NA,NA,NA,frustrated,"frustrated, not frustrated","more frustrated, less frustrated",NA,NA,NA,NA,NA,NA,NA,NA,NA,NA,NA,NA,NA,NA,NA,0,0,0,1,1,NA,NA,NA,NA,NA,NA,NA,NA,NA,NA,NA,NA,NA,NA,NA,NA,NA,NA,NA,NA,NA,NA,NA,NA,NA,NA,NA,NA
SUPAMT75168,NA,D26E50EA-6E79-48AD-84FE-96726154290C,2023-09-26_23h04.11.610,WP_VExplicitOC_HL,2022.2.5,Win32,1.936025958,-98.17708333,6.2,2.248,NA,NA,NA,NA,NA,bored,"bored, not bored","more bored, less bored",NA,NA,NA,NA,NA,NA,NA,NA,NA,NA,NA,NA,NA,NA,NA,0,1,1,2,1,NA,NA,NA,NA,NA,NA,NA,NA,NA,NA,NA,NA,NA,NA,NA,NA,NA,NA,NA,NA,NA,NA,NA,NA,NA,NA,NA,NA
SUPAMT75168,NA,D26E50EA-6E79-48AD-84FE-96726154290C,2023-09-26_23h04.11.610,WP_VExplicitOC_HL,2022.2.5,Win32,1.936025958,-64.58333333,6.201,2.292,NA,NA,NA,NA,NA,happy,"unhappy, happy","less happy, more happy",NA,NA,NA,NA,NA,NA,NA,NA,NA,NA,NA,NA,NA,NA,NA,0,2,2,0,1,NA,NA,NA,NA,NA,NA,NA,NA,NA,NA,NA,NA,NA,NA,NA,NA,NA,NA,NA,NA,NA,NA,NA,NA,NA,NA,NA,NA
SUPAMT75168,NA,D26E50EA-6E79-48AD-84FE-96726154290C,2023-09-26_23h04.11.610,WP_VExplicitOC_HL,2022.2.5,Win32,1.936025958,NA,NA,NA,NA,NA,NA,NA,NA,NA,NA,NA,NA,NA,NA,NA,NA,NA,NA,NA,NA,NA,NA,NA,NA,NA,NA,NA,NA,NA,NA,NA,13,0,13,0,1,NA,NA,NA,NA,NA,NA,NA,NA,NA,NA,NA,NA,NA,NA,NA,NA,NA,NA,NA,NA,NA,NA,NA
SUPAMT75168,NA,D26E50EA-6E79-48AD-84FE-96726154290C,2023-09-26_23h04.11.610,WP_VExplicitOC_HL,2022.2.5,Win32,1.936025958,-64.58333333,6.204,2.237,NA,NA,NA,NA,NA,happy,"unhappy, happy","less happy, more happy",NA,NA,NA,NA,NA,NA,NA,NA,NA,NA,NA,NA,NA,NA,NA,0,0,0,0,1,NA,NA,NA,NA,NA,NA,NA,NA,NA,NA,NA,NA,NA,NA,NA,NA,NA,NA,NA,NA,NA,NA,NA,NA,NA,NA,NA,NA
SUPAMT75168,NA,D26E50EA-6E79-48AD-84FE-96726154290C,2023-09-26_23h04.11.610,WP_VExplicitOC_HL,2022.2.5,Win32,1.936025958,-98.69791667,6.233,2.247,NA,NA,NA,NA,NA,frustrated,"frustrated, not frustrated","more frustrated, less frustrated",NA,NA,NA,NA,NA,NA,NA,NA,NA,NA,NA,NA,NA,NA,NA,0,1,1,1,1,NA,NA,NA,NA,NA,NA,NA,NA,NA,NA,NA,NA,NA,NA,NA,NA,NA,NA,NA,NA,NA,NA,NA,NA,NA,NA,NA,NA
SUPAMT75168,NA,D26E50EA-6E79-48AD-84FE-96726154290C,2023-09-26_23h04.11.610,WP_VExplicitOC_HL,2022.2.5,Win32,1.936025958,-100,5.618,2.213,NA,NA,NA,NA,NA,bored,"bored, not bored","more bored, less bored",NA,NA,NA,NA,NA,NA,NA,NA,NA,NA,NA,NA,NA,NA,NA,0,2,2,2,1,NA,NA,NA,NA,NA,NA,NA,NA,NA,NA,NA,NA,NA,NA,NA,NA,NA,NA,NA,NA,NA,NA,NA,NA,NA,NA,NA,NA
SUPAMT75168,NA,D26E50EA-6E79-48AD-84FE-96726154290C,2023-09-26_23h04.11.610,WP_VExplicitOC_HL,2022.2.5,Win32,1.936025958,NA,NA,NA,NA,NA,NA,NA,NA,NA,NA,NA,NA,NA,NA,NA,NA,NA,NA,NA,NA,NA,NA,NA,NA,NA,NA,NA,NA,NA,NA,NA,14,0,14,0,1,NA,NA,NA,NA,NA,NA,NA,NA,NA,NA,NA,NA,NA,NA,NA,NA,NA,NA,NA,NA,NA,NA,NA
SUPAMT75168,NA,D26E50EA-6E79-48AD-84FE-96726154290C,2023-09-26_23h04.11.610,WP_VExplicitOC_HL,2022.2.5,Win32,1.936025958,NA,NA,NA,NA,NA,NA,NA,NA,NA,NA,NA,NA,NA,NA,NA,NA,NA,NA,NA,NA,NA,NA,NA,NA,NA,NA,NA,NA,NA,NA,NA,NA,NA,NA,NA,NA,NA,NA,NA,NA,NA,NA,NA,NA,NA,NA,NA,NA,NA,NA,NA,NA,NA,NA,NA,NA,NA,NA,NA
SUPAMT75168,NA,D26E50EA-6E79-48AD-84FE-96726154290C,2023-09-26_23h04.11.610,WP_VExplicitOC_HL,2022.2.5,Win32,1.936025958,NA,NA,NA,NA,NA,NA,NA,NA,NA,NA,NA,NA,NA,NA,NA,NA,NA,NA,NA,NA,NA,NA,NA,NA,NA,NA,NA,NA,NA,NA,NA,NA,NA,NA,NA,NA,NA,NA,NA,NA,NA,NA,NA,NA,NA,NA,NA,NA,NA,NA,NA,NA,NA,NA,NA,NA,NA,NA,NA
SUPAMT75168,NA,D26E50EA-6E79-48AD-84FE-96726154290C,2023-09-26_23h04.11.610,WP_VExplicitOC_HL,2022.2.5,Win32,1.936025958,NA,NA,NA,NA,NA,NA,NA,NA,NA,NA,NA,NA,NA,NA,NA,NA,NA,NA,rest (looking at a fixed cross),001.png,NA,NA,NA,NA,NA,NA,NA,NA,NA,NA,NA,NA,NA,NA,NA,NA,-28.64583333,4.764,0,0,0,0,1,NA,NA,NA,NA,NA,NA,NA,NA,NA,NA,NA,NA,NA,NA,NA,NA
SUPAMT75168,NA,D26E50EA-6E79-48AD-84FE-96726154290C,2023-09-26_23h04.11.610,WP_VExplicitOC_HL,2022.2.5,Win32,1.936025958,NA,NA,NA,NA,NA,NA,NA,NA,NA,NA,NA,NA,NA,NA,NA,NA,NA,NA,stand up,002.png,NA,NA,NA,NA,NA,NA,NA,NA,NA,NA,NA,NA,NA,NA,NA,NA,-22.39583333,3.472,0,1,1,1,1,NA,NA,NA,NA,NA,NA,NA,NA,NA,NA,NA,NA,NA,NA,NA,NA
SUPAMT75168,NA,D26E50EA-6E79-48AD-84FE-96726154290C,2023-09-26_23h04.11.610,WP_VExplicitOC_HL,2022.2.5,Win32,1.936025958,NA,NA,NA,NA,NA,NA,NA,NA,NA,NA,NA,NA,NA,NA,NA,NA,NA,NA,stretch,003.png,NA,NA,NA,NA,NA,NA,NA,NA,NA,NA,NA,NA,NA,NA,NA,NA,-25,3.477,0,2,2,2,1,NA,NA,NA,NA,NA,NA,NA,NA,NA,NA,NA,NA,NA,NA,NA,NA
SUPAMT75168,NA,D26E50EA-6E79-48AD-84FE-96726154290C,2023-09-26_23h04.11.610,WP_VExplicitOC_HL,2022.2.5,Win32,1.936025958,NA,NA,NA,NA,NA,NA,NA,NA,NA,NA,NA,NA,NA,NA,NA,NA,NA,NA,make a drink,004.png,NA,NA,NA,NA,NA,NA,NA,NA,NA,NA,NA,NA,NA,NA,NA,NA,-21.09375,4.109,0,3,3,3,1,NA,NA,NA,NA,NA,NA,NA,NA,NA,NA,NA,NA,NA,NA,NA,NA
SUPAMT75168,NA,D26E50EA-6E79-48AD-84FE-96726154290C,2023-09-26_23h04.11.610,WP_VExplicitOC_HL,2022.2.5,Win32,1.936025958,NA,NA,NA,NA,NA,NA,NA,NA,NA,NA,NA,NA,NA,NA,NA,NA,NA,NA,scroll social media,005.png,NA,NA,NA,NA,NA,NA,NA,NA,NA,NA,NA,NA,NA,NA,NA,NA,30.20833333,4.11,0,4,4,4,1,NA,NA,NA,NA,NA,NA,NA,NA,NA,NA,NA,NA,NA,NA,NA,NA
SUPAMT75168,NA,D26E50EA-6E79-48AD-84FE-96726154290C,2023-09-26_23h04.11.610,WP_VExplicitOC_HL,2022.2.5,Win32,1.936025958,NA,NA,NA,NA,NA,NA,NA,NA,NA,NA,NA,NA,NA,NA,NA,NA,NA,NA,listen to music,006.png,NA,NA,NA,NA,NA,NA,NA,NA,NA,NA,NA,NA,NA,NA,NA,NA,-16.14583333,4.077,0,5,5,5,1,NA,NA,NA,NA,NA,NA,NA,NA,NA,NA,NA,NA,NA,NA,NA,NA
SUPAMT75168,NA,D26E50EA-6E79-48AD-84FE-96726154290C,2023-09-26_23h04.11.610,WP_VExplicitOC_HL,2022.2.5,Win32,1.936025958,NA,NA,NA,NA,NA,NA,NA,NA,NA,NA,NA,NA,NA,NA,NA,NA,NA,NA,daydream,007.png,NA,NA,NA,NA,NA,NA,NA,NA,NA,NA,NA,NA,NA,NA,NA,NA,-58.33333333,3.46,0,6,6,6,1,NA,NA,NA,NA,NA,NA,NA,NA,NA,NA,NA,NA,NA,NA,NA,NA
SUPAMT75168,NA,D26E50EA-6E79-48AD-84FE-96726154290C,2023-09-26_23h04.11.610,WP_VExplicitOC_HL,2022.2.5,Win32,1.936025958,NA,NA,NA,NA,NA,NA,NA,NA,NA,NA,NA,NA,NA,NA,NA,NA,NA,NA,watch a short animation,008.png,NA,NA,NA,NA,NA,NA,NA,NA,NA,NA,NA,NA,NA,NA,NA,NA,-51.5625,3.594,0,7,7,7,1,NA,NA,NA,NA,NA,NA,NA,NA,NA,NA,NA,NA,NA,NA,NA,NA
SUPAMT75168,NA,D26E50EA-6E79-48AD-84FE-96726154290C,2023-09-26_23h04.11.610,WP_VExplicitOC_HL,2022.2.5,Win32,1.936025958,NA,NA,NA,NA,NA,NA,NA,NA,NA,NA,NA,NA,NA,NA,NA,NA,NA,NA,read a novel,009.png,NA,NA,NA,NA,NA,NA,NA,NA,NA,NA,NA,NA,NA,NA,NA,NA,-57.55208333,4.111,0,8,8,8,1,NA,NA,NA,NA,NA,NA,NA,NA,NA,NA,NA,NA,NA,NA,NA,NA
SUPAMT75168,NA,D26E50EA-6E79-48AD-84FE-96726154290C,2023-09-26_23h04.11.610,WP_VExplicitOC_HL,2022.2.5,Win32,1.936025958,NA,NA,NA,NA,NA,NA,NA,NA,NA,NA,NA,NA,NA,NA,NA,NA,NA,NA,read the news,010.png,NA,NA,NA,NA,NA,NA,NA,NA,NA,NA,NA,NA,NA,NA,NA,NA,-25.52083333,4.099,0,9,9,9,1,NA,NA,NA,NA,NA,NA,NA,NA,NA,NA,NA,NA,NA,NA,NA,NA
SUPAMT75168,NA,D26E50EA-6E79-48AD-84FE-96726154290C,2023-09-26_23h04.11.610,WP_VExplicitOC_HL,2022.2.5,Win32,1.936025958,NA,NA,NA,NA,NA,NA,NA,NA,NA,NA,NA,NA,NA,NA,NA,NA,NA,NA,NA,NA,NA,NA,NA,NA,NA,NA,NA,NA,NA,NA,NA,NA,NA,NA,NA,NA,NA,NA,NA,NA,NA,NA,NA,daydream,NA,NA,NA,NA,NA,NA,NA,NA,NA,NA,NA,NA,NA,NA,NA
SUPAMT75168,NA,D26E50EA-6E79-48AD-84FE-96726154290C,2023-09-26_23h04.11.610,WP_VExplicitOC_HL,2022.2.5,Win32,1.936025958,NA,NA,2.186,NA,NA,NA,NA,NA,frustrated,"frustrated, not frustrated","more frustrated, less frustrated",NA,NA,NA,NA,NA,NA,NA,NA,NA,NA,NA,NA,NA,NA,NA,NA,NA,NA,NA,NA,NA,NA,NA,NA,NA,NA,NA,NA,NA,NA,NA,NA,NA,0,0,0,1,1,NA,NA,NA,NA,NA,NA,NA,NA,NA,NA
SUPAMT75168,NA,D26E50EA-6E79-48AD-84FE-96726154290C,2023-09-26_23h04.11.610,WP_VExplicitOC_HL,2022.2.5,Win32,1.936025958,-21.61458333,5.592,2.222,NA,NA,NA,NA,NA,bored,"bored, not bored","more bored, less bored",NA,NA,NA,NA,NA,NA,NA,NA,NA,NA,NA,NA,NA,NA,NA,NA,NA,NA,NA,NA,NA,NA,NA,NA,NA,NA,NA,NA,NA,NA,NA,NA,NA,0,1,1,2,1,NA,NA,NA,NA,NA,NA,NA,NA,NA,NA
SUPAMT75168,NA,D26E50EA-6E79-48AD-84FE-96726154290C,2023-09-26_23h04.11.610,WP_VExplicitOC_HL,2022.2.5,Win32,1.936025958,-3.90625,6.118,2.236,NA,NA,NA,NA,NA,happy,"unhappy, happy","less happy, more happy",NA,NA,NA,NA,NA,NA,NA,NA,NA,NA,NA,NA,NA,NA,NA,NA,NA,NA,NA,NA,NA,NA,NA,NA,NA,NA,NA,NA,NA,NA,NA,NA,NA,0,2,2,0,1,NA,NA,NA,NA,NA,NA,NA,NA,NA,NA
SUPAMT75168,NA,D26E50EA-6E79-48AD-84FE-96726154290C,2023-09-26_23h04.11.610,WP_VExplicitOC_HL,2022.2.5,Win32,1.936025958,NA,NA,NA,NA,NA,NA,NA,NA,NA,NA,NA,NA,NA,NA,NA,NA,NA,NA,NA,NA,NA,NA,NA,NA,NA,NA,NA,NA,NA,NA,NA,NA,NA,NA,NA,NA,NA,NA,NA,NA,NA,NA,NA,NA,NA,NA,NA,NA,NA,NA,NA,NA,NA,NA,NA,NA,NA,NA,NA
SUPAMT75168,NA,D26E50EA-6E79-48AD-84FE-96726154290C,2023-09-26_23h04.11.610,WP_VExplicitOC_HL,2022.2.5,Win32,1.936025958,NA,NA,NA,NA,NA,NA,NA,NA,NA,NA,NA,NA,NA,NA,NA,NA,NA,NA,NA,NA,NA,NA,NA,NA,NA,NA,NA,NA,NA,NA,NA,NA,NA,NA,NA,NA,NA,NA,NA,NA,NA,NA,NA,NA,NA,NA,NA,NA,NA,NA,NA,NA,NA,NA,NA,NA,NA,NA,NA
SUPAMT75168,NA,D26E50EA-6E79-48AD-84FE-96726154290C,2023-09-26_23h04.11.610,WP_VExplicitOC_HL,2022.2.5,Win32,1.936025958,-23.4375,5.636,2.263,NA,NA,NA,NA,NA,frustrated,"frustrated, not frustrated","more frustrated, less frustrated",NA,NA,NA,NA,NA,NA,NA,NA,NA,NA,NA,NA,NA,NA,NA,NA,NA,NA,NA,NA,NA,NA,NA,NA,NA,NA,NA,NA,NA,NA,NA,NA,NA,NA,NA,NA,NA,NA,0,0,0,1,1,NA,NA,NA,NA,NA
SUPAMT75168,NA,D26E50EA-6E79-48AD-84FE-96726154290C,2023-09-26_23h04.11.610,WP_VExplicitOC_HL,2022.2.5,Win32,1.936025958,-17.96875,5.574,2.243,NA,NA,NA,NA,NA,happy,"unhappy, happy","less happy, more happy",NA,NA,NA,NA,NA,NA,NA,NA,NA,NA,NA,NA,NA,NA,NA,NA,NA,NA,NA,NA,NA,NA,NA,NA,NA,NA,NA,NA,NA,NA,NA,NA,NA,NA,NA,NA,NA,NA,0,1,1,0,1,NA,NA,NA,NA,NA
SUPAMT75168,NA,D26E50EA-6E79-48AD-84FE-96726154290C,2023-09-26_23h04.11.610,WP_VExplicitOC_HL,2022.2.5,Win32,1.936025958,-40.88541667,5.571,2.217,NA,NA,NA,NA,NA,bored,"bored, not bored","more bored, less bored",NA,NA,NA,NA,NA,NA,NA,NA,NA,NA,NA,NA,NA,NA,NA,NA,NA,NA,NA,NA,NA,NA,NA,NA,NA,NA,NA,NA,NA,NA,NA,NA,NA,NA,NA,NA,NA,NA,0,2,2,2,1,NA,NA,NA,NA,NA
SUPAMT75168,NA,D26E50EA-6E79-48AD-84FE-96726154290C,2023-09-26_23h04.11.610,WP_VExplicitOC_HL,2022.2.5,Win32,1.936025958,NA,NA,NA,NA,NA,NA,NA,NA,NA,NA,NA,NA,NA,NA,NA,NA,NA,NA,NA,NA,NA,NA,NA,NA,NA,NA,NA,NA,NA,NA,NA,NA,NA,NA,NA,NA,NA,NA,NA,NA,NA,NA,NA,NA,NA,NA,NA,NA,NA,NA,NA,NA,NA,NA,0,0,0,0,1
SUPAMT75168,NA,D26E50EA-6E79-48AD-84FE-96726154290C,2023-09-26_23h04.11.610,WP_VExplicitOC_HL,2022.2.5,Win32,1.936025958,-59.11458333,5.611,2.247,NA,NA,NA,NA,NA,bored,"bored, not bored","more bored, less bored",NA,NA,NA,NA,NA,NA,NA,NA,NA,NA,NA,NA,NA,NA,NA,NA,NA,NA,NA,NA,NA,NA,NA,NA,NA,NA,NA,NA,NA,NA,NA,NA,NA,NA,NA,NA,NA,NA,0,0,0,2,1,NA,NA,NA,NA,NA
SUPAMT75168,NA,D26E50EA-6E79-48AD-84FE-96726154290C,2023-09-26_23h04.11.610,WP_VExplicitOC_HL,2022.2.5,Win32,1.936025958,-35.9375,5.604,2.251,NA,NA,NA,NA,NA,happy,"unhappy, happy","less happy, more happy",NA,NA,NA,NA,NA,NA,NA,NA,NA,NA,NA,NA,NA,NA,NA,NA,NA,NA,NA,NA,NA,NA,NA,NA,NA,NA,NA,NA,NA,NA,NA,NA,NA,NA,NA,NA,NA,NA,0,1,1,0,1,NA,NA,NA,NA,NA
SUPAMT75168,NA,D26E50EA-6E79-48AD-84FE-96726154290C,2023-09-26_23h04.11.610,WP_VExplicitOC_HL,2022.2.5,Win32,1.936025958,-75.26041667,5.625,2.258,NA,NA,NA,NA,NA,frustrated,"frustrated, not frustrated","more frustrated, less frustrated",NA,NA,NA,NA,NA,NA,NA,NA,NA,NA,NA,NA,NA,NA,NA,NA,NA,NA,NA,NA,NA,NA,NA,NA,NA,NA,NA,NA,NA,NA,NA,NA,NA,NA,NA,NA,NA,NA,0,2,2,1,1,NA,NA,NA,NA,NA
SUPAMT75168,NA,D26E50EA-6E79-48AD-84FE-96726154290C,2023-09-26_23h04.11.610,WP_VExplicitOC_HL,2022.2.5,Win32,1.936025958,NA,NA,NA,NA,NA,NA,NA,NA,NA,NA,NA,NA,NA,NA,NA,NA,NA,NA,NA,NA,NA,NA,NA,NA,NA,NA,NA,NA,NA,NA,NA,NA,NA,NA,NA,NA,NA,NA,NA,NA,NA,NA,NA,NA,NA,NA,NA,NA,NA,NA,NA,NA,NA,NA,1,0,1,0,1
SUPAMT75168,NA,D26E50EA-6E79-48AD-84FE-96726154290C,2023-09-26_23h04.11.610,WP_VExplicitOC_HL,2022.2.5,Win32,1.936025958,-88.02083333,5.547,2.18,NA,NA,NA,NA,NA,bored,"bored, not bored","more bored, less bored",NA,NA,NA,NA,NA,NA,NA,NA,NA,NA,NA,NA,NA,NA,NA,NA,NA,NA,NA,NA,NA,NA,NA,NA,NA,NA,NA,NA,NA,NA,NA,NA,NA,NA,NA,NA,NA,NA,0,0,0,2,1,NA,NA,NA,NA,NA
SUPAMT75168,NA,D26E50EA-6E79-48AD-84FE-96726154290C,2023-09-26_23h04.11.610,WP_VExplicitOC_HL,2022.2.5,Win32,1.936025958,-92.70833333,5.684,2.272,NA,NA,NA,NA,NA,frustrated,"frustrated, not frustrated","more frustrated, less frustrated",NA,NA,NA,NA,NA,NA,NA,NA,NA,NA,NA,NA,NA,NA,NA,NA,NA,NA,NA,NA,NA,NA,NA,NA,NA,NA,NA,NA,NA,NA,NA,NA,NA,NA,NA,NA,NA,NA,0,1,1,1,1,NA,NA,NA,NA,NA
SUPAMT75168,NA,D26E50EA-6E79-48AD-84FE-96726154290C,2023-09-26_23h04.11.610,WP_VExplicitOC_HL,2022.2.5,Win32,1.936025958,-66.40625,5.609,2.241,NA,NA,NA,NA,NA,happy,"unhappy, happy","less happy, more happy",NA,NA,NA,NA,NA,NA,NA,NA,NA,NA,NA,NA,NA,NA,NA,NA,NA,NA,NA,NA,NA,NA,NA,NA,NA,NA,NA,NA,NA,NA,NA,NA,NA,NA,NA,NA,NA,NA,0,2,2,0,1,NA,NA,NA,NA,NA
SUPAMT75168,NA,D26E50EA-6E79-48AD-84FE-96726154290C,2023-09-26_23h04.11.610,WP_VExplicitOC_HL,2022.2.5,Win32,1.936025958,NA,NA,NA,NA,NA,NA,NA,NA,NA,NA,NA,NA,NA,NA,NA,NA,NA,NA,NA,NA,NA,NA,NA,NA,NA,NA,NA,NA,NA,NA,NA,NA,NA,NA,NA,NA,NA,NA,NA,NA,NA,NA,NA,NA,NA,NA,NA,NA,NA,NA,NA,NA,NA,NA,2,0,2,0,1
SUPAMT75168,NA,D26E50EA-6E79-48AD-84FE-96726154290C,2023-09-26_23h04.11.610,WP_VExplicitOC_HL,2022.2.5,Win32,1.936025958,-98.69791667,5.551,2.185,NA,NA,NA,NA,NA,bored,"bored, not bored","more bored, less bored",NA,NA,NA,NA,NA,NA,NA,NA,NA,NA,NA,NA,NA,NA,NA,NA,NA,NA,NA,NA,NA,NA,NA,NA,NA,NA,NA,NA,NA,NA,NA,NA,NA,NA,NA,NA,NA,NA,0,0,0,2,1,NA,NA,NA,NA,NA
SUPAMT75168,NA,D26E50EA-6E79-48AD-84FE-96726154290C,2023-09-26_23h04.11.610,WP_VExplicitOC_HL,2022.2.5,Win32,1.936025958,-82.03125,5.626,2.271,NA,NA,NA,NA,NA,happy,"unhappy, happy","less happy, more happy",NA,NA,NA,NA,NA,NA,NA,NA,NA,NA,NA,NA,NA,NA,NA,NA,NA,NA,NA,NA,NA,NA,NA,NA,NA,NA,NA,NA,NA,NA,NA,NA,NA,NA,NA,NA,NA,NA,0,1,1,0,1,NA,NA,NA,NA,NA
SUPAMT75168,NA,D26E50EA-6E79-48AD-84FE-96726154290C,2023-09-26_23h04.11.610,WP_VExplicitOC_HL,2022.2.5,Win32,1.936025958,-99.73958333,6.221,2.256,NA,NA,NA,NA,NA,frustrated,"frustrated, not frustrated","more frustrated, less frustrated",NA,NA,NA,NA,NA,NA,NA,NA,NA,NA,NA,NA,NA,NA,NA,NA,NA,NA,NA,NA,NA,NA,NA,NA,NA,NA,NA,NA,NA,NA,NA,NA,NA,NA,NA,NA,NA,NA,0,2,2,1,1,NA,NA,NA,NA,NA
SUPAMT75168,NA,D26E50EA-6E79-48AD-84FE-96726154290C,2023-09-26_23h04.11.610,WP_VExplicitOC_HL,2022.2.5,Win32,1.936025958,NA,NA,NA,NA,NA,NA,NA,NA,NA,NA,NA,NA,NA,NA,NA,NA,NA,NA,NA,NA,NA,NA,NA,NA,NA,NA,NA,NA,NA,NA,NA,NA,NA,NA,NA,NA,NA,NA,NA,NA,NA,NA,NA,NA,NA,NA,NA,NA,NA,NA,NA,NA,NA,NA,3,0,3,0,1
SUPAMT75168,NA,D26E50EA-6E79-48AD-84FE-96726154290C,2023-09-26_23h04.11.610,WP_VExplicitOC_HL,2022.2.5,Win32,1.936025958,-81.51041667,6.77,2.245,NA,NA,NA,NA,NA,happy,"unhappy, happy","less happy, more happy",NA,NA,NA,NA,NA,NA,NA,NA,NA,NA,NA,NA,NA,NA,NA,NA,NA,NA,NA,NA,NA,NA,NA,NA,NA,NA,NA,NA,NA,NA,NA,NA,NA,NA,NA,NA,NA,NA,0,0,0,0,1,NA,NA,NA,NA,NA
SUPAMT75168,NA,D26E50EA-6E79-48AD-84FE-96726154290C,2023-09-26_23h04.11.610,WP_VExplicitOC_HL,2022.2.5,Win32,1.936025958,-100,6.269,2.281,NA,NA,NA,NA,NA,frustrated,"frustrated, not frustrated","more frustrated, less frustrated",NA,NA,NA,NA,NA,NA,NA,NA,NA,NA,NA,NA,NA,NA,NA,NA,NA,NA,NA,NA,NA,NA,NA,NA,NA,NA,NA,NA,NA,NA,NA,NA,NA,NA,NA,NA,NA,NA,0,1,1,1,1,NA,NA,NA,NA,NA
SUPAMT75168,NA,D26E50EA-6E79-48AD-84FE-96726154290C,2023-09-26_23h04.11.610,WP_VExplicitOC_HL,2022.2.5,Win32,1.936025958,-99.21875,6.191,2.254,NA,NA,NA,NA,NA,bored,"bored, not bored","more bored, less bored",NA,NA,NA,NA,NA,NA,NA,NA,NA,NA,NA,NA,NA,NA,NA,NA,NA,NA,NA,NA,NA,NA,NA,NA,NA,NA,NA,NA,NA,NA,NA,NA,NA,NA,NA,NA,NA,NA,0,2,2,2,1,NA,NA,NA,NA,NA
SUPAMT75168,NA,D26E50EA-6E79-48AD-84FE-96726154290C,2023-09-26_23h04.11.610,WP_VExplicitOC_HL,2022.2.5,Win32,1.936025958,NA,NA,NA,NA,NA,NA,NA,NA,NA,NA,NA,NA,NA,NA,NA,NA,NA,NA,NA,NA,NA,NA,NA,NA,NA,NA,NA,NA,NA,NA,NA,NA,NA,NA,NA,NA,NA,NA,NA,NA,NA,NA,NA,NA,NA,NA,NA,NA,NA,NA,NA,NA,NA,NA,4,0,4,0,1
SUPAMT75168,NA,D26E50EA-6E79-48AD-84FE-96726154290C,2023-09-26_23h04.11.610,WP_VExplicitOC_HL,2022.2.5,Win32,1.936025958,-100,6.168,2.218,NA,NA,NA,NA,NA,bored,"bored, not bored","more bored, less bored",NA,NA,NA,NA,NA,NA,NA,NA,NA,NA,NA,NA,NA,NA,NA,NA,NA,NA,NA,NA,NA,NA,NA,NA,NA,NA,NA,NA,NA,NA,NA,NA,NA,NA,NA,NA,NA,NA,0,0,0,2,1,NA,NA,NA,NA,NA
SUPAMT75168,NA,D26E50EA-6E79-48AD-84FE-96726154290C,2023-09-26_23h04.11.610,WP_VExplicitOC_HL,2022.2.5,Win32,1.936025958,-0.520833333,4.539,2.283,NA,NA,NA,NA,NA,frustrated,"frustrated, not frustrated","more frustrated, less frustrated",NA,NA,NA,NA,NA,NA,NA,NA,NA,NA,NA,NA,NA,NA,NA,NA,NA,NA,NA,NA,NA,NA,NA,NA,NA,NA,NA,NA,NA,NA,NA,NA,NA,NA,NA,NA,NA,NA,0,1,1,1,1,NA,NA,NA,NA,NA
SUPAMT75168,NA,D26E50EA-6E79-48AD-84FE-96726154290C,2023-09-26_23h04.11.610,WP_VExplicitOC_HL,2022.2.5,Win32,1.936025958,-92.70833333,6.259,2.276,NA,NA,NA,NA,NA,happy,"unhappy, happy","less happy, more happy",NA,NA,NA,NA,NA,NA,NA,NA,NA,NA,NA,NA,NA,NA,NA,NA,NA,NA,NA,NA,NA,NA,NA,NA,NA,NA,NA,NA,NA,NA,NA,NA,NA,NA,NA,NA,NA,NA,0,2,2,0,1,NA,NA,NA,NA,NA
SUPAMT75168,NA,D26E50EA-6E79-48AD-84FE-96726154290C,2023-09-26_23h04.11.610,WP_VExplicitOC_HL,2022.2.5,Win32,1.936025958,NA,NA,NA,NA,NA,NA,NA,NA,NA,NA,NA,NA,NA,NA,NA,NA,NA,NA,NA,NA,NA,NA,NA,NA,NA,NA,NA,NA,NA,NA,NA,NA,NA,NA,NA,NA,NA,NA,NA,NA,NA,NA,NA,NA,NA,NA,NA,NA,NA,NA,NA,NA,NA,NA,5,0,5,0,1
SUPAMT75168,NA,D26E50EA-6E79-48AD-84FE-96726154290C,2023-09-26_23h04.11.610,WP_VExplicitOC_HL,2022.2.5,Win32,1.936025958,-99.21875,6.191,2.225,NA,NA,NA,NA,NA,bored,"bored, not bored","more bored, less bored",NA,NA,NA,NA,NA,NA,NA,NA,NA,NA,NA,NA,NA,NA,NA,NA,NA,NA,NA,NA,NA,NA,NA,NA,NA,NA,NA,NA,NA,NA,NA,NA,NA,NA,NA,NA,NA,NA,0,0,0,2,1,NA,NA,NA,NA,NA
SUPAMT75168,NA,D26E50EA-6E79-48AD-84FE-96726154290C,2023-09-26_23h04.11.610,WP_VExplicitOC_HL,2022.2.5,Win32,1.936025958,-100,5.642,2.224,NA,NA,NA,NA,NA,happy,"unhappy, happy","less happy, more happy",NA,NA,NA,NA,NA,NA,NA,NA,NA,NA,NA,NA,NA,NA,NA,NA,NA,NA,NA,NA,NA,NA,NA,NA,NA,NA,NA,NA,NA,NA,NA,NA,NA,NA,NA,NA,NA,NA,0,1,1,0,1,NA,NA,NA,NA,NA
SUPAMT75168,NA,D26E50EA-6E79-48AD-84FE-96726154290C,2023-09-26_23h04.11.610,WP_VExplicitOC_HL,2022.2.5,Win32,1.936025958,-100,6.204,2.235,NA,NA,NA,NA,NA,frustrated,"frustrated, not frustrated","more frustrated, less frustrated",NA,NA,NA,NA,NA,NA,NA,NA,NA,NA,NA,NA,NA,NA,NA,NA,NA,NA,NA,NA,NA,NA,NA,NA,NA,NA,NA,NA,NA,NA,NA,NA,NA,NA,NA,NA,NA,NA,0,2,2,1,1,NA,NA,NA,NA,NA
SUPAMT75168,NA,D26E50EA-6E79-48AD-84FE-96726154290C,2023-09-26_23h04.11.610,WP_VExplicitOC_HL,2022.2.5,Win32,1.936025958,NA,NA,NA,NA,NA,NA,NA,NA,NA,NA,NA,NA,NA,NA,NA,NA,NA,NA,NA,NA,NA,NA,NA,NA,NA,NA,NA,NA,NA,NA,NA,NA,NA,NA,NA,NA,NA,NA,NA,NA,NA,NA,NA,NA,NA,NA,NA,NA,NA,NA,NA,NA,NA,NA,6,0,6,0,1
SUPAMT75168,NA,D26E50EA-6E79-48AD-84FE-96726154290C,2023-09-26_23h04.11.610,WP_VExplicitOC_HL,2022.2.5,Win32,1.936025958,-98.17708333,6.188,2.182,NA,NA,NA,NA,NA,frustrated,"frustrated, not frustrated","more frustrated, less frustrated",NA,NA,NA,NA,NA,NA,NA,NA,NA,NA,NA,NA,NA,NA,NA,NA,NA,NA,NA,NA,NA,NA,NA,NA,NA,NA,NA,NA,NA,NA,NA,NA,NA,NA,NA,NA,NA,NA,0,0,0,1,1,NA,NA,NA,NA,NA
SUPAMT75168,NA,D26E50EA-6E79-48AD-84FE-96726154290C,2023-09-26_23h04.11.610,WP_VExplicitOC_HL,2022.2.5,Win32,1.936025958,-98.4375,6.838,2.274,NA,NA,NA,NA,NA,happy,"unhappy, happy","less happy, more happy",NA,NA,NA,NA,NA,NA,NA,NA,NA,NA,NA,NA,NA,NA,NA,NA,NA,NA,NA,NA,NA,NA,NA,NA,NA,NA,NA,NA,NA,NA,NA,NA,NA,NA,NA,NA,NA,NA,0,1,1,0,1,NA,NA,NA,NA,NA
SUPAMT75168,NA,D26E50EA-6E79-48AD-84FE-96726154290C,2023-09-26_23h04.11.610,WP_VExplicitOC_HL,2022.2.5,Win32,1.936025958,-100,6.775,2.259,NA,NA,NA,NA,NA,bored,"bored, not bored","more bored, less bored",NA,NA,NA,NA,NA,NA,NA,NA,NA,NA,NA,NA,NA,NA,NA,NA,NA,NA,NA,NA,NA,NA,NA,NA,NA,NA,NA,NA,NA,NA,NA,NA,NA,NA,NA,NA,NA,NA,0,2,2,2,1,NA,NA,NA,NA,NA
SUPAMT75168,NA,D26E50EA-6E79-48AD-84FE-96726154290C,2023-09-26_23h04.11.610,WP_VExplicitOC_HL,2022.2.5,Win32,1.936025958,NA,NA,NA,NA,NA,NA,NA,NA,NA,NA,NA,NA,NA,NA,NA,NA,NA,NA,NA,NA,NA,NA,NA,NA,NA,NA,NA,NA,NA,NA,NA,NA,NA,NA,NA,NA,NA,NA,NA,NA,NA,NA,NA,NA,NA,NA,NA,NA,NA,NA,NA,NA,NA,NA,7,0,7,0,1
SUPAMT75168,NA,D26E50EA-6E79-48AD-84FE-96726154290C,2023-09-26_23h04.11.610,WP_VExplicitOC_HL,2022.2.5,Win32,1.936025958,-98.95833333,5.626,2.27,NA,NA,NA,NA,NA,bored,"bored, not bored","more bored, less bored",NA,NA,NA,NA,NA,NA,NA,NA,NA,NA,NA,NA,NA,NA,NA,NA,NA,NA,NA,NA,NA,NA,NA,NA,NA,NA,NA,NA,NA,NA,NA,NA,NA,NA,NA,NA,NA,NA,0,0,0,2,1,NA,NA,NA,NA,NA
SUPAMT75168,NA,D26E50EA-6E79-48AD-84FE-96726154290C,2023-09-26_23h04.11.610,WP_VExplicitOC_HL,2022.2.5,Win32,1.936025958,-100,5.638,2.249,NA,NA,NA,NA,NA,frustrated,"frustrated, not frustrated","more frustrated, less frustrated",NA,NA,NA,NA,NA,NA,NA,NA,NA,NA,NA,NA,NA,NA,NA,NA,NA,NA,NA,NA,NA,NA,NA,NA,NA,NA,NA,NA,NA,NA,NA,NA,NA,NA,NA,NA,NA,NA,0,1,1,1,1,NA,NA,NA,NA,NA
SUPAMT75168,NA,D26E50EA-6E79-48AD-84FE-96726154290C,2023-09-26_23h04.11.610,WP_VExplicitOC_HL,2022.2.5,Win32,1.936025958,-100,5.657,2.271,NA,NA,NA,NA,NA,happy,"unhappy, happy","less happy, more happy",NA,NA,NA,NA,NA,NA,NA,NA,NA,NA,NA,NA,NA,NA,NA,NA,NA,NA,NA,NA,NA,NA,NA,NA,NA,NA,NA,NA,NA,NA,NA,NA,NA,NA,NA,NA,NA,NA,0,2,2,0,1,NA,NA,NA,NA,NA
SUPAMT75168,NA,D26E50EA-6E79-48AD-84FE-96726154290C,2023-09-26_23h04.11.610,WP_VExplicitOC_HL,2022.2.5,Win32,1.936025958,NA,NA,NA,NA,NA,NA,NA,NA,NA,NA,NA,NA,NA,NA,NA,NA,NA,NA,NA,NA,NA,NA,NA,NA,NA,NA,NA,NA,NA,NA,NA,NA,NA,NA,NA,NA,NA,NA,NA,NA,NA,NA,NA,NA,NA,NA,NA,NA,NA,NA,NA,NA,NA,NA,8,0,8,0,1
SUPAMT75168,NA,D26E50EA-6E79-48AD-84FE-96726154290C,2023-09-26_23h04.11.610,WP_VExplicitOC_HL,2022.2.5,Win32,1.936025958,-98.69791667,6.134,2.208,NA,NA,NA,NA,NA,happy,"unhappy, happy","less happy, more happy",NA,NA,NA,NA,NA,NA,NA,NA,NA,NA,NA,NA,NA,NA,NA,NA,NA,NA,NA,NA,NA,NA,NA,NA,NA,NA,NA,NA,NA,NA,NA,NA,NA,NA,NA,NA,NA,NA,0,0,0,0,1,NA,NA,NA,NA,NA
SUPAMT75168,NA,D26E50EA-6E79-48AD-84FE-96726154290C,2023-09-26_23h04.11.610,WP_VExplicitOC_HL,2022.2.5,Win32,1.936025958,-100,5.614,2.249,NA,NA,NA,NA,NA,bored,"bored, not bored","more bored, less bored",NA,NA,NA,NA,NA,NA,NA,NA,NA,NA,NA,NA,NA,NA,NA,NA,NA,NA,NA,NA,NA,NA,NA,NA,NA,NA,NA,NA,NA,NA,NA,NA,NA,NA,NA,NA,NA,NA,0,1,1,2,1,NA,NA,NA,NA,NA
SUPAMT75168,NA,D26E50EA-6E79-48AD-84FE-96726154290C,2023-09-26_23h04.11.610,WP_VExplicitOC_HL,2022.2.5,Win32,1.936025958,-100,5.611,2.245,NA,NA,NA,NA,NA,frustrated,"frustrated, not frustrated","more frustrated, less frustrated",NA,NA,NA,NA,NA,NA,NA,NA,NA,NA,NA,NA,NA,NA,NA,NA,NA,NA,NA,NA,NA,NA,NA,NA,NA,NA,NA,NA,NA,NA,NA,NA,NA,NA,NA,NA,NA,NA,0,2,2,1,1,NA,NA,NA,NA,NA
SUPAMT75168,NA,D26E50EA-6E79-48AD-84FE-96726154290C,2023-09-26_23h04.11.610,WP_VExplicitOC_HL,2022.2.5,Win32,1.936025958,NA,NA,NA,NA,NA,NA,NA,NA,NA,NA,NA,NA,NA,NA,NA,NA,NA,NA,NA,NA,NA,NA,NA,NA,NA,NA,NA,NA,NA,NA,NA,NA,NA,NA,NA,NA,NA,NA,NA,NA,NA,NA,NA,NA,NA,NA,NA,NA,NA,NA,NA,NA,NA,NA,9,0,9,0,1
SUPAMT75168,NA,D26E50EA-6E79-48AD-84FE-96726154290C,2023-09-26_23h04.11.610,WP_VExplicitOC_HL,2022.2.5,Win32,1.936025958,-100,6.09,2.174,NA,NA,NA,NA,NA,bored,"bored, not bored","more bored, less bored",NA,NA,NA,NA,NA,NA,NA,NA,NA,NA,NA,NA,NA,NA,NA,NA,NA,NA,NA,NA,NA,NA,NA,NA,NA,NA,NA,NA,NA,NA,NA,NA,NA,NA,NA,NA,NA,NA,0,0,0,2,1,NA,NA,NA,NA,NA
SUPAMT75168,NA,D26E50EA-6E79-48AD-84FE-96726154290C,2023-09-26_23h04.11.610,WP_VExplicitOC_HL,2022.2.5,Win32,1.936025958,-92.70833333,6.228,2.274,NA,NA,NA,NA,NA,happy,"unhappy, happy","less happy, more happy",NA,NA,NA,NA,NA,NA,NA,NA,NA,NA,NA,NA,NA,NA,NA,NA,NA,NA,NA,NA,NA,NA,NA,NA,NA,NA,NA,NA,NA,NA,NA,NA,NA,NA,NA,NA,NA,NA,0,1,1,0,1,NA,NA,NA,NA,NA
SUPAMT75168,NA,D26E50EA-6E79-48AD-84FE-96726154290C,2023-09-26_23h04.11.610,WP_VExplicitOC_HL,2022.2.5,Win32,1.936025958,-100,6.154,2.197,NA,NA,NA,NA,NA,frustrated,"frustrated, not frustrated","more frustrated, less frustrated",NA,NA,NA,NA,NA,NA,NA,NA,NA,NA,NA,NA,NA,NA,NA,NA,NA,NA,NA,NA,NA,NA,NA,NA,NA,NA,NA,NA,NA,NA,NA,NA,NA,NA,NA,NA,NA,NA,0,2,2,1,1,NA,NA,NA,NA,NA
SUPAMT75168,NA,D26E50EA-6E79-48AD-84FE-96726154290C,2023-09-26_23h04.11.610,WP_VExplicitOC_HL,2022.2.5,Win32,1.936025958,NA,NA,NA,NA,NA,NA,NA,NA,NA,NA,NA,NA,NA,NA,NA,NA,NA,NA,NA,NA,NA,NA,NA,NA,NA,NA,NA,NA,NA,NA,NA,NA,NA,NA,NA,NA,NA,NA,NA,NA,NA,NA,NA,NA,NA,NA,NA,NA,NA,NA,NA,NA,NA,NA,10,0,10,0,1
SUPAMT75168,NA,D26E50EA-6E79-48AD-84FE-96726154290C,2023-09-26_23h04.11.610,WP_VExplicitOC_HL,2022.2.5,Win32,1.936025958,-97.91666667,6.194,2.187,NA,NA,NA,NA,NA,frustrated,"frustrated, not frustrated","more frustrated, less frustrated",NA,NA,NA,NA,NA,NA,NA,NA,NA,NA,NA,NA,NA,NA,NA,NA,NA,NA,NA,NA,NA,NA,NA,NA,NA,NA,NA,NA,NA,NA,NA,NA,NA,NA,NA,NA,NA,NA,0,0,0,1,1,NA,NA,NA,NA,NA
SUPAMT75168,NA,D26E50EA-6E79-48AD-84FE-96726154290C,2023-09-26_23h04.11.610,WP_VExplicitOC_HL,2022.2.5,Win32,1.936025958,-92.44791667,6.25,2.272,NA,NA,NA,NA,NA,happy,"unhappy, happy","less happy, more happy",NA,NA,NA,NA,NA,NA,NA,NA,NA,NA,NA,NA,NA,NA,NA,NA,NA,NA,NA,NA,NA,NA,NA,NA,NA,NA,NA,NA,NA,NA,NA,NA,NA,NA,NA,NA,NA,NA,0,1,1,0,1,NA,NA,NA,NA,NA
SUPAMT75168,NA,D26E50EA-6E79-48AD-84FE-96726154290C,2023-09-26_23h04.11.610,WP_VExplicitOC_HL,2022.2.5,Win32,1.936025958,-100,6.203,2.247,NA,NA,NA,NA,NA,bored,"bored, not bored","more bored, less bored",NA,NA,NA,NA,NA,NA,NA,NA,NA,NA,NA,NA,NA,NA,NA,NA,NA,NA,NA,NA,NA,NA,NA,NA,NA,NA,NA,NA,NA,NA,NA,NA,NA,NA,NA,NA,NA,NA,0,2,2,2,1,NA,NA,NA,NA,NA
SUPAMT75168,NA,D26E50EA-6E79-48AD-84FE-96726154290C,2023-09-26_23h04.11.610,WP_VExplicitOC_HL,2022.2.5,Win32,1.936025958,NA,NA,NA,NA,NA,NA,NA,NA,NA,NA,NA,NA,NA,NA,NA,NA,NA,NA,NA,NA,NA,NA,NA,NA,NA,NA,NA,NA,NA,NA,NA,NA,NA,NA,NA,NA,NA,NA,NA,NA,NA,NA,NA,NA,NA,NA,NA,NA,NA,NA,NA,NA,NA,NA,11,0,11,0,1
SUPAMT75168,NA,D26E50EA-6E79-48AD-84FE-96726154290C,2023-09-26_23h04.11.610,WP_VExplicitOC_HL,2022.2.5,Win32,1.936025958,-100,6.746,2.236,NA,NA,NA,NA,NA,frustrated,"frustrated, not frustrated","more frustrated, less frustrated",NA,NA,NA,NA,NA,NA,NA,NA,NA,NA,NA,NA,NA,NA,NA,NA,NA,NA,NA,NA,NA,NA,NA,NA,NA,NA,NA,NA,NA,NA,NA,NA,NA,NA,NA,NA,NA,NA,0,0,0,1,1,NA,NA,NA,NA,NA
SUPAMT75168,NA,D26E50EA-6E79-48AD-84FE-96726154290C,2023-09-26_23h04.11.610,WP_VExplicitOC_HL,2022.2.5,Win32,1.936025958,-100,5.653,2.274,NA,NA,NA,NA,NA,bored,"bored, not bored","more bored, less bored",NA,NA,NA,NA,NA,NA,NA,NA,NA,NA,NA,NA,NA,NA,NA,NA,NA,NA,NA,NA,NA,NA,NA,NA,NA,NA,NA,NA,NA,NA,NA,NA,NA,NA,NA,NA,NA,NA,0,1,1,2,1,NA,NA,NA,NA,NA
SUPAMT75168,NA,D26E50EA-6E79-48AD-84FE-96726154290C,2023-09-26_23h04.11.610,WP_VExplicitOC_HL,2022.2.5,Win32,1.936025958,-93.48958333,7.29,2.219,NA,NA,NA,NA,NA,happy,"unhappy, happy","less happy, more happy",NA,NA,NA,NA,NA,NA,NA,NA,NA,NA,NA,NA,NA,NA,NA,NA,NA,NA,NA,NA,NA,NA,NA,NA,NA,NA,NA,NA,NA,NA,NA,NA,NA,NA,NA,NA,NA,NA,0,2,2,0,1,NA,NA,NA,NA,NA
SUPAMT75168,NA,D26E50EA-6E79-48AD-84FE-96726154290C,2023-09-26_23h04.11.610,WP_VExplicitOC_HL,2022.2.5,Win32,1.936025958,NA,NA,NA,NA,NA,NA,NA,NA,NA,NA,NA,NA,NA,NA,NA,NA,NA,NA,NA,NA,NA,NA,NA,NA,NA,NA,NA,NA,NA,NA,NA,NA,NA,NA,NA,NA,NA,NA,NA,NA,NA,NA,NA,NA,NA,NA,NA,NA,NA,NA,NA,NA,NA,NA,12,0,12,0,1
SUPAMT75168,NA,D26E50EA-6E79-48AD-84FE-96726154290C,2023-09-26_23h04.11.610,WP_VExplicitOC_HL,2022.2.5,Win32,1.936025958,-97.13541667,6.753,2.187,NA,NA,NA,NA,NA,bored,"bored, not bored","more bored, less bored",NA,NA,NA,NA,NA,NA,NA,NA,NA,NA,NA,NA,NA,NA,NA,NA,NA,NA,NA,NA,NA,NA,NA,NA,NA,NA,NA,NA,NA,NA,NA,NA,NA,NA,NA,NA,NA,NA,0,0,0,2,1,NA,NA,NA,NA,NA
SUPAMT75168,NA,D26E50EA-6E79-48AD-84FE-96726154290C,2023-09-26_23h04.11.610,WP_VExplicitOC_HL,2022.2.5,Win32,1.936025958,-95.3125,6.252,2.25,NA,NA,NA,NA,NA,happy,"unhappy, happy","less happy, more happy",NA,NA,NA,NA,NA,NA,NA,NA,NA,NA,NA,NA,NA,NA,NA,NA,NA,NA,NA,NA,NA,NA,NA,NA,NA,NA,NA,NA,NA,NA,NA,NA,NA,NA,NA,NA,NA,NA,0,1,1,0,1,NA,NA,NA,NA,NA
SUPAMT75168,NA,D26E50EA-6E79-48AD-84FE-96726154290C,2023-09-26_23h04.11.610,WP_VExplicitOC_HL,2022.2.5,Win32,1.936025958,-94.79166667,6.219,2.254,NA,NA,NA,NA,NA,frustrated,"frustrated, not frustrated","more frustrated, less frustrated",NA,NA,NA,NA,NA,NA,NA,NA,NA,NA,NA,NA,NA,NA,NA,NA,NA,NA,NA,NA,NA,NA,NA,NA,NA,NA,NA,NA,NA,NA,NA,NA,NA,NA,NA,NA,NA,NA,0,2,2,1,1,NA,NA,NA,NA,NA
SUPAMT75168,NA,D26E50EA-6E79-48AD-84FE-96726154290C,2023-09-26_23h04.11.610,WP_VExplicitOC_HL,2022.2.5,Win32,1.936025958,NA,NA,NA,NA,NA,NA,NA,NA,NA,NA,NA,NA,NA,NA,NA,NA,NA,NA,NA,NA,NA,NA,NA,NA,NA,NA,NA,NA,NA,NA,NA,NA,NA,NA,NA,NA,NA,NA,NA,NA,NA,NA,NA,NA,NA,NA,NA,NA,NA,NA,NA,NA,NA,NA,13,0,13,0,1
SUPAMT75168,NA,D26E50EA-6E79-48AD-84FE-96726154290C,2023-09-26_23h04.11.610,WP_VExplicitOC_HL,2022.2.5,Win32,1.936025958,-100,5.633,2.236,NA,NA,NA,NA,NA,frustrated,"frustrated, not frustrated","more frustrated, less frustrated",NA,NA,NA,NA,NA,NA,NA,NA,NA,NA,NA,NA,NA,NA,NA,NA,NA,NA,NA,NA,NA,NA,NA,NA,NA,NA,NA,NA,NA,NA,NA,NA,NA,NA,NA,NA,NA,NA,0,0,0,1,1,NA,NA,NA,NA,NA
SUPAMT75168,NA,D26E50EA-6E79-48AD-84FE-96726154290C,2023-09-26_23h04.11.610,WP_VExplicitOC_HL,2022.2.5,Win32,1.936025958,-100,5.583,2.235,NA,NA,NA,NA,NA,happy,"unhappy, happy","less happy, more happy",NA,NA,NA,NA,NA,NA,NA,NA,NA,NA,NA,NA,NA,NA,NA,NA,NA,NA,NA,NA,NA,NA,NA,NA,NA,NA,NA,NA,NA,NA,NA,NA,NA,NA,NA,NA,NA,NA,0,1,1,0,1,NA,NA,NA,NA,NA
SUPAMT75168,NA,D26E50EA-6E79-48AD-84FE-96726154290C,2023-09-26_23h04.11.610,WP_VExplicitOC_HL,2022.2.5,Win32,1.936025958,-100,6.202,2.269,NA,NA,NA,NA,NA,bored,"bored, not bored","more bored, less bored",NA,NA,NA,NA,NA,NA,NA,NA,NA,NA,NA,NA,NA,NA,NA,NA,NA,NA,NA,NA,NA,NA,NA,NA,NA,NA,NA,NA,NA,NA,NA,NA,NA,NA,NA,NA,NA,NA,0,2,2,2,1,NA,NA,NA,NA,NA
SUPAMT75168,NA,D26E50EA-6E79-48AD-84FE-96726154290C,2023-09-26_23h04.11.610,WP_VExplicitOC_HL,2022.2.5,Win32,1.936025958,NA,NA,NA,NA,NA,NA,NA,NA,NA,NA,NA,NA,NA,NA,NA,NA,NA,NA,NA,NA,NA,NA,NA,NA,NA,NA,NA,NA,NA,NA,NA,NA,NA,NA,NA,NA,NA,NA,NA,NA,NA,NA,NA,NA,NA,NA,NA,NA,NA,NA,NA,NA,NA,NA,14,0,14,0,1
SUPAMT75168,NA,D26E50EA-6E79-48AD-84FE-96726154290C,2023-09-26_23h04.11.610,WP_VExplicitOC_HL,2022.2.5,Win32,1.936025958,NA,NA,NA,NA,NA,NA,NA,NA,NA,NA,NA,NA,NA,NA,NA,NA,NA,NA,NA,NA,NA,NA,NA,NA,NA,NA,NA,NA,NA,NA,NA,NA,NA,NA,NA,NA,NA,NA,NA,NA,NA,NA,NA,NA,NA,NA,NA,NA,NA,NA,NA,NA,NA,NA,NA,NA,NA,NA,NA
