participant,session,completion,date,expName,psychopyVersion,OS,frameRate,rating_all.response,rating_all.rt,rating_all.tStart,rndRat1.thisRepN,rndRat1.thisTrialN,rndRat1.thisN,rndRat1.thisIndex,rndRat1.ran,Emo,Labs,Labs2,rating_alt.response,rating_alt.rt,AltC.thisRepN,AltC.thisTrialN,AltC.thisN,AltC.thisIndex,AltC.ran,alt_choices,pic_choices,BottomAlt_Choice,rndRat2.thisRepN,rndRat2.thisTrialN,rndRat2.thisN,rndRat2.thisIndex,rndRat2.ran,rndRat3.thisRepN,rndRat3.thisTrialN,rndRat3.thisN,rndRat3.thisIndex,rndRat3.ran,trials_FC_L.thisRepN,trials_FC_L.thisTrialN,trials_FC_L.thisN,trials_FC_L.thisIndex,trials_FC_L.ran,rating_alt_2.response,rating_alt_2.rt,AltC2.thisRepN,AltC2.thisTrialN,AltC2.thisN,AltC2.thisIndex,AltC2.ran,TopAlt_Choice,rndRat4.thisRepN,rndRat4.thisTrialN,rndRat4.thisN,rndRat4.thisIndex,rndRat4.ran,rndRat5.thisRepN,rndRat5.thisTrialN,rndRat5.thisN,rndRat5.thisIndex,rndRat5.ran,trials_FC_H.thisRepN,trials_FC_H.thisTrialN,trials_FC_H.thisN,trials_FC_H.thisIndex,trials_FC_H.ran
SUPAMT99469,33JKGHPFYITE7HTX88LAZ8V65WNNMW,52831CBA-30C7-4E0F-B72A-0EF9462F2A12,2023-09-29_02h01.03.578,WP_VExplicitOC_LH,2022.2.5,Win32,7.970223246,NA,NA,NA,NA,NA,NA,NA,NA,NA,NA,NA,NA,NA,NA,NA,NA,NA,NA,NA,NA,NA,NA,NA,NA,NA,NA,NA,NA,NA,NA,NA,NA,NA,NA,NA,NA,NA,NA,NA,NA,NA,NA,NA,NA,NA,NA,NA,NA,NA,NA,NA,NA,NA,NA,NA,NA,NA,NA,NA
SUPAMT99469,33JKGHPFYITE7HTX88LAZ8V65WNNMW,52831CBA-30C7-4E0F-B72A-0EF9462F2A12,2023-09-29_02h01.03.578,WP_VExplicitOC_LH,2022.2.5,Win32,7.970223246,NA,NA,NA,NA,NA,NA,NA,NA,NA,NA,NA,NA,NA,NA,NA,NA,NA,NA,NA,NA,NA,NA,NA,NA,NA,NA,NA,NA,NA,NA,NA,NA,NA,NA,NA,NA,NA,NA,NA,NA,NA,NA,NA,NA,NA,NA,NA,NA,NA,NA,NA,NA,NA,NA,NA,NA,NA,NA,NA
SUPAMT99469,33JKGHPFYITE7HTX88LAZ8V65WNNMW,52831CBA-30C7-4E0F-B72A-0EF9462F2A12,2023-09-29_02h01.03.578,WP_VExplicitOC_LH,2022.2.5,Win32,7.970223246,NA,NA,NA,NA,NA,NA,NA,NA,NA,NA,NA,NA,NA,NA,NA,NA,NA,NA,NA,NA,NA,NA,NA,NA,NA,NA,NA,NA,NA,NA,NA,NA,NA,NA,NA,NA,NA,NA,NA,NA,NA,NA,NA,NA,NA,NA,NA,NA,NA,NA,NA,NA,NA,NA,NA,NA,NA,NA,NA
SUPAMT99469,33JKGHPFYITE7HTX88LAZ8V65WNNMW,52831CBA-30C7-4E0F-B72A-0EF9462F2A12,2023-09-29_02h01.03.578,WP_VExplicitOC_LH,2022.2.5,Win32,7.970223246,100,4.5428,2.0654,0,0,0,1,1,frustrated,"frustrated, not frustrated","more frustrated, less frustrated",NA,NA,NA,NA,NA,NA,NA,NA,NA,NA,NA,NA,NA,NA,NA,NA,NA,NA,NA,NA,NA,NA,NA,NA,NA,NA,NA,NA,NA,NA,NA,NA,NA,NA,NA,NA,NA,NA,NA,NA,NA,NA,NA,NA,NA,NA,NA,NA
SUPAMT99469,33JKGHPFYITE7HTX88LAZ8V65WNNMW,52831CBA-30C7-4E0F-B72A-0EF9462F2A12,2023-09-29_02h01.03.578,WP_VExplicitOC_LH,2022.2.5,Win32,7.970223246,100,4.034,2.0387,0,1,1,2,1,bored,"bored, not bored","more bored, less bored",NA,NA,NA,NA,NA,NA,NA,NA,NA,NA,NA,NA,NA,NA,NA,NA,NA,NA,NA,NA,NA,NA,NA,NA,NA,NA,NA,NA,NA,NA,NA,NA,NA,NA,NA,NA,NA,NA,NA,NA,NA,NA,NA,NA,NA,NA,NA,NA
SUPAMT99469,33JKGHPFYITE7HTX88LAZ8V65WNNMW,52831CBA-30C7-4E0F-B72A-0EF9462F2A12,2023-09-29_02h01.03.578,WP_VExplicitOC_LH,2022.2.5,Win32,7.970223246,100,3.9097,2.0721,0,2,2,0,1,happy,"unhappy, happy","less happy, more happy",NA,NA,NA,NA,NA,NA,NA,NA,NA,NA,NA,NA,NA,NA,NA,NA,NA,NA,NA,NA,NA,NA,NA,NA,NA,NA,NA,NA,NA,NA,NA,NA,NA,NA,NA,NA,NA,NA,NA,NA,NA,NA,NA,NA,NA,NA,NA,NA
SUPAMT99469,33JKGHPFYITE7HTX88LAZ8V65WNNMW,52831CBA-30C7-4E0F-B72A-0EF9462F2A12,2023-09-29_02h01.03.578,WP_VExplicitOC_LH,2022.2.5,Win32,7.970223246,NA,NA,NA,NA,NA,NA,NA,NA,NA,NA,NA,NA,NA,NA,NA,NA,NA,NA,NA,NA,NA,NA,NA,NA,NA,NA,NA,NA,NA,NA,NA,NA,NA,NA,NA,NA,NA,NA,NA,NA,NA,NA,NA,NA,NA,NA,NA,NA,NA,NA,NA,NA,NA,NA,NA,NA,NA,NA,NA
SUPAMT99469,33JKGHPFYITE7HTX88LAZ8V65WNNMW,52831CBA-30C7-4E0F-B72A-0EF9462F2A12,2023-09-29_02h01.03.578,WP_VExplicitOC_LH,2022.2.5,Win32,7.970223246,NA,NA,NA,NA,NA,NA,NA,NA,NA,NA,NA,NA,NA,NA,NA,NA,NA,NA,NA,NA,NA,NA,NA,NA,NA,NA,NA,NA,NA,NA,NA,NA,NA,NA,NA,NA,NA,NA,NA,NA,NA,NA,NA,NA,NA,NA,NA,NA,NA,NA,NA,NA,NA,NA,NA,NA,NA,NA,NA
SUPAMT99469,33JKGHPFYITE7HTX88LAZ8V65WNNMW,52831CBA-30C7-4E0F-B72A-0EF9462F2A12,2023-09-29_02h01.03.578,WP_VExplicitOC_LH,2022.2.5,Win32,7.970223246,NA,NA,NA,NA,NA,NA,NA,NA,NA,NA,NA,NA,NA,NA,NA,NA,NA,NA,NA,NA,NA,NA,NA,NA,NA,NA,NA,NA,NA,NA,NA,NA,NA,NA,NA,NA,NA,NA,NA,NA,NA,NA,NA,NA,NA,NA,NA,NA,NA,NA,NA,NA,NA,NA,NA,NA,NA,NA,NA
SUPAMT99469,33JKGHPFYITE7HTX88LAZ8V65WNNMW,52831CBA-30C7-4E0F-B72A-0EF9462F2A12,2023-09-29_02h01.03.578,WP_VExplicitOC_LH,2022.2.5,Win32,7.970223246,NA,NA,NA,NA,NA,NA,NA,NA,NA,NA,NA,NA,NA,NA,NA,NA,NA,NA,NA,NA,NA,NA,NA,NA,NA,NA,NA,NA,NA,NA,NA,NA,NA,NA,NA,NA,NA,NA,NA,NA,NA,NA,NA,NA,NA,NA,NA,NA,NA,NA,NA,NA,NA,NA,NA,NA,NA,NA,NA
SUPAMT99469,33JKGHPFYITE7HTX88LAZ8V65WNNMW,52831CBA-30C7-4E0F-B72A-0EF9462F2A12,2023-09-29_02h01.03.578,WP_VExplicitOC_LH,2022.2.5,Win32,7.970223246,NA,NA,NA,NA,NA,NA,NA,NA,NA,NA,NA,67.5,2.4501,0,0,0,0,1,rest (looking at a fixed cross),001.png,NA,NA,NA,NA,NA,NA,NA,NA,NA,NA,NA,NA,NA,NA,NA,NA,NA,NA,NA,NA,NA,NA,NA,NA,NA,NA,NA,NA,NA,NA,NA,NA,NA,NA,NA,NA,NA,NA,NA
SUPAMT99469,33JKGHPFYITE7HTX88LAZ8V65WNNMW,52831CBA-30C7-4E0F-B72A-0EF9462F2A12,2023-09-29_02h01.03.578,WP_VExplicitOC_LH,2022.2.5,Win32,7.970223246,NA,NA,NA,NA,NA,NA,NA,NA,NA,NA,NA,67.75,1.5315,0,1,1,1,1,stand up,002.png,NA,NA,NA,NA,NA,NA,NA,NA,NA,NA,NA,NA,NA,NA,NA,NA,NA,NA,NA,NA,NA,NA,NA,NA,NA,NA,NA,NA,NA,NA,NA,NA,NA,NA,NA,NA,NA,NA,NA
SUPAMT99469,33JKGHPFYITE7HTX88LAZ8V65WNNMW,52831CBA-30C7-4E0F-B72A-0EF9462F2A12,2023-09-29_02h01.03.578,WP_VExplicitOC_LH,2022.2.5,Win32,7.970223246,NA,NA,NA,NA,NA,NA,NA,NA,NA,NA,NA,39.5,1.3328,0,2,2,2,1,stretch,003.png,NA,NA,NA,NA,NA,NA,NA,NA,NA,NA,NA,NA,NA,NA,NA,NA,NA,NA,NA,NA,NA,NA,NA,NA,NA,NA,NA,NA,NA,NA,NA,NA,NA,NA,NA,NA,NA,NA,NA
SUPAMT99469,33JKGHPFYITE7HTX88LAZ8V65WNNMW,52831CBA-30C7-4E0F-B72A-0EF9462F2A12,2023-09-29_02h01.03.578,WP_VExplicitOC_LH,2022.2.5,Win32,7.970223246,NA,NA,NA,NA,NA,NA,NA,NA,NA,NA,NA,46.75,1.4456,0,3,3,3,1,make a drink,004.png,NA,NA,NA,NA,NA,NA,NA,NA,NA,NA,NA,NA,NA,NA,NA,NA,NA,NA,NA,NA,NA,NA,NA,NA,NA,NA,NA,NA,NA,NA,NA,NA,NA,NA,NA,NA,NA,NA,NA
SUPAMT99469,33JKGHPFYITE7HTX88LAZ8V65WNNMW,52831CBA-30C7-4E0F-B72A-0EF9462F2A12,2023-09-29_02h01.03.578,WP_VExplicitOC_LH,2022.2.5,Win32,7.970223246,NA,NA,NA,NA,NA,NA,NA,NA,NA,NA,NA,98,2.4897,0,4,4,4,1,scroll social media,005.png,NA,NA,NA,NA,NA,NA,NA,NA,NA,NA,NA,NA,NA,NA,NA,NA,NA,NA,NA,NA,NA,NA,NA,NA,NA,NA,NA,NA,NA,NA,NA,NA,NA,NA,NA,NA,NA,NA,NA
SUPAMT99469,33JKGHPFYITE7HTX88LAZ8V65WNNMW,52831CBA-30C7-4E0F-B72A-0EF9462F2A12,2023-09-29_02h01.03.578,WP_VExplicitOC_LH,2022.2.5,Win32,7.970223246,NA,NA,NA,NA,NA,NA,NA,NA,NA,NA,NA,66.5,1.931,0,5,5,5,1,listen to music,006.png,NA,NA,NA,NA,NA,NA,NA,NA,NA,NA,NA,NA,NA,NA,NA,NA,NA,NA,NA,NA,NA,NA,NA,NA,NA,NA,NA,NA,NA,NA,NA,NA,NA,NA,NA,NA,NA,NA,NA
SUPAMT99469,33JKGHPFYITE7HTX88LAZ8V65WNNMW,52831CBA-30C7-4E0F-B72A-0EF9462F2A12,2023-09-29_02h01.03.578,WP_VExplicitOC_LH,2022.2.5,Win32,7.970223246,NA,NA,NA,NA,NA,NA,NA,NA,NA,NA,NA,45.25,1.5251,0,6,6,6,1,daydream,007.png,NA,NA,NA,NA,NA,NA,NA,NA,NA,NA,NA,NA,NA,NA,NA,NA,NA,NA,NA,NA,NA,NA,NA,NA,NA,NA,NA,NA,NA,NA,NA,NA,NA,NA,NA,NA,NA,NA,NA
SUPAMT99469,33JKGHPFYITE7HTX88LAZ8V65WNNMW,52831CBA-30C7-4E0F-B72A-0EF9462F2A12,2023-09-29_02h01.03.578,WP_VExplicitOC_LH,2022.2.5,Win32,7.970223246,NA,NA,NA,NA,NA,NA,NA,NA,NA,NA,NA,58.5,1.419,0,7,7,7,1,watch a short animation,008.png,NA,NA,NA,NA,NA,NA,NA,NA,NA,NA,NA,NA,NA,NA,NA,NA,NA,NA,NA,NA,NA,NA,NA,NA,NA,NA,NA,NA,NA,NA,NA,NA,NA,NA,NA,NA,NA,NA,NA
SUPAMT99469,33JKGHPFYITE7HTX88LAZ8V65WNNMW,52831CBA-30C7-4E0F-B72A-0EF9462F2A12,2023-09-29_02h01.03.578,WP_VExplicitOC_LH,2022.2.5,Win32,7.970223246,NA,NA,NA,NA,NA,NA,NA,NA,NA,NA,NA,96,1.7653,0,8,8,8,1,read a novel,009.png,NA,NA,NA,NA,NA,NA,NA,NA,NA,NA,NA,NA,NA,NA,NA,NA,NA,NA,NA,NA,NA,NA,NA,NA,NA,NA,NA,NA,NA,NA,NA,NA,NA,NA,NA,NA,NA,NA,NA
SUPAMT99469,33JKGHPFYITE7HTX88LAZ8V65WNNMW,52831CBA-30C7-4E0F-B72A-0EF9462F2A12,2023-09-29_02h01.03.578,WP_VExplicitOC_LH,2022.2.5,Win32,7.970223246,NA,NA,NA,NA,NA,NA,NA,NA,NA,NA,NA,100,1.5596,0,9,9,9,1,read the news,010.png,NA,NA,NA,NA,NA,NA,NA,NA,NA,NA,NA,NA,NA,NA,NA,NA,NA,NA,NA,NA,NA,NA,NA,NA,NA,NA,NA,NA,NA,NA,NA,NA,NA,NA,NA,NA,NA,NA,NA
SUPAMT99469,33JKGHPFYITE7HTX88LAZ8V65WNNMW,52831CBA-30C7-4E0F-B72A-0EF9462F2A12,2023-09-29_02h01.03.578,WP_VExplicitOC_LH,2022.2.5,Win32,7.970223246,NA,NA,NA,NA,NA,NA,NA,NA,NA,NA,NA,NA,NA,NA,NA,NA,NA,NA,NA,NA,NA,NA,NA,NA,NA,NA,NA,NA,NA,NA,NA,NA,NA,NA,NA,NA,NA,NA,NA,NA,NA,NA,NA,NA,NA,NA,NA,NA,NA,NA,NA,NA,NA,NA,NA,NA,NA,NA,NA
SUPAMT99469,33JKGHPFYITE7HTX88LAZ8V65WNNMW,52831CBA-30C7-4E0F-B72A-0EF9462F2A12,2023-09-29_02h01.03.578,WP_VExplicitOC_LH,2022.2.5,Win32,7.970223246,NA,NA,NA,NA,NA,NA,NA,NA,NA,NA,NA,NA,NA,NA,NA,NA,NA,NA,NA,NA,stretch,NA,NA,NA,NA,NA,NA,NA,NA,NA,NA,NA,NA,NA,NA,NA,NA,NA,NA,NA,NA,NA,NA,NA,NA,NA,NA,NA,NA,NA,NA,NA,NA,NA,NA,NA,NA,NA,NA
SUPAMT99469,33JKGHPFYITE7HTX88LAZ8V65WNNMW,52831CBA-30C7-4E0F-B72A-0EF9462F2A12,2023-09-29_02h01.03.578,WP_VExplicitOC_LH,2022.2.5,Win32,7.970223246,100,5.1968,2.0779,NA,NA,NA,NA,NA,happy,"unhappy, happy","less happy, more happy",NA,NA,NA,NA,NA,NA,NA,NA,NA,NA,0,0,0,0,1,NA,NA,NA,NA,NA,NA,NA,NA,NA,NA,NA,NA,NA,NA,NA,NA,NA,NA,NA,NA,NA,NA,NA,NA,NA,NA,NA,NA,NA,NA,NA,NA,NA
SUPAMT99469,33JKGHPFYITE7HTX88LAZ8V65WNNMW,52831CBA-30C7-4E0F-B72A-0EF9462F2A12,2023-09-29_02h01.03.578,WP_VExplicitOC_LH,2022.2.5,Win32,7.970223246,93.75,6.9646,2.1402,NA,NA,NA,NA,NA,frustrated,"frustrated, not frustrated","more frustrated, less frustrated",NA,NA,NA,NA,NA,NA,NA,NA,NA,NA,0,1,1,1,1,NA,NA,NA,NA,NA,NA,NA,NA,NA,NA,NA,NA,NA,NA,NA,NA,NA,NA,NA,NA,NA,NA,NA,NA,NA,NA,NA,NA,NA,NA,NA,NA,NA
SUPAMT99469,33JKGHPFYITE7HTX88LAZ8V65WNNMW,52831CBA-30C7-4E0F-B72A-0EF9462F2A12,2023-09-29_02h01.03.578,WP_VExplicitOC_LH,2022.2.5,Win32,7.970223246,100,3.6988,2.1266,NA,NA,NA,NA,NA,bored,"bored, not bored","more bored, less bored",NA,NA,NA,NA,NA,NA,NA,NA,NA,NA,0,2,2,2,1,NA,NA,NA,NA,NA,NA,NA,NA,NA,NA,NA,NA,NA,NA,NA,NA,NA,NA,NA,NA,NA,NA,NA,NA,NA,NA,NA,NA,NA,NA,NA,NA,NA
SUPAMT99469,33JKGHPFYITE7HTX88LAZ8V65WNNMW,52831CBA-30C7-4E0F-B72A-0EF9462F2A12,2023-09-29_02h01.03.578,WP_VExplicitOC_LH,2022.2.5,Win32,7.970223246,NA,NA,NA,NA,NA,NA,NA,NA,NA,NA,NA,NA,NA,NA,NA,NA,NA,NA,NA,NA,NA,NA,NA,NA,NA,NA,NA,NA,NA,NA,NA,NA,NA,NA,NA,NA,NA,NA,NA,NA,NA,NA,NA,NA,NA,NA,NA,NA,NA,NA,NA,NA,NA,NA,NA,NA,NA,NA,NA
SUPAMT99469,33JKGHPFYITE7HTX88LAZ8V65WNNMW,52831CBA-30C7-4E0F-B72A-0EF9462F2A12,2023-09-29_02h01.03.578,WP_VExplicitOC_LH,2022.2.5,Win32,7.970223246,NA,NA,NA,NA,NA,NA,NA,NA,NA,NA,NA,NA,NA,NA,NA,NA,NA,NA,NA,NA,NA,NA,NA,NA,NA,NA,NA,NA,NA,NA,NA,NA,NA,NA,NA,NA,NA,NA,NA,NA,NA,NA,NA,NA,NA,NA,NA,NA,NA,NA,NA,NA,NA,NA,NA,NA,NA,NA,NA
SUPAMT99469,33JKGHPFYITE7HTX88LAZ8V65WNNMW,52831CBA-30C7-4E0F-B72A-0EF9462F2A12,2023-09-29_02h01.03.578,WP_VExplicitOC_LH,2022.2.5,Win32,7.970223246,66.25,3.8878,2.115,NA,NA,NA,NA,NA,frustrated,"frustrated, not frustrated","more frustrated, less frustrated",NA,NA,NA,NA,NA,NA,NA,NA,NA,NA,NA,NA,NA,NA,NA,0,0,0,1,1,NA,NA,NA,NA,NA,NA,NA,NA,NA,NA,NA,NA,NA,NA,NA,NA,NA,NA,NA,NA,NA,NA,NA,NA,NA,NA,NA,NA
SUPAMT99469,33JKGHPFYITE7HTX88LAZ8V65WNNMW,52831CBA-30C7-4E0F-B72A-0EF9462F2A12,2023-09-29_02h01.03.578,WP_VExplicitOC_LH,2022.2.5,Win32,7.970223246,97.75,3.9554,2.0808,NA,NA,NA,NA,NA,happy,"unhappy, happy","less happy, more happy",NA,NA,NA,NA,NA,NA,NA,NA,NA,NA,NA,NA,NA,NA,NA,0,1,1,0,1,NA,NA,NA,NA,NA,NA,NA,NA,NA,NA,NA,NA,NA,NA,NA,NA,NA,NA,NA,NA,NA,NA,NA,NA,NA,NA,NA,NA
SUPAMT99469,33JKGHPFYITE7HTX88LAZ8V65WNNMW,52831CBA-30C7-4E0F-B72A-0EF9462F2A12,2023-09-29_02h01.03.578,WP_VExplicitOC_LH,2022.2.5,Win32,7.970223246,54,4.3187,2.1025,NA,NA,NA,NA,NA,bored,"bored, not bored","more bored, less bored",NA,NA,NA,NA,NA,NA,NA,NA,NA,NA,NA,NA,NA,NA,NA,0,2,2,2,1,NA,NA,NA,NA,NA,NA,NA,NA,NA,NA,NA,NA,NA,NA,NA,NA,NA,NA,NA,NA,NA,NA,NA,NA,NA,NA,NA,NA
SUPAMT99469,33JKGHPFYITE7HTX88LAZ8V65WNNMW,52831CBA-30C7-4E0F-B72A-0EF9462F2A12,2023-09-29_02h01.03.578,WP_VExplicitOC_LH,2022.2.5,Win32,7.970223246,NA,NA,NA,NA,NA,NA,NA,NA,NA,NA,NA,NA,NA,NA,NA,NA,NA,NA,NA,NA,NA,NA,NA,NA,NA,NA,NA,NA,NA,NA,NA,0,0,0,0,1,NA,NA,NA,NA,NA,NA,NA,NA,NA,NA,NA,NA,NA,NA,NA,NA,NA,NA,NA,NA,NA,NA,NA
SUPAMT99469,33JKGHPFYITE7HTX88LAZ8V65WNNMW,52831CBA-30C7-4E0F-B72A-0EF9462F2A12,2023-09-29_02h01.03.578,WP_VExplicitOC_LH,2022.2.5,Win32,7.970223246,68.75,4.2217,2.14,NA,NA,NA,NA,NA,frustrated,"frustrated, not frustrated","more frustrated, less frustrated",NA,NA,NA,NA,NA,NA,NA,NA,NA,NA,NA,NA,NA,NA,NA,0,0,0,1,1,NA,NA,NA,NA,NA,NA,NA,NA,NA,NA,NA,NA,NA,NA,NA,NA,NA,NA,NA,NA,NA,NA,NA,NA,NA,NA,NA,NA
SUPAMT99469,33JKGHPFYITE7HTX88LAZ8V65WNNMW,52831CBA-30C7-4E0F-B72A-0EF9462F2A12,2023-09-29_02h01.03.578,WP_VExplicitOC_LH,2022.2.5,Win32,7.970223246,100,3.4468,2.154,NA,NA,NA,NA,NA,happy,"unhappy, happy","less happy, more happy",NA,NA,NA,NA,NA,NA,NA,NA,NA,NA,NA,NA,NA,NA,NA,0,1,1,0,1,NA,NA,NA,NA,NA,NA,NA,NA,NA,NA,NA,NA,NA,NA,NA,NA,NA,NA,NA,NA,NA,NA,NA,NA,NA,NA,NA,NA
SUPAMT99469,33JKGHPFYITE7HTX88LAZ8V65WNNMW,52831CBA-30C7-4E0F-B72A-0EF9462F2A12,2023-09-29_02h01.03.578,WP_VExplicitOC_LH,2022.2.5,Win32,7.970223246,100,3.8973,2.1573,NA,NA,NA,NA,NA,bored,"bored, not bored","more bored, less bored",NA,NA,NA,NA,NA,NA,NA,NA,NA,NA,NA,NA,NA,NA,NA,0,2,2,2,1,NA,NA,NA,NA,NA,NA,NA,NA,NA,NA,NA,NA,NA,NA,NA,NA,NA,NA,NA,NA,NA,NA,NA,NA,NA,NA,NA,NA
SUPAMT99469,33JKGHPFYITE7HTX88LAZ8V65WNNMW,52831CBA-30C7-4E0F-B72A-0EF9462F2A12,2023-09-29_02h01.03.578,WP_VExplicitOC_LH,2022.2.5,Win32,7.970223246,NA,NA,NA,NA,NA,NA,NA,NA,NA,NA,NA,NA,NA,NA,NA,NA,NA,NA,NA,NA,NA,NA,NA,NA,NA,NA,NA,NA,NA,NA,NA,1,0,1,0,1,NA,NA,NA,NA,NA,NA,NA,NA,NA,NA,NA,NA,NA,NA,NA,NA,NA,NA,NA,NA,NA,NA,NA
SUPAMT99469,33JKGHPFYITE7HTX88LAZ8V65WNNMW,52831CBA-30C7-4E0F-B72A-0EF9462F2A12,2023-09-29_02h01.03.578,WP_VExplicitOC_LH,2022.2.5,Win32,7.970223246,52.75,3.9427,2.0042,NA,NA,NA,NA,NA,happy,"unhappy, happy","less happy, more happy",NA,NA,NA,NA,NA,NA,NA,NA,NA,NA,NA,NA,NA,NA,NA,0,0,0,0,1,NA,NA,NA,NA,NA,NA,NA,NA,NA,NA,NA,NA,NA,NA,NA,NA,NA,NA,NA,NA,NA,NA,NA,NA,NA,NA,NA,NA
SUPAMT99469,33JKGHPFYITE7HTX88LAZ8V65WNNMW,52831CBA-30C7-4E0F-B72A-0EF9462F2A12,2023-09-29_02h01.03.578,WP_VExplicitOC_LH,2022.2.5,Win32,7.970223246,73.5,4.0775,2.0561,NA,NA,NA,NA,NA,bored,"bored, not bored","more bored, less bored",NA,NA,NA,NA,NA,NA,NA,NA,NA,NA,NA,NA,NA,NA,NA,0,1,1,2,1,NA,NA,NA,NA,NA,NA,NA,NA,NA,NA,NA,NA,NA,NA,NA,NA,NA,NA,NA,NA,NA,NA,NA,NA,NA,NA,NA,NA
SUPAMT99469,33JKGHPFYITE7HTX88LAZ8V65WNNMW,52831CBA-30C7-4E0F-B72A-0EF9462F2A12,2023-09-29_02h01.03.578,WP_VExplicitOC_LH,2022.2.5,Win32,7.970223246,96.25,3.9159,2.1422,NA,NA,NA,NA,NA,frustrated,"frustrated, not frustrated","more frustrated, less frustrated",NA,NA,NA,NA,NA,NA,NA,NA,NA,NA,NA,NA,NA,NA,NA,0,2,2,1,1,NA,NA,NA,NA,NA,NA,NA,NA,NA,NA,NA,NA,NA,NA,NA,NA,NA,NA,NA,NA,NA,NA,NA,NA,NA,NA,NA,NA
SUPAMT99469,33JKGHPFYITE7HTX88LAZ8V65WNNMW,52831CBA-30C7-4E0F-B72A-0EF9462F2A12,2023-09-29_02h01.03.578,WP_VExplicitOC_LH,2022.2.5,Win32,7.970223246,NA,NA,NA,NA,NA,NA,NA,NA,NA,NA,NA,NA,NA,NA,NA,NA,NA,NA,NA,NA,NA,NA,NA,NA,NA,NA,NA,NA,NA,NA,NA,2,0,2,0,1,NA,NA,NA,NA,NA,NA,NA,NA,NA,NA,NA,NA,NA,NA,NA,NA,NA,NA,NA,NA,NA,NA,NA
SUPAMT99469,33JKGHPFYITE7HTX88LAZ8V65WNNMW,52831CBA-30C7-4E0F-B72A-0EF9462F2A12,2023-09-29_02h01.03.578,WP_VExplicitOC_LH,2022.2.5,Win32,7.970223246,79.5,4.6925,2.0146,NA,NA,NA,NA,NA,frustrated,"frustrated, not frustrated","more frustrated, less frustrated",NA,NA,NA,NA,NA,NA,NA,NA,NA,NA,NA,NA,NA,NA,NA,0,0,0,1,1,NA,NA,NA,NA,NA,NA,NA,NA,NA,NA,NA,NA,NA,NA,NA,NA,NA,NA,NA,NA,NA,NA,NA,NA,NA,NA,NA,NA
SUPAMT99469,33JKGHPFYITE7HTX88LAZ8V65WNNMW,52831CBA-30C7-4E0F-B72A-0EF9462F2A12,2023-09-29_02h01.03.578,WP_VExplicitOC_LH,2022.2.5,Win32,7.970223246,58.5,3.5082,2.0577,NA,NA,NA,NA,NA,happy,"unhappy, happy","less happy, more happy",NA,NA,NA,NA,NA,NA,NA,NA,NA,NA,NA,NA,NA,NA,NA,0,1,1,0,1,NA,NA,NA,NA,NA,NA,NA,NA,NA,NA,NA,NA,NA,NA,NA,NA,NA,NA,NA,NA,NA,NA,NA,NA,NA,NA,NA,NA
SUPAMT99469,33JKGHPFYITE7HTX88LAZ8V65WNNMW,52831CBA-30C7-4E0F-B72A-0EF9462F2A12,2023-09-29_02h01.03.578,WP_VExplicitOC_LH,2022.2.5,Win32,7.970223246,89,3.8975,2.005,NA,NA,NA,NA,NA,bored,"bored, not bored","more bored, less bored",NA,NA,NA,NA,NA,NA,NA,NA,NA,NA,NA,NA,NA,NA,NA,0,2,2,2,1,NA,NA,NA,NA,NA,NA,NA,NA,NA,NA,NA,NA,NA,NA,NA,NA,NA,NA,NA,NA,NA,NA,NA,NA,NA,NA,NA,NA
SUPAMT99469,33JKGHPFYITE7HTX88LAZ8V65WNNMW,52831CBA-30C7-4E0F-B72A-0EF9462F2A12,2023-09-29_02h01.03.578,WP_VExplicitOC_LH,2022.2.5,Win32,7.970223246,NA,NA,NA,NA,NA,NA,NA,NA,NA,NA,NA,NA,NA,NA,NA,NA,NA,NA,NA,NA,NA,NA,NA,NA,NA,NA,NA,NA,NA,NA,NA,3,0,3,0,1,NA,NA,NA,NA,NA,NA,NA,NA,NA,NA,NA,NA,NA,NA,NA,NA,NA,NA,NA,NA,NA,NA,NA
SUPAMT99469,33JKGHPFYITE7HTX88LAZ8V65WNNMW,52831CBA-30C7-4E0F-B72A-0EF9462F2A12,2023-09-29_02h01.03.578,WP_VExplicitOC_LH,2022.2.5,Win32,7.970223246,74.75,3.8587,2.0697,NA,NA,NA,NA,NA,bored,"bored, not bored","more bored, less bored",NA,NA,NA,NA,NA,NA,NA,NA,NA,NA,NA,NA,NA,NA,NA,0,0,0,2,1,NA,NA,NA,NA,NA,NA,NA,NA,NA,NA,NA,NA,NA,NA,NA,NA,NA,NA,NA,NA,NA,NA,NA,NA,NA,NA,NA,NA
SUPAMT99469,33JKGHPFYITE7HTX88LAZ8V65WNNMW,52831CBA-30C7-4E0F-B72A-0EF9462F2A12,2023-09-29_02h01.03.578,WP_VExplicitOC_LH,2022.2.5,Win32,7.970223246,100,3.5028,2.0265,NA,NA,NA,NA,NA,frustrated,"frustrated, not frustrated","more frustrated, less frustrated",NA,NA,NA,NA,NA,NA,NA,NA,NA,NA,NA,NA,NA,NA,NA,0,1,1,1,1,NA,NA,NA,NA,NA,NA,NA,NA,NA,NA,NA,NA,NA,NA,NA,NA,NA,NA,NA,NA,NA,NA,NA,NA,NA,NA,NA,NA
SUPAMT99469,33JKGHPFYITE7HTX88LAZ8V65WNNMW,52831CBA-30C7-4E0F-B72A-0EF9462F2A12,2023-09-29_02h01.03.578,WP_VExplicitOC_LH,2022.2.5,Win32,7.970223246,84,3.5769,2.0245,NA,NA,NA,NA,NA,happy,"unhappy, happy","less happy, more happy",NA,NA,NA,NA,NA,NA,NA,NA,NA,NA,NA,NA,NA,NA,NA,0,2,2,0,1,NA,NA,NA,NA,NA,NA,NA,NA,NA,NA,NA,NA,NA,NA,NA,NA,NA,NA,NA,NA,NA,NA,NA,NA,NA,NA,NA,NA
SUPAMT99469,33JKGHPFYITE7HTX88LAZ8V65WNNMW,52831CBA-30C7-4E0F-B72A-0EF9462F2A12,2023-09-29_02h01.03.578,WP_VExplicitOC_LH,2022.2.5,Win32,7.970223246,NA,NA,NA,NA,NA,NA,NA,NA,NA,NA,NA,NA,NA,NA,NA,NA,NA,NA,NA,NA,NA,NA,NA,NA,NA,NA,NA,NA,NA,NA,NA,4,0,4,0,1,NA,NA,NA,NA,NA,NA,NA,NA,NA,NA,NA,NA,NA,NA,NA,NA,NA,NA,NA,NA,NA,NA,NA
SUPAMT99469,33JKGHPFYITE7HTX88LAZ8V65WNNMW,52831CBA-30C7-4E0F-B72A-0EF9462F2A12,2023-09-29_02h01.03.578,WP_VExplicitOC_LH,2022.2.5,Win32,7.970223246,100,4.2073,2.0623,NA,NA,NA,NA,NA,happy,"unhappy, happy","less happy, more happy",NA,NA,NA,NA,NA,NA,NA,NA,NA,NA,NA,NA,NA,NA,NA,0,0,0,0,1,NA,NA,NA,NA,NA,NA,NA,NA,NA,NA,NA,NA,NA,NA,NA,NA,NA,NA,NA,NA,NA,NA,NA,NA,NA,NA,NA,NA
SUPAMT99469,33JKGHPFYITE7HTX88LAZ8V65WNNMW,52831CBA-30C7-4E0F-B72A-0EF9462F2A12,2023-09-29_02h01.03.578,WP_VExplicitOC_LH,2022.2.5,Win32,7.970223246,58.5,5.1471,2.0924,NA,NA,NA,NA,NA,frustrated,"frustrated, not frustrated","more frustrated, less frustrated",NA,NA,NA,NA,NA,NA,NA,NA,NA,NA,NA,NA,NA,NA,NA,0,1,1,1,1,NA,NA,NA,NA,NA,NA,NA,NA,NA,NA,NA,NA,NA,NA,NA,NA,NA,NA,NA,NA,NA,NA,NA,NA,NA,NA,NA,NA
SUPAMT99469,33JKGHPFYITE7HTX88LAZ8V65WNNMW,52831CBA-30C7-4E0F-B72A-0EF9462F2A12,2023-09-29_02h01.03.578,WP_VExplicitOC_LH,2022.2.5,Win32,7.970223246,95,4.9764,2.0479,NA,NA,NA,NA,NA,bored,"bored, not bored","more bored, less bored",NA,NA,NA,NA,NA,NA,NA,NA,NA,NA,NA,NA,NA,NA,NA,0,2,2,2,1,NA,NA,NA,NA,NA,NA,NA,NA,NA,NA,NA,NA,NA,NA,NA,NA,NA,NA,NA,NA,NA,NA,NA,NA,NA,NA,NA,NA
SUPAMT99469,33JKGHPFYITE7HTX88LAZ8V65WNNMW,52831CBA-30C7-4E0F-B72A-0EF9462F2A12,2023-09-29_02h01.03.578,WP_VExplicitOC_LH,2022.2.5,Win32,7.970223246,NA,NA,NA,NA,NA,NA,NA,NA,NA,NA,NA,NA,NA,NA,NA,NA,NA,NA,NA,NA,NA,NA,NA,NA,NA,NA,NA,NA,NA,NA,NA,5,0,5,0,1,NA,NA,NA,NA,NA,NA,NA,NA,NA,NA,NA,NA,NA,NA,NA,NA,NA,NA,NA,NA,NA,NA,NA
SUPAMT99469,33JKGHPFYITE7HTX88LAZ8V65WNNMW,52831CBA-30C7-4E0F-B72A-0EF9462F2A12,2023-09-29_02h01.03.578,WP_VExplicitOC_LH,2022.2.5,Win32,7.970223246,69.25,3.729,2.0245,NA,NA,NA,NA,NA,frustrated,"frustrated, not frustrated","more frustrated, less frustrated",NA,NA,NA,NA,NA,NA,NA,NA,NA,NA,NA,NA,NA,NA,NA,0,0,0,1,1,NA,NA,NA,NA,NA,NA,NA,NA,NA,NA,NA,NA,NA,NA,NA,NA,NA,NA,NA,NA,NA,NA,NA,NA,NA,NA,NA,NA
SUPAMT99469,33JKGHPFYITE7HTX88LAZ8V65WNNMW,52831CBA-30C7-4E0F-B72A-0EF9462F2A12,2023-09-29_02h01.03.578,WP_VExplicitOC_LH,2022.2.5,Win32,7.970223246,98.25,3.5083,2.0131,NA,NA,NA,NA,NA,happy,"unhappy, happy","less happy, more happy",NA,NA,NA,NA,NA,NA,NA,NA,NA,NA,NA,NA,NA,NA,NA,0,1,1,0,1,NA,NA,NA,NA,NA,NA,NA,NA,NA,NA,NA,NA,NA,NA,NA,NA,NA,NA,NA,NA,NA,NA,NA,NA,NA,NA,NA,NA
SUPAMT99469,33JKGHPFYITE7HTX88LAZ8V65WNNMW,52831CBA-30C7-4E0F-B72A-0EF9462F2A12,2023-09-29_02h01.03.578,WP_VExplicitOC_LH,2022.2.5,Win32,7.970223246,80.75,3.6713,2.0866,NA,NA,NA,NA,NA,bored,"bored, not bored","more bored, less bored",NA,NA,NA,NA,NA,NA,NA,NA,NA,NA,NA,NA,NA,NA,NA,0,2,2,2,1,NA,NA,NA,NA,NA,NA,NA,NA,NA,NA,NA,NA,NA,NA,NA,NA,NA,NA,NA,NA,NA,NA,NA,NA,NA,NA,NA,NA
SUPAMT99469,33JKGHPFYITE7HTX88LAZ8V65WNNMW,52831CBA-30C7-4E0F-B72A-0EF9462F2A12,2023-09-29_02h01.03.578,WP_VExplicitOC_LH,2022.2.5,Win32,7.970223246,NA,NA,NA,NA,NA,NA,NA,NA,NA,NA,NA,NA,NA,NA,NA,NA,NA,NA,NA,NA,NA,NA,NA,NA,NA,NA,NA,NA,NA,NA,NA,6,0,6,0,1,NA,NA,NA,NA,NA,NA,NA,NA,NA,NA,NA,NA,NA,NA,NA,NA,NA,NA,NA,NA,NA,NA,NA
SUPAMT99469,33JKGHPFYITE7HTX88LAZ8V65WNNMW,52831CBA-30C7-4E0F-B72A-0EF9462F2A12,2023-09-29_02h01.03.578,WP_VExplicitOC_LH,2022.2.5,Win32,7.970223246,88.25,3.8786,2.1941,NA,NA,NA,NA,NA,bored,"bored, not bored","more bored, less bored",NA,NA,NA,NA,NA,NA,NA,NA,NA,NA,NA,NA,NA,NA,NA,0,0,0,2,1,NA,NA,NA,NA,NA,NA,NA,NA,NA,NA,NA,NA,NA,NA,NA,NA,NA,NA,NA,NA,NA,NA,NA,NA,NA,NA,NA,NA
SUPAMT99469,33JKGHPFYITE7HTX88LAZ8V65WNNMW,52831CBA-30C7-4E0F-B72A-0EF9462F2A12,2023-09-29_02h01.03.578,WP_VExplicitOC_LH,2022.2.5,Win32,7.970223246,100,3.7765,2.0736,NA,NA,NA,NA,NA,frustrated,"frustrated, not frustrated","more frustrated, less frustrated",NA,NA,NA,NA,NA,NA,NA,NA,NA,NA,NA,NA,NA,NA,NA,0,1,1,1,1,NA,NA,NA,NA,NA,NA,NA,NA,NA,NA,NA,NA,NA,NA,NA,NA,NA,NA,NA,NA,NA,NA,NA,NA,NA,NA,NA,NA
SUPAMT99469,33JKGHPFYITE7HTX88LAZ8V65WNNMW,52831CBA-30C7-4E0F-B72A-0EF9462F2A12,2023-09-29_02h01.03.578,WP_VExplicitOC_LH,2022.2.5,Win32,7.970223246,72.5,3.4426,2.0738,NA,NA,NA,NA,NA,happy,"unhappy, happy","less happy, more happy",NA,NA,NA,NA,NA,NA,NA,NA,NA,NA,NA,NA,NA,NA,NA,0,2,2,0,1,NA,NA,NA,NA,NA,NA,NA,NA,NA,NA,NA,NA,NA,NA,NA,NA,NA,NA,NA,NA,NA,NA,NA,NA,NA,NA,NA,NA
SUPAMT99469,33JKGHPFYITE7HTX88LAZ8V65WNNMW,52831CBA-30C7-4E0F-B72A-0EF9462F2A12,2023-09-29_02h01.03.578,WP_VExplicitOC_LH,2022.2.5,Win32,7.970223246,NA,NA,NA,NA,NA,NA,NA,NA,NA,NA,NA,NA,NA,NA,NA,NA,NA,NA,NA,NA,NA,NA,NA,NA,NA,NA,NA,NA,NA,NA,NA,7,0,7,0,1,NA,NA,NA,NA,NA,NA,NA,NA,NA,NA,NA,NA,NA,NA,NA,NA,NA,NA,NA,NA,NA,NA,NA
SUPAMT99469,33JKGHPFYITE7HTX88LAZ8V65WNNMW,52831CBA-30C7-4E0F-B72A-0EF9462F2A12,2023-09-29_02h01.03.578,WP_VExplicitOC_LH,2022.2.5,Win32,7.970223246,79,5.7675,2.0417,NA,NA,NA,NA,NA,frustrated,"frustrated, not frustrated","more frustrated, less frustrated",NA,NA,NA,NA,NA,NA,NA,NA,NA,NA,NA,NA,NA,NA,NA,0,0,0,1,1,NA,NA,NA,NA,NA,NA,NA,NA,NA,NA,NA,NA,NA,NA,NA,NA,NA,NA,NA,NA,NA,NA,NA,NA,NA,NA,NA,NA
SUPAMT99469,33JKGHPFYITE7HTX88LAZ8V65WNNMW,52831CBA-30C7-4E0F-B72A-0EF9462F2A12,2023-09-29_02h01.03.578,WP_VExplicitOC_LH,2022.2.5,Win32,7.970223246,100,3.7986,2.115,NA,NA,NA,NA,NA,bored,"bored, not bored","more bored, less bored",NA,NA,NA,NA,NA,NA,NA,NA,NA,NA,NA,NA,NA,NA,NA,0,1,1,2,1,NA,NA,NA,NA,NA,NA,NA,NA,NA,NA,NA,NA,NA,NA,NA,NA,NA,NA,NA,NA,NA,NA,NA,NA,NA,NA,NA,NA
SUPAMT99469,33JKGHPFYITE7HTX88LAZ8V65WNNMW,52831CBA-30C7-4E0F-B72A-0EF9462F2A12,2023-09-29_02h01.03.578,WP_VExplicitOC_LH,2022.2.5,Win32,7.970223246,100,3.7253,2.0835,NA,NA,NA,NA,NA,happy,"unhappy, happy","less happy, more happy",NA,NA,NA,NA,NA,NA,NA,NA,NA,NA,NA,NA,NA,NA,NA,0,2,2,0,1,NA,NA,NA,NA,NA,NA,NA,NA,NA,NA,NA,NA,NA,NA,NA,NA,NA,NA,NA,NA,NA,NA,NA,NA,NA,NA,NA,NA
SUPAMT99469,33JKGHPFYITE7HTX88LAZ8V65WNNMW,52831CBA-30C7-4E0F-B72A-0EF9462F2A12,2023-09-29_02h01.03.578,WP_VExplicitOC_LH,2022.2.5,Win32,7.970223246,NA,NA,NA,NA,NA,NA,NA,NA,NA,NA,NA,NA,NA,NA,NA,NA,NA,NA,NA,NA,NA,NA,NA,NA,NA,NA,NA,NA,NA,NA,NA,8,0,8,0,1,NA,NA,NA,NA,NA,NA,NA,NA,NA,NA,NA,NA,NA,NA,NA,NA,NA,NA,NA,NA,NA,NA,NA
SUPAMT99469,33JKGHPFYITE7HTX88LAZ8V65WNNMW,52831CBA-30C7-4E0F-B72A-0EF9462F2A12,2023-09-29_02h01.03.578,WP_VExplicitOC_LH,2022.2.5,Win32,7.970223246,100,3.9414,2.0209,NA,NA,NA,NA,NA,frustrated,"frustrated, not frustrated","more frustrated, less frustrated",NA,NA,NA,NA,NA,NA,NA,NA,NA,NA,NA,NA,NA,NA,NA,0,0,0,1,1,NA,NA,NA,NA,NA,NA,NA,NA,NA,NA,NA,NA,NA,NA,NA,NA,NA,NA,NA,NA,NA,NA,NA,NA,NA,NA,NA,NA
SUPAMT99469,33JKGHPFYITE7HTX88LAZ8V65WNNMW,52831CBA-30C7-4E0F-B72A-0EF9462F2A12,2023-09-29_02h01.03.578,WP_VExplicitOC_LH,2022.2.5,Win32,7.970223246,57.75,3.5843,2.0234,NA,NA,NA,NA,NA,bored,"bored, not bored","more bored, less bored",NA,NA,NA,NA,NA,NA,NA,NA,NA,NA,NA,NA,NA,NA,NA,0,1,1,2,1,NA,NA,NA,NA,NA,NA,NA,NA,NA,NA,NA,NA,NA,NA,NA,NA,NA,NA,NA,NA,NA,NA,NA,NA,NA,NA,NA,NA
SUPAMT99469,33JKGHPFYITE7HTX88LAZ8V65WNNMW,52831CBA-30C7-4E0F-B72A-0EF9462F2A12,2023-09-29_02h01.03.578,WP_VExplicitOC_LH,2022.2.5,Win32,7.970223246,87.75,3.8908,2.1743,NA,NA,NA,NA,NA,happy,"unhappy, happy","less happy, more happy",NA,NA,NA,NA,NA,NA,NA,NA,NA,NA,NA,NA,NA,NA,NA,0,2,2,0,1,NA,NA,NA,NA,NA,NA,NA,NA,NA,NA,NA,NA,NA,NA,NA,NA,NA,NA,NA,NA,NA,NA,NA,NA,NA,NA,NA,NA
SUPAMT99469,33JKGHPFYITE7HTX88LAZ8V65WNNMW,52831CBA-30C7-4E0F-B72A-0EF9462F2A12,2023-09-29_02h01.03.578,WP_VExplicitOC_LH,2022.2.5,Win32,7.970223246,NA,NA,NA,NA,NA,NA,NA,NA,NA,NA,NA,NA,NA,NA,NA,NA,NA,NA,NA,NA,NA,NA,NA,NA,NA,NA,NA,NA,NA,NA,NA,9,0,9,0,1,NA,NA,NA,NA,NA,NA,NA,NA,NA,NA,NA,NA,NA,NA,NA,NA,NA,NA,NA,NA,NA,NA,NA
SUPAMT99469,33JKGHPFYITE7HTX88LAZ8V65WNNMW,52831CBA-30C7-4E0F-B72A-0EF9462F2A12,2023-09-29_02h01.03.578,WP_VExplicitOC_LH,2022.2.5,Win32,7.970223246,100,3.7526,2.0261,NA,NA,NA,NA,NA,frustrated,"frustrated, not frustrated","more frustrated, less frustrated",NA,NA,NA,NA,NA,NA,NA,NA,NA,NA,NA,NA,NA,NA,NA,0,0,0,1,1,NA,NA,NA,NA,NA,NA,NA,NA,NA,NA,NA,NA,NA,NA,NA,NA,NA,NA,NA,NA,NA,NA,NA,NA,NA,NA,NA,NA
SUPAMT99469,33JKGHPFYITE7HTX88LAZ8V65WNNMW,52831CBA-30C7-4E0F-B72A-0EF9462F2A12,2023-09-29_02h01.03.578,WP_VExplicitOC_LH,2022.2.5,Win32,7.970223246,75.5,5.2374,2.0382,NA,NA,NA,NA,NA,happy,"unhappy, happy","less happy, more happy",NA,NA,NA,NA,NA,NA,NA,NA,NA,NA,NA,NA,NA,NA,NA,0,1,1,0,1,NA,NA,NA,NA,NA,NA,NA,NA,NA,NA,NA,NA,NA,NA,NA,NA,NA,NA,NA,NA,NA,NA,NA,NA,NA,NA,NA,NA
SUPAMT99469,33JKGHPFYITE7HTX88LAZ8V65WNNMW,52831CBA-30C7-4E0F-B72A-0EF9462F2A12,2023-09-29_02h01.03.578,WP_VExplicitOC_LH,2022.2.5,Win32,7.970223246,100,3.9412,2.0899,NA,NA,NA,NA,NA,bored,"bored, not bored","more bored, less bored",NA,NA,NA,NA,NA,NA,NA,NA,NA,NA,NA,NA,NA,NA,NA,0,2,2,2,1,NA,NA,NA,NA,NA,NA,NA,NA,NA,NA,NA,NA,NA,NA,NA,NA,NA,NA,NA,NA,NA,NA,NA,NA,NA,NA,NA,NA
SUPAMT99469,33JKGHPFYITE7HTX88LAZ8V65WNNMW,52831CBA-30C7-4E0F-B72A-0EF9462F2A12,2023-09-29_02h01.03.578,WP_VExplicitOC_LH,2022.2.5,Win32,7.970223246,NA,NA,NA,NA,NA,NA,NA,NA,NA,NA,NA,NA,NA,NA,NA,NA,NA,NA,NA,NA,NA,NA,NA,NA,NA,NA,NA,NA,NA,NA,NA,10,0,10,0,1,NA,NA,NA,NA,NA,NA,NA,NA,NA,NA,NA,NA,NA,NA,NA,NA,NA,NA,NA,NA,NA,NA,NA
SUPAMT99469,33JKGHPFYITE7HTX88LAZ8V65WNNMW,52831CBA-30C7-4E0F-B72A-0EF9462F2A12,2023-09-29_02h01.03.578,WP_VExplicitOC_LH,2022.2.5,Win32,7.970223246,56.5,5.4461,2.1873,NA,NA,NA,NA,NA,happy,"unhappy, happy","less happy, more happy",NA,NA,NA,NA,NA,NA,NA,NA,NA,NA,NA,NA,NA,NA,NA,0,0,0,0,1,NA,NA,NA,NA,NA,NA,NA,NA,NA,NA,NA,NA,NA,NA,NA,NA,NA,NA,NA,NA,NA,NA,NA,NA,NA,NA,NA,NA
SUPAMT99469,33JKGHPFYITE7HTX88LAZ8V65WNNMW,52831CBA-30C7-4E0F-B72A-0EF9462F2A12,2023-09-29_02h01.03.578,WP_VExplicitOC_LH,2022.2.5,Win32,7.970223246,80.75,3.6206,2.0341,NA,NA,NA,NA,NA,frustrated,"frustrated, not frustrated","more frustrated, less frustrated",NA,NA,NA,NA,NA,NA,NA,NA,NA,NA,NA,NA,NA,NA,NA,0,1,1,1,1,NA,NA,NA,NA,NA,NA,NA,NA,NA,NA,NA,NA,NA,NA,NA,NA,NA,NA,NA,NA,NA,NA,NA,NA,NA,NA,NA,NA
SUPAMT99469,33JKGHPFYITE7HTX88LAZ8V65WNNMW,52831CBA-30C7-4E0F-B72A-0EF9462F2A12,2023-09-29_02h01.03.578,WP_VExplicitOC_LH,2022.2.5,Win32,7.970223246,92.5,3.5916,2.0575,NA,NA,NA,NA,NA,bored,"bored, not bored","more bored, less bored",NA,NA,NA,NA,NA,NA,NA,NA,NA,NA,NA,NA,NA,NA,NA,0,2,2,2,1,NA,NA,NA,NA,NA,NA,NA,NA,NA,NA,NA,NA,NA,NA,NA,NA,NA,NA,NA,NA,NA,NA,NA,NA,NA,NA,NA,NA
SUPAMT99469,33JKGHPFYITE7HTX88LAZ8V65WNNMW,52831CBA-30C7-4E0F-B72A-0EF9462F2A12,2023-09-29_02h01.03.578,WP_VExplicitOC_LH,2022.2.5,Win32,7.970223246,NA,NA,NA,NA,NA,NA,NA,NA,NA,NA,NA,NA,NA,NA,NA,NA,NA,NA,NA,NA,NA,NA,NA,NA,NA,NA,NA,NA,NA,NA,NA,11,0,11,0,1,NA,NA,NA,NA,NA,NA,NA,NA,NA,NA,NA,NA,NA,NA,NA,NA,NA,NA,NA,NA,NA,NA,NA
SUPAMT99469,33JKGHPFYITE7HTX88LAZ8V65WNNMW,52831CBA-30C7-4E0F-B72A-0EF9462F2A12,2023-09-29_02h01.03.578,WP_VExplicitOC_LH,2022.2.5,Win32,7.970223246,94.5,4.0849,2.0731,NA,NA,NA,NA,NA,frustrated,"frustrated, not frustrated","more frustrated, less frustrated",NA,NA,NA,NA,NA,NA,NA,NA,NA,NA,NA,NA,NA,NA,NA,0,0,0,1,1,NA,NA,NA,NA,NA,NA,NA,NA,NA,NA,NA,NA,NA,NA,NA,NA,NA,NA,NA,NA,NA,NA,NA,NA,NA,NA,NA,NA
SUPAMT99469,33JKGHPFYITE7HTX88LAZ8V65WNNMW,52831CBA-30C7-4E0F-B72A-0EF9462F2A12,2023-09-29_02h01.03.578,WP_VExplicitOC_LH,2022.2.5,Win32,7.970223246,67.5,3.4983,2.0322,NA,NA,NA,NA,NA,happy,"unhappy, happy","less happy, more happy",NA,NA,NA,NA,NA,NA,NA,NA,NA,NA,NA,NA,NA,NA,NA,0,1,1,0,1,NA,NA,NA,NA,NA,NA,NA,NA,NA,NA,NA,NA,NA,NA,NA,NA,NA,NA,NA,NA,NA,NA,NA,NA,NA,NA,NA,NA
SUPAMT99469,33JKGHPFYITE7HTX88LAZ8V65WNNMW,52831CBA-30C7-4E0F-B72A-0EF9462F2A12,2023-09-29_02h01.03.578,WP_VExplicitOC_LH,2022.2.5,Win32,7.970223246,100,3.5737,2.1234,NA,NA,NA,NA,NA,bored,"bored, not bored","more bored, less bored",NA,NA,NA,NA,NA,NA,NA,NA,NA,NA,NA,NA,NA,NA,NA,0,2,2,2,1,NA,NA,NA,NA,NA,NA,NA,NA,NA,NA,NA,NA,NA,NA,NA,NA,NA,NA,NA,NA,NA,NA,NA,NA,NA,NA,NA,NA
SUPAMT99469,33JKGHPFYITE7HTX88LAZ8V65WNNMW,52831CBA-30C7-4E0F-B72A-0EF9462F2A12,2023-09-29_02h01.03.578,WP_VExplicitOC_LH,2022.2.5,Win32,7.970223246,NA,NA,NA,NA,NA,NA,NA,NA,NA,NA,NA,NA,NA,NA,NA,NA,NA,NA,NA,NA,NA,NA,NA,NA,NA,NA,NA,NA,NA,NA,NA,12,0,12,0,1,NA,NA,NA,NA,NA,NA,NA,NA,NA,NA,NA,NA,NA,NA,NA,NA,NA,NA,NA,NA,NA,NA,NA
SUPAMT99469,33JKGHPFYITE7HTX88LAZ8V65WNNMW,52831CBA-30C7-4E0F-B72A-0EF9462F2A12,2023-09-29_02h01.03.578,WP_VExplicitOC_LH,2022.2.5,Win32,7.970223246,60,3.9364,2.086,NA,NA,NA,NA,NA,happy,"unhappy, happy","less happy, more happy",NA,NA,NA,NA,NA,NA,NA,NA,NA,NA,NA,NA,NA,NA,NA,0,0,0,0,1,NA,NA,NA,NA,NA,NA,NA,NA,NA,NA,NA,NA,NA,NA,NA,NA,NA,NA,NA,NA,NA,NA,NA,NA,NA,NA,NA,NA
SUPAMT99469,33JKGHPFYITE7HTX88LAZ8V65WNNMW,52831CBA-30C7-4E0F-B72A-0EF9462F2A12,2023-09-29_02h01.03.578,WP_VExplicitOC_LH,2022.2.5,Win32,7.970223246,98,3.8369,2.0441,NA,NA,NA,NA,NA,frustrated,"frustrated, not frustrated","more frustrated, less frustrated",NA,NA,NA,NA,NA,NA,NA,NA,NA,NA,NA,NA,NA,NA,NA,0,1,1,1,1,NA,NA,NA,NA,NA,NA,NA,NA,NA,NA,NA,NA,NA,NA,NA,NA,NA,NA,NA,NA,NA,NA,NA,NA,NA,NA,NA,NA
SUPAMT99469,33JKGHPFYITE7HTX88LAZ8V65WNNMW,52831CBA-30C7-4E0F-B72A-0EF9462F2A12,2023-09-29_02h01.03.578,WP_VExplicitOC_LH,2022.2.5,Win32,7.970223246,90.25,4.1312,2.1098,NA,NA,NA,NA,NA,bored,"bored, not bored","more bored, less bored",NA,NA,NA,NA,NA,NA,NA,NA,NA,NA,NA,NA,NA,NA,NA,0,2,2,2,1,NA,NA,NA,NA,NA,NA,NA,NA,NA,NA,NA,NA,NA,NA,NA,NA,NA,NA,NA,NA,NA,NA,NA,NA,NA,NA,NA,NA
SUPAMT99469,33JKGHPFYITE7HTX88LAZ8V65WNNMW,52831CBA-30C7-4E0F-B72A-0EF9462F2A12,2023-09-29_02h01.03.578,WP_VExplicitOC_LH,2022.2.5,Win32,7.970223246,NA,NA,NA,NA,NA,NA,NA,NA,NA,NA,NA,NA,NA,NA,NA,NA,NA,NA,NA,NA,NA,NA,NA,NA,NA,NA,NA,NA,NA,NA,NA,13,0,13,0,1,NA,NA,NA,NA,NA,NA,NA,NA,NA,NA,NA,NA,NA,NA,NA,NA,NA,NA,NA,NA,NA,NA,NA
SUPAMT99469,33JKGHPFYITE7HTX88LAZ8V65WNNMW,52831CBA-30C7-4E0F-B72A-0EF9462F2A12,2023-09-29_02h01.03.578,WP_VExplicitOC_LH,2022.2.5,Win32,7.970223246,73.25,3.9284,2.0031,NA,NA,NA,NA,NA,bored,"bored, not bored","more bored, less bored",NA,NA,NA,NA,NA,NA,NA,NA,NA,NA,NA,NA,NA,NA,NA,0,0,0,2,1,NA,NA,NA,NA,NA,NA,NA,NA,NA,NA,NA,NA,NA,NA,NA,NA,NA,NA,NA,NA,NA,NA,NA,NA,NA,NA,NA,NA
SUPAMT99469,33JKGHPFYITE7HTX88LAZ8V65WNNMW,52831CBA-30C7-4E0F-B72A-0EF9462F2A12,2023-09-29_02h01.03.578,WP_VExplicitOC_LH,2022.2.5,Win32,7.970223246,100,3.7671,2.2169,NA,NA,NA,NA,NA,happy,"unhappy, happy","less happy, more happy",NA,NA,NA,NA,NA,NA,NA,NA,NA,NA,NA,NA,NA,NA,NA,0,1,1,0,1,NA,NA,NA,NA,NA,NA,NA,NA,NA,NA,NA,NA,NA,NA,NA,NA,NA,NA,NA,NA,NA,NA,NA,NA,NA,NA,NA,NA
SUPAMT99469,33JKGHPFYITE7HTX88LAZ8V65WNNMW,52831CBA-30C7-4E0F-B72A-0EF9462F2A12,2023-09-29_02h01.03.578,WP_VExplicitOC_LH,2022.2.5,Win32,7.970223246,100,5.4545,2.1362,NA,NA,NA,NA,NA,frustrated,"frustrated, not frustrated","more frustrated, less frustrated",NA,NA,NA,NA,NA,NA,NA,NA,NA,NA,NA,NA,NA,NA,NA,0,2,2,1,1,NA,NA,NA,NA,NA,NA,NA,NA,NA,NA,NA,NA,NA,NA,NA,NA,NA,NA,NA,NA,NA,NA,NA,NA,NA,NA,NA,NA
SUPAMT99469,33JKGHPFYITE7HTX88LAZ8V65WNNMW,52831CBA-30C7-4E0F-B72A-0EF9462F2A12,2023-09-29_02h01.03.578,WP_VExplicitOC_LH,2022.2.5,Win32,7.970223246,NA,NA,NA,NA,NA,NA,NA,NA,NA,NA,NA,NA,NA,NA,NA,NA,NA,NA,NA,NA,NA,NA,NA,NA,NA,NA,NA,NA,NA,NA,NA,14,0,14,0,1,NA,NA,NA,NA,NA,NA,NA,NA,NA,NA,NA,NA,NA,NA,NA,NA,NA,NA,NA,NA,NA,NA,NA
SUPAMT99469,33JKGHPFYITE7HTX88LAZ8V65WNNMW,52831CBA-30C7-4E0F-B72A-0EF9462F2A12,2023-09-29_02h01.03.578,WP_VExplicitOC_LH,2022.2.5,Win32,7.970223246,NA,NA,NA,NA,NA,NA,NA,NA,NA,NA,NA,NA,NA,NA,NA,NA,NA,NA,NA,NA,NA,NA,NA,NA,NA,NA,NA,NA,NA,NA,NA,NA,NA,NA,NA,NA,NA,NA,NA,NA,NA,NA,NA,NA,NA,NA,NA,NA,NA,NA,NA,NA,NA,NA,NA,NA,NA,NA,NA
SUPAMT99469,33JKGHPFYITE7HTX88LAZ8V65WNNMW,52831CBA-30C7-4E0F-B72A-0EF9462F2A12,2023-09-29_02h01.03.578,WP_VExplicitOC_LH,2022.2.5,Win32,7.970223246,NA,NA,NA,NA,NA,NA,NA,NA,NA,NA,NA,NA,NA,NA,NA,NA,NA,NA,NA,NA,NA,NA,NA,NA,NA,NA,NA,NA,NA,NA,NA,NA,NA,NA,NA,NA,NA,NA,NA,NA,NA,NA,NA,NA,NA,NA,NA,NA,NA,NA,NA,NA,NA,NA,NA,NA,NA,NA,NA
SUPAMT99469,33JKGHPFYITE7HTX88LAZ8V65WNNMW,52831CBA-30C7-4E0F-B72A-0EF9462F2A12,2023-09-29_02h01.03.578,WP_VExplicitOC_LH,2022.2.5,Win32,7.970223246,NA,NA,NA,NA,NA,NA,NA,NA,NA,NA,NA,NA,NA,NA,NA,NA,NA,NA,rest (looking at a fixed cross),001.png,NA,NA,NA,NA,NA,NA,NA,NA,NA,NA,NA,NA,NA,NA,NA,NA,56.25,5.373,0,0,0,0,1,NA,NA,NA,NA,NA,NA,NA,NA,NA,NA,NA,NA,NA,NA,NA,NA
SUPAMT99469,33JKGHPFYITE7HTX88LAZ8V65WNNMW,52831CBA-30C7-4E0F-B72A-0EF9462F2A12,2023-09-29_02h01.03.578,WP_VExplicitOC_LH,2022.2.5,Win32,7.970223246,NA,NA,NA,NA,NA,NA,NA,NA,NA,NA,NA,NA,NA,NA,NA,NA,NA,NA,stand up,002.png,NA,NA,NA,NA,NA,NA,NA,NA,NA,NA,NA,NA,NA,NA,NA,NA,47,2.8097,0,1,1,1,1,NA,NA,NA,NA,NA,NA,NA,NA,NA,NA,NA,NA,NA,NA,NA,NA
SUPAMT99469,33JKGHPFYITE7HTX88LAZ8V65WNNMW,52831CBA-30C7-4E0F-B72A-0EF9462F2A12,2023-09-29_02h01.03.578,WP_VExplicitOC_LH,2022.2.5,Win32,7.970223246,NA,NA,NA,NA,NA,NA,NA,NA,NA,NA,NA,NA,NA,NA,NA,NA,NA,NA,stretch,003.png,NA,NA,NA,NA,NA,NA,NA,NA,NA,NA,NA,NA,NA,NA,NA,NA,44.25,1.5629,0,2,2,2,1,NA,NA,NA,NA,NA,NA,NA,NA,NA,NA,NA,NA,NA,NA,NA,NA
SUPAMT99469,33JKGHPFYITE7HTX88LAZ8V65WNNMW,52831CBA-30C7-4E0F-B72A-0EF9462F2A12,2023-09-29_02h01.03.578,WP_VExplicitOC_LH,2022.2.5,Win32,7.970223246,NA,NA,NA,NA,NA,NA,NA,NA,NA,NA,NA,NA,NA,NA,NA,NA,NA,NA,make a drink,004.png,NA,NA,NA,NA,NA,NA,NA,NA,NA,NA,NA,NA,NA,NA,NA,NA,61.25,1.6457,0,3,3,3,1,NA,NA,NA,NA,NA,NA,NA,NA,NA,NA,NA,NA,NA,NA,NA,NA
SUPAMT99469,33JKGHPFYITE7HTX88LAZ8V65WNNMW,52831CBA-30C7-4E0F-B72A-0EF9462F2A12,2023-09-29_02h01.03.578,WP_VExplicitOC_LH,2022.2.5,Win32,7.970223246,NA,NA,NA,NA,NA,NA,NA,NA,NA,NA,NA,NA,NA,NA,NA,NA,NA,NA,scroll social media,005.png,NA,NA,NA,NA,NA,NA,NA,NA,NA,NA,NA,NA,NA,NA,NA,NA,100,1.8193,0,4,4,4,1,NA,NA,NA,NA,NA,NA,NA,NA,NA,NA,NA,NA,NA,NA,NA,NA
SUPAMT99469,33JKGHPFYITE7HTX88LAZ8V65WNNMW,52831CBA-30C7-4E0F-B72A-0EF9462F2A12,2023-09-29_02h01.03.578,WP_VExplicitOC_LH,2022.2.5,Win32,7.970223246,NA,NA,NA,NA,NA,NA,NA,NA,NA,NA,NA,NA,NA,NA,NA,NA,NA,NA,listen to music,006.png,NA,NA,NA,NA,NA,NA,NA,NA,NA,NA,NA,NA,NA,NA,NA,NA,45,1.4971,0,5,5,5,1,NA,NA,NA,NA,NA,NA,NA,NA,NA,NA,NA,NA,NA,NA,NA,NA
SUPAMT99469,33JKGHPFYITE7HTX88LAZ8V65WNNMW,52831CBA-30C7-4E0F-B72A-0EF9462F2A12,2023-09-29_02h01.03.578,WP_VExplicitOC_LH,2022.2.5,Win32,7.970223246,NA,NA,NA,NA,NA,NA,NA,NA,NA,NA,NA,NA,NA,NA,NA,NA,NA,NA,daydream,007.png,NA,NA,NA,NA,NA,NA,NA,NA,NA,NA,NA,NA,NA,NA,NA,NA,51.75,1.3662,0,6,6,6,1,NA,NA,NA,NA,NA,NA,NA,NA,NA,NA,NA,NA,NA,NA,NA,NA
SUPAMT99469,33JKGHPFYITE7HTX88LAZ8V65WNNMW,52831CBA-30C7-4E0F-B72A-0EF9462F2A12,2023-09-29_02h01.03.578,WP_VExplicitOC_LH,2022.2.5,Win32,7.970223246,NA,NA,NA,NA,NA,NA,NA,NA,NA,NA,NA,NA,NA,NA,NA,NA,NA,NA,watch a short animation,008.png,NA,NA,NA,NA,NA,NA,NA,NA,NA,NA,NA,NA,NA,NA,NA,NA,65,1.5692,0,7,7,7,1,NA,NA,NA,NA,NA,NA,NA,NA,NA,NA,NA,NA,NA,NA,NA,NA
SUPAMT99469,33JKGHPFYITE7HTX88LAZ8V65WNNMW,52831CBA-30C7-4E0F-B72A-0EF9462F2A12,2023-09-29_02h01.03.578,WP_VExplicitOC_LH,2022.2.5,Win32,7.970223246,NA,NA,NA,NA,NA,NA,NA,NA,NA,NA,NA,NA,NA,NA,NA,NA,NA,NA,read a novel,009.png,NA,NA,NA,NA,NA,NA,NA,NA,NA,NA,NA,NA,NA,NA,NA,NA,100,1.6159,0,8,8,8,1,NA,NA,NA,NA,NA,NA,NA,NA,NA,NA,NA,NA,NA,NA,NA,NA
SUPAMT99469,33JKGHPFYITE7HTX88LAZ8V65WNNMW,52831CBA-30C7-4E0F-B72A-0EF9462F2A12,2023-09-29_02h01.03.578,WP_VExplicitOC_LH,2022.2.5,Win32,7.970223246,NA,NA,NA,NA,NA,NA,NA,NA,NA,NA,NA,NA,NA,NA,NA,NA,NA,NA,read the news,010.png,NA,NA,NA,NA,NA,NA,NA,NA,NA,NA,NA,NA,NA,NA,NA,NA,93.25,1.45,0,9,9,9,1,NA,NA,NA,NA,NA,NA,NA,NA,NA,NA,NA,NA,NA,NA,NA,NA
SUPAMT99469,33JKGHPFYITE7HTX88LAZ8V65WNNMW,52831CBA-30C7-4E0F-B72A-0EF9462F2A12,2023-09-29_02h01.03.578,WP_VExplicitOC_LH,2022.2.5,Win32,7.970223246,NA,NA,NA,NA,NA,NA,NA,NA,NA,NA,NA,NA,NA,NA,NA,NA,NA,NA,NA,NA,NA,NA,NA,NA,NA,NA,NA,NA,NA,NA,NA,NA,NA,NA,NA,NA,NA,NA,NA,NA,NA,NA,NA,scroll social media,NA,NA,NA,NA,NA,NA,NA,NA,NA,NA,NA,NA,NA,NA,NA
SUPAMT99469,33JKGHPFYITE7HTX88LAZ8V65WNNMW,52831CBA-30C7-4E0F-B72A-0EF9462F2A12,2023-09-29_02h01.03.578,WP_VExplicitOC_LH,2022.2.5,Win32,7.970223246,91.5,6.5365,2.056,NA,NA,NA,NA,NA,bored,"bored, not bored","more bored, less bored",NA,NA,NA,NA,NA,NA,NA,NA,NA,NA,NA,NA,NA,NA,NA,NA,NA,NA,NA,NA,NA,NA,NA,NA,NA,NA,NA,NA,NA,NA,NA,NA,NA,0,0,0,2,1,NA,NA,NA,NA,NA,NA,NA,NA,NA,NA
SUPAMT99469,33JKGHPFYITE7HTX88LAZ8V65WNNMW,52831CBA-30C7-4E0F-B72A-0EF9462F2A12,2023-09-29_02h01.03.578,WP_VExplicitOC_LH,2022.2.5,Win32,7.970223246,100,4.9234,2.0353,NA,NA,NA,NA,NA,happy,"unhappy, happy","less happy, more happy",NA,NA,NA,NA,NA,NA,NA,NA,NA,NA,NA,NA,NA,NA,NA,NA,NA,NA,NA,NA,NA,NA,NA,NA,NA,NA,NA,NA,NA,NA,NA,NA,NA,0,1,1,0,1,NA,NA,NA,NA,NA,NA,NA,NA,NA,NA
SUPAMT99469,33JKGHPFYITE7HTX88LAZ8V65WNNMW,52831CBA-30C7-4E0F-B72A-0EF9462F2A12,2023-09-29_02h01.03.578,WP_VExplicitOC_LH,2022.2.5,Win32,7.970223246,100,5.1696,2.2687,NA,NA,NA,NA,NA,frustrated,"frustrated, not frustrated","more frustrated, less frustrated",NA,NA,NA,NA,NA,NA,NA,NA,NA,NA,NA,NA,NA,NA,NA,NA,NA,NA,NA,NA,NA,NA,NA,NA,NA,NA,NA,NA,NA,NA,NA,NA,NA,0,2,2,1,1,NA,NA,NA,NA,NA,NA,NA,NA,NA,NA
SUPAMT99469,33JKGHPFYITE7HTX88LAZ8V65WNNMW,52831CBA-30C7-4E0F-B72A-0EF9462F2A12,2023-09-29_02h01.03.578,WP_VExplicitOC_LH,2022.2.5,Win32,7.970223246,NA,NA,NA,NA,NA,NA,NA,NA,NA,NA,NA,NA,NA,NA,NA,NA,NA,NA,NA,NA,NA,NA,NA,NA,NA,NA,NA,NA,NA,NA,NA,NA,NA,NA,NA,NA,NA,NA,NA,NA,NA,NA,NA,NA,NA,NA,NA,NA,NA,NA,NA,NA,NA,NA,NA,NA,NA,NA,NA
SUPAMT99469,33JKGHPFYITE7HTX88LAZ8V65WNNMW,52831CBA-30C7-4E0F-B72A-0EF9462F2A12,2023-09-29_02h01.03.578,WP_VExplicitOC_LH,2022.2.5,Win32,7.970223246,NA,NA,NA,NA,NA,NA,NA,NA,NA,NA,NA,NA,NA,NA,NA,NA,NA,NA,NA,NA,NA,NA,NA,NA,NA,NA,NA,NA,NA,NA,NA,NA,NA,NA,NA,NA,NA,NA,NA,NA,NA,NA,NA,NA,NA,NA,NA,NA,NA,NA,NA,NA,NA,NA,NA,NA,NA,NA,NA
SUPAMT99469,33JKGHPFYITE7HTX88LAZ8V65WNNMW,52831CBA-30C7-4E0F-B72A-0EF9462F2A12,2023-09-29_02h01.03.578,WP_VExplicitOC_LH,2022.2.5,Win32,7.970223246,65.25,3.7625,2.0286,NA,NA,NA,NA,NA,frustrated,"frustrated, not frustrated","more frustrated, less frustrated",NA,NA,NA,NA,NA,NA,NA,NA,NA,NA,NA,NA,NA,NA,NA,NA,NA,NA,NA,NA,NA,NA,NA,NA,NA,NA,NA,NA,NA,NA,NA,NA,NA,NA,NA,NA,NA,NA,0,0,0,1,1,NA,NA,NA,NA,NA
SUPAMT99469,33JKGHPFYITE7HTX88LAZ8V65WNNMW,52831CBA-30C7-4E0F-B72A-0EF9462F2A12,2023-09-29_02h01.03.578,WP_VExplicitOC_LH,2022.2.5,Win32,7.970223246,73.25,3.5983,2.0831,NA,NA,NA,NA,NA,happy,"unhappy, happy","less happy, more happy",NA,NA,NA,NA,NA,NA,NA,NA,NA,NA,NA,NA,NA,NA,NA,NA,NA,NA,NA,NA,NA,NA,NA,NA,NA,NA,NA,NA,NA,NA,NA,NA,NA,NA,NA,NA,NA,NA,0,1,1,0,1,NA,NA,NA,NA,NA
SUPAMT99469,33JKGHPFYITE7HTX88LAZ8V65WNNMW,52831CBA-30C7-4E0F-B72A-0EF9462F2A12,2023-09-29_02h01.03.578,WP_VExplicitOC_LH,2022.2.5,Win32,7.970223246,91.5,3.7226,2.053,NA,NA,NA,NA,NA,bored,"bored, not bored","more bored, less bored",NA,NA,NA,NA,NA,NA,NA,NA,NA,NA,NA,NA,NA,NA,NA,NA,NA,NA,NA,NA,NA,NA,NA,NA,NA,NA,NA,NA,NA,NA,NA,NA,NA,NA,NA,NA,NA,NA,0,2,2,2,1,NA,NA,NA,NA,NA
SUPAMT99469,33JKGHPFYITE7HTX88LAZ8V65WNNMW,52831CBA-30C7-4E0F-B72A-0EF9462F2A12,2023-09-29_02h01.03.578,WP_VExplicitOC_LH,2022.2.5,Win32,7.970223246,NA,NA,NA,NA,NA,NA,NA,NA,NA,NA,NA,NA,NA,NA,NA,NA,NA,NA,NA,NA,NA,NA,NA,NA,NA,NA,NA,NA,NA,NA,NA,NA,NA,NA,NA,NA,NA,NA,NA,NA,NA,NA,NA,NA,NA,NA,NA,NA,NA,NA,NA,NA,NA,NA,0,0,0,0,1
SUPAMT99469,33JKGHPFYITE7HTX88LAZ8V65WNNMW,52831CBA-30C7-4E0F-B72A-0EF9462F2A12,2023-09-29_02h01.03.578,WP_VExplicitOC_LH,2022.2.5,Win32,7.970223246,71,6.8061,2.1237,NA,NA,NA,NA,NA,bored,"bored, not bored","more bored, less bored",NA,NA,NA,NA,NA,NA,NA,NA,NA,NA,NA,NA,NA,NA,NA,NA,NA,NA,NA,NA,NA,NA,NA,NA,NA,NA,NA,NA,NA,NA,NA,NA,NA,NA,NA,NA,NA,NA,0,0,0,2,1,NA,NA,NA,NA,NA
SUPAMT99469,33JKGHPFYITE7HTX88LAZ8V65WNNMW,52831CBA-30C7-4E0F-B72A-0EF9462F2A12,2023-09-29_02h01.03.578,WP_VExplicitOC_LH,2022.2.5,Win32,7.970223246,76.25,4.3173,2.0975,NA,NA,NA,NA,NA,frustrated,"frustrated, not frustrated","more frustrated, less frustrated",NA,NA,NA,NA,NA,NA,NA,NA,NA,NA,NA,NA,NA,NA,NA,NA,NA,NA,NA,NA,NA,NA,NA,NA,NA,NA,NA,NA,NA,NA,NA,NA,NA,NA,NA,NA,NA,NA,0,1,1,1,1,NA,NA,NA,NA,NA
SUPAMT99469,33JKGHPFYITE7HTX88LAZ8V65WNNMW,52831CBA-30C7-4E0F-B72A-0EF9462F2A12,2023-09-29_02h01.03.578,WP_VExplicitOC_LH,2022.2.5,Win32,7.970223246,92.25,3.7613,2.004,NA,NA,NA,NA,NA,happy,"unhappy, happy","less happy, more happy",NA,NA,NA,NA,NA,NA,NA,NA,NA,NA,NA,NA,NA,NA,NA,NA,NA,NA,NA,NA,NA,NA,NA,NA,NA,NA,NA,NA,NA,NA,NA,NA,NA,NA,NA,NA,NA,NA,0,2,2,0,1,NA,NA,NA,NA,NA
SUPAMT99469,33JKGHPFYITE7HTX88LAZ8V65WNNMW,52831CBA-30C7-4E0F-B72A-0EF9462F2A12,2023-09-29_02h01.03.578,WP_VExplicitOC_LH,2022.2.5,Win32,7.970223246,NA,NA,NA,NA,NA,NA,NA,NA,NA,NA,NA,NA,NA,NA,NA,NA,NA,NA,NA,NA,NA,NA,NA,NA,NA,NA,NA,NA,NA,NA,NA,NA,NA,NA,NA,NA,NA,NA,NA,NA,NA,NA,NA,NA,NA,NA,NA,NA,NA,NA,NA,NA,NA,NA,1,0,1,0,1
SUPAMT99469,33JKGHPFYITE7HTX88LAZ8V65WNNMW,52831CBA-30C7-4E0F-B72A-0EF9462F2A12,2023-09-29_02h01.03.578,WP_VExplicitOC_LH,2022.2.5,Win32,7.970223246,70.5,6.7405,2.0987,NA,NA,NA,NA,NA,frustrated,"frustrated, not frustrated","more frustrated, less frustrated",NA,NA,NA,NA,NA,NA,NA,NA,NA,NA,NA,NA,NA,NA,NA,NA,NA,NA,NA,NA,NA,NA,NA,NA,NA,NA,NA,NA,NA,NA,NA,NA,NA,NA,NA,NA,NA,NA,0,0,0,1,1,NA,NA,NA,NA,NA
SUPAMT99469,33JKGHPFYITE7HTX88LAZ8V65WNNMW,52831CBA-30C7-4E0F-B72A-0EF9462F2A12,2023-09-29_02h01.03.578,WP_VExplicitOC_LH,2022.2.5,Win32,7.970223246,69.5,3.6022,2.1742,NA,NA,NA,NA,NA,happy,"unhappy, happy","less happy, more happy",NA,NA,NA,NA,NA,NA,NA,NA,NA,NA,NA,NA,NA,NA,NA,NA,NA,NA,NA,NA,NA,NA,NA,NA,NA,NA,NA,NA,NA,NA,NA,NA,NA,NA,NA,NA,NA,NA,0,1,1,0,1,NA,NA,NA,NA,NA
SUPAMT99469,33JKGHPFYITE7HTX88LAZ8V65WNNMW,52831CBA-30C7-4E0F-B72A-0EF9462F2A12,2023-09-29_02h01.03.578,WP_VExplicitOC_LH,2022.2.5,Win32,7.970223246,100,3.9232,2.0897,NA,NA,NA,NA,NA,bored,"bored, not bored","more bored, less bored",NA,NA,NA,NA,NA,NA,NA,NA,NA,NA,NA,NA,NA,NA,NA,NA,NA,NA,NA,NA,NA,NA,NA,NA,NA,NA,NA,NA,NA,NA,NA,NA,NA,NA,NA,NA,NA,NA,0,2,2,2,1,NA,NA,NA,NA,NA
SUPAMT99469,33JKGHPFYITE7HTX88LAZ8V65WNNMW,52831CBA-30C7-4E0F-B72A-0EF9462F2A12,2023-09-29_02h01.03.578,WP_VExplicitOC_LH,2022.2.5,Win32,7.970223246,NA,NA,NA,NA,NA,NA,NA,NA,NA,NA,NA,NA,NA,NA,NA,NA,NA,NA,NA,NA,NA,NA,NA,NA,NA,NA,NA,NA,NA,NA,NA,NA,NA,NA,NA,NA,NA,NA,NA,NA,NA,NA,NA,NA,NA,NA,NA,NA,NA,NA,NA,NA,NA,NA,2,0,2,0,1
SUPAMT99469,33JKGHPFYITE7HTX88LAZ8V65WNNMW,52831CBA-30C7-4E0F-B72A-0EF9462F2A12,2023-09-29_02h01.03.578,WP_VExplicitOC_LH,2022.2.5,Win32,7.970223246,100,4.9234,2.1073,NA,NA,NA,NA,NA,happy,"unhappy, happy","less happy, more happy",NA,NA,NA,NA,NA,NA,NA,NA,NA,NA,NA,NA,NA,NA,NA,NA,NA,NA,NA,NA,NA,NA,NA,NA,NA,NA,NA,NA,NA,NA,NA,NA,NA,NA,NA,NA,NA,NA,0,0,0,0,1,NA,NA,NA,NA,NA
SUPAMT99469,33JKGHPFYITE7HTX88LAZ8V65WNNMW,52831CBA-30C7-4E0F-B72A-0EF9462F2A12,2023-09-29_02h01.03.578,WP_VExplicitOC_LH,2022.2.5,Win32,7.970223246,93.75,3.2274,2.0081,NA,NA,NA,NA,NA,bored,"bored, not bored","more bored, less bored",NA,NA,NA,NA,NA,NA,NA,NA,NA,NA,NA,NA,NA,NA,NA,NA,NA,NA,NA,NA,NA,NA,NA,NA,NA,NA,NA,NA,NA,NA,NA,NA,NA,NA,NA,NA,NA,NA,0,1,1,2,1,NA,NA,NA,NA,NA
SUPAMT99469,33JKGHPFYITE7HTX88LAZ8V65WNNMW,52831CBA-30C7-4E0F-B72A-0EF9462F2A12,2023-09-29_02h01.03.578,WP_VExplicitOC_LH,2022.2.5,Win32,7.970223246,98.25,4.2881,2.1382,NA,NA,NA,NA,NA,frustrated,"frustrated, not frustrated","more frustrated, less frustrated",NA,NA,NA,NA,NA,NA,NA,NA,NA,NA,NA,NA,NA,NA,NA,NA,NA,NA,NA,NA,NA,NA,NA,NA,NA,NA,NA,NA,NA,NA,NA,NA,NA,NA,NA,NA,NA,NA,0,2,2,1,1,NA,NA,NA,NA,NA
SUPAMT99469,33JKGHPFYITE7HTX88LAZ8V65WNNMW,52831CBA-30C7-4E0F-B72A-0EF9462F2A12,2023-09-29_02h01.03.578,WP_VExplicitOC_LH,2022.2.5,Win32,7.970223246,NA,NA,NA,NA,NA,NA,NA,NA,NA,NA,NA,NA,NA,NA,NA,NA,NA,NA,NA,NA,NA,NA,NA,NA,NA,NA,NA,NA,NA,NA,NA,NA,NA,NA,NA,NA,NA,NA,NA,NA,NA,NA,NA,NA,NA,NA,NA,NA,NA,NA,NA,NA,NA,NA,3,0,3,0,1
SUPAMT99469,33JKGHPFYITE7HTX88LAZ8V65WNNMW,52831CBA-30C7-4E0F-B72A-0EF9462F2A12,2023-09-29_02h01.03.578,WP_VExplicitOC_LH,2022.2.5,Win32,7.970223246,NA,NA,2.0193,NA,NA,NA,NA,NA,bored,"bored, not bored","more bored, less bored",NA,NA,NA,NA,NA,NA,NA,NA,NA,NA,NA,NA,NA,NA,NA,NA,NA,NA,NA,NA,NA,NA,NA,NA,NA,NA,NA,NA,NA,NA,NA,NA,NA,NA,NA,NA,NA,NA,0,0,0,2,1,NA,NA,NA,NA,NA
SUPAMT99469,33JKGHPFYITE7HTX88LAZ8V65WNNMW,52831CBA-30C7-4E0F-B72A-0EF9462F2A12,2023-09-29_02h01.03.578,WP_VExplicitOC_LH,2022.2.5,Win32,7.970223246,100,4.2077,2.0398,NA,NA,NA,NA,NA,frustrated,"frustrated, not frustrated","more frustrated, less frustrated",NA,NA,NA,NA,NA,NA,NA,NA,NA,NA,NA,NA,NA,NA,NA,NA,NA,NA,NA,NA,NA,NA,NA,NA,NA,NA,NA,NA,NA,NA,NA,NA,NA,NA,NA,NA,NA,NA,0,1,1,1,1,NA,NA,NA,NA,NA
SUPAMT99469,33JKGHPFYITE7HTX88LAZ8V65WNNMW,52831CBA-30C7-4E0F-B72A-0EF9462F2A12,2023-09-29_02h01.03.578,WP_VExplicitOC_LH,2022.2.5,Win32,7.970223246,100,4.5553,2.0758,NA,NA,NA,NA,NA,happy,"unhappy, happy","less happy, more happy",NA,NA,NA,NA,NA,NA,NA,NA,NA,NA,NA,NA,NA,NA,NA,NA,NA,NA,NA,NA,NA,NA,NA,NA,NA,NA,NA,NA,NA,NA,NA,NA,NA,NA,NA,NA,NA,NA,0,2,2,0,1,NA,NA,NA,NA,NA
SUPAMT99469,33JKGHPFYITE7HTX88LAZ8V65WNNMW,52831CBA-30C7-4E0F-B72A-0EF9462F2A12,2023-09-29_02h01.03.578,WP_VExplicitOC_LH,2022.2.5,Win32,7.970223246,NA,NA,NA,NA,NA,NA,NA,NA,NA,NA,NA,NA,NA,NA,NA,NA,NA,NA,NA,NA,NA,NA,NA,NA,NA,NA,NA,NA,NA,NA,NA,NA,NA,NA,NA,NA,NA,NA,NA,NA,NA,NA,NA,NA,NA,NA,NA,NA,NA,NA,NA,NA,NA,NA,4,0,4,0,1
SUPAMT99469,33JKGHPFYITE7HTX88LAZ8V65WNNMW,52831CBA-30C7-4E0F-B72A-0EF9462F2A12,2023-09-29_02h01.03.578,WP_VExplicitOC_LH,2022.2.5,Win32,7.970223246,100,3.7745,2.0958,NA,NA,NA,NA,NA,happy,"unhappy, happy","less happy, more happy",NA,NA,NA,NA,NA,NA,NA,NA,NA,NA,NA,NA,NA,NA,NA,NA,NA,NA,NA,NA,NA,NA,NA,NA,NA,NA,NA,NA,NA,NA,NA,NA,NA,NA,NA,NA,NA,NA,0,0,0,0,1,NA,NA,NA,NA,NA
SUPAMT99469,33JKGHPFYITE7HTX88LAZ8V65WNNMW,52831CBA-30C7-4E0F-B72A-0EF9462F2A12,2023-09-29_02h01.03.578,WP_VExplicitOC_LH,2022.2.5,Win32,7.970223246,89,6.6327,2.0104,NA,NA,NA,NA,NA,frustrated,"frustrated, not frustrated","more frustrated, less frustrated",NA,NA,NA,NA,NA,NA,NA,NA,NA,NA,NA,NA,NA,NA,NA,NA,NA,NA,NA,NA,NA,NA,NA,NA,NA,NA,NA,NA,NA,NA,NA,NA,NA,NA,NA,NA,NA,NA,0,1,1,1,1,NA,NA,NA,NA,NA
SUPAMT99469,33JKGHPFYITE7HTX88LAZ8V65WNNMW,52831CBA-30C7-4E0F-B72A-0EF9462F2A12,2023-09-29_02h01.03.578,WP_VExplicitOC_LH,2022.2.5,Win32,7.970223246,100,4.1262,2.0272,NA,NA,NA,NA,NA,bored,"bored, not bored","more bored, less bored",NA,NA,NA,NA,NA,NA,NA,NA,NA,NA,NA,NA,NA,NA,NA,NA,NA,NA,NA,NA,NA,NA,NA,NA,NA,NA,NA,NA,NA,NA,NA,NA,NA,NA,NA,NA,NA,NA,0,2,2,2,1,NA,NA,NA,NA,NA
SUPAMT99469,33JKGHPFYITE7HTX88LAZ8V65WNNMW,52831CBA-30C7-4E0F-B72A-0EF9462F2A12,2023-09-29_02h01.03.578,WP_VExplicitOC_LH,2022.2.5,Win32,7.970223246,NA,NA,NA,NA,NA,NA,NA,NA,NA,NA,NA,NA,NA,NA,NA,NA,NA,NA,NA,NA,NA,NA,NA,NA,NA,NA,NA,NA,NA,NA,NA,NA,NA,NA,NA,NA,NA,NA,NA,NA,NA,NA,NA,NA,NA,NA,NA,NA,NA,NA,NA,NA,NA,NA,5,0,5,0,1
SUPAMT99469,33JKGHPFYITE7HTX88LAZ8V65WNNMW,52831CBA-30C7-4E0F-B72A-0EF9462F2A12,2023-09-29_02h01.03.578,WP_VExplicitOC_LH,2022.2.5,Win32,7.970223246,100,6.2439,2.0084,NA,NA,NA,NA,NA,happy,"unhappy, happy","less happy, more happy",NA,NA,NA,NA,NA,NA,NA,NA,NA,NA,NA,NA,NA,NA,NA,NA,NA,NA,NA,NA,NA,NA,NA,NA,NA,NA,NA,NA,NA,NA,NA,NA,NA,NA,NA,NA,NA,NA,0,0,0,0,1,NA,NA,NA,NA,NA
SUPAMT99469,33JKGHPFYITE7HTX88LAZ8V65WNNMW,52831CBA-30C7-4E0F-B72A-0EF9462F2A12,2023-09-29_02h01.03.578,WP_VExplicitOC_LH,2022.2.5,Win32,7.970223246,100,4.1375,2.1728,NA,NA,NA,NA,NA,frustrated,"frustrated, not frustrated","more frustrated, less frustrated",NA,NA,NA,NA,NA,NA,NA,NA,NA,NA,NA,NA,NA,NA,NA,NA,NA,NA,NA,NA,NA,NA,NA,NA,NA,NA,NA,NA,NA,NA,NA,NA,NA,NA,NA,NA,NA,NA,0,1,1,1,1,NA,NA,NA,NA,NA
SUPAMT99469,33JKGHPFYITE7HTX88LAZ8V65WNNMW,52831CBA-30C7-4E0F-B72A-0EF9462F2A12,2023-09-29_02h01.03.578,WP_VExplicitOC_LH,2022.2.5,Win32,7.970223246,100,3.8744,2.0046,NA,NA,NA,NA,NA,bored,"bored, not bored","more bored, less bored",NA,NA,NA,NA,NA,NA,NA,NA,NA,NA,NA,NA,NA,NA,NA,NA,NA,NA,NA,NA,NA,NA,NA,NA,NA,NA,NA,NA,NA,NA,NA,NA,NA,NA,NA,NA,NA,NA,0,2,2,2,1,NA,NA,NA,NA,NA
SUPAMT99469,33JKGHPFYITE7HTX88LAZ8V65WNNMW,52831CBA-30C7-4E0F-B72A-0EF9462F2A12,2023-09-29_02h01.03.578,WP_VExplicitOC_LH,2022.2.5,Win32,7.970223246,NA,NA,NA,NA,NA,NA,NA,NA,NA,NA,NA,NA,NA,NA,NA,NA,NA,NA,NA,NA,NA,NA,NA,NA,NA,NA,NA,NA,NA,NA,NA,NA,NA,NA,NA,NA,NA,NA,NA,NA,NA,NA,NA,NA,NA,NA,NA,NA,NA,NA,NA,NA,NA,NA,6,0,6,0,1
SUPAMT99469,33JKGHPFYITE7HTX88LAZ8V65WNNMW,52831CBA-30C7-4E0F-B72A-0EF9462F2A12,2023-09-29_02h01.03.578,WP_VExplicitOC_LH,2022.2.5,Win32,7.970223246,100,4.0823,2.1243,NA,NA,NA,NA,NA,frustrated,"frustrated, not frustrated","more frustrated, less frustrated",NA,NA,NA,NA,NA,NA,NA,NA,NA,NA,NA,NA,NA,NA,NA,NA,NA,NA,NA,NA,NA,NA,NA,NA,NA,NA,NA,NA,NA,NA,NA,NA,NA,NA,NA,NA,NA,NA,0,0,0,1,1,NA,NA,NA,NA,NA
SUPAMT99469,33JKGHPFYITE7HTX88LAZ8V65WNNMW,52831CBA-30C7-4E0F-B72A-0EF9462F2A12,2023-09-29_02h01.03.578,WP_VExplicitOC_LH,2022.2.5,Win32,7.970223246,72.25,3.4284,2.0895,NA,NA,NA,NA,NA,bored,"bored, not bored","more bored, less bored",NA,NA,NA,NA,NA,NA,NA,NA,NA,NA,NA,NA,NA,NA,NA,NA,NA,NA,NA,NA,NA,NA,NA,NA,NA,NA,NA,NA,NA,NA,NA,NA,NA,NA,NA,NA,NA,NA,0,1,1,2,1,NA,NA,NA,NA,NA
SUPAMT99469,33JKGHPFYITE7HTX88LAZ8V65WNNMW,52831CBA-30C7-4E0F-B72A-0EF9462F2A12,2023-09-29_02h01.03.578,WP_VExplicitOC_LH,2022.2.5,Win32,7.970223246,56,2.7999,2.0586,NA,NA,NA,NA,NA,happy,"unhappy, happy","less happy, more happy",NA,NA,NA,NA,NA,NA,NA,NA,NA,NA,NA,NA,NA,NA,NA,NA,NA,NA,NA,NA,NA,NA,NA,NA,NA,NA,NA,NA,NA,NA,NA,NA,NA,NA,NA,NA,NA,NA,0,2,2,0,1,NA,NA,NA,NA,NA
SUPAMT99469,33JKGHPFYITE7HTX88LAZ8V65WNNMW,52831CBA-30C7-4E0F-B72A-0EF9462F2A12,2023-09-29_02h01.03.578,WP_VExplicitOC_LH,2022.2.5,Win32,7.970223246,NA,NA,NA,NA,NA,NA,NA,NA,NA,NA,NA,NA,NA,NA,NA,NA,NA,NA,NA,NA,NA,NA,NA,NA,NA,NA,NA,NA,NA,NA,NA,NA,NA,NA,NA,NA,NA,NA,NA,NA,NA,NA,NA,NA,NA,NA,NA,NA,NA,NA,NA,NA,NA,NA,7,0,7,0,1
SUPAMT99469,33JKGHPFYITE7HTX88LAZ8V65WNNMW,52831CBA-30C7-4E0F-B72A-0EF9462F2A12,2023-09-29_02h01.03.578,WP_VExplicitOC_LH,2022.2.5,Win32,7.970223246,81.75,5.8907,2.011,NA,NA,NA,NA,NA,happy,"unhappy, happy","less happy, more happy",NA,NA,NA,NA,NA,NA,NA,NA,NA,NA,NA,NA,NA,NA,NA,NA,NA,NA,NA,NA,NA,NA,NA,NA,NA,NA,NA,NA,NA,NA,NA,NA,NA,NA,NA,NA,NA,NA,0,0,0,0,1,NA,NA,NA,NA,NA
SUPAMT99469,33JKGHPFYITE7HTX88LAZ8V65WNNMW,52831CBA-30C7-4E0F-B72A-0EF9462F2A12,2023-09-29_02h01.03.578,WP_VExplicitOC_LH,2022.2.5,Win32,7.970223246,77.75,3.7606,2.1254,NA,NA,NA,NA,NA,frustrated,"frustrated, not frustrated","more frustrated, less frustrated",NA,NA,NA,NA,NA,NA,NA,NA,NA,NA,NA,NA,NA,NA,NA,NA,NA,NA,NA,NA,NA,NA,NA,NA,NA,NA,NA,NA,NA,NA,NA,NA,NA,NA,NA,NA,NA,NA,0,1,1,1,1,NA,NA,NA,NA,NA
SUPAMT99469,33JKGHPFYITE7HTX88LAZ8V65WNNMW,52831CBA-30C7-4E0F-B72A-0EF9462F2A12,2023-09-29_02h01.03.578,WP_VExplicitOC_LH,2022.2.5,Win32,7.970223246,100,3.5353,2.0188,NA,NA,NA,NA,NA,bored,"bored, not bored","more bored, less bored",NA,NA,NA,NA,NA,NA,NA,NA,NA,NA,NA,NA,NA,NA,NA,NA,NA,NA,NA,NA,NA,NA,NA,NA,NA,NA,NA,NA,NA,NA,NA,NA,NA,NA,NA,NA,NA,NA,0,2,2,2,1,NA,NA,NA,NA,NA
SUPAMT99469,33JKGHPFYITE7HTX88LAZ8V65WNNMW,52831CBA-30C7-4E0F-B72A-0EF9462F2A12,2023-09-29_02h01.03.578,WP_VExplicitOC_LH,2022.2.5,Win32,7.970223246,NA,NA,NA,NA,NA,NA,NA,NA,NA,NA,NA,NA,NA,NA,NA,NA,NA,NA,NA,NA,NA,NA,NA,NA,NA,NA,NA,NA,NA,NA,NA,NA,NA,NA,NA,NA,NA,NA,NA,NA,NA,NA,NA,NA,NA,NA,NA,NA,NA,NA,NA,NA,NA,NA,8,0,8,0,1
SUPAMT99469,33JKGHPFYITE7HTX88LAZ8V65WNNMW,52831CBA-30C7-4E0F-B72A-0EF9462F2A12,2023-09-29_02h01.03.578,WP_VExplicitOC_LH,2022.2.5,Win32,7.970223246,100,7.1811,2.0229,NA,NA,NA,NA,NA,happy,"unhappy, happy","less happy, more happy",NA,NA,NA,NA,NA,NA,NA,NA,NA,NA,NA,NA,NA,NA,NA,NA,NA,NA,NA,NA,NA,NA,NA,NA,NA,NA,NA,NA,NA,NA,NA,NA,NA,NA,NA,NA,NA,NA,0,0,0,0,1,NA,NA,NA,NA,NA
SUPAMT99469,33JKGHPFYITE7HTX88LAZ8V65WNNMW,52831CBA-30C7-4E0F-B72A-0EF9462F2A12,2023-09-29_02h01.03.578,WP_VExplicitOC_LH,2022.2.5,Win32,7.970223246,85.5,3.9774,2.018,NA,NA,NA,NA,NA,bored,"bored, not bored","more bored, less bored",NA,NA,NA,NA,NA,NA,NA,NA,NA,NA,NA,NA,NA,NA,NA,NA,NA,NA,NA,NA,NA,NA,NA,NA,NA,NA,NA,NA,NA,NA,NA,NA,NA,NA,NA,NA,NA,NA,0,1,1,2,1,NA,NA,NA,NA,NA
SUPAMT99469,33JKGHPFYITE7HTX88LAZ8V65WNNMW,52831CBA-30C7-4E0F-B72A-0EF9462F2A12,2023-09-29_02h01.03.578,WP_VExplicitOC_LH,2022.2.5,Win32,7.970223246,NA,NA,2.0644,NA,NA,NA,NA,NA,frustrated,"frustrated, not frustrated","more frustrated, less frustrated",NA,NA,NA,NA,NA,NA,NA,NA,NA,NA,NA,NA,NA,NA,NA,NA,NA,NA,NA,NA,NA,NA,NA,NA,NA,NA,NA,NA,NA,NA,NA,NA,NA,NA,NA,NA,NA,NA,0,2,2,1,1,NA,NA,NA,NA,NA
SUPAMT99469,33JKGHPFYITE7HTX88LAZ8V65WNNMW,52831CBA-30C7-4E0F-B72A-0EF9462F2A12,2023-09-29_02h01.03.578,WP_VExplicitOC_LH,2022.2.5,Win32,7.970223246,NA,NA,NA,NA,NA,NA,NA,NA,NA,NA,NA,NA,NA,NA,NA,NA,NA,NA,NA,NA,NA,NA,NA,NA,NA,NA,NA,NA,NA,NA,NA,NA,NA,NA,NA,NA,NA,NA,NA,NA,NA,NA,NA,NA,NA,NA,NA,NA,NA,NA,NA,NA,NA,NA,9,0,9,0,1
SUPAMT99469,33JKGHPFYITE7HTX88LAZ8V65WNNMW,52831CBA-30C7-4E0F-B72A-0EF9462F2A12,2023-09-29_02h01.03.578,WP_VExplicitOC_LH,2022.2.5,Win32,7.970223246,NA,NA,2.015,NA,NA,NA,NA,NA,frustrated,"frustrated, not frustrated","more frustrated, less frustrated",NA,NA,NA,NA,NA,NA,NA,NA,NA,NA,NA,NA,NA,NA,NA,NA,NA,NA,NA,NA,NA,NA,NA,NA,NA,NA,NA,NA,NA,NA,NA,NA,NA,NA,NA,NA,NA,NA,0,0,0,1,1,NA,NA,NA,NA,NA
SUPAMT99469,33JKGHPFYITE7HTX88LAZ8V65WNNMW,52831CBA-30C7-4E0F-B72A-0EF9462F2A12,2023-09-29_02h01.03.578,WP_VExplicitOC_LH,2022.2.5,Win32,7.970223246,57.75,4.0965,2.0922,NA,NA,NA,NA,NA,happy,"unhappy, happy","less happy, more happy",NA,NA,NA,NA,NA,NA,NA,NA,NA,NA,NA,NA,NA,NA,NA,NA,NA,NA,NA,NA,NA,NA,NA,NA,NA,NA,NA,NA,NA,NA,NA,NA,NA,NA,NA,NA,NA,NA,0,1,1,0,1,NA,NA,NA,NA,NA
SUPAMT99469,33JKGHPFYITE7HTX88LAZ8V65WNNMW,52831CBA-30C7-4E0F-B72A-0EF9462F2A12,2023-09-29_02h01.03.578,WP_VExplicitOC_LH,2022.2.5,Win32,7.970223246,100,3.8287,2.0849,NA,NA,NA,NA,NA,bored,"bored, not bored","more bored, less bored",NA,NA,NA,NA,NA,NA,NA,NA,NA,NA,NA,NA,NA,NA,NA,NA,NA,NA,NA,NA,NA,NA,NA,NA,NA,NA,NA,NA,NA,NA,NA,NA,NA,NA,NA,NA,NA,NA,0,2,2,2,1,NA,NA,NA,NA,NA
SUPAMT99469,33JKGHPFYITE7HTX88LAZ8V65WNNMW,52831CBA-30C7-4E0F-B72A-0EF9462F2A12,2023-09-29_02h01.03.578,WP_VExplicitOC_LH,2022.2.5,Win32,7.970223246,NA,NA,NA,NA,NA,NA,NA,NA,NA,NA,NA,NA,NA,NA,NA,NA,NA,NA,NA,NA,NA,NA,NA,NA,NA,NA,NA,NA,NA,NA,NA,NA,NA,NA,NA,NA,NA,NA,NA,NA,NA,NA,NA,NA,NA,NA,NA,NA,NA,NA,NA,NA,NA,NA,10,0,10,0,1
SUPAMT99469,33JKGHPFYITE7HTX88LAZ8V65WNNMW,52831CBA-30C7-4E0F-B72A-0EF9462F2A12,2023-09-29_02h01.03.578,WP_VExplicitOC_LH,2022.2.5,Win32,7.970223246,99.25,4.1428,2.0778,NA,NA,NA,NA,NA,frustrated,"frustrated, not frustrated","more frustrated, less frustrated",NA,NA,NA,NA,NA,NA,NA,NA,NA,NA,NA,NA,NA,NA,NA,NA,NA,NA,NA,NA,NA,NA,NA,NA,NA,NA,NA,NA,NA,NA,NA,NA,NA,NA,NA,NA,NA,NA,0,0,0,1,1,NA,NA,NA,NA,NA
SUPAMT99469,33JKGHPFYITE7HTX88LAZ8V65WNNMW,52831CBA-30C7-4E0F-B72A-0EF9462F2A12,2023-09-29_02h01.03.578,WP_VExplicitOC_LH,2022.2.5,Win32,7.970223246,100,5.1613,2.2136,NA,NA,NA,NA,NA,happy,"unhappy, happy","less happy, more happy",NA,NA,NA,NA,NA,NA,NA,NA,NA,NA,NA,NA,NA,NA,NA,NA,NA,NA,NA,NA,NA,NA,NA,NA,NA,NA,NA,NA,NA,NA,NA,NA,NA,NA,NA,NA,NA,NA,0,1,1,0,1,NA,NA,NA,NA,NA
SUPAMT99469,33JKGHPFYITE7HTX88LAZ8V65WNNMW,52831CBA-30C7-4E0F-B72A-0EF9462F2A12,2023-09-29_02h01.03.578,WP_VExplicitOC_LH,2022.2.5,Win32,7.970223246,76,4.8223,2.1035,NA,NA,NA,NA,NA,bored,"bored, not bored","more bored, less bored",NA,NA,NA,NA,NA,NA,NA,NA,NA,NA,NA,NA,NA,NA,NA,NA,NA,NA,NA,NA,NA,NA,NA,NA,NA,NA,NA,NA,NA,NA,NA,NA,NA,NA,NA,NA,NA,NA,0,2,2,2,1,NA,NA,NA,NA,NA
SUPAMT99469,33JKGHPFYITE7HTX88LAZ8V65WNNMW,52831CBA-30C7-4E0F-B72A-0EF9462F2A12,2023-09-29_02h01.03.578,WP_VExplicitOC_LH,2022.2.5,Win32,7.970223246,NA,NA,NA,NA,NA,NA,NA,NA,NA,NA,NA,NA,NA,NA,NA,NA,NA,NA,NA,NA,NA,NA,NA,NA,NA,NA,NA,NA,NA,NA,NA,NA,NA,NA,NA,NA,NA,NA,NA,NA,NA,NA,NA,NA,NA,NA,NA,NA,NA,NA,NA,NA,NA,NA,11,0,11,0,1
SUPAMT99469,33JKGHPFYITE7HTX88LAZ8V65WNNMW,52831CBA-30C7-4E0F-B72A-0EF9462F2A12,2023-09-29_02h01.03.578,WP_VExplicitOC_LH,2022.2.5,Win32,7.970223246,91.75,3.9902,2.0563,NA,NA,NA,NA,NA,happy,"unhappy, happy","less happy, more happy",NA,NA,NA,NA,NA,NA,NA,NA,NA,NA,NA,NA,NA,NA,NA,NA,NA,NA,NA,NA,NA,NA,NA,NA,NA,NA,NA,NA,NA,NA,NA,NA,NA,NA,NA,NA,NA,NA,0,0,0,0,1,NA,NA,NA,NA,NA
SUPAMT99469,33JKGHPFYITE7HTX88LAZ8V65WNNMW,52831CBA-30C7-4E0F-B72A-0EF9462F2A12,2023-09-29_02h01.03.578,WP_VExplicitOC_LH,2022.2.5,Win32,7.970223246,86.5,6.2227,2.1227,NA,NA,NA,NA,NA,bored,"bored, not bored","more bored, less bored",NA,NA,NA,NA,NA,NA,NA,NA,NA,NA,NA,NA,NA,NA,NA,NA,NA,NA,NA,NA,NA,NA,NA,NA,NA,NA,NA,NA,NA,NA,NA,NA,NA,NA,NA,NA,NA,NA,0,1,1,2,1,NA,NA,NA,NA,NA
SUPAMT99469,33JKGHPFYITE7HTX88LAZ8V65WNNMW,52831CBA-30C7-4E0F-B72A-0EF9462F2A12,2023-09-29_02h01.03.578,WP_VExplicitOC_LH,2022.2.5,Win32,7.970223246,92.5,4.7234,2.0987,NA,NA,NA,NA,NA,frustrated,"frustrated, not frustrated","more frustrated, less frustrated",NA,NA,NA,NA,NA,NA,NA,NA,NA,NA,NA,NA,NA,NA,NA,NA,NA,NA,NA,NA,NA,NA,NA,NA,NA,NA,NA,NA,NA,NA,NA,NA,NA,NA,NA,NA,NA,NA,0,2,2,1,1,NA,NA,NA,NA,NA
SUPAMT99469,33JKGHPFYITE7HTX88LAZ8V65WNNMW,52831CBA-30C7-4E0F-B72A-0EF9462F2A12,2023-09-29_02h01.03.578,WP_VExplicitOC_LH,2022.2.5,Win32,7.970223246,NA,NA,NA,NA,NA,NA,NA,NA,NA,NA,NA,NA,NA,NA,NA,NA,NA,NA,NA,NA,NA,NA,NA,NA,NA,NA,NA,NA,NA,NA,NA,NA,NA,NA,NA,NA,NA,NA,NA,NA,NA,NA,NA,NA,NA,NA,NA,NA,NA,NA,NA,NA,NA,NA,12,0,12,0,1
SUPAMT99469,33JKGHPFYITE7HTX88LAZ8V65WNNMW,52831CBA-30C7-4E0F-B72A-0EF9462F2A12,2023-09-29_02h01.03.578,WP_VExplicitOC_LH,2022.2.5,Win32,7.970223246,100,5.0153,2.0557,NA,NA,NA,NA,NA,frustrated,"frustrated, not frustrated","more frustrated, less frustrated",NA,NA,NA,NA,NA,NA,NA,NA,NA,NA,NA,NA,NA,NA,NA,NA,NA,NA,NA,NA,NA,NA,NA,NA,NA,NA,NA,NA,NA,NA,NA,NA,NA,NA,NA,NA,NA,NA,0,0,0,1,1,NA,NA,NA,NA,NA
SUPAMT99469,33JKGHPFYITE7HTX88LAZ8V65WNNMW,52831CBA-30C7-4E0F-B72A-0EF9462F2A12,2023-09-29_02h01.03.578,WP_VExplicitOC_LH,2022.2.5,Win32,7.970223246,88.25,3.5214,2.0395,NA,NA,NA,NA,NA,bored,"bored, not bored","more bored, less bored",NA,NA,NA,NA,NA,NA,NA,NA,NA,NA,NA,NA,NA,NA,NA,NA,NA,NA,NA,NA,NA,NA,NA,NA,NA,NA,NA,NA,NA,NA,NA,NA,NA,NA,NA,NA,NA,NA,0,1,1,2,1,NA,NA,NA,NA,NA
SUPAMT99469,33JKGHPFYITE7HTX88LAZ8V65WNNMW,52831CBA-30C7-4E0F-B72A-0EF9462F2A12,2023-09-29_02h01.03.578,WP_VExplicitOC_LH,2022.2.5,Win32,7.970223246,81.75,3.7508,2.0998,NA,NA,NA,NA,NA,happy,"unhappy, happy","less happy, more happy",NA,NA,NA,NA,NA,NA,NA,NA,NA,NA,NA,NA,NA,NA,NA,NA,NA,NA,NA,NA,NA,NA,NA,NA,NA,NA,NA,NA,NA,NA,NA,NA,NA,NA,NA,NA,NA,NA,0,2,2,0,1,NA,NA,NA,NA,NA
SUPAMT99469,33JKGHPFYITE7HTX88LAZ8V65WNNMW,52831CBA-30C7-4E0F-B72A-0EF9462F2A12,2023-09-29_02h01.03.578,WP_VExplicitOC_LH,2022.2.5,Win32,7.970223246,NA,NA,NA,NA,NA,NA,NA,NA,NA,NA,NA,NA,NA,NA,NA,NA,NA,NA,NA,NA,NA,NA,NA,NA,NA,NA,NA,NA,NA,NA,NA,NA,NA,NA,NA,NA,NA,NA,NA,NA,NA,NA,NA,NA,NA,NA,NA,NA,NA,NA,NA,NA,NA,NA,13,0,13,0,1
SUPAMT99469,33JKGHPFYITE7HTX88LAZ8V65WNNMW,52831CBA-30C7-4E0F-B72A-0EF9462F2A12,2023-09-29_02h01.03.578,WP_VExplicitOC_LH,2022.2.5,Win32,7.970223246,70.5,5.9453,2.0658,NA,NA,NA,NA,NA,bored,"bored, not bored","more bored, less bored",NA,NA,NA,NA,NA,NA,NA,NA,NA,NA,NA,NA,NA,NA,NA,NA,NA,NA,NA,NA,NA,NA,NA,NA,NA,NA,NA,NA,NA,NA,NA,NA,NA,NA,NA,NA,NA,NA,0,0,0,2,1,NA,NA,NA,NA,NA
SUPAMT99469,33JKGHPFYITE7HTX88LAZ8V65WNNMW,52831CBA-30C7-4E0F-B72A-0EF9462F2A12,2023-09-29_02h01.03.578,WP_VExplicitOC_LH,2022.2.5,Win32,7.970223246,100,3.3302,2.0541,NA,NA,NA,NA,NA,happy,"unhappy, happy","less happy, more happy",NA,NA,NA,NA,NA,NA,NA,NA,NA,NA,NA,NA,NA,NA,NA,NA,NA,NA,NA,NA,NA,NA,NA,NA,NA,NA,NA,NA,NA,NA,NA,NA,NA,NA,NA,NA,NA,NA,0,1,1,0,1,NA,NA,NA,NA,NA
SUPAMT99469,33JKGHPFYITE7HTX88LAZ8V65WNNMW,52831CBA-30C7-4E0F-B72A-0EF9462F2A12,2023-09-29_02h01.03.578,WP_VExplicitOC_LH,2022.2.5,Win32,7.970223246,100,3.4567,2.0094,NA,NA,NA,NA,NA,frustrated,"frustrated, not frustrated","more frustrated, less frustrated",NA,NA,NA,NA,NA,NA,NA,NA,NA,NA,NA,NA,NA,NA,NA,NA,NA,NA,NA,NA,NA,NA,NA,NA,NA,NA,NA,NA,NA,NA,NA,NA,NA,NA,NA,NA,NA,NA,0,2,2,1,1,NA,NA,NA,NA,NA
SUPAMT99469,33JKGHPFYITE7HTX88LAZ8V65WNNMW,52831CBA-30C7-4E0F-B72A-0EF9462F2A12,2023-09-29_02h01.03.578,WP_VExplicitOC_LH,2022.2.5,Win32,7.970223246,NA,NA,NA,NA,NA,NA,NA,NA,NA,NA,NA,NA,NA,NA,NA,NA,NA,NA,NA,NA,NA,NA,NA,NA,NA,NA,NA,NA,NA,NA,NA,NA,NA,NA,NA,NA,NA,NA,NA,NA,NA,NA,NA,NA,NA,NA,NA,NA,NA,NA,NA,NA,NA,NA,14,0,14,0,1
SUPAMT99469,33JKGHPFYITE7HTX88LAZ8V65WNNMW,52831CBA-30C7-4E0F-B72A-0EF9462F2A12,2023-09-29_02h01.03.578,WP_VExplicitOC_LH,2022.2.5,Win32,7.970223246,NA,NA,NA,NA,NA,NA,NA,NA,NA,NA,NA,NA,NA,NA,NA,NA,NA,NA,NA,NA,NA,NA,NA,NA,NA,NA,NA,NA,NA,NA,NA,NA,NA,NA,NA,NA,NA,NA,NA,NA,NA,NA,NA,NA,NA,NA,NA,NA,NA,NA,NA,NA,NA,NA,NA,NA,NA,NA,NA
