participant,session,completion,date,expName,psychopyVersion,OS,frameRate,rating_all.response,rating_all.rt,rating_all.tStart,rndRat1.thisRepN,rndRat1.thisTrialN,rndRat1.thisN,rndRat1.thisIndex,rndRat1.ran,Emo,Labs,Labs2,rating_alt.response,rating_alt.rt,AltC.thisRepN,AltC.thisTrialN,AltC.thisN,AltC.thisIndex,AltC.ran,alt_choices,pic_choices,BottomAlt_Choice,rndRat2.thisRepN,rndRat2.thisTrialN,rndRat2.thisN,rndRat2.thisIndex,rndRat2.ran,rndRat3.thisRepN,rndRat3.thisTrialN,rndRat3.thisN,rndRat3.thisIndex,rndRat3.ran,trials_FC_L.thisRepN,trials_FC_L.thisTrialN,trials_FC_L.thisN,trials_FC_L.thisIndex,trials_FC_L.ran,rating_alt_2.response,rating_alt_2.rt,AltC2.thisRepN,AltC2.thisTrialN,AltC2.thisN,AltC2.thisIndex,AltC2.ran,TopAlt_Choice,rndRat4.thisRepN,rndRat4.thisTrialN,rndRat4.thisN,rndRat4.thisIndex,rndRat4.ran,rndRat5.thisRepN,rndRat5.thisTrialN,rndRat5.thisN,rndRat5.thisIndex,rndRat5.ran,trials_FC_H.thisRepN,trials_FC_H.thisTrialN,trials_FC_H.thisN,trials_FC_H.thisIndex,trials_FC_H.ran
SUPAMT88382,3PWWM24LHYX3X620SOD722RDAM082B,85E18216-5F58-439E-A47C-BFFFFBC2C704,2023-09-27_12h59.15.578,WP_VExplicitOC_LH,2022.2.5,Win32,5.374581454,NA,NA,NA,NA,NA,NA,NA,NA,NA,NA,NA,NA,NA,NA,NA,NA,NA,NA,NA,NA,NA,NA,NA,NA,NA,NA,NA,NA,NA,NA,NA,NA,NA,NA,NA,NA,NA,NA,NA,NA,NA,NA,NA,NA,NA,NA,NA,NA,NA,NA,NA,NA,NA,NA,NA,NA,NA,NA,NA
SUPAMT88382,3PWWM24LHYX3X620SOD722RDAM082B,85E18216-5F58-439E-A47C-BFFFFBC2C704,2023-09-27_12h59.15.578,WP_VExplicitOC_LH,2022.2.5,Win32,5.374581454,NA,NA,NA,NA,NA,NA,NA,NA,NA,NA,NA,NA,NA,NA,NA,NA,NA,NA,NA,NA,NA,NA,NA,NA,NA,NA,NA,NA,NA,NA,NA,NA,NA,NA,NA,NA,NA,NA,NA,NA,NA,NA,NA,NA,NA,NA,NA,NA,NA,NA,NA,NA,NA,NA,NA,NA,NA,NA,NA
SUPAMT88382,3PWWM24LHYX3X620SOD722RDAM082B,85E18216-5F58-439E-A47C-BFFFFBC2C704,2023-09-27_12h59.15.578,WP_VExplicitOC_LH,2022.2.5,Win32,5.374581454,NA,NA,NA,NA,NA,NA,NA,NA,NA,NA,NA,NA,NA,NA,NA,NA,NA,NA,NA,NA,NA,NA,NA,NA,NA,NA,NA,NA,NA,NA,NA,NA,NA,NA,NA,NA,NA,NA,NA,NA,NA,NA,NA,NA,NA,NA,NA,NA,NA,NA,NA,NA,NA,NA,NA,NA,NA,NA,NA
SUPAMT88382,3PWWM24LHYX3X620SOD722RDAM082B,85E18216-5F58-439E-A47C-BFFFFBC2C704,2023-09-27_12h59.15.578,WP_VExplicitOC_LH,2022.2.5,Win32,5.374581454,71.8518575,7.1119,2.1674,0,0,0,1,1,frustrated,"frustrated, not frustrated","more frustrated, less frustrated",NA,NA,NA,NA,NA,NA,NA,NA,NA,NA,NA,NA,NA,NA,NA,NA,NA,NA,NA,NA,NA,NA,NA,NA,NA,NA,NA,NA,NA,NA,NA,NA,NA,NA,NA,NA,NA,NA,NA,NA,NA,NA,NA,NA,NA,NA,NA,NA
SUPAMT88382,3PWWM24LHYX3X620SOD722RDAM082B,85E18216-5F58-439E-A47C-BFFFFBC2C704,2023-09-27_12h59.15.578,WP_VExplicitOC_LH,2022.2.5,Win32,5.374581454,NA,NA,2.108,0,1,1,2,1,bored,"bored, not bored","more bored, less bored",NA,NA,NA,NA,NA,NA,NA,NA,NA,NA,NA,NA,NA,NA,NA,NA,NA,NA,NA,NA,NA,NA,NA,NA,NA,NA,NA,NA,NA,NA,NA,NA,NA,NA,NA,NA,NA,NA,NA,NA,NA,NA,NA,NA,NA,NA,NA,NA
SUPAMT88382,3PWWM24LHYX3X620SOD722RDAM082B,85E18216-5F58-439E-A47C-BFFFFBC2C704,2023-09-27_12h59.15.578,WP_VExplicitOC_LH,2022.2.5,Win32,5.374581454,78.51852417,2.581,2.0456,0,2,2,0,1,happy,"unhappy, happy","less happy, more happy",NA,NA,NA,NA,NA,NA,NA,NA,NA,NA,NA,NA,NA,NA,NA,NA,NA,NA,NA,NA,NA,NA,NA,NA,NA,NA,NA,NA,NA,NA,NA,NA,NA,NA,NA,NA,NA,NA,NA,NA,NA,NA,NA,NA,NA,NA,NA,NA
SUPAMT88382,3PWWM24LHYX3X620SOD722RDAM082B,85E18216-5F58-439E-A47C-BFFFFBC2C704,2023-09-27_12h59.15.578,WP_VExplicitOC_LH,2022.2.5,Win32,5.374581454,NA,NA,NA,NA,NA,NA,NA,NA,NA,NA,NA,NA,NA,NA,NA,NA,NA,NA,NA,NA,NA,NA,NA,NA,NA,NA,NA,NA,NA,NA,NA,NA,NA,NA,NA,NA,NA,NA,NA,NA,NA,NA,NA,NA,NA,NA,NA,NA,NA,NA,NA,NA,NA,NA,NA,NA,NA,NA,NA
SUPAMT88382,3PWWM24LHYX3X620SOD722RDAM082B,85E18216-5F58-439E-A47C-BFFFFBC2C704,2023-09-27_12h59.15.578,WP_VExplicitOC_LH,2022.2.5,Win32,5.374581454,NA,NA,NA,NA,NA,NA,NA,NA,NA,NA,NA,NA,NA,NA,NA,NA,NA,NA,NA,NA,NA,NA,NA,NA,NA,NA,NA,NA,NA,NA,NA,NA,NA,NA,NA,NA,NA,NA,NA,NA,NA,NA,NA,NA,NA,NA,NA,NA,NA,NA,NA,NA,NA,NA,NA,NA,NA,NA,NA
SUPAMT88382,3PWWM24LHYX3X620SOD722RDAM082B,85E18216-5F58-439E-A47C-BFFFFBC2C704,2023-09-27_12h59.15.578,WP_VExplicitOC_LH,2022.2.5,Win32,5.374581454,NA,NA,NA,NA,NA,NA,NA,NA,NA,NA,NA,NA,NA,NA,NA,NA,NA,NA,NA,NA,NA,NA,NA,NA,NA,NA,NA,NA,NA,NA,NA,NA,NA,NA,NA,NA,NA,NA,NA,NA,NA,NA,NA,NA,NA,NA,NA,NA,NA,NA,NA,NA,NA,NA,NA,NA,NA,NA,NA
SUPAMT88382,3PWWM24LHYX3X620SOD722RDAM082B,85E18216-5F58-439E-A47C-BFFFFBC2C704,2023-09-27_12h59.15.578,WP_VExplicitOC_LH,2022.2.5,Win32,5.374581454,NA,NA,NA,NA,NA,NA,NA,NA,NA,NA,NA,NA,NA,NA,NA,NA,NA,NA,NA,NA,NA,NA,NA,NA,NA,NA,NA,NA,NA,NA,NA,NA,NA,NA,NA,NA,NA,NA,NA,NA,NA,NA,NA,NA,NA,NA,NA,NA,NA,NA,NA,NA,NA,NA,NA,NA,NA,NA,NA
SUPAMT88382,3PWWM24LHYX3X620SOD722RDAM082B,85E18216-5F58-439E-A47C-BFFFFBC2C704,2023-09-27_12h59.15.578,WP_VExplicitOC_LH,2022.2.5,Win32,5.374581454,NA,NA,NA,NA,NA,NA,NA,NA,NA,NA,NA,NA,NA,0,0,0,0,1,rest (looking at a fixed cross),001.png,NA,NA,NA,NA,NA,NA,NA,NA,NA,NA,NA,NA,NA,NA,NA,NA,NA,NA,NA,NA,NA,NA,NA,NA,NA,NA,NA,NA,NA,NA,NA,NA,NA,NA,NA,NA,NA,NA,NA
SUPAMT88382,3PWWM24LHYX3X620SOD722RDAM082B,85E18216-5F58-439E-A47C-BFFFFBC2C704,2023-09-27_12h59.15.578,WP_VExplicitOC_LH,2022.2.5,Win32,5.374581454,NA,NA,NA,NA,NA,NA,NA,NA,NA,NA,NA,47.77777778,5.9946,0,1,1,1,1,stand up,002.png,NA,NA,NA,NA,NA,NA,NA,NA,NA,NA,NA,NA,NA,NA,NA,NA,NA,NA,NA,NA,NA,NA,NA,NA,NA,NA,NA,NA,NA,NA,NA,NA,NA,NA,NA,NA,NA,NA,NA
SUPAMT88382,3PWWM24LHYX3X620SOD722RDAM082B,85E18216-5F58-439E-A47C-BFFFFBC2C704,2023-09-27_12h59.15.578,WP_VExplicitOC_LH,2022.2.5,Win32,5.374581454,NA,NA,NA,NA,NA,NA,NA,NA,NA,NA,NA,27.77777778,2.7493,0,2,2,2,1,stretch,003.png,NA,NA,NA,NA,NA,NA,NA,NA,NA,NA,NA,NA,NA,NA,NA,NA,NA,NA,NA,NA,NA,NA,NA,NA,NA,NA,NA,NA,NA,NA,NA,NA,NA,NA,NA,NA,NA,NA,NA
SUPAMT88382,3PWWM24LHYX3X620SOD722RDAM082B,85E18216-5F58-439E-A47C-BFFFFBC2C704,2023-09-27_12h59.15.578,WP_VExplicitOC_LH,2022.2.5,Win32,5.374581454,NA,NA,NA,NA,NA,NA,NA,NA,NA,NA,NA,-28.70369805,3.6349,0,3,3,3,1,make a drink,004.png,NA,NA,NA,NA,NA,NA,NA,NA,NA,NA,NA,NA,NA,NA,NA,NA,NA,NA,NA,NA,NA,NA,NA,NA,NA,NA,NA,NA,NA,NA,NA,NA,NA,NA,NA,NA,NA,NA,NA
SUPAMT88382,3PWWM24LHYX3X620SOD722RDAM082B,85E18216-5F58-439E-A47C-BFFFFBC2C704,2023-09-27_12h59.15.578,WP_VExplicitOC_LH,2022.2.5,Win32,5.374581454,NA,NA,NA,NA,NA,NA,NA,NA,NA,NA,NA,-48.33333333,2.7931,0,4,4,4,1,scroll social media,005.png,NA,NA,NA,NA,NA,NA,NA,NA,NA,NA,NA,NA,NA,NA,NA,NA,NA,NA,NA,NA,NA,NA,NA,NA,NA,NA,NA,NA,NA,NA,NA,NA,NA,NA,NA,NA,NA,NA,NA
SUPAMT88382,3PWWM24LHYX3X620SOD722RDAM082B,85E18216-5F58-439E-A47C-BFFFFBC2C704,2023-09-27_12h59.15.578,WP_VExplicitOC_LH,2022.2.5,Win32,5.374581454,NA,NA,NA,NA,NA,NA,NA,NA,NA,NA,NA,32.22222222,4.2194,0,5,5,5,1,listen to music,006.png,NA,NA,NA,NA,NA,NA,NA,NA,NA,NA,NA,NA,NA,NA,NA,NA,NA,NA,NA,NA,NA,NA,NA,NA,NA,NA,NA,NA,NA,NA,NA,NA,NA,NA,NA,NA,NA,NA,NA
SUPAMT88382,3PWWM24LHYX3X620SOD722RDAM082B,85E18216-5F58-439E-A47C-BFFFFBC2C704,2023-09-27_12h59.15.578,WP_VExplicitOC_LH,2022.2.5,Win32,5.374581454,NA,NA,NA,NA,NA,NA,NA,NA,NA,NA,NA,-51.85184903,5.5584,0,6,6,6,1,daydream,007.png,NA,NA,NA,NA,NA,NA,NA,NA,NA,NA,NA,NA,NA,NA,NA,NA,NA,NA,NA,NA,NA,NA,NA,NA,NA,NA,NA,NA,NA,NA,NA,NA,NA,NA,NA,NA,NA,NA,NA
SUPAMT88382,3PWWM24LHYX3X620SOD722RDAM082B,85E18216-5F58-439E-A47C-BFFFFBC2C704,2023-09-27_12h59.15.578,WP_VExplicitOC_LH,2022.2.5,Win32,5.374581454,NA,NA,NA,NA,NA,NA,NA,NA,NA,NA,NA,-35,3.338,0,7,7,7,1,watch a short animation,008.png,NA,NA,NA,NA,NA,NA,NA,NA,NA,NA,NA,NA,NA,NA,NA,NA,NA,NA,NA,NA,NA,NA,NA,NA,NA,NA,NA,NA,NA,NA,NA,NA,NA,NA,NA,NA,NA,NA,NA
SUPAMT88382,3PWWM24LHYX3X620SOD722RDAM082B,85E18216-5F58-439E-A47C-BFFFFBC2C704,2023-09-27_12h59.15.578,WP_VExplicitOC_LH,2022.2.5,Win32,5.374581454,NA,NA,NA,NA,NA,NA,NA,NA,NA,NA,NA,51.29630195,2.4978,0,8,8,8,1,read a novel,009.png,NA,NA,NA,NA,NA,NA,NA,NA,NA,NA,NA,NA,NA,NA,NA,NA,NA,NA,NA,NA,NA,NA,NA,NA,NA,NA,NA,NA,NA,NA,NA,NA,NA,NA,NA,NA,NA,NA,NA
SUPAMT88382,3PWWM24LHYX3X620SOD722RDAM082B,85E18216-5F58-439E-A47C-BFFFFBC2C704,2023-09-27_12h59.15.578,WP_VExplicitOC_LH,2022.2.5,Win32,5.374581454,NA,NA,NA,NA,NA,NA,NA,NA,NA,NA,NA,51.29630195,1.7547,0,9,9,9,1,read the news,010.png,NA,NA,NA,NA,NA,NA,NA,NA,NA,NA,NA,NA,NA,NA,NA,NA,NA,NA,NA,NA,NA,NA,NA,NA,NA,NA,NA,NA,NA,NA,NA,NA,NA,NA,NA,NA,NA,NA,NA
SUPAMT88382,3PWWM24LHYX3X620SOD722RDAM082B,85E18216-5F58-439E-A47C-BFFFFBC2C704,2023-09-27_12h59.15.578,WP_VExplicitOC_LH,2022.2.5,Win32,5.374581454,NA,NA,NA,NA,NA,NA,NA,NA,NA,NA,NA,NA,NA,NA,NA,NA,NA,NA,NA,NA,NA,NA,NA,NA,NA,NA,NA,NA,NA,NA,NA,NA,NA,NA,NA,NA,NA,NA,NA,NA,NA,NA,NA,NA,NA,NA,NA,NA,NA,NA,NA,NA,NA,NA,NA,NA,NA,NA,NA
SUPAMT88382,3PWWM24LHYX3X620SOD722RDAM082B,85E18216-5F58-439E-A47C-BFFFFBC2C704,2023-09-27_12h59.15.578,WP_VExplicitOC_LH,2022.2.5,Win32,5.374581454,NA,NA,NA,NA,NA,NA,NA,NA,NA,NA,NA,NA,NA,NA,NA,NA,NA,NA,NA,NA,listen to music,NA,NA,NA,NA,NA,NA,NA,NA,NA,NA,NA,NA,NA,NA,NA,NA,NA,NA,NA,NA,NA,NA,NA,NA,NA,NA,NA,NA,NA,NA,NA,NA,NA,NA,NA,NA,NA,NA
SUPAMT88382,3PWWM24LHYX3X620SOD722RDAM082B,85E18216-5F58-439E-A47C-BFFFFBC2C704,2023-09-27_12h59.15.578,WP_VExplicitOC_LH,2022.2.5,Win32,5.374581454,54.07407973,7.0224,2.2531,NA,NA,NA,NA,NA,bored,"bored, not bored","more bored, less bored",NA,NA,NA,NA,NA,NA,NA,NA,NA,NA,0,0,0,2,1,NA,NA,NA,NA,NA,NA,NA,NA,NA,NA,NA,NA,NA,NA,NA,NA,NA,NA,NA,NA,NA,NA,NA,NA,NA,NA,NA,NA,NA,NA,NA,NA,NA
SUPAMT88382,3PWWM24LHYX3X620SOD722RDAM082B,85E18216-5F58-439E-A47C-BFFFFBC2C704,2023-09-27_12h59.15.578,WP_VExplicitOC_LH,2022.2.5,Win32,5.374581454,84.25927056,4.932,2.0725,NA,NA,NA,NA,NA,frustrated,"frustrated, not frustrated","more frustrated, less frustrated",NA,NA,NA,NA,NA,NA,NA,NA,NA,NA,0,1,1,1,1,NA,NA,NA,NA,NA,NA,NA,NA,NA,NA,NA,NA,NA,NA,NA,NA,NA,NA,NA,NA,NA,NA,NA,NA,NA,NA,NA,NA,NA,NA,NA,NA,NA
SUPAMT88382,3PWWM24LHYX3X620SOD722RDAM082B,85E18216-5F58-439E-A47C-BFFFFBC2C704,2023-09-27_12h59.15.578,WP_VExplicitOC_LH,2022.2.5,Win32,5.374581454,84.25927056,3.4976,2.0407,NA,NA,NA,NA,NA,happy,"unhappy, happy","less happy, more happy",NA,NA,NA,NA,NA,NA,NA,NA,NA,NA,0,2,2,0,1,NA,NA,NA,NA,NA,NA,NA,NA,NA,NA,NA,NA,NA,NA,NA,NA,NA,NA,NA,NA,NA,NA,NA,NA,NA,NA,NA,NA,NA,NA,NA,NA,NA
SUPAMT88382,3PWWM24LHYX3X620SOD722RDAM082B,85E18216-5F58-439E-A47C-BFFFFBC2C704,2023-09-27_12h59.15.578,WP_VExplicitOC_LH,2022.2.5,Win32,5.374581454,NA,NA,NA,NA,NA,NA,NA,NA,NA,NA,NA,NA,NA,NA,NA,NA,NA,NA,NA,NA,NA,NA,NA,NA,NA,NA,NA,NA,NA,NA,NA,NA,NA,NA,NA,NA,NA,NA,NA,NA,NA,NA,NA,NA,NA,NA,NA,NA,NA,NA,NA,NA,NA,NA,NA,NA,NA,NA,NA
SUPAMT88382,3PWWM24LHYX3X620SOD722RDAM082B,85E18216-5F58-439E-A47C-BFFFFBC2C704,2023-09-27_12h59.15.578,WP_VExplicitOC_LH,2022.2.5,Win32,5.374581454,NA,NA,NA,NA,NA,NA,NA,NA,NA,NA,NA,NA,NA,NA,NA,NA,NA,NA,NA,NA,NA,NA,NA,NA,NA,NA,NA,NA,NA,NA,NA,NA,NA,NA,NA,NA,NA,NA,NA,NA,NA,NA,NA,NA,NA,NA,NA,NA,NA,NA,NA,NA,NA,NA,NA,NA,NA,NA,NA
SUPAMT88382,3PWWM24LHYX3X620SOD722RDAM082B,85E18216-5F58-439E-A47C-BFFFFBC2C704,2023-09-27_12h59.15.578,WP_VExplicitOC_LH,2022.2.5,Win32,5.374581454,NA,NA,2.0247,NA,NA,NA,NA,NA,happy,"unhappy, happy","less happy, more happy",NA,NA,NA,NA,NA,NA,NA,NA,NA,NA,NA,NA,NA,NA,NA,0,0,0,0,1,NA,NA,NA,NA,NA,NA,NA,NA,NA,NA,NA,NA,NA,NA,NA,NA,NA,NA,NA,NA,NA,NA,NA,NA,NA,NA,NA,NA
SUPAMT88382,3PWWM24LHYX3X620SOD722RDAM082B,85E18216-5F58-439E-A47C-BFFFFBC2C704,2023-09-27_12h59.15.578,WP_VExplicitOC_LH,2022.2.5,Win32,5.374581454,NA,NA,2.0747,NA,NA,NA,NA,NA,bored,"bored, not bored","more bored, less bored",NA,NA,NA,NA,NA,NA,NA,NA,NA,NA,NA,NA,NA,NA,NA,0,1,1,2,1,NA,NA,NA,NA,NA,NA,NA,NA,NA,NA,NA,NA,NA,NA,NA,NA,NA,NA,NA,NA,NA,NA,NA,NA,NA,NA,NA,NA
SUPAMT88382,3PWWM24LHYX3X620SOD722RDAM082B,85E18216-5F58-439E-A47C-BFFFFBC2C704,2023-09-27_12h59.15.578,WP_VExplicitOC_LH,2022.2.5,Win32,5.374581454,NA,NA,2.0618,NA,NA,NA,NA,NA,frustrated,"frustrated, not frustrated","more frustrated, less frustrated",NA,NA,NA,NA,NA,NA,NA,NA,NA,NA,NA,NA,NA,NA,NA,0,2,2,1,1,NA,NA,NA,NA,NA,NA,NA,NA,NA,NA,NA,NA,NA,NA,NA,NA,NA,NA,NA,NA,NA,NA,NA,NA,NA,NA,NA,NA
SUPAMT88382,3PWWM24LHYX3X620SOD722RDAM082B,85E18216-5F58-439E-A47C-BFFFFBC2C704,2023-09-27_12h59.15.578,WP_VExplicitOC_LH,2022.2.5,Win32,5.374581454,NA,NA,NA,NA,NA,NA,NA,NA,NA,NA,NA,NA,NA,NA,NA,NA,NA,NA,NA,NA,NA,NA,NA,NA,NA,NA,NA,NA,NA,NA,NA,0,0,0,0,1,NA,NA,NA,NA,NA,NA,NA,NA,NA,NA,NA,NA,NA,NA,NA,NA,NA,NA,NA,NA,NA,NA,NA
SUPAMT88382,3PWWM24LHYX3X620SOD722RDAM082B,85E18216-5F58-439E-A47C-BFFFFBC2C704,2023-09-27_12h59.15.578,WP_VExplicitOC_LH,2022.2.5,Win32,5.374581454,79.44444444,5.3918,2.177,NA,NA,NA,NA,NA,frustrated,"frustrated, not frustrated","more frustrated, less frustrated",NA,NA,NA,NA,NA,NA,NA,NA,NA,NA,NA,NA,NA,NA,NA,0,0,0,1,1,NA,NA,NA,NA,NA,NA,NA,NA,NA,NA,NA,NA,NA,NA,NA,NA,NA,NA,NA,NA,NA,NA,NA,NA,NA,NA,NA,NA
SUPAMT88382,3PWWM24LHYX3X620SOD722RDAM082B,85E18216-5F58-439E-A47C-BFFFFBC2C704,2023-09-27_12h59.15.578,WP_VExplicitOC_LH,2022.2.5,Win32,5.374581454,83.14813911,4.7212,2.0641,NA,NA,NA,NA,NA,happy,"unhappy, happy","less happy, more happy",NA,NA,NA,NA,NA,NA,NA,NA,NA,NA,NA,NA,NA,NA,NA,0,1,1,0,1,NA,NA,NA,NA,NA,NA,NA,NA,NA,NA,NA,NA,NA,NA,NA,NA,NA,NA,NA,NA,NA,NA,NA,NA,NA,NA,NA,NA
SUPAMT88382,3PWWM24LHYX3X620SOD722RDAM082B,85E18216-5F58-439E-A47C-BFFFFBC2C704,2023-09-27_12h59.15.578,WP_VExplicitOC_LH,2022.2.5,Win32,5.374581454,57.59258355,5.1502,2.3139,NA,NA,NA,NA,NA,bored,"bored, not bored","more bored, less bored",NA,NA,NA,NA,NA,NA,NA,NA,NA,NA,NA,NA,NA,NA,NA,0,2,2,2,1,NA,NA,NA,NA,NA,NA,NA,NA,NA,NA,NA,NA,NA,NA,NA,NA,NA,NA,NA,NA,NA,NA,NA,NA,NA,NA,NA,NA
SUPAMT88382,3PWWM24LHYX3X620SOD722RDAM082B,85E18216-5F58-439E-A47C-BFFFFBC2C704,2023-09-27_12h59.15.578,WP_VExplicitOC_LH,2022.2.5,Win32,5.374581454,NA,NA,NA,NA,NA,NA,NA,NA,NA,NA,NA,NA,NA,NA,NA,NA,NA,NA,NA,NA,NA,NA,NA,NA,NA,NA,NA,NA,NA,NA,NA,1,0,1,0,1,NA,NA,NA,NA,NA,NA,NA,NA,NA,NA,NA,NA,NA,NA,NA,NA,NA,NA,NA,NA,NA,NA,NA
SUPAMT88382,3PWWM24LHYX3X620SOD722RDAM082B,85E18216-5F58-439E-A47C-BFFFFBC2C704,2023-09-27_12h59.15.578,WP_VExplicitOC_LH,2022.2.5,Win32,5.374581454,-18.33333333,5.4974,2.2662,NA,NA,NA,NA,NA,bored,"bored, not bored","more bored, less bored",NA,NA,NA,NA,NA,NA,NA,NA,NA,NA,NA,NA,NA,NA,NA,0,0,0,2,1,NA,NA,NA,NA,NA,NA,NA,NA,NA,NA,NA,NA,NA,NA,NA,NA,NA,NA,NA,NA,NA,NA,NA,NA,NA,NA,NA,NA
SUPAMT88382,3PWWM24LHYX3X620SOD722RDAM082B,85E18216-5F58-439E-A47C-BFFFFBC2C704,2023-09-27_12h59.15.578,WP_VExplicitOC_LH,2022.2.5,Win32,5.374581454,33.518514,4.5311,2.2217,NA,NA,NA,NA,NA,frustrated,"frustrated, not frustrated","more frustrated, less frustrated",NA,NA,NA,NA,NA,NA,NA,NA,NA,NA,NA,NA,NA,NA,NA,0,1,1,1,1,NA,NA,NA,NA,NA,NA,NA,NA,NA,NA,NA,NA,NA,NA,NA,NA,NA,NA,NA,NA,NA,NA,NA,NA,NA,NA,NA,NA
SUPAMT88382,3PWWM24LHYX3X620SOD722RDAM082B,85E18216-5F58-439E-A47C-BFFFFBC2C704,2023-09-27_12h59.15.578,WP_VExplicitOC_LH,2022.2.5,Win32,5.374581454,16.29629178,4.4321,2.2412,NA,NA,NA,NA,NA,happy,"unhappy, happy","less happy, more happy",NA,NA,NA,NA,NA,NA,NA,NA,NA,NA,NA,NA,NA,NA,NA,0,2,2,0,1,NA,NA,NA,NA,NA,NA,NA,NA,NA,NA,NA,NA,NA,NA,NA,NA,NA,NA,NA,NA,NA,NA,NA,NA,NA,NA,NA,NA
SUPAMT88382,3PWWM24LHYX3X620SOD722RDAM082B,85E18216-5F58-439E-A47C-BFFFFBC2C704,2023-09-27_12h59.15.578,WP_VExplicitOC_LH,2022.2.5,Win32,5.374581454,NA,NA,NA,NA,NA,NA,NA,NA,NA,NA,NA,NA,NA,NA,NA,NA,NA,NA,NA,NA,NA,NA,NA,NA,NA,NA,NA,NA,NA,NA,NA,2,0,2,0,1,NA,NA,NA,NA,NA,NA,NA,NA,NA,NA,NA,NA,NA,NA,NA,NA,NA,NA,NA,NA,NA,NA,NA
SUPAMT88382,3PWWM24LHYX3X620SOD722RDAM082B,85E18216-5F58-439E-A47C-BFFFFBC2C704,2023-09-27_12h59.15.578,WP_VExplicitOC_LH,2022.2.5,Win32,5.374581454,NA,NA,2.0708,NA,NA,NA,NA,NA,bored,"bored, not bored","more bored, less bored",NA,NA,NA,NA,NA,NA,NA,NA,NA,NA,NA,NA,NA,NA,NA,0,0,0,2,1,NA,NA,NA,NA,NA,NA,NA,NA,NA,NA,NA,NA,NA,NA,NA,NA,NA,NA,NA,NA,NA,NA,NA,NA,NA,NA,NA,NA
SUPAMT88382,3PWWM24LHYX3X620SOD722RDAM082B,85E18216-5F58-439E-A47C-BFFFFBC2C704,2023-09-27_12h59.15.578,WP_VExplicitOC_LH,2022.2.5,Win32,5.374581454,NA,NA,2.1337,NA,NA,NA,NA,NA,happy,"unhappy, happy","less happy, more happy",NA,NA,NA,NA,NA,NA,NA,NA,NA,NA,NA,NA,NA,NA,NA,0,1,1,0,1,NA,NA,NA,NA,NA,NA,NA,NA,NA,NA,NA,NA,NA,NA,NA,NA,NA,NA,NA,NA,NA,NA,NA,NA,NA,NA,NA,NA
SUPAMT88382,3PWWM24LHYX3X620SOD722RDAM082B,85E18216-5F58-439E-A47C-BFFFFBC2C704,2023-09-27_12h59.15.578,WP_VExplicitOC_LH,2022.2.5,Win32,5.374581454,NA,NA,2.2809,NA,NA,NA,NA,NA,frustrated,"frustrated, not frustrated","more frustrated, less frustrated",NA,NA,NA,NA,NA,NA,NA,NA,NA,NA,NA,NA,NA,NA,NA,0,2,2,1,1,NA,NA,NA,NA,NA,NA,NA,NA,NA,NA,NA,NA,NA,NA,NA,NA,NA,NA,NA,NA,NA,NA,NA,NA,NA,NA,NA,NA
SUPAMT88382,3PWWM24LHYX3X620SOD722RDAM082B,85E18216-5F58-439E-A47C-BFFFFBC2C704,2023-09-27_12h59.15.578,WP_VExplicitOC_LH,2022.2.5,Win32,5.374581454,NA,NA,NA,NA,NA,NA,NA,NA,NA,NA,NA,NA,NA,NA,NA,NA,NA,NA,NA,NA,NA,NA,NA,NA,NA,NA,NA,NA,NA,NA,NA,3,0,3,0,1,NA,NA,NA,NA,NA,NA,NA,NA,NA,NA,NA,NA,NA,NA,NA,NA,NA,NA,NA,NA,NA,NA,NA
SUPAMT88382,3PWWM24LHYX3X620SOD722RDAM082B,85E18216-5F58-439E-A47C-BFFFFBC2C704,2023-09-27_12h59.15.578,WP_VExplicitOC_LH,2022.2.5,Win32,5.374581454,53.70369466,5.1872,2.1679,NA,NA,NA,NA,NA,frustrated,"frustrated, not frustrated","more frustrated, less frustrated",NA,NA,NA,NA,NA,NA,NA,NA,NA,NA,NA,NA,NA,NA,NA,0,0,0,1,1,NA,NA,NA,NA,NA,NA,NA,NA,NA,NA,NA,NA,NA,NA,NA,NA,NA,NA,NA,NA,NA,NA,NA,NA,NA,NA,NA,NA
SUPAMT88382,3PWWM24LHYX3X620SOD722RDAM082B,85E18216-5F58-439E-A47C-BFFFFBC2C704,2023-09-27_12h59.15.578,WP_VExplicitOC_LH,2022.2.5,Win32,5.374581454,31.29629178,4.359,2.1745,NA,NA,NA,NA,NA,happy,"unhappy, happy","less happy, more happy",NA,NA,NA,NA,NA,NA,NA,NA,NA,NA,NA,NA,NA,NA,NA,0,1,1,0,1,NA,NA,NA,NA,NA,NA,NA,NA,NA,NA,NA,NA,NA,NA,NA,NA,NA,NA,NA,NA,NA,NA,NA,NA,NA,NA,NA,NA
SUPAMT88382,3PWWM24LHYX3X620SOD722RDAM082B,85E18216-5F58-439E-A47C-BFFFFBC2C704,2023-09-27_12h59.15.578,WP_VExplicitOC_LH,2022.2.5,Win32,5.374581454,39.44444444,5.1079,2.2024,NA,NA,NA,NA,NA,bored,"bored, not bored","more bored, less bored",NA,NA,NA,NA,NA,NA,NA,NA,NA,NA,NA,NA,NA,NA,NA,0,2,2,2,1,NA,NA,NA,NA,NA,NA,NA,NA,NA,NA,NA,NA,NA,NA,NA,NA,NA,NA,NA,NA,NA,NA,NA,NA,NA,NA,NA,NA
SUPAMT88382,3PWWM24LHYX3X620SOD722RDAM082B,85E18216-5F58-439E-A47C-BFFFFBC2C704,2023-09-27_12h59.15.578,WP_VExplicitOC_LH,2022.2.5,Win32,5.374581454,NA,NA,NA,NA,NA,NA,NA,NA,NA,NA,NA,NA,NA,NA,NA,NA,NA,NA,NA,NA,NA,NA,NA,NA,NA,NA,NA,NA,NA,NA,NA,4,0,4,0,1,NA,NA,NA,NA,NA,NA,NA,NA,NA,NA,NA,NA,NA,NA,NA,NA,NA,NA,NA,NA,NA,NA,NA
SUPAMT88382,3PWWM24LHYX3X620SOD722RDAM082B,85E18216-5F58-439E-A47C-BFFFFBC2C704,2023-09-27_12h59.15.578,WP_VExplicitOC_LH,2022.2.5,Win32,5.374581454,-41.85186089,5.4256,2.0628,NA,NA,NA,NA,NA,bored,"bored, not bored","more bored, less bored",NA,NA,NA,NA,NA,NA,NA,NA,NA,NA,NA,NA,NA,NA,NA,0,0,0,2,1,NA,NA,NA,NA,NA,NA,NA,NA,NA,NA,NA,NA,NA,NA,NA,NA,NA,NA,NA,NA,NA,NA,NA,NA,NA,NA,NA,NA
SUPAMT88382,3PWWM24LHYX3X620SOD722RDAM082B,85E18216-5F58-439E-A47C-BFFFFBC2C704,2023-09-27_12h59.15.578,WP_VExplicitOC_LH,2022.2.5,Win32,5.374581454,100,4.3594,2.2355,NA,NA,NA,NA,NA,happy,"unhappy, happy","less happy, more happy",NA,NA,NA,NA,NA,NA,NA,NA,NA,NA,NA,NA,NA,NA,NA,0,1,1,0,1,NA,NA,NA,NA,NA,NA,NA,NA,NA,NA,NA,NA,NA,NA,NA,NA,NA,NA,NA,NA,NA,NA,NA,NA,NA,NA,NA,NA
SUPAMT88382,3PWWM24LHYX3X620SOD722RDAM082B,85E18216-5F58-439E-A47C-BFFFFBC2C704,2023-09-27_12h59.15.578,WP_VExplicitOC_LH,2022.2.5,Win32,5.374581454,50.92591688,5.759,2.2784,NA,NA,NA,NA,NA,frustrated,"frustrated, not frustrated","more frustrated, less frustrated",NA,NA,NA,NA,NA,NA,NA,NA,NA,NA,NA,NA,NA,NA,NA,0,2,2,1,1,NA,NA,NA,NA,NA,NA,NA,NA,NA,NA,NA,NA,NA,NA,NA,NA,NA,NA,NA,NA,NA,NA,NA,NA,NA,NA,NA,NA
SUPAMT88382,3PWWM24LHYX3X620SOD722RDAM082B,85E18216-5F58-439E-A47C-BFFFFBC2C704,2023-09-27_12h59.15.578,WP_VExplicitOC_LH,2022.2.5,Win32,5.374581454,NA,NA,NA,NA,NA,NA,NA,NA,NA,NA,NA,NA,NA,NA,NA,NA,NA,NA,NA,NA,NA,NA,NA,NA,NA,NA,NA,NA,NA,NA,NA,5,0,5,0,1,NA,NA,NA,NA,NA,NA,NA,NA,NA,NA,NA,NA,NA,NA,NA,NA,NA,NA,NA,NA,NA,NA,NA
SUPAMT88382,3PWWM24LHYX3X620SOD722RDAM082B,85E18216-5F58-439E-A47C-BFFFFBC2C704,2023-09-27_12h59.15.578,WP_VExplicitOC_LH,2022.2.5,Win32,5.374581454,NA,NA,2.0283,NA,NA,NA,NA,NA,frustrated,"frustrated, not frustrated","more frustrated, less frustrated",NA,NA,NA,NA,NA,NA,NA,NA,NA,NA,NA,NA,NA,NA,NA,0,0,0,1,1,NA,NA,NA,NA,NA,NA,NA,NA,NA,NA,NA,NA,NA,NA,NA,NA,NA,NA,NA,NA,NA,NA,NA,NA,NA,NA,NA,NA
SUPAMT88382,3PWWM24LHYX3X620SOD722RDAM082B,85E18216-5F58-439E-A47C-BFFFFBC2C704,2023-09-27_12h59.15.578,WP_VExplicitOC_LH,2022.2.5,Win32,5.374581454,-73.70370822,4.9232,2.0747,NA,NA,NA,NA,NA,happy,"unhappy, happy","less happy, more happy",NA,NA,NA,NA,NA,NA,NA,NA,NA,NA,NA,NA,NA,NA,NA,0,1,1,0,1,NA,NA,NA,NA,NA,NA,NA,NA,NA,NA,NA,NA,NA,NA,NA,NA,NA,NA,NA,NA,NA,NA,NA,NA,NA,NA,NA,NA
SUPAMT88382,3PWWM24LHYX3X620SOD722RDAM082B,85E18216-5F58-439E-A47C-BFFFFBC2C704,2023-09-27_12h59.15.578,WP_VExplicitOC_LH,2022.2.5,Win32,5.374581454,45,7.5754,2.2459,NA,NA,NA,NA,NA,bored,"bored, not bored","more bored, less bored",NA,NA,NA,NA,NA,NA,NA,NA,NA,NA,NA,NA,NA,NA,NA,0,2,2,2,1,NA,NA,NA,NA,NA,NA,NA,NA,NA,NA,NA,NA,NA,NA,NA,NA,NA,NA,NA,NA,NA,NA,NA,NA,NA,NA,NA,NA
SUPAMT88382,3PWWM24LHYX3X620SOD722RDAM082B,85E18216-5F58-439E-A47C-BFFFFBC2C704,2023-09-27_12h59.15.578,WP_VExplicitOC_LH,2022.2.5,Win32,5.374581454,NA,NA,NA,NA,NA,NA,NA,NA,NA,NA,NA,NA,NA,NA,NA,NA,NA,NA,NA,NA,NA,NA,NA,NA,NA,NA,NA,NA,NA,NA,NA,6,0,6,0,1,NA,NA,NA,NA,NA,NA,NA,NA,NA,NA,NA,NA,NA,NA,NA,NA,NA,NA,NA,NA,NA,NA,NA
SUPAMT88382,3PWWM24LHYX3X620SOD722RDAM082B,85E18216-5F58-439E-A47C-BFFFFBC2C704,2023-09-27_12h59.15.578,WP_VExplicitOC_LH,2022.2.5,Win32,5.374581454,NA,NA,2.0681,NA,NA,NA,NA,NA,happy,"unhappy, happy","less happy, more happy",NA,NA,NA,NA,NA,NA,NA,NA,NA,NA,NA,NA,NA,NA,NA,0,0,0,0,1,NA,NA,NA,NA,NA,NA,NA,NA,NA,NA,NA,NA,NA,NA,NA,NA,NA,NA,NA,NA,NA,NA,NA,NA,NA,NA,NA,NA
SUPAMT88382,3PWWM24LHYX3X620SOD722RDAM082B,85E18216-5F58-439E-A47C-BFFFFBC2C704,2023-09-27_12h59.15.578,WP_VExplicitOC_LH,2022.2.5,Win32,5.374581454,-39.44444444,6.9736,2.1971,NA,NA,NA,NA,NA,bored,"bored, not bored","more bored, less bored",NA,NA,NA,NA,NA,NA,NA,NA,NA,NA,NA,NA,NA,NA,NA,0,1,1,2,1,NA,NA,NA,NA,NA,NA,NA,NA,NA,NA,NA,NA,NA,NA,NA,NA,NA,NA,NA,NA,NA,NA,NA,NA,NA,NA,NA,NA
SUPAMT88382,3PWWM24LHYX3X620SOD722RDAM082B,85E18216-5F58-439E-A47C-BFFFFBC2C704,2023-09-27_12h59.15.578,WP_VExplicitOC_LH,2022.2.5,Win32,5.374581454,NA,NA,2.2151,NA,NA,NA,NA,NA,frustrated,"frustrated, not frustrated","more frustrated, less frustrated",NA,NA,NA,NA,NA,NA,NA,NA,NA,NA,NA,NA,NA,NA,NA,0,2,2,1,1,NA,NA,NA,NA,NA,NA,NA,NA,NA,NA,NA,NA,NA,NA,NA,NA,NA,NA,NA,NA,NA,NA,NA,NA,NA,NA,NA,NA
SUPAMT88382,3PWWM24LHYX3X620SOD722RDAM082B,85E18216-5F58-439E-A47C-BFFFFBC2C704,2023-09-27_12h59.15.578,WP_VExplicitOC_LH,2022.2.5,Win32,5.374581454,NA,NA,NA,NA,NA,NA,NA,NA,NA,NA,NA,NA,NA,NA,NA,NA,NA,NA,NA,NA,NA,NA,NA,NA,NA,NA,NA,NA,NA,NA,NA,7,0,7,0,1,NA,NA,NA,NA,NA,NA,NA,NA,NA,NA,NA,NA,NA,NA,NA,NA,NA,NA,NA,NA,NA,NA,NA
SUPAMT88382,3PWWM24LHYX3X620SOD722RDAM082B,85E18216-5F58-439E-A47C-BFFFFBC2C704,2023-09-27_12h59.15.578,WP_VExplicitOC_LH,2022.2.5,Win32,5.374581454,NA,NA,2.3112,NA,NA,NA,NA,NA,bored,"bored, not bored","more bored, less bored",NA,NA,NA,NA,NA,NA,NA,NA,NA,NA,NA,NA,NA,NA,NA,0,0,0,2,1,NA,NA,NA,NA,NA,NA,NA,NA,NA,NA,NA,NA,NA,NA,NA,NA,NA,NA,NA,NA,NA,NA,NA,NA,NA,NA,NA,NA
SUPAMT88382,3PWWM24LHYX3X620SOD722RDAM082B,85E18216-5F58-439E-A47C-BFFFFBC2C704,2023-09-27_12h59.15.578,WP_VExplicitOC_LH,2022.2.5,Win32,5.374581454,39.25925022,7.0813,2.2534,NA,NA,NA,NA,NA,happy,"unhappy, happy","less happy, more happy",NA,NA,NA,NA,NA,NA,NA,NA,NA,NA,NA,NA,NA,NA,NA,0,1,1,0,1,NA,NA,NA,NA,NA,NA,NA,NA,NA,NA,NA,NA,NA,NA,NA,NA,NA,NA,NA,NA,NA,NA,NA,NA,NA,NA,NA,NA
SUPAMT88382,3PWWM24LHYX3X620SOD722RDAM082B,85E18216-5F58-439E-A47C-BFFFFBC2C704,2023-09-27_12h59.15.578,WP_VExplicitOC_LH,2022.2.5,Win32,5.374581454,56.85183377,3.9831,2.0579,NA,NA,NA,NA,NA,frustrated,"frustrated, not frustrated","more frustrated, less frustrated",NA,NA,NA,NA,NA,NA,NA,NA,NA,NA,NA,NA,NA,NA,NA,0,2,2,1,1,NA,NA,NA,NA,NA,NA,NA,NA,NA,NA,NA,NA,NA,NA,NA,NA,NA,NA,NA,NA,NA,NA,NA,NA,NA,NA,NA,NA
SUPAMT88382,3PWWM24LHYX3X620SOD722RDAM082B,85E18216-5F58-439E-A47C-BFFFFBC2C704,2023-09-27_12h59.15.578,WP_VExplicitOC_LH,2022.2.5,Win32,5.374581454,NA,NA,NA,NA,NA,NA,NA,NA,NA,NA,NA,NA,NA,NA,NA,NA,NA,NA,NA,NA,NA,NA,NA,NA,NA,NA,NA,NA,NA,NA,NA,8,0,8,0,1,NA,NA,NA,NA,NA,NA,NA,NA,NA,NA,NA,NA,NA,NA,NA,NA,NA,NA,NA,NA,NA,NA,NA
SUPAMT88382,3PWWM24LHYX3X620SOD722RDAM082B,85E18216-5F58-439E-A47C-BFFFFBC2C704,2023-09-27_12h59.15.578,WP_VExplicitOC_LH,2022.2.5,Win32,5.374581454,NA,NA,2.0734,NA,NA,NA,NA,NA,bored,"bored, not bored","more bored, less bored",NA,NA,NA,NA,NA,NA,NA,NA,NA,NA,NA,NA,NA,NA,NA,0,0,0,2,1,NA,NA,NA,NA,NA,NA,NA,NA,NA,NA,NA,NA,NA,NA,NA,NA,NA,NA,NA,NA,NA,NA,NA,NA,NA,NA,NA,NA
SUPAMT88382,3PWWM24LHYX3X620SOD722RDAM082B,85E18216-5F58-439E-A47C-BFFFFBC2C704,2023-09-27_12h59.15.578,WP_VExplicitOC_LH,2022.2.5,Win32,5.374581454,NA,NA,2.0992,NA,NA,NA,NA,NA,happy,"unhappy, happy","less happy, more happy",NA,NA,NA,NA,NA,NA,NA,NA,NA,NA,NA,NA,NA,NA,NA,0,1,1,0,1,NA,NA,NA,NA,NA,NA,NA,NA,NA,NA,NA,NA,NA,NA,NA,NA,NA,NA,NA,NA,NA,NA,NA,NA,NA,NA,NA,NA
SUPAMT88382,3PWWM24LHYX3X620SOD722RDAM082B,85E18216-5F58-439E-A47C-BFFFFBC2C704,2023-09-27_12h59.15.578,WP_VExplicitOC_LH,2022.2.5,Win32,5.374581454,63.70369466,4.8789,2.2113,NA,NA,NA,NA,NA,frustrated,"frustrated, not frustrated","more frustrated, less frustrated",NA,NA,NA,NA,NA,NA,NA,NA,NA,NA,NA,NA,NA,NA,NA,0,2,2,1,1,NA,NA,NA,NA,NA,NA,NA,NA,NA,NA,NA,NA,NA,NA,NA,NA,NA,NA,NA,NA,NA,NA,NA,NA,NA,NA,NA,NA
SUPAMT88382,3PWWM24LHYX3X620SOD722RDAM082B,85E18216-5F58-439E-A47C-BFFFFBC2C704,2023-09-27_12h59.15.578,WP_VExplicitOC_LH,2022.2.5,Win32,5.374581454,NA,NA,NA,NA,NA,NA,NA,NA,NA,NA,NA,NA,NA,NA,NA,NA,NA,NA,NA,NA,NA,NA,NA,NA,NA,NA,NA,NA,NA,NA,NA,9,0,9,0,1,NA,NA,NA,NA,NA,NA,NA,NA,NA,NA,NA,NA,NA,NA,NA,NA,NA,NA,NA,NA,NA,NA,NA
SUPAMT88382,3PWWM24LHYX3X620SOD722RDAM082B,85E18216-5F58-439E-A47C-BFFFFBC2C704,2023-09-27_12h59.15.578,WP_VExplicitOC_LH,2022.2.5,Win32,5.374581454,76.48147244,6.5771,2.1902,NA,NA,NA,NA,NA,happy,"unhappy, happy","less happy, more happy",NA,NA,NA,NA,NA,NA,NA,NA,NA,NA,NA,NA,NA,NA,NA,0,0,0,0,1,NA,NA,NA,NA,NA,NA,NA,NA,NA,NA,NA,NA,NA,NA,NA,NA,NA,NA,NA,NA,NA,NA,NA,NA,NA,NA,NA,NA
SUPAMT88382,3PWWM24LHYX3X620SOD722RDAM082B,85E18216-5F58-439E-A47C-BFFFFBC2C704,2023-09-27_12h59.15.578,WP_VExplicitOC_LH,2022.2.5,Win32,5.374581454,46.85184733,5.0696,2.1896,NA,NA,NA,NA,NA,bored,"bored, not bored","more bored, less bored",NA,NA,NA,NA,NA,NA,NA,NA,NA,NA,NA,NA,NA,NA,NA,0,1,1,2,1,NA,NA,NA,NA,NA,NA,NA,NA,NA,NA,NA,NA,NA,NA,NA,NA,NA,NA,NA,NA,NA,NA,NA,NA,NA,NA,NA,NA
SUPAMT88382,3PWWM24LHYX3X620SOD722RDAM082B,85E18216-5F58-439E-A47C-BFFFFBC2C704,2023-09-27_12h59.15.578,WP_VExplicitOC_LH,2022.2.5,Win32,5.374581454,41.66666667,6.4938,2.0596,NA,NA,NA,NA,NA,frustrated,"frustrated, not frustrated","more frustrated, less frustrated",NA,NA,NA,NA,NA,NA,NA,NA,NA,NA,NA,NA,NA,NA,NA,0,2,2,1,1,NA,NA,NA,NA,NA,NA,NA,NA,NA,NA,NA,NA,NA,NA,NA,NA,NA,NA,NA,NA,NA,NA,NA,NA,NA,NA,NA,NA
SUPAMT88382,3PWWM24LHYX3X620SOD722RDAM082B,85E18216-5F58-439E-A47C-BFFFFBC2C704,2023-09-27_12h59.15.578,WP_VExplicitOC_LH,2022.2.5,Win32,5.374581454,NA,NA,NA,NA,NA,NA,NA,NA,NA,NA,NA,NA,NA,NA,NA,NA,NA,NA,NA,NA,NA,NA,NA,NA,NA,NA,NA,NA,NA,NA,NA,10,0,10,0,1,NA,NA,NA,NA,NA,NA,NA,NA,NA,NA,NA,NA,NA,NA,NA,NA,NA,NA,NA,NA,NA,NA,NA
SUPAMT88382,3PWWM24LHYX3X620SOD722RDAM082B,85E18216-5F58-439E-A47C-BFFFFBC2C704,2023-09-27_12h59.15.578,WP_VExplicitOC_LH,2022.2.5,Win32,5.374581454,100,5.7945,2.146,NA,NA,NA,NA,NA,happy,"unhappy, happy","less happy, more happy",NA,NA,NA,NA,NA,NA,NA,NA,NA,NA,NA,NA,NA,NA,NA,0,0,0,0,1,NA,NA,NA,NA,NA,NA,NA,NA,NA,NA,NA,NA,NA,NA,NA,NA,NA,NA,NA,NA,NA,NA,NA,NA,NA,NA,NA,NA
SUPAMT88382,3PWWM24LHYX3X620SOD722RDAM082B,85E18216-5F58-439E-A47C-BFFFFBC2C704,2023-09-27_12h59.15.578,WP_VExplicitOC_LH,2022.2.5,Win32,5.374581454,52.40738932,7.5083,2.148,NA,NA,NA,NA,NA,frustrated,"frustrated, not frustrated","more frustrated, less frustrated",NA,NA,NA,NA,NA,NA,NA,NA,NA,NA,NA,NA,NA,NA,NA,0,1,1,1,1,NA,NA,NA,NA,NA,NA,NA,NA,NA,NA,NA,NA,NA,NA,NA,NA,NA,NA,NA,NA,NA,NA,NA,NA,NA,NA,NA,NA
SUPAMT88382,3PWWM24LHYX3X620SOD722RDAM082B,85E18216-5F58-439E-A47C-BFFFFBC2C704,2023-09-27_12h59.15.578,WP_VExplicitOC_LH,2022.2.5,Win32,5.374581454,-70.37037489,6.3224,2.0899,NA,NA,NA,NA,NA,bored,"bored, not bored","more bored, less bored",NA,NA,NA,NA,NA,NA,NA,NA,NA,NA,NA,NA,NA,NA,NA,0,2,2,2,1,NA,NA,NA,NA,NA,NA,NA,NA,NA,NA,NA,NA,NA,NA,NA,NA,NA,NA,NA,NA,NA,NA,NA,NA,NA,NA,NA,NA
SUPAMT88382,3PWWM24LHYX3X620SOD722RDAM082B,85E18216-5F58-439E-A47C-BFFFFBC2C704,2023-09-27_12h59.15.578,WP_VExplicitOC_LH,2022.2.5,Win32,5.374581454,NA,NA,NA,NA,NA,NA,NA,NA,NA,NA,NA,NA,NA,NA,NA,NA,NA,NA,NA,NA,NA,NA,NA,NA,NA,NA,NA,NA,NA,NA,NA,11,0,11,0,1,NA,NA,NA,NA,NA,NA,NA,NA,NA,NA,NA,NA,NA,NA,NA,NA,NA,NA,NA,NA,NA,NA,NA
SUPAMT88382,3PWWM24LHYX3X620SOD722RDAM082B,85E18216-5F58-439E-A47C-BFFFFBC2C704,2023-09-27_12h59.15.578,WP_VExplicitOC_LH,2022.2.5,Win32,5.374581454,47.59258355,5.7972,2.1098,NA,NA,NA,NA,NA,frustrated,"frustrated, not frustrated","more frustrated, less frustrated",NA,NA,NA,NA,NA,NA,NA,NA,NA,NA,NA,NA,NA,NA,NA,0,0,0,1,1,NA,NA,NA,NA,NA,NA,NA,NA,NA,NA,NA,NA,NA,NA,NA,NA,NA,NA,NA,NA,NA,NA,NA,NA,NA,NA,NA,NA
SUPAMT88382,3PWWM24LHYX3X620SOD722RDAM082B,85E18216-5F58-439E-A47C-BFFFFBC2C704,2023-09-27_12h59.15.578,WP_VExplicitOC_LH,2022.2.5,Win32,5.374581454,65.92591688,5.119,2.3704,NA,NA,NA,NA,NA,happy,"unhappy, happy","less happy, more happy",NA,NA,NA,NA,NA,NA,NA,NA,NA,NA,NA,NA,NA,NA,NA,0,1,1,0,1,NA,NA,NA,NA,NA,NA,NA,NA,NA,NA,NA,NA,NA,NA,NA,NA,NA,NA,NA,NA,NA,NA,NA,NA,NA,NA,NA,NA
SUPAMT88382,3PWWM24LHYX3X620SOD722RDAM082B,85E18216-5F58-439E-A47C-BFFFFBC2C704,2023-09-27_12h59.15.578,WP_VExplicitOC_LH,2022.2.5,Win32,5.374581454,-48.14815267,6.1769,2.2159,NA,NA,NA,NA,NA,bored,"bored, not bored","more bored, less bored",NA,NA,NA,NA,NA,NA,NA,NA,NA,NA,NA,NA,NA,NA,NA,0,2,2,2,1,NA,NA,NA,NA,NA,NA,NA,NA,NA,NA,NA,NA,NA,NA,NA,NA,NA,NA,NA,NA,NA,NA,NA,NA,NA,NA,NA,NA
SUPAMT88382,3PWWM24LHYX3X620SOD722RDAM082B,85E18216-5F58-439E-A47C-BFFFFBC2C704,2023-09-27_12h59.15.578,WP_VExplicitOC_LH,2022.2.5,Win32,5.374581454,NA,NA,NA,NA,NA,NA,NA,NA,NA,NA,NA,NA,NA,NA,NA,NA,NA,NA,NA,NA,NA,NA,NA,NA,NA,NA,NA,NA,NA,NA,NA,12,0,12,0,1,NA,NA,NA,NA,NA,NA,NA,NA,NA,NA,NA,NA,NA,NA,NA,NA,NA,NA,NA,NA,NA,NA,NA
SUPAMT88382,3PWWM24LHYX3X620SOD722RDAM082B,85E18216-5F58-439E-A47C-BFFFFBC2C704,2023-09-27_12h59.15.578,WP_VExplicitOC_LH,2022.2.5,Win32,5.374581454,50.92591688,5.6183,2.1927,NA,NA,NA,NA,NA,frustrated,"frustrated, not frustrated","more frustrated, less frustrated",NA,NA,NA,NA,NA,NA,NA,NA,NA,NA,NA,NA,NA,NA,NA,0,0,0,1,1,NA,NA,NA,NA,NA,NA,NA,NA,NA,NA,NA,NA,NA,NA,NA,NA,NA,NA,NA,NA,NA,NA,NA,NA,NA,NA,NA,NA
SUPAMT88382,3PWWM24LHYX3X620SOD722RDAM082B,85E18216-5F58-439E-A47C-BFFFFBC2C704,2023-09-27_12h59.15.578,WP_VExplicitOC_LH,2022.2.5,Win32,5.374581454,38.88888889,6.749,2.0516,NA,NA,NA,NA,NA,bored,"bored, not bored","more bored, less bored",NA,NA,NA,NA,NA,NA,NA,NA,NA,NA,NA,NA,NA,NA,NA,0,1,1,2,1,NA,NA,NA,NA,NA,NA,NA,NA,NA,NA,NA,NA,NA,NA,NA,NA,NA,NA,NA,NA,NA,NA,NA,NA,NA,NA,NA,NA
SUPAMT88382,3PWWM24LHYX3X620SOD722RDAM082B,85E18216-5F58-439E-A47C-BFFFFBC2C704,2023-09-27_12h59.15.578,WP_VExplicitOC_LH,2022.2.5,Win32,5.374581454,90.74072266,5.8707,2.1303,NA,NA,NA,NA,NA,happy,"unhappy, happy","less happy, more happy",NA,NA,NA,NA,NA,NA,NA,NA,NA,NA,NA,NA,NA,NA,NA,0,2,2,0,1,NA,NA,NA,NA,NA,NA,NA,NA,NA,NA,NA,NA,NA,NA,NA,NA,NA,NA,NA,NA,NA,NA,NA,NA,NA,NA,NA,NA
SUPAMT88382,3PWWM24LHYX3X620SOD722RDAM082B,85E18216-5F58-439E-A47C-BFFFFBC2C704,2023-09-27_12h59.15.578,WP_VExplicitOC_LH,2022.2.5,Win32,5.374581454,NA,NA,NA,NA,NA,NA,NA,NA,NA,NA,NA,NA,NA,NA,NA,NA,NA,NA,NA,NA,NA,NA,NA,NA,NA,NA,NA,NA,NA,NA,NA,13,0,13,0,1,NA,NA,NA,NA,NA,NA,NA,NA,NA,NA,NA,NA,NA,NA,NA,NA,NA,NA,NA,NA,NA,NA,NA
SUPAMT88382,3PWWM24LHYX3X620SOD722RDAM082B,85E18216-5F58-439E-A47C-BFFFFBC2C704,2023-09-27_12h59.15.578,WP_VExplicitOC_LH,2022.2.5,Win32,5.374581454,39.81480577,5.7022,2.1485,NA,NA,NA,NA,NA,happy,"unhappy, happy","less happy, more happy",NA,NA,NA,NA,NA,NA,NA,NA,NA,NA,NA,NA,NA,NA,NA,0,0,0,0,1,NA,NA,NA,NA,NA,NA,NA,NA,NA,NA,NA,NA,NA,NA,NA,NA,NA,NA,NA,NA,NA,NA,NA,NA,NA,NA,NA,NA
SUPAMT88382,3PWWM24LHYX3X620SOD722RDAM082B,85E18216-5F58-439E-A47C-BFFFFBC2C704,2023-09-27_12h59.15.578,WP_VExplicitOC_LH,2022.2.5,Win32,5.374581454,NA,NA,2.2591,NA,NA,NA,NA,NA,frustrated,"frustrated, not frustrated","more frustrated, less frustrated",NA,NA,NA,NA,NA,NA,NA,NA,NA,NA,NA,NA,NA,NA,NA,0,1,1,1,1,NA,NA,NA,NA,NA,NA,NA,NA,NA,NA,NA,NA,NA,NA,NA,NA,NA,NA,NA,NA,NA,NA,NA,NA,NA,NA,NA,NA
SUPAMT88382,3PWWM24LHYX3X620SOD722RDAM082B,85E18216-5F58-439E-A47C-BFFFFBC2C704,2023-09-27_12h59.15.578,WP_VExplicitOC_LH,2022.2.5,Win32,5.374581454,-54.68839246,5.9572,2.0195,NA,NA,NA,NA,NA,bored,"bored, not bored","more bored, less bored",NA,NA,NA,NA,NA,NA,NA,NA,NA,NA,NA,NA,NA,NA,NA,0,2,2,2,1,NA,NA,NA,NA,NA,NA,NA,NA,NA,NA,NA,NA,NA,NA,NA,NA,NA,NA,NA,NA,NA,NA,NA,NA,NA,NA,NA,NA
SUPAMT88382,3PWWM24LHYX3X620SOD722RDAM082B,85E18216-5F58-439E-A47C-BFFFFBC2C704,2023-09-27_12h59.15.578,WP_VExplicitOC_LH,2022.2.5,Win32,5.374581454,NA,NA,NA,NA,NA,NA,NA,NA,NA,NA,NA,NA,NA,NA,NA,NA,NA,NA,NA,NA,NA,NA,NA,NA,NA,NA,NA,NA,NA,NA,NA,14,0,14,0,1,NA,NA,NA,NA,NA,NA,NA,NA,NA,NA,NA,NA,NA,NA,NA,NA,NA,NA,NA,NA,NA,NA,NA
SUPAMT88382,3PWWM24LHYX3X620SOD722RDAM082B,85E18216-5F58-439E-A47C-BFFFFBC2C704,2023-09-27_12h59.15.578,WP_VExplicitOC_LH,2022.2.5,Win32,5.374581454,NA,NA,NA,NA,NA,NA,NA,NA,NA,NA,NA,NA,NA,NA,NA,NA,NA,NA,NA,NA,NA,NA,NA,NA,NA,NA,NA,NA,NA,NA,NA,NA,NA,NA,NA,NA,NA,NA,NA,NA,NA,NA,NA,NA,NA,NA,NA,NA,NA,NA,NA,NA,NA,NA,NA,NA,NA,NA,NA
SUPAMT88382,3PWWM24LHYX3X620SOD722RDAM082B,85E18216-5F58-439E-A47C-BFFFFBC2C704,2023-09-27_12h59.15.578,WP_VExplicitOC_LH,2022.2.5,Win32,5.374581454,NA,NA,NA,NA,NA,NA,NA,NA,NA,NA,NA,NA,NA,NA,NA,NA,NA,NA,NA,NA,NA,NA,NA,NA,NA,NA,NA,NA,NA,NA,NA,NA,NA,NA,NA,NA,NA,NA,NA,NA,NA,NA,NA,NA,NA,NA,NA,NA,NA,NA,NA,NA,NA,NA,NA,NA,NA,NA,NA
SUPAMT88382,3PWWM24LHYX3X620SOD722RDAM082B,85E18216-5F58-439E-A47C-BFFFFBC2C704,2023-09-27_12h59.15.578,WP_VExplicitOC_LH,2022.2.5,Win32,5.374581454,NA,NA,NA,NA,NA,NA,NA,NA,NA,NA,NA,NA,NA,NA,NA,NA,NA,NA,rest (looking at a fixed cross),001.png,NA,NA,NA,NA,NA,NA,NA,NA,NA,NA,NA,NA,NA,NA,NA,NA,NA,NA,0,0,0,0,1,NA,NA,NA,NA,NA,NA,NA,NA,NA,NA,NA,NA,NA,NA,NA,NA
SUPAMT88382,3PWWM24LHYX3X620SOD722RDAM082B,85E18216-5F58-439E-A47C-BFFFFBC2C704,2023-09-27_12h59.15.578,WP_VExplicitOC_LH,2022.2.5,Win32,5.374581454,NA,NA,NA,NA,NA,NA,NA,NA,NA,NA,NA,NA,NA,NA,NA,NA,NA,NA,stand up,002.png,NA,NA,NA,NA,NA,NA,NA,NA,NA,NA,NA,NA,NA,NA,NA,NA,47.51387262,4.0856,0,1,1,1,1,NA,NA,NA,NA,NA,NA,NA,NA,NA,NA,NA,NA,NA,NA,NA,NA
SUPAMT88382,3PWWM24LHYX3X620SOD722RDAM082B,85E18216-5F58-439E-A47C-BFFFFBC2C704,2023-09-27_12h59.15.578,WP_VExplicitOC_LH,2022.2.5,Win32,5.374581454,NA,NA,NA,NA,NA,NA,NA,NA,NA,NA,NA,NA,NA,NA,NA,NA,NA,NA,stretch,003.png,NA,NA,NA,NA,NA,NA,NA,NA,NA,NA,NA,NA,NA,NA,NA,NA,34.18313023,4.4218,0,2,2,2,1,NA,NA,NA,NA,NA,NA,NA,NA,NA,NA,NA,NA,NA,NA,NA,NA
SUPAMT88382,3PWWM24LHYX3X620SOD722RDAM082B,85E18216-5F58-439E-A47C-BFFFFBC2C704,2023-09-27_12h59.15.578,WP_VExplicitOC_LH,2022.2.5,Win32,5.374581454,NA,NA,NA,NA,NA,NA,NA,NA,NA,NA,NA,NA,NA,NA,NA,NA,NA,NA,make a drink,004.png,NA,NA,NA,NA,NA,NA,NA,NA,NA,NA,NA,NA,NA,NA,NA,NA,-50.24482014,3.3508,0,3,3,3,1,NA,NA,NA,NA,NA,NA,NA,NA,NA,NA,NA,NA,NA,NA,NA,NA
SUPAMT88382,3PWWM24LHYX3X620SOD722RDAM082B,85E18216-5F58-439E-A47C-BFFFFBC2C704,2023-09-27_12h59.15.578,WP_VExplicitOC_LH,2022.2.5,Win32,5.374581454,NA,NA,NA,NA,NA,NA,NA,NA,NA,NA,NA,NA,NA,NA,NA,NA,NA,NA,scroll social media,005.png,NA,NA,NA,NA,NA,NA,NA,NA,NA,NA,NA,NA,NA,NA,NA,NA,-40.06163093,4.2671,0,4,4,4,1,NA,NA,NA,NA,NA,NA,NA,NA,NA,NA,NA,NA,NA,NA,NA,NA
SUPAMT88382,3PWWM24LHYX3X620SOD722RDAM082B,85E18216-5F58-439E-A47C-BFFFFBC2C704,2023-09-27_12h59.15.578,WP_VExplicitOC_LH,2022.2.5,Win32,5.374581454,NA,NA,NA,NA,NA,NA,NA,NA,NA,NA,NA,NA,NA,NA,NA,NA,NA,NA,listen to music,006.png,NA,NA,NA,NA,NA,NA,NA,NA,NA,NA,NA,NA,NA,NA,NA,NA,-33.95170468,3.1961,0,5,5,5,1,NA,NA,NA,NA,NA,NA,NA,NA,NA,NA,NA,NA,NA,NA,NA,NA
SUPAMT88382,3PWWM24LHYX3X620SOD722RDAM082B,85E18216-5F58-439E-A47C-BFFFFBC2C704,2023-09-27_12h59.15.578,WP_VExplicitOC_LH,2022.2.5,Win32,5.374581454,NA,NA,NA,NA,NA,NA,NA,NA,NA,NA,NA,NA,NA,NA,NA,NA,NA,NA,daydream,007.png,NA,NA,NA,NA,NA,NA,NA,NA,NA,NA,NA,NA,NA,NA,NA,NA,-63.94584645,3.6467,0,6,6,6,1,NA,NA,NA,NA,NA,NA,NA,NA,NA,NA,NA,NA,NA,NA,NA,NA
SUPAMT88382,3PWWM24LHYX3X620SOD722RDAM082B,85E18216-5F58-439E-A47C-BFFFFBC2C704,2023-09-27_12h59.15.578,WP_VExplicitOC_LH,2022.2.5,Win32,5.374581454,NA,NA,NA,NA,NA,NA,NA,NA,NA,NA,NA,NA,NA,NA,NA,NA,NA,NA,watch a short animation,008.png,NA,NA,NA,NA,NA,NA,NA,NA,NA,NA,NA,NA,NA,NA,NA,NA,-46.54184109,2.9308,0,7,7,7,1,NA,NA,NA,NA,NA,NA,NA,NA,NA,NA,NA,NA,NA,NA,NA,NA
SUPAMT88382,3PWWM24LHYX3X620SOD722RDAM082B,85E18216-5F58-439E-A47C-BFFFFBC2C704,2023-09-27_12h59.15.578,WP_VExplicitOC_LH,2022.2.5,Win32,5.374581454,NA,NA,NA,NA,NA,NA,NA,NA,NA,NA,NA,NA,NA,NA,NA,NA,NA,NA,read a novel,009.png,NA,NA,NA,NA,NA,NA,NA,NA,NA,NA,NA,NA,NA,NA,NA,NA,31.40589912,3.1376,0,8,8,8,1,NA,NA,NA,NA,NA,NA,NA,NA,NA,NA,NA,NA,NA,NA,NA,NA
SUPAMT88382,3PWWM24LHYX3X620SOD722RDAM082B,85E18216-5F58-439E-A47C-BFFFFBC2C704,2023-09-27_12h59.15.578,WP_VExplicitOC_LH,2022.2.5,Win32,5.374581454,NA,NA,NA,NA,NA,NA,NA,NA,NA,NA,NA,NA,NA,NA,NA,NA,NA,NA,read the news,010.png,NA,NA,NA,NA,NA,NA,NA,NA,NA,NA,NA,NA,NA,NA,NA,NA,-41.17252083,2.8817,0,9,9,9,1,NA,NA,NA,NA,NA,NA,NA,NA,NA,NA,NA,NA,NA,NA,NA,NA
SUPAMT88382,3PWWM24LHYX3X620SOD722RDAM082B,85E18216-5F58-439E-A47C-BFFFFBC2C704,2023-09-27_12h59.15.578,WP_VExplicitOC_LH,2022.2.5,Win32,5.374581454,NA,NA,NA,NA,NA,NA,NA,NA,NA,NA,NA,NA,NA,NA,NA,NA,NA,NA,NA,NA,NA,NA,NA,NA,NA,NA,NA,NA,NA,NA,NA,NA,NA,NA,NA,NA,NA,NA,NA,NA,NA,NA,NA,stand up,NA,NA,NA,NA,NA,NA,NA,NA,NA,NA,NA,NA,NA,NA,NA
SUPAMT88382,3PWWM24LHYX3X620SOD722RDAM082B,85E18216-5F58-439E-A47C-BFFFFBC2C704,2023-09-27_12h59.15.578,WP_VExplicitOC_LH,2022.2.5,Win32,5.374581454,34.18313023,6.569,2.3847,NA,NA,NA,NA,NA,bored,"bored, not bored","more bored, less bored",NA,NA,NA,NA,NA,NA,NA,NA,NA,NA,NA,NA,NA,NA,NA,NA,NA,NA,NA,NA,NA,NA,NA,NA,NA,NA,NA,NA,NA,NA,NA,NA,NA,0,0,0,2,1,NA,NA,NA,NA,NA,NA,NA,NA,NA,NA
SUPAMT88382,3PWWM24LHYX3X620SOD722RDAM082B,85E18216-5F58-439E-A47C-BFFFFBC2C704,2023-09-27_12h59.15.578,WP_VExplicitOC_LH,2022.2.5,Win32,5.374581454,49.18021383,5.5573,2.341,NA,NA,NA,NA,NA,happy,"unhappy, happy","less happy, more happy",NA,NA,NA,NA,NA,NA,NA,NA,NA,NA,NA,NA,NA,NA,NA,NA,NA,NA,NA,NA,NA,NA,NA,NA,NA,NA,NA,NA,NA,NA,NA,NA,NA,0,1,1,0,1,NA,NA,NA,NA,NA,NA,NA,NA,NA,NA
SUPAMT88382,3PWWM24LHYX3X620SOD722RDAM082B,85E18216-5F58-439E-A47C-BFFFFBC2C704,2023-09-27_12h59.15.578,WP_VExplicitOC_LH,2022.2.5,Win32,5.374581454,-40.24677289,4.823,2.3817,NA,NA,NA,NA,NA,frustrated,"frustrated, not frustrated","more frustrated, less frustrated",NA,NA,NA,NA,NA,NA,NA,NA,NA,NA,NA,NA,NA,NA,NA,NA,NA,NA,NA,NA,NA,NA,NA,NA,NA,NA,NA,NA,NA,NA,NA,NA,NA,0,2,2,1,1,NA,NA,NA,NA,NA,NA,NA,NA,NA,NA
SUPAMT88382,3PWWM24LHYX3X620SOD722RDAM082B,85E18216-5F58-439E-A47C-BFFFFBC2C704,2023-09-27_12h59.15.578,WP_VExplicitOC_LH,2022.2.5,Win32,5.374581454,NA,NA,NA,NA,NA,NA,NA,NA,NA,NA,NA,NA,NA,NA,NA,NA,NA,NA,NA,NA,NA,NA,NA,NA,NA,NA,NA,NA,NA,NA,NA,NA,NA,NA,NA,NA,NA,NA,NA,NA,NA,NA,NA,NA,NA,NA,NA,NA,NA,NA,NA,NA,NA,NA,NA,NA,NA,NA,NA
SUPAMT88382,3PWWM24LHYX3X620SOD722RDAM082B,85E18216-5F58-439E-A47C-BFFFFBC2C704,2023-09-27_12h59.15.578,WP_VExplicitOC_LH,2022.2.5,Win32,5.374581454,NA,NA,NA,NA,NA,NA,NA,NA,NA,NA,NA,NA,NA,NA,NA,NA,NA,NA,NA,NA,NA,NA,NA,NA,NA,NA,NA,NA,NA,NA,NA,NA,NA,NA,NA,NA,NA,NA,NA,NA,NA,NA,NA,NA,NA,NA,NA,NA,NA,NA,NA,NA,NA,NA,NA,NA,NA,NA,NA
SUPAMT88382,3PWWM24LHYX3X620SOD722RDAM082B,85E18216-5F58-439E-A47C-BFFFFBC2C704,2023-09-27_12h59.15.578,WP_VExplicitOC_LH,2022.2.5,Win32,5.374581454,NA,NA,2.3631,NA,NA,NA,NA,NA,happy,"unhappy, happy","less happy, more happy",NA,NA,NA,NA,NA,NA,NA,NA,NA,NA,NA,NA,NA,NA,NA,NA,NA,NA,NA,NA,NA,NA,NA,NA,NA,NA,NA,NA,NA,NA,NA,NA,NA,NA,NA,NA,NA,NA,0,0,0,0,1,NA,NA,NA,NA,NA
SUPAMT88382,3PWWM24LHYX3X620SOD722RDAM082B,85E18216-5F58-439E-A47C-BFFFFBC2C704,2023-09-27_12h59.15.578,WP_VExplicitOC_LH,2022.2.5,Win32,5.374581454,-29.32297769,5.1579,2.2703,NA,NA,NA,NA,NA,frustrated,"frustrated, not frustrated","more frustrated, less frustrated",NA,NA,NA,NA,NA,NA,NA,NA,NA,NA,NA,NA,NA,NA,NA,NA,NA,NA,NA,NA,NA,NA,NA,NA,NA,NA,NA,NA,NA,NA,NA,NA,NA,NA,NA,NA,NA,NA,0,1,1,1,1,NA,NA,NA,NA,NA
SUPAMT88382,3PWWM24LHYX3X620SOD722RDAM082B,85E18216-5F58-439E-A47C-BFFFFBC2C704,2023-09-27_12h59.15.578,WP_VExplicitOC_LH,2022.2.5,Win32,5.374581454,-34.32200132,5.0963,2.1118,NA,NA,NA,NA,NA,bored,"bored, not bored","more bored, less bored",NA,NA,NA,NA,NA,NA,NA,NA,NA,NA,NA,NA,NA,NA,NA,NA,NA,NA,NA,NA,NA,NA,NA,NA,NA,NA,NA,NA,NA,NA,NA,NA,NA,NA,NA,NA,NA,NA,0,2,2,2,1,NA,NA,NA,NA,NA
SUPAMT88382,3PWWM24LHYX3X620SOD722RDAM082B,85E18216-5F58-439E-A47C-BFFFFBC2C704,2023-09-27_12h59.15.578,WP_VExplicitOC_LH,2022.2.5,Win32,5.374581454,NA,NA,NA,NA,NA,NA,NA,NA,NA,NA,NA,NA,NA,NA,NA,NA,NA,NA,NA,NA,NA,NA,NA,NA,NA,NA,NA,NA,NA,NA,NA,NA,NA,NA,NA,NA,NA,NA,NA,NA,NA,NA,NA,NA,NA,NA,NA,NA,NA,NA,NA,NA,NA,NA,0,0,0,0,1
SUPAMT88382,3PWWM24LHYX3X620SOD722RDAM082B,85E18216-5F58-439E-A47C-BFFFFBC2C704,2023-09-27_12h59.15.578,WP_VExplicitOC_LH,2022.2.5,Win32,5.374581454,-68.01912214,4.6008,2.0809,NA,NA,NA,NA,NA,bored,"bored, not bored","more bored, less bored",NA,NA,NA,NA,NA,NA,NA,NA,NA,NA,NA,NA,NA,NA,NA,NA,NA,NA,NA,NA,NA,NA,NA,NA,NA,NA,NA,NA,NA,NA,NA,NA,NA,NA,NA,NA,NA,NA,0,0,0,2,1,NA,NA,NA,NA,NA
SUPAMT88382,3PWWM24LHYX3X620SOD722RDAM082B,85E18216-5F58-439E-A47C-BFFFFBC2C704,2023-09-27_12h59.15.578,WP_VExplicitOC_LH,2022.2.5,Win32,5.374581454,31.40589912,4.919,2.3202,NA,NA,NA,NA,NA,happy,"unhappy, happy","less happy, more happy",NA,NA,NA,NA,NA,NA,NA,NA,NA,NA,NA,NA,NA,NA,NA,NA,NA,NA,NA,NA,NA,NA,NA,NA,NA,NA,NA,NA,NA,NA,NA,NA,NA,NA,NA,NA,NA,NA,0,1,1,0,1,NA,NA,NA,NA,NA
SUPAMT88382,3PWWM24LHYX3X620SOD722RDAM082B,85E18216-5F58-439E-A47C-BFFFFBC2C704,2023-09-27_12h59.15.578,WP_VExplicitOC_LH,2022.2.5,Win32,5.374581454,-56.53988835,5.8831,2.0781,NA,NA,NA,NA,NA,frustrated,"frustrated, not frustrated","more frustrated, less frustrated",NA,NA,NA,NA,NA,NA,NA,NA,NA,NA,NA,NA,NA,NA,NA,NA,NA,NA,NA,NA,NA,NA,NA,NA,NA,NA,NA,NA,NA,NA,NA,NA,NA,NA,NA,NA,NA,NA,0,2,2,1,1,NA,NA,NA,NA,NA
SUPAMT88382,3PWWM24LHYX3X620SOD722RDAM082B,85E18216-5F58-439E-A47C-BFFFFBC2C704,2023-09-27_12h59.15.578,WP_VExplicitOC_LH,2022.2.5,Win32,5.374581454,NA,NA,NA,NA,NA,NA,NA,NA,NA,NA,NA,NA,NA,NA,NA,NA,NA,NA,NA,NA,NA,NA,NA,NA,NA,NA,NA,NA,NA,NA,NA,NA,NA,NA,NA,NA,NA,NA,NA,NA,NA,NA,NA,NA,NA,NA,NA,NA,NA,NA,NA,NA,NA,NA,1,0,1,0,1
SUPAMT88382,3PWWM24LHYX3X620SOD722RDAM082B,85E18216-5F58-439E-A47C-BFFFFBC2C704,2023-09-27_12h59.15.578,WP_VExplicitOC_LH,2022.2.5,Win32,5.374581454,NA,NA,2.3205,NA,NA,NA,NA,NA,bored,"bored, not bored","more bored, less bored",NA,NA,NA,NA,NA,NA,NA,NA,NA,NA,NA,NA,NA,NA,NA,NA,NA,NA,NA,NA,NA,NA,NA,NA,NA,NA,NA,NA,NA,NA,NA,NA,NA,NA,NA,NA,NA,NA,0,0,0,2,1,NA,NA,NA,NA,NA
SUPAMT88382,3PWWM24LHYX3X620SOD722RDAM082B,85E18216-5F58-439E-A47C-BFFFFBC2C704,2023-09-27_12h59.15.578,WP_VExplicitOC_LH,2022.2.5,Win32,5.374581454,25.48112755,6.841,2.3191,NA,NA,NA,NA,NA,frustrated,"frustrated, not frustrated","more frustrated, less frustrated",NA,NA,NA,NA,NA,NA,NA,NA,NA,NA,NA,NA,NA,NA,NA,NA,NA,NA,NA,NA,NA,NA,NA,NA,NA,NA,NA,NA,NA,NA,NA,NA,NA,NA,NA,NA,NA,NA,0,1,1,1,1,NA,NA,NA,NA,NA
SUPAMT88382,3PWWM24LHYX3X620SOD722RDAM082B,85E18216-5F58-439E-A47C-BFFFFBC2C704,2023-09-27_12h59.15.578,WP_VExplicitOC_LH,2022.2.5,Win32,5.374581454,-37.83983841,7.1593,2.1354,NA,NA,NA,NA,NA,happy,"unhappy, happy","less happy, more happy",NA,NA,NA,NA,NA,NA,NA,NA,NA,NA,NA,NA,NA,NA,NA,NA,NA,NA,NA,NA,NA,NA,NA,NA,NA,NA,NA,NA,NA,NA,NA,NA,NA,NA,NA,NA,NA,NA,0,2,2,0,1,NA,NA,NA,NA,NA
SUPAMT88382,3PWWM24LHYX3X620SOD722RDAM082B,85E18216-5F58-439E-A47C-BFFFFBC2C704,2023-09-27_12h59.15.578,WP_VExplicitOC_LH,2022.2.5,Win32,5.374581454,NA,NA,NA,NA,NA,NA,NA,NA,NA,NA,NA,NA,NA,NA,NA,NA,NA,NA,NA,NA,NA,NA,NA,NA,NA,NA,NA,NA,NA,NA,NA,NA,NA,NA,NA,NA,NA,NA,NA,NA,NA,NA,NA,NA,NA,NA,NA,NA,NA,NA,NA,NA,NA,NA,2,0,2,0,1
SUPAMT88382,3PWWM24LHYX3X620SOD722RDAM082B,85E18216-5F58-439E-A47C-BFFFFBC2C704,2023-09-27_12h59.15.578,WP_VExplicitOC_LH,2022.2.5,Win32,5.374581454,NA,NA,2.0593,NA,NA,NA,NA,NA,happy,"unhappy, happy","less happy, more happy",NA,NA,NA,NA,NA,NA,NA,NA,NA,NA,NA,NA,NA,NA,NA,NA,NA,NA,NA,NA,NA,NA,NA,NA,NA,NA,NA,NA,NA,NA,NA,NA,NA,NA,NA,NA,NA,NA,0,0,0,0,1,NA,NA,NA,NA,NA
SUPAMT88382,3PWWM24LHYX3X620SOD722RDAM082B,85E18216-5F58-439E-A47C-BFFFFBC2C704,2023-09-27_12h59.15.578,WP_VExplicitOC_LH,2022.2.5,Win32,5.374581454,-44.50520325,7.3811,2.0761,NA,NA,NA,NA,NA,frustrated,"frustrated, not frustrated","more frustrated, less frustrated",NA,NA,NA,NA,NA,NA,NA,NA,NA,NA,NA,NA,NA,NA,NA,NA,NA,NA,NA,NA,NA,NA,NA,NA,NA,NA,NA,NA,NA,NA,NA,NA,NA,NA,NA,NA,NA,NA,0,1,1,1,1,NA,NA,NA,NA,NA
SUPAMT88382,3PWWM24LHYX3X620SOD722RDAM082B,85E18216-5F58-439E-A47C-BFFFFBC2C704,2023-09-27_12h59.15.578,WP_VExplicitOC_LH,2022.2.5,Win32,5.374581454,-25.8051406,5.998,2.3188,NA,NA,NA,NA,NA,bored,"bored, not bored","more bored, less bored",NA,NA,NA,NA,NA,NA,NA,NA,NA,NA,NA,NA,NA,NA,NA,NA,NA,NA,NA,NA,NA,NA,NA,NA,NA,NA,NA,NA,NA,NA,NA,NA,NA,NA,NA,NA,NA,NA,0,2,2,2,1,NA,NA,NA,NA,NA
SUPAMT88382,3PWWM24LHYX3X620SOD722RDAM082B,85E18216-5F58-439E-A47C-BFFFFBC2C704,2023-09-27_12h59.15.578,WP_VExplicitOC_LH,2022.2.5,Win32,5.374581454,NA,NA,NA,NA,NA,NA,NA,NA,NA,NA,NA,NA,NA,NA,NA,NA,NA,NA,NA,NA,NA,NA,NA,NA,NA,NA,NA,NA,NA,NA,NA,NA,NA,NA,NA,NA,NA,NA,NA,NA,NA,NA,NA,NA,NA,NA,NA,NA,NA,NA,NA,NA,NA,NA,3,0,3,0,1
SUPAMT88382,3PWWM24LHYX3X620SOD722RDAM082B,85E18216-5F58-439E-A47C-BFFFFBC2C704,2023-09-27_12h59.15.578,WP_VExplicitOC_LH,2022.2.5,Win32,5.374581454,-33.95170468,6.6626,2.3403,NA,NA,NA,NA,NA,bored,"bored, not bored","more bored, less bored",NA,NA,NA,NA,NA,NA,NA,NA,NA,NA,NA,NA,NA,NA,NA,NA,NA,NA,NA,NA,NA,NA,NA,NA,NA,NA,NA,NA,NA,NA,NA,NA,NA,NA,NA,NA,NA,NA,0,0,0,2,1,NA,NA,NA,NA,NA
SUPAMT88382,3PWWM24LHYX3X620SOD722RDAM082B,85E18216-5F58-439E-A47C-BFFFFBC2C704,2023-09-27_12h59.15.578,WP_VExplicitOC_LH,2022.2.5,Win32,5.374581454,-65.9824843,5.1233,2.1725,NA,NA,NA,NA,NA,frustrated,"frustrated, not frustrated","more frustrated, less frustrated",NA,NA,NA,NA,NA,NA,NA,NA,NA,NA,NA,NA,NA,NA,NA,NA,NA,NA,NA,NA,NA,NA,NA,NA,NA,NA,NA,NA,NA,NA,NA,NA,NA,NA,NA,NA,NA,NA,0,1,1,1,1,NA,NA,NA,NA,NA
SUPAMT88382,3PWWM24LHYX3X620SOD722RDAM082B,85E18216-5F58-439E-A47C-BFFFFBC2C704,2023-09-27_12h59.15.578,WP_VExplicitOC_LH,2022.2.5,Win32,5.374581454,-25.06456004,5.1678,2.3374,NA,NA,NA,NA,NA,happy,"unhappy, happy","less happy, more happy",NA,NA,NA,NA,NA,NA,NA,NA,NA,NA,NA,NA,NA,NA,NA,NA,NA,NA,NA,NA,NA,NA,NA,NA,NA,NA,NA,NA,NA,NA,NA,NA,NA,NA,NA,NA,NA,NA,0,2,2,0,1,NA,NA,NA,NA,NA
SUPAMT88382,3PWWM24LHYX3X620SOD722RDAM082B,85E18216-5F58-439E-A47C-BFFFFBC2C704,2023-09-27_12h59.15.578,WP_VExplicitOC_LH,2022.2.5,Win32,5.374581454,NA,NA,NA,NA,NA,NA,NA,NA,NA,NA,NA,NA,NA,NA,NA,NA,NA,NA,NA,NA,NA,NA,NA,NA,NA,NA,NA,NA,NA,NA,NA,NA,NA,NA,NA,NA,NA,NA,NA,NA,NA,NA,NA,NA,NA,NA,NA,NA,NA,NA,NA,NA,NA,NA,4,0,4,0,1
SUPAMT88382,3PWWM24LHYX3X620SOD722RDAM082B,85E18216-5F58-439E-A47C-BFFFFBC2C704,2023-09-27_12h59.15.578,WP_VExplicitOC_LH,2022.2.5,Win32,5.374581454,NA,NA,2.1822,NA,NA,NA,NA,NA,bored,"bored, not bored","more bored, less bored",NA,NA,NA,NA,NA,NA,NA,NA,NA,NA,NA,NA,NA,NA,NA,NA,NA,NA,NA,NA,NA,NA,NA,NA,NA,NA,NA,NA,NA,NA,NA,NA,NA,NA,NA,NA,NA,NA,0,0,0,2,1,NA,NA,NA,NA,NA
SUPAMT88382,3PWWM24LHYX3X620SOD722RDAM082B,85E18216-5F58-439E-A47C-BFFFFBC2C704,2023-09-27_12h59.15.578,WP_VExplicitOC_LH,2022.2.5,Win32,5.374581454,27.51776539,6.2005,2.3425,NA,NA,NA,NA,NA,frustrated,"frustrated, not frustrated","more frustrated, less frustrated",NA,NA,NA,NA,NA,NA,NA,NA,NA,NA,NA,NA,NA,NA,NA,NA,NA,NA,NA,NA,NA,NA,NA,NA,NA,NA,NA,NA,NA,NA,NA,NA,NA,NA,NA,NA,NA,NA,0,1,1,1,1,NA,NA,NA,NA,NA
SUPAMT88382,3PWWM24LHYX3X620SOD722RDAM082B,85E18216-5F58-439E-A47C-BFFFFBC2C704,2023-09-27_12h59.15.578,WP_VExplicitOC_LH,2022.2.5,Win32,5.374581454,44.92178347,6.6452,2.1599,NA,NA,NA,NA,NA,happy,"unhappy, happy","less happy, more happy",NA,NA,NA,NA,NA,NA,NA,NA,NA,NA,NA,NA,NA,NA,NA,NA,NA,NA,NA,NA,NA,NA,NA,NA,NA,NA,NA,NA,NA,NA,NA,NA,NA,NA,NA,NA,NA,NA,0,2,2,0,1,NA,NA,NA,NA,NA
SUPAMT88382,3PWWM24LHYX3X620SOD722RDAM082B,85E18216-5F58-439E-A47C-BFFFFBC2C704,2023-09-27_12h59.15.578,WP_VExplicitOC_LH,2022.2.5,Win32,5.374581454,NA,NA,NA,NA,NA,NA,NA,NA,NA,NA,NA,NA,NA,NA,NA,NA,NA,NA,NA,NA,NA,NA,NA,NA,NA,NA,NA,NA,NA,NA,NA,NA,NA,NA,NA,NA,NA,NA,NA,NA,NA,NA,NA,NA,NA,NA,NA,NA,NA,NA,NA,NA,NA,NA,5,0,5,0,1
SUPAMT88382,3PWWM24LHYX3X620SOD722RDAM082B,85E18216-5F58-439E-A47C-BFFFFBC2C704,2023-09-27_12h59.15.578,WP_VExplicitOC_LH,2022.2.5,Win32,5.374581454,44.92178347,5.1141,2.2432,NA,NA,NA,NA,NA,bored,"bored, not bored","more bored, less bored",NA,NA,NA,NA,NA,NA,NA,NA,NA,NA,NA,NA,NA,NA,NA,NA,NA,NA,NA,NA,NA,NA,NA,NA,NA,NA,NA,NA,NA,NA,NA,NA,NA,NA,NA,NA,NA,NA,0,0,0,2,1,NA,NA,NA,NA,NA
SUPAMT88382,3PWWM24LHYX3X620SOD722RDAM082B,85E18216-5F58-439E-A47C-BFFFFBC2C704,2023-09-27_12h59.15.578,WP_VExplicitOC_LH,2022.2.5,Win32,5.374581454,51.03168428,6.3627,2.0006,NA,NA,NA,NA,NA,happy,"unhappy, happy","less happy, more happy",NA,NA,NA,NA,NA,NA,NA,NA,NA,NA,NA,NA,NA,NA,NA,NA,NA,NA,NA,NA,NA,NA,NA,NA,NA,NA,NA,NA,NA,NA,NA,NA,NA,NA,NA,NA,NA,NA,0,1,1,0,1,NA,NA,NA,NA,NA
SUPAMT88382,3PWWM24LHYX3X620SOD722RDAM082B,85E18216-5F58-439E-A47C-BFFFFBC2C704,2023-09-27_12h59.15.578,WP_VExplicitOC_LH,2022.2.5,Win32,5.374581454,-36.72894851,5.2815,2.3181,NA,NA,NA,NA,NA,frustrated,"frustrated, not frustrated","more frustrated, less frustrated",NA,NA,NA,NA,NA,NA,NA,NA,NA,NA,NA,NA,NA,NA,NA,NA,NA,NA,NA,NA,NA,NA,NA,NA,NA,NA,NA,NA,NA,NA,NA,NA,NA,NA,NA,NA,NA,NA,0,2,2,1,1,NA,NA,NA,NA,NA
SUPAMT88382,3PWWM24LHYX3X620SOD722RDAM082B,85E18216-5F58-439E-A47C-BFFFFBC2C704,2023-09-27_12h59.15.578,WP_VExplicitOC_LH,2022.2.5,Win32,5.374581454,NA,NA,NA,NA,NA,NA,NA,NA,NA,NA,NA,NA,NA,NA,NA,NA,NA,NA,NA,NA,NA,NA,NA,NA,NA,NA,NA,NA,NA,NA,NA,NA,NA,NA,NA,NA,NA,NA,NA,NA,NA,NA,NA,NA,NA,NA,NA,NA,NA,NA,NA,NA,NA,NA,6,0,6,0,1
SUPAMT88382,3PWWM24LHYX3X620SOD722RDAM082B,85E18216-5F58-439E-A47C-BFFFFBC2C704,2023-09-27_12h59.15.578,WP_VExplicitOC_LH,2022.2.5,Win32,5.374581454,59.36339033,5.4311,2.0166,NA,NA,NA,NA,NA,happy,"unhappy, happy","less happy, more happy",NA,NA,NA,NA,NA,NA,NA,NA,NA,NA,NA,NA,NA,NA,NA,NA,NA,NA,NA,NA,NA,NA,NA,NA,NA,NA,NA,NA,NA,NA,NA,NA,NA,NA,NA,NA,NA,NA,0,0,0,0,1,NA,NA,NA,NA,NA
SUPAMT88382,3PWWM24LHYX3X620SOD722RDAM082B,85E18216-5F58-439E-A47C-BFFFFBC2C704,2023-09-27_12h59.15.578,WP_VExplicitOC_LH,2022.2.5,Win32,5.374581454,0.671164079,3.0181,2.1644,NA,NA,NA,NA,NA,frustrated,"frustrated, not frustrated","more frustrated, less frustrated",NA,NA,NA,NA,NA,NA,NA,NA,NA,NA,NA,NA,NA,NA,NA,NA,NA,NA,NA,NA,NA,NA,NA,NA,NA,NA,NA,NA,NA,NA,NA,NA,NA,NA,NA,NA,NA,NA,0,1,1,1,1,NA,NA,NA,NA,NA
SUPAMT88382,3PWWM24LHYX3X620SOD722RDAM082B,85E18216-5F58-439E-A47C-BFFFFBC2C704,2023-09-27_12h59.15.578,WP_VExplicitOC_LH,2022.2.5,Win32,5.374581454,25.29598559,5.7614,2.0139,NA,NA,NA,NA,NA,bored,"bored, not bored","more bored, less bored",NA,NA,NA,NA,NA,NA,NA,NA,NA,NA,NA,NA,NA,NA,NA,NA,NA,NA,NA,NA,NA,NA,NA,NA,NA,NA,NA,NA,NA,NA,NA,NA,NA,NA,NA,NA,NA,NA,0,2,2,2,1,NA,NA,NA,NA,NA
SUPAMT88382,3PWWM24LHYX3X620SOD722RDAM082B,85E18216-5F58-439E-A47C-BFFFFBC2C704,2023-09-27_12h59.15.578,WP_VExplicitOC_LH,2022.2.5,Win32,5.374581454,NA,NA,NA,NA,NA,NA,NA,NA,NA,NA,NA,NA,NA,NA,NA,NA,NA,NA,NA,NA,NA,NA,NA,NA,NA,NA,NA,NA,NA,NA,NA,NA,NA,NA,NA,NA,NA,NA,NA,NA,NA,NA,NA,NA,NA,NA,NA,NA,NA,NA,NA,NA,NA,NA,7,0,7,0,1
SUPAMT88382,3PWWM24LHYX3X620SOD722RDAM082B,85E18216-5F58-439E-A47C-BFFFFBC2C704,2023-09-27_12h59.15.578,WP_VExplicitOC_LH,2022.2.5,Win32,5.374581454,32.88708565,5.0185,2.1271,NA,NA,NA,NA,NA,frustrated,"frustrated, not frustrated","more frustrated, less frustrated",NA,NA,NA,NA,NA,NA,NA,NA,NA,NA,NA,NA,NA,NA,NA,NA,NA,NA,NA,NA,NA,NA,NA,NA,NA,NA,NA,NA,NA,NA,NA,NA,NA,NA,NA,NA,NA,NA,0,0,0,1,1,NA,NA,NA,NA,NA
SUPAMT88382,3PWWM24LHYX3X620SOD722RDAM082B,85E18216-5F58-439E-A47C-BFFFFBC2C704,2023-09-27_12h59.15.578,WP_VExplicitOC_LH,2022.2.5,Win32,5.374581454,37.14551601,4.8879,2.0294,NA,NA,NA,NA,NA,bored,"bored, not bored","more bored, less bored",NA,NA,NA,NA,NA,NA,NA,NA,NA,NA,NA,NA,NA,NA,NA,NA,NA,NA,NA,NA,NA,NA,NA,NA,NA,NA,NA,NA,NA,NA,NA,NA,NA,NA,NA,NA,NA,NA,0,1,1,2,1,NA,NA,NA,NA,NA
SUPAMT88382,3PWWM24LHYX3X620SOD722RDAM082B,85E18216-5F58-439E-A47C-BFFFFBC2C704,2023-09-27_12h59.15.578,WP_VExplicitOC_LH,2022.2.5,Win32,5.374581454,-94.49543953,5.0875,2.1652,NA,NA,NA,NA,NA,happy,"unhappy, happy","less happy, more happy",NA,NA,NA,NA,NA,NA,NA,NA,NA,NA,NA,NA,NA,NA,NA,NA,NA,NA,NA,NA,NA,NA,NA,NA,NA,NA,NA,NA,NA,NA,NA,NA,NA,NA,NA,NA,NA,NA,0,2,2,0,1,NA,NA,NA,NA,NA
SUPAMT88382,3PWWM24LHYX3X620SOD722RDAM082B,85E18216-5F58-439E-A47C-BFFFFBC2C704,2023-09-27_12h59.15.578,WP_VExplicitOC_LH,2022.2.5,Win32,5.374581454,NA,NA,NA,NA,NA,NA,NA,NA,NA,NA,NA,NA,NA,NA,NA,NA,NA,NA,NA,NA,NA,NA,NA,NA,NA,NA,NA,NA,NA,NA,NA,NA,NA,NA,NA,NA,NA,NA,NA,NA,NA,NA,NA,NA,NA,NA,NA,NA,NA,NA,NA,NA,NA,NA,8,0,8,0,1
SUPAMT88382,3PWWM24LHYX3X620SOD722RDAM082B,85E18216-5F58-439E-A47C-BFFFFBC2C704,2023-09-27_12h59.15.578,WP_VExplicitOC_LH,2022.2.5,Win32,5.374581454,23.4444897,4.5432,2.1221,NA,NA,NA,NA,NA,happy,"unhappy, happy","less happy, more happy",NA,NA,NA,NA,NA,NA,NA,NA,NA,NA,NA,NA,NA,NA,NA,NA,NA,NA,NA,NA,NA,NA,NA,NA,NA,NA,NA,NA,NA,NA,NA,NA,NA,NA,NA,NA,NA,NA,0,0,0,0,1,NA,NA,NA,NA,NA
SUPAMT88382,3PWWM24LHYX3X620SOD722RDAM082B,85E18216-5F58-439E-A47C-BFFFFBC2C704,2023-09-27_12h59.15.578,WP_VExplicitOC_LH,2022.2.5,Win32,5.374581454,72.32383608,4.4448,2.343,NA,NA,NA,NA,NA,frustrated,"frustrated, not frustrated","more frustrated, less frustrated",NA,NA,NA,NA,NA,NA,NA,NA,NA,NA,NA,NA,NA,NA,NA,NA,NA,NA,NA,NA,NA,NA,NA,NA,NA,NA,NA,NA,NA,NA,NA,NA,NA,NA,NA,NA,NA,NA,0,1,1,1,1,NA,NA,NA,NA,NA
SUPAMT88382,3PWWM24LHYX3X620SOD722RDAM082B,85E18216-5F58-439E-A47C-BFFFFBC2C704,2023-09-27_12h59.15.578,WP_VExplicitOC_LH,2022.2.5,Win32,5.374581454,75.84167318,4.9633,2.0906,NA,NA,NA,NA,NA,bored,"bored, not bored","more bored, less bored",NA,NA,NA,NA,NA,NA,NA,NA,NA,NA,NA,NA,NA,NA,NA,NA,NA,NA,NA,NA,NA,NA,NA,NA,NA,NA,NA,NA,NA,NA,NA,NA,NA,NA,NA,NA,NA,NA,0,2,2,2,1,NA,NA,NA,NA,NA
SUPAMT88382,3PWWM24LHYX3X620SOD722RDAM082B,85E18216-5F58-439E-A47C-BFFFFBC2C704,2023-09-27_12h59.15.578,WP_VExplicitOC_LH,2022.2.5,Win32,5.374581454,NA,NA,NA,NA,NA,NA,NA,NA,NA,NA,NA,NA,NA,NA,NA,NA,NA,NA,NA,NA,NA,NA,NA,NA,NA,NA,NA,NA,NA,NA,NA,NA,NA,NA,NA,NA,NA,NA,NA,NA,NA,NA,NA,NA,NA,NA,NA,NA,NA,NA,NA,NA,NA,NA,9,0,9,0,1
SUPAMT88382,3PWWM24LHYX3X620SOD722RDAM082B,85E18216-5F58-439E-A47C-BFFFFBC2C704,2023-09-27_12h59.15.578,WP_VExplicitOC_LH,2022.2.5,Win32,5.374581454,47.32871794,7.3476,2.1622,NA,NA,NA,NA,NA,happy,"unhappy, happy","less happy, more happy",NA,NA,NA,NA,NA,NA,NA,NA,NA,NA,NA,NA,NA,NA,NA,NA,NA,NA,NA,NA,NA,NA,NA,NA,NA,NA,NA,NA,NA,NA,NA,NA,NA,NA,NA,NA,NA,NA,0,0,0,0,1,NA,NA,NA,NA,NA
SUPAMT88382,3PWWM24LHYX3X620SOD722RDAM082B,85E18216-5F58-439E-A47C-BFFFFBC2C704,2023-09-27_12h59.15.578,WP_VExplicitOC_LH,2022.2.5,Win32,5.374581454,-49.87452351,4.7728,2.3799,NA,NA,NA,NA,NA,bored,"bored, not bored","more bored, less bored",NA,NA,NA,NA,NA,NA,NA,NA,NA,NA,NA,NA,NA,NA,NA,NA,NA,NA,NA,NA,NA,NA,NA,NA,NA,NA,NA,NA,NA,NA,NA,NA,NA,NA,NA,NA,NA,NA,0,1,1,2,1,NA,NA,NA,NA,NA
SUPAMT88382,3PWWM24LHYX3X620SOD722RDAM082B,85E18216-5F58-439E-A47C-BFFFFBC2C704,2023-09-27_12h59.15.578,WP_VExplicitOC_LH,2022.2.5,Win32,5.374581454,50.10596177,7.4035,2.3618,NA,NA,NA,NA,NA,frustrated,"frustrated, not frustrated","more frustrated, less frustrated",NA,NA,NA,NA,NA,NA,NA,NA,NA,NA,NA,NA,NA,NA,NA,NA,NA,NA,NA,NA,NA,NA,NA,NA,NA,NA,NA,NA,NA,NA,NA,NA,NA,NA,NA,NA,NA,NA,0,2,2,1,1,NA,NA,NA,NA,NA
SUPAMT88382,3PWWM24LHYX3X620SOD722RDAM082B,85E18216-5F58-439E-A47C-BFFFFBC2C704,2023-09-27_12h59.15.578,WP_VExplicitOC_LH,2022.2.5,Win32,5.374581454,NA,NA,NA,NA,NA,NA,NA,NA,NA,NA,NA,NA,NA,NA,NA,NA,NA,NA,NA,NA,NA,NA,NA,NA,NA,NA,NA,NA,NA,NA,NA,NA,NA,NA,NA,NA,NA,NA,NA,NA,NA,NA,NA,NA,NA,NA,NA,NA,NA,NA,NA,NA,NA,NA,10,0,10,0,1
SUPAMT88382,3PWWM24LHYX3X620SOD722RDAM082B,85E18216-5F58-439E-A47C-BFFFFBC2C704,2023-09-27_12h59.15.578,WP_VExplicitOC_LH,2022.2.5,Win32,5.374581454,58.99310641,5.4679,2.0866,NA,NA,NA,NA,NA,frustrated,"frustrated, not frustrated","more frustrated, less frustrated",NA,NA,NA,NA,NA,NA,NA,NA,NA,NA,NA,NA,NA,NA,NA,NA,NA,NA,NA,NA,NA,NA,NA,NA,NA,NA,NA,NA,NA,NA,NA,NA,NA,NA,NA,NA,NA,NA,0,0,0,1,1,NA,NA,NA,NA,NA
SUPAMT88382,3PWWM24LHYX3X620SOD722RDAM082B,85E18216-5F58-439E-A47C-BFFFFBC2C704,2023-09-27_12h59.15.578,WP_VExplicitOC_LH,2022.2.5,Win32,5.374581454,NA,NA,2.3183,NA,NA,NA,NA,NA,bored,"bored, not bored","more bored, less bored",NA,NA,NA,NA,NA,NA,NA,NA,NA,NA,NA,NA,NA,NA,NA,NA,NA,NA,NA,NA,NA,NA,NA,NA,NA,NA,NA,NA,NA,NA,NA,NA,NA,NA,NA,NA,NA,NA,0,1,1,2,1,NA,NA,NA,NA,NA
SUPAMT88382,3PWWM24LHYX3X620SOD722RDAM082B,85E18216-5F58-439E-A47C-BFFFFBC2C704,2023-09-27_12h59.15.578,WP_VExplicitOC_LH,2022.2.5,Win32,5.374581454,100,4.8272,2.0883,NA,NA,NA,NA,NA,happy,"unhappy, happy","less happy, more happy",NA,NA,NA,NA,NA,NA,NA,NA,NA,NA,NA,NA,NA,NA,NA,NA,NA,NA,NA,NA,NA,NA,NA,NA,NA,NA,NA,NA,NA,NA,NA,NA,NA,NA,NA,NA,NA,NA,0,2,2,0,1,NA,NA,NA,NA,NA
SUPAMT88382,3PWWM24LHYX3X620SOD722RDAM082B,85E18216-5F58-439E-A47C-BFFFFBC2C704,2023-09-27_12h59.15.578,WP_VExplicitOC_LH,2022.2.5,Win32,5.374581454,NA,NA,NA,NA,NA,NA,NA,NA,NA,NA,NA,NA,NA,NA,NA,NA,NA,NA,NA,NA,NA,NA,NA,NA,NA,NA,NA,NA,NA,NA,NA,NA,NA,NA,NA,NA,NA,NA,NA,NA,NA,NA,NA,NA,NA,NA,NA,NA,NA,NA,NA,NA,NA,NA,11,0,11,0,1
SUPAMT88382,3PWWM24LHYX3X620SOD722RDAM082B,85E18216-5F58-439E-A47C-BFFFFBC2C704,2023-09-27_12h59.15.578,WP_VExplicitOC_LH,2022.2.5,Win32,5.374581454,41.40394637,7.4289,2.3893,NA,NA,NA,NA,NA,bored,"bored, not bored","more bored, less bored",NA,NA,NA,NA,NA,NA,NA,NA,NA,NA,NA,NA,NA,NA,NA,NA,NA,NA,NA,NA,NA,NA,NA,NA,NA,NA,NA,NA,NA,NA,NA,NA,NA,NA,NA,NA,NA,NA,0,0,0,2,1,NA,NA,NA,NA,NA
SUPAMT88382,3PWWM24LHYX3X620SOD722RDAM082B,85E18216-5F58-439E-A47C-BFFFFBC2C704,2023-09-27_12h59.15.578,WP_VExplicitOC_LH,2022.2.5,Win32,5.374581454,-49.87452351,5.831,2.0275,NA,NA,NA,NA,NA,frustrated,"frustrated, not frustrated","more frustrated, less frustrated",NA,NA,NA,NA,NA,NA,NA,NA,NA,NA,NA,NA,NA,NA,NA,NA,NA,NA,NA,NA,NA,NA,NA,NA,NA,NA,NA,NA,NA,NA,NA,NA,NA,NA,NA,NA,NA,NA,0,1,1,1,1,NA,NA,NA,NA,NA
SUPAMT88382,3PWWM24LHYX3X620SOD722RDAM082B,85E18216-5F58-439E-A47C-BFFFFBC2C704,2023-09-27_12h59.15.578,WP_VExplicitOC_LH,2022.2.5,Win32,5.374581454,70.65749487,5.3884,2.3622,NA,NA,NA,NA,NA,happy,"unhappy, happy","less happy, more happy",NA,NA,NA,NA,NA,NA,NA,NA,NA,NA,NA,NA,NA,NA,NA,NA,NA,NA,NA,NA,NA,NA,NA,NA,NA,NA,NA,NA,NA,NA,NA,NA,NA,NA,NA,NA,NA,NA,0,2,2,0,1,NA,NA,NA,NA,NA
SUPAMT88382,3PWWM24LHYX3X620SOD722RDAM082B,85E18216-5F58-439E-A47C-BFFFFBC2C704,2023-09-27_12h59.15.578,WP_VExplicitOC_LH,2022.2.5,Win32,5.374581454,NA,NA,NA,NA,NA,NA,NA,NA,NA,NA,NA,NA,NA,NA,NA,NA,NA,NA,NA,NA,NA,NA,NA,NA,NA,NA,NA,NA,NA,NA,NA,NA,NA,NA,NA,NA,NA,NA,NA,NA,NA,NA,NA,NA,NA,NA,NA,NA,NA,NA,NA,NA,NA,NA,12,0,12,0,1
SUPAMT88382,3PWWM24LHYX3X620SOD722RDAM082B,85E18216-5F58-439E-A47C-BFFFFBC2C704,2023-09-27_12h59.15.578,WP_VExplicitOC_LH,2022.2.5,Win32,5.374581454,NA,NA,2.3334,NA,NA,NA,NA,NA,frustrated,"frustrated, not frustrated","more frustrated, less frustrated",NA,NA,NA,NA,NA,NA,NA,NA,NA,NA,NA,NA,NA,NA,NA,NA,NA,NA,NA,NA,NA,NA,NA,NA,NA,NA,NA,NA,NA,NA,NA,NA,NA,NA,NA,NA,NA,NA,0,0,0,1,1,NA,NA,NA,NA,NA
SUPAMT88382,3PWWM24LHYX3X620SOD722RDAM082B,85E18216-5F58-439E-A47C-BFFFFBC2C704,2023-09-27_12h59.15.578,WP_VExplicitOC_LH,2022.2.5,Win32,5.374581454,49.73565242,4.7512,2.1375,NA,NA,NA,NA,NA,happy,"unhappy, happy","less happy, more happy",NA,NA,NA,NA,NA,NA,NA,NA,NA,NA,NA,NA,NA,NA,NA,NA,NA,NA,NA,NA,NA,NA,NA,NA,NA,NA,NA,NA,NA,NA,NA,NA,NA,NA,NA,NA,NA,NA,0,1,1,0,1,NA,NA,NA,NA,NA
SUPAMT88382,3PWWM24LHYX3X620SOD722RDAM082B,85E18216-5F58-439E-A47C-BFFFFBC2C704,2023-09-27_12h59.15.578,WP_VExplicitOC_LH,2022.2.5,Win32,5.374581454,88.98724818,6.2901,2.2297,NA,NA,NA,NA,NA,bored,"bored, not bored","more bored, less bored",NA,NA,NA,NA,NA,NA,NA,NA,NA,NA,NA,NA,NA,NA,NA,NA,NA,NA,NA,NA,NA,NA,NA,NA,NA,NA,NA,NA,NA,NA,NA,NA,NA,NA,NA,NA,NA,NA,0,2,2,2,1,NA,NA,NA,NA,NA
SUPAMT88382,3PWWM24LHYX3X620SOD722RDAM082B,85E18216-5F58-439E-A47C-BFFFFBC2C704,2023-09-27_12h59.15.578,WP_VExplicitOC_LH,2022.2.5,Win32,5.374581454,NA,NA,NA,NA,NA,NA,NA,NA,NA,NA,NA,NA,NA,NA,NA,NA,NA,NA,NA,NA,NA,NA,NA,NA,NA,NA,NA,NA,NA,NA,NA,NA,NA,NA,NA,NA,NA,NA,NA,NA,NA,NA,NA,NA,NA,NA,NA,NA,NA,NA,NA,NA,NA,NA,13,0,13,0,1
SUPAMT88382,3PWWM24LHYX3X620SOD722RDAM082B,85E18216-5F58-439E-A47C-BFFFFBC2C704,2023-09-27_12h59.15.578,WP_VExplicitOC_LH,2022.2.5,Win32,5.374581454,-31.91505413,4.5896,2.1073,NA,NA,NA,NA,NA,happy,"unhappy, happy","less happy, more happy",NA,NA,NA,NA,NA,NA,NA,NA,NA,NA,NA,NA,NA,NA,NA,NA,NA,NA,NA,NA,NA,NA,NA,NA,NA,NA,NA,NA,NA,NA,NA,NA,NA,NA,NA,NA,NA,NA,0,0,0,0,1,NA,NA,NA,NA,NA
SUPAMT88382,3PWWM24LHYX3X620SOD722RDAM082B,85E18216-5F58-439E-A47C-BFFFFBC2C704,2023-09-27_12h59.15.578,WP_VExplicitOC_LH,2022.2.5,Win32,5.374581454,-43.39431335,5.8495,2.1685,NA,NA,NA,NA,NA,bored,"bored, not bored","more bored, less bored",NA,NA,NA,NA,NA,NA,NA,NA,NA,NA,NA,NA,NA,NA,NA,NA,NA,NA,NA,NA,NA,NA,NA,NA,NA,NA,NA,NA,NA,NA,NA,NA,NA,NA,NA,NA,NA,NA,0,1,1,2,1,NA,NA,NA,NA,NA
SUPAMT88382,3PWWM24LHYX3X620SOD722RDAM082B,85E18216-5F58-439E-A47C-BFFFFBC2C704,2023-09-27_12h59.15.578,WP_VExplicitOC_LH,2022.2.5,Win32,5.374581454,50.10596177,5.1573,2.3557,NA,NA,NA,NA,NA,frustrated,"frustrated, not frustrated","more frustrated, less frustrated",NA,NA,NA,NA,NA,NA,NA,NA,NA,NA,NA,NA,NA,NA,NA,NA,NA,NA,NA,NA,NA,NA,NA,NA,NA,NA,NA,NA,NA,NA,NA,NA,NA,NA,NA,NA,NA,NA,0,2,2,1,1,NA,NA,NA,NA,NA
SUPAMT88382,3PWWM24LHYX3X620SOD722RDAM082B,85E18216-5F58-439E-A47C-BFFFFBC2C704,2023-09-27_12h59.15.578,WP_VExplicitOC_LH,2022.2.5,Win32,5.374581454,NA,NA,NA,NA,NA,NA,NA,NA,NA,NA,NA,NA,NA,NA,NA,NA,NA,NA,NA,NA,NA,NA,NA,NA,NA,NA,NA,NA,NA,NA,NA,NA,NA,NA,NA,NA,NA,NA,NA,NA,NA,NA,NA,NA,NA,NA,NA,NA,NA,NA,NA,NA,NA,NA,14,0,14,0,1
SUPAMT88382,3PWWM24LHYX3X620SOD722RDAM082B,85E18216-5F58-439E-A47C-BFFFFBC2C704,2023-09-27_12h59.15.578,WP_VExplicitOC_LH,2022.2.5,Win32,5.374581454,NA,NA,NA,NA,NA,NA,NA,NA,NA,NA,NA,NA,NA,NA,NA,NA,NA,NA,NA,NA,NA,NA,NA,NA,NA,NA,NA,NA,NA,NA,NA,NA,NA,NA,NA,NA,NA,NA,NA,NA,NA,NA,NA,NA,NA,NA,NA,NA,NA,NA,NA,NA,NA,NA,NA,NA,NA,NA,NA
