participant,session,completion,date,expName,psychopyVersion,OS,frameRate,rating_all.response,rating_all.rt,rating_all.tStart,rndRat1.thisRepN,rndRat1.thisTrialN,rndRat1.thisN,rndRat1.thisIndex,rndRat1.ran,Emo,Labs,Labs2,rating_alt.response,rating_alt.rt,AltC.thisRepN,AltC.thisTrialN,AltC.thisN,AltC.thisIndex,AltC.ran,alt_choices,pic_choices,BottomAlt_Choice,rndRat2.thisRepN,rndRat2.thisTrialN,rndRat2.thisN,rndRat2.thisIndex,rndRat2.ran,rndRat3.thisRepN,rndRat3.thisTrialN,rndRat3.thisN,rndRat3.thisIndex,rndRat3.ran,trials_FC_L.thisRepN,trials_FC_L.thisTrialN,trials_FC_L.thisN,trials_FC_L.thisIndex,trials_FC_L.ran,rating_alt_2.response,rating_alt_2.rt,AltC2.thisRepN,AltC2.thisTrialN,AltC2.thisN,AltC2.thisIndex,AltC2.ran,TopAlt_Choice,rndRat4.thisRepN,rndRat4.thisTrialN,rndRat4.thisN,rndRat4.thisIndex,rndRat4.ran,rndRat5.thisRepN,rndRat5.thisTrialN,rndRat5.thisN,rndRat5.thisIndex,rndRat5.ran,trials_FC_H.thisRepN,trials_FC_H.thisTrialN,trials_FC_H.thisN,trials_FC_H.thisIndex,trials_FC_H.ran
SUPAMT77346,3F6KKYWMNH0B3NNKVFM7GI8CWHDDNK,E220CC54-908B-4948-9AAF-D4E4C9F7A5F9,2023-09-28_19h19.25.989,WP_VExplicitOC_LH,2022.2.5,Win32,5.333333333,NA,NA,NA,NA,NA,NA,NA,NA,NA,NA,NA,NA,NA,NA,NA,NA,NA,NA,NA,NA,NA,NA,NA,NA,NA,NA,NA,NA,NA,NA,NA,NA,NA,NA,NA,NA,NA,NA,NA,NA,NA,NA,NA,NA,NA,NA,NA,NA,NA,NA,NA,NA,NA,NA,NA,NA,NA,NA,NA
SUPAMT77346,3F6KKYWMNH0B3NNKVFM7GI8CWHDDNK,E220CC54-908B-4948-9AAF-D4E4C9F7A5F9,2023-09-28_19h19.25.989,WP_VExplicitOC_LH,2022.2.5,Win32,5.333333333,NA,NA,NA,NA,NA,NA,NA,NA,NA,NA,NA,NA,NA,NA,NA,NA,NA,NA,NA,NA,NA,NA,NA,NA,NA,NA,NA,NA,NA,NA,NA,NA,NA,NA,NA,NA,NA,NA,NA,NA,NA,NA,NA,NA,NA,NA,NA,NA,NA,NA,NA,NA,NA,NA,NA,NA,NA,NA,NA
SUPAMT77346,3F6KKYWMNH0B3NNKVFM7GI8CWHDDNK,E220CC54-908B-4948-9AAF-D4E4C9F7A5F9,2023-09-28_19h19.25.989,WP_VExplicitOC_LH,2022.2.5,Win32,5.333333333,NA,NA,NA,NA,NA,NA,NA,NA,NA,NA,NA,NA,NA,NA,NA,NA,NA,NA,NA,NA,NA,NA,NA,NA,NA,NA,NA,NA,NA,NA,NA,NA,NA,NA,NA,NA,NA,NA,NA,NA,NA,NA,NA,NA,NA,NA,NA,NA,NA,NA,NA,NA,NA,NA,NA,NA,NA,NA,NA
SUPAMT77346,3F6KKYWMNH0B3NNKVFM7GI8CWHDDNK,E220CC54-908B-4948-9AAF-D4E4C9F7A5F9,2023-09-28_19h19.25.989,WP_VExplicitOC_LH,2022.2.5,Win32,5.333333333,NA,NA,2.097,0,0,0,2,1,bored,"bored, not bored","more bored, less bored",NA,NA,NA,NA,NA,NA,NA,NA,NA,NA,NA,NA,NA,NA,NA,NA,NA,NA,NA,NA,NA,NA,NA,NA,NA,NA,NA,NA,NA,NA,NA,NA,NA,NA,NA,NA,NA,NA,NA,NA,NA,NA,NA,NA,NA,NA,NA,NA
SUPAMT77346,3F6KKYWMNH0B3NNKVFM7GI8CWHDDNK,E220CC54-908B-4948-9AAF-D4E4C9F7A5F9,2023-09-28_19h19.25.989,WP_VExplicitOC_LH,2022.2.5,Win32,5.333333333,NA,NA,2.157,0,1,1,0,1,happy,"unhappy, happy","less happy, more happy",NA,NA,NA,NA,NA,NA,NA,NA,NA,NA,NA,NA,NA,NA,NA,NA,NA,NA,NA,NA,NA,NA,NA,NA,NA,NA,NA,NA,NA,NA,NA,NA,NA,NA,NA,NA,NA,NA,NA,NA,NA,NA,NA,NA,NA,NA,NA,NA
SUPAMT77346,3F6KKYWMNH0B3NNKVFM7GI8CWHDDNK,E220CC54-908B-4948-9AAF-D4E4C9F7A5F9,2023-09-28_19h19.25.989,WP_VExplicitOC_LH,2022.2.5,Win32,5.333333333,49.07407407,4.406,2.084,0,2,2,1,1,frustrated,"frustrated, not frustrated","more frustrated, less frustrated",NA,NA,NA,NA,NA,NA,NA,NA,NA,NA,NA,NA,NA,NA,NA,NA,NA,NA,NA,NA,NA,NA,NA,NA,NA,NA,NA,NA,NA,NA,NA,NA,NA,NA,NA,NA,NA,NA,NA,NA,NA,NA,NA,NA,NA,NA,NA,NA
SUPAMT77346,3F6KKYWMNH0B3NNKVFM7GI8CWHDDNK,E220CC54-908B-4948-9AAF-D4E4C9F7A5F9,2023-09-28_19h19.25.989,WP_VExplicitOC_LH,2022.2.5,Win32,5.333333333,NA,NA,NA,NA,NA,NA,NA,NA,NA,NA,NA,NA,NA,NA,NA,NA,NA,NA,NA,NA,NA,NA,NA,NA,NA,NA,NA,NA,NA,NA,NA,NA,NA,NA,NA,NA,NA,NA,NA,NA,NA,NA,NA,NA,NA,NA,NA,NA,NA,NA,NA,NA,NA,NA,NA,NA,NA,NA,NA
SUPAMT77346,3F6KKYWMNH0B3NNKVFM7GI8CWHDDNK,E220CC54-908B-4948-9AAF-D4E4C9F7A5F9,2023-09-28_19h19.25.989,WP_VExplicitOC_LH,2022.2.5,Win32,5.333333333,NA,NA,NA,NA,NA,NA,NA,NA,NA,NA,NA,NA,NA,NA,NA,NA,NA,NA,NA,NA,NA,NA,NA,NA,NA,NA,NA,NA,NA,NA,NA,NA,NA,NA,NA,NA,NA,NA,NA,NA,NA,NA,NA,NA,NA,NA,NA,NA,NA,NA,NA,NA,NA,NA,NA,NA,NA,NA,NA
SUPAMT77346,3F6KKYWMNH0B3NNKVFM7GI8CWHDDNK,E220CC54-908B-4948-9AAF-D4E4C9F7A5F9,2023-09-28_19h19.25.989,WP_VExplicitOC_LH,2022.2.5,Win32,5.333333333,NA,NA,NA,NA,NA,NA,NA,NA,NA,NA,NA,NA,NA,NA,NA,NA,NA,NA,NA,NA,NA,NA,NA,NA,NA,NA,NA,NA,NA,NA,NA,NA,NA,NA,NA,NA,NA,NA,NA,NA,NA,NA,NA,NA,NA,NA,NA,NA,NA,NA,NA,NA,NA,NA,NA,NA,NA,NA,NA
SUPAMT77346,3F6KKYWMNH0B3NNKVFM7GI8CWHDDNK,E220CC54-908B-4948-9AAF-D4E4C9F7A5F9,2023-09-28_19h19.25.989,WP_VExplicitOC_LH,2022.2.5,Win32,5.333333333,NA,NA,NA,NA,NA,NA,NA,NA,NA,NA,NA,NA,NA,NA,NA,NA,NA,NA,NA,NA,NA,NA,NA,NA,NA,NA,NA,NA,NA,NA,NA,NA,NA,NA,NA,NA,NA,NA,NA,NA,NA,NA,NA,NA,NA,NA,NA,NA,NA,NA,NA,NA,NA,NA,NA,NA,NA,NA,NA
SUPAMT77346,3F6KKYWMNH0B3NNKVFM7GI8CWHDDNK,E220CC54-908B-4948-9AAF-D4E4C9F7A5F9,2023-09-28_19h19.25.989,WP_VExplicitOC_LH,2022.2.5,Win32,5.333333333,NA,NA,NA,NA,NA,NA,NA,NA,NA,NA,NA,54.44444444,3.788,0,0,0,0,1,rest (looking at a fixed cross),001.png,NA,NA,NA,NA,NA,NA,NA,NA,NA,NA,NA,NA,NA,NA,NA,NA,NA,NA,NA,NA,NA,NA,NA,NA,NA,NA,NA,NA,NA,NA,NA,NA,NA,NA,NA,NA,NA,NA,NA
SUPAMT77346,3F6KKYWMNH0B3NNKVFM7GI8CWHDDNK,E220CC54-908B-4948-9AAF-D4E4C9F7A5F9,2023-09-28_19h19.25.989,WP_VExplicitOC_LH,2022.2.5,Win32,5.333333333,NA,NA,NA,NA,NA,NA,NA,NA,NA,NA,NA,54.62962963,2.412,0,1,1,1,1,stand up,002.png,NA,NA,NA,NA,NA,NA,NA,NA,NA,NA,NA,NA,NA,NA,NA,NA,NA,NA,NA,NA,NA,NA,NA,NA,NA,NA,NA,NA,NA,NA,NA,NA,NA,NA,NA,NA,NA,NA,NA
SUPAMT77346,3F6KKYWMNH0B3NNKVFM7GI8CWHDDNK,E220CC54-908B-4948-9AAF-D4E4C9F7A5F9,2023-09-28_19h19.25.989,WP_VExplicitOC_LH,2022.2.5,Win32,5.333333333,NA,NA,NA,NA,NA,NA,NA,NA,NA,NA,NA,54.62962963,2.489,0,2,2,2,1,stretch,003.png,NA,NA,NA,NA,NA,NA,NA,NA,NA,NA,NA,NA,NA,NA,NA,NA,NA,NA,NA,NA,NA,NA,NA,NA,NA,NA,NA,NA,NA,NA,NA,NA,NA,NA,NA,NA,NA,NA,NA
SUPAMT77346,3F6KKYWMNH0B3NNKVFM7GI8CWHDDNK,E220CC54-908B-4948-9AAF-D4E4C9F7A5F9,2023-09-28_19h19.25.989,WP_VExplicitOC_LH,2022.2.5,Win32,5.333333333,NA,NA,NA,NA,NA,NA,NA,NA,NA,NA,NA,56.2962963,3.318,0,3,3,3,1,make a drink,004.png,NA,NA,NA,NA,NA,NA,NA,NA,NA,NA,NA,NA,NA,NA,NA,NA,NA,NA,NA,NA,NA,NA,NA,NA,NA,NA,NA,NA,NA,NA,NA,NA,NA,NA,NA,NA,NA,NA,NA
SUPAMT77346,3F6KKYWMNH0B3NNKVFM7GI8CWHDDNK,E220CC54-908B-4948-9AAF-D4E4C9F7A5F9,2023-09-28_19h19.25.989,WP_VExplicitOC_LH,2022.2.5,Win32,5.333333333,NA,NA,NA,NA,NA,NA,NA,NA,NA,NA,NA,NA,NA,0,4,4,4,1,scroll social media,005.png,NA,NA,NA,NA,NA,NA,NA,NA,NA,NA,NA,NA,NA,NA,NA,NA,NA,NA,NA,NA,NA,NA,NA,NA,NA,NA,NA,NA,NA,NA,NA,NA,NA,NA,NA,NA,NA,NA,NA
SUPAMT77346,3F6KKYWMNH0B3NNKVFM7GI8CWHDDNK,E220CC54-908B-4948-9AAF-D4E4C9F7A5F9,2023-09-28_19h19.25.989,WP_VExplicitOC_LH,2022.2.5,Win32,5.333333333,NA,NA,NA,NA,NA,NA,NA,NA,NA,NA,NA,52.22222222,3.943,0,5,5,5,1,listen to music,006.png,NA,NA,NA,NA,NA,NA,NA,NA,NA,NA,NA,NA,NA,NA,NA,NA,NA,NA,NA,NA,NA,NA,NA,NA,NA,NA,NA,NA,NA,NA,NA,NA,NA,NA,NA,NA,NA,NA,NA
SUPAMT77346,3F6KKYWMNH0B3NNKVFM7GI8CWHDDNK,E220CC54-908B-4948-9AAF-D4E4C9F7A5F9,2023-09-28_19h19.25.989,WP_VExplicitOC_LH,2022.2.5,Win32,5.333333333,NA,NA,NA,NA,NA,NA,NA,NA,NA,NA,NA,88.51851852,3.273,0,6,6,6,1,daydream,007.png,NA,NA,NA,NA,NA,NA,NA,NA,NA,NA,NA,NA,NA,NA,NA,NA,NA,NA,NA,NA,NA,NA,NA,NA,NA,NA,NA,NA,NA,NA,NA,NA,NA,NA,NA,NA,NA,NA,NA
SUPAMT77346,3F6KKYWMNH0B3NNKVFM7GI8CWHDDNK,E220CC54-908B-4948-9AAF-D4E4C9F7A5F9,2023-09-28_19h19.25.989,WP_VExplicitOC_LH,2022.2.5,Win32,5.333333333,NA,NA,NA,NA,NA,NA,NA,NA,NA,NA,NA,79.25925926,3.252,0,7,7,7,1,watch a short animation,008.png,NA,NA,NA,NA,NA,NA,NA,NA,NA,NA,NA,NA,NA,NA,NA,NA,NA,NA,NA,NA,NA,NA,NA,NA,NA,NA,NA,NA,NA,NA,NA,NA,NA,NA,NA,NA,NA,NA,NA
SUPAMT77346,3F6KKYWMNH0B3NNKVFM7GI8CWHDDNK,E220CC54-908B-4948-9AAF-D4E4C9F7A5F9,2023-09-28_19h19.25.989,WP_VExplicitOC_LH,2022.2.5,Win32,5.333333333,NA,NA,NA,NA,NA,NA,NA,NA,NA,NA,NA,94.25925926,2.319,0,8,8,8,1,read a novel,009.png,NA,NA,NA,NA,NA,NA,NA,NA,NA,NA,NA,NA,NA,NA,NA,NA,NA,NA,NA,NA,NA,NA,NA,NA,NA,NA,NA,NA,NA,NA,NA,NA,NA,NA,NA,NA,NA,NA,NA
SUPAMT77346,3F6KKYWMNH0B3NNKVFM7GI8CWHDDNK,E220CC54-908B-4948-9AAF-D4E4C9F7A5F9,2023-09-28_19h19.25.989,WP_VExplicitOC_LH,2022.2.5,Win32,5.333333333,NA,NA,NA,NA,NA,NA,NA,NA,NA,NA,NA,97.22222222,2.006,0,9,9,9,1,read the news,010.png,NA,NA,NA,NA,NA,NA,NA,NA,NA,NA,NA,NA,NA,NA,NA,NA,NA,NA,NA,NA,NA,NA,NA,NA,NA,NA,NA,NA,NA,NA,NA,NA,NA,NA,NA,NA,NA,NA,NA
SUPAMT77346,3F6KKYWMNH0B3NNKVFM7GI8CWHDDNK,E220CC54-908B-4948-9AAF-D4E4C9F7A5F9,2023-09-28_19h19.25.989,WP_VExplicitOC_LH,2022.2.5,Win32,5.333333333,NA,NA,NA,NA,NA,NA,NA,NA,NA,NA,NA,NA,NA,NA,NA,NA,NA,NA,NA,NA,NA,NA,NA,NA,NA,NA,NA,NA,NA,NA,NA,NA,NA,NA,NA,NA,NA,NA,NA,NA,NA,NA,NA,NA,NA,NA,NA,NA,NA,NA,NA,NA,NA,NA,NA,NA,NA,NA,NA
SUPAMT77346,3F6KKYWMNH0B3NNKVFM7GI8CWHDDNK,E220CC54-908B-4948-9AAF-D4E4C9F7A5F9,2023-09-28_19h19.25.989,WP_VExplicitOC_LH,2022.2.5,Win32,5.333333333,NA,NA,NA,NA,NA,NA,NA,NA,NA,NA,NA,NA,NA,NA,NA,NA,NA,NA,NA,NA,scroll social media,NA,NA,NA,NA,NA,NA,NA,NA,NA,NA,NA,NA,NA,NA,NA,NA,NA,NA,NA,NA,NA,NA,NA,NA,NA,NA,NA,NA,NA,NA,NA,NA,NA,NA,NA,NA,NA,NA
SUPAMT77346,3F6KKYWMNH0B3NNKVFM7GI8CWHDDNK,E220CC54-908B-4948-9AAF-D4E4C9F7A5F9,2023-09-28_19h19.25.989,WP_VExplicitOC_LH,2022.2.5,Win32,5.333333333,98.51851852,7.109,2.198,NA,NA,NA,NA,NA,happy,"unhappy, happy","less happy, more happy",NA,NA,NA,NA,NA,NA,NA,NA,NA,NA,0,0,0,0,1,NA,NA,NA,NA,NA,NA,NA,NA,NA,NA,NA,NA,NA,NA,NA,NA,NA,NA,NA,NA,NA,NA,NA,NA,NA,NA,NA,NA,NA,NA,NA,NA,NA
SUPAMT77346,3F6KKYWMNH0B3NNKVFM7GI8CWHDDNK,E220CC54-908B-4948-9AAF-D4E4C9F7A5F9,2023-09-28_19h19.25.989,WP_VExplicitOC_LH,2022.2.5,Win32,5.333333333,NA,NA,2.185,NA,NA,NA,NA,NA,bored,"bored, not bored","more bored, less bored",NA,NA,NA,NA,NA,NA,NA,NA,NA,NA,0,1,1,2,1,NA,NA,NA,NA,NA,NA,NA,NA,NA,NA,NA,NA,NA,NA,NA,NA,NA,NA,NA,NA,NA,NA,NA,NA,NA,NA,NA,NA,NA,NA,NA,NA,NA
SUPAMT77346,3F6KKYWMNH0B3NNKVFM7GI8CWHDDNK,E220CC54-908B-4948-9AAF-D4E4C9F7A5F9,2023-09-28_19h19.25.989,WP_VExplicitOC_LH,2022.2.5,Win32,5.333333333,99.25925926,7.524,2.18,NA,NA,NA,NA,NA,frustrated,"frustrated, not frustrated","more frustrated, less frustrated",NA,NA,NA,NA,NA,NA,NA,NA,NA,NA,0,2,2,1,1,NA,NA,NA,NA,NA,NA,NA,NA,NA,NA,NA,NA,NA,NA,NA,NA,NA,NA,NA,NA,NA,NA,NA,NA,NA,NA,NA,NA,NA,NA,NA,NA,NA
SUPAMT77346,3F6KKYWMNH0B3NNKVFM7GI8CWHDDNK,E220CC54-908B-4948-9AAF-D4E4C9F7A5F9,2023-09-28_19h19.25.989,WP_VExplicitOC_LH,2022.2.5,Win32,5.333333333,NA,NA,NA,NA,NA,NA,NA,NA,NA,NA,NA,NA,NA,NA,NA,NA,NA,NA,NA,NA,NA,NA,NA,NA,NA,NA,NA,NA,NA,NA,NA,NA,NA,NA,NA,NA,NA,NA,NA,NA,NA,NA,NA,NA,NA,NA,NA,NA,NA,NA,NA,NA,NA,NA,NA,NA,NA,NA,NA
SUPAMT77346,3F6KKYWMNH0B3NNKVFM7GI8CWHDDNK,E220CC54-908B-4948-9AAF-D4E4C9F7A5F9,2023-09-28_19h19.25.989,WP_VExplicitOC_LH,2022.2.5,Win32,5.333333333,NA,NA,NA,NA,NA,NA,NA,NA,NA,NA,NA,NA,NA,NA,NA,NA,NA,NA,NA,NA,NA,NA,NA,NA,NA,NA,NA,NA,NA,NA,NA,NA,NA,NA,NA,NA,NA,NA,NA,NA,NA,NA,NA,NA,NA,NA,NA,NA,NA,NA,NA,NA,NA,NA,NA,NA,NA,NA,NA
SUPAMT77346,3F6KKYWMNH0B3NNKVFM7GI8CWHDDNK,E220CC54-908B-4948-9AAF-D4E4C9F7A5F9,2023-09-28_19h19.25.989,WP_VExplicitOC_LH,2022.2.5,Win32,5.333333333,99.62962963,6.478,2.03,NA,NA,NA,NA,NA,frustrated,"frustrated, not frustrated","more frustrated, less frustrated",NA,NA,NA,NA,NA,NA,NA,NA,NA,NA,NA,NA,NA,NA,NA,0,0,0,1,1,NA,NA,NA,NA,NA,NA,NA,NA,NA,NA,NA,NA,NA,NA,NA,NA,NA,NA,NA,NA,NA,NA,NA,NA,NA,NA,NA,NA
SUPAMT77346,3F6KKYWMNH0B3NNKVFM7GI8CWHDDNK,E220CC54-908B-4948-9AAF-D4E4C9F7A5F9,2023-09-28_19h19.25.989,WP_VExplicitOC_LH,2022.2.5,Win32,5.333333333,99.62962963,7.189,2.208,NA,NA,NA,NA,NA,bored,"bored, not bored","more bored, less bored",NA,NA,NA,NA,NA,NA,NA,NA,NA,NA,NA,NA,NA,NA,NA,0,1,1,2,1,NA,NA,NA,NA,NA,NA,NA,NA,NA,NA,NA,NA,NA,NA,NA,NA,NA,NA,NA,NA,NA,NA,NA,NA,NA,NA,NA,NA
SUPAMT77346,3F6KKYWMNH0B3NNKVFM7GI8CWHDDNK,E220CC54-908B-4948-9AAF-D4E4C9F7A5F9,2023-09-28_19h19.25.989,WP_VExplicitOC_LH,2022.2.5,Win32,5.333333333,98.88888889,2.293,2.058,NA,NA,NA,NA,NA,happy,"unhappy, happy","less happy, more happy",NA,NA,NA,NA,NA,NA,NA,NA,NA,NA,NA,NA,NA,NA,NA,0,2,2,0,1,NA,NA,NA,NA,NA,NA,NA,NA,NA,NA,NA,NA,NA,NA,NA,NA,NA,NA,NA,NA,NA,NA,NA,NA,NA,NA,NA,NA
SUPAMT77346,3F6KKYWMNH0B3NNKVFM7GI8CWHDDNK,E220CC54-908B-4948-9AAF-D4E4C9F7A5F9,2023-09-28_19h19.25.989,WP_VExplicitOC_LH,2022.2.5,Win32,5.333333333,NA,NA,NA,NA,NA,NA,NA,NA,NA,NA,NA,NA,NA,NA,NA,NA,NA,NA,NA,NA,NA,NA,NA,NA,NA,NA,NA,NA,NA,NA,NA,0,0,0,0,1,NA,NA,NA,NA,NA,NA,NA,NA,NA,NA,NA,NA,NA,NA,NA,NA,NA,NA,NA,NA,NA,NA,NA
SUPAMT77346,3F6KKYWMNH0B3NNKVFM7GI8CWHDDNK,E220CC54-908B-4948-9AAF-D4E4C9F7A5F9,2023-09-28_19h19.25.989,WP_VExplicitOC_LH,2022.2.5,Win32,5.333333333,NA,NA,2.173,NA,NA,NA,NA,NA,bored,"bored, not bored","more bored, less bored",NA,NA,NA,NA,NA,NA,NA,NA,NA,NA,NA,NA,NA,NA,NA,0,0,0,2,1,NA,NA,NA,NA,NA,NA,NA,NA,NA,NA,NA,NA,NA,NA,NA,NA,NA,NA,NA,NA,NA,NA,NA,NA,NA,NA,NA,NA
SUPAMT77346,3F6KKYWMNH0B3NNKVFM7GI8CWHDDNK,E220CC54-908B-4948-9AAF-D4E4C9F7A5F9,2023-09-28_19h19.25.989,WP_VExplicitOC_LH,2022.2.5,Win32,5.333333333,4.259259259,3.524,2.056,NA,NA,NA,NA,NA,happy,"unhappy, happy","less happy, more happy",NA,NA,NA,NA,NA,NA,NA,NA,NA,NA,NA,NA,NA,NA,NA,0,1,1,0,1,NA,NA,NA,NA,NA,NA,NA,NA,NA,NA,NA,NA,NA,NA,NA,NA,NA,NA,NA,NA,NA,NA,NA,NA,NA,NA,NA,NA
SUPAMT77346,3F6KKYWMNH0B3NNKVFM7GI8CWHDDNK,E220CC54-908B-4948-9AAF-D4E4C9F7A5F9,2023-09-28_19h19.25.989,WP_VExplicitOC_LH,2022.2.5,Win32,5.333333333,NA,NA,2.156,NA,NA,NA,NA,NA,frustrated,"frustrated, not frustrated","more frustrated, less frustrated",NA,NA,NA,NA,NA,NA,NA,NA,NA,NA,NA,NA,NA,NA,NA,0,2,2,1,1,NA,NA,NA,NA,NA,NA,NA,NA,NA,NA,NA,NA,NA,NA,NA,NA,NA,NA,NA,NA,NA,NA,NA,NA,NA,NA,NA,NA
SUPAMT77346,3F6KKYWMNH0B3NNKVFM7GI8CWHDDNK,E220CC54-908B-4948-9AAF-D4E4C9F7A5F9,2023-09-28_19h19.25.989,WP_VExplicitOC_LH,2022.2.5,Win32,5.333333333,NA,NA,NA,NA,NA,NA,NA,NA,NA,NA,NA,NA,NA,NA,NA,NA,NA,NA,NA,NA,NA,NA,NA,NA,NA,NA,NA,NA,NA,NA,NA,1,0,1,0,1,NA,NA,NA,NA,NA,NA,NA,NA,NA,NA,NA,NA,NA,NA,NA,NA,NA,NA,NA,NA,NA,NA,NA
SUPAMT77346,3F6KKYWMNH0B3NNKVFM7GI8CWHDDNK,E220CC54-908B-4948-9AAF-D4E4C9F7A5F9,2023-09-28_19h19.25.989,WP_VExplicitOC_LH,2022.2.5,Win32,5.333333333,100,4.914,2.155,NA,NA,NA,NA,NA,bored,"bored, not bored","more bored, less bored",NA,NA,NA,NA,NA,NA,NA,NA,NA,NA,NA,NA,NA,NA,NA,0,0,0,2,1,NA,NA,NA,NA,NA,NA,NA,NA,NA,NA,NA,NA,NA,NA,NA,NA,NA,NA,NA,NA,NA,NA,NA,NA,NA,NA,NA,NA
SUPAMT77346,3F6KKYWMNH0B3NNKVFM7GI8CWHDDNK,E220CC54-908B-4948-9AAF-D4E4C9F7A5F9,2023-09-28_19h19.25.989,WP_VExplicitOC_LH,2022.2.5,Win32,5.333333333,99.62962963,2.347,2.135,NA,NA,NA,NA,NA,happy,"unhappy, happy","less happy, more happy",NA,NA,NA,NA,NA,NA,NA,NA,NA,NA,NA,NA,NA,NA,NA,0,1,1,0,1,NA,NA,NA,NA,NA,NA,NA,NA,NA,NA,NA,NA,NA,NA,NA,NA,NA,NA,NA,NA,NA,NA,NA,NA,NA,NA,NA,NA
SUPAMT77346,3F6KKYWMNH0B3NNKVFM7GI8CWHDDNK,E220CC54-908B-4948-9AAF-D4E4C9F7A5F9,2023-09-28_19h19.25.989,WP_VExplicitOC_LH,2022.2.5,Win32,5.333333333,99.81481481,5.278,2.095,NA,NA,NA,NA,NA,frustrated,"frustrated, not frustrated","more frustrated, less frustrated",NA,NA,NA,NA,NA,NA,NA,NA,NA,NA,NA,NA,NA,NA,NA,0,2,2,1,1,NA,NA,NA,NA,NA,NA,NA,NA,NA,NA,NA,NA,NA,NA,NA,NA,NA,NA,NA,NA,NA,NA,NA,NA,NA,NA,NA,NA
SUPAMT77346,3F6KKYWMNH0B3NNKVFM7GI8CWHDDNK,E220CC54-908B-4948-9AAF-D4E4C9F7A5F9,2023-09-28_19h19.25.989,WP_VExplicitOC_LH,2022.2.5,Win32,5.333333333,NA,NA,NA,NA,NA,NA,NA,NA,NA,NA,NA,NA,NA,NA,NA,NA,NA,NA,NA,NA,NA,NA,NA,NA,NA,NA,NA,NA,NA,NA,NA,2,0,2,0,1,NA,NA,NA,NA,NA,NA,NA,NA,NA,NA,NA,NA,NA,NA,NA,NA,NA,NA,NA,NA,NA,NA,NA
SUPAMT77346,3F6KKYWMNH0B3NNKVFM7GI8CWHDDNK,E220CC54-908B-4948-9AAF-D4E4C9F7A5F9,2023-09-28_19h19.25.989,WP_VExplicitOC_LH,2022.2.5,Win32,5.333333333,99.44444444,5.793,2.162,NA,NA,NA,NA,NA,happy,"unhappy, happy","less happy, more happy",NA,NA,NA,NA,NA,NA,NA,NA,NA,NA,NA,NA,NA,NA,NA,0,0,0,0,1,NA,NA,NA,NA,NA,NA,NA,NA,NA,NA,NA,NA,NA,NA,NA,NA,NA,NA,NA,NA,NA,NA,NA,NA,NA,NA,NA,NA
SUPAMT77346,3F6KKYWMNH0B3NNKVFM7GI8CWHDDNK,E220CC54-908B-4948-9AAF-D4E4C9F7A5F9,2023-09-28_19h19.25.989,WP_VExplicitOC_LH,2022.2.5,Win32,5.333333333,98.33333333,3.219,2.137,NA,NA,NA,NA,NA,bored,"bored, not bored","more bored, less bored",NA,NA,NA,NA,NA,NA,NA,NA,NA,NA,NA,NA,NA,NA,NA,0,1,1,2,1,NA,NA,NA,NA,NA,NA,NA,NA,NA,NA,NA,NA,NA,NA,NA,NA,NA,NA,NA,NA,NA,NA,NA,NA,NA,NA,NA,NA
SUPAMT77346,3F6KKYWMNH0B3NNKVFM7GI8CWHDDNK,E220CC54-908B-4948-9AAF-D4E4C9F7A5F9,2023-09-28_19h19.25.989,WP_VExplicitOC_LH,2022.2.5,Win32,5.333333333,99.44444444,5.997,2.091,NA,NA,NA,NA,NA,frustrated,"frustrated, not frustrated","more frustrated, less frustrated",NA,NA,NA,NA,NA,NA,NA,NA,NA,NA,NA,NA,NA,NA,NA,0,2,2,1,1,NA,NA,NA,NA,NA,NA,NA,NA,NA,NA,NA,NA,NA,NA,NA,NA,NA,NA,NA,NA,NA,NA,NA,NA,NA,NA,NA,NA
SUPAMT77346,3F6KKYWMNH0B3NNKVFM7GI8CWHDDNK,E220CC54-908B-4948-9AAF-D4E4C9F7A5F9,2023-09-28_19h19.25.989,WP_VExplicitOC_LH,2022.2.5,Win32,5.333333333,NA,NA,NA,NA,NA,NA,NA,NA,NA,NA,NA,NA,NA,NA,NA,NA,NA,NA,NA,NA,NA,NA,NA,NA,NA,NA,NA,NA,NA,NA,NA,3,0,3,0,1,NA,NA,NA,NA,NA,NA,NA,NA,NA,NA,NA,NA,NA,NA,NA,NA,NA,NA,NA,NA,NA,NA,NA
SUPAMT77346,3F6KKYWMNH0B3NNKVFM7GI8CWHDDNK,E220CC54-908B-4948-9AAF-D4E4C9F7A5F9,2023-09-28_19h19.25.989,WP_VExplicitOC_LH,2022.2.5,Win32,5.333333333,98.7037037,4.164,2.061,NA,NA,NA,NA,NA,bored,"bored, not bored","more bored, less bored",NA,NA,NA,NA,NA,NA,NA,NA,NA,NA,NA,NA,NA,NA,NA,0,0,0,2,1,NA,NA,NA,NA,NA,NA,NA,NA,NA,NA,NA,NA,NA,NA,NA,NA,NA,NA,NA,NA,NA,NA,NA,NA,NA,NA,NA,NA
SUPAMT77346,3F6KKYWMNH0B3NNKVFM7GI8CWHDDNK,E220CC54-908B-4948-9AAF-D4E4C9F7A5F9,2023-09-28_19h19.25.989,WP_VExplicitOC_LH,2022.2.5,Win32,5.333333333,NA,NA,2.096,NA,NA,NA,NA,NA,frustrated,"frustrated, not frustrated","more frustrated, less frustrated",NA,NA,NA,NA,NA,NA,NA,NA,NA,NA,NA,NA,NA,NA,NA,0,1,1,1,1,NA,NA,NA,NA,NA,NA,NA,NA,NA,NA,NA,NA,NA,NA,NA,NA,NA,NA,NA,NA,NA,NA,NA,NA,NA,NA,NA,NA
SUPAMT77346,3F6KKYWMNH0B3NNKVFM7GI8CWHDDNK,E220CC54-908B-4948-9AAF-D4E4C9F7A5F9,2023-09-28_19h19.25.989,WP_VExplicitOC_LH,2022.2.5,Win32,5.333333333,98.33333333,3.149,2.1,NA,NA,NA,NA,NA,happy,"unhappy, happy","less happy, more happy",NA,NA,NA,NA,NA,NA,NA,NA,NA,NA,NA,NA,NA,NA,NA,0,2,2,0,1,NA,NA,NA,NA,NA,NA,NA,NA,NA,NA,NA,NA,NA,NA,NA,NA,NA,NA,NA,NA,NA,NA,NA,NA,NA,NA,NA,NA
SUPAMT77346,3F6KKYWMNH0B3NNKVFM7GI8CWHDDNK,E220CC54-908B-4948-9AAF-D4E4C9F7A5F9,2023-09-28_19h19.25.989,WP_VExplicitOC_LH,2022.2.5,Win32,5.333333333,NA,NA,NA,NA,NA,NA,NA,NA,NA,NA,NA,NA,NA,NA,NA,NA,NA,NA,NA,NA,NA,NA,NA,NA,NA,NA,NA,NA,NA,NA,NA,4,0,4,0,1,NA,NA,NA,NA,NA,NA,NA,NA,NA,NA,NA,NA,NA,NA,NA,NA,NA,NA,NA,NA,NA,NA,NA
SUPAMT77346,3F6KKYWMNH0B3NNKVFM7GI8CWHDDNK,E220CC54-908B-4948-9AAF-D4E4C9F7A5F9,2023-09-28_19h19.25.989,WP_VExplicitOC_LH,2022.2.5,Win32,5.333333333,98.14814815,4.738,2.148,NA,NA,NA,NA,NA,frustrated,"frustrated, not frustrated","more frustrated, less frustrated",NA,NA,NA,NA,NA,NA,NA,NA,NA,NA,NA,NA,NA,NA,NA,0,0,0,1,1,NA,NA,NA,NA,NA,NA,NA,NA,NA,NA,NA,NA,NA,NA,NA,NA,NA,NA,NA,NA,NA,NA,NA,NA,NA,NA,NA,NA
SUPAMT77346,3F6KKYWMNH0B3NNKVFM7GI8CWHDDNK,E220CC54-908B-4948-9AAF-D4E4C9F7A5F9,2023-09-28_19h19.25.989,WP_VExplicitOC_LH,2022.2.5,Win32,5.333333333,99.25925926,4.598,2.112,NA,NA,NA,NA,NA,bored,"bored, not bored","more bored, less bored",NA,NA,NA,NA,NA,NA,NA,NA,NA,NA,NA,NA,NA,NA,NA,0,1,1,2,1,NA,NA,NA,NA,NA,NA,NA,NA,NA,NA,NA,NA,NA,NA,NA,NA,NA,NA,NA,NA,NA,NA,NA,NA,NA,NA,NA,NA
SUPAMT77346,3F6KKYWMNH0B3NNKVFM7GI8CWHDDNK,E220CC54-908B-4948-9AAF-D4E4C9F7A5F9,2023-09-28_19h19.25.989,WP_VExplicitOC_LH,2022.2.5,Win32,5.333333333,95.37037037,5.12,2.173,NA,NA,NA,NA,NA,happy,"unhappy, happy","less happy, more happy",NA,NA,NA,NA,NA,NA,NA,NA,NA,NA,NA,NA,NA,NA,NA,0,2,2,0,1,NA,NA,NA,NA,NA,NA,NA,NA,NA,NA,NA,NA,NA,NA,NA,NA,NA,NA,NA,NA,NA,NA,NA,NA,NA,NA,NA,NA
SUPAMT77346,3F6KKYWMNH0B3NNKVFM7GI8CWHDDNK,E220CC54-908B-4948-9AAF-D4E4C9F7A5F9,2023-09-28_19h19.25.989,WP_VExplicitOC_LH,2022.2.5,Win32,5.333333333,NA,NA,NA,NA,NA,NA,NA,NA,NA,NA,NA,NA,NA,NA,NA,NA,NA,NA,NA,NA,NA,NA,NA,NA,NA,NA,NA,NA,NA,NA,NA,5,0,5,0,1,NA,NA,NA,NA,NA,NA,NA,NA,NA,NA,NA,NA,NA,NA,NA,NA,NA,NA,NA,NA,NA,NA,NA
SUPAMT77346,3F6KKYWMNH0B3NNKVFM7GI8CWHDDNK,E220CC54-908B-4948-9AAF-D4E4C9F7A5F9,2023-09-28_19h19.25.989,WP_VExplicitOC_LH,2022.2.5,Win32,5.333333333,92.22222222,6.613,2.085,NA,NA,NA,NA,NA,frustrated,"frustrated, not frustrated","more frustrated, less frustrated",NA,NA,NA,NA,NA,NA,NA,NA,NA,NA,NA,NA,NA,NA,NA,0,0,0,1,1,NA,NA,NA,NA,NA,NA,NA,NA,NA,NA,NA,NA,NA,NA,NA,NA,NA,NA,NA,NA,NA,NA,NA,NA,NA,NA,NA,NA
SUPAMT77346,3F6KKYWMNH0B3NNKVFM7GI8CWHDDNK,E220CC54-908B-4948-9AAF-D4E4C9F7A5F9,2023-09-28_19h19.25.989,WP_VExplicitOC_LH,2022.2.5,Win32,5.333333333,73.14814815,5.396,2.085,NA,NA,NA,NA,NA,bored,"bored, not bored","more bored, less bored",NA,NA,NA,NA,NA,NA,NA,NA,NA,NA,NA,NA,NA,NA,NA,0,1,1,2,1,NA,NA,NA,NA,NA,NA,NA,NA,NA,NA,NA,NA,NA,NA,NA,NA,NA,NA,NA,NA,NA,NA,NA,NA,NA,NA,NA,NA
SUPAMT77346,3F6KKYWMNH0B3NNKVFM7GI8CWHDDNK,E220CC54-908B-4948-9AAF-D4E4C9F7A5F9,2023-09-28_19h19.25.989,WP_VExplicitOC_LH,2022.2.5,Win32,5.333333333,61.48148148,4.344,2.052,NA,NA,NA,NA,NA,happy,"unhappy, happy","less happy, more happy",NA,NA,NA,NA,NA,NA,NA,NA,NA,NA,NA,NA,NA,NA,NA,0,2,2,0,1,NA,NA,NA,NA,NA,NA,NA,NA,NA,NA,NA,NA,NA,NA,NA,NA,NA,NA,NA,NA,NA,NA,NA,NA,NA,NA,NA,NA
SUPAMT77346,3F6KKYWMNH0B3NNKVFM7GI8CWHDDNK,E220CC54-908B-4948-9AAF-D4E4C9F7A5F9,2023-09-28_19h19.25.989,WP_VExplicitOC_LH,2022.2.5,Win32,5.333333333,NA,NA,NA,NA,NA,NA,NA,NA,NA,NA,NA,NA,NA,NA,NA,NA,NA,NA,NA,NA,NA,NA,NA,NA,NA,NA,NA,NA,NA,NA,NA,6,0,6,0,1,NA,NA,NA,NA,NA,NA,NA,NA,NA,NA,NA,NA,NA,NA,NA,NA,NA,NA,NA,NA,NA,NA,NA
SUPAMT77346,3F6KKYWMNH0B3NNKVFM7GI8CWHDDNK,E220CC54-908B-4948-9AAF-D4E4C9F7A5F9,2023-09-28_19h19.25.989,WP_VExplicitOC_LH,2022.2.5,Win32,5.333333333,-4.259259259,3.977,2.067,NA,NA,NA,NA,NA,bored,"bored, not bored","more bored, less bored",NA,NA,NA,NA,NA,NA,NA,NA,NA,NA,NA,NA,NA,NA,NA,0,0,0,2,1,NA,NA,NA,NA,NA,NA,NA,NA,NA,NA,NA,NA,NA,NA,NA,NA,NA,NA,NA,NA,NA,NA,NA,NA,NA,NA,NA,NA
SUPAMT77346,3F6KKYWMNH0B3NNKVFM7GI8CWHDDNK,E220CC54-908B-4948-9AAF-D4E4C9F7A5F9,2023-09-28_19h19.25.989,WP_VExplicitOC_LH,2022.2.5,Win32,5.333333333,6.666666667,4.333,2.079,NA,NA,NA,NA,NA,happy,"unhappy, happy","less happy, more happy",NA,NA,NA,NA,NA,NA,NA,NA,NA,NA,NA,NA,NA,NA,NA,0,1,1,0,1,NA,NA,NA,NA,NA,NA,NA,NA,NA,NA,NA,NA,NA,NA,NA,NA,NA,NA,NA,NA,NA,NA,NA,NA,NA,NA,NA,NA
SUPAMT77346,3F6KKYWMNH0B3NNKVFM7GI8CWHDDNK,E220CC54-908B-4948-9AAF-D4E4C9F7A5F9,2023-09-28_19h19.25.989,WP_VExplicitOC_LH,2022.2.5,Win32,5.333333333,72.59259259,4.041,2.197,NA,NA,NA,NA,NA,frustrated,"frustrated, not frustrated","more frustrated, less frustrated",NA,NA,NA,NA,NA,NA,NA,NA,NA,NA,NA,NA,NA,NA,NA,0,2,2,1,1,NA,NA,NA,NA,NA,NA,NA,NA,NA,NA,NA,NA,NA,NA,NA,NA,NA,NA,NA,NA,NA,NA,NA,NA,NA,NA,NA,NA
SUPAMT77346,3F6KKYWMNH0B3NNKVFM7GI8CWHDDNK,E220CC54-908B-4948-9AAF-D4E4C9F7A5F9,2023-09-28_19h19.25.989,WP_VExplicitOC_LH,2022.2.5,Win32,5.333333333,NA,NA,NA,NA,NA,NA,NA,NA,NA,NA,NA,NA,NA,NA,NA,NA,NA,NA,NA,NA,NA,NA,NA,NA,NA,NA,NA,NA,NA,NA,NA,7,0,7,0,1,NA,NA,NA,NA,NA,NA,NA,NA,NA,NA,NA,NA,NA,NA,NA,NA,NA,NA,NA,NA,NA,NA,NA
SUPAMT77346,3F6KKYWMNH0B3NNKVFM7GI8CWHDDNK,E220CC54-908B-4948-9AAF-D4E4C9F7A5F9,2023-09-28_19h19.25.989,WP_VExplicitOC_LH,2022.2.5,Win32,5.333333333,2.777777778,6.446,2.129,NA,NA,NA,NA,NA,frustrated,"frustrated, not frustrated","more frustrated, less frustrated",NA,NA,NA,NA,NA,NA,NA,NA,NA,NA,NA,NA,NA,NA,NA,0,0,0,1,1,NA,NA,NA,NA,NA,NA,NA,NA,NA,NA,NA,NA,NA,NA,NA,NA,NA,NA,NA,NA,NA,NA,NA,NA,NA,NA,NA,NA
SUPAMT77346,3F6KKYWMNH0B3NNKVFM7GI8CWHDDNK,E220CC54-908B-4948-9AAF-D4E4C9F7A5F9,2023-09-28_19h19.25.989,WP_VExplicitOC_LH,2022.2.5,Win32,5.333333333,59.07407407,2.5,2.035,NA,NA,NA,NA,NA,bored,"bored, not bored","more bored, less bored",NA,NA,NA,NA,NA,NA,NA,NA,NA,NA,NA,NA,NA,NA,NA,0,1,1,2,1,NA,NA,NA,NA,NA,NA,NA,NA,NA,NA,NA,NA,NA,NA,NA,NA,NA,NA,NA,NA,NA,NA,NA,NA,NA,NA,NA,NA
SUPAMT77346,3F6KKYWMNH0B3NNKVFM7GI8CWHDDNK,E220CC54-908B-4948-9AAF-D4E4C9F7A5F9,2023-09-28_19h19.25.989,WP_VExplicitOC_LH,2022.2.5,Win32,5.333333333,62.59259259,5.078,2.15,NA,NA,NA,NA,NA,happy,"unhappy, happy","less happy, more happy",NA,NA,NA,NA,NA,NA,NA,NA,NA,NA,NA,NA,NA,NA,NA,0,2,2,0,1,NA,NA,NA,NA,NA,NA,NA,NA,NA,NA,NA,NA,NA,NA,NA,NA,NA,NA,NA,NA,NA,NA,NA,NA,NA,NA,NA,NA
SUPAMT77346,3F6KKYWMNH0B3NNKVFM7GI8CWHDDNK,E220CC54-908B-4948-9AAF-D4E4C9F7A5F9,2023-09-28_19h19.25.989,WP_VExplicitOC_LH,2022.2.5,Win32,5.333333333,NA,NA,NA,NA,NA,NA,NA,NA,NA,NA,NA,NA,NA,NA,NA,NA,NA,NA,NA,NA,NA,NA,NA,NA,NA,NA,NA,NA,NA,NA,NA,8,0,8,0,1,NA,NA,NA,NA,NA,NA,NA,NA,NA,NA,NA,NA,NA,NA,NA,NA,NA,NA,NA,NA,NA,NA,NA
SUPAMT77346,3F6KKYWMNH0B3NNKVFM7GI8CWHDDNK,E220CC54-908B-4948-9AAF-D4E4C9F7A5F9,2023-09-28_19h19.25.989,WP_VExplicitOC_LH,2022.2.5,Win32,5.333333333,52.96296296,6.18,2.095,NA,NA,NA,NA,NA,bored,"bored, not bored","more bored, less bored",NA,NA,NA,NA,NA,NA,NA,NA,NA,NA,NA,NA,NA,NA,NA,0,0,0,2,1,NA,NA,NA,NA,NA,NA,NA,NA,NA,NA,NA,NA,NA,NA,NA,NA,NA,NA,NA,NA,NA,NA,NA,NA,NA,NA,NA,NA
SUPAMT77346,3F6KKYWMNH0B3NNKVFM7GI8CWHDDNK,E220CC54-908B-4948-9AAF-D4E4C9F7A5F9,2023-09-28_19h19.25.989,WP_VExplicitOC_LH,2022.2.5,Win32,5.333333333,85.74074074,3.08,2.187,NA,NA,NA,NA,NA,frustrated,"frustrated, not frustrated","more frustrated, less frustrated",NA,NA,NA,NA,NA,NA,NA,NA,NA,NA,NA,NA,NA,NA,NA,0,1,1,1,1,NA,NA,NA,NA,NA,NA,NA,NA,NA,NA,NA,NA,NA,NA,NA,NA,NA,NA,NA,NA,NA,NA,NA,NA,NA,NA,NA,NA
SUPAMT77346,3F6KKYWMNH0B3NNKVFM7GI8CWHDDNK,E220CC54-908B-4948-9AAF-D4E4C9F7A5F9,2023-09-28_19h19.25.989,WP_VExplicitOC_LH,2022.2.5,Win32,5.333333333,87.59259259,6.924,2.175,NA,NA,NA,NA,NA,happy,"unhappy, happy","less happy, more happy",NA,NA,NA,NA,NA,NA,NA,NA,NA,NA,NA,NA,NA,NA,NA,0,2,2,0,1,NA,NA,NA,NA,NA,NA,NA,NA,NA,NA,NA,NA,NA,NA,NA,NA,NA,NA,NA,NA,NA,NA,NA,NA,NA,NA,NA,NA
SUPAMT77346,3F6KKYWMNH0B3NNKVFM7GI8CWHDDNK,E220CC54-908B-4948-9AAF-D4E4C9F7A5F9,2023-09-28_19h19.25.989,WP_VExplicitOC_LH,2022.2.5,Win32,5.333333333,NA,NA,NA,NA,NA,NA,NA,NA,NA,NA,NA,NA,NA,NA,NA,NA,NA,NA,NA,NA,NA,NA,NA,NA,NA,NA,NA,NA,NA,NA,NA,9,0,9,0,1,NA,NA,NA,NA,NA,NA,NA,NA,NA,NA,NA,NA,NA,NA,NA,NA,NA,NA,NA,NA,NA,NA,NA
SUPAMT77346,3F6KKYWMNH0B3NNKVFM7GI8CWHDDNK,E220CC54-908B-4948-9AAF-D4E4C9F7A5F9,2023-09-28_19h19.25.989,WP_VExplicitOC_LH,2022.2.5,Win32,5.333333333,42.96296296,6.992,2.109,NA,NA,NA,NA,NA,happy,"unhappy, happy","less happy, more happy",NA,NA,NA,NA,NA,NA,NA,NA,NA,NA,NA,NA,NA,NA,NA,0,0,0,0,1,NA,NA,NA,NA,NA,NA,NA,NA,NA,NA,NA,NA,NA,NA,NA,NA,NA,NA,NA,NA,NA,NA,NA,NA,NA,NA,NA,NA
SUPAMT77346,3F6KKYWMNH0B3NNKVFM7GI8CWHDDNK,E220CC54-908B-4948-9AAF-D4E4C9F7A5F9,2023-09-28_19h19.25.989,WP_VExplicitOC_LH,2022.2.5,Win32,5.333333333,57.59259259,5.391,2.077,NA,NA,NA,NA,NA,bored,"bored, not bored","more bored, less bored",NA,NA,NA,NA,NA,NA,NA,NA,NA,NA,NA,NA,NA,NA,NA,0,1,1,2,1,NA,NA,NA,NA,NA,NA,NA,NA,NA,NA,NA,NA,NA,NA,NA,NA,NA,NA,NA,NA,NA,NA,NA,NA,NA,NA,NA,NA
SUPAMT77346,3F6KKYWMNH0B3NNKVFM7GI8CWHDDNK,E220CC54-908B-4948-9AAF-D4E4C9F7A5F9,2023-09-28_19h19.25.989,WP_VExplicitOC_LH,2022.2.5,Win32,5.333333333,NA,NA,2.062,NA,NA,NA,NA,NA,frustrated,"frustrated, not frustrated","more frustrated, less frustrated",NA,NA,NA,NA,NA,NA,NA,NA,NA,NA,NA,NA,NA,NA,NA,0,2,2,1,1,NA,NA,NA,NA,NA,NA,NA,NA,NA,NA,NA,NA,NA,NA,NA,NA,NA,NA,NA,NA,NA,NA,NA,NA,NA,NA,NA,NA
SUPAMT77346,3F6KKYWMNH0B3NNKVFM7GI8CWHDDNK,E220CC54-908B-4948-9AAF-D4E4C9F7A5F9,2023-09-28_19h19.25.989,WP_VExplicitOC_LH,2022.2.5,Win32,5.333333333,NA,NA,NA,NA,NA,NA,NA,NA,NA,NA,NA,NA,NA,NA,NA,NA,NA,NA,NA,NA,NA,NA,NA,NA,NA,NA,NA,NA,NA,NA,NA,10,0,10,0,1,NA,NA,NA,NA,NA,NA,NA,NA,NA,NA,NA,NA,NA,NA,NA,NA,NA,NA,NA,NA,NA,NA,NA
SUPAMT77346,3F6KKYWMNH0B3NNKVFM7GI8CWHDDNK,E220CC54-908B-4948-9AAF-D4E4C9F7A5F9,2023-09-28_19h19.25.989,WP_VExplicitOC_LH,2022.2.5,Win32,5.333333333,53.14814815,5.101,2.025,NA,NA,NA,NA,NA,happy,"unhappy, happy","less happy, more happy",NA,NA,NA,NA,NA,NA,NA,NA,NA,NA,NA,NA,NA,NA,NA,0,0,0,0,1,NA,NA,NA,NA,NA,NA,NA,NA,NA,NA,NA,NA,NA,NA,NA,NA,NA,NA,NA,NA,NA,NA,NA,NA,NA,NA,NA,NA
SUPAMT77346,3F6KKYWMNH0B3NNKVFM7GI8CWHDDNK,E220CC54-908B-4948-9AAF-D4E4C9F7A5F9,2023-09-28_19h19.25.989,WP_VExplicitOC_LH,2022.2.5,Win32,5.333333333,98.51851852,6.377,2.118,NA,NA,NA,NA,NA,bored,"bored, not bored","more bored, less bored",NA,NA,NA,NA,NA,NA,NA,NA,NA,NA,NA,NA,NA,NA,NA,0,1,1,2,1,NA,NA,NA,NA,NA,NA,NA,NA,NA,NA,NA,NA,NA,NA,NA,NA,NA,NA,NA,NA,NA,NA,NA,NA,NA,NA,NA,NA
SUPAMT77346,3F6KKYWMNH0B3NNKVFM7GI8CWHDDNK,E220CC54-908B-4948-9AAF-D4E4C9F7A5F9,2023-09-28_19h19.25.989,WP_VExplicitOC_LH,2022.2.5,Win32,5.333333333,50.92592593,5.69,2.112,NA,NA,NA,NA,NA,frustrated,"frustrated, not frustrated","more frustrated, less frustrated",NA,NA,NA,NA,NA,NA,NA,NA,NA,NA,NA,NA,NA,NA,NA,0,2,2,1,1,NA,NA,NA,NA,NA,NA,NA,NA,NA,NA,NA,NA,NA,NA,NA,NA,NA,NA,NA,NA,NA,NA,NA,NA,NA,NA,NA,NA
SUPAMT77346,3F6KKYWMNH0B3NNKVFM7GI8CWHDDNK,E220CC54-908B-4948-9AAF-D4E4C9F7A5F9,2023-09-28_19h19.25.989,WP_VExplicitOC_LH,2022.2.5,Win32,5.333333333,NA,NA,NA,NA,NA,NA,NA,NA,NA,NA,NA,NA,NA,NA,NA,NA,NA,NA,NA,NA,NA,NA,NA,NA,NA,NA,NA,NA,NA,NA,NA,11,0,11,0,1,NA,NA,NA,NA,NA,NA,NA,NA,NA,NA,NA,NA,NA,NA,NA,NA,NA,NA,NA,NA,NA,NA,NA
SUPAMT77346,3F6KKYWMNH0B3NNKVFM7GI8CWHDDNK,E220CC54-908B-4948-9AAF-D4E4C9F7A5F9,2023-09-28_19h19.25.989,WP_VExplicitOC_LH,2022.2.5,Win32,5.333333333,53.33333333,5.806,2.106,NA,NA,NA,NA,NA,frustrated,"frustrated, not frustrated","more frustrated, less frustrated",NA,NA,NA,NA,NA,NA,NA,NA,NA,NA,NA,NA,NA,NA,NA,0,0,0,1,1,NA,NA,NA,NA,NA,NA,NA,NA,NA,NA,NA,NA,NA,NA,NA,NA,NA,NA,NA,NA,NA,NA,NA,NA,NA,NA,NA,NA
SUPAMT77346,3F6KKYWMNH0B3NNKVFM7GI8CWHDDNK,E220CC54-908B-4948-9AAF-D4E4C9F7A5F9,2023-09-28_19h19.25.989,WP_VExplicitOC_LH,2022.2.5,Win32,5.333333333,86.2962963,6.044,2.177,NA,NA,NA,NA,NA,bored,"bored, not bored","more bored, less bored",NA,NA,NA,NA,NA,NA,NA,NA,NA,NA,NA,NA,NA,NA,NA,0,1,1,2,1,NA,NA,NA,NA,NA,NA,NA,NA,NA,NA,NA,NA,NA,NA,NA,NA,NA,NA,NA,NA,NA,NA,NA,NA,NA,NA,NA,NA
SUPAMT77346,3F6KKYWMNH0B3NNKVFM7GI8CWHDDNK,E220CC54-908B-4948-9AAF-D4E4C9F7A5F9,2023-09-28_19h19.25.989,WP_VExplicitOC_LH,2022.2.5,Win32,5.333333333,98.33333333,3.663,2.153,NA,NA,NA,NA,NA,happy,"unhappy, happy","less happy, more happy",NA,NA,NA,NA,NA,NA,NA,NA,NA,NA,NA,NA,NA,NA,NA,0,2,2,0,1,NA,NA,NA,NA,NA,NA,NA,NA,NA,NA,NA,NA,NA,NA,NA,NA,NA,NA,NA,NA,NA,NA,NA,NA,NA,NA,NA,NA
SUPAMT77346,3F6KKYWMNH0B3NNKVFM7GI8CWHDDNK,E220CC54-908B-4948-9AAF-D4E4C9F7A5F9,2023-09-28_19h19.25.989,WP_VExplicitOC_LH,2022.2.5,Win32,5.333333333,NA,NA,NA,NA,NA,NA,NA,NA,NA,NA,NA,NA,NA,NA,NA,NA,NA,NA,NA,NA,NA,NA,NA,NA,NA,NA,NA,NA,NA,NA,NA,12,0,12,0,1,NA,NA,NA,NA,NA,NA,NA,NA,NA,NA,NA,NA,NA,NA,NA,NA,NA,NA,NA,NA,NA,NA,NA
SUPAMT77346,3F6KKYWMNH0B3NNKVFM7GI8CWHDDNK,E220CC54-908B-4948-9AAF-D4E4C9F7A5F9,2023-09-28_19h19.25.989,WP_VExplicitOC_LH,2022.2.5,Win32,5.333333333,64.44444444,6.839,2.124,NA,NA,NA,NA,NA,bored,"bored, not bored","more bored, less bored",NA,NA,NA,NA,NA,NA,NA,NA,NA,NA,NA,NA,NA,NA,NA,0,0,0,2,1,NA,NA,NA,NA,NA,NA,NA,NA,NA,NA,NA,NA,NA,NA,NA,NA,NA,NA,NA,NA,NA,NA,NA,NA,NA,NA,NA,NA
SUPAMT77346,3F6KKYWMNH0B3NNKVFM7GI8CWHDDNK,E220CC54-908B-4948-9AAF-D4E4C9F7A5F9,2023-09-28_19h19.25.989,WP_VExplicitOC_LH,2022.2.5,Win32,5.333333333,54.07407407,6.234,2.124,NA,NA,NA,NA,NA,frustrated,"frustrated, not frustrated","more frustrated, less frustrated",NA,NA,NA,NA,NA,NA,NA,NA,NA,NA,NA,NA,NA,NA,NA,0,1,1,1,1,NA,NA,NA,NA,NA,NA,NA,NA,NA,NA,NA,NA,NA,NA,NA,NA,NA,NA,NA,NA,NA,NA,NA,NA,NA,NA,NA,NA
SUPAMT77346,3F6KKYWMNH0B3NNKVFM7GI8CWHDDNK,E220CC54-908B-4948-9AAF-D4E4C9F7A5F9,2023-09-28_19h19.25.989,WP_VExplicitOC_LH,2022.2.5,Win32,5.333333333,36.11111111,6.142,2.187,NA,NA,NA,NA,NA,happy,"unhappy, happy","less happy, more happy",NA,NA,NA,NA,NA,NA,NA,NA,NA,NA,NA,NA,NA,NA,NA,0,2,2,0,1,NA,NA,NA,NA,NA,NA,NA,NA,NA,NA,NA,NA,NA,NA,NA,NA,NA,NA,NA,NA,NA,NA,NA,NA,NA,NA,NA,NA
SUPAMT77346,3F6KKYWMNH0B3NNKVFM7GI8CWHDDNK,E220CC54-908B-4948-9AAF-D4E4C9F7A5F9,2023-09-28_19h19.25.989,WP_VExplicitOC_LH,2022.2.5,Win32,5.333333333,NA,NA,NA,NA,NA,NA,NA,NA,NA,NA,NA,NA,NA,NA,NA,NA,NA,NA,NA,NA,NA,NA,NA,NA,NA,NA,NA,NA,NA,NA,NA,13,0,13,0,1,NA,NA,NA,NA,NA,NA,NA,NA,NA,NA,NA,NA,NA,NA,NA,NA,NA,NA,NA,NA,NA,NA,NA
SUPAMT77346,3F6KKYWMNH0B3NNKVFM7GI8CWHDDNK,E220CC54-908B-4948-9AAF-D4E4C9F7A5F9,2023-09-28_19h19.25.989,WP_VExplicitOC_LH,2022.2.5,Win32,5.333333333,2.592592593,7.182,2.059,NA,NA,NA,NA,NA,happy,"unhappy, happy","less happy, more happy",NA,NA,NA,NA,NA,NA,NA,NA,NA,NA,NA,NA,NA,NA,NA,0,0,0,0,1,NA,NA,NA,NA,NA,NA,NA,NA,NA,NA,NA,NA,NA,NA,NA,NA,NA,NA,NA,NA,NA,NA,NA,NA,NA,NA,NA,NA
SUPAMT77346,3F6KKYWMNH0B3NNKVFM7GI8CWHDDNK,E220CC54-908B-4948-9AAF-D4E4C9F7A5F9,2023-09-28_19h19.25.989,WP_VExplicitOC_LH,2022.2.5,Win32,5.333333333,45.37037037,4.381,2.122,NA,NA,NA,NA,NA,bored,"bored, not bored","more bored, less bored",NA,NA,NA,NA,NA,NA,NA,NA,NA,NA,NA,NA,NA,NA,NA,0,1,1,2,1,NA,NA,NA,NA,NA,NA,NA,NA,NA,NA,NA,NA,NA,NA,NA,NA,NA,NA,NA,NA,NA,NA,NA,NA,NA,NA,NA,NA
SUPAMT77346,3F6KKYWMNH0B3NNKVFM7GI8CWHDDNK,E220CC54-908B-4948-9AAF-D4E4C9F7A5F9,2023-09-28_19h19.25.989,WP_VExplicitOC_LH,2022.2.5,Win32,5.333333333,41.11111111,5.731,2.005,NA,NA,NA,NA,NA,frustrated,"frustrated, not frustrated","more frustrated, less frustrated",NA,NA,NA,NA,NA,NA,NA,NA,NA,NA,NA,NA,NA,NA,NA,0,2,2,1,1,NA,NA,NA,NA,NA,NA,NA,NA,NA,NA,NA,NA,NA,NA,NA,NA,NA,NA,NA,NA,NA,NA,NA,NA,NA,NA,NA,NA
SUPAMT77346,3F6KKYWMNH0B3NNKVFM7GI8CWHDDNK,E220CC54-908B-4948-9AAF-D4E4C9F7A5F9,2023-09-28_19h19.25.989,WP_VExplicitOC_LH,2022.2.5,Win32,5.333333333,NA,NA,NA,NA,NA,NA,NA,NA,NA,NA,NA,NA,NA,NA,NA,NA,NA,NA,NA,NA,NA,NA,NA,NA,NA,NA,NA,NA,NA,NA,NA,14,0,14,0,1,NA,NA,NA,NA,NA,NA,NA,NA,NA,NA,NA,NA,NA,NA,NA,NA,NA,NA,NA,NA,NA,NA,NA
SUPAMT77346,3F6KKYWMNH0B3NNKVFM7GI8CWHDDNK,E220CC54-908B-4948-9AAF-D4E4C9F7A5F9,2023-09-28_19h19.25.989,WP_VExplicitOC_LH,2022.2.5,Win32,5.333333333,NA,NA,NA,NA,NA,NA,NA,NA,NA,NA,NA,NA,NA,NA,NA,NA,NA,NA,NA,NA,NA,NA,NA,NA,NA,NA,NA,NA,NA,NA,NA,NA,NA,NA,NA,NA,NA,NA,NA,NA,NA,NA,NA,NA,NA,NA,NA,NA,NA,NA,NA,NA,NA,NA,NA,NA,NA,NA,NA
SUPAMT77346,3F6KKYWMNH0B3NNKVFM7GI8CWHDDNK,E220CC54-908B-4948-9AAF-D4E4C9F7A5F9,2023-09-28_19h19.25.989,WP_VExplicitOC_LH,2022.2.5,Win32,5.333333333,NA,NA,NA,NA,NA,NA,NA,NA,NA,NA,NA,NA,NA,NA,NA,NA,NA,NA,NA,NA,NA,NA,NA,NA,NA,NA,NA,NA,NA,NA,NA,NA,NA,NA,NA,NA,NA,NA,NA,NA,NA,NA,NA,NA,NA,NA,NA,NA,NA,NA,NA,NA,NA,NA,NA,NA,NA,NA,NA
SUPAMT77346,3F6KKYWMNH0B3NNKVFM7GI8CWHDDNK,E220CC54-908B-4948-9AAF-D4E4C9F7A5F9,2023-09-28_19h19.25.989,WP_VExplicitOC_LH,2022.2.5,Win32,5.333333333,NA,NA,NA,NA,NA,NA,NA,NA,NA,NA,NA,NA,NA,NA,NA,NA,NA,NA,rest (looking at a fixed cross),001.png,NA,NA,NA,NA,NA,NA,NA,NA,NA,NA,NA,NA,NA,NA,NA,NA,40.74074074,7.148,0,0,0,0,1,NA,NA,NA,NA,NA,NA,NA,NA,NA,NA,NA,NA,NA,NA,NA,NA
SUPAMT77346,3F6KKYWMNH0B3NNKVFM7GI8CWHDDNK,E220CC54-908B-4948-9AAF-D4E4C9F7A5F9,2023-09-28_19h19.25.989,WP_VExplicitOC_LH,2022.2.5,Win32,5.333333333,NA,NA,NA,NA,NA,NA,NA,NA,NA,NA,NA,NA,NA,NA,NA,NA,NA,NA,stand up,002.png,NA,NA,NA,NA,NA,NA,NA,NA,NA,NA,NA,NA,NA,NA,NA,NA,52.03703704,0.69,0,1,1,1,1,NA,NA,NA,NA,NA,NA,NA,NA,NA,NA,NA,NA,NA,NA,NA,NA
SUPAMT77346,3F6KKYWMNH0B3NNKVFM7GI8CWHDDNK,E220CC54-908B-4948-9AAF-D4E4C9F7A5F9,2023-09-28_19h19.25.989,WP_VExplicitOC_LH,2022.2.5,Win32,5.333333333,NA,NA,NA,NA,NA,NA,NA,NA,NA,NA,NA,NA,NA,NA,NA,NA,NA,NA,stretch,003.png,NA,NA,NA,NA,NA,NA,NA,NA,NA,NA,NA,NA,NA,NA,NA,NA,99.81481481,1.3,0,2,2,2,1,NA,NA,NA,NA,NA,NA,NA,NA,NA,NA,NA,NA,NA,NA,NA,NA
SUPAMT77346,3F6KKYWMNH0B3NNKVFM7GI8CWHDDNK,E220CC54-908B-4948-9AAF-D4E4C9F7A5F9,2023-09-28_19h19.25.989,WP_VExplicitOC_LH,2022.2.5,Win32,5.333333333,NA,NA,NA,NA,NA,NA,NA,NA,NA,NA,NA,NA,NA,NA,NA,NA,NA,NA,make a drink,004.png,NA,NA,NA,NA,NA,NA,NA,NA,NA,NA,NA,NA,NA,NA,NA,NA,99.81481481,0.431,0,3,3,3,1,NA,NA,NA,NA,NA,NA,NA,NA,NA,NA,NA,NA,NA,NA,NA,NA
SUPAMT77346,3F6KKYWMNH0B3NNKVFM7GI8CWHDDNK,E220CC54-908B-4948-9AAF-D4E4C9F7A5F9,2023-09-28_19h19.25.989,WP_VExplicitOC_LH,2022.2.5,Win32,5.333333333,NA,NA,NA,NA,NA,NA,NA,NA,NA,NA,NA,NA,NA,NA,NA,NA,NA,NA,scroll social media,005.png,NA,NA,NA,NA,NA,NA,NA,NA,NA,NA,NA,NA,NA,NA,NA,NA,99.81481481,0.432,0,4,4,4,1,NA,NA,NA,NA,NA,NA,NA,NA,NA,NA,NA,NA,NA,NA,NA,NA
SUPAMT77346,3F6KKYWMNH0B3NNKVFM7GI8CWHDDNK,E220CC54-908B-4948-9AAF-D4E4C9F7A5F9,2023-09-28_19h19.25.989,WP_VExplicitOC_LH,2022.2.5,Win32,5.333333333,NA,NA,NA,NA,NA,NA,NA,NA,NA,NA,NA,NA,NA,NA,NA,NA,NA,NA,listen to music,006.png,NA,NA,NA,NA,NA,NA,NA,NA,NA,NA,NA,NA,NA,NA,NA,NA,63.88888889,3.634,0,5,5,5,1,NA,NA,NA,NA,NA,NA,NA,NA,NA,NA,NA,NA,NA,NA,NA,NA
SUPAMT77346,3F6KKYWMNH0B3NNKVFM7GI8CWHDDNK,E220CC54-908B-4948-9AAF-D4E4C9F7A5F9,2023-09-28_19h19.25.989,WP_VExplicitOC_LH,2022.2.5,Win32,5.333333333,NA,NA,NA,NA,NA,NA,NA,NA,NA,NA,NA,NA,NA,NA,NA,NA,NA,NA,daydream,007.png,NA,NA,NA,NA,NA,NA,NA,NA,NA,NA,NA,NA,NA,NA,NA,NA,76.85185185,0.478,0,6,6,6,1,NA,NA,NA,NA,NA,NA,NA,NA,NA,NA,NA,NA,NA,NA,NA,NA
SUPAMT77346,3F6KKYWMNH0B3NNKVFM7GI8CWHDDNK,E220CC54-908B-4948-9AAF-D4E4C9F7A5F9,2023-09-28_19h19.25.989,WP_VExplicitOC_LH,2022.2.5,Win32,5.333333333,NA,NA,NA,NA,NA,NA,NA,NA,NA,NA,NA,NA,NA,NA,NA,NA,NA,NA,watch a short animation,008.png,NA,NA,NA,NA,NA,NA,NA,NA,NA,NA,NA,NA,NA,NA,NA,NA,76.85185185,1.124,0,7,7,7,1,NA,NA,NA,NA,NA,NA,NA,NA,NA,NA,NA,NA,NA,NA,NA,NA
SUPAMT77346,3F6KKYWMNH0B3NNKVFM7GI8CWHDDNK,E220CC54-908B-4948-9AAF-D4E4C9F7A5F9,2023-09-28_19h19.25.989,WP_VExplicitOC_LH,2022.2.5,Win32,5.333333333,NA,NA,NA,NA,NA,NA,NA,NA,NA,NA,NA,NA,NA,NA,NA,NA,NA,NA,read a novel,009.png,NA,NA,NA,NA,NA,NA,NA,NA,NA,NA,NA,NA,NA,NA,NA,NA,76.85185185,0.226,0,8,8,8,1,NA,NA,NA,NA,NA,NA,NA,NA,NA,NA,NA,NA,NA,NA,NA,NA
SUPAMT77346,3F6KKYWMNH0B3NNKVFM7GI8CWHDDNK,E220CC54-908B-4948-9AAF-D4E4C9F7A5F9,2023-09-28_19h19.25.989,WP_VExplicitOC_LH,2022.2.5,Win32,5.333333333,NA,NA,NA,NA,NA,NA,NA,NA,NA,NA,NA,NA,NA,NA,NA,NA,NA,NA,read the news,010.png,NA,NA,NA,NA,NA,NA,NA,NA,NA,NA,NA,NA,NA,NA,NA,NA,76.11111111,1.738,0,9,9,9,1,NA,NA,NA,NA,NA,NA,NA,NA,NA,NA,NA,NA,NA,NA,NA,NA
SUPAMT77346,3F6KKYWMNH0B3NNKVFM7GI8CWHDDNK,E220CC54-908B-4948-9AAF-D4E4C9F7A5F9,2023-09-28_19h19.25.989,WP_VExplicitOC_LH,2022.2.5,Win32,5.333333333,NA,NA,NA,NA,NA,NA,NA,NA,NA,NA,NA,NA,NA,NA,NA,NA,NA,NA,NA,NA,NA,NA,NA,NA,NA,NA,NA,NA,NA,NA,NA,NA,NA,NA,NA,NA,NA,NA,NA,NA,NA,NA,NA,stretch,NA,NA,NA,NA,NA,NA,NA,NA,NA,NA,NA,NA,NA,NA,NA
SUPAMT77346,3F6KKYWMNH0B3NNKVFM7GI8CWHDDNK,E220CC54-908B-4948-9AAF-D4E4C9F7A5F9,2023-09-28_19h19.25.989,WP_VExplicitOC_LH,2022.2.5,Win32,5.333333333,NA,NA,2.097,NA,NA,NA,NA,NA,bored,"bored, not bored","more bored, less bored",NA,NA,NA,NA,NA,NA,NA,NA,NA,NA,NA,NA,NA,NA,NA,NA,NA,NA,NA,NA,NA,NA,NA,NA,NA,NA,NA,NA,NA,NA,NA,NA,NA,0,0,0,2,1,NA,NA,NA,NA,NA,NA,NA,NA,NA,NA
SUPAMT77346,3F6KKYWMNH0B3NNKVFM7GI8CWHDDNK,E220CC54-908B-4948-9AAF-D4E4C9F7A5F9,2023-09-28_19h19.25.989,WP_VExplicitOC_LH,2022.2.5,Win32,5.333333333,44.81481481,5.341,2.132,NA,NA,NA,NA,NA,frustrated,"frustrated, not frustrated","more frustrated, less frustrated",NA,NA,NA,NA,NA,NA,NA,NA,NA,NA,NA,NA,NA,NA,NA,NA,NA,NA,NA,NA,NA,NA,NA,NA,NA,NA,NA,NA,NA,NA,NA,NA,NA,0,1,1,1,1,NA,NA,NA,NA,NA,NA,NA,NA,NA,NA
SUPAMT77346,3F6KKYWMNH0B3NNKVFM7GI8CWHDDNK,E220CC54-908B-4948-9AAF-D4E4C9F7A5F9,2023-09-28_19h19.25.989,WP_VExplicitOC_LH,2022.2.5,Win32,5.333333333,79.62962963,5.01,2.088,NA,NA,NA,NA,NA,happy,"unhappy, happy","less happy, more happy",NA,NA,NA,NA,NA,NA,NA,NA,NA,NA,NA,NA,NA,NA,NA,NA,NA,NA,NA,NA,NA,NA,NA,NA,NA,NA,NA,NA,NA,NA,NA,NA,NA,0,2,2,0,1,NA,NA,NA,NA,NA,NA,NA,NA,NA,NA
SUPAMT77346,3F6KKYWMNH0B3NNKVFM7GI8CWHDDNK,E220CC54-908B-4948-9AAF-D4E4C9F7A5F9,2023-09-28_19h19.25.989,WP_VExplicitOC_LH,2022.2.5,Win32,5.333333333,NA,NA,NA,NA,NA,NA,NA,NA,NA,NA,NA,NA,NA,NA,NA,NA,NA,NA,NA,NA,NA,NA,NA,NA,NA,NA,NA,NA,NA,NA,NA,NA,NA,NA,NA,NA,NA,NA,NA,NA,NA,NA,NA,NA,NA,NA,NA,NA,NA,NA,NA,NA,NA,NA,NA,NA,NA,NA,NA
SUPAMT77346,3F6KKYWMNH0B3NNKVFM7GI8CWHDDNK,E220CC54-908B-4948-9AAF-D4E4C9F7A5F9,2023-09-28_19h19.25.989,WP_VExplicitOC_LH,2022.2.5,Win32,5.333333333,NA,NA,NA,NA,NA,NA,NA,NA,NA,NA,NA,NA,NA,NA,NA,NA,NA,NA,NA,NA,NA,NA,NA,NA,NA,NA,NA,NA,NA,NA,NA,NA,NA,NA,NA,NA,NA,NA,NA,NA,NA,NA,NA,NA,NA,NA,NA,NA,NA,NA,NA,NA,NA,NA,NA,NA,NA,NA,NA
SUPAMT77346,3F6KKYWMNH0B3NNKVFM7GI8CWHDDNK,E220CC54-908B-4948-9AAF-D4E4C9F7A5F9,2023-09-28_19h19.25.989,WP_VExplicitOC_LH,2022.2.5,Win32,5.333333333,NA,NA,2.106,NA,NA,NA,NA,NA,bored,"bored, not bored","more bored, less bored",NA,NA,NA,NA,NA,NA,NA,NA,NA,NA,NA,NA,NA,NA,NA,NA,NA,NA,NA,NA,NA,NA,NA,NA,NA,NA,NA,NA,NA,NA,NA,NA,NA,NA,NA,NA,NA,NA,0,0,0,2,1,NA,NA,NA,NA,NA
SUPAMT77346,3F6KKYWMNH0B3NNKVFM7GI8CWHDDNK,E220CC54-908B-4948-9AAF-D4E4C9F7A5F9,2023-09-28_19h19.25.989,WP_VExplicitOC_LH,2022.2.5,Win32,5.333333333,40.18518519,6.33,2.133,NA,NA,NA,NA,NA,frustrated,"frustrated, not frustrated","more frustrated, less frustrated",NA,NA,NA,NA,NA,NA,NA,NA,NA,NA,NA,NA,NA,NA,NA,NA,NA,NA,NA,NA,NA,NA,NA,NA,NA,NA,NA,NA,NA,NA,NA,NA,NA,NA,NA,NA,NA,NA,0,1,1,1,1,NA,NA,NA,NA,NA
SUPAMT77346,3F6KKYWMNH0B3NNKVFM7GI8CWHDDNK,E220CC54-908B-4948-9AAF-D4E4C9F7A5F9,2023-09-28_19h19.25.989,WP_VExplicitOC_LH,2022.2.5,Win32,5.333333333,47.40740741,4.542,2.159,NA,NA,NA,NA,NA,happy,"unhappy, happy","less happy, more happy",NA,NA,NA,NA,NA,NA,NA,NA,NA,NA,NA,NA,NA,NA,NA,NA,NA,NA,NA,NA,NA,NA,NA,NA,NA,NA,NA,NA,NA,NA,NA,NA,NA,NA,NA,NA,NA,NA,0,2,2,0,1,NA,NA,NA,NA,NA
SUPAMT77346,3F6KKYWMNH0B3NNKVFM7GI8CWHDDNK,E220CC54-908B-4948-9AAF-D4E4C9F7A5F9,2023-09-28_19h19.25.989,WP_VExplicitOC_LH,2022.2.5,Win32,5.333333333,NA,NA,NA,NA,NA,NA,NA,NA,NA,NA,NA,NA,NA,NA,NA,NA,NA,NA,NA,NA,NA,NA,NA,NA,NA,NA,NA,NA,NA,NA,NA,NA,NA,NA,NA,NA,NA,NA,NA,NA,NA,NA,NA,NA,NA,NA,NA,NA,NA,NA,NA,NA,NA,NA,0,0,0,0,1
SUPAMT77346,3F6KKYWMNH0B3NNKVFM7GI8CWHDDNK,E220CC54-908B-4948-9AAF-D4E4C9F7A5F9,2023-09-28_19h19.25.989,WP_VExplicitOC_LH,2022.2.5,Win32,5.333333333,NA,NA,2.118,NA,NA,NA,NA,NA,frustrated,"frustrated, not frustrated","more frustrated, less frustrated",NA,NA,NA,NA,NA,NA,NA,NA,NA,NA,NA,NA,NA,NA,NA,NA,NA,NA,NA,NA,NA,NA,NA,NA,NA,NA,NA,NA,NA,NA,NA,NA,NA,NA,NA,NA,NA,NA,0,0,0,1,1,NA,NA,NA,NA,NA
SUPAMT77346,3F6KKYWMNH0B3NNKVFM7GI8CWHDDNK,E220CC54-908B-4948-9AAF-D4E4C9F7A5F9,2023-09-28_19h19.25.989,WP_VExplicitOC_LH,2022.2.5,Win32,5.333333333,28.7037037,2.798,2.113,NA,NA,NA,NA,NA,happy,"unhappy, happy","less happy, more happy",NA,NA,NA,NA,NA,NA,NA,NA,NA,NA,NA,NA,NA,NA,NA,NA,NA,NA,NA,NA,NA,NA,NA,NA,NA,NA,NA,NA,NA,NA,NA,NA,NA,NA,NA,NA,NA,NA,0,1,1,0,1,NA,NA,NA,NA,NA
SUPAMT77346,3F6KKYWMNH0B3NNKVFM7GI8CWHDDNK,E220CC54-908B-4948-9AAF-D4E4C9F7A5F9,2023-09-28_19h19.25.989,WP_VExplicitOC_LH,2022.2.5,Win32,5.333333333,35.37037037,4.697,2.106,NA,NA,NA,NA,NA,bored,"bored, not bored","more bored, less bored",NA,NA,NA,NA,NA,NA,NA,NA,NA,NA,NA,NA,NA,NA,NA,NA,NA,NA,NA,NA,NA,NA,NA,NA,NA,NA,NA,NA,NA,NA,NA,NA,NA,NA,NA,NA,NA,NA,0,2,2,2,1,NA,NA,NA,NA,NA
SUPAMT77346,3F6KKYWMNH0B3NNKVFM7GI8CWHDDNK,E220CC54-908B-4948-9AAF-D4E4C9F7A5F9,2023-09-28_19h19.25.989,WP_VExplicitOC_LH,2022.2.5,Win32,5.333333333,NA,NA,NA,NA,NA,NA,NA,NA,NA,NA,NA,NA,NA,NA,NA,NA,NA,NA,NA,NA,NA,NA,NA,NA,NA,NA,NA,NA,NA,NA,NA,NA,NA,NA,NA,NA,NA,NA,NA,NA,NA,NA,NA,NA,NA,NA,NA,NA,NA,NA,NA,NA,NA,NA,1,0,1,0,1
SUPAMT77346,3F6KKYWMNH0B3NNKVFM7GI8CWHDDNK,E220CC54-908B-4948-9AAF-D4E4C9F7A5F9,2023-09-28_19h19.25.989,WP_VExplicitOC_LH,2022.2.5,Win32,5.333333333,44.81481481,7.109,2.01,NA,NA,NA,NA,NA,frustrated,"frustrated, not frustrated","more frustrated, less frustrated",NA,NA,NA,NA,NA,NA,NA,NA,NA,NA,NA,NA,NA,NA,NA,NA,NA,NA,NA,NA,NA,NA,NA,NA,NA,NA,NA,NA,NA,NA,NA,NA,NA,NA,NA,NA,NA,NA,0,0,0,1,1,NA,NA,NA,NA,NA
SUPAMT77346,3F6KKYWMNH0B3NNKVFM7GI8CWHDDNK,E220CC54-908B-4948-9AAF-D4E4C9F7A5F9,2023-09-28_19h19.25.989,WP_VExplicitOC_LH,2022.2.5,Win32,5.333333333,42.59259259,3.107,2.109,NA,NA,NA,NA,NA,happy,"unhappy, happy","less happy, more happy",NA,NA,NA,NA,NA,NA,NA,NA,NA,NA,NA,NA,NA,NA,NA,NA,NA,NA,NA,NA,NA,NA,NA,NA,NA,NA,NA,NA,NA,NA,NA,NA,NA,NA,NA,NA,NA,NA,0,1,1,0,1,NA,NA,NA,NA,NA
SUPAMT77346,3F6KKYWMNH0B3NNKVFM7GI8CWHDDNK,E220CC54-908B-4948-9AAF-D4E4C9F7A5F9,2023-09-28_19h19.25.989,WP_VExplicitOC_LH,2022.2.5,Win32,5.333333333,33.7037037,2.446,2.046,NA,NA,NA,NA,NA,bored,"bored, not bored","more bored, less bored",NA,NA,NA,NA,NA,NA,NA,NA,NA,NA,NA,NA,NA,NA,NA,NA,NA,NA,NA,NA,NA,NA,NA,NA,NA,NA,NA,NA,NA,NA,NA,NA,NA,NA,NA,NA,NA,NA,0,2,2,2,1,NA,NA,NA,NA,NA
SUPAMT77346,3F6KKYWMNH0B3NNKVFM7GI8CWHDDNK,E220CC54-908B-4948-9AAF-D4E4C9F7A5F9,2023-09-28_19h19.25.989,WP_VExplicitOC_LH,2022.2.5,Win32,5.333333333,NA,NA,NA,NA,NA,NA,NA,NA,NA,NA,NA,NA,NA,NA,NA,NA,NA,NA,NA,NA,NA,NA,NA,NA,NA,NA,NA,NA,NA,NA,NA,NA,NA,NA,NA,NA,NA,NA,NA,NA,NA,NA,NA,NA,NA,NA,NA,NA,NA,NA,NA,NA,NA,NA,2,0,2,0,1
SUPAMT77346,3F6KKYWMNH0B3NNKVFM7GI8CWHDDNK,E220CC54-908B-4948-9AAF-D4E4C9F7A5F9,2023-09-28_19h19.25.989,WP_VExplicitOC_LH,2022.2.5,Win32,5.333333333,40.18518519,4.602,2.004,NA,NA,NA,NA,NA,frustrated,"frustrated, not frustrated","more frustrated, less frustrated",NA,NA,NA,NA,NA,NA,NA,NA,NA,NA,NA,NA,NA,NA,NA,NA,NA,NA,NA,NA,NA,NA,NA,NA,NA,NA,NA,NA,NA,NA,NA,NA,NA,NA,NA,NA,NA,NA,0,0,0,1,1,NA,NA,NA,NA,NA
SUPAMT77346,3F6KKYWMNH0B3NNKVFM7GI8CWHDDNK,E220CC54-908B-4948-9AAF-D4E4C9F7A5F9,2023-09-28_19h19.25.989,WP_VExplicitOC_LH,2022.2.5,Win32,5.333333333,70.55555556,5.163,2.07,NA,NA,NA,NA,NA,bored,"bored, not bored","more bored, less bored",NA,NA,NA,NA,NA,NA,NA,NA,NA,NA,NA,NA,NA,NA,NA,NA,NA,NA,NA,NA,NA,NA,NA,NA,NA,NA,NA,NA,NA,NA,NA,NA,NA,NA,NA,NA,NA,NA,0,1,1,2,1,NA,NA,NA,NA,NA
SUPAMT77346,3F6KKYWMNH0B3NNKVFM7GI8CWHDDNK,E220CC54-908B-4948-9AAF-D4E4C9F7A5F9,2023-09-28_19h19.25.989,WP_VExplicitOC_LH,2022.2.5,Win32,5.333333333,98.33333333,3.081,2.078,NA,NA,NA,NA,NA,happy,"unhappy, happy","less happy, more happy",NA,NA,NA,NA,NA,NA,NA,NA,NA,NA,NA,NA,NA,NA,NA,NA,NA,NA,NA,NA,NA,NA,NA,NA,NA,NA,NA,NA,NA,NA,NA,NA,NA,NA,NA,NA,NA,NA,0,2,2,0,1,NA,NA,NA,NA,NA
SUPAMT77346,3F6KKYWMNH0B3NNKVFM7GI8CWHDDNK,E220CC54-908B-4948-9AAF-D4E4C9F7A5F9,2023-09-28_19h19.25.989,WP_VExplicitOC_LH,2022.2.5,Win32,5.333333333,NA,NA,NA,NA,NA,NA,NA,NA,NA,NA,NA,NA,NA,NA,NA,NA,NA,NA,NA,NA,NA,NA,NA,NA,NA,NA,NA,NA,NA,NA,NA,NA,NA,NA,NA,NA,NA,NA,NA,NA,NA,NA,NA,NA,NA,NA,NA,NA,NA,NA,NA,NA,NA,NA,3,0,3,0,1
SUPAMT77346,3F6KKYWMNH0B3NNKVFM7GI8CWHDDNK,E220CC54-908B-4948-9AAF-D4E4C9F7A5F9,2023-09-28_19h19.25.989,WP_VExplicitOC_LH,2022.2.5,Win32,5.333333333,53.14814815,6.179,2.108,NA,NA,NA,NA,NA,frustrated,"frustrated, not frustrated","more frustrated, less frustrated",NA,NA,NA,NA,NA,NA,NA,NA,NA,NA,NA,NA,NA,NA,NA,NA,NA,NA,NA,NA,NA,NA,NA,NA,NA,NA,NA,NA,NA,NA,NA,NA,NA,NA,NA,NA,NA,NA,0,0,0,1,1,NA,NA,NA,NA,NA
SUPAMT77346,3F6KKYWMNH0B3NNKVFM7GI8CWHDDNK,E220CC54-908B-4948-9AAF-D4E4C9F7A5F9,2023-09-28_19h19.25.989,WP_VExplicitOC_LH,2022.2.5,Win32,5.333333333,67.77777778,5.918,2.157,NA,NA,NA,NA,NA,bored,"bored, not bored","more bored, less bored",NA,NA,NA,NA,NA,NA,NA,NA,NA,NA,NA,NA,NA,NA,NA,NA,NA,NA,NA,NA,NA,NA,NA,NA,NA,NA,NA,NA,NA,NA,NA,NA,NA,NA,NA,NA,NA,NA,0,1,1,2,1,NA,NA,NA,NA,NA
SUPAMT77346,3F6KKYWMNH0B3NNKVFM7GI8CWHDDNK,E220CC54-908B-4948-9AAF-D4E4C9F7A5F9,2023-09-28_19h19.25.989,WP_VExplicitOC_LH,2022.2.5,Win32,5.333333333,39.62962963,2.246,2.026,NA,NA,NA,NA,NA,happy,"unhappy, happy","less happy, more happy",NA,NA,NA,NA,NA,NA,NA,NA,NA,NA,NA,NA,NA,NA,NA,NA,NA,NA,NA,NA,NA,NA,NA,NA,NA,NA,NA,NA,NA,NA,NA,NA,NA,NA,NA,NA,NA,NA,0,2,2,0,1,NA,NA,NA,NA,NA
SUPAMT77346,3F6KKYWMNH0B3NNKVFM7GI8CWHDDNK,E220CC54-908B-4948-9AAF-D4E4C9F7A5F9,2023-09-28_19h19.25.989,WP_VExplicitOC_LH,2022.2.5,Win32,5.333333333,NA,NA,NA,NA,NA,NA,NA,NA,NA,NA,NA,NA,NA,NA,NA,NA,NA,NA,NA,NA,NA,NA,NA,NA,NA,NA,NA,NA,NA,NA,NA,NA,NA,NA,NA,NA,NA,NA,NA,NA,NA,NA,NA,NA,NA,NA,NA,NA,NA,NA,NA,NA,NA,NA,4,0,4,0,1
SUPAMT77346,3F6KKYWMNH0B3NNKVFM7GI8CWHDDNK,E220CC54-908B-4948-9AAF-D4E4C9F7A5F9,2023-09-28_19h19.25.989,WP_VExplicitOC_LH,2022.2.5,Win32,5.333333333,55.37037037,6.093,2.036,NA,NA,NA,NA,NA,happy,"unhappy, happy","less happy, more happy",NA,NA,NA,NA,NA,NA,NA,NA,NA,NA,NA,NA,NA,NA,NA,NA,NA,NA,NA,NA,NA,NA,NA,NA,NA,NA,NA,NA,NA,NA,NA,NA,NA,NA,NA,NA,NA,NA,0,0,0,0,1,NA,NA,NA,NA,NA
SUPAMT77346,3F6KKYWMNH0B3NNKVFM7GI8CWHDDNK,E220CC54-908B-4948-9AAF-D4E4C9F7A5F9,2023-09-28_19h19.25.989,WP_VExplicitOC_LH,2022.2.5,Win32,5.333333333,30.18518519,2.9,2.093,NA,NA,NA,NA,NA,bored,"bored, not bored","more bored, less bored",NA,NA,NA,NA,NA,NA,NA,NA,NA,NA,NA,NA,NA,NA,NA,NA,NA,NA,NA,NA,NA,NA,NA,NA,NA,NA,NA,NA,NA,NA,NA,NA,NA,NA,NA,NA,NA,NA,0,1,1,2,1,NA,NA,NA,NA,NA
SUPAMT77346,3F6KKYWMNH0B3NNKVFM7GI8CWHDDNK,E220CC54-908B-4948-9AAF-D4E4C9F7A5F9,2023-09-28_19h19.25.989,WP_VExplicitOC_LH,2022.2.5,Win32,5.333333333,96.66666667,4.221,2.138,NA,NA,NA,NA,NA,frustrated,"frustrated, not frustrated","more frustrated, less frustrated",NA,NA,NA,NA,NA,NA,NA,NA,NA,NA,NA,NA,NA,NA,NA,NA,NA,NA,NA,NA,NA,NA,NA,NA,NA,NA,NA,NA,NA,NA,NA,NA,NA,NA,NA,NA,NA,NA,0,2,2,1,1,NA,NA,NA,NA,NA
SUPAMT77346,3F6KKYWMNH0B3NNKVFM7GI8CWHDDNK,E220CC54-908B-4948-9AAF-D4E4C9F7A5F9,2023-09-28_19h19.25.989,WP_VExplicitOC_LH,2022.2.5,Win32,5.333333333,NA,NA,NA,NA,NA,NA,NA,NA,NA,NA,NA,NA,NA,NA,NA,NA,NA,NA,NA,NA,NA,NA,NA,NA,NA,NA,NA,NA,NA,NA,NA,NA,NA,NA,NA,NA,NA,NA,NA,NA,NA,NA,NA,NA,NA,NA,NA,NA,NA,NA,NA,NA,NA,NA,5,0,5,0,1
SUPAMT77346,3F6KKYWMNH0B3NNKVFM7GI8CWHDDNK,E220CC54-908B-4948-9AAF-D4E4C9F7A5F9,2023-09-28_19h19.25.989,WP_VExplicitOC_LH,2022.2.5,Win32,5.333333333,44.81481481,6.108,2.026,NA,NA,NA,NA,NA,bored,"bored, not bored","more bored, less bored",NA,NA,NA,NA,NA,NA,NA,NA,NA,NA,NA,NA,NA,NA,NA,NA,NA,NA,NA,NA,NA,NA,NA,NA,NA,NA,NA,NA,NA,NA,NA,NA,NA,NA,NA,NA,NA,NA,0,0,0,2,1,NA,NA,NA,NA,NA
SUPAMT77346,3F6KKYWMNH0B3NNKVFM7GI8CWHDDNK,E220CC54-908B-4948-9AAF-D4E4C9F7A5F9,2023-09-28_19h19.25.989,WP_VExplicitOC_LH,2022.2.5,Win32,5.333333333,82.22222222,2.857,2.201,NA,NA,NA,NA,NA,happy,"unhappy, happy","less happy, more happy",NA,NA,NA,NA,NA,NA,NA,NA,NA,NA,NA,NA,NA,NA,NA,NA,NA,NA,NA,NA,NA,NA,NA,NA,NA,NA,NA,NA,NA,NA,NA,NA,NA,NA,NA,NA,NA,NA,0,1,1,0,1,NA,NA,NA,NA,NA
SUPAMT77346,3F6KKYWMNH0B3NNKVFM7GI8CWHDDNK,E220CC54-908B-4948-9AAF-D4E4C9F7A5F9,2023-09-28_19h19.25.989,WP_VExplicitOC_LH,2022.2.5,Win32,5.333333333,NA,NA,2.044,NA,NA,NA,NA,NA,frustrated,"frustrated, not frustrated","more frustrated, less frustrated",NA,NA,NA,NA,NA,NA,NA,NA,NA,NA,NA,NA,NA,NA,NA,NA,NA,NA,NA,NA,NA,NA,NA,NA,NA,NA,NA,NA,NA,NA,NA,NA,NA,NA,NA,NA,NA,NA,0,2,2,1,1,NA,NA,NA,NA,NA
SUPAMT77346,3F6KKYWMNH0B3NNKVFM7GI8CWHDDNK,E220CC54-908B-4948-9AAF-D4E4C9F7A5F9,2023-09-28_19h19.25.989,WP_VExplicitOC_LH,2022.2.5,Win32,5.333333333,NA,NA,NA,NA,NA,NA,NA,NA,NA,NA,NA,NA,NA,NA,NA,NA,NA,NA,NA,NA,NA,NA,NA,NA,NA,NA,NA,NA,NA,NA,NA,NA,NA,NA,NA,NA,NA,NA,NA,NA,NA,NA,NA,NA,NA,NA,NA,NA,NA,NA,NA,NA,NA,NA,6,0,6,0,1
SUPAMT77346,3F6KKYWMNH0B3NNKVFM7GI8CWHDDNK,E220CC54-908B-4948-9AAF-D4E4C9F7A5F9,2023-09-28_19h19.25.989,WP_VExplicitOC_LH,2022.2.5,Win32,5.333333333,33.14814815,4.139,2.03,NA,NA,NA,NA,NA,bored,"bored, not bored","more bored, less bored",NA,NA,NA,NA,NA,NA,NA,NA,NA,NA,NA,NA,NA,NA,NA,NA,NA,NA,NA,NA,NA,NA,NA,NA,NA,NA,NA,NA,NA,NA,NA,NA,NA,NA,NA,NA,NA,NA,0,0,0,2,1,NA,NA,NA,NA,NA
SUPAMT77346,3F6KKYWMNH0B3NNKVFM7GI8CWHDDNK,E220CC54-908B-4948-9AAF-D4E4C9F7A5F9,2023-09-28_19h19.25.989,WP_VExplicitOC_LH,2022.2.5,Win32,5.333333333,NA,NA,2.145,NA,NA,NA,NA,NA,frustrated,"frustrated, not frustrated","more frustrated, less frustrated",NA,NA,NA,NA,NA,NA,NA,NA,NA,NA,NA,NA,NA,NA,NA,NA,NA,NA,NA,NA,NA,NA,NA,NA,NA,NA,NA,NA,NA,NA,NA,NA,NA,NA,NA,NA,NA,NA,0,1,1,1,1,NA,NA,NA,NA,NA
SUPAMT77346,3F6KKYWMNH0B3NNKVFM7GI8CWHDDNK,E220CC54-908B-4948-9AAF-D4E4C9F7A5F9,2023-09-28_19h19.25.989,WP_VExplicitOC_LH,2022.2.5,Win32,5.333333333,99.81481481,4.911,2.054,NA,NA,NA,NA,NA,happy,"unhappy, happy","less happy, more happy",NA,NA,NA,NA,NA,NA,NA,NA,NA,NA,NA,NA,NA,NA,NA,NA,NA,NA,NA,NA,NA,NA,NA,NA,NA,NA,NA,NA,NA,NA,NA,NA,NA,NA,NA,NA,NA,NA,0,2,2,0,1,NA,NA,NA,NA,NA
SUPAMT77346,3F6KKYWMNH0B3NNKVFM7GI8CWHDDNK,E220CC54-908B-4948-9AAF-D4E4C9F7A5F9,2023-09-28_19h19.25.989,WP_VExplicitOC_LH,2022.2.5,Win32,5.333333333,NA,NA,NA,NA,NA,NA,NA,NA,NA,NA,NA,NA,NA,NA,NA,NA,NA,NA,NA,NA,NA,NA,NA,NA,NA,NA,NA,NA,NA,NA,NA,NA,NA,NA,NA,NA,NA,NA,NA,NA,NA,NA,NA,NA,NA,NA,NA,NA,NA,NA,NA,NA,NA,NA,7,0,7,0,1
SUPAMT77346,3F6KKYWMNH0B3NNKVFM7GI8CWHDDNK,E220CC54-908B-4948-9AAF-D4E4C9F7A5F9,2023-09-28_19h19.25.989,WP_VExplicitOC_LH,2022.2.5,Win32,5.333333333,48.51851852,7.617,2.216,NA,NA,NA,NA,NA,frustrated,"frustrated, not frustrated","more frustrated, less frustrated",NA,NA,NA,NA,NA,NA,NA,NA,NA,NA,NA,NA,NA,NA,NA,NA,NA,NA,NA,NA,NA,NA,NA,NA,NA,NA,NA,NA,NA,NA,NA,NA,NA,NA,NA,NA,NA,NA,0,0,0,1,1,NA,NA,NA,NA,NA
SUPAMT77346,3F6KKYWMNH0B3NNKVFM7GI8CWHDDNK,E220CC54-908B-4948-9AAF-D4E4C9F7A5F9,2023-09-28_19h19.25.989,WP_VExplicitOC_LH,2022.2.5,Win32,5.333333333,72.22222222,2.358,2.153,NA,NA,NA,NA,NA,happy,"unhappy, happy","less happy, more happy",NA,NA,NA,NA,NA,NA,NA,NA,NA,NA,NA,NA,NA,NA,NA,NA,NA,NA,NA,NA,NA,NA,NA,NA,NA,NA,NA,NA,NA,NA,NA,NA,NA,NA,NA,NA,NA,NA,0,1,1,0,1,NA,NA,NA,NA,NA
SUPAMT77346,3F6KKYWMNH0B3NNKVFM7GI8CWHDDNK,E220CC54-908B-4948-9AAF-D4E4C9F7A5F9,2023-09-28_19h19.25.989,WP_VExplicitOC_LH,2022.2.5,Win32,5.333333333,99.44444444,6.438,2.121,NA,NA,NA,NA,NA,bored,"bored, not bored","more bored, less bored",NA,NA,NA,NA,NA,NA,NA,NA,NA,NA,NA,NA,NA,NA,NA,NA,NA,NA,NA,NA,NA,NA,NA,NA,NA,NA,NA,NA,NA,NA,NA,NA,NA,NA,NA,NA,NA,NA,0,2,2,2,1,NA,NA,NA,NA,NA
SUPAMT77346,3F6KKYWMNH0B3NNKVFM7GI8CWHDDNK,E220CC54-908B-4948-9AAF-D4E4C9F7A5F9,2023-09-28_19h19.25.989,WP_VExplicitOC_LH,2022.2.5,Win32,5.333333333,NA,NA,NA,NA,NA,NA,NA,NA,NA,NA,NA,NA,NA,NA,NA,NA,NA,NA,NA,NA,NA,NA,NA,NA,NA,NA,NA,NA,NA,NA,NA,NA,NA,NA,NA,NA,NA,NA,NA,NA,NA,NA,NA,NA,NA,NA,NA,NA,NA,NA,NA,NA,NA,NA,8,0,8,0,1
SUPAMT77346,3F6KKYWMNH0B3NNKVFM7GI8CWHDDNK,E220CC54-908B-4948-9AAF-D4E4C9F7A5F9,2023-09-28_19h19.25.989,WP_VExplicitOC_LH,2022.2.5,Win32,5.333333333,NA,NA,2.13,NA,NA,NA,NA,NA,bored,"bored, not bored","more bored, less bored",NA,NA,NA,NA,NA,NA,NA,NA,NA,NA,NA,NA,NA,NA,NA,NA,NA,NA,NA,NA,NA,NA,NA,NA,NA,NA,NA,NA,NA,NA,NA,NA,NA,NA,NA,NA,NA,NA,0,0,0,2,1,NA,NA,NA,NA,NA
SUPAMT77346,3F6KKYWMNH0B3NNKVFM7GI8CWHDDNK,E220CC54-908B-4948-9AAF-D4E4C9F7A5F9,2023-09-28_19h19.25.989,WP_VExplicitOC_LH,2022.2.5,Win32,5.333333333,NA,NA,2,NA,NA,NA,NA,NA,happy,"unhappy, happy","less happy, more happy",NA,NA,NA,NA,NA,NA,NA,NA,NA,NA,NA,NA,NA,NA,NA,NA,NA,NA,NA,NA,NA,NA,NA,NA,NA,NA,NA,NA,NA,NA,NA,NA,NA,NA,NA,NA,NA,NA,0,1,1,0,1,NA,NA,NA,NA,NA
SUPAMT77346,3F6KKYWMNH0B3NNKVFM7GI8CWHDDNK,E220CC54-908B-4948-9AAF-D4E4C9F7A5F9,2023-09-28_19h19.25.989,WP_VExplicitOC_LH,2022.2.5,Win32,5.333333333,NA,NA,2.01,NA,NA,NA,NA,NA,frustrated,"frustrated, not frustrated","more frustrated, less frustrated",NA,NA,NA,NA,NA,NA,NA,NA,NA,NA,NA,NA,NA,NA,NA,NA,NA,NA,NA,NA,NA,NA,NA,NA,NA,NA,NA,NA,NA,NA,NA,NA,NA,NA,NA,NA,NA,NA,0,2,2,1,1,NA,NA,NA,NA,NA
SUPAMT77346,3F6KKYWMNH0B3NNKVFM7GI8CWHDDNK,E220CC54-908B-4948-9AAF-D4E4C9F7A5F9,2023-09-28_19h19.25.989,WP_VExplicitOC_LH,2022.2.5,Win32,5.333333333,NA,NA,NA,NA,NA,NA,NA,NA,NA,NA,NA,NA,NA,NA,NA,NA,NA,NA,NA,NA,NA,NA,NA,NA,NA,NA,NA,NA,NA,NA,NA,NA,NA,NA,NA,NA,NA,NA,NA,NA,NA,NA,NA,NA,NA,NA,NA,NA,NA,NA,NA,NA,NA,NA,9,0,9,0,1
SUPAMT77346,3F6KKYWMNH0B3NNKVFM7GI8CWHDDNK,E220CC54-908B-4948-9AAF-D4E4C9F7A5F9,2023-09-28_19h19.25.989,WP_VExplicitOC_LH,2022.2.5,Win32,5.333333333,92.03703704,6.935,2.123,NA,NA,NA,NA,NA,frustrated,"frustrated, not frustrated","more frustrated, less frustrated",NA,NA,NA,NA,NA,NA,NA,NA,NA,NA,NA,NA,NA,NA,NA,NA,NA,NA,NA,NA,NA,NA,NA,NA,NA,NA,NA,NA,NA,NA,NA,NA,NA,NA,NA,NA,NA,NA,0,0,0,1,1,NA,NA,NA,NA,NA
SUPAMT77346,3F6KKYWMNH0B3NNKVFM7GI8CWHDDNK,E220CC54-908B-4948-9AAF-D4E4C9F7A5F9,2023-09-28_19h19.25.989,WP_VExplicitOC_LH,2022.2.5,Win32,5.333333333,41.48148148,2.547,2.098,NA,NA,NA,NA,NA,bored,"bored, not bored","more bored, less bored",NA,NA,NA,NA,NA,NA,NA,NA,NA,NA,NA,NA,NA,NA,NA,NA,NA,NA,NA,NA,NA,NA,NA,NA,NA,NA,NA,NA,NA,NA,NA,NA,NA,NA,NA,NA,NA,NA,0,1,1,2,1,NA,NA,NA,NA,NA
SUPAMT77346,3F6KKYWMNH0B3NNKVFM7GI8CWHDDNK,E220CC54-908B-4948-9AAF-D4E4C9F7A5F9,2023-09-28_19h19.25.989,WP_VExplicitOC_LH,2022.2.5,Win32,5.333333333,99.81481481,6.239,2.094,NA,NA,NA,NA,NA,happy,"unhappy, happy","less happy, more happy",NA,NA,NA,NA,NA,NA,NA,NA,NA,NA,NA,NA,NA,NA,NA,NA,NA,NA,NA,NA,NA,NA,NA,NA,NA,NA,NA,NA,NA,NA,NA,NA,NA,NA,NA,NA,NA,NA,0,2,2,0,1,NA,NA,NA,NA,NA
SUPAMT77346,3F6KKYWMNH0B3NNKVFM7GI8CWHDDNK,E220CC54-908B-4948-9AAF-D4E4C9F7A5F9,2023-09-28_19h19.25.989,WP_VExplicitOC_LH,2022.2.5,Win32,5.333333333,NA,NA,NA,NA,NA,NA,NA,NA,NA,NA,NA,NA,NA,NA,NA,NA,NA,NA,NA,NA,NA,NA,NA,NA,NA,NA,NA,NA,NA,NA,NA,NA,NA,NA,NA,NA,NA,NA,NA,NA,NA,NA,NA,NA,NA,NA,NA,NA,NA,NA,NA,NA,NA,NA,10,0,10,0,1
SUPAMT77346,3F6KKYWMNH0B3NNKVFM7GI8CWHDDNK,E220CC54-908B-4948-9AAF-D4E4C9F7A5F9,2023-09-28_19h19.25.989,WP_VExplicitOC_LH,2022.2.5,Win32,5.333333333,NA,NA,2.083,NA,NA,NA,NA,NA,happy,"unhappy, happy","less happy, more happy",NA,NA,NA,NA,NA,NA,NA,NA,NA,NA,NA,NA,NA,NA,NA,NA,NA,NA,NA,NA,NA,NA,NA,NA,NA,NA,NA,NA,NA,NA,NA,NA,NA,NA,NA,NA,NA,NA,0,0,0,0,1,NA,NA,NA,NA,NA
SUPAMT77346,3F6KKYWMNH0B3NNKVFM7GI8CWHDDNK,E220CC54-908B-4948-9AAF-D4E4C9F7A5F9,2023-09-28_19h19.25.989,WP_VExplicitOC_LH,2022.2.5,Win32,5.333333333,NA,NA,2.192,NA,NA,NA,NA,NA,bored,"bored, not bored","more bored, less bored",NA,NA,NA,NA,NA,NA,NA,NA,NA,NA,NA,NA,NA,NA,NA,NA,NA,NA,NA,NA,NA,NA,NA,NA,NA,NA,NA,NA,NA,NA,NA,NA,NA,NA,NA,NA,NA,NA,0,1,1,2,1,NA,NA,NA,NA,NA
SUPAMT77346,3F6KKYWMNH0B3NNKVFM7GI8CWHDDNK,E220CC54-908B-4948-9AAF-D4E4C9F7A5F9,2023-09-28_19h19.25.989,WP_VExplicitOC_LH,2022.2.5,Win32,5.333333333,99.25925926,3.096,2.071,NA,NA,NA,NA,NA,frustrated,"frustrated, not frustrated","more frustrated, less frustrated",NA,NA,NA,NA,NA,NA,NA,NA,NA,NA,NA,NA,NA,NA,NA,NA,NA,NA,NA,NA,NA,NA,NA,NA,NA,NA,NA,NA,NA,NA,NA,NA,NA,NA,NA,NA,NA,NA,0,2,2,1,1,NA,NA,NA,NA,NA
SUPAMT77346,3F6KKYWMNH0B3NNKVFM7GI8CWHDDNK,E220CC54-908B-4948-9AAF-D4E4C9F7A5F9,2023-09-28_19h19.25.989,WP_VExplicitOC_LH,2022.2.5,Win32,5.333333333,NA,NA,NA,NA,NA,NA,NA,NA,NA,NA,NA,NA,NA,NA,NA,NA,NA,NA,NA,NA,NA,NA,NA,NA,NA,NA,NA,NA,NA,NA,NA,NA,NA,NA,NA,NA,NA,NA,NA,NA,NA,NA,NA,NA,NA,NA,NA,NA,NA,NA,NA,NA,NA,NA,11,0,11,0,1
SUPAMT77346,3F6KKYWMNH0B3NNKVFM7GI8CWHDDNK,E220CC54-908B-4948-9AAF-D4E4C9F7A5F9,2023-09-28_19h19.25.989,WP_VExplicitOC_LH,2022.2.5,Win32,5.333333333,NA,NA,2.085,NA,NA,NA,NA,NA,frustrated,"frustrated, not frustrated","more frustrated, less frustrated",NA,NA,NA,NA,NA,NA,NA,NA,NA,NA,NA,NA,NA,NA,NA,NA,NA,NA,NA,NA,NA,NA,NA,NA,NA,NA,NA,NA,NA,NA,NA,NA,NA,NA,NA,NA,NA,NA,0,0,0,1,1,NA,NA,NA,NA,NA
SUPAMT77346,3F6KKYWMNH0B3NNKVFM7GI8CWHDDNK,E220CC54-908B-4948-9AAF-D4E4C9F7A5F9,2023-09-28_19h19.25.989,WP_VExplicitOC_LH,2022.2.5,Win32,5.333333333,57.77777778,2.282,2.074,NA,NA,NA,NA,NA,bored,"bored, not bored","more bored, less bored",NA,NA,NA,NA,NA,NA,NA,NA,NA,NA,NA,NA,NA,NA,NA,NA,NA,NA,NA,NA,NA,NA,NA,NA,NA,NA,NA,NA,NA,NA,NA,NA,NA,NA,NA,NA,NA,NA,0,1,1,2,1,NA,NA,NA,NA,NA
SUPAMT77346,3F6KKYWMNH0B3NNKVFM7GI8CWHDDNK,E220CC54-908B-4948-9AAF-D4E4C9F7A5F9,2023-09-28_19h19.25.989,WP_VExplicitOC_LH,2022.2.5,Win32,5.333333333,40.55555556,5.343,2.084,NA,NA,NA,NA,NA,happy,"unhappy, happy","less happy, more happy",NA,NA,NA,NA,NA,NA,NA,NA,NA,NA,NA,NA,NA,NA,NA,NA,NA,NA,NA,NA,NA,NA,NA,NA,NA,NA,NA,NA,NA,NA,NA,NA,NA,NA,NA,NA,NA,NA,0,2,2,0,1,NA,NA,NA,NA,NA
SUPAMT77346,3F6KKYWMNH0B3NNKVFM7GI8CWHDDNK,E220CC54-908B-4948-9AAF-D4E4C9F7A5F9,2023-09-28_19h19.25.989,WP_VExplicitOC_LH,2022.2.5,Win32,5.333333333,NA,NA,NA,NA,NA,NA,NA,NA,NA,NA,NA,NA,NA,NA,NA,NA,NA,NA,NA,NA,NA,NA,NA,NA,NA,NA,NA,NA,NA,NA,NA,NA,NA,NA,NA,NA,NA,NA,NA,NA,NA,NA,NA,NA,NA,NA,NA,NA,NA,NA,NA,NA,NA,NA,12,0,12,0,1
SUPAMT77346,3F6KKYWMNH0B3NNKVFM7GI8CWHDDNK,E220CC54-908B-4948-9AAF-D4E4C9F7A5F9,2023-09-28_19h19.25.989,WP_VExplicitOC_LH,2022.2.5,Win32,5.333333333,55.37037037,5.822,2.134,NA,NA,NA,NA,NA,frustrated,"frustrated, not frustrated","more frustrated, less frustrated",NA,NA,NA,NA,NA,NA,NA,NA,NA,NA,NA,NA,NA,NA,NA,NA,NA,NA,NA,NA,NA,NA,NA,NA,NA,NA,NA,NA,NA,NA,NA,NA,NA,NA,NA,NA,NA,NA,0,0,0,1,1,NA,NA,NA,NA,NA
SUPAMT77346,3F6KKYWMNH0B3NNKVFM7GI8CWHDDNK,E220CC54-908B-4948-9AAF-D4E4C9F7A5F9,2023-09-28_19h19.25.989,WP_VExplicitOC_LH,2022.2.5,Win32,5.333333333,93.7037037,6.377,2.185,NA,NA,NA,NA,NA,bored,"bored, not bored","more bored, less bored",NA,NA,NA,NA,NA,NA,NA,NA,NA,NA,NA,NA,NA,NA,NA,NA,NA,NA,NA,NA,NA,NA,NA,NA,NA,NA,NA,NA,NA,NA,NA,NA,NA,NA,NA,NA,NA,NA,0,1,1,2,1,NA,NA,NA,NA,NA
SUPAMT77346,3F6KKYWMNH0B3NNKVFM7GI8CWHDDNK,E220CC54-908B-4948-9AAF-D4E4C9F7A5F9,2023-09-28_19h19.25.989,WP_VExplicitOC_LH,2022.2.5,Win32,5.333333333,46.66666667,6.624,2.072,NA,NA,NA,NA,NA,happy,"unhappy, happy","less happy, more happy",NA,NA,NA,NA,NA,NA,NA,NA,NA,NA,NA,NA,NA,NA,NA,NA,NA,NA,NA,NA,NA,NA,NA,NA,NA,NA,NA,NA,NA,NA,NA,NA,NA,NA,NA,NA,NA,NA,0,2,2,0,1,NA,NA,NA,NA,NA
SUPAMT77346,3F6KKYWMNH0B3NNKVFM7GI8CWHDDNK,E220CC54-908B-4948-9AAF-D4E4C9F7A5F9,2023-09-28_19h19.25.989,WP_VExplicitOC_LH,2022.2.5,Win32,5.333333333,NA,NA,NA,NA,NA,NA,NA,NA,NA,NA,NA,NA,NA,NA,NA,NA,NA,NA,NA,NA,NA,NA,NA,NA,NA,NA,NA,NA,NA,NA,NA,NA,NA,NA,NA,NA,NA,NA,NA,NA,NA,NA,NA,NA,NA,NA,NA,NA,NA,NA,NA,NA,NA,NA,13,0,13,0,1
SUPAMT77346,3F6KKYWMNH0B3NNKVFM7GI8CWHDDNK,E220CC54-908B-4948-9AAF-D4E4C9F7A5F9,2023-09-28_19h19.25.989,WP_VExplicitOC_LH,2022.2.5,Win32,5.333333333,52.77777778,4.99,2.031,NA,NA,NA,NA,NA,happy,"unhappy, happy","less happy, more happy",NA,NA,NA,NA,NA,NA,NA,NA,NA,NA,NA,NA,NA,NA,NA,NA,NA,NA,NA,NA,NA,NA,NA,NA,NA,NA,NA,NA,NA,NA,NA,NA,NA,NA,NA,NA,NA,NA,0,0,0,0,1,NA,NA,NA,NA,NA
SUPAMT77346,3F6KKYWMNH0B3NNKVFM7GI8CWHDDNK,E220CC54-908B-4948-9AAF-D4E4C9F7A5F9,2023-09-28_19h19.25.989,WP_VExplicitOC_LH,2022.2.5,Win32,5.333333333,40.18518519,4.25,2.136,NA,NA,NA,NA,NA,bored,"bored, not bored","more bored, less bored",NA,NA,NA,NA,NA,NA,NA,NA,NA,NA,NA,NA,NA,NA,NA,NA,NA,NA,NA,NA,NA,NA,NA,NA,NA,NA,NA,NA,NA,NA,NA,NA,NA,NA,NA,NA,NA,NA,0,1,1,2,1,NA,NA,NA,NA,NA
SUPAMT77346,3F6KKYWMNH0B3NNKVFM7GI8CWHDDNK,E220CC54-908B-4948-9AAF-D4E4C9F7A5F9,2023-09-28_19h19.25.989,WP_VExplicitOC_LH,2022.2.5,Win32,5.333333333,39.44444444,6.33,2.137,NA,NA,NA,NA,NA,frustrated,"frustrated, not frustrated","more frustrated, less frustrated",NA,NA,NA,NA,NA,NA,NA,NA,NA,NA,NA,NA,NA,NA,NA,NA,NA,NA,NA,NA,NA,NA,NA,NA,NA,NA,NA,NA,NA,NA,NA,NA,NA,NA,NA,NA,NA,NA,0,2,2,1,1,NA,NA,NA,NA,NA
SUPAMT77346,3F6KKYWMNH0B3NNKVFM7GI8CWHDDNK,E220CC54-908B-4948-9AAF-D4E4C9F7A5F9,2023-09-28_19h19.25.989,WP_VExplicitOC_LH,2022.2.5,Win32,5.333333333,NA,NA,NA,NA,NA,NA,NA,NA,NA,NA,NA,NA,NA,NA,NA,NA,NA,NA,NA,NA,NA,NA,NA,NA,NA,NA,NA,NA,NA,NA,NA,NA,NA,NA,NA,NA,NA,NA,NA,NA,NA,NA,NA,NA,NA,NA,NA,NA,NA,NA,NA,NA,NA,NA,14,0,14,0,1
SUPAMT77346,3F6KKYWMNH0B3NNKVFM7GI8CWHDDNK,E220CC54-908B-4948-9AAF-D4E4C9F7A5F9,2023-09-28_19h19.25.989,WP_VExplicitOC_LH,2022.2.5,Win32,5.333333333,NA,NA,NA,NA,NA,NA,NA,NA,NA,NA,NA,NA,NA,NA,NA,NA,NA,NA,NA,NA,NA,NA,NA,NA,NA,NA,NA,NA,NA,NA,NA,NA,NA,NA,NA,NA,NA,NA,NA,NA,NA,NA,NA,NA,NA,NA,NA,NA,NA,NA,NA,NA,NA,NA,NA,NA,NA,NA,NA
