participant,session,completion,date,expName,psychopyVersion,OS,frameRate,rating_all.response,rating_all.rt,rating_all.tStart,rndRat1.thisRepN,rndRat1.thisTrialN,rndRat1.thisN,rndRat1.thisIndex,rndRat1.ran,Emo,Labs,Labs2,rating_alt.response,rating_alt.rt,AltC.thisRepN,AltC.thisTrialN,AltC.thisN,AltC.thisIndex,AltC.ran,alt_choices,pic_choices,BottomAlt_Choice,rndRat2.thisRepN,rndRat2.thisTrialN,rndRat2.thisN,rndRat2.thisIndex,rndRat2.ran,rndRat3.thisRepN,rndRat3.thisTrialN,rndRat3.thisN,rndRat3.thisIndex,rndRat3.ran,trials_FC_L.thisRepN,trials_FC_L.thisTrialN,trials_FC_L.thisN,trials_FC_L.thisIndex,trials_FC_L.ran,rating_alt_2.response,rating_alt_2.rt,AltC2.thisRepN,AltC2.thisTrialN,AltC2.thisN,AltC2.thisIndex,AltC2.ran,TopAlt_Choice,rndRat4.thisRepN,rndRat4.thisTrialN,rndRat4.thisN,rndRat4.thisIndex,rndRat4.ran,rndRat5.thisRepN,rndRat5.thisTrialN,rndRat5.thisN,rndRat5.thisIndex,rndRat5.ran,trials_FC_H.thisRepN,trials_FC_H.thisTrialN,trials_FC_H.thisN,trials_FC_H.thisIndex,trials_FC_H.ran
SUPAMT97320,3ZPBJO59KV0JTR19SHRUBYBG9ONHDZ,9B2C4561-9A33-447C-8BB8-207D5FB21CB8,2023-09-26_08h04.43.651,WP_VExplicitOC_LH,2022.2.5,Win32,10.7562736,NA,NA,NA,NA,NA,NA,NA,NA,NA,NA,NA,NA,NA,NA,NA,NA,NA,NA,NA,NA,NA,NA,NA,NA,NA,NA,NA,NA,NA,NA,NA,NA,NA,NA,NA,NA,NA,NA,NA,NA,NA,NA,NA,NA,NA,NA,NA,NA,NA,NA,NA,NA,NA,NA,NA,NA,NA,NA,NA
SUPAMT97320,3ZPBJO59KV0JTR19SHRUBYBG9ONHDZ,9B2C4561-9A33-447C-8BB8-207D5FB21CB8,2023-09-26_08h04.43.651,WP_VExplicitOC_LH,2022.2.5,Win32,10.7562736,NA,NA,NA,NA,NA,NA,NA,NA,NA,NA,NA,NA,NA,NA,NA,NA,NA,NA,NA,NA,NA,NA,NA,NA,NA,NA,NA,NA,NA,NA,NA,NA,NA,NA,NA,NA,NA,NA,NA,NA,NA,NA,NA,NA,NA,NA,NA,NA,NA,NA,NA,NA,NA,NA,NA,NA,NA,NA,NA
SUPAMT97320,3ZPBJO59KV0JTR19SHRUBYBG9ONHDZ,9B2C4561-9A33-447C-8BB8-207D5FB21CB8,2023-09-26_08h04.43.651,WP_VExplicitOC_LH,2022.2.5,Win32,10.7562736,NA,NA,NA,NA,NA,NA,NA,NA,NA,NA,NA,NA,NA,NA,NA,NA,NA,NA,NA,NA,NA,NA,NA,NA,NA,NA,NA,NA,NA,NA,NA,NA,NA,NA,NA,NA,NA,NA,NA,NA,NA,NA,NA,NA,NA,NA,NA,NA,NA,NA,NA,NA,NA,NA,NA,NA,NA,NA,NA
SUPAMT97320,3ZPBJO59KV0JTR19SHRUBYBG9ONHDZ,9B2C4561-9A33-447C-8BB8-207D5FB21CB8,2023-09-26_08h04.43.651,WP_VExplicitOC_LH,2022.2.5,Win32,10.7562736,-23.55555556,5.0858,2.0383,0,0,0,1,1,frustrated,"frustrated, not frustrated","more frustrated, less frustrated",NA,NA,NA,NA,NA,NA,NA,NA,NA,NA,NA,NA,NA,NA,NA,NA,NA,NA,NA,NA,NA,NA,NA,NA,NA,NA,NA,NA,NA,NA,NA,NA,NA,NA,NA,NA,NA,NA,NA,NA,NA,NA,NA,NA,NA,NA,NA,NA
SUPAMT97320,3ZPBJO59KV0JTR19SHRUBYBG9ONHDZ,9B2C4561-9A33-447C-8BB8-207D5FB21CB8,2023-09-26_08h04.43.651,WP_VExplicitOC_LH,2022.2.5,Win32,10.7562736,-30,2.3846,2.072,0,1,1,2,1,bored,"bored, not bored","more bored, less bored",NA,NA,NA,NA,NA,NA,NA,NA,NA,NA,NA,NA,NA,NA,NA,NA,NA,NA,NA,NA,NA,NA,NA,NA,NA,NA,NA,NA,NA,NA,NA,NA,NA,NA,NA,NA,NA,NA,NA,NA,NA,NA,NA,NA,NA,NA,NA,NA
SUPAMT97320,3ZPBJO59KV0JTR19SHRUBYBG9ONHDZ,9B2C4561-9A33-447C-8BB8-207D5FB21CB8,2023-09-26_08h04.43.651,WP_VExplicitOC_LH,2022.2.5,Win32,10.7562736,-26,3.7519,2.074,0,2,2,0,1,happy,"unhappy, happy","less happy, more happy",NA,NA,NA,NA,NA,NA,NA,NA,NA,NA,NA,NA,NA,NA,NA,NA,NA,NA,NA,NA,NA,NA,NA,NA,NA,NA,NA,NA,NA,NA,NA,NA,NA,NA,NA,NA,NA,NA,NA,NA,NA,NA,NA,NA,NA,NA,NA,NA
SUPAMT97320,3ZPBJO59KV0JTR19SHRUBYBG9ONHDZ,9B2C4561-9A33-447C-8BB8-207D5FB21CB8,2023-09-26_08h04.43.651,WP_VExplicitOC_LH,2022.2.5,Win32,10.7562736,NA,NA,NA,NA,NA,NA,NA,NA,NA,NA,NA,NA,NA,NA,NA,NA,NA,NA,NA,NA,NA,NA,NA,NA,NA,NA,NA,NA,NA,NA,NA,NA,NA,NA,NA,NA,NA,NA,NA,NA,NA,NA,NA,NA,NA,NA,NA,NA,NA,NA,NA,NA,NA,NA,NA,NA,NA,NA,NA
SUPAMT97320,3ZPBJO59KV0JTR19SHRUBYBG9ONHDZ,9B2C4561-9A33-447C-8BB8-207D5FB21CB8,2023-09-26_08h04.43.651,WP_VExplicitOC_LH,2022.2.5,Win32,10.7562736,NA,NA,NA,NA,NA,NA,NA,NA,NA,NA,NA,NA,NA,NA,NA,NA,NA,NA,NA,NA,NA,NA,NA,NA,NA,NA,NA,NA,NA,NA,NA,NA,NA,NA,NA,NA,NA,NA,NA,NA,NA,NA,NA,NA,NA,NA,NA,NA,NA,NA,NA,NA,NA,NA,NA,NA,NA,NA,NA
SUPAMT97320,3ZPBJO59KV0JTR19SHRUBYBG9ONHDZ,9B2C4561-9A33-447C-8BB8-207D5FB21CB8,2023-09-26_08h04.43.651,WP_VExplicitOC_LH,2022.2.5,Win32,10.7562736,NA,NA,NA,NA,NA,NA,NA,NA,NA,NA,NA,NA,NA,NA,NA,NA,NA,NA,NA,NA,NA,NA,NA,NA,NA,NA,NA,NA,NA,NA,NA,NA,NA,NA,NA,NA,NA,NA,NA,NA,NA,NA,NA,NA,NA,NA,NA,NA,NA,NA,NA,NA,NA,NA,NA,NA,NA,NA,NA
SUPAMT97320,3ZPBJO59KV0JTR19SHRUBYBG9ONHDZ,9B2C4561-9A33-447C-8BB8-207D5FB21CB8,2023-09-26_08h04.43.651,WP_VExplicitOC_LH,2022.2.5,Win32,10.7562736,NA,NA,NA,NA,NA,NA,NA,NA,NA,NA,NA,NA,NA,NA,NA,NA,NA,NA,NA,NA,NA,NA,NA,NA,NA,NA,NA,NA,NA,NA,NA,NA,NA,NA,NA,NA,NA,NA,NA,NA,NA,NA,NA,NA,NA,NA,NA,NA,NA,NA,NA,NA,NA,NA,NA,NA,NA,NA,NA
SUPAMT97320,3ZPBJO59KV0JTR19SHRUBYBG9ONHDZ,9B2C4561-9A33-447C-8BB8-207D5FB21CB8,2023-09-26_08h04.43.651,WP_VExplicitOC_LH,2022.2.5,Win32,10.7562736,NA,NA,NA,NA,NA,NA,NA,NA,NA,NA,NA,30.66666667,4.3098,0,0,0,0,1,rest (looking at a fixed cross),001.png,NA,NA,NA,NA,NA,NA,NA,NA,NA,NA,NA,NA,NA,NA,NA,NA,NA,NA,NA,NA,NA,NA,NA,NA,NA,NA,NA,NA,NA,NA,NA,NA,NA,NA,NA,NA,NA,NA,NA
SUPAMT97320,3ZPBJO59KV0JTR19SHRUBYBG9ONHDZ,9B2C4561-9A33-447C-8BB8-207D5FB21CB8,2023-09-26_08h04.43.651,WP_VExplicitOC_LH,2022.2.5,Win32,10.7562736,NA,NA,NA,NA,NA,NA,NA,NA,NA,NA,NA,32.22222222,0.6259,0,1,1,1,1,stand up,002.png,NA,NA,NA,NA,NA,NA,NA,NA,NA,NA,NA,NA,NA,NA,NA,NA,NA,NA,NA,NA,NA,NA,NA,NA,NA,NA,NA,NA,NA,NA,NA,NA,NA,NA,NA,NA,NA,NA,NA
SUPAMT97320,3ZPBJO59KV0JTR19SHRUBYBG9ONHDZ,9B2C4561-9A33-447C-8BB8-207D5FB21CB8,2023-09-26_08h04.43.651,WP_VExplicitOC_LH,2022.2.5,Win32,10.7562736,NA,NA,NA,NA,NA,NA,NA,NA,NA,NA,NA,32.22222222,1.0885,0,2,2,2,1,stretch,003.png,NA,NA,NA,NA,NA,NA,NA,NA,NA,NA,NA,NA,NA,NA,NA,NA,NA,NA,NA,NA,NA,NA,NA,NA,NA,NA,NA,NA,NA,NA,NA,NA,NA,NA,NA,NA,NA,NA,NA
SUPAMT97320,3ZPBJO59KV0JTR19SHRUBYBG9ONHDZ,9B2C4561-9A33-447C-8BB8-207D5FB21CB8,2023-09-26_08h04.43.651,WP_VExplicitOC_LH,2022.2.5,Win32,10.7562736,NA,NA,NA,NA,NA,NA,NA,NA,NA,NA,NA,32.22222222,2.9178,0,3,3,3,1,make a drink,004.png,NA,NA,NA,NA,NA,NA,NA,NA,NA,NA,NA,NA,NA,NA,NA,NA,NA,NA,NA,NA,NA,NA,NA,NA,NA,NA,NA,NA,NA,NA,NA,NA,NA,NA,NA,NA,NA,NA,NA
SUPAMT97320,3ZPBJO59KV0JTR19SHRUBYBG9ONHDZ,9B2C4561-9A33-447C-8BB8-207D5FB21CB8,2023-09-26_08h04.43.651,WP_VExplicitOC_LH,2022.2.5,Win32,10.7562736,NA,NA,NA,NA,NA,NA,NA,NA,NA,NA,NA,32.22222222,0.779,0,4,4,4,1,scroll social media,005.png,NA,NA,NA,NA,NA,NA,NA,NA,NA,NA,NA,NA,NA,NA,NA,NA,NA,NA,NA,NA,NA,NA,NA,NA,NA,NA,NA,NA,NA,NA,NA,NA,NA,NA,NA,NA,NA,NA,NA
SUPAMT97320,3ZPBJO59KV0JTR19SHRUBYBG9ONHDZ,9B2C4561-9A33-447C-8BB8-207D5FB21CB8,2023-09-26_08h04.43.651,WP_VExplicitOC_LH,2022.2.5,Win32,10.7562736,NA,NA,NA,NA,NA,NA,NA,NA,NA,NA,NA,32.22222222,2.0412,0,5,5,5,1,listen to music,006.png,NA,NA,NA,NA,NA,NA,NA,NA,NA,NA,NA,NA,NA,NA,NA,NA,NA,NA,NA,NA,NA,NA,NA,NA,NA,NA,NA,NA,NA,NA,NA,NA,NA,NA,NA,NA,NA,NA,NA
SUPAMT97320,3ZPBJO59KV0JTR19SHRUBYBG9ONHDZ,9B2C4561-9A33-447C-8BB8-207D5FB21CB8,2023-09-26_08h04.43.651,WP_VExplicitOC_LH,2022.2.5,Win32,10.7562736,NA,NA,NA,NA,NA,NA,NA,NA,NA,NA,NA,32.22222222,2.3424,0,6,6,6,1,daydream,007.png,NA,NA,NA,NA,NA,NA,NA,NA,NA,NA,NA,NA,NA,NA,NA,NA,NA,NA,NA,NA,NA,NA,NA,NA,NA,NA,NA,NA,NA,NA,NA,NA,NA,NA,NA,NA,NA,NA,NA
SUPAMT97320,3ZPBJO59KV0JTR19SHRUBYBG9ONHDZ,9B2C4561-9A33-447C-8BB8-207D5FB21CB8,2023-09-26_08h04.43.651,WP_VExplicitOC_LH,2022.2.5,Win32,10.7562736,NA,NA,NA,NA,NA,NA,NA,NA,NA,NA,NA,30,3.026,0,7,7,7,1,watch a short animation,008.png,NA,NA,NA,NA,NA,NA,NA,NA,NA,NA,NA,NA,NA,NA,NA,NA,NA,NA,NA,NA,NA,NA,NA,NA,NA,NA,NA,NA,NA,NA,NA,NA,NA,NA,NA,NA,NA,NA,NA
SUPAMT97320,3ZPBJO59KV0JTR19SHRUBYBG9ONHDZ,9B2C4561-9A33-447C-8BB8-207D5FB21CB8,2023-09-26_08h04.43.651,WP_VExplicitOC_LH,2022.2.5,Win32,10.7562736,NA,NA,NA,NA,NA,NA,NA,NA,NA,NA,NA,36.66666667,1.8516,0,8,8,8,1,read a novel,009.png,NA,NA,NA,NA,NA,NA,NA,NA,NA,NA,NA,NA,NA,NA,NA,NA,NA,NA,NA,NA,NA,NA,NA,NA,NA,NA,NA,NA,NA,NA,NA,NA,NA,NA,NA,NA,NA,NA,NA
SUPAMT97320,3ZPBJO59KV0JTR19SHRUBYBG9ONHDZ,9B2C4561-9A33-447C-8BB8-207D5FB21CB8,2023-09-26_08h04.43.651,WP_VExplicitOC_LH,2022.2.5,Win32,10.7562736,NA,NA,NA,NA,NA,NA,NA,NA,NA,NA,NA,36.66666667,1.5095,0,9,9,9,1,read the news,010.png,NA,NA,NA,NA,NA,NA,NA,NA,NA,NA,NA,NA,NA,NA,NA,NA,NA,NA,NA,NA,NA,NA,NA,NA,NA,NA,NA,NA,NA,NA,NA,NA,NA,NA,NA,NA,NA,NA,NA
SUPAMT97320,3ZPBJO59KV0JTR19SHRUBYBG9ONHDZ,9B2C4561-9A33-447C-8BB8-207D5FB21CB8,2023-09-26_08h04.43.651,WP_VExplicitOC_LH,2022.2.5,Win32,10.7562736,NA,NA,NA,NA,NA,NA,NA,NA,NA,NA,NA,NA,NA,NA,NA,NA,NA,NA,NA,NA,NA,NA,NA,NA,NA,NA,NA,NA,NA,NA,NA,NA,NA,NA,NA,NA,NA,NA,NA,NA,NA,NA,NA,NA,NA,NA,NA,NA,NA,NA,NA,NA,NA,NA,NA,NA,NA,NA,NA
SUPAMT97320,3ZPBJO59KV0JTR19SHRUBYBG9ONHDZ,9B2C4561-9A33-447C-8BB8-207D5FB21CB8,2023-09-26_08h04.43.651,WP_VExplicitOC_LH,2022.2.5,Win32,10.7562736,NA,NA,NA,NA,NA,NA,NA,NA,NA,NA,NA,NA,NA,NA,NA,NA,NA,NA,NA,NA,watch a short animation,NA,NA,NA,NA,NA,NA,NA,NA,NA,NA,NA,NA,NA,NA,NA,NA,NA,NA,NA,NA,NA,NA,NA,NA,NA,NA,NA,NA,NA,NA,NA,NA,NA,NA,NA,NA,NA,NA
SUPAMT97320,3ZPBJO59KV0JTR19SHRUBYBG9ONHDZ,9B2C4561-9A33-447C-8BB8-207D5FB21CB8,2023-09-26_08h04.43.651,WP_VExplicitOC_LH,2022.2.5,Win32,10.7562736,34.22222222,4.6291,2.0744,NA,NA,NA,NA,NA,happy,"unhappy, happy","less happy, more happy",NA,NA,NA,NA,NA,NA,NA,NA,NA,NA,0,0,0,0,1,NA,NA,NA,NA,NA,NA,NA,NA,NA,NA,NA,NA,NA,NA,NA,NA,NA,NA,NA,NA,NA,NA,NA,NA,NA,NA,NA,NA,NA,NA,NA,NA,NA
SUPAMT97320,3ZPBJO59KV0JTR19SHRUBYBG9ONHDZ,9B2C4561-9A33-447C-8BB8-207D5FB21CB8,2023-09-26_08h04.43.651,WP_VExplicitOC_LH,2022.2.5,Win32,10.7562736,32.44444444,6.2813,2.01,NA,NA,NA,NA,NA,bored,"bored, not bored","more bored, less bored",NA,NA,NA,NA,NA,NA,NA,NA,NA,NA,0,1,1,2,1,NA,NA,NA,NA,NA,NA,NA,NA,NA,NA,NA,NA,NA,NA,NA,NA,NA,NA,NA,NA,NA,NA,NA,NA,NA,NA,NA,NA,NA,NA,NA,NA,NA
SUPAMT97320,3ZPBJO59KV0JTR19SHRUBYBG9ONHDZ,9B2C4561-9A33-447C-8BB8-207D5FB21CB8,2023-09-26_08h04.43.651,WP_VExplicitOC_LH,2022.2.5,Win32,10.7562736,31.77777778,5.5587,2.1206,NA,NA,NA,NA,NA,frustrated,"frustrated, not frustrated","more frustrated, less frustrated",NA,NA,NA,NA,NA,NA,NA,NA,NA,NA,0,2,2,1,1,NA,NA,NA,NA,NA,NA,NA,NA,NA,NA,NA,NA,NA,NA,NA,NA,NA,NA,NA,NA,NA,NA,NA,NA,NA,NA,NA,NA,NA,NA,NA,NA,NA
SUPAMT97320,3ZPBJO59KV0JTR19SHRUBYBG9ONHDZ,9B2C4561-9A33-447C-8BB8-207D5FB21CB8,2023-09-26_08h04.43.651,WP_VExplicitOC_LH,2022.2.5,Win32,10.7562736,NA,NA,NA,NA,NA,NA,NA,NA,NA,NA,NA,NA,NA,NA,NA,NA,NA,NA,NA,NA,NA,NA,NA,NA,NA,NA,NA,NA,NA,NA,NA,NA,NA,NA,NA,NA,NA,NA,NA,NA,NA,NA,NA,NA,NA,NA,NA,NA,NA,NA,NA,NA,NA,NA,NA,NA,NA,NA,NA
SUPAMT97320,3ZPBJO59KV0JTR19SHRUBYBG9ONHDZ,9B2C4561-9A33-447C-8BB8-207D5FB21CB8,2023-09-26_08h04.43.651,WP_VExplicitOC_LH,2022.2.5,Win32,10.7562736,NA,NA,NA,NA,NA,NA,NA,NA,NA,NA,NA,NA,NA,NA,NA,NA,NA,NA,NA,NA,NA,NA,NA,NA,NA,NA,NA,NA,NA,NA,NA,NA,NA,NA,NA,NA,NA,NA,NA,NA,NA,NA,NA,NA,NA,NA,NA,NA,NA,NA,NA,NA,NA,NA,NA,NA,NA,NA,NA
SUPAMT97320,3ZPBJO59KV0JTR19SHRUBYBG9ONHDZ,9B2C4561-9A33-447C-8BB8-207D5FB21CB8,2023-09-26_08h04.43.651,WP_VExplicitOC_LH,2022.2.5,Win32,10.7562736,22.66666667,4.7916,2.1139,NA,NA,NA,NA,NA,frustrated,"frustrated, not frustrated","more frustrated, less frustrated",NA,NA,NA,NA,NA,NA,NA,NA,NA,NA,NA,NA,NA,NA,NA,0,0,0,1,1,NA,NA,NA,NA,NA,NA,NA,NA,NA,NA,NA,NA,NA,NA,NA,NA,NA,NA,NA,NA,NA,NA,NA,NA,NA,NA,NA,NA
SUPAMT97320,3ZPBJO59KV0JTR19SHRUBYBG9ONHDZ,9B2C4561-9A33-447C-8BB8-207D5FB21CB8,2023-09-26_08h04.43.651,WP_VExplicitOC_LH,2022.2.5,Win32,10.7562736,28,3.1362,2.0386,NA,NA,NA,NA,NA,happy,"unhappy, happy","less happy, more happy",NA,NA,NA,NA,NA,NA,NA,NA,NA,NA,NA,NA,NA,NA,NA,0,1,1,0,1,NA,NA,NA,NA,NA,NA,NA,NA,NA,NA,NA,NA,NA,NA,NA,NA,NA,NA,NA,NA,NA,NA,NA,NA,NA,NA,NA,NA
SUPAMT97320,3ZPBJO59KV0JTR19SHRUBYBG9ONHDZ,9B2C4561-9A33-447C-8BB8-207D5FB21CB8,2023-09-26_08h04.43.651,WP_VExplicitOC_LH,2022.2.5,Win32,10.7562736,28,3.2128,2.1599,NA,NA,NA,NA,NA,bored,"bored, not bored","more bored, less bored",NA,NA,NA,NA,NA,NA,NA,NA,NA,NA,NA,NA,NA,NA,NA,0,2,2,2,1,NA,NA,NA,NA,NA,NA,NA,NA,NA,NA,NA,NA,NA,NA,NA,NA,NA,NA,NA,NA,NA,NA,NA,NA,NA,NA,NA,NA
SUPAMT97320,3ZPBJO59KV0JTR19SHRUBYBG9ONHDZ,9B2C4561-9A33-447C-8BB8-207D5FB21CB8,2023-09-26_08h04.43.651,WP_VExplicitOC_LH,2022.2.5,Win32,10.7562736,NA,NA,NA,NA,NA,NA,NA,NA,NA,NA,NA,NA,NA,NA,NA,NA,NA,NA,NA,NA,NA,NA,NA,NA,NA,NA,NA,NA,NA,NA,NA,0,0,0,0,1,NA,NA,NA,NA,NA,NA,NA,NA,NA,NA,NA,NA,NA,NA,NA,NA,NA,NA,NA,NA,NA,NA,NA
SUPAMT97320,3ZPBJO59KV0JTR19SHRUBYBG9ONHDZ,9B2C4561-9A33-447C-8BB8-207D5FB21CB8,2023-09-26_08h04.43.651,WP_VExplicitOC_LH,2022.2.5,Win32,10.7562736,2,2.495,2.057,NA,NA,NA,NA,NA,bored,"bored, not bored","more bored, less bored",NA,NA,NA,NA,NA,NA,NA,NA,NA,NA,NA,NA,NA,NA,NA,0,0,0,2,1,NA,NA,NA,NA,NA,NA,NA,NA,NA,NA,NA,NA,NA,NA,NA,NA,NA,NA,NA,NA,NA,NA,NA,NA,NA,NA,NA,NA
SUPAMT97320,3ZPBJO59KV0JTR19SHRUBYBG9ONHDZ,9B2C4561-9A33-447C-8BB8-207D5FB21CB8,2023-09-26_08h04.43.651,WP_VExplicitOC_LH,2022.2.5,Win32,10.7562736,32,2.9154,2.0263,NA,NA,NA,NA,NA,frustrated,"frustrated, not frustrated","more frustrated, less frustrated",NA,NA,NA,NA,NA,NA,NA,NA,NA,NA,NA,NA,NA,NA,NA,0,1,1,1,1,NA,NA,NA,NA,NA,NA,NA,NA,NA,NA,NA,NA,NA,NA,NA,NA,NA,NA,NA,NA,NA,NA,NA,NA,NA,NA,NA,NA
SUPAMT97320,3ZPBJO59KV0JTR19SHRUBYBG9ONHDZ,9B2C4561-9A33-447C-8BB8-207D5FB21CB8,2023-09-26_08h04.43.651,WP_VExplicitOC_LH,2022.2.5,Win32,10.7562736,35.77777778,3.2685,2.0508,NA,NA,NA,NA,NA,happy,"unhappy, happy","less happy, more happy",NA,NA,NA,NA,NA,NA,NA,NA,NA,NA,NA,NA,NA,NA,NA,0,2,2,0,1,NA,NA,NA,NA,NA,NA,NA,NA,NA,NA,NA,NA,NA,NA,NA,NA,NA,NA,NA,NA,NA,NA,NA,NA,NA,NA,NA,NA
SUPAMT97320,3ZPBJO59KV0JTR19SHRUBYBG9ONHDZ,9B2C4561-9A33-447C-8BB8-207D5FB21CB8,2023-09-26_08h04.43.651,WP_VExplicitOC_LH,2022.2.5,Win32,10.7562736,NA,NA,NA,NA,NA,NA,NA,NA,NA,NA,NA,NA,NA,NA,NA,NA,NA,NA,NA,NA,NA,NA,NA,NA,NA,NA,NA,NA,NA,NA,NA,1,0,1,0,1,NA,NA,NA,NA,NA,NA,NA,NA,NA,NA,NA,NA,NA,NA,NA,NA,NA,NA,NA,NA,NA,NA,NA
SUPAMT97320,3ZPBJO59KV0JTR19SHRUBYBG9ONHDZ,9B2C4561-9A33-447C-8BB8-207D5FB21CB8,2023-09-26_08h04.43.651,WP_VExplicitOC_LH,2022.2.5,Win32,10.7562736,22.88888889,4.282,2.1303,NA,NA,NA,NA,NA,happy,"unhappy, happy","less happy, more happy",NA,NA,NA,NA,NA,NA,NA,NA,NA,NA,NA,NA,NA,NA,NA,0,0,0,0,1,NA,NA,NA,NA,NA,NA,NA,NA,NA,NA,NA,NA,NA,NA,NA,NA,NA,NA,NA,NA,NA,NA,NA,NA,NA,NA,NA,NA
SUPAMT97320,3ZPBJO59KV0JTR19SHRUBYBG9ONHDZ,9B2C4561-9A33-447C-8BB8-207D5FB21CB8,2023-09-26_08h04.43.651,WP_VExplicitOC_LH,2022.2.5,Win32,10.7562736,32.66666667,4.3625,2.0295,NA,NA,NA,NA,NA,frustrated,"frustrated, not frustrated","more frustrated, less frustrated",NA,NA,NA,NA,NA,NA,NA,NA,NA,NA,NA,NA,NA,NA,NA,0,1,1,1,1,NA,NA,NA,NA,NA,NA,NA,NA,NA,NA,NA,NA,NA,NA,NA,NA,NA,NA,NA,NA,NA,NA,NA,NA,NA,NA,NA,NA
SUPAMT97320,3ZPBJO59KV0JTR19SHRUBYBG9ONHDZ,9B2C4561-9A33-447C-8BB8-207D5FB21CB8,2023-09-26_08h04.43.651,WP_VExplicitOC_LH,2022.2.5,Win32,10.7562736,-14,4.9342,2.0604,NA,NA,NA,NA,NA,bored,"bored, not bored","more bored, less bored",NA,NA,NA,NA,NA,NA,NA,NA,NA,NA,NA,NA,NA,NA,NA,0,2,2,2,1,NA,NA,NA,NA,NA,NA,NA,NA,NA,NA,NA,NA,NA,NA,NA,NA,NA,NA,NA,NA,NA,NA,NA,NA,NA,NA,NA,NA
SUPAMT97320,3ZPBJO59KV0JTR19SHRUBYBG9ONHDZ,9B2C4561-9A33-447C-8BB8-207D5FB21CB8,2023-09-26_08h04.43.651,WP_VExplicitOC_LH,2022.2.5,Win32,10.7562736,NA,NA,NA,NA,NA,NA,NA,NA,NA,NA,NA,NA,NA,NA,NA,NA,NA,NA,NA,NA,NA,NA,NA,NA,NA,NA,NA,NA,NA,NA,NA,2,0,2,0,1,NA,NA,NA,NA,NA,NA,NA,NA,NA,NA,NA,NA,NA,NA,NA,NA,NA,NA,NA,NA,NA,NA,NA
SUPAMT97320,3ZPBJO59KV0JTR19SHRUBYBG9ONHDZ,9B2C4561-9A33-447C-8BB8-207D5FB21CB8,2023-09-26_08h04.43.651,WP_VExplicitOC_LH,2022.2.5,Win32,10.7562736,26.44444444,3.6593,2.06,NA,NA,NA,NA,NA,happy,"unhappy, happy","less happy, more happy",NA,NA,NA,NA,NA,NA,NA,NA,NA,NA,NA,NA,NA,NA,NA,0,0,0,0,1,NA,NA,NA,NA,NA,NA,NA,NA,NA,NA,NA,NA,NA,NA,NA,NA,NA,NA,NA,NA,NA,NA,NA,NA,NA,NA,NA,NA
SUPAMT97320,3ZPBJO59KV0JTR19SHRUBYBG9ONHDZ,9B2C4561-9A33-447C-8BB8-207D5FB21CB8,2023-09-26_08h04.43.651,WP_VExplicitOC_LH,2022.2.5,Win32,10.7562736,26.66666667,3.7845,2.1102,NA,NA,NA,NA,NA,bored,"bored, not bored","more bored, less bored",NA,NA,NA,NA,NA,NA,NA,NA,NA,NA,NA,NA,NA,NA,NA,0,1,1,2,1,NA,NA,NA,NA,NA,NA,NA,NA,NA,NA,NA,NA,NA,NA,NA,NA,NA,NA,NA,NA,NA,NA,NA,NA,NA,NA,NA,NA
SUPAMT97320,3ZPBJO59KV0JTR19SHRUBYBG9ONHDZ,9B2C4561-9A33-447C-8BB8-207D5FB21CB8,2023-09-26_08h04.43.651,WP_VExplicitOC_LH,2022.2.5,Win32,10.7562736,27.55555556,4.7589,2.1195,NA,NA,NA,NA,NA,frustrated,"frustrated, not frustrated","more frustrated, less frustrated",NA,NA,NA,NA,NA,NA,NA,NA,NA,NA,NA,NA,NA,NA,NA,0,2,2,1,1,NA,NA,NA,NA,NA,NA,NA,NA,NA,NA,NA,NA,NA,NA,NA,NA,NA,NA,NA,NA,NA,NA,NA,NA,NA,NA,NA,NA
SUPAMT97320,3ZPBJO59KV0JTR19SHRUBYBG9ONHDZ,9B2C4561-9A33-447C-8BB8-207D5FB21CB8,2023-09-26_08h04.43.651,WP_VExplicitOC_LH,2022.2.5,Win32,10.7562736,NA,NA,NA,NA,NA,NA,NA,NA,NA,NA,NA,NA,NA,NA,NA,NA,NA,NA,NA,NA,NA,NA,NA,NA,NA,NA,NA,NA,NA,NA,NA,3,0,3,0,1,NA,NA,NA,NA,NA,NA,NA,NA,NA,NA,NA,NA,NA,NA,NA,NA,NA,NA,NA,NA,NA,NA,NA
SUPAMT97320,3ZPBJO59KV0JTR19SHRUBYBG9ONHDZ,9B2C4561-9A33-447C-8BB8-207D5FB21CB8,2023-09-26_08h04.43.651,WP_VExplicitOC_LH,2022.2.5,Win32,10.7562736,17.33333333,4.0306,2.0614,NA,NA,NA,NA,NA,frustrated,"frustrated, not frustrated","more frustrated, less frustrated",NA,NA,NA,NA,NA,NA,NA,NA,NA,NA,NA,NA,NA,NA,NA,0,0,0,1,1,NA,NA,NA,NA,NA,NA,NA,NA,NA,NA,NA,NA,NA,NA,NA,NA,NA,NA,NA,NA,NA,NA,NA,NA,NA,NA,NA,NA
SUPAMT97320,3ZPBJO59KV0JTR19SHRUBYBG9ONHDZ,9B2C4561-9A33-447C-8BB8-207D5FB21CB8,2023-09-26_08h04.43.651,WP_VExplicitOC_LH,2022.2.5,Win32,10.7562736,22.22222222,4.3349,2.0953,NA,NA,NA,NA,NA,bored,"bored, not bored","more bored, less bored",NA,NA,NA,NA,NA,NA,NA,NA,NA,NA,NA,NA,NA,NA,NA,0,1,1,2,1,NA,NA,NA,NA,NA,NA,NA,NA,NA,NA,NA,NA,NA,NA,NA,NA,NA,NA,NA,NA,NA,NA,NA,NA,NA,NA,NA,NA
SUPAMT97320,3ZPBJO59KV0JTR19SHRUBYBG9ONHDZ,9B2C4561-9A33-447C-8BB8-207D5FB21CB8,2023-09-26_08h04.43.651,WP_VExplicitOC_LH,2022.2.5,Win32,10.7562736,22.22222222,3.6411,2.0866,NA,NA,NA,NA,NA,happy,"unhappy, happy","less happy, more happy",NA,NA,NA,NA,NA,NA,NA,NA,NA,NA,NA,NA,NA,NA,NA,0,2,2,0,1,NA,NA,NA,NA,NA,NA,NA,NA,NA,NA,NA,NA,NA,NA,NA,NA,NA,NA,NA,NA,NA,NA,NA,NA,NA,NA,NA,NA
SUPAMT97320,3ZPBJO59KV0JTR19SHRUBYBG9ONHDZ,9B2C4561-9A33-447C-8BB8-207D5FB21CB8,2023-09-26_08h04.43.651,WP_VExplicitOC_LH,2022.2.5,Win32,10.7562736,NA,NA,NA,NA,NA,NA,NA,NA,NA,NA,NA,NA,NA,NA,NA,NA,NA,NA,NA,NA,NA,NA,NA,NA,NA,NA,NA,NA,NA,NA,NA,4,0,4,0,1,NA,NA,NA,NA,NA,NA,NA,NA,NA,NA,NA,NA,NA,NA,NA,NA,NA,NA,NA,NA,NA,NA,NA
SUPAMT97320,3ZPBJO59KV0JTR19SHRUBYBG9ONHDZ,9B2C4561-9A33-447C-8BB8-207D5FB21CB8,2023-09-26_08h04.43.651,WP_VExplicitOC_LH,2022.2.5,Win32,10.7562736,20.66666667,4.8555,2.1207,NA,NA,NA,NA,NA,bored,"bored, not bored","more bored, less bored",NA,NA,NA,NA,NA,NA,NA,NA,NA,NA,NA,NA,NA,NA,NA,0,0,0,2,1,NA,NA,NA,NA,NA,NA,NA,NA,NA,NA,NA,NA,NA,NA,NA,NA,NA,NA,NA,NA,NA,NA,NA,NA,NA,NA,NA,NA
SUPAMT97320,3ZPBJO59KV0JTR19SHRUBYBG9ONHDZ,9B2C4561-9A33-447C-8BB8-207D5FB21CB8,2023-09-26_08h04.43.651,WP_VExplicitOC_LH,2022.2.5,Win32,10.7562736,20.88888889,3.2226,2.0268,NA,NA,NA,NA,NA,frustrated,"frustrated, not frustrated","more frustrated, less frustrated",NA,NA,NA,NA,NA,NA,NA,NA,NA,NA,NA,NA,NA,NA,NA,0,1,1,1,1,NA,NA,NA,NA,NA,NA,NA,NA,NA,NA,NA,NA,NA,NA,NA,NA,NA,NA,NA,NA,NA,NA,NA,NA,NA,NA,NA,NA
SUPAMT97320,3ZPBJO59KV0JTR19SHRUBYBG9ONHDZ,9B2C4561-9A33-447C-8BB8-207D5FB21CB8,2023-09-26_08h04.43.651,WP_VExplicitOC_LH,2022.2.5,Win32,10.7562736,20.88888889,3.1419,2.082,NA,NA,NA,NA,NA,happy,"unhappy, happy","less happy, more happy",NA,NA,NA,NA,NA,NA,NA,NA,NA,NA,NA,NA,NA,NA,NA,0,2,2,0,1,NA,NA,NA,NA,NA,NA,NA,NA,NA,NA,NA,NA,NA,NA,NA,NA,NA,NA,NA,NA,NA,NA,NA,NA,NA,NA,NA,NA
SUPAMT97320,3ZPBJO59KV0JTR19SHRUBYBG9ONHDZ,9B2C4561-9A33-447C-8BB8-207D5FB21CB8,2023-09-26_08h04.43.651,WP_VExplicitOC_LH,2022.2.5,Win32,10.7562736,NA,NA,NA,NA,NA,NA,NA,NA,NA,NA,NA,NA,NA,NA,NA,NA,NA,NA,NA,NA,NA,NA,NA,NA,NA,NA,NA,NA,NA,NA,NA,5,0,5,0,1,NA,NA,NA,NA,NA,NA,NA,NA,NA,NA,NA,NA,NA,NA,NA,NA,NA,NA,NA,NA,NA,NA,NA
SUPAMT97320,3ZPBJO59KV0JTR19SHRUBYBG9ONHDZ,9B2C4561-9A33-447C-8BB8-207D5FB21CB8,2023-09-26_08h04.43.651,WP_VExplicitOC_LH,2022.2.5,Win32,10.7562736,NA,NA,2.0368,NA,NA,NA,NA,NA,frustrated,"frustrated, not frustrated","more frustrated, less frustrated",NA,NA,NA,NA,NA,NA,NA,NA,NA,NA,NA,NA,NA,NA,NA,0,0,0,1,1,NA,NA,NA,NA,NA,NA,NA,NA,NA,NA,NA,NA,NA,NA,NA,NA,NA,NA,NA,NA,NA,NA,NA,NA,NA,NA,NA,NA
SUPAMT97320,3ZPBJO59KV0JTR19SHRUBYBG9ONHDZ,9B2C4561-9A33-447C-8BB8-207D5FB21CB8,2023-09-26_08h04.43.651,WP_VExplicitOC_LH,2022.2.5,Win32,10.7562736,23.33333333,3.7948,2.0695,NA,NA,NA,NA,NA,happy,"unhappy, happy","less happy, more happy",NA,NA,NA,NA,NA,NA,NA,NA,NA,NA,NA,NA,NA,NA,NA,0,1,1,0,1,NA,NA,NA,NA,NA,NA,NA,NA,NA,NA,NA,NA,NA,NA,NA,NA,NA,NA,NA,NA,NA,NA,NA,NA,NA,NA,NA,NA
SUPAMT97320,3ZPBJO59KV0JTR19SHRUBYBG9ONHDZ,9B2C4561-9A33-447C-8BB8-207D5FB21CB8,2023-09-26_08h04.43.651,WP_VExplicitOC_LH,2022.2.5,Win32,10.7562736,23.33333333,3.8621,2.0558,NA,NA,NA,NA,NA,bored,"bored, not bored","more bored, less bored",NA,NA,NA,NA,NA,NA,NA,NA,NA,NA,NA,NA,NA,NA,NA,0,2,2,2,1,NA,NA,NA,NA,NA,NA,NA,NA,NA,NA,NA,NA,NA,NA,NA,NA,NA,NA,NA,NA,NA,NA,NA,NA,NA,NA,NA,NA
SUPAMT97320,3ZPBJO59KV0JTR19SHRUBYBG9ONHDZ,9B2C4561-9A33-447C-8BB8-207D5FB21CB8,2023-09-26_08h04.43.651,WP_VExplicitOC_LH,2022.2.5,Win32,10.7562736,NA,NA,NA,NA,NA,NA,NA,NA,NA,NA,NA,NA,NA,NA,NA,NA,NA,NA,NA,NA,NA,NA,NA,NA,NA,NA,NA,NA,NA,NA,NA,6,0,6,0,1,NA,NA,NA,NA,NA,NA,NA,NA,NA,NA,NA,NA,NA,NA,NA,NA,NA,NA,NA,NA,NA,NA,NA
SUPAMT97320,3ZPBJO59KV0JTR19SHRUBYBG9ONHDZ,9B2C4561-9A33-447C-8BB8-207D5FB21CB8,2023-09-26_08h04.43.651,WP_VExplicitOC_LH,2022.2.5,Win32,10.7562736,24,4.246,2.1087,NA,NA,NA,NA,NA,frustrated,"frustrated, not frustrated","more frustrated, less frustrated",NA,NA,NA,NA,NA,NA,NA,NA,NA,NA,NA,NA,NA,NA,NA,0,0,0,1,1,NA,NA,NA,NA,NA,NA,NA,NA,NA,NA,NA,NA,NA,NA,NA,NA,NA,NA,NA,NA,NA,NA,NA,NA,NA,NA,NA,NA
SUPAMT97320,3ZPBJO59KV0JTR19SHRUBYBG9ONHDZ,9B2C4561-9A33-447C-8BB8-207D5FB21CB8,2023-09-26_08h04.43.651,WP_VExplicitOC_LH,2022.2.5,Win32,10.7562736,23.11111111,4.6787,2.0088,NA,NA,NA,NA,NA,bored,"bored, not bored","more bored, less bored",NA,NA,NA,NA,NA,NA,NA,NA,NA,NA,NA,NA,NA,NA,NA,0,1,1,2,1,NA,NA,NA,NA,NA,NA,NA,NA,NA,NA,NA,NA,NA,NA,NA,NA,NA,NA,NA,NA,NA,NA,NA,NA,NA,NA,NA,NA
SUPAMT97320,3ZPBJO59KV0JTR19SHRUBYBG9ONHDZ,9B2C4561-9A33-447C-8BB8-207D5FB21CB8,2023-09-26_08h04.43.651,WP_VExplicitOC_LH,2022.2.5,Win32,10.7562736,23.11111111,3.7414,2.0384,NA,NA,NA,NA,NA,happy,"unhappy, happy","less happy, more happy",NA,NA,NA,NA,NA,NA,NA,NA,NA,NA,NA,NA,NA,NA,NA,0,2,2,0,1,NA,NA,NA,NA,NA,NA,NA,NA,NA,NA,NA,NA,NA,NA,NA,NA,NA,NA,NA,NA,NA,NA,NA,NA,NA,NA,NA,NA
SUPAMT97320,3ZPBJO59KV0JTR19SHRUBYBG9ONHDZ,9B2C4561-9A33-447C-8BB8-207D5FB21CB8,2023-09-26_08h04.43.651,WP_VExplicitOC_LH,2022.2.5,Win32,10.7562736,NA,NA,NA,NA,NA,NA,NA,NA,NA,NA,NA,NA,NA,NA,NA,NA,NA,NA,NA,NA,NA,NA,NA,NA,NA,NA,NA,NA,NA,NA,NA,7,0,7,0,1,NA,NA,NA,NA,NA,NA,NA,NA,NA,NA,NA,NA,NA,NA,NA,NA,NA,NA,NA,NA,NA,NA,NA
SUPAMT97320,3ZPBJO59KV0JTR19SHRUBYBG9ONHDZ,9B2C4561-9A33-447C-8BB8-207D5FB21CB8,2023-09-26_08h04.43.651,WP_VExplicitOC_LH,2022.2.5,Win32,10.7562736,-35.55555556,6.2414,2.0055,NA,NA,NA,NA,NA,bored,"bored, not bored","more bored, less bored",NA,NA,NA,NA,NA,NA,NA,NA,NA,NA,NA,NA,NA,NA,NA,0,0,0,2,1,NA,NA,NA,NA,NA,NA,NA,NA,NA,NA,NA,NA,NA,NA,NA,NA,NA,NA,NA,NA,NA,NA,NA,NA,NA,NA,NA,NA
SUPAMT97320,3ZPBJO59KV0JTR19SHRUBYBG9ONHDZ,9B2C4561-9A33-447C-8BB8-207D5FB21CB8,2023-09-26_08h04.43.651,WP_VExplicitOC_LH,2022.2.5,Win32,10.7562736,NA,NA,2.1184,NA,NA,NA,NA,NA,happy,"unhappy, happy","less happy, more happy",NA,NA,NA,NA,NA,NA,NA,NA,NA,NA,NA,NA,NA,NA,NA,0,1,1,0,1,NA,NA,NA,NA,NA,NA,NA,NA,NA,NA,NA,NA,NA,NA,NA,NA,NA,NA,NA,NA,NA,NA,NA,NA,NA,NA,NA,NA
SUPAMT97320,3ZPBJO59KV0JTR19SHRUBYBG9ONHDZ,9B2C4561-9A33-447C-8BB8-207D5FB21CB8,2023-09-26_08h04.43.651,WP_VExplicitOC_LH,2022.2.5,Win32,10.7562736,-59.33333333,5.2522,2.054,NA,NA,NA,NA,NA,frustrated,"frustrated, not frustrated","more frustrated, less frustrated",NA,NA,NA,NA,NA,NA,NA,NA,NA,NA,NA,NA,NA,NA,NA,0,2,2,1,1,NA,NA,NA,NA,NA,NA,NA,NA,NA,NA,NA,NA,NA,NA,NA,NA,NA,NA,NA,NA,NA,NA,NA,NA,NA,NA,NA,NA
SUPAMT97320,3ZPBJO59KV0JTR19SHRUBYBG9ONHDZ,9B2C4561-9A33-447C-8BB8-207D5FB21CB8,2023-09-26_08h04.43.651,WP_VExplicitOC_LH,2022.2.5,Win32,10.7562736,NA,NA,NA,NA,NA,NA,NA,NA,NA,NA,NA,NA,NA,NA,NA,NA,NA,NA,NA,NA,NA,NA,NA,NA,NA,NA,NA,NA,NA,NA,NA,8,0,8,0,1,NA,NA,NA,NA,NA,NA,NA,NA,NA,NA,NA,NA,NA,NA,NA,NA,NA,NA,NA,NA,NA,NA,NA
SUPAMT97320,3ZPBJO59KV0JTR19SHRUBYBG9ONHDZ,9B2C4561-9A33-447C-8BB8-207D5FB21CB8,2023-09-26_08h04.43.651,WP_VExplicitOC_LH,2022.2.5,Win32,10.7562736,-95.77777778,5.5402,2.1082,NA,NA,NA,NA,NA,bored,"bored, not bored","more bored, less bored",NA,NA,NA,NA,NA,NA,NA,NA,NA,NA,NA,NA,NA,NA,NA,0,0,0,2,1,NA,NA,NA,NA,NA,NA,NA,NA,NA,NA,NA,NA,NA,NA,NA,NA,NA,NA,NA,NA,NA,NA,NA,NA,NA,NA,NA,NA
SUPAMT97320,3ZPBJO59KV0JTR19SHRUBYBG9ONHDZ,9B2C4561-9A33-447C-8BB8-207D5FB21CB8,2023-09-26_08h04.43.651,WP_VExplicitOC_LH,2022.2.5,Win32,10.7562736,-96.88888889,4.6395,2.0426,NA,NA,NA,NA,NA,frustrated,"frustrated, not frustrated","more frustrated, less frustrated",NA,NA,NA,NA,NA,NA,NA,NA,NA,NA,NA,NA,NA,NA,NA,0,1,1,1,1,NA,NA,NA,NA,NA,NA,NA,NA,NA,NA,NA,NA,NA,NA,NA,NA,NA,NA,NA,NA,NA,NA,NA,NA,NA,NA,NA,NA
SUPAMT97320,3ZPBJO59KV0JTR19SHRUBYBG9ONHDZ,9B2C4561-9A33-447C-8BB8-207D5FB21CB8,2023-09-26_08h04.43.651,WP_VExplicitOC_LH,2022.2.5,Win32,10.7562736,95.33333333,5.289,2.1133,NA,NA,NA,NA,NA,happy,"unhappy, happy","less happy, more happy",NA,NA,NA,NA,NA,NA,NA,NA,NA,NA,NA,NA,NA,NA,NA,0,2,2,0,1,NA,NA,NA,NA,NA,NA,NA,NA,NA,NA,NA,NA,NA,NA,NA,NA,NA,NA,NA,NA,NA,NA,NA,NA,NA,NA,NA,NA
SUPAMT97320,3ZPBJO59KV0JTR19SHRUBYBG9ONHDZ,9B2C4561-9A33-447C-8BB8-207D5FB21CB8,2023-09-26_08h04.43.651,WP_VExplicitOC_LH,2022.2.5,Win32,10.7562736,NA,NA,NA,NA,NA,NA,NA,NA,NA,NA,NA,NA,NA,NA,NA,NA,NA,NA,NA,NA,NA,NA,NA,NA,NA,NA,NA,NA,NA,NA,NA,9,0,9,0,1,NA,NA,NA,NA,NA,NA,NA,NA,NA,NA,NA,NA,NA,NA,NA,NA,NA,NA,NA,NA,NA,NA,NA
SUPAMT97320,3ZPBJO59KV0JTR19SHRUBYBG9ONHDZ,9B2C4561-9A33-447C-8BB8-207D5FB21CB8,2023-09-26_08h04.43.651,WP_VExplicitOC_LH,2022.2.5,Win32,10.7562736,-75.55555556,6.0987,2.1088,NA,NA,NA,NA,NA,bored,"bored, not bored","more bored, less bored",NA,NA,NA,NA,NA,NA,NA,NA,NA,NA,NA,NA,NA,NA,NA,0,0,0,2,1,NA,NA,NA,NA,NA,NA,NA,NA,NA,NA,NA,NA,NA,NA,NA,NA,NA,NA,NA,NA,NA,NA,NA,NA,NA,NA,NA,NA
SUPAMT97320,3ZPBJO59KV0JTR19SHRUBYBG9ONHDZ,9B2C4561-9A33-447C-8BB8-207D5FB21CB8,2023-09-26_08h04.43.651,WP_VExplicitOC_LH,2022.2.5,Win32,10.7562736,NA,NA,2.0852,NA,NA,NA,NA,NA,happy,"unhappy, happy","less happy, more happy",NA,NA,NA,NA,NA,NA,NA,NA,NA,NA,NA,NA,NA,NA,NA,0,1,1,0,1,NA,NA,NA,NA,NA,NA,NA,NA,NA,NA,NA,NA,NA,NA,NA,NA,NA,NA,NA,NA,NA,NA,NA,NA,NA,NA,NA,NA
SUPAMT97320,3ZPBJO59KV0JTR19SHRUBYBG9ONHDZ,9B2C4561-9A33-447C-8BB8-207D5FB21CB8,2023-09-26_08h04.43.651,WP_VExplicitOC_LH,2022.2.5,Win32,10.7562736,NA,NA,2.0361,NA,NA,NA,NA,NA,frustrated,"frustrated, not frustrated","more frustrated, less frustrated",NA,NA,NA,NA,NA,NA,NA,NA,NA,NA,NA,NA,NA,NA,NA,0,2,2,1,1,NA,NA,NA,NA,NA,NA,NA,NA,NA,NA,NA,NA,NA,NA,NA,NA,NA,NA,NA,NA,NA,NA,NA,NA,NA,NA,NA,NA
SUPAMT97320,3ZPBJO59KV0JTR19SHRUBYBG9ONHDZ,9B2C4561-9A33-447C-8BB8-207D5FB21CB8,2023-09-26_08h04.43.651,WP_VExplicitOC_LH,2022.2.5,Win32,10.7562736,NA,NA,NA,NA,NA,NA,NA,NA,NA,NA,NA,NA,NA,NA,NA,NA,NA,NA,NA,NA,NA,NA,NA,NA,NA,NA,NA,NA,NA,NA,NA,10,0,10,0,1,NA,NA,NA,NA,NA,NA,NA,NA,NA,NA,NA,NA,NA,NA,NA,NA,NA,NA,NA,NA,NA,NA,NA
SUPAMT97320,3ZPBJO59KV0JTR19SHRUBYBG9ONHDZ,9B2C4561-9A33-447C-8BB8-207D5FB21CB8,2023-09-26_08h04.43.651,WP_VExplicitOC_LH,2022.2.5,Win32,10.7562736,NA,NA,2.0418,NA,NA,NA,NA,NA,bored,"bored, not bored","more bored, less bored",NA,NA,NA,NA,NA,NA,NA,NA,NA,NA,NA,NA,NA,NA,NA,0,0,0,2,1,NA,NA,NA,NA,NA,NA,NA,NA,NA,NA,NA,NA,NA,NA,NA,NA,NA,NA,NA,NA,NA,NA,NA,NA,NA,NA,NA,NA
SUPAMT97320,3ZPBJO59KV0JTR19SHRUBYBG9ONHDZ,9B2C4561-9A33-447C-8BB8-207D5FB21CB8,2023-09-26_08h04.43.651,WP_VExplicitOC_LH,2022.2.5,Win32,10.7562736,NA,NA,2.0658,NA,NA,NA,NA,NA,happy,"unhappy, happy","less happy, more happy",NA,NA,NA,NA,NA,NA,NA,NA,NA,NA,NA,NA,NA,NA,NA,0,1,1,0,1,NA,NA,NA,NA,NA,NA,NA,NA,NA,NA,NA,NA,NA,NA,NA,NA,NA,NA,NA,NA,NA,NA,NA,NA,NA,NA,NA,NA
SUPAMT97320,3ZPBJO59KV0JTR19SHRUBYBG9ONHDZ,9B2C4561-9A33-447C-8BB8-207D5FB21CB8,2023-09-26_08h04.43.651,WP_VExplicitOC_LH,2022.2.5,Win32,10.7562736,NA,NA,2.0518,NA,NA,NA,NA,NA,frustrated,"frustrated, not frustrated","more frustrated, less frustrated",NA,NA,NA,NA,NA,NA,NA,NA,NA,NA,NA,NA,NA,NA,NA,0,2,2,1,1,NA,NA,NA,NA,NA,NA,NA,NA,NA,NA,NA,NA,NA,NA,NA,NA,NA,NA,NA,NA,NA,NA,NA,NA,NA,NA,NA,NA
SUPAMT97320,3ZPBJO59KV0JTR19SHRUBYBG9ONHDZ,9B2C4561-9A33-447C-8BB8-207D5FB21CB8,2023-09-26_08h04.43.651,WP_VExplicitOC_LH,2022.2.5,Win32,10.7562736,NA,NA,NA,NA,NA,NA,NA,NA,NA,NA,NA,NA,NA,NA,NA,NA,NA,NA,NA,NA,NA,NA,NA,NA,NA,NA,NA,NA,NA,NA,NA,11,0,11,0,1,NA,NA,NA,NA,NA,NA,NA,NA,NA,NA,NA,NA,NA,NA,NA,NA,NA,NA,NA,NA,NA,NA,NA
SUPAMT97320,3ZPBJO59KV0JTR19SHRUBYBG9ONHDZ,9B2C4561-9A33-447C-8BB8-207D5FB21CB8,2023-09-26_08h04.43.651,WP_VExplicitOC_LH,2022.2.5,Win32,10.7562736,NA,NA,2.0272,NA,NA,NA,NA,NA,happy,"unhappy, happy","less happy, more happy",NA,NA,NA,NA,NA,NA,NA,NA,NA,NA,NA,NA,NA,NA,NA,0,0,0,0,1,NA,NA,NA,NA,NA,NA,NA,NA,NA,NA,NA,NA,NA,NA,NA,NA,NA,NA,NA,NA,NA,NA,NA,NA,NA,NA,NA,NA
SUPAMT97320,3ZPBJO59KV0JTR19SHRUBYBG9ONHDZ,9B2C4561-9A33-447C-8BB8-207D5FB21CB8,2023-09-26_08h04.43.651,WP_VExplicitOC_LH,2022.2.5,Win32,10.7562736,NA,NA,2.0276,NA,NA,NA,NA,NA,bored,"bored, not bored","more bored, less bored",NA,NA,NA,NA,NA,NA,NA,NA,NA,NA,NA,NA,NA,NA,NA,0,1,1,2,1,NA,NA,NA,NA,NA,NA,NA,NA,NA,NA,NA,NA,NA,NA,NA,NA,NA,NA,NA,NA,NA,NA,NA,NA,NA,NA,NA,NA
SUPAMT97320,3ZPBJO59KV0JTR19SHRUBYBG9ONHDZ,9B2C4561-9A33-447C-8BB8-207D5FB21CB8,2023-09-26_08h04.43.651,WP_VExplicitOC_LH,2022.2.5,Win32,10.7562736,NA,NA,2.0358,NA,NA,NA,NA,NA,frustrated,"frustrated, not frustrated","more frustrated, less frustrated",NA,NA,NA,NA,NA,NA,NA,NA,NA,NA,NA,NA,NA,NA,NA,0,2,2,1,1,NA,NA,NA,NA,NA,NA,NA,NA,NA,NA,NA,NA,NA,NA,NA,NA,NA,NA,NA,NA,NA,NA,NA,NA,NA,NA,NA,NA
SUPAMT97320,3ZPBJO59KV0JTR19SHRUBYBG9ONHDZ,9B2C4561-9A33-447C-8BB8-207D5FB21CB8,2023-09-26_08h04.43.651,WP_VExplicitOC_LH,2022.2.5,Win32,10.7562736,NA,NA,NA,NA,NA,NA,NA,NA,NA,NA,NA,NA,NA,NA,NA,NA,NA,NA,NA,NA,NA,NA,NA,NA,NA,NA,NA,NA,NA,NA,NA,12,0,12,0,1,NA,NA,NA,NA,NA,NA,NA,NA,NA,NA,NA,NA,NA,NA,NA,NA,NA,NA,NA,NA,NA,NA,NA
SUPAMT97320,3ZPBJO59KV0JTR19SHRUBYBG9ONHDZ,9B2C4561-9A33-447C-8BB8-207D5FB21CB8,2023-09-26_08h04.43.651,WP_VExplicitOC_LH,2022.2.5,Win32,10.7562736,NA,NA,2.0635,NA,NA,NA,NA,NA,frustrated,"frustrated, not frustrated","more frustrated, less frustrated",NA,NA,NA,NA,NA,NA,NA,NA,NA,NA,NA,NA,NA,NA,NA,0,0,0,1,1,NA,NA,NA,NA,NA,NA,NA,NA,NA,NA,NA,NA,NA,NA,NA,NA,NA,NA,NA,NA,NA,NA,NA,NA,NA,NA,NA,NA
SUPAMT97320,3ZPBJO59KV0JTR19SHRUBYBG9ONHDZ,9B2C4561-9A33-447C-8BB8-207D5FB21CB8,2023-09-26_08h04.43.651,WP_VExplicitOC_LH,2022.2.5,Win32,10.7562736,NA,NA,2.0104,NA,NA,NA,NA,NA,happy,"unhappy, happy","less happy, more happy",NA,NA,NA,NA,NA,NA,NA,NA,NA,NA,NA,NA,NA,NA,NA,0,1,1,0,1,NA,NA,NA,NA,NA,NA,NA,NA,NA,NA,NA,NA,NA,NA,NA,NA,NA,NA,NA,NA,NA,NA,NA,NA,NA,NA,NA,NA
SUPAMT97320,3ZPBJO59KV0JTR19SHRUBYBG9ONHDZ,9B2C4561-9A33-447C-8BB8-207D5FB21CB8,2023-09-26_08h04.43.651,WP_VExplicitOC_LH,2022.2.5,Win32,10.7562736,-31.33333333,5.1401,2.0264,NA,NA,NA,NA,NA,bored,"bored, not bored","more bored, less bored",NA,NA,NA,NA,NA,NA,NA,NA,NA,NA,NA,NA,NA,NA,NA,0,2,2,2,1,NA,NA,NA,NA,NA,NA,NA,NA,NA,NA,NA,NA,NA,NA,NA,NA,NA,NA,NA,NA,NA,NA,NA,NA,NA,NA,NA,NA
SUPAMT97320,3ZPBJO59KV0JTR19SHRUBYBG9ONHDZ,9B2C4561-9A33-447C-8BB8-207D5FB21CB8,2023-09-26_08h04.43.651,WP_VExplicitOC_LH,2022.2.5,Win32,10.7562736,NA,NA,NA,NA,NA,NA,NA,NA,NA,NA,NA,NA,NA,NA,NA,NA,NA,NA,NA,NA,NA,NA,NA,NA,NA,NA,NA,NA,NA,NA,NA,13,0,13,0,1,NA,NA,NA,NA,NA,NA,NA,NA,NA,NA,NA,NA,NA,NA,NA,NA,NA,NA,NA,NA,NA,NA,NA
SUPAMT97320,3ZPBJO59KV0JTR19SHRUBYBG9ONHDZ,9B2C4561-9A33-447C-8BB8-207D5FB21CB8,2023-09-26_08h04.43.651,WP_VExplicitOC_LH,2022.2.5,Win32,10.7562736,NA,NA,2.1374,NA,NA,NA,NA,NA,frustrated,"frustrated, not frustrated","more frustrated, less frustrated",NA,NA,NA,NA,NA,NA,NA,NA,NA,NA,NA,NA,NA,NA,NA,0,0,0,1,1,NA,NA,NA,NA,NA,NA,NA,NA,NA,NA,NA,NA,NA,NA,NA,NA,NA,NA,NA,NA,NA,NA,NA,NA,NA,NA,NA,NA
SUPAMT97320,3ZPBJO59KV0JTR19SHRUBYBG9ONHDZ,9B2C4561-9A33-447C-8BB8-207D5FB21CB8,2023-09-26_08h04.43.651,WP_VExplicitOC_LH,2022.2.5,Win32,10.7562736,NA,NA,2.0144,NA,NA,NA,NA,NA,bored,"bored, not bored","more bored, less bored",NA,NA,NA,NA,NA,NA,NA,NA,NA,NA,NA,NA,NA,NA,NA,0,1,1,2,1,NA,NA,NA,NA,NA,NA,NA,NA,NA,NA,NA,NA,NA,NA,NA,NA,NA,NA,NA,NA,NA,NA,NA,NA,NA,NA,NA,NA
SUPAMT97320,3ZPBJO59KV0JTR19SHRUBYBG9ONHDZ,9B2C4561-9A33-447C-8BB8-207D5FB21CB8,2023-09-26_08h04.43.651,WP_VExplicitOC_LH,2022.2.5,Win32,10.7562736,NA,NA,2.0483,NA,NA,NA,NA,NA,happy,"unhappy, happy","less happy, more happy",NA,NA,NA,NA,NA,NA,NA,NA,NA,NA,NA,NA,NA,NA,NA,0,2,2,0,1,NA,NA,NA,NA,NA,NA,NA,NA,NA,NA,NA,NA,NA,NA,NA,NA,NA,NA,NA,NA,NA,NA,NA,NA,NA,NA,NA,NA
SUPAMT97320,3ZPBJO59KV0JTR19SHRUBYBG9ONHDZ,9B2C4561-9A33-447C-8BB8-207D5FB21CB8,2023-09-26_08h04.43.651,WP_VExplicitOC_LH,2022.2.5,Win32,10.7562736,NA,NA,NA,NA,NA,NA,NA,NA,NA,NA,NA,NA,NA,NA,NA,NA,NA,NA,NA,NA,NA,NA,NA,NA,NA,NA,NA,NA,NA,NA,NA,14,0,14,0,1,NA,NA,NA,NA,NA,NA,NA,NA,NA,NA,NA,NA,NA,NA,NA,NA,NA,NA,NA,NA,NA,NA,NA
SUPAMT97320,3ZPBJO59KV0JTR19SHRUBYBG9ONHDZ,9B2C4561-9A33-447C-8BB8-207D5FB21CB8,2023-09-26_08h04.43.651,WP_VExplicitOC_LH,2022.2.5,Win32,10.7562736,NA,NA,NA,NA,NA,NA,NA,NA,NA,NA,NA,NA,NA,NA,NA,NA,NA,NA,NA,NA,NA,NA,NA,NA,NA,NA,NA,NA,NA,NA,NA,NA,NA,NA,NA,NA,NA,NA,NA,NA,NA,NA,NA,NA,NA,NA,NA,NA,NA,NA,NA,NA,NA,NA,NA,NA,NA,NA,NA
SUPAMT97320,3ZPBJO59KV0JTR19SHRUBYBG9ONHDZ,9B2C4561-9A33-447C-8BB8-207D5FB21CB8,2023-09-26_08h04.43.651,WP_VExplicitOC_LH,2022.2.5,Win32,10.7562736,NA,NA,NA,NA,NA,NA,NA,NA,NA,NA,NA,NA,NA,NA,NA,NA,NA,NA,NA,NA,NA,NA,NA,NA,NA,NA,NA,NA,NA,NA,NA,NA,NA,NA,NA,NA,NA,NA,NA,NA,NA,NA,NA,NA,NA,NA,NA,NA,NA,NA,NA,NA,NA,NA,NA,NA,NA,NA,NA
SUPAMT97320,3ZPBJO59KV0JTR19SHRUBYBG9ONHDZ,9B2C4561-9A33-447C-8BB8-207D5FB21CB8,2023-09-26_08h04.43.651,WP_VExplicitOC_LH,2022.2.5,Win32,10.7562736,NA,NA,NA,NA,NA,NA,NA,NA,NA,NA,NA,NA,NA,NA,NA,NA,NA,NA,rest (looking at a fixed cross),001.png,NA,NA,NA,NA,NA,NA,NA,NA,NA,NA,NA,NA,NA,NA,NA,NA,NA,NA,0,0,0,0,1,NA,NA,NA,NA,NA,NA,NA,NA,NA,NA,NA,NA,NA,NA,NA,NA
SUPAMT97320,3ZPBJO59KV0JTR19SHRUBYBG9ONHDZ,9B2C4561-9A33-447C-8BB8-207D5FB21CB8,2023-09-26_08h04.43.651,WP_VExplicitOC_LH,2022.2.5,Win32,10.7562736,NA,NA,NA,NA,NA,NA,NA,NA,NA,NA,NA,NA,NA,NA,NA,NA,NA,NA,stand up,002.png,NA,NA,NA,NA,NA,NA,NA,NA,NA,NA,NA,NA,NA,NA,NA,NA,NA,NA,0,1,1,1,1,NA,NA,NA,NA,NA,NA,NA,NA,NA,NA,NA,NA,NA,NA,NA,NA
SUPAMT97320,3ZPBJO59KV0JTR19SHRUBYBG9ONHDZ,9B2C4561-9A33-447C-8BB8-207D5FB21CB8,2023-09-26_08h04.43.651,WP_VExplicitOC_LH,2022.2.5,Win32,10.7562736,NA,NA,NA,NA,NA,NA,NA,NA,NA,NA,NA,NA,NA,NA,NA,NA,NA,NA,stretch,003.png,NA,NA,NA,NA,NA,NA,NA,NA,NA,NA,NA,NA,NA,NA,NA,NA,20.66666667,1.1873,0,2,2,2,1,NA,NA,NA,NA,NA,NA,NA,NA,NA,NA,NA,NA,NA,NA,NA,NA
SUPAMT97320,3ZPBJO59KV0JTR19SHRUBYBG9ONHDZ,9B2C4561-9A33-447C-8BB8-207D5FB21CB8,2023-09-26_08h04.43.651,WP_VExplicitOC_LH,2022.2.5,Win32,10.7562736,NA,NA,NA,NA,NA,NA,NA,NA,NA,NA,NA,NA,NA,NA,NA,NA,NA,NA,make a drink,004.png,NA,NA,NA,NA,NA,NA,NA,NA,NA,NA,NA,NA,NA,NA,NA,NA,20.66666667,0.6517,0,3,3,3,1,NA,NA,NA,NA,NA,NA,NA,NA,NA,NA,NA,NA,NA,NA,NA,NA
SUPAMT97320,3ZPBJO59KV0JTR19SHRUBYBG9ONHDZ,9B2C4561-9A33-447C-8BB8-207D5FB21CB8,2023-09-26_08h04.43.651,WP_VExplicitOC_LH,2022.2.5,Win32,10.7562736,NA,NA,NA,NA,NA,NA,NA,NA,NA,NA,NA,NA,NA,NA,NA,NA,NA,NA,scroll social media,005.png,NA,NA,NA,NA,NA,NA,NA,NA,NA,NA,NA,NA,NA,NA,NA,NA,23.11111111,0.8374,0,4,4,4,1,NA,NA,NA,NA,NA,NA,NA,NA,NA,NA,NA,NA,NA,NA,NA,NA
SUPAMT97320,3ZPBJO59KV0JTR19SHRUBYBG9ONHDZ,9B2C4561-9A33-447C-8BB8-207D5FB21CB8,2023-09-26_08h04.43.651,WP_VExplicitOC_LH,2022.2.5,Win32,10.7562736,NA,NA,NA,NA,NA,NA,NA,NA,NA,NA,NA,NA,NA,NA,NA,NA,NA,NA,listen to music,006.png,NA,NA,NA,NA,NA,NA,NA,NA,NA,NA,NA,NA,NA,NA,NA,NA,23.11111111,1.3546,0,5,5,5,1,NA,NA,NA,NA,NA,NA,NA,NA,NA,NA,NA,NA,NA,NA,NA,NA
SUPAMT97320,3ZPBJO59KV0JTR19SHRUBYBG9ONHDZ,9B2C4561-9A33-447C-8BB8-207D5FB21CB8,2023-09-26_08h04.43.651,WP_VExplicitOC_LH,2022.2.5,Win32,10.7562736,NA,NA,NA,NA,NA,NA,NA,NA,NA,NA,NA,NA,NA,NA,NA,NA,NA,NA,daydream,007.png,NA,NA,NA,NA,NA,NA,NA,NA,NA,NA,NA,NA,NA,NA,NA,NA,23.11111111,1.4583,0,6,6,6,1,NA,NA,NA,NA,NA,NA,NA,NA,NA,NA,NA,NA,NA,NA,NA,NA
SUPAMT97320,3ZPBJO59KV0JTR19SHRUBYBG9ONHDZ,9B2C4561-9A33-447C-8BB8-207D5FB21CB8,2023-09-26_08h04.43.651,WP_VExplicitOC_LH,2022.2.5,Win32,10.7562736,NA,NA,NA,NA,NA,NA,NA,NA,NA,NA,NA,NA,NA,NA,NA,NA,NA,NA,watch a short animation,008.png,NA,NA,NA,NA,NA,NA,NA,NA,NA,NA,NA,NA,NA,NA,NA,NA,23.11111111,1.986,0,7,7,7,1,NA,NA,NA,NA,NA,NA,NA,NA,NA,NA,NA,NA,NA,NA,NA,NA
SUPAMT97320,3ZPBJO59KV0JTR19SHRUBYBG9ONHDZ,9B2C4561-9A33-447C-8BB8-207D5FB21CB8,2023-09-26_08h04.43.651,WP_VExplicitOC_LH,2022.2.5,Win32,10.7562736,NA,NA,NA,NA,NA,NA,NA,NA,NA,NA,NA,NA,NA,NA,NA,NA,NA,NA,read a novel,009.png,NA,NA,NA,NA,NA,NA,NA,NA,NA,NA,NA,NA,NA,NA,NA,NA,23.11111111,1.5253,0,8,8,8,1,NA,NA,NA,NA,NA,NA,NA,NA,NA,NA,NA,NA,NA,NA,NA,NA
SUPAMT97320,3ZPBJO59KV0JTR19SHRUBYBG9ONHDZ,9B2C4561-9A33-447C-8BB8-207D5FB21CB8,2023-09-26_08h04.43.651,WP_VExplicitOC_LH,2022.2.5,Win32,10.7562736,NA,NA,NA,NA,NA,NA,NA,NA,NA,NA,NA,NA,NA,NA,NA,NA,NA,NA,read the news,010.png,NA,NA,NA,NA,NA,NA,NA,NA,NA,NA,NA,NA,NA,NA,NA,NA,33.55555556,1.5213,0,9,9,9,1,NA,NA,NA,NA,NA,NA,NA,NA,NA,NA,NA,NA,NA,NA,NA,NA
SUPAMT97320,3ZPBJO59KV0JTR19SHRUBYBG9ONHDZ,9B2C4561-9A33-447C-8BB8-207D5FB21CB8,2023-09-26_08h04.43.651,WP_VExplicitOC_LH,2022.2.5,Win32,10.7562736,NA,NA,NA,NA,NA,NA,NA,NA,NA,NA,NA,NA,NA,NA,NA,NA,NA,NA,NA,NA,NA,NA,NA,NA,NA,NA,NA,NA,NA,NA,NA,NA,NA,NA,NA,NA,NA,NA,NA,NA,NA,NA,NA,watch a short animation,NA,NA,NA,NA,NA,NA,NA,NA,NA,NA,NA,NA,NA,NA,NA
SUPAMT97320,3ZPBJO59KV0JTR19SHRUBYBG9ONHDZ,9B2C4561-9A33-447C-8BB8-207D5FB21CB8,2023-09-26_08h04.43.651,WP_VExplicitOC_LH,2022.2.5,Win32,10.7562736,44.44444444,4.3332,2.0543,NA,NA,NA,NA,NA,happy,"unhappy, happy","less happy, more happy",NA,NA,NA,NA,NA,NA,NA,NA,NA,NA,NA,NA,NA,NA,NA,NA,NA,NA,NA,NA,NA,NA,NA,NA,NA,NA,NA,NA,NA,NA,NA,NA,NA,0,0,0,0,1,NA,NA,NA,NA,NA,NA,NA,NA,NA,NA
SUPAMT97320,3ZPBJO59KV0JTR19SHRUBYBG9ONHDZ,9B2C4561-9A33-447C-8BB8-207D5FB21CB8,2023-09-26_08h04.43.651,WP_VExplicitOC_LH,2022.2.5,Win32,10.7562736,-64.88888889,4.6724,2.0685,NA,NA,NA,NA,NA,bored,"bored, not bored","more bored, less bored",NA,NA,NA,NA,NA,NA,NA,NA,NA,NA,NA,NA,NA,NA,NA,NA,NA,NA,NA,NA,NA,NA,NA,NA,NA,NA,NA,NA,NA,NA,NA,NA,NA,0,1,1,2,1,NA,NA,NA,NA,NA,NA,NA,NA,NA,NA
SUPAMT97320,3ZPBJO59KV0JTR19SHRUBYBG9ONHDZ,9B2C4561-9A33-447C-8BB8-207D5FB21CB8,2023-09-26_08h04.43.651,WP_VExplicitOC_LH,2022.2.5,Win32,10.7562736,-62.22222222,4.6529,2.0959,NA,NA,NA,NA,NA,frustrated,"frustrated, not frustrated","more frustrated, less frustrated",NA,NA,NA,NA,NA,NA,NA,NA,NA,NA,NA,NA,NA,NA,NA,NA,NA,NA,NA,NA,NA,NA,NA,NA,NA,NA,NA,NA,NA,NA,NA,NA,NA,0,2,2,1,1,NA,NA,NA,NA,NA,NA,NA,NA,NA,NA
SUPAMT97320,3ZPBJO59KV0JTR19SHRUBYBG9ONHDZ,9B2C4561-9A33-447C-8BB8-207D5FB21CB8,2023-09-26_08h04.43.651,WP_VExplicitOC_LH,2022.2.5,Win32,10.7562736,NA,NA,NA,NA,NA,NA,NA,NA,NA,NA,NA,NA,NA,NA,NA,NA,NA,NA,NA,NA,NA,NA,NA,NA,NA,NA,NA,NA,NA,NA,NA,NA,NA,NA,NA,NA,NA,NA,NA,NA,NA,NA,NA,NA,NA,NA,NA,NA,NA,NA,NA,NA,NA,NA,NA,NA,NA,NA,NA
SUPAMT97320,3ZPBJO59KV0JTR19SHRUBYBG9ONHDZ,9B2C4561-9A33-447C-8BB8-207D5FB21CB8,2023-09-26_08h04.43.651,WP_VExplicitOC_LH,2022.2.5,Win32,10.7562736,NA,NA,NA,NA,NA,NA,NA,NA,NA,NA,NA,NA,NA,NA,NA,NA,NA,NA,NA,NA,NA,NA,NA,NA,NA,NA,NA,NA,NA,NA,NA,NA,NA,NA,NA,NA,NA,NA,NA,NA,NA,NA,NA,NA,NA,NA,NA,NA,NA,NA,NA,NA,NA,NA,NA,NA,NA,NA,NA
SUPAMT97320,3ZPBJO59KV0JTR19SHRUBYBG9ONHDZ,9B2C4561-9A33-447C-8BB8-207D5FB21CB8,2023-09-26_08h04.43.651,WP_VExplicitOC_LH,2022.2.5,Win32,10.7562736,51.33333333,6.5853,2.1043,NA,NA,NA,NA,NA,frustrated,"frustrated, not frustrated","more frustrated, less frustrated",NA,NA,NA,NA,NA,NA,NA,NA,NA,NA,NA,NA,NA,NA,NA,NA,NA,NA,NA,NA,NA,NA,NA,NA,NA,NA,NA,NA,NA,NA,NA,NA,NA,NA,NA,NA,NA,NA,0,0,0,1,1,NA,NA,NA,NA,NA
SUPAMT97320,3ZPBJO59KV0JTR19SHRUBYBG9ONHDZ,9B2C4561-9A33-447C-8BB8-207D5FB21CB8,2023-09-26_08h04.43.651,WP_VExplicitOC_LH,2022.2.5,Win32,10.7562736,44.22222222,4.0471,2.0349,NA,NA,NA,NA,NA,bored,"bored, not bored","more bored, less bored",NA,NA,NA,NA,NA,NA,NA,NA,NA,NA,NA,NA,NA,NA,NA,NA,NA,NA,NA,NA,NA,NA,NA,NA,NA,NA,NA,NA,NA,NA,NA,NA,NA,NA,NA,NA,NA,NA,0,1,1,2,1,NA,NA,NA,NA,NA
SUPAMT97320,3ZPBJO59KV0JTR19SHRUBYBG9ONHDZ,9B2C4561-9A33-447C-8BB8-207D5FB21CB8,2023-09-26_08h04.43.651,WP_VExplicitOC_LH,2022.2.5,Win32,10.7562736,42.88888889,3.8472,2.09,NA,NA,NA,NA,NA,happy,"unhappy, happy","less happy, more happy",NA,NA,NA,NA,NA,NA,NA,NA,NA,NA,NA,NA,NA,NA,NA,NA,NA,NA,NA,NA,NA,NA,NA,NA,NA,NA,NA,NA,NA,NA,NA,NA,NA,NA,NA,NA,NA,NA,0,2,2,0,1,NA,NA,NA,NA,NA
SUPAMT97320,3ZPBJO59KV0JTR19SHRUBYBG9ONHDZ,9B2C4561-9A33-447C-8BB8-207D5FB21CB8,2023-09-26_08h04.43.651,WP_VExplicitOC_LH,2022.2.5,Win32,10.7562736,NA,NA,NA,NA,NA,NA,NA,NA,NA,NA,NA,NA,NA,NA,NA,NA,NA,NA,NA,NA,NA,NA,NA,NA,NA,NA,NA,NA,NA,NA,NA,NA,NA,NA,NA,NA,NA,NA,NA,NA,NA,NA,NA,NA,NA,NA,NA,NA,NA,NA,NA,NA,NA,NA,0,0,0,0,1
SUPAMT97320,3ZPBJO59KV0JTR19SHRUBYBG9ONHDZ,9B2C4561-9A33-447C-8BB8-207D5FB21CB8,2023-09-26_08h04.43.651,WP_VExplicitOC_LH,2022.2.5,Win32,10.7562736,52.44444444,4.2989,2.0057,NA,NA,NA,NA,NA,happy,"unhappy, happy","less happy, more happy",NA,NA,NA,NA,NA,NA,NA,NA,NA,NA,NA,NA,NA,NA,NA,NA,NA,NA,NA,NA,NA,NA,NA,NA,NA,NA,NA,NA,NA,NA,NA,NA,NA,NA,NA,NA,NA,NA,0,0,0,0,1,NA,NA,NA,NA,NA
SUPAMT97320,3ZPBJO59KV0JTR19SHRUBYBG9ONHDZ,9B2C4561-9A33-447C-8BB8-207D5FB21CB8,2023-09-26_08h04.43.651,WP_VExplicitOC_LH,2022.2.5,Win32,10.7562736,49.77777778,4.2019,2.0816,NA,NA,NA,NA,NA,bored,"bored, not bored","more bored, less bored",NA,NA,NA,NA,NA,NA,NA,NA,NA,NA,NA,NA,NA,NA,NA,NA,NA,NA,NA,NA,NA,NA,NA,NA,NA,NA,NA,NA,NA,NA,NA,NA,NA,NA,NA,NA,NA,NA,0,1,1,2,1,NA,NA,NA,NA,NA
SUPAMT97320,3ZPBJO59KV0JTR19SHRUBYBG9ONHDZ,9B2C4561-9A33-447C-8BB8-207D5FB21CB8,2023-09-26_08h04.43.651,WP_VExplicitOC_LH,2022.2.5,Win32,10.7562736,49.77777778,3.753,2.1036,NA,NA,NA,NA,NA,frustrated,"frustrated, not frustrated","more frustrated, less frustrated",NA,NA,NA,NA,NA,NA,NA,NA,NA,NA,NA,NA,NA,NA,NA,NA,NA,NA,NA,NA,NA,NA,NA,NA,NA,NA,NA,NA,NA,NA,NA,NA,NA,NA,NA,NA,NA,NA,0,2,2,1,1,NA,NA,NA,NA,NA
SUPAMT97320,3ZPBJO59KV0JTR19SHRUBYBG9ONHDZ,9B2C4561-9A33-447C-8BB8-207D5FB21CB8,2023-09-26_08h04.43.651,WP_VExplicitOC_LH,2022.2.5,Win32,10.7562736,NA,NA,NA,NA,NA,NA,NA,NA,NA,NA,NA,NA,NA,NA,NA,NA,NA,NA,NA,NA,NA,NA,NA,NA,NA,NA,NA,NA,NA,NA,NA,NA,NA,NA,NA,NA,NA,NA,NA,NA,NA,NA,NA,NA,NA,NA,NA,NA,NA,NA,NA,NA,NA,NA,1,0,1,0,1
SUPAMT97320,3ZPBJO59KV0JTR19SHRUBYBG9ONHDZ,9B2C4561-9A33-447C-8BB8-207D5FB21CB8,2023-09-26_08h04.43.651,WP_VExplicitOC_LH,2022.2.5,Win32,10.7562736,38.22222222,5.179,2.0073,NA,NA,NA,NA,NA,bored,"bored, not bored","more bored, less bored",NA,NA,NA,NA,NA,NA,NA,NA,NA,NA,NA,NA,NA,NA,NA,NA,NA,NA,NA,NA,NA,NA,NA,NA,NA,NA,NA,NA,NA,NA,NA,NA,NA,NA,NA,NA,NA,NA,0,0,0,2,1,NA,NA,NA,NA,NA
SUPAMT97320,3ZPBJO59KV0JTR19SHRUBYBG9ONHDZ,9B2C4561-9A33-447C-8BB8-207D5FB21CB8,2023-09-26_08h04.43.651,WP_VExplicitOC_LH,2022.2.5,Win32,10.7562736,51.77777778,3.1691,2.0839,NA,NA,NA,NA,NA,happy,"unhappy, happy","less happy, more happy",NA,NA,NA,NA,NA,NA,NA,NA,NA,NA,NA,NA,NA,NA,NA,NA,NA,NA,NA,NA,NA,NA,NA,NA,NA,NA,NA,NA,NA,NA,NA,NA,NA,NA,NA,NA,NA,NA,0,1,1,0,1,NA,NA,NA,NA,NA
SUPAMT97320,3ZPBJO59KV0JTR19SHRUBYBG9ONHDZ,9B2C4561-9A33-447C-8BB8-207D5FB21CB8,2023-09-26_08h04.43.651,WP_VExplicitOC_LH,2022.2.5,Win32,10.7562736,51.77777778,4.9751,2.0227,NA,NA,NA,NA,NA,frustrated,"frustrated, not frustrated","more frustrated, less frustrated",NA,NA,NA,NA,NA,NA,NA,NA,NA,NA,NA,NA,NA,NA,NA,NA,NA,NA,NA,NA,NA,NA,NA,NA,NA,NA,NA,NA,NA,NA,NA,NA,NA,NA,NA,NA,NA,NA,0,2,2,1,1,NA,NA,NA,NA,NA
SUPAMT97320,3ZPBJO59KV0JTR19SHRUBYBG9ONHDZ,9B2C4561-9A33-447C-8BB8-207D5FB21CB8,2023-09-26_08h04.43.651,WP_VExplicitOC_LH,2022.2.5,Win32,10.7562736,NA,NA,NA,NA,NA,NA,NA,NA,NA,NA,NA,NA,NA,NA,NA,NA,NA,NA,NA,NA,NA,NA,NA,NA,NA,NA,NA,NA,NA,NA,NA,NA,NA,NA,NA,NA,NA,NA,NA,NA,NA,NA,NA,NA,NA,NA,NA,NA,NA,NA,NA,NA,NA,NA,2,0,2,0,1
SUPAMT97320,3ZPBJO59KV0JTR19SHRUBYBG9ONHDZ,9B2C4561-9A33-447C-8BB8-207D5FB21CB8,2023-09-26_08h04.43.651,WP_VExplicitOC_LH,2022.2.5,Win32,10.7562736,NA,NA,2.0523,NA,NA,NA,NA,NA,happy,"unhappy, happy","less happy, more happy",NA,NA,NA,NA,NA,NA,NA,NA,NA,NA,NA,NA,NA,NA,NA,NA,NA,NA,NA,NA,NA,NA,NA,NA,NA,NA,NA,NA,NA,NA,NA,NA,NA,NA,NA,NA,NA,NA,0,0,0,0,1,NA,NA,NA,NA,NA
SUPAMT97320,3ZPBJO59KV0JTR19SHRUBYBG9ONHDZ,9B2C4561-9A33-447C-8BB8-207D5FB21CB8,2023-09-26_08h04.43.651,WP_VExplicitOC_LH,2022.2.5,Win32,10.7562736,NA,NA,2.08,NA,NA,NA,NA,NA,frustrated,"frustrated, not frustrated","more frustrated, less frustrated",NA,NA,NA,NA,NA,NA,NA,NA,NA,NA,NA,NA,NA,NA,NA,NA,NA,NA,NA,NA,NA,NA,NA,NA,NA,NA,NA,NA,NA,NA,NA,NA,NA,NA,NA,NA,NA,NA,0,1,1,1,1,NA,NA,NA,NA,NA
SUPAMT97320,3ZPBJO59KV0JTR19SHRUBYBG9ONHDZ,9B2C4561-9A33-447C-8BB8-207D5FB21CB8,2023-09-26_08h04.43.651,WP_VExplicitOC_LH,2022.2.5,Win32,10.7562736,48,5.9017,2.0532,NA,NA,NA,NA,NA,bored,"bored, not bored","more bored, less bored",NA,NA,NA,NA,NA,NA,NA,NA,NA,NA,NA,NA,NA,NA,NA,NA,NA,NA,NA,NA,NA,NA,NA,NA,NA,NA,NA,NA,NA,NA,NA,NA,NA,NA,NA,NA,NA,NA,0,2,2,2,1,NA,NA,NA,NA,NA
SUPAMT97320,3ZPBJO59KV0JTR19SHRUBYBG9ONHDZ,9B2C4561-9A33-447C-8BB8-207D5FB21CB8,2023-09-26_08h04.43.651,WP_VExplicitOC_LH,2022.2.5,Win32,10.7562736,NA,NA,NA,NA,NA,NA,NA,NA,NA,NA,NA,NA,NA,NA,NA,NA,NA,NA,NA,NA,NA,NA,NA,NA,NA,NA,NA,NA,NA,NA,NA,NA,NA,NA,NA,NA,NA,NA,NA,NA,NA,NA,NA,NA,NA,NA,NA,NA,NA,NA,NA,NA,NA,NA,3,0,3,0,1
SUPAMT97320,3ZPBJO59KV0JTR19SHRUBYBG9ONHDZ,9B2C4561-9A33-447C-8BB8-207D5FB21CB8,2023-09-26_08h04.43.651,WP_VExplicitOC_LH,2022.2.5,Win32,10.7562736,67.33333333,6.6481,2.0938,NA,NA,NA,NA,NA,happy,"unhappy, happy","less happy, more happy",NA,NA,NA,NA,NA,NA,NA,NA,NA,NA,NA,NA,NA,NA,NA,NA,NA,NA,NA,NA,NA,NA,NA,NA,NA,NA,NA,NA,NA,NA,NA,NA,NA,NA,NA,NA,NA,NA,0,0,0,0,1,NA,NA,NA,NA,NA
SUPAMT97320,3ZPBJO59KV0JTR19SHRUBYBG9ONHDZ,9B2C4561-9A33-447C-8BB8-207D5FB21CB8,2023-09-26_08h04.43.651,WP_VExplicitOC_LH,2022.2.5,Win32,10.7562736,56.66666667,3.8068,2.0942,NA,NA,NA,NA,NA,bored,"bored, not bored","more bored, less bored",NA,NA,NA,NA,NA,NA,NA,NA,NA,NA,NA,NA,NA,NA,NA,NA,NA,NA,NA,NA,NA,NA,NA,NA,NA,NA,NA,NA,NA,NA,NA,NA,NA,NA,NA,NA,NA,NA,0,1,1,2,1,NA,NA,NA,NA,NA
SUPAMT97320,3ZPBJO59KV0JTR19SHRUBYBG9ONHDZ,9B2C4561-9A33-447C-8BB8-207D5FB21CB8,2023-09-26_08h04.43.651,WP_VExplicitOC_LH,2022.2.5,Win32,10.7562736,57.55555556,3.6835,2.0212,NA,NA,NA,NA,NA,frustrated,"frustrated, not frustrated","more frustrated, less frustrated",NA,NA,NA,NA,NA,NA,NA,NA,NA,NA,NA,NA,NA,NA,NA,NA,NA,NA,NA,NA,NA,NA,NA,NA,NA,NA,NA,NA,NA,NA,NA,NA,NA,NA,NA,NA,NA,NA,0,2,2,1,1,NA,NA,NA,NA,NA
SUPAMT97320,3ZPBJO59KV0JTR19SHRUBYBG9ONHDZ,9B2C4561-9A33-447C-8BB8-207D5FB21CB8,2023-09-26_08h04.43.651,WP_VExplicitOC_LH,2022.2.5,Win32,10.7562736,NA,NA,NA,NA,NA,NA,NA,NA,NA,NA,NA,NA,NA,NA,NA,NA,NA,NA,NA,NA,NA,NA,NA,NA,NA,NA,NA,NA,NA,NA,NA,NA,NA,NA,NA,NA,NA,NA,NA,NA,NA,NA,NA,NA,NA,NA,NA,NA,NA,NA,NA,NA,NA,NA,4,0,4,0,1
SUPAMT97320,3ZPBJO59KV0JTR19SHRUBYBG9ONHDZ,9B2C4561-9A33-447C-8BB8-207D5FB21CB8,2023-09-26_08h04.43.651,WP_VExplicitOC_LH,2022.2.5,Win32,10.7562736,34.88888889,6.1746,2.0347,NA,NA,NA,NA,NA,bored,"bored, not bored","more bored, less bored",NA,NA,NA,NA,NA,NA,NA,NA,NA,NA,NA,NA,NA,NA,NA,NA,NA,NA,NA,NA,NA,NA,NA,NA,NA,NA,NA,NA,NA,NA,NA,NA,NA,NA,NA,NA,NA,NA,0,0,0,2,1,NA,NA,NA,NA,NA
SUPAMT97320,3ZPBJO59KV0JTR19SHRUBYBG9ONHDZ,9B2C4561-9A33-447C-8BB8-207D5FB21CB8,2023-09-26_08h04.43.651,WP_VExplicitOC_LH,2022.2.5,Win32,10.7562736,52.44444444,3.6015,2.066,NA,NA,NA,NA,NA,happy,"unhappy, happy","less happy, more happy",NA,NA,NA,NA,NA,NA,NA,NA,NA,NA,NA,NA,NA,NA,NA,NA,NA,NA,NA,NA,NA,NA,NA,NA,NA,NA,NA,NA,NA,NA,NA,NA,NA,NA,NA,NA,NA,NA,0,1,1,0,1,NA,NA,NA,NA,NA
SUPAMT97320,3ZPBJO59KV0JTR19SHRUBYBG9ONHDZ,9B2C4561-9A33-447C-8BB8-207D5FB21CB8,2023-09-26_08h04.43.651,WP_VExplicitOC_LH,2022.2.5,Win32,10.7562736,54.22222222,3.7601,2.1065,NA,NA,NA,NA,NA,frustrated,"frustrated, not frustrated","more frustrated, less frustrated",NA,NA,NA,NA,NA,NA,NA,NA,NA,NA,NA,NA,NA,NA,NA,NA,NA,NA,NA,NA,NA,NA,NA,NA,NA,NA,NA,NA,NA,NA,NA,NA,NA,NA,NA,NA,NA,NA,0,2,2,1,1,NA,NA,NA,NA,NA
SUPAMT97320,3ZPBJO59KV0JTR19SHRUBYBG9ONHDZ,9B2C4561-9A33-447C-8BB8-207D5FB21CB8,2023-09-26_08h04.43.651,WP_VExplicitOC_LH,2022.2.5,Win32,10.7562736,NA,NA,NA,NA,NA,NA,NA,NA,NA,NA,NA,NA,NA,NA,NA,NA,NA,NA,NA,NA,NA,NA,NA,NA,NA,NA,NA,NA,NA,NA,NA,NA,NA,NA,NA,NA,NA,NA,NA,NA,NA,NA,NA,NA,NA,NA,NA,NA,NA,NA,NA,NA,NA,NA,5,0,5,0,1
SUPAMT97320,3ZPBJO59KV0JTR19SHRUBYBG9ONHDZ,9B2C4561-9A33-447C-8BB8-207D5FB21CB8,2023-09-26_08h04.43.651,WP_VExplicitOC_LH,2022.2.5,Win32,10.7562736,77.77777778,7.0614,2.0352,NA,NA,NA,NA,NA,happy,"unhappy, happy","less happy, more happy",NA,NA,NA,NA,NA,NA,NA,NA,NA,NA,NA,NA,NA,NA,NA,NA,NA,NA,NA,NA,NA,NA,NA,NA,NA,NA,NA,NA,NA,NA,NA,NA,NA,NA,NA,NA,NA,NA,0,0,0,0,1,NA,NA,NA,NA,NA
SUPAMT97320,3ZPBJO59KV0JTR19SHRUBYBG9ONHDZ,9B2C4561-9A33-447C-8BB8-207D5FB21CB8,2023-09-26_08h04.43.651,WP_VExplicitOC_LH,2022.2.5,Win32,10.7562736,66.66666667,4.7896,2.0931,NA,NA,NA,NA,NA,bored,"bored, not bored","more bored, less bored",NA,NA,NA,NA,NA,NA,NA,NA,NA,NA,NA,NA,NA,NA,NA,NA,NA,NA,NA,NA,NA,NA,NA,NA,NA,NA,NA,NA,NA,NA,NA,NA,NA,NA,NA,NA,NA,NA,0,1,1,2,1,NA,NA,NA,NA,NA
SUPAMT97320,3ZPBJO59KV0JTR19SHRUBYBG9ONHDZ,9B2C4561-9A33-447C-8BB8-207D5FB21CB8,2023-09-26_08h04.43.651,WP_VExplicitOC_LH,2022.2.5,Win32,10.7562736,66.66666667,4.2847,2.0806,NA,NA,NA,NA,NA,frustrated,"frustrated, not frustrated","more frustrated, less frustrated",NA,NA,NA,NA,NA,NA,NA,NA,NA,NA,NA,NA,NA,NA,NA,NA,NA,NA,NA,NA,NA,NA,NA,NA,NA,NA,NA,NA,NA,NA,NA,NA,NA,NA,NA,NA,NA,NA,0,2,2,1,1,NA,NA,NA,NA,NA
SUPAMT97320,3ZPBJO59KV0JTR19SHRUBYBG9ONHDZ,9B2C4561-9A33-447C-8BB8-207D5FB21CB8,2023-09-26_08h04.43.651,WP_VExplicitOC_LH,2022.2.5,Win32,10.7562736,NA,NA,NA,NA,NA,NA,NA,NA,NA,NA,NA,NA,NA,NA,NA,NA,NA,NA,NA,NA,NA,NA,NA,NA,NA,NA,NA,NA,NA,NA,NA,NA,NA,NA,NA,NA,NA,NA,NA,NA,NA,NA,NA,NA,NA,NA,NA,NA,NA,NA,NA,NA,NA,NA,6,0,6,0,1
SUPAMT97320,3ZPBJO59KV0JTR19SHRUBYBG9ONHDZ,9B2C4561-9A33-447C-8BB8-207D5FB21CB8,2023-09-26_08h04.43.651,WP_VExplicitOC_LH,2022.2.5,Win32,10.7562736,62.88888889,4.8665,2.0336,NA,NA,NA,NA,NA,bored,"bored, not bored","more bored, less bored",NA,NA,NA,NA,NA,NA,NA,NA,NA,NA,NA,NA,NA,NA,NA,NA,NA,NA,NA,NA,NA,NA,NA,NA,NA,NA,NA,NA,NA,NA,NA,NA,NA,NA,NA,NA,NA,NA,0,0,0,2,1,NA,NA,NA,NA,NA
SUPAMT97320,3ZPBJO59KV0JTR19SHRUBYBG9ONHDZ,9B2C4561-9A33-447C-8BB8-207D5FB21CB8,2023-09-26_08h04.43.651,WP_VExplicitOC_LH,2022.2.5,Win32,10.7562736,56.88888889,4.2984,2.0932,NA,NA,NA,NA,NA,happy,"unhappy, happy","less happy, more happy",NA,NA,NA,NA,NA,NA,NA,NA,NA,NA,NA,NA,NA,NA,NA,NA,NA,NA,NA,NA,NA,NA,NA,NA,NA,NA,NA,NA,NA,NA,NA,NA,NA,NA,NA,NA,NA,NA,0,1,1,0,1,NA,NA,NA,NA,NA
SUPAMT97320,3ZPBJO59KV0JTR19SHRUBYBG9ONHDZ,9B2C4561-9A33-447C-8BB8-207D5FB21CB8,2023-09-26_08h04.43.651,WP_VExplicitOC_LH,2022.2.5,Win32,10.7562736,71.55555556,3.5394,2.0385,NA,NA,NA,NA,NA,frustrated,"frustrated, not frustrated","more frustrated, less frustrated",NA,NA,NA,NA,NA,NA,NA,NA,NA,NA,NA,NA,NA,NA,NA,NA,NA,NA,NA,NA,NA,NA,NA,NA,NA,NA,NA,NA,NA,NA,NA,NA,NA,NA,NA,NA,NA,NA,0,2,2,1,1,NA,NA,NA,NA,NA
SUPAMT97320,3ZPBJO59KV0JTR19SHRUBYBG9ONHDZ,9B2C4561-9A33-447C-8BB8-207D5FB21CB8,2023-09-26_08h04.43.651,WP_VExplicitOC_LH,2022.2.5,Win32,10.7562736,NA,NA,NA,NA,NA,NA,NA,NA,NA,NA,NA,NA,NA,NA,NA,NA,NA,NA,NA,NA,NA,NA,NA,NA,NA,NA,NA,NA,NA,NA,NA,NA,NA,NA,NA,NA,NA,NA,NA,NA,NA,NA,NA,NA,NA,NA,NA,NA,NA,NA,NA,NA,NA,NA,7,0,7,0,1
SUPAMT97320,3ZPBJO59KV0JTR19SHRUBYBG9ONHDZ,9B2C4561-9A33-447C-8BB8-207D5FB21CB8,2023-09-26_08h04.43.651,WP_VExplicitOC_LH,2022.2.5,Win32,10.7562736,48,4.0151,2.0553,NA,NA,NA,NA,NA,happy,"unhappy, happy","less happy, more happy",NA,NA,NA,NA,NA,NA,NA,NA,NA,NA,NA,NA,NA,NA,NA,NA,NA,NA,NA,NA,NA,NA,NA,NA,NA,NA,NA,NA,NA,NA,NA,NA,NA,NA,NA,NA,NA,NA,0,0,0,0,1,NA,NA,NA,NA,NA
SUPAMT97320,3ZPBJO59KV0JTR19SHRUBYBG9ONHDZ,9B2C4561-9A33-447C-8BB8-207D5FB21CB8,2023-09-26_08h04.43.651,WP_VExplicitOC_LH,2022.2.5,Win32,10.7562736,49.77777778,4.3146,2.0988,NA,NA,NA,NA,NA,frustrated,"frustrated, not frustrated","more frustrated, less frustrated",NA,NA,NA,NA,NA,NA,NA,NA,NA,NA,NA,NA,NA,NA,NA,NA,NA,NA,NA,NA,NA,NA,NA,NA,NA,NA,NA,NA,NA,NA,NA,NA,NA,NA,NA,NA,NA,NA,0,1,1,1,1,NA,NA,NA,NA,NA
SUPAMT97320,3ZPBJO59KV0JTR19SHRUBYBG9ONHDZ,9B2C4561-9A33-447C-8BB8-207D5FB21CB8,2023-09-26_08h04.43.651,WP_VExplicitOC_LH,2022.2.5,Win32,10.7562736,52.66666667,3.8898,2.0802,NA,NA,NA,NA,NA,bored,"bored, not bored","more bored, less bored",NA,NA,NA,NA,NA,NA,NA,NA,NA,NA,NA,NA,NA,NA,NA,NA,NA,NA,NA,NA,NA,NA,NA,NA,NA,NA,NA,NA,NA,NA,NA,NA,NA,NA,NA,NA,NA,NA,0,2,2,2,1,NA,NA,NA,NA,NA
SUPAMT97320,3ZPBJO59KV0JTR19SHRUBYBG9ONHDZ,9B2C4561-9A33-447C-8BB8-207D5FB21CB8,2023-09-26_08h04.43.651,WP_VExplicitOC_LH,2022.2.5,Win32,10.7562736,NA,NA,NA,NA,NA,NA,NA,NA,NA,NA,NA,NA,NA,NA,NA,NA,NA,NA,NA,NA,NA,NA,NA,NA,NA,NA,NA,NA,NA,NA,NA,NA,NA,NA,NA,NA,NA,NA,NA,NA,NA,NA,NA,NA,NA,NA,NA,NA,NA,NA,NA,NA,NA,NA,8,0,8,0,1
SUPAMT97320,3ZPBJO59KV0JTR19SHRUBYBG9ONHDZ,9B2C4561-9A33-447C-8BB8-207D5FB21CB8,2023-09-26_08h04.43.651,WP_VExplicitOC_LH,2022.2.5,Win32,10.7562736,54.22222222,4.0979,2.0069,NA,NA,NA,NA,NA,happy,"unhappy, happy","less happy, more happy",NA,NA,NA,NA,NA,NA,NA,NA,NA,NA,NA,NA,NA,NA,NA,NA,NA,NA,NA,NA,NA,NA,NA,NA,NA,NA,NA,NA,NA,NA,NA,NA,NA,NA,NA,NA,NA,NA,0,0,0,0,1,NA,NA,NA,NA,NA
SUPAMT97320,3ZPBJO59KV0JTR19SHRUBYBG9ONHDZ,9B2C4561-9A33-447C-8BB8-207D5FB21CB8,2023-09-26_08h04.43.651,WP_VExplicitOC_LH,2022.2.5,Win32,10.7562736,54.22222222,3.5529,2.1039,NA,NA,NA,NA,NA,frustrated,"frustrated, not frustrated","more frustrated, less frustrated",NA,NA,NA,NA,NA,NA,NA,NA,NA,NA,NA,NA,NA,NA,NA,NA,NA,NA,NA,NA,NA,NA,NA,NA,NA,NA,NA,NA,NA,NA,NA,NA,NA,NA,NA,NA,NA,NA,0,1,1,1,1,NA,NA,NA,NA,NA
SUPAMT97320,3ZPBJO59KV0JTR19SHRUBYBG9ONHDZ,9B2C4561-9A33-447C-8BB8-207D5FB21CB8,2023-09-26_08h04.43.651,WP_VExplicitOC_LH,2022.2.5,Win32,10.7562736,59.33333333,3.5884,2.02,NA,NA,NA,NA,NA,bored,"bored, not bored","more bored, less bored",NA,NA,NA,NA,NA,NA,NA,NA,NA,NA,NA,NA,NA,NA,NA,NA,NA,NA,NA,NA,NA,NA,NA,NA,NA,NA,NA,NA,NA,NA,NA,NA,NA,NA,NA,NA,NA,NA,0,2,2,2,1,NA,NA,NA,NA,NA
SUPAMT97320,3ZPBJO59KV0JTR19SHRUBYBG9ONHDZ,9B2C4561-9A33-447C-8BB8-207D5FB21CB8,2023-09-26_08h04.43.651,WP_VExplicitOC_LH,2022.2.5,Win32,10.7562736,NA,NA,NA,NA,NA,NA,NA,NA,NA,NA,NA,NA,NA,NA,NA,NA,NA,NA,NA,NA,NA,NA,NA,NA,NA,NA,NA,NA,NA,NA,NA,NA,NA,NA,NA,NA,NA,NA,NA,NA,NA,NA,NA,NA,NA,NA,NA,NA,NA,NA,NA,NA,NA,NA,9,0,9,0,1
SUPAMT97320,3ZPBJO59KV0JTR19SHRUBYBG9ONHDZ,9B2C4561-9A33-447C-8BB8-207D5FB21CB8,2023-09-26_08h04.43.651,WP_VExplicitOC_LH,2022.2.5,Win32,10.7562736,53.11111111,4.7736,2.1053,NA,NA,NA,NA,NA,frustrated,"frustrated, not frustrated","more frustrated, less frustrated",NA,NA,NA,NA,NA,NA,NA,NA,NA,NA,NA,NA,NA,NA,NA,NA,NA,NA,NA,NA,NA,NA,NA,NA,NA,NA,NA,NA,NA,NA,NA,NA,NA,NA,NA,NA,NA,NA,0,0,0,1,1,NA,NA,NA,NA,NA
SUPAMT97320,3ZPBJO59KV0JTR19SHRUBYBG9ONHDZ,9B2C4561-9A33-447C-8BB8-207D5FB21CB8,2023-09-26_08h04.43.651,WP_VExplicitOC_LH,2022.2.5,Win32,10.7562736,53.11111111,3.3404,2.1316,NA,NA,NA,NA,NA,bored,"bored, not bored","more bored, less bored",NA,NA,NA,NA,NA,NA,NA,NA,NA,NA,NA,NA,NA,NA,NA,NA,NA,NA,NA,NA,NA,NA,NA,NA,NA,NA,NA,NA,NA,NA,NA,NA,NA,NA,NA,NA,NA,NA,0,1,1,2,1,NA,NA,NA,NA,NA
SUPAMT97320,3ZPBJO59KV0JTR19SHRUBYBG9ONHDZ,9B2C4561-9A33-447C-8BB8-207D5FB21CB8,2023-09-26_08h04.43.651,WP_VExplicitOC_LH,2022.2.5,Win32,10.7562736,61.77777778,3.806,2.0548,NA,NA,NA,NA,NA,happy,"unhappy, happy","less happy, more happy",NA,NA,NA,NA,NA,NA,NA,NA,NA,NA,NA,NA,NA,NA,NA,NA,NA,NA,NA,NA,NA,NA,NA,NA,NA,NA,NA,NA,NA,NA,NA,NA,NA,NA,NA,NA,NA,NA,0,2,2,0,1,NA,NA,NA,NA,NA
SUPAMT97320,3ZPBJO59KV0JTR19SHRUBYBG9ONHDZ,9B2C4561-9A33-447C-8BB8-207D5FB21CB8,2023-09-26_08h04.43.651,WP_VExplicitOC_LH,2022.2.5,Win32,10.7562736,NA,NA,NA,NA,NA,NA,NA,NA,NA,NA,NA,NA,NA,NA,NA,NA,NA,NA,NA,NA,NA,NA,NA,NA,NA,NA,NA,NA,NA,NA,NA,NA,NA,NA,NA,NA,NA,NA,NA,NA,NA,NA,NA,NA,NA,NA,NA,NA,NA,NA,NA,NA,NA,NA,10,0,10,0,1
SUPAMT97320,3ZPBJO59KV0JTR19SHRUBYBG9ONHDZ,9B2C4561-9A33-447C-8BB8-207D5FB21CB8,2023-09-26_08h04.43.651,WP_VExplicitOC_LH,2022.2.5,Win32,10.7562736,13.55555556,2.3456,2.1059,NA,NA,NA,NA,NA,frustrated,"frustrated, not frustrated","more frustrated, less frustrated",NA,NA,NA,NA,NA,NA,NA,NA,NA,NA,NA,NA,NA,NA,NA,NA,NA,NA,NA,NA,NA,NA,NA,NA,NA,NA,NA,NA,NA,NA,NA,NA,NA,NA,NA,NA,NA,NA,0,0,0,1,1,NA,NA,NA,NA,NA
SUPAMT97320,3ZPBJO59KV0JTR19SHRUBYBG9ONHDZ,9B2C4561-9A33-447C-8BB8-207D5FB21CB8,2023-09-26_08h04.43.651,WP_VExplicitOC_LH,2022.2.5,Win32,10.7562736,13.55555556,2.4192,2.1248,NA,NA,NA,NA,NA,happy,"unhappy, happy","less happy, more happy",NA,NA,NA,NA,NA,NA,NA,NA,NA,NA,NA,NA,NA,NA,NA,NA,NA,NA,NA,NA,NA,NA,NA,NA,NA,NA,NA,NA,NA,NA,NA,NA,NA,NA,NA,NA,NA,NA,0,1,1,0,1,NA,NA,NA,NA,NA
SUPAMT97320,3ZPBJO59KV0JTR19SHRUBYBG9ONHDZ,9B2C4561-9A33-447C-8BB8-207D5FB21CB8,2023-09-26_08h04.43.651,WP_VExplicitOC_LH,2022.2.5,Win32,10.7562736,58.66666667,2.7309,2.0482,NA,NA,NA,NA,NA,bored,"bored, not bored","more bored, less bored",NA,NA,NA,NA,NA,NA,NA,NA,NA,NA,NA,NA,NA,NA,NA,NA,NA,NA,NA,NA,NA,NA,NA,NA,NA,NA,NA,NA,NA,NA,NA,NA,NA,NA,NA,NA,NA,NA,0,2,2,2,1,NA,NA,NA,NA,NA
SUPAMT97320,3ZPBJO59KV0JTR19SHRUBYBG9ONHDZ,9B2C4561-9A33-447C-8BB8-207D5FB21CB8,2023-09-26_08h04.43.651,WP_VExplicitOC_LH,2022.2.5,Win32,10.7562736,NA,NA,NA,NA,NA,NA,NA,NA,NA,NA,NA,NA,NA,NA,NA,NA,NA,NA,NA,NA,NA,NA,NA,NA,NA,NA,NA,NA,NA,NA,NA,NA,NA,NA,NA,NA,NA,NA,NA,NA,NA,NA,NA,NA,NA,NA,NA,NA,NA,NA,NA,NA,NA,NA,11,0,11,0,1
SUPAMT97320,3ZPBJO59KV0JTR19SHRUBYBG9ONHDZ,9B2C4561-9A33-447C-8BB8-207D5FB21CB8,2023-09-26_08h04.43.651,WP_VExplicitOC_LH,2022.2.5,Win32,10.7562736,52.44444444,3.8755,2.0434,NA,NA,NA,NA,NA,bored,"bored, not bored","more bored, less bored",NA,NA,NA,NA,NA,NA,NA,NA,NA,NA,NA,NA,NA,NA,NA,NA,NA,NA,NA,NA,NA,NA,NA,NA,NA,NA,NA,NA,NA,NA,NA,NA,NA,NA,NA,NA,NA,NA,0,0,0,2,1,NA,NA,NA,NA,NA
SUPAMT97320,3ZPBJO59KV0JTR19SHRUBYBG9ONHDZ,9B2C4561-9A33-447C-8BB8-207D5FB21CB8,2023-09-26_08h04.43.651,WP_VExplicitOC_LH,2022.2.5,Win32,10.7562736,37.55555556,3.9005,2.0226,NA,NA,NA,NA,NA,frustrated,"frustrated, not frustrated","more frustrated, less frustrated",NA,NA,NA,NA,NA,NA,NA,NA,NA,NA,NA,NA,NA,NA,NA,NA,NA,NA,NA,NA,NA,NA,NA,NA,NA,NA,NA,NA,NA,NA,NA,NA,NA,NA,NA,NA,NA,NA,0,1,1,1,1,NA,NA,NA,NA,NA
SUPAMT97320,3ZPBJO59KV0JTR19SHRUBYBG9ONHDZ,9B2C4561-9A33-447C-8BB8-207D5FB21CB8,2023-09-26_08h04.43.651,WP_VExplicitOC_LH,2022.2.5,Win32,10.7562736,54.66666667,3.8443,2.0115,NA,NA,NA,NA,NA,happy,"unhappy, happy","less happy, more happy",NA,NA,NA,NA,NA,NA,NA,NA,NA,NA,NA,NA,NA,NA,NA,NA,NA,NA,NA,NA,NA,NA,NA,NA,NA,NA,NA,NA,NA,NA,NA,NA,NA,NA,NA,NA,NA,NA,0,2,2,0,1,NA,NA,NA,NA,NA
SUPAMT97320,3ZPBJO59KV0JTR19SHRUBYBG9ONHDZ,9B2C4561-9A33-447C-8BB8-207D5FB21CB8,2023-09-26_08h04.43.651,WP_VExplicitOC_LH,2022.2.5,Win32,10.7562736,NA,NA,NA,NA,NA,NA,NA,NA,NA,NA,NA,NA,NA,NA,NA,NA,NA,NA,NA,NA,NA,NA,NA,NA,NA,NA,NA,NA,NA,NA,NA,NA,NA,NA,NA,NA,NA,NA,NA,NA,NA,NA,NA,NA,NA,NA,NA,NA,NA,NA,NA,NA,NA,NA,12,0,12,0,1
SUPAMT97320,3ZPBJO59KV0JTR19SHRUBYBG9ONHDZ,9B2C4561-9A33-447C-8BB8-207D5FB21CB8,2023-09-26_08h04.43.651,WP_VExplicitOC_LH,2022.2.5,Win32,10.7562736,46.22222222,4.0445,2.0752,NA,NA,NA,NA,NA,bored,"bored, not bored","more bored, less bored",NA,NA,NA,NA,NA,NA,NA,NA,NA,NA,NA,NA,NA,NA,NA,NA,NA,NA,NA,NA,NA,NA,NA,NA,NA,NA,NA,NA,NA,NA,NA,NA,NA,NA,NA,NA,NA,NA,0,0,0,2,1,NA,NA,NA,NA,NA
SUPAMT97320,3ZPBJO59KV0JTR19SHRUBYBG9ONHDZ,9B2C4561-9A33-447C-8BB8-207D5FB21CB8,2023-09-26_08h04.43.651,WP_VExplicitOC_LH,2022.2.5,Win32,10.7562736,49.77777778,3.8135,2.0229,NA,NA,NA,NA,NA,happy,"unhappy, happy","less happy, more happy",NA,NA,NA,NA,NA,NA,NA,NA,NA,NA,NA,NA,NA,NA,NA,NA,NA,NA,NA,NA,NA,NA,NA,NA,NA,NA,NA,NA,NA,NA,NA,NA,NA,NA,NA,NA,NA,NA,0,1,1,0,1,NA,NA,NA,NA,NA
SUPAMT97320,3ZPBJO59KV0JTR19SHRUBYBG9ONHDZ,9B2C4561-9A33-447C-8BB8-207D5FB21CB8,2023-09-26_08h04.43.651,WP_VExplicitOC_LH,2022.2.5,Win32,10.7562736,49.77777778,3.5944,2.1636,NA,NA,NA,NA,NA,frustrated,"frustrated, not frustrated","more frustrated, less frustrated",NA,NA,NA,NA,NA,NA,NA,NA,NA,NA,NA,NA,NA,NA,NA,NA,NA,NA,NA,NA,NA,NA,NA,NA,NA,NA,NA,NA,NA,NA,NA,NA,NA,NA,NA,NA,NA,NA,0,2,2,1,1,NA,NA,NA,NA,NA
SUPAMT97320,3ZPBJO59KV0JTR19SHRUBYBG9ONHDZ,9B2C4561-9A33-447C-8BB8-207D5FB21CB8,2023-09-26_08h04.43.651,WP_VExplicitOC_LH,2022.2.5,Win32,10.7562736,NA,NA,NA,NA,NA,NA,NA,NA,NA,NA,NA,NA,NA,NA,NA,NA,NA,NA,NA,NA,NA,NA,NA,NA,NA,NA,NA,NA,NA,NA,NA,NA,NA,NA,NA,NA,NA,NA,NA,NA,NA,NA,NA,NA,NA,NA,NA,NA,NA,NA,NA,NA,NA,NA,13,0,13,0,1
SUPAMT97320,3ZPBJO59KV0JTR19SHRUBYBG9ONHDZ,9B2C4561-9A33-447C-8BB8-207D5FB21CB8,2023-09-26_08h04.43.651,WP_VExplicitOC_LH,2022.2.5,Win32,10.7562736,NA,NA,2.105,NA,NA,NA,NA,NA,bored,"bored, not bored","more bored, less bored",NA,NA,NA,NA,NA,NA,NA,NA,NA,NA,NA,NA,NA,NA,NA,NA,NA,NA,NA,NA,NA,NA,NA,NA,NA,NA,NA,NA,NA,NA,NA,NA,NA,NA,NA,NA,NA,NA,0,0,0,2,1,NA,NA,NA,NA,NA
SUPAMT97320,3ZPBJO59KV0JTR19SHRUBYBG9ONHDZ,9B2C4561-9A33-447C-8BB8-207D5FB21CB8,2023-09-26_08h04.43.651,WP_VExplicitOC_LH,2022.2.5,Win32,10.7562736,NA,NA,2.0979,NA,NA,NA,NA,NA,frustrated,"frustrated, not frustrated","more frustrated, less frustrated",NA,NA,NA,NA,NA,NA,NA,NA,NA,NA,NA,NA,NA,NA,NA,NA,NA,NA,NA,NA,NA,NA,NA,NA,NA,NA,NA,NA,NA,NA,NA,NA,NA,NA,NA,NA,NA,NA,0,1,1,1,1,NA,NA,NA,NA,NA
SUPAMT97320,3ZPBJO59KV0JTR19SHRUBYBG9ONHDZ,9B2C4561-9A33-447C-8BB8-207D5FB21CB8,2023-09-26_08h04.43.651,WP_VExplicitOC_LH,2022.2.5,Win32,10.7562736,NA,NA,2.0884,NA,NA,NA,NA,NA,happy,"unhappy, happy","less happy, more happy",NA,NA,NA,NA,NA,NA,NA,NA,NA,NA,NA,NA,NA,NA,NA,NA,NA,NA,NA,NA,NA,NA,NA,NA,NA,NA,NA,NA,NA,NA,NA,NA,NA,NA,NA,NA,NA,NA,0,2,2,0,1,NA,NA,NA,NA,NA
SUPAMT97320,3ZPBJO59KV0JTR19SHRUBYBG9ONHDZ,9B2C4561-9A33-447C-8BB8-207D5FB21CB8,2023-09-26_08h04.43.651,WP_VExplicitOC_LH,2022.2.5,Win32,10.7562736,NA,NA,NA,NA,NA,NA,NA,NA,NA,NA,NA,NA,NA,NA,NA,NA,NA,NA,NA,NA,NA,NA,NA,NA,NA,NA,NA,NA,NA,NA,NA,NA,NA,NA,NA,NA,NA,NA,NA,NA,NA,NA,NA,NA,NA,NA,NA,NA,NA,NA,NA,NA,NA,NA,14,0,14,0,1
SUPAMT97320,3ZPBJO59KV0JTR19SHRUBYBG9ONHDZ,9B2C4561-9A33-447C-8BB8-207D5FB21CB8,2023-09-26_08h04.43.651,WP_VExplicitOC_LH,2022.2.5,Win32,10.7562736,NA,NA,NA,NA,NA,NA,NA,NA,NA,NA,NA,NA,NA,NA,NA,NA,NA,NA,NA,NA,NA,NA,NA,NA,NA,NA,NA,NA,NA,NA,NA,NA,NA,NA,NA,NA,NA,NA,NA,NA,NA,NA,NA,NA,NA,NA,NA,NA,NA,NA,NA,NA,NA,NA,NA,NA,NA,NA,NA
