participant,session,completion,date,expName,psychopyVersion,OS,frameRate,rating_all.response,rating_all.rt,rating_all.tStart,rndRat1.thisRepN,rndRat1.thisTrialN,rndRat1.thisN,rndRat1.thisIndex,rndRat1.ran,Emo,Labs,Labs2,rating_alt.response,rating_alt.rt,AltC.thisRepN,AltC.thisTrialN,AltC.thisN,AltC.thisIndex,AltC.ran,alt_choices,pic_choices,TopAlt_Choice,rndRat2.thisRepN,rndRat2.thisTrialN,rndRat2.thisN,rndRat2.thisIndex,rndRat2.ran,rndRat3.thisRepN,rndRat3.thisTrialN,rndRat3.thisN,rndRat3.thisIndex,rndRat3.ran,trials_FC_H.thisRepN,trials_FC_H.thisTrialN,trials_FC_H.thisN,trials_FC_H.thisIndex,trials_FC_H.ran,rating_alt_2.response,rating_alt_2.rt,AltC2.thisRepN,AltC2.thisTrialN,AltC2.thisN,AltC2.thisIndex,AltC2.ran,BottomAlt_Choice,rndRat4.thisRepN,rndRat4.thisTrialN,rndRat4.thisN,rndRat4.thisIndex,rndRat4.ran,rndRat5.thisRepN,rndRat5.thisTrialN,rndRat5.thisN,rndRat5.thisIndex,rndRat5.ran,trials_FC_L.thisRepN,trials_FC_L.thisTrialN,trials_FC_L.thisN,trials_FC_L.thisIndex,trials_FC_L.ran
SUPAMT79316,3PPTZCWALWJZ9L583P3LB4MKPBEQZP,435F63EE-4702-4969-825C-24318A60E398,2023-09-29_04h40.43.429,WP_VExplicitOC_HL,2022.2.5,Win32,9.172544739,NA,NA,NA,NA,NA,NA,NA,NA,NA,NA,NA,NA,NA,NA,NA,NA,NA,NA,NA,NA,NA,NA,NA,NA,NA,NA,NA,NA,NA,NA,NA,NA,NA,NA,NA,NA,NA,NA,NA,NA,NA,NA,NA,NA,NA,NA,NA,NA,NA,NA,NA,NA,NA,NA,NA,NA,NA,NA,NA
SUPAMT79316,3PPTZCWALWJZ9L583P3LB4MKPBEQZP,435F63EE-4702-4969-825C-24318A60E398,2023-09-29_04h40.43.429,WP_VExplicitOC_HL,2022.2.5,Win32,9.172544739,NA,NA,NA,NA,NA,NA,NA,NA,NA,NA,NA,NA,NA,NA,NA,NA,NA,NA,NA,NA,NA,NA,NA,NA,NA,NA,NA,NA,NA,NA,NA,NA,NA,NA,NA,NA,NA,NA,NA,NA,NA,NA,NA,NA,NA,NA,NA,NA,NA,NA,NA,NA,NA,NA,NA,NA,NA,NA,NA
SUPAMT79316,3PPTZCWALWJZ9L583P3LB4MKPBEQZP,435F63EE-4702-4969-825C-24318A60E398,2023-09-29_04h40.43.429,WP_VExplicitOC_HL,2022.2.5,Win32,9.172544739,NA,NA,NA,NA,NA,NA,NA,NA,NA,NA,NA,NA,NA,NA,NA,NA,NA,NA,NA,NA,NA,NA,NA,NA,NA,NA,NA,NA,NA,NA,NA,NA,NA,NA,NA,NA,NA,NA,NA,NA,NA,NA,NA,NA,NA,NA,NA,NA,NA,NA,NA,NA,NA,NA,NA,NA,NA,NA,NA
SUPAMT79316,3PPTZCWALWJZ9L583P3LB4MKPBEQZP,435F63EE-4702-4969-825C-24318A60E398,2023-09-29_04h40.43.429,WP_VExplicitOC_HL,2022.2.5,Win32,9.172544739,40.10416667,5.1841,2.1138,0,0,0,1,1,frustrated,"frustrated, not frustrated","more frustrated, less frustrated",NA,NA,NA,NA,NA,NA,NA,NA,NA,NA,NA,NA,NA,NA,NA,NA,NA,NA,NA,NA,NA,NA,NA,NA,NA,NA,NA,NA,NA,NA,NA,NA,NA,NA,NA,NA,NA,NA,NA,NA,NA,NA,NA,NA,NA,NA,NA,NA
SUPAMT79316,3PPTZCWALWJZ9L583P3LB4MKPBEQZP,435F63EE-4702-4969-825C-24318A60E398,2023-09-29_04h40.43.429,WP_VExplicitOC_HL,2022.2.5,Win32,9.172544739,47.13541667,4.262,2.0511,0,1,1,2,1,bored,"bored, not bored","more bored, less bored",NA,NA,NA,NA,NA,NA,NA,NA,NA,NA,NA,NA,NA,NA,NA,NA,NA,NA,NA,NA,NA,NA,NA,NA,NA,NA,NA,NA,NA,NA,NA,NA,NA,NA,NA,NA,NA,NA,NA,NA,NA,NA,NA,NA,NA,NA,NA,NA
SUPAMT79316,3PPTZCWALWJZ9L583P3LB4MKPBEQZP,435F63EE-4702-4969-825C-24318A60E398,2023-09-29_04h40.43.429,WP_VExplicitOC_HL,2022.2.5,Win32,9.172544739,45.05208333,3.8977,2.0972,0,2,2,0,1,happy,"unhappy, happy","less happy, more happy",NA,NA,NA,NA,NA,NA,NA,NA,NA,NA,NA,NA,NA,NA,NA,NA,NA,NA,NA,NA,NA,NA,NA,NA,NA,NA,NA,NA,NA,NA,NA,NA,NA,NA,NA,NA,NA,NA,NA,NA,NA,NA,NA,NA,NA,NA,NA,NA
SUPAMT79316,3PPTZCWALWJZ9L583P3LB4MKPBEQZP,435F63EE-4702-4969-825C-24318A60E398,2023-09-29_04h40.43.429,WP_VExplicitOC_HL,2022.2.5,Win32,9.172544739,NA,NA,NA,NA,NA,NA,NA,NA,NA,NA,NA,NA,NA,NA,NA,NA,NA,NA,NA,NA,NA,NA,NA,NA,NA,NA,NA,NA,NA,NA,NA,NA,NA,NA,NA,NA,NA,NA,NA,NA,NA,NA,NA,NA,NA,NA,NA,NA,NA,NA,NA,NA,NA,NA,NA,NA,NA,NA,NA
SUPAMT79316,3PPTZCWALWJZ9L583P3LB4MKPBEQZP,435F63EE-4702-4969-825C-24318A60E398,2023-09-29_04h40.43.429,WP_VExplicitOC_HL,2022.2.5,Win32,9.172544739,NA,NA,NA,NA,NA,NA,NA,NA,NA,NA,NA,NA,NA,NA,NA,NA,NA,NA,NA,NA,NA,NA,NA,NA,NA,NA,NA,NA,NA,NA,NA,NA,NA,NA,NA,NA,NA,NA,NA,NA,NA,NA,NA,NA,NA,NA,NA,NA,NA,NA,NA,NA,NA,NA,NA,NA,NA,NA,NA
SUPAMT79316,3PPTZCWALWJZ9L583P3LB4MKPBEQZP,435F63EE-4702-4969-825C-24318A60E398,2023-09-29_04h40.43.429,WP_VExplicitOC_HL,2022.2.5,Win32,9.172544739,NA,NA,NA,NA,NA,NA,NA,NA,NA,NA,NA,NA,NA,NA,NA,NA,NA,NA,NA,NA,NA,NA,NA,NA,NA,NA,NA,NA,NA,NA,NA,NA,NA,NA,NA,NA,NA,NA,NA,NA,NA,NA,NA,NA,NA,NA,NA,NA,NA,NA,NA,NA,NA,NA,NA,NA,NA,NA,NA
SUPAMT79316,3PPTZCWALWJZ9L583P3LB4MKPBEQZP,435F63EE-4702-4969-825C-24318A60E398,2023-09-29_04h40.43.429,WP_VExplicitOC_HL,2022.2.5,Win32,9.172544739,NA,NA,NA,NA,NA,NA,NA,NA,NA,NA,NA,NA,NA,NA,NA,NA,NA,NA,NA,NA,NA,NA,NA,NA,NA,NA,NA,NA,NA,NA,NA,NA,NA,NA,NA,NA,NA,NA,NA,NA,NA,NA,NA,NA,NA,NA,NA,NA,NA,NA,NA,NA,NA,NA,NA,NA,NA,NA,NA
SUPAMT79316,3PPTZCWALWJZ9L583P3LB4MKPBEQZP,435F63EE-4702-4969-825C-24318A60E398,2023-09-29_04h40.43.429,WP_VExplicitOC_HL,2022.2.5,Win32,9.172544739,NA,NA,NA,NA,NA,NA,NA,NA,NA,NA,NA,51.30208333,3.5213,0,0,0,0,1,rest (looking at a fixed cross),001.png,NA,NA,NA,NA,NA,NA,NA,NA,NA,NA,NA,NA,NA,NA,NA,NA,NA,NA,NA,NA,NA,NA,NA,NA,NA,NA,NA,NA,NA,NA,NA,NA,NA,NA,NA,NA,NA,NA,NA
SUPAMT79316,3PPTZCWALWJZ9L583P3LB4MKPBEQZP,435F63EE-4702-4969-825C-24318A60E398,2023-09-29_04h40.43.429,WP_VExplicitOC_HL,2022.2.5,Win32,9.172544739,NA,NA,NA,NA,NA,NA,NA,NA,NA,NA,NA,69.79166667,2.1923,0,1,1,1,1,stand up,002.png,NA,NA,NA,NA,NA,NA,NA,NA,NA,NA,NA,NA,NA,NA,NA,NA,NA,NA,NA,NA,NA,NA,NA,NA,NA,NA,NA,NA,NA,NA,NA,NA,NA,NA,NA,NA,NA,NA,NA
SUPAMT79316,3PPTZCWALWJZ9L583P3LB4MKPBEQZP,435F63EE-4702-4969-825C-24318A60E398,2023-09-29_04h40.43.429,WP_VExplicitOC_HL,2022.2.5,Win32,9.172544739,NA,NA,NA,NA,NA,NA,NA,NA,NA,NA,NA,58.33333333,1.9116,0,2,2,2,1,stretch,003.png,NA,NA,NA,NA,NA,NA,NA,NA,NA,NA,NA,NA,NA,NA,NA,NA,NA,NA,NA,NA,NA,NA,NA,NA,NA,NA,NA,NA,NA,NA,NA,NA,NA,NA,NA,NA,NA,NA,NA
SUPAMT79316,3PPTZCWALWJZ9L583P3LB4MKPBEQZP,435F63EE-4702-4969-825C-24318A60E398,2023-09-29_04h40.43.429,WP_VExplicitOC_HL,2022.2.5,Win32,9.172544739,NA,NA,NA,NA,NA,NA,NA,NA,NA,NA,NA,35.9375,2.2391,0,3,3,3,1,make a drink,004.png,NA,NA,NA,NA,NA,NA,NA,NA,NA,NA,NA,NA,NA,NA,NA,NA,NA,NA,NA,NA,NA,NA,NA,NA,NA,NA,NA,NA,NA,NA,NA,NA,NA,NA,NA,NA,NA,NA,NA
SUPAMT79316,3PPTZCWALWJZ9L583P3LB4MKPBEQZP,435F63EE-4702-4969-825C-24318A60E398,2023-09-29_04h40.43.429,WP_VExplicitOC_HL,2022.2.5,Win32,9.172544739,NA,NA,NA,NA,NA,NA,NA,NA,NA,NA,NA,42.44791667,1.8198,0,4,4,4,1,scroll social media,005.png,NA,NA,NA,NA,NA,NA,NA,NA,NA,NA,NA,NA,NA,NA,NA,NA,NA,NA,NA,NA,NA,NA,NA,NA,NA,NA,NA,NA,NA,NA,NA,NA,NA,NA,NA,NA,NA,NA,NA
SUPAMT79316,3PPTZCWALWJZ9L583P3LB4MKPBEQZP,435F63EE-4702-4969-825C-24318A60E398,2023-09-29_04h40.43.429,WP_VExplicitOC_HL,2022.2.5,Win32,9.172544739,NA,NA,NA,NA,NA,NA,NA,NA,NA,NA,NA,73.95833333,1.816,0,5,5,5,1,listen to music,006.png,NA,NA,NA,NA,NA,NA,NA,NA,NA,NA,NA,NA,NA,NA,NA,NA,NA,NA,NA,NA,NA,NA,NA,NA,NA,NA,NA,NA,NA,NA,NA,NA,NA,NA,NA,NA,NA,NA,NA
SUPAMT79316,3PPTZCWALWJZ9L583P3LB4MKPBEQZP,435F63EE-4702-4969-825C-24318A60E398,2023-09-29_04h40.43.429,WP_VExplicitOC_HL,2022.2.5,Win32,9.172544739,NA,NA,NA,NA,NA,NA,NA,NA,NA,NA,NA,44.79166667,2.1917,0,6,6,6,1,daydream,007.png,NA,NA,NA,NA,NA,NA,NA,NA,NA,NA,NA,NA,NA,NA,NA,NA,NA,NA,NA,NA,NA,NA,NA,NA,NA,NA,NA,NA,NA,NA,NA,NA,NA,NA,NA,NA,NA,NA,NA
SUPAMT79316,3PPTZCWALWJZ9L583P3LB4MKPBEQZP,435F63EE-4702-4969-825C-24318A60E398,2023-09-29_04h40.43.429,WP_VExplicitOC_HL,2022.2.5,Win32,9.172544739,NA,NA,NA,NA,NA,NA,NA,NA,NA,NA,NA,92.96875,1.8052,0,7,7,7,1,watch a short animation,008.png,NA,NA,NA,NA,NA,NA,NA,NA,NA,NA,NA,NA,NA,NA,NA,NA,NA,NA,NA,NA,NA,NA,NA,NA,NA,NA,NA,NA,NA,NA,NA,NA,NA,NA,NA,NA,NA,NA,NA
SUPAMT79316,3PPTZCWALWJZ9L583P3LB4MKPBEQZP,435F63EE-4702-4969-825C-24318A60E398,2023-09-29_04h40.43.429,WP_VExplicitOC_HL,2022.2.5,Win32,9.172544739,NA,NA,NA,NA,NA,NA,NA,NA,NA,NA,NA,64.84375,1.7739,0,8,8,8,1,read a novel,009.png,NA,NA,NA,NA,NA,NA,NA,NA,NA,NA,NA,NA,NA,NA,NA,NA,NA,NA,NA,NA,NA,NA,NA,NA,NA,NA,NA,NA,NA,NA,NA,NA,NA,NA,NA,NA,NA,NA,NA
SUPAMT79316,3PPTZCWALWJZ9L583P3LB4MKPBEQZP,435F63EE-4702-4969-825C-24318A60E398,2023-09-29_04h40.43.429,WP_VExplicitOC_HL,2022.2.5,Win32,9.172544739,NA,NA,NA,NA,NA,NA,NA,NA,NA,NA,NA,41.92708333,1.7718,0,9,9,9,1,read the news,010.png,NA,NA,NA,NA,NA,NA,NA,NA,NA,NA,NA,NA,NA,NA,NA,NA,NA,NA,NA,NA,NA,NA,NA,NA,NA,NA,NA,NA,NA,NA,NA,NA,NA,NA,NA,NA,NA,NA,NA
SUPAMT79316,3PPTZCWALWJZ9L583P3LB4MKPBEQZP,435F63EE-4702-4969-825C-24318A60E398,2023-09-29_04h40.43.429,WP_VExplicitOC_HL,2022.2.5,Win32,9.172544739,NA,NA,NA,NA,NA,NA,NA,NA,NA,NA,NA,NA,NA,NA,NA,NA,NA,NA,NA,NA,NA,NA,NA,NA,NA,NA,NA,NA,NA,NA,NA,NA,NA,NA,NA,NA,NA,NA,NA,NA,NA,NA,NA,NA,NA,NA,NA,NA,NA,NA,NA,NA,NA,NA,NA,NA,NA,NA,NA
SUPAMT79316,3PPTZCWALWJZ9L583P3LB4MKPBEQZP,435F63EE-4702-4969-825C-24318A60E398,2023-09-29_04h40.43.429,WP_VExplicitOC_HL,2022.2.5,Win32,9.172544739,NA,NA,NA,NA,NA,NA,NA,NA,NA,NA,NA,NA,NA,NA,NA,NA,NA,NA,NA,NA,watch a short animation,NA,NA,NA,NA,NA,NA,NA,NA,NA,NA,NA,NA,NA,NA,NA,NA,NA,NA,NA,NA,NA,NA,NA,NA,NA,NA,NA,NA,NA,NA,NA,NA,NA,NA,NA,NA,NA,NA
SUPAMT79316,3PPTZCWALWJZ9L583P3LB4MKPBEQZP,435F63EE-4702-4969-825C-24318A60E398,2023-09-29_04h40.43.429,WP_VExplicitOC_HL,2022.2.5,Win32,9.172544739,52.08333333,4.3639,2.0776,NA,NA,NA,NA,NA,happy,"unhappy, happy","less happy, more happy",NA,NA,NA,NA,NA,NA,NA,NA,NA,NA,0,0,0,0,1,NA,NA,NA,NA,NA,NA,NA,NA,NA,NA,NA,NA,NA,NA,NA,NA,NA,NA,NA,NA,NA,NA,NA,NA,NA,NA,NA,NA,NA,NA,NA,NA,NA
SUPAMT79316,3PPTZCWALWJZ9L583P3LB4MKPBEQZP,435F63EE-4702-4969-825C-24318A60E398,2023-09-29_04h40.43.429,WP_VExplicitOC_HL,2022.2.5,Win32,9.172544739,52.08333333,3.4922,2.1065,NA,NA,NA,NA,NA,frustrated,"frustrated, not frustrated","more frustrated, less frustrated",NA,NA,NA,NA,NA,NA,NA,NA,NA,NA,0,1,1,1,1,NA,NA,NA,NA,NA,NA,NA,NA,NA,NA,NA,NA,NA,NA,NA,NA,NA,NA,NA,NA,NA,NA,NA,NA,NA,NA,NA,NA,NA,NA,NA,NA,NA
SUPAMT79316,3PPTZCWALWJZ9L583P3LB4MKPBEQZP,435F63EE-4702-4969-825C-24318A60E398,2023-09-29_04h40.43.429,WP_VExplicitOC_HL,2022.2.5,Win32,9.172544739,52.08333333,3.2237,2.1236,NA,NA,NA,NA,NA,bored,"bored, not bored","more bored, less bored",NA,NA,NA,NA,NA,NA,NA,NA,NA,NA,0,2,2,2,1,NA,NA,NA,NA,NA,NA,NA,NA,NA,NA,NA,NA,NA,NA,NA,NA,NA,NA,NA,NA,NA,NA,NA,NA,NA,NA,NA,NA,NA,NA,NA,NA,NA
SUPAMT79316,3PPTZCWALWJZ9L583P3LB4MKPBEQZP,435F63EE-4702-4969-825C-24318A60E398,2023-09-29_04h40.43.429,WP_VExplicitOC_HL,2022.2.5,Win32,9.172544739,NA,NA,NA,NA,NA,NA,NA,NA,NA,NA,NA,NA,NA,NA,NA,NA,NA,NA,NA,NA,NA,NA,NA,NA,NA,NA,NA,NA,NA,NA,NA,NA,NA,NA,NA,NA,NA,NA,NA,NA,NA,NA,NA,NA,NA,NA,NA,NA,NA,NA,NA,NA,NA,NA,NA,NA,NA,NA,NA
SUPAMT79316,3PPTZCWALWJZ9L583P3LB4MKPBEQZP,435F63EE-4702-4969-825C-24318A60E398,2023-09-29_04h40.43.429,WP_VExplicitOC_HL,2022.2.5,Win32,9.172544739,NA,NA,NA,NA,NA,NA,NA,NA,NA,NA,NA,NA,NA,NA,NA,NA,NA,NA,NA,NA,NA,NA,NA,NA,NA,NA,NA,NA,NA,NA,NA,NA,NA,NA,NA,NA,NA,NA,NA,NA,NA,NA,NA,NA,NA,NA,NA,NA,NA,NA,NA,NA,NA,NA,NA,NA,NA,NA,NA
SUPAMT79316,3PPTZCWALWJZ9L583P3LB4MKPBEQZP,435F63EE-4702-4969-825C-24318A60E398,2023-09-29_04h40.43.429,WP_VExplicitOC_HL,2022.2.5,Win32,9.172544739,64.29725363,4.2085,2.1067,NA,NA,NA,NA,NA,bored,"bored, not bored","more bored, less bored",NA,NA,NA,NA,NA,NA,NA,NA,NA,NA,NA,NA,NA,NA,NA,0,0,0,2,1,NA,NA,NA,NA,NA,NA,NA,NA,NA,NA,NA,NA,NA,NA,NA,NA,NA,NA,NA,NA,NA,NA,NA,NA,NA,NA,NA,NA
SUPAMT79316,3PPTZCWALWJZ9L583P3LB4MKPBEQZP,435F63EE-4702-4969-825C-24318A60E398,2023-09-29_04h40.43.429,WP_VExplicitOC_HL,2022.2.5,Win32,9.172544739,66.55896607,3.7975,2.0648,NA,NA,NA,NA,NA,frustrated,"frustrated, not frustrated","more frustrated, less frustrated",NA,NA,NA,NA,NA,NA,NA,NA,NA,NA,NA,NA,NA,NA,NA,0,1,1,1,1,NA,NA,NA,NA,NA,NA,NA,NA,NA,NA,NA,NA,NA,NA,NA,NA,NA,NA,NA,NA,NA,NA,NA,NA,NA,NA,NA,NA
SUPAMT79316,3PPTZCWALWJZ9L583P3LB4MKPBEQZP,435F63EE-4702-4969-825C-24318A60E398,2023-09-29_04h40.43.429,WP_VExplicitOC_HL,2022.2.5,Win32,9.172544739,66.55896607,3.1191,2.061,NA,NA,NA,NA,NA,happy,"unhappy, happy","less happy, more happy",NA,NA,NA,NA,NA,NA,NA,NA,NA,NA,NA,NA,NA,NA,NA,0,2,2,0,1,NA,NA,NA,NA,NA,NA,NA,NA,NA,NA,NA,NA,NA,NA,NA,NA,NA,NA,NA,NA,NA,NA,NA,NA,NA,NA,NA,NA
SUPAMT79316,3PPTZCWALWJZ9L583P3LB4MKPBEQZP,435F63EE-4702-4969-825C-24318A60E398,2023-09-29_04h40.43.429,WP_VExplicitOC_HL,2022.2.5,Win32,9.172544739,NA,NA,NA,NA,NA,NA,NA,NA,NA,NA,NA,NA,NA,NA,NA,NA,NA,NA,NA,NA,NA,NA,NA,NA,NA,NA,NA,NA,NA,NA,NA,0,0,0,0,1,NA,NA,NA,NA,NA,NA,NA,NA,NA,NA,NA,NA,NA,NA,NA,NA,NA,NA,NA,NA,NA,NA,NA
SUPAMT79316,3PPTZCWALWJZ9L583P3LB4MKPBEQZP,435F63EE-4702-4969-825C-24318A60E398,2023-09-29_04h40.43.429,WP_VExplicitOC_HL,2022.2.5,Win32,9.172544739,60.09693053,3.7606,2.0675,NA,NA,NA,NA,NA,bored,"bored, not bored","more bored, less bored",NA,NA,NA,NA,NA,NA,NA,NA,NA,NA,NA,NA,NA,NA,NA,0,0,0,2,1,NA,NA,NA,NA,NA,NA,NA,NA,NA,NA,NA,NA,NA,NA,NA,NA,NA,NA,NA,NA,NA,NA,NA,NA,NA,NA,NA,NA
SUPAMT79316,3PPTZCWALWJZ9L583P3LB4MKPBEQZP,435F63EE-4702-4969-825C-24318A60E398,2023-09-29_04h40.43.429,WP_VExplicitOC_HL,2022.2.5,Win32,9.172544739,60.09693053,3.2317,2.0399,NA,NA,NA,NA,NA,happy,"unhappy, happy","less happy, more happy",NA,NA,NA,NA,NA,NA,NA,NA,NA,NA,NA,NA,NA,NA,NA,0,1,1,0,1,NA,NA,NA,NA,NA,NA,NA,NA,NA,NA,NA,NA,NA,NA,NA,NA,NA,NA,NA,NA,NA,NA,NA,NA,NA,NA,NA,NA
SUPAMT79316,3PPTZCWALWJZ9L583P3LB4MKPBEQZP,435F63EE-4702-4969-825C-24318A60E398,2023-09-29_04h40.43.429,WP_VExplicitOC_HL,2022.2.5,Win32,9.172544739,60.09693053,3.0455,2.0871,NA,NA,NA,NA,NA,frustrated,"frustrated, not frustrated","more frustrated, less frustrated",NA,NA,NA,NA,NA,NA,NA,NA,NA,NA,NA,NA,NA,NA,NA,0,2,2,1,1,NA,NA,NA,NA,NA,NA,NA,NA,NA,NA,NA,NA,NA,NA,NA,NA,NA,NA,NA,NA,NA,NA,NA,NA,NA,NA,NA,NA
SUPAMT79316,3PPTZCWALWJZ9L583P3LB4MKPBEQZP,435F63EE-4702-4969-825C-24318A60E398,2023-09-29_04h40.43.429,WP_VExplicitOC_HL,2022.2.5,Win32,9.172544739,NA,NA,NA,NA,NA,NA,NA,NA,NA,NA,NA,NA,NA,NA,NA,NA,NA,NA,NA,NA,NA,NA,NA,NA,NA,NA,NA,NA,NA,NA,NA,1,0,1,0,1,NA,NA,NA,NA,NA,NA,NA,NA,NA,NA,NA,NA,NA,NA,NA,NA,NA,NA,NA,NA,NA,NA,NA
SUPAMT79316,3PPTZCWALWJZ9L583P3LB4MKPBEQZP,435F63EE-4702-4969-825C-24318A60E398,2023-09-29_04h40.43.429,WP_VExplicitOC_HL,2022.2.5,Win32,9.172544739,47.17285945,4.1721,2.0463,NA,NA,NA,NA,NA,happy,"unhappy, happy","less happy, more happy",NA,NA,NA,NA,NA,NA,NA,NA,NA,NA,NA,NA,NA,NA,NA,0,0,0,0,1,NA,NA,NA,NA,NA,NA,NA,NA,NA,NA,NA,NA,NA,NA,NA,NA,NA,NA,NA,NA,NA,NA,NA,NA,NA,NA,NA,NA
SUPAMT79316,3PPTZCWALWJZ9L583P3LB4MKPBEQZP,435F63EE-4702-4969-825C-24318A60E398,2023-09-29_04h40.43.429,WP_VExplicitOC_HL,2022.2.5,Win32,9.172544739,59.1276252,3.411,2.0613,NA,NA,NA,NA,NA,bored,"bored, not bored","more bored, less bored",NA,NA,NA,NA,NA,NA,NA,NA,NA,NA,NA,NA,NA,NA,NA,0,1,1,2,1,NA,NA,NA,NA,NA,NA,NA,NA,NA,NA,NA,NA,NA,NA,NA,NA,NA,NA,NA,NA,NA,NA,NA,NA,NA,NA,NA,NA
SUPAMT79316,3PPTZCWALWJZ9L583P3LB4MKPBEQZP,435F63EE-4702-4969-825C-24318A60E398,2023-09-29_04h40.43.429,WP_VExplicitOC_HL,2022.2.5,Win32,9.172544739,59.45072698,2.9225,2.0914,NA,NA,NA,NA,NA,frustrated,"frustrated, not frustrated","more frustrated, less frustrated",NA,NA,NA,NA,NA,NA,NA,NA,NA,NA,NA,NA,NA,NA,NA,0,2,2,1,1,NA,NA,NA,NA,NA,NA,NA,NA,NA,NA,NA,NA,NA,NA,NA,NA,NA,NA,NA,NA,NA,NA,NA,NA,NA,NA,NA,NA
SUPAMT79316,3PPTZCWALWJZ9L583P3LB4MKPBEQZP,435F63EE-4702-4969-825C-24318A60E398,2023-09-29_04h40.43.429,WP_VExplicitOC_HL,2022.2.5,Win32,9.172544739,NA,NA,NA,NA,NA,NA,NA,NA,NA,NA,NA,NA,NA,NA,NA,NA,NA,NA,NA,NA,NA,NA,NA,NA,NA,NA,NA,NA,NA,NA,NA,2,0,2,0,1,NA,NA,NA,NA,NA,NA,NA,NA,NA,NA,NA,NA,NA,NA,NA,NA,NA,NA,NA,NA,NA,NA,NA
SUPAMT79316,3PPTZCWALWJZ9L583P3LB4MKPBEQZP,435F63EE-4702-4969-825C-24318A60E398,2023-09-29_04h40.43.429,WP_VExplicitOC_HL,2022.2.5,Win32,9.172544739,-57.18901454,3.9137,2.0706,NA,NA,NA,NA,NA,frustrated,"frustrated, not frustrated","more frustrated, less frustrated",NA,NA,NA,NA,NA,NA,NA,NA,NA,NA,NA,NA,NA,NA,NA,0,0,0,1,1,NA,NA,NA,NA,NA,NA,NA,NA,NA,NA,NA,NA,NA,NA,NA,NA,NA,NA,NA,NA,NA,NA,NA,NA,NA,NA,NA,NA
SUPAMT79316,3PPTZCWALWJZ9L583P3LB4MKPBEQZP,435F63EE-4702-4969-825C-24318A60E398,2023-09-29_04h40.43.429,WP_VExplicitOC_HL,2022.2.5,Win32,9.172544739,-37.80290792,4.3196,2.0334,NA,NA,NA,NA,NA,happy,"unhappy, happy","less happy, more happy",NA,NA,NA,NA,NA,NA,NA,NA,NA,NA,NA,NA,NA,NA,NA,0,1,1,0,1,NA,NA,NA,NA,NA,NA,NA,NA,NA,NA,NA,NA,NA,NA,NA,NA,NA,NA,NA,NA,NA,NA,NA,NA,NA,NA,NA,NA
SUPAMT79316,3PPTZCWALWJZ9L583P3LB4MKPBEQZP,435F63EE-4702-4969-825C-24318A60E398,2023-09-29_04h40.43.429,WP_VExplicitOC_HL,2022.2.5,Win32,9.172544739,-37.80290792,3.5987,2.062,NA,NA,NA,NA,NA,bored,"bored, not bored","more bored, less bored",NA,NA,NA,NA,NA,NA,NA,NA,NA,NA,NA,NA,NA,NA,NA,0,2,2,2,1,NA,NA,NA,NA,NA,NA,NA,NA,NA,NA,NA,NA,NA,NA,NA,NA,NA,NA,NA,NA,NA,NA,NA,NA,NA,NA,NA,NA
SUPAMT79316,3PPTZCWALWJZ9L583P3LB4MKPBEQZP,435F63EE-4702-4969-825C-24318A60E398,2023-09-29_04h40.43.429,WP_VExplicitOC_HL,2022.2.5,Win32,9.172544739,NA,NA,NA,NA,NA,NA,NA,NA,NA,NA,NA,NA,NA,NA,NA,NA,NA,NA,NA,NA,NA,NA,NA,NA,NA,NA,NA,NA,NA,NA,NA,3,0,3,0,1,NA,NA,NA,NA,NA,NA,NA,NA,NA,NA,NA,NA,NA,NA,NA,NA,NA,NA,NA,NA,NA,NA,NA
SUPAMT79316,3PPTZCWALWJZ9L583P3LB4MKPBEQZP,435F63EE-4702-4969-825C-24318A60E398,2023-09-29_04h40.43.429,WP_VExplicitOC_HL,2022.2.5,Win32,9.172544739,31.34087237,3.9954,2.092,NA,NA,NA,NA,NA,frustrated,"frustrated, not frustrated","more frustrated, less frustrated",NA,NA,NA,NA,NA,NA,NA,NA,NA,NA,NA,NA,NA,NA,NA,0,0,0,1,1,NA,NA,NA,NA,NA,NA,NA,NA,NA,NA,NA,NA,NA,NA,NA,NA,NA,NA,NA,NA,NA,NA,NA,NA,NA,NA,NA,NA
SUPAMT79316,3PPTZCWALWJZ9L583P3LB4MKPBEQZP,435F63EE-4702-4969-825C-24318A60E398,2023-09-29_04h40.43.429,WP_VExplicitOC_HL,2022.2.5,Win32,9.172544739,64.62035541,5.9333,2.0963,NA,NA,NA,NA,NA,happy,"unhappy, happy","less happy, more happy",NA,NA,NA,NA,NA,NA,NA,NA,NA,NA,NA,NA,NA,NA,NA,0,1,1,0,1,NA,NA,NA,NA,NA,NA,NA,NA,NA,NA,NA,NA,NA,NA,NA,NA,NA,NA,NA,NA,NA,NA,NA,NA,NA,NA,NA,NA
SUPAMT79316,3PPTZCWALWJZ9L583P3LB4MKPBEQZP,435F63EE-4702-4969-825C-24318A60E398,2023-09-29_04h40.43.429,WP_VExplicitOC_HL,2022.2.5,Win32,9.172544739,-59.45072698,4.3442,2.093,NA,NA,NA,NA,NA,bored,"bored, not bored","more bored, less bored",NA,NA,NA,NA,NA,NA,NA,NA,NA,NA,NA,NA,NA,NA,NA,0,2,2,2,1,NA,NA,NA,NA,NA,NA,NA,NA,NA,NA,NA,NA,NA,NA,NA,NA,NA,NA,NA,NA,NA,NA,NA,NA,NA,NA,NA,NA
SUPAMT79316,3PPTZCWALWJZ9L583P3LB4MKPBEQZP,435F63EE-4702-4969-825C-24318A60E398,2023-09-29_04h40.43.429,WP_VExplicitOC_HL,2022.2.5,Win32,9.172544739,NA,NA,NA,NA,NA,NA,NA,NA,NA,NA,NA,NA,NA,NA,NA,NA,NA,NA,NA,NA,NA,NA,NA,NA,NA,NA,NA,NA,NA,NA,NA,4,0,4,0,1,NA,NA,NA,NA,NA,NA,NA,NA,NA,NA,NA,NA,NA,NA,NA,NA,NA,NA,NA,NA,NA,NA,NA
SUPAMT79316,3PPTZCWALWJZ9L583P3LB4MKPBEQZP,435F63EE-4702-4969-825C-24318A60E398,2023-09-29_04h40.43.429,WP_VExplicitOC_HL,2022.2.5,Win32,9.172544739,49.11147011,3.7998,2.0195,NA,NA,NA,NA,NA,bored,"bored, not bored","more bored, less bored",NA,NA,NA,NA,NA,NA,NA,NA,NA,NA,NA,NA,NA,NA,NA,0,0,0,2,1,NA,NA,NA,NA,NA,NA,NA,NA,NA,NA,NA,NA,NA,NA,NA,NA,NA,NA,NA,NA,NA,NA,NA,NA,NA,NA,NA,NA
SUPAMT79316,3PPTZCWALWJZ9L583P3LB4MKPBEQZP,435F63EE-4702-4969-825C-24318A60E398,2023-09-29_04h40.43.429,WP_VExplicitOC_HL,2022.2.5,Win32,9.172544739,33.92568659,3.8047,2.0898,NA,NA,NA,NA,NA,frustrated,"frustrated, not frustrated","more frustrated, less frustrated",NA,NA,NA,NA,NA,NA,NA,NA,NA,NA,NA,NA,NA,NA,NA,0,1,1,1,1,NA,NA,NA,NA,NA,NA,NA,NA,NA,NA,NA,NA,NA,NA,NA,NA,NA,NA,NA,NA,NA,NA,NA,NA,NA,NA,NA,NA
SUPAMT79316,3PPTZCWALWJZ9L583P3LB4MKPBEQZP,435F63EE-4702-4969-825C-24318A60E398,2023-09-29_04h40.43.429,WP_VExplicitOC_HL,2022.2.5,Win32,9.172544739,-43.6187399,3.3819,2.0224,NA,NA,NA,NA,NA,happy,"unhappy, happy","less happy, more happy",NA,NA,NA,NA,NA,NA,NA,NA,NA,NA,NA,NA,NA,NA,NA,0,2,2,0,1,NA,NA,NA,NA,NA,NA,NA,NA,NA,NA,NA,NA,NA,NA,NA,NA,NA,NA,NA,NA,NA,NA,NA,NA,NA,NA,NA,NA
SUPAMT79316,3PPTZCWALWJZ9L583P3LB4MKPBEQZP,435F63EE-4702-4969-825C-24318A60E398,2023-09-29_04h40.43.429,WP_VExplicitOC_HL,2022.2.5,Win32,9.172544739,NA,NA,NA,NA,NA,NA,NA,NA,NA,NA,NA,NA,NA,NA,NA,NA,NA,NA,NA,NA,NA,NA,NA,NA,NA,NA,NA,NA,NA,NA,NA,5,0,5,0,1,NA,NA,NA,NA,NA,NA,NA,NA,NA,NA,NA,NA,NA,NA,NA,NA,NA,NA,NA,NA,NA,NA,NA
SUPAMT79316,3PPTZCWALWJZ9L583P3LB4MKPBEQZP,435F63EE-4702-4969-825C-24318A60E398,2023-09-29_04h40.43.429,WP_VExplicitOC_HL,2022.2.5,Win32,9.172544739,NA,NA,2.0789,NA,NA,NA,NA,NA,frustrated,"frustrated, not frustrated","more frustrated, less frustrated",NA,NA,NA,NA,NA,NA,NA,NA,NA,NA,NA,NA,NA,NA,NA,0,0,0,1,1,NA,NA,NA,NA,NA,NA,NA,NA,NA,NA,NA,NA,NA,NA,NA,NA,NA,NA,NA,NA,NA,NA,NA,NA,NA,NA,NA,NA
SUPAMT79316,3PPTZCWALWJZ9L583P3LB4MKPBEQZP,435F63EE-4702-4969-825C-24318A60E398,2023-09-29_04h40.43.429,WP_VExplicitOC_HL,2022.2.5,Win32,9.172544739,51.37318255,5.1405,2.0364,NA,NA,NA,NA,NA,bored,"bored, not bored","more bored, less bored",NA,NA,NA,NA,NA,NA,NA,NA,NA,NA,NA,NA,NA,NA,NA,0,1,1,2,1,NA,NA,NA,NA,NA,NA,NA,NA,NA,NA,NA,NA,NA,NA,NA,NA,NA,NA,NA,NA,NA,NA,NA,NA,NA,NA,NA,NA
SUPAMT79316,3PPTZCWALWJZ9L583P3LB4MKPBEQZP,435F63EE-4702-4969-825C-24318A60E398,2023-09-29_04h40.43.429,WP_VExplicitOC_HL,2022.2.5,Win32,9.172544739,-42.64943457,3.8618,2.0973,NA,NA,NA,NA,NA,happy,"unhappy, happy","less happy, more happy",NA,NA,NA,NA,NA,NA,NA,NA,NA,NA,NA,NA,NA,NA,NA,0,2,2,0,1,NA,NA,NA,NA,NA,NA,NA,NA,NA,NA,NA,NA,NA,NA,NA,NA,NA,NA,NA,NA,NA,NA,NA,NA,NA,NA,NA,NA
SUPAMT79316,3PPTZCWALWJZ9L583P3LB4MKPBEQZP,435F63EE-4702-4969-825C-24318A60E398,2023-09-29_04h40.43.429,WP_VExplicitOC_HL,2022.2.5,Win32,9.172544739,NA,NA,NA,NA,NA,NA,NA,NA,NA,NA,NA,NA,NA,NA,NA,NA,NA,NA,NA,NA,NA,NA,NA,NA,NA,NA,NA,NA,NA,NA,NA,6,0,6,0,1,NA,NA,NA,NA,NA,NA,NA,NA,NA,NA,NA,NA,NA,NA,NA,NA,NA,NA,NA,NA,NA,NA,NA
SUPAMT79316,3PPTZCWALWJZ9L583P3LB4MKPBEQZP,435F63EE-4702-4969-825C-24318A60E398,2023-09-29_04h40.43.429,WP_VExplicitOC_HL,2022.2.5,Win32,9.172544739,NA,NA,2.0804,NA,NA,NA,NA,NA,frustrated,"frustrated, not frustrated","more frustrated, less frustrated",NA,NA,NA,NA,NA,NA,NA,NA,NA,NA,NA,NA,NA,NA,NA,0,0,0,1,1,NA,NA,NA,NA,NA,NA,NA,NA,NA,NA,NA,NA,NA,NA,NA,NA,NA,NA,NA,NA,NA,NA,NA,NA,NA,NA,NA,NA
SUPAMT79316,3PPTZCWALWJZ9L583P3LB4MKPBEQZP,435F63EE-4702-4969-825C-24318A60E398,2023-09-29_04h40.43.429,WP_VExplicitOC_HL,2022.2.5,Win32,9.172544739,NA,NA,2.0127,NA,NA,NA,NA,NA,happy,"unhappy, happy","less happy, more happy",NA,NA,NA,NA,NA,NA,NA,NA,NA,NA,NA,NA,NA,NA,NA,0,1,1,0,1,NA,NA,NA,NA,NA,NA,NA,NA,NA,NA,NA,NA,NA,NA,NA,NA,NA,NA,NA,NA,NA,NA,NA,NA,NA,NA,NA,NA
SUPAMT79316,3PPTZCWALWJZ9L583P3LB4MKPBEQZP,435F63EE-4702-4969-825C-24318A60E398,2023-09-29_04h40.43.429,WP_VExplicitOC_HL,2022.2.5,Win32,9.172544739,NA,NA,2.0705,NA,NA,NA,NA,NA,bored,"bored, not bored","more bored, less bored",NA,NA,NA,NA,NA,NA,NA,NA,NA,NA,NA,NA,NA,NA,NA,0,2,2,2,1,NA,NA,NA,NA,NA,NA,NA,NA,NA,NA,NA,NA,NA,NA,NA,NA,NA,NA,NA,NA,NA,NA,NA,NA,NA,NA,NA,NA
SUPAMT79316,3PPTZCWALWJZ9L583P3LB4MKPBEQZP,435F63EE-4702-4969-825C-24318A60E398,2023-09-29_04h40.43.429,WP_VExplicitOC_HL,2022.2.5,Win32,9.172544739,NA,NA,NA,NA,NA,NA,NA,NA,NA,NA,NA,NA,NA,NA,NA,NA,NA,NA,NA,NA,NA,NA,NA,NA,NA,NA,NA,NA,NA,NA,NA,7,0,7,0,1,NA,NA,NA,NA,NA,NA,NA,NA,NA,NA,NA,NA,NA,NA,NA,NA,NA,NA,NA,NA,NA,NA,NA
SUPAMT79316,3PPTZCWALWJZ9L583P3LB4MKPBEQZP,435F63EE-4702-4969-825C-24318A60E398,2023-09-29_04h40.43.429,WP_VExplicitOC_HL,2022.2.5,Win32,9.172544739,48.46526656,5.1131,2.1072,NA,NA,NA,NA,NA,frustrated,"frustrated, not frustrated","more frustrated, less frustrated",NA,NA,NA,NA,NA,NA,NA,NA,NA,NA,NA,NA,NA,NA,NA,0,0,0,1,1,NA,NA,NA,NA,NA,NA,NA,NA,NA,NA,NA,NA,NA,NA,NA,NA,NA,NA,NA,NA,NA,NA,NA,NA,NA,NA,NA,NA
SUPAMT79316,3PPTZCWALWJZ9L583P3LB4MKPBEQZP,435F63EE-4702-4969-825C-24318A60E398,2023-09-29_04h40.43.429,WP_VExplicitOC_HL,2022.2.5,Win32,9.172544739,70.75928918,6.0567,2.0552,NA,NA,NA,NA,NA,bored,"bored, not bored","more bored, less bored",NA,NA,NA,NA,NA,NA,NA,NA,NA,NA,NA,NA,NA,NA,NA,0,1,1,2,1,NA,NA,NA,NA,NA,NA,NA,NA,NA,NA,NA,NA,NA,NA,NA,NA,NA,NA,NA,NA,NA,NA,NA,NA,NA,NA,NA,NA
SUPAMT79316,3PPTZCWALWJZ9L583P3LB4MKPBEQZP,435F63EE-4702-4969-825C-24318A60E398,2023-09-29_04h40.43.429,WP_VExplicitOC_HL,2022.2.5,Win32,9.172544739,70.75928918,3.6089,2.0019,NA,NA,NA,NA,NA,happy,"unhappy, happy","less happy, more happy",NA,NA,NA,NA,NA,NA,NA,NA,NA,NA,NA,NA,NA,NA,NA,0,2,2,0,1,NA,NA,NA,NA,NA,NA,NA,NA,NA,NA,NA,NA,NA,NA,NA,NA,NA,NA,NA,NA,NA,NA,NA,NA,NA,NA,NA,NA
SUPAMT79316,3PPTZCWALWJZ9L583P3LB4MKPBEQZP,435F63EE-4702-4969-825C-24318A60E398,2023-09-29_04h40.43.429,WP_VExplicitOC_HL,2022.2.5,Win32,9.172544739,NA,NA,NA,NA,NA,NA,NA,NA,NA,NA,NA,NA,NA,NA,NA,NA,NA,NA,NA,NA,NA,NA,NA,NA,NA,NA,NA,NA,NA,NA,NA,8,0,8,0,1,NA,NA,NA,NA,NA,NA,NA,NA,NA,NA,NA,NA,NA,NA,NA,NA,NA,NA,NA,NA,NA,NA,NA
SUPAMT79316,3PPTZCWALWJZ9L583P3LB4MKPBEQZP,435F63EE-4702-4969-825C-24318A60E398,2023-09-29_04h40.43.429,WP_VExplicitOC_HL,2022.2.5,Win32,9.172544739,NA,NA,2.0854,NA,NA,NA,NA,NA,frustrated,"frustrated, not frustrated","more frustrated, less frustrated",NA,NA,NA,NA,NA,NA,NA,NA,NA,NA,NA,NA,NA,NA,NA,0,0,0,1,1,NA,NA,NA,NA,NA,NA,NA,NA,NA,NA,NA,NA,NA,NA,NA,NA,NA,NA,NA,NA,NA,NA,NA,NA,NA,NA,NA,NA
SUPAMT79316,3PPTZCWALWJZ9L583P3LB4MKPBEQZP,435F63EE-4702-4969-825C-24318A60E398,2023-09-29_04h40.43.429,WP_VExplicitOC_HL,2022.2.5,Win32,9.172544739,NA,NA,2.1071,NA,NA,NA,NA,NA,happy,"unhappy, happy","less happy, more happy",NA,NA,NA,NA,NA,NA,NA,NA,NA,NA,NA,NA,NA,NA,NA,0,1,1,0,1,NA,NA,NA,NA,NA,NA,NA,NA,NA,NA,NA,NA,NA,NA,NA,NA,NA,NA,NA,NA,NA,NA,NA,NA,NA,NA,NA,NA
SUPAMT79316,3PPTZCWALWJZ9L583P3LB4MKPBEQZP,435F63EE-4702-4969-825C-24318A60E398,2023-09-29_04h40.43.429,WP_VExplicitOC_HL,2022.2.5,Win32,9.172544739,NA,NA,2.097,NA,NA,NA,NA,NA,bored,"bored, not bored","more bored, less bored",NA,NA,NA,NA,NA,NA,NA,NA,NA,NA,NA,NA,NA,NA,NA,0,2,2,2,1,NA,NA,NA,NA,NA,NA,NA,NA,NA,NA,NA,NA,NA,NA,NA,NA,NA,NA,NA,NA,NA,NA,NA,NA,NA,NA,NA,NA
SUPAMT79316,3PPTZCWALWJZ9L583P3LB4MKPBEQZP,435F63EE-4702-4969-825C-24318A60E398,2023-09-29_04h40.43.429,WP_VExplicitOC_HL,2022.2.5,Win32,9.172544739,NA,NA,NA,NA,NA,NA,NA,NA,NA,NA,NA,NA,NA,NA,NA,NA,NA,NA,NA,NA,NA,NA,NA,NA,NA,NA,NA,NA,NA,NA,NA,9,0,9,0,1,NA,NA,NA,NA,NA,NA,NA,NA,NA,NA,NA,NA,NA,NA,NA,NA,NA,NA,NA,NA,NA,NA,NA
SUPAMT79316,3PPTZCWALWJZ9L583P3LB4MKPBEQZP,435F63EE-4702-4969-825C-24318A60E398,2023-09-29_04h40.43.429,WP_VExplicitOC_HL,2022.2.5,Win32,9.172544739,48.78836834,6.7669,2.1061,NA,NA,NA,NA,NA,bored,"bored, not bored","more bored, less bored",NA,NA,NA,NA,NA,NA,NA,NA,NA,NA,NA,NA,NA,NA,NA,0,0,0,2,1,NA,NA,NA,NA,NA,NA,NA,NA,NA,NA,NA,NA,NA,NA,NA,NA,NA,NA,NA,NA,NA,NA,NA,NA,NA,NA,NA,NA
SUPAMT79316,3PPTZCWALWJZ9L583P3LB4MKPBEQZP,435F63EE-4702-4969-825C-24318A60E398,2023-09-29_04h40.43.429,WP_VExplicitOC_HL,2022.2.5,Win32,9.172544739,62.35864297,3.9583,2.0307,NA,NA,NA,NA,NA,frustrated,"frustrated, not frustrated","more frustrated, less frustrated",NA,NA,NA,NA,NA,NA,NA,NA,NA,NA,NA,NA,NA,NA,NA,0,1,1,1,1,NA,NA,NA,NA,NA,NA,NA,NA,NA,NA,NA,NA,NA,NA,NA,NA,NA,NA,NA,NA,NA,NA,NA,NA,NA,NA,NA,NA
SUPAMT79316,3PPTZCWALWJZ9L583P3LB4MKPBEQZP,435F63EE-4702-4969-825C-24318A60E398,2023-09-29_04h40.43.429,WP_VExplicitOC_HL,2022.2.5,Win32,9.172544739,-62.35864297,3.6877,2.0167,NA,NA,NA,NA,NA,happy,"unhappy, happy","less happy, more happy",NA,NA,NA,NA,NA,NA,NA,NA,NA,NA,NA,NA,NA,NA,NA,0,2,2,0,1,NA,NA,NA,NA,NA,NA,NA,NA,NA,NA,NA,NA,NA,NA,NA,NA,NA,NA,NA,NA,NA,NA,NA,NA,NA,NA,NA,NA
SUPAMT79316,3PPTZCWALWJZ9L583P3LB4MKPBEQZP,435F63EE-4702-4969-825C-24318A60E398,2023-09-29_04h40.43.429,WP_VExplicitOC_HL,2022.2.5,Win32,9.172544739,NA,NA,NA,NA,NA,NA,NA,NA,NA,NA,NA,NA,NA,NA,NA,NA,NA,NA,NA,NA,NA,NA,NA,NA,NA,NA,NA,NA,NA,NA,NA,10,0,10,0,1,NA,NA,NA,NA,NA,NA,NA,NA,NA,NA,NA,NA,NA,NA,NA,NA,NA,NA,NA,NA,NA,NA,NA
SUPAMT79316,3PPTZCWALWJZ9L583P3LB4MKPBEQZP,435F63EE-4702-4969-825C-24318A60E398,2023-09-29_04h40.43.429,WP_VExplicitOC_HL,2022.2.5,Win32,9.172544739,32.95638126,5.0671,2.0157,NA,NA,NA,NA,NA,happy,"unhappy, happy","less happy, more happy",NA,NA,NA,NA,NA,NA,NA,NA,NA,NA,NA,NA,NA,NA,NA,0,0,0,0,1,NA,NA,NA,NA,NA,NA,NA,NA,NA,NA,NA,NA,NA,NA,NA,NA,NA,NA,NA,NA,NA,NA,NA,NA,NA,NA,NA,NA
SUPAMT79316,3PPTZCWALWJZ9L583P3LB4MKPBEQZP,435F63EE-4702-4969-825C-24318A60E398,2023-09-29_04h40.43.429,WP_VExplicitOC_HL,2022.2.5,Win32,9.172544739,37.47980614,6.6191,2.0646,NA,NA,NA,NA,NA,frustrated,"frustrated, not frustrated","more frustrated, less frustrated",NA,NA,NA,NA,NA,NA,NA,NA,NA,NA,NA,NA,NA,NA,NA,0,1,1,1,1,NA,NA,NA,NA,NA,NA,NA,NA,NA,NA,NA,NA,NA,NA,NA,NA,NA,NA,NA,NA,NA,NA,NA,NA,NA,NA,NA,NA
SUPAMT79316,3PPTZCWALWJZ9L583P3LB4MKPBEQZP,435F63EE-4702-4969-825C-24318A60E398,2023-09-29_04h40.43.429,WP_VExplicitOC_HL,2022.2.5,Win32,9.172544739,66.88206785,4.9571,2.0981,NA,NA,NA,NA,NA,bored,"bored, not bored","more bored, less bored",NA,NA,NA,NA,NA,NA,NA,NA,NA,NA,NA,NA,NA,NA,NA,0,2,2,2,1,NA,NA,NA,NA,NA,NA,NA,NA,NA,NA,NA,NA,NA,NA,NA,NA,NA,NA,NA,NA,NA,NA,NA,NA,NA,NA,NA,NA
SUPAMT79316,3PPTZCWALWJZ9L583P3LB4MKPBEQZP,435F63EE-4702-4969-825C-24318A60E398,2023-09-29_04h40.43.429,WP_VExplicitOC_HL,2022.2.5,Win32,9.172544739,NA,NA,NA,NA,NA,NA,NA,NA,NA,NA,NA,NA,NA,NA,NA,NA,NA,NA,NA,NA,NA,NA,NA,NA,NA,NA,NA,NA,NA,NA,NA,11,0,11,0,1,NA,NA,NA,NA,NA,NA,NA,NA,NA,NA,NA,NA,NA,NA,NA,NA,NA,NA,NA,NA,NA,NA,NA
SUPAMT79316,3PPTZCWALWJZ9L583P3LB4MKPBEQZP,435F63EE-4702-4969-825C-24318A60E398,2023-09-29_04h40.43.429,WP_VExplicitOC_HL,2022.2.5,Win32,9.172544739,52.98869144,4.6599,2.0485,NA,NA,NA,NA,NA,happy,"unhappy, happy","less happy, more happy",NA,NA,NA,NA,NA,NA,NA,NA,NA,NA,NA,NA,NA,NA,NA,0,0,0,0,1,NA,NA,NA,NA,NA,NA,NA,NA,NA,NA,NA,NA,NA,NA,NA,NA,NA,NA,NA,NA,NA,NA,NA,NA,NA,NA,NA,NA
SUPAMT79316,3PPTZCWALWJZ9L583P3LB4MKPBEQZP,435F63EE-4702-4969-825C-24318A60E398,2023-09-29_04h40.43.429,WP_VExplicitOC_HL,2022.2.5,Win32,9.172544739,-38.77221325,3.6144,2.0165,NA,NA,NA,NA,NA,bored,"bored, not bored","more bored, less bored",NA,NA,NA,NA,NA,NA,NA,NA,NA,NA,NA,NA,NA,NA,NA,0,1,1,2,1,NA,NA,NA,NA,NA,NA,NA,NA,NA,NA,NA,NA,NA,NA,NA,NA,NA,NA,NA,NA,NA,NA,NA,NA,NA,NA,NA,NA
SUPAMT79316,3PPTZCWALWJZ9L583P3LB4MKPBEQZP,435F63EE-4702-4969-825C-24318A60E398,2023-09-29_04h40.43.429,WP_VExplicitOC_HL,2022.2.5,Win32,9.172544739,-38.77221325,3.1427,2.0591,NA,NA,NA,NA,NA,frustrated,"frustrated, not frustrated","more frustrated, less frustrated",NA,NA,NA,NA,NA,NA,NA,NA,NA,NA,NA,NA,NA,NA,NA,0,2,2,1,1,NA,NA,NA,NA,NA,NA,NA,NA,NA,NA,NA,NA,NA,NA,NA,NA,NA,NA,NA,NA,NA,NA,NA,NA,NA,NA,NA,NA
SUPAMT79316,3PPTZCWALWJZ9L583P3LB4MKPBEQZP,435F63EE-4702-4969-825C-24318A60E398,2023-09-29_04h40.43.429,WP_VExplicitOC_HL,2022.2.5,Win32,9.172544739,NA,NA,NA,NA,NA,NA,NA,NA,NA,NA,NA,NA,NA,NA,NA,NA,NA,NA,NA,NA,NA,NA,NA,NA,NA,NA,NA,NA,NA,NA,NA,12,0,12,0,1,NA,NA,NA,NA,NA,NA,NA,NA,NA,NA,NA,NA,NA,NA,NA,NA,NA,NA,NA,NA,NA,NA,NA
SUPAMT79316,3PPTZCWALWJZ9L583P3LB4MKPBEQZP,435F63EE-4702-4969-825C-24318A60E398,2023-09-29_04h40.43.429,WP_VExplicitOC_HL,2022.2.5,Win32,9.172544739,-38.44911147,5.3015,2.0456,NA,NA,NA,NA,NA,happy,"unhappy, happy","less happy, more happy",NA,NA,NA,NA,NA,NA,NA,NA,NA,NA,NA,NA,NA,NA,NA,0,0,0,0,1,NA,NA,NA,NA,NA,NA,NA,NA,NA,NA,NA,NA,NA,NA,NA,NA,NA,NA,NA,NA,NA,NA,NA,NA,NA,NA,NA,NA
SUPAMT79316,3PPTZCWALWJZ9L583P3LB4MKPBEQZP,435F63EE-4702-4969-825C-24318A60E398,2023-09-29_04h40.43.429,WP_VExplicitOC_HL,2022.2.5,Win32,9.172544739,-48.46526656,4.3543,2.0039,NA,NA,NA,NA,NA,frustrated,"frustrated, not frustrated","more frustrated, less frustrated",NA,NA,NA,NA,NA,NA,NA,NA,NA,NA,NA,NA,NA,NA,NA,0,1,1,1,1,NA,NA,NA,NA,NA,NA,NA,NA,NA,NA,NA,NA,NA,NA,NA,NA,NA,NA,NA,NA,NA,NA,NA,NA,NA,NA,NA,NA
SUPAMT79316,3PPTZCWALWJZ9L583P3LB4MKPBEQZP,435F63EE-4702-4969-825C-24318A60E398,2023-09-29_04h40.43.429,WP_VExplicitOC_HL,2022.2.5,Win32,9.172544739,-57.51211632,3.9266,2.1033,NA,NA,NA,NA,NA,bored,"bored, not bored","more bored, less bored",NA,NA,NA,NA,NA,NA,NA,NA,NA,NA,NA,NA,NA,NA,NA,0,2,2,2,1,NA,NA,NA,NA,NA,NA,NA,NA,NA,NA,NA,NA,NA,NA,NA,NA,NA,NA,NA,NA,NA,NA,NA,NA,NA,NA,NA,NA
SUPAMT79316,3PPTZCWALWJZ9L583P3LB4MKPBEQZP,435F63EE-4702-4969-825C-24318A60E398,2023-09-29_04h40.43.429,WP_VExplicitOC_HL,2022.2.5,Win32,9.172544739,NA,NA,NA,NA,NA,NA,NA,NA,NA,NA,NA,NA,NA,NA,NA,NA,NA,NA,NA,NA,NA,NA,NA,NA,NA,NA,NA,NA,NA,NA,NA,13,0,13,0,1,NA,NA,NA,NA,NA,NA,NA,NA,NA,NA,NA,NA,NA,NA,NA,NA,NA,NA,NA,NA,NA,NA,NA
SUPAMT79316,3PPTZCWALWJZ9L583P3LB4MKPBEQZP,435F63EE-4702-4969-825C-24318A60E398,2023-09-29_04h40.43.429,WP_VExplicitOC_HL,2022.2.5,Win32,9.172544739,36.18739903,3.8438,2.0685,NA,NA,NA,NA,NA,happy,"unhappy, happy","less happy, more happy",NA,NA,NA,NA,NA,NA,NA,NA,NA,NA,NA,NA,NA,NA,NA,0,0,0,0,1,NA,NA,NA,NA,NA,NA,NA,NA,NA,NA,NA,NA,NA,NA,NA,NA,NA,NA,NA,NA,NA,NA,NA,NA,NA,NA,NA,NA
SUPAMT79316,3PPTZCWALWJZ9L583P3LB4MKPBEQZP,435F63EE-4702-4969-825C-24318A60E398,2023-09-29_04h40.43.429,WP_VExplicitOC_HL,2022.2.5,Win32,9.172544739,-40.38772213,4.4957,2.0166,NA,NA,NA,NA,NA,bored,"bored, not bored","more bored, less bored",NA,NA,NA,NA,NA,NA,NA,NA,NA,NA,NA,NA,NA,NA,NA,0,1,1,2,1,NA,NA,NA,NA,NA,NA,NA,NA,NA,NA,NA,NA,NA,NA,NA,NA,NA,NA,NA,NA,NA,NA,NA,NA,NA,NA,NA,NA
SUPAMT79316,3PPTZCWALWJZ9L583P3LB4MKPBEQZP,435F63EE-4702-4969-825C-24318A60E398,2023-09-29_04h40.43.429,WP_VExplicitOC_HL,2022.2.5,Win32,9.172544739,34.57189015,5.2289,2.0459,NA,NA,NA,NA,NA,frustrated,"frustrated, not frustrated","more frustrated, less frustrated",NA,NA,NA,NA,NA,NA,NA,NA,NA,NA,NA,NA,NA,NA,NA,0,2,2,1,1,NA,NA,NA,NA,NA,NA,NA,NA,NA,NA,NA,NA,NA,NA,NA,NA,NA,NA,NA,NA,NA,NA,NA,NA,NA,NA,NA,NA
SUPAMT79316,3PPTZCWALWJZ9L583P3LB4MKPBEQZP,435F63EE-4702-4969-825C-24318A60E398,2023-09-29_04h40.43.429,WP_VExplicitOC_HL,2022.2.5,Win32,9.172544739,NA,NA,NA,NA,NA,NA,NA,NA,NA,NA,NA,NA,NA,NA,NA,NA,NA,NA,NA,NA,NA,NA,NA,NA,NA,NA,NA,NA,NA,NA,NA,14,0,14,0,1,NA,NA,NA,NA,NA,NA,NA,NA,NA,NA,NA,NA,NA,NA,NA,NA,NA,NA,NA,NA,NA,NA,NA
SUPAMT79316,3PPTZCWALWJZ9L583P3LB4MKPBEQZP,435F63EE-4702-4969-825C-24318A60E398,2023-09-29_04h40.43.429,WP_VExplicitOC_HL,2022.2.5,Win32,9.172544739,NA,NA,NA,NA,NA,NA,NA,NA,NA,NA,NA,NA,NA,NA,NA,NA,NA,NA,NA,NA,NA,NA,NA,NA,NA,NA,NA,NA,NA,NA,NA,NA,NA,NA,NA,NA,NA,NA,NA,NA,NA,NA,NA,NA,NA,NA,NA,NA,NA,NA,NA,NA,NA,NA,NA,NA,NA,NA,NA
SUPAMT79316,3PPTZCWALWJZ9L583P3LB4MKPBEQZP,435F63EE-4702-4969-825C-24318A60E398,2023-09-29_04h40.43.429,WP_VExplicitOC_HL,2022.2.5,Win32,9.172544739,NA,NA,NA,NA,NA,NA,NA,NA,NA,NA,NA,NA,NA,NA,NA,NA,NA,NA,NA,NA,NA,NA,NA,NA,NA,NA,NA,NA,NA,NA,NA,NA,NA,NA,NA,NA,NA,NA,NA,NA,NA,NA,NA,NA,NA,NA,NA,NA,NA,NA,NA,NA,NA,NA,NA,NA,NA,NA,NA
SUPAMT79316,3PPTZCWALWJZ9L583P3LB4MKPBEQZP,435F63EE-4702-4969-825C-24318A60E398,2023-09-29_04h40.43.429,WP_VExplicitOC_HL,2022.2.5,Win32,9.172544739,NA,NA,NA,NA,NA,NA,NA,NA,NA,NA,NA,NA,NA,NA,NA,NA,NA,NA,rest (looking at a fixed cross),001.png,NA,NA,NA,NA,NA,NA,NA,NA,NA,NA,NA,NA,NA,NA,NA,NA,58.15831987,3.3857,0,0,0,0,1,NA,NA,NA,NA,NA,NA,NA,NA,NA,NA,NA,NA,NA,NA,NA,NA
SUPAMT79316,3PPTZCWALWJZ9L583P3LB4MKPBEQZP,435F63EE-4702-4969-825C-24318A60E398,2023-09-29_04h40.43.429,WP_VExplicitOC_HL,2022.2.5,Win32,9.172544739,NA,NA,NA,NA,NA,NA,NA,NA,NA,NA,NA,NA,NA,NA,NA,NA,NA,NA,stand up,002.png,NA,NA,NA,NA,NA,NA,NA,NA,NA,NA,NA,NA,NA,NA,NA,NA,-39.74151858,2.2093,0,1,1,1,1,NA,NA,NA,NA,NA,NA,NA,NA,NA,NA,NA,NA,NA,NA,NA,NA
SUPAMT79316,3PPTZCWALWJZ9L583P3LB4MKPBEQZP,435F63EE-4702-4969-825C-24318A60E398,2023-09-29_04h40.43.429,WP_VExplicitOC_HL,2022.2.5,Win32,9.172544739,NA,NA,NA,NA,NA,NA,NA,NA,NA,NA,NA,NA,NA,NA,NA,NA,NA,NA,stretch,003.png,NA,NA,NA,NA,NA,NA,NA,NA,NA,NA,NA,NA,NA,NA,NA,NA,40.06462036,1.7427,0,2,2,2,1,NA,NA,NA,NA,NA,NA,NA,NA,NA,NA,NA,NA,NA,NA,NA,NA
SUPAMT79316,3PPTZCWALWJZ9L583P3LB4MKPBEQZP,435F63EE-4702-4969-825C-24318A60E398,2023-09-29_04h40.43.429,WP_VExplicitOC_HL,2022.2.5,Win32,9.172544739,NA,NA,NA,NA,NA,NA,NA,NA,NA,NA,NA,NA,NA,NA,NA,NA,NA,NA,make a drink,004.png,NA,NA,NA,NA,NA,NA,NA,NA,NA,NA,NA,NA,NA,NA,NA,NA,41.68012924,1.5545,0,3,3,3,1,NA,NA,NA,NA,NA,NA,NA,NA,NA,NA,NA,NA,NA,NA,NA,NA
SUPAMT79316,3PPTZCWALWJZ9L583P3LB4MKPBEQZP,435F63EE-4702-4969-825C-24318A60E398,2023-09-29_04h40.43.429,WP_VExplicitOC_HL,2022.2.5,Win32,9.172544739,NA,NA,NA,NA,NA,NA,NA,NA,NA,NA,NA,NA,NA,NA,NA,NA,NA,NA,scroll social media,005.png,NA,NA,NA,NA,NA,NA,NA,NA,NA,NA,NA,NA,NA,NA,NA,NA,41.35702746,1.5387,0,4,4,4,1,NA,NA,NA,NA,NA,NA,NA,NA,NA,NA,NA,NA,NA,NA,NA,NA
SUPAMT79316,3PPTZCWALWJZ9L583P3LB4MKPBEQZP,435F63EE-4702-4969-825C-24318A60E398,2023-09-29_04h40.43.429,WP_VExplicitOC_HL,2022.2.5,Win32,9.172544739,NA,NA,NA,NA,NA,NA,NA,NA,NA,NA,NA,NA,NA,NA,NA,NA,NA,NA,listen to music,006.png,NA,NA,NA,NA,NA,NA,NA,NA,NA,NA,NA,NA,NA,NA,NA,NA,48.14216478,1.5633,0,5,5,5,1,NA,NA,NA,NA,NA,NA,NA,NA,NA,NA,NA,NA,NA,NA,NA,NA
SUPAMT79316,3PPTZCWALWJZ9L583P3LB4MKPBEQZP,435F63EE-4702-4969-825C-24318A60E398,2023-09-29_04h40.43.429,WP_VExplicitOC_HL,2022.2.5,Win32,9.172544739,NA,NA,NA,NA,NA,NA,NA,NA,NA,NA,NA,NA,NA,NA,NA,NA,NA,NA,daydream,007.png,NA,NA,NA,NA,NA,NA,NA,NA,NA,NA,NA,NA,NA,NA,NA,NA,42.64943457,1.8836,0,6,6,6,1,NA,NA,NA,NA,NA,NA,NA,NA,NA,NA,NA,NA,NA,NA,NA,NA
SUPAMT79316,3PPTZCWALWJZ9L583P3LB4MKPBEQZP,435F63EE-4702-4969-825C-24318A60E398,2023-09-29_04h40.43.429,WP_VExplicitOC_HL,2022.2.5,Win32,9.172544739,NA,NA,NA,NA,NA,NA,NA,NA,NA,NA,NA,NA,NA,NA,NA,NA,NA,NA,watch a short animation,008.png,NA,NA,NA,NA,NA,NA,NA,NA,NA,NA,NA,NA,NA,NA,NA,NA,54.9273021,2.2123,0,7,7,7,1,NA,NA,NA,NA,NA,NA,NA,NA,NA,NA,NA,NA,NA,NA,NA,NA
SUPAMT79316,3PPTZCWALWJZ9L583P3LB4MKPBEQZP,435F63EE-4702-4969-825C-24318A60E398,2023-09-29_04h40.43.429,WP_VExplicitOC_HL,2022.2.5,Win32,9.172544739,NA,NA,NA,NA,NA,NA,NA,NA,NA,NA,NA,NA,NA,NA,NA,NA,NA,NA,read a novel,009.png,NA,NA,NA,NA,NA,NA,NA,NA,NA,NA,NA,NA,NA,NA,NA,NA,57.83521809,2.004,0,8,8,8,1,NA,NA,NA,NA,NA,NA,NA,NA,NA,NA,NA,NA,NA,NA,NA,NA
SUPAMT79316,3PPTZCWALWJZ9L583P3LB4MKPBEQZP,435F63EE-4702-4969-825C-24318A60E398,2023-09-29_04h40.43.429,WP_VExplicitOC_HL,2022.2.5,Win32,9.172544739,NA,NA,NA,NA,NA,NA,NA,NA,NA,NA,NA,NA,NA,NA,NA,NA,NA,NA,read the news,010.png,NA,NA,NA,NA,NA,NA,NA,NA,NA,NA,NA,NA,NA,NA,NA,NA,48.46526656,1.5656,0,9,9,9,1,NA,NA,NA,NA,NA,NA,NA,NA,NA,NA,NA,NA,NA,NA,NA,NA
SUPAMT79316,3PPTZCWALWJZ9L583P3LB4MKPBEQZP,435F63EE-4702-4969-825C-24318A60E398,2023-09-29_04h40.43.429,WP_VExplicitOC_HL,2022.2.5,Win32,9.172544739,NA,NA,NA,NA,NA,NA,NA,NA,NA,NA,NA,NA,NA,NA,NA,NA,NA,NA,NA,NA,NA,NA,NA,NA,NA,NA,NA,NA,NA,NA,NA,NA,NA,NA,NA,NA,NA,NA,NA,NA,NA,NA,NA,stand up,NA,NA,NA,NA,NA,NA,NA,NA,NA,NA,NA,NA,NA,NA,NA
SUPAMT79316,3PPTZCWALWJZ9L583P3LB4MKPBEQZP,435F63EE-4702-4969-825C-24318A60E398,2023-09-29_04h40.43.429,WP_VExplicitOC_HL,2022.2.5,Win32,9.172544739,-51.37318255,3.9156,2.062,NA,NA,NA,NA,NA,frustrated,"frustrated, not frustrated","more frustrated, less frustrated",NA,NA,NA,NA,NA,NA,NA,NA,NA,NA,NA,NA,NA,NA,NA,NA,NA,NA,NA,NA,NA,NA,NA,NA,NA,NA,NA,NA,NA,NA,NA,NA,NA,0,0,0,1,1,NA,NA,NA,NA,NA,NA,NA,NA,NA,NA
SUPAMT79316,3PPTZCWALWJZ9L583P3LB4MKPBEQZP,435F63EE-4702-4969-825C-24318A60E398,2023-09-29_04h40.43.429,WP_VExplicitOC_HL,2022.2.5,Win32,9.172544739,21.97092084,3.7629,2.0844,NA,NA,NA,NA,NA,happy,"unhappy, happy","less happy, more happy",NA,NA,NA,NA,NA,NA,NA,NA,NA,NA,NA,NA,NA,NA,NA,NA,NA,NA,NA,NA,NA,NA,NA,NA,NA,NA,NA,NA,NA,NA,NA,NA,NA,0,1,1,0,1,NA,NA,NA,NA,NA,NA,NA,NA,NA,NA
SUPAMT79316,3PPTZCWALWJZ9L583P3LB4MKPBEQZP,435F63EE-4702-4969-825C-24318A60E398,2023-09-29_04h40.43.429,WP_VExplicitOC_HL,2022.2.5,Win32,9.172544739,36.51050081,3.771,2.0596,NA,NA,NA,NA,NA,bored,"bored, not bored","more bored, less bored",NA,NA,NA,NA,NA,NA,NA,NA,NA,NA,NA,NA,NA,NA,NA,NA,NA,NA,NA,NA,NA,NA,NA,NA,NA,NA,NA,NA,NA,NA,NA,NA,NA,0,2,2,2,1,NA,NA,NA,NA,NA,NA,NA,NA,NA,NA
SUPAMT79316,3PPTZCWALWJZ9L583P3LB4MKPBEQZP,435F63EE-4702-4969-825C-24318A60E398,2023-09-29_04h40.43.429,WP_VExplicitOC_HL,2022.2.5,Win32,9.172544739,NA,NA,NA,NA,NA,NA,NA,NA,NA,NA,NA,NA,NA,NA,NA,NA,NA,NA,NA,NA,NA,NA,NA,NA,NA,NA,NA,NA,NA,NA,NA,NA,NA,NA,NA,NA,NA,NA,NA,NA,NA,NA,NA,NA,NA,NA,NA,NA,NA,NA,NA,NA,NA,NA,NA,NA,NA,NA,NA
SUPAMT79316,3PPTZCWALWJZ9L583P3LB4MKPBEQZP,435F63EE-4702-4969-825C-24318A60E398,2023-09-29_04h40.43.429,WP_VExplicitOC_HL,2022.2.5,Win32,9.172544739,NA,NA,NA,NA,NA,NA,NA,NA,NA,NA,NA,NA,NA,NA,NA,NA,NA,NA,NA,NA,NA,NA,NA,NA,NA,NA,NA,NA,NA,NA,NA,NA,NA,NA,NA,NA,NA,NA,NA,NA,NA,NA,NA,NA,NA,NA,NA,NA,NA,NA,NA,NA,NA,NA,NA,NA,NA,NA,NA
SUPAMT79316,3PPTZCWALWJZ9L583P3LB4MKPBEQZP,435F63EE-4702-4969-825C-24318A60E398,2023-09-29_04h40.43.429,WP_VExplicitOC_HL,2022.2.5,Win32,9.172544739,25.84814216,4.3187,2.072,NA,NA,NA,NA,NA,frustrated,"frustrated, not frustrated","more frustrated, less frustrated",NA,NA,NA,NA,NA,NA,NA,NA,NA,NA,NA,NA,NA,NA,NA,NA,NA,NA,NA,NA,NA,NA,NA,NA,NA,NA,NA,NA,NA,NA,NA,NA,NA,NA,NA,NA,NA,NA,0,0,0,1,1,NA,NA,NA,NA,NA
SUPAMT79316,3PPTZCWALWJZ9L583P3LB4MKPBEQZP,435F63EE-4702-4969-825C-24318A60E398,2023-09-29_04h40.43.429,WP_VExplicitOC_HL,2022.2.5,Win32,9.172544739,31.0177706,3.457,2.0899,NA,NA,NA,NA,NA,bored,"bored, not bored","more bored, less bored",NA,NA,NA,NA,NA,NA,NA,NA,NA,NA,NA,NA,NA,NA,NA,NA,NA,NA,NA,NA,NA,NA,NA,NA,NA,NA,NA,NA,NA,NA,NA,NA,NA,NA,NA,NA,NA,NA,0,1,1,2,1,NA,NA,NA,NA,NA
SUPAMT79316,3PPTZCWALWJZ9L583P3LB4MKPBEQZP,435F63EE-4702-4969-825C-24318A60E398,2023-09-29_04h40.43.429,WP_VExplicitOC_HL,2022.2.5,Win32,9.172544739,-43.6187399,3.3977,2.059,NA,NA,NA,NA,NA,happy,"unhappy, happy","less happy, more happy",NA,NA,NA,NA,NA,NA,NA,NA,NA,NA,NA,NA,NA,NA,NA,NA,NA,NA,NA,NA,NA,NA,NA,NA,NA,NA,NA,NA,NA,NA,NA,NA,NA,NA,NA,NA,NA,NA,0,2,2,0,1,NA,NA,NA,NA,NA
SUPAMT79316,3PPTZCWALWJZ9L583P3LB4MKPBEQZP,435F63EE-4702-4969-825C-24318A60E398,2023-09-29_04h40.43.429,WP_VExplicitOC_HL,2022.2.5,Win32,9.172544739,NA,NA,NA,NA,NA,NA,NA,NA,NA,NA,NA,NA,NA,NA,NA,NA,NA,NA,NA,NA,NA,NA,NA,NA,NA,NA,NA,NA,NA,NA,NA,NA,NA,NA,NA,NA,NA,NA,NA,NA,NA,NA,NA,NA,NA,NA,NA,NA,NA,NA,NA,NA,NA,NA,0,0,0,0,1
SUPAMT79316,3PPTZCWALWJZ9L583P3LB4MKPBEQZP,435F63EE-4702-4969-825C-24318A60E398,2023-09-29_04h40.43.429,WP_VExplicitOC_HL,2022.2.5,Win32,9.172544739,73.02100162,3.7618,2.0044,NA,NA,NA,NA,NA,bored,"bored, not bored","more bored, less bored",NA,NA,NA,NA,NA,NA,NA,NA,NA,NA,NA,NA,NA,NA,NA,NA,NA,NA,NA,NA,NA,NA,NA,NA,NA,NA,NA,NA,NA,NA,NA,NA,NA,NA,NA,NA,NA,NA,0,0,0,2,1,NA,NA,NA,NA,NA
SUPAMT79316,3PPTZCWALWJZ9L583P3LB4MKPBEQZP,435F63EE-4702-4969-825C-24318A60E398,2023-09-29_04h40.43.429,WP_VExplicitOC_HL,2022.2.5,Win32,9.172544739,-40.38772213,3.6584,2.0932,NA,NA,NA,NA,NA,frustrated,"frustrated, not frustrated","more frustrated, less frustrated",NA,NA,NA,NA,NA,NA,NA,NA,NA,NA,NA,NA,NA,NA,NA,NA,NA,NA,NA,NA,NA,NA,NA,NA,NA,NA,NA,NA,NA,NA,NA,NA,NA,NA,NA,NA,NA,NA,0,1,1,1,1,NA,NA,NA,NA,NA
SUPAMT79316,3PPTZCWALWJZ9L583P3LB4MKPBEQZP,435F63EE-4702-4969-825C-24318A60E398,2023-09-29_04h40.43.429,WP_VExplicitOC_HL,2022.2.5,Win32,9.172544739,36.18739903,3.2401,2.0319,NA,NA,NA,NA,NA,happy,"unhappy, happy","less happy, more happy",NA,NA,NA,NA,NA,NA,NA,NA,NA,NA,NA,NA,NA,NA,NA,NA,NA,NA,NA,NA,NA,NA,NA,NA,NA,NA,NA,NA,NA,NA,NA,NA,NA,NA,NA,NA,NA,NA,0,2,2,0,1,NA,NA,NA,NA,NA
SUPAMT79316,3PPTZCWALWJZ9L583P3LB4MKPBEQZP,435F63EE-4702-4969-825C-24318A60E398,2023-09-29_04h40.43.429,WP_VExplicitOC_HL,2022.2.5,Win32,9.172544739,NA,NA,NA,NA,NA,NA,NA,NA,NA,NA,NA,NA,NA,NA,NA,NA,NA,NA,NA,NA,NA,NA,NA,NA,NA,NA,NA,NA,NA,NA,NA,NA,NA,NA,NA,NA,NA,NA,NA,NA,NA,NA,NA,NA,NA,NA,NA,NA,NA,NA,NA,NA,NA,NA,1,0,1,0,1
SUPAMT79316,3PPTZCWALWJZ9L583P3LB4MKPBEQZP,435F63EE-4702-4969-825C-24318A60E398,2023-09-29_04h40.43.429,WP_VExplicitOC_HL,2022.2.5,Win32,9.172544739,2.907915994,4.3292,2.0704,NA,NA,NA,NA,NA,bored,"bored, not bored","more bored, less bored",NA,NA,NA,NA,NA,NA,NA,NA,NA,NA,NA,NA,NA,NA,NA,NA,NA,NA,NA,NA,NA,NA,NA,NA,NA,NA,NA,NA,NA,NA,NA,NA,NA,NA,NA,NA,NA,NA,0,0,0,2,1,NA,NA,NA,NA,NA
SUPAMT79316,3PPTZCWALWJZ9L583P3LB4MKPBEQZP,435F63EE-4702-4969-825C-24318A60E398,2023-09-29_04h40.43.429,WP_VExplicitOC_HL,2022.2.5,Win32,9.172544739,31.66397415,4.24,2.0537,NA,NA,NA,NA,NA,frustrated,"frustrated, not frustrated","more frustrated, less frustrated",NA,NA,NA,NA,NA,NA,NA,NA,NA,NA,NA,NA,NA,NA,NA,NA,NA,NA,NA,NA,NA,NA,NA,NA,NA,NA,NA,NA,NA,NA,NA,NA,NA,NA,NA,NA,NA,NA,0,1,1,1,1,NA,NA,NA,NA,NA
SUPAMT79316,3PPTZCWALWJZ9L583P3LB4MKPBEQZP,435F63EE-4702-4969-825C-24318A60E398,2023-09-29_04h40.43.429,WP_VExplicitOC_HL,2022.2.5,Win32,9.172544739,38.44911147,3.7113,2.0073,NA,NA,NA,NA,NA,happy,"unhappy, happy","less happy, more happy",NA,NA,NA,NA,NA,NA,NA,NA,NA,NA,NA,NA,NA,NA,NA,NA,NA,NA,NA,NA,NA,NA,NA,NA,NA,NA,NA,NA,NA,NA,NA,NA,NA,NA,NA,NA,NA,NA,0,2,2,0,1,NA,NA,NA,NA,NA
SUPAMT79316,3PPTZCWALWJZ9L583P3LB4MKPBEQZP,435F63EE-4702-4969-825C-24318A60E398,2023-09-29_04h40.43.429,WP_VExplicitOC_HL,2022.2.5,Win32,9.172544739,NA,NA,NA,NA,NA,NA,NA,NA,NA,NA,NA,NA,NA,NA,NA,NA,NA,NA,NA,NA,NA,NA,NA,NA,NA,NA,NA,NA,NA,NA,NA,NA,NA,NA,NA,NA,NA,NA,NA,NA,NA,NA,NA,NA,NA,NA,NA,NA,NA,NA,NA,NA,NA,NA,2,0,2,0,1
SUPAMT79316,3PPTZCWALWJZ9L583P3LB4MKPBEQZP,435F63EE-4702-4969-825C-24318A60E398,2023-09-29_04h40.43.429,WP_VExplicitOC_HL,2022.2.5,Win32,9.172544739,42.32633279,4.5819,2.0013,NA,NA,NA,NA,NA,bored,"bored, not bored","more bored, less bored",NA,NA,NA,NA,NA,NA,NA,NA,NA,NA,NA,NA,NA,NA,NA,NA,NA,NA,NA,NA,NA,NA,NA,NA,NA,NA,NA,NA,NA,NA,NA,NA,NA,NA,NA,NA,NA,NA,0,0,0,2,1,NA,NA,NA,NA,NA
SUPAMT79316,3PPTZCWALWJZ9L583P3LB4MKPBEQZP,435F63EE-4702-4969-825C-24318A60E398,2023-09-29_04h40.43.429,WP_VExplicitOC_HL,2022.2.5,Win32,9.172544739,56.86591276,3.9354,2.0213,NA,NA,NA,NA,NA,frustrated,"frustrated, not frustrated","more frustrated, less frustrated",NA,NA,NA,NA,NA,NA,NA,NA,NA,NA,NA,NA,NA,NA,NA,NA,NA,NA,NA,NA,NA,NA,NA,NA,NA,NA,NA,NA,NA,NA,NA,NA,NA,NA,NA,NA,NA,NA,0,1,1,1,1,NA,NA,NA,NA,NA
SUPAMT79316,3PPTZCWALWJZ9L583P3LB4MKPBEQZP,435F63EE-4702-4969-825C-24318A60E398,2023-09-29_04h40.43.429,WP_VExplicitOC_HL,2022.2.5,Win32,9.172544739,-66.2358643,3.6606,2.0578,NA,NA,NA,NA,NA,happy,"unhappy, happy","less happy, more happy",NA,NA,NA,NA,NA,NA,NA,NA,NA,NA,NA,NA,NA,NA,NA,NA,NA,NA,NA,NA,NA,NA,NA,NA,NA,NA,NA,NA,NA,NA,NA,NA,NA,NA,NA,NA,NA,NA,0,2,2,0,1,NA,NA,NA,NA,NA
SUPAMT79316,3PPTZCWALWJZ9L583P3LB4MKPBEQZP,435F63EE-4702-4969-825C-24318A60E398,2023-09-29_04h40.43.429,WP_VExplicitOC_HL,2022.2.5,Win32,9.172544739,NA,NA,NA,NA,NA,NA,NA,NA,NA,NA,NA,NA,NA,NA,NA,NA,NA,NA,NA,NA,NA,NA,NA,NA,NA,NA,NA,NA,NA,NA,NA,NA,NA,NA,NA,NA,NA,NA,NA,NA,NA,NA,NA,NA,NA,NA,NA,NA,NA,NA,NA,NA,NA,NA,3,0,3,0,1
SUPAMT79316,3PPTZCWALWJZ9L583P3LB4MKPBEQZP,435F63EE-4702-4969-825C-24318A60E398,2023-09-29_04h40.43.429,WP_VExplicitOC_HL,2022.2.5,Win32,9.172544739,46.5266559,5.1786,2.0923,NA,NA,NA,NA,NA,happy,"unhappy, happy","less happy, more happy",NA,NA,NA,NA,NA,NA,NA,NA,NA,NA,NA,NA,NA,NA,NA,NA,NA,NA,NA,NA,NA,NA,NA,NA,NA,NA,NA,NA,NA,NA,NA,NA,NA,NA,NA,NA,NA,NA,0,0,0,0,1,NA,NA,NA,NA,NA
SUPAMT79316,3PPTZCWALWJZ9L583P3LB4MKPBEQZP,435F63EE-4702-4969-825C-24318A60E398,2023-09-29_04h40.43.429,WP_VExplicitOC_HL,2022.2.5,Win32,9.172544739,46.5266559,3.1807,2.0022,NA,NA,NA,NA,NA,frustrated,"frustrated, not frustrated","more frustrated, less frustrated",NA,NA,NA,NA,NA,NA,NA,NA,NA,NA,NA,NA,NA,NA,NA,NA,NA,NA,NA,NA,NA,NA,NA,NA,NA,NA,NA,NA,NA,NA,NA,NA,NA,NA,NA,NA,NA,NA,0,1,1,1,1,NA,NA,NA,NA,NA
SUPAMT79316,3PPTZCWALWJZ9L583P3LB4MKPBEQZP,435F63EE-4702-4969-825C-24318A60E398,2023-09-29_04h40.43.429,WP_VExplicitOC_HL,2022.2.5,Win32,9.172544739,46.5266559,3.0915,2.0018,NA,NA,NA,NA,NA,bored,"bored, not bored","more bored, less bored",NA,NA,NA,NA,NA,NA,NA,NA,NA,NA,NA,NA,NA,NA,NA,NA,NA,NA,NA,NA,NA,NA,NA,NA,NA,NA,NA,NA,NA,NA,NA,NA,NA,NA,NA,NA,NA,NA,0,2,2,2,1,NA,NA,NA,NA,NA
SUPAMT79316,3PPTZCWALWJZ9L583P3LB4MKPBEQZP,435F63EE-4702-4969-825C-24318A60E398,2023-09-29_04h40.43.429,WP_VExplicitOC_HL,2022.2.5,Win32,9.172544739,NA,NA,NA,NA,NA,NA,NA,NA,NA,NA,NA,NA,NA,NA,NA,NA,NA,NA,NA,NA,NA,NA,NA,NA,NA,NA,NA,NA,NA,NA,NA,NA,NA,NA,NA,NA,NA,NA,NA,NA,NA,NA,NA,NA,NA,NA,NA,NA,NA,NA,NA,NA,NA,NA,4,0,4,0,1
SUPAMT79316,3PPTZCWALWJZ9L583P3LB4MKPBEQZP,435F63EE-4702-4969-825C-24318A60E398,2023-09-29_04h40.43.429,WP_VExplicitOC_HL,2022.2.5,Win32,9.172544739,46.5266559,4.1171,2.1145,NA,NA,NA,NA,NA,frustrated,"frustrated, not frustrated","more frustrated, less frustrated",NA,NA,NA,NA,NA,NA,NA,NA,NA,NA,NA,NA,NA,NA,NA,NA,NA,NA,NA,NA,NA,NA,NA,NA,NA,NA,NA,NA,NA,NA,NA,NA,NA,NA,NA,NA,NA,NA,0,0,0,1,1,NA,NA,NA,NA,NA
SUPAMT79316,3PPTZCWALWJZ9L583P3LB4MKPBEQZP,435F63EE-4702-4969-825C-24318A60E398,2023-09-29_04h40.43.429,WP_VExplicitOC_HL,2022.2.5,Win32,9.172544739,45.88045234,3.6313,2.0317,NA,NA,NA,NA,NA,bored,"bored, not bored","more bored, less bored",NA,NA,NA,NA,NA,NA,NA,NA,NA,NA,NA,NA,NA,NA,NA,NA,NA,NA,NA,NA,NA,NA,NA,NA,NA,NA,NA,NA,NA,NA,NA,NA,NA,NA,NA,NA,NA,NA,0,1,1,2,1,NA,NA,NA,NA,NA
SUPAMT79316,3PPTZCWALWJZ9L583P3LB4MKPBEQZP,435F63EE-4702-4969-825C-24318A60E398,2023-09-29_04h40.43.429,WP_VExplicitOC_HL,2022.2.5,Win32,9.172544739,45.88045234,3.1105,2.11,NA,NA,NA,NA,NA,happy,"unhappy, happy","less happy, more happy",NA,NA,NA,NA,NA,NA,NA,NA,NA,NA,NA,NA,NA,NA,NA,NA,NA,NA,NA,NA,NA,NA,NA,NA,NA,NA,NA,NA,NA,NA,NA,NA,NA,NA,NA,NA,NA,NA,0,2,2,0,1,NA,NA,NA,NA,NA
SUPAMT79316,3PPTZCWALWJZ9L583P3LB4MKPBEQZP,435F63EE-4702-4969-825C-24318A60E398,2023-09-29_04h40.43.429,WP_VExplicitOC_HL,2022.2.5,Win32,9.172544739,NA,NA,NA,NA,NA,NA,NA,NA,NA,NA,NA,NA,NA,NA,NA,NA,NA,NA,NA,NA,NA,NA,NA,NA,NA,NA,NA,NA,NA,NA,NA,NA,NA,NA,NA,NA,NA,NA,NA,NA,NA,NA,NA,NA,NA,NA,NA,NA,NA,NA,NA,NA,NA,NA,5,0,5,0,1
SUPAMT79316,3PPTZCWALWJZ9L583P3LB4MKPBEQZP,435F63EE-4702-4969-825C-24318A60E398,2023-09-29_04h40.43.429,WP_VExplicitOC_HL,2022.2.5,Win32,9.172544739,36.83360258,4.513,2.0797,NA,NA,NA,NA,NA,frustrated,"frustrated, not frustrated","more frustrated, less frustrated",NA,NA,NA,NA,NA,NA,NA,NA,NA,NA,NA,NA,NA,NA,NA,NA,NA,NA,NA,NA,NA,NA,NA,NA,NA,NA,NA,NA,NA,NA,NA,NA,NA,NA,NA,NA,NA,NA,0,0,0,1,1,NA,NA,NA,NA,NA
SUPAMT79316,3PPTZCWALWJZ9L583P3LB4MKPBEQZP,435F63EE-4702-4969-825C-24318A60E398,2023-09-29_04h40.43.429,WP_VExplicitOC_HL,2022.2.5,Win32,9.172544739,56.21970921,3.6664,2.0867,NA,NA,NA,NA,NA,bored,"bored, not bored","more bored, less bored",NA,NA,NA,NA,NA,NA,NA,NA,NA,NA,NA,NA,NA,NA,NA,NA,NA,NA,NA,NA,NA,NA,NA,NA,NA,NA,NA,NA,NA,NA,NA,NA,NA,NA,NA,NA,NA,NA,0,1,1,2,1,NA,NA,NA,NA,NA
SUPAMT79316,3PPTZCWALWJZ9L583P3LB4MKPBEQZP,435F63EE-4702-4969-825C-24318A60E398,2023-09-29_04h40.43.429,WP_VExplicitOC_HL,2022.2.5,Win32,9.172544739,50.08077544,3.2858,2.105,NA,NA,NA,NA,NA,happy,"unhappy, happy","less happy, more happy",NA,NA,NA,NA,NA,NA,NA,NA,NA,NA,NA,NA,NA,NA,NA,NA,NA,NA,NA,NA,NA,NA,NA,NA,NA,NA,NA,NA,NA,NA,NA,NA,NA,NA,NA,NA,NA,NA,0,2,2,0,1,NA,NA,NA,NA,NA
SUPAMT79316,3PPTZCWALWJZ9L583P3LB4MKPBEQZP,435F63EE-4702-4969-825C-24318A60E398,2023-09-29_04h40.43.429,WP_VExplicitOC_HL,2022.2.5,Win32,9.172544739,NA,NA,NA,NA,NA,NA,NA,NA,NA,NA,NA,NA,NA,NA,NA,NA,NA,NA,NA,NA,NA,NA,NA,NA,NA,NA,NA,NA,NA,NA,NA,NA,NA,NA,NA,NA,NA,NA,NA,NA,NA,NA,NA,NA,NA,NA,NA,NA,NA,NA,NA,NA,NA,NA,6,0,6,0,1
SUPAMT79316,3PPTZCWALWJZ9L583P3LB4MKPBEQZP,435F63EE-4702-4969-825C-24318A60E398,2023-09-29_04h40.43.429,WP_VExplicitOC_HL,2022.2.5,Win32,9.172544739,54.28109855,5.5073,2.0993,NA,NA,NA,NA,NA,frustrated,"frustrated, not frustrated","more frustrated, less frustrated",NA,NA,NA,NA,NA,NA,NA,NA,NA,NA,NA,NA,NA,NA,NA,NA,NA,NA,NA,NA,NA,NA,NA,NA,NA,NA,NA,NA,NA,NA,NA,NA,NA,NA,NA,NA,NA,NA,0,0,0,1,1,NA,NA,NA,NA,NA
SUPAMT79316,3PPTZCWALWJZ9L583P3LB4MKPBEQZP,435F63EE-4702-4969-825C-24318A60E398,2023-09-29_04h40.43.429,WP_VExplicitOC_HL,2022.2.5,Win32,9.172544739,49.75767367,3.2168,2.0469,NA,NA,NA,NA,NA,bored,"bored, not bored","more bored, less bored",NA,NA,NA,NA,NA,NA,NA,NA,NA,NA,NA,NA,NA,NA,NA,NA,NA,NA,NA,NA,NA,NA,NA,NA,NA,NA,NA,NA,NA,NA,NA,NA,NA,NA,NA,NA,NA,NA,0,1,1,2,1,NA,NA,NA,NA,NA
SUPAMT79316,3PPTZCWALWJZ9L583P3LB4MKPBEQZP,435F63EE-4702-4969-825C-24318A60E398,2023-09-29_04h40.43.429,WP_VExplicitOC_HL,2022.2.5,Win32,9.172544739,-22.29402262,3.4952,2.0897,NA,NA,NA,NA,NA,happy,"unhappy, happy","less happy, more happy",NA,NA,NA,NA,NA,NA,NA,NA,NA,NA,NA,NA,NA,NA,NA,NA,NA,NA,NA,NA,NA,NA,NA,NA,NA,NA,NA,NA,NA,NA,NA,NA,NA,NA,NA,NA,NA,NA,0,2,2,0,1,NA,NA,NA,NA,NA
SUPAMT79316,3PPTZCWALWJZ9L583P3LB4MKPBEQZP,435F63EE-4702-4969-825C-24318A60E398,2023-09-29_04h40.43.429,WP_VExplicitOC_HL,2022.2.5,Win32,9.172544739,NA,NA,NA,NA,NA,NA,NA,NA,NA,NA,NA,NA,NA,NA,NA,NA,NA,NA,NA,NA,NA,NA,NA,NA,NA,NA,NA,NA,NA,NA,NA,NA,NA,NA,NA,NA,NA,NA,NA,NA,NA,NA,NA,NA,NA,NA,NA,NA,NA,NA,NA,NA,NA,NA,7,0,7,0,1
SUPAMT79316,3PPTZCWALWJZ9L583P3LB4MKPBEQZP,435F63EE-4702-4969-825C-24318A60E398,2023-09-29_04h40.43.429,WP_VExplicitOC_HL,2022.2.5,Win32,9.172544739,NA,NA,2.0203,NA,NA,NA,NA,NA,happy,"unhappy, happy","less happy, more happy",NA,NA,NA,NA,NA,NA,NA,NA,NA,NA,NA,NA,NA,NA,NA,NA,NA,NA,NA,NA,NA,NA,NA,NA,NA,NA,NA,NA,NA,NA,NA,NA,NA,NA,NA,NA,NA,NA,0,0,0,0,1,NA,NA,NA,NA,NA
SUPAMT79316,3PPTZCWALWJZ9L583P3LB4MKPBEQZP,435F63EE-4702-4969-825C-24318A60E398,2023-09-29_04h40.43.429,WP_VExplicitOC_HL,2022.2.5,Win32,9.172544739,NA,NA,2.025,NA,NA,NA,NA,NA,frustrated,"frustrated, not frustrated","more frustrated, less frustrated",NA,NA,NA,NA,NA,NA,NA,NA,NA,NA,NA,NA,NA,NA,NA,NA,NA,NA,NA,NA,NA,NA,NA,NA,NA,NA,NA,NA,NA,NA,NA,NA,NA,NA,NA,NA,NA,NA,0,1,1,1,1,NA,NA,NA,NA,NA
SUPAMT79316,3PPTZCWALWJZ9L583P3LB4MKPBEQZP,435F63EE-4702-4969-825C-24318A60E398,2023-09-29_04h40.43.429,WP_VExplicitOC_HL,2022.2.5,Win32,9.172544739,NA,NA,2.0612,NA,NA,NA,NA,NA,bored,"bored, not bored","more bored, less bored",NA,NA,NA,NA,NA,NA,NA,NA,NA,NA,NA,NA,NA,NA,NA,NA,NA,NA,NA,NA,NA,NA,NA,NA,NA,NA,NA,NA,NA,NA,NA,NA,NA,NA,NA,NA,NA,NA,0,2,2,2,1,NA,NA,NA,NA,NA
SUPAMT79316,3PPTZCWALWJZ9L583P3LB4MKPBEQZP,435F63EE-4702-4969-825C-24318A60E398,2023-09-29_04h40.43.429,WP_VExplicitOC_HL,2022.2.5,Win32,9.172544739,NA,NA,NA,NA,NA,NA,NA,NA,NA,NA,NA,NA,NA,NA,NA,NA,NA,NA,NA,NA,NA,NA,NA,NA,NA,NA,NA,NA,NA,NA,NA,NA,NA,NA,NA,NA,NA,NA,NA,NA,NA,NA,NA,NA,NA,NA,NA,NA,NA,NA,NA,NA,NA,NA,8,0,8,0,1
SUPAMT79316,3PPTZCWALWJZ9L583P3LB4MKPBEQZP,435F63EE-4702-4969-825C-24318A60E398,2023-09-29_04h40.43.429,WP_VExplicitOC_HL,2022.2.5,Win32,9.172544739,19.7092084,3.9682,2.0184,NA,NA,NA,NA,NA,happy,"unhappy, happy","less happy, more happy",NA,NA,NA,NA,NA,NA,NA,NA,NA,NA,NA,NA,NA,NA,NA,NA,NA,NA,NA,NA,NA,NA,NA,NA,NA,NA,NA,NA,NA,NA,NA,NA,NA,NA,NA,NA,NA,NA,0,0,0,0,1,NA,NA,NA,NA,NA
SUPAMT79316,3PPTZCWALWJZ9L583P3LB4MKPBEQZP,435F63EE-4702-4969-825C-24318A60E398,2023-09-29_04h40.43.429,WP_VExplicitOC_HL,2022.2.5,Win32,9.172544739,42.64943457,4.2287,2.0021,NA,NA,NA,NA,NA,bored,"bored, not bored","more bored, less bored",NA,NA,NA,NA,NA,NA,NA,NA,NA,NA,NA,NA,NA,NA,NA,NA,NA,NA,NA,NA,NA,NA,NA,NA,NA,NA,NA,NA,NA,NA,NA,NA,NA,NA,NA,NA,NA,NA,0,1,1,2,1,NA,NA,NA,NA,NA
SUPAMT79316,3PPTZCWALWJZ9L583P3LB4MKPBEQZP,435F63EE-4702-4969-825C-24318A60E398,2023-09-29_04h40.43.429,WP_VExplicitOC_HL,2022.2.5,Win32,9.172544739,37.15670436,4.5916,2.0462,NA,NA,NA,NA,NA,frustrated,"frustrated, not frustrated","more frustrated, less frustrated",NA,NA,NA,NA,NA,NA,NA,NA,NA,NA,NA,NA,NA,NA,NA,NA,NA,NA,NA,NA,NA,NA,NA,NA,NA,NA,NA,NA,NA,NA,NA,NA,NA,NA,NA,NA,NA,NA,0,2,2,1,1,NA,NA,NA,NA,NA
SUPAMT79316,3PPTZCWALWJZ9L583P3LB4MKPBEQZP,435F63EE-4702-4969-825C-24318A60E398,2023-09-29_04h40.43.429,WP_VExplicitOC_HL,2022.2.5,Win32,9.172544739,NA,NA,NA,NA,NA,NA,NA,NA,NA,NA,NA,NA,NA,NA,NA,NA,NA,NA,NA,NA,NA,NA,NA,NA,NA,NA,NA,NA,NA,NA,NA,NA,NA,NA,NA,NA,NA,NA,NA,NA,NA,NA,NA,NA,NA,NA,NA,NA,NA,NA,NA,NA,NA,NA,9,0,9,0,1
SUPAMT79316,3PPTZCWALWJZ9L583P3LB4MKPBEQZP,435F63EE-4702-4969-825C-24318A60E398,2023-09-29_04h40.43.429,WP_VExplicitOC_HL,2022.2.5,Win32,9.172544739,41.35702746,3.7453,2.0574,NA,NA,NA,NA,NA,frustrated,"frustrated, not frustrated","more frustrated, less frustrated",NA,NA,NA,NA,NA,NA,NA,NA,NA,NA,NA,NA,NA,NA,NA,NA,NA,NA,NA,NA,NA,NA,NA,NA,NA,NA,NA,NA,NA,NA,NA,NA,NA,NA,NA,NA,NA,NA,0,0,0,1,1,NA,NA,NA,NA,NA
SUPAMT79316,3PPTZCWALWJZ9L583P3LB4MKPBEQZP,435F63EE-4702-4969-825C-24318A60E398,2023-09-29_04h40.43.429,WP_VExplicitOC_HL,2022.2.5,Win32,9.172544739,-29.07915994,4.3122,2.0806,NA,NA,NA,NA,NA,bored,"bored, not bored","more bored, less bored",NA,NA,NA,NA,NA,NA,NA,NA,NA,NA,NA,NA,NA,NA,NA,NA,NA,NA,NA,NA,NA,NA,NA,NA,NA,NA,NA,NA,NA,NA,NA,NA,NA,NA,NA,NA,NA,NA,0,1,1,2,1,NA,NA,NA,NA,NA
SUPAMT79316,3PPTZCWALWJZ9L583P3LB4MKPBEQZP,435F63EE-4702-4969-825C-24318A60E398,2023-09-29_04h40.43.429,WP_VExplicitOC_HL,2022.2.5,Win32,9.172544739,48.14216478,3.5496,2.0726,NA,NA,NA,NA,NA,happy,"unhappy, happy","less happy, more happy",NA,NA,NA,NA,NA,NA,NA,NA,NA,NA,NA,NA,NA,NA,NA,NA,NA,NA,NA,NA,NA,NA,NA,NA,NA,NA,NA,NA,NA,NA,NA,NA,NA,NA,NA,NA,NA,NA,0,2,2,0,1,NA,NA,NA,NA,NA
SUPAMT79316,3PPTZCWALWJZ9L583P3LB4MKPBEQZP,435F63EE-4702-4969-825C-24318A60E398,2023-09-29_04h40.43.429,WP_VExplicitOC_HL,2022.2.5,Win32,9.172544739,NA,NA,NA,NA,NA,NA,NA,NA,NA,NA,NA,NA,NA,NA,NA,NA,NA,NA,NA,NA,NA,NA,NA,NA,NA,NA,NA,NA,NA,NA,NA,NA,NA,NA,NA,NA,NA,NA,NA,NA,NA,NA,NA,NA,NA,NA,NA,NA,NA,NA,NA,NA,NA,NA,10,0,10,0,1
SUPAMT79316,3PPTZCWALWJZ9L583P3LB4MKPBEQZP,435F63EE-4702-4969-825C-24318A60E398,2023-09-29_04h40.43.429,WP_VExplicitOC_HL,2022.2.5,Win32,9.172544739,28.43295638,4.0222,2.0742,NA,NA,NA,NA,NA,bored,"bored, not bored","more bored, less bored",NA,NA,NA,NA,NA,NA,NA,NA,NA,NA,NA,NA,NA,NA,NA,NA,NA,NA,NA,NA,NA,NA,NA,NA,NA,NA,NA,NA,NA,NA,NA,NA,NA,NA,NA,NA,NA,NA,0,0,0,2,1,NA,NA,NA,NA,NA
SUPAMT79316,3PPTZCWALWJZ9L583P3LB4MKPBEQZP,435F63EE-4702-4969-825C-24318A60E398,2023-09-29_04h40.43.429,WP_VExplicitOC_HL,2022.2.5,Win32,9.172544739,35.86429725,4.4291,2.0287,NA,NA,NA,NA,NA,happy,"unhappy, happy","less happy, more happy",NA,NA,NA,NA,NA,NA,NA,NA,NA,NA,NA,NA,NA,NA,NA,NA,NA,NA,NA,NA,NA,NA,NA,NA,NA,NA,NA,NA,NA,NA,NA,NA,NA,NA,NA,NA,NA,NA,0,1,1,0,1,NA,NA,NA,NA,NA
SUPAMT79316,3PPTZCWALWJZ9L583P3LB4MKPBEQZP,435F63EE-4702-4969-825C-24318A60E398,2023-09-29_04h40.43.429,WP_VExplicitOC_HL,2022.2.5,Win32,9.172544739,-32.63327948,3.7323,2.1181,NA,NA,NA,NA,NA,frustrated,"frustrated, not frustrated","more frustrated, less frustrated",NA,NA,NA,NA,NA,NA,NA,NA,NA,NA,NA,NA,NA,NA,NA,NA,NA,NA,NA,NA,NA,NA,NA,NA,NA,NA,NA,NA,NA,NA,NA,NA,NA,NA,NA,NA,NA,NA,0,2,2,1,1,NA,NA,NA,NA,NA
SUPAMT79316,3PPTZCWALWJZ9L583P3LB4MKPBEQZP,435F63EE-4702-4969-825C-24318A60E398,2023-09-29_04h40.43.429,WP_VExplicitOC_HL,2022.2.5,Win32,9.172544739,NA,NA,NA,NA,NA,NA,NA,NA,NA,NA,NA,NA,NA,NA,NA,NA,NA,NA,NA,NA,NA,NA,NA,NA,NA,NA,NA,NA,NA,NA,NA,NA,NA,NA,NA,NA,NA,NA,NA,NA,NA,NA,NA,NA,NA,NA,NA,NA,NA,NA,NA,NA,NA,NA,11,0,11,0,1
SUPAMT79316,3PPTZCWALWJZ9L583P3LB4MKPBEQZP,435F63EE-4702-4969-825C-24318A60E398,2023-09-29_04h40.43.429,WP_VExplicitOC_HL,2022.2.5,Win32,9.172544739,25.84814216,4.0714,2.0483,NA,NA,NA,NA,NA,bored,"bored, not bored","more bored, less bored",NA,NA,NA,NA,NA,NA,NA,NA,NA,NA,NA,NA,NA,NA,NA,NA,NA,NA,NA,NA,NA,NA,NA,NA,NA,NA,NA,NA,NA,NA,NA,NA,NA,NA,NA,NA,NA,NA,0,0,0,2,1,NA,NA,NA,NA,NA
SUPAMT79316,3PPTZCWALWJZ9L583P3LB4MKPBEQZP,435F63EE-4702-4969-825C-24318A60E398,2023-09-29_04h40.43.429,WP_VExplicitOC_HL,2022.2.5,Win32,9.172544739,27.14054927,4.1095,2.0128,NA,NA,NA,NA,NA,frustrated,"frustrated, not frustrated","more frustrated, less frustrated",NA,NA,NA,NA,NA,NA,NA,NA,NA,NA,NA,NA,NA,NA,NA,NA,NA,NA,NA,NA,NA,NA,NA,NA,NA,NA,NA,NA,NA,NA,NA,NA,NA,NA,NA,NA,NA,NA,0,1,1,1,1,NA,NA,NA,NA,NA
SUPAMT79316,3PPTZCWALWJZ9L583P3LB4MKPBEQZP,435F63EE-4702-4969-825C-24318A60E398,2023-09-29_04h40.43.429,WP_VExplicitOC_HL,2022.2.5,Win32,9.172544739,-42.97253635,4.827,2.0515,NA,NA,NA,NA,NA,happy,"unhappy, happy","less happy, more happy",NA,NA,NA,NA,NA,NA,NA,NA,NA,NA,NA,NA,NA,NA,NA,NA,NA,NA,NA,NA,NA,NA,NA,NA,NA,NA,NA,NA,NA,NA,NA,NA,NA,NA,NA,NA,NA,NA,0,2,2,0,1,NA,NA,NA,NA,NA
SUPAMT79316,3PPTZCWALWJZ9L583P3LB4MKPBEQZP,435F63EE-4702-4969-825C-24318A60E398,2023-09-29_04h40.43.429,WP_VExplicitOC_HL,2022.2.5,Win32,9.172544739,NA,NA,NA,NA,NA,NA,NA,NA,NA,NA,NA,NA,NA,NA,NA,NA,NA,NA,NA,NA,NA,NA,NA,NA,NA,NA,NA,NA,NA,NA,NA,NA,NA,NA,NA,NA,NA,NA,NA,NA,NA,NA,NA,NA,NA,NA,NA,NA,NA,NA,NA,NA,NA,NA,12,0,12,0,1
SUPAMT79316,3PPTZCWALWJZ9L583P3LB4MKPBEQZP,435F63EE-4702-4969-825C-24318A60E398,2023-09-29_04h40.43.429,WP_VExplicitOC_HL,2022.2.5,Win32,9.172544739,54.9273021,4.1109,2.0483,NA,NA,NA,NA,NA,frustrated,"frustrated, not frustrated","more frustrated, less frustrated",NA,NA,NA,NA,NA,NA,NA,NA,NA,NA,NA,NA,NA,NA,NA,NA,NA,NA,NA,NA,NA,NA,NA,NA,NA,NA,NA,NA,NA,NA,NA,NA,NA,NA,NA,NA,NA,NA,0,0,0,1,1,NA,NA,NA,NA,NA
SUPAMT79316,3PPTZCWALWJZ9L583P3LB4MKPBEQZP,435F63EE-4702-4969-825C-24318A60E398,2023-09-29_04h40.43.429,WP_VExplicitOC_HL,2022.2.5,Win32,9.172544739,54.9273021,3.5025,2.0143,NA,NA,NA,NA,NA,bored,"bored, not bored","more bored, less bored",NA,NA,NA,NA,NA,NA,NA,NA,NA,NA,NA,NA,NA,NA,NA,NA,NA,NA,NA,NA,NA,NA,NA,NA,NA,NA,NA,NA,NA,NA,NA,NA,NA,NA,NA,NA,NA,NA,0,1,1,2,1,NA,NA,NA,NA,NA
SUPAMT79316,3PPTZCWALWJZ9L583P3LB4MKPBEQZP,435F63EE-4702-4969-825C-24318A60E398,2023-09-29_04h40.43.429,WP_VExplicitOC_HL,2022.2.5,Win32,9.172544739,54.9273021,3.4116,2.0933,NA,NA,NA,NA,NA,happy,"unhappy, happy","less happy, more happy",NA,NA,NA,NA,NA,NA,NA,NA,NA,NA,NA,NA,NA,NA,NA,NA,NA,NA,NA,NA,NA,NA,NA,NA,NA,NA,NA,NA,NA,NA,NA,NA,NA,NA,NA,NA,NA,NA,0,2,2,0,1,NA,NA,NA,NA,NA
SUPAMT79316,3PPTZCWALWJZ9L583P3LB4MKPBEQZP,435F63EE-4702-4969-825C-24318A60E398,2023-09-29_04h40.43.429,WP_VExplicitOC_HL,2022.2.5,Win32,9.172544739,NA,NA,NA,NA,NA,NA,NA,NA,NA,NA,NA,NA,NA,NA,NA,NA,NA,NA,NA,NA,NA,NA,NA,NA,NA,NA,NA,NA,NA,NA,NA,NA,NA,NA,NA,NA,NA,NA,NA,NA,NA,NA,NA,NA,NA,NA,NA,NA,NA,NA,NA,NA,NA,NA,13,0,13,0,1
SUPAMT79316,3PPTZCWALWJZ9L583P3LB4MKPBEQZP,435F63EE-4702-4969-825C-24318A60E398,2023-09-29_04h40.43.429,WP_VExplicitOC_HL,2022.2.5,Win32,9.172544739,46.84975767,4.2113,2.0069,NA,NA,NA,NA,NA,bored,"bored, not bored","more bored, less bored",NA,NA,NA,NA,NA,NA,NA,NA,NA,NA,NA,NA,NA,NA,NA,NA,NA,NA,NA,NA,NA,NA,NA,NA,NA,NA,NA,NA,NA,NA,NA,NA,NA,NA,NA,NA,NA,NA,0,0,0,2,1,NA,NA,NA,NA,NA
SUPAMT79316,3PPTZCWALWJZ9L583P3LB4MKPBEQZP,435F63EE-4702-4969-825C-24318A60E398,2023-09-29_04h40.43.429,WP_VExplicitOC_HL,2022.2.5,Win32,9.172544739,-42.64943457,3.2591,2.1085,NA,NA,NA,NA,NA,happy,"unhappy, happy","less happy, more happy",NA,NA,NA,NA,NA,NA,NA,NA,NA,NA,NA,NA,NA,NA,NA,NA,NA,NA,NA,NA,NA,NA,NA,NA,NA,NA,NA,NA,NA,NA,NA,NA,NA,NA,NA,NA,NA,NA,0,1,1,0,1,NA,NA,NA,NA,NA
SUPAMT79316,3PPTZCWALWJZ9L583P3LB4MKPBEQZP,435F63EE-4702-4969-825C-24318A60E398,2023-09-29_04h40.43.429,WP_VExplicitOC_HL,2022.2.5,Win32,9.172544739,38.77221325,3.1667,2.0405,NA,NA,NA,NA,NA,frustrated,"frustrated, not frustrated","more frustrated, less frustrated",NA,NA,NA,NA,NA,NA,NA,NA,NA,NA,NA,NA,NA,NA,NA,NA,NA,NA,NA,NA,NA,NA,NA,NA,NA,NA,NA,NA,NA,NA,NA,NA,NA,NA,NA,NA,NA,NA,0,2,2,1,1,NA,NA,NA,NA,NA
SUPAMT79316,3PPTZCWALWJZ9L583P3LB4MKPBEQZP,435F63EE-4702-4969-825C-24318A60E398,2023-09-29_04h40.43.429,WP_VExplicitOC_HL,2022.2.5,Win32,9.172544739,NA,NA,NA,NA,NA,NA,NA,NA,NA,NA,NA,NA,NA,NA,NA,NA,NA,NA,NA,NA,NA,NA,NA,NA,NA,NA,NA,NA,NA,NA,NA,NA,NA,NA,NA,NA,NA,NA,NA,NA,NA,NA,NA,NA,NA,NA,NA,NA,NA,NA,NA,NA,NA,NA,14,0,14,0,1
SUPAMT79316,3PPTZCWALWJZ9L583P3LB4MKPBEQZP,435F63EE-4702-4969-825C-24318A60E398,2023-09-29_04h40.43.429,WP_VExplicitOC_HL,2022.2.5,Win32,9.172544739,NA,NA,NA,NA,NA,NA,NA,NA,NA,NA,NA,NA,NA,NA,NA,NA,NA,NA,NA,NA,NA,NA,NA,NA,NA,NA,NA,NA,NA,NA,NA,NA,NA,NA,NA,NA,NA,NA,NA,NA,NA,NA,NA,NA,NA,NA,NA,NA,NA,NA,NA,NA,NA,NA,NA,NA,NA,NA,NA
