participant,session,completion,date,expName,psychopyVersion,OS,frameRate,rating_all.response,rating_all.rt,rating_all.tStart,rndRat1.thisRepN,rndRat1.thisTrialN,rndRat1.thisN,rndRat1.thisIndex,rndRat1.ran,Emo,Labs,Labs2,rating_alt.response,rating_alt.rt,AltC.thisRepN,AltC.thisTrialN,AltC.thisN,AltC.thisIndex,AltC.ran,alt_choices,pic_choices,TopAlt_Choice,rndRat2.thisRepN,rndRat2.thisTrialN,rndRat2.thisN,rndRat2.thisIndex,rndRat2.ran,rndRat3.thisRepN,rndRat3.thisTrialN,rndRat3.thisN,rndRat3.thisIndex,rndRat3.ran,trials_FC_H.thisRepN,trials_FC_H.thisTrialN,trials_FC_H.thisN,trials_FC_H.thisIndex,trials_FC_H.ran,rating_alt_2.response,rating_alt_2.rt,AltC2.thisRepN,AltC2.thisTrialN,AltC2.thisN,AltC2.thisIndex,AltC2.ran,BottomAlt_Choice,rndRat4.thisRepN,rndRat4.thisTrialN,rndRat4.thisN,rndRat4.thisIndex,rndRat4.ran,rndRat5.thisRepN,rndRat5.thisTrialN,rndRat5.thisN,rndRat5.thisIndex,rndRat5.ran,trials_FC_L.thisRepN,trials_FC_L.thisTrialN,trials_FC_L.thisN,trials_FC_L.thisIndex,trials_FC_L.ran
SUPAMT09191,33NF62TLXP1NY3298YG2ROML7Y4KJJ,94DD774C-82CF-4AD0-9B52-8D208104714E,2023-09-27_16h32.34.658,WP_VExplicitOC_HL,2022.2.5,Win32,10.50067204,NA,NA,NA,NA,NA,NA,NA,NA,NA,NA,NA,NA,NA,NA,NA,NA,NA,NA,NA,NA,NA,NA,NA,NA,NA,NA,NA,NA,NA,NA,NA,NA,NA,NA,NA,NA,NA,NA,NA,NA,NA,NA,NA,NA,NA,NA,NA,NA,NA,NA,NA,NA,NA,NA,NA,NA,NA,NA,NA
SUPAMT09191,33NF62TLXP1NY3298YG2ROML7Y4KJJ,94DD774C-82CF-4AD0-9B52-8D208104714E,2023-09-27_16h32.34.658,WP_VExplicitOC_HL,2022.2.5,Win32,10.50067204,NA,NA,NA,NA,NA,NA,NA,NA,NA,NA,NA,NA,NA,NA,NA,NA,NA,NA,NA,NA,NA,NA,NA,NA,NA,NA,NA,NA,NA,NA,NA,NA,NA,NA,NA,NA,NA,NA,NA,NA,NA,NA,NA,NA,NA,NA,NA,NA,NA,NA,NA,NA,NA,NA,NA,NA,NA,NA,NA
SUPAMT09191,33NF62TLXP1NY3298YG2ROML7Y4KJJ,94DD774C-82CF-4AD0-9B52-8D208104714E,2023-09-27_16h32.34.658,WP_VExplicitOC_HL,2022.2.5,Win32,10.50067204,NA,NA,NA,NA,NA,NA,NA,NA,NA,NA,NA,NA,NA,NA,NA,NA,NA,NA,NA,NA,NA,NA,NA,NA,NA,NA,NA,NA,NA,NA,NA,NA,NA,NA,NA,NA,NA,NA,NA,NA,NA,NA,NA,NA,NA,NA,NA,NA,NA,NA,NA,NA,NA,NA,NA,NA,NA,NA,NA
SUPAMT09191,33NF62TLXP1NY3298YG2ROML7Y4KJJ,94DD774C-82CF-4AD0-9B52-8D208104714E,2023-09-27_16h32.34.658,WP_VExplicitOC_HL,2022.2.5,Win32,10.50067204,32.03125,3.4241,2.0536,0,0,0,1,1,frustrated,"frustrated, not frustrated","more frustrated, less frustrated",NA,NA,NA,NA,NA,NA,NA,NA,NA,NA,NA,NA,NA,NA,NA,NA,NA,NA,NA,NA,NA,NA,NA,NA,NA,NA,NA,NA,NA,NA,NA,NA,NA,NA,NA,NA,NA,NA,NA,NA,NA,NA,NA,NA,NA,NA,NA,NA
SUPAMT09191,33NF62TLXP1NY3298YG2ROML7Y4KJJ,94DD774C-82CF-4AD0-9B52-8D208104714E,2023-09-27_16h32.34.658,WP_VExplicitOC_HL,2022.2.5,Win32,10.50067204,61.19791667,3.2058,2.0614,0,1,1,0,1,happy,"unhappy, happy","less happy, more happy",NA,NA,NA,NA,NA,NA,NA,NA,NA,NA,NA,NA,NA,NA,NA,NA,NA,NA,NA,NA,NA,NA,NA,NA,NA,NA,NA,NA,NA,NA,NA,NA,NA,NA,NA,NA,NA,NA,NA,NA,NA,NA,NA,NA,NA,NA,NA,NA
SUPAMT09191,33NF62TLXP1NY3298YG2ROML7Y4KJJ,94DD774C-82CF-4AD0-9B52-8D208104714E,2023-09-27_16h32.34.658,WP_VExplicitOC_HL,2022.2.5,Win32,10.50067204,32.29166667,3.2391,2.0175,0,2,2,2,1,bored,"bored, not bored","more bored, less bored",NA,NA,NA,NA,NA,NA,NA,NA,NA,NA,NA,NA,NA,NA,NA,NA,NA,NA,NA,NA,NA,NA,NA,NA,NA,NA,NA,NA,NA,NA,NA,NA,NA,NA,NA,NA,NA,NA,NA,NA,NA,NA,NA,NA,NA,NA,NA,NA
SUPAMT09191,33NF62TLXP1NY3298YG2ROML7Y4KJJ,94DD774C-82CF-4AD0-9B52-8D208104714E,2023-09-27_16h32.34.658,WP_VExplicitOC_HL,2022.2.5,Win32,10.50067204,NA,NA,NA,NA,NA,NA,NA,NA,NA,NA,NA,NA,NA,NA,NA,NA,NA,NA,NA,NA,NA,NA,NA,NA,NA,NA,NA,NA,NA,NA,NA,NA,NA,NA,NA,NA,NA,NA,NA,NA,NA,NA,NA,NA,NA,NA,NA,NA,NA,NA,NA,NA,NA,NA,NA,NA,NA,NA,NA
SUPAMT09191,33NF62TLXP1NY3298YG2ROML7Y4KJJ,94DD774C-82CF-4AD0-9B52-8D208104714E,2023-09-27_16h32.34.658,WP_VExplicitOC_HL,2022.2.5,Win32,10.50067204,NA,NA,NA,NA,NA,NA,NA,NA,NA,NA,NA,NA,NA,NA,NA,NA,NA,NA,NA,NA,NA,NA,NA,NA,NA,NA,NA,NA,NA,NA,NA,NA,NA,NA,NA,NA,NA,NA,NA,NA,NA,NA,NA,NA,NA,NA,NA,NA,NA,NA,NA,NA,NA,NA,NA,NA,NA,NA,NA
SUPAMT09191,33NF62TLXP1NY3298YG2ROML7Y4KJJ,94DD774C-82CF-4AD0-9B52-8D208104714E,2023-09-27_16h32.34.658,WP_VExplicitOC_HL,2022.2.5,Win32,10.50067204,NA,NA,NA,NA,NA,NA,NA,NA,NA,NA,NA,NA,NA,NA,NA,NA,NA,NA,NA,NA,NA,NA,NA,NA,NA,NA,NA,NA,NA,NA,NA,NA,NA,NA,NA,NA,NA,NA,NA,NA,NA,NA,NA,NA,NA,NA,NA,NA,NA,NA,NA,NA,NA,NA,NA,NA,NA,NA,NA
SUPAMT09191,33NF62TLXP1NY3298YG2ROML7Y4KJJ,94DD774C-82CF-4AD0-9B52-8D208104714E,2023-09-27_16h32.34.658,WP_VExplicitOC_HL,2022.2.5,Win32,10.50067204,NA,NA,NA,NA,NA,NA,NA,NA,NA,NA,NA,NA,NA,NA,NA,NA,NA,NA,NA,NA,NA,NA,NA,NA,NA,NA,NA,NA,NA,NA,NA,NA,NA,NA,NA,NA,NA,NA,NA,NA,NA,NA,NA,NA,NA,NA,NA,NA,NA,NA,NA,NA,NA,NA,NA,NA,NA,NA,NA
SUPAMT09191,33NF62TLXP1NY3298YG2ROML7Y4KJJ,94DD774C-82CF-4AD0-9B52-8D208104714E,2023-09-27_16h32.34.658,WP_VExplicitOC_HL,2022.2.5,Win32,10.50067204,NA,NA,NA,NA,NA,NA,NA,NA,NA,NA,NA,58.33333333,2.1147,0,0,0,0,1,rest (looking at a fixed cross),001.png,NA,NA,NA,NA,NA,NA,NA,NA,NA,NA,NA,NA,NA,NA,NA,NA,NA,NA,NA,NA,NA,NA,NA,NA,NA,NA,NA,NA,NA,NA,NA,NA,NA,NA,NA,NA,NA,NA,NA
SUPAMT09191,33NF62TLXP1NY3298YG2ROML7Y4KJJ,94DD774C-82CF-4AD0-9B52-8D208104714E,2023-09-27_16h32.34.658,WP_VExplicitOC_HL,2022.2.5,Win32,10.50067204,NA,NA,NA,NA,NA,NA,NA,NA,NA,NA,NA,95.3125,1.4586,0,1,1,1,1,stand up,002.png,NA,NA,NA,NA,NA,NA,NA,NA,NA,NA,NA,NA,NA,NA,NA,NA,NA,NA,NA,NA,NA,NA,NA,NA,NA,NA,NA,NA,NA,NA,NA,NA,NA,NA,NA,NA,NA,NA,NA
SUPAMT09191,33NF62TLXP1NY3298YG2ROML7Y4KJJ,94DD774C-82CF-4AD0-9B52-8D208104714E,2023-09-27_16h32.34.658,WP_VExplicitOC_HL,2022.2.5,Win32,10.50067204,NA,NA,NA,NA,NA,NA,NA,NA,NA,NA,NA,53.64583333,1.2856,0,2,2,2,1,stretch,003.png,NA,NA,NA,NA,NA,NA,NA,NA,NA,NA,NA,NA,NA,NA,NA,NA,NA,NA,NA,NA,NA,NA,NA,NA,NA,NA,NA,NA,NA,NA,NA,NA,NA,NA,NA,NA,NA,NA,NA
SUPAMT09191,33NF62TLXP1NY3298YG2ROML7Y4KJJ,94DD774C-82CF-4AD0-9B52-8D208104714E,2023-09-27_16h32.34.658,WP_VExplicitOC_HL,2022.2.5,Win32,10.50067204,NA,NA,NA,NA,NA,NA,NA,NA,NA,NA,NA,100,1.0487,0,3,3,3,1,make a drink,004.png,NA,NA,NA,NA,NA,NA,NA,NA,NA,NA,NA,NA,NA,NA,NA,NA,NA,NA,NA,NA,NA,NA,NA,NA,NA,NA,NA,NA,NA,NA,NA,NA,NA,NA,NA,NA,NA,NA,NA
SUPAMT09191,33NF62TLXP1NY3298YG2ROML7Y4KJJ,94DD774C-82CF-4AD0-9B52-8D208104714E,2023-09-27_16h32.34.658,WP_VExplicitOC_HL,2022.2.5,Win32,10.50067204,NA,NA,NA,NA,NA,NA,NA,NA,NA,NA,NA,58.85416667,1.0501,0,4,4,4,1,scroll social media,005.png,NA,NA,NA,NA,NA,NA,NA,NA,NA,NA,NA,NA,NA,NA,NA,NA,NA,NA,NA,NA,NA,NA,NA,NA,NA,NA,NA,NA,NA,NA,NA,NA,NA,NA,NA,NA,NA,NA,NA
SUPAMT09191,33NF62TLXP1NY3298YG2ROML7Y4KJJ,94DD774C-82CF-4AD0-9B52-8D208104714E,2023-09-27_16h32.34.658,WP_VExplicitOC_HL,2022.2.5,Win32,10.50067204,NA,NA,NA,NA,NA,NA,NA,NA,NA,NA,NA,100,1.0776,0,5,5,5,1,listen to music,006.png,NA,NA,NA,NA,NA,NA,NA,NA,NA,NA,NA,NA,NA,NA,NA,NA,NA,NA,NA,NA,NA,NA,NA,NA,NA,NA,NA,NA,NA,NA,NA,NA,NA,NA,NA,NA,NA,NA,NA
SUPAMT09191,33NF62TLXP1NY3298YG2ROML7Y4KJJ,94DD774C-82CF-4AD0-9B52-8D208104714E,2023-09-27_16h32.34.658,WP_VExplicitOC_HL,2022.2.5,Win32,10.50067204,NA,NA,NA,NA,NA,NA,NA,NA,NA,NA,NA,59.89583333,1.0311,0,6,6,6,1,daydream,007.png,NA,NA,NA,NA,NA,NA,NA,NA,NA,NA,NA,NA,NA,NA,NA,NA,NA,NA,NA,NA,NA,NA,NA,NA,NA,NA,NA,NA,NA,NA,NA,NA,NA,NA,NA,NA,NA,NA,NA
SUPAMT09191,33NF62TLXP1NY3298YG2ROML7Y4KJJ,94DD774C-82CF-4AD0-9B52-8D208104714E,2023-09-27_16h32.34.658,WP_VExplicitOC_HL,2022.2.5,Win32,10.50067204,NA,NA,NA,NA,NA,NA,NA,NA,NA,NA,NA,70.3125,1.0248,0,7,7,7,1,watch a short animation,008.png,NA,NA,NA,NA,NA,NA,NA,NA,NA,NA,NA,NA,NA,NA,NA,NA,NA,NA,NA,NA,NA,NA,NA,NA,NA,NA,NA,NA,NA,NA,NA,NA,NA,NA,NA,NA,NA,NA,NA
SUPAMT09191,33NF62TLXP1NY3298YG2ROML7Y4KJJ,94DD774C-82CF-4AD0-9B52-8D208104714E,2023-09-27_16h32.34.658,WP_VExplicitOC_HL,2022.2.5,Win32,10.50067204,NA,NA,NA,NA,NA,NA,NA,NA,NA,NA,NA,71.09375,1.0178,0,8,8,8,1,read a novel,009.png,NA,NA,NA,NA,NA,NA,NA,NA,NA,NA,NA,NA,NA,NA,NA,NA,NA,NA,NA,NA,NA,NA,NA,NA,NA,NA,NA,NA,NA,NA,NA,NA,NA,NA,NA,NA,NA,NA,NA
SUPAMT09191,33NF62TLXP1NY3298YG2ROML7Y4KJJ,94DD774C-82CF-4AD0-9B52-8D208104714E,2023-09-27_16h32.34.658,WP_VExplicitOC_HL,2022.2.5,Win32,10.50067204,NA,NA,NA,NA,NA,NA,NA,NA,NA,NA,NA,91.92708333,0.843,0,9,9,9,1,read the news,010.png,NA,NA,NA,NA,NA,NA,NA,NA,NA,NA,NA,NA,NA,NA,NA,NA,NA,NA,NA,NA,NA,NA,NA,NA,NA,NA,NA,NA,NA,NA,NA,NA,NA,NA,NA,NA,NA,NA,NA
SUPAMT09191,33NF62TLXP1NY3298YG2ROML7Y4KJJ,94DD774C-82CF-4AD0-9B52-8D208104714E,2023-09-27_16h32.34.658,WP_VExplicitOC_HL,2022.2.5,Win32,10.50067204,NA,NA,NA,NA,NA,NA,NA,NA,NA,NA,NA,NA,NA,NA,NA,NA,NA,NA,NA,NA,NA,NA,NA,NA,NA,NA,NA,NA,NA,NA,NA,NA,NA,NA,NA,NA,NA,NA,NA,NA,NA,NA,NA,NA,NA,NA,NA,NA,NA,NA,NA,NA,NA,NA,NA,NA,NA,NA,NA
SUPAMT09191,33NF62TLXP1NY3298YG2ROML7Y4KJJ,94DD774C-82CF-4AD0-9B52-8D208104714E,2023-09-27_16h32.34.658,WP_VExplicitOC_HL,2022.2.5,Win32,10.50067204,NA,NA,NA,NA,NA,NA,NA,NA,NA,NA,NA,NA,NA,NA,NA,NA,NA,NA,NA,NA,make a drink,NA,NA,NA,NA,NA,NA,NA,NA,NA,NA,NA,NA,NA,NA,NA,NA,NA,NA,NA,NA,NA,NA,NA,NA,NA,NA,NA,NA,NA,NA,NA,NA,NA,NA,NA,NA,NA,NA
SUPAMT09191,33NF62TLXP1NY3298YG2ROML7Y4KJJ,94DD774C-82CF-4AD0-9B52-8D208104714E,2023-09-27_16h32.34.658,WP_VExplicitOC_HL,2022.2.5,Win32,10.50067204,69.01041667,3.7051,2.0551,NA,NA,NA,NA,NA,frustrated,"frustrated, not frustrated","more frustrated, less frustrated",NA,NA,NA,NA,NA,NA,NA,NA,NA,NA,0,0,0,1,1,NA,NA,NA,NA,NA,NA,NA,NA,NA,NA,NA,NA,NA,NA,NA,NA,NA,NA,NA,NA,NA,NA,NA,NA,NA,NA,NA,NA,NA,NA,NA,NA,NA
SUPAMT09191,33NF62TLXP1NY3298YG2ROML7Y4KJJ,94DD774C-82CF-4AD0-9B52-8D208104714E,2023-09-27_16h32.34.658,WP_VExplicitOC_HL,2022.2.5,Win32,10.50067204,-70.3125,3.3576,2.0019,NA,NA,NA,NA,NA,bored,"bored, not bored","more bored, less bored",NA,NA,NA,NA,NA,NA,NA,NA,NA,NA,0,1,1,2,1,NA,NA,NA,NA,NA,NA,NA,NA,NA,NA,NA,NA,NA,NA,NA,NA,NA,NA,NA,NA,NA,NA,NA,NA,NA,NA,NA,NA,NA,NA,NA,NA,NA
SUPAMT09191,33NF62TLXP1NY3298YG2ROML7Y4KJJ,94DD774C-82CF-4AD0-9B52-8D208104714E,2023-09-27_16h32.34.658,WP_VExplicitOC_HL,2022.2.5,Win32,10.50067204,-38.28125,3.219,2.0252,NA,NA,NA,NA,NA,happy,"unhappy, happy","less happy, more happy",NA,NA,NA,NA,NA,NA,NA,NA,NA,NA,0,2,2,0,1,NA,NA,NA,NA,NA,NA,NA,NA,NA,NA,NA,NA,NA,NA,NA,NA,NA,NA,NA,NA,NA,NA,NA,NA,NA,NA,NA,NA,NA,NA,NA,NA,NA
SUPAMT09191,33NF62TLXP1NY3298YG2ROML7Y4KJJ,94DD774C-82CF-4AD0-9B52-8D208104714E,2023-09-27_16h32.34.658,WP_VExplicitOC_HL,2022.2.5,Win32,10.50067204,NA,NA,NA,NA,NA,NA,NA,NA,NA,NA,NA,NA,NA,NA,NA,NA,NA,NA,NA,NA,NA,NA,NA,NA,NA,NA,NA,NA,NA,NA,NA,NA,NA,NA,NA,NA,NA,NA,NA,NA,NA,NA,NA,NA,NA,NA,NA,NA,NA,NA,NA,NA,NA,NA,NA,NA,NA,NA,NA
SUPAMT09191,33NF62TLXP1NY3298YG2ROML7Y4KJJ,94DD774C-82CF-4AD0-9B52-8D208104714E,2023-09-27_16h32.34.658,WP_VExplicitOC_HL,2022.2.5,Win32,10.50067204,NA,NA,NA,NA,NA,NA,NA,NA,NA,NA,NA,NA,NA,NA,NA,NA,NA,NA,NA,NA,NA,NA,NA,NA,NA,NA,NA,NA,NA,NA,NA,NA,NA,NA,NA,NA,NA,NA,NA,NA,NA,NA,NA,NA,NA,NA,NA,NA,NA,NA,NA,NA,NA,NA,NA,NA,NA,NA,NA
SUPAMT09191,33NF62TLXP1NY3298YG2ROML7Y4KJJ,94DD774C-82CF-4AD0-9B52-8D208104714E,2023-09-27_16h32.34.658,WP_VExplicitOC_HL,2022.2.5,Win32,10.50067204,72.91666667,3.2332,2.0174,NA,NA,NA,NA,NA,frustrated,"frustrated, not frustrated","more frustrated, less frustrated",NA,NA,NA,NA,NA,NA,NA,NA,NA,NA,NA,NA,NA,NA,NA,0,0,0,1,1,NA,NA,NA,NA,NA,NA,NA,NA,NA,NA,NA,NA,NA,NA,NA,NA,NA,NA,NA,NA,NA,NA,NA,NA,NA,NA,NA,NA
SUPAMT09191,33NF62TLXP1NY3298YG2ROML7Y4KJJ,94DD774C-82CF-4AD0-9B52-8D208104714E,2023-09-27_16h32.34.658,WP_VExplicitOC_HL,2022.2.5,Win32,10.50067204,-50,3.3104,2.0449,NA,NA,NA,NA,NA,happy,"unhappy, happy","less happy, more happy",NA,NA,NA,NA,NA,NA,NA,NA,NA,NA,NA,NA,NA,NA,NA,0,1,1,0,1,NA,NA,NA,NA,NA,NA,NA,NA,NA,NA,NA,NA,NA,NA,NA,NA,NA,NA,NA,NA,NA,NA,NA,NA,NA,NA,NA,NA
SUPAMT09191,33NF62TLXP1NY3298YG2ROML7Y4KJJ,94DD774C-82CF-4AD0-9B52-8D208104714E,2023-09-27_16h32.34.658,WP_VExplicitOC_HL,2022.2.5,Win32,10.50067204,42.44791667,3.1425,2.0079,NA,NA,NA,NA,NA,bored,"bored, not bored","more bored, less bored",NA,NA,NA,NA,NA,NA,NA,NA,NA,NA,NA,NA,NA,NA,NA,0,2,2,2,1,NA,NA,NA,NA,NA,NA,NA,NA,NA,NA,NA,NA,NA,NA,NA,NA,NA,NA,NA,NA,NA,NA,NA,NA,NA,NA,NA,NA
SUPAMT09191,33NF62TLXP1NY3298YG2ROML7Y4KJJ,94DD774C-82CF-4AD0-9B52-8D208104714E,2023-09-27_16h32.34.658,WP_VExplicitOC_HL,2022.2.5,Win32,10.50067204,NA,NA,NA,NA,NA,NA,NA,NA,NA,NA,NA,NA,NA,NA,NA,NA,NA,NA,NA,NA,NA,NA,NA,NA,NA,NA,NA,NA,NA,NA,NA,0,0,0,0,1,NA,NA,NA,NA,NA,NA,NA,NA,NA,NA,NA,NA,NA,NA,NA,NA,NA,NA,NA,NA,NA,NA,NA
SUPAMT09191,33NF62TLXP1NY3298YG2ROML7Y4KJJ,94DD774C-82CF-4AD0-9B52-8D208104714E,2023-09-27_16h32.34.658,WP_VExplicitOC_HL,2022.2.5,Win32,10.50067204,39.58333333,3.388,2.0706,NA,NA,NA,NA,NA,bored,"bored, not bored","more bored, less bored",NA,NA,NA,NA,NA,NA,NA,NA,NA,NA,NA,NA,NA,NA,NA,0,0,0,2,1,NA,NA,NA,NA,NA,NA,NA,NA,NA,NA,NA,NA,NA,NA,NA,NA,NA,NA,NA,NA,NA,NA,NA,NA,NA,NA,NA,NA
SUPAMT09191,33NF62TLXP1NY3298YG2ROML7Y4KJJ,94DD774C-82CF-4AD0-9B52-8D208104714E,2023-09-27_16h32.34.658,WP_VExplicitOC_HL,2022.2.5,Win32,10.50067204,-64.58333333,3.4848,2.0665,NA,NA,NA,NA,NA,frustrated,"frustrated, not frustrated","more frustrated, less frustrated",NA,NA,NA,NA,NA,NA,NA,NA,NA,NA,NA,NA,NA,NA,NA,0,1,1,1,1,NA,NA,NA,NA,NA,NA,NA,NA,NA,NA,NA,NA,NA,NA,NA,NA,NA,NA,NA,NA,NA,NA,NA,NA,NA,NA,NA,NA
SUPAMT09191,33NF62TLXP1NY3298YG2ROML7Y4KJJ,94DD774C-82CF-4AD0-9B52-8D208104714E,2023-09-27_16h32.34.658,WP_VExplicitOC_HL,2022.2.5,Win32,10.50067204,80.20833333,3.4284,2.071,NA,NA,NA,NA,NA,happy,"unhappy, happy","less happy, more happy",NA,NA,NA,NA,NA,NA,NA,NA,NA,NA,NA,NA,NA,NA,NA,0,2,2,0,1,NA,NA,NA,NA,NA,NA,NA,NA,NA,NA,NA,NA,NA,NA,NA,NA,NA,NA,NA,NA,NA,NA,NA,NA,NA,NA,NA,NA
SUPAMT09191,33NF62TLXP1NY3298YG2ROML7Y4KJJ,94DD774C-82CF-4AD0-9B52-8D208104714E,2023-09-27_16h32.34.658,WP_VExplicitOC_HL,2022.2.5,Win32,10.50067204,NA,NA,NA,NA,NA,NA,NA,NA,NA,NA,NA,NA,NA,NA,NA,NA,NA,NA,NA,NA,NA,NA,NA,NA,NA,NA,NA,NA,NA,NA,NA,1,0,1,0,1,NA,NA,NA,NA,NA,NA,NA,NA,NA,NA,NA,NA,NA,NA,NA,NA,NA,NA,NA,NA,NA,NA,NA
SUPAMT09191,33NF62TLXP1NY3298YG2ROML7Y4KJJ,94DD774C-82CF-4AD0-9B52-8D208104714E,2023-09-27_16h32.34.658,WP_VExplicitOC_HL,2022.2.5,Win32,10.50067204,37.5,3.4726,2.0691,NA,NA,NA,NA,NA,frustrated,"frustrated, not frustrated","more frustrated, less frustrated",NA,NA,NA,NA,NA,NA,NA,NA,NA,NA,NA,NA,NA,NA,NA,0,0,0,1,1,NA,NA,NA,NA,NA,NA,NA,NA,NA,NA,NA,NA,NA,NA,NA,NA,NA,NA,NA,NA,NA,NA,NA,NA,NA,NA,NA,NA
SUPAMT09191,33NF62TLXP1NY3298YG2ROML7Y4KJJ,94DD774C-82CF-4AD0-9B52-8D208104714E,2023-09-27_16h32.34.658,WP_VExplicitOC_HL,2022.2.5,Win32,10.50067204,-48.4375,3.3142,2.0295,NA,NA,NA,NA,NA,happy,"unhappy, happy","less happy, more happy",NA,NA,NA,NA,NA,NA,NA,NA,NA,NA,NA,NA,NA,NA,NA,0,1,1,0,1,NA,NA,NA,NA,NA,NA,NA,NA,NA,NA,NA,NA,NA,NA,NA,NA,NA,NA,NA,NA,NA,NA,NA,NA,NA,NA,NA,NA
SUPAMT09191,33NF62TLXP1NY3298YG2ROML7Y4KJJ,94DD774C-82CF-4AD0-9B52-8D208104714E,2023-09-27_16h32.34.658,WP_VExplicitOC_HL,2022.2.5,Win32,10.50067204,58.07291667,3.3712,2.0104,NA,NA,NA,NA,NA,bored,"bored, not bored","more bored, less bored",NA,NA,NA,NA,NA,NA,NA,NA,NA,NA,NA,NA,NA,NA,NA,0,2,2,2,1,NA,NA,NA,NA,NA,NA,NA,NA,NA,NA,NA,NA,NA,NA,NA,NA,NA,NA,NA,NA,NA,NA,NA,NA,NA,NA,NA,NA
SUPAMT09191,33NF62TLXP1NY3298YG2ROML7Y4KJJ,94DD774C-82CF-4AD0-9B52-8D208104714E,2023-09-27_16h32.34.658,WP_VExplicitOC_HL,2022.2.5,Win32,10.50067204,NA,NA,NA,NA,NA,NA,NA,NA,NA,NA,NA,NA,NA,NA,NA,NA,NA,NA,NA,NA,NA,NA,NA,NA,NA,NA,NA,NA,NA,NA,NA,2,0,2,0,1,NA,NA,NA,NA,NA,NA,NA,NA,NA,NA,NA,NA,NA,NA,NA,NA,NA,NA,NA,NA,NA,NA,NA
SUPAMT09191,33NF62TLXP1NY3298YG2ROML7Y4KJJ,94DD774C-82CF-4AD0-9B52-8D208104714E,2023-09-27_16h32.34.658,WP_VExplicitOC_HL,2022.2.5,Win32,10.50067204,-68.48958333,3.4586,2.0724,NA,NA,NA,NA,NA,bored,"bored, not bored","more bored, less bored",NA,NA,NA,NA,NA,NA,NA,NA,NA,NA,NA,NA,NA,NA,NA,0,0,0,2,1,NA,NA,NA,NA,NA,NA,NA,NA,NA,NA,NA,NA,NA,NA,NA,NA,NA,NA,NA,NA,NA,NA,NA,NA,NA,NA,NA,NA
SUPAMT09191,33NF62TLXP1NY3298YG2ROML7Y4KJJ,94DD774C-82CF-4AD0-9B52-8D208104714E,2023-09-27_16h32.34.658,WP_VExplicitOC_HL,2022.2.5,Win32,10.50067204,-53.125,3.5665,2.0367,NA,NA,NA,NA,NA,frustrated,"frustrated, not frustrated","more frustrated, less frustrated",NA,NA,NA,NA,NA,NA,NA,NA,NA,NA,NA,NA,NA,NA,NA,0,1,1,1,1,NA,NA,NA,NA,NA,NA,NA,NA,NA,NA,NA,NA,NA,NA,NA,NA,NA,NA,NA,NA,NA,NA,NA,NA,NA,NA,NA,NA
SUPAMT09191,33NF62TLXP1NY3298YG2ROML7Y4KJJ,94DD774C-82CF-4AD0-9B52-8D208104714E,2023-09-27_16h32.34.658,WP_VExplicitOC_HL,2022.2.5,Win32,10.50067204,73.69791667,3.4562,2.0633,NA,NA,NA,NA,NA,happy,"unhappy, happy","less happy, more happy",NA,NA,NA,NA,NA,NA,NA,NA,NA,NA,NA,NA,NA,NA,NA,0,2,2,0,1,NA,NA,NA,NA,NA,NA,NA,NA,NA,NA,NA,NA,NA,NA,NA,NA,NA,NA,NA,NA,NA,NA,NA,NA,NA,NA,NA,NA
SUPAMT09191,33NF62TLXP1NY3298YG2ROML7Y4KJJ,94DD774C-82CF-4AD0-9B52-8D208104714E,2023-09-27_16h32.34.658,WP_VExplicitOC_HL,2022.2.5,Win32,10.50067204,NA,NA,NA,NA,NA,NA,NA,NA,NA,NA,NA,NA,NA,NA,NA,NA,NA,NA,NA,NA,NA,NA,NA,NA,NA,NA,NA,NA,NA,NA,NA,3,0,3,0,1,NA,NA,NA,NA,NA,NA,NA,NA,NA,NA,NA,NA,NA,NA,NA,NA,NA,NA,NA,NA,NA,NA,NA
SUPAMT09191,33NF62TLXP1NY3298YG2ROML7Y4KJJ,94DD774C-82CF-4AD0-9B52-8D208104714E,2023-09-27_16h32.34.658,WP_VExplicitOC_HL,2022.2.5,Win32,10.50067204,-55.46875,3.5315,2.0862,NA,NA,NA,NA,NA,frustrated,"frustrated, not frustrated","more frustrated, less frustrated",NA,NA,NA,NA,NA,NA,NA,NA,NA,NA,NA,NA,NA,NA,NA,0,0,0,1,1,NA,NA,NA,NA,NA,NA,NA,NA,NA,NA,NA,NA,NA,NA,NA,NA,NA,NA,NA,NA,NA,NA,NA,NA,NA,NA,NA,NA
SUPAMT09191,33NF62TLXP1NY3298YG2ROML7Y4KJJ,94DD774C-82CF-4AD0-9B52-8D208104714E,2023-09-27_16h32.34.658,WP_VExplicitOC_HL,2022.2.5,Win32,10.50067204,38.54166667,3.2708,2.0229,NA,NA,NA,NA,NA,bored,"bored, not bored","more bored, less bored",NA,NA,NA,NA,NA,NA,NA,NA,NA,NA,NA,NA,NA,NA,NA,0,1,1,2,1,NA,NA,NA,NA,NA,NA,NA,NA,NA,NA,NA,NA,NA,NA,NA,NA,NA,NA,NA,NA,NA,NA,NA,NA,NA,NA,NA,NA
SUPAMT09191,33NF62TLXP1NY3298YG2ROML7Y4KJJ,94DD774C-82CF-4AD0-9B52-8D208104714E,2023-09-27_16h32.34.658,WP_VExplicitOC_HL,2022.2.5,Win32,10.50067204,29.16666667,4.3154,2.0646,NA,NA,NA,NA,NA,happy,"unhappy, happy","less happy, more happy",NA,NA,NA,NA,NA,NA,NA,NA,NA,NA,NA,NA,NA,NA,NA,0,2,2,0,1,NA,NA,NA,NA,NA,NA,NA,NA,NA,NA,NA,NA,NA,NA,NA,NA,NA,NA,NA,NA,NA,NA,NA,NA,NA,NA,NA,NA
SUPAMT09191,33NF62TLXP1NY3298YG2ROML7Y4KJJ,94DD774C-82CF-4AD0-9B52-8D208104714E,2023-09-27_16h32.34.658,WP_VExplicitOC_HL,2022.2.5,Win32,10.50067204,NA,NA,NA,NA,NA,NA,NA,NA,NA,NA,NA,NA,NA,NA,NA,NA,NA,NA,NA,NA,NA,NA,NA,NA,NA,NA,NA,NA,NA,NA,NA,4,0,4,0,1,NA,NA,NA,NA,NA,NA,NA,NA,NA,NA,NA,NA,NA,NA,NA,NA,NA,NA,NA,NA,NA,NA,NA
SUPAMT09191,33NF62TLXP1NY3298YG2ROML7Y4KJJ,94DD774C-82CF-4AD0-9B52-8D208104714E,2023-09-27_16h32.34.658,WP_VExplicitOC_HL,2022.2.5,Win32,10.50067204,65.36458333,3.668,2.0873,NA,NA,NA,NA,NA,happy,"unhappy, happy","less happy, more happy",NA,NA,NA,NA,NA,NA,NA,NA,NA,NA,NA,NA,NA,NA,NA,0,0,0,0,1,NA,NA,NA,NA,NA,NA,NA,NA,NA,NA,NA,NA,NA,NA,NA,NA,NA,NA,NA,NA,NA,NA,NA,NA,NA,NA,NA,NA
SUPAMT09191,33NF62TLXP1NY3298YG2ROML7Y4KJJ,94DD774C-82CF-4AD0-9B52-8D208104714E,2023-09-27_16h32.34.658,WP_VExplicitOC_HL,2022.2.5,Win32,10.50067204,75.78125,3.212,2.0268,NA,NA,NA,NA,NA,frustrated,"frustrated, not frustrated","more frustrated, less frustrated",NA,NA,NA,NA,NA,NA,NA,NA,NA,NA,NA,NA,NA,NA,NA,0,1,1,1,1,NA,NA,NA,NA,NA,NA,NA,NA,NA,NA,NA,NA,NA,NA,NA,NA,NA,NA,NA,NA,NA,NA,NA,NA,NA,NA,NA,NA
SUPAMT09191,33NF62TLXP1NY3298YG2ROML7Y4KJJ,94DD774C-82CF-4AD0-9B52-8D208104714E,2023-09-27_16h32.34.658,WP_VExplicitOC_HL,2022.2.5,Win32,10.50067204,-100,3.8199,2.066,NA,NA,NA,NA,NA,bored,"bored, not bored","more bored, less bored",NA,NA,NA,NA,NA,NA,NA,NA,NA,NA,NA,NA,NA,NA,NA,0,2,2,2,1,NA,NA,NA,NA,NA,NA,NA,NA,NA,NA,NA,NA,NA,NA,NA,NA,NA,NA,NA,NA,NA,NA,NA,NA,NA,NA,NA,NA
SUPAMT09191,33NF62TLXP1NY3298YG2ROML7Y4KJJ,94DD774C-82CF-4AD0-9B52-8D208104714E,2023-09-27_16h32.34.658,WP_VExplicitOC_HL,2022.2.5,Win32,10.50067204,NA,NA,NA,NA,NA,NA,NA,NA,NA,NA,NA,NA,NA,NA,NA,NA,NA,NA,NA,NA,NA,NA,NA,NA,NA,NA,NA,NA,NA,NA,NA,5,0,5,0,1,NA,NA,NA,NA,NA,NA,NA,NA,NA,NA,NA,NA,NA,NA,NA,NA,NA,NA,NA,NA,NA,NA,NA
SUPAMT09191,33NF62TLXP1NY3298YG2ROML7Y4KJJ,94DD774C-82CF-4AD0-9B52-8D208104714E,2023-09-27_16h32.34.658,WP_VExplicitOC_HL,2022.2.5,Win32,10.50067204,-76.04166667,3.7056,2.0686,NA,NA,NA,NA,NA,frustrated,"frustrated, not frustrated","more frustrated, less frustrated",NA,NA,NA,NA,NA,NA,NA,NA,NA,NA,NA,NA,NA,NA,NA,0,0,0,1,1,NA,NA,NA,NA,NA,NA,NA,NA,NA,NA,NA,NA,NA,NA,NA,NA,NA,NA,NA,NA,NA,NA,NA,NA,NA,NA,NA,NA
SUPAMT09191,33NF62TLXP1NY3298YG2ROML7Y4KJJ,94DD774C-82CF-4AD0-9B52-8D208104714E,2023-09-27_16h32.34.658,WP_VExplicitOC_HL,2022.2.5,Win32,10.50067204,68.48958333,3.7671,2.0675,NA,NA,NA,NA,NA,happy,"unhappy, happy","less happy, more happy",NA,NA,NA,NA,NA,NA,NA,NA,NA,NA,NA,NA,NA,NA,NA,0,1,1,0,1,NA,NA,NA,NA,NA,NA,NA,NA,NA,NA,NA,NA,NA,NA,NA,NA,NA,NA,NA,NA,NA,NA,NA,NA,NA,NA,NA,NA
SUPAMT09191,33NF62TLXP1NY3298YG2ROML7Y4KJJ,94DD774C-82CF-4AD0-9B52-8D208104714E,2023-09-27_16h32.34.658,WP_VExplicitOC_HL,2022.2.5,Win32,10.50067204,-40.625,3.4778,2.0804,NA,NA,NA,NA,NA,bored,"bored, not bored","more bored, less bored",NA,NA,NA,NA,NA,NA,NA,NA,NA,NA,NA,NA,NA,NA,NA,0,2,2,2,1,NA,NA,NA,NA,NA,NA,NA,NA,NA,NA,NA,NA,NA,NA,NA,NA,NA,NA,NA,NA,NA,NA,NA,NA,NA,NA,NA,NA
SUPAMT09191,33NF62TLXP1NY3298YG2ROML7Y4KJJ,94DD774C-82CF-4AD0-9B52-8D208104714E,2023-09-27_16h32.34.658,WP_VExplicitOC_HL,2022.2.5,Win32,10.50067204,NA,NA,NA,NA,NA,NA,NA,NA,NA,NA,NA,NA,NA,NA,NA,NA,NA,NA,NA,NA,NA,NA,NA,NA,NA,NA,NA,NA,NA,NA,NA,6,0,6,0,1,NA,NA,NA,NA,NA,NA,NA,NA,NA,NA,NA,NA,NA,NA,NA,NA,NA,NA,NA,NA,NA,NA,NA
SUPAMT09191,33NF62TLXP1NY3298YG2ROML7Y4KJJ,94DD774C-82CF-4AD0-9B52-8D208104714E,2023-09-27_16h32.34.658,WP_VExplicitOC_HL,2022.2.5,Win32,10.50067204,-49.47916667,4.0852,2.0386,NA,NA,NA,NA,NA,bored,"bored, not bored","more bored, less bored",NA,NA,NA,NA,NA,NA,NA,NA,NA,NA,NA,NA,NA,NA,NA,0,0,0,2,1,NA,NA,NA,NA,NA,NA,NA,NA,NA,NA,NA,NA,NA,NA,NA,NA,NA,NA,NA,NA,NA,NA,NA,NA,NA,NA,NA,NA
SUPAMT09191,33NF62TLXP1NY3298YG2ROML7Y4KJJ,94DD774C-82CF-4AD0-9B52-8D208104714E,2023-09-27_16h32.34.658,WP_VExplicitOC_HL,2022.2.5,Win32,10.50067204,72.65625,3.8994,2.0036,NA,NA,NA,NA,NA,frustrated,"frustrated, not frustrated","more frustrated, less frustrated",NA,NA,NA,NA,NA,NA,NA,NA,NA,NA,NA,NA,NA,NA,NA,0,1,1,1,1,NA,NA,NA,NA,NA,NA,NA,NA,NA,NA,NA,NA,NA,NA,NA,NA,NA,NA,NA,NA,NA,NA,NA,NA,NA,NA,NA,NA
SUPAMT09191,33NF62TLXP1NY3298YG2ROML7Y4KJJ,94DD774C-82CF-4AD0-9B52-8D208104714E,2023-09-27_16h32.34.658,WP_VExplicitOC_HL,2022.2.5,Win32,10.50067204,54.94791667,3.7786,2.0547,NA,NA,NA,NA,NA,happy,"unhappy, happy","less happy, more happy",NA,NA,NA,NA,NA,NA,NA,NA,NA,NA,NA,NA,NA,NA,NA,0,2,2,0,1,NA,NA,NA,NA,NA,NA,NA,NA,NA,NA,NA,NA,NA,NA,NA,NA,NA,NA,NA,NA,NA,NA,NA,NA,NA,NA,NA,NA
SUPAMT09191,33NF62TLXP1NY3298YG2ROML7Y4KJJ,94DD774C-82CF-4AD0-9B52-8D208104714E,2023-09-27_16h32.34.658,WP_VExplicitOC_HL,2022.2.5,Win32,10.50067204,NA,NA,NA,NA,NA,NA,NA,NA,NA,NA,NA,NA,NA,NA,NA,NA,NA,NA,NA,NA,NA,NA,NA,NA,NA,NA,NA,NA,NA,NA,NA,7,0,7,0,1,NA,NA,NA,NA,NA,NA,NA,NA,NA,NA,NA,NA,NA,NA,NA,NA,NA,NA,NA,NA,NA,NA,NA
SUPAMT09191,33NF62TLXP1NY3298YG2ROML7Y4KJJ,94DD774C-82CF-4AD0-9B52-8D208104714E,2023-09-27_16h32.34.658,WP_VExplicitOC_HL,2022.2.5,Win32,10.50067204,-50.26041667,3.8539,2.0348,NA,NA,NA,NA,NA,frustrated,"frustrated, not frustrated","more frustrated, less frustrated",NA,NA,NA,NA,NA,NA,NA,NA,NA,NA,NA,NA,NA,NA,NA,0,0,0,1,1,NA,NA,NA,NA,NA,NA,NA,NA,NA,NA,NA,NA,NA,NA,NA,NA,NA,NA,NA,NA,NA,NA,NA,NA,NA,NA,NA,NA
SUPAMT09191,33NF62TLXP1NY3298YG2ROML7Y4KJJ,94DD774C-82CF-4AD0-9B52-8D208104714E,2023-09-27_16h32.34.658,WP_VExplicitOC_HL,2022.2.5,Win32,10.50067204,-38.54166667,4.8584,2.0123,NA,NA,NA,NA,NA,bored,"bored, not bored","more bored, less bored",NA,NA,NA,NA,NA,NA,NA,NA,NA,NA,NA,NA,NA,NA,NA,0,1,1,2,1,NA,NA,NA,NA,NA,NA,NA,NA,NA,NA,NA,NA,NA,NA,NA,NA,NA,NA,NA,NA,NA,NA,NA,NA,NA,NA,NA,NA
SUPAMT09191,33NF62TLXP1NY3298YG2ROML7Y4KJJ,94DD774C-82CF-4AD0-9B52-8D208104714E,2023-09-27_16h32.34.658,WP_VExplicitOC_HL,2022.2.5,Win32,10.50067204,47.39583333,3.303,2.0523,NA,NA,NA,NA,NA,happy,"unhappy, happy","less happy, more happy",NA,NA,NA,NA,NA,NA,NA,NA,NA,NA,NA,NA,NA,NA,NA,0,2,2,0,1,NA,NA,NA,NA,NA,NA,NA,NA,NA,NA,NA,NA,NA,NA,NA,NA,NA,NA,NA,NA,NA,NA,NA,NA,NA,NA,NA,NA
SUPAMT09191,33NF62TLXP1NY3298YG2ROML7Y4KJJ,94DD774C-82CF-4AD0-9B52-8D208104714E,2023-09-27_16h32.34.658,WP_VExplicitOC_HL,2022.2.5,Win32,10.50067204,NA,NA,NA,NA,NA,NA,NA,NA,NA,NA,NA,NA,NA,NA,NA,NA,NA,NA,NA,NA,NA,NA,NA,NA,NA,NA,NA,NA,NA,NA,NA,8,0,8,0,1,NA,NA,NA,NA,NA,NA,NA,NA,NA,NA,NA,NA,NA,NA,NA,NA,NA,NA,NA,NA,NA,NA,NA
SUPAMT09191,33NF62TLXP1NY3298YG2ROML7Y4KJJ,94DD774C-82CF-4AD0-9B52-8D208104714E,2023-09-27_16h32.34.658,WP_VExplicitOC_HL,2022.2.5,Win32,10.50067204,-63.28125,3.6761,2.0659,NA,NA,NA,NA,NA,frustrated,"frustrated, not frustrated","more frustrated, less frustrated",NA,NA,NA,NA,NA,NA,NA,NA,NA,NA,NA,NA,NA,NA,NA,0,0,0,1,1,NA,NA,NA,NA,NA,NA,NA,NA,NA,NA,NA,NA,NA,NA,NA,NA,NA,NA,NA,NA,NA,NA,NA,NA,NA,NA,NA,NA
SUPAMT09191,33NF62TLXP1NY3298YG2ROML7Y4KJJ,94DD774C-82CF-4AD0-9B52-8D208104714E,2023-09-27_16h32.34.658,WP_VExplicitOC_HL,2022.2.5,Win32,10.50067204,-39.84375,3.4076,2.0161,NA,NA,NA,NA,NA,bored,"bored, not bored","more bored, less bored",NA,NA,NA,NA,NA,NA,NA,NA,NA,NA,NA,NA,NA,NA,NA,0,1,1,2,1,NA,NA,NA,NA,NA,NA,NA,NA,NA,NA,NA,NA,NA,NA,NA,NA,NA,NA,NA,NA,NA,NA,NA,NA,NA,NA,NA,NA
SUPAMT09191,33NF62TLXP1NY3298YG2ROML7Y4KJJ,94DD774C-82CF-4AD0-9B52-8D208104714E,2023-09-27_16h32.34.658,WP_VExplicitOC_HL,2022.2.5,Win32,10.50067204,62.5,4.2467,2.0686,NA,NA,NA,NA,NA,happy,"unhappy, happy","less happy, more happy",NA,NA,NA,NA,NA,NA,NA,NA,NA,NA,NA,NA,NA,NA,NA,0,2,2,0,1,NA,NA,NA,NA,NA,NA,NA,NA,NA,NA,NA,NA,NA,NA,NA,NA,NA,NA,NA,NA,NA,NA,NA,NA,NA,NA,NA,NA
SUPAMT09191,33NF62TLXP1NY3298YG2ROML7Y4KJJ,94DD774C-82CF-4AD0-9B52-8D208104714E,2023-09-27_16h32.34.658,WP_VExplicitOC_HL,2022.2.5,Win32,10.50067204,NA,NA,NA,NA,NA,NA,NA,NA,NA,NA,NA,NA,NA,NA,NA,NA,NA,NA,NA,NA,NA,NA,NA,NA,NA,NA,NA,NA,NA,NA,NA,9,0,9,0,1,NA,NA,NA,NA,NA,NA,NA,NA,NA,NA,NA,NA,NA,NA,NA,NA,NA,NA,NA,NA,NA,NA,NA
SUPAMT09191,33NF62TLXP1NY3298YG2ROML7Y4KJJ,94DD774C-82CF-4AD0-9B52-8D208104714E,2023-09-27_16h32.34.658,WP_VExplicitOC_HL,2022.2.5,Win32,10.50067204,39.84375,4.0145,2.0661,NA,NA,NA,NA,NA,happy,"unhappy, happy","less happy, more happy",NA,NA,NA,NA,NA,NA,NA,NA,NA,NA,NA,NA,NA,NA,NA,0,0,0,0,1,NA,NA,NA,NA,NA,NA,NA,NA,NA,NA,NA,NA,NA,NA,NA,NA,NA,NA,NA,NA,NA,NA,NA,NA,NA,NA,NA,NA
SUPAMT09191,33NF62TLXP1NY3298YG2ROML7Y4KJJ,94DD774C-82CF-4AD0-9B52-8D208104714E,2023-09-27_16h32.34.658,WP_VExplicitOC_HL,2022.2.5,Win32,10.50067204,-70.83333333,3.6566,2.0817,NA,NA,NA,NA,NA,bored,"bored, not bored","more bored, less bored",NA,NA,NA,NA,NA,NA,NA,NA,NA,NA,NA,NA,NA,NA,NA,0,1,1,2,1,NA,NA,NA,NA,NA,NA,NA,NA,NA,NA,NA,NA,NA,NA,NA,NA,NA,NA,NA,NA,NA,NA,NA,NA,NA,NA,NA,NA
SUPAMT09191,33NF62TLXP1NY3298YG2ROML7Y4KJJ,94DD774C-82CF-4AD0-9B52-8D208104714E,2023-09-27_16h32.34.658,WP_VExplicitOC_HL,2022.2.5,Win32,10.50067204,-76.04166667,3.7441,2.09,NA,NA,NA,NA,NA,frustrated,"frustrated, not frustrated","more frustrated, less frustrated",NA,NA,NA,NA,NA,NA,NA,NA,NA,NA,NA,NA,NA,NA,NA,0,2,2,1,1,NA,NA,NA,NA,NA,NA,NA,NA,NA,NA,NA,NA,NA,NA,NA,NA,NA,NA,NA,NA,NA,NA,NA,NA,NA,NA,NA,NA
SUPAMT09191,33NF62TLXP1NY3298YG2ROML7Y4KJJ,94DD774C-82CF-4AD0-9B52-8D208104714E,2023-09-27_16h32.34.658,WP_VExplicitOC_HL,2022.2.5,Win32,10.50067204,NA,NA,NA,NA,NA,NA,NA,NA,NA,NA,NA,NA,NA,NA,NA,NA,NA,NA,NA,NA,NA,NA,NA,NA,NA,NA,NA,NA,NA,NA,NA,10,0,10,0,1,NA,NA,NA,NA,NA,NA,NA,NA,NA,NA,NA,NA,NA,NA,NA,NA,NA,NA,NA,NA,NA,NA,NA
SUPAMT09191,33NF62TLXP1NY3298YG2ROML7Y4KJJ,94DD774C-82CF-4AD0-9B52-8D208104714E,2023-09-27_16h32.34.658,WP_VExplicitOC_HL,2022.2.5,Win32,10.50067204,-48.95833333,3.8331,2.0704,NA,NA,NA,NA,NA,frustrated,"frustrated, not frustrated","more frustrated, less frustrated",NA,NA,NA,NA,NA,NA,NA,NA,NA,NA,NA,NA,NA,NA,NA,0,0,0,1,1,NA,NA,NA,NA,NA,NA,NA,NA,NA,NA,NA,NA,NA,NA,NA,NA,NA,NA,NA,NA,NA,NA,NA,NA,NA,NA,NA,NA
SUPAMT09191,33NF62TLXP1NY3298YG2ROML7Y4KJJ,94DD774C-82CF-4AD0-9B52-8D208104714E,2023-09-27_16h32.34.658,WP_VExplicitOC_HL,2022.2.5,Win32,10.50067204,86.19791667,3.1283,2.0727,NA,NA,NA,NA,NA,bored,"bored, not bored","more bored, less bored",NA,NA,NA,NA,NA,NA,NA,NA,NA,NA,NA,NA,NA,NA,NA,0,1,1,2,1,NA,NA,NA,NA,NA,NA,NA,NA,NA,NA,NA,NA,NA,NA,NA,NA,NA,NA,NA,NA,NA,NA,NA,NA,NA,NA,NA,NA
SUPAMT09191,33NF62TLXP1NY3298YG2ROML7Y4KJJ,94DD774C-82CF-4AD0-9B52-8D208104714E,2023-09-27_16h32.34.658,WP_VExplicitOC_HL,2022.2.5,Win32,10.50067204,95.57291667,3.9569,2.0565,NA,NA,NA,NA,NA,happy,"unhappy, happy","less happy, more happy",NA,NA,NA,NA,NA,NA,NA,NA,NA,NA,NA,NA,NA,NA,NA,0,2,2,0,1,NA,NA,NA,NA,NA,NA,NA,NA,NA,NA,NA,NA,NA,NA,NA,NA,NA,NA,NA,NA,NA,NA,NA,NA,NA,NA,NA,NA
SUPAMT09191,33NF62TLXP1NY3298YG2ROML7Y4KJJ,94DD774C-82CF-4AD0-9B52-8D208104714E,2023-09-27_16h32.34.658,WP_VExplicitOC_HL,2022.2.5,Win32,10.50067204,NA,NA,NA,NA,NA,NA,NA,NA,NA,NA,NA,NA,NA,NA,NA,NA,NA,NA,NA,NA,NA,NA,NA,NA,NA,NA,NA,NA,NA,NA,NA,11,0,11,0,1,NA,NA,NA,NA,NA,NA,NA,NA,NA,NA,NA,NA,NA,NA,NA,NA,NA,NA,NA,NA,NA,NA,NA
SUPAMT09191,33NF62TLXP1NY3298YG2ROML7Y4KJJ,94DD774C-82CF-4AD0-9B52-8D208104714E,2023-09-27_16h32.34.658,WP_VExplicitOC_HL,2022.2.5,Win32,10.50067204,-64.84375,4.0746,2.1239,NA,NA,NA,NA,NA,bored,"bored, not bored","more bored, less bored",NA,NA,NA,NA,NA,NA,NA,NA,NA,NA,NA,NA,NA,NA,NA,0,0,0,2,1,NA,NA,NA,NA,NA,NA,NA,NA,NA,NA,NA,NA,NA,NA,NA,NA,NA,NA,NA,NA,NA,NA,NA,NA,NA,NA,NA,NA
SUPAMT09191,33NF62TLXP1NY3298YG2ROML7Y4KJJ,94DD774C-82CF-4AD0-9B52-8D208104714E,2023-09-27_16h32.34.658,WP_VExplicitOC_HL,2022.2.5,Win32,10.50067204,-57.03125,3.7142,2.0855,NA,NA,NA,NA,NA,frustrated,"frustrated, not frustrated","more frustrated, less frustrated",NA,NA,NA,NA,NA,NA,NA,NA,NA,NA,NA,NA,NA,NA,NA,0,1,1,1,1,NA,NA,NA,NA,NA,NA,NA,NA,NA,NA,NA,NA,NA,NA,NA,NA,NA,NA,NA,NA,NA,NA,NA,NA,NA,NA,NA,NA
SUPAMT09191,33NF62TLXP1NY3298YG2ROML7Y4KJJ,94DD774C-82CF-4AD0-9B52-8D208104714E,2023-09-27_16h32.34.658,WP_VExplicitOC_HL,2022.2.5,Win32,10.50067204,47.39583333,3.5945,2.0939,NA,NA,NA,NA,NA,happy,"unhappy, happy","less happy, more happy",NA,NA,NA,NA,NA,NA,NA,NA,NA,NA,NA,NA,NA,NA,NA,0,2,2,0,1,NA,NA,NA,NA,NA,NA,NA,NA,NA,NA,NA,NA,NA,NA,NA,NA,NA,NA,NA,NA,NA,NA,NA,NA,NA,NA,NA,NA
SUPAMT09191,33NF62TLXP1NY3298YG2ROML7Y4KJJ,94DD774C-82CF-4AD0-9B52-8D208104714E,2023-09-27_16h32.34.658,WP_VExplicitOC_HL,2022.2.5,Win32,10.50067204,NA,NA,NA,NA,NA,NA,NA,NA,NA,NA,NA,NA,NA,NA,NA,NA,NA,NA,NA,NA,NA,NA,NA,NA,NA,NA,NA,NA,NA,NA,NA,12,0,12,0,1,NA,NA,NA,NA,NA,NA,NA,NA,NA,NA,NA,NA,NA,NA,NA,NA,NA,NA,NA,NA,NA,NA,NA
SUPAMT09191,33NF62TLXP1NY3298YG2ROML7Y4KJJ,94DD774C-82CF-4AD0-9B52-8D208104714E,2023-09-27_16h32.34.658,WP_VExplicitOC_HL,2022.2.5,Win32,10.50067204,54.6875,4.095,2.0165,NA,NA,NA,NA,NA,bored,"bored, not bored","more bored, less bored",NA,NA,NA,NA,NA,NA,NA,NA,NA,NA,NA,NA,NA,NA,NA,0,0,0,2,1,NA,NA,NA,NA,NA,NA,NA,NA,NA,NA,NA,NA,NA,NA,NA,NA,NA,NA,NA,NA,NA,NA,NA,NA,NA,NA,NA,NA
SUPAMT09191,33NF62TLXP1NY3298YG2ROML7Y4KJJ,94DD774C-82CF-4AD0-9B52-8D208104714E,2023-09-27_16h32.34.658,WP_VExplicitOC_HL,2022.2.5,Win32,10.50067204,57.55208333,4.0261,2.0167,NA,NA,NA,NA,NA,frustrated,"frustrated, not frustrated","more frustrated, less frustrated",NA,NA,NA,NA,NA,NA,NA,NA,NA,NA,NA,NA,NA,NA,NA,0,1,1,1,1,NA,NA,NA,NA,NA,NA,NA,NA,NA,NA,NA,NA,NA,NA,NA,NA,NA,NA,NA,NA,NA,NA,NA,NA,NA,NA,NA,NA
SUPAMT09191,33NF62TLXP1NY3298YG2ROML7Y4KJJ,94DD774C-82CF-4AD0-9B52-8D208104714E,2023-09-27_16h32.34.658,WP_VExplicitOC_HL,2022.2.5,Win32,10.50067204,-57.29166667,3.2595,2.0329,NA,NA,NA,NA,NA,happy,"unhappy, happy","less happy, more happy",NA,NA,NA,NA,NA,NA,NA,NA,NA,NA,NA,NA,NA,NA,NA,0,2,2,0,1,NA,NA,NA,NA,NA,NA,NA,NA,NA,NA,NA,NA,NA,NA,NA,NA,NA,NA,NA,NA,NA,NA,NA,NA,NA,NA,NA,NA
SUPAMT09191,33NF62TLXP1NY3298YG2ROML7Y4KJJ,94DD774C-82CF-4AD0-9B52-8D208104714E,2023-09-27_16h32.34.658,WP_VExplicitOC_HL,2022.2.5,Win32,10.50067204,NA,NA,NA,NA,NA,NA,NA,NA,NA,NA,NA,NA,NA,NA,NA,NA,NA,NA,NA,NA,NA,NA,NA,NA,NA,NA,NA,NA,NA,NA,NA,13,0,13,0,1,NA,NA,NA,NA,NA,NA,NA,NA,NA,NA,NA,NA,NA,NA,NA,NA,NA,NA,NA,NA,NA,NA,NA
SUPAMT09191,33NF62TLXP1NY3298YG2ROML7Y4KJJ,94DD774C-82CF-4AD0-9B52-8D208104714E,2023-09-27_16h32.34.658,WP_VExplicitOC_HL,2022.2.5,Win32,10.50067204,54.42708333,3.6328,2.0968,NA,NA,NA,NA,NA,happy,"unhappy, happy","less happy, more happy",NA,NA,NA,NA,NA,NA,NA,NA,NA,NA,NA,NA,NA,NA,NA,0,0,0,0,1,NA,NA,NA,NA,NA,NA,NA,NA,NA,NA,NA,NA,NA,NA,NA,NA,NA,NA,NA,NA,NA,NA,NA,NA,NA,NA,NA,NA
SUPAMT09191,33NF62TLXP1NY3298YG2ROML7Y4KJJ,94DD774C-82CF-4AD0-9B52-8D208104714E,2023-09-27_16h32.34.658,WP_VExplicitOC_HL,2022.2.5,Win32,10.50067204,30.46875,3.9622,2.0019,NA,NA,NA,NA,NA,frustrated,"frustrated, not frustrated","more frustrated, less frustrated",NA,NA,NA,NA,NA,NA,NA,NA,NA,NA,NA,NA,NA,NA,NA,0,1,1,1,1,NA,NA,NA,NA,NA,NA,NA,NA,NA,NA,NA,NA,NA,NA,NA,NA,NA,NA,NA,NA,NA,NA,NA,NA,NA,NA,NA,NA
SUPAMT09191,33NF62TLXP1NY3298YG2ROML7Y4KJJ,94DD774C-82CF-4AD0-9B52-8D208104714E,2023-09-27_16h32.34.658,WP_VExplicitOC_HL,2022.2.5,Win32,10.50067204,-18.22916667,3.6562,2.0448,NA,NA,NA,NA,NA,bored,"bored, not bored","more bored, less bored",NA,NA,NA,NA,NA,NA,NA,NA,NA,NA,NA,NA,NA,NA,NA,0,2,2,2,1,NA,NA,NA,NA,NA,NA,NA,NA,NA,NA,NA,NA,NA,NA,NA,NA,NA,NA,NA,NA,NA,NA,NA,NA,NA,NA,NA,NA
SUPAMT09191,33NF62TLXP1NY3298YG2ROML7Y4KJJ,94DD774C-82CF-4AD0-9B52-8D208104714E,2023-09-27_16h32.34.658,WP_VExplicitOC_HL,2022.2.5,Win32,10.50067204,NA,NA,NA,NA,NA,NA,NA,NA,NA,NA,NA,NA,NA,NA,NA,NA,NA,NA,NA,NA,NA,NA,NA,NA,NA,NA,NA,NA,NA,NA,NA,14,0,14,0,1,NA,NA,NA,NA,NA,NA,NA,NA,NA,NA,NA,NA,NA,NA,NA,NA,NA,NA,NA,NA,NA,NA,NA
SUPAMT09191,33NF62TLXP1NY3298YG2ROML7Y4KJJ,94DD774C-82CF-4AD0-9B52-8D208104714E,2023-09-27_16h32.34.658,WP_VExplicitOC_HL,2022.2.5,Win32,10.50067204,NA,NA,NA,NA,NA,NA,NA,NA,NA,NA,NA,NA,NA,NA,NA,NA,NA,NA,NA,NA,NA,NA,NA,NA,NA,NA,NA,NA,NA,NA,NA,NA,NA,NA,NA,NA,NA,NA,NA,NA,NA,NA,NA,NA,NA,NA,NA,NA,NA,NA,NA,NA,NA,NA,NA,NA,NA,NA,NA
SUPAMT09191,33NF62TLXP1NY3298YG2ROML7Y4KJJ,94DD774C-82CF-4AD0-9B52-8D208104714E,2023-09-27_16h32.34.658,WP_VExplicitOC_HL,2022.2.5,Win32,10.50067204,NA,NA,NA,NA,NA,NA,NA,NA,NA,NA,NA,NA,NA,NA,NA,NA,NA,NA,NA,NA,NA,NA,NA,NA,NA,NA,NA,NA,NA,NA,NA,NA,NA,NA,NA,NA,NA,NA,NA,NA,NA,NA,NA,NA,NA,NA,NA,NA,NA,NA,NA,NA,NA,NA,NA,NA,NA,NA,NA
SUPAMT09191,33NF62TLXP1NY3298YG2ROML7Y4KJJ,94DD774C-82CF-4AD0-9B52-8D208104714E,2023-09-27_16h32.34.658,WP_VExplicitOC_HL,2022.2.5,Win32,10.50067204,NA,NA,NA,NA,NA,NA,NA,NA,NA,NA,NA,NA,NA,NA,NA,NA,NA,NA,rest (looking at a fixed cross),001.png,NA,NA,NA,NA,NA,NA,NA,NA,NA,NA,NA,NA,NA,NA,NA,NA,24.21875,3.2386,0,0,0,0,1,NA,NA,NA,NA,NA,NA,NA,NA,NA,NA,NA,NA,NA,NA,NA,NA
SUPAMT09191,33NF62TLXP1NY3298YG2ROML7Y4KJJ,94DD774C-82CF-4AD0-9B52-8D208104714E,2023-09-27_16h32.34.658,WP_VExplicitOC_HL,2022.2.5,Win32,10.50067204,NA,NA,NA,NA,NA,NA,NA,NA,NA,NA,NA,NA,NA,NA,NA,NA,NA,NA,stand up,002.png,NA,NA,NA,NA,NA,NA,NA,NA,NA,NA,NA,NA,NA,NA,NA,NA,47.39583333,1.563,0,1,1,1,1,NA,NA,NA,NA,NA,NA,NA,NA,NA,NA,NA,NA,NA,NA,NA,NA
SUPAMT09191,33NF62TLXP1NY3298YG2ROML7Y4KJJ,94DD774C-82CF-4AD0-9B52-8D208104714E,2023-09-27_16h32.34.658,WP_VExplicitOC_HL,2022.2.5,Win32,10.50067204,NA,NA,NA,NA,NA,NA,NA,NA,NA,NA,NA,NA,NA,NA,NA,NA,NA,NA,stretch,003.png,NA,NA,NA,NA,NA,NA,NA,NA,NA,NA,NA,NA,NA,NA,NA,NA,17.96875,2.4524,0,2,2,2,1,NA,NA,NA,NA,NA,NA,NA,NA,NA,NA,NA,NA,NA,NA,NA,NA
SUPAMT09191,33NF62TLXP1NY3298YG2ROML7Y4KJJ,94DD774C-82CF-4AD0-9B52-8D208104714E,2023-09-27_16h32.34.658,WP_VExplicitOC_HL,2022.2.5,Win32,10.50067204,NA,NA,NA,NA,NA,NA,NA,NA,NA,NA,NA,NA,NA,NA,NA,NA,NA,NA,make a drink,004.png,NA,NA,NA,NA,NA,NA,NA,NA,NA,NA,NA,NA,NA,NA,NA,NA,50,1.9447,0,3,3,3,1,NA,NA,NA,NA,NA,NA,NA,NA,NA,NA,NA,NA,NA,NA,NA,NA
SUPAMT09191,33NF62TLXP1NY3298YG2ROML7Y4KJJ,94DD774C-82CF-4AD0-9B52-8D208104714E,2023-09-27_16h32.34.658,WP_VExplicitOC_HL,2022.2.5,Win32,10.50067204,NA,NA,NA,NA,NA,NA,NA,NA,NA,NA,NA,NA,NA,NA,NA,NA,NA,NA,scroll social media,005.png,NA,NA,NA,NA,NA,NA,NA,NA,NA,NA,NA,NA,NA,NA,NA,NA,35.9375,1.7887,0,4,4,4,1,NA,NA,NA,NA,NA,NA,NA,NA,NA,NA,NA,NA,NA,NA,NA,NA
SUPAMT09191,33NF62TLXP1NY3298YG2ROML7Y4KJJ,94DD774C-82CF-4AD0-9B52-8D208104714E,2023-09-27_16h32.34.658,WP_VExplicitOC_HL,2022.2.5,Win32,10.50067204,NA,NA,NA,NA,NA,NA,NA,NA,NA,NA,NA,NA,NA,NA,NA,NA,NA,NA,listen to music,006.png,NA,NA,NA,NA,NA,NA,NA,NA,NA,NA,NA,NA,NA,NA,NA,NA,64.58333333,1.7634,0,5,5,5,1,NA,NA,NA,NA,NA,NA,NA,NA,NA,NA,NA,NA,NA,NA,NA,NA
SUPAMT09191,33NF62TLXP1NY3298YG2ROML7Y4KJJ,94DD774C-82CF-4AD0-9B52-8D208104714E,2023-09-27_16h32.34.658,WP_VExplicitOC_HL,2022.2.5,Win32,10.50067204,NA,NA,NA,NA,NA,NA,NA,NA,NA,NA,NA,NA,NA,NA,NA,NA,NA,NA,daydream,007.png,NA,NA,NA,NA,NA,NA,NA,NA,NA,NA,NA,NA,NA,NA,NA,NA,16.66666667,1.6235,0,6,6,6,1,NA,NA,NA,NA,NA,NA,NA,NA,NA,NA,NA,NA,NA,NA,NA,NA
SUPAMT09191,33NF62TLXP1NY3298YG2ROML7Y4KJJ,94DD774C-82CF-4AD0-9B52-8D208104714E,2023-09-27_16h32.34.658,WP_VExplicitOC_HL,2022.2.5,Win32,10.50067204,NA,NA,NA,NA,NA,NA,NA,NA,NA,NA,NA,NA,NA,NA,NA,NA,NA,NA,watch a short animation,008.png,NA,NA,NA,NA,NA,NA,NA,NA,NA,NA,NA,NA,NA,NA,NA,NA,58.59375,1.3215,0,7,7,7,1,NA,NA,NA,NA,NA,NA,NA,NA,NA,NA,NA,NA,NA,NA,NA,NA
SUPAMT09191,33NF62TLXP1NY3298YG2ROML7Y4KJJ,94DD774C-82CF-4AD0-9B52-8D208104714E,2023-09-27_16h32.34.658,WP_VExplicitOC_HL,2022.2.5,Win32,10.50067204,NA,NA,NA,NA,NA,NA,NA,NA,NA,NA,NA,NA,NA,NA,NA,NA,NA,NA,read a novel,009.png,NA,NA,NA,NA,NA,NA,NA,NA,NA,NA,NA,NA,NA,NA,NA,NA,21.61458333,2.4693,0,8,8,8,1,NA,NA,NA,NA,NA,NA,NA,NA,NA,NA,NA,NA,NA,NA,NA,NA
SUPAMT09191,33NF62TLXP1NY3298YG2ROML7Y4KJJ,94DD774C-82CF-4AD0-9B52-8D208104714E,2023-09-27_16h32.34.658,WP_VExplicitOC_HL,2022.2.5,Win32,10.50067204,NA,NA,NA,NA,NA,NA,NA,NA,NA,NA,NA,NA,NA,NA,NA,NA,NA,NA,read the news,010.png,NA,NA,NA,NA,NA,NA,NA,NA,NA,NA,NA,NA,NA,NA,NA,NA,-32.8125,1.1489,0,9,9,9,1,NA,NA,NA,NA,NA,NA,NA,NA,NA,NA,NA,NA,NA,NA,NA,NA
SUPAMT09191,33NF62TLXP1NY3298YG2ROML7Y4KJJ,94DD774C-82CF-4AD0-9B52-8D208104714E,2023-09-27_16h32.34.658,WP_VExplicitOC_HL,2022.2.5,Win32,10.50067204,NA,NA,NA,NA,NA,NA,NA,NA,NA,NA,NA,NA,NA,NA,NA,NA,NA,NA,NA,NA,NA,NA,NA,NA,NA,NA,NA,NA,NA,NA,NA,NA,NA,NA,NA,NA,NA,NA,NA,NA,NA,NA,NA,read the news,NA,NA,NA,NA,NA,NA,NA,NA,NA,NA,NA,NA,NA,NA,NA
SUPAMT09191,33NF62TLXP1NY3298YG2ROML7Y4KJJ,94DD774C-82CF-4AD0-9B52-8D208104714E,2023-09-27_16h32.34.658,WP_VExplicitOC_HL,2022.2.5,Win32,10.50067204,25.26041667,3.5768,2.024,NA,NA,NA,NA,NA,happy,"unhappy, happy","less happy, more happy",NA,NA,NA,NA,NA,NA,NA,NA,NA,NA,NA,NA,NA,NA,NA,NA,NA,NA,NA,NA,NA,NA,NA,NA,NA,NA,NA,NA,NA,NA,NA,NA,NA,0,0,0,0,1,NA,NA,NA,NA,NA,NA,NA,NA,NA,NA
SUPAMT09191,33NF62TLXP1NY3298YG2ROML7Y4KJJ,94DD774C-82CF-4AD0-9B52-8D208104714E,2023-09-27_16h32.34.658,WP_VExplicitOC_HL,2022.2.5,Win32,10.50067204,-46.35416667,3.5886,2.0241,NA,NA,NA,NA,NA,frustrated,"frustrated, not frustrated","more frustrated, less frustrated",NA,NA,NA,NA,NA,NA,NA,NA,NA,NA,NA,NA,NA,NA,NA,NA,NA,NA,NA,NA,NA,NA,NA,NA,NA,NA,NA,NA,NA,NA,NA,NA,NA,0,1,1,1,1,NA,NA,NA,NA,NA,NA,NA,NA,NA,NA
SUPAMT09191,33NF62TLXP1NY3298YG2ROML7Y4KJJ,94DD774C-82CF-4AD0-9B52-8D208104714E,2023-09-27_16h32.34.658,WP_VExplicitOC_HL,2022.2.5,Win32,10.50067204,-49.21875,3.6542,2.0022,NA,NA,NA,NA,NA,bored,"bored, not bored","more bored, less bored",NA,NA,NA,NA,NA,NA,NA,NA,NA,NA,NA,NA,NA,NA,NA,NA,NA,NA,NA,NA,NA,NA,NA,NA,NA,NA,NA,NA,NA,NA,NA,NA,NA,0,2,2,2,1,NA,NA,NA,NA,NA,NA,NA,NA,NA,NA
SUPAMT09191,33NF62TLXP1NY3298YG2ROML7Y4KJJ,94DD774C-82CF-4AD0-9B52-8D208104714E,2023-09-27_16h32.34.658,WP_VExplicitOC_HL,2022.2.5,Win32,10.50067204,NA,NA,NA,NA,NA,NA,NA,NA,NA,NA,NA,NA,NA,NA,NA,NA,NA,NA,NA,NA,NA,NA,NA,NA,NA,NA,NA,NA,NA,NA,NA,NA,NA,NA,NA,NA,NA,NA,NA,NA,NA,NA,NA,NA,NA,NA,NA,NA,NA,NA,NA,NA,NA,NA,NA,NA,NA,NA,NA
SUPAMT09191,33NF62TLXP1NY3298YG2ROML7Y4KJJ,94DD774C-82CF-4AD0-9B52-8D208104714E,2023-09-27_16h32.34.658,WP_VExplicitOC_HL,2022.2.5,Win32,10.50067204,NA,NA,NA,NA,NA,NA,NA,NA,NA,NA,NA,NA,NA,NA,NA,NA,NA,NA,NA,NA,NA,NA,NA,NA,NA,NA,NA,NA,NA,NA,NA,NA,NA,NA,NA,NA,NA,NA,NA,NA,NA,NA,NA,NA,NA,NA,NA,NA,NA,NA,NA,NA,NA,NA,NA,NA,NA,NA,NA
SUPAMT09191,33NF62TLXP1NY3298YG2ROML7Y4KJJ,94DD774C-82CF-4AD0-9B52-8D208104714E,2023-09-27_16h32.34.658,WP_VExplicitOC_HL,2022.2.5,Win32,10.50067204,51.30568356,4.0776,2.0786,NA,NA,NA,NA,NA,frustrated,"frustrated, not frustrated","more frustrated, less frustrated",NA,NA,NA,NA,NA,NA,NA,NA,NA,NA,NA,NA,NA,NA,NA,NA,NA,NA,NA,NA,NA,NA,NA,NA,NA,NA,NA,NA,NA,NA,NA,NA,NA,NA,NA,NA,NA,NA,0,0,0,1,1,NA,NA,NA,NA,NA
SUPAMT09191,33NF62TLXP1NY3298YG2ROML7Y4KJJ,94DD774C-82CF-4AD0-9B52-8D208104714E,2023-09-27_16h32.34.658,WP_VExplicitOC_HL,2022.2.5,Win32,10.50067204,-37.48079877,3.2145,2.045,NA,NA,NA,NA,NA,happy,"unhappy, happy","less happy, more happy",NA,NA,NA,NA,NA,NA,NA,NA,NA,NA,NA,NA,NA,NA,NA,NA,NA,NA,NA,NA,NA,NA,NA,NA,NA,NA,NA,NA,NA,NA,NA,NA,NA,NA,NA,NA,NA,NA,0,1,1,0,1,NA,NA,NA,NA,NA
SUPAMT09191,33NF62TLXP1NY3298YG2ROML7Y4KJJ,94DD774C-82CF-4AD0-9B52-8D208104714E,2023-09-27_16h32.34.658,WP_VExplicitOC_HL,2022.2.5,Win32,10.50067204,43.31797235,2.9732,2.0308,NA,NA,NA,NA,NA,bored,"bored, not bored","more bored, less bored",NA,NA,NA,NA,NA,NA,NA,NA,NA,NA,NA,NA,NA,NA,NA,NA,NA,NA,NA,NA,NA,NA,NA,NA,NA,NA,NA,NA,NA,NA,NA,NA,NA,NA,NA,NA,NA,NA,0,2,2,2,1,NA,NA,NA,NA,NA
SUPAMT09191,33NF62TLXP1NY3298YG2ROML7Y4KJJ,94DD774C-82CF-4AD0-9B52-8D208104714E,2023-09-27_16h32.34.658,WP_VExplicitOC_HL,2022.2.5,Win32,10.50067204,NA,NA,NA,NA,NA,NA,NA,NA,NA,NA,NA,NA,NA,NA,NA,NA,NA,NA,NA,NA,NA,NA,NA,NA,NA,NA,NA,NA,NA,NA,NA,NA,NA,NA,NA,NA,NA,NA,NA,NA,NA,NA,NA,NA,NA,NA,NA,NA,NA,NA,NA,NA,NA,NA,0,0,0,0,1
SUPAMT09191,33NF62TLXP1NY3298YG2ROML7Y4KJJ,94DD774C-82CF-4AD0-9B52-8D208104714E,2023-09-27_16h32.34.658,WP_VExplicitOC_HL,2022.2.5,Win32,10.50067204,31.95084485,3.7944,2.0697,NA,NA,NA,NA,NA,frustrated,"frustrated, not frustrated","more frustrated, less frustrated",NA,NA,NA,NA,NA,NA,NA,NA,NA,NA,NA,NA,NA,NA,NA,NA,NA,NA,NA,NA,NA,NA,NA,NA,NA,NA,NA,NA,NA,NA,NA,NA,NA,NA,NA,NA,NA,NA,0,0,0,1,1,NA,NA,NA,NA,NA
SUPAMT09191,33NF62TLXP1NY3298YG2ROML7Y4KJJ,94DD774C-82CF-4AD0-9B52-8D208104714E,2023-09-27_16h32.34.658,WP_VExplicitOC_HL,2022.2.5,Win32,10.50067204,-41.47465438,3.8388,2.0257,NA,NA,NA,NA,NA,bored,"bored, not bored","more bored, less bored",NA,NA,NA,NA,NA,NA,NA,NA,NA,NA,NA,NA,NA,NA,NA,NA,NA,NA,NA,NA,NA,NA,NA,NA,NA,NA,NA,NA,NA,NA,NA,NA,NA,NA,NA,NA,NA,NA,0,1,1,2,1,NA,NA,NA,NA,NA
SUPAMT09191,33NF62TLXP1NY3298YG2ROML7Y4KJJ,94DD774C-82CF-4AD0-9B52-8D208104714E,2023-09-27_16h32.34.658,WP_VExplicitOC_HL,2022.2.5,Win32,10.50067204,-44.546851,3.6051,2.0269,NA,NA,NA,NA,NA,happy,"unhappy, happy","less happy, more happy",NA,NA,NA,NA,NA,NA,NA,NA,NA,NA,NA,NA,NA,NA,NA,NA,NA,NA,NA,NA,NA,NA,NA,NA,NA,NA,NA,NA,NA,NA,NA,NA,NA,NA,NA,NA,NA,NA,0,2,2,0,1,NA,NA,NA,NA,NA
SUPAMT09191,33NF62TLXP1NY3298YG2ROML7Y4KJJ,94DD774C-82CF-4AD0-9B52-8D208104714E,2023-09-27_16h32.34.658,WP_VExplicitOC_HL,2022.2.5,Win32,10.50067204,NA,NA,NA,NA,NA,NA,NA,NA,NA,NA,NA,NA,NA,NA,NA,NA,NA,NA,NA,NA,NA,NA,NA,NA,NA,NA,NA,NA,NA,NA,NA,NA,NA,NA,NA,NA,NA,NA,NA,NA,NA,NA,NA,NA,NA,NA,NA,NA,NA,NA,NA,NA,NA,NA,1,0,1,0,1
SUPAMT09191,33NF62TLXP1NY3298YG2ROML7Y4KJJ,94DD774C-82CF-4AD0-9B52-8D208104714E,2023-09-27_16h32.34.658,WP_VExplicitOC_HL,2022.2.5,Win32,10.50067204,32.25806452,3.4491,2.0412,NA,NA,NA,NA,NA,happy,"unhappy, happy","less happy, more happy",NA,NA,NA,NA,NA,NA,NA,NA,NA,NA,NA,NA,NA,NA,NA,NA,NA,NA,NA,NA,NA,NA,NA,NA,NA,NA,NA,NA,NA,NA,NA,NA,NA,NA,NA,NA,NA,NA,0,0,0,0,1,NA,NA,NA,NA,NA
SUPAMT09191,33NF62TLXP1NY3298YG2ROML7Y4KJJ,94DD774C-82CF-4AD0-9B52-8D208104714E,2023-09-27_16h32.34.658,WP_VExplicitOC_HL,2022.2.5,Win32,10.50067204,-52.84178187,3.7738,2.0284,NA,NA,NA,NA,NA,frustrated,"frustrated, not frustrated","more frustrated, less frustrated",NA,NA,NA,NA,NA,NA,NA,NA,NA,NA,NA,NA,NA,NA,NA,NA,NA,NA,NA,NA,NA,NA,NA,NA,NA,NA,NA,NA,NA,NA,NA,NA,NA,NA,NA,NA,NA,NA,0,1,1,1,1,NA,NA,NA,NA,NA
SUPAMT09191,33NF62TLXP1NY3298YG2ROML7Y4KJJ,94DD774C-82CF-4AD0-9B52-8D208104714E,2023-09-27_16h32.34.658,WP_VExplicitOC_HL,2022.2.5,Win32,10.50067204,-18.12596006,3.6926,2.0641,NA,NA,NA,NA,NA,bored,"bored, not bored","more bored, less bored",NA,NA,NA,NA,NA,NA,NA,NA,NA,NA,NA,NA,NA,NA,NA,NA,NA,NA,NA,NA,NA,NA,NA,NA,NA,NA,NA,NA,NA,NA,NA,NA,NA,NA,NA,NA,NA,NA,0,2,2,2,1,NA,NA,NA,NA,NA
SUPAMT09191,33NF62TLXP1NY3298YG2ROML7Y4KJJ,94DD774C-82CF-4AD0-9B52-8D208104714E,2023-09-27_16h32.34.658,WP_VExplicitOC_HL,2022.2.5,Win32,10.50067204,NA,NA,NA,NA,NA,NA,NA,NA,NA,NA,NA,NA,NA,NA,NA,NA,NA,NA,NA,NA,NA,NA,NA,NA,NA,NA,NA,NA,NA,NA,NA,NA,NA,NA,NA,NA,NA,NA,NA,NA,NA,NA,NA,NA,NA,NA,NA,NA,NA,NA,NA,NA,NA,NA,2,0,2,0,1
SUPAMT09191,33NF62TLXP1NY3298YG2ROML7Y4KJJ,94DD774C-82CF-4AD0-9B52-8D208104714E,2023-09-27_16h32.34.658,WP_VExplicitOC_HL,2022.2.5,Win32,10.50067204,-33.48694316,3.7242,2.0138,NA,NA,NA,NA,NA,frustrated,"frustrated, not frustrated","more frustrated, less frustrated",NA,NA,NA,NA,NA,NA,NA,NA,NA,NA,NA,NA,NA,NA,NA,NA,NA,NA,NA,NA,NA,NA,NA,NA,NA,NA,NA,NA,NA,NA,NA,NA,NA,NA,NA,NA,NA,NA,0,0,0,1,1,NA,NA,NA,NA,NA
SUPAMT09191,33NF62TLXP1NY3298YG2ROML7Y4KJJ,94DD774C-82CF-4AD0-9B52-8D208104714E,2023-09-27_16h32.34.658,WP_VExplicitOC_HL,2022.2.5,Win32,10.50067204,36.86635945,3.6376,2.0275,NA,NA,NA,NA,NA,happy,"unhappy, happy","less happy, more happy",NA,NA,NA,NA,NA,NA,NA,NA,NA,NA,NA,NA,NA,NA,NA,NA,NA,NA,NA,NA,NA,NA,NA,NA,NA,NA,NA,NA,NA,NA,NA,NA,NA,NA,NA,NA,NA,NA,0,1,1,0,1,NA,NA,NA,NA,NA
SUPAMT09191,33NF62TLXP1NY3298YG2ROML7Y4KJJ,94DD774C-82CF-4AD0-9B52-8D208104714E,2023-09-27_16h32.34.658,WP_VExplicitOC_HL,2022.2.5,Win32,10.50067204,-39.01689708,3.4385,2.0333,NA,NA,NA,NA,NA,bored,"bored, not bored","more bored, less bored",NA,NA,NA,NA,NA,NA,NA,NA,NA,NA,NA,NA,NA,NA,NA,NA,NA,NA,NA,NA,NA,NA,NA,NA,NA,NA,NA,NA,NA,NA,NA,NA,NA,NA,NA,NA,NA,NA,0,2,2,2,1,NA,NA,NA,NA,NA
SUPAMT09191,33NF62TLXP1NY3298YG2ROML7Y4KJJ,94DD774C-82CF-4AD0-9B52-8D208104714E,2023-09-27_16h32.34.658,WP_VExplicitOC_HL,2022.2.5,Win32,10.50067204,NA,NA,NA,NA,NA,NA,NA,NA,NA,NA,NA,NA,NA,NA,NA,NA,NA,NA,NA,NA,NA,NA,NA,NA,NA,NA,NA,NA,NA,NA,NA,NA,NA,NA,NA,NA,NA,NA,NA,NA,NA,NA,NA,NA,NA,NA,NA,NA,NA,NA,NA,NA,NA,NA,3,0,3,0,1
SUPAMT09191,33NF62TLXP1NY3298YG2ROML7Y4KJJ,94DD774C-82CF-4AD0-9B52-8D208104714E,2023-09-27_16h32.34.658,WP_VExplicitOC_HL,2022.2.5,Win32,10.50067204,23.34869432,3.2574,2.0271,NA,NA,NA,NA,NA,frustrated,"frustrated, not frustrated","more frustrated, less frustrated",NA,NA,NA,NA,NA,NA,NA,NA,NA,NA,NA,NA,NA,NA,NA,NA,NA,NA,NA,NA,NA,NA,NA,NA,NA,NA,NA,NA,NA,NA,NA,NA,NA,NA,NA,NA,NA,NA,0,0,0,1,1,NA,NA,NA,NA,NA
SUPAMT09191,33NF62TLXP1NY3298YG2ROML7Y4KJJ,94DD774C-82CF-4AD0-9B52-8D208104714E,2023-09-27_16h32.34.658,WP_VExplicitOC_HL,2022.2.5,Win32,10.50067204,-65.43778802,3.5531,2.041,NA,NA,NA,NA,NA,happy,"unhappy, happy","less happy, more happy",NA,NA,NA,NA,NA,NA,NA,NA,NA,NA,NA,NA,NA,NA,NA,NA,NA,NA,NA,NA,NA,NA,NA,NA,NA,NA,NA,NA,NA,NA,NA,NA,NA,NA,NA,NA,NA,NA,0,1,1,0,1,NA,NA,NA,NA,NA
SUPAMT09191,33NF62TLXP1NY3298YG2ROML7Y4KJJ,94DD774C-82CF-4AD0-9B52-8D208104714E,2023-09-27_16h32.34.658,WP_VExplicitOC_HL,2022.2.5,Win32,10.50067204,-91.55145929,3.5466,2.0208,NA,NA,NA,NA,NA,bored,"bored, not bored","more bored, less bored",NA,NA,NA,NA,NA,NA,NA,NA,NA,NA,NA,NA,NA,NA,NA,NA,NA,NA,NA,NA,NA,NA,NA,NA,NA,NA,NA,NA,NA,NA,NA,NA,NA,NA,NA,NA,NA,NA,0,2,2,2,1,NA,NA,NA,NA,NA
SUPAMT09191,33NF62TLXP1NY3298YG2ROML7Y4KJJ,94DD774C-82CF-4AD0-9B52-8D208104714E,2023-09-27_16h32.34.658,WP_VExplicitOC_HL,2022.2.5,Win32,10.50067204,NA,NA,NA,NA,NA,NA,NA,NA,NA,NA,NA,NA,NA,NA,NA,NA,NA,NA,NA,NA,NA,NA,NA,NA,NA,NA,NA,NA,NA,NA,NA,NA,NA,NA,NA,NA,NA,NA,NA,NA,NA,NA,NA,NA,NA,NA,NA,NA,NA,NA,NA,NA,NA,NA,4,0,4,0,1
SUPAMT09191,33NF62TLXP1NY3298YG2ROML7Y4KJJ,94DD774C-82CF-4AD0-9B52-8D208104714E,2023-09-27_16h32.34.658,WP_VExplicitOC_HL,2022.2.5,Win32,10.50067204,-86.6359447,3.7228,2.0265,NA,NA,NA,NA,NA,frustrated,"frustrated, not frustrated","more frustrated, less frustrated",NA,NA,NA,NA,NA,NA,NA,NA,NA,NA,NA,NA,NA,NA,NA,NA,NA,NA,NA,NA,NA,NA,NA,NA,NA,NA,NA,NA,NA,NA,NA,NA,NA,NA,NA,NA,NA,NA,0,0,0,1,1,NA,NA,NA,NA,NA
SUPAMT09191,33NF62TLXP1NY3298YG2ROML7Y4KJJ,94DD774C-82CF-4AD0-9B52-8D208104714E,2023-09-27_16h32.34.658,WP_VExplicitOC_HL,2022.2.5,Win32,10.50067204,88.47926267,3.5051,2.0491,NA,NA,NA,NA,NA,happy,"unhappy, happy","less happy, more happy",NA,NA,NA,NA,NA,NA,NA,NA,NA,NA,NA,NA,NA,NA,NA,NA,NA,NA,NA,NA,NA,NA,NA,NA,NA,NA,NA,NA,NA,NA,NA,NA,NA,NA,NA,NA,NA,NA,0,1,1,0,1,NA,NA,NA,NA,NA
SUPAMT09191,33NF62TLXP1NY3298YG2ROML7Y4KJJ,94DD774C-82CF-4AD0-9B52-8D208104714E,2023-09-27_16h32.34.658,WP_VExplicitOC_HL,2022.2.5,Win32,10.50067204,-37.17357911,3.4916,2.0083,NA,NA,NA,NA,NA,bored,"bored, not bored","more bored, less bored",NA,NA,NA,NA,NA,NA,NA,NA,NA,NA,NA,NA,NA,NA,NA,NA,NA,NA,NA,NA,NA,NA,NA,NA,NA,NA,NA,NA,NA,NA,NA,NA,NA,NA,NA,NA,NA,NA,0,2,2,2,1,NA,NA,NA,NA,NA
SUPAMT09191,33NF62TLXP1NY3298YG2ROML7Y4KJJ,94DD774C-82CF-4AD0-9B52-8D208104714E,2023-09-27_16h32.34.658,WP_VExplicitOC_HL,2022.2.5,Win32,10.50067204,NA,NA,NA,NA,NA,NA,NA,NA,NA,NA,NA,NA,NA,NA,NA,NA,NA,NA,NA,NA,NA,NA,NA,NA,NA,NA,NA,NA,NA,NA,NA,NA,NA,NA,NA,NA,NA,NA,NA,NA,NA,NA,NA,NA,NA,NA,NA,NA,NA,NA,NA,NA,NA,NA,5,0,5,0,1
SUPAMT09191,33NF62TLXP1NY3298YG2ROML7Y4KJJ,94DD774C-82CF-4AD0-9B52-8D208104714E,2023-09-27_16h32.34.658,WP_VExplicitOC_HL,2022.2.5,Win32,10.50067204,100,3.6745,2.0488,NA,NA,NA,NA,NA,frustrated,"frustrated, not frustrated","more frustrated, less frustrated",NA,NA,NA,NA,NA,NA,NA,NA,NA,NA,NA,NA,NA,NA,NA,NA,NA,NA,NA,NA,NA,NA,NA,NA,NA,NA,NA,NA,NA,NA,NA,NA,NA,NA,NA,NA,NA,NA,0,0,0,1,1,NA,NA,NA,NA,NA
SUPAMT09191,33NF62TLXP1NY3298YG2ROML7Y4KJJ,94DD774C-82CF-4AD0-9B52-8D208104714E,2023-09-27_16h32.34.658,WP_VExplicitOC_HL,2022.2.5,Win32,10.50067204,57.75729647,3.3806,2.0136,NA,NA,NA,NA,NA,happy,"unhappy, happy","less happy, more happy",NA,NA,NA,NA,NA,NA,NA,NA,NA,NA,NA,NA,NA,NA,NA,NA,NA,NA,NA,NA,NA,NA,NA,NA,NA,NA,NA,NA,NA,NA,NA,NA,NA,NA,NA,NA,NA,NA,0,1,1,0,1,NA,NA,NA,NA,NA
SUPAMT09191,33NF62TLXP1NY3298YG2ROML7Y4KJJ,94DD774C-82CF-4AD0-9B52-8D208104714E,2023-09-27_16h32.34.658,WP_VExplicitOC_HL,2022.2.5,Win32,10.50067204,-64.82334869,3.4991,2.0374,NA,NA,NA,NA,NA,bored,"bored, not bored","more bored, less bored",NA,NA,NA,NA,NA,NA,NA,NA,NA,NA,NA,NA,NA,NA,NA,NA,NA,NA,NA,NA,NA,NA,NA,NA,NA,NA,NA,NA,NA,NA,NA,NA,NA,NA,NA,NA,NA,NA,0,2,2,2,1,NA,NA,NA,NA,NA
SUPAMT09191,33NF62TLXP1NY3298YG2ROML7Y4KJJ,94DD774C-82CF-4AD0-9B52-8D208104714E,2023-09-27_16h32.34.658,WP_VExplicitOC_HL,2022.2.5,Win32,10.50067204,NA,NA,NA,NA,NA,NA,NA,NA,NA,NA,NA,NA,NA,NA,NA,NA,NA,NA,NA,NA,NA,NA,NA,NA,NA,NA,NA,NA,NA,NA,NA,NA,NA,NA,NA,NA,NA,NA,NA,NA,NA,NA,NA,NA,NA,NA,NA,NA,NA,NA,NA,NA,NA,NA,6,0,6,0,1
SUPAMT09191,33NF62TLXP1NY3298YG2ROML7Y4KJJ,94DD774C-82CF-4AD0-9B52-8D208104714E,2023-09-27_16h32.34.658,WP_VExplicitOC_HL,2022.2.5,Win32,10.50067204,-52.22734255,3.9761,2.0349,NA,NA,NA,NA,NA,bored,"bored, not bored","more bored, less bored",NA,NA,NA,NA,NA,NA,NA,NA,NA,NA,NA,NA,NA,NA,NA,NA,NA,NA,NA,NA,NA,NA,NA,NA,NA,NA,NA,NA,NA,NA,NA,NA,NA,NA,NA,NA,NA,NA,0,0,0,2,1,NA,NA,NA,NA,NA
SUPAMT09191,33NF62TLXP1NY3298YG2ROML7Y4KJJ,94DD774C-82CF-4AD0-9B52-8D208104714E,2023-09-27_16h32.34.658,WP_VExplicitOC_HL,2022.2.5,Win32,10.50067204,65.43778802,3.3433,2.0115,NA,NA,NA,NA,NA,happy,"unhappy, happy","less happy, more happy",NA,NA,NA,NA,NA,NA,NA,NA,NA,NA,NA,NA,NA,NA,NA,NA,NA,NA,NA,NA,NA,NA,NA,NA,NA,NA,NA,NA,NA,NA,NA,NA,NA,NA,NA,NA,NA,NA,0,1,1,0,1,NA,NA,NA,NA,NA
SUPAMT09191,33NF62TLXP1NY3298YG2ROML7Y4KJJ,94DD774C-82CF-4AD0-9B52-8D208104714E,2023-09-27_16h32.34.658,WP_VExplicitOC_HL,2022.2.5,Win32,10.50067204,-58.67895545,3.4015,2.0263,NA,NA,NA,NA,NA,frustrated,"frustrated, not frustrated","more frustrated, less frustrated",NA,NA,NA,NA,NA,NA,NA,NA,NA,NA,NA,NA,NA,NA,NA,NA,NA,NA,NA,NA,NA,NA,NA,NA,NA,NA,NA,NA,NA,NA,NA,NA,NA,NA,NA,NA,NA,NA,0,2,2,1,1,NA,NA,NA,NA,NA
SUPAMT09191,33NF62TLXP1NY3298YG2ROML7Y4KJJ,94DD774C-82CF-4AD0-9B52-8D208104714E,2023-09-27_16h32.34.658,WP_VExplicitOC_HL,2022.2.5,Win32,10.50067204,NA,NA,NA,NA,NA,NA,NA,NA,NA,NA,NA,NA,NA,NA,NA,NA,NA,NA,NA,NA,NA,NA,NA,NA,NA,NA,NA,NA,NA,NA,NA,NA,NA,NA,NA,NA,NA,NA,NA,NA,NA,NA,NA,NA,NA,NA,NA,NA,NA,NA,NA,NA,NA,NA,7,0,7,0,1
SUPAMT09191,33NF62TLXP1NY3298YG2ROML7Y4KJJ,94DD774C-82CF-4AD0-9B52-8D208104714E,2023-09-27_16h32.34.658,WP_VExplicitOC_HL,2022.2.5,Win32,10.50067204,-77.11213518,4.2147,2.0641,NA,NA,NA,NA,NA,frustrated,"frustrated, not frustrated","more frustrated, less frustrated",NA,NA,NA,NA,NA,NA,NA,NA,NA,NA,NA,NA,NA,NA,NA,NA,NA,NA,NA,NA,NA,NA,NA,NA,NA,NA,NA,NA,NA,NA,NA,NA,NA,NA,NA,NA,NA,NA,0,0,0,1,1,NA,NA,NA,NA,NA
SUPAMT09191,33NF62TLXP1NY3298YG2ROML7Y4KJJ,94DD774C-82CF-4AD0-9B52-8D208104714E,2023-09-27_16h32.34.658,WP_VExplicitOC_HL,2022.2.5,Win32,10.50067204,-57.14285714,3.5953,2.0399,NA,NA,NA,NA,NA,bored,"bored, not bored","more bored, less bored",NA,NA,NA,NA,NA,NA,NA,NA,NA,NA,NA,NA,NA,NA,NA,NA,NA,NA,NA,NA,NA,NA,NA,NA,NA,NA,NA,NA,NA,NA,NA,NA,NA,NA,NA,NA,NA,NA,0,1,1,2,1,NA,NA,NA,NA,NA
SUPAMT09191,33NF62TLXP1NY3298YG2ROML7Y4KJJ,94DD774C-82CF-4AD0-9B52-8D208104714E,2023-09-27_16h32.34.658,WP_VExplicitOC_HL,2022.2.5,Win32,10.50067204,87.86482335,3.9705,2.0637,NA,NA,NA,NA,NA,happy,"unhappy, happy","less happy, more happy",NA,NA,NA,NA,NA,NA,NA,NA,NA,NA,NA,NA,NA,NA,NA,NA,NA,NA,NA,NA,NA,NA,NA,NA,NA,NA,NA,NA,NA,NA,NA,NA,NA,NA,NA,NA,NA,NA,0,2,2,0,1,NA,NA,NA,NA,NA
SUPAMT09191,33NF62TLXP1NY3298YG2ROML7Y4KJJ,94DD774C-82CF-4AD0-9B52-8D208104714E,2023-09-27_16h32.34.658,WP_VExplicitOC_HL,2022.2.5,Win32,10.50067204,NA,NA,NA,NA,NA,NA,NA,NA,NA,NA,NA,NA,NA,NA,NA,NA,NA,NA,NA,NA,NA,NA,NA,NA,NA,NA,NA,NA,NA,NA,NA,NA,NA,NA,NA,NA,NA,NA,NA,NA,NA,NA,NA,NA,NA,NA,NA,NA,NA,NA,NA,NA,NA,NA,8,0,8,0,1
SUPAMT09191,33NF62TLXP1NY3298YG2ROML7Y4KJJ,94DD774C-82CF-4AD0-9B52-8D208104714E,2023-09-27_16h32.34.658,WP_VExplicitOC_HL,2022.2.5,Win32,10.50067204,-50.07680492,3.932,2.0607,NA,NA,NA,NA,NA,frustrated,"frustrated, not frustrated","more frustrated, less frustrated",NA,NA,NA,NA,NA,NA,NA,NA,NA,NA,NA,NA,NA,NA,NA,NA,NA,NA,NA,NA,NA,NA,NA,NA,NA,NA,NA,NA,NA,NA,NA,NA,NA,NA,NA,NA,NA,NA,0,0,0,1,1,NA,NA,NA,NA,NA
SUPAMT09191,33NF62TLXP1NY3298YG2ROML7Y4KJJ,94DD774C-82CF-4AD0-9B52-8D208104714E,2023-09-27_16h32.34.658,WP_VExplicitOC_HL,2022.2.5,Win32,10.50067204,-54.68509985,3.5556,2.0398,NA,NA,NA,NA,NA,bored,"bored, not bored","more bored, less bored",NA,NA,NA,NA,NA,NA,NA,NA,NA,NA,NA,NA,NA,NA,NA,NA,NA,NA,NA,NA,NA,NA,NA,NA,NA,NA,NA,NA,NA,NA,NA,NA,NA,NA,NA,NA,NA,NA,0,1,1,2,1,NA,NA,NA,NA,NA
SUPAMT09191,33NF62TLXP1NY3298YG2ROML7Y4KJJ,94DD774C-82CF-4AD0-9B52-8D208104714E,2023-09-27_16h32.34.658,WP_VExplicitOC_HL,2022.2.5,Win32,10.50067204,72.81105991,3.4404,2.0355,NA,NA,NA,NA,NA,happy,"unhappy, happy","less happy, more happy",NA,NA,NA,NA,NA,NA,NA,NA,NA,NA,NA,NA,NA,NA,NA,NA,NA,NA,NA,NA,NA,NA,NA,NA,NA,NA,NA,NA,NA,NA,NA,NA,NA,NA,NA,NA,NA,NA,0,2,2,0,1,NA,NA,NA,NA,NA
SUPAMT09191,33NF62TLXP1NY3298YG2ROML7Y4KJJ,94DD774C-82CF-4AD0-9B52-8D208104714E,2023-09-27_16h32.34.658,WP_VExplicitOC_HL,2022.2.5,Win32,10.50067204,NA,NA,NA,NA,NA,NA,NA,NA,NA,NA,NA,NA,NA,NA,NA,NA,NA,NA,NA,NA,NA,NA,NA,NA,NA,NA,NA,NA,NA,NA,NA,NA,NA,NA,NA,NA,NA,NA,NA,NA,NA,NA,NA,NA,NA,NA,NA,NA,NA,NA,NA,NA,NA,NA,9,0,9,0,1
SUPAMT09191,33NF62TLXP1NY3298YG2ROML7Y4KJJ,94DD774C-82CF-4AD0-9B52-8D208104714E,2023-09-27_16h32.34.658,WP_VExplicitOC_HL,2022.2.5,Win32,10.50067204,55.91397849,3.6138,2.0448,NA,NA,NA,NA,NA,frustrated,"frustrated, not frustrated","more frustrated, less frustrated",NA,NA,NA,NA,NA,NA,NA,NA,NA,NA,NA,NA,NA,NA,NA,NA,NA,NA,NA,NA,NA,NA,NA,NA,NA,NA,NA,NA,NA,NA,NA,NA,NA,NA,NA,NA,NA,NA,0,0,0,1,1,NA,NA,NA,NA,NA
SUPAMT09191,33NF62TLXP1NY3298YG2ROML7Y4KJJ,94DD774C-82CF-4AD0-9B52-8D208104714E,2023-09-27_16h32.34.658,WP_VExplicitOC_HL,2022.2.5,Win32,10.50067204,67.58832565,3.7773,2.061,NA,NA,NA,NA,NA,happy,"unhappy, happy","less happy, more happy",NA,NA,NA,NA,NA,NA,NA,NA,NA,NA,NA,NA,NA,NA,NA,NA,NA,NA,NA,NA,NA,NA,NA,NA,NA,NA,NA,NA,NA,NA,NA,NA,NA,NA,NA,NA,NA,NA,0,1,1,0,1,NA,NA,NA,NA,NA
SUPAMT09191,33NF62TLXP1NY3298YG2ROML7Y4KJJ,94DD774C-82CF-4AD0-9B52-8D208104714E,2023-09-27_16h32.34.658,WP_VExplicitOC_HL,2022.2.5,Win32,10.50067204,-74.65437788,3.9227,2.0547,NA,NA,NA,NA,NA,bored,"bored, not bored","more bored, less bored",NA,NA,NA,NA,NA,NA,NA,NA,NA,NA,NA,NA,NA,NA,NA,NA,NA,NA,NA,NA,NA,NA,NA,NA,NA,NA,NA,NA,NA,NA,NA,NA,NA,NA,NA,NA,NA,NA,0,2,2,2,1,NA,NA,NA,NA,NA
SUPAMT09191,33NF62TLXP1NY3298YG2ROML7Y4KJJ,94DD774C-82CF-4AD0-9B52-8D208104714E,2023-09-27_16h32.34.658,WP_VExplicitOC_HL,2022.2.5,Win32,10.50067204,NA,NA,NA,NA,NA,NA,NA,NA,NA,NA,NA,NA,NA,NA,NA,NA,NA,NA,NA,NA,NA,NA,NA,NA,NA,NA,NA,NA,NA,NA,NA,NA,NA,NA,NA,NA,NA,NA,NA,NA,NA,NA,NA,NA,NA,NA,NA,NA,NA,NA,NA,NA,NA,NA,10,0,10,0,1
SUPAMT09191,33NF62TLXP1NY3298YG2ROML7Y4KJJ,94DD774C-82CF-4AD0-9B52-8D208104714E,2023-09-27_16h32.34.658,WP_VExplicitOC_HL,2022.2.5,Win32,10.50067204,60.82949309,3.4549,2.0168,NA,NA,NA,NA,NA,happy,"unhappy, happy","less happy, more happy",NA,NA,NA,NA,NA,NA,NA,NA,NA,NA,NA,NA,NA,NA,NA,NA,NA,NA,NA,NA,NA,NA,NA,NA,NA,NA,NA,NA,NA,NA,NA,NA,NA,NA,NA,NA,NA,NA,0,0,0,0,1,NA,NA,NA,NA,NA
SUPAMT09191,33NF62TLXP1NY3298YG2ROML7Y4KJJ,94DD774C-82CF-4AD0-9B52-8D208104714E,2023-09-27_16h32.34.658,WP_VExplicitOC_HL,2022.2.5,Win32,10.50067204,-54.68509985,3.6997,2.0036,NA,NA,NA,NA,NA,frustrated,"frustrated, not frustrated","more frustrated, less frustrated",NA,NA,NA,NA,NA,NA,NA,NA,NA,NA,NA,NA,NA,NA,NA,NA,NA,NA,NA,NA,NA,NA,NA,NA,NA,NA,NA,NA,NA,NA,NA,NA,NA,NA,NA,NA,NA,NA,0,1,1,1,1,NA,NA,NA,NA,NA
SUPAMT09191,33NF62TLXP1NY3298YG2ROML7Y4KJJ,94DD774C-82CF-4AD0-9B52-8D208104714E,2023-09-27_16h32.34.658,WP_VExplicitOC_HL,2022.2.5,Win32,10.50067204,-55.60675883,3.8932,2.007,NA,NA,NA,NA,NA,bored,"bored, not bored","more bored, less bored",NA,NA,NA,NA,NA,NA,NA,NA,NA,NA,NA,NA,NA,NA,NA,NA,NA,NA,NA,NA,NA,NA,NA,NA,NA,NA,NA,NA,NA,NA,NA,NA,NA,NA,NA,NA,NA,NA,0,2,2,2,1,NA,NA,NA,NA,NA
SUPAMT09191,33NF62TLXP1NY3298YG2ROML7Y4KJJ,94DD774C-82CF-4AD0-9B52-8D208104714E,2023-09-27_16h32.34.658,WP_VExplicitOC_HL,2022.2.5,Win32,10.50067204,NA,NA,NA,NA,NA,NA,NA,NA,NA,NA,NA,NA,NA,NA,NA,NA,NA,NA,NA,NA,NA,NA,NA,NA,NA,NA,NA,NA,NA,NA,NA,NA,NA,NA,NA,NA,NA,NA,NA,NA,NA,NA,NA,NA,NA,NA,NA,NA,NA,NA,NA,NA,NA,NA,11,0,11,0,1
SUPAMT09191,33NF62TLXP1NY3298YG2ROML7Y4KJJ,94DD774C-82CF-4AD0-9B52-8D208104714E,2023-09-27_16h32.34.658,WP_VExplicitOC_HL,2022.2.5,Win32,10.50067204,84.48540707,3.7856,2.0262,NA,NA,NA,NA,NA,happy,"unhappy, happy","less happy, more happy",NA,NA,NA,NA,NA,NA,NA,NA,NA,NA,NA,NA,NA,NA,NA,NA,NA,NA,NA,NA,NA,NA,NA,NA,NA,NA,NA,NA,NA,NA,NA,NA,NA,NA,NA,NA,NA,NA,0,0,0,0,1,NA,NA,NA,NA,NA
SUPAMT09191,33NF62TLXP1NY3298YG2ROML7Y4KJJ,94DD774C-82CF-4AD0-9B52-8D208104714E,2023-09-27_16h32.34.658,WP_VExplicitOC_HL,2022.2.5,Win32,10.50067204,-41.47465438,4.3692,2.0567,NA,NA,NA,NA,NA,frustrated,"frustrated, not frustrated","more frustrated, less frustrated",NA,NA,NA,NA,NA,NA,NA,NA,NA,NA,NA,NA,NA,NA,NA,NA,NA,NA,NA,NA,NA,NA,NA,NA,NA,NA,NA,NA,NA,NA,NA,NA,NA,NA,NA,NA,NA,NA,0,1,1,1,1,NA,NA,NA,NA,NA
SUPAMT09191,33NF62TLXP1NY3298YG2ROML7Y4KJJ,94DD774C-82CF-4AD0-9B52-8D208104714E,2023-09-27_16h32.34.658,WP_VExplicitOC_HL,2022.2.5,Win32,10.50067204,-26.7281106,3.6609,2.0482,NA,NA,NA,NA,NA,bored,"bored, not bored","more bored, less bored",NA,NA,NA,NA,NA,NA,NA,NA,NA,NA,NA,NA,NA,NA,NA,NA,NA,NA,NA,NA,NA,NA,NA,NA,NA,NA,NA,NA,NA,NA,NA,NA,NA,NA,NA,NA,NA,NA,0,2,2,2,1,NA,NA,NA,NA,NA
SUPAMT09191,33NF62TLXP1NY3298YG2ROML7Y4KJJ,94DD774C-82CF-4AD0-9B52-8D208104714E,2023-09-27_16h32.34.658,WP_VExplicitOC_HL,2022.2.5,Win32,10.50067204,NA,NA,NA,NA,NA,NA,NA,NA,NA,NA,NA,NA,NA,NA,NA,NA,NA,NA,NA,NA,NA,NA,NA,NA,NA,NA,NA,NA,NA,NA,NA,NA,NA,NA,NA,NA,NA,NA,NA,NA,NA,NA,NA,NA,NA,NA,NA,NA,NA,NA,NA,NA,NA,NA,12,0,12,0,1
SUPAMT09191,33NF62TLXP1NY3298YG2ROML7Y4KJJ,94DD774C-82CF-4AD0-9B52-8D208104714E,2023-09-27_16h32.34.658,WP_VExplicitOC_HL,2022.2.5,Win32,10.50067204,-59.60061444,3.3817,2.0222,NA,NA,NA,NA,NA,bored,"bored, not bored","more bored, less bored",NA,NA,NA,NA,NA,NA,NA,NA,NA,NA,NA,NA,NA,NA,NA,NA,NA,NA,NA,NA,NA,NA,NA,NA,NA,NA,NA,NA,NA,NA,NA,NA,NA,NA,NA,NA,NA,NA,0,0,0,2,1,NA,NA,NA,NA,NA
SUPAMT09191,33NF62TLXP1NY3298YG2ROML7Y4KJJ,94DD774C-82CF-4AD0-9B52-8D208104714E,2023-09-27_16h32.34.658,WP_VExplicitOC_HL,2022.2.5,Win32,10.50067204,38.40245776,3.9225,2.052,NA,NA,NA,NA,NA,frustrated,"frustrated, not frustrated","more frustrated, less frustrated",NA,NA,NA,NA,NA,NA,NA,NA,NA,NA,NA,NA,NA,NA,NA,NA,NA,NA,NA,NA,NA,NA,NA,NA,NA,NA,NA,NA,NA,NA,NA,NA,NA,NA,NA,NA,NA,NA,0,1,1,1,1,NA,NA,NA,NA,NA
SUPAMT09191,33NF62TLXP1NY3298YG2ROML7Y4KJJ,94DD774C-82CF-4AD0-9B52-8D208104714E,2023-09-27_16h32.34.658,WP_VExplicitOC_HL,2022.2.5,Win32,10.50067204,-55.91397849,3.1732,2.0152,NA,NA,NA,NA,NA,happy,"unhappy, happy","less happy, more happy",NA,NA,NA,NA,NA,NA,NA,NA,NA,NA,NA,NA,NA,NA,NA,NA,NA,NA,NA,NA,NA,NA,NA,NA,NA,NA,NA,NA,NA,NA,NA,NA,NA,NA,NA,NA,NA,NA,0,2,2,0,1,NA,NA,NA,NA,NA
SUPAMT09191,33NF62TLXP1NY3298YG2ROML7Y4KJJ,94DD774C-82CF-4AD0-9B52-8D208104714E,2023-09-27_16h32.34.658,WP_VExplicitOC_HL,2022.2.5,Win32,10.50067204,NA,NA,NA,NA,NA,NA,NA,NA,NA,NA,NA,NA,NA,NA,NA,NA,NA,NA,NA,NA,NA,NA,NA,NA,NA,NA,NA,NA,NA,NA,NA,NA,NA,NA,NA,NA,NA,NA,NA,NA,NA,NA,NA,NA,NA,NA,NA,NA,NA,NA,NA,NA,NA,NA,13,0,13,0,1
SUPAMT09191,33NF62TLXP1NY3298YG2ROML7Y4KJJ,94DD774C-82CF-4AD0-9B52-8D208104714E,2023-09-27_16h32.34.658,WP_VExplicitOC_HL,2022.2.5,Win32,10.50067204,55.91397849,3.7765,2.0292,NA,NA,NA,NA,NA,frustrated,"frustrated, not frustrated","more frustrated, less frustrated",NA,NA,NA,NA,NA,NA,NA,NA,NA,NA,NA,NA,NA,NA,NA,NA,NA,NA,NA,NA,NA,NA,NA,NA,NA,NA,NA,NA,NA,NA,NA,NA,NA,NA,NA,NA,NA,NA,0,0,0,1,1,NA,NA,NA,NA,NA
SUPAMT09191,33NF62TLXP1NY3298YG2ROML7Y4KJJ,94DD774C-82CF-4AD0-9B52-8D208104714E,2023-09-27_16h32.34.658,WP_VExplicitOC_HL,2022.2.5,Win32,10.50067204,-37.48079877,3.1751,2.0396,NA,NA,NA,NA,NA,bored,"bored, not bored","more bored, less bored",NA,NA,NA,NA,NA,NA,NA,NA,NA,NA,NA,NA,NA,NA,NA,NA,NA,NA,NA,NA,NA,NA,NA,NA,NA,NA,NA,NA,NA,NA,NA,NA,NA,NA,NA,NA,NA,NA,0,1,1,2,1,NA,NA,NA,NA,NA
SUPAMT09191,33NF62TLXP1NY3298YG2ROML7Y4KJJ,94DD774C-82CF-4AD0-9B52-8D208104714E,2023-09-27_16h32.34.658,WP_VExplicitOC_HL,2022.2.5,Win32,10.50067204,34.40860215,3.662,2.03,NA,NA,NA,NA,NA,happy,"unhappy, happy","less happy, more happy",NA,NA,NA,NA,NA,NA,NA,NA,NA,NA,NA,NA,NA,NA,NA,NA,NA,NA,NA,NA,NA,NA,NA,NA,NA,NA,NA,NA,NA,NA,NA,NA,NA,NA,NA,NA,NA,NA,0,2,2,0,1,NA,NA,NA,NA,NA
SUPAMT09191,33NF62TLXP1NY3298YG2ROML7Y4KJJ,94DD774C-82CF-4AD0-9B52-8D208104714E,2023-09-27_16h32.34.658,WP_VExplicitOC_HL,2022.2.5,Win32,10.50067204,NA,NA,NA,NA,NA,NA,NA,NA,NA,NA,NA,NA,NA,NA,NA,NA,NA,NA,NA,NA,NA,NA,NA,NA,NA,NA,NA,NA,NA,NA,NA,NA,NA,NA,NA,NA,NA,NA,NA,NA,NA,NA,NA,NA,NA,NA,NA,NA,NA,NA,NA,NA,NA,NA,14,0,14,0,1
SUPAMT09191,33NF62TLXP1NY3298YG2ROML7Y4KJJ,94DD774C-82CF-4AD0-9B52-8D208104714E,2023-09-27_16h32.34.658,WP_VExplicitOC_HL,2022.2.5,Win32,10.50067204,NA,NA,NA,NA,NA,NA,NA,NA,NA,NA,NA,NA,NA,NA,NA,NA,NA,NA,NA,NA,NA,NA,NA,NA,NA,NA,NA,NA,NA,NA,NA,NA,NA,NA,NA,NA,NA,NA,NA,NA,NA,NA,NA,NA,NA,NA,NA,NA,NA,NA,NA,NA,NA,NA,NA,NA,NA,NA,NA
