participant,session,completion,date,expName,psychopyVersion,OS,frameRate,rating_all.response,rating_all.rt,rating_all.tStart,rndRat1.thisRepN,rndRat1.thisTrialN,rndRat1.thisN,rndRat1.thisIndex,rndRat1.ran,Emo,Labs,Labs2,rating_alt.response,rating_alt.rt,AltC.thisRepN,AltC.thisTrialN,AltC.thisN,AltC.thisIndex,AltC.ran,alt_choices,pic_choices,BottomAlt_Choice,rndRat2.thisRepN,rndRat2.thisTrialN,rndRat2.thisN,rndRat2.thisIndex,rndRat2.ran,rndRat3.thisRepN,rndRat3.thisTrialN,rndRat3.thisN,rndRat3.thisIndex,rndRat3.ran,trials_FC_L.thisRepN,trials_FC_L.thisTrialN,trials_FC_L.thisN,trials_FC_L.thisIndex,trials_FC_L.ran,rating_alt_2.response,rating_alt_2.rt,AltC2.thisRepN,AltC2.thisTrialN,AltC2.thisN,AltC2.thisIndex,AltC2.ran,TopAlt_Choice,rndRat4.thisRepN,rndRat4.thisTrialN,rndRat4.thisN,rndRat4.thisIndex,rndRat4.ran,rndRat5.thisRepN,rndRat5.thisTrialN,rndRat5.thisN,rndRat5.thisIndex,rndRat5.ran,trials_FC_H.thisRepN,trials_FC_H.thisTrialN,trials_FC_H.thisN,trials_FC_H.thisIndex,trials_FC_H.ran
SUPAMT79304,3SNVL38CIAR0QPW3Y6ZG4K9QHJ5KCP,AFFCDF88-5C27-47DA-A4C7-439401BD8120,2023-09-28_14h03.40.872,WP_VExplicitOC_LH,2022.2.5,Win32,16.12903226,NA,NA,NA,NA,NA,NA,NA,NA,NA,NA,NA,NA,NA,NA,NA,NA,NA,NA,NA,NA,NA,NA,NA,NA,NA,NA,NA,NA,NA,NA,NA,NA,NA,NA,NA,NA,NA,NA,NA,NA,NA,NA,NA,NA,NA,NA,NA,NA,NA,NA,NA,NA,NA,NA,NA,NA,NA,NA,NA
SUPAMT79304,3SNVL38CIAR0QPW3Y6ZG4K9QHJ5KCP,AFFCDF88-5C27-47DA-A4C7-439401BD8120,2023-09-28_14h03.40.872,WP_VExplicitOC_LH,2022.2.5,Win32,16.12903226,NA,NA,NA,NA,NA,NA,NA,NA,NA,NA,NA,NA,NA,NA,NA,NA,NA,NA,NA,NA,NA,NA,NA,NA,NA,NA,NA,NA,NA,NA,NA,NA,NA,NA,NA,NA,NA,NA,NA,NA,NA,NA,NA,NA,NA,NA,NA,NA,NA,NA,NA,NA,NA,NA,NA,NA,NA,NA,NA
SUPAMT79304,3SNVL38CIAR0QPW3Y6ZG4K9QHJ5KCP,AFFCDF88-5C27-47DA-A4C7-439401BD8120,2023-09-28_14h03.40.872,WP_VExplicitOC_LH,2022.2.5,Win32,16.12903226,NA,NA,NA,NA,NA,NA,NA,NA,NA,NA,NA,NA,NA,NA,NA,NA,NA,NA,NA,NA,NA,NA,NA,NA,NA,NA,NA,NA,NA,NA,NA,NA,NA,NA,NA,NA,NA,NA,NA,NA,NA,NA,NA,NA,NA,NA,NA,NA,NA,NA,NA,NA,NA,NA,NA,NA,NA,NA,NA
SUPAMT79304,3SNVL38CIAR0QPW3Y6ZG4K9QHJ5KCP,AFFCDF88-5C27-47DA-A4C7-439401BD8120,2023-09-28_14h03.40.872,WP_VExplicitOC_LH,2022.2.5,Win32,16.12903226,50.52083333,4.607,2.0689,0,0,0,2,1,bored,"bored, not bored","more bored, less bored",NA,NA,NA,NA,NA,NA,NA,NA,NA,NA,NA,NA,NA,NA,NA,NA,NA,NA,NA,NA,NA,NA,NA,NA,NA,NA,NA,NA,NA,NA,NA,NA,NA,NA,NA,NA,NA,NA,NA,NA,NA,NA,NA,NA,NA,NA,NA,NA
SUPAMT79304,3SNVL38CIAR0QPW3Y6ZG4K9QHJ5KCP,AFFCDF88-5C27-47DA-A4C7-439401BD8120,2023-09-28_14h03.40.872,WP_VExplicitOC_LH,2022.2.5,Win32,16.12903226,-84.89583333,5.6899,2.0601,0,1,1,1,1,frustrated,"frustrated, not frustrated","more frustrated, less frustrated",NA,NA,NA,NA,NA,NA,NA,NA,NA,NA,NA,NA,NA,NA,NA,NA,NA,NA,NA,NA,NA,NA,NA,NA,NA,NA,NA,NA,NA,NA,NA,NA,NA,NA,NA,NA,NA,NA,NA,NA,NA,NA,NA,NA,NA,NA,NA,NA
SUPAMT79304,3SNVL38CIAR0QPW3Y6ZG4K9QHJ5KCP,AFFCDF88-5C27-47DA-A4C7-439401BD8120,2023-09-28_14h03.40.872,WP_VExplicitOC_LH,2022.2.5,Win32,16.12903226,75.52083333,3.8493,2.0459,0,2,2,0,1,happy,"unhappy, happy","less happy, more happy",NA,NA,NA,NA,NA,NA,NA,NA,NA,NA,NA,NA,NA,NA,NA,NA,NA,NA,NA,NA,NA,NA,NA,NA,NA,NA,NA,NA,NA,NA,NA,NA,NA,NA,NA,NA,NA,NA,NA,NA,NA,NA,NA,NA,NA,NA,NA,NA
SUPAMT79304,3SNVL38CIAR0QPW3Y6ZG4K9QHJ5KCP,AFFCDF88-5C27-47DA-A4C7-439401BD8120,2023-09-28_14h03.40.872,WP_VExplicitOC_LH,2022.2.5,Win32,16.12903226,NA,NA,NA,NA,NA,NA,NA,NA,NA,NA,NA,NA,NA,NA,NA,NA,NA,NA,NA,NA,NA,NA,NA,NA,NA,NA,NA,NA,NA,NA,NA,NA,NA,NA,NA,NA,NA,NA,NA,NA,NA,NA,NA,NA,NA,NA,NA,NA,NA,NA,NA,NA,NA,NA,NA,NA,NA,NA,NA
SUPAMT79304,3SNVL38CIAR0QPW3Y6ZG4K9QHJ5KCP,AFFCDF88-5C27-47DA-A4C7-439401BD8120,2023-09-28_14h03.40.872,WP_VExplicitOC_LH,2022.2.5,Win32,16.12903226,NA,NA,NA,NA,NA,NA,NA,NA,NA,NA,NA,NA,NA,NA,NA,NA,NA,NA,NA,NA,NA,NA,NA,NA,NA,NA,NA,NA,NA,NA,NA,NA,NA,NA,NA,NA,NA,NA,NA,NA,NA,NA,NA,NA,NA,NA,NA,NA,NA,NA,NA,NA,NA,NA,NA,NA,NA,NA,NA
SUPAMT79304,3SNVL38CIAR0QPW3Y6ZG4K9QHJ5KCP,AFFCDF88-5C27-47DA-A4C7-439401BD8120,2023-09-28_14h03.40.872,WP_VExplicitOC_LH,2022.2.5,Win32,16.12903226,NA,NA,NA,NA,NA,NA,NA,NA,NA,NA,NA,NA,NA,NA,NA,NA,NA,NA,NA,NA,NA,NA,NA,NA,NA,NA,NA,NA,NA,NA,NA,NA,NA,NA,NA,NA,NA,NA,NA,NA,NA,NA,NA,NA,NA,NA,NA,NA,NA,NA,NA,NA,NA,NA,NA,NA,NA,NA,NA
SUPAMT79304,3SNVL38CIAR0QPW3Y6ZG4K9QHJ5KCP,AFFCDF88-5C27-47DA-A4C7-439401BD8120,2023-09-28_14h03.40.872,WP_VExplicitOC_LH,2022.2.5,Win32,16.12903226,NA,NA,NA,NA,NA,NA,NA,NA,NA,NA,NA,NA,NA,NA,NA,NA,NA,NA,NA,NA,NA,NA,NA,NA,NA,NA,NA,NA,NA,NA,NA,NA,NA,NA,NA,NA,NA,NA,NA,NA,NA,NA,NA,NA,NA,NA,NA,NA,NA,NA,NA,NA,NA,NA,NA,NA,NA,NA,NA
SUPAMT79304,3SNVL38CIAR0QPW3Y6ZG4K9QHJ5KCP,AFFCDF88-5C27-47DA-A4C7-439401BD8120,2023-09-28_14h03.40.872,WP_VExplicitOC_LH,2022.2.5,Win32,16.12903226,NA,NA,NA,NA,NA,NA,NA,NA,NA,NA,NA,66.66666667,3.9203,0,0,0,0,1,rest (looking at a fixed cross),001.png,NA,NA,NA,NA,NA,NA,NA,NA,NA,NA,NA,NA,NA,NA,NA,NA,NA,NA,NA,NA,NA,NA,NA,NA,NA,NA,NA,NA,NA,NA,NA,NA,NA,NA,NA,NA,NA,NA,NA
SUPAMT79304,3SNVL38CIAR0QPW3Y6ZG4K9QHJ5KCP,AFFCDF88-5C27-47DA-A4C7-439401BD8120,2023-09-28_14h03.40.872,WP_VExplicitOC_LH,2022.2.5,Win32,16.12903226,NA,NA,NA,NA,NA,NA,NA,NA,NA,NA,NA,NA,NA,0,1,1,1,1,stand up,002.png,NA,NA,NA,NA,NA,NA,NA,NA,NA,NA,NA,NA,NA,NA,NA,NA,NA,NA,NA,NA,NA,NA,NA,NA,NA,NA,NA,NA,NA,NA,NA,NA,NA,NA,NA,NA,NA,NA,NA
SUPAMT79304,3SNVL38CIAR0QPW3Y6ZG4K9QHJ5KCP,AFFCDF88-5C27-47DA-A4C7-439401BD8120,2023-09-28_14h03.40.872,WP_VExplicitOC_LH,2022.2.5,Win32,16.12903226,NA,NA,NA,NA,NA,NA,NA,NA,NA,NA,NA,NA,NA,0,2,2,2,1,stretch,003.png,NA,NA,NA,NA,NA,NA,NA,NA,NA,NA,NA,NA,NA,NA,NA,NA,NA,NA,NA,NA,NA,NA,NA,NA,NA,NA,NA,NA,NA,NA,NA,NA,NA,NA,NA,NA,NA,NA,NA
SUPAMT79304,3SNVL38CIAR0QPW3Y6ZG4K9QHJ5KCP,AFFCDF88-5C27-47DA-A4C7-439401BD8120,2023-09-28_14h03.40.872,WP_VExplicitOC_LH,2022.2.5,Win32,16.12903226,NA,NA,NA,NA,NA,NA,NA,NA,NA,NA,NA,69.27083333,2.6883,0,3,3,3,1,make a drink,004.png,NA,NA,NA,NA,NA,NA,NA,NA,NA,NA,NA,NA,NA,NA,NA,NA,NA,NA,NA,NA,NA,NA,NA,NA,NA,NA,NA,NA,NA,NA,NA,NA,NA,NA,NA,NA,NA,NA,NA
SUPAMT79304,3SNVL38CIAR0QPW3Y6ZG4K9QHJ5KCP,AFFCDF88-5C27-47DA-A4C7-439401BD8120,2023-09-28_14h03.40.872,WP_VExplicitOC_LH,2022.2.5,Win32,16.12903226,NA,NA,NA,NA,NA,NA,NA,NA,NA,NA,NA,88.80208333,6.9812,0,4,4,4,1,scroll social media,005.png,NA,NA,NA,NA,NA,NA,NA,NA,NA,NA,NA,NA,NA,NA,NA,NA,NA,NA,NA,NA,NA,NA,NA,NA,NA,NA,NA,NA,NA,NA,NA,NA,NA,NA,NA,NA,NA,NA,NA
SUPAMT79304,3SNVL38CIAR0QPW3Y6ZG4K9QHJ5KCP,AFFCDF88-5C27-47DA-A4C7-439401BD8120,2023-09-28_14h03.40.872,WP_VExplicitOC_LH,2022.2.5,Win32,16.12903226,NA,NA,NA,NA,NA,NA,NA,NA,NA,NA,NA,NA,NA,0,5,5,5,1,listen to music,006.png,NA,NA,NA,NA,NA,NA,NA,NA,NA,NA,NA,NA,NA,NA,NA,NA,NA,NA,NA,NA,NA,NA,NA,NA,NA,NA,NA,NA,NA,NA,NA,NA,NA,NA,NA,NA,NA,NA,NA
SUPAMT79304,3SNVL38CIAR0QPW3Y6ZG4K9QHJ5KCP,AFFCDF88-5C27-47DA-A4C7-439401BD8120,2023-09-28_14h03.40.872,WP_VExplicitOC_LH,2022.2.5,Win32,16.12903226,NA,NA,NA,NA,NA,NA,NA,NA,NA,NA,NA,77.60416667,1.8151,0,6,6,6,1,daydream,007.png,NA,NA,NA,NA,NA,NA,NA,NA,NA,NA,NA,NA,NA,NA,NA,NA,NA,NA,NA,NA,NA,NA,NA,NA,NA,NA,NA,NA,NA,NA,NA,NA,NA,NA,NA,NA,NA,NA,NA
SUPAMT79304,3SNVL38CIAR0QPW3Y6ZG4K9QHJ5KCP,AFFCDF88-5C27-47DA-A4C7-439401BD8120,2023-09-28_14h03.40.872,WP_VExplicitOC_LH,2022.2.5,Win32,16.12903226,NA,NA,NA,NA,NA,NA,NA,NA,NA,NA,NA,79.6875,1.333,0,7,7,7,1,watch a short animation,008.png,NA,NA,NA,NA,NA,NA,NA,NA,NA,NA,NA,NA,NA,NA,NA,NA,NA,NA,NA,NA,NA,NA,NA,NA,NA,NA,NA,NA,NA,NA,NA,NA,NA,NA,NA,NA,NA,NA,NA
SUPAMT79304,3SNVL38CIAR0QPW3Y6ZG4K9QHJ5KCP,AFFCDF88-5C27-47DA-A4C7-439401BD8120,2023-09-28_14h03.40.872,WP_VExplicitOC_LH,2022.2.5,Win32,16.12903226,NA,NA,NA,NA,NA,NA,NA,NA,NA,NA,NA,89.0625,1.2811,0,8,8,8,1,read a novel,009.png,NA,NA,NA,NA,NA,NA,NA,NA,NA,NA,NA,NA,NA,NA,NA,NA,NA,NA,NA,NA,NA,NA,NA,NA,NA,NA,NA,NA,NA,NA,NA,NA,NA,NA,NA,NA,NA,NA,NA
SUPAMT79304,3SNVL38CIAR0QPW3Y6ZG4K9QHJ5KCP,AFFCDF88-5C27-47DA-A4C7-439401BD8120,2023-09-28_14h03.40.872,WP_VExplicitOC_LH,2022.2.5,Win32,16.12903226,NA,NA,NA,NA,NA,NA,NA,NA,NA,NA,NA,100,1.2514,0,9,9,9,1,read the news,010.png,NA,NA,NA,NA,NA,NA,NA,NA,NA,NA,NA,NA,NA,NA,NA,NA,NA,NA,NA,NA,NA,NA,NA,NA,NA,NA,NA,NA,NA,NA,NA,NA,NA,NA,NA,NA,NA,NA,NA
SUPAMT79304,3SNVL38CIAR0QPW3Y6ZG4K9QHJ5KCP,AFFCDF88-5C27-47DA-A4C7-439401BD8120,2023-09-28_14h03.40.872,WP_VExplicitOC_LH,2022.2.5,Win32,16.12903226,NA,NA,NA,NA,NA,NA,NA,NA,NA,NA,NA,NA,NA,NA,NA,NA,NA,NA,NA,NA,NA,NA,NA,NA,NA,NA,NA,NA,NA,NA,NA,NA,NA,NA,NA,NA,NA,NA,NA,NA,NA,NA,NA,NA,NA,NA,NA,NA,NA,NA,NA,NA,NA,NA,NA,NA,NA,NA,NA
SUPAMT79304,3SNVL38CIAR0QPW3Y6ZG4K9QHJ5KCP,AFFCDF88-5C27-47DA-A4C7-439401BD8120,2023-09-28_14h03.40.872,WP_VExplicitOC_LH,2022.2.5,Win32,16.12903226,NA,NA,NA,NA,NA,NA,NA,NA,NA,NA,NA,NA,NA,NA,NA,NA,NA,NA,NA,NA,stand up,NA,NA,NA,NA,NA,NA,NA,NA,NA,NA,NA,NA,NA,NA,NA,NA,NA,NA,NA,NA,NA,NA,NA,NA,NA,NA,NA,NA,NA,NA,NA,NA,NA,NA,NA,NA,NA,NA
SUPAMT79304,3SNVL38CIAR0QPW3Y6ZG4K9QHJ5KCP,AFFCDF88-5C27-47DA-A4C7-439401BD8120,2023-09-28_14h03.40.872,WP_VExplicitOC_LH,2022.2.5,Win32,16.12903226,-91.66666667,4.7177,2.0711,NA,NA,NA,NA,NA,frustrated,"frustrated, not frustrated","more frustrated, less frustrated",NA,NA,NA,NA,NA,NA,NA,NA,NA,NA,0,0,0,1,1,NA,NA,NA,NA,NA,NA,NA,NA,NA,NA,NA,NA,NA,NA,NA,NA,NA,NA,NA,NA,NA,NA,NA,NA,NA,NA,NA,NA,NA,NA,NA,NA,NA
SUPAMT79304,3SNVL38CIAR0QPW3Y6ZG4K9QHJ5KCP,AFFCDF88-5C27-47DA-A4C7-439401BD8120,2023-09-28_14h03.40.872,WP_VExplicitOC_LH,2022.2.5,Win32,16.12903226,NA,NA,2.0506,NA,NA,NA,NA,NA,bored,"bored, not bored","more bored, less bored",NA,NA,NA,NA,NA,NA,NA,NA,NA,NA,0,1,1,2,1,NA,NA,NA,NA,NA,NA,NA,NA,NA,NA,NA,NA,NA,NA,NA,NA,NA,NA,NA,NA,NA,NA,NA,NA,NA,NA,NA,NA,NA,NA,NA,NA,NA
SUPAMT79304,3SNVL38CIAR0QPW3Y6ZG4K9QHJ5KCP,AFFCDF88-5C27-47DA-A4C7-439401BD8120,2023-09-28_14h03.40.872,WP_VExplicitOC_LH,2022.2.5,Win32,16.12903226,76.5625,6.0621,2.0668,NA,NA,NA,NA,NA,happy,"unhappy, happy","less happy, more happy",NA,NA,NA,NA,NA,NA,NA,NA,NA,NA,0,2,2,0,1,NA,NA,NA,NA,NA,NA,NA,NA,NA,NA,NA,NA,NA,NA,NA,NA,NA,NA,NA,NA,NA,NA,NA,NA,NA,NA,NA,NA,NA,NA,NA,NA,NA
SUPAMT79304,3SNVL38CIAR0QPW3Y6ZG4K9QHJ5KCP,AFFCDF88-5C27-47DA-A4C7-439401BD8120,2023-09-28_14h03.40.872,WP_VExplicitOC_LH,2022.2.5,Win32,16.12903226,NA,NA,NA,NA,NA,NA,NA,NA,NA,NA,NA,NA,NA,NA,NA,NA,NA,NA,NA,NA,NA,NA,NA,NA,NA,NA,NA,NA,NA,NA,NA,NA,NA,NA,NA,NA,NA,NA,NA,NA,NA,NA,NA,NA,NA,NA,NA,NA,NA,NA,NA,NA,NA,NA,NA,NA,NA,NA,NA
SUPAMT79304,3SNVL38CIAR0QPW3Y6ZG4K9QHJ5KCP,AFFCDF88-5C27-47DA-A4C7-439401BD8120,2023-09-28_14h03.40.872,WP_VExplicitOC_LH,2022.2.5,Win32,16.12903226,NA,NA,NA,NA,NA,NA,NA,NA,NA,NA,NA,NA,NA,NA,NA,NA,NA,NA,NA,NA,NA,NA,NA,NA,NA,NA,NA,NA,NA,NA,NA,NA,NA,NA,NA,NA,NA,NA,NA,NA,NA,NA,NA,NA,NA,NA,NA,NA,NA,NA,NA,NA,NA,NA,NA,NA,NA,NA,NA
SUPAMT79304,3SNVL38CIAR0QPW3Y6ZG4K9QHJ5KCP,AFFCDF88-5C27-47DA-A4C7-439401BD8120,2023-09-28_14h03.40.872,WP_VExplicitOC_LH,2022.2.5,Win32,16.12903226,100,4.7384,2.0384,NA,NA,NA,NA,NA,bored,"bored, not bored","more bored, less bored",NA,NA,NA,NA,NA,NA,NA,NA,NA,NA,NA,NA,NA,NA,NA,0,0,0,2,1,NA,NA,NA,NA,NA,NA,NA,NA,NA,NA,NA,NA,NA,NA,NA,NA,NA,NA,NA,NA,NA,NA,NA,NA,NA,NA,NA,NA
SUPAMT79304,3SNVL38CIAR0QPW3Y6ZG4K9QHJ5KCP,AFFCDF88-5C27-47DA-A4C7-439401BD8120,2023-09-28_14h03.40.872,WP_VExplicitOC_LH,2022.2.5,Win32,16.12903226,-100,4.6334,2.0248,NA,NA,NA,NA,NA,frustrated,"frustrated, not frustrated","more frustrated, less frustrated",NA,NA,NA,NA,NA,NA,NA,NA,NA,NA,NA,NA,NA,NA,NA,0,1,1,1,1,NA,NA,NA,NA,NA,NA,NA,NA,NA,NA,NA,NA,NA,NA,NA,NA,NA,NA,NA,NA,NA,NA,NA,NA,NA,NA,NA,NA
SUPAMT79304,3SNVL38CIAR0QPW3Y6ZG4K9QHJ5KCP,AFFCDF88-5C27-47DA-A4C7-439401BD8120,2023-09-28_14h03.40.872,WP_VExplicitOC_LH,2022.2.5,Win32,16.12903226,100,3.9712,2.0835,NA,NA,NA,NA,NA,happy,"unhappy, happy","less happy, more happy",NA,NA,NA,NA,NA,NA,NA,NA,NA,NA,NA,NA,NA,NA,NA,0,2,2,0,1,NA,NA,NA,NA,NA,NA,NA,NA,NA,NA,NA,NA,NA,NA,NA,NA,NA,NA,NA,NA,NA,NA,NA,NA,NA,NA,NA,NA
SUPAMT79304,3SNVL38CIAR0QPW3Y6ZG4K9QHJ5KCP,AFFCDF88-5C27-47DA-A4C7-439401BD8120,2023-09-28_14h03.40.872,WP_VExplicitOC_LH,2022.2.5,Win32,16.12903226,NA,NA,NA,NA,NA,NA,NA,NA,NA,NA,NA,NA,NA,NA,NA,NA,NA,NA,NA,NA,NA,NA,NA,NA,NA,NA,NA,NA,NA,NA,NA,0,0,0,0,1,NA,NA,NA,NA,NA,NA,NA,NA,NA,NA,NA,NA,NA,NA,NA,NA,NA,NA,NA,NA,NA,NA,NA
SUPAMT79304,3SNVL38CIAR0QPW3Y6ZG4K9QHJ5KCP,AFFCDF88-5C27-47DA-A4C7-439401BD8120,2023-09-28_14h03.40.872,WP_VExplicitOC_LH,2022.2.5,Win32,16.12903226,100,4.2763,2.0681,NA,NA,NA,NA,NA,bored,"bored, not bored","more bored, less bored",NA,NA,NA,NA,NA,NA,NA,NA,NA,NA,NA,NA,NA,NA,NA,0,0,0,2,1,NA,NA,NA,NA,NA,NA,NA,NA,NA,NA,NA,NA,NA,NA,NA,NA,NA,NA,NA,NA,NA,NA,NA,NA,NA,NA,NA,NA
SUPAMT79304,3SNVL38CIAR0QPW3Y6ZG4K9QHJ5KCP,AFFCDF88-5C27-47DA-A4C7-439401BD8120,2023-09-28_14h03.40.872,WP_VExplicitOC_LH,2022.2.5,Win32,16.12903226,100,4.2027,2.054,NA,NA,NA,NA,NA,happy,"unhappy, happy","less happy, more happy",NA,NA,NA,NA,NA,NA,NA,NA,NA,NA,NA,NA,NA,NA,NA,0,1,1,0,1,NA,NA,NA,NA,NA,NA,NA,NA,NA,NA,NA,NA,NA,NA,NA,NA,NA,NA,NA,NA,NA,NA,NA,NA,NA,NA,NA,NA
SUPAMT79304,3SNVL38CIAR0QPW3Y6ZG4K9QHJ5KCP,AFFCDF88-5C27-47DA-A4C7-439401BD8120,2023-09-28_14h03.40.872,WP_VExplicitOC_LH,2022.2.5,Win32,16.12903226,-100,4.4405,2.0417,NA,NA,NA,NA,NA,frustrated,"frustrated, not frustrated","more frustrated, less frustrated",NA,NA,NA,NA,NA,NA,NA,NA,NA,NA,NA,NA,NA,NA,NA,0,2,2,1,1,NA,NA,NA,NA,NA,NA,NA,NA,NA,NA,NA,NA,NA,NA,NA,NA,NA,NA,NA,NA,NA,NA,NA,NA,NA,NA,NA,NA
SUPAMT79304,3SNVL38CIAR0QPW3Y6ZG4K9QHJ5KCP,AFFCDF88-5C27-47DA-A4C7-439401BD8120,2023-09-28_14h03.40.872,WP_VExplicitOC_LH,2022.2.5,Win32,16.12903226,NA,NA,NA,NA,NA,NA,NA,NA,NA,NA,NA,NA,NA,NA,NA,NA,NA,NA,NA,NA,NA,NA,NA,NA,NA,NA,NA,NA,NA,NA,NA,1,0,1,0,1,NA,NA,NA,NA,NA,NA,NA,NA,NA,NA,NA,NA,NA,NA,NA,NA,NA,NA,NA,NA,NA,NA,NA
SUPAMT79304,3SNVL38CIAR0QPW3Y6ZG4K9QHJ5KCP,AFFCDF88-5C27-47DA-A4C7-439401BD8120,2023-09-28_14h03.40.872,WP_VExplicitOC_LH,2022.2.5,Win32,16.12903226,NA,NA,2.0535,NA,NA,NA,NA,NA,happy,"unhappy, happy","less happy, more happy",NA,NA,NA,NA,NA,NA,NA,NA,NA,NA,NA,NA,NA,NA,NA,0,0,0,0,1,NA,NA,NA,NA,NA,NA,NA,NA,NA,NA,NA,NA,NA,NA,NA,NA,NA,NA,NA,NA,NA,NA,NA,NA,NA,NA,NA,NA
SUPAMT79304,3SNVL38CIAR0QPW3Y6ZG4K9QHJ5KCP,AFFCDF88-5C27-47DA-A4C7-439401BD8120,2023-09-28_14h03.40.872,WP_VExplicitOC_LH,2022.2.5,Win32,16.12903226,NA,NA,2.0457,NA,NA,NA,NA,NA,bored,"bored, not bored","more bored, less bored",NA,NA,NA,NA,NA,NA,NA,NA,NA,NA,NA,NA,NA,NA,NA,0,1,1,2,1,NA,NA,NA,NA,NA,NA,NA,NA,NA,NA,NA,NA,NA,NA,NA,NA,NA,NA,NA,NA,NA,NA,NA,NA,NA,NA,NA,NA
SUPAMT79304,3SNVL38CIAR0QPW3Y6ZG4K9QHJ5KCP,AFFCDF88-5C27-47DA-A4C7-439401BD8120,2023-09-28_14h03.40.872,WP_VExplicitOC_LH,2022.2.5,Win32,16.12903226,-100,3.6968,2.0581,NA,NA,NA,NA,NA,frustrated,"frustrated, not frustrated","more frustrated, less frustrated",NA,NA,NA,NA,NA,NA,NA,NA,NA,NA,NA,NA,NA,NA,NA,0,2,2,1,1,NA,NA,NA,NA,NA,NA,NA,NA,NA,NA,NA,NA,NA,NA,NA,NA,NA,NA,NA,NA,NA,NA,NA,NA,NA,NA,NA,NA
SUPAMT79304,3SNVL38CIAR0QPW3Y6ZG4K9QHJ5KCP,AFFCDF88-5C27-47DA-A4C7-439401BD8120,2023-09-28_14h03.40.872,WP_VExplicitOC_LH,2022.2.5,Win32,16.12903226,NA,NA,NA,NA,NA,NA,NA,NA,NA,NA,NA,NA,NA,NA,NA,NA,NA,NA,NA,NA,NA,NA,NA,NA,NA,NA,NA,NA,NA,NA,NA,2,0,2,0,1,NA,NA,NA,NA,NA,NA,NA,NA,NA,NA,NA,NA,NA,NA,NA,NA,NA,NA,NA,NA,NA,NA,NA
SUPAMT79304,3SNVL38CIAR0QPW3Y6ZG4K9QHJ5KCP,AFFCDF88-5C27-47DA-A4C7-439401BD8120,2023-09-28_14h03.40.872,WP_VExplicitOC_LH,2022.2.5,Win32,16.12903226,-100,3.9822,2.0032,NA,NA,NA,NA,NA,bored,"bored, not bored","more bored, less bored",NA,NA,NA,NA,NA,NA,NA,NA,NA,NA,NA,NA,NA,NA,NA,0,0,0,2,1,NA,NA,NA,NA,NA,NA,NA,NA,NA,NA,NA,NA,NA,NA,NA,NA,NA,NA,NA,NA,NA,NA,NA,NA,NA,NA,NA,NA
SUPAMT79304,3SNVL38CIAR0QPW3Y6ZG4K9QHJ5KCP,AFFCDF88-5C27-47DA-A4C7-439401BD8120,2023-09-28_14h03.40.872,WP_VExplicitOC_LH,2022.2.5,Win32,16.12903226,100,4.0196,2.0104,NA,NA,NA,NA,NA,frustrated,"frustrated, not frustrated","more frustrated, less frustrated",NA,NA,NA,NA,NA,NA,NA,NA,NA,NA,NA,NA,NA,NA,NA,0,1,1,1,1,NA,NA,NA,NA,NA,NA,NA,NA,NA,NA,NA,NA,NA,NA,NA,NA,NA,NA,NA,NA,NA,NA,NA,NA,NA,NA,NA,NA
SUPAMT79304,3SNVL38CIAR0QPW3Y6ZG4K9QHJ5KCP,AFFCDF88-5C27-47DA-A4C7-439401BD8120,2023-09-28_14h03.40.872,WP_VExplicitOC_LH,2022.2.5,Win32,16.12903226,NA,NA,2.0251,NA,NA,NA,NA,NA,happy,"unhappy, happy","less happy, more happy",NA,NA,NA,NA,NA,NA,NA,NA,NA,NA,NA,NA,NA,NA,NA,0,2,2,0,1,NA,NA,NA,NA,NA,NA,NA,NA,NA,NA,NA,NA,NA,NA,NA,NA,NA,NA,NA,NA,NA,NA,NA,NA,NA,NA,NA,NA
SUPAMT79304,3SNVL38CIAR0QPW3Y6ZG4K9QHJ5KCP,AFFCDF88-5C27-47DA-A4C7-439401BD8120,2023-09-28_14h03.40.872,WP_VExplicitOC_LH,2022.2.5,Win32,16.12903226,NA,NA,NA,NA,NA,NA,NA,NA,NA,NA,NA,NA,NA,NA,NA,NA,NA,NA,NA,NA,NA,NA,NA,NA,NA,NA,NA,NA,NA,NA,NA,3,0,3,0,1,NA,NA,NA,NA,NA,NA,NA,NA,NA,NA,NA,NA,NA,NA,NA,NA,NA,NA,NA,NA,NA,NA,NA
SUPAMT79304,3SNVL38CIAR0QPW3Y6ZG4K9QHJ5KCP,AFFCDF88-5C27-47DA-A4C7-439401BD8120,2023-09-28_14h03.40.872,WP_VExplicitOC_LH,2022.2.5,Win32,16.12903226,-100,5.0477,2.0334,NA,NA,NA,NA,NA,frustrated,"frustrated, not frustrated","more frustrated, less frustrated",NA,NA,NA,NA,NA,NA,NA,NA,NA,NA,NA,NA,NA,NA,NA,0,0,0,1,1,NA,NA,NA,NA,NA,NA,NA,NA,NA,NA,NA,NA,NA,NA,NA,NA,NA,NA,NA,NA,NA,NA,NA,NA,NA,NA,NA,NA
SUPAMT79304,3SNVL38CIAR0QPW3Y6ZG4K9QHJ5KCP,AFFCDF88-5C27-47DA-A4C7-439401BD8120,2023-09-28_14h03.40.872,WP_VExplicitOC_LH,2022.2.5,Win32,16.12903226,NA,NA,2.0021,NA,NA,NA,NA,NA,bored,"bored, not bored","more bored, less bored",NA,NA,NA,NA,NA,NA,NA,NA,NA,NA,NA,NA,NA,NA,NA,0,1,1,2,1,NA,NA,NA,NA,NA,NA,NA,NA,NA,NA,NA,NA,NA,NA,NA,NA,NA,NA,NA,NA,NA,NA,NA,NA,NA,NA,NA,NA
SUPAMT79304,3SNVL38CIAR0QPW3Y6ZG4K9QHJ5KCP,AFFCDF88-5C27-47DA-A4C7-439401BD8120,2023-09-28_14h03.40.872,WP_VExplicitOC_LH,2022.2.5,Win32,16.12903226,-100,4.0258,2.0205,NA,NA,NA,NA,NA,happy,"unhappy, happy","less happy, more happy",NA,NA,NA,NA,NA,NA,NA,NA,NA,NA,NA,NA,NA,NA,NA,0,2,2,0,1,NA,NA,NA,NA,NA,NA,NA,NA,NA,NA,NA,NA,NA,NA,NA,NA,NA,NA,NA,NA,NA,NA,NA,NA,NA,NA,NA,NA
SUPAMT79304,3SNVL38CIAR0QPW3Y6ZG4K9QHJ5KCP,AFFCDF88-5C27-47DA-A4C7-439401BD8120,2023-09-28_14h03.40.872,WP_VExplicitOC_LH,2022.2.5,Win32,16.12903226,NA,NA,NA,NA,NA,NA,NA,NA,NA,NA,NA,NA,NA,NA,NA,NA,NA,NA,NA,NA,NA,NA,NA,NA,NA,NA,NA,NA,NA,NA,NA,4,0,4,0,1,NA,NA,NA,NA,NA,NA,NA,NA,NA,NA,NA,NA,NA,NA,NA,NA,NA,NA,NA,NA,NA,NA,NA
SUPAMT79304,3SNVL38CIAR0QPW3Y6ZG4K9QHJ5KCP,AFFCDF88-5C27-47DA-A4C7-439401BD8120,2023-09-28_14h03.40.872,WP_VExplicitOC_LH,2022.2.5,Win32,16.12903226,100,4.0681,2.0327,NA,NA,NA,NA,NA,happy,"unhappy, happy","less happy, more happy",NA,NA,NA,NA,NA,NA,NA,NA,NA,NA,NA,NA,NA,NA,NA,0,0,0,0,1,NA,NA,NA,NA,NA,NA,NA,NA,NA,NA,NA,NA,NA,NA,NA,NA,NA,NA,NA,NA,NA,NA,NA,NA,NA,NA,NA,NA
SUPAMT79304,3SNVL38CIAR0QPW3Y6ZG4K9QHJ5KCP,AFFCDF88-5C27-47DA-A4C7-439401BD8120,2023-09-28_14h03.40.872,WP_VExplicitOC_LH,2022.2.5,Win32,16.12903226,NA,NA,2.0464,NA,NA,NA,NA,NA,frustrated,"frustrated, not frustrated","more frustrated, less frustrated",NA,NA,NA,NA,NA,NA,NA,NA,NA,NA,NA,NA,NA,NA,NA,0,1,1,1,1,NA,NA,NA,NA,NA,NA,NA,NA,NA,NA,NA,NA,NA,NA,NA,NA,NA,NA,NA,NA,NA,NA,NA,NA,NA,NA,NA,NA
SUPAMT79304,3SNVL38CIAR0QPW3Y6ZG4K9QHJ5KCP,AFFCDF88-5C27-47DA-A4C7-439401BD8120,2023-09-28_14h03.40.872,WP_VExplicitOC_LH,2022.2.5,Win32,16.12903226,100,5.1006,2.0532,NA,NA,NA,NA,NA,bored,"bored, not bored","more bored, less bored",NA,NA,NA,NA,NA,NA,NA,NA,NA,NA,NA,NA,NA,NA,NA,0,2,2,2,1,NA,NA,NA,NA,NA,NA,NA,NA,NA,NA,NA,NA,NA,NA,NA,NA,NA,NA,NA,NA,NA,NA,NA,NA,NA,NA,NA,NA
SUPAMT79304,3SNVL38CIAR0QPW3Y6ZG4K9QHJ5KCP,AFFCDF88-5C27-47DA-A4C7-439401BD8120,2023-09-28_14h03.40.872,WP_VExplicitOC_LH,2022.2.5,Win32,16.12903226,NA,NA,NA,NA,NA,NA,NA,NA,NA,NA,NA,NA,NA,NA,NA,NA,NA,NA,NA,NA,NA,NA,NA,NA,NA,NA,NA,NA,NA,NA,NA,5,0,5,0,1,NA,NA,NA,NA,NA,NA,NA,NA,NA,NA,NA,NA,NA,NA,NA,NA,NA,NA,NA,NA,NA,NA,NA
SUPAMT79304,3SNVL38CIAR0QPW3Y6ZG4K9QHJ5KCP,AFFCDF88-5C27-47DA-A4C7-439401BD8120,2023-09-28_14h03.40.872,WP_VExplicitOC_LH,2022.2.5,Win32,16.12903226,-69.53125,3.7084,2.061,NA,NA,NA,NA,NA,frustrated,"frustrated, not frustrated","more frustrated, less frustrated",NA,NA,NA,NA,NA,NA,NA,NA,NA,NA,NA,NA,NA,NA,NA,0,0,0,1,1,NA,NA,NA,NA,NA,NA,NA,NA,NA,NA,NA,NA,NA,NA,NA,NA,NA,NA,NA,NA,NA,NA,NA,NA,NA,NA,NA,NA
SUPAMT79304,3SNVL38CIAR0QPW3Y6ZG4K9QHJ5KCP,AFFCDF88-5C27-47DA-A4C7-439401BD8120,2023-09-28_14h03.40.872,WP_VExplicitOC_LH,2022.2.5,Win32,16.12903226,85.9375,4.0473,2.0205,NA,NA,NA,NA,NA,happy,"unhappy, happy","less happy, more happy",NA,NA,NA,NA,NA,NA,NA,NA,NA,NA,NA,NA,NA,NA,NA,0,1,1,0,1,NA,NA,NA,NA,NA,NA,NA,NA,NA,NA,NA,NA,NA,NA,NA,NA,NA,NA,NA,NA,NA,NA,NA,NA,NA,NA,NA,NA
SUPAMT79304,3SNVL38CIAR0QPW3Y6ZG4K9QHJ5KCP,AFFCDF88-5C27-47DA-A4C7-439401BD8120,2023-09-28_14h03.40.872,WP_VExplicitOC_LH,2022.2.5,Win32,16.12903226,-100,4.4054,2.0446,NA,NA,NA,NA,NA,bored,"bored, not bored","more bored, less bored",NA,NA,NA,NA,NA,NA,NA,NA,NA,NA,NA,NA,NA,NA,NA,0,2,2,2,1,NA,NA,NA,NA,NA,NA,NA,NA,NA,NA,NA,NA,NA,NA,NA,NA,NA,NA,NA,NA,NA,NA,NA,NA,NA,NA,NA,NA
SUPAMT79304,3SNVL38CIAR0QPW3Y6ZG4K9QHJ5KCP,AFFCDF88-5C27-47DA-A4C7-439401BD8120,2023-09-28_14h03.40.872,WP_VExplicitOC_LH,2022.2.5,Win32,16.12903226,NA,NA,NA,NA,NA,NA,NA,NA,NA,NA,NA,NA,NA,NA,NA,NA,NA,NA,NA,NA,NA,NA,NA,NA,NA,NA,NA,NA,NA,NA,NA,6,0,6,0,1,NA,NA,NA,NA,NA,NA,NA,NA,NA,NA,NA,NA,NA,NA,NA,NA,NA,NA,NA,NA,NA,NA,NA
SUPAMT79304,3SNVL38CIAR0QPW3Y6ZG4K9QHJ5KCP,AFFCDF88-5C27-47DA-A4C7-439401BD8120,2023-09-28_14h03.40.872,WP_VExplicitOC_LH,2022.2.5,Win32,16.12903226,-100,6.8515,2.052,NA,NA,NA,NA,NA,frustrated,"frustrated, not frustrated","more frustrated, less frustrated",NA,NA,NA,NA,NA,NA,NA,NA,NA,NA,NA,NA,NA,NA,NA,0,0,0,1,1,NA,NA,NA,NA,NA,NA,NA,NA,NA,NA,NA,NA,NA,NA,NA,NA,NA,NA,NA,NA,NA,NA,NA,NA,NA,NA,NA,NA
SUPAMT79304,3SNVL38CIAR0QPW3Y6ZG4K9QHJ5KCP,AFFCDF88-5C27-47DA-A4C7-439401BD8120,2023-09-28_14h03.40.872,WP_VExplicitOC_LH,2022.2.5,Win32,16.12903226,NA,NA,2.0421,NA,NA,NA,NA,NA,happy,"unhappy, happy","less happy, more happy",NA,NA,NA,NA,NA,NA,NA,NA,NA,NA,NA,NA,NA,NA,NA,0,1,1,0,1,NA,NA,NA,NA,NA,NA,NA,NA,NA,NA,NA,NA,NA,NA,NA,NA,NA,NA,NA,NA,NA,NA,NA,NA,NA,NA,NA,NA
SUPAMT79304,3SNVL38CIAR0QPW3Y6ZG4K9QHJ5KCP,AFFCDF88-5C27-47DA-A4C7-439401BD8120,2023-09-28_14h03.40.872,WP_VExplicitOC_LH,2022.2.5,Win32,16.12903226,-71.875,3.4155,2.028,NA,NA,NA,NA,NA,bored,"bored, not bored","more bored, less bored",NA,NA,NA,NA,NA,NA,NA,NA,NA,NA,NA,NA,NA,NA,NA,0,2,2,2,1,NA,NA,NA,NA,NA,NA,NA,NA,NA,NA,NA,NA,NA,NA,NA,NA,NA,NA,NA,NA,NA,NA,NA,NA,NA,NA,NA,NA
SUPAMT79304,3SNVL38CIAR0QPW3Y6ZG4K9QHJ5KCP,AFFCDF88-5C27-47DA-A4C7-439401BD8120,2023-09-28_14h03.40.872,WP_VExplicitOC_LH,2022.2.5,Win32,16.12903226,NA,NA,NA,NA,NA,NA,NA,NA,NA,NA,NA,NA,NA,NA,NA,NA,NA,NA,NA,NA,NA,NA,NA,NA,NA,NA,NA,NA,NA,NA,NA,7,0,7,0,1,NA,NA,NA,NA,NA,NA,NA,NA,NA,NA,NA,NA,NA,NA,NA,NA,NA,NA,NA,NA,NA,NA,NA
SUPAMT79304,3SNVL38CIAR0QPW3Y6ZG4K9QHJ5KCP,AFFCDF88-5C27-47DA-A4C7-439401BD8120,2023-09-28_14h03.40.872,WP_VExplicitOC_LH,2022.2.5,Win32,16.12903226,97.39583333,4.4476,2.0597,NA,NA,NA,NA,NA,bored,"bored, not bored","more bored, less bored",NA,NA,NA,NA,NA,NA,NA,NA,NA,NA,NA,NA,NA,NA,NA,0,0,0,2,1,NA,NA,NA,NA,NA,NA,NA,NA,NA,NA,NA,NA,NA,NA,NA,NA,NA,NA,NA,NA,NA,NA,NA,NA,NA,NA,NA,NA
SUPAMT79304,3SNVL38CIAR0QPW3Y6ZG4K9QHJ5KCP,AFFCDF88-5C27-47DA-A4C7-439401BD8120,2023-09-28_14h03.40.872,WP_VExplicitOC_LH,2022.2.5,Win32,16.12903226,100,4.0632,2.0025,NA,NA,NA,NA,NA,happy,"unhappy, happy","less happy, more happy",NA,NA,NA,NA,NA,NA,NA,NA,NA,NA,NA,NA,NA,NA,NA,0,1,1,0,1,NA,NA,NA,NA,NA,NA,NA,NA,NA,NA,NA,NA,NA,NA,NA,NA,NA,NA,NA,NA,NA,NA,NA,NA,NA,NA,NA,NA
SUPAMT79304,3SNVL38CIAR0QPW3Y6ZG4K9QHJ5KCP,AFFCDF88-5C27-47DA-A4C7-439401BD8120,2023-09-28_14h03.40.872,WP_VExplicitOC_LH,2022.2.5,Win32,16.12903226,-100,4.2702,2.0094,NA,NA,NA,NA,NA,frustrated,"frustrated, not frustrated","more frustrated, less frustrated",NA,NA,NA,NA,NA,NA,NA,NA,NA,NA,NA,NA,NA,NA,NA,0,2,2,1,1,NA,NA,NA,NA,NA,NA,NA,NA,NA,NA,NA,NA,NA,NA,NA,NA,NA,NA,NA,NA,NA,NA,NA,NA,NA,NA,NA,NA
SUPAMT79304,3SNVL38CIAR0QPW3Y6ZG4K9QHJ5KCP,AFFCDF88-5C27-47DA-A4C7-439401BD8120,2023-09-28_14h03.40.872,WP_VExplicitOC_LH,2022.2.5,Win32,16.12903226,NA,NA,NA,NA,NA,NA,NA,NA,NA,NA,NA,NA,NA,NA,NA,NA,NA,NA,NA,NA,NA,NA,NA,NA,NA,NA,NA,NA,NA,NA,NA,8,0,8,0,1,NA,NA,NA,NA,NA,NA,NA,NA,NA,NA,NA,NA,NA,NA,NA,NA,NA,NA,NA,NA,NA,NA,NA
SUPAMT79304,3SNVL38CIAR0QPW3Y6ZG4K9QHJ5KCP,AFFCDF88-5C27-47DA-A4C7-439401BD8120,2023-09-28_14h03.40.872,WP_VExplicitOC_LH,2022.2.5,Win32,16.12903226,100,3.8762,2.0408,NA,NA,NA,NA,NA,happy,"unhappy, happy","less happy, more happy",NA,NA,NA,NA,NA,NA,NA,NA,NA,NA,NA,NA,NA,NA,NA,0,0,0,0,1,NA,NA,NA,NA,NA,NA,NA,NA,NA,NA,NA,NA,NA,NA,NA,NA,NA,NA,NA,NA,NA,NA,NA,NA,NA,NA,NA,NA
SUPAMT79304,3SNVL38CIAR0QPW3Y6ZG4K9QHJ5KCP,AFFCDF88-5C27-47DA-A4C7-439401BD8120,2023-09-28_14h03.40.872,WP_VExplicitOC_LH,2022.2.5,Win32,16.12903226,100,5.822,2.0404,NA,NA,NA,NA,NA,frustrated,"frustrated, not frustrated","more frustrated, less frustrated",NA,NA,NA,NA,NA,NA,NA,NA,NA,NA,NA,NA,NA,NA,NA,0,1,1,1,1,NA,NA,NA,NA,NA,NA,NA,NA,NA,NA,NA,NA,NA,NA,NA,NA,NA,NA,NA,NA,NA,NA,NA,NA,NA,NA,NA,NA
SUPAMT79304,3SNVL38CIAR0QPW3Y6ZG4K9QHJ5KCP,AFFCDF88-5C27-47DA-A4C7-439401BD8120,2023-09-28_14h03.40.872,WP_VExplicitOC_LH,2022.2.5,Win32,16.12903226,-100,5.0506,2.0451,NA,NA,NA,NA,NA,bored,"bored, not bored","more bored, less bored",NA,NA,NA,NA,NA,NA,NA,NA,NA,NA,NA,NA,NA,NA,NA,0,2,2,2,1,NA,NA,NA,NA,NA,NA,NA,NA,NA,NA,NA,NA,NA,NA,NA,NA,NA,NA,NA,NA,NA,NA,NA,NA,NA,NA,NA,NA
SUPAMT79304,3SNVL38CIAR0QPW3Y6ZG4K9QHJ5KCP,AFFCDF88-5C27-47DA-A4C7-439401BD8120,2023-09-28_14h03.40.872,WP_VExplicitOC_LH,2022.2.5,Win32,16.12903226,NA,NA,NA,NA,NA,NA,NA,NA,NA,NA,NA,NA,NA,NA,NA,NA,NA,NA,NA,NA,NA,NA,NA,NA,NA,NA,NA,NA,NA,NA,NA,9,0,9,0,1,NA,NA,NA,NA,NA,NA,NA,NA,NA,NA,NA,NA,NA,NA,NA,NA,NA,NA,NA,NA,NA,NA,NA
SUPAMT79304,3SNVL38CIAR0QPW3Y6ZG4K9QHJ5KCP,AFFCDF88-5C27-47DA-A4C7-439401BD8120,2023-09-28_14h03.40.872,WP_VExplicitOC_LH,2022.2.5,Win32,16.12903226,100,5.1669,2.0272,NA,NA,NA,NA,NA,frustrated,"frustrated, not frustrated","more frustrated, less frustrated",NA,NA,NA,NA,NA,NA,NA,NA,NA,NA,NA,NA,NA,NA,NA,0,0,0,1,1,NA,NA,NA,NA,NA,NA,NA,NA,NA,NA,NA,NA,NA,NA,NA,NA,NA,NA,NA,NA,NA,NA,NA,NA,NA,NA,NA,NA
SUPAMT79304,3SNVL38CIAR0QPW3Y6ZG4K9QHJ5KCP,AFFCDF88-5C27-47DA-A4C7-439401BD8120,2023-09-28_14h03.40.872,WP_VExplicitOC_LH,2022.2.5,Win32,16.12903226,100,4.5656,2.048,NA,NA,NA,NA,NA,happy,"unhappy, happy","less happy, more happy",NA,NA,NA,NA,NA,NA,NA,NA,NA,NA,NA,NA,NA,NA,NA,0,1,1,0,1,NA,NA,NA,NA,NA,NA,NA,NA,NA,NA,NA,NA,NA,NA,NA,NA,NA,NA,NA,NA,NA,NA,NA,NA,NA,NA,NA,NA
SUPAMT79304,3SNVL38CIAR0QPW3Y6ZG4K9QHJ5KCP,AFFCDF88-5C27-47DA-A4C7-439401BD8120,2023-09-28_14h03.40.872,WP_VExplicitOC_LH,2022.2.5,Win32,16.12903226,100,4.7915,2.0309,NA,NA,NA,NA,NA,bored,"bored, not bored","more bored, less bored",NA,NA,NA,NA,NA,NA,NA,NA,NA,NA,NA,NA,NA,NA,NA,0,2,2,2,1,NA,NA,NA,NA,NA,NA,NA,NA,NA,NA,NA,NA,NA,NA,NA,NA,NA,NA,NA,NA,NA,NA,NA,NA,NA,NA,NA,NA
SUPAMT79304,3SNVL38CIAR0QPW3Y6ZG4K9QHJ5KCP,AFFCDF88-5C27-47DA-A4C7-439401BD8120,2023-09-28_14h03.40.872,WP_VExplicitOC_LH,2022.2.5,Win32,16.12903226,NA,NA,NA,NA,NA,NA,NA,NA,NA,NA,NA,NA,NA,NA,NA,NA,NA,NA,NA,NA,NA,NA,NA,NA,NA,NA,NA,NA,NA,NA,NA,10,0,10,0,1,NA,NA,NA,NA,NA,NA,NA,NA,NA,NA,NA,NA,NA,NA,NA,NA,NA,NA,NA,NA,NA,NA,NA
SUPAMT79304,3SNVL38CIAR0QPW3Y6ZG4K9QHJ5KCP,AFFCDF88-5C27-47DA-A4C7-439401BD8120,2023-09-28_14h03.40.872,WP_VExplicitOC_LH,2022.2.5,Win32,16.12903226,-89.84375,6.9176,2.0367,NA,NA,NA,NA,NA,bored,"bored, not bored","more bored, less bored",NA,NA,NA,NA,NA,NA,NA,NA,NA,NA,NA,NA,NA,NA,NA,0,0,0,2,1,NA,NA,NA,NA,NA,NA,NA,NA,NA,NA,NA,NA,NA,NA,NA,NA,NA,NA,NA,NA,NA,NA,NA,NA,NA,NA,NA,NA
SUPAMT79304,3SNVL38CIAR0QPW3Y6ZG4K9QHJ5KCP,AFFCDF88-5C27-47DA-A4C7-439401BD8120,2023-09-28_14h03.40.872,WP_VExplicitOC_LH,2022.2.5,Win32,16.12903226,-100,4.5838,2.0468,NA,NA,NA,NA,NA,frustrated,"frustrated, not frustrated","more frustrated, less frustrated",NA,NA,NA,NA,NA,NA,NA,NA,NA,NA,NA,NA,NA,NA,NA,0,1,1,1,1,NA,NA,NA,NA,NA,NA,NA,NA,NA,NA,NA,NA,NA,NA,NA,NA,NA,NA,NA,NA,NA,NA,NA,NA,NA,NA,NA,NA
SUPAMT79304,3SNVL38CIAR0QPW3Y6ZG4K9QHJ5KCP,AFFCDF88-5C27-47DA-A4C7-439401BD8120,2023-09-28_14h03.40.872,WP_VExplicitOC_LH,2022.2.5,Win32,16.12903226,-72.39583333,5.1781,2.0608,NA,NA,NA,NA,NA,happy,"unhappy, happy","less happy, more happy",NA,NA,NA,NA,NA,NA,NA,NA,NA,NA,NA,NA,NA,NA,NA,0,2,2,0,1,NA,NA,NA,NA,NA,NA,NA,NA,NA,NA,NA,NA,NA,NA,NA,NA,NA,NA,NA,NA,NA,NA,NA,NA,NA,NA,NA,NA
SUPAMT79304,3SNVL38CIAR0QPW3Y6ZG4K9QHJ5KCP,AFFCDF88-5C27-47DA-A4C7-439401BD8120,2023-09-28_14h03.40.872,WP_VExplicitOC_LH,2022.2.5,Win32,16.12903226,NA,NA,NA,NA,NA,NA,NA,NA,NA,NA,NA,NA,NA,NA,NA,NA,NA,NA,NA,NA,NA,NA,NA,NA,NA,NA,NA,NA,NA,NA,NA,11,0,11,0,1,NA,NA,NA,NA,NA,NA,NA,NA,NA,NA,NA,NA,NA,NA,NA,NA,NA,NA,NA,NA,NA,NA,NA
SUPAMT79304,3SNVL38CIAR0QPW3Y6ZG4K9QHJ5KCP,AFFCDF88-5C27-47DA-A4C7-439401BD8120,2023-09-28_14h03.40.872,WP_VExplicitOC_LH,2022.2.5,Win32,16.12903226,-100,6.5053,2.0628,NA,NA,NA,NA,NA,frustrated,"frustrated, not frustrated","more frustrated, less frustrated",NA,NA,NA,NA,NA,NA,NA,NA,NA,NA,NA,NA,NA,NA,NA,0,0,0,1,1,NA,NA,NA,NA,NA,NA,NA,NA,NA,NA,NA,NA,NA,NA,NA,NA,NA,NA,NA,NA,NA,NA,NA,NA,NA,NA,NA,NA
SUPAMT79304,3SNVL38CIAR0QPW3Y6ZG4K9QHJ5KCP,AFFCDF88-5C27-47DA-A4C7-439401BD8120,2023-09-28_14h03.40.872,WP_VExplicitOC_LH,2022.2.5,Win32,16.12903226,-100,4.2573,2.0528,NA,NA,NA,NA,NA,bored,"bored, not bored","more bored, less bored",NA,NA,NA,NA,NA,NA,NA,NA,NA,NA,NA,NA,NA,NA,NA,0,1,1,2,1,NA,NA,NA,NA,NA,NA,NA,NA,NA,NA,NA,NA,NA,NA,NA,NA,NA,NA,NA,NA,NA,NA,NA,NA,NA,NA,NA,NA
SUPAMT79304,3SNVL38CIAR0QPW3Y6ZG4K9QHJ5KCP,AFFCDF88-5C27-47DA-A4C7-439401BD8120,2023-09-28_14h03.40.872,WP_VExplicitOC_LH,2022.2.5,Win32,16.12903226,-100,3.5806,2.039,NA,NA,NA,NA,NA,happy,"unhappy, happy","less happy, more happy",NA,NA,NA,NA,NA,NA,NA,NA,NA,NA,NA,NA,NA,NA,NA,0,2,2,0,1,NA,NA,NA,NA,NA,NA,NA,NA,NA,NA,NA,NA,NA,NA,NA,NA,NA,NA,NA,NA,NA,NA,NA,NA,NA,NA,NA,NA
SUPAMT79304,3SNVL38CIAR0QPW3Y6ZG4K9QHJ5KCP,AFFCDF88-5C27-47DA-A4C7-439401BD8120,2023-09-28_14h03.40.872,WP_VExplicitOC_LH,2022.2.5,Win32,16.12903226,NA,NA,NA,NA,NA,NA,NA,NA,NA,NA,NA,NA,NA,NA,NA,NA,NA,NA,NA,NA,NA,NA,NA,NA,NA,NA,NA,NA,NA,NA,NA,12,0,12,0,1,NA,NA,NA,NA,NA,NA,NA,NA,NA,NA,NA,NA,NA,NA,NA,NA,NA,NA,NA,NA,NA,NA,NA
SUPAMT79304,3SNVL38CIAR0QPW3Y6ZG4K9QHJ5KCP,AFFCDF88-5C27-47DA-A4C7-439401BD8120,2023-09-28_14h03.40.872,WP_VExplicitOC_LH,2022.2.5,Win32,16.12903226,98.4375,6.1781,2.0624,NA,NA,NA,NA,NA,frustrated,"frustrated, not frustrated","more frustrated, less frustrated",NA,NA,NA,NA,NA,NA,NA,NA,NA,NA,NA,NA,NA,NA,NA,0,0,0,1,1,NA,NA,NA,NA,NA,NA,NA,NA,NA,NA,NA,NA,NA,NA,NA,NA,NA,NA,NA,NA,NA,NA,NA,NA,NA,NA,NA,NA
SUPAMT79304,3SNVL38CIAR0QPW3Y6ZG4K9QHJ5KCP,AFFCDF88-5C27-47DA-A4C7-439401BD8120,2023-09-28_14h03.40.872,WP_VExplicitOC_LH,2022.2.5,Win32,16.12903226,100,3.7862,2.0186,NA,NA,NA,NA,NA,happy,"unhappy, happy","less happy, more happy",NA,NA,NA,NA,NA,NA,NA,NA,NA,NA,NA,NA,NA,NA,NA,0,1,1,0,1,NA,NA,NA,NA,NA,NA,NA,NA,NA,NA,NA,NA,NA,NA,NA,NA,NA,NA,NA,NA,NA,NA,NA,NA,NA,NA,NA,NA
SUPAMT79304,3SNVL38CIAR0QPW3Y6ZG4K9QHJ5KCP,AFFCDF88-5C27-47DA-A4C7-439401BD8120,2023-09-28_14h03.40.872,WP_VExplicitOC_LH,2022.2.5,Win32,16.12903226,100,3.2841,2.0446,NA,NA,NA,NA,NA,bored,"bored, not bored","more bored, less bored",NA,NA,NA,NA,NA,NA,NA,NA,NA,NA,NA,NA,NA,NA,NA,0,2,2,2,1,NA,NA,NA,NA,NA,NA,NA,NA,NA,NA,NA,NA,NA,NA,NA,NA,NA,NA,NA,NA,NA,NA,NA,NA,NA,NA,NA,NA
SUPAMT79304,3SNVL38CIAR0QPW3Y6ZG4K9QHJ5KCP,AFFCDF88-5C27-47DA-A4C7-439401BD8120,2023-09-28_14h03.40.872,WP_VExplicitOC_LH,2022.2.5,Win32,16.12903226,NA,NA,NA,NA,NA,NA,NA,NA,NA,NA,NA,NA,NA,NA,NA,NA,NA,NA,NA,NA,NA,NA,NA,NA,NA,NA,NA,NA,NA,NA,NA,13,0,13,0,1,NA,NA,NA,NA,NA,NA,NA,NA,NA,NA,NA,NA,NA,NA,NA,NA,NA,NA,NA,NA,NA,NA,NA
SUPAMT79304,3SNVL38CIAR0QPW3Y6ZG4K9QHJ5KCP,AFFCDF88-5C27-47DA-A4C7-439401BD8120,2023-09-28_14h03.40.872,WP_VExplicitOC_LH,2022.2.5,Win32,16.12903226,100,3.6154,2.0293,NA,NA,NA,NA,NA,bored,"bored, not bored","more bored, less bored",NA,NA,NA,NA,NA,NA,NA,NA,NA,NA,NA,NA,NA,NA,NA,0,0,0,2,1,NA,NA,NA,NA,NA,NA,NA,NA,NA,NA,NA,NA,NA,NA,NA,NA,NA,NA,NA,NA,NA,NA,NA,NA,NA,NA,NA,NA
SUPAMT79304,3SNVL38CIAR0QPW3Y6ZG4K9QHJ5KCP,AFFCDF88-5C27-47DA-A4C7-439401BD8120,2023-09-28_14h03.40.872,WP_VExplicitOC_LH,2022.2.5,Win32,16.12903226,100,5.2263,2.0628,NA,NA,NA,NA,NA,happy,"unhappy, happy","less happy, more happy",NA,NA,NA,NA,NA,NA,NA,NA,NA,NA,NA,NA,NA,NA,NA,0,1,1,0,1,NA,NA,NA,NA,NA,NA,NA,NA,NA,NA,NA,NA,NA,NA,NA,NA,NA,NA,NA,NA,NA,NA,NA,NA,NA,NA,NA,NA
SUPAMT79304,3SNVL38CIAR0QPW3Y6ZG4K9QHJ5KCP,AFFCDF88-5C27-47DA-A4C7-439401BD8120,2023-09-28_14h03.40.872,WP_VExplicitOC_LH,2022.2.5,Win32,16.12903226,100,5.7325,2.0017,NA,NA,NA,NA,NA,frustrated,"frustrated, not frustrated","more frustrated, less frustrated",NA,NA,NA,NA,NA,NA,NA,NA,NA,NA,NA,NA,NA,NA,NA,0,2,2,1,1,NA,NA,NA,NA,NA,NA,NA,NA,NA,NA,NA,NA,NA,NA,NA,NA,NA,NA,NA,NA,NA,NA,NA,NA,NA,NA,NA,NA
SUPAMT79304,3SNVL38CIAR0QPW3Y6ZG4K9QHJ5KCP,AFFCDF88-5C27-47DA-A4C7-439401BD8120,2023-09-28_14h03.40.872,WP_VExplicitOC_LH,2022.2.5,Win32,16.12903226,NA,NA,NA,NA,NA,NA,NA,NA,NA,NA,NA,NA,NA,NA,NA,NA,NA,NA,NA,NA,NA,NA,NA,NA,NA,NA,NA,NA,NA,NA,NA,14,0,14,0,1,NA,NA,NA,NA,NA,NA,NA,NA,NA,NA,NA,NA,NA,NA,NA,NA,NA,NA,NA,NA,NA,NA,NA
SUPAMT79304,3SNVL38CIAR0QPW3Y6ZG4K9QHJ5KCP,AFFCDF88-5C27-47DA-A4C7-439401BD8120,2023-09-28_14h03.40.872,WP_VExplicitOC_LH,2022.2.5,Win32,16.12903226,NA,NA,NA,NA,NA,NA,NA,NA,NA,NA,NA,NA,NA,NA,NA,NA,NA,NA,NA,NA,NA,NA,NA,NA,NA,NA,NA,NA,NA,NA,NA,NA,NA,NA,NA,NA,NA,NA,NA,NA,NA,NA,NA,NA,NA,NA,NA,NA,NA,NA,NA,NA,NA,NA,NA,NA,NA,NA,NA
SUPAMT79304,3SNVL38CIAR0QPW3Y6ZG4K9QHJ5KCP,AFFCDF88-5C27-47DA-A4C7-439401BD8120,2023-09-28_14h03.40.872,WP_VExplicitOC_LH,2022.2.5,Win32,16.12903226,NA,NA,NA,NA,NA,NA,NA,NA,NA,NA,NA,NA,NA,NA,NA,NA,NA,NA,NA,NA,NA,NA,NA,NA,NA,NA,NA,NA,NA,NA,NA,NA,NA,NA,NA,NA,NA,NA,NA,NA,NA,NA,NA,NA,NA,NA,NA,NA,NA,NA,NA,NA,NA,NA,NA,NA,NA,NA,NA
SUPAMT79304,3SNVL38CIAR0QPW3Y6ZG4K9QHJ5KCP,AFFCDF88-5C27-47DA-A4C7-439401BD8120,2023-09-28_14h03.40.872,WP_VExplicitOC_LH,2022.2.5,Win32,16.12903226,NA,NA,NA,NA,NA,NA,NA,NA,NA,NA,NA,NA,NA,NA,NA,NA,NA,NA,rest (looking at a fixed cross),001.png,NA,NA,NA,NA,NA,NA,NA,NA,NA,NA,NA,NA,NA,NA,NA,NA,100,2.8654,0,0,0,0,1,NA,NA,NA,NA,NA,NA,NA,NA,NA,NA,NA,NA,NA,NA,NA,NA
SUPAMT79304,3SNVL38CIAR0QPW3Y6ZG4K9QHJ5KCP,AFFCDF88-5C27-47DA-A4C7-439401BD8120,2023-09-28_14h03.40.872,WP_VExplicitOC_LH,2022.2.5,Win32,16.12903226,NA,NA,NA,NA,NA,NA,NA,NA,NA,NA,NA,NA,NA,NA,NA,NA,NA,NA,stand up,002.png,NA,NA,NA,NA,NA,NA,NA,NA,NA,NA,NA,NA,NA,NA,NA,NA,100,1.997,0,1,1,1,1,NA,NA,NA,NA,NA,NA,NA,NA,NA,NA,NA,NA,NA,NA,NA,NA
SUPAMT79304,3SNVL38CIAR0QPW3Y6ZG4K9QHJ5KCP,AFFCDF88-5C27-47DA-A4C7-439401BD8120,2023-09-28_14h03.40.872,WP_VExplicitOC_LH,2022.2.5,Win32,16.12903226,NA,NA,NA,NA,NA,NA,NA,NA,NA,NA,NA,NA,NA,NA,NA,NA,NA,NA,stretch,003.png,NA,NA,NA,NA,NA,NA,NA,NA,NA,NA,NA,NA,NA,NA,NA,NA,100,5.1361,0,2,2,2,1,NA,NA,NA,NA,NA,NA,NA,NA,NA,NA,NA,NA,NA,NA,NA,NA
SUPAMT79304,3SNVL38CIAR0QPW3Y6ZG4K9QHJ5KCP,AFFCDF88-5C27-47DA-A4C7-439401BD8120,2023-09-28_14h03.40.872,WP_VExplicitOC_LH,2022.2.5,Win32,16.12903226,NA,NA,NA,NA,NA,NA,NA,NA,NA,NA,NA,NA,NA,NA,NA,NA,NA,NA,make a drink,004.png,NA,NA,NA,NA,NA,NA,NA,NA,NA,NA,NA,NA,NA,NA,NA,NA,NA,NA,0,3,3,3,1,NA,NA,NA,NA,NA,NA,NA,NA,NA,NA,NA,NA,NA,NA,NA,NA
SUPAMT79304,3SNVL38CIAR0QPW3Y6ZG4K9QHJ5KCP,AFFCDF88-5C27-47DA-A4C7-439401BD8120,2023-09-28_14h03.40.872,WP_VExplicitOC_LH,2022.2.5,Win32,16.12903226,NA,NA,NA,NA,NA,NA,NA,NA,NA,NA,NA,NA,NA,NA,NA,NA,NA,NA,scroll social media,005.png,NA,NA,NA,NA,NA,NA,NA,NA,NA,NA,NA,NA,NA,NA,NA,NA,100,1.6483,0,4,4,4,1,NA,NA,NA,NA,NA,NA,NA,NA,NA,NA,NA,NA,NA,NA,NA,NA
SUPAMT79304,3SNVL38CIAR0QPW3Y6ZG4K9QHJ5KCP,AFFCDF88-5C27-47DA-A4C7-439401BD8120,2023-09-28_14h03.40.872,WP_VExplicitOC_LH,2022.2.5,Win32,16.12903226,NA,NA,NA,NA,NA,NA,NA,NA,NA,NA,NA,NA,NA,NA,NA,NA,NA,NA,listen to music,006.png,NA,NA,NA,NA,NA,NA,NA,NA,NA,NA,NA,NA,NA,NA,NA,NA,100,1.5212,0,5,5,5,1,NA,NA,NA,NA,NA,NA,NA,NA,NA,NA,NA,NA,NA,NA,NA,NA
SUPAMT79304,3SNVL38CIAR0QPW3Y6ZG4K9QHJ5KCP,AFFCDF88-5C27-47DA-A4C7-439401BD8120,2023-09-28_14h03.40.872,WP_VExplicitOC_LH,2022.2.5,Win32,16.12903226,NA,NA,NA,NA,NA,NA,NA,NA,NA,NA,NA,NA,NA,NA,NA,NA,NA,NA,daydream,007.png,NA,NA,NA,NA,NA,NA,NA,NA,NA,NA,NA,NA,NA,NA,NA,NA,100,1.3101,0,6,6,6,1,NA,NA,NA,NA,NA,NA,NA,NA,NA,NA,NA,NA,NA,NA,NA,NA
SUPAMT79304,3SNVL38CIAR0QPW3Y6ZG4K9QHJ5KCP,AFFCDF88-5C27-47DA-A4C7-439401BD8120,2023-09-28_14h03.40.872,WP_VExplicitOC_LH,2022.2.5,Win32,16.12903226,NA,NA,NA,NA,NA,NA,NA,NA,NA,NA,NA,NA,NA,NA,NA,NA,NA,NA,watch a short animation,008.png,NA,NA,NA,NA,NA,NA,NA,NA,NA,NA,NA,NA,NA,NA,NA,NA,100,1.4411,0,7,7,7,1,NA,NA,NA,NA,NA,NA,NA,NA,NA,NA,NA,NA,NA,NA,NA,NA
SUPAMT79304,3SNVL38CIAR0QPW3Y6ZG4K9QHJ5KCP,AFFCDF88-5C27-47DA-A4C7-439401BD8120,2023-09-28_14h03.40.872,WP_VExplicitOC_LH,2022.2.5,Win32,16.12903226,NA,NA,NA,NA,NA,NA,NA,NA,NA,NA,NA,NA,NA,NA,NA,NA,NA,NA,read a novel,009.png,NA,NA,NA,NA,NA,NA,NA,NA,NA,NA,NA,NA,NA,NA,NA,NA,-32.29166667,1.6904,0,8,8,8,1,NA,NA,NA,NA,NA,NA,NA,NA,NA,NA,NA,NA,NA,NA,NA,NA
SUPAMT79304,3SNVL38CIAR0QPW3Y6ZG4K9QHJ5KCP,AFFCDF88-5C27-47DA-A4C7-439401BD8120,2023-09-28_14h03.40.872,WP_VExplicitOC_LH,2022.2.5,Win32,16.12903226,NA,NA,NA,NA,NA,NA,NA,NA,NA,NA,NA,NA,NA,NA,NA,NA,NA,NA,read the news,010.png,NA,NA,NA,NA,NA,NA,NA,NA,NA,NA,NA,NA,NA,NA,NA,NA,-100,6.0556,0,9,9,9,1,NA,NA,NA,NA,NA,NA,NA,NA,NA,NA,NA,NA,NA,NA,NA,NA
SUPAMT79304,3SNVL38CIAR0QPW3Y6ZG4K9QHJ5KCP,AFFCDF88-5C27-47DA-A4C7-439401BD8120,2023-09-28_14h03.40.872,WP_VExplicitOC_LH,2022.2.5,Win32,16.12903226,NA,NA,NA,NA,NA,NA,NA,NA,NA,NA,NA,NA,NA,NA,NA,NA,NA,NA,NA,NA,NA,NA,NA,NA,NA,NA,NA,NA,NA,NA,NA,NA,NA,NA,NA,NA,NA,NA,NA,NA,NA,NA,NA,stand up,NA,NA,NA,NA,NA,NA,NA,NA,NA,NA,NA,NA,NA,NA,NA
SUPAMT79304,3SNVL38CIAR0QPW3Y6ZG4K9QHJ5KCP,AFFCDF88-5C27-47DA-A4C7-439401BD8120,2023-09-28_14h03.40.872,WP_VExplicitOC_LH,2022.2.5,Win32,16.12903226,NA,NA,2.033,NA,NA,NA,NA,NA,bored,"bored, not bored","more bored, less bored",NA,NA,NA,NA,NA,NA,NA,NA,NA,NA,NA,NA,NA,NA,NA,NA,NA,NA,NA,NA,NA,NA,NA,NA,NA,NA,NA,NA,NA,NA,NA,NA,NA,0,0,0,2,1,NA,NA,NA,NA,NA,NA,NA,NA,NA,NA
SUPAMT79304,3SNVL38CIAR0QPW3Y6ZG4K9QHJ5KCP,AFFCDF88-5C27-47DA-A4C7-439401BD8120,2023-09-28_14h03.40.872,WP_VExplicitOC_LH,2022.2.5,Win32,16.12903226,100,6.964,2.0584,NA,NA,NA,NA,NA,happy,"unhappy, happy","less happy, more happy",NA,NA,NA,NA,NA,NA,NA,NA,NA,NA,NA,NA,NA,NA,NA,NA,NA,NA,NA,NA,NA,NA,NA,NA,NA,NA,NA,NA,NA,NA,NA,NA,NA,0,1,1,0,1,NA,NA,NA,NA,NA,NA,NA,NA,NA,NA
SUPAMT79304,3SNVL38CIAR0QPW3Y6ZG4K9QHJ5KCP,AFFCDF88-5C27-47DA-A4C7-439401BD8120,2023-09-28_14h03.40.872,WP_VExplicitOC_LH,2022.2.5,Win32,16.12903226,100,7.0548,2.0669,NA,NA,NA,NA,NA,frustrated,"frustrated, not frustrated","more frustrated, less frustrated",NA,NA,NA,NA,NA,NA,NA,NA,NA,NA,NA,NA,NA,NA,NA,NA,NA,NA,NA,NA,NA,NA,NA,NA,NA,NA,NA,NA,NA,NA,NA,NA,NA,0,2,2,1,1,NA,NA,NA,NA,NA,NA,NA,NA,NA,NA
SUPAMT79304,3SNVL38CIAR0QPW3Y6ZG4K9QHJ5KCP,AFFCDF88-5C27-47DA-A4C7-439401BD8120,2023-09-28_14h03.40.872,WP_VExplicitOC_LH,2022.2.5,Win32,16.12903226,NA,NA,NA,NA,NA,NA,NA,NA,NA,NA,NA,NA,NA,NA,NA,NA,NA,NA,NA,NA,NA,NA,NA,NA,NA,NA,NA,NA,NA,NA,NA,NA,NA,NA,NA,NA,NA,NA,NA,NA,NA,NA,NA,NA,NA,NA,NA,NA,NA,NA,NA,NA,NA,NA,NA,NA,NA,NA,NA
SUPAMT79304,3SNVL38CIAR0QPW3Y6ZG4K9QHJ5KCP,AFFCDF88-5C27-47DA-A4C7-439401BD8120,2023-09-28_14h03.40.872,WP_VExplicitOC_LH,2022.2.5,Win32,16.12903226,NA,NA,NA,NA,NA,NA,NA,NA,NA,NA,NA,NA,NA,NA,NA,NA,NA,NA,NA,NA,NA,NA,NA,NA,NA,NA,NA,NA,NA,NA,NA,NA,NA,NA,NA,NA,NA,NA,NA,NA,NA,NA,NA,NA,NA,NA,NA,NA,NA,NA,NA,NA,NA,NA,NA,NA,NA,NA,NA
SUPAMT79304,3SNVL38CIAR0QPW3Y6ZG4K9QHJ5KCP,AFFCDF88-5C27-47DA-A4C7-439401BD8120,2023-09-28_14h03.40.872,WP_VExplicitOC_LH,2022.2.5,Win32,16.12903226,-100,4.8976,2.0546,NA,NA,NA,NA,NA,bored,"bored, not bored","more bored, less bored",NA,NA,NA,NA,NA,NA,NA,NA,NA,NA,NA,NA,NA,NA,NA,NA,NA,NA,NA,NA,NA,NA,NA,NA,NA,NA,NA,NA,NA,NA,NA,NA,NA,NA,NA,NA,NA,NA,0,0,0,2,1,NA,NA,NA,NA,NA
SUPAMT79304,3SNVL38CIAR0QPW3Y6ZG4K9QHJ5KCP,AFFCDF88-5C27-47DA-A4C7-439401BD8120,2023-09-28_14h03.40.872,WP_VExplicitOC_LH,2022.2.5,Win32,16.12903226,-100,3.9113,2.0698,NA,NA,NA,NA,NA,frustrated,"frustrated, not frustrated","more frustrated, less frustrated",NA,NA,NA,NA,NA,NA,NA,NA,NA,NA,NA,NA,NA,NA,NA,NA,NA,NA,NA,NA,NA,NA,NA,NA,NA,NA,NA,NA,NA,NA,NA,NA,NA,NA,NA,NA,NA,NA,0,1,1,1,1,NA,NA,NA,NA,NA
SUPAMT79304,3SNVL38CIAR0QPW3Y6ZG4K9QHJ5KCP,AFFCDF88-5C27-47DA-A4C7-439401BD8120,2023-09-28_14h03.40.872,WP_VExplicitOC_LH,2022.2.5,Win32,16.12903226,100,3.8208,2.043,NA,NA,NA,NA,NA,happy,"unhappy, happy","less happy, more happy",NA,NA,NA,NA,NA,NA,NA,NA,NA,NA,NA,NA,NA,NA,NA,NA,NA,NA,NA,NA,NA,NA,NA,NA,NA,NA,NA,NA,NA,NA,NA,NA,NA,NA,NA,NA,NA,NA,0,2,2,0,1,NA,NA,NA,NA,NA
SUPAMT79304,3SNVL38CIAR0QPW3Y6ZG4K9QHJ5KCP,AFFCDF88-5C27-47DA-A4C7-439401BD8120,2023-09-28_14h03.40.872,WP_VExplicitOC_LH,2022.2.5,Win32,16.12903226,NA,NA,NA,NA,NA,NA,NA,NA,NA,NA,NA,NA,NA,NA,NA,NA,NA,NA,NA,NA,NA,NA,NA,NA,NA,NA,NA,NA,NA,NA,NA,NA,NA,NA,NA,NA,NA,NA,NA,NA,NA,NA,NA,NA,NA,NA,NA,NA,NA,NA,NA,NA,NA,NA,0,0,0,0,1
SUPAMT79304,3SNVL38CIAR0QPW3Y6ZG4K9QHJ5KCP,AFFCDF88-5C27-47DA-A4C7-439401BD8120,2023-09-28_14h03.40.872,WP_VExplicitOC_LH,2022.2.5,Win32,16.12903226,NA,NA,2.0081,NA,NA,NA,NA,NA,happy,"unhappy, happy","less happy, more happy",NA,NA,NA,NA,NA,NA,NA,NA,NA,NA,NA,NA,NA,NA,NA,NA,NA,NA,NA,NA,NA,NA,NA,NA,NA,NA,NA,NA,NA,NA,NA,NA,NA,NA,NA,NA,NA,NA,0,0,0,0,1,NA,NA,NA,NA,NA
SUPAMT79304,3SNVL38CIAR0QPW3Y6ZG4K9QHJ5KCP,AFFCDF88-5C27-47DA-A4C7-439401BD8120,2023-09-28_14h03.40.872,WP_VExplicitOC_LH,2022.2.5,Win32,16.12903226,-100,3.2297,2.072,NA,NA,NA,NA,NA,bored,"bored, not bored","more bored, less bored",NA,NA,NA,NA,NA,NA,NA,NA,NA,NA,NA,NA,NA,NA,NA,NA,NA,NA,NA,NA,NA,NA,NA,NA,NA,NA,NA,NA,NA,NA,NA,NA,NA,NA,NA,NA,NA,NA,0,1,1,2,1,NA,NA,NA,NA,NA
SUPAMT79304,3SNVL38CIAR0QPW3Y6ZG4K9QHJ5KCP,AFFCDF88-5C27-47DA-A4C7-439401BD8120,2023-09-28_14h03.40.872,WP_VExplicitOC_LH,2022.2.5,Win32,16.12903226,-100,5.7082,2.0509,NA,NA,NA,NA,NA,frustrated,"frustrated, not frustrated","more frustrated, less frustrated",NA,NA,NA,NA,NA,NA,NA,NA,NA,NA,NA,NA,NA,NA,NA,NA,NA,NA,NA,NA,NA,NA,NA,NA,NA,NA,NA,NA,NA,NA,NA,NA,NA,NA,NA,NA,NA,NA,0,2,2,1,1,NA,NA,NA,NA,NA
SUPAMT79304,3SNVL38CIAR0QPW3Y6ZG4K9QHJ5KCP,AFFCDF88-5C27-47DA-A4C7-439401BD8120,2023-09-28_14h03.40.872,WP_VExplicitOC_LH,2022.2.5,Win32,16.12903226,NA,NA,NA,NA,NA,NA,NA,NA,NA,NA,NA,NA,NA,NA,NA,NA,NA,NA,NA,NA,NA,NA,NA,NA,NA,NA,NA,NA,NA,NA,NA,NA,NA,NA,NA,NA,NA,NA,NA,NA,NA,NA,NA,NA,NA,NA,NA,NA,NA,NA,NA,NA,NA,NA,1,0,1,0,1
SUPAMT79304,3SNVL38CIAR0QPW3Y6ZG4K9QHJ5KCP,AFFCDF88-5C27-47DA-A4C7-439401BD8120,2023-09-28_14h03.40.872,WP_VExplicitOC_LH,2022.2.5,Win32,16.12903226,100,4.0445,2.0681,NA,NA,NA,NA,NA,frustrated,"frustrated, not frustrated","more frustrated, less frustrated",NA,NA,NA,NA,NA,NA,NA,NA,NA,NA,NA,NA,NA,NA,NA,NA,NA,NA,NA,NA,NA,NA,NA,NA,NA,NA,NA,NA,NA,NA,NA,NA,NA,NA,NA,NA,NA,NA,0,0,0,1,1,NA,NA,NA,NA,NA
SUPAMT79304,3SNVL38CIAR0QPW3Y6ZG4K9QHJ5KCP,AFFCDF88-5C27-47DA-A4C7-439401BD8120,2023-09-28_14h03.40.872,WP_VExplicitOC_LH,2022.2.5,Win32,16.12903226,100,4.0084,2.0138,NA,NA,NA,NA,NA,bored,"bored, not bored","more bored, less bored",NA,NA,NA,NA,NA,NA,NA,NA,NA,NA,NA,NA,NA,NA,NA,NA,NA,NA,NA,NA,NA,NA,NA,NA,NA,NA,NA,NA,NA,NA,NA,NA,NA,NA,NA,NA,NA,NA,0,1,1,2,1,NA,NA,NA,NA,NA
SUPAMT79304,3SNVL38CIAR0QPW3Y6ZG4K9QHJ5KCP,AFFCDF88-5C27-47DA-A4C7-439401BD8120,2023-09-28_14h03.40.872,WP_VExplicitOC_LH,2022.2.5,Win32,16.12903226,100,4.2207,2.0123,NA,NA,NA,NA,NA,happy,"unhappy, happy","less happy, more happy",NA,NA,NA,NA,NA,NA,NA,NA,NA,NA,NA,NA,NA,NA,NA,NA,NA,NA,NA,NA,NA,NA,NA,NA,NA,NA,NA,NA,NA,NA,NA,NA,NA,NA,NA,NA,NA,NA,0,2,2,0,1,NA,NA,NA,NA,NA
SUPAMT79304,3SNVL38CIAR0QPW3Y6ZG4K9QHJ5KCP,AFFCDF88-5C27-47DA-A4C7-439401BD8120,2023-09-28_14h03.40.872,WP_VExplicitOC_LH,2022.2.5,Win32,16.12903226,NA,NA,NA,NA,NA,NA,NA,NA,NA,NA,NA,NA,NA,NA,NA,NA,NA,NA,NA,NA,NA,NA,NA,NA,NA,NA,NA,NA,NA,NA,NA,NA,NA,NA,NA,NA,NA,NA,NA,NA,NA,NA,NA,NA,NA,NA,NA,NA,NA,NA,NA,NA,NA,NA,2,0,2,0,1
SUPAMT79304,3SNVL38CIAR0QPW3Y6ZG4K9QHJ5KCP,AFFCDF88-5C27-47DA-A4C7-439401BD8120,2023-09-28_14h03.40.872,WP_VExplicitOC_LH,2022.2.5,Win32,16.12903226,100,5.8382,2.0097,NA,NA,NA,NA,NA,bored,"bored, not bored","more bored, less bored",NA,NA,NA,NA,NA,NA,NA,NA,NA,NA,NA,NA,NA,NA,NA,NA,NA,NA,NA,NA,NA,NA,NA,NA,NA,NA,NA,NA,NA,NA,NA,NA,NA,NA,NA,NA,NA,NA,0,0,0,2,1,NA,NA,NA,NA,NA
SUPAMT79304,3SNVL38CIAR0QPW3Y6ZG4K9QHJ5KCP,AFFCDF88-5C27-47DA-A4C7-439401BD8120,2023-09-28_14h03.40.872,WP_VExplicitOC_LH,2022.2.5,Win32,16.12903226,-100,6.1382,2.0552,NA,NA,NA,NA,NA,happy,"unhappy, happy","less happy, more happy",NA,NA,NA,NA,NA,NA,NA,NA,NA,NA,NA,NA,NA,NA,NA,NA,NA,NA,NA,NA,NA,NA,NA,NA,NA,NA,NA,NA,NA,NA,NA,NA,NA,NA,NA,NA,NA,NA,0,1,1,0,1,NA,NA,NA,NA,NA
SUPAMT79304,3SNVL38CIAR0QPW3Y6ZG4K9QHJ5KCP,AFFCDF88-5C27-47DA-A4C7-439401BD8120,2023-09-28_14h03.40.872,WP_VExplicitOC_LH,2022.2.5,Win32,16.12903226,-100,5.3166,2.0452,NA,NA,NA,NA,NA,frustrated,"frustrated, not frustrated","more frustrated, less frustrated",NA,NA,NA,NA,NA,NA,NA,NA,NA,NA,NA,NA,NA,NA,NA,NA,NA,NA,NA,NA,NA,NA,NA,NA,NA,NA,NA,NA,NA,NA,NA,NA,NA,NA,NA,NA,NA,NA,0,2,2,1,1,NA,NA,NA,NA,NA
SUPAMT79304,3SNVL38CIAR0QPW3Y6ZG4K9QHJ5KCP,AFFCDF88-5C27-47DA-A4C7-439401BD8120,2023-09-28_14h03.40.872,WP_VExplicitOC_LH,2022.2.5,Win32,16.12903226,NA,NA,NA,NA,NA,NA,NA,NA,NA,NA,NA,NA,NA,NA,NA,NA,NA,NA,NA,NA,NA,NA,NA,NA,NA,NA,NA,NA,NA,NA,NA,NA,NA,NA,NA,NA,NA,NA,NA,NA,NA,NA,NA,NA,NA,NA,NA,NA,NA,NA,NA,NA,NA,NA,3,0,3,0,1
SUPAMT79304,3SNVL38CIAR0QPW3Y6ZG4K9QHJ5KCP,AFFCDF88-5C27-47DA-A4C7-439401BD8120,2023-09-28_14h03.40.872,WP_VExplicitOC_LH,2022.2.5,Win32,16.12903226,100,3.1365,2.0333,NA,NA,NA,NA,NA,happy,"unhappy, happy","less happy, more happy",NA,NA,NA,NA,NA,NA,NA,NA,NA,NA,NA,NA,NA,NA,NA,NA,NA,NA,NA,NA,NA,NA,NA,NA,NA,NA,NA,NA,NA,NA,NA,NA,NA,NA,NA,NA,NA,NA,0,0,0,0,1,NA,NA,NA,NA,NA
SUPAMT79304,3SNVL38CIAR0QPW3Y6ZG4K9QHJ5KCP,AFFCDF88-5C27-47DA-A4C7-439401BD8120,2023-09-28_14h03.40.872,WP_VExplicitOC_LH,2022.2.5,Win32,16.12903226,100,3.6366,2.0485,NA,NA,NA,NA,NA,bored,"bored, not bored","more bored, less bored",NA,NA,NA,NA,NA,NA,NA,NA,NA,NA,NA,NA,NA,NA,NA,NA,NA,NA,NA,NA,NA,NA,NA,NA,NA,NA,NA,NA,NA,NA,NA,NA,NA,NA,NA,NA,NA,NA,0,1,1,2,1,NA,NA,NA,NA,NA
SUPAMT79304,3SNVL38CIAR0QPW3Y6ZG4K9QHJ5KCP,AFFCDF88-5C27-47DA-A4C7-439401BD8120,2023-09-28_14h03.40.872,WP_VExplicitOC_LH,2022.2.5,Win32,16.12903226,100,3.6686,2.0137,NA,NA,NA,NA,NA,frustrated,"frustrated, not frustrated","more frustrated, less frustrated",NA,NA,NA,NA,NA,NA,NA,NA,NA,NA,NA,NA,NA,NA,NA,NA,NA,NA,NA,NA,NA,NA,NA,NA,NA,NA,NA,NA,NA,NA,NA,NA,NA,NA,NA,NA,NA,NA,0,2,2,1,1,NA,NA,NA,NA,NA
SUPAMT79304,3SNVL38CIAR0QPW3Y6ZG4K9QHJ5KCP,AFFCDF88-5C27-47DA-A4C7-439401BD8120,2023-09-28_14h03.40.872,WP_VExplicitOC_LH,2022.2.5,Win32,16.12903226,NA,NA,NA,NA,NA,NA,NA,NA,NA,NA,NA,NA,NA,NA,NA,NA,NA,NA,NA,NA,NA,NA,NA,NA,NA,NA,NA,NA,NA,NA,NA,NA,NA,NA,NA,NA,NA,NA,NA,NA,NA,NA,NA,NA,NA,NA,NA,NA,NA,NA,NA,NA,NA,NA,4,0,4,0,1
SUPAMT79304,3SNVL38CIAR0QPW3Y6ZG4K9QHJ5KCP,AFFCDF88-5C27-47DA-A4C7-439401BD8120,2023-09-28_14h03.40.872,WP_VExplicitOC_LH,2022.2.5,Win32,16.12903226,NA,NA,2.062,NA,NA,NA,NA,NA,happy,"unhappy, happy","less happy, more happy",NA,NA,NA,NA,NA,NA,NA,NA,NA,NA,NA,NA,NA,NA,NA,NA,NA,NA,NA,NA,NA,NA,NA,NA,NA,NA,NA,NA,NA,NA,NA,NA,NA,NA,NA,NA,NA,NA,0,0,0,0,1,NA,NA,NA,NA,NA
SUPAMT79304,3SNVL38CIAR0QPW3Y6ZG4K9QHJ5KCP,AFFCDF88-5C27-47DA-A4C7-439401BD8120,2023-09-28_14h03.40.872,WP_VExplicitOC_LH,2022.2.5,Win32,16.12903226,100,3.0652,2.055,NA,NA,NA,NA,NA,bored,"bored, not bored","more bored, less bored",NA,NA,NA,NA,NA,NA,NA,NA,NA,NA,NA,NA,NA,NA,NA,NA,NA,NA,NA,NA,NA,NA,NA,NA,NA,NA,NA,NA,NA,NA,NA,NA,NA,NA,NA,NA,NA,NA,0,1,1,2,1,NA,NA,NA,NA,NA
SUPAMT79304,3SNVL38CIAR0QPW3Y6ZG4K9QHJ5KCP,AFFCDF88-5C27-47DA-A4C7-439401BD8120,2023-09-28_14h03.40.872,WP_VExplicitOC_LH,2022.2.5,Win32,16.12903226,NA,NA,2.0733,NA,NA,NA,NA,NA,frustrated,"frustrated, not frustrated","more frustrated, less frustrated",NA,NA,NA,NA,NA,NA,NA,NA,NA,NA,NA,NA,NA,NA,NA,NA,NA,NA,NA,NA,NA,NA,NA,NA,NA,NA,NA,NA,NA,NA,NA,NA,NA,NA,NA,NA,NA,NA,0,2,2,1,1,NA,NA,NA,NA,NA
SUPAMT79304,3SNVL38CIAR0QPW3Y6ZG4K9QHJ5KCP,AFFCDF88-5C27-47DA-A4C7-439401BD8120,2023-09-28_14h03.40.872,WP_VExplicitOC_LH,2022.2.5,Win32,16.12903226,NA,NA,NA,NA,NA,NA,NA,NA,NA,NA,NA,NA,NA,NA,NA,NA,NA,NA,NA,NA,NA,NA,NA,NA,NA,NA,NA,NA,NA,NA,NA,NA,NA,NA,NA,NA,NA,NA,NA,NA,NA,NA,NA,NA,NA,NA,NA,NA,NA,NA,NA,NA,NA,NA,5,0,5,0,1
SUPAMT79304,3SNVL38CIAR0QPW3Y6ZG4K9QHJ5KCP,AFFCDF88-5C27-47DA-A4C7-439401BD8120,2023-09-28_14h03.40.872,WP_VExplicitOC_LH,2022.2.5,Win32,16.12903226,100,4.9667,2.0563,NA,NA,NA,NA,NA,frustrated,"frustrated, not frustrated","more frustrated, less frustrated",NA,NA,NA,NA,NA,NA,NA,NA,NA,NA,NA,NA,NA,NA,NA,NA,NA,NA,NA,NA,NA,NA,NA,NA,NA,NA,NA,NA,NA,NA,NA,NA,NA,NA,NA,NA,NA,NA,0,0,0,1,1,NA,NA,NA,NA,NA
SUPAMT79304,3SNVL38CIAR0QPW3Y6ZG4K9QHJ5KCP,AFFCDF88-5C27-47DA-A4C7-439401BD8120,2023-09-28_14h03.40.872,WP_VExplicitOC_LH,2022.2.5,Win32,16.12903226,100,3.1939,2.0449,NA,NA,NA,NA,NA,bored,"bored, not bored","more bored, less bored",NA,NA,NA,NA,NA,NA,NA,NA,NA,NA,NA,NA,NA,NA,NA,NA,NA,NA,NA,NA,NA,NA,NA,NA,NA,NA,NA,NA,NA,NA,NA,NA,NA,NA,NA,NA,NA,NA,0,1,1,2,1,NA,NA,NA,NA,NA
SUPAMT79304,3SNVL38CIAR0QPW3Y6ZG4K9QHJ5KCP,AFFCDF88-5C27-47DA-A4C7-439401BD8120,2023-09-28_14h03.40.872,WP_VExplicitOC_LH,2022.2.5,Win32,16.12903226,100,5.0746,2.0341,NA,NA,NA,NA,NA,happy,"unhappy, happy","less happy, more happy",NA,NA,NA,NA,NA,NA,NA,NA,NA,NA,NA,NA,NA,NA,NA,NA,NA,NA,NA,NA,NA,NA,NA,NA,NA,NA,NA,NA,NA,NA,NA,NA,NA,NA,NA,NA,NA,NA,0,2,2,0,1,NA,NA,NA,NA,NA
SUPAMT79304,3SNVL38CIAR0QPW3Y6ZG4K9QHJ5KCP,AFFCDF88-5C27-47DA-A4C7-439401BD8120,2023-09-28_14h03.40.872,WP_VExplicitOC_LH,2022.2.5,Win32,16.12903226,NA,NA,NA,NA,NA,NA,NA,NA,NA,NA,NA,NA,NA,NA,NA,NA,NA,NA,NA,NA,NA,NA,NA,NA,NA,NA,NA,NA,NA,NA,NA,NA,NA,NA,NA,NA,NA,NA,NA,NA,NA,NA,NA,NA,NA,NA,NA,NA,NA,NA,NA,NA,NA,NA,6,0,6,0,1
SUPAMT79304,3SNVL38CIAR0QPW3Y6ZG4K9QHJ5KCP,AFFCDF88-5C27-47DA-A4C7-439401BD8120,2023-09-28_14h03.40.872,WP_VExplicitOC_LH,2022.2.5,Win32,16.12903226,100,6.7521,2.0597,NA,NA,NA,NA,NA,happy,"unhappy, happy","less happy, more happy",NA,NA,NA,NA,NA,NA,NA,NA,NA,NA,NA,NA,NA,NA,NA,NA,NA,NA,NA,NA,NA,NA,NA,NA,NA,NA,NA,NA,NA,NA,NA,NA,NA,NA,NA,NA,NA,NA,0,0,0,0,1,NA,NA,NA,NA,NA
SUPAMT79304,3SNVL38CIAR0QPW3Y6ZG4K9QHJ5KCP,AFFCDF88-5C27-47DA-A4C7-439401BD8120,2023-09-28_14h03.40.872,WP_VExplicitOC_LH,2022.2.5,Win32,16.12903226,100,3.563,2.0389,NA,NA,NA,NA,NA,bored,"bored, not bored","more bored, less bored",NA,NA,NA,NA,NA,NA,NA,NA,NA,NA,NA,NA,NA,NA,NA,NA,NA,NA,NA,NA,NA,NA,NA,NA,NA,NA,NA,NA,NA,NA,NA,NA,NA,NA,NA,NA,NA,NA,0,1,1,2,1,NA,NA,NA,NA,NA
SUPAMT79304,3SNVL38CIAR0QPW3Y6ZG4K9QHJ5KCP,AFFCDF88-5C27-47DA-A4C7-439401BD8120,2023-09-28_14h03.40.872,WP_VExplicitOC_LH,2022.2.5,Win32,16.12903226,100,3.6259,2.0232,NA,NA,NA,NA,NA,frustrated,"frustrated, not frustrated","more frustrated, less frustrated",NA,NA,NA,NA,NA,NA,NA,NA,NA,NA,NA,NA,NA,NA,NA,NA,NA,NA,NA,NA,NA,NA,NA,NA,NA,NA,NA,NA,NA,NA,NA,NA,NA,NA,NA,NA,NA,NA,0,2,2,1,1,NA,NA,NA,NA,NA
SUPAMT79304,3SNVL38CIAR0QPW3Y6ZG4K9QHJ5KCP,AFFCDF88-5C27-47DA-A4C7-439401BD8120,2023-09-28_14h03.40.872,WP_VExplicitOC_LH,2022.2.5,Win32,16.12903226,NA,NA,NA,NA,NA,NA,NA,NA,NA,NA,NA,NA,NA,NA,NA,NA,NA,NA,NA,NA,NA,NA,NA,NA,NA,NA,NA,NA,NA,NA,NA,NA,NA,NA,NA,NA,NA,NA,NA,NA,NA,NA,NA,NA,NA,NA,NA,NA,NA,NA,NA,NA,NA,NA,7,0,7,0,1
SUPAMT79304,3SNVL38CIAR0QPW3Y6ZG4K9QHJ5KCP,AFFCDF88-5C27-47DA-A4C7-439401BD8120,2023-09-28_14h03.40.872,WP_VExplicitOC_LH,2022.2.5,Win32,16.12903226,100,5.6089,2.0673,NA,NA,NA,NA,NA,bored,"bored, not bored","more bored, less bored",NA,NA,NA,NA,NA,NA,NA,NA,NA,NA,NA,NA,NA,NA,NA,NA,NA,NA,NA,NA,NA,NA,NA,NA,NA,NA,NA,NA,NA,NA,NA,NA,NA,NA,NA,NA,NA,NA,0,0,0,2,1,NA,NA,NA,NA,NA
SUPAMT79304,3SNVL38CIAR0QPW3Y6ZG4K9QHJ5KCP,AFFCDF88-5C27-47DA-A4C7-439401BD8120,2023-09-28_14h03.40.872,WP_VExplicitOC_LH,2022.2.5,Win32,16.12903226,100,3.7056,2.0047,NA,NA,NA,NA,NA,frustrated,"frustrated, not frustrated","more frustrated, less frustrated",NA,NA,NA,NA,NA,NA,NA,NA,NA,NA,NA,NA,NA,NA,NA,NA,NA,NA,NA,NA,NA,NA,NA,NA,NA,NA,NA,NA,NA,NA,NA,NA,NA,NA,NA,NA,NA,NA,0,1,1,1,1,NA,NA,NA,NA,NA
SUPAMT79304,3SNVL38CIAR0QPW3Y6ZG4K9QHJ5KCP,AFFCDF88-5C27-47DA-A4C7-439401BD8120,2023-09-28_14h03.40.872,WP_VExplicitOC_LH,2022.2.5,Win32,16.12903226,NA,NA,2.044,NA,NA,NA,NA,NA,happy,"unhappy, happy","less happy, more happy",NA,NA,NA,NA,NA,NA,NA,NA,NA,NA,NA,NA,NA,NA,NA,NA,NA,NA,NA,NA,NA,NA,NA,NA,NA,NA,NA,NA,NA,NA,NA,NA,NA,NA,NA,NA,NA,NA,0,2,2,0,1,NA,NA,NA,NA,NA
SUPAMT79304,3SNVL38CIAR0QPW3Y6ZG4K9QHJ5KCP,AFFCDF88-5C27-47DA-A4C7-439401BD8120,2023-09-28_14h03.40.872,WP_VExplicitOC_LH,2022.2.5,Win32,16.12903226,NA,NA,NA,NA,NA,NA,NA,NA,NA,NA,NA,NA,NA,NA,NA,NA,NA,NA,NA,NA,NA,NA,NA,NA,NA,NA,NA,NA,NA,NA,NA,NA,NA,NA,NA,NA,NA,NA,NA,NA,NA,NA,NA,NA,NA,NA,NA,NA,NA,NA,NA,NA,NA,NA,8,0,8,0,1
SUPAMT79304,3SNVL38CIAR0QPW3Y6ZG4K9QHJ5KCP,AFFCDF88-5C27-47DA-A4C7-439401BD8120,2023-09-28_14h03.40.872,WP_VExplicitOC_LH,2022.2.5,Win32,16.12903226,NA,NA,2.058,NA,NA,NA,NA,NA,bored,"bored, not bored","more bored, less bored",NA,NA,NA,NA,NA,NA,NA,NA,NA,NA,NA,NA,NA,NA,NA,NA,NA,NA,NA,NA,NA,NA,NA,NA,NA,NA,NA,NA,NA,NA,NA,NA,NA,NA,NA,NA,NA,NA,0,0,0,2,1,NA,NA,NA,NA,NA
SUPAMT79304,3SNVL38CIAR0QPW3Y6ZG4K9QHJ5KCP,AFFCDF88-5C27-47DA-A4C7-439401BD8120,2023-09-28_14h03.40.872,WP_VExplicitOC_LH,2022.2.5,Win32,16.12903226,100,3.2979,2.0538,NA,NA,NA,NA,NA,happy,"unhappy, happy","less happy, more happy",NA,NA,NA,NA,NA,NA,NA,NA,NA,NA,NA,NA,NA,NA,NA,NA,NA,NA,NA,NA,NA,NA,NA,NA,NA,NA,NA,NA,NA,NA,NA,NA,NA,NA,NA,NA,NA,NA,0,1,1,0,1,NA,NA,NA,NA,NA
SUPAMT79304,3SNVL38CIAR0QPW3Y6ZG4K9QHJ5KCP,AFFCDF88-5C27-47DA-A4C7-439401BD8120,2023-09-28_14h03.40.872,WP_VExplicitOC_LH,2022.2.5,Win32,16.12903226,100,4.4527,2.0637,NA,NA,NA,NA,NA,frustrated,"frustrated, not frustrated","more frustrated, less frustrated",NA,NA,NA,NA,NA,NA,NA,NA,NA,NA,NA,NA,NA,NA,NA,NA,NA,NA,NA,NA,NA,NA,NA,NA,NA,NA,NA,NA,NA,NA,NA,NA,NA,NA,NA,NA,NA,NA,0,2,2,1,1,NA,NA,NA,NA,NA
SUPAMT79304,3SNVL38CIAR0QPW3Y6ZG4K9QHJ5KCP,AFFCDF88-5C27-47DA-A4C7-439401BD8120,2023-09-28_14h03.40.872,WP_VExplicitOC_LH,2022.2.5,Win32,16.12903226,NA,NA,NA,NA,NA,NA,NA,NA,NA,NA,NA,NA,NA,NA,NA,NA,NA,NA,NA,NA,NA,NA,NA,NA,NA,NA,NA,NA,NA,NA,NA,NA,NA,NA,NA,NA,NA,NA,NA,NA,NA,NA,NA,NA,NA,NA,NA,NA,NA,NA,NA,NA,NA,NA,9,0,9,0,1
SUPAMT79304,3SNVL38CIAR0QPW3Y6ZG4K9QHJ5KCP,AFFCDF88-5C27-47DA-A4C7-439401BD8120,2023-09-28_14h03.40.872,WP_VExplicitOC_LH,2022.2.5,Win32,16.12903226,100,4.2999,2.0609,NA,NA,NA,NA,NA,happy,"unhappy, happy","less happy, more happy",NA,NA,NA,NA,NA,NA,NA,NA,NA,NA,NA,NA,NA,NA,NA,NA,NA,NA,NA,NA,NA,NA,NA,NA,NA,NA,NA,NA,NA,NA,NA,NA,NA,NA,NA,NA,NA,NA,0,0,0,0,1,NA,NA,NA,NA,NA
SUPAMT79304,3SNVL38CIAR0QPW3Y6ZG4K9QHJ5KCP,AFFCDF88-5C27-47DA-A4C7-439401BD8120,2023-09-28_14h03.40.872,WP_VExplicitOC_LH,2022.2.5,Win32,16.12903226,100,3.7704,2.0616,NA,NA,NA,NA,NA,frustrated,"frustrated, not frustrated","more frustrated, less frustrated",NA,NA,NA,NA,NA,NA,NA,NA,NA,NA,NA,NA,NA,NA,NA,NA,NA,NA,NA,NA,NA,NA,NA,NA,NA,NA,NA,NA,NA,NA,NA,NA,NA,NA,NA,NA,NA,NA,0,1,1,1,1,NA,NA,NA,NA,NA
SUPAMT79304,3SNVL38CIAR0QPW3Y6ZG4K9QHJ5KCP,AFFCDF88-5C27-47DA-A4C7-439401BD8120,2023-09-28_14h03.40.872,WP_VExplicitOC_LH,2022.2.5,Win32,16.12903226,100,3.3393,2.0349,NA,NA,NA,NA,NA,bored,"bored, not bored","more bored, less bored",NA,NA,NA,NA,NA,NA,NA,NA,NA,NA,NA,NA,NA,NA,NA,NA,NA,NA,NA,NA,NA,NA,NA,NA,NA,NA,NA,NA,NA,NA,NA,NA,NA,NA,NA,NA,NA,NA,0,2,2,2,1,NA,NA,NA,NA,NA
SUPAMT79304,3SNVL38CIAR0QPW3Y6ZG4K9QHJ5KCP,AFFCDF88-5C27-47DA-A4C7-439401BD8120,2023-09-28_14h03.40.872,WP_VExplicitOC_LH,2022.2.5,Win32,16.12903226,NA,NA,NA,NA,NA,NA,NA,NA,NA,NA,NA,NA,NA,NA,NA,NA,NA,NA,NA,NA,NA,NA,NA,NA,NA,NA,NA,NA,NA,NA,NA,NA,NA,NA,NA,NA,NA,NA,NA,NA,NA,NA,NA,NA,NA,NA,NA,NA,NA,NA,NA,NA,NA,NA,10,0,10,0,1
SUPAMT79304,3SNVL38CIAR0QPW3Y6ZG4K9QHJ5KCP,AFFCDF88-5C27-47DA-A4C7-439401BD8120,2023-09-28_14h03.40.872,WP_VExplicitOC_LH,2022.2.5,Win32,16.12903226,NA,NA,2.0572,NA,NA,NA,NA,NA,bored,"bored, not bored","more bored, less bored",NA,NA,NA,NA,NA,NA,NA,NA,NA,NA,NA,NA,NA,NA,NA,NA,NA,NA,NA,NA,NA,NA,NA,NA,NA,NA,NA,NA,NA,NA,NA,NA,NA,NA,NA,NA,NA,NA,0,0,0,2,1,NA,NA,NA,NA,NA
SUPAMT79304,3SNVL38CIAR0QPW3Y6ZG4K9QHJ5KCP,AFFCDF88-5C27-47DA-A4C7-439401BD8120,2023-09-28_14h03.40.872,WP_VExplicitOC_LH,2022.2.5,Win32,16.12903226,NA,NA,2.0681,NA,NA,NA,NA,NA,frustrated,"frustrated, not frustrated","more frustrated, less frustrated",NA,NA,NA,NA,NA,NA,NA,NA,NA,NA,NA,NA,NA,NA,NA,NA,NA,NA,NA,NA,NA,NA,NA,NA,NA,NA,NA,NA,NA,NA,NA,NA,NA,NA,NA,NA,NA,NA,0,1,1,1,1,NA,NA,NA,NA,NA
SUPAMT79304,3SNVL38CIAR0QPW3Y6ZG4K9QHJ5KCP,AFFCDF88-5C27-47DA-A4C7-439401BD8120,2023-09-28_14h03.40.872,WP_VExplicitOC_LH,2022.2.5,Win32,16.12903226,100,3.9267,2.0726,NA,NA,NA,NA,NA,happy,"unhappy, happy","less happy, more happy",NA,NA,NA,NA,NA,NA,NA,NA,NA,NA,NA,NA,NA,NA,NA,NA,NA,NA,NA,NA,NA,NA,NA,NA,NA,NA,NA,NA,NA,NA,NA,NA,NA,NA,NA,NA,NA,NA,0,2,2,0,1,NA,NA,NA,NA,NA
SUPAMT79304,3SNVL38CIAR0QPW3Y6ZG4K9QHJ5KCP,AFFCDF88-5C27-47DA-A4C7-439401BD8120,2023-09-28_14h03.40.872,WP_VExplicitOC_LH,2022.2.5,Win32,16.12903226,NA,NA,NA,NA,NA,NA,NA,NA,NA,NA,NA,NA,NA,NA,NA,NA,NA,NA,NA,NA,NA,NA,NA,NA,NA,NA,NA,NA,NA,NA,NA,NA,NA,NA,NA,NA,NA,NA,NA,NA,NA,NA,NA,NA,NA,NA,NA,NA,NA,NA,NA,NA,NA,NA,11,0,11,0,1
SUPAMT79304,3SNVL38CIAR0QPW3Y6ZG4K9QHJ5KCP,AFFCDF88-5C27-47DA-A4C7-439401BD8120,2023-09-28_14h03.40.872,WP_VExplicitOC_LH,2022.2.5,Win32,16.12903226,NA,NA,2.0305,NA,NA,NA,NA,NA,frustrated,"frustrated, not frustrated","more frustrated, less frustrated",NA,NA,NA,NA,NA,NA,NA,NA,NA,NA,NA,NA,NA,NA,NA,NA,NA,NA,NA,NA,NA,NA,NA,NA,NA,NA,NA,NA,NA,NA,NA,NA,NA,NA,NA,NA,NA,NA,0,0,0,1,1,NA,NA,NA,NA,NA
SUPAMT79304,3SNVL38CIAR0QPW3Y6ZG4K9QHJ5KCP,AFFCDF88-5C27-47DA-A4C7-439401BD8120,2023-09-28_14h03.40.872,WP_VExplicitOC_LH,2022.2.5,Win32,16.12903226,100,5.3221,2.0573,NA,NA,NA,NA,NA,bored,"bored, not bored","more bored, less bored",NA,NA,NA,NA,NA,NA,NA,NA,NA,NA,NA,NA,NA,NA,NA,NA,NA,NA,NA,NA,NA,NA,NA,NA,NA,NA,NA,NA,NA,NA,NA,NA,NA,NA,NA,NA,NA,NA,0,1,1,2,1,NA,NA,NA,NA,NA
SUPAMT79304,3SNVL38CIAR0QPW3Y6ZG4K9QHJ5KCP,AFFCDF88-5C27-47DA-A4C7-439401BD8120,2023-09-28_14h03.40.872,WP_VExplicitOC_LH,2022.2.5,Win32,16.12903226,100,4.6872,2.0478,NA,NA,NA,NA,NA,happy,"unhappy, happy","less happy, more happy",NA,NA,NA,NA,NA,NA,NA,NA,NA,NA,NA,NA,NA,NA,NA,NA,NA,NA,NA,NA,NA,NA,NA,NA,NA,NA,NA,NA,NA,NA,NA,NA,NA,NA,NA,NA,NA,NA,0,2,2,0,1,NA,NA,NA,NA,NA
SUPAMT79304,3SNVL38CIAR0QPW3Y6ZG4K9QHJ5KCP,AFFCDF88-5C27-47DA-A4C7-439401BD8120,2023-09-28_14h03.40.872,WP_VExplicitOC_LH,2022.2.5,Win32,16.12903226,NA,NA,NA,NA,NA,NA,NA,NA,NA,NA,NA,NA,NA,NA,NA,NA,NA,NA,NA,NA,NA,NA,NA,NA,NA,NA,NA,NA,NA,NA,NA,NA,NA,NA,NA,NA,NA,NA,NA,NA,NA,NA,NA,NA,NA,NA,NA,NA,NA,NA,NA,NA,NA,NA,12,0,12,0,1
SUPAMT79304,3SNVL38CIAR0QPW3Y6ZG4K9QHJ5KCP,AFFCDF88-5C27-47DA-A4C7-439401BD8120,2023-09-28_14h03.40.872,WP_VExplicitOC_LH,2022.2.5,Win32,16.12903226,100,4.2816,2.0303,NA,NA,NA,NA,NA,happy,"unhappy, happy","less happy, more happy",NA,NA,NA,NA,NA,NA,NA,NA,NA,NA,NA,NA,NA,NA,NA,NA,NA,NA,NA,NA,NA,NA,NA,NA,NA,NA,NA,NA,NA,NA,NA,NA,NA,NA,NA,NA,NA,NA,0,0,0,0,1,NA,NA,NA,NA,NA
SUPAMT79304,3SNVL38CIAR0QPW3Y6ZG4K9QHJ5KCP,AFFCDF88-5C27-47DA-A4C7-439401BD8120,2023-09-28_14h03.40.872,WP_VExplicitOC_LH,2022.2.5,Win32,16.12903226,100,3.282,2.0218,NA,NA,NA,NA,NA,frustrated,"frustrated, not frustrated","more frustrated, less frustrated",NA,NA,NA,NA,NA,NA,NA,NA,NA,NA,NA,NA,NA,NA,NA,NA,NA,NA,NA,NA,NA,NA,NA,NA,NA,NA,NA,NA,NA,NA,NA,NA,NA,NA,NA,NA,NA,NA,0,1,1,1,1,NA,NA,NA,NA,NA
SUPAMT79304,3SNVL38CIAR0QPW3Y6ZG4K9QHJ5KCP,AFFCDF88-5C27-47DA-A4C7-439401BD8120,2023-09-28_14h03.40.872,WP_VExplicitOC_LH,2022.2.5,Win32,16.12903226,100,4.981,2.0027,NA,NA,NA,NA,NA,bored,"bored, not bored","more bored, less bored",NA,NA,NA,NA,NA,NA,NA,NA,NA,NA,NA,NA,NA,NA,NA,NA,NA,NA,NA,NA,NA,NA,NA,NA,NA,NA,NA,NA,NA,NA,NA,NA,NA,NA,NA,NA,NA,NA,0,2,2,2,1,NA,NA,NA,NA,NA
SUPAMT79304,3SNVL38CIAR0QPW3Y6ZG4K9QHJ5KCP,AFFCDF88-5C27-47DA-A4C7-439401BD8120,2023-09-28_14h03.40.872,WP_VExplicitOC_LH,2022.2.5,Win32,16.12903226,NA,NA,NA,NA,NA,NA,NA,NA,NA,NA,NA,NA,NA,NA,NA,NA,NA,NA,NA,NA,NA,NA,NA,NA,NA,NA,NA,NA,NA,NA,NA,NA,NA,NA,NA,NA,NA,NA,NA,NA,NA,NA,NA,NA,NA,NA,NA,NA,NA,NA,NA,NA,NA,NA,13,0,13,0,1
SUPAMT79304,3SNVL38CIAR0QPW3Y6ZG4K9QHJ5KCP,AFFCDF88-5C27-47DA-A4C7-439401BD8120,2023-09-28_14h03.40.872,WP_VExplicitOC_LH,2022.2.5,Win32,16.12903226,NA,NA,2.0201,NA,NA,NA,NA,NA,bored,"bored, not bored","more bored, less bored",NA,NA,NA,NA,NA,NA,NA,NA,NA,NA,NA,NA,NA,NA,NA,NA,NA,NA,NA,NA,NA,NA,NA,NA,NA,NA,NA,NA,NA,NA,NA,NA,NA,NA,NA,NA,NA,NA,0,0,0,2,1,NA,NA,NA,NA,NA
SUPAMT79304,3SNVL38CIAR0QPW3Y6ZG4K9QHJ5KCP,AFFCDF88-5C27-47DA-A4C7-439401BD8120,2023-09-28_14h03.40.872,WP_VExplicitOC_LH,2022.2.5,Win32,16.12903226,100,3.8965,2.0336,NA,NA,NA,NA,NA,frustrated,"frustrated, not frustrated","more frustrated, less frustrated",NA,NA,NA,NA,NA,NA,NA,NA,NA,NA,NA,NA,NA,NA,NA,NA,NA,NA,NA,NA,NA,NA,NA,NA,NA,NA,NA,NA,NA,NA,NA,NA,NA,NA,NA,NA,NA,NA,0,1,1,1,1,NA,NA,NA,NA,NA
SUPAMT79304,3SNVL38CIAR0QPW3Y6ZG4K9QHJ5KCP,AFFCDF88-5C27-47DA-A4C7-439401BD8120,2023-09-28_14h03.40.872,WP_VExplicitOC_LH,2022.2.5,Win32,16.12903226,100,4.3019,2.0517,NA,NA,NA,NA,NA,happy,"unhappy, happy","less happy, more happy",NA,NA,NA,NA,NA,NA,NA,NA,NA,NA,NA,NA,NA,NA,NA,NA,NA,NA,NA,NA,NA,NA,NA,NA,NA,NA,NA,NA,NA,NA,NA,NA,NA,NA,NA,NA,NA,NA,0,2,2,0,1,NA,NA,NA,NA,NA
SUPAMT79304,3SNVL38CIAR0QPW3Y6ZG4K9QHJ5KCP,AFFCDF88-5C27-47DA-A4C7-439401BD8120,2023-09-28_14h03.40.872,WP_VExplicitOC_LH,2022.2.5,Win32,16.12903226,NA,NA,NA,NA,NA,NA,NA,NA,NA,NA,NA,NA,NA,NA,NA,NA,NA,NA,NA,NA,NA,NA,NA,NA,NA,NA,NA,NA,NA,NA,NA,NA,NA,NA,NA,NA,NA,NA,NA,NA,NA,NA,NA,NA,NA,NA,NA,NA,NA,NA,NA,NA,NA,NA,14,0,14,0,1
SUPAMT79304,3SNVL38CIAR0QPW3Y6ZG4K9QHJ5KCP,AFFCDF88-5C27-47DA-A4C7-439401BD8120,2023-09-28_14h03.40.872,WP_VExplicitOC_LH,2022.2.5,Win32,16.12903226,NA,NA,NA,NA,NA,NA,NA,NA,NA,NA,NA,NA,NA,NA,NA,NA,NA,NA,NA,NA,NA,NA,NA,NA,NA,NA,NA,NA,NA,NA,NA,NA,NA,NA,NA,NA,NA,NA,NA,NA,NA,NA,NA,NA,NA,NA,NA,NA,NA,NA,NA,NA,NA,NA,NA,NA,NA,NA,NA
