participant,session,completion,date,expName,psychopyVersion,OS,frameRate,rating_all.response,rating_all.rt,rating_all.tStart,rndRat1.thisRepN,rndRat1.thisTrialN,rndRat1.thisN,rndRat1.thisIndex,rndRat1.ran,Emo,Labs,Labs2,rating_alt.response,rating_alt.rt,AltC.thisRepN,AltC.thisTrialN,AltC.thisN,AltC.thisIndex,AltC.ran,alt_choices,pic_choices,BottomAlt_Choice,rndRat2.thisRepN,rndRat2.thisTrialN,rndRat2.thisN,rndRat2.thisIndex,rndRat2.ran,rndRat3.thisRepN,rndRat3.thisTrialN,rndRat3.thisN,rndRat3.thisIndex,rndRat3.ran,trials_FC_L.thisRepN,trials_FC_L.thisTrialN,trials_FC_L.thisN,trials_FC_L.thisIndex,trials_FC_L.ran,rating_alt_2.response,rating_alt_2.rt,AltC2.thisRepN,AltC2.thisTrialN,AltC2.thisN,AltC2.thisIndex,AltC2.ran,TopAlt_Choice,rndRat4.thisRepN,rndRat4.thisTrialN,rndRat4.thisN,rndRat4.thisIndex,rndRat4.ran,rndRat5.thisRepN,rndRat5.thisTrialN,rndRat5.thisN,rndRat5.thisIndex,rndRat5.ran,trials_FC_H.thisRepN,trials_FC_H.thisTrialN,trials_FC_H.thisN,trials_FC_H.thisIndex,trials_FC_H.ran
SUPAMT77733,33C7UALJVRXW8LK49KDTXJH8H98811,DEBE7B35-4CB5-498E-B10C-47D468FACD6E,2023-09-26_10h30.00.368,WP_VExplicitOC_LH,2022.2.5,Win32,32.65092892,NA,NA,NA,NA,NA,NA,NA,NA,NA,NA,NA,NA,NA,NA,NA,NA,NA,NA,NA,NA,NA,NA,NA,NA,NA,NA,NA,NA,NA,NA,NA,NA,NA,NA,NA,NA,NA,NA,NA,NA,NA,NA,NA,NA,NA,NA,NA,NA,NA,NA,NA,NA,NA,NA,NA,NA,NA,NA,NA
SUPAMT77733,33C7UALJVRXW8LK49KDTXJH8H98811,DEBE7B35-4CB5-498E-B10C-47D468FACD6E,2023-09-26_10h30.00.368,WP_VExplicitOC_LH,2022.2.5,Win32,32.65092892,NA,NA,NA,NA,NA,NA,NA,NA,NA,NA,NA,NA,NA,NA,NA,NA,NA,NA,NA,NA,NA,NA,NA,NA,NA,NA,NA,NA,NA,NA,NA,NA,NA,NA,NA,NA,NA,NA,NA,NA,NA,NA,NA,NA,NA,NA,NA,NA,NA,NA,NA,NA,NA,NA,NA,NA,NA,NA,NA
SUPAMT77733,33C7UALJVRXW8LK49KDTXJH8H98811,DEBE7B35-4CB5-498E-B10C-47D468FACD6E,2023-09-26_10h30.00.368,WP_VExplicitOC_LH,2022.2.5,Win32,32.65092892,NA,NA,NA,NA,NA,NA,NA,NA,NA,NA,NA,NA,NA,NA,NA,NA,NA,NA,NA,NA,NA,NA,NA,NA,NA,NA,NA,NA,NA,NA,NA,NA,NA,NA,NA,NA,NA,NA,NA,NA,NA,NA,NA,NA,NA,NA,NA,NA,NA,NA,NA,NA,NA,NA,NA,NA,NA,NA,NA
SUPAMT77733,33C7UALJVRXW8LK49KDTXJH8H98811,DEBE7B35-4CB5-498E-B10C-47D468FACD6E,2023-09-26_10h30.00.368,WP_VExplicitOC_LH,2022.2.5,Win32,32.65092892,64.58333333,3.9061,2.0445,0,0,0,1,1,frustrated,"frustrated, not frustrated","more frustrated, less frustrated",NA,NA,NA,NA,NA,NA,NA,NA,NA,NA,NA,NA,NA,NA,NA,NA,NA,NA,NA,NA,NA,NA,NA,NA,NA,NA,NA,NA,NA,NA,NA,NA,NA,NA,NA,NA,NA,NA,NA,NA,NA,NA,NA,NA,NA,NA,NA,NA
SUPAMT77733,33C7UALJVRXW8LK49KDTXJH8H98811,DEBE7B35-4CB5-498E-B10C-47D468FACD6E,2023-09-26_10h30.00.368,WP_VExplicitOC_LH,2022.2.5,Win32,32.65092892,65.36458333,3.9617,2.037,0,1,1,2,1,bored,"bored, not bored","more bored, less bored",NA,NA,NA,NA,NA,NA,NA,NA,NA,NA,NA,NA,NA,NA,NA,NA,NA,NA,NA,NA,NA,NA,NA,NA,NA,NA,NA,NA,NA,NA,NA,NA,NA,NA,NA,NA,NA,NA,NA,NA,NA,NA,NA,NA,NA,NA,NA,NA
SUPAMT77733,33C7UALJVRXW8LK49KDTXJH8H98811,DEBE7B35-4CB5-498E-B10C-47D468FACD6E,2023-09-26_10h30.00.368,WP_VExplicitOC_LH,2022.2.5,Win32,32.65092892,67.70833333,3.2505,2.0197,0,2,2,0,1,happy,"unhappy, happy","less happy, more happy",NA,NA,NA,NA,NA,NA,NA,NA,NA,NA,NA,NA,NA,NA,NA,NA,NA,NA,NA,NA,NA,NA,NA,NA,NA,NA,NA,NA,NA,NA,NA,NA,NA,NA,NA,NA,NA,NA,NA,NA,NA,NA,NA,NA,NA,NA,NA,NA
SUPAMT77733,33C7UALJVRXW8LK49KDTXJH8H98811,DEBE7B35-4CB5-498E-B10C-47D468FACD6E,2023-09-26_10h30.00.368,WP_VExplicitOC_LH,2022.2.5,Win32,32.65092892,NA,NA,NA,NA,NA,NA,NA,NA,NA,NA,NA,NA,NA,NA,NA,NA,NA,NA,NA,NA,NA,NA,NA,NA,NA,NA,NA,NA,NA,NA,NA,NA,NA,NA,NA,NA,NA,NA,NA,NA,NA,NA,NA,NA,NA,NA,NA,NA,NA,NA,NA,NA,NA,NA,NA,NA,NA,NA,NA
SUPAMT77733,33C7UALJVRXW8LK49KDTXJH8H98811,DEBE7B35-4CB5-498E-B10C-47D468FACD6E,2023-09-26_10h30.00.368,WP_VExplicitOC_LH,2022.2.5,Win32,32.65092892,NA,NA,NA,NA,NA,NA,NA,NA,NA,NA,NA,NA,NA,NA,NA,NA,NA,NA,NA,NA,NA,NA,NA,NA,NA,NA,NA,NA,NA,NA,NA,NA,NA,NA,NA,NA,NA,NA,NA,NA,NA,NA,NA,NA,NA,NA,NA,NA,NA,NA,NA,NA,NA,NA,NA,NA,NA,NA,NA
SUPAMT77733,33C7UALJVRXW8LK49KDTXJH8H98811,DEBE7B35-4CB5-498E-B10C-47D468FACD6E,2023-09-26_10h30.00.368,WP_VExplicitOC_LH,2022.2.5,Win32,32.65092892,NA,NA,NA,NA,NA,NA,NA,NA,NA,NA,NA,NA,NA,NA,NA,NA,NA,NA,NA,NA,NA,NA,NA,NA,NA,NA,NA,NA,NA,NA,NA,NA,NA,NA,NA,NA,NA,NA,NA,NA,NA,NA,NA,NA,NA,NA,NA,NA,NA,NA,NA,NA,NA,NA,NA,NA,NA,NA,NA
SUPAMT77733,33C7UALJVRXW8LK49KDTXJH8H98811,DEBE7B35-4CB5-498E-B10C-47D468FACD6E,2023-09-26_10h30.00.368,WP_VExplicitOC_LH,2022.2.5,Win32,32.65092892,NA,NA,NA,NA,NA,NA,NA,NA,NA,NA,NA,NA,NA,NA,NA,NA,NA,NA,NA,NA,NA,NA,NA,NA,NA,NA,NA,NA,NA,NA,NA,NA,NA,NA,NA,NA,NA,NA,NA,NA,NA,NA,NA,NA,NA,NA,NA,NA,NA,NA,NA,NA,NA,NA,NA,NA,NA,NA,NA
SUPAMT77733,33C7UALJVRXW8LK49KDTXJH8H98811,DEBE7B35-4CB5-498E-B10C-47D468FACD6E,2023-09-26_10h30.00.368,WP_VExplicitOC_LH,2022.2.5,Win32,32.65092892,NA,NA,NA,NA,NA,NA,NA,NA,NA,NA,NA,79.6875,6.2007,0,0,0,0,1,rest (looking at a fixed cross),001.png,NA,NA,NA,NA,NA,NA,NA,NA,NA,NA,NA,NA,NA,NA,NA,NA,NA,NA,NA,NA,NA,NA,NA,NA,NA,NA,NA,NA,NA,NA,NA,NA,NA,NA,NA,NA,NA,NA,NA
SUPAMT77733,33C7UALJVRXW8LK49KDTXJH8H98811,DEBE7B35-4CB5-498E-B10C-47D468FACD6E,2023-09-26_10h30.00.368,WP_VExplicitOC_LH,2022.2.5,Win32,32.65092892,NA,NA,NA,NA,NA,NA,NA,NA,NA,NA,NA,65.625,3.2272,0,1,1,1,1,stand up,002.png,NA,NA,NA,NA,NA,NA,NA,NA,NA,NA,NA,NA,NA,NA,NA,NA,NA,NA,NA,NA,NA,NA,NA,NA,NA,NA,NA,NA,NA,NA,NA,NA,NA,NA,NA,NA,NA,NA,NA
SUPAMT77733,33C7UALJVRXW8LK49KDTXJH8H98811,DEBE7B35-4CB5-498E-B10C-47D468FACD6E,2023-09-26_10h30.00.368,WP_VExplicitOC_LH,2022.2.5,Win32,32.65092892,NA,NA,NA,NA,NA,NA,NA,NA,NA,NA,NA,-31.25,3.1336,0,2,2,2,1,stretch,003.png,NA,NA,NA,NA,NA,NA,NA,NA,NA,NA,NA,NA,NA,NA,NA,NA,NA,NA,NA,NA,NA,NA,NA,NA,NA,NA,NA,NA,NA,NA,NA,NA,NA,NA,NA,NA,NA,NA,NA
SUPAMT77733,33C7UALJVRXW8LK49KDTXJH8H98811,DEBE7B35-4CB5-498E-B10C-47D468FACD6E,2023-09-26_10h30.00.368,WP_VExplicitOC_LH,2022.2.5,Win32,32.65092892,NA,NA,NA,NA,NA,NA,NA,NA,NA,NA,NA,34.89583333,2.3568,0,3,3,3,1,make a drink,004.png,NA,NA,NA,NA,NA,NA,NA,NA,NA,NA,NA,NA,NA,NA,NA,NA,NA,NA,NA,NA,NA,NA,NA,NA,NA,NA,NA,NA,NA,NA,NA,NA,NA,NA,NA,NA,NA,NA,NA
SUPAMT77733,33C7UALJVRXW8LK49KDTXJH8H98811,DEBE7B35-4CB5-498E-B10C-47D468FACD6E,2023-09-26_10h30.00.368,WP_VExplicitOC_LH,2022.2.5,Win32,32.65092892,NA,NA,NA,NA,NA,NA,NA,NA,NA,NA,NA,75.78125,2.4434,0,4,4,4,1,scroll social media,005.png,NA,NA,NA,NA,NA,NA,NA,NA,NA,NA,NA,NA,NA,NA,NA,NA,NA,NA,NA,NA,NA,NA,NA,NA,NA,NA,NA,NA,NA,NA,NA,NA,NA,NA,NA,NA,NA,NA,NA
SUPAMT77733,33C7UALJVRXW8LK49KDTXJH8H98811,DEBE7B35-4CB5-498E-B10C-47D468FACD6E,2023-09-26_10h30.00.368,WP_VExplicitOC_LH,2022.2.5,Win32,32.65092892,NA,NA,NA,NA,NA,NA,NA,NA,NA,NA,NA,86.19791667,1.6527,0,5,5,5,1,listen to music,006.png,NA,NA,NA,NA,NA,NA,NA,NA,NA,NA,NA,NA,NA,NA,NA,NA,NA,NA,NA,NA,NA,NA,NA,NA,NA,NA,NA,NA,NA,NA,NA,NA,NA,NA,NA,NA,NA,NA,NA
SUPAMT77733,33C7UALJVRXW8LK49KDTXJH8H98811,DEBE7B35-4CB5-498E-B10C-47D468FACD6E,2023-09-26_10h30.00.368,WP_VExplicitOC_LH,2022.2.5,Win32,32.65092892,NA,NA,NA,NA,NA,NA,NA,NA,NA,NA,NA,77.08333333,2.2786,0,6,6,6,1,daydream,007.png,NA,NA,NA,NA,NA,NA,NA,NA,NA,NA,NA,NA,NA,NA,NA,NA,NA,NA,NA,NA,NA,NA,NA,NA,NA,NA,NA,NA,NA,NA,NA,NA,NA,NA,NA,NA,NA,NA,NA
SUPAMT77733,33C7UALJVRXW8LK49KDTXJH8H98811,DEBE7B35-4CB5-498E-B10C-47D468FACD6E,2023-09-26_10h30.00.368,WP_VExplicitOC_LH,2022.2.5,Win32,32.65092892,NA,NA,NA,NA,NA,NA,NA,NA,NA,NA,NA,67.44791667,1.6132,0,7,7,7,1,watch a short animation,008.png,NA,NA,NA,NA,NA,NA,NA,NA,NA,NA,NA,NA,NA,NA,NA,NA,NA,NA,NA,NA,NA,NA,NA,NA,NA,NA,NA,NA,NA,NA,NA,NA,NA,NA,NA,NA,NA,NA,NA
SUPAMT77733,33C7UALJVRXW8LK49KDTXJH8H98811,DEBE7B35-4CB5-498E-B10C-47D468FACD6E,2023-09-26_10h30.00.368,WP_VExplicitOC_LH,2022.2.5,Win32,32.65092892,NA,NA,NA,NA,NA,NA,NA,NA,NA,NA,NA,-26.30208333,1.8634,0,8,8,8,1,read a novel,009.png,NA,NA,NA,NA,NA,NA,NA,NA,NA,NA,NA,NA,NA,NA,NA,NA,NA,NA,NA,NA,NA,NA,NA,NA,NA,NA,NA,NA,NA,NA,NA,NA,NA,NA,NA,NA,NA,NA,NA
SUPAMT77733,33C7UALJVRXW8LK49KDTXJH8H98811,DEBE7B35-4CB5-498E-B10C-47D468FACD6E,2023-09-26_10h30.00.368,WP_VExplicitOC_LH,2022.2.5,Win32,32.65092892,NA,NA,NA,NA,NA,NA,NA,NA,NA,NA,NA,44.27083333,1.8592,0,9,9,9,1,read the news,010.png,NA,NA,NA,NA,NA,NA,NA,NA,NA,NA,NA,NA,NA,NA,NA,NA,NA,NA,NA,NA,NA,NA,NA,NA,NA,NA,NA,NA,NA,NA,NA,NA,NA,NA,NA,NA,NA,NA,NA
SUPAMT77733,33C7UALJVRXW8LK49KDTXJH8H98811,DEBE7B35-4CB5-498E-B10C-47D468FACD6E,2023-09-26_10h30.00.368,WP_VExplicitOC_LH,2022.2.5,Win32,32.65092892,NA,NA,NA,NA,NA,NA,NA,NA,NA,NA,NA,NA,NA,NA,NA,NA,NA,NA,NA,NA,NA,NA,NA,NA,NA,NA,NA,NA,NA,NA,NA,NA,NA,NA,NA,NA,NA,NA,NA,NA,NA,NA,NA,NA,NA,NA,NA,NA,NA,NA,NA,NA,NA,NA,NA,NA,NA,NA,NA
SUPAMT77733,33C7UALJVRXW8LK49KDTXJH8H98811,DEBE7B35-4CB5-498E-B10C-47D468FACD6E,2023-09-26_10h30.00.368,WP_VExplicitOC_LH,2022.2.5,Win32,32.65092892,NA,NA,NA,NA,NA,NA,NA,NA,NA,NA,NA,NA,NA,NA,NA,NA,NA,NA,NA,NA,stretch,NA,NA,NA,NA,NA,NA,NA,NA,NA,NA,NA,NA,NA,NA,NA,NA,NA,NA,NA,NA,NA,NA,NA,NA,NA,NA,NA,NA,NA,NA,NA,NA,NA,NA,NA,NA,NA,NA
SUPAMT77733,33C7UALJVRXW8LK49KDTXJH8H98811,DEBE7B35-4CB5-498E-B10C-47D468FACD6E,2023-09-26_10h30.00.368,WP_VExplicitOC_LH,2022.2.5,Win32,32.65092892,59.89583333,3.4066,2.0202,NA,NA,NA,NA,NA,happy,"unhappy, happy","less happy, more happy",NA,NA,NA,NA,NA,NA,NA,NA,NA,NA,0,0,0,0,1,NA,NA,NA,NA,NA,NA,NA,NA,NA,NA,NA,NA,NA,NA,NA,NA,NA,NA,NA,NA,NA,NA,NA,NA,NA,NA,NA,NA,NA,NA,NA,NA,NA
SUPAMT77733,33C7UALJVRXW8LK49KDTXJH8H98811,DEBE7B35-4CB5-498E-B10C-47D468FACD6E,2023-09-26_10h30.00.368,WP_VExplicitOC_LH,2022.2.5,Win32,32.65092892,59.89583333,3.3994,2.038,NA,NA,NA,NA,NA,bored,"bored, not bored","more bored, less bored",NA,NA,NA,NA,NA,NA,NA,NA,NA,NA,0,1,1,2,1,NA,NA,NA,NA,NA,NA,NA,NA,NA,NA,NA,NA,NA,NA,NA,NA,NA,NA,NA,NA,NA,NA,NA,NA,NA,NA,NA,NA,NA,NA,NA,NA,NA
SUPAMT77733,33C7UALJVRXW8LK49KDTXJH8H98811,DEBE7B35-4CB5-498E-B10C-47D468FACD6E,2023-09-26_10h30.00.368,WP_VExplicitOC_LH,2022.2.5,Win32,32.65092892,59.89583333,3.4341,2.0297,NA,NA,NA,NA,NA,frustrated,"frustrated, not frustrated","more frustrated, less frustrated",NA,NA,NA,NA,NA,NA,NA,NA,NA,NA,0,2,2,1,1,NA,NA,NA,NA,NA,NA,NA,NA,NA,NA,NA,NA,NA,NA,NA,NA,NA,NA,NA,NA,NA,NA,NA,NA,NA,NA,NA,NA,NA,NA,NA,NA,NA
SUPAMT77733,33C7UALJVRXW8LK49KDTXJH8H98811,DEBE7B35-4CB5-498E-B10C-47D468FACD6E,2023-09-26_10h30.00.368,WP_VExplicitOC_LH,2022.2.5,Win32,32.65092892,NA,NA,NA,NA,NA,NA,NA,NA,NA,NA,NA,NA,NA,NA,NA,NA,NA,NA,NA,NA,NA,NA,NA,NA,NA,NA,NA,NA,NA,NA,NA,NA,NA,NA,NA,NA,NA,NA,NA,NA,NA,NA,NA,NA,NA,NA,NA,NA,NA,NA,NA,NA,NA,NA,NA,NA,NA,NA,NA
SUPAMT77733,33C7UALJVRXW8LK49KDTXJH8H98811,DEBE7B35-4CB5-498E-B10C-47D468FACD6E,2023-09-26_10h30.00.368,WP_VExplicitOC_LH,2022.2.5,Win32,32.65092892,NA,NA,NA,NA,NA,NA,NA,NA,NA,NA,NA,NA,NA,NA,NA,NA,NA,NA,NA,NA,NA,NA,NA,NA,NA,NA,NA,NA,NA,NA,NA,NA,NA,NA,NA,NA,NA,NA,NA,NA,NA,NA,NA,NA,NA,NA,NA,NA,NA,NA,NA,NA,NA,NA,NA,NA,NA,NA,NA
SUPAMT77733,33C7UALJVRXW8LK49KDTXJH8H98811,DEBE7B35-4CB5-498E-B10C-47D468FACD6E,2023-09-26_10h30.00.368,WP_VExplicitOC_LH,2022.2.5,Win32,32.65092892,69.53125,4.6726,2.0098,NA,NA,NA,NA,NA,bored,"bored, not bored","more bored, less bored",NA,NA,NA,NA,NA,NA,NA,NA,NA,NA,NA,NA,NA,NA,NA,0,0,0,2,1,NA,NA,NA,NA,NA,NA,NA,NA,NA,NA,NA,NA,NA,NA,NA,NA,NA,NA,NA,NA,NA,NA,NA,NA,NA,NA,NA,NA
SUPAMT77733,33C7UALJVRXW8LK49KDTXJH8H98811,DEBE7B35-4CB5-498E-B10C-47D468FACD6E,2023-09-26_10h30.00.368,WP_VExplicitOC_LH,2022.2.5,Win32,32.65092892,68.48958333,3.8333,2.0118,NA,NA,NA,NA,NA,happy,"unhappy, happy","less happy, more happy",NA,NA,NA,NA,NA,NA,NA,NA,NA,NA,NA,NA,NA,NA,NA,0,1,1,0,1,NA,NA,NA,NA,NA,NA,NA,NA,NA,NA,NA,NA,NA,NA,NA,NA,NA,NA,NA,NA,NA,NA,NA,NA,NA,NA,NA,NA
SUPAMT77733,33C7UALJVRXW8LK49KDTXJH8H98811,DEBE7B35-4CB5-498E-B10C-47D468FACD6E,2023-09-26_10h30.00.368,WP_VExplicitOC_LH,2022.2.5,Win32,32.65092892,67.44791667,3.4107,2.0409,NA,NA,NA,NA,NA,frustrated,"frustrated, not frustrated","more frustrated, less frustrated",NA,NA,NA,NA,NA,NA,NA,NA,NA,NA,NA,NA,NA,NA,NA,0,2,2,1,1,NA,NA,NA,NA,NA,NA,NA,NA,NA,NA,NA,NA,NA,NA,NA,NA,NA,NA,NA,NA,NA,NA,NA,NA,NA,NA,NA,NA
SUPAMT77733,33C7UALJVRXW8LK49KDTXJH8H98811,DEBE7B35-4CB5-498E-B10C-47D468FACD6E,2023-09-26_10h30.00.368,WP_VExplicitOC_LH,2022.2.5,Win32,32.65092892,NA,NA,NA,NA,NA,NA,NA,NA,NA,NA,NA,NA,NA,NA,NA,NA,NA,NA,NA,NA,NA,NA,NA,NA,NA,NA,NA,NA,NA,NA,NA,0,0,0,0,1,NA,NA,NA,NA,NA,NA,NA,NA,NA,NA,NA,NA,NA,NA,NA,NA,NA,NA,NA,NA,NA,NA,NA
SUPAMT77733,33C7UALJVRXW8LK49KDTXJH8H98811,DEBE7B35-4CB5-498E-B10C-47D468FACD6E,2023-09-26_10h30.00.368,WP_VExplicitOC_LH,2022.2.5,Win32,32.65092892,63.02083333,4.1847,2.022,NA,NA,NA,NA,NA,happy,"unhappy, happy","less happy, more happy",NA,NA,NA,NA,NA,NA,NA,NA,NA,NA,NA,NA,NA,NA,NA,0,0,0,0,1,NA,NA,NA,NA,NA,NA,NA,NA,NA,NA,NA,NA,NA,NA,NA,NA,NA,NA,NA,NA,NA,NA,NA,NA,NA,NA,NA,NA
SUPAMT77733,33C7UALJVRXW8LK49KDTXJH8H98811,DEBE7B35-4CB5-498E-B10C-47D468FACD6E,2023-09-26_10h30.00.368,WP_VExplicitOC_LH,2022.2.5,Win32,32.65092892,64.84375,3.6477,2.0359,NA,NA,NA,NA,NA,bored,"bored, not bored","more bored, less bored",NA,NA,NA,NA,NA,NA,NA,NA,NA,NA,NA,NA,NA,NA,NA,0,1,1,2,1,NA,NA,NA,NA,NA,NA,NA,NA,NA,NA,NA,NA,NA,NA,NA,NA,NA,NA,NA,NA,NA,NA,NA,NA,NA,NA,NA,NA
SUPAMT77733,33C7UALJVRXW8LK49KDTXJH8H98811,DEBE7B35-4CB5-498E-B10C-47D468FACD6E,2023-09-26_10h30.00.368,WP_VExplicitOC_LH,2022.2.5,Win32,32.65092892,64.84375,3.1434,2.0271,NA,NA,NA,NA,NA,frustrated,"frustrated, not frustrated","more frustrated, less frustrated",NA,NA,NA,NA,NA,NA,NA,NA,NA,NA,NA,NA,NA,NA,NA,0,2,2,1,1,NA,NA,NA,NA,NA,NA,NA,NA,NA,NA,NA,NA,NA,NA,NA,NA,NA,NA,NA,NA,NA,NA,NA,NA,NA,NA,NA,NA
SUPAMT77733,33C7UALJVRXW8LK49KDTXJH8H98811,DEBE7B35-4CB5-498E-B10C-47D468FACD6E,2023-09-26_10h30.00.368,WP_VExplicitOC_LH,2022.2.5,Win32,32.65092892,NA,NA,NA,NA,NA,NA,NA,NA,NA,NA,NA,NA,NA,NA,NA,NA,NA,NA,NA,NA,NA,NA,NA,NA,NA,NA,NA,NA,NA,NA,NA,1,0,1,0,1,NA,NA,NA,NA,NA,NA,NA,NA,NA,NA,NA,NA,NA,NA,NA,NA,NA,NA,NA,NA,NA,NA,NA
SUPAMT77733,33C7UALJVRXW8LK49KDTXJH8H98811,DEBE7B35-4CB5-498E-B10C-47D468FACD6E,2023-09-26_10h30.00.368,WP_VExplicitOC_LH,2022.2.5,Win32,32.65092892,69.27083333,3.8917,2.0494,NA,NA,NA,NA,NA,frustrated,"frustrated, not frustrated","more frustrated, less frustrated",NA,NA,NA,NA,NA,NA,NA,NA,NA,NA,NA,NA,NA,NA,NA,0,0,0,1,1,NA,NA,NA,NA,NA,NA,NA,NA,NA,NA,NA,NA,NA,NA,NA,NA,NA,NA,NA,NA,NA,NA,NA,NA,NA,NA,NA,NA
SUPAMT77733,33C7UALJVRXW8LK49KDTXJH8H98811,DEBE7B35-4CB5-498E-B10C-47D468FACD6E,2023-09-26_10h30.00.368,WP_VExplicitOC_LH,2022.2.5,Win32,32.65092892,54.42708333,3.4255,2.0249,NA,NA,NA,NA,NA,happy,"unhappy, happy","less happy, more happy",NA,NA,NA,NA,NA,NA,NA,NA,NA,NA,NA,NA,NA,NA,NA,0,1,1,0,1,NA,NA,NA,NA,NA,NA,NA,NA,NA,NA,NA,NA,NA,NA,NA,NA,NA,NA,NA,NA,NA,NA,NA,NA,NA,NA,NA,NA
SUPAMT77733,33C7UALJVRXW8LK49KDTXJH8H98811,DEBE7B35-4CB5-498E-B10C-47D468FACD6E,2023-09-26_10h30.00.368,WP_VExplicitOC_LH,2022.2.5,Win32,32.65092892,73.69791667,3.1226,2.0215,NA,NA,NA,NA,NA,bored,"bored, not bored","more bored, less bored",NA,NA,NA,NA,NA,NA,NA,NA,NA,NA,NA,NA,NA,NA,NA,0,2,2,2,1,NA,NA,NA,NA,NA,NA,NA,NA,NA,NA,NA,NA,NA,NA,NA,NA,NA,NA,NA,NA,NA,NA,NA,NA,NA,NA,NA,NA
SUPAMT77733,33C7UALJVRXW8LK49KDTXJH8H98811,DEBE7B35-4CB5-498E-B10C-47D468FACD6E,2023-09-26_10h30.00.368,WP_VExplicitOC_LH,2022.2.5,Win32,32.65092892,NA,NA,NA,NA,NA,NA,NA,NA,NA,NA,NA,NA,NA,NA,NA,NA,NA,NA,NA,NA,NA,NA,NA,NA,NA,NA,NA,NA,NA,NA,NA,2,0,2,0,1,NA,NA,NA,NA,NA,NA,NA,NA,NA,NA,NA,NA,NA,NA,NA,NA,NA,NA,NA,NA,NA,NA,NA
SUPAMT77733,33C7UALJVRXW8LK49KDTXJH8H98811,DEBE7B35-4CB5-498E-B10C-47D468FACD6E,2023-09-26_10h30.00.368,WP_VExplicitOC_LH,2022.2.5,Win32,32.65092892,61.19791667,4.101,2.0235,NA,NA,NA,NA,NA,bored,"bored, not bored","more bored, less bored",NA,NA,NA,NA,NA,NA,NA,NA,NA,NA,NA,NA,NA,NA,NA,0,0,0,2,1,NA,NA,NA,NA,NA,NA,NA,NA,NA,NA,NA,NA,NA,NA,NA,NA,NA,NA,NA,NA,NA,NA,NA,NA,NA,NA,NA,NA
SUPAMT77733,33C7UALJVRXW8LK49KDTXJH8H98811,DEBE7B35-4CB5-498E-B10C-47D468FACD6E,2023-09-26_10h30.00.368,WP_VExplicitOC_LH,2022.2.5,Win32,32.65092892,68.22916667,3.7008,2.0198,NA,NA,NA,NA,NA,frustrated,"frustrated, not frustrated","more frustrated, less frustrated",NA,NA,NA,NA,NA,NA,NA,NA,NA,NA,NA,NA,NA,NA,NA,0,1,1,1,1,NA,NA,NA,NA,NA,NA,NA,NA,NA,NA,NA,NA,NA,NA,NA,NA,NA,NA,NA,NA,NA,NA,NA,NA,NA,NA,NA,NA
SUPAMT77733,33C7UALJVRXW8LK49KDTXJH8H98811,DEBE7B35-4CB5-498E-B10C-47D468FACD6E,2023-09-26_10h30.00.368,WP_VExplicitOC_LH,2022.2.5,Win32,32.65092892,67.1875,3.6914,2.032,NA,NA,NA,NA,NA,happy,"unhappy, happy","less happy, more happy",NA,NA,NA,NA,NA,NA,NA,NA,NA,NA,NA,NA,NA,NA,NA,0,2,2,0,1,NA,NA,NA,NA,NA,NA,NA,NA,NA,NA,NA,NA,NA,NA,NA,NA,NA,NA,NA,NA,NA,NA,NA,NA,NA,NA,NA,NA
SUPAMT77733,33C7UALJVRXW8LK49KDTXJH8H98811,DEBE7B35-4CB5-498E-B10C-47D468FACD6E,2023-09-26_10h30.00.368,WP_VExplicitOC_LH,2022.2.5,Win32,32.65092892,NA,NA,NA,NA,NA,NA,NA,NA,NA,NA,NA,NA,NA,NA,NA,NA,NA,NA,NA,NA,NA,NA,NA,NA,NA,NA,NA,NA,NA,NA,NA,3,0,3,0,1,NA,NA,NA,NA,NA,NA,NA,NA,NA,NA,NA,NA,NA,NA,NA,NA,NA,NA,NA,NA,NA,NA,NA
SUPAMT77733,33C7UALJVRXW8LK49KDTXJH8H98811,DEBE7B35-4CB5-498E-B10C-47D468FACD6E,2023-09-26_10h30.00.368,WP_VExplicitOC_LH,2022.2.5,Win32,32.65092892,66.66666667,3.7409,2.0438,NA,NA,NA,NA,NA,happy,"unhappy, happy","less happy, more happy",NA,NA,NA,NA,NA,NA,NA,NA,NA,NA,NA,NA,NA,NA,NA,0,0,0,0,1,NA,NA,NA,NA,NA,NA,NA,NA,NA,NA,NA,NA,NA,NA,NA,NA,NA,NA,NA,NA,NA,NA,NA,NA,NA,NA,NA,NA
SUPAMT77733,33C7UALJVRXW8LK49KDTXJH8H98811,DEBE7B35-4CB5-498E-B10C-47D468FACD6E,2023-09-26_10h30.00.368,WP_VExplicitOC_LH,2022.2.5,Win32,32.65092892,68.75,3.2641,2.0332,NA,NA,NA,NA,NA,frustrated,"frustrated, not frustrated","more frustrated, less frustrated",NA,NA,NA,NA,NA,NA,NA,NA,NA,NA,NA,NA,NA,NA,NA,0,1,1,1,1,NA,NA,NA,NA,NA,NA,NA,NA,NA,NA,NA,NA,NA,NA,NA,NA,NA,NA,NA,NA,NA,NA,NA,NA,NA,NA,NA,NA
SUPAMT77733,33C7UALJVRXW8LK49KDTXJH8H98811,DEBE7B35-4CB5-498E-B10C-47D468FACD6E,2023-09-26_10h30.00.368,WP_VExplicitOC_LH,2022.2.5,Win32,32.65092892,66.92708333,3.3756,2.0369,NA,NA,NA,NA,NA,bored,"bored, not bored","more bored, less bored",NA,NA,NA,NA,NA,NA,NA,NA,NA,NA,NA,NA,NA,NA,NA,0,2,2,2,1,NA,NA,NA,NA,NA,NA,NA,NA,NA,NA,NA,NA,NA,NA,NA,NA,NA,NA,NA,NA,NA,NA,NA,NA,NA,NA,NA,NA
SUPAMT77733,33C7UALJVRXW8LK49KDTXJH8H98811,DEBE7B35-4CB5-498E-B10C-47D468FACD6E,2023-09-26_10h30.00.368,WP_VExplicitOC_LH,2022.2.5,Win32,32.65092892,NA,NA,NA,NA,NA,NA,NA,NA,NA,NA,NA,NA,NA,NA,NA,NA,NA,NA,NA,NA,NA,NA,NA,NA,NA,NA,NA,NA,NA,NA,NA,4,0,4,0,1,NA,NA,NA,NA,NA,NA,NA,NA,NA,NA,NA,NA,NA,NA,NA,NA,NA,NA,NA,NA,NA,NA,NA
SUPAMT77733,33C7UALJVRXW8LK49KDTXJH8H98811,DEBE7B35-4CB5-498E-B10C-47D468FACD6E,2023-09-26_10h30.00.368,WP_VExplicitOC_LH,2022.2.5,Win32,32.65092892,49.21875,3.5683,2.0017,NA,NA,NA,NA,NA,happy,"unhappy, happy","less happy, more happy",NA,NA,NA,NA,NA,NA,NA,NA,NA,NA,NA,NA,NA,NA,NA,0,0,0,0,1,NA,NA,NA,NA,NA,NA,NA,NA,NA,NA,NA,NA,NA,NA,NA,NA,NA,NA,NA,NA,NA,NA,NA,NA,NA,NA,NA,NA
SUPAMT77733,33C7UALJVRXW8LK49KDTXJH8H98811,DEBE7B35-4CB5-498E-B10C-47D468FACD6E,2023-09-26_10h30.00.368,WP_VExplicitOC_LH,2022.2.5,Win32,32.65092892,-32.29166667,3.2452,2.0282,NA,NA,NA,NA,NA,frustrated,"frustrated, not frustrated","more frustrated, less frustrated",NA,NA,NA,NA,NA,NA,NA,NA,NA,NA,NA,NA,NA,NA,NA,0,1,1,1,1,NA,NA,NA,NA,NA,NA,NA,NA,NA,NA,NA,NA,NA,NA,NA,NA,NA,NA,NA,NA,NA,NA,NA,NA,NA,NA,NA,NA
SUPAMT77733,33C7UALJVRXW8LK49KDTXJH8H98811,DEBE7B35-4CB5-498E-B10C-47D468FACD6E,2023-09-26_10h30.00.368,WP_VExplicitOC_LH,2022.2.5,Win32,32.65092892,27.34375,3.1135,2.0162,NA,NA,NA,NA,NA,bored,"bored, not bored","more bored, less bored",NA,NA,NA,NA,NA,NA,NA,NA,NA,NA,NA,NA,NA,NA,NA,0,2,2,2,1,NA,NA,NA,NA,NA,NA,NA,NA,NA,NA,NA,NA,NA,NA,NA,NA,NA,NA,NA,NA,NA,NA,NA,NA,NA,NA,NA,NA
SUPAMT77733,33C7UALJVRXW8LK49KDTXJH8H98811,DEBE7B35-4CB5-498E-B10C-47D468FACD6E,2023-09-26_10h30.00.368,WP_VExplicitOC_LH,2022.2.5,Win32,32.65092892,NA,NA,NA,NA,NA,NA,NA,NA,NA,NA,NA,NA,NA,NA,NA,NA,NA,NA,NA,NA,NA,NA,NA,NA,NA,NA,NA,NA,NA,NA,NA,5,0,5,0,1,NA,NA,NA,NA,NA,NA,NA,NA,NA,NA,NA,NA,NA,NA,NA,NA,NA,NA,NA,NA,NA,NA,NA
SUPAMT77733,33C7UALJVRXW8LK49KDTXJH8H98811,DEBE7B35-4CB5-498E-B10C-47D468FACD6E,2023-09-26_10h30.00.368,WP_VExplicitOC_LH,2022.2.5,Win32,32.65092892,61.45833333,4.2141,2.0526,NA,NA,NA,NA,NA,bored,"bored, not bored","more bored, less bored",NA,NA,NA,NA,NA,NA,NA,NA,NA,NA,NA,NA,NA,NA,NA,0,0,0,2,1,NA,NA,NA,NA,NA,NA,NA,NA,NA,NA,NA,NA,NA,NA,NA,NA,NA,NA,NA,NA,NA,NA,NA,NA,NA,NA,NA,NA
SUPAMT77733,33C7UALJVRXW8LK49KDTXJH8H98811,DEBE7B35-4CB5-498E-B10C-47D468FACD6E,2023-09-26_10h30.00.368,WP_VExplicitOC_LH,2022.2.5,Win32,32.65092892,78.38541667,3.9839,2.0392,NA,NA,NA,NA,NA,happy,"unhappy, happy","less happy, more happy",NA,NA,NA,NA,NA,NA,NA,NA,NA,NA,NA,NA,NA,NA,NA,0,1,1,0,1,NA,NA,NA,NA,NA,NA,NA,NA,NA,NA,NA,NA,NA,NA,NA,NA,NA,NA,NA,NA,NA,NA,NA,NA,NA,NA,NA,NA
SUPAMT77733,33C7UALJVRXW8LK49KDTXJH8H98811,DEBE7B35-4CB5-498E-B10C-47D468FACD6E,2023-09-26_10h30.00.368,WP_VExplicitOC_LH,2022.2.5,Win32,32.65092892,78.64583333,3.5734,2.0501,NA,NA,NA,NA,NA,frustrated,"frustrated, not frustrated","more frustrated, less frustrated",NA,NA,NA,NA,NA,NA,NA,NA,NA,NA,NA,NA,NA,NA,NA,0,2,2,1,1,NA,NA,NA,NA,NA,NA,NA,NA,NA,NA,NA,NA,NA,NA,NA,NA,NA,NA,NA,NA,NA,NA,NA,NA,NA,NA,NA,NA
SUPAMT77733,33C7UALJVRXW8LK49KDTXJH8H98811,DEBE7B35-4CB5-498E-B10C-47D468FACD6E,2023-09-26_10h30.00.368,WP_VExplicitOC_LH,2022.2.5,Win32,32.65092892,NA,NA,NA,NA,NA,NA,NA,NA,NA,NA,NA,NA,NA,NA,NA,NA,NA,NA,NA,NA,NA,NA,NA,NA,NA,NA,NA,NA,NA,NA,NA,6,0,6,0,1,NA,NA,NA,NA,NA,NA,NA,NA,NA,NA,NA,NA,NA,NA,NA,NA,NA,NA,NA,NA,NA,NA,NA
SUPAMT77733,33C7UALJVRXW8LK49KDTXJH8H98811,DEBE7B35-4CB5-498E-B10C-47D468FACD6E,2023-09-26_10h30.00.368,WP_VExplicitOC_LH,2022.2.5,Win32,32.65092892,61.97916667,3.7277,2.014,NA,NA,NA,NA,NA,happy,"unhappy, happy","less happy, more happy",NA,NA,NA,NA,NA,NA,NA,NA,NA,NA,NA,NA,NA,NA,NA,0,0,0,0,1,NA,NA,NA,NA,NA,NA,NA,NA,NA,NA,NA,NA,NA,NA,NA,NA,NA,NA,NA,NA,NA,NA,NA,NA,NA,NA,NA,NA
SUPAMT77733,33C7UALJVRXW8LK49KDTXJH8H98811,DEBE7B35-4CB5-498E-B10C-47D468FACD6E,2023-09-26_10h30.00.368,WP_VExplicitOC_LH,2022.2.5,Win32,32.65092892,61.97916667,5.5583,2.005,NA,NA,NA,NA,NA,bored,"bored, not bored","more bored, less bored",NA,NA,NA,NA,NA,NA,NA,NA,NA,NA,NA,NA,NA,NA,NA,0,1,1,2,1,NA,NA,NA,NA,NA,NA,NA,NA,NA,NA,NA,NA,NA,NA,NA,NA,NA,NA,NA,NA,NA,NA,NA,NA,NA,NA,NA,NA
SUPAMT77733,33C7UALJVRXW8LK49KDTXJH8H98811,DEBE7B35-4CB5-498E-B10C-47D468FACD6E,2023-09-26_10h30.00.368,WP_VExplicitOC_LH,2022.2.5,Win32,32.65092892,61.97916667,5.3554,2.0545,NA,NA,NA,NA,NA,frustrated,"frustrated, not frustrated","more frustrated, less frustrated",NA,NA,NA,NA,NA,NA,NA,NA,NA,NA,NA,NA,NA,NA,NA,0,2,2,1,1,NA,NA,NA,NA,NA,NA,NA,NA,NA,NA,NA,NA,NA,NA,NA,NA,NA,NA,NA,NA,NA,NA,NA,NA,NA,NA,NA,NA
SUPAMT77733,33C7UALJVRXW8LK49KDTXJH8H98811,DEBE7B35-4CB5-498E-B10C-47D468FACD6E,2023-09-26_10h30.00.368,WP_VExplicitOC_LH,2022.2.5,Win32,32.65092892,NA,NA,NA,NA,NA,NA,NA,NA,NA,NA,NA,NA,NA,NA,NA,NA,NA,NA,NA,NA,NA,NA,NA,NA,NA,NA,NA,NA,NA,NA,NA,7,0,7,0,1,NA,NA,NA,NA,NA,NA,NA,NA,NA,NA,NA,NA,NA,NA,NA,NA,NA,NA,NA,NA,NA,NA,NA
SUPAMT77733,33C7UALJVRXW8LK49KDTXJH8H98811,DEBE7B35-4CB5-498E-B10C-47D468FACD6E,2023-09-26_10h30.00.368,WP_VExplicitOC_LH,2022.2.5,Win32,32.65092892,65.625,3.7608,2.0477,NA,NA,NA,NA,NA,frustrated,"frustrated, not frustrated","more frustrated, less frustrated",NA,NA,NA,NA,NA,NA,NA,NA,NA,NA,NA,NA,NA,NA,NA,0,0,0,1,1,NA,NA,NA,NA,NA,NA,NA,NA,NA,NA,NA,NA,NA,NA,NA,NA,NA,NA,NA,NA,NA,NA,NA,NA,NA,NA,NA,NA
SUPAMT77733,33C7UALJVRXW8LK49KDTXJH8H98811,DEBE7B35-4CB5-498E-B10C-47D468FACD6E,2023-09-26_10h30.00.368,WP_VExplicitOC_LH,2022.2.5,Win32,32.65092892,64.0625,3.6546,2.058,NA,NA,NA,NA,NA,bored,"bored, not bored","more bored, less bored",NA,NA,NA,NA,NA,NA,NA,NA,NA,NA,NA,NA,NA,NA,NA,0,1,1,2,1,NA,NA,NA,NA,NA,NA,NA,NA,NA,NA,NA,NA,NA,NA,NA,NA,NA,NA,NA,NA,NA,NA,NA,NA,NA,NA,NA,NA
SUPAMT77733,33C7UALJVRXW8LK49KDTXJH8H98811,DEBE7B35-4CB5-498E-B10C-47D468FACD6E,2023-09-26_10h30.00.368,WP_VExplicitOC_LH,2022.2.5,Win32,32.65092892,53.90625,3.4712,2.0704,NA,NA,NA,NA,NA,happy,"unhappy, happy","less happy, more happy",NA,NA,NA,NA,NA,NA,NA,NA,NA,NA,NA,NA,NA,NA,NA,0,2,2,0,1,NA,NA,NA,NA,NA,NA,NA,NA,NA,NA,NA,NA,NA,NA,NA,NA,NA,NA,NA,NA,NA,NA,NA,NA,NA,NA,NA,NA
SUPAMT77733,33C7UALJVRXW8LK49KDTXJH8H98811,DEBE7B35-4CB5-498E-B10C-47D468FACD6E,2023-09-26_10h30.00.368,WP_VExplicitOC_LH,2022.2.5,Win32,32.65092892,NA,NA,NA,NA,NA,NA,NA,NA,NA,NA,NA,NA,NA,NA,NA,NA,NA,NA,NA,NA,NA,NA,NA,NA,NA,NA,NA,NA,NA,NA,NA,8,0,8,0,1,NA,NA,NA,NA,NA,NA,NA,NA,NA,NA,NA,NA,NA,NA,NA,NA,NA,NA,NA,NA,NA,NA,NA
SUPAMT77733,33C7UALJVRXW8LK49KDTXJH8H98811,DEBE7B35-4CB5-498E-B10C-47D468FACD6E,2023-09-26_10h30.00.368,WP_VExplicitOC_LH,2022.2.5,Win32,32.65092892,60.41666667,3.8915,2.0451,NA,NA,NA,NA,NA,bored,"bored, not bored","more bored, less bored",NA,NA,NA,NA,NA,NA,NA,NA,NA,NA,NA,NA,NA,NA,NA,0,0,0,2,1,NA,NA,NA,NA,NA,NA,NA,NA,NA,NA,NA,NA,NA,NA,NA,NA,NA,NA,NA,NA,NA,NA,NA,NA,NA,NA,NA,NA
SUPAMT77733,33C7UALJVRXW8LK49KDTXJH8H98811,DEBE7B35-4CB5-498E-B10C-47D468FACD6E,2023-09-26_10h30.00.368,WP_VExplicitOC_LH,2022.2.5,Win32,32.65092892,73.69791667,4.0102,2.0249,NA,NA,NA,NA,NA,frustrated,"frustrated, not frustrated","more frustrated, less frustrated",NA,NA,NA,NA,NA,NA,NA,NA,NA,NA,NA,NA,NA,NA,NA,0,1,1,1,1,NA,NA,NA,NA,NA,NA,NA,NA,NA,NA,NA,NA,NA,NA,NA,NA,NA,NA,NA,NA,NA,NA,NA,NA,NA,NA,NA,NA
SUPAMT77733,33C7UALJVRXW8LK49KDTXJH8H98811,DEBE7B35-4CB5-498E-B10C-47D468FACD6E,2023-09-26_10h30.00.368,WP_VExplicitOC_LH,2022.2.5,Win32,32.65092892,68.48958333,4.0312,2.0275,NA,NA,NA,NA,NA,happy,"unhappy, happy","less happy, more happy",NA,NA,NA,NA,NA,NA,NA,NA,NA,NA,NA,NA,NA,NA,NA,0,2,2,0,1,NA,NA,NA,NA,NA,NA,NA,NA,NA,NA,NA,NA,NA,NA,NA,NA,NA,NA,NA,NA,NA,NA,NA,NA,NA,NA,NA,NA
SUPAMT77733,33C7UALJVRXW8LK49KDTXJH8H98811,DEBE7B35-4CB5-498E-B10C-47D468FACD6E,2023-09-26_10h30.00.368,WP_VExplicitOC_LH,2022.2.5,Win32,32.65092892,NA,NA,NA,NA,NA,NA,NA,NA,NA,NA,NA,NA,NA,NA,NA,NA,NA,NA,NA,NA,NA,NA,NA,NA,NA,NA,NA,NA,NA,NA,NA,9,0,9,0,1,NA,NA,NA,NA,NA,NA,NA,NA,NA,NA,NA,NA,NA,NA,NA,NA,NA,NA,NA,NA,NA,NA,NA
SUPAMT77733,33C7UALJVRXW8LK49KDTXJH8H98811,DEBE7B35-4CB5-498E-B10C-47D468FACD6E,2023-09-26_10h30.00.368,WP_VExplicitOC_LH,2022.2.5,Win32,32.65092892,NA,NA,2.0168,NA,NA,NA,NA,NA,happy,"unhappy, happy","less happy, more happy",NA,NA,NA,NA,NA,NA,NA,NA,NA,NA,NA,NA,NA,NA,NA,0,0,0,0,1,NA,NA,NA,NA,NA,NA,NA,NA,NA,NA,NA,NA,NA,NA,NA,NA,NA,NA,NA,NA,NA,NA,NA,NA,NA,NA,NA,NA
SUPAMT77733,33C7UALJVRXW8LK49KDTXJH8H98811,DEBE7B35-4CB5-498E-B10C-47D468FACD6E,2023-09-26_10h30.00.368,WP_VExplicitOC_LH,2022.2.5,Win32,32.65092892,62.5,4.3299,2.0296,NA,NA,NA,NA,NA,bored,"bored, not bored","more bored, less bored",NA,NA,NA,NA,NA,NA,NA,NA,NA,NA,NA,NA,NA,NA,NA,0,1,1,2,1,NA,NA,NA,NA,NA,NA,NA,NA,NA,NA,NA,NA,NA,NA,NA,NA,NA,NA,NA,NA,NA,NA,NA,NA,NA,NA,NA,NA
SUPAMT77733,33C7UALJVRXW8LK49KDTXJH8H98811,DEBE7B35-4CB5-498E-B10C-47D468FACD6E,2023-09-26_10h30.00.368,WP_VExplicitOC_LH,2022.2.5,Win32,32.65092892,60.41666667,3.4353,2.0181,NA,NA,NA,NA,NA,frustrated,"frustrated, not frustrated","more frustrated, less frustrated",NA,NA,NA,NA,NA,NA,NA,NA,NA,NA,NA,NA,NA,NA,NA,0,2,2,1,1,NA,NA,NA,NA,NA,NA,NA,NA,NA,NA,NA,NA,NA,NA,NA,NA,NA,NA,NA,NA,NA,NA,NA,NA,NA,NA,NA,NA
SUPAMT77733,33C7UALJVRXW8LK49KDTXJH8H98811,DEBE7B35-4CB5-498E-B10C-47D468FACD6E,2023-09-26_10h30.00.368,WP_VExplicitOC_LH,2022.2.5,Win32,32.65092892,NA,NA,NA,NA,NA,NA,NA,NA,NA,NA,NA,NA,NA,NA,NA,NA,NA,NA,NA,NA,NA,NA,NA,NA,NA,NA,NA,NA,NA,NA,NA,10,0,10,0,1,NA,NA,NA,NA,NA,NA,NA,NA,NA,NA,NA,NA,NA,NA,NA,NA,NA,NA,NA,NA,NA,NA,NA
SUPAMT77733,33C7UALJVRXW8LK49KDTXJH8H98811,DEBE7B35-4CB5-498E-B10C-47D468FACD6E,2023-09-26_10h30.00.368,WP_VExplicitOC_LH,2022.2.5,Win32,32.65092892,57.03125,4.0127,2.0316,NA,NA,NA,NA,NA,bored,"bored, not bored","more bored, less bored",NA,NA,NA,NA,NA,NA,NA,NA,NA,NA,NA,NA,NA,NA,NA,0,0,0,2,1,NA,NA,NA,NA,NA,NA,NA,NA,NA,NA,NA,NA,NA,NA,NA,NA,NA,NA,NA,NA,NA,NA,NA,NA,NA,NA,NA,NA
SUPAMT77733,33C7UALJVRXW8LK49KDTXJH8H98811,DEBE7B35-4CB5-498E-B10C-47D468FACD6E,2023-09-26_10h30.00.368,WP_VExplicitOC_LH,2022.2.5,Win32,32.65092892,59.89583333,3.995,2.03,NA,NA,NA,NA,NA,happy,"unhappy, happy","less happy, more happy",NA,NA,NA,NA,NA,NA,NA,NA,NA,NA,NA,NA,NA,NA,NA,0,1,1,0,1,NA,NA,NA,NA,NA,NA,NA,NA,NA,NA,NA,NA,NA,NA,NA,NA,NA,NA,NA,NA,NA,NA,NA,NA,NA,NA,NA,NA
SUPAMT77733,33C7UALJVRXW8LK49KDTXJH8H98811,DEBE7B35-4CB5-498E-B10C-47D468FACD6E,2023-09-26_10h30.00.368,WP_VExplicitOC_LH,2022.2.5,Win32,32.65092892,69.53125,3.9413,2.0285,NA,NA,NA,NA,NA,frustrated,"frustrated, not frustrated","more frustrated, less frustrated",NA,NA,NA,NA,NA,NA,NA,NA,NA,NA,NA,NA,NA,NA,NA,0,2,2,1,1,NA,NA,NA,NA,NA,NA,NA,NA,NA,NA,NA,NA,NA,NA,NA,NA,NA,NA,NA,NA,NA,NA,NA,NA,NA,NA,NA,NA
SUPAMT77733,33C7UALJVRXW8LK49KDTXJH8H98811,DEBE7B35-4CB5-498E-B10C-47D468FACD6E,2023-09-26_10h30.00.368,WP_VExplicitOC_LH,2022.2.5,Win32,32.65092892,NA,NA,NA,NA,NA,NA,NA,NA,NA,NA,NA,NA,NA,NA,NA,NA,NA,NA,NA,NA,NA,NA,NA,NA,NA,NA,NA,NA,NA,NA,NA,11,0,11,0,1,NA,NA,NA,NA,NA,NA,NA,NA,NA,NA,NA,NA,NA,NA,NA,NA,NA,NA,NA,NA,NA,NA,NA
SUPAMT77733,33C7UALJVRXW8LK49KDTXJH8H98811,DEBE7B35-4CB5-498E-B10C-47D468FACD6E,2023-09-26_10h30.00.368,WP_VExplicitOC_LH,2022.2.5,Win32,32.65092892,69.01041667,4.5254,2.0036,NA,NA,NA,NA,NA,bored,"bored, not bored","more bored, less bored",NA,NA,NA,NA,NA,NA,NA,NA,NA,NA,NA,NA,NA,NA,NA,0,0,0,2,1,NA,NA,NA,NA,NA,NA,NA,NA,NA,NA,NA,NA,NA,NA,NA,NA,NA,NA,NA,NA,NA,NA,NA,NA,NA,NA,NA,NA
SUPAMT77733,33C7UALJVRXW8LK49KDTXJH8H98811,DEBE7B35-4CB5-498E-B10C-47D468FACD6E,2023-09-26_10h30.00.368,WP_VExplicitOC_LH,2022.2.5,Win32,32.65092892,69.01041667,3.7443,2.0493,NA,NA,NA,NA,NA,frustrated,"frustrated, not frustrated","more frustrated, less frustrated",NA,NA,NA,NA,NA,NA,NA,NA,NA,NA,NA,NA,NA,NA,NA,0,1,1,1,1,NA,NA,NA,NA,NA,NA,NA,NA,NA,NA,NA,NA,NA,NA,NA,NA,NA,NA,NA,NA,NA,NA,NA,NA,NA,NA,NA,NA
SUPAMT77733,33C7UALJVRXW8LK49KDTXJH8H98811,DEBE7B35-4CB5-498E-B10C-47D468FACD6E,2023-09-26_10h30.00.368,WP_VExplicitOC_LH,2022.2.5,Win32,32.65092892,68.48958333,3.7801,2.0258,NA,NA,NA,NA,NA,happy,"unhappy, happy","less happy, more happy",NA,NA,NA,NA,NA,NA,NA,NA,NA,NA,NA,NA,NA,NA,NA,0,2,2,0,1,NA,NA,NA,NA,NA,NA,NA,NA,NA,NA,NA,NA,NA,NA,NA,NA,NA,NA,NA,NA,NA,NA,NA,NA,NA,NA,NA,NA
SUPAMT77733,33C7UALJVRXW8LK49KDTXJH8H98811,DEBE7B35-4CB5-498E-B10C-47D468FACD6E,2023-09-26_10h30.00.368,WP_VExplicitOC_LH,2022.2.5,Win32,32.65092892,NA,NA,NA,NA,NA,NA,NA,NA,NA,NA,NA,NA,NA,NA,NA,NA,NA,NA,NA,NA,NA,NA,NA,NA,NA,NA,NA,NA,NA,NA,NA,12,0,12,0,1,NA,NA,NA,NA,NA,NA,NA,NA,NA,NA,NA,NA,NA,NA,NA,NA,NA,NA,NA,NA,NA,NA,NA
SUPAMT77733,33C7UALJVRXW8LK49KDTXJH8H98811,DEBE7B35-4CB5-498E-B10C-47D468FACD6E,2023-09-26_10h30.00.368,WP_VExplicitOC_LH,2022.2.5,Win32,32.65092892,55.20833333,3.8587,2.0209,NA,NA,NA,NA,NA,bored,"bored, not bored","more bored, less bored",NA,NA,NA,NA,NA,NA,NA,NA,NA,NA,NA,NA,NA,NA,NA,0,0,0,2,1,NA,NA,NA,NA,NA,NA,NA,NA,NA,NA,NA,NA,NA,NA,NA,NA,NA,NA,NA,NA,NA,NA,NA,NA,NA,NA,NA,NA
SUPAMT77733,33C7UALJVRXW8LK49KDTXJH8H98811,DEBE7B35-4CB5-498E-B10C-47D468FACD6E,2023-09-26_10h30.00.368,WP_VExplicitOC_LH,2022.2.5,Win32,32.65092892,53.125,3.9337,2.0194,NA,NA,NA,NA,NA,happy,"unhappy, happy","less happy, more happy",NA,NA,NA,NA,NA,NA,NA,NA,NA,NA,NA,NA,NA,NA,NA,0,1,1,0,1,NA,NA,NA,NA,NA,NA,NA,NA,NA,NA,NA,NA,NA,NA,NA,NA,NA,NA,NA,NA,NA,NA,NA,NA,NA,NA,NA,NA
SUPAMT77733,33C7UALJVRXW8LK49KDTXJH8H98811,DEBE7B35-4CB5-498E-B10C-47D468FACD6E,2023-09-26_10h30.00.368,WP_VExplicitOC_LH,2022.2.5,Win32,32.65092892,62.76041667,4.3056,2.0266,NA,NA,NA,NA,NA,frustrated,"frustrated, not frustrated","more frustrated, less frustrated",NA,NA,NA,NA,NA,NA,NA,NA,NA,NA,NA,NA,NA,NA,NA,0,2,2,1,1,NA,NA,NA,NA,NA,NA,NA,NA,NA,NA,NA,NA,NA,NA,NA,NA,NA,NA,NA,NA,NA,NA,NA,NA,NA,NA,NA,NA
SUPAMT77733,33C7UALJVRXW8LK49KDTXJH8H98811,DEBE7B35-4CB5-498E-B10C-47D468FACD6E,2023-09-26_10h30.00.368,WP_VExplicitOC_LH,2022.2.5,Win32,32.65092892,NA,NA,NA,NA,NA,NA,NA,NA,NA,NA,NA,NA,NA,NA,NA,NA,NA,NA,NA,NA,NA,NA,NA,NA,NA,NA,NA,NA,NA,NA,NA,13,0,13,0,1,NA,NA,NA,NA,NA,NA,NA,NA,NA,NA,NA,NA,NA,NA,NA,NA,NA,NA,NA,NA,NA,NA,NA
SUPAMT77733,33C7UALJVRXW8LK49KDTXJH8H98811,DEBE7B35-4CB5-498E-B10C-47D468FACD6E,2023-09-26_10h30.00.368,WP_VExplicitOC_LH,2022.2.5,Win32,32.65092892,32.29166667,3.9174,2.015,NA,NA,NA,NA,NA,bored,"bored, not bored","more bored, less bored",NA,NA,NA,NA,NA,NA,NA,NA,NA,NA,NA,NA,NA,NA,NA,0,0,0,2,1,NA,NA,NA,NA,NA,NA,NA,NA,NA,NA,NA,NA,NA,NA,NA,NA,NA,NA,NA,NA,NA,NA,NA,NA,NA,NA,NA,NA
SUPAMT77733,33C7UALJVRXW8LK49KDTXJH8H98811,DEBE7B35-4CB5-498E-B10C-47D468FACD6E,2023-09-26_10h30.00.368,WP_VExplicitOC_LH,2022.2.5,Win32,32.65092892,21.35416667,5.6699,2.0426,NA,NA,NA,NA,NA,frustrated,"frustrated, not frustrated","more frustrated, less frustrated",NA,NA,NA,NA,NA,NA,NA,NA,NA,NA,NA,NA,NA,NA,NA,0,1,1,1,1,NA,NA,NA,NA,NA,NA,NA,NA,NA,NA,NA,NA,NA,NA,NA,NA,NA,NA,NA,NA,NA,NA,NA,NA,NA,NA,NA,NA
SUPAMT77733,33C7UALJVRXW8LK49KDTXJH8H98811,DEBE7B35-4CB5-498E-B10C-47D468FACD6E,2023-09-26_10h30.00.368,WP_VExplicitOC_LH,2022.2.5,Win32,32.65092892,26.04166667,4.7764,2.0401,NA,NA,NA,NA,NA,happy,"unhappy, happy","less happy, more happy",NA,NA,NA,NA,NA,NA,NA,NA,NA,NA,NA,NA,NA,NA,NA,0,2,2,0,1,NA,NA,NA,NA,NA,NA,NA,NA,NA,NA,NA,NA,NA,NA,NA,NA,NA,NA,NA,NA,NA,NA,NA,NA,NA,NA,NA,NA
SUPAMT77733,33C7UALJVRXW8LK49KDTXJH8H98811,DEBE7B35-4CB5-498E-B10C-47D468FACD6E,2023-09-26_10h30.00.368,WP_VExplicitOC_LH,2022.2.5,Win32,32.65092892,NA,NA,NA,NA,NA,NA,NA,NA,NA,NA,NA,NA,NA,NA,NA,NA,NA,NA,NA,NA,NA,NA,NA,NA,NA,NA,NA,NA,NA,NA,NA,14,0,14,0,1,NA,NA,NA,NA,NA,NA,NA,NA,NA,NA,NA,NA,NA,NA,NA,NA,NA,NA,NA,NA,NA,NA,NA
SUPAMT77733,33C7UALJVRXW8LK49KDTXJH8H98811,DEBE7B35-4CB5-498E-B10C-47D468FACD6E,2023-09-26_10h30.00.368,WP_VExplicitOC_LH,2022.2.5,Win32,32.65092892,NA,NA,NA,NA,NA,NA,NA,NA,NA,NA,NA,NA,NA,NA,NA,NA,NA,NA,NA,NA,NA,NA,NA,NA,NA,NA,NA,NA,NA,NA,NA,NA,NA,NA,NA,NA,NA,NA,NA,NA,NA,NA,NA,NA,NA,NA,NA,NA,NA,NA,NA,NA,NA,NA,NA,NA,NA,NA,NA
SUPAMT77733,33C7UALJVRXW8LK49KDTXJH8H98811,DEBE7B35-4CB5-498E-B10C-47D468FACD6E,2023-09-26_10h30.00.368,WP_VExplicitOC_LH,2022.2.5,Win32,32.65092892,NA,NA,NA,NA,NA,NA,NA,NA,NA,NA,NA,NA,NA,NA,NA,NA,NA,NA,NA,NA,NA,NA,NA,NA,NA,NA,NA,NA,NA,NA,NA,NA,NA,NA,NA,NA,NA,NA,NA,NA,NA,NA,NA,NA,NA,NA,NA,NA,NA,NA,NA,NA,NA,NA,NA,NA,NA,NA,NA
SUPAMT77733,33C7UALJVRXW8LK49KDTXJH8H98811,DEBE7B35-4CB5-498E-B10C-47D468FACD6E,2023-09-26_10h30.00.368,WP_VExplicitOC_LH,2022.2.5,Win32,32.65092892,NA,NA,NA,NA,NA,NA,NA,NA,NA,NA,NA,NA,NA,NA,NA,NA,NA,NA,rest (looking at a fixed cross),001.png,NA,NA,NA,NA,NA,NA,NA,NA,NA,NA,NA,NA,NA,NA,NA,NA,-22.13541667,2.7854,0,0,0,0,1,NA,NA,NA,NA,NA,NA,NA,NA,NA,NA,NA,NA,NA,NA,NA,NA
SUPAMT77733,33C7UALJVRXW8LK49KDTXJH8H98811,DEBE7B35-4CB5-498E-B10C-47D468FACD6E,2023-09-26_10h30.00.368,WP_VExplicitOC_LH,2022.2.5,Win32,32.65092892,NA,NA,NA,NA,NA,NA,NA,NA,NA,NA,NA,NA,NA,NA,NA,NA,NA,NA,stand up,002.png,NA,NA,NA,NA,NA,NA,NA,NA,NA,NA,NA,NA,NA,NA,NA,NA,41.14583333,1.8682,0,1,1,1,1,NA,NA,NA,NA,NA,NA,NA,NA,NA,NA,NA,NA,NA,NA,NA,NA
SUPAMT77733,33C7UALJVRXW8LK49KDTXJH8H98811,DEBE7B35-4CB5-498E-B10C-47D468FACD6E,2023-09-26_10h30.00.368,WP_VExplicitOC_LH,2022.2.5,Win32,32.65092892,NA,NA,NA,NA,NA,NA,NA,NA,NA,NA,NA,NA,NA,NA,NA,NA,NA,NA,stretch,003.png,NA,NA,NA,NA,NA,NA,NA,NA,NA,NA,NA,NA,NA,NA,NA,NA,27.34375,1.7305,0,2,2,2,1,NA,NA,NA,NA,NA,NA,NA,NA,NA,NA,NA,NA,NA,NA,NA,NA
SUPAMT77733,33C7UALJVRXW8LK49KDTXJH8H98811,DEBE7B35-4CB5-498E-B10C-47D468FACD6E,2023-09-26_10h30.00.368,WP_VExplicitOC_LH,2022.2.5,Win32,32.65092892,NA,NA,NA,NA,NA,NA,NA,NA,NA,NA,NA,NA,NA,NA,NA,NA,NA,NA,make a drink,004.png,NA,NA,NA,NA,NA,NA,NA,NA,NA,NA,NA,NA,NA,NA,NA,NA,47.65625,2.9033,0,3,3,3,1,NA,NA,NA,NA,NA,NA,NA,NA,NA,NA,NA,NA,NA,NA,NA,NA
SUPAMT77733,33C7UALJVRXW8LK49KDTXJH8H98811,DEBE7B35-4CB5-498E-B10C-47D468FACD6E,2023-09-26_10h30.00.368,WP_VExplicitOC_LH,2022.2.5,Win32,32.65092892,NA,NA,NA,NA,NA,NA,NA,NA,NA,NA,NA,NA,NA,NA,NA,NA,NA,NA,scroll social media,005.png,NA,NA,NA,NA,NA,NA,NA,NA,NA,NA,NA,NA,NA,NA,NA,NA,45.3125,1.3371,0,4,4,4,1,NA,NA,NA,NA,NA,NA,NA,NA,NA,NA,NA,NA,NA,NA,NA,NA
SUPAMT77733,33C7UALJVRXW8LK49KDTXJH8H98811,DEBE7B35-4CB5-498E-B10C-47D468FACD6E,2023-09-26_10h30.00.368,WP_VExplicitOC_LH,2022.2.5,Win32,32.65092892,NA,NA,NA,NA,NA,NA,NA,NA,NA,NA,NA,NA,NA,NA,NA,NA,NA,NA,listen to music,006.png,NA,NA,NA,NA,NA,NA,NA,NA,NA,NA,NA,NA,NA,NA,NA,NA,56.77083333,1.7688,0,5,5,5,1,NA,NA,NA,NA,NA,NA,NA,NA,NA,NA,NA,NA,NA,NA,NA,NA
SUPAMT77733,33C7UALJVRXW8LK49KDTXJH8H98811,DEBE7B35-4CB5-498E-B10C-47D468FACD6E,2023-09-26_10h30.00.368,WP_VExplicitOC_LH,2022.2.5,Win32,32.65092892,NA,NA,NA,NA,NA,NA,NA,NA,NA,NA,NA,NA,NA,NA,NA,NA,NA,NA,daydream,007.png,NA,NA,NA,NA,NA,NA,NA,NA,NA,NA,NA,NA,NA,NA,NA,NA,62.76041667,1.795,0,6,6,6,1,NA,NA,NA,NA,NA,NA,NA,NA,NA,NA,NA,NA,NA,NA,NA,NA
SUPAMT77733,33C7UALJVRXW8LK49KDTXJH8H98811,DEBE7B35-4CB5-498E-B10C-47D468FACD6E,2023-09-26_10h30.00.368,WP_VExplicitOC_LH,2022.2.5,Win32,32.65092892,NA,NA,NA,NA,NA,NA,NA,NA,NA,NA,NA,NA,NA,NA,NA,NA,NA,NA,watch a short animation,008.png,NA,NA,NA,NA,NA,NA,NA,NA,NA,NA,NA,NA,NA,NA,NA,NA,63.28125,1.3784,0,7,7,7,1,NA,NA,NA,NA,NA,NA,NA,NA,NA,NA,NA,NA,NA,NA,NA,NA
SUPAMT77733,33C7UALJVRXW8LK49KDTXJH8H98811,DEBE7B35-4CB5-498E-B10C-47D468FACD6E,2023-09-26_10h30.00.368,WP_VExplicitOC_LH,2022.2.5,Win32,32.65092892,NA,NA,NA,NA,NA,NA,NA,NA,NA,NA,NA,NA,NA,NA,NA,NA,NA,NA,read a novel,009.png,NA,NA,NA,NA,NA,NA,NA,NA,NA,NA,NA,NA,NA,NA,NA,NA,-41.66666667,2.766,0,8,8,8,1,NA,NA,NA,NA,NA,NA,NA,NA,NA,NA,NA,NA,NA,NA,NA,NA
SUPAMT77733,33C7UALJVRXW8LK49KDTXJH8H98811,DEBE7B35-4CB5-498E-B10C-47D468FACD6E,2023-09-26_10h30.00.368,WP_VExplicitOC_LH,2022.2.5,Win32,32.65092892,NA,NA,NA,NA,NA,NA,NA,NA,NA,NA,NA,NA,NA,NA,NA,NA,NA,NA,read the news,010.png,NA,NA,NA,NA,NA,NA,NA,NA,NA,NA,NA,NA,NA,NA,NA,NA,35.15625,1.4555,0,9,9,9,1,NA,NA,NA,NA,NA,NA,NA,NA,NA,NA,NA,NA,NA,NA,NA,NA
SUPAMT77733,33C7UALJVRXW8LK49KDTXJH8H98811,DEBE7B35-4CB5-498E-B10C-47D468FACD6E,2023-09-26_10h30.00.368,WP_VExplicitOC_LH,2022.2.5,Win32,32.65092892,NA,NA,NA,NA,NA,NA,NA,NA,NA,NA,NA,NA,NA,NA,NA,NA,NA,NA,NA,NA,NA,NA,NA,NA,NA,NA,NA,NA,NA,NA,NA,NA,NA,NA,NA,NA,NA,NA,NA,NA,NA,NA,NA,watch a short animation,NA,NA,NA,NA,NA,NA,NA,NA,NA,NA,NA,NA,NA,NA,NA
SUPAMT77733,33C7UALJVRXW8LK49KDTXJH8H98811,DEBE7B35-4CB5-498E-B10C-47D468FACD6E,2023-09-26_10h30.00.368,WP_VExplicitOC_LH,2022.2.5,Win32,32.65092892,55.98958333,3.8283,2.0144,NA,NA,NA,NA,NA,bored,"bored, not bored","more bored, less bored",NA,NA,NA,NA,NA,NA,NA,NA,NA,NA,NA,NA,NA,NA,NA,NA,NA,NA,NA,NA,NA,NA,NA,NA,NA,NA,NA,NA,NA,NA,NA,NA,NA,0,0,0,2,1,NA,NA,NA,NA,NA,NA,NA,NA,NA,NA
SUPAMT77733,33C7UALJVRXW8LK49KDTXJH8H98811,DEBE7B35-4CB5-498E-B10C-47D468FACD6E,2023-09-26_10h30.00.368,WP_VExplicitOC_LH,2022.2.5,Win32,32.65092892,67.70833333,4.2003,2.0002,NA,NA,NA,NA,NA,frustrated,"frustrated, not frustrated","more frustrated, less frustrated",NA,NA,NA,NA,NA,NA,NA,NA,NA,NA,NA,NA,NA,NA,NA,NA,NA,NA,NA,NA,NA,NA,NA,NA,NA,NA,NA,NA,NA,NA,NA,NA,NA,0,1,1,1,1,NA,NA,NA,NA,NA,NA,NA,NA,NA,NA
SUPAMT77733,33C7UALJVRXW8LK49KDTXJH8H98811,DEBE7B35-4CB5-498E-B10C-47D468FACD6E,2023-09-26_10h30.00.368,WP_VExplicitOC_LH,2022.2.5,Win32,32.65092892,64.58333333,3.7922,2.0489,NA,NA,NA,NA,NA,happy,"unhappy, happy","less happy, more happy",NA,NA,NA,NA,NA,NA,NA,NA,NA,NA,NA,NA,NA,NA,NA,NA,NA,NA,NA,NA,NA,NA,NA,NA,NA,NA,NA,NA,NA,NA,NA,NA,NA,0,2,2,0,1,NA,NA,NA,NA,NA,NA,NA,NA,NA,NA
SUPAMT77733,33C7UALJVRXW8LK49KDTXJH8H98811,DEBE7B35-4CB5-498E-B10C-47D468FACD6E,2023-09-26_10h30.00.368,WP_VExplicitOC_LH,2022.2.5,Win32,32.65092892,NA,NA,NA,NA,NA,NA,NA,NA,NA,NA,NA,NA,NA,NA,NA,NA,NA,NA,NA,NA,NA,NA,NA,NA,NA,NA,NA,NA,NA,NA,NA,NA,NA,NA,NA,NA,NA,NA,NA,NA,NA,NA,NA,NA,NA,NA,NA,NA,NA,NA,NA,NA,NA,NA,NA,NA,NA,NA,NA
SUPAMT77733,33C7UALJVRXW8LK49KDTXJH8H98811,DEBE7B35-4CB5-498E-B10C-47D468FACD6E,2023-09-26_10h30.00.368,WP_VExplicitOC_LH,2022.2.5,Win32,32.65092892,NA,NA,NA,NA,NA,NA,NA,NA,NA,NA,NA,NA,NA,NA,NA,NA,NA,NA,NA,NA,NA,NA,NA,NA,NA,NA,NA,NA,NA,NA,NA,NA,NA,NA,NA,NA,NA,NA,NA,NA,NA,NA,NA,NA,NA,NA,NA,NA,NA,NA,NA,NA,NA,NA,NA,NA,NA,NA,NA
SUPAMT77733,33C7UALJVRXW8LK49KDTXJH8H98811,DEBE7B35-4CB5-498E-B10C-47D468FACD6E,2023-09-26_10h30.00.368,WP_VExplicitOC_LH,2022.2.5,Win32,32.65092892,59.63541667,3.6605,2.0274,NA,NA,NA,NA,NA,bored,"bored, not bored","more bored, less bored",NA,NA,NA,NA,NA,NA,NA,NA,NA,NA,NA,NA,NA,NA,NA,NA,NA,NA,NA,NA,NA,NA,NA,NA,NA,NA,NA,NA,NA,NA,NA,NA,NA,NA,NA,NA,NA,NA,0,0,0,2,1,NA,NA,NA,NA,NA
SUPAMT77733,33C7UALJVRXW8LK49KDTXJH8H98811,DEBE7B35-4CB5-498E-B10C-47D468FACD6E,2023-09-26_10h30.00.368,WP_VExplicitOC_LH,2022.2.5,Win32,32.65092892,45.57291667,3.4143,2.0139,NA,NA,NA,NA,NA,happy,"unhappy, happy","less happy, more happy",NA,NA,NA,NA,NA,NA,NA,NA,NA,NA,NA,NA,NA,NA,NA,NA,NA,NA,NA,NA,NA,NA,NA,NA,NA,NA,NA,NA,NA,NA,NA,NA,NA,NA,NA,NA,NA,NA,0,1,1,0,1,NA,NA,NA,NA,NA
SUPAMT77733,33C7UALJVRXW8LK49KDTXJH8H98811,DEBE7B35-4CB5-498E-B10C-47D468FACD6E,2023-09-26_10h30.00.368,WP_VExplicitOC_LH,2022.2.5,Win32,32.65092892,64.32291667,3.813,2.0461,NA,NA,NA,NA,NA,frustrated,"frustrated, not frustrated","more frustrated, less frustrated",NA,NA,NA,NA,NA,NA,NA,NA,NA,NA,NA,NA,NA,NA,NA,NA,NA,NA,NA,NA,NA,NA,NA,NA,NA,NA,NA,NA,NA,NA,NA,NA,NA,NA,NA,NA,NA,NA,0,2,2,1,1,NA,NA,NA,NA,NA
SUPAMT77733,33C7UALJVRXW8LK49KDTXJH8H98811,DEBE7B35-4CB5-498E-B10C-47D468FACD6E,2023-09-26_10h30.00.368,WP_VExplicitOC_LH,2022.2.5,Win32,32.65092892,NA,NA,NA,NA,NA,NA,NA,NA,NA,NA,NA,NA,NA,NA,NA,NA,NA,NA,NA,NA,NA,NA,NA,NA,NA,NA,NA,NA,NA,NA,NA,NA,NA,NA,NA,NA,NA,NA,NA,NA,NA,NA,NA,NA,NA,NA,NA,NA,NA,NA,NA,NA,NA,NA,0,0,0,0,1
SUPAMT77733,33C7UALJVRXW8LK49KDTXJH8H98811,DEBE7B35-4CB5-498E-B10C-47D468FACD6E,2023-09-26_10h30.00.368,WP_VExplicitOC_LH,2022.2.5,Win32,32.65092892,56.51041667,4.9101,2.0293,NA,NA,NA,NA,NA,happy,"unhappy, happy","less happy, more happy",NA,NA,NA,NA,NA,NA,NA,NA,NA,NA,NA,NA,NA,NA,NA,NA,NA,NA,NA,NA,NA,NA,NA,NA,NA,NA,NA,NA,NA,NA,NA,NA,NA,NA,NA,NA,NA,NA,0,0,0,0,1,NA,NA,NA,NA,NA
SUPAMT77733,33C7UALJVRXW8LK49KDTXJH8H98811,DEBE7B35-4CB5-498E-B10C-47D468FACD6E,2023-09-26_10h30.00.368,WP_VExplicitOC_LH,2022.2.5,Win32,32.65092892,55.46875,3.7336,2.0277,NA,NA,NA,NA,NA,frustrated,"frustrated, not frustrated","more frustrated, less frustrated",NA,NA,NA,NA,NA,NA,NA,NA,NA,NA,NA,NA,NA,NA,NA,NA,NA,NA,NA,NA,NA,NA,NA,NA,NA,NA,NA,NA,NA,NA,NA,NA,NA,NA,NA,NA,NA,NA,0,1,1,1,1,NA,NA,NA,NA,NA
SUPAMT77733,33C7UALJVRXW8LK49KDTXJH8H98811,DEBE7B35-4CB5-498E-B10C-47D468FACD6E,2023-09-26_10h30.00.368,WP_VExplicitOC_LH,2022.2.5,Win32,32.65092892,65.88541667,3.4481,2.0589,NA,NA,NA,NA,NA,bored,"bored, not bored","more bored, less bored",NA,NA,NA,NA,NA,NA,NA,NA,NA,NA,NA,NA,NA,NA,NA,NA,NA,NA,NA,NA,NA,NA,NA,NA,NA,NA,NA,NA,NA,NA,NA,NA,NA,NA,NA,NA,NA,NA,0,2,2,2,1,NA,NA,NA,NA,NA
SUPAMT77733,33C7UALJVRXW8LK49KDTXJH8H98811,DEBE7B35-4CB5-498E-B10C-47D468FACD6E,2023-09-26_10h30.00.368,WP_VExplicitOC_LH,2022.2.5,Win32,32.65092892,NA,NA,NA,NA,NA,NA,NA,NA,NA,NA,NA,NA,NA,NA,NA,NA,NA,NA,NA,NA,NA,NA,NA,NA,NA,NA,NA,NA,NA,NA,NA,NA,NA,NA,NA,NA,NA,NA,NA,NA,NA,NA,NA,NA,NA,NA,NA,NA,NA,NA,NA,NA,NA,NA,1,0,1,0,1
SUPAMT77733,33C7UALJVRXW8LK49KDTXJH8H98811,DEBE7B35-4CB5-498E-B10C-47D468FACD6E,2023-09-26_10h30.00.368,WP_VExplicitOC_LH,2022.2.5,Win32,32.65092892,50.52083333,3.5048,2.0241,NA,NA,NA,NA,NA,happy,"unhappy, happy","less happy, more happy",NA,NA,NA,NA,NA,NA,NA,NA,NA,NA,NA,NA,NA,NA,NA,NA,NA,NA,NA,NA,NA,NA,NA,NA,NA,NA,NA,NA,NA,NA,NA,NA,NA,NA,NA,NA,NA,NA,0,0,0,0,1,NA,NA,NA,NA,NA
SUPAMT77733,33C7UALJVRXW8LK49KDTXJH8H98811,DEBE7B35-4CB5-498E-B10C-47D468FACD6E,2023-09-26_10h30.00.368,WP_VExplicitOC_LH,2022.2.5,Win32,32.65092892,64.84375,4.1283,2.0385,NA,NA,NA,NA,NA,frustrated,"frustrated, not frustrated","more frustrated, less frustrated",NA,NA,NA,NA,NA,NA,NA,NA,NA,NA,NA,NA,NA,NA,NA,NA,NA,NA,NA,NA,NA,NA,NA,NA,NA,NA,NA,NA,NA,NA,NA,NA,NA,NA,NA,NA,NA,NA,0,1,1,1,1,NA,NA,NA,NA,NA
SUPAMT77733,33C7UALJVRXW8LK49KDTXJH8H98811,DEBE7B35-4CB5-498E-B10C-47D468FACD6E,2023-09-26_10h30.00.368,WP_VExplicitOC_LH,2022.2.5,Win32,32.65092892,69.01041667,4.3139,2.0502,NA,NA,NA,NA,NA,bored,"bored, not bored","more bored, less bored",NA,NA,NA,NA,NA,NA,NA,NA,NA,NA,NA,NA,NA,NA,NA,NA,NA,NA,NA,NA,NA,NA,NA,NA,NA,NA,NA,NA,NA,NA,NA,NA,NA,NA,NA,NA,NA,NA,0,2,2,2,1,NA,NA,NA,NA,NA
SUPAMT77733,33C7UALJVRXW8LK49KDTXJH8H98811,DEBE7B35-4CB5-498E-B10C-47D468FACD6E,2023-09-26_10h30.00.368,WP_VExplicitOC_LH,2022.2.5,Win32,32.65092892,NA,NA,NA,NA,NA,NA,NA,NA,NA,NA,NA,NA,NA,NA,NA,NA,NA,NA,NA,NA,NA,NA,NA,NA,NA,NA,NA,NA,NA,NA,NA,NA,NA,NA,NA,NA,NA,NA,NA,NA,NA,NA,NA,NA,NA,NA,NA,NA,NA,NA,NA,NA,NA,NA,2,0,2,0,1
SUPAMT77733,33C7UALJVRXW8LK49KDTXJH8H98811,DEBE7B35-4CB5-498E-B10C-47D468FACD6E,2023-09-26_10h30.00.368,WP_VExplicitOC_LH,2022.2.5,Win32,32.65092892,38.54166667,4.102,2.0478,NA,NA,NA,NA,NA,frustrated,"frustrated, not frustrated","more frustrated, less frustrated",NA,NA,NA,NA,NA,NA,NA,NA,NA,NA,NA,NA,NA,NA,NA,NA,NA,NA,NA,NA,NA,NA,NA,NA,NA,NA,NA,NA,NA,NA,NA,NA,NA,NA,NA,NA,NA,NA,0,0,0,1,1,NA,NA,NA,NA,NA
SUPAMT77733,33C7UALJVRXW8LK49KDTXJH8H98811,DEBE7B35-4CB5-498E-B10C-47D468FACD6E,2023-09-26_10h30.00.368,WP_VExplicitOC_LH,2022.2.5,Win32,32.65092892,53.125,4.1296,2.0114,NA,NA,NA,NA,NA,happy,"unhappy, happy","less happy, more happy",NA,NA,NA,NA,NA,NA,NA,NA,NA,NA,NA,NA,NA,NA,NA,NA,NA,NA,NA,NA,NA,NA,NA,NA,NA,NA,NA,NA,NA,NA,NA,NA,NA,NA,NA,NA,NA,NA,0,1,1,0,1,NA,NA,NA,NA,NA
SUPAMT77733,33C7UALJVRXW8LK49KDTXJH8H98811,DEBE7B35-4CB5-498E-B10C-47D468FACD6E,2023-09-26_10h30.00.368,WP_VExplicitOC_LH,2022.2.5,Win32,32.65092892,64.0625,3.9514,2.0083,NA,NA,NA,NA,NA,bored,"bored, not bored","more bored, less bored",NA,NA,NA,NA,NA,NA,NA,NA,NA,NA,NA,NA,NA,NA,NA,NA,NA,NA,NA,NA,NA,NA,NA,NA,NA,NA,NA,NA,NA,NA,NA,NA,NA,NA,NA,NA,NA,NA,0,2,2,2,1,NA,NA,NA,NA,NA
SUPAMT77733,33C7UALJVRXW8LK49KDTXJH8H98811,DEBE7B35-4CB5-498E-B10C-47D468FACD6E,2023-09-26_10h30.00.368,WP_VExplicitOC_LH,2022.2.5,Win32,32.65092892,NA,NA,NA,NA,NA,NA,NA,NA,NA,NA,NA,NA,NA,NA,NA,NA,NA,NA,NA,NA,NA,NA,NA,NA,NA,NA,NA,NA,NA,NA,NA,NA,NA,NA,NA,NA,NA,NA,NA,NA,NA,NA,NA,NA,NA,NA,NA,NA,NA,NA,NA,NA,NA,NA,3,0,3,0,1
SUPAMT77733,33C7UALJVRXW8LK49KDTXJH8H98811,DEBE7B35-4CB5-498E-B10C-47D468FACD6E,2023-09-26_10h30.00.368,WP_VExplicitOC_LH,2022.2.5,Win32,32.65092892,87.5,4.8828,2.0522,NA,NA,NA,NA,NA,bored,"bored, not bored","more bored, less bored",NA,NA,NA,NA,NA,NA,NA,NA,NA,NA,NA,NA,NA,NA,NA,NA,NA,NA,NA,NA,NA,NA,NA,NA,NA,NA,NA,NA,NA,NA,NA,NA,NA,NA,NA,NA,NA,NA,0,0,0,2,1,NA,NA,NA,NA,NA
SUPAMT77733,33C7UALJVRXW8LK49KDTXJH8H98811,DEBE7B35-4CB5-498E-B10C-47D468FACD6E,2023-09-26_10h30.00.368,WP_VExplicitOC_LH,2022.2.5,Win32,32.65092892,68.48958333,3.304,2.0575,NA,NA,NA,NA,NA,frustrated,"frustrated, not frustrated","more frustrated, less frustrated",NA,NA,NA,NA,NA,NA,NA,NA,NA,NA,NA,NA,NA,NA,NA,NA,NA,NA,NA,NA,NA,NA,NA,NA,NA,NA,NA,NA,NA,NA,NA,NA,NA,NA,NA,NA,NA,NA,0,1,1,1,1,NA,NA,NA,NA,NA
SUPAMT77733,33C7UALJVRXW8LK49KDTXJH8H98811,DEBE7B35-4CB5-498E-B10C-47D468FACD6E,2023-09-26_10h30.00.368,WP_VExplicitOC_LH,2022.2.5,Win32,32.65092892,67.1875,3.308,2.0119,NA,NA,NA,NA,NA,happy,"unhappy, happy","less happy, more happy",NA,NA,NA,NA,NA,NA,NA,NA,NA,NA,NA,NA,NA,NA,NA,NA,NA,NA,NA,NA,NA,NA,NA,NA,NA,NA,NA,NA,NA,NA,NA,NA,NA,NA,NA,NA,NA,NA,0,2,2,0,1,NA,NA,NA,NA,NA
SUPAMT77733,33C7UALJVRXW8LK49KDTXJH8H98811,DEBE7B35-4CB5-498E-B10C-47D468FACD6E,2023-09-26_10h30.00.368,WP_VExplicitOC_LH,2022.2.5,Win32,32.65092892,NA,NA,NA,NA,NA,NA,NA,NA,NA,NA,NA,NA,NA,NA,NA,NA,NA,NA,NA,NA,NA,NA,NA,NA,NA,NA,NA,NA,NA,NA,NA,NA,NA,NA,NA,NA,NA,NA,NA,NA,NA,NA,NA,NA,NA,NA,NA,NA,NA,NA,NA,NA,NA,NA,4,0,4,0,1
SUPAMT77733,33C7UALJVRXW8LK49KDTXJH8H98811,DEBE7B35-4CB5-498E-B10C-47D468FACD6E,2023-09-26_10h30.00.368,WP_VExplicitOC_LH,2022.2.5,Win32,32.65092892,61.97916667,3.8797,2.0333,NA,NA,NA,NA,NA,bored,"bored, not bored","more bored, less bored",NA,NA,NA,NA,NA,NA,NA,NA,NA,NA,NA,NA,NA,NA,NA,NA,NA,NA,NA,NA,NA,NA,NA,NA,NA,NA,NA,NA,NA,NA,NA,NA,NA,NA,NA,NA,NA,NA,0,0,0,2,1,NA,NA,NA,NA,NA
SUPAMT77733,33C7UALJVRXW8LK49KDTXJH8H98811,DEBE7B35-4CB5-498E-B10C-47D468FACD6E,2023-09-26_10h30.00.368,WP_VExplicitOC_LH,2022.2.5,Win32,32.65092892,67.1875,4.1982,2.0244,NA,NA,NA,NA,NA,happy,"unhappy, happy","less happy, more happy",NA,NA,NA,NA,NA,NA,NA,NA,NA,NA,NA,NA,NA,NA,NA,NA,NA,NA,NA,NA,NA,NA,NA,NA,NA,NA,NA,NA,NA,NA,NA,NA,NA,NA,NA,NA,NA,NA,0,1,1,0,1,NA,NA,NA,NA,NA
SUPAMT77733,33C7UALJVRXW8LK49KDTXJH8H98811,DEBE7B35-4CB5-498E-B10C-47D468FACD6E,2023-09-26_10h30.00.368,WP_VExplicitOC_LH,2022.2.5,Win32,32.65092892,49.21875,4.0259,2.0532,NA,NA,NA,NA,NA,frustrated,"frustrated, not frustrated","more frustrated, less frustrated",NA,NA,NA,NA,NA,NA,NA,NA,NA,NA,NA,NA,NA,NA,NA,NA,NA,NA,NA,NA,NA,NA,NA,NA,NA,NA,NA,NA,NA,NA,NA,NA,NA,NA,NA,NA,NA,NA,0,2,2,1,1,NA,NA,NA,NA,NA
SUPAMT77733,33C7UALJVRXW8LK49KDTXJH8H98811,DEBE7B35-4CB5-498E-B10C-47D468FACD6E,2023-09-26_10h30.00.368,WP_VExplicitOC_LH,2022.2.5,Win32,32.65092892,NA,NA,NA,NA,NA,NA,NA,NA,NA,NA,NA,NA,NA,NA,NA,NA,NA,NA,NA,NA,NA,NA,NA,NA,NA,NA,NA,NA,NA,NA,NA,NA,NA,NA,NA,NA,NA,NA,NA,NA,NA,NA,NA,NA,NA,NA,NA,NA,NA,NA,NA,NA,NA,NA,5,0,5,0,1
SUPAMT77733,33C7UALJVRXW8LK49KDTXJH8H98811,DEBE7B35-4CB5-498E-B10C-47D468FACD6E,2023-09-26_10h30.00.368,WP_VExplicitOC_LH,2022.2.5,Win32,32.65092892,64.0625,4.9679,2.0272,NA,NA,NA,NA,NA,bored,"bored, not bored","more bored, less bored",NA,NA,NA,NA,NA,NA,NA,NA,NA,NA,NA,NA,NA,NA,NA,NA,NA,NA,NA,NA,NA,NA,NA,NA,NA,NA,NA,NA,NA,NA,NA,NA,NA,NA,NA,NA,NA,NA,0,0,0,2,1,NA,NA,NA,NA,NA
SUPAMT77733,33C7UALJVRXW8LK49KDTXJH8H98811,DEBE7B35-4CB5-498E-B10C-47D468FACD6E,2023-09-26_10h30.00.368,WP_VExplicitOC_LH,2022.2.5,Win32,32.65092892,65.625,4.7263,2.0246,NA,NA,NA,NA,NA,happy,"unhappy, happy","less happy, more happy",NA,NA,NA,NA,NA,NA,NA,NA,NA,NA,NA,NA,NA,NA,NA,NA,NA,NA,NA,NA,NA,NA,NA,NA,NA,NA,NA,NA,NA,NA,NA,NA,NA,NA,NA,NA,NA,NA,0,1,1,0,1,NA,NA,NA,NA,NA
SUPAMT77733,33C7UALJVRXW8LK49KDTXJH8H98811,DEBE7B35-4CB5-498E-B10C-47D468FACD6E,2023-09-26_10h30.00.368,WP_VExplicitOC_LH,2022.2.5,Win32,32.65092892,65.625,4.835,2.0388,NA,NA,NA,NA,NA,frustrated,"frustrated, not frustrated","more frustrated, less frustrated",NA,NA,NA,NA,NA,NA,NA,NA,NA,NA,NA,NA,NA,NA,NA,NA,NA,NA,NA,NA,NA,NA,NA,NA,NA,NA,NA,NA,NA,NA,NA,NA,NA,NA,NA,NA,NA,NA,0,2,2,1,1,NA,NA,NA,NA,NA
SUPAMT77733,33C7UALJVRXW8LK49KDTXJH8H98811,DEBE7B35-4CB5-498E-B10C-47D468FACD6E,2023-09-26_10h30.00.368,WP_VExplicitOC_LH,2022.2.5,Win32,32.65092892,NA,NA,NA,NA,NA,NA,NA,NA,NA,NA,NA,NA,NA,NA,NA,NA,NA,NA,NA,NA,NA,NA,NA,NA,NA,NA,NA,NA,NA,NA,NA,NA,NA,NA,NA,NA,NA,NA,NA,NA,NA,NA,NA,NA,NA,NA,NA,NA,NA,NA,NA,NA,NA,NA,6,0,6,0,1
SUPAMT77733,33C7UALJVRXW8LK49KDTXJH8H98811,DEBE7B35-4CB5-498E-B10C-47D468FACD6E,2023-09-26_10h30.00.368,WP_VExplicitOC_LH,2022.2.5,Win32,32.65092892,69.53125,4.7567,2.0393,NA,NA,NA,NA,NA,frustrated,"frustrated, not frustrated","more frustrated, less frustrated",NA,NA,NA,NA,NA,NA,NA,NA,NA,NA,NA,NA,NA,NA,NA,NA,NA,NA,NA,NA,NA,NA,NA,NA,NA,NA,NA,NA,NA,NA,NA,NA,NA,NA,NA,NA,NA,NA,0,0,0,1,1,NA,NA,NA,NA,NA
SUPAMT77733,33C7UALJVRXW8LK49KDTXJH8H98811,DEBE7B35-4CB5-498E-B10C-47D468FACD6E,2023-09-26_10h30.00.368,WP_VExplicitOC_LH,2022.2.5,Win32,32.65092892,73.17708333,3.7461,2.0674,NA,NA,NA,NA,NA,bored,"bored, not bored","more bored, less bored",NA,NA,NA,NA,NA,NA,NA,NA,NA,NA,NA,NA,NA,NA,NA,NA,NA,NA,NA,NA,NA,NA,NA,NA,NA,NA,NA,NA,NA,NA,NA,NA,NA,NA,NA,NA,NA,NA,0,1,1,2,1,NA,NA,NA,NA,NA
SUPAMT77733,33C7UALJVRXW8LK49KDTXJH8H98811,DEBE7B35-4CB5-498E-B10C-47D468FACD6E,2023-09-26_10h30.00.368,WP_VExplicitOC_LH,2022.2.5,Win32,32.65092892,69.01041667,3.6939,2.0278,NA,NA,NA,NA,NA,happy,"unhappy, happy","less happy, more happy",NA,NA,NA,NA,NA,NA,NA,NA,NA,NA,NA,NA,NA,NA,NA,NA,NA,NA,NA,NA,NA,NA,NA,NA,NA,NA,NA,NA,NA,NA,NA,NA,NA,NA,NA,NA,NA,NA,0,2,2,0,1,NA,NA,NA,NA,NA
SUPAMT77733,33C7UALJVRXW8LK49KDTXJH8H98811,DEBE7B35-4CB5-498E-B10C-47D468FACD6E,2023-09-26_10h30.00.368,WP_VExplicitOC_LH,2022.2.5,Win32,32.65092892,NA,NA,NA,NA,NA,NA,NA,NA,NA,NA,NA,NA,NA,NA,NA,NA,NA,NA,NA,NA,NA,NA,NA,NA,NA,NA,NA,NA,NA,NA,NA,NA,NA,NA,NA,NA,NA,NA,NA,NA,NA,NA,NA,NA,NA,NA,NA,NA,NA,NA,NA,NA,NA,NA,7,0,7,0,1
SUPAMT77733,33C7UALJVRXW8LK49KDTXJH8H98811,DEBE7B35-4CB5-498E-B10C-47D468FACD6E,2023-09-26_10h30.00.368,WP_VExplicitOC_LH,2022.2.5,Win32,32.65092892,67.44791667,3.7587,2.057,NA,NA,NA,NA,NA,frustrated,"frustrated, not frustrated","more frustrated, less frustrated",NA,NA,NA,NA,NA,NA,NA,NA,NA,NA,NA,NA,NA,NA,NA,NA,NA,NA,NA,NA,NA,NA,NA,NA,NA,NA,NA,NA,NA,NA,NA,NA,NA,NA,NA,NA,NA,NA,0,0,0,1,1,NA,NA,NA,NA,NA
SUPAMT77733,33C7UALJVRXW8LK49KDTXJH8H98811,DEBE7B35-4CB5-498E-B10C-47D468FACD6E,2023-09-26_10h30.00.368,WP_VExplicitOC_LH,2022.2.5,Win32,32.65092892,76.30208333,3.7666,2.022,NA,NA,NA,NA,NA,happy,"unhappy, happy","less happy, more happy",NA,NA,NA,NA,NA,NA,NA,NA,NA,NA,NA,NA,NA,NA,NA,NA,NA,NA,NA,NA,NA,NA,NA,NA,NA,NA,NA,NA,NA,NA,NA,NA,NA,NA,NA,NA,NA,NA,0,1,1,0,1,NA,NA,NA,NA,NA
SUPAMT77733,33C7UALJVRXW8LK49KDTXJH8H98811,DEBE7B35-4CB5-498E-B10C-47D468FACD6E,2023-09-26_10h30.00.368,WP_VExplicitOC_LH,2022.2.5,Win32,32.65092892,64.58333333,3.4864,2.0072,NA,NA,NA,NA,NA,bored,"bored, not bored","more bored, less bored",NA,NA,NA,NA,NA,NA,NA,NA,NA,NA,NA,NA,NA,NA,NA,NA,NA,NA,NA,NA,NA,NA,NA,NA,NA,NA,NA,NA,NA,NA,NA,NA,NA,NA,NA,NA,NA,NA,0,2,2,2,1,NA,NA,NA,NA,NA
SUPAMT77733,33C7UALJVRXW8LK49KDTXJH8H98811,DEBE7B35-4CB5-498E-B10C-47D468FACD6E,2023-09-26_10h30.00.368,WP_VExplicitOC_LH,2022.2.5,Win32,32.65092892,NA,NA,NA,NA,NA,NA,NA,NA,NA,NA,NA,NA,NA,NA,NA,NA,NA,NA,NA,NA,NA,NA,NA,NA,NA,NA,NA,NA,NA,NA,NA,NA,NA,NA,NA,NA,NA,NA,NA,NA,NA,NA,NA,NA,NA,NA,NA,NA,NA,NA,NA,NA,NA,NA,8,0,8,0,1
SUPAMT77733,33C7UALJVRXW8LK49KDTXJH8H98811,DEBE7B35-4CB5-498E-B10C-47D468FACD6E,2023-09-26_10h30.00.368,WP_VExplicitOC_LH,2022.2.5,Win32,32.65092892,69.79166667,3.9025,2.0493,NA,NA,NA,NA,NA,bored,"bored, not bored","more bored, less bored",NA,NA,NA,NA,NA,NA,NA,NA,NA,NA,NA,NA,NA,NA,NA,NA,NA,NA,NA,NA,NA,NA,NA,NA,NA,NA,NA,NA,NA,NA,NA,NA,NA,NA,NA,NA,NA,NA,0,0,0,2,1,NA,NA,NA,NA,NA
SUPAMT77733,33C7UALJVRXW8LK49KDTXJH8H98811,DEBE7B35-4CB5-498E-B10C-47D468FACD6E,2023-09-26_10h30.00.368,WP_VExplicitOC_LH,2022.2.5,Win32,32.65092892,68.75,3.6581,2.0617,NA,NA,NA,NA,NA,happy,"unhappy, happy","less happy, more happy",NA,NA,NA,NA,NA,NA,NA,NA,NA,NA,NA,NA,NA,NA,NA,NA,NA,NA,NA,NA,NA,NA,NA,NA,NA,NA,NA,NA,NA,NA,NA,NA,NA,NA,NA,NA,NA,NA,0,1,1,0,1,NA,NA,NA,NA,NA
SUPAMT77733,33C7UALJVRXW8LK49KDTXJH8H98811,DEBE7B35-4CB5-498E-B10C-47D468FACD6E,2023-09-26_10h30.00.368,WP_VExplicitOC_LH,2022.2.5,Win32,32.65092892,92.1875,3.6517,2.0449,NA,NA,NA,NA,NA,frustrated,"frustrated, not frustrated","more frustrated, less frustrated",NA,NA,NA,NA,NA,NA,NA,NA,NA,NA,NA,NA,NA,NA,NA,NA,NA,NA,NA,NA,NA,NA,NA,NA,NA,NA,NA,NA,NA,NA,NA,NA,NA,NA,NA,NA,NA,NA,0,2,2,1,1,NA,NA,NA,NA,NA
SUPAMT77733,33C7UALJVRXW8LK49KDTXJH8H98811,DEBE7B35-4CB5-498E-B10C-47D468FACD6E,2023-09-26_10h30.00.368,WP_VExplicitOC_LH,2022.2.5,Win32,32.65092892,NA,NA,NA,NA,NA,NA,NA,NA,NA,NA,NA,NA,NA,NA,NA,NA,NA,NA,NA,NA,NA,NA,NA,NA,NA,NA,NA,NA,NA,NA,NA,NA,NA,NA,NA,NA,NA,NA,NA,NA,NA,NA,NA,NA,NA,NA,NA,NA,NA,NA,NA,NA,NA,NA,9,0,9,0,1
SUPAMT77733,33C7UALJVRXW8LK49KDTXJH8H98811,DEBE7B35-4CB5-498E-B10C-47D468FACD6E,2023-09-26_10h30.00.368,WP_VExplicitOC_LH,2022.2.5,Win32,32.65092892,69.27083333,5.2402,2.0326,NA,NA,NA,NA,NA,bored,"bored, not bored","more bored, less bored",NA,NA,NA,NA,NA,NA,NA,NA,NA,NA,NA,NA,NA,NA,NA,NA,NA,NA,NA,NA,NA,NA,NA,NA,NA,NA,NA,NA,NA,NA,NA,NA,NA,NA,NA,NA,NA,NA,0,0,0,2,1,NA,NA,NA,NA,NA
SUPAMT77733,33C7UALJVRXW8LK49KDTXJH8H98811,DEBE7B35-4CB5-498E-B10C-47D468FACD6E,2023-09-26_10h30.00.368,WP_VExplicitOC_LH,2022.2.5,Win32,32.65092892,78.64583333,3.1017,2.0225,NA,NA,NA,NA,NA,frustrated,"frustrated, not frustrated","more frustrated, less frustrated",NA,NA,NA,NA,NA,NA,NA,NA,NA,NA,NA,NA,NA,NA,NA,NA,NA,NA,NA,NA,NA,NA,NA,NA,NA,NA,NA,NA,NA,NA,NA,NA,NA,NA,NA,NA,NA,NA,0,1,1,1,1,NA,NA,NA,NA,NA
SUPAMT77733,33C7UALJVRXW8LK49KDTXJH8H98811,DEBE7B35-4CB5-498E-B10C-47D468FACD6E,2023-09-26_10h30.00.368,WP_VExplicitOC_LH,2022.2.5,Win32,32.65092892,72.13541667,3.3232,2.0207,NA,NA,NA,NA,NA,happy,"unhappy, happy","less happy, more happy",NA,NA,NA,NA,NA,NA,NA,NA,NA,NA,NA,NA,NA,NA,NA,NA,NA,NA,NA,NA,NA,NA,NA,NA,NA,NA,NA,NA,NA,NA,NA,NA,NA,NA,NA,NA,NA,NA,0,2,2,0,1,NA,NA,NA,NA,NA
SUPAMT77733,33C7UALJVRXW8LK49KDTXJH8H98811,DEBE7B35-4CB5-498E-B10C-47D468FACD6E,2023-09-26_10h30.00.368,WP_VExplicitOC_LH,2022.2.5,Win32,32.65092892,NA,NA,NA,NA,NA,NA,NA,NA,NA,NA,NA,NA,NA,NA,NA,NA,NA,NA,NA,NA,NA,NA,NA,NA,NA,NA,NA,NA,NA,NA,NA,NA,NA,NA,NA,NA,NA,NA,NA,NA,NA,NA,NA,NA,NA,NA,NA,NA,NA,NA,NA,NA,NA,NA,10,0,10,0,1
SUPAMT77733,33C7UALJVRXW8LK49KDTXJH8H98811,DEBE7B35-4CB5-498E-B10C-47D468FACD6E,2023-09-26_10h30.00.368,WP_VExplicitOC_LH,2022.2.5,Win32,32.65092892,84.375,3.7457,2.0312,NA,NA,NA,NA,NA,frustrated,"frustrated, not frustrated","more frustrated, less frustrated",NA,NA,NA,NA,NA,NA,NA,NA,NA,NA,NA,NA,NA,NA,NA,NA,NA,NA,NA,NA,NA,NA,NA,NA,NA,NA,NA,NA,NA,NA,NA,NA,NA,NA,NA,NA,NA,NA,0,0,0,1,1,NA,NA,NA,NA,NA
SUPAMT77733,33C7UALJVRXW8LK49KDTXJH8H98811,DEBE7B35-4CB5-498E-B10C-47D468FACD6E,2023-09-26_10h30.00.368,WP_VExplicitOC_LH,2022.2.5,Win32,32.65092892,75.26041667,3.446,2.026,NA,NA,NA,NA,NA,happy,"unhappy, happy","less happy, more happy",NA,NA,NA,NA,NA,NA,NA,NA,NA,NA,NA,NA,NA,NA,NA,NA,NA,NA,NA,NA,NA,NA,NA,NA,NA,NA,NA,NA,NA,NA,NA,NA,NA,NA,NA,NA,NA,NA,0,1,1,0,1,NA,NA,NA,NA,NA
SUPAMT77733,33C7UALJVRXW8LK49KDTXJH8H98811,DEBE7B35-4CB5-498E-B10C-47D468FACD6E,2023-09-26_10h30.00.368,WP_VExplicitOC_LH,2022.2.5,Win32,32.65092892,86.45833333,3.1879,2.01,NA,NA,NA,NA,NA,bored,"bored, not bored","more bored, less bored",NA,NA,NA,NA,NA,NA,NA,NA,NA,NA,NA,NA,NA,NA,NA,NA,NA,NA,NA,NA,NA,NA,NA,NA,NA,NA,NA,NA,NA,NA,NA,NA,NA,NA,NA,NA,NA,NA,0,2,2,2,1,NA,NA,NA,NA,NA
SUPAMT77733,33C7UALJVRXW8LK49KDTXJH8H98811,DEBE7B35-4CB5-498E-B10C-47D468FACD6E,2023-09-26_10h30.00.368,WP_VExplicitOC_LH,2022.2.5,Win32,32.65092892,NA,NA,NA,NA,NA,NA,NA,NA,NA,NA,NA,NA,NA,NA,NA,NA,NA,NA,NA,NA,NA,NA,NA,NA,NA,NA,NA,NA,NA,NA,NA,NA,NA,NA,NA,NA,NA,NA,NA,NA,NA,NA,NA,NA,NA,NA,NA,NA,NA,NA,NA,NA,NA,NA,11,0,11,0,1
SUPAMT77733,33C7UALJVRXW8LK49KDTXJH8H98811,DEBE7B35-4CB5-498E-B10C-47D468FACD6E,2023-09-26_10h30.00.368,WP_VExplicitOC_LH,2022.2.5,Win32,32.65092892,71.35416667,3.7389,2.0458,NA,NA,NA,NA,NA,bored,"bored, not bored","more bored, less bored",NA,NA,NA,NA,NA,NA,NA,NA,NA,NA,NA,NA,NA,NA,NA,NA,NA,NA,NA,NA,NA,NA,NA,NA,NA,NA,NA,NA,NA,NA,NA,NA,NA,NA,NA,NA,NA,NA,0,0,0,2,1,NA,NA,NA,NA,NA
SUPAMT77733,33C7UALJVRXW8LK49KDTXJH8H98811,DEBE7B35-4CB5-498E-B10C-47D468FACD6E,2023-09-26_10h30.00.368,WP_VExplicitOC_LH,2022.2.5,Win32,32.65092892,84.375,4.1895,2.0686,NA,NA,NA,NA,NA,happy,"unhappy, happy","less happy, more happy",NA,NA,NA,NA,NA,NA,NA,NA,NA,NA,NA,NA,NA,NA,NA,NA,NA,NA,NA,NA,NA,NA,NA,NA,NA,NA,NA,NA,NA,NA,NA,NA,NA,NA,NA,NA,NA,NA,0,1,1,0,1,NA,NA,NA,NA,NA
SUPAMT77733,33C7UALJVRXW8LK49KDTXJH8H98811,DEBE7B35-4CB5-498E-B10C-47D468FACD6E,2023-09-26_10h30.00.368,WP_VExplicitOC_LH,2022.2.5,Win32,32.65092892,75.78125,3.5317,2.0851,NA,NA,NA,NA,NA,frustrated,"frustrated, not frustrated","more frustrated, less frustrated",NA,NA,NA,NA,NA,NA,NA,NA,NA,NA,NA,NA,NA,NA,NA,NA,NA,NA,NA,NA,NA,NA,NA,NA,NA,NA,NA,NA,NA,NA,NA,NA,NA,NA,NA,NA,NA,NA,0,2,2,1,1,NA,NA,NA,NA,NA
SUPAMT77733,33C7UALJVRXW8LK49KDTXJH8H98811,DEBE7B35-4CB5-498E-B10C-47D468FACD6E,2023-09-26_10h30.00.368,WP_VExplicitOC_LH,2022.2.5,Win32,32.65092892,NA,NA,NA,NA,NA,NA,NA,NA,NA,NA,NA,NA,NA,NA,NA,NA,NA,NA,NA,NA,NA,NA,NA,NA,NA,NA,NA,NA,NA,NA,NA,NA,NA,NA,NA,NA,NA,NA,NA,NA,NA,NA,NA,NA,NA,NA,NA,NA,NA,NA,NA,NA,NA,NA,12,0,12,0,1
SUPAMT77733,33C7UALJVRXW8LK49KDTXJH8H98811,DEBE7B35-4CB5-498E-B10C-47D468FACD6E,2023-09-26_10h30.00.368,WP_VExplicitOC_LH,2022.2.5,Win32,32.65092892,79.6875,3.9093,2.0455,NA,NA,NA,NA,NA,happy,"unhappy, happy","less happy, more happy",NA,NA,NA,NA,NA,NA,NA,NA,NA,NA,NA,NA,NA,NA,NA,NA,NA,NA,NA,NA,NA,NA,NA,NA,NA,NA,NA,NA,NA,NA,NA,NA,NA,NA,NA,NA,NA,NA,0,0,0,0,1,NA,NA,NA,NA,NA
SUPAMT77733,33C7UALJVRXW8LK49KDTXJH8H98811,DEBE7B35-4CB5-498E-B10C-47D468FACD6E,2023-09-26_10h30.00.368,WP_VExplicitOC_LH,2022.2.5,Win32,32.65092892,84.89583333,4.3318,2.0186,NA,NA,NA,NA,NA,frustrated,"frustrated, not frustrated","more frustrated, less frustrated",NA,NA,NA,NA,NA,NA,NA,NA,NA,NA,NA,NA,NA,NA,NA,NA,NA,NA,NA,NA,NA,NA,NA,NA,NA,NA,NA,NA,NA,NA,NA,NA,NA,NA,NA,NA,NA,NA,0,1,1,1,1,NA,NA,NA,NA,NA
SUPAMT77733,33C7UALJVRXW8LK49KDTXJH8H98811,DEBE7B35-4CB5-498E-B10C-47D468FACD6E,2023-09-26_10h30.00.368,WP_VExplicitOC_LH,2022.2.5,Win32,32.65092892,76.04166667,3.3019,2.0225,NA,NA,NA,NA,NA,bored,"bored, not bored","more bored, less bored",NA,NA,NA,NA,NA,NA,NA,NA,NA,NA,NA,NA,NA,NA,NA,NA,NA,NA,NA,NA,NA,NA,NA,NA,NA,NA,NA,NA,NA,NA,NA,NA,NA,NA,NA,NA,NA,NA,0,2,2,2,1,NA,NA,NA,NA,NA
SUPAMT77733,33C7UALJVRXW8LK49KDTXJH8H98811,DEBE7B35-4CB5-498E-B10C-47D468FACD6E,2023-09-26_10h30.00.368,WP_VExplicitOC_LH,2022.2.5,Win32,32.65092892,NA,NA,NA,NA,NA,NA,NA,NA,NA,NA,NA,NA,NA,NA,NA,NA,NA,NA,NA,NA,NA,NA,NA,NA,NA,NA,NA,NA,NA,NA,NA,NA,NA,NA,NA,NA,NA,NA,NA,NA,NA,NA,NA,NA,NA,NA,NA,NA,NA,NA,NA,NA,NA,NA,13,0,13,0,1
SUPAMT77733,33C7UALJVRXW8LK49KDTXJH8H98811,DEBE7B35-4CB5-498E-B10C-47D468FACD6E,2023-09-26_10h30.00.368,WP_VExplicitOC_LH,2022.2.5,Win32,32.65092892,79.16666667,3.9628,2.0324,NA,NA,NA,NA,NA,frustrated,"frustrated, not frustrated","more frustrated, less frustrated",NA,NA,NA,NA,NA,NA,NA,NA,NA,NA,NA,NA,NA,NA,NA,NA,NA,NA,NA,NA,NA,NA,NA,NA,NA,NA,NA,NA,NA,NA,NA,NA,NA,NA,NA,NA,NA,NA,0,0,0,1,1,NA,NA,NA,NA,NA
SUPAMT77733,33C7UALJVRXW8LK49KDTXJH8H98811,DEBE7B35-4CB5-498E-B10C-47D468FACD6E,2023-09-26_10h30.00.368,WP_VExplicitOC_LH,2022.2.5,Win32,32.65092892,77.60416667,3.82,2.0939,NA,NA,NA,NA,NA,bored,"bored, not bored","more bored, less bored",NA,NA,NA,NA,NA,NA,NA,NA,NA,NA,NA,NA,NA,NA,NA,NA,NA,NA,NA,NA,NA,NA,NA,NA,NA,NA,NA,NA,NA,NA,NA,NA,NA,NA,NA,NA,NA,NA,0,1,1,2,1,NA,NA,NA,NA,NA
SUPAMT77733,33C7UALJVRXW8LK49KDTXJH8H98811,DEBE7B35-4CB5-498E-B10C-47D468FACD6E,2023-09-26_10h30.00.368,WP_VExplicitOC_LH,2022.2.5,Win32,32.65092892,73.4375,3.9628,2.0161,NA,NA,NA,NA,NA,happy,"unhappy, happy","less happy, more happy",NA,NA,NA,NA,NA,NA,NA,NA,NA,NA,NA,NA,NA,NA,NA,NA,NA,NA,NA,NA,NA,NA,NA,NA,NA,NA,NA,NA,NA,NA,NA,NA,NA,NA,NA,NA,NA,NA,0,2,2,0,1,NA,NA,NA,NA,NA
SUPAMT77733,33C7UALJVRXW8LK49KDTXJH8H98811,DEBE7B35-4CB5-498E-B10C-47D468FACD6E,2023-09-26_10h30.00.368,WP_VExplicitOC_LH,2022.2.5,Win32,32.65092892,NA,NA,NA,NA,NA,NA,NA,NA,NA,NA,NA,NA,NA,NA,NA,NA,NA,NA,NA,NA,NA,NA,NA,NA,NA,NA,NA,NA,NA,NA,NA,NA,NA,NA,NA,NA,NA,NA,NA,NA,NA,NA,NA,NA,NA,NA,NA,NA,NA,NA,NA,NA,NA,NA,14,0,14,0,1
SUPAMT77733,33C7UALJVRXW8LK49KDTXJH8H98811,DEBE7B35-4CB5-498E-B10C-47D468FACD6E,2023-09-26_10h30.00.368,WP_VExplicitOC_LH,2022.2.5,Win32,32.65092892,NA,NA,NA,NA,NA,NA,NA,NA,NA,NA,NA,NA,NA,NA,NA,NA,NA,NA,NA,NA,NA,NA,NA,NA,NA,NA,NA,NA,NA,NA,NA,NA,NA,NA,NA,NA,NA,NA,NA,NA,NA,NA,NA,NA,NA,NA,NA,NA,NA,NA,NA,NA,NA,NA,NA,NA,NA,NA,NA
