participant,session,completion,date,expName,psychopyVersion,OS,frameRate,rating_all.response,rating_all.rt,rating_all.tStart,rndRat1.thisRepN,rndRat1.thisTrialN,rndRat1.thisN,rndRat1.thisIndex,rndRat1.ran,Emo,Labs,Labs2,rating_alt.response,rating_alt.rt,AltC.thisRepN,AltC.thisTrialN,AltC.thisN,AltC.thisIndex,AltC.ran,alt_choices,pic_choices,TopAlt_Choice,rndRat2.thisRepN,rndRat2.thisTrialN,rndRat2.thisN,rndRat2.thisIndex,rndRat2.ran,rndRat3.thisRepN,rndRat3.thisTrialN,rndRat3.thisN,rndRat3.thisIndex,rndRat3.ran,trials_FC_H.thisRepN,trials_FC_H.thisTrialN,trials_FC_H.thisN,trials_FC_H.thisIndex,trials_FC_H.ran,rating_alt_2.response,rating_alt_2.rt,AltC2.thisRepN,AltC2.thisTrialN,AltC2.thisN,AltC2.thisIndex,AltC2.ran,BottomAlt_Choice,rndRat4.thisRepN,rndRat4.thisTrialN,rndRat4.thisN,rndRat4.thisIndex,rndRat4.ran,rndRat5.thisRepN,rndRat5.thisTrialN,rndRat5.thisN,rndRat5.thisIndex,rndRat5.ran,trials_FC_L.thisRepN,trials_FC_L.thisTrialN,trials_FC_L.thisN,trials_FC_L.thisIndex,trials_FC_L.ran
SUPAMT87014,37M28K1J0WCHMQTNW73DXAJP2RGAJA,8818F4CD-561A-4EB8-9294-067C14B38A04,2023-09-28_09h44.12.913,WP_VExplicitOC_HL,2022.2.5,Win32,144.1545337,NA,NA,NA,NA,NA,NA,NA,NA,NA,NA,NA,NA,NA,NA,NA,NA,NA,NA,NA,NA,NA,NA,NA,NA,NA,NA,NA,NA,NA,NA,NA,NA,NA,NA,NA,NA,NA,NA,NA,NA,NA,NA,NA,NA,NA,NA,NA,NA,NA,NA,NA,NA,NA,NA,NA,NA,NA,NA,NA
SUPAMT87014,37M28K1J0WCHMQTNW73DXAJP2RGAJA,8818F4CD-561A-4EB8-9294-067C14B38A04,2023-09-28_09h44.12.913,WP_VExplicitOC_HL,2022.2.5,Win32,144.1545337,NA,NA,NA,NA,NA,NA,NA,NA,NA,NA,NA,NA,NA,NA,NA,NA,NA,NA,NA,NA,NA,NA,NA,NA,NA,NA,NA,NA,NA,NA,NA,NA,NA,NA,NA,NA,NA,NA,NA,NA,NA,NA,NA,NA,NA,NA,NA,NA,NA,NA,NA,NA,NA,NA,NA,NA,NA,NA,NA
SUPAMT87014,37M28K1J0WCHMQTNW73DXAJP2RGAJA,8818F4CD-561A-4EB8-9294-067C14B38A04,2023-09-28_09h44.12.913,WP_VExplicitOC_HL,2022.2.5,Win32,144.1545337,NA,NA,NA,NA,NA,NA,NA,NA,NA,NA,NA,NA,NA,NA,NA,NA,NA,NA,NA,NA,NA,NA,NA,NA,NA,NA,NA,NA,NA,NA,NA,NA,NA,NA,NA,NA,NA,NA,NA,NA,NA,NA,NA,NA,NA,NA,NA,NA,NA,NA,NA,NA,NA,NA,NA,NA,NA,NA,NA
SUPAMT87014,37M28K1J0WCHMQTNW73DXAJP2RGAJA,8818F4CD-561A-4EB8-9294-067C14B38A04,2023-09-28_09h44.12.913,WP_VExplicitOC_HL,2022.2.5,Win32,144.1545337,91.24999576,2.9826,2.0008,0,0,0,0,1,happy,"unhappy, happy","less happy, more happy",NA,NA,NA,NA,NA,NA,NA,NA,NA,NA,NA,NA,NA,NA,NA,NA,NA,NA,NA,NA,NA,NA,NA,NA,NA,NA,NA,NA,NA,NA,NA,NA,NA,NA,NA,NA,NA,NA,NA,NA,NA,NA,NA,NA,NA,NA,NA,NA
SUPAMT87014,37M28K1J0WCHMQTNW73DXAJP2RGAJA,8818F4CD-561A-4EB8-9294-067C14B38A04,2023-09-28_09h44.12.913,WP_VExplicitOC_HL,2022.2.5,Win32,144.1545337,100,3.5046,2.0067,0,1,1,1,1,frustrated,"frustrated, not frustrated","more frustrated, less frustrated",NA,NA,NA,NA,NA,NA,NA,NA,NA,NA,NA,NA,NA,NA,NA,NA,NA,NA,NA,NA,NA,NA,NA,NA,NA,NA,NA,NA,NA,NA,NA,NA,NA,NA,NA,NA,NA,NA,NA,NA,NA,NA,NA,NA,NA,NA,NA,NA
SUPAMT87014,37M28K1J0WCHMQTNW73DXAJP2RGAJA,8818F4CD-561A-4EB8-9294-067C14B38A04,2023-09-28_09h44.12.913,WP_VExplicitOC_HL,2022.2.5,Win32,144.1545337,89.30555979,3.8428,2.0001,0,2,2,2,1,bored,"bored, not bored","more bored, less bored",NA,NA,NA,NA,NA,NA,NA,NA,NA,NA,NA,NA,NA,NA,NA,NA,NA,NA,NA,NA,NA,NA,NA,NA,NA,NA,NA,NA,NA,NA,NA,NA,NA,NA,NA,NA,NA,NA,NA,NA,NA,NA,NA,NA,NA,NA,NA,NA
SUPAMT87014,37M28K1J0WCHMQTNW73DXAJP2RGAJA,8818F4CD-561A-4EB8-9294-067C14B38A04,2023-09-28_09h44.12.913,WP_VExplicitOC_HL,2022.2.5,Win32,144.1545337,NA,NA,NA,NA,NA,NA,NA,NA,NA,NA,NA,NA,NA,NA,NA,NA,NA,NA,NA,NA,NA,NA,NA,NA,NA,NA,NA,NA,NA,NA,NA,NA,NA,NA,NA,NA,NA,NA,NA,NA,NA,NA,NA,NA,NA,NA,NA,NA,NA,NA,NA,NA,NA,NA,NA,NA,NA,NA,NA
SUPAMT87014,37M28K1J0WCHMQTNW73DXAJP2RGAJA,8818F4CD-561A-4EB8-9294-067C14B38A04,2023-09-28_09h44.12.913,WP_VExplicitOC_HL,2022.2.5,Win32,144.1545337,NA,NA,NA,NA,NA,NA,NA,NA,NA,NA,NA,NA,NA,NA,NA,NA,NA,NA,NA,NA,NA,NA,NA,NA,NA,NA,NA,NA,NA,NA,NA,NA,NA,NA,NA,NA,NA,NA,NA,NA,NA,NA,NA,NA,NA,NA,NA,NA,NA,NA,NA,NA,NA,NA,NA,NA,NA,NA,NA
SUPAMT87014,37M28K1J0WCHMQTNW73DXAJP2RGAJA,8818F4CD-561A-4EB8-9294-067C14B38A04,2023-09-28_09h44.12.913,WP_VExplicitOC_HL,2022.2.5,Win32,144.1545337,NA,NA,NA,NA,NA,NA,NA,NA,NA,NA,NA,NA,NA,NA,NA,NA,NA,NA,NA,NA,NA,NA,NA,NA,NA,NA,NA,NA,NA,NA,NA,NA,NA,NA,NA,NA,NA,NA,NA,NA,NA,NA,NA,NA,NA,NA,NA,NA,NA,NA,NA,NA,NA,NA,NA,NA,NA,NA,NA
SUPAMT87014,37M28K1J0WCHMQTNW73DXAJP2RGAJA,8818F4CD-561A-4EB8-9294-067C14B38A04,2023-09-28_09h44.12.913,WP_VExplicitOC_HL,2022.2.5,Win32,144.1545337,NA,NA,NA,NA,NA,NA,NA,NA,NA,NA,NA,NA,NA,NA,NA,NA,NA,NA,NA,NA,NA,NA,NA,NA,NA,NA,NA,NA,NA,NA,NA,NA,NA,NA,NA,NA,NA,NA,NA,NA,NA,NA,NA,NA,NA,NA,NA,NA,NA,NA,NA,NA,NA,NA,NA,NA,NA,NA,NA
SUPAMT87014,37M28K1J0WCHMQTNW73DXAJP2RGAJA,8818F4CD-561A-4EB8-9294-067C14B38A04,2023-09-28_09h44.12.913,WP_VExplicitOC_HL,2022.2.5,Win32,144.1545337,NA,NA,NA,NA,NA,NA,NA,NA,NA,NA,NA,38.47221798,5.3979,0,0,0,0,1,rest (looking at a fixed cross),001.png,NA,NA,NA,NA,NA,NA,NA,NA,NA,NA,NA,NA,NA,NA,NA,NA,NA,NA,NA,NA,NA,NA,NA,NA,NA,NA,NA,NA,NA,NA,NA,NA,NA,NA,NA,NA,NA,NA,NA
SUPAMT87014,37M28K1J0WCHMQTNW73DXAJP2RGAJA,8818F4CD-561A-4EB8-9294-067C14B38A04,2023-09-28_09h44.12.913,WP_VExplicitOC_HL,2022.2.5,Win32,144.1545337,NA,NA,NA,NA,NA,NA,NA,NA,NA,NA,NA,78.19444868,1.3476,0,1,1,1,1,stand up,002.png,NA,NA,NA,NA,NA,NA,NA,NA,NA,NA,NA,NA,NA,NA,NA,NA,NA,NA,NA,NA,NA,NA,NA,NA,NA,NA,NA,NA,NA,NA,NA,NA,NA,NA,NA,NA,NA,NA,NA
SUPAMT87014,37M28K1J0WCHMQTNW73DXAJP2RGAJA,8818F4CD-561A-4EB8-9294-067C14B38A04,2023-09-28_09h44.12.913,WP_VExplicitOC_HL,2022.2.5,Win32,144.1545337,NA,NA,NA,NA,NA,NA,NA,NA,NA,NA,NA,87.91667091,0.998,0,2,2,2,1,stretch,003.png,NA,NA,NA,NA,NA,NA,NA,NA,NA,NA,NA,NA,NA,NA,NA,NA,NA,NA,NA,NA,NA,NA,NA,NA,NA,NA,NA,NA,NA,NA,NA,NA,NA,NA,NA,NA,NA,NA,NA
SUPAMT87014,37M28K1J0WCHMQTNW73DXAJP2RGAJA,8818F4CD-561A-4EB8-9294-067C14B38A04,2023-09-28_09h44.12.913,WP_VExplicitOC_HL,2022.2.5,Win32,144.1545337,NA,NA,NA,NA,NA,NA,NA,NA,NA,NA,NA,-100,0.9572,0,3,3,3,1,make a drink,004.png,NA,NA,NA,NA,NA,NA,NA,NA,NA,NA,NA,NA,NA,NA,NA,NA,NA,NA,NA,NA,NA,NA,NA,NA,NA,NA,NA,NA,NA,NA,NA,NA,NA,NA,NA,NA,NA,NA,NA
SUPAMT87014,37M28K1J0WCHMQTNW73DXAJP2RGAJA,8818F4CD-561A-4EB8-9294-067C14B38A04,2023-09-28_09h44.12.913,WP_VExplicitOC_HL,2022.2.5,Win32,144.1545337,NA,NA,NA,NA,NA,NA,NA,NA,NA,NA,NA,-61.52777142,1.2665,0,4,4,4,1,scroll social media,005.png,NA,NA,NA,NA,NA,NA,NA,NA,NA,NA,NA,NA,NA,NA,NA,NA,NA,NA,NA,NA,NA,NA,NA,NA,NA,NA,NA,NA,NA,NA,NA,NA,NA,NA,NA,NA,NA,NA,NA
SUPAMT87014,37M28K1J0WCHMQTNW73DXAJP2RGAJA,8818F4CD-561A-4EB8-9294-067C14B38A04,2023-09-28_09h44.12.913,WP_VExplicitOC_HL,2022.2.5,Win32,144.1545337,NA,NA,NA,NA,NA,NA,NA,NA,NA,NA,NA,70.9722307,0.8557,0,5,5,5,1,listen to music,006.png,NA,NA,NA,NA,NA,NA,NA,NA,NA,NA,NA,NA,NA,NA,NA,NA,NA,NA,NA,NA,NA,NA,NA,NA,NA,NA,NA,NA,NA,NA,NA,NA,NA,NA,NA,NA,NA,NA,NA
SUPAMT87014,37M28K1J0WCHMQTNW73DXAJP2RGAJA,8818F4CD-561A-4EB8-9294-067C14B38A04,2023-09-28_09h44.12.913,WP_VExplicitOC_HL,2022.2.5,Win32,144.1545337,NA,NA,NA,NA,NA,NA,NA,NA,NA,NA,NA,-39.58333333,1.1716,0,6,6,6,1,daydream,007.png,NA,NA,NA,NA,NA,NA,NA,NA,NA,NA,NA,NA,NA,NA,NA,NA,NA,NA,NA,NA,NA,NA,NA,NA,NA,NA,NA,NA,NA,NA,NA,NA,NA,NA,NA,NA,NA,NA,NA
SUPAMT87014,37M28K1J0WCHMQTNW73DXAJP2RGAJA,8818F4CD-561A-4EB8-9294-067C14B38A04,2023-09-28_09h44.12.913,WP_VExplicitOC_HL,2022.2.5,Win32,144.1545337,NA,NA,NA,NA,NA,NA,NA,NA,NA,NA,NA,60.27779049,1.2092,0,7,7,7,1,watch a short animation,008.png,NA,NA,NA,NA,NA,NA,NA,NA,NA,NA,NA,NA,NA,NA,NA,NA,NA,NA,NA,NA,NA,NA,NA,NA,NA,NA,NA,NA,NA,NA,NA,NA,NA,NA,NA,NA,NA,NA,NA
SUPAMT87014,37M28K1J0WCHMQTNW73DXAJP2RGAJA,8818F4CD-561A-4EB8-9294-067C14B38A04,2023-09-28_09h44.12.913,WP_VExplicitOC_HL,2022.2.5,Win32,144.1545337,NA,NA,NA,NA,NA,NA,NA,NA,NA,NA,NA,87.5,0.9671,0,8,8,8,1,read a novel,009.png,NA,NA,NA,NA,NA,NA,NA,NA,NA,NA,NA,NA,NA,NA,NA,NA,NA,NA,NA,NA,NA,NA,NA,NA,NA,NA,NA,NA,NA,NA,NA,NA,NA,NA,NA,NA,NA,NA,NA
SUPAMT87014,37M28K1J0WCHMQTNW73DXAJP2RGAJA,8818F4CD-561A-4EB8-9294-067C14B38A04,2023-09-28_09h44.12.913,WP_VExplicitOC_HL,2022.2.5,Win32,144.1545337,NA,NA,NA,NA,NA,NA,NA,NA,NA,NA,NA,62.36112383,0.9281,0,9,9,9,1,read the news,010.png,NA,NA,NA,NA,NA,NA,NA,NA,NA,NA,NA,NA,NA,NA,NA,NA,NA,NA,NA,NA,NA,NA,NA,NA,NA,NA,NA,NA,NA,NA,NA,NA,NA,NA,NA,NA,NA,NA,NA
SUPAMT87014,37M28K1J0WCHMQTNW73DXAJP2RGAJA,8818F4CD-561A-4EB8-9294-067C14B38A04,2023-09-28_09h44.12.913,WP_VExplicitOC_HL,2022.2.5,Win32,144.1545337,NA,NA,NA,NA,NA,NA,NA,NA,NA,NA,NA,NA,NA,NA,NA,NA,NA,NA,NA,NA,NA,NA,NA,NA,NA,NA,NA,NA,NA,NA,NA,NA,NA,NA,NA,NA,NA,NA,NA,NA,NA,NA,NA,NA,NA,NA,NA,NA,NA,NA,NA,NA,NA,NA,NA,NA,NA,NA,NA
SUPAMT87014,37M28K1J0WCHMQTNW73DXAJP2RGAJA,8818F4CD-561A-4EB8-9294-067C14B38A04,2023-09-28_09h44.12.913,WP_VExplicitOC_HL,2022.2.5,Win32,144.1545337,NA,NA,NA,NA,NA,NA,NA,NA,NA,NA,NA,NA,NA,NA,NA,NA,NA,NA,NA,NA,stretch,NA,NA,NA,NA,NA,NA,NA,NA,NA,NA,NA,NA,NA,NA,NA,NA,NA,NA,NA,NA,NA,NA,NA,NA,NA,NA,NA,NA,NA,NA,NA,NA,NA,NA,NA,NA,NA,NA
SUPAMT87014,37M28K1J0WCHMQTNW73DXAJP2RGAJA,8818F4CD-561A-4EB8-9294-067C14B38A04,2023-09-28_09h44.12.913,WP_VExplicitOC_HL,2022.2.5,Win32,144.1545337,85.83333757,3.0059,2.0057,NA,NA,NA,NA,NA,happy,"unhappy, happy","less happy, more happy",NA,NA,NA,NA,NA,NA,NA,NA,NA,NA,0,0,0,0,1,NA,NA,NA,NA,NA,NA,NA,NA,NA,NA,NA,NA,NA,NA,NA,NA,NA,NA,NA,NA,NA,NA,NA,NA,NA,NA,NA,NA,NA,NA,NA,NA,NA
SUPAMT87014,37M28K1J0WCHMQTNW73DXAJP2RGAJA,8818F4CD-561A-4EB8-9294-067C14B38A04,2023-09-28_09h44.12.913,WP_VExplicitOC_HL,2022.2.5,Win32,144.1545337,88.61111535,3.1965,2.0002,NA,NA,NA,NA,NA,frustrated,"frustrated, not frustrated","more frustrated, less frustrated",NA,NA,NA,NA,NA,NA,NA,NA,NA,NA,0,1,1,1,1,NA,NA,NA,NA,NA,NA,NA,NA,NA,NA,NA,NA,NA,NA,NA,NA,NA,NA,NA,NA,NA,NA,NA,NA,NA,NA,NA,NA,NA,NA,NA,NA,NA
SUPAMT87014,37M28K1J0WCHMQTNW73DXAJP2RGAJA,8818F4CD-561A-4EB8-9294-067C14B38A04,2023-09-28_09h44.12.913,WP_VExplicitOC_HL,2022.2.5,Win32,144.1545337,88.05556827,2.7171,2.0001,NA,NA,NA,NA,NA,bored,"bored, not bored","more bored, less bored",NA,NA,NA,NA,NA,NA,NA,NA,NA,NA,0,2,2,2,1,NA,NA,NA,NA,NA,NA,NA,NA,NA,NA,NA,NA,NA,NA,NA,NA,NA,NA,NA,NA,NA,NA,NA,NA,NA,NA,NA,NA,NA,NA,NA,NA,NA
SUPAMT87014,37M28K1J0WCHMQTNW73DXAJP2RGAJA,8818F4CD-561A-4EB8-9294-067C14B38A04,2023-09-28_09h44.12.913,WP_VExplicitOC_HL,2022.2.5,Win32,144.1545337,NA,NA,NA,NA,NA,NA,NA,NA,NA,NA,NA,NA,NA,NA,NA,NA,NA,NA,NA,NA,NA,NA,NA,NA,NA,NA,NA,NA,NA,NA,NA,NA,NA,NA,NA,NA,NA,NA,NA,NA,NA,NA,NA,NA,NA,NA,NA,NA,NA,NA,NA,NA,NA,NA,NA,NA,NA,NA,NA
SUPAMT87014,37M28K1J0WCHMQTNW73DXAJP2RGAJA,8818F4CD-561A-4EB8-9294-067C14B38A04,2023-09-28_09h44.12.913,WP_VExplicitOC_HL,2022.2.5,Win32,144.1545337,NA,NA,NA,NA,NA,NA,NA,NA,NA,NA,NA,NA,NA,NA,NA,NA,NA,NA,NA,NA,NA,NA,NA,NA,NA,NA,NA,NA,NA,NA,NA,NA,NA,NA,NA,NA,NA,NA,NA,NA,NA,NA,NA,NA,NA,NA,NA,NA,NA,NA,NA,NA,NA,NA,NA,NA,NA,NA,NA
SUPAMT87014,37M28K1J0WCHMQTNW73DXAJP2RGAJA,8818F4CD-561A-4EB8-9294-067C14B38A04,2023-09-28_09h44.12.913,WP_VExplicitOC_HL,2022.2.5,Win32,144.1545337,86.62014445,3.5384,2.0008,NA,NA,NA,NA,NA,happy,"unhappy, happy","less happy, more happy",NA,NA,NA,NA,NA,NA,NA,NA,NA,NA,NA,NA,NA,NA,NA,0,0,0,0,1,NA,NA,NA,NA,NA,NA,NA,NA,NA,NA,NA,NA,NA,NA,NA,NA,NA,NA,NA,NA,NA,NA,NA,NA,NA,NA,NA,NA
SUPAMT87014,37M28K1J0WCHMQTNW73DXAJP2RGAJA,8818F4CD-561A-4EB8-9294-067C14B38A04,2023-09-28_09h44.12.913,WP_VExplicitOC_HL,2022.2.5,Win32,144.1545337,85.02493009,3.4322,2.0001,NA,NA,NA,NA,NA,frustrated,"frustrated, not frustrated","more frustrated, less frustrated",NA,NA,NA,NA,NA,NA,NA,NA,NA,NA,NA,NA,NA,NA,NA,0,1,1,1,1,NA,NA,NA,NA,NA,NA,NA,NA,NA,NA,NA,NA,NA,NA,NA,NA,NA,NA,NA,NA,NA,NA,NA,NA,NA,NA,NA,NA
SUPAMT87014,37M28K1J0WCHMQTNW73DXAJP2RGAJA,8818F4CD-561A-4EB8-9294-067C14B38A04,2023-09-28_09h44.12.913,WP_VExplicitOC_HL,2022.2.5,Win32,144.1545337,92.5224327,2.9552,2.0002,NA,NA,NA,NA,NA,bored,"bored, not bored","more bored, less bored",NA,NA,NA,NA,NA,NA,NA,NA,NA,NA,NA,NA,NA,NA,NA,0,2,2,2,1,NA,NA,NA,NA,NA,NA,NA,NA,NA,NA,NA,NA,NA,NA,NA,NA,NA,NA,NA,NA,NA,NA,NA,NA,NA,NA,NA,NA
SUPAMT87014,37M28K1J0WCHMQTNW73DXAJP2RGAJA,8818F4CD-561A-4EB8-9294-067C14B38A04,2023-09-28_09h44.12.913,WP_VExplicitOC_HL,2022.2.5,Win32,144.1545337,NA,NA,NA,NA,NA,NA,NA,NA,NA,NA,NA,NA,NA,NA,NA,NA,NA,NA,NA,NA,NA,NA,NA,NA,NA,NA,NA,NA,NA,NA,NA,0,0,0,0,1,NA,NA,NA,NA,NA,NA,NA,NA,NA,NA,NA,NA,NA,NA,NA,NA,NA,NA,NA,NA,NA,NA,NA
SUPAMT87014,37M28K1J0WCHMQTNW73DXAJP2RGAJA,8818F4CD-561A-4EB8-9294-067C14B38A04,2023-09-28_09h44.12.913,WP_VExplicitOC_HL,2022.2.5,Win32,144.1545337,93.95814023,3.8263,2.0059,NA,NA,NA,NA,NA,bored,"bored, not bored","more bored, less bored",NA,NA,NA,NA,NA,NA,NA,NA,NA,NA,NA,NA,NA,NA,NA,0,0,0,2,1,NA,NA,NA,NA,NA,NA,NA,NA,NA,NA,NA,NA,NA,NA,NA,NA,NA,NA,NA,NA,NA,NA,NA,NA,NA,NA,NA,NA
SUPAMT87014,37M28K1J0WCHMQTNW73DXAJP2RGAJA,8818F4CD-561A-4EB8-9294-067C14B38A04,2023-09-28_09h44.12.913,WP_VExplicitOC_HL,2022.2.5,Win32,144.1545337,90.92721834,3.4415,2.0054,NA,NA,NA,NA,NA,happy,"unhappy, happy","less happy, more happy",NA,NA,NA,NA,NA,NA,NA,NA,NA,NA,NA,NA,NA,NA,NA,0,1,1,0,1,NA,NA,NA,NA,NA,NA,NA,NA,NA,NA,NA,NA,NA,NA,NA,NA,NA,NA,NA,NA,NA,NA,NA,NA,NA,NA,NA,NA
SUPAMT87014,37M28K1J0WCHMQTNW73DXAJP2RGAJA,8818F4CD-561A-4EB8-9294-067C14B38A04,2023-09-28_09h44.12.913,WP_VExplicitOC_HL,2022.2.5,Win32,144.1545337,95.55335458,3.2046,2.0003,NA,NA,NA,NA,NA,frustrated,"frustrated, not frustrated","more frustrated, less frustrated",NA,NA,NA,NA,NA,NA,NA,NA,NA,NA,NA,NA,NA,NA,NA,0,2,2,1,1,NA,NA,NA,NA,NA,NA,NA,NA,NA,NA,NA,NA,NA,NA,NA,NA,NA,NA,NA,NA,NA,NA,NA,NA,NA,NA,NA,NA
SUPAMT87014,37M28K1J0WCHMQTNW73DXAJP2RGAJA,8818F4CD-561A-4EB8-9294-067C14B38A04,2023-09-28_09h44.12.913,WP_VExplicitOC_HL,2022.2.5,Win32,144.1545337,NA,NA,NA,NA,NA,NA,NA,NA,NA,NA,NA,NA,NA,NA,NA,NA,NA,NA,NA,NA,NA,NA,NA,NA,NA,NA,NA,NA,NA,NA,NA,1,0,1,0,1,NA,NA,NA,NA,NA,NA,NA,NA,NA,NA,NA,NA,NA,NA,NA,NA,NA,NA,NA,NA,NA,NA,NA
SUPAMT87014,37M28K1J0WCHMQTNW73DXAJP2RGAJA,8818F4CD-561A-4EB8-9294-067C14B38A04,2023-09-28_09h44.12.913,WP_VExplicitOC_HL,2022.2.5,Win32,144.1545337,90.28914234,3.0893,2.0061,NA,NA,NA,NA,NA,happy,"unhappy, happy","less happy, more happy",NA,NA,NA,NA,NA,NA,NA,NA,NA,NA,NA,NA,NA,NA,NA,0,0,0,0,1,NA,NA,NA,NA,NA,NA,NA,NA,NA,NA,NA,NA,NA,NA,NA,NA,NA,NA,NA,NA,NA,NA,NA,NA,NA,NA,NA,NA
SUPAMT87014,37M28K1J0WCHMQTNW73DXAJP2RGAJA,8818F4CD-561A-4EB8-9294-067C14B38A04,2023-09-28_09h44.12.913,WP_VExplicitOC_HL,2022.2.5,Win32,144.1545337,86.14157527,2.9961,2.0003,NA,NA,NA,NA,NA,bored,"bored, not bored","more bored, less bored",NA,NA,NA,NA,NA,NA,NA,NA,NA,NA,NA,NA,NA,NA,NA,0,1,1,2,1,NA,NA,NA,NA,NA,NA,NA,NA,NA,NA,NA,NA,NA,NA,NA,NA,NA,NA,NA,NA,NA,NA,NA,NA,NA,NA,NA,NA
SUPAMT87014,37M28K1J0WCHMQTNW73DXAJP2RGAJA,8818F4CD-561A-4EB8-9294-067C14B38A04,2023-09-28_09h44.12.913,WP_VExplicitOC_HL,2022.2.5,Win32,144.1545337,89.01296598,3.5032,2.0002,NA,NA,NA,NA,NA,frustrated,"frustrated, not frustrated","more frustrated, less frustrated",NA,NA,NA,NA,NA,NA,NA,NA,NA,NA,NA,NA,NA,NA,NA,0,2,2,1,1,NA,NA,NA,NA,NA,NA,NA,NA,NA,NA,NA,NA,NA,NA,NA,NA,NA,NA,NA,NA,NA,NA,NA,NA,NA,NA,NA,NA
SUPAMT87014,37M28K1J0WCHMQTNW73DXAJP2RGAJA,8818F4CD-561A-4EB8-9294-067C14B38A04,2023-09-28_09h44.12.913,WP_VExplicitOC_HL,2022.2.5,Win32,144.1545337,NA,NA,NA,NA,NA,NA,NA,NA,NA,NA,NA,NA,NA,NA,NA,NA,NA,NA,NA,NA,NA,NA,NA,NA,NA,NA,NA,NA,NA,NA,NA,2,0,2,0,1,NA,NA,NA,NA,NA,NA,NA,NA,NA,NA,NA,NA,NA,NA,NA,NA,NA,NA,NA,NA,NA,NA,NA
SUPAMT87014,37M28K1J0WCHMQTNW73DXAJP2RGAJA,8818F4CD-561A-4EB8-9294-067C14B38A04,2023-09-28_09h44.12.913,WP_VExplicitOC_HL,2022.2.5,Win32,144.1545337,88.05582763,3.211,2.0017,NA,NA,NA,NA,NA,bored,"bored, not bored","more bored, less bored",NA,NA,NA,NA,NA,NA,NA,NA,NA,NA,NA,NA,NA,NA,NA,0,0,0,2,1,NA,NA,NA,NA,NA,NA,NA,NA,NA,NA,NA,NA,NA,NA,NA,NA,NA,NA,NA,NA,NA,NA,NA,NA,NA,NA,NA,NA
SUPAMT87014,37M28K1J0WCHMQTNW73DXAJP2RGAJA,8818F4CD-561A-4EB8-9294-067C14B38A04,2023-09-28_09h44.12.913,WP_VExplicitOC_HL,2022.2.5,Win32,144.1545337,89.81057316,3.2126,2.0004,NA,NA,NA,NA,NA,frustrated,"frustrated, not frustrated","more frustrated, less frustrated",NA,NA,NA,NA,NA,NA,NA,NA,NA,NA,NA,NA,NA,NA,NA,0,1,1,1,1,NA,NA,NA,NA,NA,NA,NA,NA,NA,NA,NA,NA,NA,NA,NA,NA,NA,NA,NA,NA,NA,NA,NA,NA,NA,NA,NA,NA
SUPAMT87014,37M28K1J0WCHMQTNW73DXAJP2RGAJA,8818F4CD-561A-4EB8-9294-067C14B38A04,2023-09-28_09h44.12.913,WP_VExplicitOC_HL,2022.2.5,Win32,144.1545337,95.07478541,2.9772,2.0003,NA,NA,NA,NA,NA,happy,"unhappy, happy","less happy, more happy",NA,NA,NA,NA,NA,NA,NA,NA,NA,NA,NA,NA,NA,NA,NA,0,2,2,0,1,NA,NA,NA,NA,NA,NA,NA,NA,NA,NA,NA,NA,NA,NA,NA,NA,NA,NA,NA,NA,NA,NA,NA,NA,NA,NA,NA,NA
SUPAMT87014,37M28K1J0WCHMQTNW73DXAJP2RGAJA,8818F4CD-561A-4EB8-9294-067C14B38A04,2023-09-28_09h44.12.913,WP_VExplicitOC_HL,2022.2.5,Win32,144.1545337,NA,NA,NA,NA,NA,NA,NA,NA,NA,NA,NA,NA,NA,NA,NA,NA,NA,NA,NA,NA,NA,NA,NA,NA,NA,NA,NA,NA,NA,NA,NA,3,0,3,0,1,NA,NA,NA,NA,NA,NA,NA,NA,NA,NA,NA,NA,NA,NA,NA,NA,NA,NA,NA,NA,NA,NA,NA
SUPAMT87014,37M28K1J0WCHMQTNW73DXAJP2RGAJA,8818F4CD-561A-4EB8-9294-067C14B38A04,2023-09-28_09h44.12.913,WP_VExplicitOC_HL,2022.2.5,Win32,144.1545337,91.56531869,3.0778,2.0041,NA,NA,NA,NA,NA,bored,"bored, not bored","more bored, less bored",NA,NA,NA,NA,NA,NA,NA,NA,NA,NA,NA,NA,NA,NA,NA,0,0,0,2,1,NA,NA,NA,NA,NA,NA,NA,NA,NA,NA,NA,NA,NA,NA,NA,NA,NA,NA,NA,NA,NA,NA,NA,NA,NA,NA,NA,NA
SUPAMT87014,37M28K1J0WCHMQTNW73DXAJP2RGAJA,8818F4CD-561A-4EB8-9294-067C14B38A04,2023-09-28_09h44.12.913,WP_VExplicitOC_HL,2022.2.5,Win32,144.1545337,90.92721834,3.2991,2.0002,NA,NA,NA,NA,NA,happy,"unhappy, happy","less happy, more happy",NA,NA,NA,NA,NA,NA,NA,NA,NA,NA,NA,NA,NA,NA,NA,0,1,1,0,1,NA,NA,NA,NA,NA,NA,NA,NA,NA,NA,NA,NA,NA,NA,NA,NA,NA,NA,NA,NA,NA,NA,NA,NA,NA,NA,NA,NA
SUPAMT87014,37M28K1J0WCHMQTNW73DXAJP2RGAJA,8818F4CD-561A-4EB8-9294-067C14B38A04,2023-09-28_09h44.12.913,WP_VExplicitOC_HL,2022.2.5,Win32,144.1545337,-92.362913699999993,3.0244,2.0002,NA,NA,NA,NA,NA,frustrated,"frustrated, not frustrated","more frustrated, less frustrated",NA,NA,NA,NA,NA,NA,NA,NA,NA,NA,NA,NA,NA,NA,NA,0,2,2,1,1,NA,NA,NA,NA,NA,NA,NA,NA,NA,NA,NA,NA,NA,NA,NA,NA,NA,NA,NA,NA,NA,NA,NA,NA,NA,NA,NA,NA
SUPAMT87014,37M28K1J0WCHMQTNW73DXAJP2RGAJA,8818F4CD-561A-4EB8-9294-067C14B38A04,2023-09-28_09h44.12.913,WP_VExplicitOC_HL,2022.2.5,Win32,144.1545337,NA,NA,NA,NA,NA,NA,NA,NA,NA,NA,NA,NA,NA,NA,NA,NA,NA,NA,NA,NA,NA,NA,NA,NA,NA,NA,NA,NA,NA,NA,NA,4,0,4,0,1,NA,NA,NA,NA,NA,NA,NA,NA,NA,NA,NA,NA,NA,NA,NA,NA,NA,NA,NA,NA,NA,NA,NA
SUPAMT87014,37M28K1J0WCHMQTNW73DXAJP2RGAJA,8818F4CD-561A-4EB8-9294-067C14B38A04,2023-09-28_09h44.12.913,WP_VExplicitOC_HL,2022.2.5,Win32,144.1545337,95.87239259,3.0924,2.0027,NA,NA,NA,NA,NA,frustrated,"frustrated, not frustrated","more frustrated, less frustrated",NA,NA,NA,NA,NA,NA,NA,NA,NA,NA,NA,NA,NA,NA,NA,0,0,0,1,1,NA,NA,NA,NA,NA,NA,NA,NA,NA,NA,NA,NA,NA,NA,NA,NA,NA,NA,NA,NA,NA,NA,NA,NA,NA,NA,NA,NA
SUPAMT87014,37M28K1J0WCHMQTNW73DXAJP2RGAJA,8818F4CD-561A-4EB8-9294-067C14B38A04,2023-09-28_09h44.12.913,WP_VExplicitOC_HL,2022.2.5,Win32,144.1545337,93.79860906,2.793,2.0001,NA,NA,NA,NA,NA,bored,"bored, not bored","more bored, less bored",NA,NA,NA,NA,NA,NA,NA,NA,NA,NA,NA,NA,NA,NA,NA,0,1,1,2,1,NA,NA,NA,NA,NA,NA,NA,NA,NA,NA,NA,NA,NA,NA,NA,NA,NA,NA,NA,NA,NA,NA,NA,NA,NA,NA,NA,NA
SUPAMT87014,37M28K1J0WCHMQTNW73DXAJP2RGAJA,8818F4CD-561A-4EB8-9294-067C14B38A04,2023-09-28_09h44.12.913,WP_VExplicitOC_HL,2022.2.5,Win32,144.1545337,93.63907788,2.8426,2.0003,NA,NA,NA,NA,NA,happy,"unhappy, happy","less happy, more happy",NA,NA,NA,NA,NA,NA,NA,NA,NA,NA,NA,NA,NA,NA,NA,0,2,2,0,1,NA,NA,NA,NA,NA,NA,NA,NA,NA,NA,NA,NA,NA,NA,NA,NA,NA,NA,NA,NA,NA,NA,NA,NA,NA,NA,NA,NA
SUPAMT87014,37M28K1J0WCHMQTNW73DXAJP2RGAJA,8818F4CD-561A-4EB8-9294-067C14B38A04,2023-09-28_09h44.12.913,WP_VExplicitOC_HL,2022.2.5,Win32,144.1545337,NA,NA,NA,NA,NA,NA,NA,NA,NA,NA,NA,NA,NA,NA,NA,NA,NA,NA,NA,NA,NA,NA,NA,NA,NA,NA,NA,NA,NA,NA,NA,5,0,5,0,1,NA,NA,NA,NA,NA,NA,NA,NA,NA,NA,NA,NA,NA,NA,NA,NA,NA,NA,NA,NA,NA,NA,NA
SUPAMT87014,37M28K1J0WCHMQTNW73DXAJP2RGAJA,8818F4CD-561A-4EB8-9294-067C14B38A04,2023-09-28_09h44.12.913,WP_VExplicitOC_HL,2022.2.5,Win32,144.1545337,95.23429224,2.9143,2.006,NA,NA,NA,NA,NA,happy,"unhappy, happy","less happy, more happy",NA,NA,NA,NA,NA,NA,NA,NA,NA,NA,NA,NA,NA,NA,NA,0,0,0,0,1,NA,NA,NA,NA,NA,NA,NA,NA,NA,NA,NA,NA,NA,NA,NA,NA,NA,NA,NA,NA,NA,NA,NA,NA,NA,NA,NA,NA
SUPAMT87014,37M28K1J0WCHMQTNW73DXAJP2RGAJA,8818F4CD-561A-4EB8-9294-067C14B38A04,2023-09-28_09h44.12.913,WP_VExplicitOC_HL,2022.2.5,Win32,144.1545337,68.91325535,3.8247,2.0002,NA,NA,NA,NA,NA,bored,"bored, not bored","more bored, less bored",NA,NA,NA,NA,NA,NA,NA,NA,NA,NA,NA,NA,NA,NA,NA,0,1,1,2,1,NA,NA,NA,NA,NA,NA,NA,NA,NA,NA,NA,NA,NA,NA,NA,NA,NA,NA,NA,NA,NA,NA,NA,NA,NA,NA,NA,NA
SUPAMT87014,37M28K1J0WCHMQTNW73DXAJP2RGAJA,8818F4CD-561A-4EB8-9294-067C14B38A04,2023-09-28_09h44.12.913,WP_VExplicitOC_HL,2022.2.5,Win32,144.1545337,89.97010434,2.9467,2.0001,NA,NA,NA,NA,NA,frustrated,"frustrated, not frustrated","more frustrated, less frustrated",NA,NA,NA,NA,NA,NA,NA,NA,NA,NA,NA,NA,NA,NA,NA,0,2,2,1,1,NA,NA,NA,NA,NA,NA,NA,NA,NA,NA,NA,NA,NA,NA,NA,NA,NA,NA,NA,NA,NA,NA,NA,NA,NA,NA,NA,NA
SUPAMT87014,37M28K1J0WCHMQTNW73DXAJP2RGAJA,8818F4CD-561A-4EB8-9294-067C14B38A04,2023-09-28_09h44.12.913,WP_VExplicitOC_HL,2022.2.5,Win32,144.1545337,NA,NA,NA,NA,NA,NA,NA,NA,NA,NA,NA,NA,NA,NA,NA,NA,NA,NA,NA,NA,NA,NA,NA,NA,NA,NA,NA,NA,NA,NA,NA,6,0,6,0,1,NA,NA,NA,NA,NA,NA,NA,NA,NA,NA,NA,NA,NA,NA,NA,NA,NA,NA,NA,NA,NA,NA,NA
SUPAMT87014,37M28K1J0WCHMQTNW73DXAJP2RGAJA,8818F4CD-561A-4EB8-9294-067C14B38A04,2023-09-28_09h44.12.913,WP_VExplicitOC_HL,2022.2.5,Win32,144.1545337,87.5772828,2.6505,2.0021,NA,NA,NA,NA,NA,frustrated,"frustrated, not frustrated","more frustrated, less frustrated",NA,NA,NA,NA,NA,NA,NA,NA,NA,NA,NA,NA,NA,NA,NA,0,0,0,1,1,NA,NA,NA,NA,NA,NA,NA,NA,NA,NA,NA,NA,NA,NA,NA,NA,NA,NA,NA,NA,NA,NA,NA,NA,NA,NA,NA,NA
SUPAMT87014,37M28K1J0WCHMQTNW73DXAJP2RGAJA,8818F4CD-561A-4EB8-9294-067C14B38A04,2023-09-28_09h44.12.913,WP_VExplicitOC_HL,2022.2.5,Win32,144.1545337,60.93718357,3.4755,2.0001,NA,NA,NA,NA,NA,bored,"bored, not bored","more bored, less bored",NA,NA,NA,NA,NA,NA,NA,NA,NA,NA,NA,NA,NA,NA,NA,0,1,1,2,1,NA,NA,NA,NA,NA,NA,NA,NA,NA,NA,NA,NA,NA,NA,NA,NA,NA,NA,NA,NA,NA,NA,NA,NA,NA,NA,NA,NA
SUPAMT87014,37M28K1J0WCHMQTNW73DXAJP2RGAJA,8818F4CD-561A-4EB8-9294-067C14B38A04,2023-09-28_09h44.12.913,WP_VExplicitOC_HL,2022.2.5,Win32,144.1545337,93.47957105,2.7194,2.0003,NA,NA,NA,NA,NA,happy,"unhappy, happy","less happy, more happy",NA,NA,NA,NA,NA,NA,NA,NA,NA,NA,NA,NA,NA,NA,NA,0,2,2,0,1,NA,NA,NA,NA,NA,NA,NA,NA,NA,NA,NA,NA,NA,NA,NA,NA,NA,NA,NA,NA,NA,NA,NA,NA,NA,NA,NA,NA
SUPAMT87014,37M28K1J0WCHMQTNW73DXAJP2RGAJA,8818F4CD-561A-4EB8-9294-067C14B38A04,2023-09-28_09h44.12.913,WP_VExplicitOC_HL,2022.2.5,Win32,144.1545337,NA,NA,NA,NA,NA,NA,NA,NA,NA,NA,NA,NA,NA,NA,NA,NA,NA,NA,NA,NA,NA,NA,NA,NA,NA,NA,NA,NA,NA,NA,NA,7,0,7,0,1,NA,NA,NA,NA,NA,NA,NA,NA,NA,NA,NA,NA,NA,NA,NA,NA,NA,NA,NA,NA,NA,NA,NA
SUPAMT87014,37M28K1J0WCHMQTNW73DXAJP2RGAJA,8818F4CD-561A-4EB8-9294-067C14B38A04,2023-09-28_09h44.12.913,WP_VExplicitOC_HL,2022.2.5,Win32,144.1545337,60.29910756,2.7045,2.0002,NA,NA,NA,NA,NA,bored,"bored, not bored","more bored, less bored",NA,NA,NA,NA,NA,NA,NA,NA,NA,NA,NA,NA,NA,NA,NA,0,0,0,2,1,NA,NA,NA,NA,NA,NA,NA,NA,NA,NA,NA,NA,NA,NA,NA,NA,NA,NA,NA,NA,NA,NA,NA,NA,NA,NA,NA,NA
SUPAMT87014,37M28K1J0WCHMQTNW73DXAJP2RGAJA,8818F4CD-561A-4EB8-9294-067C14B38A04,2023-09-28_09h44.12.913,WP_VExplicitOC_HL,2022.2.5,Win32,144.1545337,80.55832502,2.4882,2.0001,NA,NA,NA,NA,NA,happy,"unhappy, happy","less happy, more happy",NA,NA,NA,NA,NA,NA,NA,NA,NA,NA,NA,NA,NA,NA,NA,0,1,1,0,1,NA,NA,NA,NA,NA,NA,NA,NA,NA,NA,NA,NA,NA,NA,NA,NA,NA,NA,NA,NA,NA,NA,NA,NA,NA,NA,NA,NA
SUPAMT87014,37M28K1J0WCHMQTNW73DXAJP2RGAJA,8818F4CD-561A-4EB8-9294-067C14B38A04,2023-09-28_09h44.12.913,WP_VExplicitOC_HL,2022.2.5,Win32,144.1545337,83.27018456,2.515,2.0001,NA,NA,NA,NA,NA,frustrated,"frustrated, not frustrated","more frustrated, less frustrated",NA,NA,NA,NA,NA,NA,NA,NA,NA,NA,NA,NA,NA,NA,NA,0,2,2,1,1,NA,NA,NA,NA,NA,NA,NA,NA,NA,NA,NA,NA,NA,NA,NA,NA,NA,NA,NA,NA,NA,NA,NA,NA,NA,NA,NA,NA
SUPAMT87014,37M28K1J0WCHMQTNW73DXAJP2RGAJA,8818F4CD-561A-4EB8-9294-067C14B38A04,2023-09-28_09h44.12.913,WP_VExplicitOC_HL,2022.2.5,Win32,144.1545337,NA,NA,NA,NA,NA,NA,NA,NA,NA,NA,NA,NA,NA,NA,NA,NA,NA,NA,NA,NA,NA,NA,NA,NA,NA,NA,NA,NA,NA,NA,NA,8,0,8,0,1,NA,NA,NA,NA,NA,NA,NA,NA,NA,NA,NA,NA,NA,NA,NA,NA,NA,NA,NA,NA,NA,NA,NA
SUPAMT87014,37M28K1J0WCHMQTNW73DXAJP2RGAJA,8818F4CD-561A-4EB8-9294-067C14B38A04,2023-09-28_09h44.12.913,WP_VExplicitOC_HL,2022.2.5,Win32,144.1545337,88.37488998,3.3014,2.0065,NA,NA,NA,NA,NA,frustrated,"frustrated, not frustrated","more frustrated, less frustrated",NA,NA,NA,NA,NA,NA,NA,NA,NA,NA,NA,NA,NA,NA,NA,0,0,0,1,1,NA,NA,NA,NA,NA,NA,NA,NA,NA,NA,NA,NA,NA,NA,NA,NA,NA,NA,NA,NA,NA,NA,NA,NA,NA,NA,NA,NA
SUPAMT87014,37M28K1J0WCHMQTNW73DXAJP2RGAJA,8818F4CD-561A-4EB8-9294-067C14B38A04,2023-09-28_09h44.12.913,WP_VExplicitOC_HL,2022.2.5,Win32,144.1545337,90.28914234,3.061,2.0001,NA,NA,NA,NA,NA,happy,"unhappy, happy","less happy, more happy",NA,NA,NA,NA,NA,NA,NA,NA,NA,NA,NA,NA,NA,NA,NA,0,1,1,0,1,NA,NA,NA,NA,NA,NA,NA,NA,NA,NA,NA,NA,NA,NA,NA,NA,NA,NA,NA,NA,NA,NA,NA,NA,NA,NA,NA,NA
SUPAMT87014,37M28K1J0WCHMQTNW73DXAJP2RGAJA,8818F4CD-561A-4EB8-9294-067C14B38A04,2023-09-28_09h44.12.913,WP_VExplicitOC_HL,2022.2.5,Win32,144.1545337,62.21335992,3.9659,2,NA,NA,NA,NA,NA,bored,"bored, not bored","more bored, less bored",NA,NA,NA,NA,NA,NA,NA,NA,NA,NA,NA,NA,NA,NA,NA,0,2,2,2,1,NA,NA,NA,NA,NA,NA,NA,NA,NA,NA,NA,NA,NA,NA,NA,NA,NA,NA,NA,NA,NA,NA,NA,NA,NA,NA,NA,NA
SUPAMT87014,37M28K1J0WCHMQTNW73DXAJP2RGAJA,8818F4CD-561A-4EB8-9294-067C14B38A04,2023-09-28_09h44.12.913,WP_VExplicitOC_HL,2022.2.5,Win32,144.1545337,NA,NA,NA,NA,NA,NA,NA,NA,NA,NA,NA,NA,NA,NA,NA,NA,NA,NA,NA,NA,NA,NA,NA,NA,NA,NA,NA,NA,NA,NA,NA,9,0,9,0,1,NA,NA,NA,NA,NA,NA,NA,NA,NA,NA,NA,NA,NA,NA,NA,NA,NA,NA,NA,NA,NA,NA,NA
SUPAMT87014,37M28K1J0WCHMQTNW73DXAJP2RGAJA,8818F4CD-561A-4EB8-9294-067C14B38A04,2023-09-28_09h44.12.913,WP_VExplicitOC_HL,2022.2.5,Win32,144.1545337,88.21535881,2.9441,2.0034,NA,NA,NA,NA,NA,happy,"unhappy, happy","less happy, more happy",NA,NA,NA,NA,NA,NA,NA,NA,NA,NA,NA,NA,NA,NA,NA,0,0,0,0,1,NA,NA,NA,NA,NA,NA,NA,NA,NA,NA,NA,NA,NA,NA,NA,NA,NA,NA,NA,NA,NA,NA,NA,NA,NA,NA,NA,NA
SUPAMT87014,37M28K1J0WCHMQTNW73DXAJP2RGAJA,8818F4CD-561A-4EB8-9294-067C14B38A04,2023-09-28_09h44.12.913,WP_VExplicitOC_HL,2022.2.5,Win32,144.1545337,80.23928702,2.7456,2.0002,NA,NA,NA,NA,NA,frustrated,"frustrated, not frustrated","more frustrated, less frustrated",NA,NA,NA,NA,NA,NA,NA,NA,NA,NA,NA,NA,NA,NA,NA,0,1,1,1,1,NA,NA,NA,NA,NA,NA,NA,NA,NA,NA,NA,NA,NA,NA,NA,NA,NA,NA,NA,NA,NA,NA,NA,NA,NA,NA,NA,NA
SUPAMT87014,37M28K1J0WCHMQTNW73DXAJP2RGAJA,8818F4CD-561A-4EB8-9294-067C14B38A04,2023-09-28_09h44.12.913,WP_VExplicitOC_HL,2022.2.5,Win32,144.1545337,57.26821002,2.6604,2.0002,NA,NA,NA,NA,NA,bored,"bored, not bored","more bored, less bored",NA,NA,NA,NA,NA,NA,NA,NA,NA,NA,NA,NA,NA,NA,NA,0,2,2,2,1,NA,NA,NA,NA,NA,NA,NA,NA,NA,NA,NA,NA,NA,NA,NA,NA,NA,NA,NA,NA,NA,NA,NA,NA,NA,NA,NA,NA
SUPAMT87014,37M28K1J0WCHMQTNW73DXAJP2RGAJA,8818F4CD-561A-4EB8-9294-067C14B38A04,2023-09-28_09h44.12.913,WP_VExplicitOC_HL,2022.2.5,Win32,144.1545337,NA,NA,NA,NA,NA,NA,NA,NA,NA,NA,NA,NA,NA,NA,NA,NA,NA,NA,NA,NA,NA,NA,NA,NA,NA,NA,NA,NA,NA,NA,NA,10,0,10,0,1,NA,NA,NA,NA,NA,NA,NA,NA,NA,NA,NA,NA,NA,NA,NA,NA,NA,NA,NA,NA,NA,NA,NA
SUPAMT87014,37M28K1J0WCHMQTNW73DXAJP2RGAJA,8818F4CD-561A-4EB8-9294-067C14B38A04,2023-09-28_09h44.12.913,WP_VExplicitOC_HL,2022.2.5,Win32,144.1545337,53.75871896,4.2279,2.0036,NA,NA,NA,NA,NA,bored,"bored, not bored","more bored, less bored",NA,NA,NA,NA,NA,NA,NA,NA,NA,NA,NA,NA,NA,NA,NA,0,0,0,2,1,NA,NA,NA,NA,NA,NA,NA,NA,NA,NA,NA,NA,NA,NA,NA,NA,NA,NA,NA,NA,NA,NA,NA,NA,NA,NA,NA,NA
SUPAMT87014,37M28K1J0WCHMQTNW73DXAJP2RGAJA,8818F4CD-561A-4EB8-9294-067C14B38A04,2023-09-28_09h44.12.913,WP_VExplicitOC_HL,2022.2.5,Win32,144.1545337,84.54636092,4.3162,2.6009,NA,NA,NA,NA,NA,frustrated,"frustrated, not frustrated","more frustrated, less frustrated",NA,NA,NA,NA,NA,NA,NA,NA,NA,NA,NA,NA,NA,NA,NA,0,1,1,1,1,NA,NA,NA,NA,NA,NA,NA,NA,NA,NA,NA,NA,NA,NA,NA,NA,NA,NA,NA,NA,NA,NA,NA,NA,NA,NA,NA,NA
SUPAMT87014,37M28K1J0WCHMQTNW73DXAJP2RGAJA,8818F4CD-561A-4EB8-9294-067C14B38A04,2023-09-28_09h44.12.913,WP_VExplicitOC_HL,2022.2.5,Win32,144.1545337,79.60121102,2.5022,2.0001,NA,NA,NA,NA,NA,happy,"unhappy, happy","less happy, more happy",NA,NA,NA,NA,NA,NA,NA,NA,NA,NA,NA,NA,NA,NA,NA,0,2,2,0,1,NA,NA,NA,NA,NA,NA,NA,NA,NA,NA,NA,NA,NA,NA,NA,NA,NA,NA,NA,NA,NA,NA,NA,NA,NA,NA,NA,NA
SUPAMT87014,37M28K1J0WCHMQTNW73DXAJP2RGAJA,8818F4CD-561A-4EB8-9294-067C14B38A04,2023-09-28_09h44.12.913,WP_VExplicitOC_HL,2022.2.5,Win32,144.1545337,NA,NA,NA,NA,NA,NA,NA,NA,NA,NA,NA,NA,NA,NA,NA,NA,NA,NA,NA,NA,NA,NA,NA,NA,NA,NA,NA,NA,NA,NA,NA,11,0,11,0,1,NA,NA,NA,NA,NA,NA,NA,NA,NA,NA,NA,NA,NA,NA,NA,NA,NA,NA,NA,NA,NA,NA,NA
SUPAMT87014,37M28K1J0WCHMQTNW73DXAJP2RGAJA,8818F4CD-561A-4EB8-9294-067C14B38A04,2023-09-28_09h44.12.913,WP_VExplicitOC_HL,2022.2.5,Win32,144.1545337,89.97010434,3.2489,2.1059,NA,NA,NA,NA,NA,happy,"unhappy, happy","less happy, more happy",NA,NA,NA,NA,NA,NA,NA,NA,NA,NA,NA,NA,NA,NA,NA,0,0,0,0,1,NA,NA,NA,NA,NA,NA,NA,NA,NA,NA,NA,NA,NA,NA,NA,NA,NA,NA,NA,NA,NA,NA,NA,NA,NA,NA,NA,NA
SUPAMT87014,37M28K1J0WCHMQTNW73DXAJP2RGAJA,8818F4CD-561A-4EB8-9294-067C14B38A04,2023-09-28_09h44.12.913,WP_VExplicitOC_HL,2022.2.5,Win32,144.1545337,89.65104199,3.4774,2.1322,NA,NA,NA,NA,NA,frustrated,"frustrated, not frustrated","more frustrated, less frustrated",NA,NA,NA,NA,NA,NA,NA,NA,NA,NA,NA,NA,NA,NA,NA,0,1,1,1,1,NA,NA,NA,NA,NA,NA,NA,NA,NA,NA,NA,NA,NA,NA,NA,NA,NA,NA,NA,NA,NA,NA,NA,NA,NA,NA,NA,NA
SUPAMT87014,37M28K1J0WCHMQTNW73DXAJP2RGAJA,8818F4CD-561A-4EB8-9294-067C14B38A04,2023-09-28_09h44.12.913,WP_VExplicitOC_HL,2022.2.5,Win32,144.1545337,69.5513557,3.3551,2.0001,NA,NA,NA,NA,NA,bored,"bored, not bored","more bored, less bored",NA,NA,NA,NA,NA,NA,NA,NA,NA,NA,NA,NA,NA,NA,NA,0,2,2,2,1,NA,NA,NA,NA,NA,NA,NA,NA,NA,NA,NA,NA,NA,NA,NA,NA,NA,NA,NA,NA,NA,NA,NA,NA,NA,NA,NA,NA
SUPAMT87014,37M28K1J0WCHMQTNW73DXAJP2RGAJA,8818F4CD-561A-4EB8-9294-067C14B38A04,2023-09-28_09h44.12.913,WP_VExplicitOC_HL,2022.2.5,Win32,144.1545337,NA,NA,NA,NA,NA,NA,NA,NA,NA,NA,NA,NA,NA,NA,NA,NA,NA,NA,NA,NA,NA,NA,NA,NA,NA,NA,NA,NA,NA,NA,NA,12,0,12,0,1,NA,NA,NA,NA,NA,NA,NA,NA,NA,NA,NA,NA,NA,NA,NA,NA,NA,NA,NA,NA,NA,NA,NA
SUPAMT87014,37M28K1J0WCHMQTNW73DXAJP2RGAJA,8818F4CD-561A-4EB8-9294-067C14B38A04,2023-09-28_09h44.12.913,WP_VExplicitOC_HL,2022.2.5,Win32,144.1545337,56.78964084,2.7903,2.0036,NA,NA,NA,NA,NA,bored,"bored, not bored","more bored, less bored",NA,NA,NA,NA,NA,NA,NA,NA,NA,NA,NA,NA,NA,NA,NA,0,0,0,2,1,NA,NA,NA,NA,NA,NA,NA,NA,NA,NA,NA,NA,NA,NA,NA,NA,NA,NA,NA,NA,NA,NA,NA,NA,NA,NA,NA,NA
SUPAMT87014,37M28K1J0WCHMQTNW73DXAJP2RGAJA,8818F4CD-561A-4EB8-9294-067C14B38A04,2023-09-28_09h44.12.913,WP_VExplicitOC_HL,2022.2.5,Win32,144.1545337,85.98206844,2.6542,2.0004,NA,NA,NA,NA,NA,frustrated,"frustrated, not frustrated","more frustrated, less frustrated",NA,NA,NA,NA,NA,NA,NA,NA,NA,NA,NA,NA,NA,NA,NA,0,1,1,1,1,NA,NA,NA,NA,NA,NA,NA,NA,NA,NA,NA,NA,NA,NA,NA,NA,NA,NA,NA,NA,NA,NA,NA,NA,NA,NA,NA,NA
SUPAMT87014,37M28K1J0WCHMQTNW73DXAJP2RGAJA,8818F4CD-561A-4EB8-9294-067C14B38A04,2023-09-28_09h44.12.913,WP_VExplicitOC_HL,2022.2.5,Win32,144.1545337,88.37488998,2.6342,2.005,NA,NA,NA,NA,NA,happy,"unhappy, happy","less happy, more happy",NA,NA,NA,NA,NA,NA,NA,NA,NA,NA,NA,NA,NA,NA,NA,0,2,2,0,1,NA,NA,NA,NA,NA,NA,NA,NA,NA,NA,NA,NA,NA,NA,NA,NA,NA,NA,NA,NA,NA,NA,NA,NA,NA,NA,NA,NA
SUPAMT87014,37M28K1J0WCHMQTNW73DXAJP2RGAJA,8818F4CD-561A-4EB8-9294-067C14B38A04,2023-09-28_09h44.12.913,WP_VExplicitOC_HL,2022.2.5,Win32,144.1545337,NA,NA,NA,NA,NA,NA,NA,NA,NA,NA,NA,NA,NA,NA,NA,NA,NA,NA,NA,NA,NA,NA,NA,NA,NA,NA,NA,NA,NA,NA,NA,13,0,13,0,1,NA,NA,NA,NA,NA,NA,NA,NA,NA,NA,NA,NA,NA,NA,NA,NA,NA,NA,NA,NA,NA,NA,NA
SUPAMT87014,37M28K1J0WCHMQTNW73DXAJP2RGAJA,8818F4CD-561A-4EB8-9294-067C14B38A04,2023-09-28_09h44.12.913,WP_VExplicitOC_HL,2022.2.5,Win32,144.1545337,81.51546338,3.1513,2.0045,NA,NA,NA,NA,NA,frustrated,"frustrated, not frustrated","more frustrated, less frustrated",NA,NA,NA,NA,NA,NA,NA,NA,NA,NA,NA,NA,NA,NA,NA,0,0,0,1,1,NA,NA,NA,NA,NA,NA,NA,NA,NA,NA,NA,NA,NA,NA,NA,NA,NA,NA,NA,NA,NA,NA,NA,NA,NA,NA,NA,NA
SUPAMT87014,37M28K1J0WCHMQTNW73DXAJP2RGAJA,8818F4CD-561A-4EB8-9294-067C14B38A04,2023-09-28_09h44.12.913,WP_VExplicitOC_HL,2022.2.5,Win32,144.1545337,85.98206844,3.661,2.0003,NA,NA,NA,NA,NA,happy,"unhappy, happy","less happy, more happy",NA,NA,NA,NA,NA,NA,NA,NA,NA,NA,NA,NA,NA,NA,NA,0,1,1,0,1,NA,NA,NA,NA,NA,NA,NA,NA,NA,NA,NA,NA,NA,NA,NA,NA,NA,NA,NA,NA,NA,NA,NA,NA,NA,NA,NA,NA
SUPAMT87014,37M28K1J0WCHMQTNW73DXAJP2RGAJA,8818F4CD-561A-4EB8-9294-067C14B38A04,2023-09-28_09h44.12.913,WP_VExplicitOC_HL,2022.2.5,Win32,144.1545337,59.98006956,2.702,2.0001,NA,NA,NA,NA,NA,bored,"bored, not bored","more bored, less bored",NA,NA,NA,NA,NA,NA,NA,NA,NA,NA,NA,NA,NA,NA,NA,0,2,2,2,1,NA,NA,NA,NA,NA,NA,NA,NA,NA,NA,NA,NA,NA,NA,NA,NA,NA,NA,NA,NA,NA,NA,NA,NA,NA,NA,NA,NA
SUPAMT87014,37M28K1J0WCHMQTNW73DXAJP2RGAJA,8818F4CD-561A-4EB8-9294-067C14B38A04,2023-09-28_09h44.12.913,WP_VExplicitOC_HL,2022.2.5,Win32,144.1545337,NA,NA,NA,NA,NA,NA,NA,NA,NA,NA,NA,NA,NA,NA,NA,NA,NA,NA,NA,NA,NA,NA,NA,NA,NA,NA,NA,NA,NA,NA,NA,14,0,14,0,1,NA,NA,NA,NA,NA,NA,NA,NA,NA,NA,NA,NA,NA,NA,NA,NA,NA,NA,NA,NA,NA,NA,NA
SUPAMT87014,37M28K1J0WCHMQTNW73DXAJP2RGAJA,8818F4CD-561A-4EB8-9294-067C14B38A04,2023-09-28_09h44.12.913,WP_VExplicitOC_HL,2022.2.5,Win32,144.1545337,NA,NA,NA,NA,NA,NA,NA,NA,NA,NA,NA,NA,NA,NA,NA,NA,NA,NA,NA,NA,NA,NA,NA,NA,NA,NA,NA,NA,NA,NA,NA,NA,NA,NA,NA,NA,NA,NA,NA,NA,NA,NA,NA,NA,NA,NA,NA,NA,NA,NA,NA,NA,NA,NA,NA,NA,NA,NA,NA
SUPAMT87014,37M28K1J0WCHMQTNW73DXAJP2RGAJA,8818F4CD-561A-4EB8-9294-067C14B38A04,2023-09-28_09h44.12.913,WP_VExplicitOC_HL,2022.2.5,Win32,144.1545337,NA,NA,NA,NA,NA,NA,NA,NA,NA,NA,NA,NA,NA,NA,NA,NA,NA,NA,NA,NA,NA,NA,NA,NA,NA,NA,NA,NA,NA,NA,NA,NA,NA,NA,NA,NA,NA,NA,NA,NA,NA,NA,NA,NA,NA,NA,NA,NA,NA,NA,NA,NA,NA,NA,NA,NA,NA,NA,NA
SUPAMT87014,37M28K1J0WCHMQTNW73DXAJP2RGAJA,8818F4CD-561A-4EB8-9294-067C14B38A04,2023-09-28_09h44.12.913,WP_VExplicitOC_HL,2022.2.5,Win32,144.1545337,NA,NA,NA,NA,NA,NA,NA,NA,NA,NA,NA,NA,NA,NA,NA,NA,NA,NA,rest (looking at a fixed cross),001.png,NA,NA,NA,NA,NA,NA,NA,NA,NA,NA,NA,NA,NA,NA,NA,NA,NA,NA,0,0,0,0,1,NA,NA,NA,NA,NA,NA,NA,NA,NA,NA,NA,NA,NA,NA,NA,NA
SUPAMT87014,37M28K1J0WCHMQTNW73DXAJP2RGAJA,8818F4CD-561A-4EB8-9294-067C14B38A04,2023-09-28_09h44.12.913,WP_VExplicitOC_HL,2022.2.5,Win32,144.1545337,NA,NA,NA,NA,NA,NA,NA,NA,NA,NA,NA,NA,NA,NA,NA,NA,NA,NA,stand up,002.png,NA,NA,NA,NA,NA,NA,NA,NA,NA,NA,NA,NA,NA,NA,NA,NA,80.55832502,2.1489,0,1,1,1,1,NA,NA,NA,NA,NA,NA,NA,NA,NA,NA,NA,NA,NA,NA,NA,NA
SUPAMT87014,37M28K1J0WCHMQTNW73DXAJP2RGAJA,8818F4CD-561A-4EB8-9294-067C14B38A04,2023-09-28_09h44.12.913,WP_VExplicitOC_HL,2022.2.5,Win32,144.1545337,NA,NA,NA,NA,NA,NA,NA,NA,NA,NA,NA,NA,NA,NA,NA,NA,NA,NA,stretch,003.png,NA,NA,NA,NA,NA,NA,NA,NA,NA,NA,NA,NA,NA,NA,NA,NA,67.95614134,0.9063,0,2,2,2,1,NA,NA,NA,NA,NA,NA,NA,NA,NA,NA,NA,NA,NA,NA,NA,NA
SUPAMT87014,37M28K1J0WCHMQTNW73DXAJP2RGAJA,8818F4CD-561A-4EB8-9294-067C14B38A04,2023-09-28_09h44.12.913,WP_VExplicitOC_HL,2022.2.5,Win32,144.1545337,NA,NA,NA,NA,NA,NA,NA,NA,NA,NA,NA,NA,NA,NA,NA,NA,NA,NA,make a drink,004.png,NA,NA,NA,NA,NA,NA,NA,NA,NA,NA,NA,NA,NA,NA,NA,NA,-92.6819517,1.0927,0,3,3,3,1,NA,NA,NA,NA,NA,NA,NA,NA,NA,NA,NA,NA,NA,NA,NA,NA
SUPAMT87014,37M28K1J0WCHMQTNW73DXAJP2RGAJA,8818F4CD-561A-4EB8-9294-067C14B38A04,2023-09-28_09h44.12.913,WP_VExplicitOC_HL,2022.2.5,Win32,144.1545337,NA,NA,NA,NA,NA,NA,NA,NA,NA,NA,NA,NA,NA,NA,NA,NA,NA,NA,scroll social media,005.png,NA,NA,NA,NA,NA,NA,NA,NA,NA,NA,NA,NA,NA,NA,NA,NA,-76.09171996,0.9692,0,4,4,4,1,NA,NA,NA,NA,NA,NA,NA,NA,NA,NA,NA,NA,NA,NA,NA,NA
SUPAMT87014,37M28K1J0WCHMQTNW73DXAJP2RGAJA,8818F4CD-561A-4EB8-9294-067C14B38A04,2023-09-28_09h44.12.913,WP_VExplicitOC_HL,2022.2.5,Win32,144.1545337,NA,NA,NA,NA,NA,NA,NA,NA,NA,NA,NA,NA,NA,NA,NA,NA,NA,NA,listen to music,006.png,NA,NA,NA,NA,NA,NA,NA,NA,NA,NA,NA,NA,NA,NA,NA,NA,53.28017413,0.8302,0,5,5,5,1,NA,NA,NA,NA,NA,NA,NA,NA,NA,NA,NA,NA,NA,NA,NA,NA
SUPAMT87014,37M28K1J0WCHMQTNW73DXAJP2RGAJA,8818F4CD-561A-4EB8-9294-067C14B38A04,2023-09-28_09h44.12.913,WP_VExplicitOC_HL,2022.2.5,Win32,144.1545337,NA,NA,NA,NA,NA,NA,NA,NA,NA,NA,NA,NA,NA,NA,NA,NA,NA,NA,daydream,007.png,NA,NA,NA,NA,NA,NA,NA,NA,NA,NA,NA,NA,NA,NA,NA,NA,-44.34695182,0.9688,0,6,6,6,1,NA,NA,NA,NA,NA,NA,NA,NA,NA,NA,NA,NA,NA,NA,NA,NA
SUPAMT87014,37M28K1J0WCHMQTNW73DXAJP2RGAJA,8818F4CD-561A-4EB8-9294-067C14B38A04,2023-09-28_09h44.12.913,WP_VExplicitOC_HL,2022.2.5,Win32,144.1545337,NA,NA,NA,NA,NA,NA,NA,NA,NA,NA,NA,NA,NA,NA,NA,NA,NA,NA,watch a short animation,008.png,NA,NA,NA,NA,NA,NA,NA,NA,NA,NA,NA,NA,NA,NA,NA,NA,55.35393332,0.9754,0,7,7,7,1,NA,NA,NA,NA,NA,NA,NA,NA,NA,NA,NA,NA,NA,NA,NA,NA
SUPAMT87014,37M28K1J0WCHMQTNW73DXAJP2RGAJA,8818F4CD-561A-4EB8-9294-067C14B38A04,2023-09-28_09h44.12.913,WP_VExplicitOC_HL,2022.2.5,Win32,144.1545337,NA,NA,NA,NA,NA,NA,NA,NA,NA,NA,NA,NA,NA,NA,NA,NA,NA,NA,read a novel,009.png,NA,NA,NA,NA,NA,NA,NA,NA,NA,NA,NA,NA,NA,NA,NA,NA,83.27018456,0.9761,0,8,8,8,1,NA,NA,NA,NA,NA,NA,NA,NA,NA,NA,NA,NA,NA,NA,NA,NA
SUPAMT87014,37M28K1J0WCHMQTNW73DXAJP2RGAJA,8818F4CD-561A-4EB8-9294-067C14B38A04,2023-09-28_09h44.12.913,WP_VExplicitOC_HL,2022.2.5,Win32,144.1545337,NA,NA,NA,NA,NA,NA,NA,NA,NA,NA,NA,NA,NA,NA,NA,NA,NA,NA,read the news,010.png,NA,NA,NA,NA,NA,NA,NA,NA,NA,NA,NA,NA,NA,NA,NA,NA,59.34196921,0.913,0,9,9,9,1,NA,NA,NA,NA,NA,NA,NA,NA,NA,NA,NA,NA,NA,NA,NA,NA
SUPAMT87014,37M28K1J0WCHMQTNW73DXAJP2RGAJA,8818F4CD-561A-4EB8-9294-067C14B38A04,2023-09-28_09h44.12.913,WP_VExplicitOC_HL,2022.2.5,Win32,144.1545337,NA,NA,NA,NA,NA,NA,NA,NA,NA,NA,NA,NA,NA,NA,NA,NA,NA,NA,NA,NA,NA,NA,NA,NA,NA,NA,NA,NA,NA,NA,NA,NA,NA,NA,NA,NA,NA,NA,NA,NA,NA,NA,NA,stretch,NA,NA,NA,NA,NA,NA,NA,NA,NA,NA,NA,NA,NA,NA,NA
SUPAMT87014,37M28K1J0WCHMQTNW73DXAJP2RGAJA,8818F4CD-561A-4EB8-9294-067C14B38A04,2023-09-28_09h44.12.913,WP_VExplicitOC_HL,2022.2.5,Win32,144.1545337,64.76571263,3.2457,2.0066,NA,NA,NA,NA,NA,frustrated,"frustrated, not frustrated","more frustrated, less frustrated",NA,NA,NA,NA,NA,NA,NA,NA,NA,NA,NA,NA,NA,NA,NA,NA,NA,NA,NA,NA,NA,NA,NA,NA,NA,NA,NA,NA,NA,NA,NA,NA,NA,0,0,0,1,1,NA,NA,NA,NA,NA,NA,NA,NA,NA,NA
SUPAMT87014,37M28K1J0WCHMQTNW73DXAJP2RGAJA,8818F4CD-561A-4EB8-9294-067C14B38A04,2023-09-28_09h44.12.913,WP_VExplicitOC_HL,2022.2.5,Win32,144.1545337,82.63210856,2.7836,2.0067,NA,NA,NA,NA,NA,happy,"unhappy, happy","less happy, more happy",NA,NA,NA,NA,NA,NA,NA,NA,NA,NA,NA,NA,NA,NA,NA,NA,NA,NA,NA,NA,NA,NA,NA,NA,NA,NA,NA,NA,NA,NA,NA,NA,NA,0,1,1,0,1,NA,NA,NA,NA,NA,NA,NA,NA,NA,NA
SUPAMT87014,37M28K1J0WCHMQTNW73DXAJP2RGAJA,8818F4CD-561A-4EB8-9294-067C14B38A04,2023-09-28_09h44.12.913,WP_VExplicitOC_HL,2022.2.5,Win32,144.1545337,30.30907278,2.4141,2.0001,NA,NA,NA,NA,NA,bored,"bored, not bored","more bored, less bored",NA,NA,NA,NA,NA,NA,NA,NA,NA,NA,NA,NA,NA,NA,NA,NA,NA,NA,NA,NA,NA,NA,NA,NA,NA,NA,NA,NA,NA,NA,NA,NA,NA,0,2,2,2,1,NA,NA,NA,NA,NA,NA,NA,NA,NA,NA
SUPAMT87014,37M28K1J0WCHMQTNW73DXAJP2RGAJA,8818F4CD-561A-4EB8-9294-067C14B38A04,2023-09-28_09h44.12.913,WP_VExplicitOC_HL,2022.2.5,Win32,144.1545337,NA,NA,NA,NA,NA,NA,NA,NA,NA,NA,NA,NA,NA,NA,NA,NA,NA,NA,NA,NA,NA,NA,NA,NA,NA,NA,NA,NA,NA,NA,NA,NA,NA,NA,NA,NA,NA,NA,NA,NA,NA,NA,NA,NA,NA,NA,NA,NA,NA,NA,NA,NA,NA,NA,NA,NA,NA,NA,NA
SUPAMT87014,37M28K1J0WCHMQTNW73DXAJP2RGAJA,8818F4CD-561A-4EB8-9294-067C14B38A04,2023-09-28_09h44.12.913,WP_VExplicitOC_HL,2022.2.5,Win32,144.1545337,NA,NA,NA,NA,NA,NA,NA,NA,NA,NA,NA,NA,NA,NA,NA,NA,NA,NA,NA,NA,NA,NA,NA,NA,NA,NA,NA,NA,NA,NA,NA,NA,NA,NA,NA,NA,NA,NA,NA,NA,NA,NA,NA,NA,NA,NA,NA,NA,NA,NA,NA,NA,NA,NA,NA,NA,NA,NA,NA
SUPAMT87014,37M28K1J0WCHMQTNW73DXAJP2RGAJA,8818F4CD-561A-4EB8-9294-067C14B38A04,2023-09-28_09h44.12.913,WP_VExplicitOC_HL,2022.2.5,Win32,144.1545337,87.5772828,3.1674,2.0026,NA,NA,NA,NA,NA,frustrated,"frustrated, not frustrated","more frustrated, less frustrated",NA,NA,NA,NA,NA,NA,NA,NA,NA,NA,NA,NA,NA,NA,NA,NA,NA,NA,NA,NA,NA,NA,NA,NA,NA,NA,NA,NA,NA,NA,NA,NA,NA,NA,NA,NA,NA,NA,0,0,0,1,1,NA,NA,NA,NA,NA
SUPAMT87014,37M28K1J0WCHMQTNW73DXAJP2RGAJA,8818F4CD-561A-4EB8-9294-067C14B38A04,2023-09-28_09h44.12.913,WP_VExplicitOC_HL,2022.2.5,Win32,144.1545337,88.21535881,2.8872,2.0001,NA,NA,NA,NA,NA,happy,"unhappy, happy","less happy, more happy",NA,NA,NA,NA,NA,NA,NA,NA,NA,NA,NA,NA,NA,NA,NA,NA,NA,NA,NA,NA,NA,NA,NA,NA,NA,NA,NA,NA,NA,NA,NA,NA,NA,NA,NA,NA,NA,NA,0,1,1,0,1,NA,NA,NA,NA,NA
SUPAMT87014,37M28K1J0WCHMQTNW73DXAJP2RGAJA,8818F4CD-561A-4EB8-9294-067C14B38A04,2023-09-28_09h44.12.913,WP_VExplicitOC_HL,2022.2.5,Win32,144.1545337,35.41375386,3.2182,2.0002,NA,NA,NA,NA,NA,bored,"bored, not bored","more bored, less bored",NA,NA,NA,NA,NA,NA,NA,NA,NA,NA,NA,NA,NA,NA,NA,NA,NA,NA,NA,NA,NA,NA,NA,NA,NA,NA,NA,NA,NA,NA,NA,NA,NA,NA,NA,NA,NA,NA,0,2,2,2,1,NA,NA,NA,NA,NA
SUPAMT87014,37M28K1J0WCHMQTNW73DXAJP2RGAJA,8818F4CD-561A-4EB8-9294-067C14B38A04,2023-09-28_09h44.12.913,WP_VExplicitOC_HL,2022.2.5,Win32,144.1545337,NA,NA,NA,NA,NA,NA,NA,NA,NA,NA,NA,NA,NA,NA,NA,NA,NA,NA,NA,NA,NA,NA,NA,NA,NA,NA,NA,NA,NA,NA,NA,NA,NA,NA,NA,NA,NA,NA,NA,NA,NA,NA,NA,NA,NA,NA,NA,NA,NA,NA,NA,NA,NA,NA,0,0,0,0,1
SUPAMT87014,37M28K1J0WCHMQTNW73DXAJP2RGAJA,8818F4CD-561A-4EB8-9294-067C14B38A04,2023-09-28_09h44.12.913,WP_VExplicitOC_HL,2022.2.5,Win32,144.1545337,83.27018456,3.2819,2.0057,NA,NA,NA,NA,NA,happy,"unhappy, happy","less happy, more happy",NA,NA,NA,NA,NA,NA,NA,NA,NA,NA,NA,NA,NA,NA,NA,NA,NA,NA,NA,NA,NA,NA,NA,NA,NA,NA,NA,NA,NA,NA,NA,NA,NA,NA,NA,NA,NA,NA,0,0,0,0,1,NA,NA,NA,NA,NA
SUPAMT87014,37M28K1J0WCHMQTNW73DXAJP2RGAJA,8818F4CD-561A-4EB8-9294-067C14B38A04,2023-09-28_09h44.12.913,WP_VExplicitOC_HL,2022.2.5,Win32,144.1545337,6.859426603,2.7347,2.0004,NA,NA,NA,NA,NA,bored,"bored, not bored","more bored, less bored",NA,NA,NA,NA,NA,NA,NA,NA,NA,NA,NA,NA,NA,NA,NA,NA,NA,NA,NA,NA,NA,NA,NA,NA,NA,NA,NA,NA,NA,NA,NA,NA,NA,NA,NA,NA,NA,NA,0,1,1,2,1,NA,NA,NA,NA,NA
SUPAMT87014,37M28K1J0WCHMQTNW73DXAJP2RGAJA,8818F4CD-561A-4EB8-9294-067C14B38A04,2023-09-28_09h44.12.913,WP_VExplicitOC_HL,2022.2.5,Win32,144.1545337,82.95114656,3.433,2.0003,NA,NA,NA,NA,NA,frustrated,"frustrated, not frustrated","more frustrated, less frustrated",NA,NA,NA,NA,NA,NA,NA,NA,NA,NA,NA,NA,NA,NA,NA,NA,NA,NA,NA,NA,NA,NA,NA,NA,NA,NA,NA,NA,NA,NA,NA,NA,NA,NA,NA,NA,NA,NA,0,2,2,1,1,NA,NA,NA,NA,NA
SUPAMT87014,37M28K1J0WCHMQTNW73DXAJP2RGAJA,8818F4CD-561A-4EB8-9294-067C14B38A04,2023-09-28_09h44.12.913,WP_VExplicitOC_HL,2022.2.5,Win32,144.1545337,NA,NA,NA,NA,NA,NA,NA,NA,NA,NA,NA,NA,NA,NA,NA,NA,NA,NA,NA,NA,NA,NA,NA,NA,NA,NA,NA,NA,NA,NA,NA,NA,NA,NA,NA,NA,NA,NA,NA,NA,NA,NA,NA,NA,NA,NA,NA,NA,NA,NA,NA,NA,NA,NA,1,0,1,0,1
SUPAMT87014,37M28K1J0WCHMQTNW73DXAJP2RGAJA,8818F4CD-561A-4EB8-9294-067C14B38A04,2023-09-28_09h44.12.913,WP_VExplicitOC_HL,2022.2.5,Win32,144.1545337,84.38685409,2.8376,2.0019,NA,NA,NA,NA,NA,happy,"unhappy, happy","less happy, more happy",NA,NA,NA,NA,NA,NA,NA,NA,NA,NA,NA,NA,NA,NA,NA,NA,NA,NA,NA,NA,NA,NA,NA,NA,NA,NA,NA,NA,NA,NA,NA,NA,NA,NA,NA,NA,NA,NA,0,0,0,0,1,NA,NA,NA,NA,NA
SUPAMT87014,37M28K1J0WCHMQTNW73DXAJP2RGAJA,8818F4CD-561A-4EB8-9294-067C14B38A04,2023-09-28_09h44.12.913,WP_VExplicitOC_HL,2022.2.5,Win32,144.1545337,17.22831992,4.4581,3.279,NA,NA,NA,NA,NA,bored,"bored, not bored","more bored, less bored",NA,NA,NA,NA,NA,NA,NA,NA,NA,NA,NA,NA,NA,NA,NA,NA,NA,NA,NA,NA,NA,NA,NA,NA,NA,NA,NA,NA,NA,NA,NA,NA,NA,NA,NA,NA,NA,NA,0,1,1,2,1,NA,NA,NA,NA,NA
SUPAMT87014,37M28K1J0WCHMQTNW73DXAJP2RGAJA,8818F4CD-561A-4EB8-9294-067C14B38A04,2023-09-28_09h44.12.913,WP_VExplicitOC_HL,2022.2.5,Win32,144.1545337,88.37488998,2.716,2.0069,NA,NA,NA,NA,NA,frustrated,"frustrated, not frustrated","more frustrated, less frustrated",NA,NA,NA,NA,NA,NA,NA,NA,NA,NA,NA,NA,NA,NA,NA,NA,NA,NA,NA,NA,NA,NA,NA,NA,NA,NA,NA,NA,NA,NA,NA,NA,NA,NA,NA,NA,NA,NA,0,2,2,1,1,NA,NA,NA,NA,NA
SUPAMT87014,37M28K1J0WCHMQTNW73DXAJP2RGAJA,8818F4CD-561A-4EB8-9294-067C14B38A04,2023-09-28_09h44.12.913,WP_VExplicitOC_HL,2022.2.5,Win32,144.1545337,NA,NA,NA,NA,NA,NA,NA,NA,NA,NA,NA,NA,NA,NA,NA,NA,NA,NA,NA,NA,NA,NA,NA,NA,NA,NA,NA,NA,NA,NA,NA,NA,NA,NA,NA,NA,NA,NA,NA,NA,NA,NA,NA,NA,NA,NA,NA,NA,NA,NA,NA,NA,NA,NA,2,0,2,0,1
SUPAMT87014,37M28K1J0WCHMQTNW73DXAJP2RGAJA,8818F4CD-561A-4EB8-9294-067C14B38A04,2023-09-28_09h44.12.913,WP_VExplicitOC_HL,2022.2.5,Win32,144.1545337,82.15353938,3.1585,2.0016,NA,NA,NA,NA,NA,happy,"unhappy, happy","less happy, more happy",NA,NA,NA,NA,NA,NA,NA,NA,NA,NA,NA,NA,NA,NA,NA,NA,NA,NA,NA,NA,NA,NA,NA,NA,NA,NA,NA,NA,NA,NA,NA,NA,NA,NA,NA,NA,NA,NA,0,0,0,0,1,NA,NA,NA,NA,NA
SUPAMT87014,37M28K1J0WCHMQTNW73DXAJP2RGAJA,8818F4CD-561A-4EB8-9294-067C14B38A04,2023-09-28_09h44.12.913,WP_VExplicitOC_HL,2022.2.5,Win32,144.1545337,20.57827981,2.4467,2.0003,NA,NA,NA,NA,NA,bored,"bored, not bored","more bored, less bored",NA,NA,NA,NA,NA,NA,NA,NA,NA,NA,NA,NA,NA,NA,NA,NA,NA,NA,NA,NA,NA,NA,NA,NA,NA,NA,NA,NA,NA,NA,NA,NA,NA,NA,NA,NA,NA,NA,0,1,1,2,1,NA,NA,NA,NA,NA
SUPAMT87014,37M28K1J0WCHMQTNW73DXAJP2RGAJA,8818F4CD-561A-4EB8-9294-067C14B38A04,2023-09-28_09h44.12.913,WP_VExplicitOC_HL,2022.2.5,Win32,144.1545337,87.09871362,2.9061,2.0001,NA,NA,NA,NA,NA,frustrated,"frustrated, not frustrated","more frustrated, less frustrated",NA,NA,NA,NA,NA,NA,NA,NA,NA,NA,NA,NA,NA,NA,NA,NA,NA,NA,NA,NA,NA,NA,NA,NA,NA,NA,NA,NA,NA,NA,NA,NA,NA,NA,NA,NA,NA,NA,0,2,2,1,1,NA,NA,NA,NA,NA
SUPAMT87014,37M28K1J0WCHMQTNW73DXAJP2RGAJA,8818F4CD-561A-4EB8-9294-067C14B38A04,2023-09-28_09h44.12.913,WP_VExplicitOC_HL,2022.2.5,Win32,144.1545337,NA,NA,NA,NA,NA,NA,NA,NA,NA,NA,NA,NA,NA,NA,NA,NA,NA,NA,NA,NA,NA,NA,NA,NA,NA,NA,NA,NA,NA,NA,NA,NA,NA,NA,NA,NA,NA,NA,NA,NA,NA,NA,NA,NA,NA,NA,NA,NA,NA,NA,NA,NA,NA,NA,3,0,3,0,1
SUPAMT87014,37M28K1J0WCHMQTNW73DXAJP2RGAJA,8818F4CD-561A-4EB8-9294-067C14B38A04,2023-09-28_09h44.12.913,WP_VExplicitOC_HL,2022.2.5,Win32,144.1545337,90.60818034,3.0604,2.0063,NA,NA,NA,NA,NA,happy,"unhappy, happy","less happy, more happy",NA,NA,NA,NA,NA,NA,NA,NA,NA,NA,NA,NA,NA,NA,NA,NA,NA,NA,NA,NA,NA,NA,NA,NA,NA,NA,NA,NA,NA,NA,NA,NA,NA,NA,NA,NA,NA,NA,0,0,0,0,1,NA,NA,NA,NA,NA
SUPAMT87014,37M28K1J0WCHMQTNW73DXAJP2RGAJA,8818F4CD-561A-4EB8-9294-067C14B38A04,2023-09-28_09h44.12.913,WP_VExplicitOC_HL,2022.2.5,Win32,144.1545337,82.31307055,4.2324,2.0001,NA,NA,NA,NA,NA,frustrated,"frustrated, not frustrated","more frustrated, less frustrated",NA,NA,NA,NA,NA,NA,NA,NA,NA,NA,NA,NA,NA,NA,NA,NA,NA,NA,NA,NA,NA,NA,NA,NA,NA,NA,NA,NA,NA,NA,NA,NA,NA,NA,NA,NA,NA,NA,0,1,1,1,1,NA,NA,NA,NA,NA
SUPAMT87014,37M28K1J0WCHMQTNW73DXAJP2RGAJA,8818F4CD-561A-4EB8-9294-067C14B38A04,2023-09-28_09h44.12.913,WP_VExplicitOC_HL,2022.2.5,Win32,144.1545337,32.70189432,2.5525,2.0002,NA,NA,NA,NA,NA,bored,"bored, not bored","more bored, less bored",NA,NA,NA,NA,NA,NA,NA,NA,NA,NA,NA,NA,NA,NA,NA,NA,NA,NA,NA,NA,NA,NA,NA,NA,NA,NA,NA,NA,NA,NA,NA,NA,NA,NA,NA,NA,NA,NA,0,2,2,2,1,NA,NA,NA,NA,NA
SUPAMT87014,37M28K1J0WCHMQTNW73DXAJP2RGAJA,8818F4CD-561A-4EB8-9294-067C14B38A04,2023-09-28_09h44.12.913,WP_VExplicitOC_HL,2022.2.5,Win32,144.1545337,NA,NA,NA,NA,NA,NA,NA,NA,NA,NA,NA,NA,NA,NA,NA,NA,NA,NA,NA,NA,NA,NA,NA,NA,NA,NA,NA,NA,NA,NA,NA,NA,NA,NA,NA,NA,NA,NA,NA,NA,NA,NA,NA,NA,NA,NA,NA,NA,NA,NA,NA,NA,NA,NA,4,0,4,0,1
SUPAMT87014,37M28K1J0WCHMQTNW73DXAJP2RGAJA,8818F4CD-561A-4EB8-9294-067C14B38A04,2023-09-28_09h44.12.913,WP_VExplicitOC_HL,2022.2.5,Win32,144.1545337,88.37488998,3.5993,2.0067,NA,NA,NA,NA,NA,frustrated,"frustrated, not frustrated","more frustrated, less frustrated",NA,NA,NA,NA,NA,NA,NA,NA,NA,NA,NA,NA,NA,NA,NA,NA,NA,NA,NA,NA,NA,NA,NA,NA,NA,NA,NA,NA,NA,NA,NA,NA,NA,NA,NA,NA,NA,NA,0,0,0,1,1,NA,NA,NA,NA,NA
SUPAMT87014,37M28K1J0WCHMQTNW73DXAJP2RGAJA,8818F4CD-561A-4EB8-9294-067C14B38A04,2023-09-28_09h44.12.913,WP_VExplicitOC_HL,2022.2.5,Win32,144.1545337,83.74875374,3.1413,2.0003,NA,NA,NA,NA,NA,happy,"unhappy, happy","less happy, more happy",NA,NA,NA,NA,NA,NA,NA,NA,NA,NA,NA,NA,NA,NA,NA,NA,NA,NA,NA,NA,NA,NA,NA,NA,NA,NA,NA,NA,NA,NA,NA,NA,NA,NA,NA,NA,NA,NA,0,1,1,0,1,NA,NA,NA,NA,NA
SUPAMT87014,37M28K1J0WCHMQTNW73DXAJP2RGAJA,8818F4CD-561A-4EB8-9294-067C14B38A04,2023-09-28_09h44.12.913,WP_VExplicitOC_HL,2022.2.5,Win32,144.1545337,1.276176354,2.3981,2.0003,NA,NA,NA,NA,NA,bored,"bored, not bored","more bored, less bored",NA,NA,NA,NA,NA,NA,NA,NA,NA,NA,NA,NA,NA,NA,NA,NA,NA,NA,NA,NA,NA,NA,NA,NA,NA,NA,NA,NA,NA,NA,NA,NA,NA,NA,NA,NA,NA,NA,0,2,2,2,1,NA,NA,NA,NA,NA
SUPAMT87014,37M28K1J0WCHMQTNW73DXAJP2RGAJA,8818F4CD-561A-4EB8-9294-067C14B38A04,2023-09-28_09h44.12.913,WP_VExplicitOC_HL,2022.2.5,Win32,144.1545337,NA,NA,NA,NA,NA,NA,NA,NA,NA,NA,NA,NA,NA,NA,NA,NA,NA,NA,NA,NA,NA,NA,NA,NA,NA,NA,NA,NA,NA,NA,NA,NA,NA,NA,NA,NA,NA,NA,NA,NA,NA,NA,NA,NA,NA,NA,NA,NA,NA,NA,NA,NA,NA,NA,5,0,5,0,1
SUPAMT87014,37M28K1J0WCHMQTNW73DXAJP2RGAJA,8818F4CD-561A-4EB8-9294-067C14B38A04,2023-09-28_09h44.12.913,WP_VExplicitOC_HL,2022.2.5,Win32,144.1545337,83.58924691,3.0563,2.0055,NA,NA,NA,NA,NA,happy,"unhappy, happy","less happy, more happy",NA,NA,NA,NA,NA,NA,NA,NA,NA,NA,NA,NA,NA,NA,NA,NA,NA,NA,NA,NA,NA,NA,NA,NA,NA,NA,NA,NA,NA,NA,NA,NA,NA,NA,NA,NA,NA,NA,0,0,0,0,1,NA,NA,NA,NA,NA
SUPAMT87014,37M28K1J0WCHMQTNW73DXAJP2RGAJA,8818F4CD-561A-4EB8-9294-067C14B38A04,2023-09-28_09h44.12.913,WP_VExplicitOC_HL,2022.2.5,Win32,144.1545337,-17.38783892,4.9683,2.724,NA,NA,NA,NA,NA,bored,"bored, not bored","more bored, less bored",NA,NA,NA,NA,NA,NA,NA,NA,NA,NA,NA,NA,NA,NA,NA,NA,NA,NA,NA,NA,NA,NA,NA,NA,NA,NA,NA,NA,NA,NA,NA,NA,NA,NA,NA,NA,NA,NA,0,1,1,2,1,NA,NA,NA,NA,NA
SUPAMT87014,37M28K1J0WCHMQTNW73DXAJP2RGAJA,8818F4CD-561A-4EB8-9294-067C14B38A04,2023-09-28_09h44.12.913,WP_VExplicitOC_HL,2022.2.5,Win32,144.1545337,86.62014445,3.2315,2.1404,NA,NA,NA,NA,NA,frustrated,"frustrated, not frustrated","more frustrated, less frustrated",NA,NA,NA,NA,NA,NA,NA,NA,NA,NA,NA,NA,NA,NA,NA,NA,NA,NA,NA,NA,NA,NA,NA,NA,NA,NA,NA,NA,NA,NA,NA,NA,NA,NA,NA,NA,NA,NA,0,2,2,1,1,NA,NA,NA,NA,NA
SUPAMT87014,37M28K1J0WCHMQTNW73DXAJP2RGAJA,8818F4CD-561A-4EB8-9294-067C14B38A04,2023-09-28_09h44.12.913,WP_VExplicitOC_HL,2022.2.5,Win32,144.1545337,NA,NA,NA,NA,NA,NA,NA,NA,NA,NA,NA,NA,NA,NA,NA,NA,NA,NA,NA,NA,NA,NA,NA,NA,NA,NA,NA,NA,NA,NA,NA,NA,NA,NA,NA,NA,NA,NA,NA,NA,NA,NA,NA,NA,NA,NA,NA,NA,NA,NA,NA,NA,NA,NA,6,0,6,0,1
SUPAMT87014,37M28K1J0WCHMQTNW73DXAJP2RGAJA,8818F4CD-561A-4EB8-9294-067C14B38A04,2023-09-28_09h44.12.913,WP_VExplicitOC_HL,2022.2.5,Win32,144.1545337,84.38685409,3.4241,2.3855,NA,NA,NA,NA,NA,happy,"unhappy, happy","less happy, more happy",NA,NA,NA,NA,NA,NA,NA,NA,NA,NA,NA,NA,NA,NA,NA,NA,NA,NA,NA,NA,NA,NA,NA,NA,NA,NA,NA,NA,NA,NA,NA,NA,NA,NA,NA,NA,NA,NA,0,0,0,0,1,NA,NA,NA,NA,NA
SUPAMT87014,37M28K1J0WCHMQTNW73DXAJP2RGAJA,8818F4CD-561A-4EB8-9294-067C14B38A04,2023-09-28_09h44.12.913,WP_VExplicitOC_HL,2022.2.5,Win32,144.1545337,-21.05682464,2.8113,2.0001,NA,NA,NA,NA,NA,bored,"bored, not bored","more bored, less bored",NA,NA,NA,NA,NA,NA,NA,NA,NA,NA,NA,NA,NA,NA,NA,NA,NA,NA,NA,NA,NA,NA,NA,NA,NA,NA,NA,NA,NA,NA,NA,NA,NA,NA,NA,NA,NA,NA,0,1,1,2,1,NA,NA,NA,NA,NA
SUPAMT87014,37M28K1J0WCHMQTNW73DXAJP2RGAJA,8818F4CD-561A-4EB8-9294-067C14B38A04,2023-09-28_09h44.12.913,WP_VExplicitOC_HL,2022.2.5,Win32,144.1545337,82.31307055,3.4271,2.4066,NA,NA,NA,NA,NA,frustrated,"frustrated, not frustrated","more frustrated, less frustrated",NA,NA,NA,NA,NA,NA,NA,NA,NA,NA,NA,NA,NA,NA,NA,NA,NA,NA,NA,NA,NA,NA,NA,NA,NA,NA,NA,NA,NA,NA,NA,NA,NA,NA,NA,NA,NA,NA,0,2,2,1,1,NA,NA,NA,NA,NA
SUPAMT87014,37M28K1J0WCHMQTNW73DXAJP2RGAJA,8818F4CD-561A-4EB8-9294-067C14B38A04,2023-09-28_09h44.12.913,WP_VExplicitOC_HL,2022.2.5,Win32,144.1545337,NA,NA,NA,NA,NA,NA,NA,NA,NA,NA,NA,NA,NA,NA,NA,NA,NA,NA,NA,NA,NA,NA,NA,NA,NA,NA,NA,NA,NA,NA,NA,NA,NA,NA,NA,NA,NA,NA,NA,NA,NA,NA,NA,NA,NA,NA,NA,NA,NA,NA,NA,NA,NA,NA,7,0,7,0,1
SUPAMT87014,37M28K1J0WCHMQTNW73DXAJP2RGAJA,8818F4CD-561A-4EB8-9294-067C14B38A04,2023-09-28_09h44.12.913,WP_VExplicitOC_HL,2022.2.5,Win32,144.1545337,89.01296598,2.6939,2.0045,NA,NA,NA,NA,NA,frustrated,"frustrated, not frustrated","more frustrated, less frustrated",NA,NA,NA,NA,NA,NA,NA,NA,NA,NA,NA,NA,NA,NA,NA,NA,NA,NA,NA,NA,NA,NA,NA,NA,NA,NA,NA,NA,NA,NA,NA,NA,NA,NA,NA,NA,NA,NA,0,0,0,1,1,NA,NA,NA,NA,NA
SUPAMT87014,37M28K1J0WCHMQTNW73DXAJP2RGAJA,8818F4CD-561A-4EB8-9294-067C14B38A04,2023-09-28_09h44.12.913,WP_VExplicitOC_HL,2022.2.5,Win32,144.1545337,-45.62312817,2.5307,2.0003,NA,NA,NA,NA,NA,bored,"bored, not bored","more bored, less bored",NA,NA,NA,NA,NA,NA,NA,NA,NA,NA,NA,NA,NA,NA,NA,NA,NA,NA,NA,NA,NA,NA,NA,NA,NA,NA,NA,NA,NA,NA,NA,NA,NA,NA,NA,NA,NA,NA,0,1,1,2,1,NA,NA,NA,NA,NA
SUPAMT87014,37M28K1J0WCHMQTNW73DXAJP2RGAJA,8818F4CD-561A-4EB8-9294-067C14B38A04,2023-09-28_09h44.12.913,WP_VExplicitOC_HL,2022.2.5,Win32,144.1545337,59.82053838,2.3357,2.0003,NA,NA,NA,NA,NA,happy,"unhappy, happy","less happy, more happy",NA,NA,NA,NA,NA,NA,NA,NA,NA,NA,NA,NA,NA,NA,NA,NA,NA,NA,NA,NA,NA,NA,NA,NA,NA,NA,NA,NA,NA,NA,NA,NA,NA,NA,NA,NA,NA,NA,0,2,2,0,1,NA,NA,NA,NA,NA
SUPAMT87014,37M28K1J0WCHMQTNW73DXAJP2RGAJA,8818F4CD-561A-4EB8-9294-067C14B38A04,2023-09-28_09h44.12.913,WP_VExplicitOC_HL,2022.2.5,Win32,144.1545337,NA,NA,NA,NA,NA,NA,NA,NA,NA,NA,NA,NA,NA,NA,NA,NA,NA,NA,NA,NA,NA,NA,NA,NA,NA,NA,NA,NA,NA,NA,NA,NA,NA,NA,NA,NA,NA,NA,NA,NA,NA,NA,NA,NA,NA,NA,NA,NA,NA,NA,NA,NA,NA,NA,8,0,8,0,1
SUPAMT87014,37M28K1J0WCHMQTNW73DXAJP2RGAJA,8818F4CD-561A-4EB8-9294-067C14B38A04,2023-09-28_09h44.12.913,WP_VExplicitOC_HL,2022.2.5,Win32,144.1545337,83.58924691,4.6958,3.1829,NA,NA,NA,NA,NA,happy,"unhappy, happy","less happy, more happy",NA,NA,NA,NA,NA,NA,NA,NA,NA,NA,NA,NA,NA,NA,NA,NA,NA,NA,NA,NA,NA,NA,NA,NA,NA,NA,NA,NA,NA,NA,NA,NA,NA,NA,NA,NA,NA,NA,0,0,0,0,1,NA,NA,NA,NA,NA
SUPAMT87014,37M28K1J0WCHMQTNW73DXAJP2RGAJA,8818F4CD-561A-4EB8-9294-067C14B38A04,2023-09-28_09h44.12.913,WP_VExplicitOC_HL,2022.2.5,Win32,144.1545337,NA,NA,5.4096,NA,NA,NA,NA,NA,frustrated,"frustrated, not frustrated","more frustrated, less frustrated",NA,NA,NA,NA,NA,NA,NA,NA,NA,NA,NA,NA,NA,NA,NA,NA,NA,NA,NA,NA,NA,NA,NA,NA,NA,NA,NA,NA,NA,NA,NA,NA,NA,NA,NA,NA,NA,NA,0,1,1,1,1,NA,NA,NA,NA,NA
SUPAMT87014,37M28K1J0WCHMQTNW73DXAJP2RGAJA,8818F4CD-561A-4EB8-9294-067C14B38A04,2023-09-28_09h44.12.913,WP_VExplicitOC_HL,2022.2.5,Win32,144.1545337,-53.91823796,2.773,2.0047,NA,NA,NA,NA,NA,bored,"bored, not bored","more bored, less bored",NA,NA,NA,NA,NA,NA,NA,NA,NA,NA,NA,NA,NA,NA,NA,NA,NA,NA,NA,NA,NA,NA,NA,NA,NA,NA,NA,NA,NA,NA,NA,NA,NA,NA,NA,NA,NA,NA,0,2,2,2,1,NA,NA,NA,NA,NA
SUPAMT87014,37M28K1J0WCHMQTNW73DXAJP2RGAJA,8818F4CD-561A-4EB8-9294-067C14B38A04,2023-09-28_09h44.12.913,WP_VExplicitOC_HL,2022.2.5,Win32,144.1545337,NA,NA,NA,NA,NA,NA,NA,NA,NA,NA,NA,NA,NA,NA,NA,NA,NA,NA,NA,NA,NA,NA,NA,NA,NA,NA,NA,NA,NA,NA,NA,NA,NA,NA,NA,NA,NA,NA,NA,NA,NA,NA,NA,NA,NA,NA,NA,NA,NA,NA,NA,NA,NA,NA,9,0,9,0,1
SUPAMT87014,37M28K1J0WCHMQTNW73DXAJP2RGAJA,8818F4CD-561A-4EB8-9294-067C14B38A04,2023-09-28_09h44.12.913,WP_VExplicitOC_HL,2022.2.5,Win32,144.1545337,86.14157527,3.2824,2.2031,NA,NA,NA,NA,NA,happy,"unhappy, happy","less happy, more happy",NA,NA,NA,NA,NA,NA,NA,NA,NA,NA,NA,NA,NA,NA,NA,NA,NA,NA,NA,NA,NA,NA,NA,NA,NA,NA,NA,NA,NA,NA,NA,NA,NA,NA,NA,NA,NA,NA,0,0,0,0,1,NA,NA,NA,NA,NA
SUPAMT87014,37M28K1J0WCHMQTNW73DXAJP2RGAJA,8818F4CD-561A-4EB8-9294-067C14B38A04,2023-09-28_09h44.12.913,WP_VExplicitOC_HL,2022.2.5,Win32,144.1545337,-65.08473846,4.4766,3.0592,NA,NA,NA,NA,NA,bored,"bored, not bored","more bored, less bored",NA,NA,NA,NA,NA,NA,NA,NA,NA,NA,NA,NA,NA,NA,NA,NA,NA,NA,NA,NA,NA,NA,NA,NA,NA,NA,NA,NA,NA,NA,NA,NA,NA,NA,NA,NA,NA,NA,0,1,1,2,1,NA,NA,NA,NA,NA
SUPAMT87014,37M28K1J0WCHMQTNW73DXAJP2RGAJA,8818F4CD-561A-4EB8-9294-067C14B38A04,2023-09-28_09h44.12.913,WP_VExplicitOC_HL,2022.2.5,Win32,144.1545337,66.04188898,4.0662,2.6356,NA,NA,NA,NA,NA,frustrated,"frustrated, not frustrated","more frustrated, less frustrated",NA,NA,NA,NA,NA,NA,NA,NA,NA,NA,NA,NA,NA,NA,NA,NA,NA,NA,NA,NA,NA,NA,NA,NA,NA,NA,NA,NA,NA,NA,NA,NA,NA,NA,NA,NA,NA,NA,0,2,2,1,1,NA,NA,NA,NA,NA
SUPAMT87014,37M28K1J0WCHMQTNW73DXAJP2RGAJA,8818F4CD-561A-4EB8-9294-067C14B38A04,2023-09-28_09h44.12.913,WP_VExplicitOC_HL,2022.2.5,Win32,144.1545337,NA,NA,NA,NA,NA,NA,NA,NA,NA,NA,NA,NA,NA,NA,NA,NA,NA,NA,NA,NA,NA,NA,NA,NA,NA,NA,NA,NA,NA,NA,NA,NA,NA,NA,NA,NA,NA,NA,NA,NA,NA,NA,NA,NA,NA,NA,NA,NA,NA,NA,NA,NA,NA,NA,10,0,10,0,1
SUPAMT87014,37M28K1J0WCHMQTNW73DXAJP2RGAJA,8818F4CD-561A-4EB8-9294-067C14B38A04,2023-09-28_09h44.12.913,WP_VExplicitOC_HL,2022.2.5,Win32,144.1545337,-56.63010967,2.7546,2.0003,NA,NA,NA,NA,NA,bored,"bored, not bored","more bored, less bored",NA,NA,NA,NA,NA,NA,NA,NA,NA,NA,NA,NA,NA,NA,NA,NA,NA,NA,NA,NA,NA,NA,NA,NA,NA,NA,NA,NA,NA,NA,NA,NA,NA,NA,NA,NA,NA,NA,0,0,0,2,1,NA,NA,NA,NA,NA
SUPAMT87014,37M28K1J0WCHMQTNW73DXAJP2RGAJA,8818F4CD-561A-4EB8-9294-067C14B38A04,2023-09-28_09h44.12.913,WP_VExplicitOC_HL,2022.2.5,Win32,144.1545337,87.41775163,2.9289,2,NA,NA,NA,NA,NA,frustrated,"frustrated, not frustrated","more frustrated, less frustrated",NA,NA,NA,NA,NA,NA,NA,NA,NA,NA,NA,NA,NA,NA,NA,NA,NA,NA,NA,NA,NA,NA,NA,NA,NA,NA,NA,NA,NA,NA,NA,NA,NA,NA,NA,NA,NA,NA,0,1,1,1,1,NA,NA,NA,NA,NA
SUPAMT87014,37M28K1J0WCHMQTNW73DXAJP2RGAJA,8818F4CD-561A-4EB8-9294-067C14B38A04,2023-09-28_09h44.12.913,WP_VExplicitOC_HL,2022.2.5,Win32,144.1545337,72.90129124,2.8359,2.0004,NA,NA,NA,NA,NA,happy,"unhappy, happy","less happy, more happy",NA,NA,NA,NA,NA,NA,NA,NA,NA,NA,NA,NA,NA,NA,NA,NA,NA,NA,NA,NA,NA,NA,NA,NA,NA,NA,NA,NA,NA,NA,NA,NA,NA,NA,NA,NA,NA,NA,0,2,2,0,1,NA,NA,NA,NA,NA
SUPAMT87014,37M28K1J0WCHMQTNW73DXAJP2RGAJA,8818F4CD-561A-4EB8-9294-067C14B38A04,2023-09-28_09h44.12.913,WP_VExplicitOC_HL,2022.2.5,Win32,144.1545337,NA,NA,NA,NA,NA,NA,NA,NA,NA,NA,NA,NA,NA,NA,NA,NA,NA,NA,NA,NA,NA,NA,NA,NA,NA,NA,NA,NA,NA,NA,NA,NA,NA,NA,NA,NA,NA,NA,NA,NA,NA,NA,NA,NA,NA,NA,NA,NA,NA,NA,NA,NA,NA,NA,11,0,11,0,1
SUPAMT87014,37M28K1J0WCHMQTNW73DXAJP2RGAJA,8818F4CD-561A-4EB8-9294-067C14B38A04,2023-09-28_09h44.12.913,WP_VExplicitOC_HL,2022.2.5,Win32,144.1545337,-42.27318046,4.3461,2.004,NA,NA,NA,NA,NA,bored,"bored, not bored","more bored, less bored",NA,NA,NA,NA,NA,NA,NA,NA,NA,NA,NA,NA,NA,NA,NA,NA,NA,NA,NA,NA,NA,NA,NA,NA,NA,NA,NA,NA,NA,NA,NA,NA,NA,NA,NA,NA,NA,NA,0,0,0,2,1,NA,NA,NA,NA,NA
SUPAMT87014,37M28K1J0WCHMQTNW73DXAJP2RGAJA,8818F4CD-561A-4EB8-9294-067C14B38A04,2023-09-28_09h44.12.913,WP_VExplicitOC_HL,2022.2.5,Win32,144.1545337,87.09871362,3.461,2.0002,NA,NA,NA,NA,NA,frustrated,"frustrated, not frustrated","more frustrated, less frustrated",NA,NA,NA,NA,NA,NA,NA,NA,NA,NA,NA,NA,NA,NA,NA,NA,NA,NA,NA,NA,NA,NA,NA,NA,NA,NA,NA,NA,NA,NA,NA,NA,NA,NA,NA,NA,NA,NA,0,1,1,1,1,NA,NA,NA,NA,NA
SUPAMT87014,37M28K1J0WCHMQTNW73DXAJP2RGAJA,8818F4CD-561A-4EB8-9294-067C14B38A04,2023-09-28_09h44.12.913,WP_VExplicitOC_HL,2022.2.5,Win32,144.1545337,84.70589209,2.9955,2.0003,NA,NA,NA,NA,NA,happy,"unhappy, happy","less happy, more happy",NA,NA,NA,NA,NA,NA,NA,NA,NA,NA,NA,NA,NA,NA,NA,NA,NA,NA,NA,NA,NA,NA,NA,NA,NA,NA,NA,NA,NA,NA,NA,NA,NA,NA,NA,NA,NA,NA,0,2,2,0,1,NA,NA,NA,NA,NA
SUPAMT87014,37M28K1J0WCHMQTNW73DXAJP2RGAJA,8818F4CD-561A-4EB8-9294-067C14B38A04,2023-09-28_09h44.12.913,WP_VExplicitOC_HL,2022.2.5,Win32,144.1545337,NA,NA,NA,NA,NA,NA,NA,NA,NA,NA,NA,NA,NA,NA,NA,NA,NA,NA,NA,NA,NA,NA,NA,NA,NA,NA,NA,NA,NA,NA,NA,NA,NA,NA,NA,NA,NA,NA,NA,NA,NA,NA,NA,NA,NA,NA,NA,NA,NA,NA,NA,NA,NA,NA,12,0,12,0,1
SUPAMT87014,37M28K1J0WCHMQTNW73DXAJP2RGAJA,8818F4CD-561A-4EB8-9294-067C14B38A04,2023-09-28_09h44.12.913,WP_VExplicitOC_HL,2022.2.5,Win32,144.1545337,-36.37088004,3.9974,2.0055,NA,NA,NA,NA,NA,bored,"bored, not bored","more bored, less bored",NA,NA,NA,NA,NA,NA,NA,NA,NA,NA,NA,NA,NA,NA,NA,NA,NA,NA,NA,NA,NA,NA,NA,NA,NA,NA,NA,NA,NA,NA,NA,NA,NA,NA,NA,NA,NA,NA,0,0,0,2,1,NA,NA,NA,NA,NA
SUPAMT87014,37M28K1J0WCHMQTNW73DXAJP2RGAJA,8818F4CD-561A-4EB8-9294-067C14B38A04,2023-09-28_09h44.12.913,WP_VExplicitOC_HL,2022.2.5,Win32,144.1545337,84.86539892,3.0679,2.0002,NA,NA,NA,NA,NA,happy,"unhappy, happy","less happy, more happy",NA,NA,NA,NA,NA,NA,NA,NA,NA,NA,NA,NA,NA,NA,NA,NA,NA,NA,NA,NA,NA,NA,NA,NA,NA,NA,NA,NA,NA,NA,NA,NA,NA,NA,NA,NA,NA,NA,0,1,1,0,1,NA,NA,NA,NA,NA
SUPAMT87014,37M28K1J0WCHMQTNW73DXAJP2RGAJA,8818F4CD-561A-4EB8-9294-067C14B38A04,2023-09-28_09h44.12.913,WP_VExplicitOC_HL,2022.2.5,Win32,144.1545337,81.3559322,2.6414,2.0001,NA,NA,NA,NA,NA,frustrated,"frustrated, not frustrated","more frustrated, less frustrated",NA,NA,NA,NA,NA,NA,NA,NA,NA,NA,NA,NA,NA,NA,NA,NA,NA,NA,NA,NA,NA,NA,NA,NA,NA,NA,NA,NA,NA,NA,NA,NA,NA,NA,NA,NA,NA,NA,0,2,2,1,1,NA,NA,NA,NA,NA
SUPAMT87014,37M28K1J0WCHMQTNW73DXAJP2RGAJA,8818F4CD-561A-4EB8-9294-067C14B38A04,2023-09-28_09h44.12.913,WP_VExplicitOC_HL,2022.2.5,Win32,144.1545337,NA,NA,NA,NA,NA,NA,NA,NA,NA,NA,NA,NA,NA,NA,NA,NA,NA,NA,NA,NA,NA,NA,NA,NA,NA,NA,NA,NA,NA,NA,NA,NA,NA,NA,NA,NA,NA,NA,NA,NA,NA,NA,NA,NA,NA,NA,NA,NA,NA,NA,NA,NA,NA,NA,13,0,13,0,1
SUPAMT87014,37M28K1J0WCHMQTNW73DXAJP2RGAJA,8818F4CD-561A-4EB8-9294-067C14B38A04,2023-09-28_09h44.12.913,WP_VExplicitOC_HL,2022.2.5,Win32,144.1545337,76.88932714,3.3312,2.0056,NA,NA,NA,NA,NA,frustrated,"frustrated, not frustrated","more frustrated, less frustrated",NA,NA,NA,NA,NA,NA,NA,NA,NA,NA,NA,NA,NA,NA,NA,NA,NA,NA,NA,NA,NA,NA,NA,NA,NA,NA,NA,NA,NA,NA,NA,NA,NA,NA,NA,NA,NA,NA,0,0,0,1,1,NA,NA,NA,NA,NA
SUPAMT87014,37M28K1J0WCHMQTNW73DXAJP2RGAJA,8818F4CD-561A-4EB8-9294-067C14B38A04,2023-09-28_09h44.12.913,WP_VExplicitOC_HL,2022.2.5,Win32,144.1545337,-32.38284414,2.6537,2.0067,NA,NA,NA,NA,NA,bored,"bored, not bored","more bored, less bored",NA,NA,NA,NA,NA,NA,NA,NA,NA,NA,NA,NA,NA,NA,NA,NA,NA,NA,NA,NA,NA,NA,NA,NA,NA,NA,NA,NA,NA,NA,NA,NA,NA,NA,NA,NA,NA,NA,0,1,1,2,1,NA,NA,NA,NA,NA
SUPAMT87014,37M28K1J0WCHMQTNW73DXAJP2RGAJA,8818F4CD-561A-4EB8-9294-067C14B38A04,2023-09-28_09h44.12.913,WP_VExplicitOC_HL,2022.2.5,Win32,144.1545337,85.98206844,3.0744,2.0002,NA,NA,NA,NA,NA,happy,"unhappy, happy","less happy, more happy",NA,NA,NA,NA,NA,NA,NA,NA,NA,NA,NA,NA,NA,NA,NA,NA,NA,NA,NA,NA,NA,NA,NA,NA,NA,NA,NA,NA,NA,NA,NA,NA,NA,NA,NA,NA,NA,NA,0,2,2,0,1,NA,NA,NA,NA,NA
SUPAMT87014,37M28K1J0WCHMQTNW73DXAJP2RGAJA,8818F4CD-561A-4EB8-9294-067C14B38A04,2023-09-28_09h44.12.913,WP_VExplicitOC_HL,2022.2.5,Win32,144.1545337,NA,NA,NA,NA,NA,NA,NA,NA,NA,NA,NA,NA,NA,NA,NA,NA,NA,NA,NA,NA,NA,NA,NA,NA,NA,NA,NA,NA,NA,NA,NA,NA,NA,NA,NA,NA,NA,NA,NA,NA,NA,NA,NA,NA,NA,NA,NA,NA,NA,NA,NA,NA,NA,NA,14,0,14,0,1
SUPAMT87014,37M28K1J0WCHMQTNW73DXAJP2RGAJA,8818F4CD-561A-4EB8-9294-067C14B38A04,2023-09-28_09h44.12.913,WP_VExplicitOC_HL,2022.2.5,Win32,144.1545337,NA,NA,NA,NA,NA,NA,NA,NA,NA,NA,NA,NA,NA,NA,NA,NA,NA,NA,NA,NA,NA,NA,NA,NA,NA,NA,NA,NA,NA,NA,NA,NA,NA,NA,NA,NA,NA,NA,NA,NA,NA,NA,NA,NA,NA,NA,NA,NA,NA,NA,NA,NA,NA,NA,NA,NA,NA,NA,NA
