participant,session,completion,date,expName,psychopyVersion,OS,frameRate,rating_all.response,rating_all.rt,rating_all.tStart,rndRat1.thisRepN,rndRat1.thisTrialN,rndRat1.thisN,rndRat1.thisIndex,rndRat1.ran,Emo,Labs,Labs2,rating_alt.response,rating_alt.rt,AltC.thisRepN,AltC.thisTrialN,AltC.thisN,AltC.thisIndex,AltC.ran,alt_choices,pic_choices,BottomAlt_Choice,rndRat2.thisRepN,rndRat2.thisTrialN,rndRat2.thisN,rndRat2.thisIndex,rndRat2.ran,rndRat3.thisRepN,rndRat3.thisTrialN,rndRat3.thisN,rndRat3.thisIndex,rndRat3.ran,trials_FC_L.thisRepN,trials_FC_L.thisTrialN,trials_FC_L.thisN,trials_FC_L.thisIndex,trials_FC_L.ran,rating_alt_2.response,rating_alt_2.rt,AltC2.thisRepN,AltC2.thisTrialN,AltC2.thisN,AltC2.thisIndex,AltC2.ran,TopAlt_Choice,rndRat4.thisRepN,rndRat4.thisTrialN,rndRat4.thisN,rndRat4.thisIndex,rndRat4.ran,rndRat5.thisRepN,rndRat5.thisTrialN,rndRat5.thisN,rndRat5.thisIndex,rndRat5.ran,trials_FC_H.thisRepN,trials_FC_H.thisTrialN,trials_FC_H.thisN,trials_FC_H.thisIndex,trials_FC_H.ran
SUPAMT24909,3KRVW3HTZTKBNUL2G42WY25CS0MSME,E91CD671-4054-4C06-BF7F-BDD9DE1EC737,2023-09-29_15h49.06.921,WP_VExplicitOC_LH,2022.2.5,Win32,59.95203837,NA,NA,NA,NA,NA,NA,NA,NA,NA,NA,NA,NA,NA,NA,NA,NA,NA,NA,NA,NA,NA,NA,NA,NA,NA,NA,NA,NA,NA,NA,NA,NA,NA,NA,NA,NA,NA,NA,NA,NA,NA,NA,NA,NA,NA,NA,NA,NA,NA,NA,NA,NA,NA,NA,NA,NA,NA,NA,NA
SUPAMT24909,3KRVW3HTZTKBNUL2G42WY25CS0MSME,E91CD671-4054-4C06-BF7F-BDD9DE1EC737,2023-09-29_15h49.06.921,WP_VExplicitOC_LH,2022.2.5,Win32,59.95203837,NA,NA,NA,NA,NA,NA,NA,NA,NA,NA,NA,NA,NA,NA,NA,NA,NA,NA,NA,NA,NA,NA,NA,NA,NA,NA,NA,NA,NA,NA,NA,NA,NA,NA,NA,NA,NA,NA,NA,NA,NA,NA,NA,NA,NA,NA,NA,NA,NA,NA,NA,NA,NA,NA,NA,NA,NA,NA,NA
SUPAMT24909,3KRVW3HTZTKBNUL2G42WY25CS0MSME,E91CD671-4054-4C06-BF7F-BDD9DE1EC737,2023-09-29_15h49.06.921,WP_VExplicitOC_LH,2022.2.5,Win32,59.95203837,NA,NA,NA,NA,NA,NA,NA,NA,NA,NA,NA,NA,NA,NA,NA,NA,NA,NA,NA,NA,NA,NA,NA,NA,NA,NA,NA,NA,NA,NA,NA,NA,NA,NA,NA,NA,NA,NA,NA,NA,NA,NA,NA,NA,NA,NA,NA,NA,NA,NA,NA,NA,NA,NA,NA,NA,NA,NA,NA
SUPAMT24909,3KRVW3HTZTKBNUL2G42WY25CS0MSME,E91CD671-4054-4C06-BF7F-BDD9DE1EC737,2023-09-29_15h49.06.921,WP_VExplicitOC_LH,2022.2.5,Win32,59.95203837,-43.7037037,4.3244,2.0095,0,0,0,1,1,frustrated,"frustrated, not frustrated","more frustrated, less frustrated",NA,NA,NA,NA,NA,NA,NA,NA,NA,NA,NA,NA,NA,NA,NA,NA,NA,NA,NA,NA,NA,NA,NA,NA,NA,NA,NA,NA,NA,NA,NA,NA,NA,NA,NA,NA,NA,NA,NA,NA,NA,NA,NA,NA,NA,NA,NA,NA
SUPAMT24909,3KRVW3HTZTKBNUL2G42WY25CS0MSME,E91CD671-4054-4C06-BF7F-BDD9DE1EC737,2023-09-29_15h49.06.921,WP_VExplicitOC_LH,2022.2.5,Win32,59.95203837,31.66666667,2.7843,2.016,0,1,1,2,1,bored,"bored, not bored","more bored, less bored",NA,NA,NA,NA,NA,NA,NA,NA,NA,NA,NA,NA,NA,NA,NA,NA,NA,NA,NA,NA,NA,NA,NA,NA,NA,NA,NA,NA,NA,NA,NA,NA,NA,NA,NA,NA,NA,NA,NA,NA,NA,NA,NA,NA,NA,NA,NA,NA
SUPAMT24909,3KRVW3HTZTKBNUL2G42WY25CS0MSME,E91CD671-4054-4C06-BF7F-BDD9DE1EC737,2023-09-29_15h49.06.921,WP_VExplicitOC_LH,2022.2.5,Win32,59.95203837,26.85185185,2.498,2.0157,0,2,2,0,1,happy,"unhappy, happy","less happy, more happy",NA,NA,NA,NA,NA,NA,NA,NA,NA,NA,NA,NA,NA,NA,NA,NA,NA,NA,NA,NA,NA,NA,NA,NA,NA,NA,NA,NA,NA,NA,NA,NA,NA,NA,NA,NA,NA,NA,NA,NA,NA,NA,NA,NA,NA,NA,NA,NA
SUPAMT24909,3KRVW3HTZTKBNUL2G42WY25CS0MSME,E91CD671-4054-4C06-BF7F-BDD9DE1EC737,2023-09-29_15h49.06.921,WP_VExplicitOC_LH,2022.2.5,Win32,59.95203837,NA,NA,NA,NA,NA,NA,NA,NA,NA,NA,NA,NA,NA,NA,NA,NA,NA,NA,NA,NA,NA,NA,NA,NA,NA,NA,NA,NA,NA,NA,NA,NA,NA,NA,NA,NA,NA,NA,NA,NA,NA,NA,NA,NA,NA,NA,NA,NA,NA,NA,NA,NA,NA,NA,NA,NA,NA,NA,NA
SUPAMT24909,3KRVW3HTZTKBNUL2G42WY25CS0MSME,E91CD671-4054-4C06-BF7F-BDD9DE1EC737,2023-09-29_15h49.06.921,WP_VExplicitOC_LH,2022.2.5,Win32,59.95203837,NA,NA,NA,NA,NA,NA,NA,NA,NA,NA,NA,NA,NA,NA,NA,NA,NA,NA,NA,NA,NA,NA,NA,NA,NA,NA,NA,NA,NA,NA,NA,NA,NA,NA,NA,NA,NA,NA,NA,NA,NA,NA,NA,NA,NA,NA,NA,NA,NA,NA,NA,NA,NA,NA,NA,NA,NA,NA,NA
SUPAMT24909,3KRVW3HTZTKBNUL2G42WY25CS0MSME,E91CD671-4054-4C06-BF7F-BDD9DE1EC737,2023-09-29_15h49.06.921,WP_VExplicitOC_LH,2022.2.5,Win32,59.95203837,NA,NA,NA,NA,NA,NA,NA,NA,NA,NA,NA,NA,NA,NA,NA,NA,NA,NA,NA,NA,NA,NA,NA,NA,NA,NA,NA,NA,NA,NA,NA,NA,NA,NA,NA,NA,NA,NA,NA,NA,NA,NA,NA,NA,NA,NA,NA,NA,NA,NA,NA,NA,NA,NA,NA,NA,NA,NA,NA
SUPAMT24909,3KRVW3HTZTKBNUL2G42WY25CS0MSME,E91CD671-4054-4C06-BF7F-BDD9DE1EC737,2023-09-29_15h49.06.921,WP_VExplicitOC_LH,2022.2.5,Win32,59.95203837,NA,NA,NA,NA,NA,NA,NA,NA,NA,NA,NA,NA,NA,NA,NA,NA,NA,NA,NA,NA,NA,NA,NA,NA,NA,NA,NA,NA,NA,NA,NA,NA,NA,NA,NA,NA,NA,NA,NA,NA,NA,NA,NA,NA,NA,NA,NA,NA,NA,NA,NA,NA,NA,NA,NA,NA,NA,NA,NA
SUPAMT24909,3KRVW3HTZTKBNUL2G42WY25CS0MSME,E91CD671-4054-4C06-BF7F-BDD9DE1EC737,2023-09-29_15h49.06.921,WP_VExplicitOC_LH,2022.2.5,Win32,59.95203837,NA,NA,NA,NA,NA,NA,NA,NA,NA,NA,NA,52.96296296,2.9171,0,0,0,0,1,rest (looking at a fixed cross),001.png,NA,NA,NA,NA,NA,NA,NA,NA,NA,NA,NA,NA,NA,NA,NA,NA,NA,NA,NA,NA,NA,NA,NA,NA,NA,NA,NA,NA,NA,NA,NA,NA,NA,NA,NA,NA,NA,NA,NA
SUPAMT24909,3KRVW3HTZTKBNUL2G42WY25CS0MSME,E91CD671-4054-4C06-BF7F-BDD9DE1EC737,2023-09-29_15h49.06.921,WP_VExplicitOC_LH,2022.2.5,Win32,59.95203837,NA,NA,NA,NA,NA,NA,NA,NA,NA,NA,NA,-27.77777778,1.57,0,1,1,1,1,stand up,002.png,NA,NA,NA,NA,NA,NA,NA,NA,NA,NA,NA,NA,NA,NA,NA,NA,NA,NA,NA,NA,NA,NA,NA,NA,NA,NA,NA,NA,NA,NA,NA,NA,NA,NA,NA,NA,NA,NA,NA
SUPAMT24909,3KRVW3HTZTKBNUL2G42WY25CS0MSME,E91CD671-4054-4C06-BF7F-BDD9DE1EC737,2023-09-29_15h49.06.921,WP_VExplicitOC_LH,2022.2.5,Win32,59.95203837,NA,NA,NA,NA,NA,NA,NA,NA,NA,NA,NA,26.66666667,1.1945,0,2,2,2,1,stretch,003.png,NA,NA,NA,NA,NA,NA,NA,NA,NA,NA,NA,NA,NA,NA,NA,NA,NA,NA,NA,NA,NA,NA,NA,NA,NA,NA,NA,NA,NA,NA,NA,NA,NA,NA,NA,NA,NA,NA,NA
SUPAMT24909,3KRVW3HTZTKBNUL2G42WY25CS0MSME,E91CD671-4054-4C06-BF7F-BDD9DE1EC737,2023-09-29_15h49.06.921,WP_VExplicitOC_LH,2022.2.5,Win32,59.95203837,NA,NA,NA,NA,NA,NA,NA,NA,NA,NA,NA,29.44444444,1.6681,0,3,3,3,1,make a drink,004.png,NA,NA,NA,NA,NA,NA,NA,NA,NA,NA,NA,NA,NA,NA,NA,NA,NA,NA,NA,NA,NA,NA,NA,NA,NA,NA,NA,NA,NA,NA,NA,NA,NA,NA,NA,NA,NA,NA,NA
SUPAMT24909,3KRVW3HTZTKBNUL2G42WY25CS0MSME,E91CD671-4054-4C06-BF7F-BDD9DE1EC737,2023-09-29_15h49.06.921,WP_VExplicitOC_LH,2022.2.5,Win32,59.95203837,NA,NA,NA,NA,NA,NA,NA,NA,NA,NA,NA,15,1.568,0,4,4,4,1,scroll social media,005.png,NA,NA,NA,NA,NA,NA,NA,NA,NA,NA,NA,NA,NA,NA,NA,NA,NA,NA,NA,NA,NA,NA,NA,NA,NA,NA,NA,NA,NA,NA,NA,NA,NA,NA,NA,NA,NA,NA,NA
SUPAMT24909,3KRVW3HTZTKBNUL2G42WY25CS0MSME,E91CD671-4054-4C06-BF7F-BDD9DE1EC737,2023-09-29_15h49.06.921,WP_VExplicitOC_LH,2022.2.5,Win32,59.95203837,NA,NA,NA,NA,NA,NA,NA,NA,NA,NA,NA,42.59259259,1.3754,0,5,5,5,1,listen to music,006.png,NA,NA,NA,NA,NA,NA,NA,NA,NA,NA,NA,NA,NA,NA,NA,NA,NA,NA,NA,NA,NA,NA,NA,NA,NA,NA,NA,NA,NA,NA,NA,NA,NA,NA,NA,NA,NA,NA,NA
SUPAMT24909,3KRVW3HTZTKBNUL2G42WY25CS0MSME,E91CD671-4054-4C06-BF7F-BDD9DE1EC737,2023-09-29_15h49.06.921,WP_VExplicitOC_LH,2022.2.5,Win32,59.95203837,NA,NA,NA,NA,NA,NA,NA,NA,NA,NA,NA,54.44444444,1.4007,0,6,6,6,1,daydream,007.png,NA,NA,NA,NA,NA,NA,NA,NA,NA,NA,NA,NA,NA,NA,NA,NA,NA,NA,NA,NA,NA,NA,NA,NA,NA,NA,NA,NA,NA,NA,NA,NA,NA,NA,NA,NA,NA,NA,NA
SUPAMT24909,3KRVW3HTZTKBNUL2G42WY25CS0MSME,E91CD671-4054-4C06-BF7F-BDD9DE1EC737,2023-09-29_15h49.06.921,WP_VExplicitOC_LH,2022.2.5,Win32,59.95203837,NA,NA,NA,NA,NA,NA,NA,NA,NA,NA,NA,52.22222222,1.1519,0,7,7,7,1,watch a short animation,008.png,NA,NA,NA,NA,NA,NA,NA,NA,NA,NA,NA,NA,NA,NA,NA,NA,NA,NA,NA,NA,NA,NA,NA,NA,NA,NA,NA,NA,NA,NA,NA,NA,NA,NA,NA,NA,NA,NA,NA
SUPAMT24909,3KRVW3HTZTKBNUL2G42WY25CS0MSME,E91CD671-4054-4C06-BF7F-BDD9DE1EC737,2023-09-29_15h49.06.921,WP_VExplicitOC_LH,2022.2.5,Win32,59.95203837,NA,NA,NA,NA,NA,NA,NA,NA,NA,NA,NA,-60.37037037,1.8339,0,8,8,8,1,read a novel,009.png,NA,NA,NA,NA,NA,NA,NA,NA,NA,NA,NA,NA,NA,NA,NA,NA,NA,NA,NA,NA,NA,NA,NA,NA,NA,NA,NA,NA,NA,NA,NA,NA,NA,NA,NA,NA,NA,NA,NA
SUPAMT24909,3KRVW3HTZTKBNUL2G42WY25CS0MSME,E91CD671-4054-4C06-BF7F-BDD9DE1EC737,2023-09-29_15h49.06.921,WP_VExplicitOC_LH,2022.2.5,Win32,59.95203837,NA,NA,NA,NA,NA,NA,NA,NA,NA,NA,NA,-71.2962963,1.4541,0,9,9,9,1,read the news,010.png,NA,NA,NA,NA,NA,NA,NA,NA,NA,NA,NA,NA,NA,NA,NA,NA,NA,NA,NA,NA,NA,NA,NA,NA,NA,NA,NA,NA,NA,NA,NA,NA,NA,NA,NA,NA,NA,NA,NA
SUPAMT24909,3KRVW3HTZTKBNUL2G42WY25CS0MSME,E91CD671-4054-4C06-BF7F-BDD9DE1EC737,2023-09-29_15h49.06.921,WP_VExplicitOC_LH,2022.2.5,Win32,59.95203837,NA,NA,NA,NA,NA,NA,NA,NA,NA,NA,NA,NA,NA,NA,NA,NA,NA,NA,NA,NA,NA,NA,NA,NA,NA,NA,NA,NA,NA,NA,NA,NA,NA,NA,NA,NA,NA,NA,NA,NA,NA,NA,NA,NA,NA,NA,NA,NA,NA,NA,NA,NA,NA,NA,NA,NA,NA,NA,NA
SUPAMT24909,3KRVW3HTZTKBNUL2G42WY25CS0MSME,E91CD671-4054-4C06-BF7F-BDD9DE1EC737,2023-09-29_15h49.06.921,WP_VExplicitOC_LH,2022.2.5,Win32,59.95203837,NA,NA,NA,NA,NA,NA,NA,NA,NA,NA,NA,NA,NA,NA,NA,NA,NA,NA,NA,NA,read the news,NA,NA,NA,NA,NA,NA,NA,NA,NA,NA,NA,NA,NA,NA,NA,NA,NA,NA,NA,NA,NA,NA,NA,NA,NA,NA,NA,NA,NA,NA,NA,NA,NA,NA,NA,NA,NA,NA
SUPAMT24909,3KRVW3HTZTKBNUL2G42WY25CS0MSME,E91CD671-4054-4C06-BF7F-BDD9DE1EC737,2023-09-29_15h49.06.921,WP_VExplicitOC_LH,2022.2.5,Win32,59.95203837,44.81481481,2.7923,2.0158,NA,NA,NA,NA,NA,frustrated,"frustrated, not frustrated","more frustrated, less frustrated",NA,NA,NA,NA,NA,NA,NA,NA,NA,NA,0,0,0,1,1,NA,NA,NA,NA,NA,NA,NA,NA,NA,NA,NA,NA,NA,NA,NA,NA,NA,NA,NA,NA,NA,NA,NA,NA,NA,NA,NA,NA,NA,NA,NA,NA,NA
SUPAMT24909,3KRVW3HTZTKBNUL2G42WY25CS0MSME,E91CD671-4054-4C06-BF7F-BDD9DE1EC737,2023-09-29_15h49.06.921,WP_VExplicitOC_LH,2022.2.5,Win32,59.95203837,-55,2.5217,2.0163,NA,NA,NA,NA,NA,happy,"unhappy, happy","less happy, more happy",NA,NA,NA,NA,NA,NA,NA,NA,NA,NA,0,1,1,0,1,NA,NA,NA,NA,NA,NA,NA,NA,NA,NA,NA,NA,NA,NA,NA,NA,NA,NA,NA,NA,NA,NA,NA,NA,NA,NA,NA,NA,NA,NA,NA,NA,NA
SUPAMT24909,3KRVW3HTZTKBNUL2G42WY25CS0MSME,E91CD671-4054-4C06-BF7F-BDD9DE1EC737,2023-09-29_15h49.06.921,WP_VExplicitOC_LH,2022.2.5,Win32,59.95203837,33.7037037,2.5,2.0001,NA,NA,NA,NA,NA,bored,"bored, not bored","more bored, less bored",NA,NA,NA,NA,NA,NA,NA,NA,NA,NA,0,2,2,2,1,NA,NA,NA,NA,NA,NA,NA,NA,NA,NA,NA,NA,NA,NA,NA,NA,NA,NA,NA,NA,NA,NA,NA,NA,NA,NA,NA,NA,NA,NA,NA,NA,NA
SUPAMT24909,3KRVW3HTZTKBNUL2G42WY25CS0MSME,E91CD671-4054-4C06-BF7F-BDD9DE1EC737,2023-09-29_15h49.06.921,WP_VExplicitOC_LH,2022.2.5,Win32,59.95203837,NA,NA,NA,NA,NA,NA,NA,NA,NA,NA,NA,NA,NA,NA,NA,NA,NA,NA,NA,NA,NA,NA,NA,NA,NA,NA,NA,NA,NA,NA,NA,NA,NA,NA,NA,NA,NA,NA,NA,NA,NA,NA,NA,NA,NA,NA,NA,NA,NA,NA,NA,NA,NA,NA,NA,NA,NA,NA,NA
SUPAMT24909,3KRVW3HTZTKBNUL2G42WY25CS0MSME,E91CD671-4054-4C06-BF7F-BDD9DE1EC737,2023-09-29_15h49.06.921,WP_VExplicitOC_LH,2022.2.5,Win32,59.95203837,NA,NA,NA,NA,NA,NA,NA,NA,NA,NA,NA,NA,NA,NA,NA,NA,NA,NA,NA,NA,NA,NA,NA,NA,NA,NA,NA,NA,NA,NA,NA,NA,NA,NA,NA,NA,NA,NA,NA,NA,NA,NA,NA,NA,NA,NA,NA,NA,NA,NA,NA,NA,NA,NA,NA,NA,NA,NA,NA
SUPAMT24909,3KRVW3HTZTKBNUL2G42WY25CS0MSME,E91CD671-4054-4C06-BF7F-BDD9DE1EC737,2023-09-29_15h49.06.921,WP_VExplicitOC_LH,2022.2.5,Win32,59.95203837,-76.2962963,3.253,2.0154,NA,NA,NA,NA,NA,bored,"bored, not bored","more bored, less bored",NA,NA,NA,NA,NA,NA,NA,NA,NA,NA,NA,NA,NA,NA,NA,0,0,0,2,1,NA,NA,NA,NA,NA,NA,NA,NA,NA,NA,NA,NA,NA,NA,NA,NA,NA,NA,NA,NA,NA,NA,NA,NA,NA,NA,NA,NA
SUPAMT24909,3KRVW3HTZTKBNUL2G42WY25CS0MSME,E91CD671-4054-4C06-BF7F-BDD9DE1EC737,2023-09-29_15h49.06.921,WP_VExplicitOC_LH,2022.2.5,Win32,59.95203837,57.96296296,2.735,2.0168,NA,NA,NA,NA,NA,frustrated,"frustrated, not frustrated","more frustrated, less frustrated",NA,NA,NA,NA,NA,NA,NA,NA,NA,NA,NA,NA,NA,NA,NA,0,1,1,1,1,NA,NA,NA,NA,NA,NA,NA,NA,NA,NA,NA,NA,NA,NA,NA,NA,NA,NA,NA,NA,NA,NA,NA,NA,NA,NA,NA,NA
SUPAMT24909,3KRVW3HTZTKBNUL2G42WY25CS0MSME,E91CD671-4054-4C06-BF7F-BDD9DE1EC737,2023-09-29_15h49.06.921,WP_VExplicitOC_LH,2022.2.5,Win32,59.95203837,13.51851852,3.2173,2.0011,NA,NA,NA,NA,NA,happy,"unhappy, happy","less happy, more happy",NA,NA,NA,NA,NA,NA,NA,NA,NA,NA,NA,NA,NA,NA,NA,0,2,2,0,1,NA,NA,NA,NA,NA,NA,NA,NA,NA,NA,NA,NA,NA,NA,NA,NA,NA,NA,NA,NA,NA,NA,NA,NA,NA,NA,NA,NA
SUPAMT24909,3KRVW3HTZTKBNUL2G42WY25CS0MSME,E91CD671-4054-4C06-BF7F-BDD9DE1EC737,2023-09-29_15h49.06.921,WP_VExplicitOC_LH,2022.2.5,Win32,59.95203837,NA,NA,NA,NA,NA,NA,NA,NA,NA,NA,NA,NA,NA,NA,NA,NA,NA,NA,NA,NA,NA,NA,NA,NA,NA,NA,NA,NA,NA,NA,NA,0,0,0,0,1,NA,NA,NA,NA,NA,NA,NA,NA,NA,NA,NA,NA,NA,NA,NA,NA,NA,NA,NA,NA,NA,NA,NA
SUPAMT24909,3KRVW3HTZTKBNUL2G42WY25CS0MSME,E91CD671-4054-4C06-BF7F-BDD9DE1EC737,2023-09-29_15h49.06.921,WP_VExplicitOC_LH,2022.2.5,Win32,59.95203837,-9.814814815,3.7066,2.013,NA,NA,NA,NA,NA,frustrated,"frustrated, not frustrated","more frustrated, less frustrated",NA,NA,NA,NA,NA,NA,NA,NA,NA,NA,NA,NA,NA,NA,NA,0,0,0,1,1,NA,NA,NA,NA,NA,NA,NA,NA,NA,NA,NA,NA,NA,NA,NA,NA,NA,NA,NA,NA,NA,NA,NA,NA,NA,NA,NA,NA
SUPAMT24909,3KRVW3HTZTKBNUL2G42WY25CS0MSME,E91CD671-4054-4C06-BF7F-BDD9DE1EC737,2023-09-29_15h49.06.921,WP_VExplicitOC_LH,2022.2.5,Win32,59.95203837,-74.44444444,2.9967,2.0009,NA,NA,NA,NA,NA,bored,"bored, not bored","more bored, less bored",NA,NA,NA,NA,NA,NA,NA,NA,NA,NA,NA,NA,NA,NA,NA,0,1,1,2,1,NA,NA,NA,NA,NA,NA,NA,NA,NA,NA,NA,NA,NA,NA,NA,NA,NA,NA,NA,NA,NA,NA,NA,NA,NA,NA,NA,NA
SUPAMT24909,3KRVW3HTZTKBNUL2G42WY25CS0MSME,E91CD671-4054-4C06-BF7F-BDD9DE1EC737,2023-09-29_15h49.06.921,WP_VExplicitOC_LH,2022.2.5,Win32,59.95203837,20.55555556,2.9246,2.0004,NA,NA,NA,NA,NA,happy,"unhappy, happy","less happy, more happy",NA,NA,NA,NA,NA,NA,NA,NA,NA,NA,NA,NA,NA,NA,NA,0,2,2,0,1,NA,NA,NA,NA,NA,NA,NA,NA,NA,NA,NA,NA,NA,NA,NA,NA,NA,NA,NA,NA,NA,NA,NA,NA,NA,NA,NA,NA
SUPAMT24909,3KRVW3HTZTKBNUL2G42WY25CS0MSME,E91CD671-4054-4C06-BF7F-BDD9DE1EC737,2023-09-29_15h49.06.921,WP_VExplicitOC_LH,2022.2.5,Win32,59.95203837,NA,NA,NA,NA,NA,NA,NA,NA,NA,NA,NA,NA,NA,NA,NA,NA,NA,NA,NA,NA,NA,NA,NA,NA,NA,NA,NA,NA,NA,NA,NA,1,0,1,0,1,NA,NA,NA,NA,NA,NA,NA,NA,NA,NA,NA,NA,NA,NA,NA,NA,NA,NA,NA,NA,NA,NA,NA
SUPAMT24909,3KRVW3HTZTKBNUL2G42WY25CS0MSME,E91CD671-4054-4C06-BF7F-BDD9DE1EC737,2023-09-29_15h49.06.921,WP_VExplicitOC_LH,2022.2.5,Win32,59.95203837,-18.14814815,2.9794,2.002,NA,NA,NA,NA,NA,happy,"unhappy, happy","less happy, more happy",NA,NA,NA,NA,NA,NA,NA,NA,NA,NA,NA,NA,NA,NA,NA,0,0,0,0,1,NA,NA,NA,NA,NA,NA,NA,NA,NA,NA,NA,NA,NA,NA,NA,NA,NA,NA,NA,NA,NA,NA,NA,NA,NA,NA,NA,NA
SUPAMT24909,3KRVW3HTZTKBNUL2G42WY25CS0MSME,E91CD671-4054-4C06-BF7F-BDD9DE1EC737,2023-09-29_15h49.06.921,WP_VExplicitOC_LH,2022.2.5,Win32,59.95203837,11.85185185,2.6185,2.0001,NA,NA,NA,NA,NA,frustrated,"frustrated, not frustrated","more frustrated, less frustrated",NA,NA,NA,NA,NA,NA,NA,NA,NA,NA,NA,NA,NA,NA,NA,0,1,1,1,1,NA,NA,NA,NA,NA,NA,NA,NA,NA,NA,NA,NA,NA,NA,NA,NA,NA,NA,NA,NA,NA,NA,NA,NA,NA,NA,NA,NA
SUPAMT24909,3KRVW3HTZTKBNUL2G42WY25CS0MSME,E91CD671-4054-4C06-BF7F-BDD9DE1EC737,2023-09-29_15h49.06.921,WP_VExplicitOC_LH,2022.2.5,Win32,59.95203837,-14.81481481,2.6338,2.0003,NA,NA,NA,NA,NA,bored,"bored, not bored","more bored, less bored",NA,NA,NA,NA,NA,NA,NA,NA,NA,NA,NA,NA,NA,NA,NA,0,2,2,2,1,NA,NA,NA,NA,NA,NA,NA,NA,NA,NA,NA,NA,NA,NA,NA,NA,NA,NA,NA,NA,NA,NA,NA,NA,NA,NA,NA,NA
SUPAMT24909,3KRVW3HTZTKBNUL2G42WY25CS0MSME,E91CD671-4054-4C06-BF7F-BDD9DE1EC737,2023-09-29_15h49.06.921,WP_VExplicitOC_LH,2022.2.5,Win32,59.95203837,NA,NA,NA,NA,NA,NA,NA,NA,NA,NA,NA,NA,NA,NA,NA,NA,NA,NA,NA,NA,NA,NA,NA,NA,NA,NA,NA,NA,NA,NA,NA,2,0,2,0,1,NA,NA,NA,NA,NA,NA,NA,NA,NA,NA,NA,NA,NA,NA,NA,NA,NA,NA,NA,NA,NA,NA,NA
SUPAMT24909,3KRVW3HTZTKBNUL2G42WY25CS0MSME,E91CD671-4054-4C06-BF7F-BDD9DE1EC737,2023-09-29_15h49.06.921,WP_VExplicitOC_LH,2022.2.5,Win32,59.95203837,NA,NA,2.0008,NA,NA,NA,NA,NA,happy,"unhappy, happy","less happy, more happy",NA,NA,NA,NA,NA,NA,NA,NA,NA,NA,NA,NA,NA,NA,NA,0,0,0,0,1,NA,NA,NA,NA,NA,NA,NA,NA,NA,NA,NA,NA,NA,NA,NA,NA,NA,NA,NA,NA,NA,NA,NA,NA,NA,NA,NA,NA
SUPAMT24909,3KRVW3HTZTKBNUL2G42WY25CS0MSME,E91CD671-4054-4C06-BF7F-BDD9DE1EC737,2023-09-29_15h49.06.921,WP_VExplicitOC_LH,2022.2.5,Win32,59.95203837,17.03703704,2.5139,2.0073,NA,NA,NA,NA,NA,frustrated,"frustrated, not frustrated","more frustrated, less frustrated",NA,NA,NA,NA,NA,NA,NA,NA,NA,NA,NA,NA,NA,NA,NA,0,1,1,1,1,NA,NA,NA,NA,NA,NA,NA,NA,NA,NA,NA,NA,NA,NA,NA,NA,NA,NA,NA,NA,NA,NA,NA,NA,NA,NA,NA,NA
SUPAMT24909,3KRVW3HTZTKBNUL2G42WY25CS0MSME,E91CD671-4054-4C06-BF7F-BDD9DE1EC737,2023-09-29_15h49.06.921,WP_VExplicitOC_LH,2022.2.5,Win32,59.95203837,-36.66666667,2.8705,2.0005,NA,NA,NA,NA,NA,bored,"bored, not bored","more bored, less bored",NA,NA,NA,NA,NA,NA,NA,NA,NA,NA,NA,NA,NA,NA,NA,0,2,2,2,1,NA,NA,NA,NA,NA,NA,NA,NA,NA,NA,NA,NA,NA,NA,NA,NA,NA,NA,NA,NA,NA,NA,NA,NA,NA,NA,NA,NA
SUPAMT24909,3KRVW3HTZTKBNUL2G42WY25CS0MSME,E91CD671-4054-4C06-BF7F-BDD9DE1EC737,2023-09-29_15h49.06.921,WP_VExplicitOC_LH,2022.2.5,Win32,59.95203837,NA,NA,NA,NA,NA,NA,NA,NA,NA,NA,NA,NA,NA,NA,NA,NA,NA,NA,NA,NA,NA,NA,NA,NA,NA,NA,NA,NA,NA,NA,NA,3,0,3,0,1,NA,NA,NA,NA,NA,NA,NA,NA,NA,NA,NA,NA,NA,NA,NA,NA,NA,NA,NA,NA,NA,NA,NA
SUPAMT24909,3KRVW3HTZTKBNUL2G42WY25CS0MSME,E91CD671-4054-4C06-BF7F-BDD9DE1EC737,2023-09-29_15h49.06.921,WP_VExplicitOC_LH,2022.2.5,Win32,59.95203837,-52.40740741,3.4552,2.0016,NA,NA,NA,NA,NA,frustrated,"frustrated, not frustrated","more frustrated, less frustrated",NA,NA,NA,NA,NA,NA,NA,NA,NA,NA,NA,NA,NA,NA,NA,0,0,0,1,1,NA,NA,NA,NA,NA,NA,NA,NA,NA,NA,NA,NA,NA,NA,NA,NA,NA,NA,NA,NA,NA,NA,NA,NA,NA,NA,NA,NA
SUPAMT24909,3KRVW3HTZTKBNUL2G42WY25CS0MSME,E91CD671-4054-4C06-BF7F-BDD9DE1EC737,2023-09-29_15h49.06.921,WP_VExplicitOC_LH,2022.2.5,Win32,59.95203837,-86.11111111,2.5792,2,NA,NA,NA,NA,NA,bored,"bored, not bored","more bored, less bored",NA,NA,NA,NA,NA,NA,NA,NA,NA,NA,NA,NA,NA,NA,NA,0,1,1,2,1,NA,NA,NA,NA,NA,NA,NA,NA,NA,NA,NA,NA,NA,NA,NA,NA,NA,NA,NA,NA,NA,NA,NA,NA,NA,NA,NA,NA
SUPAMT24909,3KRVW3HTZTKBNUL2G42WY25CS0MSME,E91CD671-4054-4C06-BF7F-BDD9DE1EC737,2023-09-29_15h49.06.921,WP_VExplicitOC_LH,2022.2.5,Win32,59.95203837,-90.18518519,3.2353,2.0006,NA,NA,NA,NA,NA,happy,"unhappy, happy","less happy, more happy",NA,NA,NA,NA,NA,NA,NA,NA,NA,NA,NA,NA,NA,NA,NA,0,2,2,0,1,NA,NA,NA,NA,NA,NA,NA,NA,NA,NA,NA,NA,NA,NA,NA,NA,NA,NA,NA,NA,NA,NA,NA,NA,NA,NA,NA,NA
SUPAMT24909,3KRVW3HTZTKBNUL2G42WY25CS0MSME,E91CD671-4054-4C06-BF7F-BDD9DE1EC737,2023-09-29_15h49.06.921,WP_VExplicitOC_LH,2022.2.5,Win32,59.95203837,NA,NA,NA,NA,NA,NA,NA,NA,NA,NA,NA,NA,NA,NA,NA,NA,NA,NA,NA,NA,NA,NA,NA,NA,NA,NA,NA,NA,NA,NA,NA,4,0,4,0,1,NA,NA,NA,NA,NA,NA,NA,NA,NA,NA,NA,NA,NA,NA,NA,NA,NA,NA,NA,NA,NA,NA,NA
SUPAMT24909,3KRVW3HTZTKBNUL2G42WY25CS0MSME,E91CD671-4054-4C06-BF7F-BDD9DE1EC737,2023-09-29_15h49.06.921,WP_VExplicitOC_LH,2022.2.5,Win32,59.95203837,-65.74074074,3.0921,2.0096,NA,NA,NA,NA,NA,happy,"unhappy, happy","less happy, more happy",NA,NA,NA,NA,NA,NA,NA,NA,NA,NA,NA,NA,NA,NA,NA,0,0,0,0,1,NA,NA,NA,NA,NA,NA,NA,NA,NA,NA,NA,NA,NA,NA,NA,NA,NA,NA,NA,NA,NA,NA,NA,NA,NA,NA,NA,NA
SUPAMT24909,3KRVW3HTZTKBNUL2G42WY25CS0MSME,E91CD671-4054-4C06-BF7F-BDD9DE1EC737,2023-09-29_15h49.06.921,WP_VExplicitOC_LH,2022.2.5,Win32,59.95203837,-82.96296296,2.8847,2,NA,NA,NA,NA,NA,frustrated,"frustrated, not frustrated","more frustrated, less frustrated",NA,NA,NA,NA,NA,NA,NA,NA,NA,NA,NA,NA,NA,NA,NA,0,1,1,1,1,NA,NA,NA,NA,NA,NA,NA,NA,NA,NA,NA,NA,NA,NA,NA,NA,NA,NA,NA,NA,NA,NA,NA,NA,NA,NA,NA,NA
SUPAMT24909,3KRVW3HTZTKBNUL2G42WY25CS0MSME,E91CD671-4054-4C06-BF7F-BDD9DE1EC737,2023-09-29_15h49.06.921,WP_VExplicitOC_LH,2022.2.5,Win32,59.95203837,-96.66666667,2.8,2.0164,NA,NA,NA,NA,NA,bored,"bored, not bored","more bored, less bored",NA,NA,NA,NA,NA,NA,NA,NA,NA,NA,NA,NA,NA,NA,NA,0,2,2,2,1,NA,NA,NA,NA,NA,NA,NA,NA,NA,NA,NA,NA,NA,NA,NA,NA,NA,NA,NA,NA,NA,NA,NA,NA,NA,NA,NA,NA
SUPAMT24909,3KRVW3HTZTKBNUL2G42WY25CS0MSME,E91CD671-4054-4C06-BF7F-BDD9DE1EC737,2023-09-29_15h49.06.921,WP_VExplicitOC_LH,2022.2.5,Win32,59.95203837,NA,NA,NA,NA,NA,NA,NA,NA,NA,NA,NA,NA,NA,NA,NA,NA,NA,NA,NA,NA,NA,NA,NA,NA,NA,NA,NA,NA,NA,NA,NA,5,0,5,0,1,NA,NA,NA,NA,NA,NA,NA,NA,NA,NA,NA,NA,NA,NA,NA,NA,NA,NA,NA,NA,NA,NA,NA
SUPAMT24909,3KRVW3HTZTKBNUL2G42WY25CS0MSME,E91CD671-4054-4C06-BF7F-BDD9DE1EC737,2023-09-29_15h49.06.921,WP_VExplicitOC_LH,2022.2.5,Win32,59.95203837,-100,3.035,2.0038,NA,NA,NA,NA,NA,bored,"bored, not bored","more bored, less bored",NA,NA,NA,NA,NA,NA,NA,NA,NA,NA,NA,NA,NA,NA,NA,0,0,0,2,1,NA,NA,NA,NA,NA,NA,NA,NA,NA,NA,NA,NA,NA,NA,NA,NA,NA,NA,NA,NA,NA,NA,NA,NA,NA,NA,NA,NA
SUPAMT24909,3KRVW3HTZTKBNUL2G42WY25CS0MSME,E91CD671-4054-4C06-BF7F-BDD9DE1EC737,2023-09-29_15h49.06.921,WP_VExplicitOC_LH,2022.2.5,Win32,59.95203837,-100,3.1014,2.0039,NA,NA,NA,NA,NA,frustrated,"frustrated, not frustrated","more frustrated, less frustrated",NA,NA,NA,NA,NA,NA,NA,NA,NA,NA,NA,NA,NA,NA,NA,0,1,1,1,1,NA,NA,NA,NA,NA,NA,NA,NA,NA,NA,NA,NA,NA,NA,NA,NA,NA,NA,NA,NA,NA,NA,NA,NA,NA,NA,NA,NA
SUPAMT24909,3KRVW3HTZTKBNUL2G42WY25CS0MSME,E91CD671-4054-4C06-BF7F-BDD9DE1EC737,2023-09-29_15h49.06.921,WP_VExplicitOC_LH,2022.2.5,Win32,59.95203837,-100,3.3338,2.0021,NA,NA,NA,NA,NA,happy,"unhappy, happy","less happy, more happy",NA,NA,NA,NA,NA,NA,NA,NA,NA,NA,NA,NA,NA,NA,NA,0,2,2,0,1,NA,NA,NA,NA,NA,NA,NA,NA,NA,NA,NA,NA,NA,NA,NA,NA,NA,NA,NA,NA,NA,NA,NA,NA,NA,NA,NA,NA
SUPAMT24909,3KRVW3HTZTKBNUL2G42WY25CS0MSME,E91CD671-4054-4C06-BF7F-BDD9DE1EC737,2023-09-29_15h49.06.921,WP_VExplicitOC_LH,2022.2.5,Win32,59.95203837,NA,NA,NA,NA,NA,NA,NA,NA,NA,NA,NA,NA,NA,NA,NA,NA,NA,NA,NA,NA,NA,NA,NA,NA,NA,NA,NA,NA,NA,NA,NA,6,0,6,0,1,NA,NA,NA,NA,NA,NA,NA,NA,NA,NA,NA,NA,NA,NA,NA,NA,NA,NA,NA,NA,NA,NA,NA
SUPAMT24909,3KRVW3HTZTKBNUL2G42WY25CS0MSME,E91CD671-4054-4C06-BF7F-BDD9DE1EC737,2023-09-29_15h49.06.921,WP_VExplicitOC_LH,2022.2.5,Win32,59.95203837,-100,3.1101,2.0007,NA,NA,NA,NA,NA,bored,"bored, not bored","more bored, less bored",NA,NA,NA,NA,NA,NA,NA,NA,NA,NA,NA,NA,NA,NA,NA,0,0,0,2,1,NA,NA,NA,NA,NA,NA,NA,NA,NA,NA,NA,NA,NA,NA,NA,NA,NA,NA,NA,NA,NA,NA,NA,NA,NA,NA,NA,NA
SUPAMT24909,3KRVW3HTZTKBNUL2G42WY25CS0MSME,E91CD671-4054-4C06-BF7F-BDD9DE1EC737,2023-09-29_15h49.06.921,WP_VExplicitOC_LH,2022.2.5,Win32,59.95203837,-90.55555556,3.6488,2.0006,NA,NA,NA,NA,NA,frustrated,"frustrated, not frustrated","more frustrated, less frustrated",NA,NA,NA,NA,NA,NA,NA,NA,NA,NA,NA,NA,NA,NA,NA,0,1,1,1,1,NA,NA,NA,NA,NA,NA,NA,NA,NA,NA,NA,NA,NA,NA,NA,NA,NA,NA,NA,NA,NA,NA,NA,NA,NA,NA,NA,NA
SUPAMT24909,3KRVW3HTZTKBNUL2G42WY25CS0MSME,E91CD671-4054-4C06-BF7F-BDD9DE1EC737,2023-09-29_15h49.06.921,WP_VExplicitOC_LH,2022.2.5,Win32,59.95203837,-90.92592593,4.7345,2,NA,NA,NA,NA,NA,happy,"unhappy, happy","less happy, more happy",NA,NA,NA,NA,NA,NA,NA,NA,NA,NA,NA,NA,NA,NA,NA,0,2,2,0,1,NA,NA,NA,NA,NA,NA,NA,NA,NA,NA,NA,NA,NA,NA,NA,NA,NA,NA,NA,NA,NA,NA,NA,NA,NA,NA,NA,NA
SUPAMT24909,3KRVW3HTZTKBNUL2G42WY25CS0MSME,E91CD671-4054-4C06-BF7F-BDD9DE1EC737,2023-09-29_15h49.06.921,WP_VExplicitOC_LH,2022.2.5,Win32,59.95203837,NA,NA,NA,NA,NA,NA,NA,NA,NA,NA,NA,NA,NA,NA,NA,NA,NA,NA,NA,NA,NA,NA,NA,NA,NA,NA,NA,NA,NA,NA,NA,7,0,7,0,1,NA,NA,NA,NA,NA,NA,NA,NA,NA,NA,NA,NA,NA,NA,NA,NA,NA,NA,NA,NA,NA,NA,NA
SUPAMT24909,3KRVW3HTZTKBNUL2G42WY25CS0MSME,E91CD671-4054-4C06-BF7F-BDD9DE1EC737,2023-09-29_15h49.06.921,WP_VExplicitOC_LH,2022.2.5,Win32,59.95203837,-100,3.4634,2.0062,NA,NA,NA,NA,NA,happy,"unhappy, happy","less happy, more happy",NA,NA,NA,NA,NA,NA,NA,NA,NA,NA,NA,NA,NA,NA,NA,0,0,0,0,1,NA,NA,NA,NA,NA,NA,NA,NA,NA,NA,NA,NA,NA,NA,NA,NA,NA,NA,NA,NA,NA,NA,NA,NA,NA,NA,NA,NA
SUPAMT24909,3KRVW3HTZTKBNUL2G42WY25CS0MSME,E91CD671-4054-4C06-BF7F-BDD9DE1EC737,2023-09-29_15h49.06.921,WP_VExplicitOC_LH,2022.2.5,Win32,59.95203837,-100,3.3764,2.0002,NA,NA,NA,NA,NA,frustrated,"frustrated, not frustrated","more frustrated, less frustrated",NA,NA,NA,NA,NA,NA,NA,NA,NA,NA,NA,NA,NA,NA,NA,0,1,1,1,1,NA,NA,NA,NA,NA,NA,NA,NA,NA,NA,NA,NA,NA,NA,NA,NA,NA,NA,NA,NA,NA,NA,NA,NA,NA,NA,NA,NA
SUPAMT24909,3KRVW3HTZTKBNUL2G42WY25CS0MSME,E91CD671-4054-4C06-BF7F-BDD9DE1EC737,2023-09-29_15h49.06.921,WP_VExplicitOC_LH,2022.2.5,Win32,59.95203837,-100,3.3529,2.0003,NA,NA,NA,NA,NA,bored,"bored, not bored","more bored, less bored",NA,NA,NA,NA,NA,NA,NA,NA,NA,NA,NA,NA,NA,NA,NA,0,2,2,2,1,NA,NA,NA,NA,NA,NA,NA,NA,NA,NA,NA,NA,NA,NA,NA,NA,NA,NA,NA,NA,NA,NA,NA,NA,NA,NA,NA,NA
SUPAMT24909,3KRVW3HTZTKBNUL2G42WY25CS0MSME,E91CD671-4054-4C06-BF7F-BDD9DE1EC737,2023-09-29_15h49.06.921,WP_VExplicitOC_LH,2022.2.5,Win32,59.95203837,NA,NA,NA,NA,NA,NA,NA,NA,NA,NA,NA,NA,NA,NA,NA,NA,NA,NA,NA,NA,NA,NA,NA,NA,NA,NA,NA,NA,NA,NA,NA,8,0,8,0,1,NA,NA,NA,NA,NA,NA,NA,NA,NA,NA,NA,NA,NA,NA,NA,NA,NA,NA,NA,NA,NA,NA,NA
SUPAMT24909,3KRVW3HTZTKBNUL2G42WY25CS0MSME,E91CD671-4054-4C06-BF7F-BDD9DE1EC737,2023-09-29_15h49.06.921,WP_VExplicitOC_LH,2022.2.5,Win32,59.95203837,-100,3.4504,2.0141,NA,NA,NA,NA,NA,happy,"unhappy, happy","less happy, more happy",NA,NA,NA,NA,NA,NA,NA,NA,NA,NA,NA,NA,NA,NA,NA,0,0,0,0,1,NA,NA,NA,NA,NA,NA,NA,NA,NA,NA,NA,NA,NA,NA,NA,NA,NA,NA,NA,NA,NA,NA,NA,NA,NA,NA,NA,NA
SUPAMT24909,3KRVW3HTZTKBNUL2G42WY25CS0MSME,E91CD671-4054-4C06-BF7F-BDD9DE1EC737,2023-09-29_15h49.06.921,WP_VExplicitOC_LH,2022.2.5,Win32,59.95203837,-100,3.4105,2.0005,NA,NA,NA,NA,NA,frustrated,"frustrated, not frustrated","more frustrated, less frustrated",NA,NA,NA,NA,NA,NA,NA,NA,NA,NA,NA,NA,NA,NA,NA,0,1,1,1,1,NA,NA,NA,NA,NA,NA,NA,NA,NA,NA,NA,NA,NA,NA,NA,NA,NA,NA,NA,NA,NA,NA,NA,NA,NA,NA,NA,NA
SUPAMT24909,3KRVW3HTZTKBNUL2G42WY25CS0MSME,E91CD671-4054-4C06-BF7F-BDD9DE1EC737,2023-09-29_15h49.06.921,WP_VExplicitOC_LH,2022.2.5,Win32,59.95203837,-100,3.3208,2.0002,NA,NA,NA,NA,NA,bored,"bored, not bored","more bored, less bored",NA,NA,NA,NA,NA,NA,NA,NA,NA,NA,NA,NA,NA,NA,NA,0,2,2,2,1,NA,NA,NA,NA,NA,NA,NA,NA,NA,NA,NA,NA,NA,NA,NA,NA,NA,NA,NA,NA,NA,NA,NA,NA,NA,NA,NA,NA
SUPAMT24909,3KRVW3HTZTKBNUL2G42WY25CS0MSME,E91CD671-4054-4C06-BF7F-BDD9DE1EC737,2023-09-29_15h49.06.921,WP_VExplicitOC_LH,2022.2.5,Win32,59.95203837,NA,NA,NA,NA,NA,NA,NA,NA,NA,NA,NA,NA,NA,NA,NA,NA,NA,NA,NA,NA,NA,NA,NA,NA,NA,NA,NA,NA,NA,NA,NA,9,0,9,0,1,NA,NA,NA,NA,NA,NA,NA,NA,NA,NA,NA,NA,NA,NA,NA,NA,NA,NA,NA,NA,NA,NA,NA
SUPAMT24909,3KRVW3HTZTKBNUL2G42WY25CS0MSME,E91CD671-4054-4C06-BF7F-BDD9DE1EC737,2023-09-29_15h49.06.921,WP_VExplicitOC_LH,2022.2.5,Win32,59.95203837,-100,3.4954,2.0082,NA,NA,NA,NA,NA,bored,"bored, not bored","more bored, less bored",NA,NA,NA,NA,NA,NA,NA,NA,NA,NA,NA,NA,NA,NA,NA,0,0,0,2,1,NA,NA,NA,NA,NA,NA,NA,NA,NA,NA,NA,NA,NA,NA,NA,NA,NA,NA,NA,NA,NA,NA,NA,NA,NA,NA,NA,NA
SUPAMT24909,3KRVW3HTZTKBNUL2G42WY25CS0MSME,E91CD671-4054-4C06-BF7F-BDD9DE1EC737,2023-09-29_15h49.06.921,WP_VExplicitOC_LH,2022.2.5,Win32,59.95203837,83.51851852,4.4191,2.0001,NA,NA,NA,NA,NA,happy,"unhappy, happy","less happy, more happy",NA,NA,NA,NA,NA,NA,NA,NA,NA,NA,NA,NA,NA,NA,NA,0,1,1,0,1,NA,NA,NA,NA,NA,NA,NA,NA,NA,NA,NA,NA,NA,NA,NA,NA,NA,NA,NA,NA,NA,NA,NA,NA,NA,NA,NA,NA
SUPAMT24909,3KRVW3HTZTKBNUL2G42WY25CS0MSME,E91CD671-4054-4C06-BF7F-BDD9DE1EC737,2023-09-29_15h49.06.921,WP_VExplicitOC_LH,2022.2.5,Win32,59.95203837,-100,3.003,2.0002,NA,NA,NA,NA,NA,frustrated,"frustrated, not frustrated","more frustrated, less frustrated",NA,NA,NA,NA,NA,NA,NA,NA,NA,NA,NA,NA,NA,NA,NA,0,2,2,1,1,NA,NA,NA,NA,NA,NA,NA,NA,NA,NA,NA,NA,NA,NA,NA,NA,NA,NA,NA,NA,NA,NA,NA,NA,NA,NA,NA,NA
SUPAMT24909,3KRVW3HTZTKBNUL2G42WY25CS0MSME,E91CD671-4054-4C06-BF7F-BDD9DE1EC737,2023-09-29_15h49.06.921,WP_VExplicitOC_LH,2022.2.5,Win32,59.95203837,NA,NA,NA,NA,NA,NA,NA,NA,NA,NA,NA,NA,NA,NA,NA,NA,NA,NA,NA,NA,NA,NA,NA,NA,NA,NA,NA,NA,NA,NA,NA,10,0,10,0,1,NA,NA,NA,NA,NA,NA,NA,NA,NA,NA,NA,NA,NA,NA,NA,NA,NA,NA,NA,NA,NA,NA,NA
SUPAMT24909,3KRVW3HTZTKBNUL2G42WY25CS0MSME,E91CD671-4054-4C06-BF7F-BDD9DE1EC737,2023-09-29_15h49.06.921,WP_VExplicitOC_LH,2022.2.5,Win32,59.95203837,-69.44444444,3.4064,2.0036,NA,NA,NA,NA,NA,frustrated,"frustrated, not frustrated","more frustrated, less frustrated",NA,NA,NA,NA,NA,NA,NA,NA,NA,NA,NA,NA,NA,NA,NA,0,0,0,1,1,NA,NA,NA,NA,NA,NA,NA,NA,NA,NA,NA,NA,NA,NA,NA,NA,NA,NA,NA,NA,NA,NA,NA,NA,NA,NA,NA,NA
SUPAMT24909,3KRVW3HTZTKBNUL2G42WY25CS0MSME,E91CD671-4054-4C06-BF7F-BDD9DE1EC737,2023-09-29_15h49.06.921,WP_VExplicitOC_LH,2022.2.5,Win32,59.95203837,15,3.8027,2.0004,NA,NA,NA,NA,NA,happy,"unhappy, happy","less happy, more happy",NA,NA,NA,NA,NA,NA,NA,NA,NA,NA,NA,NA,NA,NA,NA,0,1,1,0,1,NA,NA,NA,NA,NA,NA,NA,NA,NA,NA,NA,NA,NA,NA,NA,NA,NA,NA,NA,NA,NA,NA,NA,NA,NA,NA,NA,NA
SUPAMT24909,3KRVW3HTZTKBNUL2G42WY25CS0MSME,E91CD671-4054-4C06-BF7F-BDD9DE1EC737,2023-09-29_15h49.06.921,WP_VExplicitOC_LH,2022.2.5,Win32,59.95203837,-24.81481481,3.1298,2.0013,NA,NA,NA,NA,NA,bored,"bored, not bored","more bored, less bored",NA,NA,NA,NA,NA,NA,NA,NA,NA,NA,NA,NA,NA,NA,NA,0,2,2,2,1,NA,NA,NA,NA,NA,NA,NA,NA,NA,NA,NA,NA,NA,NA,NA,NA,NA,NA,NA,NA,NA,NA,NA,NA,NA,NA,NA,NA
SUPAMT24909,3KRVW3HTZTKBNUL2G42WY25CS0MSME,E91CD671-4054-4C06-BF7F-BDD9DE1EC737,2023-09-29_15h49.06.921,WP_VExplicitOC_LH,2022.2.5,Win32,59.95203837,NA,NA,NA,NA,NA,NA,NA,NA,NA,NA,NA,NA,NA,NA,NA,NA,NA,NA,NA,NA,NA,NA,NA,NA,NA,NA,NA,NA,NA,NA,NA,11,0,11,0,1,NA,NA,NA,NA,NA,NA,NA,NA,NA,NA,NA,NA,NA,NA,NA,NA,NA,NA,NA,NA,NA,NA,NA
SUPAMT24909,3KRVW3HTZTKBNUL2G42WY25CS0MSME,E91CD671-4054-4C06-BF7F-BDD9DE1EC737,2023-09-29_15h49.06.921,WP_VExplicitOC_LH,2022.2.5,Win32,59.95203837,-15.37037037,3.1392,2.0142,NA,NA,NA,NA,NA,frustrated,"frustrated, not frustrated","more frustrated, less frustrated",NA,NA,NA,NA,NA,NA,NA,NA,NA,NA,NA,NA,NA,NA,NA,0,0,0,1,1,NA,NA,NA,NA,NA,NA,NA,NA,NA,NA,NA,NA,NA,NA,NA,NA,NA,NA,NA,NA,NA,NA,NA,NA,NA,NA,NA,NA
SUPAMT24909,3KRVW3HTZTKBNUL2G42WY25CS0MSME,E91CD671-4054-4C06-BF7F-BDD9DE1EC737,2023-09-29_15h49.06.921,WP_VExplicitOC_LH,2022.2.5,Win32,59.95203837,-22.96296296,2.9856,2.0166,NA,NA,NA,NA,NA,bored,"bored, not bored","more bored, less bored",NA,NA,NA,NA,NA,NA,NA,NA,NA,NA,NA,NA,NA,NA,NA,0,1,1,2,1,NA,NA,NA,NA,NA,NA,NA,NA,NA,NA,NA,NA,NA,NA,NA,NA,NA,NA,NA,NA,NA,NA,NA,NA,NA,NA,NA,NA
SUPAMT24909,3KRVW3HTZTKBNUL2G42WY25CS0MSME,E91CD671-4054-4C06-BF7F-BDD9DE1EC737,2023-09-29_15h49.06.921,WP_VExplicitOC_LH,2022.2.5,Win32,59.95203837,-22.22222222,4.1282,2.017,NA,NA,NA,NA,NA,happy,"unhappy, happy","less happy, more happy",NA,NA,NA,NA,NA,NA,NA,NA,NA,NA,NA,NA,NA,NA,NA,0,2,2,0,1,NA,NA,NA,NA,NA,NA,NA,NA,NA,NA,NA,NA,NA,NA,NA,NA,NA,NA,NA,NA,NA,NA,NA,NA,NA,NA,NA,NA
SUPAMT24909,3KRVW3HTZTKBNUL2G42WY25CS0MSME,E91CD671-4054-4C06-BF7F-BDD9DE1EC737,2023-09-29_15h49.06.921,WP_VExplicitOC_LH,2022.2.5,Win32,59.95203837,NA,NA,NA,NA,NA,NA,NA,NA,NA,NA,NA,NA,NA,NA,NA,NA,NA,NA,NA,NA,NA,NA,NA,NA,NA,NA,NA,NA,NA,NA,NA,12,0,12,0,1,NA,NA,NA,NA,NA,NA,NA,NA,NA,NA,NA,NA,NA,NA,NA,NA,NA,NA,NA,NA,NA,NA,NA
SUPAMT24909,3KRVW3HTZTKBNUL2G42WY25CS0MSME,E91CD671-4054-4C06-BF7F-BDD9DE1EC737,2023-09-29_15h49.06.921,WP_VExplicitOC_LH,2022.2.5,Win32,59.95203837,-44.07407407,3.2996,2.0142,NA,NA,NA,NA,NA,frustrated,"frustrated, not frustrated","more frustrated, less frustrated",NA,NA,NA,NA,NA,NA,NA,NA,NA,NA,NA,NA,NA,NA,NA,0,0,0,1,1,NA,NA,NA,NA,NA,NA,NA,NA,NA,NA,NA,NA,NA,NA,NA,NA,NA,NA,NA,NA,NA,NA,NA,NA,NA,NA,NA,NA
SUPAMT24909,3KRVW3HTZTKBNUL2G42WY25CS0MSME,E91CD671-4054-4C06-BF7F-BDD9DE1EC737,2023-09-29_15h49.06.921,WP_VExplicitOC_LH,2022.2.5,Win32,59.95203837,-22.22222222,3.7205,2.0001,NA,NA,NA,NA,NA,happy,"unhappy, happy","less happy, more happy",NA,NA,NA,NA,NA,NA,NA,NA,NA,NA,NA,NA,NA,NA,NA,0,1,1,0,1,NA,NA,NA,NA,NA,NA,NA,NA,NA,NA,NA,NA,NA,NA,NA,NA,NA,NA,NA,NA,NA,NA,NA,NA,NA,NA,NA,NA
SUPAMT24909,3KRVW3HTZTKBNUL2G42WY25CS0MSME,E91CD671-4054-4C06-BF7F-BDD9DE1EC737,2023-09-29_15h49.06.921,WP_VExplicitOC_LH,2022.2.5,Win32,59.95203837,-48.14814815,2.7392,2.0165,NA,NA,NA,NA,NA,bored,"bored, not bored","more bored, less bored",NA,NA,NA,NA,NA,NA,NA,NA,NA,NA,NA,NA,NA,NA,NA,0,2,2,2,1,NA,NA,NA,NA,NA,NA,NA,NA,NA,NA,NA,NA,NA,NA,NA,NA,NA,NA,NA,NA,NA,NA,NA,NA,NA,NA,NA,NA
SUPAMT24909,3KRVW3HTZTKBNUL2G42WY25CS0MSME,E91CD671-4054-4C06-BF7F-BDD9DE1EC737,2023-09-29_15h49.06.921,WP_VExplicitOC_LH,2022.2.5,Win32,59.95203837,NA,NA,NA,NA,NA,NA,NA,NA,NA,NA,NA,NA,NA,NA,NA,NA,NA,NA,NA,NA,NA,NA,NA,NA,NA,NA,NA,NA,NA,NA,NA,13,0,13,0,1,NA,NA,NA,NA,NA,NA,NA,NA,NA,NA,NA,NA,NA,NA,NA,NA,NA,NA,NA,NA,NA,NA,NA
SUPAMT24909,3KRVW3HTZTKBNUL2G42WY25CS0MSME,E91CD671-4054-4C06-BF7F-BDD9DE1EC737,2023-09-29_15h49.06.921,WP_VExplicitOC_LH,2022.2.5,Win32,59.95203837,-49.44444444,2.8889,2.0111,NA,NA,NA,NA,NA,bored,"bored, not bored","more bored, less bored",NA,NA,NA,NA,NA,NA,NA,NA,NA,NA,NA,NA,NA,NA,NA,0,0,0,2,1,NA,NA,NA,NA,NA,NA,NA,NA,NA,NA,NA,NA,NA,NA,NA,NA,NA,NA,NA,NA,NA,NA,NA,NA,NA,NA,NA,NA
SUPAMT24909,3KRVW3HTZTKBNUL2G42WY25CS0MSME,E91CD671-4054-4C06-BF7F-BDD9DE1EC737,2023-09-29_15h49.06.921,WP_VExplicitOC_LH,2022.2.5,Win32,59.95203837,-49.81481481,3.188,2.0003,NA,NA,NA,NA,NA,frustrated,"frustrated, not frustrated","more frustrated, less frustrated",NA,NA,NA,NA,NA,NA,NA,NA,NA,NA,NA,NA,NA,NA,NA,0,1,1,1,1,NA,NA,NA,NA,NA,NA,NA,NA,NA,NA,NA,NA,NA,NA,NA,NA,NA,NA,NA,NA,NA,NA,NA,NA,NA,NA,NA,NA
SUPAMT24909,3KRVW3HTZTKBNUL2G42WY25CS0MSME,E91CD671-4054-4C06-BF7F-BDD9DE1EC737,2023-09-29_15h49.06.921,WP_VExplicitOC_LH,2022.2.5,Win32,59.95203837,-53.51851852,3.6919,2.0002,NA,NA,NA,NA,NA,happy,"unhappy, happy","less happy, more happy",NA,NA,NA,NA,NA,NA,NA,NA,NA,NA,NA,NA,NA,NA,NA,0,2,2,0,1,NA,NA,NA,NA,NA,NA,NA,NA,NA,NA,NA,NA,NA,NA,NA,NA,NA,NA,NA,NA,NA,NA,NA,NA,NA,NA,NA,NA
SUPAMT24909,3KRVW3HTZTKBNUL2G42WY25CS0MSME,E91CD671-4054-4C06-BF7F-BDD9DE1EC737,2023-09-29_15h49.06.921,WP_VExplicitOC_LH,2022.2.5,Win32,59.95203837,NA,NA,NA,NA,NA,NA,NA,NA,NA,NA,NA,NA,NA,NA,NA,NA,NA,NA,NA,NA,NA,NA,NA,NA,NA,NA,NA,NA,NA,NA,NA,14,0,14,0,1,NA,NA,NA,NA,NA,NA,NA,NA,NA,NA,NA,NA,NA,NA,NA,NA,NA,NA,NA,NA,NA,NA,NA
SUPAMT24909,3KRVW3HTZTKBNUL2G42WY25CS0MSME,E91CD671-4054-4C06-BF7F-BDD9DE1EC737,2023-09-29_15h49.06.921,WP_VExplicitOC_LH,2022.2.5,Win32,59.95203837,NA,NA,NA,NA,NA,NA,NA,NA,NA,NA,NA,NA,NA,NA,NA,NA,NA,NA,NA,NA,NA,NA,NA,NA,NA,NA,NA,NA,NA,NA,NA,NA,NA,NA,NA,NA,NA,NA,NA,NA,NA,NA,NA,NA,NA,NA,NA,NA,NA,NA,NA,NA,NA,NA,NA,NA,NA,NA,NA
SUPAMT24909,3KRVW3HTZTKBNUL2G42WY25CS0MSME,E91CD671-4054-4C06-BF7F-BDD9DE1EC737,2023-09-29_15h49.06.921,WP_VExplicitOC_LH,2022.2.5,Win32,59.95203837,NA,NA,NA,NA,NA,NA,NA,NA,NA,NA,NA,NA,NA,NA,NA,NA,NA,NA,NA,NA,NA,NA,NA,NA,NA,NA,NA,NA,NA,NA,NA,NA,NA,NA,NA,NA,NA,NA,NA,NA,NA,NA,NA,NA,NA,NA,NA,NA,NA,NA,NA,NA,NA,NA,NA,NA,NA,NA,NA
SUPAMT24909,3KRVW3HTZTKBNUL2G42WY25CS0MSME,E91CD671-4054-4C06-BF7F-BDD9DE1EC737,2023-09-29_15h49.06.921,WP_VExplicitOC_LH,2022.2.5,Win32,59.95203837,NA,NA,NA,NA,NA,NA,NA,NA,NA,NA,NA,NA,NA,NA,NA,NA,NA,NA,rest (looking at a fixed cross),001.png,NA,NA,NA,NA,NA,NA,NA,NA,NA,NA,NA,NA,NA,NA,NA,NA,-73.33333333,3.9201,0,0,0,0,1,NA,NA,NA,NA,NA,NA,NA,NA,NA,NA,NA,NA,NA,NA,NA,NA
SUPAMT24909,3KRVW3HTZTKBNUL2G42WY25CS0MSME,E91CD671-4054-4C06-BF7F-BDD9DE1EC737,2023-09-29_15h49.06.921,WP_VExplicitOC_LH,2022.2.5,Win32,59.95203837,NA,NA,NA,NA,NA,NA,NA,NA,NA,NA,NA,NA,NA,NA,NA,NA,NA,NA,stand up,002.png,NA,NA,NA,NA,NA,NA,NA,NA,NA,NA,NA,NA,NA,NA,NA,NA,81.48148148,2.2149,0,1,1,1,1,NA,NA,NA,NA,NA,NA,NA,NA,NA,NA,NA,NA,NA,NA,NA,NA
SUPAMT24909,3KRVW3HTZTKBNUL2G42WY25CS0MSME,E91CD671-4054-4C06-BF7F-BDD9DE1EC737,2023-09-29_15h49.06.921,WP_VExplicitOC_LH,2022.2.5,Win32,59.95203837,NA,NA,NA,NA,NA,NA,NA,NA,NA,NA,NA,NA,NA,NA,NA,NA,NA,NA,stretch,003.png,NA,NA,NA,NA,NA,NA,NA,NA,NA,NA,NA,NA,NA,NA,NA,NA,86.66666667,1.3032,0,2,2,2,1,NA,NA,NA,NA,NA,NA,NA,NA,NA,NA,NA,NA,NA,NA,NA,NA
SUPAMT24909,3KRVW3HTZTKBNUL2G42WY25CS0MSME,E91CD671-4054-4C06-BF7F-BDD9DE1EC737,2023-09-29_15h49.06.921,WP_VExplicitOC_LH,2022.2.5,Win32,59.95203837,NA,NA,NA,NA,NA,NA,NA,NA,NA,NA,NA,NA,NA,NA,NA,NA,NA,NA,make a drink,004.png,NA,NA,NA,NA,NA,NA,NA,NA,NA,NA,NA,NA,NA,NA,NA,NA,87.77777778,1.4521,0,3,3,3,1,NA,NA,NA,NA,NA,NA,NA,NA,NA,NA,NA,NA,NA,NA,NA,NA
SUPAMT24909,3KRVW3HTZTKBNUL2G42WY25CS0MSME,E91CD671-4054-4C06-BF7F-BDD9DE1EC737,2023-09-29_15h49.06.921,WP_VExplicitOC_LH,2022.2.5,Win32,59.95203837,NA,NA,NA,NA,NA,NA,NA,NA,NA,NA,NA,NA,NA,NA,NA,NA,NA,NA,scroll social media,005.png,NA,NA,NA,NA,NA,NA,NA,NA,NA,NA,NA,NA,NA,NA,NA,NA,100,1.7986,0,4,4,4,1,NA,NA,NA,NA,NA,NA,NA,NA,NA,NA,NA,NA,NA,NA,NA,NA
SUPAMT24909,3KRVW3HTZTKBNUL2G42WY25CS0MSME,E91CD671-4054-4C06-BF7F-BDD9DE1EC737,2023-09-29_15h49.06.921,WP_VExplicitOC_LH,2022.2.5,Win32,59.95203837,NA,NA,NA,NA,NA,NA,NA,NA,NA,NA,NA,NA,NA,NA,NA,NA,NA,NA,listen to music,006.png,NA,NA,NA,NA,NA,NA,NA,NA,NA,NA,NA,NA,NA,NA,NA,NA,100,1.1025,0,5,5,5,1,NA,NA,NA,NA,NA,NA,NA,NA,NA,NA,NA,NA,NA,NA,NA,NA
SUPAMT24909,3KRVW3HTZTKBNUL2G42WY25CS0MSME,E91CD671-4054-4C06-BF7F-BDD9DE1EC737,2023-09-29_15h49.06.921,WP_VExplicitOC_LH,2022.2.5,Win32,59.95203837,NA,NA,NA,NA,NA,NA,NA,NA,NA,NA,NA,NA,NA,NA,NA,NA,NA,NA,daydream,007.png,NA,NA,NA,NA,NA,NA,NA,NA,NA,NA,NA,NA,NA,NA,NA,NA,93.7037037,1.5763,0,6,6,6,1,NA,NA,NA,NA,NA,NA,NA,NA,NA,NA,NA,NA,NA,NA,NA,NA
SUPAMT24909,3KRVW3HTZTKBNUL2G42WY25CS0MSME,E91CD671-4054-4C06-BF7F-BDD9DE1EC737,2023-09-29_15h49.06.921,WP_VExplicitOC_LH,2022.2.5,Win32,59.95203837,NA,NA,NA,NA,NA,NA,NA,NA,NA,NA,NA,NA,NA,NA,NA,NA,NA,NA,watch a short animation,008.png,NA,NA,NA,NA,NA,NA,NA,NA,NA,NA,NA,NA,NA,NA,NA,NA,100,1.5395,0,7,7,7,1,NA,NA,NA,NA,NA,NA,NA,NA,NA,NA,NA,NA,NA,NA,NA,NA
SUPAMT24909,3KRVW3HTZTKBNUL2G42WY25CS0MSME,E91CD671-4054-4C06-BF7F-BDD9DE1EC737,2023-09-29_15h49.06.921,WP_VExplicitOC_LH,2022.2.5,Win32,59.95203837,NA,NA,NA,NA,NA,NA,NA,NA,NA,NA,NA,NA,NA,NA,NA,NA,NA,NA,read a novel,009.png,NA,NA,NA,NA,NA,NA,NA,NA,NA,NA,NA,NA,NA,NA,NA,NA,-76.85185185,1.8008,0,8,8,8,1,NA,NA,NA,NA,NA,NA,NA,NA,NA,NA,NA,NA,NA,NA,NA,NA
SUPAMT24909,3KRVW3HTZTKBNUL2G42WY25CS0MSME,E91CD671-4054-4C06-BF7F-BDD9DE1EC737,2023-09-29_15h49.06.921,WP_VExplicitOC_LH,2022.2.5,Win32,59.95203837,NA,NA,NA,NA,NA,NA,NA,NA,NA,NA,NA,NA,NA,NA,NA,NA,NA,NA,read the news,010.png,NA,NA,NA,NA,NA,NA,NA,NA,NA,NA,NA,NA,NA,NA,NA,NA,76.48148148,1.6755,0,9,9,9,1,NA,NA,NA,NA,NA,NA,NA,NA,NA,NA,NA,NA,NA,NA,NA,NA
SUPAMT24909,3KRVW3HTZTKBNUL2G42WY25CS0MSME,E91CD671-4054-4C06-BF7F-BDD9DE1EC737,2023-09-29_15h49.06.921,WP_VExplicitOC_LH,2022.2.5,Win32,59.95203837,NA,NA,NA,NA,NA,NA,NA,NA,NA,NA,NA,NA,NA,NA,NA,NA,NA,NA,NA,NA,NA,NA,NA,NA,NA,NA,NA,NA,NA,NA,NA,NA,NA,NA,NA,NA,NA,NA,NA,NA,NA,NA,NA,scroll social media,NA,NA,NA,NA,NA,NA,NA,NA,NA,NA,NA,NA,NA,NA,NA
SUPAMT24909,3KRVW3HTZTKBNUL2G42WY25CS0MSME,E91CD671-4054-4C06-BF7F-BDD9DE1EC737,2023-09-29_15h49.06.921,WP_VExplicitOC_LH,2022.2.5,Win32,59.95203837,-100,4.1453,2.0139,NA,NA,NA,NA,NA,frustrated,"frustrated, not frustrated","more frustrated, less frustrated",NA,NA,NA,NA,NA,NA,NA,NA,NA,NA,NA,NA,NA,NA,NA,NA,NA,NA,NA,NA,NA,NA,NA,NA,NA,NA,NA,NA,NA,NA,NA,NA,NA,0,0,0,1,1,NA,NA,NA,NA,NA,NA,NA,NA,NA,NA
SUPAMT24909,3KRVW3HTZTKBNUL2G42WY25CS0MSME,E91CD671-4054-4C06-BF7F-BDD9DE1EC737,2023-09-29_15h49.06.921,WP_VExplicitOC_LH,2022.2.5,Win32,59.95203837,-58.7037037,2.8706,2.0132,NA,NA,NA,NA,NA,bored,"bored, not bored","more bored, less bored",NA,NA,NA,NA,NA,NA,NA,NA,NA,NA,NA,NA,NA,NA,NA,NA,NA,NA,NA,NA,NA,NA,NA,NA,NA,NA,NA,NA,NA,NA,NA,NA,NA,0,1,1,2,1,NA,NA,NA,NA,NA,NA,NA,NA,NA,NA
SUPAMT24909,3KRVW3HTZTKBNUL2G42WY25CS0MSME,E91CD671-4054-4C06-BF7F-BDD9DE1EC737,2023-09-29_15h49.06.921,WP_VExplicitOC_LH,2022.2.5,Win32,59.95203837,-50.55555556,4.1173,2.0001,NA,NA,NA,NA,NA,happy,"unhappy, happy","less happy, more happy",NA,NA,NA,NA,NA,NA,NA,NA,NA,NA,NA,NA,NA,NA,NA,NA,NA,NA,NA,NA,NA,NA,NA,NA,NA,NA,NA,NA,NA,NA,NA,NA,NA,0,2,2,0,1,NA,NA,NA,NA,NA,NA,NA,NA,NA,NA
SUPAMT24909,3KRVW3HTZTKBNUL2G42WY25CS0MSME,E91CD671-4054-4C06-BF7F-BDD9DE1EC737,2023-09-29_15h49.06.921,WP_VExplicitOC_LH,2022.2.5,Win32,59.95203837,NA,NA,NA,NA,NA,NA,NA,NA,NA,NA,NA,NA,NA,NA,NA,NA,NA,NA,NA,NA,NA,NA,NA,NA,NA,NA,NA,NA,NA,NA,NA,NA,NA,NA,NA,NA,NA,NA,NA,NA,NA,NA,NA,NA,NA,NA,NA,NA,NA,NA,NA,NA,NA,NA,NA,NA,NA,NA,NA
SUPAMT24909,3KRVW3HTZTKBNUL2G42WY25CS0MSME,E91CD671-4054-4C06-BF7F-BDD9DE1EC737,2023-09-29_15h49.06.921,WP_VExplicitOC_LH,2022.2.5,Win32,59.95203837,NA,NA,NA,NA,NA,NA,NA,NA,NA,NA,NA,NA,NA,NA,NA,NA,NA,NA,NA,NA,NA,NA,NA,NA,NA,NA,NA,NA,NA,NA,NA,NA,NA,NA,NA,NA,NA,NA,NA,NA,NA,NA,NA,NA,NA,NA,NA,NA,NA,NA,NA,NA,NA,NA,NA,NA,NA,NA,NA
SUPAMT24909,3KRVW3HTZTKBNUL2G42WY25CS0MSME,E91CD671-4054-4C06-BF7F-BDD9DE1EC737,2023-09-29_15h49.06.921,WP_VExplicitOC_LH,2022.2.5,Win32,59.95203837,-54.25925926,2.6225,2.0035,NA,NA,NA,NA,NA,frustrated,"frustrated, not frustrated","more frustrated, less frustrated",NA,NA,NA,NA,NA,NA,NA,NA,NA,NA,NA,NA,NA,NA,NA,NA,NA,NA,NA,NA,NA,NA,NA,NA,NA,NA,NA,NA,NA,NA,NA,NA,NA,NA,NA,NA,NA,NA,0,0,0,1,1,NA,NA,NA,NA,NA
SUPAMT24909,3KRVW3HTZTKBNUL2G42WY25CS0MSME,E91CD671-4054-4C06-BF7F-BDD9DE1EC737,2023-09-29_15h49.06.921,WP_VExplicitOC_LH,2022.2.5,Win32,59.95203837,-44.07407407,2.5691,2.0001,NA,NA,NA,NA,NA,bored,"bored, not bored","more bored, less bored",NA,NA,NA,NA,NA,NA,NA,NA,NA,NA,NA,NA,NA,NA,NA,NA,NA,NA,NA,NA,NA,NA,NA,NA,NA,NA,NA,NA,NA,NA,NA,NA,NA,NA,NA,NA,NA,NA,0,1,1,2,1,NA,NA,NA,NA,NA
SUPAMT24909,3KRVW3HTZTKBNUL2G42WY25CS0MSME,E91CD671-4054-4C06-BF7F-BDD9DE1EC737,2023-09-29_15h49.06.921,WP_VExplicitOC_LH,2022.2.5,Win32,59.95203837,-39.81481481,2.7619,2.0004,NA,NA,NA,NA,NA,happy,"unhappy, happy","less happy, more happy",NA,NA,NA,NA,NA,NA,NA,NA,NA,NA,NA,NA,NA,NA,NA,NA,NA,NA,NA,NA,NA,NA,NA,NA,NA,NA,NA,NA,NA,NA,NA,NA,NA,NA,NA,NA,NA,NA,0,2,2,0,1,NA,NA,NA,NA,NA
SUPAMT24909,3KRVW3HTZTKBNUL2G42WY25CS0MSME,E91CD671-4054-4C06-BF7F-BDD9DE1EC737,2023-09-29_15h49.06.921,WP_VExplicitOC_LH,2022.2.5,Win32,59.95203837,NA,NA,NA,NA,NA,NA,NA,NA,NA,NA,NA,NA,NA,NA,NA,NA,NA,NA,NA,NA,NA,NA,NA,NA,NA,NA,NA,NA,NA,NA,NA,NA,NA,NA,NA,NA,NA,NA,NA,NA,NA,NA,NA,NA,NA,NA,NA,NA,NA,NA,NA,NA,NA,NA,0,0,0,0,1
SUPAMT24909,3KRVW3HTZTKBNUL2G42WY25CS0MSME,E91CD671-4054-4C06-BF7F-BDD9DE1EC737,2023-09-29_15h49.06.921,WP_VExplicitOC_LH,2022.2.5,Win32,59.95203837,-46.2962963,3.6708,2.0086,NA,NA,NA,NA,NA,happy,"unhappy, happy","less happy, more happy",NA,NA,NA,NA,NA,NA,NA,NA,NA,NA,NA,NA,NA,NA,NA,NA,NA,NA,NA,NA,NA,NA,NA,NA,NA,NA,NA,NA,NA,NA,NA,NA,NA,NA,NA,NA,NA,NA,0,0,0,0,1,NA,NA,NA,NA,NA
SUPAMT24909,3KRVW3HTZTKBNUL2G42WY25CS0MSME,E91CD671-4054-4C06-BF7F-BDD9DE1EC737,2023-09-29_15h49.06.921,WP_VExplicitOC_LH,2022.2.5,Win32,59.95203837,-48.7037037,3.0105,2.0003,NA,NA,NA,NA,NA,bored,"bored, not bored","more bored, less bored",NA,NA,NA,NA,NA,NA,NA,NA,NA,NA,NA,NA,NA,NA,NA,NA,NA,NA,NA,NA,NA,NA,NA,NA,NA,NA,NA,NA,NA,NA,NA,NA,NA,NA,NA,NA,NA,NA,0,1,1,2,1,NA,NA,NA,NA,NA
SUPAMT24909,3KRVW3HTZTKBNUL2G42WY25CS0MSME,E91CD671-4054-4C06-BF7F-BDD9DE1EC737,2023-09-29_15h49.06.921,WP_VExplicitOC_LH,2022.2.5,Win32,59.95203837,-48.7037037,2.9616,2.0002,NA,NA,NA,NA,NA,frustrated,"frustrated, not frustrated","more frustrated, less frustrated",NA,NA,NA,NA,NA,NA,NA,NA,NA,NA,NA,NA,NA,NA,NA,NA,NA,NA,NA,NA,NA,NA,NA,NA,NA,NA,NA,NA,NA,NA,NA,NA,NA,NA,NA,NA,NA,NA,0,2,2,1,1,NA,NA,NA,NA,NA
SUPAMT24909,3KRVW3HTZTKBNUL2G42WY25CS0MSME,E91CD671-4054-4C06-BF7F-BDD9DE1EC737,2023-09-29_15h49.06.921,WP_VExplicitOC_LH,2022.2.5,Win32,59.95203837,NA,NA,NA,NA,NA,NA,NA,NA,NA,NA,NA,NA,NA,NA,NA,NA,NA,NA,NA,NA,NA,NA,NA,NA,NA,NA,NA,NA,NA,NA,NA,NA,NA,NA,NA,NA,NA,NA,NA,NA,NA,NA,NA,NA,NA,NA,NA,NA,NA,NA,NA,NA,NA,NA,1,0,1,0,1
SUPAMT24909,3KRVW3HTZTKBNUL2G42WY25CS0MSME,E91CD671-4054-4C06-BF7F-BDD9DE1EC737,2023-09-29_15h49.06.921,WP_VExplicitOC_LH,2022.2.5,Win32,59.95203837,-56.2962963,2.8753,2.0057,NA,NA,NA,NA,NA,bored,"bored, not bored","more bored, less bored",NA,NA,NA,NA,NA,NA,NA,NA,NA,NA,NA,NA,NA,NA,NA,NA,NA,NA,NA,NA,NA,NA,NA,NA,NA,NA,NA,NA,NA,NA,NA,NA,NA,NA,NA,NA,NA,NA,0,0,0,2,1,NA,NA,NA,NA,NA
SUPAMT24909,3KRVW3HTZTKBNUL2G42WY25CS0MSME,E91CD671-4054-4C06-BF7F-BDD9DE1EC737,2023-09-29_15h49.06.921,WP_VExplicitOC_LH,2022.2.5,Win32,59.95203837,-55,2.9551,2.0003,NA,NA,NA,NA,NA,frustrated,"frustrated, not frustrated","more frustrated, less frustrated",NA,NA,NA,NA,NA,NA,NA,NA,NA,NA,NA,NA,NA,NA,NA,NA,NA,NA,NA,NA,NA,NA,NA,NA,NA,NA,NA,NA,NA,NA,NA,NA,NA,NA,NA,NA,NA,NA,0,1,1,1,1,NA,NA,NA,NA,NA
SUPAMT24909,3KRVW3HTZTKBNUL2G42WY25CS0MSME,E91CD671-4054-4C06-BF7F-BDD9DE1EC737,2023-09-29_15h49.06.921,WP_VExplicitOC_LH,2022.2.5,Win32,59.95203837,-67.40740741,3.4363,2.0003,NA,NA,NA,NA,NA,happy,"unhappy, happy","less happy, more happy",NA,NA,NA,NA,NA,NA,NA,NA,NA,NA,NA,NA,NA,NA,NA,NA,NA,NA,NA,NA,NA,NA,NA,NA,NA,NA,NA,NA,NA,NA,NA,NA,NA,NA,NA,NA,NA,NA,0,2,2,0,1,NA,NA,NA,NA,NA
SUPAMT24909,3KRVW3HTZTKBNUL2G42WY25CS0MSME,E91CD671-4054-4C06-BF7F-BDD9DE1EC737,2023-09-29_15h49.06.921,WP_VExplicitOC_LH,2022.2.5,Win32,59.95203837,NA,NA,NA,NA,NA,NA,NA,NA,NA,NA,NA,NA,NA,NA,NA,NA,NA,NA,NA,NA,NA,NA,NA,NA,NA,NA,NA,NA,NA,NA,NA,NA,NA,NA,NA,NA,NA,NA,NA,NA,NA,NA,NA,NA,NA,NA,NA,NA,NA,NA,NA,NA,NA,NA,2,0,2,0,1
SUPAMT24909,3KRVW3HTZTKBNUL2G42WY25CS0MSME,E91CD671-4054-4C06-BF7F-BDD9DE1EC737,2023-09-29_15h49.06.921,WP_VExplicitOC_LH,2022.2.5,Win32,59.95203837,-57.03703704,2.7003,2.0107,NA,NA,NA,NA,NA,frustrated,"frustrated, not frustrated","more frustrated, less frustrated",NA,NA,NA,NA,NA,NA,NA,NA,NA,NA,NA,NA,NA,NA,NA,NA,NA,NA,NA,NA,NA,NA,NA,NA,NA,NA,NA,NA,NA,NA,NA,NA,NA,NA,NA,NA,NA,NA,0,0,0,1,1,NA,NA,NA,NA,NA
SUPAMT24909,3KRVW3HTZTKBNUL2G42WY25CS0MSME,E91CD671-4054-4C06-BF7F-BDD9DE1EC737,2023-09-29_15h49.06.921,WP_VExplicitOC_LH,2022.2.5,Win32,59.95203837,-39.44444444,5.2727,2.0002,NA,NA,NA,NA,NA,bored,"bored, not bored","more bored, less bored",NA,NA,NA,NA,NA,NA,NA,NA,NA,NA,NA,NA,NA,NA,NA,NA,NA,NA,NA,NA,NA,NA,NA,NA,NA,NA,NA,NA,NA,NA,NA,NA,NA,NA,NA,NA,NA,NA,0,1,1,2,1,NA,NA,NA,NA,NA
SUPAMT24909,3KRVW3HTZTKBNUL2G42WY25CS0MSME,E91CD671-4054-4C06-BF7F-BDD9DE1EC737,2023-09-29_15h49.06.921,WP_VExplicitOC_LH,2022.2.5,Win32,59.95203837,-75.92592593,3.5171,2.0002,NA,NA,NA,NA,NA,happy,"unhappy, happy","less happy, more happy",NA,NA,NA,NA,NA,NA,NA,NA,NA,NA,NA,NA,NA,NA,NA,NA,NA,NA,NA,NA,NA,NA,NA,NA,NA,NA,NA,NA,NA,NA,NA,NA,NA,NA,NA,NA,NA,NA,0,2,2,0,1,NA,NA,NA,NA,NA
SUPAMT24909,3KRVW3HTZTKBNUL2G42WY25CS0MSME,E91CD671-4054-4C06-BF7F-BDD9DE1EC737,2023-09-29_15h49.06.921,WP_VExplicitOC_LH,2022.2.5,Win32,59.95203837,NA,NA,NA,NA,NA,NA,NA,NA,NA,NA,NA,NA,NA,NA,NA,NA,NA,NA,NA,NA,NA,NA,NA,NA,NA,NA,NA,NA,NA,NA,NA,NA,NA,NA,NA,NA,NA,NA,NA,NA,NA,NA,NA,NA,NA,NA,NA,NA,NA,NA,NA,NA,NA,NA,3,0,3,0,1
SUPAMT24909,3KRVW3HTZTKBNUL2G42WY25CS0MSME,E91CD671-4054-4C06-BF7F-BDD9DE1EC737,2023-09-29_15h49.06.921,WP_VExplicitOC_LH,2022.2.5,Win32,59.95203837,-86.85185185,2.8772,2.0037,NA,NA,NA,NA,NA,bored,"bored, not bored","more bored, less bored",NA,NA,NA,NA,NA,NA,NA,NA,NA,NA,NA,NA,NA,NA,NA,NA,NA,NA,NA,NA,NA,NA,NA,NA,NA,NA,NA,NA,NA,NA,NA,NA,NA,NA,NA,NA,NA,NA,0,0,0,2,1,NA,NA,NA,NA,NA
SUPAMT24909,3KRVW3HTZTKBNUL2G42WY25CS0MSME,E91CD671-4054-4C06-BF7F-BDD9DE1EC737,2023-09-29_15h49.06.921,WP_VExplicitOC_LH,2022.2.5,Win32,59.95203837,-85.37037037,3.1509,2.0003,NA,NA,NA,NA,NA,frustrated,"frustrated, not frustrated","more frustrated, less frustrated",NA,NA,NA,NA,NA,NA,NA,NA,NA,NA,NA,NA,NA,NA,NA,NA,NA,NA,NA,NA,NA,NA,NA,NA,NA,NA,NA,NA,NA,NA,NA,NA,NA,NA,NA,NA,NA,NA,0,1,1,1,1,NA,NA,NA,NA,NA
SUPAMT24909,3KRVW3HTZTKBNUL2G42WY25CS0MSME,E91CD671-4054-4C06-BF7F-BDD9DE1EC737,2023-09-29_15h49.06.921,WP_VExplicitOC_LH,2022.2.5,Win32,59.95203837,-70.55555556,2.9113,2.0004,NA,NA,NA,NA,NA,happy,"unhappy, happy","less happy, more happy",NA,NA,NA,NA,NA,NA,NA,NA,NA,NA,NA,NA,NA,NA,NA,NA,NA,NA,NA,NA,NA,NA,NA,NA,NA,NA,NA,NA,NA,NA,NA,NA,NA,NA,NA,NA,NA,NA,0,2,2,0,1,NA,NA,NA,NA,NA
SUPAMT24909,3KRVW3HTZTKBNUL2G42WY25CS0MSME,E91CD671-4054-4C06-BF7F-BDD9DE1EC737,2023-09-29_15h49.06.921,WP_VExplicitOC_LH,2022.2.5,Win32,59.95203837,NA,NA,NA,NA,NA,NA,NA,NA,NA,NA,NA,NA,NA,NA,NA,NA,NA,NA,NA,NA,NA,NA,NA,NA,NA,NA,NA,NA,NA,NA,NA,NA,NA,NA,NA,NA,NA,NA,NA,NA,NA,NA,NA,NA,NA,NA,NA,NA,NA,NA,NA,NA,NA,NA,4,0,4,0,1
SUPAMT24909,3KRVW3HTZTKBNUL2G42WY25CS0MSME,E91CD671-4054-4C06-BF7F-BDD9DE1EC737,2023-09-29_15h49.06.921,WP_VExplicitOC_LH,2022.2.5,Win32,59.95203837,-99.07407407,3.2794,2.0028,NA,NA,NA,NA,NA,frustrated,"frustrated, not frustrated","more frustrated, less frustrated",NA,NA,NA,NA,NA,NA,NA,NA,NA,NA,NA,NA,NA,NA,NA,NA,NA,NA,NA,NA,NA,NA,NA,NA,NA,NA,NA,NA,NA,NA,NA,NA,NA,NA,NA,NA,NA,NA,0,0,0,1,1,NA,NA,NA,NA,NA
SUPAMT24909,3KRVW3HTZTKBNUL2G42WY25CS0MSME,E91CD671-4054-4C06-BF7F-BDD9DE1EC737,2023-09-29_15h49.06.921,WP_VExplicitOC_LH,2022.2.5,Win32,59.95203837,-98.7037037,3.3698,2,NA,NA,NA,NA,NA,bored,"bored, not bored","more bored, less bored",NA,NA,NA,NA,NA,NA,NA,NA,NA,NA,NA,NA,NA,NA,NA,NA,NA,NA,NA,NA,NA,NA,NA,NA,NA,NA,NA,NA,NA,NA,NA,NA,NA,NA,NA,NA,NA,NA,0,1,1,2,1,NA,NA,NA,NA,NA
SUPAMT24909,3KRVW3HTZTKBNUL2G42WY25CS0MSME,E91CD671-4054-4C06-BF7F-BDD9DE1EC737,2023-09-29_15h49.06.921,WP_VExplicitOC_LH,2022.2.5,Win32,59.95203837,-84.44444444,3.3224,2.0004,NA,NA,NA,NA,NA,happy,"unhappy, happy","less happy, more happy",NA,NA,NA,NA,NA,NA,NA,NA,NA,NA,NA,NA,NA,NA,NA,NA,NA,NA,NA,NA,NA,NA,NA,NA,NA,NA,NA,NA,NA,NA,NA,NA,NA,NA,NA,NA,NA,NA,0,2,2,0,1,NA,NA,NA,NA,NA
SUPAMT24909,3KRVW3HTZTKBNUL2G42WY25CS0MSME,E91CD671-4054-4C06-BF7F-BDD9DE1EC737,2023-09-29_15h49.06.921,WP_VExplicitOC_LH,2022.2.5,Win32,59.95203837,NA,NA,NA,NA,NA,NA,NA,NA,NA,NA,NA,NA,NA,NA,NA,NA,NA,NA,NA,NA,NA,NA,NA,NA,NA,NA,NA,NA,NA,NA,NA,NA,NA,NA,NA,NA,NA,NA,NA,NA,NA,NA,NA,NA,NA,NA,NA,NA,NA,NA,NA,NA,NA,NA,5,0,5,0,1
SUPAMT24909,3KRVW3HTZTKBNUL2G42WY25CS0MSME,E91CD671-4054-4C06-BF7F-BDD9DE1EC737,2023-09-29_15h49.06.921,WP_VExplicitOC_LH,2022.2.5,Win32,59.95203837,-66.66666667,2.7145,2.0134,NA,NA,NA,NA,NA,happy,"unhappy, happy","less happy, more happy",NA,NA,NA,NA,NA,NA,NA,NA,NA,NA,NA,NA,NA,NA,NA,NA,NA,NA,NA,NA,NA,NA,NA,NA,NA,NA,NA,NA,NA,NA,NA,NA,NA,NA,NA,NA,NA,NA,0,0,0,0,1,NA,NA,NA,NA,NA
SUPAMT24909,3KRVW3HTZTKBNUL2G42WY25CS0MSME,E91CD671-4054-4C06-BF7F-BDD9DE1EC737,2023-09-29_15h49.06.921,WP_VExplicitOC_LH,2022.2.5,Win32,59.95203837,-81.66666667,4.9144,2.0003,NA,NA,NA,NA,NA,bored,"bored, not bored","more bored, less bored",NA,NA,NA,NA,NA,NA,NA,NA,NA,NA,NA,NA,NA,NA,NA,NA,NA,NA,NA,NA,NA,NA,NA,NA,NA,NA,NA,NA,NA,NA,NA,NA,NA,NA,NA,NA,NA,NA,0,1,1,2,1,NA,NA,NA,NA,NA
SUPAMT24909,3KRVW3HTZTKBNUL2G42WY25CS0MSME,E91CD671-4054-4C06-BF7F-BDD9DE1EC737,2023-09-29_15h49.06.921,WP_VExplicitOC_LH,2022.2.5,Win32,59.95203837,-85.92592593,3.3183,2.0001,NA,NA,NA,NA,NA,frustrated,"frustrated, not frustrated","more frustrated, less frustrated",NA,NA,NA,NA,NA,NA,NA,NA,NA,NA,NA,NA,NA,NA,NA,NA,NA,NA,NA,NA,NA,NA,NA,NA,NA,NA,NA,NA,NA,NA,NA,NA,NA,NA,NA,NA,NA,NA,0,2,2,1,1,NA,NA,NA,NA,NA
SUPAMT24909,3KRVW3HTZTKBNUL2G42WY25CS0MSME,E91CD671-4054-4C06-BF7F-BDD9DE1EC737,2023-09-29_15h49.06.921,WP_VExplicitOC_LH,2022.2.5,Win32,59.95203837,NA,NA,NA,NA,NA,NA,NA,NA,NA,NA,NA,NA,NA,NA,NA,NA,NA,NA,NA,NA,NA,NA,NA,NA,NA,NA,NA,NA,NA,NA,NA,NA,NA,NA,NA,NA,NA,NA,NA,NA,NA,NA,NA,NA,NA,NA,NA,NA,NA,NA,NA,NA,NA,NA,6,0,6,0,1
SUPAMT24909,3KRVW3HTZTKBNUL2G42WY25CS0MSME,E91CD671-4054-4C06-BF7F-BDD9DE1EC737,2023-09-29_15h49.06.921,WP_VExplicitOC_LH,2022.2.5,Win32,59.95203837,-100,2.9863,2.0162,NA,NA,NA,NA,NA,bored,"bored, not bored","more bored, less bored",NA,NA,NA,NA,NA,NA,NA,NA,NA,NA,NA,NA,NA,NA,NA,NA,NA,NA,NA,NA,NA,NA,NA,NA,NA,NA,NA,NA,NA,NA,NA,NA,NA,NA,NA,NA,NA,NA,0,0,0,2,1,NA,NA,NA,NA,NA
SUPAMT24909,3KRVW3HTZTKBNUL2G42WY25CS0MSME,E91CD671-4054-4C06-BF7F-BDD9DE1EC737,2023-09-29_15h49.06.921,WP_VExplicitOC_LH,2022.2.5,Win32,59.95203837,-100,3.2514,2.0001,NA,NA,NA,NA,NA,happy,"unhappy, happy","less happy, more happy",NA,NA,NA,NA,NA,NA,NA,NA,NA,NA,NA,NA,NA,NA,NA,NA,NA,NA,NA,NA,NA,NA,NA,NA,NA,NA,NA,NA,NA,NA,NA,NA,NA,NA,NA,NA,NA,NA,0,1,1,0,1,NA,NA,NA,NA,NA
SUPAMT24909,3KRVW3HTZTKBNUL2G42WY25CS0MSME,E91CD671-4054-4C06-BF7F-BDD9DE1EC737,2023-09-29_15h49.06.921,WP_VExplicitOC_LH,2022.2.5,Win32,59.95203837,-100,2.7524,2.0004,NA,NA,NA,NA,NA,frustrated,"frustrated, not frustrated","more frustrated, less frustrated",NA,NA,NA,NA,NA,NA,NA,NA,NA,NA,NA,NA,NA,NA,NA,NA,NA,NA,NA,NA,NA,NA,NA,NA,NA,NA,NA,NA,NA,NA,NA,NA,NA,NA,NA,NA,NA,NA,0,2,2,1,1,NA,NA,NA,NA,NA
SUPAMT24909,3KRVW3HTZTKBNUL2G42WY25CS0MSME,E91CD671-4054-4C06-BF7F-BDD9DE1EC737,2023-09-29_15h49.06.921,WP_VExplicitOC_LH,2022.2.5,Win32,59.95203837,NA,NA,NA,NA,NA,NA,NA,NA,NA,NA,NA,NA,NA,NA,NA,NA,NA,NA,NA,NA,NA,NA,NA,NA,NA,NA,NA,NA,NA,NA,NA,NA,NA,NA,NA,NA,NA,NA,NA,NA,NA,NA,NA,NA,NA,NA,NA,NA,NA,NA,NA,NA,NA,NA,7,0,7,0,1
SUPAMT24909,3KRVW3HTZTKBNUL2G42WY25CS0MSME,E91CD671-4054-4C06-BF7F-BDD9DE1EC737,2023-09-29_15h49.06.921,WP_VExplicitOC_LH,2022.2.5,Win32,59.95203837,-100,2.9294,2.0053,NA,NA,NA,NA,NA,bored,"bored, not bored","more bored, less bored",NA,NA,NA,NA,NA,NA,NA,NA,NA,NA,NA,NA,NA,NA,NA,NA,NA,NA,NA,NA,NA,NA,NA,NA,NA,NA,NA,NA,NA,NA,NA,NA,NA,NA,NA,NA,NA,NA,0,0,0,2,1,NA,NA,NA,NA,NA
SUPAMT24909,3KRVW3HTZTKBNUL2G42WY25CS0MSME,E91CD671-4054-4C06-BF7F-BDD9DE1EC737,2023-09-29_15h49.06.921,WP_VExplicitOC_LH,2022.2.5,Win32,59.95203837,-97.22222222,4.5898,2.0032,NA,NA,NA,NA,NA,happy,"unhappy, happy","less happy, more happy",NA,NA,NA,NA,NA,NA,NA,NA,NA,NA,NA,NA,NA,NA,NA,NA,NA,NA,NA,NA,NA,NA,NA,NA,NA,NA,NA,NA,NA,NA,NA,NA,NA,NA,NA,NA,NA,NA,0,1,1,0,1,NA,NA,NA,NA,NA
SUPAMT24909,3KRVW3HTZTKBNUL2G42WY25CS0MSME,E91CD671-4054-4C06-BF7F-BDD9DE1EC737,2023-09-29_15h49.06.921,WP_VExplicitOC_LH,2022.2.5,Win32,59.95203837,-100,3.5259,2.0003,NA,NA,NA,NA,NA,frustrated,"frustrated, not frustrated","more frustrated, less frustrated",NA,NA,NA,NA,NA,NA,NA,NA,NA,NA,NA,NA,NA,NA,NA,NA,NA,NA,NA,NA,NA,NA,NA,NA,NA,NA,NA,NA,NA,NA,NA,NA,NA,NA,NA,NA,NA,NA,0,2,2,1,1,NA,NA,NA,NA,NA
SUPAMT24909,3KRVW3HTZTKBNUL2G42WY25CS0MSME,E91CD671-4054-4C06-BF7F-BDD9DE1EC737,2023-09-29_15h49.06.921,WP_VExplicitOC_LH,2022.2.5,Win32,59.95203837,NA,NA,NA,NA,NA,NA,NA,NA,NA,NA,NA,NA,NA,NA,NA,NA,NA,NA,NA,NA,NA,NA,NA,NA,NA,NA,NA,NA,NA,NA,NA,NA,NA,NA,NA,NA,NA,NA,NA,NA,NA,NA,NA,NA,NA,NA,NA,NA,NA,NA,NA,NA,NA,NA,8,0,8,0,1
SUPAMT24909,3KRVW3HTZTKBNUL2G42WY25CS0MSME,E91CD671-4054-4C06-BF7F-BDD9DE1EC737,2023-09-29_15h49.06.921,WP_VExplicitOC_LH,2022.2.5,Win32,59.95203837,-63.14814815,4.2622,2.0083,NA,NA,NA,NA,NA,happy,"unhappy, happy","less happy, more happy",NA,NA,NA,NA,NA,NA,NA,NA,NA,NA,NA,NA,NA,NA,NA,NA,NA,NA,NA,NA,NA,NA,NA,NA,NA,NA,NA,NA,NA,NA,NA,NA,NA,NA,NA,NA,NA,NA,0,0,0,0,1,NA,NA,NA,NA,NA
SUPAMT24909,3KRVW3HTZTKBNUL2G42WY25CS0MSME,E91CD671-4054-4C06-BF7F-BDD9DE1EC737,2023-09-29_15h49.06.921,WP_VExplicitOC_LH,2022.2.5,Win32,59.95203837,-66.85185185,3.3873,2.0002,NA,NA,NA,NA,NA,frustrated,"frustrated, not frustrated","more frustrated, less frustrated",NA,NA,NA,NA,NA,NA,NA,NA,NA,NA,NA,NA,NA,NA,NA,NA,NA,NA,NA,NA,NA,NA,NA,NA,NA,NA,NA,NA,NA,NA,NA,NA,NA,NA,NA,NA,NA,NA,0,1,1,1,1,NA,NA,NA,NA,NA
SUPAMT24909,3KRVW3HTZTKBNUL2G42WY25CS0MSME,E91CD671-4054-4C06-BF7F-BDD9DE1EC737,2023-09-29_15h49.06.921,WP_VExplicitOC_LH,2022.2.5,Win32,59.95203837,-100,3.9048,2.0004,NA,NA,NA,NA,NA,bored,"bored, not bored","more bored, less bored",NA,NA,NA,NA,NA,NA,NA,NA,NA,NA,NA,NA,NA,NA,NA,NA,NA,NA,NA,NA,NA,NA,NA,NA,NA,NA,NA,NA,NA,NA,NA,NA,NA,NA,NA,NA,NA,NA,0,2,2,2,1,NA,NA,NA,NA,NA
SUPAMT24909,3KRVW3HTZTKBNUL2G42WY25CS0MSME,E91CD671-4054-4C06-BF7F-BDD9DE1EC737,2023-09-29_15h49.06.921,WP_VExplicitOC_LH,2022.2.5,Win32,59.95203837,NA,NA,NA,NA,NA,NA,NA,NA,NA,NA,NA,NA,NA,NA,NA,NA,NA,NA,NA,NA,NA,NA,NA,NA,NA,NA,NA,NA,NA,NA,NA,NA,NA,NA,NA,NA,NA,NA,NA,NA,NA,NA,NA,NA,NA,NA,NA,NA,NA,NA,NA,NA,NA,NA,9,0,9,0,1
SUPAMT24909,3KRVW3HTZTKBNUL2G42WY25CS0MSME,E91CD671-4054-4C06-BF7F-BDD9DE1EC737,2023-09-29_15h49.06.921,WP_VExplicitOC_LH,2022.2.5,Win32,59.95203837,-69.44444444,2.9346,2.0001,NA,NA,NA,NA,NA,bored,"bored, not bored","more bored, less bored",NA,NA,NA,NA,NA,NA,NA,NA,NA,NA,NA,NA,NA,NA,NA,NA,NA,NA,NA,NA,NA,NA,NA,NA,NA,NA,NA,NA,NA,NA,NA,NA,NA,NA,NA,NA,NA,NA,0,0,0,2,1,NA,NA,NA,NA,NA
SUPAMT24909,3KRVW3HTZTKBNUL2G42WY25CS0MSME,E91CD671-4054-4C06-BF7F-BDD9DE1EC737,2023-09-29_15h49.06.921,WP_VExplicitOC_LH,2022.2.5,Win32,59.95203837,-69.81481481,3.1769,2.0002,NA,NA,NA,NA,NA,frustrated,"frustrated, not frustrated","more frustrated, less frustrated",NA,NA,NA,NA,NA,NA,NA,NA,NA,NA,NA,NA,NA,NA,NA,NA,NA,NA,NA,NA,NA,NA,NA,NA,NA,NA,NA,NA,NA,NA,NA,NA,NA,NA,NA,NA,NA,NA,0,1,1,1,1,NA,NA,NA,NA,NA
SUPAMT24909,3KRVW3HTZTKBNUL2G42WY25CS0MSME,E91CD671-4054-4C06-BF7F-BDD9DE1EC737,2023-09-29_15h49.06.921,WP_VExplicitOC_LH,2022.2.5,Win32,59.95203837,-83.7037037,3.3125,2.0003,NA,NA,NA,NA,NA,happy,"unhappy, happy","less happy, more happy",NA,NA,NA,NA,NA,NA,NA,NA,NA,NA,NA,NA,NA,NA,NA,NA,NA,NA,NA,NA,NA,NA,NA,NA,NA,NA,NA,NA,NA,NA,NA,NA,NA,NA,NA,NA,NA,NA,0,2,2,0,1,NA,NA,NA,NA,NA
SUPAMT24909,3KRVW3HTZTKBNUL2G42WY25CS0MSME,E91CD671-4054-4C06-BF7F-BDD9DE1EC737,2023-09-29_15h49.06.921,WP_VExplicitOC_LH,2022.2.5,Win32,59.95203837,NA,NA,NA,NA,NA,NA,NA,NA,NA,NA,NA,NA,NA,NA,NA,NA,NA,NA,NA,NA,NA,NA,NA,NA,NA,NA,NA,NA,NA,NA,NA,NA,NA,NA,NA,NA,NA,NA,NA,NA,NA,NA,NA,NA,NA,NA,NA,NA,NA,NA,NA,NA,NA,NA,10,0,10,0,1
SUPAMT24909,3KRVW3HTZTKBNUL2G42WY25CS0MSME,E91CD671-4054-4C06-BF7F-BDD9DE1EC737,2023-09-29_15h49.06.921,WP_VExplicitOC_LH,2022.2.5,Win32,59.95203837,-100,3.2404,2.0019,NA,NA,NA,NA,NA,bored,"bored, not bored","more bored, less bored",NA,NA,NA,NA,NA,NA,NA,NA,NA,NA,NA,NA,NA,NA,NA,NA,NA,NA,NA,NA,NA,NA,NA,NA,NA,NA,NA,NA,NA,NA,NA,NA,NA,NA,NA,NA,NA,NA,0,0,0,2,1,NA,NA,NA,NA,NA
SUPAMT24909,3KRVW3HTZTKBNUL2G42WY25CS0MSME,E91CD671-4054-4C06-BF7F-BDD9DE1EC737,2023-09-29_15h49.06.921,WP_VExplicitOC_LH,2022.2.5,Win32,59.95203837,-96.2962963,2.7414,2.0165,NA,NA,NA,NA,NA,frustrated,"frustrated, not frustrated","more frustrated, less frustrated",NA,NA,NA,NA,NA,NA,NA,NA,NA,NA,NA,NA,NA,NA,NA,NA,NA,NA,NA,NA,NA,NA,NA,NA,NA,NA,NA,NA,NA,NA,NA,NA,NA,NA,NA,NA,NA,NA,0,1,1,1,1,NA,NA,NA,NA,NA
SUPAMT24909,3KRVW3HTZTKBNUL2G42WY25CS0MSME,E91CD671-4054-4C06-BF7F-BDD9DE1EC737,2023-09-29_15h49.06.921,WP_VExplicitOC_LH,2022.2.5,Win32,59.95203837,-94.25925926,2.9984,2.0002,NA,NA,NA,NA,NA,happy,"unhappy, happy","less happy, more happy",NA,NA,NA,NA,NA,NA,NA,NA,NA,NA,NA,NA,NA,NA,NA,NA,NA,NA,NA,NA,NA,NA,NA,NA,NA,NA,NA,NA,NA,NA,NA,NA,NA,NA,NA,NA,NA,NA,0,2,2,0,1,NA,NA,NA,NA,NA
SUPAMT24909,3KRVW3HTZTKBNUL2G42WY25CS0MSME,E91CD671-4054-4C06-BF7F-BDD9DE1EC737,2023-09-29_15h49.06.921,WP_VExplicitOC_LH,2022.2.5,Win32,59.95203837,NA,NA,NA,NA,NA,NA,NA,NA,NA,NA,NA,NA,NA,NA,NA,NA,NA,NA,NA,NA,NA,NA,NA,NA,NA,NA,NA,NA,NA,NA,NA,NA,NA,NA,NA,NA,NA,NA,NA,NA,NA,NA,NA,NA,NA,NA,NA,NA,NA,NA,NA,NA,NA,NA,11,0,11,0,1
SUPAMT24909,3KRVW3HTZTKBNUL2G42WY25CS0MSME,E91CD671-4054-4C06-BF7F-BDD9DE1EC737,2023-09-29_15h49.06.921,WP_VExplicitOC_LH,2022.2.5,Win32,59.95203837,-97.59259259,4.8627,2.0126,NA,NA,NA,NA,NA,happy,"unhappy, happy","less happy, more happy",NA,NA,NA,NA,NA,NA,NA,NA,NA,NA,NA,NA,NA,NA,NA,NA,NA,NA,NA,NA,NA,NA,NA,NA,NA,NA,NA,NA,NA,NA,NA,NA,NA,NA,NA,NA,NA,NA,0,0,0,0,1,NA,NA,NA,NA,NA
SUPAMT24909,3KRVW3HTZTKBNUL2G42WY25CS0MSME,E91CD671-4054-4C06-BF7F-BDD9DE1EC737,2023-09-29_15h49.06.921,WP_VExplicitOC_LH,2022.2.5,Win32,59.95203837,-30.37037037,5.3984,2.0003,NA,NA,NA,NA,NA,frustrated,"frustrated, not frustrated","more frustrated, less frustrated",NA,NA,NA,NA,NA,NA,NA,NA,NA,NA,NA,NA,NA,NA,NA,NA,NA,NA,NA,NA,NA,NA,NA,NA,NA,NA,NA,NA,NA,NA,NA,NA,NA,NA,NA,NA,NA,NA,0,1,1,1,1,NA,NA,NA,NA,NA
SUPAMT24909,3KRVW3HTZTKBNUL2G42WY25CS0MSME,E91CD671-4054-4C06-BF7F-BDD9DE1EC737,2023-09-29_15h49.06.921,WP_VExplicitOC_LH,2022.2.5,Win32,59.95203837,-71.2962963,4.7582,2.0001,NA,NA,NA,NA,NA,bored,"bored, not bored","more bored, less bored",NA,NA,NA,NA,NA,NA,NA,NA,NA,NA,NA,NA,NA,NA,NA,NA,NA,NA,NA,NA,NA,NA,NA,NA,NA,NA,NA,NA,NA,NA,NA,NA,NA,NA,NA,NA,NA,NA,0,2,2,2,1,NA,NA,NA,NA,NA
SUPAMT24909,3KRVW3HTZTKBNUL2G42WY25CS0MSME,E91CD671-4054-4C06-BF7F-BDD9DE1EC737,2023-09-29_15h49.06.921,WP_VExplicitOC_LH,2022.2.5,Win32,59.95203837,NA,NA,NA,NA,NA,NA,NA,NA,NA,NA,NA,NA,NA,NA,NA,NA,NA,NA,NA,NA,NA,NA,NA,NA,NA,NA,NA,NA,NA,NA,NA,NA,NA,NA,NA,NA,NA,NA,NA,NA,NA,NA,NA,NA,NA,NA,NA,NA,NA,NA,NA,NA,NA,NA,12,0,12,0,1
SUPAMT24909,3KRVW3HTZTKBNUL2G42WY25CS0MSME,E91CD671-4054-4C06-BF7F-BDD9DE1EC737,2023-09-29_15h49.06.921,WP_VExplicitOC_LH,2022.2.5,Win32,59.95203837,-88.14814815,3.0396,2.0141,NA,NA,NA,NA,NA,bored,"bored, not bored","more bored, less bored",NA,NA,NA,NA,NA,NA,NA,NA,NA,NA,NA,NA,NA,NA,NA,NA,NA,NA,NA,NA,NA,NA,NA,NA,NA,NA,NA,NA,NA,NA,NA,NA,NA,NA,NA,NA,NA,NA,0,0,0,2,1,NA,NA,NA,NA,NA
SUPAMT24909,3KRVW3HTZTKBNUL2G42WY25CS0MSME,E91CD671-4054-4C06-BF7F-BDD9DE1EC737,2023-09-29_15h49.06.921,WP_VExplicitOC_LH,2022.2.5,Win32,59.95203837,-79.25925926,4.9289,2.003,NA,NA,NA,NA,NA,frustrated,"frustrated, not frustrated","more frustrated, less frustrated",NA,NA,NA,NA,NA,NA,NA,NA,NA,NA,NA,NA,NA,NA,NA,NA,NA,NA,NA,NA,NA,NA,NA,NA,NA,NA,NA,NA,NA,NA,NA,NA,NA,NA,NA,NA,NA,NA,0,1,1,1,1,NA,NA,NA,NA,NA
SUPAMT24909,3KRVW3HTZTKBNUL2G42WY25CS0MSME,E91CD671-4054-4C06-BF7F-BDD9DE1EC737,2023-09-29_15h49.06.921,WP_VExplicitOC_LH,2022.2.5,Win32,59.95203837,-58.51851852,4.7784,2.0029,NA,NA,NA,NA,NA,happy,"unhappy, happy","less happy, more happy",NA,NA,NA,NA,NA,NA,NA,NA,NA,NA,NA,NA,NA,NA,NA,NA,NA,NA,NA,NA,NA,NA,NA,NA,NA,NA,NA,NA,NA,NA,NA,NA,NA,NA,NA,NA,NA,NA,0,2,2,0,1,NA,NA,NA,NA,NA
SUPAMT24909,3KRVW3HTZTKBNUL2G42WY25CS0MSME,E91CD671-4054-4C06-BF7F-BDD9DE1EC737,2023-09-29_15h49.06.921,WP_VExplicitOC_LH,2022.2.5,Win32,59.95203837,NA,NA,NA,NA,NA,NA,NA,NA,NA,NA,NA,NA,NA,NA,NA,NA,NA,NA,NA,NA,NA,NA,NA,NA,NA,NA,NA,NA,NA,NA,NA,NA,NA,NA,NA,NA,NA,NA,NA,NA,NA,NA,NA,NA,NA,NA,NA,NA,NA,NA,NA,NA,NA,NA,13,0,13,0,1
SUPAMT24909,3KRVW3HTZTKBNUL2G42WY25CS0MSME,E91CD671-4054-4C06-BF7F-BDD9DE1EC737,2023-09-29_15h49.06.921,WP_VExplicitOC_LH,2022.2.5,Win32,59.95203837,-52.59259259,2.8272,2.0075,NA,NA,NA,NA,NA,frustrated,"frustrated, not frustrated","more frustrated, less frustrated",NA,NA,NA,NA,NA,NA,NA,NA,NA,NA,NA,NA,NA,NA,NA,NA,NA,NA,NA,NA,NA,NA,NA,NA,NA,NA,NA,NA,NA,NA,NA,NA,NA,NA,NA,NA,NA,NA,0,0,0,1,1,NA,NA,NA,NA,NA
SUPAMT24909,3KRVW3HTZTKBNUL2G42WY25CS0MSME,E91CD671-4054-4C06-BF7F-BDD9DE1EC737,2023-09-29_15h49.06.921,WP_VExplicitOC_LH,2022.2.5,Win32,59.95203837,-46.2962963,2.8608,2.0004,NA,NA,NA,NA,NA,bored,"bored, not bored","more bored, less bored",NA,NA,NA,NA,NA,NA,NA,NA,NA,NA,NA,NA,NA,NA,NA,NA,NA,NA,NA,NA,NA,NA,NA,NA,NA,NA,NA,NA,NA,NA,NA,NA,NA,NA,NA,NA,NA,NA,0,1,1,2,1,NA,NA,NA,NA,NA
SUPAMT24909,3KRVW3HTZTKBNUL2G42WY25CS0MSME,E91CD671-4054-4C06-BF7F-BDD9DE1EC737,2023-09-29_15h49.06.921,WP_VExplicitOC_LH,2022.2.5,Win32,59.95203837,-39.44444444,2.8902,2.0167,NA,NA,NA,NA,NA,happy,"unhappy, happy","less happy, more happy",NA,NA,NA,NA,NA,NA,NA,NA,NA,NA,NA,NA,NA,NA,NA,NA,NA,NA,NA,NA,NA,NA,NA,NA,NA,NA,NA,NA,NA,NA,NA,NA,NA,NA,NA,NA,NA,NA,0,2,2,0,1,NA,NA,NA,NA,NA
SUPAMT24909,3KRVW3HTZTKBNUL2G42WY25CS0MSME,E91CD671-4054-4C06-BF7F-BDD9DE1EC737,2023-09-29_15h49.06.921,WP_VExplicitOC_LH,2022.2.5,Win32,59.95203837,NA,NA,NA,NA,NA,NA,NA,NA,NA,NA,NA,NA,NA,NA,NA,NA,NA,NA,NA,NA,NA,NA,NA,NA,NA,NA,NA,NA,NA,NA,NA,NA,NA,NA,NA,NA,NA,NA,NA,NA,NA,NA,NA,NA,NA,NA,NA,NA,NA,NA,NA,NA,NA,NA,14,0,14,0,1
SUPAMT24909,3KRVW3HTZTKBNUL2G42WY25CS0MSME,E91CD671-4054-4C06-BF7F-BDD9DE1EC737,2023-09-29_15h49.06.921,WP_VExplicitOC_LH,2022.2.5,Win32,59.95203837,NA,NA,NA,NA,NA,NA,NA,NA,NA,NA,NA,NA,NA,NA,NA,NA,NA,NA,NA,NA,NA,NA,NA,NA,NA,NA,NA,NA,NA,NA,NA,NA,NA,NA,NA,NA,NA,NA,NA,NA,NA,NA,NA,NA,NA,NA,NA,NA,NA,NA,NA,NA,NA,NA,NA,NA,NA,NA,NA
