participant,session,completion,date,expName,psychopyVersion,OS,frameRate,rating_all.response,rating_all.rt,rating_all.tStart,rndRat1.thisRepN,rndRat1.thisTrialN,rndRat1.thisN,rndRat1.thisIndex,rndRat1.ran,Emo,Labs,Labs2,rating_alt.response,rating_alt.rt,AltC.thisRepN,AltC.thisTrialN,AltC.thisN,AltC.thisIndex,AltC.ran,alt_choices,pic_choices,BottomAlt_Choice,rndRat2.thisRepN,rndRat2.thisTrialN,rndRat2.thisN,rndRat2.thisIndex,rndRat2.ran,rndRat3.thisRepN,rndRat3.thisTrialN,rndRat3.thisN,rndRat3.thisIndex,rndRat3.ran,trials_FC_L.thisRepN,trials_FC_L.thisTrialN,trials_FC_L.thisN,trials_FC_L.thisIndex,trials_FC_L.ran,rating_alt_2.response,rating_alt_2.rt,AltC2.thisRepN,AltC2.thisTrialN,AltC2.thisN,AltC2.thisIndex,AltC2.ran,TopAlt_Choice,rndRat4.thisRepN,rndRat4.thisTrialN,rndRat4.thisN,rndRat4.thisIndex,rndRat4.ran,rndRat5.thisRepN,rndRat5.thisTrialN,rndRat5.thisN,rndRat5.thisIndex,rndRat5.ran,trials_FC_H.thisRepN,trials_FC_H.thisTrialN,trials_FC_H.thisN,trials_FC_H.thisIndex,trials_FC_H.ran
SUPAMT04615,38F71OA9GZV2JPGGAK2XR3MX2PHFM0,4906B67F-EAA9-4402-9165-B2192CD1BADF,2023-09-26_18h56.17.395,WP_VExplicitOC_LH,2022.2.5,Win32,12.9305886,NA,NA,NA,NA,NA,NA,NA,NA,NA,NA,NA,NA,NA,NA,NA,NA,NA,NA,NA,NA,NA,NA,NA,NA,NA,NA,NA,NA,NA,NA,NA,NA,NA,NA,NA,NA,NA,NA,NA,NA,NA,NA,NA,NA,NA,NA,NA,NA,NA,NA,NA,NA,NA,NA,NA,NA,NA,NA,NA
SUPAMT04615,38F71OA9GZV2JPGGAK2XR3MX2PHFM0,4906B67F-EAA9-4402-9165-B2192CD1BADF,2023-09-26_18h56.17.395,WP_VExplicitOC_LH,2022.2.5,Win32,12.9305886,NA,NA,NA,NA,NA,NA,NA,NA,NA,NA,NA,NA,NA,NA,NA,NA,NA,NA,NA,NA,NA,NA,NA,NA,NA,NA,NA,NA,NA,NA,NA,NA,NA,NA,NA,NA,NA,NA,NA,NA,NA,NA,NA,NA,NA,NA,NA,NA,NA,NA,NA,NA,NA,NA,NA,NA,NA,NA,NA
SUPAMT04615,38F71OA9GZV2JPGGAK2XR3MX2PHFM0,4906B67F-EAA9-4402-9165-B2192CD1BADF,2023-09-26_18h56.17.395,WP_VExplicitOC_LH,2022.2.5,Win32,12.9305886,NA,NA,NA,NA,NA,NA,NA,NA,NA,NA,NA,NA,NA,NA,NA,NA,NA,NA,NA,NA,NA,NA,NA,NA,NA,NA,NA,NA,NA,NA,NA,NA,NA,NA,NA,NA,NA,NA,NA,NA,NA,NA,NA,NA,NA,NA,NA,NA,NA,NA,NA,NA,NA,NA,NA,NA,NA,NA,NA
SUPAMT04615,38F71OA9GZV2JPGGAK2XR3MX2PHFM0,4906B67F-EAA9-4402-9165-B2192CD1BADF,2023-09-26_18h56.17.395,WP_VExplicitOC_LH,2022.2.5,Win32,12.9305886,33.85416667,3.8235,2.0526,0,0,0,1,1,frustrated,"frustrated, not frustrated","more frustrated, less frustrated",NA,NA,NA,NA,NA,NA,NA,NA,NA,NA,NA,NA,NA,NA,NA,NA,NA,NA,NA,NA,NA,NA,NA,NA,NA,NA,NA,NA,NA,NA,NA,NA,NA,NA,NA,NA,NA,NA,NA,NA,NA,NA,NA,NA,NA,NA,NA,NA
SUPAMT04615,38F71OA9GZV2JPGGAK2XR3MX2PHFM0,4906B67F-EAA9-4402-9165-B2192CD1BADF,2023-09-26_18h56.17.395,WP_VExplicitOC_LH,2022.2.5,Win32,12.9305886,45.57291667,3.2474,2.0046,0,1,1,2,1,bored,"bored, not bored","more bored, less bored",NA,NA,NA,NA,NA,NA,NA,NA,NA,NA,NA,NA,NA,NA,NA,NA,NA,NA,NA,NA,NA,NA,NA,NA,NA,NA,NA,NA,NA,NA,NA,NA,NA,NA,NA,NA,NA,NA,NA,NA,NA,NA,NA,NA,NA,NA,NA,NA
SUPAMT04615,38F71OA9GZV2JPGGAK2XR3MX2PHFM0,4906B67F-EAA9-4402-9165-B2192CD1BADF,2023-09-26_18h56.17.395,WP_VExplicitOC_LH,2022.2.5,Win32,12.9305886,32.29166667,3.2372,2.0384,0,2,2,0,1,happy,"unhappy, happy","less happy, more happy",NA,NA,NA,NA,NA,NA,NA,NA,NA,NA,NA,NA,NA,NA,NA,NA,NA,NA,NA,NA,NA,NA,NA,NA,NA,NA,NA,NA,NA,NA,NA,NA,NA,NA,NA,NA,NA,NA,NA,NA,NA,NA,NA,NA,NA,NA,NA,NA
SUPAMT04615,38F71OA9GZV2JPGGAK2XR3MX2PHFM0,4906B67F-EAA9-4402-9165-B2192CD1BADF,2023-09-26_18h56.17.395,WP_VExplicitOC_LH,2022.2.5,Win32,12.9305886,NA,NA,NA,NA,NA,NA,NA,NA,NA,NA,NA,NA,NA,NA,NA,NA,NA,NA,NA,NA,NA,NA,NA,NA,NA,NA,NA,NA,NA,NA,NA,NA,NA,NA,NA,NA,NA,NA,NA,NA,NA,NA,NA,NA,NA,NA,NA,NA,NA,NA,NA,NA,NA,NA,NA,NA,NA,NA,NA
SUPAMT04615,38F71OA9GZV2JPGGAK2XR3MX2PHFM0,4906B67F-EAA9-4402-9165-B2192CD1BADF,2023-09-26_18h56.17.395,WP_VExplicitOC_LH,2022.2.5,Win32,12.9305886,NA,NA,NA,NA,NA,NA,NA,NA,NA,NA,NA,NA,NA,NA,NA,NA,NA,NA,NA,NA,NA,NA,NA,NA,NA,NA,NA,NA,NA,NA,NA,NA,NA,NA,NA,NA,NA,NA,NA,NA,NA,NA,NA,NA,NA,NA,NA,NA,NA,NA,NA,NA,NA,NA,NA,NA,NA,NA,NA
SUPAMT04615,38F71OA9GZV2JPGGAK2XR3MX2PHFM0,4906B67F-EAA9-4402-9165-B2192CD1BADF,2023-09-26_18h56.17.395,WP_VExplicitOC_LH,2022.2.5,Win32,12.9305886,NA,NA,NA,NA,NA,NA,NA,NA,NA,NA,NA,NA,NA,NA,NA,NA,NA,NA,NA,NA,NA,NA,NA,NA,NA,NA,NA,NA,NA,NA,NA,NA,NA,NA,NA,NA,NA,NA,NA,NA,NA,NA,NA,NA,NA,NA,NA,NA,NA,NA,NA,NA,NA,NA,NA,NA,NA,NA,NA
SUPAMT04615,38F71OA9GZV2JPGGAK2XR3MX2PHFM0,4906B67F-EAA9-4402-9165-B2192CD1BADF,2023-09-26_18h56.17.395,WP_VExplicitOC_LH,2022.2.5,Win32,12.9305886,NA,NA,NA,NA,NA,NA,NA,NA,NA,NA,NA,NA,NA,NA,NA,NA,NA,NA,NA,NA,NA,NA,NA,NA,NA,NA,NA,NA,NA,NA,NA,NA,NA,NA,NA,NA,NA,NA,NA,NA,NA,NA,NA,NA,NA,NA,NA,NA,NA,NA,NA,NA,NA,NA,NA,NA,NA,NA,NA
SUPAMT04615,38F71OA9GZV2JPGGAK2XR3MX2PHFM0,4906B67F-EAA9-4402-9165-B2192CD1BADF,2023-09-26_18h56.17.395,WP_VExplicitOC_LH,2022.2.5,Win32,12.9305886,NA,NA,NA,NA,NA,NA,NA,NA,NA,NA,NA,30.98958333,2.2578,0,0,0,0,1,rest (looking at a fixed cross),001.png,NA,NA,NA,NA,NA,NA,NA,NA,NA,NA,NA,NA,NA,NA,NA,NA,NA,NA,NA,NA,NA,NA,NA,NA,NA,NA,NA,NA,NA,NA,NA,NA,NA,NA,NA,NA,NA,NA,NA
SUPAMT04615,38F71OA9GZV2JPGGAK2XR3MX2PHFM0,4906B67F-EAA9-4402-9165-B2192CD1BADF,2023-09-26_18h56.17.395,WP_VExplicitOC_LH,2022.2.5,Win32,12.9305886,NA,NA,NA,NA,NA,NA,NA,NA,NA,NA,NA,23.95833333,1.9314,0,1,1,1,1,stand up,002.png,NA,NA,NA,NA,NA,NA,NA,NA,NA,NA,NA,NA,NA,NA,NA,NA,NA,NA,NA,NA,NA,NA,NA,NA,NA,NA,NA,NA,NA,NA,NA,NA,NA,NA,NA,NA,NA,NA,NA
SUPAMT04615,38F71OA9GZV2JPGGAK2XR3MX2PHFM0,4906B67F-EAA9-4402-9165-B2192CD1BADF,2023-09-26_18h56.17.395,WP_VExplicitOC_LH,2022.2.5,Win32,12.9305886,NA,NA,NA,NA,NA,NA,NA,NA,NA,NA,NA,41.40625,1.7223,0,2,2,2,1,stretch,003.png,NA,NA,NA,NA,NA,NA,NA,NA,NA,NA,NA,NA,NA,NA,NA,NA,NA,NA,NA,NA,NA,NA,NA,NA,NA,NA,NA,NA,NA,NA,NA,NA,NA,NA,NA,NA,NA,NA,NA
SUPAMT04615,38F71OA9GZV2JPGGAK2XR3MX2PHFM0,4906B67F-EAA9-4402-9165-B2192CD1BADF,2023-09-26_18h56.17.395,WP_VExplicitOC_LH,2022.2.5,Win32,12.9305886,NA,NA,NA,NA,NA,NA,NA,NA,NA,NA,NA,34.375,1.2753,0,3,3,3,1,make a drink,004.png,NA,NA,NA,NA,NA,NA,NA,NA,NA,NA,NA,NA,NA,NA,NA,NA,NA,NA,NA,NA,NA,NA,NA,NA,NA,NA,NA,NA,NA,NA,NA,NA,NA,NA,NA,NA,NA,NA,NA
SUPAMT04615,38F71OA9GZV2JPGGAK2XR3MX2PHFM0,4906B67F-EAA9-4402-9165-B2192CD1BADF,2023-09-26_18h56.17.395,WP_VExplicitOC_LH,2022.2.5,Win32,12.9305886,NA,NA,NA,NA,NA,NA,NA,NA,NA,NA,NA,45.83333333,1.3585,0,4,4,4,1,scroll social media,005.png,NA,NA,NA,NA,NA,NA,NA,NA,NA,NA,NA,NA,NA,NA,NA,NA,NA,NA,NA,NA,NA,NA,NA,NA,NA,NA,NA,NA,NA,NA,NA,NA,NA,NA,NA,NA,NA,NA,NA
SUPAMT04615,38F71OA9GZV2JPGGAK2XR3MX2PHFM0,4906B67F-EAA9-4402-9165-B2192CD1BADF,2023-09-26_18h56.17.395,WP_VExplicitOC_LH,2022.2.5,Win32,12.9305886,NA,NA,NA,NA,NA,NA,NA,NA,NA,NA,NA,33.07291667,1.3124,0,5,5,5,1,listen to music,006.png,NA,NA,NA,NA,NA,NA,NA,NA,NA,NA,NA,NA,NA,NA,NA,NA,NA,NA,NA,NA,NA,NA,NA,NA,NA,NA,NA,NA,NA,NA,NA,NA,NA,NA,NA,NA,NA,NA,NA
SUPAMT04615,38F71OA9GZV2JPGGAK2XR3MX2PHFM0,4906B67F-EAA9-4402-9165-B2192CD1BADF,2023-09-26_18h56.17.395,WP_VExplicitOC_LH,2022.2.5,Win32,12.9305886,NA,NA,NA,NA,NA,NA,NA,NA,NA,NA,NA,51.04166667,1.3341,0,6,6,6,1,daydream,007.png,NA,NA,NA,NA,NA,NA,NA,NA,NA,NA,NA,NA,NA,NA,NA,NA,NA,NA,NA,NA,NA,NA,NA,NA,NA,NA,NA,NA,NA,NA,NA,NA,NA,NA,NA,NA,NA,NA,NA
SUPAMT04615,38F71OA9GZV2JPGGAK2XR3MX2PHFM0,4906B67F-EAA9-4402-9165-B2192CD1BADF,2023-09-26_18h56.17.395,WP_VExplicitOC_LH,2022.2.5,Win32,12.9305886,NA,NA,NA,NA,NA,NA,NA,NA,NA,NA,NA,27.08333333,1.5123,0,7,7,7,1,watch a short animation,008.png,NA,NA,NA,NA,NA,NA,NA,NA,NA,NA,NA,NA,NA,NA,NA,NA,NA,NA,NA,NA,NA,NA,NA,NA,NA,NA,NA,NA,NA,NA,NA,NA,NA,NA,NA,NA,NA,NA,NA
SUPAMT04615,38F71OA9GZV2JPGGAK2XR3MX2PHFM0,4906B67F-EAA9-4402-9165-B2192CD1BADF,2023-09-26_18h56.17.395,WP_VExplicitOC_LH,2022.2.5,Win32,12.9305886,NA,NA,NA,NA,NA,NA,NA,NA,NA,NA,NA,48.4375,1.3822,0,8,8,8,1,read a novel,009.png,NA,NA,NA,NA,NA,NA,NA,NA,NA,NA,NA,NA,NA,NA,NA,NA,NA,NA,NA,NA,NA,NA,NA,NA,NA,NA,NA,NA,NA,NA,NA,NA,NA,NA,NA,NA,NA,NA,NA
SUPAMT04615,38F71OA9GZV2JPGGAK2XR3MX2PHFM0,4906B67F-EAA9-4402-9165-B2192CD1BADF,2023-09-26_18h56.17.395,WP_VExplicitOC_LH,2022.2.5,Win32,12.9305886,NA,NA,NA,NA,NA,NA,NA,NA,NA,NA,NA,31.51041667,1.4705,0,9,9,9,1,read the news,010.png,NA,NA,NA,NA,NA,NA,NA,NA,NA,NA,NA,NA,NA,NA,NA,NA,NA,NA,NA,NA,NA,NA,NA,NA,NA,NA,NA,NA,NA,NA,NA,NA,NA,NA,NA,NA,NA,NA,NA
SUPAMT04615,38F71OA9GZV2JPGGAK2XR3MX2PHFM0,4906B67F-EAA9-4402-9165-B2192CD1BADF,2023-09-26_18h56.17.395,WP_VExplicitOC_LH,2022.2.5,Win32,12.9305886,NA,NA,NA,NA,NA,NA,NA,NA,NA,NA,NA,NA,NA,NA,NA,NA,NA,NA,NA,NA,NA,NA,NA,NA,NA,NA,NA,NA,NA,NA,NA,NA,NA,NA,NA,NA,NA,NA,NA,NA,NA,NA,NA,NA,NA,NA,NA,NA,NA,NA,NA,NA,NA,NA,NA,NA,NA,NA,NA
SUPAMT04615,38F71OA9GZV2JPGGAK2XR3MX2PHFM0,4906B67F-EAA9-4402-9165-B2192CD1BADF,2023-09-26_18h56.17.395,WP_VExplicitOC_LH,2022.2.5,Win32,12.9305886,NA,NA,NA,NA,NA,NA,NA,NA,NA,NA,NA,NA,NA,NA,NA,NA,NA,NA,NA,NA,stand up,NA,NA,NA,NA,NA,NA,NA,NA,NA,NA,NA,NA,NA,NA,NA,NA,NA,NA,NA,NA,NA,NA,NA,NA,NA,NA,NA,NA,NA,NA,NA,NA,NA,NA,NA,NA,NA,NA
SUPAMT04615,38F71OA9GZV2JPGGAK2XR3MX2PHFM0,4906B67F-EAA9-4402-9165-B2192CD1BADF,2023-09-26_18h56.17.395,WP_VExplicitOC_LH,2022.2.5,Win32,12.9305886,49.21875,3.5523,2.0531,NA,NA,NA,NA,NA,bored,"bored, not bored","more bored, less bored",NA,NA,NA,NA,NA,NA,NA,NA,NA,NA,0,0,0,2,1,NA,NA,NA,NA,NA,NA,NA,NA,NA,NA,NA,NA,NA,NA,NA,NA,NA,NA,NA,NA,NA,NA,NA,NA,NA,NA,NA,NA,NA,NA,NA,NA,NA
SUPAMT04615,38F71OA9GZV2JPGGAK2XR3MX2PHFM0,4906B67F-EAA9-4402-9165-B2192CD1BADF,2023-09-26_18h56.17.395,WP_VExplicitOC_LH,2022.2.5,Win32,12.9305886,37.76041667,3.1924,2.0209,NA,NA,NA,NA,NA,frustrated,"frustrated, not frustrated","more frustrated, less frustrated",NA,NA,NA,NA,NA,NA,NA,NA,NA,NA,0,1,1,1,1,NA,NA,NA,NA,NA,NA,NA,NA,NA,NA,NA,NA,NA,NA,NA,NA,NA,NA,NA,NA,NA,NA,NA,NA,NA,NA,NA,NA,NA,NA,NA,NA,NA
SUPAMT04615,38F71OA9GZV2JPGGAK2XR3MX2PHFM0,4906B67F-EAA9-4402-9165-B2192CD1BADF,2023-09-26_18h56.17.395,WP_VExplicitOC_LH,2022.2.5,Win32,12.9305886,34.11458333,3.5193,2.0694,NA,NA,NA,NA,NA,happy,"unhappy, happy","less happy, more happy",NA,NA,NA,NA,NA,NA,NA,NA,NA,NA,0,2,2,0,1,NA,NA,NA,NA,NA,NA,NA,NA,NA,NA,NA,NA,NA,NA,NA,NA,NA,NA,NA,NA,NA,NA,NA,NA,NA,NA,NA,NA,NA,NA,NA,NA,NA
SUPAMT04615,38F71OA9GZV2JPGGAK2XR3MX2PHFM0,4906B67F-EAA9-4402-9165-B2192CD1BADF,2023-09-26_18h56.17.395,WP_VExplicitOC_LH,2022.2.5,Win32,12.9305886,NA,NA,NA,NA,NA,NA,NA,NA,NA,NA,NA,NA,NA,NA,NA,NA,NA,NA,NA,NA,NA,NA,NA,NA,NA,NA,NA,NA,NA,NA,NA,NA,NA,NA,NA,NA,NA,NA,NA,NA,NA,NA,NA,NA,NA,NA,NA,NA,NA,NA,NA,NA,NA,NA,NA,NA,NA,NA,NA
SUPAMT04615,38F71OA9GZV2JPGGAK2XR3MX2PHFM0,4906B67F-EAA9-4402-9165-B2192CD1BADF,2023-09-26_18h56.17.395,WP_VExplicitOC_LH,2022.2.5,Win32,12.9305886,NA,NA,NA,NA,NA,NA,NA,NA,NA,NA,NA,NA,NA,NA,NA,NA,NA,NA,NA,NA,NA,NA,NA,NA,NA,NA,NA,NA,NA,NA,NA,NA,NA,NA,NA,NA,NA,NA,NA,NA,NA,NA,NA,NA,NA,NA,NA,NA,NA,NA,NA,NA,NA,NA,NA,NA,NA,NA,NA
SUPAMT04615,38F71OA9GZV2JPGGAK2XR3MX2PHFM0,4906B67F-EAA9-4402-9165-B2192CD1BADF,2023-09-26_18h56.17.395,WP_VExplicitOC_LH,2022.2.5,Win32,12.9305886,46.09375,3.3712,2.058,NA,NA,NA,NA,NA,happy,"unhappy, happy","less happy, more happy",NA,NA,NA,NA,NA,NA,NA,NA,NA,NA,NA,NA,NA,NA,NA,0,0,0,0,1,NA,NA,NA,NA,NA,NA,NA,NA,NA,NA,NA,NA,NA,NA,NA,NA,NA,NA,NA,NA,NA,NA,NA,NA,NA,NA,NA,NA
SUPAMT04615,38F71OA9GZV2JPGGAK2XR3MX2PHFM0,4906B67F-EAA9-4402-9165-B2192CD1BADF,2023-09-26_18h56.17.395,WP_VExplicitOC_LH,2022.2.5,Win32,12.9305886,21.61458333,3.2531,2.0173,NA,NA,NA,NA,NA,frustrated,"frustrated, not frustrated","more frustrated, less frustrated",NA,NA,NA,NA,NA,NA,NA,NA,NA,NA,NA,NA,NA,NA,NA,0,1,1,1,1,NA,NA,NA,NA,NA,NA,NA,NA,NA,NA,NA,NA,NA,NA,NA,NA,NA,NA,NA,NA,NA,NA,NA,NA,NA,NA,NA,NA
SUPAMT04615,38F71OA9GZV2JPGGAK2XR3MX2PHFM0,4906B67F-EAA9-4402-9165-B2192CD1BADF,2023-09-26_18h56.17.395,WP_VExplicitOC_LH,2022.2.5,Win32,12.9305886,37.76041667,3.3311,2.0589,NA,NA,NA,NA,NA,bored,"bored, not bored","more bored, less bored",NA,NA,NA,NA,NA,NA,NA,NA,NA,NA,NA,NA,NA,NA,NA,0,2,2,2,1,NA,NA,NA,NA,NA,NA,NA,NA,NA,NA,NA,NA,NA,NA,NA,NA,NA,NA,NA,NA,NA,NA,NA,NA,NA,NA,NA,NA
SUPAMT04615,38F71OA9GZV2JPGGAK2XR3MX2PHFM0,4906B67F-EAA9-4402-9165-B2192CD1BADF,2023-09-26_18h56.17.395,WP_VExplicitOC_LH,2022.2.5,Win32,12.9305886,NA,NA,NA,NA,NA,NA,NA,NA,NA,NA,NA,NA,NA,NA,NA,NA,NA,NA,NA,NA,NA,NA,NA,NA,NA,NA,NA,NA,NA,NA,NA,0,0,0,0,1,NA,NA,NA,NA,NA,NA,NA,NA,NA,NA,NA,NA,NA,NA,NA,NA,NA,NA,NA,NA,NA,NA,NA
SUPAMT04615,38F71OA9GZV2JPGGAK2XR3MX2PHFM0,4906B67F-EAA9-4402-9165-B2192CD1BADF,2023-09-26_18h56.17.395,WP_VExplicitOC_LH,2022.2.5,Win32,12.9305886,37.76041667,3.3296,2.0445,NA,NA,NA,NA,NA,bored,"bored, not bored","more bored, less bored",NA,NA,NA,NA,NA,NA,NA,NA,NA,NA,NA,NA,NA,NA,NA,0,0,0,2,1,NA,NA,NA,NA,NA,NA,NA,NA,NA,NA,NA,NA,NA,NA,NA,NA,NA,NA,NA,NA,NA,NA,NA,NA,NA,NA,NA,NA
SUPAMT04615,38F71OA9GZV2JPGGAK2XR3MX2PHFM0,4906B67F-EAA9-4402-9165-B2192CD1BADF,2023-09-26_18h56.17.395,WP_VExplicitOC_LH,2022.2.5,Win32,12.9305886,22.65625,3.4422,2.067,NA,NA,NA,NA,NA,frustrated,"frustrated, not frustrated","more frustrated, less frustrated",NA,NA,NA,NA,NA,NA,NA,NA,NA,NA,NA,NA,NA,NA,NA,0,1,1,1,1,NA,NA,NA,NA,NA,NA,NA,NA,NA,NA,NA,NA,NA,NA,NA,NA,NA,NA,NA,NA,NA,NA,NA,NA,NA,NA,NA,NA
SUPAMT04615,38F71OA9GZV2JPGGAK2XR3MX2PHFM0,4906B67F-EAA9-4402-9165-B2192CD1BADF,2023-09-26_18h56.17.395,WP_VExplicitOC_LH,2022.2.5,Win32,12.9305886,28.38541667,3.1289,2.0006,NA,NA,NA,NA,NA,happy,"unhappy, happy","less happy, more happy",NA,NA,NA,NA,NA,NA,NA,NA,NA,NA,NA,NA,NA,NA,NA,0,2,2,0,1,NA,NA,NA,NA,NA,NA,NA,NA,NA,NA,NA,NA,NA,NA,NA,NA,NA,NA,NA,NA,NA,NA,NA,NA,NA,NA,NA,NA
SUPAMT04615,38F71OA9GZV2JPGGAK2XR3MX2PHFM0,4906B67F-EAA9-4402-9165-B2192CD1BADF,2023-09-26_18h56.17.395,WP_VExplicitOC_LH,2022.2.5,Win32,12.9305886,NA,NA,NA,NA,NA,NA,NA,NA,NA,NA,NA,NA,NA,NA,NA,NA,NA,NA,NA,NA,NA,NA,NA,NA,NA,NA,NA,NA,NA,NA,NA,1,0,1,0,1,NA,NA,NA,NA,NA,NA,NA,NA,NA,NA,NA,NA,NA,NA,NA,NA,NA,NA,NA,NA,NA,NA,NA
SUPAMT04615,38F71OA9GZV2JPGGAK2XR3MX2PHFM0,4906B67F-EAA9-4402-9165-B2192CD1BADF,2023-09-26_18h56.17.395,WP_VExplicitOC_LH,2022.2.5,Win32,12.9305886,19.53125,3.6211,2.0254,NA,NA,NA,NA,NA,happy,"unhappy, happy","less happy, more happy",NA,NA,NA,NA,NA,NA,NA,NA,NA,NA,NA,NA,NA,NA,NA,0,0,0,0,1,NA,NA,NA,NA,NA,NA,NA,NA,NA,NA,NA,NA,NA,NA,NA,NA,NA,NA,NA,NA,NA,NA,NA,NA,NA,NA,NA,NA
SUPAMT04615,38F71OA9GZV2JPGGAK2XR3MX2PHFM0,4906B67F-EAA9-4402-9165-B2192CD1BADF,2023-09-26_18h56.17.395,WP_VExplicitOC_LH,2022.2.5,Win32,12.9305886,25.26041667,3.5509,2.054,NA,NA,NA,NA,NA,frustrated,"frustrated, not frustrated","more frustrated, less frustrated",NA,NA,NA,NA,NA,NA,NA,NA,NA,NA,NA,NA,NA,NA,NA,0,1,1,1,1,NA,NA,NA,NA,NA,NA,NA,NA,NA,NA,NA,NA,NA,NA,NA,NA,NA,NA,NA,NA,NA,NA,NA,NA,NA,NA,NA,NA
SUPAMT04615,38F71OA9GZV2JPGGAK2XR3MX2PHFM0,4906B67F-EAA9-4402-9165-B2192CD1BADF,2023-09-26_18h56.17.395,WP_VExplicitOC_LH,2022.2.5,Win32,12.9305886,28.64583333,3.3464,2.0189,NA,NA,NA,NA,NA,bored,"bored, not bored","more bored, less bored",NA,NA,NA,NA,NA,NA,NA,NA,NA,NA,NA,NA,NA,NA,NA,0,2,2,2,1,NA,NA,NA,NA,NA,NA,NA,NA,NA,NA,NA,NA,NA,NA,NA,NA,NA,NA,NA,NA,NA,NA,NA,NA,NA,NA,NA,NA
SUPAMT04615,38F71OA9GZV2JPGGAK2XR3MX2PHFM0,4906B67F-EAA9-4402-9165-B2192CD1BADF,2023-09-26_18h56.17.395,WP_VExplicitOC_LH,2022.2.5,Win32,12.9305886,NA,NA,NA,NA,NA,NA,NA,NA,NA,NA,NA,NA,NA,NA,NA,NA,NA,NA,NA,NA,NA,NA,NA,NA,NA,NA,NA,NA,NA,NA,NA,2,0,2,0,1,NA,NA,NA,NA,NA,NA,NA,NA,NA,NA,NA,NA,NA,NA,NA,NA,NA,NA,NA,NA,NA,NA,NA
SUPAMT04615,38F71OA9GZV2JPGGAK2XR3MX2PHFM0,4906B67F-EAA9-4402-9165-B2192CD1BADF,2023-09-26_18h56.17.395,WP_VExplicitOC_LH,2022.2.5,Win32,12.9305886,30.98958333,3.3762,2.031,NA,NA,NA,NA,NA,frustrated,"frustrated, not frustrated","more frustrated, less frustrated",NA,NA,NA,NA,NA,NA,NA,NA,NA,NA,NA,NA,NA,NA,NA,0,0,0,1,1,NA,NA,NA,NA,NA,NA,NA,NA,NA,NA,NA,NA,NA,NA,NA,NA,NA,NA,NA,NA,NA,NA,NA,NA,NA,NA,NA,NA
SUPAMT04615,38F71OA9GZV2JPGGAK2XR3MX2PHFM0,4906B67F-EAA9-4402-9165-B2192CD1BADF,2023-09-26_18h56.17.395,WP_VExplicitOC_LH,2022.2.5,Win32,12.9305886,31.25,6.5198,2.0626,NA,NA,NA,NA,NA,happy,"unhappy, happy","less happy, more happy",NA,NA,NA,NA,NA,NA,NA,NA,NA,NA,NA,NA,NA,NA,NA,0,1,1,0,1,NA,NA,NA,NA,NA,NA,NA,NA,NA,NA,NA,NA,NA,NA,NA,NA,NA,NA,NA,NA,NA,NA,NA,NA,NA,NA,NA,NA
SUPAMT04615,38F71OA9GZV2JPGGAK2XR3MX2PHFM0,4906B67F-EAA9-4402-9165-B2192CD1BADF,2023-09-26_18h56.17.395,WP_VExplicitOC_LH,2022.2.5,Win32,12.9305886,17.70833333,5.5518,2.0482,NA,NA,NA,NA,NA,bored,"bored, not bored","more bored, less bored",NA,NA,NA,NA,NA,NA,NA,NA,NA,NA,NA,NA,NA,NA,NA,0,2,2,2,1,NA,NA,NA,NA,NA,NA,NA,NA,NA,NA,NA,NA,NA,NA,NA,NA,NA,NA,NA,NA,NA,NA,NA,NA,NA,NA,NA,NA
SUPAMT04615,38F71OA9GZV2JPGGAK2XR3MX2PHFM0,4906B67F-EAA9-4402-9165-B2192CD1BADF,2023-09-26_18h56.17.395,WP_VExplicitOC_LH,2022.2.5,Win32,12.9305886,NA,NA,NA,NA,NA,NA,NA,NA,NA,NA,NA,NA,NA,NA,NA,NA,NA,NA,NA,NA,NA,NA,NA,NA,NA,NA,NA,NA,NA,NA,NA,3,0,3,0,1,NA,NA,NA,NA,NA,NA,NA,NA,NA,NA,NA,NA,NA,NA,NA,NA,NA,NA,NA,NA,NA,NA,NA
SUPAMT04615,38F71OA9GZV2JPGGAK2XR3MX2PHFM0,4906B67F-EAA9-4402-9165-B2192CD1BADF,2023-09-26_18h56.17.395,WP_VExplicitOC_LH,2022.2.5,Win32,12.9305886,28.125,4.1172,2.0636,NA,NA,NA,NA,NA,frustrated,"frustrated, not frustrated","more frustrated, less frustrated",NA,NA,NA,NA,NA,NA,NA,NA,NA,NA,NA,NA,NA,NA,NA,0,0,0,1,1,NA,NA,NA,NA,NA,NA,NA,NA,NA,NA,NA,NA,NA,NA,NA,NA,NA,NA,NA,NA,NA,NA,NA,NA,NA,NA,NA,NA
SUPAMT04615,38F71OA9GZV2JPGGAK2XR3MX2PHFM0,4906B67F-EAA9-4402-9165-B2192CD1BADF,2023-09-26_18h56.17.395,WP_VExplicitOC_LH,2022.2.5,Win32,12.9305886,32.8125,3.8907,2.0724,NA,NA,NA,NA,NA,happy,"unhappy, happy","less happy, more happy",NA,NA,NA,NA,NA,NA,NA,NA,NA,NA,NA,NA,NA,NA,NA,0,1,1,0,1,NA,NA,NA,NA,NA,NA,NA,NA,NA,NA,NA,NA,NA,NA,NA,NA,NA,NA,NA,NA,NA,NA,NA,NA,NA,NA,NA,NA
SUPAMT04615,38F71OA9GZV2JPGGAK2XR3MX2PHFM0,4906B67F-EAA9-4402-9165-B2192CD1BADF,2023-09-26_18h56.17.395,WP_VExplicitOC_LH,2022.2.5,Win32,12.9305886,20.83333333,3.6978,2.0734,NA,NA,NA,NA,NA,bored,"bored, not bored","more bored, less bored",NA,NA,NA,NA,NA,NA,NA,NA,NA,NA,NA,NA,NA,NA,NA,0,2,2,2,1,NA,NA,NA,NA,NA,NA,NA,NA,NA,NA,NA,NA,NA,NA,NA,NA,NA,NA,NA,NA,NA,NA,NA,NA,NA,NA,NA,NA
SUPAMT04615,38F71OA9GZV2JPGGAK2XR3MX2PHFM0,4906B67F-EAA9-4402-9165-B2192CD1BADF,2023-09-26_18h56.17.395,WP_VExplicitOC_LH,2022.2.5,Win32,12.9305886,NA,NA,NA,NA,NA,NA,NA,NA,NA,NA,NA,NA,NA,NA,NA,NA,NA,NA,NA,NA,NA,NA,NA,NA,NA,NA,NA,NA,NA,NA,NA,4,0,4,0,1,NA,NA,NA,NA,NA,NA,NA,NA,NA,NA,NA,NA,NA,NA,NA,NA,NA,NA,NA,NA,NA,NA,NA
SUPAMT04615,38F71OA9GZV2JPGGAK2XR3MX2PHFM0,4906B67F-EAA9-4402-9165-B2192CD1BADF,2023-09-26_18h56.17.395,WP_VExplicitOC_LH,2022.2.5,Win32,12.9305886,38.80208333,5.1612,2.0004,NA,NA,NA,NA,NA,bored,"bored, not bored","more bored, less bored",NA,NA,NA,NA,NA,NA,NA,NA,NA,NA,NA,NA,NA,NA,NA,0,0,0,2,1,NA,NA,NA,NA,NA,NA,NA,NA,NA,NA,NA,NA,NA,NA,NA,NA,NA,NA,NA,NA,NA,NA,NA,NA,NA,NA,NA,NA
SUPAMT04615,38F71OA9GZV2JPGGAK2XR3MX2PHFM0,4906B67F-EAA9-4402-9165-B2192CD1BADF,2023-09-26_18h56.17.395,WP_VExplicitOC_LH,2022.2.5,Win32,12.9305886,19.27083333,3.691,2.1338,NA,NA,NA,NA,NA,happy,"unhappy, happy","less happy, more happy",NA,NA,NA,NA,NA,NA,NA,NA,NA,NA,NA,NA,NA,NA,NA,0,1,1,0,1,NA,NA,NA,NA,NA,NA,NA,NA,NA,NA,NA,NA,NA,NA,NA,NA,NA,NA,NA,NA,NA,NA,NA,NA,NA,NA,NA,NA
SUPAMT04615,38F71OA9GZV2JPGGAK2XR3MX2PHFM0,4906B67F-EAA9-4402-9165-B2192CD1BADF,2023-09-26_18h56.17.395,WP_VExplicitOC_LH,2022.2.5,Win32,12.9305886,25,3.5205,2.0227,NA,NA,NA,NA,NA,frustrated,"frustrated, not frustrated","more frustrated, less frustrated",NA,NA,NA,NA,NA,NA,NA,NA,NA,NA,NA,NA,NA,NA,NA,0,2,2,1,1,NA,NA,NA,NA,NA,NA,NA,NA,NA,NA,NA,NA,NA,NA,NA,NA,NA,NA,NA,NA,NA,NA,NA,NA,NA,NA,NA,NA
SUPAMT04615,38F71OA9GZV2JPGGAK2XR3MX2PHFM0,4906B67F-EAA9-4402-9165-B2192CD1BADF,2023-09-26_18h56.17.395,WP_VExplicitOC_LH,2022.2.5,Win32,12.9305886,NA,NA,NA,NA,NA,NA,NA,NA,NA,NA,NA,NA,NA,NA,NA,NA,NA,NA,NA,NA,NA,NA,NA,NA,NA,NA,NA,NA,NA,NA,NA,5,0,5,0,1,NA,NA,NA,NA,NA,NA,NA,NA,NA,NA,NA,NA,NA,NA,NA,NA,NA,NA,NA,NA,NA,NA,NA
SUPAMT04615,38F71OA9GZV2JPGGAK2XR3MX2PHFM0,4906B67F-EAA9-4402-9165-B2192CD1BADF,2023-09-26_18h56.17.395,WP_VExplicitOC_LH,2022.2.5,Win32,12.9305886,27.08333333,3.5606,2.0973,NA,NA,NA,NA,NA,bored,"bored, not bored","more bored, less bored",NA,NA,NA,NA,NA,NA,NA,NA,NA,NA,NA,NA,NA,NA,NA,0,0,0,2,1,NA,NA,NA,NA,NA,NA,NA,NA,NA,NA,NA,NA,NA,NA,NA,NA,NA,NA,NA,NA,NA,NA,NA,NA,NA,NA,NA,NA
SUPAMT04615,38F71OA9GZV2JPGGAK2XR3MX2PHFM0,4906B67F-EAA9-4402-9165-B2192CD1BADF,2023-09-26_18h56.17.395,WP_VExplicitOC_LH,2022.2.5,Win32,12.9305886,28.38541667,3.8464,2.0814,NA,NA,NA,NA,NA,happy,"unhappy, happy","less happy, more happy",NA,NA,NA,NA,NA,NA,NA,NA,NA,NA,NA,NA,NA,NA,NA,0,1,1,0,1,NA,NA,NA,NA,NA,NA,NA,NA,NA,NA,NA,NA,NA,NA,NA,NA,NA,NA,NA,NA,NA,NA,NA,NA,NA,NA,NA,NA
SUPAMT04615,38F71OA9GZV2JPGGAK2XR3MX2PHFM0,4906B67F-EAA9-4402-9165-B2192CD1BADF,2023-09-26_18h56.17.395,WP_VExplicitOC_LH,2022.2.5,Win32,12.9305886,38.28125,3.3738,2.0757,NA,NA,NA,NA,NA,frustrated,"frustrated, not frustrated","more frustrated, less frustrated",NA,NA,NA,NA,NA,NA,NA,NA,NA,NA,NA,NA,NA,NA,NA,0,2,2,1,1,NA,NA,NA,NA,NA,NA,NA,NA,NA,NA,NA,NA,NA,NA,NA,NA,NA,NA,NA,NA,NA,NA,NA,NA,NA,NA,NA,NA
SUPAMT04615,38F71OA9GZV2JPGGAK2XR3MX2PHFM0,4906B67F-EAA9-4402-9165-B2192CD1BADF,2023-09-26_18h56.17.395,WP_VExplicitOC_LH,2022.2.5,Win32,12.9305886,NA,NA,NA,NA,NA,NA,NA,NA,NA,NA,NA,NA,NA,NA,NA,NA,NA,NA,NA,NA,NA,NA,NA,NA,NA,NA,NA,NA,NA,NA,NA,6,0,6,0,1,NA,NA,NA,NA,NA,NA,NA,NA,NA,NA,NA,NA,NA,NA,NA,NA,NA,NA,NA,NA,NA,NA,NA
SUPAMT04615,38F71OA9GZV2JPGGAK2XR3MX2PHFM0,4906B67F-EAA9-4402-9165-B2192CD1BADF,2023-09-26_18h56.17.395,WP_VExplicitOC_LH,2022.2.5,Win32,12.9305886,47.65625,3.553,2.109,NA,NA,NA,NA,NA,frustrated,"frustrated, not frustrated","more frustrated, less frustrated",NA,NA,NA,NA,NA,NA,NA,NA,NA,NA,NA,NA,NA,NA,NA,0,0,0,1,1,NA,NA,NA,NA,NA,NA,NA,NA,NA,NA,NA,NA,NA,NA,NA,NA,NA,NA,NA,NA,NA,NA,NA,NA,NA,NA,NA,NA
SUPAMT04615,38F71OA9GZV2JPGGAK2XR3MX2PHFM0,4906B67F-EAA9-4402-9165-B2192CD1BADF,2023-09-26_18h56.17.395,WP_VExplicitOC_LH,2022.2.5,Win32,12.9305886,38.80208333,3.4232,2.0261,NA,NA,NA,NA,NA,bored,"bored, not bored","more bored, less bored",NA,NA,NA,NA,NA,NA,NA,NA,NA,NA,NA,NA,NA,NA,NA,0,1,1,2,1,NA,NA,NA,NA,NA,NA,NA,NA,NA,NA,NA,NA,NA,NA,NA,NA,NA,NA,NA,NA,NA,NA,NA,NA,NA,NA,NA,NA
SUPAMT04615,38F71OA9GZV2JPGGAK2XR3MX2PHFM0,4906B67F-EAA9-4402-9165-B2192CD1BADF,2023-09-26_18h56.17.395,WP_VExplicitOC_LH,2022.2.5,Win32,12.9305886,26.30208333,3.3893,2.0733,NA,NA,NA,NA,NA,happy,"unhappy, happy","less happy, more happy",NA,NA,NA,NA,NA,NA,NA,NA,NA,NA,NA,NA,NA,NA,NA,0,2,2,0,1,NA,NA,NA,NA,NA,NA,NA,NA,NA,NA,NA,NA,NA,NA,NA,NA,NA,NA,NA,NA,NA,NA,NA,NA,NA,NA,NA,NA
SUPAMT04615,38F71OA9GZV2JPGGAK2XR3MX2PHFM0,4906B67F-EAA9-4402-9165-B2192CD1BADF,2023-09-26_18h56.17.395,WP_VExplicitOC_LH,2022.2.5,Win32,12.9305886,NA,NA,NA,NA,NA,NA,NA,NA,NA,NA,NA,NA,NA,NA,NA,NA,NA,NA,NA,NA,NA,NA,NA,NA,NA,NA,NA,NA,NA,NA,NA,7,0,7,0,1,NA,NA,NA,NA,NA,NA,NA,NA,NA,NA,NA,NA,NA,NA,NA,NA,NA,NA,NA,NA,NA,NA,NA
SUPAMT04615,38F71OA9GZV2JPGGAK2XR3MX2PHFM0,4906B67F-EAA9-4402-9165-B2192CD1BADF,2023-09-26_18h56.17.395,WP_VExplicitOC_LH,2022.2.5,Win32,12.9305886,33.85416667,4.2588,2.0363,NA,NA,NA,NA,NA,frustrated,"frustrated, not frustrated","more frustrated, less frustrated",NA,NA,NA,NA,NA,NA,NA,NA,NA,NA,NA,NA,NA,NA,NA,0,0,0,1,1,NA,NA,NA,NA,NA,NA,NA,NA,NA,NA,NA,NA,NA,NA,NA,NA,NA,NA,NA,NA,NA,NA,NA,NA,NA,NA,NA,NA
SUPAMT04615,38F71OA9GZV2JPGGAK2XR3MX2PHFM0,4906B67F-EAA9-4402-9165-B2192CD1BADF,2023-09-26_18h56.17.395,WP_VExplicitOC_LH,2022.2.5,Win32,12.9305886,33.07291667,4.5607,2.0415,NA,NA,NA,NA,NA,bored,"bored, not bored","more bored, less bored",NA,NA,NA,NA,NA,NA,NA,NA,NA,NA,NA,NA,NA,NA,NA,0,1,1,2,1,NA,NA,NA,NA,NA,NA,NA,NA,NA,NA,NA,NA,NA,NA,NA,NA,NA,NA,NA,NA,NA,NA,NA,NA,NA,NA,NA,NA
SUPAMT04615,38F71OA9GZV2JPGGAK2XR3MX2PHFM0,4906B67F-EAA9-4402-9165-B2192CD1BADF,2023-09-26_18h56.17.395,WP_VExplicitOC_LH,2022.2.5,Win32,12.9305886,34.375,3.1239,2.0286,NA,NA,NA,NA,NA,happy,"unhappy, happy","less happy, more happy",NA,NA,NA,NA,NA,NA,NA,NA,NA,NA,NA,NA,NA,NA,NA,0,2,2,0,1,NA,NA,NA,NA,NA,NA,NA,NA,NA,NA,NA,NA,NA,NA,NA,NA,NA,NA,NA,NA,NA,NA,NA,NA,NA,NA,NA,NA
SUPAMT04615,38F71OA9GZV2JPGGAK2XR3MX2PHFM0,4906B67F-EAA9-4402-9165-B2192CD1BADF,2023-09-26_18h56.17.395,WP_VExplicitOC_LH,2022.2.5,Win32,12.9305886,NA,NA,NA,NA,NA,NA,NA,NA,NA,NA,NA,NA,NA,NA,NA,NA,NA,NA,NA,NA,NA,NA,NA,NA,NA,NA,NA,NA,NA,NA,NA,8,0,8,0,1,NA,NA,NA,NA,NA,NA,NA,NA,NA,NA,NA,NA,NA,NA,NA,NA,NA,NA,NA,NA,NA,NA,NA
SUPAMT04615,38F71OA9GZV2JPGGAK2XR3MX2PHFM0,4906B67F-EAA9-4402-9165-B2192CD1BADF,2023-09-26_18h56.17.395,WP_VExplicitOC_LH,2022.2.5,Win32,12.9305886,29.42708333,3.4505,2.0565,NA,NA,NA,NA,NA,frustrated,"frustrated, not frustrated","more frustrated, less frustrated",NA,NA,NA,NA,NA,NA,NA,NA,NA,NA,NA,NA,NA,NA,NA,0,0,0,1,1,NA,NA,NA,NA,NA,NA,NA,NA,NA,NA,NA,NA,NA,NA,NA,NA,NA,NA,NA,NA,NA,NA,NA,NA,NA,NA,NA,NA
SUPAMT04615,38F71OA9GZV2JPGGAK2XR3MX2PHFM0,4906B67F-EAA9-4402-9165-B2192CD1BADF,2023-09-26_18h56.17.395,WP_VExplicitOC_LH,2022.2.5,Win32,12.9305886,28.90625,4.0042,2.0593,NA,NA,NA,NA,NA,bored,"bored, not bored","more bored, less bored",NA,NA,NA,NA,NA,NA,NA,NA,NA,NA,NA,NA,NA,NA,NA,0,1,1,2,1,NA,NA,NA,NA,NA,NA,NA,NA,NA,NA,NA,NA,NA,NA,NA,NA,NA,NA,NA,NA,NA,NA,NA,NA,NA,NA,NA,NA
SUPAMT04615,38F71OA9GZV2JPGGAK2XR3MX2PHFM0,4906B67F-EAA9-4402-9165-B2192CD1BADF,2023-09-26_18h56.17.395,WP_VExplicitOC_LH,2022.2.5,Win32,12.9305886,34.375,3.4064,2.0105,NA,NA,NA,NA,NA,happy,"unhappy, happy","less happy, more happy",NA,NA,NA,NA,NA,NA,NA,NA,NA,NA,NA,NA,NA,NA,NA,0,2,2,0,1,NA,NA,NA,NA,NA,NA,NA,NA,NA,NA,NA,NA,NA,NA,NA,NA,NA,NA,NA,NA,NA,NA,NA,NA,NA,NA,NA,NA
SUPAMT04615,38F71OA9GZV2JPGGAK2XR3MX2PHFM0,4906B67F-EAA9-4402-9165-B2192CD1BADF,2023-09-26_18h56.17.395,WP_VExplicitOC_LH,2022.2.5,Win32,12.9305886,NA,NA,NA,NA,NA,NA,NA,NA,NA,NA,NA,NA,NA,NA,NA,NA,NA,NA,NA,NA,NA,NA,NA,NA,NA,NA,NA,NA,NA,NA,NA,9,0,9,0,1,NA,NA,NA,NA,NA,NA,NA,NA,NA,NA,NA,NA,NA,NA,NA,NA,NA,NA,NA,NA,NA,NA,NA
SUPAMT04615,38F71OA9GZV2JPGGAK2XR3MX2PHFM0,4906B67F-EAA9-4402-9165-B2192CD1BADF,2023-09-26_18h56.17.395,WP_VExplicitOC_LH,2022.2.5,Win32,12.9305886,37.5,3.8701,2.0277,NA,NA,NA,NA,NA,frustrated,"frustrated, not frustrated","more frustrated, less frustrated",NA,NA,NA,NA,NA,NA,NA,NA,NA,NA,NA,NA,NA,NA,NA,0,0,0,1,1,NA,NA,NA,NA,NA,NA,NA,NA,NA,NA,NA,NA,NA,NA,NA,NA,NA,NA,NA,NA,NA,NA,NA,NA,NA,NA,NA,NA
SUPAMT04615,38F71OA9GZV2JPGGAK2XR3MX2PHFM0,4906B67F-EAA9-4402-9165-B2192CD1BADF,2023-09-26_18h56.17.395,WP_VExplicitOC_LH,2022.2.5,Win32,12.9305886,40.10416667,3.6892,2.0572,NA,NA,NA,NA,NA,happy,"unhappy, happy","less happy, more happy",NA,NA,NA,NA,NA,NA,NA,NA,NA,NA,NA,NA,NA,NA,NA,0,1,1,0,1,NA,NA,NA,NA,NA,NA,NA,NA,NA,NA,NA,NA,NA,NA,NA,NA,NA,NA,NA,NA,NA,NA,NA,NA,NA,NA,NA,NA
SUPAMT04615,38F71OA9GZV2JPGGAK2XR3MX2PHFM0,4906B67F-EAA9-4402-9165-B2192CD1BADF,2023-09-26_18h56.17.395,WP_VExplicitOC_LH,2022.2.5,Win32,12.9305886,39.84375,3.3475,2.0868,NA,NA,NA,NA,NA,bored,"bored, not bored","more bored, less bored",NA,NA,NA,NA,NA,NA,NA,NA,NA,NA,NA,NA,NA,NA,NA,0,2,2,2,1,NA,NA,NA,NA,NA,NA,NA,NA,NA,NA,NA,NA,NA,NA,NA,NA,NA,NA,NA,NA,NA,NA,NA,NA,NA,NA,NA,NA
SUPAMT04615,38F71OA9GZV2JPGGAK2XR3MX2PHFM0,4906B67F-EAA9-4402-9165-B2192CD1BADF,2023-09-26_18h56.17.395,WP_VExplicitOC_LH,2022.2.5,Win32,12.9305886,NA,NA,NA,NA,NA,NA,NA,NA,NA,NA,NA,NA,NA,NA,NA,NA,NA,NA,NA,NA,NA,NA,NA,NA,NA,NA,NA,NA,NA,NA,NA,10,0,10,0,1,NA,NA,NA,NA,NA,NA,NA,NA,NA,NA,NA,NA,NA,NA,NA,NA,NA,NA,NA,NA,NA,NA,NA
SUPAMT04615,38F71OA9GZV2JPGGAK2XR3MX2PHFM0,4906B67F-EAA9-4402-9165-B2192CD1BADF,2023-09-26_18h56.17.395,WP_VExplicitOC_LH,2022.2.5,Win32,12.9305886,23.4375,4.4857,2.1077,NA,NA,NA,NA,NA,happy,"unhappy, happy","less happy, more happy",NA,NA,NA,NA,NA,NA,NA,NA,NA,NA,NA,NA,NA,NA,NA,0,0,0,0,1,NA,NA,NA,NA,NA,NA,NA,NA,NA,NA,NA,NA,NA,NA,NA,NA,NA,NA,NA,NA,NA,NA,NA,NA,NA,NA,NA,NA
SUPAMT04615,38F71OA9GZV2JPGGAK2XR3MX2PHFM0,4906B67F-EAA9-4402-9165-B2192CD1BADF,2023-09-26_18h56.17.395,WP_VExplicitOC_LH,2022.2.5,Win32,12.9305886,34.89583333,3.2374,2.0361,NA,NA,NA,NA,NA,bored,"bored, not bored","more bored, less bored",NA,NA,NA,NA,NA,NA,NA,NA,NA,NA,NA,NA,NA,NA,NA,0,1,1,2,1,NA,NA,NA,NA,NA,NA,NA,NA,NA,NA,NA,NA,NA,NA,NA,NA,NA,NA,NA,NA,NA,NA,NA,NA,NA,NA,NA,NA
SUPAMT04615,38F71OA9GZV2JPGGAK2XR3MX2PHFM0,4906B67F-EAA9-4402-9165-B2192CD1BADF,2023-09-26_18h56.17.395,WP_VExplicitOC_LH,2022.2.5,Win32,12.9305886,28.125,3.0556,2.0588,NA,NA,NA,NA,NA,frustrated,"frustrated, not frustrated","more frustrated, less frustrated",NA,NA,NA,NA,NA,NA,NA,NA,NA,NA,NA,NA,NA,NA,NA,0,2,2,1,1,NA,NA,NA,NA,NA,NA,NA,NA,NA,NA,NA,NA,NA,NA,NA,NA,NA,NA,NA,NA,NA,NA,NA,NA,NA,NA,NA,NA
SUPAMT04615,38F71OA9GZV2JPGGAK2XR3MX2PHFM0,4906B67F-EAA9-4402-9165-B2192CD1BADF,2023-09-26_18h56.17.395,WP_VExplicitOC_LH,2022.2.5,Win32,12.9305886,NA,NA,NA,NA,NA,NA,NA,NA,NA,NA,NA,NA,NA,NA,NA,NA,NA,NA,NA,NA,NA,NA,NA,NA,NA,NA,NA,NA,NA,NA,NA,11,0,11,0,1,NA,NA,NA,NA,NA,NA,NA,NA,NA,NA,NA,NA,NA,NA,NA,NA,NA,NA,NA,NA,NA,NA,NA
SUPAMT04615,38F71OA9GZV2JPGGAK2XR3MX2PHFM0,4906B67F-EAA9-4402-9165-B2192CD1BADF,2023-09-26_18h56.17.395,WP_VExplicitOC_LH,2022.2.5,Win32,12.9305886,26.04166667,3.5008,2.0789,NA,NA,NA,NA,NA,frustrated,"frustrated, not frustrated","more frustrated, less frustrated",NA,NA,NA,NA,NA,NA,NA,NA,NA,NA,NA,NA,NA,NA,NA,0,0,0,1,1,NA,NA,NA,NA,NA,NA,NA,NA,NA,NA,NA,NA,NA,NA,NA,NA,NA,NA,NA,NA,NA,NA,NA,NA,NA,NA,NA,NA
SUPAMT04615,38F71OA9GZV2JPGGAK2XR3MX2PHFM0,4906B67F-EAA9-4402-9165-B2192CD1BADF,2023-09-26_18h56.17.395,WP_VExplicitOC_LH,2022.2.5,Win32,12.9305886,21.09375,3.8087,2.0221,NA,NA,NA,NA,NA,bored,"bored, not bored","more bored, less bored",NA,NA,NA,NA,NA,NA,NA,NA,NA,NA,NA,NA,NA,NA,NA,0,1,1,2,1,NA,NA,NA,NA,NA,NA,NA,NA,NA,NA,NA,NA,NA,NA,NA,NA,NA,NA,NA,NA,NA,NA,NA,NA,NA,NA,NA,NA
SUPAMT04615,38F71OA9GZV2JPGGAK2XR3MX2PHFM0,4906B67F-EAA9-4402-9165-B2192CD1BADF,2023-09-26_18h56.17.395,WP_VExplicitOC_LH,2022.2.5,Win32,12.9305886,37.5,3.4364,2.0777,NA,NA,NA,NA,NA,happy,"unhappy, happy","less happy, more happy",NA,NA,NA,NA,NA,NA,NA,NA,NA,NA,NA,NA,NA,NA,NA,0,2,2,0,1,NA,NA,NA,NA,NA,NA,NA,NA,NA,NA,NA,NA,NA,NA,NA,NA,NA,NA,NA,NA,NA,NA,NA,NA,NA,NA,NA,NA
SUPAMT04615,38F71OA9GZV2JPGGAK2XR3MX2PHFM0,4906B67F-EAA9-4402-9165-B2192CD1BADF,2023-09-26_18h56.17.395,WP_VExplicitOC_LH,2022.2.5,Win32,12.9305886,NA,NA,NA,NA,NA,NA,NA,NA,NA,NA,NA,NA,NA,NA,NA,NA,NA,NA,NA,NA,NA,NA,NA,NA,NA,NA,NA,NA,NA,NA,NA,12,0,12,0,1,NA,NA,NA,NA,NA,NA,NA,NA,NA,NA,NA,NA,NA,NA,NA,NA,NA,NA,NA,NA,NA,NA,NA
SUPAMT04615,38F71OA9GZV2JPGGAK2XR3MX2PHFM0,4906B67F-EAA9-4402-9165-B2192CD1BADF,2023-09-26_18h56.17.395,WP_VExplicitOC_LH,2022.2.5,Win32,12.9305886,24.73958333,3.8315,2.0813,NA,NA,NA,NA,NA,happy,"unhappy, happy","less happy, more happy",NA,NA,NA,NA,NA,NA,NA,NA,NA,NA,NA,NA,NA,NA,NA,0,0,0,0,1,NA,NA,NA,NA,NA,NA,NA,NA,NA,NA,NA,NA,NA,NA,NA,NA,NA,NA,NA,NA,NA,NA,NA,NA,NA,NA,NA,NA
SUPAMT04615,38F71OA9GZV2JPGGAK2XR3MX2PHFM0,4906B67F-EAA9-4402-9165-B2192CD1BADF,2023-09-26_18h56.17.395,WP_VExplicitOC_LH,2022.2.5,Win32,12.9305886,30.20833333,3.531,2.0717,NA,NA,NA,NA,NA,frustrated,"frustrated, not frustrated","more frustrated, less frustrated",NA,NA,NA,NA,NA,NA,NA,NA,NA,NA,NA,NA,NA,NA,NA,0,1,1,1,1,NA,NA,NA,NA,NA,NA,NA,NA,NA,NA,NA,NA,NA,NA,NA,NA,NA,NA,NA,NA,NA,NA,NA,NA,NA,NA,NA,NA
SUPAMT04615,38F71OA9GZV2JPGGAK2XR3MX2PHFM0,4906B67F-EAA9-4402-9165-B2192CD1BADF,2023-09-26_18h56.17.395,WP_VExplicitOC_LH,2022.2.5,Win32,12.9305886,28.125,3.8366,2.1065,NA,NA,NA,NA,NA,bored,"bored, not bored","more bored, less bored",NA,NA,NA,NA,NA,NA,NA,NA,NA,NA,NA,NA,NA,NA,NA,0,2,2,2,1,NA,NA,NA,NA,NA,NA,NA,NA,NA,NA,NA,NA,NA,NA,NA,NA,NA,NA,NA,NA,NA,NA,NA,NA,NA,NA,NA,NA
SUPAMT04615,38F71OA9GZV2JPGGAK2XR3MX2PHFM0,4906B67F-EAA9-4402-9165-B2192CD1BADF,2023-09-26_18h56.17.395,WP_VExplicitOC_LH,2022.2.5,Win32,12.9305886,NA,NA,NA,NA,NA,NA,NA,NA,NA,NA,NA,NA,NA,NA,NA,NA,NA,NA,NA,NA,NA,NA,NA,NA,NA,NA,NA,NA,NA,NA,NA,13,0,13,0,1,NA,NA,NA,NA,NA,NA,NA,NA,NA,NA,NA,NA,NA,NA,NA,NA,NA,NA,NA,NA,NA,NA,NA
SUPAMT04615,38F71OA9GZV2JPGGAK2XR3MX2PHFM0,4906B67F-EAA9-4402-9165-B2192CD1BADF,2023-09-26_18h56.17.395,WP_VExplicitOC_LH,2022.2.5,Win32,12.9305886,38.54166667,4.7429,2.0277,NA,NA,NA,NA,NA,frustrated,"frustrated, not frustrated","more frustrated, less frustrated",NA,NA,NA,NA,NA,NA,NA,NA,NA,NA,NA,NA,NA,NA,NA,0,0,0,1,1,NA,NA,NA,NA,NA,NA,NA,NA,NA,NA,NA,NA,NA,NA,NA,NA,NA,NA,NA,NA,NA,NA,NA,NA,NA,NA,NA,NA
SUPAMT04615,38F71OA9GZV2JPGGAK2XR3MX2PHFM0,4906B67F-EAA9-4402-9165-B2192CD1BADF,2023-09-26_18h56.17.395,WP_VExplicitOC_LH,2022.2.5,Win32,12.9305886,22.13541667,3.7823,2.0631,NA,NA,NA,NA,NA,happy,"unhappy, happy","less happy, more happy",NA,NA,NA,NA,NA,NA,NA,NA,NA,NA,NA,NA,NA,NA,NA,0,1,1,0,1,NA,NA,NA,NA,NA,NA,NA,NA,NA,NA,NA,NA,NA,NA,NA,NA,NA,NA,NA,NA,NA,NA,NA,NA,NA,NA,NA,NA
SUPAMT04615,38F71OA9GZV2JPGGAK2XR3MX2PHFM0,4906B67F-EAA9-4402-9165-B2192CD1BADF,2023-09-26_18h56.17.395,WP_VExplicitOC_LH,2022.2.5,Win32,12.9305886,32.8125,3.4459,2.1542,NA,NA,NA,NA,NA,bored,"bored, not bored","more bored, less bored",NA,NA,NA,NA,NA,NA,NA,NA,NA,NA,NA,NA,NA,NA,NA,0,2,2,2,1,NA,NA,NA,NA,NA,NA,NA,NA,NA,NA,NA,NA,NA,NA,NA,NA,NA,NA,NA,NA,NA,NA,NA,NA,NA,NA,NA,NA
SUPAMT04615,38F71OA9GZV2JPGGAK2XR3MX2PHFM0,4906B67F-EAA9-4402-9165-B2192CD1BADF,2023-09-26_18h56.17.395,WP_VExplicitOC_LH,2022.2.5,Win32,12.9305886,NA,NA,NA,NA,NA,NA,NA,NA,NA,NA,NA,NA,NA,NA,NA,NA,NA,NA,NA,NA,NA,NA,NA,NA,NA,NA,NA,NA,NA,NA,NA,14,0,14,0,1,NA,NA,NA,NA,NA,NA,NA,NA,NA,NA,NA,NA,NA,NA,NA,NA,NA,NA,NA,NA,NA,NA,NA
SUPAMT04615,38F71OA9GZV2JPGGAK2XR3MX2PHFM0,4906B67F-EAA9-4402-9165-B2192CD1BADF,2023-09-26_18h56.17.395,WP_VExplicitOC_LH,2022.2.5,Win32,12.9305886,NA,NA,NA,NA,NA,NA,NA,NA,NA,NA,NA,NA,NA,NA,NA,NA,NA,NA,NA,NA,NA,NA,NA,NA,NA,NA,NA,NA,NA,NA,NA,NA,NA,NA,NA,NA,NA,NA,NA,NA,NA,NA,NA,NA,NA,NA,NA,NA,NA,NA,NA,NA,NA,NA,NA,NA,NA,NA,NA
SUPAMT04615,38F71OA9GZV2JPGGAK2XR3MX2PHFM0,4906B67F-EAA9-4402-9165-B2192CD1BADF,2023-09-26_18h56.17.395,WP_VExplicitOC_LH,2022.2.5,Win32,12.9305886,NA,NA,NA,NA,NA,NA,NA,NA,NA,NA,NA,NA,NA,NA,NA,NA,NA,NA,NA,NA,NA,NA,NA,NA,NA,NA,NA,NA,NA,NA,NA,NA,NA,NA,NA,NA,NA,NA,NA,NA,NA,NA,NA,NA,NA,NA,NA,NA,NA,NA,NA,NA,NA,NA,NA,NA,NA,NA,NA
SUPAMT04615,38F71OA9GZV2JPGGAK2XR3MX2PHFM0,4906B67F-EAA9-4402-9165-B2192CD1BADF,2023-09-26_18h56.17.395,WP_VExplicitOC_LH,2022.2.5,Win32,12.9305886,NA,NA,NA,NA,NA,NA,NA,NA,NA,NA,NA,NA,NA,NA,NA,NA,NA,NA,rest (looking at a fixed cross),001.png,NA,NA,NA,NA,NA,NA,NA,NA,NA,NA,NA,NA,NA,NA,NA,NA,37.5,3.7823,0,0,0,0,1,NA,NA,NA,NA,NA,NA,NA,NA,NA,NA,NA,NA,NA,NA,NA,NA
SUPAMT04615,38F71OA9GZV2JPGGAK2XR3MX2PHFM0,4906B67F-EAA9-4402-9165-B2192CD1BADF,2023-09-26_18h56.17.395,WP_VExplicitOC_LH,2022.2.5,Win32,12.9305886,NA,NA,NA,NA,NA,NA,NA,NA,NA,NA,NA,NA,NA,NA,NA,NA,NA,NA,stand up,002.png,NA,NA,NA,NA,NA,NA,NA,NA,NA,NA,NA,NA,NA,NA,NA,NA,30.72916667,1.9032,0,1,1,1,1,NA,NA,NA,NA,NA,NA,NA,NA,NA,NA,NA,NA,NA,NA,NA,NA
SUPAMT04615,38F71OA9GZV2JPGGAK2XR3MX2PHFM0,4906B67F-EAA9-4402-9165-B2192CD1BADF,2023-09-26_18h56.17.395,WP_VExplicitOC_LH,2022.2.5,Win32,12.9305886,NA,NA,NA,NA,NA,NA,NA,NA,NA,NA,NA,NA,NA,NA,NA,NA,NA,NA,stretch,003.png,NA,NA,NA,NA,NA,NA,NA,NA,NA,NA,NA,NA,NA,NA,NA,NA,46.35416667,1.6633,0,2,2,2,1,NA,NA,NA,NA,NA,NA,NA,NA,NA,NA,NA,NA,NA,NA,NA,NA
SUPAMT04615,38F71OA9GZV2JPGGAK2XR3MX2PHFM0,4906B67F-EAA9-4402-9165-B2192CD1BADF,2023-09-26_18h56.17.395,WP_VExplicitOC_LH,2022.2.5,Win32,12.9305886,NA,NA,NA,NA,NA,NA,NA,NA,NA,NA,NA,NA,NA,NA,NA,NA,NA,NA,make a drink,004.png,NA,NA,NA,NA,NA,NA,NA,NA,NA,NA,NA,NA,NA,NA,NA,NA,42.96875,1.4961,0,3,3,3,1,NA,NA,NA,NA,NA,NA,NA,NA,NA,NA,NA,NA,NA,NA,NA,NA
SUPAMT04615,38F71OA9GZV2JPGGAK2XR3MX2PHFM0,4906B67F-EAA9-4402-9165-B2192CD1BADF,2023-09-26_18h56.17.395,WP_VExplicitOC_LH,2022.2.5,Win32,12.9305886,NA,NA,NA,NA,NA,NA,NA,NA,NA,NA,NA,NA,NA,NA,NA,NA,NA,NA,scroll social media,005.png,NA,NA,NA,NA,NA,NA,NA,NA,NA,NA,NA,NA,NA,NA,NA,NA,31.77083333,1.2917,0,4,4,4,1,NA,NA,NA,NA,NA,NA,NA,NA,NA,NA,NA,NA,NA,NA,NA,NA
SUPAMT04615,38F71OA9GZV2JPGGAK2XR3MX2PHFM0,4906B67F-EAA9-4402-9165-B2192CD1BADF,2023-09-26_18h56.17.395,WP_VExplicitOC_LH,2022.2.5,Win32,12.9305886,NA,NA,NA,NA,NA,NA,NA,NA,NA,NA,NA,NA,NA,NA,NA,NA,NA,NA,listen to music,006.png,NA,NA,NA,NA,NA,NA,NA,NA,NA,NA,NA,NA,NA,NA,NA,NA,32.8125,1.1839,0,5,5,5,1,NA,NA,NA,NA,NA,NA,NA,NA,NA,NA,NA,NA,NA,NA,NA,NA
SUPAMT04615,38F71OA9GZV2JPGGAK2XR3MX2PHFM0,4906B67F-EAA9-4402-9165-B2192CD1BADF,2023-09-26_18h56.17.395,WP_VExplicitOC_LH,2022.2.5,Win32,12.9305886,NA,NA,NA,NA,NA,NA,NA,NA,NA,NA,NA,NA,NA,NA,NA,NA,NA,NA,daydream,007.png,NA,NA,NA,NA,NA,NA,NA,NA,NA,NA,NA,NA,NA,NA,NA,NA,43.75,1.3818,0,6,6,6,1,NA,NA,NA,NA,NA,NA,NA,NA,NA,NA,NA,NA,NA,NA,NA,NA
SUPAMT04615,38F71OA9GZV2JPGGAK2XR3MX2PHFM0,4906B67F-EAA9-4402-9165-B2192CD1BADF,2023-09-26_18h56.17.395,WP_VExplicitOC_LH,2022.2.5,Win32,12.9305886,NA,NA,NA,NA,NA,NA,NA,NA,NA,NA,NA,NA,NA,NA,NA,NA,NA,NA,watch a short animation,008.png,NA,NA,NA,NA,NA,NA,NA,NA,NA,NA,NA,NA,NA,NA,NA,NA,33.85416667,1.2518,0,7,7,7,1,NA,NA,NA,NA,NA,NA,NA,NA,NA,NA,NA,NA,NA,NA,NA,NA
SUPAMT04615,38F71OA9GZV2JPGGAK2XR3MX2PHFM0,4906B67F-EAA9-4402-9165-B2192CD1BADF,2023-09-26_18h56.17.395,WP_VExplicitOC_LH,2022.2.5,Win32,12.9305886,NA,NA,NA,NA,NA,NA,NA,NA,NA,NA,NA,NA,NA,NA,NA,NA,NA,NA,read a novel,009.png,NA,NA,NA,NA,NA,NA,NA,NA,NA,NA,NA,NA,NA,NA,NA,NA,39.0625,1.1802,0,8,8,8,1,NA,NA,NA,NA,NA,NA,NA,NA,NA,NA,NA,NA,NA,NA,NA,NA
SUPAMT04615,38F71OA9GZV2JPGGAK2XR3MX2PHFM0,4906B67F-EAA9-4402-9165-B2192CD1BADF,2023-09-26_18h56.17.395,WP_VExplicitOC_LH,2022.2.5,Win32,12.9305886,NA,NA,NA,NA,NA,NA,NA,NA,NA,NA,NA,NA,NA,NA,NA,NA,NA,NA,read the news,010.png,NA,NA,NA,NA,NA,NA,NA,NA,NA,NA,NA,NA,NA,NA,NA,NA,37.5,1.3271,0,9,9,9,1,NA,NA,NA,NA,NA,NA,NA,NA,NA,NA,NA,NA,NA,NA,NA,NA
SUPAMT04615,38F71OA9GZV2JPGGAK2XR3MX2PHFM0,4906B67F-EAA9-4402-9165-B2192CD1BADF,2023-09-26_18h56.17.395,WP_VExplicitOC_LH,2022.2.5,Win32,12.9305886,NA,NA,NA,NA,NA,NA,NA,NA,NA,NA,NA,NA,NA,NA,NA,NA,NA,NA,NA,NA,NA,NA,NA,NA,NA,NA,NA,NA,NA,NA,NA,NA,NA,NA,NA,NA,NA,NA,NA,NA,NA,NA,NA,stretch,NA,NA,NA,NA,NA,NA,NA,NA,NA,NA,NA,NA,NA,NA,NA
SUPAMT04615,38F71OA9GZV2JPGGAK2XR3MX2PHFM0,4906B67F-EAA9-4402-9165-B2192CD1BADF,2023-09-26_18h56.17.395,WP_VExplicitOC_LH,2022.2.5,Win32,12.9305886,42.1875,3.8787,2.1648,NA,NA,NA,NA,NA,bored,"bored, not bored","more bored, less bored",NA,NA,NA,NA,NA,NA,NA,NA,NA,NA,NA,NA,NA,NA,NA,NA,NA,NA,NA,NA,NA,NA,NA,NA,NA,NA,NA,NA,NA,NA,NA,NA,NA,0,0,0,2,1,NA,NA,NA,NA,NA,NA,NA,NA,NA,NA
SUPAMT04615,38F71OA9GZV2JPGGAK2XR3MX2PHFM0,4906B67F-EAA9-4402-9165-B2192CD1BADF,2023-09-26_18h56.17.395,WP_VExplicitOC_LH,2022.2.5,Win32,12.9305886,39.32291667,3.5743,2.2865,NA,NA,NA,NA,NA,happy,"unhappy, happy","less happy, more happy",NA,NA,NA,NA,NA,NA,NA,NA,NA,NA,NA,NA,NA,NA,NA,NA,NA,NA,NA,NA,NA,NA,NA,NA,NA,NA,NA,NA,NA,NA,NA,NA,NA,0,1,1,0,1,NA,NA,NA,NA,NA,NA,NA,NA,NA,NA
SUPAMT04615,38F71OA9GZV2JPGGAK2XR3MX2PHFM0,4906B67F-EAA9-4402-9165-B2192CD1BADF,2023-09-26_18h56.17.395,WP_VExplicitOC_LH,2022.2.5,Win32,12.9305886,41.40625,3.5164,2.0508,NA,NA,NA,NA,NA,frustrated,"frustrated, not frustrated","more frustrated, less frustrated",NA,NA,NA,NA,NA,NA,NA,NA,NA,NA,NA,NA,NA,NA,NA,NA,NA,NA,NA,NA,NA,NA,NA,NA,NA,NA,NA,NA,NA,NA,NA,NA,NA,0,2,2,1,1,NA,NA,NA,NA,NA,NA,NA,NA,NA,NA
SUPAMT04615,38F71OA9GZV2JPGGAK2XR3MX2PHFM0,4906B67F-EAA9-4402-9165-B2192CD1BADF,2023-09-26_18h56.17.395,WP_VExplicitOC_LH,2022.2.5,Win32,12.9305886,NA,NA,NA,NA,NA,NA,NA,NA,NA,NA,NA,NA,NA,NA,NA,NA,NA,NA,NA,NA,NA,NA,NA,NA,NA,NA,NA,NA,NA,NA,NA,NA,NA,NA,NA,NA,NA,NA,NA,NA,NA,NA,NA,NA,NA,NA,NA,NA,NA,NA,NA,NA,NA,NA,NA,NA,NA,NA,NA
SUPAMT04615,38F71OA9GZV2JPGGAK2XR3MX2PHFM0,4906B67F-EAA9-4402-9165-B2192CD1BADF,2023-09-26_18h56.17.395,WP_VExplicitOC_LH,2022.2.5,Win32,12.9305886,NA,NA,NA,NA,NA,NA,NA,NA,NA,NA,NA,NA,NA,NA,NA,NA,NA,NA,NA,NA,NA,NA,NA,NA,NA,NA,NA,NA,NA,NA,NA,NA,NA,NA,NA,NA,NA,NA,NA,NA,NA,NA,NA,NA,NA,NA,NA,NA,NA,NA,NA,NA,NA,NA,NA,NA,NA,NA,NA
SUPAMT04615,38F71OA9GZV2JPGGAK2XR3MX2PHFM0,4906B67F-EAA9-4402-9165-B2192CD1BADF,2023-09-26_18h56.17.395,WP_VExplicitOC_LH,2022.2.5,Win32,12.9305886,35.67708333,3.3893,2.04,NA,NA,NA,NA,NA,happy,"unhappy, happy","less happy, more happy",NA,NA,NA,NA,NA,NA,NA,NA,NA,NA,NA,NA,NA,NA,NA,NA,NA,NA,NA,NA,NA,NA,NA,NA,NA,NA,NA,NA,NA,NA,NA,NA,NA,NA,NA,NA,NA,NA,0,0,0,0,1,NA,NA,NA,NA,NA
SUPAMT04615,38F71OA9GZV2JPGGAK2XR3MX2PHFM0,4906B67F-EAA9-4402-9165-B2192CD1BADF,2023-09-26_18h56.17.395,WP_VExplicitOC_LH,2022.2.5,Win32,12.9305886,45.83333333,3.5311,2.0434,NA,NA,NA,NA,NA,frustrated,"frustrated, not frustrated","more frustrated, less frustrated",NA,NA,NA,NA,NA,NA,NA,NA,NA,NA,NA,NA,NA,NA,NA,NA,NA,NA,NA,NA,NA,NA,NA,NA,NA,NA,NA,NA,NA,NA,NA,NA,NA,NA,NA,NA,NA,NA,0,1,1,1,1,NA,NA,NA,NA,NA
SUPAMT04615,38F71OA9GZV2JPGGAK2XR3MX2PHFM0,4906B67F-EAA9-4402-9165-B2192CD1BADF,2023-09-26_18h56.17.395,WP_VExplicitOC_LH,2022.2.5,Win32,12.9305886,34.375,3.6634,2.1037,NA,NA,NA,NA,NA,bored,"bored, not bored","more bored, less bored",NA,NA,NA,NA,NA,NA,NA,NA,NA,NA,NA,NA,NA,NA,NA,NA,NA,NA,NA,NA,NA,NA,NA,NA,NA,NA,NA,NA,NA,NA,NA,NA,NA,NA,NA,NA,NA,NA,0,2,2,2,1,NA,NA,NA,NA,NA
SUPAMT04615,38F71OA9GZV2JPGGAK2XR3MX2PHFM0,4906B67F-EAA9-4402-9165-B2192CD1BADF,2023-09-26_18h56.17.395,WP_VExplicitOC_LH,2022.2.5,Win32,12.9305886,NA,NA,NA,NA,NA,NA,NA,NA,NA,NA,NA,NA,NA,NA,NA,NA,NA,NA,NA,NA,NA,NA,NA,NA,NA,NA,NA,NA,NA,NA,NA,NA,NA,NA,NA,NA,NA,NA,NA,NA,NA,NA,NA,NA,NA,NA,NA,NA,NA,NA,NA,NA,NA,NA,0,0,0,0,1
SUPAMT04615,38F71OA9GZV2JPGGAK2XR3MX2PHFM0,4906B67F-EAA9-4402-9165-B2192CD1BADF,2023-09-26_18h56.17.395,WP_VExplicitOC_LH,2022.2.5,Win32,12.9305886,28.90625,4.1695,2.1829,NA,NA,NA,NA,NA,bored,"bored, not bored","more bored, less bored",NA,NA,NA,NA,NA,NA,NA,NA,NA,NA,NA,NA,NA,NA,NA,NA,NA,NA,NA,NA,NA,NA,NA,NA,NA,NA,NA,NA,NA,NA,NA,NA,NA,NA,NA,NA,NA,NA,0,0,0,2,1,NA,NA,NA,NA,NA
SUPAMT04615,38F71OA9GZV2JPGGAK2XR3MX2PHFM0,4906B67F-EAA9-4402-9165-B2192CD1BADF,2023-09-26_18h56.17.395,WP_VExplicitOC_LH,2022.2.5,Win32,12.9305886,32.55208333,3.6891,2.1706,NA,NA,NA,NA,NA,frustrated,"frustrated, not frustrated","more frustrated, less frustrated",NA,NA,NA,NA,NA,NA,NA,NA,NA,NA,NA,NA,NA,NA,NA,NA,NA,NA,NA,NA,NA,NA,NA,NA,NA,NA,NA,NA,NA,NA,NA,NA,NA,NA,NA,NA,NA,NA,0,1,1,1,1,NA,NA,NA,NA,NA
SUPAMT04615,38F71OA9GZV2JPGGAK2XR3MX2PHFM0,4906B67F-EAA9-4402-9165-B2192CD1BADF,2023-09-26_18h56.17.395,WP_VExplicitOC_LH,2022.2.5,Win32,12.9305886,23.17708333,3.451,2.0371,NA,NA,NA,NA,NA,happy,"unhappy, happy","less happy, more happy",NA,NA,NA,NA,NA,NA,NA,NA,NA,NA,NA,NA,NA,NA,NA,NA,NA,NA,NA,NA,NA,NA,NA,NA,NA,NA,NA,NA,NA,NA,NA,NA,NA,NA,NA,NA,NA,NA,0,2,2,0,1,NA,NA,NA,NA,NA
SUPAMT04615,38F71OA9GZV2JPGGAK2XR3MX2PHFM0,4906B67F-EAA9-4402-9165-B2192CD1BADF,2023-09-26_18h56.17.395,WP_VExplicitOC_LH,2022.2.5,Win32,12.9305886,NA,NA,NA,NA,NA,NA,NA,NA,NA,NA,NA,NA,NA,NA,NA,NA,NA,NA,NA,NA,NA,NA,NA,NA,NA,NA,NA,NA,NA,NA,NA,NA,NA,NA,NA,NA,NA,NA,NA,NA,NA,NA,NA,NA,NA,NA,NA,NA,NA,NA,NA,NA,NA,NA,1,0,1,0,1
SUPAMT04615,38F71OA9GZV2JPGGAK2XR3MX2PHFM0,4906B67F-EAA9-4402-9165-B2192CD1BADF,2023-09-26_18h56.17.395,WP_VExplicitOC_LH,2022.2.5,Win32,12.9305886,58.85416667,3.7637,2.1054,NA,NA,NA,NA,NA,bored,"bored, not bored","more bored, less bored",NA,NA,NA,NA,NA,NA,NA,NA,NA,NA,NA,NA,NA,NA,NA,NA,NA,NA,NA,NA,NA,NA,NA,NA,NA,NA,NA,NA,NA,NA,NA,NA,NA,NA,NA,NA,NA,NA,0,0,0,2,1,NA,NA,NA,NA,NA
SUPAMT04615,38F71OA9GZV2JPGGAK2XR3MX2PHFM0,4906B67F-EAA9-4402-9165-B2192CD1BADF,2023-09-26_18h56.17.395,WP_VExplicitOC_LH,2022.2.5,Win32,12.9305886,39.0625,3.8697,2.0833,NA,NA,NA,NA,NA,happy,"unhappy, happy","less happy, more happy",NA,NA,NA,NA,NA,NA,NA,NA,NA,NA,NA,NA,NA,NA,NA,NA,NA,NA,NA,NA,NA,NA,NA,NA,NA,NA,NA,NA,NA,NA,NA,NA,NA,NA,NA,NA,NA,NA,0,1,1,0,1,NA,NA,NA,NA,NA
SUPAMT04615,38F71OA9GZV2JPGGAK2XR3MX2PHFM0,4906B67F-EAA9-4402-9165-B2192CD1BADF,2023-09-26_18h56.17.395,WP_VExplicitOC_LH,2022.2.5,Win32,12.9305886,48.95833333,3.595,2.1601,NA,NA,NA,NA,NA,frustrated,"frustrated, not frustrated","more frustrated, less frustrated",NA,NA,NA,NA,NA,NA,NA,NA,NA,NA,NA,NA,NA,NA,NA,NA,NA,NA,NA,NA,NA,NA,NA,NA,NA,NA,NA,NA,NA,NA,NA,NA,NA,NA,NA,NA,NA,NA,0,2,2,1,1,NA,NA,NA,NA,NA
SUPAMT04615,38F71OA9GZV2JPGGAK2XR3MX2PHFM0,4906B67F-EAA9-4402-9165-B2192CD1BADF,2023-09-26_18h56.17.395,WP_VExplicitOC_LH,2022.2.5,Win32,12.9305886,NA,NA,NA,NA,NA,NA,NA,NA,NA,NA,NA,NA,NA,NA,NA,NA,NA,NA,NA,NA,NA,NA,NA,NA,NA,NA,NA,NA,NA,NA,NA,NA,NA,NA,NA,NA,NA,NA,NA,NA,NA,NA,NA,NA,NA,NA,NA,NA,NA,NA,NA,NA,NA,NA,2,0,2,0,1
SUPAMT04615,38F71OA9GZV2JPGGAK2XR3MX2PHFM0,4906B67F-EAA9-4402-9165-B2192CD1BADF,2023-09-26_18h56.17.395,WP_VExplicitOC_LH,2022.2.5,Win32,12.9305886,32.55208333,3.575,2.005,NA,NA,NA,NA,NA,frustrated,"frustrated, not frustrated","more frustrated, less frustrated",NA,NA,NA,NA,NA,NA,NA,NA,NA,NA,NA,NA,NA,NA,NA,NA,NA,NA,NA,NA,NA,NA,NA,NA,NA,NA,NA,NA,NA,NA,NA,NA,NA,NA,NA,NA,NA,NA,0,0,0,1,1,NA,NA,NA,NA,NA
SUPAMT04615,38F71OA9GZV2JPGGAK2XR3MX2PHFM0,4906B67F-EAA9-4402-9165-B2192CD1BADF,2023-09-26_18h56.17.395,WP_VExplicitOC_LH,2022.2.5,Win32,12.9305886,26.30208333,3.4106,2.0399,NA,NA,NA,NA,NA,happy,"unhappy, happy","less happy, more happy",NA,NA,NA,NA,NA,NA,NA,NA,NA,NA,NA,NA,NA,NA,NA,NA,NA,NA,NA,NA,NA,NA,NA,NA,NA,NA,NA,NA,NA,NA,NA,NA,NA,NA,NA,NA,NA,NA,0,1,1,0,1,NA,NA,NA,NA,NA
SUPAMT04615,38F71OA9GZV2JPGGAK2XR3MX2PHFM0,4906B67F-EAA9-4402-9165-B2192CD1BADF,2023-09-26_18h56.17.395,WP_VExplicitOC_LH,2022.2.5,Win32,12.9305886,21.61458333,3.9004,2.0282,NA,NA,NA,NA,NA,bored,"bored, not bored","more bored, less bored",NA,NA,NA,NA,NA,NA,NA,NA,NA,NA,NA,NA,NA,NA,NA,NA,NA,NA,NA,NA,NA,NA,NA,NA,NA,NA,NA,NA,NA,NA,NA,NA,NA,NA,NA,NA,NA,NA,0,2,2,2,1,NA,NA,NA,NA,NA
SUPAMT04615,38F71OA9GZV2JPGGAK2XR3MX2PHFM0,4906B67F-EAA9-4402-9165-B2192CD1BADF,2023-09-26_18h56.17.395,WP_VExplicitOC_LH,2022.2.5,Win32,12.9305886,NA,NA,NA,NA,NA,NA,NA,NA,NA,NA,NA,NA,NA,NA,NA,NA,NA,NA,NA,NA,NA,NA,NA,NA,NA,NA,NA,NA,NA,NA,NA,NA,NA,NA,NA,NA,NA,NA,NA,NA,NA,NA,NA,NA,NA,NA,NA,NA,NA,NA,NA,NA,NA,NA,3,0,3,0,1
SUPAMT04615,38F71OA9GZV2JPGGAK2XR3MX2PHFM0,4906B67F-EAA9-4402-9165-B2192CD1BADF,2023-09-26_18h56.17.395,WP_VExplicitOC_LH,2022.2.5,Win32,12.9305886,58.07291667,3.5969,2.0672,NA,NA,NA,NA,NA,frustrated,"frustrated, not frustrated","more frustrated, less frustrated",NA,NA,NA,NA,NA,NA,NA,NA,NA,NA,NA,NA,NA,NA,NA,NA,NA,NA,NA,NA,NA,NA,NA,NA,NA,NA,NA,NA,NA,NA,NA,NA,NA,NA,NA,NA,NA,NA,0,0,0,1,1,NA,NA,NA,NA,NA
SUPAMT04615,38F71OA9GZV2JPGGAK2XR3MX2PHFM0,4906B67F-EAA9-4402-9165-B2192CD1BADF,2023-09-26_18h56.17.395,WP_VExplicitOC_LH,2022.2.5,Win32,12.9305886,40.36458333,3.3189,2.1271,NA,NA,NA,NA,NA,bored,"bored, not bored","more bored, less bored",NA,NA,NA,NA,NA,NA,NA,NA,NA,NA,NA,NA,NA,NA,NA,NA,NA,NA,NA,NA,NA,NA,NA,NA,NA,NA,NA,NA,NA,NA,NA,NA,NA,NA,NA,NA,NA,NA,0,1,1,2,1,NA,NA,NA,NA,NA
SUPAMT04615,38F71OA9GZV2JPGGAK2XR3MX2PHFM0,4906B67F-EAA9-4402-9165-B2192CD1BADF,2023-09-26_18h56.17.395,WP_VExplicitOC_LH,2022.2.5,Win32,12.9305886,42.96875,3.0179,2.0682,NA,NA,NA,NA,NA,happy,"unhappy, happy","less happy, more happy",NA,NA,NA,NA,NA,NA,NA,NA,NA,NA,NA,NA,NA,NA,NA,NA,NA,NA,NA,NA,NA,NA,NA,NA,NA,NA,NA,NA,NA,NA,NA,NA,NA,NA,NA,NA,NA,NA,0,2,2,0,1,NA,NA,NA,NA,NA
SUPAMT04615,38F71OA9GZV2JPGGAK2XR3MX2PHFM0,4906B67F-EAA9-4402-9165-B2192CD1BADF,2023-09-26_18h56.17.395,WP_VExplicitOC_LH,2022.2.5,Win32,12.9305886,NA,NA,NA,NA,NA,NA,NA,NA,NA,NA,NA,NA,NA,NA,NA,NA,NA,NA,NA,NA,NA,NA,NA,NA,NA,NA,NA,NA,NA,NA,NA,NA,NA,NA,NA,NA,NA,NA,NA,NA,NA,NA,NA,NA,NA,NA,NA,NA,NA,NA,NA,NA,NA,NA,4,0,4,0,1
SUPAMT04615,38F71OA9GZV2JPGGAK2XR3MX2PHFM0,4906B67F-EAA9-4402-9165-B2192CD1BADF,2023-09-26_18h56.17.395,WP_VExplicitOC_LH,2022.2.5,Win32,12.9305886,41.92708333,3.7325,2.0072,NA,NA,NA,NA,NA,bored,"bored, not bored","more bored, less bored",NA,NA,NA,NA,NA,NA,NA,NA,NA,NA,NA,NA,NA,NA,NA,NA,NA,NA,NA,NA,NA,NA,NA,NA,NA,NA,NA,NA,NA,NA,NA,NA,NA,NA,NA,NA,NA,NA,0,0,0,2,1,NA,NA,NA,NA,NA
SUPAMT04615,38F71OA9GZV2JPGGAK2XR3MX2PHFM0,4906B67F-EAA9-4402-9165-B2192CD1BADF,2023-09-26_18h56.17.395,WP_VExplicitOC_LH,2022.2.5,Win32,12.9305886,38.54166667,3.299,2.0557,NA,NA,NA,NA,NA,frustrated,"frustrated, not frustrated","more frustrated, less frustrated",NA,NA,NA,NA,NA,NA,NA,NA,NA,NA,NA,NA,NA,NA,NA,NA,NA,NA,NA,NA,NA,NA,NA,NA,NA,NA,NA,NA,NA,NA,NA,NA,NA,NA,NA,NA,NA,NA,0,1,1,1,1,NA,NA,NA,NA,NA
SUPAMT04615,38F71OA9GZV2JPGGAK2XR3MX2PHFM0,4906B67F-EAA9-4402-9165-B2192CD1BADF,2023-09-26_18h56.17.395,WP_VExplicitOC_LH,2022.2.5,Win32,12.9305886,38.80208333,3.8831,2.0749,NA,NA,NA,NA,NA,happy,"unhappy, happy","less happy, more happy",NA,NA,NA,NA,NA,NA,NA,NA,NA,NA,NA,NA,NA,NA,NA,NA,NA,NA,NA,NA,NA,NA,NA,NA,NA,NA,NA,NA,NA,NA,NA,NA,NA,NA,NA,NA,NA,NA,0,2,2,0,1,NA,NA,NA,NA,NA
SUPAMT04615,38F71OA9GZV2JPGGAK2XR3MX2PHFM0,4906B67F-EAA9-4402-9165-B2192CD1BADF,2023-09-26_18h56.17.395,WP_VExplicitOC_LH,2022.2.5,Win32,12.9305886,NA,NA,NA,NA,NA,NA,NA,NA,NA,NA,NA,NA,NA,NA,NA,NA,NA,NA,NA,NA,NA,NA,NA,NA,NA,NA,NA,NA,NA,NA,NA,NA,NA,NA,NA,NA,NA,NA,NA,NA,NA,NA,NA,NA,NA,NA,NA,NA,NA,NA,NA,NA,NA,NA,5,0,5,0,1
SUPAMT04615,38F71OA9GZV2JPGGAK2XR3MX2PHFM0,4906B67F-EAA9-4402-9165-B2192CD1BADF,2023-09-26_18h56.17.395,WP_VExplicitOC_LH,2022.2.5,Win32,12.9305886,29.16666667,4.0926,2.1469,NA,NA,NA,NA,NA,happy,"unhappy, happy","less happy, more happy",NA,NA,NA,NA,NA,NA,NA,NA,NA,NA,NA,NA,NA,NA,NA,NA,NA,NA,NA,NA,NA,NA,NA,NA,NA,NA,NA,NA,NA,NA,NA,NA,NA,NA,NA,NA,NA,NA,0,0,0,0,1,NA,NA,NA,NA,NA
SUPAMT04615,38F71OA9GZV2JPGGAK2XR3MX2PHFM0,4906B67F-EAA9-4402-9165-B2192CD1BADF,2023-09-26_18h56.17.395,WP_VExplicitOC_LH,2022.2.5,Win32,12.9305886,30.72916667,3.387,2.0831,NA,NA,NA,NA,NA,bored,"bored, not bored","more bored, less bored",NA,NA,NA,NA,NA,NA,NA,NA,NA,NA,NA,NA,NA,NA,NA,NA,NA,NA,NA,NA,NA,NA,NA,NA,NA,NA,NA,NA,NA,NA,NA,NA,NA,NA,NA,NA,NA,NA,0,1,1,2,1,NA,NA,NA,NA,NA
SUPAMT04615,38F71OA9GZV2JPGGAK2XR3MX2PHFM0,4906B67F-EAA9-4402-9165-B2192CD1BADF,2023-09-26_18h56.17.395,WP_VExplicitOC_LH,2022.2.5,Win32,12.9305886,38.80208333,3.6877,2.05,NA,NA,NA,NA,NA,frustrated,"frustrated, not frustrated","more frustrated, less frustrated",NA,NA,NA,NA,NA,NA,NA,NA,NA,NA,NA,NA,NA,NA,NA,NA,NA,NA,NA,NA,NA,NA,NA,NA,NA,NA,NA,NA,NA,NA,NA,NA,NA,NA,NA,NA,NA,NA,0,2,2,1,1,NA,NA,NA,NA,NA
SUPAMT04615,38F71OA9GZV2JPGGAK2XR3MX2PHFM0,4906B67F-EAA9-4402-9165-B2192CD1BADF,2023-09-26_18h56.17.395,WP_VExplicitOC_LH,2022.2.5,Win32,12.9305886,NA,NA,NA,NA,NA,NA,NA,NA,NA,NA,NA,NA,NA,NA,NA,NA,NA,NA,NA,NA,NA,NA,NA,NA,NA,NA,NA,NA,NA,NA,NA,NA,NA,NA,NA,NA,NA,NA,NA,NA,NA,NA,NA,NA,NA,NA,NA,NA,NA,NA,NA,NA,NA,NA,6,0,6,0,1
SUPAMT04615,38F71OA9GZV2JPGGAK2XR3MX2PHFM0,4906B67F-EAA9-4402-9165-B2192CD1BADF,2023-09-26_18h56.17.395,WP_VExplicitOC_LH,2022.2.5,Win32,12.9305886,45.83333333,3.5554,2.1227,NA,NA,NA,NA,NA,bored,"bored, not bored","more bored, less bored",NA,NA,NA,NA,NA,NA,NA,NA,NA,NA,NA,NA,NA,NA,NA,NA,NA,NA,NA,NA,NA,NA,NA,NA,NA,NA,NA,NA,NA,NA,NA,NA,NA,NA,NA,NA,NA,NA,0,0,0,2,1,NA,NA,NA,NA,NA
SUPAMT04615,38F71OA9GZV2JPGGAK2XR3MX2PHFM0,4906B67F-EAA9-4402-9165-B2192CD1BADF,2023-09-26_18h56.17.395,WP_VExplicitOC_LH,2022.2.5,Win32,12.9305886,60.41666667,3.7253,2.0324,NA,NA,NA,NA,NA,happy,"unhappy, happy","less happy, more happy",NA,NA,NA,NA,NA,NA,NA,NA,NA,NA,NA,NA,NA,NA,NA,NA,NA,NA,NA,NA,NA,NA,NA,NA,NA,NA,NA,NA,NA,NA,NA,NA,NA,NA,NA,NA,NA,NA,0,1,1,0,1,NA,NA,NA,NA,NA
SUPAMT04615,38F71OA9GZV2JPGGAK2XR3MX2PHFM0,4906B67F-EAA9-4402-9165-B2192CD1BADF,2023-09-26_18h56.17.395,WP_VExplicitOC_LH,2022.2.5,Win32,12.9305886,26.04166667,4.6959,2,NA,NA,NA,NA,NA,frustrated,"frustrated, not frustrated","more frustrated, less frustrated",NA,NA,NA,NA,NA,NA,NA,NA,NA,NA,NA,NA,NA,NA,NA,NA,NA,NA,NA,NA,NA,NA,NA,NA,NA,NA,NA,NA,NA,NA,NA,NA,NA,NA,NA,NA,NA,NA,0,2,2,1,1,NA,NA,NA,NA,NA
SUPAMT04615,38F71OA9GZV2JPGGAK2XR3MX2PHFM0,4906B67F-EAA9-4402-9165-B2192CD1BADF,2023-09-26_18h56.17.395,WP_VExplicitOC_LH,2022.2.5,Win32,12.9305886,NA,NA,NA,NA,NA,NA,NA,NA,NA,NA,NA,NA,NA,NA,NA,NA,NA,NA,NA,NA,NA,NA,NA,NA,NA,NA,NA,NA,NA,NA,NA,NA,NA,NA,NA,NA,NA,NA,NA,NA,NA,NA,NA,NA,NA,NA,NA,NA,NA,NA,NA,NA,NA,NA,7,0,7,0,1
SUPAMT04615,38F71OA9GZV2JPGGAK2XR3MX2PHFM0,4906B67F-EAA9-4402-9165-B2192CD1BADF,2023-09-26_18h56.17.395,WP_VExplicitOC_LH,2022.2.5,Win32,12.9305886,38.80208333,3.4343,2.0054,NA,NA,NA,NA,NA,frustrated,"frustrated, not frustrated","more frustrated, less frustrated",NA,NA,NA,NA,NA,NA,NA,NA,NA,NA,NA,NA,NA,NA,NA,NA,NA,NA,NA,NA,NA,NA,NA,NA,NA,NA,NA,NA,NA,NA,NA,NA,NA,NA,NA,NA,NA,NA,0,0,0,1,1,NA,NA,NA,NA,NA
SUPAMT04615,38F71OA9GZV2JPGGAK2XR3MX2PHFM0,4906B67F-EAA9-4402-9165-B2192CD1BADF,2023-09-26_18h56.17.395,WP_VExplicitOC_LH,2022.2.5,Win32,12.9305886,37.5,3.377,2.0006,NA,NA,NA,NA,NA,bored,"bored, not bored","more bored, less bored",NA,NA,NA,NA,NA,NA,NA,NA,NA,NA,NA,NA,NA,NA,NA,NA,NA,NA,NA,NA,NA,NA,NA,NA,NA,NA,NA,NA,NA,NA,NA,NA,NA,NA,NA,NA,NA,NA,0,1,1,2,1,NA,NA,NA,NA,NA
SUPAMT04615,38F71OA9GZV2JPGGAK2XR3MX2PHFM0,4906B67F-EAA9-4402-9165-B2192CD1BADF,2023-09-26_18h56.17.395,WP_VExplicitOC_LH,2022.2.5,Win32,12.9305886,28.38541667,3.269,2.1436,NA,NA,NA,NA,NA,happy,"unhappy, happy","less happy, more happy",NA,NA,NA,NA,NA,NA,NA,NA,NA,NA,NA,NA,NA,NA,NA,NA,NA,NA,NA,NA,NA,NA,NA,NA,NA,NA,NA,NA,NA,NA,NA,NA,NA,NA,NA,NA,NA,NA,0,2,2,0,1,NA,NA,NA,NA,NA
SUPAMT04615,38F71OA9GZV2JPGGAK2XR3MX2PHFM0,4906B67F-EAA9-4402-9165-B2192CD1BADF,2023-09-26_18h56.17.395,WP_VExplicitOC_LH,2022.2.5,Win32,12.9305886,NA,NA,NA,NA,NA,NA,NA,NA,NA,NA,NA,NA,NA,NA,NA,NA,NA,NA,NA,NA,NA,NA,NA,NA,NA,NA,NA,NA,NA,NA,NA,NA,NA,NA,NA,NA,NA,NA,NA,NA,NA,NA,NA,NA,NA,NA,NA,NA,NA,NA,NA,NA,NA,NA,8,0,8,0,1
SUPAMT04615,38F71OA9GZV2JPGGAK2XR3MX2PHFM0,4906B67F-EAA9-4402-9165-B2192CD1BADF,2023-09-26_18h56.17.395,WP_VExplicitOC_LH,2022.2.5,Win32,12.9305886,51.30208333,3.454,2.0264,NA,NA,NA,NA,NA,happy,"unhappy, happy","less happy, more happy",NA,NA,NA,NA,NA,NA,NA,NA,NA,NA,NA,NA,NA,NA,NA,NA,NA,NA,NA,NA,NA,NA,NA,NA,NA,NA,NA,NA,NA,NA,NA,NA,NA,NA,NA,NA,NA,NA,0,0,0,0,1,NA,NA,NA,NA,NA
SUPAMT04615,38F71OA9GZV2JPGGAK2XR3MX2PHFM0,4906B67F-EAA9-4402-9165-B2192CD1BADF,2023-09-26_18h56.17.395,WP_VExplicitOC_LH,2022.2.5,Win32,12.9305886,52.60416667,3.3589,2.0348,NA,NA,NA,NA,NA,frustrated,"frustrated, not frustrated","more frustrated, less frustrated",NA,NA,NA,NA,NA,NA,NA,NA,NA,NA,NA,NA,NA,NA,NA,NA,NA,NA,NA,NA,NA,NA,NA,NA,NA,NA,NA,NA,NA,NA,NA,NA,NA,NA,NA,NA,NA,NA,0,1,1,1,1,NA,NA,NA,NA,NA
SUPAMT04615,38F71OA9GZV2JPGGAK2XR3MX2PHFM0,4906B67F-EAA9-4402-9165-B2192CD1BADF,2023-09-26_18h56.17.395,WP_VExplicitOC_LH,2022.2.5,Win32,12.9305886,44.79166667,3.2597,2.1398,NA,NA,NA,NA,NA,bored,"bored, not bored","more bored, less bored",NA,NA,NA,NA,NA,NA,NA,NA,NA,NA,NA,NA,NA,NA,NA,NA,NA,NA,NA,NA,NA,NA,NA,NA,NA,NA,NA,NA,NA,NA,NA,NA,NA,NA,NA,NA,NA,NA,0,2,2,2,1,NA,NA,NA,NA,NA
SUPAMT04615,38F71OA9GZV2JPGGAK2XR3MX2PHFM0,4906B67F-EAA9-4402-9165-B2192CD1BADF,2023-09-26_18h56.17.395,WP_VExplicitOC_LH,2022.2.5,Win32,12.9305886,NA,NA,NA,NA,NA,NA,NA,NA,NA,NA,NA,NA,NA,NA,NA,NA,NA,NA,NA,NA,NA,NA,NA,NA,NA,NA,NA,NA,NA,NA,NA,NA,NA,NA,NA,NA,NA,NA,NA,NA,NA,NA,NA,NA,NA,NA,NA,NA,NA,NA,NA,NA,NA,NA,9,0,9,0,1
SUPAMT04615,38F71OA9GZV2JPGGAK2XR3MX2PHFM0,4906B67F-EAA9-4402-9165-B2192CD1BADF,2023-09-26_18h56.17.395,WP_VExplicitOC_LH,2022.2.5,Win32,12.9305886,34.89583333,3.4205,2.0205,NA,NA,NA,NA,NA,happy,"unhappy, happy","less happy, more happy",NA,NA,NA,NA,NA,NA,NA,NA,NA,NA,NA,NA,NA,NA,NA,NA,NA,NA,NA,NA,NA,NA,NA,NA,NA,NA,NA,NA,NA,NA,NA,NA,NA,NA,NA,NA,NA,NA,0,0,0,0,1,NA,NA,NA,NA,NA
SUPAMT04615,38F71OA9GZV2JPGGAK2XR3MX2PHFM0,4906B67F-EAA9-4402-9165-B2192CD1BADF,2023-09-26_18h56.17.395,WP_VExplicitOC_LH,2022.2.5,Win32,12.9305886,57.8125,3.4392,2.0789,NA,NA,NA,NA,NA,frustrated,"frustrated, not frustrated","more frustrated, less frustrated",NA,NA,NA,NA,NA,NA,NA,NA,NA,NA,NA,NA,NA,NA,NA,NA,NA,NA,NA,NA,NA,NA,NA,NA,NA,NA,NA,NA,NA,NA,NA,NA,NA,NA,NA,NA,NA,NA,0,1,1,1,1,NA,NA,NA,NA,NA
SUPAMT04615,38F71OA9GZV2JPGGAK2XR3MX2PHFM0,4906B67F-EAA9-4402-9165-B2192CD1BADF,2023-09-26_18h56.17.395,WP_VExplicitOC_LH,2022.2.5,Win32,12.9305886,36.97916667,3.2751,2.0576,NA,NA,NA,NA,NA,bored,"bored, not bored","more bored, less bored",NA,NA,NA,NA,NA,NA,NA,NA,NA,NA,NA,NA,NA,NA,NA,NA,NA,NA,NA,NA,NA,NA,NA,NA,NA,NA,NA,NA,NA,NA,NA,NA,NA,NA,NA,NA,NA,NA,0,2,2,2,1,NA,NA,NA,NA,NA
SUPAMT04615,38F71OA9GZV2JPGGAK2XR3MX2PHFM0,4906B67F-EAA9-4402-9165-B2192CD1BADF,2023-09-26_18h56.17.395,WP_VExplicitOC_LH,2022.2.5,Win32,12.9305886,NA,NA,NA,NA,NA,NA,NA,NA,NA,NA,NA,NA,NA,NA,NA,NA,NA,NA,NA,NA,NA,NA,NA,NA,NA,NA,NA,NA,NA,NA,NA,NA,NA,NA,NA,NA,NA,NA,NA,NA,NA,NA,NA,NA,NA,NA,NA,NA,NA,NA,NA,NA,NA,NA,10,0,10,0,1
SUPAMT04615,38F71OA9GZV2JPGGAK2XR3MX2PHFM0,4906B67F-EAA9-4402-9165-B2192CD1BADF,2023-09-26_18h56.17.395,WP_VExplicitOC_LH,2022.2.5,Win32,12.9305886,35.41666667,4.6627,2.0528,NA,NA,NA,NA,NA,happy,"unhappy, happy","less happy, more happy",NA,NA,NA,NA,NA,NA,NA,NA,NA,NA,NA,NA,NA,NA,NA,NA,NA,NA,NA,NA,NA,NA,NA,NA,NA,NA,NA,NA,NA,NA,NA,NA,NA,NA,NA,NA,NA,NA,0,0,0,0,1,NA,NA,NA,NA,NA
SUPAMT04615,38F71OA9GZV2JPGGAK2XR3MX2PHFM0,4906B67F-EAA9-4402-9165-B2192CD1BADF,2023-09-26_18h56.17.395,WP_VExplicitOC_LH,2022.2.5,Win32,12.9305886,51.5625,3.5638,2.119,NA,NA,NA,NA,NA,bored,"bored, not bored","more bored, less bored",NA,NA,NA,NA,NA,NA,NA,NA,NA,NA,NA,NA,NA,NA,NA,NA,NA,NA,NA,NA,NA,NA,NA,NA,NA,NA,NA,NA,NA,NA,NA,NA,NA,NA,NA,NA,NA,NA,0,1,1,2,1,NA,NA,NA,NA,NA
SUPAMT04615,38F71OA9GZV2JPGGAK2XR3MX2PHFM0,4906B67F-EAA9-4402-9165-B2192CD1BADF,2023-09-26_18h56.17.395,WP_VExplicitOC_LH,2022.2.5,Win32,12.9305886,44.79166667,3.4307,2.0284,NA,NA,NA,NA,NA,frustrated,"frustrated, not frustrated","more frustrated, less frustrated",NA,NA,NA,NA,NA,NA,NA,NA,NA,NA,NA,NA,NA,NA,NA,NA,NA,NA,NA,NA,NA,NA,NA,NA,NA,NA,NA,NA,NA,NA,NA,NA,NA,NA,NA,NA,NA,NA,0,2,2,1,1,NA,NA,NA,NA,NA
SUPAMT04615,38F71OA9GZV2JPGGAK2XR3MX2PHFM0,4906B67F-EAA9-4402-9165-B2192CD1BADF,2023-09-26_18h56.17.395,WP_VExplicitOC_LH,2022.2.5,Win32,12.9305886,NA,NA,NA,NA,NA,NA,NA,NA,NA,NA,NA,NA,NA,NA,NA,NA,NA,NA,NA,NA,NA,NA,NA,NA,NA,NA,NA,NA,NA,NA,NA,NA,NA,NA,NA,NA,NA,NA,NA,NA,NA,NA,NA,NA,NA,NA,NA,NA,NA,NA,NA,NA,NA,NA,11,0,11,0,1
SUPAMT04615,38F71OA9GZV2JPGGAK2XR3MX2PHFM0,4906B67F-EAA9-4402-9165-B2192CD1BADF,2023-09-26_18h56.17.395,WP_VExplicitOC_LH,2022.2.5,Win32,12.9305886,21.35416667,3.6584,2.0421,NA,NA,NA,NA,NA,happy,"unhappy, happy","less happy, more happy",NA,NA,NA,NA,NA,NA,NA,NA,NA,NA,NA,NA,NA,NA,NA,NA,NA,NA,NA,NA,NA,NA,NA,NA,NA,NA,NA,NA,NA,NA,NA,NA,NA,NA,NA,NA,NA,NA,0,0,0,0,1,NA,NA,NA,NA,NA
SUPAMT04615,38F71OA9GZV2JPGGAK2XR3MX2PHFM0,4906B67F-EAA9-4402-9165-B2192CD1BADF,2023-09-26_18h56.17.395,WP_VExplicitOC_LH,2022.2.5,Win32,12.9305886,46.09375,3.6601,2.0378,NA,NA,NA,NA,NA,frustrated,"frustrated, not frustrated","more frustrated, less frustrated",NA,NA,NA,NA,NA,NA,NA,NA,NA,NA,NA,NA,NA,NA,NA,NA,NA,NA,NA,NA,NA,NA,NA,NA,NA,NA,NA,NA,NA,NA,NA,NA,NA,NA,NA,NA,NA,NA,0,1,1,1,1,NA,NA,NA,NA,NA
SUPAMT04615,38F71OA9GZV2JPGGAK2XR3MX2PHFM0,4906B67F-EAA9-4402-9165-B2192CD1BADF,2023-09-26_18h56.17.395,WP_VExplicitOC_LH,2022.2.5,Win32,12.9305886,33.59375,3.1579,2.0543,NA,NA,NA,NA,NA,bored,"bored, not bored","more bored, less bored",NA,NA,NA,NA,NA,NA,NA,NA,NA,NA,NA,NA,NA,NA,NA,NA,NA,NA,NA,NA,NA,NA,NA,NA,NA,NA,NA,NA,NA,NA,NA,NA,NA,NA,NA,NA,NA,NA,0,2,2,2,1,NA,NA,NA,NA,NA
SUPAMT04615,38F71OA9GZV2JPGGAK2XR3MX2PHFM0,4906B67F-EAA9-4402-9165-B2192CD1BADF,2023-09-26_18h56.17.395,WP_VExplicitOC_LH,2022.2.5,Win32,12.9305886,NA,NA,NA,NA,NA,NA,NA,NA,NA,NA,NA,NA,NA,NA,NA,NA,NA,NA,NA,NA,NA,NA,NA,NA,NA,NA,NA,NA,NA,NA,NA,NA,NA,NA,NA,NA,NA,NA,NA,NA,NA,NA,NA,NA,NA,NA,NA,NA,NA,NA,NA,NA,NA,NA,12,0,12,0,1
SUPAMT04615,38F71OA9GZV2JPGGAK2XR3MX2PHFM0,4906B67F-EAA9-4402-9165-B2192CD1BADF,2023-09-26_18h56.17.395,WP_VExplicitOC_LH,2022.2.5,Win32,12.9305886,21.875,3.3178,2.0204,NA,NA,NA,NA,NA,bored,"bored, not bored","more bored, less bored",NA,NA,NA,NA,NA,NA,NA,NA,NA,NA,NA,NA,NA,NA,NA,NA,NA,NA,NA,NA,NA,NA,NA,NA,NA,NA,NA,NA,NA,NA,NA,NA,NA,NA,NA,NA,NA,NA,0,0,0,2,1,NA,NA,NA,NA,NA
SUPAMT04615,38F71OA9GZV2JPGGAK2XR3MX2PHFM0,4906B67F-EAA9-4402-9165-B2192CD1BADF,2023-09-26_18h56.17.395,WP_VExplicitOC_LH,2022.2.5,Win32,12.9305886,21.875,5.5899,2.0425,NA,NA,NA,NA,NA,happy,"unhappy, happy","less happy, more happy",NA,NA,NA,NA,NA,NA,NA,NA,NA,NA,NA,NA,NA,NA,NA,NA,NA,NA,NA,NA,NA,NA,NA,NA,NA,NA,NA,NA,NA,NA,NA,NA,NA,NA,NA,NA,NA,NA,0,1,1,0,1,NA,NA,NA,NA,NA
SUPAMT04615,38F71OA9GZV2JPGGAK2XR3MX2PHFM0,4906B67F-EAA9-4402-9165-B2192CD1BADF,2023-09-26_18h56.17.395,WP_VExplicitOC_LH,2022.2.5,Win32,12.9305886,30.72916667,3.296,2.0321,NA,NA,NA,NA,NA,frustrated,"frustrated, not frustrated","more frustrated, less frustrated",NA,NA,NA,NA,NA,NA,NA,NA,NA,NA,NA,NA,NA,NA,NA,NA,NA,NA,NA,NA,NA,NA,NA,NA,NA,NA,NA,NA,NA,NA,NA,NA,NA,NA,NA,NA,NA,NA,0,2,2,1,1,NA,NA,NA,NA,NA
SUPAMT04615,38F71OA9GZV2JPGGAK2XR3MX2PHFM0,4906B67F-EAA9-4402-9165-B2192CD1BADF,2023-09-26_18h56.17.395,WP_VExplicitOC_LH,2022.2.5,Win32,12.9305886,NA,NA,NA,NA,NA,NA,NA,NA,NA,NA,NA,NA,NA,NA,NA,NA,NA,NA,NA,NA,NA,NA,NA,NA,NA,NA,NA,NA,NA,NA,NA,NA,NA,NA,NA,NA,NA,NA,NA,NA,NA,NA,NA,NA,NA,NA,NA,NA,NA,NA,NA,NA,NA,NA,13,0,13,0,1
SUPAMT04615,38F71OA9GZV2JPGGAK2XR3MX2PHFM0,4906B67F-EAA9-4402-9165-B2192CD1BADF,2023-09-26_18h56.17.395,WP_VExplicitOC_LH,2022.2.5,Win32,12.9305886,40.625,3.5336,2.0718,NA,NA,NA,NA,NA,frustrated,"frustrated, not frustrated","more frustrated, less frustrated",NA,NA,NA,NA,NA,NA,NA,NA,NA,NA,NA,NA,NA,NA,NA,NA,NA,NA,NA,NA,NA,NA,NA,NA,NA,NA,NA,NA,NA,NA,NA,NA,NA,NA,NA,NA,NA,NA,0,0,0,1,1,NA,NA,NA,NA,NA
SUPAMT04615,38F71OA9GZV2JPGGAK2XR3MX2PHFM0,4906B67F-EAA9-4402-9165-B2192CD1BADF,2023-09-26_18h56.17.395,WP_VExplicitOC_LH,2022.2.5,Win32,12.9305886,37.5,3.3655,2.0564,NA,NA,NA,NA,NA,happy,"unhappy, happy","less happy, more happy",NA,NA,NA,NA,NA,NA,NA,NA,NA,NA,NA,NA,NA,NA,NA,NA,NA,NA,NA,NA,NA,NA,NA,NA,NA,NA,NA,NA,NA,NA,NA,NA,NA,NA,NA,NA,NA,NA,0,1,1,0,1,NA,NA,NA,NA,NA
SUPAMT04615,38F71OA9GZV2JPGGAK2XR3MX2PHFM0,4906B67F-EAA9-4402-9165-B2192CD1BADF,2023-09-26_18h56.17.395,WP_VExplicitOC_LH,2022.2.5,Win32,12.9305886,44.27083333,3.1267,2.0941,NA,NA,NA,NA,NA,bored,"bored, not bored","more bored, less bored",NA,NA,NA,NA,NA,NA,NA,NA,NA,NA,NA,NA,NA,NA,NA,NA,NA,NA,NA,NA,NA,NA,NA,NA,NA,NA,NA,NA,NA,NA,NA,NA,NA,NA,NA,NA,NA,NA,0,2,2,2,1,NA,NA,NA,NA,NA
SUPAMT04615,38F71OA9GZV2JPGGAK2XR3MX2PHFM0,4906B67F-EAA9-4402-9165-B2192CD1BADF,2023-09-26_18h56.17.395,WP_VExplicitOC_LH,2022.2.5,Win32,12.9305886,NA,NA,NA,NA,NA,NA,NA,NA,NA,NA,NA,NA,NA,NA,NA,NA,NA,NA,NA,NA,NA,NA,NA,NA,NA,NA,NA,NA,NA,NA,NA,NA,NA,NA,NA,NA,NA,NA,NA,NA,NA,NA,NA,NA,NA,NA,NA,NA,NA,NA,NA,NA,NA,NA,14,0,14,0,1
SUPAMT04615,38F71OA9GZV2JPGGAK2XR3MX2PHFM0,4906B67F-EAA9-4402-9165-B2192CD1BADF,2023-09-26_18h56.17.395,WP_VExplicitOC_LH,2022.2.5,Win32,12.9305886,NA,NA,NA,NA,NA,NA,NA,NA,NA,NA,NA,NA,NA,NA,NA,NA,NA,NA,NA,NA,NA,NA,NA,NA,NA,NA,NA,NA,NA,NA,NA,NA,NA,NA,NA,NA,NA,NA,NA,NA,NA,NA,NA,NA,NA,NA,NA,NA,NA,NA,NA,NA,NA,NA,NA,NA,NA,NA,NA
