participant,session,completion,date,expName,psychopyVersion,OS,frameRate,rating_all.response,rating_all.rt,rating_all.tStart,rndRat1.thisRepN,rndRat1.thisTrialN,rndRat1.thisN,rndRat1.thisIndex,rndRat1.ran,Emo,Labs,Labs2,rating_alt.response,rating_alt.rt,AltC.thisRepN,AltC.thisTrialN,AltC.thisN,AltC.thisIndex,AltC.ran,alt_choices,pic_choices,TopAlt_Choice,rndRat2.thisRepN,rndRat2.thisTrialN,rndRat2.thisN,rndRat2.thisIndex,rndRat2.ran,rndRat3.thisRepN,rndRat3.thisTrialN,rndRat3.thisN,rndRat3.thisIndex,rndRat3.ran,trials_FC_H.thisRepN,trials_FC_H.thisTrialN,trials_FC_H.thisN,trials_FC_H.thisIndex,trials_FC_H.ran,rating_alt_2.response,rating_alt_2.rt,AltC2.thisRepN,AltC2.thisTrialN,AltC2.thisN,AltC2.thisIndex,AltC2.ran,BottomAlt_Choice,rndRat4.thisRepN,rndRat4.thisTrialN,rndRat4.thisN,rndRat4.thisIndex,rndRat4.ran,rndRat5.thisRepN,rndRat5.thisTrialN,rndRat5.thisN,rndRat5.thisIndex,rndRat5.ran,trials_FC_L.thisRepN,trials_FC_L.thisTrialN,trials_FC_L.thisN,trials_FC_L.thisIndex,trials_FC_L.ran
SUPAMT72748,3ZGVPD4G6ZGC11X0KTXGG9X79HTZTQ,7EC556B7-D2BF-4B51-A2F4-F0827394F3FC,2023-09-28_22h03.11.103,WP_VExplicitOC_HL,2022.2.5,Win32,16.13475749,NA,NA,NA,NA,NA,NA,NA,NA,NA,NA,NA,NA,NA,NA,NA,NA,NA,NA,NA,NA,NA,NA,NA,NA,NA,NA,NA,NA,NA,NA,NA,NA,NA,NA,NA,NA,NA,NA,NA,NA,NA,NA,NA,NA,NA,NA,NA,NA,NA,NA,NA,NA,NA,NA,NA,NA,NA,NA,NA
SUPAMT72748,3ZGVPD4G6ZGC11X0KTXGG9X79HTZTQ,7EC556B7-D2BF-4B51-A2F4-F0827394F3FC,2023-09-28_22h03.11.103,WP_VExplicitOC_HL,2022.2.5,Win32,16.13475749,NA,NA,NA,NA,NA,NA,NA,NA,NA,NA,NA,NA,NA,NA,NA,NA,NA,NA,NA,NA,NA,NA,NA,NA,NA,NA,NA,NA,NA,NA,NA,NA,NA,NA,NA,NA,NA,NA,NA,NA,NA,NA,NA,NA,NA,NA,NA,NA,NA,NA,NA,NA,NA,NA,NA,NA,NA,NA,NA
SUPAMT72748,3ZGVPD4G6ZGC11X0KTXGG9X79HTZTQ,7EC556B7-D2BF-4B51-A2F4-F0827394F3FC,2023-09-28_22h03.11.103,WP_VExplicitOC_HL,2022.2.5,Win32,16.13475749,NA,NA,NA,NA,NA,NA,NA,NA,NA,NA,NA,NA,NA,NA,NA,NA,NA,NA,NA,NA,NA,NA,NA,NA,NA,NA,NA,NA,NA,NA,NA,NA,NA,NA,NA,NA,NA,NA,NA,NA,NA,NA,NA,NA,NA,NA,NA,NA,NA,NA,NA,NA,NA,NA,NA,NA,NA,NA,NA
SUPAMT72748,3ZGVPD4G6ZGC11X0KTXGG9X79HTZTQ,7EC556B7-D2BF-4B51-A2F4-F0827394F3FC,2023-09-28_22h03.11.103,WP_VExplicitOC_HL,2022.2.5,Win32,16.13475749,NA,NA,2.0151,0,0,0,1,1,frustrated,"frustrated, not frustrated","more frustrated, less frustrated",NA,NA,NA,NA,NA,NA,NA,NA,NA,NA,NA,NA,NA,NA,NA,NA,NA,NA,NA,NA,NA,NA,NA,NA,NA,NA,NA,NA,NA,NA,NA,NA,NA,NA,NA,NA,NA,NA,NA,NA,NA,NA,NA,NA,NA,NA,NA,NA
SUPAMT72748,3ZGVPD4G6ZGC11X0KTXGG9X79HTZTQ,7EC556B7-D2BF-4B51-A2F4-F0827394F3FC,2023-09-28_22h03.11.103,WP_VExplicitOC_HL,2022.2.5,Win32,16.13475749,-25.78125,4.4009,2.0272,0,1,1,2,1,bored,"bored, not bored","more bored, less bored",NA,NA,NA,NA,NA,NA,NA,NA,NA,NA,NA,NA,NA,NA,NA,NA,NA,NA,NA,NA,NA,NA,NA,NA,NA,NA,NA,NA,NA,NA,NA,NA,NA,NA,NA,NA,NA,NA,NA,NA,NA,NA,NA,NA,NA,NA,NA,NA
SUPAMT72748,3ZGVPD4G6ZGC11X0KTXGG9X79HTZTQ,7EC556B7-D2BF-4B51-A2F4-F0827394F3FC,2023-09-28_22h03.11.103,WP_VExplicitOC_HL,2022.2.5,Win32,16.13475749,-25,3.5486,2.0534,0,2,2,0,1,happy,"unhappy, happy","less happy, more happy",NA,NA,NA,NA,NA,NA,NA,NA,NA,NA,NA,NA,NA,NA,NA,NA,NA,NA,NA,NA,NA,NA,NA,NA,NA,NA,NA,NA,NA,NA,NA,NA,NA,NA,NA,NA,NA,NA,NA,NA,NA,NA,NA,NA,NA,NA,NA,NA
SUPAMT72748,3ZGVPD4G6ZGC11X0KTXGG9X79HTZTQ,7EC556B7-D2BF-4B51-A2F4-F0827394F3FC,2023-09-28_22h03.11.103,WP_VExplicitOC_HL,2022.2.5,Win32,16.13475749,NA,NA,NA,NA,NA,NA,NA,NA,NA,NA,NA,NA,NA,NA,NA,NA,NA,NA,NA,NA,NA,NA,NA,NA,NA,NA,NA,NA,NA,NA,NA,NA,NA,NA,NA,NA,NA,NA,NA,NA,NA,NA,NA,NA,NA,NA,NA,NA,NA,NA,NA,NA,NA,NA,NA,NA,NA,NA,NA
SUPAMT72748,3ZGVPD4G6ZGC11X0KTXGG9X79HTZTQ,7EC556B7-D2BF-4B51-A2F4-F0827394F3FC,2023-09-28_22h03.11.103,WP_VExplicitOC_HL,2022.2.5,Win32,16.13475749,NA,NA,NA,NA,NA,NA,NA,NA,NA,NA,NA,NA,NA,NA,NA,NA,NA,NA,NA,NA,NA,NA,NA,NA,NA,NA,NA,NA,NA,NA,NA,NA,NA,NA,NA,NA,NA,NA,NA,NA,NA,NA,NA,NA,NA,NA,NA,NA,NA,NA,NA,NA,NA,NA,NA,NA,NA,NA,NA
SUPAMT72748,3ZGVPD4G6ZGC11X0KTXGG9X79HTZTQ,7EC556B7-D2BF-4B51-A2F4-F0827394F3FC,2023-09-28_22h03.11.103,WP_VExplicitOC_HL,2022.2.5,Win32,16.13475749,NA,NA,NA,NA,NA,NA,NA,NA,NA,NA,NA,NA,NA,NA,NA,NA,NA,NA,NA,NA,NA,NA,NA,NA,NA,NA,NA,NA,NA,NA,NA,NA,NA,NA,NA,NA,NA,NA,NA,NA,NA,NA,NA,NA,NA,NA,NA,NA,NA,NA,NA,NA,NA,NA,NA,NA,NA,NA,NA
SUPAMT72748,3ZGVPD4G6ZGC11X0KTXGG9X79HTZTQ,7EC556B7-D2BF-4B51-A2F4-F0827394F3FC,2023-09-28_22h03.11.103,WP_VExplicitOC_HL,2022.2.5,Win32,16.13475749,NA,NA,NA,NA,NA,NA,NA,NA,NA,NA,NA,NA,NA,NA,NA,NA,NA,NA,NA,NA,NA,NA,NA,NA,NA,NA,NA,NA,NA,NA,NA,NA,NA,NA,NA,NA,NA,NA,NA,NA,NA,NA,NA,NA,NA,NA,NA,NA,NA,NA,NA,NA,NA,NA,NA,NA,NA,NA,NA
SUPAMT72748,3ZGVPD4G6ZGC11X0KTXGG9X79HTZTQ,7EC556B7-D2BF-4B51-A2F4-F0827394F3FC,2023-09-28_22h03.11.103,WP_VExplicitOC_HL,2022.2.5,Win32,16.13475749,NA,NA,NA,NA,NA,NA,NA,NA,NA,NA,NA,75.26041667,2.7147,0,0,0,0,1,rest (looking at a fixed cross),001.png,NA,NA,NA,NA,NA,NA,NA,NA,NA,NA,NA,NA,NA,NA,NA,NA,NA,NA,NA,NA,NA,NA,NA,NA,NA,NA,NA,NA,NA,NA,NA,NA,NA,NA,NA,NA,NA,NA,NA
SUPAMT72748,3ZGVPD4G6ZGC11X0KTXGG9X79HTZTQ,7EC556B7-D2BF-4B51-A2F4-F0827394F3FC,2023-09-28_22h03.11.103,WP_VExplicitOC_HL,2022.2.5,Win32,16.13475749,NA,NA,NA,NA,NA,NA,NA,NA,NA,NA,NA,75.52083333,1.8806,0,1,1,1,1,stand up,002.png,NA,NA,NA,NA,NA,NA,NA,NA,NA,NA,NA,NA,NA,NA,NA,NA,NA,NA,NA,NA,NA,NA,NA,NA,NA,NA,NA,NA,NA,NA,NA,NA,NA,NA,NA,NA,NA,NA,NA
SUPAMT72748,3ZGVPD4G6ZGC11X0KTXGG9X79HTZTQ,7EC556B7-D2BF-4B51-A2F4-F0827394F3FC,2023-09-28_22h03.11.103,WP_VExplicitOC_HL,2022.2.5,Win32,16.13475749,NA,NA,NA,NA,NA,NA,NA,NA,NA,NA,NA,46.09375,1.9431,0,2,2,2,1,stretch,003.png,NA,NA,NA,NA,NA,NA,NA,NA,NA,NA,NA,NA,NA,NA,NA,NA,NA,NA,NA,NA,NA,NA,NA,NA,NA,NA,NA,NA,NA,NA,NA,NA,NA,NA,NA,NA,NA,NA,NA
SUPAMT72748,3ZGVPD4G6ZGC11X0KTXGG9X79HTZTQ,7EC556B7-D2BF-4B51-A2F4-F0827394F3FC,2023-09-28_22h03.11.103,WP_VExplicitOC_HL,2022.2.5,Win32,16.13475749,NA,NA,NA,NA,NA,NA,NA,NA,NA,NA,NA,47.13541667,3.3472,0,3,3,3,1,make a drink,004.png,NA,NA,NA,NA,NA,NA,NA,NA,NA,NA,NA,NA,NA,NA,NA,NA,NA,NA,NA,NA,NA,NA,NA,NA,NA,NA,NA,NA,NA,NA,NA,NA,NA,NA,NA,NA,NA,NA,NA
SUPAMT72748,3ZGVPD4G6ZGC11X0KTXGG9X79HTZTQ,7EC556B7-D2BF-4B51-A2F4-F0827394F3FC,2023-09-28_22h03.11.103,WP_VExplicitOC_HL,2022.2.5,Win32,16.13475749,NA,NA,NA,NA,NA,NA,NA,NA,NA,NA,NA,55.20833333,3.1623,0,4,4,4,1,scroll social media,005.png,NA,NA,NA,NA,NA,NA,NA,NA,NA,NA,NA,NA,NA,NA,NA,NA,NA,NA,NA,NA,NA,NA,NA,NA,NA,NA,NA,NA,NA,NA,NA,NA,NA,NA,NA,NA,NA,NA,NA
SUPAMT72748,3ZGVPD4G6ZGC11X0KTXGG9X79HTZTQ,7EC556B7-D2BF-4B51-A2F4-F0827394F3FC,2023-09-28_22h03.11.103,WP_VExplicitOC_HL,2022.2.5,Win32,16.13475749,NA,NA,NA,NA,NA,NA,NA,NA,NA,NA,NA,86.97916667,2.7791,0,5,5,5,1,listen to music,006.png,NA,NA,NA,NA,NA,NA,NA,NA,NA,NA,NA,NA,NA,NA,NA,NA,NA,NA,NA,NA,NA,NA,NA,NA,NA,NA,NA,NA,NA,NA,NA,NA,NA,NA,NA,NA,NA,NA,NA
SUPAMT72748,3ZGVPD4G6ZGC11X0KTXGG9X79HTZTQ,7EC556B7-D2BF-4B51-A2F4-F0827394F3FC,2023-09-28_22h03.11.103,WP_VExplicitOC_HL,2022.2.5,Win32,16.13475749,NA,NA,NA,NA,NA,NA,NA,NA,NA,NA,NA,56.77083333,2.3556,0,6,6,6,1,daydream,007.png,NA,NA,NA,NA,NA,NA,NA,NA,NA,NA,NA,NA,NA,NA,NA,NA,NA,NA,NA,NA,NA,NA,NA,NA,NA,NA,NA,NA,NA,NA,NA,NA,NA,NA,NA,NA,NA,NA,NA
SUPAMT72748,3ZGVPD4G6ZGC11X0KTXGG9X79HTZTQ,7EC556B7-D2BF-4B51-A2F4-F0827394F3FC,2023-09-28_22h03.11.103,WP_VExplicitOC_HL,2022.2.5,Win32,16.13475749,NA,NA,NA,NA,NA,NA,NA,NA,NA,NA,NA,78.64583333,2.3929,0,7,7,7,1,watch a short animation,008.png,NA,NA,NA,NA,NA,NA,NA,NA,NA,NA,NA,NA,NA,NA,NA,NA,NA,NA,NA,NA,NA,NA,NA,NA,NA,NA,NA,NA,NA,NA,NA,NA,NA,NA,NA,NA,NA,NA,NA
SUPAMT72748,3ZGVPD4G6ZGC11X0KTXGG9X79HTZTQ,7EC556B7-D2BF-4B51-A2F4-F0827394F3FC,2023-09-28_22h03.11.103,WP_VExplicitOC_HL,2022.2.5,Win32,16.13475749,NA,NA,NA,NA,NA,NA,NA,NA,NA,NA,NA,94.01041667,2.8271,0,8,8,8,1,read a novel,009.png,NA,NA,NA,NA,NA,NA,NA,NA,NA,NA,NA,NA,NA,NA,NA,NA,NA,NA,NA,NA,NA,NA,NA,NA,NA,NA,NA,NA,NA,NA,NA,NA,NA,NA,NA,NA,NA,NA,NA
SUPAMT72748,3ZGVPD4G6ZGC11X0KTXGG9X79HTZTQ,7EC556B7-D2BF-4B51-A2F4-F0827394F3FC,2023-09-28_22h03.11.103,WP_VExplicitOC_HL,2022.2.5,Win32,16.13475749,NA,NA,NA,NA,NA,NA,NA,NA,NA,NA,NA,58.85416667,2.617,0,9,9,9,1,read the news,010.png,NA,NA,NA,NA,NA,NA,NA,NA,NA,NA,NA,NA,NA,NA,NA,NA,NA,NA,NA,NA,NA,NA,NA,NA,NA,NA,NA,NA,NA,NA,NA,NA,NA,NA,NA,NA,NA,NA,NA
SUPAMT72748,3ZGVPD4G6ZGC11X0KTXGG9X79HTZTQ,7EC556B7-D2BF-4B51-A2F4-F0827394F3FC,2023-09-28_22h03.11.103,WP_VExplicitOC_HL,2022.2.5,Win32,16.13475749,NA,NA,NA,NA,NA,NA,NA,NA,NA,NA,NA,NA,NA,NA,NA,NA,NA,NA,NA,NA,NA,NA,NA,NA,NA,NA,NA,NA,NA,NA,NA,NA,NA,NA,NA,NA,NA,NA,NA,NA,NA,NA,NA,NA,NA,NA,NA,NA,NA,NA,NA,NA,NA,NA,NA,NA,NA,NA,NA
SUPAMT72748,3ZGVPD4G6ZGC11X0KTXGG9X79HTZTQ,7EC556B7-D2BF-4B51-A2F4-F0827394F3FC,2023-09-28_22h03.11.103,WP_VExplicitOC_HL,2022.2.5,Win32,16.13475749,NA,NA,NA,NA,NA,NA,NA,NA,NA,NA,NA,NA,NA,NA,NA,NA,NA,NA,NA,NA,read a novel,NA,NA,NA,NA,NA,NA,NA,NA,NA,NA,NA,NA,NA,NA,NA,NA,NA,NA,NA,NA,NA,NA,NA,NA,NA,NA,NA,NA,NA,NA,NA,NA,NA,NA,NA,NA,NA,NA
SUPAMT72748,3ZGVPD4G6ZGC11X0KTXGG9X79HTZTQ,7EC556B7-D2BF-4B51-A2F4-F0827394F3FC,2023-09-28_22h03.11.103,WP_VExplicitOC_HL,2022.2.5,Win32,16.13475749,-51.5625,6.5968,2.014,NA,NA,NA,NA,NA,frustrated,"frustrated, not frustrated","more frustrated, less frustrated",NA,NA,NA,NA,NA,NA,NA,NA,NA,NA,0,0,0,1,1,NA,NA,NA,NA,NA,NA,NA,NA,NA,NA,NA,NA,NA,NA,NA,NA,NA,NA,NA,NA,NA,NA,NA,NA,NA,NA,NA,NA,NA,NA,NA,NA,NA
SUPAMT72748,3ZGVPD4G6ZGC11X0KTXGG9X79HTZTQ,7EC556B7-D2BF-4B51-A2F4-F0827394F3FC,2023-09-28_22h03.11.103,WP_VExplicitOC_HL,2022.2.5,Win32,16.13475749,74.21875,5.7115,2.0468,NA,NA,NA,NA,NA,happy,"unhappy, happy","less happy, more happy",NA,NA,NA,NA,NA,NA,NA,NA,NA,NA,0,1,1,0,1,NA,NA,NA,NA,NA,NA,NA,NA,NA,NA,NA,NA,NA,NA,NA,NA,NA,NA,NA,NA,NA,NA,NA,NA,NA,NA,NA,NA,NA,NA,NA,NA,NA
SUPAMT72748,3ZGVPD4G6ZGC11X0KTXGG9X79HTZTQ,7EC556B7-D2BF-4B51-A2F4-F0827394F3FC,2023-09-28_22h03.11.103,WP_VExplicitOC_HL,2022.2.5,Win32,16.13475749,NA,NA,2.0377,NA,NA,NA,NA,NA,bored,"bored, not bored","more bored, less bored",NA,NA,NA,NA,NA,NA,NA,NA,NA,NA,0,2,2,2,1,NA,NA,NA,NA,NA,NA,NA,NA,NA,NA,NA,NA,NA,NA,NA,NA,NA,NA,NA,NA,NA,NA,NA,NA,NA,NA,NA,NA,NA,NA,NA,NA,NA
SUPAMT72748,3ZGVPD4G6ZGC11X0KTXGG9X79HTZTQ,7EC556B7-D2BF-4B51-A2F4-F0827394F3FC,2023-09-28_22h03.11.103,WP_VExplicitOC_HL,2022.2.5,Win32,16.13475749,NA,NA,NA,NA,NA,NA,NA,NA,NA,NA,NA,NA,NA,NA,NA,NA,NA,NA,NA,NA,NA,NA,NA,NA,NA,NA,NA,NA,NA,NA,NA,NA,NA,NA,NA,NA,NA,NA,NA,NA,NA,NA,NA,NA,NA,NA,NA,NA,NA,NA,NA,NA,NA,NA,NA,NA,NA,NA,NA
SUPAMT72748,3ZGVPD4G6ZGC11X0KTXGG9X79HTZTQ,7EC556B7-D2BF-4B51-A2F4-F0827394F3FC,2023-09-28_22h03.11.103,WP_VExplicitOC_HL,2022.2.5,Win32,16.13475749,NA,NA,NA,NA,NA,NA,NA,NA,NA,NA,NA,NA,NA,NA,NA,NA,NA,NA,NA,NA,NA,NA,NA,NA,NA,NA,NA,NA,NA,NA,NA,NA,NA,NA,NA,NA,NA,NA,NA,NA,NA,NA,NA,NA,NA,NA,NA,NA,NA,NA,NA,NA,NA,NA,NA,NA,NA,NA,NA
SUPAMT72748,3ZGVPD4G6ZGC11X0KTXGG9X79HTZTQ,7EC556B7-D2BF-4B51-A2F4-F0827394F3FC,2023-09-28_22h03.11.103,WP_VExplicitOC_HL,2022.2.5,Win32,16.13475749,78.38541667,4.3516,2.0454,NA,NA,NA,NA,NA,bored,"bored, not bored","more bored, less bored",NA,NA,NA,NA,NA,NA,NA,NA,NA,NA,NA,NA,NA,NA,NA,0,0,0,2,1,NA,NA,NA,NA,NA,NA,NA,NA,NA,NA,NA,NA,NA,NA,NA,NA,NA,NA,NA,NA,NA,NA,NA,NA,NA,NA,NA,NA
SUPAMT72748,3ZGVPD4G6ZGC11X0KTXGG9X79HTZTQ,7EC556B7-D2BF-4B51-A2F4-F0827394F3FC,2023-09-28_22h03.11.103,WP_VExplicitOC_HL,2022.2.5,Win32,16.13475749,72.65625,4.1558,2.0545,NA,NA,NA,NA,NA,happy,"unhappy, happy","less happy, more happy",NA,NA,NA,NA,NA,NA,NA,NA,NA,NA,NA,NA,NA,NA,NA,0,1,1,0,1,NA,NA,NA,NA,NA,NA,NA,NA,NA,NA,NA,NA,NA,NA,NA,NA,NA,NA,NA,NA,NA,NA,NA,NA,NA,NA,NA,NA
SUPAMT72748,3ZGVPD4G6ZGC11X0KTXGG9X79HTZTQ,7EC556B7-D2BF-4B51-A2F4-F0827394F3FC,2023-09-28_22h03.11.103,WP_VExplicitOC_HL,2022.2.5,Win32,16.13475749,57.55208333,4.7407,2.0501,NA,NA,NA,NA,NA,frustrated,"frustrated, not frustrated","more frustrated, less frustrated",NA,NA,NA,NA,NA,NA,NA,NA,NA,NA,NA,NA,NA,NA,NA,0,2,2,1,1,NA,NA,NA,NA,NA,NA,NA,NA,NA,NA,NA,NA,NA,NA,NA,NA,NA,NA,NA,NA,NA,NA,NA,NA,NA,NA,NA,NA
SUPAMT72748,3ZGVPD4G6ZGC11X0KTXGG9X79HTZTQ,7EC556B7-D2BF-4B51-A2F4-F0827394F3FC,2023-09-28_22h03.11.103,WP_VExplicitOC_HL,2022.2.5,Win32,16.13475749,NA,NA,NA,NA,NA,NA,NA,NA,NA,NA,NA,NA,NA,NA,NA,NA,NA,NA,NA,NA,NA,NA,NA,NA,NA,NA,NA,NA,NA,NA,NA,0,0,0,0,1,NA,NA,NA,NA,NA,NA,NA,NA,NA,NA,NA,NA,NA,NA,NA,NA,NA,NA,NA,NA,NA,NA,NA
SUPAMT72748,3ZGVPD4G6ZGC11X0KTXGG9X79HTZTQ,7EC556B7-D2BF-4B51-A2F4-F0827394F3FC,2023-09-28_22h03.11.103,WP_VExplicitOC_HL,2022.2.5,Win32,16.13475749,66.14583333,4.5865,2.0619,NA,NA,NA,NA,NA,happy,"unhappy, happy","less happy, more happy",NA,NA,NA,NA,NA,NA,NA,NA,NA,NA,NA,NA,NA,NA,NA,0,0,0,0,1,NA,NA,NA,NA,NA,NA,NA,NA,NA,NA,NA,NA,NA,NA,NA,NA,NA,NA,NA,NA,NA,NA,NA,NA,NA,NA,NA,NA
SUPAMT72748,3ZGVPD4G6ZGC11X0KTXGG9X79HTZTQ,7EC556B7-D2BF-4B51-A2F4-F0827394F3FC,2023-09-28_22h03.11.103,WP_VExplicitOC_HL,2022.2.5,Win32,16.13475749,73.4375,3.4413,2.0197,NA,NA,NA,NA,NA,frustrated,"frustrated, not frustrated","more frustrated, less frustrated",NA,NA,NA,NA,NA,NA,NA,NA,NA,NA,NA,NA,NA,NA,NA,0,1,1,1,1,NA,NA,NA,NA,NA,NA,NA,NA,NA,NA,NA,NA,NA,NA,NA,NA,NA,NA,NA,NA,NA,NA,NA,NA,NA,NA,NA,NA
SUPAMT72748,3ZGVPD4G6ZGC11X0KTXGG9X79HTZTQ,7EC556B7-D2BF-4B51-A2F4-F0827394F3FC,2023-09-28_22h03.11.103,WP_VExplicitOC_HL,2022.2.5,Win32,16.13475749,68.22916667,4.2691,2.012,NA,NA,NA,NA,NA,bored,"bored, not bored","more bored, less bored",NA,NA,NA,NA,NA,NA,NA,NA,NA,NA,NA,NA,NA,NA,NA,0,2,2,2,1,NA,NA,NA,NA,NA,NA,NA,NA,NA,NA,NA,NA,NA,NA,NA,NA,NA,NA,NA,NA,NA,NA,NA,NA,NA,NA,NA,NA
SUPAMT72748,3ZGVPD4G6ZGC11X0KTXGG9X79HTZTQ,7EC556B7-D2BF-4B51-A2F4-F0827394F3FC,2023-09-28_22h03.11.103,WP_VExplicitOC_HL,2022.2.5,Win32,16.13475749,NA,NA,NA,NA,NA,NA,NA,NA,NA,NA,NA,NA,NA,NA,NA,NA,NA,NA,NA,NA,NA,NA,NA,NA,NA,NA,NA,NA,NA,NA,NA,1,0,1,0,1,NA,NA,NA,NA,NA,NA,NA,NA,NA,NA,NA,NA,NA,NA,NA,NA,NA,NA,NA,NA,NA,NA,NA
SUPAMT72748,3ZGVPD4G6ZGC11X0KTXGG9X79HTZTQ,7EC556B7-D2BF-4B51-A2F4-F0827394F3FC,2023-09-28_22h03.11.103,WP_VExplicitOC_HL,2022.2.5,Win32,16.13475749,-71.61458333,5.3291,2.0198,NA,NA,NA,NA,NA,frustrated,"frustrated, not frustrated","more frustrated, less frustrated",NA,NA,NA,NA,NA,NA,NA,NA,NA,NA,NA,NA,NA,NA,NA,0,0,0,1,1,NA,NA,NA,NA,NA,NA,NA,NA,NA,NA,NA,NA,NA,NA,NA,NA,NA,NA,NA,NA,NA,NA,NA,NA,NA,NA,NA,NA
SUPAMT72748,3ZGVPD4G6ZGC11X0KTXGG9X79HTZTQ,7EC556B7-D2BF-4B51-A2F4-F0827394F3FC,2023-09-28_22h03.11.103,WP_VExplicitOC_HL,2022.2.5,Win32,16.13475749,86.97916667,5.2147,2.0868,NA,NA,NA,NA,NA,bored,"bored, not bored","more bored, less bored",NA,NA,NA,NA,NA,NA,NA,NA,NA,NA,NA,NA,NA,NA,NA,0,1,1,2,1,NA,NA,NA,NA,NA,NA,NA,NA,NA,NA,NA,NA,NA,NA,NA,NA,NA,NA,NA,NA,NA,NA,NA,NA,NA,NA,NA,NA
SUPAMT72748,3ZGVPD4G6ZGC11X0KTXGG9X79HTZTQ,7EC556B7-D2BF-4B51-A2F4-F0827394F3FC,2023-09-28_22h03.11.103,WP_VExplicitOC_HL,2022.2.5,Win32,16.13475749,84.375,5.0937,2.0148,NA,NA,NA,NA,NA,happy,"unhappy, happy","less happy, more happy",NA,NA,NA,NA,NA,NA,NA,NA,NA,NA,NA,NA,NA,NA,NA,0,2,2,0,1,NA,NA,NA,NA,NA,NA,NA,NA,NA,NA,NA,NA,NA,NA,NA,NA,NA,NA,NA,NA,NA,NA,NA,NA,NA,NA,NA,NA
SUPAMT72748,3ZGVPD4G6ZGC11X0KTXGG9X79HTZTQ,7EC556B7-D2BF-4B51-A2F4-F0827394F3FC,2023-09-28_22h03.11.103,WP_VExplicitOC_HL,2022.2.5,Win32,16.13475749,NA,NA,NA,NA,NA,NA,NA,NA,NA,NA,NA,NA,NA,NA,NA,NA,NA,NA,NA,NA,NA,NA,NA,NA,NA,NA,NA,NA,NA,NA,NA,2,0,2,0,1,NA,NA,NA,NA,NA,NA,NA,NA,NA,NA,NA,NA,NA,NA,NA,NA,NA,NA,NA,NA,NA,NA,NA
SUPAMT72748,3ZGVPD4G6ZGC11X0KTXGG9X79HTZTQ,7EC556B7-D2BF-4B51-A2F4-F0827394F3FC,2023-09-28_22h03.11.103,WP_VExplicitOC_HL,2022.2.5,Win32,16.13475749,88.54166667,4.2967,2.0206,NA,NA,NA,NA,NA,happy,"unhappy, happy","less happy, more happy",NA,NA,NA,NA,NA,NA,NA,NA,NA,NA,NA,NA,NA,NA,NA,0,0,0,0,1,NA,NA,NA,NA,NA,NA,NA,NA,NA,NA,NA,NA,NA,NA,NA,NA,NA,NA,NA,NA,NA,NA,NA,NA,NA,NA,NA,NA
SUPAMT72748,3ZGVPD4G6ZGC11X0KTXGG9X79HTZTQ,7EC556B7-D2BF-4B51-A2F4-F0827394F3FC,2023-09-28_22h03.11.103,WP_VExplicitOC_HL,2022.2.5,Win32,16.13475749,80.20833333,3.9691,2.0129,NA,NA,NA,NA,NA,bored,"bored, not bored","more bored, less bored",NA,NA,NA,NA,NA,NA,NA,NA,NA,NA,NA,NA,NA,NA,NA,0,1,1,2,1,NA,NA,NA,NA,NA,NA,NA,NA,NA,NA,NA,NA,NA,NA,NA,NA,NA,NA,NA,NA,NA,NA,NA,NA,NA,NA,NA,NA
SUPAMT72748,3ZGVPD4G6ZGC11X0KTXGG9X79HTZTQ,7EC556B7-D2BF-4B51-A2F4-F0827394F3FC,2023-09-28_22h03.11.103,WP_VExplicitOC_HL,2022.2.5,Win32,16.13475749,-85.9375,5.3385,2.0548,NA,NA,NA,NA,NA,frustrated,"frustrated, not frustrated","more frustrated, less frustrated",NA,NA,NA,NA,NA,NA,NA,NA,NA,NA,NA,NA,NA,NA,NA,0,2,2,1,1,NA,NA,NA,NA,NA,NA,NA,NA,NA,NA,NA,NA,NA,NA,NA,NA,NA,NA,NA,NA,NA,NA,NA,NA,NA,NA,NA,NA
SUPAMT72748,3ZGVPD4G6ZGC11X0KTXGG9X79HTZTQ,7EC556B7-D2BF-4B51-A2F4-F0827394F3FC,2023-09-28_22h03.11.103,WP_VExplicitOC_HL,2022.2.5,Win32,16.13475749,NA,NA,NA,NA,NA,NA,NA,NA,NA,NA,NA,NA,NA,NA,NA,NA,NA,NA,NA,NA,NA,NA,NA,NA,NA,NA,NA,NA,NA,NA,NA,3,0,3,0,1,NA,NA,NA,NA,NA,NA,NA,NA,NA,NA,NA,NA,NA,NA,NA,NA,NA,NA,NA,NA,NA,NA,NA
SUPAMT72748,3ZGVPD4G6ZGC11X0KTXGG9X79HTZTQ,7EC556B7-D2BF-4B51-A2F4-F0827394F3FC,2023-09-28_22h03.11.103,WP_VExplicitOC_HL,2022.2.5,Win32,16.13475749,80.20833333,4.8942,2.02,NA,NA,NA,NA,NA,bored,"bored, not bored","more bored, less bored",NA,NA,NA,NA,NA,NA,NA,NA,NA,NA,NA,NA,NA,NA,NA,0,0,0,2,1,NA,NA,NA,NA,NA,NA,NA,NA,NA,NA,NA,NA,NA,NA,NA,NA,NA,NA,NA,NA,NA,NA,NA,NA,NA,NA,NA,NA
SUPAMT72748,3ZGVPD4G6ZGC11X0KTXGG9X79HTZTQ,7EC556B7-D2BF-4B51-A2F4-F0827394F3FC,2023-09-28_22h03.11.103,WP_VExplicitOC_HL,2022.2.5,Win32,16.13475749,100,5.5048,2.0594,NA,NA,NA,NA,NA,happy,"unhappy, happy","less happy, more happy",NA,NA,NA,NA,NA,NA,NA,NA,NA,NA,NA,NA,NA,NA,NA,0,1,1,0,1,NA,NA,NA,NA,NA,NA,NA,NA,NA,NA,NA,NA,NA,NA,NA,NA,NA,NA,NA,NA,NA,NA,NA,NA,NA,NA,NA,NA
SUPAMT72748,3ZGVPD4G6ZGC11X0KTXGG9X79HTZTQ,7EC556B7-D2BF-4B51-A2F4-F0827394F3FC,2023-09-28_22h03.11.103,WP_VExplicitOC_HL,2022.2.5,Win32,16.13475749,-100,6.2736,2.0228,NA,NA,NA,NA,NA,frustrated,"frustrated, not frustrated","more frustrated, less frustrated",NA,NA,NA,NA,NA,NA,NA,NA,NA,NA,NA,NA,NA,NA,NA,0,2,2,1,1,NA,NA,NA,NA,NA,NA,NA,NA,NA,NA,NA,NA,NA,NA,NA,NA,NA,NA,NA,NA,NA,NA,NA,NA,NA,NA,NA,NA
SUPAMT72748,3ZGVPD4G6ZGC11X0KTXGG9X79HTZTQ,7EC556B7-D2BF-4B51-A2F4-F0827394F3FC,2023-09-28_22h03.11.103,WP_VExplicitOC_HL,2022.2.5,Win32,16.13475749,NA,NA,NA,NA,NA,NA,NA,NA,NA,NA,NA,NA,NA,NA,NA,NA,NA,NA,NA,NA,NA,NA,NA,NA,NA,NA,NA,NA,NA,NA,NA,4,0,4,0,1,NA,NA,NA,NA,NA,NA,NA,NA,NA,NA,NA,NA,NA,NA,NA,NA,NA,NA,NA,NA,NA,NA,NA
SUPAMT72748,3ZGVPD4G6ZGC11X0KTXGG9X79HTZTQ,7EC556B7-D2BF-4B51-A2F4-F0827394F3FC,2023-09-28_22h03.11.103,WP_VExplicitOC_HL,2022.2.5,Win32,16.13475749,98.17708333,4.1135,2.0995,NA,NA,NA,NA,NA,happy,"unhappy, happy","less happy, more happy",NA,NA,NA,NA,NA,NA,NA,NA,NA,NA,NA,NA,NA,NA,NA,0,0,0,0,1,NA,NA,NA,NA,NA,NA,NA,NA,NA,NA,NA,NA,NA,NA,NA,NA,NA,NA,NA,NA,NA,NA,NA,NA,NA,NA,NA,NA
SUPAMT72748,3ZGVPD4G6ZGC11X0KTXGG9X79HTZTQ,7EC556B7-D2BF-4B51-A2F4-F0827394F3FC,2023-09-28_22h03.11.103,WP_VExplicitOC_HL,2022.2.5,Win32,16.13475749,100,5.7755,2.1034,NA,NA,NA,NA,NA,bored,"bored, not bored","more bored, less bored",NA,NA,NA,NA,NA,NA,NA,NA,NA,NA,NA,NA,NA,NA,NA,0,1,1,2,1,NA,NA,NA,NA,NA,NA,NA,NA,NA,NA,NA,NA,NA,NA,NA,NA,NA,NA,NA,NA,NA,NA,NA,NA,NA,NA,NA,NA
SUPAMT72748,3ZGVPD4G6ZGC11X0KTXGG9X79HTZTQ,7EC556B7-D2BF-4B51-A2F4-F0827394F3FC,2023-09-28_22h03.11.103,WP_VExplicitOC_HL,2022.2.5,Win32,16.13475749,NA,NA,2.0622,NA,NA,NA,NA,NA,frustrated,"frustrated, not frustrated","more frustrated, less frustrated",NA,NA,NA,NA,NA,NA,NA,NA,NA,NA,NA,NA,NA,NA,NA,0,2,2,1,1,NA,NA,NA,NA,NA,NA,NA,NA,NA,NA,NA,NA,NA,NA,NA,NA,NA,NA,NA,NA,NA,NA,NA,NA,NA,NA,NA,NA
SUPAMT72748,3ZGVPD4G6ZGC11X0KTXGG9X79HTZTQ,7EC556B7-D2BF-4B51-A2F4-F0827394F3FC,2023-09-28_22h03.11.103,WP_VExplicitOC_HL,2022.2.5,Win32,16.13475749,NA,NA,NA,NA,NA,NA,NA,NA,NA,NA,NA,NA,NA,NA,NA,NA,NA,NA,NA,NA,NA,NA,NA,NA,NA,NA,NA,NA,NA,NA,NA,5,0,5,0,1,NA,NA,NA,NA,NA,NA,NA,NA,NA,NA,NA,NA,NA,NA,NA,NA,NA,NA,NA,NA,NA,NA,NA
SUPAMT72748,3ZGVPD4G6ZGC11X0KTXGG9X79HTZTQ,7EC556B7-D2BF-4B51-A2F4-F0827394F3FC,2023-09-28_22h03.11.103,WP_VExplicitOC_HL,2022.2.5,Win32,16.13475749,-100,6.1596,2.0083,NA,NA,NA,NA,NA,frustrated,"frustrated, not frustrated","more frustrated, less frustrated",NA,NA,NA,NA,NA,NA,NA,NA,NA,NA,NA,NA,NA,NA,NA,0,0,0,1,1,NA,NA,NA,NA,NA,NA,NA,NA,NA,NA,NA,NA,NA,NA,NA,NA,NA,NA,NA,NA,NA,NA,NA,NA,NA,NA,NA,NA
SUPAMT72748,3ZGVPD4G6ZGC11X0KTXGG9X79HTZTQ,7EC556B7-D2BF-4B51-A2F4-F0827394F3FC,2023-09-28_22h03.11.103,WP_VExplicitOC_HL,2022.2.5,Win32,16.13475749,100,5.4899,2,NA,NA,NA,NA,NA,happy,"unhappy, happy","less happy, more happy",NA,NA,NA,NA,NA,NA,NA,NA,NA,NA,NA,NA,NA,NA,NA,0,1,1,0,1,NA,NA,NA,NA,NA,NA,NA,NA,NA,NA,NA,NA,NA,NA,NA,NA,NA,NA,NA,NA,NA,NA,NA,NA,NA,NA,NA,NA
SUPAMT72748,3ZGVPD4G6ZGC11X0KTXGG9X79HTZTQ,7EC556B7-D2BF-4B51-A2F4-F0827394F3FC,2023-09-28_22h03.11.103,WP_VExplicitOC_HL,2022.2.5,Win32,16.13475749,100,6.5658,2.0344,NA,NA,NA,NA,NA,bored,"bored, not bored","more bored, less bored",NA,NA,NA,NA,NA,NA,NA,NA,NA,NA,NA,NA,NA,NA,NA,0,2,2,2,1,NA,NA,NA,NA,NA,NA,NA,NA,NA,NA,NA,NA,NA,NA,NA,NA,NA,NA,NA,NA,NA,NA,NA,NA,NA,NA,NA,NA
SUPAMT72748,3ZGVPD4G6ZGC11X0KTXGG9X79HTZTQ,7EC556B7-D2BF-4B51-A2F4-F0827394F3FC,2023-09-28_22h03.11.103,WP_VExplicitOC_HL,2022.2.5,Win32,16.13475749,NA,NA,NA,NA,NA,NA,NA,NA,NA,NA,NA,NA,NA,NA,NA,NA,NA,NA,NA,NA,NA,NA,NA,NA,NA,NA,NA,NA,NA,NA,NA,6,0,6,0,1,NA,NA,NA,NA,NA,NA,NA,NA,NA,NA,NA,NA,NA,NA,NA,NA,NA,NA,NA,NA,NA,NA,NA
SUPAMT72748,3ZGVPD4G6ZGC11X0KTXGG9X79HTZTQ,7EC556B7-D2BF-4B51-A2F4-F0827394F3FC,2023-09-28_22h03.11.103,WP_VExplicitOC_HL,2022.2.5,Win32,16.13475749,97.91666667,4.0791,2.0536,NA,NA,NA,NA,NA,bored,"bored, not bored","more bored, less bored",NA,NA,NA,NA,NA,NA,NA,NA,NA,NA,NA,NA,NA,NA,NA,0,0,0,2,1,NA,NA,NA,NA,NA,NA,NA,NA,NA,NA,NA,NA,NA,NA,NA,NA,NA,NA,NA,NA,NA,NA,NA,NA,NA,NA,NA,NA
SUPAMT72748,3ZGVPD4G6ZGC11X0KTXGG9X79HTZTQ,7EC556B7-D2BF-4B51-A2F4-F0827394F3FC,2023-09-28_22h03.11.103,WP_VExplicitOC_HL,2022.2.5,Win32,16.13475749,-100,5.7337,2.0145,NA,NA,NA,NA,NA,frustrated,"frustrated, not frustrated","more frustrated, less frustrated",NA,NA,NA,NA,NA,NA,NA,NA,NA,NA,NA,NA,NA,NA,NA,0,1,1,1,1,NA,NA,NA,NA,NA,NA,NA,NA,NA,NA,NA,NA,NA,NA,NA,NA,NA,NA,NA,NA,NA,NA,NA,NA,NA,NA,NA,NA
SUPAMT72748,3ZGVPD4G6ZGC11X0KTXGG9X79HTZTQ,7EC556B7-D2BF-4B51-A2F4-F0827394F3FC,2023-09-28_22h03.11.103,WP_VExplicitOC_HL,2022.2.5,Win32,16.13475749,100,5.2474,2.0536,NA,NA,NA,NA,NA,happy,"unhappy, happy","less happy, more happy",NA,NA,NA,NA,NA,NA,NA,NA,NA,NA,NA,NA,NA,NA,NA,0,2,2,0,1,NA,NA,NA,NA,NA,NA,NA,NA,NA,NA,NA,NA,NA,NA,NA,NA,NA,NA,NA,NA,NA,NA,NA,NA,NA,NA,NA,NA
SUPAMT72748,3ZGVPD4G6ZGC11X0KTXGG9X79HTZTQ,7EC556B7-D2BF-4B51-A2F4-F0827394F3FC,2023-09-28_22h03.11.103,WP_VExplicitOC_HL,2022.2.5,Win32,16.13475749,NA,NA,NA,NA,NA,NA,NA,NA,NA,NA,NA,NA,NA,NA,NA,NA,NA,NA,NA,NA,NA,NA,NA,NA,NA,NA,NA,NA,NA,NA,NA,7,0,7,0,1,NA,NA,NA,NA,NA,NA,NA,NA,NA,NA,NA,NA,NA,NA,NA,NA,NA,NA,NA,NA,NA,NA,NA
SUPAMT72748,3ZGVPD4G6ZGC11X0KTXGG9X79HTZTQ,7EC556B7-D2BF-4B51-A2F4-F0827394F3FC,2023-09-28_22h03.11.103,WP_VExplicitOC_HL,2022.2.5,Win32,16.13475749,100,4.7588,2.0329,NA,NA,NA,NA,NA,happy,"unhappy, happy","less happy, more happy",NA,NA,NA,NA,NA,NA,NA,NA,NA,NA,NA,NA,NA,NA,NA,0,0,0,0,1,NA,NA,NA,NA,NA,NA,NA,NA,NA,NA,NA,NA,NA,NA,NA,NA,NA,NA,NA,NA,NA,NA,NA,NA,NA,NA,NA,NA
SUPAMT72748,3ZGVPD4G6ZGC11X0KTXGG9X79HTZTQ,7EC556B7-D2BF-4B51-A2F4-F0827394F3FC,2023-09-28_22h03.11.103,WP_VExplicitOC_HL,2022.2.5,Win32,16.13475749,NA,NA,2.0524,NA,NA,NA,NA,NA,frustrated,"frustrated, not frustrated","more frustrated, less frustrated",NA,NA,NA,NA,NA,NA,NA,NA,NA,NA,NA,NA,NA,NA,NA,0,1,1,1,1,NA,NA,NA,NA,NA,NA,NA,NA,NA,NA,NA,NA,NA,NA,NA,NA,NA,NA,NA,NA,NA,NA,NA,NA,NA,NA,NA,NA
SUPAMT72748,3ZGVPD4G6ZGC11X0KTXGG9X79HTZTQ,7EC556B7-D2BF-4B51-A2F4-F0827394F3FC,2023-09-28_22h03.11.103,WP_VExplicitOC_HL,2022.2.5,Win32,16.13475749,100,4.3528,2.0501,NA,NA,NA,NA,NA,bored,"bored, not bored","more bored, less bored",NA,NA,NA,NA,NA,NA,NA,NA,NA,NA,NA,NA,NA,NA,NA,0,2,2,2,1,NA,NA,NA,NA,NA,NA,NA,NA,NA,NA,NA,NA,NA,NA,NA,NA,NA,NA,NA,NA,NA,NA,NA,NA,NA,NA,NA,NA
SUPAMT72748,3ZGVPD4G6ZGC11X0KTXGG9X79HTZTQ,7EC556B7-D2BF-4B51-A2F4-F0827394F3FC,2023-09-28_22h03.11.103,WP_VExplicitOC_HL,2022.2.5,Win32,16.13475749,NA,NA,NA,NA,NA,NA,NA,NA,NA,NA,NA,NA,NA,NA,NA,NA,NA,NA,NA,NA,NA,NA,NA,NA,NA,NA,NA,NA,NA,NA,NA,8,0,8,0,1,NA,NA,NA,NA,NA,NA,NA,NA,NA,NA,NA,NA,NA,NA,NA,NA,NA,NA,NA,NA,NA,NA,NA
SUPAMT72748,3ZGVPD4G6ZGC11X0KTXGG9X79HTZTQ,7EC556B7-D2BF-4B51-A2F4-F0827394F3FC,2023-09-28_22h03.11.103,WP_VExplicitOC_HL,2022.2.5,Win32,16.13475749,35.41666667,2.2109,2.0019,NA,NA,NA,NA,NA,frustrated,"frustrated, not frustrated","more frustrated, less frustrated",NA,NA,NA,NA,NA,NA,NA,NA,NA,NA,NA,NA,NA,NA,NA,0,0,0,1,1,NA,NA,NA,NA,NA,NA,NA,NA,NA,NA,NA,NA,NA,NA,NA,NA,NA,NA,NA,NA,NA,NA,NA,NA,NA,NA,NA,NA
SUPAMT72748,3ZGVPD4G6ZGC11X0KTXGG9X79HTZTQ,7EC556B7-D2BF-4B51-A2F4-F0827394F3FC,2023-09-28_22h03.11.103,WP_VExplicitOC_HL,2022.2.5,Win32,16.13475749,100,4.4452,2.0648,NA,NA,NA,NA,NA,happy,"unhappy, happy","less happy, more happy",NA,NA,NA,NA,NA,NA,NA,NA,NA,NA,NA,NA,NA,NA,NA,0,1,1,0,1,NA,NA,NA,NA,NA,NA,NA,NA,NA,NA,NA,NA,NA,NA,NA,NA,NA,NA,NA,NA,NA,NA,NA,NA,NA,NA,NA,NA
SUPAMT72748,3ZGVPD4G6ZGC11X0KTXGG9X79HTZTQ,7EC556B7-D2BF-4B51-A2F4-F0827394F3FC,2023-09-28_22h03.11.103,WP_VExplicitOC_HL,2022.2.5,Win32,16.13475749,100,4.3906,2.0612,NA,NA,NA,NA,NA,bored,"bored, not bored","more bored, less bored",NA,NA,NA,NA,NA,NA,NA,NA,NA,NA,NA,NA,NA,NA,NA,0,2,2,2,1,NA,NA,NA,NA,NA,NA,NA,NA,NA,NA,NA,NA,NA,NA,NA,NA,NA,NA,NA,NA,NA,NA,NA,NA,NA,NA,NA,NA
SUPAMT72748,3ZGVPD4G6ZGC11X0KTXGG9X79HTZTQ,7EC556B7-D2BF-4B51-A2F4-F0827394F3FC,2023-09-28_22h03.11.103,WP_VExplicitOC_HL,2022.2.5,Win32,16.13475749,NA,NA,NA,NA,NA,NA,NA,NA,NA,NA,NA,NA,NA,NA,NA,NA,NA,NA,NA,NA,NA,NA,NA,NA,NA,NA,NA,NA,NA,NA,NA,9,0,9,0,1,NA,NA,NA,NA,NA,NA,NA,NA,NA,NA,NA,NA,NA,NA,NA,NA,NA,NA,NA,NA,NA,NA,NA
SUPAMT72748,3ZGVPD4G6ZGC11X0KTXGG9X79HTZTQ,7EC556B7-D2BF-4B51-A2F4-F0827394F3FC,2023-09-28_22h03.11.103,WP_VExplicitOC_HL,2022.2.5,Win32,16.13475749,94.79166667,4.1803,2.0231,NA,NA,NA,NA,NA,happy,"unhappy, happy","less happy, more happy",NA,NA,NA,NA,NA,NA,NA,NA,NA,NA,NA,NA,NA,NA,NA,0,0,0,0,1,NA,NA,NA,NA,NA,NA,NA,NA,NA,NA,NA,NA,NA,NA,NA,NA,NA,NA,NA,NA,NA,NA,NA,NA,NA,NA,NA,NA
SUPAMT72748,3ZGVPD4G6ZGC11X0KTXGG9X79HTZTQ,7EC556B7-D2BF-4B51-A2F4-F0827394F3FC,2023-09-28_22h03.11.103,WP_VExplicitOC_HL,2022.2.5,Win32,16.13475749,97.13541667,4.2867,2.0359,NA,NA,NA,NA,NA,bored,"bored, not bored","more bored, less bored",NA,NA,NA,NA,NA,NA,NA,NA,NA,NA,NA,NA,NA,NA,NA,0,1,1,2,1,NA,NA,NA,NA,NA,NA,NA,NA,NA,NA,NA,NA,NA,NA,NA,NA,NA,NA,NA,NA,NA,NA,NA,NA,NA,NA,NA,NA
SUPAMT72748,3ZGVPD4G6ZGC11X0KTXGG9X79HTZTQ,7EC556B7-D2BF-4B51-A2F4-F0827394F3FC,2023-09-28_22h03.11.103,WP_VExplicitOC_HL,2022.2.5,Win32,16.13475749,NA,NA,2.0632,NA,NA,NA,NA,NA,frustrated,"frustrated, not frustrated","more frustrated, less frustrated",NA,NA,NA,NA,NA,NA,NA,NA,NA,NA,NA,NA,NA,NA,NA,0,2,2,1,1,NA,NA,NA,NA,NA,NA,NA,NA,NA,NA,NA,NA,NA,NA,NA,NA,NA,NA,NA,NA,NA,NA,NA,NA,NA,NA,NA,NA
SUPAMT72748,3ZGVPD4G6ZGC11X0KTXGG9X79HTZTQ,7EC556B7-D2BF-4B51-A2F4-F0827394F3FC,2023-09-28_22h03.11.103,WP_VExplicitOC_HL,2022.2.5,Win32,16.13475749,NA,NA,NA,NA,NA,NA,NA,NA,NA,NA,NA,NA,NA,NA,NA,NA,NA,NA,NA,NA,NA,NA,NA,NA,NA,NA,NA,NA,NA,NA,NA,10,0,10,0,1,NA,NA,NA,NA,NA,NA,NA,NA,NA,NA,NA,NA,NA,NA,NA,NA,NA,NA,NA,NA,NA,NA,NA
SUPAMT72748,3ZGVPD4G6ZGC11X0KTXGG9X79HTZTQ,7EC556B7-D2BF-4B51-A2F4-F0827394F3FC,2023-09-28_22h03.11.103,WP_VExplicitOC_HL,2022.2.5,Win32,16.13475749,94.79166667,5.427,2.081,NA,NA,NA,NA,NA,bored,"bored, not bored","more bored, less bored",NA,NA,NA,NA,NA,NA,NA,NA,NA,NA,NA,NA,NA,NA,NA,0,0,0,2,1,NA,NA,NA,NA,NA,NA,NA,NA,NA,NA,NA,NA,NA,NA,NA,NA,NA,NA,NA,NA,NA,NA,NA,NA,NA,NA,NA,NA
SUPAMT72748,3ZGVPD4G6ZGC11X0KTXGG9X79HTZTQ,7EC556B7-D2BF-4B51-A2F4-F0827394F3FC,2023-09-28_22h03.11.103,WP_VExplicitOC_HL,2022.2.5,Win32,16.13475749,100,5.4702,2.0225,NA,NA,NA,NA,NA,frustrated,"frustrated, not frustrated","more frustrated, less frustrated",NA,NA,NA,NA,NA,NA,NA,NA,NA,NA,NA,NA,NA,NA,NA,0,1,1,1,1,NA,NA,NA,NA,NA,NA,NA,NA,NA,NA,NA,NA,NA,NA,NA,NA,NA,NA,NA,NA,NA,NA,NA,NA,NA,NA,NA,NA
SUPAMT72748,3ZGVPD4G6ZGC11X0KTXGG9X79HTZTQ,7EC556B7-D2BF-4B51-A2F4-F0827394F3FC,2023-09-28_22h03.11.103,WP_VExplicitOC_HL,2022.2.5,Win32,16.13475749,100,4.6237,2.0123,NA,NA,NA,NA,NA,happy,"unhappy, happy","less happy, more happy",NA,NA,NA,NA,NA,NA,NA,NA,NA,NA,NA,NA,NA,NA,NA,0,2,2,0,1,NA,NA,NA,NA,NA,NA,NA,NA,NA,NA,NA,NA,NA,NA,NA,NA,NA,NA,NA,NA,NA,NA,NA,NA,NA,NA,NA,NA
SUPAMT72748,3ZGVPD4G6ZGC11X0KTXGG9X79HTZTQ,7EC556B7-D2BF-4B51-A2F4-F0827394F3FC,2023-09-28_22h03.11.103,WP_VExplicitOC_HL,2022.2.5,Win32,16.13475749,NA,NA,NA,NA,NA,NA,NA,NA,NA,NA,NA,NA,NA,NA,NA,NA,NA,NA,NA,NA,NA,NA,NA,NA,NA,NA,NA,NA,NA,NA,NA,11,0,11,0,1,NA,NA,NA,NA,NA,NA,NA,NA,NA,NA,NA,NA,NA,NA,NA,NA,NA,NA,NA,NA,NA,NA,NA
SUPAMT72748,3ZGVPD4G6ZGC11X0KTXGG9X79HTZTQ,7EC556B7-D2BF-4B51-A2F4-F0827394F3FC,2023-09-28_22h03.11.103,WP_VExplicitOC_HL,2022.2.5,Win32,16.13475749,100,5.6463,2.0065,NA,NA,NA,NA,NA,frustrated,"frustrated, not frustrated","more frustrated, less frustrated",NA,NA,NA,NA,NA,NA,NA,NA,NA,NA,NA,NA,NA,NA,NA,0,0,0,1,1,NA,NA,NA,NA,NA,NA,NA,NA,NA,NA,NA,NA,NA,NA,NA,NA,NA,NA,NA,NA,NA,NA,NA,NA,NA,NA,NA,NA
SUPAMT72748,3ZGVPD4G6ZGC11X0KTXGG9X79HTZTQ,7EC556B7-D2BF-4B51-A2F4-F0827394F3FC,2023-09-28_22h03.11.103,WP_VExplicitOC_HL,2022.2.5,Win32,16.13475749,100,4.927,2.0305,NA,NA,NA,NA,NA,bored,"bored, not bored","more bored, less bored",NA,NA,NA,NA,NA,NA,NA,NA,NA,NA,NA,NA,NA,NA,NA,0,1,1,2,1,NA,NA,NA,NA,NA,NA,NA,NA,NA,NA,NA,NA,NA,NA,NA,NA,NA,NA,NA,NA,NA,NA,NA,NA,NA,NA,NA,NA
SUPAMT72748,3ZGVPD4G6ZGC11X0KTXGG9X79HTZTQ,7EC556B7-D2BF-4B51-A2F4-F0827394F3FC,2023-09-28_22h03.11.103,WP_VExplicitOC_HL,2022.2.5,Win32,16.13475749,100,5.4614,2.0769,NA,NA,NA,NA,NA,happy,"unhappy, happy","less happy, more happy",NA,NA,NA,NA,NA,NA,NA,NA,NA,NA,NA,NA,NA,NA,NA,0,2,2,0,1,NA,NA,NA,NA,NA,NA,NA,NA,NA,NA,NA,NA,NA,NA,NA,NA,NA,NA,NA,NA,NA,NA,NA,NA,NA,NA,NA,NA
SUPAMT72748,3ZGVPD4G6ZGC11X0KTXGG9X79HTZTQ,7EC556B7-D2BF-4B51-A2F4-F0827394F3FC,2023-09-28_22h03.11.103,WP_VExplicitOC_HL,2022.2.5,Win32,16.13475749,NA,NA,NA,NA,NA,NA,NA,NA,NA,NA,NA,NA,NA,NA,NA,NA,NA,NA,NA,NA,NA,NA,NA,NA,NA,NA,NA,NA,NA,NA,NA,12,0,12,0,1,NA,NA,NA,NA,NA,NA,NA,NA,NA,NA,NA,NA,NA,NA,NA,NA,NA,NA,NA,NA,NA,NA,NA
SUPAMT72748,3ZGVPD4G6ZGC11X0KTXGG9X79HTZTQ,7EC556B7-D2BF-4B51-A2F4-F0827394F3FC,2023-09-28_22h03.11.103,WP_VExplicitOC_HL,2022.2.5,Win32,16.13475749,NA,NA,2.0428,NA,NA,NA,NA,NA,frustrated,"frustrated, not frustrated","more frustrated, less frustrated",NA,NA,NA,NA,NA,NA,NA,NA,NA,NA,NA,NA,NA,NA,NA,0,0,0,1,1,NA,NA,NA,NA,NA,NA,NA,NA,NA,NA,NA,NA,NA,NA,NA,NA,NA,NA,NA,NA,NA,NA,NA,NA,NA,NA,NA,NA
SUPAMT72748,3ZGVPD4G6ZGC11X0KTXGG9X79HTZTQ,7EC556B7-D2BF-4B51-A2F4-F0827394F3FC,2023-09-28_22h03.11.103,WP_VExplicitOC_HL,2022.2.5,Win32,16.13475749,100,4.8502,2.0574,NA,NA,NA,NA,NA,happy,"unhappy, happy","less happy, more happy",NA,NA,NA,NA,NA,NA,NA,NA,NA,NA,NA,NA,NA,NA,NA,0,1,1,0,1,NA,NA,NA,NA,NA,NA,NA,NA,NA,NA,NA,NA,NA,NA,NA,NA,NA,NA,NA,NA,NA,NA,NA,NA,NA,NA,NA,NA
SUPAMT72748,3ZGVPD4G6ZGC11X0KTXGG9X79HTZTQ,7EC556B7-D2BF-4B51-A2F4-F0827394F3FC,2023-09-28_22h03.11.103,WP_VExplicitOC_HL,2022.2.5,Win32,16.13475749,100,5.6944,2.0259,NA,NA,NA,NA,NA,bored,"bored, not bored","more bored, less bored",NA,NA,NA,NA,NA,NA,NA,NA,NA,NA,NA,NA,NA,NA,NA,0,2,2,2,1,NA,NA,NA,NA,NA,NA,NA,NA,NA,NA,NA,NA,NA,NA,NA,NA,NA,NA,NA,NA,NA,NA,NA,NA,NA,NA,NA,NA
SUPAMT72748,3ZGVPD4G6ZGC11X0KTXGG9X79HTZTQ,7EC556B7-D2BF-4B51-A2F4-F0827394F3FC,2023-09-28_22h03.11.103,WP_VExplicitOC_HL,2022.2.5,Win32,16.13475749,NA,NA,NA,NA,NA,NA,NA,NA,NA,NA,NA,NA,NA,NA,NA,NA,NA,NA,NA,NA,NA,NA,NA,NA,NA,NA,NA,NA,NA,NA,NA,13,0,13,0,1,NA,NA,NA,NA,NA,NA,NA,NA,NA,NA,NA,NA,NA,NA,NA,NA,NA,NA,NA,NA,NA,NA,NA
SUPAMT72748,3ZGVPD4G6ZGC11X0KTXGG9X79HTZTQ,7EC556B7-D2BF-4B51-A2F4-F0827394F3FC,2023-09-28_22h03.11.103,WP_VExplicitOC_HL,2022.2.5,Win32,16.13475749,100,5.4664,2.0107,NA,NA,NA,NA,NA,frustrated,"frustrated, not frustrated","more frustrated, less frustrated",NA,NA,NA,NA,NA,NA,NA,NA,NA,NA,NA,NA,NA,NA,NA,0,0,0,1,1,NA,NA,NA,NA,NA,NA,NA,NA,NA,NA,NA,NA,NA,NA,NA,NA,NA,NA,NA,NA,NA,NA,NA,NA,NA,NA,NA,NA
SUPAMT72748,3ZGVPD4G6ZGC11X0KTXGG9X79HTZTQ,7EC556B7-D2BF-4B51-A2F4-F0827394F3FC,2023-09-28_22h03.11.103,WP_VExplicitOC_HL,2022.2.5,Win32,16.13475749,-98.17708333,5.028,2.0183,NA,NA,NA,NA,NA,happy,"unhappy, happy","less happy, more happy",NA,NA,NA,NA,NA,NA,NA,NA,NA,NA,NA,NA,NA,NA,NA,0,1,1,0,1,NA,NA,NA,NA,NA,NA,NA,NA,NA,NA,NA,NA,NA,NA,NA,NA,NA,NA,NA,NA,NA,NA,NA,NA,NA,NA,NA,NA
SUPAMT72748,3ZGVPD4G6ZGC11X0KTXGG9X79HTZTQ,7EC556B7-D2BF-4B51-A2F4-F0827394F3FC,2023-09-28_22h03.11.103,WP_VExplicitOC_HL,2022.2.5,Win32,16.13475749,-100,6.5446,2.0368,NA,NA,NA,NA,NA,bored,"bored, not bored","more bored, less bored",NA,NA,NA,NA,NA,NA,NA,NA,NA,NA,NA,NA,NA,NA,NA,0,2,2,2,1,NA,NA,NA,NA,NA,NA,NA,NA,NA,NA,NA,NA,NA,NA,NA,NA,NA,NA,NA,NA,NA,NA,NA,NA,NA,NA,NA,NA
SUPAMT72748,3ZGVPD4G6ZGC11X0KTXGG9X79HTZTQ,7EC556B7-D2BF-4B51-A2F4-F0827394F3FC,2023-09-28_22h03.11.103,WP_VExplicitOC_HL,2022.2.5,Win32,16.13475749,NA,NA,NA,NA,NA,NA,NA,NA,NA,NA,NA,NA,NA,NA,NA,NA,NA,NA,NA,NA,NA,NA,NA,NA,NA,NA,NA,NA,NA,NA,NA,14,0,14,0,1,NA,NA,NA,NA,NA,NA,NA,NA,NA,NA,NA,NA,NA,NA,NA,NA,NA,NA,NA,NA,NA,NA,NA
SUPAMT72748,3ZGVPD4G6ZGC11X0KTXGG9X79HTZTQ,7EC556B7-D2BF-4B51-A2F4-F0827394F3FC,2023-09-28_22h03.11.103,WP_VExplicitOC_HL,2022.2.5,Win32,16.13475749,NA,NA,NA,NA,NA,NA,NA,NA,NA,NA,NA,NA,NA,NA,NA,NA,NA,NA,NA,NA,NA,NA,NA,NA,NA,NA,NA,NA,NA,NA,NA,NA,NA,NA,NA,NA,NA,NA,NA,NA,NA,NA,NA,NA,NA,NA,NA,NA,NA,NA,NA,NA,NA,NA,NA,NA,NA,NA,NA
SUPAMT72748,3ZGVPD4G6ZGC11X0KTXGG9X79HTZTQ,7EC556B7-D2BF-4B51-A2F4-F0827394F3FC,2023-09-28_22h03.11.103,WP_VExplicitOC_HL,2022.2.5,Win32,16.13475749,NA,NA,NA,NA,NA,NA,NA,NA,NA,NA,NA,NA,NA,NA,NA,NA,NA,NA,NA,NA,NA,NA,NA,NA,NA,NA,NA,NA,NA,NA,NA,NA,NA,NA,NA,NA,NA,NA,NA,NA,NA,NA,NA,NA,NA,NA,NA,NA,NA,NA,NA,NA,NA,NA,NA,NA,NA,NA,NA
SUPAMT72748,3ZGVPD4G6ZGC11X0KTXGG9X79HTZTQ,7EC556B7-D2BF-4B51-A2F4-F0827394F3FC,2023-09-28_22h03.11.103,WP_VExplicitOC_HL,2022.2.5,Win32,16.13475749,NA,NA,NA,NA,NA,NA,NA,NA,NA,NA,NA,NA,NA,NA,NA,NA,NA,NA,rest (looking at a fixed cross),001.png,NA,NA,NA,NA,NA,NA,NA,NA,NA,NA,NA,NA,NA,NA,NA,NA,87.5,6.6897,0,0,0,0,1,NA,NA,NA,NA,NA,NA,NA,NA,NA,NA,NA,NA,NA,NA,NA,NA
SUPAMT72748,3ZGVPD4G6ZGC11X0KTXGG9X79HTZTQ,7EC556B7-D2BF-4B51-A2F4-F0827394F3FC,2023-09-28_22h03.11.103,WP_VExplicitOC_HL,2022.2.5,Win32,16.13475749,NA,NA,NA,NA,NA,NA,NA,NA,NA,NA,NA,NA,NA,NA,NA,NA,NA,NA,stand up,002.png,NA,NA,NA,NA,NA,NA,NA,NA,NA,NA,NA,NA,NA,NA,NA,NA,88.02083333,4.5099,0,1,1,1,1,NA,NA,NA,NA,NA,NA,NA,NA,NA,NA,NA,NA,NA,NA,NA,NA
SUPAMT72748,3ZGVPD4G6ZGC11X0KTXGG9X79HTZTQ,7EC556B7-D2BF-4B51-A2F4-F0827394F3FC,2023-09-28_22h03.11.103,WP_VExplicitOC_HL,2022.2.5,Win32,16.13475749,NA,NA,NA,NA,NA,NA,NA,NA,NA,NA,NA,NA,NA,NA,NA,NA,NA,NA,stretch,003.png,NA,NA,NA,NA,NA,NA,NA,NA,NA,NA,NA,NA,NA,NA,NA,NA,100,2.4275,0,2,2,2,1,NA,NA,NA,NA,NA,NA,NA,NA,NA,NA,NA,NA,NA,NA,NA,NA
SUPAMT72748,3ZGVPD4G6ZGC11X0KTXGG9X79HTZTQ,7EC556B7-D2BF-4B51-A2F4-F0827394F3FC,2023-09-28_22h03.11.103,WP_VExplicitOC_HL,2022.2.5,Win32,16.13475749,NA,NA,NA,NA,NA,NA,NA,NA,NA,NA,NA,NA,NA,NA,NA,NA,NA,NA,make a drink,004.png,NA,NA,NA,NA,NA,NA,NA,NA,NA,NA,NA,NA,NA,NA,NA,NA,100,2.2935,0,3,3,3,1,NA,NA,NA,NA,NA,NA,NA,NA,NA,NA,NA,NA,NA,NA,NA,NA
SUPAMT72748,3ZGVPD4G6ZGC11X0KTXGG9X79HTZTQ,7EC556B7-D2BF-4B51-A2F4-F0827394F3FC,2023-09-28_22h03.11.103,WP_VExplicitOC_HL,2022.2.5,Win32,16.13475749,NA,NA,NA,NA,NA,NA,NA,NA,NA,NA,NA,NA,NA,NA,NA,NA,NA,NA,scroll social media,005.png,NA,NA,NA,NA,NA,NA,NA,NA,NA,NA,NA,NA,NA,NA,NA,NA,100,1.8396,0,4,4,4,1,NA,NA,NA,NA,NA,NA,NA,NA,NA,NA,NA,NA,NA,NA,NA,NA
SUPAMT72748,3ZGVPD4G6ZGC11X0KTXGG9X79HTZTQ,7EC556B7-D2BF-4B51-A2F4-F0827394F3FC,2023-09-28_22h03.11.103,WP_VExplicitOC_HL,2022.2.5,Win32,16.13475749,NA,NA,NA,NA,NA,NA,NA,NA,NA,NA,NA,NA,NA,NA,NA,NA,NA,NA,listen to music,006.png,NA,NA,NA,NA,NA,NA,NA,NA,NA,NA,NA,NA,NA,NA,NA,NA,100,1.8687,0,5,5,5,1,NA,NA,NA,NA,NA,NA,NA,NA,NA,NA,NA,NA,NA,NA,NA,NA
SUPAMT72748,3ZGVPD4G6ZGC11X0KTXGG9X79HTZTQ,7EC556B7-D2BF-4B51-A2F4-F0827394F3FC,2023-09-28_22h03.11.103,WP_VExplicitOC_HL,2022.2.5,Win32,16.13475749,NA,NA,NA,NA,NA,NA,NA,NA,NA,NA,NA,NA,NA,NA,NA,NA,NA,NA,daydream,007.png,NA,NA,NA,NA,NA,NA,NA,NA,NA,NA,NA,NA,NA,NA,NA,NA,100,2.139,0,6,6,6,1,NA,NA,NA,NA,NA,NA,NA,NA,NA,NA,NA,NA,NA,NA,NA,NA
SUPAMT72748,3ZGVPD4G6ZGC11X0KTXGG9X79HTZTQ,7EC556B7-D2BF-4B51-A2F4-F0827394F3FC,2023-09-28_22h03.11.103,WP_VExplicitOC_HL,2022.2.5,Win32,16.13475749,NA,NA,NA,NA,NA,NA,NA,NA,NA,NA,NA,NA,NA,NA,NA,NA,NA,NA,watch a short animation,008.png,NA,NA,NA,NA,NA,NA,NA,NA,NA,NA,NA,NA,NA,NA,NA,NA,100,2.3672,0,7,7,7,1,NA,NA,NA,NA,NA,NA,NA,NA,NA,NA,NA,NA,NA,NA,NA,NA
SUPAMT72748,3ZGVPD4G6ZGC11X0KTXGG9X79HTZTQ,7EC556B7-D2BF-4B51-A2F4-F0827394F3FC,2023-09-28_22h03.11.103,WP_VExplicitOC_HL,2022.2.5,Win32,16.13475749,NA,NA,NA,NA,NA,NA,NA,NA,NA,NA,NA,NA,NA,NA,NA,NA,NA,NA,read a novel,009.png,NA,NA,NA,NA,NA,NA,NA,NA,NA,NA,NA,NA,NA,NA,NA,NA,100,2.4272,0,8,8,8,1,NA,NA,NA,NA,NA,NA,NA,NA,NA,NA,NA,NA,NA,NA,NA,NA
SUPAMT72748,3ZGVPD4G6ZGC11X0KTXGG9X79HTZTQ,7EC556B7-D2BF-4B51-A2F4-F0827394F3FC,2023-09-28_22h03.11.103,WP_VExplicitOC_HL,2022.2.5,Win32,16.13475749,NA,NA,NA,NA,NA,NA,NA,NA,NA,NA,NA,NA,NA,NA,NA,NA,NA,NA,read the news,010.png,NA,NA,NA,NA,NA,NA,NA,NA,NA,NA,NA,NA,NA,NA,NA,NA,100,2.7104,0,9,9,9,1,NA,NA,NA,NA,NA,NA,NA,NA,NA,NA,NA,NA,NA,NA,NA,NA
SUPAMT72748,3ZGVPD4G6ZGC11X0KTXGG9X79HTZTQ,7EC556B7-D2BF-4B51-A2F4-F0827394F3FC,2023-09-28_22h03.11.103,WP_VExplicitOC_HL,2022.2.5,Win32,16.13475749,NA,NA,NA,NA,NA,NA,NA,NA,NA,NA,NA,NA,NA,NA,NA,NA,NA,NA,NA,NA,NA,NA,NA,NA,NA,NA,NA,NA,NA,NA,NA,NA,NA,NA,NA,NA,NA,NA,NA,NA,NA,NA,NA,stand up,NA,NA,NA,NA,NA,NA,NA,NA,NA,NA,NA,NA,NA,NA,NA
SUPAMT72748,3ZGVPD4G6ZGC11X0KTXGG9X79HTZTQ,7EC556B7-D2BF-4B51-A2F4-F0827394F3FC,2023-09-28_22h03.11.103,WP_VExplicitOC_HL,2022.2.5,Win32,16.13475749,-100,5.7133,2.064,NA,NA,NA,NA,NA,bored,"bored, not bored","more bored, less bored",NA,NA,NA,NA,NA,NA,NA,NA,NA,NA,NA,NA,NA,NA,NA,NA,NA,NA,NA,NA,NA,NA,NA,NA,NA,NA,NA,NA,NA,NA,NA,NA,NA,0,0,0,2,1,NA,NA,NA,NA,NA,NA,NA,NA,NA,NA
SUPAMT72748,3ZGVPD4G6ZGC11X0KTXGG9X79HTZTQ,7EC556B7-D2BF-4B51-A2F4-F0827394F3FC,2023-09-28_22h03.11.103,WP_VExplicitOC_HL,2022.2.5,Win32,16.13475749,-100,5.0178,2.0463,NA,NA,NA,NA,NA,happy,"unhappy, happy","less happy, more happy",NA,NA,NA,NA,NA,NA,NA,NA,NA,NA,NA,NA,NA,NA,NA,NA,NA,NA,NA,NA,NA,NA,NA,NA,NA,NA,NA,NA,NA,NA,NA,NA,NA,0,1,1,0,1,NA,NA,NA,NA,NA,NA,NA,NA,NA,NA
SUPAMT72748,3ZGVPD4G6ZGC11X0KTXGG9X79HTZTQ,7EC556B7-D2BF-4B51-A2F4-F0827394F3FC,2023-09-28_22h03.11.103,WP_VExplicitOC_HL,2022.2.5,Win32,16.13475749,100,7.116,2.0359,NA,NA,NA,NA,NA,frustrated,"frustrated, not frustrated","more frustrated, less frustrated",NA,NA,NA,NA,NA,NA,NA,NA,NA,NA,NA,NA,NA,NA,NA,NA,NA,NA,NA,NA,NA,NA,NA,NA,NA,NA,NA,NA,NA,NA,NA,NA,NA,0,2,2,1,1,NA,NA,NA,NA,NA,NA,NA,NA,NA,NA
SUPAMT72748,3ZGVPD4G6ZGC11X0KTXGG9X79HTZTQ,7EC556B7-D2BF-4B51-A2F4-F0827394F3FC,2023-09-28_22h03.11.103,WP_VExplicitOC_HL,2022.2.5,Win32,16.13475749,NA,NA,NA,NA,NA,NA,NA,NA,NA,NA,NA,NA,NA,NA,NA,NA,NA,NA,NA,NA,NA,NA,NA,NA,NA,NA,NA,NA,NA,NA,NA,NA,NA,NA,NA,NA,NA,NA,NA,NA,NA,NA,NA,NA,NA,NA,NA,NA,NA,NA,NA,NA,NA,NA,NA,NA,NA,NA,NA
SUPAMT72748,3ZGVPD4G6ZGC11X0KTXGG9X79HTZTQ,7EC556B7-D2BF-4B51-A2F4-F0827394F3FC,2023-09-28_22h03.11.103,WP_VExplicitOC_HL,2022.2.5,Win32,16.13475749,NA,NA,NA,NA,NA,NA,NA,NA,NA,NA,NA,NA,NA,NA,NA,NA,NA,NA,NA,NA,NA,NA,NA,NA,NA,NA,NA,NA,NA,NA,NA,NA,NA,NA,NA,NA,NA,NA,NA,NA,NA,NA,NA,NA,NA,NA,NA,NA,NA,NA,NA,NA,NA,NA,NA,NA,NA,NA,NA
SUPAMT72748,3ZGVPD4G6ZGC11X0KTXGG9X79HTZTQ,7EC556B7-D2BF-4B51-A2F4-F0827394F3FC,2023-09-28_22h03.11.103,WP_VExplicitOC_HL,2022.2.5,Win32,16.13475749,100,5.3355,2.0473,NA,NA,NA,NA,NA,frustrated,"frustrated, not frustrated","more frustrated, less frustrated",NA,NA,NA,NA,NA,NA,NA,NA,NA,NA,NA,NA,NA,NA,NA,NA,NA,NA,NA,NA,NA,NA,NA,NA,NA,NA,NA,NA,NA,NA,NA,NA,NA,NA,NA,NA,NA,NA,0,0,0,1,1,NA,NA,NA,NA,NA
SUPAMT72748,3ZGVPD4G6ZGC11X0KTXGG9X79HTZTQ,7EC556B7-D2BF-4B51-A2F4-F0827394F3FC,2023-09-28_22h03.11.103,WP_VExplicitOC_HL,2022.2.5,Win32,16.13475749,-100,4.4218,2.0061,NA,NA,NA,NA,NA,bored,"bored, not bored","more bored, less bored",NA,NA,NA,NA,NA,NA,NA,NA,NA,NA,NA,NA,NA,NA,NA,NA,NA,NA,NA,NA,NA,NA,NA,NA,NA,NA,NA,NA,NA,NA,NA,NA,NA,NA,NA,NA,NA,NA,0,1,1,2,1,NA,NA,NA,NA,NA
SUPAMT72748,3ZGVPD4G6ZGC11X0KTXGG9X79HTZTQ,7EC556B7-D2BF-4B51-A2F4-F0827394F3FC,2023-09-28_22h03.11.103,WP_VExplicitOC_HL,2022.2.5,Win32,16.13475749,-100,5.9857,2.0035,NA,NA,NA,NA,NA,happy,"unhappy, happy","less happy, more happy",NA,NA,NA,NA,NA,NA,NA,NA,NA,NA,NA,NA,NA,NA,NA,NA,NA,NA,NA,NA,NA,NA,NA,NA,NA,NA,NA,NA,NA,NA,NA,NA,NA,NA,NA,NA,NA,NA,0,2,2,0,1,NA,NA,NA,NA,NA
SUPAMT72748,3ZGVPD4G6ZGC11X0KTXGG9X79HTZTQ,7EC556B7-D2BF-4B51-A2F4-F0827394F3FC,2023-09-28_22h03.11.103,WP_VExplicitOC_HL,2022.2.5,Win32,16.13475749,NA,NA,NA,NA,NA,NA,NA,NA,NA,NA,NA,NA,NA,NA,NA,NA,NA,NA,NA,NA,NA,NA,NA,NA,NA,NA,NA,NA,NA,NA,NA,NA,NA,NA,NA,NA,NA,NA,NA,NA,NA,NA,NA,NA,NA,NA,NA,NA,NA,NA,NA,NA,NA,NA,0,0,0,0,1
SUPAMT72748,3ZGVPD4G6ZGC11X0KTXGG9X79HTZTQ,7EC556B7-D2BF-4B51-A2F4-F0827394F3FC,2023-09-28_22h03.11.103,WP_VExplicitOC_HL,2022.2.5,Win32,16.13475749,100,5.9781,2.0033,NA,NA,NA,NA,NA,bored,"bored, not bored","more bored, less bored",NA,NA,NA,NA,NA,NA,NA,NA,NA,NA,NA,NA,NA,NA,NA,NA,NA,NA,NA,NA,NA,NA,NA,NA,NA,NA,NA,NA,NA,NA,NA,NA,NA,NA,NA,NA,NA,NA,0,0,0,2,1,NA,NA,NA,NA,NA
SUPAMT72748,3ZGVPD4G6ZGC11X0KTXGG9X79HTZTQ,7EC556B7-D2BF-4B51-A2F4-F0827394F3FC,2023-09-28_22h03.11.103,WP_VExplicitOC_HL,2022.2.5,Win32,16.13475749,100,4.6694,2.0537,NA,NA,NA,NA,NA,happy,"unhappy, happy","less happy, more happy",NA,NA,NA,NA,NA,NA,NA,NA,NA,NA,NA,NA,NA,NA,NA,NA,NA,NA,NA,NA,NA,NA,NA,NA,NA,NA,NA,NA,NA,NA,NA,NA,NA,NA,NA,NA,NA,NA,0,1,1,0,1,NA,NA,NA,NA,NA
SUPAMT72748,3ZGVPD4G6ZGC11X0KTXGG9X79HTZTQ,7EC556B7-D2BF-4B51-A2F4-F0827394F3FC,2023-09-28_22h03.11.103,WP_VExplicitOC_HL,2022.2.5,Win32,16.13475749,NA,NA,2.0118,NA,NA,NA,NA,NA,frustrated,"frustrated, not frustrated","more frustrated, less frustrated",NA,NA,NA,NA,NA,NA,NA,NA,NA,NA,NA,NA,NA,NA,NA,NA,NA,NA,NA,NA,NA,NA,NA,NA,NA,NA,NA,NA,NA,NA,NA,NA,NA,NA,NA,NA,NA,NA,0,2,2,1,1,NA,NA,NA,NA,NA
SUPAMT72748,3ZGVPD4G6ZGC11X0KTXGG9X79HTZTQ,7EC556B7-D2BF-4B51-A2F4-F0827394F3FC,2023-09-28_22h03.11.103,WP_VExplicitOC_HL,2022.2.5,Win32,16.13475749,NA,NA,NA,NA,NA,NA,NA,NA,NA,NA,NA,NA,NA,NA,NA,NA,NA,NA,NA,NA,NA,NA,NA,NA,NA,NA,NA,NA,NA,NA,NA,NA,NA,NA,NA,NA,NA,NA,NA,NA,NA,NA,NA,NA,NA,NA,NA,NA,NA,NA,NA,NA,NA,NA,1,0,1,0,1
SUPAMT72748,3ZGVPD4G6ZGC11X0KTXGG9X79HTZTQ,7EC556B7-D2BF-4B51-A2F4-F0827394F3FC,2023-09-28_22h03.11.103,WP_VExplicitOC_HL,2022.2.5,Win32,16.13475749,93.48958333,6.1237,2.0536,NA,NA,NA,NA,NA,happy,"unhappy, happy","less happy, more happy",NA,NA,NA,NA,NA,NA,NA,NA,NA,NA,NA,NA,NA,NA,NA,NA,NA,NA,NA,NA,NA,NA,NA,NA,NA,NA,NA,NA,NA,NA,NA,NA,NA,NA,NA,NA,NA,NA,0,0,0,0,1,NA,NA,NA,NA,NA
SUPAMT72748,3ZGVPD4G6ZGC11X0KTXGG9X79HTZTQ,7EC556B7-D2BF-4B51-A2F4-F0827394F3FC,2023-09-28_22h03.11.103,WP_VExplicitOC_HL,2022.2.5,Win32,16.13475749,100,7.3656,2.0056,NA,NA,NA,NA,NA,bored,"bored, not bored","more bored, less bored",NA,NA,NA,NA,NA,NA,NA,NA,NA,NA,NA,NA,NA,NA,NA,NA,NA,NA,NA,NA,NA,NA,NA,NA,NA,NA,NA,NA,NA,NA,NA,NA,NA,NA,NA,NA,NA,NA,0,1,1,2,1,NA,NA,NA,NA,NA
SUPAMT72748,3ZGVPD4G6ZGC11X0KTXGG9X79HTZTQ,7EC556B7-D2BF-4B51-A2F4-F0827394F3FC,2023-09-28_22h03.11.103,WP_VExplicitOC_HL,2022.2.5,Win32,16.13475749,-100,4.9317,2.0219,NA,NA,NA,NA,NA,frustrated,"frustrated, not frustrated","more frustrated, less frustrated",NA,NA,NA,NA,NA,NA,NA,NA,NA,NA,NA,NA,NA,NA,NA,NA,NA,NA,NA,NA,NA,NA,NA,NA,NA,NA,NA,NA,NA,NA,NA,NA,NA,NA,NA,NA,NA,NA,0,2,2,1,1,NA,NA,NA,NA,NA
SUPAMT72748,3ZGVPD4G6ZGC11X0KTXGG9X79HTZTQ,7EC556B7-D2BF-4B51-A2F4-F0827394F3FC,2023-09-28_22h03.11.103,WP_VExplicitOC_HL,2022.2.5,Win32,16.13475749,NA,NA,NA,NA,NA,NA,NA,NA,NA,NA,NA,NA,NA,NA,NA,NA,NA,NA,NA,NA,NA,NA,NA,NA,NA,NA,NA,NA,NA,NA,NA,NA,NA,NA,NA,NA,NA,NA,NA,NA,NA,NA,NA,NA,NA,NA,NA,NA,NA,NA,NA,NA,NA,NA,2,0,2,0,1
SUPAMT72748,3ZGVPD4G6ZGC11X0KTXGG9X79HTZTQ,7EC556B7-D2BF-4B51-A2F4-F0827394F3FC,2023-09-28_22h03.11.103,WP_VExplicitOC_HL,2022.2.5,Win32,16.13475749,NA,NA,2.0336,NA,NA,NA,NA,NA,frustrated,"frustrated, not frustrated","more frustrated, less frustrated",NA,NA,NA,NA,NA,NA,NA,NA,NA,NA,NA,NA,NA,NA,NA,NA,NA,NA,NA,NA,NA,NA,NA,NA,NA,NA,NA,NA,NA,NA,NA,NA,NA,NA,NA,NA,NA,NA,0,0,0,1,1,NA,NA,NA,NA,NA
SUPAMT72748,3ZGVPD4G6ZGC11X0KTXGG9X79HTZTQ,7EC556B7-D2BF-4B51-A2F4-F0827394F3FC,2023-09-28_22h03.11.103,WP_VExplicitOC_HL,2022.2.5,Win32,16.13475749,-98.17708333,5.294,2.0449,NA,NA,NA,NA,NA,bored,"bored, not bored","more bored, less bored",NA,NA,NA,NA,NA,NA,NA,NA,NA,NA,NA,NA,NA,NA,NA,NA,NA,NA,NA,NA,NA,NA,NA,NA,NA,NA,NA,NA,NA,NA,NA,NA,NA,NA,NA,NA,NA,NA,0,1,1,2,1,NA,NA,NA,NA,NA
SUPAMT72748,3ZGVPD4G6ZGC11X0KTXGG9X79HTZTQ,7EC556B7-D2BF-4B51-A2F4-F0827394F3FC,2023-09-28_22h03.11.103,WP_VExplicitOC_HL,2022.2.5,Win32,16.13475749,-94.27083333,5.8304,2.01,NA,NA,NA,NA,NA,happy,"unhappy, happy","less happy, more happy",NA,NA,NA,NA,NA,NA,NA,NA,NA,NA,NA,NA,NA,NA,NA,NA,NA,NA,NA,NA,NA,NA,NA,NA,NA,NA,NA,NA,NA,NA,NA,NA,NA,NA,NA,NA,NA,NA,0,2,2,0,1,NA,NA,NA,NA,NA
SUPAMT72748,3ZGVPD4G6ZGC11X0KTXGG9X79HTZTQ,7EC556B7-D2BF-4B51-A2F4-F0827394F3FC,2023-09-28_22h03.11.103,WP_VExplicitOC_HL,2022.2.5,Win32,16.13475749,NA,NA,NA,NA,NA,NA,NA,NA,NA,NA,NA,NA,NA,NA,NA,NA,NA,NA,NA,NA,NA,NA,NA,NA,NA,NA,NA,NA,NA,NA,NA,NA,NA,NA,NA,NA,NA,NA,NA,NA,NA,NA,NA,NA,NA,NA,NA,NA,NA,NA,NA,NA,NA,NA,3,0,3,0,1
SUPAMT72748,3ZGVPD4G6ZGC11X0KTXGG9X79HTZTQ,7EC556B7-D2BF-4B51-A2F4-F0827394F3FC,2023-09-28_22h03.11.103,WP_VExplicitOC_HL,2022.2.5,Win32,16.13475749,-100,6.0598,2.013,NA,NA,NA,NA,NA,happy,"unhappy, happy","less happy, more happy",NA,NA,NA,NA,NA,NA,NA,NA,NA,NA,NA,NA,NA,NA,NA,NA,NA,NA,NA,NA,NA,NA,NA,NA,NA,NA,NA,NA,NA,NA,NA,NA,NA,NA,NA,NA,NA,NA,0,0,0,0,1,NA,NA,NA,NA,NA
SUPAMT72748,3ZGVPD4G6ZGC11X0KTXGG9X79HTZTQ,7EC556B7-D2BF-4B51-A2F4-F0827394F3FC,2023-09-28_22h03.11.103,WP_VExplicitOC_HL,2022.2.5,Win32,16.13475749,-100,4.1704,2.0011,NA,NA,NA,NA,NA,frustrated,"frustrated, not frustrated","more frustrated, less frustrated",NA,NA,NA,NA,NA,NA,NA,NA,NA,NA,NA,NA,NA,NA,NA,NA,NA,NA,NA,NA,NA,NA,NA,NA,NA,NA,NA,NA,NA,NA,NA,NA,NA,NA,NA,NA,NA,NA,0,1,1,1,1,NA,NA,NA,NA,NA
SUPAMT72748,3ZGVPD4G6ZGC11X0KTXGG9X79HTZTQ,7EC556B7-D2BF-4B51-A2F4-F0827394F3FC,2023-09-28_22h03.11.103,WP_VExplicitOC_HL,2022.2.5,Win32,16.13475749,100,4.4656,2.0428,NA,NA,NA,NA,NA,bored,"bored, not bored","more bored, less bored",NA,NA,NA,NA,NA,NA,NA,NA,NA,NA,NA,NA,NA,NA,NA,NA,NA,NA,NA,NA,NA,NA,NA,NA,NA,NA,NA,NA,NA,NA,NA,NA,NA,NA,NA,NA,NA,NA,0,2,2,2,1,NA,NA,NA,NA,NA
SUPAMT72748,3ZGVPD4G6ZGC11X0KTXGG9X79HTZTQ,7EC556B7-D2BF-4B51-A2F4-F0827394F3FC,2023-09-28_22h03.11.103,WP_VExplicitOC_HL,2022.2.5,Win32,16.13475749,NA,NA,NA,NA,NA,NA,NA,NA,NA,NA,NA,NA,NA,NA,NA,NA,NA,NA,NA,NA,NA,NA,NA,NA,NA,NA,NA,NA,NA,NA,NA,NA,NA,NA,NA,NA,NA,NA,NA,NA,NA,NA,NA,NA,NA,NA,NA,NA,NA,NA,NA,NA,NA,NA,4,0,4,0,1
SUPAMT72748,3ZGVPD4G6ZGC11X0KTXGG9X79HTZTQ,7EC556B7-D2BF-4B51-A2F4-F0827394F3FC,2023-09-28_22h03.11.103,WP_VExplicitOC_HL,2022.2.5,Win32,16.13475749,49.21875,4.7571,2.0003,NA,NA,NA,NA,NA,bored,"bored, not bored","more bored, less bored",NA,NA,NA,NA,NA,NA,NA,NA,NA,NA,NA,NA,NA,NA,NA,NA,NA,NA,NA,NA,NA,NA,NA,NA,NA,NA,NA,NA,NA,NA,NA,NA,NA,NA,NA,NA,NA,NA,0,0,0,2,1,NA,NA,NA,NA,NA
SUPAMT72748,3ZGVPD4G6ZGC11X0KTXGG9X79HTZTQ,7EC556B7-D2BF-4B51-A2F4-F0827394F3FC,2023-09-28_22h03.11.103,WP_VExplicitOC_HL,2022.2.5,Win32,16.13475749,-48.69791667,5.2822,2.0422,NA,NA,NA,NA,NA,frustrated,"frustrated, not frustrated","more frustrated, less frustrated",NA,NA,NA,NA,NA,NA,NA,NA,NA,NA,NA,NA,NA,NA,NA,NA,NA,NA,NA,NA,NA,NA,NA,NA,NA,NA,NA,NA,NA,NA,NA,NA,NA,NA,NA,NA,NA,NA,0,1,1,1,1,NA,NA,NA,NA,NA
SUPAMT72748,3ZGVPD4G6ZGC11X0KTXGG9X79HTZTQ,7EC556B7-D2BF-4B51-A2F4-F0827394F3FC,2023-09-28_22h03.11.103,WP_VExplicitOC_HL,2022.2.5,Win32,16.13475749,-100,3.9932,2.0742,NA,NA,NA,NA,NA,happy,"unhappy, happy","less happy, more happy",NA,NA,NA,NA,NA,NA,NA,NA,NA,NA,NA,NA,NA,NA,NA,NA,NA,NA,NA,NA,NA,NA,NA,NA,NA,NA,NA,NA,NA,NA,NA,NA,NA,NA,NA,NA,NA,NA,0,2,2,0,1,NA,NA,NA,NA,NA
SUPAMT72748,3ZGVPD4G6ZGC11X0KTXGG9X79HTZTQ,7EC556B7-D2BF-4B51-A2F4-F0827394F3FC,2023-09-28_22h03.11.103,WP_VExplicitOC_HL,2022.2.5,Win32,16.13475749,NA,NA,NA,NA,NA,NA,NA,NA,NA,NA,NA,NA,NA,NA,NA,NA,NA,NA,NA,NA,NA,NA,NA,NA,NA,NA,NA,NA,NA,NA,NA,NA,NA,NA,NA,NA,NA,NA,NA,NA,NA,NA,NA,NA,NA,NA,NA,NA,NA,NA,NA,NA,NA,NA,5,0,5,0,1
SUPAMT72748,3ZGVPD4G6ZGC11X0KTXGG9X79HTZTQ,7EC556B7-D2BF-4B51-A2F4-F0827394F3FC,2023-09-28_22h03.11.103,WP_VExplicitOC_HL,2022.2.5,Win32,16.13475749,NA,NA,2.066,NA,NA,NA,NA,NA,bored,"bored, not bored","more bored, less bored",NA,NA,NA,NA,NA,NA,NA,NA,NA,NA,NA,NA,NA,NA,NA,NA,NA,NA,NA,NA,NA,NA,NA,NA,NA,NA,NA,NA,NA,NA,NA,NA,NA,NA,NA,NA,NA,NA,0,0,0,2,1,NA,NA,NA,NA,NA
SUPAMT72748,3ZGVPD4G6ZGC11X0KTXGG9X79HTZTQ,7EC556B7-D2BF-4B51-A2F4-F0827394F3FC,2023-09-28_22h03.11.103,WP_VExplicitOC_HL,2022.2.5,Win32,16.13475749,-90.625,3.6865,2.0608,NA,NA,NA,NA,NA,happy,"unhappy, happy","less happy, more happy",NA,NA,NA,NA,NA,NA,NA,NA,NA,NA,NA,NA,NA,NA,NA,NA,NA,NA,NA,NA,NA,NA,NA,NA,NA,NA,NA,NA,NA,NA,NA,NA,NA,NA,NA,NA,NA,NA,0,1,1,0,1,NA,NA,NA,NA,NA
SUPAMT72748,3ZGVPD4G6ZGC11X0KTXGG9X79HTZTQ,7EC556B7-D2BF-4B51-A2F4-F0827394F3FC,2023-09-28_22h03.11.103,WP_VExplicitOC_HL,2022.2.5,Win32,16.13475749,-61.45833333,3.667,2.0148,NA,NA,NA,NA,NA,frustrated,"frustrated, not frustrated","more frustrated, less frustrated",NA,NA,NA,NA,NA,NA,NA,NA,NA,NA,NA,NA,NA,NA,NA,NA,NA,NA,NA,NA,NA,NA,NA,NA,NA,NA,NA,NA,NA,NA,NA,NA,NA,NA,NA,NA,NA,NA,0,2,2,1,1,NA,NA,NA,NA,NA
SUPAMT72748,3ZGVPD4G6ZGC11X0KTXGG9X79HTZTQ,7EC556B7-D2BF-4B51-A2F4-F0827394F3FC,2023-09-28_22h03.11.103,WP_VExplicitOC_HL,2022.2.5,Win32,16.13475749,NA,NA,NA,NA,NA,NA,NA,NA,NA,NA,NA,NA,NA,NA,NA,NA,NA,NA,NA,NA,NA,NA,NA,NA,NA,NA,NA,NA,NA,NA,NA,NA,NA,NA,NA,NA,NA,NA,NA,NA,NA,NA,NA,NA,NA,NA,NA,NA,NA,NA,NA,NA,NA,NA,6,0,6,0,1
SUPAMT72748,3ZGVPD4G6ZGC11X0KTXGG9X79HTZTQ,7EC556B7-D2BF-4B51-A2F4-F0827394F3FC,2023-09-28_22h03.11.103,WP_VExplicitOC_HL,2022.2.5,Win32,16.13475749,-100,4.3728,2.0139,NA,NA,NA,NA,NA,bored,"bored, not bored","more bored, less bored",NA,NA,NA,NA,NA,NA,NA,NA,NA,NA,NA,NA,NA,NA,NA,NA,NA,NA,NA,NA,NA,NA,NA,NA,NA,NA,NA,NA,NA,NA,NA,NA,NA,NA,NA,NA,NA,NA,0,0,0,2,1,NA,NA,NA,NA,NA
SUPAMT72748,3ZGVPD4G6ZGC11X0KTXGG9X79HTZTQ,7EC556B7-D2BF-4B51-A2F4-F0827394F3FC,2023-09-28_22h03.11.103,WP_VExplicitOC_HL,2022.2.5,Win32,16.13475749,-100,4.6653,2.061,NA,NA,NA,NA,NA,happy,"unhappy, happy","less happy, more happy",NA,NA,NA,NA,NA,NA,NA,NA,NA,NA,NA,NA,NA,NA,NA,NA,NA,NA,NA,NA,NA,NA,NA,NA,NA,NA,NA,NA,NA,NA,NA,NA,NA,NA,NA,NA,NA,NA,0,1,1,0,1,NA,NA,NA,NA,NA
SUPAMT72748,3ZGVPD4G6ZGC11X0KTXGG9X79HTZTQ,7EC556B7-D2BF-4B51-A2F4-F0827394F3FC,2023-09-28_22h03.11.103,WP_VExplicitOC_HL,2022.2.5,Win32,16.13475749,-100,6.6241,2.0669,NA,NA,NA,NA,NA,frustrated,"frustrated, not frustrated","more frustrated, less frustrated",NA,NA,NA,NA,NA,NA,NA,NA,NA,NA,NA,NA,NA,NA,NA,NA,NA,NA,NA,NA,NA,NA,NA,NA,NA,NA,NA,NA,NA,NA,NA,NA,NA,NA,NA,NA,NA,NA,0,2,2,1,1,NA,NA,NA,NA,NA
SUPAMT72748,3ZGVPD4G6ZGC11X0KTXGG9X79HTZTQ,7EC556B7-D2BF-4B51-A2F4-F0827394F3FC,2023-09-28_22h03.11.103,WP_VExplicitOC_HL,2022.2.5,Win32,16.13475749,NA,NA,NA,NA,NA,NA,NA,NA,NA,NA,NA,NA,NA,NA,NA,NA,NA,NA,NA,NA,NA,NA,NA,NA,NA,NA,NA,NA,NA,NA,NA,NA,NA,NA,NA,NA,NA,NA,NA,NA,NA,NA,NA,NA,NA,NA,NA,NA,NA,NA,NA,NA,NA,NA,7,0,7,0,1
SUPAMT72748,3ZGVPD4G6ZGC11X0KTXGG9X79HTZTQ,7EC556B7-D2BF-4B51-A2F4-F0827394F3FC,2023-09-28_22h03.11.103,WP_VExplicitOC_HL,2022.2.5,Win32,16.13475749,-100,3.9287,2.0264,NA,NA,NA,NA,NA,bored,"bored, not bored","more bored, less bored",NA,NA,NA,NA,NA,NA,NA,NA,NA,NA,NA,NA,NA,NA,NA,NA,NA,NA,NA,NA,NA,NA,NA,NA,NA,NA,NA,NA,NA,NA,NA,NA,NA,NA,NA,NA,NA,NA,0,0,0,2,1,NA,NA,NA,NA,NA
SUPAMT72748,3ZGVPD4G6ZGC11X0KTXGG9X79HTZTQ,7EC556B7-D2BF-4B51-A2F4-F0827394F3FC,2023-09-28_22h03.11.103,WP_VExplicitOC_HL,2022.2.5,Win32,16.13475749,-100,4.4053,2.0116,NA,NA,NA,NA,NA,happy,"unhappy, happy","less happy, more happy",NA,NA,NA,NA,NA,NA,NA,NA,NA,NA,NA,NA,NA,NA,NA,NA,NA,NA,NA,NA,NA,NA,NA,NA,NA,NA,NA,NA,NA,NA,NA,NA,NA,NA,NA,NA,NA,NA,0,1,1,0,1,NA,NA,NA,NA,NA
SUPAMT72748,3ZGVPD4G6ZGC11X0KTXGG9X79HTZTQ,7EC556B7-D2BF-4B51-A2F4-F0827394F3FC,2023-09-28_22h03.11.103,WP_VExplicitOC_HL,2022.2.5,Win32,16.13475749,-100,3.8244,2.0211,NA,NA,NA,NA,NA,frustrated,"frustrated, not frustrated","more frustrated, less frustrated",NA,NA,NA,NA,NA,NA,NA,NA,NA,NA,NA,NA,NA,NA,NA,NA,NA,NA,NA,NA,NA,NA,NA,NA,NA,NA,NA,NA,NA,NA,NA,NA,NA,NA,NA,NA,NA,NA,0,2,2,1,1,NA,NA,NA,NA,NA
SUPAMT72748,3ZGVPD4G6ZGC11X0KTXGG9X79HTZTQ,7EC556B7-D2BF-4B51-A2F4-F0827394F3FC,2023-09-28_22h03.11.103,WP_VExplicitOC_HL,2022.2.5,Win32,16.13475749,NA,NA,NA,NA,NA,NA,NA,NA,NA,NA,NA,NA,NA,NA,NA,NA,NA,NA,NA,NA,NA,NA,NA,NA,NA,NA,NA,NA,NA,NA,NA,NA,NA,NA,NA,NA,NA,NA,NA,NA,NA,NA,NA,NA,NA,NA,NA,NA,NA,NA,NA,NA,NA,NA,8,0,8,0,1
SUPAMT72748,3ZGVPD4G6ZGC11X0KTXGG9X79HTZTQ,7EC556B7-D2BF-4B51-A2F4-F0827394F3FC,2023-09-28_22h03.11.103,WP_VExplicitOC_HL,2022.2.5,Win32,16.13475749,-100,5.0152,2.0129,NA,NA,NA,NA,NA,happy,"unhappy, happy","less happy, more happy",NA,NA,NA,NA,NA,NA,NA,NA,NA,NA,NA,NA,NA,NA,NA,NA,NA,NA,NA,NA,NA,NA,NA,NA,NA,NA,NA,NA,NA,NA,NA,NA,NA,NA,NA,NA,NA,NA,0,0,0,0,1,NA,NA,NA,NA,NA
SUPAMT72748,3ZGVPD4G6ZGC11X0KTXGG9X79HTZTQ,7EC556B7-D2BF-4B51-A2F4-F0827394F3FC,2023-09-28_22h03.11.103,WP_VExplicitOC_HL,2022.2.5,Win32,16.13475749,-100,3.6953,2.0378,NA,NA,NA,NA,NA,bored,"bored, not bored","more bored, less bored",NA,NA,NA,NA,NA,NA,NA,NA,NA,NA,NA,NA,NA,NA,NA,NA,NA,NA,NA,NA,NA,NA,NA,NA,NA,NA,NA,NA,NA,NA,NA,NA,NA,NA,NA,NA,NA,NA,0,1,1,2,1,NA,NA,NA,NA,NA
SUPAMT72748,3ZGVPD4G6ZGC11X0KTXGG9X79HTZTQ,7EC556B7-D2BF-4B51-A2F4-F0827394F3FC,2023-09-28_22h03.11.103,WP_VExplicitOC_HL,2022.2.5,Win32,16.13475749,-100,4.0285,2.0041,NA,NA,NA,NA,NA,frustrated,"frustrated, not frustrated","more frustrated, less frustrated",NA,NA,NA,NA,NA,NA,NA,NA,NA,NA,NA,NA,NA,NA,NA,NA,NA,NA,NA,NA,NA,NA,NA,NA,NA,NA,NA,NA,NA,NA,NA,NA,NA,NA,NA,NA,NA,NA,0,2,2,1,1,NA,NA,NA,NA,NA
SUPAMT72748,3ZGVPD4G6ZGC11X0KTXGG9X79HTZTQ,7EC556B7-D2BF-4B51-A2F4-F0827394F3FC,2023-09-28_22h03.11.103,WP_VExplicitOC_HL,2022.2.5,Win32,16.13475749,NA,NA,NA,NA,NA,NA,NA,NA,NA,NA,NA,NA,NA,NA,NA,NA,NA,NA,NA,NA,NA,NA,NA,NA,NA,NA,NA,NA,NA,NA,NA,NA,NA,NA,NA,NA,NA,NA,NA,NA,NA,NA,NA,NA,NA,NA,NA,NA,NA,NA,NA,NA,NA,NA,9,0,9,0,1
SUPAMT72748,3ZGVPD4G6ZGC11X0KTXGG9X79HTZTQ,7EC556B7-D2BF-4B51-A2F4-F0827394F3FC,2023-09-28_22h03.11.103,WP_VExplicitOC_HL,2022.2.5,Win32,16.13475749,-100,5.8976,2.0605,NA,NA,NA,NA,NA,happy,"unhappy, happy","less happy, more happy",NA,NA,NA,NA,NA,NA,NA,NA,NA,NA,NA,NA,NA,NA,NA,NA,NA,NA,NA,NA,NA,NA,NA,NA,NA,NA,NA,NA,NA,NA,NA,NA,NA,NA,NA,NA,NA,NA,0,0,0,0,1,NA,NA,NA,NA,NA
SUPAMT72748,3ZGVPD4G6ZGC11X0KTXGG9X79HTZTQ,7EC556B7-D2BF-4B51-A2F4-F0827394F3FC,2023-09-28_22h03.11.103,WP_VExplicitOC_HL,2022.2.5,Win32,16.13475749,NA,NA,2.0628,NA,NA,NA,NA,NA,frustrated,"frustrated, not frustrated","more frustrated, less frustrated",NA,NA,NA,NA,NA,NA,NA,NA,NA,NA,NA,NA,NA,NA,NA,NA,NA,NA,NA,NA,NA,NA,NA,NA,NA,NA,NA,NA,NA,NA,NA,NA,NA,NA,NA,NA,NA,NA,0,1,1,1,1,NA,NA,NA,NA,NA
SUPAMT72748,3ZGVPD4G6ZGC11X0KTXGG9X79HTZTQ,7EC556B7-D2BF-4B51-A2F4-F0827394F3FC,2023-09-28_22h03.11.103,WP_VExplicitOC_HL,2022.2.5,Win32,16.13475749,-100,5.4598,2.0277,NA,NA,NA,NA,NA,bored,"bored, not bored","more bored, less bored",NA,NA,NA,NA,NA,NA,NA,NA,NA,NA,NA,NA,NA,NA,NA,NA,NA,NA,NA,NA,NA,NA,NA,NA,NA,NA,NA,NA,NA,NA,NA,NA,NA,NA,NA,NA,NA,NA,0,2,2,2,1,NA,NA,NA,NA,NA
SUPAMT72748,3ZGVPD4G6ZGC11X0KTXGG9X79HTZTQ,7EC556B7-D2BF-4B51-A2F4-F0827394F3FC,2023-09-28_22h03.11.103,WP_VExplicitOC_HL,2022.2.5,Win32,16.13475749,NA,NA,NA,NA,NA,NA,NA,NA,NA,NA,NA,NA,NA,NA,NA,NA,NA,NA,NA,NA,NA,NA,NA,NA,NA,NA,NA,NA,NA,NA,NA,NA,NA,NA,NA,NA,NA,NA,NA,NA,NA,NA,NA,NA,NA,NA,NA,NA,NA,NA,NA,NA,NA,NA,10,0,10,0,1
SUPAMT72748,3ZGVPD4G6ZGC11X0KTXGG9X79HTZTQ,7EC556B7-D2BF-4B51-A2F4-F0827394F3FC,2023-09-28_22h03.11.103,WP_VExplicitOC_HL,2022.2.5,Win32,16.13475749,-100,5.0476,2.0097,NA,NA,NA,NA,NA,happy,"unhappy, happy","less happy, more happy",NA,NA,NA,NA,NA,NA,NA,NA,NA,NA,NA,NA,NA,NA,NA,NA,NA,NA,NA,NA,NA,NA,NA,NA,NA,NA,NA,NA,NA,NA,NA,NA,NA,NA,NA,NA,NA,NA,0,0,0,0,1,NA,NA,NA,NA,NA
SUPAMT72748,3ZGVPD4G6ZGC11X0KTXGG9X79HTZTQ,7EC556B7-D2BF-4B51-A2F4-F0827394F3FC,2023-09-28_22h03.11.103,WP_VExplicitOC_HL,2022.2.5,Win32,16.13475749,NA,NA,2.0612,NA,NA,NA,NA,NA,frustrated,"frustrated, not frustrated","more frustrated, less frustrated",NA,NA,NA,NA,NA,NA,NA,NA,NA,NA,NA,NA,NA,NA,NA,NA,NA,NA,NA,NA,NA,NA,NA,NA,NA,NA,NA,NA,NA,NA,NA,NA,NA,NA,NA,NA,NA,NA,0,1,1,1,1,NA,NA,NA,NA,NA
SUPAMT72748,3ZGVPD4G6ZGC11X0KTXGG9X79HTZTQ,7EC556B7-D2BF-4B51-A2F4-F0827394F3FC,2023-09-28_22h03.11.103,WP_VExplicitOC_HL,2022.2.5,Win32,16.13475749,NA,NA,2.0301,NA,NA,NA,NA,NA,bored,"bored, not bored","more bored, less bored",NA,NA,NA,NA,NA,NA,NA,NA,NA,NA,NA,NA,NA,NA,NA,NA,NA,NA,NA,NA,NA,NA,NA,NA,NA,NA,NA,NA,NA,NA,NA,NA,NA,NA,NA,NA,NA,NA,0,2,2,2,1,NA,NA,NA,NA,NA
SUPAMT72748,3ZGVPD4G6ZGC11X0KTXGG9X79HTZTQ,7EC556B7-D2BF-4B51-A2F4-F0827394F3FC,2023-09-28_22h03.11.103,WP_VExplicitOC_HL,2022.2.5,Win32,16.13475749,NA,NA,NA,NA,NA,NA,NA,NA,NA,NA,NA,NA,NA,NA,NA,NA,NA,NA,NA,NA,NA,NA,NA,NA,NA,NA,NA,NA,NA,NA,NA,NA,NA,NA,NA,NA,NA,NA,NA,NA,NA,NA,NA,NA,NA,NA,NA,NA,NA,NA,NA,NA,NA,NA,11,0,11,0,1
SUPAMT72748,3ZGVPD4G6ZGC11X0KTXGG9X79HTZTQ,7EC556B7-D2BF-4B51-A2F4-F0827394F3FC,2023-09-28_22h03.11.103,WP_VExplicitOC_HL,2022.2.5,Win32,16.13475749,-100,4.8009,2.0223,NA,NA,NA,NA,NA,frustrated,"frustrated, not frustrated","more frustrated, less frustrated",NA,NA,NA,NA,NA,NA,NA,NA,NA,NA,NA,NA,NA,NA,NA,NA,NA,NA,NA,NA,NA,NA,NA,NA,NA,NA,NA,NA,NA,NA,NA,NA,NA,NA,NA,NA,NA,NA,0,0,0,1,1,NA,NA,NA,NA,NA
SUPAMT72748,3ZGVPD4G6ZGC11X0KTXGG9X79HTZTQ,7EC556B7-D2BF-4B51-A2F4-F0827394F3FC,2023-09-28_22h03.11.103,WP_VExplicitOC_HL,2022.2.5,Win32,16.13475749,NA,NA,2.0303,NA,NA,NA,NA,NA,bored,"bored, not bored","more bored, less bored",NA,NA,NA,NA,NA,NA,NA,NA,NA,NA,NA,NA,NA,NA,NA,NA,NA,NA,NA,NA,NA,NA,NA,NA,NA,NA,NA,NA,NA,NA,NA,NA,NA,NA,NA,NA,NA,NA,0,1,1,2,1,NA,NA,NA,NA,NA
SUPAMT72748,3ZGVPD4G6ZGC11X0KTXGG9X79HTZTQ,7EC556B7-D2BF-4B51-A2F4-F0827394F3FC,2023-09-28_22h03.11.103,WP_VExplicitOC_HL,2022.2.5,Win32,16.13475749,NA,NA,2.0627,NA,NA,NA,NA,NA,happy,"unhappy, happy","less happy, more happy",NA,NA,NA,NA,NA,NA,NA,NA,NA,NA,NA,NA,NA,NA,NA,NA,NA,NA,NA,NA,NA,NA,NA,NA,NA,NA,NA,NA,NA,NA,NA,NA,NA,NA,NA,NA,NA,NA,0,2,2,0,1,NA,NA,NA,NA,NA
SUPAMT72748,3ZGVPD4G6ZGC11X0KTXGG9X79HTZTQ,7EC556B7-D2BF-4B51-A2F4-F0827394F3FC,2023-09-28_22h03.11.103,WP_VExplicitOC_HL,2022.2.5,Win32,16.13475749,NA,NA,NA,NA,NA,NA,NA,NA,NA,NA,NA,NA,NA,NA,NA,NA,NA,NA,NA,NA,NA,NA,NA,NA,NA,NA,NA,NA,NA,NA,NA,NA,NA,NA,NA,NA,NA,NA,NA,NA,NA,NA,NA,NA,NA,NA,NA,NA,NA,NA,NA,NA,NA,NA,12,0,12,0,1
SUPAMT72748,3ZGVPD4G6ZGC11X0KTXGG9X79HTZTQ,7EC556B7-D2BF-4B51-A2F4-F0827394F3FC,2023-09-28_22h03.11.103,WP_VExplicitOC_HL,2022.2.5,Win32,16.13475749,100,4.2035,2.0321,NA,NA,NA,NA,NA,frustrated,"frustrated, not frustrated","more frustrated, less frustrated",NA,NA,NA,NA,NA,NA,NA,NA,NA,NA,NA,NA,NA,NA,NA,NA,NA,NA,NA,NA,NA,NA,NA,NA,NA,NA,NA,NA,NA,NA,NA,NA,NA,NA,NA,NA,NA,NA,0,0,0,1,1,NA,NA,NA,NA,NA
SUPAMT72748,3ZGVPD4G6ZGC11X0KTXGG9X79HTZTQ,7EC556B7-D2BF-4B51-A2F4-F0827394F3FC,2023-09-28_22h03.11.103,WP_VExplicitOC_HL,2022.2.5,Win32,16.13475749,-100,4.9306,2.051,NA,NA,NA,NA,NA,happy,"unhappy, happy","less happy, more happy",NA,NA,NA,NA,NA,NA,NA,NA,NA,NA,NA,NA,NA,NA,NA,NA,NA,NA,NA,NA,NA,NA,NA,NA,NA,NA,NA,NA,NA,NA,NA,NA,NA,NA,NA,NA,NA,NA,0,1,1,0,1,NA,NA,NA,NA,NA
SUPAMT72748,3ZGVPD4G6ZGC11X0KTXGG9X79HTZTQ,7EC556B7-D2BF-4B51-A2F4-F0827394F3FC,2023-09-28_22h03.11.103,WP_VExplicitOC_HL,2022.2.5,Win32,16.13475749,-100,4.7119,2.0559,NA,NA,NA,NA,NA,bored,"bored, not bored","more bored, less bored",NA,NA,NA,NA,NA,NA,NA,NA,NA,NA,NA,NA,NA,NA,NA,NA,NA,NA,NA,NA,NA,NA,NA,NA,NA,NA,NA,NA,NA,NA,NA,NA,NA,NA,NA,NA,NA,NA,0,2,2,2,1,NA,NA,NA,NA,NA
SUPAMT72748,3ZGVPD4G6ZGC11X0KTXGG9X79HTZTQ,7EC556B7-D2BF-4B51-A2F4-F0827394F3FC,2023-09-28_22h03.11.103,WP_VExplicitOC_HL,2022.2.5,Win32,16.13475749,NA,NA,NA,NA,NA,NA,NA,NA,NA,NA,NA,NA,NA,NA,NA,NA,NA,NA,NA,NA,NA,NA,NA,NA,NA,NA,NA,NA,NA,NA,NA,NA,NA,NA,NA,NA,NA,NA,NA,NA,NA,NA,NA,NA,NA,NA,NA,NA,NA,NA,NA,NA,NA,NA,13,0,13,0,1
SUPAMT72748,3ZGVPD4G6ZGC11X0KTXGG9X79HTZTQ,7EC556B7-D2BF-4B51-A2F4-F0827394F3FC,2023-09-28_22h03.11.103,WP_VExplicitOC_HL,2022.2.5,Win32,16.13475749,100,3.9844,2.0217,NA,NA,NA,NA,NA,frustrated,"frustrated, not frustrated","more frustrated, less frustrated",NA,NA,NA,NA,NA,NA,NA,NA,NA,NA,NA,NA,NA,NA,NA,NA,NA,NA,NA,NA,NA,NA,NA,NA,NA,NA,NA,NA,NA,NA,NA,NA,NA,NA,NA,NA,NA,NA,0,0,0,1,1,NA,NA,NA,NA,NA
SUPAMT72748,3ZGVPD4G6ZGC11X0KTXGG9X79HTZTQ,7EC556B7-D2BF-4B51-A2F4-F0827394F3FC,2023-09-28_22h03.11.103,WP_VExplicitOC_HL,2022.2.5,Win32,16.13475749,-100,4.0987,2.0008,NA,NA,NA,NA,NA,bored,"bored, not bored","more bored, less bored",NA,NA,NA,NA,NA,NA,NA,NA,NA,NA,NA,NA,NA,NA,NA,NA,NA,NA,NA,NA,NA,NA,NA,NA,NA,NA,NA,NA,NA,NA,NA,NA,NA,NA,NA,NA,NA,NA,0,1,1,2,1,NA,NA,NA,NA,NA
SUPAMT72748,3ZGVPD4G6ZGC11X0KTXGG9X79HTZTQ,7EC556B7-D2BF-4B51-A2F4-F0827394F3FC,2023-09-28_22h03.11.103,WP_VExplicitOC_HL,2022.2.5,Win32,16.13475749,-100,3.478,2.0749,NA,NA,NA,NA,NA,happy,"unhappy, happy","less happy, more happy",NA,NA,NA,NA,NA,NA,NA,NA,NA,NA,NA,NA,NA,NA,NA,NA,NA,NA,NA,NA,NA,NA,NA,NA,NA,NA,NA,NA,NA,NA,NA,NA,NA,NA,NA,NA,NA,NA,0,2,2,0,1,NA,NA,NA,NA,NA
SUPAMT72748,3ZGVPD4G6ZGC11X0KTXGG9X79HTZTQ,7EC556B7-D2BF-4B51-A2F4-F0827394F3FC,2023-09-28_22h03.11.103,WP_VExplicitOC_HL,2022.2.5,Win32,16.13475749,NA,NA,NA,NA,NA,NA,NA,NA,NA,NA,NA,NA,NA,NA,NA,NA,NA,NA,NA,NA,NA,NA,NA,NA,NA,NA,NA,NA,NA,NA,NA,NA,NA,NA,NA,NA,NA,NA,NA,NA,NA,NA,NA,NA,NA,NA,NA,NA,NA,NA,NA,NA,NA,NA,14,0,14,0,1
SUPAMT72748,3ZGVPD4G6ZGC11X0KTXGG9X79HTZTQ,7EC556B7-D2BF-4B51-A2F4-F0827394F3FC,2023-09-28_22h03.11.103,WP_VExplicitOC_HL,2022.2.5,Win32,16.13475749,NA,NA,NA,NA,NA,NA,NA,NA,NA,NA,NA,NA,NA,NA,NA,NA,NA,NA,NA,NA,NA,NA,NA,NA,NA,NA,NA,NA,NA,NA,NA,NA,NA,NA,NA,NA,NA,NA,NA,NA,NA,NA,NA,NA,NA,NA,NA,NA,NA,NA,NA,NA,NA,NA,NA,NA,NA,NA,NA
