participant,session,completion,date,expName,psychopyVersion,OS,frameRate,rating_all.response,rating_all.rt,rating_all.tStart,rndRat1.thisRepN,rndRat1.thisTrialN,rndRat1.thisN,rndRat1.thisIndex,rndRat1.ran,Emo,Labs,Labs2,rating_alt.response,rating_alt.rt,AltC.thisRepN,AltC.thisTrialN,AltC.thisN,AltC.thisIndex,AltC.ran,alt_choices,pic_choices,BottomAlt_Choice,rndRat2.thisRepN,rndRat2.thisTrialN,rndRat2.thisN,rndRat2.thisIndex,rndRat2.ran,rndRat3.thisRepN,rndRat3.thisTrialN,rndRat3.thisN,rndRat3.thisIndex,rndRat3.ran,trials_FC_L.thisRepN,trials_FC_L.thisTrialN,trials_FC_L.thisN,trials_FC_L.thisIndex,trials_FC_L.ran,rating_alt_2.response,rating_alt_2.rt,AltC2.thisRepN,AltC2.thisTrialN,AltC2.thisN,AltC2.thisIndex,AltC2.ran,TopAlt_Choice,rndRat4.thisRepN,rndRat4.thisTrialN,rndRat4.thisN,rndRat4.thisIndex,rndRat4.ran,rndRat5.thisRepN,rndRat5.thisTrialN,rndRat5.thisN,rndRat5.thisIndex,rndRat5.ran,trials_FC_H.thisRepN,trials_FC_H.thisTrialN,trials_FC_H.thisN,trials_FC_H.thisIndex,trials_FC_H.ran
SUPAMT83327,3ITXP059P2ILMMFHD7P4IADVO8DSJ0,64C14C13-2D70-4BC8-9B6C-530554E12423,2023-09-29_21h24.24.844,WP_VExplicitOC_LH,2022.2.5,Win32,20.98327633,NA,NA,NA,NA,NA,NA,NA,NA,NA,NA,NA,NA,NA,NA,NA,NA,NA,NA,NA,NA,NA,NA,NA,NA,NA,NA,NA,NA,NA,NA,NA,NA,NA,NA,NA,NA,NA,NA,NA,NA,NA,NA,NA,NA,NA,NA,NA,NA,NA,NA,NA,NA,NA,NA,NA,NA,NA,NA,NA
SUPAMT83327,3ITXP059P2ILMMFHD7P4IADVO8DSJ0,64C14C13-2D70-4BC8-9B6C-530554E12423,2023-09-29_21h24.24.844,WP_VExplicitOC_LH,2022.2.5,Win32,20.98327633,NA,NA,NA,NA,NA,NA,NA,NA,NA,NA,NA,NA,NA,NA,NA,NA,NA,NA,NA,NA,NA,NA,NA,NA,NA,NA,NA,NA,NA,NA,NA,NA,NA,NA,NA,NA,NA,NA,NA,NA,NA,NA,NA,NA,NA,NA,NA,NA,NA,NA,NA,NA,NA,NA,NA,NA,NA,NA,NA
SUPAMT83327,3ITXP059P2ILMMFHD7P4IADVO8DSJ0,64C14C13-2D70-4BC8-9B6C-530554E12423,2023-09-29_21h24.24.844,WP_VExplicitOC_LH,2022.2.5,Win32,20.98327633,NA,NA,NA,NA,NA,NA,NA,NA,NA,NA,NA,NA,NA,NA,NA,NA,NA,NA,NA,NA,NA,NA,NA,NA,NA,NA,NA,NA,NA,NA,NA,NA,NA,NA,NA,NA,NA,NA,NA,NA,NA,NA,NA,NA,NA,NA,NA,NA,NA,NA,NA,NA,NA,NA,NA,NA,NA,NA,NA
SUPAMT83327,3ITXP059P2ILMMFHD7P4IADVO8DSJ0,64C14C13-2D70-4BC8-9B6C-530554E12423,2023-09-29_21h24.24.844,WP_VExplicitOC_LH,2022.2.5,Win32,20.98327633,75.78125,4.8346,2.0351,0,0,0,0,1,happy,"unhappy, happy","less happy, more happy",NA,NA,NA,NA,NA,NA,NA,NA,NA,NA,NA,NA,NA,NA,NA,NA,NA,NA,NA,NA,NA,NA,NA,NA,NA,NA,NA,NA,NA,NA,NA,NA,NA,NA,NA,NA,NA,NA,NA,NA,NA,NA,NA,NA,NA,NA,NA,NA
SUPAMT83327,3ITXP059P2ILMMFHD7P4IADVO8DSJ0,64C14C13-2D70-4BC8-9B6C-530554E12423,2023-09-29_21h24.24.844,WP_VExplicitOC_LH,2022.2.5,Win32,20.98327633,80.72916667,3.3313,2.0383,0,1,1,1,1,frustrated,"frustrated, not frustrated","more frustrated, less frustrated",NA,NA,NA,NA,NA,NA,NA,NA,NA,NA,NA,NA,NA,NA,NA,NA,NA,NA,NA,NA,NA,NA,NA,NA,NA,NA,NA,NA,NA,NA,NA,NA,NA,NA,NA,NA,NA,NA,NA,NA,NA,NA,NA,NA,NA,NA,NA,NA
SUPAMT83327,3ITXP059P2ILMMFHD7P4IADVO8DSJ0,64C14C13-2D70-4BC8-9B6C-530554E12423,2023-09-29_21h24.24.844,WP_VExplicitOC_LH,2022.2.5,Win32,20.98327633,-56.51041667,3.7412,2.047,0,2,2,2,1,bored,"bored, not bored","more bored, less bored",NA,NA,NA,NA,NA,NA,NA,NA,NA,NA,NA,NA,NA,NA,NA,NA,NA,NA,NA,NA,NA,NA,NA,NA,NA,NA,NA,NA,NA,NA,NA,NA,NA,NA,NA,NA,NA,NA,NA,NA,NA,NA,NA,NA,NA,NA,NA,NA
SUPAMT83327,3ITXP059P2ILMMFHD7P4IADVO8DSJ0,64C14C13-2D70-4BC8-9B6C-530554E12423,2023-09-29_21h24.24.844,WP_VExplicitOC_LH,2022.2.5,Win32,20.98327633,NA,NA,NA,NA,NA,NA,NA,NA,NA,NA,NA,NA,NA,NA,NA,NA,NA,NA,NA,NA,NA,NA,NA,NA,NA,NA,NA,NA,NA,NA,NA,NA,NA,NA,NA,NA,NA,NA,NA,NA,NA,NA,NA,NA,NA,NA,NA,NA,NA,NA,NA,NA,NA,NA,NA,NA,NA,NA,NA
SUPAMT83327,3ITXP059P2ILMMFHD7P4IADVO8DSJ0,64C14C13-2D70-4BC8-9B6C-530554E12423,2023-09-29_21h24.24.844,WP_VExplicitOC_LH,2022.2.5,Win32,20.98327633,NA,NA,NA,NA,NA,NA,NA,NA,NA,NA,NA,NA,NA,NA,NA,NA,NA,NA,NA,NA,NA,NA,NA,NA,NA,NA,NA,NA,NA,NA,NA,NA,NA,NA,NA,NA,NA,NA,NA,NA,NA,NA,NA,NA,NA,NA,NA,NA,NA,NA,NA,NA,NA,NA,NA,NA,NA,NA,NA
SUPAMT83327,3ITXP059P2ILMMFHD7P4IADVO8DSJ0,64C14C13-2D70-4BC8-9B6C-530554E12423,2023-09-29_21h24.24.844,WP_VExplicitOC_LH,2022.2.5,Win32,20.98327633,NA,NA,NA,NA,NA,NA,NA,NA,NA,NA,NA,NA,NA,NA,NA,NA,NA,NA,NA,NA,NA,NA,NA,NA,NA,NA,NA,NA,NA,NA,NA,NA,NA,NA,NA,NA,NA,NA,NA,NA,NA,NA,NA,NA,NA,NA,NA,NA,NA,NA,NA,NA,NA,NA,NA,NA,NA,NA,NA
SUPAMT83327,3ITXP059P2ILMMFHD7P4IADVO8DSJ0,64C14C13-2D70-4BC8-9B6C-530554E12423,2023-09-29_21h24.24.844,WP_VExplicitOC_LH,2022.2.5,Win32,20.98327633,NA,NA,NA,NA,NA,NA,NA,NA,NA,NA,NA,NA,NA,NA,NA,NA,NA,NA,NA,NA,NA,NA,NA,NA,NA,NA,NA,NA,NA,NA,NA,NA,NA,NA,NA,NA,NA,NA,NA,NA,NA,NA,NA,NA,NA,NA,NA,NA,NA,NA,NA,NA,NA,NA,NA,NA,NA,NA,NA
SUPAMT83327,3ITXP059P2ILMMFHD7P4IADVO8DSJ0,64C14C13-2D70-4BC8-9B6C-530554E12423,2023-09-29_21h24.24.844,WP_VExplicitOC_LH,2022.2.5,Win32,20.98327633,NA,NA,NA,NA,NA,NA,NA,NA,NA,NA,NA,67.96875,1.8801,0,0,0,0,1,rest (looking at a fixed cross),001.png,NA,NA,NA,NA,NA,NA,NA,NA,NA,NA,NA,NA,NA,NA,NA,NA,NA,NA,NA,NA,NA,NA,NA,NA,NA,NA,NA,NA,NA,NA,NA,NA,NA,NA,NA,NA,NA,NA,NA
SUPAMT83327,3ITXP059P2ILMMFHD7P4IADVO8DSJ0,64C14C13-2D70-4BC8-9B6C-530554E12423,2023-09-29_21h24.24.844,WP_VExplicitOC_LH,2022.2.5,Win32,20.98327633,NA,NA,NA,NA,NA,NA,NA,NA,NA,NA,NA,93.75,0.4431,0,1,1,1,1,stand up,002.png,NA,NA,NA,NA,NA,NA,NA,NA,NA,NA,NA,NA,NA,NA,NA,NA,NA,NA,NA,NA,NA,NA,NA,NA,NA,NA,NA,NA,NA,NA,NA,NA,NA,NA,NA,NA,NA,NA,NA
SUPAMT83327,3ITXP059P2ILMMFHD7P4IADVO8DSJ0,64C14C13-2D70-4BC8-9B6C-530554E12423,2023-09-29_21h24.24.844,WP_VExplicitOC_LH,2022.2.5,Win32,20.98327633,NA,NA,NA,NA,NA,NA,NA,NA,NA,NA,NA,66.92708333,2.7706,0,2,2,2,1,stretch,003.png,NA,NA,NA,NA,NA,NA,NA,NA,NA,NA,NA,NA,NA,NA,NA,NA,NA,NA,NA,NA,NA,NA,NA,NA,NA,NA,NA,NA,NA,NA,NA,NA,NA,NA,NA,NA,NA,NA,NA
SUPAMT83327,3ITXP059P2ILMMFHD7P4IADVO8DSJ0,64C14C13-2D70-4BC8-9B6C-530554E12423,2023-09-29_21h24.24.844,WP_VExplicitOC_LH,2022.2.5,Win32,20.98327633,NA,NA,NA,NA,NA,NA,NA,NA,NA,NA,NA,70.57291667,1.7726,0,3,3,3,1,make a drink,004.png,NA,NA,NA,NA,NA,NA,NA,NA,NA,NA,NA,NA,NA,NA,NA,NA,NA,NA,NA,NA,NA,NA,NA,NA,NA,NA,NA,NA,NA,NA,NA,NA,NA,NA,NA,NA,NA,NA,NA
SUPAMT83327,3ITXP059P2ILMMFHD7P4IADVO8DSJ0,64C14C13-2D70-4BC8-9B6C-530554E12423,2023-09-29_21h24.24.844,WP_VExplicitOC_LH,2022.2.5,Win32,20.98327633,NA,NA,NA,NA,NA,NA,NA,NA,NA,NA,NA,54.6875,1.6753,0,4,4,4,1,scroll social media,005.png,NA,NA,NA,NA,NA,NA,NA,NA,NA,NA,NA,NA,NA,NA,NA,NA,NA,NA,NA,NA,NA,NA,NA,NA,NA,NA,NA,NA,NA,NA,NA,NA,NA,NA,NA,NA,NA,NA,NA
SUPAMT83327,3ITXP059P2ILMMFHD7P4IADVO8DSJ0,64C14C13-2D70-4BC8-9B6C-530554E12423,2023-09-29_21h24.24.844,WP_VExplicitOC_LH,2022.2.5,Win32,20.98327633,NA,NA,NA,NA,NA,NA,NA,NA,NA,NA,NA,98.95833333,2.4031,0,5,5,5,1,listen to music,006.png,NA,NA,NA,NA,NA,NA,NA,NA,NA,NA,NA,NA,NA,NA,NA,NA,NA,NA,NA,NA,NA,NA,NA,NA,NA,NA,NA,NA,NA,NA,NA,NA,NA,NA,NA,NA,NA,NA,NA
SUPAMT83327,3ITXP059P2ILMMFHD7P4IADVO8DSJ0,64C14C13-2D70-4BC8-9B6C-530554E12423,2023-09-29_21h24.24.844,WP_VExplicitOC_LH,2022.2.5,Win32,20.98327633,NA,NA,NA,NA,NA,NA,NA,NA,NA,NA,NA,86.19791667,2.4355,0,6,6,6,1,daydream,007.png,NA,NA,NA,NA,NA,NA,NA,NA,NA,NA,NA,NA,NA,NA,NA,NA,NA,NA,NA,NA,NA,NA,NA,NA,NA,NA,NA,NA,NA,NA,NA,NA,NA,NA,NA,NA,NA,NA,NA
SUPAMT83327,3ITXP059P2ILMMFHD7P4IADVO8DSJ0,64C14C13-2D70-4BC8-9B6C-530554E12423,2023-09-29_21h24.24.844,WP_VExplicitOC_LH,2022.2.5,Win32,20.98327633,NA,NA,NA,NA,NA,NA,NA,NA,NA,NA,NA,83.33333333,2.0308,0,7,7,7,1,watch a short animation,008.png,NA,NA,NA,NA,NA,NA,NA,NA,NA,NA,NA,NA,NA,NA,NA,NA,NA,NA,NA,NA,NA,NA,NA,NA,NA,NA,NA,NA,NA,NA,NA,NA,NA,NA,NA,NA,NA,NA,NA
SUPAMT83327,3ITXP059P2ILMMFHD7P4IADVO8DSJ0,64C14C13-2D70-4BC8-9B6C-530554E12423,2023-09-29_21h24.24.844,WP_VExplicitOC_LH,2022.2.5,Win32,20.98327633,NA,NA,NA,NA,NA,NA,NA,NA,NA,NA,NA,-47.13541667,2.5919,0,8,8,8,1,read a novel,009.png,NA,NA,NA,NA,NA,NA,NA,NA,NA,NA,NA,NA,NA,NA,NA,NA,NA,NA,NA,NA,NA,NA,NA,NA,NA,NA,NA,NA,NA,NA,NA,NA,NA,NA,NA,NA,NA,NA,NA
SUPAMT83327,3ITXP059P2ILMMFHD7P4IADVO8DSJ0,64C14C13-2D70-4BC8-9B6C-530554E12423,2023-09-29_21h24.24.844,WP_VExplicitOC_LH,2022.2.5,Win32,20.98327633,NA,NA,NA,NA,NA,NA,NA,NA,NA,NA,NA,-47.91666667,2.1843,0,9,9,9,1,read the news,010.png,NA,NA,NA,NA,NA,NA,NA,NA,NA,NA,NA,NA,NA,NA,NA,NA,NA,NA,NA,NA,NA,NA,NA,NA,NA,NA,NA,NA,NA,NA,NA,NA,NA,NA,NA,NA,NA,NA,NA
SUPAMT83327,3ITXP059P2ILMMFHD7P4IADVO8DSJ0,64C14C13-2D70-4BC8-9B6C-530554E12423,2023-09-29_21h24.24.844,WP_VExplicitOC_LH,2022.2.5,Win32,20.98327633,NA,NA,NA,NA,NA,NA,NA,NA,NA,NA,NA,NA,NA,NA,NA,NA,NA,NA,NA,NA,NA,NA,NA,NA,NA,NA,NA,NA,NA,NA,NA,NA,NA,NA,NA,NA,NA,NA,NA,NA,NA,NA,NA,NA,NA,NA,NA,NA,NA,NA,NA,NA,NA,NA,NA,NA,NA,NA,NA
SUPAMT83327,3ITXP059P2ILMMFHD7P4IADVO8DSJ0,64C14C13-2D70-4BC8-9B6C-530554E12423,2023-09-29_21h24.24.844,WP_VExplicitOC_LH,2022.2.5,Win32,20.98327633,NA,NA,NA,NA,NA,NA,NA,NA,NA,NA,NA,NA,NA,NA,NA,NA,NA,NA,NA,NA,read the news,NA,NA,NA,NA,NA,NA,NA,NA,NA,NA,NA,NA,NA,NA,NA,NA,NA,NA,NA,NA,NA,NA,NA,NA,NA,NA,NA,NA,NA,NA,NA,NA,NA,NA,NA,NA,NA,NA
SUPAMT83327,3ITXP059P2ILMMFHD7P4IADVO8DSJ0,64C14C13-2D70-4BC8-9B6C-530554E12423,2023-09-29_21h24.24.844,WP_VExplicitOC_LH,2022.2.5,Win32,20.98327633,98.17708333,3.8375,2.0448,NA,NA,NA,NA,NA,happy,"unhappy, happy","less happy, more happy",NA,NA,NA,NA,NA,NA,NA,NA,NA,NA,0,0,0,0,1,NA,NA,NA,NA,NA,NA,NA,NA,NA,NA,NA,NA,NA,NA,NA,NA,NA,NA,NA,NA,NA,NA,NA,NA,NA,NA,NA,NA,NA,NA,NA,NA,NA
SUPAMT83327,3ITXP059P2ILMMFHD7P4IADVO8DSJ0,64C14C13-2D70-4BC8-9B6C-530554E12423,2023-09-29_21h24.24.844,WP_VExplicitOC_LH,2022.2.5,Win32,20.98327633,-23.17708333,5.9179,2.0406,NA,NA,NA,NA,NA,frustrated,"frustrated, not frustrated","more frustrated, less frustrated",NA,NA,NA,NA,NA,NA,NA,NA,NA,NA,0,1,1,1,1,NA,NA,NA,NA,NA,NA,NA,NA,NA,NA,NA,NA,NA,NA,NA,NA,NA,NA,NA,NA,NA,NA,NA,NA,NA,NA,NA,NA,NA,NA,NA,NA,NA
SUPAMT83327,3ITXP059P2ILMMFHD7P4IADVO8DSJ0,64C14C13-2D70-4BC8-9B6C-530554E12423,2023-09-29_21h24.24.844,WP_VExplicitOC_LH,2022.2.5,Win32,20.98327633,-60.41666667,3.1443,2.0406,NA,NA,NA,NA,NA,bored,"bored, not bored","more bored, less bored",NA,NA,NA,NA,NA,NA,NA,NA,NA,NA,0,2,2,2,1,NA,NA,NA,NA,NA,NA,NA,NA,NA,NA,NA,NA,NA,NA,NA,NA,NA,NA,NA,NA,NA,NA,NA,NA,NA,NA,NA,NA,NA,NA,NA,NA,NA
SUPAMT83327,3ITXP059P2ILMMFHD7P4IADVO8DSJ0,64C14C13-2D70-4BC8-9B6C-530554E12423,2023-09-29_21h24.24.844,WP_VExplicitOC_LH,2022.2.5,Win32,20.98327633,NA,NA,NA,NA,NA,NA,NA,NA,NA,NA,NA,NA,NA,NA,NA,NA,NA,NA,NA,NA,NA,NA,NA,NA,NA,NA,NA,NA,NA,NA,NA,NA,NA,NA,NA,NA,NA,NA,NA,NA,NA,NA,NA,NA,NA,NA,NA,NA,NA,NA,NA,NA,NA,NA,NA,NA,NA,NA,NA
SUPAMT83327,3ITXP059P2ILMMFHD7P4IADVO8DSJ0,64C14C13-2D70-4BC8-9B6C-530554E12423,2023-09-29_21h24.24.844,WP_VExplicitOC_LH,2022.2.5,Win32,20.98327633,NA,NA,NA,NA,NA,NA,NA,NA,NA,NA,NA,NA,NA,NA,NA,NA,NA,NA,NA,NA,NA,NA,NA,NA,NA,NA,NA,NA,NA,NA,NA,NA,NA,NA,NA,NA,NA,NA,NA,NA,NA,NA,NA,NA,NA,NA,NA,NA,NA,NA,NA,NA,NA,NA,NA,NA,NA,NA,NA
SUPAMT83327,3ITXP059P2ILMMFHD7P4IADVO8DSJ0,64C14C13-2D70-4BC8-9B6C-530554E12423,2023-09-29_21h24.24.844,WP_VExplicitOC_LH,2022.2.5,Win32,20.98327633,33.07291667,2.6375,2.0472,NA,NA,NA,NA,NA,frustrated,"frustrated, not frustrated","more frustrated, less frustrated",NA,NA,NA,NA,NA,NA,NA,NA,NA,NA,NA,NA,NA,NA,NA,0,0,0,1,1,NA,NA,NA,NA,NA,NA,NA,NA,NA,NA,NA,NA,NA,NA,NA,NA,NA,NA,NA,NA,NA,NA,NA,NA,NA,NA,NA,NA
SUPAMT83327,3ITXP059P2ILMMFHD7P4IADVO8DSJ0,64C14C13-2D70-4BC8-9B6C-530554E12423,2023-09-29_21h24.24.844,WP_VExplicitOC_LH,2022.2.5,Win32,20.98327633,-46.35416667,4.3141,2.0258,NA,NA,NA,NA,NA,happy,"unhappy, happy","less happy, more happy",NA,NA,NA,NA,NA,NA,NA,NA,NA,NA,NA,NA,NA,NA,NA,0,1,1,0,1,NA,NA,NA,NA,NA,NA,NA,NA,NA,NA,NA,NA,NA,NA,NA,NA,NA,NA,NA,NA,NA,NA,NA,NA,NA,NA,NA,NA
SUPAMT83327,3ITXP059P2ILMMFHD7P4IADVO8DSJ0,64C14C13-2D70-4BC8-9B6C-530554E12423,2023-09-29_21h24.24.844,WP_VExplicitOC_LH,2022.2.5,Win32,20.98327633,-45.57291667,3.6339,2.0267,NA,NA,NA,NA,NA,bored,"bored, not bored","more bored, less bored",NA,NA,NA,NA,NA,NA,NA,NA,NA,NA,NA,NA,NA,NA,NA,0,2,2,2,1,NA,NA,NA,NA,NA,NA,NA,NA,NA,NA,NA,NA,NA,NA,NA,NA,NA,NA,NA,NA,NA,NA,NA,NA,NA,NA,NA,NA
SUPAMT83327,3ITXP059P2ILMMFHD7P4IADVO8DSJ0,64C14C13-2D70-4BC8-9B6C-530554E12423,2023-09-29_21h24.24.844,WP_VExplicitOC_LH,2022.2.5,Win32,20.98327633,NA,NA,NA,NA,NA,NA,NA,NA,NA,NA,NA,NA,NA,NA,NA,NA,NA,NA,NA,NA,NA,NA,NA,NA,NA,NA,NA,NA,NA,NA,NA,0,0,0,0,1,NA,NA,NA,NA,NA,NA,NA,NA,NA,NA,NA,NA,NA,NA,NA,NA,NA,NA,NA,NA,NA,NA,NA
SUPAMT83327,3ITXP059P2ILMMFHD7P4IADVO8DSJ0,64C14C13-2D70-4BC8-9B6C-530554E12423,2023-09-29_21h24.24.844,WP_VExplicitOC_LH,2022.2.5,Win32,20.98327633,65.625,3.4525,2.0404,NA,NA,NA,NA,NA,frustrated,"frustrated, not frustrated","more frustrated, less frustrated",NA,NA,NA,NA,NA,NA,NA,NA,NA,NA,NA,NA,NA,NA,NA,0,0,0,1,1,NA,NA,NA,NA,NA,NA,NA,NA,NA,NA,NA,NA,NA,NA,NA,NA,NA,NA,NA,NA,NA,NA,NA,NA,NA,NA,NA,NA
SUPAMT83327,3ITXP059P2ILMMFHD7P4IADVO8DSJ0,64C14C13-2D70-4BC8-9B6C-530554E12423,2023-09-29_21h24.24.844,WP_VExplicitOC_LH,2022.2.5,Win32,20.98327633,44.79166667,3.7131,2.0311,NA,NA,NA,NA,NA,happy,"unhappy, happy","less happy, more happy",NA,NA,NA,NA,NA,NA,NA,NA,NA,NA,NA,NA,NA,NA,NA,0,1,1,0,1,NA,NA,NA,NA,NA,NA,NA,NA,NA,NA,NA,NA,NA,NA,NA,NA,NA,NA,NA,NA,NA,NA,NA,NA,NA,NA,NA,NA
SUPAMT83327,3ITXP059P2ILMMFHD7P4IADVO8DSJ0,64C14C13-2D70-4BC8-9B6C-530554E12423,2023-09-29_21h24.24.844,WP_VExplicitOC_LH,2022.2.5,Win32,20.98327633,61.45833333,4.5019,2.0321,NA,NA,NA,NA,NA,bored,"bored, not bored","more bored, less bored",NA,NA,NA,NA,NA,NA,NA,NA,NA,NA,NA,NA,NA,NA,NA,0,2,2,2,1,NA,NA,NA,NA,NA,NA,NA,NA,NA,NA,NA,NA,NA,NA,NA,NA,NA,NA,NA,NA,NA,NA,NA,NA,NA,NA,NA,NA
SUPAMT83327,3ITXP059P2ILMMFHD7P4IADVO8DSJ0,64C14C13-2D70-4BC8-9B6C-530554E12423,2023-09-29_21h24.24.844,WP_VExplicitOC_LH,2022.2.5,Win32,20.98327633,NA,NA,NA,NA,NA,NA,NA,NA,NA,NA,NA,NA,NA,NA,NA,NA,NA,NA,NA,NA,NA,NA,NA,NA,NA,NA,NA,NA,NA,NA,NA,1,0,1,0,1,NA,NA,NA,NA,NA,NA,NA,NA,NA,NA,NA,NA,NA,NA,NA,NA,NA,NA,NA,NA,NA,NA,NA
SUPAMT83327,3ITXP059P2ILMMFHD7P4IADVO8DSJ0,64C14C13-2D70-4BC8-9B6C-530554E12423,2023-09-29_21h24.24.844,WP_VExplicitOC_LH,2022.2.5,Win32,20.98327633,44.27083333,3.7935,2.0484,NA,NA,NA,NA,NA,frustrated,"frustrated, not frustrated","more frustrated, less frustrated",NA,NA,NA,NA,NA,NA,NA,NA,NA,NA,NA,NA,NA,NA,NA,0,0,0,1,1,NA,NA,NA,NA,NA,NA,NA,NA,NA,NA,NA,NA,NA,NA,NA,NA,NA,NA,NA,NA,NA,NA,NA,NA,NA,NA,NA,NA
SUPAMT83327,3ITXP059P2ILMMFHD7P4IADVO8DSJ0,64C14C13-2D70-4BC8-9B6C-530554E12423,2023-09-29_21h24.24.844,WP_VExplicitOC_LH,2022.2.5,Win32,20.98327633,29.6875,5.2329,2.0349,NA,NA,NA,NA,NA,bored,"bored, not bored","more bored, less bored",NA,NA,NA,NA,NA,NA,NA,NA,NA,NA,NA,NA,NA,NA,NA,0,1,1,2,1,NA,NA,NA,NA,NA,NA,NA,NA,NA,NA,NA,NA,NA,NA,NA,NA,NA,NA,NA,NA,NA,NA,NA,NA,NA,NA,NA,NA
SUPAMT83327,3ITXP059P2ILMMFHD7P4IADVO8DSJ0,64C14C13-2D70-4BC8-9B6C-530554E12423,2023-09-29_21h24.24.844,WP_VExplicitOC_LH,2022.2.5,Win32,20.98327633,21.09375,3.1211,2.0401,NA,NA,NA,NA,NA,happy,"unhappy, happy","less happy, more happy",NA,NA,NA,NA,NA,NA,NA,NA,NA,NA,NA,NA,NA,NA,NA,0,2,2,0,1,NA,NA,NA,NA,NA,NA,NA,NA,NA,NA,NA,NA,NA,NA,NA,NA,NA,NA,NA,NA,NA,NA,NA,NA,NA,NA,NA,NA
SUPAMT83327,3ITXP059P2ILMMFHD7P4IADVO8DSJ0,64C14C13-2D70-4BC8-9B6C-530554E12423,2023-09-29_21h24.24.844,WP_VExplicitOC_LH,2022.2.5,Win32,20.98327633,NA,NA,NA,NA,NA,NA,NA,NA,NA,NA,NA,NA,NA,NA,NA,NA,NA,NA,NA,NA,NA,NA,NA,NA,NA,NA,NA,NA,NA,NA,NA,2,0,2,0,1,NA,NA,NA,NA,NA,NA,NA,NA,NA,NA,NA,NA,NA,NA,NA,NA,NA,NA,NA,NA,NA,NA,NA
SUPAMT83327,3ITXP059P2ILMMFHD7P4IADVO8DSJ0,64C14C13-2D70-4BC8-9B6C-530554E12423,2023-09-29_21h24.24.844,WP_VExplicitOC_LH,2022.2.5,Win32,20.98327633,NA,NA,2.043,NA,NA,NA,NA,NA,happy,"unhappy, happy","less happy, more happy",NA,NA,NA,NA,NA,NA,NA,NA,NA,NA,NA,NA,NA,NA,NA,0,0,0,0,1,NA,NA,NA,NA,NA,NA,NA,NA,NA,NA,NA,NA,NA,NA,NA,NA,NA,NA,NA,NA,NA,NA,NA,NA,NA,NA,NA,NA
SUPAMT83327,3ITXP059P2ILMMFHD7P4IADVO8DSJ0,64C14C13-2D70-4BC8-9B6C-530554E12423,2023-09-29_21h24.24.844,WP_VExplicitOC_LH,2022.2.5,Win32,20.98327633,-27.86458333,3.4414,2.0267,NA,NA,NA,NA,NA,bored,"bored, not bored","more bored, less bored",NA,NA,NA,NA,NA,NA,NA,NA,NA,NA,NA,NA,NA,NA,NA,0,1,1,2,1,NA,NA,NA,NA,NA,NA,NA,NA,NA,NA,NA,NA,NA,NA,NA,NA,NA,NA,NA,NA,NA,NA,NA,NA,NA,NA,NA,NA
SUPAMT83327,3ITXP059P2ILMMFHD7P4IADVO8DSJ0,64C14C13-2D70-4BC8-9B6C-530554E12423,2023-09-29_21h24.24.844,WP_VExplicitOC_LH,2022.2.5,Win32,20.98327633,-20.83333333,3.6292,2.0303,NA,NA,NA,NA,NA,frustrated,"frustrated, not frustrated","more frustrated, less frustrated",NA,NA,NA,NA,NA,NA,NA,NA,NA,NA,NA,NA,NA,NA,NA,0,2,2,1,1,NA,NA,NA,NA,NA,NA,NA,NA,NA,NA,NA,NA,NA,NA,NA,NA,NA,NA,NA,NA,NA,NA,NA,NA,NA,NA,NA,NA
SUPAMT83327,3ITXP059P2ILMMFHD7P4IADVO8DSJ0,64C14C13-2D70-4BC8-9B6C-530554E12423,2023-09-29_21h24.24.844,WP_VExplicitOC_LH,2022.2.5,Win32,20.98327633,NA,NA,NA,NA,NA,NA,NA,NA,NA,NA,NA,NA,NA,NA,NA,NA,NA,NA,NA,NA,NA,NA,NA,NA,NA,NA,NA,NA,NA,NA,NA,3,0,3,0,1,NA,NA,NA,NA,NA,NA,NA,NA,NA,NA,NA,NA,NA,NA,NA,NA,NA,NA,NA,NA,NA,NA,NA
SUPAMT83327,3ITXP059P2ILMMFHD7P4IADVO8DSJ0,64C14C13-2D70-4BC8-9B6C-530554E12423,2023-09-29_21h24.24.844,WP_VExplicitOC_LH,2022.2.5,Win32,20.98327633,45.83333333,4.0354,2.0313,NA,NA,NA,NA,NA,happy,"unhappy, happy","less happy, more happy",NA,NA,NA,NA,NA,NA,NA,NA,NA,NA,NA,NA,NA,NA,NA,0,0,0,0,1,NA,NA,NA,NA,NA,NA,NA,NA,NA,NA,NA,NA,NA,NA,NA,NA,NA,NA,NA,NA,NA,NA,NA,NA,NA,NA,NA,NA
SUPAMT83327,3ITXP059P2ILMMFHD7P4IADVO8DSJ0,64C14C13-2D70-4BC8-9B6C-530554E12423,2023-09-29_21h24.24.844,WP_VExplicitOC_LH,2022.2.5,Win32,20.98327633,-33.33333333,5.1571,2.0594,NA,NA,NA,NA,NA,frustrated,"frustrated, not frustrated","more frustrated, less frustrated",NA,NA,NA,NA,NA,NA,NA,NA,NA,NA,NA,NA,NA,NA,NA,0,1,1,1,1,NA,NA,NA,NA,NA,NA,NA,NA,NA,NA,NA,NA,NA,NA,NA,NA,NA,NA,NA,NA,NA,NA,NA,NA,NA,NA,NA,NA
SUPAMT83327,3ITXP059P2ILMMFHD7P4IADVO8DSJ0,64C14C13-2D70-4BC8-9B6C-530554E12423,2023-09-29_21h24.24.844,WP_VExplicitOC_LH,2022.2.5,Win32,20.98327633,-44.79166667,2.9159,2.0263,NA,NA,NA,NA,NA,bored,"bored, not bored","more bored, less bored",NA,NA,NA,NA,NA,NA,NA,NA,NA,NA,NA,NA,NA,NA,NA,0,2,2,2,1,NA,NA,NA,NA,NA,NA,NA,NA,NA,NA,NA,NA,NA,NA,NA,NA,NA,NA,NA,NA,NA,NA,NA,NA,NA,NA,NA,NA
SUPAMT83327,3ITXP059P2ILMMFHD7P4IADVO8DSJ0,64C14C13-2D70-4BC8-9B6C-530554E12423,2023-09-29_21h24.24.844,WP_VExplicitOC_LH,2022.2.5,Win32,20.98327633,NA,NA,NA,NA,NA,NA,NA,NA,NA,NA,NA,NA,NA,NA,NA,NA,NA,NA,NA,NA,NA,NA,NA,NA,NA,NA,NA,NA,NA,NA,NA,4,0,4,0,1,NA,NA,NA,NA,NA,NA,NA,NA,NA,NA,NA,NA,NA,NA,NA,NA,NA,NA,NA,NA,NA,NA,NA
SUPAMT83327,3ITXP059P2ILMMFHD7P4IADVO8DSJ0,64C14C13-2D70-4BC8-9B6C-530554E12423,2023-09-29_21h24.24.844,WP_VExplicitOC_LH,2022.2.5,Win32,20.98327633,-54.42708333,3.7448,2.0435,NA,NA,NA,NA,NA,happy,"unhappy, happy","less happy, more happy",NA,NA,NA,NA,NA,NA,NA,NA,NA,NA,NA,NA,NA,NA,NA,0,0,0,0,1,NA,NA,NA,NA,NA,NA,NA,NA,NA,NA,NA,NA,NA,NA,NA,NA,NA,NA,NA,NA,NA,NA,NA,NA,NA,NA,NA,NA
SUPAMT83327,3ITXP059P2ILMMFHD7P4IADVO8DSJ0,64C14C13-2D70-4BC8-9B6C-530554E12423,2023-09-29_21h24.24.844,WP_VExplicitOC_LH,2022.2.5,Win32,20.98327633,-88.28125,4.0977,2.0374,NA,NA,NA,NA,NA,bored,"bored, not bored","more bored, less bored",NA,NA,NA,NA,NA,NA,NA,NA,NA,NA,NA,NA,NA,NA,NA,0,1,1,2,1,NA,NA,NA,NA,NA,NA,NA,NA,NA,NA,NA,NA,NA,NA,NA,NA,NA,NA,NA,NA,NA,NA,NA,NA,NA,NA,NA,NA
SUPAMT83327,3ITXP059P2ILMMFHD7P4IADVO8DSJ0,64C14C13-2D70-4BC8-9B6C-530554E12423,2023-09-29_21h24.24.844,WP_VExplicitOC_LH,2022.2.5,Win32,20.98327633,-86.19791667,3.1552,2.0438,NA,NA,NA,NA,NA,frustrated,"frustrated, not frustrated","more frustrated, less frustrated",NA,NA,NA,NA,NA,NA,NA,NA,NA,NA,NA,NA,NA,NA,NA,0,2,2,1,1,NA,NA,NA,NA,NA,NA,NA,NA,NA,NA,NA,NA,NA,NA,NA,NA,NA,NA,NA,NA,NA,NA,NA,NA,NA,NA,NA,NA
SUPAMT83327,3ITXP059P2ILMMFHD7P4IADVO8DSJ0,64C14C13-2D70-4BC8-9B6C-530554E12423,2023-09-29_21h24.24.844,WP_VExplicitOC_LH,2022.2.5,Win32,20.98327633,NA,NA,NA,NA,NA,NA,NA,NA,NA,NA,NA,NA,NA,NA,NA,NA,NA,NA,NA,NA,NA,NA,NA,NA,NA,NA,NA,NA,NA,NA,NA,5,0,5,0,1,NA,NA,NA,NA,NA,NA,NA,NA,NA,NA,NA,NA,NA,NA,NA,NA,NA,NA,NA,NA,NA,NA,NA
SUPAMT83327,3ITXP059P2ILMMFHD7P4IADVO8DSJ0,64C14C13-2D70-4BC8-9B6C-530554E12423,2023-09-29_21h24.24.844,WP_VExplicitOC_LH,2022.2.5,Win32,20.98327633,-67.70833333,3.387,2.0342,NA,NA,NA,NA,NA,bored,"bored, not bored","more bored, less bored",NA,NA,NA,NA,NA,NA,NA,NA,NA,NA,NA,NA,NA,NA,NA,0,0,0,2,1,NA,NA,NA,NA,NA,NA,NA,NA,NA,NA,NA,NA,NA,NA,NA,NA,NA,NA,NA,NA,NA,NA,NA,NA,NA,NA,NA,NA
SUPAMT83327,3ITXP059P2ILMMFHD7P4IADVO8DSJ0,64C14C13-2D70-4BC8-9B6C-530554E12423,2023-09-29_21h24.24.844,WP_VExplicitOC_LH,2022.2.5,Win32,20.98327633,-55.46875,3.7237,2.0382,NA,NA,NA,NA,NA,frustrated,"frustrated, not frustrated","more frustrated, less frustrated",NA,NA,NA,NA,NA,NA,NA,NA,NA,NA,NA,NA,NA,NA,NA,0,1,1,1,1,NA,NA,NA,NA,NA,NA,NA,NA,NA,NA,NA,NA,NA,NA,NA,NA,NA,NA,NA,NA,NA,NA,NA,NA,NA,NA,NA,NA
SUPAMT83327,3ITXP059P2ILMMFHD7P4IADVO8DSJ0,64C14C13-2D70-4BC8-9B6C-530554E12423,2023-09-29_21h24.24.844,WP_VExplicitOC_LH,2022.2.5,Win32,20.98327633,-61.19791667,2.7421,2.0338,NA,NA,NA,NA,NA,happy,"unhappy, happy","less happy, more happy",NA,NA,NA,NA,NA,NA,NA,NA,NA,NA,NA,NA,NA,NA,NA,0,2,2,0,1,NA,NA,NA,NA,NA,NA,NA,NA,NA,NA,NA,NA,NA,NA,NA,NA,NA,NA,NA,NA,NA,NA,NA,NA,NA,NA,NA,NA
SUPAMT83327,3ITXP059P2ILMMFHD7P4IADVO8DSJ0,64C14C13-2D70-4BC8-9B6C-530554E12423,2023-09-29_21h24.24.844,WP_VExplicitOC_LH,2022.2.5,Win32,20.98327633,NA,NA,NA,NA,NA,NA,NA,NA,NA,NA,NA,NA,NA,NA,NA,NA,NA,NA,NA,NA,NA,NA,NA,NA,NA,NA,NA,NA,NA,NA,NA,6,0,6,0,1,NA,NA,NA,NA,NA,NA,NA,NA,NA,NA,NA,NA,NA,NA,NA,NA,NA,NA,NA,NA,NA,NA,NA
SUPAMT83327,3ITXP059P2ILMMFHD7P4IADVO8DSJ0,64C14C13-2D70-4BC8-9B6C-530554E12423,2023-09-29_21h24.24.844,WP_VExplicitOC_LH,2022.2.5,Win32,20.98327633,16.92708333,2.6243,2.0381,NA,NA,NA,NA,NA,bored,"bored, not bored","more bored, less bored",NA,NA,NA,NA,NA,NA,NA,NA,NA,NA,NA,NA,NA,NA,NA,0,0,0,2,1,NA,NA,NA,NA,NA,NA,NA,NA,NA,NA,NA,NA,NA,NA,NA,NA,NA,NA,NA,NA,NA,NA,NA,NA,NA,NA,NA,NA
SUPAMT83327,3ITXP059P2ILMMFHD7P4IADVO8DSJ0,64C14C13-2D70-4BC8-9B6C-530554E12423,2023-09-29_21h24.24.844,WP_VExplicitOC_LH,2022.2.5,Win32,20.98327633,16.92708333,2.4369,2.0598,NA,NA,NA,NA,NA,happy,"unhappy, happy","less happy, more happy",NA,NA,NA,NA,NA,NA,NA,NA,NA,NA,NA,NA,NA,NA,NA,0,1,1,0,1,NA,NA,NA,NA,NA,NA,NA,NA,NA,NA,NA,NA,NA,NA,NA,NA,NA,NA,NA,NA,NA,NA,NA,NA,NA,NA,NA,NA
SUPAMT83327,3ITXP059P2ILMMFHD7P4IADVO8DSJ0,64C14C13-2D70-4BC8-9B6C-530554E12423,2023-09-29_21h24.24.844,WP_VExplicitOC_LH,2022.2.5,Win32,20.98327633,16.92708333,2.1686,2.0375,NA,NA,NA,NA,NA,frustrated,"frustrated, not frustrated","more frustrated, less frustrated",NA,NA,NA,NA,NA,NA,NA,NA,NA,NA,NA,NA,NA,NA,NA,0,2,2,1,1,NA,NA,NA,NA,NA,NA,NA,NA,NA,NA,NA,NA,NA,NA,NA,NA,NA,NA,NA,NA,NA,NA,NA,NA,NA,NA,NA,NA
SUPAMT83327,3ITXP059P2ILMMFHD7P4IADVO8DSJ0,64C14C13-2D70-4BC8-9B6C-530554E12423,2023-09-29_21h24.24.844,WP_VExplicitOC_LH,2022.2.5,Win32,20.98327633,NA,NA,NA,NA,NA,NA,NA,NA,NA,NA,NA,NA,NA,NA,NA,NA,NA,NA,NA,NA,NA,NA,NA,NA,NA,NA,NA,NA,NA,NA,NA,7,0,7,0,1,NA,NA,NA,NA,NA,NA,NA,NA,NA,NA,NA,NA,NA,NA,NA,NA,NA,NA,NA,NA,NA,NA,NA
SUPAMT83327,3ITXP059P2ILMMFHD7P4IADVO8DSJ0,64C14C13-2D70-4BC8-9B6C-530554E12423,2023-09-29_21h24.24.844,WP_VExplicitOC_LH,2022.2.5,Win32,20.98327633,16.92708333,3.0463,2.0354,NA,NA,NA,NA,NA,happy,"unhappy, happy","less happy, more happy",NA,NA,NA,NA,NA,NA,NA,NA,NA,NA,NA,NA,NA,NA,NA,0,0,0,0,1,NA,NA,NA,NA,NA,NA,NA,NA,NA,NA,NA,NA,NA,NA,NA,NA,NA,NA,NA,NA,NA,NA,NA,NA,NA,NA,NA,NA
SUPAMT83327,3ITXP059P2ILMMFHD7P4IADVO8DSJ0,64C14C13-2D70-4BC8-9B6C-530554E12423,2023-09-29_21h24.24.844,WP_VExplicitOC_LH,2022.2.5,Win32,20.98327633,19.53125,3.0586,2.0241,NA,NA,NA,NA,NA,bored,"bored, not bored","more bored, less bored",NA,NA,NA,NA,NA,NA,NA,NA,NA,NA,NA,NA,NA,NA,NA,0,1,1,2,1,NA,NA,NA,NA,NA,NA,NA,NA,NA,NA,NA,NA,NA,NA,NA,NA,NA,NA,NA,NA,NA,NA,NA,NA,NA,NA,NA,NA
SUPAMT83327,3ITXP059P2ILMMFHD7P4IADVO8DSJ0,64C14C13-2D70-4BC8-9B6C-530554E12423,2023-09-29_21h24.24.844,WP_VExplicitOC_LH,2022.2.5,Win32,20.98327633,18.48958333,3.2807,2.0519,NA,NA,NA,NA,NA,frustrated,"frustrated, not frustrated","more frustrated, less frustrated",NA,NA,NA,NA,NA,NA,NA,NA,NA,NA,NA,NA,NA,NA,NA,0,2,2,1,1,NA,NA,NA,NA,NA,NA,NA,NA,NA,NA,NA,NA,NA,NA,NA,NA,NA,NA,NA,NA,NA,NA,NA,NA,NA,NA,NA,NA
SUPAMT83327,3ITXP059P2ILMMFHD7P4IADVO8DSJ0,64C14C13-2D70-4BC8-9B6C-530554E12423,2023-09-29_21h24.24.844,WP_VExplicitOC_LH,2022.2.5,Win32,20.98327633,NA,NA,NA,NA,NA,NA,NA,NA,NA,NA,NA,NA,NA,NA,NA,NA,NA,NA,NA,NA,NA,NA,NA,NA,NA,NA,NA,NA,NA,NA,NA,8,0,8,0,1,NA,NA,NA,NA,NA,NA,NA,NA,NA,NA,NA,NA,NA,NA,NA,NA,NA,NA,NA,NA,NA,NA,NA
SUPAMT83327,3ITXP059P2ILMMFHD7P4IADVO8DSJ0,64C14C13-2D70-4BC8-9B6C-530554E12423,2023-09-29_21h24.24.844,WP_VExplicitOC_LH,2022.2.5,Win32,20.98327633,-19.79166667,3.6508,2.0372,NA,NA,NA,NA,NA,happy,"unhappy, happy","less happy, more happy",NA,NA,NA,NA,NA,NA,NA,NA,NA,NA,NA,NA,NA,NA,NA,0,0,0,0,1,NA,NA,NA,NA,NA,NA,NA,NA,NA,NA,NA,NA,NA,NA,NA,NA,NA,NA,NA,NA,NA,NA,NA,NA,NA,NA,NA,NA
SUPAMT83327,3ITXP059P2ILMMFHD7P4IADVO8DSJ0,64C14C13-2D70-4BC8-9B6C-530554E12423,2023-09-29_21h24.24.844,WP_VExplicitOC_LH,2022.2.5,Win32,20.98327633,-18.75,3.198,2.0343,NA,NA,NA,NA,NA,bored,"bored, not bored","more bored, less bored",NA,NA,NA,NA,NA,NA,NA,NA,NA,NA,NA,NA,NA,NA,NA,0,1,1,2,1,NA,NA,NA,NA,NA,NA,NA,NA,NA,NA,NA,NA,NA,NA,NA,NA,NA,NA,NA,NA,NA,NA,NA,NA,NA,NA,NA,NA
SUPAMT83327,3ITXP059P2ILMMFHD7P4IADVO8DSJ0,64C14C13-2D70-4BC8-9B6C-530554E12423,2023-09-29_21h24.24.844,WP_VExplicitOC_LH,2022.2.5,Win32,20.98327633,-21.09375,2.9537,2.0393,NA,NA,NA,NA,NA,frustrated,"frustrated, not frustrated","more frustrated, less frustrated",NA,NA,NA,NA,NA,NA,NA,NA,NA,NA,NA,NA,NA,NA,NA,0,2,2,1,1,NA,NA,NA,NA,NA,NA,NA,NA,NA,NA,NA,NA,NA,NA,NA,NA,NA,NA,NA,NA,NA,NA,NA,NA,NA,NA,NA,NA
SUPAMT83327,3ITXP059P2ILMMFHD7P4IADVO8DSJ0,64C14C13-2D70-4BC8-9B6C-530554E12423,2023-09-29_21h24.24.844,WP_VExplicitOC_LH,2022.2.5,Win32,20.98327633,NA,NA,NA,NA,NA,NA,NA,NA,NA,NA,NA,NA,NA,NA,NA,NA,NA,NA,NA,NA,NA,NA,NA,NA,NA,NA,NA,NA,NA,NA,NA,9,0,9,0,1,NA,NA,NA,NA,NA,NA,NA,NA,NA,NA,NA,NA,NA,NA,NA,NA,NA,NA,NA,NA,NA,NA,NA
SUPAMT83327,3ITXP059P2ILMMFHD7P4IADVO8DSJ0,64C14C13-2D70-4BC8-9B6C-530554E12423,2023-09-29_21h24.24.844,WP_VExplicitOC_LH,2022.2.5,Win32,20.98327633,-17.70833333,5.654,2.0322,NA,NA,NA,NA,NA,frustrated,"frustrated, not frustrated","more frustrated, less frustrated",NA,NA,NA,NA,NA,NA,NA,NA,NA,NA,NA,NA,NA,NA,NA,0,0,0,1,1,NA,NA,NA,NA,NA,NA,NA,NA,NA,NA,NA,NA,NA,NA,NA,NA,NA,NA,NA,NA,NA,NA,NA,NA,NA,NA,NA,NA
SUPAMT83327,3ITXP059P2ILMMFHD7P4IADVO8DSJ0,64C14C13-2D70-4BC8-9B6C-530554E12423,2023-09-29_21h24.24.844,WP_VExplicitOC_LH,2022.2.5,Win32,20.98327633,-17.44791667,3.0123,2.0387,NA,NA,NA,NA,NA,happy,"unhappy, happy","less happy, more happy",NA,NA,NA,NA,NA,NA,NA,NA,NA,NA,NA,NA,NA,NA,NA,0,1,1,0,1,NA,NA,NA,NA,NA,NA,NA,NA,NA,NA,NA,NA,NA,NA,NA,NA,NA,NA,NA,NA,NA,NA,NA,NA,NA,NA,NA,NA
SUPAMT83327,3ITXP059P2ILMMFHD7P4IADVO8DSJ0,64C14C13-2D70-4BC8-9B6C-530554E12423,2023-09-29_21h24.24.844,WP_VExplicitOC_LH,2022.2.5,Win32,20.98327633,-21.09375,3.9605,2.0217,NA,NA,NA,NA,NA,bored,"bored, not bored","more bored, less bored",NA,NA,NA,NA,NA,NA,NA,NA,NA,NA,NA,NA,NA,NA,NA,0,2,2,2,1,NA,NA,NA,NA,NA,NA,NA,NA,NA,NA,NA,NA,NA,NA,NA,NA,NA,NA,NA,NA,NA,NA,NA,NA,NA,NA,NA,NA
SUPAMT83327,3ITXP059P2ILMMFHD7P4IADVO8DSJ0,64C14C13-2D70-4BC8-9B6C-530554E12423,2023-09-29_21h24.24.844,WP_VExplicitOC_LH,2022.2.5,Win32,20.98327633,NA,NA,NA,NA,NA,NA,NA,NA,NA,NA,NA,NA,NA,NA,NA,NA,NA,NA,NA,NA,NA,NA,NA,NA,NA,NA,NA,NA,NA,NA,NA,10,0,10,0,1,NA,NA,NA,NA,NA,NA,NA,NA,NA,NA,NA,NA,NA,NA,NA,NA,NA,NA,NA,NA,NA,NA,NA
SUPAMT83327,3ITXP059P2ILMMFHD7P4IADVO8DSJ0,64C14C13-2D70-4BC8-9B6C-530554E12423,2023-09-29_21h24.24.844,WP_VExplicitOC_LH,2022.2.5,Win32,20.98327633,18.75,3.1269,2.0361,NA,NA,NA,NA,NA,frustrated,"frustrated, not frustrated","more frustrated, less frustrated",NA,NA,NA,NA,NA,NA,NA,NA,NA,NA,NA,NA,NA,NA,NA,0,0,0,1,1,NA,NA,NA,NA,NA,NA,NA,NA,NA,NA,NA,NA,NA,NA,NA,NA,NA,NA,NA,NA,NA,NA,NA,NA,NA,NA,NA,NA
SUPAMT83327,3ITXP059P2ILMMFHD7P4IADVO8DSJ0,64C14C13-2D70-4BC8-9B6C-530554E12423,2023-09-29_21h24.24.844,WP_VExplicitOC_LH,2022.2.5,Win32,20.98327633,27.08333333,2.7362,2.0324,NA,NA,NA,NA,NA,bored,"bored, not bored","more bored, less bored",NA,NA,NA,NA,NA,NA,NA,NA,NA,NA,NA,NA,NA,NA,NA,0,1,1,2,1,NA,NA,NA,NA,NA,NA,NA,NA,NA,NA,NA,NA,NA,NA,NA,NA,NA,NA,NA,NA,NA,NA,NA,NA,NA,NA,NA,NA
SUPAMT83327,3ITXP059P2ILMMFHD7P4IADVO8DSJ0,64C14C13-2D70-4BC8-9B6C-530554E12423,2023-09-29_21h24.24.844,WP_VExplicitOC_LH,2022.2.5,Win32,20.98327633,27.08333333,2.9412,2.03,NA,NA,NA,NA,NA,happy,"unhappy, happy","less happy, more happy",NA,NA,NA,NA,NA,NA,NA,NA,NA,NA,NA,NA,NA,NA,NA,0,2,2,0,1,NA,NA,NA,NA,NA,NA,NA,NA,NA,NA,NA,NA,NA,NA,NA,NA,NA,NA,NA,NA,NA,NA,NA,NA,NA,NA,NA,NA
SUPAMT83327,3ITXP059P2ILMMFHD7P4IADVO8DSJ0,64C14C13-2D70-4BC8-9B6C-530554E12423,2023-09-29_21h24.24.844,WP_VExplicitOC_LH,2022.2.5,Win32,20.98327633,NA,NA,NA,NA,NA,NA,NA,NA,NA,NA,NA,NA,NA,NA,NA,NA,NA,NA,NA,NA,NA,NA,NA,NA,NA,NA,NA,NA,NA,NA,NA,11,0,11,0,1,NA,NA,NA,NA,NA,NA,NA,NA,NA,NA,NA,NA,NA,NA,NA,NA,NA,NA,NA,NA,NA,NA,NA
SUPAMT83327,3ITXP059P2ILMMFHD7P4IADVO8DSJ0,64C14C13-2D70-4BC8-9B6C-530554E12423,2023-09-29_21h24.24.844,WP_VExplicitOC_LH,2022.2.5,Win32,20.98327633,-26.04166667,3.2443,2.018,NA,NA,NA,NA,NA,happy,"unhappy, happy","less happy, more happy",NA,NA,NA,NA,NA,NA,NA,NA,NA,NA,NA,NA,NA,NA,NA,0,0,0,0,1,NA,NA,NA,NA,NA,NA,NA,NA,NA,NA,NA,NA,NA,NA,NA,NA,NA,NA,NA,NA,NA,NA,NA,NA,NA,NA,NA,NA
SUPAMT83327,3ITXP059P2ILMMFHD7P4IADVO8DSJ0,64C14C13-2D70-4BC8-9B6C-530554E12423,2023-09-29_21h24.24.844,WP_VExplicitOC_LH,2022.2.5,Win32,20.98327633,-29.42708333,3.005,2.0365,NA,NA,NA,NA,NA,bored,"bored, not bored","more bored, less bored",NA,NA,NA,NA,NA,NA,NA,NA,NA,NA,NA,NA,NA,NA,NA,0,1,1,2,1,NA,NA,NA,NA,NA,NA,NA,NA,NA,NA,NA,NA,NA,NA,NA,NA,NA,NA,NA,NA,NA,NA,NA,NA,NA,NA,NA,NA
SUPAMT83327,3ITXP059P2ILMMFHD7P4IADVO8DSJ0,64C14C13-2D70-4BC8-9B6C-530554E12423,2023-09-29_21h24.24.844,WP_VExplicitOC_LH,2022.2.5,Win32,20.98327633,-21.61458333,2.6918,2.0436,NA,NA,NA,NA,NA,frustrated,"frustrated, not frustrated","more frustrated, less frustrated",NA,NA,NA,NA,NA,NA,NA,NA,NA,NA,NA,NA,NA,NA,NA,0,2,2,1,1,NA,NA,NA,NA,NA,NA,NA,NA,NA,NA,NA,NA,NA,NA,NA,NA,NA,NA,NA,NA,NA,NA,NA,NA,NA,NA,NA,NA
SUPAMT83327,3ITXP059P2ILMMFHD7P4IADVO8DSJ0,64C14C13-2D70-4BC8-9B6C-530554E12423,2023-09-29_21h24.24.844,WP_VExplicitOC_LH,2022.2.5,Win32,20.98327633,NA,NA,NA,NA,NA,NA,NA,NA,NA,NA,NA,NA,NA,NA,NA,NA,NA,NA,NA,NA,NA,NA,NA,NA,NA,NA,NA,NA,NA,NA,NA,12,0,12,0,1,NA,NA,NA,NA,NA,NA,NA,NA,NA,NA,NA,NA,NA,NA,NA,NA,NA,NA,NA,NA,NA,NA,NA
SUPAMT83327,3ITXP059P2ILMMFHD7P4IADVO8DSJ0,64C14C13-2D70-4BC8-9B6C-530554E12423,2023-09-29_21h24.24.844,WP_VExplicitOC_LH,2022.2.5,Win32,20.98327633,-21.61458333,3.1125,2.0186,NA,NA,NA,NA,NA,frustrated,"frustrated, not frustrated","more frustrated, less frustrated",NA,NA,NA,NA,NA,NA,NA,NA,NA,NA,NA,NA,NA,NA,NA,0,0,0,1,1,NA,NA,NA,NA,NA,NA,NA,NA,NA,NA,NA,NA,NA,NA,NA,NA,NA,NA,NA,NA,NA,NA,NA,NA,NA,NA,NA,NA
SUPAMT83327,3ITXP059P2ILMMFHD7P4IADVO8DSJ0,64C14C13-2D70-4BC8-9B6C-530554E12423,2023-09-29_21h24.24.844,WP_VExplicitOC_LH,2022.2.5,Win32,20.98327633,-27.60416667,2.9209,2.0317,NA,NA,NA,NA,NA,happy,"unhappy, happy","less happy, more happy",NA,NA,NA,NA,NA,NA,NA,NA,NA,NA,NA,NA,NA,NA,NA,0,1,1,0,1,NA,NA,NA,NA,NA,NA,NA,NA,NA,NA,NA,NA,NA,NA,NA,NA,NA,NA,NA,NA,NA,NA,NA,NA,NA,NA,NA,NA
SUPAMT83327,3ITXP059P2ILMMFHD7P4IADVO8DSJ0,64C14C13-2D70-4BC8-9B6C-530554E12423,2023-09-29_21h24.24.844,WP_VExplicitOC_LH,2022.2.5,Win32,20.98327633,-32.03125,2.9501,2.0498,NA,NA,NA,NA,NA,bored,"bored, not bored","more bored, less bored",NA,NA,NA,NA,NA,NA,NA,NA,NA,NA,NA,NA,NA,NA,NA,0,2,2,2,1,NA,NA,NA,NA,NA,NA,NA,NA,NA,NA,NA,NA,NA,NA,NA,NA,NA,NA,NA,NA,NA,NA,NA,NA,NA,NA,NA,NA
SUPAMT83327,3ITXP059P2ILMMFHD7P4IADVO8DSJ0,64C14C13-2D70-4BC8-9B6C-530554E12423,2023-09-29_21h24.24.844,WP_VExplicitOC_LH,2022.2.5,Win32,20.98327633,NA,NA,NA,NA,NA,NA,NA,NA,NA,NA,NA,NA,NA,NA,NA,NA,NA,NA,NA,NA,NA,NA,NA,NA,NA,NA,NA,NA,NA,NA,NA,13,0,13,0,1,NA,NA,NA,NA,NA,NA,NA,NA,NA,NA,NA,NA,NA,NA,NA,NA,NA,NA,NA,NA,NA,NA,NA
SUPAMT83327,3ITXP059P2ILMMFHD7P4IADVO8DSJ0,64C14C13-2D70-4BC8-9B6C-530554E12423,2023-09-29_21h24.24.844,WP_VExplicitOC_LH,2022.2.5,Win32,20.98327633,-28.64583333,3.3867,2.0477,NA,NA,NA,NA,NA,frustrated,"frustrated, not frustrated","more frustrated, less frustrated",NA,NA,NA,NA,NA,NA,NA,NA,NA,NA,NA,NA,NA,NA,NA,0,0,0,1,1,NA,NA,NA,NA,NA,NA,NA,NA,NA,NA,NA,NA,NA,NA,NA,NA,NA,NA,NA,NA,NA,NA,NA,NA,NA,NA,NA,NA
SUPAMT83327,3ITXP059P2ILMMFHD7P4IADVO8DSJ0,64C14C13-2D70-4BC8-9B6C-530554E12423,2023-09-29_21h24.24.844,WP_VExplicitOC_LH,2022.2.5,Win32,20.98327633,-44.01041667,3.3133,2.0329,NA,NA,NA,NA,NA,happy,"unhappy, happy","less happy, more happy",NA,NA,NA,NA,NA,NA,NA,NA,NA,NA,NA,NA,NA,NA,NA,0,1,1,0,1,NA,NA,NA,NA,NA,NA,NA,NA,NA,NA,NA,NA,NA,NA,NA,NA,NA,NA,NA,NA,NA,NA,NA,NA,NA,NA,NA,NA
SUPAMT83327,3ITXP059P2ILMMFHD7P4IADVO8DSJ0,64C14C13-2D70-4BC8-9B6C-530554E12423,2023-09-29_21h24.24.844,WP_VExplicitOC_LH,2022.2.5,Win32,20.98327633,-44.01041667,3.2456,2.0295,NA,NA,NA,NA,NA,bored,"bored, not bored","more bored, less bored",NA,NA,NA,NA,NA,NA,NA,NA,NA,NA,NA,NA,NA,NA,NA,0,2,2,2,1,NA,NA,NA,NA,NA,NA,NA,NA,NA,NA,NA,NA,NA,NA,NA,NA,NA,NA,NA,NA,NA,NA,NA,NA,NA,NA,NA,NA
SUPAMT83327,3ITXP059P2ILMMFHD7P4IADVO8DSJ0,64C14C13-2D70-4BC8-9B6C-530554E12423,2023-09-29_21h24.24.844,WP_VExplicitOC_LH,2022.2.5,Win32,20.98327633,NA,NA,NA,NA,NA,NA,NA,NA,NA,NA,NA,NA,NA,NA,NA,NA,NA,NA,NA,NA,NA,NA,NA,NA,NA,NA,NA,NA,NA,NA,NA,14,0,14,0,1,NA,NA,NA,NA,NA,NA,NA,NA,NA,NA,NA,NA,NA,NA,NA,NA,NA,NA,NA,NA,NA,NA,NA
SUPAMT83327,3ITXP059P2ILMMFHD7P4IADVO8DSJ0,64C14C13-2D70-4BC8-9B6C-530554E12423,2023-09-29_21h24.24.844,WP_VExplicitOC_LH,2022.2.5,Win32,20.98327633,NA,NA,NA,NA,NA,NA,NA,NA,NA,NA,NA,NA,NA,NA,NA,NA,NA,NA,NA,NA,NA,NA,NA,NA,NA,NA,NA,NA,NA,NA,NA,NA,NA,NA,NA,NA,NA,NA,NA,NA,NA,NA,NA,NA,NA,NA,NA,NA,NA,NA,NA,NA,NA,NA,NA,NA,NA,NA,NA
SUPAMT83327,3ITXP059P2ILMMFHD7P4IADVO8DSJ0,64C14C13-2D70-4BC8-9B6C-530554E12423,2023-09-29_21h24.24.844,WP_VExplicitOC_LH,2022.2.5,Win32,20.98327633,NA,NA,NA,NA,NA,NA,NA,NA,NA,NA,NA,NA,NA,NA,NA,NA,NA,NA,NA,NA,NA,NA,NA,NA,NA,NA,NA,NA,NA,NA,NA,NA,NA,NA,NA,NA,NA,NA,NA,NA,NA,NA,NA,NA,NA,NA,NA,NA,NA,NA,NA,NA,NA,NA,NA,NA,NA,NA,NA
SUPAMT83327,3ITXP059P2ILMMFHD7P4IADVO8DSJ0,64C14C13-2D70-4BC8-9B6C-530554E12423,2023-09-29_21h24.24.844,WP_VExplicitOC_LH,2022.2.5,Win32,20.98327633,NA,NA,NA,NA,NA,NA,NA,NA,NA,NA,NA,NA,NA,NA,NA,NA,NA,NA,rest (looking at a fixed cross),001.png,NA,NA,NA,NA,NA,NA,NA,NA,NA,NA,NA,NA,NA,NA,NA,NA,NA,NA,0,0,0,0,1,NA,NA,NA,NA,NA,NA,NA,NA,NA,NA,NA,NA,NA,NA,NA,NA
SUPAMT83327,3ITXP059P2ILMMFHD7P4IADVO8DSJ0,64C14C13-2D70-4BC8-9B6C-530554E12423,2023-09-29_21h24.24.844,WP_VExplicitOC_LH,2022.2.5,Win32,20.98327633,NA,NA,NA,NA,NA,NA,NA,NA,NA,NA,NA,NA,NA,NA,NA,NA,NA,NA,stand up,002.png,NA,NA,NA,NA,NA,NA,NA,NA,NA,NA,NA,NA,NA,NA,NA,NA,35.9375,2.1234,0,1,1,1,1,NA,NA,NA,NA,NA,NA,NA,NA,NA,NA,NA,NA,NA,NA,NA,NA
SUPAMT83327,3ITXP059P2ILMMFHD7P4IADVO8DSJ0,64C14C13-2D70-4BC8-9B6C-530554E12423,2023-09-29_21h24.24.844,WP_VExplicitOC_LH,2022.2.5,Win32,20.98327633,NA,NA,NA,NA,NA,NA,NA,NA,NA,NA,NA,NA,NA,NA,NA,NA,NA,NA,stretch,003.png,NA,NA,NA,NA,NA,NA,NA,NA,NA,NA,NA,NA,NA,NA,NA,NA,43.22916667,1.4163,0,2,2,2,1,NA,NA,NA,NA,NA,NA,NA,NA,NA,NA,NA,NA,NA,NA,NA,NA
SUPAMT83327,3ITXP059P2ILMMFHD7P4IADVO8DSJ0,64C14C13-2D70-4BC8-9B6C-530554E12423,2023-09-29_21h24.24.844,WP_VExplicitOC_LH,2022.2.5,Win32,20.98327633,NA,NA,NA,NA,NA,NA,NA,NA,NA,NA,NA,NA,NA,NA,NA,NA,NA,NA,make a drink,004.png,NA,NA,NA,NA,NA,NA,NA,NA,NA,NA,NA,NA,NA,NA,NA,NA,46.61458333,0.6016,0,3,3,3,1,NA,NA,NA,NA,NA,NA,NA,NA,NA,NA,NA,NA,NA,NA,NA,NA
SUPAMT83327,3ITXP059P2ILMMFHD7P4IADVO8DSJ0,64C14C13-2D70-4BC8-9B6C-530554E12423,2023-09-29_21h24.24.844,WP_VExplicitOC_LH,2022.2.5,Win32,20.98327633,NA,NA,NA,NA,NA,NA,NA,NA,NA,NA,NA,NA,NA,NA,NA,NA,NA,NA,scroll social media,005.png,NA,NA,NA,NA,NA,NA,NA,NA,NA,NA,NA,NA,NA,NA,NA,NA,47.13541667,1.6654,0,4,4,4,1,NA,NA,NA,NA,NA,NA,NA,NA,NA,NA,NA,NA,NA,NA,NA,NA
SUPAMT83327,3ITXP059P2ILMMFHD7P4IADVO8DSJ0,64C14C13-2D70-4BC8-9B6C-530554E12423,2023-09-29_21h24.24.844,WP_VExplicitOC_LH,2022.2.5,Win32,20.98327633,NA,NA,NA,NA,NA,NA,NA,NA,NA,NA,NA,NA,NA,NA,NA,NA,NA,NA,listen to music,006.png,NA,NA,NA,NA,NA,NA,NA,NA,NA,NA,NA,NA,NA,NA,NA,NA,82.55208333,2.6303,0,5,5,5,1,NA,NA,NA,NA,NA,NA,NA,NA,NA,NA,NA,NA,NA,NA,NA,NA
SUPAMT83327,3ITXP059P2ILMMFHD7P4IADVO8DSJ0,64C14C13-2D70-4BC8-9B6C-530554E12423,2023-09-29_21h24.24.844,WP_VExplicitOC_LH,2022.2.5,Win32,20.98327633,NA,NA,NA,NA,NA,NA,NA,NA,NA,NA,NA,NA,NA,NA,NA,NA,NA,NA,daydream,007.png,NA,NA,NA,NA,NA,NA,NA,NA,NA,NA,NA,NA,NA,NA,NA,NA,42.70833333,2.0987,0,6,6,6,1,NA,NA,NA,NA,NA,NA,NA,NA,NA,NA,NA,NA,NA,NA,NA,NA
SUPAMT83327,3ITXP059P2ILMMFHD7P4IADVO8DSJ0,64C14C13-2D70-4BC8-9B6C-530554E12423,2023-09-29_21h24.24.844,WP_VExplicitOC_LH,2022.2.5,Win32,20.98327633,NA,NA,NA,NA,NA,NA,NA,NA,NA,NA,NA,NA,NA,NA,NA,NA,NA,NA,watch a short animation,008.png,NA,NA,NA,NA,NA,NA,NA,NA,NA,NA,NA,NA,NA,NA,NA,NA,98.95833333,2.1291,0,7,7,7,1,NA,NA,NA,NA,NA,NA,NA,NA,NA,NA,NA,NA,NA,NA,NA,NA
SUPAMT83327,3ITXP059P2ILMMFHD7P4IADVO8DSJ0,64C14C13-2D70-4BC8-9B6C-530554E12423,2023-09-29_21h24.24.844,WP_VExplicitOC_LH,2022.2.5,Win32,20.98327633,NA,NA,NA,NA,NA,NA,NA,NA,NA,NA,NA,NA,NA,NA,NA,NA,NA,NA,read a novel,009.png,NA,NA,NA,NA,NA,NA,NA,NA,NA,NA,NA,NA,NA,NA,NA,NA,-36.19791667,1.7617,0,8,8,8,1,NA,NA,NA,NA,NA,NA,NA,NA,NA,NA,NA,NA,NA,NA,NA,NA
SUPAMT83327,3ITXP059P2ILMMFHD7P4IADVO8DSJ0,64C14C13-2D70-4BC8-9B6C-530554E12423,2023-09-29_21h24.24.844,WP_VExplicitOC_LH,2022.2.5,Win32,20.98327633,NA,NA,NA,NA,NA,NA,NA,NA,NA,NA,NA,NA,NA,NA,NA,NA,NA,NA,read the news,010.png,NA,NA,NA,NA,NA,NA,NA,NA,NA,NA,NA,NA,NA,NA,NA,NA,-62.76041667,1.3164,0,9,9,9,1,NA,NA,NA,NA,NA,NA,NA,NA,NA,NA,NA,NA,NA,NA,NA,NA
SUPAMT83327,3ITXP059P2ILMMFHD7P4IADVO8DSJ0,64C14C13-2D70-4BC8-9B6C-530554E12423,2023-09-29_21h24.24.844,WP_VExplicitOC_LH,2022.2.5,Win32,20.98327633,NA,NA,NA,NA,NA,NA,NA,NA,NA,NA,NA,NA,NA,NA,NA,NA,NA,NA,NA,NA,NA,NA,NA,NA,NA,NA,NA,NA,NA,NA,NA,NA,NA,NA,NA,NA,NA,NA,NA,NA,NA,NA,NA,daydream,NA,NA,NA,NA,NA,NA,NA,NA,NA,NA,NA,NA,NA,NA,NA
SUPAMT83327,3ITXP059P2ILMMFHD7P4IADVO8DSJ0,64C14C13-2D70-4BC8-9B6C-530554E12423,2023-09-29_21h24.24.844,WP_VExplicitOC_LH,2022.2.5,Win32,20.98327633,67.44791667,4.3729,2.022,NA,NA,NA,NA,NA,happy,"unhappy, happy","less happy, more happy",NA,NA,NA,NA,NA,NA,NA,NA,NA,NA,NA,NA,NA,NA,NA,NA,NA,NA,NA,NA,NA,NA,NA,NA,NA,NA,NA,NA,NA,NA,NA,NA,NA,0,0,0,0,1,NA,NA,NA,NA,NA,NA,NA,NA,NA,NA
SUPAMT83327,3ITXP059P2ILMMFHD7P4IADVO8DSJ0,64C14C13-2D70-4BC8-9B6C-530554E12423,2023-09-29_21h24.24.844,WP_VExplicitOC_LH,2022.2.5,Win32,20.98327633,69.27083333,3.8074,2.0305,NA,NA,NA,NA,NA,bored,"bored, not bored","more bored, less bored",NA,NA,NA,NA,NA,NA,NA,NA,NA,NA,NA,NA,NA,NA,NA,NA,NA,NA,NA,NA,NA,NA,NA,NA,NA,NA,NA,NA,NA,NA,NA,NA,NA,0,1,1,2,1,NA,NA,NA,NA,NA,NA,NA,NA,NA,NA
SUPAMT83327,3ITXP059P2ILMMFHD7P4IADVO8DSJ0,64C14C13-2D70-4BC8-9B6C-530554E12423,2023-09-29_21h24.24.844,WP_VExplicitOC_LH,2022.2.5,Win32,20.98327633,69.53125,2.8827,2.0377,NA,NA,NA,NA,NA,frustrated,"frustrated, not frustrated","more frustrated, less frustrated",NA,NA,NA,NA,NA,NA,NA,NA,NA,NA,NA,NA,NA,NA,NA,NA,NA,NA,NA,NA,NA,NA,NA,NA,NA,NA,NA,NA,NA,NA,NA,NA,NA,0,2,2,1,1,NA,NA,NA,NA,NA,NA,NA,NA,NA,NA
SUPAMT83327,3ITXP059P2ILMMFHD7P4IADVO8DSJ0,64C14C13-2D70-4BC8-9B6C-530554E12423,2023-09-29_21h24.24.844,WP_VExplicitOC_LH,2022.2.5,Win32,20.98327633,NA,NA,NA,NA,NA,NA,NA,NA,NA,NA,NA,NA,NA,NA,NA,NA,NA,NA,NA,NA,NA,NA,NA,NA,NA,NA,NA,NA,NA,NA,NA,NA,NA,NA,NA,NA,NA,NA,NA,NA,NA,NA,NA,NA,NA,NA,NA,NA,NA,NA,NA,NA,NA,NA,NA,NA,NA,NA,NA
SUPAMT83327,3ITXP059P2ILMMFHD7P4IADVO8DSJ0,64C14C13-2D70-4BC8-9B6C-530554E12423,2023-09-29_21h24.24.844,WP_VExplicitOC_LH,2022.2.5,Win32,20.98327633,NA,NA,NA,NA,NA,NA,NA,NA,NA,NA,NA,NA,NA,NA,NA,NA,NA,NA,NA,NA,NA,NA,NA,NA,NA,NA,NA,NA,NA,NA,NA,NA,NA,NA,NA,NA,NA,NA,NA,NA,NA,NA,NA,NA,NA,NA,NA,NA,NA,NA,NA,NA,NA,NA,NA,NA,NA,NA,NA
SUPAMT83327,3ITXP059P2ILMMFHD7P4IADVO8DSJ0,64C14C13-2D70-4BC8-9B6C-530554E12423,2023-09-29_21h24.24.844,WP_VExplicitOC_LH,2022.2.5,Win32,20.98327633,36.19791667,3.8418,2.0345,NA,NA,NA,NA,NA,frustrated,"frustrated, not frustrated","more frustrated, less frustrated",NA,NA,NA,NA,NA,NA,NA,NA,NA,NA,NA,NA,NA,NA,NA,NA,NA,NA,NA,NA,NA,NA,NA,NA,NA,NA,NA,NA,NA,NA,NA,NA,NA,NA,NA,NA,NA,NA,0,0,0,1,1,NA,NA,NA,NA,NA
SUPAMT83327,3ITXP059P2ILMMFHD7P4IADVO8DSJ0,64C14C13-2D70-4BC8-9B6C-530554E12423,2023-09-29_21h24.24.844,WP_VExplicitOC_LH,2022.2.5,Win32,20.98327633,37.76041667,3.2838,2.0617,NA,NA,NA,NA,NA,bored,"bored, not bored","more bored, less bored",NA,NA,NA,NA,NA,NA,NA,NA,NA,NA,NA,NA,NA,NA,NA,NA,NA,NA,NA,NA,NA,NA,NA,NA,NA,NA,NA,NA,NA,NA,NA,NA,NA,NA,NA,NA,NA,NA,0,1,1,2,1,NA,NA,NA,NA,NA
SUPAMT83327,3ITXP059P2ILMMFHD7P4IADVO8DSJ0,64C14C13-2D70-4BC8-9B6C-530554E12423,2023-09-29_21h24.24.844,WP_VExplicitOC_LH,2022.2.5,Win32,20.98327633,-31.25,6.8869,2.0316,NA,NA,NA,NA,NA,happy,"unhappy, happy","less happy, more happy",NA,NA,NA,NA,NA,NA,NA,NA,NA,NA,NA,NA,NA,NA,NA,NA,NA,NA,NA,NA,NA,NA,NA,NA,NA,NA,NA,NA,NA,NA,NA,NA,NA,NA,NA,NA,NA,NA,0,2,2,0,1,NA,NA,NA,NA,NA
SUPAMT83327,3ITXP059P2ILMMFHD7P4IADVO8DSJ0,64C14C13-2D70-4BC8-9B6C-530554E12423,2023-09-29_21h24.24.844,WP_VExplicitOC_LH,2022.2.5,Win32,20.98327633,NA,NA,NA,NA,NA,NA,NA,NA,NA,NA,NA,NA,NA,NA,NA,NA,NA,NA,NA,NA,NA,NA,NA,NA,NA,NA,NA,NA,NA,NA,NA,NA,NA,NA,NA,NA,NA,NA,NA,NA,NA,NA,NA,NA,NA,NA,NA,NA,NA,NA,NA,NA,NA,NA,0,0,0,0,1
SUPAMT83327,3ITXP059P2ILMMFHD7P4IADVO8DSJ0,64C14C13-2D70-4BC8-9B6C-530554E12423,2023-09-29_21h24.24.844,WP_VExplicitOC_LH,2022.2.5,Win32,20.98327633,-31.77083333,2.6778,2.0332,NA,NA,NA,NA,NA,bored,"bored, not bored","more bored, less bored",NA,NA,NA,NA,NA,NA,NA,NA,NA,NA,NA,NA,NA,NA,NA,NA,NA,NA,NA,NA,NA,NA,NA,NA,NA,NA,NA,NA,NA,NA,NA,NA,NA,NA,NA,NA,NA,NA,0,0,0,2,1,NA,NA,NA,NA,NA
SUPAMT83327,3ITXP059P2ILMMFHD7P4IADVO8DSJ0,64C14C13-2D70-4BC8-9B6C-530554E12423,2023-09-29_21h24.24.844,WP_VExplicitOC_LH,2022.2.5,Win32,20.98327633,-31.77083333,2.299,2.0369,NA,NA,NA,NA,NA,happy,"unhappy, happy","less happy, more happy",NA,NA,NA,NA,NA,NA,NA,NA,NA,NA,NA,NA,NA,NA,NA,NA,NA,NA,NA,NA,NA,NA,NA,NA,NA,NA,NA,NA,NA,NA,NA,NA,NA,NA,NA,NA,NA,NA,0,1,1,0,1,NA,NA,NA,NA,NA
SUPAMT83327,3ITXP059P2ILMMFHD7P4IADVO8DSJ0,64C14C13-2D70-4BC8-9B6C-530554E12423,2023-09-29_21h24.24.844,WP_VExplicitOC_LH,2022.2.5,Win32,20.98327633,-31.77083333,2.8726,2.0373,NA,NA,NA,NA,NA,frustrated,"frustrated, not frustrated","more frustrated, less frustrated",NA,NA,NA,NA,NA,NA,NA,NA,NA,NA,NA,NA,NA,NA,NA,NA,NA,NA,NA,NA,NA,NA,NA,NA,NA,NA,NA,NA,NA,NA,NA,NA,NA,NA,NA,NA,NA,NA,0,2,2,1,1,NA,NA,NA,NA,NA
SUPAMT83327,3ITXP059P2ILMMFHD7P4IADVO8DSJ0,64C14C13-2D70-4BC8-9B6C-530554E12423,2023-09-29_21h24.24.844,WP_VExplicitOC_LH,2022.2.5,Win32,20.98327633,NA,NA,NA,NA,NA,NA,NA,NA,NA,NA,NA,NA,NA,NA,NA,NA,NA,NA,NA,NA,NA,NA,NA,NA,NA,NA,NA,NA,NA,NA,NA,NA,NA,NA,NA,NA,NA,NA,NA,NA,NA,NA,NA,NA,NA,NA,NA,NA,NA,NA,NA,NA,NA,NA,1,0,1,0,1
SUPAMT83327,3ITXP059P2ILMMFHD7P4IADVO8DSJ0,64C14C13-2D70-4BC8-9B6C-530554E12423,2023-09-29_21h24.24.844,WP_VExplicitOC_LH,2022.2.5,Win32,20.98327633,-30.98958333,2.9903,2.0304,NA,NA,NA,NA,NA,happy,"unhappy, happy","less happy, more happy",NA,NA,NA,NA,NA,NA,NA,NA,NA,NA,NA,NA,NA,NA,NA,NA,NA,NA,NA,NA,NA,NA,NA,NA,NA,NA,NA,NA,NA,NA,NA,NA,NA,NA,NA,NA,NA,NA,0,0,0,0,1,NA,NA,NA,NA,NA
SUPAMT83327,3ITXP059P2ILMMFHD7P4IADVO8DSJ0,64C14C13-2D70-4BC8-9B6C-530554E12423,2023-09-29_21h24.24.844,WP_VExplicitOC_LH,2022.2.5,Win32,20.98327633,-48.17708333,2.3589,2.0336,NA,NA,NA,NA,NA,bored,"bored, not bored","more bored, less bored",NA,NA,NA,NA,NA,NA,NA,NA,NA,NA,NA,NA,NA,NA,NA,NA,NA,NA,NA,NA,NA,NA,NA,NA,NA,NA,NA,NA,NA,NA,NA,NA,NA,NA,NA,NA,NA,NA,0,1,1,2,1,NA,NA,NA,NA,NA
SUPAMT83327,3ITXP059P2ILMMFHD7P4IADVO8DSJ0,64C14C13-2D70-4BC8-9B6C-530554E12423,2023-09-29_21h24.24.844,WP_VExplicitOC_LH,2022.2.5,Win32,20.98327633,-48.17708333,3.1857,2.0423,NA,NA,NA,NA,NA,frustrated,"frustrated, not frustrated","more frustrated, less frustrated",NA,NA,NA,NA,NA,NA,NA,NA,NA,NA,NA,NA,NA,NA,NA,NA,NA,NA,NA,NA,NA,NA,NA,NA,NA,NA,NA,NA,NA,NA,NA,NA,NA,NA,NA,NA,NA,NA,0,2,2,1,1,NA,NA,NA,NA,NA
SUPAMT83327,3ITXP059P2ILMMFHD7P4IADVO8DSJ0,64C14C13-2D70-4BC8-9B6C-530554E12423,2023-09-29_21h24.24.844,WP_VExplicitOC_LH,2022.2.5,Win32,20.98327633,NA,NA,NA,NA,NA,NA,NA,NA,NA,NA,NA,NA,NA,NA,NA,NA,NA,NA,NA,NA,NA,NA,NA,NA,NA,NA,NA,NA,NA,NA,NA,NA,NA,NA,NA,NA,NA,NA,NA,NA,NA,NA,NA,NA,NA,NA,NA,NA,NA,NA,NA,NA,NA,NA,2,0,2,0,1
SUPAMT83327,3ITXP059P2ILMMFHD7P4IADVO8DSJ0,64C14C13-2D70-4BC8-9B6C-530554E12423,2023-09-29_21h24.24.844,WP_VExplicitOC_LH,2022.2.5,Win32,20.98327633,-42.96875,6.8882,2.0327,NA,NA,NA,NA,NA,happy,"unhappy, happy","less happy, more happy",NA,NA,NA,NA,NA,NA,NA,NA,NA,NA,NA,NA,NA,NA,NA,NA,NA,NA,NA,NA,NA,NA,NA,NA,NA,NA,NA,NA,NA,NA,NA,NA,NA,NA,NA,NA,NA,NA,0,0,0,0,1,NA,NA,NA,NA,NA
SUPAMT83327,3ITXP059P2ILMMFHD7P4IADVO8DSJ0,64C14C13-2D70-4BC8-9B6C-530554E12423,2023-09-29_21h24.24.844,WP_VExplicitOC_LH,2022.2.5,Win32,20.98327633,-36.71875,2.8706,2.0264,NA,NA,NA,NA,NA,frustrated,"frustrated, not frustrated","more frustrated, less frustrated",NA,NA,NA,NA,NA,NA,NA,NA,NA,NA,NA,NA,NA,NA,NA,NA,NA,NA,NA,NA,NA,NA,NA,NA,NA,NA,NA,NA,NA,NA,NA,NA,NA,NA,NA,NA,NA,NA,0,1,1,1,1,NA,NA,NA,NA,NA
SUPAMT83327,3ITXP059P2ILMMFHD7P4IADVO8DSJ0,64C14C13-2D70-4BC8-9B6C-530554E12423,2023-09-29_21h24.24.844,WP_VExplicitOC_LH,2022.2.5,Win32,20.98327633,-60.9375,2.2273,2.0312,NA,NA,NA,NA,NA,bored,"bored, not bored","more bored, less bored",NA,NA,NA,NA,NA,NA,NA,NA,NA,NA,NA,NA,NA,NA,NA,NA,NA,NA,NA,NA,NA,NA,NA,NA,NA,NA,NA,NA,NA,NA,NA,NA,NA,NA,NA,NA,NA,NA,0,2,2,2,1,NA,NA,NA,NA,NA
SUPAMT83327,3ITXP059P2ILMMFHD7P4IADVO8DSJ0,64C14C13-2D70-4BC8-9B6C-530554E12423,2023-09-29_21h24.24.844,WP_VExplicitOC_LH,2022.2.5,Win32,20.98327633,NA,NA,NA,NA,NA,NA,NA,NA,NA,NA,NA,NA,NA,NA,NA,NA,NA,NA,NA,NA,NA,NA,NA,NA,NA,NA,NA,NA,NA,NA,NA,NA,NA,NA,NA,NA,NA,NA,NA,NA,NA,NA,NA,NA,NA,NA,NA,NA,NA,NA,NA,NA,NA,NA,3,0,3,0,1
SUPAMT83327,3ITXP059P2ILMMFHD7P4IADVO8DSJ0,64C14C13-2D70-4BC8-9B6C-530554E12423,2023-09-29_21h24.24.844,WP_VExplicitOC_LH,2022.2.5,Win32,20.98327633,-60.9375,4.3384,2.0317,NA,NA,NA,NA,NA,happy,"unhappy, happy","less happy, more happy",NA,NA,NA,NA,NA,NA,NA,NA,NA,NA,NA,NA,NA,NA,NA,NA,NA,NA,NA,NA,NA,NA,NA,NA,NA,NA,NA,NA,NA,NA,NA,NA,NA,NA,NA,NA,NA,NA,0,0,0,0,1,NA,NA,NA,NA,NA
SUPAMT83327,3ITXP059P2ILMMFHD7P4IADVO8DSJ0,64C14C13-2D70-4BC8-9B6C-530554E12423,2023-09-29_21h24.24.844,WP_VExplicitOC_LH,2022.2.5,Win32,20.98327633,-62.5,2.8845,2.0377,NA,NA,NA,NA,NA,frustrated,"frustrated, not frustrated","more frustrated, less frustrated",NA,NA,NA,NA,NA,NA,NA,NA,NA,NA,NA,NA,NA,NA,NA,NA,NA,NA,NA,NA,NA,NA,NA,NA,NA,NA,NA,NA,NA,NA,NA,NA,NA,NA,NA,NA,NA,NA,0,1,1,1,1,NA,NA,NA,NA,NA
SUPAMT83327,3ITXP059P2ILMMFHD7P4IADVO8DSJ0,64C14C13-2D70-4BC8-9B6C-530554E12423,2023-09-29_21h24.24.844,WP_VExplicitOC_LH,2022.2.5,Win32,20.98327633,-86.71875,2.4937,2.0381,NA,NA,NA,NA,NA,bored,"bored, not bored","more bored, less bored",NA,NA,NA,NA,NA,NA,NA,NA,NA,NA,NA,NA,NA,NA,NA,NA,NA,NA,NA,NA,NA,NA,NA,NA,NA,NA,NA,NA,NA,NA,NA,NA,NA,NA,NA,NA,NA,NA,0,2,2,2,1,NA,NA,NA,NA,NA
SUPAMT83327,3ITXP059P2ILMMFHD7P4IADVO8DSJ0,64C14C13-2D70-4BC8-9B6C-530554E12423,2023-09-29_21h24.24.844,WP_VExplicitOC_LH,2022.2.5,Win32,20.98327633,NA,NA,NA,NA,NA,NA,NA,NA,NA,NA,NA,NA,NA,NA,NA,NA,NA,NA,NA,NA,NA,NA,NA,NA,NA,NA,NA,NA,NA,NA,NA,NA,NA,NA,NA,NA,NA,NA,NA,NA,NA,NA,NA,NA,NA,NA,NA,NA,NA,NA,NA,NA,NA,NA,4,0,4,0,1
SUPAMT83327,3ITXP059P2ILMMFHD7P4IADVO8DSJ0,64C14C13-2D70-4BC8-9B6C-530554E12423,2023-09-29_21h24.24.844,WP_VExplicitOC_LH,2022.2.5,Win32,20.98327633,-45.57291667,2.7781,2.0142,NA,NA,NA,NA,NA,bored,"bored, not bored","more bored, less bored",NA,NA,NA,NA,NA,NA,NA,NA,NA,NA,NA,NA,NA,NA,NA,NA,NA,NA,NA,NA,NA,NA,NA,NA,NA,NA,NA,NA,NA,NA,NA,NA,NA,NA,NA,NA,NA,NA,0,0,0,2,1,NA,NA,NA,NA,NA
SUPAMT83327,3ITXP059P2ILMMFHD7P4IADVO8DSJ0,64C14C13-2D70-4BC8-9B6C-530554E12423,2023-09-29_21h24.24.844,WP_VExplicitOC_LH,2022.2.5,Win32,20.98327633,-53.125,3.1934,2.034,NA,NA,NA,NA,NA,happy,"unhappy, happy","less happy, more happy",NA,NA,NA,NA,NA,NA,NA,NA,NA,NA,NA,NA,NA,NA,NA,NA,NA,NA,NA,NA,NA,NA,NA,NA,NA,NA,NA,NA,NA,NA,NA,NA,NA,NA,NA,NA,NA,NA,0,1,1,0,1,NA,NA,NA,NA,NA
SUPAMT83327,3ITXP059P2ILMMFHD7P4IADVO8DSJ0,64C14C13-2D70-4BC8-9B6C-530554E12423,2023-09-29_21h24.24.844,WP_VExplicitOC_LH,2022.2.5,Win32,20.98327633,-53.125,3.0704,2.0324,NA,NA,NA,NA,NA,frustrated,"frustrated, not frustrated","more frustrated, less frustrated",NA,NA,NA,NA,NA,NA,NA,NA,NA,NA,NA,NA,NA,NA,NA,NA,NA,NA,NA,NA,NA,NA,NA,NA,NA,NA,NA,NA,NA,NA,NA,NA,NA,NA,NA,NA,NA,NA,0,2,2,1,1,NA,NA,NA,NA,NA
SUPAMT83327,3ITXP059P2ILMMFHD7P4IADVO8DSJ0,64C14C13-2D70-4BC8-9B6C-530554E12423,2023-09-29_21h24.24.844,WP_VExplicitOC_LH,2022.2.5,Win32,20.98327633,NA,NA,NA,NA,NA,NA,NA,NA,NA,NA,NA,NA,NA,NA,NA,NA,NA,NA,NA,NA,NA,NA,NA,NA,NA,NA,NA,NA,NA,NA,NA,NA,NA,NA,NA,NA,NA,NA,NA,NA,NA,NA,NA,NA,NA,NA,NA,NA,NA,NA,NA,NA,NA,NA,5,0,5,0,1
SUPAMT83327,3ITXP059P2ILMMFHD7P4IADVO8DSJ0,64C14C13-2D70-4BC8-9B6C-530554E12423,2023-09-29_21h24.24.844,WP_VExplicitOC_LH,2022.2.5,Win32,20.98327633,-53.125,2.4158,2.0253,NA,NA,NA,NA,NA,happy,"unhappy, happy","less happy, more happy",NA,NA,NA,NA,NA,NA,NA,NA,NA,NA,NA,NA,NA,NA,NA,NA,NA,NA,NA,NA,NA,NA,NA,NA,NA,NA,NA,NA,NA,NA,NA,NA,NA,NA,NA,NA,NA,NA,0,0,0,0,1,NA,NA,NA,NA,NA
SUPAMT83327,3ITXP059P2ILMMFHD7P4IADVO8DSJ0,64C14C13-2D70-4BC8-9B6C-530554E12423,2023-09-29_21h24.24.844,WP_VExplicitOC_LH,2022.2.5,Win32,20.98327633,-76.82291667,3.5015,2.0322,NA,NA,NA,NA,NA,bored,"bored, not bored","more bored, less bored",NA,NA,NA,NA,NA,NA,NA,NA,NA,NA,NA,NA,NA,NA,NA,NA,NA,NA,NA,NA,NA,NA,NA,NA,NA,NA,NA,NA,NA,NA,NA,NA,NA,NA,NA,NA,NA,NA,0,1,1,2,1,NA,NA,NA,NA,NA
SUPAMT83327,3ITXP059P2ILMMFHD7P4IADVO8DSJ0,64C14C13-2D70-4BC8-9B6C-530554E12423,2023-09-29_21h24.24.844,WP_VExplicitOC_LH,2022.2.5,Win32,20.98327633,-44.79166667,3.0577,2.04,NA,NA,NA,NA,NA,frustrated,"frustrated, not frustrated","more frustrated, less frustrated",NA,NA,NA,NA,NA,NA,NA,NA,NA,NA,NA,NA,NA,NA,NA,NA,NA,NA,NA,NA,NA,NA,NA,NA,NA,NA,NA,NA,NA,NA,NA,NA,NA,NA,NA,NA,NA,NA,0,2,2,1,1,NA,NA,NA,NA,NA
SUPAMT83327,3ITXP059P2ILMMFHD7P4IADVO8DSJ0,64C14C13-2D70-4BC8-9B6C-530554E12423,2023-09-29_21h24.24.844,WP_VExplicitOC_LH,2022.2.5,Win32,20.98327633,NA,NA,NA,NA,NA,NA,NA,NA,NA,NA,NA,NA,NA,NA,NA,NA,NA,NA,NA,NA,NA,NA,NA,NA,NA,NA,NA,NA,NA,NA,NA,NA,NA,NA,NA,NA,NA,NA,NA,NA,NA,NA,NA,NA,NA,NA,NA,NA,NA,NA,NA,NA,NA,NA,6,0,6,0,1
SUPAMT83327,3ITXP059P2ILMMFHD7P4IADVO8DSJ0,64C14C13-2D70-4BC8-9B6C-530554E12423,2023-09-29_21h24.24.844,WP_VExplicitOC_LH,2022.2.5,Win32,20.98327633,-50.78125,3.1373,2.035,NA,NA,NA,NA,NA,happy,"unhappy, happy","less happy, more happy",NA,NA,NA,NA,NA,NA,NA,NA,NA,NA,NA,NA,NA,NA,NA,NA,NA,NA,NA,NA,NA,NA,NA,NA,NA,NA,NA,NA,NA,NA,NA,NA,NA,NA,NA,NA,NA,NA,0,0,0,0,1,NA,NA,NA,NA,NA
SUPAMT83327,3ITXP059P2ILMMFHD7P4IADVO8DSJ0,64C14C13-2D70-4BC8-9B6C-530554E12423,2023-09-29_21h24.24.844,WP_VExplicitOC_LH,2022.2.5,Win32,20.98327633,-30.98958333,2.9216,2.0348,NA,NA,NA,NA,NA,bored,"bored, not bored","more bored, less bored",NA,NA,NA,NA,NA,NA,NA,NA,NA,NA,NA,NA,NA,NA,NA,NA,NA,NA,NA,NA,NA,NA,NA,NA,NA,NA,NA,NA,NA,NA,NA,NA,NA,NA,NA,NA,NA,NA,0,1,1,2,1,NA,NA,NA,NA,NA
SUPAMT83327,3ITXP059P2ILMMFHD7P4IADVO8DSJ0,64C14C13-2D70-4BC8-9B6C-530554E12423,2023-09-29_21h24.24.844,WP_VExplicitOC_LH,2022.2.5,Win32,20.98327633,-45.83333333,3.2708,2.0448,NA,NA,NA,NA,NA,frustrated,"frustrated, not frustrated","more frustrated, less frustrated",NA,NA,NA,NA,NA,NA,NA,NA,NA,NA,NA,NA,NA,NA,NA,NA,NA,NA,NA,NA,NA,NA,NA,NA,NA,NA,NA,NA,NA,NA,NA,NA,NA,NA,NA,NA,NA,NA,0,2,2,1,1,NA,NA,NA,NA,NA
SUPAMT83327,3ITXP059P2ILMMFHD7P4IADVO8DSJ0,64C14C13-2D70-4BC8-9B6C-530554E12423,2023-09-29_21h24.24.844,WP_VExplicitOC_LH,2022.2.5,Win32,20.98327633,NA,NA,NA,NA,NA,NA,NA,NA,NA,NA,NA,NA,NA,NA,NA,NA,NA,NA,NA,NA,NA,NA,NA,NA,NA,NA,NA,NA,NA,NA,NA,NA,NA,NA,NA,NA,NA,NA,NA,NA,NA,NA,NA,NA,NA,NA,NA,NA,NA,NA,NA,NA,NA,NA,7,0,7,0,1
SUPAMT83327,3ITXP059P2ILMMFHD7P4IADVO8DSJ0,64C14C13-2D70-4BC8-9B6C-530554E12423,2023-09-29_21h24.24.844,WP_VExplicitOC_LH,2022.2.5,Win32,20.98327633,-30.20833333,3.9537,2.0386,NA,NA,NA,NA,NA,bored,"bored, not bored","more bored, less bored",NA,NA,NA,NA,NA,NA,NA,NA,NA,NA,NA,NA,NA,NA,NA,NA,NA,NA,NA,NA,NA,NA,NA,NA,NA,NA,NA,NA,NA,NA,NA,NA,NA,NA,NA,NA,NA,NA,0,0,0,2,1,NA,NA,NA,NA,NA
SUPAMT83327,3ITXP059P2ILMMFHD7P4IADVO8DSJ0,64C14C13-2D70-4BC8-9B6C-530554E12423,2023-09-29_21h24.24.844,WP_VExplicitOC_LH,2022.2.5,Win32,20.98327633,-47.39583333,2.5967,2.0244,NA,NA,NA,NA,NA,happy,"unhappy, happy","less happy, more happy",NA,NA,NA,NA,NA,NA,NA,NA,NA,NA,NA,NA,NA,NA,NA,NA,NA,NA,NA,NA,NA,NA,NA,NA,NA,NA,NA,NA,NA,NA,NA,NA,NA,NA,NA,NA,NA,NA,0,1,1,0,1,NA,NA,NA,NA,NA
SUPAMT83327,3ITXP059P2ILMMFHD7P4IADVO8DSJ0,64C14C13-2D70-4BC8-9B6C-530554E12423,2023-09-29_21h24.24.844,WP_VExplicitOC_LH,2022.2.5,Win32,20.98327633,-32.03125,2.4316,2.0407,NA,NA,NA,NA,NA,frustrated,"frustrated, not frustrated","more frustrated, less frustrated",NA,NA,NA,NA,NA,NA,NA,NA,NA,NA,NA,NA,NA,NA,NA,NA,NA,NA,NA,NA,NA,NA,NA,NA,NA,NA,NA,NA,NA,NA,NA,NA,NA,NA,NA,NA,NA,NA,0,2,2,1,1,NA,NA,NA,NA,NA
SUPAMT83327,3ITXP059P2ILMMFHD7P4IADVO8DSJ0,64C14C13-2D70-4BC8-9B6C-530554E12423,2023-09-29_21h24.24.844,WP_VExplicitOC_LH,2022.2.5,Win32,20.98327633,NA,NA,NA,NA,NA,NA,NA,NA,NA,NA,NA,NA,NA,NA,NA,NA,NA,NA,NA,NA,NA,NA,NA,NA,NA,NA,NA,NA,NA,NA,NA,NA,NA,NA,NA,NA,NA,NA,NA,NA,NA,NA,NA,NA,NA,NA,NA,NA,NA,NA,NA,NA,NA,NA,8,0,8,0,1
SUPAMT83327,3ITXP059P2ILMMFHD7P4IADVO8DSJ0,64C14C13-2D70-4BC8-9B6C-530554E12423,2023-09-29_21h24.24.844,WP_VExplicitOC_LH,2022.2.5,Win32,20.98327633,51.30208333,2.9996,2.0442,NA,NA,NA,NA,NA,frustrated,"frustrated, not frustrated","more frustrated, less frustrated",NA,NA,NA,NA,NA,NA,NA,NA,NA,NA,NA,NA,NA,NA,NA,NA,NA,NA,NA,NA,NA,NA,NA,NA,NA,NA,NA,NA,NA,NA,NA,NA,NA,NA,NA,NA,NA,NA,0,0,0,1,1,NA,NA,NA,NA,NA
SUPAMT83327,3ITXP059P2ILMMFHD7P4IADVO8DSJ0,64C14C13-2D70-4BC8-9B6C-530554E12423,2023-09-29_21h24.24.844,WP_VExplicitOC_LH,2022.2.5,Win32,20.98327633,60.9375,2.9954,2.0272,NA,NA,NA,NA,NA,bored,"bored, not bored","more bored, less bored",NA,NA,NA,NA,NA,NA,NA,NA,NA,NA,NA,NA,NA,NA,NA,NA,NA,NA,NA,NA,NA,NA,NA,NA,NA,NA,NA,NA,NA,NA,NA,NA,NA,NA,NA,NA,NA,NA,0,1,1,2,1,NA,NA,NA,NA,NA
SUPAMT83327,3ITXP059P2ILMMFHD7P4IADVO8DSJ0,64C14C13-2D70-4BC8-9B6C-530554E12423,2023-09-29_21h24.24.844,WP_VExplicitOC_LH,2022.2.5,Win32,20.98327633,67.1875,2.6691,2.0298,NA,NA,NA,NA,NA,happy,"unhappy, happy","less happy, more happy",NA,NA,NA,NA,NA,NA,NA,NA,NA,NA,NA,NA,NA,NA,NA,NA,NA,NA,NA,NA,NA,NA,NA,NA,NA,NA,NA,NA,NA,NA,NA,NA,NA,NA,NA,NA,NA,NA,0,2,2,0,1,NA,NA,NA,NA,NA
SUPAMT83327,3ITXP059P2ILMMFHD7P4IADVO8DSJ0,64C14C13-2D70-4BC8-9B6C-530554E12423,2023-09-29_21h24.24.844,WP_VExplicitOC_LH,2022.2.5,Win32,20.98327633,NA,NA,NA,NA,NA,NA,NA,NA,NA,NA,NA,NA,NA,NA,NA,NA,NA,NA,NA,NA,NA,NA,NA,NA,NA,NA,NA,NA,NA,NA,NA,NA,NA,NA,NA,NA,NA,NA,NA,NA,NA,NA,NA,NA,NA,NA,NA,NA,NA,NA,NA,NA,NA,NA,9,0,9,0,1
SUPAMT83327,3ITXP059P2ILMMFHD7P4IADVO8DSJ0,64C14C13-2D70-4BC8-9B6C-530554E12423,2023-09-29_21h24.24.844,WP_VExplicitOC_LH,2022.2.5,Win32,20.98327633,35.67708333,2.2271,2.0323,NA,NA,NA,NA,NA,happy,"unhappy, happy","less happy, more happy",NA,NA,NA,NA,NA,NA,NA,NA,NA,NA,NA,NA,NA,NA,NA,NA,NA,NA,NA,NA,NA,NA,NA,NA,NA,NA,NA,NA,NA,NA,NA,NA,NA,NA,NA,NA,NA,NA,0,0,0,0,1,NA,NA,NA,NA,NA
SUPAMT83327,3ITXP059P2ILMMFHD7P4IADVO8DSJ0,64C14C13-2D70-4BC8-9B6C-530554E12423,2023-09-29_21h24.24.844,WP_VExplicitOC_LH,2022.2.5,Win32,20.98327633,70.57291667,2.9345,2.0434,NA,NA,NA,NA,NA,frustrated,"frustrated, not frustrated","more frustrated, less frustrated",NA,NA,NA,NA,NA,NA,NA,NA,NA,NA,NA,NA,NA,NA,NA,NA,NA,NA,NA,NA,NA,NA,NA,NA,NA,NA,NA,NA,NA,NA,NA,NA,NA,NA,NA,NA,NA,NA,0,1,1,1,1,NA,NA,NA,NA,NA
SUPAMT83327,3ITXP059P2ILMMFHD7P4IADVO8DSJ0,64C14C13-2D70-4BC8-9B6C-530554E12423,2023-09-29_21h24.24.844,WP_VExplicitOC_LH,2022.2.5,Win32,20.98327633,59.11458333,2.2619,2.0042,NA,NA,NA,NA,NA,bored,"bored, not bored","more bored, less bored",NA,NA,NA,NA,NA,NA,NA,NA,NA,NA,NA,NA,NA,NA,NA,NA,NA,NA,NA,NA,NA,NA,NA,NA,NA,NA,NA,NA,NA,NA,NA,NA,NA,NA,NA,NA,NA,NA,0,2,2,2,1,NA,NA,NA,NA,NA
SUPAMT83327,3ITXP059P2ILMMFHD7P4IADVO8DSJ0,64C14C13-2D70-4BC8-9B6C-530554E12423,2023-09-29_21h24.24.844,WP_VExplicitOC_LH,2022.2.5,Win32,20.98327633,NA,NA,NA,NA,NA,NA,NA,NA,NA,NA,NA,NA,NA,NA,NA,NA,NA,NA,NA,NA,NA,NA,NA,NA,NA,NA,NA,NA,NA,NA,NA,NA,NA,NA,NA,NA,NA,NA,NA,NA,NA,NA,NA,NA,NA,NA,NA,NA,NA,NA,NA,NA,NA,NA,10,0,10,0,1
SUPAMT83327,3ITXP059P2ILMMFHD7P4IADVO8DSJ0,64C14C13-2D70-4BC8-9B6C-530554E12423,2023-09-29_21h24.24.844,WP_VExplicitOC_LH,2022.2.5,Win32,20.98327633,59.11458333,3.3235,2.0306,NA,NA,NA,NA,NA,happy,"unhappy, happy","less happy, more happy",NA,NA,NA,NA,NA,NA,NA,NA,NA,NA,NA,NA,NA,NA,NA,NA,NA,NA,NA,NA,NA,NA,NA,NA,NA,NA,NA,NA,NA,NA,NA,NA,NA,NA,NA,NA,NA,NA,0,0,0,0,1,NA,NA,NA,NA,NA
SUPAMT83327,3ITXP059P2ILMMFHD7P4IADVO8DSJ0,64C14C13-2D70-4BC8-9B6C-530554E12423,2023-09-29_21h24.24.844,WP_VExplicitOC_LH,2022.2.5,Win32,20.98327633,45.57291667,2.8578,2.0309,NA,NA,NA,NA,NA,bored,"bored, not bored","more bored, less bored",NA,NA,NA,NA,NA,NA,NA,NA,NA,NA,NA,NA,NA,NA,NA,NA,NA,NA,NA,NA,NA,NA,NA,NA,NA,NA,NA,NA,NA,NA,NA,NA,NA,NA,NA,NA,NA,NA,0,1,1,2,1,NA,NA,NA,NA,NA
SUPAMT83327,3ITXP059P2ILMMFHD7P4IADVO8DSJ0,64C14C13-2D70-4BC8-9B6C-530554E12423,2023-09-29_21h24.24.844,WP_VExplicitOC_LH,2022.2.5,Win32,20.98327633,66.14583333,2.9603,2.042,NA,NA,NA,NA,NA,frustrated,"frustrated, not frustrated","more frustrated, less frustrated",NA,NA,NA,NA,NA,NA,NA,NA,NA,NA,NA,NA,NA,NA,NA,NA,NA,NA,NA,NA,NA,NA,NA,NA,NA,NA,NA,NA,NA,NA,NA,NA,NA,NA,NA,NA,NA,NA,0,2,2,1,1,NA,NA,NA,NA,NA
SUPAMT83327,3ITXP059P2ILMMFHD7P4IADVO8DSJ0,64C14C13-2D70-4BC8-9B6C-530554E12423,2023-09-29_21h24.24.844,WP_VExplicitOC_LH,2022.2.5,Win32,20.98327633,NA,NA,NA,NA,NA,NA,NA,NA,NA,NA,NA,NA,NA,NA,NA,NA,NA,NA,NA,NA,NA,NA,NA,NA,NA,NA,NA,NA,NA,NA,NA,NA,NA,NA,NA,NA,NA,NA,NA,NA,NA,NA,NA,NA,NA,NA,NA,NA,NA,NA,NA,NA,NA,NA,11,0,11,0,1
SUPAMT83327,3ITXP059P2ILMMFHD7P4IADVO8DSJ0,64C14C13-2D70-4BC8-9B6C-530554E12423,2023-09-29_21h24.24.844,WP_VExplicitOC_LH,2022.2.5,Win32,20.98327633,41.14583333,2.9447,2.0374,NA,NA,NA,NA,NA,frustrated,"frustrated, not frustrated","more frustrated, less frustrated",NA,NA,NA,NA,NA,NA,NA,NA,NA,NA,NA,NA,NA,NA,NA,NA,NA,NA,NA,NA,NA,NA,NA,NA,NA,NA,NA,NA,NA,NA,NA,NA,NA,NA,NA,NA,NA,NA,0,0,0,1,1,NA,NA,NA,NA,NA
SUPAMT83327,3ITXP059P2ILMMFHD7P4IADVO8DSJ0,64C14C13-2D70-4BC8-9B6C-530554E12423,2023-09-29_21h24.24.844,WP_VExplicitOC_LH,2022.2.5,Win32,20.98327633,62.76041667,2.413,2.0428,NA,NA,NA,NA,NA,bored,"bored, not bored","more bored, less bored",NA,NA,NA,NA,NA,NA,NA,NA,NA,NA,NA,NA,NA,NA,NA,NA,NA,NA,NA,NA,NA,NA,NA,NA,NA,NA,NA,NA,NA,NA,NA,NA,NA,NA,NA,NA,NA,NA,0,1,1,2,1,NA,NA,NA,NA,NA
SUPAMT83327,3ITXP059P2ILMMFHD7P4IADVO8DSJ0,64C14C13-2D70-4BC8-9B6C-530554E12423,2023-09-29_21h24.24.844,WP_VExplicitOC_LH,2022.2.5,Win32,20.98327633,40.625,2.9856,2.0221,NA,NA,NA,NA,NA,happy,"unhappy, happy","less happy, more happy",NA,NA,NA,NA,NA,NA,NA,NA,NA,NA,NA,NA,NA,NA,NA,NA,NA,NA,NA,NA,NA,NA,NA,NA,NA,NA,NA,NA,NA,NA,NA,NA,NA,NA,NA,NA,NA,NA,0,2,2,0,1,NA,NA,NA,NA,NA
SUPAMT83327,3ITXP059P2ILMMFHD7P4IADVO8DSJ0,64C14C13-2D70-4BC8-9B6C-530554E12423,2023-09-29_21h24.24.844,WP_VExplicitOC_LH,2022.2.5,Win32,20.98327633,NA,NA,NA,NA,NA,NA,NA,NA,NA,NA,NA,NA,NA,NA,NA,NA,NA,NA,NA,NA,NA,NA,NA,NA,NA,NA,NA,NA,NA,NA,NA,NA,NA,NA,NA,NA,NA,NA,NA,NA,NA,NA,NA,NA,NA,NA,NA,NA,NA,NA,NA,NA,NA,NA,12,0,12,0,1
SUPAMT83327,3ITXP059P2ILMMFHD7P4IADVO8DSJ0,64C14C13-2D70-4BC8-9B6C-530554E12423,2023-09-29_21h24.24.844,WP_VExplicitOC_LH,2022.2.5,Win32,20.98327633,51.30208333,4.3311,2.0194,NA,NA,NA,NA,NA,happy,"unhappy, happy","less happy, more happy",NA,NA,NA,NA,NA,NA,NA,NA,NA,NA,NA,NA,NA,NA,NA,NA,NA,NA,NA,NA,NA,NA,NA,NA,NA,NA,NA,NA,NA,NA,NA,NA,NA,NA,NA,NA,NA,NA,0,0,0,0,1,NA,NA,NA,NA,NA
SUPAMT83327,3ITXP059P2ILMMFHD7P4IADVO8DSJ0,64C14C13-2D70-4BC8-9B6C-530554E12423,2023-09-29_21h24.24.844,WP_VExplicitOC_LH,2022.2.5,Win32,20.98327633,61.19791667,2.9432,2.0442,NA,NA,NA,NA,NA,frustrated,"frustrated, not frustrated","more frustrated, less frustrated",NA,NA,NA,NA,NA,NA,NA,NA,NA,NA,NA,NA,NA,NA,NA,NA,NA,NA,NA,NA,NA,NA,NA,NA,NA,NA,NA,NA,NA,NA,NA,NA,NA,NA,NA,NA,NA,NA,0,1,1,1,1,NA,NA,NA,NA,NA
SUPAMT83327,3ITXP059P2ILMMFHD7P4IADVO8DSJ0,64C14C13-2D70-4BC8-9B6C-530554E12423,2023-09-29_21h24.24.844,WP_VExplicitOC_LH,2022.2.5,Win32,20.98327633,65.88541667,2.8437,2.0204,NA,NA,NA,NA,NA,bored,"bored, not bored","more bored, less bored",NA,NA,NA,NA,NA,NA,NA,NA,NA,NA,NA,NA,NA,NA,NA,NA,NA,NA,NA,NA,NA,NA,NA,NA,NA,NA,NA,NA,NA,NA,NA,NA,NA,NA,NA,NA,NA,NA,0,2,2,2,1,NA,NA,NA,NA,NA
SUPAMT83327,3ITXP059P2ILMMFHD7P4IADVO8DSJ0,64C14C13-2D70-4BC8-9B6C-530554E12423,2023-09-29_21h24.24.844,WP_VExplicitOC_LH,2022.2.5,Win32,20.98327633,NA,NA,NA,NA,NA,NA,NA,NA,NA,NA,NA,NA,NA,NA,NA,NA,NA,NA,NA,NA,NA,NA,NA,NA,NA,NA,NA,NA,NA,NA,NA,NA,NA,NA,NA,NA,NA,NA,NA,NA,NA,NA,NA,NA,NA,NA,NA,NA,NA,NA,NA,NA,NA,NA,13,0,13,0,1
SUPAMT83327,3ITXP059P2ILMMFHD7P4IADVO8DSJ0,64C14C13-2D70-4BC8-9B6C-530554E12423,2023-09-29_21h24.24.844,WP_VExplicitOC_LH,2022.2.5,Win32,20.98327633,32.03125,3.5421,2.0103,NA,NA,NA,NA,NA,bored,"bored, not bored","more bored, less bored",NA,NA,NA,NA,NA,NA,NA,NA,NA,NA,NA,NA,NA,NA,NA,NA,NA,NA,NA,NA,NA,NA,NA,NA,NA,NA,NA,NA,NA,NA,NA,NA,NA,NA,NA,NA,NA,NA,0,0,0,2,1,NA,NA,NA,NA,NA
SUPAMT83327,3ITXP059P2ILMMFHD7P4IADVO8DSJ0,64C14C13-2D70-4BC8-9B6C-530554E12423,2023-09-29_21h24.24.844,WP_VExplicitOC_LH,2022.2.5,Win32,20.98327633,58.33333333,3.9782,2.0447,NA,NA,NA,NA,NA,frustrated,"frustrated, not frustrated","more frustrated, less frustrated",NA,NA,NA,NA,NA,NA,NA,NA,NA,NA,NA,NA,NA,NA,NA,NA,NA,NA,NA,NA,NA,NA,NA,NA,NA,NA,NA,NA,NA,NA,NA,NA,NA,NA,NA,NA,NA,NA,0,1,1,1,1,NA,NA,NA,NA,NA
SUPAMT83327,3ITXP059P2ILMMFHD7P4IADVO8DSJ0,64C14C13-2D70-4BC8-9B6C-530554E12423,2023-09-29_21h24.24.844,WP_VExplicitOC_LH,2022.2.5,Win32,20.98327633,NA,NA,2.026,NA,NA,NA,NA,NA,happy,"unhappy, happy","less happy, more happy",NA,NA,NA,NA,NA,NA,NA,NA,NA,NA,NA,NA,NA,NA,NA,NA,NA,NA,NA,NA,NA,NA,NA,NA,NA,NA,NA,NA,NA,NA,NA,NA,NA,NA,NA,NA,NA,NA,0,2,2,0,1,NA,NA,NA,NA,NA
SUPAMT83327,3ITXP059P2ILMMFHD7P4IADVO8DSJ0,64C14C13-2D70-4BC8-9B6C-530554E12423,2023-09-29_21h24.24.844,WP_VExplicitOC_LH,2022.2.5,Win32,20.98327633,NA,NA,NA,NA,NA,NA,NA,NA,NA,NA,NA,NA,NA,NA,NA,NA,NA,NA,NA,NA,NA,NA,NA,NA,NA,NA,NA,NA,NA,NA,NA,NA,NA,NA,NA,NA,NA,NA,NA,NA,NA,NA,NA,NA,NA,NA,NA,NA,NA,NA,NA,NA,NA,NA,14,0,14,0,1
SUPAMT83327,3ITXP059P2ILMMFHD7P4IADVO8DSJ0,64C14C13-2D70-4BC8-9B6C-530554E12423,2023-09-29_21h24.24.844,WP_VExplicitOC_LH,2022.2.5,Win32,20.98327633,NA,NA,NA,NA,NA,NA,NA,NA,NA,NA,NA,NA,NA,NA,NA,NA,NA,NA,NA,NA,NA,NA,NA,NA,NA,NA,NA,NA,NA,NA,NA,NA,NA,NA,NA,NA,NA,NA,NA,NA,NA,NA,NA,NA,NA,NA,NA,NA,NA,NA,NA,NA,NA,NA,NA,NA,NA,NA,NA
