participant,session,completion,date,expName,psychopyVersion,OS,frameRate,rating_all.response,rating_all.rt,rating_all.tStart,rndRat1.thisRepN,rndRat1.thisTrialN,rndRat1.thisN,rndRat1.thisIndex,rndRat1.ran,Emo,Labs,Labs2,rating_alt.response,rating_alt.rt,AltC.thisRepN,AltC.thisTrialN,AltC.thisN,AltC.thisIndex,AltC.ran,alt_choices,pic_choices,BottomAlt_Choice,rndRat2.thisRepN,rndRat2.thisTrialN,rndRat2.thisN,rndRat2.thisIndex,rndRat2.ran,rndRat3.thisRepN,rndRat3.thisTrialN,rndRat3.thisN,rndRat3.thisIndex,rndRat3.ran,trials_FC_L.thisRepN,trials_FC_L.thisTrialN,trials_FC_L.thisN,trials_FC_L.thisIndex,trials_FC_L.ran,rating_alt_2.response,rating_alt_2.rt,AltC2.thisRepN,AltC2.thisTrialN,AltC2.thisN,AltC2.thisIndex,AltC2.ran,TopAlt_Choice,rndRat4.thisRepN,rndRat4.thisTrialN,rndRat4.thisN,rndRat4.thisIndex,rndRat4.ran,rndRat5.thisRepN,rndRat5.thisTrialN,rndRat5.thisN,rndRat5.thisIndex,rndRat5.ran,trials_FC_H.thisRepN,trials_FC_H.thisTrialN,trials_FC_H.thisN,trials_FC_H.thisIndex,trials_FC_H.ran
SUPAMT06775,3TXWC2NHN5PWGA28RVYRTGZSRGWS9P,4A556372-8D0C-4C3A-9D1C-10D4A65245AA,2023-09-26_18h59.21.350,WP_VExplicitOC_LH,2022.2.5,Win32,10.90607687,NA,NA,NA,NA,NA,NA,NA,NA,NA,NA,NA,NA,NA,NA,NA,NA,NA,NA,NA,NA,NA,NA,NA,NA,NA,NA,NA,NA,NA,NA,NA,NA,NA,NA,NA,NA,NA,NA,NA,NA,NA,NA,NA,NA,NA,NA,NA,NA,NA,NA,NA,NA,NA,NA,NA,NA,NA,NA,NA
SUPAMT06775,3TXWC2NHN5PWGA28RVYRTGZSRGWS9P,4A556372-8D0C-4C3A-9D1C-10D4A65245AA,2023-09-26_18h59.21.350,WP_VExplicitOC_LH,2022.2.5,Win32,10.90607687,NA,NA,NA,NA,NA,NA,NA,NA,NA,NA,NA,NA,NA,NA,NA,NA,NA,NA,NA,NA,NA,NA,NA,NA,NA,NA,NA,NA,NA,NA,NA,NA,NA,NA,NA,NA,NA,NA,NA,NA,NA,NA,NA,NA,NA,NA,NA,NA,NA,NA,NA,NA,NA,NA,NA,NA,NA,NA,NA
SUPAMT06775,3TXWC2NHN5PWGA28RVYRTGZSRGWS9P,4A556372-8D0C-4C3A-9D1C-10D4A65245AA,2023-09-26_18h59.21.350,WP_VExplicitOC_LH,2022.2.5,Win32,10.90607687,NA,NA,NA,NA,NA,NA,NA,NA,NA,NA,NA,NA,NA,NA,NA,NA,NA,NA,NA,NA,NA,NA,NA,NA,NA,NA,NA,NA,NA,NA,NA,NA,NA,NA,NA,NA,NA,NA,NA,NA,NA,NA,NA,NA,NA,NA,NA,NA,NA,NA,NA,NA,NA,NA,NA,NA,NA,NA,NA
SUPAMT06775,3TXWC2NHN5PWGA28RVYRTGZSRGWS9P,4A556372-8D0C-4C3A-9D1C-10D4A65245AA,2023-09-26_18h59.21.350,WP_VExplicitOC_LH,2022.2.5,Win32,10.90607687,39.6484375,4.4042,2.0239,0,0,0,1,1,frustrated,"frustrated, not frustrated","more frustrated, less frustrated",NA,NA,NA,NA,NA,NA,NA,NA,NA,NA,NA,NA,NA,NA,NA,NA,NA,NA,NA,NA,NA,NA,NA,NA,NA,NA,NA,NA,NA,NA,NA,NA,NA,NA,NA,NA,NA,NA,NA,NA,NA,NA,NA,NA,NA,NA,NA,NA
SUPAMT06775,3TXWC2NHN5PWGA28RVYRTGZSRGWS9P,4A556372-8D0C-4C3A-9D1C-10D4A65245AA,2023-09-26_18h59.21.350,WP_VExplicitOC_LH,2022.2.5,Win32,10.90607687,16.796875,3.934,2.0683,0,1,1,0,1,happy,"unhappy, happy","less happy, more happy",NA,NA,NA,NA,NA,NA,NA,NA,NA,NA,NA,NA,NA,NA,NA,NA,NA,NA,NA,NA,NA,NA,NA,NA,NA,NA,NA,NA,NA,NA,NA,NA,NA,NA,NA,NA,NA,NA,NA,NA,NA,NA,NA,NA,NA,NA,NA,NA
SUPAMT06775,3TXWC2NHN5PWGA28RVYRTGZSRGWS9P,4A556372-8D0C-4C3A-9D1C-10D4A65245AA,2023-09-26_18h59.21.350,WP_VExplicitOC_LH,2022.2.5,Win32,10.90607687,40.0390625,3.586,2.0724,0,2,2,2,1,bored,"bored, not bored","more bored, less bored",NA,NA,NA,NA,NA,NA,NA,NA,NA,NA,NA,NA,NA,NA,NA,NA,NA,NA,NA,NA,NA,NA,NA,NA,NA,NA,NA,NA,NA,NA,NA,NA,NA,NA,NA,NA,NA,NA,NA,NA,NA,NA,NA,NA,NA,NA,NA,NA
SUPAMT06775,3TXWC2NHN5PWGA28RVYRTGZSRGWS9P,4A556372-8D0C-4C3A-9D1C-10D4A65245AA,2023-09-26_18h59.21.350,WP_VExplicitOC_LH,2022.2.5,Win32,10.90607687,NA,NA,NA,NA,NA,NA,NA,NA,NA,NA,NA,NA,NA,NA,NA,NA,NA,NA,NA,NA,NA,NA,NA,NA,NA,NA,NA,NA,NA,NA,NA,NA,NA,NA,NA,NA,NA,NA,NA,NA,NA,NA,NA,NA,NA,NA,NA,NA,NA,NA,NA,NA,NA,NA,NA,NA,NA,NA,NA
SUPAMT06775,3TXWC2NHN5PWGA28RVYRTGZSRGWS9P,4A556372-8D0C-4C3A-9D1C-10D4A65245AA,2023-09-26_18h59.21.350,WP_VExplicitOC_LH,2022.2.5,Win32,10.90607687,NA,NA,NA,NA,NA,NA,NA,NA,NA,NA,NA,NA,NA,NA,NA,NA,NA,NA,NA,NA,NA,NA,NA,NA,NA,NA,NA,NA,NA,NA,NA,NA,NA,NA,NA,NA,NA,NA,NA,NA,NA,NA,NA,NA,NA,NA,NA,NA,NA,NA,NA,NA,NA,NA,NA,NA,NA,NA,NA
SUPAMT06775,3TXWC2NHN5PWGA28RVYRTGZSRGWS9P,4A556372-8D0C-4C3A-9D1C-10D4A65245AA,2023-09-26_18h59.21.350,WP_VExplicitOC_LH,2022.2.5,Win32,10.90607687,NA,NA,NA,NA,NA,NA,NA,NA,NA,NA,NA,NA,NA,NA,NA,NA,NA,NA,NA,NA,NA,NA,NA,NA,NA,NA,NA,NA,NA,NA,NA,NA,NA,NA,NA,NA,NA,NA,NA,NA,NA,NA,NA,NA,NA,NA,NA,NA,NA,NA,NA,NA,NA,NA,NA,NA,NA,NA,NA
SUPAMT06775,3TXWC2NHN5PWGA28RVYRTGZSRGWS9P,4A556372-8D0C-4C3A-9D1C-10D4A65245AA,2023-09-26_18h59.21.350,WP_VExplicitOC_LH,2022.2.5,Win32,10.90607687,NA,NA,NA,NA,NA,NA,NA,NA,NA,NA,NA,NA,NA,NA,NA,NA,NA,NA,NA,NA,NA,NA,NA,NA,NA,NA,NA,NA,NA,NA,NA,NA,NA,NA,NA,NA,NA,NA,NA,NA,NA,NA,NA,NA,NA,NA,NA,NA,NA,NA,NA,NA,NA,NA,NA,NA,NA,NA,NA
SUPAMT06775,3TXWC2NHN5PWGA28RVYRTGZSRGWS9P,4A556372-8D0C-4C3A-9D1C-10D4A65245AA,2023-09-26_18h59.21.350,WP_VExplicitOC_LH,2022.2.5,Win32,10.90607687,NA,NA,NA,NA,NA,NA,NA,NA,NA,NA,NA,36.1328125,2.0877,0,0,0,0,1,rest (looking at a fixed cross),001.png,NA,NA,NA,NA,NA,NA,NA,NA,NA,NA,NA,NA,NA,NA,NA,NA,NA,NA,NA,NA,NA,NA,NA,NA,NA,NA,NA,NA,NA,NA,NA,NA,NA,NA,NA,NA,NA,NA,NA
SUPAMT06775,3TXWC2NHN5PWGA28RVYRTGZSRGWS9P,4A556372-8D0C-4C3A-9D1C-10D4A65245AA,2023-09-26_18h59.21.350,WP_VExplicitOC_LH,2022.2.5,Win32,10.90607687,NA,NA,NA,NA,NA,NA,NA,NA,NA,NA,NA,20.3125,1.6437,0,1,1,1,1,stand up,002.png,NA,NA,NA,NA,NA,NA,NA,NA,NA,NA,NA,NA,NA,NA,NA,NA,NA,NA,NA,NA,NA,NA,NA,NA,NA,NA,NA,NA,NA,NA,NA,NA,NA,NA,NA,NA,NA,NA,NA
SUPAMT06775,3TXWC2NHN5PWGA28RVYRTGZSRGWS9P,4A556372-8D0C-4C3A-9D1C-10D4A65245AA,2023-09-26_18h59.21.350,WP_VExplicitOC_LH,2022.2.5,Win32,10.90607687,NA,NA,NA,NA,NA,NA,NA,NA,NA,NA,NA,26.171875,1.3313,0,2,2,2,1,stretch,003.png,NA,NA,NA,NA,NA,NA,NA,NA,NA,NA,NA,NA,NA,NA,NA,NA,NA,NA,NA,NA,NA,NA,NA,NA,NA,NA,NA,NA,NA,NA,NA,NA,NA,NA,NA,NA,NA,NA,NA
SUPAMT06775,3TXWC2NHN5PWGA28RVYRTGZSRGWS9P,4A556372-8D0C-4C3A-9D1C-10D4A65245AA,2023-09-26_18h59.21.350,WP_VExplicitOC_LH,2022.2.5,Win32,10.90607687,NA,NA,NA,NA,NA,NA,NA,NA,NA,NA,NA,30.859375,1.2019,0,3,3,3,1,make a drink,004.png,NA,NA,NA,NA,NA,NA,NA,NA,NA,NA,NA,NA,NA,NA,NA,NA,NA,NA,NA,NA,NA,NA,NA,NA,NA,NA,NA,NA,NA,NA,NA,NA,NA,NA,NA,NA,NA,NA,NA
SUPAMT06775,3TXWC2NHN5PWGA28RVYRTGZSRGWS9P,4A556372-8D0C-4C3A-9D1C-10D4A65245AA,2023-09-26_18h59.21.350,WP_VExplicitOC_LH,2022.2.5,Win32,10.90607687,NA,NA,NA,NA,NA,NA,NA,NA,NA,NA,NA,25,1.3645,0,4,4,4,1,scroll social media,005.png,NA,NA,NA,NA,NA,NA,NA,NA,NA,NA,NA,NA,NA,NA,NA,NA,NA,NA,NA,NA,NA,NA,NA,NA,NA,NA,NA,NA,NA,NA,NA,NA,NA,NA,NA,NA,NA,NA,NA
SUPAMT06775,3TXWC2NHN5PWGA28RVYRTGZSRGWS9P,4A556372-8D0C-4C3A-9D1C-10D4A65245AA,2023-09-26_18h59.21.350,WP_VExplicitOC_LH,2022.2.5,Win32,10.90607687,NA,NA,NA,NA,NA,NA,NA,NA,NA,NA,NA,17.96875,1.3552,0,5,5,5,1,listen to music,006.png,NA,NA,NA,NA,NA,NA,NA,NA,NA,NA,NA,NA,NA,NA,NA,NA,NA,NA,NA,NA,NA,NA,NA,NA,NA,NA,NA,NA,NA,NA,NA,NA,NA,NA,NA,NA,NA,NA,NA
SUPAMT06775,3TXWC2NHN5PWGA28RVYRTGZSRGWS9P,4A556372-8D0C-4C3A-9D1C-10D4A65245AA,2023-09-26_18h59.21.350,WP_VExplicitOC_LH,2022.2.5,Win32,10.90607687,NA,NA,NA,NA,NA,NA,NA,NA,NA,NA,NA,-10.15625,1.8965,0,6,6,6,1,daydream,007.png,NA,NA,NA,NA,NA,NA,NA,NA,NA,NA,NA,NA,NA,NA,NA,NA,NA,NA,NA,NA,NA,NA,NA,NA,NA,NA,NA,NA,NA,NA,NA,NA,NA,NA,NA,NA,NA,NA,NA
SUPAMT06775,3TXWC2NHN5PWGA28RVYRTGZSRGWS9P,4A556372-8D0C-4C3A-9D1C-10D4A65245AA,2023-09-26_18h59.21.350,WP_VExplicitOC_LH,2022.2.5,Win32,10.90607687,NA,NA,NA,NA,NA,NA,NA,NA,NA,NA,NA,9.375,1.5923,0,7,7,7,1,watch a short animation,008.png,NA,NA,NA,NA,NA,NA,NA,NA,NA,NA,NA,NA,NA,NA,NA,NA,NA,NA,NA,NA,NA,NA,NA,NA,NA,NA,NA,NA,NA,NA,NA,NA,NA,NA,NA,NA,NA,NA,NA
SUPAMT06775,3TXWC2NHN5PWGA28RVYRTGZSRGWS9P,4A556372-8D0C-4C3A-9D1C-10D4A65245AA,2023-09-26_18h59.21.350,WP_VExplicitOC_LH,2022.2.5,Win32,10.90607687,NA,NA,NA,NA,NA,NA,NA,NA,NA,NA,NA,8.203125,1.3362,0,8,8,8,1,read a novel,009.png,NA,NA,NA,NA,NA,NA,NA,NA,NA,NA,NA,NA,NA,NA,NA,NA,NA,NA,NA,NA,NA,NA,NA,NA,NA,NA,NA,NA,NA,NA,NA,NA,NA,NA,NA,NA,NA,NA,NA
SUPAMT06775,3TXWC2NHN5PWGA28RVYRTGZSRGWS9P,4A556372-8D0C-4C3A-9D1C-10D4A65245AA,2023-09-26_18h59.21.350,WP_VExplicitOC_LH,2022.2.5,Win32,10.90607687,NA,NA,NA,NA,NA,NA,NA,NA,NA,NA,NA,-17.578125,2.1591,0,9,9,9,1,read the news,010.png,NA,NA,NA,NA,NA,NA,NA,NA,NA,NA,NA,NA,NA,NA,NA,NA,NA,NA,NA,NA,NA,NA,NA,NA,NA,NA,NA,NA,NA,NA,NA,NA,NA,NA,NA,NA,NA,NA,NA
SUPAMT06775,3TXWC2NHN5PWGA28RVYRTGZSRGWS9P,4A556372-8D0C-4C3A-9D1C-10D4A65245AA,2023-09-26_18h59.21.350,WP_VExplicitOC_LH,2022.2.5,Win32,10.90607687,NA,NA,NA,NA,NA,NA,NA,NA,NA,NA,NA,NA,NA,NA,NA,NA,NA,NA,NA,NA,NA,NA,NA,NA,NA,NA,NA,NA,NA,NA,NA,NA,NA,NA,NA,NA,NA,NA,NA,NA,NA,NA,NA,NA,NA,NA,NA,NA,NA,NA,NA,NA,NA,NA,NA,NA,NA,NA,NA
SUPAMT06775,3TXWC2NHN5PWGA28RVYRTGZSRGWS9P,4A556372-8D0C-4C3A-9D1C-10D4A65245AA,2023-09-26_18h59.21.350,WP_VExplicitOC_LH,2022.2.5,Win32,10.90607687,NA,NA,NA,NA,NA,NA,NA,NA,NA,NA,NA,NA,NA,NA,NA,NA,NA,NA,NA,NA,read the news,NA,NA,NA,NA,NA,NA,NA,NA,NA,NA,NA,NA,NA,NA,NA,NA,NA,NA,NA,NA,NA,NA,NA,NA,NA,NA,NA,NA,NA,NA,NA,NA,NA,NA,NA,NA,NA,NA
SUPAMT06775,3TXWC2NHN5PWGA28RVYRTGZSRGWS9P,4A556372-8D0C-4C3A-9D1C-10D4A65245AA,2023-09-26_18h59.21.350,WP_VExplicitOC_LH,2022.2.5,Win32,10.90607687,24.4140625,3.551,2.0554,NA,NA,NA,NA,NA,frustrated,"frustrated, not frustrated","more frustrated, less frustrated",NA,NA,NA,NA,NA,NA,NA,NA,NA,NA,0,0,0,1,1,NA,NA,NA,NA,NA,NA,NA,NA,NA,NA,NA,NA,NA,NA,NA,NA,NA,NA,NA,NA,NA,NA,NA,NA,NA,NA,NA,NA,NA,NA,NA,NA,NA
SUPAMT06775,3TXWC2NHN5PWGA28RVYRTGZSRGWS9P,4A556372-8D0C-4C3A-9D1C-10D4A65245AA,2023-09-26_18h59.21.350,WP_VExplicitOC_LH,2022.2.5,Win32,10.90607687,13.28125,4.149,2.0215,NA,NA,NA,NA,NA,bored,"bored, not bored","more bored, less bored",NA,NA,NA,NA,NA,NA,NA,NA,NA,NA,0,1,1,2,1,NA,NA,NA,NA,NA,NA,NA,NA,NA,NA,NA,NA,NA,NA,NA,NA,NA,NA,NA,NA,NA,NA,NA,NA,NA,NA,NA,NA,NA,NA,NA,NA,NA
SUPAMT06775,3TXWC2NHN5PWGA28RVYRTGZSRGWS9P,4A556372-8D0C-4C3A-9D1C-10D4A65245AA,2023-09-26_18h59.21.350,WP_VExplicitOC_LH,2022.2.5,Win32,10.90607687,27.734375,3.729,2.0328,NA,NA,NA,NA,NA,happy,"unhappy, happy","less happy, more happy",NA,NA,NA,NA,NA,NA,NA,NA,NA,NA,0,2,2,0,1,NA,NA,NA,NA,NA,NA,NA,NA,NA,NA,NA,NA,NA,NA,NA,NA,NA,NA,NA,NA,NA,NA,NA,NA,NA,NA,NA,NA,NA,NA,NA,NA,NA
SUPAMT06775,3TXWC2NHN5PWGA28RVYRTGZSRGWS9P,4A556372-8D0C-4C3A-9D1C-10D4A65245AA,2023-09-26_18h59.21.350,WP_VExplicitOC_LH,2022.2.5,Win32,10.90607687,NA,NA,NA,NA,NA,NA,NA,NA,NA,NA,NA,NA,NA,NA,NA,NA,NA,NA,NA,NA,NA,NA,NA,NA,NA,NA,NA,NA,NA,NA,NA,NA,NA,NA,NA,NA,NA,NA,NA,NA,NA,NA,NA,NA,NA,NA,NA,NA,NA,NA,NA,NA,NA,NA,NA,NA,NA,NA,NA
SUPAMT06775,3TXWC2NHN5PWGA28RVYRTGZSRGWS9P,4A556372-8D0C-4C3A-9D1C-10D4A65245AA,2023-09-26_18h59.21.350,WP_VExplicitOC_LH,2022.2.5,Win32,10.90607687,NA,NA,NA,NA,NA,NA,NA,NA,NA,NA,NA,NA,NA,NA,NA,NA,NA,NA,NA,NA,NA,NA,NA,NA,NA,NA,NA,NA,NA,NA,NA,NA,NA,NA,NA,NA,NA,NA,NA,NA,NA,NA,NA,NA,NA,NA,NA,NA,NA,NA,NA,NA,NA,NA,NA,NA,NA,NA,NA
SUPAMT06775,3TXWC2NHN5PWGA28RVYRTGZSRGWS9P,4A556372-8D0C-4C3A-9D1C-10D4A65245AA,2023-09-26_18h59.21.350,WP_VExplicitOC_LH,2022.2.5,Win32,10.90607687,31.25,5.3433,2.0383,NA,NA,NA,NA,NA,happy,"unhappy, happy","less happy, more happy",NA,NA,NA,NA,NA,NA,NA,NA,NA,NA,NA,NA,NA,NA,NA,0,0,0,0,1,NA,NA,NA,NA,NA,NA,NA,NA,NA,NA,NA,NA,NA,NA,NA,NA,NA,NA,NA,NA,NA,NA,NA,NA,NA,NA,NA,NA
SUPAMT06775,3TXWC2NHN5PWGA28RVYRTGZSRGWS9P,4A556372-8D0C-4C3A-9D1C-10D4A65245AA,2023-09-26_18h59.21.350,WP_VExplicitOC_LH,2022.2.5,Win32,10.90607687,29.4921875,3.7909,2.0985,NA,NA,NA,NA,NA,frustrated,"frustrated, not frustrated","more frustrated, less frustrated",NA,NA,NA,NA,NA,NA,NA,NA,NA,NA,NA,NA,NA,NA,NA,0,1,1,1,1,NA,NA,NA,NA,NA,NA,NA,NA,NA,NA,NA,NA,NA,NA,NA,NA,NA,NA,NA,NA,NA,NA,NA,NA,NA,NA,NA,NA
SUPAMT06775,3TXWC2NHN5PWGA28RVYRTGZSRGWS9P,4A556372-8D0C-4C3A-9D1C-10D4A65245AA,2023-09-26_18h59.21.350,WP_VExplicitOC_LH,2022.2.5,Win32,10.90607687,26.5625,4.1601,2.0077,NA,NA,NA,NA,NA,bored,"bored, not bored","more bored, less bored",NA,NA,NA,NA,NA,NA,NA,NA,NA,NA,NA,NA,NA,NA,NA,0,2,2,2,1,NA,NA,NA,NA,NA,NA,NA,NA,NA,NA,NA,NA,NA,NA,NA,NA,NA,NA,NA,NA,NA,NA,NA,NA,NA,NA,NA,NA
SUPAMT06775,3TXWC2NHN5PWGA28RVYRTGZSRGWS9P,4A556372-8D0C-4C3A-9D1C-10D4A65245AA,2023-09-26_18h59.21.350,WP_VExplicitOC_LH,2022.2.5,Win32,10.90607687,NA,NA,NA,NA,NA,NA,NA,NA,NA,NA,NA,NA,NA,NA,NA,NA,NA,NA,NA,NA,NA,NA,NA,NA,NA,NA,NA,NA,NA,NA,NA,0,0,0,0,1,NA,NA,NA,NA,NA,NA,NA,NA,NA,NA,NA,NA,NA,NA,NA,NA,NA,NA,NA,NA,NA,NA,NA
SUPAMT06775,3TXWC2NHN5PWGA28RVYRTGZSRGWS9P,4A556372-8D0C-4C3A-9D1C-10D4A65245AA,2023-09-26_18h59.21.350,WP_VExplicitOC_LH,2022.2.5,Win32,10.90607687,22.265625,3.6946,2.1051,NA,NA,NA,NA,NA,happy,"unhappy, happy","less happy, more happy",NA,NA,NA,NA,NA,NA,NA,NA,NA,NA,NA,NA,NA,NA,NA,0,0,0,0,1,NA,NA,NA,NA,NA,NA,NA,NA,NA,NA,NA,NA,NA,NA,NA,NA,NA,NA,NA,NA,NA,NA,NA,NA,NA,NA,NA,NA
SUPAMT06775,3TXWC2NHN5PWGA28RVYRTGZSRGWS9P,4A556372-8D0C-4C3A-9D1C-10D4A65245AA,2023-09-26_18h59.21.350,WP_VExplicitOC_LH,2022.2.5,Win32,10.90607687,54.4921875,4.5907,2.1059,NA,NA,NA,NA,NA,frustrated,"frustrated, not frustrated","more frustrated, less frustrated",NA,NA,NA,NA,NA,NA,NA,NA,NA,NA,NA,NA,NA,NA,NA,0,1,1,1,1,NA,NA,NA,NA,NA,NA,NA,NA,NA,NA,NA,NA,NA,NA,NA,NA,NA,NA,NA,NA,NA,NA,NA,NA,NA,NA,NA,NA
SUPAMT06775,3TXWC2NHN5PWGA28RVYRTGZSRGWS9P,4A556372-8D0C-4C3A-9D1C-10D4A65245AA,2023-09-26_18h59.21.350,WP_VExplicitOC_LH,2022.2.5,Win32,10.90607687,25,4.5133,2.1187,NA,NA,NA,NA,NA,bored,"bored, not bored","more bored, less bored",NA,NA,NA,NA,NA,NA,NA,NA,NA,NA,NA,NA,NA,NA,NA,0,2,2,2,1,NA,NA,NA,NA,NA,NA,NA,NA,NA,NA,NA,NA,NA,NA,NA,NA,NA,NA,NA,NA,NA,NA,NA,NA,NA,NA,NA,NA
SUPAMT06775,3TXWC2NHN5PWGA28RVYRTGZSRGWS9P,4A556372-8D0C-4C3A-9D1C-10D4A65245AA,2023-09-26_18h59.21.350,WP_VExplicitOC_LH,2022.2.5,Win32,10.90607687,NA,NA,NA,NA,NA,NA,NA,NA,NA,NA,NA,NA,NA,NA,NA,NA,NA,NA,NA,NA,NA,NA,NA,NA,NA,NA,NA,NA,NA,NA,NA,1,0,1,0,1,NA,NA,NA,NA,NA,NA,NA,NA,NA,NA,NA,NA,NA,NA,NA,NA,NA,NA,NA,NA,NA,NA,NA
SUPAMT06775,3TXWC2NHN5PWGA28RVYRTGZSRGWS9P,4A556372-8D0C-4C3A-9D1C-10D4A65245AA,2023-09-26_18h59.21.350,WP_VExplicitOC_LH,2022.2.5,Win32,10.90607687,23.4375,3.9549,2.0848,NA,NA,NA,NA,NA,frustrated,"frustrated, not frustrated","more frustrated, less frustrated",NA,NA,NA,NA,NA,NA,NA,NA,NA,NA,NA,NA,NA,NA,NA,0,0,0,1,1,NA,NA,NA,NA,NA,NA,NA,NA,NA,NA,NA,NA,NA,NA,NA,NA,NA,NA,NA,NA,NA,NA,NA,NA,NA,NA,NA,NA
SUPAMT06775,3TXWC2NHN5PWGA28RVYRTGZSRGWS9P,4A556372-8D0C-4C3A-9D1C-10D4A65245AA,2023-09-26_18h59.21.350,WP_VExplicitOC_LH,2022.2.5,Win32,10.90607687,25.9765625,3.998,2.1007,NA,NA,NA,NA,NA,bored,"bored, not bored","more bored, less bored",NA,NA,NA,NA,NA,NA,NA,NA,NA,NA,NA,NA,NA,NA,NA,0,1,1,2,1,NA,NA,NA,NA,NA,NA,NA,NA,NA,NA,NA,NA,NA,NA,NA,NA,NA,NA,NA,NA,NA,NA,NA,NA,NA,NA,NA,NA
SUPAMT06775,3TXWC2NHN5PWGA28RVYRTGZSRGWS9P,4A556372-8D0C-4C3A-9D1C-10D4A65245AA,2023-09-26_18h59.21.350,WP_VExplicitOC_LH,2022.2.5,Win32,10.90607687,17.96875,3.8976,2.069,NA,NA,NA,NA,NA,happy,"unhappy, happy","less happy, more happy",NA,NA,NA,NA,NA,NA,NA,NA,NA,NA,NA,NA,NA,NA,NA,0,2,2,0,1,NA,NA,NA,NA,NA,NA,NA,NA,NA,NA,NA,NA,NA,NA,NA,NA,NA,NA,NA,NA,NA,NA,NA,NA,NA,NA,NA,NA
SUPAMT06775,3TXWC2NHN5PWGA28RVYRTGZSRGWS9P,4A556372-8D0C-4C3A-9D1C-10D4A65245AA,2023-09-26_18h59.21.350,WP_VExplicitOC_LH,2022.2.5,Win32,10.90607687,NA,NA,NA,NA,NA,NA,NA,NA,NA,NA,NA,NA,NA,NA,NA,NA,NA,NA,NA,NA,NA,NA,NA,NA,NA,NA,NA,NA,NA,NA,NA,2,0,2,0,1,NA,NA,NA,NA,NA,NA,NA,NA,NA,NA,NA,NA,NA,NA,NA,NA,NA,NA,NA,NA,NA,NA,NA
SUPAMT06775,3TXWC2NHN5PWGA28RVYRTGZSRGWS9P,4A556372-8D0C-4C3A-9D1C-10D4A65245AA,2023-09-26_18h59.21.350,WP_VExplicitOC_LH,2022.2.5,Win32,10.90607687,37.6953125,3.7872,2.0856,NA,NA,NA,NA,NA,happy,"unhappy, happy","less happy, more happy",NA,NA,NA,NA,NA,NA,NA,NA,NA,NA,NA,NA,NA,NA,NA,0,0,0,0,1,NA,NA,NA,NA,NA,NA,NA,NA,NA,NA,NA,NA,NA,NA,NA,NA,NA,NA,NA,NA,NA,NA,NA,NA,NA,NA,NA,NA
SUPAMT06775,3TXWC2NHN5PWGA28RVYRTGZSRGWS9P,4A556372-8D0C-4C3A-9D1C-10D4A65245AA,2023-09-26_18h59.21.350,WP_VExplicitOC_LH,2022.2.5,Win32,10.90607687,28.7109375,4.329,2.1072,NA,NA,NA,NA,NA,frustrated,"frustrated, not frustrated","more frustrated, less frustrated",NA,NA,NA,NA,NA,NA,NA,NA,NA,NA,NA,NA,NA,NA,NA,0,1,1,1,1,NA,NA,NA,NA,NA,NA,NA,NA,NA,NA,NA,NA,NA,NA,NA,NA,NA,NA,NA,NA,NA,NA,NA,NA,NA,NA,NA,NA
SUPAMT06775,3TXWC2NHN5PWGA28RVYRTGZSRGWS9P,4A556372-8D0C-4C3A-9D1C-10D4A65245AA,2023-09-26_18h59.21.350,WP_VExplicitOC_LH,2022.2.5,Win32,10.90607687,23.4375,4.931,2.085,NA,NA,NA,NA,NA,bored,"bored, not bored","more bored, less bored",NA,NA,NA,NA,NA,NA,NA,NA,NA,NA,NA,NA,NA,NA,NA,0,2,2,2,1,NA,NA,NA,NA,NA,NA,NA,NA,NA,NA,NA,NA,NA,NA,NA,NA,NA,NA,NA,NA,NA,NA,NA,NA,NA,NA,NA,NA
SUPAMT06775,3TXWC2NHN5PWGA28RVYRTGZSRGWS9P,4A556372-8D0C-4C3A-9D1C-10D4A65245AA,2023-09-26_18h59.21.350,WP_VExplicitOC_LH,2022.2.5,Win32,10.90607687,NA,NA,NA,NA,NA,NA,NA,NA,NA,NA,NA,NA,NA,NA,NA,NA,NA,NA,NA,NA,NA,NA,NA,NA,NA,NA,NA,NA,NA,NA,NA,3,0,3,0,1,NA,NA,NA,NA,NA,NA,NA,NA,NA,NA,NA,NA,NA,NA,NA,NA,NA,NA,NA,NA,NA,NA,NA
SUPAMT06775,3TXWC2NHN5PWGA28RVYRTGZSRGWS9P,4A556372-8D0C-4C3A-9D1C-10D4A65245AA,2023-09-26_18h59.21.350,WP_VExplicitOC_LH,2022.2.5,Win32,10.90607687,17.96875,4.0474,2.0026,NA,NA,NA,NA,NA,happy,"unhappy, happy","less happy, more happy",NA,NA,NA,NA,NA,NA,NA,NA,NA,NA,NA,NA,NA,NA,NA,0,0,0,0,1,NA,NA,NA,NA,NA,NA,NA,NA,NA,NA,NA,NA,NA,NA,NA,NA,NA,NA,NA,NA,NA,NA,NA,NA,NA,NA,NA,NA
SUPAMT06775,3TXWC2NHN5PWGA28RVYRTGZSRGWS9P,4A556372-8D0C-4C3A-9D1C-10D4A65245AA,2023-09-26_18h59.21.350,WP_VExplicitOC_LH,2022.2.5,Win32,10.90607687,28.7109375,3.8346,2.0948,NA,NA,NA,NA,NA,bored,"bored, not bored","more bored, less bored",NA,NA,NA,NA,NA,NA,NA,NA,NA,NA,NA,NA,NA,NA,NA,0,1,1,2,1,NA,NA,NA,NA,NA,NA,NA,NA,NA,NA,NA,NA,NA,NA,NA,NA,NA,NA,NA,NA,NA,NA,NA,NA,NA,NA,NA,NA
SUPAMT06775,3TXWC2NHN5PWGA28RVYRTGZSRGWS9P,4A556372-8D0C-4C3A-9D1C-10D4A65245AA,2023-09-26_18h59.21.350,WP_VExplicitOC_LH,2022.2.5,Win32,10.90607687,19.140625,4.6526,2.077,NA,NA,NA,NA,NA,frustrated,"frustrated, not frustrated","more frustrated, less frustrated",NA,NA,NA,NA,NA,NA,NA,NA,NA,NA,NA,NA,NA,NA,NA,0,2,2,1,1,NA,NA,NA,NA,NA,NA,NA,NA,NA,NA,NA,NA,NA,NA,NA,NA,NA,NA,NA,NA,NA,NA,NA,NA,NA,NA,NA,NA
SUPAMT06775,3TXWC2NHN5PWGA28RVYRTGZSRGWS9P,4A556372-8D0C-4C3A-9D1C-10D4A65245AA,2023-09-26_18h59.21.350,WP_VExplicitOC_LH,2022.2.5,Win32,10.90607687,NA,NA,NA,NA,NA,NA,NA,NA,NA,NA,NA,NA,NA,NA,NA,NA,NA,NA,NA,NA,NA,NA,NA,NA,NA,NA,NA,NA,NA,NA,NA,4,0,4,0,1,NA,NA,NA,NA,NA,NA,NA,NA,NA,NA,NA,NA,NA,NA,NA,NA,NA,NA,NA,NA,NA,NA,NA
SUPAMT06775,3TXWC2NHN5PWGA28RVYRTGZSRGWS9P,4A556372-8D0C-4C3A-9D1C-10D4A65245AA,2023-09-26_18h59.21.350,WP_VExplicitOC_LH,2022.2.5,Win32,10.90607687,24.8046875,4.5559,2.1005,NA,NA,NA,NA,NA,bored,"bored, not bored","more bored, less bored",NA,NA,NA,NA,NA,NA,NA,NA,NA,NA,NA,NA,NA,NA,NA,0,0,0,2,1,NA,NA,NA,NA,NA,NA,NA,NA,NA,NA,NA,NA,NA,NA,NA,NA,NA,NA,NA,NA,NA,NA,NA,NA,NA,NA,NA,NA
SUPAMT06775,3TXWC2NHN5PWGA28RVYRTGZSRGWS9P,4A556372-8D0C-4C3A-9D1C-10D4A65245AA,2023-09-26_18h59.21.350,WP_VExplicitOC_LH,2022.2.5,Win32,10.90607687,18.1640625,4.2486,2.0833,NA,NA,NA,NA,NA,frustrated,"frustrated, not frustrated","more frustrated, less frustrated",NA,NA,NA,NA,NA,NA,NA,NA,NA,NA,NA,NA,NA,NA,NA,0,1,1,1,1,NA,NA,NA,NA,NA,NA,NA,NA,NA,NA,NA,NA,NA,NA,NA,NA,NA,NA,NA,NA,NA,NA,NA,NA,NA,NA,NA,NA
SUPAMT06775,3TXWC2NHN5PWGA28RVYRTGZSRGWS9P,4A556372-8D0C-4C3A-9D1C-10D4A65245AA,2023-09-26_18h59.21.350,WP_VExplicitOC_LH,2022.2.5,Win32,10.90607687,16.40625,4.0634,2.0963,NA,NA,NA,NA,NA,happy,"unhappy, happy","less happy, more happy",NA,NA,NA,NA,NA,NA,NA,NA,NA,NA,NA,NA,NA,NA,NA,0,2,2,0,1,NA,NA,NA,NA,NA,NA,NA,NA,NA,NA,NA,NA,NA,NA,NA,NA,NA,NA,NA,NA,NA,NA,NA,NA,NA,NA,NA,NA
SUPAMT06775,3TXWC2NHN5PWGA28RVYRTGZSRGWS9P,4A556372-8D0C-4C3A-9D1C-10D4A65245AA,2023-09-26_18h59.21.350,WP_VExplicitOC_LH,2022.2.5,Win32,10.90607687,NA,NA,NA,NA,NA,NA,NA,NA,NA,NA,NA,NA,NA,NA,NA,NA,NA,NA,NA,NA,NA,NA,NA,NA,NA,NA,NA,NA,NA,NA,NA,5,0,5,0,1,NA,NA,NA,NA,NA,NA,NA,NA,NA,NA,NA,NA,NA,NA,NA,NA,NA,NA,NA,NA,NA,NA,NA
SUPAMT06775,3TXWC2NHN5PWGA28RVYRTGZSRGWS9P,4A556372-8D0C-4C3A-9D1C-10D4A65245AA,2023-09-26_18h59.21.350,WP_VExplicitOC_LH,2022.2.5,Win32,10.90607687,12.6953125,4.4263,2.0568,NA,NA,NA,NA,NA,frustrated,"frustrated, not frustrated","more frustrated, less frustrated",NA,NA,NA,NA,NA,NA,NA,NA,NA,NA,NA,NA,NA,NA,NA,0,0,0,1,1,NA,NA,NA,NA,NA,NA,NA,NA,NA,NA,NA,NA,NA,NA,NA,NA,NA,NA,NA,NA,NA,NA,NA,NA,NA,NA,NA,NA
SUPAMT06775,3TXWC2NHN5PWGA28RVYRTGZSRGWS9P,4A556372-8D0C-4C3A-9D1C-10D4A65245AA,2023-09-26_18h59.21.350,WP_VExplicitOC_LH,2022.2.5,Win32,10.90607687,50.78125,3.8164,2.1368,NA,NA,NA,NA,NA,bored,"bored, not bored","more bored, less bored",NA,NA,NA,NA,NA,NA,NA,NA,NA,NA,NA,NA,NA,NA,NA,0,1,1,2,1,NA,NA,NA,NA,NA,NA,NA,NA,NA,NA,NA,NA,NA,NA,NA,NA,NA,NA,NA,NA,NA,NA,NA,NA,NA,NA,NA,NA
SUPAMT06775,3TXWC2NHN5PWGA28RVYRTGZSRGWS9P,4A556372-8D0C-4C3A-9D1C-10D4A65245AA,2023-09-26_18h59.21.350,WP_VExplicitOC_LH,2022.2.5,Win32,10.90607687,23.046875,3.8812,2.0208,NA,NA,NA,NA,NA,happy,"unhappy, happy","less happy, more happy",NA,NA,NA,NA,NA,NA,NA,NA,NA,NA,NA,NA,NA,NA,NA,0,2,2,0,1,NA,NA,NA,NA,NA,NA,NA,NA,NA,NA,NA,NA,NA,NA,NA,NA,NA,NA,NA,NA,NA,NA,NA,NA,NA,NA,NA,NA
SUPAMT06775,3TXWC2NHN5PWGA28RVYRTGZSRGWS9P,4A556372-8D0C-4C3A-9D1C-10D4A65245AA,2023-09-26_18h59.21.350,WP_VExplicitOC_LH,2022.2.5,Win32,10.90607687,NA,NA,NA,NA,NA,NA,NA,NA,NA,NA,NA,NA,NA,NA,NA,NA,NA,NA,NA,NA,NA,NA,NA,NA,NA,NA,NA,NA,NA,NA,NA,6,0,6,0,1,NA,NA,NA,NA,NA,NA,NA,NA,NA,NA,NA,NA,NA,NA,NA,NA,NA,NA,NA,NA,NA,NA,NA
SUPAMT06775,3TXWC2NHN5PWGA28RVYRTGZSRGWS9P,4A556372-8D0C-4C3A-9D1C-10D4A65245AA,2023-09-26_18h59.21.350,WP_VExplicitOC_LH,2022.2.5,Win32,10.90607687,37.3046875,3.7204,2.0641,NA,NA,NA,NA,NA,bored,"bored, not bored","more bored, less bored",NA,NA,NA,NA,NA,NA,NA,NA,NA,NA,NA,NA,NA,NA,NA,0,0,0,2,1,NA,NA,NA,NA,NA,NA,NA,NA,NA,NA,NA,NA,NA,NA,NA,NA,NA,NA,NA,NA,NA,NA,NA,NA,NA,NA,NA,NA
SUPAMT06775,3TXWC2NHN5PWGA28RVYRTGZSRGWS9P,4A556372-8D0C-4C3A-9D1C-10D4A65245AA,2023-09-26_18h59.21.350,WP_VExplicitOC_LH,2022.2.5,Win32,10.90607687,14.84375,4.7663,2.0189,NA,NA,NA,NA,NA,happy,"unhappy, happy","less happy, more happy",NA,NA,NA,NA,NA,NA,NA,NA,NA,NA,NA,NA,NA,NA,NA,0,1,1,0,1,NA,NA,NA,NA,NA,NA,NA,NA,NA,NA,NA,NA,NA,NA,NA,NA,NA,NA,NA,NA,NA,NA,NA,NA,NA,NA,NA,NA
SUPAMT06775,3TXWC2NHN5PWGA28RVYRTGZSRGWS9P,4A556372-8D0C-4C3A-9D1C-10D4A65245AA,2023-09-26_18h59.21.350,WP_VExplicitOC_LH,2022.2.5,Win32,10.90607687,22.265625,4.0819,2.1216,NA,NA,NA,NA,NA,frustrated,"frustrated, not frustrated","more frustrated, less frustrated",NA,NA,NA,NA,NA,NA,NA,NA,NA,NA,NA,NA,NA,NA,NA,0,2,2,1,1,NA,NA,NA,NA,NA,NA,NA,NA,NA,NA,NA,NA,NA,NA,NA,NA,NA,NA,NA,NA,NA,NA,NA,NA,NA,NA,NA,NA
SUPAMT06775,3TXWC2NHN5PWGA28RVYRTGZSRGWS9P,4A556372-8D0C-4C3A-9D1C-10D4A65245AA,2023-09-26_18h59.21.350,WP_VExplicitOC_LH,2022.2.5,Win32,10.90607687,NA,NA,NA,NA,NA,NA,NA,NA,NA,NA,NA,NA,NA,NA,NA,NA,NA,NA,NA,NA,NA,NA,NA,NA,NA,NA,NA,NA,NA,NA,NA,7,0,7,0,1,NA,NA,NA,NA,NA,NA,NA,NA,NA,NA,NA,NA,NA,NA,NA,NA,NA,NA,NA,NA,NA,NA,NA
SUPAMT06775,3TXWC2NHN5PWGA28RVYRTGZSRGWS9P,4A556372-8D0C-4C3A-9D1C-10D4A65245AA,2023-09-26_18h59.21.350,WP_VExplicitOC_LH,2022.2.5,Win32,10.90607687,28.7109375,3.8505,2.0366,NA,NA,NA,NA,NA,happy,"unhappy, happy","less happy, more happy",NA,NA,NA,NA,NA,NA,NA,NA,NA,NA,NA,NA,NA,NA,NA,0,0,0,0,1,NA,NA,NA,NA,NA,NA,NA,NA,NA,NA,NA,NA,NA,NA,NA,NA,NA,NA,NA,NA,NA,NA,NA,NA,NA,NA,NA,NA
SUPAMT06775,3TXWC2NHN5PWGA28RVYRTGZSRGWS9P,4A556372-8D0C-4C3A-9D1C-10D4A65245AA,2023-09-26_18h59.21.350,WP_VExplicitOC_LH,2022.2.5,Win32,10.90607687,19.3359375,5.5091,2.0792,NA,NA,NA,NA,NA,frustrated,"frustrated, not frustrated","more frustrated, less frustrated",NA,NA,NA,NA,NA,NA,NA,NA,NA,NA,NA,NA,NA,NA,NA,0,1,1,1,1,NA,NA,NA,NA,NA,NA,NA,NA,NA,NA,NA,NA,NA,NA,NA,NA,NA,NA,NA,NA,NA,NA,NA,NA,NA,NA,NA,NA
SUPAMT06775,3TXWC2NHN5PWGA28RVYRTGZSRGWS9P,4A556372-8D0C-4C3A-9D1C-10D4A65245AA,2023-09-26_18h59.21.350,WP_VExplicitOC_LH,2022.2.5,Win32,10.90607687,23.6328125,4.301,2.1252,NA,NA,NA,NA,NA,bored,"bored, not bored","more bored, less bored",NA,NA,NA,NA,NA,NA,NA,NA,NA,NA,NA,NA,NA,NA,NA,0,2,2,2,1,NA,NA,NA,NA,NA,NA,NA,NA,NA,NA,NA,NA,NA,NA,NA,NA,NA,NA,NA,NA,NA,NA,NA,NA,NA,NA,NA,NA
SUPAMT06775,3TXWC2NHN5PWGA28RVYRTGZSRGWS9P,4A556372-8D0C-4C3A-9D1C-10D4A65245AA,2023-09-26_18h59.21.350,WP_VExplicitOC_LH,2022.2.5,Win32,10.90607687,NA,NA,NA,NA,NA,NA,NA,NA,NA,NA,NA,NA,NA,NA,NA,NA,NA,NA,NA,NA,NA,NA,NA,NA,NA,NA,NA,NA,NA,NA,NA,8,0,8,0,1,NA,NA,NA,NA,NA,NA,NA,NA,NA,NA,NA,NA,NA,NA,NA,NA,NA,NA,NA,NA,NA,NA,NA
SUPAMT06775,3TXWC2NHN5PWGA28RVYRTGZSRGWS9P,4A556372-8D0C-4C3A-9D1C-10D4A65245AA,2023-09-26_18h59.21.350,WP_VExplicitOC_LH,2022.2.5,Win32,10.90607687,27.9296875,5.0772,2.1859,NA,NA,NA,NA,NA,frustrated,"frustrated, not frustrated","more frustrated, less frustrated",NA,NA,NA,NA,NA,NA,NA,NA,NA,NA,NA,NA,NA,NA,NA,0,0,0,1,1,NA,NA,NA,NA,NA,NA,NA,NA,NA,NA,NA,NA,NA,NA,NA,NA,NA,NA,NA,NA,NA,NA,NA,NA,NA,NA,NA,NA
SUPAMT06775,3TXWC2NHN5PWGA28RVYRTGZSRGWS9P,4A556372-8D0C-4C3A-9D1C-10D4A65245AA,2023-09-26_18h59.21.350,WP_VExplicitOC_LH,2022.2.5,Win32,10.90607687,21.09375,5.3558,2.1396,NA,NA,NA,NA,NA,bored,"bored, not bored","more bored, less bored",NA,NA,NA,NA,NA,NA,NA,NA,NA,NA,NA,NA,NA,NA,NA,0,1,1,2,1,NA,NA,NA,NA,NA,NA,NA,NA,NA,NA,NA,NA,NA,NA,NA,NA,NA,NA,NA,NA,NA,NA,NA,NA,NA,NA,NA,NA
SUPAMT06775,3TXWC2NHN5PWGA28RVYRTGZSRGWS9P,4A556372-8D0C-4C3A-9D1C-10D4A65245AA,2023-09-26_18h59.21.350,WP_VExplicitOC_LH,2022.2.5,Win32,10.90607687,10.546875,5.1516,2.0344,NA,NA,NA,NA,NA,happy,"unhappy, happy","less happy, more happy",NA,NA,NA,NA,NA,NA,NA,NA,NA,NA,NA,NA,NA,NA,NA,0,2,2,0,1,NA,NA,NA,NA,NA,NA,NA,NA,NA,NA,NA,NA,NA,NA,NA,NA,NA,NA,NA,NA,NA,NA,NA,NA,NA,NA,NA,NA
SUPAMT06775,3TXWC2NHN5PWGA28RVYRTGZSRGWS9P,4A556372-8D0C-4C3A-9D1C-10D4A65245AA,2023-09-26_18h59.21.350,WP_VExplicitOC_LH,2022.2.5,Win32,10.90607687,NA,NA,NA,NA,NA,NA,NA,NA,NA,NA,NA,NA,NA,NA,NA,NA,NA,NA,NA,NA,NA,NA,NA,NA,NA,NA,NA,NA,NA,NA,NA,9,0,9,0,1,NA,NA,NA,NA,NA,NA,NA,NA,NA,NA,NA,NA,NA,NA,NA,NA,NA,NA,NA,NA,NA,NA,NA
SUPAMT06775,3TXWC2NHN5PWGA28RVYRTGZSRGWS9P,4A556372-8D0C-4C3A-9D1C-10D4A65245AA,2023-09-26_18h59.21.350,WP_VExplicitOC_LH,2022.2.5,Win32,10.90607687,32.8125,4.4756,2,NA,NA,NA,NA,NA,frustrated,"frustrated, not frustrated","more frustrated, less frustrated",NA,NA,NA,NA,NA,NA,NA,NA,NA,NA,NA,NA,NA,NA,NA,0,0,0,1,1,NA,NA,NA,NA,NA,NA,NA,NA,NA,NA,NA,NA,NA,NA,NA,NA,NA,NA,NA,NA,NA,NA,NA,NA,NA,NA,NA,NA
SUPAMT06775,3TXWC2NHN5PWGA28RVYRTGZSRGWS9P,4A556372-8D0C-4C3A-9D1C-10D4A65245AA,2023-09-26_18h59.21.350,WP_VExplicitOC_LH,2022.2.5,Win32,10.90607687,25.390625,3.9638,2.082,NA,NA,NA,NA,NA,bored,"bored, not bored","more bored, less bored",NA,NA,NA,NA,NA,NA,NA,NA,NA,NA,NA,NA,NA,NA,NA,0,1,1,2,1,NA,NA,NA,NA,NA,NA,NA,NA,NA,NA,NA,NA,NA,NA,NA,NA,NA,NA,NA,NA,NA,NA,NA,NA,NA,NA,NA,NA
SUPAMT06775,3TXWC2NHN5PWGA28RVYRTGZSRGWS9P,4A556372-8D0C-4C3A-9D1C-10D4A65245AA,2023-09-26_18h59.21.350,WP_VExplicitOC_LH,2022.2.5,Win32,10.90607687,35.15625,5.4085,2.1415,NA,NA,NA,NA,NA,happy,"unhappy, happy","less happy, more happy",NA,NA,NA,NA,NA,NA,NA,NA,NA,NA,NA,NA,NA,NA,NA,0,2,2,0,1,NA,NA,NA,NA,NA,NA,NA,NA,NA,NA,NA,NA,NA,NA,NA,NA,NA,NA,NA,NA,NA,NA,NA,NA,NA,NA,NA,NA
SUPAMT06775,3TXWC2NHN5PWGA28RVYRTGZSRGWS9P,4A556372-8D0C-4C3A-9D1C-10D4A65245AA,2023-09-26_18h59.21.350,WP_VExplicitOC_LH,2022.2.5,Win32,10.90607687,NA,NA,NA,NA,NA,NA,NA,NA,NA,NA,NA,NA,NA,NA,NA,NA,NA,NA,NA,NA,NA,NA,NA,NA,NA,NA,NA,NA,NA,NA,NA,10,0,10,0,1,NA,NA,NA,NA,NA,NA,NA,NA,NA,NA,NA,NA,NA,NA,NA,NA,NA,NA,NA,NA,NA,NA,NA
SUPAMT06775,3TXWC2NHN5PWGA28RVYRTGZSRGWS9P,4A556372-8D0C-4C3A-9D1C-10D4A65245AA,2023-09-26_18h59.21.350,WP_VExplicitOC_LH,2022.2.5,Win32,10.90607687,16.9921875,3.8814,2.1199,NA,NA,NA,NA,NA,frustrated,"frustrated, not frustrated","more frustrated, less frustrated",NA,NA,NA,NA,NA,NA,NA,NA,NA,NA,NA,NA,NA,NA,NA,0,0,0,1,1,NA,NA,NA,NA,NA,NA,NA,NA,NA,NA,NA,NA,NA,NA,NA,NA,NA,NA,NA,NA,NA,NA,NA,NA,NA,NA,NA,NA
SUPAMT06775,3TXWC2NHN5PWGA28RVYRTGZSRGWS9P,4A556372-8D0C-4C3A-9D1C-10D4A65245AA,2023-09-26_18h59.21.350,WP_VExplicitOC_LH,2022.2.5,Win32,10.90607687,32.6171875,4.4741,2.028,NA,NA,NA,NA,NA,bored,"bored, not bored","more bored, less bored",NA,NA,NA,NA,NA,NA,NA,NA,NA,NA,NA,NA,NA,NA,NA,0,1,1,2,1,NA,NA,NA,NA,NA,NA,NA,NA,NA,NA,NA,NA,NA,NA,NA,NA,NA,NA,NA,NA,NA,NA,NA,NA,NA,NA,NA,NA
SUPAMT06775,3TXWC2NHN5PWGA28RVYRTGZSRGWS9P,4A556372-8D0C-4C3A-9D1C-10D4A65245AA,2023-09-26_18h59.21.350,WP_VExplicitOC_LH,2022.2.5,Win32,10.90607687,25.5859375,4.4816,2.0014,NA,NA,NA,NA,NA,happy,"unhappy, happy","less happy, more happy",NA,NA,NA,NA,NA,NA,NA,NA,NA,NA,NA,NA,NA,NA,NA,0,2,2,0,1,NA,NA,NA,NA,NA,NA,NA,NA,NA,NA,NA,NA,NA,NA,NA,NA,NA,NA,NA,NA,NA,NA,NA,NA,NA,NA,NA,NA
SUPAMT06775,3TXWC2NHN5PWGA28RVYRTGZSRGWS9P,4A556372-8D0C-4C3A-9D1C-10D4A65245AA,2023-09-26_18h59.21.350,WP_VExplicitOC_LH,2022.2.5,Win32,10.90607687,NA,NA,NA,NA,NA,NA,NA,NA,NA,NA,NA,NA,NA,NA,NA,NA,NA,NA,NA,NA,NA,NA,NA,NA,NA,NA,NA,NA,NA,NA,NA,11,0,11,0,1,NA,NA,NA,NA,NA,NA,NA,NA,NA,NA,NA,NA,NA,NA,NA,NA,NA,NA,NA,NA,NA,NA,NA
SUPAMT06775,3TXWC2NHN5PWGA28RVYRTGZSRGWS9P,4A556372-8D0C-4C3A-9D1C-10D4A65245AA,2023-09-26_18h59.21.350,WP_VExplicitOC_LH,2022.2.5,Win32,10.90607687,25.9765625,4.1914,2.1035,NA,NA,NA,NA,NA,frustrated,"frustrated, not frustrated","more frustrated, less frustrated",NA,NA,NA,NA,NA,NA,NA,NA,NA,NA,NA,NA,NA,NA,NA,0,0,0,1,1,NA,NA,NA,NA,NA,NA,NA,NA,NA,NA,NA,NA,NA,NA,NA,NA,NA,NA,NA,NA,NA,NA,NA,NA,NA,NA,NA,NA
SUPAMT06775,3TXWC2NHN5PWGA28RVYRTGZSRGWS9P,4A556372-8D0C-4C3A-9D1C-10D4A65245AA,2023-09-26_18h59.21.350,WP_VExplicitOC_LH,2022.2.5,Win32,10.90607687,22.0703125,4.0853,2.0951,NA,NA,NA,NA,NA,happy,"unhappy, happy","less happy, more happy",NA,NA,NA,NA,NA,NA,NA,NA,NA,NA,NA,NA,NA,NA,NA,0,1,1,0,1,NA,NA,NA,NA,NA,NA,NA,NA,NA,NA,NA,NA,NA,NA,NA,NA,NA,NA,NA,NA,NA,NA,NA,NA,NA,NA,NA,NA
SUPAMT06775,3TXWC2NHN5PWGA28RVYRTGZSRGWS9P,4A556372-8D0C-4C3A-9D1C-10D4A65245AA,2023-09-26_18h59.21.350,WP_VExplicitOC_LH,2022.2.5,Win32,10.90607687,27.9296875,4.3136,2.0632,NA,NA,NA,NA,NA,bored,"bored, not bored","more bored, less bored",NA,NA,NA,NA,NA,NA,NA,NA,NA,NA,NA,NA,NA,NA,NA,0,2,2,2,1,NA,NA,NA,NA,NA,NA,NA,NA,NA,NA,NA,NA,NA,NA,NA,NA,NA,NA,NA,NA,NA,NA,NA,NA,NA,NA,NA,NA
SUPAMT06775,3TXWC2NHN5PWGA28RVYRTGZSRGWS9P,4A556372-8D0C-4C3A-9D1C-10D4A65245AA,2023-09-26_18h59.21.350,WP_VExplicitOC_LH,2022.2.5,Win32,10.90607687,NA,NA,NA,NA,NA,NA,NA,NA,NA,NA,NA,NA,NA,NA,NA,NA,NA,NA,NA,NA,NA,NA,NA,NA,NA,NA,NA,NA,NA,NA,NA,12,0,12,0,1,NA,NA,NA,NA,NA,NA,NA,NA,NA,NA,NA,NA,NA,NA,NA,NA,NA,NA,NA,NA,NA,NA,NA
SUPAMT06775,3TXWC2NHN5PWGA28RVYRTGZSRGWS9P,4A556372-8D0C-4C3A-9D1C-10D4A65245AA,2023-09-26_18h59.21.350,WP_VExplicitOC_LH,2022.2.5,Win32,10.90607687,31.640625,4.0914,2.0239,NA,NA,NA,NA,NA,happy,"unhappy, happy","less happy, more happy",NA,NA,NA,NA,NA,NA,NA,NA,NA,NA,NA,NA,NA,NA,NA,0,0,0,0,1,NA,NA,NA,NA,NA,NA,NA,NA,NA,NA,NA,NA,NA,NA,NA,NA,NA,NA,NA,NA,NA,NA,NA,NA,NA,NA,NA,NA
SUPAMT06775,3TXWC2NHN5PWGA28RVYRTGZSRGWS9P,4A556372-8D0C-4C3A-9D1C-10D4A65245AA,2023-09-26_18h59.21.350,WP_VExplicitOC_LH,2022.2.5,Win32,10.90607687,15.4296875,4.0125,2.0576,NA,NA,NA,NA,NA,bored,"bored, not bored","more bored, less bored",NA,NA,NA,NA,NA,NA,NA,NA,NA,NA,NA,NA,NA,NA,NA,0,1,1,2,1,NA,NA,NA,NA,NA,NA,NA,NA,NA,NA,NA,NA,NA,NA,NA,NA,NA,NA,NA,NA,NA,NA,NA,NA,NA,NA,NA,NA
SUPAMT06775,3TXWC2NHN5PWGA28RVYRTGZSRGWS9P,4A556372-8D0C-4C3A-9D1C-10D4A65245AA,2023-09-26_18h59.21.350,WP_VExplicitOC_LH,2022.2.5,Win32,10.90607687,37.3046875,4.331,2.0651,NA,NA,NA,NA,NA,frustrated,"frustrated, not frustrated","more frustrated, less frustrated",NA,NA,NA,NA,NA,NA,NA,NA,NA,NA,NA,NA,NA,NA,NA,0,2,2,1,1,NA,NA,NA,NA,NA,NA,NA,NA,NA,NA,NA,NA,NA,NA,NA,NA,NA,NA,NA,NA,NA,NA,NA,NA,NA,NA,NA,NA
SUPAMT06775,3TXWC2NHN5PWGA28RVYRTGZSRGWS9P,4A556372-8D0C-4C3A-9D1C-10D4A65245AA,2023-09-26_18h59.21.350,WP_VExplicitOC_LH,2022.2.5,Win32,10.90607687,NA,NA,NA,NA,NA,NA,NA,NA,NA,NA,NA,NA,NA,NA,NA,NA,NA,NA,NA,NA,NA,NA,NA,NA,NA,NA,NA,NA,NA,NA,NA,13,0,13,0,1,NA,NA,NA,NA,NA,NA,NA,NA,NA,NA,NA,NA,NA,NA,NA,NA,NA,NA,NA,NA,NA,NA,NA
SUPAMT06775,3TXWC2NHN5PWGA28RVYRTGZSRGWS9P,4A556372-8D0C-4C3A-9D1C-10D4A65245AA,2023-09-26_18h59.21.350,WP_VExplicitOC_LH,2022.2.5,Win32,10.90607687,13.8671875,4.512,2.0626,NA,NA,NA,NA,NA,happy,"unhappy, happy","less happy, more happy",NA,NA,NA,NA,NA,NA,NA,NA,NA,NA,NA,NA,NA,NA,NA,0,0,0,0,1,NA,NA,NA,NA,NA,NA,NA,NA,NA,NA,NA,NA,NA,NA,NA,NA,NA,NA,NA,NA,NA,NA,NA,NA,NA,NA,NA,NA
SUPAMT06775,3TXWC2NHN5PWGA28RVYRTGZSRGWS9P,4A556372-8D0C-4C3A-9D1C-10D4A65245AA,2023-09-26_18h59.21.350,WP_VExplicitOC_LH,2022.2.5,Win32,10.90607687,17.1875,4.3227,2.1143,NA,NA,NA,NA,NA,frustrated,"frustrated, not frustrated","more frustrated, less frustrated",NA,NA,NA,NA,NA,NA,NA,NA,NA,NA,NA,NA,NA,NA,NA,0,1,1,1,1,NA,NA,NA,NA,NA,NA,NA,NA,NA,NA,NA,NA,NA,NA,NA,NA,NA,NA,NA,NA,NA,NA,NA,NA,NA,NA,NA,NA
SUPAMT06775,3TXWC2NHN5PWGA28RVYRTGZSRGWS9P,4A556372-8D0C-4C3A-9D1C-10D4A65245AA,2023-09-26_18h59.21.350,WP_VExplicitOC_LH,2022.2.5,Win32,10.90607687,37.109375,4.2374,2.1363,NA,NA,NA,NA,NA,bored,"bored, not bored","more bored, less bored",NA,NA,NA,NA,NA,NA,NA,NA,NA,NA,NA,NA,NA,NA,NA,0,2,2,2,1,NA,NA,NA,NA,NA,NA,NA,NA,NA,NA,NA,NA,NA,NA,NA,NA,NA,NA,NA,NA,NA,NA,NA,NA,NA,NA,NA,NA
SUPAMT06775,3TXWC2NHN5PWGA28RVYRTGZSRGWS9P,4A556372-8D0C-4C3A-9D1C-10D4A65245AA,2023-09-26_18h59.21.350,WP_VExplicitOC_LH,2022.2.5,Win32,10.90607687,NA,NA,NA,NA,NA,NA,NA,NA,NA,NA,NA,NA,NA,NA,NA,NA,NA,NA,NA,NA,NA,NA,NA,NA,NA,NA,NA,NA,NA,NA,NA,14,0,14,0,1,NA,NA,NA,NA,NA,NA,NA,NA,NA,NA,NA,NA,NA,NA,NA,NA,NA,NA,NA,NA,NA,NA,NA
SUPAMT06775,3TXWC2NHN5PWGA28RVYRTGZSRGWS9P,4A556372-8D0C-4C3A-9D1C-10D4A65245AA,2023-09-26_18h59.21.350,WP_VExplicitOC_LH,2022.2.5,Win32,10.90607687,NA,NA,NA,NA,NA,NA,NA,NA,NA,NA,NA,NA,NA,NA,NA,NA,NA,NA,NA,NA,NA,NA,NA,NA,NA,NA,NA,NA,NA,NA,NA,NA,NA,NA,NA,NA,NA,NA,NA,NA,NA,NA,NA,NA,NA,NA,NA,NA,NA,NA,NA,NA,NA,NA,NA,NA,NA,NA,NA
SUPAMT06775,3TXWC2NHN5PWGA28RVYRTGZSRGWS9P,4A556372-8D0C-4C3A-9D1C-10D4A65245AA,2023-09-26_18h59.21.350,WP_VExplicitOC_LH,2022.2.5,Win32,10.90607687,NA,NA,NA,NA,NA,NA,NA,NA,NA,NA,NA,NA,NA,NA,NA,NA,NA,NA,NA,NA,NA,NA,NA,NA,NA,NA,NA,NA,NA,NA,NA,NA,NA,NA,NA,NA,NA,NA,NA,NA,NA,NA,NA,NA,NA,NA,NA,NA,NA,NA,NA,NA,NA,NA,NA,NA,NA,NA,NA
SUPAMT06775,3TXWC2NHN5PWGA28RVYRTGZSRGWS9P,4A556372-8D0C-4C3A-9D1C-10D4A65245AA,2023-09-26_18h59.21.350,WP_VExplicitOC_LH,2022.2.5,Win32,10.90607687,NA,NA,NA,NA,NA,NA,NA,NA,NA,NA,NA,NA,NA,NA,NA,NA,NA,NA,rest (looking at a fixed cross),001.png,NA,NA,NA,NA,NA,NA,NA,NA,NA,NA,NA,NA,NA,NA,NA,NA,16.40625,3.3051,0,0,0,0,1,NA,NA,NA,NA,NA,NA,NA,NA,NA,NA,NA,NA,NA,NA,NA,NA
SUPAMT06775,3TXWC2NHN5PWGA28RVYRTGZSRGWS9P,4A556372-8D0C-4C3A-9D1C-10D4A65245AA,2023-09-26_18h59.21.350,WP_VExplicitOC_LH,2022.2.5,Win32,10.90607687,NA,NA,NA,NA,NA,NA,NA,NA,NA,NA,NA,NA,NA,NA,NA,NA,NA,NA,stand up,002.png,NA,NA,NA,NA,NA,NA,NA,NA,NA,NA,NA,NA,NA,NA,NA,NA,10.546875,2.0864,0,1,1,1,1,NA,NA,NA,NA,NA,NA,NA,NA,NA,NA,NA,NA,NA,NA,NA,NA
SUPAMT06775,3TXWC2NHN5PWGA28RVYRTGZSRGWS9P,4A556372-8D0C-4C3A-9D1C-10D4A65245AA,2023-09-26_18h59.21.350,WP_VExplicitOC_LH,2022.2.5,Win32,10.90607687,NA,NA,NA,NA,NA,NA,NA,NA,NA,NA,NA,NA,NA,NA,NA,NA,NA,NA,stretch,003.png,NA,NA,NA,NA,NA,NA,NA,NA,NA,NA,NA,NA,NA,NA,NA,NA,19.3359375,1.9281,0,2,2,2,1,NA,NA,NA,NA,NA,NA,NA,NA,NA,NA,NA,NA,NA,NA,NA,NA
SUPAMT06775,3TXWC2NHN5PWGA28RVYRTGZSRGWS9P,4A556372-8D0C-4C3A-9D1C-10D4A65245AA,2023-09-26_18h59.21.350,WP_VExplicitOC_LH,2022.2.5,Win32,10.90607687,NA,NA,NA,NA,NA,NA,NA,NA,NA,NA,NA,NA,NA,NA,NA,NA,NA,NA,make a drink,004.png,NA,NA,NA,NA,NA,NA,NA,NA,NA,NA,NA,NA,NA,NA,NA,NA,25.1953125,1.6405,0,3,3,3,1,NA,NA,NA,NA,NA,NA,NA,NA,NA,NA,NA,NA,NA,NA,NA,NA
SUPAMT06775,3TXWC2NHN5PWGA28RVYRTGZSRGWS9P,4A556372-8D0C-4C3A-9D1C-10D4A65245AA,2023-09-26_18h59.21.350,WP_VExplicitOC_LH,2022.2.5,Win32,10.90607687,NA,NA,NA,NA,NA,NA,NA,NA,NA,NA,NA,NA,NA,NA,NA,NA,NA,NA,scroll social media,005.png,NA,NA,NA,NA,NA,NA,NA,NA,NA,NA,NA,NA,NA,NA,NA,NA,24.0234375,1.8987,0,4,4,4,1,NA,NA,NA,NA,NA,NA,NA,NA,NA,NA,NA,NA,NA,NA,NA,NA
SUPAMT06775,3TXWC2NHN5PWGA28RVYRTGZSRGWS9P,4A556372-8D0C-4C3A-9D1C-10D4A65245AA,2023-09-26_18h59.21.350,WP_VExplicitOC_LH,2022.2.5,Win32,10.90607687,NA,NA,NA,NA,NA,NA,NA,NA,NA,NA,NA,NA,NA,NA,NA,NA,NA,NA,listen to music,006.png,NA,NA,NA,NA,NA,NA,NA,NA,NA,NA,NA,NA,NA,NA,NA,NA,16.9921875,1.9238,0,5,5,5,1,NA,NA,NA,NA,NA,NA,NA,NA,NA,NA,NA,NA,NA,NA,NA,NA
SUPAMT06775,3TXWC2NHN5PWGA28RVYRTGZSRGWS9P,4A556372-8D0C-4C3A-9D1C-10D4A65245AA,2023-09-26_18h59.21.350,WP_VExplicitOC_LH,2022.2.5,Win32,10.90607687,NA,NA,NA,NA,NA,NA,NA,NA,NA,NA,NA,NA,NA,NA,NA,NA,NA,NA,daydream,007.png,NA,NA,NA,NA,NA,NA,NA,NA,NA,NA,NA,NA,NA,NA,NA,NA,20.703125,1.785,0,6,6,6,1,NA,NA,NA,NA,NA,NA,NA,NA,NA,NA,NA,NA,NA,NA,NA,NA
SUPAMT06775,3TXWC2NHN5PWGA28RVYRTGZSRGWS9P,4A556372-8D0C-4C3A-9D1C-10D4A65245AA,2023-09-26_18h59.21.350,WP_VExplicitOC_LH,2022.2.5,Win32,10.90607687,NA,NA,NA,NA,NA,NA,NA,NA,NA,NA,NA,NA,NA,NA,NA,NA,NA,NA,watch a short animation,008.png,NA,NA,NA,NA,NA,NA,NA,NA,NA,NA,NA,NA,NA,NA,NA,NA,24.8046875,1.8455,0,7,7,7,1,NA,NA,NA,NA,NA,NA,NA,NA,NA,NA,NA,NA,NA,NA,NA,NA
SUPAMT06775,3TXWC2NHN5PWGA28RVYRTGZSRGWS9P,4A556372-8D0C-4C3A-9D1C-10D4A65245AA,2023-09-26_18h59.21.350,WP_VExplicitOC_LH,2022.2.5,Win32,10.90607687,NA,NA,NA,NA,NA,NA,NA,NA,NA,NA,NA,NA,NA,NA,NA,NA,NA,NA,read a novel,009.png,NA,NA,NA,NA,NA,NA,NA,NA,NA,NA,NA,NA,NA,NA,NA,NA,25.78125,1.7474,0,8,8,8,1,NA,NA,NA,NA,NA,NA,NA,NA,NA,NA,NA,NA,NA,NA,NA,NA
SUPAMT06775,3TXWC2NHN5PWGA28RVYRTGZSRGWS9P,4A556372-8D0C-4C3A-9D1C-10D4A65245AA,2023-09-26_18h59.21.350,WP_VExplicitOC_LH,2022.2.5,Win32,10.90607687,NA,NA,NA,NA,NA,NA,NA,NA,NA,NA,NA,NA,NA,NA,NA,NA,NA,NA,read the news,010.png,NA,NA,NA,NA,NA,NA,NA,NA,NA,NA,NA,NA,NA,NA,NA,NA,25.9765625,1.9849,0,9,9,9,1,NA,NA,NA,NA,NA,NA,NA,NA,NA,NA,NA,NA,NA,NA,NA,NA
SUPAMT06775,3TXWC2NHN5PWGA28RVYRTGZSRGWS9P,4A556372-8D0C-4C3A-9D1C-10D4A65245AA,2023-09-26_18h59.21.350,WP_VExplicitOC_LH,2022.2.5,Win32,10.90607687,NA,NA,NA,NA,NA,NA,NA,NA,NA,NA,NA,NA,NA,NA,NA,NA,NA,NA,NA,NA,NA,NA,NA,NA,NA,NA,NA,NA,NA,NA,NA,NA,NA,NA,NA,NA,NA,NA,NA,NA,NA,NA,NA,read the news,NA,NA,NA,NA,NA,NA,NA,NA,NA,NA,NA,NA,NA,NA,NA
SUPAMT06775,3TXWC2NHN5PWGA28RVYRTGZSRGWS9P,4A556372-8D0C-4C3A-9D1C-10D4A65245AA,2023-09-26_18h59.21.350,WP_VExplicitOC_LH,2022.2.5,Win32,10.90607687,21.484375,3.5256,2.0406,NA,NA,NA,NA,NA,happy,"unhappy, happy","less happy, more happy",NA,NA,NA,NA,NA,NA,NA,NA,NA,NA,NA,NA,NA,NA,NA,NA,NA,NA,NA,NA,NA,NA,NA,NA,NA,NA,NA,NA,NA,NA,NA,NA,NA,0,0,0,0,1,NA,NA,NA,NA,NA,NA,NA,NA,NA,NA
SUPAMT06775,3TXWC2NHN5PWGA28RVYRTGZSRGWS9P,4A556372-8D0C-4C3A-9D1C-10D4A65245AA,2023-09-26_18h59.21.350,WP_VExplicitOC_LH,2022.2.5,Win32,10.90607687,17.7734375,3.8585,2.1011,NA,NA,NA,NA,NA,frustrated,"frustrated, not frustrated","more frustrated, less frustrated",NA,NA,NA,NA,NA,NA,NA,NA,NA,NA,NA,NA,NA,NA,NA,NA,NA,NA,NA,NA,NA,NA,NA,NA,NA,NA,NA,NA,NA,NA,NA,NA,NA,0,1,1,1,1,NA,NA,NA,NA,NA,NA,NA,NA,NA,NA
SUPAMT06775,3TXWC2NHN5PWGA28RVYRTGZSRGWS9P,4A556372-8D0C-4C3A-9D1C-10D4A65245AA,2023-09-26_18h59.21.350,WP_VExplicitOC_LH,2022.2.5,Win32,10.90607687,21.2890625,3.9946,2.1021,NA,NA,NA,NA,NA,bored,"bored, not bored","more bored, less bored",NA,NA,NA,NA,NA,NA,NA,NA,NA,NA,NA,NA,NA,NA,NA,NA,NA,NA,NA,NA,NA,NA,NA,NA,NA,NA,NA,NA,NA,NA,NA,NA,NA,0,2,2,2,1,NA,NA,NA,NA,NA,NA,NA,NA,NA,NA
SUPAMT06775,3TXWC2NHN5PWGA28RVYRTGZSRGWS9P,4A556372-8D0C-4C3A-9D1C-10D4A65245AA,2023-09-26_18h59.21.350,WP_VExplicitOC_LH,2022.2.5,Win32,10.90607687,NA,NA,NA,NA,NA,NA,NA,NA,NA,NA,NA,NA,NA,NA,NA,NA,NA,NA,NA,NA,NA,NA,NA,NA,NA,NA,NA,NA,NA,NA,NA,NA,NA,NA,NA,NA,NA,NA,NA,NA,NA,NA,NA,NA,NA,NA,NA,NA,NA,NA,NA,NA,NA,NA,NA,NA,NA,NA,NA
SUPAMT06775,3TXWC2NHN5PWGA28RVYRTGZSRGWS9P,4A556372-8D0C-4C3A-9D1C-10D4A65245AA,2023-09-26_18h59.21.350,WP_VExplicitOC_LH,2022.2.5,Win32,10.90607687,NA,NA,NA,NA,NA,NA,NA,NA,NA,NA,NA,NA,NA,NA,NA,NA,NA,NA,NA,NA,NA,NA,NA,NA,NA,NA,NA,NA,NA,NA,NA,NA,NA,NA,NA,NA,NA,NA,NA,NA,NA,NA,NA,NA,NA,NA,NA,NA,NA,NA,NA,NA,NA,NA,NA,NA,NA,NA,NA
SUPAMT06775,3TXWC2NHN5PWGA28RVYRTGZSRGWS9P,4A556372-8D0C-4C3A-9D1C-10D4A65245AA,2023-09-26_18h59.21.350,WP_VExplicitOC_LH,2022.2.5,Win32,10.90607687,16.2109375,4.6341,2.0821,NA,NA,NA,NA,NA,bored,"bored, not bored","more bored, less bored",NA,NA,NA,NA,NA,NA,NA,NA,NA,NA,NA,NA,NA,NA,NA,NA,NA,NA,NA,NA,NA,NA,NA,NA,NA,NA,NA,NA,NA,NA,NA,NA,NA,NA,NA,NA,NA,NA,0,0,0,2,1,NA,NA,NA,NA,NA
SUPAMT06775,3TXWC2NHN5PWGA28RVYRTGZSRGWS9P,4A556372-8D0C-4C3A-9D1C-10D4A65245AA,2023-09-26_18h59.21.350,WP_VExplicitOC_LH,2022.2.5,Win32,10.90607687,24.0234375,4.1449,2.0113,NA,NA,NA,NA,NA,happy,"unhappy, happy","less happy, more happy",NA,NA,NA,NA,NA,NA,NA,NA,NA,NA,NA,NA,NA,NA,NA,NA,NA,NA,NA,NA,NA,NA,NA,NA,NA,NA,NA,NA,NA,NA,NA,NA,NA,NA,NA,NA,NA,NA,0,1,1,0,1,NA,NA,NA,NA,NA
SUPAMT06775,3TXWC2NHN5PWGA28RVYRTGZSRGWS9P,4A556372-8D0C-4C3A-9D1C-10D4A65245AA,2023-09-26_18h59.21.350,WP_VExplicitOC_LH,2022.2.5,Win32,10.90607687,19.921875,4.0447,2.0805,NA,NA,NA,NA,NA,frustrated,"frustrated, not frustrated","more frustrated, less frustrated",NA,NA,NA,NA,NA,NA,NA,NA,NA,NA,NA,NA,NA,NA,NA,NA,NA,NA,NA,NA,NA,NA,NA,NA,NA,NA,NA,NA,NA,NA,NA,NA,NA,NA,NA,NA,NA,NA,0,2,2,1,1,NA,NA,NA,NA,NA
SUPAMT06775,3TXWC2NHN5PWGA28RVYRTGZSRGWS9P,4A556372-8D0C-4C3A-9D1C-10D4A65245AA,2023-09-26_18h59.21.350,WP_VExplicitOC_LH,2022.2.5,Win32,10.90607687,NA,NA,NA,NA,NA,NA,NA,NA,NA,NA,NA,NA,NA,NA,NA,NA,NA,NA,NA,NA,NA,NA,NA,NA,NA,NA,NA,NA,NA,NA,NA,NA,NA,NA,NA,NA,NA,NA,NA,NA,NA,NA,NA,NA,NA,NA,NA,NA,NA,NA,NA,NA,NA,NA,0,0,0,0,1
SUPAMT06775,3TXWC2NHN5PWGA28RVYRTGZSRGWS9P,4A556372-8D0C-4C3A-9D1C-10D4A65245AA,2023-09-26_18h59.21.350,WP_VExplicitOC_LH,2022.2.5,Win32,10.90607687,34.5703125,3.5987,2.095,NA,NA,NA,NA,NA,frustrated,"frustrated, not frustrated","more frustrated, less frustrated",NA,NA,NA,NA,NA,NA,NA,NA,NA,NA,NA,NA,NA,NA,NA,NA,NA,NA,NA,NA,NA,NA,NA,NA,NA,NA,NA,NA,NA,NA,NA,NA,NA,NA,NA,NA,NA,NA,0,0,0,1,1,NA,NA,NA,NA,NA
SUPAMT06775,3TXWC2NHN5PWGA28RVYRTGZSRGWS9P,4A556372-8D0C-4C3A-9D1C-10D4A65245AA,2023-09-26_18h59.21.350,WP_VExplicitOC_LH,2022.2.5,Win32,10.90607687,24.8046875,3.9476,2.0722,NA,NA,NA,NA,NA,happy,"unhappy, happy","less happy, more happy",NA,NA,NA,NA,NA,NA,NA,NA,NA,NA,NA,NA,NA,NA,NA,NA,NA,NA,NA,NA,NA,NA,NA,NA,NA,NA,NA,NA,NA,NA,NA,NA,NA,NA,NA,NA,NA,NA,0,1,1,0,1,NA,NA,NA,NA,NA
SUPAMT06775,3TXWC2NHN5PWGA28RVYRTGZSRGWS9P,4A556372-8D0C-4C3A-9D1C-10D4A65245AA,2023-09-26_18h59.21.350,WP_VExplicitOC_LH,2022.2.5,Win32,10.90607687,33.3984375,4.4616,2.0937,NA,NA,NA,NA,NA,bored,"bored, not bored","more bored, less bored",NA,NA,NA,NA,NA,NA,NA,NA,NA,NA,NA,NA,NA,NA,NA,NA,NA,NA,NA,NA,NA,NA,NA,NA,NA,NA,NA,NA,NA,NA,NA,NA,NA,NA,NA,NA,NA,NA,0,2,2,2,1,NA,NA,NA,NA,NA
SUPAMT06775,3TXWC2NHN5PWGA28RVYRTGZSRGWS9P,4A556372-8D0C-4C3A-9D1C-10D4A65245AA,2023-09-26_18h59.21.350,WP_VExplicitOC_LH,2022.2.5,Win32,10.90607687,NA,NA,NA,NA,NA,NA,NA,NA,NA,NA,NA,NA,NA,NA,NA,NA,NA,NA,NA,NA,NA,NA,NA,NA,NA,NA,NA,NA,NA,NA,NA,NA,NA,NA,NA,NA,NA,NA,NA,NA,NA,NA,NA,NA,NA,NA,NA,NA,NA,NA,NA,NA,NA,NA,1,0,1,0,1
SUPAMT06775,3TXWC2NHN5PWGA28RVYRTGZSRGWS9P,4A556372-8D0C-4C3A-9D1C-10D4A65245AA,2023-09-26_18h59.21.350,WP_VExplicitOC_LH,2022.2.5,Win32,10.90607687,21.484375,4.0651,2.0584,NA,NA,NA,NA,NA,bored,"bored, not bored","more bored, less bored",NA,NA,NA,NA,NA,NA,NA,NA,NA,NA,NA,NA,NA,NA,NA,NA,NA,NA,NA,NA,NA,NA,NA,NA,NA,NA,NA,NA,NA,NA,NA,NA,NA,NA,NA,NA,NA,NA,0,0,0,2,1,NA,NA,NA,NA,NA
SUPAMT06775,3TXWC2NHN5PWGA28RVYRTGZSRGWS9P,4A556372-8D0C-4C3A-9D1C-10D4A65245AA,2023-09-26_18h59.21.350,WP_VExplicitOC_LH,2022.2.5,Win32,10.90607687,19.140625,3.8591,2.1028,NA,NA,NA,NA,NA,frustrated,"frustrated, not frustrated","more frustrated, less frustrated",NA,NA,NA,NA,NA,NA,NA,NA,NA,NA,NA,NA,NA,NA,NA,NA,NA,NA,NA,NA,NA,NA,NA,NA,NA,NA,NA,NA,NA,NA,NA,NA,NA,NA,NA,NA,NA,NA,0,1,1,1,1,NA,NA,NA,NA,NA
SUPAMT06775,3TXWC2NHN5PWGA28RVYRTGZSRGWS9P,4A556372-8D0C-4C3A-9D1C-10D4A65245AA,2023-09-26_18h59.21.350,WP_VExplicitOC_LH,2022.2.5,Win32,10.90607687,32.421875,4.418,2.1339,NA,NA,NA,NA,NA,happy,"unhappy, happy","less happy, more happy",NA,NA,NA,NA,NA,NA,NA,NA,NA,NA,NA,NA,NA,NA,NA,NA,NA,NA,NA,NA,NA,NA,NA,NA,NA,NA,NA,NA,NA,NA,NA,NA,NA,NA,NA,NA,NA,NA,0,2,2,0,1,NA,NA,NA,NA,NA
SUPAMT06775,3TXWC2NHN5PWGA28RVYRTGZSRGWS9P,4A556372-8D0C-4C3A-9D1C-10D4A65245AA,2023-09-26_18h59.21.350,WP_VExplicitOC_LH,2022.2.5,Win32,10.90607687,NA,NA,NA,NA,NA,NA,NA,NA,NA,NA,NA,NA,NA,NA,NA,NA,NA,NA,NA,NA,NA,NA,NA,NA,NA,NA,NA,NA,NA,NA,NA,NA,NA,NA,NA,NA,NA,NA,NA,NA,NA,NA,NA,NA,NA,NA,NA,NA,NA,NA,NA,NA,NA,NA,2,0,2,0,1
SUPAMT06775,3TXWC2NHN5PWGA28RVYRTGZSRGWS9P,4A556372-8D0C-4C3A-9D1C-10D4A65245AA,2023-09-26_18h59.21.350,WP_VExplicitOC_LH,2022.2.5,Win32,10.90607687,34.9609375,4.8938,2.0223,NA,NA,NA,NA,NA,happy,"unhappy, happy","less happy, more happy",NA,NA,NA,NA,NA,NA,NA,NA,NA,NA,NA,NA,NA,NA,NA,NA,NA,NA,NA,NA,NA,NA,NA,NA,NA,NA,NA,NA,NA,NA,NA,NA,NA,NA,NA,NA,NA,NA,0,0,0,0,1,NA,NA,NA,NA,NA
SUPAMT06775,3TXWC2NHN5PWGA28RVYRTGZSRGWS9P,4A556372-8D0C-4C3A-9D1C-10D4A65245AA,2023-09-26_18h59.21.350,WP_VExplicitOC_LH,2022.2.5,Win32,10.90607687,26.3671875,3.8835,2.0532,NA,NA,NA,NA,NA,bored,"bored, not bored","more bored, less bored",NA,NA,NA,NA,NA,NA,NA,NA,NA,NA,NA,NA,NA,NA,NA,NA,NA,NA,NA,NA,NA,NA,NA,NA,NA,NA,NA,NA,NA,NA,NA,NA,NA,NA,NA,NA,NA,NA,0,1,1,2,1,NA,NA,NA,NA,NA
SUPAMT06775,3TXWC2NHN5PWGA28RVYRTGZSRGWS9P,4A556372-8D0C-4C3A-9D1C-10D4A65245AA,2023-09-26_18h59.21.350,WP_VExplicitOC_LH,2022.2.5,Win32,10.90607687,36.9140625,3.657,2.0261,NA,NA,NA,NA,NA,frustrated,"frustrated, not frustrated","more frustrated, less frustrated",NA,NA,NA,NA,NA,NA,NA,NA,NA,NA,NA,NA,NA,NA,NA,NA,NA,NA,NA,NA,NA,NA,NA,NA,NA,NA,NA,NA,NA,NA,NA,NA,NA,NA,NA,NA,NA,NA,0,2,2,1,1,NA,NA,NA,NA,NA
SUPAMT06775,3TXWC2NHN5PWGA28RVYRTGZSRGWS9P,4A556372-8D0C-4C3A-9D1C-10D4A65245AA,2023-09-26_18h59.21.350,WP_VExplicitOC_LH,2022.2.5,Win32,10.90607687,NA,NA,NA,NA,NA,NA,NA,NA,NA,NA,NA,NA,NA,NA,NA,NA,NA,NA,NA,NA,NA,NA,NA,NA,NA,NA,NA,NA,NA,NA,NA,NA,NA,NA,NA,NA,NA,NA,NA,NA,NA,NA,NA,NA,NA,NA,NA,NA,NA,NA,NA,NA,NA,NA,3,0,3,0,1
SUPAMT06775,3TXWC2NHN5PWGA28RVYRTGZSRGWS9P,4A556372-8D0C-4C3A-9D1C-10D4A65245AA,2023-09-26_18h59.21.350,WP_VExplicitOC_LH,2022.2.5,Win32,10.90607687,14.2578125,5.0734,2.1226,NA,NA,NA,NA,NA,frustrated,"frustrated, not frustrated","more frustrated, less frustrated",NA,NA,NA,NA,NA,NA,NA,NA,NA,NA,NA,NA,NA,NA,NA,NA,NA,NA,NA,NA,NA,NA,NA,NA,NA,NA,NA,NA,NA,NA,NA,NA,NA,NA,NA,NA,NA,NA,0,0,0,1,1,NA,NA,NA,NA,NA
SUPAMT06775,3TXWC2NHN5PWGA28RVYRTGZSRGWS9P,4A556372-8D0C-4C3A-9D1C-10D4A65245AA,2023-09-26_18h59.21.350,WP_VExplicitOC_LH,2022.2.5,Win32,10.90607687,31.8359375,4.9925,2.0933,NA,NA,NA,NA,NA,happy,"unhappy, happy","less happy, more happy",NA,NA,NA,NA,NA,NA,NA,NA,NA,NA,NA,NA,NA,NA,NA,NA,NA,NA,NA,NA,NA,NA,NA,NA,NA,NA,NA,NA,NA,NA,NA,NA,NA,NA,NA,NA,NA,NA,0,1,1,0,1,NA,NA,NA,NA,NA
SUPAMT06775,3TXWC2NHN5PWGA28RVYRTGZSRGWS9P,4A556372-8D0C-4C3A-9D1C-10D4A65245AA,2023-09-26_18h59.21.350,WP_VExplicitOC_LH,2022.2.5,Win32,10.90607687,20.703125,5.4173,2.0147,NA,NA,NA,NA,NA,bored,"bored, not bored","more bored, less bored",NA,NA,NA,NA,NA,NA,NA,NA,NA,NA,NA,NA,NA,NA,NA,NA,NA,NA,NA,NA,NA,NA,NA,NA,NA,NA,NA,NA,NA,NA,NA,NA,NA,NA,NA,NA,NA,NA,0,2,2,2,1,NA,NA,NA,NA,NA
SUPAMT06775,3TXWC2NHN5PWGA28RVYRTGZSRGWS9P,4A556372-8D0C-4C3A-9D1C-10D4A65245AA,2023-09-26_18h59.21.350,WP_VExplicitOC_LH,2022.2.5,Win32,10.90607687,NA,NA,NA,NA,NA,NA,NA,NA,NA,NA,NA,NA,NA,NA,NA,NA,NA,NA,NA,NA,NA,NA,NA,NA,NA,NA,NA,NA,NA,NA,NA,NA,NA,NA,NA,NA,NA,NA,NA,NA,NA,NA,NA,NA,NA,NA,NA,NA,NA,NA,NA,NA,NA,NA,4,0,4,0,1
SUPAMT06775,3TXWC2NHN5PWGA28RVYRTGZSRGWS9P,4A556372-8D0C-4C3A-9D1C-10D4A65245AA,2023-09-26_18h59.21.350,WP_VExplicitOC_LH,2022.2.5,Win32,10.90607687,45.3125,6.6079,2.0318,NA,NA,NA,NA,NA,frustrated,"frustrated, not frustrated","more frustrated, less frustrated",NA,NA,NA,NA,NA,NA,NA,NA,NA,NA,NA,NA,NA,NA,NA,NA,NA,NA,NA,NA,NA,NA,NA,NA,NA,NA,NA,NA,NA,NA,NA,NA,NA,NA,NA,NA,NA,NA,0,0,0,1,1,NA,NA,NA,NA,NA
SUPAMT06775,3TXWC2NHN5PWGA28RVYRTGZSRGWS9P,4A556372-8D0C-4C3A-9D1C-10D4A65245AA,2023-09-26_18h59.21.350,WP_VExplicitOC_LH,2022.2.5,Win32,10.90607687,21.2890625,5.0112,2.1592,NA,NA,NA,NA,NA,happy,"unhappy, happy","less happy, more happy",NA,NA,NA,NA,NA,NA,NA,NA,NA,NA,NA,NA,NA,NA,NA,NA,NA,NA,NA,NA,NA,NA,NA,NA,NA,NA,NA,NA,NA,NA,NA,NA,NA,NA,NA,NA,NA,NA,0,1,1,0,1,NA,NA,NA,NA,NA
SUPAMT06775,3TXWC2NHN5PWGA28RVYRTGZSRGWS9P,4A556372-8D0C-4C3A-9D1C-10D4A65245AA,2023-09-26_18h59.21.350,WP_VExplicitOC_LH,2022.2.5,Win32,10.90607687,31.4453125,4.3352,2.0057,NA,NA,NA,NA,NA,bored,"bored, not bored","more bored, less bored",NA,NA,NA,NA,NA,NA,NA,NA,NA,NA,NA,NA,NA,NA,NA,NA,NA,NA,NA,NA,NA,NA,NA,NA,NA,NA,NA,NA,NA,NA,NA,NA,NA,NA,NA,NA,NA,NA,0,2,2,2,1,NA,NA,NA,NA,NA
SUPAMT06775,3TXWC2NHN5PWGA28RVYRTGZSRGWS9P,4A556372-8D0C-4C3A-9D1C-10D4A65245AA,2023-09-26_18h59.21.350,WP_VExplicitOC_LH,2022.2.5,Win32,10.90607687,NA,NA,NA,NA,NA,NA,NA,NA,NA,NA,NA,NA,NA,NA,NA,NA,NA,NA,NA,NA,NA,NA,NA,NA,NA,NA,NA,NA,NA,NA,NA,NA,NA,NA,NA,NA,NA,NA,NA,NA,NA,NA,NA,NA,NA,NA,NA,NA,NA,NA,NA,NA,NA,NA,5,0,5,0,1
SUPAMT06775,3TXWC2NHN5PWGA28RVYRTGZSRGWS9P,4A556372-8D0C-4C3A-9D1C-10D4A65245AA,2023-09-26_18h59.21.350,WP_VExplicitOC_LH,2022.2.5,Win32,10.90607687,36.9140625,4.3131,2.0474,NA,NA,NA,NA,NA,frustrated,"frustrated, not frustrated","more frustrated, less frustrated",NA,NA,NA,NA,NA,NA,NA,NA,NA,NA,NA,NA,NA,NA,NA,NA,NA,NA,NA,NA,NA,NA,NA,NA,NA,NA,NA,NA,NA,NA,NA,NA,NA,NA,NA,NA,NA,NA,0,0,0,1,1,NA,NA,NA,NA,NA
SUPAMT06775,3TXWC2NHN5PWGA28RVYRTGZSRGWS9P,4A556372-8D0C-4C3A-9D1C-10D4A65245AA,2023-09-26_18h59.21.350,WP_VExplicitOC_LH,2022.2.5,Win32,10.90607687,41.015625,4.2326,2.0294,NA,NA,NA,NA,NA,happy,"unhappy, happy","less happy, more happy",NA,NA,NA,NA,NA,NA,NA,NA,NA,NA,NA,NA,NA,NA,NA,NA,NA,NA,NA,NA,NA,NA,NA,NA,NA,NA,NA,NA,NA,NA,NA,NA,NA,NA,NA,NA,NA,NA,0,1,1,0,1,NA,NA,NA,NA,NA
SUPAMT06775,3TXWC2NHN5PWGA28RVYRTGZSRGWS9P,4A556372-8D0C-4C3A-9D1C-10D4A65245AA,2023-09-26_18h59.21.350,WP_VExplicitOC_LH,2022.2.5,Win32,10.90607687,19.140625,4.7427,2.0351,NA,NA,NA,NA,NA,bored,"bored, not bored","more bored, less bored",NA,NA,NA,NA,NA,NA,NA,NA,NA,NA,NA,NA,NA,NA,NA,NA,NA,NA,NA,NA,NA,NA,NA,NA,NA,NA,NA,NA,NA,NA,NA,NA,NA,NA,NA,NA,NA,NA,0,2,2,2,1,NA,NA,NA,NA,NA
SUPAMT06775,3TXWC2NHN5PWGA28RVYRTGZSRGWS9P,4A556372-8D0C-4C3A-9D1C-10D4A65245AA,2023-09-26_18h59.21.350,WP_VExplicitOC_LH,2022.2.5,Win32,10.90607687,NA,NA,NA,NA,NA,NA,NA,NA,NA,NA,NA,NA,NA,NA,NA,NA,NA,NA,NA,NA,NA,NA,NA,NA,NA,NA,NA,NA,NA,NA,NA,NA,NA,NA,NA,NA,NA,NA,NA,NA,NA,NA,NA,NA,NA,NA,NA,NA,NA,NA,NA,NA,NA,NA,6,0,6,0,1
SUPAMT06775,3TXWC2NHN5PWGA28RVYRTGZSRGWS9P,4A556372-8D0C-4C3A-9D1C-10D4A65245AA,2023-09-26_18h59.21.350,WP_VExplicitOC_LH,2022.2.5,Win32,10.90607687,25.78125,5.3863,2.0511,NA,NA,NA,NA,NA,happy,"unhappy, happy","less happy, more happy",NA,NA,NA,NA,NA,NA,NA,NA,NA,NA,NA,NA,NA,NA,NA,NA,NA,NA,NA,NA,NA,NA,NA,NA,NA,NA,NA,NA,NA,NA,NA,NA,NA,NA,NA,NA,NA,NA,0,0,0,0,1,NA,NA,NA,NA,NA
SUPAMT06775,3TXWC2NHN5PWGA28RVYRTGZSRGWS9P,4A556372-8D0C-4C3A-9D1C-10D4A65245AA,2023-09-26_18h59.21.350,WP_VExplicitOC_LH,2022.2.5,Win32,10.90607687,23.6328125,4.3945,2.0281,NA,NA,NA,NA,NA,bored,"bored, not bored","more bored, less bored",NA,NA,NA,NA,NA,NA,NA,NA,NA,NA,NA,NA,NA,NA,NA,NA,NA,NA,NA,NA,NA,NA,NA,NA,NA,NA,NA,NA,NA,NA,NA,NA,NA,NA,NA,NA,NA,NA,0,1,1,2,1,NA,NA,NA,NA,NA
SUPAMT06775,3TXWC2NHN5PWGA28RVYRTGZSRGWS9P,4A556372-8D0C-4C3A-9D1C-10D4A65245AA,2023-09-26_18h59.21.350,WP_VExplicitOC_LH,2022.2.5,Win32,10.90607687,23.2421875,5.0553,2.0524,NA,NA,NA,NA,NA,frustrated,"frustrated, not frustrated","more frustrated, less frustrated",NA,NA,NA,NA,NA,NA,NA,NA,NA,NA,NA,NA,NA,NA,NA,NA,NA,NA,NA,NA,NA,NA,NA,NA,NA,NA,NA,NA,NA,NA,NA,NA,NA,NA,NA,NA,NA,NA,0,2,2,1,1,NA,NA,NA,NA,NA
SUPAMT06775,3TXWC2NHN5PWGA28RVYRTGZSRGWS9P,4A556372-8D0C-4C3A-9D1C-10D4A65245AA,2023-09-26_18h59.21.350,WP_VExplicitOC_LH,2022.2.5,Win32,10.90607687,NA,NA,NA,NA,NA,NA,NA,NA,NA,NA,NA,NA,NA,NA,NA,NA,NA,NA,NA,NA,NA,NA,NA,NA,NA,NA,NA,NA,NA,NA,NA,NA,NA,NA,NA,NA,NA,NA,NA,NA,NA,NA,NA,NA,NA,NA,NA,NA,NA,NA,NA,NA,NA,NA,7,0,7,0,1
SUPAMT06775,3TXWC2NHN5PWGA28RVYRTGZSRGWS9P,4A556372-8D0C-4C3A-9D1C-10D4A65245AA,2023-09-26_18h59.21.350,WP_VExplicitOC_LH,2022.2.5,Win32,10.90607687,25,6.9177,2.0557,NA,NA,NA,NA,NA,frustrated,"frustrated, not frustrated","more frustrated, less frustrated",NA,NA,NA,NA,NA,NA,NA,NA,NA,NA,NA,NA,NA,NA,NA,NA,NA,NA,NA,NA,NA,NA,NA,NA,NA,NA,NA,NA,NA,NA,NA,NA,NA,NA,NA,NA,NA,NA,0,0,0,1,1,NA,NA,NA,NA,NA
SUPAMT06775,3TXWC2NHN5PWGA28RVYRTGZSRGWS9P,4A556372-8D0C-4C3A-9D1C-10D4A65245AA,2023-09-26_18h59.21.350,WP_VExplicitOC_LH,2022.2.5,Win32,10.90607687,23.6328125,6.1034,2.1038,NA,NA,NA,NA,NA,bored,"bored, not bored","more bored, less bored",NA,NA,NA,NA,NA,NA,NA,NA,NA,NA,NA,NA,NA,NA,NA,NA,NA,NA,NA,NA,NA,NA,NA,NA,NA,NA,NA,NA,NA,NA,NA,NA,NA,NA,NA,NA,NA,NA,0,1,1,2,1,NA,NA,NA,NA,NA
SUPAMT06775,3TXWC2NHN5PWGA28RVYRTGZSRGWS9P,4A556372-8D0C-4C3A-9D1C-10D4A65245AA,2023-09-26_18h59.21.350,WP_VExplicitOC_LH,2022.2.5,Win32,10.90607687,22.0703125,5.9543,2.0185,NA,NA,NA,NA,NA,happy,"unhappy, happy","less happy, more happy",NA,NA,NA,NA,NA,NA,NA,NA,NA,NA,NA,NA,NA,NA,NA,NA,NA,NA,NA,NA,NA,NA,NA,NA,NA,NA,NA,NA,NA,NA,NA,NA,NA,NA,NA,NA,NA,NA,0,2,2,0,1,NA,NA,NA,NA,NA
SUPAMT06775,3TXWC2NHN5PWGA28RVYRTGZSRGWS9P,4A556372-8D0C-4C3A-9D1C-10D4A65245AA,2023-09-26_18h59.21.350,WP_VExplicitOC_LH,2022.2.5,Win32,10.90607687,NA,NA,NA,NA,NA,NA,NA,NA,NA,NA,NA,NA,NA,NA,NA,NA,NA,NA,NA,NA,NA,NA,NA,NA,NA,NA,NA,NA,NA,NA,NA,NA,NA,NA,NA,NA,NA,NA,NA,NA,NA,NA,NA,NA,NA,NA,NA,NA,NA,NA,NA,NA,NA,NA,8,0,8,0,1
SUPAMT06775,3TXWC2NHN5PWGA28RVYRTGZSRGWS9P,4A556372-8D0C-4C3A-9D1C-10D4A65245AA,2023-09-26_18h59.21.350,WP_VExplicitOC_LH,2022.2.5,Win32,10.90607687,32.6171875,5.2093,2.046,NA,NA,NA,NA,NA,frustrated,"frustrated, not frustrated","more frustrated, less frustrated",NA,NA,NA,NA,NA,NA,NA,NA,NA,NA,NA,NA,NA,NA,NA,NA,NA,NA,NA,NA,NA,NA,NA,NA,NA,NA,NA,NA,NA,NA,NA,NA,NA,NA,NA,NA,NA,NA,0,0,0,1,1,NA,NA,NA,NA,NA
SUPAMT06775,3TXWC2NHN5PWGA28RVYRTGZSRGWS9P,4A556372-8D0C-4C3A-9D1C-10D4A65245AA,2023-09-26_18h59.21.350,WP_VExplicitOC_LH,2022.2.5,Win32,10.90607687,24.21875,5.9588,2.0001,NA,NA,NA,NA,NA,bored,"bored, not bored","more bored, less bored",NA,NA,NA,NA,NA,NA,NA,NA,NA,NA,NA,NA,NA,NA,NA,NA,NA,NA,NA,NA,NA,NA,NA,NA,NA,NA,NA,NA,NA,NA,NA,NA,NA,NA,NA,NA,NA,NA,0,1,1,2,1,NA,NA,NA,NA,NA
SUPAMT06775,3TXWC2NHN5PWGA28RVYRTGZSRGWS9P,4A556372-8D0C-4C3A-9D1C-10D4A65245AA,2023-09-26_18h59.21.350,WP_VExplicitOC_LH,2022.2.5,Win32,10.90607687,25.390625,4.0398,2.0124,NA,NA,NA,NA,NA,happy,"unhappy, happy","less happy, more happy",NA,NA,NA,NA,NA,NA,NA,NA,NA,NA,NA,NA,NA,NA,NA,NA,NA,NA,NA,NA,NA,NA,NA,NA,NA,NA,NA,NA,NA,NA,NA,NA,NA,NA,NA,NA,NA,NA,0,2,2,0,1,NA,NA,NA,NA,NA
SUPAMT06775,3TXWC2NHN5PWGA28RVYRTGZSRGWS9P,4A556372-8D0C-4C3A-9D1C-10D4A65245AA,2023-09-26_18h59.21.350,WP_VExplicitOC_LH,2022.2.5,Win32,10.90607687,NA,NA,NA,NA,NA,NA,NA,NA,NA,NA,NA,NA,NA,NA,NA,NA,NA,NA,NA,NA,NA,NA,NA,NA,NA,NA,NA,NA,NA,NA,NA,NA,NA,NA,NA,NA,NA,NA,NA,NA,NA,NA,NA,NA,NA,NA,NA,NA,NA,NA,NA,NA,NA,NA,9,0,9,0,1
SUPAMT06775,3TXWC2NHN5PWGA28RVYRTGZSRGWS9P,4A556372-8D0C-4C3A-9D1C-10D4A65245AA,2023-09-26_18h59.21.350,WP_VExplicitOC_LH,2022.2.5,Win32,10.90607687,29.296875,4.931,2.0258,NA,NA,NA,NA,NA,bored,"bored, not bored","more bored, less bored",NA,NA,NA,NA,NA,NA,NA,NA,NA,NA,NA,NA,NA,NA,NA,NA,NA,NA,NA,NA,NA,NA,NA,NA,NA,NA,NA,NA,NA,NA,NA,NA,NA,NA,NA,NA,NA,NA,0,0,0,2,1,NA,NA,NA,NA,NA
SUPAMT06775,3TXWC2NHN5PWGA28RVYRTGZSRGWS9P,4A556372-8D0C-4C3A-9D1C-10D4A65245AA,2023-09-26_18h59.21.350,WP_VExplicitOC_LH,2022.2.5,Win32,10.90607687,21.875,5.8991,2.0351,NA,NA,NA,NA,NA,frustrated,"frustrated, not frustrated","more frustrated, less frustrated",NA,NA,NA,NA,NA,NA,NA,NA,NA,NA,NA,NA,NA,NA,NA,NA,NA,NA,NA,NA,NA,NA,NA,NA,NA,NA,NA,NA,NA,NA,NA,NA,NA,NA,NA,NA,NA,NA,0,1,1,1,1,NA,NA,NA,NA,NA
SUPAMT06775,3TXWC2NHN5PWGA28RVYRTGZSRGWS9P,4A556372-8D0C-4C3A-9D1C-10D4A65245AA,2023-09-26_18h59.21.350,WP_VExplicitOC_LH,2022.2.5,Win32,10.90607687,13.671875,5.0412,2.0243,NA,NA,NA,NA,NA,happy,"unhappy, happy","less happy, more happy",NA,NA,NA,NA,NA,NA,NA,NA,NA,NA,NA,NA,NA,NA,NA,NA,NA,NA,NA,NA,NA,NA,NA,NA,NA,NA,NA,NA,NA,NA,NA,NA,NA,NA,NA,NA,NA,NA,0,2,2,0,1,NA,NA,NA,NA,NA
SUPAMT06775,3TXWC2NHN5PWGA28RVYRTGZSRGWS9P,4A556372-8D0C-4C3A-9D1C-10D4A65245AA,2023-09-26_18h59.21.350,WP_VExplicitOC_LH,2022.2.5,Win32,10.90607687,NA,NA,NA,NA,NA,NA,NA,NA,NA,NA,NA,NA,NA,NA,NA,NA,NA,NA,NA,NA,NA,NA,NA,NA,NA,NA,NA,NA,NA,NA,NA,NA,NA,NA,NA,NA,NA,NA,NA,NA,NA,NA,NA,NA,NA,NA,NA,NA,NA,NA,NA,NA,NA,NA,10,0,10,0,1
SUPAMT06775,3TXWC2NHN5PWGA28RVYRTGZSRGWS9P,4A556372-8D0C-4C3A-9D1C-10D4A65245AA,2023-09-26_18h59.21.350,WP_VExplicitOC_LH,2022.2.5,Win32,10.90607687,25.9765625,4.451,2.0783,NA,NA,NA,NA,NA,bored,"bored, not bored","more bored, less bored",NA,NA,NA,NA,NA,NA,NA,NA,NA,NA,NA,NA,NA,NA,NA,NA,NA,NA,NA,NA,NA,NA,NA,NA,NA,NA,NA,NA,NA,NA,NA,NA,NA,NA,NA,NA,NA,NA,0,0,0,2,1,NA,NA,NA,NA,NA
SUPAMT06775,3TXWC2NHN5PWGA28RVYRTGZSRGWS9P,4A556372-8D0C-4C3A-9D1C-10D4A65245AA,2023-09-26_18h59.21.350,WP_VExplicitOC_LH,2022.2.5,Win32,10.90607687,20.703125,4.3759,2.0264,NA,NA,NA,NA,NA,frustrated,"frustrated, not frustrated","more frustrated, less frustrated",NA,NA,NA,NA,NA,NA,NA,NA,NA,NA,NA,NA,NA,NA,NA,NA,NA,NA,NA,NA,NA,NA,NA,NA,NA,NA,NA,NA,NA,NA,NA,NA,NA,NA,NA,NA,NA,NA,0,1,1,1,1,NA,NA,NA,NA,NA
SUPAMT06775,3TXWC2NHN5PWGA28RVYRTGZSRGWS9P,4A556372-8D0C-4C3A-9D1C-10D4A65245AA,2023-09-26_18h59.21.350,WP_VExplicitOC_LH,2022.2.5,Win32,10.90607687,19.921875,4.1634,2.0198,NA,NA,NA,NA,NA,happy,"unhappy, happy","less happy, more happy",NA,NA,NA,NA,NA,NA,NA,NA,NA,NA,NA,NA,NA,NA,NA,NA,NA,NA,NA,NA,NA,NA,NA,NA,NA,NA,NA,NA,NA,NA,NA,NA,NA,NA,NA,NA,NA,NA,0,2,2,0,1,NA,NA,NA,NA,NA
SUPAMT06775,3TXWC2NHN5PWGA28RVYRTGZSRGWS9P,4A556372-8D0C-4C3A-9D1C-10D4A65245AA,2023-09-26_18h59.21.350,WP_VExplicitOC_LH,2022.2.5,Win32,10.90607687,NA,NA,NA,NA,NA,NA,NA,NA,NA,NA,NA,NA,NA,NA,NA,NA,NA,NA,NA,NA,NA,NA,NA,NA,NA,NA,NA,NA,NA,NA,NA,NA,NA,NA,NA,NA,NA,NA,NA,NA,NA,NA,NA,NA,NA,NA,NA,NA,NA,NA,NA,NA,NA,NA,11,0,11,0,1
SUPAMT06775,3TXWC2NHN5PWGA28RVYRTGZSRGWS9P,4A556372-8D0C-4C3A-9D1C-10D4A65245AA,2023-09-26_18h59.21.350,WP_VExplicitOC_LH,2022.2.5,Win32,10.90607687,22.65625,4.9729,2.0474,NA,NA,NA,NA,NA,bored,"bored, not bored","more bored, less bored",NA,NA,NA,NA,NA,NA,NA,NA,NA,NA,NA,NA,NA,NA,NA,NA,NA,NA,NA,NA,NA,NA,NA,NA,NA,NA,NA,NA,NA,NA,NA,NA,NA,NA,NA,NA,NA,NA,0,0,0,2,1,NA,NA,NA,NA,NA
SUPAMT06775,3TXWC2NHN5PWGA28RVYRTGZSRGWS9P,4A556372-8D0C-4C3A-9D1C-10D4A65245AA,2023-09-26_18h59.21.350,WP_VExplicitOC_LH,2022.2.5,Win32,10.90607687,19.921875,4.0442,2.0794,NA,NA,NA,NA,NA,happy,"unhappy, happy","less happy, more happy",NA,NA,NA,NA,NA,NA,NA,NA,NA,NA,NA,NA,NA,NA,NA,NA,NA,NA,NA,NA,NA,NA,NA,NA,NA,NA,NA,NA,NA,NA,NA,NA,NA,NA,NA,NA,NA,NA,0,1,1,0,1,NA,NA,NA,NA,NA
SUPAMT06775,3TXWC2NHN5PWGA28RVYRTGZSRGWS9P,4A556372-8D0C-4C3A-9D1C-10D4A65245AA,2023-09-26_18h59.21.350,WP_VExplicitOC_LH,2022.2.5,Win32,10.90607687,38.0859375,3.8413,2.0194,NA,NA,NA,NA,NA,frustrated,"frustrated, not frustrated","more frustrated, less frustrated",NA,NA,NA,NA,NA,NA,NA,NA,NA,NA,NA,NA,NA,NA,NA,NA,NA,NA,NA,NA,NA,NA,NA,NA,NA,NA,NA,NA,NA,NA,NA,NA,NA,NA,NA,NA,NA,NA,0,2,2,1,1,NA,NA,NA,NA,NA
SUPAMT06775,3TXWC2NHN5PWGA28RVYRTGZSRGWS9P,4A556372-8D0C-4C3A-9D1C-10D4A65245AA,2023-09-26_18h59.21.350,WP_VExplicitOC_LH,2022.2.5,Win32,10.90607687,NA,NA,NA,NA,NA,NA,NA,NA,NA,NA,NA,NA,NA,NA,NA,NA,NA,NA,NA,NA,NA,NA,NA,NA,NA,NA,NA,NA,NA,NA,NA,NA,NA,NA,NA,NA,NA,NA,NA,NA,NA,NA,NA,NA,NA,NA,NA,NA,NA,NA,NA,NA,NA,NA,12,0,12,0,1
SUPAMT06775,3TXWC2NHN5PWGA28RVYRTGZSRGWS9P,4A556372-8D0C-4C3A-9D1C-10D4A65245AA,2023-09-26_18h59.21.350,WP_VExplicitOC_LH,2022.2.5,Win32,10.90607687,30.6640625,3.8807,2.0841,NA,NA,NA,NA,NA,bored,"bored, not bored","more bored, less bored",NA,NA,NA,NA,NA,NA,NA,NA,NA,NA,NA,NA,NA,NA,NA,NA,NA,NA,NA,NA,NA,NA,NA,NA,NA,NA,NA,NA,NA,NA,NA,NA,NA,NA,NA,NA,NA,NA,0,0,0,2,1,NA,NA,NA,NA,NA
SUPAMT06775,3TXWC2NHN5PWGA28RVYRTGZSRGWS9P,4A556372-8D0C-4C3A-9D1C-10D4A65245AA,2023-09-26_18h59.21.350,WP_VExplicitOC_LH,2022.2.5,Win32,10.90607687,17.3828125,4.2481,2.0054,NA,NA,NA,NA,NA,frustrated,"frustrated, not frustrated","more frustrated, less frustrated",NA,NA,NA,NA,NA,NA,NA,NA,NA,NA,NA,NA,NA,NA,NA,NA,NA,NA,NA,NA,NA,NA,NA,NA,NA,NA,NA,NA,NA,NA,NA,NA,NA,NA,NA,NA,NA,NA,0,1,1,1,1,NA,NA,NA,NA,NA
SUPAMT06775,3TXWC2NHN5PWGA28RVYRTGZSRGWS9P,4A556372-8D0C-4C3A-9D1C-10D4A65245AA,2023-09-26_18h59.21.350,WP_VExplicitOC_LH,2022.2.5,Win32,10.90607687,20.1171875,3.5747,2.0376,NA,NA,NA,NA,NA,happy,"unhappy, happy","less happy, more happy",NA,NA,NA,NA,NA,NA,NA,NA,NA,NA,NA,NA,NA,NA,NA,NA,NA,NA,NA,NA,NA,NA,NA,NA,NA,NA,NA,NA,NA,NA,NA,NA,NA,NA,NA,NA,NA,NA,0,2,2,0,1,NA,NA,NA,NA,NA
SUPAMT06775,3TXWC2NHN5PWGA28RVYRTGZSRGWS9P,4A556372-8D0C-4C3A-9D1C-10D4A65245AA,2023-09-26_18h59.21.350,WP_VExplicitOC_LH,2022.2.5,Win32,10.90607687,NA,NA,NA,NA,NA,NA,NA,NA,NA,NA,NA,NA,NA,NA,NA,NA,NA,NA,NA,NA,NA,NA,NA,NA,NA,NA,NA,NA,NA,NA,NA,NA,NA,NA,NA,NA,NA,NA,NA,NA,NA,NA,NA,NA,NA,NA,NA,NA,NA,NA,NA,NA,NA,NA,13,0,13,0,1
SUPAMT06775,3TXWC2NHN5PWGA28RVYRTGZSRGWS9P,4A556372-8D0C-4C3A-9D1C-10D4A65245AA,2023-09-26_18h59.21.350,WP_VExplicitOC_LH,2022.2.5,Win32,10.90607687,28.90625,3.9337,2.0562,NA,NA,NA,NA,NA,bored,"bored, not bored","more bored, less bored",NA,NA,NA,NA,NA,NA,NA,NA,NA,NA,NA,NA,NA,NA,NA,NA,NA,NA,NA,NA,NA,NA,NA,NA,NA,NA,NA,NA,NA,NA,NA,NA,NA,NA,NA,NA,NA,NA,0,0,0,2,1,NA,NA,NA,NA,NA
SUPAMT06775,3TXWC2NHN5PWGA28RVYRTGZSRGWS9P,4A556372-8D0C-4C3A-9D1C-10D4A65245AA,2023-09-26_18h59.21.350,WP_VExplicitOC_LH,2022.2.5,Win32,10.90607687,24.4140625,5.5386,2.0639,NA,NA,NA,NA,NA,happy,"unhappy, happy","less happy, more happy",NA,NA,NA,NA,NA,NA,NA,NA,NA,NA,NA,NA,NA,NA,NA,NA,NA,NA,NA,NA,NA,NA,NA,NA,NA,NA,NA,NA,NA,NA,NA,NA,NA,NA,NA,NA,NA,NA,0,1,1,0,1,NA,NA,NA,NA,NA
SUPAMT06775,3TXWC2NHN5PWGA28RVYRTGZSRGWS9P,4A556372-8D0C-4C3A-9D1C-10D4A65245AA,2023-09-26_18h59.21.350,WP_VExplicitOC_LH,2022.2.5,Win32,10.90607687,21.2890625,3.9196,2.0752,NA,NA,NA,NA,NA,frustrated,"frustrated, not frustrated","more frustrated, less frustrated",NA,NA,NA,NA,NA,NA,NA,NA,NA,NA,NA,NA,NA,NA,NA,NA,NA,NA,NA,NA,NA,NA,NA,NA,NA,NA,NA,NA,NA,NA,NA,NA,NA,NA,NA,NA,NA,NA,0,2,2,1,1,NA,NA,NA,NA,NA
SUPAMT06775,3TXWC2NHN5PWGA28RVYRTGZSRGWS9P,4A556372-8D0C-4C3A-9D1C-10D4A65245AA,2023-09-26_18h59.21.350,WP_VExplicitOC_LH,2022.2.5,Win32,10.90607687,NA,NA,NA,NA,NA,NA,NA,NA,NA,NA,NA,NA,NA,NA,NA,NA,NA,NA,NA,NA,NA,NA,NA,NA,NA,NA,NA,NA,NA,NA,NA,NA,NA,NA,NA,NA,NA,NA,NA,NA,NA,NA,NA,NA,NA,NA,NA,NA,NA,NA,NA,NA,NA,NA,14,0,14,0,1
SUPAMT06775,3TXWC2NHN5PWGA28RVYRTGZSRGWS9P,4A556372-8D0C-4C3A-9D1C-10D4A65245AA,2023-09-26_18h59.21.350,WP_VExplicitOC_LH,2022.2.5,Win32,10.90607687,NA,NA,NA,NA,NA,NA,NA,NA,NA,NA,NA,NA,NA,NA,NA,NA,NA,NA,NA,NA,NA,NA,NA,NA,NA,NA,NA,NA,NA,NA,NA,NA,NA,NA,NA,NA,NA,NA,NA,NA,NA,NA,NA,NA,NA,NA,NA,NA,NA,NA,NA,NA,NA,NA,NA,NA,NA,NA,NA
