participant,session,completion,date,expName,psychopyVersion,OS,frameRate,rating_all.response,rating_all.rt,rating_all.tStart,rndRat1.thisRepN,rndRat1.thisTrialN,rndRat1.thisN,rndRat1.thisIndex,rndRat1.ran,Emo,Labs,Labs2,rating_alt.response,rating_alt.rt,AltC.thisRepN,AltC.thisTrialN,AltC.thisN,AltC.thisIndex,AltC.ran,alt_choices,pic_choices,TopAlt_Choice,rndRat2.thisRepN,rndRat2.thisTrialN,rndRat2.thisN,rndRat2.thisIndex,rndRat2.ran,rndRat3.thisRepN,rndRat3.thisTrialN,rndRat3.thisN,rndRat3.thisIndex,rndRat3.ran,trials_FC_H.thisRepN,trials_FC_H.thisTrialN,trials_FC_H.thisN,trials_FC_H.thisIndex,trials_FC_H.ran,rating_alt_2.response,rating_alt_2.rt,AltC2.thisRepN,AltC2.thisTrialN,AltC2.thisN,AltC2.thisIndex,AltC2.ran,BottomAlt_Choice,rndRat4.thisRepN,rndRat4.thisTrialN,rndRat4.thisN,rndRat4.thisIndex,rndRat4.ran,rndRat5.thisRepN,rndRat5.thisTrialN,rndRat5.thisN,rndRat5.thisIndex,rndRat5.ran,trials_FC_L.thisRepN,trials_FC_L.thisTrialN,trials_FC_L.thisN,trials_FC_L.thisIndex,trials_FC_L.ran
SUPAMT49216,3N2BF7Y2VWTMXL7M5AQXUOYAJG5HM0,9A9419F1-69BE-48E2-BDC1-145371506A7A,2023-09-28_13h02.37.037,WP_VExplicitOC_HL,2022.2.5,Win32,6.4,NA,NA,NA,NA,NA,NA,NA,NA,NA,NA,NA,NA,NA,NA,NA,NA,NA,NA,NA,NA,NA,NA,NA,NA,NA,NA,NA,NA,NA,NA,NA,NA,NA,NA,NA,NA,NA,NA,NA,NA,NA,NA,NA,NA,NA,NA,NA,NA,NA,NA,NA,NA,NA,NA,NA,NA,NA,NA,NA
SUPAMT49216,3N2BF7Y2VWTMXL7M5AQXUOYAJG5HM0,9A9419F1-69BE-48E2-BDC1-145371506A7A,2023-09-28_13h02.37.037,WP_VExplicitOC_HL,2022.2.5,Win32,6.4,NA,NA,NA,NA,NA,NA,NA,NA,NA,NA,NA,NA,NA,NA,NA,NA,NA,NA,NA,NA,NA,NA,NA,NA,NA,NA,NA,NA,NA,NA,NA,NA,NA,NA,NA,NA,NA,NA,NA,NA,NA,NA,NA,NA,NA,NA,NA,NA,NA,NA,NA,NA,NA,NA,NA,NA,NA,NA,NA
SUPAMT49216,3N2BF7Y2VWTMXL7M5AQXUOYAJG5HM0,9A9419F1-69BE-48E2-BDC1-145371506A7A,2023-09-28_13h02.37.037,WP_VExplicitOC_HL,2022.2.5,Win32,6.4,NA,NA,NA,NA,NA,NA,NA,NA,NA,NA,NA,NA,NA,NA,NA,NA,NA,NA,NA,NA,NA,NA,NA,NA,NA,NA,NA,NA,NA,NA,NA,NA,NA,NA,NA,NA,NA,NA,NA,NA,NA,NA,NA,NA,NA,NA,NA,NA,NA,NA,NA,NA,NA,NA,NA,NA,NA,NA,NA
SUPAMT49216,3N2BF7Y2VWTMXL7M5AQXUOYAJG5HM0,9A9419F1-69BE-48E2-BDC1-145371506A7A,2023-09-28_13h02.37.037,WP_VExplicitOC_HL,2022.2.5,Win32,6.4,100,6.838,2.073,0,0,0,1,1,frustrated,"frustrated, not frustrated","more frustrated, less frustrated",NA,NA,NA,NA,NA,NA,NA,NA,NA,NA,NA,NA,NA,NA,NA,NA,NA,NA,NA,NA,NA,NA,NA,NA,NA,NA,NA,NA,NA,NA,NA,NA,NA,NA,NA,NA,NA,NA,NA,NA,NA,NA,NA,NA,NA,NA,NA,NA
SUPAMT49216,3N2BF7Y2VWTMXL7M5AQXUOYAJG5HM0,9A9419F1-69BE-48E2-BDC1-145371506A7A,2023-09-28_13h02.37.037,WP_VExplicitOC_HL,2022.2.5,Win32,6.4,49.76958525,4.191,2.115,0,1,1,2,1,bored,"bored, not bored","more bored, less bored",NA,NA,NA,NA,NA,NA,NA,NA,NA,NA,NA,NA,NA,NA,NA,NA,NA,NA,NA,NA,NA,NA,NA,NA,NA,NA,NA,NA,NA,NA,NA,NA,NA,NA,NA,NA,NA,NA,NA,NA,NA,NA,NA,NA,NA,NA,NA,NA
SUPAMT49216,3N2BF7Y2VWTMXL7M5AQXUOYAJG5HM0,9A9419F1-69BE-48E2-BDC1-145371506A7A,2023-09-28_13h02.37.037,WP_VExplicitOC_HL,2022.2.5,Win32,6.4,100,4.588,2.047,0,2,2,0,1,happy,"unhappy, happy","less happy, more happy",NA,NA,NA,NA,NA,NA,NA,NA,NA,NA,NA,NA,NA,NA,NA,NA,NA,NA,NA,NA,NA,NA,NA,NA,NA,NA,NA,NA,NA,NA,NA,NA,NA,NA,NA,NA,NA,NA,NA,NA,NA,NA,NA,NA,NA,NA,NA,NA
SUPAMT49216,3N2BF7Y2VWTMXL7M5AQXUOYAJG5HM0,9A9419F1-69BE-48E2-BDC1-145371506A7A,2023-09-28_13h02.37.037,WP_VExplicitOC_HL,2022.2.5,Win32,6.4,NA,NA,NA,NA,NA,NA,NA,NA,NA,NA,NA,NA,NA,NA,NA,NA,NA,NA,NA,NA,NA,NA,NA,NA,NA,NA,NA,NA,NA,NA,NA,NA,NA,NA,NA,NA,NA,NA,NA,NA,NA,NA,NA,NA,NA,NA,NA,NA,NA,NA,NA,NA,NA,NA,NA,NA,NA,NA,NA
SUPAMT49216,3N2BF7Y2VWTMXL7M5AQXUOYAJG5HM0,9A9419F1-69BE-48E2-BDC1-145371506A7A,2023-09-28_13h02.37.037,WP_VExplicitOC_HL,2022.2.5,Win32,6.4,NA,NA,NA,NA,NA,NA,NA,NA,NA,NA,NA,NA,NA,NA,NA,NA,NA,NA,NA,NA,NA,NA,NA,NA,NA,NA,NA,NA,NA,NA,NA,NA,NA,NA,NA,NA,NA,NA,NA,NA,NA,NA,NA,NA,NA,NA,NA,NA,NA,NA,NA,NA,NA,NA,NA,NA,NA,NA,NA
SUPAMT49216,3N2BF7Y2VWTMXL7M5AQXUOYAJG5HM0,9A9419F1-69BE-48E2-BDC1-145371506A7A,2023-09-28_13h02.37.037,WP_VExplicitOC_HL,2022.2.5,Win32,6.4,NA,NA,NA,NA,NA,NA,NA,NA,NA,NA,NA,NA,NA,NA,NA,NA,NA,NA,NA,NA,NA,NA,NA,NA,NA,NA,NA,NA,NA,NA,NA,NA,NA,NA,NA,NA,NA,NA,NA,NA,NA,NA,NA,NA,NA,NA,NA,NA,NA,NA,NA,NA,NA,NA,NA,NA,NA,NA,NA
SUPAMT49216,3N2BF7Y2VWTMXL7M5AQXUOYAJG5HM0,9A9419F1-69BE-48E2-BDC1-145371506A7A,2023-09-28_13h02.37.037,WP_VExplicitOC_HL,2022.2.5,Win32,6.4,NA,NA,NA,NA,NA,NA,NA,NA,NA,NA,NA,NA,NA,NA,NA,NA,NA,NA,NA,NA,NA,NA,NA,NA,NA,NA,NA,NA,NA,NA,NA,NA,NA,NA,NA,NA,NA,NA,NA,NA,NA,NA,NA,NA,NA,NA,NA,NA,NA,NA,NA,NA,NA,NA,NA,NA,NA,NA,NA
SUPAMT49216,3N2BF7Y2VWTMXL7M5AQXUOYAJG5HM0,9A9419F1-69BE-48E2-BDC1-145371506A7A,2023-09-28_13h02.37.037,WP_VExplicitOC_HL,2022.2.5,Win32,6.4,NA,NA,NA,NA,NA,NA,NA,NA,NA,NA,NA,-41.78187404,6.321,0,0,0,0,1,rest (looking at a fixed cross),001.png,NA,NA,NA,NA,NA,NA,NA,NA,NA,NA,NA,NA,NA,NA,NA,NA,NA,NA,NA,NA,NA,NA,NA,NA,NA,NA,NA,NA,NA,NA,NA,NA,NA,NA,NA,NA,NA,NA,NA
SUPAMT49216,3N2BF7Y2VWTMXL7M5AQXUOYAJG5HM0,9A9419F1-69BE-48E2-BDC1-145371506A7A,2023-09-28_13h02.37.037,WP_VExplicitOC_HL,2022.2.5,Win32,6.4,NA,NA,NA,NA,NA,NA,NA,NA,NA,NA,NA,47.61904762,1.895,0,1,1,1,1,stand up,002.png,NA,NA,NA,NA,NA,NA,NA,NA,NA,NA,NA,NA,NA,NA,NA,NA,NA,NA,NA,NA,NA,NA,NA,NA,NA,NA,NA,NA,NA,NA,NA,NA,NA,NA,NA,NA,NA,NA,NA
SUPAMT49216,3N2BF7Y2VWTMXL7M5AQXUOYAJG5HM0,9A9419F1-69BE-48E2-BDC1-145371506A7A,2023-09-28_13h02.37.037,WP_VExplicitOC_HL,2022.2.5,Win32,6.4,NA,NA,NA,NA,NA,NA,NA,NA,NA,NA,NA,62.67281106,0.654,0,2,2,2,1,stretch,003.png,NA,NA,NA,NA,NA,NA,NA,NA,NA,NA,NA,NA,NA,NA,NA,NA,NA,NA,NA,NA,NA,NA,NA,NA,NA,NA,NA,NA,NA,NA,NA,NA,NA,NA,NA,NA,NA,NA,NA
SUPAMT49216,3N2BF7Y2VWTMXL7M5AQXUOYAJG5HM0,9A9419F1-69BE-48E2-BDC1-145371506A7A,2023-09-28_13h02.37.037,WP_VExplicitOC_HL,2022.2.5,Win32,6.4,NA,NA,NA,NA,NA,NA,NA,NA,NA,NA,NA,62.67281106,1.522,0,3,3,3,1,make a drink,004.png,NA,NA,NA,NA,NA,NA,NA,NA,NA,NA,NA,NA,NA,NA,NA,NA,NA,NA,NA,NA,NA,NA,NA,NA,NA,NA,NA,NA,NA,NA,NA,NA,NA,NA,NA,NA,NA,NA,NA
SUPAMT49216,3N2BF7Y2VWTMXL7M5AQXUOYAJG5HM0,9A9419F1-69BE-48E2-BDC1-145371506A7A,2023-09-28_13h02.37.037,WP_VExplicitOC_HL,2022.2.5,Win32,6.4,NA,NA,NA,NA,NA,NA,NA,NA,NA,NA,NA,49.76958525,0.169,0,4,4,4,1,scroll social media,005.png,NA,NA,NA,NA,NA,NA,NA,NA,NA,NA,NA,NA,NA,NA,NA,NA,NA,NA,NA,NA,NA,NA,NA,NA,NA,NA,NA,NA,NA,NA,NA,NA,NA,NA,NA,NA,NA,NA,NA
SUPAMT49216,3N2BF7Y2VWTMXL7M5AQXUOYAJG5HM0,9A9419F1-69BE-48E2-BDC1-145371506A7A,2023-09-28_13h02.37.037,WP_VExplicitOC_HL,2022.2.5,Win32,6.4,NA,NA,NA,NA,NA,NA,NA,NA,NA,NA,NA,62.3655914,0.168,0,5,5,5,1,listen to music,006.png,NA,NA,NA,NA,NA,NA,NA,NA,NA,NA,NA,NA,NA,NA,NA,NA,NA,NA,NA,NA,NA,NA,NA,NA,NA,NA,NA,NA,NA,NA,NA,NA,NA,NA,NA,NA,NA,NA,NA
SUPAMT49216,3N2BF7Y2VWTMXL7M5AQXUOYAJG5HM0,9A9419F1-69BE-48E2-BDC1-145371506A7A,2023-09-28_13h02.37.037,WP_VExplicitOC_HL,2022.2.5,Win32,6.4,NA,NA,NA,NA,NA,NA,NA,NA,NA,NA,NA,49.76958525,1.884,0,6,6,6,1,daydream,007.png,NA,NA,NA,NA,NA,NA,NA,NA,NA,NA,NA,NA,NA,NA,NA,NA,NA,NA,NA,NA,NA,NA,NA,NA,NA,NA,NA,NA,NA,NA,NA,NA,NA,NA,NA,NA,NA,NA,NA
SUPAMT49216,3N2BF7Y2VWTMXL7M5AQXUOYAJG5HM0,9A9419F1-69BE-48E2-BDC1-145371506A7A,2023-09-28_13h02.37.037,WP_VExplicitOC_HL,2022.2.5,Win32,6.4,NA,NA,NA,NA,NA,NA,NA,NA,NA,NA,NA,98.31029186,0.91,0,7,7,7,1,watch a short animation,008.png,NA,NA,NA,NA,NA,NA,NA,NA,NA,NA,NA,NA,NA,NA,NA,NA,NA,NA,NA,NA,NA,NA,NA,NA,NA,NA,NA,NA,NA,NA,NA,NA,NA,NA,NA,NA,NA,NA,NA
SUPAMT49216,3N2BF7Y2VWTMXL7M5AQXUOYAJG5HM0,9A9419F1-69BE-48E2-BDC1-145371506A7A,2023-09-28_13h02.37.037,WP_VExplicitOC_HL,2022.2.5,Win32,6.4,NA,NA,NA,NA,NA,NA,NA,NA,NA,NA,NA,-21.50537634,1.314,0,8,8,8,1,read a novel,009.png,NA,NA,NA,NA,NA,NA,NA,NA,NA,NA,NA,NA,NA,NA,NA,NA,NA,NA,NA,NA,NA,NA,NA,NA,NA,NA,NA,NA,NA,NA,NA,NA,NA,NA,NA,NA,NA,NA,NA
SUPAMT49216,3N2BF7Y2VWTMXL7M5AQXUOYAJG5HM0,9A9419F1-69BE-48E2-BDC1-145371506A7A,2023-09-28_13h02.37.037,WP_VExplicitOC_HL,2022.2.5,Win32,6.4,NA,NA,NA,NA,NA,NA,NA,NA,NA,NA,NA,17.8187404,0.484,0,9,9,9,1,read the news,010.png,NA,NA,NA,NA,NA,NA,NA,NA,NA,NA,NA,NA,NA,NA,NA,NA,NA,NA,NA,NA,NA,NA,NA,NA,NA,NA,NA,NA,NA,NA,NA,NA,NA,NA,NA,NA,NA,NA,NA
SUPAMT49216,3N2BF7Y2VWTMXL7M5AQXUOYAJG5HM0,9A9419F1-69BE-48E2-BDC1-145371506A7A,2023-09-28_13h02.37.037,WP_VExplicitOC_HL,2022.2.5,Win32,6.4,NA,NA,NA,NA,NA,NA,NA,NA,NA,NA,NA,NA,NA,NA,NA,NA,NA,NA,NA,NA,NA,NA,NA,NA,NA,NA,NA,NA,NA,NA,NA,NA,NA,NA,NA,NA,NA,NA,NA,NA,NA,NA,NA,NA,NA,NA,NA,NA,NA,NA,NA,NA,NA,NA,NA,NA,NA,NA,NA
SUPAMT49216,3N2BF7Y2VWTMXL7M5AQXUOYAJG5HM0,9A9419F1-69BE-48E2-BDC1-145371506A7A,2023-09-28_13h02.37.037,WP_VExplicitOC_HL,2022.2.5,Win32,6.4,NA,NA,NA,NA,NA,NA,NA,NA,NA,NA,NA,NA,NA,NA,NA,NA,NA,NA,NA,NA,watch a short animation,NA,NA,NA,NA,NA,NA,NA,NA,NA,NA,NA,NA,NA,NA,NA,NA,NA,NA,NA,NA,NA,NA,NA,NA,NA,NA,NA,NA,NA,NA,NA,NA,NA,NA,NA,NA,NA,NA
SUPAMT49216,3N2BF7Y2VWTMXL7M5AQXUOYAJG5HM0,9A9419F1-69BE-48E2-BDC1-145371506A7A,2023-09-28_13h02.37.037,WP_VExplicitOC_HL,2022.2.5,Win32,6.4,100,5.665,2.128,NA,NA,NA,NA,NA,bored,"bored, not bored","more bored, less bored",NA,NA,NA,NA,NA,NA,NA,NA,NA,NA,0,0,0,2,1,NA,NA,NA,NA,NA,NA,NA,NA,NA,NA,NA,NA,NA,NA,NA,NA,NA,NA,NA,NA,NA,NA,NA,NA,NA,NA,NA,NA,NA,NA,NA,NA,NA
SUPAMT49216,3N2BF7Y2VWTMXL7M5AQXUOYAJG5HM0,9A9419F1-69BE-48E2-BDC1-145371506A7A,2023-09-28_13h02.37.037,WP_VExplicitOC_HL,2022.2.5,Win32,6.4,100,4.845,2.137,NA,NA,NA,NA,NA,happy,"unhappy, happy","less happy, more happy",NA,NA,NA,NA,NA,NA,NA,NA,NA,NA,0,1,1,0,1,NA,NA,NA,NA,NA,NA,NA,NA,NA,NA,NA,NA,NA,NA,NA,NA,NA,NA,NA,NA,NA,NA,NA,NA,NA,NA,NA,NA,NA,NA,NA,NA,NA
SUPAMT49216,3N2BF7Y2VWTMXL7M5AQXUOYAJG5HM0,9A9419F1-69BE-48E2-BDC1-145371506A7A,2023-09-28_13h02.37.037,WP_VExplicitOC_HL,2022.2.5,Win32,6.4,100,6.485,2.111,NA,NA,NA,NA,NA,frustrated,"frustrated, not frustrated","more frustrated, less frustrated",NA,NA,NA,NA,NA,NA,NA,NA,NA,NA,0,2,2,1,1,NA,NA,NA,NA,NA,NA,NA,NA,NA,NA,NA,NA,NA,NA,NA,NA,NA,NA,NA,NA,NA,NA,NA,NA,NA,NA,NA,NA,NA,NA,NA,NA,NA
SUPAMT49216,3N2BF7Y2VWTMXL7M5AQXUOYAJG5HM0,9A9419F1-69BE-48E2-BDC1-145371506A7A,2023-09-28_13h02.37.037,WP_VExplicitOC_HL,2022.2.5,Win32,6.4,NA,NA,NA,NA,NA,NA,NA,NA,NA,NA,NA,NA,NA,NA,NA,NA,NA,NA,NA,NA,NA,NA,NA,NA,NA,NA,NA,NA,NA,NA,NA,NA,NA,NA,NA,NA,NA,NA,NA,NA,NA,NA,NA,NA,NA,NA,NA,NA,NA,NA,NA,NA,NA,NA,NA,NA,NA,NA,NA
SUPAMT49216,3N2BF7Y2VWTMXL7M5AQXUOYAJG5HM0,9A9419F1-69BE-48E2-BDC1-145371506A7A,2023-09-28_13h02.37.037,WP_VExplicitOC_HL,2022.2.5,Win32,6.4,NA,NA,NA,NA,NA,NA,NA,NA,NA,NA,NA,NA,NA,NA,NA,NA,NA,NA,NA,NA,NA,NA,NA,NA,NA,NA,NA,NA,NA,NA,NA,NA,NA,NA,NA,NA,NA,NA,NA,NA,NA,NA,NA,NA,NA,NA,NA,NA,NA,NA,NA,NA,NA,NA,NA,NA,NA,NA,NA
SUPAMT49216,3N2BF7Y2VWTMXL7M5AQXUOYAJG5HM0,9A9419F1-69BE-48E2-BDC1-145371506A7A,2023-09-28_13h02.37.037,WP_VExplicitOC_HL,2022.2.5,Win32,6.4,NA,NA,2.061,NA,NA,NA,NA,NA,bored,"bored, not bored","more bored, less bored",NA,NA,NA,NA,NA,NA,NA,NA,NA,NA,NA,NA,NA,NA,NA,0,0,0,2,1,NA,NA,NA,NA,NA,NA,NA,NA,NA,NA,NA,NA,NA,NA,NA,NA,NA,NA,NA,NA,NA,NA,NA,NA,NA,NA,NA,NA
SUPAMT49216,3N2BF7Y2VWTMXL7M5AQXUOYAJG5HM0,9A9419F1-69BE-48E2-BDC1-145371506A7A,2023-09-28_13h02.37.037,WP_VExplicitOC_HL,2022.2.5,Win32,6.4,NA,NA,2.068,NA,NA,NA,NA,NA,frustrated,"frustrated, not frustrated","more frustrated, less frustrated",NA,NA,NA,NA,NA,NA,NA,NA,NA,NA,NA,NA,NA,NA,NA,0,1,1,1,1,NA,NA,NA,NA,NA,NA,NA,NA,NA,NA,NA,NA,NA,NA,NA,NA,NA,NA,NA,NA,NA,NA,NA,NA,NA,NA,NA,NA
SUPAMT49216,3N2BF7Y2VWTMXL7M5AQXUOYAJG5HM0,9A9419F1-69BE-48E2-BDC1-145371506A7A,2023-09-28_13h02.37.037,WP_VExplicitOC_HL,2022.2.5,Win32,6.4,NA,NA,2.008,NA,NA,NA,NA,NA,happy,"unhappy, happy","less happy, more happy",NA,NA,NA,NA,NA,NA,NA,NA,NA,NA,NA,NA,NA,NA,NA,0,2,2,0,1,NA,NA,NA,NA,NA,NA,NA,NA,NA,NA,NA,NA,NA,NA,NA,NA,NA,NA,NA,NA,NA,NA,NA,NA,NA,NA,NA,NA
SUPAMT49216,3N2BF7Y2VWTMXL7M5AQXUOYAJG5HM0,9A9419F1-69BE-48E2-BDC1-145371506A7A,2023-09-28_13h02.37.037,WP_VExplicitOC_HL,2022.2.5,Win32,6.4,NA,NA,NA,NA,NA,NA,NA,NA,NA,NA,NA,NA,NA,NA,NA,NA,NA,NA,NA,NA,NA,NA,NA,NA,NA,NA,NA,NA,NA,NA,NA,0,0,0,0,1,NA,NA,NA,NA,NA,NA,NA,NA,NA,NA,NA,NA,NA,NA,NA,NA,NA,NA,NA,NA,NA,NA,NA
SUPAMT49216,3N2BF7Y2VWTMXL7M5AQXUOYAJG5HM0,9A9419F1-69BE-48E2-BDC1-145371506A7A,2023-09-28_13h02.37.037,WP_VExplicitOC_HL,2022.2.5,Win32,6.4,NA,NA,2.006,NA,NA,NA,NA,NA,frustrated,"frustrated, not frustrated","more frustrated, less frustrated",NA,NA,NA,NA,NA,NA,NA,NA,NA,NA,NA,NA,NA,NA,NA,0,0,0,1,1,NA,NA,NA,NA,NA,NA,NA,NA,NA,NA,NA,NA,NA,NA,NA,NA,NA,NA,NA,NA,NA,NA,NA,NA,NA,NA,NA,NA
SUPAMT49216,3N2BF7Y2VWTMXL7M5AQXUOYAJG5HM0,9A9419F1-69BE-48E2-BDC1-145371506A7A,2023-09-28_13h02.37.037,WP_VExplicitOC_HL,2022.2.5,Win32,6.4,NA,NA,2.037,NA,NA,NA,NA,NA,bored,"bored, not bored","more bored, less bored",NA,NA,NA,NA,NA,NA,NA,NA,NA,NA,NA,NA,NA,NA,NA,0,1,1,2,1,NA,NA,NA,NA,NA,NA,NA,NA,NA,NA,NA,NA,NA,NA,NA,NA,NA,NA,NA,NA,NA,NA,NA,NA,NA,NA,NA,NA
SUPAMT49216,3N2BF7Y2VWTMXL7M5AQXUOYAJG5HM0,9A9419F1-69BE-48E2-BDC1-145371506A7A,2023-09-28_13h02.37.037,WP_VExplicitOC_HL,2022.2.5,Win32,6.4,NA,NA,2.097,NA,NA,NA,NA,NA,happy,"unhappy, happy","less happy, more happy",NA,NA,NA,NA,NA,NA,NA,NA,NA,NA,NA,NA,NA,NA,NA,0,2,2,0,1,NA,NA,NA,NA,NA,NA,NA,NA,NA,NA,NA,NA,NA,NA,NA,NA,NA,NA,NA,NA,NA,NA,NA,NA,NA,NA,NA,NA
SUPAMT49216,3N2BF7Y2VWTMXL7M5AQXUOYAJG5HM0,9A9419F1-69BE-48E2-BDC1-145371506A7A,2023-09-28_13h02.37.037,WP_VExplicitOC_HL,2022.2.5,Win32,6.4,NA,NA,NA,NA,NA,NA,NA,NA,NA,NA,NA,NA,NA,NA,NA,NA,NA,NA,NA,NA,NA,NA,NA,NA,NA,NA,NA,NA,NA,NA,NA,1,0,1,0,1,NA,NA,NA,NA,NA,NA,NA,NA,NA,NA,NA,NA,NA,NA,NA,NA,NA,NA,NA,NA,NA,NA,NA
SUPAMT49216,3N2BF7Y2VWTMXL7M5AQXUOYAJG5HM0,9A9419F1-69BE-48E2-BDC1-145371506A7A,2023-09-28_13h02.37.037,WP_VExplicitOC_HL,2022.2.5,Win32,6.4,NA,NA,2.071,NA,NA,NA,NA,NA,frustrated,"frustrated, not frustrated","more frustrated, less frustrated",NA,NA,NA,NA,NA,NA,NA,NA,NA,NA,NA,NA,NA,NA,NA,0,0,0,1,1,NA,NA,NA,NA,NA,NA,NA,NA,NA,NA,NA,NA,NA,NA,NA,NA,NA,NA,NA,NA,NA,NA,NA,NA,NA,NA,NA,NA
SUPAMT49216,3N2BF7Y2VWTMXL7M5AQXUOYAJG5HM0,9A9419F1-69BE-48E2-BDC1-145371506A7A,2023-09-28_13h02.37.037,WP_VExplicitOC_HL,2022.2.5,Win32,6.4,NA,NA,2.129,NA,NA,NA,NA,NA,bored,"bored, not bored","more bored, less bored",NA,NA,NA,NA,NA,NA,NA,NA,NA,NA,NA,NA,NA,NA,NA,0,1,1,2,1,NA,NA,NA,NA,NA,NA,NA,NA,NA,NA,NA,NA,NA,NA,NA,NA,NA,NA,NA,NA,NA,NA,NA,NA,NA,NA,NA,NA
SUPAMT49216,3N2BF7Y2VWTMXL7M5AQXUOYAJG5HM0,9A9419F1-69BE-48E2-BDC1-145371506A7A,2023-09-28_13h02.37.037,WP_VExplicitOC_HL,2022.2.5,Win32,6.4,NA,NA,2.114,NA,NA,NA,NA,NA,happy,"unhappy, happy","less happy, more happy",NA,NA,NA,NA,NA,NA,NA,NA,NA,NA,NA,NA,NA,NA,NA,0,2,2,0,1,NA,NA,NA,NA,NA,NA,NA,NA,NA,NA,NA,NA,NA,NA,NA,NA,NA,NA,NA,NA,NA,NA,NA,NA,NA,NA,NA,NA
SUPAMT49216,3N2BF7Y2VWTMXL7M5AQXUOYAJG5HM0,9A9419F1-69BE-48E2-BDC1-145371506A7A,2023-09-28_13h02.37.037,WP_VExplicitOC_HL,2022.2.5,Win32,6.4,NA,NA,NA,NA,NA,NA,NA,NA,NA,NA,NA,NA,NA,NA,NA,NA,NA,NA,NA,NA,NA,NA,NA,NA,NA,NA,NA,NA,NA,NA,NA,2,0,2,0,1,NA,NA,NA,NA,NA,NA,NA,NA,NA,NA,NA,NA,NA,NA,NA,NA,NA,NA,NA,NA,NA,NA,NA
SUPAMT49216,3N2BF7Y2VWTMXL7M5AQXUOYAJG5HM0,9A9419F1-69BE-48E2-BDC1-145371506A7A,2023-09-28_13h02.37.037,WP_VExplicitOC_HL,2022.2.5,Win32,6.4,NA,NA,2.026,NA,NA,NA,NA,NA,frustrated,"frustrated, not frustrated","more frustrated, less frustrated",NA,NA,NA,NA,NA,NA,NA,NA,NA,NA,NA,NA,NA,NA,NA,0,0,0,1,1,NA,NA,NA,NA,NA,NA,NA,NA,NA,NA,NA,NA,NA,NA,NA,NA,NA,NA,NA,NA,NA,NA,NA,NA,NA,NA,NA,NA
SUPAMT49216,3N2BF7Y2VWTMXL7M5AQXUOYAJG5HM0,9A9419F1-69BE-48E2-BDC1-145371506A7A,2023-09-28_13h02.37.037,WP_VExplicitOC_HL,2022.2.5,Win32,6.4,NA,NA,2.116,NA,NA,NA,NA,NA,happy,"unhappy, happy","less happy, more happy",NA,NA,NA,NA,NA,NA,NA,NA,NA,NA,NA,NA,NA,NA,NA,0,1,1,0,1,NA,NA,NA,NA,NA,NA,NA,NA,NA,NA,NA,NA,NA,NA,NA,NA,NA,NA,NA,NA,NA,NA,NA,NA,NA,NA,NA,NA
SUPAMT49216,3N2BF7Y2VWTMXL7M5AQXUOYAJG5HM0,9A9419F1-69BE-48E2-BDC1-145371506A7A,2023-09-28_13h02.37.037,WP_VExplicitOC_HL,2022.2.5,Win32,6.4,100,5.23,2.015,NA,NA,NA,NA,NA,bored,"bored, not bored","more bored, less bored",NA,NA,NA,NA,NA,NA,NA,NA,NA,NA,NA,NA,NA,NA,NA,0,2,2,2,1,NA,NA,NA,NA,NA,NA,NA,NA,NA,NA,NA,NA,NA,NA,NA,NA,NA,NA,NA,NA,NA,NA,NA,NA,NA,NA,NA,NA
SUPAMT49216,3N2BF7Y2VWTMXL7M5AQXUOYAJG5HM0,9A9419F1-69BE-48E2-BDC1-145371506A7A,2023-09-28_13h02.37.037,WP_VExplicitOC_HL,2022.2.5,Win32,6.4,NA,NA,NA,NA,NA,NA,NA,NA,NA,NA,NA,NA,NA,NA,NA,NA,NA,NA,NA,NA,NA,NA,NA,NA,NA,NA,NA,NA,NA,NA,NA,3,0,3,0,1,NA,NA,NA,NA,NA,NA,NA,NA,NA,NA,NA,NA,NA,NA,NA,NA,NA,NA,NA,NA,NA,NA,NA
SUPAMT49216,3N2BF7Y2VWTMXL7M5AQXUOYAJG5HM0,9A9419F1-69BE-48E2-BDC1-145371506A7A,2023-09-28_13h02.37.037,WP_VExplicitOC_HL,2022.2.5,Win32,6.4,NA,NA,2.012,NA,NA,NA,NA,NA,happy,"unhappy, happy","less happy, more happy",NA,NA,NA,NA,NA,NA,NA,NA,NA,NA,NA,NA,NA,NA,NA,0,0,0,0,1,NA,NA,NA,NA,NA,NA,NA,NA,NA,NA,NA,NA,NA,NA,NA,NA,NA,NA,NA,NA,NA,NA,NA,NA,NA,NA,NA,NA
SUPAMT49216,3N2BF7Y2VWTMXL7M5AQXUOYAJG5HM0,9A9419F1-69BE-48E2-BDC1-145371506A7A,2023-09-28_13h02.37.037,WP_VExplicitOC_HL,2022.2.5,Win32,6.4,NA,NA,2.006,NA,NA,NA,NA,NA,bored,"bored, not bored","more bored, less bored",NA,NA,NA,NA,NA,NA,NA,NA,NA,NA,NA,NA,NA,NA,NA,0,1,1,2,1,NA,NA,NA,NA,NA,NA,NA,NA,NA,NA,NA,NA,NA,NA,NA,NA,NA,NA,NA,NA,NA,NA,NA,NA,NA,NA,NA,NA
SUPAMT49216,3N2BF7Y2VWTMXL7M5AQXUOYAJG5HM0,9A9419F1-69BE-48E2-BDC1-145371506A7A,2023-09-28_13h02.37.037,WP_VExplicitOC_HL,2022.2.5,Win32,6.4,NA,NA,2.12,NA,NA,NA,NA,NA,frustrated,"frustrated, not frustrated","more frustrated, less frustrated",NA,NA,NA,NA,NA,NA,NA,NA,NA,NA,NA,NA,NA,NA,NA,0,2,2,1,1,NA,NA,NA,NA,NA,NA,NA,NA,NA,NA,NA,NA,NA,NA,NA,NA,NA,NA,NA,NA,NA,NA,NA,NA,NA,NA,NA,NA
SUPAMT49216,3N2BF7Y2VWTMXL7M5AQXUOYAJG5HM0,9A9419F1-69BE-48E2-BDC1-145371506A7A,2023-09-28_13h02.37.037,WP_VExplicitOC_HL,2022.2.5,Win32,6.4,NA,NA,NA,NA,NA,NA,NA,NA,NA,NA,NA,NA,NA,NA,NA,NA,NA,NA,NA,NA,NA,NA,NA,NA,NA,NA,NA,NA,NA,NA,NA,4,0,4,0,1,NA,NA,NA,NA,NA,NA,NA,NA,NA,NA,NA,NA,NA,NA,NA,NA,NA,NA,NA,NA,NA,NA,NA
SUPAMT49216,3N2BF7Y2VWTMXL7M5AQXUOYAJG5HM0,9A9419F1-69BE-48E2-BDC1-145371506A7A,2023-09-28_13h02.37.037,WP_VExplicitOC_HL,2022.2.5,Win32,6.4,NA,NA,2.039,NA,NA,NA,NA,NA,frustrated,"frustrated, not frustrated","more frustrated, less frustrated",NA,NA,NA,NA,NA,NA,NA,NA,NA,NA,NA,NA,NA,NA,NA,0,0,0,1,1,NA,NA,NA,NA,NA,NA,NA,NA,NA,NA,NA,NA,NA,NA,NA,NA,NA,NA,NA,NA,NA,NA,NA,NA,NA,NA,NA,NA
SUPAMT49216,3N2BF7Y2VWTMXL7M5AQXUOYAJG5HM0,9A9419F1-69BE-48E2-BDC1-145371506A7A,2023-09-28_13h02.37.037,WP_VExplicitOC_HL,2022.2.5,Win32,6.4,NA,NA,2.132,NA,NA,NA,NA,NA,bored,"bored, not bored","more bored, less bored",NA,NA,NA,NA,NA,NA,NA,NA,NA,NA,NA,NA,NA,NA,NA,0,1,1,2,1,NA,NA,NA,NA,NA,NA,NA,NA,NA,NA,NA,NA,NA,NA,NA,NA,NA,NA,NA,NA,NA,NA,NA,NA,NA,NA,NA,NA
SUPAMT49216,3N2BF7Y2VWTMXL7M5AQXUOYAJG5HM0,9A9419F1-69BE-48E2-BDC1-145371506A7A,2023-09-28_13h02.37.037,WP_VExplicitOC_HL,2022.2.5,Win32,6.4,NA,NA,2.018,NA,NA,NA,NA,NA,happy,"unhappy, happy","less happy, more happy",NA,NA,NA,NA,NA,NA,NA,NA,NA,NA,NA,NA,NA,NA,NA,0,2,2,0,1,NA,NA,NA,NA,NA,NA,NA,NA,NA,NA,NA,NA,NA,NA,NA,NA,NA,NA,NA,NA,NA,NA,NA,NA,NA,NA,NA,NA
SUPAMT49216,3N2BF7Y2VWTMXL7M5AQXUOYAJG5HM0,9A9419F1-69BE-48E2-BDC1-145371506A7A,2023-09-28_13h02.37.037,WP_VExplicitOC_HL,2022.2.5,Win32,6.4,NA,NA,NA,NA,NA,NA,NA,NA,NA,NA,NA,NA,NA,NA,NA,NA,NA,NA,NA,NA,NA,NA,NA,NA,NA,NA,NA,NA,NA,NA,NA,5,0,5,0,1,NA,NA,NA,NA,NA,NA,NA,NA,NA,NA,NA,NA,NA,NA,NA,NA,NA,NA,NA,NA,NA,NA,NA
SUPAMT49216,3N2BF7Y2VWTMXL7M5AQXUOYAJG5HM0,9A9419F1-69BE-48E2-BDC1-145371506A7A,2023-09-28_13h02.37.037,WP_VExplicitOC_HL,2022.2.5,Win32,6.4,NA,NA,2.054,NA,NA,NA,NA,NA,frustrated,"frustrated, not frustrated","more frustrated, less frustrated",NA,NA,NA,NA,NA,NA,NA,NA,NA,NA,NA,NA,NA,NA,NA,0,0,0,1,1,NA,NA,NA,NA,NA,NA,NA,NA,NA,NA,NA,NA,NA,NA,NA,NA,NA,NA,NA,NA,NA,NA,NA,NA,NA,NA,NA,NA
SUPAMT49216,3N2BF7Y2VWTMXL7M5AQXUOYAJG5HM0,9A9419F1-69BE-48E2-BDC1-145371506A7A,2023-09-28_13h02.37.037,WP_VExplicitOC_HL,2022.2.5,Win32,6.4,NA,NA,2.139,NA,NA,NA,NA,NA,bored,"bored, not bored","more bored, less bored",NA,NA,NA,NA,NA,NA,NA,NA,NA,NA,NA,NA,NA,NA,NA,0,1,1,2,1,NA,NA,NA,NA,NA,NA,NA,NA,NA,NA,NA,NA,NA,NA,NA,NA,NA,NA,NA,NA,NA,NA,NA,NA,NA,NA,NA,NA
SUPAMT49216,3N2BF7Y2VWTMXL7M5AQXUOYAJG5HM0,9A9419F1-69BE-48E2-BDC1-145371506A7A,2023-09-28_13h02.37.037,WP_VExplicitOC_HL,2022.2.5,Win32,6.4,NA,NA,2.041,NA,NA,NA,NA,NA,happy,"unhappy, happy","less happy, more happy",NA,NA,NA,NA,NA,NA,NA,NA,NA,NA,NA,NA,NA,NA,NA,0,2,2,0,1,NA,NA,NA,NA,NA,NA,NA,NA,NA,NA,NA,NA,NA,NA,NA,NA,NA,NA,NA,NA,NA,NA,NA,NA,NA,NA,NA,NA
SUPAMT49216,3N2BF7Y2VWTMXL7M5AQXUOYAJG5HM0,9A9419F1-69BE-48E2-BDC1-145371506A7A,2023-09-28_13h02.37.037,WP_VExplicitOC_HL,2022.2.5,Win32,6.4,NA,NA,NA,NA,NA,NA,NA,NA,NA,NA,NA,NA,NA,NA,NA,NA,NA,NA,NA,NA,NA,NA,NA,NA,NA,NA,NA,NA,NA,NA,NA,6,0,6,0,1,NA,NA,NA,NA,NA,NA,NA,NA,NA,NA,NA,NA,NA,NA,NA,NA,NA,NA,NA,NA,NA,NA,NA
SUPAMT49216,3N2BF7Y2VWTMXL7M5AQXUOYAJG5HM0,9A9419F1-69BE-48E2-BDC1-145371506A7A,2023-09-28_13h02.37.037,WP_VExplicitOC_HL,2022.2.5,Win32,6.4,NA,NA,2.026,NA,NA,NA,NA,NA,happy,"unhappy, happy","less happy, more happy",NA,NA,NA,NA,NA,NA,NA,NA,NA,NA,NA,NA,NA,NA,NA,0,0,0,0,1,NA,NA,NA,NA,NA,NA,NA,NA,NA,NA,NA,NA,NA,NA,NA,NA,NA,NA,NA,NA,NA,NA,NA,NA,NA,NA,NA,NA
SUPAMT49216,3N2BF7Y2VWTMXL7M5AQXUOYAJG5HM0,9A9419F1-69BE-48E2-BDC1-145371506A7A,2023-09-28_13h02.37.037,WP_VExplicitOC_HL,2022.2.5,Win32,6.4,NA,NA,2.097,NA,NA,NA,NA,NA,frustrated,"frustrated, not frustrated","more frustrated, less frustrated",NA,NA,NA,NA,NA,NA,NA,NA,NA,NA,NA,NA,NA,NA,NA,0,1,1,1,1,NA,NA,NA,NA,NA,NA,NA,NA,NA,NA,NA,NA,NA,NA,NA,NA,NA,NA,NA,NA,NA,NA,NA,NA,NA,NA,NA,NA
SUPAMT49216,3N2BF7Y2VWTMXL7M5AQXUOYAJG5HM0,9A9419F1-69BE-48E2-BDC1-145371506A7A,2023-09-28_13h02.37.037,WP_VExplicitOC_HL,2022.2.5,Win32,6.4,NA,NA,2.059,NA,NA,NA,NA,NA,bored,"bored, not bored","more bored, less bored",NA,NA,NA,NA,NA,NA,NA,NA,NA,NA,NA,NA,NA,NA,NA,0,2,2,2,1,NA,NA,NA,NA,NA,NA,NA,NA,NA,NA,NA,NA,NA,NA,NA,NA,NA,NA,NA,NA,NA,NA,NA,NA,NA,NA,NA,NA
SUPAMT49216,3N2BF7Y2VWTMXL7M5AQXUOYAJG5HM0,9A9419F1-69BE-48E2-BDC1-145371506A7A,2023-09-28_13h02.37.037,WP_VExplicitOC_HL,2022.2.5,Win32,6.4,NA,NA,NA,NA,NA,NA,NA,NA,NA,NA,NA,NA,NA,NA,NA,NA,NA,NA,NA,NA,NA,NA,NA,NA,NA,NA,NA,NA,NA,NA,NA,7,0,7,0,1,NA,NA,NA,NA,NA,NA,NA,NA,NA,NA,NA,NA,NA,NA,NA,NA,NA,NA,NA,NA,NA,NA,NA
SUPAMT49216,3N2BF7Y2VWTMXL7M5AQXUOYAJG5HM0,9A9419F1-69BE-48E2-BDC1-145371506A7A,2023-09-28_13h02.37.037,WP_VExplicitOC_HL,2022.2.5,Win32,6.4,100,5.226,2.087,NA,NA,NA,NA,NA,frustrated,"frustrated, not frustrated","more frustrated, less frustrated",NA,NA,NA,NA,NA,NA,NA,NA,NA,NA,NA,NA,NA,NA,NA,0,0,0,1,1,NA,NA,NA,NA,NA,NA,NA,NA,NA,NA,NA,NA,NA,NA,NA,NA,NA,NA,NA,NA,NA,NA,NA,NA,NA,NA,NA,NA
SUPAMT49216,3N2BF7Y2VWTMXL7M5AQXUOYAJG5HM0,9A9419F1-69BE-48E2-BDC1-145371506A7A,2023-09-28_13h02.37.037,WP_VExplicitOC_HL,2022.2.5,Win32,6.4,NA,NA,2.03,NA,NA,NA,NA,NA,happy,"unhappy, happy","less happy, more happy",NA,NA,NA,NA,NA,NA,NA,NA,NA,NA,NA,NA,NA,NA,NA,0,1,1,0,1,NA,NA,NA,NA,NA,NA,NA,NA,NA,NA,NA,NA,NA,NA,NA,NA,NA,NA,NA,NA,NA,NA,NA,NA,NA,NA,NA,NA
SUPAMT49216,3N2BF7Y2VWTMXL7M5AQXUOYAJG5HM0,9A9419F1-69BE-48E2-BDC1-145371506A7A,2023-09-28_13h02.37.037,WP_VExplicitOC_HL,2022.2.5,Win32,6.4,NA,NA,2.106,NA,NA,NA,NA,NA,bored,"bored, not bored","more bored, less bored",NA,NA,NA,NA,NA,NA,NA,NA,NA,NA,NA,NA,NA,NA,NA,0,2,2,2,1,NA,NA,NA,NA,NA,NA,NA,NA,NA,NA,NA,NA,NA,NA,NA,NA,NA,NA,NA,NA,NA,NA,NA,NA,NA,NA,NA,NA
SUPAMT49216,3N2BF7Y2VWTMXL7M5AQXUOYAJG5HM0,9A9419F1-69BE-48E2-BDC1-145371506A7A,2023-09-28_13h02.37.037,WP_VExplicitOC_HL,2022.2.5,Win32,6.4,NA,NA,NA,NA,NA,NA,NA,NA,NA,NA,NA,NA,NA,NA,NA,NA,NA,NA,NA,NA,NA,NA,NA,NA,NA,NA,NA,NA,NA,NA,NA,8,0,8,0,1,NA,NA,NA,NA,NA,NA,NA,NA,NA,NA,NA,NA,NA,NA,NA,NA,NA,NA,NA,NA,NA,NA,NA
SUPAMT49216,3N2BF7Y2VWTMXL7M5AQXUOYAJG5HM0,9A9419F1-69BE-48E2-BDC1-145371506A7A,2023-09-28_13h02.37.037,WP_VExplicitOC_HL,2022.2.5,Win32,6.4,NA,NA,2,NA,NA,NA,NA,NA,happy,"unhappy, happy","less happy, more happy",NA,NA,NA,NA,NA,NA,NA,NA,NA,NA,NA,NA,NA,NA,NA,0,0,0,0,1,NA,NA,NA,NA,NA,NA,NA,NA,NA,NA,NA,NA,NA,NA,NA,NA,NA,NA,NA,NA,NA,NA,NA,NA,NA,NA,NA,NA
SUPAMT49216,3N2BF7Y2VWTMXL7M5AQXUOYAJG5HM0,9A9419F1-69BE-48E2-BDC1-145371506A7A,2023-09-28_13h02.37.037,WP_VExplicitOC_HL,2022.2.5,Win32,6.4,NA,NA,2.055,NA,NA,NA,NA,NA,bored,"bored, not bored","more bored, less bored",NA,NA,NA,NA,NA,NA,NA,NA,NA,NA,NA,NA,NA,NA,NA,0,1,1,2,1,NA,NA,NA,NA,NA,NA,NA,NA,NA,NA,NA,NA,NA,NA,NA,NA,NA,NA,NA,NA,NA,NA,NA,NA,NA,NA,NA,NA
SUPAMT49216,3N2BF7Y2VWTMXL7M5AQXUOYAJG5HM0,9A9419F1-69BE-48E2-BDC1-145371506A7A,2023-09-28_13h02.37.037,WP_VExplicitOC_HL,2022.2.5,Win32,6.4,NA,NA,2.095,NA,NA,NA,NA,NA,frustrated,"frustrated, not frustrated","more frustrated, less frustrated",NA,NA,NA,NA,NA,NA,NA,NA,NA,NA,NA,NA,NA,NA,NA,0,2,2,1,1,NA,NA,NA,NA,NA,NA,NA,NA,NA,NA,NA,NA,NA,NA,NA,NA,NA,NA,NA,NA,NA,NA,NA,NA,NA,NA,NA,NA
SUPAMT49216,3N2BF7Y2VWTMXL7M5AQXUOYAJG5HM0,9A9419F1-69BE-48E2-BDC1-145371506A7A,2023-09-28_13h02.37.037,WP_VExplicitOC_HL,2022.2.5,Win32,6.4,NA,NA,NA,NA,NA,NA,NA,NA,NA,NA,NA,NA,NA,NA,NA,NA,NA,NA,NA,NA,NA,NA,NA,NA,NA,NA,NA,NA,NA,NA,NA,9,0,9,0,1,NA,NA,NA,NA,NA,NA,NA,NA,NA,NA,NA,NA,NA,NA,NA,NA,NA,NA,NA,NA,NA,NA,NA
SUPAMT49216,3N2BF7Y2VWTMXL7M5AQXUOYAJG5HM0,9A9419F1-69BE-48E2-BDC1-145371506A7A,2023-09-28_13h02.37.037,WP_VExplicitOC_HL,2022.2.5,Win32,6.4,NA,NA,2.112,NA,NA,NA,NA,NA,bored,"bored, not bored","more bored, less bored",NA,NA,NA,NA,NA,NA,NA,NA,NA,NA,NA,NA,NA,NA,NA,0,0,0,2,1,NA,NA,NA,NA,NA,NA,NA,NA,NA,NA,NA,NA,NA,NA,NA,NA,NA,NA,NA,NA,NA,NA,NA,NA,NA,NA,NA,NA
SUPAMT49216,3N2BF7Y2VWTMXL7M5AQXUOYAJG5HM0,9A9419F1-69BE-48E2-BDC1-145371506A7A,2023-09-28_13h02.37.037,WP_VExplicitOC_HL,2022.2.5,Win32,6.4,NA,NA,2.072,NA,NA,NA,NA,NA,frustrated,"frustrated, not frustrated","more frustrated, less frustrated",NA,NA,NA,NA,NA,NA,NA,NA,NA,NA,NA,NA,NA,NA,NA,0,1,1,1,1,NA,NA,NA,NA,NA,NA,NA,NA,NA,NA,NA,NA,NA,NA,NA,NA,NA,NA,NA,NA,NA,NA,NA,NA,NA,NA,NA,NA
SUPAMT49216,3N2BF7Y2VWTMXL7M5AQXUOYAJG5HM0,9A9419F1-69BE-48E2-BDC1-145371506A7A,2023-09-28_13h02.37.037,WP_VExplicitOC_HL,2022.2.5,Win32,6.4,NA,NA,2.119,NA,NA,NA,NA,NA,happy,"unhappy, happy","less happy, more happy",NA,NA,NA,NA,NA,NA,NA,NA,NA,NA,NA,NA,NA,NA,NA,0,2,2,0,1,NA,NA,NA,NA,NA,NA,NA,NA,NA,NA,NA,NA,NA,NA,NA,NA,NA,NA,NA,NA,NA,NA,NA,NA,NA,NA,NA,NA
SUPAMT49216,3N2BF7Y2VWTMXL7M5AQXUOYAJG5HM0,9A9419F1-69BE-48E2-BDC1-145371506A7A,2023-09-28_13h02.37.037,WP_VExplicitOC_HL,2022.2.5,Win32,6.4,NA,NA,NA,NA,NA,NA,NA,NA,NA,NA,NA,NA,NA,NA,NA,NA,NA,NA,NA,NA,NA,NA,NA,NA,NA,NA,NA,NA,NA,NA,NA,10,0,10,0,1,NA,NA,NA,NA,NA,NA,NA,NA,NA,NA,NA,NA,NA,NA,NA,NA,NA,NA,NA,NA,NA,NA,NA
SUPAMT49216,3N2BF7Y2VWTMXL7M5AQXUOYAJG5HM0,9A9419F1-69BE-48E2-BDC1-145371506A7A,2023-09-28_13h02.37.037,WP_VExplicitOC_HL,2022.2.5,Win32,6.4,99.53917051,4.451,2.06,NA,NA,NA,NA,NA,frustrated,"frustrated, not frustrated","more frustrated, less frustrated",NA,NA,NA,NA,NA,NA,NA,NA,NA,NA,NA,NA,NA,NA,NA,0,0,0,1,1,NA,NA,NA,NA,NA,NA,NA,NA,NA,NA,NA,NA,NA,NA,NA,NA,NA,NA,NA,NA,NA,NA,NA,NA,NA,NA,NA,NA
SUPAMT49216,3N2BF7Y2VWTMXL7M5AQXUOYAJG5HM0,9A9419F1-69BE-48E2-BDC1-145371506A7A,2023-09-28_13h02.37.037,WP_VExplicitOC_HL,2022.2.5,Win32,6.4,81.72043011,4.256,2.113,NA,NA,NA,NA,NA,happy,"unhappy, happy","less happy, more happy",NA,NA,NA,NA,NA,NA,NA,NA,NA,NA,NA,NA,NA,NA,NA,0,1,1,0,1,NA,NA,NA,NA,NA,NA,NA,NA,NA,NA,NA,NA,NA,NA,NA,NA,NA,NA,NA,NA,NA,NA,NA,NA,NA,NA,NA,NA
SUPAMT49216,3N2BF7Y2VWTMXL7M5AQXUOYAJG5HM0,9A9419F1-69BE-48E2-BDC1-145371506A7A,2023-09-28_13h02.37.037,WP_VExplicitOC_HL,2022.2.5,Win32,6.4,100,3.743,2.022,NA,NA,NA,NA,NA,bored,"bored, not bored","more bored, less bored",NA,NA,NA,NA,NA,NA,NA,NA,NA,NA,NA,NA,NA,NA,NA,0,2,2,2,1,NA,NA,NA,NA,NA,NA,NA,NA,NA,NA,NA,NA,NA,NA,NA,NA,NA,NA,NA,NA,NA,NA,NA,NA,NA,NA,NA,NA
SUPAMT49216,3N2BF7Y2VWTMXL7M5AQXUOYAJG5HM0,9A9419F1-69BE-48E2-BDC1-145371506A7A,2023-09-28_13h02.37.037,WP_VExplicitOC_HL,2022.2.5,Win32,6.4,NA,NA,NA,NA,NA,NA,NA,NA,NA,NA,NA,NA,NA,NA,NA,NA,NA,NA,NA,NA,NA,NA,NA,NA,NA,NA,NA,NA,NA,NA,NA,11,0,11,0,1,NA,NA,NA,NA,NA,NA,NA,NA,NA,NA,NA,NA,NA,NA,NA,NA,NA,NA,NA,NA,NA,NA,NA
SUPAMT49216,3N2BF7Y2VWTMXL7M5AQXUOYAJG5HM0,9A9419F1-69BE-48E2-BDC1-145371506A7A,2023-09-28_13h02.37.037,WP_VExplicitOC_HL,2022.2.5,Win32,6.4,NA,NA,2.023,NA,NA,NA,NA,NA,bored,"bored, not bored","more bored, less bored",NA,NA,NA,NA,NA,NA,NA,NA,NA,NA,NA,NA,NA,NA,NA,0,0,0,2,1,NA,NA,NA,NA,NA,NA,NA,NA,NA,NA,NA,NA,NA,NA,NA,NA,NA,NA,NA,NA,NA,NA,NA,NA,NA,NA,NA,NA
SUPAMT49216,3N2BF7Y2VWTMXL7M5AQXUOYAJG5HM0,9A9419F1-69BE-48E2-BDC1-145371506A7A,2023-09-28_13h02.37.037,WP_VExplicitOC_HL,2022.2.5,Win32,6.4,NA,NA,2.086,NA,NA,NA,NA,NA,happy,"unhappy, happy","less happy, more happy",NA,NA,NA,NA,NA,NA,NA,NA,NA,NA,NA,NA,NA,NA,NA,0,1,1,0,1,NA,NA,NA,NA,NA,NA,NA,NA,NA,NA,NA,NA,NA,NA,NA,NA,NA,NA,NA,NA,NA,NA,NA,NA,NA,NA,NA,NA
SUPAMT49216,3N2BF7Y2VWTMXL7M5AQXUOYAJG5HM0,9A9419F1-69BE-48E2-BDC1-145371506A7A,2023-09-28_13h02.37.037,WP_VExplicitOC_HL,2022.2.5,Win32,6.4,NA,NA,2.153,NA,NA,NA,NA,NA,frustrated,"frustrated, not frustrated","more frustrated, less frustrated",NA,NA,NA,NA,NA,NA,NA,NA,NA,NA,NA,NA,NA,NA,NA,0,2,2,1,1,NA,NA,NA,NA,NA,NA,NA,NA,NA,NA,NA,NA,NA,NA,NA,NA,NA,NA,NA,NA,NA,NA,NA,NA,NA,NA,NA,NA
SUPAMT49216,3N2BF7Y2VWTMXL7M5AQXUOYAJG5HM0,9A9419F1-69BE-48E2-BDC1-145371506A7A,2023-09-28_13h02.37.037,WP_VExplicitOC_HL,2022.2.5,Win32,6.4,NA,NA,NA,NA,NA,NA,NA,NA,NA,NA,NA,NA,NA,NA,NA,NA,NA,NA,NA,NA,NA,NA,NA,NA,NA,NA,NA,NA,NA,NA,NA,12,0,12,0,1,NA,NA,NA,NA,NA,NA,NA,NA,NA,NA,NA,NA,NA,NA,NA,NA,NA,NA,NA,NA,NA,NA,NA
SUPAMT49216,3N2BF7Y2VWTMXL7M5AQXUOYAJG5HM0,9A9419F1-69BE-48E2-BDC1-145371506A7A,2023-09-28_13h02.37.037,WP_VExplicitOC_HL,2022.2.5,Win32,6.4,NA,NA,2.1,NA,NA,NA,NA,NA,happy,"unhappy, happy","less happy, more happy",NA,NA,NA,NA,NA,NA,NA,NA,NA,NA,NA,NA,NA,NA,NA,0,0,0,0,1,NA,NA,NA,NA,NA,NA,NA,NA,NA,NA,NA,NA,NA,NA,NA,NA,NA,NA,NA,NA,NA,NA,NA,NA,NA,NA,NA,NA
SUPAMT49216,3N2BF7Y2VWTMXL7M5AQXUOYAJG5HM0,9A9419F1-69BE-48E2-BDC1-145371506A7A,2023-09-28_13h02.37.037,WP_VExplicitOC_HL,2022.2.5,Win32,6.4,100,5.054,2.064,NA,NA,NA,NA,NA,frustrated,"frustrated, not frustrated","more frustrated, less frustrated",NA,NA,NA,NA,NA,NA,NA,NA,NA,NA,NA,NA,NA,NA,NA,0,1,1,1,1,NA,NA,NA,NA,NA,NA,NA,NA,NA,NA,NA,NA,NA,NA,NA,NA,NA,NA,NA,NA,NA,NA,NA,NA,NA,NA,NA,NA
SUPAMT49216,3N2BF7Y2VWTMXL7M5AQXUOYAJG5HM0,9A9419F1-69BE-48E2-BDC1-145371506A7A,2023-09-28_13h02.37.037,WP_VExplicitOC_HL,2022.2.5,Win32,6.4,NA,NA,2.122,NA,NA,NA,NA,NA,bored,"bored, not bored","more bored, less bored",NA,NA,NA,NA,NA,NA,NA,NA,NA,NA,NA,NA,NA,NA,NA,0,2,2,2,1,NA,NA,NA,NA,NA,NA,NA,NA,NA,NA,NA,NA,NA,NA,NA,NA,NA,NA,NA,NA,NA,NA,NA,NA,NA,NA,NA,NA
SUPAMT49216,3N2BF7Y2VWTMXL7M5AQXUOYAJG5HM0,9A9419F1-69BE-48E2-BDC1-145371506A7A,2023-09-28_13h02.37.037,WP_VExplicitOC_HL,2022.2.5,Win32,6.4,NA,NA,NA,NA,NA,NA,NA,NA,NA,NA,NA,NA,NA,NA,NA,NA,NA,NA,NA,NA,NA,NA,NA,NA,NA,NA,NA,NA,NA,NA,NA,13,0,13,0,1,NA,NA,NA,NA,NA,NA,NA,NA,NA,NA,NA,NA,NA,NA,NA,NA,NA,NA,NA,NA,NA,NA,NA
SUPAMT49216,3N2BF7Y2VWTMXL7M5AQXUOYAJG5HM0,9A9419F1-69BE-48E2-BDC1-145371506A7A,2023-09-28_13h02.37.037,WP_VExplicitOC_HL,2022.2.5,Win32,6.4,NA,NA,2.042,NA,NA,NA,NA,NA,bored,"bored, not bored","more bored, less bored",NA,NA,NA,NA,NA,NA,NA,NA,NA,NA,NA,NA,NA,NA,NA,0,0,0,2,1,NA,NA,NA,NA,NA,NA,NA,NA,NA,NA,NA,NA,NA,NA,NA,NA,NA,NA,NA,NA,NA,NA,NA,NA,NA,NA,NA,NA
SUPAMT49216,3N2BF7Y2VWTMXL7M5AQXUOYAJG5HM0,9A9419F1-69BE-48E2-BDC1-145371506A7A,2023-09-28_13h02.37.037,WP_VExplicitOC_HL,2022.2.5,Win32,6.4,NA,NA,2.025,NA,NA,NA,NA,NA,frustrated,"frustrated, not frustrated","more frustrated, less frustrated",NA,NA,NA,NA,NA,NA,NA,NA,NA,NA,NA,NA,NA,NA,NA,0,1,1,1,1,NA,NA,NA,NA,NA,NA,NA,NA,NA,NA,NA,NA,NA,NA,NA,NA,NA,NA,NA,NA,NA,NA,NA,NA,NA,NA,NA,NA
SUPAMT49216,3N2BF7Y2VWTMXL7M5AQXUOYAJG5HM0,9A9419F1-69BE-48E2-BDC1-145371506A7A,2023-09-28_13h02.37.037,WP_VExplicitOC_HL,2022.2.5,Win32,6.4,NA,NA,2.05,NA,NA,NA,NA,NA,happy,"unhappy, happy","less happy, more happy",NA,NA,NA,NA,NA,NA,NA,NA,NA,NA,NA,NA,NA,NA,NA,0,2,2,0,1,NA,NA,NA,NA,NA,NA,NA,NA,NA,NA,NA,NA,NA,NA,NA,NA,NA,NA,NA,NA,NA,NA,NA,NA,NA,NA,NA,NA
SUPAMT49216,3N2BF7Y2VWTMXL7M5AQXUOYAJG5HM0,9A9419F1-69BE-48E2-BDC1-145371506A7A,2023-09-28_13h02.37.037,WP_VExplicitOC_HL,2022.2.5,Win32,6.4,NA,NA,NA,NA,NA,NA,NA,NA,NA,NA,NA,NA,NA,NA,NA,NA,NA,NA,NA,NA,NA,NA,NA,NA,NA,NA,NA,NA,NA,NA,NA,14,0,14,0,1,NA,NA,NA,NA,NA,NA,NA,NA,NA,NA,NA,NA,NA,NA,NA,NA,NA,NA,NA,NA,NA,NA,NA
SUPAMT49216,3N2BF7Y2VWTMXL7M5AQXUOYAJG5HM0,9A9419F1-69BE-48E2-BDC1-145371506A7A,2023-09-28_13h02.37.037,WP_VExplicitOC_HL,2022.2.5,Win32,6.4,NA,NA,NA,NA,NA,NA,NA,NA,NA,NA,NA,NA,NA,NA,NA,NA,NA,NA,NA,NA,NA,NA,NA,NA,NA,NA,NA,NA,NA,NA,NA,NA,NA,NA,NA,NA,NA,NA,NA,NA,NA,NA,NA,NA,NA,NA,NA,NA,NA,NA,NA,NA,NA,NA,NA,NA,NA,NA,NA
SUPAMT49216,3N2BF7Y2VWTMXL7M5AQXUOYAJG5HM0,9A9419F1-69BE-48E2-BDC1-145371506A7A,2023-09-28_13h02.37.037,WP_VExplicitOC_HL,2022.2.5,Win32,6.4,NA,NA,NA,NA,NA,NA,NA,NA,NA,NA,NA,NA,NA,NA,NA,NA,NA,NA,NA,NA,NA,NA,NA,NA,NA,NA,NA,NA,NA,NA,NA,NA,NA,NA,NA,NA,NA,NA,NA,NA,NA,NA,NA,NA,NA,NA,NA,NA,NA,NA,NA,NA,NA,NA,NA,NA,NA,NA,NA
SUPAMT49216,3N2BF7Y2VWTMXL7M5AQXUOYAJG5HM0,9A9419F1-69BE-48E2-BDC1-145371506A7A,2023-09-28_13h02.37.037,WP_VExplicitOC_HL,2022.2.5,Win32,6.4,NA,NA,NA,NA,NA,NA,NA,NA,NA,NA,NA,NA,NA,NA,NA,NA,NA,NA,rest (looking at a fixed cross),001.png,NA,NA,NA,NA,NA,NA,NA,NA,NA,NA,NA,NA,NA,NA,NA,NA,NA,NA,0,0,0,0,1,NA,NA,NA,NA,NA,NA,NA,NA,NA,NA,NA,NA,NA,NA,NA,NA
SUPAMT49216,3N2BF7Y2VWTMXL7M5AQXUOYAJG5HM0,9A9419F1-69BE-48E2-BDC1-145371506A7A,2023-09-28_13h02.37.037,WP_VExplicitOC_HL,2022.2.5,Win32,6.4,NA,NA,NA,NA,NA,NA,NA,NA,NA,NA,NA,NA,NA,NA,NA,NA,NA,NA,stand up,002.png,NA,NA,NA,NA,NA,NA,NA,NA,NA,NA,NA,NA,NA,NA,NA,NA,NA,NA,0,1,1,1,1,NA,NA,NA,NA,NA,NA,NA,NA,NA,NA,NA,NA,NA,NA,NA,NA
SUPAMT49216,3N2BF7Y2VWTMXL7M5AQXUOYAJG5HM0,9A9419F1-69BE-48E2-BDC1-145371506A7A,2023-09-28_13h02.37.037,WP_VExplicitOC_HL,2022.2.5,Win32,6.4,NA,NA,NA,NA,NA,NA,NA,NA,NA,NA,NA,NA,NA,NA,NA,NA,NA,NA,stretch,003.png,NA,NA,NA,NA,NA,NA,NA,NA,NA,NA,NA,NA,NA,NA,NA,NA,NA,NA,0,2,2,2,1,NA,NA,NA,NA,NA,NA,NA,NA,NA,NA,NA,NA,NA,NA,NA,NA
SUPAMT49216,3N2BF7Y2VWTMXL7M5AQXUOYAJG5HM0,9A9419F1-69BE-48E2-BDC1-145371506A7A,2023-09-28_13h02.37.037,WP_VExplicitOC_HL,2022.2.5,Win32,6.4,NA,NA,NA,NA,NA,NA,NA,NA,NA,NA,NA,NA,NA,NA,NA,NA,NA,NA,make a drink,004.png,NA,NA,NA,NA,NA,NA,NA,NA,NA,NA,NA,NA,NA,NA,NA,NA,NA,NA,0,3,3,3,1,NA,NA,NA,NA,NA,NA,NA,NA,NA,NA,NA,NA,NA,NA,NA,NA
SUPAMT49216,3N2BF7Y2VWTMXL7M5AQXUOYAJG5HM0,9A9419F1-69BE-48E2-BDC1-145371506A7A,2023-09-28_13h02.37.037,WP_VExplicitOC_HL,2022.2.5,Win32,6.4,NA,NA,NA,NA,NA,NA,NA,NA,NA,NA,NA,NA,NA,NA,NA,NA,NA,NA,scroll social media,005.png,NA,NA,NA,NA,NA,NA,NA,NA,NA,NA,NA,NA,NA,NA,NA,NA,NA,NA,0,4,4,4,1,NA,NA,NA,NA,NA,NA,NA,NA,NA,NA,NA,NA,NA,NA,NA,NA
SUPAMT49216,3N2BF7Y2VWTMXL7M5AQXUOYAJG5HM0,9A9419F1-69BE-48E2-BDC1-145371506A7A,2023-09-28_13h02.37.037,WP_VExplicitOC_HL,2022.2.5,Win32,6.4,NA,NA,NA,NA,NA,NA,NA,NA,NA,NA,NA,NA,NA,NA,NA,NA,NA,NA,listen to music,006.png,NA,NA,NA,NA,NA,NA,NA,NA,NA,NA,NA,NA,NA,NA,NA,NA,NA,NA,0,5,5,5,1,NA,NA,NA,NA,NA,NA,NA,NA,NA,NA,NA,NA,NA,NA,NA,NA
SUPAMT49216,3N2BF7Y2VWTMXL7M5AQXUOYAJG5HM0,9A9419F1-69BE-48E2-BDC1-145371506A7A,2023-09-28_13h02.37.037,WP_VExplicitOC_HL,2022.2.5,Win32,6.4,NA,NA,NA,NA,NA,NA,NA,NA,NA,NA,NA,NA,NA,NA,NA,NA,NA,NA,daydream,007.png,NA,NA,NA,NA,NA,NA,NA,NA,NA,NA,NA,NA,NA,NA,NA,NA,NA,NA,0,6,6,6,1,NA,NA,NA,NA,NA,NA,NA,NA,NA,NA,NA,NA,NA,NA,NA,NA
SUPAMT49216,3N2BF7Y2VWTMXL7M5AQXUOYAJG5HM0,9A9419F1-69BE-48E2-BDC1-145371506A7A,2023-09-28_13h02.37.037,WP_VExplicitOC_HL,2022.2.5,Win32,6.4,NA,NA,NA,NA,NA,NA,NA,NA,NA,NA,NA,NA,NA,NA,NA,NA,NA,NA,watch a short animation,008.png,NA,NA,NA,NA,NA,NA,NA,NA,NA,NA,NA,NA,NA,NA,NA,NA,NA,NA,0,7,7,7,1,NA,NA,NA,NA,NA,NA,NA,NA,NA,NA,NA,NA,NA,NA,NA,NA
SUPAMT49216,3N2BF7Y2VWTMXL7M5AQXUOYAJG5HM0,9A9419F1-69BE-48E2-BDC1-145371506A7A,2023-09-28_13h02.37.037,WP_VExplicitOC_HL,2022.2.5,Win32,6.4,NA,NA,NA,NA,NA,NA,NA,NA,NA,NA,NA,NA,NA,NA,NA,NA,NA,NA,read a novel,009.png,NA,NA,NA,NA,NA,NA,NA,NA,NA,NA,NA,NA,NA,NA,NA,NA,NA,NA,0,8,8,8,1,NA,NA,NA,NA,NA,NA,NA,NA,NA,NA,NA,NA,NA,NA,NA,NA
SUPAMT49216,3N2BF7Y2VWTMXL7M5AQXUOYAJG5HM0,9A9419F1-69BE-48E2-BDC1-145371506A7A,2023-09-28_13h02.37.037,WP_VExplicitOC_HL,2022.2.5,Win32,6.4,NA,NA,NA,NA,NA,NA,NA,NA,NA,NA,NA,NA,NA,NA,NA,NA,NA,NA,read the news,010.png,NA,NA,NA,NA,NA,NA,NA,NA,NA,NA,NA,NA,NA,NA,NA,NA,NA,NA,0,9,9,9,1,NA,NA,NA,NA,NA,NA,NA,NA,NA,NA,NA,NA,NA,NA,NA,NA
SUPAMT49216,3N2BF7Y2VWTMXL7M5AQXUOYAJG5HM0,9A9419F1-69BE-48E2-BDC1-145371506A7A,2023-09-28_13h02.37.037,WP_VExplicitOC_HL,2022.2.5,Win32,6.4,NA,NA,NA,NA,NA,NA,NA,NA,NA,NA,NA,NA,NA,NA,NA,NA,NA,NA,NA,NA,NA,NA,NA,NA,NA,NA,NA,NA,NA,NA,NA,NA,NA,NA,NA,NA,NA,NA,NA,NA,NA,NA,NA,visuomotor task,NA,NA,NA,NA,NA,NA,NA,NA,NA,NA,NA,NA,NA,NA,NA
SUPAMT49216,3N2BF7Y2VWTMXL7M5AQXUOYAJG5HM0,9A9419F1-69BE-48E2-BDC1-145371506A7A,2023-09-28_13h02.37.037,WP_VExplicitOC_HL,2022.2.5,Win32,6.4,NA,NA,2.109,NA,NA,NA,NA,NA,happy,"unhappy, happy","less happy, more happy",NA,NA,NA,NA,NA,NA,NA,NA,NA,NA,NA,NA,NA,NA,NA,NA,NA,NA,NA,NA,NA,NA,NA,NA,NA,NA,NA,NA,NA,NA,NA,NA,NA,0,0,0,0,1,NA,NA,NA,NA,NA,NA,NA,NA,NA,NA
SUPAMT49216,3N2BF7Y2VWTMXL7M5AQXUOYAJG5HM0,9A9419F1-69BE-48E2-BDC1-145371506A7A,2023-09-28_13h02.37.037,WP_VExplicitOC_HL,2022.2.5,Win32,6.4,NA,NA,2.149,NA,NA,NA,NA,NA,bored,"bored, not bored","more bored, less bored",NA,NA,NA,NA,NA,NA,NA,NA,NA,NA,NA,NA,NA,NA,NA,NA,NA,NA,NA,NA,NA,NA,NA,NA,NA,NA,NA,NA,NA,NA,NA,NA,NA,0,1,1,2,1,NA,NA,NA,NA,NA,NA,NA,NA,NA,NA
SUPAMT49216,3N2BF7Y2VWTMXL7M5AQXUOYAJG5HM0,9A9419F1-69BE-48E2-BDC1-145371506A7A,2023-09-28_13h02.37.037,WP_VExplicitOC_HL,2022.2.5,Win32,6.4,NA,NA,2.066,NA,NA,NA,NA,NA,frustrated,"frustrated, not frustrated","more frustrated, less frustrated",NA,NA,NA,NA,NA,NA,NA,NA,NA,NA,NA,NA,NA,NA,NA,NA,NA,NA,NA,NA,NA,NA,NA,NA,NA,NA,NA,NA,NA,NA,NA,NA,NA,0,2,2,1,1,NA,NA,NA,NA,NA,NA,NA,NA,NA,NA
SUPAMT49216,3N2BF7Y2VWTMXL7M5AQXUOYAJG5HM0,9A9419F1-69BE-48E2-BDC1-145371506A7A,2023-09-28_13h02.37.037,WP_VExplicitOC_HL,2022.2.5,Win32,6.4,NA,NA,NA,NA,NA,NA,NA,NA,NA,NA,NA,NA,NA,NA,NA,NA,NA,NA,NA,NA,NA,NA,NA,NA,NA,NA,NA,NA,NA,NA,NA,NA,NA,NA,NA,NA,NA,NA,NA,NA,NA,NA,NA,NA,NA,NA,NA,NA,NA,NA,NA,NA,NA,NA,NA,NA,NA,NA,NA
SUPAMT49216,3N2BF7Y2VWTMXL7M5AQXUOYAJG5HM0,9A9419F1-69BE-48E2-BDC1-145371506A7A,2023-09-28_13h02.37.037,WP_VExplicitOC_HL,2022.2.5,Win32,6.4,NA,NA,NA,NA,NA,NA,NA,NA,NA,NA,NA,NA,NA,NA,NA,NA,NA,NA,NA,NA,NA,NA,NA,NA,NA,NA,NA,NA,NA,NA,NA,NA,NA,NA,NA,NA,NA,NA,NA,NA,NA,NA,NA,NA,NA,NA,NA,NA,NA,NA,NA,NA,NA,NA,NA,NA,NA,NA,NA
SUPAMT49216,3N2BF7Y2VWTMXL7M5AQXUOYAJG5HM0,9A9419F1-69BE-48E2-BDC1-145371506A7A,2023-09-28_13h02.37.037,WP_VExplicitOC_HL,2022.2.5,Win32,6.4,NA,NA,2.071,NA,NA,NA,NA,NA,bored,"bored, not bored","more bored, less bored",NA,NA,NA,NA,NA,NA,NA,NA,NA,NA,NA,NA,NA,NA,NA,NA,NA,NA,NA,NA,NA,NA,NA,NA,NA,NA,NA,NA,NA,NA,NA,NA,NA,NA,NA,NA,NA,NA,0,0,0,2,1,NA,NA,NA,NA,NA
SUPAMT49216,3N2BF7Y2VWTMXL7M5AQXUOYAJG5HM0,9A9419F1-69BE-48E2-BDC1-145371506A7A,2023-09-28_13h02.37.037,WP_VExplicitOC_HL,2022.2.5,Win32,6.4,NA,NA,2.053,NA,NA,NA,NA,NA,happy,"unhappy, happy","less happy, more happy",NA,NA,NA,NA,NA,NA,NA,NA,NA,NA,NA,NA,NA,NA,NA,NA,NA,NA,NA,NA,NA,NA,NA,NA,NA,NA,NA,NA,NA,NA,NA,NA,NA,NA,NA,NA,NA,NA,0,1,1,0,1,NA,NA,NA,NA,NA
SUPAMT49216,3N2BF7Y2VWTMXL7M5AQXUOYAJG5HM0,9A9419F1-69BE-48E2-BDC1-145371506A7A,2023-09-28_13h02.37.037,WP_VExplicitOC_HL,2022.2.5,Win32,6.4,NA,NA,2.082,NA,NA,NA,NA,NA,frustrated,"frustrated, not frustrated","more frustrated, less frustrated",NA,NA,NA,NA,NA,NA,NA,NA,NA,NA,NA,NA,NA,NA,NA,NA,NA,NA,NA,NA,NA,NA,NA,NA,NA,NA,NA,NA,NA,NA,NA,NA,NA,NA,NA,NA,NA,NA,0,2,2,1,1,NA,NA,NA,NA,NA
SUPAMT49216,3N2BF7Y2VWTMXL7M5AQXUOYAJG5HM0,9A9419F1-69BE-48E2-BDC1-145371506A7A,2023-09-28_13h02.37.037,WP_VExplicitOC_HL,2022.2.5,Win32,6.4,NA,NA,NA,NA,NA,NA,NA,NA,NA,NA,NA,NA,NA,NA,NA,NA,NA,NA,NA,NA,NA,NA,NA,NA,NA,NA,NA,NA,NA,NA,NA,NA,NA,NA,NA,NA,NA,NA,NA,NA,NA,NA,NA,NA,NA,NA,NA,NA,NA,NA,NA,NA,NA,NA,0,0,0,0,1
SUPAMT49216,3N2BF7Y2VWTMXL7M5AQXUOYAJG5HM0,9A9419F1-69BE-48E2-BDC1-145371506A7A,2023-09-28_13h02.37.037,WP_VExplicitOC_HL,2022.2.5,Win32,6.4,NA,NA,2.122,NA,NA,NA,NA,NA,frustrated,"frustrated, not frustrated","more frustrated, less frustrated",NA,NA,NA,NA,NA,NA,NA,NA,NA,NA,NA,NA,NA,NA,NA,NA,NA,NA,NA,NA,NA,NA,NA,NA,NA,NA,NA,NA,NA,NA,NA,NA,NA,NA,NA,NA,NA,NA,0,0,0,1,1,NA,NA,NA,NA,NA
SUPAMT49216,3N2BF7Y2VWTMXL7M5AQXUOYAJG5HM0,9A9419F1-69BE-48E2-BDC1-145371506A7A,2023-09-28_13h02.37.037,WP_VExplicitOC_HL,2022.2.5,Win32,6.4,NA,NA,2.121,NA,NA,NA,NA,NA,bored,"bored, not bored","more bored, less bored",NA,NA,NA,NA,NA,NA,NA,NA,NA,NA,NA,NA,NA,NA,NA,NA,NA,NA,NA,NA,NA,NA,NA,NA,NA,NA,NA,NA,NA,NA,NA,NA,NA,NA,NA,NA,NA,NA,0,1,1,2,1,NA,NA,NA,NA,NA
SUPAMT49216,3N2BF7Y2VWTMXL7M5AQXUOYAJG5HM0,9A9419F1-69BE-48E2-BDC1-145371506A7A,2023-09-28_13h02.37.037,WP_VExplicitOC_HL,2022.2.5,Win32,6.4,78.95545315,7.119,2.067,NA,NA,NA,NA,NA,happy,"unhappy, happy","less happy, more happy",NA,NA,NA,NA,NA,NA,NA,NA,NA,NA,NA,NA,NA,NA,NA,NA,NA,NA,NA,NA,NA,NA,NA,NA,NA,NA,NA,NA,NA,NA,NA,NA,NA,NA,NA,NA,NA,NA,0,2,2,0,1,NA,NA,NA,NA,NA
SUPAMT49216,3N2BF7Y2VWTMXL7M5AQXUOYAJG5HM0,9A9419F1-69BE-48E2-BDC1-145371506A7A,2023-09-28_13h02.37.037,WP_VExplicitOC_HL,2022.2.5,Win32,6.4,NA,NA,NA,NA,NA,NA,NA,NA,NA,NA,NA,NA,NA,NA,NA,NA,NA,NA,NA,NA,NA,NA,NA,NA,NA,NA,NA,NA,NA,NA,NA,NA,NA,NA,NA,NA,NA,NA,NA,NA,NA,NA,NA,NA,NA,NA,NA,NA,NA,NA,NA,NA,NA,NA,1,0,1,0,1
SUPAMT49216,3N2BF7Y2VWTMXL7M5AQXUOYAJG5HM0,9A9419F1-69BE-48E2-BDC1-145371506A7A,2023-09-28_13h02.37.037,WP_VExplicitOC_HL,2022.2.5,Win32,6.4,NA,NA,2.01,NA,NA,NA,NA,NA,bored,"bored, not bored","more bored, less bored",NA,NA,NA,NA,NA,NA,NA,NA,NA,NA,NA,NA,NA,NA,NA,NA,NA,NA,NA,NA,NA,NA,NA,NA,NA,NA,NA,NA,NA,NA,NA,NA,NA,NA,NA,NA,NA,NA,0,0,0,2,1,NA,NA,NA,NA,NA
SUPAMT49216,3N2BF7Y2VWTMXL7M5AQXUOYAJG5HM0,9A9419F1-69BE-48E2-BDC1-145371506A7A,2023-09-28_13h02.37.037,WP_VExplicitOC_HL,2022.2.5,Win32,6.4,NA,NA,2.07,NA,NA,NA,NA,NA,happy,"unhappy, happy","less happy, more happy",NA,NA,NA,NA,NA,NA,NA,NA,NA,NA,NA,NA,NA,NA,NA,NA,NA,NA,NA,NA,NA,NA,NA,NA,NA,NA,NA,NA,NA,NA,NA,NA,NA,NA,NA,NA,NA,NA,0,1,1,0,1,NA,NA,NA,NA,NA
SUPAMT49216,3N2BF7Y2VWTMXL7M5AQXUOYAJG5HM0,9A9419F1-69BE-48E2-BDC1-145371506A7A,2023-09-28_13h02.37.037,WP_VExplicitOC_HL,2022.2.5,Win32,6.4,NA,NA,2.091,NA,NA,NA,NA,NA,frustrated,"frustrated, not frustrated","more frustrated, less frustrated",NA,NA,NA,NA,NA,NA,NA,NA,NA,NA,NA,NA,NA,NA,NA,NA,NA,NA,NA,NA,NA,NA,NA,NA,NA,NA,NA,NA,NA,NA,NA,NA,NA,NA,NA,NA,NA,NA,0,2,2,1,1,NA,NA,NA,NA,NA
SUPAMT49216,3N2BF7Y2VWTMXL7M5AQXUOYAJG5HM0,9A9419F1-69BE-48E2-BDC1-145371506A7A,2023-09-28_13h02.37.037,WP_VExplicitOC_HL,2022.2.5,Win32,6.4,NA,NA,NA,NA,NA,NA,NA,NA,NA,NA,NA,NA,NA,NA,NA,NA,NA,NA,NA,NA,NA,NA,NA,NA,NA,NA,NA,NA,NA,NA,NA,NA,NA,NA,NA,NA,NA,NA,NA,NA,NA,NA,NA,NA,NA,NA,NA,NA,NA,NA,NA,NA,NA,NA,2,0,2,0,1
SUPAMT49216,3N2BF7Y2VWTMXL7M5AQXUOYAJG5HM0,9A9419F1-69BE-48E2-BDC1-145371506A7A,2023-09-28_13h02.37.037,WP_VExplicitOC_HL,2022.2.5,Win32,6.4,NA,NA,2.065,NA,NA,NA,NA,NA,bored,"bored, not bored","more bored, less bored",NA,NA,NA,NA,NA,NA,NA,NA,NA,NA,NA,NA,NA,NA,NA,NA,NA,NA,NA,NA,NA,NA,NA,NA,NA,NA,NA,NA,NA,NA,NA,NA,NA,NA,NA,NA,NA,NA,0,0,0,2,1,NA,NA,NA,NA,NA
SUPAMT49216,3N2BF7Y2VWTMXL7M5AQXUOYAJG5HM0,9A9419F1-69BE-48E2-BDC1-145371506A7A,2023-09-28_13h02.37.037,WP_VExplicitOC_HL,2022.2.5,Win32,6.4,NA,NA,2.092,NA,NA,NA,NA,NA,frustrated,"frustrated, not frustrated","more frustrated, less frustrated",NA,NA,NA,NA,NA,NA,NA,NA,NA,NA,NA,NA,NA,NA,NA,NA,NA,NA,NA,NA,NA,NA,NA,NA,NA,NA,NA,NA,NA,NA,NA,NA,NA,NA,NA,NA,NA,NA,0,1,1,1,1,NA,NA,NA,NA,NA
SUPAMT49216,3N2BF7Y2VWTMXL7M5AQXUOYAJG5HM0,9A9419F1-69BE-48E2-BDC1-145371506A7A,2023-09-28_13h02.37.037,WP_VExplicitOC_HL,2022.2.5,Win32,6.4,NA,NA,2.135,NA,NA,NA,NA,NA,happy,"unhappy, happy","less happy, more happy",NA,NA,NA,NA,NA,NA,NA,NA,NA,NA,NA,NA,NA,NA,NA,NA,NA,NA,NA,NA,NA,NA,NA,NA,NA,NA,NA,NA,NA,NA,NA,NA,NA,NA,NA,NA,NA,NA,0,2,2,0,1,NA,NA,NA,NA,NA
SUPAMT49216,3N2BF7Y2VWTMXL7M5AQXUOYAJG5HM0,9A9419F1-69BE-48E2-BDC1-145371506A7A,2023-09-28_13h02.37.037,WP_VExplicitOC_HL,2022.2.5,Win32,6.4,NA,NA,NA,NA,NA,NA,NA,NA,NA,NA,NA,NA,NA,NA,NA,NA,NA,NA,NA,NA,NA,NA,NA,NA,NA,NA,NA,NA,NA,NA,NA,NA,NA,NA,NA,NA,NA,NA,NA,NA,NA,NA,NA,NA,NA,NA,NA,NA,NA,NA,NA,NA,NA,NA,3,0,3,0,1
SUPAMT49216,3N2BF7Y2VWTMXL7M5AQXUOYAJG5HM0,9A9419F1-69BE-48E2-BDC1-145371506A7A,2023-09-28_13h02.37.037,WP_VExplicitOC_HL,2022.2.5,Win32,6.4,100,5.429,2.085,NA,NA,NA,NA,NA,bored,"bored, not bored","more bored, less bored",NA,NA,NA,NA,NA,NA,NA,NA,NA,NA,NA,NA,NA,NA,NA,NA,NA,NA,NA,NA,NA,NA,NA,NA,NA,NA,NA,NA,NA,NA,NA,NA,NA,NA,NA,NA,NA,NA,0,0,0,2,1,NA,NA,NA,NA,NA
SUPAMT49216,3N2BF7Y2VWTMXL7M5AQXUOYAJG5HM0,9A9419F1-69BE-48E2-BDC1-145371506A7A,2023-09-28_13h02.37.037,WP_VExplicitOC_HL,2022.2.5,Win32,6.4,100,5.801,2.001,NA,NA,NA,NA,NA,frustrated,"frustrated, not frustrated","more frustrated, less frustrated",NA,NA,NA,NA,NA,NA,NA,NA,NA,NA,NA,NA,NA,NA,NA,NA,NA,NA,NA,NA,NA,NA,NA,NA,NA,NA,NA,NA,NA,NA,NA,NA,NA,NA,NA,NA,NA,NA,0,1,1,1,1,NA,NA,NA,NA,NA
SUPAMT49216,3N2BF7Y2VWTMXL7M5AQXUOYAJG5HM0,9A9419F1-69BE-48E2-BDC1-145371506A7A,2023-09-28_13h02.37.037,WP_VExplicitOC_HL,2022.2.5,Win32,6.4,NA,NA,2.114,NA,NA,NA,NA,NA,happy,"unhappy, happy","less happy, more happy",NA,NA,NA,NA,NA,NA,NA,NA,NA,NA,NA,NA,NA,NA,NA,NA,NA,NA,NA,NA,NA,NA,NA,NA,NA,NA,NA,NA,NA,NA,NA,NA,NA,NA,NA,NA,NA,NA,0,2,2,0,1,NA,NA,NA,NA,NA
SUPAMT49216,3N2BF7Y2VWTMXL7M5AQXUOYAJG5HM0,9A9419F1-69BE-48E2-BDC1-145371506A7A,2023-09-28_13h02.37.037,WP_VExplicitOC_HL,2022.2.5,Win32,6.4,NA,NA,NA,NA,NA,NA,NA,NA,NA,NA,NA,NA,NA,NA,NA,NA,NA,NA,NA,NA,NA,NA,NA,NA,NA,NA,NA,NA,NA,NA,NA,NA,NA,NA,NA,NA,NA,NA,NA,NA,NA,NA,NA,NA,NA,NA,NA,NA,NA,NA,NA,NA,NA,NA,4,0,4,0,1
SUPAMT49216,3N2BF7Y2VWTMXL7M5AQXUOYAJG5HM0,9A9419F1-69BE-48E2-BDC1-145371506A7A,2023-09-28_13h02.37.037,WP_VExplicitOC_HL,2022.2.5,Win32,6.4,NA,NA,2.007,NA,NA,NA,NA,NA,bored,"bored, not bored","more bored, less bored",NA,NA,NA,NA,NA,NA,NA,NA,NA,NA,NA,NA,NA,NA,NA,NA,NA,NA,NA,NA,NA,NA,NA,NA,NA,NA,NA,NA,NA,NA,NA,NA,NA,NA,NA,NA,NA,NA,0,0,0,2,1,NA,NA,NA,NA,NA
SUPAMT49216,3N2BF7Y2VWTMXL7M5AQXUOYAJG5HM0,9A9419F1-69BE-48E2-BDC1-145371506A7A,2023-09-28_13h02.37.037,WP_VExplicitOC_HL,2022.2.5,Win32,6.4,NA,NA,2.033,NA,NA,NA,NA,NA,happy,"unhappy, happy","less happy, more happy",NA,NA,NA,NA,NA,NA,NA,NA,NA,NA,NA,NA,NA,NA,NA,NA,NA,NA,NA,NA,NA,NA,NA,NA,NA,NA,NA,NA,NA,NA,NA,NA,NA,NA,NA,NA,NA,NA,0,1,1,0,1,NA,NA,NA,NA,NA
SUPAMT49216,3N2BF7Y2VWTMXL7M5AQXUOYAJG5HM0,9A9419F1-69BE-48E2-BDC1-145371506A7A,2023-09-28_13h02.37.037,WP_VExplicitOC_HL,2022.2.5,Win32,6.4,NA,NA,2.148,NA,NA,NA,NA,NA,frustrated,"frustrated, not frustrated","more frustrated, less frustrated",NA,NA,NA,NA,NA,NA,NA,NA,NA,NA,NA,NA,NA,NA,NA,NA,NA,NA,NA,NA,NA,NA,NA,NA,NA,NA,NA,NA,NA,NA,NA,NA,NA,NA,NA,NA,NA,NA,0,2,2,1,1,NA,NA,NA,NA,NA
SUPAMT49216,3N2BF7Y2VWTMXL7M5AQXUOYAJG5HM0,9A9419F1-69BE-48E2-BDC1-145371506A7A,2023-09-28_13h02.37.037,WP_VExplicitOC_HL,2022.2.5,Win32,6.4,NA,NA,NA,NA,NA,NA,NA,NA,NA,NA,NA,NA,NA,NA,NA,NA,NA,NA,NA,NA,NA,NA,NA,NA,NA,NA,NA,NA,NA,NA,NA,NA,NA,NA,NA,NA,NA,NA,NA,NA,NA,NA,NA,NA,NA,NA,NA,NA,NA,NA,NA,NA,NA,NA,5,0,5,0,1
SUPAMT49216,3N2BF7Y2VWTMXL7M5AQXUOYAJG5HM0,9A9419F1-69BE-48E2-BDC1-145371506A7A,2023-09-28_13h02.37.037,WP_VExplicitOC_HL,2022.2.5,Win32,6.4,NA,NA,2.192,NA,NA,NA,NA,NA,happy,"unhappy, happy","less happy, more happy",NA,NA,NA,NA,NA,NA,NA,NA,NA,NA,NA,NA,NA,NA,NA,NA,NA,NA,NA,NA,NA,NA,NA,NA,NA,NA,NA,NA,NA,NA,NA,NA,NA,NA,NA,NA,NA,NA,0,0,0,0,1,NA,NA,NA,NA,NA
SUPAMT49216,3N2BF7Y2VWTMXL7M5AQXUOYAJG5HM0,9A9419F1-69BE-48E2-BDC1-145371506A7A,2023-09-28_13h02.37.037,WP_VExplicitOC_HL,2022.2.5,Win32,6.4,NA,NA,2.018,NA,NA,NA,NA,NA,frustrated,"frustrated, not frustrated","more frustrated, less frustrated",NA,NA,NA,NA,NA,NA,NA,NA,NA,NA,NA,NA,NA,NA,NA,NA,NA,NA,NA,NA,NA,NA,NA,NA,NA,NA,NA,NA,NA,NA,NA,NA,NA,NA,NA,NA,NA,NA,0,1,1,1,1,NA,NA,NA,NA,NA
SUPAMT49216,3N2BF7Y2VWTMXL7M5AQXUOYAJG5HM0,9A9419F1-69BE-48E2-BDC1-145371506A7A,2023-09-28_13h02.37.037,WP_VExplicitOC_HL,2022.2.5,Win32,6.4,75.57603687,6.987,2.046,NA,NA,NA,NA,NA,bored,"bored, not bored","more bored, less bored",NA,NA,NA,NA,NA,NA,NA,NA,NA,NA,NA,NA,NA,NA,NA,NA,NA,NA,NA,NA,NA,NA,NA,NA,NA,NA,NA,NA,NA,NA,NA,NA,NA,NA,NA,NA,NA,NA,0,2,2,2,1,NA,NA,NA,NA,NA
SUPAMT49216,3N2BF7Y2VWTMXL7M5AQXUOYAJG5HM0,9A9419F1-69BE-48E2-BDC1-145371506A7A,2023-09-28_13h02.37.037,WP_VExplicitOC_HL,2022.2.5,Win32,6.4,NA,NA,NA,NA,NA,NA,NA,NA,NA,NA,NA,NA,NA,NA,NA,NA,NA,NA,NA,NA,NA,NA,NA,NA,NA,NA,NA,NA,NA,NA,NA,NA,NA,NA,NA,NA,NA,NA,NA,NA,NA,NA,NA,NA,NA,NA,NA,NA,NA,NA,NA,NA,NA,NA,6,0,6,0,1
SUPAMT49216,3N2BF7Y2VWTMXL7M5AQXUOYAJG5HM0,9A9419F1-69BE-48E2-BDC1-145371506A7A,2023-09-28_13h02.37.037,WP_VExplicitOC_HL,2022.2.5,Win32,6.4,NA,NA,2.031,NA,NA,NA,NA,NA,bored,"bored, not bored","more bored, less bored",NA,NA,NA,NA,NA,NA,NA,NA,NA,NA,NA,NA,NA,NA,NA,NA,NA,NA,NA,NA,NA,NA,NA,NA,NA,NA,NA,NA,NA,NA,NA,NA,NA,NA,NA,NA,NA,NA,0,0,0,2,1,NA,NA,NA,NA,NA
SUPAMT49216,3N2BF7Y2VWTMXL7M5AQXUOYAJG5HM0,9A9419F1-69BE-48E2-BDC1-145371506A7A,2023-09-28_13h02.37.037,WP_VExplicitOC_HL,2022.2.5,Win32,6.4,NA,NA,2.044,NA,NA,NA,NA,NA,frustrated,"frustrated, not frustrated","more frustrated, less frustrated",NA,NA,NA,NA,NA,NA,NA,NA,NA,NA,NA,NA,NA,NA,NA,NA,NA,NA,NA,NA,NA,NA,NA,NA,NA,NA,NA,NA,NA,NA,NA,NA,NA,NA,NA,NA,NA,NA,0,1,1,1,1,NA,NA,NA,NA,NA
SUPAMT49216,3N2BF7Y2VWTMXL7M5AQXUOYAJG5HM0,9A9419F1-69BE-48E2-BDC1-145371506A7A,2023-09-28_13h02.37.037,WP_VExplicitOC_HL,2022.2.5,Win32,6.4,NA,NA,2.11,NA,NA,NA,NA,NA,happy,"unhappy, happy","less happy, more happy",NA,NA,NA,NA,NA,NA,NA,NA,NA,NA,NA,NA,NA,NA,NA,NA,NA,NA,NA,NA,NA,NA,NA,NA,NA,NA,NA,NA,NA,NA,NA,NA,NA,NA,NA,NA,NA,NA,0,2,2,0,1,NA,NA,NA,NA,NA
SUPAMT49216,3N2BF7Y2VWTMXL7M5AQXUOYAJG5HM0,9A9419F1-69BE-48E2-BDC1-145371506A7A,2023-09-28_13h02.37.037,WP_VExplicitOC_HL,2022.2.5,Win32,6.4,NA,NA,NA,NA,NA,NA,NA,NA,NA,NA,NA,NA,NA,NA,NA,NA,NA,NA,NA,NA,NA,NA,NA,NA,NA,NA,NA,NA,NA,NA,NA,NA,NA,NA,NA,NA,NA,NA,NA,NA,NA,NA,NA,NA,NA,NA,NA,NA,NA,NA,NA,NA,NA,NA,7,0,7,0,1
SUPAMT49216,3N2BF7Y2VWTMXL7M5AQXUOYAJG5HM0,9A9419F1-69BE-48E2-BDC1-145371506A7A,2023-09-28_13h02.37.037,WP_VExplicitOC_HL,2022.2.5,Win32,6.4,NA,NA,2.108,NA,NA,NA,NA,NA,bored,"bored, not bored","more bored, less bored",NA,NA,NA,NA,NA,NA,NA,NA,NA,NA,NA,NA,NA,NA,NA,NA,NA,NA,NA,NA,NA,NA,NA,NA,NA,NA,NA,NA,NA,NA,NA,NA,NA,NA,NA,NA,NA,NA,0,0,0,2,1,NA,NA,NA,NA,NA
SUPAMT49216,3N2BF7Y2VWTMXL7M5AQXUOYAJG5HM0,9A9419F1-69BE-48E2-BDC1-145371506A7A,2023-09-28_13h02.37.037,WP_VExplicitOC_HL,2022.2.5,Win32,6.4,NA,NA,2.053,NA,NA,NA,NA,NA,happy,"unhappy, happy","less happy, more happy",NA,NA,NA,NA,NA,NA,NA,NA,NA,NA,NA,NA,NA,NA,NA,NA,NA,NA,NA,NA,NA,NA,NA,NA,NA,NA,NA,NA,NA,NA,NA,NA,NA,NA,NA,NA,NA,NA,0,1,1,0,1,NA,NA,NA,NA,NA
SUPAMT49216,3N2BF7Y2VWTMXL7M5AQXUOYAJG5HM0,9A9419F1-69BE-48E2-BDC1-145371506A7A,2023-09-28_13h02.37.037,WP_VExplicitOC_HL,2022.2.5,Win32,6.4,NA,NA,2.054,NA,NA,NA,NA,NA,frustrated,"frustrated, not frustrated","more frustrated, less frustrated",NA,NA,NA,NA,NA,NA,NA,NA,NA,NA,NA,NA,NA,NA,NA,NA,NA,NA,NA,NA,NA,NA,NA,NA,NA,NA,NA,NA,NA,NA,NA,NA,NA,NA,NA,NA,NA,NA,0,2,2,1,1,NA,NA,NA,NA,NA
SUPAMT49216,3N2BF7Y2VWTMXL7M5AQXUOYAJG5HM0,9A9419F1-69BE-48E2-BDC1-145371506A7A,2023-09-28_13h02.37.037,WP_VExplicitOC_HL,2022.2.5,Win32,6.4,NA,NA,NA,NA,NA,NA,NA,NA,NA,NA,NA,NA,NA,NA,NA,NA,NA,NA,NA,NA,NA,NA,NA,NA,NA,NA,NA,NA,NA,NA,NA,NA,NA,NA,NA,NA,NA,NA,NA,NA,NA,NA,NA,NA,NA,NA,NA,NA,NA,NA,NA,NA,NA,NA,8,0,8,0,1
SUPAMT49216,3N2BF7Y2VWTMXL7M5AQXUOYAJG5HM0,9A9419F1-69BE-48E2-BDC1-145371506A7A,2023-09-28_13h02.37.037,WP_VExplicitOC_HL,2022.2.5,Win32,6.4,NA,NA,2.029,NA,NA,NA,NA,NA,happy,"unhappy, happy","less happy, more happy",NA,NA,NA,NA,NA,NA,NA,NA,NA,NA,NA,NA,NA,NA,NA,NA,NA,NA,NA,NA,NA,NA,NA,NA,NA,NA,NA,NA,NA,NA,NA,NA,NA,NA,NA,NA,NA,NA,0,0,0,0,1,NA,NA,NA,NA,NA
SUPAMT49216,3N2BF7Y2VWTMXL7M5AQXUOYAJG5HM0,9A9419F1-69BE-48E2-BDC1-145371506A7A,2023-09-28_13h02.37.037,WP_VExplicitOC_HL,2022.2.5,Win32,6.4,NA,NA,2.147,NA,NA,NA,NA,NA,frustrated,"frustrated, not frustrated","more frustrated, less frustrated",NA,NA,NA,NA,NA,NA,NA,NA,NA,NA,NA,NA,NA,NA,NA,NA,NA,NA,NA,NA,NA,NA,NA,NA,NA,NA,NA,NA,NA,NA,NA,NA,NA,NA,NA,NA,NA,NA,0,1,1,1,1,NA,NA,NA,NA,NA
SUPAMT49216,3N2BF7Y2VWTMXL7M5AQXUOYAJG5HM0,9A9419F1-69BE-48E2-BDC1-145371506A7A,2023-09-28_13h02.37.037,WP_VExplicitOC_HL,2022.2.5,Win32,6.4,NA,NA,2.129,NA,NA,NA,NA,NA,bored,"bored, not bored","more bored, less bored",NA,NA,NA,NA,NA,NA,NA,NA,NA,NA,NA,NA,NA,NA,NA,NA,NA,NA,NA,NA,NA,NA,NA,NA,NA,NA,NA,NA,NA,NA,NA,NA,NA,NA,NA,NA,NA,NA,0,2,2,2,1,NA,NA,NA,NA,NA
SUPAMT49216,3N2BF7Y2VWTMXL7M5AQXUOYAJG5HM0,9A9419F1-69BE-48E2-BDC1-145371506A7A,2023-09-28_13h02.37.037,WP_VExplicitOC_HL,2022.2.5,Win32,6.4,NA,NA,NA,NA,NA,NA,NA,NA,NA,NA,NA,NA,NA,NA,NA,NA,NA,NA,NA,NA,NA,NA,NA,NA,NA,NA,NA,NA,NA,NA,NA,NA,NA,NA,NA,NA,NA,NA,NA,NA,NA,NA,NA,NA,NA,NA,NA,NA,NA,NA,NA,NA,NA,NA,9,0,9,0,1
SUPAMT49216,3N2BF7Y2VWTMXL7M5AQXUOYAJG5HM0,9A9419F1-69BE-48E2-BDC1-145371506A7A,2023-09-28_13h02.37.037,WP_VExplicitOC_HL,2022.2.5,Win32,6.4,NA,NA,2.094,NA,NA,NA,NA,NA,bored,"bored, not bored","more bored, less bored",NA,NA,NA,NA,NA,NA,NA,NA,NA,NA,NA,NA,NA,NA,NA,NA,NA,NA,NA,NA,NA,NA,NA,NA,NA,NA,NA,NA,NA,NA,NA,NA,NA,NA,NA,NA,NA,NA,0,0,0,2,1,NA,NA,NA,NA,NA
SUPAMT49216,3N2BF7Y2VWTMXL7M5AQXUOYAJG5HM0,9A9419F1-69BE-48E2-BDC1-145371506A7A,2023-09-28_13h02.37.037,WP_VExplicitOC_HL,2022.2.5,Win32,6.4,NA,NA,2.005,NA,NA,NA,NA,NA,happy,"unhappy, happy","less happy, more happy",NA,NA,NA,NA,NA,NA,NA,NA,NA,NA,NA,NA,NA,NA,NA,NA,NA,NA,NA,NA,NA,NA,NA,NA,NA,NA,NA,NA,NA,NA,NA,NA,NA,NA,NA,NA,NA,NA,0,1,1,0,1,NA,NA,NA,NA,NA
SUPAMT49216,3N2BF7Y2VWTMXL7M5AQXUOYAJG5HM0,9A9419F1-69BE-48E2-BDC1-145371506A7A,2023-09-28_13h02.37.037,WP_VExplicitOC_HL,2022.2.5,Win32,6.4,NA,NA,2.104,NA,NA,NA,NA,NA,frustrated,"frustrated, not frustrated","more frustrated, less frustrated",NA,NA,NA,NA,NA,NA,NA,NA,NA,NA,NA,NA,NA,NA,NA,NA,NA,NA,NA,NA,NA,NA,NA,NA,NA,NA,NA,NA,NA,NA,NA,NA,NA,NA,NA,NA,NA,NA,0,2,2,1,1,NA,NA,NA,NA,NA
SUPAMT49216,3N2BF7Y2VWTMXL7M5AQXUOYAJG5HM0,9A9419F1-69BE-48E2-BDC1-145371506A7A,2023-09-28_13h02.37.037,WP_VExplicitOC_HL,2022.2.5,Win32,6.4,NA,NA,NA,NA,NA,NA,NA,NA,NA,NA,NA,NA,NA,NA,NA,NA,NA,NA,NA,NA,NA,NA,NA,NA,NA,NA,NA,NA,NA,NA,NA,NA,NA,NA,NA,NA,NA,NA,NA,NA,NA,NA,NA,NA,NA,NA,NA,NA,NA,NA,NA,NA,NA,NA,10,0,10,0,1
SUPAMT49216,3N2BF7Y2VWTMXL7M5AQXUOYAJG5HM0,9A9419F1-69BE-48E2-BDC1-145371506A7A,2023-09-28_13h02.37.037,WP_VExplicitOC_HL,2022.2.5,Win32,6.4,89.70814132,6.359,2.044,NA,NA,NA,NA,NA,bored,"bored, not bored","more bored, less bored",NA,NA,NA,NA,NA,NA,NA,NA,NA,NA,NA,NA,NA,NA,NA,NA,NA,NA,NA,NA,NA,NA,NA,NA,NA,NA,NA,NA,NA,NA,NA,NA,NA,NA,NA,NA,NA,NA,0,0,0,2,1,NA,NA,NA,NA,NA
SUPAMT49216,3N2BF7Y2VWTMXL7M5AQXUOYAJG5HM0,9A9419F1-69BE-48E2-BDC1-145371506A7A,2023-09-28_13h02.37.037,WP_VExplicitOC_HL,2022.2.5,Win32,6.4,NA,NA,2.093,NA,NA,NA,NA,NA,frustrated,"frustrated, not frustrated","more frustrated, less frustrated",NA,NA,NA,NA,NA,NA,NA,NA,NA,NA,NA,NA,NA,NA,NA,NA,NA,NA,NA,NA,NA,NA,NA,NA,NA,NA,NA,NA,NA,NA,NA,NA,NA,NA,NA,NA,NA,NA,0,1,1,1,1,NA,NA,NA,NA,NA
SUPAMT49216,3N2BF7Y2VWTMXL7M5AQXUOYAJG5HM0,9A9419F1-69BE-48E2-BDC1-145371506A7A,2023-09-28_13h02.37.037,WP_VExplicitOC_HL,2022.2.5,Win32,6.4,100,4.753,2.006,NA,NA,NA,NA,NA,happy,"unhappy, happy","less happy, more happy",NA,NA,NA,NA,NA,NA,NA,NA,NA,NA,NA,NA,NA,NA,NA,NA,NA,NA,NA,NA,NA,NA,NA,NA,NA,NA,NA,NA,NA,NA,NA,NA,NA,NA,NA,NA,NA,NA,0,2,2,0,1,NA,NA,NA,NA,NA
SUPAMT49216,3N2BF7Y2VWTMXL7M5AQXUOYAJG5HM0,9A9419F1-69BE-48E2-BDC1-145371506A7A,2023-09-28_13h02.37.037,WP_VExplicitOC_HL,2022.2.5,Win32,6.4,NA,NA,NA,NA,NA,NA,NA,NA,NA,NA,NA,NA,NA,NA,NA,NA,NA,NA,NA,NA,NA,NA,NA,NA,NA,NA,NA,NA,NA,NA,NA,NA,NA,NA,NA,NA,NA,NA,NA,NA,NA,NA,NA,NA,NA,NA,NA,NA,NA,NA,NA,NA,NA,NA,11,0,11,0,1
SUPAMT49216,3N2BF7Y2VWTMXL7M5AQXUOYAJG5HM0,9A9419F1-69BE-48E2-BDC1-145371506A7A,2023-09-28_13h02.37.037,WP_VExplicitOC_HL,2022.2.5,Win32,6.4,NA,NA,2.086,NA,NA,NA,NA,NA,happy,"unhappy, happy","less happy, more happy",NA,NA,NA,NA,NA,NA,NA,NA,NA,NA,NA,NA,NA,NA,NA,NA,NA,NA,NA,NA,NA,NA,NA,NA,NA,NA,NA,NA,NA,NA,NA,NA,NA,NA,NA,NA,NA,NA,0,0,0,0,1,NA,NA,NA,NA,NA
SUPAMT49216,3N2BF7Y2VWTMXL7M5AQXUOYAJG5HM0,9A9419F1-69BE-48E2-BDC1-145371506A7A,2023-09-28_13h02.37.037,WP_VExplicitOC_HL,2022.2.5,Win32,6.4,NA,NA,2.077,NA,NA,NA,NA,NA,frustrated,"frustrated, not frustrated","more frustrated, less frustrated",NA,NA,NA,NA,NA,NA,NA,NA,NA,NA,NA,NA,NA,NA,NA,NA,NA,NA,NA,NA,NA,NA,NA,NA,NA,NA,NA,NA,NA,NA,NA,NA,NA,NA,NA,NA,NA,NA,0,1,1,1,1,NA,NA,NA,NA,NA
SUPAMT49216,3N2BF7Y2VWTMXL7M5AQXUOYAJG5HM0,9A9419F1-69BE-48E2-BDC1-145371506A7A,2023-09-28_13h02.37.037,WP_VExplicitOC_HL,2022.2.5,Win32,6.4,NA,NA,2.132,NA,NA,NA,NA,NA,bored,"bored, not bored","more bored, less bored",NA,NA,NA,NA,NA,NA,NA,NA,NA,NA,NA,NA,NA,NA,NA,NA,NA,NA,NA,NA,NA,NA,NA,NA,NA,NA,NA,NA,NA,NA,NA,NA,NA,NA,NA,NA,NA,NA,0,2,2,2,1,NA,NA,NA,NA,NA
SUPAMT49216,3N2BF7Y2VWTMXL7M5AQXUOYAJG5HM0,9A9419F1-69BE-48E2-BDC1-145371506A7A,2023-09-28_13h02.37.037,WP_VExplicitOC_HL,2022.2.5,Win32,6.4,NA,NA,NA,NA,NA,NA,NA,NA,NA,NA,NA,NA,NA,NA,NA,NA,NA,NA,NA,NA,NA,NA,NA,NA,NA,NA,NA,NA,NA,NA,NA,NA,NA,NA,NA,NA,NA,NA,NA,NA,NA,NA,NA,NA,NA,NA,NA,NA,NA,NA,NA,NA,NA,NA,12,0,12,0,1
SUPAMT49216,3N2BF7Y2VWTMXL7M5AQXUOYAJG5HM0,9A9419F1-69BE-48E2-BDC1-145371506A7A,2023-09-28_13h02.37.037,WP_VExplicitOC_HL,2022.2.5,Win32,6.4,NA,NA,2.144,NA,NA,NA,NA,NA,frustrated,"frustrated, not frustrated","more frustrated, less frustrated",NA,NA,NA,NA,NA,NA,NA,NA,NA,NA,NA,NA,NA,NA,NA,NA,NA,NA,NA,NA,NA,NA,NA,NA,NA,NA,NA,NA,NA,NA,NA,NA,NA,NA,NA,NA,NA,NA,0,0,0,1,1,NA,NA,NA,NA,NA
SUPAMT49216,3N2BF7Y2VWTMXL7M5AQXUOYAJG5HM0,9A9419F1-69BE-48E2-BDC1-145371506A7A,2023-09-28_13h02.37.037,WP_VExplicitOC_HL,2022.2.5,Win32,6.4,NA,NA,2.031,NA,NA,NA,NA,NA,happy,"unhappy, happy","less happy, more happy",NA,NA,NA,NA,NA,NA,NA,NA,NA,NA,NA,NA,NA,NA,NA,NA,NA,NA,NA,NA,NA,NA,NA,NA,NA,NA,NA,NA,NA,NA,NA,NA,NA,NA,NA,NA,NA,NA,0,1,1,0,1,NA,NA,NA,NA,NA
SUPAMT49216,3N2BF7Y2VWTMXL7M5AQXUOYAJG5HM0,9A9419F1-69BE-48E2-BDC1-145371506A7A,2023-09-28_13h02.37.037,WP_VExplicitOC_HL,2022.2.5,Win32,6.4,NA,NA,2.13,NA,NA,NA,NA,NA,bored,"bored, not bored","more bored, less bored",NA,NA,NA,NA,NA,NA,NA,NA,NA,NA,NA,NA,NA,NA,NA,NA,NA,NA,NA,NA,NA,NA,NA,NA,NA,NA,NA,NA,NA,NA,NA,NA,NA,NA,NA,NA,NA,NA,0,2,2,2,1,NA,NA,NA,NA,NA
SUPAMT49216,3N2BF7Y2VWTMXL7M5AQXUOYAJG5HM0,9A9419F1-69BE-48E2-BDC1-145371506A7A,2023-09-28_13h02.37.037,WP_VExplicitOC_HL,2022.2.5,Win32,6.4,NA,NA,NA,NA,NA,NA,NA,NA,NA,NA,NA,NA,NA,NA,NA,NA,NA,NA,NA,NA,NA,NA,NA,NA,NA,NA,NA,NA,NA,NA,NA,NA,NA,NA,NA,NA,NA,NA,NA,NA,NA,NA,NA,NA,NA,NA,NA,NA,NA,NA,NA,NA,NA,NA,13,0,13,0,1
SUPAMT49216,3N2BF7Y2VWTMXL7M5AQXUOYAJG5HM0,9A9419F1-69BE-48E2-BDC1-145371506A7A,2023-09-28_13h02.37.037,WP_VExplicitOC_HL,2022.2.5,Win32,6.4,100,4.597,2.078,NA,NA,NA,NA,NA,frustrated,"frustrated, not frustrated","more frustrated, less frustrated",NA,NA,NA,NA,NA,NA,NA,NA,NA,NA,NA,NA,NA,NA,NA,NA,NA,NA,NA,NA,NA,NA,NA,NA,NA,NA,NA,NA,NA,NA,NA,NA,NA,NA,NA,NA,NA,NA,0,0,0,1,1,NA,NA,NA,NA,NA
SUPAMT49216,3N2BF7Y2VWTMXL7M5AQXUOYAJG5HM0,9A9419F1-69BE-48E2-BDC1-145371506A7A,2023-09-28_13h02.37.037,WP_VExplicitOC_HL,2022.2.5,Win32,6.4,100,4.624,2.034,NA,NA,NA,NA,NA,happy,"unhappy, happy","less happy, more happy",NA,NA,NA,NA,NA,NA,NA,NA,NA,NA,NA,NA,NA,NA,NA,NA,NA,NA,NA,NA,NA,NA,NA,NA,NA,NA,NA,NA,NA,NA,NA,NA,NA,NA,NA,NA,NA,NA,0,1,1,0,1,NA,NA,NA,NA,NA
SUPAMT49216,3N2BF7Y2VWTMXL7M5AQXUOYAJG5HM0,9A9419F1-69BE-48E2-BDC1-145371506A7A,2023-09-28_13h02.37.037,WP_VExplicitOC_HL,2022.2.5,Win32,6.4,100,5.124,2.159,NA,NA,NA,NA,NA,bored,"bored, not bored","more bored, less bored",NA,NA,NA,NA,NA,NA,NA,NA,NA,NA,NA,NA,NA,NA,NA,NA,NA,NA,NA,NA,NA,NA,NA,NA,NA,NA,NA,NA,NA,NA,NA,NA,NA,NA,NA,NA,NA,NA,0,2,2,2,1,NA,NA,NA,NA,NA
SUPAMT49216,3N2BF7Y2VWTMXL7M5AQXUOYAJG5HM0,9A9419F1-69BE-48E2-BDC1-145371506A7A,2023-09-28_13h02.37.037,WP_VExplicitOC_HL,2022.2.5,Win32,6.4,NA,NA,NA,NA,NA,NA,NA,NA,NA,NA,NA,NA,NA,NA,NA,NA,NA,NA,NA,NA,NA,NA,NA,NA,NA,NA,NA,NA,NA,NA,NA,NA,NA,NA,NA,NA,NA,NA,NA,NA,NA,NA,NA,NA,NA,NA,NA,NA,NA,NA,NA,NA,NA,NA,14,0,14,0,1
SUPAMT49216,3N2BF7Y2VWTMXL7M5AQXUOYAJG5HM0,9A9419F1-69BE-48E2-BDC1-145371506A7A,2023-09-28_13h02.37.037,WP_VExplicitOC_HL,2022.2.5,Win32,6.4,NA,NA,NA,NA,NA,NA,NA,NA,NA,NA,NA,NA,NA,NA,NA,NA,NA,NA,NA,NA,NA,NA,NA,NA,NA,NA,NA,NA,NA,NA,NA,NA,NA,NA,NA,NA,NA,NA,NA,NA,NA,NA,NA,NA,NA,NA,NA,NA,NA,NA,NA,NA,NA,NA,NA,NA,NA,NA,NA
