participant,session,completion,date,expName,psychopyVersion,OS,frameRate,rating_all.response,rating_all.rt,rating_all.tStart,rndRat1.thisRepN,rndRat1.thisTrialN,rndRat1.thisN,rndRat1.thisIndex,rndRat1.ran,Emo,Labs,Labs2,rating_alt.response,rating_alt.rt,AltC.thisRepN,AltC.thisTrialN,AltC.thisN,AltC.thisIndex,AltC.ran,alt_choices,pic_choices,TopAlt_Choice,rndRat2.thisRepN,rndRat2.thisTrialN,rndRat2.thisN,rndRat2.thisIndex,rndRat2.ran,rndRat3.thisRepN,rndRat3.thisTrialN,rndRat3.thisN,rndRat3.thisIndex,rndRat3.ran,trials_FC_H.thisRepN,trials_FC_H.thisTrialN,trials_FC_H.thisN,trials_FC_H.thisIndex,trials_FC_H.ran,rating_alt_2.response,rating_alt_2.rt,AltC2.thisRepN,AltC2.thisTrialN,AltC2.thisN,AltC2.thisIndex,AltC2.ran,BottomAlt_Choice,rndRat4.thisRepN,rndRat4.thisTrialN,rndRat4.thisN,rndRat4.thisIndex,rndRat4.ran,rndRat5.thisRepN,rndRat5.thisTrialN,rndRat5.thisN,rndRat5.thisIndex,rndRat5.ran,trials_FC_L.thisRepN,trials_FC_L.thisTrialN,trials_FC_L.thisN,trials_FC_L.thisIndex,trials_FC_L.ran
SUPAMT11912,3S96KQ6I9S39Y0S4SB8JPHE4KHRTDS,6C4B41EE-54DB-45B2-B657-C0AF75483CB6,2023-09-26_06h05.40.232,WP_VExplicitOC_HL,2022.2.5,Win32,16.124091,NA,NA,NA,NA,NA,NA,NA,NA,NA,NA,NA,NA,NA,NA,NA,NA,NA,NA,NA,NA,NA,NA,NA,NA,NA,NA,NA,NA,NA,NA,NA,NA,NA,NA,NA,NA,NA,NA,NA,NA,NA,NA,NA,NA,NA,NA,NA,NA,NA,NA,NA,NA,NA,NA,NA,NA,NA,NA,NA
SUPAMT11912,3S96KQ6I9S39Y0S4SB8JPHE4KHRTDS,6C4B41EE-54DB-45B2-B657-C0AF75483CB6,2023-09-26_06h05.40.232,WP_VExplicitOC_HL,2022.2.5,Win32,16.124091,NA,NA,NA,NA,NA,NA,NA,NA,NA,NA,NA,NA,NA,NA,NA,NA,NA,NA,NA,NA,NA,NA,NA,NA,NA,NA,NA,NA,NA,NA,NA,NA,NA,NA,NA,NA,NA,NA,NA,NA,NA,NA,NA,NA,NA,NA,NA,NA,NA,NA,NA,NA,NA,NA,NA,NA,NA,NA,NA
SUPAMT11912,3S96KQ6I9S39Y0S4SB8JPHE4KHRTDS,6C4B41EE-54DB-45B2-B657-C0AF75483CB6,2023-09-26_06h05.40.232,WP_VExplicitOC_HL,2022.2.5,Win32,16.124091,NA,NA,NA,NA,NA,NA,NA,NA,NA,NA,NA,NA,NA,NA,NA,NA,NA,NA,NA,NA,NA,NA,NA,NA,NA,NA,NA,NA,NA,NA,NA,NA,NA,NA,NA,NA,NA,NA,NA,NA,NA,NA,NA,NA,NA,NA,NA,NA,NA,NA,NA,NA,NA,NA,NA,NA,NA,NA,NA
SUPAMT11912,3S96KQ6I9S39Y0S4SB8JPHE4KHRTDS,6C4B41EE-54DB-45B2-B657-C0AF75483CB6,2023-09-26_06h05.40.232,WP_VExplicitOC_HL,2022.2.5,Win32,16.124091,100,4.4451,2.0574,0,0,0,2,1,bored,"bored, not bored","more bored, less bored",NA,NA,NA,NA,NA,NA,NA,NA,NA,NA,NA,NA,NA,NA,NA,NA,NA,NA,NA,NA,NA,NA,NA,NA,NA,NA,NA,NA,NA,NA,NA,NA,NA,NA,NA,NA,NA,NA,NA,NA,NA,NA,NA,NA,NA,NA,NA,NA
SUPAMT11912,3S96KQ6I9S39Y0S4SB8JPHE4KHRTDS,6C4B41EE-54DB-45B2-B657-C0AF75483CB6,2023-09-26_06h05.40.232,WP_VExplicitOC_HL,2022.2.5,Win32,16.124091,99.21875,3.5344,2.0295,0,1,1,0,1,happy,"unhappy, happy","less happy, more happy",NA,NA,NA,NA,NA,NA,NA,NA,NA,NA,NA,NA,NA,NA,NA,NA,NA,NA,NA,NA,NA,NA,NA,NA,NA,NA,NA,NA,NA,NA,NA,NA,NA,NA,NA,NA,NA,NA,NA,NA,NA,NA,NA,NA,NA,NA,NA,NA
SUPAMT11912,3S96KQ6I9S39Y0S4SB8JPHE4KHRTDS,6C4B41EE-54DB-45B2-B657-C0AF75483CB6,2023-09-26_06h05.40.232,WP_VExplicitOC_HL,2022.2.5,Win32,16.124091,97.91666667,2.955599999,2.057,0,2,2,1,1,frustrated,"frustrated, not frustrated","more frustrated, less frustrated",NA,NA,NA,NA,NA,NA,NA,NA,NA,NA,NA,NA,NA,NA,NA,NA,NA,NA,NA,NA,NA,NA,NA,NA,NA,NA,NA,NA,NA,NA,NA,NA,NA,NA,NA,NA,NA,NA,NA,NA,NA,NA,NA,NA,NA,NA,NA,NA
SUPAMT11912,3S96KQ6I9S39Y0S4SB8JPHE4KHRTDS,6C4B41EE-54DB-45B2-B657-C0AF75483CB6,2023-09-26_06h05.40.232,WP_VExplicitOC_HL,2022.2.5,Win32,16.124091,NA,NA,NA,NA,NA,NA,NA,NA,NA,NA,NA,NA,NA,NA,NA,NA,NA,NA,NA,NA,NA,NA,NA,NA,NA,NA,NA,NA,NA,NA,NA,NA,NA,NA,NA,NA,NA,NA,NA,NA,NA,NA,NA,NA,NA,NA,NA,NA,NA,NA,NA,NA,NA,NA,NA,NA,NA,NA,NA
SUPAMT11912,3S96KQ6I9S39Y0S4SB8JPHE4KHRTDS,6C4B41EE-54DB-45B2-B657-C0AF75483CB6,2023-09-26_06h05.40.232,WP_VExplicitOC_HL,2022.2.5,Win32,16.124091,NA,NA,NA,NA,NA,NA,NA,NA,NA,NA,NA,NA,NA,NA,NA,NA,NA,NA,NA,NA,NA,NA,NA,NA,NA,NA,NA,NA,NA,NA,NA,NA,NA,NA,NA,NA,NA,NA,NA,NA,NA,NA,NA,NA,NA,NA,NA,NA,NA,NA,NA,NA,NA,NA,NA,NA,NA,NA,NA
SUPAMT11912,3S96KQ6I9S39Y0S4SB8JPHE4KHRTDS,6C4B41EE-54DB-45B2-B657-C0AF75483CB6,2023-09-26_06h05.40.232,WP_VExplicitOC_HL,2022.2.5,Win32,16.124091,NA,NA,NA,NA,NA,NA,NA,NA,NA,NA,NA,NA,NA,NA,NA,NA,NA,NA,NA,NA,NA,NA,NA,NA,NA,NA,NA,NA,NA,NA,NA,NA,NA,NA,NA,NA,NA,NA,NA,NA,NA,NA,NA,NA,NA,NA,NA,NA,NA,NA,NA,NA,NA,NA,NA,NA,NA,NA,NA
SUPAMT11912,3S96KQ6I9S39Y0S4SB8JPHE4KHRTDS,6C4B41EE-54DB-45B2-B657-C0AF75483CB6,2023-09-26_06h05.40.232,WP_VExplicitOC_HL,2022.2.5,Win32,16.124091,NA,NA,NA,NA,NA,NA,NA,NA,NA,NA,NA,NA,NA,NA,NA,NA,NA,NA,NA,NA,NA,NA,NA,NA,NA,NA,NA,NA,NA,NA,NA,NA,NA,NA,NA,NA,NA,NA,NA,NA,NA,NA,NA,NA,NA,NA,NA,NA,NA,NA,NA,NA,NA,NA,NA,NA,NA,NA,NA
SUPAMT11912,3S96KQ6I9S39Y0S4SB8JPHE4KHRTDS,6C4B41EE-54DB-45B2-B657-C0AF75483CB6,2023-09-26_06h05.40.232,WP_VExplicitOC_HL,2022.2.5,Win32,16.124091,NA,NA,NA,NA,NA,NA,NA,NA,NA,NA,NA,96.61458333,3.435400001,0,0,0,0,1,rest (looking at a fixed cross),001.png,NA,NA,NA,NA,NA,NA,NA,NA,NA,NA,NA,NA,NA,NA,NA,NA,NA,NA,NA,NA,NA,NA,NA,NA,NA,NA,NA,NA,NA,NA,NA,NA,NA,NA,NA,NA,NA,NA,NA
SUPAMT11912,3S96KQ6I9S39Y0S4SB8JPHE4KHRTDS,6C4B41EE-54DB-45B2-B657-C0AF75483CB6,2023-09-26_06h05.40.232,WP_VExplicitOC_HL,2022.2.5,Win32,16.124091,NA,NA,NA,NA,NA,NA,NA,NA,NA,NA,NA,62.5,2.471,0,1,1,1,1,stand up,002.png,NA,NA,NA,NA,NA,NA,NA,NA,NA,NA,NA,NA,NA,NA,NA,NA,NA,NA,NA,NA,NA,NA,NA,NA,NA,NA,NA,NA,NA,NA,NA,NA,NA,NA,NA,NA,NA,NA,NA
SUPAMT11912,3S96KQ6I9S39Y0S4SB8JPHE4KHRTDS,6C4B41EE-54DB-45B2-B657-C0AF75483CB6,2023-09-26_06h05.40.232,WP_VExplicitOC_HL,2022.2.5,Win32,16.124091,NA,NA,NA,NA,NA,NA,NA,NA,NA,NA,NA,47.91666667,4.4563,0,2,2,2,1,stretch,003.png,NA,NA,NA,NA,NA,NA,NA,NA,NA,NA,NA,NA,NA,NA,NA,NA,NA,NA,NA,NA,NA,NA,NA,NA,NA,NA,NA,NA,NA,NA,NA,NA,NA,NA,NA,NA,NA,NA,NA
SUPAMT11912,3S96KQ6I9S39Y0S4SB8JPHE4KHRTDS,6C4B41EE-54DB-45B2-B657-C0AF75483CB6,2023-09-26_06h05.40.232,WP_VExplicitOC_HL,2022.2.5,Win32,16.124091,NA,NA,NA,NA,NA,NA,NA,NA,NA,NA,NA,57.29166667,3.033,0,3,3,3,1,make a drink,004.png,NA,NA,NA,NA,NA,NA,NA,NA,NA,NA,NA,NA,NA,NA,NA,NA,NA,NA,NA,NA,NA,NA,NA,NA,NA,NA,NA,NA,NA,NA,NA,NA,NA,NA,NA,NA,NA,NA,NA
SUPAMT11912,3S96KQ6I9S39Y0S4SB8JPHE4KHRTDS,6C4B41EE-54DB-45B2-B657-C0AF75483CB6,2023-09-26_06h05.40.232,WP_VExplicitOC_HL,2022.2.5,Win32,16.124091,NA,NA,NA,NA,NA,NA,NA,NA,NA,NA,NA,57.29166667,0.5843,0,4,4,4,1,scroll social media,005.png,NA,NA,NA,NA,NA,NA,NA,NA,NA,NA,NA,NA,NA,NA,NA,NA,NA,NA,NA,NA,NA,NA,NA,NA,NA,NA,NA,NA,NA,NA,NA,NA,NA,NA,NA,NA,NA,NA,NA
SUPAMT11912,3S96KQ6I9S39Y0S4SB8JPHE4KHRTDS,6C4B41EE-54DB-45B2-B657-C0AF75483CB6,2023-09-26_06h05.40.232,WP_VExplicitOC_HL,2022.2.5,Win32,16.124091,NA,NA,NA,NA,NA,NA,NA,NA,NA,NA,NA,69.79166667,1.2818,0,5,5,5,1,listen to music,006.png,NA,NA,NA,NA,NA,NA,NA,NA,NA,NA,NA,NA,NA,NA,NA,NA,NA,NA,NA,NA,NA,NA,NA,NA,NA,NA,NA,NA,NA,NA,NA,NA,NA,NA,NA,NA,NA,NA,NA
SUPAMT11912,3S96KQ6I9S39Y0S4SB8JPHE4KHRTDS,6C4B41EE-54DB-45B2-B657-C0AF75483CB6,2023-09-26_06h05.40.232,WP_VExplicitOC_HL,2022.2.5,Win32,16.124091,NA,NA,NA,NA,NA,NA,NA,NA,NA,NA,NA,81.51041667,0.978700001,0,6,6,6,1,daydream,007.png,NA,NA,NA,NA,NA,NA,NA,NA,NA,NA,NA,NA,NA,NA,NA,NA,NA,NA,NA,NA,NA,NA,NA,NA,NA,NA,NA,NA,NA,NA,NA,NA,NA,NA,NA,NA,NA,NA,NA
SUPAMT11912,3S96KQ6I9S39Y0S4SB8JPHE4KHRTDS,6C4B41EE-54DB-45B2-B657-C0AF75483CB6,2023-09-26_06h05.40.232,WP_VExplicitOC_HL,2022.2.5,Win32,16.124091,NA,NA,NA,NA,NA,NA,NA,NA,NA,NA,NA,84.63541667,1.0514,0,7,7,7,1,watch a short animation,008.png,NA,NA,NA,NA,NA,NA,NA,NA,NA,NA,NA,NA,NA,NA,NA,NA,NA,NA,NA,NA,NA,NA,NA,NA,NA,NA,NA,NA,NA,NA,NA,NA,NA,NA,NA,NA,NA,NA,NA
SUPAMT11912,3S96KQ6I9S39Y0S4SB8JPHE4KHRTDS,6C4B41EE-54DB-45B2-B657-C0AF75483CB6,2023-09-26_06h05.40.232,WP_VExplicitOC_HL,2022.2.5,Win32,16.124091,NA,NA,NA,NA,NA,NA,NA,NA,NA,NA,NA,65.625,1.037700001,0,8,8,8,1,read a novel,009.png,NA,NA,NA,NA,NA,NA,NA,NA,NA,NA,NA,NA,NA,NA,NA,NA,NA,NA,NA,NA,NA,NA,NA,NA,NA,NA,NA,NA,NA,NA,NA,NA,NA,NA,NA,NA,NA,NA,NA
SUPAMT11912,3S96KQ6I9S39Y0S4SB8JPHE4KHRTDS,6C4B41EE-54DB-45B2-B657-C0AF75483CB6,2023-09-26_06h05.40.232,WP_VExplicitOC_HL,2022.2.5,Win32,16.124091,NA,NA,NA,NA,NA,NA,NA,NA,NA,NA,NA,65.625,1.787,0,9,9,9,1,read the news,010.png,NA,NA,NA,NA,NA,NA,NA,NA,NA,NA,NA,NA,NA,NA,NA,NA,NA,NA,NA,NA,NA,NA,NA,NA,NA,NA,NA,NA,NA,NA,NA,NA,NA,NA,NA,NA,NA,NA,NA
SUPAMT11912,3S96KQ6I9S39Y0S4SB8JPHE4KHRTDS,6C4B41EE-54DB-45B2-B657-C0AF75483CB6,2023-09-26_06h05.40.232,WP_VExplicitOC_HL,2022.2.5,Win32,16.124091,NA,NA,NA,NA,NA,NA,NA,NA,NA,NA,NA,NA,NA,NA,NA,NA,NA,NA,NA,NA,NA,NA,NA,NA,NA,NA,NA,NA,NA,NA,NA,NA,NA,NA,NA,NA,NA,NA,NA,NA,NA,NA,NA,NA,NA,NA,NA,NA,NA,NA,NA,NA,NA,NA,NA,NA,NA,NA,NA
SUPAMT11912,3S96KQ6I9S39Y0S4SB8JPHE4KHRTDS,6C4B41EE-54DB-45B2-B657-C0AF75483CB6,2023-09-26_06h05.40.232,WP_VExplicitOC_HL,2022.2.5,Win32,16.124091,NA,NA,NA,NA,NA,NA,NA,NA,NA,NA,NA,NA,NA,NA,NA,NA,NA,NA,NA,NA,watch a short animation,NA,NA,NA,NA,NA,NA,NA,NA,NA,NA,NA,NA,NA,NA,NA,NA,NA,NA,NA,NA,NA,NA,NA,NA,NA,NA,NA,NA,NA,NA,NA,NA,NA,NA,NA,NA,NA,NA
SUPAMT11912,3S96KQ6I9S39Y0S4SB8JPHE4KHRTDS,6C4B41EE-54DB-45B2-B657-C0AF75483CB6,2023-09-26_06h05.40.232,WP_VExplicitOC_HL,2022.2.5,Win32,16.124091,96.35416667,4.5207,2.070099999,NA,NA,NA,NA,NA,happy,"unhappy, happy","less happy, more happy",NA,NA,NA,NA,NA,NA,NA,NA,NA,NA,0,0,0,0,1,NA,NA,NA,NA,NA,NA,NA,NA,NA,NA,NA,NA,NA,NA,NA,NA,NA,NA,NA,NA,NA,NA,NA,NA,NA,NA,NA,NA,NA,NA,NA,NA,NA
SUPAMT11912,3S96KQ6I9S39Y0S4SB8JPHE4KHRTDS,6C4B41EE-54DB-45B2-B657-C0AF75483CB6,2023-09-26_06h05.40.232,WP_VExplicitOC_HL,2022.2.5,Win32,16.124091,74.47916667,3.1854,2.009099999,NA,NA,NA,NA,NA,bored,"bored, not bored","more bored, less bored",NA,NA,NA,NA,NA,NA,NA,NA,NA,NA,0,1,1,2,1,NA,NA,NA,NA,NA,NA,NA,NA,NA,NA,NA,NA,NA,NA,NA,NA,NA,NA,NA,NA,NA,NA,NA,NA,NA,NA,NA,NA,NA,NA,NA,NA,NA
SUPAMT11912,3S96KQ6I9S39Y0S4SB8JPHE4KHRTDS,6C4B41EE-54DB-45B2-B657-C0AF75483CB6,2023-09-26_06h05.40.232,WP_VExplicitOC_HL,2022.2.5,Win32,16.124091,61.19791667,3.1405,2.0243,NA,NA,NA,NA,NA,frustrated,"frustrated, not frustrated","more frustrated, less frustrated",NA,NA,NA,NA,NA,NA,NA,NA,NA,NA,0,2,2,1,1,NA,NA,NA,NA,NA,NA,NA,NA,NA,NA,NA,NA,NA,NA,NA,NA,NA,NA,NA,NA,NA,NA,NA,NA,NA,NA,NA,NA,NA,NA,NA,NA,NA
SUPAMT11912,3S96KQ6I9S39Y0S4SB8JPHE4KHRTDS,6C4B41EE-54DB-45B2-B657-C0AF75483CB6,2023-09-26_06h05.40.232,WP_VExplicitOC_HL,2022.2.5,Win32,16.124091,NA,NA,NA,NA,NA,NA,NA,NA,NA,NA,NA,NA,NA,NA,NA,NA,NA,NA,NA,NA,NA,NA,NA,NA,NA,NA,NA,NA,NA,NA,NA,NA,NA,NA,NA,NA,NA,NA,NA,NA,NA,NA,NA,NA,NA,NA,NA,NA,NA,NA,NA,NA,NA,NA,NA,NA,NA,NA,NA
SUPAMT11912,3S96KQ6I9S39Y0S4SB8JPHE4KHRTDS,6C4B41EE-54DB-45B2-B657-C0AF75483CB6,2023-09-26_06h05.40.232,WP_VExplicitOC_HL,2022.2.5,Win32,16.124091,NA,NA,NA,NA,NA,NA,NA,NA,NA,NA,NA,NA,NA,NA,NA,NA,NA,NA,NA,NA,NA,NA,NA,NA,NA,NA,NA,NA,NA,NA,NA,NA,NA,NA,NA,NA,NA,NA,NA,NA,NA,NA,NA,NA,NA,NA,NA,NA,NA,NA,NA,NA,NA,NA,NA,NA,NA,NA,NA
SUPAMT11912,3S96KQ6I9S39Y0S4SB8JPHE4KHRTDS,6C4B41EE-54DB-45B2-B657-C0AF75483CB6,2023-09-26_06h05.40.232,WP_VExplicitOC_HL,2022.2.5,Win32,16.124091,47.39583333,3.2972,2.026200001,NA,NA,NA,NA,NA,bored,"bored, not bored","more bored, less bored",NA,NA,NA,NA,NA,NA,NA,NA,NA,NA,NA,NA,NA,NA,NA,0,0,0,2,1,NA,NA,NA,NA,NA,NA,NA,NA,NA,NA,NA,NA,NA,NA,NA,NA,NA,NA,NA,NA,NA,NA,NA,NA,NA,NA,NA,NA
SUPAMT11912,3S96KQ6I9S39Y0S4SB8JPHE4KHRTDS,6C4B41EE-54DB-45B2-B657-C0AF75483CB6,2023-09-26_06h05.40.232,WP_VExplicitOC_HL,2022.2.5,Win32,16.124091,98.95833333,4.3703,2.0457,NA,NA,NA,NA,NA,happy,"unhappy, happy","less happy, more happy",NA,NA,NA,NA,NA,NA,NA,NA,NA,NA,NA,NA,NA,NA,NA,0,1,1,0,1,NA,NA,NA,NA,NA,NA,NA,NA,NA,NA,NA,NA,NA,NA,NA,NA,NA,NA,NA,NA,NA,NA,NA,NA,NA,NA,NA,NA
SUPAMT11912,3S96KQ6I9S39Y0S4SB8JPHE4KHRTDS,6C4B41EE-54DB-45B2-B657-C0AF75483CB6,2023-09-26_06h05.40.232,WP_VExplicitOC_HL,2022.2.5,Win32,16.124091,69.27083333,2.9864,2.048299999,NA,NA,NA,NA,NA,frustrated,"frustrated, not frustrated","more frustrated, less frustrated",NA,NA,NA,NA,NA,NA,NA,NA,NA,NA,NA,NA,NA,NA,NA,0,2,2,1,1,NA,NA,NA,NA,NA,NA,NA,NA,NA,NA,NA,NA,NA,NA,NA,NA,NA,NA,NA,NA,NA,NA,NA,NA,NA,NA,NA,NA
SUPAMT11912,3S96KQ6I9S39Y0S4SB8JPHE4KHRTDS,6C4B41EE-54DB-45B2-B657-C0AF75483CB6,2023-09-26_06h05.40.232,WP_VExplicitOC_HL,2022.2.5,Win32,16.124091,NA,NA,NA,NA,NA,NA,NA,NA,NA,NA,NA,NA,NA,NA,NA,NA,NA,NA,NA,NA,NA,NA,NA,NA,NA,NA,NA,NA,NA,NA,NA,0,0,0,0,1,NA,NA,NA,NA,NA,NA,NA,NA,NA,NA,NA,NA,NA,NA,NA,NA,NA,NA,NA,NA,NA,NA,NA
SUPAMT11912,3S96KQ6I9S39Y0S4SB8JPHE4KHRTDS,6C4B41EE-54DB-45B2-B657-C0AF75483CB6,2023-09-26_06h05.40.232,WP_VExplicitOC_HL,2022.2.5,Win32,16.124091,54.42708333,4.7431,2.0735,NA,NA,NA,NA,NA,bored,"bored, not bored","more bored, less bored",NA,NA,NA,NA,NA,NA,NA,NA,NA,NA,NA,NA,NA,NA,NA,0,0,0,2,1,NA,NA,NA,NA,NA,NA,NA,NA,NA,NA,NA,NA,NA,NA,NA,NA,NA,NA,NA,NA,NA,NA,NA,NA,NA,NA,NA,NA
SUPAMT11912,3S96KQ6I9S39Y0S4SB8JPHE4KHRTDS,6C4B41EE-54DB-45B2-B657-C0AF75483CB6,2023-09-26_06h05.40.232,WP_VExplicitOC_HL,2022.2.5,Win32,16.124091,69.79166667,4.071099999,2.002599999,NA,NA,NA,NA,NA,frustrated,"frustrated, not frustrated","more frustrated, less frustrated",NA,NA,NA,NA,NA,NA,NA,NA,NA,NA,NA,NA,NA,NA,NA,0,1,1,1,1,NA,NA,NA,NA,NA,NA,NA,NA,NA,NA,NA,NA,NA,NA,NA,NA,NA,NA,NA,NA,NA,NA,NA,NA,NA,NA,NA,NA
SUPAMT11912,3S96KQ6I9S39Y0S4SB8JPHE4KHRTDS,6C4B41EE-54DB-45B2-B657-C0AF75483CB6,2023-09-26_06h05.40.232,WP_VExplicitOC_HL,2022.2.5,Win32,16.124091,96.09375,3.522299999,2.0072,NA,NA,NA,NA,NA,happy,"unhappy, happy","less happy, more happy",NA,NA,NA,NA,NA,NA,NA,NA,NA,NA,NA,NA,NA,NA,NA,0,2,2,0,1,NA,NA,NA,NA,NA,NA,NA,NA,NA,NA,NA,NA,NA,NA,NA,NA,NA,NA,NA,NA,NA,NA,NA,NA,NA,NA,NA,NA
SUPAMT11912,3S96KQ6I9S39Y0S4SB8JPHE4KHRTDS,6C4B41EE-54DB-45B2-B657-C0AF75483CB6,2023-09-26_06h05.40.232,WP_VExplicitOC_HL,2022.2.5,Win32,16.124091,NA,NA,NA,NA,NA,NA,NA,NA,NA,NA,NA,NA,NA,NA,NA,NA,NA,NA,NA,NA,NA,NA,NA,NA,NA,NA,NA,NA,NA,NA,NA,1,0,1,0,1,NA,NA,NA,NA,NA,NA,NA,NA,NA,NA,NA,NA,NA,NA,NA,NA,NA,NA,NA,NA,NA,NA,NA
SUPAMT11912,3S96KQ6I9S39Y0S4SB8JPHE4KHRTDS,6C4B41EE-54DB-45B2-B657-C0AF75483CB6,2023-09-26_06h05.40.232,WP_VExplicitOC_HL,2022.2.5,Win32,16.124091,95.05208333,4.2365,2.0662,NA,NA,NA,NA,NA,happy,"unhappy, happy","less happy, more happy",NA,NA,NA,NA,NA,NA,NA,NA,NA,NA,NA,NA,NA,NA,NA,0,0,0,0,1,NA,NA,NA,NA,NA,NA,NA,NA,NA,NA,NA,NA,NA,NA,NA,NA,NA,NA,NA,NA,NA,NA,NA,NA,NA,NA,NA,NA
SUPAMT11912,3S96KQ6I9S39Y0S4SB8JPHE4KHRTDS,6C4B41EE-54DB-45B2-B657-C0AF75483CB6,2023-09-26_06h05.40.232,WP_VExplicitOC_HL,2022.2.5,Win32,16.124091,78.38541667,4.0209,2.048700001,NA,NA,NA,NA,NA,bored,"bored, not bored","more bored, less bored",NA,NA,NA,NA,NA,NA,NA,NA,NA,NA,NA,NA,NA,NA,NA,0,1,1,2,1,NA,NA,NA,NA,NA,NA,NA,NA,NA,NA,NA,NA,NA,NA,NA,NA,NA,NA,NA,NA,NA,NA,NA,NA,NA,NA,NA,NA
SUPAMT11912,3S96KQ6I9S39Y0S4SB8JPHE4KHRTDS,6C4B41EE-54DB-45B2-B657-C0AF75483CB6,2023-09-26_06h05.40.232,WP_VExplicitOC_HL,2022.2.5,Win32,16.124091,63.02083333,3.4137,2.052400001,NA,NA,NA,NA,NA,frustrated,"frustrated, not frustrated","more frustrated, less frustrated",NA,NA,NA,NA,NA,NA,NA,NA,NA,NA,NA,NA,NA,NA,NA,0,2,2,1,1,NA,NA,NA,NA,NA,NA,NA,NA,NA,NA,NA,NA,NA,NA,NA,NA,NA,NA,NA,NA,NA,NA,NA,NA,NA,NA,NA,NA
SUPAMT11912,3S96KQ6I9S39Y0S4SB8JPHE4KHRTDS,6C4B41EE-54DB-45B2-B657-C0AF75483CB6,2023-09-26_06h05.40.232,WP_VExplicitOC_HL,2022.2.5,Win32,16.124091,NA,NA,NA,NA,NA,NA,NA,NA,NA,NA,NA,NA,NA,NA,NA,NA,NA,NA,NA,NA,NA,NA,NA,NA,NA,NA,NA,NA,NA,NA,NA,2,0,2,0,1,NA,NA,NA,NA,NA,NA,NA,NA,NA,NA,NA,NA,NA,NA,NA,NA,NA,NA,NA,NA,NA,NA,NA
SUPAMT11912,3S96KQ6I9S39Y0S4SB8JPHE4KHRTDS,6C4B41EE-54DB-45B2-B657-C0AF75483CB6,2023-09-26_06h05.40.232,WP_VExplicitOC_HL,2022.2.5,Win32,16.124091,65.625,3.6808,2.038700001,NA,NA,NA,NA,NA,frustrated,"frustrated, not frustrated","more frustrated, less frustrated",NA,NA,NA,NA,NA,NA,NA,NA,NA,NA,NA,NA,NA,NA,NA,0,0,0,1,1,NA,NA,NA,NA,NA,NA,NA,NA,NA,NA,NA,NA,NA,NA,NA,NA,NA,NA,NA,NA,NA,NA,NA,NA,NA,NA,NA,NA
SUPAMT11912,3S96KQ6I9S39Y0S4SB8JPHE4KHRTDS,6C4B41EE-54DB-45B2-B657-C0AF75483CB6,2023-09-26_06h05.40.232,WP_VExplicitOC_HL,2022.2.5,Win32,16.124091,73.17708333,3.1078,2.0306,NA,NA,NA,NA,NA,happy,"unhappy, happy","less happy, more happy",NA,NA,NA,NA,NA,NA,NA,NA,NA,NA,NA,NA,NA,NA,NA,0,1,1,0,1,NA,NA,NA,NA,NA,NA,NA,NA,NA,NA,NA,NA,NA,NA,NA,NA,NA,NA,NA,NA,NA,NA,NA,NA,NA,NA,NA,NA
SUPAMT11912,3S96KQ6I9S39Y0S4SB8JPHE4KHRTDS,6C4B41EE-54DB-45B2-B657-C0AF75483CB6,2023-09-26_06h05.40.232,WP_VExplicitOC_HL,2022.2.5,Win32,16.124091,92.96875,3.5122,2.0074,NA,NA,NA,NA,NA,bored,"bored, not bored","more bored, less bored",NA,NA,NA,NA,NA,NA,NA,NA,NA,NA,NA,NA,NA,NA,NA,0,2,2,2,1,NA,NA,NA,NA,NA,NA,NA,NA,NA,NA,NA,NA,NA,NA,NA,NA,NA,NA,NA,NA,NA,NA,NA,NA,NA,NA,NA,NA
SUPAMT11912,3S96KQ6I9S39Y0S4SB8JPHE4KHRTDS,6C4B41EE-54DB-45B2-B657-C0AF75483CB6,2023-09-26_06h05.40.232,WP_VExplicitOC_HL,2022.2.5,Win32,16.124091,NA,NA,NA,NA,NA,NA,NA,NA,NA,NA,NA,NA,NA,NA,NA,NA,NA,NA,NA,NA,NA,NA,NA,NA,NA,NA,NA,NA,NA,NA,NA,3,0,3,0,1,NA,NA,NA,NA,NA,NA,NA,NA,NA,NA,NA,NA,NA,NA,NA,NA,NA,NA,NA,NA,NA,NA,NA
SUPAMT11912,3S96KQ6I9S39Y0S4SB8JPHE4KHRTDS,6C4B41EE-54DB-45B2-B657-C0AF75483CB6,2023-09-26_06h05.40.232,WP_VExplicitOC_HL,2022.2.5,Win32,16.124091,70.83333333,3.772900001,2.0678,NA,NA,NA,NA,NA,happy,"unhappy, happy","less happy, more happy",NA,NA,NA,NA,NA,NA,NA,NA,NA,NA,NA,NA,NA,NA,NA,0,0,0,0,1,NA,NA,NA,NA,NA,NA,NA,NA,NA,NA,NA,NA,NA,NA,NA,NA,NA,NA,NA,NA,NA,NA,NA,NA,NA,NA,NA,NA
SUPAMT11912,3S96KQ6I9S39Y0S4SB8JPHE4KHRTDS,6C4B41EE-54DB-45B2-B657-C0AF75483CB6,2023-09-26_06h05.40.232,WP_VExplicitOC_HL,2022.2.5,Win32,16.124091,100,3.6216,2.0032,NA,NA,NA,NA,NA,bored,"bored, not bored","more bored, less bored",NA,NA,NA,NA,NA,NA,NA,NA,NA,NA,NA,NA,NA,NA,NA,0,1,1,2,1,NA,NA,NA,NA,NA,NA,NA,NA,NA,NA,NA,NA,NA,NA,NA,NA,NA,NA,NA,NA,NA,NA,NA,NA,NA,NA,NA,NA
SUPAMT11912,3S96KQ6I9S39Y0S4SB8JPHE4KHRTDS,6C4B41EE-54DB-45B2-B657-C0AF75483CB6,2023-09-26_06h05.40.232,WP_VExplicitOC_HL,2022.2.5,Win32,16.124091,83.59375,3.842599999,2.035400001,NA,NA,NA,NA,NA,frustrated,"frustrated, not frustrated","more frustrated, less frustrated",NA,NA,NA,NA,NA,NA,NA,NA,NA,NA,NA,NA,NA,NA,NA,0,2,2,1,1,NA,NA,NA,NA,NA,NA,NA,NA,NA,NA,NA,NA,NA,NA,NA,NA,NA,NA,NA,NA,NA,NA,NA,NA,NA,NA,NA,NA
SUPAMT11912,3S96KQ6I9S39Y0S4SB8JPHE4KHRTDS,6C4B41EE-54DB-45B2-B657-C0AF75483CB6,2023-09-26_06h05.40.232,WP_VExplicitOC_HL,2022.2.5,Win32,16.124091,NA,NA,NA,NA,NA,NA,NA,NA,NA,NA,NA,NA,NA,NA,NA,NA,NA,NA,NA,NA,NA,NA,NA,NA,NA,NA,NA,NA,NA,NA,NA,4,0,4,0,1,NA,NA,NA,NA,NA,NA,NA,NA,NA,NA,NA,NA,NA,NA,NA,NA,NA,NA,NA,NA,NA,NA,NA
SUPAMT11912,3S96KQ6I9S39Y0S4SB8JPHE4KHRTDS,6C4B41EE-54DB-45B2-B657-C0AF75483CB6,2023-09-26_06h05.40.232,WP_VExplicitOC_HL,2022.2.5,Win32,16.124091,100,4.0368,2.0395,NA,NA,NA,NA,NA,bored,"bored, not bored","more bored, less bored",NA,NA,NA,NA,NA,NA,NA,NA,NA,NA,NA,NA,NA,NA,NA,0,0,0,2,1,NA,NA,NA,NA,NA,NA,NA,NA,NA,NA,NA,NA,NA,NA,NA,NA,NA,NA,NA,NA,NA,NA,NA,NA,NA,NA,NA,NA
SUPAMT11912,3S96KQ6I9S39Y0S4SB8JPHE4KHRTDS,6C4B41EE-54DB-45B2-B657-C0AF75483CB6,2023-09-26_06h05.40.232,WP_VExplicitOC_HL,2022.2.5,Win32,16.124091,100,4.5026,2.024900001,NA,NA,NA,NA,NA,frustrated,"frustrated, not frustrated","more frustrated, less frustrated",NA,NA,NA,NA,NA,NA,NA,NA,NA,NA,NA,NA,NA,NA,NA,0,1,1,1,1,NA,NA,NA,NA,NA,NA,NA,NA,NA,NA,NA,NA,NA,NA,NA,NA,NA,NA,NA,NA,NA,NA,NA,NA,NA,NA,NA,NA
SUPAMT11912,3S96KQ6I9S39Y0S4SB8JPHE4KHRTDS,6C4B41EE-54DB-45B2-B657-C0AF75483CB6,2023-09-26_06h05.40.232,WP_VExplicitOC_HL,2022.2.5,Win32,16.124091,100,3.346400001,2.0763,NA,NA,NA,NA,NA,happy,"unhappy, happy","less happy, more happy",NA,NA,NA,NA,NA,NA,NA,NA,NA,NA,NA,NA,NA,NA,NA,0,2,2,0,1,NA,NA,NA,NA,NA,NA,NA,NA,NA,NA,NA,NA,NA,NA,NA,NA,NA,NA,NA,NA,NA,NA,NA,NA,NA,NA,NA,NA
SUPAMT11912,3S96KQ6I9S39Y0S4SB8JPHE4KHRTDS,6C4B41EE-54DB-45B2-B657-C0AF75483CB6,2023-09-26_06h05.40.232,WP_VExplicitOC_HL,2022.2.5,Win32,16.124091,NA,NA,NA,NA,NA,NA,NA,NA,NA,NA,NA,NA,NA,NA,NA,NA,NA,NA,NA,NA,NA,NA,NA,NA,NA,NA,NA,NA,NA,NA,NA,5,0,5,0,1,NA,NA,NA,NA,NA,NA,NA,NA,NA,NA,NA,NA,NA,NA,NA,NA,NA,NA,NA,NA,NA,NA,NA
SUPAMT11912,3S96KQ6I9S39Y0S4SB8JPHE4KHRTDS,6C4B41EE-54DB-45B2-B657-C0AF75483CB6,2023-09-26_06h05.40.232,WP_VExplicitOC_HL,2022.2.5,Win32,16.124091,100,5.8026,2.073299999,NA,NA,NA,NA,NA,bored,"bored, not bored","more bored, less bored",NA,NA,NA,NA,NA,NA,NA,NA,NA,NA,NA,NA,NA,NA,NA,0,0,0,2,1,NA,NA,NA,NA,NA,NA,NA,NA,NA,NA,NA,NA,NA,NA,NA,NA,NA,NA,NA,NA,NA,NA,NA,NA,NA,NA,NA,NA
SUPAMT11912,3S96KQ6I9S39Y0S4SB8JPHE4KHRTDS,6C4B41EE-54DB-45B2-B657-C0AF75483CB6,2023-09-26_06h05.40.232,WP_VExplicitOC_HL,2022.2.5,Win32,16.124091,100,3.4078,2.0665,NA,NA,NA,NA,NA,happy,"unhappy, happy","less happy, more happy",NA,NA,NA,NA,NA,NA,NA,NA,NA,NA,NA,NA,NA,NA,NA,0,1,1,0,1,NA,NA,NA,NA,NA,NA,NA,NA,NA,NA,NA,NA,NA,NA,NA,NA,NA,NA,NA,NA,NA,NA,NA,NA,NA,NA,NA,NA
SUPAMT11912,3S96KQ6I9S39Y0S4SB8JPHE4KHRTDS,6C4B41EE-54DB-45B2-B657-C0AF75483CB6,2023-09-26_06h05.40.232,WP_VExplicitOC_HL,2022.2.5,Win32,16.124091,100,3.5759,2.033900001,NA,NA,NA,NA,NA,frustrated,"frustrated, not frustrated","more frustrated, less frustrated",NA,NA,NA,NA,NA,NA,NA,NA,NA,NA,NA,NA,NA,NA,NA,0,2,2,1,1,NA,NA,NA,NA,NA,NA,NA,NA,NA,NA,NA,NA,NA,NA,NA,NA,NA,NA,NA,NA,NA,NA,NA,NA,NA,NA,NA,NA
SUPAMT11912,3S96KQ6I9S39Y0S4SB8JPHE4KHRTDS,6C4B41EE-54DB-45B2-B657-C0AF75483CB6,2023-09-26_06h05.40.232,WP_VExplicitOC_HL,2022.2.5,Win32,16.124091,NA,NA,NA,NA,NA,NA,NA,NA,NA,NA,NA,NA,NA,NA,NA,NA,NA,NA,NA,NA,NA,NA,NA,NA,NA,NA,NA,NA,NA,NA,NA,6,0,6,0,1,NA,NA,NA,NA,NA,NA,NA,NA,NA,NA,NA,NA,NA,NA,NA,NA,NA,NA,NA,NA,NA,NA,NA
SUPAMT11912,3S96KQ6I9S39Y0S4SB8JPHE4KHRTDS,6C4B41EE-54DB-45B2-B657-C0AF75483CB6,2023-09-26_06h05.40.232,WP_VExplicitOC_HL,2022.2.5,Win32,16.124091,100,3.768,2.038099999,NA,NA,NA,NA,NA,happy,"unhappy, happy","less happy, more happy",NA,NA,NA,NA,NA,NA,NA,NA,NA,NA,NA,NA,NA,NA,NA,0,0,0,0,1,NA,NA,NA,NA,NA,NA,NA,NA,NA,NA,NA,NA,NA,NA,NA,NA,NA,NA,NA,NA,NA,NA,NA,NA,NA,NA,NA,NA
SUPAMT11912,3S96KQ6I9S39Y0S4SB8JPHE4KHRTDS,6C4B41EE-54DB-45B2-B657-C0AF75483CB6,2023-09-26_06h05.40.232,WP_VExplicitOC_HL,2022.2.5,Win32,16.124091,100,3.9179,2.0589,NA,NA,NA,NA,NA,bored,"bored, not bored","more bored, less bored",NA,NA,NA,NA,NA,NA,NA,NA,NA,NA,NA,NA,NA,NA,NA,0,1,1,2,1,NA,NA,NA,NA,NA,NA,NA,NA,NA,NA,NA,NA,NA,NA,NA,NA,NA,NA,NA,NA,NA,NA,NA,NA,NA,NA,NA,NA
SUPAMT11912,3S96KQ6I9S39Y0S4SB8JPHE4KHRTDS,6C4B41EE-54DB-45B2-B657-C0AF75483CB6,2023-09-26_06h05.40.232,WP_VExplicitOC_HL,2022.2.5,Win32,16.124091,100,3.7764,2.0413,NA,NA,NA,NA,NA,frustrated,"frustrated, not frustrated","more frustrated, less frustrated",NA,NA,NA,NA,NA,NA,NA,NA,NA,NA,NA,NA,NA,NA,NA,0,2,2,1,1,NA,NA,NA,NA,NA,NA,NA,NA,NA,NA,NA,NA,NA,NA,NA,NA,NA,NA,NA,NA,NA,NA,NA,NA,NA,NA,NA,NA
SUPAMT11912,3S96KQ6I9S39Y0S4SB8JPHE4KHRTDS,6C4B41EE-54DB-45B2-B657-C0AF75483CB6,2023-09-26_06h05.40.232,WP_VExplicitOC_HL,2022.2.5,Win32,16.124091,NA,NA,NA,NA,NA,NA,NA,NA,NA,NA,NA,NA,NA,NA,NA,NA,NA,NA,NA,NA,NA,NA,NA,NA,NA,NA,NA,NA,NA,NA,NA,7,0,7,0,1,NA,NA,NA,NA,NA,NA,NA,NA,NA,NA,NA,NA,NA,NA,NA,NA,NA,NA,NA,NA,NA,NA,NA
SUPAMT11912,3S96KQ6I9S39Y0S4SB8JPHE4KHRTDS,6C4B41EE-54DB-45B2-B657-C0AF75483CB6,2023-09-26_06h05.40.232,WP_VExplicitOC_HL,2022.2.5,Win32,16.124091,100,4.021,2.0149,NA,NA,NA,NA,NA,frustrated,"frustrated, not frustrated","more frustrated, less frustrated",NA,NA,NA,NA,NA,NA,NA,NA,NA,NA,NA,NA,NA,NA,NA,0,0,0,1,1,NA,NA,NA,NA,NA,NA,NA,NA,NA,NA,NA,NA,NA,NA,NA,NA,NA,NA,NA,NA,NA,NA,NA,NA,NA,NA,NA,NA
SUPAMT11912,3S96KQ6I9S39Y0S4SB8JPHE4KHRTDS,6C4B41EE-54DB-45B2-B657-C0AF75483CB6,2023-09-26_06h05.40.232,WP_VExplicitOC_HL,2022.2.5,Win32,16.124091,100,3.6155,2.027,NA,NA,NA,NA,NA,happy,"unhappy, happy","less happy, more happy",NA,NA,NA,NA,NA,NA,NA,NA,NA,NA,NA,NA,NA,NA,NA,0,1,1,0,1,NA,NA,NA,NA,NA,NA,NA,NA,NA,NA,NA,NA,NA,NA,NA,NA,NA,NA,NA,NA,NA,NA,NA,NA,NA,NA,NA,NA
SUPAMT11912,3S96KQ6I9S39Y0S4SB8JPHE4KHRTDS,6C4B41EE-54DB-45B2-B657-C0AF75483CB6,2023-09-26_06h05.40.232,WP_VExplicitOC_HL,2022.2.5,Win32,16.124091,100,3.6779,2.0345,NA,NA,NA,NA,NA,bored,"bored, not bored","more bored, less bored",NA,NA,NA,NA,NA,NA,NA,NA,NA,NA,NA,NA,NA,NA,NA,0,2,2,2,1,NA,NA,NA,NA,NA,NA,NA,NA,NA,NA,NA,NA,NA,NA,NA,NA,NA,NA,NA,NA,NA,NA,NA,NA,NA,NA,NA,NA
SUPAMT11912,3S96KQ6I9S39Y0S4SB8JPHE4KHRTDS,6C4B41EE-54DB-45B2-B657-C0AF75483CB6,2023-09-26_06h05.40.232,WP_VExplicitOC_HL,2022.2.5,Win32,16.124091,NA,NA,NA,NA,NA,NA,NA,NA,NA,NA,NA,NA,NA,NA,NA,NA,NA,NA,NA,NA,NA,NA,NA,NA,NA,NA,NA,NA,NA,NA,NA,8,0,8,0,1,NA,NA,NA,NA,NA,NA,NA,NA,NA,NA,NA,NA,NA,NA,NA,NA,NA,NA,NA,NA,NA,NA,NA
SUPAMT11912,3S96KQ6I9S39Y0S4SB8JPHE4KHRTDS,6C4B41EE-54DB-45B2-B657-C0AF75483CB6,2023-09-26_06h05.40.232,WP_VExplicitOC_HL,2022.2.5,Win32,16.124091,100,3.4922,2.07,NA,NA,NA,NA,NA,bored,"bored, not bored","more bored, less bored",NA,NA,NA,NA,NA,NA,NA,NA,NA,NA,NA,NA,NA,NA,NA,0,0,0,2,1,NA,NA,NA,NA,NA,NA,NA,NA,NA,NA,NA,NA,NA,NA,NA,NA,NA,NA,NA,NA,NA,NA,NA,NA,NA,NA,NA,NA
SUPAMT11912,3S96KQ6I9S39Y0S4SB8JPHE4KHRTDS,6C4B41EE-54DB-45B2-B657-C0AF75483CB6,2023-09-26_06h05.40.232,WP_VExplicitOC_HL,2022.2.5,Win32,16.124091,100,3.284700001,2.067099999,NA,NA,NA,NA,NA,happy,"unhappy, happy","less happy, more happy",NA,NA,NA,NA,NA,NA,NA,NA,NA,NA,NA,NA,NA,NA,NA,0,1,1,0,1,NA,NA,NA,NA,NA,NA,NA,NA,NA,NA,NA,NA,NA,NA,NA,NA,NA,NA,NA,NA,NA,NA,NA,NA,NA,NA,NA,NA
SUPAMT11912,3S96KQ6I9S39Y0S4SB8JPHE4KHRTDS,6C4B41EE-54DB-45B2-B657-C0AF75483CB6,2023-09-26_06h05.40.232,WP_VExplicitOC_HL,2022.2.5,Win32,16.124091,64.84375,3.4036,2.045900001,NA,NA,NA,NA,NA,frustrated,"frustrated, not frustrated","more frustrated, less frustrated",NA,NA,NA,NA,NA,NA,NA,NA,NA,NA,NA,NA,NA,NA,NA,0,2,2,1,1,NA,NA,NA,NA,NA,NA,NA,NA,NA,NA,NA,NA,NA,NA,NA,NA,NA,NA,NA,NA,NA,NA,NA,NA,NA,NA,NA,NA
SUPAMT11912,3S96KQ6I9S39Y0S4SB8JPHE4KHRTDS,6C4B41EE-54DB-45B2-B657-C0AF75483CB6,2023-09-26_06h05.40.232,WP_VExplicitOC_HL,2022.2.5,Win32,16.124091,NA,NA,NA,NA,NA,NA,NA,NA,NA,NA,NA,NA,NA,NA,NA,NA,NA,NA,NA,NA,NA,NA,NA,NA,NA,NA,NA,NA,NA,NA,NA,9,0,9,0,1,NA,NA,NA,NA,NA,NA,NA,NA,NA,NA,NA,NA,NA,NA,NA,NA,NA,NA,NA,NA,NA,NA,NA
SUPAMT11912,3S96KQ6I9S39Y0S4SB8JPHE4KHRTDS,6C4B41EE-54DB-45B2-B657-C0AF75483CB6,2023-09-26_06h05.40.232,WP_VExplicitOC_HL,2022.2.5,Win32,16.124091,100,3.7775,2.0056,NA,NA,NA,NA,NA,bored,"bored, not bored","more bored, less bored",NA,NA,NA,NA,NA,NA,NA,NA,NA,NA,NA,NA,NA,NA,NA,0,0,0,2,1,NA,NA,NA,NA,NA,NA,NA,NA,NA,NA,NA,NA,NA,NA,NA,NA,NA,NA,NA,NA,NA,NA,NA,NA,NA,NA,NA,NA
SUPAMT11912,3S96KQ6I9S39Y0S4SB8JPHE4KHRTDS,6C4B41EE-54DB-45B2-B657-C0AF75483CB6,2023-09-26_06h05.40.232,WP_VExplicitOC_HL,2022.2.5,Win32,16.124091,100,3.5931,2.0105,NA,NA,NA,NA,NA,happy,"unhappy, happy","less happy, more happy",NA,NA,NA,NA,NA,NA,NA,NA,NA,NA,NA,NA,NA,NA,NA,0,1,1,0,1,NA,NA,NA,NA,NA,NA,NA,NA,NA,NA,NA,NA,NA,NA,NA,NA,NA,NA,NA,NA,NA,NA,NA,NA,NA,NA,NA,NA
SUPAMT11912,3S96KQ6I9S39Y0S4SB8JPHE4KHRTDS,6C4B41EE-54DB-45B2-B657-C0AF75483CB6,2023-09-26_06h05.40.232,WP_VExplicitOC_HL,2022.2.5,Win32,16.124091,100,4.149,2.0171,NA,NA,NA,NA,NA,frustrated,"frustrated, not frustrated","more frustrated, less frustrated",NA,NA,NA,NA,NA,NA,NA,NA,NA,NA,NA,NA,NA,NA,NA,0,2,2,1,1,NA,NA,NA,NA,NA,NA,NA,NA,NA,NA,NA,NA,NA,NA,NA,NA,NA,NA,NA,NA,NA,NA,NA,NA,NA,NA,NA,NA
SUPAMT11912,3S96KQ6I9S39Y0S4SB8JPHE4KHRTDS,6C4B41EE-54DB-45B2-B657-C0AF75483CB6,2023-09-26_06h05.40.232,WP_VExplicitOC_HL,2022.2.5,Win32,16.124091,NA,NA,NA,NA,NA,NA,NA,NA,NA,NA,NA,NA,NA,NA,NA,NA,NA,NA,NA,NA,NA,NA,NA,NA,NA,NA,NA,NA,NA,NA,NA,10,0,10,0,1,NA,NA,NA,NA,NA,NA,NA,NA,NA,NA,NA,NA,NA,NA,NA,NA,NA,NA,NA,NA,NA,NA,NA
SUPAMT11912,3S96KQ6I9S39Y0S4SB8JPHE4KHRTDS,6C4B41EE-54DB-45B2-B657-C0AF75483CB6,2023-09-26_06h05.40.232,WP_VExplicitOC_HL,2022.2.5,Win32,16.124091,100,3.8643,2.0208,NA,NA,NA,NA,NA,frustrated,"frustrated, not frustrated","more frustrated, less frustrated",NA,NA,NA,NA,NA,NA,NA,NA,NA,NA,NA,NA,NA,NA,NA,0,0,0,1,1,NA,NA,NA,NA,NA,NA,NA,NA,NA,NA,NA,NA,NA,NA,NA,NA,NA,NA,NA,NA,NA,NA,NA,NA,NA,NA,NA,NA
SUPAMT11912,3S96KQ6I9S39Y0S4SB8JPHE4KHRTDS,6C4B41EE-54DB-45B2-B657-C0AF75483CB6,2023-09-26_06h05.40.232,WP_VExplicitOC_HL,2022.2.5,Win32,16.124091,100,5.0807,2.001900001,NA,NA,NA,NA,NA,happy,"unhappy, happy","less happy, more happy",NA,NA,NA,NA,NA,NA,NA,NA,NA,NA,NA,NA,NA,NA,NA,0,1,1,0,1,NA,NA,NA,NA,NA,NA,NA,NA,NA,NA,NA,NA,NA,NA,NA,NA,NA,NA,NA,NA,NA,NA,NA,NA,NA,NA,NA,NA
SUPAMT11912,3S96KQ6I9S39Y0S4SB8JPHE4KHRTDS,6C4B41EE-54DB-45B2-B657-C0AF75483CB6,2023-09-26_06h05.40.232,WP_VExplicitOC_HL,2022.2.5,Win32,16.124091,100,3.6764,2.0173,NA,NA,NA,NA,NA,bored,"bored, not bored","more bored, less bored",NA,NA,NA,NA,NA,NA,NA,NA,NA,NA,NA,NA,NA,NA,NA,0,2,2,2,1,NA,NA,NA,NA,NA,NA,NA,NA,NA,NA,NA,NA,NA,NA,NA,NA,NA,NA,NA,NA,NA,NA,NA,NA,NA,NA,NA,NA
SUPAMT11912,3S96KQ6I9S39Y0S4SB8JPHE4KHRTDS,6C4B41EE-54DB-45B2-B657-C0AF75483CB6,2023-09-26_06h05.40.232,WP_VExplicitOC_HL,2022.2.5,Win32,16.124091,NA,NA,NA,NA,NA,NA,NA,NA,NA,NA,NA,NA,NA,NA,NA,NA,NA,NA,NA,NA,NA,NA,NA,NA,NA,NA,NA,NA,NA,NA,NA,11,0,11,0,1,NA,NA,NA,NA,NA,NA,NA,NA,NA,NA,NA,NA,NA,NA,NA,NA,NA,NA,NA,NA,NA,NA,NA
SUPAMT11912,3S96KQ6I9S39Y0S4SB8JPHE4KHRTDS,6C4B41EE-54DB-45B2-B657-C0AF75483CB6,2023-09-26_06h05.40.232,WP_VExplicitOC_HL,2022.2.5,Win32,16.124091,100,4.2089,2.0175,NA,NA,NA,NA,NA,frustrated,"frustrated, not frustrated","more frustrated, less frustrated",NA,NA,NA,NA,NA,NA,NA,NA,NA,NA,NA,NA,NA,NA,NA,0,0,0,1,1,NA,NA,NA,NA,NA,NA,NA,NA,NA,NA,NA,NA,NA,NA,NA,NA,NA,NA,NA,NA,NA,NA,NA,NA,NA,NA,NA,NA
SUPAMT11912,3S96KQ6I9S39Y0S4SB8JPHE4KHRTDS,6C4B41EE-54DB-45B2-B657-C0AF75483CB6,2023-09-26_06h05.40.232,WP_VExplicitOC_HL,2022.2.5,Win32,16.124091,97.13541667,4.762,2.004200001,NA,NA,NA,NA,NA,bored,"bored, not bored","more bored, less bored",NA,NA,NA,NA,NA,NA,NA,NA,NA,NA,NA,NA,NA,NA,NA,0,1,1,2,1,NA,NA,NA,NA,NA,NA,NA,NA,NA,NA,NA,NA,NA,NA,NA,NA,NA,NA,NA,NA,NA,NA,NA,NA,NA,NA,NA,NA
SUPAMT11912,3S96KQ6I9S39Y0S4SB8JPHE4KHRTDS,6C4B41EE-54DB-45B2-B657-C0AF75483CB6,2023-09-26_06h05.40.232,WP_VExplicitOC_HL,2022.2.5,Win32,16.124091,98.17708333,3.7572,2.0615,NA,NA,NA,NA,NA,happy,"unhappy, happy","less happy, more happy",NA,NA,NA,NA,NA,NA,NA,NA,NA,NA,NA,NA,NA,NA,NA,0,2,2,0,1,NA,NA,NA,NA,NA,NA,NA,NA,NA,NA,NA,NA,NA,NA,NA,NA,NA,NA,NA,NA,NA,NA,NA,NA,NA,NA,NA,NA
SUPAMT11912,3S96KQ6I9S39Y0S4SB8JPHE4KHRTDS,6C4B41EE-54DB-45B2-B657-C0AF75483CB6,2023-09-26_06h05.40.232,WP_VExplicitOC_HL,2022.2.5,Win32,16.124091,NA,NA,NA,NA,NA,NA,NA,NA,NA,NA,NA,NA,NA,NA,NA,NA,NA,NA,NA,NA,NA,NA,NA,NA,NA,NA,NA,NA,NA,NA,NA,12,0,12,0,1,NA,NA,NA,NA,NA,NA,NA,NA,NA,NA,NA,NA,NA,NA,NA,NA,NA,NA,NA,NA,NA,NA,NA
SUPAMT11912,3S96KQ6I9S39Y0S4SB8JPHE4KHRTDS,6C4B41EE-54DB-45B2-B657-C0AF75483CB6,2023-09-26_06h05.40.232,WP_VExplicitOC_HL,2022.2.5,Win32,16.124091,100,3.7449,2.012299999,NA,NA,NA,NA,NA,frustrated,"frustrated, not frustrated","more frustrated, less frustrated",NA,NA,NA,NA,NA,NA,NA,NA,NA,NA,NA,NA,NA,NA,NA,0,0,0,1,1,NA,NA,NA,NA,NA,NA,NA,NA,NA,NA,NA,NA,NA,NA,NA,NA,NA,NA,NA,NA,NA,NA,NA,NA,NA,NA,NA,NA
SUPAMT11912,3S96KQ6I9S39Y0S4SB8JPHE4KHRTDS,6C4B41EE-54DB-45B2-B657-C0AF75483CB6,2023-09-26_06h05.40.232,WP_VExplicitOC_HL,2022.2.5,Win32,16.124091,100,5.7027,2.0638,NA,NA,NA,NA,NA,happy,"unhappy, happy","less happy, more happy",NA,NA,NA,NA,NA,NA,NA,NA,NA,NA,NA,NA,NA,NA,NA,0,1,1,0,1,NA,NA,NA,NA,NA,NA,NA,NA,NA,NA,NA,NA,NA,NA,NA,NA,NA,NA,NA,NA,NA,NA,NA,NA,NA,NA,NA,NA
SUPAMT11912,3S96KQ6I9S39Y0S4SB8JPHE4KHRTDS,6C4B41EE-54DB-45B2-B657-C0AF75483CB6,2023-09-26_06h05.40.232,WP_VExplicitOC_HL,2022.2.5,Win32,16.124091,100,4.39,2.0172,NA,NA,NA,NA,NA,bored,"bored, not bored","more bored, less bored",NA,NA,NA,NA,NA,NA,NA,NA,NA,NA,NA,NA,NA,NA,NA,0,2,2,2,1,NA,NA,NA,NA,NA,NA,NA,NA,NA,NA,NA,NA,NA,NA,NA,NA,NA,NA,NA,NA,NA,NA,NA,NA,NA,NA,NA,NA
SUPAMT11912,3S96KQ6I9S39Y0S4SB8JPHE4KHRTDS,6C4B41EE-54DB-45B2-B657-C0AF75483CB6,2023-09-26_06h05.40.232,WP_VExplicitOC_HL,2022.2.5,Win32,16.124091,NA,NA,NA,NA,NA,NA,NA,NA,NA,NA,NA,NA,NA,NA,NA,NA,NA,NA,NA,NA,NA,NA,NA,NA,NA,NA,NA,NA,NA,NA,NA,13,0,13,0,1,NA,NA,NA,NA,NA,NA,NA,NA,NA,NA,NA,NA,NA,NA,NA,NA,NA,NA,NA,NA,NA,NA,NA
SUPAMT11912,3S96KQ6I9S39Y0S4SB8JPHE4KHRTDS,6C4B41EE-54DB-45B2-B657-C0AF75483CB6,2023-09-26_06h05.40.232,WP_VExplicitOC_HL,2022.2.5,Win32,16.124091,NA,NA,2.0706,NA,NA,NA,NA,NA,happy,"unhappy, happy","less happy, more happy",NA,NA,NA,NA,NA,NA,NA,NA,NA,NA,NA,NA,NA,NA,NA,0,0,0,0,1,NA,NA,NA,NA,NA,NA,NA,NA,NA,NA,NA,NA,NA,NA,NA,NA,NA,NA,NA,NA,NA,NA,NA,NA,NA,NA,NA,NA
SUPAMT11912,3S96KQ6I9S39Y0S4SB8JPHE4KHRTDS,6C4B41EE-54DB-45B2-B657-C0AF75483CB6,2023-09-26_06h05.40.232,WP_VExplicitOC_HL,2022.2.5,Win32,16.124091,100,3.7233,2.078,NA,NA,NA,NA,NA,bored,"bored, not bored","more bored, less bored",NA,NA,NA,NA,NA,NA,NA,NA,NA,NA,NA,NA,NA,NA,NA,0,1,1,2,1,NA,NA,NA,NA,NA,NA,NA,NA,NA,NA,NA,NA,NA,NA,NA,NA,NA,NA,NA,NA,NA,NA,NA,NA,NA,NA,NA,NA
SUPAMT11912,3S96KQ6I9S39Y0S4SB8JPHE4KHRTDS,6C4B41EE-54DB-45B2-B657-C0AF75483CB6,2023-09-26_06h05.40.232,WP_VExplicitOC_HL,2022.2.5,Win32,16.124091,100,4.1368,2.067400001,NA,NA,NA,NA,NA,frustrated,"frustrated, not frustrated","more frustrated, less frustrated",NA,NA,NA,NA,NA,NA,NA,NA,NA,NA,NA,NA,NA,NA,NA,0,2,2,1,1,NA,NA,NA,NA,NA,NA,NA,NA,NA,NA,NA,NA,NA,NA,NA,NA,NA,NA,NA,NA,NA,NA,NA,NA,NA,NA,NA,NA
SUPAMT11912,3S96KQ6I9S39Y0S4SB8JPHE4KHRTDS,6C4B41EE-54DB-45B2-B657-C0AF75483CB6,2023-09-26_06h05.40.232,WP_VExplicitOC_HL,2022.2.5,Win32,16.124091,NA,NA,NA,NA,NA,NA,NA,NA,NA,NA,NA,NA,NA,NA,NA,NA,NA,NA,NA,NA,NA,NA,NA,NA,NA,NA,NA,NA,NA,NA,NA,14,0,14,0,1,NA,NA,NA,NA,NA,NA,NA,NA,NA,NA,NA,NA,NA,NA,NA,NA,NA,NA,NA,NA,NA,NA,NA
SUPAMT11912,3S96KQ6I9S39Y0S4SB8JPHE4KHRTDS,6C4B41EE-54DB-45B2-B657-C0AF75483CB6,2023-09-26_06h05.40.232,WP_VExplicitOC_HL,2022.2.5,Win32,16.124091,NA,NA,NA,NA,NA,NA,NA,NA,NA,NA,NA,NA,NA,NA,NA,NA,NA,NA,NA,NA,NA,NA,NA,NA,NA,NA,NA,NA,NA,NA,NA,NA,NA,NA,NA,NA,NA,NA,NA,NA,NA,NA,NA,NA,NA,NA,NA,NA,NA,NA,NA,NA,NA,NA,NA,NA,NA,NA,NA
SUPAMT11912,3S96KQ6I9S39Y0S4SB8JPHE4KHRTDS,6C4B41EE-54DB-45B2-B657-C0AF75483CB6,2023-09-26_06h05.40.232,WP_VExplicitOC_HL,2022.2.5,Win32,16.124091,NA,NA,NA,NA,NA,NA,NA,NA,NA,NA,NA,NA,NA,NA,NA,NA,NA,NA,NA,NA,NA,NA,NA,NA,NA,NA,NA,NA,NA,NA,NA,NA,NA,NA,NA,NA,NA,NA,NA,NA,NA,NA,NA,NA,NA,NA,NA,NA,NA,NA,NA,NA,NA,NA,NA,NA,NA,NA,NA
SUPAMT11912,3S96KQ6I9S39Y0S4SB8JPHE4KHRTDS,6C4B41EE-54DB-45B2-B657-C0AF75483CB6,2023-09-26_06h05.40.232,WP_VExplicitOC_HL,2022.2.5,Win32,16.124091,NA,NA,NA,NA,NA,NA,NA,NA,NA,NA,NA,NA,NA,NA,NA,NA,NA,NA,rest (looking at a fixed cross),001.png,NA,NA,NA,NA,NA,NA,NA,NA,NA,NA,NA,NA,NA,NA,NA,NA,NA,NA,0,0,0,0,1,NA,NA,NA,NA,NA,NA,NA,NA,NA,NA,NA,NA,NA,NA,NA,NA
SUPAMT11912,3S96KQ6I9S39Y0S4SB8JPHE4KHRTDS,6C4B41EE-54DB-45B2-B657-C0AF75483CB6,2023-09-26_06h05.40.232,WP_VExplicitOC_HL,2022.2.5,Win32,16.124091,NA,NA,NA,NA,NA,NA,NA,NA,NA,NA,NA,NA,NA,NA,NA,NA,NA,NA,stand up,002.png,NA,NA,NA,NA,NA,NA,NA,NA,NA,NA,NA,NA,NA,NA,NA,NA,NA,NA,0,1,1,1,1,NA,NA,NA,NA,NA,NA,NA,NA,NA,NA,NA,NA,NA,NA,NA,NA
SUPAMT11912,3S96KQ6I9S39Y0S4SB8JPHE4KHRTDS,6C4B41EE-54DB-45B2-B657-C0AF75483CB6,2023-09-26_06h05.40.232,WP_VExplicitOC_HL,2022.2.5,Win32,16.124091,NA,NA,NA,NA,NA,NA,NA,NA,NA,NA,NA,NA,NA,NA,NA,NA,NA,NA,stretch,003.png,NA,NA,NA,NA,NA,NA,NA,NA,NA,NA,NA,NA,NA,NA,NA,NA,NA,NA,0,2,2,2,1,NA,NA,NA,NA,NA,NA,NA,NA,NA,NA,NA,NA,NA,NA,NA,NA
SUPAMT11912,3S96KQ6I9S39Y0S4SB8JPHE4KHRTDS,6C4B41EE-54DB-45B2-B657-C0AF75483CB6,2023-09-26_06h05.40.232,WP_VExplicitOC_HL,2022.2.5,Win32,16.124091,NA,NA,NA,NA,NA,NA,NA,NA,NA,NA,NA,NA,NA,NA,NA,NA,NA,NA,make a drink,004.png,NA,NA,NA,NA,NA,NA,NA,NA,NA,NA,NA,NA,NA,NA,NA,NA,95.57291667,1.107400001,0,3,3,3,1,NA,NA,NA,NA,NA,NA,NA,NA,NA,NA,NA,NA,NA,NA,NA,NA
SUPAMT11912,3S96KQ6I9S39Y0S4SB8JPHE4KHRTDS,6C4B41EE-54DB-45B2-B657-C0AF75483CB6,2023-09-26_06h05.40.232,WP_VExplicitOC_HL,2022.2.5,Win32,16.124091,NA,NA,NA,NA,NA,NA,NA,NA,NA,NA,NA,NA,NA,NA,NA,NA,NA,NA,scroll social media,005.png,NA,NA,NA,NA,NA,NA,NA,NA,NA,NA,NA,NA,NA,NA,NA,NA,50.52083333,0.9719,0,4,4,4,1,NA,NA,NA,NA,NA,NA,NA,NA,NA,NA,NA,NA,NA,NA,NA,NA
SUPAMT11912,3S96KQ6I9S39Y0S4SB8JPHE4KHRTDS,6C4B41EE-54DB-45B2-B657-C0AF75483CB6,2023-09-26_06h05.40.232,WP_VExplicitOC_HL,2022.2.5,Win32,16.124091,NA,NA,NA,NA,NA,NA,NA,NA,NA,NA,NA,NA,NA,NA,NA,NA,NA,NA,listen to music,006.png,NA,NA,NA,NA,NA,NA,NA,NA,NA,NA,NA,NA,NA,NA,NA,NA,47.65625,0.6179,0,5,5,5,1,NA,NA,NA,NA,NA,NA,NA,NA,NA,NA,NA,NA,NA,NA,NA,NA
SUPAMT11912,3S96KQ6I9S39Y0S4SB8JPHE4KHRTDS,6C4B41EE-54DB-45B2-B657-C0AF75483CB6,2023-09-26_06h05.40.232,WP_VExplicitOC_HL,2022.2.5,Win32,16.124091,NA,NA,NA,NA,NA,NA,NA,NA,NA,NA,NA,NA,NA,NA,NA,NA,NA,NA,daydream,007.png,NA,NA,NA,NA,NA,NA,NA,NA,NA,NA,NA,NA,NA,NA,NA,NA,76.30208333,0.905099999,0,6,6,6,1,NA,NA,NA,NA,NA,NA,NA,NA,NA,NA,NA,NA,NA,NA,NA,NA
SUPAMT11912,3S96KQ6I9S39Y0S4SB8JPHE4KHRTDS,6C4B41EE-54DB-45B2-B657-C0AF75483CB6,2023-09-26_06h05.40.232,WP_VExplicitOC_HL,2022.2.5,Win32,16.124091,NA,NA,NA,NA,NA,NA,NA,NA,NA,NA,NA,NA,NA,NA,NA,NA,NA,NA,watch a short animation,008.png,NA,NA,NA,NA,NA,NA,NA,NA,NA,NA,NA,NA,NA,NA,NA,NA,71.61458333,1.4706,0,7,7,7,1,NA,NA,NA,NA,NA,NA,NA,NA,NA,NA,NA,NA,NA,NA,NA,NA
SUPAMT11912,3S96KQ6I9S39Y0S4SB8JPHE4KHRTDS,6C4B41EE-54DB-45B2-B657-C0AF75483CB6,2023-09-26_06h05.40.232,WP_VExplicitOC_HL,2022.2.5,Win32,16.124091,NA,NA,NA,NA,NA,NA,NA,NA,NA,NA,NA,NA,NA,NA,NA,NA,NA,NA,read a novel,009.png,NA,NA,NA,NA,NA,NA,NA,NA,NA,NA,NA,NA,NA,NA,NA,NA,80.72916667,1.849,0,8,8,8,1,NA,NA,NA,NA,NA,NA,NA,NA,NA,NA,NA,NA,NA,NA,NA,NA
SUPAMT11912,3S96KQ6I9S39Y0S4SB8JPHE4KHRTDS,6C4B41EE-54DB-45B2-B657-C0AF75483CB6,2023-09-26_06h05.40.232,WP_VExplicitOC_HL,2022.2.5,Win32,16.124091,NA,NA,NA,NA,NA,NA,NA,NA,NA,NA,NA,NA,NA,NA,NA,NA,NA,NA,read the news,010.png,NA,NA,NA,NA,NA,NA,NA,NA,NA,NA,NA,NA,NA,NA,NA,NA,49.21875,4.574400001,0,9,9,9,1,NA,NA,NA,NA,NA,NA,NA,NA,NA,NA,NA,NA,NA,NA,NA,NA
SUPAMT11912,3S96KQ6I9S39Y0S4SB8JPHE4KHRTDS,6C4B41EE-54DB-45B2-B657-C0AF75483CB6,2023-09-26_06h05.40.232,WP_VExplicitOC_HL,2022.2.5,Win32,16.124091,NA,NA,NA,NA,NA,NA,NA,NA,NA,NA,NA,NA,NA,NA,NA,NA,NA,NA,NA,NA,NA,NA,NA,NA,NA,NA,NA,NA,NA,NA,NA,NA,NA,NA,NA,NA,NA,NA,NA,NA,NA,NA,NA,stretch,NA,NA,NA,NA,NA,NA,NA,NA,NA,NA,NA,NA,NA,NA,NA
SUPAMT11912,3S96KQ6I9S39Y0S4SB8JPHE4KHRTDS,6C4B41EE-54DB-45B2-B657-C0AF75483CB6,2023-09-26_06h05.40.232,WP_VExplicitOC_HL,2022.2.5,Win32,16.124091,100,3.8665,2.056599999,NA,NA,NA,NA,NA,happy,"unhappy, happy","less happy, more happy",NA,NA,NA,NA,NA,NA,NA,NA,NA,NA,NA,NA,NA,NA,NA,NA,NA,NA,NA,NA,NA,NA,NA,NA,NA,NA,NA,NA,NA,NA,NA,NA,NA,0,0,0,0,1,NA,NA,NA,NA,NA,NA,NA,NA,NA,NA
SUPAMT11912,3S96KQ6I9S39Y0S4SB8JPHE4KHRTDS,6C4B41EE-54DB-45B2-B657-C0AF75483CB6,2023-09-26_06h05.40.232,WP_VExplicitOC_HL,2022.2.5,Win32,16.124091,100,3.9833,2.0607,NA,NA,NA,NA,NA,bored,"bored, not bored","more bored, less bored",NA,NA,NA,NA,NA,NA,NA,NA,NA,NA,NA,NA,NA,NA,NA,NA,NA,NA,NA,NA,NA,NA,NA,NA,NA,NA,NA,NA,NA,NA,NA,NA,NA,0,1,1,2,1,NA,NA,NA,NA,NA,NA,NA,NA,NA,NA
SUPAMT11912,3S96KQ6I9S39Y0S4SB8JPHE4KHRTDS,6C4B41EE-54DB-45B2-B657-C0AF75483CB6,2023-09-26_06h05.40.232,WP_VExplicitOC_HL,2022.2.5,Win32,16.124091,85.15625,3.8728,2.0082,NA,NA,NA,NA,NA,frustrated,"frustrated, not frustrated","more frustrated, less frustrated",NA,NA,NA,NA,NA,NA,NA,NA,NA,NA,NA,NA,NA,NA,NA,NA,NA,NA,NA,NA,NA,NA,NA,NA,NA,NA,NA,NA,NA,NA,NA,NA,NA,0,2,2,1,1,NA,NA,NA,NA,NA,NA,NA,NA,NA,NA
SUPAMT11912,3S96KQ6I9S39Y0S4SB8JPHE4KHRTDS,6C4B41EE-54DB-45B2-B657-C0AF75483CB6,2023-09-26_06h05.40.232,WP_VExplicitOC_HL,2022.2.5,Win32,16.124091,NA,NA,NA,NA,NA,NA,NA,NA,NA,NA,NA,NA,NA,NA,NA,NA,NA,NA,NA,NA,NA,NA,NA,NA,NA,NA,NA,NA,NA,NA,NA,NA,NA,NA,NA,NA,NA,NA,NA,NA,NA,NA,NA,NA,NA,NA,NA,NA,NA,NA,NA,NA,NA,NA,NA,NA,NA,NA,NA
SUPAMT11912,3S96KQ6I9S39Y0S4SB8JPHE4KHRTDS,6C4B41EE-54DB-45B2-B657-C0AF75483CB6,2023-09-26_06h05.40.232,WP_VExplicitOC_HL,2022.2.5,Win32,16.124091,NA,NA,NA,NA,NA,NA,NA,NA,NA,NA,NA,NA,NA,NA,NA,NA,NA,NA,NA,NA,NA,NA,NA,NA,NA,NA,NA,NA,NA,NA,NA,NA,NA,NA,NA,NA,NA,NA,NA,NA,NA,NA,NA,NA,NA,NA,NA,NA,NA,NA,NA,NA,NA,NA,NA,NA,NA,NA,NA
SUPAMT11912,3S96KQ6I9S39Y0S4SB8JPHE4KHRTDS,6C4B41EE-54DB-45B2-B657-C0AF75483CB6,2023-09-26_06h05.40.232,WP_VExplicitOC_HL,2022.2.5,Win32,16.124091,100,3.6094,2.0672,NA,NA,NA,NA,NA,bored,"bored, not bored","more bored, less bored",NA,NA,NA,NA,NA,NA,NA,NA,NA,NA,NA,NA,NA,NA,NA,NA,NA,NA,NA,NA,NA,NA,NA,NA,NA,NA,NA,NA,NA,NA,NA,NA,NA,NA,NA,NA,NA,NA,0,0,0,2,1,NA,NA,NA,NA,NA
SUPAMT11912,3S96KQ6I9S39Y0S4SB8JPHE4KHRTDS,6C4B41EE-54DB-45B2-B657-C0AF75483CB6,2023-09-26_06h05.40.232,WP_VExplicitOC_HL,2022.2.5,Win32,16.124091,100,3.719599999,2.009599999,NA,NA,NA,NA,NA,frustrated,"frustrated, not frustrated","more frustrated, less frustrated",NA,NA,NA,NA,NA,NA,NA,NA,NA,NA,NA,NA,NA,NA,NA,NA,NA,NA,NA,NA,NA,NA,NA,NA,NA,NA,NA,NA,NA,NA,NA,NA,NA,NA,NA,NA,NA,NA,0,1,1,1,1,NA,NA,NA,NA,NA
SUPAMT11912,3S96KQ6I9S39Y0S4SB8JPHE4KHRTDS,6C4B41EE-54DB-45B2-B657-C0AF75483CB6,2023-09-26_06h05.40.232,WP_VExplicitOC_HL,2022.2.5,Win32,16.124091,100,3.7645,2.059900001,NA,NA,NA,NA,NA,happy,"unhappy, happy","less happy, more happy",NA,NA,NA,NA,NA,NA,NA,NA,NA,NA,NA,NA,NA,NA,NA,NA,NA,NA,NA,NA,NA,NA,NA,NA,NA,NA,NA,NA,NA,NA,NA,NA,NA,NA,NA,NA,NA,NA,0,2,2,0,1,NA,NA,NA,NA,NA
SUPAMT11912,3S96KQ6I9S39Y0S4SB8JPHE4KHRTDS,6C4B41EE-54DB-45B2-B657-C0AF75483CB6,2023-09-26_06h05.40.232,WP_VExplicitOC_HL,2022.2.5,Win32,16.124091,NA,NA,NA,NA,NA,NA,NA,NA,NA,NA,NA,NA,NA,NA,NA,NA,NA,NA,NA,NA,NA,NA,NA,NA,NA,NA,NA,NA,NA,NA,NA,NA,NA,NA,NA,NA,NA,NA,NA,NA,NA,NA,NA,NA,NA,NA,NA,NA,NA,NA,NA,NA,NA,NA,0,0,0,0,1
SUPAMT11912,3S96KQ6I9S39Y0S4SB8JPHE4KHRTDS,6C4B41EE-54DB-45B2-B657-C0AF75483CB6,2023-09-26_06h05.40.232,WP_VExplicitOC_HL,2022.2.5,Win32,16.124091,100,5.4162,2.0587,NA,NA,NA,NA,NA,bored,"bored, not bored","more bored, less bored",NA,NA,NA,NA,NA,NA,NA,NA,NA,NA,NA,NA,NA,NA,NA,NA,NA,NA,NA,NA,NA,NA,NA,NA,NA,NA,NA,NA,NA,NA,NA,NA,NA,NA,NA,NA,NA,NA,0,0,0,2,1,NA,NA,NA,NA,NA
SUPAMT11912,3S96KQ6I9S39Y0S4SB8JPHE4KHRTDS,6C4B41EE-54DB-45B2-B657-C0AF75483CB6,2023-09-26_06h05.40.232,WP_VExplicitOC_HL,2022.2.5,Win32,16.124091,100,5.216299999,2.0042,NA,NA,NA,NA,NA,frustrated,"frustrated, not frustrated","more frustrated, less frustrated",NA,NA,NA,NA,NA,NA,NA,NA,NA,NA,NA,NA,NA,NA,NA,NA,NA,NA,NA,NA,NA,NA,NA,NA,NA,NA,NA,NA,NA,NA,NA,NA,NA,NA,NA,NA,NA,NA,0,1,1,1,1,NA,NA,NA,NA,NA
SUPAMT11912,3S96KQ6I9S39Y0S4SB8JPHE4KHRTDS,6C4B41EE-54DB-45B2-B657-C0AF75483CB6,2023-09-26_06h05.40.232,WP_VExplicitOC_HL,2022.2.5,Win32,16.124091,93.75,4.995,2.007900001,NA,NA,NA,NA,NA,happy,"unhappy, happy","less happy, more happy",NA,NA,NA,NA,NA,NA,NA,NA,NA,NA,NA,NA,NA,NA,NA,NA,NA,NA,NA,NA,NA,NA,NA,NA,NA,NA,NA,NA,NA,NA,NA,NA,NA,NA,NA,NA,NA,NA,0,2,2,0,1,NA,NA,NA,NA,NA
SUPAMT11912,3S96KQ6I9S39Y0S4SB8JPHE4KHRTDS,6C4B41EE-54DB-45B2-B657-C0AF75483CB6,2023-09-26_06h05.40.232,WP_VExplicitOC_HL,2022.2.5,Win32,16.124091,NA,NA,NA,NA,NA,NA,NA,NA,NA,NA,NA,NA,NA,NA,NA,NA,NA,NA,NA,NA,NA,NA,NA,NA,NA,NA,NA,NA,NA,NA,NA,NA,NA,NA,NA,NA,NA,NA,NA,NA,NA,NA,NA,NA,NA,NA,NA,NA,NA,NA,NA,NA,NA,NA,1,0,1,0,1
SUPAMT11912,3S96KQ6I9S39Y0S4SB8JPHE4KHRTDS,6C4B41EE-54DB-45B2-B657-C0AF75483CB6,2023-09-26_06h05.40.232,WP_VExplicitOC_HL,2022.2.5,Win32,16.124091,100,3.4009,2.017599999,NA,NA,NA,NA,NA,frustrated,"frustrated, not frustrated","more frustrated, less frustrated",NA,NA,NA,NA,NA,NA,NA,NA,NA,NA,NA,NA,NA,NA,NA,NA,NA,NA,NA,NA,NA,NA,NA,NA,NA,NA,NA,NA,NA,NA,NA,NA,NA,NA,NA,NA,NA,NA,0,0,0,1,1,NA,NA,NA,NA,NA
SUPAMT11912,3S96KQ6I9S39Y0S4SB8JPHE4KHRTDS,6C4B41EE-54DB-45B2-B657-C0AF75483CB6,2023-09-26_06h05.40.232,WP_VExplicitOC_HL,2022.2.5,Win32,16.124091,99.21875,4.714099999,2.0679,NA,NA,NA,NA,NA,happy,"unhappy, happy","less happy, more happy",NA,NA,NA,NA,NA,NA,NA,NA,NA,NA,NA,NA,NA,NA,NA,NA,NA,NA,NA,NA,NA,NA,NA,NA,NA,NA,NA,NA,NA,NA,NA,NA,NA,NA,NA,NA,NA,NA,0,1,1,0,1,NA,NA,NA,NA,NA
SUPAMT11912,3S96KQ6I9S39Y0S4SB8JPHE4KHRTDS,6C4B41EE-54DB-45B2-B657-C0AF75483CB6,2023-09-26_06h05.40.232,WP_VExplicitOC_HL,2022.2.5,Win32,16.124091,100,4.295200001,2.0123,NA,NA,NA,NA,NA,bored,"bored, not bored","more bored, less bored",NA,NA,NA,NA,NA,NA,NA,NA,NA,NA,NA,NA,NA,NA,NA,NA,NA,NA,NA,NA,NA,NA,NA,NA,NA,NA,NA,NA,NA,NA,NA,NA,NA,NA,NA,NA,NA,NA,0,2,2,2,1,NA,NA,NA,NA,NA
SUPAMT11912,3S96KQ6I9S39Y0S4SB8JPHE4KHRTDS,6C4B41EE-54DB-45B2-B657-C0AF75483CB6,2023-09-26_06h05.40.232,WP_VExplicitOC_HL,2022.2.5,Win32,16.124091,NA,NA,NA,NA,NA,NA,NA,NA,NA,NA,NA,NA,NA,NA,NA,NA,NA,NA,NA,NA,NA,NA,NA,NA,NA,NA,NA,NA,NA,NA,NA,NA,NA,NA,NA,NA,NA,NA,NA,NA,NA,NA,NA,NA,NA,NA,NA,NA,NA,NA,NA,NA,NA,NA,2,0,2,0,1
SUPAMT11912,3S96KQ6I9S39Y0S4SB8JPHE4KHRTDS,6C4B41EE-54DB-45B2-B657-C0AF75483CB6,2023-09-26_06h05.40.232,WP_VExplicitOC_HL,2022.2.5,Win32,16.124091,100,4.9415,2.0548,NA,NA,NA,NA,NA,bored,"bored, not bored","more bored, less bored",NA,NA,NA,NA,NA,NA,NA,NA,NA,NA,NA,NA,NA,NA,NA,NA,NA,NA,NA,NA,NA,NA,NA,NA,NA,NA,NA,NA,NA,NA,NA,NA,NA,NA,NA,NA,NA,NA,0,0,0,2,1,NA,NA,NA,NA,NA
SUPAMT11912,3S96KQ6I9S39Y0S4SB8JPHE4KHRTDS,6C4B41EE-54DB-45B2-B657-C0AF75483CB6,2023-09-26_06h05.40.232,WP_VExplicitOC_HL,2022.2.5,Win32,16.124091,NA,NA,2.0467,NA,NA,NA,NA,NA,happy,"unhappy, happy","less happy, more happy",NA,NA,NA,NA,NA,NA,NA,NA,NA,NA,NA,NA,NA,NA,NA,NA,NA,NA,NA,NA,NA,NA,NA,NA,NA,NA,NA,NA,NA,NA,NA,NA,NA,NA,NA,NA,NA,NA,0,1,1,0,1,NA,NA,NA,NA,NA
SUPAMT11912,3S96KQ6I9S39Y0S4SB8JPHE4KHRTDS,6C4B41EE-54DB-45B2-B657-C0AF75483CB6,2023-09-26_06h05.40.232,WP_VExplicitOC_HL,2022.2.5,Win32,16.124091,100,5.350099999,2.0529,NA,NA,NA,NA,NA,frustrated,"frustrated, not frustrated","more frustrated, less frustrated",NA,NA,NA,NA,NA,NA,NA,NA,NA,NA,NA,NA,NA,NA,NA,NA,NA,NA,NA,NA,NA,NA,NA,NA,NA,NA,NA,NA,NA,NA,NA,NA,NA,NA,NA,NA,NA,NA,0,2,2,1,1,NA,NA,NA,NA,NA
SUPAMT11912,3S96KQ6I9S39Y0S4SB8JPHE4KHRTDS,6C4B41EE-54DB-45B2-B657-C0AF75483CB6,2023-09-26_06h05.40.232,WP_VExplicitOC_HL,2022.2.5,Win32,16.124091,NA,NA,NA,NA,NA,NA,NA,NA,NA,NA,NA,NA,NA,NA,NA,NA,NA,NA,NA,NA,NA,NA,NA,NA,NA,NA,NA,NA,NA,NA,NA,NA,NA,NA,NA,NA,NA,NA,NA,NA,NA,NA,NA,NA,NA,NA,NA,NA,NA,NA,NA,NA,NA,NA,3,0,3,0,1
SUPAMT11912,3S96KQ6I9S39Y0S4SB8JPHE4KHRTDS,6C4B41EE-54DB-45B2-B657-C0AF75483CB6,2023-09-26_06h05.40.232,WP_VExplicitOC_HL,2022.2.5,Win32,16.124091,100,6.3488,2.076,NA,NA,NA,NA,NA,frustrated,"frustrated, not frustrated","more frustrated, less frustrated",NA,NA,NA,NA,NA,NA,NA,NA,NA,NA,NA,NA,NA,NA,NA,NA,NA,NA,NA,NA,NA,NA,NA,NA,NA,NA,NA,NA,NA,NA,NA,NA,NA,NA,NA,NA,NA,NA,0,0,0,1,1,NA,NA,NA,NA,NA
SUPAMT11912,3S96KQ6I9S39Y0S4SB8JPHE4KHRTDS,6C4B41EE-54DB-45B2-B657-C0AF75483CB6,2023-09-26_06h05.40.232,WP_VExplicitOC_HL,2022.2.5,Win32,16.124091,100,3.793599999,2.0117,NA,NA,NA,NA,NA,happy,"unhappy, happy","less happy, more happy",NA,NA,NA,NA,NA,NA,NA,NA,NA,NA,NA,NA,NA,NA,NA,NA,NA,NA,NA,NA,NA,NA,NA,NA,NA,NA,NA,NA,NA,NA,NA,NA,NA,NA,NA,NA,NA,NA,0,1,1,0,1,NA,NA,NA,NA,NA
SUPAMT11912,3S96KQ6I9S39Y0S4SB8JPHE4KHRTDS,6C4B41EE-54DB-45B2-B657-C0AF75483CB6,2023-09-26_06h05.40.232,WP_VExplicitOC_HL,2022.2.5,Win32,16.124091,100,5.3705,2.0615,NA,NA,NA,NA,NA,bored,"bored, not bored","more bored, less bored",NA,NA,NA,NA,NA,NA,NA,NA,NA,NA,NA,NA,NA,NA,NA,NA,NA,NA,NA,NA,NA,NA,NA,NA,NA,NA,NA,NA,NA,NA,NA,NA,NA,NA,NA,NA,NA,NA,0,2,2,2,1,NA,NA,NA,NA,NA
SUPAMT11912,3S96KQ6I9S39Y0S4SB8JPHE4KHRTDS,6C4B41EE-54DB-45B2-B657-C0AF75483CB6,2023-09-26_06h05.40.232,WP_VExplicitOC_HL,2022.2.5,Win32,16.124091,NA,NA,NA,NA,NA,NA,NA,NA,NA,NA,NA,NA,NA,NA,NA,NA,NA,NA,NA,NA,NA,NA,NA,NA,NA,NA,NA,NA,NA,NA,NA,NA,NA,NA,NA,NA,NA,NA,NA,NA,NA,NA,NA,NA,NA,NA,NA,NA,NA,NA,NA,NA,NA,NA,4,0,4,0,1
SUPAMT11912,3S96KQ6I9S39Y0S4SB8JPHE4KHRTDS,6C4B41EE-54DB-45B2-B657-C0AF75483CB6,2023-09-26_06h05.40.232,WP_VExplicitOC_HL,2022.2.5,Win32,16.124091,100,3.9965,2.0735,NA,NA,NA,NA,NA,bored,"bored, not bored","more bored, less bored",NA,NA,NA,NA,NA,NA,NA,NA,NA,NA,NA,NA,NA,NA,NA,NA,NA,NA,NA,NA,NA,NA,NA,NA,NA,NA,NA,NA,NA,NA,NA,NA,NA,NA,NA,NA,NA,NA,0,0,0,2,1,NA,NA,NA,NA,NA
SUPAMT11912,3S96KQ6I9S39Y0S4SB8JPHE4KHRTDS,6C4B41EE-54DB-45B2-B657-C0AF75483CB6,2023-09-26_06h05.40.232,WP_VExplicitOC_HL,2022.2.5,Win32,16.124091,100,3.301200001,2.0529,NA,NA,NA,NA,NA,frustrated,"frustrated, not frustrated","more frustrated, less frustrated",NA,NA,NA,NA,NA,NA,NA,NA,NA,NA,NA,NA,NA,NA,NA,NA,NA,NA,NA,NA,NA,NA,NA,NA,NA,NA,NA,NA,NA,NA,NA,NA,NA,NA,NA,NA,NA,NA,0,1,1,1,1,NA,NA,NA,NA,NA
SUPAMT11912,3S96KQ6I9S39Y0S4SB8JPHE4KHRTDS,6C4B41EE-54DB-45B2-B657-C0AF75483CB6,2023-09-26_06h05.40.232,WP_VExplicitOC_HL,2022.2.5,Win32,16.124091,100,3.6457,2.009799999,NA,NA,NA,NA,NA,happy,"unhappy, happy","less happy, more happy",NA,NA,NA,NA,NA,NA,NA,NA,NA,NA,NA,NA,NA,NA,NA,NA,NA,NA,NA,NA,NA,NA,NA,NA,NA,NA,NA,NA,NA,NA,NA,NA,NA,NA,NA,NA,NA,NA,0,2,2,0,1,NA,NA,NA,NA,NA
SUPAMT11912,3S96KQ6I9S39Y0S4SB8JPHE4KHRTDS,6C4B41EE-54DB-45B2-B657-C0AF75483CB6,2023-09-26_06h05.40.232,WP_VExplicitOC_HL,2022.2.5,Win32,16.124091,NA,NA,NA,NA,NA,NA,NA,NA,NA,NA,NA,NA,NA,NA,NA,NA,NA,NA,NA,NA,NA,NA,NA,NA,NA,NA,NA,NA,NA,NA,NA,NA,NA,NA,NA,NA,NA,NA,NA,NA,NA,NA,NA,NA,NA,NA,NA,NA,NA,NA,NA,NA,NA,NA,5,0,5,0,1
SUPAMT11912,3S96KQ6I9S39Y0S4SB8JPHE4KHRTDS,6C4B41EE-54DB-45B2-B657-C0AF75483CB6,2023-09-26_06h05.40.232,WP_VExplicitOC_HL,2022.2.5,Win32,16.124091,100,4.4646,2.0754,NA,NA,NA,NA,NA,happy,"unhappy, happy","less happy, more happy",NA,NA,NA,NA,NA,NA,NA,NA,NA,NA,NA,NA,NA,NA,NA,NA,NA,NA,NA,NA,NA,NA,NA,NA,NA,NA,NA,NA,NA,NA,NA,NA,NA,NA,NA,NA,NA,NA,0,0,0,0,1,NA,NA,NA,NA,NA
SUPAMT11912,3S96KQ6I9S39Y0S4SB8JPHE4KHRTDS,6C4B41EE-54DB-45B2-B657-C0AF75483CB6,2023-09-26_06h05.40.232,WP_VExplicitOC_HL,2022.2.5,Win32,16.124091,100,3.7721,2.073,NA,NA,NA,NA,NA,frustrated,"frustrated, not frustrated","more frustrated, less frustrated",NA,NA,NA,NA,NA,NA,NA,NA,NA,NA,NA,NA,NA,NA,NA,NA,NA,NA,NA,NA,NA,NA,NA,NA,NA,NA,NA,NA,NA,NA,NA,NA,NA,NA,NA,NA,NA,NA,0,1,1,1,1,NA,NA,NA,NA,NA
SUPAMT11912,3S96KQ6I9S39Y0S4SB8JPHE4KHRTDS,6C4B41EE-54DB-45B2-B657-C0AF75483CB6,2023-09-26_06h05.40.232,WP_VExplicitOC_HL,2022.2.5,Win32,16.124091,100,3.7977,2.059099999,NA,NA,NA,NA,NA,bored,"bored, not bored","more bored, less bored",NA,NA,NA,NA,NA,NA,NA,NA,NA,NA,NA,NA,NA,NA,NA,NA,NA,NA,NA,NA,NA,NA,NA,NA,NA,NA,NA,NA,NA,NA,NA,NA,NA,NA,NA,NA,NA,NA,0,2,2,2,1,NA,NA,NA,NA,NA
SUPAMT11912,3S96KQ6I9S39Y0S4SB8JPHE4KHRTDS,6C4B41EE-54DB-45B2-B657-C0AF75483CB6,2023-09-26_06h05.40.232,WP_VExplicitOC_HL,2022.2.5,Win32,16.124091,NA,NA,NA,NA,NA,NA,NA,NA,NA,NA,NA,NA,NA,NA,NA,NA,NA,NA,NA,NA,NA,NA,NA,NA,NA,NA,NA,NA,NA,NA,NA,NA,NA,NA,NA,NA,NA,NA,NA,NA,NA,NA,NA,NA,NA,NA,NA,NA,NA,NA,NA,NA,NA,NA,6,0,6,0,1
SUPAMT11912,3S96KQ6I9S39Y0S4SB8JPHE4KHRTDS,6C4B41EE-54DB-45B2-B657-C0AF75483CB6,2023-09-26_06h05.40.232,WP_VExplicitOC_HL,2022.2.5,Win32,16.124091,100,7.3233,2.0665,NA,NA,NA,NA,NA,frustrated,"frustrated, not frustrated","more frustrated, less frustrated",NA,NA,NA,NA,NA,NA,NA,NA,NA,NA,NA,NA,NA,NA,NA,NA,NA,NA,NA,NA,NA,NA,NA,NA,NA,NA,NA,NA,NA,NA,NA,NA,NA,NA,NA,NA,NA,NA,0,0,0,1,1,NA,NA,NA,NA,NA
SUPAMT11912,3S96KQ6I9S39Y0S4SB8JPHE4KHRTDS,6C4B41EE-54DB-45B2-B657-C0AF75483CB6,2023-09-26_06h05.40.232,WP_VExplicitOC_HL,2022.2.5,Win32,16.124091,93.75,3.779700001,2.070700001,NA,NA,NA,NA,NA,bored,"bored, not bored","more bored, less bored",NA,NA,NA,NA,NA,NA,NA,NA,NA,NA,NA,NA,NA,NA,NA,NA,NA,NA,NA,NA,NA,NA,NA,NA,NA,NA,NA,NA,NA,NA,NA,NA,NA,NA,NA,NA,NA,NA,0,1,1,2,1,NA,NA,NA,NA,NA
SUPAMT11912,3S96KQ6I9S39Y0S4SB8JPHE4KHRTDS,6C4B41EE-54DB-45B2-B657-C0AF75483CB6,2023-09-26_06h05.40.232,WP_VExplicitOC_HL,2022.2.5,Win32,16.124091,100,3.464400001,2.0734,NA,NA,NA,NA,NA,happy,"unhappy, happy","less happy, more happy",NA,NA,NA,NA,NA,NA,NA,NA,NA,NA,NA,NA,NA,NA,NA,NA,NA,NA,NA,NA,NA,NA,NA,NA,NA,NA,NA,NA,NA,NA,NA,NA,NA,NA,NA,NA,NA,NA,0,2,2,0,1,NA,NA,NA,NA,NA
SUPAMT11912,3S96KQ6I9S39Y0S4SB8JPHE4KHRTDS,6C4B41EE-54DB-45B2-B657-C0AF75483CB6,2023-09-26_06h05.40.232,WP_VExplicitOC_HL,2022.2.5,Win32,16.124091,NA,NA,NA,NA,NA,NA,NA,NA,NA,NA,NA,NA,NA,NA,NA,NA,NA,NA,NA,NA,NA,NA,NA,NA,NA,NA,NA,NA,NA,NA,NA,NA,NA,NA,NA,NA,NA,NA,NA,NA,NA,NA,NA,NA,NA,NA,NA,NA,NA,NA,NA,NA,NA,NA,7,0,7,0,1
SUPAMT11912,3S96KQ6I9S39Y0S4SB8JPHE4KHRTDS,6C4B41EE-54DB-45B2-B657-C0AF75483CB6,2023-09-26_06h05.40.232,WP_VExplicitOC_HL,2022.2.5,Win32,16.124091,100,3.4531,2.0706,NA,NA,NA,NA,NA,frustrated,"frustrated, not frustrated","more frustrated, less frustrated",NA,NA,NA,NA,NA,NA,NA,NA,NA,NA,NA,NA,NA,NA,NA,NA,NA,NA,NA,NA,NA,NA,NA,NA,NA,NA,NA,NA,NA,NA,NA,NA,NA,NA,NA,NA,NA,NA,0,0,0,1,1,NA,NA,NA,NA,NA
SUPAMT11912,3S96KQ6I9S39Y0S4SB8JPHE4KHRTDS,6C4B41EE-54DB-45B2-B657-C0AF75483CB6,2023-09-26_06h05.40.232,WP_VExplicitOC_HL,2022.2.5,Win32,16.124091,100,5.510599999,2.0453,NA,NA,NA,NA,NA,happy,"unhappy, happy","less happy, more happy",NA,NA,NA,NA,NA,NA,NA,NA,NA,NA,NA,NA,NA,NA,NA,NA,NA,NA,NA,NA,NA,NA,NA,NA,NA,NA,NA,NA,NA,NA,NA,NA,NA,NA,NA,NA,NA,NA,0,1,1,0,1,NA,NA,NA,NA,NA
SUPAMT11912,3S96KQ6I9S39Y0S4SB8JPHE4KHRTDS,6C4B41EE-54DB-45B2-B657-C0AF75483CB6,2023-09-26_06h05.40.232,WP_VExplicitOC_HL,2022.2.5,Win32,16.124091,90.36458333,5.0382,2.057,NA,NA,NA,NA,NA,bored,"bored, not bored","more bored, less bored",NA,NA,NA,NA,NA,NA,NA,NA,NA,NA,NA,NA,NA,NA,NA,NA,NA,NA,NA,NA,NA,NA,NA,NA,NA,NA,NA,NA,NA,NA,NA,NA,NA,NA,NA,NA,NA,NA,0,2,2,2,1,NA,NA,NA,NA,NA
SUPAMT11912,3S96KQ6I9S39Y0S4SB8JPHE4KHRTDS,6C4B41EE-54DB-45B2-B657-C0AF75483CB6,2023-09-26_06h05.40.232,WP_VExplicitOC_HL,2022.2.5,Win32,16.124091,NA,NA,NA,NA,NA,NA,NA,NA,NA,NA,NA,NA,NA,NA,NA,NA,NA,NA,NA,NA,NA,NA,NA,NA,NA,NA,NA,NA,NA,NA,NA,NA,NA,NA,NA,NA,NA,NA,NA,NA,NA,NA,NA,NA,NA,NA,NA,NA,NA,NA,NA,NA,NA,NA,8,0,8,0,1
SUPAMT11912,3S96KQ6I9S39Y0S4SB8JPHE4KHRTDS,6C4B41EE-54DB-45B2-B657-C0AF75483CB6,2023-09-26_06h05.40.232,WP_VExplicitOC_HL,2022.2.5,Win32,16.124091,100,3.885099999,2.06,NA,NA,NA,NA,NA,frustrated,"frustrated, not frustrated","more frustrated, less frustrated",NA,NA,NA,NA,NA,NA,NA,NA,NA,NA,NA,NA,NA,NA,NA,NA,NA,NA,NA,NA,NA,NA,NA,NA,NA,NA,NA,NA,NA,NA,NA,NA,NA,NA,NA,NA,NA,NA,0,0,0,1,1,NA,NA,NA,NA,NA
SUPAMT11912,3S96KQ6I9S39Y0S4SB8JPHE4KHRTDS,6C4B41EE-54DB-45B2-B657-C0AF75483CB6,2023-09-26_06h05.40.232,WP_VExplicitOC_HL,2022.2.5,Win32,16.124091,100,6.1853,2.0766,NA,NA,NA,NA,NA,happy,"unhappy, happy","less happy, more happy",NA,NA,NA,NA,NA,NA,NA,NA,NA,NA,NA,NA,NA,NA,NA,NA,NA,NA,NA,NA,NA,NA,NA,NA,NA,NA,NA,NA,NA,NA,NA,NA,NA,NA,NA,NA,NA,NA,0,1,1,0,1,NA,NA,NA,NA,NA
SUPAMT11912,3S96KQ6I9S39Y0S4SB8JPHE4KHRTDS,6C4B41EE-54DB-45B2-B657-C0AF75483CB6,2023-09-26_06h05.40.232,WP_VExplicitOC_HL,2022.2.5,Win32,16.124091,100,3.3578,2.0149,NA,NA,NA,NA,NA,bored,"bored, not bored","more bored, less bored",NA,NA,NA,NA,NA,NA,NA,NA,NA,NA,NA,NA,NA,NA,NA,NA,NA,NA,NA,NA,NA,NA,NA,NA,NA,NA,NA,NA,NA,NA,NA,NA,NA,NA,NA,NA,NA,NA,0,2,2,2,1,NA,NA,NA,NA,NA
SUPAMT11912,3S96KQ6I9S39Y0S4SB8JPHE4KHRTDS,6C4B41EE-54DB-45B2-B657-C0AF75483CB6,2023-09-26_06h05.40.232,WP_VExplicitOC_HL,2022.2.5,Win32,16.124091,NA,NA,NA,NA,NA,NA,NA,NA,NA,NA,NA,NA,NA,NA,NA,NA,NA,NA,NA,NA,NA,NA,NA,NA,NA,NA,NA,NA,NA,NA,NA,NA,NA,NA,NA,NA,NA,NA,NA,NA,NA,NA,NA,NA,NA,NA,NA,NA,NA,NA,NA,NA,NA,NA,9,0,9,0,1
SUPAMT11912,3S96KQ6I9S39Y0S4SB8JPHE4KHRTDS,6C4B41EE-54DB-45B2-B657-C0AF75483CB6,2023-09-26_06h05.40.232,WP_VExplicitOC_HL,2022.2.5,Win32,16.124091,100,3.606700001,2.0263,NA,NA,NA,NA,NA,bored,"bored, not bored","more bored, less bored",NA,NA,NA,NA,NA,NA,NA,NA,NA,NA,NA,NA,NA,NA,NA,NA,NA,NA,NA,NA,NA,NA,NA,NA,NA,NA,NA,NA,NA,NA,NA,NA,NA,NA,NA,NA,NA,NA,0,0,0,2,1,NA,NA,NA,NA,NA
SUPAMT11912,3S96KQ6I9S39Y0S4SB8JPHE4KHRTDS,6C4B41EE-54DB-45B2-B657-C0AF75483CB6,2023-09-26_06h05.40.232,WP_VExplicitOC_HL,2022.2.5,Win32,16.124091,100,3.935400001,2.031400001,NA,NA,NA,NA,NA,frustrated,"frustrated, not frustrated","more frustrated, less frustrated",NA,NA,NA,NA,NA,NA,NA,NA,NA,NA,NA,NA,NA,NA,NA,NA,NA,NA,NA,NA,NA,NA,NA,NA,NA,NA,NA,NA,NA,NA,NA,NA,NA,NA,NA,NA,NA,NA,0,1,1,1,1,NA,NA,NA,NA,NA
SUPAMT11912,3S96KQ6I9S39Y0S4SB8JPHE4KHRTDS,6C4B41EE-54DB-45B2-B657-C0AF75483CB6,2023-09-26_06h05.40.232,WP_VExplicitOC_HL,2022.2.5,Win32,16.124091,81.77083333,4.1822,2.0182,NA,NA,NA,NA,NA,happy,"unhappy, happy","less happy, more happy",NA,NA,NA,NA,NA,NA,NA,NA,NA,NA,NA,NA,NA,NA,NA,NA,NA,NA,NA,NA,NA,NA,NA,NA,NA,NA,NA,NA,NA,NA,NA,NA,NA,NA,NA,NA,NA,NA,0,2,2,0,1,NA,NA,NA,NA,NA
SUPAMT11912,3S96KQ6I9S39Y0S4SB8JPHE4KHRTDS,6C4B41EE-54DB-45B2-B657-C0AF75483CB6,2023-09-26_06h05.40.232,WP_VExplicitOC_HL,2022.2.5,Win32,16.124091,NA,NA,NA,NA,NA,NA,NA,NA,NA,NA,NA,NA,NA,NA,NA,NA,NA,NA,NA,NA,NA,NA,NA,NA,NA,NA,NA,NA,NA,NA,NA,NA,NA,NA,NA,NA,NA,NA,NA,NA,NA,NA,NA,NA,NA,NA,NA,NA,NA,NA,NA,NA,NA,NA,10,0,10,0,1
SUPAMT11912,3S96KQ6I9S39Y0S4SB8JPHE4KHRTDS,6C4B41EE-54DB-45B2-B657-C0AF75483CB6,2023-09-26_06h05.40.232,WP_VExplicitOC_HL,2022.2.5,Win32,16.124091,100,7.409099999,2.046200001,NA,NA,NA,NA,NA,bored,"bored, not bored","more bored, less bored",NA,NA,NA,NA,NA,NA,NA,NA,NA,NA,NA,NA,NA,NA,NA,NA,NA,NA,NA,NA,NA,NA,NA,NA,NA,NA,NA,NA,NA,NA,NA,NA,NA,NA,NA,NA,NA,NA,0,0,0,2,1,NA,NA,NA,NA,NA
SUPAMT11912,3S96KQ6I9S39Y0S4SB8JPHE4KHRTDS,6C4B41EE-54DB-45B2-B657-C0AF75483CB6,2023-09-26_06h05.40.232,WP_VExplicitOC_HL,2022.2.5,Win32,16.124091,100,4.5673,2.025599999,NA,NA,NA,NA,NA,happy,"unhappy, happy","less happy, more happy",NA,NA,NA,NA,NA,NA,NA,NA,NA,NA,NA,NA,NA,NA,NA,NA,NA,NA,NA,NA,NA,NA,NA,NA,NA,NA,NA,NA,NA,NA,NA,NA,NA,NA,NA,NA,NA,NA,0,1,1,0,1,NA,NA,NA,NA,NA
SUPAMT11912,3S96KQ6I9S39Y0S4SB8JPHE4KHRTDS,6C4B41EE-54DB-45B2-B657-C0AF75483CB6,2023-09-26_06h05.40.232,WP_VExplicitOC_HL,2022.2.5,Win32,16.124091,100,3.503900001,2.0463,NA,NA,NA,NA,NA,frustrated,"frustrated, not frustrated","more frustrated, less frustrated",NA,NA,NA,NA,NA,NA,NA,NA,NA,NA,NA,NA,NA,NA,NA,NA,NA,NA,NA,NA,NA,NA,NA,NA,NA,NA,NA,NA,NA,NA,NA,NA,NA,NA,NA,NA,NA,NA,0,2,2,1,1,NA,NA,NA,NA,NA
SUPAMT11912,3S96KQ6I9S39Y0S4SB8JPHE4KHRTDS,6C4B41EE-54DB-45B2-B657-C0AF75483CB6,2023-09-26_06h05.40.232,WP_VExplicitOC_HL,2022.2.5,Win32,16.124091,NA,NA,NA,NA,NA,NA,NA,NA,NA,NA,NA,NA,NA,NA,NA,NA,NA,NA,NA,NA,NA,NA,NA,NA,NA,NA,NA,NA,NA,NA,NA,NA,NA,NA,NA,NA,NA,NA,NA,NA,NA,NA,NA,NA,NA,NA,NA,NA,NA,NA,NA,NA,NA,NA,11,0,11,0,1
SUPAMT11912,3S96KQ6I9S39Y0S4SB8JPHE4KHRTDS,6C4B41EE-54DB-45B2-B657-C0AF75483CB6,2023-09-26_06h05.40.232,WP_VExplicitOC_HL,2022.2.5,Win32,16.124091,100,6.8927,2.012599999,NA,NA,NA,NA,NA,bored,"bored, not bored","more bored, less bored",NA,NA,NA,NA,NA,NA,NA,NA,NA,NA,NA,NA,NA,NA,NA,NA,NA,NA,NA,NA,NA,NA,NA,NA,NA,NA,NA,NA,NA,NA,NA,NA,NA,NA,NA,NA,NA,NA,0,0,0,2,1,NA,NA,NA,NA,NA
SUPAMT11912,3S96KQ6I9S39Y0S4SB8JPHE4KHRTDS,6C4B41EE-54DB-45B2-B657-C0AF75483CB6,2023-09-26_06h05.40.232,WP_VExplicitOC_HL,2022.2.5,Win32,16.124091,100,3.674,2.0527,NA,NA,NA,NA,NA,happy,"unhappy, happy","less happy, more happy",NA,NA,NA,NA,NA,NA,NA,NA,NA,NA,NA,NA,NA,NA,NA,NA,NA,NA,NA,NA,NA,NA,NA,NA,NA,NA,NA,NA,NA,NA,NA,NA,NA,NA,NA,NA,NA,NA,0,1,1,0,1,NA,NA,NA,NA,NA
SUPAMT11912,3S96KQ6I9S39Y0S4SB8JPHE4KHRTDS,6C4B41EE-54DB-45B2-B657-C0AF75483CB6,2023-09-26_06h05.40.232,WP_VExplicitOC_HL,2022.2.5,Win32,16.124091,100,6.0471,2.0365,NA,NA,NA,NA,NA,frustrated,"frustrated, not frustrated","more frustrated, less frustrated",NA,NA,NA,NA,NA,NA,NA,NA,NA,NA,NA,NA,NA,NA,NA,NA,NA,NA,NA,NA,NA,NA,NA,NA,NA,NA,NA,NA,NA,NA,NA,NA,NA,NA,NA,NA,NA,NA,0,2,2,1,1,NA,NA,NA,NA,NA
SUPAMT11912,3S96KQ6I9S39Y0S4SB8JPHE4KHRTDS,6C4B41EE-54DB-45B2-B657-C0AF75483CB6,2023-09-26_06h05.40.232,WP_VExplicitOC_HL,2022.2.5,Win32,16.124091,NA,NA,NA,NA,NA,NA,NA,NA,NA,NA,NA,NA,NA,NA,NA,NA,NA,NA,NA,NA,NA,NA,NA,NA,NA,NA,NA,NA,NA,NA,NA,NA,NA,NA,NA,NA,NA,NA,NA,NA,NA,NA,NA,NA,NA,NA,NA,NA,NA,NA,NA,NA,NA,NA,12,0,12,0,1
SUPAMT11912,3S96KQ6I9S39Y0S4SB8JPHE4KHRTDS,6C4B41EE-54DB-45B2-B657-C0AF75483CB6,2023-09-26_06h05.40.232,WP_VExplicitOC_HL,2022.2.5,Win32,16.124091,100,5.0599,2.0379,NA,NA,NA,NA,NA,bored,"bored, not bored","more bored, less bored",NA,NA,NA,NA,NA,NA,NA,NA,NA,NA,NA,NA,NA,NA,NA,NA,NA,NA,NA,NA,NA,NA,NA,NA,NA,NA,NA,NA,NA,NA,NA,NA,NA,NA,NA,NA,NA,NA,0,0,0,2,1,NA,NA,NA,NA,NA
SUPAMT11912,3S96KQ6I9S39Y0S4SB8JPHE4KHRTDS,6C4B41EE-54DB-45B2-B657-C0AF75483CB6,2023-09-26_06h05.40.232,WP_VExplicitOC_HL,2022.2.5,Win32,16.124091,96.61458333,3.5439,2.067,NA,NA,NA,NA,NA,happy,"unhappy, happy","less happy, more happy",NA,NA,NA,NA,NA,NA,NA,NA,NA,NA,NA,NA,NA,NA,NA,NA,NA,NA,NA,NA,NA,NA,NA,NA,NA,NA,NA,NA,NA,NA,NA,NA,NA,NA,NA,NA,NA,NA,0,1,1,0,1,NA,NA,NA,NA,NA
SUPAMT11912,3S96KQ6I9S39Y0S4SB8JPHE4KHRTDS,6C4B41EE-54DB-45B2-B657-C0AF75483CB6,2023-09-26_06h05.40.232,WP_VExplicitOC_HL,2022.2.5,Win32,16.124091,100,3.2993,2.0397,NA,NA,NA,NA,NA,frustrated,"frustrated, not frustrated","more frustrated, less frustrated",NA,NA,NA,NA,NA,NA,NA,NA,NA,NA,NA,NA,NA,NA,NA,NA,NA,NA,NA,NA,NA,NA,NA,NA,NA,NA,NA,NA,NA,NA,NA,NA,NA,NA,NA,NA,NA,NA,0,2,2,1,1,NA,NA,NA,NA,NA
SUPAMT11912,3S96KQ6I9S39Y0S4SB8JPHE4KHRTDS,6C4B41EE-54DB-45B2-B657-C0AF75483CB6,2023-09-26_06h05.40.232,WP_VExplicitOC_HL,2022.2.5,Win32,16.124091,NA,NA,NA,NA,NA,NA,NA,NA,NA,NA,NA,NA,NA,NA,NA,NA,NA,NA,NA,NA,NA,NA,NA,NA,NA,NA,NA,NA,NA,NA,NA,NA,NA,NA,NA,NA,NA,NA,NA,NA,NA,NA,NA,NA,NA,NA,NA,NA,NA,NA,NA,NA,NA,NA,13,0,13,0,1
SUPAMT11912,3S96KQ6I9S39Y0S4SB8JPHE4KHRTDS,6C4B41EE-54DB-45B2-B657-C0AF75483CB6,2023-09-26_06h05.40.232,WP_VExplicitOC_HL,2022.2.5,Win32,16.124091,100,6.4481,2.045299999,NA,NA,NA,NA,NA,bored,"bored, not bored","more bored, less bored",NA,NA,NA,NA,NA,NA,NA,NA,NA,NA,NA,NA,NA,NA,NA,NA,NA,NA,NA,NA,NA,NA,NA,NA,NA,NA,NA,NA,NA,NA,NA,NA,NA,NA,NA,NA,NA,NA,0,0,0,2,1,NA,NA,NA,NA,NA
SUPAMT11912,3S96KQ6I9S39Y0S4SB8JPHE4KHRTDS,6C4B41EE-54DB-45B2-B657-C0AF75483CB6,2023-09-26_06h05.40.232,WP_VExplicitOC_HL,2022.2.5,Win32,16.124091,96.35416667,3.6004,2.0728,NA,NA,NA,NA,NA,frustrated,"frustrated, not frustrated","more frustrated, less frustrated",NA,NA,NA,NA,NA,NA,NA,NA,NA,NA,NA,NA,NA,NA,NA,NA,NA,NA,NA,NA,NA,NA,NA,NA,NA,NA,NA,NA,NA,NA,NA,NA,NA,NA,NA,NA,NA,NA,0,1,1,1,1,NA,NA,NA,NA,NA
SUPAMT11912,3S96KQ6I9S39Y0S4SB8JPHE4KHRTDS,6C4B41EE-54DB-45B2-B657-C0AF75483CB6,2023-09-26_06h05.40.232,WP_VExplicitOC_HL,2022.2.5,Win32,16.124091,100,3.5048,2.083099999,NA,NA,NA,NA,NA,happy,"unhappy, happy","less happy, more happy",NA,NA,NA,NA,NA,NA,NA,NA,NA,NA,NA,NA,NA,NA,NA,NA,NA,NA,NA,NA,NA,NA,NA,NA,NA,NA,NA,NA,NA,NA,NA,NA,NA,NA,NA,NA,NA,NA,0,2,2,0,1,NA,NA,NA,NA,NA
SUPAMT11912,3S96KQ6I9S39Y0S4SB8JPHE4KHRTDS,6C4B41EE-54DB-45B2-B657-C0AF75483CB6,2023-09-26_06h05.40.232,WP_VExplicitOC_HL,2022.2.5,Win32,16.124091,NA,NA,NA,NA,NA,NA,NA,NA,NA,NA,NA,NA,NA,NA,NA,NA,NA,NA,NA,NA,NA,NA,NA,NA,NA,NA,NA,NA,NA,NA,NA,NA,NA,NA,NA,NA,NA,NA,NA,NA,NA,NA,NA,NA,NA,NA,NA,NA,NA,NA,NA,NA,NA,NA,14,0,14,0,1
SUPAMT11912,3S96KQ6I9S39Y0S4SB8JPHE4KHRTDS,6C4B41EE-54DB-45B2-B657-C0AF75483CB6,2023-09-26_06h05.40.232,WP_VExplicitOC_HL,2022.2.5,Win32,16.124091,NA,NA,NA,NA,NA,NA,NA,NA,NA,NA,NA,NA,NA,NA,NA,NA,NA,NA,NA,NA,NA,NA,NA,NA,NA,NA,NA,NA,NA,NA,NA,NA,NA,NA,NA,NA,NA,NA,NA,NA,NA,NA,NA,NA,NA,NA,NA,NA,NA,NA,NA,NA,NA,NA,NA,NA,NA,NA,NA
