participant,session,completion,date,expName,psychopyVersion,OS,frameRate,rating_all.response,rating_all.rt,rating_all.tStart,rndRat1.thisRepN,rndRat1.thisTrialN,rndRat1.thisN,rndRat1.thisIndex,rndRat1.ran,Emo,Labs,Labs2,rating_alt.response,rating_alt.rt,AltC.thisRepN,AltC.thisTrialN,AltC.thisN,AltC.thisIndex,AltC.ran,alt_choices,pic_choices,BottomAlt_Choice,rndRat2.thisRepN,rndRat2.thisTrialN,rndRat2.thisN,rndRat2.thisIndex,rndRat2.ran,rndRat3.thisRepN,rndRat3.thisTrialN,rndRat3.thisN,rndRat3.thisIndex,rndRat3.ran,trials_FC_L.thisRepN,trials_FC_L.thisTrialN,trials_FC_L.thisN,trials_FC_L.thisIndex,trials_FC_L.ran,rating_alt_2.response,rating_alt_2.rt,AltC2.thisRepN,AltC2.thisTrialN,AltC2.thisN,AltC2.thisIndex,AltC2.ran,TopAlt_Choice,rndRat4.thisRepN,rndRat4.thisTrialN,rndRat4.thisN,rndRat4.thisIndex,rndRat4.ran,rndRat5.thisRepN,rndRat5.thisTrialN,rndRat5.thisN,rndRat5.thisIndex,rndRat5.ran,trials_FC_H.thisRepN,trials_FC_H.thisTrialN,trials_FC_H.thisN,trials_FC_H.thisIndex,trials_FC_H.ran
SUPAMT42249,NA,671A6C2B-6529-4CED-B343-ACA4588876E4,2023-09-26_12h33.12.343,WP_VExplicitOC_LH,2022.2.5,Win32,32.00102403,NA,NA,NA,NA,NA,NA,NA,NA,NA,NA,NA,NA,NA,NA,NA,NA,NA,NA,NA,NA,NA,NA,NA,NA,NA,NA,NA,NA,NA,NA,NA,NA,NA,NA,NA,NA,NA,NA,NA,NA,NA,NA,NA,NA,NA,NA,NA,NA,NA,NA,NA,NA,NA,NA,NA,NA,NA,NA,NA
SUPAMT42249,NA,671A6C2B-6529-4CED-B343-ACA4588876E4,2023-09-26_12h33.12.343,WP_VExplicitOC_LH,2022.2.5,Win32,32.00102403,NA,NA,NA,NA,NA,NA,NA,NA,NA,NA,NA,NA,NA,NA,NA,NA,NA,NA,NA,NA,NA,NA,NA,NA,NA,NA,NA,NA,NA,NA,NA,NA,NA,NA,NA,NA,NA,NA,NA,NA,NA,NA,NA,NA,NA,NA,NA,NA,NA,NA,NA,NA,NA,NA,NA,NA,NA,NA,NA
SUPAMT42249,NA,671A6C2B-6529-4CED-B343-ACA4588876E4,2023-09-26_12h33.12.343,WP_VExplicitOC_LH,2022.2.5,Win32,32.00102403,NA,NA,NA,NA,NA,NA,NA,NA,NA,NA,NA,NA,NA,NA,NA,NA,NA,NA,NA,NA,NA,NA,NA,NA,NA,NA,NA,NA,NA,NA,NA,NA,NA,NA,NA,NA,NA,NA,NA,NA,NA,NA,NA,NA,NA,NA,NA,NA,NA,NA,NA,NA,NA,NA,NA,NA,NA,NA,NA
SUPAMT42249,NA,671A6C2B-6529-4CED-B343-ACA4588876E4,2023-09-26_12h33.12.343,WP_VExplicitOC_LH,2022.2.5,Win32,32.00102403,48.6328125,3.5198,2.0533,0,0,0,2,1,bored,"bored, not bored","more bored, less bored",NA,NA,NA,NA,NA,NA,NA,NA,NA,NA,NA,NA,NA,NA,NA,NA,NA,NA,NA,NA,NA,NA,NA,NA,NA,NA,NA,NA,NA,NA,NA,NA,NA,NA,NA,NA,NA,NA,NA,NA,NA,NA,NA,NA,NA,NA,NA,NA
SUPAMT42249,NA,671A6C2B-6529-4CED-B343-ACA4588876E4,2023-09-26_12h33.12.343,WP_VExplicitOC_LH,2022.2.5,Win32,32.00102403,48.6328125,2.1989,2.0154,0,1,1,1,1,frustrated,"frustrated, not frustrated","more frustrated, less frustrated",NA,NA,NA,NA,NA,NA,NA,NA,NA,NA,NA,NA,NA,NA,NA,NA,NA,NA,NA,NA,NA,NA,NA,NA,NA,NA,NA,NA,NA,NA,NA,NA,NA,NA,NA,NA,NA,NA,NA,NA,NA,NA,NA,NA,NA,NA,NA,NA
SUPAMT42249,NA,671A6C2B-6529-4CED-B343-ACA4588876E4,2023-09-26_12h33.12.343,WP_VExplicitOC_LH,2022.2.5,Win32,32.00102403,48.6328125,2.1881,2.0004,0,2,2,0,1,happy,"unhappy, happy","less happy, more happy",NA,NA,NA,NA,NA,NA,NA,NA,NA,NA,NA,NA,NA,NA,NA,NA,NA,NA,NA,NA,NA,NA,NA,NA,NA,NA,NA,NA,NA,NA,NA,NA,NA,NA,NA,NA,NA,NA,NA,NA,NA,NA,NA,NA,NA,NA,NA,NA
SUPAMT42249,NA,671A6C2B-6529-4CED-B343-ACA4588876E4,2023-09-26_12h33.12.343,WP_VExplicitOC_LH,2022.2.5,Win32,32.00102403,NA,NA,NA,NA,NA,NA,NA,NA,NA,NA,NA,NA,NA,NA,NA,NA,NA,NA,NA,NA,NA,NA,NA,NA,NA,NA,NA,NA,NA,NA,NA,NA,NA,NA,NA,NA,NA,NA,NA,NA,NA,NA,NA,NA,NA,NA,NA,NA,NA,NA,NA,NA,NA,NA,NA,NA,NA,NA,NA
SUPAMT42249,NA,671A6C2B-6529-4CED-B343-ACA4588876E4,2023-09-26_12h33.12.343,WP_VExplicitOC_LH,2022.2.5,Win32,32.00102403,NA,NA,NA,NA,NA,NA,NA,NA,NA,NA,NA,NA,NA,NA,NA,NA,NA,NA,NA,NA,NA,NA,NA,NA,NA,NA,NA,NA,NA,NA,NA,NA,NA,NA,NA,NA,NA,NA,NA,NA,NA,NA,NA,NA,NA,NA,NA,NA,NA,NA,NA,NA,NA,NA,NA,NA,NA,NA,NA
SUPAMT42249,NA,671A6C2B-6529-4CED-B343-ACA4588876E4,2023-09-26_12h33.12.343,WP_VExplicitOC_LH,2022.2.5,Win32,32.00102403,NA,NA,NA,NA,NA,NA,NA,NA,NA,NA,NA,NA,NA,NA,NA,NA,NA,NA,NA,NA,NA,NA,NA,NA,NA,NA,NA,NA,NA,NA,NA,NA,NA,NA,NA,NA,NA,NA,NA,NA,NA,NA,NA,NA,NA,NA,NA,NA,NA,NA,NA,NA,NA,NA,NA,NA,NA,NA,NA
SUPAMT42249,NA,671A6C2B-6529-4CED-B343-ACA4588876E4,2023-09-26_12h33.12.343,WP_VExplicitOC_LH,2022.2.5,Win32,32.00102403,NA,NA,NA,NA,NA,NA,NA,NA,NA,NA,NA,NA,NA,NA,NA,NA,NA,NA,NA,NA,NA,NA,NA,NA,NA,NA,NA,NA,NA,NA,NA,NA,NA,NA,NA,NA,NA,NA,NA,NA,NA,NA,NA,NA,NA,NA,NA,NA,NA,NA,NA,NA,NA,NA,NA,NA,NA,NA,NA
SUPAMT42249,NA,671A6C2B-6529-4CED-B343-ACA4588876E4,2023-09-26_12h33.12.343,WP_VExplicitOC_LH,2022.2.5,Win32,32.00102403,NA,NA,NA,NA,NA,NA,NA,NA,NA,NA,NA,48.2421875,1.1809,0,0,0,0,1,rest (looking at a fixed cross),001.png,NA,NA,NA,NA,NA,NA,NA,NA,NA,NA,NA,NA,NA,NA,NA,NA,NA,NA,NA,NA,NA,NA,NA,NA,NA,NA,NA,NA,NA,NA,NA,NA,NA,NA,NA,NA,NA,NA,NA
SUPAMT42249,NA,671A6C2B-6529-4CED-B343-ACA4588876E4,2023-09-26_12h33.12.343,WP_VExplicitOC_LH,2022.2.5,Win32,32.00102403,NA,NA,NA,NA,NA,NA,NA,NA,NA,NA,NA,48.2421875,0.1819,0,1,1,1,1,stand up,002.png,NA,NA,NA,NA,NA,NA,NA,NA,NA,NA,NA,NA,NA,NA,NA,NA,NA,NA,NA,NA,NA,NA,NA,NA,NA,NA,NA,NA,NA,NA,NA,NA,NA,NA,NA,NA,NA,NA,NA
SUPAMT42249,NA,671A6C2B-6529-4CED-B343-ACA4588876E4,2023-09-26_12h33.12.343,WP_VExplicitOC_LH,2022.2.5,Win32,32.00102403,NA,NA,NA,NA,NA,NA,NA,NA,NA,NA,NA,48.2421875,0.1914,0,2,2,2,1,stretch,003.png,NA,NA,NA,NA,NA,NA,NA,NA,NA,NA,NA,NA,NA,NA,NA,NA,NA,NA,NA,NA,NA,NA,NA,NA,NA,NA,NA,NA,NA,NA,NA,NA,NA,NA,NA,NA,NA,NA,NA
SUPAMT42249,NA,671A6C2B-6529-4CED-B343-ACA4588876E4,2023-09-26_12h33.12.343,WP_VExplicitOC_LH,2022.2.5,Win32,32.00102403,NA,NA,NA,NA,NA,NA,NA,NA,NA,NA,NA,48.2421875,0.285,0,3,3,3,1,make a drink,004.png,NA,NA,NA,NA,NA,NA,NA,NA,NA,NA,NA,NA,NA,NA,NA,NA,NA,NA,NA,NA,NA,NA,NA,NA,NA,NA,NA,NA,NA,NA,NA,NA,NA,NA,NA,NA,NA,NA,NA
SUPAMT42249,NA,671A6C2B-6529-4CED-B343-ACA4588876E4,2023-09-26_12h33.12.343,WP_VExplicitOC_LH,2022.2.5,Win32,32.00102403,NA,NA,NA,NA,NA,NA,NA,NA,NA,NA,NA,48.2421875,0.1942,0,4,4,4,1,scroll social media,005.png,NA,NA,NA,NA,NA,NA,NA,NA,NA,NA,NA,NA,NA,NA,NA,NA,NA,NA,NA,NA,NA,NA,NA,NA,NA,NA,NA,NA,NA,NA,NA,NA,NA,NA,NA,NA,NA,NA,NA
SUPAMT42249,NA,671A6C2B-6529-4CED-B343-ACA4588876E4,2023-09-26_12h33.12.343,WP_VExplicitOC_LH,2022.2.5,Win32,32.00102403,NA,NA,NA,NA,NA,NA,NA,NA,NA,NA,NA,48.2421875,0.2025,0,5,5,5,1,listen to music,006.png,NA,NA,NA,NA,NA,NA,NA,NA,NA,NA,NA,NA,NA,NA,NA,NA,NA,NA,NA,NA,NA,NA,NA,NA,NA,NA,NA,NA,NA,NA,NA,NA,NA,NA,NA,NA,NA,NA,NA
SUPAMT42249,NA,671A6C2B-6529-4CED-B343-ACA4588876E4,2023-09-26_12h33.12.343,WP_VExplicitOC_LH,2022.2.5,Win32,32.00102403,NA,NA,NA,NA,NA,NA,NA,NA,NA,NA,NA,48.2421875,0.2546,0,6,6,6,1,daydream,007.png,NA,NA,NA,NA,NA,NA,NA,NA,NA,NA,NA,NA,NA,NA,NA,NA,NA,NA,NA,NA,NA,NA,NA,NA,NA,NA,NA,NA,NA,NA,NA,NA,NA,NA,NA,NA,NA,NA,NA
SUPAMT42249,NA,671A6C2B-6529-4CED-B343-ACA4588876E4,2023-09-26_12h33.12.343,WP_VExplicitOC_LH,2022.2.5,Win32,32.00102403,NA,NA,NA,NA,NA,NA,NA,NA,NA,NA,NA,48.2421875,0.2534,0,7,7,7,1,watch a short animation,008.png,NA,NA,NA,NA,NA,NA,NA,NA,NA,NA,NA,NA,NA,NA,NA,NA,NA,NA,NA,NA,NA,NA,NA,NA,NA,NA,NA,NA,NA,NA,NA,NA,NA,NA,NA,NA,NA,NA,NA
SUPAMT42249,NA,671A6C2B-6529-4CED-B343-ACA4588876E4,2023-09-26_12h33.12.343,WP_VExplicitOC_LH,2022.2.5,Win32,32.00102403,NA,NA,NA,NA,NA,NA,NA,NA,NA,NA,NA,48.2421875,0.1987,0,8,8,8,1,read a novel,009.png,NA,NA,NA,NA,NA,NA,NA,NA,NA,NA,NA,NA,NA,NA,NA,NA,NA,NA,NA,NA,NA,NA,NA,NA,NA,NA,NA,NA,NA,NA,NA,NA,NA,NA,NA,NA,NA,NA,NA
SUPAMT42249,NA,671A6C2B-6529-4CED-B343-ACA4588876E4,2023-09-26_12h33.12.343,WP_VExplicitOC_LH,2022.2.5,Win32,32.00102403,NA,NA,NA,NA,NA,NA,NA,NA,NA,NA,NA,48.2421875,0.2634,0,9,9,9,1,read the news,010.png,NA,NA,NA,NA,NA,NA,NA,NA,NA,NA,NA,NA,NA,NA,NA,NA,NA,NA,NA,NA,NA,NA,NA,NA,NA,NA,NA,NA,NA,NA,NA,NA,NA,NA,NA,NA,NA,NA,NA
SUPAMT42249,NA,671A6C2B-6529-4CED-B343-ACA4588876E4,2023-09-26_12h33.12.343,WP_VExplicitOC_LH,2022.2.5,Win32,32.00102403,NA,NA,NA,NA,NA,NA,NA,NA,NA,NA,NA,NA,NA,NA,NA,NA,NA,NA,NA,NA,NA,NA,NA,NA,NA,NA,NA,NA,NA,NA,NA,NA,NA,NA,NA,NA,NA,NA,NA,NA,NA,NA,NA,NA,NA,NA,NA,NA,NA,NA,NA,NA,NA,NA,NA,NA,NA,NA,NA
SUPAMT42249,NA,671A6C2B-6529-4CED-B343-ACA4588876E4,2023-09-26_12h33.12.343,WP_VExplicitOC_LH,2022.2.5,Win32,32.00102403,NA,NA,NA,NA,NA,NA,NA,NA,NA,NA,NA,NA,NA,NA,NA,NA,NA,NA,NA,NA,stand up,NA,NA,NA,NA,NA,NA,NA,NA,NA,NA,NA,NA,NA,NA,NA,NA,NA,NA,NA,NA,NA,NA,NA,NA,NA,NA,NA,NA,NA,NA,NA,NA,NA,NA,NA,NA,NA,NA
SUPAMT42249,NA,671A6C2B-6529-4CED-B343-ACA4588876E4,2023-09-26_12h33.12.343,WP_VExplicitOC_LH,2022.2.5,Win32,32.00102403,48.2421875,3.4329,2.0222,NA,NA,NA,NA,NA,frustrated,"frustrated, not frustrated","more frustrated, less frustrated",NA,NA,NA,NA,NA,NA,NA,NA,NA,NA,0,0,0,1,1,NA,NA,NA,NA,NA,NA,NA,NA,NA,NA,NA,NA,NA,NA,NA,NA,NA,NA,NA,NA,NA,NA,NA,NA,NA,NA,NA,NA,NA,NA,NA,NA,NA
SUPAMT42249,NA,671A6C2B-6529-4CED-B343-ACA4588876E4,2023-09-26_12h33.12.343,WP_VExplicitOC_LH,2022.2.5,Win32,32.00102403,47.8515625,2.1724,2.0463,NA,NA,NA,NA,NA,happy,"unhappy, happy","less happy, more happy",NA,NA,NA,NA,NA,NA,NA,NA,NA,NA,0,1,1,0,1,NA,NA,NA,NA,NA,NA,NA,NA,NA,NA,NA,NA,NA,NA,NA,NA,NA,NA,NA,NA,NA,NA,NA,NA,NA,NA,NA,NA,NA,NA,NA,NA,NA
SUPAMT42249,NA,671A6C2B-6529-4CED-B343-ACA4588876E4,2023-09-26_12h33.12.343,WP_VExplicitOC_LH,2022.2.5,Win32,32.00102403,47.8515625,2.4705,2.0186,NA,NA,NA,NA,NA,bored,"bored, not bored","more bored, less bored",NA,NA,NA,NA,NA,NA,NA,NA,NA,NA,0,2,2,2,1,NA,NA,NA,NA,NA,NA,NA,NA,NA,NA,NA,NA,NA,NA,NA,NA,NA,NA,NA,NA,NA,NA,NA,NA,NA,NA,NA,NA,NA,NA,NA,NA,NA
SUPAMT42249,NA,671A6C2B-6529-4CED-B343-ACA4588876E4,2023-09-26_12h33.12.343,WP_VExplicitOC_LH,2022.2.5,Win32,32.00102403,NA,NA,NA,NA,NA,NA,NA,NA,NA,NA,NA,NA,NA,NA,NA,NA,NA,NA,NA,NA,NA,NA,NA,NA,NA,NA,NA,NA,NA,NA,NA,NA,NA,NA,NA,NA,NA,NA,NA,NA,NA,NA,NA,NA,NA,NA,NA,NA,NA,NA,NA,NA,NA,NA,NA,NA,NA,NA,NA
SUPAMT42249,NA,671A6C2B-6529-4CED-B343-ACA4588876E4,2023-09-26_12h33.12.343,WP_VExplicitOC_LH,2022.2.5,Win32,32.00102403,NA,NA,NA,NA,NA,NA,NA,NA,NA,NA,NA,NA,NA,NA,NA,NA,NA,NA,NA,NA,NA,NA,NA,NA,NA,NA,NA,NA,NA,NA,NA,NA,NA,NA,NA,NA,NA,NA,NA,NA,NA,NA,NA,NA,NA,NA,NA,NA,NA,NA,NA,NA,NA,NA,NA,NA,NA,NA,NA
SUPAMT42249,NA,671A6C2B-6529-4CED-B343-ACA4588876E4,2023-09-26_12h33.12.343,WP_VExplicitOC_LH,2022.2.5,Win32,32.00102403,NA,NA,2.0308,NA,NA,NA,NA,NA,happy,"unhappy, happy","less happy, more happy",NA,NA,NA,NA,NA,NA,NA,NA,NA,NA,NA,NA,NA,NA,NA,0,0,0,0,1,NA,NA,NA,NA,NA,NA,NA,NA,NA,NA,NA,NA,NA,NA,NA,NA,NA,NA,NA,NA,NA,NA,NA,NA,NA,NA,NA,NA
SUPAMT42249,NA,671A6C2B-6529-4CED-B343-ACA4588876E4,2023-09-26_12h33.12.343,WP_VExplicitOC_LH,2022.2.5,Win32,32.00102403,53.90625,3.4229,2.002,NA,NA,NA,NA,NA,frustrated,"frustrated, not frustrated","more frustrated, less frustrated",NA,NA,NA,NA,NA,NA,NA,NA,NA,NA,NA,NA,NA,NA,NA,0,1,1,1,1,NA,NA,NA,NA,NA,NA,NA,NA,NA,NA,NA,NA,NA,NA,NA,NA,NA,NA,NA,NA,NA,NA,NA,NA,NA,NA,NA,NA
SUPAMT42249,NA,671A6C2B-6529-4CED-B343-ACA4588876E4,2023-09-26_12h33.12.343,WP_VExplicitOC_LH,2022.2.5,Win32,32.00102403,53.90625,2.1717,2.0446,NA,NA,NA,NA,NA,bored,"bored, not bored","more bored, less bored",NA,NA,NA,NA,NA,NA,NA,NA,NA,NA,NA,NA,NA,NA,NA,0,2,2,2,1,NA,NA,NA,NA,NA,NA,NA,NA,NA,NA,NA,NA,NA,NA,NA,NA,NA,NA,NA,NA,NA,NA,NA,NA,NA,NA,NA,NA
SUPAMT42249,NA,671A6C2B-6529-4CED-B343-ACA4588876E4,2023-09-26_12h33.12.343,WP_VExplicitOC_LH,2022.2.5,Win32,32.00102403,NA,NA,NA,NA,NA,NA,NA,NA,NA,NA,NA,NA,NA,NA,NA,NA,NA,NA,NA,NA,NA,NA,NA,NA,NA,NA,NA,NA,NA,NA,NA,0,0,0,0,1,NA,NA,NA,NA,NA,NA,NA,NA,NA,NA,NA,NA,NA,NA,NA,NA,NA,NA,NA,NA,NA,NA,NA
SUPAMT42249,NA,671A6C2B-6529-4CED-B343-ACA4588876E4,2023-09-26_12h33.12.343,WP_VExplicitOC_LH,2022.2.5,Win32,32.00102403,52.734375,3.3408,2.0411,NA,NA,NA,NA,NA,happy,"unhappy, happy","less happy, more happy",NA,NA,NA,NA,NA,NA,NA,NA,NA,NA,NA,NA,NA,NA,NA,0,0,0,0,1,NA,NA,NA,NA,NA,NA,NA,NA,NA,NA,NA,NA,NA,NA,NA,NA,NA,NA,NA,NA,NA,NA,NA,NA,NA,NA,NA,NA
SUPAMT42249,NA,671A6C2B-6529-4CED-B343-ACA4588876E4,2023-09-26_12h33.12.343,WP_VExplicitOC_LH,2022.2.5,Win32,32.00102403,52.734375,2.3137,2.0232,NA,NA,NA,NA,NA,bored,"bored, not bored","more bored, less bored",NA,NA,NA,NA,NA,NA,NA,NA,NA,NA,NA,NA,NA,NA,NA,0,1,1,2,1,NA,NA,NA,NA,NA,NA,NA,NA,NA,NA,NA,NA,NA,NA,NA,NA,NA,NA,NA,NA,NA,NA,NA,NA,NA,NA,NA,NA
SUPAMT42249,NA,671A6C2B-6529-4CED-B343-ACA4588876E4,2023-09-26_12h33.12.343,WP_VExplicitOC_LH,2022.2.5,Win32,32.00102403,52.734375,2.4234,2.0584,NA,NA,NA,NA,NA,frustrated,"frustrated, not frustrated","more frustrated, less frustrated",NA,NA,NA,NA,NA,NA,NA,NA,NA,NA,NA,NA,NA,NA,NA,0,2,2,1,1,NA,NA,NA,NA,NA,NA,NA,NA,NA,NA,NA,NA,NA,NA,NA,NA,NA,NA,NA,NA,NA,NA,NA,NA,NA,NA,NA,NA
SUPAMT42249,NA,671A6C2B-6529-4CED-B343-ACA4588876E4,2023-09-26_12h33.12.343,WP_VExplicitOC_LH,2022.2.5,Win32,32.00102403,NA,NA,NA,NA,NA,NA,NA,NA,NA,NA,NA,NA,NA,NA,NA,NA,NA,NA,NA,NA,NA,NA,NA,NA,NA,NA,NA,NA,NA,NA,NA,1,0,1,0,1,NA,NA,NA,NA,NA,NA,NA,NA,NA,NA,NA,NA,NA,NA,NA,NA,NA,NA,NA,NA,NA,NA,NA
SUPAMT42249,NA,671A6C2B-6529-4CED-B343-ACA4588876E4,2023-09-26_12h33.12.343,WP_VExplicitOC_LH,2022.2.5,Win32,32.00102403,48.4375,3.7741,2.0263,NA,NA,NA,NA,NA,frustrated,"frustrated, not frustrated","more frustrated, less frustrated",NA,NA,NA,NA,NA,NA,NA,NA,NA,NA,NA,NA,NA,NA,NA,0,0,0,1,1,NA,NA,NA,NA,NA,NA,NA,NA,NA,NA,NA,NA,NA,NA,NA,NA,NA,NA,NA,NA,NA,NA,NA,NA,NA,NA,NA,NA
SUPAMT42249,NA,671A6C2B-6529-4CED-B343-ACA4588876E4,2023-09-26_12h33.12.343,WP_VExplicitOC_LH,2022.2.5,Win32,32.00102403,48.4375,2.3132,2.0574,NA,NA,NA,NA,NA,happy,"unhappy, happy","less happy, more happy",NA,NA,NA,NA,NA,NA,NA,NA,NA,NA,NA,NA,NA,NA,NA,0,1,1,0,1,NA,NA,NA,NA,NA,NA,NA,NA,NA,NA,NA,NA,NA,NA,NA,NA,NA,NA,NA,NA,NA,NA,NA,NA,NA,NA,NA,NA
SUPAMT42249,NA,671A6C2B-6529-4CED-B343-ACA4588876E4,2023-09-26_12h33.12.343,WP_VExplicitOC_LH,2022.2.5,Win32,32.00102403,48.2421875,2.4841,2.0017,NA,NA,NA,NA,NA,bored,"bored, not bored","more bored, less bored",NA,NA,NA,NA,NA,NA,NA,NA,NA,NA,NA,NA,NA,NA,NA,0,2,2,2,1,NA,NA,NA,NA,NA,NA,NA,NA,NA,NA,NA,NA,NA,NA,NA,NA,NA,NA,NA,NA,NA,NA,NA,NA,NA,NA,NA,NA
SUPAMT42249,NA,671A6C2B-6529-4CED-B343-ACA4588876E4,2023-09-26_12h33.12.343,WP_VExplicitOC_LH,2022.2.5,Win32,32.00102403,NA,NA,NA,NA,NA,NA,NA,NA,NA,NA,NA,NA,NA,NA,NA,NA,NA,NA,NA,NA,NA,NA,NA,NA,NA,NA,NA,NA,NA,NA,NA,2,0,2,0,1,NA,NA,NA,NA,NA,NA,NA,NA,NA,NA,NA,NA,NA,NA,NA,NA,NA,NA,NA,NA,NA,NA,NA
SUPAMT42249,NA,671A6C2B-6529-4CED-B343-ACA4588876E4,2023-09-26_12h33.12.343,WP_VExplicitOC_LH,2022.2.5,Win32,32.00102403,47.8515625,3.1078,2.0165,NA,NA,NA,NA,NA,bored,"bored, not bored","more bored, less bored",NA,NA,NA,NA,NA,NA,NA,NA,NA,NA,NA,NA,NA,NA,NA,0,0,0,2,1,NA,NA,NA,NA,NA,NA,NA,NA,NA,NA,NA,NA,NA,NA,NA,NA,NA,NA,NA,NA,NA,NA,NA,NA,NA,NA,NA,NA
SUPAMT42249,NA,671A6C2B-6529-4CED-B343-ACA4588876E4,2023-09-26_12h33.12.343,WP_VExplicitOC_LH,2022.2.5,Win32,32.00102403,48.2421875,3.2648,2.0029,NA,NA,NA,NA,NA,frustrated,"frustrated, not frustrated","more frustrated, less frustrated",NA,NA,NA,NA,NA,NA,NA,NA,NA,NA,NA,NA,NA,NA,NA,0,1,1,1,1,NA,NA,NA,NA,NA,NA,NA,NA,NA,NA,NA,NA,NA,NA,NA,NA,NA,NA,NA,NA,NA,NA,NA,NA,NA,NA,NA,NA
SUPAMT42249,NA,671A6C2B-6529-4CED-B343-ACA4588876E4,2023-09-26_12h33.12.343,WP_VExplicitOC_LH,2022.2.5,Win32,32.00102403,48.2421875,2.1858,2.0603,NA,NA,NA,NA,NA,happy,"unhappy, happy","less happy, more happy",NA,NA,NA,NA,NA,NA,NA,NA,NA,NA,NA,NA,NA,NA,NA,0,2,2,0,1,NA,NA,NA,NA,NA,NA,NA,NA,NA,NA,NA,NA,NA,NA,NA,NA,NA,NA,NA,NA,NA,NA,NA,NA,NA,NA,NA,NA
SUPAMT42249,NA,671A6C2B-6529-4CED-B343-ACA4588876E4,2023-09-26_12h33.12.343,WP_VExplicitOC_LH,2022.2.5,Win32,32.00102403,NA,NA,NA,NA,NA,NA,NA,NA,NA,NA,NA,NA,NA,NA,NA,NA,NA,NA,NA,NA,NA,NA,NA,NA,NA,NA,NA,NA,NA,NA,NA,3,0,3,0,1,NA,NA,NA,NA,NA,NA,NA,NA,NA,NA,NA,NA,NA,NA,NA,NA,NA,NA,NA,NA,NA,NA,NA
SUPAMT42249,NA,671A6C2B-6529-4CED-B343-ACA4588876E4,2023-09-26_12h33.12.343,WP_VExplicitOC_LH,2022.2.5,Win32,32.00102403,55.078125,3.436,2.0558,NA,NA,NA,NA,NA,happy,"unhappy, happy","less happy, more happy",NA,NA,NA,NA,NA,NA,NA,NA,NA,NA,NA,NA,NA,NA,NA,0,0,0,0,1,NA,NA,NA,NA,NA,NA,NA,NA,NA,NA,NA,NA,NA,NA,NA,NA,NA,NA,NA,NA,NA,NA,NA,NA,NA,NA,NA,NA
SUPAMT42249,NA,671A6C2B-6529-4CED-B343-ACA4588876E4,2023-09-26_12h33.12.343,WP_VExplicitOC_LH,2022.2.5,Win32,32.00102403,55.078125,2.2372,2.0513,NA,NA,NA,NA,NA,frustrated,"frustrated, not frustrated","more frustrated, less frustrated",NA,NA,NA,NA,NA,NA,NA,NA,NA,NA,NA,NA,NA,NA,NA,0,1,1,1,1,NA,NA,NA,NA,NA,NA,NA,NA,NA,NA,NA,NA,NA,NA,NA,NA,NA,NA,NA,NA,NA,NA,NA,NA,NA,NA,NA,NA
SUPAMT42249,NA,671A6C2B-6529-4CED-B343-ACA4588876E4,2023-09-26_12h33.12.343,WP_VExplicitOC_LH,2022.2.5,Win32,32.00102403,55.078125,2.6524,2.0514,NA,NA,NA,NA,NA,bored,"bored, not bored","more bored, less bored",NA,NA,NA,NA,NA,NA,NA,NA,NA,NA,NA,NA,NA,NA,NA,0,2,2,2,1,NA,NA,NA,NA,NA,NA,NA,NA,NA,NA,NA,NA,NA,NA,NA,NA,NA,NA,NA,NA,NA,NA,NA,NA,NA,NA,NA,NA
SUPAMT42249,NA,671A6C2B-6529-4CED-B343-ACA4588876E4,2023-09-26_12h33.12.343,WP_VExplicitOC_LH,2022.2.5,Win32,32.00102403,NA,NA,NA,NA,NA,NA,NA,NA,NA,NA,NA,NA,NA,NA,NA,NA,NA,NA,NA,NA,NA,NA,NA,NA,NA,NA,NA,NA,NA,NA,NA,4,0,4,0,1,NA,NA,NA,NA,NA,NA,NA,NA,NA,NA,NA,NA,NA,NA,NA,NA,NA,NA,NA,NA,NA,NA,NA
SUPAMT42249,NA,671A6C2B-6529-4CED-B343-ACA4588876E4,2023-09-26_12h33.12.343,WP_VExplicitOC_LH,2022.2.5,Win32,32.00102403,49.8046875,3.3708,2.0032,NA,NA,NA,NA,NA,bored,"bored, not bored","more bored, less bored",NA,NA,NA,NA,NA,NA,NA,NA,NA,NA,NA,NA,NA,NA,NA,0,0,0,2,1,NA,NA,NA,NA,NA,NA,NA,NA,NA,NA,NA,NA,NA,NA,NA,NA,NA,NA,NA,NA,NA,NA,NA,NA,NA,NA,NA,NA
SUPAMT42249,NA,671A6C2B-6529-4CED-B343-ACA4588876E4,2023-09-26_12h33.12.343,WP_VExplicitOC_LH,2022.2.5,Win32,32.00102403,49.8046875,2.7639,2.0386,NA,NA,NA,NA,NA,frustrated,"frustrated, not frustrated","more frustrated, less frustrated",NA,NA,NA,NA,NA,NA,NA,NA,NA,NA,NA,NA,NA,NA,NA,0,1,1,1,1,NA,NA,NA,NA,NA,NA,NA,NA,NA,NA,NA,NA,NA,NA,NA,NA,NA,NA,NA,NA,NA,NA,NA,NA,NA,NA,NA,NA
SUPAMT42249,NA,671A6C2B-6529-4CED-B343-ACA4588876E4,2023-09-26_12h33.12.343,WP_VExplicitOC_LH,2022.2.5,Win32,32.00102403,49.8046875,2.3203,2.0246,NA,NA,NA,NA,NA,happy,"unhappy, happy","less happy, more happy",NA,NA,NA,NA,NA,NA,NA,NA,NA,NA,NA,NA,NA,NA,NA,0,2,2,0,1,NA,NA,NA,NA,NA,NA,NA,NA,NA,NA,NA,NA,NA,NA,NA,NA,NA,NA,NA,NA,NA,NA,NA,NA,NA,NA,NA,NA
SUPAMT42249,NA,671A6C2B-6529-4CED-B343-ACA4588876E4,2023-09-26_12h33.12.343,WP_VExplicitOC_LH,2022.2.5,Win32,32.00102403,NA,NA,NA,NA,NA,NA,NA,NA,NA,NA,NA,NA,NA,NA,NA,NA,NA,NA,NA,NA,NA,NA,NA,NA,NA,NA,NA,NA,NA,NA,NA,5,0,5,0,1,NA,NA,NA,NA,NA,NA,NA,NA,NA,NA,NA,NA,NA,NA,NA,NA,NA,NA,NA,NA,NA,NA,NA
SUPAMT42249,NA,671A6C2B-6529-4CED-B343-ACA4588876E4,2023-09-26_12h33.12.343,WP_VExplicitOC_LH,2022.2.5,Win32,32.00102403,48.6328125,3.3271,2.0392,NA,NA,NA,NA,NA,bored,"bored, not bored","more bored, less bored",NA,NA,NA,NA,NA,NA,NA,NA,NA,NA,NA,NA,NA,NA,NA,0,0,0,2,1,NA,NA,NA,NA,NA,NA,NA,NA,NA,NA,NA,NA,NA,NA,NA,NA,NA,NA,NA,NA,NA,NA,NA,NA,NA,NA,NA,NA
SUPAMT42249,NA,671A6C2B-6529-4CED-B343-ACA4588876E4,2023-09-26_12h33.12.343,WP_VExplicitOC_LH,2022.2.5,Win32,32.00102403,48.6328125,2.3995,2.0239,NA,NA,NA,NA,NA,frustrated,"frustrated, not frustrated","more frustrated, less frustrated",NA,NA,NA,NA,NA,NA,NA,NA,NA,NA,NA,NA,NA,NA,NA,0,1,1,1,1,NA,NA,NA,NA,NA,NA,NA,NA,NA,NA,NA,NA,NA,NA,NA,NA,NA,NA,NA,NA,NA,NA,NA,NA,NA,NA,NA,NA
SUPAMT42249,NA,671A6C2B-6529-4CED-B343-ACA4588876E4,2023-09-26_12h33.12.343,WP_VExplicitOC_LH,2022.2.5,Win32,32.00102403,48.6328125,2.2213,2.037,NA,NA,NA,NA,NA,happy,"unhappy, happy","less happy, more happy",NA,NA,NA,NA,NA,NA,NA,NA,NA,NA,NA,NA,NA,NA,NA,0,2,2,0,1,NA,NA,NA,NA,NA,NA,NA,NA,NA,NA,NA,NA,NA,NA,NA,NA,NA,NA,NA,NA,NA,NA,NA,NA,NA,NA,NA,NA
SUPAMT42249,NA,671A6C2B-6529-4CED-B343-ACA4588876E4,2023-09-26_12h33.12.343,WP_VExplicitOC_LH,2022.2.5,Win32,32.00102403,NA,NA,NA,NA,NA,NA,NA,NA,NA,NA,NA,NA,NA,NA,NA,NA,NA,NA,NA,NA,NA,NA,NA,NA,NA,NA,NA,NA,NA,NA,NA,6,0,6,0,1,NA,NA,NA,NA,NA,NA,NA,NA,NA,NA,NA,NA,NA,NA,NA,NA,NA,NA,NA,NA,NA,NA,NA
SUPAMT42249,NA,671A6C2B-6529-4CED-B343-ACA4588876E4,2023-09-26_12h33.12.343,WP_VExplicitOC_LH,2022.2.5,Win32,32.00102403,57.421875,4.7961,2.059,NA,NA,NA,NA,NA,bored,"bored, not bored","more bored, less bored",NA,NA,NA,NA,NA,NA,NA,NA,NA,NA,NA,NA,NA,NA,NA,0,0,0,2,1,NA,NA,NA,NA,NA,NA,NA,NA,NA,NA,NA,NA,NA,NA,NA,NA,NA,NA,NA,NA,NA,NA,NA,NA,NA,NA,NA,NA
SUPAMT42249,NA,671A6C2B-6529-4CED-B343-ACA4588876E4,2023-09-26_12h33.12.343,WP_VExplicitOC_LH,2022.2.5,Win32,32.00102403,57.421875,2.3535,2.0278,NA,NA,NA,NA,NA,frustrated,"frustrated, not frustrated","more frustrated, less frustrated",NA,NA,NA,NA,NA,NA,NA,NA,NA,NA,NA,NA,NA,NA,NA,0,1,1,1,1,NA,NA,NA,NA,NA,NA,NA,NA,NA,NA,NA,NA,NA,NA,NA,NA,NA,NA,NA,NA,NA,NA,NA,NA,NA,NA,NA,NA
SUPAMT42249,NA,671A6C2B-6529-4CED-B343-ACA4588876E4,2023-09-26_12h33.12.343,WP_VExplicitOC_LH,2022.2.5,Win32,32.00102403,57.421875,2.3371,2.0125,NA,NA,NA,NA,NA,happy,"unhappy, happy","less happy, more happy",NA,NA,NA,NA,NA,NA,NA,NA,NA,NA,NA,NA,NA,NA,NA,0,2,2,0,1,NA,NA,NA,NA,NA,NA,NA,NA,NA,NA,NA,NA,NA,NA,NA,NA,NA,NA,NA,NA,NA,NA,NA,NA,NA,NA,NA,NA
SUPAMT42249,NA,671A6C2B-6529-4CED-B343-ACA4588876E4,2023-09-26_12h33.12.343,WP_VExplicitOC_LH,2022.2.5,Win32,32.00102403,NA,NA,NA,NA,NA,NA,NA,NA,NA,NA,NA,NA,NA,NA,NA,NA,NA,NA,NA,NA,NA,NA,NA,NA,NA,NA,NA,NA,NA,NA,NA,7,0,7,0,1,NA,NA,NA,NA,NA,NA,NA,NA,NA,NA,NA,NA,NA,NA,NA,NA,NA,NA,NA,NA,NA,NA,NA
SUPAMT42249,NA,671A6C2B-6529-4CED-B343-ACA4588876E4,2023-09-26_12h33.12.343,WP_VExplicitOC_LH,2022.2.5,Win32,32.00102403,43.9453125,3.0643,2.0547,NA,NA,NA,NA,NA,frustrated,"frustrated, not frustrated","more frustrated, less frustrated",NA,NA,NA,NA,NA,NA,NA,NA,NA,NA,NA,NA,NA,NA,NA,0,0,0,1,1,NA,NA,NA,NA,NA,NA,NA,NA,NA,NA,NA,NA,NA,NA,NA,NA,NA,NA,NA,NA,NA,NA,NA,NA,NA,NA,NA,NA
SUPAMT42249,NA,671A6C2B-6529-4CED-B343-ACA4588876E4,2023-09-26_12h33.12.343,WP_VExplicitOC_LH,2022.2.5,Win32,32.00102403,43.9453125,2.516,2.0154,NA,NA,NA,NA,NA,bored,"bored, not bored","more bored, less bored",NA,NA,NA,NA,NA,NA,NA,NA,NA,NA,NA,NA,NA,NA,NA,0,1,1,2,1,NA,NA,NA,NA,NA,NA,NA,NA,NA,NA,NA,NA,NA,NA,NA,NA,NA,NA,NA,NA,NA,NA,NA,NA,NA,NA,NA,NA
SUPAMT42249,NA,671A6C2B-6529-4CED-B343-ACA4588876E4,2023-09-26_12h33.12.343,WP_VExplicitOC_LH,2022.2.5,Win32,32.00102403,43.9453125,2.3459,2.0387,NA,NA,NA,NA,NA,happy,"unhappy, happy","less happy, more happy",NA,NA,NA,NA,NA,NA,NA,NA,NA,NA,NA,NA,NA,NA,NA,0,2,2,0,1,NA,NA,NA,NA,NA,NA,NA,NA,NA,NA,NA,NA,NA,NA,NA,NA,NA,NA,NA,NA,NA,NA,NA,NA,NA,NA,NA,NA
SUPAMT42249,NA,671A6C2B-6529-4CED-B343-ACA4588876E4,2023-09-26_12h33.12.343,WP_VExplicitOC_LH,2022.2.5,Win32,32.00102403,NA,NA,NA,NA,NA,NA,NA,NA,NA,NA,NA,NA,NA,NA,NA,NA,NA,NA,NA,NA,NA,NA,NA,NA,NA,NA,NA,NA,NA,NA,NA,8,0,8,0,1,NA,NA,NA,NA,NA,NA,NA,NA,NA,NA,NA,NA,NA,NA,NA,NA,NA,NA,NA,NA,NA,NA,NA
SUPAMT42249,NA,671A6C2B-6529-4CED-B343-ACA4588876E4,2023-09-26_12h33.12.343,WP_VExplicitOC_LH,2022.2.5,Win32,32.00102403,52.5390625,3.2386,2.0168,NA,NA,NA,NA,NA,bored,"bored, not bored","more bored, less bored",NA,NA,NA,NA,NA,NA,NA,NA,NA,NA,NA,NA,NA,NA,NA,0,0,0,2,1,NA,NA,NA,NA,NA,NA,NA,NA,NA,NA,NA,NA,NA,NA,NA,NA,NA,NA,NA,NA,NA,NA,NA,NA,NA,NA,NA,NA
SUPAMT42249,NA,671A6C2B-6529-4CED-B343-ACA4588876E4,2023-09-26_12h33.12.343,WP_VExplicitOC_LH,2022.2.5,Win32,32.00102403,52.5390625,2.4269,2.0474,NA,NA,NA,NA,NA,frustrated,"frustrated, not frustrated","more frustrated, less frustrated",NA,NA,NA,NA,NA,NA,NA,NA,NA,NA,NA,NA,NA,NA,NA,0,1,1,1,1,NA,NA,NA,NA,NA,NA,NA,NA,NA,NA,NA,NA,NA,NA,NA,NA,NA,NA,NA,NA,NA,NA,NA,NA,NA,NA,NA,NA
SUPAMT42249,NA,671A6C2B-6529-4CED-B343-ACA4588876E4,2023-09-26_12h33.12.343,WP_VExplicitOC_LH,2022.2.5,Win32,32.00102403,52.5390625,2.2763,2.0306,NA,NA,NA,NA,NA,happy,"unhappy, happy","less happy, more happy",NA,NA,NA,NA,NA,NA,NA,NA,NA,NA,NA,NA,NA,NA,NA,0,2,2,0,1,NA,NA,NA,NA,NA,NA,NA,NA,NA,NA,NA,NA,NA,NA,NA,NA,NA,NA,NA,NA,NA,NA,NA,NA,NA,NA,NA,NA
SUPAMT42249,NA,671A6C2B-6529-4CED-B343-ACA4588876E4,2023-09-26_12h33.12.343,WP_VExplicitOC_LH,2022.2.5,Win32,32.00102403,NA,NA,NA,NA,NA,NA,NA,NA,NA,NA,NA,NA,NA,NA,NA,NA,NA,NA,NA,NA,NA,NA,NA,NA,NA,NA,NA,NA,NA,NA,NA,9,0,9,0,1,NA,NA,NA,NA,NA,NA,NA,NA,NA,NA,NA,NA,NA,NA,NA,NA,NA,NA,NA,NA,NA,NA,NA
SUPAMT42249,NA,671A6C2B-6529-4CED-B343-ACA4588876E4,2023-09-26_12h33.12.343,WP_VExplicitOC_LH,2022.2.5,Win32,32.00102403,53.3203125,4.2431,2.0428,NA,NA,NA,NA,NA,bored,"bored, not bored","more bored, less bored",NA,NA,NA,NA,NA,NA,NA,NA,NA,NA,NA,NA,NA,NA,NA,0,0,0,2,1,NA,NA,NA,NA,NA,NA,NA,NA,NA,NA,NA,NA,NA,NA,NA,NA,NA,NA,NA,NA,NA,NA,NA,NA,NA,NA,NA,NA
SUPAMT42249,NA,671A6C2B-6529-4CED-B343-ACA4588876E4,2023-09-26_12h33.12.343,WP_VExplicitOC_LH,2022.2.5,Win32,32.00102403,53.3203125,2.2406,2.0102,NA,NA,NA,NA,NA,happy,"unhappy, happy","less happy, more happy",NA,NA,NA,NA,NA,NA,NA,NA,NA,NA,NA,NA,NA,NA,NA,0,1,1,0,1,NA,NA,NA,NA,NA,NA,NA,NA,NA,NA,NA,NA,NA,NA,NA,NA,NA,NA,NA,NA,NA,NA,NA,NA,NA,NA,NA,NA
SUPAMT42249,NA,671A6C2B-6529-4CED-B343-ACA4588876E4,2023-09-26_12h33.12.343,WP_VExplicitOC_LH,2022.2.5,Win32,32.00102403,53.3203125,2.2682,2.0325,NA,NA,NA,NA,NA,frustrated,"frustrated, not frustrated","more frustrated, less frustrated",NA,NA,NA,NA,NA,NA,NA,NA,NA,NA,NA,NA,NA,NA,NA,0,2,2,1,1,NA,NA,NA,NA,NA,NA,NA,NA,NA,NA,NA,NA,NA,NA,NA,NA,NA,NA,NA,NA,NA,NA,NA,NA,NA,NA,NA,NA
SUPAMT42249,NA,671A6C2B-6529-4CED-B343-ACA4588876E4,2023-09-26_12h33.12.343,WP_VExplicitOC_LH,2022.2.5,Win32,32.00102403,NA,NA,NA,NA,NA,NA,NA,NA,NA,NA,NA,NA,NA,NA,NA,NA,NA,NA,NA,NA,NA,NA,NA,NA,NA,NA,NA,NA,NA,NA,NA,10,0,10,0,1,NA,NA,NA,NA,NA,NA,NA,NA,NA,NA,NA,NA,NA,NA,NA,NA,NA,NA,NA,NA,NA,NA,NA
SUPAMT42249,NA,671A6C2B-6529-4CED-B343-ACA4588876E4,2023-09-26_12h33.12.343,WP_VExplicitOC_LH,2022.2.5,Win32,32.00102403,48.046875,3.4376,2.0546,NA,NA,NA,NA,NA,bored,"bored, not bored","more bored, less bored",NA,NA,NA,NA,NA,NA,NA,NA,NA,NA,NA,NA,NA,NA,NA,0,0,0,2,1,NA,NA,NA,NA,NA,NA,NA,NA,NA,NA,NA,NA,NA,NA,NA,NA,NA,NA,NA,NA,NA,NA,NA,NA,NA,NA,NA,NA
SUPAMT42249,NA,671A6C2B-6529-4CED-B343-ACA4588876E4,2023-09-26_12h33.12.343,WP_VExplicitOC_LH,2022.2.5,Win32,32.00102403,48.046875,3.01,2.027,NA,NA,NA,NA,NA,frustrated,"frustrated, not frustrated","more frustrated, less frustrated",NA,NA,NA,NA,NA,NA,NA,NA,NA,NA,NA,NA,NA,NA,NA,0,1,1,1,1,NA,NA,NA,NA,NA,NA,NA,NA,NA,NA,NA,NA,NA,NA,NA,NA,NA,NA,NA,NA,NA,NA,NA,NA,NA,NA,NA,NA
SUPAMT42249,NA,671A6C2B-6529-4CED-B343-ACA4588876E4,2023-09-26_12h33.12.343,WP_VExplicitOC_LH,2022.2.5,Win32,32.00102403,48.046875,2.6818,2.0369,NA,NA,NA,NA,NA,happy,"unhappy, happy","less happy, more happy",NA,NA,NA,NA,NA,NA,NA,NA,NA,NA,NA,NA,NA,NA,NA,0,2,2,0,1,NA,NA,NA,NA,NA,NA,NA,NA,NA,NA,NA,NA,NA,NA,NA,NA,NA,NA,NA,NA,NA,NA,NA,NA,NA,NA,NA,NA
SUPAMT42249,NA,671A6C2B-6529-4CED-B343-ACA4588876E4,2023-09-26_12h33.12.343,WP_VExplicitOC_LH,2022.2.5,Win32,32.00102403,NA,NA,NA,NA,NA,NA,NA,NA,NA,NA,NA,NA,NA,NA,NA,NA,NA,NA,NA,NA,NA,NA,NA,NA,NA,NA,NA,NA,NA,NA,NA,11,0,11,0,1,NA,NA,NA,NA,NA,NA,NA,NA,NA,NA,NA,NA,NA,NA,NA,NA,NA,NA,NA,NA,NA,NA,NA
SUPAMT42249,NA,671A6C2B-6529-4CED-B343-ACA4588876E4,2023-09-26_12h33.12.343,WP_VExplicitOC_LH,2022.2.5,Win32,32.00102403,49.609375,3.1224,2.0092,NA,NA,NA,NA,NA,bored,"bored, not bored","more bored, less bored",NA,NA,NA,NA,NA,NA,NA,NA,NA,NA,NA,NA,NA,NA,NA,0,0,0,2,1,NA,NA,NA,NA,NA,NA,NA,NA,NA,NA,NA,NA,NA,NA,NA,NA,NA,NA,NA,NA,NA,NA,NA,NA,NA,NA,NA,NA
SUPAMT42249,NA,671A6C2B-6529-4CED-B343-ACA4588876E4,2023-09-26_12h33.12.343,WP_VExplicitOC_LH,2022.2.5,Win32,32.00102403,49.8046875,2.4847,2.0586,NA,NA,NA,NA,NA,frustrated,"frustrated, not frustrated","more frustrated, less frustrated",NA,NA,NA,NA,NA,NA,NA,NA,NA,NA,NA,NA,NA,NA,NA,0,1,1,1,1,NA,NA,NA,NA,NA,NA,NA,NA,NA,NA,NA,NA,NA,NA,NA,NA,NA,NA,NA,NA,NA,NA,NA,NA,NA,NA,NA,NA
SUPAMT42249,NA,671A6C2B-6529-4CED-B343-ACA4588876E4,2023-09-26_12h33.12.343,WP_VExplicitOC_LH,2022.2.5,Win32,32.00102403,49.8046875,2.2674,2.003,NA,NA,NA,NA,NA,happy,"unhappy, happy","less happy, more happy",NA,NA,NA,NA,NA,NA,NA,NA,NA,NA,NA,NA,NA,NA,NA,0,2,2,0,1,NA,NA,NA,NA,NA,NA,NA,NA,NA,NA,NA,NA,NA,NA,NA,NA,NA,NA,NA,NA,NA,NA,NA,NA,NA,NA,NA,NA
SUPAMT42249,NA,671A6C2B-6529-4CED-B343-ACA4588876E4,2023-09-26_12h33.12.343,WP_VExplicitOC_LH,2022.2.5,Win32,32.00102403,NA,NA,NA,NA,NA,NA,NA,NA,NA,NA,NA,NA,NA,NA,NA,NA,NA,NA,NA,NA,NA,NA,NA,NA,NA,NA,NA,NA,NA,NA,NA,12,0,12,0,1,NA,NA,NA,NA,NA,NA,NA,NA,NA,NA,NA,NA,NA,NA,NA,NA,NA,NA,NA,NA,NA,NA,NA
SUPAMT42249,NA,671A6C2B-6529-4CED-B343-ACA4588876E4,2023-09-26_12h33.12.343,WP_VExplicitOC_LH,2022.2.5,Win32,32.00102403,51.3671875,3.3209,2.0483,NA,NA,NA,NA,NA,frustrated,"frustrated, not frustrated","more frustrated, less frustrated",NA,NA,NA,NA,NA,NA,NA,NA,NA,NA,NA,NA,NA,NA,NA,0,0,0,1,1,NA,NA,NA,NA,NA,NA,NA,NA,NA,NA,NA,NA,NA,NA,NA,NA,NA,NA,NA,NA,NA,NA,NA,NA,NA,NA,NA,NA
SUPAMT42249,NA,671A6C2B-6529-4CED-B343-ACA4588876E4,2023-09-26_12h33.12.343,WP_VExplicitOC_LH,2022.2.5,Win32,32.00102403,51.3671875,2.2239,2.0388,NA,NA,NA,NA,NA,bored,"bored, not bored","more bored, less bored",NA,NA,NA,NA,NA,NA,NA,NA,NA,NA,NA,NA,NA,NA,NA,0,1,1,2,1,NA,NA,NA,NA,NA,NA,NA,NA,NA,NA,NA,NA,NA,NA,NA,NA,NA,NA,NA,NA,NA,NA,NA,NA,NA,NA,NA,NA
SUPAMT42249,NA,671A6C2B-6529-4CED-B343-ACA4588876E4,2023-09-26_12h33.12.343,WP_VExplicitOC_LH,2022.2.5,Win32,32.00102403,51.3671875,2.3069,2.0591,NA,NA,NA,NA,NA,happy,"unhappy, happy","less happy, more happy",NA,NA,NA,NA,NA,NA,NA,NA,NA,NA,NA,NA,NA,NA,NA,0,2,2,0,1,NA,NA,NA,NA,NA,NA,NA,NA,NA,NA,NA,NA,NA,NA,NA,NA,NA,NA,NA,NA,NA,NA,NA,NA,NA,NA,NA,NA
SUPAMT42249,NA,671A6C2B-6529-4CED-B343-ACA4588876E4,2023-09-26_12h33.12.343,WP_VExplicitOC_LH,2022.2.5,Win32,32.00102403,NA,NA,NA,NA,NA,NA,NA,NA,NA,NA,NA,NA,NA,NA,NA,NA,NA,NA,NA,NA,NA,NA,NA,NA,NA,NA,NA,NA,NA,NA,NA,13,0,13,0,1,NA,NA,NA,NA,NA,NA,NA,NA,NA,NA,NA,NA,NA,NA,NA,NA,NA,NA,NA,NA,NA,NA,NA
SUPAMT42249,NA,671A6C2B-6529-4CED-B343-ACA4588876E4,2023-09-26_12h33.12.343,WP_VExplicitOC_LH,2022.2.5,Win32,32.00102403,48.6328125,3.1795,2.0346,NA,NA,NA,NA,NA,bored,"bored, not bored","more bored, less bored",NA,NA,NA,NA,NA,NA,NA,NA,NA,NA,NA,NA,NA,NA,NA,0,0,0,2,1,NA,NA,NA,NA,NA,NA,NA,NA,NA,NA,NA,NA,NA,NA,NA,NA,NA,NA,NA,NA,NA,NA,NA,NA,NA,NA,NA,NA
SUPAMT42249,NA,671A6C2B-6529-4CED-B343-ACA4588876E4,2023-09-26_12h33.12.343,WP_VExplicitOC_LH,2022.2.5,Win32,32.00102403,48.6328125,2.1866,2.0069,NA,NA,NA,NA,NA,happy,"unhappy, happy","less happy, more happy",NA,NA,NA,NA,NA,NA,NA,NA,NA,NA,NA,NA,NA,NA,NA,0,1,1,0,1,NA,NA,NA,NA,NA,NA,NA,NA,NA,NA,NA,NA,NA,NA,NA,NA,NA,NA,NA,NA,NA,NA,NA,NA,NA,NA,NA,NA
SUPAMT42249,NA,671A6C2B-6529-4CED-B343-ACA4588876E4,2023-09-26_12h33.12.343,WP_VExplicitOC_LH,2022.2.5,Win32,32.00102403,48.6328125,2.4057,2.0393,NA,NA,NA,NA,NA,frustrated,"frustrated, not frustrated","more frustrated, less frustrated",NA,NA,NA,NA,NA,NA,NA,NA,NA,NA,NA,NA,NA,NA,NA,0,2,2,1,1,NA,NA,NA,NA,NA,NA,NA,NA,NA,NA,NA,NA,NA,NA,NA,NA,NA,NA,NA,NA,NA,NA,NA,NA,NA,NA,NA,NA
SUPAMT42249,NA,671A6C2B-6529-4CED-B343-ACA4588876E4,2023-09-26_12h33.12.343,WP_VExplicitOC_LH,2022.2.5,Win32,32.00102403,NA,NA,NA,NA,NA,NA,NA,NA,NA,NA,NA,NA,NA,NA,NA,NA,NA,NA,NA,NA,NA,NA,NA,NA,NA,NA,NA,NA,NA,NA,NA,14,0,14,0,1,NA,NA,NA,NA,NA,NA,NA,NA,NA,NA,NA,NA,NA,NA,NA,NA,NA,NA,NA,NA,NA,NA,NA
SUPAMT42249,NA,671A6C2B-6529-4CED-B343-ACA4588876E4,2023-09-26_12h33.12.343,WP_VExplicitOC_LH,2022.2.5,Win32,32.00102403,NA,NA,NA,NA,NA,NA,NA,NA,NA,NA,NA,NA,NA,NA,NA,NA,NA,NA,NA,NA,NA,NA,NA,NA,NA,NA,NA,NA,NA,NA,NA,NA,NA,NA,NA,NA,NA,NA,NA,NA,NA,NA,NA,NA,NA,NA,NA,NA,NA,NA,NA,NA,NA,NA,NA,NA,NA,NA,NA
SUPAMT42249,NA,671A6C2B-6529-4CED-B343-ACA4588876E4,2023-09-26_12h33.12.343,WP_VExplicitOC_LH,2022.2.5,Win32,32.00102403,NA,NA,NA,NA,NA,NA,NA,NA,NA,NA,NA,NA,NA,NA,NA,NA,NA,NA,NA,NA,NA,NA,NA,NA,NA,NA,NA,NA,NA,NA,NA,NA,NA,NA,NA,NA,NA,NA,NA,NA,NA,NA,NA,NA,NA,NA,NA,NA,NA,NA,NA,NA,NA,NA,NA,NA,NA,NA,NA
SUPAMT42249,NA,671A6C2B-6529-4CED-B343-ACA4588876E4,2023-09-26_12h33.12.343,WP_VExplicitOC_LH,2022.2.5,Win32,32.00102403,NA,NA,NA,NA,NA,NA,NA,NA,NA,NA,NA,NA,NA,NA,NA,NA,NA,NA,rest (looking at a fixed cross),001.png,NA,NA,NA,NA,NA,NA,NA,NA,NA,NA,NA,NA,NA,NA,NA,NA,54.1015625,1.8035,0,0,0,0,1,NA,NA,NA,NA,NA,NA,NA,NA,NA,NA,NA,NA,NA,NA,NA,NA
SUPAMT42249,NA,671A6C2B-6529-4CED-B343-ACA4588876E4,2023-09-26_12h33.12.343,WP_VExplicitOC_LH,2022.2.5,Win32,32.00102403,NA,NA,NA,NA,NA,NA,NA,NA,NA,NA,NA,NA,NA,NA,NA,NA,NA,NA,stand up,002.png,NA,NA,NA,NA,NA,NA,NA,NA,NA,NA,NA,NA,NA,NA,NA,NA,54.1015625,0.1913,0,1,1,1,1,NA,NA,NA,NA,NA,NA,NA,NA,NA,NA,NA,NA,NA,NA,NA,NA
SUPAMT42249,NA,671A6C2B-6529-4CED-B343-ACA4588876E4,2023-09-26_12h33.12.343,WP_VExplicitOC_LH,2022.2.5,Win32,32.00102403,NA,NA,NA,NA,NA,NA,NA,NA,NA,NA,NA,NA,NA,NA,NA,NA,NA,NA,stretch,003.png,NA,NA,NA,NA,NA,NA,NA,NA,NA,NA,NA,NA,NA,NA,NA,NA,54.1015625,0.2583,0,2,2,2,1,NA,NA,NA,NA,NA,NA,NA,NA,NA,NA,NA,NA,NA,NA,NA,NA
SUPAMT42249,NA,671A6C2B-6529-4CED-B343-ACA4588876E4,2023-09-26_12h33.12.343,WP_VExplicitOC_LH,2022.2.5,Win32,32.00102403,NA,NA,NA,NA,NA,NA,NA,NA,NA,NA,NA,NA,NA,NA,NA,NA,NA,NA,make a drink,004.png,NA,NA,NA,NA,NA,NA,NA,NA,NA,NA,NA,NA,NA,NA,NA,NA,54.1015625,0.2246,0,3,3,3,1,NA,NA,NA,NA,NA,NA,NA,NA,NA,NA,NA,NA,NA,NA,NA,NA
SUPAMT42249,NA,671A6C2B-6529-4CED-B343-ACA4588876E4,2023-09-26_12h33.12.343,WP_VExplicitOC_LH,2022.2.5,Win32,32.00102403,NA,NA,NA,NA,NA,NA,NA,NA,NA,NA,NA,NA,NA,NA,NA,NA,NA,NA,scroll social media,005.png,NA,NA,NA,NA,NA,NA,NA,NA,NA,NA,NA,NA,NA,NA,NA,NA,54.1015625,0.1944,0,4,4,4,1,NA,NA,NA,NA,NA,NA,NA,NA,NA,NA,NA,NA,NA,NA,NA,NA
SUPAMT42249,NA,671A6C2B-6529-4CED-B343-ACA4588876E4,2023-09-26_12h33.12.343,WP_VExplicitOC_LH,2022.2.5,Win32,32.00102403,NA,NA,NA,NA,NA,NA,NA,NA,NA,NA,NA,NA,NA,NA,NA,NA,NA,NA,listen to music,006.png,NA,NA,NA,NA,NA,NA,NA,NA,NA,NA,NA,NA,NA,NA,NA,NA,54.1015625,0.2429,0,5,5,5,1,NA,NA,NA,NA,NA,NA,NA,NA,NA,NA,NA,NA,NA,NA,NA,NA
SUPAMT42249,NA,671A6C2B-6529-4CED-B343-ACA4588876E4,2023-09-26_12h33.12.343,WP_VExplicitOC_LH,2022.2.5,Win32,32.00102403,NA,NA,NA,NA,NA,NA,NA,NA,NA,NA,NA,NA,NA,NA,NA,NA,NA,NA,daydream,007.png,NA,NA,NA,NA,NA,NA,NA,NA,NA,NA,NA,NA,NA,NA,NA,NA,54.1015625,0.2576,0,6,6,6,1,NA,NA,NA,NA,NA,NA,NA,NA,NA,NA,NA,NA,NA,NA,NA,NA
SUPAMT42249,NA,671A6C2B-6529-4CED-B343-ACA4588876E4,2023-09-26_12h33.12.343,WP_VExplicitOC_LH,2022.2.5,Win32,32.00102403,NA,NA,NA,NA,NA,NA,NA,NA,NA,NA,NA,NA,NA,NA,NA,NA,NA,NA,watch a short animation,008.png,NA,NA,NA,NA,NA,NA,NA,NA,NA,NA,NA,NA,NA,NA,NA,NA,54.1015625,0.2003,0,7,7,7,1,NA,NA,NA,NA,NA,NA,NA,NA,NA,NA,NA,NA,NA,NA,NA,NA
SUPAMT42249,NA,671A6C2B-6529-4CED-B343-ACA4588876E4,2023-09-26_12h33.12.343,WP_VExplicitOC_LH,2022.2.5,Win32,32.00102403,NA,NA,NA,NA,NA,NA,NA,NA,NA,NA,NA,NA,NA,NA,NA,NA,NA,NA,read a novel,009.png,NA,NA,NA,NA,NA,NA,NA,NA,NA,NA,NA,NA,NA,NA,NA,NA,54.1015625,0.2536,0,8,8,8,1,NA,NA,NA,NA,NA,NA,NA,NA,NA,NA,NA,NA,NA,NA,NA,NA
SUPAMT42249,NA,671A6C2B-6529-4CED-B343-ACA4588876E4,2023-09-26_12h33.12.343,WP_VExplicitOC_LH,2022.2.5,Win32,32.00102403,NA,NA,NA,NA,NA,NA,NA,NA,NA,NA,NA,NA,NA,NA,NA,NA,NA,NA,read the news,010.png,NA,NA,NA,NA,NA,NA,NA,NA,NA,NA,NA,NA,NA,NA,NA,NA,54.1015625,0.192,0,9,9,9,1,NA,NA,NA,NA,NA,NA,NA,NA,NA,NA,NA,NA,NA,NA,NA,NA
SUPAMT42249,NA,671A6C2B-6529-4CED-B343-ACA4588876E4,2023-09-26_12h33.12.343,WP_VExplicitOC_LH,2022.2.5,Win32,32.00102403,NA,NA,NA,NA,NA,NA,NA,NA,NA,NA,NA,NA,NA,NA,NA,NA,NA,NA,NA,NA,NA,NA,NA,NA,NA,NA,NA,NA,NA,NA,NA,NA,NA,NA,NA,NA,NA,NA,NA,NA,NA,NA,NA,stand up,NA,NA,NA,NA,NA,NA,NA,NA,NA,NA,NA,NA,NA,NA,NA
SUPAMT42249,NA,671A6C2B-6529-4CED-B343-ACA4588876E4,2023-09-26_12h33.12.343,WP_VExplicitOC_LH,2022.2.5,Win32,32.00102403,46.6796875,3.2975,2.061,NA,NA,NA,NA,NA,bored,"bored, not bored","more bored, less bored",NA,NA,NA,NA,NA,NA,NA,NA,NA,NA,NA,NA,NA,NA,NA,NA,NA,NA,NA,NA,NA,NA,NA,NA,NA,NA,NA,NA,NA,NA,NA,NA,NA,0,0,0,2,1,NA,NA,NA,NA,NA,NA,NA,NA,NA,NA
SUPAMT42249,NA,671A6C2B-6529-4CED-B343-ACA4588876E4,2023-09-26_12h33.12.343,WP_VExplicitOC_LH,2022.2.5,Win32,32.00102403,46.6796875,2.3794,2.0199,NA,NA,NA,NA,NA,happy,"unhappy, happy","less happy, more happy",NA,NA,NA,NA,NA,NA,NA,NA,NA,NA,NA,NA,NA,NA,NA,NA,NA,NA,NA,NA,NA,NA,NA,NA,NA,NA,NA,NA,NA,NA,NA,NA,NA,0,1,1,0,1,NA,NA,NA,NA,NA,NA,NA,NA,NA,NA
SUPAMT42249,NA,671A6C2B-6529-4CED-B343-ACA4588876E4,2023-09-26_12h33.12.343,WP_VExplicitOC_LH,2022.2.5,Win32,32.00102403,46.6796875,2.3138,2.0515,NA,NA,NA,NA,NA,frustrated,"frustrated, not frustrated","more frustrated, less frustrated",NA,NA,NA,NA,NA,NA,NA,NA,NA,NA,NA,NA,NA,NA,NA,NA,NA,NA,NA,NA,NA,NA,NA,NA,NA,NA,NA,NA,NA,NA,NA,NA,NA,0,2,2,1,1,NA,NA,NA,NA,NA,NA,NA,NA,NA,NA
SUPAMT42249,NA,671A6C2B-6529-4CED-B343-ACA4588876E4,2023-09-26_12h33.12.343,WP_VExplicitOC_LH,2022.2.5,Win32,32.00102403,NA,NA,NA,NA,NA,NA,NA,NA,NA,NA,NA,NA,NA,NA,NA,NA,NA,NA,NA,NA,NA,NA,NA,NA,NA,NA,NA,NA,NA,NA,NA,NA,NA,NA,NA,NA,NA,NA,NA,NA,NA,NA,NA,NA,NA,NA,NA,NA,NA,NA,NA,NA,NA,NA,NA,NA,NA,NA,NA
SUPAMT42249,NA,671A6C2B-6529-4CED-B343-ACA4588876E4,2023-09-26_12h33.12.343,WP_VExplicitOC_LH,2022.2.5,Win32,32.00102403,NA,NA,NA,NA,NA,NA,NA,NA,NA,NA,NA,NA,NA,NA,NA,NA,NA,NA,NA,NA,NA,NA,NA,NA,NA,NA,NA,NA,NA,NA,NA,NA,NA,NA,NA,NA,NA,NA,NA,NA,NA,NA,NA,NA,NA,NA,NA,NA,NA,NA,NA,NA,NA,NA,NA,NA,NA,NA,NA
SUPAMT42249,NA,671A6C2B-6529-4CED-B343-ACA4588876E4,2023-09-26_12h33.12.343,WP_VExplicitOC_LH,2022.2.5,Win32,32.00102403,40.8203125,3.2199,2.0048,NA,NA,NA,NA,NA,happy,"unhappy, happy","less happy, more happy",NA,NA,NA,NA,NA,NA,NA,NA,NA,NA,NA,NA,NA,NA,NA,NA,NA,NA,NA,NA,NA,NA,NA,NA,NA,NA,NA,NA,NA,NA,NA,NA,NA,NA,NA,NA,NA,NA,0,0,0,0,1,NA,NA,NA,NA,NA
SUPAMT42249,NA,671A6C2B-6529-4CED-B343-ACA4588876E4,2023-09-26_12h33.12.343,WP_VExplicitOC_LH,2022.2.5,Win32,32.00102403,40.8203125,2.2887,2.0416,NA,NA,NA,NA,NA,frustrated,"frustrated, not frustrated","more frustrated, less frustrated",NA,NA,NA,NA,NA,NA,NA,NA,NA,NA,NA,NA,NA,NA,NA,NA,NA,NA,NA,NA,NA,NA,NA,NA,NA,NA,NA,NA,NA,NA,NA,NA,NA,NA,NA,NA,NA,NA,0,1,1,1,1,NA,NA,NA,NA,NA
SUPAMT42249,NA,671A6C2B-6529-4CED-B343-ACA4588876E4,2023-09-26_12h33.12.343,WP_VExplicitOC_LH,2022.2.5,Win32,32.00102403,40.8203125,2.4567,2.0504,NA,NA,NA,NA,NA,bored,"bored, not bored","more bored, less bored",NA,NA,NA,NA,NA,NA,NA,NA,NA,NA,NA,NA,NA,NA,NA,NA,NA,NA,NA,NA,NA,NA,NA,NA,NA,NA,NA,NA,NA,NA,NA,NA,NA,NA,NA,NA,NA,NA,0,2,2,2,1,NA,NA,NA,NA,NA
SUPAMT42249,NA,671A6C2B-6529-4CED-B343-ACA4588876E4,2023-09-26_12h33.12.343,WP_VExplicitOC_LH,2022.2.5,Win32,32.00102403,NA,NA,NA,NA,NA,NA,NA,NA,NA,NA,NA,NA,NA,NA,NA,NA,NA,NA,NA,NA,NA,NA,NA,NA,NA,NA,NA,NA,NA,NA,NA,NA,NA,NA,NA,NA,NA,NA,NA,NA,NA,NA,NA,NA,NA,NA,NA,NA,NA,NA,NA,NA,NA,NA,0,0,0,0,1
SUPAMT42249,NA,671A6C2B-6529-4CED-B343-ACA4588876E4,2023-09-26_12h33.12.343,WP_VExplicitOC_LH,2022.2.5,Win32,32.00102403,42.3828125,3.0947,2.0011,NA,NA,NA,NA,NA,bored,"bored, not bored","more bored, less bored",NA,NA,NA,NA,NA,NA,NA,NA,NA,NA,NA,NA,NA,NA,NA,NA,NA,NA,NA,NA,NA,NA,NA,NA,NA,NA,NA,NA,NA,NA,NA,NA,NA,NA,NA,NA,NA,NA,0,0,0,2,1,NA,NA,NA,NA,NA
SUPAMT42249,NA,671A6C2B-6529-4CED-B343-ACA4588876E4,2023-09-26_12h33.12.343,WP_VExplicitOC_LH,2022.2.5,Win32,32.00102403,42.3828125,2.2946,2.047,NA,NA,NA,NA,NA,frustrated,"frustrated, not frustrated","more frustrated, less frustrated",NA,NA,NA,NA,NA,NA,NA,NA,NA,NA,NA,NA,NA,NA,NA,NA,NA,NA,NA,NA,NA,NA,NA,NA,NA,NA,NA,NA,NA,NA,NA,NA,NA,NA,NA,NA,NA,NA,0,1,1,1,1,NA,NA,NA,NA,NA
SUPAMT42249,NA,671A6C2B-6529-4CED-B343-ACA4588876E4,2023-09-26_12h33.12.343,WP_VExplicitOC_LH,2022.2.5,Win32,32.00102403,42.3828125,2.2082,2.0278,NA,NA,NA,NA,NA,happy,"unhappy, happy","less happy, more happy",NA,NA,NA,NA,NA,NA,NA,NA,NA,NA,NA,NA,NA,NA,NA,NA,NA,NA,NA,NA,NA,NA,NA,NA,NA,NA,NA,NA,NA,NA,NA,NA,NA,NA,NA,NA,NA,NA,0,2,2,0,1,NA,NA,NA,NA,NA
SUPAMT42249,NA,671A6C2B-6529-4CED-B343-ACA4588876E4,2023-09-26_12h33.12.343,WP_VExplicitOC_LH,2022.2.5,Win32,32.00102403,NA,NA,NA,NA,NA,NA,NA,NA,NA,NA,NA,NA,NA,NA,NA,NA,NA,NA,NA,NA,NA,NA,NA,NA,NA,NA,NA,NA,NA,NA,NA,NA,NA,NA,NA,NA,NA,NA,NA,NA,NA,NA,NA,NA,NA,NA,NA,NA,NA,NA,NA,NA,NA,NA,1,0,1,0,1
SUPAMT42249,NA,671A6C2B-6529-4CED-B343-ACA4588876E4,2023-09-26_12h33.12.343,WP_VExplicitOC_LH,2022.2.5,Win32,32.00102403,47.4609375,3.2799,2.0188,NA,NA,NA,NA,NA,happy,"unhappy, happy","less happy, more happy",NA,NA,NA,NA,NA,NA,NA,NA,NA,NA,NA,NA,NA,NA,NA,NA,NA,NA,NA,NA,NA,NA,NA,NA,NA,NA,NA,NA,NA,NA,NA,NA,NA,NA,NA,NA,NA,NA,0,0,0,0,1,NA,NA,NA,NA,NA
SUPAMT42249,NA,671A6C2B-6529-4CED-B343-ACA4588876E4,2023-09-26_12h33.12.343,WP_VExplicitOC_LH,2022.2.5,Win32,32.00102403,47.4609375,2.4188,2.0358,NA,NA,NA,NA,NA,bored,"bored, not bored","more bored, less bored",NA,NA,NA,NA,NA,NA,NA,NA,NA,NA,NA,NA,NA,NA,NA,NA,NA,NA,NA,NA,NA,NA,NA,NA,NA,NA,NA,NA,NA,NA,NA,NA,NA,NA,NA,NA,NA,NA,0,1,1,2,1,NA,NA,NA,NA,NA
SUPAMT42249,NA,671A6C2B-6529-4CED-B343-ACA4588876E4,2023-09-26_12h33.12.343,WP_VExplicitOC_LH,2022.2.5,Win32,32.00102403,47.4609375,2.7699,2.013,NA,NA,NA,NA,NA,frustrated,"frustrated, not frustrated","more frustrated, less frustrated",NA,NA,NA,NA,NA,NA,NA,NA,NA,NA,NA,NA,NA,NA,NA,NA,NA,NA,NA,NA,NA,NA,NA,NA,NA,NA,NA,NA,NA,NA,NA,NA,NA,NA,NA,NA,NA,NA,0,2,2,1,1,NA,NA,NA,NA,NA
SUPAMT42249,NA,671A6C2B-6529-4CED-B343-ACA4588876E4,2023-09-26_12h33.12.343,WP_VExplicitOC_LH,2022.2.5,Win32,32.00102403,NA,NA,NA,NA,NA,NA,NA,NA,NA,NA,NA,NA,NA,NA,NA,NA,NA,NA,NA,NA,NA,NA,NA,NA,NA,NA,NA,NA,NA,NA,NA,NA,NA,NA,NA,NA,NA,NA,NA,NA,NA,NA,NA,NA,NA,NA,NA,NA,NA,NA,NA,NA,NA,NA,2,0,2,0,1
SUPAMT42249,NA,671A6C2B-6529-4CED-B343-ACA4588876E4,2023-09-26_12h33.12.343,WP_VExplicitOC_LH,2022.2.5,Win32,32.00102403,50.1953125,4.5032,2.0104,NA,NA,NA,NA,NA,frustrated,"frustrated, not frustrated","more frustrated, less frustrated",NA,NA,NA,NA,NA,NA,NA,NA,NA,NA,NA,NA,NA,NA,NA,NA,NA,NA,NA,NA,NA,NA,NA,NA,NA,NA,NA,NA,NA,NA,NA,NA,NA,NA,NA,NA,NA,NA,0,0,0,1,1,NA,NA,NA,NA,NA
SUPAMT42249,NA,671A6C2B-6529-4CED-B343-ACA4588876E4,2023-09-26_12h33.12.343,WP_VExplicitOC_LH,2022.2.5,Win32,32.00102403,50.1953125,2.2724,2.0276,NA,NA,NA,NA,NA,bored,"bored, not bored","more bored, less bored",NA,NA,NA,NA,NA,NA,NA,NA,NA,NA,NA,NA,NA,NA,NA,NA,NA,NA,NA,NA,NA,NA,NA,NA,NA,NA,NA,NA,NA,NA,NA,NA,NA,NA,NA,NA,NA,NA,0,1,1,2,1,NA,NA,NA,NA,NA
SUPAMT42249,NA,671A6C2B-6529-4CED-B343-ACA4588876E4,2023-09-26_12h33.12.343,WP_VExplicitOC_LH,2022.2.5,Win32,32.00102403,50.1953125,2.1865,2.0513,NA,NA,NA,NA,NA,happy,"unhappy, happy","less happy, more happy",NA,NA,NA,NA,NA,NA,NA,NA,NA,NA,NA,NA,NA,NA,NA,NA,NA,NA,NA,NA,NA,NA,NA,NA,NA,NA,NA,NA,NA,NA,NA,NA,NA,NA,NA,NA,NA,NA,0,2,2,0,1,NA,NA,NA,NA,NA
SUPAMT42249,NA,671A6C2B-6529-4CED-B343-ACA4588876E4,2023-09-26_12h33.12.343,WP_VExplicitOC_LH,2022.2.5,Win32,32.00102403,NA,NA,NA,NA,NA,NA,NA,NA,NA,NA,NA,NA,NA,NA,NA,NA,NA,NA,NA,NA,NA,NA,NA,NA,NA,NA,NA,NA,NA,NA,NA,NA,NA,NA,NA,NA,NA,NA,NA,NA,NA,NA,NA,NA,NA,NA,NA,NA,NA,NA,NA,NA,NA,NA,3,0,3,0,1
SUPAMT42249,NA,671A6C2B-6529-4CED-B343-ACA4588876E4,2023-09-26_12h33.12.343,WP_VExplicitOC_LH,2022.2.5,Win32,32.00102403,36.71875,3.4052,2.0079,NA,NA,NA,NA,NA,bored,"bored, not bored","more bored, less bored",NA,NA,NA,NA,NA,NA,NA,NA,NA,NA,NA,NA,NA,NA,NA,NA,NA,NA,NA,NA,NA,NA,NA,NA,NA,NA,NA,NA,NA,NA,NA,NA,NA,NA,NA,NA,NA,NA,0,0,0,2,1,NA,NA,NA,NA,NA
SUPAMT42249,NA,671A6C2B-6529-4CED-B343-ACA4588876E4,2023-09-26_12h33.12.343,WP_VExplicitOC_LH,2022.2.5,Win32,32.00102403,38.28125,2.4232,2.0536,NA,NA,NA,NA,NA,happy,"unhappy, happy","less happy, more happy",NA,NA,NA,NA,NA,NA,NA,NA,NA,NA,NA,NA,NA,NA,NA,NA,NA,NA,NA,NA,NA,NA,NA,NA,NA,NA,NA,NA,NA,NA,NA,NA,NA,NA,NA,NA,NA,NA,0,1,1,0,1,NA,NA,NA,NA,NA
SUPAMT42249,NA,671A6C2B-6529-4CED-B343-ACA4588876E4,2023-09-26_12h33.12.343,WP_VExplicitOC_LH,2022.2.5,Win32,32.00102403,38.28125,2.3371,2.0205,NA,NA,NA,NA,NA,frustrated,"frustrated, not frustrated","more frustrated, less frustrated",NA,NA,NA,NA,NA,NA,NA,NA,NA,NA,NA,NA,NA,NA,NA,NA,NA,NA,NA,NA,NA,NA,NA,NA,NA,NA,NA,NA,NA,NA,NA,NA,NA,NA,NA,NA,NA,NA,0,2,2,1,1,NA,NA,NA,NA,NA
SUPAMT42249,NA,671A6C2B-6529-4CED-B343-ACA4588876E4,2023-09-26_12h33.12.343,WP_VExplicitOC_LH,2022.2.5,Win32,32.00102403,NA,NA,NA,NA,NA,NA,NA,NA,NA,NA,NA,NA,NA,NA,NA,NA,NA,NA,NA,NA,NA,NA,NA,NA,NA,NA,NA,NA,NA,NA,NA,NA,NA,NA,NA,NA,NA,NA,NA,NA,NA,NA,NA,NA,NA,NA,NA,NA,NA,NA,NA,NA,NA,NA,4,0,4,0,1
SUPAMT42249,NA,671A6C2B-6529-4CED-B343-ACA4588876E4,2023-09-26_12h33.12.343,WP_VExplicitOC_LH,2022.2.5,Win32,32.00102403,37.3046875,3.0942,2.0459,NA,NA,NA,NA,NA,frustrated,"frustrated, not frustrated","more frustrated, less frustrated",NA,NA,NA,NA,NA,NA,NA,NA,NA,NA,NA,NA,NA,NA,NA,NA,NA,NA,NA,NA,NA,NA,NA,NA,NA,NA,NA,NA,NA,NA,NA,NA,NA,NA,NA,NA,NA,NA,0,0,0,1,1,NA,NA,NA,NA,NA
SUPAMT42249,NA,671A6C2B-6529-4CED-B343-ACA4588876E4,2023-09-26_12h33.12.343,WP_VExplicitOC_LH,2022.2.5,Win32,32.00102403,38.4765625,2.2189,2.0373,NA,NA,NA,NA,NA,bored,"bored, not bored","more bored, less bored",NA,NA,NA,NA,NA,NA,NA,NA,NA,NA,NA,NA,NA,NA,NA,NA,NA,NA,NA,NA,NA,NA,NA,NA,NA,NA,NA,NA,NA,NA,NA,NA,NA,NA,NA,NA,NA,NA,0,1,1,2,1,NA,NA,NA,NA,NA
SUPAMT42249,NA,671A6C2B-6529-4CED-B343-ACA4588876E4,2023-09-26_12h33.12.343,WP_VExplicitOC_LH,2022.2.5,Win32,32.00102403,38.4765625,2.3612,2.0085,NA,NA,NA,NA,NA,happy,"unhappy, happy","less happy, more happy",NA,NA,NA,NA,NA,NA,NA,NA,NA,NA,NA,NA,NA,NA,NA,NA,NA,NA,NA,NA,NA,NA,NA,NA,NA,NA,NA,NA,NA,NA,NA,NA,NA,NA,NA,NA,NA,NA,0,2,2,0,1,NA,NA,NA,NA,NA
SUPAMT42249,NA,671A6C2B-6529-4CED-B343-ACA4588876E4,2023-09-26_12h33.12.343,WP_VExplicitOC_LH,2022.2.5,Win32,32.00102403,NA,NA,NA,NA,NA,NA,NA,NA,NA,NA,NA,NA,NA,NA,NA,NA,NA,NA,NA,NA,NA,NA,NA,NA,NA,NA,NA,NA,NA,NA,NA,NA,NA,NA,NA,NA,NA,NA,NA,NA,NA,NA,NA,NA,NA,NA,NA,NA,NA,NA,NA,NA,NA,NA,5,0,5,0,1
SUPAMT42249,NA,671A6C2B-6529-4CED-B343-ACA4588876E4,2023-09-26_12h33.12.343,WP_VExplicitOC_LH,2022.2.5,Win32,32.00102403,39.84375,3.3269,2.0419,NA,NA,NA,NA,NA,bored,"bored, not bored","more bored, less bored",NA,NA,NA,NA,NA,NA,NA,NA,NA,NA,NA,NA,NA,NA,NA,NA,NA,NA,NA,NA,NA,NA,NA,NA,NA,NA,NA,NA,NA,NA,NA,NA,NA,NA,NA,NA,NA,NA,0,0,0,2,1,NA,NA,NA,NA,NA
SUPAMT42249,NA,671A6C2B-6529-4CED-B343-ACA4588876E4,2023-09-26_12h33.12.343,WP_VExplicitOC_LH,2022.2.5,Win32,32.00102403,41.2109375,2.1277,2.0027,NA,NA,NA,NA,NA,frustrated,"frustrated, not frustrated","more frustrated, less frustrated",NA,NA,NA,NA,NA,NA,NA,NA,NA,NA,NA,NA,NA,NA,NA,NA,NA,NA,NA,NA,NA,NA,NA,NA,NA,NA,NA,NA,NA,NA,NA,NA,NA,NA,NA,NA,NA,NA,0,1,1,1,1,NA,NA,NA,NA,NA
SUPAMT42249,NA,671A6C2B-6529-4CED-B343-ACA4588876E4,2023-09-26_12h33.12.343,WP_VExplicitOC_LH,2022.2.5,Win32,32.00102403,41.2109375,2.2187,2.034,NA,NA,NA,NA,NA,happy,"unhappy, happy","less happy, more happy",NA,NA,NA,NA,NA,NA,NA,NA,NA,NA,NA,NA,NA,NA,NA,NA,NA,NA,NA,NA,NA,NA,NA,NA,NA,NA,NA,NA,NA,NA,NA,NA,NA,NA,NA,NA,NA,NA,0,2,2,0,1,NA,NA,NA,NA,NA
SUPAMT42249,NA,671A6C2B-6529-4CED-B343-ACA4588876E4,2023-09-26_12h33.12.343,WP_VExplicitOC_LH,2022.2.5,Win32,32.00102403,NA,NA,NA,NA,NA,NA,NA,NA,NA,NA,NA,NA,NA,NA,NA,NA,NA,NA,NA,NA,NA,NA,NA,NA,NA,NA,NA,NA,NA,NA,NA,NA,NA,NA,NA,NA,NA,NA,NA,NA,NA,NA,NA,NA,NA,NA,NA,NA,NA,NA,NA,NA,NA,NA,6,0,6,0,1
SUPAMT42249,NA,671A6C2B-6529-4CED-B343-ACA4588876E4,2023-09-26_12h33.12.343,WP_VExplicitOC_LH,2022.2.5,Win32,32.00102403,42.3828125,3.4387,2.0578,NA,NA,NA,NA,NA,happy,"unhappy, happy","less happy, more happy",NA,NA,NA,NA,NA,NA,NA,NA,NA,NA,NA,NA,NA,NA,NA,NA,NA,NA,NA,NA,NA,NA,NA,NA,NA,NA,NA,NA,NA,NA,NA,NA,NA,NA,NA,NA,NA,NA,0,0,0,0,1,NA,NA,NA,NA,NA
SUPAMT42249,NA,671A6C2B-6529-4CED-B343-ACA4588876E4,2023-09-26_12h33.12.343,WP_VExplicitOC_LH,2022.2.5,Win32,32.00102403,42.3828125,2.3443,2.0278,NA,NA,NA,NA,NA,frustrated,"frustrated, not frustrated","more frustrated, less frustrated",NA,NA,NA,NA,NA,NA,NA,NA,NA,NA,NA,NA,NA,NA,NA,NA,NA,NA,NA,NA,NA,NA,NA,NA,NA,NA,NA,NA,NA,NA,NA,NA,NA,NA,NA,NA,NA,NA,0,1,1,1,1,NA,NA,NA,NA,NA
SUPAMT42249,NA,671A6C2B-6529-4CED-B343-ACA4588876E4,2023-09-26_12h33.12.343,WP_VExplicitOC_LH,2022.2.5,Win32,32.00102403,42.3828125,2.2343,2.0426,NA,NA,NA,NA,NA,bored,"bored, not bored","more bored, less bored",NA,NA,NA,NA,NA,NA,NA,NA,NA,NA,NA,NA,NA,NA,NA,NA,NA,NA,NA,NA,NA,NA,NA,NA,NA,NA,NA,NA,NA,NA,NA,NA,NA,NA,NA,NA,NA,NA,0,2,2,2,1,NA,NA,NA,NA,NA
SUPAMT42249,NA,671A6C2B-6529-4CED-B343-ACA4588876E4,2023-09-26_12h33.12.343,WP_VExplicitOC_LH,2022.2.5,Win32,32.00102403,NA,NA,NA,NA,NA,NA,NA,NA,NA,NA,NA,NA,NA,NA,NA,NA,NA,NA,NA,NA,NA,NA,NA,NA,NA,NA,NA,NA,NA,NA,NA,NA,NA,NA,NA,NA,NA,NA,NA,NA,NA,NA,NA,NA,NA,NA,NA,NA,NA,NA,NA,NA,NA,NA,7,0,7,0,1
SUPAMT42249,NA,671A6C2B-6529-4CED-B343-ACA4588876E4,2023-09-26_12h33.12.343,WP_VExplicitOC_LH,2022.2.5,Win32,32.00102403,55.2734375,4.6417,2.0563,NA,NA,NA,NA,NA,frustrated,"frustrated, not frustrated","more frustrated, less frustrated",NA,NA,NA,NA,NA,NA,NA,NA,NA,NA,NA,NA,NA,NA,NA,NA,NA,NA,NA,NA,NA,NA,NA,NA,NA,NA,NA,NA,NA,NA,NA,NA,NA,NA,NA,NA,NA,NA,0,0,0,1,1,NA,NA,NA,NA,NA
SUPAMT42249,NA,671A6C2B-6529-4CED-B343-ACA4588876E4,2023-09-26_12h33.12.343,WP_VExplicitOC_LH,2022.2.5,Win32,32.00102403,55.2734375,2.3961,2.0134,NA,NA,NA,NA,NA,happy,"unhappy, happy","less happy, more happy",NA,NA,NA,NA,NA,NA,NA,NA,NA,NA,NA,NA,NA,NA,NA,NA,NA,NA,NA,NA,NA,NA,NA,NA,NA,NA,NA,NA,NA,NA,NA,NA,NA,NA,NA,NA,NA,NA,0,1,1,0,1,NA,NA,NA,NA,NA
SUPAMT42249,NA,671A6C2B-6529-4CED-B343-ACA4588876E4,2023-09-26_12h33.12.343,WP_VExplicitOC_LH,2022.2.5,Win32,32.00102403,55.2734375,2.3602,2.0538,NA,NA,NA,NA,NA,bored,"bored, not bored","more bored, less bored",NA,NA,NA,NA,NA,NA,NA,NA,NA,NA,NA,NA,NA,NA,NA,NA,NA,NA,NA,NA,NA,NA,NA,NA,NA,NA,NA,NA,NA,NA,NA,NA,NA,NA,NA,NA,NA,NA,0,2,2,2,1,NA,NA,NA,NA,NA
SUPAMT42249,NA,671A6C2B-6529-4CED-B343-ACA4588876E4,2023-09-26_12h33.12.343,WP_VExplicitOC_LH,2022.2.5,Win32,32.00102403,NA,NA,NA,NA,NA,NA,NA,NA,NA,NA,NA,NA,NA,NA,NA,NA,NA,NA,NA,NA,NA,NA,NA,NA,NA,NA,NA,NA,NA,NA,NA,NA,NA,NA,NA,NA,NA,NA,NA,NA,NA,NA,NA,NA,NA,NA,NA,NA,NA,NA,NA,NA,NA,NA,8,0,8,0,1
SUPAMT42249,NA,671A6C2B-6529-4CED-B343-ACA4588876E4,2023-09-26_12h33.12.343,WP_VExplicitOC_LH,2022.2.5,Win32,32.00102403,53.515625,3.0526,2.0372,NA,NA,NA,NA,NA,frustrated,"frustrated, not frustrated","more frustrated, less frustrated",NA,NA,NA,NA,NA,NA,NA,NA,NA,NA,NA,NA,NA,NA,NA,NA,NA,NA,NA,NA,NA,NA,NA,NA,NA,NA,NA,NA,NA,NA,NA,NA,NA,NA,NA,NA,NA,NA,0,0,0,1,1,NA,NA,NA,NA,NA
SUPAMT42249,NA,671A6C2B-6529-4CED-B343-ACA4588876E4,2023-09-26_12h33.12.343,WP_VExplicitOC_LH,2022.2.5,Win32,32.00102403,53.515625,2.4167,2.0396,NA,NA,NA,NA,NA,bored,"bored, not bored","more bored, less bored",NA,NA,NA,NA,NA,NA,NA,NA,NA,NA,NA,NA,NA,NA,NA,NA,NA,NA,NA,NA,NA,NA,NA,NA,NA,NA,NA,NA,NA,NA,NA,NA,NA,NA,NA,NA,NA,NA,0,1,1,2,1,NA,NA,NA,NA,NA
SUPAMT42249,NA,671A6C2B-6529-4CED-B343-ACA4588876E4,2023-09-26_12h33.12.343,WP_VExplicitOC_LH,2022.2.5,Win32,32.00102403,53.515625,2.232,2.054,NA,NA,NA,NA,NA,happy,"unhappy, happy","less happy, more happy",NA,NA,NA,NA,NA,NA,NA,NA,NA,NA,NA,NA,NA,NA,NA,NA,NA,NA,NA,NA,NA,NA,NA,NA,NA,NA,NA,NA,NA,NA,NA,NA,NA,NA,NA,NA,NA,NA,0,2,2,0,1,NA,NA,NA,NA,NA
SUPAMT42249,NA,671A6C2B-6529-4CED-B343-ACA4588876E4,2023-09-26_12h33.12.343,WP_VExplicitOC_LH,2022.2.5,Win32,32.00102403,NA,NA,NA,NA,NA,NA,NA,NA,NA,NA,NA,NA,NA,NA,NA,NA,NA,NA,NA,NA,NA,NA,NA,NA,NA,NA,NA,NA,NA,NA,NA,NA,NA,NA,NA,NA,NA,NA,NA,NA,NA,NA,NA,NA,NA,NA,NA,NA,NA,NA,NA,NA,NA,NA,9,0,9,0,1
SUPAMT42249,NA,671A6C2B-6529-4CED-B343-ACA4588876E4,2023-09-26_12h33.12.343,WP_VExplicitOC_LH,2022.2.5,Win32,32.00102403,50.78125,3.0017,2.018,NA,NA,NA,NA,NA,happy,"unhappy, happy","less happy, more happy",NA,NA,NA,NA,NA,NA,NA,NA,NA,NA,NA,NA,NA,NA,NA,NA,NA,NA,NA,NA,NA,NA,NA,NA,NA,NA,NA,NA,NA,NA,NA,NA,NA,NA,NA,NA,NA,NA,0,0,0,0,1,NA,NA,NA,NA,NA
SUPAMT42249,NA,671A6C2B-6529-4CED-B343-ACA4588876E4,2023-09-26_12h33.12.343,WP_VExplicitOC_LH,2022.2.5,Win32,32.00102403,50.78125,2.1859,2.0062,NA,NA,NA,NA,NA,bored,"bored, not bored","more bored, less bored",NA,NA,NA,NA,NA,NA,NA,NA,NA,NA,NA,NA,NA,NA,NA,NA,NA,NA,NA,NA,NA,NA,NA,NA,NA,NA,NA,NA,NA,NA,NA,NA,NA,NA,NA,NA,NA,NA,0,1,1,2,1,NA,NA,NA,NA,NA
SUPAMT42249,NA,671A6C2B-6529-4CED-B343-ACA4588876E4,2023-09-26_12h33.12.343,WP_VExplicitOC_LH,2022.2.5,Win32,32.00102403,50.78125,2.2367,2.0488,NA,NA,NA,NA,NA,frustrated,"frustrated, not frustrated","more frustrated, less frustrated",NA,NA,NA,NA,NA,NA,NA,NA,NA,NA,NA,NA,NA,NA,NA,NA,NA,NA,NA,NA,NA,NA,NA,NA,NA,NA,NA,NA,NA,NA,NA,NA,NA,NA,NA,NA,NA,NA,0,2,2,1,1,NA,NA,NA,NA,NA
SUPAMT42249,NA,671A6C2B-6529-4CED-B343-ACA4588876E4,2023-09-26_12h33.12.343,WP_VExplicitOC_LH,2022.2.5,Win32,32.00102403,NA,NA,NA,NA,NA,NA,NA,NA,NA,NA,NA,NA,NA,NA,NA,NA,NA,NA,NA,NA,NA,NA,NA,NA,NA,NA,NA,NA,NA,NA,NA,NA,NA,NA,NA,NA,NA,NA,NA,NA,NA,NA,NA,NA,NA,NA,NA,NA,NA,NA,NA,NA,NA,NA,10,0,10,0,1
SUPAMT42249,NA,671A6C2B-6529-4CED-B343-ACA4588876E4,2023-09-26_12h33.12.343,WP_VExplicitOC_LH,2022.2.5,Win32,32.00102403,45.8984375,3.2573,2.0226,NA,NA,NA,NA,NA,bored,"bored, not bored","more bored, less bored",NA,NA,NA,NA,NA,NA,NA,NA,NA,NA,NA,NA,NA,NA,NA,NA,NA,NA,NA,NA,NA,NA,NA,NA,NA,NA,NA,NA,NA,NA,NA,NA,NA,NA,NA,NA,NA,NA,0,0,0,2,1,NA,NA,NA,NA,NA
SUPAMT42249,NA,671A6C2B-6529-4CED-B343-ACA4588876E4,2023-09-26_12h33.12.343,WP_VExplicitOC_LH,2022.2.5,Win32,32.00102403,46.09375,2.2303,2.0445,NA,NA,NA,NA,NA,happy,"unhappy, happy","less happy, more happy",NA,NA,NA,NA,NA,NA,NA,NA,NA,NA,NA,NA,NA,NA,NA,NA,NA,NA,NA,NA,NA,NA,NA,NA,NA,NA,NA,NA,NA,NA,NA,NA,NA,NA,NA,NA,NA,NA,0,1,1,0,1,NA,NA,NA,NA,NA
SUPAMT42249,NA,671A6C2B-6529-4CED-B343-ACA4588876E4,2023-09-26_12h33.12.343,WP_VExplicitOC_LH,2022.2.5,Win32,32.00102403,46.09375,2.2389,2.0542,NA,NA,NA,NA,NA,frustrated,"frustrated, not frustrated","more frustrated, less frustrated",NA,NA,NA,NA,NA,NA,NA,NA,NA,NA,NA,NA,NA,NA,NA,NA,NA,NA,NA,NA,NA,NA,NA,NA,NA,NA,NA,NA,NA,NA,NA,NA,NA,NA,NA,NA,NA,NA,0,2,2,1,1,NA,NA,NA,NA,NA
SUPAMT42249,NA,671A6C2B-6529-4CED-B343-ACA4588876E4,2023-09-26_12h33.12.343,WP_VExplicitOC_LH,2022.2.5,Win32,32.00102403,NA,NA,NA,NA,NA,NA,NA,NA,NA,NA,NA,NA,NA,NA,NA,NA,NA,NA,NA,NA,NA,NA,NA,NA,NA,NA,NA,NA,NA,NA,NA,NA,NA,NA,NA,NA,NA,NA,NA,NA,NA,NA,NA,NA,NA,NA,NA,NA,NA,NA,NA,NA,NA,NA,11,0,11,0,1
SUPAMT42249,NA,671A6C2B-6529-4CED-B343-ACA4588876E4,2023-09-26_12h33.12.343,WP_VExplicitOC_LH,2022.2.5,Win32,32.00102403,NA,NA,2.0279,NA,NA,NA,NA,NA,bored,"bored, not bored","more bored, less bored",NA,NA,NA,NA,NA,NA,NA,NA,NA,NA,NA,NA,NA,NA,NA,NA,NA,NA,NA,NA,NA,NA,NA,NA,NA,NA,NA,NA,NA,NA,NA,NA,NA,NA,NA,NA,NA,NA,0,0,0,2,1,NA,NA,NA,NA,NA
SUPAMT42249,NA,671A6C2B-6529-4CED-B343-ACA4588876E4,2023-09-26_12h33.12.343,WP_VExplicitOC_LH,2022.2.5,Win32,32.00102403,48.2421875,2.2773,2.0296,NA,NA,NA,NA,NA,happy,"unhappy, happy","less happy, more happy",NA,NA,NA,NA,NA,NA,NA,NA,NA,NA,NA,NA,NA,NA,NA,NA,NA,NA,NA,NA,NA,NA,NA,NA,NA,NA,NA,NA,NA,NA,NA,NA,NA,NA,NA,NA,NA,NA,0,1,1,0,1,NA,NA,NA,NA,NA
SUPAMT42249,NA,671A6C2B-6529-4CED-B343-ACA4588876E4,2023-09-26_12h33.12.343,WP_VExplicitOC_LH,2022.2.5,Win32,32.00102403,48.2421875,2.9037,2.0653,NA,NA,NA,NA,NA,frustrated,"frustrated, not frustrated","more frustrated, less frustrated",NA,NA,NA,NA,NA,NA,NA,NA,NA,NA,NA,NA,NA,NA,NA,NA,NA,NA,NA,NA,NA,NA,NA,NA,NA,NA,NA,NA,NA,NA,NA,NA,NA,NA,NA,NA,NA,NA,0,2,2,1,1,NA,NA,NA,NA,NA
SUPAMT42249,NA,671A6C2B-6529-4CED-B343-ACA4588876E4,2023-09-26_12h33.12.343,WP_VExplicitOC_LH,2022.2.5,Win32,32.00102403,NA,NA,NA,NA,NA,NA,NA,NA,NA,NA,NA,NA,NA,NA,NA,NA,NA,NA,NA,NA,NA,NA,NA,NA,NA,NA,NA,NA,NA,NA,NA,NA,NA,NA,NA,NA,NA,NA,NA,NA,NA,NA,NA,NA,NA,NA,NA,NA,NA,NA,NA,NA,NA,NA,12,0,12,0,1
SUPAMT42249,NA,671A6C2B-6529-4CED-B343-ACA4588876E4,2023-09-26_12h33.12.343,WP_VExplicitOC_LH,2022.2.5,Win32,32.00102403,NA,NA,2.0179,NA,NA,NA,NA,NA,frustrated,"frustrated, not frustrated","more frustrated, less frustrated",NA,NA,NA,NA,NA,NA,NA,NA,NA,NA,NA,NA,NA,NA,NA,NA,NA,NA,NA,NA,NA,NA,NA,NA,NA,NA,NA,NA,NA,NA,NA,NA,NA,NA,NA,NA,NA,NA,0,0,0,1,1,NA,NA,NA,NA,NA
SUPAMT42249,NA,671A6C2B-6529-4CED-B343-ACA4588876E4,2023-09-26_12h33.12.343,WP_VExplicitOC_LH,2022.2.5,Win32,32.00102403,53.90625,3.9302,2.0457,NA,NA,NA,NA,NA,bored,"bored, not bored","more bored, less bored",NA,NA,NA,NA,NA,NA,NA,NA,NA,NA,NA,NA,NA,NA,NA,NA,NA,NA,NA,NA,NA,NA,NA,NA,NA,NA,NA,NA,NA,NA,NA,NA,NA,NA,NA,NA,NA,NA,0,1,1,2,1,NA,NA,NA,NA,NA
SUPAMT42249,NA,671A6C2B-6529-4CED-B343-ACA4588876E4,2023-09-26_12h33.12.343,WP_VExplicitOC_LH,2022.2.5,Win32,32.00102403,53.90625,2.51,2.0481,NA,NA,NA,NA,NA,happy,"unhappy, happy","less happy, more happy",NA,NA,NA,NA,NA,NA,NA,NA,NA,NA,NA,NA,NA,NA,NA,NA,NA,NA,NA,NA,NA,NA,NA,NA,NA,NA,NA,NA,NA,NA,NA,NA,NA,NA,NA,NA,NA,NA,0,2,2,0,1,NA,NA,NA,NA,NA
SUPAMT42249,NA,671A6C2B-6529-4CED-B343-ACA4588876E4,2023-09-26_12h33.12.343,WP_VExplicitOC_LH,2022.2.5,Win32,32.00102403,NA,NA,NA,NA,NA,NA,NA,NA,NA,NA,NA,NA,NA,NA,NA,NA,NA,NA,NA,NA,NA,NA,NA,NA,NA,NA,NA,NA,NA,NA,NA,NA,NA,NA,NA,NA,NA,NA,NA,NA,NA,NA,NA,NA,NA,NA,NA,NA,NA,NA,NA,NA,NA,NA,13,0,13,0,1
SUPAMT42249,NA,671A6C2B-6529-4CED-B343-ACA4588876E4,2023-09-26_12h33.12.343,WP_VExplicitOC_LH,2022.2.5,Win32,32.00102403,28.515625,3.0578,2.04,NA,NA,NA,NA,NA,bored,"bored, not bored","more bored, less bored",NA,NA,NA,NA,NA,NA,NA,NA,NA,NA,NA,NA,NA,NA,NA,NA,NA,NA,NA,NA,NA,NA,NA,NA,NA,NA,NA,NA,NA,NA,NA,NA,NA,NA,NA,NA,NA,NA,0,0,0,2,1,NA,NA,NA,NA,NA
SUPAMT42249,NA,671A6C2B-6529-4CED-B343-ACA4588876E4,2023-09-26_12h33.12.343,WP_VExplicitOC_LH,2022.2.5,Win32,32.00102403,32.2265625,2.4135,2.0448,NA,NA,NA,NA,NA,happy,"unhappy, happy","less happy, more happy",NA,NA,NA,NA,NA,NA,NA,NA,NA,NA,NA,NA,NA,NA,NA,NA,NA,NA,NA,NA,NA,NA,NA,NA,NA,NA,NA,NA,NA,NA,NA,NA,NA,NA,NA,NA,NA,NA,0,1,1,0,1,NA,NA,NA,NA,NA
SUPAMT42249,NA,671A6C2B-6529-4CED-B343-ACA4588876E4,2023-09-26_12h33.12.343,WP_VExplicitOC_LH,2022.2.5,Win32,32.00102403,32.2265625,2.1435,2.0229,NA,NA,NA,NA,NA,frustrated,"frustrated, not frustrated","more frustrated, less frustrated",NA,NA,NA,NA,NA,NA,NA,NA,NA,NA,NA,NA,NA,NA,NA,NA,NA,NA,NA,NA,NA,NA,NA,NA,NA,NA,NA,NA,NA,NA,NA,NA,NA,NA,NA,NA,NA,NA,0,2,2,1,1,NA,NA,NA,NA,NA
SUPAMT42249,NA,671A6C2B-6529-4CED-B343-ACA4588876E4,2023-09-26_12h33.12.343,WP_VExplicitOC_LH,2022.2.5,Win32,32.00102403,NA,NA,NA,NA,NA,NA,NA,NA,NA,NA,NA,NA,NA,NA,NA,NA,NA,NA,NA,NA,NA,NA,NA,NA,NA,NA,NA,NA,NA,NA,NA,NA,NA,NA,NA,NA,NA,NA,NA,NA,NA,NA,NA,NA,NA,NA,NA,NA,NA,NA,NA,NA,NA,NA,14,0,14,0,1
SUPAMT42249,NA,671A6C2B-6529-4CED-B343-ACA4588876E4,2023-09-26_12h33.12.343,WP_VExplicitOC_LH,2022.2.5,Win32,32.00102403,NA,NA,NA,NA,NA,NA,NA,NA,NA,NA,NA,NA,NA,NA,NA,NA,NA,NA,NA,NA,NA,NA,NA,NA,NA,NA,NA,NA,NA,NA,NA,NA,NA,NA,NA,NA,NA,NA,NA,NA,NA,NA,NA,NA,NA,NA,NA,NA,NA,NA,NA,NA,NA,NA,NA,NA,NA,NA,NA
