participant,session,completion,date,expName,psychopyVersion,OS,frameRate,rating_all.response,rating_all.rt,rating_all.tStart,rndRat1.thisRepN,rndRat1.thisTrialN,rndRat1.thisN,rndRat1.thisIndex,rndRat1.ran,Emo,Labs,Labs2,rating_alt.response,rating_alt.rt,AltC.thisRepN,AltC.thisTrialN,AltC.thisN,AltC.thisIndex,AltC.ran,alt_choices,pic_choices,TopAlt_Choice,rndRat2.thisRepN,rndRat2.thisTrialN,rndRat2.thisN,rndRat2.thisIndex,rndRat2.ran,rndRat3.thisRepN,rndRat3.thisTrialN,rndRat3.thisN,rndRat3.thisIndex,rndRat3.ran,trials_FC_H.thisRepN,trials_FC_H.thisTrialN,trials_FC_H.thisN,trials_FC_H.thisIndex,trials_FC_H.ran,rating_alt_2.response,rating_alt_2.rt,AltC2.thisRepN,AltC2.thisTrialN,AltC2.thisN,AltC2.thisIndex,AltC2.ran,BottomAlt_Choice,rndRat4.thisRepN,rndRat4.thisTrialN,rndRat4.thisN,rndRat4.thisIndex,rndRat4.ran,rndRat5.thisRepN,rndRat5.thisTrialN,rndRat5.thisN,rndRat5.thisIndex,rndRat5.ran,trials_FC_L.thisRepN,trials_FC_L.thisTrialN,trials_FC_L.thisN,trials_FC_L.thisIndex,trials_FC_L.ran
SUPAMT80130,3NAPMVF0Z2EZXSXHIJL1O2VIYUL72X,F19E417A-7C75-4560-A115-7507C3B92582,2023-09-26_09h29.59.129,WP_VExplicitOC_HL,2022.2.5,Win32,8,NA,NA,NA,NA,NA,NA,NA,NA,NA,NA,NA,NA,NA,NA,NA,NA,NA,NA,NA,NA,NA,NA,NA,NA,NA,NA,NA,NA,NA,NA,NA,NA,NA,NA,NA,NA,NA,NA,NA,NA,NA,NA,NA,NA,NA,NA,NA,NA,NA,NA,NA,NA,NA,NA,NA,NA,NA,NA,NA
SUPAMT80130,3NAPMVF0Z2EZXSXHIJL1O2VIYUL72X,F19E417A-7C75-4560-A115-7507C3B92582,2023-09-26_09h29.59.129,WP_VExplicitOC_HL,2022.2.5,Win32,8,NA,NA,NA,NA,NA,NA,NA,NA,NA,NA,NA,NA,NA,NA,NA,NA,NA,NA,NA,NA,NA,NA,NA,NA,NA,NA,NA,NA,NA,NA,NA,NA,NA,NA,NA,NA,NA,NA,NA,NA,NA,NA,NA,NA,NA,NA,NA,NA,NA,NA,NA,NA,NA,NA,NA,NA,NA,NA,NA
SUPAMT80130,3NAPMVF0Z2EZXSXHIJL1O2VIYUL72X,F19E417A-7C75-4560-A115-7507C3B92582,2023-09-26_09h29.59.129,WP_VExplicitOC_HL,2022.2.5,Win32,8,NA,NA,NA,NA,NA,NA,NA,NA,NA,NA,NA,NA,NA,NA,NA,NA,NA,NA,NA,NA,NA,NA,NA,NA,NA,NA,NA,NA,NA,NA,NA,NA,NA,NA,NA,NA,NA,NA,NA,NA,NA,NA,NA,NA,NA,NA,NA,NA,NA,NA,NA,NA,NA,NA,NA,NA,NA,NA,NA
SUPAMT80130,3NAPMVF0Z2EZXSXHIJL1O2VIYUL72X,F19E417A-7C75-4560-A115-7507C3B92582,2023-09-26_09h29.59.129,WP_VExplicitOC_HL,2022.2.5,Win32,8,NA,NA,2.098,0,0,0,1,1,frustrated,"frustrated, not frustrated","more frustrated, less frustrated",NA,NA,NA,NA,NA,NA,NA,NA,NA,NA,NA,NA,NA,NA,NA,NA,NA,NA,NA,NA,NA,NA,NA,NA,NA,NA,NA,NA,NA,NA,NA,NA,NA,NA,NA,NA,NA,NA,NA,NA,NA,NA,NA,NA,NA,NA,NA,NA
SUPAMT80130,3NAPMVF0Z2EZXSXHIJL1O2VIYUL72X,F19E417A-7C75-4560-A115-7507C3B92582,2023-09-26_09h29.59.129,WP_VExplicitOC_HL,2022.2.5,Win32,8,73.17708333,5.119,2.142,0,1,1,2,1,bored,"bored, not bored","more bored, less bored",NA,NA,NA,NA,NA,NA,NA,NA,NA,NA,NA,NA,NA,NA,NA,NA,NA,NA,NA,NA,NA,NA,NA,NA,NA,NA,NA,NA,NA,NA,NA,NA,NA,NA,NA,NA,NA,NA,NA,NA,NA,NA,NA,NA,NA,NA,NA,NA
SUPAMT80130,3NAPMVF0Z2EZXSXHIJL1O2VIYUL72X,F19E417A-7C75-4560-A115-7507C3B92582,2023-09-26_09h29.59.129,WP_VExplicitOC_HL,2022.2.5,Win32,8,83.07291667,4.929,2.138,0,2,2,0,1,happy,"unhappy, happy","less happy, more happy",NA,NA,NA,NA,NA,NA,NA,NA,NA,NA,NA,NA,NA,NA,NA,NA,NA,NA,NA,NA,NA,NA,NA,NA,NA,NA,NA,NA,NA,NA,NA,NA,NA,NA,NA,NA,NA,NA,NA,NA,NA,NA,NA,NA,NA,NA,NA,NA
SUPAMT80130,3NAPMVF0Z2EZXSXHIJL1O2VIYUL72X,F19E417A-7C75-4560-A115-7507C3B92582,2023-09-26_09h29.59.129,WP_VExplicitOC_HL,2022.2.5,Win32,8,NA,NA,NA,NA,NA,NA,NA,NA,NA,NA,NA,NA,NA,NA,NA,NA,NA,NA,NA,NA,NA,NA,NA,NA,NA,NA,NA,NA,NA,NA,NA,NA,NA,NA,NA,NA,NA,NA,NA,NA,NA,NA,NA,NA,NA,NA,NA,NA,NA,NA,NA,NA,NA,NA,NA,NA,NA,NA,NA
SUPAMT80130,3NAPMVF0Z2EZXSXHIJL1O2VIYUL72X,F19E417A-7C75-4560-A115-7507C3B92582,2023-09-26_09h29.59.129,WP_VExplicitOC_HL,2022.2.5,Win32,8,NA,NA,NA,NA,NA,NA,NA,NA,NA,NA,NA,NA,NA,NA,NA,NA,NA,NA,NA,NA,NA,NA,NA,NA,NA,NA,NA,NA,NA,NA,NA,NA,NA,NA,NA,NA,NA,NA,NA,NA,NA,NA,NA,NA,NA,NA,NA,NA,NA,NA,NA,NA,NA,NA,NA,NA,NA,NA,NA
SUPAMT80130,3NAPMVF0Z2EZXSXHIJL1O2VIYUL72X,F19E417A-7C75-4560-A115-7507C3B92582,2023-09-26_09h29.59.129,WP_VExplicitOC_HL,2022.2.5,Win32,8,NA,NA,NA,NA,NA,NA,NA,NA,NA,NA,NA,NA,NA,NA,NA,NA,NA,NA,NA,NA,NA,NA,NA,NA,NA,NA,NA,NA,NA,NA,NA,NA,NA,NA,NA,NA,NA,NA,NA,NA,NA,NA,NA,NA,NA,NA,NA,NA,NA,NA,NA,NA,NA,NA,NA,NA,NA,NA,NA
SUPAMT80130,3NAPMVF0Z2EZXSXHIJL1O2VIYUL72X,F19E417A-7C75-4560-A115-7507C3B92582,2023-09-26_09h29.59.129,WP_VExplicitOC_HL,2022.2.5,Win32,8,NA,NA,NA,NA,NA,NA,NA,NA,NA,NA,NA,NA,NA,NA,NA,NA,NA,NA,NA,NA,NA,NA,NA,NA,NA,NA,NA,NA,NA,NA,NA,NA,NA,NA,NA,NA,NA,NA,NA,NA,NA,NA,NA,NA,NA,NA,NA,NA,NA,NA,NA,NA,NA,NA,NA,NA,NA,NA,NA
SUPAMT80130,3NAPMVF0Z2EZXSXHIJL1O2VIYUL72X,F19E417A-7C75-4560-A115-7507C3B92582,2023-09-26_09h29.59.129,WP_VExplicitOC_HL,2022.2.5,Win32,8,NA,NA,NA,NA,NA,NA,NA,NA,NA,NA,NA,89.84375,5.436,0,0,0,0,1,rest (looking at a fixed cross),001.png,NA,NA,NA,NA,NA,NA,NA,NA,NA,NA,NA,NA,NA,NA,NA,NA,NA,NA,NA,NA,NA,NA,NA,NA,NA,NA,NA,NA,NA,NA,NA,NA,NA,NA,NA,NA,NA,NA,NA
SUPAMT80130,3NAPMVF0Z2EZXSXHIJL1O2VIYUL72X,F19E417A-7C75-4560-A115-7507C3B92582,2023-09-26_09h29.59.129,WP_VExplicitOC_HL,2022.2.5,Win32,8,NA,NA,NA,NA,NA,NA,NA,NA,NA,NA,NA,92.70833333,4.764,0,1,1,1,1,stand up,002.png,NA,NA,NA,NA,NA,NA,NA,NA,NA,NA,NA,NA,NA,NA,NA,NA,NA,NA,NA,NA,NA,NA,NA,NA,NA,NA,NA,NA,NA,NA,NA,NA,NA,NA,NA,NA,NA,NA,NA
SUPAMT80130,3NAPMVF0Z2EZXSXHIJL1O2VIYUL72X,F19E417A-7C75-4560-A115-7507C3B92582,2023-09-26_09h29.59.129,WP_VExplicitOC_HL,2022.2.5,Win32,8,NA,NA,NA,NA,NA,NA,NA,NA,NA,NA,NA,85.41666667,3.523,0,2,2,2,1,stretch,003.png,NA,NA,NA,NA,NA,NA,NA,NA,NA,NA,NA,NA,NA,NA,NA,NA,NA,NA,NA,NA,NA,NA,NA,NA,NA,NA,NA,NA,NA,NA,NA,NA,NA,NA,NA,NA,NA,NA,NA
SUPAMT80130,3NAPMVF0Z2EZXSXHIJL1O2VIYUL72X,F19E417A-7C75-4560-A115-7507C3B92582,2023-09-26_09h29.59.129,WP_VExplicitOC_HL,2022.2.5,Win32,8,NA,NA,NA,NA,NA,NA,NA,NA,NA,NA,NA,88.54166667,4.024,0,3,3,3,1,make a drink,004.png,NA,NA,NA,NA,NA,NA,NA,NA,NA,NA,NA,NA,NA,NA,NA,NA,NA,NA,NA,NA,NA,NA,NA,NA,NA,NA,NA,NA,NA,NA,NA,NA,NA,NA,NA,NA,NA,NA,NA
SUPAMT80130,3NAPMVF0Z2EZXSXHIJL1O2VIYUL72X,F19E417A-7C75-4560-A115-7507C3B92582,2023-09-26_09h29.59.129,WP_VExplicitOC_HL,2022.2.5,Win32,8,NA,NA,NA,NA,NA,NA,NA,NA,NA,NA,NA,32.29166667,4.255,0,4,4,4,1,scroll social media,005.png,NA,NA,NA,NA,NA,NA,NA,NA,NA,NA,NA,NA,NA,NA,NA,NA,NA,NA,NA,NA,NA,NA,NA,NA,NA,NA,NA,NA,NA,NA,NA,NA,NA,NA,NA,NA,NA,NA,NA
SUPAMT80130,3NAPMVF0Z2EZXSXHIJL1O2VIYUL72X,F19E417A-7C75-4560-A115-7507C3B92582,2023-09-26_09h29.59.129,WP_VExplicitOC_HL,2022.2.5,Win32,8,NA,NA,NA,NA,NA,NA,NA,NA,NA,NA,NA,41.92708333,1.161,0,5,5,5,1,listen to music,006.png,NA,NA,NA,NA,NA,NA,NA,NA,NA,NA,NA,NA,NA,NA,NA,NA,NA,NA,NA,NA,NA,NA,NA,NA,NA,NA,NA,NA,NA,NA,NA,NA,NA,NA,NA,NA,NA,NA,NA
SUPAMT80130,3NAPMVF0Z2EZXSXHIJL1O2VIYUL72X,F19E417A-7C75-4560-A115-7507C3B92582,2023-09-26_09h29.59.129,WP_VExplicitOC_HL,2022.2.5,Win32,8,NA,NA,NA,NA,NA,NA,NA,NA,NA,NA,NA,99.21875,2.293,0,6,6,6,1,daydream,007.png,NA,NA,NA,NA,NA,NA,NA,NA,NA,NA,NA,NA,NA,NA,NA,NA,NA,NA,NA,NA,NA,NA,NA,NA,NA,NA,NA,NA,NA,NA,NA,NA,NA,NA,NA,NA,NA,NA,NA
SUPAMT80130,3NAPMVF0Z2EZXSXHIJL1O2VIYUL72X,F19E417A-7C75-4560-A115-7507C3B92582,2023-09-26_09h29.59.129,WP_VExplicitOC_HL,2022.2.5,Win32,8,NA,NA,NA,NA,NA,NA,NA,NA,NA,NA,NA,99.21875,3.53,0,7,7,7,1,watch a short animation,008.png,NA,NA,NA,NA,NA,NA,NA,NA,NA,NA,NA,NA,NA,NA,NA,NA,NA,NA,NA,NA,NA,NA,NA,NA,NA,NA,NA,NA,NA,NA,NA,NA,NA,NA,NA,NA,NA,NA,NA
SUPAMT80130,3NAPMVF0Z2EZXSXHIJL1O2VIYUL72X,F19E417A-7C75-4560-A115-7507C3B92582,2023-09-26_09h29.59.129,WP_VExplicitOC_HL,2022.2.5,Win32,8,NA,NA,NA,NA,NA,NA,NA,NA,NA,NA,NA,83.85416667,3.413,0,8,8,8,1,read a novel,009.png,NA,NA,NA,NA,NA,NA,NA,NA,NA,NA,NA,NA,NA,NA,NA,NA,NA,NA,NA,NA,NA,NA,NA,NA,NA,NA,NA,NA,NA,NA,NA,NA,NA,NA,NA,NA,NA,NA,NA
SUPAMT80130,3NAPMVF0Z2EZXSXHIJL1O2VIYUL72X,F19E417A-7C75-4560-A115-7507C3B92582,2023-09-26_09h29.59.129,WP_VExplicitOC_HL,2022.2.5,Win32,8,NA,NA,NA,NA,NA,NA,NA,NA,NA,NA,NA,45.3125,3.67,0,9,9,9,1,read the news,010.png,NA,NA,NA,NA,NA,NA,NA,NA,NA,NA,NA,NA,NA,NA,NA,NA,NA,NA,NA,NA,NA,NA,NA,NA,NA,NA,NA,NA,NA,NA,NA,NA,NA,NA,NA,NA,NA,NA,NA
SUPAMT80130,3NAPMVF0Z2EZXSXHIJL1O2VIYUL72X,F19E417A-7C75-4560-A115-7507C3B92582,2023-09-26_09h29.59.129,WP_VExplicitOC_HL,2022.2.5,Win32,8,NA,NA,NA,NA,NA,NA,NA,NA,NA,NA,NA,NA,NA,NA,NA,NA,NA,NA,NA,NA,NA,NA,NA,NA,NA,NA,NA,NA,NA,NA,NA,NA,NA,NA,NA,NA,NA,NA,NA,NA,NA,NA,NA,NA,NA,NA,NA,NA,NA,NA,NA,NA,NA,NA,NA,NA,NA,NA,NA
SUPAMT80130,3NAPMVF0Z2EZXSXHIJL1O2VIYUL72X,F19E417A-7C75-4560-A115-7507C3B92582,2023-09-26_09h29.59.129,WP_VExplicitOC_HL,2022.2.5,Win32,8,NA,NA,NA,NA,NA,NA,NA,NA,NA,NA,NA,NA,NA,NA,NA,NA,NA,NA,NA,NA,daydream,NA,NA,NA,NA,NA,NA,NA,NA,NA,NA,NA,NA,NA,NA,NA,NA,NA,NA,NA,NA,NA,NA,NA,NA,NA,NA,NA,NA,NA,NA,NA,NA,NA,NA,NA,NA,NA,NA
SUPAMT80130,3NAPMVF0Z2EZXSXHIJL1O2VIYUL72X,F19E417A-7C75-4560-A115-7507C3B92582,2023-09-26_09h29.59.129,WP_VExplicitOC_HL,2022.2.5,Win32,8,90.10416667,5.879,2.146,NA,NA,NA,NA,NA,bored,"bored, not bored","more bored, less bored",NA,NA,NA,NA,NA,NA,NA,NA,NA,NA,0,0,0,2,1,NA,NA,NA,NA,NA,NA,NA,NA,NA,NA,NA,NA,NA,NA,NA,NA,NA,NA,NA,NA,NA,NA,NA,NA,NA,NA,NA,NA,NA,NA,NA,NA,NA
SUPAMT80130,3NAPMVF0Z2EZXSXHIJL1O2VIYUL72X,F19E417A-7C75-4560-A115-7507C3B92582,2023-09-26_09h29.59.129,WP_VExplicitOC_HL,2022.2.5,Win32,8,95.3125,5.223,2.145,NA,NA,NA,NA,NA,happy,"unhappy, happy","less happy, more happy",NA,NA,NA,NA,NA,NA,NA,NA,NA,NA,0,1,1,0,1,NA,NA,NA,NA,NA,NA,NA,NA,NA,NA,NA,NA,NA,NA,NA,NA,NA,NA,NA,NA,NA,NA,NA,NA,NA,NA,NA,NA,NA,NA,NA,NA,NA
SUPAMT80130,3NAPMVF0Z2EZXSXHIJL1O2VIYUL72X,F19E417A-7C75-4560-A115-7507C3B92582,2023-09-26_09h29.59.129,WP_VExplicitOC_HL,2022.2.5,Win32,8,88.28125,5.888,2.151,NA,NA,NA,NA,NA,frustrated,"frustrated, not frustrated","more frustrated, less frustrated",NA,NA,NA,NA,NA,NA,NA,NA,NA,NA,0,2,2,1,1,NA,NA,NA,NA,NA,NA,NA,NA,NA,NA,NA,NA,NA,NA,NA,NA,NA,NA,NA,NA,NA,NA,NA,NA,NA,NA,NA,NA,NA,NA,NA,NA,NA
SUPAMT80130,3NAPMVF0Z2EZXSXHIJL1O2VIYUL72X,F19E417A-7C75-4560-A115-7507C3B92582,2023-09-26_09h29.59.129,WP_VExplicitOC_HL,2022.2.5,Win32,8,NA,NA,NA,NA,NA,NA,NA,NA,NA,NA,NA,NA,NA,NA,NA,NA,NA,NA,NA,NA,NA,NA,NA,NA,NA,NA,NA,NA,NA,NA,NA,NA,NA,NA,NA,NA,NA,NA,NA,NA,NA,NA,NA,NA,NA,NA,NA,NA,NA,NA,NA,NA,NA,NA,NA,NA,NA,NA,NA
SUPAMT80130,3NAPMVF0Z2EZXSXHIJL1O2VIYUL72X,F19E417A-7C75-4560-A115-7507C3B92582,2023-09-26_09h29.59.129,WP_VExplicitOC_HL,2022.2.5,Win32,8,NA,NA,NA,NA,NA,NA,NA,NA,NA,NA,NA,NA,NA,NA,NA,NA,NA,NA,NA,NA,NA,NA,NA,NA,NA,NA,NA,NA,NA,NA,NA,NA,NA,NA,NA,NA,NA,NA,NA,NA,NA,NA,NA,NA,NA,NA,NA,NA,NA,NA,NA,NA,NA,NA,NA,NA,NA,NA,NA
SUPAMT80130,3NAPMVF0Z2EZXSXHIJL1O2VIYUL72X,F19E417A-7C75-4560-A115-7507C3B92582,2023-09-26_09h29.59.129,WP_VExplicitOC_HL,2022.2.5,Win32,8,90.88,4.348,2.032,NA,NA,NA,NA,NA,happy,"unhappy, happy","less happy, more happy",NA,NA,NA,NA,NA,NA,NA,NA,NA,NA,NA,NA,NA,NA,NA,0,0,0,0,1,NA,NA,NA,NA,NA,NA,NA,NA,NA,NA,NA,NA,NA,NA,NA,NA,NA,NA,NA,NA,NA,NA,NA,NA,NA,NA,NA,NA
SUPAMT80130,3NAPMVF0Z2EZXSXHIJL1O2VIYUL72X,F19E417A-7C75-4560-A115-7507C3B92582,2023-09-26_09h29.59.129,WP_VExplicitOC_HL,2022.2.5,Win32,8,96.32,4.231,2.125,NA,NA,NA,NA,NA,frustrated,"frustrated, not frustrated","more frustrated, less frustrated",NA,NA,NA,NA,NA,NA,NA,NA,NA,NA,NA,NA,NA,NA,NA,0,1,1,1,1,NA,NA,NA,NA,NA,NA,NA,NA,NA,NA,NA,NA,NA,NA,NA,NA,NA,NA,NA,NA,NA,NA,NA,NA,NA,NA,NA,NA
SUPAMT80130,3NAPMVF0Z2EZXSXHIJL1O2VIYUL72X,F19E417A-7C75-4560-A115-7507C3B92582,2023-09-26_09h29.59.129,WP_VExplicitOC_HL,2022.2.5,Win32,8,100,4.703,2.07,NA,NA,NA,NA,NA,bored,"bored, not bored","more bored, less bored",NA,NA,NA,NA,NA,NA,NA,NA,NA,NA,NA,NA,NA,NA,NA,0,2,2,2,1,NA,NA,NA,NA,NA,NA,NA,NA,NA,NA,NA,NA,NA,NA,NA,NA,NA,NA,NA,NA,NA,NA,NA,NA,NA,NA,NA,NA
SUPAMT80130,3NAPMVF0Z2EZXSXHIJL1O2VIYUL72X,F19E417A-7C75-4560-A115-7507C3B92582,2023-09-26_09h29.59.129,WP_VExplicitOC_HL,2022.2.5,Win32,8,NA,NA,NA,NA,NA,NA,NA,NA,NA,NA,NA,NA,NA,NA,NA,NA,NA,NA,NA,NA,NA,NA,NA,NA,NA,NA,NA,NA,NA,NA,NA,0,0,0,0,1,NA,NA,NA,NA,NA,NA,NA,NA,NA,NA,NA,NA,NA,NA,NA,NA,NA,NA,NA,NA,NA,NA,NA
SUPAMT80130,3NAPMVF0Z2EZXSXHIJL1O2VIYUL72X,F19E417A-7C75-4560-A115-7507C3B92582,2023-09-26_09h29.59.129,WP_VExplicitOC_HL,2022.2.5,Win32,8,78.4,4.545,2.013,NA,NA,NA,NA,NA,happy,"unhappy, happy","less happy, more happy",NA,NA,NA,NA,NA,NA,NA,NA,NA,NA,NA,NA,NA,NA,NA,0,0,0,0,1,NA,NA,NA,NA,NA,NA,NA,NA,NA,NA,NA,NA,NA,NA,NA,NA,NA,NA,NA,NA,NA,NA,NA,NA,NA,NA,NA,NA
SUPAMT80130,3NAPMVF0Z2EZXSXHIJL1O2VIYUL72X,F19E417A-7C75-4560-A115-7507C3B92582,2023-09-26_09h29.59.129,WP_VExplicitOC_HL,2022.2.5,Win32,8,87.04,4.536,2.034,NA,NA,NA,NA,NA,frustrated,"frustrated, not frustrated","more frustrated, less frustrated",NA,NA,NA,NA,NA,NA,NA,NA,NA,NA,NA,NA,NA,NA,NA,0,1,1,1,1,NA,NA,NA,NA,NA,NA,NA,NA,NA,NA,NA,NA,NA,NA,NA,NA,NA,NA,NA,NA,NA,NA,NA,NA,NA,NA,NA,NA
SUPAMT80130,3NAPMVF0Z2EZXSXHIJL1O2VIYUL72X,F19E417A-7C75-4560-A115-7507C3B92582,2023-09-26_09h29.59.129,WP_VExplicitOC_HL,2022.2.5,Win32,8,99.2,5.287,2.037,NA,NA,NA,NA,NA,bored,"bored, not bored","more bored, less bored",NA,NA,NA,NA,NA,NA,NA,NA,NA,NA,NA,NA,NA,NA,NA,0,2,2,2,1,NA,NA,NA,NA,NA,NA,NA,NA,NA,NA,NA,NA,NA,NA,NA,NA,NA,NA,NA,NA,NA,NA,NA,NA,NA,NA,NA,NA
SUPAMT80130,3NAPMVF0Z2EZXSXHIJL1O2VIYUL72X,F19E417A-7C75-4560-A115-7507C3B92582,2023-09-26_09h29.59.129,WP_VExplicitOC_HL,2022.2.5,Win32,8,NA,NA,NA,NA,NA,NA,NA,NA,NA,NA,NA,NA,NA,NA,NA,NA,NA,NA,NA,NA,NA,NA,NA,NA,NA,NA,NA,NA,NA,NA,NA,1,0,1,0,1,NA,NA,NA,NA,NA,NA,NA,NA,NA,NA,NA,NA,NA,NA,NA,NA,NA,NA,NA,NA,NA,NA,NA
SUPAMT80130,3NAPMVF0Z2EZXSXHIJL1O2VIYUL72X,F19E417A-7C75-4560-A115-7507C3B92582,2023-09-26_09h29.59.129,WP_VExplicitOC_HL,2022.2.5,Win32,8,-29.44,5.292,2.046,NA,NA,NA,NA,NA,frustrated,"frustrated, not frustrated","more frustrated, less frustrated",NA,NA,NA,NA,NA,NA,NA,NA,NA,NA,NA,NA,NA,NA,NA,0,0,0,1,1,NA,NA,NA,NA,NA,NA,NA,NA,NA,NA,NA,NA,NA,NA,NA,NA,NA,NA,NA,NA,NA,NA,NA,NA,NA,NA,NA,NA
SUPAMT80130,3NAPMVF0Z2EZXSXHIJL1O2VIYUL72X,F19E417A-7C75-4560-A115-7507C3B92582,2023-09-26_09h29.59.129,WP_VExplicitOC_HL,2022.2.5,Win32,8,88.32,5,2.116,NA,NA,NA,NA,NA,happy,"unhappy, happy","less happy, more happy",NA,NA,NA,NA,NA,NA,NA,NA,NA,NA,NA,NA,NA,NA,NA,0,1,1,0,1,NA,NA,NA,NA,NA,NA,NA,NA,NA,NA,NA,NA,NA,NA,NA,NA,NA,NA,NA,NA,NA,NA,NA,NA,NA,NA,NA,NA
SUPAMT80130,3NAPMVF0Z2EZXSXHIJL1O2VIYUL72X,F19E417A-7C75-4560-A115-7507C3B92582,2023-09-26_09h29.59.129,WP_VExplicitOC_HL,2022.2.5,Win32,8,100,5.34,2.03,NA,NA,NA,NA,NA,bored,"bored, not bored","more bored, less bored",NA,NA,NA,NA,NA,NA,NA,NA,NA,NA,NA,NA,NA,NA,NA,0,2,2,2,1,NA,NA,NA,NA,NA,NA,NA,NA,NA,NA,NA,NA,NA,NA,NA,NA,NA,NA,NA,NA,NA,NA,NA,NA,NA,NA,NA,NA
SUPAMT80130,3NAPMVF0Z2EZXSXHIJL1O2VIYUL72X,F19E417A-7C75-4560-A115-7507C3B92582,2023-09-26_09h29.59.129,WP_VExplicitOC_HL,2022.2.5,Win32,8,NA,NA,NA,NA,NA,NA,NA,NA,NA,NA,NA,NA,NA,NA,NA,NA,NA,NA,NA,NA,NA,NA,NA,NA,NA,NA,NA,NA,NA,NA,NA,2,0,2,0,1,NA,NA,NA,NA,NA,NA,NA,NA,NA,NA,NA,NA,NA,NA,NA,NA,NA,NA,NA,NA,NA,NA,NA
SUPAMT80130,3NAPMVF0Z2EZXSXHIJL1O2VIYUL72X,F19E417A-7C75-4560-A115-7507C3B92582,2023-09-26_09h29.59.129,WP_VExplicitOC_HL,2022.2.5,Win32,8,54.72,5.284,2.027,NA,NA,NA,NA,NA,bored,"bored, not bored","more bored, less bored",NA,NA,NA,NA,NA,NA,NA,NA,NA,NA,NA,NA,NA,NA,NA,0,0,0,2,1,NA,NA,NA,NA,NA,NA,NA,NA,NA,NA,NA,NA,NA,NA,NA,NA,NA,NA,NA,NA,NA,NA,NA,NA,NA,NA,NA,NA
SUPAMT80130,3NAPMVF0Z2EZXSXHIJL1O2VIYUL72X,F19E417A-7C75-4560-A115-7507C3B92582,2023-09-26_09h29.59.129,WP_VExplicitOC_HL,2022.2.5,Win32,8,76.48,4.655,2.059,NA,NA,NA,NA,NA,frustrated,"frustrated, not frustrated","more frustrated, less frustrated",NA,NA,NA,NA,NA,NA,NA,NA,NA,NA,NA,NA,NA,NA,NA,0,1,1,1,1,NA,NA,NA,NA,NA,NA,NA,NA,NA,NA,NA,NA,NA,NA,NA,NA,NA,NA,NA,NA,NA,NA,NA,NA,NA,NA,NA,NA
SUPAMT80130,3NAPMVF0Z2EZXSXHIJL1O2VIYUL72X,F19E417A-7C75-4560-A115-7507C3B92582,2023-09-26_09h29.59.129,WP_VExplicitOC_HL,2022.2.5,Win32,8,77.12,5.788,2.062,NA,NA,NA,NA,NA,happy,"unhappy, happy","less happy, more happy",NA,NA,NA,NA,NA,NA,NA,NA,NA,NA,NA,NA,NA,NA,NA,0,2,2,0,1,NA,NA,NA,NA,NA,NA,NA,NA,NA,NA,NA,NA,NA,NA,NA,NA,NA,NA,NA,NA,NA,NA,NA,NA,NA,NA,NA,NA
SUPAMT80130,3NAPMVF0Z2EZXSXHIJL1O2VIYUL72X,F19E417A-7C75-4560-A115-7507C3B92582,2023-09-26_09h29.59.129,WP_VExplicitOC_HL,2022.2.5,Win32,8,NA,NA,NA,NA,NA,NA,NA,NA,NA,NA,NA,NA,NA,NA,NA,NA,NA,NA,NA,NA,NA,NA,NA,NA,NA,NA,NA,NA,NA,NA,NA,3,0,3,0,1,NA,NA,NA,NA,NA,NA,NA,NA,NA,NA,NA,NA,NA,NA,NA,NA,NA,NA,NA,NA,NA,NA,NA
SUPAMT80130,3NAPMVF0Z2EZXSXHIJL1O2VIYUL72X,F19E417A-7C75-4560-A115-7507C3B92582,2023-09-26_09h29.59.129,WP_VExplicitOC_HL,2022.2.5,Win32,8,-44.48,5.56,2.095,NA,NA,NA,NA,NA,bored,"bored, not bored","more bored, less bored",NA,NA,NA,NA,NA,NA,NA,NA,NA,NA,NA,NA,NA,NA,NA,0,0,0,2,1,NA,NA,NA,NA,NA,NA,NA,NA,NA,NA,NA,NA,NA,NA,NA,NA,NA,NA,NA,NA,NA,NA,NA,NA,NA,NA,NA,NA
SUPAMT80130,3NAPMVF0Z2EZXSXHIJL1O2VIYUL72X,F19E417A-7C75-4560-A115-7507C3B92582,2023-09-26_09h29.59.129,WP_VExplicitOC_HL,2022.2.5,Win32,8,50.88,6.563,2.095,NA,NA,NA,NA,NA,happy,"unhappy, happy","less happy, more happy",NA,NA,NA,NA,NA,NA,NA,NA,NA,NA,NA,NA,NA,NA,NA,0,1,1,0,1,NA,NA,NA,NA,NA,NA,NA,NA,NA,NA,NA,NA,NA,NA,NA,NA,NA,NA,NA,NA,NA,NA,NA,NA,NA,NA,NA,NA
SUPAMT80130,3NAPMVF0Z2EZXSXHIJL1O2VIYUL72X,F19E417A-7C75-4560-A115-7507C3B92582,2023-09-26_09h29.59.129,WP_VExplicitOC_HL,2022.2.5,Win32,8,-34.88,5.188,2.051,NA,NA,NA,NA,NA,frustrated,"frustrated, not frustrated","more frustrated, less frustrated",NA,NA,NA,NA,NA,NA,NA,NA,NA,NA,NA,NA,NA,NA,NA,0,2,2,1,1,NA,NA,NA,NA,NA,NA,NA,NA,NA,NA,NA,NA,NA,NA,NA,NA,NA,NA,NA,NA,NA,NA,NA,NA,NA,NA,NA,NA
SUPAMT80130,3NAPMVF0Z2EZXSXHIJL1O2VIYUL72X,F19E417A-7C75-4560-A115-7507C3B92582,2023-09-26_09h29.59.129,WP_VExplicitOC_HL,2022.2.5,Win32,8,NA,NA,NA,NA,NA,NA,NA,NA,NA,NA,NA,NA,NA,NA,NA,NA,NA,NA,NA,NA,NA,NA,NA,NA,NA,NA,NA,NA,NA,NA,NA,4,0,4,0,1,NA,NA,NA,NA,NA,NA,NA,NA,NA,NA,NA,NA,NA,NA,NA,NA,NA,NA,NA,NA,NA,NA,NA
SUPAMT80130,3NAPMVF0Z2EZXSXHIJL1O2VIYUL72X,F19E417A-7C75-4560-A115-7507C3B92582,2023-09-26_09h29.59.129,WP_VExplicitOC_HL,2022.2.5,Win32,8,-100,4.752,2.002,NA,NA,NA,NA,NA,frustrated,"frustrated, not frustrated","more frustrated, less frustrated",NA,NA,NA,NA,NA,NA,NA,NA,NA,NA,NA,NA,NA,NA,NA,0,0,0,1,1,NA,NA,NA,NA,NA,NA,NA,NA,NA,NA,NA,NA,NA,NA,NA,NA,NA,NA,NA,NA,NA,NA,NA,NA,NA,NA,NA,NA
SUPAMT80130,3NAPMVF0Z2EZXSXHIJL1O2VIYUL72X,F19E417A-7C75-4560-A115-7507C3B92582,2023-09-26_09h29.59.129,WP_VExplicitOC_HL,2022.2.5,Win32,8,70.72,4.091,2.095,NA,NA,NA,NA,NA,happy,"unhappy, happy","less happy, more happy",NA,NA,NA,NA,NA,NA,NA,NA,NA,NA,NA,NA,NA,NA,NA,0,1,1,0,1,NA,NA,NA,NA,NA,NA,NA,NA,NA,NA,NA,NA,NA,NA,NA,NA,NA,NA,NA,NA,NA,NA,NA,NA,NA,NA,NA,NA
SUPAMT80130,3NAPMVF0Z2EZXSXHIJL1O2VIYUL72X,F19E417A-7C75-4560-A115-7507C3B92582,2023-09-26_09h29.59.129,WP_VExplicitOC_HL,2022.2.5,Win32,8,60.8,4.433,2.108,NA,NA,NA,NA,NA,bored,"bored, not bored","more bored, less bored",NA,NA,NA,NA,NA,NA,NA,NA,NA,NA,NA,NA,NA,NA,NA,0,2,2,2,1,NA,NA,NA,NA,NA,NA,NA,NA,NA,NA,NA,NA,NA,NA,NA,NA,NA,NA,NA,NA,NA,NA,NA,NA,NA,NA,NA,NA
SUPAMT80130,3NAPMVF0Z2EZXSXHIJL1O2VIYUL72X,F19E417A-7C75-4560-A115-7507C3B92582,2023-09-26_09h29.59.129,WP_VExplicitOC_HL,2022.2.5,Win32,8,NA,NA,NA,NA,NA,NA,NA,NA,NA,NA,NA,NA,NA,NA,NA,NA,NA,NA,NA,NA,NA,NA,NA,NA,NA,NA,NA,NA,NA,NA,NA,5,0,5,0,1,NA,NA,NA,NA,NA,NA,NA,NA,NA,NA,NA,NA,NA,NA,NA,NA,NA,NA,NA,NA,NA,NA,NA
SUPAMT80130,3NAPMVF0Z2EZXSXHIJL1O2VIYUL72X,F19E417A-7C75-4560-A115-7507C3B92582,2023-09-26_09h29.59.129,WP_VExplicitOC_HL,2022.2.5,Win32,8,100,5.574,2.148,NA,NA,NA,NA,NA,frustrated,"frustrated, not frustrated","more frustrated, less frustrated",NA,NA,NA,NA,NA,NA,NA,NA,NA,NA,NA,NA,NA,NA,NA,0,0,0,1,1,NA,NA,NA,NA,NA,NA,NA,NA,NA,NA,NA,NA,NA,NA,NA,NA,NA,NA,NA,NA,NA,NA,NA,NA,NA,NA,NA,NA
SUPAMT80130,3NAPMVF0Z2EZXSXHIJL1O2VIYUL72X,F19E417A-7C75-4560-A115-7507C3B92582,2023-09-26_09h29.59.129,WP_VExplicitOC_HL,2022.2.5,Win32,8,98.17708333,5.371,2.082,NA,NA,NA,NA,NA,bored,"bored, not bored","more bored, less bored",NA,NA,NA,NA,NA,NA,NA,NA,NA,NA,NA,NA,NA,NA,NA,0,1,1,2,1,NA,NA,NA,NA,NA,NA,NA,NA,NA,NA,NA,NA,NA,NA,NA,NA,NA,NA,NA,NA,NA,NA,NA,NA,NA,NA,NA,NA
SUPAMT80130,3NAPMVF0Z2EZXSXHIJL1O2VIYUL72X,F19E417A-7C75-4560-A115-7507C3B92582,2023-09-26_09h29.59.129,WP_VExplicitOC_HL,2022.2.5,Win32,8,100,5.287,2.084,NA,NA,NA,NA,NA,happy,"unhappy, happy","less happy, more happy",NA,NA,NA,NA,NA,NA,NA,NA,NA,NA,NA,NA,NA,NA,NA,0,2,2,0,1,NA,NA,NA,NA,NA,NA,NA,NA,NA,NA,NA,NA,NA,NA,NA,NA,NA,NA,NA,NA,NA,NA,NA,NA,NA,NA,NA,NA
SUPAMT80130,3NAPMVF0Z2EZXSXHIJL1O2VIYUL72X,F19E417A-7C75-4560-A115-7507C3B92582,2023-09-26_09h29.59.129,WP_VExplicitOC_HL,2022.2.5,Win32,8,NA,NA,NA,NA,NA,NA,NA,NA,NA,NA,NA,NA,NA,NA,NA,NA,NA,NA,NA,NA,NA,NA,NA,NA,NA,NA,NA,NA,NA,NA,NA,6,0,6,0,1,NA,NA,NA,NA,NA,NA,NA,NA,NA,NA,NA,NA,NA,NA,NA,NA,NA,NA,NA,NA,NA,NA,NA
SUPAMT80130,3NAPMVF0Z2EZXSXHIJL1O2VIYUL72X,F19E417A-7C75-4560-A115-7507C3B92582,2023-09-26_09h29.59.129,WP_VExplicitOC_HL,2022.2.5,Win32,8,-100,7.043,2.103,NA,NA,NA,NA,NA,bored,"bored, not bored","more bored, less bored",NA,NA,NA,NA,NA,NA,NA,NA,NA,NA,NA,NA,NA,NA,NA,0,0,0,2,1,NA,NA,NA,NA,NA,NA,NA,NA,NA,NA,NA,NA,NA,NA,NA,NA,NA,NA,NA,NA,NA,NA,NA,NA,NA,NA,NA,NA
SUPAMT80130,3NAPMVF0Z2EZXSXHIJL1O2VIYUL72X,F19E417A-7C75-4560-A115-7507C3B92582,2023-09-26_09h29.59.129,WP_VExplicitOC_HL,2022.2.5,Win32,8,NA,NA,2.102,NA,NA,NA,NA,NA,happy,"unhappy, happy","less happy, more happy",NA,NA,NA,NA,NA,NA,NA,NA,NA,NA,NA,NA,NA,NA,NA,0,1,1,0,1,NA,NA,NA,NA,NA,NA,NA,NA,NA,NA,NA,NA,NA,NA,NA,NA,NA,NA,NA,NA,NA,NA,NA,NA,NA,NA,NA,NA
SUPAMT80130,3NAPMVF0Z2EZXSXHIJL1O2VIYUL72X,F19E417A-7C75-4560-A115-7507C3B92582,2023-09-26_09h29.59.129,WP_VExplicitOC_HL,2022.2.5,Win32,8,-100,6.048,2.101,NA,NA,NA,NA,NA,frustrated,"frustrated, not frustrated","more frustrated, less frustrated",NA,NA,NA,NA,NA,NA,NA,NA,NA,NA,NA,NA,NA,NA,NA,0,2,2,1,1,NA,NA,NA,NA,NA,NA,NA,NA,NA,NA,NA,NA,NA,NA,NA,NA,NA,NA,NA,NA,NA,NA,NA,NA,NA,NA,NA,NA
SUPAMT80130,3NAPMVF0Z2EZXSXHIJL1O2VIYUL72X,F19E417A-7C75-4560-A115-7507C3B92582,2023-09-26_09h29.59.129,WP_VExplicitOC_HL,2022.2.5,Win32,8,NA,NA,NA,NA,NA,NA,NA,NA,NA,NA,NA,NA,NA,NA,NA,NA,NA,NA,NA,NA,NA,NA,NA,NA,NA,NA,NA,NA,NA,NA,NA,7,0,7,0,1,NA,NA,NA,NA,NA,NA,NA,NA,NA,NA,NA,NA,NA,NA,NA,NA,NA,NA,NA,NA,NA,NA,NA
SUPAMT80130,3NAPMVF0Z2EZXSXHIJL1O2VIYUL72X,F19E417A-7C75-4560-A115-7507C3B92582,2023-09-26_09h29.59.129,WP_VExplicitOC_HL,2022.2.5,Win32,8,100,6.306,2.147,NA,NA,NA,NA,NA,frustrated,"frustrated, not frustrated","more frustrated, less frustrated",NA,NA,NA,NA,NA,NA,NA,NA,NA,NA,NA,NA,NA,NA,NA,0,0,0,1,1,NA,NA,NA,NA,NA,NA,NA,NA,NA,NA,NA,NA,NA,NA,NA,NA,NA,NA,NA,NA,NA,NA,NA,NA,NA,NA,NA,NA
SUPAMT80130,3NAPMVF0Z2EZXSXHIJL1O2VIYUL72X,F19E417A-7C75-4560-A115-7507C3B92582,2023-09-26_09h29.59.129,WP_VExplicitOC_HL,2022.2.5,Win32,8,100,5.169,2.031,NA,NA,NA,NA,NA,bored,"bored, not bored","more bored, less bored",NA,NA,NA,NA,NA,NA,NA,NA,NA,NA,NA,NA,NA,NA,NA,0,1,1,2,1,NA,NA,NA,NA,NA,NA,NA,NA,NA,NA,NA,NA,NA,NA,NA,NA,NA,NA,NA,NA,NA,NA,NA,NA,NA,NA,NA,NA
SUPAMT80130,3NAPMVF0Z2EZXSXHIJL1O2VIYUL72X,F19E417A-7C75-4560-A115-7507C3B92582,2023-09-26_09h29.59.129,WP_VExplicitOC_HL,2022.2.5,Win32,8,94.27083333,7.055,2.096,NA,NA,NA,NA,NA,happy,"unhappy, happy","less happy, more happy",NA,NA,NA,NA,NA,NA,NA,NA,NA,NA,NA,NA,NA,NA,NA,0,2,2,0,1,NA,NA,NA,NA,NA,NA,NA,NA,NA,NA,NA,NA,NA,NA,NA,NA,NA,NA,NA,NA,NA,NA,NA,NA,NA,NA,NA,NA
SUPAMT80130,3NAPMVF0Z2EZXSXHIJL1O2VIYUL72X,F19E417A-7C75-4560-A115-7507C3B92582,2023-09-26_09h29.59.129,WP_VExplicitOC_HL,2022.2.5,Win32,8,NA,NA,NA,NA,NA,NA,NA,NA,NA,NA,NA,NA,NA,NA,NA,NA,NA,NA,NA,NA,NA,NA,NA,NA,NA,NA,NA,NA,NA,NA,NA,8,0,8,0,1,NA,NA,NA,NA,NA,NA,NA,NA,NA,NA,NA,NA,NA,NA,NA,NA,NA,NA,NA,NA,NA,NA,NA
SUPAMT80130,3NAPMVF0Z2EZXSXHIJL1O2VIYUL72X,F19E417A-7C75-4560-A115-7507C3B92582,2023-09-26_09h29.59.129,WP_VExplicitOC_HL,2022.2.5,Win32,8,-100,5.005,2.067,NA,NA,NA,NA,NA,bored,"bored, not bored","more bored, less bored",NA,NA,NA,NA,NA,NA,NA,NA,NA,NA,NA,NA,NA,NA,NA,0,0,0,2,1,NA,NA,NA,NA,NA,NA,NA,NA,NA,NA,NA,NA,NA,NA,NA,NA,NA,NA,NA,NA,NA,NA,NA,NA,NA,NA,NA,NA
SUPAMT80130,3NAPMVF0Z2EZXSXHIJL1O2VIYUL72X,F19E417A-7C75-4560-A115-7507C3B92582,2023-09-26_09h29.59.129,WP_VExplicitOC_HL,2022.2.5,Win32,8,-98.4375,4.394,2.108,NA,NA,NA,NA,NA,frustrated,"frustrated, not frustrated","more frustrated, less frustrated",NA,NA,NA,NA,NA,NA,NA,NA,NA,NA,NA,NA,NA,NA,NA,0,1,1,1,1,NA,NA,NA,NA,NA,NA,NA,NA,NA,NA,NA,NA,NA,NA,NA,NA,NA,NA,NA,NA,NA,NA,NA,NA,NA,NA,NA,NA
SUPAMT80130,3NAPMVF0Z2EZXSXHIJL1O2VIYUL72X,F19E417A-7C75-4560-A115-7507C3B92582,2023-09-26_09h29.59.129,WP_VExplicitOC_HL,2022.2.5,Win32,8,-100,5.23,2.104,NA,NA,NA,NA,NA,happy,"unhappy, happy","less happy, more happy",NA,NA,NA,NA,NA,NA,NA,NA,NA,NA,NA,NA,NA,NA,NA,0,2,2,0,1,NA,NA,NA,NA,NA,NA,NA,NA,NA,NA,NA,NA,NA,NA,NA,NA,NA,NA,NA,NA,NA,NA,NA,NA,NA,NA,NA,NA
SUPAMT80130,3NAPMVF0Z2EZXSXHIJL1O2VIYUL72X,F19E417A-7C75-4560-A115-7507C3B92582,2023-09-26_09h29.59.129,WP_VExplicitOC_HL,2022.2.5,Win32,8,NA,NA,NA,NA,NA,NA,NA,NA,NA,NA,NA,NA,NA,NA,NA,NA,NA,NA,NA,NA,NA,NA,NA,NA,NA,NA,NA,NA,NA,NA,NA,9,0,9,0,1,NA,NA,NA,NA,NA,NA,NA,NA,NA,NA,NA,NA,NA,NA,NA,NA,NA,NA,NA,NA,NA,NA,NA
SUPAMT80130,3NAPMVF0Z2EZXSXHIJL1O2VIYUL72X,F19E417A-7C75-4560-A115-7507C3B92582,2023-09-26_09h29.59.129,WP_VExplicitOC_HL,2022.2.5,Win32,8,89.32291667,3.806,2.085,NA,NA,NA,NA,NA,frustrated,"frustrated, not frustrated","more frustrated, less frustrated",NA,NA,NA,NA,NA,NA,NA,NA,NA,NA,NA,NA,NA,NA,NA,0,0,0,1,1,NA,NA,NA,NA,NA,NA,NA,NA,NA,NA,NA,NA,NA,NA,NA,NA,NA,NA,NA,NA,NA,NA,NA,NA,NA,NA,NA,NA
SUPAMT80130,3NAPMVF0Z2EZXSXHIJL1O2VIYUL72X,F19E417A-7C75-4560-A115-7507C3B92582,2023-09-26_09h29.59.129,WP_VExplicitOC_HL,2022.2.5,Win32,8,NA,NA,2.098,NA,NA,NA,NA,NA,happy,"unhappy, happy","less happy, more happy",NA,NA,NA,NA,NA,NA,NA,NA,NA,NA,NA,NA,NA,NA,NA,0,1,1,0,1,NA,NA,NA,NA,NA,NA,NA,NA,NA,NA,NA,NA,NA,NA,NA,NA,NA,NA,NA,NA,NA,NA,NA,NA,NA,NA,NA,NA
SUPAMT80130,3NAPMVF0Z2EZXSXHIJL1O2VIYUL72X,F19E417A-7C75-4560-A115-7507C3B92582,2023-09-26_09h29.59.129,WP_VExplicitOC_HL,2022.2.5,Win32,8,99.21875,5.715,2.058,NA,NA,NA,NA,NA,bored,"bored, not bored","more bored, less bored",NA,NA,NA,NA,NA,NA,NA,NA,NA,NA,NA,NA,NA,NA,NA,0,2,2,2,1,NA,NA,NA,NA,NA,NA,NA,NA,NA,NA,NA,NA,NA,NA,NA,NA,NA,NA,NA,NA,NA,NA,NA,NA,NA,NA,NA,NA
SUPAMT80130,3NAPMVF0Z2EZXSXHIJL1O2VIYUL72X,F19E417A-7C75-4560-A115-7507C3B92582,2023-09-26_09h29.59.129,WP_VExplicitOC_HL,2022.2.5,Win32,8,NA,NA,NA,NA,NA,NA,NA,NA,NA,NA,NA,NA,NA,NA,NA,NA,NA,NA,NA,NA,NA,NA,NA,NA,NA,NA,NA,NA,NA,NA,NA,10,0,10,0,1,NA,NA,NA,NA,NA,NA,NA,NA,NA,NA,NA,NA,NA,NA,NA,NA,NA,NA,NA,NA,NA,NA,NA
SUPAMT80130,3NAPMVF0Z2EZXSXHIJL1O2VIYUL72X,F19E417A-7C75-4560-A115-7507C3B92582,2023-09-26_09h29.59.129,WP_VExplicitOC_HL,2022.2.5,Win32,8,71.61458333,6.966,2.085,NA,NA,NA,NA,NA,frustrated,"frustrated, not frustrated","more frustrated, less frustrated",NA,NA,NA,NA,NA,NA,NA,NA,NA,NA,NA,NA,NA,NA,NA,0,0,0,1,1,NA,NA,NA,NA,NA,NA,NA,NA,NA,NA,NA,NA,NA,NA,NA,NA,NA,NA,NA,NA,NA,NA,NA,NA,NA,NA,NA,NA
SUPAMT80130,3NAPMVF0Z2EZXSXHIJL1O2VIYUL72X,F19E417A-7C75-4560-A115-7507C3B92582,2023-09-26_09h29.59.129,WP_VExplicitOC_HL,2022.2.5,Win32,8,NA,NA,2.009,NA,NA,NA,NA,NA,bored,"bored, not bored","more bored, less bored",NA,NA,NA,NA,NA,NA,NA,NA,NA,NA,NA,NA,NA,NA,NA,0,1,1,2,1,NA,NA,NA,NA,NA,NA,NA,NA,NA,NA,NA,NA,NA,NA,NA,NA,NA,NA,NA,NA,NA,NA,NA,NA,NA,NA,NA,NA
SUPAMT80130,3NAPMVF0Z2EZXSXHIJL1O2VIYUL72X,F19E417A-7C75-4560-A115-7507C3B92582,2023-09-26_09h29.59.129,WP_VExplicitOC_HL,2022.2.5,Win32,8,NA,NA,2.155,NA,NA,NA,NA,NA,happy,"unhappy, happy","less happy, more happy",NA,NA,NA,NA,NA,NA,NA,NA,NA,NA,NA,NA,NA,NA,NA,0,2,2,0,1,NA,NA,NA,NA,NA,NA,NA,NA,NA,NA,NA,NA,NA,NA,NA,NA,NA,NA,NA,NA,NA,NA,NA,NA,NA,NA,NA,NA
SUPAMT80130,3NAPMVF0Z2EZXSXHIJL1O2VIYUL72X,F19E417A-7C75-4560-A115-7507C3B92582,2023-09-26_09h29.59.129,WP_VExplicitOC_HL,2022.2.5,Win32,8,NA,NA,NA,NA,NA,NA,NA,NA,NA,NA,NA,NA,NA,NA,NA,NA,NA,NA,NA,NA,NA,NA,NA,NA,NA,NA,NA,NA,NA,NA,NA,11,0,11,0,1,NA,NA,NA,NA,NA,NA,NA,NA,NA,NA,NA,NA,NA,NA,NA,NA,NA,NA,NA,NA,NA,NA,NA
SUPAMT80130,3NAPMVF0Z2EZXSXHIJL1O2VIYUL72X,F19E417A-7C75-4560-A115-7507C3B92582,2023-09-26_09h29.59.129,WP_VExplicitOC_HL,2022.2.5,Win32,8,78.125,7.207,2.127,NA,NA,NA,NA,NA,happy,"unhappy, happy","less happy, more happy",NA,NA,NA,NA,NA,NA,NA,NA,NA,NA,NA,NA,NA,NA,NA,0,0,0,0,1,NA,NA,NA,NA,NA,NA,NA,NA,NA,NA,NA,NA,NA,NA,NA,NA,NA,NA,NA,NA,NA,NA,NA,NA,NA,NA,NA,NA
SUPAMT80130,3NAPMVF0Z2EZXSXHIJL1O2VIYUL72X,F19E417A-7C75-4560-A115-7507C3B92582,2023-09-26_09h29.59.129,WP_VExplicitOC_HL,2022.2.5,Win32,8,NA,NA,2.142,NA,NA,NA,NA,NA,bored,"bored, not bored","more bored, less bored",NA,NA,NA,NA,NA,NA,NA,NA,NA,NA,NA,NA,NA,NA,NA,0,1,1,2,1,NA,NA,NA,NA,NA,NA,NA,NA,NA,NA,NA,NA,NA,NA,NA,NA,NA,NA,NA,NA,NA,NA,NA,NA,NA,NA,NA,NA
SUPAMT80130,3NAPMVF0Z2EZXSXHIJL1O2VIYUL72X,F19E417A-7C75-4560-A115-7507C3B92582,2023-09-26_09h29.59.129,WP_VExplicitOC_HL,2022.2.5,Win32,8,96.35416667,6.007,2,NA,NA,NA,NA,NA,frustrated,"frustrated, not frustrated","more frustrated, less frustrated",NA,NA,NA,NA,NA,NA,NA,NA,NA,NA,NA,NA,NA,NA,NA,0,2,2,1,1,NA,NA,NA,NA,NA,NA,NA,NA,NA,NA,NA,NA,NA,NA,NA,NA,NA,NA,NA,NA,NA,NA,NA,NA,NA,NA,NA,NA
SUPAMT80130,3NAPMVF0Z2EZXSXHIJL1O2VIYUL72X,F19E417A-7C75-4560-A115-7507C3B92582,2023-09-26_09h29.59.129,WP_VExplicitOC_HL,2022.2.5,Win32,8,NA,NA,NA,NA,NA,NA,NA,NA,NA,NA,NA,NA,NA,NA,NA,NA,NA,NA,NA,NA,NA,NA,NA,NA,NA,NA,NA,NA,NA,NA,NA,12,0,12,0,1,NA,NA,NA,NA,NA,NA,NA,NA,NA,NA,NA,NA,NA,NA,NA,NA,NA,NA,NA,NA,NA,NA,NA
SUPAMT80130,3NAPMVF0Z2EZXSXHIJL1O2VIYUL72X,F19E417A-7C75-4560-A115-7507C3B92582,2023-09-26_09h29.59.129,WP_VExplicitOC_HL,2022.2.5,Win32,8,76.35402906,4.866,2.147,NA,NA,NA,NA,NA,frustrated,"frustrated, not frustrated","more frustrated, less frustrated",NA,NA,NA,NA,NA,NA,NA,NA,NA,NA,NA,NA,NA,NA,NA,0,0,0,1,1,NA,NA,NA,NA,NA,NA,NA,NA,NA,NA,NA,NA,NA,NA,NA,NA,NA,NA,NA,NA,NA,NA,NA,NA,NA,NA,NA,NA
SUPAMT80130,3NAPMVF0Z2EZXSXHIJL1O2VIYUL72X,F19E417A-7C75-4560-A115-7507C3B92582,2023-09-26_09h29.59.129,WP_VExplicitOC_HL,2022.2.5,Win32,8,NA,NA,2.169,NA,NA,NA,NA,NA,happy,"unhappy, happy","less happy, more happy",NA,NA,NA,NA,NA,NA,NA,NA,NA,NA,NA,NA,NA,NA,NA,0,1,1,0,1,NA,NA,NA,NA,NA,NA,NA,NA,NA,NA,NA,NA,NA,NA,NA,NA,NA,NA,NA,NA,NA,NA,NA,NA,NA,NA,NA,NA
SUPAMT80130,3NAPMVF0Z2EZXSXHIJL1O2VIYUL72X,F19E417A-7C75-4560-A115-7507C3B92582,2023-09-26_09h29.59.129,WP_VExplicitOC_HL,2022.2.5,Win32,8,NA,NA,2.039,NA,NA,NA,NA,NA,bored,"bored, not bored","more bored, less bored",NA,NA,NA,NA,NA,NA,NA,NA,NA,NA,NA,NA,NA,NA,NA,0,2,2,2,1,NA,NA,NA,NA,NA,NA,NA,NA,NA,NA,NA,NA,NA,NA,NA,NA,NA,NA,NA,NA,NA,NA,NA,NA,NA,NA,NA,NA
SUPAMT80130,3NAPMVF0Z2EZXSXHIJL1O2VIYUL72X,F19E417A-7C75-4560-A115-7507C3B92582,2023-09-26_09h29.59.129,WP_VExplicitOC_HL,2022.2.5,Win32,8,NA,NA,NA,NA,NA,NA,NA,NA,NA,NA,NA,NA,NA,NA,NA,NA,NA,NA,NA,NA,NA,NA,NA,NA,NA,NA,NA,NA,NA,NA,NA,13,0,13,0,1,NA,NA,NA,NA,NA,NA,NA,NA,NA,NA,NA,NA,NA,NA,NA,NA,NA,NA,NA,NA,NA,NA,NA
SUPAMT80130,3NAPMVF0Z2EZXSXHIJL1O2VIYUL72X,F19E417A-7C75-4560-A115-7507C3B92582,2023-09-26_09h29.59.129,WP_VExplicitOC_HL,2022.2.5,Win32,8,-94.31968296,4.984,2.036,NA,NA,NA,NA,NA,bored,"bored, not bored","more bored, less bored",NA,NA,NA,NA,NA,NA,NA,NA,NA,NA,NA,NA,NA,NA,NA,0,0,0,2,1,NA,NA,NA,NA,NA,NA,NA,NA,NA,NA,NA,NA,NA,NA,NA,NA,NA,NA,NA,NA,NA,NA,NA,NA,NA,NA,NA,NA
SUPAMT80130,3NAPMVF0Z2EZXSXHIJL1O2VIYUL72X,F19E417A-7C75-4560-A115-7507C3B92582,2023-09-26_09h29.59.129,WP_VExplicitOC_HL,2022.2.5,Win32,8,-99.8678996,5.45,2.098,NA,NA,NA,NA,NA,frustrated,"frustrated, not frustrated","more frustrated, less frustrated",NA,NA,NA,NA,NA,NA,NA,NA,NA,NA,NA,NA,NA,NA,NA,0,1,1,1,1,NA,NA,NA,NA,NA,NA,NA,NA,NA,NA,NA,NA,NA,NA,NA,NA,NA,NA,NA,NA,NA,NA,NA,NA,NA,NA,NA,NA
SUPAMT80130,3NAPMVF0Z2EZXSXHIJL1O2VIYUL72X,F19E417A-7C75-4560-A115-7507C3B92582,2023-09-26_09h29.59.129,WP_VExplicitOC_HL,2022.2.5,Win32,8,-95.90488771,4.415,2.06,NA,NA,NA,NA,NA,happy,"unhappy, happy","less happy, more happy",NA,NA,NA,NA,NA,NA,NA,NA,NA,NA,NA,NA,NA,NA,NA,0,2,2,0,1,NA,NA,NA,NA,NA,NA,NA,NA,NA,NA,NA,NA,NA,NA,NA,NA,NA,NA,NA,NA,NA,NA,NA,NA,NA,NA,NA,NA
SUPAMT80130,3NAPMVF0Z2EZXSXHIJL1O2VIYUL72X,F19E417A-7C75-4560-A115-7507C3B92582,2023-09-26_09h29.59.129,WP_VExplicitOC_HL,2022.2.5,Win32,8,NA,NA,NA,NA,NA,NA,NA,NA,NA,NA,NA,NA,NA,NA,NA,NA,NA,NA,NA,NA,NA,NA,NA,NA,NA,NA,NA,NA,NA,NA,NA,14,0,14,0,1,NA,NA,NA,NA,NA,NA,NA,NA,NA,NA,NA,NA,NA,NA,NA,NA,NA,NA,NA,NA,NA,NA,NA
SUPAMT80130,3NAPMVF0Z2EZXSXHIJL1O2VIYUL72X,F19E417A-7C75-4560-A115-7507C3B92582,2023-09-26_09h29.59.129,WP_VExplicitOC_HL,2022.2.5,Win32,8,NA,NA,NA,NA,NA,NA,NA,NA,NA,NA,NA,NA,NA,NA,NA,NA,NA,NA,NA,NA,NA,NA,NA,NA,NA,NA,NA,NA,NA,NA,NA,NA,NA,NA,NA,NA,NA,NA,NA,NA,NA,NA,NA,NA,NA,NA,NA,NA,NA,NA,NA,NA,NA,NA,NA,NA,NA,NA,NA
SUPAMT80130,3NAPMVF0Z2EZXSXHIJL1O2VIYUL72X,F19E417A-7C75-4560-A115-7507C3B92582,2023-09-26_09h29.59.129,WP_VExplicitOC_HL,2022.2.5,Win32,8,NA,NA,NA,NA,NA,NA,NA,NA,NA,NA,NA,NA,NA,NA,NA,NA,NA,NA,NA,NA,NA,NA,NA,NA,NA,NA,NA,NA,NA,NA,NA,NA,NA,NA,NA,NA,NA,NA,NA,NA,NA,NA,NA,NA,NA,NA,NA,NA,NA,NA,NA,NA,NA,NA,NA,NA,NA,NA,NA
SUPAMT80130,3NAPMVF0Z2EZXSXHIJL1O2VIYUL72X,F19E417A-7C75-4560-A115-7507C3B92582,2023-09-26_09h29.59.129,WP_VExplicitOC_HL,2022.2.5,Win32,8,NA,NA,NA,NA,NA,NA,NA,NA,NA,NA,NA,NA,NA,NA,NA,NA,NA,NA,rest (looking at a fixed cross),001.png,NA,NA,NA,NA,NA,NA,NA,NA,NA,NA,NA,NA,NA,NA,NA,NA,NA,NA,0,0,0,0,1,NA,NA,NA,NA,NA,NA,NA,NA,NA,NA,NA,NA,NA,NA,NA,NA
SUPAMT80130,3NAPMVF0Z2EZXSXHIJL1O2VIYUL72X,F19E417A-7C75-4560-A115-7507C3B92582,2023-09-26_09h29.59.129,WP_VExplicitOC_HL,2022.2.5,Win32,8,NA,NA,NA,NA,NA,NA,NA,NA,NA,NA,NA,NA,NA,NA,NA,NA,NA,NA,stand up,002.png,NA,NA,NA,NA,NA,NA,NA,NA,NA,NA,NA,NA,NA,NA,NA,NA,93.79128137,0.588,0,1,1,1,1,NA,NA,NA,NA,NA,NA,NA,NA,NA,NA,NA,NA,NA,NA,NA,NA
SUPAMT80130,3NAPMVF0Z2EZXSXHIJL1O2VIYUL72X,F19E417A-7C75-4560-A115-7507C3B92582,2023-09-26_09h29.59.129,WP_VExplicitOC_HL,2022.2.5,Win32,8,NA,NA,NA,NA,NA,NA,NA,NA,NA,NA,NA,NA,NA,NA,NA,NA,NA,NA,stretch,003.png,NA,NA,NA,NA,NA,NA,NA,NA,NA,NA,NA,NA,NA,NA,NA,NA,91.67767503,4.365,0,2,2,2,1,NA,NA,NA,NA,NA,NA,NA,NA,NA,NA,NA,NA,NA,NA,NA,NA
SUPAMT80130,3NAPMVF0Z2EZXSXHIJL1O2VIYUL72X,F19E417A-7C75-4560-A115-7507C3B92582,2023-09-26_09h29.59.129,WP_VExplicitOC_HL,2022.2.5,Win32,8,NA,NA,NA,NA,NA,NA,NA,NA,NA,NA,NA,NA,NA,NA,NA,NA,NA,NA,make a drink,004.png,NA,NA,NA,NA,NA,NA,NA,NA,NA,NA,NA,NA,NA,NA,NA,NA,NA,NA,0,3,3,3,1,NA,NA,NA,NA,NA,NA,NA,NA,NA,NA,NA,NA,NA,NA,NA,NA
SUPAMT80130,3NAPMVF0Z2EZXSXHIJL1O2VIYUL72X,F19E417A-7C75-4560-A115-7507C3B92582,2023-09-26_09h29.59.129,WP_VExplicitOC_HL,2022.2.5,Win32,8,NA,NA,NA,NA,NA,NA,NA,NA,NA,NA,NA,NA,NA,NA,NA,NA,NA,NA,scroll social media,005.png,NA,NA,NA,NA,NA,NA,NA,NA,NA,NA,NA,NA,NA,NA,NA,NA,80.58124174,2.951,0,4,4,4,1,NA,NA,NA,NA,NA,NA,NA,NA,NA,NA,NA,NA,NA,NA,NA,NA
SUPAMT80130,3NAPMVF0Z2EZXSXHIJL1O2VIYUL72X,F19E417A-7C75-4560-A115-7507C3B92582,2023-09-26_09h29.59.129,WP_VExplicitOC_HL,2022.2.5,Win32,8,NA,NA,NA,NA,NA,NA,NA,NA,NA,NA,NA,NA,NA,NA,NA,NA,NA,NA,listen to music,006.png,NA,NA,NA,NA,NA,NA,NA,NA,NA,NA,NA,NA,NA,NA,NA,NA,82.1664465,3.088,0,5,5,5,1,NA,NA,NA,NA,NA,NA,NA,NA,NA,NA,NA,NA,NA,NA,NA,NA
SUPAMT80130,3NAPMVF0Z2EZXSXHIJL1O2VIYUL72X,F19E417A-7C75-4560-A115-7507C3B92582,2023-09-26_09h29.59.129,WP_VExplicitOC_HL,2022.2.5,Win32,8,NA,NA,NA,NA,NA,NA,NA,NA,NA,NA,NA,NA,NA,NA,NA,NA,NA,NA,daydream,007.png,NA,NA,NA,NA,NA,NA,NA,NA,NA,NA,NA,NA,NA,NA,NA,NA,-96.16908851,5.393,0,6,6,6,1,NA,NA,NA,NA,NA,NA,NA,NA,NA,NA,NA,NA,NA,NA,NA,NA
SUPAMT80130,3NAPMVF0Z2EZXSXHIJL1O2VIYUL72X,F19E417A-7C75-4560-A115-7507C3B92582,2023-09-26_09h29.59.129,WP_VExplicitOC_HL,2022.2.5,Win32,8,NA,NA,NA,NA,NA,NA,NA,NA,NA,NA,NA,NA,NA,NA,NA,NA,NA,NA,watch a short animation,008.png,NA,NA,NA,NA,NA,NA,NA,NA,NA,NA,NA,NA,NA,NA,NA,NA,75.0330251,6.203,0,7,7,7,1,NA,NA,NA,NA,NA,NA,NA,NA,NA,NA,NA,NA,NA,NA,NA,NA
SUPAMT80130,3NAPMVF0Z2EZXSXHIJL1O2VIYUL72X,F19E417A-7C75-4560-A115-7507C3B92582,2023-09-26_09h29.59.129,WP_VExplicitOC_HL,2022.2.5,Win32,8,NA,NA,NA,NA,NA,NA,NA,NA,NA,NA,NA,NA,NA,NA,NA,NA,NA,NA,read a novel,009.png,NA,NA,NA,NA,NA,NA,NA,NA,NA,NA,NA,NA,NA,NA,NA,NA,NA,NA,0,8,8,8,1,NA,NA,NA,NA,NA,NA,NA,NA,NA,NA,NA,NA,NA,NA,NA,NA
SUPAMT80130,3NAPMVF0Z2EZXSXHIJL1O2VIYUL72X,F19E417A-7C75-4560-A115-7507C3B92582,2023-09-26_09h29.59.129,WP_VExplicitOC_HL,2022.2.5,Win32,8,NA,NA,NA,NA,NA,NA,NA,NA,NA,NA,NA,NA,NA,NA,NA,NA,NA,NA,read the news,010.png,NA,NA,NA,NA,NA,NA,NA,NA,NA,NA,NA,NA,NA,NA,NA,NA,75.56142668,1.761,0,9,9,9,1,NA,NA,NA,NA,NA,NA,NA,NA,NA,NA,NA,NA,NA,NA,NA,NA
SUPAMT80130,3NAPMVF0Z2EZXSXHIJL1O2VIYUL72X,F19E417A-7C75-4560-A115-7507C3B92582,2023-09-26_09h29.59.129,WP_VExplicitOC_HL,2022.2.5,Win32,8,NA,NA,NA,NA,NA,NA,NA,NA,NA,NA,NA,NA,NA,NA,NA,NA,NA,NA,NA,NA,NA,NA,NA,NA,NA,NA,NA,NA,NA,NA,NA,NA,NA,NA,NA,NA,NA,NA,NA,NA,NA,NA,NA,scroll social media,NA,NA,NA,NA,NA,NA,NA,NA,NA,NA,NA,NA,NA,NA,NA
SUPAMT80130,3NAPMVF0Z2EZXSXHIJL1O2VIYUL72X,F19E417A-7C75-4560-A115-7507C3B92582,2023-09-26_09h29.59.129,WP_VExplicitOC_HL,2022.2.5,Win32,8,97.75429326,6.515,2.103,NA,NA,NA,NA,NA,bored,"bored, not bored","more bored, less bored",NA,NA,NA,NA,NA,NA,NA,NA,NA,NA,NA,NA,NA,NA,NA,NA,NA,NA,NA,NA,NA,NA,NA,NA,NA,NA,NA,NA,NA,NA,NA,NA,NA,0,0,0,2,1,NA,NA,NA,NA,NA,NA,NA,NA,NA,NA
SUPAMT80130,3NAPMVF0Z2EZXSXHIJL1O2VIYUL72X,F19E417A-7C75-4560-A115-7507C3B92582,2023-09-26_09h29.59.129,WP_VExplicitOC_HL,2022.2.5,Win32,8,94.58388375,5.728,2.189,NA,NA,NA,NA,NA,happy,"unhappy, happy","less happy, more happy",NA,NA,NA,NA,NA,NA,NA,NA,NA,NA,NA,NA,NA,NA,NA,NA,NA,NA,NA,NA,NA,NA,NA,NA,NA,NA,NA,NA,NA,NA,NA,NA,NA,0,1,1,0,1,NA,NA,NA,NA,NA,NA,NA,NA,NA,NA
SUPAMT80130,3NAPMVF0Z2EZXSXHIJL1O2VIYUL72X,F19E417A-7C75-4560-A115-7507C3B92582,2023-09-26_09h29.59.129,WP_VExplicitOC_HL,2022.2.5,Win32,8,98.28269485,5.727,2.116,NA,NA,NA,NA,NA,frustrated,"frustrated, not frustrated","more frustrated, less frustrated",NA,NA,NA,NA,NA,NA,NA,NA,NA,NA,NA,NA,NA,NA,NA,NA,NA,NA,NA,NA,NA,NA,NA,NA,NA,NA,NA,NA,NA,NA,NA,NA,NA,0,2,2,1,1,NA,NA,NA,NA,NA,NA,NA,NA,NA,NA
SUPAMT80130,3NAPMVF0Z2EZXSXHIJL1O2VIYUL72X,F19E417A-7C75-4560-A115-7507C3B92582,2023-09-26_09h29.59.129,WP_VExplicitOC_HL,2022.2.5,Win32,8,NA,NA,NA,NA,NA,NA,NA,NA,NA,NA,NA,NA,NA,NA,NA,NA,NA,NA,NA,NA,NA,NA,NA,NA,NA,NA,NA,NA,NA,NA,NA,NA,NA,NA,NA,NA,NA,NA,NA,NA,NA,NA,NA,NA,NA,NA,NA,NA,NA,NA,NA,NA,NA,NA,NA,NA,NA,NA,NA
SUPAMT80130,3NAPMVF0Z2EZXSXHIJL1O2VIYUL72X,F19E417A-7C75-4560-A115-7507C3B92582,2023-09-26_09h29.59.129,WP_VExplicitOC_HL,2022.2.5,Win32,8,NA,NA,NA,NA,NA,NA,NA,NA,NA,NA,NA,NA,NA,NA,NA,NA,NA,NA,NA,NA,NA,NA,NA,NA,NA,NA,NA,NA,NA,NA,NA,NA,NA,NA,NA,NA,NA,NA,NA,NA,NA,NA,NA,NA,NA,NA,NA,NA,NA,NA,NA,NA,NA,NA,NA,NA,NA,NA,NA
SUPAMT80130,3NAPMVF0Z2EZXSXHIJL1O2VIYUL72X,F19E417A-7C75-4560-A115-7507C3B92582,2023-09-26_09h29.59.129,WP_VExplicitOC_HL,2022.2.5,Win32,8,87.18626156,5.837,2.081,NA,NA,NA,NA,NA,frustrated,"frustrated, not frustrated","more frustrated, less frustrated",NA,NA,NA,NA,NA,NA,NA,NA,NA,NA,NA,NA,NA,NA,NA,NA,NA,NA,NA,NA,NA,NA,NA,NA,NA,NA,NA,NA,NA,NA,NA,NA,NA,NA,NA,NA,NA,NA,0,0,0,1,1,NA,NA,NA,NA,NA
SUPAMT80130,3NAPMVF0Z2EZXSXHIJL1O2VIYUL72X,F19E417A-7C75-4560-A115-7507C3B92582,2023-09-26_09h29.59.129,WP_VExplicitOC_HL,2022.2.5,Win32,8,97.22589168,5.335,2.121,NA,NA,NA,NA,NA,bored,"bored, not bored","more bored, less bored",NA,NA,NA,NA,NA,NA,NA,NA,NA,NA,NA,NA,NA,NA,NA,NA,NA,NA,NA,NA,NA,NA,NA,NA,NA,NA,NA,NA,NA,NA,NA,NA,NA,NA,NA,NA,NA,NA,0,1,1,2,1,NA,NA,NA,NA,NA
SUPAMT80130,3NAPMVF0Z2EZXSXHIJL1O2VIYUL72X,F19E417A-7C75-4560-A115-7507C3B92582,2023-09-26_09h29.59.129,WP_VExplicitOC_HL,2022.2.5,Win32,8,92.47027741,6.424,2.119,NA,NA,NA,NA,NA,happy,"unhappy, happy","less happy, more happy",NA,NA,NA,NA,NA,NA,NA,NA,NA,NA,NA,NA,NA,NA,NA,NA,NA,NA,NA,NA,NA,NA,NA,NA,NA,NA,NA,NA,NA,NA,NA,NA,NA,NA,NA,NA,NA,NA,0,2,2,0,1,NA,NA,NA,NA,NA
SUPAMT80130,3NAPMVF0Z2EZXSXHIJL1O2VIYUL72X,F19E417A-7C75-4560-A115-7507C3B92582,2023-09-26_09h29.59.129,WP_VExplicitOC_HL,2022.2.5,Win32,8,NA,NA,NA,NA,NA,NA,NA,NA,NA,NA,NA,NA,NA,NA,NA,NA,NA,NA,NA,NA,NA,NA,NA,NA,NA,NA,NA,NA,NA,NA,NA,NA,NA,NA,NA,NA,NA,NA,NA,NA,NA,NA,NA,NA,NA,NA,NA,NA,NA,NA,NA,NA,NA,NA,0,0,0,0,1
SUPAMT80130,3NAPMVF0Z2EZXSXHIJL1O2VIYUL72X,F19E417A-7C75-4560-A115-7507C3B92582,2023-09-26_09h29.59.129,WP_VExplicitOC_HL,2022.2.5,Win32,8,39.36,7.409,2.016,NA,NA,NA,NA,NA,happy,"unhappy, happy","less happy, more happy",NA,NA,NA,NA,NA,NA,NA,NA,NA,NA,NA,NA,NA,NA,NA,NA,NA,NA,NA,NA,NA,NA,NA,NA,NA,NA,NA,NA,NA,NA,NA,NA,NA,NA,NA,NA,NA,NA,0,0,0,0,1,NA,NA,NA,NA,NA
SUPAMT80130,3NAPMVF0Z2EZXSXHIJL1O2VIYUL72X,F19E417A-7C75-4560-A115-7507C3B92582,2023-09-26_09h29.59.129,WP_VExplicitOC_HL,2022.2.5,Win32,8,-36.48,6.645,2.057,NA,NA,NA,NA,NA,bored,"bored, not bored","more bored, less bored",NA,NA,NA,NA,NA,NA,NA,NA,NA,NA,NA,NA,NA,NA,NA,NA,NA,NA,NA,NA,NA,NA,NA,NA,NA,NA,NA,NA,NA,NA,NA,NA,NA,NA,NA,NA,NA,NA,0,1,1,2,1,NA,NA,NA,NA,NA
SUPAMT80130,3NAPMVF0Z2EZXSXHIJL1O2VIYUL72X,F19E417A-7C75-4560-A115-7507C3B92582,2023-09-26_09h29.59.129,WP_VExplicitOC_HL,2022.2.5,Win32,8,NA,NA,2.091,NA,NA,NA,NA,NA,frustrated,"frustrated, not frustrated","more frustrated, less frustrated",NA,NA,NA,NA,NA,NA,NA,NA,NA,NA,NA,NA,NA,NA,NA,NA,NA,NA,NA,NA,NA,NA,NA,NA,NA,NA,NA,NA,NA,NA,NA,NA,NA,NA,NA,NA,NA,NA,0,2,2,1,1,NA,NA,NA,NA,NA
SUPAMT80130,3NAPMVF0Z2EZXSXHIJL1O2VIYUL72X,F19E417A-7C75-4560-A115-7507C3B92582,2023-09-26_09h29.59.129,WP_VExplicitOC_HL,2022.2.5,Win32,8,NA,NA,NA,NA,NA,NA,NA,NA,NA,NA,NA,NA,NA,NA,NA,NA,NA,NA,NA,NA,NA,NA,NA,NA,NA,NA,NA,NA,NA,NA,NA,NA,NA,NA,NA,NA,NA,NA,NA,NA,NA,NA,NA,NA,NA,NA,NA,NA,NA,NA,NA,NA,NA,NA,1,0,1,0,1
SUPAMT80130,3NAPMVF0Z2EZXSXHIJL1O2VIYUL72X,F19E417A-7C75-4560-A115-7507C3B92582,2023-09-26_09h29.59.129,WP_VExplicitOC_HL,2022.2.5,Win32,8,NA,NA,2.055,NA,NA,NA,NA,NA,happy,"unhappy, happy","less happy, more happy",NA,NA,NA,NA,NA,NA,NA,NA,NA,NA,NA,NA,NA,NA,NA,NA,NA,NA,NA,NA,NA,NA,NA,NA,NA,NA,NA,NA,NA,NA,NA,NA,NA,NA,NA,NA,NA,NA,0,0,0,0,1,NA,NA,NA,NA,NA
SUPAMT80130,3NAPMVF0Z2EZXSXHIJL1O2VIYUL72X,F19E417A-7C75-4560-A115-7507C3B92582,2023-09-26_09h29.59.129,WP_VExplicitOC_HL,2022.2.5,Win32,8,69.44,5.372,2.106,NA,NA,NA,NA,NA,frustrated,"frustrated, not frustrated","more frustrated, less frustrated",NA,NA,NA,NA,NA,NA,NA,NA,NA,NA,NA,NA,NA,NA,NA,NA,NA,NA,NA,NA,NA,NA,NA,NA,NA,NA,NA,NA,NA,NA,NA,NA,NA,NA,NA,NA,NA,NA,0,1,1,1,1,NA,NA,NA,NA,NA
SUPAMT80130,3NAPMVF0Z2EZXSXHIJL1O2VIYUL72X,F19E417A-7C75-4560-A115-7507C3B92582,2023-09-26_09h29.59.129,WP_VExplicitOC_HL,2022.2.5,Win32,8,86.08,6.224,2.077,NA,NA,NA,NA,NA,bored,"bored, not bored","more bored, less bored",NA,NA,NA,NA,NA,NA,NA,NA,NA,NA,NA,NA,NA,NA,NA,NA,NA,NA,NA,NA,NA,NA,NA,NA,NA,NA,NA,NA,NA,NA,NA,NA,NA,NA,NA,NA,NA,NA,0,2,2,2,1,NA,NA,NA,NA,NA
SUPAMT80130,3NAPMVF0Z2EZXSXHIJL1O2VIYUL72X,F19E417A-7C75-4560-A115-7507C3B92582,2023-09-26_09h29.59.129,WP_VExplicitOC_HL,2022.2.5,Win32,8,NA,NA,NA,NA,NA,NA,NA,NA,NA,NA,NA,NA,NA,NA,NA,NA,NA,NA,NA,NA,NA,NA,NA,NA,NA,NA,NA,NA,NA,NA,NA,NA,NA,NA,NA,NA,NA,NA,NA,NA,NA,NA,NA,NA,NA,NA,NA,NA,NA,NA,NA,NA,NA,NA,2,0,2,0,1
SUPAMT80130,3NAPMVF0Z2EZXSXHIJL1O2VIYUL72X,F19E417A-7C75-4560-A115-7507C3B92582,2023-09-26_09h29.59.129,WP_VExplicitOC_HL,2022.2.5,Win32,8,83.84,4.183,2.121,NA,NA,NA,NA,NA,happy,"unhappy, happy","less happy, more happy",NA,NA,NA,NA,NA,NA,NA,NA,NA,NA,NA,NA,NA,NA,NA,NA,NA,NA,NA,NA,NA,NA,NA,NA,NA,NA,NA,NA,NA,NA,NA,NA,NA,NA,NA,NA,NA,NA,0,0,0,0,1,NA,NA,NA,NA,NA
SUPAMT80130,3NAPMVF0Z2EZXSXHIJL1O2VIYUL72X,F19E417A-7C75-4560-A115-7507C3B92582,2023-09-26_09h29.59.129,WP_VExplicitOC_HL,2022.2.5,Win32,8,NA,NA,2.067,NA,NA,NA,NA,NA,frustrated,"frustrated, not frustrated","more frustrated, less frustrated",NA,NA,NA,NA,NA,NA,NA,NA,NA,NA,NA,NA,NA,NA,NA,NA,NA,NA,NA,NA,NA,NA,NA,NA,NA,NA,NA,NA,NA,NA,NA,NA,NA,NA,NA,NA,NA,NA,0,1,1,1,1,NA,NA,NA,NA,NA
SUPAMT80130,3NAPMVF0Z2EZXSXHIJL1O2VIYUL72X,F19E417A-7C75-4560-A115-7507C3B92582,2023-09-26_09h29.59.129,WP_VExplicitOC_HL,2022.2.5,Win32,8,79.36,3.942,2.075,NA,NA,NA,NA,NA,bored,"bored, not bored","more bored, less bored",NA,NA,NA,NA,NA,NA,NA,NA,NA,NA,NA,NA,NA,NA,NA,NA,NA,NA,NA,NA,NA,NA,NA,NA,NA,NA,NA,NA,NA,NA,NA,NA,NA,NA,NA,NA,NA,NA,0,2,2,2,1,NA,NA,NA,NA,NA
SUPAMT80130,3NAPMVF0Z2EZXSXHIJL1O2VIYUL72X,F19E417A-7C75-4560-A115-7507C3B92582,2023-09-26_09h29.59.129,WP_VExplicitOC_HL,2022.2.5,Win32,8,NA,NA,NA,NA,NA,NA,NA,NA,NA,NA,NA,NA,NA,NA,NA,NA,NA,NA,NA,NA,NA,NA,NA,NA,NA,NA,NA,NA,NA,NA,NA,NA,NA,NA,NA,NA,NA,NA,NA,NA,NA,NA,NA,NA,NA,NA,NA,NA,NA,NA,NA,NA,NA,NA,3,0,3,0,1
SUPAMT80130,3NAPMVF0Z2EZXSXHIJL1O2VIYUL72X,F19E417A-7C75-4560-A115-7507C3B92582,2023-09-26_09h29.59.129,WP_VExplicitOC_HL,2022.2.5,Win32,8,-18.88,5.584,2.054,NA,NA,NA,NA,NA,frustrated,"frustrated, not frustrated","more frustrated, less frustrated",NA,NA,NA,NA,NA,NA,NA,NA,NA,NA,NA,NA,NA,NA,NA,NA,NA,NA,NA,NA,NA,NA,NA,NA,NA,NA,NA,NA,NA,NA,NA,NA,NA,NA,NA,NA,NA,NA,0,0,0,1,1,NA,NA,NA,NA,NA
SUPAMT80130,3NAPMVF0Z2EZXSXHIJL1O2VIYUL72X,F19E417A-7C75-4560-A115-7507C3B92582,2023-09-26_09h29.59.129,WP_VExplicitOC_HL,2022.2.5,Win32,8,-27.52,5.502,2.05,NA,NA,NA,NA,NA,bored,"bored, not bored","more bored, less bored",NA,NA,NA,NA,NA,NA,NA,NA,NA,NA,NA,NA,NA,NA,NA,NA,NA,NA,NA,NA,NA,NA,NA,NA,NA,NA,NA,NA,NA,NA,NA,NA,NA,NA,NA,NA,NA,NA,0,1,1,2,1,NA,NA,NA,NA,NA
SUPAMT80130,3NAPMVF0Z2EZXSXHIJL1O2VIYUL72X,F19E417A-7C75-4560-A115-7507C3B92582,2023-09-26_09h29.59.129,WP_VExplicitOC_HL,2022.2.5,Win32,8,32.96,5.025,2.073,NA,NA,NA,NA,NA,happy,"unhappy, happy","less happy, more happy",NA,NA,NA,NA,NA,NA,NA,NA,NA,NA,NA,NA,NA,NA,NA,NA,NA,NA,NA,NA,NA,NA,NA,NA,NA,NA,NA,NA,NA,NA,NA,NA,NA,NA,NA,NA,NA,NA,0,2,2,0,1,NA,NA,NA,NA,NA
SUPAMT80130,3NAPMVF0Z2EZXSXHIJL1O2VIYUL72X,F19E417A-7C75-4560-A115-7507C3B92582,2023-09-26_09h29.59.129,WP_VExplicitOC_HL,2022.2.5,Win32,8,NA,NA,NA,NA,NA,NA,NA,NA,NA,NA,NA,NA,NA,NA,NA,NA,NA,NA,NA,NA,NA,NA,NA,NA,NA,NA,NA,NA,NA,NA,NA,NA,NA,NA,NA,NA,NA,NA,NA,NA,NA,NA,NA,NA,NA,NA,NA,NA,NA,NA,NA,NA,NA,NA,4,0,4,0,1
SUPAMT80130,3NAPMVF0Z2EZXSXHIJL1O2VIYUL72X,F19E417A-7C75-4560-A115-7507C3B92582,2023-09-26_09h29.59.129,WP_VExplicitOC_HL,2022.2.5,Win32,8,-48,4.676,2.077,NA,NA,NA,NA,NA,bored,"bored, not bored","more bored, less bored",NA,NA,NA,NA,NA,NA,NA,NA,NA,NA,NA,NA,NA,NA,NA,NA,NA,NA,NA,NA,NA,NA,NA,NA,NA,NA,NA,NA,NA,NA,NA,NA,NA,NA,NA,NA,NA,NA,0,0,0,2,1,NA,NA,NA,NA,NA
SUPAMT80130,3NAPMVF0Z2EZXSXHIJL1O2VIYUL72X,F19E417A-7C75-4560-A115-7507C3B92582,2023-09-26_09h29.59.129,WP_VExplicitOC_HL,2022.2.5,Win32,8,-34.56,5.31,2.082,NA,NA,NA,NA,NA,frustrated,"frustrated, not frustrated","more frustrated, less frustrated",NA,NA,NA,NA,NA,NA,NA,NA,NA,NA,NA,NA,NA,NA,NA,NA,NA,NA,NA,NA,NA,NA,NA,NA,NA,NA,NA,NA,NA,NA,NA,NA,NA,NA,NA,NA,NA,NA,0,1,1,1,1,NA,NA,NA,NA,NA
SUPAMT80130,3NAPMVF0Z2EZXSXHIJL1O2VIYUL72X,F19E417A-7C75-4560-A115-7507C3B92582,2023-09-26_09h29.59.129,WP_VExplicitOC_HL,2022.2.5,Win32,8,31.04,7.173,2.018,NA,NA,NA,NA,NA,happy,"unhappy, happy","less happy, more happy",NA,NA,NA,NA,NA,NA,NA,NA,NA,NA,NA,NA,NA,NA,NA,NA,NA,NA,NA,NA,NA,NA,NA,NA,NA,NA,NA,NA,NA,NA,NA,NA,NA,NA,NA,NA,NA,NA,0,2,2,0,1,NA,NA,NA,NA,NA
SUPAMT80130,3NAPMVF0Z2EZXSXHIJL1O2VIYUL72X,F19E417A-7C75-4560-A115-7507C3B92582,2023-09-26_09h29.59.129,WP_VExplicitOC_HL,2022.2.5,Win32,8,NA,NA,NA,NA,NA,NA,NA,NA,NA,NA,NA,NA,NA,NA,NA,NA,NA,NA,NA,NA,NA,NA,NA,NA,NA,NA,NA,NA,NA,NA,NA,NA,NA,NA,NA,NA,NA,NA,NA,NA,NA,NA,NA,NA,NA,NA,NA,NA,NA,NA,NA,NA,NA,NA,5,0,5,0,1
SUPAMT80130,3NAPMVF0Z2EZXSXHIJL1O2VIYUL72X,F19E417A-7C75-4560-A115-7507C3B92582,2023-09-26_09h29.59.129,WP_VExplicitOC_HL,2022.2.5,Win32,8,59.52,4.9,2.112,NA,NA,NA,NA,NA,frustrated,"frustrated, not frustrated","more frustrated, less frustrated",NA,NA,NA,NA,NA,NA,NA,NA,NA,NA,NA,NA,NA,NA,NA,NA,NA,NA,NA,NA,NA,NA,NA,NA,NA,NA,NA,NA,NA,NA,NA,NA,NA,NA,NA,NA,NA,NA,0,0,0,1,1,NA,NA,NA,NA,NA
SUPAMT80130,3NAPMVF0Z2EZXSXHIJL1O2VIYUL72X,F19E417A-7C75-4560-A115-7507C3B92582,2023-09-26_09h29.59.129,WP_VExplicitOC_HL,2022.2.5,Win32,8,NA,NA,2.035,NA,NA,NA,NA,NA,happy,"unhappy, happy","less happy, more happy",NA,NA,NA,NA,NA,NA,NA,NA,NA,NA,NA,NA,NA,NA,NA,NA,NA,NA,NA,NA,NA,NA,NA,NA,NA,NA,NA,NA,NA,NA,NA,NA,NA,NA,NA,NA,NA,NA,0,1,1,0,1,NA,NA,NA,NA,NA
SUPAMT80130,3NAPMVF0Z2EZXSXHIJL1O2VIYUL72X,F19E417A-7C75-4560-A115-7507C3B92582,2023-09-26_09h29.59.129,WP_VExplicitOC_HL,2022.2.5,Win32,8,52.48,5.57,2.092,NA,NA,NA,NA,NA,bored,"bored, not bored","more bored, less bored",NA,NA,NA,NA,NA,NA,NA,NA,NA,NA,NA,NA,NA,NA,NA,NA,NA,NA,NA,NA,NA,NA,NA,NA,NA,NA,NA,NA,NA,NA,NA,NA,NA,NA,NA,NA,NA,NA,0,2,2,2,1,NA,NA,NA,NA,NA
SUPAMT80130,3NAPMVF0Z2EZXSXHIJL1O2VIYUL72X,F19E417A-7C75-4560-A115-7507C3B92582,2023-09-26_09h29.59.129,WP_VExplicitOC_HL,2022.2.5,Win32,8,NA,NA,NA,NA,NA,NA,NA,NA,NA,NA,NA,NA,NA,NA,NA,NA,NA,NA,NA,NA,NA,NA,NA,NA,NA,NA,NA,NA,NA,NA,NA,NA,NA,NA,NA,NA,NA,NA,NA,NA,NA,NA,NA,NA,NA,NA,NA,NA,NA,NA,NA,NA,NA,NA,6,0,6,0,1
SUPAMT80130,3NAPMVF0Z2EZXSXHIJL1O2VIYUL72X,F19E417A-7C75-4560-A115-7507C3B92582,2023-09-26_09h29.59.129,WP_VExplicitOC_HL,2022.2.5,Win32,8,64.96,6.626,2.075,NA,NA,NA,NA,NA,bored,"bored, not bored","more bored, less bored",NA,NA,NA,NA,NA,NA,NA,NA,NA,NA,NA,NA,NA,NA,NA,NA,NA,NA,NA,NA,NA,NA,NA,NA,NA,NA,NA,NA,NA,NA,NA,NA,NA,NA,NA,NA,NA,NA,0,0,0,2,1,NA,NA,NA,NA,NA
SUPAMT80130,3NAPMVF0Z2EZXSXHIJL1O2VIYUL72X,F19E417A-7C75-4560-A115-7507C3B92582,2023-09-26_09h29.59.129,WP_VExplicitOC_HL,2022.2.5,Win32,8,52.16,5.304,2.1,NA,NA,NA,NA,NA,happy,"unhappy, happy","less happy, more happy",NA,NA,NA,NA,NA,NA,NA,NA,NA,NA,NA,NA,NA,NA,NA,NA,NA,NA,NA,NA,NA,NA,NA,NA,NA,NA,NA,NA,NA,NA,NA,NA,NA,NA,NA,NA,NA,NA,0,1,1,0,1,NA,NA,NA,NA,NA
SUPAMT80130,3NAPMVF0Z2EZXSXHIJL1O2VIYUL72X,F19E417A-7C75-4560-A115-7507C3B92582,2023-09-26_09h29.59.129,WP_VExplicitOC_HL,2022.2.5,Win32,8,58.24,3.983,2.013,NA,NA,NA,NA,NA,frustrated,"frustrated, not frustrated","more frustrated, less frustrated",NA,NA,NA,NA,NA,NA,NA,NA,NA,NA,NA,NA,NA,NA,NA,NA,NA,NA,NA,NA,NA,NA,NA,NA,NA,NA,NA,NA,NA,NA,NA,NA,NA,NA,NA,NA,NA,NA,0,2,2,1,1,NA,NA,NA,NA,NA
SUPAMT80130,3NAPMVF0Z2EZXSXHIJL1O2VIYUL72X,F19E417A-7C75-4560-A115-7507C3B92582,2023-09-26_09h29.59.129,WP_VExplicitOC_HL,2022.2.5,Win32,8,NA,NA,NA,NA,NA,NA,NA,NA,NA,NA,NA,NA,NA,NA,NA,NA,NA,NA,NA,NA,NA,NA,NA,NA,NA,NA,NA,NA,NA,NA,NA,NA,NA,NA,NA,NA,NA,NA,NA,NA,NA,NA,NA,NA,NA,NA,NA,NA,NA,NA,NA,NA,NA,NA,7,0,7,0,1
SUPAMT80130,3NAPMVF0Z2EZXSXHIJL1O2VIYUL72X,F19E417A-7C75-4560-A115-7507C3B92582,2023-09-26_09h29.59.129,WP_VExplicitOC_HL,2022.2.5,Win32,8,58.88,3.816,2.109,NA,NA,NA,NA,NA,bored,"bored, not bored","more bored, less bored",NA,NA,NA,NA,NA,NA,NA,NA,NA,NA,NA,NA,NA,NA,NA,NA,NA,NA,NA,NA,NA,NA,NA,NA,NA,NA,NA,NA,NA,NA,NA,NA,NA,NA,NA,NA,NA,NA,0,0,0,2,1,NA,NA,NA,NA,NA
SUPAMT80130,3NAPMVF0Z2EZXSXHIJL1O2VIYUL72X,F19E417A-7C75-4560-A115-7507C3B92582,2023-09-26_09h29.59.129,WP_VExplicitOC_HL,2022.2.5,Win32,8,43.2,3.503,2.078,NA,NA,NA,NA,NA,frustrated,"frustrated, not frustrated","more frustrated, less frustrated",NA,NA,NA,NA,NA,NA,NA,NA,NA,NA,NA,NA,NA,NA,NA,NA,NA,NA,NA,NA,NA,NA,NA,NA,NA,NA,NA,NA,NA,NA,NA,NA,NA,NA,NA,NA,NA,NA,0,1,1,1,1,NA,NA,NA,NA,NA
SUPAMT80130,3NAPMVF0Z2EZXSXHIJL1O2VIYUL72X,F19E417A-7C75-4560-A115-7507C3B92582,2023-09-26_09h29.59.129,WP_VExplicitOC_HL,2022.2.5,Win32,8,61.44,4.308,2.089,NA,NA,NA,NA,NA,happy,"unhappy, happy","less happy, more happy",NA,NA,NA,NA,NA,NA,NA,NA,NA,NA,NA,NA,NA,NA,NA,NA,NA,NA,NA,NA,NA,NA,NA,NA,NA,NA,NA,NA,NA,NA,NA,NA,NA,NA,NA,NA,NA,NA,0,2,2,0,1,NA,NA,NA,NA,NA
SUPAMT80130,3NAPMVF0Z2EZXSXHIJL1O2VIYUL72X,F19E417A-7C75-4560-A115-7507C3B92582,2023-09-26_09h29.59.129,WP_VExplicitOC_HL,2022.2.5,Win32,8,NA,NA,NA,NA,NA,NA,NA,NA,NA,NA,NA,NA,NA,NA,NA,NA,NA,NA,NA,NA,NA,NA,NA,NA,NA,NA,NA,NA,NA,NA,NA,NA,NA,NA,NA,NA,NA,NA,NA,NA,NA,NA,NA,NA,NA,NA,NA,NA,NA,NA,NA,NA,NA,NA,8,0,8,0,1
SUPAMT80130,3NAPMVF0Z2EZXSXHIJL1O2VIYUL72X,F19E417A-7C75-4560-A115-7507C3B92582,2023-09-26_09h29.59.129,WP_VExplicitOC_HL,2022.2.5,Win32,8,NA,NA,2.123,NA,NA,NA,NA,NA,bored,"bored, not bored","more bored, less bored",NA,NA,NA,NA,NA,NA,NA,NA,NA,NA,NA,NA,NA,NA,NA,NA,NA,NA,NA,NA,NA,NA,NA,NA,NA,NA,NA,NA,NA,NA,NA,NA,NA,NA,NA,NA,NA,NA,0,0,0,2,1,NA,NA,NA,NA,NA
SUPAMT80130,3NAPMVF0Z2EZXSXHIJL1O2VIYUL72X,F19E417A-7C75-4560-A115-7507C3B92582,2023-09-26_09h29.59.129,WP_VExplicitOC_HL,2022.2.5,Win32,8,NA,NA,2.017,NA,NA,NA,NA,NA,frustrated,"frustrated, not frustrated","more frustrated, less frustrated",NA,NA,NA,NA,NA,NA,NA,NA,NA,NA,NA,NA,NA,NA,NA,NA,NA,NA,NA,NA,NA,NA,NA,NA,NA,NA,NA,NA,NA,NA,NA,NA,NA,NA,NA,NA,NA,NA,0,1,1,1,1,NA,NA,NA,NA,NA
SUPAMT80130,3NAPMVF0Z2EZXSXHIJL1O2VIYUL72X,F19E417A-7C75-4560-A115-7507C3B92582,2023-09-26_09h29.59.129,WP_VExplicitOC_HL,2022.2.5,Win32,8,NA,NA,2.097,NA,NA,NA,NA,NA,happy,"unhappy, happy","less happy, more happy",NA,NA,NA,NA,NA,NA,NA,NA,NA,NA,NA,NA,NA,NA,NA,NA,NA,NA,NA,NA,NA,NA,NA,NA,NA,NA,NA,NA,NA,NA,NA,NA,NA,NA,NA,NA,NA,NA,0,2,2,0,1,NA,NA,NA,NA,NA
SUPAMT80130,3NAPMVF0Z2EZXSXHIJL1O2VIYUL72X,F19E417A-7C75-4560-A115-7507C3B92582,2023-09-26_09h29.59.129,WP_VExplicitOC_HL,2022.2.5,Win32,8,NA,NA,NA,NA,NA,NA,NA,NA,NA,NA,NA,NA,NA,NA,NA,NA,NA,NA,NA,NA,NA,NA,NA,NA,NA,NA,NA,NA,NA,NA,NA,NA,NA,NA,NA,NA,NA,NA,NA,NA,NA,NA,NA,NA,NA,NA,NA,NA,NA,NA,NA,NA,NA,NA,9,0,9,0,1
SUPAMT80130,3NAPMVF0Z2EZXSXHIJL1O2VIYUL72X,F19E417A-7C75-4560-A115-7507C3B92582,2023-09-26_09h29.59.129,WP_VExplicitOC_HL,2022.2.5,Win32,8,82.24,4.736,2.009,NA,NA,NA,NA,NA,bored,"bored, not bored","more bored, less bored",NA,NA,NA,NA,NA,NA,NA,NA,NA,NA,NA,NA,NA,NA,NA,NA,NA,NA,NA,NA,NA,NA,NA,NA,NA,NA,NA,NA,NA,NA,NA,NA,NA,NA,NA,NA,NA,NA,0,0,0,2,1,NA,NA,NA,NA,NA
SUPAMT80130,3NAPMVF0Z2EZXSXHIJL1O2VIYUL72X,F19E417A-7C75-4560-A115-7507C3B92582,2023-09-26_09h29.59.129,WP_VExplicitOC_HL,2022.2.5,Win32,8,NA,NA,2.131,NA,NA,NA,NA,NA,happy,"unhappy, happy","less happy, more happy",NA,NA,NA,NA,NA,NA,NA,NA,NA,NA,NA,NA,NA,NA,NA,NA,NA,NA,NA,NA,NA,NA,NA,NA,NA,NA,NA,NA,NA,NA,NA,NA,NA,NA,NA,NA,NA,NA,0,1,1,0,1,NA,NA,NA,NA,NA
SUPAMT80130,3NAPMVF0Z2EZXSXHIJL1O2VIYUL72X,F19E417A-7C75-4560-A115-7507C3B92582,2023-09-26_09h29.59.129,WP_VExplicitOC_HL,2022.2.5,Win32,8,75.2,6.986,2.035,NA,NA,NA,NA,NA,frustrated,"frustrated, not frustrated","more frustrated, less frustrated",NA,NA,NA,NA,NA,NA,NA,NA,NA,NA,NA,NA,NA,NA,NA,NA,NA,NA,NA,NA,NA,NA,NA,NA,NA,NA,NA,NA,NA,NA,NA,NA,NA,NA,NA,NA,NA,NA,0,2,2,1,1,NA,NA,NA,NA,NA
SUPAMT80130,3NAPMVF0Z2EZXSXHIJL1O2VIYUL72X,F19E417A-7C75-4560-A115-7507C3B92582,2023-09-26_09h29.59.129,WP_VExplicitOC_HL,2022.2.5,Win32,8,NA,NA,NA,NA,NA,NA,NA,NA,NA,NA,NA,NA,NA,NA,NA,NA,NA,NA,NA,NA,NA,NA,NA,NA,NA,NA,NA,NA,NA,NA,NA,NA,NA,NA,NA,NA,NA,NA,NA,NA,NA,NA,NA,NA,NA,NA,NA,NA,NA,NA,NA,NA,NA,NA,10,0,10,0,1
SUPAMT80130,3NAPMVF0Z2EZXSXHIJL1O2VIYUL72X,F19E417A-7C75-4560-A115-7507C3B92582,2023-09-26_09h29.59.129,WP_VExplicitOC_HL,2022.2.5,Win32,8,-81.6,5.104,2.124,NA,NA,NA,NA,NA,bored,"bored, not bored","more bored, less bored",NA,NA,NA,NA,NA,NA,NA,NA,NA,NA,NA,NA,NA,NA,NA,NA,NA,NA,NA,NA,NA,NA,NA,NA,NA,NA,NA,NA,NA,NA,NA,NA,NA,NA,NA,NA,NA,NA,0,0,0,2,1,NA,NA,NA,NA,NA
SUPAMT80130,3NAPMVF0Z2EZXSXHIJL1O2VIYUL72X,F19E417A-7C75-4560-A115-7507C3B92582,2023-09-26_09h29.59.129,WP_VExplicitOC_HL,2022.2.5,Win32,8,-67.84,5.007,2.012,NA,NA,NA,NA,NA,frustrated,"frustrated, not frustrated","more frustrated, less frustrated",NA,NA,NA,NA,NA,NA,NA,NA,NA,NA,NA,NA,NA,NA,NA,NA,NA,NA,NA,NA,NA,NA,NA,NA,NA,NA,NA,NA,NA,NA,NA,NA,NA,NA,NA,NA,NA,NA,0,1,1,1,1,NA,NA,NA,NA,NA
SUPAMT80130,3NAPMVF0Z2EZXSXHIJL1O2VIYUL72X,F19E417A-7C75-4560-A115-7507C3B92582,2023-09-26_09h29.59.129,WP_VExplicitOC_HL,2022.2.5,Win32,8,60.8,4.37,2.01,NA,NA,NA,NA,NA,happy,"unhappy, happy","less happy, more happy",NA,NA,NA,NA,NA,NA,NA,NA,NA,NA,NA,NA,NA,NA,NA,NA,NA,NA,NA,NA,NA,NA,NA,NA,NA,NA,NA,NA,NA,NA,NA,NA,NA,NA,NA,NA,NA,NA,0,2,2,0,1,NA,NA,NA,NA,NA
SUPAMT80130,3NAPMVF0Z2EZXSXHIJL1O2VIYUL72X,F19E417A-7C75-4560-A115-7507C3B92582,2023-09-26_09h29.59.129,WP_VExplicitOC_HL,2022.2.5,Win32,8,NA,NA,NA,NA,NA,NA,NA,NA,NA,NA,NA,NA,NA,NA,NA,NA,NA,NA,NA,NA,NA,NA,NA,NA,NA,NA,NA,NA,NA,NA,NA,NA,NA,NA,NA,NA,NA,NA,NA,NA,NA,NA,NA,NA,NA,NA,NA,NA,NA,NA,NA,NA,NA,NA,11,0,11,0,1
SUPAMT80130,3NAPMVF0Z2EZXSXHIJL1O2VIYUL72X,F19E417A-7C75-4560-A115-7507C3B92582,2023-09-26_09h29.59.129,WP_VExplicitOC_HL,2022.2.5,Win32,8,-87.04,5.504,2.107,NA,NA,NA,NA,NA,frustrated,"frustrated, not frustrated","more frustrated, less frustrated",NA,NA,NA,NA,NA,NA,NA,NA,NA,NA,NA,NA,NA,NA,NA,NA,NA,NA,NA,NA,NA,NA,NA,NA,NA,NA,NA,NA,NA,NA,NA,NA,NA,NA,NA,NA,NA,NA,0,0,0,1,1,NA,NA,NA,NA,NA
SUPAMT80130,3NAPMVF0Z2EZXSXHIJL1O2VIYUL72X,F19E417A-7C75-4560-A115-7507C3B92582,2023-09-26_09h29.59.129,WP_VExplicitOC_HL,2022.2.5,Win32,8,-92.8,5.651,2.023,NA,NA,NA,NA,NA,bored,"bored, not bored","more bored, less bored",NA,NA,NA,NA,NA,NA,NA,NA,NA,NA,NA,NA,NA,NA,NA,NA,NA,NA,NA,NA,NA,NA,NA,NA,NA,NA,NA,NA,NA,NA,NA,NA,NA,NA,NA,NA,NA,NA,0,1,1,2,1,NA,NA,NA,NA,NA
SUPAMT80130,3NAPMVF0Z2EZXSXHIJL1O2VIYUL72X,F19E417A-7C75-4560-A115-7507C3B92582,2023-09-26_09h29.59.129,WP_VExplicitOC_HL,2022.2.5,Win32,8,76.48,5.133,2.042,NA,NA,NA,NA,NA,happy,"unhappy, happy","less happy, more happy",NA,NA,NA,NA,NA,NA,NA,NA,NA,NA,NA,NA,NA,NA,NA,NA,NA,NA,NA,NA,NA,NA,NA,NA,NA,NA,NA,NA,NA,NA,NA,NA,NA,NA,NA,NA,NA,NA,0,2,2,0,1,NA,NA,NA,NA,NA
SUPAMT80130,3NAPMVF0Z2EZXSXHIJL1O2VIYUL72X,F19E417A-7C75-4560-A115-7507C3B92582,2023-09-26_09h29.59.129,WP_VExplicitOC_HL,2022.2.5,Win32,8,NA,NA,NA,NA,NA,NA,NA,NA,NA,NA,NA,NA,NA,NA,NA,NA,NA,NA,NA,NA,NA,NA,NA,NA,NA,NA,NA,NA,NA,NA,NA,NA,NA,NA,NA,NA,NA,NA,NA,NA,NA,NA,NA,NA,NA,NA,NA,NA,NA,NA,NA,NA,NA,NA,12,0,12,0,1
SUPAMT80130,3NAPMVF0Z2EZXSXHIJL1O2VIYUL72X,F19E417A-7C75-4560-A115-7507C3B92582,2023-09-26_09h29.59.129,WP_VExplicitOC_HL,2022.2.5,Win32,8,-77.76,6.192,2.062,NA,NA,NA,NA,NA,bored,"bored, not bored","more bored, less bored",NA,NA,NA,NA,NA,NA,NA,NA,NA,NA,NA,NA,NA,NA,NA,NA,NA,NA,NA,NA,NA,NA,NA,NA,NA,NA,NA,NA,NA,NA,NA,NA,NA,NA,NA,NA,NA,NA,0,0,0,2,1,NA,NA,NA,NA,NA
SUPAMT80130,3NAPMVF0Z2EZXSXHIJL1O2VIYUL72X,F19E417A-7C75-4560-A115-7507C3B92582,2023-09-26_09h29.59.129,WP_VExplicitOC_HL,2022.2.5,Win32,8,-87.36,5.757,2.107,NA,NA,NA,NA,NA,happy,"unhappy, happy","less happy, more happy",NA,NA,NA,NA,NA,NA,NA,NA,NA,NA,NA,NA,NA,NA,NA,NA,NA,NA,NA,NA,NA,NA,NA,NA,NA,NA,NA,NA,NA,NA,NA,NA,NA,NA,NA,NA,NA,NA,0,1,1,0,1,NA,NA,NA,NA,NA
SUPAMT80130,3NAPMVF0Z2EZXSXHIJL1O2VIYUL72X,F19E417A-7C75-4560-A115-7507C3B92582,2023-09-26_09h29.59.129,WP_VExplicitOC_HL,2022.2.5,Win32,8,-68.48,5.657,2.013,NA,NA,NA,NA,NA,frustrated,"frustrated, not frustrated","more frustrated, less frustrated",NA,NA,NA,NA,NA,NA,NA,NA,NA,NA,NA,NA,NA,NA,NA,NA,NA,NA,NA,NA,NA,NA,NA,NA,NA,NA,NA,NA,NA,NA,NA,NA,NA,NA,NA,NA,NA,NA,0,2,2,1,1,NA,NA,NA,NA,NA
SUPAMT80130,3NAPMVF0Z2EZXSXHIJL1O2VIYUL72X,F19E417A-7C75-4560-A115-7507C3B92582,2023-09-26_09h29.59.129,WP_VExplicitOC_HL,2022.2.5,Win32,8,NA,NA,NA,NA,NA,NA,NA,NA,NA,NA,NA,NA,NA,NA,NA,NA,NA,NA,NA,NA,NA,NA,NA,NA,NA,NA,NA,NA,NA,NA,NA,NA,NA,NA,NA,NA,NA,NA,NA,NA,NA,NA,NA,NA,NA,NA,NA,NA,NA,NA,NA,NA,NA,NA,13,0,13,0,1
SUPAMT80130,3NAPMVF0Z2EZXSXHIJL1O2VIYUL72X,F19E417A-7C75-4560-A115-7507C3B92582,2023-09-26_09h29.59.129,WP_VExplicitOC_HL,2022.2.5,Win32,8,-67.2,5.213,2.106,NA,NA,NA,NA,NA,frustrated,"frustrated, not frustrated","more frustrated, less frustrated",NA,NA,NA,NA,NA,NA,NA,NA,NA,NA,NA,NA,NA,NA,NA,NA,NA,NA,NA,NA,NA,NA,NA,NA,NA,NA,NA,NA,NA,NA,NA,NA,NA,NA,NA,NA,NA,NA,0,0,0,1,1,NA,NA,NA,NA,NA
SUPAMT80130,3NAPMVF0Z2EZXSXHIJL1O2VIYUL72X,F19E417A-7C75-4560-A115-7507C3B92582,2023-09-26_09h29.59.129,WP_VExplicitOC_HL,2022.2.5,Win32,8,-70.72,5.073,2.004,NA,NA,NA,NA,NA,bored,"bored, not bored","more bored, less bored",NA,NA,NA,NA,NA,NA,NA,NA,NA,NA,NA,NA,NA,NA,NA,NA,NA,NA,NA,NA,NA,NA,NA,NA,NA,NA,NA,NA,NA,NA,NA,NA,NA,NA,NA,NA,NA,NA,0,1,1,2,1,NA,NA,NA,NA,NA
SUPAMT80130,3NAPMVF0Z2EZXSXHIJL1O2VIYUL72X,F19E417A-7C75-4560-A115-7507C3B92582,2023-09-26_09h29.59.129,WP_VExplicitOC_HL,2022.2.5,Win32,8,NA,NA,2.021,NA,NA,NA,NA,NA,happy,"unhappy, happy","less happy, more happy",NA,NA,NA,NA,NA,NA,NA,NA,NA,NA,NA,NA,NA,NA,NA,NA,NA,NA,NA,NA,NA,NA,NA,NA,NA,NA,NA,NA,NA,NA,NA,NA,NA,NA,NA,NA,NA,NA,0,2,2,0,1,NA,NA,NA,NA,NA
SUPAMT80130,3NAPMVF0Z2EZXSXHIJL1O2VIYUL72X,F19E417A-7C75-4560-A115-7507C3B92582,2023-09-26_09h29.59.129,WP_VExplicitOC_HL,2022.2.5,Win32,8,NA,NA,NA,NA,NA,NA,NA,NA,NA,NA,NA,NA,NA,NA,NA,NA,NA,NA,NA,NA,NA,NA,NA,NA,NA,NA,NA,NA,NA,NA,NA,NA,NA,NA,NA,NA,NA,NA,NA,NA,NA,NA,NA,NA,NA,NA,NA,NA,NA,NA,NA,NA,NA,NA,14,0,14,0,1
SUPAMT80130,3NAPMVF0Z2EZXSXHIJL1O2VIYUL72X,F19E417A-7C75-4560-A115-7507C3B92582,2023-09-26_09h29.59.129,WP_VExplicitOC_HL,2022.2.5,Win32,8,NA,NA,NA,NA,NA,NA,NA,NA,NA,NA,NA,NA,NA,NA,NA,NA,NA,NA,NA,NA,NA,NA,NA,NA,NA,NA,NA,NA,NA,NA,NA,NA,NA,NA,NA,NA,NA,NA,NA,NA,NA,NA,NA,NA,NA,NA,NA,NA,NA,NA,NA,NA,NA,NA,NA,NA,NA,NA,NA
