participant,session,completion,date,expName,psychopyVersion,OS,frameRate,rating_all.response,rating_all.rt,rating_all.tStart,rndRat1.thisRepN,rndRat1.thisTrialN,rndRat1.thisN,rndRat1.thisIndex,rndRat1.ran,Emo,Labs,Labs2,rating_alt.response,rating_alt.rt,AltC.thisRepN,AltC.thisTrialN,AltC.thisN,AltC.thisIndex,AltC.ran,alt_choices,pic_choices,TopAlt_Choice,rndRat2.thisRepN,rndRat2.thisTrialN,rndRat2.thisN,rndRat2.thisIndex,rndRat2.ran,rndRat3.thisRepN,rndRat3.thisTrialN,rndRat3.thisN,rndRat3.thisIndex,rndRat3.ran,trials_FC_H.thisRepN,trials_FC_H.thisTrialN,trials_FC_H.thisN,trials_FC_H.thisIndex,trials_FC_H.ran,rating_alt_2.response,rating_alt_2.rt,AltC2.thisRepN,AltC2.thisTrialN,AltC2.thisN,AltC2.thisIndex,AltC2.ran,BottomAlt_Choice,rndRat4.thisRepN,rndRat4.thisTrialN,rndRat4.thisN,rndRat4.thisIndex,rndRat4.ran,rndRat5.thisRepN,rndRat5.thisTrialN,rndRat5.thisN,rndRat5.thisIndex,rndRat5.ran,trials_FC_L.thisRepN,trials_FC_L.thisTrialN,trials_FC_L.thisN,trials_FC_L.thisIndex,trials_FC_L.ran
SUPAMT36750,3PB5A5BD015PCM5OHY6QQ6PJ8F1G74,48553F12-9047-454D-B281-386460510E4E,2023-09-26_17h17.19.042,WP_VExplicitOC_HL,2022.2.5,Win32,33.14990387,NA,NA,NA,NA,NA,NA,NA,NA,NA,NA,NA,NA,NA,NA,NA,NA,NA,NA,NA,NA,NA,NA,NA,NA,NA,NA,NA,NA,NA,NA,NA,NA,NA,NA,NA,NA,NA,NA,NA,NA,NA,NA,NA,NA,NA,NA,NA,NA,NA,NA,NA,NA,NA,NA,NA,NA,NA,NA,NA
SUPAMT36750,3PB5A5BD015PCM5OHY6QQ6PJ8F1G74,48553F12-9047-454D-B281-386460510E4E,2023-09-26_17h17.19.042,WP_VExplicitOC_HL,2022.2.5,Win32,33.14990387,NA,NA,NA,NA,NA,NA,NA,NA,NA,NA,NA,NA,NA,NA,NA,NA,NA,NA,NA,NA,NA,NA,NA,NA,NA,NA,NA,NA,NA,NA,NA,NA,NA,NA,NA,NA,NA,NA,NA,NA,NA,NA,NA,NA,NA,NA,NA,NA,NA,NA,NA,NA,NA,NA,NA,NA,NA,NA,NA
SUPAMT36750,3PB5A5BD015PCM5OHY6QQ6PJ8F1G74,48553F12-9047-454D-B281-386460510E4E,2023-09-26_17h17.19.042,WP_VExplicitOC_HL,2022.2.5,Win32,33.14990387,NA,NA,NA,NA,NA,NA,NA,NA,NA,NA,NA,NA,NA,NA,NA,NA,NA,NA,NA,NA,NA,NA,NA,NA,NA,NA,NA,NA,NA,NA,NA,NA,NA,NA,NA,NA,NA,NA,NA,NA,NA,NA,NA,NA,NA,NA,NA,NA,NA,NA,NA,NA,NA,NA,NA,NA,NA,NA,NA
SUPAMT36750,3PB5A5BD015PCM5OHY6QQ6PJ8F1G74,48553F12-9047-454D-B281-386460510E4E,2023-09-26_17h17.19.042,WP_VExplicitOC_HL,2022.2.5,Win32,33.14990387,67.70833333,3.8344,2.0234,0,0,0,1,1,frustrated,"frustrated, not frustrated","more frustrated, less frustrated",NA,NA,NA,NA,NA,NA,NA,NA,NA,NA,NA,NA,NA,NA,NA,NA,NA,NA,NA,NA,NA,NA,NA,NA,NA,NA,NA,NA,NA,NA,NA,NA,NA,NA,NA,NA,NA,NA,NA,NA,NA,NA,NA,NA,NA,NA,NA,NA
SUPAMT36750,3PB5A5BD015PCM5OHY6QQ6PJ8F1G74,48553F12-9047-454D-B281-386460510E4E,2023-09-26_17h17.19.042,WP_VExplicitOC_HL,2022.2.5,Win32,33.14990387,65.36458333,3.5246,2.0434,0,1,1,0,1,happy,"unhappy, happy","less happy, more happy",NA,NA,NA,NA,NA,NA,NA,NA,NA,NA,NA,NA,NA,NA,NA,NA,NA,NA,NA,NA,NA,NA,NA,NA,NA,NA,NA,NA,NA,NA,NA,NA,NA,NA,NA,NA,NA,NA,NA,NA,NA,NA,NA,NA,NA,NA,NA,NA
SUPAMT36750,3PB5A5BD015PCM5OHY6QQ6PJ8F1G74,48553F12-9047-454D-B281-386460510E4E,2023-09-26_17h17.19.042,WP_VExplicitOC_HL,2022.2.5,Win32,33.14990387,72.65625,2.9945,2.0285,0,2,2,2,1,bored,"bored, not bored","more bored, less bored",NA,NA,NA,NA,NA,NA,NA,NA,NA,NA,NA,NA,NA,NA,NA,NA,NA,NA,NA,NA,NA,NA,NA,NA,NA,NA,NA,NA,NA,NA,NA,NA,NA,NA,NA,NA,NA,NA,NA,NA,NA,NA,NA,NA,NA,NA,NA,NA
SUPAMT36750,3PB5A5BD015PCM5OHY6QQ6PJ8F1G74,48553F12-9047-454D-B281-386460510E4E,2023-09-26_17h17.19.042,WP_VExplicitOC_HL,2022.2.5,Win32,33.14990387,NA,NA,NA,NA,NA,NA,NA,NA,NA,NA,NA,NA,NA,NA,NA,NA,NA,NA,NA,NA,NA,NA,NA,NA,NA,NA,NA,NA,NA,NA,NA,NA,NA,NA,NA,NA,NA,NA,NA,NA,NA,NA,NA,NA,NA,NA,NA,NA,NA,NA,NA,NA,NA,NA,NA,NA,NA,NA,NA
SUPAMT36750,3PB5A5BD015PCM5OHY6QQ6PJ8F1G74,48553F12-9047-454D-B281-386460510E4E,2023-09-26_17h17.19.042,WP_VExplicitOC_HL,2022.2.5,Win32,33.14990387,NA,NA,NA,NA,NA,NA,NA,NA,NA,NA,NA,NA,NA,NA,NA,NA,NA,NA,NA,NA,NA,NA,NA,NA,NA,NA,NA,NA,NA,NA,NA,NA,NA,NA,NA,NA,NA,NA,NA,NA,NA,NA,NA,NA,NA,NA,NA,NA,NA,NA,NA,NA,NA,NA,NA,NA,NA,NA,NA
SUPAMT36750,3PB5A5BD015PCM5OHY6QQ6PJ8F1G74,48553F12-9047-454D-B281-386460510E4E,2023-09-26_17h17.19.042,WP_VExplicitOC_HL,2022.2.5,Win32,33.14990387,NA,NA,NA,NA,NA,NA,NA,NA,NA,NA,NA,NA,NA,NA,NA,NA,NA,NA,NA,NA,NA,NA,NA,NA,NA,NA,NA,NA,NA,NA,NA,NA,NA,NA,NA,NA,NA,NA,NA,NA,NA,NA,NA,NA,NA,NA,NA,NA,NA,NA,NA,NA,NA,NA,NA,NA,NA,NA,NA
SUPAMT36750,3PB5A5BD015PCM5OHY6QQ6PJ8F1G74,48553F12-9047-454D-B281-386460510E4E,2023-09-26_17h17.19.042,WP_VExplicitOC_HL,2022.2.5,Win32,33.14990387,NA,NA,NA,NA,NA,NA,NA,NA,NA,NA,NA,NA,NA,NA,NA,NA,NA,NA,NA,NA,NA,NA,NA,NA,NA,NA,NA,NA,NA,NA,NA,NA,NA,NA,NA,NA,NA,NA,NA,NA,NA,NA,NA,NA,NA,NA,NA,NA,NA,NA,NA,NA,NA,NA,NA,NA,NA,NA,NA
SUPAMT36750,3PB5A5BD015PCM5OHY6QQ6PJ8F1G74,48553F12-9047-454D-B281-386460510E4E,2023-09-26_17h17.19.042,WP_VExplicitOC_HL,2022.2.5,Win32,33.14990387,NA,NA,NA,NA,NA,NA,NA,NA,NA,NA,NA,64.84375,3.2422,0,0,0,0,1,rest (looking at a fixed cross),001.png,NA,NA,NA,NA,NA,NA,NA,NA,NA,NA,NA,NA,NA,NA,NA,NA,NA,NA,NA,NA,NA,NA,NA,NA,NA,NA,NA,NA,NA,NA,NA,NA,NA,NA,NA,NA,NA,NA,NA
SUPAMT36750,3PB5A5BD015PCM5OHY6QQ6PJ8F1G74,48553F12-9047-454D-B281-386460510E4E,2023-09-26_17h17.19.042,WP_VExplicitOC_HL,2022.2.5,Win32,33.14990387,NA,NA,NA,NA,NA,NA,NA,NA,NA,NA,NA,84.89583333,1.5405,0,1,1,1,1,stand up,002.png,NA,NA,NA,NA,NA,NA,NA,NA,NA,NA,NA,NA,NA,NA,NA,NA,NA,NA,NA,NA,NA,NA,NA,NA,NA,NA,NA,NA,NA,NA,NA,NA,NA,NA,NA,NA,NA,NA,NA
SUPAMT36750,3PB5A5BD015PCM5OHY6QQ6PJ8F1G74,48553F12-9047-454D-B281-386460510E4E,2023-09-26_17h17.19.042,WP_VExplicitOC_HL,2022.2.5,Win32,33.14990387,NA,NA,NA,NA,NA,NA,NA,NA,NA,NA,NA,72.13541667,1.2998,0,2,2,2,1,stretch,003.png,NA,NA,NA,NA,NA,NA,NA,NA,NA,NA,NA,NA,NA,NA,NA,NA,NA,NA,NA,NA,NA,NA,NA,NA,NA,NA,NA,NA,NA,NA,NA,NA,NA,NA,NA,NA,NA,NA,NA
SUPAMT36750,3PB5A5BD015PCM5OHY6QQ6PJ8F1G74,48553F12-9047-454D-B281-386460510E4E,2023-09-26_17h17.19.042,WP_VExplicitOC_HL,2022.2.5,Win32,33.14990387,NA,NA,NA,NA,NA,NA,NA,NA,NA,NA,NA,68.75,1.6956,0,3,3,3,1,make a drink,004.png,NA,NA,NA,NA,NA,NA,NA,NA,NA,NA,NA,NA,NA,NA,NA,NA,NA,NA,NA,NA,NA,NA,NA,NA,NA,NA,NA,NA,NA,NA,NA,NA,NA,NA,NA,NA,NA,NA,NA
SUPAMT36750,3PB5A5BD015PCM5OHY6QQ6PJ8F1G74,48553F12-9047-454D-B281-386460510E4E,2023-09-26_17h17.19.042,WP_VExplicitOC_HL,2022.2.5,Win32,33.14990387,NA,NA,NA,NA,NA,NA,NA,NA,NA,NA,NA,69.01041667,1.6931,0,4,4,4,1,scroll social media,005.png,NA,NA,NA,NA,NA,NA,NA,NA,NA,NA,NA,NA,NA,NA,NA,NA,NA,NA,NA,NA,NA,NA,NA,NA,NA,NA,NA,NA,NA,NA,NA,NA,NA,NA,NA,NA,NA,NA,NA
SUPAMT36750,3PB5A5BD015PCM5OHY6QQ6PJ8F1G74,48553F12-9047-454D-B281-386460510E4E,2023-09-26_17h17.19.042,WP_VExplicitOC_HL,2022.2.5,Win32,33.14990387,NA,NA,NA,NA,NA,NA,NA,NA,NA,NA,NA,64.84375,1.5205,0,5,5,5,1,listen to music,006.png,NA,NA,NA,NA,NA,NA,NA,NA,NA,NA,NA,NA,NA,NA,NA,NA,NA,NA,NA,NA,NA,NA,NA,NA,NA,NA,NA,NA,NA,NA,NA,NA,NA,NA,NA,NA,NA,NA,NA
SUPAMT36750,3PB5A5BD015PCM5OHY6QQ6PJ8F1G74,48553F12-9047-454D-B281-386460510E4E,2023-09-26_17h17.19.042,WP_VExplicitOC_HL,2022.2.5,Win32,33.14990387,NA,NA,NA,NA,NA,NA,NA,NA,NA,NA,NA,57.8125,1.6415,0,6,6,6,1,daydream,007.png,NA,NA,NA,NA,NA,NA,NA,NA,NA,NA,NA,NA,NA,NA,NA,NA,NA,NA,NA,NA,NA,NA,NA,NA,NA,NA,NA,NA,NA,NA,NA,NA,NA,NA,NA,NA,NA,NA,NA
SUPAMT36750,3PB5A5BD015PCM5OHY6QQ6PJ8F1G74,48553F12-9047-454D-B281-386460510E4E,2023-09-26_17h17.19.042,WP_VExplicitOC_HL,2022.2.5,Win32,33.14990387,NA,NA,NA,NA,NA,NA,NA,NA,NA,NA,NA,33.59375,1.6088,0,7,7,7,1,watch a short animation,008.png,NA,NA,NA,NA,NA,NA,NA,NA,NA,NA,NA,NA,NA,NA,NA,NA,NA,NA,NA,NA,NA,NA,NA,NA,NA,NA,NA,NA,NA,NA,NA,NA,NA,NA,NA,NA,NA,NA,NA
SUPAMT36750,3PB5A5BD015PCM5OHY6QQ6PJ8F1G74,48553F12-9047-454D-B281-386460510E4E,2023-09-26_17h17.19.042,WP_VExplicitOC_HL,2022.2.5,Win32,33.14990387,NA,NA,NA,NA,NA,NA,NA,NA,NA,NA,NA,60.41666667,1.9439,0,8,8,8,1,read a novel,009.png,NA,NA,NA,NA,NA,NA,NA,NA,NA,NA,NA,NA,NA,NA,NA,NA,NA,NA,NA,NA,NA,NA,NA,NA,NA,NA,NA,NA,NA,NA,NA,NA,NA,NA,NA,NA,NA,NA,NA
SUPAMT36750,3PB5A5BD015PCM5OHY6QQ6PJ8F1G74,48553F12-9047-454D-B281-386460510E4E,2023-09-26_17h17.19.042,WP_VExplicitOC_HL,2022.2.5,Win32,33.14990387,NA,NA,NA,NA,NA,NA,NA,NA,NA,NA,NA,53.38541667,1.5397,0,9,9,9,1,read the news,010.png,NA,NA,NA,NA,NA,NA,NA,NA,NA,NA,NA,NA,NA,NA,NA,NA,NA,NA,NA,NA,NA,NA,NA,NA,NA,NA,NA,NA,NA,NA,NA,NA,NA,NA,NA,NA,NA,NA,NA
SUPAMT36750,3PB5A5BD015PCM5OHY6QQ6PJ8F1G74,48553F12-9047-454D-B281-386460510E4E,2023-09-26_17h17.19.042,WP_VExplicitOC_HL,2022.2.5,Win32,33.14990387,NA,NA,NA,NA,NA,NA,NA,NA,NA,NA,NA,NA,NA,NA,NA,NA,NA,NA,NA,NA,NA,NA,NA,NA,NA,NA,NA,NA,NA,NA,NA,NA,NA,NA,NA,NA,NA,NA,NA,NA,NA,NA,NA,NA,NA,NA,NA,NA,NA,NA,NA,NA,NA,NA,NA,NA,NA,NA,NA
SUPAMT36750,3PB5A5BD015PCM5OHY6QQ6PJ8F1G74,48553F12-9047-454D-B281-386460510E4E,2023-09-26_17h17.19.042,WP_VExplicitOC_HL,2022.2.5,Win32,33.14990387,NA,NA,NA,NA,NA,NA,NA,NA,NA,NA,NA,NA,NA,NA,NA,NA,NA,NA,NA,NA,stand up,NA,NA,NA,NA,NA,NA,NA,NA,NA,NA,NA,NA,NA,NA,NA,NA,NA,NA,NA,NA,NA,NA,NA,NA,NA,NA,NA,NA,NA,NA,NA,NA,NA,NA,NA,NA,NA,NA
SUPAMT36750,3PB5A5BD015PCM5OHY6QQ6PJ8F1G74,48553F12-9047-454D-B281-386460510E4E,2023-09-26_17h17.19.042,WP_VExplicitOC_HL,2022.2.5,Win32,33.14990387,40.88541667,3.5975,2.0468,NA,NA,NA,NA,NA,happy,"unhappy, happy","less happy, more happy",NA,NA,NA,NA,NA,NA,NA,NA,NA,NA,0,0,0,0,1,NA,NA,NA,NA,NA,NA,NA,NA,NA,NA,NA,NA,NA,NA,NA,NA,NA,NA,NA,NA,NA,NA,NA,NA,NA,NA,NA,NA,NA,NA,NA,NA,NA
SUPAMT36750,3PB5A5BD015PCM5OHY6QQ6PJ8F1G74,48553F12-9047-454D-B281-386460510E4E,2023-09-26_17h17.19.042,WP_VExplicitOC_HL,2022.2.5,Win32,33.14990387,44.53125,3.3775,2.0019,NA,NA,NA,NA,NA,bored,"bored, not bored","more bored, less bored",NA,NA,NA,NA,NA,NA,NA,NA,NA,NA,0,1,1,2,1,NA,NA,NA,NA,NA,NA,NA,NA,NA,NA,NA,NA,NA,NA,NA,NA,NA,NA,NA,NA,NA,NA,NA,NA,NA,NA,NA,NA,NA,NA,NA,NA,NA
SUPAMT36750,3PB5A5BD015PCM5OHY6QQ6PJ8F1G74,48553F12-9047-454D-B281-386460510E4E,2023-09-26_17h17.19.042,WP_VExplicitOC_HL,2022.2.5,Win32,33.14990387,71.09375,7.0031,2.0292,NA,NA,NA,NA,NA,frustrated,"frustrated, not frustrated","more frustrated, less frustrated",NA,NA,NA,NA,NA,NA,NA,NA,NA,NA,0,2,2,1,1,NA,NA,NA,NA,NA,NA,NA,NA,NA,NA,NA,NA,NA,NA,NA,NA,NA,NA,NA,NA,NA,NA,NA,NA,NA,NA,NA,NA,NA,NA,NA,NA,NA
SUPAMT36750,3PB5A5BD015PCM5OHY6QQ6PJ8F1G74,48553F12-9047-454D-B281-386460510E4E,2023-09-26_17h17.19.042,WP_VExplicitOC_HL,2022.2.5,Win32,33.14990387,NA,NA,NA,NA,NA,NA,NA,NA,NA,NA,NA,NA,NA,NA,NA,NA,NA,NA,NA,NA,NA,NA,NA,NA,NA,NA,NA,NA,NA,NA,NA,NA,NA,NA,NA,NA,NA,NA,NA,NA,NA,NA,NA,NA,NA,NA,NA,NA,NA,NA,NA,NA,NA,NA,NA,NA,NA,NA,NA
SUPAMT36750,3PB5A5BD015PCM5OHY6QQ6PJ8F1G74,48553F12-9047-454D-B281-386460510E4E,2023-09-26_17h17.19.042,WP_VExplicitOC_HL,2022.2.5,Win32,33.14990387,NA,NA,NA,NA,NA,NA,NA,NA,NA,NA,NA,NA,NA,NA,NA,NA,NA,NA,NA,NA,NA,NA,NA,NA,NA,NA,NA,NA,NA,NA,NA,NA,NA,NA,NA,NA,NA,NA,NA,NA,NA,NA,NA,NA,NA,NA,NA,NA,NA,NA,NA,NA,NA,NA,NA,NA,NA,NA,NA
SUPAMT36750,3PB5A5BD015PCM5OHY6QQ6PJ8F1G74,48553F12-9047-454D-B281-386460510E4E,2023-09-26_17h17.19.042,WP_VExplicitOC_HL,2022.2.5,Win32,33.14990387,56.25,3.6735,2.035,NA,NA,NA,NA,NA,happy,"unhappy, happy","less happy, more happy",NA,NA,NA,NA,NA,NA,NA,NA,NA,NA,NA,NA,NA,NA,NA,0,0,0,0,1,NA,NA,NA,NA,NA,NA,NA,NA,NA,NA,NA,NA,NA,NA,NA,NA,NA,NA,NA,NA,NA,NA,NA,NA,NA,NA,NA,NA
SUPAMT36750,3PB5A5BD015PCM5OHY6QQ6PJ8F1G74,48553F12-9047-454D-B281-386460510E4E,2023-09-26_17h17.19.042,WP_VExplicitOC_HL,2022.2.5,Win32,33.14990387,60.15625,3.2575,2.0466,NA,NA,NA,NA,NA,frustrated,"frustrated, not frustrated","more frustrated, less frustrated",NA,NA,NA,NA,NA,NA,NA,NA,NA,NA,NA,NA,NA,NA,NA,0,1,1,1,1,NA,NA,NA,NA,NA,NA,NA,NA,NA,NA,NA,NA,NA,NA,NA,NA,NA,NA,NA,NA,NA,NA,NA,NA,NA,NA,NA,NA
SUPAMT36750,3PB5A5BD015PCM5OHY6QQ6PJ8F1G74,48553F12-9047-454D-B281-386460510E4E,2023-09-26_17h17.19.042,WP_VExplicitOC_HL,2022.2.5,Win32,33.14990387,72.13541667,2.9543,2.0065,NA,NA,NA,NA,NA,bored,"bored, not bored","more bored, less bored",NA,NA,NA,NA,NA,NA,NA,NA,NA,NA,NA,NA,NA,NA,NA,0,2,2,2,1,NA,NA,NA,NA,NA,NA,NA,NA,NA,NA,NA,NA,NA,NA,NA,NA,NA,NA,NA,NA,NA,NA,NA,NA,NA,NA,NA,NA
SUPAMT36750,3PB5A5BD015PCM5OHY6QQ6PJ8F1G74,48553F12-9047-454D-B281-386460510E4E,2023-09-26_17h17.19.042,WP_VExplicitOC_HL,2022.2.5,Win32,33.14990387,NA,NA,NA,NA,NA,NA,NA,NA,NA,NA,NA,NA,NA,NA,NA,NA,NA,NA,NA,NA,NA,NA,NA,NA,NA,NA,NA,NA,NA,NA,NA,0,0,0,0,1,NA,NA,NA,NA,NA,NA,NA,NA,NA,NA,NA,NA,NA,NA,NA,NA,NA,NA,NA,NA,NA,NA,NA
SUPAMT36750,3PB5A5BD015PCM5OHY6QQ6PJ8F1G74,48553F12-9047-454D-B281-386460510E4E,2023-09-26_17h17.19.042,WP_VExplicitOC_HL,2022.2.5,Win32,33.14990387,64.0625,3.3862,2.044,NA,NA,NA,NA,NA,bored,"bored, not bored","more bored, less bored",NA,NA,NA,NA,NA,NA,NA,NA,NA,NA,NA,NA,NA,NA,NA,0,0,0,2,1,NA,NA,NA,NA,NA,NA,NA,NA,NA,NA,NA,NA,NA,NA,NA,NA,NA,NA,NA,NA,NA,NA,NA,NA,NA,NA,NA,NA
SUPAMT36750,3PB5A5BD015PCM5OHY6QQ6PJ8F1G74,48553F12-9047-454D-B281-386460510E4E,2023-09-26_17h17.19.042,WP_VExplicitOC_HL,2022.2.5,Win32,33.14990387,64.84375,3.2041,2.0357,NA,NA,NA,NA,NA,happy,"unhappy, happy","less happy, more happy",NA,NA,NA,NA,NA,NA,NA,NA,NA,NA,NA,NA,NA,NA,NA,0,1,1,0,1,NA,NA,NA,NA,NA,NA,NA,NA,NA,NA,NA,NA,NA,NA,NA,NA,NA,NA,NA,NA,NA,NA,NA,NA,NA,NA,NA,NA
SUPAMT36750,3PB5A5BD015PCM5OHY6QQ6PJ8F1G74,48553F12-9047-454D-B281-386460510E4E,2023-09-26_17h17.19.042,WP_VExplicitOC_HL,2022.2.5,Win32,33.14990387,54.6875,2.9821,2.023,NA,NA,NA,NA,NA,frustrated,"frustrated, not frustrated","more frustrated, less frustrated",NA,NA,NA,NA,NA,NA,NA,NA,NA,NA,NA,NA,NA,NA,NA,0,2,2,1,1,NA,NA,NA,NA,NA,NA,NA,NA,NA,NA,NA,NA,NA,NA,NA,NA,NA,NA,NA,NA,NA,NA,NA,NA,NA,NA,NA,NA
SUPAMT36750,3PB5A5BD015PCM5OHY6QQ6PJ8F1G74,48553F12-9047-454D-B281-386460510E4E,2023-09-26_17h17.19.042,WP_VExplicitOC_HL,2022.2.5,Win32,33.14990387,NA,NA,NA,NA,NA,NA,NA,NA,NA,NA,NA,NA,NA,NA,NA,NA,NA,NA,NA,NA,NA,NA,NA,NA,NA,NA,NA,NA,NA,NA,NA,1,0,1,0,1,NA,NA,NA,NA,NA,NA,NA,NA,NA,NA,NA,NA,NA,NA,NA,NA,NA,NA,NA,NA,NA,NA,NA
SUPAMT36750,3PB5A5BD015PCM5OHY6QQ6PJ8F1G74,48553F12-9047-454D-B281-386460510E4E,2023-09-26_17h17.19.042,WP_VExplicitOC_HL,2022.2.5,Win32,33.14990387,65.36458333,3.8836,2.0041,NA,NA,NA,NA,NA,happy,"unhappy, happy","less happy, more happy",NA,NA,NA,NA,NA,NA,NA,NA,NA,NA,NA,NA,NA,NA,NA,0,0,0,0,1,NA,NA,NA,NA,NA,NA,NA,NA,NA,NA,NA,NA,NA,NA,NA,NA,NA,NA,NA,NA,NA,NA,NA,NA,NA,NA,NA,NA
SUPAMT36750,3PB5A5BD015PCM5OHY6QQ6PJ8F1G74,48553F12-9047-454D-B281-386460510E4E,2023-09-26_17h17.19.042,WP_VExplicitOC_HL,2022.2.5,Win32,33.14990387,70.83333333,3.188,2.0049,NA,NA,NA,NA,NA,bored,"bored, not bored","more bored, less bored",NA,NA,NA,NA,NA,NA,NA,NA,NA,NA,NA,NA,NA,NA,NA,0,1,1,2,1,NA,NA,NA,NA,NA,NA,NA,NA,NA,NA,NA,NA,NA,NA,NA,NA,NA,NA,NA,NA,NA,NA,NA,NA,NA,NA,NA,NA
SUPAMT36750,3PB5A5BD015PCM5OHY6QQ6PJ8F1G74,48553F12-9047-454D-B281-386460510E4E,2023-09-26_17h17.19.042,WP_VExplicitOC_HL,2022.2.5,Win32,33.14990387,69.01041667,3.9073,2.0336,NA,NA,NA,NA,NA,frustrated,"frustrated, not frustrated","more frustrated, less frustrated",NA,NA,NA,NA,NA,NA,NA,NA,NA,NA,NA,NA,NA,NA,NA,0,2,2,1,1,NA,NA,NA,NA,NA,NA,NA,NA,NA,NA,NA,NA,NA,NA,NA,NA,NA,NA,NA,NA,NA,NA,NA,NA,NA,NA,NA,NA
SUPAMT36750,3PB5A5BD015PCM5OHY6QQ6PJ8F1G74,48553F12-9047-454D-B281-386460510E4E,2023-09-26_17h17.19.042,WP_VExplicitOC_HL,2022.2.5,Win32,33.14990387,NA,NA,NA,NA,NA,NA,NA,NA,NA,NA,NA,NA,NA,NA,NA,NA,NA,NA,NA,NA,NA,NA,NA,NA,NA,NA,NA,NA,NA,NA,NA,2,0,2,0,1,NA,NA,NA,NA,NA,NA,NA,NA,NA,NA,NA,NA,NA,NA,NA,NA,NA,NA,NA,NA,NA,NA,NA
SUPAMT36750,3PB5A5BD015PCM5OHY6QQ6PJ8F1G74,48553F12-9047-454D-B281-386460510E4E,2023-09-26_17h17.19.042,WP_VExplicitOC_HL,2022.2.5,Win32,33.14990387,58.85416667,4.6077,2.0459,NA,NA,NA,NA,NA,frustrated,"frustrated, not frustrated","more frustrated, less frustrated",NA,NA,NA,NA,NA,NA,NA,NA,NA,NA,NA,NA,NA,NA,NA,0,0,0,1,1,NA,NA,NA,NA,NA,NA,NA,NA,NA,NA,NA,NA,NA,NA,NA,NA,NA,NA,NA,NA,NA,NA,NA,NA,NA,NA,NA,NA
SUPAMT36750,3PB5A5BD015PCM5OHY6QQ6PJ8F1G74,48553F12-9047-454D-B281-386460510E4E,2023-09-26_17h17.19.042,WP_VExplicitOC_HL,2022.2.5,Win32,33.14990387,77.34375,5.0434,2.0461,NA,NA,NA,NA,NA,happy,"unhappy, happy","less happy, more happy",NA,NA,NA,NA,NA,NA,NA,NA,NA,NA,NA,NA,NA,NA,NA,0,1,1,0,1,NA,NA,NA,NA,NA,NA,NA,NA,NA,NA,NA,NA,NA,NA,NA,NA,NA,NA,NA,NA,NA,NA,NA,NA,NA,NA,NA,NA
SUPAMT36750,3PB5A5BD015PCM5OHY6QQ6PJ8F1G74,48553F12-9047-454D-B281-386460510E4E,2023-09-26_17h17.19.042,WP_VExplicitOC_HL,2022.2.5,Win32,33.14990387,61.71875,3.0904,2.0246,NA,NA,NA,NA,NA,bored,"bored, not bored","more bored, less bored",NA,NA,NA,NA,NA,NA,NA,NA,NA,NA,NA,NA,NA,NA,NA,0,2,2,2,1,NA,NA,NA,NA,NA,NA,NA,NA,NA,NA,NA,NA,NA,NA,NA,NA,NA,NA,NA,NA,NA,NA,NA,NA,NA,NA,NA,NA
SUPAMT36750,3PB5A5BD015PCM5OHY6QQ6PJ8F1G74,48553F12-9047-454D-B281-386460510E4E,2023-09-26_17h17.19.042,WP_VExplicitOC_HL,2022.2.5,Win32,33.14990387,NA,NA,NA,NA,NA,NA,NA,NA,NA,NA,NA,NA,NA,NA,NA,NA,NA,NA,NA,NA,NA,NA,NA,NA,NA,NA,NA,NA,NA,NA,NA,3,0,3,0,1,NA,NA,NA,NA,NA,NA,NA,NA,NA,NA,NA,NA,NA,NA,NA,NA,NA,NA,NA,NA,NA,NA,NA
SUPAMT36750,3PB5A5BD015PCM5OHY6QQ6PJ8F1G74,48553F12-9047-454D-B281-386460510E4E,2023-09-26_17h17.19.042,WP_VExplicitOC_HL,2022.2.5,Win32,33.14990387,71.61458333,3.083,2.0422,NA,NA,NA,NA,NA,bored,"bored, not bored","more bored, less bored",NA,NA,NA,NA,NA,NA,NA,NA,NA,NA,NA,NA,NA,NA,NA,0,0,0,2,1,NA,NA,NA,NA,NA,NA,NA,NA,NA,NA,NA,NA,NA,NA,NA,NA,NA,NA,NA,NA,NA,NA,NA,NA,NA,NA,NA,NA
SUPAMT36750,3PB5A5BD015PCM5OHY6QQ6PJ8F1G74,48553F12-9047-454D-B281-386460510E4E,2023-09-26_17h17.19.042,WP_VExplicitOC_HL,2022.2.5,Win32,33.14990387,56.51041667,3.0546,2.0457,NA,NA,NA,NA,NA,happy,"unhappy, happy","less happy, more happy",NA,NA,NA,NA,NA,NA,NA,NA,NA,NA,NA,NA,NA,NA,NA,0,1,1,0,1,NA,NA,NA,NA,NA,NA,NA,NA,NA,NA,NA,NA,NA,NA,NA,NA,NA,NA,NA,NA,NA,NA,NA,NA,NA,NA,NA,NA
SUPAMT36750,3PB5A5BD015PCM5OHY6QQ6PJ8F1G74,48553F12-9047-454D-B281-386460510E4E,2023-09-26_17h17.19.042,WP_VExplicitOC_HL,2022.2.5,Win32,33.14990387,74.73958333,2.9562,2.0133,NA,NA,NA,NA,NA,frustrated,"frustrated, not frustrated","more frustrated, less frustrated",NA,NA,NA,NA,NA,NA,NA,NA,NA,NA,NA,NA,NA,NA,NA,0,2,2,1,1,NA,NA,NA,NA,NA,NA,NA,NA,NA,NA,NA,NA,NA,NA,NA,NA,NA,NA,NA,NA,NA,NA,NA,NA,NA,NA,NA,NA
SUPAMT36750,3PB5A5BD015PCM5OHY6QQ6PJ8F1G74,48553F12-9047-454D-B281-386460510E4E,2023-09-26_17h17.19.042,WP_VExplicitOC_HL,2022.2.5,Win32,33.14990387,NA,NA,NA,NA,NA,NA,NA,NA,NA,NA,NA,NA,NA,NA,NA,NA,NA,NA,NA,NA,NA,NA,NA,NA,NA,NA,NA,NA,NA,NA,NA,4,0,4,0,1,NA,NA,NA,NA,NA,NA,NA,NA,NA,NA,NA,NA,NA,NA,NA,NA,NA,NA,NA,NA,NA,NA,NA
SUPAMT36750,3PB5A5BD015PCM5OHY6QQ6PJ8F1G74,48553F12-9047-454D-B281-386460510E4E,2023-09-26_17h17.19.042,WP_VExplicitOC_HL,2022.2.5,Win32,33.14990387,72.39583333,4.0089,2.0353,NA,NA,NA,NA,NA,frustrated,"frustrated, not frustrated","more frustrated, less frustrated",NA,NA,NA,NA,NA,NA,NA,NA,NA,NA,NA,NA,NA,NA,NA,0,0,0,1,1,NA,NA,NA,NA,NA,NA,NA,NA,NA,NA,NA,NA,NA,NA,NA,NA,NA,NA,NA,NA,NA,NA,NA,NA,NA,NA,NA,NA
SUPAMT36750,3PB5A5BD015PCM5OHY6QQ6PJ8F1G74,48553F12-9047-454D-B281-386460510E4E,2023-09-26_17h17.19.042,WP_VExplicitOC_HL,2022.2.5,Win32,33.14990387,74.21875,4.968,2.0192,NA,NA,NA,NA,NA,bored,"bored, not bored","more bored, less bored",NA,NA,NA,NA,NA,NA,NA,NA,NA,NA,NA,NA,NA,NA,NA,0,1,1,2,1,NA,NA,NA,NA,NA,NA,NA,NA,NA,NA,NA,NA,NA,NA,NA,NA,NA,NA,NA,NA,NA,NA,NA,NA,NA,NA,NA,NA
SUPAMT36750,3PB5A5BD015PCM5OHY6QQ6PJ8F1G74,48553F12-9047-454D-B281-386460510E4E,2023-09-26_17h17.19.042,WP_VExplicitOC_HL,2022.2.5,Win32,33.14990387,74.21875,4.372,2.0453,NA,NA,NA,NA,NA,happy,"unhappy, happy","less happy, more happy",NA,NA,NA,NA,NA,NA,NA,NA,NA,NA,NA,NA,NA,NA,NA,0,2,2,0,1,NA,NA,NA,NA,NA,NA,NA,NA,NA,NA,NA,NA,NA,NA,NA,NA,NA,NA,NA,NA,NA,NA,NA,NA,NA,NA,NA,NA
SUPAMT36750,3PB5A5BD015PCM5OHY6QQ6PJ8F1G74,48553F12-9047-454D-B281-386460510E4E,2023-09-26_17h17.19.042,WP_VExplicitOC_HL,2022.2.5,Win32,33.14990387,NA,NA,NA,NA,NA,NA,NA,NA,NA,NA,NA,NA,NA,NA,NA,NA,NA,NA,NA,NA,NA,NA,NA,NA,NA,NA,NA,NA,NA,NA,NA,5,0,5,0,1,NA,NA,NA,NA,NA,NA,NA,NA,NA,NA,NA,NA,NA,NA,NA,NA,NA,NA,NA,NA,NA,NA,NA
SUPAMT36750,3PB5A5BD015PCM5OHY6QQ6PJ8F1G74,48553F12-9047-454D-B281-386460510E4E,2023-09-26_17h17.19.042,WP_VExplicitOC_HL,2022.2.5,Win32,33.14990387,53.90625,4.2719,2.0433,NA,NA,NA,NA,NA,bored,"bored, not bored","more bored, less bored",NA,NA,NA,NA,NA,NA,NA,NA,NA,NA,NA,NA,NA,NA,NA,0,0,0,2,1,NA,NA,NA,NA,NA,NA,NA,NA,NA,NA,NA,NA,NA,NA,NA,NA,NA,NA,NA,NA,NA,NA,NA,NA,NA,NA,NA,NA
SUPAMT36750,3PB5A5BD015PCM5OHY6QQ6PJ8F1G74,48553F12-9047-454D-B281-386460510E4E,2023-09-26_17h17.19.042,WP_VExplicitOC_HL,2022.2.5,Win32,33.14990387,55.20833333,3.6223,2.0406,NA,NA,NA,NA,NA,happy,"unhappy, happy","less happy, more happy",NA,NA,NA,NA,NA,NA,NA,NA,NA,NA,NA,NA,NA,NA,NA,0,1,1,0,1,NA,NA,NA,NA,NA,NA,NA,NA,NA,NA,NA,NA,NA,NA,NA,NA,NA,NA,NA,NA,NA,NA,NA,NA,NA,NA,NA,NA
SUPAMT36750,3PB5A5BD015PCM5OHY6QQ6PJ8F1G74,48553F12-9047-454D-B281-386460510E4E,2023-09-26_17h17.19.042,WP_VExplicitOC_HL,2022.2.5,Win32,33.14990387,56.51041667,4.5311,2.0386,NA,NA,NA,NA,NA,frustrated,"frustrated, not frustrated","more frustrated, less frustrated",NA,NA,NA,NA,NA,NA,NA,NA,NA,NA,NA,NA,NA,NA,NA,0,2,2,1,1,NA,NA,NA,NA,NA,NA,NA,NA,NA,NA,NA,NA,NA,NA,NA,NA,NA,NA,NA,NA,NA,NA,NA,NA,NA,NA,NA,NA
SUPAMT36750,3PB5A5BD015PCM5OHY6QQ6PJ8F1G74,48553F12-9047-454D-B281-386460510E4E,2023-09-26_17h17.19.042,WP_VExplicitOC_HL,2022.2.5,Win32,33.14990387,NA,NA,NA,NA,NA,NA,NA,NA,NA,NA,NA,NA,NA,NA,NA,NA,NA,NA,NA,NA,NA,NA,NA,NA,NA,NA,NA,NA,NA,NA,NA,6,0,6,0,1,NA,NA,NA,NA,NA,NA,NA,NA,NA,NA,NA,NA,NA,NA,NA,NA,NA,NA,NA,NA,NA,NA,NA
SUPAMT36750,3PB5A5BD015PCM5OHY6QQ6PJ8F1G74,48553F12-9047-454D-B281-386460510E4E,2023-09-26_17h17.19.042,WP_VExplicitOC_HL,2022.2.5,Win32,33.14990387,63.80208333,3.2508,2.0057,NA,NA,NA,NA,NA,happy,"unhappy, happy","less happy, more happy",NA,NA,NA,NA,NA,NA,NA,NA,NA,NA,NA,NA,NA,NA,NA,0,0,0,0,1,NA,NA,NA,NA,NA,NA,NA,NA,NA,NA,NA,NA,NA,NA,NA,NA,NA,NA,NA,NA,NA,NA,NA,NA,NA,NA,NA,NA
SUPAMT36750,3PB5A5BD015PCM5OHY6QQ6PJ8F1G74,48553F12-9047-454D-B281-386460510E4E,2023-09-26_17h17.19.042,WP_VExplicitOC_HL,2022.2.5,Win32,33.14990387,68.48958333,3.543,2.0426,NA,NA,NA,NA,NA,frustrated,"frustrated, not frustrated","more frustrated, less frustrated",NA,NA,NA,NA,NA,NA,NA,NA,NA,NA,NA,NA,NA,NA,NA,0,1,1,1,1,NA,NA,NA,NA,NA,NA,NA,NA,NA,NA,NA,NA,NA,NA,NA,NA,NA,NA,NA,NA,NA,NA,NA,NA,NA,NA,NA,NA
SUPAMT36750,3PB5A5BD015PCM5OHY6QQ6PJ8F1G74,48553F12-9047-454D-B281-386460510E4E,2023-09-26_17h17.19.042,WP_VExplicitOC_HL,2022.2.5,Win32,33.14990387,54.94791667,3.2374,2.0287,NA,NA,NA,NA,NA,bored,"bored, not bored","more bored, less bored",NA,NA,NA,NA,NA,NA,NA,NA,NA,NA,NA,NA,NA,NA,NA,0,2,2,2,1,NA,NA,NA,NA,NA,NA,NA,NA,NA,NA,NA,NA,NA,NA,NA,NA,NA,NA,NA,NA,NA,NA,NA,NA,NA,NA,NA,NA
SUPAMT36750,3PB5A5BD015PCM5OHY6QQ6PJ8F1G74,48553F12-9047-454D-B281-386460510E4E,2023-09-26_17h17.19.042,WP_VExplicitOC_HL,2022.2.5,Win32,33.14990387,NA,NA,NA,NA,NA,NA,NA,NA,NA,NA,NA,NA,NA,NA,NA,NA,NA,NA,NA,NA,NA,NA,NA,NA,NA,NA,NA,NA,NA,NA,NA,7,0,7,0,1,NA,NA,NA,NA,NA,NA,NA,NA,NA,NA,NA,NA,NA,NA,NA,NA,NA,NA,NA,NA,NA,NA,NA
SUPAMT36750,3PB5A5BD015PCM5OHY6QQ6PJ8F1G74,48553F12-9047-454D-B281-386460510E4E,2023-09-26_17h17.19.042,WP_VExplicitOC_HL,2022.2.5,Win32,33.14990387,67.44791667,3.2988,2.0032,NA,NA,NA,NA,NA,happy,"unhappy, happy","less happy, more happy",NA,NA,NA,NA,NA,NA,NA,NA,NA,NA,NA,NA,NA,NA,NA,0,0,0,0,1,NA,NA,NA,NA,NA,NA,NA,NA,NA,NA,NA,NA,NA,NA,NA,NA,NA,NA,NA,NA,NA,NA,NA,NA,NA,NA,NA,NA
SUPAMT36750,3PB5A5BD015PCM5OHY6QQ6PJ8F1G74,48553F12-9047-454D-B281-386460510E4E,2023-09-26_17h17.19.042,WP_VExplicitOC_HL,2022.2.5,Win32,33.14990387,67.44791667,4.0896,2.0038,NA,NA,NA,NA,NA,frustrated,"frustrated, not frustrated","more frustrated, less frustrated",NA,NA,NA,NA,NA,NA,NA,NA,NA,NA,NA,NA,NA,NA,NA,0,1,1,1,1,NA,NA,NA,NA,NA,NA,NA,NA,NA,NA,NA,NA,NA,NA,NA,NA,NA,NA,NA,NA,NA,NA,NA,NA,NA,NA,NA,NA
SUPAMT36750,3PB5A5BD015PCM5OHY6QQ6PJ8F1G74,48553F12-9047-454D-B281-386460510E4E,2023-09-26_17h17.19.042,WP_VExplicitOC_HL,2022.2.5,Win32,33.14990387,55.98958333,3.0821,2.0422,NA,NA,NA,NA,NA,bored,"bored, not bored","more bored, less bored",NA,NA,NA,NA,NA,NA,NA,NA,NA,NA,NA,NA,NA,NA,NA,0,2,2,2,1,NA,NA,NA,NA,NA,NA,NA,NA,NA,NA,NA,NA,NA,NA,NA,NA,NA,NA,NA,NA,NA,NA,NA,NA,NA,NA,NA,NA
SUPAMT36750,3PB5A5BD015PCM5OHY6QQ6PJ8F1G74,48553F12-9047-454D-B281-386460510E4E,2023-09-26_17h17.19.042,WP_VExplicitOC_HL,2022.2.5,Win32,33.14990387,NA,NA,NA,NA,NA,NA,NA,NA,NA,NA,NA,NA,NA,NA,NA,NA,NA,NA,NA,NA,NA,NA,NA,NA,NA,NA,NA,NA,NA,NA,NA,8,0,8,0,1,NA,NA,NA,NA,NA,NA,NA,NA,NA,NA,NA,NA,NA,NA,NA,NA,NA,NA,NA,NA,NA,NA,NA
SUPAMT36750,3PB5A5BD015PCM5OHY6QQ6PJ8F1G74,48553F12-9047-454D-B281-386460510E4E,2023-09-26_17h17.19.042,WP_VExplicitOC_HL,2022.2.5,Win32,33.14990387,54.6875,3.135,2.0299,NA,NA,NA,NA,NA,bored,"bored, not bored","more bored, less bored",NA,NA,NA,NA,NA,NA,NA,NA,NA,NA,NA,NA,NA,NA,NA,0,0,0,2,1,NA,NA,NA,NA,NA,NA,NA,NA,NA,NA,NA,NA,NA,NA,NA,NA,NA,NA,NA,NA,NA,NA,NA,NA,NA,NA,NA,NA
SUPAMT36750,3PB5A5BD015PCM5OHY6QQ6PJ8F1G74,48553F12-9047-454D-B281-386460510E4E,2023-09-26_17h17.19.042,WP_VExplicitOC_HL,2022.2.5,Win32,33.14990387,57.03125,4.4403,2.0108,NA,NA,NA,NA,NA,frustrated,"frustrated, not frustrated","more frustrated, less frustrated",NA,NA,NA,NA,NA,NA,NA,NA,NA,NA,NA,NA,NA,NA,NA,0,1,1,1,1,NA,NA,NA,NA,NA,NA,NA,NA,NA,NA,NA,NA,NA,NA,NA,NA,NA,NA,NA,NA,NA,NA,NA,NA,NA,NA,NA,NA
SUPAMT36750,3PB5A5BD015PCM5OHY6QQ6PJ8F1G74,48553F12-9047-454D-B281-386460510E4E,2023-09-26_17h17.19.042,WP_VExplicitOC_HL,2022.2.5,Win32,33.14990387,69.79166667,3.1447,2.04,NA,NA,NA,NA,NA,happy,"unhappy, happy","less happy, more happy",NA,NA,NA,NA,NA,NA,NA,NA,NA,NA,NA,NA,NA,NA,NA,0,2,2,0,1,NA,NA,NA,NA,NA,NA,NA,NA,NA,NA,NA,NA,NA,NA,NA,NA,NA,NA,NA,NA,NA,NA,NA,NA,NA,NA,NA,NA
SUPAMT36750,3PB5A5BD015PCM5OHY6QQ6PJ8F1G74,48553F12-9047-454D-B281-386460510E4E,2023-09-26_17h17.19.042,WP_VExplicitOC_HL,2022.2.5,Win32,33.14990387,NA,NA,NA,NA,NA,NA,NA,NA,NA,NA,NA,NA,NA,NA,NA,NA,NA,NA,NA,NA,NA,NA,NA,NA,NA,NA,NA,NA,NA,NA,NA,9,0,9,0,1,NA,NA,NA,NA,NA,NA,NA,NA,NA,NA,NA,NA,NA,NA,NA,NA,NA,NA,NA,NA,NA,NA,NA
SUPAMT36750,3PB5A5BD015PCM5OHY6QQ6PJ8F1G74,48553F12-9047-454D-B281-386460510E4E,2023-09-26_17h17.19.042,WP_VExplicitOC_HL,2022.2.5,Win32,33.14990387,60.9375,3.1125,2.0275,NA,NA,NA,NA,NA,bored,"bored, not bored","more bored, less bored",NA,NA,NA,NA,NA,NA,NA,NA,NA,NA,NA,NA,NA,NA,NA,0,0,0,2,1,NA,NA,NA,NA,NA,NA,NA,NA,NA,NA,NA,NA,NA,NA,NA,NA,NA,NA,NA,NA,NA,NA,NA,NA,NA,NA,NA,NA
SUPAMT36750,3PB5A5BD015PCM5OHY6QQ6PJ8F1G74,48553F12-9047-454D-B281-386460510E4E,2023-09-26_17h17.19.042,WP_VExplicitOC_HL,2022.2.5,Win32,33.14990387,71.35416667,3.1857,2.0046,NA,NA,NA,NA,NA,happy,"unhappy, happy","less happy, more happy",NA,NA,NA,NA,NA,NA,NA,NA,NA,NA,NA,NA,NA,NA,NA,0,1,1,0,1,NA,NA,NA,NA,NA,NA,NA,NA,NA,NA,NA,NA,NA,NA,NA,NA,NA,NA,NA,NA,NA,NA,NA,NA,NA,NA,NA,NA
SUPAMT36750,3PB5A5BD015PCM5OHY6QQ6PJ8F1G74,48553F12-9047-454D-B281-386460510E4E,2023-09-26_17h17.19.042,WP_VExplicitOC_HL,2022.2.5,Win32,33.14990387,70.83333333,3.0403,2.0027,NA,NA,NA,NA,NA,frustrated,"frustrated, not frustrated","more frustrated, less frustrated",NA,NA,NA,NA,NA,NA,NA,NA,NA,NA,NA,NA,NA,NA,NA,0,2,2,1,1,NA,NA,NA,NA,NA,NA,NA,NA,NA,NA,NA,NA,NA,NA,NA,NA,NA,NA,NA,NA,NA,NA,NA,NA,NA,NA,NA,NA
SUPAMT36750,3PB5A5BD015PCM5OHY6QQ6PJ8F1G74,48553F12-9047-454D-B281-386460510E4E,2023-09-26_17h17.19.042,WP_VExplicitOC_HL,2022.2.5,Win32,33.14990387,NA,NA,NA,NA,NA,NA,NA,NA,NA,NA,NA,NA,NA,NA,NA,NA,NA,NA,NA,NA,NA,NA,NA,NA,NA,NA,NA,NA,NA,NA,NA,10,0,10,0,1,NA,NA,NA,NA,NA,NA,NA,NA,NA,NA,NA,NA,NA,NA,NA,NA,NA,NA,NA,NA,NA,NA,NA
SUPAMT36750,3PB5A5BD015PCM5OHY6QQ6PJ8F1G74,48553F12-9047-454D-B281-386460510E4E,2023-09-26_17h17.19.042,WP_VExplicitOC_HL,2022.2.5,Win32,33.14990387,65.10416667,2.4431,2.0089,NA,NA,NA,NA,NA,frustrated,"frustrated, not frustrated","more frustrated, less frustrated",NA,NA,NA,NA,NA,NA,NA,NA,NA,NA,NA,NA,NA,NA,NA,0,0,0,1,1,NA,NA,NA,NA,NA,NA,NA,NA,NA,NA,NA,NA,NA,NA,NA,NA,NA,NA,NA,NA,NA,NA,NA,NA,NA,NA,NA,NA
SUPAMT36750,3PB5A5BD015PCM5OHY6QQ6PJ8F1G74,48553F12-9047-454D-B281-386460510E4E,2023-09-26_17h17.19.042,WP_VExplicitOC_HL,2022.2.5,Win32,33.14990387,81.51041667,3.0407,2.0024,NA,NA,NA,NA,NA,happy,"unhappy, happy","less happy, more happy",NA,NA,NA,NA,NA,NA,NA,NA,NA,NA,NA,NA,NA,NA,NA,0,1,1,0,1,NA,NA,NA,NA,NA,NA,NA,NA,NA,NA,NA,NA,NA,NA,NA,NA,NA,NA,NA,NA,NA,NA,NA,NA,NA,NA,NA,NA
SUPAMT36750,3PB5A5BD015PCM5OHY6QQ6PJ8F1G74,48553F12-9047-454D-B281-386460510E4E,2023-09-26_17h17.19.042,WP_VExplicitOC_HL,2022.2.5,Win32,33.14990387,72.65625,3.4609,2.0511,NA,NA,NA,NA,NA,bored,"bored, not bored","more bored, less bored",NA,NA,NA,NA,NA,NA,NA,NA,NA,NA,NA,NA,NA,NA,NA,0,2,2,2,1,NA,NA,NA,NA,NA,NA,NA,NA,NA,NA,NA,NA,NA,NA,NA,NA,NA,NA,NA,NA,NA,NA,NA,NA,NA,NA,NA,NA
SUPAMT36750,3PB5A5BD015PCM5OHY6QQ6PJ8F1G74,48553F12-9047-454D-B281-386460510E4E,2023-09-26_17h17.19.042,WP_VExplicitOC_HL,2022.2.5,Win32,33.14990387,NA,NA,NA,NA,NA,NA,NA,NA,NA,NA,NA,NA,NA,NA,NA,NA,NA,NA,NA,NA,NA,NA,NA,NA,NA,NA,NA,NA,NA,NA,NA,11,0,11,0,1,NA,NA,NA,NA,NA,NA,NA,NA,NA,NA,NA,NA,NA,NA,NA,NA,NA,NA,NA,NA,NA,NA,NA
SUPAMT36750,3PB5A5BD015PCM5OHY6QQ6PJ8F1G74,48553F12-9047-454D-B281-386460510E4E,2023-09-26_17h17.19.042,WP_VExplicitOC_HL,2022.2.5,Win32,33.14990387,68.48958333,5.0757,2.0345,NA,NA,NA,NA,NA,happy,"unhappy, happy","less happy, more happy",NA,NA,NA,NA,NA,NA,NA,NA,NA,NA,NA,NA,NA,NA,NA,0,0,0,0,1,NA,NA,NA,NA,NA,NA,NA,NA,NA,NA,NA,NA,NA,NA,NA,NA,NA,NA,NA,NA,NA,NA,NA,NA,NA,NA,NA,NA
SUPAMT36750,3PB5A5BD015PCM5OHY6QQ6PJ8F1G74,48553F12-9047-454D-B281-386460510E4E,2023-09-26_17h17.19.042,WP_VExplicitOC_HL,2022.2.5,Win32,33.14990387,73.17708333,2.9859,2.0086,NA,NA,NA,NA,NA,bored,"bored, not bored","more bored, less bored",NA,NA,NA,NA,NA,NA,NA,NA,NA,NA,NA,NA,NA,NA,NA,0,1,1,2,1,NA,NA,NA,NA,NA,NA,NA,NA,NA,NA,NA,NA,NA,NA,NA,NA,NA,NA,NA,NA,NA,NA,NA,NA,NA,NA,NA,NA
SUPAMT36750,3PB5A5BD015PCM5OHY6QQ6PJ8F1G74,48553F12-9047-454D-B281-386460510E4E,2023-09-26_17h17.19.042,WP_VExplicitOC_HL,2022.2.5,Win32,33.14990387,54.16666667,3.0845,2.0174,NA,NA,NA,NA,NA,frustrated,"frustrated, not frustrated","more frustrated, less frustrated",NA,NA,NA,NA,NA,NA,NA,NA,NA,NA,NA,NA,NA,NA,NA,0,2,2,1,1,NA,NA,NA,NA,NA,NA,NA,NA,NA,NA,NA,NA,NA,NA,NA,NA,NA,NA,NA,NA,NA,NA,NA,NA,NA,NA,NA,NA
SUPAMT36750,3PB5A5BD015PCM5OHY6QQ6PJ8F1G74,48553F12-9047-454D-B281-386460510E4E,2023-09-26_17h17.19.042,WP_VExplicitOC_HL,2022.2.5,Win32,33.14990387,NA,NA,NA,NA,NA,NA,NA,NA,NA,NA,NA,NA,NA,NA,NA,NA,NA,NA,NA,NA,NA,NA,NA,NA,NA,NA,NA,NA,NA,NA,NA,12,0,12,0,1,NA,NA,NA,NA,NA,NA,NA,NA,NA,NA,NA,NA,NA,NA,NA,NA,NA,NA,NA,NA,NA,NA,NA
SUPAMT36750,3PB5A5BD015PCM5OHY6QQ6PJ8F1G74,48553F12-9047-454D-B281-386460510E4E,2023-09-26_17h17.19.042,WP_VExplicitOC_HL,2022.2.5,Win32,33.14990387,64.84375,3.252,2.0172,NA,NA,NA,NA,NA,frustrated,"frustrated, not frustrated","more frustrated, less frustrated",NA,NA,NA,NA,NA,NA,NA,NA,NA,NA,NA,NA,NA,NA,NA,0,0,0,1,1,NA,NA,NA,NA,NA,NA,NA,NA,NA,NA,NA,NA,NA,NA,NA,NA,NA,NA,NA,NA,NA,NA,NA,NA,NA,NA,NA,NA
SUPAMT36750,3PB5A5BD015PCM5OHY6QQ6PJ8F1G74,48553F12-9047-454D-B281-386460510E4E,2023-09-26_17h17.19.042,WP_VExplicitOC_HL,2022.2.5,Win32,33.14990387,69.27083333,3.3024,2.0547,NA,NA,NA,NA,NA,happy,"unhappy, happy","less happy, more happy",NA,NA,NA,NA,NA,NA,NA,NA,NA,NA,NA,NA,NA,NA,NA,0,1,1,0,1,NA,NA,NA,NA,NA,NA,NA,NA,NA,NA,NA,NA,NA,NA,NA,NA,NA,NA,NA,NA,NA,NA,NA,NA,NA,NA,NA,NA
SUPAMT36750,3PB5A5BD015PCM5OHY6QQ6PJ8F1G74,48553F12-9047-454D-B281-386460510E4E,2023-09-26_17h17.19.042,WP_VExplicitOC_HL,2022.2.5,Win32,33.14990387,66.40625,2.9938,2.0163,NA,NA,NA,NA,NA,bored,"bored, not bored","more bored, less bored",NA,NA,NA,NA,NA,NA,NA,NA,NA,NA,NA,NA,NA,NA,NA,0,2,2,2,1,NA,NA,NA,NA,NA,NA,NA,NA,NA,NA,NA,NA,NA,NA,NA,NA,NA,NA,NA,NA,NA,NA,NA,NA,NA,NA,NA,NA
SUPAMT36750,3PB5A5BD015PCM5OHY6QQ6PJ8F1G74,48553F12-9047-454D-B281-386460510E4E,2023-09-26_17h17.19.042,WP_VExplicitOC_HL,2022.2.5,Win32,33.14990387,NA,NA,NA,NA,NA,NA,NA,NA,NA,NA,NA,NA,NA,NA,NA,NA,NA,NA,NA,NA,NA,NA,NA,NA,NA,NA,NA,NA,NA,NA,NA,13,0,13,0,1,NA,NA,NA,NA,NA,NA,NA,NA,NA,NA,NA,NA,NA,NA,NA,NA,NA,NA,NA,NA,NA,NA,NA
SUPAMT36750,3PB5A5BD015PCM5OHY6QQ6PJ8F1G74,48553F12-9047-454D-B281-386460510E4E,2023-09-26_17h17.19.042,WP_VExplicitOC_HL,2022.2.5,Win32,33.14990387,72.13541667,3.8922,2.037,NA,NA,NA,NA,NA,bored,"bored, not bored","more bored, less bored",NA,NA,NA,NA,NA,NA,NA,NA,NA,NA,NA,NA,NA,NA,NA,0,0,0,2,1,NA,NA,NA,NA,NA,NA,NA,NA,NA,NA,NA,NA,NA,NA,NA,NA,NA,NA,NA,NA,NA,NA,NA,NA,NA,NA,NA,NA
SUPAMT36750,3PB5A5BD015PCM5OHY6QQ6PJ8F1G74,48553F12-9047-454D-B281-386460510E4E,2023-09-26_17h17.19.042,WP_VExplicitOC_HL,2022.2.5,Win32,33.14990387,59.375,3.7405,2.0482,NA,NA,NA,NA,NA,happy,"unhappy, happy","less happy, more happy",NA,NA,NA,NA,NA,NA,NA,NA,NA,NA,NA,NA,NA,NA,NA,0,1,1,0,1,NA,NA,NA,NA,NA,NA,NA,NA,NA,NA,NA,NA,NA,NA,NA,NA,NA,NA,NA,NA,NA,NA,NA,NA,NA,NA,NA,NA
SUPAMT36750,3PB5A5BD015PCM5OHY6QQ6PJ8F1G74,48553F12-9047-454D-B281-386460510E4E,2023-09-26_17h17.19.042,WP_VExplicitOC_HL,2022.2.5,Win32,33.14990387,70.57291667,3.6978,2.0359,NA,NA,NA,NA,NA,frustrated,"frustrated, not frustrated","more frustrated, less frustrated",NA,NA,NA,NA,NA,NA,NA,NA,NA,NA,NA,NA,NA,NA,NA,0,2,2,1,1,NA,NA,NA,NA,NA,NA,NA,NA,NA,NA,NA,NA,NA,NA,NA,NA,NA,NA,NA,NA,NA,NA,NA,NA,NA,NA,NA,NA
SUPAMT36750,3PB5A5BD015PCM5OHY6QQ6PJ8F1G74,48553F12-9047-454D-B281-386460510E4E,2023-09-26_17h17.19.042,WP_VExplicitOC_HL,2022.2.5,Win32,33.14990387,NA,NA,NA,NA,NA,NA,NA,NA,NA,NA,NA,NA,NA,NA,NA,NA,NA,NA,NA,NA,NA,NA,NA,NA,NA,NA,NA,NA,NA,NA,NA,14,0,14,0,1,NA,NA,NA,NA,NA,NA,NA,NA,NA,NA,NA,NA,NA,NA,NA,NA,NA,NA,NA,NA,NA,NA,NA
SUPAMT36750,3PB5A5BD015PCM5OHY6QQ6PJ8F1G74,48553F12-9047-454D-B281-386460510E4E,2023-09-26_17h17.19.042,WP_VExplicitOC_HL,2022.2.5,Win32,33.14990387,NA,NA,NA,NA,NA,NA,NA,NA,NA,NA,NA,NA,NA,NA,NA,NA,NA,NA,NA,NA,NA,NA,NA,NA,NA,NA,NA,NA,NA,NA,NA,NA,NA,NA,NA,NA,NA,NA,NA,NA,NA,NA,NA,NA,NA,NA,NA,NA,NA,NA,NA,NA,NA,NA,NA,NA,NA,NA,NA
SUPAMT36750,3PB5A5BD015PCM5OHY6QQ6PJ8F1G74,48553F12-9047-454D-B281-386460510E4E,2023-09-26_17h17.19.042,WP_VExplicitOC_HL,2022.2.5,Win32,33.14990387,NA,NA,NA,NA,NA,NA,NA,NA,NA,NA,NA,NA,NA,NA,NA,NA,NA,NA,NA,NA,NA,NA,NA,NA,NA,NA,NA,NA,NA,NA,NA,NA,NA,NA,NA,NA,NA,NA,NA,NA,NA,NA,NA,NA,NA,NA,NA,NA,NA,NA,NA,NA,NA,NA,NA,NA,NA,NA,NA
SUPAMT36750,3PB5A5BD015PCM5OHY6QQ6PJ8F1G74,48553F12-9047-454D-B281-386460510E4E,2023-09-26_17h17.19.042,WP_VExplicitOC_HL,2022.2.5,Win32,33.14990387,NA,NA,NA,NA,NA,NA,NA,NA,NA,NA,NA,NA,NA,NA,NA,NA,NA,NA,rest (looking at a fixed cross),001.png,NA,NA,NA,NA,NA,NA,NA,NA,NA,NA,NA,NA,NA,NA,NA,NA,78.90625,2.5892,0,0,0,0,1,NA,NA,NA,NA,NA,NA,NA,NA,NA,NA,NA,NA,NA,NA,NA,NA
SUPAMT36750,3PB5A5BD015PCM5OHY6QQ6PJ8F1G74,48553F12-9047-454D-B281-386460510E4E,2023-09-26_17h17.19.042,WP_VExplicitOC_HL,2022.2.5,Win32,33.14990387,NA,NA,NA,NA,NA,NA,NA,NA,NA,NA,NA,NA,NA,NA,NA,NA,NA,NA,stand up,002.png,NA,NA,NA,NA,NA,NA,NA,NA,NA,NA,NA,NA,NA,NA,NA,NA,49.21875,1.5684,0,1,1,1,1,NA,NA,NA,NA,NA,NA,NA,NA,NA,NA,NA,NA,NA,NA,NA,NA
SUPAMT36750,3PB5A5BD015PCM5OHY6QQ6PJ8F1G74,48553F12-9047-454D-B281-386460510E4E,2023-09-26_17h17.19.042,WP_VExplicitOC_HL,2022.2.5,Win32,33.14990387,NA,NA,NA,NA,NA,NA,NA,NA,NA,NA,NA,NA,NA,NA,NA,NA,NA,NA,stretch,003.png,NA,NA,NA,NA,NA,NA,NA,NA,NA,NA,NA,NA,NA,NA,NA,NA,43.75,1.9879,0,2,2,2,1,NA,NA,NA,NA,NA,NA,NA,NA,NA,NA,NA,NA,NA,NA,NA,NA
SUPAMT36750,3PB5A5BD015PCM5OHY6QQ6PJ8F1G74,48553F12-9047-454D-B281-386460510E4E,2023-09-26_17h17.19.042,WP_VExplicitOC_HL,2022.2.5,Win32,33.14990387,NA,NA,NA,NA,NA,NA,NA,NA,NA,NA,NA,NA,NA,NA,NA,NA,NA,NA,make a drink,004.png,NA,NA,NA,NA,NA,NA,NA,NA,NA,NA,NA,NA,NA,NA,NA,NA,-17.1875,1.7815,0,3,3,3,1,NA,NA,NA,NA,NA,NA,NA,NA,NA,NA,NA,NA,NA,NA,NA,NA
SUPAMT36750,3PB5A5BD015PCM5OHY6QQ6PJ8F1G74,48553F12-9047-454D-B281-386460510E4E,2023-09-26_17h17.19.042,WP_VExplicitOC_HL,2022.2.5,Win32,33.14990387,NA,NA,NA,NA,NA,NA,NA,NA,NA,NA,NA,NA,NA,NA,NA,NA,NA,NA,scroll social media,005.png,NA,NA,NA,NA,NA,NA,NA,NA,NA,NA,NA,NA,NA,NA,NA,NA,31.77083333,1.3068,0,4,4,4,1,NA,NA,NA,NA,NA,NA,NA,NA,NA,NA,NA,NA,NA,NA,NA,NA
SUPAMT36750,3PB5A5BD015PCM5OHY6QQ6PJ8F1G74,48553F12-9047-454D-B281-386460510E4E,2023-09-26_17h17.19.042,WP_VExplicitOC_HL,2022.2.5,Win32,33.14990387,NA,NA,NA,NA,NA,NA,NA,NA,NA,NA,NA,NA,NA,NA,NA,NA,NA,NA,listen to music,006.png,NA,NA,NA,NA,NA,NA,NA,NA,NA,NA,NA,NA,NA,NA,NA,NA,72.91666667,1.6801,0,5,5,5,1,NA,NA,NA,NA,NA,NA,NA,NA,NA,NA,NA,NA,NA,NA,NA,NA
SUPAMT36750,3PB5A5BD015PCM5OHY6QQ6PJ8F1G74,48553F12-9047-454D-B281-386460510E4E,2023-09-26_17h17.19.042,WP_VExplicitOC_HL,2022.2.5,Win32,33.14990387,NA,NA,NA,NA,NA,NA,NA,NA,NA,NA,NA,NA,NA,NA,NA,NA,NA,NA,daydream,007.png,NA,NA,NA,NA,NA,NA,NA,NA,NA,NA,NA,NA,NA,NA,NA,NA,66.92708333,1.2065,0,6,6,6,1,NA,NA,NA,NA,NA,NA,NA,NA,NA,NA,NA,NA,NA,NA,NA,NA
SUPAMT36750,3PB5A5BD015PCM5OHY6QQ6PJ8F1G74,48553F12-9047-454D-B281-386460510E4E,2023-09-26_17h17.19.042,WP_VExplicitOC_HL,2022.2.5,Win32,33.14990387,NA,NA,NA,NA,NA,NA,NA,NA,NA,NA,NA,NA,NA,NA,NA,NA,NA,NA,watch a short animation,008.png,NA,NA,NA,NA,NA,NA,NA,NA,NA,NA,NA,NA,NA,NA,NA,NA,-36.97916667,3.1922,0,7,7,7,1,NA,NA,NA,NA,NA,NA,NA,NA,NA,NA,NA,NA,NA,NA,NA,NA
SUPAMT36750,3PB5A5BD015PCM5OHY6QQ6PJ8F1G74,48553F12-9047-454D-B281-386460510E4E,2023-09-26_17h17.19.042,WP_VExplicitOC_HL,2022.2.5,Win32,33.14990387,NA,NA,NA,NA,NA,NA,NA,NA,NA,NA,NA,NA,NA,NA,NA,NA,NA,NA,read a novel,009.png,NA,NA,NA,NA,NA,NA,NA,NA,NA,NA,NA,NA,NA,NA,NA,NA,34.11458333,1.7241,0,8,8,8,1,NA,NA,NA,NA,NA,NA,NA,NA,NA,NA,NA,NA,NA,NA,NA,NA
SUPAMT36750,3PB5A5BD015PCM5OHY6QQ6PJ8F1G74,48553F12-9047-454D-B281-386460510E4E,2023-09-26_17h17.19.042,WP_VExplicitOC_HL,2022.2.5,Win32,33.14990387,NA,NA,NA,NA,NA,NA,NA,NA,NA,NA,NA,NA,NA,NA,NA,NA,NA,NA,read the news,010.png,NA,NA,NA,NA,NA,NA,NA,NA,NA,NA,NA,NA,NA,NA,NA,NA,38.02083333,1.616,0,9,9,9,1,NA,NA,NA,NA,NA,NA,NA,NA,NA,NA,NA,NA,NA,NA,NA,NA
SUPAMT36750,3PB5A5BD015PCM5OHY6QQ6PJ8F1G74,48553F12-9047-454D-B281-386460510E4E,2023-09-26_17h17.19.042,WP_VExplicitOC_HL,2022.2.5,Win32,33.14990387,NA,NA,NA,NA,NA,NA,NA,NA,NA,NA,NA,NA,NA,NA,NA,NA,NA,NA,NA,NA,NA,NA,NA,NA,NA,NA,NA,NA,NA,NA,NA,NA,NA,NA,NA,NA,NA,NA,NA,NA,NA,NA,NA,watch a short animation,NA,NA,NA,NA,NA,NA,NA,NA,NA,NA,NA,NA,NA,NA,NA
SUPAMT36750,3PB5A5BD015PCM5OHY6QQ6PJ8F1G74,48553F12-9047-454D-B281-386460510E4E,2023-09-26_17h17.19.042,WP_VExplicitOC_HL,2022.2.5,Win32,33.14990387,67.44791667,6.4914,2.0325,NA,NA,NA,NA,NA,happy,"unhappy, happy","less happy, more happy",NA,NA,NA,NA,NA,NA,NA,NA,NA,NA,NA,NA,NA,NA,NA,NA,NA,NA,NA,NA,NA,NA,NA,NA,NA,NA,NA,NA,NA,NA,NA,NA,NA,0,0,0,0,1,NA,NA,NA,NA,NA,NA,NA,NA,NA,NA
SUPAMT36750,3PB5A5BD015PCM5OHY6QQ6PJ8F1G74,48553F12-9047-454D-B281-386460510E4E,2023-09-26_17h17.19.042,WP_VExplicitOC_HL,2022.2.5,Win32,33.14990387,65.10416667,3.4067,2.0297,NA,NA,NA,NA,NA,bored,"bored, not bored","more bored, less bored",NA,NA,NA,NA,NA,NA,NA,NA,NA,NA,NA,NA,NA,NA,NA,NA,NA,NA,NA,NA,NA,NA,NA,NA,NA,NA,NA,NA,NA,NA,NA,NA,NA,0,1,1,2,1,NA,NA,NA,NA,NA,NA,NA,NA,NA,NA
SUPAMT36750,3PB5A5BD015PCM5OHY6QQ6PJ8F1G74,48553F12-9047-454D-B281-386460510E4E,2023-09-26_17h17.19.042,WP_VExplicitOC_HL,2022.2.5,Win32,33.14990387,74.73958333,4.0376,2.0359,NA,NA,NA,NA,NA,frustrated,"frustrated, not frustrated","more frustrated, less frustrated",NA,NA,NA,NA,NA,NA,NA,NA,NA,NA,NA,NA,NA,NA,NA,NA,NA,NA,NA,NA,NA,NA,NA,NA,NA,NA,NA,NA,NA,NA,NA,NA,NA,0,2,2,1,1,NA,NA,NA,NA,NA,NA,NA,NA,NA,NA
SUPAMT36750,3PB5A5BD015PCM5OHY6QQ6PJ8F1G74,48553F12-9047-454D-B281-386460510E4E,2023-09-26_17h17.19.042,WP_VExplicitOC_HL,2022.2.5,Win32,33.14990387,NA,NA,NA,NA,NA,NA,NA,NA,NA,NA,NA,NA,NA,NA,NA,NA,NA,NA,NA,NA,NA,NA,NA,NA,NA,NA,NA,NA,NA,NA,NA,NA,NA,NA,NA,NA,NA,NA,NA,NA,NA,NA,NA,NA,NA,NA,NA,NA,NA,NA,NA,NA,NA,NA,NA,NA,NA,NA,NA
SUPAMT36750,3PB5A5BD015PCM5OHY6QQ6PJ8F1G74,48553F12-9047-454D-B281-386460510E4E,2023-09-26_17h17.19.042,WP_VExplicitOC_HL,2022.2.5,Win32,33.14990387,NA,NA,NA,NA,NA,NA,NA,NA,NA,NA,NA,NA,NA,NA,NA,NA,NA,NA,NA,NA,NA,NA,NA,NA,NA,NA,NA,NA,NA,NA,NA,NA,NA,NA,NA,NA,NA,NA,NA,NA,NA,NA,NA,NA,NA,NA,NA,NA,NA,NA,NA,NA,NA,NA,NA,NA,NA,NA,NA
SUPAMT36750,3PB5A5BD015PCM5OHY6QQ6PJ8F1G74,48553F12-9047-454D-B281-386460510E4E,2023-09-26_17h17.19.042,WP_VExplicitOC_HL,2022.2.5,Win32,33.14990387,52.34375,4.1641,2.0205,NA,NA,NA,NA,NA,frustrated,"frustrated, not frustrated","more frustrated, less frustrated",NA,NA,NA,NA,NA,NA,NA,NA,NA,NA,NA,NA,NA,NA,NA,NA,NA,NA,NA,NA,NA,NA,NA,NA,NA,NA,NA,NA,NA,NA,NA,NA,NA,NA,NA,NA,NA,NA,0,0,0,1,1,NA,NA,NA,NA,NA
SUPAMT36750,3PB5A5BD015PCM5OHY6QQ6PJ8F1G74,48553F12-9047-454D-B281-386460510E4E,2023-09-26_17h17.19.042,WP_VExplicitOC_HL,2022.2.5,Win32,33.14990387,80.20833333,7.3141,2.012,NA,NA,NA,NA,NA,happy,"unhappy, happy","less happy, more happy",NA,NA,NA,NA,NA,NA,NA,NA,NA,NA,NA,NA,NA,NA,NA,NA,NA,NA,NA,NA,NA,NA,NA,NA,NA,NA,NA,NA,NA,NA,NA,NA,NA,NA,NA,NA,NA,NA,0,1,1,0,1,NA,NA,NA,NA,NA
SUPAMT36750,3PB5A5BD015PCM5OHY6QQ6PJ8F1G74,48553F12-9047-454D-B281-386460510E4E,2023-09-26_17h17.19.042,WP_VExplicitOC_HL,2022.2.5,Win32,33.14990387,80.20833333,4.997,2.0299,NA,NA,NA,NA,NA,bored,"bored, not bored","more bored, less bored",NA,NA,NA,NA,NA,NA,NA,NA,NA,NA,NA,NA,NA,NA,NA,NA,NA,NA,NA,NA,NA,NA,NA,NA,NA,NA,NA,NA,NA,NA,NA,NA,NA,NA,NA,NA,NA,NA,0,2,2,2,1,NA,NA,NA,NA,NA
SUPAMT36750,3PB5A5BD015PCM5OHY6QQ6PJ8F1G74,48553F12-9047-454D-B281-386460510E4E,2023-09-26_17h17.19.042,WP_VExplicitOC_HL,2022.2.5,Win32,33.14990387,NA,NA,NA,NA,NA,NA,NA,NA,NA,NA,NA,NA,NA,NA,NA,NA,NA,NA,NA,NA,NA,NA,NA,NA,NA,NA,NA,NA,NA,NA,NA,NA,NA,NA,NA,NA,NA,NA,NA,NA,NA,NA,NA,NA,NA,NA,NA,NA,NA,NA,NA,NA,NA,NA,0,0,0,0,1
SUPAMT36750,3PB5A5BD015PCM5OHY6QQ6PJ8F1G74,48553F12-9047-454D-B281-386460510E4E,2023-09-26_17h17.19.042,WP_VExplicitOC_HL,2022.2.5,Win32,33.14990387,72.13541667,3.3401,2.0487,NA,NA,NA,NA,NA,frustrated,"frustrated, not frustrated","more frustrated, less frustrated",NA,NA,NA,NA,NA,NA,NA,NA,NA,NA,NA,NA,NA,NA,NA,NA,NA,NA,NA,NA,NA,NA,NA,NA,NA,NA,NA,NA,NA,NA,NA,NA,NA,NA,NA,NA,NA,NA,0,0,0,1,1,NA,NA,NA,NA,NA
SUPAMT36750,3PB5A5BD015PCM5OHY6QQ6PJ8F1G74,48553F12-9047-454D-B281-386460510E4E,2023-09-26_17h17.19.042,WP_VExplicitOC_HL,2022.2.5,Win32,33.14990387,72.13541667,4.019,2.0498,NA,NA,NA,NA,NA,bored,"bored, not bored","more bored, less bored",NA,NA,NA,NA,NA,NA,NA,NA,NA,NA,NA,NA,NA,NA,NA,NA,NA,NA,NA,NA,NA,NA,NA,NA,NA,NA,NA,NA,NA,NA,NA,NA,NA,NA,NA,NA,NA,NA,0,1,1,2,1,NA,NA,NA,NA,NA
SUPAMT36750,3PB5A5BD015PCM5OHY6QQ6PJ8F1G74,48553F12-9047-454D-B281-386460510E4E,2023-09-26_17h17.19.042,WP_VExplicitOC_HL,2022.2.5,Win32,33.14990387,58.33333333,3.6527,2.0381,NA,NA,NA,NA,NA,happy,"unhappy, happy","less happy, more happy",NA,NA,NA,NA,NA,NA,NA,NA,NA,NA,NA,NA,NA,NA,NA,NA,NA,NA,NA,NA,NA,NA,NA,NA,NA,NA,NA,NA,NA,NA,NA,NA,NA,NA,NA,NA,NA,NA,0,2,2,0,1,NA,NA,NA,NA,NA
SUPAMT36750,3PB5A5BD015PCM5OHY6QQ6PJ8F1G74,48553F12-9047-454D-B281-386460510E4E,2023-09-26_17h17.19.042,WP_VExplicitOC_HL,2022.2.5,Win32,33.14990387,NA,NA,NA,NA,NA,NA,NA,NA,NA,NA,NA,NA,NA,NA,NA,NA,NA,NA,NA,NA,NA,NA,NA,NA,NA,NA,NA,NA,NA,NA,NA,NA,NA,NA,NA,NA,NA,NA,NA,NA,NA,NA,NA,NA,NA,NA,NA,NA,NA,NA,NA,NA,NA,NA,1,0,1,0,1
SUPAMT36750,3PB5A5BD015PCM5OHY6QQ6PJ8F1G74,48553F12-9047-454D-B281-386460510E4E,2023-09-26_17h17.19.042,WP_VExplicitOC_HL,2022.2.5,Win32,33.14990387,58.59375,4.0538,2.0324,NA,NA,NA,NA,NA,happy,"unhappy, happy","less happy, more happy",NA,NA,NA,NA,NA,NA,NA,NA,NA,NA,NA,NA,NA,NA,NA,NA,NA,NA,NA,NA,NA,NA,NA,NA,NA,NA,NA,NA,NA,NA,NA,NA,NA,NA,NA,NA,NA,NA,0,0,0,0,1,NA,NA,NA,NA,NA
SUPAMT36750,3PB5A5BD015PCM5OHY6QQ6PJ8F1G74,48553F12-9047-454D-B281-386460510E4E,2023-09-26_17h17.19.042,WP_VExplicitOC_HL,2022.2.5,Win32,33.14990387,58.85416667,3.0051,2.0005,NA,NA,NA,NA,NA,bored,"bored, not bored","more bored, less bored",NA,NA,NA,NA,NA,NA,NA,NA,NA,NA,NA,NA,NA,NA,NA,NA,NA,NA,NA,NA,NA,NA,NA,NA,NA,NA,NA,NA,NA,NA,NA,NA,NA,NA,NA,NA,NA,NA,0,1,1,2,1,NA,NA,NA,NA,NA
SUPAMT36750,3PB5A5BD015PCM5OHY6QQ6PJ8F1G74,48553F12-9047-454D-B281-386460510E4E,2023-09-26_17h17.19.042,WP_VExplicitOC_HL,2022.2.5,Win32,33.14990387,61.71875,4.266,2.0219,NA,NA,NA,NA,NA,frustrated,"frustrated, not frustrated","more frustrated, less frustrated",NA,NA,NA,NA,NA,NA,NA,NA,NA,NA,NA,NA,NA,NA,NA,NA,NA,NA,NA,NA,NA,NA,NA,NA,NA,NA,NA,NA,NA,NA,NA,NA,NA,NA,NA,NA,NA,NA,0,2,2,1,1,NA,NA,NA,NA,NA
SUPAMT36750,3PB5A5BD015PCM5OHY6QQ6PJ8F1G74,48553F12-9047-454D-B281-386460510E4E,2023-09-26_17h17.19.042,WP_VExplicitOC_HL,2022.2.5,Win32,33.14990387,NA,NA,NA,NA,NA,NA,NA,NA,NA,NA,NA,NA,NA,NA,NA,NA,NA,NA,NA,NA,NA,NA,NA,NA,NA,NA,NA,NA,NA,NA,NA,NA,NA,NA,NA,NA,NA,NA,NA,NA,NA,NA,NA,NA,NA,NA,NA,NA,NA,NA,NA,NA,NA,NA,2,0,2,0,1
SUPAMT36750,3PB5A5BD015PCM5OHY6QQ6PJ8F1G74,48553F12-9047-454D-B281-386460510E4E,2023-09-26_17h17.19.042,WP_VExplicitOC_HL,2022.2.5,Win32,33.14990387,61.19791667,3.2959,2.043,NA,NA,NA,NA,NA,bored,"bored, not bored","more bored, less bored",NA,NA,NA,NA,NA,NA,NA,NA,NA,NA,NA,NA,NA,NA,NA,NA,NA,NA,NA,NA,NA,NA,NA,NA,NA,NA,NA,NA,NA,NA,NA,NA,NA,NA,NA,NA,NA,NA,0,0,0,2,1,NA,NA,NA,NA,NA
SUPAMT36750,3PB5A5BD015PCM5OHY6QQ6PJ8F1G74,48553F12-9047-454D-B281-386460510E4E,2023-09-26_17h17.19.042,WP_VExplicitOC_HL,2022.2.5,Win32,33.14990387,69.79166667,5.5925,2.001,NA,NA,NA,NA,NA,happy,"unhappy, happy","less happy, more happy",NA,NA,NA,NA,NA,NA,NA,NA,NA,NA,NA,NA,NA,NA,NA,NA,NA,NA,NA,NA,NA,NA,NA,NA,NA,NA,NA,NA,NA,NA,NA,NA,NA,NA,NA,NA,NA,NA,0,1,1,0,1,NA,NA,NA,NA,NA
SUPAMT36750,3PB5A5BD015PCM5OHY6QQ6PJ8F1G74,48553F12-9047-454D-B281-386460510E4E,2023-09-26_17h17.19.042,WP_VExplicitOC_HL,2022.2.5,Win32,33.14990387,71.875,4.3812,2.0045,NA,NA,NA,NA,NA,frustrated,"frustrated, not frustrated","more frustrated, less frustrated",NA,NA,NA,NA,NA,NA,NA,NA,NA,NA,NA,NA,NA,NA,NA,NA,NA,NA,NA,NA,NA,NA,NA,NA,NA,NA,NA,NA,NA,NA,NA,NA,NA,NA,NA,NA,NA,NA,0,2,2,1,1,NA,NA,NA,NA,NA
SUPAMT36750,3PB5A5BD015PCM5OHY6QQ6PJ8F1G74,48553F12-9047-454D-B281-386460510E4E,2023-09-26_17h17.19.042,WP_VExplicitOC_HL,2022.2.5,Win32,33.14990387,NA,NA,NA,NA,NA,NA,NA,NA,NA,NA,NA,NA,NA,NA,NA,NA,NA,NA,NA,NA,NA,NA,NA,NA,NA,NA,NA,NA,NA,NA,NA,NA,NA,NA,NA,NA,NA,NA,NA,NA,NA,NA,NA,NA,NA,NA,NA,NA,NA,NA,NA,NA,NA,NA,3,0,3,0,1
SUPAMT36750,3PB5A5BD015PCM5OHY6QQ6PJ8F1G74,48553F12-9047-454D-B281-386460510E4E,2023-09-26_17h17.19.042,WP_VExplicitOC_HL,2022.2.5,Win32,33.14990387,61.45833333,3.1822,2.0072,NA,NA,NA,NA,NA,bored,"bored, not bored","more bored, less bored",NA,NA,NA,NA,NA,NA,NA,NA,NA,NA,NA,NA,NA,NA,NA,NA,NA,NA,NA,NA,NA,NA,NA,NA,NA,NA,NA,NA,NA,NA,NA,NA,NA,NA,NA,NA,NA,NA,0,0,0,2,1,NA,NA,NA,NA,NA
SUPAMT36750,3PB5A5BD015PCM5OHY6QQ6PJ8F1G74,48553F12-9047-454D-B281-386460510E4E,2023-09-26_17h17.19.042,WP_VExplicitOC_HL,2022.2.5,Win32,33.14990387,68.22916667,3.4055,2.0141,NA,NA,NA,NA,NA,frustrated,"frustrated, not frustrated","more frustrated, less frustrated",NA,NA,NA,NA,NA,NA,NA,NA,NA,NA,NA,NA,NA,NA,NA,NA,NA,NA,NA,NA,NA,NA,NA,NA,NA,NA,NA,NA,NA,NA,NA,NA,NA,NA,NA,NA,NA,NA,0,1,1,1,1,NA,NA,NA,NA,NA
SUPAMT36750,3PB5A5BD015PCM5OHY6QQ6PJ8F1G74,48553F12-9047-454D-B281-386460510E4E,2023-09-26_17h17.19.042,WP_VExplicitOC_HL,2022.2.5,Win32,33.14990387,59.11458333,3.5735,2.0356,NA,NA,NA,NA,NA,happy,"unhappy, happy","less happy, more happy",NA,NA,NA,NA,NA,NA,NA,NA,NA,NA,NA,NA,NA,NA,NA,NA,NA,NA,NA,NA,NA,NA,NA,NA,NA,NA,NA,NA,NA,NA,NA,NA,NA,NA,NA,NA,NA,NA,0,2,2,0,1,NA,NA,NA,NA,NA
SUPAMT36750,3PB5A5BD015PCM5OHY6QQ6PJ8F1G74,48553F12-9047-454D-B281-386460510E4E,2023-09-26_17h17.19.042,WP_VExplicitOC_HL,2022.2.5,Win32,33.14990387,NA,NA,NA,NA,NA,NA,NA,NA,NA,NA,NA,NA,NA,NA,NA,NA,NA,NA,NA,NA,NA,NA,NA,NA,NA,NA,NA,NA,NA,NA,NA,NA,NA,NA,NA,NA,NA,NA,NA,NA,NA,NA,NA,NA,NA,NA,NA,NA,NA,NA,NA,NA,NA,NA,4,0,4,0,1
SUPAMT36750,3PB5A5BD015PCM5OHY6QQ6PJ8F1G74,48553F12-9047-454D-B281-386460510E4E,2023-09-26_17h17.19.042,WP_VExplicitOC_HL,2022.2.5,Win32,33.14990387,59.375,3.8241,2.0203,NA,NA,NA,NA,NA,happy,"unhappy, happy","less happy, more happy",NA,NA,NA,NA,NA,NA,NA,NA,NA,NA,NA,NA,NA,NA,NA,NA,NA,NA,NA,NA,NA,NA,NA,NA,NA,NA,NA,NA,NA,NA,NA,NA,NA,NA,NA,NA,NA,NA,0,0,0,0,1,NA,NA,NA,NA,NA
SUPAMT36750,3PB5A5BD015PCM5OHY6QQ6PJ8F1G74,48553F12-9047-454D-B281-386460510E4E,2023-09-26_17h17.19.042,WP_VExplicitOC_HL,2022.2.5,Win32,33.14990387,63.80208333,3.7864,2.0212,NA,NA,NA,NA,NA,bored,"bored, not bored","more bored, less bored",NA,NA,NA,NA,NA,NA,NA,NA,NA,NA,NA,NA,NA,NA,NA,NA,NA,NA,NA,NA,NA,NA,NA,NA,NA,NA,NA,NA,NA,NA,NA,NA,NA,NA,NA,NA,NA,NA,0,1,1,2,1,NA,NA,NA,NA,NA
SUPAMT36750,3PB5A5BD015PCM5OHY6QQ6PJ8F1G74,48553F12-9047-454D-B281-386460510E4E,2023-09-26_17h17.19.042,WP_VExplicitOC_HL,2022.2.5,Win32,33.14990387,64.84375,3.696,2.0247,NA,NA,NA,NA,NA,frustrated,"frustrated, not frustrated","more frustrated, less frustrated",NA,NA,NA,NA,NA,NA,NA,NA,NA,NA,NA,NA,NA,NA,NA,NA,NA,NA,NA,NA,NA,NA,NA,NA,NA,NA,NA,NA,NA,NA,NA,NA,NA,NA,NA,NA,NA,NA,0,2,2,1,1,NA,NA,NA,NA,NA
SUPAMT36750,3PB5A5BD015PCM5OHY6QQ6PJ8F1G74,48553F12-9047-454D-B281-386460510E4E,2023-09-26_17h17.19.042,WP_VExplicitOC_HL,2022.2.5,Win32,33.14990387,NA,NA,NA,NA,NA,NA,NA,NA,NA,NA,NA,NA,NA,NA,NA,NA,NA,NA,NA,NA,NA,NA,NA,NA,NA,NA,NA,NA,NA,NA,NA,NA,NA,NA,NA,NA,NA,NA,NA,NA,NA,NA,NA,NA,NA,NA,NA,NA,NA,NA,NA,NA,NA,NA,5,0,5,0,1
SUPAMT36750,3PB5A5BD015PCM5OHY6QQ6PJ8F1G74,48553F12-9047-454D-B281-386460510E4E,2023-09-26_17h17.19.042,WP_VExplicitOC_HL,2022.2.5,Win32,33.14990387,60.67708333,3.467,2.0134,NA,NA,NA,NA,NA,happy,"unhappy, happy","less happy, more happy",NA,NA,NA,NA,NA,NA,NA,NA,NA,NA,NA,NA,NA,NA,NA,NA,NA,NA,NA,NA,NA,NA,NA,NA,NA,NA,NA,NA,NA,NA,NA,NA,NA,NA,NA,NA,NA,NA,0,0,0,0,1,NA,NA,NA,NA,NA
SUPAMT36750,3PB5A5BD015PCM5OHY6QQ6PJ8F1G74,48553F12-9047-454D-B281-386460510E4E,2023-09-26_17h17.19.042,WP_VExplicitOC_HL,2022.2.5,Win32,33.14990387,65.36458333,5.3045,2.0166,NA,NA,NA,NA,NA,bored,"bored, not bored","more bored, less bored",NA,NA,NA,NA,NA,NA,NA,NA,NA,NA,NA,NA,NA,NA,NA,NA,NA,NA,NA,NA,NA,NA,NA,NA,NA,NA,NA,NA,NA,NA,NA,NA,NA,NA,NA,NA,NA,NA,0,1,1,2,1,NA,NA,NA,NA,NA
SUPAMT36750,3PB5A5BD015PCM5OHY6QQ6PJ8F1G74,48553F12-9047-454D-B281-386460510E4E,2023-09-26_17h17.19.042,WP_VExplicitOC_HL,2022.2.5,Win32,33.14990387,65.36458333,4.5123,2.0463,NA,NA,NA,NA,NA,frustrated,"frustrated, not frustrated","more frustrated, less frustrated",NA,NA,NA,NA,NA,NA,NA,NA,NA,NA,NA,NA,NA,NA,NA,NA,NA,NA,NA,NA,NA,NA,NA,NA,NA,NA,NA,NA,NA,NA,NA,NA,NA,NA,NA,NA,NA,NA,0,2,2,1,1,NA,NA,NA,NA,NA
SUPAMT36750,3PB5A5BD015PCM5OHY6QQ6PJ8F1G74,48553F12-9047-454D-B281-386460510E4E,2023-09-26_17h17.19.042,WP_VExplicitOC_HL,2022.2.5,Win32,33.14990387,NA,NA,NA,NA,NA,NA,NA,NA,NA,NA,NA,NA,NA,NA,NA,NA,NA,NA,NA,NA,NA,NA,NA,NA,NA,NA,NA,NA,NA,NA,NA,NA,NA,NA,NA,NA,NA,NA,NA,NA,NA,NA,NA,NA,NA,NA,NA,NA,NA,NA,NA,NA,NA,NA,6,0,6,0,1
SUPAMT36750,3PB5A5BD015PCM5OHY6QQ6PJ8F1G74,48553F12-9047-454D-B281-386460510E4E,2023-09-26_17h17.19.042,WP_VExplicitOC_HL,2022.2.5,Win32,33.14990387,55.98958333,4.0069,2.0151,NA,NA,NA,NA,NA,frustrated,"frustrated, not frustrated","more frustrated, less frustrated",NA,NA,NA,NA,NA,NA,NA,NA,NA,NA,NA,NA,NA,NA,NA,NA,NA,NA,NA,NA,NA,NA,NA,NA,NA,NA,NA,NA,NA,NA,NA,NA,NA,NA,NA,NA,NA,NA,0,0,0,1,1,NA,NA,NA,NA,NA
SUPAMT36750,3PB5A5BD015PCM5OHY6QQ6PJ8F1G74,48553F12-9047-454D-B281-386460510E4E,2023-09-26_17h17.19.042,WP_VExplicitOC_HL,2022.2.5,Win32,33.14990387,70.05208333,3.45,2.0051,NA,NA,NA,NA,NA,happy,"unhappy, happy","less happy, more happy",NA,NA,NA,NA,NA,NA,NA,NA,NA,NA,NA,NA,NA,NA,NA,NA,NA,NA,NA,NA,NA,NA,NA,NA,NA,NA,NA,NA,NA,NA,NA,NA,NA,NA,NA,NA,NA,NA,0,1,1,0,1,NA,NA,NA,NA,NA
SUPAMT36750,3PB5A5BD015PCM5OHY6QQ6PJ8F1G74,48553F12-9047-454D-B281-386460510E4E,2023-09-26_17h17.19.042,WP_VExplicitOC_HL,2022.2.5,Win32,33.14990387,70.05208333,3.4563,2.0534,NA,NA,NA,NA,NA,bored,"bored, not bored","more bored, less bored",NA,NA,NA,NA,NA,NA,NA,NA,NA,NA,NA,NA,NA,NA,NA,NA,NA,NA,NA,NA,NA,NA,NA,NA,NA,NA,NA,NA,NA,NA,NA,NA,NA,NA,NA,NA,NA,NA,0,2,2,2,1,NA,NA,NA,NA,NA
SUPAMT36750,3PB5A5BD015PCM5OHY6QQ6PJ8F1G74,48553F12-9047-454D-B281-386460510E4E,2023-09-26_17h17.19.042,WP_VExplicitOC_HL,2022.2.5,Win32,33.14990387,NA,NA,NA,NA,NA,NA,NA,NA,NA,NA,NA,NA,NA,NA,NA,NA,NA,NA,NA,NA,NA,NA,NA,NA,NA,NA,NA,NA,NA,NA,NA,NA,NA,NA,NA,NA,NA,NA,NA,NA,NA,NA,NA,NA,NA,NA,NA,NA,NA,NA,NA,NA,NA,NA,7,0,7,0,1
SUPAMT36750,3PB5A5BD015PCM5OHY6QQ6PJ8F1G74,48553F12-9047-454D-B281-386460510E4E,2023-09-26_17h17.19.042,WP_VExplicitOC_HL,2022.2.5,Win32,33.14990387,67.44791667,4.3738,2.013,NA,NA,NA,NA,NA,bored,"bored, not bored","more bored, less bored",NA,NA,NA,NA,NA,NA,NA,NA,NA,NA,NA,NA,NA,NA,NA,NA,NA,NA,NA,NA,NA,NA,NA,NA,NA,NA,NA,NA,NA,NA,NA,NA,NA,NA,NA,NA,NA,NA,0,0,0,2,1,NA,NA,NA,NA,NA
SUPAMT36750,3PB5A5BD015PCM5OHY6QQ6PJ8F1G74,48553F12-9047-454D-B281-386460510E4E,2023-09-26_17h17.19.042,WP_VExplicitOC_HL,2022.2.5,Win32,33.14990387,73.69791667,3.2545,2.0087,NA,NA,NA,NA,NA,frustrated,"frustrated, not frustrated","more frustrated, less frustrated",NA,NA,NA,NA,NA,NA,NA,NA,NA,NA,NA,NA,NA,NA,NA,NA,NA,NA,NA,NA,NA,NA,NA,NA,NA,NA,NA,NA,NA,NA,NA,NA,NA,NA,NA,NA,NA,NA,0,1,1,1,1,NA,NA,NA,NA,NA
SUPAMT36750,3PB5A5BD015PCM5OHY6QQ6PJ8F1G74,48553F12-9047-454D-B281-386460510E4E,2023-09-26_17h17.19.042,WP_VExplicitOC_HL,2022.2.5,Win32,33.14990387,57.8125,2.982,2.0358,NA,NA,NA,NA,NA,happy,"unhappy, happy","less happy, more happy",NA,NA,NA,NA,NA,NA,NA,NA,NA,NA,NA,NA,NA,NA,NA,NA,NA,NA,NA,NA,NA,NA,NA,NA,NA,NA,NA,NA,NA,NA,NA,NA,NA,NA,NA,NA,NA,NA,0,2,2,0,1,NA,NA,NA,NA,NA
SUPAMT36750,3PB5A5BD015PCM5OHY6QQ6PJ8F1G74,48553F12-9047-454D-B281-386460510E4E,2023-09-26_17h17.19.042,WP_VExplicitOC_HL,2022.2.5,Win32,33.14990387,NA,NA,NA,NA,NA,NA,NA,NA,NA,NA,NA,NA,NA,NA,NA,NA,NA,NA,NA,NA,NA,NA,NA,NA,NA,NA,NA,NA,NA,NA,NA,NA,NA,NA,NA,NA,NA,NA,NA,NA,NA,NA,NA,NA,NA,NA,NA,NA,NA,NA,NA,NA,NA,NA,8,0,8,0,1
SUPAMT36750,3PB5A5BD015PCM5OHY6QQ6PJ8F1G74,48553F12-9047-454D-B281-386460510E4E,2023-09-26_17h17.19.042,WP_VExplicitOC_HL,2022.2.5,Win32,33.14990387,70.83333333,3.8824,2.0341,NA,NA,NA,NA,NA,frustrated,"frustrated, not frustrated","more frustrated, less frustrated",NA,NA,NA,NA,NA,NA,NA,NA,NA,NA,NA,NA,NA,NA,NA,NA,NA,NA,NA,NA,NA,NA,NA,NA,NA,NA,NA,NA,NA,NA,NA,NA,NA,NA,NA,NA,NA,NA,0,0,0,1,1,NA,NA,NA,NA,NA
SUPAMT36750,3PB5A5BD015PCM5OHY6QQ6PJ8F1G74,48553F12-9047-454D-B281-386460510E4E,2023-09-26_17h17.19.042,WP_VExplicitOC_HL,2022.2.5,Win32,33.14990387,66.40625,3.2974,2.0139,NA,NA,NA,NA,NA,happy,"unhappy, happy","less happy, more happy",NA,NA,NA,NA,NA,NA,NA,NA,NA,NA,NA,NA,NA,NA,NA,NA,NA,NA,NA,NA,NA,NA,NA,NA,NA,NA,NA,NA,NA,NA,NA,NA,NA,NA,NA,NA,NA,NA,0,1,1,0,1,NA,NA,NA,NA,NA
SUPAMT36750,3PB5A5BD015PCM5OHY6QQ6PJ8F1G74,48553F12-9047-454D-B281-386460510E4E,2023-09-26_17h17.19.042,WP_VExplicitOC_HL,2022.2.5,Win32,33.14990387,67.1875,3.0213,2.0018,NA,NA,NA,NA,NA,bored,"bored, not bored","more bored, less bored",NA,NA,NA,NA,NA,NA,NA,NA,NA,NA,NA,NA,NA,NA,NA,NA,NA,NA,NA,NA,NA,NA,NA,NA,NA,NA,NA,NA,NA,NA,NA,NA,NA,NA,NA,NA,NA,NA,0,2,2,2,1,NA,NA,NA,NA,NA
SUPAMT36750,3PB5A5BD015PCM5OHY6QQ6PJ8F1G74,48553F12-9047-454D-B281-386460510E4E,2023-09-26_17h17.19.042,WP_VExplicitOC_HL,2022.2.5,Win32,33.14990387,NA,NA,NA,NA,NA,NA,NA,NA,NA,NA,NA,NA,NA,NA,NA,NA,NA,NA,NA,NA,NA,NA,NA,NA,NA,NA,NA,NA,NA,NA,NA,NA,NA,NA,NA,NA,NA,NA,NA,NA,NA,NA,NA,NA,NA,NA,NA,NA,NA,NA,NA,NA,NA,NA,9,0,9,0,1
SUPAMT36750,3PB5A5BD015PCM5OHY6QQ6PJ8F1G74,48553F12-9047-454D-B281-386460510E4E,2023-09-26_17h17.19.042,WP_VExplicitOC_HL,2022.2.5,Win32,33.14990387,65.10416667,3.4467,2.0045,NA,NA,NA,NA,NA,frustrated,"frustrated, not frustrated","more frustrated, less frustrated",NA,NA,NA,NA,NA,NA,NA,NA,NA,NA,NA,NA,NA,NA,NA,NA,NA,NA,NA,NA,NA,NA,NA,NA,NA,NA,NA,NA,NA,NA,NA,NA,NA,NA,NA,NA,NA,NA,0,0,0,1,1,NA,NA,NA,NA,NA
SUPAMT36750,3PB5A5BD015PCM5OHY6QQ6PJ8F1G74,48553F12-9047-454D-B281-386460510E4E,2023-09-26_17h17.19.042,WP_VExplicitOC_HL,2022.2.5,Win32,33.14990387,64.84375,4.3715,2.0251,NA,NA,NA,NA,NA,bored,"bored, not bored","more bored, less bored",NA,NA,NA,NA,NA,NA,NA,NA,NA,NA,NA,NA,NA,NA,NA,NA,NA,NA,NA,NA,NA,NA,NA,NA,NA,NA,NA,NA,NA,NA,NA,NA,NA,NA,NA,NA,NA,NA,0,1,1,2,1,NA,NA,NA,NA,NA
SUPAMT36750,3PB5A5BD015PCM5OHY6QQ6PJ8F1G74,48553F12-9047-454D-B281-386460510E4E,2023-09-26_17h17.19.042,WP_VExplicitOC_HL,2022.2.5,Win32,33.14990387,64.84375,4.8264,2.0498,NA,NA,NA,NA,NA,happy,"unhappy, happy","less happy, more happy",NA,NA,NA,NA,NA,NA,NA,NA,NA,NA,NA,NA,NA,NA,NA,NA,NA,NA,NA,NA,NA,NA,NA,NA,NA,NA,NA,NA,NA,NA,NA,NA,NA,NA,NA,NA,NA,NA,0,2,2,0,1,NA,NA,NA,NA,NA
SUPAMT36750,3PB5A5BD015PCM5OHY6QQ6PJ8F1G74,48553F12-9047-454D-B281-386460510E4E,2023-09-26_17h17.19.042,WP_VExplicitOC_HL,2022.2.5,Win32,33.14990387,NA,NA,NA,NA,NA,NA,NA,NA,NA,NA,NA,NA,NA,NA,NA,NA,NA,NA,NA,NA,NA,NA,NA,NA,NA,NA,NA,NA,NA,NA,NA,NA,NA,NA,NA,NA,NA,NA,NA,NA,NA,NA,NA,NA,NA,NA,NA,NA,NA,NA,NA,NA,NA,NA,10,0,10,0,1
SUPAMT36750,3PB5A5BD015PCM5OHY6QQ6PJ8F1G74,48553F12-9047-454D-B281-386460510E4E,2023-09-26_17h17.19.042,WP_VExplicitOC_HL,2022.2.5,Win32,33.14990387,64.84375,3.5786,2.0211,NA,NA,NA,NA,NA,frustrated,"frustrated, not frustrated","more frustrated, less frustrated",NA,NA,NA,NA,NA,NA,NA,NA,NA,NA,NA,NA,NA,NA,NA,NA,NA,NA,NA,NA,NA,NA,NA,NA,NA,NA,NA,NA,NA,NA,NA,NA,NA,NA,NA,NA,NA,NA,0,0,0,1,1,NA,NA,NA,NA,NA
SUPAMT36750,3PB5A5BD015PCM5OHY6QQ6PJ8F1G74,48553F12-9047-454D-B281-386460510E4E,2023-09-26_17h17.19.042,WP_VExplicitOC_HL,2022.2.5,Win32,33.14990387,76.82291667,3.9355,2.048,NA,NA,NA,NA,NA,happy,"unhappy, happy","less happy, more happy",NA,NA,NA,NA,NA,NA,NA,NA,NA,NA,NA,NA,NA,NA,NA,NA,NA,NA,NA,NA,NA,NA,NA,NA,NA,NA,NA,NA,NA,NA,NA,NA,NA,NA,NA,NA,NA,NA,0,1,1,0,1,NA,NA,NA,NA,NA
SUPAMT36750,3PB5A5BD015PCM5OHY6QQ6PJ8F1G74,48553F12-9047-454D-B281-386460510E4E,2023-09-26_17h17.19.042,WP_VExplicitOC_HL,2022.2.5,Win32,33.14990387,65.10416667,4.1656,2.0261,NA,NA,NA,NA,NA,bored,"bored, not bored","more bored, less bored",NA,NA,NA,NA,NA,NA,NA,NA,NA,NA,NA,NA,NA,NA,NA,NA,NA,NA,NA,NA,NA,NA,NA,NA,NA,NA,NA,NA,NA,NA,NA,NA,NA,NA,NA,NA,NA,NA,0,2,2,2,1,NA,NA,NA,NA,NA
SUPAMT36750,3PB5A5BD015PCM5OHY6QQ6PJ8F1G74,48553F12-9047-454D-B281-386460510E4E,2023-09-26_17h17.19.042,WP_VExplicitOC_HL,2022.2.5,Win32,33.14990387,NA,NA,NA,NA,NA,NA,NA,NA,NA,NA,NA,NA,NA,NA,NA,NA,NA,NA,NA,NA,NA,NA,NA,NA,NA,NA,NA,NA,NA,NA,NA,NA,NA,NA,NA,NA,NA,NA,NA,NA,NA,NA,NA,NA,NA,NA,NA,NA,NA,NA,NA,NA,NA,NA,11,0,11,0,1
SUPAMT36750,3PB5A5BD015PCM5OHY6QQ6PJ8F1G74,48553F12-9047-454D-B281-386460510E4E,2023-09-26_17h17.19.042,WP_VExplicitOC_HL,2022.2.5,Win32,33.14990387,65.10416667,3.4587,2.0343,NA,NA,NA,NA,NA,bored,"bored, not bored","more bored, less bored",NA,NA,NA,NA,NA,NA,NA,NA,NA,NA,NA,NA,NA,NA,NA,NA,NA,NA,NA,NA,NA,NA,NA,NA,NA,NA,NA,NA,NA,NA,NA,NA,NA,NA,NA,NA,NA,NA,0,0,0,2,1,NA,NA,NA,NA,NA
SUPAMT36750,3PB5A5BD015PCM5OHY6QQ6PJ8F1G74,48553F12-9047-454D-B281-386460510E4E,2023-09-26_17h17.19.042,WP_VExplicitOC_HL,2022.2.5,Win32,33.14990387,65.88541667,4.5398,2.0524,NA,NA,NA,NA,NA,happy,"unhappy, happy","less happy, more happy",NA,NA,NA,NA,NA,NA,NA,NA,NA,NA,NA,NA,NA,NA,NA,NA,NA,NA,NA,NA,NA,NA,NA,NA,NA,NA,NA,NA,NA,NA,NA,NA,NA,NA,NA,NA,NA,NA,0,1,1,0,1,NA,NA,NA,NA,NA
SUPAMT36750,3PB5A5BD015PCM5OHY6QQ6PJ8F1G74,48553F12-9047-454D-B281-386460510E4E,2023-09-26_17h17.19.042,WP_VExplicitOC_HL,2022.2.5,Win32,33.14990387,65.88541667,4.8659,2.0183,NA,NA,NA,NA,NA,frustrated,"frustrated, not frustrated","more frustrated, less frustrated",NA,NA,NA,NA,NA,NA,NA,NA,NA,NA,NA,NA,NA,NA,NA,NA,NA,NA,NA,NA,NA,NA,NA,NA,NA,NA,NA,NA,NA,NA,NA,NA,NA,NA,NA,NA,NA,NA,0,2,2,1,1,NA,NA,NA,NA,NA
SUPAMT36750,3PB5A5BD015PCM5OHY6QQ6PJ8F1G74,48553F12-9047-454D-B281-386460510E4E,2023-09-26_17h17.19.042,WP_VExplicitOC_HL,2022.2.5,Win32,33.14990387,NA,NA,NA,NA,NA,NA,NA,NA,NA,NA,NA,NA,NA,NA,NA,NA,NA,NA,NA,NA,NA,NA,NA,NA,NA,NA,NA,NA,NA,NA,NA,NA,NA,NA,NA,NA,NA,NA,NA,NA,NA,NA,NA,NA,NA,NA,NA,NA,NA,NA,NA,NA,NA,NA,12,0,12,0,1
SUPAMT36750,3PB5A5BD015PCM5OHY6QQ6PJ8F1G74,48553F12-9047-454D-B281-386460510E4E,2023-09-26_17h17.19.042,WP_VExplicitOC_HL,2022.2.5,Win32,33.14990387,74.73958333,3.3867,2.0247,NA,NA,NA,NA,NA,happy,"unhappy, happy","less happy, more happy",NA,NA,NA,NA,NA,NA,NA,NA,NA,NA,NA,NA,NA,NA,NA,NA,NA,NA,NA,NA,NA,NA,NA,NA,NA,NA,NA,NA,NA,NA,NA,NA,NA,NA,NA,NA,NA,NA,0,0,0,0,1,NA,NA,NA,NA,NA
SUPAMT36750,3PB5A5BD015PCM5OHY6QQ6PJ8F1G74,48553F12-9047-454D-B281-386460510E4E,2023-09-26_17h17.19.042,WP_VExplicitOC_HL,2022.2.5,Win32,33.14990387,NA,NA,2.0072,NA,NA,NA,NA,NA,frustrated,"frustrated, not frustrated","more frustrated, less frustrated",NA,NA,NA,NA,NA,NA,NA,NA,NA,NA,NA,NA,NA,NA,NA,NA,NA,NA,NA,NA,NA,NA,NA,NA,NA,NA,NA,NA,NA,NA,NA,NA,NA,NA,NA,NA,NA,NA,0,1,1,1,1,NA,NA,NA,NA,NA
SUPAMT36750,3PB5A5BD015PCM5OHY6QQ6PJ8F1G74,48553F12-9047-454D-B281-386460510E4E,2023-09-26_17h17.19.042,WP_VExplicitOC_HL,2022.2.5,Win32,33.14990387,74.73958333,3.2484,2.0257,NA,NA,NA,NA,NA,bored,"bored, not bored","more bored, less bored",NA,NA,NA,NA,NA,NA,NA,NA,NA,NA,NA,NA,NA,NA,NA,NA,NA,NA,NA,NA,NA,NA,NA,NA,NA,NA,NA,NA,NA,NA,NA,NA,NA,NA,NA,NA,NA,NA,0,2,2,2,1,NA,NA,NA,NA,NA
SUPAMT36750,3PB5A5BD015PCM5OHY6QQ6PJ8F1G74,48553F12-9047-454D-B281-386460510E4E,2023-09-26_17h17.19.042,WP_VExplicitOC_HL,2022.2.5,Win32,33.14990387,NA,NA,NA,NA,NA,NA,NA,NA,NA,NA,NA,NA,NA,NA,NA,NA,NA,NA,NA,NA,NA,NA,NA,NA,NA,NA,NA,NA,NA,NA,NA,NA,NA,NA,NA,NA,NA,NA,NA,NA,NA,NA,NA,NA,NA,NA,NA,NA,NA,NA,NA,NA,NA,NA,13,0,13,0,1
SUPAMT36750,3PB5A5BD015PCM5OHY6QQ6PJ8F1G74,48553F12-9047-454D-B281-386460510E4E,2023-09-26_17h17.19.042,WP_VExplicitOC_HL,2022.2.5,Win32,33.14990387,50.26041667,4.2372,2.0222,NA,NA,NA,NA,NA,bored,"bored, not bored","more bored, less bored",NA,NA,NA,NA,NA,NA,NA,NA,NA,NA,NA,NA,NA,NA,NA,NA,NA,NA,NA,NA,NA,NA,NA,NA,NA,NA,NA,NA,NA,NA,NA,NA,NA,NA,NA,NA,NA,NA,0,0,0,2,1,NA,NA,NA,NA,NA
SUPAMT36750,3PB5A5BD015PCM5OHY6QQ6PJ8F1G74,48553F12-9047-454D-B281-386460510E4E,2023-09-26_17h17.19.042,WP_VExplicitOC_HL,2022.2.5,Win32,33.14990387,50.26041667,4.3933,2.0457,NA,NA,NA,NA,NA,frustrated,"frustrated, not frustrated","more frustrated, less frustrated",NA,NA,NA,NA,NA,NA,NA,NA,NA,NA,NA,NA,NA,NA,NA,NA,NA,NA,NA,NA,NA,NA,NA,NA,NA,NA,NA,NA,NA,NA,NA,NA,NA,NA,NA,NA,NA,NA,0,1,1,1,1,NA,NA,NA,NA,NA
SUPAMT36750,3PB5A5BD015PCM5OHY6QQ6PJ8F1G74,48553F12-9047-454D-B281-386460510E4E,2023-09-26_17h17.19.042,WP_VExplicitOC_HL,2022.2.5,Win32,33.14990387,65.625,3.1723,2.0425,NA,NA,NA,NA,NA,happy,"unhappy, happy","less happy, more happy",NA,NA,NA,NA,NA,NA,NA,NA,NA,NA,NA,NA,NA,NA,NA,NA,NA,NA,NA,NA,NA,NA,NA,NA,NA,NA,NA,NA,NA,NA,NA,NA,NA,NA,NA,NA,NA,NA,0,2,2,0,1,NA,NA,NA,NA,NA
SUPAMT36750,3PB5A5BD015PCM5OHY6QQ6PJ8F1G74,48553F12-9047-454D-B281-386460510E4E,2023-09-26_17h17.19.042,WP_VExplicitOC_HL,2022.2.5,Win32,33.14990387,NA,NA,NA,NA,NA,NA,NA,NA,NA,NA,NA,NA,NA,NA,NA,NA,NA,NA,NA,NA,NA,NA,NA,NA,NA,NA,NA,NA,NA,NA,NA,NA,NA,NA,NA,NA,NA,NA,NA,NA,NA,NA,NA,NA,NA,NA,NA,NA,NA,NA,NA,NA,NA,NA,14,0,14,0,1
SUPAMT36750,3PB5A5BD015PCM5OHY6QQ6PJ8F1G74,48553F12-9047-454D-B281-386460510E4E,2023-09-26_17h17.19.042,WP_VExplicitOC_HL,2022.2.5,Win32,33.14990387,NA,NA,NA,NA,NA,NA,NA,NA,NA,NA,NA,NA,NA,NA,NA,NA,NA,NA,NA,NA,NA,NA,NA,NA,NA,NA,NA,NA,NA,NA,NA,NA,NA,NA,NA,NA,NA,NA,NA,NA,NA,NA,NA,NA,NA,NA,NA,NA,NA,NA,NA,NA,NA,NA,NA,NA,NA,NA,NA
