participant,session,completion,date,expName,psychopyVersion,OS,frameRate,rating_all.response,rating_all.rt,rating_all.tStart,rndRat1.thisRepN,rndRat1.thisTrialN,rndRat1.thisN,rndRat1.thisIndex,rndRat1.ran,Emo,Labs,Labs2,rating_alt.response,rating_alt.rt,AltC.thisRepN,AltC.thisTrialN,AltC.thisN,AltC.thisIndex,AltC.ran,alt_choices,pic_choices,TopAlt_Choice,rndRat2.thisRepN,rndRat2.thisTrialN,rndRat2.thisN,rndRat2.thisIndex,rndRat2.ran,rndRat3.thisRepN,rndRat3.thisTrialN,rndRat3.thisN,rndRat3.thisIndex,rndRat3.ran,trials_FC_H.thisRepN,trials_FC_H.thisTrialN,trials_FC_H.thisN,trials_FC_H.thisIndex,trials_FC_H.ran,rating_alt_2.response,rating_alt_2.rt,AltC2.thisRepN,AltC2.thisTrialN,AltC2.thisN,AltC2.thisIndex,AltC2.ran,BottomAlt_Choice,rndRat4.thisRepN,rndRat4.thisTrialN,rndRat4.thisN,rndRat4.thisIndex,rndRat4.ran,rndRat5.thisRepN,rndRat5.thisTrialN,rndRat5.thisN,rndRat5.thisIndex,rndRat5.ran,trials_FC_L.thisRepN,trials_FC_L.thisTrialN,trials_FC_L.thisN,trials_FC_L.thisIndex,trials_FC_L.ran
SUPAMT80780,3FDJT1UU7A7FR4NOJWC8QE3GOQVK54,FE619D35-48CA-433A-BFF9-8FAB7925D084,2023-09-26_11h55.37.276,WP_VExplicitOC_HL,2022.2.5,Win32,13.15131908,NA,NA,NA,NA,NA,NA,NA,NA,NA,NA,NA,NA,NA,NA,NA,NA,NA,NA,NA,NA,NA,NA,NA,NA,NA,NA,NA,NA,NA,NA,NA,NA,NA,NA,NA,NA,NA,NA,NA,NA,NA,NA,NA,NA,NA,NA,NA,NA,NA,NA,NA,NA,NA,NA,NA,NA,NA,NA,NA
SUPAMT80780,3FDJT1UU7A7FR4NOJWC8QE3GOQVK54,FE619D35-48CA-433A-BFF9-8FAB7925D084,2023-09-26_11h55.37.276,WP_VExplicitOC_HL,2022.2.5,Win32,13.15131908,NA,NA,NA,NA,NA,NA,NA,NA,NA,NA,NA,NA,NA,NA,NA,NA,NA,NA,NA,NA,NA,NA,NA,NA,NA,NA,NA,NA,NA,NA,NA,NA,NA,NA,NA,NA,NA,NA,NA,NA,NA,NA,NA,NA,NA,NA,NA,NA,NA,NA,NA,NA,NA,NA,NA,NA,NA,NA,NA
SUPAMT80780,3FDJT1UU7A7FR4NOJWC8QE3GOQVK54,FE619D35-48CA-433A-BFF9-8FAB7925D084,2023-09-26_11h55.37.276,WP_VExplicitOC_HL,2022.2.5,Win32,13.15131908,NA,NA,NA,NA,NA,NA,NA,NA,NA,NA,NA,NA,NA,NA,NA,NA,NA,NA,NA,NA,NA,NA,NA,NA,NA,NA,NA,NA,NA,NA,NA,NA,NA,NA,NA,NA,NA,NA,NA,NA,NA,NA,NA,NA,NA,NA,NA,NA,NA,NA,NA,NA,NA,NA,NA,NA,NA,NA,NA
SUPAMT80780,3FDJT1UU7A7FR4NOJWC8QE3GOQVK54,FE619D35-48CA-433A-BFF9-8FAB7925D084,2023-09-26_11h55.37.276,WP_VExplicitOC_HL,2022.2.5,Win32,13.15131908,48.69791667,3.5855,2.0991,0,0,0,0,1,happy,"unhappy, happy","less happy, more happy",NA,NA,NA,NA,NA,NA,NA,NA,NA,NA,NA,NA,NA,NA,NA,NA,NA,NA,NA,NA,NA,NA,NA,NA,NA,NA,NA,NA,NA,NA,NA,NA,NA,NA,NA,NA,NA,NA,NA,NA,NA,NA,NA,NA,NA,NA,NA,NA
SUPAMT80780,3FDJT1UU7A7FR4NOJWC8QE3GOQVK54,FE619D35-48CA-433A-BFF9-8FAB7925D084,2023-09-26_11h55.37.276,WP_VExplicitOC_HL,2022.2.5,Win32,13.15131908,54.16666667,3.542,2.0816,0,1,1,1,1,frustrated,"frustrated, not frustrated","more frustrated, less frustrated",NA,NA,NA,NA,NA,NA,NA,NA,NA,NA,NA,NA,NA,NA,NA,NA,NA,NA,NA,NA,NA,NA,NA,NA,NA,NA,NA,NA,NA,NA,NA,NA,NA,NA,NA,NA,NA,NA,NA,NA,NA,NA,NA,NA,NA,NA,NA,NA
SUPAMT80780,3FDJT1UU7A7FR4NOJWC8QE3GOQVK54,FE619D35-48CA-433A-BFF9-8FAB7925D084,2023-09-26_11h55.37.276,WP_VExplicitOC_HL,2022.2.5,Win32,13.15131908,62.76041667,3.1453,2.0188,0,2,2,2,1,bored,"bored, not bored","more bored, less bored",NA,NA,NA,NA,NA,NA,NA,NA,NA,NA,NA,NA,NA,NA,NA,NA,NA,NA,NA,NA,NA,NA,NA,NA,NA,NA,NA,NA,NA,NA,NA,NA,NA,NA,NA,NA,NA,NA,NA,NA,NA,NA,NA,NA,NA,NA,NA,NA
SUPAMT80780,3FDJT1UU7A7FR4NOJWC8QE3GOQVK54,FE619D35-48CA-433A-BFF9-8FAB7925D084,2023-09-26_11h55.37.276,WP_VExplicitOC_HL,2022.2.5,Win32,13.15131908,NA,NA,NA,NA,NA,NA,NA,NA,NA,NA,NA,NA,NA,NA,NA,NA,NA,NA,NA,NA,NA,NA,NA,NA,NA,NA,NA,NA,NA,NA,NA,NA,NA,NA,NA,NA,NA,NA,NA,NA,NA,NA,NA,NA,NA,NA,NA,NA,NA,NA,NA,NA,NA,NA,NA,NA,NA,NA,NA
SUPAMT80780,3FDJT1UU7A7FR4NOJWC8QE3GOQVK54,FE619D35-48CA-433A-BFF9-8FAB7925D084,2023-09-26_11h55.37.276,WP_VExplicitOC_HL,2022.2.5,Win32,13.15131908,NA,NA,NA,NA,NA,NA,NA,NA,NA,NA,NA,NA,NA,NA,NA,NA,NA,NA,NA,NA,NA,NA,NA,NA,NA,NA,NA,NA,NA,NA,NA,NA,NA,NA,NA,NA,NA,NA,NA,NA,NA,NA,NA,NA,NA,NA,NA,NA,NA,NA,NA,NA,NA,NA,NA,NA,NA,NA,NA
SUPAMT80780,3FDJT1UU7A7FR4NOJWC8QE3GOQVK54,FE619D35-48CA-433A-BFF9-8FAB7925D084,2023-09-26_11h55.37.276,WP_VExplicitOC_HL,2022.2.5,Win32,13.15131908,NA,NA,NA,NA,NA,NA,NA,NA,NA,NA,NA,NA,NA,NA,NA,NA,NA,NA,NA,NA,NA,NA,NA,NA,NA,NA,NA,NA,NA,NA,NA,NA,NA,NA,NA,NA,NA,NA,NA,NA,NA,NA,NA,NA,NA,NA,NA,NA,NA,NA,NA,NA,NA,NA,NA,NA,NA,NA,NA
SUPAMT80780,3FDJT1UU7A7FR4NOJWC8QE3GOQVK54,FE619D35-48CA-433A-BFF9-8FAB7925D084,2023-09-26_11h55.37.276,WP_VExplicitOC_HL,2022.2.5,Win32,13.15131908,NA,NA,NA,NA,NA,NA,NA,NA,NA,NA,NA,NA,NA,NA,NA,NA,NA,NA,NA,NA,NA,NA,NA,NA,NA,NA,NA,NA,NA,NA,NA,NA,NA,NA,NA,NA,NA,NA,NA,NA,NA,NA,NA,NA,NA,NA,NA,NA,NA,NA,NA,NA,NA,NA,NA,NA,NA,NA,NA
SUPAMT80780,3FDJT1UU7A7FR4NOJWC8QE3GOQVK54,FE619D35-48CA-433A-BFF9-8FAB7925D084,2023-09-26_11h55.37.276,WP_VExplicitOC_HL,2022.2.5,Win32,13.15131908,NA,NA,NA,NA,NA,NA,NA,NA,NA,NA,NA,67.70833333,3.3498,0,0,0,0,1,rest (looking at a fixed cross),001.png,NA,NA,NA,NA,NA,NA,NA,NA,NA,NA,NA,NA,NA,NA,NA,NA,NA,NA,NA,NA,NA,NA,NA,NA,NA,NA,NA,NA,NA,NA,NA,NA,NA,NA,NA,NA,NA,NA,NA
SUPAMT80780,3FDJT1UU7A7FR4NOJWC8QE3GOQVK54,FE619D35-48CA-433A-BFF9-8FAB7925D084,2023-09-26_11h55.37.276,WP_VExplicitOC_HL,2022.2.5,Win32,13.15131908,NA,NA,NA,NA,NA,NA,NA,NA,NA,NA,NA,59.375,2.2959,0,1,1,1,1,stand up,002.png,NA,NA,NA,NA,NA,NA,NA,NA,NA,NA,NA,NA,NA,NA,NA,NA,NA,NA,NA,NA,NA,NA,NA,NA,NA,NA,NA,NA,NA,NA,NA,NA,NA,NA,NA,NA,NA,NA,NA
SUPAMT80780,3FDJT1UU7A7FR4NOJWC8QE3GOQVK54,FE619D35-48CA-433A-BFF9-8FAB7925D084,2023-09-26_11h55.37.276,WP_VExplicitOC_HL,2022.2.5,Win32,13.15131908,NA,NA,NA,NA,NA,NA,NA,NA,NA,NA,NA,59.11458333,3.2963,0,2,2,2,1,stretch,003.png,NA,NA,NA,NA,NA,NA,NA,NA,NA,NA,NA,NA,NA,NA,NA,NA,NA,NA,NA,NA,NA,NA,NA,NA,NA,NA,NA,NA,NA,NA,NA,NA,NA,NA,NA,NA,NA,NA,NA
SUPAMT80780,3FDJT1UU7A7FR4NOJWC8QE3GOQVK54,FE619D35-48CA-433A-BFF9-8FAB7925D084,2023-09-26_11h55.37.276,WP_VExplicitOC_HL,2022.2.5,Win32,13.15131908,NA,NA,NA,NA,NA,NA,NA,NA,NA,NA,NA,59.11458333,1.4224,0,3,3,3,1,make a drink,004.png,NA,NA,NA,NA,NA,NA,NA,NA,NA,NA,NA,NA,NA,NA,NA,NA,NA,NA,NA,NA,NA,NA,NA,NA,NA,NA,NA,NA,NA,NA,NA,NA,NA,NA,NA,NA,NA,NA,NA
SUPAMT80780,3FDJT1UU7A7FR4NOJWC8QE3GOQVK54,FE619D35-48CA-433A-BFF9-8FAB7925D084,2023-09-26_11h55.37.276,WP_VExplicitOC_HL,2022.2.5,Win32,13.15131908,NA,NA,NA,NA,NA,NA,NA,NA,NA,NA,NA,-27.34375,1.3033,0,4,4,4,1,scroll social media,005.png,NA,NA,NA,NA,NA,NA,NA,NA,NA,NA,NA,NA,NA,NA,NA,NA,NA,NA,NA,NA,NA,NA,NA,NA,NA,NA,NA,NA,NA,NA,NA,NA,NA,NA,NA,NA,NA,NA,NA
SUPAMT80780,3FDJT1UU7A7FR4NOJWC8QE3GOQVK54,FE619D35-48CA-433A-BFF9-8FAB7925D084,2023-09-26_11h55.37.276,WP_VExplicitOC_HL,2022.2.5,Win32,13.15131908,NA,NA,NA,NA,NA,NA,NA,NA,NA,NA,NA,34.89583333,1.6906,0,5,5,5,1,listen to music,006.png,NA,NA,NA,NA,NA,NA,NA,NA,NA,NA,NA,NA,NA,NA,NA,NA,NA,NA,NA,NA,NA,NA,NA,NA,NA,NA,NA,NA,NA,NA,NA,NA,NA,NA,NA,NA,NA,NA,NA
SUPAMT80780,3FDJT1UU7A7FR4NOJWC8QE3GOQVK54,FE619D35-48CA-433A-BFF9-8FAB7925D084,2023-09-26_11h55.37.276,WP_VExplicitOC_HL,2022.2.5,Win32,13.15131908,NA,NA,NA,NA,NA,NA,NA,NA,NA,NA,NA,69.01041667,1.7151,0,6,6,6,1,daydream,007.png,NA,NA,NA,NA,NA,NA,NA,NA,NA,NA,NA,NA,NA,NA,NA,NA,NA,NA,NA,NA,NA,NA,NA,NA,NA,NA,NA,NA,NA,NA,NA,NA,NA,NA,NA,NA,NA,NA,NA
SUPAMT80780,3FDJT1UU7A7FR4NOJWC8QE3GOQVK54,FE619D35-48CA-433A-BFF9-8FAB7925D084,2023-09-26_11h55.37.276,WP_VExplicitOC_HL,2022.2.5,Win32,13.15131908,NA,NA,NA,NA,NA,NA,NA,NA,NA,NA,NA,33.85416667,1.5496,0,7,7,7,1,watch a short animation,008.png,NA,NA,NA,NA,NA,NA,NA,NA,NA,NA,NA,NA,NA,NA,NA,NA,NA,NA,NA,NA,NA,NA,NA,NA,NA,NA,NA,NA,NA,NA,NA,NA,NA,NA,NA,NA,NA,NA,NA
SUPAMT80780,3FDJT1UU7A7FR4NOJWC8QE3GOQVK54,FE619D35-48CA-433A-BFF9-8FAB7925D084,2023-09-26_11h55.37.276,WP_VExplicitOC_HL,2022.2.5,Win32,13.15131908,NA,NA,NA,NA,NA,NA,NA,NA,NA,NA,NA,-29.94791667,1.2709,0,8,8,8,1,read a novel,009.png,NA,NA,NA,NA,NA,NA,NA,NA,NA,NA,NA,NA,NA,NA,NA,NA,NA,NA,NA,NA,NA,NA,NA,NA,NA,NA,NA,NA,NA,NA,NA,NA,NA,NA,NA,NA,NA,NA,NA
SUPAMT80780,3FDJT1UU7A7FR4NOJWC8QE3GOQVK54,FE619D35-48CA-433A-BFF9-8FAB7925D084,2023-09-26_11h55.37.276,WP_VExplicitOC_HL,2022.2.5,Win32,13.15131908,NA,NA,NA,NA,NA,NA,NA,NA,NA,NA,NA,29.16666667,1.015,0,9,9,9,1,read the news,010.png,NA,NA,NA,NA,NA,NA,NA,NA,NA,NA,NA,NA,NA,NA,NA,NA,NA,NA,NA,NA,NA,NA,NA,NA,NA,NA,NA,NA,NA,NA,NA,NA,NA,NA,NA,NA,NA,NA,NA
SUPAMT80780,3FDJT1UU7A7FR4NOJWC8QE3GOQVK54,FE619D35-48CA-433A-BFF9-8FAB7925D084,2023-09-26_11h55.37.276,WP_VExplicitOC_HL,2022.2.5,Win32,13.15131908,NA,NA,NA,NA,NA,NA,NA,NA,NA,NA,NA,NA,NA,NA,NA,NA,NA,NA,NA,NA,NA,NA,NA,NA,NA,NA,NA,NA,NA,NA,NA,NA,NA,NA,NA,NA,NA,NA,NA,NA,NA,NA,NA,NA,NA,NA,NA,NA,NA,NA,NA,NA,NA,NA,NA,NA,NA,NA,NA
SUPAMT80780,3FDJT1UU7A7FR4NOJWC8QE3GOQVK54,FE619D35-48CA-433A-BFF9-8FAB7925D084,2023-09-26_11h55.37.276,WP_VExplicitOC_HL,2022.2.5,Win32,13.15131908,NA,NA,NA,NA,NA,NA,NA,NA,NA,NA,NA,NA,NA,NA,NA,NA,NA,NA,NA,NA,daydream,NA,NA,NA,NA,NA,NA,NA,NA,NA,NA,NA,NA,NA,NA,NA,NA,NA,NA,NA,NA,NA,NA,NA,NA,NA,NA,NA,NA,NA,NA,NA,NA,NA,NA,NA,NA,NA,NA
SUPAMT80780,3FDJT1UU7A7FR4NOJWC8QE3GOQVK54,FE619D35-48CA-433A-BFF9-8FAB7925D084,2023-09-26_11h55.37.276,WP_VExplicitOC_HL,2022.2.5,Win32,13.15131908,36.97916667,3.2121,2.0875,NA,NA,NA,NA,NA,bored,"bored, not bored","more bored, less bored",NA,NA,NA,NA,NA,NA,NA,NA,NA,NA,0,0,0,2,1,NA,NA,NA,NA,NA,NA,NA,NA,NA,NA,NA,NA,NA,NA,NA,NA,NA,NA,NA,NA,NA,NA,NA,NA,NA,NA,NA,NA,NA,NA,NA,NA,NA
SUPAMT80780,3FDJT1UU7A7FR4NOJWC8QE3GOQVK54,FE619D35-48CA-433A-BFF9-8FAB7925D084,2023-09-26_11h55.37.276,WP_VExplicitOC_HL,2022.2.5,Win32,13.15131908,64.0625,4.6632,2.0499,NA,NA,NA,NA,NA,frustrated,"frustrated, not frustrated","more frustrated, less frustrated",NA,NA,NA,NA,NA,NA,NA,NA,NA,NA,0,1,1,1,1,NA,NA,NA,NA,NA,NA,NA,NA,NA,NA,NA,NA,NA,NA,NA,NA,NA,NA,NA,NA,NA,NA,NA,NA,NA,NA,NA,NA,NA,NA,NA,NA,NA
SUPAMT80780,3FDJT1UU7A7FR4NOJWC8QE3GOQVK54,FE619D35-48CA-433A-BFF9-8FAB7925D084,2023-09-26_11h55.37.276,WP_VExplicitOC_HL,2022.2.5,Win32,13.15131908,NA,NA,2.0942,NA,NA,NA,NA,NA,happy,"unhappy, happy","less happy, more happy",NA,NA,NA,NA,NA,NA,NA,NA,NA,NA,0,2,2,0,1,NA,NA,NA,NA,NA,NA,NA,NA,NA,NA,NA,NA,NA,NA,NA,NA,NA,NA,NA,NA,NA,NA,NA,NA,NA,NA,NA,NA,NA,NA,NA,NA,NA
SUPAMT80780,3FDJT1UU7A7FR4NOJWC8QE3GOQVK54,FE619D35-48CA-433A-BFF9-8FAB7925D084,2023-09-26_11h55.37.276,WP_VExplicitOC_HL,2022.2.5,Win32,13.15131908,NA,NA,NA,NA,NA,NA,NA,NA,NA,NA,NA,NA,NA,NA,NA,NA,NA,NA,NA,NA,NA,NA,NA,NA,NA,NA,NA,NA,NA,NA,NA,NA,NA,NA,NA,NA,NA,NA,NA,NA,NA,NA,NA,NA,NA,NA,NA,NA,NA,NA,NA,NA,NA,NA,NA,NA,NA,NA,NA
SUPAMT80780,3FDJT1UU7A7FR4NOJWC8QE3GOQVK54,FE619D35-48CA-433A-BFF9-8FAB7925D084,2023-09-26_11h55.37.276,WP_VExplicitOC_HL,2022.2.5,Win32,13.15131908,NA,NA,NA,NA,NA,NA,NA,NA,NA,NA,NA,NA,NA,NA,NA,NA,NA,NA,NA,NA,NA,NA,NA,NA,NA,NA,NA,NA,NA,NA,NA,NA,NA,NA,NA,NA,NA,NA,NA,NA,NA,NA,NA,NA,NA,NA,NA,NA,NA,NA,NA,NA,NA,NA,NA,NA,NA,NA,NA
SUPAMT80780,3FDJT1UU7A7FR4NOJWC8QE3GOQVK54,FE619D35-48CA-433A-BFF9-8FAB7925D084,2023-09-26_11h55.37.276,WP_VExplicitOC_HL,2022.2.5,Win32,13.15131908,67.96875,3.7498,2.0107,NA,NA,NA,NA,NA,happy,"unhappy, happy","less happy, more happy",NA,NA,NA,NA,NA,NA,NA,NA,NA,NA,NA,NA,NA,NA,NA,0,0,0,0,1,NA,NA,NA,NA,NA,NA,NA,NA,NA,NA,NA,NA,NA,NA,NA,NA,NA,NA,NA,NA,NA,NA,NA,NA,NA,NA,NA,NA
SUPAMT80780,3FDJT1UU7A7FR4NOJWC8QE3GOQVK54,FE619D35-48CA-433A-BFF9-8FAB7925D084,2023-09-26_11h55.37.276,WP_VExplicitOC_HL,2022.2.5,Win32,13.15131908,58.85416667,3.2148,2.0394,NA,NA,NA,NA,NA,bored,"bored, not bored","more bored, less bored",NA,NA,NA,NA,NA,NA,NA,NA,NA,NA,NA,NA,NA,NA,NA,0,1,1,2,1,NA,NA,NA,NA,NA,NA,NA,NA,NA,NA,NA,NA,NA,NA,NA,NA,NA,NA,NA,NA,NA,NA,NA,NA,NA,NA,NA,NA
SUPAMT80780,3FDJT1UU7A7FR4NOJWC8QE3GOQVK54,FE619D35-48CA-433A-BFF9-8FAB7925D084,2023-09-26_11h55.37.276,WP_VExplicitOC_HL,2022.2.5,Win32,13.15131908,61.71875,3.283,2.0465,NA,NA,NA,NA,NA,frustrated,"frustrated, not frustrated","more frustrated, less frustrated",NA,NA,NA,NA,NA,NA,NA,NA,NA,NA,NA,NA,NA,NA,NA,0,2,2,1,1,NA,NA,NA,NA,NA,NA,NA,NA,NA,NA,NA,NA,NA,NA,NA,NA,NA,NA,NA,NA,NA,NA,NA,NA,NA,NA,NA,NA
SUPAMT80780,3FDJT1UU7A7FR4NOJWC8QE3GOQVK54,FE619D35-48CA-433A-BFF9-8FAB7925D084,2023-09-26_11h55.37.276,WP_VExplicitOC_HL,2022.2.5,Win32,13.15131908,NA,NA,NA,NA,NA,NA,NA,NA,NA,NA,NA,NA,NA,NA,NA,NA,NA,NA,NA,NA,NA,NA,NA,NA,NA,NA,NA,NA,NA,NA,NA,0,0,0,0,1,NA,NA,NA,NA,NA,NA,NA,NA,NA,NA,NA,NA,NA,NA,NA,NA,NA,NA,NA,NA,NA,NA,NA
SUPAMT80780,3FDJT1UU7A7FR4NOJWC8QE3GOQVK54,FE619D35-48CA-433A-BFF9-8FAB7925D084,2023-09-26_11h55.37.276,WP_VExplicitOC_HL,2022.2.5,Win32,13.15131908,59.89583333,3.0416,2.0002,NA,NA,NA,NA,NA,frustrated,"frustrated, not frustrated","more frustrated, less frustrated",NA,NA,NA,NA,NA,NA,NA,NA,NA,NA,NA,NA,NA,NA,NA,0,0,0,1,1,NA,NA,NA,NA,NA,NA,NA,NA,NA,NA,NA,NA,NA,NA,NA,NA,NA,NA,NA,NA,NA,NA,NA,NA,NA,NA,NA,NA
SUPAMT80780,3FDJT1UU7A7FR4NOJWC8QE3GOQVK54,FE619D35-48CA-433A-BFF9-8FAB7925D084,2023-09-26_11h55.37.276,WP_VExplicitOC_HL,2022.2.5,Win32,13.15131908,68.22916667,3.0651,2.0339,NA,NA,NA,NA,NA,bored,"bored, not bored","more bored, less bored",NA,NA,NA,NA,NA,NA,NA,NA,NA,NA,NA,NA,NA,NA,NA,0,1,1,2,1,NA,NA,NA,NA,NA,NA,NA,NA,NA,NA,NA,NA,NA,NA,NA,NA,NA,NA,NA,NA,NA,NA,NA,NA,NA,NA,NA,NA
SUPAMT80780,3FDJT1UU7A7FR4NOJWC8QE3GOQVK54,FE619D35-48CA-433A-BFF9-8FAB7925D084,2023-09-26_11h55.37.276,WP_VExplicitOC_HL,2022.2.5,Win32,13.15131908,65.36458333,3.1201,2.0371,NA,NA,NA,NA,NA,happy,"unhappy, happy","less happy, more happy",NA,NA,NA,NA,NA,NA,NA,NA,NA,NA,NA,NA,NA,NA,NA,0,2,2,0,1,NA,NA,NA,NA,NA,NA,NA,NA,NA,NA,NA,NA,NA,NA,NA,NA,NA,NA,NA,NA,NA,NA,NA,NA,NA,NA,NA,NA
SUPAMT80780,3FDJT1UU7A7FR4NOJWC8QE3GOQVK54,FE619D35-48CA-433A-BFF9-8FAB7925D084,2023-09-26_11h55.37.276,WP_VExplicitOC_HL,2022.2.5,Win32,13.15131908,NA,NA,NA,NA,NA,NA,NA,NA,NA,NA,NA,NA,NA,NA,NA,NA,NA,NA,NA,NA,NA,NA,NA,NA,NA,NA,NA,NA,NA,NA,NA,1,0,1,0,1,NA,NA,NA,NA,NA,NA,NA,NA,NA,NA,NA,NA,NA,NA,NA,NA,NA,NA,NA,NA,NA,NA,NA
SUPAMT80780,3FDJT1UU7A7FR4NOJWC8QE3GOQVK54,FE619D35-48CA-433A-BFF9-8FAB7925D084,2023-09-26_11h55.37.276,WP_VExplicitOC_HL,2022.2.5,Win32,13.15131908,69.79166667,4.1857,2.0219,NA,NA,NA,NA,NA,bored,"bored, not bored","more bored, less bored",NA,NA,NA,NA,NA,NA,NA,NA,NA,NA,NA,NA,NA,NA,NA,0,0,0,2,1,NA,NA,NA,NA,NA,NA,NA,NA,NA,NA,NA,NA,NA,NA,NA,NA,NA,NA,NA,NA,NA,NA,NA,NA,NA,NA,NA,NA
SUPAMT80780,3FDJT1UU7A7FR4NOJWC8QE3GOQVK54,FE619D35-48CA-433A-BFF9-8FAB7925D084,2023-09-26_11h55.37.276,WP_VExplicitOC_HL,2022.2.5,Win32,13.15131908,78.90625,3.3284,2.063,NA,NA,NA,NA,NA,frustrated,"frustrated, not frustrated","more frustrated, less frustrated",NA,NA,NA,NA,NA,NA,NA,NA,NA,NA,NA,NA,NA,NA,NA,0,1,1,1,1,NA,NA,NA,NA,NA,NA,NA,NA,NA,NA,NA,NA,NA,NA,NA,NA,NA,NA,NA,NA,NA,NA,NA,NA,NA,NA,NA,NA
SUPAMT80780,3FDJT1UU7A7FR4NOJWC8QE3GOQVK54,FE619D35-48CA-433A-BFF9-8FAB7925D084,2023-09-26_11h55.37.276,WP_VExplicitOC_HL,2022.2.5,Win32,13.15131908,78.90625,3.8862,2.0067,NA,NA,NA,NA,NA,happy,"unhappy, happy","less happy, more happy",NA,NA,NA,NA,NA,NA,NA,NA,NA,NA,NA,NA,NA,NA,NA,0,2,2,0,1,NA,NA,NA,NA,NA,NA,NA,NA,NA,NA,NA,NA,NA,NA,NA,NA,NA,NA,NA,NA,NA,NA,NA,NA,NA,NA,NA,NA
SUPAMT80780,3FDJT1UU7A7FR4NOJWC8QE3GOQVK54,FE619D35-48CA-433A-BFF9-8FAB7925D084,2023-09-26_11h55.37.276,WP_VExplicitOC_HL,2022.2.5,Win32,13.15131908,NA,NA,NA,NA,NA,NA,NA,NA,NA,NA,NA,NA,NA,NA,NA,NA,NA,NA,NA,NA,NA,NA,NA,NA,NA,NA,NA,NA,NA,NA,NA,2,0,2,0,1,NA,NA,NA,NA,NA,NA,NA,NA,NA,NA,NA,NA,NA,NA,NA,NA,NA,NA,NA,NA,NA,NA,NA
SUPAMT80780,3FDJT1UU7A7FR4NOJWC8QE3GOQVK54,FE619D35-48CA-433A-BFF9-8FAB7925D084,2023-09-26_11h55.37.276,WP_VExplicitOC_HL,2022.2.5,Win32,13.15131908,62.23958333,4.022,2.0523,NA,NA,NA,NA,NA,bored,"bored, not bored","more bored, less bored",NA,NA,NA,NA,NA,NA,NA,NA,NA,NA,NA,NA,NA,NA,NA,0,0,0,2,1,NA,NA,NA,NA,NA,NA,NA,NA,NA,NA,NA,NA,NA,NA,NA,NA,NA,NA,NA,NA,NA,NA,NA,NA,NA,NA,NA,NA
SUPAMT80780,3FDJT1UU7A7FR4NOJWC8QE3GOQVK54,FE619D35-48CA-433A-BFF9-8FAB7925D084,2023-09-26_11h55.37.276,WP_VExplicitOC_HL,2022.2.5,Win32,13.15131908,69.53125,3.3926,2.0722,NA,NA,NA,NA,NA,happy,"unhappy, happy","less happy, more happy",NA,NA,NA,NA,NA,NA,NA,NA,NA,NA,NA,NA,NA,NA,NA,0,1,1,0,1,NA,NA,NA,NA,NA,NA,NA,NA,NA,NA,NA,NA,NA,NA,NA,NA,NA,NA,NA,NA,NA,NA,NA,NA,NA,NA,NA,NA
SUPAMT80780,3FDJT1UU7A7FR4NOJWC8QE3GOQVK54,FE619D35-48CA-433A-BFF9-8FAB7925D084,2023-09-26_11h55.37.276,WP_VExplicitOC_HL,2022.2.5,Win32,13.15131908,69.53125,3.1544,2.0811,NA,NA,NA,NA,NA,frustrated,"frustrated, not frustrated","more frustrated, less frustrated",NA,NA,NA,NA,NA,NA,NA,NA,NA,NA,NA,NA,NA,NA,NA,0,2,2,1,1,NA,NA,NA,NA,NA,NA,NA,NA,NA,NA,NA,NA,NA,NA,NA,NA,NA,NA,NA,NA,NA,NA,NA,NA,NA,NA,NA,NA
SUPAMT80780,3FDJT1UU7A7FR4NOJWC8QE3GOQVK54,FE619D35-48CA-433A-BFF9-8FAB7925D084,2023-09-26_11h55.37.276,WP_VExplicitOC_HL,2022.2.5,Win32,13.15131908,NA,NA,NA,NA,NA,NA,NA,NA,NA,NA,NA,NA,NA,NA,NA,NA,NA,NA,NA,NA,NA,NA,NA,NA,NA,NA,NA,NA,NA,NA,NA,3,0,3,0,1,NA,NA,NA,NA,NA,NA,NA,NA,NA,NA,NA,NA,NA,NA,NA,NA,NA,NA,NA,NA,NA,NA,NA
SUPAMT80780,3FDJT1UU7A7FR4NOJWC8QE3GOQVK54,FE619D35-48CA-433A-BFF9-8FAB7925D084,2023-09-26_11h55.37.276,WP_VExplicitOC_HL,2022.2.5,Win32,13.15131908,52.86458333,3.4392,2.0889,NA,NA,NA,NA,NA,frustrated,"frustrated, not frustrated","more frustrated, less frustrated",NA,NA,NA,NA,NA,NA,NA,NA,NA,NA,NA,NA,NA,NA,NA,0,0,0,1,1,NA,NA,NA,NA,NA,NA,NA,NA,NA,NA,NA,NA,NA,NA,NA,NA,NA,NA,NA,NA,NA,NA,NA,NA,NA,NA,NA,NA
SUPAMT80780,3FDJT1UU7A7FR4NOJWC8QE3GOQVK54,FE619D35-48CA-433A-BFF9-8FAB7925D084,2023-09-26_11h55.37.276,WP_VExplicitOC_HL,2022.2.5,Win32,13.15131908,75.78125,3.4426,2.0289,NA,NA,NA,NA,NA,happy,"unhappy, happy","less happy, more happy",NA,NA,NA,NA,NA,NA,NA,NA,NA,NA,NA,NA,NA,NA,NA,0,1,1,0,1,NA,NA,NA,NA,NA,NA,NA,NA,NA,NA,NA,NA,NA,NA,NA,NA,NA,NA,NA,NA,NA,NA,NA,NA,NA,NA,NA,NA
SUPAMT80780,3FDJT1UU7A7FR4NOJWC8QE3GOQVK54,FE619D35-48CA-433A-BFF9-8FAB7925D084,2023-09-26_11h55.37.276,WP_VExplicitOC_HL,2022.2.5,Win32,13.15131908,75.78125,3.9601,2.0906,NA,NA,NA,NA,NA,bored,"bored, not bored","more bored, less bored",NA,NA,NA,NA,NA,NA,NA,NA,NA,NA,NA,NA,NA,NA,NA,0,2,2,2,1,NA,NA,NA,NA,NA,NA,NA,NA,NA,NA,NA,NA,NA,NA,NA,NA,NA,NA,NA,NA,NA,NA,NA,NA,NA,NA,NA,NA
SUPAMT80780,3FDJT1UU7A7FR4NOJWC8QE3GOQVK54,FE619D35-48CA-433A-BFF9-8FAB7925D084,2023-09-26_11h55.37.276,WP_VExplicitOC_HL,2022.2.5,Win32,13.15131908,NA,NA,NA,NA,NA,NA,NA,NA,NA,NA,NA,NA,NA,NA,NA,NA,NA,NA,NA,NA,NA,NA,NA,NA,NA,NA,NA,NA,NA,NA,NA,4,0,4,0,1,NA,NA,NA,NA,NA,NA,NA,NA,NA,NA,NA,NA,NA,NA,NA,NA,NA,NA,NA,NA,NA,NA,NA
SUPAMT80780,3FDJT1UU7A7FR4NOJWC8QE3GOQVK54,FE619D35-48CA-433A-BFF9-8FAB7925D084,2023-09-26_11h55.37.276,WP_VExplicitOC_HL,2022.2.5,Win32,13.15131908,69.01041667,3.6275,2.0589,NA,NA,NA,NA,NA,bored,"bored, not bored","more bored, less bored",NA,NA,NA,NA,NA,NA,NA,NA,NA,NA,NA,NA,NA,NA,NA,0,0,0,2,1,NA,NA,NA,NA,NA,NA,NA,NA,NA,NA,NA,NA,NA,NA,NA,NA,NA,NA,NA,NA,NA,NA,NA,NA,NA,NA,NA,NA
SUPAMT80780,3FDJT1UU7A7FR4NOJWC8QE3GOQVK54,FE619D35-48CA-433A-BFF9-8FAB7925D084,2023-09-26_11h55.37.276,WP_VExplicitOC_HL,2022.2.5,Win32,13.15131908,73.4375,3.1984,2.06,NA,NA,NA,NA,NA,frustrated,"frustrated, not frustrated","more frustrated, less frustrated",NA,NA,NA,NA,NA,NA,NA,NA,NA,NA,NA,NA,NA,NA,NA,0,1,1,1,1,NA,NA,NA,NA,NA,NA,NA,NA,NA,NA,NA,NA,NA,NA,NA,NA,NA,NA,NA,NA,NA,NA,NA,NA,NA,NA,NA,NA
SUPAMT80780,3FDJT1UU7A7FR4NOJWC8QE3GOQVK54,FE619D35-48CA-433A-BFF9-8FAB7925D084,2023-09-26_11h55.37.276,WP_VExplicitOC_HL,2022.2.5,Win32,13.15131908,74.73958333,3.4777,2.0516,NA,NA,NA,NA,NA,happy,"unhappy, happy","less happy, more happy",NA,NA,NA,NA,NA,NA,NA,NA,NA,NA,NA,NA,NA,NA,NA,0,2,2,0,1,NA,NA,NA,NA,NA,NA,NA,NA,NA,NA,NA,NA,NA,NA,NA,NA,NA,NA,NA,NA,NA,NA,NA,NA,NA,NA,NA,NA
SUPAMT80780,3FDJT1UU7A7FR4NOJWC8QE3GOQVK54,FE619D35-48CA-433A-BFF9-8FAB7925D084,2023-09-26_11h55.37.276,WP_VExplicitOC_HL,2022.2.5,Win32,13.15131908,NA,NA,NA,NA,NA,NA,NA,NA,NA,NA,NA,NA,NA,NA,NA,NA,NA,NA,NA,NA,NA,NA,NA,NA,NA,NA,NA,NA,NA,NA,NA,5,0,5,0,1,NA,NA,NA,NA,NA,NA,NA,NA,NA,NA,NA,NA,NA,NA,NA,NA,NA,NA,NA,NA,NA,NA,NA
SUPAMT80780,3FDJT1UU7A7FR4NOJWC8QE3GOQVK54,FE619D35-48CA-433A-BFF9-8FAB7925D084,2023-09-26_11h55.37.276,WP_VExplicitOC_HL,2022.2.5,Win32,13.15131908,70.57291667,4.6127,2.093,NA,NA,NA,NA,NA,happy,"unhappy, happy","less happy, more happy",NA,NA,NA,NA,NA,NA,NA,NA,NA,NA,NA,NA,NA,NA,NA,0,0,0,0,1,NA,NA,NA,NA,NA,NA,NA,NA,NA,NA,NA,NA,NA,NA,NA,NA,NA,NA,NA,NA,NA,NA,NA,NA,NA,NA,NA,NA
SUPAMT80780,3FDJT1UU7A7FR4NOJWC8QE3GOQVK54,FE619D35-48CA-433A-BFF9-8FAB7925D084,2023-09-26_11h55.37.276,WP_VExplicitOC_HL,2022.2.5,Win32,13.15131908,69.79166667,4.0343,2.0668,NA,NA,NA,NA,NA,bored,"bored, not bored","more bored, less bored",NA,NA,NA,NA,NA,NA,NA,NA,NA,NA,NA,NA,NA,NA,NA,0,1,1,2,1,NA,NA,NA,NA,NA,NA,NA,NA,NA,NA,NA,NA,NA,NA,NA,NA,NA,NA,NA,NA,NA,NA,NA,NA,NA,NA,NA,NA
SUPAMT80780,3FDJT1UU7A7FR4NOJWC8QE3GOQVK54,FE619D35-48CA-433A-BFF9-8FAB7925D084,2023-09-26_11h55.37.276,WP_VExplicitOC_HL,2022.2.5,Win32,13.15131908,69.79166667,3.5797,2.0101,NA,NA,NA,NA,NA,frustrated,"frustrated, not frustrated","more frustrated, less frustrated",NA,NA,NA,NA,NA,NA,NA,NA,NA,NA,NA,NA,NA,NA,NA,0,2,2,1,1,NA,NA,NA,NA,NA,NA,NA,NA,NA,NA,NA,NA,NA,NA,NA,NA,NA,NA,NA,NA,NA,NA,NA,NA,NA,NA,NA,NA
SUPAMT80780,3FDJT1UU7A7FR4NOJWC8QE3GOQVK54,FE619D35-48CA-433A-BFF9-8FAB7925D084,2023-09-26_11h55.37.276,WP_VExplicitOC_HL,2022.2.5,Win32,13.15131908,NA,NA,NA,NA,NA,NA,NA,NA,NA,NA,NA,NA,NA,NA,NA,NA,NA,NA,NA,NA,NA,NA,NA,NA,NA,NA,NA,NA,NA,NA,NA,6,0,6,0,1,NA,NA,NA,NA,NA,NA,NA,NA,NA,NA,NA,NA,NA,NA,NA,NA,NA,NA,NA,NA,NA,NA,NA
SUPAMT80780,3FDJT1UU7A7FR4NOJWC8QE3GOQVK54,FE619D35-48CA-433A-BFF9-8FAB7925D084,2023-09-26_11h55.37.276,WP_VExplicitOC_HL,2022.2.5,Win32,13.15131908,62.23958333,3.6014,2.0366,NA,NA,NA,NA,NA,happy,"unhappy, happy","less happy, more happy",NA,NA,NA,NA,NA,NA,NA,NA,NA,NA,NA,NA,NA,NA,NA,0,0,0,0,1,NA,NA,NA,NA,NA,NA,NA,NA,NA,NA,NA,NA,NA,NA,NA,NA,NA,NA,NA,NA,NA,NA,NA,NA,NA,NA,NA,NA
SUPAMT80780,3FDJT1UU7A7FR4NOJWC8QE3GOQVK54,FE619D35-48CA-433A-BFF9-8FAB7925D084,2023-09-26_11h55.37.276,WP_VExplicitOC_HL,2022.2.5,Win32,13.15131908,68.22916667,3.7519,2.1207,NA,NA,NA,NA,NA,bored,"bored, not bored","more bored, less bored",NA,NA,NA,NA,NA,NA,NA,NA,NA,NA,NA,NA,NA,NA,NA,0,1,1,2,1,NA,NA,NA,NA,NA,NA,NA,NA,NA,NA,NA,NA,NA,NA,NA,NA,NA,NA,NA,NA,NA,NA,NA,NA,NA,NA,NA,NA
SUPAMT80780,3FDJT1UU7A7FR4NOJWC8QE3GOQVK54,FE619D35-48CA-433A-BFF9-8FAB7925D084,2023-09-26_11h55.37.276,WP_VExplicitOC_HL,2022.2.5,Win32,13.15131908,67.1875,3.3813,2.0411,NA,NA,NA,NA,NA,frustrated,"frustrated, not frustrated","more frustrated, less frustrated",NA,NA,NA,NA,NA,NA,NA,NA,NA,NA,NA,NA,NA,NA,NA,0,2,2,1,1,NA,NA,NA,NA,NA,NA,NA,NA,NA,NA,NA,NA,NA,NA,NA,NA,NA,NA,NA,NA,NA,NA,NA,NA,NA,NA,NA,NA
SUPAMT80780,3FDJT1UU7A7FR4NOJWC8QE3GOQVK54,FE619D35-48CA-433A-BFF9-8FAB7925D084,2023-09-26_11h55.37.276,WP_VExplicitOC_HL,2022.2.5,Win32,13.15131908,NA,NA,NA,NA,NA,NA,NA,NA,NA,NA,NA,NA,NA,NA,NA,NA,NA,NA,NA,NA,NA,NA,NA,NA,NA,NA,NA,NA,NA,NA,NA,7,0,7,0,1,NA,NA,NA,NA,NA,NA,NA,NA,NA,NA,NA,NA,NA,NA,NA,NA,NA,NA,NA,NA,NA,NA,NA
SUPAMT80780,3FDJT1UU7A7FR4NOJWC8QE3GOQVK54,FE619D35-48CA-433A-BFF9-8FAB7925D084,2023-09-26_11h55.37.276,WP_VExplicitOC_HL,2022.2.5,Win32,13.15131908,65.88541667,4.4305,2.0828,NA,NA,NA,NA,NA,frustrated,"frustrated, not frustrated","more frustrated, less frustrated",NA,NA,NA,NA,NA,NA,NA,NA,NA,NA,NA,NA,NA,NA,NA,0,0,0,1,1,NA,NA,NA,NA,NA,NA,NA,NA,NA,NA,NA,NA,NA,NA,NA,NA,NA,NA,NA,NA,NA,NA,NA,NA,NA,NA,NA,NA
SUPAMT80780,3FDJT1UU7A7FR4NOJWC8QE3GOQVK54,FE619D35-48CA-433A-BFF9-8FAB7925D084,2023-09-26_11h55.37.276,WP_VExplicitOC_HL,2022.2.5,Win32,13.15131908,59.89583333,4.971,2.0165,NA,NA,NA,NA,NA,bored,"bored, not bored","more bored, less bored",NA,NA,NA,NA,NA,NA,NA,NA,NA,NA,NA,NA,NA,NA,NA,0,1,1,2,1,NA,NA,NA,NA,NA,NA,NA,NA,NA,NA,NA,NA,NA,NA,NA,NA,NA,NA,NA,NA,NA,NA,NA,NA,NA,NA,NA,NA
SUPAMT80780,3FDJT1UU7A7FR4NOJWC8QE3GOQVK54,FE619D35-48CA-433A-BFF9-8FAB7925D084,2023-09-26_11h55.37.276,WP_VExplicitOC_HL,2022.2.5,Win32,13.15131908,62.5,4.3479,2.0391,NA,NA,NA,NA,NA,happy,"unhappy, happy","less happy, more happy",NA,NA,NA,NA,NA,NA,NA,NA,NA,NA,NA,NA,NA,NA,NA,0,2,2,0,1,NA,NA,NA,NA,NA,NA,NA,NA,NA,NA,NA,NA,NA,NA,NA,NA,NA,NA,NA,NA,NA,NA,NA,NA,NA,NA,NA,NA
SUPAMT80780,3FDJT1UU7A7FR4NOJWC8QE3GOQVK54,FE619D35-48CA-433A-BFF9-8FAB7925D084,2023-09-26_11h55.37.276,WP_VExplicitOC_HL,2022.2.5,Win32,13.15131908,NA,NA,NA,NA,NA,NA,NA,NA,NA,NA,NA,NA,NA,NA,NA,NA,NA,NA,NA,NA,NA,NA,NA,NA,NA,NA,NA,NA,NA,NA,NA,8,0,8,0,1,NA,NA,NA,NA,NA,NA,NA,NA,NA,NA,NA,NA,NA,NA,NA,NA,NA,NA,NA,NA,NA,NA,NA
SUPAMT80780,3FDJT1UU7A7FR4NOJWC8QE3GOQVK54,FE619D35-48CA-433A-BFF9-8FAB7925D084,2023-09-26_11h55.37.276,WP_VExplicitOC_HL,2022.2.5,Win32,13.15131908,56.77083333,3.1846,2.0438,NA,NA,NA,NA,NA,happy,"unhappy, happy","less happy, more happy",NA,NA,NA,NA,NA,NA,NA,NA,NA,NA,NA,NA,NA,NA,NA,0,0,0,0,1,NA,NA,NA,NA,NA,NA,NA,NA,NA,NA,NA,NA,NA,NA,NA,NA,NA,NA,NA,NA,NA,NA,NA,NA,NA,NA,NA,NA
SUPAMT80780,3FDJT1UU7A7FR4NOJWC8QE3GOQVK54,FE619D35-48CA-433A-BFF9-8FAB7925D084,2023-09-26_11h55.37.276,WP_VExplicitOC_HL,2022.2.5,Win32,13.15131908,72.65625,3.5629,2.0689,NA,NA,NA,NA,NA,bored,"bored, not bored","more bored, less bored",NA,NA,NA,NA,NA,NA,NA,NA,NA,NA,NA,NA,NA,NA,NA,0,1,1,2,1,NA,NA,NA,NA,NA,NA,NA,NA,NA,NA,NA,NA,NA,NA,NA,NA,NA,NA,NA,NA,NA,NA,NA,NA,NA,NA,NA,NA
SUPAMT80780,3FDJT1UU7A7FR4NOJWC8QE3GOQVK54,FE619D35-48CA-433A-BFF9-8FAB7925D084,2023-09-26_11h55.37.276,WP_VExplicitOC_HL,2022.2.5,Win32,13.15131908,65.36458333,3.127,2.026,NA,NA,NA,NA,NA,frustrated,"frustrated, not frustrated","more frustrated, less frustrated",NA,NA,NA,NA,NA,NA,NA,NA,NA,NA,NA,NA,NA,NA,NA,0,2,2,1,1,NA,NA,NA,NA,NA,NA,NA,NA,NA,NA,NA,NA,NA,NA,NA,NA,NA,NA,NA,NA,NA,NA,NA,NA,NA,NA,NA,NA
SUPAMT80780,3FDJT1UU7A7FR4NOJWC8QE3GOQVK54,FE619D35-48CA-433A-BFF9-8FAB7925D084,2023-09-26_11h55.37.276,WP_VExplicitOC_HL,2022.2.5,Win32,13.15131908,NA,NA,NA,NA,NA,NA,NA,NA,NA,NA,NA,NA,NA,NA,NA,NA,NA,NA,NA,NA,NA,NA,NA,NA,NA,NA,NA,NA,NA,NA,NA,9,0,9,0,1,NA,NA,NA,NA,NA,NA,NA,NA,NA,NA,NA,NA,NA,NA,NA,NA,NA,NA,NA,NA,NA,NA,NA
SUPAMT80780,3FDJT1UU7A7FR4NOJWC8QE3GOQVK54,FE619D35-48CA-433A-BFF9-8FAB7925D084,2023-09-26_11h55.37.276,WP_VExplicitOC_HL,2022.2.5,Win32,13.15131908,59.89583333,3.3554,2.0788,NA,NA,NA,NA,NA,bored,"bored, not bored","more bored, less bored",NA,NA,NA,NA,NA,NA,NA,NA,NA,NA,NA,NA,NA,NA,NA,0,0,0,2,1,NA,NA,NA,NA,NA,NA,NA,NA,NA,NA,NA,NA,NA,NA,NA,NA,NA,NA,NA,NA,NA,NA,NA,NA,NA,NA,NA,NA
SUPAMT80780,3FDJT1UU7A7FR4NOJWC8QE3GOQVK54,FE619D35-48CA-433A-BFF9-8FAB7925D084,2023-09-26_11h55.37.276,WP_VExplicitOC_HL,2022.2.5,Win32,13.15131908,72.13541667,3.1416,2.1333,NA,NA,NA,NA,NA,happy,"unhappy, happy","less happy, more happy",NA,NA,NA,NA,NA,NA,NA,NA,NA,NA,NA,NA,NA,NA,NA,0,1,1,0,1,NA,NA,NA,NA,NA,NA,NA,NA,NA,NA,NA,NA,NA,NA,NA,NA,NA,NA,NA,NA,NA,NA,NA,NA,NA,NA,NA,NA
SUPAMT80780,3FDJT1UU7A7FR4NOJWC8QE3GOQVK54,FE619D35-48CA-433A-BFF9-8FAB7925D084,2023-09-26_11h55.37.276,WP_VExplicitOC_HL,2022.2.5,Win32,13.15131908,57.29166667,3.1116,2.1286,NA,NA,NA,NA,NA,frustrated,"frustrated, not frustrated","more frustrated, less frustrated",NA,NA,NA,NA,NA,NA,NA,NA,NA,NA,NA,NA,NA,NA,NA,0,2,2,1,1,NA,NA,NA,NA,NA,NA,NA,NA,NA,NA,NA,NA,NA,NA,NA,NA,NA,NA,NA,NA,NA,NA,NA,NA,NA,NA,NA,NA
SUPAMT80780,3FDJT1UU7A7FR4NOJWC8QE3GOQVK54,FE619D35-48CA-433A-BFF9-8FAB7925D084,2023-09-26_11h55.37.276,WP_VExplicitOC_HL,2022.2.5,Win32,13.15131908,NA,NA,NA,NA,NA,NA,NA,NA,NA,NA,NA,NA,NA,NA,NA,NA,NA,NA,NA,NA,NA,NA,NA,NA,NA,NA,NA,NA,NA,NA,NA,10,0,10,0,1,NA,NA,NA,NA,NA,NA,NA,NA,NA,NA,NA,NA,NA,NA,NA,NA,NA,NA,NA,NA,NA,NA,NA
SUPAMT80780,3FDJT1UU7A7FR4NOJWC8QE3GOQVK54,FE619D35-48CA-433A-BFF9-8FAB7925D084,2023-09-26_11h55.37.276,WP_VExplicitOC_HL,2022.2.5,Win32,13.15131908,52.34375,3.2659,2.0859,NA,NA,NA,NA,NA,bored,"bored, not bored","more bored, less bored",NA,NA,NA,NA,NA,NA,NA,NA,NA,NA,NA,NA,NA,NA,NA,0,0,0,2,1,NA,NA,NA,NA,NA,NA,NA,NA,NA,NA,NA,NA,NA,NA,NA,NA,NA,NA,NA,NA,NA,NA,NA,NA,NA,NA,NA,NA
SUPAMT80780,3FDJT1UU7A7FR4NOJWC8QE3GOQVK54,FE619D35-48CA-433A-BFF9-8FAB7925D084,2023-09-26_11h55.37.276,WP_VExplicitOC_HL,2022.2.5,Win32,13.15131908,63.28125,3.2383,2.0642,NA,NA,NA,NA,NA,happy,"unhappy, happy","less happy, more happy",NA,NA,NA,NA,NA,NA,NA,NA,NA,NA,NA,NA,NA,NA,NA,0,1,1,0,1,NA,NA,NA,NA,NA,NA,NA,NA,NA,NA,NA,NA,NA,NA,NA,NA,NA,NA,NA,NA,NA,NA,NA,NA,NA,NA,NA,NA
SUPAMT80780,3FDJT1UU7A7FR4NOJWC8QE3GOQVK54,FE619D35-48CA-433A-BFF9-8FAB7925D084,2023-09-26_11h55.37.276,WP_VExplicitOC_HL,2022.2.5,Win32,13.15131908,57.55208333,3.3018,2.0282,NA,NA,NA,NA,NA,frustrated,"frustrated, not frustrated","more frustrated, less frustrated",NA,NA,NA,NA,NA,NA,NA,NA,NA,NA,NA,NA,NA,NA,NA,0,2,2,1,1,NA,NA,NA,NA,NA,NA,NA,NA,NA,NA,NA,NA,NA,NA,NA,NA,NA,NA,NA,NA,NA,NA,NA,NA,NA,NA,NA,NA
SUPAMT80780,3FDJT1UU7A7FR4NOJWC8QE3GOQVK54,FE619D35-48CA-433A-BFF9-8FAB7925D084,2023-09-26_11h55.37.276,WP_VExplicitOC_HL,2022.2.5,Win32,13.15131908,NA,NA,NA,NA,NA,NA,NA,NA,NA,NA,NA,NA,NA,NA,NA,NA,NA,NA,NA,NA,NA,NA,NA,NA,NA,NA,NA,NA,NA,NA,NA,11,0,11,0,1,NA,NA,NA,NA,NA,NA,NA,NA,NA,NA,NA,NA,NA,NA,NA,NA,NA,NA,NA,NA,NA,NA,NA
SUPAMT80780,3FDJT1UU7A7FR4NOJWC8QE3GOQVK54,FE619D35-48CA-433A-BFF9-8FAB7925D084,2023-09-26_11h55.37.276,WP_VExplicitOC_HL,2022.2.5,Win32,13.15131908,41.92708333,3.7888,2.0025,NA,NA,NA,NA,NA,happy,"unhappy, happy","less happy, more happy",NA,NA,NA,NA,NA,NA,NA,NA,NA,NA,NA,NA,NA,NA,NA,0,0,0,0,1,NA,NA,NA,NA,NA,NA,NA,NA,NA,NA,NA,NA,NA,NA,NA,NA,NA,NA,NA,NA,NA,NA,NA,NA,NA,NA,NA,NA
SUPAMT80780,3FDJT1UU7A7FR4NOJWC8QE3GOQVK54,FE619D35-48CA-433A-BFF9-8FAB7925D084,2023-09-26_11h55.37.276,WP_VExplicitOC_HL,2022.2.5,Win32,13.15131908,59.375,3.7731,2.0027,NA,NA,NA,NA,NA,bored,"bored, not bored","more bored, less bored",NA,NA,NA,NA,NA,NA,NA,NA,NA,NA,NA,NA,NA,NA,NA,0,1,1,2,1,NA,NA,NA,NA,NA,NA,NA,NA,NA,NA,NA,NA,NA,NA,NA,NA,NA,NA,NA,NA,NA,NA,NA,NA,NA,NA,NA,NA
SUPAMT80780,3FDJT1UU7A7FR4NOJWC8QE3GOQVK54,FE619D35-48CA-433A-BFF9-8FAB7925D084,2023-09-26_11h55.37.276,WP_VExplicitOC_HL,2022.2.5,Win32,13.15131908,69.53125,4.155,2.0486,NA,NA,NA,NA,NA,frustrated,"frustrated, not frustrated","more frustrated, less frustrated",NA,NA,NA,NA,NA,NA,NA,NA,NA,NA,NA,NA,NA,NA,NA,0,2,2,1,1,NA,NA,NA,NA,NA,NA,NA,NA,NA,NA,NA,NA,NA,NA,NA,NA,NA,NA,NA,NA,NA,NA,NA,NA,NA,NA,NA,NA
SUPAMT80780,3FDJT1UU7A7FR4NOJWC8QE3GOQVK54,FE619D35-48CA-433A-BFF9-8FAB7925D084,2023-09-26_11h55.37.276,WP_VExplicitOC_HL,2022.2.5,Win32,13.15131908,NA,NA,NA,NA,NA,NA,NA,NA,NA,NA,NA,NA,NA,NA,NA,NA,NA,NA,NA,NA,NA,NA,NA,NA,NA,NA,NA,NA,NA,NA,NA,12,0,12,0,1,NA,NA,NA,NA,NA,NA,NA,NA,NA,NA,NA,NA,NA,NA,NA,NA,NA,NA,NA,NA,NA,NA,NA
SUPAMT80780,3FDJT1UU7A7FR4NOJWC8QE3GOQVK54,FE619D35-48CA-433A-BFF9-8FAB7925D084,2023-09-26_11h55.37.276,WP_VExplicitOC_HL,2022.2.5,Win32,13.15131908,70.05208333,3.4859,2.0073,NA,NA,NA,NA,NA,frustrated,"frustrated, not frustrated","more frustrated, less frustrated",NA,NA,NA,NA,NA,NA,NA,NA,NA,NA,NA,NA,NA,NA,NA,0,0,0,1,1,NA,NA,NA,NA,NA,NA,NA,NA,NA,NA,NA,NA,NA,NA,NA,NA,NA,NA,NA,NA,NA,NA,NA,NA,NA,NA,NA,NA
SUPAMT80780,3FDJT1UU7A7FR4NOJWC8QE3GOQVK54,FE619D35-48CA-433A-BFF9-8FAB7925D084,2023-09-26_11h55.37.276,WP_VExplicitOC_HL,2022.2.5,Win32,13.15131908,65.36458333,3.2669,2.0376,NA,NA,NA,NA,NA,bored,"bored, not bored","more bored, less bored",NA,NA,NA,NA,NA,NA,NA,NA,NA,NA,NA,NA,NA,NA,NA,0,1,1,2,1,NA,NA,NA,NA,NA,NA,NA,NA,NA,NA,NA,NA,NA,NA,NA,NA,NA,NA,NA,NA,NA,NA,NA,NA,NA,NA,NA,NA
SUPAMT80780,3FDJT1UU7A7FR4NOJWC8QE3GOQVK54,FE619D35-48CA-433A-BFF9-8FAB7925D084,2023-09-26_11h55.37.276,WP_VExplicitOC_HL,2022.2.5,Win32,13.15131908,65.36458333,3.0806,2.0708,NA,NA,NA,NA,NA,happy,"unhappy, happy","less happy, more happy",NA,NA,NA,NA,NA,NA,NA,NA,NA,NA,NA,NA,NA,NA,NA,0,2,2,0,1,NA,NA,NA,NA,NA,NA,NA,NA,NA,NA,NA,NA,NA,NA,NA,NA,NA,NA,NA,NA,NA,NA,NA,NA,NA,NA,NA,NA
SUPAMT80780,3FDJT1UU7A7FR4NOJWC8QE3GOQVK54,FE619D35-48CA-433A-BFF9-8FAB7925D084,2023-09-26_11h55.37.276,WP_VExplicitOC_HL,2022.2.5,Win32,13.15131908,NA,NA,NA,NA,NA,NA,NA,NA,NA,NA,NA,NA,NA,NA,NA,NA,NA,NA,NA,NA,NA,NA,NA,NA,NA,NA,NA,NA,NA,NA,NA,13,0,13,0,1,NA,NA,NA,NA,NA,NA,NA,NA,NA,NA,NA,NA,NA,NA,NA,NA,NA,NA,NA,NA,NA,NA,NA
SUPAMT80780,3FDJT1UU7A7FR4NOJWC8QE3GOQVK54,FE619D35-48CA-433A-BFF9-8FAB7925D084,2023-09-26_11h55.37.276,WP_VExplicitOC_HL,2022.2.5,Win32,13.15131908,71.35416667,5.5227,2.0327,NA,NA,NA,NA,NA,bored,"bored, not bored","more bored, less bored",NA,NA,NA,NA,NA,NA,NA,NA,NA,NA,NA,NA,NA,NA,NA,0,0,0,2,1,NA,NA,NA,NA,NA,NA,NA,NA,NA,NA,NA,NA,NA,NA,NA,NA,NA,NA,NA,NA,NA,NA,NA,NA,NA,NA,NA,NA
SUPAMT80780,3FDJT1UU7A7FR4NOJWC8QE3GOQVK54,FE619D35-48CA-433A-BFF9-8FAB7925D084,2023-09-26_11h55.37.276,WP_VExplicitOC_HL,2022.2.5,Win32,13.15131908,72.13541667,4.0884,2.0554,NA,NA,NA,NA,NA,happy,"unhappy, happy","less happy, more happy",NA,NA,NA,NA,NA,NA,NA,NA,NA,NA,NA,NA,NA,NA,NA,0,1,1,0,1,NA,NA,NA,NA,NA,NA,NA,NA,NA,NA,NA,NA,NA,NA,NA,NA,NA,NA,NA,NA,NA,NA,NA,NA,NA,NA,NA,NA
SUPAMT80780,3FDJT1UU7A7FR4NOJWC8QE3GOQVK54,FE619D35-48CA-433A-BFF9-8FAB7925D084,2023-09-26_11h55.37.276,WP_VExplicitOC_HL,2022.2.5,Win32,13.15131908,55.72916667,2.9375,2.0418,NA,NA,NA,NA,NA,frustrated,"frustrated, not frustrated","more frustrated, less frustrated",NA,NA,NA,NA,NA,NA,NA,NA,NA,NA,NA,NA,NA,NA,NA,0,2,2,1,1,NA,NA,NA,NA,NA,NA,NA,NA,NA,NA,NA,NA,NA,NA,NA,NA,NA,NA,NA,NA,NA,NA,NA,NA,NA,NA,NA,NA
SUPAMT80780,3FDJT1UU7A7FR4NOJWC8QE3GOQVK54,FE619D35-48CA-433A-BFF9-8FAB7925D084,2023-09-26_11h55.37.276,WP_VExplicitOC_HL,2022.2.5,Win32,13.15131908,NA,NA,NA,NA,NA,NA,NA,NA,NA,NA,NA,NA,NA,NA,NA,NA,NA,NA,NA,NA,NA,NA,NA,NA,NA,NA,NA,NA,NA,NA,NA,14,0,14,0,1,NA,NA,NA,NA,NA,NA,NA,NA,NA,NA,NA,NA,NA,NA,NA,NA,NA,NA,NA,NA,NA,NA,NA
SUPAMT80780,3FDJT1UU7A7FR4NOJWC8QE3GOQVK54,FE619D35-48CA-433A-BFF9-8FAB7925D084,2023-09-26_11h55.37.276,WP_VExplicitOC_HL,2022.2.5,Win32,13.15131908,NA,NA,NA,NA,NA,NA,NA,NA,NA,NA,NA,NA,NA,NA,NA,NA,NA,NA,NA,NA,NA,NA,NA,NA,NA,NA,NA,NA,NA,NA,NA,NA,NA,NA,NA,NA,NA,NA,NA,NA,NA,NA,NA,NA,NA,NA,NA,NA,NA,NA,NA,NA,NA,NA,NA,NA,NA,NA,NA
SUPAMT80780,3FDJT1UU7A7FR4NOJWC8QE3GOQVK54,FE619D35-48CA-433A-BFF9-8FAB7925D084,2023-09-26_11h55.37.276,WP_VExplicitOC_HL,2022.2.5,Win32,13.15131908,NA,NA,NA,NA,NA,NA,NA,NA,NA,NA,NA,NA,NA,NA,NA,NA,NA,NA,NA,NA,NA,NA,NA,NA,NA,NA,NA,NA,NA,NA,NA,NA,NA,NA,NA,NA,NA,NA,NA,NA,NA,NA,NA,NA,NA,NA,NA,NA,NA,NA,NA,NA,NA,NA,NA,NA,NA,NA,NA
SUPAMT80780,3FDJT1UU7A7FR4NOJWC8QE3GOQVK54,FE619D35-48CA-433A-BFF9-8FAB7925D084,2023-09-26_11h55.37.276,WP_VExplicitOC_HL,2022.2.5,Win32,13.15131908,NA,NA,NA,NA,NA,NA,NA,NA,NA,NA,NA,NA,NA,NA,NA,NA,NA,NA,rest (looking at a fixed cross),001.png,NA,NA,NA,NA,NA,NA,NA,NA,NA,NA,NA,NA,NA,NA,NA,NA,66.40625,2.6806,0,0,0,0,1,NA,NA,NA,NA,NA,NA,NA,NA,NA,NA,NA,NA,NA,NA,NA,NA
SUPAMT80780,3FDJT1UU7A7FR4NOJWC8QE3GOQVK54,FE619D35-48CA-433A-BFF9-8FAB7925D084,2023-09-26_11h55.37.276,WP_VExplicitOC_HL,2022.2.5,Win32,13.15131908,NA,NA,NA,NA,NA,NA,NA,NA,NA,NA,NA,NA,NA,NA,NA,NA,NA,NA,stand up,002.png,NA,NA,NA,NA,NA,NA,NA,NA,NA,NA,NA,NA,NA,NA,NA,NA,47.65625,1.3896,0,1,1,1,1,NA,NA,NA,NA,NA,NA,NA,NA,NA,NA,NA,NA,NA,NA,NA,NA
SUPAMT80780,3FDJT1UU7A7FR4NOJWC8QE3GOQVK54,FE619D35-48CA-433A-BFF9-8FAB7925D084,2023-09-26_11h55.37.276,WP_VExplicitOC_HL,2022.2.5,Win32,13.15131908,NA,NA,NA,NA,NA,NA,NA,NA,NA,NA,NA,NA,NA,NA,NA,NA,NA,NA,stretch,003.png,NA,NA,NA,NA,NA,NA,NA,NA,NA,NA,NA,NA,NA,NA,NA,NA,-16.40625,1.3286,0,2,2,2,1,NA,NA,NA,NA,NA,NA,NA,NA,NA,NA,NA,NA,NA,NA,NA,NA
SUPAMT80780,3FDJT1UU7A7FR4NOJWC8QE3GOQVK54,FE619D35-48CA-433A-BFF9-8FAB7925D084,2023-09-26_11h55.37.276,WP_VExplicitOC_HL,2022.2.5,Win32,13.15131908,NA,NA,NA,NA,NA,NA,NA,NA,NA,NA,NA,NA,NA,NA,NA,NA,NA,NA,make a drink,004.png,NA,NA,NA,NA,NA,NA,NA,NA,NA,NA,NA,NA,NA,NA,NA,NA,39.84375,1.1056,0,3,3,3,1,NA,NA,NA,NA,NA,NA,NA,NA,NA,NA,NA,NA,NA,NA,NA,NA
SUPAMT80780,3FDJT1UU7A7FR4NOJWC8QE3GOQVK54,FE619D35-48CA-433A-BFF9-8FAB7925D084,2023-09-26_11h55.37.276,WP_VExplicitOC_HL,2022.2.5,Win32,13.15131908,NA,NA,NA,NA,NA,NA,NA,NA,NA,NA,NA,NA,NA,NA,NA,NA,NA,NA,scroll social media,005.png,NA,NA,NA,NA,NA,NA,NA,NA,NA,NA,NA,NA,NA,NA,NA,NA,32.29166667,1.2281,0,4,4,4,1,NA,NA,NA,NA,NA,NA,NA,NA,NA,NA,NA,NA,NA,NA,NA,NA
SUPAMT80780,3FDJT1UU7A7FR4NOJWC8QE3GOQVK54,FE619D35-48CA-433A-BFF9-8FAB7925D084,2023-09-26_11h55.37.276,WP_VExplicitOC_HL,2022.2.5,Win32,13.15131908,NA,NA,NA,NA,NA,NA,NA,NA,NA,NA,NA,NA,NA,NA,NA,NA,NA,NA,listen to music,006.png,NA,NA,NA,NA,NA,NA,NA,NA,NA,NA,NA,NA,NA,NA,NA,NA,45.3125,1.3789,0,5,5,5,1,NA,NA,NA,NA,NA,NA,NA,NA,NA,NA,NA,NA,NA,NA,NA,NA
SUPAMT80780,3FDJT1UU7A7FR4NOJWC8QE3GOQVK54,FE619D35-48CA-433A-BFF9-8FAB7925D084,2023-09-26_11h55.37.276,WP_VExplicitOC_HL,2022.2.5,Win32,13.15131908,NA,NA,NA,NA,NA,NA,NA,NA,NA,NA,NA,NA,NA,NA,NA,NA,NA,NA,daydream,007.png,NA,NA,NA,NA,NA,NA,NA,NA,NA,NA,NA,NA,NA,NA,NA,NA,-24.73958333,1.8704,0,6,6,6,1,NA,NA,NA,NA,NA,NA,NA,NA,NA,NA,NA,NA,NA,NA,NA,NA
SUPAMT80780,3FDJT1UU7A7FR4NOJWC8QE3GOQVK54,FE619D35-48CA-433A-BFF9-8FAB7925D084,2023-09-26_11h55.37.276,WP_VExplicitOC_HL,2022.2.5,Win32,13.15131908,NA,NA,NA,NA,NA,NA,NA,NA,NA,NA,NA,NA,NA,NA,NA,NA,NA,NA,watch a short animation,008.png,NA,NA,NA,NA,NA,NA,NA,NA,NA,NA,NA,NA,NA,NA,NA,NA,69.79166667,2.4442,0,7,7,7,1,NA,NA,NA,NA,NA,NA,NA,NA,NA,NA,NA,NA,NA,NA,NA,NA
SUPAMT80780,3FDJT1UU7A7FR4NOJWC8QE3GOQVK54,FE619D35-48CA-433A-BFF9-8FAB7925D084,2023-09-26_11h55.37.276,WP_VExplicitOC_HL,2022.2.5,Win32,13.15131908,NA,NA,NA,NA,NA,NA,NA,NA,NA,NA,NA,NA,NA,NA,NA,NA,NA,NA,read a novel,009.png,NA,NA,NA,NA,NA,NA,NA,NA,NA,NA,NA,NA,NA,NA,NA,NA,48.17708333,2.4181,0,8,8,8,1,NA,NA,NA,NA,NA,NA,NA,NA,NA,NA,NA,NA,NA,NA,NA,NA
SUPAMT80780,3FDJT1UU7A7FR4NOJWC8QE3GOQVK54,FE619D35-48CA-433A-BFF9-8FAB7925D084,2023-09-26_11h55.37.276,WP_VExplicitOC_HL,2022.2.5,Win32,13.15131908,NA,NA,NA,NA,NA,NA,NA,NA,NA,NA,NA,NA,NA,NA,NA,NA,NA,NA,read the news,010.png,NA,NA,NA,NA,NA,NA,NA,NA,NA,NA,NA,NA,NA,NA,NA,NA,83.59375,1.6114,0,9,9,9,1,NA,NA,NA,NA,NA,NA,NA,NA,NA,NA,NA,NA,NA,NA,NA,NA
SUPAMT80780,3FDJT1UU7A7FR4NOJWC8QE3GOQVK54,FE619D35-48CA-433A-BFF9-8FAB7925D084,2023-09-26_11h55.37.276,WP_VExplicitOC_HL,2022.2.5,Win32,13.15131908,NA,NA,NA,NA,NA,NA,NA,NA,NA,NA,NA,NA,NA,NA,NA,NA,NA,NA,NA,NA,NA,NA,NA,NA,NA,NA,NA,NA,NA,NA,NA,NA,NA,NA,NA,NA,NA,NA,NA,NA,NA,NA,NA,daydream,NA,NA,NA,NA,NA,NA,NA,NA,NA,NA,NA,NA,NA,NA,NA
SUPAMT80780,3FDJT1UU7A7FR4NOJWC8QE3GOQVK54,FE619D35-48CA-433A-BFF9-8FAB7925D084,2023-09-26_11h55.37.276,WP_VExplicitOC_HL,2022.2.5,Win32,13.15131908,50.26041667,3.8277,2.0661,NA,NA,NA,NA,NA,bored,"bored, not bored","more bored, less bored",NA,NA,NA,NA,NA,NA,NA,NA,NA,NA,NA,NA,NA,NA,NA,NA,NA,NA,NA,NA,NA,NA,NA,NA,NA,NA,NA,NA,NA,NA,NA,NA,NA,0,0,0,2,1,NA,NA,NA,NA,NA,NA,NA,NA,NA,NA
SUPAMT80780,3FDJT1UU7A7FR4NOJWC8QE3GOQVK54,FE619D35-48CA-433A-BFF9-8FAB7925D084,2023-09-26_11h55.37.276,WP_VExplicitOC_HL,2022.2.5,Win32,13.15131908,56.25,3.8037,2.0943,NA,NA,NA,NA,NA,happy,"unhappy, happy","less happy, more happy",NA,NA,NA,NA,NA,NA,NA,NA,NA,NA,NA,NA,NA,NA,NA,NA,NA,NA,NA,NA,NA,NA,NA,NA,NA,NA,NA,NA,NA,NA,NA,NA,NA,0,1,1,0,1,NA,NA,NA,NA,NA,NA,NA,NA,NA,NA
SUPAMT80780,3FDJT1UU7A7FR4NOJWC8QE3GOQVK54,FE619D35-48CA-433A-BFF9-8FAB7925D084,2023-09-26_11h55.37.276,WP_VExplicitOC_HL,2022.2.5,Win32,13.15131908,63.54166667,3.3669,2.1286,NA,NA,NA,NA,NA,frustrated,"frustrated, not frustrated","more frustrated, less frustrated",NA,NA,NA,NA,NA,NA,NA,NA,NA,NA,NA,NA,NA,NA,NA,NA,NA,NA,NA,NA,NA,NA,NA,NA,NA,NA,NA,NA,NA,NA,NA,NA,NA,0,2,2,1,1,NA,NA,NA,NA,NA,NA,NA,NA,NA,NA
SUPAMT80780,3FDJT1UU7A7FR4NOJWC8QE3GOQVK54,FE619D35-48CA-433A-BFF9-8FAB7925D084,2023-09-26_11h55.37.276,WP_VExplicitOC_HL,2022.2.5,Win32,13.15131908,NA,NA,NA,NA,NA,NA,NA,NA,NA,NA,NA,NA,NA,NA,NA,NA,NA,NA,NA,NA,NA,NA,NA,NA,NA,NA,NA,NA,NA,NA,NA,NA,NA,NA,NA,NA,NA,NA,NA,NA,NA,NA,NA,NA,NA,NA,NA,NA,NA,NA,NA,NA,NA,NA,NA,NA,NA,NA,NA
SUPAMT80780,3FDJT1UU7A7FR4NOJWC8QE3GOQVK54,FE619D35-48CA-433A-BFF9-8FAB7925D084,2023-09-26_11h55.37.276,WP_VExplicitOC_HL,2022.2.5,Win32,13.15131908,NA,NA,NA,NA,NA,NA,NA,NA,NA,NA,NA,NA,NA,NA,NA,NA,NA,NA,NA,NA,NA,NA,NA,NA,NA,NA,NA,NA,NA,NA,NA,NA,NA,NA,NA,NA,NA,NA,NA,NA,NA,NA,NA,NA,NA,NA,NA,NA,NA,NA,NA,NA,NA,NA,NA,NA,NA,NA,NA
SUPAMT80780,3FDJT1UU7A7FR4NOJWC8QE3GOQVK54,FE619D35-48CA-433A-BFF9-8FAB7925D084,2023-09-26_11h55.37.276,WP_VExplicitOC_HL,2022.2.5,Win32,13.15131908,50,3.2433,2.0947,NA,NA,NA,NA,NA,happy,"unhappy, happy","less happy, more happy",NA,NA,NA,NA,NA,NA,NA,NA,NA,NA,NA,NA,NA,NA,NA,NA,NA,NA,NA,NA,NA,NA,NA,NA,NA,NA,NA,NA,NA,NA,NA,NA,NA,NA,NA,NA,NA,NA,0,0,0,0,1,NA,NA,NA,NA,NA
SUPAMT80780,3FDJT1UU7A7FR4NOJWC8QE3GOQVK54,FE619D35-48CA-433A-BFF9-8FAB7925D084,2023-09-26_11h55.37.276,WP_VExplicitOC_HL,2022.2.5,Win32,13.15131908,69.53125,3.567,2.0525,NA,NA,NA,NA,NA,bored,"bored, not bored","more bored, less bored",NA,NA,NA,NA,NA,NA,NA,NA,NA,NA,NA,NA,NA,NA,NA,NA,NA,NA,NA,NA,NA,NA,NA,NA,NA,NA,NA,NA,NA,NA,NA,NA,NA,NA,NA,NA,NA,NA,0,1,1,2,1,NA,NA,NA,NA,NA
SUPAMT80780,3FDJT1UU7A7FR4NOJWC8QE3GOQVK54,FE619D35-48CA-433A-BFF9-8FAB7925D084,2023-09-26_11h55.37.276,WP_VExplicitOC_HL,2022.2.5,Win32,13.15131908,66.14583333,3.0862,2.0085,NA,NA,NA,NA,NA,frustrated,"frustrated, not frustrated","more frustrated, less frustrated",NA,NA,NA,NA,NA,NA,NA,NA,NA,NA,NA,NA,NA,NA,NA,NA,NA,NA,NA,NA,NA,NA,NA,NA,NA,NA,NA,NA,NA,NA,NA,NA,NA,NA,NA,NA,NA,NA,0,2,2,1,1,NA,NA,NA,NA,NA
SUPAMT80780,3FDJT1UU7A7FR4NOJWC8QE3GOQVK54,FE619D35-48CA-433A-BFF9-8FAB7925D084,2023-09-26_11h55.37.276,WP_VExplicitOC_HL,2022.2.5,Win32,13.15131908,NA,NA,NA,NA,NA,NA,NA,NA,NA,NA,NA,NA,NA,NA,NA,NA,NA,NA,NA,NA,NA,NA,NA,NA,NA,NA,NA,NA,NA,NA,NA,NA,NA,NA,NA,NA,NA,NA,NA,NA,NA,NA,NA,NA,NA,NA,NA,NA,NA,NA,NA,NA,NA,NA,0,0,0,0,1
SUPAMT80780,3FDJT1UU7A7FR4NOJWC8QE3GOQVK54,FE619D35-48CA-433A-BFF9-8FAB7925D084,2023-09-26_11h55.37.276,WP_VExplicitOC_HL,2022.2.5,Win32,13.15131908,48.4375,3.1949,2.1144,NA,NA,NA,NA,NA,happy,"unhappy, happy","less happy, more happy",NA,NA,NA,NA,NA,NA,NA,NA,NA,NA,NA,NA,NA,NA,NA,NA,NA,NA,NA,NA,NA,NA,NA,NA,NA,NA,NA,NA,NA,NA,NA,NA,NA,NA,NA,NA,NA,NA,0,0,0,0,1,NA,NA,NA,NA,NA
SUPAMT80780,3FDJT1UU7A7FR4NOJWC8QE3GOQVK54,FE619D35-48CA-433A-BFF9-8FAB7925D084,2023-09-26_11h55.37.276,WP_VExplicitOC_HL,2022.2.5,Win32,13.15131908,59.89583333,3.0767,2.0631,NA,NA,NA,NA,NA,bored,"bored, not bored","more bored, less bored",NA,NA,NA,NA,NA,NA,NA,NA,NA,NA,NA,NA,NA,NA,NA,NA,NA,NA,NA,NA,NA,NA,NA,NA,NA,NA,NA,NA,NA,NA,NA,NA,NA,NA,NA,NA,NA,NA,0,1,1,2,1,NA,NA,NA,NA,NA
SUPAMT80780,3FDJT1UU7A7FR4NOJWC8QE3GOQVK54,FE619D35-48CA-433A-BFF9-8FAB7925D084,2023-09-26_11h55.37.276,WP_VExplicitOC_HL,2022.2.5,Win32,13.15131908,56.77083333,3.0387,2.0881,NA,NA,NA,NA,NA,frustrated,"frustrated, not frustrated","more frustrated, less frustrated",NA,NA,NA,NA,NA,NA,NA,NA,NA,NA,NA,NA,NA,NA,NA,NA,NA,NA,NA,NA,NA,NA,NA,NA,NA,NA,NA,NA,NA,NA,NA,NA,NA,NA,NA,NA,NA,NA,0,2,2,1,1,NA,NA,NA,NA,NA
SUPAMT80780,3FDJT1UU7A7FR4NOJWC8QE3GOQVK54,FE619D35-48CA-433A-BFF9-8FAB7925D084,2023-09-26_11h55.37.276,WP_VExplicitOC_HL,2022.2.5,Win32,13.15131908,NA,NA,NA,NA,NA,NA,NA,NA,NA,NA,NA,NA,NA,NA,NA,NA,NA,NA,NA,NA,NA,NA,NA,NA,NA,NA,NA,NA,NA,NA,NA,NA,NA,NA,NA,NA,NA,NA,NA,NA,NA,NA,NA,NA,NA,NA,NA,NA,NA,NA,NA,NA,NA,NA,1,0,1,0,1
SUPAMT80780,3FDJT1UU7A7FR4NOJWC8QE3GOQVK54,FE619D35-48CA-433A-BFF9-8FAB7925D084,2023-09-26_11h55.37.276,WP_VExplicitOC_HL,2022.2.5,Win32,13.15131908,53.38541667,3.3236,2.0968,NA,NA,NA,NA,NA,frustrated,"frustrated, not frustrated","more frustrated, less frustrated",NA,NA,NA,NA,NA,NA,NA,NA,NA,NA,NA,NA,NA,NA,NA,NA,NA,NA,NA,NA,NA,NA,NA,NA,NA,NA,NA,NA,NA,NA,NA,NA,NA,NA,NA,NA,NA,NA,0,0,0,1,1,NA,NA,NA,NA,NA
SUPAMT80780,3FDJT1UU7A7FR4NOJWC8QE3GOQVK54,FE619D35-48CA-433A-BFF9-8FAB7925D084,2023-09-26_11h55.37.276,WP_VExplicitOC_HL,2022.2.5,Win32,13.15131908,64.32291667,3.1733,2.0683,NA,NA,NA,NA,NA,bored,"bored, not bored","more bored, less bored",NA,NA,NA,NA,NA,NA,NA,NA,NA,NA,NA,NA,NA,NA,NA,NA,NA,NA,NA,NA,NA,NA,NA,NA,NA,NA,NA,NA,NA,NA,NA,NA,NA,NA,NA,NA,NA,NA,0,1,1,2,1,NA,NA,NA,NA,NA
SUPAMT80780,3FDJT1UU7A7FR4NOJWC8QE3GOQVK54,FE619D35-48CA-433A-BFF9-8FAB7925D084,2023-09-26_11h55.37.276,WP_VExplicitOC_HL,2022.2.5,Win32,13.15131908,69.01041667,3.2422,2.019,NA,NA,NA,NA,NA,happy,"unhappy, happy","less happy, more happy",NA,NA,NA,NA,NA,NA,NA,NA,NA,NA,NA,NA,NA,NA,NA,NA,NA,NA,NA,NA,NA,NA,NA,NA,NA,NA,NA,NA,NA,NA,NA,NA,NA,NA,NA,NA,NA,NA,0,2,2,0,1,NA,NA,NA,NA,NA
SUPAMT80780,3FDJT1UU7A7FR4NOJWC8QE3GOQVK54,FE619D35-48CA-433A-BFF9-8FAB7925D084,2023-09-26_11h55.37.276,WP_VExplicitOC_HL,2022.2.5,Win32,13.15131908,NA,NA,NA,NA,NA,NA,NA,NA,NA,NA,NA,NA,NA,NA,NA,NA,NA,NA,NA,NA,NA,NA,NA,NA,NA,NA,NA,NA,NA,NA,NA,NA,NA,NA,NA,NA,NA,NA,NA,NA,NA,NA,NA,NA,NA,NA,NA,NA,NA,NA,NA,NA,NA,NA,2,0,2,0,1
SUPAMT80780,3FDJT1UU7A7FR4NOJWC8QE3GOQVK54,FE619D35-48CA-433A-BFF9-8FAB7925D084,2023-09-26_11h55.37.276,WP_VExplicitOC_HL,2022.2.5,Win32,13.15131908,69.01041667,4.8902,2.0283,NA,NA,NA,NA,NA,bored,"bored, not bored","more bored, less bored",NA,NA,NA,NA,NA,NA,NA,NA,NA,NA,NA,NA,NA,NA,NA,NA,NA,NA,NA,NA,NA,NA,NA,NA,NA,NA,NA,NA,NA,NA,NA,NA,NA,NA,NA,NA,NA,NA,0,0,0,2,1,NA,NA,NA,NA,NA
SUPAMT80780,3FDJT1UU7A7FR4NOJWC8QE3GOQVK54,FE619D35-48CA-433A-BFF9-8FAB7925D084,2023-09-26_11h55.37.276,WP_VExplicitOC_HL,2022.2.5,Win32,13.15131908,63.54166667,3.0709,2.0892,NA,NA,NA,NA,NA,happy,"unhappy, happy","less happy, more happy",NA,NA,NA,NA,NA,NA,NA,NA,NA,NA,NA,NA,NA,NA,NA,NA,NA,NA,NA,NA,NA,NA,NA,NA,NA,NA,NA,NA,NA,NA,NA,NA,NA,NA,NA,NA,NA,NA,0,1,1,0,1,NA,NA,NA,NA,NA
SUPAMT80780,3FDJT1UU7A7FR4NOJWC8QE3GOQVK54,FE619D35-48CA-433A-BFF9-8FAB7925D084,2023-09-26_11h55.37.276,WP_VExplicitOC_HL,2022.2.5,Win32,13.15131908,45.05208333,3.0031,2.0407,NA,NA,NA,NA,NA,frustrated,"frustrated, not frustrated","more frustrated, less frustrated",NA,NA,NA,NA,NA,NA,NA,NA,NA,NA,NA,NA,NA,NA,NA,NA,NA,NA,NA,NA,NA,NA,NA,NA,NA,NA,NA,NA,NA,NA,NA,NA,NA,NA,NA,NA,NA,NA,0,2,2,1,1,NA,NA,NA,NA,NA
SUPAMT80780,3FDJT1UU7A7FR4NOJWC8QE3GOQVK54,FE619D35-48CA-433A-BFF9-8FAB7925D084,2023-09-26_11h55.37.276,WP_VExplicitOC_HL,2022.2.5,Win32,13.15131908,NA,NA,NA,NA,NA,NA,NA,NA,NA,NA,NA,NA,NA,NA,NA,NA,NA,NA,NA,NA,NA,NA,NA,NA,NA,NA,NA,NA,NA,NA,NA,NA,NA,NA,NA,NA,NA,NA,NA,NA,NA,NA,NA,NA,NA,NA,NA,NA,NA,NA,NA,NA,NA,NA,3,0,3,0,1
SUPAMT80780,3FDJT1UU7A7FR4NOJWC8QE3GOQVK54,FE619D35-48CA-433A-BFF9-8FAB7925D084,2023-09-26_11h55.37.276,WP_VExplicitOC_HL,2022.2.5,Win32,13.15131908,60.41666667,3.5478,2.0617,NA,NA,NA,NA,NA,bored,"bored, not bored","more bored, less bored",NA,NA,NA,NA,NA,NA,NA,NA,NA,NA,NA,NA,NA,NA,NA,NA,NA,NA,NA,NA,NA,NA,NA,NA,NA,NA,NA,NA,NA,NA,NA,NA,NA,NA,NA,NA,NA,NA,0,0,0,2,1,NA,NA,NA,NA,NA
SUPAMT80780,3FDJT1UU7A7FR4NOJWC8QE3GOQVK54,FE619D35-48CA-433A-BFF9-8FAB7925D084,2023-09-26_11h55.37.276,WP_VExplicitOC_HL,2022.2.5,Win32,13.15131908,63.02083333,3.5884,2.0544,NA,NA,NA,NA,NA,happy,"unhappy, happy","less happy, more happy",NA,NA,NA,NA,NA,NA,NA,NA,NA,NA,NA,NA,NA,NA,NA,NA,NA,NA,NA,NA,NA,NA,NA,NA,NA,NA,NA,NA,NA,NA,NA,NA,NA,NA,NA,NA,NA,NA,0,1,1,0,1,NA,NA,NA,NA,NA
SUPAMT80780,3FDJT1UU7A7FR4NOJWC8QE3GOQVK54,FE619D35-48CA-433A-BFF9-8FAB7925D084,2023-09-26_11h55.37.276,WP_VExplicitOC_HL,2022.2.5,Win32,13.15131908,57.55208333,3.4269,2.0464,NA,NA,NA,NA,NA,frustrated,"frustrated, not frustrated","more frustrated, less frustrated",NA,NA,NA,NA,NA,NA,NA,NA,NA,NA,NA,NA,NA,NA,NA,NA,NA,NA,NA,NA,NA,NA,NA,NA,NA,NA,NA,NA,NA,NA,NA,NA,NA,NA,NA,NA,NA,NA,0,2,2,1,1,NA,NA,NA,NA,NA
SUPAMT80780,3FDJT1UU7A7FR4NOJWC8QE3GOQVK54,FE619D35-48CA-433A-BFF9-8FAB7925D084,2023-09-26_11h55.37.276,WP_VExplicitOC_HL,2022.2.5,Win32,13.15131908,NA,NA,NA,NA,NA,NA,NA,NA,NA,NA,NA,NA,NA,NA,NA,NA,NA,NA,NA,NA,NA,NA,NA,NA,NA,NA,NA,NA,NA,NA,NA,NA,NA,NA,NA,NA,NA,NA,NA,NA,NA,NA,NA,NA,NA,NA,NA,NA,NA,NA,NA,NA,NA,NA,4,0,4,0,1
SUPAMT80780,3FDJT1UU7A7FR4NOJWC8QE3GOQVK54,FE619D35-48CA-433A-BFF9-8FAB7925D084,2023-09-26_11h55.37.276,WP_VExplicitOC_HL,2022.2.5,Win32,13.15131908,56.25,3.4735,2.1197,NA,NA,NA,NA,NA,frustrated,"frustrated, not frustrated","more frustrated, less frustrated",NA,NA,NA,NA,NA,NA,NA,NA,NA,NA,NA,NA,NA,NA,NA,NA,NA,NA,NA,NA,NA,NA,NA,NA,NA,NA,NA,NA,NA,NA,NA,NA,NA,NA,NA,NA,NA,NA,0,0,0,1,1,NA,NA,NA,NA,NA
SUPAMT80780,3FDJT1UU7A7FR4NOJWC8QE3GOQVK54,FE619D35-48CA-433A-BFF9-8FAB7925D084,2023-09-26_11h55.37.276,WP_VExplicitOC_HL,2022.2.5,Win32,13.15131908,58.33333333,3.0814,2.0231,NA,NA,NA,NA,NA,bored,"bored, not bored","more bored, less bored",NA,NA,NA,NA,NA,NA,NA,NA,NA,NA,NA,NA,NA,NA,NA,NA,NA,NA,NA,NA,NA,NA,NA,NA,NA,NA,NA,NA,NA,NA,NA,NA,NA,NA,NA,NA,NA,NA,0,1,1,2,1,NA,NA,NA,NA,NA
SUPAMT80780,3FDJT1UU7A7FR4NOJWC8QE3GOQVK54,FE619D35-48CA-433A-BFF9-8FAB7925D084,2023-09-26_11h55.37.276,WP_VExplicitOC_HL,2022.2.5,Win32,13.15131908,58.33333333,2.991,2.0644,NA,NA,NA,NA,NA,happy,"unhappy, happy","less happy, more happy",NA,NA,NA,NA,NA,NA,NA,NA,NA,NA,NA,NA,NA,NA,NA,NA,NA,NA,NA,NA,NA,NA,NA,NA,NA,NA,NA,NA,NA,NA,NA,NA,NA,NA,NA,NA,NA,NA,0,2,2,0,1,NA,NA,NA,NA,NA
SUPAMT80780,3FDJT1UU7A7FR4NOJWC8QE3GOQVK54,FE619D35-48CA-433A-BFF9-8FAB7925D084,2023-09-26_11h55.37.276,WP_VExplicitOC_HL,2022.2.5,Win32,13.15131908,NA,NA,NA,NA,NA,NA,NA,NA,NA,NA,NA,NA,NA,NA,NA,NA,NA,NA,NA,NA,NA,NA,NA,NA,NA,NA,NA,NA,NA,NA,NA,NA,NA,NA,NA,NA,NA,NA,NA,NA,NA,NA,NA,NA,NA,NA,NA,NA,NA,NA,NA,NA,NA,NA,5,0,5,0,1
SUPAMT80780,3FDJT1UU7A7FR4NOJWC8QE3GOQVK54,FE619D35-48CA-433A-BFF9-8FAB7925D084,2023-09-26_11h55.37.276,WP_VExplicitOC_HL,2022.2.5,Win32,13.15131908,51.5625,3.3325,2.0575,NA,NA,NA,NA,NA,happy,"unhappy, happy","less happy, more happy",NA,NA,NA,NA,NA,NA,NA,NA,NA,NA,NA,NA,NA,NA,NA,NA,NA,NA,NA,NA,NA,NA,NA,NA,NA,NA,NA,NA,NA,NA,NA,NA,NA,NA,NA,NA,NA,NA,0,0,0,0,1,NA,NA,NA,NA,NA
SUPAMT80780,3FDJT1UU7A7FR4NOJWC8QE3GOQVK54,FE619D35-48CA-433A-BFF9-8FAB7925D084,2023-09-26_11h55.37.276,WP_VExplicitOC_HL,2022.2.5,Win32,13.15131908,57.8125,3.9376,2.0442,NA,NA,NA,NA,NA,frustrated,"frustrated, not frustrated","more frustrated, less frustrated",NA,NA,NA,NA,NA,NA,NA,NA,NA,NA,NA,NA,NA,NA,NA,NA,NA,NA,NA,NA,NA,NA,NA,NA,NA,NA,NA,NA,NA,NA,NA,NA,NA,NA,NA,NA,NA,NA,0,1,1,1,1,NA,NA,NA,NA,NA
SUPAMT80780,3FDJT1UU7A7FR4NOJWC8QE3GOQVK54,FE619D35-48CA-433A-BFF9-8FAB7925D084,2023-09-26_11h55.37.276,WP_VExplicitOC_HL,2022.2.5,Win32,13.15131908,57.8125,3.1537,2.0247,NA,NA,NA,NA,NA,bored,"bored, not bored","more bored, less bored",NA,NA,NA,NA,NA,NA,NA,NA,NA,NA,NA,NA,NA,NA,NA,NA,NA,NA,NA,NA,NA,NA,NA,NA,NA,NA,NA,NA,NA,NA,NA,NA,NA,NA,NA,NA,NA,NA,0,2,2,2,1,NA,NA,NA,NA,NA
SUPAMT80780,3FDJT1UU7A7FR4NOJWC8QE3GOQVK54,FE619D35-48CA-433A-BFF9-8FAB7925D084,2023-09-26_11h55.37.276,WP_VExplicitOC_HL,2022.2.5,Win32,13.15131908,NA,NA,NA,NA,NA,NA,NA,NA,NA,NA,NA,NA,NA,NA,NA,NA,NA,NA,NA,NA,NA,NA,NA,NA,NA,NA,NA,NA,NA,NA,NA,NA,NA,NA,NA,NA,NA,NA,NA,NA,NA,NA,NA,NA,NA,NA,NA,NA,NA,NA,NA,NA,NA,NA,6,0,6,0,1
SUPAMT80780,3FDJT1UU7A7FR4NOJWC8QE3GOQVK54,FE619D35-48CA-433A-BFF9-8FAB7925D084,2023-09-26_11h55.37.276,WP_VExplicitOC_HL,2022.2.5,Win32,13.15131908,55.72916667,7.0975,2.0728,NA,NA,NA,NA,NA,happy,"unhappy, happy","less happy, more happy",NA,NA,NA,NA,NA,NA,NA,NA,NA,NA,NA,NA,NA,NA,NA,NA,NA,NA,NA,NA,NA,NA,NA,NA,NA,NA,NA,NA,NA,NA,NA,NA,NA,NA,NA,NA,NA,NA,0,0,0,0,1,NA,NA,NA,NA,NA
SUPAMT80780,3FDJT1UU7A7FR4NOJWC8QE3GOQVK54,FE619D35-48CA-433A-BFF9-8FAB7925D084,2023-09-26_11h55.37.276,WP_VExplicitOC_HL,2022.2.5,Win32,13.15131908,68.22916667,3.0234,2.0318,NA,NA,NA,NA,NA,bored,"bored, not bored","more bored, less bored",NA,NA,NA,NA,NA,NA,NA,NA,NA,NA,NA,NA,NA,NA,NA,NA,NA,NA,NA,NA,NA,NA,NA,NA,NA,NA,NA,NA,NA,NA,NA,NA,NA,NA,NA,NA,NA,NA,0,1,1,2,1,NA,NA,NA,NA,NA
SUPAMT80780,3FDJT1UU7A7FR4NOJWC8QE3GOQVK54,FE619D35-48CA-433A-BFF9-8FAB7925D084,2023-09-26_11h55.37.276,WP_VExplicitOC_HL,2022.2.5,Win32,13.15131908,57.29166667,3.0381,2.058,NA,NA,NA,NA,NA,frustrated,"frustrated, not frustrated","more frustrated, less frustrated",NA,NA,NA,NA,NA,NA,NA,NA,NA,NA,NA,NA,NA,NA,NA,NA,NA,NA,NA,NA,NA,NA,NA,NA,NA,NA,NA,NA,NA,NA,NA,NA,NA,NA,NA,NA,NA,NA,0,2,2,1,1,NA,NA,NA,NA,NA
SUPAMT80780,3FDJT1UU7A7FR4NOJWC8QE3GOQVK54,FE619D35-48CA-433A-BFF9-8FAB7925D084,2023-09-26_11h55.37.276,WP_VExplicitOC_HL,2022.2.5,Win32,13.15131908,NA,NA,NA,NA,NA,NA,NA,NA,NA,NA,NA,NA,NA,NA,NA,NA,NA,NA,NA,NA,NA,NA,NA,NA,NA,NA,NA,NA,NA,NA,NA,NA,NA,NA,NA,NA,NA,NA,NA,NA,NA,NA,NA,NA,NA,NA,NA,NA,NA,NA,NA,NA,NA,NA,7,0,7,0,1
SUPAMT80780,3FDJT1UU7A7FR4NOJWC8QE3GOQVK54,FE619D35-48CA-433A-BFF9-8FAB7925D084,2023-09-26_11h55.37.276,WP_VExplicitOC_HL,2022.2.5,Win32,13.15131908,51.04166667,3.4796,2.0958,NA,NA,NA,NA,NA,happy,"unhappy, happy","less happy, more happy",NA,NA,NA,NA,NA,NA,NA,NA,NA,NA,NA,NA,NA,NA,NA,NA,NA,NA,NA,NA,NA,NA,NA,NA,NA,NA,NA,NA,NA,NA,NA,NA,NA,NA,NA,NA,NA,NA,0,0,0,0,1,NA,NA,NA,NA,NA
SUPAMT80780,3FDJT1UU7A7FR4NOJWC8QE3GOQVK54,FE619D35-48CA-433A-BFF9-8FAB7925D084,2023-09-26_11h55.37.276,WP_VExplicitOC_HL,2022.2.5,Win32,13.15131908,52.86458333,3.7349,2.0589,NA,NA,NA,NA,NA,bored,"bored, not bored","more bored, less bored",NA,NA,NA,NA,NA,NA,NA,NA,NA,NA,NA,NA,NA,NA,NA,NA,NA,NA,NA,NA,NA,NA,NA,NA,NA,NA,NA,NA,NA,NA,NA,NA,NA,NA,NA,NA,NA,NA,0,1,1,2,1,NA,NA,NA,NA,NA
SUPAMT80780,3FDJT1UU7A7FR4NOJWC8QE3GOQVK54,FE619D35-48CA-433A-BFF9-8FAB7925D084,2023-09-26_11h55.37.276,WP_VExplicitOC_HL,2022.2.5,Win32,13.15131908,62.5,3.7238,2.0768,NA,NA,NA,NA,NA,frustrated,"frustrated, not frustrated","more frustrated, less frustrated",NA,NA,NA,NA,NA,NA,NA,NA,NA,NA,NA,NA,NA,NA,NA,NA,NA,NA,NA,NA,NA,NA,NA,NA,NA,NA,NA,NA,NA,NA,NA,NA,NA,NA,NA,NA,NA,NA,0,2,2,1,1,NA,NA,NA,NA,NA
SUPAMT80780,3FDJT1UU7A7FR4NOJWC8QE3GOQVK54,FE619D35-48CA-433A-BFF9-8FAB7925D084,2023-09-26_11h55.37.276,WP_VExplicitOC_HL,2022.2.5,Win32,13.15131908,NA,NA,NA,NA,NA,NA,NA,NA,NA,NA,NA,NA,NA,NA,NA,NA,NA,NA,NA,NA,NA,NA,NA,NA,NA,NA,NA,NA,NA,NA,NA,NA,NA,NA,NA,NA,NA,NA,NA,NA,NA,NA,NA,NA,NA,NA,NA,NA,NA,NA,NA,NA,NA,NA,8,0,8,0,1
SUPAMT80780,3FDJT1UU7A7FR4NOJWC8QE3GOQVK54,FE619D35-48CA-433A-BFF9-8FAB7925D084,2023-09-26_11h55.37.276,WP_VExplicitOC_HL,2022.2.5,Win32,13.15131908,51.5625,3.1806,2.0329,NA,NA,NA,NA,NA,happy,"unhappy, happy","less happy, more happy",NA,NA,NA,NA,NA,NA,NA,NA,NA,NA,NA,NA,NA,NA,NA,NA,NA,NA,NA,NA,NA,NA,NA,NA,NA,NA,NA,NA,NA,NA,NA,NA,NA,NA,NA,NA,NA,NA,0,0,0,0,1,NA,NA,NA,NA,NA
SUPAMT80780,3FDJT1UU7A7FR4NOJWC8QE3GOQVK54,FE619D35-48CA-433A-BFF9-8FAB7925D084,2023-09-26_11h55.37.276,WP_VExplicitOC_HL,2022.2.5,Win32,13.15131908,62.23958333,3.0864,2.0787,NA,NA,NA,NA,NA,bored,"bored, not bored","more bored, less bored",NA,NA,NA,NA,NA,NA,NA,NA,NA,NA,NA,NA,NA,NA,NA,NA,NA,NA,NA,NA,NA,NA,NA,NA,NA,NA,NA,NA,NA,NA,NA,NA,NA,NA,NA,NA,NA,NA,0,1,1,2,1,NA,NA,NA,NA,NA
SUPAMT80780,3FDJT1UU7A7FR4NOJWC8QE3GOQVK54,FE619D35-48CA-433A-BFF9-8FAB7925D084,2023-09-26_11h55.37.276,WP_VExplicitOC_HL,2022.2.5,Win32,13.15131908,64.32291667,3.168,2.1215,NA,NA,NA,NA,NA,frustrated,"frustrated, not frustrated","more frustrated, less frustrated",NA,NA,NA,NA,NA,NA,NA,NA,NA,NA,NA,NA,NA,NA,NA,NA,NA,NA,NA,NA,NA,NA,NA,NA,NA,NA,NA,NA,NA,NA,NA,NA,NA,NA,NA,NA,NA,NA,0,2,2,1,1,NA,NA,NA,NA,NA
SUPAMT80780,3FDJT1UU7A7FR4NOJWC8QE3GOQVK54,FE619D35-48CA-433A-BFF9-8FAB7925D084,2023-09-26_11h55.37.276,WP_VExplicitOC_HL,2022.2.5,Win32,13.15131908,NA,NA,NA,NA,NA,NA,NA,NA,NA,NA,NA,NA,NA,NA,NA,NA,NA,NA,NA,NA,NA,NA,NA,NA,NA,NA,NA,NA,NA,NA,NA,NA,NA,NA,NA,NA,NA,NA,NA,NA,NA,NA,NA,NA,NA,NA,NA,NA,NA,NA,NA,NA,NA,NA,9,0,9,0,1
SUPAMT80780,3FDJT1UU7A7FR4NOJWC8QE3GOQVK54,FE619D35-48CA-433A-BFF9-8FAB7925D084,2023-09-26_11h55.37.276,WP_VExplicitOC_HL,2022.2.5,Win32,13.15131908,52.60416667,3.4473,2.0982,NA,NA,NA,NA,NA,frustrated,"frustrated, not frustrated","more frustrated, less frustrated",NA,NA,NA,NA,NA,NA,NA,NA,NA,NA,NA,NA,NA,NA,NA,NA,NA,NA,NA,NA,NA,NA,NA,NA,NA,NA,NA,NA,NA,NA,NA,NA,NA,NA,NA,NA,NA,NA,0,0,0,1,1,NA,NA,NA,NA,NA
SUPAMT80780,3FDJT1UU7A7FR4NOJWC8QE3GOQVK54,FE619D35-48CA-433A-BFF9-8FAB7925D084,2023-09-26_11h55.37.276,WP_VExplicitOC_HL,2022.2.5,Win32,13.15131908,61.97916667,3.284,2.0803,NA,NA,NA,NA,NA,bored,"bored, not bored","more bored, less bored",NA,NA,NA,NA,NA,NA,NA,NA,NA,NA,NA,NA,NA,NA,NA,NA,NA,NA,NA,NA,NA,NA,NA,NA,NA,NA,NA,NA,NA,NA,NA,NA,NA,NA,NA,NA,NA,NA,0,1,1,2,1,NA,NA,NA,NA,NA
SUPAMT80780,3FDJT1UU7A7FR4NOJWC8QE3GOQVK54,FE619D35-48CA-433A-BFF9-8FAB7925D084,2023-09-26_11h55.37.276,WP_VExplicitOC_HL,2022.2.5,Win32,13.15131908,51.04166667,3.2026,2.0509,NA,NA,NA,NA,NA,happy,"unhappy, happy","less happy, more happy",NA,NA,NA,NA,NA,NA,NA,NA,NA,NA,NA,NA,NA,NA,NA,NA,NA,NA,NA,NA,NA,NA,NA,NA,NA,NA,NA,NA,NA,NA,NA,NA,NA,NA,NA,NA,NA,NA,0,2,2,0,1,NA,NA,NA,NA,NA
SUPAMT80780,3FDJT1UU7A7FR4NOJWC8QE3GOQVK54,FE619D35-48CA-433A-BFF9-8FAB7925D084,2023-09-26_11h55.37.276,WP_VExplicitOC_HL,2022.2.5,Win32,13.15131908,NA,NA,NA,NA,NA,NA,NA,NA,NA,NA,NA,NA,NA,NA,NA,NA,NA,NA,NA,NA,NA,NA,NA,NA,NA,NA,NA,NA,NA,NA,NA,NA,NA,NA,NA,NA,NA,NA,NA,NA,NA,NA,NA,NA,NA,NA,NA,NA,NA,NA,NA,NA,NA,NA,10,0,10,0,1
SUPAMT80780,3FDJT1UU7A7FR4NOJWC8QE3GOQVK54,FE619D35-48CA-433A-BFF9-8FAB7925D084,2023-09-26_11h55.37.276,WP_VExplicitOC_HL,2022.2.5,Win32,13.15131908,58.59375,3.3392,2.0203,NA,NA,NA,NA,NA,frustrated,"frustrated, not frustrated","more frustrated, less frustrated",NA,NA,NA,NA,NA,NA,NA,NA,NA,NA,NA,NA,NA,NA,NA,NA,NA,NA,NA,NA,NA,NA,NA,NA,NA,NA,NA,NA,NA,NA,NA,NA,NA,NA,NA,NA,NA,NA,0,0,0,1,1,NA,NA,NA,NA,NA
SUPAMT80780,3FDJT1UU7A7FR4NOJWC8QE3GOQVK54,FE619D35-48CA-433A-BFF9-8FAB7925D084,2023-09-26_11h55.37.276,WP_VExplicitOC_HL,2022.2.5,Win32,13.15131908,54.42708333,4.5484,2.1138,NA,NA,NA,NA,NA,bored,"bored, not bored","more bored, less bored",NA,NA,NA,NA,NA,NA,NA,NA,NA,NA,NA,NA,NA,NA,NA,NA,NA,NA,NA,NA,NA,NA,NA,NA,NA,NA,NA,NA,NA,NA,NA,NA,NA,NA,NA,NA,NA,NA,0,1,1,2,1,NA,NA,NA,NA,NA
SUPAMT80780,3FDJT1UU7A7FR4NOJWC8QE3GOQVK54,FE619D35-48CA-433A-BFF9-8FAB7925D084,2023-09-26_11h55.37.276,WP_VExplicitOC_HL,2022.2.5,Win32,13.15131908,50.52083333,3.3604,2.0925,NA,NA,NA,NA,NA,happy,"unhappy, happy","less happy, more happy",NA,NA,NA,NA,NA,NA,NA,NA,NA,NA,NA,NA,NA,NA,NA,NA,NA,NA,NA,NA,NA,NA,NA,NA,NA,NA,NA,NA,NA,NA,NA,NA,NA,NA,NA,NA,NA,NA,0,2,2,0,1,NA,NA,NA,NA,NA
SUPAMT80780,3FDJT1UU7A7FR4NOJWC8QE3GOQVK54,FE619D35-48CA-433A-BFF9-8FAB7925D084,2023-09-26_11h55.37.276,WP_VExplicitOC_HL,2022.2.5,Win32,13.15131908,NA,NA,NA,NA,NA,NA,NA,NA,NA,NA,NA,NA,NA,NA,NA,NA,NA,NA,NA,NA,NA,NA,NA,NA,NA,NA,NA,NA,NA,NA,NA,NA,NA,NA,NA,NA,NA,NA,NA,NA,NA,NA,NA,NA,NA,NA,NA,NA,NA,NA,NA,NA,NA,NA,11,0,11,0,1
SUPAMT80780,3FDJT1UU7A7FR4NOJWC8QE3GOQVK54,FE619D35-48CA-433A-BFF9-8FAB7925D084,2023-09-26_11h55.37.276,WP_VExplicitOC_HL,2022.2.5,Win32,13.15131908,35.9375,3.3387,2.1348,NA,NA,NA,NA,NA,happy,"unhappy, happy","less happy, more happy",NA,NA,NA,NA,NA,NA,NA,NA,NA,NA,NA,NA,NA,NA,NA,NA,NA,NA,NA,NA,NA,NA,NA,NA,NA,NA,NA,NA,NA,NA,NA,NA,NA,NA,NA,NA,NA,NA,0,0,0,0,1,NA,NA,NA,NA,NA
SUPAMT80780,3FDJT1UU7A7FR4NOJWC8QE3GOQVK54,FE619D35-48CA-433A-BFF9-8FAB7925D084,2023-09-26_11h55.37.276,WP_VExplicitOC_HL,2022.2.5,Win32,13.15131908,50.26041667,3.7093,2.0443,NA,NA,NA,NA,NA,bored,"bored, not bored","more bored, less bored",NA,NA,NA,NA,NA,NA,NA,NA,NA,NA,NA,NA,NA,NA,NA,NA,NA,NA,NA,NA,NA,NA,NA,NA,NA,NA,NA,NA,NA,NA,NA,NA,NA,NA,NA,NA,NA,NA,0,1,1,2,1,NA,NA,NA,NA,NA
SUPAMT80780,3FDJT1UU7A7FR4NOJWC8QE3GOQVK54,FE619D35-48CA-433A-BFF9-8FAB7925D084,2023-09-26_11h55.37.276,WP_VExplicitOC_HL,2022.2.5,Win32,13.15131908,68.75,3.1843,2.0598,NA,NA,NA,NA,NA,frustrated,"frustrated, not frustrated","more frustrated, less frustrated",NA,NA,NA,NA,NA,NA,NA,NA,NA,NA,NA,NA,NA,NA,NA,NA,NA,NA,NA,NA,NA,NA,NA,NA,NA,NA,NA,NA,NA,NA,NA,NA,NA,NA,NA,NA,NA,NA,0,2,2,1,1,NA,NA,NA,NA,NA
SUPAMT80780,3FDJT1UU7A7FR4NOJWC8QE3GOQVK54,FE619D35-48CA-433A-BFF9-8FAB7925D084,2023-09-26_11h55.37.276,WP_VExplicitOC_HL,2022.2.5,Win32,13.15131908,NA,NA,NA,NA,NA,NA,NA,NA,NA,NA,NA,NA,NA,NA,NA,NA,NA,NA,NA,NA,NA,NA,NA,NA,NA,NA,NA,NA,NA,NA,NA,NA,NA,NA,NA,NA,NA,NA,NA,NA,NA,NA,NA,NA,NA,NA,NA,NA,NA,NA,NA,NA,NA,NA,12,0,12,0,1
SUPAMT80780,3FDJT1UU7A7FR4NOJWC8QE3GOQVK54,FE619D35-48CA-433A-BFF9-8FAB7925D084,2023-09-26_11h55.37.276,WP_VExplicitOC_HL,2022.2.5,Win32,13.15131908,67.70833333,3.7513,2.1827,NA,NA,NA,NA,NA,frustrated,"frustrated, not frustrated","more frustrated, less frustrated",NA,NA,NA,NA,NA,NA,NA,NA,NA,NA,NA,NA,NA,NA,NA,NA,NA,NA,NA,NA,NA,NA,NA,NA,NA,NA,NA,NA,NA,NA,NA,NA,NA,NA,NA,NA,NA,NA,0,0,0,1,1,NA,NA,NA,NA,NA
SUPAMT80780,3FDJT1UU7A7FR4NOJWC8QE3GOQVK54,FE619D35-48CA-433A-BFF9-8FAB7925D084,2023-09-26_11h55.37.276,WP_VExplicitOC_HL,2022.2.5,Win32,13.15131908,53.90625,3.0937,2.0104,NA,NA,NA,NA,NA,happy,"unhappy, happy","less happy, more happy",NA,NA,NA,NA,NA,NA,NA,NA,NA,NA,NA,NA,NA,NA,NA,NA,NA,NA,NA,NA,NA,NA,NA,NA,NA,NA,NA,NA,NA,NA,NA,NA,NA,NA,NA,NA,NA,NA,0,1,1,0,1,NA,NA,NA,NA,NA
SUPAMT80780,3FDJT1UU7A7FR4NOJWC8QE3GOQVK54,FE619D35-48CA-433A-BFF9-8FAB7925D084,2023-09-26_11h55.37.276,WP_VExplicitOC_HL,2022.2.5,Win32,13.15131908,58.85416667,3.4227,2.0155,NA,NA,NA,NA,NA,bored,"bored, not bored","more bored, less bored",NA,NA,NA,NA,NA,NA,NA,NA,NA,NA,NA,NA,NA,NA,NA,NA,NA,NA,NA,NA,NA,NA,NA,NA,NA,NA,NA,NA,NA,NA,NA,NA,NA,NA,NA,NA,NA,NA,0,2,2,2,1,NA,NA,NA,NA,NA
SUPAMT80780,3FDJT1UU7A7FR4NOJWC8QE3GOQVK54,FE619D35-48CA-433A-BFF9-8FAB7925D084,2023-09-26_11h55.37.276,WP_VExplicitOC_HL,2022.2.5,Win32,13.15131908,NA,NA,NA,NA,NA,NA,NA,NA,NA,NA,NA,NA,NA,NA,NA,NA,NA,NA,NA,NA,NA,NA,NA,NA,NA,NA,NA,NA,NA,NA,NA,NA,NA,NA,NA,NA,NA,NA,NA,NA,NA,NA,NA,NA,NA,NA,NA,NA,NA,NA,NA,NA,NA,NA,13,0,13,0,1
SUPAMT80780,3FDJT1UU7A7FR4NOJWC8QE3GOQVK54,FE619D35-48CA-433A-BFF9-8FAB7925D084,2023-09-26_11h55.37.276,WP_VExplicitOC_HL,2022.2.5,Win32,13.15131908,55.20833333,3.8135,2.0084,NA,NA,NA,NA,NA,happy,"unhappy, happy","less happy, more happy",NA,NA,NA,NA,NA,NA,NA,NA,NA,NA,NA,NA,NA,NA,NA,NA,NA,NA,NA,NA,NA,NA,NA,NA,NA,NA,NA,NA,NA,NA,NA,NA,NA,NA,NA,NA,NA,NA,0,0,0,0,1,NA,NA,NA,NA,NA
SUPAMT80780,3FDJT1UU7A7FR4NOJWC8QE3GOQVK54,FE619D35-48CA-433A-BFF9-8FAB7925D084,2023-09-26_11h55.37.276,WP_VExplicitOC_HL,2022.2.5,Win32,13.15131908,66.40625,3.5093,2.039,NA,NA,NA,NA,NA,bored,"bored, not bored","more bored, less bored",NA,NA,NA,NA,NA,NA,NA,NA,NA,NA,NA,NA,NA,NA,NA,NA,NA,NA,NA,NA,NA,NA,NA,NA,NA,NA,NA,NA,NA,NA,NA,NA,NA,NA,NA,NA,NA,NA,0,1,1,2,1,NA,NA,NA,NA,NA
SUPAMT80780,3FDJT1UU7A7FR4NOJWC8QE3GOQVK54,FE619D35-48CA-433A-BFF9-8FAB7925D084,2023-09-26_11h55.37.276,WP_VExplicitOC_HL,2022.2.5,Win32,13.15131908,66.66666667,3.1695,2.0325,NA,NA,NA,NA,NA,frustrated,"frustrated, not frustrated","more frustrated, less frustrated",NA,NA,NA,NA,NA,NA,NA,NA,NA,NA,NA,NA,NA,NA,NA,NA,NA,NA,NA,NA,NA,NA,NA,NA,NA,NA,NA,NA,NA,NA,NA,NA,NA,NA,NA,NA,NA,NA,0,2,2,1,1,NA,NA,NA,NA,NA
SUPAMT80780,3FDJT1UU7A7FR4NOJWC8QE3GOQVK54,FE619D35-48CA-433A-BFF9-8FAB7925D084,2023-09-26_11h55.37.276,WP_VExplicitOC_HL,2022.2.5,Win32,13.15131908,NA,NA,NA,NA,NA,NA,NA,NA,NA,NA,NA,NA,NA,NA,NA,NA,NA,NA,NA,NA,NA,NA,NA,NA,NA,NA,NA,NA,NA,NA,NA,NA,NA,NA,NA,NA,NA,NA,NA,NA,NA,NA,NA,NA,NA,NA,NA,NA,NA,NA,NA,NA,NA,NA,14,0,14,0,1
SUPAMT80780,3FDJT1UU7A7FR4NOJWC8QE3GOQVK54,FE619D35-48CA-433A-BFF9-8FAB7925D084,2023-09-26_11h55.37.276,WP_VExplicitOC_HL,2022.2.5,Win32,13.15131908,NA,NA,NA,NA,NA,NA,NA,NA,NA,NA,NA,NA,NA,NA,NA,NA,NA,NA,NA,NA,NA,NA,NA,NA,NA,NA,NA,NA,NA,NA,NA,NA,NA,NA,NA,NA,NA,NA,NA,NA,NA,NA,NA,NA,NA,NA,NA,NA,NA,NA,NA,NA,NA,NA,NA,NA,NA,NA,NA
