participant,session,completion,date,expName,psychopyVersion,OS,frameRate,rating_all.response,rating_all.rt,rating_all.tStart,rndRat1.thisRepN,rndRat1.thisTrialN,rndRat1.thisN,rndRat1.thisIndex,rndRat1.ran,Emo,Labs,Labs2,rating_alt.response,rating_alt.rt,AltC.thisRepN,AltC.thisTrialN,AltC.thisN,AltC.thisIndex,AltC.ran,alt_choices,pic_choices,TopAlt_Choice,rndRat2.thisRepN,rndRat2.thisTrialN,rndRat2.thisN,rndRat2.thisIndex,rndRat2.ran,rndRat3.thisRepN,rndRat3.thisTrialN,rndRat3.thisN,rndRat3.thisIndex,rndRat3.ran,trials_FC_H.thisRepN,trials_FC_H.thisTrialN,trials_FC_H.thisN,trials_FC_H.thisIndex,trials_FC_H.ran,rating_alt_2.response,rating_alt_2.rt,AltC2.thisRepN,AltC2.thisTrialN,AltC2.thisN,AltC2.thisIndex,AltC2.ran,BottomAlt_Choice,rndRat4.thisRepN,rndRat4.thisTrialN,rndRat4.thisN,rndRat4.thisIndex,rndRat4.ran,rndRat5.thisRepN,rndRat5.thisTrialN,rndRat5.thisN,rndRat5.thisIndex,rndRat5.ran,trials_FC_L.thisRepN,trials_FC_L.thisTrialN,trials_FC_L.thisN,trials_FC_L.thisIndex,trials_FC_L.ran
SUPAMT75604,34QN5IT0T5QW1WZMD19TJEYYDOF80Q,AFE90992-58D0-4D01-BC43-F40F2C939205,2023-09-27_13h23.27.751,WP_VExplicitOC_HL,2022.2.5,Win32,7.979954355,NA,NA,NA,NA,NA,NA,NA,NA,NA,NA,NA,NA,NA,NA,NA,NA,NA,NA,NA,NA,NA,NA,NA,NA,NA,NA,NA,NA,NA,NA,NA,NA,NA,NA,NA,NA,NA,NA,NA,NA,NA,NA,NA,NA,NA,NA,NA,NA,NA,NA,NA,NA,NA,NA,NA,NA,NA,NA,NA
SUPAMT75604,34QN5IT0T5QW1WZMD19TJEYYDOF80Q,AFE90992-58D0-4D01-BC43-F40F2C939205,2023-09-27_13h23.27.751,WP_VExplicitOC_HL,2022.2.5,Win32,7.979954355,NA,NA,NA,NA,NA,NA,NA,NA,NA,NA,NA,NA,NA,NA,NA,NA,NA,NA,NA,NA,NA,NA,NA,NA,NA,NA,NA,NA,NA,NA,NA,NA,NA,NA,NA,NA,NA,NA,NA,NA,NA,NA,NA,NA,NA,NA,NA,NA,NA,NA,NA,NA,NA,NA,NA,NA,NA,NA,NA
SUPAMT75604,34QN5IT0T5QW1WZMD19TJEYYDOF80Q,AFE90992-58D0-4D01-BC43-F40F2C939205,2023-09-27_13h23.27.751,WP_VExplicitOC_HL,2022.2.5,Win32,7.979954355,NA,NA,NA,NA,NA,NA,NA,NA,NA,NA,NA,NA,NA,NA,NA,NA,NA,NA,NA,NA,NA,NA,NA,NA,NA,NA,NA,NA,NA,NA,NA,NA,NA,NA,NA,NA,NA,NA,NA,NA,NA,NA,NA,NA,NA,NA,NA,NA,NA,NA,NA,NA,NA,NA,NA,NA,NA,NA,NA
SUPAMT75604,34QN5IT0T5QW1WZMD19TJEYYDOF80Q,AFE90992-58D0-4D01-BC43-F40F2C939205,2023-09-27_13h23.27.751,WP_VExplicitOC_HL,2022.2.5,Win32,7.979954355,-85.67708333,5.4409,2.1308,0,0,0,2,1,bored,"bored, not bored","more bored, less bored",NA,NA,NA,NA,NA,NA,NA,NA,NA,NA,NA,NA,NA,NA,NA,NA,NA,NA,NA,NA,NA,NA,NA,NA,NA,NA,NA,NA,NA,NA,NA,NA,NA,NA,NA,NA,NA,NA,NA,NA,NA,NA,NA,NA,NA,NA,NA,NA
SUPAMT75604,34QN5IT0T5QW1WZMD19TJEYYDOF80Q,AFE90992-58D0-4D01-BC43-F40F2C939205,2023-09-27_13h23.27.751,WP_VExplicitOC_HL,2022.2.5,Win32,7.979954355,88.54166667,6.2414,2.034,0,1,1,0,1,happy,"unhappy, happy","less happy, more happy",NA,NA,NA,NA,NA,NA,NA,NA,NA,NA,NA,NA,NA,NA,NA,NA,NA,NA,NA,NA,NA,NA,NA,NA,NA,NA,NA,NA,NA,NA,NA,NA,NA,NA,NA,NA,NA,NA,NA,NA,NA,NA,NA,NA,NA,NA,NA,NA
SUPAMT75604,34QN5IT0T5QW1WZMD19TJEYYDOF80Q,AFE90992-58D0-4D01-BC43-F40F2C939205,2023-09-27_13h23.27.751,WP_VExplicitOC_HL,2022.2.5,Win32,7.979954355,-76.82291667,3.8807,2.0545,0,2,2,1,1,frustrated,"frustrated, not frustrated","more frustrated, less frustrated",NA,NA,NA,NA,NA,NA,NA,NA,NA,NA,NA,NA,NA,NA,NA,NA,NA,NA,NA,NA,NA,NA,NA,NA,NA,NA,NA,NA,NA,NA,NA,NA,NA,NA,NA,NA,NA,NA,NA,NA,NA,NA,NA,NA,NA,NA,NA,NA
SUPAMT75604,34QN5IT0T5QW1WZMD19TJEYYDOF80Q,AFE90992-58D0-4D01-BC43-F40F2C939205,2023-09-27_13h23.27.751,WP_VExplicitOC_HL,2022.2.5,Win32,7.979954355,NA,NA,NA,NA,NA,NA,NA,NA,NA,NA,NA,NA,NA,NA,NA,NA,NA,NA,NA,NA,NA,NA,NA,NA,NA,NA,NA,NA,NA,NA,NA,NA,NA,NA,NA,NA,NA,NA,NA,NA,NA,NA,NA,NA,NA,NA,NA,NA,NA,NA,NA,NA,NA,NA,NA,NA,NA,NA,NA
SUPAMT75604,34QN5IT0T5QW1WZMD19TJEYYDOF80Q,AFE90992-58D0-4D01-BC43-F40F2C939205,2023-09-27_13h23.27.751,WP_VExplicitOC_HL,2022.2.5,Win32,7.979954355,NA,NA,NA,NA,NA,NA,NA,NA,NA,NA,NA,NA,NA,NA,NA,NA,NA,NA,NA,NA,NA,NA,NA,NA,NA,NA,NA,NA,NA,NA,NA,NA,NA,NA,NA,NA,NA,NA,NA,NA,NA,NA,NA,NA,NA,NA,NA,NA,NA,NA,NA,NA,NA,NA,NA,NA,NA,NA,NA
SUPAMT75604,34QN5IT0T5QW1WZMD19TJEYYDOF80Q,AFE90992-58D0-4D01-BC43-F40F2C939205,2023-09-27_13h23.27.751,WP_VExplicitOC_HL,2022.2.5,Win32,7.979954355,NA,NA,NA,NA,NA,NA,NA,NA,NA,NA,NA,NA,NA,NA,NA,NA,NA,NA,NA,NA,NA,NA,NA,NA,NA,NA,NA,NA,NA,NA,NA,NA,NA,NA,NA,NA,NA,NA,NA,NA,NA,NA,NA,NA,NA,NA,NA,NA,NA,NA,NA,NA,NA,NA,NA,NA,NA,NA,NA
SUPAMT75604,34QN5IT0T5QW1WZMD19TJEYYDOF80Q,AFE90992-58D0-4D01-BC43-F40F2C939205,2023-09-27_13h23.27.751,WP_VExplicitOC_HL,2022.2.5,Win32,7.979954355,NA,NA,NA,NA,NA,NA,NA,NA,NA,NA,NA,NA,NA,NA,NA,NA,NA,NA,NA,NA,NA,NA,NA,NA,NA,NA,NA,NA,NA,NA,NA,NA,NA,NA,NA,NA,NA,NA,NA,NA,NA,NA,NA,NA,NA,NA,NA,NA,NA,NA,NA,NA,NA,NA,NA,NA,NA,NA,NA
SUPAMT75604,34QN5IT0T5QW1WZMD19TJEYYDOF80Q,AFE90992-58D0-4D01-BC43-F40F2C939205,2023-09-27_13h23.27.751,WP_VExplicitOC_HL,2022.2.5,Win32,7.979954355,NA,NA,NA,NA,NA,NA,NA,NA,NA,NA,NA,48.95833333,4.9392,0,0,0,0,1,rest (looking at a fixed cross),001.png,NA,NA,NA,NA,NA,NA,NA,NA,NA,NA,NA,NA,NA,NA,NA,NA,NA,NA,NA,NA,NA,NA,NA,NA,NA,NA,NA,NA,NA,NA,NA,NA,NA,NA,NA,NA,NA,NA,NA
SUPAMT75604,34QN5IT0T5QW1WZMD19TJEYYDOF80Q,AFE90992-58D0-4D01-BC43-F40F2C939205,2023-09-27_13h23.27.751,WP_VExplicitOC_HL,2022.2.5,Win32,7.979954355,NA,NA,NA,NA,NA,NA,NA,NA,NA,NA,NA,70.3125,2.1885,0,1,1,1,1,stand up,002.png,NA,NA,NA,NA,NA,NA,NA,NA,NA,NA,NA,NA,NA,NA,NA,NA,NA,NA,NA,NA,NA,NA,NA,NA,NA,NA,NA,NA,NA,NA,NA,NA,NA,NA,NA,NA,NA,NA,NA
SUPAMT75604,34QN5IT0T5QW1WZMD19TJEYYDOF80Q,AFE90992-58D0-4D01-BC43-F40F2C939205,2023-09-27_13h23.27.751,WP_VExplicitOC_HL,2022.2.5,Win32,7.979954355,NA,NA,NA,NA,NA,NA,NA,NA,NA,NA,NA,86.19791667,1.6872,0,2,2,2,1,stretch,003.png,NA,NA,NA,NA,NA,NA,NA,NA,NA,NA,NA,NA,NA,NA,NA,NA,NA,NA,NA,NA,NA,NA,NA,NA,NA,NA,NA,NA,NA,NA,NA,NA,NA,NA,NA,NA,NA,NA,NA
SUPAMT75604,34QN5IT0T5QW1WZMD19TJEYYDOF80Q,AFE90992-58D0-4D01-BC43-F40F2C939205,2023-09-27_13h23.27.751,WP_VExplicitOC_HL,2022.2.5,Win32,7.979954355,NA,NA,NA,NA,NA,NA,NA,NA,NA,NA,NA,90.10416667,1.4648,0,3,3,3,1,make a drink,004.png,NA,NA,NA,NA,NA,NA,NA,NA,NA,NA,NA,NA,NA,NA,NA,NA,NA,NA,NA,NA,NA,NA,NA,NA,NA,NA,NA,NA,NA,NA,NA,NA,NA,NA,NA,NA,NA,NA,NA
SUPAMT75604,34QN5IT0T5QW1WZMD19TJEYYDOF80Q,AFE90992-58D0-4D01-BC43-F40F2C939205,2023-09-27_13h23.27.751,WP_VExplicitOC_HL,2022.2.5,Win32,7.979954355,NA,NA,NA,NA,NA,NA,NA,NA,NA,NA,NA,87.23958333,1.8843,0,4,4,4,1,scroll social media,005.png,NA,NA,NA,NA,NA,NA,NA,NA,NA,NA,NA,NA,NA,NA,NA,NA,NA,NA,NA,NA,NA,NA,NA,NA,NA,NA,NA,NA,NA,NA,NA,NA,NA,NA,NA,NA,NA,NA,NA
SUPAMT75604,34QN5IT0T5QW1WZMD19TJEYYDOF80Q,AFE90992-58D0-4D01-BC43-F40F2C939205,2023-09-27_13h23.27.751,WP_VExplicitOC_HL,2022.2.5,Win32,7.979954355,NA,NA,NA,NA,NA,NA,NA,NA,NA,NA,NA,80.20833333,1.8962,0,5,5,5,1,listen to music,006.png,NA,NA,NA,NA,NA,NA,NA,NA,NA,NA,NA,NA,NA,NA,NA,NA,NA,NA,NA,NA,NA,NA,NA,NA,NA,NA,NA,NA,NA,NA,NA,NA,NA,NA,NA,NA,NA,NA,NA
SUPAMT75604,34QN5IT0T5QW1WZMD19TJEYYDOF80Q,AFE90992-58D0-4D01-BC43-F40F2C939205,2023-09-27_13h23.27.751,WP_VExplicitOC_HL,2022.2.5,Win32,7.979954355,NA,NA,NA,NA,NA,NA,NA,NA,NA,NA,NA,63.28125,3.006,0,6,6,6,1,daydream,007.png,NA,NA,NA,NA,NA,NA,NA,NA,NA,NA,NA,NA,NA,NA,NA,NA,NA,NA,NA,NA,NA,NA,NA,NA,NA,NA,NA,NA,NA,NA,NA,NA,NA,NA,NA,NA,NA,NA,NA
SUPAMT75604,34QN5IT0T5QW1WZMD19TJEYYDOF80Q,AFE90992-58D0-4D01-BC43-F40F2C939205,2023-09-27_13h23.27.751,WP_VExplicitOC_HL,2022.2.5,Win32,7.979954355,NA,NA,NA,NA,NA,NA,NA,NA,NA,NA,NA,62.5,1.8539,0,7,7,7,1,watch a short animation,008.png,NA,NA,NA,NA,NA,NA,NA,NA,NA,NA,NA,NA,NA,NA,NA,NA,NA,NA,NA,NA,NA,NA,NA,NA,NA,NA,NA,NA,NA,NA,NA,NA,NA,NA,NA,NA,NA,NA,NA
SUPAMT75604,34QN5IT0T5QW1WZMD19TJEYYDOF80Q,AFE90992-58D0-4D01-BC43-F40F2C939205,2023-09-27_13h23.27.751,WP_VExplicitOC_HL,2022.2.5,Win32,7.979954355,NA,NA,NA,NA,NA,NA,NA,NA,NA,NA,NA,69.01041667,1.629,0,8,8,8,1,read a novel,009.png,NA,NA,NA,NA,NA,NA,NA,NA,NA,NA,NA,NA,NA,NA,NA,NA,NA,NA,NA,NA,NA,NA,NA,NA,NA,NA,NA,NA,NA,NA,NA,NA,NA,NA,NA,NA,NA,NA,NA
SUPAMT75604,34QN5IT0T5QW1WZMD19TJEYYDOF80Q,AFE90992-58D0-4D01-BC43-F40F2C939205,2023-09-27_13h23.27.751,WP_VExplicitOC_HL,2022.2.5,Win32,7.979954355,NA,NA,NA,NA,NA,NA,NA,NA,NA,NA,NA,72.39583333,1.7984,0,9,9,9,1,read the news,010.png,NA,NA,NA,NA,NA,NA,NA,NA,NA,NA,NA,NA,NA,NA,NA,NA,NA,NA,NA,NA,NA,NA,NA,NA,NA,NA,NA,NA,NA,NA,NA,NA,NA,NA,NA,NA,NA,NA,NA
SUPAMT75604,34QN5IT0T5QW1WZMD19TJEYYDOF80Q,AFE90992-58D0-4D01-BC43-F40F2C939205,2023-09-27_13h23.27.751,WP_VExplicitOC_HL,2022.2.5,Win32,7.979954355,NA,NA,NA,NA,NA,NA,NA,NA,NA,NA,NA,NA,NA,NA,NA,NA,NA,NA,NA,NA,NA,NA,NA,NA,NA,NA,NA,NA,NA,NA,NA,NA,NA,NA,NA,NA,NA,NA,NA,NA,NA,NA,NA,NA,NA,NA,NA,NA,NA,NA,NA,NA,NA,NA,NA,NA,NA,NA,NA
SUPAMT75604,34QN5IT0T5QW1WZMD19TJEYYDOF80Q,AFE90992-58D0-4D01-BC43-F40F2C939205,2023-09-27_13h23.27.751,WP_VExplicitOC_HL,2022.2.5,Win32,7.979954355,NA,NA,NA,NA,NA,NA,NA,NA,NA,NA,NA,NA,NA,NA,NA,NA,NA,NA,NA,NA,make a drink,NA,NA,NA,NA,NA,NA,NA,NA,NA,NA,NA,NA,NA,NA,NA,NA,NA,NA,NA,NA,NA,NA,NA,NA,NA,NA,NA,NA,NA,NA,NA,NA,NA,NA,NA,NA,NA,NA
SUPAMT75604,34QN5IT0T5QW1WZMD19TJEYYDOF80Q,AFE90992-58D0-4D01-BC43-F40F2C939205,2023-09-27_13h23.27.751,WP_VExplicitOC_HL,2022.2.5,Win32,7.979954355,NA,NA,2.0785,NA,NA,NA,NA,NA,bored,"bored, not bored","more bored, less bored",NA,NA,NA,NA,NA,NA,NA,NA,NA,NA,0,0,0,2,1,NA,NA,NA,NA,NA,NA,NA,NA,NA,NA,NA,NA,NA,NA,NA,NA,NA,NA,NA,NA,NA,NA,NA,NA,NA,NA,NA,NA,NA,NA,NA,NA,NA
SUPAMT75604,34QN5IT0T5QW1WZMD19TJEYYDOF80Q,AFE90992-58D0-4D01-BC43-F40F2C939205,2023-09-27_13h23.27.751,WP_VExplicitOC_HL,2022.2.5,Win32,7.979954355,NA,NA,2.1681,NA,NA,NA,NA,NA,happy,"unhappy, happy","less happy, more happy",NA,NA,NA,NA,NA,NA,NA,NA,NA,NA,0,1,1,0,1,NA,NA,NA,NA,NA,NA,NA,NA,NA,NA,NA,NA,NA,NA,NA,NA,NA,NA,NA,NA,NA,NA,NA,NA,NA,NA,NA,NA,NA,NA,NA,NA,NA
SUPAMT75604,34QN5IT0T5QW1WZMD19TJEYYDOF80Q,AFE90992-58D0-4D01-BC43-F40F2C939205,2023-09-27_13h23.27.751,WP_VExplicitOC_HL,2022.2.5,Win32,7.979954355,NA,NA,2.1179,NA,NA,NA,NA,NA,frustrated,"frustrated, not frustrated","more frustrated, less frustrated",NA,NA,NA,NA,NA,NA,NA,NA,NA,NA,0,2,2,1,1,NA,NA,NA,NA,NA,NA,NA,NA,NA,NA,NA,NA,NA,NA,NA,NA,NA,NA,NA,NA,NA,NA,NA,NA,NA,NA,NA,NA,NA,NA,NA,NA,NA
SUPAMT75604,34QN5IT0T5QW1WZMD19TJEYYDOF80Q,AFE90992-58D0-4D01-BC43-F40F2C939205,2023-09-27_13h23.27.751,WP_VExplicitOC_HL,2022.2.5,Win32,7.979954355,NA,NA,NA,NA,NA,NA,NA,NA,NA,NA,NA,NA,NA,NA,NA,NA,NA,NA,NA,NA,NA,NA,NA,NA,NA,NA,NA,NA,NA,NA,NA,NA,NA,NA,NA,NA,NA,NA,NA,NA,NA,NA,NA,NA,NA,NA,NA,NA,NA,NA,NA,NA,NA,NA,NA,NA,NA,NA,NA
SUPAMT75604,34QN5IT0T5QW1WZMD19TJEYYDOF80Q,AFE90992-58D0-4D01-BC43-F40F2C939205,2023-09-27_13h23.27.751,WP_VExplicitOC_HL,2022.2.5,Win32,7.979954355,NA,NA,NA,NA,NA,NA,NA,NA,NA,NA,NA,NA,NA,NA,NA,NA,NA,NA,NA,NA,NA,NA,NA,NA,NA,NA,NA,NA,NA,NA,NA,NA,NA,NA,NA,NA,NA,NA,NA,NA,NA,NA,NA,NA,NA,NA,NA,NA,NA,NA,NA,NA,NA,NA,NA,NA,NA,NA,NA
SUPAMT75604,34QN5IT0T5QW1WZMD19TJEYYDOF80Q,AFE90992-58D0-4D01-BC43-F40F2C939205,2023-09-27_13h23.27.751,WP_VExplicitOC_HL,2022.2.5,Win32,7.979954355,66.40625,4.7758,2.1634,NA,NA,NA,NA,NA,happy,"unhappy, happy","less happy, more happy",NA,NA,NA,NA,NA,NA,NA,NA,NA,NA,NA,NA,NA,NA,NA,0,0,0,0,1,NA,NA,NA,NA,NA,NA,NA,NA,NA,NA,NA,NA,NA,NA,NA,NA,NA,NA,NA,NA,NA,NA,NA,NA,NA,NA,NA,NA
SUPAMT75604,34QN5IT0T5QW1WZMD19TJEYYDOF80Q,AFE90992-58D0-4D01-BC43-F40F2C939205,2023-09-27_13h23.27.751,WP_VExplicitOC_HL,2022.2.5,Win32,7.979954355,60.67708333,4.3375,2.0985,NA,NA,NA,NA,NA,frustrated,"frustrated, not frustrated","more frustrated, less frustrated",NA,NA,NA,NA,NA,NA,NA,NA,NA,NA,NA,NA,NA,NA,NA,0,1,1,1,1,NA,NA,NA,NA,NA,NA,NA,NA,NA,NA,NA,NA,NA,NA,NA,NA,NA,NA,NA,NA,NA,NA,NA,NA,NA,NA,NA,NA
SUPAMT75604,34QN5IT0T5QW1WZMD19TJEYYDOF80Q,AFE90992-58D0-4D01-BC43-F40F2C939205,2023-09-27_13h23.27.751,WP_VExplicitOC_HL,2022.2.5,Win32,7.979954355,-67.44791667,5.2956,2.041,NA,NA,NA,NA,NA,bored,"bored, not bored","more bored, less bored",NA,NA,NA,NA,NA,NA,NA,NA,NA,NA,NA,NA,NA,NA,NA,0,2,2,2,1,NA,NA,NA,NA,NA,NA,NA,NA,NA,NA,NA,NA,NA,NA,NA,NA,NA,NA,NA,NA,NA,NA,NA,NA,NA,NA,NA,NA
SUPAMT75604,34QN5IT0T5QW1WZMD19TJEYYDOF80Q,AFE90992-58D0-4D01-BC43-F40F2C939205,2023-09-27_13h23.27.751,WP_VExplicitOC_HL,2022.2.5,Win32,7.979954355,NA,NA,NA,NA,NA,NA,NA,NA,NA,NA,NA,NA,NA,NA,NA,NA,NA,NA,NA,NA,NA,NA,NA,NA,NA,NA,NA,NA,NA,NA,NA,0,0,0,0,1,NA,NA,NA,NA,NA,NA,NA,NA,NA,NA,NA,NA,NA,NA,NA,NA,NA,NA,NA,NA,NA,NA,NA
SUPAMT75604,34QN5IT0T5QW1WZMD19TJEYYDOF80Q,AFE90992-58D0-4D01-BC43-F40F2C939205,2023-09-27_13h23.27.751,WP_VExplicitOC_HL,2022.2.5,Win32,7.979954355,61.97916667,4.9223,2.04,NA,NA,NA,NA,NA,happy,"unhappy, happy","less happy, more happy",NA,NA,NA,NA,NA,NA,NA,NA,NA,NA,NA,NA,NA,NA,NA,0,0,0,0,1,NA,NA,NA,NA,NA,NA,NA,NA,NA,NA,NA,NA,NA,NA,NA,NA,NA,NA,NA,NA,NA,NA,NA,NA,NA,NA,NA,NA
SUPAMT75604,34QN5IT0T5QW1WZMD19TJEYYDOF80Q,AFE90992-58D0-4D01-BC43-F40F2C939205,2023-09-27_13h23.27.751,WP_VExplicitOC_HL,2022.2.5,Win32,7.979954355,-78.125,3.6507,2.0694,NA,NA,NA,NA,NA,frustrated,"frustrated, not frustrated","more frustrated, less frustrated",NA,NA,NA,NA,NA,NA,NA,NA,NA,NA,NA,NA,NA,NA,NA,0,1,1,1,1,NA,NA,NA,NA,NA,NA,NA,NA,NA,NA,NA,NA,NA,NA,NA,NA,NA,NA,NA,NA,NA,NA,NA,NA,NA,NA,NA,NA
SUPAMT75604,34QN5IT0T5QW1WZMD19TJEYYDOF80Q,AFE90992-58D0-4D01-BC43-F40F2C939205,2023-09-27_13h23.27.751,WP_VExplicitOC_HL,2022.2.5,Win32,7.979954355,NA,NA,2.0951,NA,NA,NA,NA,NA,bored,"bored, not bored","more bored, less bored",NA,NA,NA,NA,NA,NA,NA,NA,NA,NA,NA,NA,NA,NA,NA,0,2,2,2,1,NA,NA,NA,NA,NA,NA,NA,NA,NA,NA,NA,NA,NA,NA,NA,NA,NA,NA,NA,NA,NA,NA,NA,NA,NA,NA,NA,NA
SUPAMT75604,34QN5IT0T5QW1WZMD19TJEYYDOF80Q,AFE90992-58D0-4D01-BC43-F40F2C939205,2023-09-27_13h23.27.751,WP_VExplicitOC_HL,2022.2.5,Win32,7.979954355,NA,NA,NA,NA,NA,NA,NA,NA,NA,NA,NA,NA,NA,NA,NA,NA,NA,NA,NA,NA,NA,NA,NA,NA,NA,NA,NA,NA,NA,NA,NA,1,0,1,0,1,NA,NA,NA,NA,NA,NA,NA,NA,NA,NA,NA,NA,NA,NA,NA,NA,NA,NA,NA,NA,NA,NA,NA
SUPAMT75604,34QN5IT0T5QW1WZMD19TJEYYDOF80Q,AFE90992-58D0-4D01-BC43-F40F2C939205,2023-09-27_13h23.27.751,WP_VExplicitOC_HL,2022.2.5,Win32,7.979954355,NA,NA,2.1482,NA,NA,NA,NA,NA,bored,"bored, not bored","more bored, less bored",NA,NA,NA,NA,NA,NA,NA,NA,NA,NA,NA,NA,NA,NA,NA,0,0,0,2,1,NA,NA,NA,NA,NA,NA,NA,NA,NA,NA,NA,NA,NA,NA,NA,NA,NA,NA,NA,NA,NA,NA,NA,NA,NA,NA,NA,NA
SUPAMT75604,34QN5IT0T5QW1WZMD19TJEYYDOF80Q,AFE90992-58D0-4D01-BC43-F40F2C939205,2023-09-27_13h23.27.751,WP_VExplicitOC_HL,2022.2.5,Win32,7.979954355,NA,NA,2.076,NA,NA,NA,NA,NA,frustrated,"frustrated, not frustrated","more frustrated, less frustrated",NA,NA,NA,NA,NA,NA,NA,NA,NA,NA,NA,NA,NA,NA,NA,0,1,1,1,1,NA,NA,NA,NA,NA,NA,NA,NA,NA,NA,NA,NA,NA,NA,NA,NA,NA,NA,NA,NA,NA,NA,NA,NA,NA,NA,NA,NA
SUPAMT75604,34QN5IT0T5QW1WZMD19TJEYYDOF80Q,AFE90992-58D0-4D01-BC43-F40F2C939205,2023-09-27_13h23.27.751,WP_VExplicitOC_HL,2022.2.5,Win32,7.979954355,NA,NA,2.0607,NA,NA,NA,NA,NA,happy,"unhappy, happy","less happy, more happy",NA,NA,NA,NA,NA,NA,NA,NA,NA,NA,NA,NA,NA,NA,NA,0,2,2,0,1,NA,NA,NA,NA,NA,NA,NA,NA,NA,NA,NA,NA,NA,NA,NA,NA,NA,NA,NA,NA,NA,NA,NA,NA,NA,NA,NA,NA
SUPAMT75604,34QN5IT0T5QW1WZMD19TJEYYDOF80Q,AFE90992-58D0-4D01-BC43-F40F2C939205,2023-09-27_13h23.27.751,WP_VExplicitOC_HL,2022.2.5,Win32,7.979954355,NA,NA,NA,NA,NA,NA,NA,NA,NA,NA,NA,NA,NA,NA,NA,NA,NA,NA,NA,NA,NA,NA,NA,NA,NA,NA,NA,NA,NA,NA,NA,2,0,2,0,1,NA,NA,NA,NA,NA,NA,NA,NA,NA,NA,NA,NA,NA,NA,NA,NA,NA,NA,NA,NA,NA,NA,NA
SUPAMT75604,34QN5IT0T5QW1WZMD19TJEYYDOF80Q,AFE90992-58D0-4D01-BC43-F40F2C939205,2023-09-27_13h23.27.751,WP_VExplicitOC_HL,2022.2.5,Win32,7.979954355,74.47916667,3.769,2.0699,NA,NA,NA,NA,NA,happy,"unhappy, happy","less happy, more happy",NA,NA,NA,NA,NA,NA,NA,NA,NA,NA,NA,NA,NA,NA,NA,0,0,0,0,1,NA,NA,NA,NA,NA,NA,NA,NA,NA,NA,NA,NA,NA,NA,NA,NA,NA,NA,NA,NA,NA,NA,NA,NA,NA,NA,NA,NA
SUPAMT75604,34QN5IT0T5QW1WZMD19TJEYYDOF80Q,AFE90992-58D0-4D01-BC43-F40F2C939205,2023-09-27_13h23.27.751,WP_VExplicitOC_HL,2022.2.5,Win32,7.979954355,-61.71875,4.1066,2.0442,NA,NA,NA,NA,NA,frustrated,"frustrated, not frustrated","more frustrated, less frustrated",NA,NA,NA,NA,NA,NA,NA,NA,NA,NA,NA,NA,NA,NA,NA,0,1,1,1,1,NA,NA,NA,NA,NA,NA,NA,NA,NA,NA,NA,NA,NA,NA,NA,NA,NA,NA,NA,NA,NA,NA,NA,NA,NA,NA,NA,NA
SUPAMT75604,34QN5IT0T5QW1WZMD19TJEYYDOF80Q,AFE90992-58D0-4D01-BC43-F40F2C939205,2023-09-27_13h23.27.751,WP_VExplicitOC_HL,2022.2.5,Win32,7.979954355,-69.53125,4.0373,2.1089,NA,NA,NA,NA,NA,bored,"bored, not bored","more bored, less bored",NA,NA,NA,NA,NA,NA,NA,NA,NA,NA,NA,NA,NA,NA,NA,0,2,2,2,1,NA,NA,NA,NA,NA,NA,NA,NA,NA,NA,NA,NA,NA,NA,NA,NA,NA,NA,NA,NA,NA,NA,NA,NA,NA,NA,NA,NA
SUPAMT75604,34QN5IT0T5QW1WZMD19TJEYYDOF80Q,AFE90992-58D0-4D01-BC43-F40F2C939205,2023-09-27_13h23.27.751,WP_VExplicitOC_HL,2022.2.5,Win32,7.979954355,NA,NA,NA,NA,NA,NA,NA,NA,NA,NA,NA,NA,NA,NA,NA,NA,NA,NA,NA,NA,NA,NA,NA,NA,NA,NA,NA,NA,NA,NA,NA,3,0,3,0,1,NA,NA,NA,NA,NA,NA,NA,NA,NA,NA,NA,NA,NA,NA,NA,NA,NA,NA,NA,NA,NA,NA,NA
SUPAMT75604,34QN5IT0T5QW1WZMD19TJEYYDOF80Q,AFE90992-58D0-4D01-BC43-F40F2C939205,2023-09-27_13h23.27.751,WP_VExplicitOC_HL,2022.2.5,Win32,7.979954355,-93.22916667,5.2888,2.0618,NA,NA,NA,NA,NA,bored,"bored, not bored","more bored, less bored",NA,NA,NA,NA,NA,NA,NA,NA,NA,NA,NA,NA,NA,NA,NA,0,0,0,2,1,NA,NA,NA,NA,NA,NA,NA,NA,NA,NA,NA,NA,NA,NA,NA,NA,NA,NA,NA,NA,NA,NA,NA,NA,NA,NA,NA,NA
SUPAMT75604,34QN5IT0T5QW1WZMD19TJEYYDOF80Q,AFE90992-58D0-4D01-BC43-F40F2C939205,2023-09-27_13h23.27.751,WP_VExplicitOC_HL,2022.2.5,Win32,7.979954355,65.625,4.127,2.1437,NA,NA,NA,NA,NA,frustrated,"frustrated, not frustrated","more frustrated, less frustrated",NA,NA,NA,NA,NA,NA,NA,NA,NA,NA,NA,NA,NA,NA,NA,0,1,1,1,1,NA,NA,NA,NA,NA,NA,NA,NA,NA,NA,NA,NA,NA,NA,NA,NA,NA,NA,NA,NA,NA,NA,NA,NA,NA,NA,NA,NA
SUPAMT75604,34QN5IT0T5QW1WZMD19TJEYYDOF80Q,AFE90992-58D0-4D01-BC43-F40F2C939205,2023-09-27_13h23.27.751,WP_VExplicitOC_HL,2022.2.5,Win32,7.979954355,59.375,3.7825,2.1134,NA,NA,NA,NA,NA,happy,"unhappy, happy","less happy, more happy",NA,NA,NA,NA,NA,NA,NA,NA,NA,NA,NA,NA,NA,NA,NA,0,2,2,0,1,NA,NA,NA,NA,NA,NA,NA,NA,NA,NA,NA,NA,NA,NA,NA,NA,NA,NA,NA,NA,NA,NA,NA,NA,NA,NA,NA,NA
SUPAMT75604,34QN5IT0T5QW1WZMD19TJEYYDOF80Q,AFE90992-58D0-4D01-BC43-F40F2C939205,2023-09-27_13h23.27.751,WP_VExplicitOC_HL,2022.2.5,Win32,7.979954355,NA,NA,NA,NA,NA,NA,NA,NA,NA,NA,NA,NA,NA,NA,NA,NA,NA,NA,NA,NA,NA,NA,NA,NA,NA,NA,NA,NA,NA,NA,NA,4,0,4,0,1,NA,NA,NA,NA,NA,NA,NA,NA,NA,NA,NA,NA,NA,NA,NA,NA,NA,NA,NA,NA,NA,NA,NA
SUPAMT75604,34QN5IT0T5QW1WZMD19TJEYYDOF80Q,AFE90992-58D0-4D01-BC43-F40F2C939205,2023-09-27_13h23.27.751,WP_VExplicitOC_HL,2022.2.5,Win32,7.979954355,61.71875,3.7965,2.0047,NA,NA,NA,NA,NA,happy,"unhappy, happy","less happy, more happy",NA,NA,NA,NA,NA,NA,NA,NA,NA,NA,NA,NA,NA,NA,NA,0,0,0,0,1,NA,NA,NA,NA,NA,NA,NA,NA,NA,NA,NA,NA,NA,NA,NA,NA,NA,NA,NA,NA,NA,NA,NA,NA,NA,NA,NA,NA
SUPAMT75604,34QN5IT0T5QW1WZMD19TJEYYDOF80Q,AFE90992-58D0-4D01-BC43-F40F2C939205,2023-09-27_13h23.27.751,WP_VExplicitOC_HL,2022.2.5,Win32,7.979954355,-51.04166667,4.0893,2.045,NA,NA,NA,NA,NA,bored,"bored, not bored","more bored, less bored",NA,NA,NA,NA,NA,NA,NA,NA,NA,NA,NA,NA,NA,NA,NA,0,1,1,2,1,NA,NA,NA,NA,NA,NA,NA,NA,NA,NA,NA,NA,NA,NA,NA,NA,NA,NA,NA,NA,NA,NA,NA,NA,NA,NA,NA,NA
SUPAMT75604,34QN5IT0T5QW1WZMD19TJEYYDOF80Q,AFE90992-58D0-4D01-BC43-F40F2C939205,2023-09-27_13h23.27.751,WP_VExplicitOC_HL,2022.2.5,Win32,7.979954355,-47.13541667,3.8911,2.0188,NA,NA,NA,NA,NA,frustrated,"frustrated, not frustrated","more frustrated, less frustrated",NA,NA,NA,NA,NA,NA,NA,NA,NA,NA,NA,NA,NA,NA,NA,0,2,2,1,1,NA,NA,NA,NA,NA,NA,NA,NA,NA,NA,NA,NA,NA,NA,NA,NA,NA,NA,NA,NA,NA,NA,NA,NA,NA,NA,NA,NA
SUPAMT75604,34QN5IT0T5QW1WZMD19TJEYYDOF80Q,AFE90992-58D0-4D01-BC43-F40F2C939205,2023-09-27_13h23.27.751,WP_VExplicitOC_HL,2022.2.5,Win32,7.979954355,NA,NA,NA,NA,NA,NA,NA,NA,NA,NA,NA,NA,NA,NA,NA,NA,NA,NA,NA,NA,NA,NA,NA,NA,NA,NA,NA,NA,NA,NA,NA,5,0,5,0,1,NA,NA,NA,NA,NA,NA,NA,NA,NA,NA,NA,NA,NA,NA,NA,NA,NA,NA,NA,NA,NA,NA,NA
SUPAMT75604,34QN5IT0T5QW1WZMD19TJEYYDOF80Q,AFE90992-58D0-4D01-BC43-F40F2C939205,2023-09-27_13h23.27.751,WP_VExplicitOC_HL,2022.2.5,Win32,7.979954355,66.14583333,4.6211,2.132,NA,NA,NA,NA,NA,happy,"unhappy, happy","less happy, more happy",NA,NA,NA,NA,NA,NA,NA,NA,NA,NA,NA,NA,NA,NA,NA,0,0,0,0,1,NA,NA,NA,NA,NA,NA,NA,NA,NA,NA,NA,NA,NA,NA,NA,NA,NA,NA,NA,NA,NA,NA,NA,NA,NA,NA,NA,NA
SUPAMT75604,34QN5IT0T5QW1WZMD19TJEYYDOF80Q,AFE90992-58D0-4D01-BC43-F40F2C939205,2023-09-27_13h23.27.751,WP_VExplicitOC_HL,2022.2.5,Win32,7.979954355,-66.40625,4.1199,2.1081,NA,NA,NA,NA,NA,frustrated,"frustrated, not frustrated","more frustrated, less frustrated",NA,NA,NA,NA,NA,NA,NA,NA,NA,NA,NA,NA,NA,NA,NA,0,1,1,1,1,NA,NA,NA,NA,NA,NA,NA,NA,NA,NA,NA,NA,NA,NA,NA,NA,NA,NA,NA,NA,NA,NA,NA,NA,NA,NA,NA,NA
SUPAMT75604,34QN5IT0T5QW1WZMD19TJEYYDOF80Q,AFE90992-58D0-4D01-BC43-F40F2C939205,2023-09-27_13h23.27.751,WP_VExplicitOC_HL,2022.2.5,Win32,7.979954355,-47.65625,4.2942,2.0458,NA,NA,NA,NA,NA,bored,"bored, not bored","more bored, less bored",NA,NA,NA,NA,NA,NA,NA,NA,NA,NA,NA,NA,NA,NA,NA,0,2,2,2,1,NA,NA,NA,NA,NA,NA,NA,NA,NA,NA,NA,NA,NA,NA,NA,NA,NA,NA,NA,NA,NA,NA,NA,NA,NA,NA,NA,NA
SUPAMT75604,34QN5IT0T5QW1WZMD19TJEYYDOF80Q,AFE90992-58D0-4D01-BC43-F40F2C939205,2023-09-27_13h23.27.751,WP_VExplicitOC_HL,2022.2.5,Win32,7.979954355,NA,NA,NA,NA,NA,NA,NA,NA,NA,NA,NA,NA,NA,NA,NA,NA,NA,NA,NA,NA,NA,NA,NA,NA,NA,NA,NA,NA,NA,NA,NA,6,0,6,0,1,NA,NA,NA,NA,NA,NA,NA,NA,NA,NA,NA,NA,NA,NA,NA,NA,NA,NA,NA,NA,NA,NA,NA
SUPAMT75604,34QN5IT0T5QW1WZMD19TJEYYDOF80Q,AFE90992-58D0-4D01-BC43-F40F2C939205,2023-09-27_13h23.27.751,WP_VExplicitOC_HL,2022.2.5,Win32,7.979954355,71.875,4.0198,2.0889,NA,NA,NA,NA,NA,happy,"unhappy, happy","less happy, more happy",NA,NA,NA,NA,NA,NA,NA,NA,NA,NA,NA,NA,NA,NA,NA,0,0,0,0,1,NA,NA,NA,NA,NA,NA,NA,NA,NA,NA,NA,NA,NA,NA,NA,NA,NA,NA,NA,NA,NA,NA,NA,NA,NA,NA,NA,NA
SUPAMT75604,34QN5IT0T5QW1WZMD19TJEYYDOF80Q,AFE90992-58D0-4D01-BC43-F40F2C939205,2023-09-27_13h23.27.751,WP_VExplicitOC_HL,2022.2.5,Win32,7.979954355,-63.02083333,3.6839,2.0043,NA,NA,NA,NA,NA,frustrated,"frustrated, not frustrated","more frustrated, less frustrated",NA,NA,NA,NA,NA,NA,NA,NA,NA,NA,NA,NA,NA,NA,NA,0,1,1,1,1,NA,NA,NA,NA,NA,NA,NA,NA,NA,NA,NA,NA,NA,NA,NA,NA,NA,NA,NA,NA,NA,NA,NA,NA,NA,NA,NA,NA
SUPAMT75604,34QN5IT0T5QW1WZMD19TJEYYDOF80Q,AFE90992-58D0-4D01-BC43-F40F2C939205,2023-09-27_13h23.27.751,WP_VExplicitOC_HL,2022.2.5,Win32,7.979954355,-61.97916667,3.8841,2.059,NA,NA,NA,NA,NA,bored,"bored, not bored","more bored, less bored",NA,NA,NA,NA,NA,NA,NA,NA,NA,NA,NA,NA,NA,NA,NA,0,2,2,2,1,NA,NA,NA,NA,NA,NA,NA,NA,NA,NA,NA,NA,NA,NA,NA,NA,NA,NA,NA,NA,NA,NA,NA,NA,NA,NA,NA,NA
SUPAMT75604,34QN5IT0T5QW1WZMD19TJEYYDOF80Q,AFE90992-58D0-4D01-BC43-F40F2C939205,2023-09-27_13h23.27.751,WP_VExplicitOC_HL,2022.2.5,Win32,7.979954355,NA,NA,NA,NA,NA,NA,NA,NA,NA,NA,NA,NA,NA,NA,NA,NA,NA,NA,NA,NA,NA,NA,NA,NA,NA,NA,NA,NA,NA,NA,NA,7,0,7,0,1,NA,NA,NA,NA,NA,NA,NA,NA,NA,NA,NA,NA,NA,NA,NA,NA,NA,NA,NA,NA,NA,NA,NA
SUPAMT75604,34QN5IT0T5QW1WZMD19TJEYYDOF80Q,AFE90992-58D0-4D01-BC43-F40F2C939205,2023-09-27_13h23.27.751,WP_VExplicitOC_HL,2022.2.5,Win32,7.979954355,67.70833333,4.0616,2.0001,NA,NA,NA,NA,NA,happy,"unhappy, happy","less happy, more happy",NA,NA,NA,NA,NA,NA,NA,NA,NA,NA,NA,NA,NA,NA,NA,0,0,0,0,1,NA,NA,NA,NA,NA,NA,NA,NA,NA,NA,NA,NA,NA,NA,NA,NA,NA,NA,NA,NA,NA,NA,NA,NA,NA,NA,NA,NA
SUPAMT75604,34QN5IT0T5QW1WZMD19TJEYYDOF80Q,AFE90992-58D0-4D01-BC43-F40F2C939205,2023-09-27_13h23.27.751,WP_VExplicitOC_HL,2022.2.5,Win32,7.979954355,-72.39583333,3.9082,2.0731,NA,NA,NA,NA,NA,bored,"bored, not bored","more bored, less bored",NA,NA,NA,NA,NA,NA,NA,NA,NA,NA,NA,NA,NA,NA,NA,0,1,1,2,1,NA,NA,NA,NA,NA,NA,NA,NA,NA,NA,NA,NA,NA,NA,NA,NA,NA,NA,NA,NA,NA,NA,NA,NA,NA,NA,NA,NA
SUPAMT75604,34QN5IT0T5QW1WZMD19TJEYYDOF80Q,AFE90992-58D0-4D01-BC43-F40F2C939205,2023-09-27_13h23.27.751,WP_VExplicitOC_HL,2022.2.5,Win32,7.979954355,-55.72916667,4.2972,2.0288,NA,NA,NA,NA,NA,frustrated,"frustrated, not frustrated","more frustrated, less frustrated",NA,NA,NA,NA,NA,NA,NA,NA,NA,NA,NA,NA,NA,NA,NA,0,2,2,1,1,NA,NA,NA,NA,NA,NA,NA,NA,NA,NA,NA,NA,NA,NA,NA,NA,NA,NA,NA,NA,NA,NA,NA,NA,NA,NA,NA,NA
SUPAMT75604,34QN5IT0T5QW1WZMD19TJEYYDOF80Q,AFE90992-58D0-4D01-BC43-F40F2C939205,2023-09-27_13h23.27.751,WP_VExplicitOC_HL,2022.2.5,Win32,7.979954355,NA,NA,NA,NA,NA,NA,NA,NA,NA,NA,NA,NA,NA,NA,NA,NA,NA,NA,NA,NA,NA,NA,NA,NA,NA,NA,NA,NA,NA,NA,NA,8,0,8,0,1,NA,NA,NA,NA,NA,NA,NA,NA,NA,NA,NA,NA,NA,NA,NA,NA,NA,NA,NA,NA,NA,NA,NA
SUPAMT75604,34QN5IT0T5QW1WZMD19TJEYYDOF80Q,AFE90992-58D0-4D01-BC43-F40F2C939205,2023-09-27_13h23.27.751,WP_VExplicitOC_HL,2022.2.5,Win32,7.979954355,69.53125,4.338,2.1156,NA,NA,NA,NA,NA,happy,"unhappy, happy","less happy, more happy",NA,NA,NA,NA,NA,NA,NA,NA,NA,NA,NA,NA,NA,NA,NA,0,0,0,0,1,NA,NA,NA,NA,NA,NA,NA,NA,NA,NA,NA,NA,NA,NA,NA,NA,NA,NA,NA,NA,NA,NA,NA,NA,NA,NA,NA,NA
SUPAMT75604,34QN5IT0T5QW1WZMD19TJEYYDOF80Q,AFE90992-58D0-4D01-BC43-F40F2C939205,2023-09-27_13h23.27.751,WP_VExplicitOC_HL,2022.2.5,Win32,7.979954355,-63.02083333,4.2395,2.06,NA,NA,NA,NA,NA,frustrated,"frustrated, not frustrated","more frustrated, less frustrated",NA,NA,NA,NA,NA,NA,NA,NA,NA,NA,NA,NA,NA,NA,NA,0,1,1,1,1,NA,NA,NA,NA,NA,NA,NA,NA,NA,NA,NA,NA,NA,NA,NA,NA,NA,NA,NA,NA,NA,NA,NA,NA,NA,NA,NA,NA
SUPAMT75604,34QN5IT0T5QW1WZMD19TJEYYDOF80Q,AFE90992-58D0-4D01-BC43-F40F2C939205,2023-09-27_13h23.27.751,WP_VExplicitOC_HL,2022.2.5,Win32,7.979954355,-51.30208333,4.2371,2.0853,NA,NA,NA,NA,NA,bored,"bored, not bored","more bored, less bored",NA,NA,NA,NA,NA,NA,NA,NA,NA,NA,NA,NA,NA,NA,NA,0,2,2,2,1,NA,NA,NA,NA,NA,NA,NA,NA,NA,NA,NA,NA,NA,NA,NA,NA,NA,NA,NA,NA,NA,NA,NA,NA,NA,NA,NA,NA
SUPAMT75604,34QN5IT0T5QW1WZMD19TJEYYDOF80Q,AFE90992-58D0-4D01-BC43-F40F2C939205,2023-09-27_13h23.27.751,WP_VExplicitOC_HL,2022.2.5,Win32,7.979954355,NA,NA,NA,NA,NA,NA,NA,NA,NA,NA,NA,NA,NA,NA,NA,NA,NA,NA,NA,NA,NA,NA,NA,NA,NA,NA,NA,NA,NA,NA,NA,9,0,9,0,1,NA,NA,NA,NA,NA,NA,NA,NA,NA,NA,NA,NA,NA,NA,NA,NA,NA,NA,NA,NA,NA,NA,NA
SUPAMT75604,34QN5IT0T5QW1WZMD19TJEYYDOF80Q,AFE90992-58D0-4D01-BC43-F40F2C939205,2023-09-27_13h23.27.751,WP_VExplicitOC_HL,2022.2.5,Win32,7.979954355,-46.09375,4.1676,2.0136,NA,NA,NA,NA,NA,bored,"bored, not bored","more bored, less bored",NA,NA,NA,NA,NA,NA,NA,NA,NA,NA,NA,NA,NA,NA,NA,0,0,0,2,1,NA,NA,NA,NA,NA,NA,NA,NA,NA,NA,NA,NA,NA,NA,NA,NA,NA,NA,NA,NA,NA,NA,NA,NA,NA,NA,NA,NA
SUPAMT75604,34QN5IT0T5QW1WZMD19TJEYYDOF80Q,AFE90992-58D0-4D01-BC43-F40F2C939205,2023-09-27_13h23.27.751,WP_VExplicitOC_HL,2022.2.5,Win32,7.979954355,63.28125,4.1179,2.0674,NA,NA,NA,NA,NA,happy,"unhappy, happy","less happy, more happy",NA,NA,NA,NA,NA,NA,NA,NA,NA,NA,NA,NA,NA,NA,NA,0,1,1,0,1,NA,NA,NA,NA,NA,NA,NA,NA,NA,NA,NA,NA,NA,NA,NA,NA,NA,NA,NA,NA,NA,NA,NA,NA,NA,NA,NA,NA
SUPAMT75604,34QN5IT0T5QW1WZMD19TJEYYDOF80Q,AFE90992-58D0-4D01-BC43-F40F2C939205,2023-09-27_13h23.27.751,WP_VExplicitOC_HL,2022.2.5,Win32,7.979954355,-64.58333333,4.1457,2.1264,NA,NA,NA,NA,NA,frustrated,"frustrated, not frustrated","more frustrated, less frustrated",NA,NA,NA,NA,NA,NA,NA,NA,NA,NA,NA,NA,NA,NA,NA,0,2,2,1,1,NA,NA,NA,NA,NA,NA,NA,NA,NA,NA,NA,NA,NA,NA,NA,NA,NA,NA,NA,NA,NA,NA,NA,NA,NA,NA,NA,NA
SUPAMT75604,34QN5IT0T5QW1WZMD19TJEYYDOF80Q,AFE90992-58D0-4D01-BC43-F40F2C939205,2023-09-27_13h23.27.751,WP_VExplicitOC_HL,2022.2.5,Win32,7.979954355,NA,NA,NA,NA,NA,NA,NA,NA,NA,NA,NA,NA,NA,NA,NA,NA,NA,NA,NA,NA,NA,NA,NA,NA,NA,NA,NA,NA,NA,NA,NA,10,0,10,0,1,NA,NA,NA,NA,NA,NA,NA,NA,NA,NA,NA,NA,NA,NA,NA,NA,NA,NA,NA,NA,NA,NA,NA
SUPAMT75604,34QN5IT0T5QW1WZMD19TJEYYDOF80Q,AFE90992-58D0-4D01-BC43-F40F2C939205,2023-09-27_13h23.27.751,WP_VExplicitOC_HL,2022.2.5,Win32,7.979954355,-49.47916667,4.6557,2.0768,NA,NA,NA,NA,NA,bored,"bored, not bored","more bored, less bored",NA,NA,NA,NA,NA,NA,NA,NA,NA,NA,NA,NA,NA,NA,NA,0,0,0,2,1,NA,NA,NA,NA,NA,NA,NA,NA,NA,NA,NA,NA,NA,NA,NA,NA,NA,NA,NA,NA,NA,NA,NA,NA,NA,NA,NA,NA
SUPAMT75604,34QN5IT0T5QW1WZMD19TJEYYDOF80Q,AFE90992-58D0-4D01-BC43-F40F2C939205,2023-09-27_13h23.27.751,WP_VExplicitOC_HL,2022.2.5,Win32,7.979954355,72.13541667,4.8923,2.0253,NA,NA,NA,NA,NA,happy,"unhappy, happy","less happy, more happy",NA,NA,NA,NA,NA,NA,NA,NA,NA,NA,NA,NA,NA,NA,NA,0,1,1,0,1,NA,NA,NA,NA,NA,NA,NA,NA,NA,NA,NA,NA,NA,NA,NA,NA,NA,NA,NA,NA,NA,NA,NA,NA,NA,NA,NA,NA
SUPAMT75604,34QN5IT0T5QW1WZMD19TJEYYDOF80Q,AFE90992-58D0-4D01-BC43-F40F2C939205,2023-09-27_13h23.27.751,WP_VExplicitOC_HL,2022.2.5,Win32,7.979954355,-60.15625,4.0381,2.0091,NA,NA,NA,NA,NA,frustrated,"frustrated, not frustrated","more frustrated, less frustrated",NA,NA,NA,NA,NA,NA,NA,NA,NA,NA,NA,NA,NA,NA,NA,0,2,2,1,1,NA,NA,NA,NA,NA,NA,NA,NA,NA,NA,NA,NA,NA,NA,NA,NA,NA,NA,NA,NA,NA,NA,NA,NA,NA,NA,NA,NA
SUPAMT75604,34QN5IT0T5QW1WZMD19TJEYYDOF80Q,AFE90992-58D0-4D01-BC43-F40F2C939205,2023-09-27_13h23.27.751,WP_VExplicitOC_HL,2022.2.5,Win32,7.979954355,NA,NA,NA,NA,NA,NA,NA,NA,NA,NA,NA,NA,NA,NA,NA,NA,NA,NA,NA,NA,NA,NA,NA,NA,NA,NA,NA,NA,NA,NA,NA,11,0,11,0,1,NA,NA,NA,NA,NA,NA,NA,NA,NA,NA,NA,NA,NA,NA,NA,NA,NA,NA,NA,NA,NA,NA,NA
SUPAMT75604,34QN5IT0T5QW1WZMD19TJEYYDOF80Q,AFE90992-58D0-4D01-BC43-F40F2C939205,2023-09-27_13h23.27.751,WP_VExplicitOC_HL,2022.2.5,Win32,7.979954355,-52.60416667,5.1404,2.0836,NA,NA,NA,NA,NA,bored,"bored, not bored","more bored, less bored",NA,NA,NA,NA,NA,NA,NA,NA,NA,NA,NA,NA,NA,NA,NA,0,0,0,2,1,NA,NA,NA,NA,NA,NA,NA,NA,NA,NA,NA,NA,NA,NA,NA,NA,NA,NA,NA,NA,NA,NA,NA,NA,NA,NA,NA,NA
SUPAMT75604,34QN5IT0T5QW1WZMD19TJEYYDOF80Q,AFE90992-58D0-4D01-BC43-F40F2C939205,2023-09-27_13h23.27.751,WP_VExplicitOC_HL,2022.2.5,Win32,7.979954355,65.36458333,4.0813,2.0094,NA,NA,NA,NA,NA,happy,"unhappy, happy","less happy, more happy",NA,NA,NA,NA,NA,NA,NA,NA,NA,NA,NA,NA,NA,NA,NA,0,1,1,0,1,NA,NA,NA,NA,NA,NA,NA,NA,NA,NA,NA,NA,NA,NA,NA,NA,NA,NA,NA,NA,NA,NA,NA,NA,NA,NA,NA,NA
SUPAMT75604,34QN5IT0T5QW1WZMD19TJEYYDOF80Q,AFE90992-58D0-4D01-BC43-F40F2C939205,2023-09-27_13h23.27.751,WP_VExplicitOC_HL,2022.2.5,Win32,7.979954355,-57.29166667,4.5969,2.0017,NA,NA,NA,NA,NA,frustrated,"frustrated, not frustrated","more frustrated, less frustrated",NA,NA,NA,NA,NA,NA,NA,NA,NA,NA,NA,NA,NA,NA,NA,0,2,2,1,1,NA,NA,NA,NA,NA,NA,NA,NA,NA,NA,NA,NA,NA,NA,NA,NA,NA,NA,NA,NA,NA,NA,NA,NA,NA,NA,NA,NA
SUPAMT75604,34QN5IT0T5QW1WZMD19TJEYYDOF80Q,AFE90992-58D0-4D01-BC43-F40F2C939205,2023-09-27_13h23.27.751,WP_VExplicitOC_HL,2022.2.5,Win32,7.979954355,NA,NA,NA,NA,NA,NA,NA,NA,NA,NA,NA,NA,NA,NA,NA,NA,NA,NA,NA,NA,NA,NA,NA,NA,NA,NA,NA,NA,NA,NA,NA,12,0,12,0,1,NA,NA,NA,NA,NA,NA,NA,NA,NA,NA,NA,NA,NA,NA,NA,NA,NA,NA,NA,NA,NA,NA,NA
SUPAMT75604,34QN5IT0T5QW1WZMD19TJEYYDOF80Q,AFE90992-58D0-4D01-BC43-F40F2C939205,2023-09-27_13h23.27.751,WP_VExplicitOC_HL,2022.2.5,Win32,7.979954355,NA,NA,2.0917,NA,NA,NA,NA,NA,frustrated,"frustrated, not frustrated","more frustrated, less frustrated",NA,NA,NA,NA,NA,NA,NA,NA,NA,NA,NA,NA,NA,NA,NA,0,0,0,1,1,NA,NA,NA,NA,NA,NA,NA,NA,NA,NA,NA,NA,NA,NA,NA,NA,NA,NA,NA,NA,NA,NA,NA,NA,NA,NA,NA,NA
SUPAMT75604,34QN5IT0T5QW1WZMD19TJEYYDOF80Q,AFE90992-58D0-4D01-BC43-F40F2C939205,2023-09-27_13h23.27.751,WP_VExplicitOC_HL,2022.2.5,Win32,7.979954355,70.05208333,7.4493,2.113,NA,NA,NA,NA,NA,happy,"unhappy, happy","less happy, more happy",NA,NA,NA,NA,NA,NA,NA,NA,NA,NA,NA,NA,NA,NA,NA,0,1,1,0,1,NA,NA,NA,NA,NA,NA,NA,NA,NA,NA,NA,NA,NA,NA,NA,NA,NA,NA,NA,NA,NA,NA,NA,NA,NA,NA,NA,NA
SUPAMT75604,34QN5IT0T5QW1WZMD19TJEYYDOF80Q,AFE90992-58D0-4D01-BC43-F40F2C939205,2023-09-27_13h23.27.751,WP_VExplicitOC_HL,2022.2.5,Win32,7.979954355,-60.9375,4.7209,2.0327,NA,NA,NA,NA,NA,bored,"bored, not bored","more bored, less bored",NA,NA,NA,NA,NA,NA,NA,NA,NA,NA,NA,NA,NA,NA,NA,0,2,2,2,1,NA,NA,NA,NA,NA,NA,NA,NA,NA,NA,NA,NA,NA,NA,NA,NA,NA,NA,NA,NA,NA,NA,NA,NA,NA,NA,NA,NA
SUPAMT75604,34QN5IT0T5QW1WZMD19TJEYYDOF80Q,AFE90992-58D0-4D01-BC43-F40F2C939205,2023-09-27_13h23.27.751,WP_VExplicitOC_HL,2022.2.5,Win32,7.979954355,NA,NA,NA,NA,NA,NA,NA,NA,NA,NA,NA,NA,NA,NA,NA,NA,NA,NA,NA,NA,NA,NA,NA,NA,NA,NA,NA,NA,NA,NA,NA,13,0,13,0,1,NA,NA,NA,NA,NA,NA,NA,NA,NA,NA,NA,NA,NA,NA,NA,NA,NA,NA,NA,NA,NA,NA,NA
SUPAMT75604,34QN5IT0T5QW1WZMD19TJEYYDOF80Q,AFE90992-58D0-4D01-BC43-F40F2C939205,2023-09-27_13h23.27.751,WP_VExplicitOC_HL,2022.2.5,Win32,7.979954355,72.39583333,4.4915,2.053,NA,NA,NA,NA,NA,happy,"unhappy, happy","less happy, more happy",NA,NA,NA,NA,NA,NA,NA,NA,NA,NA,NA,NA,NA,NA,NA,0,0,0,0,1,NA,NA,NA,NA,NA,NA,NA,NA,NA,NA,NA,NA,NA,NA,NA,NA,NA,NA,NA,NA,NA,NA,NA,NA,NA,NA,NA,NA
SUPAMT75604,34QN5IT0T5QW1WZMD19TJEYYDOF80Q,AFE90992-58D0-4D01-BC43-F40F2C939205,2023-09-27_13h23.27.751,WP_VExplicitOC_HL,2022.2.5,Win32,7.979954355,-68.22916667,4.0197,2.1188,NA,NA,NA,NA,NA,frustrated,"frustrated, not frustrated","more frustrated, less frustrated",NA,NA,NA,NA,NA,NA,NA,NA,NA,NA,NA,NA,NA,NA,NA,0,1,1,1,1,NA,NA,NA,NA,NA,NA,NA,NA,NA,NA,NA,NA,NA,NA,NA,NA,NA,NA,NA,NA,NA,NA,NA,NA,NA,NA,NA,NA
SUPAMT75604,34QN5IT0T5QW1WZMD19TJEYYDOF80Q,AFE90992-58D0-4D01-BC43-F40F2C939205,2023-09-27_13h23.27.751,WP_VExplicitOC_HL,2022.2.5,Win32,7.979954355,-65.36458333,4.109,2.0394,NA,NA,NA,NA,NA,bored,"bored, not bored","more bored, less bored",NA,NA,NA,NA,NA,NA,NA,NA,NA,NA,NA,NA,NA,NA,NA,0,2,2,2,1,NA,NA,NA,NA,NA,NA,NA,NA,NA,NA,NA,NA,NA,NA,NA,NA,NA,NA,NA,NA,NA,NA,NA,NA,NA,NA,NA,NA
SUPAMT75604,34QN5IT0T5QW1WZMD19TJEYYDOF80Q,AFE90992-58D0-4D01-BC43-F40F2C939205,2023-09-27_13h23.27.751,WP_VExplicitOC_HL,2022.2.5,Win32,7.979954355,NA,NA,NA,NA,NA,NA,NA,NA,NA,NA,NA,NA,NA,NA,NA,NA,NA,NA,NA,NA,NA,NA,NA,NA,NA,NA,NA,NA,NA,NA,NA,14,0,14,0,1,NA,NA,NA,NA,NA,NA,NA,NA,NA,NA,NA,NA,NA,NA,NA,NA,NA,NA,NA,NA,NA,NA,NA
SUPAMT75604,34QN5IT0T5QW1WZMD19TJEYYDOF80Q,AFE90992-58D0-4D01-BC43-F40F2C939205,2023-09-27_13h23.27.751,WP_VExplicitOC_HL,2022.2.5,Win32,7.979954355,NA,NA,NA,NA,NA,NA,NA,NA,NA,NA,NA,NA,NA,NA,NA,NA,NA,NA,NA,NA,NA,NA,NA,NA,NA,NA,NA,NA,NA,NA,NA,NA,NA,NA,NA,NA,NA,NA,NA,NA,NA,NA,NA,NA,NA,NA,NA,NA,NA,NA,NA,NA,NA,NA,NA,NA,NA,NA,NA
SUPAMT75604,34QN5IT0T5QW1WZMD19TJEYYDOF80Q,AFE90992-58D0-4D01-BC43-F40F2C939205,2023-09-27_13h23.27.751,WP_VExplicitOC_HL,2022.2.5,Win32,7.979954355,NA,NA,NA,NA,NA,NA,NA,NA,NA,NA,NA,NA,NA,NA,NA,NA,NA,NA,NA,NA,NA,NA,NA,NA,NA,NA,NA,NA,NA,NA,NA,NA,NA,NA,NA,NA,NA,NA,NA,NA,NA,NA,NA,NA,NA,NA,NA,NA,NA,NA,NA,NA,NA,NA,NA,NA,NA,NA,NA
SUPAMT75604,34QN5IT0T5QW1WZMD19TJEYYDOF80Q,AFE90992-58D0-4D01-BC43-F40F2C939205,2023-09-27_13h23.27.751,WP_VExplicitOC_HL,2022.2.5,Win32,7.979954355,NA,NA,NA,NA,NA,NA,NA,NA,NA,NA,NA,NA,NA,NA,NA,NA,NA,NA,rest (looking at a fixed cross),001.png,NA,NA,NA,NA,NA,NA,NA,NA,NA,NA,NA,NA,NA,NA,NA,NA,75.26041667,2.5042,0,0,0,0,1,NA,NA,NA,NA,NA,NA,NA,NA,NA,NA,NA,NA,NA,NA,NA,NA
SUPAMT75604,34QN5IT0T5QW1WZMD19TJEYYDOF80Q,AFE90992-58D0-4D01-BC43-F40F2C939205,2023-09-27_13h23.27.751,WP_VExplicitOC_HL,2022.2.5,Win32,7.979954355,NA,NA,NA,NA,NA,NA,NA,NA,NA,NA,NA,NA,NA,NA,NA,NA,NA,NA,stand up,002.png,NA,NA,NA,NA,NA,NA,NA,NA,NA,NA,NA,NA,NA,NA,NA,NA,84.375,2.3107,0,1,1,1,1,NA,NA,NA,NA,NA,NA,NA,NA,NA,NA,NA,NA,NA,NA,NA,NA
SUPAMT75604,34QN5IT0T5QW1WZMD19TJEYYDOF80Q,AFE90992-58D0-4D01-BC43-F40F2C939205,2023-09-27_13h23.27.751,WP_VExplicitOC_HL,2022.2.5,Win32,7.979954355,NA,NA,NA,NA,NA,NA,NA,NA,NA,NA,NA,NA,NA,NA,NA,NA,NA,NA,stretch,003.png,NA,NA,NA,NA,NA,NA,NA,NA,NA,NA,NA,NA,NA,NA,NA,NA,73.17708333,1.9954,0,2,2,2,1,NA,NA,NA,NA,NA,NA,NA,NA,NA,NA,NA,NA,NA,NA,NA,NA
SUPAMT75604,34QN5IT0T5QW1WZMD19TJEYYDOF80Q,AFE90992-58D0-4D01-BC43-F40F2C939205,2023-09-27_13h23.27.751,WP_VExplicitOC_HL,2022.2.5,Win32,7.979954355,NA,NA,NA,NA,NA,NA,NA,NA,NA,NA,NA,NA,NA,NA,NA,NA,NA,NA,make a drink,004.png,NA,NA,NA,NA,NA,NA,NA,NA,NA,NA,NA,NA,NA,NA,NA,NA,65.36458333,1.8639,0,3,3,3,1,NA,NA,NA,NA,NA,NA,NA,NA,NA,NA,NA,NA,NA,NA,NA,NA
SUPAMT75604,34QN5IT0T5QW1WZMD19TJEYYDOF80Q,AFE90992-58D0-4D01-BC43-F40F2C939205,2023-09-27_13h23.27.751,WP_VExplicitOC_HL,2022.2.5,Win32,7.979954355,NA,NA,NA,NA,NA,NA,NA,NA,NA,NA,NA,NA,NA,NA,NA,NA,NA,NA,scroll social media,005.png,NA,NA,NA,NA,NA,NA,NA,NA,NA,NA,NA,NA,NA,NA,NA,NA,78.90625,2.0734,0,4,4,4,1,NA,NA,NA,NA,NA,NA,NA,NA,NA,NA,NA,NA,NA,NA,NA,NA
SUPAMT75604,34QN5IT0T5QW1WZMD19TJEYYDOF80Q,AFE90992-58D0-4D01-BC43-F40F2C939205,2023-09-27_13h23.27.751,WP_VExplicitOC_HL,2022.2.5,Win32,7.979954355,NA,NA,NA,NA,NA,NA,NA,NA,NA,NA,NA,NA,NA,NA,NA,NA,NA,NA,listen to music,006.png,NA,NA,NA,NA,NA,NA,NA,NA,NA,NA,NA,NA,NA,NA,NA,NA,78.90625,1.9063,0,5,5,5,1,NA,NA,NA,NA,NA,NA,NA,NA,NA,NA,NA,NA,NA,NA,NA,NA
SUPAMT75604,34QN5IT0T5QW1WZMD19TJEYYDOF80Q,AFE90992-58D0-4D01-BC43-F40F2C939205,2023-09-27_13h23.27.751,WP_VExplicitOC_HL,2022.2.5,Win32,7.979954355,NA,NA,NA,NA,NA,NA,NA,NA,NA,NA,NA,NA,NA,NA,NA,NA,NA,NA,daydream,007.png,NA,NA,NA,NA,NA,NA,NA,NA,NA,NA,NA,NA,NA,NA,NA,NA,76.82291667,1.9189,0,6,6,6,1,NA,NA,NA,NA,NA,NA,NA,NA,NA,NA,NA,NA,NA,NA,NA,NA
SUPAMT75604,34QN5IT0T5QW1WZMD19TJEYYDOF80Q,AFE90992-58D0-4D01-BC43-F40F2C939205,2023-09-27_13h23.27.751,WP_VExplicitOC_HL,2022.2.5,Win32,7.979954355,NA,NA,NA,NA,NA,NA,NA,NA,NA,NA,NA,NA,NA,NA,NA,NA,NA,NA,watch a short animation,008.png,NA,NA,NA,NA,NA,NA,NA,NA,NA,NA,NA,NA,NA,NA,NA,NA,69.27083333,2.0167,0,7,7,7,1,NA,NA,NA,NA,NA,NA,NA,NA,NA,NA,NA,NA,NA,NA,NA,NA
SUPAMT75604,34QN5IT0T5QW1WZMD19TJEYYDOF80Q,AFE90992-58D0-4D01-BC43-F40F2C939205,2023-09-27_13h23.27.751,WP_VExplicitOC_HL,2022.2.5,Win32,7.979954355,NA,NA,NA,NA,NA,NA,NA,NA,NA,NA,NA,NA,NA,NA,NA,NA,NA,NA,read a novel,009.png,NA,NA,NA,NA,NA,NA,NA,NA,NA,NA,NA,NA,NA,NA,NA,NA,68.48958333,1.815,0,8,8,8,1,NA,NA,NA,NA,NA,NA,NA,NA,NA,NA,NA,NA,NA,NA,NA,NA
SUPAMT75604,34QN5IT0T5QW1WZMD19TJEYYDOF80Q,AFE90992-58D0-4D01-BC43-F40F2C939205,2023-09-27_13h23.27.751,WP_VExplicitOC_HL,2022.2.5,Win32,7.979954355,NA,NA,NA,NA,NA,NA,NA,NA,NA,NA,NA,NA,NA,NA,NA,NA,NA,NA,read the news,010.png,NA,NA,NA,NA,NA,NA,NA,NA,NA,NA,NA,NA,NA,NA,NA,NA,72.13541667,1.9866,0,9,9,9,1,NA,NA,NA,NA,NA,NA,NA,NA,NA,NA,NA,NA,NA,NA,NA,NA
SUPAMT75604,34QN5IT0T5QW1WZMD19TJEYYDOF80Q,AFE90992-58D0-4D01-BC43-F40F2C939205,2023-09-27_13h23.27.751,WP_VExplicitOC_HL,2022.2.5,Win32,7.979954355,NA,NA,NA,NA,NA,NA,NA,NA,NA,NA,NA,NA,NA,NA,NA,NA,NA,NA,NA,NA,NA,NA,NA,NA,NA,NA,NA,NA,NA,NA,NA,NA,NA,NA,NA,NA,NA,NA,NA,NA,NA,NA,NA,make a drink,NA,NA,NA,NA,NA,NA,NA,NA,NA,NA,NA,NA,NA,NA,NA
SUPAMT75604,34QN5IT0T5QW1WZMD19TJEYYDOF80Q,AFE90992-58D0-4D01-BC43-F40F2C939205,2023-09-27_13h23.27.751,WP_VExplicitOC_HL,2022.2.5,Win32,7.979954355,-52.08333333,4.4959,2.0654,NA,NA,NA,NA,NA,frustrated,"frustrated, not frustrated","more frustrated, less frustrated",NA,NA,NA,NA,NA,NA,NA,NA,NA,NA,NA,NA,NA,NA,NA,NA,NA,NA,NA,NA,NA,NA,NA,NA,NA,NA,NA,NA,NA,NA,NA,NA,NA,0,0,0,1,1,NA,NA,NA,NA,NA,NA,NA,NA,NA,NA
SUPAMT75604,34QN5IT0T5QW1WZMD19TJEYYDOF80Q,AFE90992-58D0-4D01-BC43-F40F2C939205,2023-09-27_13h23.27.751,WP_VExplicitOC_HL,2022.2.5,Win32,7.979954355,-52.60416667,4.1075,2.0433,NA,NA,NA,NA,NA,bored,"bored, not bored","more bored, less bored",NA,NA,NA,NA,NA,NA,NA,NA,NA,NA,NA,NA,NA,NA,NA,NA,NA,NA,NA,NA,NA,NA,NA,NA,NA,NA,NA,NA,NA,NA,NA,NA,NA,0,1,1,2,1,NA,NA,NA,NA,NA,NA,NA,NA,NA,NA
SUPAMT75604,34QN5IT0T5QW1WZMD19TJEYYDOF80Q,AFE90992-58D0-4D01-BC43-F40F2C939205,2023-09-27_13h23.27.751,WP_VExplicitOC_HL,2022.2.5,Win32,7.979954355,77.60416667,4.3411,2.0781,NA,NA,NA,NA,NA,happy,"unhappy, happy","less happy, more happy",NA,NA,NA,NA,NA,NA,NA,NA,NA,NA,NA,NA,NA,NA,NA,NA,NA,NA,NA,NA,NA,NA,NA,NA,NA,NA,NA,NA,NA,NA,NA,NA,NA,0,2,2,0,1,NA,NA,NA,NA,NA,NA,NA,NA,NA,NA
SUPAMT75604,34QN5IT0T5QW1WZMD19TJEYYDOF80Q,AFE90992-58D0-4D01-BC43-F40F2C939205,2023-09-27_13h23.27.751,WP_VExplicitOC_HL,2022.2.5,Win32,7.979954355,NA,NA,NA,NA,NA,NA,NA,NA,NA,NA,NA,NA,NA,NA,NA,NA,NA,NA,NA,NA,NA,NA,NA,NA,NA,NA,NA,NA,NA,NA,NA,NA,NA,NA,NA,NA,NA,NA,NA,NA,NA,NA,NA,NA,NA,NA,NA,NA,NA,NA,NA,NA,NA,NA,NA,NA,NA,NA,NA
SUPAMT75604,34QN5IT0T5QW1WZMD19TJEYYDOF80Q,AFE90992-58D0-4D01-BC43-F40F2C939205,2023-09-27_13h23.27.751,WP_VExplicitOC_HL,2022.2.5,Win32,7.979954355,NA,NA,NA,NA,NA,NA,NA,NA,NA,NA,NA,NA,NA,NA,NA,NA,NA,NA,NA,NA,NA,NA,NA,NA,NA,NA,NA,NA,NA,NA,NA,NA,NA,NA,NA,NA,NA,NA,NA,NA,NA,NA,NA,NA,NA,NA,NA,NA,NA,NA,NA,NA,NA,NA,NA,NA,NA,NA,NA
SUPAMT75604,34QN5IT0T5QW1WZMD19TJEYYDOF80Q,AFE90992-58D0-4D01-BC43-F40F2C939205,2023-09-27_13h23.27.751,WP_VExplicitOC_HL,2022.2.5,Win32,7.979954355,-58.33333333,5.4565,2.1221,NA,NA,NA,NA,NA,frustrated,"frustrated, not frustrated","more frustrated, less frustrated",NA,NA,NA,NA,NA,NA,NA,NA,NA,NA,NA,NA,NA,NA,NA,NA,NA,NA,NA,NA,NA,NA,NA,NA,NA,NA,NA,NA,NA,NA,NA,NA,NA,NA,NA,NA,NA,NA,0,0,0,1,1,NA,NA,NA,NA,NA
SUPAMT75604,34QN5IT0T5QW1WZMD19TJEYYDOF80Q,AFE90992-58D0-4D01-BC43-F40F2C939205,2023-09-27_13h23.27.751,WP_VExplicitOC_HL,2022.2.5,Win32,7.979954355,-55.72916667,3.8043,2.0077,NA,NA,NA,NA,NA,bored,"bored, not bored","more bored, less bored",NA,NA,NA,NA,NA,NA,NA,NA,NA,NA,NA,NA,NA,NA,NA,NA,NA,NA,NA,NA,NA,NA,NA,NA,NA,NA,NA,NA,NA,NA,NA,NA,NA,NA,NA,NA,NA,NA,0,1,1,2,1,NA,NA,NA,NA,NA
SUPAMT75604,34QN5IT0T5QW1WZMD19TJEYYDOF80Q,AFE90992-58D0-4D01-BC43-F40F2C939205,2023-09-27_13h23.27.751,WP_VExplicitOC_HL,2022.2.5,Win32,7.979954355,81.77083333,4.5187,2.0381,NA,NA,NA,NA,NA,happy,"unhappy, happy","less happy, more happy",NA,NA,NA,NA,NA,NA,NA,NA,NA,NA,NA,NA,NA,NA,NA,NA,NA,NA,NA,NA,NA,NA,NA,NA,NA,NA,NA,NA,NA,NA,NA,NA,NA,NA,NA,NA,NA,NA,0,2,2,0,1,NA,NA,NA,NA,NA
SUPAMT75604,34QN5IT0T5QW1WZMD19TJEYYDOF80Q,AFE90992-58D0-4D01-BC43-F40F2C939205,2023-09-27_13h23.27.751,WP_VExplicitOC_HL,2022.2.5,Win32,7.979954355,NA,NA,NA,NA,NA,NA,NA,NA,NA,NA,NA,NA,NA,NA,NA,NA,NA,NA,NA,NA,NA,NA,NA,NA,NA,NA,NA,NA,NA,NA,NA,NA,NA,NA,NA,NA,NA,NA,NA,NA,NA,NA,NA,NA,NA,NA,NA,NA,NA,NA,NA,NA,NA,NA,0,0,0,0,1
SUPAMT75604,34QN5IT0T5QW1WZMD19TJEYYDOF80Q,AFE90992-58D0-4D01-BC43-F40F2C939205,2023-09-27_13h23.27.751,WP_VExplicitOC_HL,2022.2.5,Win32,7.979954355,48.69791667,5.7573,2.099,NA,NA,NA,NA,NA,bored,"bored, not bored","more bored, less bored",NA,NA,NA,NA,NA,NA,NA,NA,NA,NA,NA,NA,NA,NA,NA,NA,NA,NA,NA,NA,NA,NA,NA,NA,NA,NA,NA,NA,NA,NA,NA,NA,NA,NA,NA,NA,NA,NA,0,0,0,2,1,NA,NA,NA,NA,NA
SUPAMT75604,34QN5IT0T5QW1WZMD19TJEYYDOF80Q,AFE90992-58D0-4D01-BC43-F40F2C939205,2023-09-27_13h23.27.751,WP_VExplicitOC_HL,2022.2.5,Win32,7.979954355,-73.17708333,3.6847,2.0537,NA,NA,NA,NA,NA,frustrated,"frustrated, not frustrated","more frustrated, less frustrated",NA,NA,NA,NA,NA,NA,NA,NA,NA,NA,NA,NA,NA,NA,NA,NA,NA,NA,NA,NA,NA,NA,NA,NA,NA,NA,NA,NA,NA,NA,NA,NA,NA,NA,NA,NA,NA,NA,0,1,1,1,1,NA,NA,NA,NA,NA
SUPAMT75604,34QN5IT0T5QW1WZMD19TJEYYDOF80Q,AFE90992-58D0-4D01-BC43-F40F2C939205,2023-09-27_13h23.27.751,WP_VExplicitOC_HL,2022.2.5,Win32,7.979954355,62.76041667,4.324,2.0131,NA,NA,NA,NA,NA,happy,"unhappy, happy","less happy, more happy",NA,NA,NA,NA,NA,NA,NA,NA,NA,NA,NA,NA,NA,NA,NA,NA,NA,NA,NA,NA,NA,NA,NA,NA,NA,NA,NA,NA,NA,NA,NA,NA,NA,NA,NA,NA,NA,NA,0,2,2,0,1,NA,NA,NA,NA,NA
SUPAMT75604,34QN5IT0T5QW1WZMD19TJEYYDOF80Q,AFE90992-58D0-4D01-BC43-F40F2C939205,2023-09-27_13h23.27.751,WP_VExplicitOC_HL,2022.2.5,Win32,7.979954355,NA,NA,NA,NA,NA,NA,NA,NA,NA,NA,NA,NA,NA,NA,NA,NA,NA,NA,NA,NA,NA,NA,NA,NA,NA,NA,NA,NA,NA,NA,NA,NA,NA,NA,NA,NA,NA,NA,NA,NA,NA,NA,NA,NA,NA,NA,NA,NA,NA,NA,NA,NA,NA,NA,1,0,1,0,1
SUPAMT75604,34QN5IT0T5QW1WZMD19TJEYYDOF80Q,AFE90992-58D0-4D01-BC43-F40F2C939205,2023-09-27_13h23.27.751,WP_VExplicitOC_HL,2022.2.5,Win32,7.979954355,-73.95833333,5.9772,2.0219,NA,NA,NA,NA,NA,bored,"bored, not bored","more bored, less bored",NA,NA,NA,NA,NA,NA,NA,NA,NA,NA,NA,NA,NA,NA,NA,NA,NA,NA,NA,NA,NA,NA,NA,NA,NA,NA,NA,NA,NA,NA,NA,NA,NA,NA,NA,NA,NA,NA,0,0,0,2,1,NA,NA,NA,NA,NA
SUPAMT75604,34QN5IT0T5QW1WZMD19TJEYYDOF80Q,AFE90992-58D0-4D01-BC43-F40F2C939205,2023-09-27_13h23.27.751,WP_VExplicitOC_HL,2022.2.5,Win32,7.979954355,-64.0625,4.4966,2.0614,NA,NA,NA,NA,NA,frustrated,"frustrated, not frustrated","more frustrated, less frustrated",NA,NA,NA,NA,NA,NA,NA,NA,NA,NA,NA,NA,NA,NA,NA,NA,NA,NA,NA,NA,NA,NA,NA,NA,NA,NA,NA,NA,NA,NA,NA,NA,NA,NA,NA,NA,NA,NA,0,1,1,1,1,NA,NA,NA,NA,NA
SUPAMT75604,34QN5IT0T5QW1WZMD19TJEYYDOF80Q,AFE90992-58D0-4D01-BC43-F40F2C939205,2023-09-27_13h23.27.751,WP_VExplicitOC_HL,2022.2.5,Win32,7.979954355,100,4.0418,2.0203,NA,NA,NA,NA,NA,happy,"unhappy, happy","less happy, more happy",NA,NA,NA,NA,NA,NA,NA,NA,NA,NA,NA,NA,NA,NA,NA,NA,NA,NA,NA,NA,NA,NA,NA,NA,NA,NA,NA,NA,NA,NA,NA,NA,NA,NA,NA,NA,NA,NA,0,2,2,0,1,NA,NA,NA,NA,NA
SUPAMT75604,34QN5IT0T5QW1WZMD19TJEYYDOF80Q,AFE90992-58D0-4D01-BC43-F40F2C939205,2023-09-27_13h23.27.751,WP_VExplicitOC_HL,2022.2.5,Win32,7.979954355,NA,NA,NA,NA,NA,NA,NA,NA,NA,NA,NA,NA,NA,NA,NA,NA,NA,NA,NA,NA,NA,NA,NA,NA,NA,NA,NA,NA,NA,NA,NA,NA,NA,NA,NA,NA,NA,NA,NA,NA,NA,NA,NA,NA,NA,NA,NA,NA,NA,NA,NA,NA,NA,NA,2,0,2,0,1
SUPAMT75604,34QN5IT0T5QW1WZMD19TJEYYDOF80Q,AFE90992-58D0-4D01-BC43-F40F2C939205,2023-09-27_13h23.27.751,WP_VExplicitOC_HL,2022.2.5,Win32,7.979954355,-58.59375,4.2175,2.0177,NA,NA,NA,NA,NA,frustrated,"frustrated, not frustrated","more frustrated, less frustrated",NA,NA,NA,NA,NA,NA,NA,NA,NA,NA,NA,NA,NA,NA,NA,NA,NA,NA,NA,NA,NA,NA,NA,NA,NA,NA,NA,NA,NA,NA,NA,NA,NA,NA,NA,NA,NA,NA,0,0,0,1,1,NA,NA,NA,NA,NA
SUPAMT75604,34QN5IT0T5QW1WZMD19TJEYYDOF80Q,AFE90992-58D0-4D01-BC43-F40F2C939205,2023-09-27_13h23.27.751,WP_VExplicitOC_HL,2022.2.5,Win32,7.979954355,73.4375,4.1295,2.0622,NA,NA,NA,NA,NA,happy,"unhappy, happy","less happy, more happy",NA,NA,NA,NA,NA,NA,NA,NA,NA,NA,NA,NA,NA,NA,NA,NA,NA,NA,NA,NA,NA,NA,NA,NA,NA,NA,NA,NA,NA,NA,NA,NA,NA,NA,NA,NA,NA,NA,0,1,1,0,1,NA,NA,NA,NA,NA
SUPAMT75604,34QN5IT0T5QW1WZMD19TJEYYDOF80Q,AFE90992-58D0-4D01-BC43-F40F2C939205,2023-09-27_13h23.27.751,WP_VExplicitOC_HL,2022.2.5,Win32,7.979954355,-65.36458333,4.2826,2.0765,NA,NA,NA,NA,NA,bored,"bored, not bored","more bored, less bored",NA,NA,NA,NA,NA,NA,NA,NA,NA,NA,NA,NA,NA,NA,NA,NA,NA,NA,NA,NA,NA,NA,NA,NA,NA,NA,NA,NA,NA,NA,NA,NA,NA,NA,NA,NA,NA,NA,0,2,2,2,1,NA,NA,NA,NA,NA
SUPAMT75604,34QN5IT0T5QW1WZMD19TJEYYDOF80Q,AFE90992-58D0-4D01-BC43-F40F2C939205,2023-09-27_13h23.27.751,WP_VExplicitOC_HL,2022.2.5,Win32,7.979954355,NA,NA,NA,NA,NA,NA,NA,NA,NA,NA,NA,NA,NA,NA,NA,NA,NA,NA,NA,NA,NA,NA,NA,NA,NA,NA,NA,NA,NA,NA,NA,NA,NA,NA,NA,NA,NA,NA,NA,NA,NA,NA,NA,NA,NA,NA,NA,NA,NA,NA,NA,NA,NA,NA,3,0,3,0,1
SUPAMT75604,34QN5IT0T5QW1WZMD19TJEYYDOF80Q,AFE90992-58D0-4D01-BC43-F40F2C939205,2023-09-27_13h23.27.751,WP_VExplicitOC_HL,2022.2.5,Win32,7.979954355,-45.83333333,5.5816,2.0375,NA,NA,NA,NA,NA,frustrated,"frustrated, not frustrated","more frustrated, less frustrated",NA,NA,NA,NA,NA,NA,NA,NA,NA,NA,NA,NA,NA,NA,NA,NA,NA,NA,NA,NA,NA,NA,NA,NA,NA,NA,NA,NA,NA,NA,NA,NA,NA,NA,NA,NA,NA,NA,0,0,0,1,1,NA,NA,NA,NA,NA
SUPAMT75604,34QN5IT0T5QW1WZMD19TJEYYDOF80Q,AFE90992-58D0-4D01-BC43-F40F2C939205,2023-09-27_13h23.27.751,WP_VExplicitOC_HL,2022.2.5,Win32,7.979954355,57.29166667,4.0404,2.0927,NA,NA,NA,NA,NA,happy,"unhappy, happy","less happy, more happy",NA,NA,NA,NA,NA,NA,NA,NA,NA,NA,NA,NA,NA,NA,NA,NA,NA,NA,NA,NA,NA,NA,NA,NA,NA,NA,NA,NA,NA,NA,NA,NA,NA,NA,NA,NA,NA,NA,0,1,1,0,1,NA,NA,NA,NA,NA
SUPAMT75604,34QN5IT0T5QW1WZMD19TJEYYDOF80Q,AFE90992-58D0-4D01-BC43-F40F2C939205,2023-09-27_13h23.27.751,WP_VExplicitOC_HL,2022.2.5,Win32,7.979954355,-53.125,4.267,2.0381,NA,NA,NA,NA,NA,bored,"bored, not bored","more bored, less bored",NA,NA,NA,NA,NA,NA,NA,NA,NA,NA,NA,NA,NA,NA,NA,NA,NA,NA,NA,NA,NA,NA,NA,NA,NA,NA,NA,NA,NA,NA,NA,NA,NA,NA,NA,NA,NA,NA,0,2,2,2,1,NA,NA,NA,NA,NA
SUPAMT75604,34QN5IT0T5QW1WZMD19TJEYYDOF80Q,AFE90992-58D0-4D01-BC43-F40F2C939205,2023-09-27_13h23.27.751,WP_VExplicitOC_HL,2022.2.5,Win32,7.979954355,NA,NA,NA,NA,NA,NA,NA,NA,NA,NA,NA,NA,NA,NA,NA,NA,NA,NA,NA,NA,NA,NA,NA,NA,NA,NA,NA,NA,NA,NA,NA,NA,NA,NA,NA,NA,NA,NA,NA,NA,NA,NA,NA,NA,NA,NA,NA,NA,NA,NA,NA,NA,NA,NA,4,0,4,0,1
SUPAMT75604,34QN5IT0T5QW1WZMD19TJEYYDOF80Q,AFE90992-58D0-4D01-BC43-F40F2C939205,2023-09-27_13h23.27.751,WP_VExplicitOC_HL,2022.2.5,Win32,7.979954355,78.90625,3.8351,2.0151,NA,NA,NA,NA,NA,happy,"unhappy, happy","less happy, more happy",NA,NA,NA,NA,NA,NA,NA,NA,NA,NA,NA,NA,NA,NA,NA,NA,NA,NA,NA,NA,NA,NA,NA,NA,NA,NA,NA,NA,NA,NA,NA,NA,NA,NA,NA,NA,NA,NA,0,0,0,0,1,NA,NA,NA,NA,NA
SUPAMT75604,34QN5IT0T5QW1WZMD19TJEYYDOF80Q,AFE90992-58D0-4D01-BC43-F40F2C939205,2023-09-27_13h23.27.751,WP_VExplicitOC_HL,2022.2.5,Win32,7.979954355,-52.60416667,3.97,2.0147,NA,NA,NA,NA,NA,frustrated,"frustrated, not frustrated","more frustrated, less frustrated",NA,NA,NA,NA,NA,NA,NA,NA,NA,NA,NA,NA,NA,NA,NA,NA,NA,NA,NA,NA,NA,NA,NA,NA,NA,NA,NA,NA,NA,NA,NA,NA,NA,NA,NA,NA,NA,NA,0,1,1,1,1,NA,NA,NA,NA,NA
SUPAMT75604,34QN5IT0T5QW1WZMD19TJEYYDOF80Q,AFE90992-58D0-4D01-BC43-F40F2C939205,2023-09-27_13h23.27.751,WP_VExplicitOC_HL,2022.2.5,Win32,7.979954355,-50.78125,4.0804,2.0151,NA,NA,NA,NA,NA,bored,"bored, not bored","more bored, less bored",NA,NA,NA,NA,NA,NA,NA,NA,NA,NA,NA,NA,NA,NA,NA,NA,NA,NA,NA,NA,NA,NA,NA,NA,NA,NA,NA,NA,NA,NA,NA,NA,NA,NA,NA,NA,NA,NA,0,2,2,2,1,NA,NA,NA,NA,NA
SUPAMT75604,34QN5IT0T5QW1WZMD19TJEYYDOF80Q,AFE90992-58D0-4D01-BC43-F40F2C939205,2023-09-27_13h23.27.751,WP_VExplicitOC_HL,2022.2.5,Win32,7.979954355,NA,NA,NA,NA,NA,NA,NA,NA,NA,NA,NA,NA,NA,NA,NA,NA,NA,NA,NA,NA,NA,NA,NA,NA,NA,NA,NA,NA,NA,NA,NA,NA,NA,NA,NA,NA,NA,NA,NA,NA,NA,NA,NA,NA,NA,NA,NA,NA,NA,NA,NA,NA,NA,NA,5,0,5,0,1
SUPAMT75604,34QN5IT0T5QW1WZMD19TJEYYDOF80Q,AFE90992-58D0-4D01-BC43-F40F2C939205,2023-09-27_13h23.27.751,WP_VExplicitOC_HL,2022.2.5,Win32,7.979954355,NA,NA,2.0732,NA,NA,NA,NA,NA,bored,"bored, not bored","more bored, less bored",NA,NA,NA,NA,NA,NA,NA,NA,NA,NA,NA,NA,NA,NA,NA,NA,NA,NA,NA,NA,NA,NA,NA,NA,NA,NA,NA,NA,NA,NA,NA,NA,NA,NA,NA,NA,NA,NA,0,0,0,2,1,NA,NA,NA,NA,NA
SUPAMT75604,34QN5IT0T5QW1WZMD19TJEYYDOF80Q,AFE90992-58D0-4D01-BC43-F40F2C939205,2023-09-27_13h23.27.751,WP_VExplicitOC_HL,2022.2.5,Win32,7.979954355,58.59375,3.9241,2.0957,NA,NA,NA,NA,NA,happy,"unhappy, happy","less happy, more happy",NA,NA,NA,NA,NA,NA,NA,NA,NA,NA,NA,NA,NA,NA,NA,NA,NA,NA,NA,NA,NA,NA,NA,NA,NA,NA,NA,NA,NA,NA,NA,NA,NA,NA,NA,NA,NA,NA,0,1,1,0,1,NA,NA,NA,NA,NA
SUPAMT75604,34QN5IT0T5QW1WZMD19TJEYYDOF80Q,AFE90992-58D0-4D01-BC43-F40F2C939205,2023-09-27_13h23.27.751,WP_VExplicitOC_HL,2022.2.5,Win32,7.979954355,-59.89583333,4.0802,2.0193,NA,NA,NA,NA,NA,frustrated,"frustrated, not frustrated","more frustrated, less frustrated",NA,NA,NA,NA,NA,NA,NA,NA,NA,NA,NA,NA,NA,NA,NA,NA,NA,NA,NA,NA,NA,NA,NA,NA,NA,NA,NA,NA,NA,NA,NA,NA,NA,NA,NA,NA,NA,NA,0,2,2,1,1,NA,NA,NA,NA,NA
SUPAMT75604,34QN5IT0T5QW1WZMD19TJEYYDOF80Q,AFE90992-58D0-4D01-BC43-F40F2C939205,2023-09-27_13h23.27.751,WP_VExplicitOC_HL,2022.2.5,Win32,7.979954355,NA,NA,NA,NA,NA,NA,NA,NA,NA,NA,NA,NA,NA,NA,NA,NA,NA,NA,NA,NA,NA,NA,NA,NA,NA,NA,NA,NA,NA,NA,NA,NA,NA,NA,NA,NA,NA,NA,NA,NA,NA,NA,NA,NA,NA,NA,NA,NA,NA,NA,NA,NA,NA,NA,6,0,6,0,1
SUPAMT75604,34QN5IT0T5QW1WZMD19TJEYYDOF80Q,AFE90992-58D0-4D01-BC43-F40F2C939205,2023-09-27_13h23.27.751,WP_VExplicitOC_HL,2022.2.5,Win32,7.979954355,72.39583333,4.1114,2.0654,NA,NA,NA,NA,NA,happy,"unhappy, happy","less happy, more happy",NA,NA,NA,NA,NA,NA,NA,NA,NA,NA,NA,NA,NA,NA,NA,NA,NA,NA,NA,NA,NA,NA,NA,NA,NA,NA,NA,NA,NA,NA,NA,NA,NA,NA,NA,NA,NA,NA,0,0,0,0,1,NA,NA,NA,NA,NA
SUPAMT75604,34QN5IT0T5QW1WZMD19TJEYYDOF80Q,AFE90992-58D0-4D01-BC43-F40F2C939205,2023-09-27_13h23.27.751,WP_VExplicitOC_HL,2022.2.5,Win32,7.979954355,-42.96875,4.2291,2.0881,NA,NA,NA,NA,NA,frustrated,"frustrated, not frustrated","more frustrated, less frustrated",NA,NA,NA,NA,NA,NA,NA,NA,NA,NA,NA,NA,NA,NA,NA,NA,NA,NA,NA,NA,NA,NA,NA,NA,NA,NA,NA,NA,NA,NA,NA,NA,NA,NA,NA,NA,NA,NA,0,1,1,1,1,NA,NA,NA,NA,NA
SUPAMT75604,34QN5IT0T5QW1WZMD19TJEYYDOF80Q,AFE90992-58D0-4D01-BC43-F40F2C939205,2023-09-27_13h23.27.751,WP_VExplicitOC_HL,2022.2.5,Win32,7.979954355,-67.70833333,5.1116,2.064,NA,NA,NA,NA,NA,bored,"bored, not bored","more bored, less bored",NA,NA,NA,NA,NA,NA,NA,NA,NA,NA,NA,NA,NA,NA,NA,NA,NA,NA,NA,NA,NA,NA,NA,NA,NA,NA,NA,NA,NA,NA,NA,NA,NA,NA,NA,NA,NA,NA,0,2,2,2,1,NA,NA,NA,NA,NA
SUPAMT75604,34QN5IT0T5QW1WZMD19TJEYYDOF80Q,AFE90992-58D0-4D01-BC43-F40F2C939205,2023-09-27_13h23.27.751,WP_VExplicitOC_HL,2022.2.5,Win32,7.979954355,NA,NA,NA,NA,NA,NA,NA,NA,NA,NA,NA,NA,NA,NA,NA,NA,NA,NA,NA,NA,NA,NA,NA,NA,NA,NA,NA,NA,NA,NA,NA,NA,NA,NA,NA,NA,NA,NA,NA,NA,NA,NA,NA,NA,NA,NA,NA,NA,NA,NA,NA,NA,NA,NA,7,0,7,0,1
SUPAMT75604,34QN5IT0T5QW1WZMD19TJEYYDOF80Q,AFE90992-58D0-4D01-BC43-F40F2C939205,2023-09-27_13h23.27.751,WP_VExplicitOC_HL,2022.2.5,Win32,7.979954355,-69.53125,4.8951,2.0588,NA,NA,NA,NA,NA,frustrated,"frustrated, not frustrated","more frustrated, less frustrated",NA,NA,NA,NA,NA,NA,NA,NA,NA,NA,NA,NA,NA,NA,NA,NA,NA,NA,NA,NA,NA,NA,NA,NA,NA,NA,NA,NA,NA,NA,NA,NA,NA,NA,NA,NA,NA,NA,0,0,0,1,1,NA,NA,NA,NA,NA
SUPAMT75604,34QN5IT0T5QW1WZMD19TJEYYDOF80Q,AFE90992-58D0-4D01-BC43-F40F2C939205,2023-09-27_13h23.27.751,WP_VExplicitOC_HL,2022.2.5,Win32,7.979954355,54.94791667,3.9359,2.0047,NA,NA,NA,NA,NA,happy,"unhappy, happy","less happy, more happy",NA,NA,NA,NA,NA,NA,NA,NA,NA,NA,NA,NA,NA,NA,NA,NA,NA,NA,NA,NA,NA,NA,NA,NA,NA,NA,NA,NA,NA,NA,NA,NA,NA,NA,NA,NA,NA,NA,0,1,1,0,1,NA,NA,NA,NA,NA
SUPAMT75604,34QN5IT0T5QW1WZMD19TJEYYDOF80Q,AFE90992-58D0-4D01-BC43-F40F2C939205,2023-09-27_13h23.27.751,WP_VExplicitOC_HL,2022.2.5,Win32,7.979954355,-69.79166667,3.872,2.0054,NA,NA,NA,NA,NA,bored,"bored, not bored","more bored, less bored",NA,NA,NA,NA,NA,NA,NA,NA,NA,NA,NA,NA,NA,NA,NA,NA,NA,NA,NA,NA,NA,NA,NA,NA,NA,NA,NA,NA,NA,NA,NA,NA,NA,NA,NA,NA,NA,NA,0,2,2,2,1,NA,NA,NA,NA,NA
SUPAMT75604,34QN5IT0T5QW1WZMD19TJEYYDOF80Q,AFE90992-58D0-4D01-BC43-F40F2C939205,2023-09-27_13h23.27.751,WP_VExplicitOC_HL,2022.2.5,Win32,7.979954355,NA,NA,NA,NA,NA,NA,NA,NA,NA,NA,NA,NA,NA,NA,NA,NA,NA,NA,NA,NA,NA,NA,NA,NA,NA,NA,NA,NA,NA,NA,NA,NA,NA,NA,NA,NA,NA,NA,NA,NA,NA,NA,NA,NA,NA,NA,NA,NA,NA,NA,NA,NA,NA,NA,8,0,8,0,1
SUPAMT75604,34QN5IT0T5QW1WZMD19TJEYYDOF80Q,AFE90992-58D0-4D01-BC43-F40F2C939205,2023-09-27_13h23.27.751,WP_VExplicitOC_HL,2022.2.5,Win32,7.979954355,67.44791667,4.1624,2.0414,NA,NA,NA,NA,NA,happy,"unhappy, happy","less happy, more happy",NA,NA,NA,NA,NA,NA,NA,NA,NA,NA,NA,NA,NA,NA,NA,NA,NA,NA,NA,NA,NA,NA,NA,NA,NA,NA,NA,NA,NA,NA,NA,NA,NA,NA,NA,NA,NA,NA,0,0,0,0,1,NA,NA,NA,NA,NA
SUPAMT75604,34QN5IT0T5QW1WZMD19TJEYYDOF80Q,AFE90992-58D0-4D01-BC43-F40F2C939205,2023-09-27_13h23.27.751,WP_VExplicitOC_HL,2022.2.5,Win32,7.979954355,-44.79166667,3.9431,2.0729,NA,NA,NA,NA,NA,bored,"bored, not bored","more bored, less bored",NA,NA,NA,NA,NA,NA,NA,NA,NA,NA,NA,NA,NA,NA,NA,NA,NA,NA,NA,NA,NA,NA,NA,NA,NA,NA,NA,NA,NA,NA,NA,NA,NA,NA,NA,NA,NA,NA,0,1,1,2,1,NA,NA,NA,NA,NA
SUPAMT75604,34QN5IT0T5QW1WZMD19TJEYYDOF80Q,AFE90992-58D0-4D01-BC43-F40F2C939205,2023-09-27_13h23.27.751,WP_VExplicitOC_HL,2022.2.5,Win32,7.979954355,-48.95833333,4.2087,2.1105,NA,NA,NA,NA,NA,frustrated,"frustrated, not frustrated","more frustrated, less frustrated",NA,NA,NA,NA,NA,NA,NA,NA,NA,NA,NA,NA,NA,NA,NA,NA,NA,NA,NA,NA,NA,NA,NA,NA,NA,NA,NA,NA,NA,NA,NA,NA,NA,NA,NA,NA,NA,NA,0,2,2,1,1,NA,NA,NA,NA,NA
SUPAMT75604,34QN5IT0T5QW1WZMD19TJEYYDOF80Q,AFE90992-58D0-4D01-BC43-F40F2C939205,2023-09-27_13h23.27.751,WP_VExplicitOC_HL,2022.2.5,Win32,7.979954355,NA,NA,NA,NA,NA,NA,NA,NA,NA,NA,NA,NA,NA,NA,NA,NA,NA,NA,NA,NA,NA,NA,NA,NA,NA,NA,NA,NA,NA,NA,NA,NA,NA,NA,NA,NA,NA,NA,NA,NA,NA,NA,NA,NA,NA,NA,NA,NA,NA,NA,NA,NA,NA,NA,9,0,9,0,1
SUPAMT75604,34QN5IT0T5QW1WZMD19TJEYYDOF80Q,AFE90992-58D0-4D01-BC43-F40F2C939205,2023-09-27_13h23.27.751,WP_VExplicitOC_HL,2022.2.5,Win32,7.979954355,-62.5,3.8098,2.0273,NA,NA,NA,NA,NA,frustrated,"frustrated, not frustrated","more frustrated, less frustrated",NA,NA,NA,NA,NA,NA,NA,NA,NA,NA,NA,NA,NA,NA,NA,NA,NA,NA,NA,NA,NA,NA,NA,NA,NA,NA,NA,NA,NA,NA,NA,NA,NA,NA,NA,NA,NA,NA,0,0,0,1,1,NA,NA,NA,NA,NA
SUPAMT75604,34QN5IT0T5QW1WZMD19TJEYYDOF80Q,AFE90992-58D0-4D01-BC43-F40F2C939205,2023-09-27_13h23.27.751,WP_VExplicitOC_HL,2022.2.5,Win32,7.979954355,76.30208333,4.1658,2.0236,NA,NA,NA,NA,NA,happy,"unhappy, happy","less happy, more happy",NA,NA,NA,NA,NA,NA,NA,NA,NA,NA,NA,NA,NA,NA,NA,NA,NA,NA,NA,NA,NA,NA,NA,NA,NA,NA,NA,NA,NA,NA,NA,NA,NA,NA,NA,NA,NA,NA,0,1,1,0,1,NA,NA,NA,NA,NA
SUPAMT75604,34QN5IT0T5QW1WZMD19TJEYYDOF80Q,AFE90992-58D0-4D01-BC43-F40F2C939205,2023-09-27_13h23.27.751,WP_VExplicitOC_HL,2022.2.5,Win32,7.979954355,-59.375,3.7066,2.0682,NA,NA,NA,NA,NA,bored,"bored, not bored","more bored, less bored",NA,NA,NA,NA,NA,NA,NA,NA,NA,NA,NA,NA,NA,NA,NA,NA,NA,NA,NA,NA,NA,NA,NA,NA,NA,NA,NA,NA,NA,NA,NA,NA,NA,NA,NA,NA,NA,NA,0,2,2,2,1,NA,NA,NA,NA,NA
SUPAMT75604,34QN5IT0T5QW1WZMD19TJEYYDOF80Q,AFE90992-58D0-4D01-BC43-F40F2C939205,2023-09-27_13h23.27.751,WP_VExplicitOC_HL,2022.2.5,Win32,7.979954355,NA,NA,NA,NA,NA,NA,NA,NA,NA,NA,NA,NA,NA,NA,NA,NA,NA,NA,NA,NA,NA,NA,NA,NA,NA,NA,NA,NA,NA,NA,NA,NA,NA,NA,NA,NA,NA,NA,NA,NA,NA,NA,NA,NA,NA,NA,NA,NA,NA,NA,NA,NA,NA,NA,10,0,10,0,1
SUPAMT75604,34QN5IT0T5QW1WZMD19TJEYYDOF80Q,AFE90992-58D0-4D01-BC43-F40F2C939205,2023-09-27_13h23.27.751,WP_VExplicitOC_HL,2022.2.5,Win32,7.979954355,-57.8125,4.0068,2.0688,NA,NA,NA,NA,NA,frustrated,"frustrated, not frustrated","more frustrated, less frustrated",NA,NA,NA,NA,NA,NA,NA,NA,NA,NA,NA,NA,NA,NA,NA,NA,NA,NA,NA,NA,NA,NA,NA,NA,NA,NA,NA,NA,NA,NA,NA,NA,NA,NA,NA,NA,NA,NA,0,0,0,1,1,NA,NA,NA,NA,NA
SUPAMT75604,34QN5IT0T5QW1WZMD19TJEYYDOF80Q,AFE90992-58D0-4D01-BC43-F40F2C939205,2023-09-27_13h23.27.751,WP_VExplicitOC_HL,2022.2.5,Win32,7.979954355,-76.5625,4.2427,2.076,NA,NA,NA,NA,NA,bored,"bored, not bored","more bored, less bored",NA,NA,NA,NA,NA,NA,NA,NA,NA,NA,NA,NA,NA,NA,NA,NA,NA,NA,NA,NA,NA,NA,NA,NA,NA,NA,NA,NA,NA,NA,NA,NA,NA,NA,NA,NA,NA,NA,0,1,1,2,1,NA,NA,NA,NA,NA
SUPAMT75604,34QN5IT0T5QW1WZMD19TJEYYDOF80Q,AFE90992-58D0-4D01-BC43-F40F2C939205,2023-09-27_13h23.27.751,WP_VExplicitOC_HL,2022.2.5,Win32,7.979954355,77.60416667,4.3758,2.0721,NA,NA,NA,NA,NA,happy,"unhappy, happy","less happy, more happy",NA,NA,NA,NA,NA,NA,NA,NA,NA,NA,NA,NA,NA,NA,NA,NA,NA,NA,NA,NA,NA,NA,NA,NA,NA,NA,NA,NA,NA,NA,NA,NA,NA,NA,NA,NA,NA,NA,0,2,2,0,1,NA,NA,NA,NA,NA
SUPAMT75604,34QN5IT0T5QW1WZMD19TJEYYDOF80Q,AFE90992-58D0-4D01-BC43-F40F2C939205,2023-09-27_13h23.27.751,WP_VExplicitOC_HL,2022.2.5,Win32,7.979954355,NA,NA,NA,NA,NA,NA,NA,NA,NA,NA,NA,NA,NA,NA,NA,NA,NA,NA,NA,NA,NA,NA,NA,NA,NA,NA,NA,NA,NA,NA,NA,NA,NA,NA,NA,NA,NA,NA,NA,NA,NA,NA,NA,NA,NA,NA,NA,NA,NA,NA,NA,NA,NA,NA,11,0,11,0,1
SUPAMT75604,34QN5IT0T5QW1WZMD19TJEYYDOF80Q,AFE90992-58D0-4D01-BC43-F40F2C939205,2023-09-27_13h23.27.751,WP_VExplicitOC_HL,2022.2.5,Win32,7.979954355,-67.70833333,3.8986,2.0501,NA,NA,NA,NA,NA,frustrated,"frustrated, not frustrated","more frustrated, less frustrated",NA,NA,NA,NA,NA,NA,NA,NA,NA,NA,NA,NA,NA,NA,NA,NA,NA,NA,NA,NA,NA,NA,NA,NA,NA,NA,NA,NA,NA,NA,NA,NA,NA,NA,NA,NA,NA,NA,0,0,0,1,1,NA,NA,NA,NA,NA
SUPAMT75604,34QN5IT0T5QW1WZMD19TJEYYDOF80Q,AFE90992-58D0-4D01-BC43-F40F2C939205,2023-09-27_13h23.27.751,WP_VExplicitOC_HL,2022.2.5,Win32,7.979954355,74.21875,3.8775,2.0618,NA,NA,NA,NA,NA,happy,"unhappy, happy","less happy, more happy",NA,NA,NA,NA,NA,NA,NA,NA,NA,NA,NA,NA,NA,NA,NA,NA,NA,NA,NA,NA,NA,NA,NA,NA,NA,NA,NA,NA,NA,NA,NA,NA,NA,NA,NA,NA,NA,NA,0,1,1,0,1,NA,NA,NA,NA,NA
SUPAMT75604,34QN5IT0T5QW1WZMD19TJEYYDOF80Q,AFE90992-58D0-4D01-BC43-F40F2C939205,2023-09-27_13h23.27.751,WP_VExplicitOC_HL,2022.2.5,Win32,7.979954355,-78.125,3.7591,2.0695,NA,NA,NA,NA,NA,bored,"bored, not bored","more bored, less bored",NA,NA,NA,NA,NA,NA,NA,NA,NA,NA,NA,NA,NA,NA,NA,NA,NA,NA,NA,NA,NA,NA,NA,NA,NA,NA,NA,NA,NA,NA,NA,NA,NA,NA,NA,NA,NA,NA,0,2,2,2,1,NA,NA,NA,NA,NA
SUPAMT75604,34QN5IT0T5QW1WZMD19TJEYYDOF80Q,AFE90992-58D0-4D01-BC43-F40F2C939205,2023-09-27_13h23.27.751,WP_VExplicitOC_HL,2022.2.5,Win32,7.979954355,NA,NA,NA,NA,NA,NA,NA,NA,NA,NA,NA,NA,NA,NA,NA,NA,NA,NA,NA,NA,NA,NA,NA,NA,NA,NA,NA,NA,NA,NA,NA,NA,NA,NA,NA,NA,NA,NA,NA,NA,NA,NA,NA,NA,NA,NA,NA,NA,NA,NA,NA,NA,NA,NA,12,0,12,0,1
SUPAMT75604,34QN5IT0T5QW1WZMD19TJEYYDOF80Q,AFE90992-58D0-4D01-BC43-F40F2C939205,2023-09-27_13h23.27.751,WP_VExplicitOC_HL,2022.2.5,Win32,7.979954355,-68.48958333,3.8104,2.0457,NA,NA,NA,NA,NA,frustrated,"frustrated, not frustrated","more frustrated, less frustrated",NA,NA,NA,NA,NA,NA,NA,NA,NA,NA,NA,NA,NA,NA,NA,NA,NA,NA,NA,NA,NA,NA,NA,NA,NA,NA,NA,NA,NA,NA,NA,NA,NA,NA,NA,NA,NA,NA,0,0,0,1,1,NA,NA,NA,NA,NA
SUPAMT75604,34QN5IT0T5QW1WZMD19TJEYYDOF80Q,AFE90992-58D0-4D01-BC43-F40F2C939205,2023-09-27_13h23.27.751,WP_VExplicitOC_HL,2022.2.5,Win32,7.979954355,-69.01041667,3.7825,2.0298,NA,NA,NA,NA,NA,bored,"bored, not bored","more bored, less bored",NA,NA,NA,NA,NA,NA,NA,NA,NA,NA,NA,NA,NA,NA,NA,NA,NA,NA,NA,NA,NA,NA,NA,NA,NA,NA,NA,NA,NA,NA,NA,NA,NA,NA,NA,NA,NA,NA,0,1,1,2,1,NA,NA,NA,NA,NA
SUPAMT75604,34QN5IT0T5QW1WZMD19TJEYYDOF80Q,AFE90992-58D0-4D01-BC43-F40F2C939205,2023-09-27_13h23.27.751,WP_VExplicitOC_HL,2022.2.5,Win32,7.979954355,77.34375,3.5492,2.0841,NA,NA,NA,NA,NA,happy,"unhappy, happy","less happy, more happy",NA,NA,NA,NA,NA,NA,NA,NA,NA,NA,NA,NA,NA,NA,NA,NA,NA,NA,NA,NA,NA,NA,NA,NA,NA,NA,NA,NA,NA,NA,NA,NA,NA,NA,NA,NA,NA,NA,0,2,2,0,1,NA,NA,NA,NA,NA
SUPAMT75604,34QN5IT0T5QW1WZMD19TJEYYDOF80Q,AFE90992-58D0-4D01-BC43-F40F2C939205,2023-09-27_13h23.27.751,WP_VExplicitOC_HL,2022.2.5,Win32,7.979954355,NA,NA,NA,NA,NA,NA,NA,NA,NA,NA,NA,NA,NA,NA,NA,NA,NA,NA,NA,NA,NA,NA,NA,NA,NA,NA,NA,NA,NA,NA,NA,NA,NA,NA,NA,NA,NA,NA,NA,NA,NA,NA,NA,NA,NA,NA,NA,NA,NA,NA,NA,NA,NA,NA,13,0,13,0,1
SUPAMT75604,34QN5IT0T5QW1WZMD19TJEYYDOF80Q,AFE90992-58D0-4D01-BC43-F40F2C939205,2023-09-27_13h23.27.751,WP_VExplicitOC_HL,2022.2.5,Win32,7.979954355,70.05208333,6.6871,2.0243,NA,NA,NA,NA,NA,happy,"unhappy, happy","less happy, more happy",NA,NA,NA,NA,NA,NA,NA,NA,NA,NA,NA,NA,NA,NA,NA,NA,NA,NA,NA,NA,NA,NA,NA,NA,NA,NA,NA,NA,NA,NA,NA,NA,NA,NA,NA,NA,NA,NA,0,0,0,0,1,NA,NA,NA,NA,NA
SUPAMT75604,34QN5IT0T5QW1WZMD19TJEYYDOF80Q,AFE90992-58D0-4D01-BC43-F40F2C939205,2023-09-27_13h23.27.751,WP_VExplicitOC_HL,2022.2.5,Win32,7.979954355,-64.0625,4.1725,2.0484,NA,NA,NA,NA,NA,frustrated,"frustrated, not frustrated","more frustrated, less frustrated",NA,NA,NA,NA,NA,NA,NA,NA,NA,NA,NA,NA,NA,NA,NA,NA,NA,NA,NA,NA,NA,NA,NA,NA,NA,NA,NA,NA,NA,NA,NA,NA,NA,NA,NA,NA,NA,NA,0,1,1,1,1,NA,NA,NA,NA,NA
SUPAMT75604,34QN5IT0T5QW1WZMD19TJEYYDOF80Q,AFE90992-58D0-4D01-BC43-F40F2C939205,2023-09-27_13h23.27.751,WP_VExplicitOC_HL,2022.2.5,Win32,7.979954355,-56.25,3.5808,2.0636,NA,NA,NA,NA,NA,bored,"bored, not bored","more bored, less bored",NA,NA,NA,NA,NA,NA,NA,NA,NA,NA,NA,NA,NA,NA,NA,NA,NA,NA,NA,NA,NA,NA,NA,NA,NA,NA,NA,NA,NA,NA,NA,NA,NA,NA,NA,NA,NA,NA,0,2,2,2,1,NA,NA,NA,NA,NA
SUPAMT75604,34QN5IT0T5QW1WZMD19TJEYYDOF80Q,AFE90992-58D0-4D01-BC43-F40F2C939205,2023-09-27_13h23.27.751,WP_VExplicitOC_HL,2022.2.5,Win32,7.979954355,NA,NA,NA,NA,NA,NA,NA,NA,NA,NA,NA,NA,NA,NA,NA,NA,NA,NA,NA,NA,NA,NA,NA,NA,NA,NA,NA,NA,NA,NA,NA,NA,NA,NA,NA,NA,NA,NA,NA,NA,NA,NA,NA,NA,NA,NA,NA,NA,NA,NA,NA,NA,NA,NA,14,0,14,0,1
SUPAMT75604,34QN5IT0T5QW1WZMD19TJEYYDOF80Q,AFE90992-58D0-4D01-BC43-F40F2C939205,2023-09-27_13h23.27.751,WP_VExplicitOC_HL,2022.2.5,Win32,7.979954355,NA,NA,NA,NA,NA,NA,NA,NA,NA,NA,NA,NA,NA,NA,NA,NA,NA,NA,NA,NA,NA,NA,NA,NA,NA,NA,NA,NA,NA,NA,NA,NA,NA,NA,NA,NA,NA,NA,NA,NA,NA,NA,NA,NA,NA,NA,NA,NA,NA,NA,NA,NA,NA,NA,NA,NA,NA,NA,NA
