participant,session,completion,date,expName,psychopyVersion,OS,frameRate,rating_all.response,rating_all.rt,rating_all.tStart,rndRat1.thisRepN,rndRat1.thisTrialN,rndRat1.thisN,rndRat1.thisIndex,rndRat1.ran,Emo,Labs,Labs2,rating_alt.response,rating_alt.rt,AltC.thisRepN,AltC.thisTrialN,AltC.thisN,AltC.thisIndex,AltC.ran,alt_choices,pic_choices,BottomAlt_Choice,rndRat2.thisRepN,rndRat2.thisTrialN,rndRat2.thisN,rndRat2.thisIndex,rndRat2.ran,rndRat3.thisRepN,rndRat3.thisTrialN,rndRat3.thisN,rndRat3.thisIndex,rndRat3.ran,trials_FC_L.thisRepN,trials_FC_L.thisTrialN,trials_FC_L.thisN,trials_FC_L.thisIndex,trials_FC_L.ran,rating_alt_2.response,rating_alt_2.rt,AltC2.thisRepN,AltC2.thisTrialN,AltC2.thisN,AltC2.thisIndex,AltC2.ran,TopAlt_Choice,rndRat4.thisRepN,rndRat4.thisTrialN,rndRat4.thisN,rndRat4.thisIndex,rndRat4.ran,rndRat5.thisRepN,rndRat5.thisTrialN,rndRat5.thisN,rndRat5.thisIndex,rndRat5.ran,trials_FC_H.thisRepN,trials_FC_H.thisTrialN,trials_FC_H.thisN,trials_FC_H.thisIndex,trials_FC_H.ran
SUPAMT25545,3E337GFOLF7EF7XBX5NFM3B98T2NGG,41B9889C-C7EB-4D60-8BB6-EFAD40A67D01,2023-09-26_11h06.31.660,WP_VExplicitOC_LH,2022.2.5,Win32,7.619802342,NA,NA,NA,NA,NA,NA,NA,NA,NA,NA,NA,NA,NA,NA,NA,NA,NA,NA,NA,NA,NA,NA,NA,NA,NA,NA,NA,NA,NA,NA,NA,NA,NA,NA,NA,NA,NA,NA,NA,NA,NA,NA,NA,NA,NA,NA,NA,NA,NA,NA,NA,NA,NA,NA,NA,NA,NA,NA,NA
SUPAMT25545,3E337GFOLF7EF7XBX5NFM3B98T2NGG,41B9889C-C7EB-4D60-8BB6-EFAD40A67D01,2023-09-26_11h06.31.660,WP_VExplicitOC_LH,2022.2.5,Win32,7.619802342,NA,NA,NA,NA,NA,NA,NA,NA,NA,NA,NA,NA,NA,NA,NA,NA,NA,NA,NA,NA,NA,NA,NA,NA,NA,NA,NA,NA,NA,NA,NA,NA,NA,NA,NA,NA,NA,NA,NA,NA,NA,NA,NA,NA,NA,NA,NA,NA,NA,NA,NA,NA,NA,NA,NA,NA,NA,NA,NA
SUPAMT25545,3E337GFOLF7EF7XBX5NFM3B98T2NGG,41B9889C-C7EB-4D60-8BB6-EFAD40A67D01,2023-09-26_11h06.31.660,WP_VExplicitOC_LH,2022.2.5,Win32,7.619802342,NA,NA,NA,NA,NA,NA,NA,NA,NA,NA,NA,NA,NA,NA,NA,NA,NA,NA,NA,NA,NA,NA,NA,NA,NA,NA,NA,NA,NA,NA,NA,NA,NA,NA,NA,NA,NA,NA,NA,NA,NA,NA,NA,NA,NA,NA,NA,NA,NA,NA,NA,NA,NA,NA,NA,NA,NA,NA,NA
SUPAMT25545,3E337GFOLF7EF7XBX5NFM3B98T2NGG,41B9889C-C7EB-4D60-8BB6-EFAD40A67D01,2023-09-26_11h06.31.660,WP_VExplicitOC_LH,2022.2.5,Win32,7.619802342,39.32291667,6.2444,2.134,0,0,0,1,1,frustrated,"frustrated, not frustrated","more frustrated, less frustrated",NA,NA,NA,NA,NA,NA,NA,NA,NA,NA,NA,NA,NA,NA,NA,NA,NA,NA,NA,NA,NA,NA,NA,NA,NA,NA,NA,NA,NA,NA,NA,NA,NA,NA,NA,NA,NA,NA,NA,NA,NA,NA,NA,NA,NA,NA,NA,NA
SUPAMT25545,3E337GFOLF7EF7XBX5NFM3B98T2NGG,41B9889C-C7EB-4D60-8BB6-EFAD40A67D01,2023-09-26_11h06.31.660,WP_VExplicitOC_LH,2022.2.5,Win32,7.619802342,48.17708333,4.5983,2.0076,0,1,1,0,1,happy,"unhappy, happy","less happy, more happy",NA,NA,NA,NA,NA,NA,NA,NA,NA,NA,NA,NA,NA,NA,NA,NA,NA,NA,NA,NA,NA,NA,NA,NA,NA,NA,NA,NA,NA,NA,NA,NA,NA,NA,NA,NA,NA,NA,NA,NA,NA,NA,NA,NA,NA,NA,NA,NA
SUPAMT25545,3E337GFOLF7EF7XBX5NFM3B98T2NGG,41B9889C-C7EB-4D60-8BB6-EFAD40A67D01,2023-09-26_11h06.31.660,WP_VExplicitOC_LH,2022.2.5,Win32,7.619802342,49.47916667,5.5042,2.2241,0,2,2,2,1,bored,"bored, not bored","more bored, less bored",NA,NA,NA,NA,NA,NA,NA,NA,NA,NA,NA,NA,NA,NA,NA,NA,NA,NA,NA,NA,NA,NA,NA,NA,NA,NA,NA,NA,NA,NA,NA,NA,NA,NA,NA,NA,NA,NA,NA,NA,NA,NA,NA,NA,NA,NA,NA,NA
SUPAMT25545,3E337GFOLF7EF7XBX5NFM3B98T2NGG,41B9889C-C7EB-4D60-8BB6-EFAD40A67D01,2023-09-26_11h06.31.660,WP_VExplicitOC_LH,2022.2.5,Win32,7.619802342,NA,NA,NA,NA,NA,NA,NA,NA,NA,NA,NA,NA,NA,NA,NA,NA,NA,NA,NA,NA,NA,NA,NA,NA,NA,NA,NA,NA,NA,NA,NA,NA,NA,NA,NA,NA,NA,NA,NA,NA,NA,NA,NA,NA,NA,NA,NA,NA,NA,NA,NA,NA,NA,NA,NA,NA,NA,NA,NA
SUPAMT25545,3E337GFOLF7EF7XBX5NFM3B98T2NGG,41B9889C-C7EB-4D60-8BB6-EFAD40A67D01,2023-09-26_11h06.31.660,WP_VExplicitOC_LH,2022.2.5,Win32,7.619802342,NA,NA,NA,NA,NA,NA,NA,NA,NA,NA,NA,NA,NA,NA,NA,NA,NA,NA,NA,NA,NA,NA,NA,NA,NA,NA,NA,NA,NA,NA,NA,NA,NA,NA,NA,NA,NA,NA,NA,NA,NA,NA,NA,NA,NA,NA,NA,NA,NA,NA,NA,NA,NA,NA,NA,NA,NA,NA,NA
SUPAMT25545,3E337GFOLF7EF7XBX5NFM3B98T2NGG,41B9889C-C7EB-4D60-8BB6-EFAD40A67D01,2023-09-26_11h06.31.660,WP_VExplicitOC_LH,2022.2.5,Win32,7.619802342,NA,NA,NA,NA,NA,NA,NA,NA,NA,NA,NA,NA,NA,NA,NA,NA,NA,NA,NA,NA,NA,NA,NA,NA,NA,NA,NA,NA,NA,NA,NA,NA,NA,NA,NA,NA,NA,NA,NA,NA,NA,NA,NA,NA,NA,NA,NA,NA,NA,NA,NA,NA,NA,NA,NA,NA,NA,NA,NA
SUPAMT25545,3E337GFOLF7EF7XBX5NFM3B98T2NGG,41B9889C-C7EB-4D60-8BB6-EFAD40A67D01,2023-09-26_11h06.31.660,WP_VExplicitOC_LH,2022.2.5,Win32,7.619802342,NA,NA,NA,NA,NA,NA,NA,NA,NA,NA,NA,NA,NA,NA,NA,NA,NA,NA,NA,NA,NA,NA,NA,NA,NA,NA,NA,NA,NA,NA,NA,NA,NA,NA,NA,NA,NA,NA,NA,NA,NA,NA,NA,NA,NA,NA,NA,NA,NA,NA,NA,NA,NA,NA,NA,NA,NA,NA,NA
SUPAMT25545,3E337GFOLF7EF7XBX5NFM3B98T2NGG,41B9889C-C7EB-4D60-8BB6-EFAD40A67D01,2023-09-26_11h06.31.660,WP_VExplicitOC_LH,2022.2.5,Win32,7.619802342,NA,NA,NA,NA,NA,NA,NA,NA,NA,NA,NA,53.125,4.1084,0,0,0,0,1,rest (looking at a fixed cross),001.png,NA,NA,NA,NA,NA,NA,NA,NA,NA,NA,NA,NA,NA,NA,NA,NA,NA,NA,NA,NA,NA,NA,NA,NA,NA,NA,NA,NA,NA,NA,NA,NA,NA,NA,NA,NA,NA,NA,NA
SUPAMT25545,3E337GFOLF7EF7XBX5NFM3B98T2NGG,41B9889C-C7EB-4D60-8BB6-EFAD40A67D01,2023-09-26_11h06.31.660,WP_VExplicitOC_LH,2022.2.5,Win32,7.619802342,NA,NA,NA,NA,NA,NA,NA,NA,NA,NA,NA,52.34375,0.787,0,1,1,1,1,stand up,002.png,NA,NA,NA,NA,NA,NA,NA,NA,NA,NA,NA,NA,NA,NA,NA,NA,NA,NA,NA,NA,NA,NA,NA,NA,NA,NA,NA,NA,NA,NA,NA,NA,NA,NA,NA,NA,NA,NA,NA
SUPAMT25545,3E337GFOLF7EF7XBX5NFM3B98T2NGG,41B9889C-C7EB-4D60-8BB6-EFAD40A67D01,2023-09-26_11h06.31.660,WP_VExplicitOC_LH,2022.2.5,Win32,7.619802342,NA,NA,NA,NA,NA,NA,NA,NA,NA,NA,NA,48.4375,1.1919,0,2,2,2,1,stretch,003.png,NA,NA,NA,NA,NA,NA,NA,NA,NA,NA,NA,NA,NA,NA,NA,NA,NA,NA,NA,NA,NA,NA,NA,NA,NA,NA,NA,NA,NA,NA,NA,NA,NA,NA,NA,NA,NA,NA,NA
SUPAMT25545,3E337GFOLF7EF7XBX5NFM3B98T2NGG,41B9889C-C7EB-4D60-8BB6-EFAD40A67D01,2023-09-26_11h06.31.660,WP_VExplicitOC_LH,2022.2.5,Win32,7.619802342,NA,NA,NA,NA,NA,NA,NA,NA,NA,NA,NA,48.4375,1.5746,0,3,3,3,1,make a drink,004.png,NA,NA,NA,NA,NA,NA,NA,NA,NA,NA,NA,NA,NA,NA,NA,NA,NA,NA,NA,NA,NA,NA,NA,NA,NA,NA,NA,NA,NA,NA,NA,NA,NA,NA,NA,NA,NA,NA,NA
SUPAMT25545,3E337GFOLF7EF7XBX5NFM3B98T2NGG,41B9889C-C7EB-4D60-8BB6-EFAD40A67D01,2023-09-26_11h06.31.660,WP_VExplicitOC_LH,2022.2.5,Win32,7.619802342,NA,NA,NA,NA,NA,NA,NA,NA,NA,NA,NA,47.39583333,6.1198,0,4,4,4,1,scroll social media,005.png,NA,NA,NA,NA,NA,NA,NA,NA,NA,NA,NA,NA,NA,NA,NA,NA,NA,NA,NA,NA,NA,NA,NA,NA,NA,NA,NA,NA,NA,NA,NA,NA,NA,NA,NA,NA,NA,NA,NA
SUPAMT25545,3E337GFOLF7EF7XBX5NFM3B98T2NGG,41B9889C-C7EB-4D60-8BB6-EFAD40A67D01,2023-09-26_11h06.31.660,WP_VExplicitOC_LH,2022.2.5,Win32,7.619802342,NA,NA,NA,NA,NA,NA,NA,NA,NA,NA,NA,47.39583333,1.5296,0,5,5,5,1,listen to music,006.png,NA,NA,NA,NA,NA,NA,NA,NA,NA,NA,NA,NA,NA,NA,NA,NA,NA,NA,NA,NA,NA,NA,NA,NA,NA,NA,NA,NA,NA,NA,NA,NA,NA,NA,NA,NA,NA,NA,NA
SUPAMT25545,3E337GFOLF7EF7XBX5NFM3B98T2NGG,41B9889C-C7EB-4D60-8BB6-EFAD40A67D01,2023-09-26_11h06.31.660,WP_VExplicitOC_LH,2022.2.5,Win32,7.619802342,NA,NA,NA,NA,NA,NA,NA,NA,NA,NA,NA,47.39583333,0.6385,0,6,6,6,1,daydream,007.png,NA,NA,NA,NA,NA,NA,NA,NA,NA,NA,NA,NA,NA,NA,NA,NA,NA,NA,NA,NA,NA,NA,NA,NA,NA,NA,NA,NA,NA,NA,NA,NA,NA,NA,NA,NA,NA,NA,NA
SUPAMT25545,3E337GFOLF7EF7XBX5NFM3B98T2NGG,41B9889C-C7EB-4D60-8BB6-EFAD40A67D01,2023-09-26_11h06.31.660,WP_VExplicitOC_LH,2022.2.5,Win32,7.619802342,NA,NA,NA,NA,NA,NA,NA,NA,NA,NA,NA,47.39583333,1.5159,0,7,7,7,1,watch a short animation,008.png,NA,NA,NA,NA,NA,NA,NA,NA,NA,NA,NA,NA,NA,NA,NA,NA,NA,NA,NA,NA,NA,NA,NA,NA,NA,NA,NA,NA,NA,NA,NA,NA,NA,NA,NA,NA,NA,NA,NA
SUPAMT25545,3E337GFOLF7EF7XBX5NFM3B98T2NGG,41B9889C-C7EB-4D60-8BB6-EFAD40A67D01,2023-09-26_11h06.31.660,WP_VExplicitOC_LH,2022.2.5,Win32,7.619802342,NA,NA,NA,NA,NA,NA,NA,NA,NA,NA,NA,38.28125,2.184,0,8,8,8,1,read a novel,009.png,NA,NA,NA,NA,NA,NA,NA,NA,NA,NA,NA,NA,NA,NA,NA,NA,NA,NA,NA,NA,NA,NA,NA,NA,NA,NA,NA,NA,NA,NA,NA,NA,NA,NA,NA,NA,NA,NA,NA
SUPAMT25545,3E337GFOLF7EF7XBX5NFM3B98T2NGG,41B9889C-C7EB-4D60-8BB6-EFAD40A67D01,2023-09-26_11h06.31.660,WP_VExplicitOC_LH,2022.2.5,Win32,7.619802342,NA,NA,NA,NA,NA,NA,NA,NA,NA,NA,NA,29.42708333,2.381,0,9,9,9,1,read the news,010.png,NA,NA,NA,NA,NA,NA,NA,NA,NA,NA,NA,NA,NA,NA,NA,NA,NA,NA,NA,NA,NA,NA,NA,NA,NA,NA,NA,NA,NA,NA,NA,NA,NA,NA,NA,NA,NA,NA,NA
SUPAMT25545,3E337GFOLF7EF7XBX5NFM3B98T2NGG,41B9889C-C7EB-4D60-8BB6-EFAD40A67D01,2023-09-26_11h06.31.660,WP_VExplicitOC_LH,2022.2.5,Win32,7.619802342,NA,NA,NA,NA,NA,NA,NA,NA,NA,NA,NA,NA,NA,NA,NA,NA,NA,NA,NA,NA,NA,NA,NA,NA,NA,NA,NA,NA,NA,NA,NA,NA,NA,NA,NA,NA,NA,NA,NA,NA,NA,NA,NA,NA,NA,NA,NA,NA,NA,NA,NA,NA,NA,NA,NA,NA,NA,NA,NA
SUPAMT25545,3E337GFOLF7EF7XBX5NFM3B98T2NGG,41B9889C-C7EB-4D60-8BB6-EFAD40A67D01,2023-09-26_11h06.31.660,WP_VExplicitOC_LH,2022.2.5,Win32,7.619802342,NA,NA,NA,NA,NA,NA,NA,NA,NA,NA,NA,NA,NA,NA,NA,NA,NA,NA,NA,NA,read the news,NA,NA,NA,NA,NA,NA,NA,NA,NA,NA,NA,NA,NA,NA,NA,NA,NA,NA,NA,NA,NA,NA,NA,NA,NA,NA,NA,NA,NA,NA,NA,NA,NA,NA,NA,NA,NA,NA
SUPAMT25545,3E337GFOLF7EF7XBX5NFM3B98T2NGG,41B9889C-C7EB-4D60-8BB6-EFAD40A67D01,2023-09-26_11h06.31.660,WP_VExplicitOC_LH,2022.2.5,Win32,7.619802342,-50.52083333,5.9215,2.0703,NA,NA,NA,NA,NA,bored,"bored, not bored","more bored, less bored",NA,NA,NA,NA,NA,NA,NA,NA,NA,NA,0,0,0,2,1,NA,NA,NA,NA,NA,NA,NA,NA,NA,NA,NA,NA,NA,NA,NA,NA,NA,NA,NA,NA,NA,NA,NA,NA,NA,NA,NA,NA,NA,NA,NA,NA,NA
SUPAMT25545,3E337GFOLF7EF7XBX5NFM3B98T2NGG,41B9889C-C7EB-4D60-8BB6-EFAD40A67D01,2023-09-26_11h06.31.660,WP_VExplicitOC_LH,2022.2.5,Win32,7.619802342,45.83333333,4.6732,2.0998,NA,NA,NA,NA,NA,happy,"unhappy, happy","less happy, more happy",NA,NA,NA,NA,NA,NA,NA,NA,NA,NA,0,1,1,0,1,NA,NA,NA,NA,NA,NA,NA,NA,NA,NA,NA,NA,NA,NA,NA,NA,NA,NA,NA,NA,NA,NA,NA,NA,NA,NA,NA,NA,NA,NA,NA,NA,NA
SUPAMT25545,3E337GFOLF7EF7XBX5NFM3B98T2NGG,41B9889C-C7EB-4D60-8BB6-EFAD40A67D01,2023-09-26_11h06.31.660,WP_VExplicitOC_LH,2022.2.5,Win32,7.619802342,52.34375,3.8119,2.0872,NA,NA,NA,NA,NA,frustrated,"frustrated, not frustrated","more frustrated, less frustrated",NA,NA,NA,NA,NA,NA,NA,NA,NA,NA,0,2,2,1,1,NA,NA,NA,NA,NA,NA,NA,NA,NA,NA,NA,NA,NA,NA,NA,NA,NA,NA,NA,NA,NA,NA,NA,NA,NA,NA,NA,NA,NA,NA,NA,NA,NA
SUPAMT25545,3E337GFOLF7EF7XBX5NFM3B98T2NGG,41B9889C-C7EB-4D60-8BB6-EFAD40A67D01,2023-09-26_11h06.31.660,WP_VExplicitOC_LH,2022.2.5,Win32,7.619802342,NA,NA,NA,NA,NA,NA,NA,NA,NA,NA,NA,NA,NA,NA,NA,NA,NA,NA,NA,NA,NA,NA,NA,NA,NA,NA,NA,NA,NA,NA,NA,NA,NA,NA,NA,NA,NA,NA,NA,NA,NA,NA,NA,NA,NA,NA,NA,NA,NA,NA,NA,NA,NA,NA,NA,NA,NA,NA,NA
SUPAMT25545,3E337GFOLF7EF7XBX5NFM3B98T2NGG,41B9889C-C7EB-4D60-8BB6-EFAD40A67D01,2023-09-26_11h06.31.660,WP_VExplicitOC_LH,2022.2.5,Win32,7.619802342,NA,NA,NA,NA,NA,NA,NA,NA,NA,NA,NA,NA,NA,NA,NA,NA,NA,NA,NA,NA,NA,NA,NA,NA,NA,NA,NA,NA,NA,NA,NA,NA,NA,NA,NA,NA,NA,NA,NA,NA,NA,NA,NA,NA,NA,NA,NA,NA,NA,NA,NA,NA,NA,NA,NA,NA,NA,NA,NA
SUPAMT25545,3E337GFOLF7EF7XBX5NFM3B98T2NGG,41B9889C-C7EB-4D60-8BB6-EFAD40A67D01,2023-09-26_11h06.31.660,WP_VExplicitOC_LH,2022.2.5,Win32,7.619802342,-57.03125,5.2001,2.2004,NA,NA,NA,NA,NA,frustrated,"frustrated, not frustrated","more frustrated, less frustrated",NA,NA,NA,NA,NA,NA,NA,NA,NA,NA,NA,NA,NA,NA,NA,0,0,0,1,1,NA,NA,NA,NA,NA,NA,NA,NA,NA,NA,NA,NA,NA,NA,NA,NA,NA,NA,NA,NA,NA,NA,NA,NA,NA,NA,NA,NA
SUPAMT25545,3E337GFOLF7EF7XBX5NFM3B98T2NGG,41B9889C-C7EB-4D60-8BB6-EFAD40A67D01,2023-09-26_11h06.31.660,WP_VExplicitOC_LH,2022.2.5,Win32,7.619802342,62.5,4.8822,2,NA,NA,NA,NA,NA,happy,"unhappy, happy","less happy, more happy",NA,NA,NA,NA,NA,NA,NA,NA,NA,NA,NA,NA,NA,NA,NA,0,1,1,0,1,NA,NA,NA,NA,NA,NA,NA,NA,NA,NA,NA,NA,NA,NA,NA,NA,NA,NA,NA,NA,NA,NA,NA,NA,NA,NA,NA,NA
SUPAMT25545,3E337GFOLF7EF7XBX5NFM3B98T2NGG,41B9889C-C7EB-4D60-8BB6-EFAD40A67D01,2023-09-26_11h06.31.660,WP_VExplicitOC_LH,2022.2.5,Win32,7.619802342,-61.71875,4.6676,2.002,NA,NA,NA,NA,NA,bored,"bored, not bored","more bored, less bored",NA,NA,NA,NA,NA,NA,NA,NA,NA,NA,NA,NA,NA,NA,NA,0,2,2,2,1,NA,NA,NA,NA,NA,NA,NA,NA,NA,NA,NA,NA,NA,NA,NA,NA,NA,NA,NA,NA,NA,NA,NA,NA,NA,NA,NA,NA
SUPAMT25545,3E337GFOLF7EF7XBX5NFM3B98T2NGG,41B9889C-C7EB-4D60-8BB6-EFAD40A67D01,2023-09-26_11h06.31.660,WP_VExplicitOC_LH,2022.2.5,Win32,7.619802342,NA,NA,NA,NA,NA,NA,NA,NA,NA,NA,NA,NA,NA,NA,NA,NA,NA,NA,NA,NA,NA,NA,NA,NA,NA,NA,NA,NA,NA,NA,NA,0,0,0,0,1,NA,NA,NA,NA,NA,NA,NA,NA,NA,NA,NA,NA,NA,NA,NA,NA,NA,NA,NA,NA,NA,NA,NA
SUPAMT25545,3E337GFOLF7EF7XBX5NFM3B98T2NGG,41B9889C-C7EB-4D60-8BB6-EFAD40A67D01,2023-09-26_11h06.31.660,WP_VExplicitOC_LH,2022.2.5,Win32,7.619802342,-66.66666667,5.033,2.3221,NA,NA,NA,NA,NA,frustrated,"frustrated, not frustrated","more frustrated, less frustrated",NA,NA,NA,NA,NA,NA,NA,NA,NA,NA,NA,NA,NA,NA,NA,0,0,0,1,1,NA,NA,NA,NA,NA,NA,NA,NA,NA,NA,NA,NA,NA,NA,NA,NA,NA,NA,NA,NA,NA,NA,NA,NA,NA,NA,NA,NA
SUPAMT25545,3E337GFOLF7EF7XBX5NFM3B98T2NGG,41B9889C-C7EB-4D60-8BB6-EFAD40A67D01,2023-09-26_11h06.31.660,WP_VExplicitOC_LH,2022.2.5,Win32,7.619802342,-64.84375,4.1469,2.0495,NA,NA,NA,NA,NA,bored,"bored, not bored","more bored, less bored",NA,NA,NA,NA,NA,NA,NA,NA,NA,NA,NA,NA,NA,NA,NA,0,1,1,2,1,NA,NA,NA,NA,NA,NA,NA,NA,NA,NA,NA,NA,NA,NA,NA,NA,NA,NA,NA,NA,NA,NA,NA,NA,NA,NA,NA,NA
SUPAMT25545,3E337GFOLF7EF7XBX5NFM3B98T2NGG,41B9889C-C7EB-4D60-8BB6-EFAD40A67D01,2023-09-26_11h06.31.660,WP_VExplicitOC_LH,2022.2.5,Win32,7.619802342,66.66666667,5.0799,2.1492,NA,NA,NA,NA,NA,happy,"unhappy, happy","less happy, more happy",NA,NA,NA,NA,NA,NA,NA,NA,NA,NA,NA,NA,NA,NA,NA,0,2,2,0,1,NA,NA,NA,NA,NA,NA,NA,NA,NA,NA,NA,NA,NA,NA,NA,NA,NA,NA,NA,NA,NA,NA,NA,NA,NA,NA,NA,NA
SUPAMT25545,3E337GFOLF7EF7XBX5NFM3B98T2NGG,41B9889C-C7EB-4D60-8BB6-EFAD40A67D01,2023-09-26_11h06.31.660,WP_VExplicitOC_LH,2022.2.5,Win32,7.619802342,NA,NA,NA,NA,NA,NA,NA,NA,NA,NA,NA,NA,NA,NA,NA,NA,NA,NA,NA,NA,NA,NA,NA,NA,NA,NA,NA,NA,NA,NA,NA,1,0,1,0,1,NA,NA,NA,NA,NA,NA,NA,NA,NA,NA,NA,NA,NA,NA,NA,NA,NA,NA,NA,NA,NA,NA,NA
SUPAMT25545,3E337GFOLF7EF7XBX5NFM3B98T2NGG,41B9889C-C7EB-4D60-8BB6-EFAD40A67D01,2023-09-26_11h06.31.660,WP_VExplicitOC_LH,2022.2.5,Win32,7.619802342,NA,NA,2.1319,NA,NA,NA,NA,NA,happy,"unhappy, happy","less happy, more happy",NA,NA,NA,NA,NA,NA,NA,NA,NA,NA,NA,NA,NA,NA,NA,0,0,0,0,1,NA,NA,NA,NA,NA,NA,NA,NA,NA,NA,NA,NA,NA,NA,NA,NA,NA,NA,NA,NA,NA,NA,NA,NA,NA,NA,NA,NA
SUPAMT25545,3E337GFOLF7EF7XBX5NFM3B98T2NGG,41B9889C-C7EB-4D60-8BB6-EFAD40A67D01,2023-09-26_11h06.31.660,WP_VExplicitOC_LH,2022.2.5,Win32,7.619802342,NA,NA,2.1883,NA,NA,NA,NA,NA,frustrated,"frustrated, not frustrated","more frustrated, less frustrated",NA,NA,NA,NA,NA,NA,NA,NA,NA,NA,NA,NA,NA,NA,NA,0,1,1,1,1,NA,NA,NA,NA,NA,NA,NA,NA,NA,NA,NA,NA,NA,NA,NA,NA,NA,NA,NA,NA,NA,NA,NA,NA,NA,NA,NA,NA
SUPAMT25545,3E337GFOLF7EF7XBX5NFM3B98T2NGG,41B9889C-C7EB-4D60-8BB6-EFAD40A67D01,2023-09-26_11h06.31.660,WP_VExplicitOC_LH,2022.2.5,Win32,7.619802342,NA,NA,2.0117,NA,NA,NA,NA,NA,bored,"bored, not bored","more bored, less bored",NA,NA,NA,NA,NA,NA,NA,NA,NA,NA,NA,NA,NA,NA,NA,0,2,2,2,1,NA,NA,NA,NA,NA,NA,NA,NA,NA,NA,NA,NA,NA,NA,NA,NA,NA,NA,NA,NA,NA,NA,NA,NA,NA,NA,NA,NA
SUPAMT25545,3E337GFOLF7EF7XBX5NFM3B98T2NGG,41B9889C-C7EB-4D60-8BB6-EFAD40A67D01,2023-09-26_11h06.31.660,WP_VExplicitOC_LH,2022.2.5,Win32,7.619802342,NA,NA,NA,NA,NA,NA,NA,NA,NA,NA,NA,NA,NA,NA,NA,NA,NA,NA,NA,NA,NA,NA,NA,NA,NA,NA,NA,NA,NA,NA,NA,2,0,2,0,1,NA,NA,NA,NA,NA,NA,NA,NA,NA,NA,NA,NA,NA,NA,NA,NA,NA,NA,NA,NA,NA,NA,NA
SUPAMT25545,3E337GFOLF7EF7XBX5NFM3B98T2NGG,41B9889C-C7EB-4D60-8BB6-EFAD40A67D01,2023-09-26_11h06.31.660,WP_VExplicitOC_LH,2022.2.5,Win32,7.619802342,-59.11458333,4.196,2.0221,NA,NA,NA,NA,NA,bored,"bored, not bored","more bored, less bored",NA,NA,NA,NA,NA,NA,NA,NA,NA,NA,NA,NA,NA,NA,NA,0,0,0,2,1,NA,NA,NA,NA,NA,NA,NA,NA,NA,NA,NA,NA,NA,NA,NA,NA,NA,NA,NA,NA,NA,NA,NA,NA,NA,NA,NA,NA
SUPAMT25545,3E337GFOLF7EF7XBX5NFM3B98T2NGG,41B9889C-C7EB-4D60-8BB6-EFAD40A67D01,2023-09-26_11h06.31.660,WP_VExplicitOC_LH,2022.2.5,Win32,7.619802342,62.23958333,5.5484,2.3376,NA,NA,NA,NA,NA,happy,"unhappy, happy","less happy, more happy",NA,NA,NA,NA,NA,NA,NA,NA,NA,NA,NA,NA,NA,NA,NA,0,1,1,0,1,NA,NA,NA,NA,NA,NA,NA,NA,NA,NA,NA,NA,NA,NA,NA,NA,NA,NA,NA,NA,NA,NA,NA,NA,NA,NA,NA,NA
SUPAMT25545,3E337GFOLF7EF7XBX5NFM3B98T2NGG,41B9889C-C7EB-4D60-8BB6-EFAD40A67D01,2023-09-26_11h06.31.660,WP_VExplicitOC_LH,2022.2.5,Win32,7.619802342,-54.16666667,4.1225,2.1482,NA,NA,NA,NA,NA,frustrated,"frustrated, not frustrated","more frustrated, less frustrated",NA,NA,NA,NA,NA,NA,NA,NA,NA,NA,NA,NA,NA,NA,NA,0,2,2,1,1,NA,NA,NA,NA,NA,NA,NA,NA,NA,NA,NA,NA,NA,NA,NA,NA,NA,NA,NA,NA,NA,NA,NA,NA,NA,NA,NA,NA
SUPAMT25545,3E337GFOLF7EF7XBX5NFM3B98T2NGG,41B9889C-C7EB-4D60-8BB6-EFAD40A67D01,2023-09-26_11h06.31.660,WP_VExplicitOC_LH,2022.2.5,Win32,7.619802342,NA,NA,NA,NA,NA,NA,NA,NA,NA,NA,NA,NA,NA,NA,NA,NA,NA,NA,NA,NA,NA,NA,NA,NA,NA,NA,NA,NA,NA,NA,NA,3,0,3,0,1,NA,NA,NA,NA,NA,NA,NA,NA,NA,NA,NA,NA,NA,NA,NA,NA,NA,NA,NA,NA,NA,NA,NA
SUPAMT25545,3E337GFOLF7EF7XBX5NFM3B98T2NGG,41B9889C-C7EB-4D60-8BB6-EFAD40A67D01,2023-09-26_11h06.31.660,WP_VExplicitOC_LH,2022.2.5,Win32,7.619802342,NA,NA,2.0786,NA,NA,NA,NA,NA,bored,"bored, not bored","more bored, less bored",NA,NA,NA,NA,NA,NA,NA,NA,NA,NA,NA,NA,NA,NA,NA,0,0,0,2,1,NA,NA,NA,NA,NA,NA,NA,NA,NA,NA,NA,NA,NA,NA,NA,NA,NA,NA,NA,NA,NA,NA,NA,NA,NA,NA,NA,NA
SUPAMT25545,3E337GFOLF7EF7XBX5NFM3B98T2NGG,41B9889C-C7EB-4D60-8BB6-EFAD40A67D01,2023-09-26_11h06.31.660,WP_VExplicitOC_LH,2022.2.5,Win32,7.619802342,54.42708333,4.5706,2.0356,NA,NA,NA,NA,NA,happy,"unhappy, happy","less happy, more happy",NA,NA,NA,NA,NA,NA,NA,NA,NA,NA,NA,NA,NA,NA,NA,0,1,1,0,1,NA,NA,NA,NA,NA,NA,NA,NA,NA,NA,NA,NA,NA,NA,NA,NA,NA,NA,NA,NA,NA,NA,NA,NA,NA,NA,NA,NA
SUPAMT25545,3E337GFOLF7EF7XBX5NFM3B98T2NGG,41B9889C-C7EB-4D60-8BB6-EFAD40A67D01,2023-09-26_11h06.31.660,WP_VExplicitOC_LH,2022.2.5,Win32,7.619802342,-69.53125,4.8279,2.1421,NA,NA,NA,NA,NA,frustrated,"frustrated, not frustrated","more frustrated, less frustrated",NA,NA,NA,NA,NA,NA,NA,NA,NA,NA,NA,NA,NA,NA,NA,0,2,2,1,1,NA,NA,NA,NA,NA,NA,NA,NA,NA,NA,NA,NA,NA,NA,NA,NA,NA,NA,NA,NA,NA,NA,NA,NA,NA,NA,NA,NA
SUPAMT25545,3E337GFOLF7EF7XBX5NFM3B98T2NGG,41B9889C-C7EB-4D60-8BB6-EFAD40A67D01,2023-09-26_11h06.31.660,WP_VExplicitOC_LH,2022.2.5,Win32,7.619802342,NA,NA,NA,NA,NA,NA,NA,NA,NA,NA,NA,NA,NA,NA,NA,NA,NA,NA,NA,NA,NA,NA,NA,NA,NA,NA,NA,NA,NA,NA,NA,4,0,4,0,1,NA,NA,NA,NA,NA,NA,NA,NA,NA,NA,NA,NA,NA,NA,NA,NA,NA,NA,NA,NA,NA,NA,NA
SUPAMT25545,3E337GFOLF7EF7XBX5NFM3B98T2NGG,41B9889C-C7EB-4D60-8BB6-EFAD40A67D01,2023-09-26_11h06.31.660,WP_VExplicitOC_LH,2022.2.5,Win32,7.619802342,-63.02083333,4.7123,2.3677,NA,NA,NA,NA,NA,bored,"bored, not bored","more bored, less bored",NA,NA,NA,NA,NA,NA,NA,NA,NA,NA,NA,NA,NA,NA,NA,0,0,0,2,1,NA,NA,NA,NA,NA,NA,NA,NA,NA,NA,NA,NA,NA,NA,NA,NA,NA,NA,NA,NA,NA,NA,NA,NA,NA,NA,NA,NA
SUPAMT25545,3E337GFOLF7EF7XBX5NFM3B98T2NGG,41B9889C-C7EB-4D60-8BB6-EFAD40A67D01,2023-09-26_11h06.31.660,WP_VExplicitOC_LH,2022.2.5,Win32,7.619802342,-57.55208333,4.8361,2.005,NA,NA,NA,NA,NA,frustrated,"frustrated, not frustrated","more frustrated, less frustrated",NA,NA,NA,NA,NA,NA,NA,NA,NA,NA,NA,NA,NA,NA,NA,0,1,1,1,1,NA,NA,NA,NA,NA,NA,NA,NA,NA,NA,NA,NA,NA,NA,NA,NA,NA,NA,NA,NA,NA,NA,NA,NA,NA,NA,NA,NA
SUPAMT25545,3E337GFOLF7EF7XBX5NFM3B98T2NGG,41B9889C-C7EB-4D60-8BB6-EFAD40A67D01,2023-09-26_11h06.31.660,WP_VExplicitOC_LH,2022.2.5,Win32,7.619802342,58.85416667,4.6868,2.0784,NA,NA,NA,NA,NA,happy,"unhappy, happy","less happy, more happy",NA,NA,NA,NA,NA,NA,NA,NA,NA,NA,NA,NA,NA,NA,NA,0,2,2,0,1,NA,NA,NA,NA,NA,NA,NA,NA,NA,NA,NA,NA,NA,NA,NA,NA,NA,NA,NA,NA,NA,NA,NA,NA,NA,NA,NA,NA
SUPAMT25545,3E337GFOLF7EF7XBX5NFM3B98T2NGG,41B9889C-C7EB-4D60-8BB6-EFAD40A67D01,2023-09-26_11h06.31.660,WP_VExplicitOC_LH,2022.2.5,Win32,7.619802342,NA,NA,NA,NA,NA,NA,NA,NA,NA,NA,NA,NA,NA,NA,NA,NA,NA,NA,NA,NA,NA,NA,NA,NA,NA,NA,NA,NA,NA,NA,NA,5,0,5,0,1,NA,NA,NA,NA,NA,NA,NA,NA,NA,NA,NA,NA,NA,NA,NA,NA,NA,NA,NA,NA,NA,NA,NA
SUPAMT25545,3E337GFOLF7EF7XBX5NFM3B98T2NGG,41B9889C-C7EB-4D60-8BB6-EFAD40A67D01,2023-09-26_11h06.31.660,WP_VExplicitOC_LH,2022.2.5,Win32,7.619802342,67.44791667,5.4646,2.2722,NA,NA,NA,NA,NA,happy,"unhappy, happy","less happy, more happy",NA,NA,NA,NA,NA,NA,NA,NA,NA,NA,NA,NA,NA,NA,NA,0,0,0,0,1,NA,NA,NA,NA,NA,NA,NA,NA,NA,NA,NA,NA,NA,NA,NA,NA,NA,NA,NA,NA,NA,NA,NA,NA,NA,NA,NA,NA
SUPAMT25545,3E337GFOLF7EF7XBX5NFM3B98T2NGG,41B9889C-C7EB-4D60-8BB6-EFAD40A67D01,2023-09-26_11h06.31.660,WP_VExplicitOC_LH,2022.2.5,Win32,7.619802342,-57.03125,4.8028,2.0796,NA,NA,NA,NA,NA,bored,"bored, not bored","more bored, less bored",NA,NA,NA,NA,NA,NA,NA,NA,NA,NA,NA,NA,NA,NA,NA,0,1,1,2,1,NA,NA,NA,NA,NA,NA,NA,NA,NA,NA,NA,NA,NA,NA,NA,NA,NA,NA,NA,NA,NA,NA,NA,NA,NA,NA,NA,NA
SUPAMT25545,3E337GFOLF7EF7XBX5NFM3B98T2NGG,41B9889C-C7EB-4D60-8BB6-EFAD40A67D01,2023-09-26_11h06.31.660,WP_VExplicitOC_LH,2022.2.5,Win32,7.619802342,-58.07291667,4.5755,2.042,NA,NA,NA,NA,NA,frustrated,"frustrated, not frustrated","more frustrated, less frustrated",NA,NA,NA,NA,NA,NA,NA,NA,NA,NA,NA,NA,NA,NA,NA,0,2,2,1,1,NA,NA,NA,NA,NA,NA,NA,NA,NA,NA,NA,NA,NA,NA,NA,NA,NA,NA,NA,NA,NA,NA,NA,NA,NA,NA,NA,NA
SUPAMT25545,3E337GFOLF7EF7XBX5NFM3B98T2NGG,41B9889C-C7EB-4D60-8BB6-EFAD40A67D01,2023-09-26_11h06.31.660,WP_VExplicitOC_LH,2022.2.5,Win32,7.619802342,NA,NA,NA,NA,NA,NA,NA,NA,NA,NA,NA,NA,NA,NA,NA,NA,NA,NA,NA,NA,NA,NA,NA,NA,NA,NA,NA,NA,NA,NA,NA,6,0,6,0,1,NA,NA,NA,NA,NA,NA,NA,NA,NA,NA,NA,NA,NA,NA,NA,NA,NA,NA,NA,NA,NA,NA,NA
SUPAMT25545,3E337GFOLF7EF7XBX5NFM3B98T2NGG,41B9889C-C7EB-4D60-8BB6-EFAD40A67D01,2023-09-26_11h06.31.660,WP_VExplicitOC_LH,2022.2.5,Win32,7.619802342,-73.69791667,4.5713,2.061,NA,NA,NA,NA,NA,frustrated,"frustrated, not frustrated","more frustrated, less frustrated",NA,NA,NA,NA,NA,NA,NA,NA,NA,NA,NA,NA,NA,NA,NA,0,0,0,1,1,NA,NA,NA,NA,NA,NA,NA,NA,NA,NA,NA,NA,NA,NA,NA,NA,NA,NA,NA,NA,NA,NA,NA,NA,NA,NA,NA,NA
SUPAMT25545,3E337GFOLF7EF7XBX5NFM3B98T2NGG,41B9889C-C7EB-4D60-8BB6-EFAD40A67D01,2023-09-26_11h06.31.660,WP_VExplicitOC_LH,2022.2.5,Win32,7.619802342,57.03125,4.8039,2.0251,NA,NA,NA,NA,NA,happy,"unhappy, happy","less happy, more happy",NA,NA,NA,NA,NA,NA,NA,NA,NA,NA,NA,NA,NA,NA,NA,0,1,1,0,1,NA,NA,NA,NA,NA,NA,NA,NA,NA,NA,NA,NA,NA,NA,NA,NA,NA,NA,NA,NA,NA,NA,NA,NA,NA,NA,NA,NA
SUPAMT25545,3E337GFOLF7EF7XBX5NFM3B98T2NGG,41B9889C-C7EB-4D60-8BB6-EFAD40A67D01,2023-09-26_11h06.31.660,WP_VExplicitOC_LH,2022.2.5,Win32,7.619802342,-71.35416667,4.8203,2.2201,NA,NA,NA,NA,NA,bored,"bored, not bored","more bored, less bored",NA,NA,NA,NA,NA,NA,NA,NA,NA,NA,NA,NA,NA,NA,NA,0,2,2,2,1,NA,NA,NA,NA,NA,NA,NA,NA,NA,NA,NA,NA,NA,NA,NA,NA,NA,NA,NA,NA,NA,NA,NA,NA,NA,NA,NA,NA
SUPAMT25545,3E337GFOLF7EF7XBX5NFM3B98T2NGG,41B9889C-C7EB-4D60-8BB6-EFAD40A67D01,2023-09-26_11h06.31.660,WP_VExplicitOC_LH,2022.2.5,Win32,7.619802342,NA,NA,NA,NA,NA,NA,NA,NA,NA,NA,NA,NA,NA,NA,NA,NA,NA,NA,NA,NA,NA,NA,NA,NA,NA,NA,NA,NA,NA,NA,NA,7,0,7,0,1,NA,NA,NA,NA,NA,NA,NA,NA,NA,NA,NA,NA,NA,NA,NA,NA,NA,NA,NA,NA,NA,NA,NA
SUPAMT25545,3E337GFOLF7EF7XBX5NFM3B98T2NGG,41B9889C-C7EB-4D60-8BB6-EFAD40A67D01,2023-09-26_11h06.31.660,WP_VExplicitOC_LH,2022.2.5,Win32,7.619802342,-64.32291667,4.3994,2.2056,NA,NA,NA,NA,NA,bored,"bored, not bored","more bored, less bored",NA,NA,NA,NA,NA,NA,NA,NA,NA,NA,NA,NA,NA,NA,NA,0,0,0,2,1,NA,NA,NA,NA,NA,NA,NA,NA,NA,NA,NA,NA,NA,NA,NA,NA,NA,NA,NA,NA,NA,NA,NA,NA,NA,NA,NA,NA
SUPAMT25545,3E337GFOLF7EF7XBX5NFM3B98T2NGG,41B9889C-C7EB-4D60-8BB6-EFAD40A67D01,2023-09-26_11h06.31.660,WP_VExplicitOC_LH,2022.2.5,Win32,7.619802342,-57.8125,4.8275,2.0355,NA,NA,NA,NA,NA,frustrated,"frustrated, not frustrated","more frustrated, less frustrated",NA,NA,NA,NA,NA,NA,NA,NA,NA,NA,NA,NA,NA,NA,NA,0,1,1,1,1,NA,NA,NA,NA,NA,NA,NA,NA,NA,NA,NA,NA,NA,NA,NA,NA,NA,NA,NA,NA,NA,NA,NA,NA,NA,NA,NA,NA
SUPAMT25545,3E337GFOLF7EF7XBX5NFM3B98T2NGG,41B9889C-C7EB-4D60-8BB6-EFAD40A67D01,2023-09-26_11h06.31.660,WP_VExplicitOC_LH,2022.2.5,Win32,7.619802342,77.08333333,4.3006,2.0069,NA,NA,NA,NA,NA,happy,"unhappy, happy","less happy, more happy",NA,NA,NA,NA,NA,NA,NA,NA,NA,NA,NA,NA,NA,NA,NA,0,2,2,0,1,NA,NA,NA,NA,NA,NA,NA,NA,NA,NA,NA,NA,NA,NA,NA,NA,NA,NA,NA,NA,NA,NA,NA,NA,NA,NA,NA,NA
SUPAMT25545,3E337GFOLF7EF7XBX5NFM3B98T2NGG,41B9889C-C7EB-4D60-8BB6-EFAD40A67D01,2023-09-26_11h06.31.660,WP_VExplicitOC_LH,2022.2.5,Win32,7.619802342,NA,NA,NA,NA,NA,NA,NA,NA,NA,NA,NA,NA,NA,NA,NA,NA,NA,NA,NA,NA,NA,NA,NA,NA,NA,NA,NA,NA,NA,NA,NA,8,0,8,0,1,NA,NA,NA,NA,NA,NA,NA,NA,NA,NA,NA,NA,NA,NA,NA,NA,NA,NA,NA,NA,NA,NA,NA
SUPAMT25545,3E337GFOLF7EF7XBX5NFM3B98T2NGG,41B9889C-C7EB-4D60-8BB6-EFAD40A67D01,2023-09-26_11h06.31.660,WP_VExplicitOC_LH,2022.2.5,Win32,7.619802342,-59.63541667,6.5513,2.0083,NA,NA,NA,NA,NA,bored,"bored, not bored","more bored, less bored",NA,NA,NA,NA,NA,NA,NA,NA,NA,NA,NA,NA,NA,NA,NA,0,0,0,2,1,NA,NA,NA,NA,NA,NA,NA,NA,NA,NA,NA,NA,NA,NA,NA,NA,NA,NA,NA,NA,NA,NA,NA,NA,NA,NA,NA,NA
SUPAMT25545,3E337GFOLF7EF7XBX5NFM3B98T2NGG,41B9889C-C7EB-4D60-8BB6-EFAD40A67D01,2023-09-26_11h06.31.660,WP_VExplicitOC_LH,2022.2.5,Win32,7.619802342,-62.23958333,4.3907,2.1383,NA,NA,NA,NA,NA,frustrated,"frustrated, not frustrated","more frustrated, less frustrated",NA,NA,NA,NA,NA,NA,NA,NA,NA,NA,NA,NA,NA,NA,NA,0,1,1,1,1,NA,NA,NA,NA,NA,NA,NA,NA,NA,NA,NA,NA,NA,NA,NA,NA,NA,NA,NA,NA,NA,NA,NA,NA,NA,NA,NA,NA
SUPAMT25545,3E337GFOLF7EF7XBX5NFM3B98T2NGG,41B9889C-C7EB-4D60-8BB6-EFAD40A67D01,2023-09-26_11h06.31.660,WP_VExplicitOC_LH,2022.2.5,Win32,7.619802342,63.54166667,4.8695,2.1124,NA,NA,NA,NA,NA,happy,"unhappy, happy","less happy, more happy",NA,NA,NA,NA,NA,NA,NA,NA,NA,NA,NA,NA,NA,NA,NA,0,2,2,0,1,NA,NA,NA,NA,NA,NA,NA,NA,NA,NA,NA,NA,NA,NA,NA,NA,NA,NA,NA,NA,NA,NA,NA,NA,NA,NA,NA,NA
SUPAMT25545,3E337GFOLF7EF7XBX5NFM3B98T2NGG,41B9889C-C7EB-4D60-8BB6-EFAD40A67D01,2023-09-26_11h06.31.660,WP_VExplicitOC_LH,2022.2.5,Win32,7.619802342,NA,NA,NA,NA,NA,NA,NA,NA,NA,NA,NA,NA,NA,NA,NA,NA,NA,NA,NA,NA,NA,NA,NA,NA,NA,NA,NA,NA,NA,NA,NA,9,0,9,0,1,NA,NA,NA,NA,NA,NA,NA,NA,NA,NA,NA,NA,NA,NA,NA,NA,NA,NA,NA,NA,NA,NA,NA
SUPAMT25545,3E337GFOLF7EF7XBX5NFM3B98T2NGG,41B9889C-C7EB-4D60-8BB6-EFAD40A67D01,2023-09-26_11h06.31.660,WP_VExplicitOC_LH,2022.2.5,Win32,7.619802342,-70.83333333,4.4323,2.012,NA,NA,NA,NA,NA,frustrated,"frustrated, not frustrated","more frustrated, less frustrated",NA,NA,NA,NA,NA,NA,NA,NA,NA,NA,NA,NA,NA,NA,NA,0,0,0,1,1,NA,NA,NA,NA,NA,NA,NA,NA,NA,NA,NA,NA,NA,NA,NA,NA,NA,NA,NA,NA,NA,NA,NA,NA,NA,NA,NA,NA
SUPAMT25545,3E337GFOLF7EF7XBX5NFM3B98T2NGG,41B9889C-C7EB-4D60-8BB6-EFAD40A67D01,2023-09-26_11h06.31.660,WP_VExplicitOC_LH,2022.2.5,Win32,7.619802342,NA,NA,2.2381,NA,NA,NA,NA,NA,happy,"unhappy, happy","less happy, more happy",NA,NA,NA,NA,NA,NA,NA,NA,NA,NA,NA,NA,NA,NA,NA,0,1,1,0,1,NA,NA,NA,NA,NA,NA,NA,NA,NA,NA,NA,NA,NA,NA,NA,NA,NA,NA,NA,NA,NA,NA,NA,NA,NA,NA,NA,NA
SUPAMT25545,3E337GFOLF7EF7XBX5NFM3B98T2NGG,41B9889C-C7EB-4D60-8BB6-EFAD40A67D01,2023-09-26_11h06.31.660,WP_VExplicitOC_LH,2022.2.5,Win32,7.619802342,-62.76041667,4.6871,2.0098,NA,NA,NA,NA,NA,bored,"bored, not bored","more bored, less bored",NA,NA,NA,NA,NA,NA,NA,NA,NA,NA,NA,NA,NA,NA,NA,0,2,2,2,1,NA,NA,NA,NA,NA,NA,NA,NA,NA,NA,NA,NA,NA,NA,NA,NA,NA,NA,NA,NA,NA,NA,NA,NA,NA,NA,NA,NA
SUPAMT25545,3E337GFOLF7EF7XBX5NFM3B98T2NGG,41B9889C-C7EB-4D60-8BB6-EFAD40A67D01,2023-09-26_11h06.31.660,WP_VExplicitOC_LH,2022.2.5,Win32,7.619802342,NA,NA,NA,NA,NA,NA,NA,NA,NA,NA,NA,NA,NA,NA,NA,NA,NA,NA,NA,NA,NA,NA,NA,NA,NA,NA,NA,NA,NA,NA,NA,10,0,10,0,1,NA,NA,NA,NA,NA,NA,NA,NA,NA,NA,NA,NA,NA,NA,NA,NA,NA,NA,NA,NA,NA,NA,NA
SUPAMT25545,3E337GFOLF7EF7XBX5NFM3B98T2NGG,41B9889C-C7EB-4D60-8BB6-EFAD40A67D01,2023-09-26_11h06.31.660,WP_VExplicitOC_LH,2022.2.5,Win32,7.619802342,NA,NA,2.1974,NA,NA,NA,NA,NA,happy,"unhappy, happy","less happy, more happy",NA,NA,NA,NA,NA,NA,NA,NA,NA,NA,NA,NA,NA,NA,NA,0,0,0,0,1,NA,NA,NA,NA,NA,NA,NA,NA,NA,NA,NA,NA,NA,NA,NA,NA,NA,NA,NA,NA,NA,NA,NA,NA,NA,NA,NA,NA
SUPAMT25545,3E337GFOLF7EF7XBX5NFM3B98T2NGG,41B9889C-C7EB-4D60-8BB6-EFAD40A67D01,2023-09-26_11h06.31.660,WP_VExplicitOC_LH,2022.2.5,Win32,7.619802342,NA,NA,2.196,NA,NA,NA,NA,NA,frustrated,"frustrated, not frustrated","more frustrated, less frustrated",NA,NA,NA,NA,NA,NA,NA,NA,NA,NA,NA,NA,NA,NA,NA,0,1,1,1,1,NA,NA,NA,NA,NA,NA,NA,NA,NA,NA,NA,NA,NA,NA,NA,NA,NA,NA,NA,NA,NA,NA,NA,NA,NA,NA,NA,NA
SUPAMT25545,3E337GFOLF7EF7XBX5NFM3B98T2NGG,41B9889C-C7EB-4D60-8BB6-EFAD40A67D01,2023-09-26_11h06.31.660,WP_VExplicitOC_LH,2022.2.5,Win32,7.619802342,NA,NA,2.0596,NA,NA,NA,NA,NA,bored,"bored, not bored","more bored, less bored",NA,NA,NA,NA,NA,NA,NA,NA,NA,NA,NA,NA,NA,NA,NA,0,2,2,2,1,NA,NA,NA,NA,NA,NA,NA,NA,NA,NA,NA,NA,NA,NA,NA,NA,NA,NA,NA,NA,NA,NA,NA,NA,NA,NA,NA,NA
SUPAMT25545,3E337GFOLF7EF7XBX5NFM3B98T2NGG,41B9889C-C7EB-4D60-8BB6-EFAD40A67D01,2023-09-26_11h06.31.660,WP_VExplicitOC_LH,2022.2.5,Win32,7.619802342,NA,NA,NA,NA,NA,NA,NA,NA,NA,NA,NA,NA,NA,NA,NA,NA,NA,NA,NA,NA,NA,NA,NA,NA,NA,NA,NA,NA,NA,NA,NA,11,0,11,0,1,NA,NA,NA,NA,NA,NA,NA,NA,NA,NA,NA,NA,NA,NA,NA,NA,NA,NA,NA,NA,NA,NA,NA
SUPAMT25545,3E337GFOLF7EF7XBX5NFM3B98T2NGG,41B9889C-C7EB-4D60-8BB6-EFAD40A67D01,2023-09-26_11h06.31.660,WP_VExplicitOC_LH,2022.2.5,Win32,7.619802342,-62.35864297,4.5343,2.1339,NA,NA,NA,NA,NA,frustrated,"frustrated, not frustrated","more frustrated, less frustrated",NA,NA,NA,NA,NA,NA,NA,NA,NA,NA,NA,NA,NA,NA,NA,0,0,0,1,1,NA,NA,NA,NA,NA,NA,NA,NA,NA,NA,NA,NA,NA,NA,NA,NA,NA,NA,NA,NA,NA,NA,NA,NA,NA,NA,NA,NA
SUPAMT25545,3E337GFOLF7EF7XBX5NFM3B98T2NGG,41B9889C-C7EB-4D60-8BB6-EFAD40A67D01,2023-09-26_11h06.31.660,WP_VExplicitOC_LH,2022.2.5,Win32,7.619802342,-64.29725363,5.283,2.0901,NA,NA,NA,NA,NA,bored,"bored, not bored","more bored, less bored",NA,NA,NA,NA,NA,NA,NA,NA,NA,NA,NA,NA,NA,NA,NA,0,1,1,2,1,NA,NA,NA,NA,NA,NA,NA,NA,NA,NA,NA,NA,NA,NA,NA,NA,NA,NA,NA,NA,NA,NA,NA,NA,NA,NA,NA,NA
SUPAMT25545,3E337GFOLF7EF7XBX5NFM3B98T2NGG,41B9889C-C7EB-4D60-8BB6-EFAD40A67D01,2023-09-26_11h06.31.660,WP_VExplicitOC_LH,2022.2.5,Win32,7.619802342,55.57350565,5.2353,2.8987,NA,NA,NA,NA,NA,happy,"unhappy, happy","less happy, more happy",NA,NA,NA,NA,NA,NA,NA,NA,NA,NA,NA,NA,NA,NA,NA,0,2,2,0,1,NA,NA,NA,NA,NA,NA,NA,NA,NA,NA,NA,NA,NA,NA,NA,NA,NA,NA,NA,NA,NA,NA,NA,NA,NA,NA,NA,NA
SUPAMT25545,3E337GFOLF7EF7XBX5NFM3B98T2NGG,41B9889C-C7EB-4D60-8BB6-EFAD40A67D01,2023-09-26_11h06.31.660,WP_VExplicitOC_LH,2022.2.5,Win32,7.619802342,NA,NA,NA,NA,NA,NA,NA,NA,NA,NA,NA,NA,NA,NA,NA,NA,NA,NA,NA,NA,NA,NA,NA,NA,NA,NA,NA,NA,NA,NA,NA,12,0,12,0,1,NA,NA,NA,NA,NA,NA,NA,NA,NA,NA,NA,NA,NA,NA,NA,NA,NA,NA,NA,NA,NA,NA,NA
SUPAMT25545,3E337GFOLF7EF7XBX5NFM3B98T2NGG,41B9889C-C7EB-4D60-8BB6-EFAD40A67D01,2023-09-26_11h06.31.660,WP_VExplicitOC_LH,2022.2.5,Win32,7.619802342,-45.23424879,4.3318,2.0005,NA,NA,NA,NA,NA,frustrated,"frustrated, not frustrated","more frustrated, less frustrated",NA,NA,NA,NA,NA,NA,NA,NA,NA,NA,NA,NA,NA,NA,NA,0,0,0,1,1,NA,NA,NA,NA,NA,NA,NA,NA,NA,NA,NA,NA,NA,NA,NA,NA,NA,NA,NA,NA,NA,NA,NA,NA,NA,NA,NA,NA
SUPAMT25545,3E337GFOLF7EF7XBX5NFM3B98T2NGG,41B9889C-C7EB-4D60-8BB6-EFAD40A67D01,2023-09-26_11h06.31.660,WP_VExplicitOC_LH,2022.2.5,Win32,7.619802342,-58.80452342,5.0657,2.1076,NA,NA,NA,NA,NA,bored,"bored, not bored","more bored, less bored",NA,NA,NA,NA,NA,NA,NA,NA,NA,NA,NA,NA,NA,NA,NA,0,1,1,2,1,NA,NA,NA,NA,NA,NA,NA,NA,NA,NA,NA,NA,NA,NA,NA,NA,NA,NA,NA,NA,NA,NA,NA,NA,NA,NA,NA,NA
SUPAMT25545,3E337GFOLF7EF7XBX5NFM3B98T2NGG,41B9889C-C7EB-4D60-8BB6-EFAD40A67D01,2023-09-26_11h06.31.660,WP_VExplicitOC_LH,2022.2.5,Win32,7.619802342,54.9273021,5.2686,2.0992,NA,NA,NA,NA,NA,happy,"unhappy, happy","less happy, more happy",NA,NA,NA,NA,NA,NA,NA,NA,NA,NA,NA,NA,NA,NA,NA,0,2,2,0,1,NA,NA,NA,NA,NA,NA,NA,NA,NA,NA,NA,NA,NA,NA,NA,NA,NA,NA,NA,NA,NA,NA,NA,NA,NA,NA,NA,NA
SUPAMT25545,3E337GFOLF7EF7XBX5NFM3B98T2NGG,41B9889C-C7EB-4D60-8BB6-EFAD40A67D01,2023-09-26_11h06.31.660,WP_VExplicitOC_LH,2022.2.5,Win32,7.619802342,NA,NA,NA,NA,NA,NA,NA,NA,NA,NA,NA,NA,NA,NA,NA,NA,NA,NA,NA,NA,NA,NA,NA,NA,NA,NA,NA,NA,NA,NA,NA,13,0,13,0,1,NA,NA,NA,NA,NA,NA,NA,NA,NA,NA,NA,NA,NA,NA,NA,NA,NA,NA,NA,NA,NA,NA,NA
SUPAMT25545,3E337GFOLF7EF7XBX5NFM3B98T2NGG,41B9889C-C7EB-4D60-8BB6-EFAD40A67D01,2023-09-26_11h06.31.660,WP_VExplicitOC_LH,2022.2.5,Win32,7.619802342,62.35864297,5.1004,2.0435,NA,NA,NA,NA,NA,happy,"unhappy, happy","less happy, more happy",NA,NA,NA,NA,NA,NA,NA,NA,NA,NA,NA,NA,NA,NA,NA,0,0,0,0,1,NA,NA,NA,NA,NA,NA,NA,NA,NA,NA,NA,NA,NA,NA,NA,NA,NA,NA,NA,NA,NA,NA,NA,NA,NA,NA,NA,NA
SUPAMT25545,3E337GFOLF7EF7XBX5NFM3B98T2NGG,41B9889C-C7EB-4D60-8BB6-EFAD40A67D01,2023-09-26_11h06.31.660,WP_VExplicitOC_LH,2022.2.5,Win32,7.619802342,-47.17285945,4.5064,2.1022,NA,NA,NA,NA,NA,frustrated,"frustrated, not frustrated","more frustrated, less frustrated",NA,NA,NA,NA,NA,NA,NA,NA,NA,NA,NA,NA,NA,NA,NA,0,1,1,1,1,NA,NA,NA,NA,NA,NA,NA,NA,NA,NA,NA,NA,NA,NA,NA,NA,NA,NA,NA,NA,NA,NA,NA,NA,NA,NA,NA,NA
SUPAMT25545,3E337GFOLF7EF7XBX5NFM3B98T2NGG,41B9889C-C7EB-4D60-8BB6-EFAD40A67D01,2023-09-26_11h06.31.660,WP_VExplicitOC_LH,2022.2.5,Win32,7.619802342,-71.08239095,4.4575,2.1143,NA,NA,NA,NA,NA,bored,"bored, not bored","more bored, less bored",NA,NA,NA,NA,NA,NA,NA,NA,NA,NA,NA,NA,NA,NA,NA,0,2,2,2,1,NA,NA,NA,NA,NA,NA,NA,NA,NA,NA,NA,NA,NA,NA,NA,NA,NA,NA,NA,NA,NA,NA,NA,NA,NA,NA,NA,NA
SUPAMT25545,3E337GFOLF7EF7XBX5NFM3B98T2NGG,41B9889C-C7EB-4D60-8BB6-EFAD40A67D01,2023-09-26_11h06.31.660,WP_VExplicitOC_LH,2022.2.5,Win32,7.619802342,NA,NA,NA,NA,NA,NA,NA,NA,NA,NA,NA,NA,NA,NA,NA,NA,NA,NA,NA,NA,NA,NA,NA,NA,NA,NA,NA,NA,NA,NA,NA,14,0,14,0,1,NA,NA,NA,NA,NA,NA,NA,NA,NA,NA,NA,NA,NA,NA,NA,NA,NA,NA,NA,NA,NA,NA,NA
SUPAMT25545,3E337GFOLF7EF7XBX5NFM3B98T2NGG,41B9889C-C7EB-4D60-8BB6-EFAD40A67D01,2023-09-26_11h06.31.660,WP_VExplicitOC_LH,2022.2.5,Win32,7.619802342,NA,NA,NA,NA,NA,NA,NA,NA,NA,NA,NA,NA,NA,NA,NA,NA,NA,NA,NA,NA,NA,NA,NA,NA,NA,NA,NA,NA,NA,NA,NA,NA,NA,NA,NA,NA,NA,NA,NA,NA,NA,NA,NA,NA,NA,NA,NA,NA,NA,NA,NA,NA,NA,NA,NA,NA,NA,NA,NA
SUPAMT25545,3E337GFOLF7EF7XBX5NFM3B98T2NGG,41B9889C-C7EB-4D60-8BB6-EFAD40A67D01,2023-09-26_11h06.31.660,WP_VExplicitOC_LH,2022.2.5,Win32,7.619802342,NA,NA,NA,NA,NA,NA,NA,NA,NA,NA,NA,NA,NA,NA,NA,NA,NA,NA,NA,NA,NA,NA,NA,NA,NA,NA,NA,NA,NA,NA,NA,NA,NA,NA,NA,NA,NA,NA,NA,NA,NA,NA,NA,NA,NA,NA,NA,NA,NA,NA,NA,NA,NA,NA,NA,NA,NA,NA,NA
SUPAMT25545,3E337GFOLF7EF7XBX5NFM3B98T2NGG,41B9889C-C7EB-4D60-8BB6-EFAD40A67D01,2023-09-26_11h06.31.660,WP_VExplicitOC_LH,2022.2.5,Win32,7.619802342,NA,NA,NA,NA,NA,NA,NA,NA,NA,NA,NA,NA,NA,NA,NA,NA,NA,NA,rest (looking at a fixed cross),001.png,NA,NA,NA,NA,NA,NA,NA,NA,NA,NA,NA,NA,NA,NA,NA,NA,58.48142165,3.5215,0,0,0,0,1,NA,NA,NA,NA,NA,NA,NA,NA,NA,NA,NA,NA,NA,NA,NA,NA
SUPAMT25545,3E337GFOLF7EF7XBX5NFM3B98T2NGG,41B9889C-C7EB-4D60-8BB6-EFAD40A67D01,2023-09-26_11h06.31.660,WP_VExplicitOC_LH,2022.2.5,Win32,7.619802342,NA,NA,NA,NA,NA,NA,NA,NA,NA,NA,NA,NA,NA,NA,NA,NA,NA,NA,stand up,002.png,NA,NA,NA,NA,NA,NA,NA,NA,NA,NA,NA,NA,NA,NA,NA,NA,58.80452342,1.4443,0,1,1,1,1,NA,NA,NA,NA,NA,NA,NA,NA,NA,NA,NA,NA,NA,NA,NA,NA
SUPAMT25545,3E337GFOLF7EF7XBX5NFM3B98T2NGG,41B9889C-C7EB-4D60-8BB6-EFAD40A67D01,2023-09-26_11h06.31.660,WP_VExplicitOC_LH,2022.2.5,Win32,7.619802342,NA,NA,NA,NA,NA,NA,NA,NA,NA,NA,NA,NA,NA,NA,NA,NA,NA,NA,stretch,003.png,NA,NA,NA,NA,NA,NA,NA,NA,NA,NA,NA,NA,NA,NA,NA,NA,53.31179321,1.9211,0,2,2,2,1,NA,NA,NA,NA,NA,NA,NA,NA,NA,NA,NA,NA,NA,NA,NA,NA
SUPAMT25545,3E337GFOLF7EF7XBX5NFM3B98T2NGG,41B9889C-C7EB-4D60-8BB6-EFAD40A67D01,2023-09-26_11h06.31.660,WP_VExplicitOC_LH,2022.2.5,Win32,7.619802342,NA,NA,NA,NA,NA,NA,NA,NA,NA,NA,NA,NA,NA,NA,NA,NA,NA,NA,make a drink,004.png,NA,NA,NA,NA,NA,NA,NA,NA,NA,NA,NA,NA,NA,NA,NA,NA,54.28109855,1.63,0,3,3,3,1,NA,NA,NA,NA,NA,NA,NA,NA,NA,NA,NA,NA,NA,NA,NA,NA
SUPAMT25545,3E337GFOLF7EF7XBX5NFM3B98T2NGG,41B9889C-C7EB-4D60-8BB6-EFAD40A67D01,2023-09-26_11h06.31.660,WP_VExplicitOC_LH,2022.2.5,Win32,7.619802342,NA,NA,NA,NA,NA,NA,NA,NA,NA,NA,NA,NA,NA,NA,NA,NA,NA,NA,scroll social media,005.png,NA,NA,NA,NA,NA,NA,NA,NA,NA,NA,NA,NA,NA,NA,NA,NA,54.9273021,1.5421,0,4,4,4,1,NA,NA,NA,NA,NA,NA,NA,NA,NA,NA,NA,NA,NA,NA,NA,NA
SUPAMT25545,3E337GFOLF7EF7XBX5NFM3B98T2NGG,41B9889C-C7EB-4D60-8BB6-EFAD40A67D01,2023-09-26_11h06.31.660,WP_VExplicitOC_LH,2022.2.5,Win32,7.619802342,NA,NA,NA,NA,NA,NA,NA,NA,NA,NA,NA,NA,NA,NA,NA,NA,NA,NA,listen to music,006.png,NA,NA,NA,NA,NA,NA,NA,NA,NA,NA,NA,NA,NA,NA,NA,NA,54.60420032,0.8234,0,5,5,5,1,NA,NA,NA,NA,NA,NA,NA,NA,NA,NA,NA,NA,NA,NA,NA,NA
SUPAMT25545,3E337GFOLF7EF7XBX5NFM3B98T2NGG,41B9889C-C7EB-4D60-8BB6-EFAD40A67D01,2023-09-26_11h06.31.660,WP_VExplicitOC_LH,2022.2.5,Win32,7.619802342,NA,NA,NA,NA,NA,NA,NA,NA,NA,NA,NA,NA,NA,NA,NA,NA,NA,NA,daydream,007.png,NA,NA,NA,NA,NA,NA,NA,NA,NA,NA,NA,NA,NA,NA,NA,NA,52.98869144,1.4886,0,6,6,6,1,NA,NA,NA,NA,NA,NA,NA,NA,NA,NA,NA,NA,NA,NA,NA,NA
SUPAMT25545,3E337GFOLF7EF7XBX5NFM3B98T2NGG,41B9889C-C7EB-4D60-8BB6-EFAD40A67D01,2023-09-26_11h06.31.660,WP_VExplicitOC_LH,2022.2.5,Win32,7.619802342,NA,NA,NA,NA,NA,NA,NA,NA,NA,NA,NA,NA,NA,NA,NA,NA,NA,NA,watch a short animation,008.png,NA,NA,NA,NA,NA,NA,NA,NA,NA,NA,NA,NA,NA,NA,NA,NA,52.34248788,1.3001,0,7,7,7,1,NA,NA,NA,NA,NA,NA,NA,NA,NA,NA,NA,NA,NA,NA,NA,NA
SUPAMT25545,3E337GFOLF7EF7XBX5NFM3B98T2NGG,41B9889C-C7EB-4D60-8BB6-EFAD40A67D01,2023-09-26_11h06.31.660,WP_VExplicitOC_LH,2022.2.5,Win32,7.619802342,NA,NA,NA,NA,NA,NA,NA,NA,NA,NA,NA,NA,NA,NA,NA,NA,NA,NA,read a novel,009.png,NA,NA,NA,NA,NA,NA,NA,NA,NA,NA,NA,NA,NA,NA,NA,NA,52.34248788,1.3533,0,8,8,8,1,NA,NA,NA,NA,NA,NA,NA,NA,NA,NA,NA,NA,NA,NA,NA,NA
SUPAMT25545,3E337GFOLF7EF7XBX5NFM3B98T2NGG,41B9889C-C7EB-4D60-8BB6-EFAD40A67D01,2023-09-26_11h06.31.660,WP_VExplicitOC_LH,2022.2.5,Win32,7.619802342,NA,NA,NA,NA,NA,NA,NA,NA,NA,NA,NA,NA,NA,NA,NA,NA,NA,NA,read the news,010.png,NA,NA,NA,NA,NA,NA,NA,NA,NA,NA,NA,NA,NA,NA,NA,NA,52.01938611,1.1831,0,9,9,9,1,NA,NA,NA,NA,NA,NA,NA,NA,NA,NA,NA,NA,NA,NA,NA,NA
SUPAMT25545,3E337GFOLF7EF7XBX5NFM3B98T2NGG,41B9889C-C7EB-4D60-8BB6-EFAD40A67D01,2023-09-26_11h06.31.660,WP_VExplicitOC_LH,2022.2.5,Win32,7.619802342,NA,NA,NA,NA,NA,NA,NA,NA,NA,NA,NA,NA,NA,NA,NA,NA,NA,NA,NA,NA,NA,NA,NA,NA,NA,NA,NA,NA,NA,NA,NA,NA,NA,NA,NA,NA,NA,NA,NA,NA,NA,NA,NA,stand up,NA,NA,NA,NA,NA,NA,NA,NA,NA,NA,NA,NA,NA,NA,NA
SUPAMT25545,3E337GFOLF7EF7XBX5NFM3B98T2NGG,41B9889C-C7EB-4D60-8BB6-EFAD40A67D01,2023-09-26_11h06.31.660,WP_VExplicitOC_LH,2022.2.5,Win32,7.619802342,-67.20516963,4.6797,2.0128,NA,NA,NA,NA,NA,frustrated,"frustrated, not frustrated","more frustrated, less frustrated",NA,NA,NA,NA,NA,NA,NA,NA,NA,NA,NA,NA,NA,NA,NA,NA,NA,NA,NA,NA,NA,NA,NA,NA,NA,NA,NA,NA,NA,NA,NA,NA,NA,0,0,0,1,1,NA,NA,NA,NA,NA,NA,NA,NA,NA,NA
SUPAMT25545,3E337GFOLF7EF7XBX5NFM3B98T2NGG,41B9889C-C7EB-4D60-8BB6-EFAD40A67D01,2023-09-26_11h06.31.660,WP_VExplicitOC_LH,2022.2.5,Win32,7.619802342,54.9273021,3.9738,2.1072,NA,NA,NA,NA,NA,happy,"unhappy, happy","less happy, more happy",NA,NA,NA,NA,NA,NA,NA,NA,NA,NA,NA,NA,NA,NA,NA,NA,NA,NA,NA,NA,NA,NA,NA,NA,NA,NA,NA,NA,NA,NA,NA,NA,NA,0,1,1,0,1,NA,NA,NA,NA,NA,NA,NA,NA,NA,NA
SUPAMT25545,3E337GFOLF7EF7XBX5NFM3B98T2NGG,41B9889C-C7EB-4D60-8BB6-EFAD40A67D01,2023-09-26_11h06.31.660,WP_VExplicitOC_LH,2022.2.5,Win32,7.619802342,-73.66720517,4.4115,2.0473,NA,NA,NA,NA,NA,bored,"bored, not bored","more bored, less bored",NA,NA,NA,NA,NA,NA,NA,NA,NA,NA,NA,NA,NA,NA,NA,NA,NA,NA,NA,NA,NA,NA,NA,NA,NA,NA,NA,NA,NA,NA,NA,NA,NA,0,2,2,2,1,NA,NA,NA,NA,NA,NA,NA,NA,NA,NA
SUPAMT25545,3E337GFOLF7EF7XBX5NFM3B98T2NGG,41B9889C-C7EB-4D60-8BB6-EFAD40A67D01,2023-09-26_11h06.31.660,WP_VExplicitOC_LH,2022.2.5,Win32,7.619802342,NA,NA,NA,NA,NA,NA,NA,NA,NA,NA,NA,NA,NA,NA,NA,NA,NA,NA,NA,NA,NA,NA,NA,NA,NA,NA,NA,NA,NA,NA,NA,NA,NA,NA,NA,NA,NA,NA,NA,NA,NA,NA,NA,NA,NA,NA,NA,NA,NA,NA,NA,NA,NA,NA,NA,NA,NA,NA,NA
SUPAMT25545,3E337GFOLF7EF7XBX5NFM3B98T2NGG,41B9889C-C7EB-4D60-8BB6-EFAD40A67D01,2023-09-26_11h06.31.660,WP_VExplicitOC_LH,2022.2.5,Win32,7.619802342,NA,NA,NA,NA,NA,NA,NA,NA,NA,NA,NA,NA,NA,NA,NA,NA,NA,NA,NA,NA,NA,NA,NA,NA,NA,NA,NA,NA,NA,NA,NA,NA,NA,NA,NA,NA,NA,NA,NA,NA,NA,NA,NA,NA,NA,NA,NA,NA,NA,NA,NA,NA,NA,NA,NA,NA,NA,NA,NA
SUPAMT25545,3E337GFOLF7EF7XBX5NFM3B98T2NGG,41B9889C-C7EB-4D60-8BB6-EFAD40A67D01,2023-09-26_11h06.31.660,WP_VExplicitOC_LH,2022.2.5,Win32,7.619802342,-59.1276252,4.3712,2.1423,NA,NA,NA,NA,NA,frustrated,"frustrated, not frustrated","more frustrated, less frustrated",NA,NA,NA,NA,NA,NA,NA,NA,NA,NA,NA,NA,NA,NA,NA,NA,NA,NA,NA,NA,NA,NA,NA,NA,NA,NA,NA,NA,NA,NA,NA,NA,NA,NA,NA,NA,NA,NA,0,0,0,1,1,NA,NA,NA,NA,NA
SUPAMT25545,3E337GFOLF7EF7XBX5NFM3B98T2NGG,41B9889C-C7EB-4D60-8BB6-EFAD40A67D01,2023-09-26_11h06.31.660,WP_VExplicitOC_LH,2022.2.5,Win32,7.619802342,59.77382876,4.4611,2.1046,NA,NA,NA,NA,NA,happy,"unhappy, happy","less happy, more happy",NA,NA,NA,NA,NA,NA,NA,NA,NA,NA,NA,NA,NA,NA,NA,NA,NA,NA,NA,NA,NA,NA,NA,NA,NA,NA,NA,NA,NA,NA,NA,NA,NA,NA,NA,NA,NA,NA,0,1,1,0,1,NA,NA,NA,NA,NA
SUPAMT25545,3E337GFOLF7EF7XBX5NFM3B98T2NGG,41B9889C-C7EB-4D60-8BB6-EFAD40A67D01,2023-09-26_11h06.31.660,WP_VExplicitOC_LH,2022.2.5,Win32,7.619802342,NA,NA,2.094,NA,NA,NA,NA,NA,bored,"bored, not bored","more bored, less bored",NA,NA,NA,NA,NA,NA,NA,NA,NA,NA,NA,NA,NA,NA,NA,NA,NA,NA,NA,NA,NA,NA,NA,NA,NA,NA,NA,NA,NA,NA,NA,NA,NA,NA,NA,NA,NA,NA,0,2,2,2,1,NA,NA,NA,NA,NA
SUPAMT25545,3E337GFOLF7EF7XBX5NFM3B98T2NGG,41B9889C-C7EB-4D60-8BB6-EFAD40A67D01,2023-09-26_11h06.31.660,WP_VExplicitOC_LH,2022.2.5,Win32,7.619802342,NA,NA,NA,NA,NA,NA,NA,NA,NA,NA,NA,NA,NA,NA,NA,NA,NA,NA,NA,NA,NA,NA,NA,NA,NA,NA,NA,NA,NA,NA,NA,NA,NA,NA,NA,NA,NA,NA,NA,NA,NA,NA,NA,NA,NA,NA,NA,NA,NA,NA,NA,NA,NA,NA,0,0,0,0,1
SUPAMT25545,3E337GFOLF7EF7XBX5NFM3B98T2NGG,41B9889C-C7EB-4D60-8BB6-EFAD40A67D01,2023-09-26_11h06.31.660,WP_VExplicitOC_LH,2022.2.5,Win32,7.619802342,-68.82067851,4.7614,2.0126,NA,NA,NA,NA,NA,bored,"bored, not bored","more bored, less bored",NA,NA,NA,NA,NA,NA,NA,NA,NA,NA,NA,NA,NA,NA,NA,NA,NA,NA,NA,NA,NA,NA,NA,NA,NA,NA,NA,NA,NA,NA,NA,NA,NA,NA,NA,NA,NA,NA,0,0,0,2,1,NA,NA,NA,NA,NA
SUPAMT25545,3E337GFOLF7EF7XBX5NFM3B98T2NGG,41B9889C-C7EB-4D60-8BB6-EFAD40A67D01,2023-09-26_11h06.31.660,WP_VExplicitOC_LH,2022.2.5,Win32,7.619802342,-48.78836834,4.1326,2.0252,NA,NA,NA,NA,NA,frustrated,"frustrated, not frustrated","more frustrated, less frustrated",NA,NA,NA,NA,NA,NA,NA,NA,NA,NA,NA,NA,NA,NA,NA,NA,NA,NA,NA,NA,NA,NA,NA,NA,NA,NA,NA,NA,NA,NA,NA,NA,NA,NA,NA,NA,NA,NA,0,1,1,1,1,NA,NA,NA,NA,NA
SUPAMT25545,3E337GFOLF7EF7XBX5NFM3B98T2NGG,41B9889C-C7EB-4D60-8BB6-EFAD40A67D01,2023-09-26_11h06.31.660,WP_VExplicitOC_LH,2022.2.5,Win32,7.619802342,65.26655897,4.64,2.2832,NA,NA,NA,NA,NA,happy,"unhappy, happy","less happy, more happy",NA,NA,NA,NA,NA,NA,NA,NA,NA,NA,NA,NA,NA,NA,NA,NA,NA,NA,NA,NA,NA,NA,NA,NA,NA,NA,NA,NA,NA,NA,NA,NA,NA,NA,NA,NA,NA,NA,0,2,2,0,1,NA,NA,NA,NA,NA
SUPAMT25545,3E337GFOLF7EF7XBX5NFM3B98T2NGG,41B9889C-C7EB-4D60-8BB6-EFAD40A67D01,2023-09-26_11h06.31.660,WP_VExplicitOC_LH,2022.2.5,Win32,7.619802342,NA,NA,NA,NA,NA,NA,NA,NA,NA,NA,NA,NA,NA,NA,NA,NA,NA,NA,NA,NA,NA,NA,NA,NA,NA,NA,NA,NA,NA,NA,NA,NA,NA,NA,NA,NA,NA,NA,NA,NA,NA,NA,NA,NA,NA,NA,NA,NA,NA,NA,NA,NA,NA,NA,1,0,1,0,1
SUPAMT25545,3E337GFOLF7EF7XBX5NFM3B98T2NGG,41B9889C-C7EB-4D60-8BB6-EFAD40A67D01,2023-09-26_11h06.31.660,WP_VExplicitOC_LH,2022.2.5,Win32,7.619802342,70.11308562,4.2313,2.4183,NA,NA,NA,NA,NA,happy,"unhappy, happy","less happy, more happy",NA,NA,NA,NA,NA,NA,NA,NA,NA,NA,NA,NA,NA,NA,NA,NA,NA,NA,NA,NA,NA,NA,NA,NA,NA,NA,NA,NA,NA,NA,NA,NA,NA,NA,NA,NA,NA,NA,0,0,0,0,1,NA,NA,NA,NA,NA
SUPAMT25545,3E337GFOLF7EF7XBX5NFM3B98T2NGG,41B9889C-C7EB-4D60-8BB6-EFAD40A67D01,2023-09-26_11h06.31.660,WP_VExplicitOC_LH,2022.2.5,Win32,7.619802342,-58.15831987,4.7724,2.0323,NA,NA,NA,NA,NA,bored,"bored, not bored","more bored, less bored",NA,NA,NA,NA,NA,NA,NA,NA,NA,NA,NA,NA,NA,NA,NA,NA,NA,NA,NA,NA,NA,NA,NA,NA,NA,NA,NA,NA,NA,NA,NA,NA,NA,NA,NA,NA,NA,NA,0,1,1,2,1,NA,NA,NA,NA,NA
SUPAMT25545,3E337GFOLF7EF7XBX5NFM3B98T2NGG,41B9889C-C7EB-4D60-8BB6-EFAD40A67D01,2023-09-26_11h06.31.660,WP_VExplicitOC_LH,2022.2.5,Win32,7.619802342,-51.69628433,4.5715,2.1098,NA,NA,NA,NA,NA,frustrated,"frustrated, not frustrated","more frustrated, less frustrated",NA,NA,NA,NA,NA,NA,NA,NA,NA,NA,NA,NA,NA,NA,NA,NA,NA,NA,NA,NA,NA,NA,NA,NA,NA,NA,NA,NA,NA,NA,NA,NA,NA,NA,NA,NA,NA,NA,0,2,2,1,1,NA,NA,NA,NA,NA
SUPAMT25545,3E337GFOLF7EF7XBX5NFM3B98T2NGG,41B9889C-C7EB-4D60-8BB6-EFAD40A67D01,2023-09-26_11h06.31.660,WP_VExplicitOC_LH,2022.2.5,Win32,7.619802342,NA,NA,NA,NA,NA,NA,NA,NA,NA,NA,NA,NA,NA,NA,NA,NA,NA,NA,NA,NA,NA,NA,NA,NA,NA,NA,NA,NA,NA,NA,NA,NA,NA,NA,NA,NA,NA,NA,NA,NA,NA,NA,NA,NA,NA,NA,NA,NA,NA,NA,NA,NA,NA,NA,2,0,2,0,1
SUPAMT25545,3E337GFOLF7EF7XBX5NFM3B98T2NGG,41B9889C-C7EB-4D60-8BB6-EFAD40A67D01,2023-09-26_11h06.31.660,WP_VExplicitOC_LH,2022.2.5,Win32,7.619802342,-67.20516963,4.2081,2.0668,NA,NA,NA,NA,NA,bored,"bored, not bored","more bored, less bored",NA,NA,NA,NA,NA,NA,NA,NA,NA,NA,NA,NA,NA,NA,NA,NA,NA,NA,NA,NA,NA,NA,NA,NA,NA,NA,NA,NA,NA,NA,NA,NA,NA,NA,NA,NA,NA,NA,0,0,0,2,1,NA,NA,NA,NA,NA
SUPAMT25545,3E337GFOLF7EF7XBX5NFM3B98T2NGG,41B9889C-C7EB-4D60-8BB6-EFAD40A67D01,2023-09-26_11h06.31.660,WP_VExplicitOC_LH,2022.2.5,Win32,7.619802342,38.44911147,4.3755,2.1423,NA,NA,NA,NA,NA,frustrated,"frustrated, not frustrated","more frustrated, less frustrated",NA,NA,NA,NA,NA,NA,NA,NA,NA,NA,NA,NA,NA,NA,NA,NA,NA,NA,NA,NA,NA,NA,NA,NA,NA,NA,NA,NA,NA,NA,NA,NA,NA,NA,NA,NA,NA,NA,0,1,1,1,1,NA,NA,NA,NA,NA
SUPAMT25545,3E337GFOLF7EF7XBX5NFM3B98T2NGG,41B9889C-C7EB-4D60-8BB6-EFAD40A67D01,2023-09-26_11h06.31.660,WP_VExplicitOC_LH,2022.2.5,Win32,7.619802342,42.97253635,4.6312,2.0384,NA,NA,NA,NA,NA,happy,"unhappy, happy","less happy, more happy",NA,NA,NA,NA,NA,NA,NA,NA,NA,NA,NA,NA,NA,NA,NA,NA,NA,NA,NA,NA,NA,NA,NA,NA,NA,NA,NA,NA,NA,NA,NA,NA,NA,NA,NA,NA,NA,NA,0,2,2,0,1,NA,NA,NA,NA,NA
SUPAMT25545,3E337GFOLF7EF7XBX5NFM3B98T2NGG,41B9889C-C7EB-4D60-8BB6-EFAD40A67D01,2023-09-26_11h06.31.660,WP_VExplicitOC_LH,2022.2.5,Win32,7.619802342,NA,NA,NA,NA,NA,NA,NA,NA,NA,NA,NA,NA,NA,NA,NA,NA,NA,NA,NA,NA,NA,NA,NA,NA,NA,NA,NA,NA,NA,NA,NA,NA,NA,NA,NA,NA,NA,NA,NA,NA,NA,NA,NA,NA,NA,NA,NA,NA,NA,NA,NA,NA,NA,NA,3,0,3,0,1
SUPAMT25545,3E337GFOLF7EF7XBX5NFM3B98T2NGG,41B9889C-C7EB-4D60-8BB6-EFAD40A67D01,2023-09-26_11h06.31.660,WP_VExplicitOC_LH,2022.2.5,Win32,7.619802342,NA,NA,2.0678,NA,NA,NA,NA,NA,bored,"bored, not bored","more bored, less bored",NA,NA,NA,NA,NA,NA,NA,NA,NA,NA,NA,NA,NA,NA,NA,NA,NA,NA,NA,NA,NA,NA,NA,NA,NA,NA,NA,NA,NA,NA,NA,NA,NA,NA,NA,NA,NA,NA,0,0,0,2,1,NA,NA,NA,NA,NA
SUPAMT25545,3E337GFOLF7EF7XBX5NFM3B98T2NGG,41B9889C-C7EB-4D60-8BB6-EFAD40A67D01,2023-09-26_11h06.31.660,WP_VExplicitOC_LH,2022.2.5,Win32,7.619802342,-51.05008078,5.3699,2.3971,NA,NA,NA,NA,NA,frustrated,"frustrated, not frustrated","more frustrated, less frustrated",NA,NA,NA,NA,NA,NA,NA,NA,NA,NA,NA,NA,NA,NA,NA,NA,NA,NA,NA,NA,NA,NA,NA,NA,NA,NA,NA,NA,NA,NA,NA,NA,NA,NA,NA,NA,NA,NA,0,1,1,1,1,NA,NA,NA,NA,NA
SUPAMT25545,3E337GFOLF7EF7XBX5NFM3B98T2NGG,41B9889C-C7EB-4D60-8BB6-EFAD40A67D01,2023-09-26_11h06.31.660,WP_VExplicitOC_LH,2022.2.5,Win32,7.619802342,51.37318255,6.5199,2.2486,NA,NA,NA,NA,NA,happy,"unhappy, happy","less happy, more happy",NA,NA,NA,NA,NA,NA,NA,NA,NA,NA,NA,NA,NA,NA,NA,NA,NA,NA,NA,NA,NA,NA,NA,NA,NA,NA,NA,NA,NA,NA,NA,NA,NA,NA,NA,NA,NA,NA,0,2,2,0,1,NA,NA,NA,NA,NA
SUPAMT25545,3E337GFOLF7EF7XBX5NFM3B98T2NGG,41B9889C-C7EB-4D60-8BB6-EFAD40A67D01,2023-09-26_11h06.31.660,WP_VExplicitOC_LH,2022.2.5,Win32,7.619802342,NA,NA,NA,NA,NA,NA,NA,NA,NA,NA,NA,NA,NA,NA,NA,NA,NA,NA,NA,NA,NA,NA,NA,NA,NA,NA,NA,NA,NA,NA,NA,NA,NA,NA,NA,NA,NA,NA,NA,NA,NA,NA,NA,NA,NA,NA,NA,NA,NA,NA,NA,NA,NA,NA,4,0,4,0,1
SUPAMT25545,3E337GFOLF7EF7XBX5NFM3B98T2NGG,41B9889C-C7EB-4D60-8BB6-EFAD40A67D01,2023-09-26_11h06.31.660,WP_VExplicitOC_LH,2022.2.5,Win32,7.619802342,-73.34410339,4.2994,2.1073,NA,NA,NA,NA,NA,frustrated,"frustrated, not frustrated","more frustrated, less frustrated",NA,NA,NA,NA,NA,NA,NA,NA,NA,NA,NA,NA,NA,NA,NA,NA,NA,NA,NA,NA,NA,NA,NA,NA,NA,NA,NA,NA,NA,NA,NA,NA,NA,NA,NA,NA,NA,NA,0,0,0,1,1,NA,NA,NA,NA,NA
SUPAMT25545,3E337GFOLF7EF7XBX5NFM3B98T2NGG,41B9889C-C7EB-4D60-8BB6-EFAD40A67D01,2023-09-26_11h06.31.660,WP_VExplicitOC_LH,2022.2.5,Win32,7.619802342,31.66397415,4.0567,2.139,NA,NA,NA,NA,NA,happy,"unhappy, happy","less happy, more happy",NA,NA,NA,NA,NA,NA,NA,NA,NA,NA,NA,NA,NA,NA,NA,NA,NA,NA,NA,NA,NA,NA,NA,NA,NA,NA,NA,NA,NA,NA,NA,NA,NA,NA,NA,NA,NA,NA,0,1,1,0,1,NA,NA,NA,NA,NA
SUPAMT25545,3E337GFOLF7EF7XBX5NFM3B98T2NGG,41B9889C-C7EB-4D60-8BB6-EFAD40A67D01,2023-09-26_11h06.31.660,WP_VExplicitOC_LH,2022.2.5,Win32,7.619802342,45.88045234,3.3953,2.0438,NA,NA,NA,NA,NA,bored,"bored, not bored","more bored, less bored",NA,NA,NA,NA,NA,NA,NA,NA,NA,NA,NA,NA,NA,NA,NA,NA,NA,NA,NA,NA,NA,NA,NA,NA,NA,NA,NA,NA,NA,NA,NA,NA,NA,NA,NA,NA,NA,NA,0,2,2,2,1,NA,NA,NA,NA,NA
SUPAMT25545,3E337GFOLF7EF7XBX5NFM3B98T2NGG,41B9889C-C7EB-4D60-8BB6-EFAD40A67D01,2023-09-26_11h06.31.660,WP_VExplicitOC_LH,2022.2.5,Win32,7.619802342,NA,NA,NA,NA,NA,NA,NA,NA,NA,NA,NA,NA,NA,NA,NA,NA,NA,NA,NA,NA,NA,NA,NA,NA,NA,NA,NA,NA,NA,NA,NA,NA,NA,NA,NA,NA,NA,NA,NA,NA,NA,NA,NA,NA,NA,NA,NA,NA,NA,NA,NA,NA,NA,NA,5,0,5,0,1
SUPAMT25545,3E337GFOLF7EF7XBX5NFM3B98T2NGG,41B9889C-C7EB-4D60-8BB6-EFAD40A67D01,2023-09-26_11h06.31.660,WP_VExplicitOC_LH,2022.2.5,Win32,7.619802342,44.26494346,3.7148,2.0843,NA,NA,NA,NA,NA,frustrated,"frustrated, not frustrated","more frustrated, less frustrated",NA,NA,NA,NA,NA,NA,NA,NA,NA,NA,NA,NA,NA,NA,NA,NA,NA,NA,NA,NA,NA,NA,NA,NA,NA,NA,NA,NA,NA,NA,NA,NA,NA,NA,NA,NA,NA,NA,0,0,0,1,1,NA,NA,NA,NA,NA
SUPAMT25545,3E337GFOLF7EF7XBX5NFM3B98T2NGG,41B9889C-C7EB-4D60-8BB6-EFAD40A67D01,2023-09-26_11h06.31.660,WP_VExplicitOC_LH,2022.2.5,Win32,7.619802342,-48.46526656,3.8742,2.063,NA,NA,NA,NA,NA,bored,"bored, not bored","more bored, less bored",NA,NA,NA,NA,NA,NA,NA,NA,NA,NA,NA,NA,NA,NA,NA,NA,NA,NA,NA,NA,NA,NA,NA,NA,NA,NA,NA,NA,NA,NA,NA,NA,NA,NA,NA,NA,NA,NA,0,1,1,2,1,NA,NA,NA,NA,NA
SUPAMT25545,3E337GFOLF7EF7XBX5NFM3B98T2NGG,41B9889C-C7EB-4D60-8BB6-EFAD40A67D01,2023-09-26_11h06.31.660,WP_VExplicitOC_LH,2022.2.5,Win32,7.619802342,56.21970921,4.0239,2.1084,NA,NA,NA,NA,NA,happy,"unhappy, happy","less happy, more happy",NA,NA,NA,NA,NA,NA,NA,NA,NA,NA,NA,NA,NA,NA,NA,NA,NA,NA,NA,NA,NA,NA,NA,NA,NA,NA,NA,NA,NA,NA,NA,NA,NA,NA,NA,NA,NA,NA,0,2,2,0,1,NA,NA,NA,NA,NA
SUPAMT25545,3E337GFOLF7EF7XBX5NFM3B98T2NGG,41B9889C-C7EB-4D60-8BB6-EFAD40A67D01,2023-09-26_11h06.31.660,WP_VExplicitOC_LH,2022.2.5,Win32,7.619802342,NA,NA,NA,NA,NA,NA,NA,NA,NA,NA,NA,NA,NA,NA,NA,NA,NA,NA,NA,NA,NA,NA,NA,NA,NA,NA,NA,NA,NA,NA,NA,NA,NA,NA,NA,NA,NA,NA,NA,NA,NA,NA,NA,NA,NA,NA,NA,NA,NA,NA,NA,NA,NA,NA,6,0,6,0,1
SUPAMT25545,3E337GFOLF7EF7XBX5NFM3B98T2NGG,41B9889C-C7EB-4D60-8BB6-EFAD40A67D01,2023-09-26_11h06.31.660,WP_VExplicitOC_LH,2022.2.5,Win32,7.619802342,38.44911147,3.7576,2.1256,NA,NA,NA,NA,NA,happy,"unhappy, happy","less happy, more happy",NA,NA,NA,NA,NA,NA,NA,NA,NA,NA,NA,NA,NA,NA,NA,NA,NA,NA,NA,NA,NA,NA,NA,NA,NA,NA,NA,NA,NA,NA,NA,NA,NA,NA,NA,NA,NA,NA,0,0,0,0,1,NA,NA,NA,NA,NA
SUPAMT25545,3E337GFOLF7EF7XBX5NFM3B98T2NGG,41B9889C-C7EB-4D60-8BB6-EFAD40A67D01,2023-09-26_11h06.31.660,WP_VExplicitOC_LH,2022.2.5,Win32,7.619802342,54.9273021,3.5481,2.114,NA,NA,NA,NA,NA,bored,"bored, not bored","more bored, less bored",NA,NA,NA,NA,NA,NA,NA,NA,NA,NA,NA,NA,NA,NA,NA,NA,NA,NA,NA,NA,NA,NA,NA,NA,NA,NA,NA,NA,NA,NA,NA,NA,NA,NA,NA,NA,NA,NA,0,1,1,2,1,NA,NA,NA,NA,NA
SUPAMT25545,3E337GFOLF7EF7XBX5NFM3B98T2NGG,41B9889C-C7EB-4D60-8BB6-EFAD40A67D01,2023-09-26_11h06.31.660,WP_VExplicitOC_LH,2022.2.5,Win32,7.619802342,-47.49596123,3.772,2.027,NA,NA,NA,NA,NA,frustrated,"frustrated, not frustrated","more frustrated, less frustrated",NA,NA,NA,NA,NA,NA,NA,NA,NA,NA,NA,NA,NA,NA,NA,NA,NA,NA,NA,NA,NA,NA,NA,NA,NA,NA,NA,NA,NA,NA,NA,NA,NA,NA,NA,NA,NA,NA,0,2,2,1,1,NA,NA,NA,NA,NA
SUPAMT25545,3E337GFOLF7EF7XBX5NFM3B98T2NGG,41B9889C-C7EB-4D60-8BB6-EFAD40A67D01,2023-09-26_11h06.31.660,WP_VExplicitOC_LH,2022.2.5,Win32,7.619802342,NA,NA,NA,NA,NA,NA,NA,NA,NA,NA,NA,NA,NA,NA,NA,NA,NA,NA,NA,NA,NA,NA,NA,NA,NA,NA,NA,NA,NA,NA,NA,NA,NA,NA,NA,NA,NA,NA,NA,NA,NA,NA,NA,NA,NA,NA,NA,NA,NA,NA,NA,NA,NA,NA,7,0,7,0,1
SUPAMT25545,3E337GFOLF7EF7XBX5NFM3B98T2NGG,41B9889C-C7EB-4D60-8BB6-EFAD40A67D01,2023-09-26_11h06.31.660,WP_VExplicitOC_LH,2022.2.5,Win32,7.619802342,39.09531502,4.0003,2.0716,NA,NA,NA,NA,NA,happy,"unhappy, happy","less happy, more happy",NA,NA,NA,NA,NA,NA,NA,NA,NA,NA,NA,NA,NA,NA,NA,NA,NA,NA,NA,NA,NA,NA,NA,NA,NA,NA,NA,NA,NA,NA,NA,NA,NA,NA,NA,NA,NA,NA,0,0,0,0,1,NA,NA,NA,NA,NA
SUPAMT25545,3E337GFOLF7EF7XBX5NFM3B98T2NGG,41B9889C-C7EB-4D60-8BB6-EFAD40A67D01,2023-09-26_11h06.31.660,WP_VExplicitOC_LH,2022.2.5,Win32,7.619802342,-55.57350565,4.6697,2.0834,NA,NA,NA,NA,NA,bored,"bored, not bored","more bored, less bored",NA,NA,NA,NA,NA,NA,NA,NA,NA,NA,NA,NA,NA,NA,NA,NA,NA,NA,NA,NA,NA,NA,NA,NA,NA,NA,NA,NA,NA,NA,NA,NA,NA,NA,NA,NA,NA,NA,0,1,1,2,1,NA,NA,NA,NA,NA
SUPAMT25545,3E337GFOLF7EF7XBX5NFM3B98T2NGG,41B9889C-C7EB-4D60-8BB6-EFAD40A67D01,2023-09-26_11h06.31.660,WP_VExplicitOC_LH,2022.2.5,Win32,7.619802342,50.40387722,4.0099,2.1008,NA,NA,NA,NA,NA,frustrated,"frustrated, not frustrated","more frustrated, less frustrated",NA,NA,NA,NA,NA,NA,NA,NA,NA,NA,NA,NA,NA,NA,NA,NA,NA,NA,NA,NA,NA,NA,NA,NA,NA,NA,NA,NA,NA,NA,NA,NA,NA,NA,NA,NA,NA,NA,0,2,2,1,1,NA,NA,NA,NA,NA
SUPAMT25545,3E337GFOLF7EF7XBX5NFM3B98T2NGG,41B9889C-C7EB-4D60-8BB6-EFAD40A67D01,2023-09-26_11h06.31.660,WP_VExplicitOC_LH,2022.2.5,Win32,7.619802342,NA,NA,NA,NA,NA,NA,NA,NA,NA,NA,NA,NA,NA,NA,NA,NA,NA,NA,NA,NA,NA,NA,NA,NA,NA,NA,NA,NA,NA,NA,NA,NA,NA,NA,NA,NA,NA,NA,NA,NA,NA,NA,NA,NA,NA,NA,NA,NA,NA,NA,NA,NA,NA,NA,8,0,8,0,1
SUPAMT25545,3E337GFOLF7EF7XBX5NFM3B98T2NGG,41B9889C-C7EB-4D60-8BB6-EFAD40A67D01,2023-09-26_11h06.31.660,WP_VExplicitOC_LH,2022.2.5,Win32,7.619802342,61.06623586,3.9054,2.0725,NA,NA,NA,NA,NA,happy,"unhappy, happy","less happy, more happy",NA,NA,NA,NA,NA,NA,NA,NA,NA,NA,NA,NA,NA,NA,NA,NA,NA,NA,NA,NA,NA,NA,NA,NA,NA,NA,NA,NA,NA,NA,NA,NA,NA,NA,NA,NA,NA,NA,0,0,0,0,1,NA,NA,NA,NA,NA
SUPAMT25545,3E337GFOLF7EF7XBX5NFM3B98T2NGG,41B9889C-C7EB-4D60-8BB6-EFAD40A67D01,2023-09-26_11h06.31.660,WP_VExplicitOC_LH,2022.2.5,Win32,7.619802342,-63.97415186,4.7455,2.1039,NA,NA,NA,NA,NA,bored,"bored, not bored","more bored, less bored",NA,NA,NA,NA,NA,NA,NA,NA,NA,NA,NA,NA,NA,NA,NA,NA,NA,NA,NA,NA,NA,NA,NA,NA,NA,NA,NA,NA,NA,NA,NA,NA,NA,NA,NA,NA,NA,NA,0,1,1,2,1,NA,NA,NA,NA,NA
SUPAMT25545,3E337GFOLF7EF7XBX5NFM3B98T2NGG,41B9889C-C7EB-4D60-8BB6-EFAD40A67D01,2023-09-26_11h06.31.660,WP_VExplicitOC_LH,2022.2.5,Win32,7.619802342,-50.40387722,5.3416,2.0823,NA,NA,NA,NA,NA,frustrated,"frustrated, not frustrated","more frustrated, less frustrated",NA,NA,NA,NA,NA,NA,NA,NA,NA,NA,NA,NA,NA,NA,NA,NA,NA,NA,NA,NA,NA,NA,NA,NA,NA,NA,NA,NA,NA,NA,NA,NA,NA,NA,NA,NA,NA,NA,0,2,2,1,1,NA,NA,NA,NA,NA
SUPAMT25545,3E337GFOLF7EF7XBX5NFM3B98T2NGG,41B9889C-C7EB-4D60-8BB6-EFAD40A67D01,2023-09-26_11h06.31.660,WP_VExplicitOC_LH,2022.2.5,Win32,7.619802342,NA,NA,NA,NA,NA,NA,NA,NA,NA,NA,NA,NA,NA,NA,NA,NA,NA,NA,NA,NA,NA,NA,NA,NA,NA,NA,NA,NA,NA,NA,NA,NA,NA,NA,NA,NA,NA,NA,NA,NA,NA,NA,NA,NA,NA,NA,NA,NA,NA,NA,NA,NA,NA,NA,9,0,9,0,1
SUPAMT25545,3E337GFOLF7EF7XBX5NFM3B98T2NGG,41B9889C-C7EB-4D60-8BB6-EFAD40A67D01,2023-09-26_11h06.31.660,WP_VExplicitOC_LH,2022.2.5,Win32,7.619802342,-55.57350565,3.9305,2.0802,NA,NA,NA,NA,NA,bored,"bored, not bored","more bored, less bored",NA,NA,NA,NA,NA,NA,NA,NA,NA,NA,NA,NA,NA,NA,NA,NA,NA,NA,NA,NA,NA,NA,NA,NA,NA,NA,NA,NA,NA,NA,NA,NA,NA,NA,NA,NA,NA,NA,0,0,0,2,1,NA,NA,NA,NA,NA
SUPAMT25545,3E337GFOLF7EF7XBX5NFM3B98T2NGG,41B9889C-C7EB-4D60-8BB6-EFAD40A67D01,2023-09-26_11h06.31.660,WP_VExplicitOC_LH,2022.2.5,Win32,7.619802342,52.98869144,4.9006,2.0523,NA,NA,NA,NA,NA,happy,"unhappy, happy","less happy, more happy",NA,NA,NA,NA,NA,NA,NA,NA,NA,NA,NA,NA,NA,NA,NA,NA,NA,NA,NA,NA,NA,NA,NA,NA,NA,NA,NA,NA,NA,NA,NA,NA,NA,NA,NA,NA,NA,NA,0,1,1,0,1,NA,NA,NA,NA,NA
SUPAMT25545,3E337GFOLF7EF7XBX5NFM3B98T2NGG,41B9889C-C7EB-4D60-8BB6-EFAD40A67D01,2023-09-26_11h06.31.660,WP_VExplicitOC_LH,2022.2.5,Win32,7.619802342,-61.06623586,4.5287,2.0332,NA,NA,NA,NA,NA,frustrated,"frustrated, not frustrated","more frustrated, less frustrated",NA,NA,NA,NA,NA,NA,NA,NA,NA,NA,NA,NA,NA,NA,NA,NA,NA,NA,NA,NA,NA,NA,NA,NA,NA,NA,NA,NA,NA,NA,NA,NA,NA,NA,NA,NA,NA,NA,0,2,2,1,1,NA,NA,NA,NA,NA
SUPAMT25545,3E337GFOLF7EF7XBX5NFM3B98T2NGG,41B9889C-C7EB-4D60-8BB6-EFAD40A67D01,2023-09-26_11h06.31.660,WP_VExplicitOC_LH,2022.2.5,Win32,7.619802342,NA,NA,NA,NA,NA,NA,NA,NA,NA,NA,NA,NA,NA,NA,NA,NA,NA,NA,NA,NA,NA,NA,NA,NA,NA,NA,NA,NA,NA,NA,NA,NA,NA,NA,NA,NA,NA,NA,NA,NA,NA,NA,NA,NA,NA,NA,NA,NA,NA,NA,NA,NA,NA,NA,10,0,10,0,1
SUPAMT25545,3E337GFOLF7EF7XBX5NFM3B98T2NGG,41B9889C-C7EB-4D60-8BB6-EFAD40A67D01,2023-09-26_11h06.31.660,WP_VExplicitOC_LH,2022.2.5,Win32,7.619802342,NA,NA,8.693,NA,NA,NA,NA,NA,frustrated,"frustrated, not frustrated","more frustrated, less frustrated",NA,NA,NA,NA,NA,NA,NA,NA,NA,NA,NA,NA,NA,NA,NA,NA,NA,NA,NA,NA,NA,NA,NA,NA,NA,NA,NA,NA,NA,NA,NA,NA,NA,NA,NA,NA,NA,NA,0,0,0,1,1,NA,NA,NA,NA,NA
SUPAMT25545,3E337GFOLF7EF7XBX5NFM3B98T2NGG,41B9889C-C7EB-4D60-8BB6-EFAD40A67D01,2023-09-26_11h06.31.660,WP_VExplicitOC_LH,2022.2.5,Win32,7.619802342,-53.31179321,3.9908,2.0689,NA,NA,NA,NA,NA,bored,"bored, not bored","more bored, less bored",NA,NA,NA,NA,NA,NA,NA,NA,NA,NA,NA,NA,NA,NA,NA,NA,NA,NA,NA,NA,NA,NA,NA,NA,NA,NA,NA,NA,NA,NA,NA,NA,NA,NA,NA,NA,NA,NA,0,1,1,2,1,NA,NA,NA,NA,NA
SUPAMT25545,3E337GFOLF7EF7XBX5NFM3B98T2NGG,41B9889C-C7EB-4D60-8BB6-EFAD40A67D01,2023-09-26_11h06.31.660,WP_VExplicitOC_LH,2022.2.5,Win32,7.619802342,54.60420032,3.817,2.076,NA,NA,NA,NA,NA,happy,"unhappy, happy","less happy, more happy",NA,NA,NA,NA,NA,NA,NA,NA,NA,NA,NA,NA,NA,NA,NA,NA,NA,NA,NA,NA,NA,NA,NA,NA,NA,NA,NA,NA,NA,NA,NA,NA,NA,NA,NA,NA,NA,NA,0,2,2,0,1,NA,NA,NA,NA,NA
SUPAMT25545,3E337GFOLF7EF7XBX5NFM3B98T2NGG,41B9889C-C7EB-4D60-8BB6-EFAD40A67D01,2023-09-26_11h06.31.660,WP_VExplicitOC_LH,2022.2.5,Win32,7.619802342,NA,NA,NA,NA,NA,NA,NA,NA,NA,NA,NA,NA,NA,NA,NA,NA,NA,NA,NA,NA,NA,NA,NA,NA,NA,NA,NA,NA,NA,NA,NA,NA,NA,NA,NA,NA,NA,NA,NA,NA,NA,NA,NA,NA,NA,NA,NA,NA,NA,NA,NA,NA,NA,NA,11,0,11,0,1
SUPAMT25545,3E337GFOLF7EF7XBX5NFM3B98T2NGG,41B9889C-C7EB-4D60-8BB6-EFAD40A67D01,2023-09-26_11h06.31.660,WP_VExplicitOC_LH,2022.2.5,Win32,7.619802342,55.25040388,3.71,2.0398,NA,NA,NA,NA,NA,frustrated,"frustrated, not frustrated","more frustrated, less frustrated",NA,NA,NA,NA,NA,NA,NA,NA,NA,NA,NA,NA,NA,NA,NA,NA,NA,NA,NA,NA,NA,NA,NA,NA,NA,NA,NA,NA,NA,NA,NA,NA,NA,NA,NA,NA,NA,NA,0,0,0,1,1,NA,NA,NA,NA,NA
SUPAMT25545,3E337GFOLF7EF7XBX5NFM3B98T2NGG,41B9889C-C7EB-4D60-8BB6-EFAD40A67D01,2023-09-26_11h06.31.660,WP_VExplicitOC_LH,2022.2.5,Win32,7.619802342,60.42003231,3.8047,2.0657,NA,NA,NA,NA,NA,happy,"unhappy, happy","less happy, more happy",NA,NA,NA,NA,NA,NA,NA,NA,NA,NA,NA,NA,NA,NA,NA,NA,NA,NA,NA,NA,NA,NA,NA,NA,NA,NA,NA,NA,NA,NA,NA,NA,NA,NA,NA,NA,NA,NA,0,1,1,0,1,NA,NA,NA,NA,NA
SUPAMT25545,3E337GFOLF7EF7XBX5NFM3B98T2NGG,41B9889C-C7EB-4D60-8BB6-EFAD40A67D01,2023-09-26_11h06.31.660,WP_VExplicitOC_LH,2022.2.5,Win32,7.619802342,-50.726979,4.467,2.1036,NA,NA,NA,NA,NA,bored,"bored, not bored","more bored, less bored",NA,NA,NA,NA,NA,NA,NA,NA,NA,NA,NA,NA,NA,NA,NA,NA,NA,NA,NA,NA,NA,NA,NA,NA,NA,NA,NA,NA,NA,NA,NA,NA,NA,NA,NA,NA,NA,NA,0,2,2,2,1,NA,NA,NA,NA,NA
SUPAMT25545,3E337GFOLF7EF7XBX5NFM3B98T2NGG,41B9889C-C7EB-4D60-8BB6-EFAD40A67D01,2023-09-26_11h06.31.660,WP_VExplicitOC_LH,2022.2.5,Win32,7.619802342,NA,NA,NA,NA,NA,NA,NA,NA,NA,NA,NA,NA,NA,NA,NA,NA,NA,NA,NA,NA,NA,NA,NA,NA,NA,NA,NA,NA,NA,NA,NA,NA,NA,NA,NA,NA,NA,NA,NA,NA,NA,NA,NA,NA,NA,NA,NA,NA,NA,NA,NA,NA,NA,NA,12,0,12,0,1
SUPAMT25545,3E337GFOLF7EF7XBX5NFM3B98T2NGG,41B9889C-C7EB-4D60-8BB6-EFAD40A67D01,2023-09-26_11h06.31.660,WP_VExplicitOC_LH,2022.2.5,Win32,7.619802342,-72.37479806,4.257,2.0664,NA,NA,NA,NA,NA,frustrated,"frustrated, not frustrated","more frustrated, less frustrated",NA,NA,NA,NA,NA,NA,NA,NA,NA,NA,NA,NA,NA,NA,NA,NA,NA,NA,NA,NA,NA,NA,NA,NA,NA,NA,NA,NA,NA,NA,NA,NA,NA,NA,NA,NA,NA,NA,0,0,0,1,1,NA,NA,NA,NA,NA
SUPAMT25545,3E337GFOLF7EF7XBX5NFM3B98T2NGG,41B9889C-C7EB-4D60-8BB6-EFAD40A67D01,2023-09-26_11h06.31.660,WP_VExplicitOC_LH,2022.2.5,Win32,7.619802342,NA,NA,2.0244,NA,NA,NA,NA,NA,bored,"bored, not bored","more bored, less bored",NA,NA,NA,NA,NA,NA,NA,NA,NA,NA,NA,NA,NA,NA,NA,NA,NA,NA,NA,NA,NA,NA,NA,NA,NA,NA,NA,NA,NA,NA,NA,NA,NA,NA,NA,NA,NA,NA,0,1,1,2,1,NA,NA,NA,NA,NA
SUPAMT25545,3E337GFOLF7EF7XBX5NFM3B98T2NGG,41B9889C-C7EB-4D60-8BB6-EFAD40A67D01,2023-09-26_11h06.31.660,WP_VExplicitOC_LH,2022.2.5,Win32,7.619802342,53.31179321,5.8836,2.0139,NA,NA,NA,NA,NA,happy,"unhappy, happy","less happy, more happy",NA,NA,NA,NA,NA,NA,NA,NA,NA,NA,NA,NA,NA,NA,NA,NA,NA,NA,NA,NA,NA,NA,NA,NA,NA,NA,NA,NA,NA,NA,NA,NA,NA,NA,NA,NA,NA,NA,0,2,2,0,1,NA,NA,NA,NA,NA
SUPAMT25545,3E337GFOLF7EF7XBX5NFM3B98T2NGG,41B9889C-C7EB-4D60-8BB6-EFAD40A67D01,2023-09-26_11h06.31.660,WP_VExplicitOC_LH,2022.2.5,Win32,7.619802342,NA,NA,NA,NA,NA,NA,NA,NA,NA,NA,NA,NA,NA,NA,NA,NA,NA,NA,NA,NA,NA,NA,NA,NA,NA,NA,NA,NA,NA,NA,NA,NA,NA,NA,NA,NA,NA,NA,NA,NA,NA,NA,NA,NA,NA,NA,NA,NA,NA,NA,NA,NA,NA,NA,13,0,13,0,1
SUPAMT25545,3E337GFOLF7EF7XBX5NFM3B98T2NGG,41B9889C-C7EB-4D60-8BB6-EFAD40A67D01,2023-09-26_11h06.31.660,WP_VExplicitOC_LH,2022.2.5,Win32,7.619802342,-61.06623586,4.1023,2.0312,NA,NA,NA,NA,NA,frustrated,"frustrated, not frustrated","more frustrated, less frustrated",NA,NA,NA,NA,NA,NA,NA,NA,NA,NA,NA,NA,NA,NA,NA,NA,NA,NA,NA,NA,NA,NA,NA,NA,NA,NA,NA,NA,NA,NA,NA,NA,NA,NA,NA,NA,NA,NA,0,0,0,1,1,NA,NA,NA,NA,NA
SUPAMT25545,3E337GFOLF7EF7XBX5NFM3B98T2NGG,41B9889C-C7EB-4D60-8BB6-EFAD40A67D01,2023-09-26_11h06.31.660,WP_VExplicitOC_LH,2022.2.5,Win32,7.619802342,-48.14216478,5.0975,2.0749,NA,NA,NA,NA,NA,bored,"bored, not bored","more bored, less bored",NA,NA,NA,NA,NA,NA,NA,NA,NA,NA,NA,NA,NA,NA,NA,NA,NA,NA,NA,NA,NA,NA,NA,NA,NA,NA,NA,NA,NA,NA,NA,NA,NA,NA,NA,NA,NA,NA,0,1,1,2,1,NA,NA,NA,NA,NA
SUPAMT25545,3E337GFOLF7EF7XBX5NFM3B98T2NGG,41B9889C-C7EB-4D60-8BB6-EFAD40A67D01,2023-09-26_11h06.31.660,WP_VExplicitOC_LH,2022.2.5,Win32,7.619802342,75.92891761,4.1194,2.0383,NA,NA,NA,NA,NA,happy,"unhappy, happy","less happy, more happy",NA,NA,NA,NA,NA,NA,NA,NA,NA,NA,NA,NA,NA,NA,NA,NA,NA,NA,NA,NA,NA,NA,NA,NA,NA,NA,NA,NA,NA,NA,NA,NA,NA,NA,NA,NA,NA,NA,0,2,2,0,1,NA,NA,NA,NA,NA
SUPAMT25545,3E337GFOLF7EF7XBX5NFM3B98T2NGG,41B9889C-C7EB-4D60-8BB6-EFAD40A67D01,2023-09-26_11h06.31.660,WP_VExplicitOC_LH,2022.2.5,Win32,7.619802342,NA,NA,NA,NA,NA,NA,NA,NA,NA,NA,NA,NA,NA,NA,NA,NA,NA,NA,NA,NA,NA,NA,NA,NA,NA,NA,NA,NA,NA,NA,NA,NA,NA,NA,NA,NA,NA,NA,NA,NA,NA,NA,NA,NA,NA,NA,NA,NA,NA,NA,NA,NA,NA,NA,14,0,14,0,1
SUPAMT25545,3E337GFOLF7EF7XBX5NFM3B98T2NGG,41B9889C-C7EB-4D60-8BB6-EFAD40A67D01,2023-09-26_11h06.31.660,WP_VExplicitOC_LH,2022.2.5,Win32,7.619802342,NA,NA,NA,NA,NA,NA,NA,NA,NA,NA,NA,NA,NA,NA,NA,NA,NA,NA,NA,NA,NA,NA,NA,NA,NA,NA,NA,NA,NA,NA,NA,NA,NA,NA,NA,NA,NA,NA,NA,NA,NA,NA,NA,NA,NA,NA,NA,NA,NA,NA,NA,NA,NA,NA,NA,NA,NA,NA,NA
