participant,session,completion,date,expName,psychopyVersion,OS,frameRate,rating_all.response,rating_all.rt,rating_all.tStart,rndRat1.thisRepN,rndRat1.thisTrialN,rndRat1.thisN,rndRat1.thisIndex,rndRat1.ran,Emo,Labs,Labs2,rating_alt.response,rating_alt.rt,AltC.thisRepN,AltC.thisTrialN,AltC.thisN,AltC.thisIndex,AltC.ran,alt_choices,pic_choices,TopAlt_Choice,rndRat2.thisRepN,rndRat2.thisTrialN,rndRat2.thisN,rndRat2.thisIndex,rndRat2.ran,rndRat3.thisRepN,rndRat3.thisTrialN,rndRat3.thisN,rndRat3.thisIndex,rndRat3.ran,trials_FC_H.thisRepN,trials_FC_H.thisTrialN,trials_FC_H.thisN,trials_FC_H.thisIndex,trials_FC_H.ran,rating_alt_2.response,rating_alt_2.rt,AltC2.thisRepN,AltC2.thisTrialN,AltC2.thisN,AltC2.thisIndex,AltC2.ran,BottomAlt_Choice,rndRat4.thisRepN,rndRat4.thisTrialN,rndRat4.thisN,rndRat4.thisIndex,rndRat4.ran,rndRat5.thisRepN,rndRat5.thisTrialN,rndRat5.thisN,rndRat5.thisIndex,rndRat5.ran,trials_FC_L.thisRepN,trials_FC_L.thisTrialN,trials_FC_L.thisN,trials_FC_L.thisIndex,trials_FC_L.ran
SUPAMT59520,33F859I56CCQEU3PEL0OG8NG7NNBH3,EBA4BFC0-DAAC-4A45-870F-767FBA324C1B,2023-09-29_23h48.18.865,WP_VExplicitOC_HL,2022.2.5,MacIntel,60.0024001,NA,NA,NA,NA,NA,NA,NA,NA,NA,NA,NA,NA,NA,NA,NA,NA,NA,NA,NA,NA,NA,NA,NA,NA,NA,NA,NA,NA,NA,NA,NA,NA,NA,NA,NA,NA,NA,NA,NA,NA,NA,NA,NA,NA,NA,NA,NA,NA,NA,NA,NA,NA,NA,NA,NA,NA,NA,NA,NA
SUPAMT59520,33F859I56CCQEU3PEL0OG8NG7NNBH3,EBA4BFC0-DAAC-4A45-870F-767FBA324C1B,2023-09-29_23h48.18.865,WP_VExplicitOC_HL,2022.2.5,MacIntel,60.0024001,NA,NA,NA,NA,NA,NA,NA,NA,NA,NA,NA,NA,NA,NA,NA,NA,NA,NA,NA,NA,NA,NA,NA,NA,NA,NA,NA,NA,NA,NA,NA,NA,NA,NA,NA,NA,NA,NA,NA,NA,NA,NA,NA,NA,NA,NA,NA,NA,NA,NA,NA,NA,NA,NA,NA,NA,NA,NA,NA
SUPAMT59520,33F859I56CCQEU3PEL0OG8NG7NNBH3,EBA4BFC0-DAAC-4A45-870F-767FBA324C1B,2023-09-29_23h48.18.865,WP_VExplicitOC_HL,2022.2.5,MacIntel,60.0024001,NA,NA,NA,NA,NA,NA,NA,NA,NA,NA,NA,NA,NA,NA,NA,NA,NA,NA,NA,NA,NA,NA,NA,NA,NA,NA,NA,NA,NA,NA,NA,NA,NA,NA,NA,NA,NA,NA,NA,NA,NA,NA,NA,NA,NA,NA,NA,NA,NA,NA,NA,NA,NA,NA,NA,NA,NA,NA,NA
SUPAMT59520,33F859I56CCQEU3PEL0OG8NG7NNBH3,EBA4BFC0-DAAC-4A45-870F-767FBA324C1B,2023-09-29_23h48.18.865,WP_VExplicitOC_HL,2022.2.5,MacIntel,60.0024001,29.16003999,5.5053,2.0134,0,0,0,1,1,frustrated,"frustrated, not frustrated","more frustrated, less frustrated",NA,NA,NA,NA,NA,NA,NA,NA,NA,NA,NA,NA,NA,NA,NA,NA,NA,NA,NA,NA,NA,NA,NA,NA,NA,NA,NA,NA,NA,NA,NA,NA,NA,NA,NA,NA,NA,NA,NA,NA,NA,NA,NA,NA,NA,NA,NA,NA
SUPAMT59520,33F859I56CCQEU3PEL0OG8NG7NNBH3,EBA4BFC0-DAAC-4A45-870F-767FBA324C1B,2023-09-29_23h48.18.865,WP_VExplicitOC_HL,2022.2.5,MacIntel,60.0024001,-31.50528971,3.5746000000000002,2.0157,0,1,1,2,1,bored,"bored, not bored","more bored, less bored",NA,NA,NA,NA,NA,NA,NA,NA,NA,NA,NA,NA,NA,NA,NA,NA,NA,NA,NA,NA,NA,NA,NA,NA,NA,NA,NA,NA,NA,NA,NA,NA,NA,NA,NA,NA,NA,NA,NA,NA,NA,NA,NA,NA,NA,NA,NA,NA
SUPAMT59520,33F859I56CCQEU3PEL0OG8NG7NNBH3,EBA4BFC0-DAAC-4A45-870F-767FBA324C1B,2023-09-29_23h48.18.865,WP_VExplicitOC_HL,2022.2.5,MacIntel,60.0024001,4.502708798,2.5931,2.0133,0,2,2,0,1,happy,"unhappy, happy","less happy, more happy",NA,NA,NA,NA,NA,NA,NA,NA,NA,NA,NA,NA,NA,NA,NA,NA,NA,NA,NA,NA,NA,NA,NA,NA,NA,NA,NA,NA,NA,NA,NA,NA,NA,NA,NA,NA,NA,NA,NA,NA,NA,NA,NA,NA,NA,NA,NA,NA
SUPAMT59520,33F859I56CCQEU3PEL0OG8NG7NNBH3,EBA4BFC0-DAAC-4A45-870F-767FBA324C1B,2023-09-29_23h48.18.865,WP_VExplicitOC_HL,2022.2.5,MacIntel,60.0024001,NA,NA,NA,NA,NA,NA,NA,NA,NA,NA,NA,NA,NA,NA,NA,NA,NA,NA,NA,NA,NA,NA,NA,NA,NA,NA,NA,NA,NA,NA,NA,NA,NA,NA,NA,NA,NA,NA,NA,NA,NA,NA,NA,NA,NA,NA,NA,NA,NA,NA,NA,NA,NA,NA,NA,NA,NA,NA,NA
SUPAMT59520,33F859I56CCQEU3PEL0OG8NG7NNBH3,EBA4BFC0-DAAC-4A45-870F-767FBA324C1B,2023-09-29_23h48.18.865,WP_VExplicitOC_HL,2022.2.5,MacIntel,60.0024001,NA,NA,NA,NA,NA,NA,NA,NA,NA,NA,NA,NA,NA,NA,NA,NA,NA,NA,NA,NA,NA,NA,NA,NA,NA,NA,NA,NA,NA,NA,NA,NA,NA,NA,NA,NA,NA,NA,NA,NA,NA,NA,NA,NA,NA,NA,NA,NA,NA,NA,NA,NA,NA,NA,NA,NA,NA,NA,NA
SUPAMT59520,33F859I56CCQEU3PEL0OG8NG7NNBH3,EBA4BFC0-DAAC-4A45-870F-767FBA324C1B,2023-09-29_23h48.18.865,WP_VExplicitOC_HL,2022.2.5,MacIntel,60.0024001,NA,NA,NA,NA,NA,NA,NA,NA,NA,NA,NA,NA,NA,NA,NA,NA,NA,NA,NA,NA,NA,NA,NA,NA,NA,NA,NA,NA,NA,NA,NA,NA,NA,NA,NA,NA,NA,NA,NA,NA,NA,NA,NA,NA,NA,NA,NA,NA,NA,NA,NA,NA,NA,NA,NA,NA,NA,NA,NA
SUPAMT59520,33F859I56CCQEU3PEL0OG8NG7NNBH3,EBA4BFC0-DAAC-4A45-870F-767FBA324C1B,2023-09-29_23h48.18.865,WP_VExplicitOC_HL,2022.2.5,MacIntel,60.0024001,NA,NA,NA,NA,NA,NA,NA,NA,NA,NA,NA,NA,NA,NA,NA,NA,NA,NA,NA,NA,NA,NA,NA,NA,NA,NA,NA,NA,NA,NA,NA,NA,NA,NA,NA,NA,NA,NA,NA,NA,NA,NA,NA,NA,NA,NA,NA,NA,NA,NA,NA,NA,NA,NA,NA,NA,NA,NA,NA
SUPAMT59520,33F859I56CCQEU3PEL0OG8NG7NNBH3,EBA4BFC0-DAAC-4A45-870F-767FBA324C1B,2023-09-29_23h48.18.865,WP_VExplicitOC_HL,2022.2.5,MacIntel,60.0024001,NA,NA,NA,NA,NA,NA,NA,NA,NA,NA,NA,NA,NA,0,0,0,0,1,rest (looking at a fixed cross),001.png,NA,NA,NA,NA,NA,NA,NA,NA,NA,NA,NA,NA,NA,NA,NA,NA,NA,NA,NA,NA,NA,NA,NA,NA,NA,NA,NA,NA,NA,NA,NA,NA,NA,NA,NA,NA,NA,NA,NA
SUPAMT59520,33F859I56CCQEU3PEL0OG8NG7NNBH3,EBA4BFC0-DAAC-4A45-870F-767FBA324C1B,2023-09-29_23h48.18.865,WP_VExplicitOC_HL,2022.2.5,MacIntel,60.0024001,NA,NA,NA,NA,NA,NA,NA,NA,NA,NA,NA,22.72424898,2.8287,0,1,1,1,1,stand up,002.png,NA,NA,NA,NA,NA,NA,NA,NA,NA,NA,NA,NA,NA,NA,NA,NA,NA,NA,NA,NA,NA,NA,NA,NA,NA,NA,NA,NA,NA,NA,NA,NA,NA,NA,NA,NA,NA,NA,NA
SUPAMT59520,33F859I56CCQEU3PEL0OG8NG7NNBH3,EBA4BFC0-DAAC-4A45-870F-767FBA324C1B,2023-09-29_23h48.18.865,WP_VExplicitOC_HL,2022.2.5,MacIntel,60.0024001,NA,NA,NA,NA,NA,NA,NA,NA,NA,NA,NA,-30.40341332,2.0459,0,2,2,2,1,stretch,003.png,NA,NA,NA,NA,NA,NA,NA,NA,NA,NA,NA,NA,NA,NA,NA,NA,NA,NA,NA,NA,NA,NA,NA,NA,NA,NA,NA,NA,NA,NA,NA,NA,NA,NA,NA,NA,NA,NA,NA
SUPAMT59520,33F859I56CCQEU3PEL0OG8NG7NNBH3,EBA4BFC0-DAAC-4A45-870F-767FBA324C1B,2023-09-29_23h48.18.865,WP_VExplicitOC_HL,2022.2.5,MacIntel,60.0024001,NA,NA,NA,NA,NA,NA,NA,NA,NA,NA,NA,9.730875651,1.7427,0,3,3,3,1,make a drink,004.png,NA,NA,NA,NA,NA,NA,NA,NA,NA,NA,NA,NA,NA,NA,NA,NA,NA,NA,NA,NA,NA,NA,NA,NA,NA,NA,NA,NA,NA,NA,NA,NA,NA,NA,NA,NA,NA,NA,NA
SUPAMT59520,33F859I56CCQEU3PEL0OG8NG7NNBH3,EBA4BFC0-DAAC-4A45-870F-767FBA324C1B,2023-09-29_23h48.18.865,WP_VExplicitOC_HL,2022.2.5,MacIntel,60.0024001,NA,NA,NA,NA,NA,NA,NA,NA,NA,NA,NA,22.66565523,2.077,0,4,4,4,1,scroll social media,005.png,NA,NA,NA,NA,NA,NA,NA,NA,NA,NA,NA,NA,NA,NA,NA,NA,NA,NA,NA,NA,NA,NA,NA,NA,NA,NA,NA,NA,NA,NA,NA,NA,NA,NA,NA,NA,NA,NA,NA
SUPAMT59520,33F859I56CCQEU3PEL0OG8NG7NNBH3,EBA4BFC0-DAAC-4A45-870F-767FBA324C1B,2023-09-29_23h48.18.865,WP_VExplicitOC_HL,2022.2.5,MacIntel,60.0024001,NA,NA,NA,NA,NA,NA,NA,NA,NA,NA,NA,64.34956287,1.6937,0,5,5,5,1,listen to music,006.png,NA,NA,NA,NA,NA,NA,NA,NA,NA,NA,NA,NA,NA,NA,NA,NA,NA,NA,NA,NA,NA,NA,NA,NA,NA,NA,NA,NA,NA,NA,NA,NA,NA,NA,NA,NA,NA,NA,NA
SUPAMT59520,33F859I56CCQEU3PEL0OG8NG7NNBH3,EBA4BFC0-DAAC-4A45-870F-767FBA324C1B,2023-09-29_23h48.18.865,WP_VExplicitOC_HL,2022.2.5,MacIntel,60.0024001,NA,NA,NA,NA,NA,NA,NA,NA,NA,NA,NA,100,1.8106,0,6,6,6,1,daydream,007.png,NA,NA,NA,NA,NA,NA,NA,NA,NA,NA,NA,NA,NA,NA,NA,NA,NA,NA,NA,NA,NA,NA,NA,NA,NA,NA,NA,NA,NA,NA,NA,NA,NA,NA,NA,NA,NA,NA,NA
SUPAMT59520,33F859I56CCQEU3PEL0OG8NG7NNBH3,EBA4BFC0-DAAC-4A45-870F-767FBA324C1B,2023-09-29_23h48.18.865,WP_VExplicitOC_HL,2022.2.5,MacIntel,60.0024001,NA,NA,NA,NA,NA,NA,NA,NA,NA,NA,NA,13.73296828,1.6454,0,7,7,7,1,watch a short animation,008.png,NA,NA,NA,NA,NA,NA,NA,NA,NA,NA,NA,NA,NA,NA,NA,NA,NA,NA,NA,NA,NA,NA,NA,NA,NA,NA,NA,NA,NA,NA,NA,NA,NA,NA,NA,NA,NA,NA,NA
SUPAMT59520,33F859I56CCQEU3PEL0OG8NG7NNBH3,EBA4BFC0-DAAC-4A45-870F-767FBA324C1B,2023-09-29_23h48.18.865,WP_VExplicitOC_HL,2022.2.5,MacIntel,60.0024001,NA,NA,NA,NA,NA,NA,NA,NA,NA,NA,NA,-30.37511626,1.4284,0,8,8,8,1,read a novel,009.png,NA,NA,NA,NA,NA,NA,NA,NA,NA,NA,NA,NA,NA,NA,NA,NA,NA,NA,NA,NA,NA,NA,NA,NA,NA,NA,NA,NA,NA,NA,NA,NA,NA,NA,NA,NA,NA,NA,NA
SUPAMT59520,33F859I56CCQEU3PEL0OG8NG7NNBH3,EBA4BFC0-DAAC-4A45-870F-767FBA324C1B,2023-09-29_23h48.18.865,WP_VExplicitOC_HL,2022.2.5,MacIntel,60.0024001,NA,NA,NA,NA,NA,NA,NA,NA,NA,NA,NA,-35.69397554,1.3303,0,9,9,9,1,read the news,010.png,NA,NA,NA,NA,NA,NA,NA,NA,NA,NA,NA,NA,NA,NA,NA,NA,NA,NA,NA,NA,NA,NA,NA,NA,NA,NA,NA,NA,NA,NA,NA,NA,NA,NA,NA,NA,NA,NA,NA
SUPAMT59520,33F859I56CCQEU3PEL0OG8NG7NNBH3,EBA4BFC0-DAAC-4A45-870F-767FBA324C1B,2023-09-29_23h48.18.865,WP_VExplicitOC_HL,2022.2.5,MacIntel,60.0024001,NA,NA,NA,NA,NA,NA,NA,NA,NA,NA,NA,NA,NA,NA,NA,NA,NA,NA,NA,NA,NA,NA,NA,NA,NA,NA,NA,NA,NA,NA,NA,NA,NA,NA,NA,NA,NA,NA,NA,NA,NA,NA,NA,NA,NA,NA,NA,NA,NA,NA,NA,NA,NA,NA,NA,NA,NA,NA,NA
SUPAMT59520,33F859I56CCQEU3PEL0OG8NG7NNBH3,EBA4BFC0-DAAC-4A45-870F-767FBA324C1B,2023-09-29_23h48.18.865,WP_VExplicitOC_HL,2022.2.5,MacIntel,60.0024001,NA,NA,NA,NA,NA,NA,NA,NA,NA,NA,NA,NA,NA,NA,NA,NA,NA,NA,NA,NA,listen to music,NA,NA,NA,NA,NA,NA,NA,NA,NA,NA,NA,NA,NA,NA,NA,NA,NA,NA,NA,NA,NA,NA,NA,NA,NA,NA,NA,NA,NA,NA,NA,NA,NA,NA,NA,NA,NA,NA
SUPAMT59520,33F859I56CCQEU3PEL0OG8NG7NNBH3,EBA4BFC0-DAAC-4A45-870F-767FBA324C1B,2023-09-29_23h48.18.865,WP_VExplicitOC_HL,2022.2.5,MacIntel,60.0024001,-18.31248837,3.5608,2.0001,NA,NA,NA,NA,NA,frustrated,"frustrated, not frustrated","more frustrated, less frustrated",NA,NA,NA,NA,NA,NA,NA,NA,NA,NA,0,0,0,1,1,NA,NA,NA,NA,NA,NA,NA,NA,NA,NA,NA,NA,NA,NA,NA,NA,NA,NA,NA,NA,NA,NA,NA,NA,NA,NA,NA,NA,NA,NA,NA,NA,NA
SUPAMT59520,33F859I56CCQEU3PEL0OG8NG7NNBH3,EBA4BFC0-DAAC-4A45-870F-767FBA324C1B,2023-09-29_23h48.18.865,WP_VExplicitOC_HL,2022.2.5,MacIntel,60.0024001,-14.63605608,2.6278,2.0154,NA,NA,NA,NA,NA,happy,"unhappy, happy","less happy, more happy",NA,NA,NA,NA,NA,NA,NA,NA,NA,NA,0,1,1,0,1,NA,NA,NA,NA,NA,NA,NA,NA,NA,NA,NA,NA,NA,NA,NA,NA,NA,NA,NA,NA,NA,NA,NA,NA,NA,NA,NA,NA,NA,NA,NA,NA,NA
SUPAMT59520,33F859I56CCQEU3PEL0OG8NG7NNBH3,EBA4BFC0-DAAC-4A45-870F-767FBA324C1B,2023-09-29_23h48.18.865,WP_VExplicitOC_HL,2022.2.5,MacIntel,60.0024001,-28.03176153,3.0602,2.0178,NA,NA,NA,NA,NA,bored,"bored, not bored","more bored, less bored",NA,NA,NA,NA,NA,NA,NA,NA,NA,NA,0,2,2,2,1,NA,NA,NA,NA,NA,NA,NA,NA,NA,NA,NA,NA,NA,NA,NA,NA,NA,NA,NA,NA,NA,NA,NA,NA,NA,NA,NA,NA,NA,NA,NA,NA,NA
SUPAMT59520,33F859I56CCQEU3PEL0OG8NG7NNBH3,EBA4BFC0-DAAC-4A45-870F-767FBA324C1B,2023-09-29_23h48.18.865,WP_VExplicitOC_HL,2022.2.5,MacIntel,60.0024001,NA,NA,NA,NA,NA,NA,NA,NA,NA,NA,NA,NA,NA,NA,NA,NA,NA,NA,NA,NA,NA,NA,NA,NA,NA,NA,NA,NA,NA,NA,NA,NA,NA,NA,NA,NA,NA,NA,NA,NA,NA,NA,NA,NA,NA,NA,NA,NA,NA,NA,NA,NA,NA,NA,NA,NA,NA,NA,NA
SUPAMT59520,33F859I56CCQEU3PEL0OG8NG7NNBH3,EBA4BFC0-DAAC-4A45-870F-767FBA324C1B,2023-09-29_23h48.18.865,WP_VExplicitOC_HL,2022.2.5,MacIntel,60.0024001,NA,NA,NA,NA,NA,NA,NA,NA,NA,NA,NA,NA,NA,NA,NA,NA,NA,NA,NA,NA,NA,NA,NA,NA,NA,NA,NA,NA,NA,NA,NA,NA,NA,NA,NA,NA,NA,NA,NA,NA,NA,NA,NA,NA,NA,NA,NA,NA,NA,NA,NA,NA,NA,NA,NA,NA,NA,NA,NA
SUPAMT59520,33F859I56CCQEU3PEL0OG8NG7NNBH3,EBA4BFC0-DAAC-4A45-870F-767FBA324C1B,2023-09-29_23h48.18.865,WP_VExplicitOC_HL,2022.2.5,MacIntel,60.0024001,-17.97126116,4.6288,2.0008,NA,NA,NA,NA,NA,happy,"unhappy, happy","less happy, more happy",NA,NA,NA,NA,NA,NA,NA,NA,NA,NA,NA,NA,NA,NA,NA,0,0,0,0,1,NA,NA,NA,NA,NA,NA,NA,NA,NA,NA,NA,NA,NA,NA,NA,NA,NA,NA,NA,NA,NA,NA,NA,NA,NA,NA,NA,NA
SUPAMT59520,33F859I56CCQEU3PEL0OG8NG7NNBH3,EBA4BFC0-DAAC-4A45-870F-767FBA324C1B,2023-09-29_23h48.18.865,WP_VExplicitOC_HL,2022.2.5,MacIntel,60.0024001,-17.86869885,3.2605,2.0168,NA,NA,NA,NA,NA,frustrated,"frustrated, not frustrated","more frustrated, less frustrated",NA,NA,NA,NA,NA,NA,NA,NA,NA,NA,NA,NA,NA,NA,NA,0,1,1,1,1,NA,NA,NA,NA,NA,NA,NA,NA,NA,NA,NA,NA,NA,NA,NA,NA,NA,NA,NA,NA,NA,NA,NA,NA,NA,NA,NA,NA
SUPAMT59520,33F859I56CCQEU3PEL0OG8NG7NNBH3,EBA4BFC0-DAAC-4A45-870F-767FBA324C1B,2023-09-29_23h48.18.865,WP_VExplicitOC_HL,2022.2.5,MacIntel,60.0024001,-37.99243164,3.4255,2.0149,NA,NA,NA,NA,NA,bored,"bored, not bored","more bored, less bored",NA,NA,NA,NA,NA,NA,NA,NA,NA,NA,NA,NA,NA,NA,NA,0,2,2,2,1,NA,NA,NA,NA,NA,NA,NA,NA,NA,NA,NA,NA,NA,NA,NA,NA,NA,NA,NA,NA,NA,NA,NA,NA,NA,NA,NA,NA
SUPAMT59520,33F859I56CCQEU3PEL0OG8NG7NNBH3,EBA4BFC0-DAAC-4A45-870F-767FBA324C1B,2023-09-29_23h48.18.865,WP_VExplicitOC_HL,2022.2.5,MacIntel,60.0024001,NA,NA,NA,NA,NA,NA,NA,NA,NA,NA,NA,NA,NA,NA,NA,NA,NA,NA,NA,NA,NA,NA,NA,NA,NA,NA,NA,NA,NA,NA,NA,0,0,0,0,1,NA,NA,NA,NA,NA,NA,NA,NA,NA,NA,NA,NA,NA,NA,NA,NA,NA,NA,NA,NA,NA,NA,NA
SUPAMT59520,33F859I56CCQEU3PEL0OG8NG7NNBH3,EBA4BFC0-DAAC-4A45-870F-767FBA324C1B,2023-09-29_23h48.18.865,WP_VExplicitOC_HL,2022.2.5,MacIntel,60.0024001,-42.73887416,4.5505,2.0019,NA,NA,NA,NA,NA,bored,"bored, not bored","more bored, less bored",NA,NA,NA,NA,NA,NA,NA,NA,NA,NA,NA,NA,NA,NA,NA,0,0,0,2,1,NA,NA,NA,NA,NA,NA,NA,NA,NA,NA,NA,NA,NA,NA,NA,NA,NA,NA,NA,NA,NA,NA,NA,NA,NA,NA,NA,NA
SUPAMT59520,33F859I56CCQEU3PEL0OG8NG7NNBH3,EBA4BFC0-DAAC-4A45-870F-767FBA324C1B,2023-09-29_23h48.18.865,WP_VExplicitOC_HL,2022.2.5,MacIntel,60.0024001,-28.8331357,2.9768,2.0007,NA,NA,NA,NA,NA,happy,"unhappy, happy","less happy, more happy",NA,NA,NA,NA,NA,NA,NA,NA,NA,NA,NA,NA,NA,NA,NA,0,1,1,0,1,NA,NA,NA,NA,NA,NA,NA,NA,NA,NA,NA,NA,NA,NA,NA,NA,NA,NA,NA,NA,NA,NA,NA,NA,NA,NA,NA,NA
SUPAMT59520,33F859I56CCQEU3PEL0OG8NG7NNBH3,EBA4BFC0-DAAC-4A45-870F-767FBA324C1B,2023-09-29_23h48.18.865,WP_VExplicitOC_HL,2022.2.5,MacIntel,60.0024001,-22.3050479,2.7601,2.0014,NA,NA,NA,NA,NA,frustrated,"frustrated, not frustrated","more frustrated, less frustrated",NA,NA,NA,NA,NA,NA,NA,NA,NA,NA,NA,NA,NA,NA,NA,0,2,2,1,1,NA,NA,NA,NA,NA,NA,NA,NA,NA,NA,NA,NA,NA,NA,NA,NA,NA,NA,NA,NA,NA,NA,NA,NA,NA,NA,NA,NA
SUPAMT59520,33F859I56CCQEU3PEL0OG8NG7NNBH3,EBA4BFC0-DAAC-4A45-870F-767FBA324C1B,2023-09-29_23h48.18.865,WP_VExplicitOC_HL,2022.2.5,MacIntel,60.0024001,NA,NA,NA,NA,NA,NA,NA,NA,NA,NA,NA,NA,NA,NA,NA,NA,NA,NA,NA,NA,NA,NA,NA,NA,NA,NA,NA,NA,NA,NA,NA,1,0,1,0,1,NA,NA,NA,NA,NA,NA,NA,NA,NA,NA,NA,NA,NA,NA,NA,NA,NA,NA,NA,NA,NA,NA,NA
SUPAMT59520,33F859I56CCQEU3PEL0OG8NG7NNBH3,EBA4BFC0-DAAC-4A45-870F-767FBA324C1B,2023-09-29_23h48.18.865,WP_VExplicitOC_HL,2022.2.5,MacIntel,60.0024001,-17.64479864,3.527,2.0015,NA,NA,NA,NA,NA,happy,"unhappy, happy","less happy, more happy",NA,NA,NA,NA,NA,NA,NA,NA,NA,NA,NA,NA,NA,NA,NA,0,0,0,0,1,NA,NA,NA,NA,NA,NA,NA,NA,NA,NA,NA,NA,NA,NA,NA,NA,NA,NA,NA,NA,NA,NA,NA,NA,NA,NA,NA,NA
SUPAMT59520,33F859I56CCQEU3PEL0OG8NG7NNBH3,EBA4BFC0-DAAC-4A45-870F-767FBA324C1B,2023-09-29_23h48.18.865,WP_VExplicitOC_HL,2022.2.5,MacIntel,60.0024001,-71.14241536,3.5425,2.0162,NA,NA,NA,NA,NA,bored,"bored, not bored","more bored, less bored",NA,NA,NA,NA,NA,NA,NA,NA,NA,NA,NA,NA,NA,NA,NA,0,1,1,2,1,NA,NA,NA,NA,NA,NA,NA,NA,NA,NA,NA,NA,NA,NA,NA,NA,NA,NA,NA,NA,NA,NA,NA,NA,NA,NA,NA,NA
SUPAMT59520,33F859I56CCQEU3PEL0OG8NG7NNBH3,EBA4BFC0-DAAC-4A45-870F-767FBA324C1B,2023-09-29_23h48.18.865,WP_VExplicitOC_HL,2022.2.5,MacIntel,60.0024001,-13.26073056,2.8928,2.0178,NA,NA,NA,NA,NA,frustrated,"frustrated, not frustrated","more frustrated, less frustrated",NA,NA,NA,NA,NA,NA,NA,NA,NA,NA,NA,NA,NA,NA,NA,0,2,2,1,1,NA,NA,NA,NA,NA,NA,NA,NA,NA,NA,NA,NA,NA,NA,NA,NA,NA,NA,NA,NA,NA,NA,NA,NA,NA,NA,NA,NA
SUPAMT59520,33F859I56CCQEU3PEL0OG8NG7NNBH3,EBA4BFC0-DAAC-4A45-870F-767FBA324C1B,2023-09-29_23h48.18.865,WP_VExplicitOC_HL,2022.2.5,MacIntel,60.0024001,NA,NA,NA,NA,NA,NA,NA,NA,NA,NA,NA,NA,NA,NA,NA,NA,NA,NA,NA,NA,NA,NA,NA,NA,NA,NA,NA,NA,NA,NA,NA,2,0,2,0,1,NA,NA,NA,NA,NA,NA,NA,NA,NA,NA,NA,NA,NA,NA,NA,NA,NA,NA,NA,NA,NA,NA,NA
SUPAMT59520,33F859I56CCQEU3PEL0OG8NG7NNBH3,EBA4BFC0-DAAC-4A45-870F-767FBA324C1B,2023-09-29_23h48.18.865,WP_VExplicitOC_HL,2022.2.5,MacIntel,60.0024001,-21.46448335,3.1624,2.002,NA,NA,NA,NA,NA,happy,"unhappy, happy","less happy, more happy",NA,NA,NA,NA,NA,NA,NA,NA,NA,NA,NA,NA,NA,NA,NA,0,0,0,0,1,NA,NA,NA,NA,NA,NA,NA,NA,NA,NA,NA,NA,NA,NA,NA,NA,NA,NA,NA,NA,NA,NA,NA,NA,NA,NA,NA,NA
SUPAMT59520,33F859I56CCQEU3PEL0OG8NG7NNBH3,EBA4BFC0-DAAC-4A45-870F-767FBA324C1B,2023-09-29_23h48.18.865,WP_VExplicitOC_HL,2022.2.5,MacIntel,60.0024001,-47.488258,3.2762,2.015,NA,NA,NA,NA,NA,frustrated,"frustrated, not frustrated","more frustrated, less frustrated",NA,NA,NA,NA,NA,NA,NA,NA,NA,NA,NA,NA,NA,NA,NA,0,1,1,1,1,NA,NA,NA,NA,NA,NA,NA,NA,NA,NA,NA,NA,NA,NA,NA,NA,NA,NA,NA,NA,NA,NA,NA,NA,NA,NA,NA,NA
SUPAMT59520,33F859I56CCQEU3PEL0OG8NG7NNBH3,EBA4BFC0-DAAC-4A45-870F-767FBA324C1B,2023-09-29_23h48.18.865,WP_VExplicitOC_HL,2022.2.5,MacIntel,60.0024001,-75.1931908,3.1598,2.0183,NA,NA,NA,NA,NA,bored,"bored, not bored","more bored, less bored",NA,NA,NA,NA,NA,NA,NA,NA,NA,NA,NA,NA,NA,NA,NA,0,2,2,2,1,NA,NA,NA,NA,NA,NA,NA,NA,NA,NA,NA,NA,NA,NA,NA,NA,NA,NA,NA,NA,NA,NA,NA,NA,NA,NA,NA,NA
SUPAMT59520,33F859I56CCQEU3PEL0OG8NG7NNBH3,EBA4BFC0-DAAC-4A45-870F-767FBA324C1B,2023-09-29_23h48.18.865,WP_VExplicitOC_HL,2022.2.5,MacIntel,60.0024001,NA,NA,NA,NA,NA,NA,NA,NA,NA,NA,NA,NA,NA,NA,NA,NA,NA,NA,NA,NA,NA,NA,NA,NA,NA,NA,NA,NA,NA,NA,NA,3,0,3,0,1,NA,NA,NA,NA,NA,NA,NA,NA,NA,NA,NA,NA,NA,NA,NA,NA,NA,NA,NA,NA,NA,NA,NA
SUPAMT59520,33F859I56CCQEU3PEL0OG8NG7NNBH3,EBA4BFC0-DAAC-4A45-870F-767FBA324C1B,2023-09-29_23h48.18.865,WP_VExplicitOC_HL,2022.2.5,MacIntel,60.0024001,-58.90533157,3.8312,2.004,NA,NA,NA,NA,NA,frustrated,"frustrated, not frustrated","more frustrated, less frustrated",NA,NA,NA,NA,NA,NA,NA,NA,NA,NA,NA,NA,NA,NA,NA,0,0,0,1,1,NA,NA,NA,NA,NA,NA,NA,NA,NA,NA,NA,NA,NA,NA,NA,NA,NA,NA,NA,NA,NA,NA,NA,NA,NA,NA,NA,NA
SUPAMT59520,33F859I56CCQEU3PEL0OG8NG7NNBH3,EBA4BFC0-DAAC-4A45-870F-767FBA324C1B,2023-09-29_23h48.18.865,WP_VExplicitOC_HL,2022.2.5,MacIntel,60.0024001,-25.63852074,2.9588,2.0199,NA,NA,NA,NA,NA,happy,"unhappy, happy","less happy, more happy",NA,NA,NA,NA,NA,NA,NA,NA,NA,NA,NA,NA,NA,NA,NA,0,1,1,0,1,NA,NA,NA,NA,NA,NA,NA,NA,NA,NA,NA,NA,NA,NA,NA,NA,NA,NA,NA,NA,NA,NA,NA,NA,NA,NA,NA,NA
SUPAMT59520,33F859I56CCQEU3PEL0OG8NG7NNBH3,EBA4BFC0-DAAC-4A45-870F-767FBA324C1B,2023-09-29_23h48.18.865,WP_VExplicitOC_HL,2022.2.5,MacIntel,60.0024001,-81.2847261,3.059,2.0163,NA,NA,NA,NA,NA,bored,"bored, not bored","more bored, less bored",NA,NA,NA,NA,NA,NA,NA,NA,NA,NA,NA,NA,NA,NA,NA,0,2,2,2,1,NA,NA,NA,NA,NA,NA,NA,NA,NA,NA,NA,NA,NA,NA,NA,NA,NA,NA,NA,NA,NA,NA,NA,NA,NA,NA,NA,NA
SUPAMT59520,33F859I56CCQEU3PEL0OG8NG7NNBH3,EBA4BFC0-DAAC-4A45-870F-767FBA324C1B,2023-09-29_23h48.18.865,WP_VExplicitOC_HL,2022.2.5,MacIntel,60.0024001,NA,NA,NA,NA,NA,NA,NA,NA,NA,NA,NA,NA,NA,NA,NA,NA,NA,NA,NA,NA,NA,NA,NA,NA,NA,NA,NA,NA,NA,NA,NA,4,0,4,0,1,NA,NA,NA,NA,NA,NA,NA,NA,NA,NA,NA,NA,NA,NA,NA,NA,NA,NA,NA,NA,NA,NA,NA
SUPAMT59520,33F859I56CCQEU3PEL0OG8NG7NNBH3,EBA4BFC0-DAAC-4A45-870F-767FBA324C1B,2023-09-29_23h48.18.865,WP_VExplicitOC_HL,2022.2.5,MacIntel,60.0024001,-27.81004697,5.1137,2.0031,NA,NA,NA,NA,NA,happy,"unhappy, happy","less happy, more happy",NA,NA,NA,NA,NA,NA,NA,NA,NA,NA,NA,NA,NA,NA,NA,0,0,0,0,1,NA,NA,NA,NA,NA,NA,NA,NA,NA,NA,NA,NA,NA,NA,NA,NA,NA,NA,NA,NA,NA,NA,NA,NA,NA,NA,NA,NA
SUPAMT59520,33F859I56CCQEU3PEL0OG8NG7NNBH3,EBA4BFC0-DAAC-4A45-870F-767FBA324C1B,2023-09-29_23h48.18.865,WP_VExplicitOC_HL,2022.2.5,MacIntel,60.0024001,-24.67816453,7.3754,2.0162,NA,NA,NA,NA,NA,bored,"bored, not bored","more bored, less bored",NA,NA,NA,NA,NA,NA,NA,NA,NA,NA,NA,NA,NA,NA,NA,0,1,1,2,1,NA,NA,NA,NA,NA,NA,NA,NA,NA,NA,NA,NA,NA,NA,NA,NA,NA,NA,NA,NA,NA,NA,NA,NA,NA,NA,NA,NA
SUPAMT59520,33F859I56CCQEU3PEL0OG8NG7NNBH3,EBA4BFC0-DAAC-4A45-870F-767FBA324C1B,2023-09-29_23h48.18.865,WP_VExplicitOC_HL,2022.2.5,MacIntel,60.0024001,-47.62295387,3.2588,2.0156,NA,NA,NA,NA,NA,frustrated,"frustrated, not frustrated","more frustrated, less frustrated",NA,NA,NA,NA,NA,NA,NA,NA,NA,NA,NA,NA,NA,NA,NA,0,2,2,1,1,NA,NA,NA,NA,NA,NA,NA,NA,NA,NA,NA,NA,NA,NA,NA,NA,NA,NA,NA,NA,NA,NA,NA,NA,NA,NA,NA,NA
SUPAMT59520,33F859I56CCQEU3PEL0OG8NG7NNBH3,EBA4BFC0-DAAC-4A45-870F-767FBA324C1B,2023-09-29_23h48.18.865,WP_VExplicitOC_HL,2022.2.5,MacIntel,60.0024001,NA,NA,NA,NA,NA,NA,NA,NA,NA,NA,NA,NA,NA,NA,NA,NA,NA,NA,NA,NA,NA,NA,NA,NA,NA,NA,NA,NA,NA,NA,NA,5,0,5,0,1,NA,NA,NA,NA,NA,NA,NA,NA,NA,NA,NA,NA,NA,NA,NA,NA,NA,NA,NA,NA,NA,NA,NA
SUPAMT59520,33F859I56CCQEU3PEL0OG8NG7NNBH3,EBA4BFC0-DAAC-4A45-870F-767FBA324C1B,2023-09-29_23h48.18.865,WP_VExplicitOC_HL,2022.2.5,MacIntel,60.0024001,-100,4.2781,2.0047,NA,NA,NA,NA,NA,bored,"bored, not bored","more bored, less bored",NA,NA,NA,NA,NA,NA,NA,NA,NA,NA,NA,NA,NA,NA,NA,0,0,0,2,1,NA,NA,NA,NA,NA,NA,NA,NA,NA,NA,NA,NA,NA,NA,NA,NA,NA,NA,NA,NA,NA,NA,NA,NA,NA,NA,NA,NA
SUPAMT59520,33F859I56CCQEU3PEL0OG8NG7NNBH3,EBA4BFC0-DAAC-4A45-870F-767FBA324C1B,2023-09-29_23h48.18.865,WP_VExplicitOC_HL,2022.2.5,MacIntel,60.0024001,-49.75290644,3.6914,2,NA,NA,NA,NA,NA,frustrated,"frustrated, not frustrated","more frustrated, less frustrated",NA,NA,NA,NA,NA,NA,NA,NA,NA,NA,NA,NA,NA,NA,NA,0,1,1,1,1,NA,NA,NA,NA,NA,NA,NA,NA,NA,NA,NA,NA,NA,NA,NA,NA,NA,NA,NA,NA,NA,NA,NA,NA,NA,NA,NA,NA
SUPAMT59520,33F859I56CCQEU3PEL0OG8NG7NNBH3,EBA4BFC0-DAAC-4A45-870F-767FBA324C1B,2023-09-29_23h48.18.865,WP_VExplicitOC_HL,2022.2.5,MacIntel,60.0024001,-29.06210472,3.9792,2.0184,NA,NA,NA,NA,NA,happy,"unhappy, happy","less happy, more happy",NA,NA,NA,NA,NA,NA,NA,NA,NA,NA,NA,NA,NA,NA,NA,0,2,2,0,1,NA,NA,NA,NA,NA,NA,NA,NA,NA,NA,NA,NA,NA,NA,NA,NA,NA,NA,NA,NA,NA,NA,NA,NA,NA,NA,NA,NA
SUPAMT59520,33F859I56CCQEU3PEL0OG8NG7NNBH3,EBA4BFC0-DAAC-4A45-870F-767FBA324C1B,2023-09-29_23h48.18.865,WP_VExplicitOC_HL,2022.2.5,MacIntel,60.0024001,NA,NA,NA,NA,NA,NA,NA,NA,NA,NA,NA,NA,NA,NA,NA,NA,NA,NA,NA,NA,NA,NA,NA,NA,NA,NA,NA,NA,NA,NA,NA,6,0,6,0,1,NA,NA,NA,NA,NA,NA,NA,NA,NA,NA,NA,NA,NA,NA,NA,NA,NA,NA,NA,NA,NA,NA,NA
SUPAMT59520,33F859I56CCQEU3PEL0OG8NG7NNBH3,EBA4BFC0-DAAC-4A45-870F-767FBA324C1B,2023-09-29_23h48.18.865,WP_VExplicitOC_HL,2022.2.5,MacIntel,60.0024001,-41.17993164,7.3132,2.0044,NA,NA,NA,NA,NA,bored,"bored, not bored","more bored, less bored",NA,NA,NA,NA,NA,NA,NA,NA,NA,NA,NA,NA,NA,NA,NA,0,0,0,2,1,NA,NA,NA,NA,NA,NA,NA,NA,NA,NA,NA,NA,NA,NA,NA,NA,NA,NA,NA,NA,NA,NA,NA,NA,NA,NA,NA,NA
SUPAMT59520,33F859I56CCQEU3PEL0OG8NG7NNBH3,EBA4BFC0-DAAC-4A45-870F-767FBA324C1B,2023-09-29_23h48.18.865,WP_VExplicitOC_HL,2022.2.5,MacIntel,60.0024001,NA,NA,2.0167,NA,NA,NA,NA,NA,frustrated,"frustrated, not frustrated","more frustrated, less frustrated",NA,NA,NA,NA,NA,NA,NA,NA,NA,NA,NA,NA,NA,NA,NA,0,1,1,1,1,NA,NA,NA,NA,NA,NA,NA,NA,NA,NA,NA,NA,NA,NA,NA,NA,NA,NA,NA,NA,NA,NA,NA,NA,NA,NA,NA,NA
SUPAMT59520,33F859I56CCQEU3PEL0OG8NG7NNBH3,EBA4BFC0-DAAC-4A45-870F-767FBA324C1B,2023-09-29_23h48.18.865,WP_VExplicitOC_HL,2022.2.5,MacIntel,60.0024001,-24.88473075,6.2522,2.0072,NA,NA,NA,NA,NA,happy,"unhappy, happy","less happy, more happy",NA,NA,NA,NA,NA,NA,NA,NA,NA,NA,NA,NA,NA,NA,NA,0,2,2,0,1,NA,NA,NA,NA,NA,NA,NA,NA,NA,NA,NA,NA,NA,NA,NA,NA,NA,NA,NA,NA,NA,NA,NA,NA,NA,NA,NA,NA
SUPAMT59520,33F859I56CCQEU3PEL0OG8NG7NNBH3,EBA4BFC0-DAAC-4A45-870F-767FBA324C1B,2023-09-29_23h48.18.865,WP_VExplicitOC_HL,2022.2.5,MacIntel,60.0024001,NA,NA,NA,NA,NA,NA,NA,NA,NA,NA,NA,NA,NA,NA,NA,NA,NA,NA,NA,NA,NA,NA,NA,NA,NA,NA,NA,NA,NA,NA,NA,7,0,7,0,1,NA,NA,NA,NA,NA,NA,NA,NA,NA,NA,NA,NA,NA,NA,NA,NA,NA,NA,NA,NA,NA,NA,NA
SUPAMT59520,33F859I56CCQEU3PEL0OG8NG7NNBH3,EBA4BFC0-DAAC-4A45-870F-767FBA324C1B,2023-09-29_23h48.18.865,WP_VExplicitOC_HL,2022.2.5,MacIntel,60.0024001,NA,NA,2.0017,NA,NA,NA,NA,NA,frustrated,"frustrated, not frustrated","more frustrated, less frustrated",NA,NA,NA,NA,NA,NA,NA,NA,NA,NA,NA,NA,NA,NA,NA,0,0,0,1,1,NA,NA,NA,NA,NA,NA,NA,NA,NA,NA,NA,NA,NA,NA,NA,NA,NA,NA,NA,NA,NA,NA,NA,NA,NA,NA,NA,NA
SUPAMT59520,33F859I56CCQEU3PEL0OG8NG7NNBH3,EBA4BFC0-DAAC-4A45-870F-767FBA324C1B,2023-09-29_23h48.18.865,WP_VExplicitOC_HL,2022.2.5,MacIntel,60.0024001,-100,3.225,2.0153,NA,NA,NA,NA,NA,bored,"bored, not bored","more bored, less bored",NA,NA,NA,NA,NA,NA,NA,NA,NA,NA,NA,NA,NA,NA,NA,0,1,1,2,1,NA,NA,NA,NA,NA,NA,NA,NA,NA,NA,NA,NA,NA,NA,NA,NA,NA,NA,NA,NA,NA,NA,NA,NA,NA,NA,NA,NA
SUPAMT59520,33F859I56CCQEU3PEL0OG8NG7NNBH3,EBA4BFC0-DAAC-4A45-870F-767FBA324C1B,2023-09-29_23h48.18.865,WP_VExplicitOC_HL,2022.2.5,MacIntel,60.0024001,NA,NA,2.0174,NA,NA,NA,NA,NA,happy,"unhappy, happy","less happy, more happy",NA,NA,NA,NA,NA,NA,NA,NA,NA,NA,NA,NA,NA,NA,NA,0,2,2,0,1,NA,NA,NA,NA,NA,NA,NA,NA,NA,NA,NA,NA,NA,NA,NA,NA,NA,NA,NA,NA,NA,NA,NA,NA,NA,NA,NA,NA
SUPAMT59520,33F859I56CCQEU3PEL0OG8NG7NNBH3,EBA4BFC0-DAAC-4A45-870F-767FBA324C1B,2023-09-29_23h48.18.865,WP_VExplicitOC_HL,2022.2.5,MacIntel,60.0024001,NA,NA,NA,NA,NA,NA,NA,NA,NA,NA,NA,NA,NA,NA,NA,NA,NA,NA,NA,NA,NA,NA,NA,NA,NA,NA,NA,NA,NA,NA,NA,8,0,8,0,1,NA,NA,NA,NA,NA,NA,NA,NA,NA,NA,NA,NA,NA,NA,NA,NA,NA,NA,NA,NA,NA,NA,NA
SUPAMT59520,33F859I56CCQEU3PEL0OG8NG7NNBH3,EBA4BFC0-DAAC-4A45-870F-767FBA324C1B,2023-09-29_23h48.18.865,WP_VExplicitOC_HL,2022.2.5,MacIntel,60.0024001,NA,NA,2.0031,NA,NA,NA,NA,NA,happy,"unhappy, happy","less happy, more happy",NA,NA,NA,NA,NA,NA,NA,NA,NA,NA,NA,NA,NA,NA,NA,0,0,0,0,1,NA,NA,NA,NA,NA,NA,NA,NA,NA,NA,NA,NA,NA,NA,NA,NA,NA,NA,NA,NA,NA,NA,NA,NA,NA,NA,NA,NA
SUPAMT59520,33F859I56CCQEU3PEL0OG8NG7NNBH3,EBA4BFC0-DAAC-4A45-870F-767FBA324C1B,2023-09-29_23h48.18.865,WP_VExplicitOC_HL,2022.2.5,MacIntel,60.0024001,-34.23241025,3.2059,2.0128,NA,NA,NA,NA,NA,frustrated,"frustrated, not frustrated","more frustrated, less frustrated",NA,NA,NA,NA,NA,NA,NA,NA,NA,NA,NA,NA,NA,NA,NA,0,1,1,1,1,NA,NA,NA,NA,NA,NA,NA,NA,NA,NA,NA,NA,NA,NA,NA,NA,NA,NA,NA,NA,NA,NA,NA,NA,NA,NA,NA,NA
SUPAMT59520,33F859I56CCQEU3PEL0OG8NG7NNBH3,EBA4BFC0-DAAC-4A45-870F-767FBA324C1B,2023-09-29_23h48.18.865,WP_VExplicitOC_HL,2022.2.5,MacIntel,60.0024001,-100,2.6574,2.0155,NA,NA,NA,NA,NA,bored,"bored, not bored","more bored, less bored",NA,NA,NA,NA,NA,NA,NA,NA,NA,NA,NA,NA,NA,NA,NA,0,2,2,2,1,NA,NA,NA,NA,NA,NA,NA,NA,NA,NA,NA,NA,NA,NA,NA,NA,NA,NA,NA,NA,NA,NA,NA,NA,NA,NA,NA,NA
SUPAMT59520,33F859I56CCQEU3PEL0OG8NG7NNBH3,EBA4BFC0-DAAC-4A45-870F-767FBA324C1B,2023-09-29_23h48.18.865,WP_VExplicitOC_HL,2022.2.5,MacIntel,60.0024001,NA,NA,NA,NA,NA,NA,NA,NA,NA,NA,NA,NA,NA,NA,NA,NA,NA,NA,NA,NA,NA,NA,NA,NA,NA,NA,NA,NA,NA,NA,NA,9,0,9,0,1,NA,NA,NA,NA,NA,NA,NA,NA,NA,NA,NA,NA,NA,NA,NA,NA,NA,NA,NA,NA,NA,NA,NA
SUPAMT59520,33F859I56CCQEU3PEL0OG8NG7NNBH3,EBA4BFC0-DAAC-4A45-870F-767FBA324C1B,2023-09-29_23h48.18.865,WP_VExplicitOC_HL,2022.2.5,MacIntel,60.0024001,-62.02706473,3.5288,2.002,NA,NA,NA,NA,NA,bored,"bored, not bored","more bored, less bored",NA,NA,NA,NA,NA,NA,NA,NA,NA,NA,NA,NA,NA,NA,NA,0,0,0,2,1,NA,NA,NA,NA,NA,NA,NA,NA,NA,NA,NA,NA,NA,NA,NA,NA,NA,NA,NA,NA,NA,NA,NA,NA,NA,NA,NA,NA
SUPAMT59520,33F859I56CCQEU3PEL0OG8NG7NNBH3,EBA4BFC0-DAAC-4A45-870F-767FBA324C1B,2023-09-29_23h48.18.865,WP_VExplicitOC_HL,2022.2.5,MacIntel,60.0024001,-35.16070266,3.3262,2.0008,NA,NA,NA,NA,NA,frustrated,"frustrated, not frustrated","more frustrated, less frustrated",NA,NA,NA,NA,NA,NA,NA,NA,NA,NA,NA,NA,NA,NA,NA,0,1,1,1,1,NA,NA,NA,NA,NA,NA,NA,NA,NA,NA,NA,NA,NA,NA,NA,NA,NA,NA,NA,NA,NA,NA,NA,NA,NA,NA,NA,NA
SUPAMT59520,33F859I56CCQEU3PEL0OG8NG7NNBH3,EBA4BFC0-DAAC-4A45-870F-767FBA324C1B,2023-09-29_23h48.18.865,WP_VExplicitOC_HL,2022.2.5,MacIntel,60.0024001,-45.56320917,5.5922,2.0169,NA,NA,NA,NA,NA,happy,"unhappy, happy","less happy, more happy",NA,NA,NA,NA,NA,NA,NA,NA,NA,NA,NA,NA,NA,NA,NA,0,2,2,0,1,NA,NA,NA,NA,NA,NA,NA,NA,NA,NA,NA,NA,NA,NA,NA,NA,NA,NA,NA,NA,NA,NA,NA,NA,NA,NA,NA,NA
SUPAMT59520,33F859I56CCQEU3PEL0OG8NG7NNBH3,EBA4BFC0-DAAC-4A45-870F-767FBA324C1B,2023-09-29_23h48.18.865,WP_VExplicitOC_HL,2022.2.5,MacIntel,60.0024001,NA,NA,NA,NA,NA,NA,NA,NA,NA,NA,NA,NA,NA,NA,NA,NA,NA,NA,NA,NA,NA,NA,NA,NA,NA,NA,NA,NA,NA,NA,NA,10,0,10,0,1,NA,NA,NA,NA,NA,NA,NA,NA,NA,NA,NA,NA,NA,NA,NA,NA,NA,NA,NA,NA,NA,NA,NA
SUPAMT59520,33F859I56CCQEU3PEL0OG8NG7NNBH3,EBA4BFC0-DAAC-4A45-870F-767FBA324C1B,2023-09-29_23h48.18.865,WP_VExplicitOC_HL,2022.2.5,MacIntel,60.0024001,-24.94681222,5.2637,2.0033,NA,NA,NA,NA,NA,happy,"unhappy, happy","less happy, more happy",NA,NA,NA,NA,NA,NA,NA,NA,NA,NA,NA,NA,NA,NA,NA,0,0,0,0,1,NA,NA,NA,NA,NA,NA,NA,NA,NA,NA,NA,NA,NA,NA,NA,NA,NA,NA,NA,NA,NA,NA,NA,NA,NA,NA,NA,NA
SUPAMT59520,33F859I56CCQEU3PEL0OG8NG7NNBH3,EBA4BFC0-DAAC-4A45-870F-767FBA324C1B,2023-09-29_23h48.18.865,WP_VExplicitOC_HL,2022.2.5,MacIntel,60.0024001,-50.23323568,3.772,2.0139,NA,NA,NA,NA,NA,frustrated,"frustrated, not frustrated","more frustrated, less frustrated",NA,NA,NA,NA,NA,NA,NA,NA,NA,NA,NA,NA,NA,NA,NA,0,1,1,1,1,NA,NA,NA,NA,NA,NA,NA,NA,NA,NA,NA,NA,NA,NA,NA,NA,NA,NA,NA,NA,NA,NA,NA,NA,NA,NA,NA,NA
SUPAMT59520,33F859I56CCQEU3PEL0OG8NG7NNBH3,EBA4BFC0-DAAC-4A45-870F-767FBA324C1B,2023-09-29_23h48.18.865,WP_VExplicitOC_HL,2022.2.5,MacIntel,60.0024001,-82.36104911,4.8449,2.0009,NA,NA,NA,NA,NA,bored,"bored, not bored","more bored, less bored",NA,NA,NA,NA,NA,NA,NA,NA,NA,NA,NA,NA,NA,NA,NA,0,2,2,2,1,NA,NA,NA,NA,NA,NA,NA,NA,NA,NA,NA,NA,NA,NA,NA,NA,NA,NA,NA,NA,NA,NA,NA,NA,NA,NA,NA,NA
SUPAMT59520,33F859I56CCQEU3PEL0OG8NG7NNBH3,EBA4BFC0-DAAC-4A45-870F-767FBA324C1B,2023-09-29_23h48.18.865,WP_VExplicitOC_HL,2022.2.5,MacIntel,60.0024001,NA,NA,NA,NA,NA,NA,NA,NA,NA,NA,NA,NA,NA,NA,NA,NA,NA,NA,NA,NA,NA,NA,NA,NA,NA,NA,NA,NA,NA,NA,NA,11,0,11,0,1,NA,NA,NA,NA,NA,NA,NA,NA,NA,NA,NA,NA,NA,NA,NA,NA,NA,NA,NA,NA,NA,NA,NA
SUPAMT59520,33F859I56CCQEU3PEL0OG8NG7NNBH3,EBA4BFC0-DAAC-4A45-870F-767FBA324C1B,2023-09-29_23h48.18.865,WP_VExplicitOC_HL,2022.2.5,MacIntel,60.0024001,-43.41662016,3.6629,2.0016,NA,NA,NA,NA,NA,frustrated,"frustrated, not frustrated","more frustrated, less frustrated",NA,NA,NA,NA,NA,NA,NA,NA,NA,NA,NA,NA,NA,NA,NA,0,0,0,1,1,NA,NA,NA,NA,NA,NA,NA,NA,NA,NA,NA,NA,NA,NA,NA,NA,NA,NA,NA,NA,NA,NA,NA,NA,NA,NA,NA,NA
SUPAMT59520,33F859I56CCQEU3PEL0OG8NG7NNBH3,EBA4BFC0-DAAC-4A45-870F-767FBA324C1B,2023-09-29_23h48.18.865,WP_VExplicitOC_HL,2022.2.5,MacIntel,60.0024001,-75.45919364,3.9093,2.0166,NA,NA,NA,NA,NA,bored,"bored, not bored","more bored, less bored",NA,NA,NA,NA,NA,NA,NA,NA,NA,NA,NA,NA,NA,NA,NA,0,1,1,2,1,NA,NA,NA,NA,NA,NA,NA,NA,NA,NA,NA,NA,NA,NA,NA,NA,NA,NA,NA,NA,NA,NA,NA,NA,NA,NA,NA,NA
SUPAMT59520,33F859I56CCQEU3PEL0OG8NG7NNBH3,EBA4BFC0-DAAC-4A45-870F-767FBA324C1B,2023-09-29_23h48.18.865,WP_VExplicitOC_HL,2022.2.5,MacIntel,60.0024001,-49.49469866,3.7591,2.0162,NA,NA,NA,NA,NA,happy,"unhappy, happy","less happy, more happy",NA,NA,NA,NA,NA,NA,NA,NA,NA,NA,NA,NA,NA,NA,NA,0,2,2,0,1,NA,NA,NA,NA,NA,NA,NA,NA,NA,NA,NA,NA,NA,NA,NA,NA,NA,NA,NA,NA,NA,NA,NA,NA,NA,NA,NA,NA
SUPAMT59520,33F859I56CCQEU3PEL0OG8NG7NNBH3,EBA4BFC0-DAAC-4A45-870F-767FBA324C1B,2023-09-29_23h48.18.865,WP_VExplicitOC_HL,2022.2.5,MacIntel,60.0024001,NA,NA,NA,NA,NA,NA,NA,NA,NA,NA,NA,NA,NA,NA,NA,NA,NA,NA,NA,NA,NA,NA,NA,NA,NA,NA,NA,NA,NA,NA,NA,12,0,12,0,1,NA,NA,NA,NA,NA,NA,NA,NA,NA,NA,NA,NA,NA,NA,NA,NA,NA,NA,NA,NA,NA,NA,NA
SUPAMT59520,33F859I56CCQEU3PEL0OG8NG7NNBH3,EBA4BFC0-DAAC-4A45-870F-767FBA324C1B,2023-09-29_23h48.18.865,WP_VExplicitOC_HL,2022.2.5,MacIntel,60.0024001,-59.17961775,6.2096,2,NA,NA,NA,NA,NA,bored,"bored, not bored","more bored, less bored",NA,NA,NA,NA,NA,NA,NA,NA,NA,NA,NA,NA,NA,NA,NA,0,0,0,2,1,NA,NA,NA,NA,NA,NA,NA,NA,NA,NA,NA,NA,NA,NA,NA,NA,NA,NA,NA,NA,NA,NA,NA,NA,NA,NA,NA,NA
SUPAMT59520,33F859I56CCQEU3PEL0OG8NG7NNBH3,EBA4BFC0-DAAC-4A45-870F-767FBA324C1B,2023-09-29_23h48.18.865,WP_VExplicitOC_HL,2022.2.5,MacIntel,60.0024001,-55.57073103,7.0885,2.0154,NA,NA,NA,NA,NA,frustrated,"frustrated, not frustrated","more frustrated, less frustrated",NA,NA,NA,NA,NA,NA,NA,NA,NA,NA,NA,NA,NA,NA,NA,0,1,1,1,1,NA,NA,NA,NA,NA,NA,NA,NA,NA,NA,NA,NA,NA,NA,NA,NA,NA,NA,NA,NA,NA,NA,NA,NA,NA,NA,NA,NA
SUPAMT59520,33F859I56CCQEU3PEL0OG8NG7NNBH3,EBA4BFC0-DAAC-4A45-870F-767FBA324C1B,2023-09-29_23h48.18.865,WP_VExplicitOC_HL,2022.2.5,MacIntel,60.0024001,-53.226516,5.4923,2.0161,NA,NA,NA,NA,NA,happy,"unhappy, happy","less happy, more happy",NA,NA,NA,NA,NA,NA,NA,NA,NA,NA,NA,NA,NA,NA,NA,0,2,2,0,1,NA,NA,NA,NA,NA,NA,NA,NA,NA,NA,NA,NA,NA,NA,NA,NA,NA,NA,NA,NA,NA,NA,NA,NA,NA,NA,NA,NA
SUPAMT59520,33F859I56CCQEU3PEL0OG8NG7NNBH3,EBA4BFC0-DAAC-4A45-870F-767FBA324C1B,2023-09-29_23h48.18.865,WP_VExplicitOC_HL,2022.2.5,MacIntel,60.0024001,NA,NA,NA,NA,NA,NA,NA,NA,NA,NA,NA,NA,NA,NA,NA,NA,NA,NA,NA,NA,NA,NA,NA,NA,NA,NA,NA,NA,NA,NA,NA,13,0,13,0,1,NA,NA,NA,NA,NA,NA,NA,NA,NA,NA,NA,NA,NA,NA,NA,NA,NA,NA,NA,NA,NA,NA,NA
SUPAMT59520,33F859I56CCQEU3PEL0OG8NG7NNBH3,EBA4BFC0-DAAC-4A45-870F-767FBA324C1B,2023-09-29_23h48.18.865,WP_VExplicitOC_HL,2022.2.5,MacIntel,60.0024001,-42.65120443,4.6464,2.0028,NA,NA,NA,NA,NA,frustrated,"frustrated, not frustrated","more frustrated, less frustrated",NA,NA,NA,NA,NA,NA,NA,NA,NA,NA,NA,NA,NA,NA,NA,0,0,0,1,1,NA,NA,NA,NA,NA,NA,NA,NA,NA,NA,NA,NA,NA,NA,NA,NA,NA,NA,NA,NA,NA,NA,NA,NA,NA,NA,NA,NA
SUPAMT59520,33F859I56CCQEU3PEL0OG8NG7NNBH3,EBA4BFC0-DAAC-4A45-870F-767FBA324C1B,2023-09-29_23h48.18.865,WP_VExplicitOC_HL,2022.2.5,MacIntel,60.0024001,-41.14095052,2.7772,2.0163,NA,NA,NA,NA,NA,happy,"unhappy, happy","less happy, more happy",NA,NA,NA,NA,NA,NA,NA,NA,NA,NA,NA,NA,NA,NA,NA,0,1,1,0,1,NA,NA,NA,NA,NA,NA,NA,NA,NA,NA,NA,NA,NA,NA,NA,NA,NA,NA,NA,NA,NA,NA,NA,NA,NA,NA,NA,NA
SUPAMT59520,33F859I56CCQEU3PEL0OG8NG7NNBH3,EBA4BFC0-DAAC-4A45-870F-767FBA324C1B,2023-09-29_23h48.18.865,WP_VExplicitOC_HL,2022.2.5,MacIntel,60.0024001,-78.85984584,2.7934,2.0156,NA,NA,NA,NA,NA,bored,"bored, not bored","more bored, less bored",NA,NA,NA,NA,NA,NA,NA,NA,NA,NA,NA,NA,NA,NA,NA,0,2,2,2,1,NA,NA,NA,NA,NA,NA,NA,NA,NA,NA,NA,NA,NA,NA,NA,NA,NA,NA,NA,NA,NA,NA,NA,NA,NA,NA,NA,NA
SUPAMT59520,33F859I56CCQEU3PEL0OG8NG7NNBH3,EBA4BFC0-DAAC-4A45-870F-767FBA324C1B,2023-09-29_23h48.18.865,WP_VExplicitOC_HL,2022.2.5,MacIntel,60.0024001,NA,NA,NA,NA,NA,NA,NA,NA,NA,NA,NA,NA,NA,NA,NA,NA,NA,NA,NA,NA,NA,NA,NA,NA,NA,NA,NA,NA,NA,NA,NA,14,0,14,0,1,NA,NA,NA,NA,NA,NA,NA,NA,NA,NA,NA,NA,NA,NA,NA,NA,NA,NA,NA,NA,NA,NA,NA
SUPAMT59520,33F859I56CCQEU3PEL0OG8NG7NNBH3,EBA4BFC0-DAAC-4A45-870F-767FBA324C1B,2023-09-29_23h48.18.865,WP_VExplicitOC_HL,2022.2.5,MacIntel,60.0024001,NA,NA,NA,NA,NA,NA,NA,NA,NA,NA,NA,NA,NA,NA,NA,NA,NA,NA,NA,NA,NA,NA,NA,NA,NA,NA,NA,NA,NA,NA,NA,NA,NA,NA,NA,NA,NA,NA,NA,NA,NA,NA,NA,NA,NA,NA,NA,NA,NA,NA,NA,NA,NA,NA,NA,NA,NA,NA,NA
SUPAMT59520,33F859I56CCQEU3PEL0OG8NG7NNBH3,EBA4BFC0-DAAC-4A45-870F-767FBA324C1B,2023-09-29_23h48.18.865,WP_VExplicitOC_HL,2022.2.5,MacIntel,60.0024001,NA,NA,NA,NA,NA,NA,NA,NA,NA,NA,NA,NA,NA,NA,NA,NA,NA,NA,NA,NA,NA,NA,NA,NA,NA,NA,NA,NA,NA,NA,NA,NA,NA,NA,NA,NA,NA,NA,NA,NA,NA,NA,NA,NA,NA,NA,NA,NA,NA,NA,NA,NA,NA,NA,NA,NA,NA,NA,NA
SUPAMT59520,33F859I56CCQEU3PEL0OG8NG7NNBH3,EBA4BFC0-DAAC-4A45-870F-767FBA324C1B,2023-09-29_23h48.18.865,WP_VExplicitOC_HL,2022.2.5,MacIntel,60.0024001,NA,NA,NA,NA,NA,NA,NA,NA,NA,NA,NA,NA,NA,NA,NA,NA,NA,NA,rest (looking at a fixed cross),001.png,NA,NA,NA,NA,NA,NA,NA,NA,NA,NA,NA,NA,NA,NA,NA,NA,-52.00919596,3.2777,0,0,0,0,1,NA,NA,NA,NA,NA,NA,NA,NA,NA,NA,NA,NA,NA,NA,NA,NA
SUPAMT59520,33F859I56CCQEU3PEL0OG8NG7NNBH3,EBA4BFC0-DAAC-4A45-870F-767FBA324C1B,2023-09-29_23h48.18.865,WP_VExplicitOC_HL,2022.2.5,MacIntel,60.0024001,NA,NA,NA,NA,NA,NA,NA,NA,NA,NA,NA,NA,NA,NA,NA,NA,NA,NA,stand up,002.png,NA,NA,NA,NA,NA,NA,NA,NA,NA,NA,NA,NA,NA,NA,NA,NA,36.97328404,1.4444,0,1,1,1,1,NA,NA,NA,NA,NA,NA,NA,NA,NA,NA,NA,NA,NA,NA,NA,NA
SUPAMT59520,33F859I56CCQEU3PEL0OG8NG7NNBH3,EBA4BFC0-DAAC-4A45-870F-767FBA324C1B,2023-09-29_23h48.18.865,WP_VExplicitOC_HL,2022.2.5,MacIntel,60.0024001,NA,NA,NA,NA,NA,NA,NA,NA,NA,NA,NA,NA,NA,NA,NA,NA,NA,NA,stretch,003.png,NA,NA,NA,NA,NA,NA,NA,NA,NA,NA,NA,NA,NA,NA,NA,NA,-29.11502511,1.4792,0,2,2,2,1,NA,NA,NA,NA,NA,NA,NA,NA,NA,NA,NA,NA,NA,NA,NA,NA
SUPAMT59520,33F859I56CCQEU3PEL0OG8NG7NNBH3,EBA4BFC0-DAAC-4A45-870F-767FBA324C1B,2023-09-29_23h48.18.865,WP_VExplicitOC_HL,2022.2.5,MacIntel,60.0024001,NA,NA,NA,NA,NA,NA,NA,NA,NA,NA,NA,NA,NA,NA,NA,NA,NA,NA,make a drink,004.png,NA,NA,NA,NA,NA,NA,NA,NA,NA,NA,NA,NA,NA,NA,NA,NA,30.44641695,1.2793,0,3,3,3,1,NA,NA,NA,NA,NA,NA,NA,NA,NA,NA,NA,NA,NA,NA,NA,NA
SUPAMT59520,33F859I56CCQEU3PEL0OG8NG7NNBH3,EBA4BFC0-DAAC-4A45-870F-767FBA324C1B,2023-09-29_23h48.18.865,WP_VExplicitOC_HL,2022.2.5,MacIntel,60.0024001,NA,NA,NA,NA,NA,NA,NA,NA,NA,NA,NA,NA,NA,NA,NA,NA,NA,NA,scroll social media,005.png,NA,NA,NA,NA,NA,NA,NA,NA,NA,NA,NA,NA,NA,NA,NA,NA,50.39106678,1.5119,0,4,4,4,1,NA,NA,NA,NA,NA,NA,NA,NA,NA,NA,NA,NA,NA,NA,NA,NA
SUPAMT59520,33F859I56CCQEU3PEL0OG8NG7NNBH3,EBA4BFC0-DAAC-4A45-870F-767FBA324C1B,2023-09-29_23h48.18.865,WP_VExplicitOC_HL,2022.2.5,MacIntel,60.0024001,NA,NA,NA,NA,NA,NA,NA,NA,NA,NA,NA,NA,NA,NA,NA,NA,NA,NA,listen to music,006.png,NA,NA,NA,NA,NA,NA,NA,NA,NA,NA,NA,NA,NA,NA,NA,NA,100,1.174,0,5,5,5,1,NA,NA,NA,NA,NA,NA,NA,NA,NA,NA,NA,NA,NA,NA,NA,NA
SUPAMT59520,33F859I56CCQEU3PEL0OG8NG7NNBH3,EBA4BFC0-DAAC-4A45-870F-767FBA324C1B,2023-09-29_23h48.18.865,WP_VExplicitOC_HL,2022.2.5,MacIntel,60.0024001,NA,NA,NA,NA,NA,NA,NA,NA,NA,NA,NA,NA,NA,NA,NA,NA,NA,NA,daydream,007.png,NA,NA,NA,NA,NA,NA,NA,NA,NA,NA,NA,NA,NA,NA,NA,NA,100,1.06,0,6,6,6,1,NA,NA,NA,NA,NA,NA,NA,NA,NA,NA,NA,NA,NA,NA,NA,NA
SUPAMT59520,33F859I56CCQEU3PEL0OG8NG7NNBH3,EBA4BFC0-DAAC-4A45-870F-767FBA324C1B,2023-09-29_23h48.18.865,WP_VExplicitOC_HL,2022.2.5,MacIntel,60.0024001,NA,NA,NA,NA,NA,NA,NA,NA,NA,NA,NA,NA,NA,NA,NA,NA,NA,NA,watch a short animation,008.png,NA,NA,NA,NA,NA,NA,NA,NA,NA,NA,NA,NA,NA,NA,NA,NA,48.04940941,2.4255,0,7,7,7,1,NA,NA,NA,NA,NA,NA,NA,NA,NA,NA,NA,NA,NA,NA,NA,NA
SUPAMT59520,33F859I56CCQEU3PEL0OG8NG7NNBH3,EBA4BFC0-DAAC-4A45-870F-767FBA324C1B,2023-09-29_23h48.18.865,WP_VExplicitOC_HL,2022.2.5,MacIntel,60.0024001,NA,NA,NA,NA,NA,NA,NA,NA,NA,NA,NA,NA,NA,NA,NA,NA,NA,NA,read a novel,009.png,NA,NA,NA,NA,NA,NA,NA,NA,NA,NA,NA,NA,NA,NA,NA,NA,-33.51340448,1.8775,0,8,8,8,1,NA,NA,NA,NA,NA,NA,NA,NA,NA,NA,NA,NA,NA,NA,NA,NA
SUPAMT59520,33F859I56CCQEU3PEL0OG8NG7NNBH3,EBA4BFC0-DAAC-4A45-870F-767FBA324C1B,2023-09-29_23h48.18.865,WP_VExplicitOC_HL,2022.2.5,MacIntel,60.0024001,NA,NA,NA,NA,NA,NA,NA,NA,NA,NA,NA,NA,NA,NA,NA,NA,NA,NA,read the news,010.png,NA,NA,NA,NA,NA,NA,NA,NA,NA,NA,NA,NA,NA,NA,NA,NA,-49.13962519,1.7267,0,9,9,9,1,NA,NA,NA,NA,NA,NA,NA,NA,NA,NA,NA,NA,NA,NA,NA,NA
SUPAMT59520,33F859I56CCQEU3PEL0OG8NG7NNBH3,EBA4BFC0-DAAC-4A45-870F-767FBA324C1B,2023-09-29_23h48.18.865,WP_VExplicitOC_HL,2022.2.5,MacIntel,60.0024001,NA,NA,NA,NA,NA,NA,NA,NA,NA,NA,NA,NA,NA,NA,NA,NA,NA,NA,NA,NA,NA,NA,NA,NA,NA,NA,NA,NA,NA,NA,NA,NA,NA,NA,NA,NA,NA,NA,NA,NA,NA,NA,NA,read the news,NA,NA,NA,NA,NA,NA,NA,NA,NA,NA,NA,NA,NA,NA,NA
SUPAMT59520,33F859I56CCQEU3PEL0OG8NG7NNBH3,EBA4BFC0-DAAC-4A45-870F-767FBA324C1B,2023-09-29_23h48.18.865,WP_VExplicitOC_HL,2022.2.5,MacIntel,60.0024001,1.682896205,4.3151,2.0025,NA,NA,NA,NA,NA,bored,"bored, not bored","more bored, less bored",NA,NA,NA,NA,NA,NA,NA,NA,NA,NA,NA,NA,NA,NA,NA,NA,NA,NA,NA,NA,NA,NA,NA,NA,NA,NA,NA,NA,NA,NA,NA,NA,NA,0,0,0,2,1,NA,NA,NA,NA,NA,NA,NA,NA,NA,NA
SUPAMT59520,33F859I56CCQEU3PEL0OG8NG7NNBH3,EBA4BFC0-DAAC-4A45-870F-767FBA324C1B,2023-09-29_23h48.18.865,WP_VExplicitOC_HL,2022.2.5,MacIntel,60.0024001,-0.70921689,3.4772,2.0161,NA,NA,NA,NA,NA,happy,"unhappy, happy","less happy, more happy",NA,NA,NA,NA,NA,NA,NA,NA,NA,NA,NA,NA,NA,NA,NA,NA,NA,NA,NA,NA,NA,NA,NA,NA,NA,NA,NA,NA,NA,NA,NA,NA,NA,0,1,1,0,1,NA,NA,NA,NA,NA,NA,NA,NA,NA,NA
SUPAMT59520,33F859I56CCQEU3PEL0OG8NG7NNBH3,EBA4BFC0-DAAC-4A45-870F-767FBA324C1B,2023-09-29_23h48.18.865,WP_VExplicitOC_HL,2022.2.5,MacIntel,60.0024001,-0.70921689,2.7439,2.0158,NA,NA,NA,NA,NA,frustrated,"frustrated, not frustrated","more frustrated, less frustrated",NA,NA,NA,NA,NA,NA,NA,NA,NA,NA,NA,NA,NA,NA,NA,NA,NA,NA,NA,NA,NA,NA,NA,NA,NA,NA,NA,NA,NA,NA,NA,NA,NA,0,2,2,1,1,NA,NA,NA,NA,NA,NA,NA,NA,NA,NA
SUPAMT59520,33F859I56CCQEU3PEL0OG8NG7NNBH3,EBA4BFC0-DAAC-4A45-870F-767FBA324C1B,2023-09-29_23h48.18.865,WP_VExplicitOC_HL,2022.2.5,MacIntel,60.0024001,NA,NA,NA,NA,NA,NA,NA,NA,NA,NA,NA,NA,NA,NA,NA,NA,NA,NA,NA,NA,NA,NA,NA,NA,NA,NA,NA,NA,NA,NA,NA,NA,NA,NA,NA,NA,NA,NA,NA,NA,NA,NA,NA,NA,NA,NA,NA,NA,NA,NA,NA,NA,NA,NA,NA,NA,NA,NA,NA
SUPAMT59520,33F859I56CCQEU3PEL0OG8NG7NNBH3,EBA4BFC0-DAAC-4A45-870F-767FBA324C1B,2023-09-29_23h48.18.865,WP_VExplicitOC_HL,2022.2.5,MacIntel,60.0024001,NA,NA,NA,NA,NA,NA,NA,NA,NA,NA,NA,NA,NA,NA,NA,NA,NA,NA,NA,NA,NA,NA,NA,NA,NA,NA,NA,NA,NA,NA,NA,NA,NA,NA,NA,NA,NA,NA,NA,NA,NA,NA,NA,NA,NA,NA,NA,NA,NA,NA,NA,NA,NA,NA,NA,NA,NA,NA,NA
SUPAMT59520,33F859I56CCQEU3PEL0OG8NG7NNBH3,EBA4BFC0-DAAC-4A45-870F-767FBA324C1B,2023-09-29_23h48.18.865,WP_VExplicitOC_HL,2022.2.5,MacIntel,60.0024001,-31.13456799,4.5635,2.0031,NA,NA,NA,NA,NA,bored,"bored, not bored","more bored, less bored",NA,NA,NA,NA,NA,NA,NA,NA,NA,NA,NA,NA,NA,NA,NA,NA,NA,NA,NA,NA,NA,NA,NA,NA,NA,NA,NA,NA,NA,NA,NA,NA,NA,NA,NA,NA,NA,NA,0,0,0,2,1,NA,NA,NA,NA,NA
SUPAMT59520,33F859I56CCQEU3PEL0OG8NG7NNBH3,EBA4BFC0-DAAC-4A45-870F-767FBA324C1B,2023-09-29_23h48.18.865,WP_VExplicitOC_HL,2022.2.5,MacIntel,60.0024001,NA,NA,2.0149,NA,NA,NA,NA,NA,frustrated,"frustrated, not frustrated","more frustrated, less frustrated",NA,NA,NA,NA,NA,NA,NA,NA,NA,NA,NA,NA,NA,NA,NA,NA,NA,NA,NA,NA,NA,NA,NA,NA,NA,NA,NA,NA,NA,NA,NA,NA,NA,NA,NA,NA,NA,NA,0,1,1,1,1,NA,NA,NA,NA,NA
SUPAMT59520,33F859I56CCQEU3PEL0OG8NG7NNBH3,EBA4BFC0-DAAC-4A45-870F-767FBA324C1B,2023-09-29_23h48.18.865,WP_VExplicitOC_HL,2022.2.5,MacIntel,60.0024001,-4.634091332,2.3997,2.0052,NA,NA,NA,NA,NA,happy,"unhappy, happy","less happy, more happy",NA,NA,NA,NA,NA,NA,NA,NA,NA,NA,NA,NA,NA,NA,NA,NA,NA,NA,NA,NA,NA,NA,NA,NA,NA,NA,NA,NA,NA,NA,NA,NA,NA,NA,NA,NA,NA,NA,0,2,2,0,1,NA,NA,NA,NA,NA
SUPAMT59520,33F859I56CCQEU3PEL0OG8NG7NNBH3,EBA4BFC0-DAAC-4A45-870F-767FBA324C1B,2023-09-29_23h48.18.865,WP_VExplicitOC_HL,2022.2.5,MacIntel,60.0024001,NA,NA,NA,NA,NA,NA,NA,NA,NA,NA,NA,NA,NA,NA,NA,NA,NA,NA,NA,NA,NA,NA,NA,NA,NA,NA,NA,NA,NA,NA,NA,NA,NA,NA,NA,NA,NA,NA,NA,NA,NA,NA,NA,NA,NA,NA,NA,NA,NA,NA,NA,NA,NA,NA,0,0,0,0,1
SUPAMT59520,33F859I56CCQEU3PEL0OG8NG7NNBH3,EBA4BFC0-DAAC-4A45-870F-767FBA324C1B,2023-09-29_23h48.18.865,WP_VExplicitOC_HL,2022.2.5,MacIntel,60.0024001,1.311918713,5.0136,2.002,NA,NA,NA,NA,NA,happy,"unhappy, happy","less happy, more happy",NA,NA,NA,NA,NA,NA,NA,NA,NA,NA,NA,NA,NA,NA,NA,NA,NA,NA,NA,NA,NA,NA,NA,NA,NA,NA,NA,NA,NA,NA,NA,NA,NA,NA,NA,NA,NA,NA,0,0,0,0,1,NA,NA,NA,NA,NA
SUPAMT59520,33F859I56CCQEU3PEL0OG8NG7NNBH3,EBA4BFC0-DAAC-4A45-870F-767FBA324C1B,2023-09-29_23h48.18.865,WP_VExplicitOC_HL,2022.2.5,MacIntel,60.0024001,1.311918713,2.6425,2.0148,NA,NA,NA,NA,NA,bored,"bored, not bored","more bored, less bored",NA,NA,NA,NA,NA,NA,NA,NA,NA,NA,NA,NA,NA,NA,NA,NA,NA,NA,NA,NA,NA,NA,NA,NA,NA,NA,NA,NA,NA,NA,NA,NA,NA,NA,NA,NA,NA,NA,0,1,1,2,1,NA,NA,NA,NA,NA
SUPAMT59520,33F859I56CCQEU3PEL0OG8NG7NNBH3,EBA4BFC0-DAAC-4A45-870F-767FBA324C1B,2023-09-29_23h48.18.865,WP_VExplicitOC_HL,2022.2.5,MacIntel,60.0024001,1.311918713,2.4264,2.0161,NA,NA,NA,NA,NA,frustrated,"frustrated, not frustrated","more frustrated, less frustrated",NA,NA,NA,NA,NA,NA,NA,NA,NA,NA,NA,NA,NA,NA,NA,NA,NA,NA,NA,NA,NA,NA,NA,NA,NA,NA,NA,NA,NA,NA,NA,NA,NA,NA,NA,NA,NA,NA,0,2,2,1,1,NA,NA,NA,NA,NA
SUPAMT59520,33F859I56CCQEU3PEL0OG8NG7NNBH3,EBA4BFC0-DAAC-4A45-870F-767FBA324C1B,2023-09-29_23h48.18.865,WP_VExplicitOC_HL,2022.2.5,MacIntel,60.0024001,NA,NA,NA,NA,NA,NA,NA,NA,NA,NA,NA,NA,NA,NA,NA,NA,NA,NA,NA,NA,NA,NA,NA,NA,NA,NA,NA,NA,NA,NA,NA,NA,NA,NA,NA,NA,NA,NA,NA,NA,NA,NA,NA,NA,NA,NA,NA,NA,NA,NA,NA,NA,NA,NA,1,0,1,0,1
SUPAMT59520,33F859I56CCQEU3PEL0OG8NG7NNBH3,EBA4BFC0-DAAC-4A45-870F-767FBA324C1B,2023-09-29_23h48.18.865,WP_VExplicitOC_HL,2022.2.5,MacIntel,60.0024001,NA,NA,2.002,NA,NA,NA,NA,NA,happy,"unhappy, happy","less happy, more happy",NA,NA,NA,NA,NA,NA,NA,NA,NA,NA,NA,NA,NA,NA,NA,NA,NA,NA,NA,NA,NA,NA,NA,NA,NA,NA,NA,NA,NA,NA,NA,NA,NA,NA,NA,NA,NA,NA,0,0,0,0,1,NA,NA,NA,NA,NA
SUPAMT59520,33F859I56CCQEU3PEL0OG8NG7NNBH3,EBA4BFC0-DAAC-4A45-870F-767FBA324C1B,2023-09-29_23h48.18.865,WP_VExplicitOC_HL,2022.2.5,MacIntel,60.0024001,1.311918713,4.0167,2.0068,NA,NA,NA,NA,NA,frustrated,"frustrated, not frustrated","more frustrated, less frustrated",NA,NA,NA,NA,NA,NA,NA,NA,NA,NA,NA,NA,NA,NA,NA,NA,NA,NA,NA,NA,NA,NA,NA,NA,NA,NA,NA,NA,NA,NA,NA,NA,NA,NA,NA,NA,NA,NA,0,1,1,1,1,NA,NA,NA,NA,NA
SUPAMT59520,33F859I56CCQEU3PEL0OG8NG7NNBH3,EBA4BFC0-DAAC-4A45-870F-767FBA324C1B,2023-09-29_23h48.18.865,WP_VExplicitOC_HL,2022.2.5,MacIntel,60.0024001,-100,2.5772,2.002,NA,NA,NA,NA,NA,bored,"bored, not bored","more bored, less bored",NA,NA,NA,NA,NA,NA,NA,NA,NA,NA,NA,NA,NA,NA,NA,NA,NA,NA,NA,NA,NA,NA,NA,NA,NA,NA,NA,NA,NA,NA,NA,NA,NA,NA,NA,NA,NA,NA,0,2,2,2,1,NA,NA,NA,NA,NA
SUPAMT59520,33F859I56CCQEU3PEL0OG8NG7NNBH3,EBA4BFC0-DAAC-4A45-870F-767FBA324C1B,2023-09-29_23h48.18.865,WP_VExplicitOC_HL,2022.2.5,MacIntel,60.0024001,NA,NA,NA,NA,NA,NA,NA,NA,NA,NA,NA,NA,NA,NA,NA,NA,NA,NA,NA,NA,NA,NA,NA,NA,NA,NA,NA,NA,NA,NA,NA,NA,NA,NA,NA,NA,NA,NA,NA,NA,NA,NA,NA,NA,NA,NA,NA,NA,NA,NA,NA,NA,NA,NA,2,0,2,0,1
SUPAMT59520,33F859I56CCQEU3PEL0OG8NG7NNBH3,EBA4BFC0-DAAC-4A45-870F-767FBA324C1B,2023-09-29_23h48.18.865,WP_VExplicitOC_HL,2022.2.5,MacIntel,60.0024001,-15.34565662,3.5173,2.0058,NA,NA,NA,NA,NA,frustrated,"frustrated, not frustrated","more frustrated, less frustrated",NA,NA,NA,NA,NA,NA,NA,NA,NA,NA,NA,NA,NA,NA,NA,NA,NA,NA,NA,NA,NA,NA,NA,NA,NA,NA,NA,NA,NA,NA,NA,NA,NA,NA,NA,NA,NA,NA,0,0,0,1,1,NA,NA,NA,NA,NA
SUPAMT59520,33F859I56CCQEU3PEL0OG8NG7NNBH3,EBA4BFC0-DAAC-4A45-870F-767FBA324C1B,2023-09-29_23h48.18.865,WP_VExplicitOC_HL,2022.2.5,MacIntel,60.0024001,-9.565848214,2.3264,2,NA,NA,NA,NA,NA,happy,"unhappy, happy","less happy, more happy",NA,NA,NA,NA,NA,NA,NA,NA,NA,NA,NA,NA,NA,NA,NA,NA,NA,NA,NA,NA,NA,NA,NA,NA,NA,NA,NA,NA,NA,NA,NA,NA,NA,NA,NA,NA,NA,NA,0,1,1,0,1,NA,NA,NA,NA,NA
SUPAMT59520,33F859I56CCQEU3PEL0OG8NG7NNBH3,EBA4BFC0-DAAC-4A45-870F-767FBA324C1B,2023-09-29_23h48.18.865,WP_VExplicitOC_HL,2022.2.5,MacIntel,60.0024001,-73.26763625,2.6086,2.018,NA,NA,NA,NA,NA,bored,"bored, not bored","more bored, less bored",NA,NA,NA,NA,NA,NA,NA,NA,NA,NA,NA,NA,NA,NA,NA,NA,NA,NA,NA,NA,NA,NA,NA,NA,NA,NA,NA,NA,NA,NA,NA,NA,NA,NA,NA,NA,NA,NA,0,2,2,2,1,NA,NA,NA,NA,NA
SUPAMT59520,33F859I56CCQEU3PEL0OG8NG7NNBH3,EBA4BFC0-DAAC-4A45-870F-767FBA324C1B,2023-09-29_23h48.18.865,WP_VExplicitOC_HL,2022.2.5,MacIntel,60.0024001,NA,NA,NA,NA,NA,NA,NA,NA,NA,NA,NA,NA,NA,NA,NA,NA,NA,NA,NA,NA,NA,NA,NA,NA,NA,NA,NA,NA,NA,NA,NA,NA,NA,NA,NA,NA,NA,NA,NA,NA,NA,NA,NA,NA,NA,NA,NA,NA,NA,NA,NA,NA,NA,NA,3,0,3,0,1
SUPAMT59520,33F859I56CCQEU3PEL0OG8NG7NNBH3,EBA4BFC0-DAAC-4A45-870F-767FBA324C1B,2023-09-29_23h48.18.865,WP_VExplicitOC_HL,2022.2.5,MacIntel,60.0024001,NA,NA,2.006,NA,NA,NA,NA,NA,bored,"bored, not bored","more bored, less bored",NA,NA,NA,NA,NA,NA,NA,NA,NA,NA,NA,NA,NA,NA,NA,NA,NA,NA,NA,NA,NA,NA,NA,NA,NA,NA,NA,NA,NA,NA,NA,NA,NA,NA,NA,NA,NA,NA,0,0,0,2,1,NA,NA,NA,NA,NA
SUPAMT59520,33F859I56CCQEU3PEL0OG8NG7NNBH3,EBA4BFC0-DAAC-4A45-870F-767FBA324C1B,2023-09-29_23h48.18.865,WP_VExplicitOC_HL,2022.2.5,MacIntel,60.0024001,-48.32888067,3.3333,2.0052,NA,NA,NA,NA,NA,frustrated,"frustrated, not frustrated","more frustrated, less frustrated",NA,NA,NA,NA,NA,NA,NA,NA,NA,NA,NA,NA,NA,NA,NA,NA,NA,NA,NA,NA,NA,NA,NA,NA,NA,NA,NA,NA,NA,NA,NA,NA,NA,NA,NA,NA,NA,NA,0,1,1,1,1,NA,NA,NA,NA,NA
SUPAMT59520,33F859I56CCQEU3PEL0OG8NG7NNBH3,EBA4BFC0-DAAC-4A45-870F-767FBA324C1B,2023-09-29_23h48.18.865,WP_VExplicitOC_HL,2022.2.5,MacIntel,60.0024001,-35.08329846,4.4257,2.0147,NA,NA,NA,NA,NA,happy,"unhappy, happy","less happy, more happy",NA,NA,NA,NA,NA,NA,NA,NA,NA,NA,NA,NA,NA,NA,NA,NA,NA,NA,NA,NA,NA,NA,NA,NA,NA,NA,NA,NA,NA,NA,NA,NA,NA,NA,NA,NA,NA,NA,0,2,2,0,1,NA,NA,NA,NA,NA
SUPAMT59520,33F859I56CCQEU3PEL0OG8NG7NNBH3,EBA4BFC0-DAAC-4A45-870F-767FBA324C1B,2023-09-29_23h48.18.865,WP_VExplicitOC_HL,2022.2.5,MacIntel,60.0024001,NA,NA,NA,NA,NA,NA,NA,NA,NA,NA,NA,NA,NA,NA,NA,NA,NA,NA,NA,NA,NA,NA,NA,NA,NA,NA,NA,NA,NA,NA,NA,NA,NA,NA,NA,NA,NA,NA,NA,NA,NA,NA,NA,NA,NA,NA,NA,NA,NA,NA,NA,NA,NA,NA,4,0,4,0,1
SUPAMT59520,33F859I56CCQEU3PEL0OG8NG7NNBH3,EBA4BFC0-DAAC-4A45-870F-767FBA324C1B,2023-09-29_23h48.18.865,WP_VExplicitOC_HL,2022.2.5,MacIntel,60.0024001,NA,NA,2.0037,NA,NA,NA,NA,NA,happy,"unhappy, happy","less happy, more happy",NA,NA,NA,NA,NA,NA,NA,NA,NA,NA,NA,NA,NA,NA,NA,NA,NA,NA,NA,NA,NA,NA,NA,NA,NA,NA,NA,NA,NA,NA,NA,NA,NA,NA,NA,NA,NA,NA,0,0,0,0,1,NA,NA,NA,NA,NA
SUPAMT59520,33F859I56CCQEU3PEL0OG8NG7NNBH3,EBA4BFC0-DAAC-4A45-870F-767FBA324C1B,2023-09-29_23h48.18.865,WP_VExplicitOC_HL,2022.2.5,MacIntel,60.0024001,-80.68659319,2.5304,2.0057,NA,NA,NA,NA,NA,bored,"bored, not bored","more bored, less bored",NA,NA,NA,NA,NA,NA,NA,NA,NA,NA,NA,NA,NA,NA,NA,NA,NA,NA,NA,NA,NA,NA,NA,NA,NA,NA,NA,NA,NA,NA,NA,NA,NA,NA,NA,NA,NA,NA,0,1,1,2,1,NA,NA,NA,NA,NA
SUPAMT59520,33F859I56CCQEU3PEL0OG8NG7NNBH3,EBA4BFC0-DAAC-4A45-870F-767FBA324C1B,2023-09-29_23h48.18.865,WP_VExplicitOC_HL,2022.2.5,MacIntel,60.0024001,-6.624686105,2.7105,2.0007,NA,NA,NA,NA,NA,frustrated,"frustrated, not frustrated","more frustrated, less frustrated",NA,NA,NA,NA,NA,NA,NA,NA,NA,NA,NA,NA,NA,NA,NA,NA,NA,NA,NA,NA,NA,NA,NA,NA,NA,NA,NA,NA,NA,NA,NA,NA,NA,NA,NA,NA,NA,NA,0,2,2,1,1,NA,NA,NA,NA,NA
SUPAMT59520,33F859I56CCQEU3PEL0OG8NG7NNBH3,EBA4BFC0-DAAC-4A45-870F-767FBA324C1B,2023-09-29_23h48.18.865,WP_VExplicitOC_HL,2022.2.5,MacIntel,60.0024001,NA,NA,NA,NA,NA,NA,NA,NA,NA,NA,NA,NA,NA,NA,NA,NA,NA,NA,NA,NA,NA,NA,NA,NA,NA,NA,NA,NA,NA,NA,NA,NA,NA,NA,NA,NA,NA,NA,NA,NA,NA,NA,NA,NA,NA,NA,NA,NA,NA,NA,NA,NA,NA,NA,5,0,5,0,1
SUPAMT59520,33F859I56CCQEU3PEL0OG8NG7NNBH3,EBA4BFC0-DAAC-4A45-870F-767FBA324C1B,2023-09-29_23h48.18.865,WP_VExplicitOC_HL,2022.2.5,MacIntel,60.0024001,-22.16527158,3.3458,2.0029,NA,NA,NA,NA,NA,frustrated,"frustrated, not frustrated","more frustrated, less frustrated",NA,NA,NA,NA,NA,NA,NA,NA,NA,NA,NA,NA,NA,NA,NA,NA,NA,NA,NA,NA,NA,NA,NA,NA,NA,NA,NA,NA,NA,NA,NA,NA,NA,NA,NA,NA,NA,NA,0,0,0,1,1,NA,NA,NA,NA,NA
SUPAMT59520,33F859I56CCQEU3PEL0OG8NG7NNBH3,EBA4BFC0-DAAC-4A45-870F-767FBA324C1B,2023-09-29_23h48.18.865,WP_VExplicitOC_HL,2022.2.5,MacIntel,60.0024001,-3.810267857,2.5255,2.0006,NA,NA,NA,NA,NA,happy,"unhappy, happy","less happy, more happy",NA,NA,NA,NA,NA,NA,NA,NA,NA,NA,NA,NA,NA,NA,NA,NA,NA,NA,NA,NA,NA,NA,NA,NA,NA,NA,NA,NA,NA,NA,NA,NA,NA,NA,NA,NA,NA,NA,0,1,1,0,1,NA,NA,NA,NA,NA
SUPAMT59520,33F859I56CCQEU3PEL0OG8NG7NNBH3,EBA4BFC0-DAAC-4A45-870F-767FBA324C1B,2023-09-29_23h48.18.865,WP_VExplicitOC_HL,2022.2.5,MacIntel,60.0024001,-76.60663714,2.5139,2.0166,NA,NA,NA,NA,NA,bored,"bored, not bored","more bored, less bored",NA,NA,NA,NA,NA,NA,NA,NA,NA,NA,NA,NA,NA,NA,NA,NA,NA,NA,NA,NA,NA,NA,NA,NA,NA,NA,NA,NA,NA,NA,NA,NA,NA,NA,NA,NA,NA,NA,0,2,2,2,1,NA,NA,NA,NA,NA
SUPAMT59520,33F859I56CCQEU3PEL0OG8NG7NNBH3,EBA4BFC0-DAAC-4A45-870F-767FBA324C1B,2023-09-29_23h48.18.865,WP_VExplicitOC_HL,2022.2.5,MacIntel,60.0024001,NA,NA,NA,NA,NA,NA,NA,NA,NA,NA,NA,NA,NA,NA,NA,NA,NA,NA,NA,NA,NA,NA,NA,NA,NA,NA,NA,NA,NA,NA,NA,NA,NA,NA,NA,NA,NA,NA,NA,NA,NA,NA,NA,NA,NA,NA,NA,NA,NA,NA,NA,NA,NA,NA,6,0,6,0,1
SUPAMT59520,33F859I56CCQEU3PEL0OG8NG7NNBH3,EBA4BFC0-DAAC-4A45-870F-767FBA324C1B,2023-09-29_23h48.18.865,WP_VExplicitOC_HL,2022.2.5,MacIntel,60.0024001,-19.5714402,3.2349,2.0066,NA,NA,NA,NA,NA,happy,"unhappy, happy","less happy, more happy",NA,NA,NA,NA,NA,NA,NA,NA,NA,NA,NA,NA,NA,NA,NA,NA,NA,NA,NA,NA,NA,NA,NA,NA,NA,NA,NA,NA,NA,NA,NA,NA,NA,NA,NA,NA,NA,NA,0,0,0,0,1,NA,NA,NA,NA,NA
SUPAMT59520,33F859I56CCQEU3PEL0OG8NG7NNBH3,EBA4BFC0-DAAC-4A45-870F-767FBA324C1B,2023-09-29_23h48.18.865,WP_VExplicitOC_HL,2022.2.5,MacIntel,60.0024001,-24.43194289,3.0945,2.0151,NA,NA,NA,NA,NA,frustrated,"frustrated, not frustrated","more frustrated, less frustrated",NA,NA,NA,NA,NA,NA,NA,NA,NA,NA,NA,NA,NA,NA,NA,NA,NA,NA,NA,NA,NA,NA,NA,NA,NA,NA,NA,NA,NA,NA,NA,NA,NA,NA,NA,NA,NA,NA,0,1,1,1,1,NA,NA,NA,NA,NA
SUPAMT59520,33F859I56CCQEU3PEL0OG8NG7NNBH3,EBA4BFC0-DAAC-4A45-870F-767FBA324C1B,2023-09-29_23h48.18.865,WP_VExplicitOC_HL,2022.2.5,MacIntel,60.0024001,-75.93540737,2.51,2.016,NA,NA,NA,NA,NA,bored,"bored, not bored","more bored, less bored",NA,NA,NA,NA,NA,NA,NA,NA,NA,NA,NA,NA,NA,NA,NA,NA,NA,NA,NA,NA,NA,NA,NA,NA,NA,NA,NA,NA,NA,NA,NA,NA,NA,NA,NA,NA,NA,NA,0,2,2,2,1,NA,NA,NA,NA,NA
SUPAMT59520,33F859I56CCQEU3PEL0OG8NG7NNBH3,EBA4BFC0-DAAC-4A45-870F-767FBA324C1B,2023-09-29_23h48.18.865,WP_VExplicitOC_HL,2022.2.5,MacIntel,60.0024001,NA,NA,NA,NA,NA,NA,NA,NA,NA,NA,NA,NA,NA,NA,NA,NA,NA,NA,NA,NA,NA,NA,NA,NA,NA,NA,NA,NA,NA,NA,NA,NA,NA,NA,NA,NA,NA,NA,NA,NA,NA,NA,NA,NA,NA,NA,NA,NA,NA,NA,NA,NA,NA,NA,7,0,7,0,1
SUPAMT59520,33F859I56CCQEU3PEL0OG8NG7NNBH3,EBA4BFC0-DAAC-4A45-870F-767FBA324C1B,2023-09-29_23h48.18.865,WP_VExplicitOC_HL,2022.2.5,MacIntel,60.0024001,-80.221732,3.3134,2.0033,NA,NA,NA,NA,NA,bored,"bored, not bored","more bored, less bored",NA,NA,NA,NA,NA,NA,NA,NA,NA,NA,NA,NA,NA,NA,NA,NA,NA,NA,NA,NA,NA,NA,NA,NA,NA,NA,NA,NA,NA,NA,NA,NA,NA,NA,NA,NA,NA,NA,0,0,0,2,1,NA,NA,NA,NA,NA
SUPAMT59520,33F859I56CCQEU3PEL0OG8NG7NNBH3,EBA4BFC0-DAAC-4A45-870F-767FBA324C1B,2023-09-29_23h48.18.865,WP_VExplicitOC_HL,2022.2.5,MacIntel,60.0024001,NA,NA,2.0001,NA,NA,NA,NA,NA,frustrated,"frustrated, not frustrated","more frustrated, less frustrated",NA,NA,NA,NA,NA,NA,NA,NA,NA,NA,NA,NA,NA,NA,NA,NA,NA,NA,NA,NA,NA,NA,NA,NA,NA,NA,NA,NA,NA,NA,NA,NA,NA,NA,NA,NA,NA,NA,0,1,1,1,1,NA,NA,NA,NA,NA
SUPAMT59520,33F859I56CCQEU3PEL0OG8NG7NNBH3,EBA4BFC0-DAAC-4A45-870F-767FBA324C1B,2023-09-29_23h48.18.865,WP_VExplicitOC_HL,2022.2.5,MacIntel,60.0024001,-68.04187593,2.4701,2.0057,NA,NA,NA,NA,NA,happy,"unhappy, happy","less happy, more happy",NA,NA,NA,NA,NA,NA,NA,NA,NA,NA,NA,NA,NA,NA,NA,NA,NA,NA,NA,NA,NA,NA,NA,NA,NA,NA,NA,NA,NA,NA,NA,NA,NA,NA,NA,NA,NA,NA,0,2,2,0,1,NA,NA,NA,NA,NA
SUPAMT59520,33F859I56CCQEU3PEL0OG8NG7NNBH3,EBA4BFC0-DAAC-4A45-870F-767FBA324C1B,2023-09-29_23h48.18.865,WP_VExplicitOC_HL,2022.2.5,MacIntel,60.0024001,NA,NA,NA,NA,NA,NA,NA,NA,NA,NA,NA,NA,NA,NA,NA,NA,NA,NA,NA,NA,NA,NA,NA,NA,NA,NA,NA,NA,NA,NA,NA,NA,NA,NA,NA,NA,NA,NA,NA,NA,NA,NA,NA,NA,NA,NA,NA,NA,NA,NA,NA,NA,NA,NA,8,0,8,0,1
SUPAMT59520,33F859I56CCQEU3PEL0OG8NG7NNBH3,EBA4BFC0-DAAC-4A45-870F-767FBA324C1B,2023-09-29_23h48.18.865,WP_VExplicitOC_HL,2022.2.5,MacIntel,60.0024001,-59.73608398,4.6306,2.0047,NA,NA,NA,NA,NA,frustrated,"frustrated, not frustrated","more frustrated, less frustrated",NA,NA,NA,NA,NA,NA,NA,NA,NA,NA,NA,NA,NA,NA,NA,NA,NA,NA,NA,NA,NA,NA,NA,NA,NA,NA,NA,NA,NA,NA,NA,NA,NA,NA,NA,NA,NA,NA,0,0,0,1,1,NA,NA,NA,NA,NA
SUPAMT59520,33F859I56CCQEU3PEL0OG8NG7NNBH3,EBA4BFC0-DAAC-4A45-870F-767FBA324C1B,2023-09-29_23h48.18.865,WP_VExplicitOC_HL,2022.2.5,MacIntel,60.0024001,-90.44581241,3.1592,2.0008,NA,NA,NA,NA,NA,bored,"bored, not bored","more bored, less bored",NA,NA,NA,NA,NA,NA,NA,NA,NA,NA,NA,NA,NA,NA,NA,NA,NA,NA,NA,NA,NA,NA,NA,NA,NA,NA,NA,NA,NA,NA,NA,NA,NA,NA,NA,NA,NA,NA,0,1,1,2,1,NA,NA,NA,NA,NA
SUPAMT59520,33F859I56CCQEU3PEL0OG8NG7NNBH3,EBA4BFC0-DAAC-4A45-870F-767FBA324C1B,2023-09-29_23h48.18.865,WP_VExplicitOC_HL,2022.2.5,MacIntel,60.0024001,-23.93472145,2.6596,2.0166,NA,NA,NA,NA,NA,happy,"unhappy, happy","less happy, more happy",NA,NA,NA,NA,NA,NA,NA,NA,NA,NA,NA,NA,NA,NA,NA,NA,NA,NA,NA,NA,NA,NA,NA,NA,NA,NA,NA,NA,NA,NA,NA,NA,NA,NA,NA,NA,NA,NA,0,2,2,0,1,NA,NA,NA,NA,NA
SUPAMT59520,33F859I56CCQEU3PEL0OG8NG7NNBH3,EBA4BFC0-DAAC-4A45-870F-767FBA324C1B,2023-09-29_23h48.18.865,WP_VExplicitOC_HL,2022.2.5,MacIntel,60.0024001,NA,NA,NA,NA,NA,NA,NA,NA,NA,NA,NA,NA,NA,NA,NA,NA,NA,NA,NA,NA,NA,NA,NA,NA,NA,NA,NA,NA,NA,NA,NA,NA,NA,NA,NA,NA,NA,NA,NA,NA,NA,NA,NA,NA,NA,NA,NA,NA,NA,NA,NA,NA,NA,NA,9,0,9,0,1
SUPAMT59520,33F859I56CCQEU3PEL0OG8NG7NNBH3,EBA4BFC0-DAAC-4A45-870F-767FBA324C1B,2023-09-29_23h48.18.865,WP_VExplicitOC_HL,2022.2.5,MacIntel,60.0024001,NA,NA,2.0029,NA,NA,NA,NA,NA,frustrated,"frustrated, not frustrated","more frustrated, less frustrated",NA,NA,NA,NA,NA,NA,NA,NA,NA,NA,NA,NA,NA,NA,NA,NA,NA,NA,NA,NA,NA,NA,NA,NA,NA,NA,NA,NA,NA,NA,NA,NA,NA,NA,NA,NA,NA,NA,0,0,0,1,1,NA,NA,NA,NA,NA
SUPAMT59520,33F859I56CCQEU3PEL0OG8NG7NNBH3,EBA4BFC0-DAAC-4A45-870F-767FBA324C1B,2023-09-29_23h48.18.865,WP_VExplicitOC_HL,2022.2.5,MacIntel,60.0024001,-53.0171131,2.6339,2.007,NA,NA,NA,NA,NA,bored,"bored, not bored","more bored, less bored",NA,NA,NA,NA,NA,NA,NA,NA,NA,NA,NA,NA,NA,NA,NA,NA,NA,NA,NA,NA,NA,NA,NA,NA,NA,NA,NA,NA,NA,NA,NA,NA,NA,NA,NA,NA,NA,NA,0,1,1,2,1,NA,NA,NA,NA,NA
SUPAMT59520,33F859I56CCQEU3PEL0OG8NG7NNBH3,EBA4BFC0-DAAC-4A45-870F-767FBA324C1B,2023-09-29_23h48.18.865,WP_VExplicitOC_HL,2022.2.5,MacIntel,60.0024001,-20.94759115,2.5595,2.0164,NA,NA,NA,NA,NA,happy,"unhappy, happy","less happy, more happy",NA,NA,NA,NA,NA,NA,NA,NA,NA,NA,NA,NA,NA,NA,NA,NA,NA,NA,NA,NA,NA,NA,NA,NA,NA,NA,NA,NA,NA,NA,NA,NA,NA,NA,NA,NA,NA,NA,0,2,2,0,1,NA,NA,NA,NA,NA
SUPAMT59520,33F859I56CCQEU3PEL0OG8NG7NNBH3,EBA4BFC0-DAAC-4A45-870F-767FBA324C1B,2023-09-29_23h48.18.865,WP_VExplicitOC_HL,2022.2.5,MacIntel,60.0024001,NA,NA,NA,NA,NA,NA,NA,NA,NA,NA,NA,NA,NA,NA,NA,NA,NA,NA,NA,NA,NA,NA,NA,NA,NA,NA,NA,NA,NA,NA,NA,NA,NA,NA,NA,NA,NA,NA,NA,NA,NA,NA,NA,NA,NA,NA,NA,NA,NA,NA,NA,NA,NA,NA,10,0,10,0,1
SUPAMT59520,33F859I56CCQEU3PEL0OG8NG7NNBH3,EBA4BFC0-DAAC-4A45-870F-767FBA324C1B,2023-09-29_23h48.18.865,WP_VExplicitOC_HL,2022.2.5,MacIntel,60.0024001,-80.54819452,2.5471,2.0031,NA,NA,NA,NA,NA,bored,"bored, not bored","more bored, less bored",NA,NA,NA,NA,NA,NA,NA,NA,NA,NA,NA,NA,NA,NA,NA,NA,NA,NA,NA,NA,NA,NA,NA,NA,NA,NA,NA,NA,NA,NA,NA,NA,NA,NA,NA,NA,NA,NA,0,0,0,2,1,NA,NA,NA,NA,NA
SUPAMT59520,33F859I56CCQEU3PEL0OG8NG7NNBH3,EBA4BFC0-DAAC-4A45-870F-767FBA324C1B,2023-09-29_23h48.18.865,WP_VExplicitOC_HL,2022.2.5,MacIntel,60.0024001,-41.68681408,6.6444,2.0007,NA,NA,NA,NA,NA,happy,"unhappy, happy","less happy, more happy",NA,NA,NA,NA,NA,NA,NA,NA,NA,NA,NA,NA,NA,NA,NA,NA,NA,NA,NA,NA,NA,NA,NA,NA,NA,NA,NA,NA,NA,NA,NA,NA,NA,NA,NA,NA,NA,NA,0,1,1,0,1,NA,NA,NA,NA,NA
SUPAMT59520,33F859I56CCQEU3PEL0OG8NG7NNBH3,EBA4BFC0-DAAC-4A45-870F-767FBA324C1B,2023-09-29_23h48.18.865,WP_VExplicitOC_HL,2022.2.5,MacIntel,60.0024001,-54.41761998,6.4758,2.0159,NA,NA,NA,NA,NA,frustrated,"frustrated, not frustrated","more frustrated, less frustrated",NA,NA,NA,NA,NA,NA,NA,NA,NA,NA,NA,NA,NA,NA,NA,NA,NA,NA,NA,NA,NA,NA,NA,NA,NA,NA,NA,NA,NA,NA,NA,NA,NA,NA,NA,NA,NA,NA,0,2,2,1,1,NA,NA,NA,NA,NA
SUPAMT59520,33F859I56CCQEU3PEL0OG8NG7NNBH3,EBA4BFC0-DAAC-4A45-870F-767FBA324C1B,2023-09-29_23h48.18.865,WP_VExplicitOC_HL,2022.2.5,MacIntel,60.0024001,NA,NA,NA,NA,NA,NA,NA,NA,NA,NA,NA,NA,NA,NA,NA,NA,NA,NA,NA,NA,NA,NA,NA,NA,NA,NA,NA,NA,NA,NA,NA,NA,NA,NA,NA,NA,NA,NA,NA,NA,NA,NA,NA,NA,NA,NA,NA,NA,NA,NA,NA,NA,NA,NA,11,0,11,0,1
SUPAMT59520,33F859I56CCQEU3PEL0OG8NG7NNBH3,EBA4BFC0-DAAC-4A45-870F-767FBA324C1B,2023-09-29_23h48.18.865,WP_VExplicitOC_HL,2022.2.5,MacIntel,60.0024001,-60.52944801,2.5838,2.0051,NA,NA,NA,NA,NA,bored,"bored, not bored","more bored, less bored",NA,NA,NA,NA,NA,NA,NA,NA,NA,NA,NA,NA,NA,NA,NA,NA,NA,NA,NA,NA,NA,NA,NA,NA,NA,NA,NA,NA,NA,NA,NA,NA,NA,NA,NA,NA,NA,NA,0,0,0,2,1,NA,NA,NA,NA,NA
SUPAMT59520,33F859I56CCQEU3PEL0OG8NG7NNBH3,EBA4BFC0-DAAC-4A45-870F-767FBA324C1B,2023-09-29_23h48.18.865,WP_VExplicitOC_HL,2022.2.5,MacIntel,60.0024001,-46.5695917,3.1257,2.0177,NA,NA,NA,NA,NA,happy,"unhappy, happy","less happy, more happy",NA,NA,NA,NA,NA,NA,NA,NA,NA,NA,NA,NA,NA,NA,NA,NA,NA,NA,NA,NA,NA,NA,NA,NA,NA,NA,NA,NA,NA,NA,NA,NA,NA,NA,NA,NA,NA,NA,0,1,1,0,1,NA,NA,NA,NA,NA
SUPAMT59520,33F859I56CCQEU3PEL0OG8NG7NNBH3,EBA4BFC0-DAAC-4A45-870F-767FBA324C1B,2023-09-29_23h48.18.865,WP_VExplicitOC_HL,2022.2.5,MacIntel,60.0024001,-54.97080776,3.2399,2.0134,NA,NA,NA,NA,NA,frustrated,"frustrated, not frustrated","more frustrated, less frustrated",NA,NA,NA,NA,NA,NA,NA,NA,NA,NA,NA,NA,NA,NA,NA,NA,NA,NA,NA,NA,NA,NA,NA,NA,NA,NA,NA,NA,NA,NA,NA,NA,NA,NA,NA,NA,NA,NA,0,2,2,1,1,NA,NA,NA,NA,NA
SUPAMT59520,33F859I56CCQEU3PEL0OG8NG7NNBH3,EBA4BFC0-DAAC-4A45-870F-767FBA324C1B,2023-09-29_23h48.18.865,WP_VExplicitOC_HL,2022.2.5,MacIntel,60.0024001,NA,NA,NA,NA,NA,NA,NA,NA,NA,NA,NA,NA,NA,NA,NA,NA,NA,NA,NA,NA,NA,NA,NA,NA,NA,NA,NA,NA,NA,NA,NA,NA,NA,NA,NA,NA,NA,NA,NA,NA,NA,NA,NA,NA,NA,NA,NA,NA,NA,NA,NA,NA,NA,NA,12,0,12,0,1
SUPAMT59520,33F859I56CCQEU3PEL0OG8NG7NNBH3,EBA4BFC0-DAAC-4A45-870F-767FBA324C1B,2023-09-29_23h48.18.865,WP_VExplicitOC_HL,2022.2.5,MacIntel,60.0024001,NA,NA,2.0027,NA,NA,NA,NA,NA,happy,"unhappy, happy","less happy, more happy",NA,NA,NA,NA,NA,NA,NA,NA,NA,NA,NA,NA,NA,NA,NA,NA,NA,NA,NA,NA,NA,NA,NA,NA,NA,NA,NA,NA,NA,NA,NA,NA,NA,NA,NA,NA,NA,NA,0,0,0,0,1,NA,NA,NA,NA,NA
SUPAMT59520,33F859I56CCQEU3PEL0OG8NG7NNBH3,EBA4BFC0-DAAC-4A45-870F-767FBA324C1B,2023-09-29_23h48.18.865,WP_VExplicitOC_HL,2022.2.5,MacIntel,60.0024001,NA,NA,2.0065,NA,NA,NA,NA,NA,bored,"bored, not bored","more bored, less bored",NA,NA,NA,NA,NA,NA,NA,NA,NA,NA,NA,NA,NA,NA,NA,NA,NA,NA,NA,NA,NA,NA,NA,NA,NA,NA,NA,NA,NA,NA,NA,NA,NA,NA,NA,NA,NA,NA,0,1,1,2,1,NA,NA,NA,NA,NA
SUPAMT59520,33F859I56CCQEU3PEL0OG8NG7NNBH3,EBA4BFC0-DAAC-4A45-870F-767FBA324C1B,2023-09-29_23h48.18.865,WP_VExplicitOC_HL,2022.2.5,MacIntel,60.0024001,NA,NA,2.0063,NA,NA,NA,NA,NA,frustrated,"frustrated, not frustrated","more frustrated, less frustrated",NA,NA,NA,NA,NA,NA,NA,NA,NA,NA,NA,NA,NA,NA,NA,NA,NA,NA,NA,NA,NA,NA,NA,NA,NA,NA,NA,NA,NA,NA,NA,NA,NA,NA,NA,NA,NA,NA,0,2,2,1,1,NA,NA,NA,NA,NA
SUPAMT59520,33F859I56CCQEU3PEL0OG8NG7NNBH3,EBA4BFC0-DAAC-4A45-870F-767FBA324C1B,2023-09-29_23h48.18.865,WP_VExplicitOC_HL,2022.2.5,MacIntel,60.0024001,NA,NA,NA,NA,NA,NA,NA,NA,NA,NA,NA,NA,NA,NA,NA,NA,NA,NA,NA,NA,NA,NA,NA,NA,NA,NA,NA,NA,NA,NA,NA,NA,NA,NA,NA,NA,NA,NA,NA,NA,NA,NA,NA,NA,NA,NA,NA,NA,NA,NA,NA,NA,NA,NA,13,0,13,0,1
SUPAMT59520,33F859I56CCQEU3PEL0OG8NG7NNBH3,EBA4BFC0-DAAC-4A45-870F-767FBA324C1B,2023-09-29_23h48.18.865,WP_VExplicitOC_HL,2022.2.5,MacIntel,60.0024001,-41.01024228,2.5979,2.005,NA,NA,NA,NA,NA,happy,"unhappy, happy","less happy, more happy",NA,NA,NA,NA,NA,NA,NA,NA,NA,NA,NA,NA,NA,NA,NA,NA,NA,NA,NA,NA,NA,NA,NA,NA,NA,NA,NA,NA,NA,NA,NA,NA,NA,NA,NA,NA,NA,NA,0,0,0,0,1,NA,NA,NA,NA,NA
SUPAMT59520,33F859I56CCQEU3PEL0OG8NG7NNBH3,EBA4BFC0-DAAC-4A45-870F-767FBA324C1B,2023-09-29_23h48.18.865,WP_VExplicitOC_HL,2022.2.5,MacIntel,60.0024001,-60.77178664,2.8438,2.0006,NA,NA,NA,NA,NA,frustrated,"frustrated, not frustrated","more frustrated, less frustrated",NA,NA,NA,NA,NA,NA,NA,NA,NA,NA,NA,NA,NA,NA,NA,NA,NA,NA,NA,NA,NA,NA,NA,NA,NA,NA,NA,NA,NA,NA,NA,NA,NA,NA,NA,NA,NA,NA,0,1,1,1,1,NA,NA,NA,NA,NA
SUPAMT59520,33F859I56CCQEU3PEL0OG8NG7NNBH3,EBA4BFC0-DAAC-4A45-870F-767FBA324C1B,2023-09-29_23h48.18.865,WP_VExplicitOC_HL,2022.2.5,MacIntel,60.0024001,-91.04988607,2.4925,2.0009,NA,NA,NA,NA,NA,bored,"bored, not bored","more bored, less bored",NA,NA,NA,NA,NA,NA,NA,NA,NA,NA,NA,NA,NA,NA,NA,NA,NA,NA,NA,NA,NA,NA,NA,NA,NA,NA,NA,NA,NA,NA,NA,NA,NA,NA,NA,NA,NA,NA,0,2,2,2,1,NA,NA,NA,NA,NA
SUPAMT59520,33F859I56CCQEU3PEL0OG8NG7NNBH3,EBA4BFC0-DAAC-4A45-870F-767FBA324C1B,2023-09-29_23h48.18.865,WP_VExplicitOC_HL,2022.2.5,MacIntel,60.0024001,NA,NA,NA,NA,NA,NA,NA,NA,NA,NA,NA,NA,NA,NA,NA,NA,NA,NA,NA,NA,NA,NA,NA,NA,NA,NA,NA,NA,NA,NA,NA,NA,NA,NA,NA,NA,NA,NA,NA,NA,NA,NA,NA,NA,NA,NA,NA,NA,NA,NA,NA,NA,NA,NA,14,0,14,0,1
SUPAMT59520,33F859I56CCQEU3PEL0OG8NG7NNBH3,EBA4BFC0-DAAC-4A45-870F-767FBA324C1B,2023-09-29_23h48.18.865,WP_VExplicitOC_HL,2022.2.5,MacIntel,60.0024001,NA,NA,NA,NA,NA,NA,NA,NA,NA,NA,NA,NA,NA,NA,NA,NA,NA,NA,NA,NA,NA,NA,NA,NA,NA,NA,NA,NA,NA,NA,NA,NA,NA,NA,NA,NA,NA,NA,NA,NA,NA,NA,NA,NA,NA,NA,NA,NA,NA,NA,NA,NA,NA,NA,NA,NA,NA,NA,NA
