participant,session,completion,date,expName,psychopyVersion,OS,frameRate,rating_all.response,rating_all.rt,rating_all.tStart,rndRat1.thisRepN,rndRat1.thisTrialN,rndRat1.thisN,rndRat1.thisIndex,rndRat1.ran,Emo,Labs,Labs2,rating_alt.response,rating_alt.rt,AltC.thisRepN,AltC.thisTrialN,AltC.thisN,AltC.thisIndex,AltC.ran,alt_choices,pic_choices,BottomAlt_Choice,rndRat2.thisRepN,rndRat2.thisTrialN,rndRat2.thisN,rndRat2.thisIndex,rndRat2.ran,rndRat3.thisRepN,rndRat3.thisTrialN,rndRat3.thisN,rndRat3.thisIndex,rndRat3.ran,trials_FC_L.thisRepN,trials_FC_L.thisTrialN,trials_FC_L.thisN,trials_FC_L.thisIndex,trials_FC_L.ran,rating_alt_2.response,rating_alt_2.rt,AltC2.thisRepN,AltC2.thisTrialN,AltC2.thisN,AltC2.thisIndex,AltC2.ran,TopAlt_Choice,rndRat4.thisRepN,rndRat4.thisTrialN,rndRat4.thisN,rndRat4.thisIndex,rndRat4.ran,rndRat5.thisRepN,rndRat5.thisTrialN,rndRat5.thisN,rndRat5.thisIndex,rndRat5.ran,trials_FC_H.thisRepN,trials_FC_H.thisTrialN,trials_FC_H.thisN,trials_FC_H.thisIndex,trials_FC_H.ran
SUPAMT87285,338JKRMM2CYLVKYX870SLX3APTWAHD,4EBA2268-A981-4B02-9A3E-BF4CD2695931,2023-09-27_10h54.30.512,WP_VExplicitOC_LH,2022.2.5,Win32,5.333333333,NA,NA,NA,NA,NA,NA,NA,NA,NA,NA,NA,NA,NA,NA,NA,NA,NA,NA,NA,NA,NA,NA,NA,NA,NA,NA,NA,NA,NA,NA,NA,NA,NA,NA,NA,NA,NA,NA,NA,NA,NA,NA,NA,NA,NA,NA,NA,NA,NA,NA,NA,NA,NA,NA,NA,NA,NA,NA,NA
SUPAMT87285,338JKRMM2CYLVKYX870SLX3APTWAHD,4EBA2268-A981-4B02-9A3E-BF4CD2695931,2023-09-27_10h54.30.512,WP_VExplicitOC_LH,2022.2.5,Win32,5.333333333,NA,NA,NA,NA,NA,NA,NA,NA,NA,NA,NA,NA,NA,NA,NA,NA,NA,NA,NA,NA,NA,NA,NA,NA,NA,NA,NA,NA,NA,NA,NA,NA,NA,NA,NA,NA,NA,NA,NA,NA,NA,NA,NA,NA,NA,NA,NA,NA,NA,NA,NA,NA,NA,NA,NA,NA,NA,NA,NA
SUPAMT87285,338JKRMM2CYLVKYX870SLX3APTWAHD,4EBA2268-A981-4B02-9A3E-BF4CD2695931,2023-09-27_10h54.30.512,WP_VExplicitOC_LH,2022.2.5,Win32,5.333333333,NA,NA,NA,NA,NA,NA,NA,NA,NA,NA,NA,NA,NA,NA,NA,NA,NA,NA,NA,NA,NA,NA,NA,NA,NA,NA,NA,NA,NA,NA,NA,NA,NA,NA,NA,NA,NA,NA,NA,NA,NA,NA,NA,NA,NA,NA,NA,NA,NA,NA,NA,NA,NA,NA,NA,NA,NA,NA,NA
SUPAMT87285,338JKRMM2CYLVKYX870SLX3APTWAHD,4EBA2268-A981-4B02-9A3E-BF4CD2695931,2023-09-27_10h54.30.512,WP_VExplicitOC_LH,2022.2.5,Win32,5.333333333,100,5.42,2.003,0,0,0,2,1,bored,"bored, not bored","more bored, less bored",NA,NA,NA,NA,NA,NA,NA,NA,NA,NA,NA,NA,NA,NA,NA,NA,NA,NA,NA,NA,NA,NA,NA,NA,NA,NA,NA,NA,NA,NA,NA,NA,NA,NA,NA,NA,NA,NA,NA,NA,NA,NA,NA,NA,NA,NA,NA,NA
SUPAMT87285,338JKRMM2CYLVKYX870SLX3APTWAHD,4EBA2268-A981-4B02-9A3E-BF4CD2695931,2023-09-27_10h54.30.512,WP_VExplicitOC_LH,2022.2.5,Win32,5.333333333,100,4.696,2.065,0,1,1,0,1,happy,"unhappy, happy","less happy, more happy",NA,NA,NA,NA,NA,NA,NA,NA,NA,NA,NA,NA,NA,NA,NA,NA,NA,NA,NA,NA,NA,NA,NA,NA,NA,NA,NA,NA,NA,NA,NA,NA,NA,NA,NA,NA,NA,NA,NA,NA,NA,NA,NA,NA,NA,NA,NA,NA
SUPAMT87285,338JKRMM2CYLVKYX870SLX3APTWAHD,4EBA2268-A981-4B02-9A3E-BF4CD2695931,2023-09-27_10h54.30.512,WP_VExplicitOC_LH,2022.2.5,Win32,5.333333333,99.81483177,5.509,2.016,0,2,2,1,1,frustrated,"frustrated, not frustrated","more frustrated, less frustrated",NA,NA,NA,NA,NA,NA,NA,NA,NA,NA,NA,NA,NA,NA,NA,NA,NA,NA,NA,NA,NA,NA,NA,NA,NA,NA,NA,NA,NA,NA,NA,NA,NA,NA,NA,NA,NA,NA,NA,NA,NA,NA,NA,NA,NA,NA,NA,NA
SUPAMT87285,338JKRMM2CYLVKYX870SLX3APTWAHD,4EBA2268-A981-4B02-9A3E-BF4CD2695931,2023-09-27_10h54.30.512,WP_VExplicitOC_LH,2022.2.5,Win32,5.333333333,NA,NA,NA,NA,NA,NA,NA,NA,NA,NA,NA,NA,NA,NA,NA,NA,NA,NA,NA,NA,NA,NA,NA,NA,NA,NA,NA,NA,NA,NA,NA,NA,NA,NA,NA,NA,NA,NA,NA,NA,NA,NA,NA,NA,NA,NA,NA,NA,NA,NA,NA,NA,NA,NA,NA,NA,NA,NA,NA
SUPAMT87285,338JKRMM2CYLVKYX870SLX3APTWAHD,4EBA2268-A981-4B02-9A3E-BF4CD2695931,2023-09-27_10h54.30.512,WP_VExplicitOC_LH,2022.2.5,Win32,5.333333333,NA,NA,NA,NA,NA,NA,NA,NA,NA,NA,NA,NA,NA,NA,NA,NA,NA,NA,NA,NA,NA,NA,NA,NA,NA,NA,NA,NA,NA,NA,NA,NA,NA,NA,NA,NA,NA,NA,NA,NA,NA,NA,NA,NA,NA,NA,NA,NA,NA,NA,NA,NA,NA,NA,NA,NA,NA,NA,NA
SUPAMT87285,338JKRMM2CYLVKYX870SLX3APTWAHD,4EBA2268-A981-4B02-9A3E-BF4CD2695931,2023-09-27_10h54.30.512,WP_VExplicitOC_LH,2022.2.5,Win32,5.333333333,NA,NA,NA,NA,NA,NA,NA,NA,NA,NA,NA,NA,NA,NA,NA,NA,NA,NA,NA,NA,NA,NA,NA,NA,NA,NA,NA,NA,NA,NA,NA,NA,NA,NA,NA,NA,NA,NA,NA,NA,NA,NA,NA,NA,NA,NA,NA,NA,NA,NA,NA,NA,NA,NA,NA,NA,NA,NA,NA
SUPAMT87285,338JKRMM2CYLVKYX870SLX3APTWAHD,4EBA2268-A981-4B02-9A3E-BF4CD2695931,2023-09-27_10h54.30.512,WP_VExplicitOC_LH,2022.2.5,Win32,5.333333333,NA,NA,NA,NA,NA,NA,NA,NA,NA,NA,NA,NA,NA,NA,NA,NA,NA,NA,NA,NA,NA,NA,NA,NA,NA,NA,NA,NA,NA,NA,NA,NA,NA,NA,NA,NA,NA,NA,NA,NA,NA,NA,NA,NA,NA,NA,NA,NA,NA,NA,NA,NA,NA,NA,NA,NA,NA,NA,NA
SUPAMT87285,338JKRMM2CYLVKYX870SLX3APTWAHD,4EBA2268-A981-4B02-9A3E-BF4CD2695931,2023-09-27_10h54.30.512,WP_VExplicitOC_LH,2022.2.5,Win32,5.333333333,NA,NA,NA,NA,NA,NA,NA,NA,NA,NA,NA,NA,NA,0,0,0,0,1,rest (looking at a fixed cross),001.png,NA,NA,NA,NA,NA,NA,NA,NA,NA,NA,NA,NA,NA,NA,NA,NA,NA,NA,NA,NA,NA,NA,NA,NA,NA,NA,NA,NA,NA,NA,NA,NA,NA,NA,NA,NA,NA,NA,NA
SUPAMT87285,338JKRMM2CYLVKYX870SLX3APTWAHD,4EBA2268-A981-4B02-9A3E-BF4CD2695931,2023-09-27_10h54.30.512,WP_VExplicitOC_LH,2022.2.5,Win32,5.333333333,NA,NA,NA,NA,NA,NA,NA,NA,NA,NA,NA,74.81483177,3.711,0,1,1,1,1,stand up,002.png,NA,NA,NA,NA,NA,NA,NA,NA,NA,NA,NA,NA,NA,NA,NA,NA,NA,NA,NA,NA,NA,NA,NA,NA,NA,NA,NA,NA,NA,NA,NA,NA,NA,NA,NA,NA,NA,NA,NA
SUPAMT87285,338JKRMM2CYLVKYX870SLX3APTWAHD,4EBA2268-A981-4B02-9A3E-BF4CD2695931,2023-09-27_10h54.30.512,WP_VExplicitOC_LH,2022.2.5,Win32,5.333333333,NA,NA,NA,NA,NA,NA,NA,NA,NA,NA,NA,81.48148148,2.779,0,2,2,2,1,stretch,003.png,NA,NA,NA,NA,NA,NA,NA,NA,NA,NA,NA,NA,NA,NA,NA,NA,NA,NA,NA,NA,NA,NA,NA,NA,NA,NA,NA,NA,NA,NA,NA,NA,NA,NA,NA,NA,NA,NA,NA
SUPAMT87285,338JKRMM2CYLVKYX870SLX3APTWAHD,4EBA2268-A981-4B02-9A3E-BF4CD2695931,2023-09-27_10h54.30.512,WP_VExplicitOC_LH,2022.2.5,Win32,5.333333333,NA,NA,NA,NA,NA,NA,NA,NA,NA,NA,NA,96.8518575,3.042,0,3,3,3,1,make a drink,004.png,NA,NA,NA,NA,NA,NA,NA,NA,NA,NA,NA,NA,NA,NA,NA,NA,NA,NA,NA,NA,NA,NA,NA,NA,NA,NA,NA,NA,NA,NA,NA,NA,NA,NA,NA,NA,NA,NA,NA
SUPAMT87285,338JKRMM2CYLVKYX870SLX3APTWAHD,4EBA2268-A981-4B02-9A3E-BF4CD2695931,2023-09-27_10h54.30.512,WP_VExplicitOC_LH,2022.2.5,Win32,5.333333333,NA,NA,NA,NA,NA,NA,NA,NA,NA,NA,NA,4.814811989,4.306,0,4,4,4,1,scroll social media,005.png,NA,NA,NA,NA,NA,NA,NA,NA,NA,NA,NA,NA,NA,NA,NA,NA,NA,NA,NA,NA,NA,NA,NA,NA,NA,NA,NA,NA,NA,NA,NA,NA,NA,NA,NA,NA,NA,NA,NA
SUPAMT87285,338JKRMM2CYLVKYX870SLX3APTWAHD,4EBA2268-A981-4B02-9A3E-BF4CD2695931,2023-09-27_10h54.30.512,WP_VExplicitOC_LH,2022.2.5,Win32,5.333333333,NA,NA,NA,NA,NA,NA,NA,NA,NA,NA,NA,-55.55555556,3.053,0,5,5,5,1,listen to music,006.png,NA,NA,NA,NA,NA,NA,NA,NA,NA,NA,NA,NA,NA,NA,NA,NA,NA,NA,NA,NA,NA,NA,NA,NA,NA,NA,NA,NA,NA,NA,NA,NA,NA,NA,NA,NA,NA,NA,NA
SUPAMT87285,338JKRMM2CYLVKYX870SLX3APTWAHD,4EBA2268-A981-4B02-9A3E-BF4CD2695931,2023-09-27_10h54.30.512,WP_VExplicitOC_LH,2022.2.5,Win32,5.333333333,NA,NA,NA,NA,NA,NA,NA,NA,NA,NA,NA,-50,3.288,0,6,6,6,1,daydream,007.png,NA,NA,NA,NA,NA,NA,NA,NA,NA,NA,NA,NA,NA,NA,NA,NA,NA,NA,NA,NA,NA,NA,NA,NA,NA,NA,NA,NA,NA,NA,NA,NA,NA,NA,NA,NA,NA,NA,NA
SUPAMT87285,338JKRMM2CYLVKYX870SLX3APTWAHD,4EBA2268-A981-4B02-9A3E-BF4CD2695931,2023-09-27_10h54.30.512,WP_VExplicitOC_LH,2022.2.5,Win32,5.333333333,NA,NA,NA,NA,NA,NA,NA,NA,NA,NA,NA,40.9259231,2.753,0,7,7,7,1,watch a short animation,008.png,NA,NA,NA,NA,NA,NA,NA,NA,NA,NA,NA,NA,NA,NA,NA,NA,NA,NA,NA,NA,NA,NA,NA,NA,NA,NA,NA,NA,NA,NA,NA,NA,NA,NA,NA,NA,NA,NA,NA
SUPAMT87285,338JKRMM2CYLVKYX870SLX3APTWAHD,4EBA2268-A981-4B02-9A3E-BF4CD2695931,2023-09-27_10h54.30.512,WP_VExplicitOC_LH,2022.2.5,Win32,5.333333333,NA,NA,NA,NA,NA,NA,NA,NA,NA,NA,NA,100,3.025,0,8,8,8,1,read a novel,009.png,NA,NA,NA,NA,NA,NA,NA,NA,NA,NA,NA,NA,NA,NA,NA,NA,NA,NA,NA,NA,NA,NA,NA,NA,NA,NA,NA,NA,NA,NA,NA,NA,NA,NA,NA,NA,NA,NA,NA
SUPAMT87285,338JKRMM2CYLVKYX870SLX3APTWAHD,4EBA2268-A981-4B02-9A3E-BF4CD2695931,2023-09-27_10h54.30.512,WP_VExplicitOC_LH,2022.2.5,Win32,5.333333333,NA,NA,NA,NA,NA,NA,NA,NA,NA,NA,NA,100,3.105,0,9,9,9,1,read the news,010.png,NA,NA,NA,NA,NA,NA,NA,NA,NA,NA,NA,NA,NA,NA,NA,NA,NA,NA,NA,NA,NA,NA,NA,NA,NA,NA,NA,NA,NA,NA,NA,NA,NA,NA,NA,NA,NA,NA,NA
SUPAMT87285,338JKRMM2CYLVKYX870SLX3APTWAHD,4EBA2268-A981-4B02-9A3E-BF4CD2695931,2023-09-27_10h54.30.512,WP_VExplicitOC_LH,2022.2.5,Win32,5.333333333,NA,NA,NA,NA,NA,NA,NA,NA,NA,NA,NA,NA,NA,NA,NA,NA,NA,NA,NA,NA,NA,NA,NA,NA,NA,NA,NA,NA,NA,NA,NA,NA,NA,NA,NA,NA,NA,NA,NA,NA,NA,NA,NA,NA,NA,NA,NA,NA,NA,NA,NA,NA,NA,NA,NA,NA,NA,NA,NA
SUPAMT87285,338JKRMM2CYLVKYX870SLX3APTWAHD,4EBA2268-A981-4B02-9A3E-BF4CD2695931,2023-09-27_10h54.30.512,WP_VExplicitOC_LH,2022.2.5,Win32,5.333333333,NA,NA,NA,NA,NA,NA,NA,NA,NA,NA,NA,NA,NA,NA,NA,NA,NA,NA,NA,NA,scroll social media,NA,NA,NA,NA,NA,NA,NA,NA,NA,NA,NA,NA,NA,NA,NA,NA,NA,NA,NA,NA,NA,NA,NA,NA,NA,NA,NA,NA,NA,NA,NA,NA,NA,NA,NA,NA,NA,NA
SUPAMT87285,338JKRMM2CYLVKYX870SLX3APTWAHD,4EBA2268-A981-4B02-9A3E-BF4CD2695931,2023-09-27_10h54.30.512,WP_VExplicitOC_LH,2022.2.5,Win32,5.333333333,100,4.591,2.056,NA,NA,NA,NA,NA,happy,"unhappy, happy","less happy, more happy",NA,NA,NA,NA,NA,NA,NA,NA,NA,NA,0,0,0,0,1,NA,NA,NA,NA,NA,NA,NA,NA,NA,NA,NA,NA,NA,NA,NA,NA,NA,NA,NA,NA,NA,NA,NA,NA,NA,NA,NA,NA,NA,NA,NA,NA,NA
SUPAMT87285,338JKRMM2CYLVKYX870SLX3APTWAHD,4EBA2268-A981-4B02-9A3E-BF4CD2695931,2023-09-27_10h54.30.512,WP_VExplicitOC_LH,2022.2.5,Win32,5.333333333,87.77779473,5.434,2.237,NA,NA,NA,NA,NA,frustrated,"frustrated, not frustrated","more frustrated, less frustrated",NA,NA,NA,NA,NA,NA,NA,NA,NA,NA,0,1,1,1,1,NA,NA,NA,NA,NA,NA,NA,NA,NA,NA,NA,NA,NA,NA,NA,NA,NA,NA,NA,NA,NA,NA,NA,NA,NA,NA,NA,NA,NA,NA,NA,NA,NA
SUPAMT87285,338JKRMM2CYLVKYX870SLX3APTWAHD,4EBA2268-A981-4B02-9A3E-BF4CD2695931,2023-09-27_10h54.30.512,WP_VExplicitOC_LH,2022.2.5,Win32,5.333333333,89.62964658,4.709,2.258,NA,NA,NA,NA,NA,bored,"bored, not bored","more bored, less bored",NA,NA,NA,NA,NA,NA,NA,NA,NA,NA,0,2,2,2,1,NA,NA,NA,NA,NA,NA,NA,NA,NA,NA,NA,NA,NA,NA,NA,NA,NA,NA,NA,NA,NA,NA,NA,NA,NA,NA,NA,NA,NA,NA,NA,NA,NA
SUPAMT87285,338JKRMM2CYLVKYX870SLX3APTWAHD,4EBA2268-A981-4B02-9A3E-BF4CD2695931,2023-09-27_10h54.30.512,WP_VExplicitOC_LH,2022.2.5,Win32,5.333333333,NA,NA,NA,NA,NA,NA,NA,NA,NA,NA,NA,NA,NA,NA,NA,NA,NA,NA,NA,NA,NA,NA,NA,NA,NA,NA,NA,NA,NA,NA,NA,NA,NA,NA,NA,NA,NA,NA,NA,NA,NA,NA,NA,NA,NA,NA,NA,NA,NA,NA,NA,NA,NA,NA,NA,NA,NA,NA,NA
SUPAMT87285,338JKRMM2CYLVKYX870SLX3APTWAHD,4EBA2268-A981-4B02-9A3E-BF4CD2695931,2023-09-27_10h54.30.512,WP_VExplicitOC_LH,2022.2.5,Win32,5.333333333,NA,NA,NA,NA,NA,NA,NA,NA,NA,NA,NA,NA,NA,NA,NA,NA,NA,NA,NA,NA,NA,NA,NA,NA,NA,NA,NA,NA,NA,NA,NA,NA,NA,NA,NA,NA,NA,NA,NA,NA,NA,NA,NA,NA,NA,NA,NA,NA,NA,NA,NA,NA,NA,NA,NA,NA,NA,NA,NA
SUPAMT87285,338JKRMM2CYLVKYX870SLX3APTWAHD,4EBA2268-A981-4B02-9A3E-BF4CD2695931,2023-09-27_10h54.30.512,WP_VExplicitOC_LH,2022.2.5,Win32,5.333333333,100,4.5,2.015,NA,NA,NA,NA,NA,happy,"unhappy, happy","less happy, more happy",NA,NA,NA,NA,NA,NA,NA,NA,NA,NA,NA,NA,NA,NA,NA,0,0,0,0,1,NA,NA,NA,NA,NA,NA,NA,NA,NA,NA,NA,NA,NA,NA,NA,NA,NA,NA,NA,NA,NA,NA,NA,NA,NA,NA,NA,NA
SUPAMT87285,338JKRMM2CYLVKYX870SLX3APTWAHD,4EBA2268-A981-4B02-9A3E-BF4CD2695931,2023-09-27_10h54.30.512,WP_VExplicitOC_LH,2022.2.5,Win32,5.333333333,86.48147583,5.033,2.223,NA,NA,NA,NA,NA,bored,"bored, not bored","more bored, less bored",NA,NA,NA,NA,NA,NA,NA,NA,NA,NA,NA,NA,NA,NA,NA,0,1,1,2,1,NA,NA,NA,NA,NA,NA,NA,NA,NA,NA,NA,NA,NA,NA,NA,NA,NA,NA,NA,NA,NA,NA,NA,NA,NA,NA,NA,NA
SUPAMT87285,338JKRMM2CYLVKYX870SLX3APTWAHD,4EBA2268-A981-4B02-9A3E-BF4CD2695931,2023-09-27_10h54.30.512,WP_VExplicitOC_LH,2022.2.5,Win32,5.333333333,NA,NA,2.216,NA,NA,NA,NA,NA,frustrated,"frustrated, not frustrated","more frustrated, less frustrated",NA,NA,NA,NA,NA,NA,NA,NA,NA,NA,NA,NA,NA,NA,NA,0,2,2,1,1,NA,NA,NA,NA,NA,NA,NA,NA,NA,NA,NA,NA,NA,NA,NA,NA,NA,NA,NA,NA,NA,NA,NA,NA,NA,NA,NA,NA
SUPAMT87285,338JKRMM2CYLVKYX870SLX3APTWAHD,4EBA2268-A981-4B02-9A3E-BF4CD2695931,2023-09-27_10h54.30.512,WP_VExplicitOC_LH,2022.2.5,Win32,5.333333333,NA,NA,NA,NA,NA,NA,NA,NA,NA,NA,NA,NA,NA,NA,NA,NA,NA,NA,NA,NA,NA,NA,NA,NA,NA,NA,NA,NA,NA,NA,NA,0,0,0,0,1,NA,NA,NA,NA,NA,NA,NA,NA,NA,NA,NA,NA,NA,NA,NA,NA,NA,NA,NA,NA,NA,NA,NA
SUPAMT87285,338JKRMM2CYLVKYX870SLX3APTWAHD,4EBA2268-A981-4B02-9A3E-BF4CD2695931,2023-09-27_10h54.30.512,WP_VExplicitOC_LH,2022.2.5,Win32,5.333333333,98.14814815,6.14,2.084,NA,NA,NA,NA,NA,happy,"unhappy, happy","less happy, more happy",NA,NA,NA,NA,NA,NA,NA,NA,NA,NA,NA,NA,NA,NA,NA,0,0,0,0,1,NA,NA,NA,NA,NA,NA,NA,NA,NA,NA,NA,NA,NA,NA,NA,NA,NA,NA,NA,NA,NA,NA,NA,NA,NA,NA,NA,NA
SUPAMT87285,338JKRMM2CYLVKYX870SLX3APTWAHD,4EBA2268-A981-4B02-9A3E-BF4CD2695931,2023-09-27_10h54.30.512,WP_VExplicitOC_LH,2022.2.5,Win32,5.333333333,90.92593723,5.383,2.18,NA,NA,NA,NA,NA,bored,"bored, not bored","more bored, less bored",NA,NA,NA,NA,NA,NA,NA,NA,NA,NA,NA,NA,NA,NA,NA,0,1,1,2,1,NA,NA,NA,NA,NA,NA,NA,NA,NA,NA,NA,NA,NA,NA,NA,NA,NA,NA,NA,NA,NA,NA,NA,NA,NA,NA,NA,NA
SUPAMT87285,338JKRMM2CYLVKYX870SLX3APTWAHD,4EBA2268-A981-4B02-9A3E-BF4CD2695931,2023-09-27_10h54.30.512,WP_VExplicitOC_LH,2022.2.5,Win32,5.333333333,100,4.789,2.216,NA,NA,NA,NA,NA,frustrated,"frustrated, not frustrated","more frustrated, less frustrated",NA,NA,NA,NA,NA,NA,NA,NA,NA,NA,NA,NA,NA,NA,NA,0,2,2,1,1,NA,NA,NA,NA,NA,NA,NA,NA,NA,NA,NA,NA,NA,NA,NA,NA,NA,NA,NA,NA,NA,NA,NA,NA,NA,NA,NA,NA
SUPAMT87285,338JKRMM2CYLVKYX870SLX3APTWAHD,4EBA2268-A981-4B02-9A3E-BF4CD2695931,2023-09-27_10h54.30.512,WP_VExplicitOC_LH,2022.2.5,Win32,5.333333333,NA,NA,NA,NA,NA,NA,NA,NA,NA,NA,NA,NA,NA,NA,NA,NA,NA,NA,NA,NA,NA,NA,NA,NA,NA,NA,NA,NA,NA,NA,NA,1,0,1,0,1,NA,NA,NA,NA,NA,NA,NA,NA,NA,NA,NA,NA,NA,NA,NA,NA,NA,NA,NA,NA,NA,NA,NA
SUPAMT87285,338JKRMM2CYLVKYX870SLX3APTWAHD,4EBA2268-A981-4B02-9A3E-BF4CD2695931,2023-09-27_10h54.30.512,WP_VExplicitOC_LH,2022.2.5,Win32,5.333333333,92.31594346,4.601,2.206,NA,NA,NA,NA,NA,frustrated,"frustrated, not frustrated","more frustrated, less frustrated",NA,NA,NA,NA,NA,NA,NA,NA,NA,NA,NA,NA,NA,NA,NA,0,0,0,1,1,NA,NA,NA,NA,NA,NA,NA,NA,NA,NA,NA,NA,NA,NA,NA,NA,NA,NA,NA,NA,NA,NA,NA,NA,NA,NA,NA,NA
SUPAMT87285,338JKRMM2CYLVKYX870SLX3APTWAHD,4EBA2268-A981-4B02-9A3E-BF4CD2695931,2023-09-27_10h54.30.512,WP_VExplicitOC_LH,2022.2.5,Win32,5.333333333,99.17001992,4.806,2.22,NA,NA,NA,NA,NA,happy,"unhappy, happy","less happy, more happy",NA,NA,NA,NA,NA,NA,NA,NA,NA,NA,NA,NA,NA,NA,NA,0,1,1,0,1,NA,NA,NA,NA,NA,NA,NA,NA,NA,NA,NA,NA,NA,NA,NA,NA,NA,NA,NA,NA,NA,NA,NA,NA,NA,NA,NA,NA
SUPAMT87285,338JKRMM2CYLVKYX870SLX3APTWAHD,4EBA2268-A981-4B02-9A3E-BF4CD2695931,2023-09-27_10h54.30.512,WP_VExplicitOC_LH,2022.2.5,Win32,5.333333333,94.02947075,4.944,2.146,NA,NA,NA,NA,NA,bored,"bored, not bored","more bored, less bored",NA,NA,NA,NA,NA,NA,NA,NA,NA,NA,NA,NA,NA,NA,NA,0,2,2,2,1,NA,NA,NA,NA,NA,NA,NA,NA,NA,NA,NA,NA,NA,NA,NA,NA,NA,NA,NA,NA,NA,NA,NA,NA,NA,NA,NA,NA
SUPAMT87285,338JKRMM2CYLVKYX870SLX3APTWAHD,4EBA2268-A981-4B02-9A3E-BF4CD2695931,2023-09-27_10h54.30.512,WP_VExplicitOC_LH,2022.2.5,Win32,5.333333333,NA,NA,NA,NA,NA,NA,NA,NA,NA,NA,NA,NA,NA,NA,NA,NA,NA,NA,NA,NA,NA,NA,NA,NA,NA,NA,NA,NA,NA,NA,NA,2,0,2,0,1,NA,NA,NA,NA,NA,NA,NA,NA,NA,NA,NA,NA,NA,NA,NA,NA,NA,NA,NA,NA,NA,NA,NA
SUPAMT87285,338JKRMM2CYLVKYX870SLX3APTWAHD,4EBA2268-A981-4B02-9A3E-BF4CD2695931,2023-09-27_10h54.30.512,WP_VExplicitOC_LH,2022.2.5,Win32,5.333333333,100,4.854,2.119,NA,NA,NA,NA,NA,frustrated,"frustrated, not frustrated","more frustrated, less frustrated",NA,NA,NA,NA,NA,NA,NA,NA,NA,NA,NA,NA,NA,NA,NA,0,0,0,1,1,NA,NA,NA,NA,NA,NA,NA,NA,NA,NA,NA,NA,NA,NA,NA,NA,NA,NA,NA,NA,NA,NA,NA,NA,NA,NA,NA,NA
SUPAMT87285,338JKRMM2CYLVKYX870SLX3APTWAHD,4EBA2268-A981-4B02-9A3E-BF4CD2695931,2023-09-27_10h54.30.512,WP_VExplicitOC_LH,2022.2.5,Win32,5.333333333,94.24364123,5.192,2.186,NA,NA,NA,NA,NA,happy,"unhappy, happy","less happy, more happy",NA,NA,NA,NA,NA,NA,NA,NA,NA,NA,NA,NA,NA,NA,NA,0,1,1,0,1,NA,NA,NA,NA,NA,NA,NA,NA,NA,NA,NA,NA,NA,NA,NA,NA,NA,NA,NA,NA,NA,NA,NA,NA,NA,NA,NA,NA
SUPAMT87285,338JKRMM2CYLVKYX870SLX3APTWAHD,4EBA2268-A981-4B02-9A3E-BF4CD2695931,2023-09-27_10h54.30.512,WP_VExplicitOC_LH,2022.2.5,Win32,5.333333333,100,7.112,2.044,NA,NA,NA,NA,NA,bored,"bored, not bored","more bored, less bored",NA,NA,NA,NA,NA,NA,NA,NA,NA,NA,NA,NA,NA,NA,NA,0,2,2,2,1,NA,NA,NA,NA,NA,NA,NA,NA,NA,NA,NA,NA,NA,NA,NA,NA,NA,NA,NA,NA,NA,NA,NA,NA,NA,NA,NA,NA
SUPAMT87285,338JKRMM2CYLVKYX870SLX3APTWAHD,4EBA2268-A981-4B02-9A3E-BF4CD2695931,2023-09-27_10h54.30.512,WP_VExplicitOC_LH,2022.2.5,Win32,5.333333333,NA,NA,NA,NA,NA,NA,NA,NA,NA,NA,NA,NA,NA,NA,NA,NA,NA,NA,NA,NA,NA,NA,NA,NA,NA,NA,NA,NA,NA,NA,NA,3,0,3,0,1,NA,NA,NA,NA,NA,NA,NA,NA,NA,NA,NA,NA,NA,NA,NA,NA,NA,NA,NA,NA,NA,NA,NA
SUPAMT87285,338JKRMM2CYLVKYX870SLX3APTWAHD,4EBA2268-A981-4B02-9A3E-BF4CD2695931,2023-09-27_10h54.30.512,WP_VExplicitOC_LH,2022.2.5,Win32,5.333333333,NA,NA,2.053,NA,NA,NA,NA,NA,bored,"bored, not bored","more bored, less bored",NA,NA,NA,NA,NA,NA,NA,NA,NA,NA,NA,NA,NA,NA,NA,0,0,0,2,1,NA,NA,NA,NA,NA,NA,NA,NA,NA,NA,NA,NA,NA,NA,NA,NA,NA,NA,NA,NA,NA,NA,NA,NA,NA,NA,NA,NA
SUPAMT87285,338JKRMM2CYLVKYX870SLX3APTWAHD,4EBA2268-A981-4B02-9A3E-BF4CD2695931,2023-09-27_10h54.30.512,WP_VExplicitOC_LH,2022.2.5,Win32,5.333333333,98.95581676,4.72,2.153,NA,NA,NA,NA,NA,frustrated,"frustrated, not frustrated","more frustrated, less frustrated",NA,NA,NA,NA,NA,NA,NA,NA,NA,NA,NA,NA,NA,NA,NA,0,1,1,1,1,NA,NA,NA,NA,NA,NA,NA,NA,NA,NA,NA,NA,NA,NA,NA,NA,NA,NA,NA,NA,NA,NA,NA,NA,NA,NA,NA,NA
SUPAMT87285,338JKRMM2CYLVKYX870SLX3APTWAHD,4EBA2268-A981-4B02-9A3E-BF4CD2695931,2023-09-27_10h54.30.512,WP_VExplicitOC_LH,2022.2.5,Win32,5.333333333,98.74164627,4.147,2.01,NA,NA,NA,NA,NA,happy,"unhappy, happy","less happy, more happy",NA,NA,NA,NA,NA,NA,NA,NA,NA,NA,NA,NA,NA,NA,NA,0,2,2,0,1,NA,NA,NA,NA,NA,NA,NA,NA,NA,NA,NA,NA,NA,NA,NA,NA,NA,NA,NA,NA,NA,NA,NA,NA,NA,NA,NA,NA
SUPAMT87285,338JKRMM2CYLVKYX870SLX3APTWAHD,4EBA2268-A981-4B02-9A3E-BF4CD2695931,2023-09-27_10h54.30.512,WP_VExplicitOC_LH,2022.2.5,Win32,5.333333333,NA,NA,NA,NA,NA,NA,NA,NA,NA,NA,NA,NA,NA,NA,NA,NA,NA,NA,NA,NA,NA,NA,NA,NA,NA,NA,NA,NA,NA,NA,NA,4,0,4,0,1,NA,NA,NA,NA,NA,NA,NA,NA,NA,NA,NA,NA,NA,NA,NA,NA,NA,NA,NA,NA,NA,NA,NA
SUPAMT87285,338JKRMM2CYLVKYX870SLX3APTWAHD,4EBA2268-A981-4B02-9A3E-BF4CD2695931,2023-09-27_10h54.30.512,WP_VExplicitOC_LH,2022.2.5,Win32,5.333333333,NA,NA,2.133,NA,NA,NA,NA,NA,frustrated,"frustrated, not frustrated","more frustrated, less frustrated",NA,NA,NA,NA,NA,NA,NA,NA,NA,NA,NA,NA,NA,NA,NA,0,0,0,1,1,NA,NA,NA,NA,NA,NA,NA,NA,NA,NA,NA,NA,NA,NA,NA,NA,NA,NA,NA,NA,NA,NA,NA,NA,NA,NA,NA,NA
SUPAMT87285,338JKRMM2CYLVKYX870SLX3APTWAHD,4EBA2268-A981-4B02-9A3E-BF4CD2695931,2023-09-27_10h54.30.512,WP_VExplicitOC_LH,2022.2.5,Win32,5.333333333,95.3145917,4.279,2.102,NA,NA,NA,NA,NA,happy,"unhappy, happy","less happy, more happy",NA,NA,NA,NA,NA,NA,NA,NA,NA,NA,NA,NA,NA,NA,NA,0,1,1,0,1,NA,NA,NA,NA,NA,NA,NA,NA,NA,NA,NA,NA,NA,NA,NA,NA,NA,NA,NA,NA,NA,NA,NA,NA,NA,NA,NA,NA
SUPAMT87285,338JKRMM2CYLVKYX870SLX3APTWAHD,4EBA2268-A981-4B02-9A3E-BF4CD2695931,2023-09-27_10h54.30.512,WP_VExplicitOC_LH,2022.2.5,Win32,5.333333333,92.10174029,4.26,2.157,NA,NA,NA,NA,NA,bored,"bored, not bored","more bored, less bored",NA,NA,NA,NA,NA,NA,NA,NA,NA,NA,NA,NA,NA,NA,NA,0,2,2,2,1,NA,NA,NA,NA,NA,NA,NA,NA,NA,NA,NA,NA,NA,NA,NA,NA,NA,NA,NA,NA,NA,NA,NA,NA,NA,NA,NA,NA
SUPAMT87285,338JKRMM2CYLVKYX870SLX3APTWAHD,4EBA2268-A981-4B02-9A3E-BF4CD2695931,2023-09-27_10h54.30.512,WP_VExplicitOC_LH,2022.2.5,Win32,5.333333333,NA,NA,NA,NA,NA,NA,NA,NA,NA,NA,NA,NA,NA,NA,NA,NA,NA,NA,NA,NA,NA,NA,NA,NA,NA,NA,NA,NA,NA,NA,NA,5,0,5,0,1,NA,NA,NA,NA,NA,NA,NA,NA,NA,NA,NA,NA,NA,NA,NA,NA,NA,NA,NA,NA,NA,NA,NA
SUPAMT87285,338JKRMM2CYLVKYX870SLX3APTWAHD,4EBA2268-A981-4B02-9A3E-BF4CD2695931,2023-09-27_10h54.30.512,WP_VExplicitOC_LH,2022.2.5,Win32,5.333333333,NA,NA,2.06,NA,NA,NA,NA,NA,bored,"bored, not bored","more bored, less bored",NA,NA,NA,NA,NA,NA,NA,NA,NA,NA,NA,NA,NA,NA,NA,0,0,0,2,1,NA,NA,NA,NA,NA,NA,NA,NA,NA,NA,NA,NA,NA,NA,NA,NA,NA,NA,NA,NA,NA,NA,NA,NA,NA,NA,NA,NA
SUPAMT87285,338JKRMM2CYLVKYX870SLX3APTWAHD,4EBA2268-A981-4B02-9A3E-BF4CD2695931,2023-09-27_10h54.30.512,WP_VExplicitOC_LH,2022.2.5,Win32,5.333333333,100,4.021,2.22,NA,NA,NA,NA,NA,frustrated,"frustrated, not frustrated","more frustrated, less frustrated",NA,NA,NA,NA,NA,NA,NA,NA,NA,NA,NA,NA,NA,NA,NA,0,1,1,1,1,NA,NA,NA,NA,NA,NA,NA,NA,NA,NA,NA,NA,NA,NA,NA,NA,NA,NA,NA,NA,NA,NA,NA,NA,NA,NA,NA,NA
SUPAMT87285,338JKRMM2CYLVKYX870SLX3APTWAHD,4EBA2268-A981-4B02-9A3E-BF4CD2695931,2023-09-27_10h54.30.512,WP_VExplicitOC_LH,2022.2.5,Win32,5.333333333,89.10309206,4.693,2.156,NA,NA,NA,NA,NA,happy,"unhappy, happy","less happy, more happy",NA,NA,NA,NA,NA,NA,NA,NA,NA,NA,NA,NA,NA,NA,NA,0,2,2,0,1,NA,NA,NA,NA,NA,NA,NA,NA,NA,NA,NA,NA,NA,NA,NA,NA,NA,NA,NA,NA,NA,NA,NA,NA,NA,NA,NA,NA
SUPAMT87285,338JKRMM2CYLVKYX870SLX3APTWAHD,4EBA2268-A981-4B02-9A3E-BF4CD2695931,2023-09-27_10h54.30.512,WP_VExplicitOC_LH,2022.2.5,Win32,5.333333333,NA,NA,NA,NA,NA,NA,NA,NA,NA,NA,NA,NA,NA,NA,NA,NA,NA,NA,NA,NA,NA,NA,NA,NA,NA,NA,NA,NA,NA,NA,NA,6,0,6,0,1,NA,NA,NA,NA,NA,NA,NA,NA,NA,NA,NA,NA,NA,NA,NA,NA,NA,NA,NA,NA,NA,NA,NA
SUPAMT87285,338JKRMM2CYLVKYX870SLX3APTWAHD,4EBA2268-A981-4B02-9A3E-BF4CD2695931,2023-09-27_10h54.30.512,WP_VExplicitOC_LH,2022.2.5,Win32,5.333333333,NA,NA,2.206,NA,NA,NA,NA,NA,frustrated,"frustrated, not frustrated","more frustrated, less frustrated",NA,NA,NA,NA,NA,NA,NA,NA,NA,NA,NA,NA,NA,NA,NA,0,0,0,1,1,NA,NA,NA,NA,NA,NA,NA,NA,NA,NA,NA,NA,NA,NA,NA,NA,NA,NA,NA,NA,NA,NA,NA,NA,NA,NA,NA,NA
SUPAMT87285,338JKRMM2CYLVKYX870SLX3APTWAHD,4EBA2268-A981-4B02-9A3E-BF4CD2695931,2023-09-27_10h54.30.512,WP_VExplicitOC_LH,2022.2.5,Win32,5.333333333,-47.76438109,5.002,2.198,NA,NA,NA,NA,NA,happy,"unhappy, happy","less happy, more happy",NA,NA,NA,NA,NA,NA,NA,NA,NA,NA,NA,NA,NA,NA,NA,0,1,1,0,1,NA,NA,NA,NA,NA,NA,NA,NA,NA,NA,NA,NA,NA,NA,NA,NA,NA,NA,NA,NA,NA,NA,NA,NA,NA,NA,NA,NA
SUPAMT87285,338JKRMM2CYLVKYX870SLX3APTWAHD,4EBA2268-A981-4B02-9A3E-BF4CD2695931,2023-09-27_10h54.30.512,WP_VExplicitOC_LH,2022.2.5,Win32,5.333333333,-49.47790838,4.019,2.12,NA,NA,NA,NA,NA,bored,"bored, not bored","more bored, less bored",NA,NA,NA,NA,NA,NA,NA,NA,NA,NA,NA,NA,NA,NA,NA,0,2,2,2,1,NA,NA,NA,NA,NA,NA,NA,NA,NA,NA,NA,NA,NA,NA,NA,NA,NA,NA,NA,NA,NA,NA,NA,NA,NA,NA,NA,NA
SUPAMT87285,338JKRMM2CYLVKYX870SLX3APTWAHD,4EBA2268-A981-4B02-9A3E-BF4CD2695931,2023-09-27_10h54.30.512,WP_VExplicitOC_LH,2022.2.5,Win32,5.333333333,NA,NA,NA,NA,NA,NA,NA,NA,NA,NA,NA,NA,NA,NA,NA,NA,NA,NA,NA,NA,NA,NA,NA,NA,NA,NA,NA,NA,NA,NA,NA,7,0,7,0,1,NA,NA,NA,NA,NA,NA,NA,NA,NA,NA,NA,NA,NA,NA,NA,NA,NA,NA,NA,NA,NA,NA,NA
SUPAMT87285,338JKRMM2CYLVKYX870SLX3APTWAHD,4EBA2268-A981-4B02-9A3E-BF4CD2695931,2023-09-27_10h54.30.512,WP_VExplicitOC_LH,2022.2.5,Win32,5.333333333,NA,NA,2.062,NA,NA,NA,NA,NA,frustrated,"frustrated, not frustrated","more frustrated, less frustrated",NA,NA,NA,NA,NA,NA,NA,NA,NA,NA,NA,NA,NA,NA,NA,0,0,0,1,1,NA,NA,NA,NA,NA,NA,NA,NA,NA,NA,NA,NA,NA,NA,NA,NA,NA,NA,NA,NA,NA,NA,NA,NA,NA,NA,NA,NA
SUPAMT87285,338JKRMM2CYLVKYX870SLX3APTWAHD,4EBA2268-A981-4B02-9A3E-BF4CD2695931,2023-09-27_10h54.30.512,WP_VExplicitOC_LH,2022.2.5,Win32,5.333333333,-53.54752343,5.92,2.139,NA,NA,NA,NA,NA,bored,"bored, not bored","more bored, less bored",NA,NA,NA,NA,NA,NA,NA,NA,NA,NA,NA,NA,NA,NA,NA,0,1,1,2,1,NA,NA,NA,NA,NA,NA,NA,NA,NA,NA,NA,NA,NA,NA,NA,NA,NA,NA,NA,NA,NA,NA,NA,NA,NA,NA,NA,NA
SUPAMT87285,338JKRMM2CYLVKYX870SLX3APTWAHD,4EBA2268-A981-4B02-9A3E-BF4CD2695931,2023-09-27_10h54.30.512,WP_VExplicitOC_LH,2022.2.5,Win32,5.333333333,-49.47790838,5.292,2.158,NA,NA,NA,NA,NA,happy,"unhappy, happy","less happy, more happy",NA,NA,NA,NA,NA,NA,NA,NA,NA,NA,NA,NA,NA,NA,NA,0,2,2,0,1,NA,NA,NA,NA,NA,NA,NA,NA,NA,NA,NA,NA,NA,NA,NA,NA,NA,NA,NA,NA,NA,NA,NA,NA,NA,NA,NA,NA
SUPAMT87285,338JKRMM2CYLVKYX870SLX3APTWAHD,4EBA2268-A981-4B02-9A3E-BF4CD2695931,2023-09-27_10h54.30.512,WP_VExplicitOC_LH,2022.2.5,Win32,5.333333333,NA,NA,NA,NA,NA,NA,NA,NA,NA,NA,NA,NA,NA,NA,NA,NA,NA,NA,NA,NA,NA,NA,NA,NA,NA,NA,NA,NA,NA,NA,NA,8,0,8,0,1,NA,NA,NA,NA,NA,NA,NA,NA,NA,NA,NA,NA,NA,NA,NA,NA,NA,NA,NA,NA,NA,NA,NA
SUPAMT87285,338JKRMM2CYLVKYX870SLX3APTWAHD,4EBA2268-A981-4B02-9A3E-BF4CD2695931,2023-09-27_10h54.30.512,WP_VExplicitOC_LH,2022.2.5,Win32,5.333333333,-25.48862442,6.66,2.118,NA,NA,NA,NA,NA,bored,"bored, not bored","more bored, less bored",NA,NA,NA,NA,NA,NA,NA,NA,NA,NA,NA,NA,NA,NA,NA,0,0,0,2,1,NA,NA,NA,NA,NA,NA,NA,NA,NA,NA,NA,NA,NA,NA,NA,NA,NA,NA,NA,NA,NA,NA,NA,NA,NA,NA,NA,NA
SUPAMT87285,338JKRMM2CYLVKYX870SLX3APTWAHD,4EBA2268-A981-4B02-9A3E-BF4CD2695931,2023-09-27_10h54.30.512,WP_VExplicitOC_LH,2022.2.5,Win32,5.333333333,-27.63052536,4.322,2.124,NA,NA,NA,NA,NA,frustrated,"frustrated, not frustrated","more frustrated, less frustrated",NA,NA,NA,NA,NA,NA,NA,NA,NA,NA,NA,NA,NA,NA,NA,0,1,1,1,1,NA,NA,NA,NA,NA,NA,NA,NA,NA,NA,NA,NA,NA,NA,NA,NA,NA,NA,NA,NA,NA,NA,NA,NA,NA,NA,NA,NA
SUPAMT87285,338JKRMM2CYLVKYX870SLX3APTWAHD,4EBA2268-A981-4B02-9A3E-BF4CD2695931,2023-09-27_10h54.30.512,WP_VExplicitOC_LH,2022.2.5,Win32,5.333333333,-23.56091031,5.974,2.016,NA,NA,NA,NA,NA,happy,"unhappy, happy","less happy, more happy",NA,NA,NA,NA,NA,NA,NA,NA,NA,NA,NA,NA,NA,NA,NA,0,2,2,0,1,NA,NA,NA,NA,NA,NA,NA,NA,NA,NA,NA,NA,NA,NA,NA,NA,NA,NA,NA,NA,NA,NA,NA,NA,NA,NA,NA,NA
SUPAMT87285,338JKRMM2CYLVKYX870SLX3APTWAHD,4EBA2268-A981-4B02-9A3E-BF4CD2695931,2023-09-27_10h54.30.512,WP_VExplicitOC_LH,2022.2.5,Win32,5.333333333,NA,NA,NA,NA,NA,NA,NA,NA,NA,NA,NA,NA,NA,NA,NA,NA,NA,NA,NA,NA,NA,NA,NA,NA,NA,NA,NA,NA,NA,NA,NA,9,0,9,0,1,NA,NA,NA,NA,NA,NA,NA,NA,NA,NA,NA,NA,NA,NA,NA,NA,NA,NA,NA,NA,NA,NA,NA
SUPAMT87285,338JKRMM2CYLVKYX870SLX3APTWAHD,4EBA2268-A981-4B02-9A3E-BF4CD2695931,2023-09-27_10h54.30.512,WP_VExplicitOC_LH,2022.2.5,Win32,5.333333333,NA,NA,2.25,NA,NA,NA,NA,NA,bored,"bored, not bored","more bored, less bored",NA,NA,NA,NA,NA,NA,NA,NA,NA,NA,NA,NA,NA,NA,NA,0,0,0,2,1,NA,NA,NA,NA,NA,NA,NA,NA,NA,NA,NA,NA,NA,NA,NA,NA,NA,NA,NA,NA,NA,NA,NA,NA,NA,NA,NA,NA
SUPAMT87285,338JKRMM2CYLVKYX870SLX3APTWAHD,4EBA2268-A981-4B02-9A3E-BF4CD2695931,2023-09-27_10h54.30.512,WP_VExplicitOC_LH,2022.2.5,Win32,5.333333333,54.19010024,5.592,2.13,NA,NA,NA,NA,NA,frustrated,"frustrated, not frustrated","more frustrated, less frustrated",NA,NA,NA,NA,NA,NA,NA,NA,NA,NA,NA,NA,NA,NA,NA,0,1,1,1,1,NA,NA,NA,NA,NA,NA,NA,NA,NA,NA,NA,NA,NA,NA,NA,NA,NA,NA,NA,NA,NA,NA,NA,NA,NA,NA,NA,NA
SUPAMT87285,338JKRMM2CYLVKYX870SLX3APTWAHD,4EBA2268-A981-4B02-9A3E-BF4CD2695931,2023-09-27_10h54.30.512,WP_VExplicitOC_LH,2022.2.5,Win32,5.333333333,46.05087015,3.475,2.188,NA,NA,NA,NA,NA,happy,"unhappy, happy","less happy, more happy",NA,NA,NA,NA,NA,NA,NA,NA,NA,NA,NA,NA,NA,NA,NA,0,2,2,0,1,NA,NA,NA,NA,NA,NA,NA,NA,NA,NA,NA,NA,NA,NA,NA,NA,NA,NA,NA,NA,NA,NA,NA,NA,NA,NA,NA,NA
SUPAMT87285,338JKRMM2CYLVKYX870SLX3APTWAHD,4EBA2268-A981-4B02-9A3E-BF4CD2695931,2023-09-27_10h54.30.512,WP_VExplicitOC_LH,2022.2.5,Win32,5.333333333,NA,NA,NA,NA,NA,NA,NA,NA,NA,NA,NA,NA,NA,NA,NA,NA,NA,NA,NA,NA,NA,NA,NA,NA,NA,NA,NA,NA,NA,NA,NA,10,0,10,0,1,NA,NA,NA,NA,NA,NA,NA,NA,NA,NA,NA,NA,NA,NA,NA,NA,NA,NA,NA,NA,NA,NA,NA
SUPAMT87285,338JKRMM2CYLVKYX870SLX3APTWAHD,4EBA2268-A981-4B02-9A3E-BF4CD2695931,2023-09-27_10h54.30.512,WP_VExplicitOC_LH,2022.2.5,Win32,5.333333333,71.32530774,4.495,2.109,NA,NA,NA,NA,NA,happy,"unhappy, happy","less happy, more happy",NA,NA,NA,NA,NA,NA,NA,NA,NA,NA,NA,NA,NA,NA,NA,0,0,0,0,1,NA,NA,NA,NA,NA,NA,NA,NA,NA,NA,NA,NA,NA,NA,NA,NA,NA,NA,NA,NA,NA,NA,NA,NA,NA,NA,NA,NA
SUPAMT87285,338JKRMM2CYLVKYX870SLX3APTWAHD,4EBA2268-A981-4B02-9A3E-BF4CD2695931,2023-09-27_10h54.30.512,WP_VExplicitOC_LH,2022.2.5,Win32,5.333333333,NA,NA,2.127,NA,NA,NA,NA,NA,bored,"bored, not bored","more bored, less bored",NA,NA,NA,NA,NA,NA,NA,NA,NA,NA,NA,NA,NA,NA,NA,0,1,1,2,1,NA,NA,NA,NA,NA,NA,NA,NA,NA,NA,NA,NA,NA,NA,NA,NA,NA,NA,NA,NA,NA,NA,NA,NA,NA,NA,NA,NA
SUPAMT87285,338JKRMM2CYLVKYX870SLX3APTWAHD,4EBA2268-A981-4B02-9A3E-BF4CD2695931,2023-09-27_10h54.30.512,WP_VExplicitOC_LH,2022.2.5,Win32,5.333333333,35.34136546,4.794,2.199,NA,NA,NA,NA,NA,frustrated,"frustrated, not frustrated","more frustrated, less frustrated",NA,NA,NA,NA,NA,NA,NA,NA,NA,NA,NA,NA,NA,NA,NA,0,2,2,1,1,NA,NA,NA,NA,NA,NA,NA,NA,NA,NA,NA,NA,NA,NA,NA,NA,NA,NA,NA,NA,NA,NA,NA,NA,NA,NA,NA,NA
SUPAMT87285,338JKRMM2CYLVKYX870SLX3APTWAHD,4EBA2268-A981-4B02-9A3E-BF4CD2695931,2023-09-27_10h54.30.512,WP_VExplicitOC_LH,2022.2.5,Win32,5.333333333,NA,NA,NA,NA,NA,NA,NA,NA,NA,NA,NA,NA,NA,NA,NA,NA,NA,NA,NA,NA,NA,NA,NA,NA,NA,NA,NA,NA,NA,NA,NA,11,0,11,0,1,NA,NA,NA,NA,NA,NA,NA,NA,NA,NA,NA,NA,NA,NA,NA,NA,NA,NA,NA,NA,NA,NA,NA
SUPAMT87285,338JKRMM2CYLVKYX870SLX3APTWAHD,4EBA2268-A981-4B02-9A3E-BF4CD2695931,2023-09-27_10h54.30.512,WP_VExplicitOC_LH,2022.2.5,Win32,5.333333333,NA,NA,2.11,NA,NA,NA,NA,NA,frustrated,"frustrated, not frustrated","more frustrated, less frustrated",NA,NA,NA,NA,NA,NA,NA,NA,NA,NA,NA,NA,NA,NA,NA,0,0,0,1,1,NA,NA,NA,NA,NA,NA,NA,NA,NA,NA,NA,NA,NA,NA,NA,NA,NA,NA,NA,NA,NA,NA,NA,NA,NA,NA,NA,NA
SUPAMT87285,338JKRMM2CYLVKYX870SLX3APTWAHD,4EBA2268-A981-4B02-9A3E-BF4CD2695931,2023-09-27_10h54.30.512,WP_VExplicitOC_LH,2022.2.5,Win32,5.333333333,100,4.489,2.134,NA,NA,NA,NA,NA,happy,"unhappy, happy","less happy, more happy",NA,NA,NA,NA,NA,NA,NA,NA,NA,NA,NA,NA,NA,NA,NA,0,1,1,0,1,NA,NA,NA,NA,NA,NA,NA,NA,NA,NA,NA,NA,NA,NA,NA,NA,NA,NA,NA,NA,NA,NA,NA,NA,NA,NA,NA,NA
SUPAMT87285,338JKRMM2CYLVKYX870SLX3APTWAHD,4EBA2268-A981-4B02-9A3E-BF4CD2695931,2023-09-27_10h54.30.512,WP_VExplicitOC_LH,2022.2.5,Win32,5.333333333,73.25300551,4.365,2.177,NA,NA,NA,NA,NA,bored,"bored, not bored","more bored, less bored",NA,NA,NA,NA,NA,NA,NA,NA,NA,NA,NA,NA,NA,NA,NA,0,2,2,2,1,NA,NA,NA,NA,NA,NA,NA,NA,NA,NA,NA,NA,NA,NA,NA,NA,NA,NA,NA,NA,NA,NA,NA,NA,NA,NA,NA,NA
SUPAMT87285,338JKRMM2CYLVKYX870SLX3APTWAHD,4EBA2268-A981-4B02-9A3E-BF4CD2695931,2023-09-27_10h54.30.512,WP_VExplicitOC_LH,2022.2.5,Win32,5.333333333,NA,NA,NA,NA,NA,NA,NA,NA,NA,NA,NA,NA,NA,NA,NA,NA,NA,NA,NA,NA,NA,NA,NA,NA,NA,NA,NA,NA,NA,NA,NA,12,0,12,0,1,NA,NA,NA,NA,NA,NA,NA,NA,NA,NA,NA,NA,NA,NA,NA,NA,NA,NA,NA,NA,NA,NA,NA
SUPAMT87285,338JKRMM2CYLVKYX870SLX3APTWAHD,4EBA2268-A981-4B02-9A3E-BF4CD2695931,2023-09-27_10h54.30.512,WP_VExplicitOC_LH,2022.2.5,Win32,5.333333333,47.33600744,5.306,2.086,NA,NA,NA,NA,NA,happy,"unhappy, happy","less happy, more happy",NA,NA,NA,NA,NA,NA,NA,NA,NA,NA,NA,NA,NA,NA,NA,0,0,0,0,1,NA,NA,NA,NA,NA,NA,NA,NA,NA,NA,NA,NA,NA,NA,NA,NA,NA,NA,NA,NA,NA,NA,NA,NA,NA,NA,NA,NA
SUPAMT87285,338JKRMM2CYLVKYX870SLX3APTWAHD,4EBA2268-A981-4B02-9A3E-BF4CD2695931,2023-09-27_10h54.30.512,WP_VExplicitOC_LH,2022.2.5,Win32,5.333333333,55.47523754,3.691,2.221,NA,NA,NA,NA,NA,bored,"bored, not bored","more bored, less bored",NA,NA,NA,NA,NA,NA,NA,NA,NA,NA,NA,NA,NA,NA,NA,0,1,1,2,1,NA,NA,NA,NA,NA,NA,NA,NA,NA,NA,NA,NA,NA,NA,NA,NA,NA,NA,NA,NA,NA,NA,NA,NA,NA,NA,NA,NA
SUPAMT87285,338JKRMM2CYLVKYX870SLX3APTWAHD,4EBA2268-A981-4B02-9A3E-BF4CD2695931,2023-09-27_10h54.30.512,WP_VExplicitOC_LH,2022.2.5,Win32,5.333333333,85.89024065,3.873,2.182,NA,NA,NA,NA,NA,frustrated,"frustrated, not frustrated","more frustrated, less frustrated",NA,NA,NA,NA,NA,NA,NA,NA,NA,NA,NA,NA,NA,NA,NA,0,2,2,1,1,NA,NA,NA,NA,NA,NA,NA,NA,NA,NA,NA,NA,NA,NA,NA,NA,NA,NA,NA,NA,NA,NA,NA,NA,NA,NA,NA,NA
SUPAMT87285,338JKRMM2CYLVKYX870SLX3APTWAHD,4EBA2268-A981-4B02-9A3E-BF4CD2695931,2023-09-27_10h54.30.512,WP_VExplicitOC_LH,2022.2.5,Win32,5.333333333,NA,NA,NA,NA,NA,NA,NA,NA,NA,NA,NA,NA,NA,NA,NA,NA,NA,NA,NA,NA,NA,NA,NA,NA,NA,NA,NA,NA,NA,NA,NA,13,0,13,0,1,NA,NA,NA,NA,NA,NA,NA,NA,NA,NA,NA,NA,NA,NA,NA,NA,NA,NA,NA,NA,NA,NA,NA
SUPAMT87285,338JKRMM2CYLVKYX870SLX3APTWAHD,4EBA2268-A981-4B02-9A3E-BF4CD2695931,2023-09-27_10h54.30.512,WP_VExplicitOC_LH,2022.2.5,Win32,5.333333333,NA,NA,2.185,NA,NA,NA,NA,NA,happy,"unhappy, happy","less happy, more happy",NA,NA,NA,NA,NA,NA,NA,NA,NA,NA,NA,NA,NA,NA,NA,0,0,0,0,1,NA,NA,NA,NA,NA,NA,NA,NA,NA,NA,NA,NA,NA,NA,NA,NA,NA,NA,NA,NA,NA,NA,NA,NA,NA,NA,NA,NA
SUPAMT87285,338JKRMM2CYLVKYX870SLX3APTWAHD,4EBA2268-A981-4B02-9A3E-BF4CD2695931,2023-09-27_10h54.30.512,WP_VExplicitOC_LH,2022.2.5,Win32,5.333333333,100,3.911,2.192,NA,NA,NA,NA,NA,frustrated,"frustrated, not frustrated","more frustrated, less frustrated",NA,NA,NA,NA,NA,NA,NA,NA,NA,NA,NA,NA,NA,NA,NA,0,1,1,1,1,NA,NA,NA,NA,NA,NA,NA,NA,NA,NA,NA,NA,NA,NA,NA,NA,NA,NA,NA,NA,NA,NA,NA,NA,NA,NA,NA,NA
SUPAMT87285,338JKRMM2CYLVKYX870SLX3APTWAHD,4EBA2268-A981-4B02-9A3E-BF4CD2695931,2023-09-27_10h54.30.512,WP_VExplicitOC_LH,2022.2.5,Win32,5.333333333,58.90227577,3.766,2.123,NA,NA,NA,NA,NA,bored,"bored, not bored","more bored, less bored",NA,NA,NA,NA,NA,NA,NA,NA,NA,NA,NA,NA,NA,NA,NA,0,2,2,2,1,NA,NA,NA,NA,NA,NA,NA,NA,NA,NA,NA,NA,NA,NA,NA,NA,NA,NA,NA,NA,NA,NA,NA,NA,NA,NA,NA,NA
SUPAMT87285,338JKRMM2CYLVKYX870SLX3APTWAHD,4EBA2268-A981-4B02-9A3E-BF4CD2695931,2023-09-27_10h54.30.512,WP_VExplicitOC_LH,2022.2.5,Win32,5.333333333,NA,NA,NA,NA,NA,NA,NA,NA,NA,NA,NA,NA,NA,NA,NA,NA,NA,NA,NA,NA,NA,NA,NA,NA,NA,NA,NA,NA,NA,NA,NA,14,0,14,0,1,NA,NA,NA,NA,NA,NA,NA,NA,NA,NA,NA,NA,NA,NA,NA,NA,NA,NA,NA,NA,NA,NA,NA
SUPAMT87285,338JKRMM2CYLVKYX870SLX3APTWAHD,4EBA2268-A981-4B02-9A3E-BF4CD2695931,2023-09-27_10h54.30.512,WP_VExplicitOC_LH,2022.2.5,Win32,5.333333333,NA,NA,NA,NA,NA,NA,NA,NA,NA,NA,NA,NA,NA,NA,NA,NA,NA,NA,NA,NA,NA,NA,NA,NA,NA,NA,NA,NA,NA,NA,NA,NA,NA,NA,NA,NA,NA,NA,NA,NA,NA,NA,NA,NA,NA,NA,NA,NA,NA,NA,NA,NA,NA,NA,NA,NA,NA,NA,NA
SUPAMT87285,338JKRMM2CYLVKYX870SLX3APTWAHD,4EBA2268-A981-4B02-9A3E-BF4CD2695931,2023-09-27_10h54.30.512,WP_VExplicitOC_LH,2022.2.5,Win32,5.333333333,NA,NA,NA,NA,NA,NA,NA,NA,NA,NA,NA,NA,NA,NA,NA,NA,NA,NA,NA,NA,NA,NA,NA,NA,NA,NA,NA,NA,NA,NA,NA,NA,NA,NA,NA,NA,NA,NA,NA,NA,NA,NA,NA,NA,NA,NA,NA,NA,NA,NA,NA,NA,NA,NA,NA,NA,NA,NA,NA
SUPAMT87285,338JKRMM2CYLVKYX870SLX3APTWAHD,4EBA2268-A981-4B02-9A3E-BF4CD2695931,2023-09-27_10h54.30.512,WP_VExplicitOC_LH,2022.2.5,Win32,5.333333333,NA,NA,NA,NA,NA,NA,NA,NA,NA,NA,NA,NA,NA,NA,NA,NA,NA,NA,rest (looking at a fixed cross),001.png,NA,NA,NA,NA,NA,NA,NA,NA,NA,NA,NA,NA,NA,NA,NA,NA,83.9625102,4.057,0,0,0,0,1,NA,NA,NA,NA,NA,NA,NA,NA,NA,NA,NA,NA,NA,NA,NA,NA
SUPAMT87285,338JKRMM2CYLVKYX870SLX3APTWAHD,4EBA2268-A981-4B02-9A3E-BF4CD2695931,2023-09-27_10h54.30.512,WP_VExplicitOC_LH,2022.2.5,Win32,5.333333333,NA,NA,NA,NA,NA,NA,NA,NA,NA,NA,NA,NA,NA,NA,NA,NA,NA,NA,stand up,002.png,NA,NA,NA,NA,NA,NA,NA,NA,NA,NA,NA,NA,NA,NA,NA,NA,93.60106441,2.81,0,1,1,1,1,NA,NA,NA,NA,NA,NA,NA,NA,NA,NA,NA,NA,NA,NA,NA,NA
SUPAMT87285,338JKRMM2CYLVKYX870SLX3APTWAHD,4EBA2268-A981-4B02-9A3E-BF4CD2695931,2023-09-27_10h54.30.512,WP_VExplicitOC_LH,2022.2.5,Win32,5.333333333,NA,NA,NA,NA,NA,NA,NA,NA,NA,NA,NA,NA,NA,NA,NA,NA,NA,NA,stretch,003.png,NA,NA,NA,NA,NA,NA,NA,NA,NA,NA,NA,NA,NA,NA,NA,NA,100,2.415,0,2,2,2,1,NA,NA,NA,NA,NA,NA,NA,NA,NA,NA,NA,NA,NA,NA,NA,NA
SUPAMT87285,338JKRMM2CYLVKYX870SLX3APTWAHD,4EBA2268-A981-4B02-9A3E-BF4CD2695931,2023-09-27_10h54.30.512,WP_VExplicitOC_LH,2022.2.5,Win32,5.333333333,NA,NA,NA,NA,NA,NA,NA,NA,NA,NA,NA,NA,NA,NA,NA,NA,NA,NA,make a drink,004.png,NA,NA,NA,NA,NA,NA,NA,NA,NA,NA,NA,NA,NA,NA,NA,NA,100,2.209,0,3,3,3,1,NA,NA,NA,NA,NA,NA,NA,NA,NA,NA,NA,NA,NA,NA,NA,NA
SUPAMT87285,338JKRMM2CYLVKYX870SLX3APTWAHD,4EBA2268-A981-4B02-9A3E-BF4CD2695931,2023-09-27_10h54.30.512,WP_VExplicitOC_LH,2022.2.5,Win32,5.333333333,NA,NA,NA,NA,NA,NA,NA,NA,NA,NA,NA,NA,NA,NA,NA,NA,NA,NA,scroll social media,005.png,NA,NA,NA,NA,NA,NA,NA,NA,NA,NA,NA,NA,NA,NA,NA,NA,97.6706958,2.429,0,4,4,4,1,NA,NA,NA,NA,NA,NA,NA,NA,NA,NA,NA,NA,NA,NA,NA,NA
SUPAMT87285,338JKRMM2CYLVKYX870SLX3APTWAHD,4EBA2268-A981-4B02-9A3E-BF4CD2695931,2023-09-27_10h54.30.512,WP_VExplicitOC_LH,2022.2.5,Win32,5.333333333,NA,NA,NA,NA,NA,NA,NA,NA,NA,NA,NA,NA,NA,NA,NA,NA,NA,NA,listen to music,006.png,NA,NA,NA,NA,NA,NA,NA,NA,NA,NA,NA,NA,NA,NA,NA,NA,100,2.205,0,5,5,5,1,NA,NA,NA,NA,NA,NA,NA,NA,NA,NA,NA,NA,NA,NA,NA,NA
SUPAMT87285,338JKRMM2CYLVKYX870SLX3APTWAHD,4EBA2268-A981-4B02-9A3E-BF4CD2695931,2023-09-27_10h54.30.512,WP_VExplicitOC_LH,2022.2.5,Win32,5.333333333,NA,NA,NA,NA,NA,NA,NA,NA,NA,NA,NA,NA,NA,NA,NA,NA,NA,NA,daydream,007.png,NA,NA,NA,NA,NA,NA,NA,NA,NA,NA,NA,NA,NA,NA,NA,NA,NA,NA,0,6,6,6,1,NA,NA,NA,NA,NA,NA,NA,NA,NA,NA,NA,NA,NA,NA,NA,NA
SUPAMT87285,338JKRMM2CYLVKYX870SLX3APTWAHD,4EBA2268-A981-4B02-9A3E-BF4CD2695931,2023-09-27_10h54.30.512,WP_VExplicitOC_LH,2022.2.5,Win32,5.333333333,NA,NA,NA,NA,NA,NA,NA,NA,NA,NA,NA,NA,NA,NA,NA,NA,NA,NA,watch a short animation,008.png,NA,NA,NA,NA,NA,NA,NA,NA,NA,NA,NA,NA,NA,NA,NA,NA,-7.068263288,3.111,0,7,7,7,1,NA,NA,NA,NA,NA,NA,NA,NA,NA,NA,NA,NA,NA,NA,NA,NA
SUPAMT87285,338JKRMM2CYLVKYX870SLX3APTWAHD,4EBA2268-A981-4B02-9A3E-BF4CD2695931,2023-09-27_10h54.30.512,WP_VExplicitOC_LH,2022.2.5,Win32,5.333333333,NA,NA,NA,NA,NA,NA,NA,NA,NA,NA,NA,NA,NA,NA,NA,NA,NA,NA,read a novel,009.png,NA,NA,NA,NA,NA,NA,NA,NA,NA,NA,NA,NA,NA,NA,NA,NA,53.11914978,1.1,0,8,8,8,1,NA,NA,NA,NA,NA,NA,NA,NA,NA,NA,NA,NA,NA,NA,NA,NA
SUPAMT87285,338JKRMM2CYLVKYX870SLX3APTWAHD,4EBA2268-A981-4B02-9A3E-BF4CD2695931,2023-09-27_10h54.30.512,WP_VExplicitOC_LH,2022.2.5,Win32,5.333333333,NA,NA,NA,NA,NA,NA,NA,NA,NA,NA,NA,NA,NA,NA,NA,NA,NA,NA,read the news,010.png,NA,NA,NA,NA,NA,NA,NA,NA,NA,NA,NA,NA,NA,NA,NA,NA,75.60910962,1.944,0,9,9,9,1,NA,NA,NA,NA,NA,NA,NA,NA,NA,NA,NA,NA,NA,NA,NA,NA
SUPAMT87285,338JKRMM2CYLVKYX870SLX3APTWAHD,4EBA2268-A981-4B02-9A3E-BF4CD2695931,2023-09-27_10h54.30.512,WP_VExplicitOC_LH,2022.2.5,Win32,5.333333333,NA,NA,NA,NA,NA,NA,NA,NA,NA,NA,NA,NA,NA,NA,NA,NA,NA,NA,NA,NA,NA,NA,NA,NA,NA,NA,NA,NA,NA,NA,NA,NA,NA,NA,NA,NA,NA,NA,NA,NA,NA,NA,NA,stretch,NA,NA,NA,NA,NA,NA,NA,NA,NA,NA,NA,NA,NA,NA,NA
SUPAMT87285,338JKRMM2CYLVKYX870SLX3APTWAHD,4EBA2268-A981-4B02-9A3E-BF4CD2695931,2023-09-27_10h54.30.512,WP_VExplicitOC_LH,2022.2.5,Win32,5.333333333,1.499340461,4.257,2.156,NA,NA,NA,NA,NA,bored,"bored, not bored","more bored, less bored",NA,NA,NA,NA,NA,NA,NA,NA,NA,NA,NA,NA,NA,NA,NA,NA,NA,NA,NA,NA,NA,NA,NA,NA,NA,NA,NA,NA,NA,NA,NA,NA,NA,0,0,0,2,1,NA,NA,NA,NA,NA,NA,NA,NA,NA,NA
SUPAMT87285,338JKRMM2CYLVKYX870SLX3APTWAHD,4EBA2268-A981-4B02-9A3E-BF4CD2695931,2023-09-27_10h54.30.512,WP_VExplicitOC_LH,2022.2.5,Win32,5.333333333,98.74164627,3.828,2.131,NA,NA,NA,NA,NA,frustrated,"frustrated, not frustrated","more frustrated, less frustrated",NA,NA,NA,NA,NA,NA,NA,NA,NA,NA,NA,NA,NA,NA,NA,NA,NA,NA,NA,NA,NA,NA,NA,NA,NA,NA,NA,NA,NA,NA,NA,NA,NA,0,1,1,1,1,NA,NA,NA,NA,NA,NA,NA,NA,NA,NA
SUPAMT87285,338JKRMM2CYLVKYX870SLX3APTWAHD,4EBA2268-A981-4B02-9A3E-BF4CD2695931,2023-09-27_10h54.30.512,WP_VExplicitOC_LH,2022.2.5,Win32,5.333333333,92.95852028,5.143,2.116,NA,NA,NA,NA,NA,happy,"unhappy, happy","less happy, more happy",NA,NA,NA,NA,NA,NA,NA,NA,NA,NA,NA,NA,NA,NA,NA,NA,NA,NA,NA,NA,NA,NA,NA,NA,NA,NA,NA,NA,NA,NA,NA,NA,NA,0,2,2,0,1,NA,NA,NA,NA,NA,NA,NA,NA,NA,NA
SUPAMT87285,338JKRMM2CYLVKYX870SLX3APTWAHD,4EBA2268-A981-4B02-9A3E-BF4CD2695931,2023-09-27_10h54.30.512,WP_VExplicitOC_LH,2022.2.5,Win32,5.333333333,NA,NA,NA,NA,NA,NA,NA,NA,NA,NA,NA,NA,NA,NA,NA,NA,NA,NA,NA,NA,NA,NA,NA,NA,NA,NA,NA,NA,NA,NA,NA,NA,NA,NA,NA,NA,NA,NA,NA,NA,NA,NA,NA,NA,NA,NA,NA,NA,NA,NA,NA,NA,NA,NA,NA,NA,NA,NA,NA
SUPAMT87285,338JKRMM2CYLVKYX870SLX3APTWAHD,4EBA2268-A981-4B02-9A3E-BF4CD2695931,2023-09-27_10h54.30.512,WP_VExplicitOC_LH,2022.2.5,Win32,5.333333333,NA,NA,NA,NA,NA,NA,NA,NA,NA,NA,NA,NA,NA,NA,NA,NA,NA,NA,NA,NA,NA,NA,NA,NA,NA,NA,NA,NA,NA,NA,NA,NA,NA,NA,NA,NA,NA,NA,NA,NA,NA,NA,NA,NA,NA,NA,NA,NA,NA,NA,NA,NA,NA,NA,NA,NA,NA,NA,NA
SUPAMT87285,338JKRMM2CYLVKYX870SLX3APTWAHD,4EBA2268-A981-4B02-9A3E-BF4CD2695931,2023-09-27_10h54.30.512,WP_VExplicitOC_LH,2022.2.5,Win32,5.333333333,100,4.431,2.078,NA,NA,NA,NA,NA,bored,"bored, not bored","more bored, less bored",NA,NA,NA,NA,NA,NA,NA,NA,NA,NA,NA,NA,NA,NA,NA,NA,NA,NA,NA,NA,NA,NA,NA,NA,NA,NA,NA,NA,NA,NA,NA,NA,NA,NA,NA,NA,NA,NA,0,0,0,2,1,NA,NA,NA,NA,NA
SUPAMT87285,338JKRMM2CYLVKYX870SLX3APTWAHD,4EBA2268-A981-4B02-9A3E-BF4CD2695931,2023-09-27_10h54.30.512,WP_VExplicitOC_LH,2022.2.5,Win32,5.333333333,77.10843373,3.54,2.105,NA,NA,NA,NA,NA,happy,"unhappy, happy","less happy, more happy",NA,NA,NA,NA,NA,NA,NA,NA,NA,NA,NA,NA,NA,NA,NA,NA,NA,NA,NA,NA,NA,NA,NA,NA,NA,NA,NA,NA,NA,NA,NA,NA,NA,NA,NA,NA,NA,NA,0,1,1,0,1,NA,NA,NA,NA,NA
SUPAMT87285,338JKRMM2CYLVKYX870SLX3APTWAHD,4EBA2268-A981-4B02-9A3E-BF4CD2695931,2023-09-27_10h54.30.512,WP_VExplicitOC_LH,2022.2.5,Win32,5.333333333,83.74833971,3.661,2.172,NA,NA,NA,NA,NA,frustrated,"frustrated, not frustrated","more frustrated, less frustrated",NA,NA,NA,NA,NA,NA,NA,NA,NA,NA,NA,NA,NA,NA,NA,NA,NA,NA,NA,NA,NA,NA,NA,NA,NA,NA,NA,NA,NA,NA,NA,NA,NA,NA,NA,NA,NA,NA,0,2,2,1,1,NA,NA,NA,NA,NA
SUPAMT87285,338JKRMM2CYLVKYX870SLX3APTWAHD,4EBA2268-A981-4B02-9A3E-BF4CD2695931,2023-09-27_10h54.30.512,WP_VExplicitOC_LH,2022.2.5,Win32,5.333333333,NA,NA,NA,NA,NA,NA,NA,NA,NA,NA,NA,NA,NA,NA,NA,NA,NA,NA,NA,NA,NA,NA,NA,NA,NA,NA,NA,NA,NA,NA,NA,NA,NA,NA,NA,NA,NA,NA,NA,NA,NA,NA,NA,NA,NA,NA,NA,NA,NA,NA,NA,NA,NA,NA,0,0,0,0,1
SUPAMT87285,338JKRMM2CYLVKYX870SLX3APTWAHD,4EBA2268-A981-4B02-9A3E-BF4CD2695931,2023-09-27_10h54.30.512,WP_VExplicitOC_LH,2022.2.5,Win32,5.333333333,82.46318608,4.401,2.222,NA,NA,NA,NA,NA,frustrated,"frustrated, not frustrated","more frustrated, less frustrated",NA,NA,NA,NA,NA,NA,NA,NA,NA,NA,NA,NA,NA,NA,NA,NA,NA,NA,NA,NA,NA,NA,NA,NA,NA,NA,NA,NA,NA,NA,NA,NA,NA,NA,NA,NA,NA,NA,0,0,0,1,1,NA,NA,NA,NA,NA
SUPAMT87285,338JKRMM2CYLVKYX870SLX3APTWAHD,4EBA2268-A981-4B02-9A3E-BF4CD2695931,2023-09-27_10h54.30.512,WP_VExplicitOC_LH,2022.2.5,Win32,5.333333333,95.95716852,5.855,2.159,NA,NA,NA,NA,NA,happy,"unhappy, happy","less happy, more happy",NA,NA,NA,NA,NA,NA,NA,NA,NA,NA,NA,NA,NA,NA,NA,NA,NA,NA,NA,NA,NA,NA,NA,NA,NA,NA,NA,NA,NA,NA,NA,NA,NA,NA,NA,NA,NA,NA,0,1,1,0,1,NA,NA,NA,NA,NA
SUPAMT87285,338JKRMM2CYLVKYX870SLX3APTWAHD,4EBA2268-A981-4B02-9A3E-BF4CD2695931,2023-09-27_10h54.30.512,WP_VExplicitOC_LH,2022.2.5,Win32,5.333333333,95.95716852,3.725,2.069,NA,NA,NA,NA,NA,bored,"bored, not bored","more bored, less bored",NA,NA,NA,NA,NA,NA,NA,NA,NA,NA,NA,NA,NA,NA,NA,NA,NA,NA,NA,NA,NA,NA,NA,NA,NA,NA,NA,NA,NA,NA,NA,NA,NA,NA,NA,NA,NA,NA,0,2,2,2,1,NA,NA,NA,NA,NA
SUPAMT87285,338JKRMM2CYLVKYX870SLX3APTWAHD,4EBA2268-A981-4B02-9A3E-BF4CD2695931,2023-09-27_10h54.30.512,WP_VExplicitOC_LH,2022.2.5,Win32,5.333333333,NA,NA,NA,NA,NA,NA,NA,NA,NA,NA,NA,NA,NA,NA,NA,NA,NA,NA,NA,NA,NA,NA,NA,NA,NA,NA,NA,NA,NA,NA,NA,NA,NA,NA,NA,NA,NA,NA,NA,NA,NA,NA,NA,NA,NA,NA,NA,NA,NA,NA,NA,NA,NA,NA,1,0,1,0,1
SUPAMT87285,338JKRMM2CYLVKYX870SLX3APTWAHD,4EBA2268-A981-4B02-9A3E-BF4CD2695931,2023-09-27_10h54.30.512,WP_VExplicitOC_LH,2022.2.5,Win32,5.333333333,NA,NA,2.01,NA,NA,NA,NA,NA,happy,"unhappy, happy","less happy, more happy",NA,NA,NA,NA,NA,NA,NA,NA,NA,NA,NA,NA,NA,NA,NA,NA,NA,NA,NA,NA,NA,NA,NA,NA,NA,NA,NA,NA,NA,NA,NA,NA,NA,NA,NA,NA,NA,NA,0,0,0,0,1,NA,NA,NA,NA,NA
SUPAMT87285,338JKRMM2CYLVKYX870SLX3APTWAHD,4EBA2268-A981-4B02-9A3E-BF4CD2695931,2023-09-27_10h54.30.512,WP_VExplicitOC_LH,2022.2.5,Win32,5.333333333,NA,NA,2.087,NA,NA,NA,NA,NA,bored,"bored, not bored","more bored, less bored",NA,NA,NA,NA,NA,NA,NA,NA,NA,NA,NA,NA,NA,NA,NA,NA,NA,NA,NA,NA,NA,NA,NA,NA,NA,NA,NA,NA,NA,NA,NA,NA,NA,NA,NA,NA,NA,NA,0,1,1,2,1,NA,NA,NA,NA,NA
SUPAMT87285,338JKRMM2CYLVKYX870SLX3APTWAHD,4EBA2268-A981-4B02-9A3E-BF4CD2695931,2023-09-27_10h54.30.512,WP_VExplicitOC_LH,2022.2.5,Win32,5.333333333,90.81661934,3.861,2.14,NA,NA,NA,NA,NA,frustrated,"frustrated, not frustrated","more frustrated, less frustrated",NA,NA,NA,NA,NA,NA,NA,NA,NA,NA,NA,NA,NA,NA,NA,NA,NA,NA,NA,NA,NA,NA,NA,NA,NA,NA,NA,NA,NA,NA,NA,NA,NA,NA,NA,NA,NA,NA,0,2,2,1,1,NA,NA,NA,NA,NA
SUPAMT87285,338JKRMM2CYLVKYX870SLX3APTWAHD,4EBA2268-A981-4B02-9A3E-BF4CD2695931,2023-09-27_10h54.30.512,WP_VExplicitOC_LH,2022.2.5,Win32,5.333333333,NA,NA,NA,NA,NA,NA,NA,NA,NA,NA,NA,NA,NA,NA,NA,NA,NA,NA,NA,NA,NA,NA,NA,NA,NA,NA,NA,NA,NA,NA,NA,NA,NA,NA,NA,NA,NA,NA,NA,NA,NA,NA,NA,NA,NA,NA,NA,NA,NA,NA,NA,NA,NA,NA,2,0,2,0,1
SUPAMT87285,338JKRMM2CYLVKYX870SLX3APTWAHD,4EBA2268-A981-4B02-9A3E-BF4CD2695931,2023-09-27_10h54.30.512,WP_VExplicitOC_LH,2022.2.5,Win32,5.333333333,NA,NA,2.058,NA,NA,NA,NA,NA,frustrated,"frustrated, not frustrated","more frustrated, less frustrated",NA,NA,NA,NA,NA,NA,NA,NA,NA,NA,NA,NA,NA,NA,NA,NA,NA,NA,NA,NA,NA,NA,NA,NA,NA,NA,NA,NA,NA,NA,NA,NA,NA,NA,NA,NA,NA,NA,0,0,0,1,1,NA,NA,NA,NA,NA
SUPAMT87285,338JKRMM2CYLVKYX870SLX3APTWAHD,4EBA2268-A981-4B02-9A3E-BF4CD2695931,2023-09-27_10h54.30.512,WP_VExplicitOC_LH,2022.2.5,Win32,5.333333333,82.67738924,6.006,2.155,NA,NA,NA,NA,NA,bored,"bored, not bored","more bored, less bored",NA,NA,NA,NA,NA,NA,NA,NA,NA,NA,NA,NA,NA,NA,NA,NA,NA,NA,NA,NA,NA,NA,NA,NA,NA,NA,NA,NA,NA,NA,NA,NA,NA,NA,NA,NA,NA,NA,0,1,1,2,1,NA,NA,NA,NA,NA
SUPAMT87285,338JKRMM2CYLVKYX870SLX3APTWAHD,4EBA2268-A981-4B02-9A3E-BF4CD2695931,2023-09-27_10h54.30.512,WP_VExplicitOC_LH,2022.2.5,Win32,5.333333333,83.53413655,4.677,2.164,NA,NA,NA,NA,NA,happy,"unhappy, happy","less happy, more happy",NA,NA,NA,NA,NA,NA,NA,NA,NA,NA,NA,NA,NA,NA,NA,NA,NA,NA,NA,NA,NA,NA,NA,NA,NA,NA,NA,NA,NA,NA,NA,NA,NA,NA,NA,NA,NA,NA,0,2,2,0,1,NA,NA,NA,NA,NA
SUPAMT87285,338JKRMM2CYLVKYX870SLX3APTWAHD,4EBA2268-A981-4B02-9A3E-BF4CD2695931,2023-09-27_10h54.30.512,WP_VExplicitOC_LH,2022.2.5,Win32,5.333333333,NA,NA,NA,NA,NA,NA,NA,NA,NA,NA,NA,NA,NA,NA,NA,NA,NA,NA,NA,NA,NA,NA,NA,NA,NA,NA,NA,NA,NA,NA,NA,NA,NA,NA,NA,NA,NA,NA,NA,NA,NA,NA,NA,NA,NA,NA,NA,NA,NA,NA,NA,NA,NA,NA,3,0,3,0,1
SUPAMT87285,338JKRMM2CYLVKYX870SLX3APTWAHD,4EBA2268-A981-4B02-9A3E-BF4CD2695931,2023-09-27_10h54.30.512,WP_VExplicitOC_LH,2022.2.5,Win32,5.333333333,99.81259674,7.36,2.155,NA,NA,NA,NA,NA,bored,"bored, not bored","more bored, less bored",NA,NA,NA,NA,NA,NA,NA,NA,NA,NA,NA,NA,NA,NA,NA,NA,NA,NA,NA,NA,NA,NA,NA,NA,NA,NA,NA,NA,NA,NA,NA,NA,NA,NA,NA,NA,NA,NA,0,0,0,2,1,NA,NA,NA,NA,NA
SUPAMT87285,338JKRMM2CYLVKYX870SLX3APTWAHD,4EBA2268-A981-4B02-9A3E-BF4CD2695931,2023-09-27_10h54.30.512,WP_VExplicitOC_LH,2022.2.5,Win32,5.333333333,89.95983936,3.706,2.179,NA,NA,NA,NA,NA,frustrated,"frustrated, not frustrated","more frustrated, less frustrated",NA,NA,NA,NA,NA,NA,NA,NA,NA,NA,NA,NA,NA,NA,NA,NA,NA,NA,NA,NA,NA,NA,NA,NA,NA,NA,NA,NA,NA,NA,NA,NA,NA,NA,NA,NA,NA,NA,0,1,1,1,1,NA,NA,NA,NA,NA
SUPAMT87285,338JKRMM2CYLVKYX870SLX3APTWAHD,4EBA2268-A981-4B02-9A3E-BF4CD2695931,2023-09-27_10h54.30.512,WP_VExplicitOC_LH,2022.2.5,Win32,5.333333333,96.38554217,4.423,2.111,NA,NA,NA,NA,NA,happy,"unhappy, happy","less happy, more happy",NA,NA,NA,NA,NA,NA,NA,NA,NA,NA,NA,NA,NA,NA,NA,NA,NA,NA,NA,NA,NA,NA,NA,NA,NA,NA,NA,NA,NA,NA,NA,NA,NA,NA,NA,NA,NA,NA,0,2,2,0,1,NA,NA,NA,NA,NA
SUPAMT87285,338JKRMM2CYLVKYX870SLX3APTWAHD,4EBA2268-A981-4B02-9A3E-BF4CD2695931,2023-09-27_10h54.30.512,WP_VExplicitOC_LH,2022.2.5,Win32,5.333333333,NA,NA,NA,NA,NA,NA,NA,NA,NA,NA,NA,NA,NA,NA,NA,NA,NA,NA,NA,NA,NA,NA,NA,NA,NA,NA,NA,NA,NA,NA,NA,NA,NA,NA,NA,NA,NA,NA,NA,NA,NA,NA,NA,NA,NA,NA,NA,NA,NA,NA,NA,NA,NA,NA,4,0,4,0,1
SUPAMT87285,338JKRMM2CYLVKYX870SLX3APTWAHD,4EBA2268-A981-4B02-9A3E-BF4CD2695931,2023-09-27_10h54.30.512,WP_VExplicitOC_LH,2022.2.5,Win32,5.333333333,NA,NA,2.058,NA,NA,NA,NA,NA,happy,"unhappy, happy","less happy, more happy",NA,NA,NA,NA,NA,NA,NA,NA,NA,NA,NA,NA,NA,NA,NA,NA,NA,NA,NA,NA,NA,NA,NA,NA,NA,NA,NA,NA,NA,NA,NA,NA,NA,NA,NA,NA,NA,NA,0,0,0,0,1,NA,NA,NA,NA,NA
SUPAMT87285,338JKRMM2CYLVKYX870SLX3APTWAHD,4EBA2268-A981-4B02-9A3E-BF4CD2695931,2023-09-27_10h54.30.512,WP_VExplicitOC_LH,2022.2.5,Win32,5.333333333,NA,NA,2.022,NA,NA,NA,NA,NA,bored,"bored, not bored","more bored, less bored",NA,NA,NA,NA,NA,NA,NA,NA,NA,NA,NA,NA,NA,NA,NA,NA,NA,NA,NA,NA,NA,NA,NA,NA,NA,NA,NA,NA,NA,NA,NA,NA,NA,NA,NA,NA,NA,NA,0,1,1,2,1,NA,NA,NA,NA,NA
SUPAMT87285,338JKRMM2CYLVKYX870SLX3APTWAHD,4EBA2268-A981-4B02-9A3E-BF4CD2695931,2023-09-27_10h54.30.512,WP_VExplicitOC_LH,2022.2.5,Win32,5.333333333,80.94189195,4.639,2.063,NA,NA,NA,NA,NA,frustrated,"frustrated, not frustrated","more frustrated, less frustrated",NA,NA,NA,NA,NA,NA,NA,NA,NA,NA,NA,NA,NA,NA,NA,NA,NA,NA,NA,NA,NA,NA,NA,NA,NA,NA,NA,NA,NA,NA,NA,NA,NA,NA,NA,NA,NA,NA,0,2,2,1,1,NA,NA,NA,NA,NA
SUPAMT87285,338JKRMM2CYLVKYX870SLX3APTWAHD,4EBA2268-A981-4B02-9A3E-BF4CD2695931,2023-09-27_10h54.30.512,WP_VExplicitOC_LH,2022.2.5,Win32,5.333333333,NA,NA,NA,NA,NA,NA,NA,NA,NA,NA,NA,NA,NA,NA,NA,NA,NA,NA,NA,NA,NA,NA,NA,NA,NA,NA,NA,NA,NA,NA,NA,NA,NA,NA,NA,NA,NA,NA,NA,NA,NA,NA,NA,NA,NA,NA,NA,NA,NA,NA,NA,NA,NA,NA,5,0,5,0,1
SUPAMT87285,338JKRMM2CYLVKYX870SLX3APTWAHD,4EBA2268-A981-4B02-9A3E-BF4CD2695931,2023-09-27_10h54.30.512,WP_VExplicitOC_LH,2022.2.5,Win32,5.333333333,NA,NA,2.066,NA,NA,NA,NA,NA,bored,"bored, not bored","more bored, less bored",NA,NA,NA,NA,NA,NA,NA,NA,NA,NA,NA,NA,NA,NA,NA,NA,NA,NA,NA,NA,NA,NA,NA,NA,NA,NA,NA,NA,NA,NA,NA,NA,NA,NA,NA,NA,NA,NA,0,0,0,2,1,NA,NA,NA,NA,NA
SUPAMT87285,338JKRMM2CYLVKYX870SLX3APTWAHD,4EBA2268-A981-4B02-9A3E-BF4CD2695931,2023-09-27_10h54.30.512,WP_VExplicitOC_LH,2022.2.5,Win32,5.333333333,NA,NA,2.042,NA,NA,NA,NA,NA,happy,"unhappy, happy","less happy, more happy",NA,NA,NA,NA,NA,NA,NA,NA,NA,NA,NA,NA,NA,NA,NA,NA,NA,NA,NA,NA,NA,NA,NA,NA,NA,NA,NA,NA,NA,NA,NA,NA,NA,NA,NA,NA,NA,NA,0,1,1,0,1,NA,NA,NA,NA,NA
SUPAMT87285,338JKRMM2CYLVKYX870SLX3APTWAHD,4EBA2268-A981-4B02-9A3E-BF4CD2695931,2023-09-27_10h54.30.512,WP_VExplicitOC_LH,2022.2.5,Win32,5.333333333,NA,NA,2.005,NA,NA,NA,NA,NA,frustrated,"frustrated, not frustrated","more frustrated, less frustrated",NA,NA,NA,NA,NA,NA,NA,NA,NA,NA,NA,NA,NA,NA,NA,NA,NA,NA,NA,NA,NA,NA,NA,NA,NA,NA,NA,NA,NA,NA,NA,NA,NA,NA,NA,NA,NA,NA,0,2,2,1,1,NA,NA,NA,NA,NA
SUPAMT87285,338JKRMM2CYLVKYX870SLX3APTWAHD,4EBA2268-A981-4B02-9A3E-BF4CD2695931,2023-09-27_10h54.30.512,WP_VExplicitOC_LH,2022.2.5,Win32,5.333333333,NA,NA,NA,NA,NA,NA,NA,NA,NA,NA,NA,NA,NA,NA,NA,NA,NA,NA,NA,NA,NA,NA,NA,NA,NA,NA,NA,NA,NA,NA,NA,NA,NA,NA,NA,NA,NA,NA,NA,NA,NA,NA,NA,NA,NA,NA,NA,NA,NA,NA,NA,NA,NA,NA,6,0,6,0,1
SUPAMT87285,338JKRMM2CYLVKYX870SLX3APTWAHD,4EBA2268-A981-4B02-9A3E-BF4CD2695931,2023-09-27_10h54.30.512,WP_VExplicitOC_LH,2022.2.5,Win32,5.333333333,93.64726174,6.972,2.017,NA,NA,NA,NA,NA,frustrated,"frustrated, not frustrated","more frustrated, less frustrated",NA,NA,NA,NA,NA,NA,NA,NA,NA,NA,NA,NA,NA,NA,NA,NA,NA,NA,NA,NA,NA,NA,NA,NA,NA,NA,NA,NA,NA,NA,NA,NA,NA,NA,NA,NA,NA,NA,0,0,0,1,1,NA,NA,NA,NA,NA
SUPAMT87285,338JKRMM2CYLVKYX870SLX3APTWAHD,4EBA2268-A981-4B02-9A3E-BF4CD2695931,2023-09-27_10h54.30.512,WP_VExplicitOC_LH,2022.2.5,Win32,5.333333333,90.58044661,5.367,2.1,NA,NA,NA,NA,NA,bored,"bored, not bored","more bored, less bored",NA,NA,NA,NA,NA,NA,NA,NA,NA,NA,NA,NA,NA,NA,NA,NA,NA,NA,NA,NA,NA,NA,NA,NA,NA,NA,NA,NA,NA,NA,NA,NA,NA,NA,NA,NA,NA,NA,0,1,1,2,1,NA,NA,NA,NA,NA
SUPAMT87285,338JKRMM2CYLVKYX870SLX3APTWAHD,4EBA2268-A981-4B02-9A3E-BF4CD2695931,2023-09-27_10h54.30.512,WP_VExplicitOC_LH,2022.2.5,Win32,5.333333333,NA,NA,2.102,NA,NA,NA,NA,NA,happy,"unhappy, happy","less happy, more happy",NA,NA,NA,NA,NA,NA,NA,NA,NA,NA,NA,NA,NA,NA,NA,NA,NA,NA,NA,NA,NA,NA,NA,NA,NA,NA,NA,NA,NA,NA,NA,NA,NA,NA,NA,NA,NA,NA,0,2,2,0,1,NA,NA,NA,NA,NA
SUPAMT87285,338JKRMM2CYLVKYX870SLX3APTWAHD,4EBA2268-A981-4B02-9A3E-BF4CD2695931,2023-09-27_10h54.30.512,WP_VExplicitOC_LH,2022.2.5,Win32,5.333333333,NA,NA,NA,NA,NA,NA,NA,NA,NA,NA,NA,NA,NA,NA,NA,NA,NA,NA,NA,NA,NA,NA,NA,NA,NA,NA,NA,NA,NA,NA,NA,NA,NA,NA,NA,NA,NA,NA,NA,NA,NA,NA,NA,NA,NA,NA,NA,NA,NA,NA,NA,NA,NA,NA,7,0,7,0,1
SUPAMT87285,338JKRMM2CYLVKYX870SLX3APTWAHD,4EBA2268-A981-4B02-9A3E-BF4CD2695931,2023-09-27_10h54.30.512,WP_VExplicitOC_LH,2022.2.5,Win32,5.333333333,87.0755222,6.137,2.003,NA,NA,NA,NA,NA,happy,"unhappy, happy","less happy, more happy",NA,NA,NA,NA,NA,NA,NA,NA,NA,NA,NA,NA,NA,NA,NA,NA,NA,NA,NA,NA,NA,NA,NA,NA,NA,NA,NA,NA,NA,NA,NA,NA,NA,NA,NA,NA,NA,NA,0,0,0,0,1,NA,NA,NA,NA,NA
SUPAMT87285,338JKRMM2CYLVKYX870SLX3APTWAHD,4EBA2268-A981-4B02-9A3E-BF4CD2695931,2023-09-27_10h54.30.512,WP_VExplicitOC_LH,2022.2.5,Win32,5.333333333,95.83784159,4.154,2.005,NA,NA,NA,NA,NA,bored,"bored, not bored","more bored, less bored",NA,NA,NA,NA,NA,NA,NA,NA,NA,NA,NA,NA,NA,NA,NA,NA,NA,NA,NA,NA,NA,NA,NA,NA,NA,NA,NA,NA,NA,NA,NA,NA,NA,NA,NA,NA,NA,NA,0,1,1,2,1,NA,NA,NA,NA,NA
SUPAMT87285,338JKRMM2CYLVKYX870SLX3APTWAHD,4EBA2268-A981-4B02-9A3E-BF4CD2695931,2023-09-27_10h54.30.512,WP_VExplicitOC_LH,2022.2.5,Win32,5.333333333,87.0755222,3.876,2.094,NA,NA,NA,NA,NA,frustrated,"frustrated, not frustrated","more frustrated, less frustrated",NA,NA,NA,NA,NA,NA,NA,NA,NA,NA,NA,NA,NA,NA,NA,NA,NA,NA,NA,NA,NA,NA,NA,NA,NA,NA,NA,NA,NA,NA,NA,NA,NA,NA,NA,NA,NA,NA,0,2,2,1,1,NA,NA,NA,NA,NA
SUPAMT87285,338JKRMM2CYLVKYX870SLX3APTWAHD,4EBA2268-A981-4B02-9A3E-BF4CD2695931,2023-09-27_10h54.30.512,WP_VExplicitOC_LH,2022.2.5,Win32,5.333333333,NA,NA,NA,NA,NA,NA,NA,NA,NA,NA,NA,NA,NA,NA,NA,NA,NA,NA,NA,NA,NA,NA,NA,NA,NA,NA,NA,NA,NA,NA,NA,NA,NA,NA,NA,NA,NA,NA,NA,NA,NA,NA,NA,NA,NA,NA,NA,NA,NA,NA,NA,NA,NA,NA,8,0,8,0,1
SUPAMT87285,338JKRMM2CYLVKYX870SLX3APTWAHD,4EBA2268-A981-4B02-9A3E-BF4CD2695931,2023-09-27_10h54.30.512,WP_VExplicitOC_LH,2022.2.5,Win32,5.333333333,98.02842143,4.494,2.098,NA,NA,NA,NA,NA,happy,"unhappy, happy","less happy, more happy",NA,NA,NA,NA,NA,NA,NA,NA,NA,NA,NA,NA,NA,NA,NA,NA,NA,NA,NA,NA,NA,NA,NA,NA,NA,NA,NA,NA,NA,NA,NA,NA,NA,NA,NA,NA,NA,NA,0,0,0,0,1,NA,NA,NA,NA,NA
SUPAMT87285,338JKRMM2CYLVKYX870SLX3APTWAHD,4EBA2268-A981-4B02-9A3E-BF4CD2695931,2023-09-27_10h54.30.512,WP_VExplicitOC_LH,2022.2.5,Win32,5.333333333,92.77102646,4.007,2.025,NA,NA,NA,NA,NA,frustrated,"frustrated, not frustrated","more frustrated, less frustrated",NA,NA,NA,NA,NA,NA,NA,NA,NA,NA,NA,NA,NA,NA,NA,NA,NA,NA,NA,NA,NA,NA,NA,NA,NA,NA,NA,NA,NA,NA,NA,NA,NA,NA,NA,NA,NA,NA,0,1,1,1,1,NA,NA,NA,NA,NA
SUPAMT87285,338JKRMM2CYLVKYX870SLX3APTWAHD,4EBA2268-A981-4B02-9A3E-BF4CD2695931,2023-09-27_10h54.30.512,WP_VExplicitOC_LH,2022.2.5,Win32,5.333333333,91.67573654,3.878,2.094,NA,NA,NA,NA,NA,bored,"bored, not bored","more bored, less bored",NA,NA,NA,NA,NA,NA,NA,NA,NA,NA,NA,NA,NA,NA,NA,NA,NA,NA,NA,NA,NA,NA,NA,NA,NA,NA,NA,NA,NA,NA,NA,NA,NA,NA,NA,NA,NA,NA,0,2,2,2,1,NA,NA,NA,NA,NA
SUPAMT87285,338JKRMM2CYLVKYX870SLX3APTWAHD,4EBA2268-A981-4B02-9A3E-BF4CD2695931,2023-09-27_10h54.30.512,WP_VExplicitOC_LH,2022.2.5,Win32,5.333333333,NA,NA,NA,NA,NA,NA,NA,NA,NA,NA,NA,NA,NA,NA,NA,NA,NA,NA,NA,NA,NA,NA,NA,NA,NA,NA,NA,NA,NA,NA,NA,NA,NA,NA,NA,NA,NA,NA,NA,NA,NA,NA,NA,NA,NA,NA,NA,NA,NA,NA,NA,NA,NA,NA,9,0,9,0,1
SUPAMT87285,338JKRMM2CYLVKYX870SLX3APTWAHD,4EBA2268-A981-4B02-9A3E-BF4CD2695931,2023-09-27_10h54.30.512,WP_VExplicitOC_LH,2022.2.5,Win32,5.333333333,NA,NA,2.058,NA,NA,NA,NA,NA,bored,"bored, not bored","more bored, less bored",NA,NA,NA,NA,NA,NA,NA,NA,NA,NA,NA,NA,NA,NA,NA,NA,NA,NA,NA,NA,NA,NA,NA,NA,NA,NA,NA,NA,NA,NA,NA,NA,NA,NA,NA,NA,NA,NA,0,0,0,2,1,NA,NA,NA,NA,NA
SUPAMT87285,338JKRMM2CYLVKYX870SLX3APTWAHD,4EBA2268-A981-4B02-9A3E-BF4CD2695931,2023-09-27_10h54.30.512,WP_VExplicitOC_LH,2022.2.5,Win32,5.333333333,NA,NA,12.401,NA,NA,NA,NA,NA,frustrated,"frustrated, not frustrated","more frustrated, less frustrated",NA,NA,NA,NA,NA,NA,NA,NA,NA,NA,NA,NA,NA,NA,NA,NA,NA,NA,NA,NA,NA,NA,NA,NA,NA,NA,NA,NA,NA,NA,NA,NA,NA,NA,NA,NA,NA,NA,0,1,1,1,1,NA,NA,NA,NA,NA
SUPAMT87285,338JKRMM2CYLVKYX870SLX3APTWAHD,4EBA2268-A981-4B02-9A3E-BF4CD2695931,2023-09-27_10h54.30.512,WP_VExplicitOC_LH,2022.2.5,Win32,5.333333333,NA,NA,2.057,NA,NA,NA,NA,NA,happy,"unhappy, happy","less happy, more happy",NA,NA,NA,NA,NA,NA,NA,NA,NA,NA,NA,NA,NA,NA,NA,NA,NA,NA,NA,NA,NA,NA,NA,NA,NA,NA,NA,NA,NA,NA,NA,NA,NA,NA,NA,NA,NA,NA,0,2,2,0,1,NA,NA,NA,NA,NA
SUPAMT87285,338JKRMM2CYLVKYX870SLX3APTWAHD,4EBA2268-A981-4B02-9A3E-BF4CD2695931,2023-09-27_10h54.30.512,WP_VExplicitOC_LH,2022.2.5,Win32,5.333333333,NA,NA,NA,NA,NA,NA,NA,NA,NA,NA,NA,NA,NA,NA,NA,NA,NA,NA,NA,NA,NA,NA,NA,NA,NA,NA,NA,NA,NA,NA,NA,NA,NA,NA,NA,NA,NA,NA,NA,NA,NA,NA,NA,NA,NA,NA,NA,NA,NA,NA,NA,NA,NA,NA,10,0,10,0,1
SUPAMT87285,338JKRMM2CYLVKYX870SLX3APTWAHD,4EBA2268-A981-4B02-9A3E-BF4CD2695931,2023-09-27_10h54.30.512,WP_VExplicitOC_LH,2022.2.5,Win32,5.333333333,NA,NA,2.045,NA,NA,NA,NA,NA,frustrated,"frustrated, not frustrated","more frustrated, less frustrated",NA,NA,NA,NA,NA,NA,NA,NA,NA,NA,NA,NA,NA,NA,NA,NA,NA,NA,NA,NA,NA,NA,NA,NA,NA,NA,NA,NA,NA,NA,NA,NA,NA,NA,NA,NA,NA,NA,0,0,0,1,1,NA,NA,NA,NA,NA
SUPAMT87285,338JKRMM2CYLVKYX870SLX3APTWAHD,4EBA2268-A981-4B02-9A3E-BF4CD2695931,2023-09-27_10h54.30.512,WP_VExplicitOC_LH,2022.2.5,Win32,5.333333333,92.11386253,6.203,2.039,NA,NA,NA,NA,NA,happy,"unhappy, happy","less happy, more happy",NA,NA,NA,NA,NA,NA,NA,NA,NA,NA,NA,NA,NA,NA,NA,NA,NA,NA,NA,NA,NA,NA,NA,NA,NA,NA,NA,NA,NA,NA,NA,NA,NA,NA,NA,NA,NA,NA,0,1,1,0,1,NA,NA,NA,NA,NA
SUPAMT87285,338JKRMM2CYLVKYX870SLX3APTWAHD,4EBA2268-A981-4B02-9A3E-BF4CD2695931,2023-09-27_10h54.30.512,WP_VExplicitOC_LH,2022.2.5,Win32,5.333333333,86.63741292,5.31,2.042,NA,NA,NA,NA,NA,bored,"bored, not bored","more bored, less bored",NA,NA,NA,NA,NA,NA,NA,NA,NA,NA,NA,NA,NA,NA,NA,NA,NA,NA,NA,NA,NA,NA,NA,NA,NA,NA,NA,NA,NA,NA,NA,NA,NA,NA,NA,NA,NA,NA,0,2,2,2,1,NA,NA,NA,NA,NA
SUPAMT87285,338JKRMM2CYLVKYX870SLX3APTWAHD,4EBA2268-A981-4B02-9A3E-BF4CD2695931,2023-09-27_10h54.30.512,WP_VExplicitOC_LH,2022.2.5,Win32,5.333333333,NA,NA,NA,NA,NA,NA,NA,NA,NA,NA,NA,NA,NA,NA,NA,NA,NA,NA,NA,NA,NA,NA,NA,NA,NA,NA,NA,NA,NA,NA,NA,NA,NA,NA,NA,NA,NA,NA,NA,NA,NA,NA,NA,NA,NA,NA,NA,NA,NA,NA,NA,NA,NA,NA,11,0,11,0,1
SUPAMT87285,338JKRMM2CYLVKYX870SLX3APTWAHD,4EBA2268-A981-4B02-9A3E-BF4CD2695931,2023-09-27_10h54.30.512,WP_VExplicitOC_LH,2022.2.5,Win32,5.333333333,88.60892141,4.286,2.011,NA,NA,NA,NA,NA,happy,"unhappy, happy","less happy, more happy",NA,NA,NA,NA,NA,NA,NA,NA,NA,NA,NA,NA,NA,NA,NA,NA,NA,NA,NA,NA,NA,NA,NA,NA,NA,NA,NA,NA,NA,NA,NA,NA,NA,NA,NA,NA,NA,NA,0,0,0,0,1,NA,NA,NA,NA,NA
SUPAMT87285,338JKRMM2CYLVKYX870SLX3APTWAHD,4EBA2268-A981-4B02-9A3E-BF4CD2695931,2023-09-27_10h54.30.512,WP_VExplicitOC_LH,2022.2.5,Win32,5.333333333,86.85646756,4.407,2.056,NA,NA,NA,NA,NA,bored,"bored, not bored","more bored, less bored",NA,NA,NA,NA,NA,NA,NA,NA,NA,NA,NA,NA,NA,NA,NA,NA,NA,NA,NA,NA,NA,NA,NA,NA,NA,NA,NA,NA,NA,NA,NA,NA,NA,NA,NA,NA,NA,NA,0,1,1,2,1,NA,NA,NA,NA,NA
SUPAMT87285,338JKRMM2CYLVKYX870SLX3APTWAHD,4EBA2268-A981-4B02-9A3E-BF4CD2695931,2023-09-27_10h54.30.512,WP_VExplicitOC_LH,2022.2.5,Win32,5.333333333,89.04704741,4.487,2.06,NA,NA,NA,NA,NA,frustrated,"frustrated, not frustrated","more frustrated, less frustrated",NA,NA,NA,NA,NA,NA,NA,NA,NA,NA,NA,NA,NA,NA,NA,NA,NA,NA,NA,NA,NA,NA,NA,NA,NA,NA,NA,NA,NA,NA,NA,NA,NA,NA,NA,NA,NA,NA,0,2,2,1,1,NA,NA,NA,NA,NA
SUPAMT87285,338JKRMM2CYLVKYX870SLX3APTWAHD,4EBA2268-A981-4B02-9A3E-BF4CD2695931,2023-09-27_10h54.30.512,WP_VExplicitOC_LH,2022.2.5,Win32,5.333333333,NA,NA,NA,NA,NA,NA,NA,NA,NA,NA,NA,NA,NA,NA,NA,NA,NA,NA,NA,NA,NA,NA,NA,NA,NA,NA,NA,NA,NA,NA,NA,NA,NA,NA,NA,NA,NA,NA,NA,NA,NA,NA,NA,NA,NA,NA,NA,NA,NA,NA,NA,NA,NA,NA,12,0,12,0,1
SUPAMT87285,338JKRMM2CYLVKYX870SLX3APTWAHD,4EBA2268-A981-4B02-9A3E-BF4CD2695931,2023-09-27_10h54.30.512,WP_VExplicitOC_LH,2022.2.5,Win32,5.333333333,96.93313151,5.234,2.092,NA,NA,NA,NA,NA,happy,"unhappy, happy","less happy, more happy",NA,NA,NA,NA,NA,NA,NA,NA,NA,NA,NA,NA,NA,NA,NA,NA,NA,NA,NA,NA,NA,NA,NA,NA,NA,NA,NA,NA,NA,NA,NA,NA,NA,NA,NA,NA,NA,NA,0,0,0,0,1,NA,NA,NA,NA,NA
SUPAMT87285,338JKRMM2CYLVKYX870SLX3APTWAHD,4EBA2268-A981-4B02-9A3E-BF4CD2695931,2023-09-27_10h54.30.512,WP_VExplicitOC_LH,2022.2.5,Win32,5.333333333,78.7513121,7.405,2.002,NA,NA,NA,NA,NA,bored,"bored, not bored","more bored, less bored",NA,NA,NA,NA,NA,NA,NA,NA,NA,NA,NA,NA,NA,NA,NA,NA,NA,NA,NA,NA,NA,NA,NA,NA,NA,NA,NA,NA,NA,NA,NA,NA,NA,NA,NA,NA,NA,NA,0,1,1,2,1,NA,NA,NA,NA,NA
SUPAMT87285,338JKRMM2CYLVKYX870SLX3APTWAHD,4EBA2268-A981-4B02-9A3E-BF4CD2695931,2023-09-27_10h54.30.512,WP_VExplicitOC_LH,2022.2.5,Win32,5.333333333,NA,NA,2.056,NA,NA,NA,NA,NA,frustrated,"frustrated, not frustrated","more frustrated, less frustrated",NA,NA,NA,NA,NA,NA,NA,NA,NA,NA,NA,NA,NA,NA,NA,NA,NA,NA,NA,NA,NA,NA,NA,NA,NA,NA,NA,NA,NA,NA,NA,NA,NA,NA,NA,NA,NA,NA,0,2,2,1,1,NA,NA,NA,NA,NA
SUPAMT87285,338JKRMM2CYLVKYX870SLX3APTWAHD,4EBA2268-A981-4B02-9A3E-BF4CD2695931,2023-09-27_10h54.30.512,WP_VExplicitOC_LH,2022.2.5,Win32,5.333333333,NA,NA,NA,NA,NA,NA,NA,NA,NA,NA,NA,NA,NA,NA,NA,NA,NA,NA,NA,NA,NA,NA,NA,NA,NA,NA,NA,NA,NA,NA,NA,NA,NA,NA,NA,NA,NA,NA,NA,NA,NA,NA,NA,NA,NA,NA,NA,NA,NA,NA,NA,NA,NA,NA,13,0,13,0,1
SUPAMT87285,338JKRMM2CYLVKYX870SLX3APTWAHD,4EBA2268-A981-4B02-9A3E-BF4CD2695931,2023-09-27_10h54.30.512,WP_VExplicitOC_LH,2022.2.5,Win32,5.333333333,82.69436251,6.875,2.091,NA,NA,NA,NA,NA,bored,"bored, not bored","more bored, less bored",NA,NA,NA,NA,NA,NA,NA,NA,NA,NA,NA,NA,NA,NA,NA,NA,NA,NA,NA,NA,NA,NA,NA,NA,NA,NA,NA,NA,NA,NA,NA,NA,NA,NA,NA,NA,NA,NA,0,0,0,2,1,NA,NA,NA,NA,NA
SUPAMT87285,338JKRMM2CYLVKYX870SLX3APTWAHD,4EBA2268-A981-4B02-9A3E-BF4CD2695931,2023-09-27_10h54.30.512,WP_VExplicitOC_LH,2022.2.5,Win32,5.333333333,83.35154315,4.975,2.074,NA,NA,NA,NA,NA,frustrated,"frustrated, not frustrated","more frustrated, less frustrated",NA,NA,NA,NA,NA,NA,NA,NA,NA,NA,NA,NA,NA,NA,NA,NA,NA,NA,NA,NA,NA,NA,NA,NA,NA,NA,NA,NA,NA,NA,NA,NA,NA,NA,NA,NA,NA,NA,0,1,1,1,1,NA,NA,NA,NA,NA
SUPAMT87285,338JKRMM2CYLVKYX870SLX3APTWAHD,4EBA2268-A981-4B02-9A3E-BF4CD2695931,2023-09-27_10h54.30.512,WP_VExplicitOC_LH,2022.2.5,Win32,5.333333333,87.51363149,3.98,2.059,NA,NA,NA,NA,NA,happy,"unhappy, happy","less happy, more happy",NA,NA,NA,NA,NA,NA,NA,NA,NA,NA,NA,NA,NA,NA,NA,NA,NA,NA,NA,NA,NA,NA,NA,NA,NA,NA,NA,NA,NA,NA,NA,NA,NA,NA,NA,NA,NA,NA,0,2,2,0,1,NA,NA,NA,NA,NA
SUPAMT87285,338JKRMM2CYLVKYX870SLX3APTWAHD,4EBA2268-A981-4B02-9A3E-BF4CD2695931,2023-09-27_10h54.30.512,WP_VExplicitOC_LH,2022.2.5,Win32,5.333333333,NA,NA,NA,NA,NA,NA,NA,NA,NA,NA,NA,NA,NA,NA,NA,NA,NA,NA,NA,NA,NA,NA,NA,NA,NA,NA,NA,NA,NA,NA,NA,NA,NA,NA,NA,NA,NA,NA,NA,NA,NA,NA,NA,NA,NA,NA,NA,NA,NA,NA,NA,NA,NA,NA,14,0,14,0,1
SUPAMT87285,338JKRMM2CYLVKYX870SLX3APTWAHD,4EBA2268-A981-4B02-9A3E-BF4CD2695931,2023-09-27_10h54.30.512,WP_VExplicitOC_LH,2022.2.5,Win32,5.333333333,NA,NA,NA,NA,NA,NA,NA,NA,NA,NA,NA,NA,NA,NA,NA,NA,NA,NA,NA,NA,NA,NA,NA,NA,NA,NA,NA,NA,NA,NA,NA,NA,NA,NA,NA,NA,NA,NA,NA,NA,NA,NA,NA,NA,NA,NA,NA,NA,NA,NA,NA,NA,NA,NA,NA,NA,NA,NA,NA
