participant,session,completion,date,expName,psychopyVersion,OS,frameRate,rating_all.response,rating_all.rt,rating_all.tStart,rndRat1.thisRepN,rndRat1.thisTrialN,rndRat1.thisN,rndRat1.thisIndex,rndRat1.ran,Emo,Labs,Labs2,rating_alt.response,rating_alt.rt,AltC.thisRepN,AltC.thisTrialN,AltC.thisN,AltC.thisIndex,AltC.ran,alt_choices,pic_choices,BottomAlt_Choice,rndRat2.thisRepN,rndRat2.thisTrialN,rndRat2.thisN,rndRat2.thisIndex,rndRat2.ran,rndRat3.thisRepN,rndRat3.thisTrialN,rndRat3.thisN,rndRat3.thisIndex,rndRat3.ran,trials_FC_L.thisRepN,trials_FC_L.thisTrialN,trials_FC_L.thisN,trials_FC_L.thisIndex,trials_FC_L.ran,rating_alt_2.response,rating_alt_2.rt,AltC2.thisRepN,AltC2.thisTrialN,AltC2.thisN,AltC2.thisIndex,AltC2.ran,TopAlt_Choice,rndRat4.thisRepN,rndRat4.thisTrialN,rndRat4.thisN,rndRat4.thisIndex,rndRat4.ran,rndRat5.thisRepN,rndRat5.thisTrialN,rndRat5.thisN,rndRat5.thisIndex,rndRat5.ran,trials_FC_H.thisRepN,trials_FC_H.thisTrialN,trials_FC_H.thisN,trials_FC_H.thisIndex,trials_FC_H.ran
SUPAMT21106,3WSELTNVR91B0TPS81HHZG6YZE2TAY,2F893265-698D-4919-9972-1F2B1CEF0233,2023-09-26_06h37.37.398,WP_VExplicitOC_LH,2022.2.5,Win32,22.06823498,NA,NA,NA,NA,NA,NA,NA,NA,NA,NA,NA,NA,NA,NA,NA,NA,NA,NA,NA,NA,NA,NA,NA,NA,NA,NA,NA,NA,NA,NA,NA,NA,NA,NA,NA,NA,NA,NA,NA,NA,NA,NA,NA,NA,NA,NA,NA,NA,NA,NA,NA,NA,NA,NA,NA,NA,NA,NA,NA
SUPAMT21106,3WSELTNVR91B0TPS81HHZG6YZE2TAY,2F893265-698D-4919-9972-1F2B1CEF0233,2023-09-26_06h37.37.398,WP_VExplicitOC_LH,2022.2.5,Win32,22.06823498,NA,NA,NA,NA,NA,NA,NA,NA,NA,NA,NA,NA,NA,NA,NA,NA,NA,NA,NA,NA,NA,NA,NA,NA,NA,NA,NA,NA,NA,NA,NA,NA,NA,NA,NA,NA,NA,NA,NA,NA,NA,NA,NA,NA,NA,NA,NA,NA,NA,NA,NA,NA,NA,NA,NA,NA,NA,NA,NA
SUPAMT21106,3WSELTNVR91B0TPS81HHZG6YZE2TAY,2F893265-698D-4919-9972-1F2B1CEF0233,2023-09-26_06h37.37.398,WP_VExplicitOC_LH,2022.2.5,Win32,22.06823498,NA,NA,NA,NA,NA,NA,NA,NA,NA,NA,NA,NA,NA,NA,NA,NA,NA,NA,NA,NA,NA,NA,NA,NA,NA,NA,NA,NA,NA,NA,NA,NA,NA,NA,NA,NA,NA,NA,NA,NA,NA,NA,NA,NA,NA,NA,NA,NA,NA,NA,NA,NA,NA,NA,NA,NA,NA,NA,NA
SUPAMT21106,3WSELTNVR91B0TPS81HHZG6YZE2TAY,2F893265-698D-4919-9972-1F2B1CEF0233,2023-09-26_06h37.37.398,WP_VExplicitOC_LH,2022.2.5,Win32,22.06823498,NA,NA,2.0268,0,0,0,2,1,bored,"bored, not bored","more bored, less bored",NA,NA,NA,NA,NA,NA,NA,NA,NA,NA,NA,NA,NA,NA,NA,NA,NA,NA,NA,NA,NA,NA,NA,NA,NA,NA,NA,NA,NA,NA,NA,NA,NA,NA,NA,NA,NA,NA,NA,NA,NA,NA,NA,NA,NA,NA,NA,NA
SUPAMT21106,3WSELTNVR91B0TPS81HHZG6YZE2TAY,2F893265-698D-4919-9972-1F2B1CEF0233,2023-09-26_06h37.37.398,WP_VExplicitOC_LH,2022.2.5,Win32,22.06823498,33.33333333,4.2332,2.0359,0,1,1,0,1,happy,"unhappy, happy","less happy, more happy",NA,NA,NA,NA,NA,NA,NA,NA,NA,NA,NA,NA,NA,NA,NA,NA,NA,NA,NA,NA,NA,NA,NA,NA,NA,NA,NA,NA,NA,NA,NA,NA,NA,NA,NA,NA,NA,NA,NA,NA,NA,NA,NA,NA,NA,NA,NA,NA
SUPAMT21106,3WSELTNVR91B0TPS81HHZG6YZE2TAY,2F893265-698D-4919-9972-1F2B1CEF0233,2023-09-26_06h37.37.398,WP_VExplicitOC_LH,2022.2.5,Win32,22.06823498,-16.14583333,6.223,2.0186,0,2,2,1,1,frustrated,"frustrated, not frustrated","more frustrated, less frustrated",NA,NA,NA,NA,NA,NA,NA,NA,NA,NA,NA,NA,NA,NA,NA,NA,NA,NA,NA,NA,NA,NA,NA,NA,NA,NA,NA,NA,NA,NA,NA,NA,NA,NA,NA,NA,NA,NA,NA,NA,NA,NA,NA,NA,NA,NA,NA,NA
SUPAMT21106,3WSELTNVR91B0TPS81HHZG6YZE2TAY,2F893265-698D-4919-9972-1F2B1CEF0233,2023-09-26_06h37.37.398,WP_VExplicitOC_LH,2022.2.5,Win32,22.06823498,NA,NA,NA,NA,NA,NA,NA,NA,NA,NA,NA,NA,NA,NA,NA,NA,NA,NA,NA,NA,NA,NA,NA,NA,NA,NA,NA,NA,NA,NA,NA,NA,NA,NA,NA,NA,NA,NA,NA,NA,NA,NA,NA,NA,NA,NA,NA,NA,NA,NA,NA,NA,NA,NA,NA,NA,NA,NA,NA
SUPAMT21106,3WSELTNVR91B0TPS81HHZG6YZE2TAY,2F893265-698D-4919-9972-1F2B1CEF0233,2023-09-26_06h37.37.398,WP_VExplicitOC_LH,2022.2.5,Win32,22.06823498,NA,NA,NA,NA,NA,NA,NA,NA,NA,NA,NA,NA,NA,NA,NA,NA,NA,NA,NA,NA,NA,NA,NA,NA,NA,NA,NA,NA,NA,NA,NA,NA,NA,NA,NA,NA,NA,NA,NA,NA,NA,NA,NA,NA,NA,NA,NA,NA,NA,NA,NA,NA,NA,NA,NA,NA,NA,NA,NA
SUPAMT21106,3WSELTNVR91B0TPS81HHZG6YZE2TAY,2F893265-698D-4919-9972-1F2B1CEF0233,2023-09-26_06h37.37.398,WP_VExplicitOC_LH,2022.2.5,Win32,22.06823498,NA,NA,NA,NA,NA,NA,NA,NA,NA,NA,NA,NA,NA,NA,NA,NA,NA,NA,NA,NA,NA,NA,NA,NA,NA,NA,NA,NA,NA,NA,NA,NA,NA,NA,NA,NA,NA,NA,NA,NA,NA,NA,NA,NA,NA,NA,NA,NA,NA,NA,NA,NA,NA,NA,NA,NA,NA,NA,NA
SUPAMT21106,3WSELTNVR91B0TPS81HHZG6YZE2TAY,2F893265-698D-4919-9972-1F2B1CEF0233,2023-09-26_06h37.37.398,WP_VExplicitOC_LH,2022.2.5,Win32,22.06823498,NA,NA,NA,NA,NA,NA,NA,NA,NA,NA,NA,NA,NA,NA,NA,NA,NA,NA,NA,NA,NA,NA,NA,NA,NA,NA,NA,NA,NA,NA,NA,NA,NA,NA,NA,NA,NA,NA,NA,NA,NA,NA,NA,NA,NA,NA,NA,NA,NA,NA,NA,NA,NA,NA,NA,NA,NA,NA,NA
SUPAMT21106,3WSELTNVR91B0TPS81HHZG6YZE2TAY,2F893265-698D-4919-9972-1F2B1CEF0233,2023-09-26_06h37.37.398,WP_VExplicitOC_LH,2022.2.5,Win32,22.06823498,NA,NA,NA,NA,NA,NA,NA,NA,NA,NA,NA,11.71875,3.7028,0,0,0,0,1,rest (looking at a fixed cross),001.png,NA,NA,NA,NA,NA,NA,NA,NA,NA,NA,NA,NA,NA,NA,NA,NA,NA,NA,NA,NA,NA,NA,NA,NA,NA,NA,NA,NA,NA,NA,NA,NA,NA,NA,NA,NA,NA,NA,NA
SUPAMT21106,3WSELTNVR91B0TPS81HHZG6YZE2TAY,2F893265-698D-4919-9972-1F2B1CEF0233,2023-09-26_06h37.37.398,WP_VExplicitOC_LH,2022.2.5,Win32,22.06823498,NA,NA,NA,NA,NA,NA,NA,NA,NA,NA,NA,41.92708333,1.1143,0,1,1,1,1,stand up,002.png,NA,NA,NA,NA,NA,NA,NA,NA,NA,NA,NA,NA,NA,NA,NA,NA,NA,NA,NA,NA,NA,NA,NA,NA,NA,NA,NA,NA,NA,NA,NA,NA,NA,NA,NA,NA,NA,NA,NA
SUPAMT21106,3WSELTNVR91B0TPS81HHZG6YZE2TAY,2F893265-698D-4919-9972-1F2B1CEF0233,2023-09-26_06h37.37.398,WP_VExplicitOC_LH,2022.2.5,Win32,22.06823498,NA,NA,NA,NA,NA,NA,NA,NA,NA,NA,NA,-3.385416667,2.4333,0,2,2,2,1,stretch,003.png,NA,NA,NA,NA,NA,NA,NA,NA,NA,NA,NA,NA,NA,NA,NA,NA,NA,NA,NA,NA,NA,NA,NA,NA,NA,NA,NA,NA,NA,NA,NA,NA,NA,NA,NA,NA,NA,NA,NA
SUPAMT21106,3WSELTNVR91B0TPS81HHZG6YZE2TAY,2F893265-698D-4919-9972-1F2B1CEF0233,2023-09-26_06h37.37.398,WP_VExplicitOC_LH,2022.2.5,Win32,22.06823498,NA,NA,NA,NA,NA,NA,NA,NA,NA,NA,NA,22.65625,3.6622,0,3,3,3,1,make a drink,004.png,NA,NA,NA,NA,NA,NA,NA,NA,NA,NA,NA,NA,NA,NA,NA,NA,NA,NA,NA,NA,NA,NA,NA,NA,NA,NA,NA,NA,NA,NA,NA,NA,NA,NA,NA,NA,NA,NA,NA
SUPAMT21106,3WSELTNVR91B0TPS81HHZG6YZE2TAY,2F893265-698D-4919-9972-1F2B1CEF0233,2023-09-26_06h37.37.398,WP_VExplicitOC_LH,2022.2.5,Win32,22.06823498,NA,NA,NA,NA,NA,NA,NA,NA,NA,NA,NA,29.94791667,3.1515,0,4,4,4,1,scroll social media,005.png,NA,NA,NA,NA,NA,NA,NA,NA,NA,NA,NA,NA,NA,NA,NA,NA,NA,NA,NA,NA,NA,NA,NA,NA,NA,NA,NA,NA,NA,NA,NA,NA,NA,NA,NA,NA,NA,NA,NA
SUPAMT21106,3WSELTNVR91B0TPS81HHZG6YZE2TAY,2F893265-698D-4919-9972-1F2B1CEF0233,2023-09-26_06h37.37.398,WP_VExplicitOC_LH,2022.2.5,Win32,22.06823498,NA,NA,NA,NA,NA,NA,NA,NA,NA,NA,NA,1.822916667,4.3245,0,5,5,5,1,listen to music,006.png,NA,NA,NA,NA,NA,NA,NA,NA,NA,NA,NA,NA,NA,NA,NA,NA,NA,NA,NA,NA,NA,NA,NA,NA,NA,NA,NA,NA,NA,NA,NA,NA,NA,NA,NA,NA,NA,NA,NA
SUPAMT21106,3WSELTNVR91B0TPS81HHZG6YZE2TAY,2F893265-698D-4919-9972-1F2B1CEF0233,2023-09-26_06h37.37.398,WP_VExplicitOC_LH,2022.2.5,Win32,22.06823498,NA,NA,NA,NA,NA,NA,NA,NA,NA,NA,NA,-54.16666667,0.7826,0,6,6,6,1,daydream,007.png,NA,NA,NA,NA,NA,NA,NA,NA,NA,NA,NA,NA,NA,NA,NA,NA,NA,NA,NA,NA,NA,NA,NA,NA,NA,NA,NA,NA,NA,NA,NA,NA,NA,NA,NA,NA,NA,NA,NA
SUPAMT21106,3WSELTNVR91B0TPS81HHZG6YZE2TAY,2F893265-698D-4919-9972-1F2B1CEF0233,2023-09-26_06h37.37.398,WP_VExplicitOC_LH,2022.2.5,Win32,22.06823498,NA,NA,NA,NA,NA,NA,NA,NA,NA,NA,NA,32.55208333,2.3209,0,7,7,7,1,watch a short animation,008.png,NA,NA,NA,NA,NA,NA,NA,NA,NA,NA,NA,NA,NA,NA,NA,NA,NA,NA,NA,NA,NA,NA,NA,NA,NA,NA,NA,NA,NA,NA,NA,NA,NA,NA,NA,NA,NA,NA,NA
SUPAMT21106,3WSELTNVR91B0TPS81HHZG6YZE2TAY,2F893265-698D-4919-9972-1F2B1CEF0233,2023-09-26_06h37.37.398,WP_VExplicitOC_LH,2022.2.5,Win32,22.06823498,NA,NA,NA,NA,NA,NA,NA,NA,NA,NA,NA,40.36458333,1.7647,0,8,8,8,1,read a novel,009.png,NA,NA,NA,NA,NA,NA,NA,NA,NA,NA,NA,NA,NA,NA,NA,NA,NA,NA,NA,NA,NA,NA,NA,NA,NA,NA,NA,NA,NA,NA,NA,NA,NA,NA,NA,NA,NA,NA,NA
SUPAMT21106,3WSELTNVR91B0TPS81HHZG6YZE2TAY,2F893265-698D-4919-9972-1F2B1CEF0233,2023-09-26_06h37.37.398,WP_VExplicitOC_LH,2022.2.5,Win32,22.06823498,NA,NA,NA,NA,NA,NA,NA,NA,NA,NA,NA,87.76041667,1.8512,0,9,9,9,1,read the news,010.png,NA,NA,NA,NA,NA,NA,NA,NA,NA,NA,NA,NA,NA,NA,NA,NA,NA,NA,NA,NA,NA,NA,NA,NA,NA,NA,NA,NA,NA,NA,NA,NA,NA,NA,NA,NA,NA,NA,NA
SUPAMT21106,3WSELTNVR91B0TPS81HHZG6YZE2TAY,2F893265-698D-4919-9972-1F2B1CEF0233,2023-09-26_06h37.37.398,WP_VExplicitOC_LH,2022.2.5,Win32,22.06823498,NA,NA,NA,NA,NA,NA,NA,NA,NA,NA,NA,NA,NA,NA,NA,NA,NA,NA,NA,NA,NA,NA,NA,NA,NA,NA,NA,NA,NA,NA,NA,NA,NA,NA,NA,NA,NA,NA,NA,NA,NA,NA,NA,NA,NA,NA,NA,NA,NA,NA,NA,NA,NA,NA,NA,NA,NA,NA,NA
SUPAMT21106,3WSELTNVR91B0TPS81HHZG6YZE2TAY,2F893265-698D-4919-9972-1F2B1CEF0233,2023-09-26_06h37.37.398,WP_VExplicitOC_LH,2022.2.5,Win32,22.06823498,NA,NA,NA,NA,NA,NA,NA,NA,NA,NA,NA,NA,NA,NA,NA,NA,NA,NA,NA,NA,daydream,NA,NA,NA,NA,NA,NA,NA,NA,NA,NA,NA,NA,NA,NA,NA,NA,NA,NA,NA,NA,NA,NA,NA,NA,NA,NA,NA,NA,NA,NA,NA,NA,NA,NA,NA,NA,NA,NA
SUPAMT21106,3WSELTNVR91B0TPS81HHZG6YZE2TAY,2F893265-698D-4919-9972-1F2B1CEF0233,2023-09-26_06h37.37.398,WP_VExplicitOC_LH,2022.2.5,Win32,22.06823498,36.71875,4.8854,2.007,NA,NA,NA,NA,NA,frustrated,"frustrated, not frustrated","more frustrated, less frustrated",NA,NA,NA,NA,NA,NA,NA,NA,NA,NA,0,0,0,1,1,NA,NA,NA,NA,NA,NA,NA,NA,NA,NA,NA,NA,NA,NA,NA,NA,NA,NA,NA,NA,NA,NA,NA,NA,NA,NA,NA,NA,NA,NA,NA,NA,NA
SUPAMT21106,3WSELTNVR91B0TPS81HHZG6YZE2TAY,2F893265-698D-4919-9972-1F2B1CEF0233,2023-09-26_06h37.37.398,WP_VExplicitOC_LH,2022.2.5,Win32,22.06823498,-26.82291667,5.2042,2.0085,NA,NA,NA,NA,NA,bored,"bored, not bored","more bored, less bored",NA,NA,NA,NA,NA,NA,NA,NA,NA,NA,0,1,1,2,1,NA,NA,NA,NA,NA,NA,NA,NA,NA,NA,NA,NA,NA,NA,NA,NA,NA,NA,NA,NA,NA,NA,NA,NA,NA,NA,NA,NA,NA,NA,NA,NA,NA
SUPAMT21106,3WSELTNVR91B0TPS81HHZG6YZE2TAY,2F893265-698D-4919-9972-1F2B1CEF0233,2023-09-26_06h37.37.398,WP_VExplicitOC_LH,2022.2.5,Win32,22.06823498,37.76041667,3.4528,2.0265,NA,NA,NA,NA,NA,happy,"unhappy, happy","less happy, more happy",NA,NA,NA,NA,NA,NA,NA,NA,NA,NA,0,2,2,0,1,NA,NA,NA,NA,NA,NA,NA,NA,NA,NA,NA,NA,NA,NA,NA,NA,NA,NA,NA,NA,NA,NA,NA,NA,NA,NA,NA,NA,NA,NA,NA,NA,NA
SUPAMT21106,3WSELTNVR91B0TPS81HHZG6YZE2TAY,2F893265-698D-4919-9972-1F2B1CEF0233,2023-09-26_06h37.37.398,WP_VExplicitOC_LH,2022.2.5,Win32,22.06823498,NA,NA,NA,NA,NA,NA,NA,NA,NA,NA,NA,NA,NA,NA,NA,NA,NA,NA,NA,NA,NA,NA,NA,NA,NA,NA,NA,NA,NA,NA,NA,NA,NA,NA,NA,NA,NA,NA,NA,NA,NA,NA,NA,NA,NA,NA,NA,NA,NA,NA,NA,NA,NA,NA,NA,NA,NA,NA,NA
SUPAMT21106,3WSELTNVR91B0TPS81HHZG6YZE2TAY,2F893265-698D-4919-9972-1F2B1CEF0233,2023-09-26_06h37.37.398,WP_VExplicitOC_LH,2022.2.5,Win32,22.06823498,NA,NA,NA,NA,NA,NA,NA,NA,NA,NA,NA,NA,NA,NA,NA,NA,NA,NA,NA,NA,NA,NA,NA,NA,NA,NA,NA,NA,NA,NA,NA,NA,NA,NA,NA,NA,NA,NA,NA,NA,NA,NA,NA,NA,NA,NA,NA,NA,NA,NA,NA,NA,NA,NA,NA,NA,NA,NA,NA
SUPAMT21106,3WSELTNVR91B0TPS81HHZG6YZE2TAY,2F893265-698D-4919-9972-1F2B1CEF0233,2023-09-26_06h37.37.398,WP_VExplicitOC_LH,2022.2.5,Win32,22.06823498,-21.35416667,6.4883,2.0076,NA,NA,NA,NA,NA,bored,"bored, not bored","more bored, less bored",NA,NA,NA,NA,NA,NA,NA,NA,NA,NA,NA,NA,NA,NA,NA,0,0,0,2,1,NA,NA,NA,NA,NA,NA,NA,NA,NA,NA,NA,NA,NA,NA,NA,NA,NA,NA,NA,NA,NA,NA,NA,NA,NA,NA,NA,NA
SUPAMT21106,3WSELTNVR91B0TPS81HHZG6YZE2TAY,2F893265-698D-4919-9972-1F2B1CEF0233,2023-09-26_06h37.37.398,WP_VExplicitOC_LH,2022.2.5,Win32,22.06823498,90.36458333,3.7655,2.0224,NA,NA,NA,NA,NA,happy,"unhappy, happy","less happy, more happy",NA,NA,NA,NA,NA,NA,NA,NA,NA,NA,NA,NA,NA,NA,NA,0,1,1,0,1,NA,NA,NA,NA,NA,NA,NA,NA,NA,NA,NA,NA,NA,NA,NA,NA,NA,NA,NA,NA,NA,NA,NA,NA,NA,NA,NA,NA
SUPAMT21106,3WSELTNVR91B0TPS81HHZG6YZE2TAY,2F893265-698D-4919-9972-1F2B1CEF0233,2023-09-26_06h37.37.398,WP_VExplicitOC_LH,2022.2.5,Win32,22.06823498,15.625,4.7575,2.0173,NA,NA,NA,NA,NA,frustrated,"frustrated, not frustrated","more frustrated, less frustrated",NA,NA,NA,NA,NA,NA,NA,NA,NA,NA,NA,NA,NA,NA,NA,0,2,2,1,1,NA,NA,NA,NA,NA,NA,NA,NA,NA,NA,NA,NA,NA,NA,NA,NA,NA,NA,NA,NA,NA,NA,NA,NA,NA,NA,NA,NA
SUPAMT21106,3WSELTNVR91B0TPS81HHZG6YZE2TAY,2F893265-698D-4919-9972-1F2B1CEF0233,2023-09-26_06h37.37.398,WP_VExplicitOC_LH,2022.2.5,Win32,22.06823498,NA,NA,NA,NA,NA,NA,NA,NA,NA,NA,NA,NA,NA,NA,NA,NA,NA,NA,NA,NA,NA,NA,NA,NA,NA,NA,NA,NA,NA,NA,NA,0,0,0,0,1,NA,NA,NA,NA,NA,NA,NA,NA,NA,NA,NA,NA,NA,NA,NA,NA,NA,NA,NA,NA,NA,NA,NA
SUPAMT21106,3WSELTNVR91B0TPS81HHZG6YZE2TAY,2F893265-698D-4919-9972-1F2B1CEF0233,2023-09-26_06h37.37.398,WP_VExplicitOC_LH,2022.2.5,Win32,22.06823498,47.13541667,6.0524,2.0182,NA,NA,NA,NA,NA,bored,"bored, not bored","more bored, less bored",NA,NA,NA,NA,NA,NA,NA,NA,NA,NA,NA,NA,NA,NA,NA,0,0,0,2,1,NA,NA,NA,NA,NA,NA,NA,NA,NA,NA,NA,NA,NA,NA,NA,NA,NA,NA,NA,NA,NA,NA,NA,NA,NA,NA,NA,NA
SUPAMT21106,3WSELTNVR91B0TPS81HHZG6YZE2TAY,2F893265-698D-4919-9972-1F2B1CEF0233,2023-09-26_06h37.37.398,WP_VExplicitOC_LH,2022.2.5,Win32,22.06823498,9.114583333,4.935,2.049,NA,NA,NA,NA,NA,frustrated,"frustrated, not frustrated","more frustrated, less frustrated",NA,NA,NA,NA,NA,NA,NA,NA,NA,NA,NA,NA,NA,NA,NA,0,1,1,1,1,NA,NA,NA,NA,NA,NA,NA,NA,NA,NA,NA,NA,NA,NA,NA,NA,NA,NA,NA,NA,NA,NA,NA,NA,NA,NA,NA,NA
SUPAMT21106,3WSELTNVR91B0TPS81HHZG6YZE2TAY,2F893265-698D-4919-9972-1F2B1CEF0233,2023-09-26_06h37.37.398,WP_VExplicitOC_LH,2022.2.5,Win32,22.06823498,60.9375,5.2061,2.0324,NA,NA,NA,NA,NA,happy,"unhappy, happy","less happy, more happy",NA,NA,NA,NA,NA,NA,NA,NA,NA,NA,NA,NA,NA,NA,NA,0,2,2,0,1,NA,NA,NA,NA,NA,NA,NA,NA,NA,NA,NA,NA,NA,NA,NA,NA,NA,NA,NA,NA,NA,NA,NA,NA,NA,NA,NA,NA
SUPAMT21106,3WSELTNVR91B0TPS81HHZG6YZE2TAY,2F893265-698D-4919-9972-1F2B1CEF0233,2023-09-26_06h37.37.398,WP_VExplicitOC_LH,2022.2.5,Win32,22.06823498,NA,NA,NA,NA,NA,NA,NA,NA,NA,NA,NA,NA,NA,NA,NA,NA,NA,NA,NA,NA,NA,NA,NA,NA,NA,NA,NA,NA,NA,NA,NA,1,0,1,0,1,NA,NA,NA,NA,NA,NA,NA,NA,NA,NA,NA,NA,NA,NA,NA,NA,NA,NA,NA,NA,NA,NA,NA
SUPAMT21106,3WSELTNVR91B0TPS81HHZG6YZE2TAY,2F893265-698D-4919-9972-1F2B1CEF0233,2023-09-26_06h37.37.398,WP_VExplicitOC_LH,2022.2.5,Win32,22.06823498,24.73958333,4.5144,2.0041,NA,NA,NA,NA,NA,happy,"unhappy, happy","less happy, more happy",NA,NA,NA,NA,NA,NA,NA,NA,NA,NA,NA,NA,NA,NA,NA,0,0,0,0,1,NA,NA,NA,NA,NA,NA,NA,NA,NA,NA,NA,NA,NA,NA,NA,NA,NA,NA,NA,NA,NA,NA,NA,NA,NA,NA,NA,NA
SUPAMT21106,3WSELTNVR91B0TPS81HHZG6YZE2TAY,2F893265-698D-4919-9972-1F2B1CEF0233,2023-09-26_06h37.37.398,WP_VExplicitOC_LH,2022.2.5,Win32,22.06823498,52.86458333,3.8016,2.0625,NA,NA,NA,NA,NA,frustrated,"frustrated, not frustrated","more frustrated, less frustrated",NA,NA,NA,NA,NA,NA,NA,NA,NA,NA,NA,NA,NA,NA,NA,0,1,1,1,1,NA,NA,NA,NA,NA,NA,NA,NA,NA,NA,NA,NA,NA,NA,NA,NA,NA,NA,NA,NA,NA,NA,NA,NA,NA,NA,NA,NA
SUPAMT21106,3WSELTNVR91B0TPS81HHZG6YZE2TAY,2F893265-698D-4919-9972-1F2B1CEF0233,2023-09-26_06h37.37.398,WP_VExplicitOC_LH,2022.2.5,Win32,22.06823498,-69.53125,3.7602,2.0199,NA,NA,NA,NA,NA,bored,"bored, not bored","more bored, less bored",NA,NA,NA,NA,NA,NA,NA,NA,NA,NA,NA,NA,NA,NA,NA,0,2,2,2,1,NA,NA,NA,NA,NA,NA,NA,NA,NA,NA,NA,NA,NA,NA,NA,NA,NA,NA,NA,NA,NA,NA,NA,NA,NA,NA,NA,NA
SUPAMT21106,3WSELTNVR91B0TPS81HHZG6YZE2TAY,2F893265-698D-4919-9972-1F2B1CEF0233,2023-09-26_06h37.37.398,WP_VExplicitOC_LH,2022.2.5,Win32,22.06823498,NA,NA,NA,NA,NA,NA,NA,NA,NA,NA,NA,NA,NA,NA,NA,NA,NA,NA,NA,NA,NA,NA,NA,NA,NA,NA,NA,NA,NA,NA,NA,2,0,2,0,1,NA,NA,NA,NA,NA,NA,NA,NA,NA,NA,NA,NA,NA,NA,NA,NA,NA,NA,NA,NA,NA,NA,NA
SUPAMT21106,3WSELTNVR91B0TPS81HHZG6YZE2TAY,2F893265-698D-4919-9972-1F2B1CEF0233,2023-09-26_06h37.37.398,WP_VExplicitOC_LH,2022.2.5,Win32,22.06823498,30.98958333,5.487,2.0557,NA,NA,NA,NA,NA,frustrated,"frustrated, not frustrated","more frustrated, less frustrated",NA,NA,NA,NA,NA,NA,NA,NA,NA,NA,NA,NA,NA,NA,NA,0,0,0,1,1,NA,NA,NA,NA,NA,NA,NA,NA,NA,NA,NA,NA,NA,NA,NA,NA,NA,NA,NA,NA,NA,NA,NA,NA,NA,NA,NA,NA
SUPAMT21106,3WSELTNVR91B0TPS81HHZG6YZE2TAY,2F893265-698D-4919-9972-1F2B1CEF0233,2023-09-26_06h37.37.398,WP_VExplicitOC_LH,2022.2.5,Win32,22.06823498,-47.65625,4.121,2.0143,NA,NA,NA,NA,NA,bored,"bored, not bored","more bored, less bored",NA,NA,NA,NA,NA,NA,NA,NA,NA,NA,NA,NA,NA,NA,NA,0,1,1,2,1,NA,NA,NA,NA,NA,NA,NA,NA,NA,NA,NA,NA,NA,NA,NA,NA,NA,NA,NA,NA,NA,NA,NA,NA,NA,NA,NA,NA
SUPAMT21106,3WSELTNVR91B0TPS81HHZG6YZE2TAY,2F893265-698D-4919-9972-1F2B1CEF0233,2023-09-26_06h37.37.398,WP_VExplicitOC_LH,2022.2.5,Win32,22.06823498,79.94791667,3.4936,2.0621,NA,NA,NA,NA,NA,happy,"unhappy, happy","less happy, more happy",NA,NA,NA,NA,NA,NA,NA,NA,NA,NA,NA,NA,NA,NA,NA,0,2,2,0,1,NA,NA,NA,NA,NA,NA,NA,NA,NA,NA,NA,NA,NA,NA,NA,NA,NA,NA,NA,NA,NA,NA,NA,NA,NA,NA,NA,NA
SUPAMT21106,3WSELTNVR91B0TPS81HHZG6YZE2TAY,2F893265-698D-4919-9972-1F2B1CEF0233,2023-09-26_06h37.37.398,WP_VExplicitOC_LH,2022.2.5,Win32,22.06823498,NA,NA,NA,NA,NA,NA,NA,NA,NA,NA,NA,NA,NA,NA,NA,NA,NA,NA,NA,NA,NA,NA,NA,NA,NA,NA,NA,NA,NA,NA,NA,3,0,3,0,1,NA,NA,NA,NA,NA,NA,NA,NA,NA,NA,NA,NA,NA,NA,NA,NA,NA,NA,NA,NA,NA,NA,NA
SUPAMT21106,3WSELTNVR91B0TPS81HHZG6YZE2TAY,2F893265-698D-4919-9972-1F2B1CEF0233,2023-09-26_06h37.37.398,WP_VExplicitOC_LH,2022.2.5,Win32,22.06823498,66.66666667,4.7453,2.013,NA,NA,NA,NA,NA,frustrated,"frustrated, not frustrated","more frustrated, less frustrated",NA,NA,NA,NA,NA,NA,NA,NA,NA,NA,NA,NA,NA,NA,NA,0,0,0,1,1,NA,NA,NA,NA,NA,NA,NA,NA,NA,NA,NA,NA,NA,NA,NA,NA,NA,NA,NA,NA,NA,NA,NA,NA,NA,NA,NA,NA
SUPAMT21106,3WSELTNVR91B0TPS81HHZG6YZE2TAY,2F893265-698D-4919-9972-1F2B1CEF0233,2023-09-26_06h37.37.398,WP_VExplicitOC_LH,2022.2.5,Win32,22.06823498,52.08333333,3.9248,2.0395,NA,NA,NA,NA,NA,happy,"unhappy, happy","less happy, more happy",NA,NA,NA,NA,NA,NA,NA,NA,NA,NA,NA,NA,NA,NA,NA,0,1,1,0,1,NA,NA,NA,NA,NA,NA,NA,NA,NA,NA,NA,NA,NA,NA,NA,NA,NA,NA,NA,NA,NA,NA,NA,NA,NA,NA,NA,NA
SUPAMT21106,3WSELTNVR91B0TPS81HHZG6YZE2TAY,2F893265-698D-4919-9972-1F2B1CEF0233,2023-09-26_06h37.37.398,WP_VExplicitOC_LH,2022.2.5,Win32,22.06823498,-28.125,4.2173,2.0889,NA,NA,NA,NA,NA,bored,"bored, not bored","more bored, less bored",NA,NA,NA,NA,NA,NA,NA,NA,NA,NA,NA,NA,NA,NA,NA,0,2,2,2,1,NA,NA,NA,NA,NA,NA,NA,NA,NA,NA,NA,NA,NA,NA,NA,NA,NA,NA,NA,NA,NA,NA,NA,NA,NA,NA,NA,NA
SUPAMT21106,3WSELTNVR91B0TPS81HHZG6YZE2TAY,2F893265-698D-4919-9972-1F2B1CEF0233,2023-09-26_06h37.37.398,WP_VExplicitOC_LH,2022.2.5,Win32,22.06823498,NA,NA,NA,NA,NA,NA,NA,NA,NA,NA,NA,NA,NA,NA,NA,NA,NA,NA,NA,NA,NA,NA,NA,NA,NA,NA,NA,NA,NA,NA,NA,4,0,4,0,1,NA,NA,NA,NA,NA,NA,NA,NA,NA,NA,NA,NA,NA,NA,NA,NA,NA,NA,NA,NA,NA,NA,NA
SUPAMT21106,3WSELTNVR91B0TPS81HHZG6YZE2TAY,2F893265-698D-4919-9972-1F2B1CEF0233,2023-09-26_06h37.37.398,WP_VExplicitOC_LH,2022.2.5,Win32,22.06823498,-36.97916667,3.9655,2.0369,NA,NA,NA,NA,NA,frustrated,"frustrated, not frustrated","more frustrated, less frustrated",NA,NA,NA,NA,NA,NA,NA,NA,NA,NA,NA,NA,NA,NA,NA,0,0,0,1,1,NA,NA,NA,NA,NA,NA,NA,NA,NA,NA,NA,NA,NA,NA,NA,NA,NA,NA,NA,NA,NA,NA,NA,NA,NA,NA,NA,NA
SUPAMT21106,3WSELTNVR91B0TPS81HHZG6YZE2TAY,2F893265-698D-4919-9972-1F2B1CEF0233,2023-09-26_06h37.37.398,WP_VExplicitOC_LH,2022.2.5,Win32,22.06823498,37.76041667,4.076,2.004,NA,NA,NA,NA,NA,bored,"bored, not bored","more bored, less bored",NA,NA,NA,NA,NA,NA,NA,NA,NA,NA,NA,NA,NA,NA,NA,0,1,1,2,1,NA,NA,NA,NA,NA,NA,NA,NA,NA,NA,NA,NA,NA,NA,NA,NA,NA,NA,NA,NA,NA,NA,NA,NA,NA,NA,NA,NA
SUPAMT21106,3WSELTNVR91B0TPS81HHZG6YZE2TAY,2F893265-698D-4919-9972-1F2B1CEF0233,2023-09-26_06h37.37.398,WP_VExplicitOC_LH,2022.2.5,Win32,22.06823498,80.20833333,4.4048,2.0354,NA,NA,NA,NA,NA,happy,"unhappy, happy","less happy, more happy",NA,NA,NA,NA,NA,NA,NA,NA,NA,NA,NA,NA,NA,NA,NA,0,2,2,0,1,NA,NA,NA,NA,NA,NA,NA,NA,NA,NA,NA,NA,NA,NA,NA,NA,NA,NA,NA,NA,NA,NA,NA,NA,NA,NA,NA,NA
SUPAMT21106,3WSELTNVR91B0TPS81HHZG6YZE2TAY,2F893265-698D-4919-9972-1F2B1CEF0233,2023-09-26_06h37.37.398,WP_VExplicitOC_LH,2022.2.5,Win32,22.06823498,NA,NA,NA,NA,NA,NA,NA,NA,NA,NA,NA,NA,NA,NA,NA,NA,NA,NA,NA,NA,NA,NA,NA,NA,NA,NA,NA,NA,NA,NA,NA,5,0,5,0,1,NA,NA,NA,NA,NA,NA,NA,NA,NA,NA,NA,NA,NA,NA,NA,NA,NA,NA,NA,NA,NA,NA,NA
SUPAMT21106,3WSELTNVR91B0TPS81HHZG6YZE2TAY,2F893265-698D-4919-9972-1F2B1CEF0233,2023-09-26_06h37.37.398,WP_VExplicitOC_LH,2022.2.5,Win32,22.06823498,75,3.8428,2.0737,NA,NA,NA,NA,NA,happy,"unhappy, happy","less happy, more happy",NA,NA,NA,NA,NA,NA,NA,NA,NA,NA,NA,NA,NA,NA,NA,0,0,0,0,1,NA,NA,NA,NA,NA,NA,NA,NA,NA,NA,NA,NA,NA,NA,NA,NA,NA,NA,NA,NA,NA,NA,NA,NA,NA,NA,NA,NA
SUPAMT21106,3WSELTNVR91B0TPS81HHZG6YZE2TAY,2F893265-698D-4919-9972-1F2B1CEF0233,2023-09-26_06h37.37.398,WP_VExplicitOC_LH,2022.2.5,Win32,22.06823498,63.28125,4.2321,2.059,NA,NA,NA,NA,NA,bored,"bored, not bored","more bored, less bored",NA,NA,NA,NA,NA,NA,NA,NA,NA,NA,NA,NA,NA,NA,NA,0,1,1,2,1,NA,NA,NA,NA,NA,NA,NA,NA,NA,NA,NA,NA,NA,NA,NA,NA,NA,NA,NA,NA,NA,NA,NA,NA,NA,NA,NA,NA
SUPAMT21106,3WSELTNVR91B0TPS81HHZG6YZE2TAY,2F893265-698D-4919-9972-1F2B1CEF0233,2023-09-26_06h37.37.398,WP_VExplicitOC_LH,2022.2.5,Win32,22.06823498,-9.895833333,3.587,2.0472,NA,NA,NA,NA,NA,frustrated,"frustrated, not frustrated","more frustrated, less frustrated",NA,NA,NA,NA,NA,NA,NA,NA,NA,NA,NA,NA,NA,NA,NA,0,2,2,1,1,NA,NA,NA,NA,NA,NA,NA,NA,NA,NA,NA,NA,NA,NA,NA,NA,NA,NA,NA,NA,NA,NA,NA,NA,NA,NA,NA,NA
SUPAMT21106,3WSELTNVR91B0TPS81HHZG6YZE2TAY,2F893265-698D-4919-9972-1F2B1CEF0233,2023-09-26_06h37.37.398,WP_VExplicitOC_LH,2022.2.5,Win32,22.06823498,NA,NA,NA,NA,NA,NA,NA,NA,NA,NA,NA,NA,NA,NA,NA,NA,NA,NA,NA,NA,NA,NA,NA,NA,NA,NA,NA,NA,NA,NA,NA,6,0,6,0,1,NA,NA,NA,NA,NA,NA,NA,NA,NA,NA,NA,NA,NA,NA,NA,NA,NA,NA,NA,NA,NA,NA,NA
SUPAMT21106,3WSELTNVR91B0TPS81HHZG6YZE2TAY,2F893265-698D-4919-9972-1F2B1CEF0233,2023-09-26_06h37.37.398,WP_VExplicitOC_LH,2022.2.5,Win32,22.06823498,37.5,3.8527,2.0205,NA,NA,NA,NA,NA,bored,"bored, not bored","more bored, less bored",NA,NA,NA,NA,NA,NA,NA,NA,NA,NA,NA,NA,NA,NA,NA,0,0,0,2,1,NA,NA,NA,NA,NA,NA,NA,NA,NA,NA,NA,NA,NA,NA,NA,NA,NA,NA,NA,NA,NA,NA,NA,NA,NA,NA,NA,NA
SUPAMT21106,3WSELTNVR91B0TPS81HHZG6YZE2TAY,2F893265-698D-4919-9972-1F2B1CEF0233,2023-09-26_06h37.37.398,WP_VExplicitOC_LH,2022.2.5,Win32,22.06823498,46.09375,3.4472,2.0344,NA,NA,NA,NA,NA,frustrated,"frustrated, not frustrated","more frustrated, less frustrated",NA,NA,NA,NA,NA,NA,NA,NA,NA,NA,NA,NA,NA,NA,NA,0,1,1,1,1,NA,NA,NA,NA,NA,NA,NA,NA,NA,NA,NA,NA,NA,NA,NA,NA,NA,NA,NA,NA,NA,NA,NA,NA,NA,NA,NA,NA
SUPAMT21106,3WSELTNVR91B0TPS81HHZG6YZE2TAY,2F893265-698D-4919-9972-1F2B1CEF0233,2023-09-26_06h37.37.398,WP_VExplicitOC_LH,2022.2.5,Win32,22.06823498,88.28125,3.6534,2.0694,NA,NA,NA,NA,NA,happy,"unhappy, happy","less happy, more happy",NA,NA,NA,NA,NA,NA,NA,NA,NA,NA,NA,NA,NA,NA,NA,0,2,2,0,1,NA,NA,NA,NA,NA,NA,NA,NA,NA,NA,NA,NA,NA,NA,NA,NA,NA,NA,NA,NA,NA,NA,NA,NA,NA,NA,NA,NA
SUPAMT21106,3WSELTNVR91B0TPS81HHZG6YZE2TAY,2F893265-698D-4919-9972-1F2B1CEF0233,2023-09-26_06h37.37.398,WP_VExplicitOC_LH,2022.2.5,Win32,22.06823498,NA,NA,NA,NA,NA,NA,NA,NA,NA,NA,NA,NA,NA,NA,NA,NA,NA,NA,NA,NA,NA,NA,NA,NA,NA,NA,NA,NA,NA,NA,NA,7,0,7,0,1,NA,NA,NA,NA,NA,NA,NA,NA,NA,NA,NA,NA,NA,NA,NA,NA,NA,NA,NA,NA,NA,NA,NA
SUPAMT21106,3WSELTNVR91B0TPS81HHZG6YZE2TAY,2F893265-698D-4919-9972-1F2B1CEF0233,2023-09-26_06h37.37.398,WP_VExplicitOC_LH,2022.2.5,Win32,22.06823498,95.3125,3.4127,2.0304,NA,NA,NA,NA,NA,bored,"bored, not bored","more bored, less bored",NA,NA,NA,NA,NA,NA,NA,NA,NA,NA,NA,NA,NA,NA,NA,0,0,0,2,1,NA,NA,NA,NA,NA,NA,NA,NA,NA,NA,NA,NA,NA,NA,NA,NA,NA,NA,NA,NA,NA,NA,NA,NA,NA,NA,NA,NA
SUPAMT21106,3WSELTNVR91B0TPS81HHZG6YZE2TAY,2F893265-698D-4919-9972-1F2B1CEF0233,2023-09-26_06h37.37.398,WP_VExplicitOC_LH,2022.2.5,Win32,22.06823498,61.97916667,3.1133,2.0006,NA,NA,NA,NA,NA,happy,"unhappy, happy","less happy, more happy",NA,NA,NA,NA,NA,NA,NA,NA,NA,NA,NA,NA,NA,NA,NA,0,1,1,0,1,NA,NA,NA,NA,NA,NA,NA,NA,NA,NA,NA,NA,NA,NA,NA,NA,NA,NA,NA,NA,NA,NA,NA,NA,NA,NA,NA,NA
SUPAMT21106,3WSELTNVR91B0TPS81HHZG6YZE2TAY,2F893265-698D-4919-9972-1F2B1CEF0233,2023-09-26_06h37.37.398,WP_VExplicitOC_LH,2022.2.5,Win32,22.06823498,50,3.7683,2.0002,NA,NA,NA,NA,NA,frustrated,"frustrated, not frustrated","more frustrated, less frustrated",NA,NA,NA,NA,NA,NA,NA,NA,NA,NA,NA,NA,NA,NA,NA,0,2,2,1,1,NA,NA,NA,NA,NA,NA,NA,NA,NA,NA,NA,NA,NA,NA,NA,NA,NA,NA,NA,NA,NA,NA,NA,NA,NA,NA,NA,NA
SUPAMT21106,3WSELTNVR91B0TPS81HHZG6YZE2TAY,2F893265-698D-4919-9972-1F2B1CEF0233,2023-09-26_06h37.37.398,WP_VExplicitOC_LH,2022.2.5,Win32,22.06823498,NA,NA,NA,NA,NA,NA,NA,NA,NA,NA,NA,NA,NA,NA,NA,NA,NA,NA,NA,NA,NA,NA,NA,NA,NA,NA,NA,NA,NA,NA,NA,8,0,8,0,1,NA,NA,NA,NA,NA,NA,NA,NA,NA,NA,NA,NA,NA,NA,NA,NA,NA,NA,NA,NA,NA,NA,NA
SUPAMT21106,3WSELTNVR91B0TPS81HHZG6YZE2TAY,2F893265-698D-4919-9972-1F2B1CEF0233,2023-09-26_06h37.37.398,WP_VExplicitOC_LH,2022.2.5,Win32,22.06823498,41.92708333,4.6866,2.009,NA,NA,NA,NA,NA,bored,"bored, not bored","more bored, less bored",NA,NA,NA,NA,NA,NA,NA,NA,NA,NA,NA,NA,NA,NA,NA,0,0,0,2,1,NA,NA,NA,NA,NA,NA,NA,NA,NA,NA,NA,NA,NA,NA,NA,NA,NA,NA,NA,NA,NA,NA,NA,NA,NA,NA,NA,NA
SUPAMT21106,3WSELTNVR91B0TPS81HHZG6YZE2TAY,2F893265-698D-4919-9972-1F2B1CEF0233,2023-09-26_06h37.37.398,WP_VExplicitOC_LH,2022.2.5,Win32,22.06823498,47.13541667,4.562,2.0243,NA,NA,NA,NA,NA,happy,"unhappy, happy","less happy, more happy",NA,NA,NA,NA,NA,NA,NA,NA,NA,NA,NA,NA,NA,NA,NA,0,1,1,0,1,NA,NA,NA,NA,NA,NA,NA,NA,NA,NA,NA,NA,NA,NA,NA,NA,NA,NA,NA,NA,NA,NA,NA,NA,NA,NA,NA,NA
SUPAMT21106,3WSELTNVR91B0TPS81HHZG6YZE2TAY,2F893265-698D-4919-9972-1F2B1CEF0233,2023-09-26_06h37.37.398,WP_VExplicitOC_LH,2022.2.5,Win32,22.06823498,100,4.8292,2.026,NA,NA,NA,NA,NA,frustrated,"frustrated, not frustrated","more frustrated, less frustrated",NA,NA,NA,NA,NA,NA,NA,NA,NA,NA,NA,NA,NA,NA,NA,0,2,2,1,1,NA,NA,NA,NA,NA,NA,NA,NA,NA,NA,NA,NA,NA,NA,NA,NA,NA,NA,NA,NA,NA,NA,NA,NA,NA,NA,NA,NA
SUPAMT21106,3WSELTNVR91B0TPS81HHZG6YZE2TAY,2F893265-698D-4919-9972-1F2B1CEF0233,2023-09-26_06h37.37.398,WP_VExplicitOC_LH,2022.2.5,Win32,22.06823498,NA,NA,NA,NA,NA,NA,NA,NA,NA,NA,NA,NA,NA,NA,NA,NA,NA,NA,NA,NA,NA,NA,NA,NA,NA,NA,NA,NA,NA,NA,NA,9,0,9,0,1,NA,NA,NA,NA,NA,NA,NA,NA,NA,NA,NA,NA,NA,NA,NA,NA,NA,NA,NA,NA,NA,NA,NA
SUPAMT21106,3WSELTNVR91B0TPS81HHZG6YZE2TAY,2F893265-698D-4919-9972-1F2B1CEF0233,2023-09-26_06h37.37.398,WP_VExplicitOC_LH,2022.2.5,Win32,22.06823498,9.114583333,2.1925,2.0164,NA,NA,NA,NA,NA,bored,"bored, not bored","more bored, less bored",NA,NA,NA,NA,NA,NA,NA,NA,NA,NA,NA,NA,NA,NA,NA,0,0,0,2,1,NA,NA,NA,NA,NA,NA,NA,NA,NA,NA,NA,NA,NA,NA,NA,NA,NA,NA,NA,NA,NA,NA,NA,NA,NA,NA,NA,NA
SUPAMT21106,3WSELTNVR91B0TPS81HHZG6YZE2TAY,2F893265-698D-4919-9972-1F2B1CEF0233,2023-09-26_06h37.37.398,WP_VExplicitOC_LH,2022.2.5,Win32,22.06823498,68.22916667,3.4774,2.0663,NA,NA,NA,NA,NA,happy,"unhappy, happy","less happy, more happy",NA,NA,NA,NA,NA,NA,NA,NA,NA,NA,NA,NA,NA,NA,NA,0,1,1,0,1,NA,NA,NA,NA,NA,NA,NA,NA,NA,NA,NA,NA,NA,NA,NA,NA,NA,NA,NA,NA,NA,NA,NA,NA,NA,NA,NA,NA
SUPAMT21106,3WSELTNVR91B0TPS81HHZG6YZE2TAY,2F893265-698D-4919-9972-1F2B1CEF0233,2023-09-26_06h37.37.398,WP_VExplicitOC_LH,2022.2.5,Win32,22.06823498,55.98958333,4.6667,2.0467,NA,NA,NA,NA,NA,frustrated,"frustrated, not frustrated","more frustrated, less frustrated",NA,NA,NA,NA,NA,NA,NA,NA,NA,NA,NA,NA,NA,NA,NA,0,2,2,1,1,NA,NA,NA,NA,NA,NA,NA,NA,NA,NA,NA,NA,NA,NA,NA,NA,NA,NA,NA,NA,NA,NA,NA,NA,NA,NA,NA,NA
SUPAMT21106,3WSELTNVR91B0TPS81HHZG6YZE2TAY,2F893265-698D-4919-9972-1F2B1CEF0233,2023-09-26_06h37.37.398,WP_VExplicitOC_LH,2022.2.5,Win32,22.06823498,NA,NA,NA,NA,NA,NA,NA,NA,NA,NA,NA,NA,NA,NA,NA,NA,NA,NA,NA,NA,NA,NA,NA,NA,NA,NA,NA,NA,NA,NA,NA,10,0,10,0,1,NA,NA,NA,NA,NA,NA,NA,NA,NA,NA,NA,NA,NA,NA,NA,NA,NA,NA,NA,NA,NA,NA,NA
SUPAMT21106,3WSELTNVR91B0TPS81HHZG6YZE2TAY,2F893265-698D-4919-9972-1F2B1CEF0233,2023-09-26_06h37.37.398,WP_VExplicitOC_LH,2022.2.5,Win32,22.06823498,76.82291667,6.7473,2.0251,NA,NA,NA,NA,NA,happy,"unhappy, happy","less happy, more happy",NA,NA,NA,NA,NA,NA,NA,NA,NA,NA,NA,NA,NA,NA,NA,0,0,0,0,1,NA,NA,NA,NA,NA,NA,NA,NA,NA,NA,NA,NA,NA,NA,NA,NA,NA,NA,NA,NA,NA,NA,NA,NA,NA,NA,NA,NA
SUPAMT21106,3WSELTNVR91B0TPS81HHZG6YZE2TAY,2F893265-698D-4919-9972-1F2B1CEF0233,2023-09-26_06h37.37.398,WP_VExplicitOC_LH,2022.2.5,Win32,22.06823498,46.09375,4.0963,2.016,NA,NA,NA,NA,NA,frustrated,"frustrated, not frustrated","more frustrated, less frustrated",NA,NA,NA,NA,NA,NA,NA,NA,NA,NA,NA,NA,NA,NA,NA,0,1,1,1,1,NA,NA,NA,NA,NA,NA,NA,NA,NA,NA,NA,NA,NA,NA,NA,NA,NA,NA,NA,NA,NA,NA,NA,NA,NA,NA,NA,NA
SUPAMT21106,3WSELTNVR91B0TPS81HHZG6YZE2TAY,2F893265-698D-4919-9972-1F2B1CEF0233,2023-09-26_06h37.37.398,WP_VExplicitOC_LH,2022.2.5,Win32,22.06823498,26.04166667,3.7005,2.0497,NA,NA,NA,NA,NA,bored,"bored, not bored","more bored, less bored",NA,NA,NA,NA,NA,NA,NA,NA,NA,NA,NA,NA,NA,NA,NA,0,2,2,2,1,NA,NA,NA,NA,NA,NA,NA,NA,NA,NA,NA,NA,NA,NA,NA,NA,NA,NA,NA,NA,NA,NA,NA,NA,NA,NA,NA,NA
SUPAMT21106,3WSELTNVR91B0TPS81HHZG6YZE2TAY,2F893265-698D-4919-9972-1F2B1CEF0233,2023-09-26_06h37.37.398,WP_VExplicitOC_LH,2022.2.5,Win32,22.06823498,NA,NA,NA,NA,NA,NA,NA,NA,NA,NA,NA,NA,NA,NA,NA,NA,NA,NA,NA,NA,NA,NA,NA,NA,NA,NA,NA,NA,NA,NA,NA,11,0,11,0,1,NA,NA,NA,NA,NA,NA,NA,NA,NA,NA,NA,NA,NA,NA,NA,NA,NA,NA,NA,NA,NA,NA,NA
SUPAMT21106,3WSELTNVR91B0TPS81HHZG6YZE2TAY,2F893265-698D-4919-9972-1F2B1CEF0233,2023-09-26_06h37.37.398,WP_VExplicitOC_LH,2022.2.5,Win32,22.06823498,70.05208333,4.0414,2.0698,NA,NA,NA,NA,NA,bored,"bored, not bored","more bored, less bored",NA,NA,NA,NA,NA,NA,NA,NA,NA,NA,NA,NA,NA,NA,NA,0,0,0,2,1,NA,NA,NA,NA,NA,NA,NA,NA,NA,NA,NA,NA,NA,NA,NA,NA,NA,NA,NA,NA,NA,NA,NA,NA,NA,NA,NA,NA
SUPAMT21106,3WSELTNVR91B0TPS81HHZG6YZE2TAY,2F893265-698D-4919-9972-1F2B1CEF0233,2023-09-26_06h37.37.398,WP_VExplicitOC_LH,2022.2.5,Win32,22.06823498,100,3.7823,2.0128,NA,NA,NA,NA,NA,happy,"unhappy, happy","less happy, more happy",NA,NA,NA,NA,NA,NA,NA,NA,NA,NA,NA,NA,NA,NA,NA,0,1,1,0,1,NA,NA,NA,NA,NA,NA,NA,NA,NA,NA,NA,NA,NA,NA,NA,NA,NA,NA,NA,NA,NA,NA,NA,NA,NA,NA,NA,NA
SUPAMT21106,3WSELTNVR91B0TPS81HHZG6YZE2TAY,2F893265-698D-4919-9972-1F2B1CEF0233,2023-09-26_06h37.37.398,WP_VExplicitOC_LH,2022.2.5,Win32,22.06823498,100,4.253,2.0132,NA,NA,NA,NA,NA,frustrated,"frustrated, not frustrated","more frustrated, less frustrated",NA,NA,NA,NA,NA,NA,NA,NA,NA,NA,NA,NA,NA,NA,NA,0,2,2,1,1,NA,NA,NA,NA,NA,NA,NA,NA,NA,NA,NA,NA,NA,NA,NA,NA,NA,NA,NA,NA,NA,NA,NA,NA,NA,NA,NA,NA
SUPAMT21106,3WSELTNVR91B0TPS81HHZG6YZE2TAY,2F893265-698D-4919-9972-1F2B1CEF0233,2023-09-26_06h37.37.398,WP_VExplicitOC_LH,2022.2.5,Win32,22.06823498,NA,NA,NA,NA,NA,NA,NA,NA,NA,NA,NA,NA,NA,NA,NA,NA,NA,NA,NA,NA,NA,NA,NA,NA,NA,NA,NA,NA,NA,NA,NA,12,0,12,0,1,NA,NA,NA,NA,NA,NA,NA,NA,NA,NA,NA,NA,NA,NA,NA,NA,NA,NA,NA,NA,NA,NA,NA
SUPAMT21106,3WSELTNVR91B0TPS81HHZG6YZE2TAY,2F893265-698D-4919-9972-1F2B1CEF0233,2023-09-26_06h37.37.398,WP_VExplicitOC_LH,2022.2.5,Win32,22.06823498,78.38541667,3.3696,2.0669,NA,NA,NA,NA,NA,frustrated,"frustrated, not frustrated","more frustrated, less frustrated",NA,NA,NA,NA,NA,NA,NA,NA,NA,NA,NA,NA,NA,NA,NA,0,0,0,1,1,NA,NA,NA,NA,NA,NA,NA,NA,NA,NA,NA,NA,NA,NA,NA,NA,NA,NA,NA,NA,NA,NA,NA,NA,NA,NA,NA,NA
SUPAMT21106,3WSELTNVR91B0TPS81HHZG6YZE2TAY,2F893265-698D-4919-9972-1F2B1CEF0233,2023-09-26_06h37.37.398,WP_VExplicitOC_LH,2022.2.5,Win32,22.06823498,27.86458333,3.9143,2.0489,NA,NA,NA,NA,NA,happy,"unhappy, happy","less happy, more happy",NA,NA,NA,NA,NA,NA,NA,NA,NA,NA,NA,NA,NA,NA,NA,0,1,1,0,1,NA,NA,NA,NA,NA,NA,NA,NA,NA,NA,NA,NA,NA,NA,NA,NA,NA,NA,NA,NA,NA,NA,NA,NA,NA,NA,NA,NA
SUPAMT21106,3WSELTNVR91B0TPS81HHZG6YZE2TAY,2F893265-698D-4919-9972-1F2B1CEF0233,2023-09-26_06h37.37.398,WP_VExplicitOC_LH,2022.2.5,Win32,22.06823498,100,3.4952,2.073,NA,NA,NA,NA,NA,bored,"bored, not bored","more bored, less bored",NA,NA,NA,NA,NA,NA,NA,NA,NA,NA,NA,NA,NA,NA,NA,0,2,2,2,1,NA,NA,NA,NA,NA,NA,NA,NA,NA,NA,NA,NA,NA,NA,NA,NA,NA,NA,NA,NA,NA,NA,NA,NA,NA,NA,NA,NA
SUPAMT21106,3WSELTNVR91B0TPS81HHZG6YZE2TAY,2F893265-698D-4919-9972-1F2B1CEF0233,2023-09-26_06h37.37.398,WP_VExplicitOC_LH,2022.2.5,Win32,22.06823498,NA,NA,NA,NA,NA,NA,NA,NA,NA,NA,NA,NA,NA,NA,NA,NA,NA,NA,NA,NA,NA,NA,NA,NA,NA,NA,NA,NA,NA,NA,NA,13,0,13,0,1,NA,NA,NA,NA,NA,NA,NA,NA,NA,NA,NA,NA,NA,NA,NA,NA,NA,NA,NA,NA,NA,NA,NA
SUPAMT21106,3WSELTNVR91B0TPS81HHZG6YZE2TAY,2F893265-698D-4919-9972-1F2B1CEF0233,2023-09-26_06h37.37.398,WP_VExplicitOC_LH,2022.2.5,Win32,22.06823498,100,3.5586,2.028,NA,NA,NA,NA,NA,happy,"unhappy, happy","less happy, more happy",NA,NA,NA,NA,NA,NA,NA,NA,NA,NA,NA,NA,NA,NA,NA,0,0,0,0,1,NA,NA,NA,NA,NA,NA,NA,NA,NA,NA,NA,NA,NA,NA,NA,NA,NA,NA,NA,NA,NA,NA,NA,NA,NA,NA,NA,NA
SUPAMT21106,3WSELTNVR91B0TPS81HHZG6YZE2TAY,2F893265-698D-4919-9972-1F2B1CEF0233,2023-09-26_06h37.37.398,WP_VExplicitOC_LH,2022.2.5,Win32,22.06823498,48.17708333,3.8703,2.0839,NA,NA,NA,NA,NA,bored,"bored, not bored","more bored, less bored",NA,NA,NA,NA,NA,NA,NA,NA,NA,NA,NA,NA,NA,NA,NA,0,1,1,2,1,NA,NA,NA,NA,NA,NA,NA,NA,NA,NA,NA,NA,NA,NA,NA,NA,NA,NA,NA,NA,NA,NA,NA,NA,NA,NA,NA,NA
SUPAMT21106,3WSELTNVR91B0TPS81HHZG6YZE2TAY,2F893265-698D-4919-9972-1F2B1CEF0233,2023-09-26_06h37.37.398,WP_VExplicitOC_LH,2022.2.5,Win32,22.06823498,75,3.2078,2.0531,NA,NA,NA,NA,NA,frustrated,"frustrated, not frustrated","more frustrated, less frustrated",NA,NA,NA,NA,NA,NA,NA,NA,NA,NA,NA,NA,NA,NA,NA,0,2,2,1,1,NA,NA,NA,NA,NA,NA,NA,NA,NA,NA,NA,NA,NA,NA,NA,NA,NA,NA,NA,NA,NA,NA,NA,NA,NA,NA,NA,NA
SUPAMT21106,3WSELTNVR91B0TPS81HHZG6YZE2TAY,2F893265-698D-4919-9972-1F2B1CEF0233,2023-09-26_06h37.37.398,WP_VExplicitOC_LH,2022.2.5,Win32,22.06823498,NA,NA,NA,NA,NA,NA,NA,NA,NA,NA,NA,NA,NA,NA,NA,NA,NA,NA,NA,NA,NA,NA,NA,NA,NA,NA,NA,NA,NA,NA,NA,14,0,14,0,1,NA,NA,NA,NA,NA,NA,NA,NA,NA,NA,NA,NA,NA,NA,NA,NA,NA,NA,NA,NA,NA,NA,NA
SUPAMT21106,3WSELTNVR91B0TPS81HHZG6YZE2TAY,2F893265-698D-4919-9972-1F2B1CEF0233,2023-09-26_06h37.37.398,WP_VExplicitOC_LH,2022.2.5,Win32,22.06823498,NA,NA,NA,NA,NA,NA,NA,NA,NA,NA,NA,NA,NA,NA,NA,NA,NA,NA,NA,NA,NA,NA,NA,NA,NA,NA,NA,NA,NA,NA,NA,NA,NA,NA,NA,NA,NA,NA,NA,NA,NA,NA,NA,NA,NA,NA,NA,NA,NA,NA,NA,NA,NA,NA,NA,NA,NA,NA,NA
SUPAMT21106,3WSELTNVR91B0TPS81HHZG6YZE2TAY,2F893265-698D-4919-9972-1F2B1CEF0233,2023-09-26_06h37.37.398,WP_VExplicitOC_LH,2022.2.5,Win32,22.06823498,NA,NA,NA,NA,NA,NA,NA,NA,NA,NA,NA,NA,NA,NA,NA,NA,NA,NA,NA,NA,NA,NA,NA,NA,NA,NA,NA,NA,NA,NA,NA,NA,NA,NA,NA,NA,NA,NA,NA,NA,NA,NA,NA,NA,NA,NA,NA,NA,NA,NA,NA,NA,NA,NA,NA,NA,NA,NA,NA
SUPAMT21106,3WSELTNVR91B0TPS81HHZG6YZE2TAY,2F893265-698D-4919-9972-1F2B1CEF0233,2023-09-26_06h37.37.398,WP_VExplicitOC_LH,2022.2.5,Win32,22.06823498,NA,NA,NA,NA,NA,NA,NA,NA,NA,NA,NA,NA,NA,NA,NA,NA,NA,NA,rest (looking at a fixed cross),001.png,NA,NA,NA,NA,NA,NA,NA,NA,NA,NA,NA,NA,NA,NA,NA,NA,-3.385416667,4.1633,0,0,0,0,1,NA,NA,NA,NA,NA,NA,NA,NA,NA,NA,NA,NA,NA,NA,NA,NA
SUPAMT21106,3WSELTNVR91B0TPS81HHZG6YZE2TAY,2F893265-698D-4919-9972-1F2B1CEF0233,2023-09-26_06h37.37.398,WP_VExplicitOC_LH,2022.2.5,Win32,22.06823498,NA,NA,NA,NA,NA,NA,NA,NA,NA,NA,NA,NA,NA,NA,NA,NA,NA,NA,stand up,002.png,NA,NA,NA,NA,NA,NA,NA,NA,NA,NA,NA,NA,NA,NA,NA,NA,25.78125,0.6049,0,1,1,1,1,NA,NA,NA,NA,NA,NA,NA,NA,NA,NA,NA,NA,NA,NA,NA,NA
SUPAMT21106,3WSELTNVR91B0TPS81HHZG6YZE2TAY,2F893265-698D-4919-9972-1F2B1CEF0233,2023-09-26_06h37.37.398,WP_VExplicitOC_LH,2022.2.5,Win32,22.06823498,NA,NA,NA,NA,NA,NA,NA,NA,NA,NA,NA,NA,NA,NA,NA,NA,NA,NA,stretch,003.png,NA,NA,NA,NA,NA,NA,NA,NA,NA,NA,NA,NA,NA,NA,NA,NA,23.4375,2.4918,0,2,2,2,1,NA,NA,NA,NA,NA,NA,NA,NA,NA,NA,NA,NA,NA,NA,NA,NA
SUPAMT21106,3WSELTNVR91B0TPS81HHZG6YZE2TAY,2F893265-698D-4919-9972-1F2B1CEF0233,2023-09-26_06h37.37.398,WP_VExplicitOC_LH,2022.2.5,Win32,22.06823498,NA,NA,NA,NA,NA,NA,NA,NA,NA,NA,NA,NA,NA,NA,NA,NA,NA,NA,make a drink,004.png,NA,NA,NA,NA,NA,NA,NA,NA,NA,NA,NA,NA,NA,NA,NA,NA,13.02083333,3.0434,0,3,3,3,1,NA,NA,NA,NA,NA,NA,NA,NA,NA,NA,NA,NA,NA,NA,NA,NA
SUPAMT21106,3WSELTNVR91B0TPS81HHZG6YZE2TAY,2F893265-698D-4919-9972-1F2B1CEF0233,2023-09-26_06h37.37.398,WP_VExplicitOC_LH,2022.2.5,Win32,22.06823498,NA,NA,NA,NA,NA,NA,NA,NA,NA,NA,NA,NA,NA,NA,NA,NA,NA,NA,scroll social media,005.png,NA,NA,NA,NA,NA,NA,NA,NA,NA,NA,NA,NA,NA,NA,NA,NA,-27.08333333,3.8331,0,4,4,4,1,NA,NA,NA,NA,NA,NA,NA,NA,NA,NA,NA,NA,NA,NA,NA,NA
SUPAMT21106,3WSELTNVR91B0TPS81HHZG6YZE2TAY,2F893265-698D-4919-9972-1F2B1CEF0233,2023-09-26_06h37.37.398,WP_VExplicitOC_LH,2022.2.5,Win32,22.06823498,NA,NA,NA,NA,NA,NA,NA,NA,NA,NA,NA,NA,NA,NA,NA,NA,NA,NA,listen to music,006.png,NA,NA,NA,NA,NA,NA,NA,NA,NA,NA,NA,NA,NA,NA,NA,NA,52.60416667,2.0144,0,5,5,5,1,NA,NA,NA,NA,NA,NA,NA,NA,NA,NA,NA,NA,NA,NA,NA,NA
SUPAMT21106,3WSELTNVR91B0TPS81HHZG6YZE2TAY,2F893265-698D-4919-9972-1F2B1CEF0233,2023-09-26_06h37.37.398,WP_VExplicitOC_LH,2022.2.5,Win32,22.06823498,NA,NA,NA,NA,NA,NA,NA,NA,NA,NA,NA,NA,NA,NA,NA,NA,NA,NA,daydream,007.png,NA,NA,NA,NA,NA,NA,NA,NA,NA,NA,NA,NA,NA,NA,NA,NA,4.6875,1.757,0,6,6,6,1,NA,NA,NA,NA,NA,NA,NA,NA,NA,NA,NA,NA,NA,NA,NA,NA
SUPAMT21106,3WSELTNVR91B0TPS81HHZG6YZE2TAY,2F893265-698D-4919-9972-1F2B1CEF0233,2023-09-26_06h37.37.398,WP_VExplicitOC_LH,2022.2.5,Win32,22.06823498,NA,NA,NA,NA,NA,NA,NA,NA,NA,NA,NA,NA,NA,NA,NA,NA,NA,NA,watch a short animation,008.png,NA,NA,NA,NA,NA,NA,NA,NA,NA,NA,NA,NA,NA,NA,NA,NA,-13.02083333,0.4524,0,7,7,7,1,NA,NA,NA,NA,NA,NA,NA,NA,NA,NA,NA,NA,NA,NA,NA,NA
SUPAMT21106,3WSELTNVR91B0TPS81HHZG6YZE2TAY,2F893265-698D-4919-9972-1F2B1CEF0233,2023-09-26_06h37.37.398,WP_VExplicitOC_LH,2022.2.5,Win32,22.06823498,NA,NA,NA,NA,NA,NA,NA,NA,NA,NA,NA,NA,NA,NA,NA,NA,NA,NA,read a novel,009.png,NA,NA,NA,NA,NA,NA,NA,NA,NA,NA,NA,NA,NA,NA,NA,NA,20.3125,1.984,0,8,8,8,1,NA,NA,NA,NA,NA,NA,NA,NA,NA,NA,NA,NA,NA,NA,NA,NA
SUPAMT21106,3WSELTNVR91B0TPS81HHZG6YZE2TAY,2F893265-698D-4919-9972-1F2B1CEF0233,2023-09-26_06h37.37.398,WP_VExplicitOC_LH,2022.2.5,Win32,22.06823498,NA,NA,NA,NA,NA,NA,NA,NA,NA,NA,NA,NA,NA,NA,NA,NA,NA,NA,read the news,010.png,NA,NA,NA,NA,NA,NA,NA,NA,NA,NA,NA,NA,NA,NA,NA,NA,93.48958333,2.1584,0,9,9,9,1,NA,NA,NA,NA,NA,NA,NA,NA,NA,NA,NA,NA,NA,NA,NA,NA
SUPAMT21106,3WSELTNVR91B0TPS81HHZG6YZE2TAY,2F893265-698D-4919-9972-1F2B1CEF0233,2023-09-26_06h37.37.398,WP_VExplicitOC_LH,2022.2.5,Win32,22.06823498,NA,NA,NA,NA,NA,NA,NA,NA,NA,NA,NA,NA,NA,NA,NA,NA,NA,NA,NA,NA,NA,NA,NA,NA,NA,NA,NA,NA,NA,NA,NA,NA,NA,NA,NA,NA,NA,NA,NA,NA,NA,NA,NA,read the news,NA,NA,NA,NA,NA,NA,NA,NA,NA,NA,NA,NA,NA,NA,NA
SUPAMT21106,3WSELTNVR91B0TPS81HHZG6YZE2TAY,2F893265-698D-4919-9972-1F2B1CEF0233,2023-09-26_06h37.37.398,WP_VExplicitOC_LH,2022.2.5,Win32,22.06823498,76.30208333,3.6643,2.0303,NA,NA,NA,NA,NA,happy,"unhappy, happy","less happy, more happy",NA,NA,NA,NA,NA,NA,NA,NA,NA,NA,NA,NA,NA,NA,NA,NA,NA,NA,NA,NA,NA,NA,NA,NA,NA,NA,NA,NA,NA,NA,NA,NA,NA,0,0,0,0,1,NA,NA,NA,NA,NA,NA,NA,NA,NA,NA
SUPAMT21106,3WSELTNVR91B0TPS81HHZG6YZE2TAY,2F893265-698D-4919-9972-1F2B1CEF0233,2023-09-26_06h37.37.398,WP_VExplicitOC_LH,2022.2.5,Win32,22.06823498,98.69791667,4.3201,2.0352,NA,NA,NA,NA,NA,bored,"bored, not bored","more bored, less bored",NA,NA,NA,NA,NA,NA,NA,NA,NA,NA,NA,NA,NA,NA,NA,NA,NA,NA,NA,NA,NA,NA,NA,NA,NA,NA,NA,NA,NA,NA,NA,NA,NA,0,1,1,2,1,NA,NA,NA,NA,NA,NA,NA,NA,NA,NA
SUPAMT21106,3WSELTNVR91B0TPS81HHZG6YZE2TAY,2F893265-698D-4919-9972-1F2B1CEF0233,2023-09-26_06h37.37.398,WP_VExplicitOC_LH,2022.2.5,Win32,22.06823498,100,4.1573,2.0493,NA,NA,NA,NA,NA,frustrated,"frustrated, not frustrated","more frustrated, less frustrated",NA,NA,NA,NA,NA,NA,NA,NA,NA,NA,NA,NA,NA,NA,NA,NA,NA,NA,NA,NA,NA,NA,NA,NA,NA,NA,NA,NA,NA,NA,NA,NA,NA,0,2,2,1,1,NA,NA,NA,NA,NA,NA,NA,NA,NA,NA
SUPAMT21106,3WSELTNVR91B0TPS81HHZG6YZE2TAY,2F893265-698D-4919-9972-1F2B1CEF0233,2023-09-26_06h37.37.398,WP_VExplicitOC_LH,2022.2.5,Win32,22.06823498,NA,NA,NA,NA,NA,NA,NA,NA,NA,NA,NA,NA,NA,NA,NA,NA,NA,NA,NA,NA,NA,NA,NA,NA,NA,NA,NA,NA,NA,NA,NA,NA,NA,NA,NA,NA,NA,NA,NA,NA,NA,NA,NA,NA,NA,NA,NA,NA,NA,NA,NA,NA,NA,NA,NA,NA,NA,NA,NA
SUPAMT21106,3WSELTNVR91B0TPS81HHZG6YZE2TAY,2F893265-698D-4919-9972-1F2B1CEF0233,2023-09-26_06h37.37.398,WP_VExplicitOC_LH,2022.2.5,Win32,22.06823498,NA,NA,NA,NA,NA,NA,NA,NA,NA,NA,NA,NA,NA,NA,NA,NA,NA,NA,NA,NA,NA,NA,NA,NA,NA,NA,NA,NA,NA,NA,NA,NA,NA,NA,NA,NA,NA,NA,NA,NA,NA,NA,NA,NA,NA,NA,NA,NA,NA,NA,NA,NA,NA,NA,NA,NA,NA,NA,NA
SUPAMT21106,3WSELTNVR91B0TPS81HHZG6YZE2TAY,2F893265-698D-4919-9972-1F2B1CEF0233,2023-09-26_06h37.37.398,WP_VExplicitOC_LH,2022.2.5,Win32,22.06823498,100,3.4551,2.0618,NA,NA,NA,NA,NA,frustrated,"frustrated, not frustrated","more frustrated, less frustrated",NA,NA,NA,NA,NA,NA,NA,NA,NA,NA,NA,NA,NA,NA,NA,NA,NA,NA,NA,NA,NA,NA,NA,NA,NA,NA,NA,NA,NA,NA,NA,NA,NA,NA,NA,NA,NA,NA,0,0,0,1,1,NA,NA,NA,NA,NA
SUPAMT21106,3WSELTNVR91B0TPS81HHZG6YZE2TAY,2F893265-698D-4919-9972-1F2B1CEF0233,2023-09-26_06h37.37.398,WP_VExplicitOC_LH,2022.2.5,Win32,22.06823498,73.4375,4.4385,2.0869,NA,NA,NA,NA,NA,happy,"unhappy, happy","less happy, more happy",NA,NA,NA,NA,NA,NA,NA,NA,NA,NA,NA,NA,NA,NA,NA,NA,NA,NA,NA,NA,NA,NA,NA,NA,NA,NA,NA,NA,NA,NA,NA,NA,NA,NA,NA,NA,NA,NA,0,1,1,0,1,NA,NA,NA,NA,NA
SUPAMT21106,3WSELTNVR91B0TPS81HHZG6YZE2TAY,2F893265-698D-4919-9972-1F2B1CEF0233,2023-09-26_06h37.37.398,WP_VExplicitOC_LH,2022.2.5,Win32,22.06823498,100,3.3108,2.0004,NA,NA,NA,NA,NA,bored,"bored, not bored","more bored, less bored",NA,NA,NA,NA,NA,NA,NA,NA,NA,NA,NA,NA,NA,NA,NA,NA,NA,NA,NA,NA,NA,NA,NA,NA,NA,NA,NA,NA,NA,NA,NA,NA,NA,NA,NA,NA,NA,NA,0,2,2,2,1,NA,NA,NA,NA,NA
SUPAMT21106,3WSELTNVR91B0TPS81HHZG6YZE2TAY,2F893265-698D-4919-9972-1F2B1CEF0233,2023-09-26_06h37.37.398,WP_VExplicitOC_LH,2022.2.5,Win32,22.06823498,NA,NA,NA,NA,NA,NA,NA,NA,NA,NA,NA,NA,NA,NA,NA,NA,NA,NA,NA,NA,NA,NA,NA,NA,NA,NA,NA,NA,NA,NA,NA,NA,NA,NA,NA,NA,NA,NA,NA,NA,NA,NA,NA,NA,NA,NA,NA,NA,NA,NA,NA,NA,NA,NA,0,0,0,0,1
SUPAMT21106,3WSELTNVR91B0TPS81HHZG6YZE2TAY,2F893265-698D-4919-9972-1F2B1CEF0233,2023-09-26_06h37.37.398,WP_VExplicitOC_LH,2022.2.5,Win32,22.06823498,3.90625,2.4167,2.0683,NA,NA,NA,NA,NA,frustrated,"frustrated, not frustrated","more frustrated, less frustrated",NA,NA,NA,NA,NA,NA,NA,NA,NA,NA,NA,NA,NA,NA,NA,NA,NA,NA,NA,NA,NA,NA,NA,NA,NA,NA,NA,NA,NA,NA,NA,NA,NA,NA,NA,NA,NA,NA,0,0,0,1,1,NA,NA,NA,NA,NA
SUPAMT21106,3WSELTNVR91B0TPS81HHZG6YZE2TAY,2F893265-698D-4919-9972-1F2B1CEF0233,2023-09-26_06h37.37.398,WP_VExplicitOC_LH,2022.2.5,Win32,22.06823498,53.38541667,3.9845,2.0333,NA,NA,NA,NA,NA,happy,"unhappy, happy","less happy, more happy",NA,NA,NA,NA,NA,NA,NA,NA,NA,NA,NA,NA,NA,NA,NA,NA,NA,NA,NA,NA,NA,NA,NA,NA,NA,NA,NA,NA,NA,NA,NA,NA,NA,NA,NA,NA,NA,NA,0,1,1,0,1,NA,NA,NA,NA,NA
SUPAMT21106,3WSELTNVR91B0TPS81HHZG6YZE2TAY,2F893265-698D-4919-9972-1F2B1CEF0233,2023-09-26_06h37.37.398,WP_VExplicitOC_LH,2022.2.5,Win32,22.06823498,57.03125,3.99,2.0578,NA,NA,NA,NA,NA,bored,"bored, not bored","more bored, less bored",NA,NA,NA,NA,NA,NA,NA,NA,NA,NA,NA,NA,NA,NA,NA,NA,NA,NA,NA,NA,NA,NA,NA,NA,NA,NA,NA,NA,NA,NA,NA,NA,NA,NA,NA,NA,NA,NA,0,2,2,2,1,NA,NA,NA,NA,NA
SUPAMT21106,3WSELTNVR91B0TPS81HHZG6YZE2TAY,2F893265-698D-4919-9972-1F2B1CEF0233,2023-09-26_06h37.37.398,WP_VExplicitOC_LH,2022.2.5,Win32,22.06823498,NA,NA,NA,NA,NA,NA,NA,NA,NA,NA,NA,NA,NA,NA,NA,NA,NA,NA,NA,NA,NA,NA,NA,NA,NA,NA,NA,NA,NA,NA,NA,NA,NA,NA,NA,NA,NA,NA,NA,NA,NA,NA,NA,NA,NA,NA,NA,NA,NA,NA,NA,NA,NA,NA,1,0,1,0,1
SUPAMT21106,3WSELTNVR91B0TPS81HHZG6YZE2TAY,2F893265-698D-4919-9972-1F2B1CEF0233,2023-09-26_06h37.37.398,WP_VExplicitOC_LH,2022.2.5,Win32,22.06823498,100,3.7166,2.0104,NA,NA,NA,NA,NA,frustrated,"frustrated, not frustrated","more frustrated, less frustrated",NA,NA,NA,NA,NA,NA,NA,NA,NA,NA,NA,NA,NA,NA,NA,NA,NA,NA,NA,NA,NA,NA,NA,NA,NA,NA,NA,NA,NA,NA,NA,NA,NA,NA,NA,NA,NA,NA,0,0,0,1,1,NA,NA,NA,NA,NA
SUPAMT21106,3WSELTNVR91B0TPS81HHZG6YZE2TAY,2F893265-698D-4919-9972-1F2B1CEF0233,2023-09-26_06h37.37.398,WP_VExplicitOC_LH,2022.2.5,Win32,22.06823498,84.375,3.9475,2.0422,NA,NA,NA,NA,NA,happy,"unhappy, happy","less happy, more happy",NA,NA,NA,NA,NA,NA,NA,NA,NA,NA,NA,NA,NA,NA,NA,NA,NA,NA,NA,NA,NA,NA,NA,NA,NA,NA,NA,NA,NA,NA,NA,NA,NA,NA,NA,NA,NA,NA,0,1,1,0,1,NA,NA,NA,NA,NA
SUPAMT21106,3WSELTNVR91B0TPS81HHZG6YZE2TAY,2F893265-698D-4919-9972-1F2B1CEF0233,2023-09-26_06h37.37.398,WP_VExplicitOC_LH,2022.2.5,Win32,22.06823498,15.10416667,3.1326,2.015,NA,NA,NA,NA,NA,bored,"bored, not bored","more bored, less bored",NA,NA,NA,NA,NA,NA,NA,NA,NA,NA,NA,NA,NA,NA,NA,NA,NA,NA,NA,NA,NA,NA,NA,NA,NA,NA,NA,NA,NA,NA,NA,NA,NA,NA,NA,NA,NA,NA,0,2,2,2,1,NA,NA,NA,NA,NA
SUPAMT21106,3WSELTNVR91B0TPS81HHZG6YZE2TAY,2F893265-698D-4919-9972-1F2B1CEF0233,2023-09-26_06h37.37.398,WP_VExplicitOC_LH,2022.2.5,Win32,22.06823498,NA,NA,NA,NA,NA,NA,NA,NA,NA,NA,NA,NA,NA,NA,NA,NA,NA,NA,NA,NA,NA,NA,NA,NA,NA,NA,NA,NA,NA,NA,NA,NA,NA,NA,NA,NA,NA,NA,NA,NA,NA,NA,NA,NA,NA,NA,NA,NA,NA,NA,NA,NA,NA,NA,2,0,2,0,1
SUPAMT21106,3WSELTNVR91B0TPS81HHZG6YZE2TAY,2F893265-698D-4919-9972-1F2B1CEF0233,2023-09-26_06h37.37.398,WP_VExplicitOC_LH,2022.2.5,Win32,22.06823498,78.90625,3.4051,2.0552,NA,NA,NA,NA,NA,bored,"bored, not bored","more bored, less bored",NA,NA,NA,NA,NA,NA,NA,NA,NA,NA,NA,NA,NA,NA,NA,NA,NA,NA,NA,NA,NA,NA,NA,NA,NA,NA,NA,NA,NA,NA,NA,NA,NA,NA,NA,NA,NA,NA,0,0,0,2,1,NA,NA,NA,NA,NA
SUPAMT21106,3WSELTNVR91B0TPS81HHZG6YZE2TAY,2F893265-698D-4919-9972-1F2B1CEF0233,2023-09-26_06h37.37.398,WP_VExplicitOC_LH,2022.2.5,Win32,22.06823498,60.67708333,4.269,2.022,NA,NA,NA,NA,NA,frustrated,"frustrated, not frustrated","more frustrated, less frustrated",NA,NA,NA,NA,NA,NA,NA,NA,NA,NA,NA,NA,NA,NA,NA,NA,NA,NA,NA,NA,NA,NA,NA,NA,NA,NA,NA,NA,NA,NA,NA,NA,NA,NA,NA,NA,NA,NA,0,1,1,1,1,NA,NA,NA,NA,NA
SUPAMT21106,3WSELTNVR91B0TPS81HHZG6YZE2TAY,2F893265-698D-4919-9972-1F2B1CEF0233,2023-09-26_06h37.37.398,WP_VExplicitOC_LH,2022.2.5,Win32,22.06823498,73.4375,3.7635,2.0871,NA,NA,NA,NA,NA,happy,"unhappy, happy","less happy, more happy",NA,NA,NA,NA,NA,NA,NA,NA,NA,NA,NA,NA,NA,NA,NA,NA,NA,NA,NA,NA,NA,NA,NA,NA,NA,NA,NA,NA,NA,NA,NA,NA,NA,NA,NA,NA,NA,NA,0,2,2,0,1,NA,NA,NA,NA,NA
SUPAMT21106,3WSELTNVR91B0TPS81HHZG6YZE2TAY,2F893265-698D-4919-9972-1F2B1CEF0233,2023-09-26_06h37.37.398,WP_VExplicitOC_LH,2022.2.5,Win32,22.06823498,NA,NA,NA,NA,NA,NA,NA,NA,NA,NA,NA,NA,NA,NA,NA,NA,NA,NA,NA,NA,NA,NA,NA,NA,NA,NA,NA,NA,NA,NA,NA,NA,NA,NA,NA,NA,NA,NA,NA,NA,NA,NA,NA,NA,NA,NA,NA,NA,NA,NA,NA,NA,NA,NA,3,0,3,0,1
SUPAMT21106,3WSELTNVR91B0TPS81HHZG6YZE2TAY,2F893265-698D-4919-9972-1F2B1CEF0233,2023-09-26_06h37.37.398,WP_VExplicitOC_LH,2022.2.5,Win32,22.06823498,52.34375,3.81,2.0583,NA,NA,NA,NA,NA,frustrated,"frustrated, not frustrated","more frustrated, less frustrated",NA,NA,NA,NA,NA,NA,NA,NA,NA,NA,NA,NA,NA,NA,NA,NA,NA,NA,NA,NA,NA,NA,NA,NA,NA,NA,NA,NA,NA,NA,NA,NA,NA,NA,NA,NA,NA,NA,0,0,0,1,1,NA,NA,NA,NA,NA
SUPAMT21106,3WSELTNVR91B0TPS81HHZG6YZE2TAY,2F893265-698D-4919-9972-1F2B1CEF0233,2023-09-26_06h37.37.398,WP_VExplicitOC_LH,2022.2.5,Win32,22.06823498,71.09375,4.9059,2.0696,NA,NA,NA,NA,NA,happy,"unhappy, happy","less happy, more happy",NA,NA,NA,NA,NA,NA,NA,NA,NA,NA,NA,NA,NA,NA,NA,NA,NA,NA,NA,NA,NA,NA,NA,NA,NA,NA,NA,NA,NA,NA,NA,NA,NA,NA,NA,NA,NA,NA,0,1,1,0,1,NA,NA,NA,NA,NA
SUPAMT21106,3WSELTNVR91B0TPS81HHZG6YZE2TAY,2F893265-698D-4919-9972-1F2B1CEF0233,2023-09-26_06h37.37.398,WP_VExplicitOC_LH,2022.2.5,Win32,22.06823498,45.57291667,4.4288,2.0753,NA,NA,NA,NA,NA,bored,"bored, not bored","more bored, less bored",NA,NA,NA,NA,NA,NA,NA,NA,NA,NA,NA,NA,NA,NA,NA,NA,NA,NA,NA,NA,NA,NA,NA,NA,NA,NA,NA,NA,NA,NA,NA,NA,NA,NA,NA,NA,NA,NA,0,2,2,2,1,NA,NA,NA,NA,NA
SUPAMT21106,3WSELTNVR91B0TPS81HHZG6YZE2TAY,2F893265-698D-4919-9972-1F2B1CEF0233,2023-09-26_06h37.37.398,WP_VExplicitOC_LH,2022.2.5,Win32,22.06823498,NA,NA,NA,NA,NA,NA,NA,NA,NA,NA,NA,NA,NA,NA,NA,NA,NA,NA,NA,NA,NA,NA,NA,NA,NA,NA,NA,NA,NA,NA,NA,NA,NA,NA,NA,NA,NA,NA,NA,NA,NA,NA,NA,NA,NA,NA,NA,NA,NA,NA,NA,NA,NA,NA,4,0,4,0,1
SUPAMT21106,3WSELTNVR91B0TPS81HHZG6YZE2TAY,2F893265-698D-4919-9972-1F2B1CEF0233,2023-09-26_06h37.37.398,WP_VExplicitOC_LH,2022.2.5,Win32,22.06823498,95.05208333,5.0398,2.0851,NA,NA,NA,NA,NA,bored,"bored, not bored","more bored, less bored",NA,NA,NA,NA,NA,NA,NA,NA,NA,NA,NA,NA,NA,NA,NA,NA,NA,NA,NA,NA,NA,NA,NA,NA,NA,NA,NA,NA,NA,NA,NA,NA,NA,NA,NA,NA,NA,NA,0,0,0,2,1,NA,NA,NA,NA,NA
SUPAMT21106,3WSELTNVR91B0TPS81HHZG6YZE2TAY,2F893265-698D-4919-9972-1F2B1CEF0233,2023-09-26_06h37.37.398,WP_VExplicitOC_LH,2022.2.5,Win32,22.06823498,53.38541667,3.5057,2.0139,NA,NA,NA,NA,NA,happy,"unhappy, happy","less happy, more happy",NA,NA,NA,NA,NA,NA,NA,NA,NA,NA,NA,NA,NA,NA,NA,NA,NA,NA,NA,NA,NA,NA,NA,NA,NA,NA,NA,NA,NA,NA,NA,NA,NA,NA,NA,NA,NA,NA,0,1,1,0,1,NA,NA,NA,NA,NA
SUPAMT21106,3WSELTNVR91B0TPS81HHZG6YZE2TAY,2F893265-698D-4919-9972-1F2B1CEF0233,2023-09-26_06h37.37.398,WP_VExplicitOC_LH,2022.2.5,Win32,22.06823498,38.80208333,3.8233,2.0542,NA,NA,NA,NA,NA,frustrated,"frustrated, not frustrated","more frustrated, less frustrated",NA,NA,NA,NA,NA,NA,NA,NA,NA,NA,NA,NA,NA,NA,NA,NA,NA,NA,NA,NA,NA,NA,NA,NA,NA,NA,NA,NA,NA,NA,NA,NA,NA,NA,NA,NA,NA,NA,0,2,2,1,1,NA,NA,NA,NA,NA
SUPAMT21106,3WSELTNVR91B0TPS81HHZG6YZE2TAY,2F893265-698D-4919-9972-1F2B1CEF0233,2023-09-26_06h37.37.398,WP_VExplicitOC_LH,2022.2.5,Win32,22.06823498,NA,NA,NA,NA,NA,NA,NA,NA,NA,NA,NA,NA,NA,NA,NA,NA,NA,NA,NA,NA,NA,NA,NA,NA,NA,NA,NA,NA,NA,NA,NA,NA,NA,NA,NA,NA,NA,NA,NA,NA,NA,NA,NA,NA,NA,NA,NA,NA,NA,NA,NA,NA,NA,NA,5,0,5,0,1
SUPAMT21106,3WSELTNVR91B0TPS81HHZG6YZE2TAY,2F893265-698D-4919-9972-1F2B1CEF0233,2023-09-26_06h37.37.398,WP_VExplicitOC_LH,2022.2.5,Win32,22.06823498,63.02083333,3.4608,2.0199,NA,NA,NA,NA,NA,bored,"bored, not bored","more bored, less bored",NA,NA,NA,NA,NA,NA,NA,NA,NA,NA,NA,NA,NA,NA,NA,NA,NA,NA,NA,NA,NA,NA,NA,NA,NA,NA,NA,NA,NA,NA,NA,NA,NA,NA,NA,NA,NA,NA,0,0,0,2,1,NA,NA,NA,NA,NA
SUPAMT21106,3WSELTNVR91B0TPS81HHZG6YZE2TAY,2F893265-698D-4919-9972-1F2B1CEF0233,2023-09-26_06h37.37.398,WP_VExplicitOC_LH,2022.2.5,Win32,22.06823498,52.34375,4.2854,2.0347,NA,NA,NA,NA,NA,happy,"unhappy, happy","less happy, more happy",NA,NA,NA,NA,NA,NA,NA,NA,NA,NA,NA,NA,NA,NA,NA,NA,NA,NA,NA,NA,NA,NA,NA,NA,NA,NA,NA,NA,NA,NA,NA,NA,NA,NA,NA,NA,NA,NA,0,1,1,0,1,NA,NA,NA,NA,NA
SUPAMT21106,3WSELTNVR91B0TPS81HHZG6YZE2TAY,2F893265-698D-4919-9972-1F2B1CEF0233,2023-09-26_06h37.37.398,WP_VExplicitOC_LH,2022.2.5,Win32,22.06823498,46.61458333,4.4207,2.0056,NA,NA,NA,NA,NA,frustrated,"frustrated, not frustrated","more frustrated, less frustrated",NA,NA,NA,NA,NA,NA,NA,NA,NA,NA,NA,NA,NA,NA,NA,NA,NA,NA,NA,NA,NA,NA,NA,NA,NA,NA,NA,NA,NA,NA,NA,NA,NA,NA,NA,NA,NA,NA,0,2,2,1,1,NA,NA,NA,NA,NA
SUPAMT21106,3WSELTNVR91B0TPS81HHZG6YZE2TAY,2F893265-698D-4919-9972-1F2B1CEF0233,2023-09-26_06h37.37.398,WP_VExplicitOC_LH,2022.2.5,Win32,22.06823498,NA,NA,NA,NA,NA,NA,NA,NA,NA,NA,NA,NA,NA,NA,NA,NA,NA,NA,NA,NA,NA,NA,NA,NA,NA,NA,NA,NA,NA,NA,NA,NA,NA,NA,NA,NA,NA,NA,NA,NA,NA,NA,NA,NA,NA,NA,NA,NA,NA,NA,NA,NA,NA,NA,6,0,6,0,1
SUPAMT21106,3WSELTNVR91B0TPS81HHZG6YZE2TAY,2F893265-698D-4919-9972-1F2B1CEF0233,2023-09-26_06h37.37.398,WP_VExplicitOC_LH,2022.2.5,Win32,22.06823498,100,4.1989,2.0539,NA,NA,NA,NA,NA,frustrated,"frustrated, not frustrated","more frustrated, less frustrated",NA,NA,NA,NA,NA,NA,NA,NA,NA,NA,NA,NA,NA,NA,NA,NA,NA,NA,NA,NA,NA,NA,NA,NA,NA,NA,NA,NA,NA,NA,NA,NA,NA,NA,NA,NA,NA,NA,0,0,0,1,1,NA,NA,NA,NA,NA
SUPAMT21106,3WSELTNVR91B0TPS81HHZG6YZE2TAY,2F893265-698D-4919-9972-1F2B1CEF0233,2023-09-26_06h37.37.398,WP_VExplicitOC_LH,2022.2.5,Win32,22.06823498,11.97916667,3.6842,2.0386,NA,NA,NA,NA,NA,happy,"unhappy, happy","less happy, more happy",NA,NA,NA,NA,NA,NA,NA,NA,NA,NA,NA,NA,NA,NA,NA,NA,NA,NA,NA,NA,NA,NA,NA,NA,NA,NA,NA,NA,NA,NA,NA,NA,NA,NA,NA,NA,NA,NA,0,1,1,0,1,NA,NA,NA,NA,NA
SUPAMT21106,3WSELTNVR91B0TPS81HHZG6YZE2TAY,2F893265-698D-4919-9972-1F2B1CEF0233,2023-09-26_06h37.37.398,WP_VExplicitOC_LH,2022.2.5,Win32,22.06823498,32.03125,3.3023,2.0805,NA,NA,NA,NA,NA,bored,"bored, not bored","more bored, less bored",NA,NA,NA,NA,NA,NA,NA,NA,NA,NA,NA,NA,NA,NA,NA,NA,NA,NA,NA,NA,NA,NA,NA,NA,NA,NA,NA,NA,NA,NA,NA,NA,NA,NA,NA,NA,NA,NA,0,2,2,2,1,NA,NA,NA,NA,NA
SUPAMT21106,3WSELTNVR91B0TPS81HHZG6YZE2TAY,2F893265-698D-4919-9972-1F2B1CEF0233,2023-09-26_06h37.37.398,WP_VExplicitOC_LH,2022.2.5,Win32,22.06823498,NA,NA,NA,NA,NA,NA,NA,NA,NA,NA,NA,NA,NA,NA,NA,NA,NA,NA,NA,NA,NA,NA,NA,NA,NA,NA,NA,NA,NA,NA,NA,NA,NA,NA,NA,NA,NA,NA,NA,NA,NA,NA,NA,NA,NA,NA,NA,NA,NA,NA,NA,NA,NA,NA,7,0,7,0,1
SUPAMT21106,3WSELTNVR91B0TPS81HHZG6YZE2TAY,2F893265-698D-4919-9972-1F2B1CEF0233,2023-09-26_06h37.37.398,WP_VExplicitOC_LH,2022.2.5,Win32,22.06823498,62.23958333,3.8644,2.0454,NA,NA,NA,NA,NA,bored,"bored, not bored","more bored, less bored",NA,NA,NA,NA,NA,NA,NA,NA,NA,NA,NA,NA,NA,NA,NA,NA,NA,NA,NA,NA,NA,NA,NA,NA,NA,NA,NA,NA,NA,NA,NA,NA,NA,NA,NA,NA,NA,NA,0,0,0,2,1,NA,NA,NA,NA,NA
SUPAMT21106,3WSELTNVR91B0TPS81HHZG6YZE2TAY,2F893265-698D-4919-9972-1F2B1CEF0233,2023-09-26_06h37.37.398,WP_VExplicitOC_LH,2022.2.5,Win32,22.06823498,43.22916667,3.4451,2.0391,NA,NA,NA,NA,NA,happy,"unhappy, happy","less happy, more happy",NA,NA,NA,NA,NA,NA,NA,NA,NA,NA,NA,NA,NA,NA,NA,NA,NA,NA,NA,NA,NA,NA,NA,NA,NA,NA,NA,NA,NA,NA,NA,NA,NA,NA,NA,NA,NA,NA,0,1,1,0,1,NA,NA,NA,NA,NA
SUPAMT21106,3WSELTNVR91B0TPS81HHZG6YZE2TAY,2F893265-698D-4919-9972-1F2B1CEF0233,2023-09-26_06h37.37.398,WP_VExplicitOC_LH,2022.2.5,Win32,22.06823498,47.39583333,3.7878,2.0882,NA,NA,NA,NA,NA,frustrated,"frustrated, not frustrated","more frustrated, less frustrated",NA,NA,NA,NA,NA,NA,NA,NA,NA,NA,NA,NA,NA,NA,NA,NA,NA,NA,NA,NA,NA,NA,NA,NA,NA,NA,NA,NA,NA,NA,NA,NA,NA,NA,NA,NA,NA,NA,0,2,2,1,1,NA,NA,NA,NA,NA
SUPAMT21106,3WSELTNVR91B0TPS81HHZG6YZE2TAY,2F893265-698D-4919-9972-1F2B1CEF0233,2023-09-26_06h37.37.398,WP_VExplicitOC_LH,2022.2.5,Win32,22.06823498,NA,NA,NA,NA,NA,NA,NA,NA,NA,NA,NA,NA,NA,NA,NA,NA,NA,NA,NA,NA,NA,NA,NA,NA,NA,NA,NA,NA,NA,NA,NA,NA,NA,NA,NA,NA,NA,NA,NA,NA,NA,NA,NA,NA,NA,NA,NA,NA,NA,NA,NA,NA,NA,NA,8,0,8,0,1
SUPAMT21106,3WSELTNVR91B0TPS81HHZG6YZE2TAY,2F893265-698D-4919-9972-1F2B1CEF0233,2023-09-26_06h37.37.398,WP_VExplicitOC_LH,2022.2.5,Win32,22.06823498,47.91666667,3.1916,2.0164,NA,NA,NA,NA,NA,happy,"unhappy, happy","less happy, more happy",NA,NA,NA,NA,NA,NA,NA,NA,NA,NA,NA,NA,NA,NA,NA,NA,NA,NA,NA,NA,NA,NA,NA,NA,NA,NA,NA,NA,NA,NA,NA,NA,NA,NA,NA,NA,NA,NA,0,0,0,0,1,NA,NA,NA,NA,NA
SUPAMT21106,3WSELTNVR91B0TPS81HHZG6YZE2TAY,2F893265-698D-4919-9972-1F2B1CEF0233,2023-09-26_06h37.37.398,WP_VExplicitOC_LH,2022.2.5,Win32,22.06823498,47.91666667,3.3074,2.0849,NA,NA,NA,NA,NA,bored,"bored, not bored","more bored, less bored",NA,NA,NA,NA,NA,NA,NA,NA,NA,NA,NA,NA,NA,NA,NA,NA,NA,NA,NA,NA,NA,NA,NA,NA,NA,NA,NA,NA,NA,NA,NA,NA,NA,NA,NA,NA,NA,NA,0,1,1,2,1,NA,NA,NA,NA,NA
SUPAMT21106,3WSELTNVR91B0TPS81HHZG6YZE2TAY,2F893265-698D-4919-9972-1F2B1CEF0233,2023-09-26_06h37.37.398,WP_VExplicitOC_LH,2022.2.5,Win32,22.06823498,47.91666667,3.1723,2.0285,NA,NA,NA,NA,NA,frustrated,"frustrated, not frustrated","more frustrated, less frustrated",NA,NA,NA,NA,NA,NA,NA,NA,NA,NA,NA,NA,NA,NA,NA,NA,NA,NA,NA,NA,NA,NA,NA,NA,NA,NA,NA,NA,NA,NA,NA,NA,NA,NA,NA,NA,NA,NA,0,2,2,1,1,NA,NA,NA,NA,NA
SUPAMT21106,3WSELTNVR91B0TPS81HHZG6YZE2TAY,2F893265-698D-4919-9972-1F2B1CEF0233,2023-09-26_06h37.37.398,WP_VExplicitOC_LH,2022.2.5,Win32,22.06823498,NA,NA,NA,NA,NA,NA,NA,NA,NA,NA,NA,NA,NA,NA,NA,NA,NA,NA,NA,NA,NA,NA,NA,NA,NA,NA,NA,NA,NA,NA,NA,NA,NA,NA,NA,NA,NA,NA,NA,NA,NA,NA,NA,NA,NA,NA,NA,NA,NA,NA,NA,NA,NA,NA,9,0,9,0,1
SUPAMT21106,3WSELTNVR91B0TPS81HHZG6YZE2TAY,2F893265-698D-4919-9972-1F2B1CEF0233,2023-09-26_06h37.37.398,WP_VExplicitOC_LH,2022.2.5,Win32,22.06823498,62.76041667,3.6737,2.0606,NA,NA,NA,NA,NA,frustrated,"frustrated, not frustrated","more frustrated, less frustrated",NA,NA,NA,NA,NA,NA,NA,NA,NA,NA,NA,NA,NA,NA,NA,NA,NA,NA,NA,NA,NA,NA,NA,NA,NA,NA,NA,NA,NA,NA,NA,NA,NA,NA,NA,NA,NA,NA,0,0,0,1,1,NA,NA,NA,NA,NA
SUPAMT21106,3WSELTNVR91B0TPS81HHZG6YZE2TAY,2F893265-698D-4919-9972-1F2B1CEF0233,2023-09-26_06h37.37.398,WP_VExplicitOC_LH,2022.2.5,Win32,22.06823498,73.4375,3.4674,2.0736,NA,NA,NA,NA,NA,happy,"unhappy, happy","less happy, more happy",NA,NA,NA,NA,NA,NA,NA,NA,NA,NA,NA,NA,NA,NA,NA,NA,NA,NA,NA,NA,NA,NA,NA,NA,NA,NA,NA,NA,NA,NA,NA,NA,NA,NA,NA,NA,NA,NA,0,1,1,0,1,NA,NA,NA,NA,NA
SUPAMT21106,3WSELTNVR91B0TPS81HHZG6YZE2TAY,2F893265-698D-4919-9972-1F2B1CEF0233,2023-09-26_06h37.37.398,WP_VExplicitOC_LH,2022.2.5,Win32,22.06823498,49.73958333,3.3115,2.0731,NA,NA,NA,NA,NA,bored,"bored, not bored","more bored, less bored",NA,NA,NA,NA,NA,NA,NA,NA,NA,NA,NA,NA,NA,NA,NA,NA,NA,NA,NA,NA,NA,NA,NA,NA,NA,NA,NA,NA,NA,NA,NA,NA,NA,NA,NA,NA,NA,NA,0,2,2,2,1,NA,NA,NA,NA,NA
SUPAMT21106,3WSELTNVR91B0TPS81HHZG6YZE2TAY,2F893265-698D-4919-9972-1F2B1CEF0233,2023-09-26_06h37.37.398,WP_VExplicitOC_LH,2022.2.5,Win32,22.06823498,NA,NA,NA,NA,NA,NA,NA,NA,NA,NA,NA,NA,NA,NA,NA,NA,NA,NA,NA,NA,NA,NA,NA,NA,NA,NA,NA,NA,NA,NA,NA,NA,NA,NA,NA,NA,NA,NA,NA,NA,NA,NA,NA,NA,NA,NA,NA,NA,NA,NA,NA,NA,NA,NA,10,0,10,0,1
SUPAMT21106,3WSELTNVR91B0TPS81HHZG6YZE2TAY,2F893265-698D-4919-9972-1F2B1CEF0233,2023-09-26_06h37.37.398,WP_VExplicitOC_LH,2022.2.5,Win32,22.06823498,100,3.2815,2.0552,NA,NA,NA,NA,NA,happy,"unhappy, happy","less happy, more happy",NA,NA,NA,NA,NA,NA,NA,NA,NA,NA,NA,NA,NA,NA,NA,NA,NA,NA,NA,NA,NA,NA,NA,NA,NA,NA,NA,NA,NA,NA,NA,NA,NA,NA,NA,NA,NA,NA,0,0,0,0,1,NA,NA,NA,NA,NA
SUPAMT21106,3WSELTNVR91B0TPS81HHZG6YZE2TAY,2F893265-698D-4919-9972-1F2B1CEF0233,2023-09-26_06h37.37.398,WP_VExplicitOC_LH,2022.2.5,Win32,22.06823498,79.94791667,3.4722,2.0104,NA,NA,NA,NA,NA,bored,"bored, not bored","more bored, less bored",NA,NA,NA,NA,NA,NA,NA,NA,NA,NA,NA,NA,NA,NA,NA,NA,NA,NA,NA,NA,NA,NA,NA,NA,NA,NA,NA,NA,NA,NA,NA,NA,NA,NA,NA,NA,NA,NA,0,1,1,2,1,NA,NA,NA,NA,NA
SUPAMT21106,3WSELTNVR91B0TPS81HHZG6YZE2TAY,2F893265-698D-4919-9972-1F2B1CEF0233,2023-09-26_06h37.37.398,WP_VExplicitOC_LH,2022.2.5,Win32,22.06823498,79.94791667,3.2677,2.022,NA,NA,NA,NA,NA,frustrated,"frustrated, not frustrated","more frustrated, less frustrated",NA,NA,NA,NA,NA,NA,NA,NA,NA,NA,NA,NA,NA,NA,NA,NA,NA,NA,NA,NA,NA,NA,NA,NA,NA,NA,NA,NA,NA,NA,NA,NA,NA,NA,NA,NA,NA,NA,0,2,2,1,1,NA,NA,NA,NA,NA
SUPAMT21106,3WSELTNVR91B0TPS81HHZG6YZE2TAY,2F893265-698D-4919-9972-1F2B1CEF0233,2023-09-26_06h37.37.398,WP_VExplicitOC_LH,2022.2.5,Win32,22.06823498,NA,NA,NA,NA,NA,NA,NA,NA,NA,NA,NA,NA,NA,NA,NA,NA,NA,NA,NA,NA,NA,NA,NA,NA,NA,NA,NA,NA,NA,NA,NA,NA,NA,NA,NA,NA,NA,NA,NA,NA,NA,NA,NA,NA,NA,NA,NA,NA,NA,NA,NA,NA,NA,NA,11,0,11,0,1
SUPAMT21106,3WSELTNVR91B0TPS81HHZG6YZE2TAY,2F893265-698D-4919-9972-1F2B1CEF0233,2023-09-26_06h37.37.398,WP_VExplicitOC_LH,2022.2.5,Win32,22.06823498,37.5,3.3348,2.0314,NA,NA,NA,NA,NA,bored,"bored, not bored","more bored, less bored",NA,NA,NA,NA,NA,NA,NA,NA,NA,NA,NA,NA,NA,NA,NA,NA,NA,NA,NA,NA,NA,NA,NA,NA,NA,NA,NA,NA,NA,NA,NA,NA,NA,NA,NA,NA,NA,NA,0,0,0,2,1,NA,NA,NA,NA,NA
SUPAMT21106,3WSELTNVR91B0TPS81HHZG6YZE2TAY,2F893265-698D-4919-9972-1F2B1CEF0233,2023-09-26_06h37.37.398,WP_VExplicitOC_LH,2022.2.5,Win32,22.06823498,61.19791667,3.0417,2.0974,NA,NA,NA,NA,NA,happy,"unhappy, happy","less happy, more happy",NA,NA,NA,NA,NA,NA,NA,NA,NA,NA,NA,NA,NA,NA,NA,NA,NA,NA,NA,NA,NA,NA,NA,NA,NA,NA,NA,NA,NA,NA,NA,NA,NA,NA,NA,NA,NA,NA,0,1,1,0,1,NA,NA,NA,NA,NA
SUPAMT21106,3WSELTNVR91B0TPS81HHZG6YZE2TAY,2F893265-698D-4919-9972-1F2B1CEF0233,2023-09-26_06h37.37.398,WP_VExplicitOC_LH,2022.2.5,Win32,22.06823498,61.19791667,2.9772,2.0027,NA,NA,NA,NA,NA,frustrated,"frustrated, not frustrated","more frustrated, less frustrated",NA,NA,NA,NA,NA,NA,NA,NA,NA,NA,NA,NA,NA,NA,NA,NA,NA,NA,NA,NA,NA,NA,NA,NA,NA,NA,NA,NA,NA,NA,NA,NA,NA,NA,NA,NA,NA,NA,0,2,2,1,1,NA,NA,NA,NA,NA
SUPAMT21106,3WSELTNVR91B0TPS81HHZG6YZE2TAY,2F893265-698D-4919-9972-1F2B1CEF0233,2023-09-26_06h37.37.398,WP_VExplicitOC_LH,2022.2.5,Win32,22.06823498,NA,NA,NA,NA,NA,NA,NA,NA,NA,NA,NA,NA,NA,NA,NA,NA,NA,NA,NA,NA,NA,NA,NA,NA,NA,NA,NA,NA,NA,NA,NA,NA,NA,NA,NA,NA,NA,NA,NA,NA,NA,NA,NA,NA,NA,NA,NA,NA,NA,NA,NA,NA,NA,NA,12,0,12,0,1
SUPAMT21106,3WSELTNVR91B0TPS81HHZG6YZE2TAY,2F893265-698D-4919-9972-1F2B1CEF0233,2023-09-26_06h37.37.398,WP_VExplicitOC_LH,2022.2.5,Win32,22.06823498,49.73958333,3.6049,2.0129,NA,NA,NA,NA,NA,frustrated,"frustrated, not frustrated","more frustrated, less frustrated",NA,NA,NA,NA,NA,NA,NA,NA,NA,NA,NA,NA,NA,NA,NA,NA,NA,NA,NA,NA,NA,NA,NA,NA,NA,NA,NA,NA,NA,NA,NA,NA,NA,NA,NA,NA,NA,NA,0,0,0,1,1,NA,NA,NA,NA,NA
SUPAMT21106,3WSELTNVR91B0TPS81HHZG6YZE2TAY,2F893265-698D-4919-9972-1F2B1CEF0233,2023-09-26_06h37.37.398,WP_VExplicitOC_LH,2022.2.5,Win32,22.06823498,48.95833333,3.114,2.06,NA,NA,NA,NA,NA,bored,"bored, not bored","more bored, less bored",NA,NA,NA,NA,NA,NA,NA,NA,NA,NA,NA,NA,NA,NA,NA,NA,NA,NA,NA,NA,NA,NA,NA,NA,NA,NA,NA,NA,NA,NA,NA,NA,NA,NA,NA,NA,NA,NA,0,1,1,2,1,NA,NA,NA,NA,NA
SUPAMT21106,3WSELTNVR91B0TPS81HHZG6YZE2TAY,2F893265-698D-4919-9972-1F2B1CEF0233,2023-09-26_06h37.37.398,WP_VExplicitOC_LH,2022.2.5,Win32,22.06823498,48.95833333,3.0804,2.0293,NA,NA,NA,NA,NA,happy,"unhappy, happy","less happy, more happy",NA,NA,NA,NA,NA,NA,NA,NA,NA,NA,NA,NA,NA,NA,NA,NA,NA,NA,NA,NA,NA,NA,NA,NA,NA,NA,NA,NA,NA,NA,NA,NA,NA,NA,NA,NA,NA,NA,0,2,2,0,1,NA,NA,NA,NA,NA
SUPAMT21106,3WSELTNVR91B0TPS81HHZG6YZE2TAY,2F893265-698D-4919-9972-1F2B1CEF0233,2023-09-26_06h37.37.398,WP_VExplicitOC_LH,2022.2.5,Win32,22.06823498,NA,NA,NA,NA,NA,NA,NA,NA,NA,NA,NA,NA,NA,NA,NA,NA,NA,NA,NA,NA,NA,NA,NA,NA,NA,NA,NA,NA,NA,NA,NA,NA,NA,NA,NA,NA,NA,NA,NA,NA,NA,NA,NA,NA,NA,NA,NA,NA,NA,NA,NA,NA,NA,NA,13,0,13,0,1
SUPAMT21106,3WSELTNVR91B0TPS81HHZG6YZE2TAY,2F893265-698D-4919-9972-1F2B1CEF0233,2023-09-26_06h37.37.398,WP_VExplicitOC_LH,2022.2.5,Win32,22.06823498,50.26041667,3.523,2.0663,NA,NA,NA,NA,NA,happy,"unhappy, happy","less happy, more happy",NA,NA,NA,NA,NA,NA,NA,NA,NA,NA,NA,NA,NA,NA,NA,NA,NA,NA,NA,NA,NA,NA,NA,NA,NA,NA,NA,NA,NA,NA,NA,NA,NA,NA,NA,NA,NA,NA,0,0,0,0,1,NA,NA,NA,NA,NA
SUPAMT21106,3WSELTNVR91B0TPS81HHZG6YZE2TAY,2F893265-698D-4919-9972-1F2B1CEF0233,2023-09-26_06h37.37.398,WP_VExplicitOC_LH,2022.2.5,Win32,22.06823498,50.26041667,2.39,2.0421,NA,NA,NA,NA,NA,frustrated,"frustrated, not frustrated","more frustrated, less frustrated",NA,NA,NA,NA,NA,NA,NA,NA,NA,NA,NA,NA,NA,NA,NA,NA,NA,NA,NA,NA,NA,NA,NA,NA,NA,NA,NA,NA,NA,NA,NA,NA,NA,NA,NA,NA,NA,NA,0,1,1,1,1,NA,NA,NA,NA,NA
SUPAMT21106,3WSELTNVR91B0TPS81HHZG6YZE2TAY,2F893265-698D-4919-9972-1F2B1CEF0233,2023-09-26_06h37.37.398,WP_VExplicitOC_LH,2022.2.5,Win32,22.06823498,50.26041667,3.0108,2.0134,NA,NA,NA,NA,NA,bored,"bored, not bored","more bored, less bored",NA,NA,NA,NA,NA,NA,NA,NA,NA,NA,NA,NA,NA,NA,NA,NA,NA,NA,NA,NA,NA,NA,NA,NA,NA,NA,NA,NA,NA,NA,NA,NA,NA,NA,NA,NA,NA,NA,0,2,2,2,1,NA,NA,NA,NA,NA
SUPAMT21106,3WSELTNVR91B0TPS81HHZG6YZE2TAY,2F893265-698D-4919-9972-1F2B1CEF0233,2023-09-26_06h37.37.398,WP_VExplicitOC_LH,2022.2.5,Win32,22.06823498,NA,NA,NA,NA,NA,NA,NA,NA,NA,NA,NA,NA,NA,NA,NA,NA,NA,NA,NA,NA,NA,NA,NA,NA,NA,NA,NA,NA,NA,NA,NA,NA,NA,NA,NA,NA,NA,NA,NA,NA,NA,NA,NA,NA,NA,NA,NA,NA,NA,NA,NA,NA,NA,NA,14,0,14,0,1
SUPAMT21106,3WSELTNVR91B0TPS81HHZG6YZE2TAY,2F893265-698D-4919-9972-1F2B1CEF0233,2023-09-26_06h37.37.398,WP_VExplicitOC_LH,2022.2.5,Win32,22.06823498,NA,NA,NA,NA,NA,NA,NA,NA,NA,NA,NA,NA,NA,NA,NA,NA,NA,NA,NA,NA,NA,NA,NA,NA,NA,NA,NA,NA,NA,NA,NA,NA,NA,NA,NA,NA,NA,NA,NA,NA,NA,NA,NA,NA,NA,NA,NA,NA,NA,NA,NA,NA,NA,NA,NA,NA,NA,NA,NA
