participant,session,completion,date,expName,psychopyVersion,OS,frameRate,rating_all.response,rating_all.rt,rating_all.tStart,rndRat1.thisRepN,rndRat1.thisTrialN,rndRat1.thisN,rndRat1.thisIndex,rndRat1.ran,Emo,Labs,Labs2,rating_alt.response,rating_alt.rt,AltC.thisRepN,AltC.thisTrialN,AltC.thisN,AltC.thisIndex,AltC.ran,alt_choices,pic_choices,TopAlt_Choice,rndRat2.thisRepN,rndRat2.thisTrialN,rndRat2.thisN,rndRat2.thisIndex,rndRat2.ran,rndRat3.thisRepN,rndRat3.thisTrialN,rndRat3.thisN,rndRat3.thisIndex,rndRat3.ran,trials_FC_H.thisRepN,trials_FC_H.thisTrialN,trials_FC_H.thisN,trials_FC_H.thisIndex,trials_FC_H.ran,rating_alt_2.response,rating_alt_2.rt,AltC2.thisRepN,AltC2.thisTrialN,AltC2.thisN,AltC2.thisIndex,AltC2.ran,BottomAlt_Choice,rndRat4.thisRepN,rndRat4.thisTrialN,rndRat4.thisN,rndRat4.thisIndex,rndRat4.ran,rndRat5.thisRepN,rndRat5.thisTrialN,rndRat5.thisN,rndRat5.thisIndex,rndRat5.ran,trials_FC_L.thisRepN,trials_FC_L.thisTrialN,trials_FC_L.thisN,trials_FC_L.thisIndex,trials_FC_L.ran
SUPAMT54374,3FE2ERCCZ372A5QM13DFV1P6ZSDOPF,E22A9ADE-CC5F-48C9-A596-9A8C1C7E45AD,2023-09-26_06h31.50.404,WP_VExplicitOC_HL,2022.2.5,Win32,16.13631963,NA,NA,NA,NA,NA,NA,NA,NA,NA,NA,NA,NA,NA,NA,NA,NA,NA,NA,NA,NA,NA,NA,NA,NA,NA,NA,NA,NA,NA,NA,NA,NA,NA,NA,NA,NA,NA,NA,NA,NA,NA,NA,NA,NA,NA,NA,NA,NA,NA,NA,NA,NA,NA,NA,NA,NA,NA,NA,NA
SUPAMT54374,3FE2ERCCZ372A5QM13DFV1P6ZSDOPF,E22A9ADE-CC5F-48C9-A596-9A8C1C7E45AD,2023-09-26_06h31.50.404,WP_VExplicitOC_HL,2022.2.5,Win32,16.13631963,NA,NA,NA,NA,NA,NA,NA,NA,NA,NA,NA,NA,NA,NA,NA,NA,NA,NA,NA,NA,NA,NA,NA,NA,NA,NA,NA,NA,NA,NA,NA,NA,NA,NA,NA,NA,NA,NA,NA,NA,NA,NA,NA,NA,NA,NA,NA,NA,NA,NA,NA,NA,NA,NA,NA,NA,NA,NA,NA
SUPAMT54374,3FE2ERCCZ372A5QM13DFV1P6ZSDOPF,E22A9ADE-CC5F-48C9-A596-9A8C1C7E45AD,2023-09-26_06h31.50.404,WP_VExplicitOC_HL,2022.2.5,Win32,16.13631963,NA,NA,NA,NA,NA,NA,NA,NA,NA,NA,NA,NA,NA,NA,NA,NA,NA,NA,NA,NA,NA,NA,NA,NA,NA,NA,NA,NA,NA,NA,NA,NA,NA,NA,NA,NA,NA,NA,NA,NA,NA,NA,NA,NA,NA,NA,NA,NA,NA,NA,NA,NA,NA,NA,NA,NA,NA,NA,NA
SUPAMT54374,3FE2ERCCZ372A5QM13DFV1P6ZSDOPF,E22A9ADE-CC5F-48C9-A596-9A8C1C7E45AD,2023-09-26_06h31.50.404,WP_VExplicitOC_HL,2022.2.5,Win32,16.13631963,28.43295638,4.3308,2.0202,0,0,0,2,1,bored,"bored, not bored","more bored, less bored",NA,NA,NA,NA,NA,NA,NA,NA,NA,NA,NA,NA,NA,NA,NA,NA,NA,NA,NA,NA,NA,NA,NA,NA,NA,NA,NA,NA,NA,NA,NA,NA,NA,NA,NA,NA,NA,NA,NA,NA,NA,NA,NA,NA,NA,NA,NA,NA
SUPAMT54374,3FE2ERCCZ372A5QM13DFV1P6ZSDOPF,E22A9ADE-CC5F-48C9-A596-9A8C1C7E45AD,2023-09-26_06h31.50.404,WP_VExplicitOC_HL,2022.2.5,Win32,16.13631963,-36.18739903,4.2007,2.0347,0,1,1,1,1,frustrated,"frustrated, not frustrated","more frustrated, less frustrated",NA,NA,NA,NA,NA,NA,NA,NA,NA,NA,NA,NA,NA,NA,NA,NA,NA,NA,NA,NA,NA,NA,NA,NA,NA,NA,NA,NA,NA,NA,NA,NA,NA,NA,NA,NA,NA,NA,NA,NA,NA,NA,NA,NA,NA,NA,NA,NA
SUPAMT54374,3FE2ERCCZ372A5QM13DFV1P6ZSDOPF,E22A9ADE-CC5F-48C9-A596-9A8C1C7E45AD,2023-09-26_06h31.50.404,WP_VExplicitOC_HL,2022.2.5,Win32,16.13631963,27.46365105,4.216,2.0487,0,2,2,0,1,happy,"unhappy, happy","less happy, more happy",NA,NA,NA,NA,NA,NA,NA,NA,NA,NA,NA,NA,NA,NA,NA,NA,NA,NA,NA,NA,NA,NA,NA,NA,NA,NA,NA,NA,NA,NA,NA,NA,NA,NA,NA,NA,NA,NA,NA,NA,NA,NA,NA,NA,NA,NA,NA,NA
SUPAMT54374,3FE2ERCCZ372A5QM13DFV1P6ZSDOPF,E22A9ADE-CC5F-48C9-A596-9A8C1C7E45AD,2023-09-26_06h31.50.404,WP_VExplicitOC_HL,2022.2.5,Win32,16.13631963,NA,NA,NA,NA,NA,NA,NA,NA,NA,NA,NA,NA,NA,NA,NA,NA,NA,NA,NA,NA,NA,NA,NA,NA,NA,NA,NA,NA,NA,NA,NA,NA,NA,NA,NA,NA,NA,NA,NA,NA,NA,NA,NA,NA,NA,NA,NA,NA,NA,NA,NA,NA,NA,NA,NA,NA,NA,NA,NA
SUPAMT54374,3FE2ERCCZ372A5QM13DFV1P6ZSDOPF,E22A9ADE-CC5F-48C9-A596-9A8C1C7E45AD,2023-09-26_06h31.50.404,WP_VExplicitOC_HL,2022.2.5,Win32,16.13631963,NA,NA,NA,NA,NA,NA,NA,NA,NA,NA,NA,NA,NA,NA,NA,NA,NA,NA,NA,NA,NA,NA,NA,NA,NA,NA,NA,NA,NA,NA,NA,NA,NA,NA,NA,NA,NA,NA,NA,NA,NA,NA,NA,NA,NA,NA,NA,NA,NA,NA,NA,NA,NA,NA,NA,NA,NA,NA,NA
SUPAMT54374,3FE2ERCCZ372A5QM13DFV1P6ZSDOPF,E22A9ADE-CC5F-48C9-A596-9A8C1C7E45AD,2023-09-26_06h31.50.404,WP_VExplicitOC_HL,2022.2.5,Win32,16.13631963,NA,NA,NA,NA,NA,NA,NA,NA,NA,NA,NA,NA,NA,NA,NA,NA,NA,NA,NA,NA,NA,NA,NA,NA,NA,NA,NA,NA,NA,NA,NA,NA,NA,NA,NA,NA,NA,NA,NA,NA,NA,NA,NA,NA,NA,NA,NA,NA,NA,NA,NA,NA,NA,NA,NA,NA,NA,NA,NA
SUPAMT54374,3FE2ERCCZ372A5QM13DFV1P6ZSDOPF,E22A9ADE-CC5F-48C9-A596-9A8C1C7E45AD,2023-09-26_06h31.50.404,WP_VExplicitOC_HL,2022.2.5,Win32,16.13631963,NA,NA,NA,NA,NA,NA,NA,NA,NA,NA,NA,NA,NA,NA,NA,NA,NA,NA,NA,NA,NA,NA,NA,NA,NA,NA,NA,NA,NA,NA,NA,NA,NA,NA,NA,NA,NA,NA,NA,NA,NA,NA,NA,NA,NA,NA,NA,NA,NA,NA,NA,NA,NA,NA,NA,NA,NA,NA,NA
SUPAMT54374,3FE2ERCCZ372A5QM13DFV1P6ZSDOPF,E22A9ADE-CC5F-48C9-A596-9A8C1C7E45AD,2023-09-26_06h31.50.404,WP_VExplicitOC_HL,2022.2.5,Win32,16.13631963,NA,NA,NA,NA,NA,NA,NA,NA,NA,NA,NA,33.60258481,3.8747,0,0,0,0,1,rest (looking at a fixed cross),001.png,NA,NA,NA,NA,NA,NA,NA,NA,NA,NA,NA,NA,NA,NA,NA,NA,NA,NA,NA,NA,NA,NA,NA,NA,NA,NA,NA,NA,NA,NA,NA,NA,NA,NA,NA,NA,NA,NA,NA
SUPAMT54374,3FE2ERCCZ372A5QM13DFV1P6ZSDOPF,E22A9ADE-CC5F-48C9-A596-9A8C1C7E45AD,2023-09-26_06h31.50.404,WP_VExplicitOC_HL,2022.2.5,Win32,16.13631963,NA,NA,NA,NA,NA,NA,NA,NA,NA,NA,NA,23.58642973,1.7735,0,1,1,1,1,stand up,002.png,NA,NA,NA,NA,NA,NA,NA,NA,NA,NA,NA,NA,NA,NA,NA,NA,NA,NA,NA,NA,NA,NA,NA,NA,NA,NA,NA,NA,NA,NA,NA,NA,NA,NA,NA,NA,NA,NA,NA
SUPAMT54374,3FE2ERCCZ372A5QM13DFV1P6ZSDOPF,E22A9ADE-CC5F-48C9-A596-9A8C1C7E45AD,2023-09-26_06h31.50.404,WP_VExplicitOC_HL,2022.2.5,Win32,16.13631963,NA,NA,NA,NA,NA,NA,NA,NA,NA,NA,NA,30.37156704,1.4136,0,2,2,2,1,stretch,003.png,NA,NA,NA,NA,NA,NA,NA,NA,NA,NA,NA,NA,NA,NA,NA,NA,NA,NA,NA,NA,NA,NA,NA,NA,NA,NA,NA,NA,NA,NA,NA,NA,NA,NA,NA,NA,NA,NA,NA
SUPAMT54374,3FE2ERCCZ372A5QM13DFV1P6ZSDOPF,E22A9ADE-CC5F-48C9-A596-9A8C1C7E45AD,2023-09-26_06h31.50.404,WP_VExplicitOC_HL,2022.2.5,Win32,16.13631963,NA,NA,NA,NA,NA,NA,NA,NA,NA,NA,NA,11.95476575,1.7832,0,3,3,3,1,make a drink,004.png,NA,NA,NA,NA,NA,NA,NA,NA,NA,NA,NA,NA,NA,NA,NA,NA,NA,NA,NA,NA,NA,NA,NA,NA,NA,NA,NA,NA,NA,NA,NA,NA,NA,NA,NA,NA,NA,NA,NA
SUPAMT54374,3FE2ERCCZ372A5QM13DFV1P6ZSDOPF,E22A9ADE-CC5F-48C9-A596-9A8C1C7E45AD,2023-09-26_06h31.50.404,WP_VExplicitOC_HL,2022.2.5,Win32,16.13631963,NA,NA,NA,NA,NA,NA,NA,NA,NA,NA,NA,32.95638126,1.3199,0,4,4,4,1,scroll social media,005.png,NA,NA,NA,NA,NA,NA,NA,NA,NA,NA,NA,NA,NA,NA,NA,NA,NA,NA,NA,NA,NA,NA,NA,NA,NA,NA,NA,NA,NA,NA,NA,NA,NA,NA,NA,NA,NA,NA,NA
SUPAMT54374,3FE2ERCCZ372A5QM13DFV1P6ZSDOPF,E22A9ADE-CC5F-48C9-A596-9A8C1C7E45AD,2023-09-26_06h31.50.404,WP_VExplicitOC_HL,2022.2.5,Win32,16.13631963,NA,NA,NA,NA,NA,NA,NA,NA,NA,NA,NA,33.60258481,1.2924,0,5,5,5,1,listen to music,006.png,NA,NA,NA,NA,NA,NA,NA,NA,NA,NA,NA,NA,NA,NA,NA,NA,NA,NA,NA,NA,NA,NA,NA,NA,NA,NA,NA,NA,NA,NA,NA,NA,NA,NA,NA,NA,NA,NA,NA
SUPAMT54374,3FE2ERCCZ372A5QM13DFV1P6ZSDOPF,E22A9ADE-CC5F-48C9-A596-9A8C1C7E45AD,2023-09-26_06h31.50.404,WP_VExplicitOC_HL,2022.2.5,Win32,16.13631963,NA,NA,NA,NA,NA,NA,NA,NA,NA,NA,NA,53.31179321,1.077,0,6,6,6,1,daydream,007.png,NA,NA,NA,NA,NA,NA,NA,NA,NA,NA,NA,NA,NA,NA,NA,NA,NA,NA,NA,NA,NA,NA,NA,NA,NA,NA,NA,NA,NA,NA,NA,NA,NA,NA,NA,NA,NA,NA,NA
SUPAMT54374,3FE2ERCCZ372A5QM13DFV1P6ZSDOPF,E22A9ADE-CC5F-48C9-A596-9A8C1C7E45AD,2023-09-26_06h31.50.404,WP_VExplicitOC_HL,2022.2.5,Win32,16.13631963,NA,NA,NA,NA,NA,NA,NA,NA,NA,NA,NA,14.21647819,1.7634,0,7,7,7,1,watch a short animation,008.png,NA,NA,NA,NA,NA,NA,NA,NA,NA,NA,NA,NA,NA,NA,NA,NA,NA,NA,NA,NA,NA,NA,NA,NA,NA,NA,NA,NA,NA,NA,NA,NA,NA,NA,NA,NA,NA,NA,NA
SUPAMT54374,3FE2ERCCZ372A5QM13DFV1P6ZSDOPF,E22A9ADE-CC5F-48C9-A596-9A8C1C7E45AD,2023-09-26_06h31.50.404,WP_VExplicitOC_HL,2022.2.5,Win32,16.13631963,NA,NA,NA,NA,NA,NA,NA,NA,NA,NA,NA,23.9095315,1.6477,0,8,8,8,1,read a novel,009.png,NA,NA,NA,NA,NA,NA,NA,NA,NA,NA,NA,NA,NA,NA,NA,NA,NA,NA,NA,NA,NA,NA,NA,NA,NA,NA,NA,NA,NA,NA,NA,NA,NA,NA,NA,NA,NA,NA,NA
SUPAMT54374,3FE2ERCCZ372A5QM13DFV1P6ZSDOPF,E22A9ADE-CC5F-48C9-A596-9A8C1C7E45AD,2023-09-26_06h31.50.404,WP_VExplicitOC_HL,2022.2.5,Win32,16.13631963,NA,NA,NA,NA,NA,NA,NA,NA,NA,NA,NA,42.00323102,1.2065,0,9,9,9,1,read the news,010.png,NA,NA,NA,NA,NA,NA,NA,NA,NA,NA,NA,NA,NA,NA,NA,NA,NA,NA,NA,NA,NA,NA,NA,NA,NA,NA,NA,NA,NA,NA,NA,NA,NA,NA,NA,NA,NA,NA,NA
SUPAMT54374,3FE2ERCCZ372A5QM13DFV1P6ZSDOPF,E22A9ADE-CC5F-48C9-A596-9A8C1C7E45AD,2023-09-26_06h31.50.404,WP_VExplicitOC_HL,2022.2.5,Win32,16.13631963,NA,NA,NA,NA,NA,NA,NA,NA,NA,NA,NA,NA,NA,NA,NA,NA,NA,NA,NA,NA,NA,NA,NA,NA,NA,NA,NA,NA,NA,NA,NA,NA,NA,NA,NA,NA,NA,NA,NA,NA,NA,NA,NA,NA,NA,NA,NA,NA,NA,NA,NA,NA,NA,NA,NA,NA,NA,NA,NA
SUPAMT54374,3FE2ERCCZ372A5QM13DFV1P6ZSDOPF,E22A9ADE-CC5F-48C9-A596-9A8C1C7E45AD,2023-09-26_06h31.50.404,WP_VExplicitOC_HL,2022.2.5,Win32,16.13631963,NA,NA,NA,NA,NA,NA,NA,NA,NA,NA,NA,NA,NA,NA,NA,NA,NA,NA,NA,NA,daydream,NA,NA,NA,NA,NA,NA,NA,NA,NA,NA,NA,NA,NA,NA,NA,NA,NA,NA,NA,NA,NA,NA,NA,NA,NA,NA,NA,NA,NA,NA,NA,NA,NA,NA,NA,NA,NA,NA
SUPAMT54374,3FE2ERCCZ372A5QM13DFV1P6ZSDOPF,E22A9ADE-CC5F-48C9-A596-9A8C1C7E45AD,2023-09-26_06h31.50.404,WP_VExplicitOC_HL,2022.2.5,Win32,16.13631963,-57.18901454,4.0659,2.0041,NA,NA,NA,NA,NA,frustrated,"frustrated, not frustrated","more frustrated, less frustrated",NA,NA,NA,NA,NA,NA,NA,NA,NA,NA,0,0,0,1,1,NA,NA,NA,NA,NA,NA,NA,NA,NA,NA,NA,NA,NA,NA,NA,NA,NA,NA,NA,NA,NA,NA,NA,NA,NA,NA,NA,NA,NA,NA,NA,NA,NA
SUPAMT54374,3FE2ERCCZ372A5QM13DFV1P6ZSDOPF,E22A9ADE-CC5F-48C9-A596-9A8C1C7E45AD,2023-09-26_06h31.50.404,WP_VExplicitOC_HL,2022.2.5,Win32,16.13631963,69.14378029,4.2302,2.0489,NA,NA,NA,NA,NA,happy,"unhappy, happy","less happy, more happy",NA,NA,NA,NA,NA,NA,NA,NA,NA,NA,0,1,1,0,1,NA,NA,NA,NA,NA,NA,NA,NA,NA,NA,NA,NA,NA,NA,NA,NA,NA,NA,NA,NA,NA,NA,NA,NA,NA,NA,NA,NA,NA,NA,NA,NA,NA
SUPAMT54374,3FE2ERCCZ372A5QM13DFV1P6ZSDOPF,E22A9ADE-CC5F-48C9-A596-9A8C1C7E45AD,2023-09-26_06h31.50.404,WP_VExplicitOC_HL,2022.2.5,Win32,16.13631963,46.84975767,3.8522,2.0019,NA,NA,NA,NA,NA,bored,"bored, not bored","more bored, less bored",NA,NA,NA,NA,NA,NA,NA,NA,NA,NA,0,2,2,2,1,NA,NA,NA,NA,NA,NA,NA,NA,NA,NA,NA,NA,NA,NA,NA,NA,NA,NA,NA,NA,NA,NA,NA,NA,NA,NA,NA,NA,NA,NA,NA,NA,NA
SUPAMT54374,3FE2ERCCZ372A5QM13DFV1P6ZSDOPF,E22A9ADE-CC5F-48C9-A596-9A8C1C7E45AD,2023-09-26_06h31.50.404,WP_VExplicitOC_HL,2022.2.5,Win32,16.13631963,NA,NA,NA,NA,NA,NA,NA,NA,NA,NA,NA,NA,NA,NA,NA,NA,NA,NA,NA,NA,NA,NA,NA,NA,NA,NA,NA,NA,NA,NA,NA,NA,NA,NA,NA,NA,NA,NA,NA,NA,NA,NA,NA,NA,NA,NA,NA,NA,NA,NA,NA,NA,NA,NA,NA,NA,NA,NA,NA
SUPAMT54374,3FE2ERCCZ372A5QM13DFV1P6ZSDOPF,E22A9ADE-CC5F-48C9-A596-9A8C1C7E45AD,2023-09-26_06h31.50.404,WP_VExplicitOC_HL,2022.2.5,Win32,16.13631963,NA,NA,NA,NA,NA,NA,NA,NA,NA,NA,NA,NA,NA,NA,NA,NA,NA,NA,NA,NA,NA,NA,NA,NA,NA,NA,NA,NA,NA,NA,NA,NA,NA,NA,NA,NA,NA,NA,NA,NA,NA,NA,NA,NA,NA,NA,NA,NA,NA,NA,NA,NA,NA,NA,NA,NA,NA,NA,NA
SUPAMT54374,3FE2ERCCZ372A5QM13DFV1P6ZSDOPF,E22A9ADE-CC5F-48C9-A596-9A8C1C7E45AD,2023-09-26_06h31.50.404,WP_VExplicitOC_HL,2022.2.5,Win32,16.13631963,-32.55208333,4.075,2.0312,NA,NA,NA,NA,NA,frustrated,"frustrated, not frustrated","more frustrated, less frustrated",NA,NA,NA,NA,NA,NA,NA,NA,NA,NA,NA,NA,NA,NA,NA,0,0,0,1,1,NA,NA,NA,NA,NA,NA,NA,NA,NA,NA,NA,NA,NA,NA,NA,NA,NA,NA,NA,NA,NA,NA,NA,NA,NA,NA,NA,NA
SUPAMT54374,3FE2ERCCZ372A5QM13DFV1P6ZSDOPF,E22A9ADE-CC5F-48C9-A596-9A8C1C7E45AD,2023-09-26_06h31.50.404,WP_VExplicitOC_HL,2022.2.5,Win32,16.13631963,20.05208333,4.4961,2.0494,NA,NA,NA,NA,NA,happy,"unhappy, happy","less happy, more happy",NA,NA,NA,NA,NA,NA,NA,NA,NA,NA,NA,NA,NA,NA,NA,0,1,1,0,1,NA,NA,NA,NA,NA,NA,NA,NA,NA,NA,NA,NA,NA,NA,NA,NA,NA,NA,NA,NA,NA,NA,NA,NA,NA,NA,NA,NA
SUPAMT54374,3FE2ERCCZ372A5QM13DFV1P6ZSDOPF,E22A9ADE-CC5F-48C9-A596-9A8C1C7E45AD,2023-09-26_06h31.50.404,WP_VExplicitOC_HL,2022.2.5,Win32,16.13631963,20.05208333,3.578,2.0425,NA,NA,NA,NA,NA,bored,"bored, not bored","more bored, less bored",NA,NA,NA,NA,NA,NA,NA,NA,NA,NA,NA,NA,NA,NA,NA,0,2,2,2,1,NA,NA,NA,NA,NA,NA,NA,NA,NA,NA,NA,NA,NA,NA,NA,NA,NA,NA,NA,NA,NA,NA,NA,NA,NA,NA,NA,NA
SUPAMT54374,3FE2ERCCZ372A5QM13DFV1P6ZSDOPF,E22A9ADE-CC5F-48C9-A596-9A8C1C7E45AD,2023-09-26_06h31.50.404,WP_VExplicitOC_HL,2022.2.5,Win32,16.13631963,NA,NA,NA,NA,NA,NA,NA,NA,NA,NA,NA,NA,NA,NA,NA,NA,NA,NA,NA,NA,NA,NA,NA,NA,NA,NA,NA,NA,NA,NA,NA,0,0,0,0,1,NA,NA,NA,NA,NA,NA,NA,NA,NA,NA,NA,NA,NA,NA,NA,NA,NA,NA,NA,NA,NA,NA,NA
SUPAMT54374,3FE2ERCCZ372A5QM13DFV1P6ZSDOPF,E22A9ADE-CC5F-48C9-A596-9A8C1C7E45AD,2023-09-26_06h31.50.404,WP_VExplicitOC_HL,2022.2.5,Win32,16.13631963,20.05208333,4.0884,2.0835,NA,NA,NA,NA,NA,bored,"bored, not bored","more bored, less bored",NA,NA,NA,NA,NA,NA,NA,NA,NA,NA,NA,NA,NA,NA,NA,0,0,0,2,1,NA,NA,NA,NA,NA,NA,NA,NA,NA,NA,NA,NA,NA,NA,NA,NA,NA,NA,NA,NA,NA,NA,NA,NA,NA,NA,NA,NA
SUPAMT54374,3FE2ERCCZ372A5QM13DFV1P6ZSDOPF,E22A9ADE-CC5F-48C9-A596-9A8C1C7E45AD,2023-09-26_06h31.50.404,WP_VExplicitOC_HL,2022.2.5,Win32,16.13631963,-65.36458333,4.4403,2.0417,NA,NA,NA,NA,NA,frustrated,"frustrated, not frustrated","more frustrated, less frustrated",NA,NA,NA,NA,NA,NA,NA,NA,NA,NA,NA,NA,NA,NA,NA,0,1,1,1,1,NA,NA,NA,NA,NA,NA,NA,NA,NA,NA,NA,NA,NA,NA,NA,NA,NA,NA,NA,NA,NA,NA,NA,NA,NA,NA,NA,NA
SUPAMT54374,3FE2ERCCZ372A5QM13DFV1P6ZSDOPF,E22A9ADE-CC5F-48C9-A596-9A8C1C7E45AD,2023-09-26_06h31.50.404,WP_VExplicitOC_HL,2022.2.5,Win32,16.13631963,35.41666667,4.6397,2.0212,NA,NA,NA,NA,NA,happy,"unhappy, happy","less happy, more happy",NA,NA,NA,NA,NA,NA,NA,NA,NA,NA,NA,NA,NA,NA,NA,0,2,2,0,1,NA,NA,NA,NA,NA,NA,NA,NA,NA,NA,NA,NA,NA,NA,NA,NA,NA,NA,NA,NA,NA,NA,NA,NA,NA,NA,NA,NA
SUPAMT54374,3FE2ERCCZ372A5QM13DFV1P6ZSDOPF,E22A9ADE-CC5F-48C9-A596-9A8C1C7E45AD,2023-09-26_06h31.50.404,WP_VExplicitOC_HL,2022.2.5,Win32,16.13631963,NA,NA,NA,NA,NA,NA,NA,NA,NA,NA,NA,NA,NA,NA,NA,NA,NA,NA,NA,NA,NA,NA,NA,NA,NA,NA,NA,NA,NA,NA,NA,1,0,1,0,1,NA,NA,NA,NA,NA,NA,NA,NA,NA,NA,NA,NA,NA,NA,NA,NA,NA,NA,NA,NA,NA,NA,NA
SUPAMT54374,3FE2ERCCZ372A5QM13DFV1P6ZSDOPF,E22A9ADE-CC5F-48C9-A596-9A8C1C7E45AD,2023-09-26_06h31.50.404,WP_VExplicitOC_HL,2022.2.5,Win32,16.13631963,-32.8125,3.9482,2.013,NA,NA,NA,NA,NA,frustrated,"frustrated, not frustrated","more frustrated, less frustrated",NA,NA,NA,NA,NA,NA,NA,NA,NA,NA,NA,NA,NA,NA,NA,0,0,0,1,1,NA,NA,NA,NA,NA,NA,NA,NA,NA,NA,NA,NA,NA,NA,NA,NA,NA,NA,NA,NA,NA,NA,NA,NA,NA,NA,NA,NA
SUPAMT54374,3FE2ERCCZ372A5QM13DFV1P6ZSDOPF,E22A9ADE-CC5F-48C9-A596-9A8C1C7E45AD,2023-09-26_06h31.50.404,WP_VExplicitOC_HL,2022.2.5,Win32,16.13631963,50.52083333,4.0911,2.044,NA,NA,NA,NA,NA,happy,"unhappy, happy","less happy, more happy",NA,NA,NA,NA,NA,NA,NA,NA,NA,NA,NA,NA,NA,NA,NA,0,1,1,0,1,NA,NA,NA,NA,NA,NA,NA,NA,NA,NA,NA,NA,NA,NA,NA,NA,NA,NA,NA,NA,NA,NA,NA,NA,NA,NA,NA,NA
SUPAMT54374,3FE2ERCCZ372A5QM13DFV1P6ZSDOPF,E22A9ADE-CC5F-48C9-A596-9A8C1C7E45AD,2023-09-26_06h31.50.404,WP_VExplicitOC_HL,2022.2.5,Win32,16.13631963,25.26041667,4.3713,2.0657,NA,NA,NA,NA,NA,bored,"bored, not bored","more bored, less bored",NA,NA,NA,NA,NA,NA,NA,NA,NA,NA,NA,NA,NA,NA,NA,0,2,2,2,1,NA,NA,NA,NA,NA,NA,NA,NA,NA,NA,NA,NA,NA,NA,NA,NA,NA,NA,NA,NA,NA,NA,NA,NA,NA,NA,NA,NA
SUPAMT54374,3FE2ERCCZ372A5QM13DFV1P6ZSDOPF,E22A9ADE-CC5F-48C9-A596-9A8C1C7E45AD,2023-09-26_06h31.50.404,WP_VExplicitOC_HL,2022.2.5,Win32,16.13631963,NA,NA,NA,NA,NA,NA,NA,NA,NA,NA,NA,NA,NA,NA,NA,NA,NA,NA,NA,NA,NA,NA,NA,NA,NA,NA,NA,NA,NA,NA,NA,2,0,2,0,1,NA,NA,NA,NA,NA,NA,NA,NA,NA,NA,NA,NA,NA,NA,NA,NA,NA,NA,NA,NA,NA,NA,NA
SUPAMT54374,3FE2ERCCZ372A5QM13DFV1P6ZSDOPF,E22A9ADE-CC5F-48C9-A596-9A8C1C7E45AD,2023-09-26_06h31.50.404,WP_VExplicitOC_HL,2022.2.5,Win32,16.13631963,41.92708333,4.0367,2.0032,NA,NA,NA,NA,NA,happy,"unhappy, happy","less happy, more happy",NA,NA,NA,NA,NA,NA,NA,NA,NA,NA,NA,NA,NA,NA,NA,0,0,0,0,1,NA,NA,NA,NA,NA,NA,NA,NA,NA,NA,NA,NA,NA,NA,NA,NA,NA,NA,NA,NA,NA,NA,NA,NA,NA,NA,NA,NA
SUPAMT54374,3FE2ERCCZ372A5QM13DFV1P6ZSDOPF,E22A9ADE-CC5F-48C9-A596-9A8C1C7E45AD,2023-09-26_06h31.50.404,WP_VExplicitOC_HL,2022.2.5,Win32,16.13631963,28.90625,3.9993,2.0391,NA,NA,NA,NA,NA,bored,"bored, not bored","more bored, less bored",NA,NA,NA,NA,NA,NA,NA,NA,NA,NA,NA,NA,NA,NA,NA,0,1,1,2,1,NA,NA,NA,NA,NA,NA,NA,NA,NA,NA,NA,NA,NA,NA,NA,NA,NA,NA,NA,NA,NA,NA,NA,NA,NA,NA,NA,NA
SUPAMT54374,3FE2ERCCZ372A5QM13DFV1P6ZSDOPF,E22A9ADE-CC5F-48C9-A596-9A8C1C7E45AD,2023-09-26_06h31.50.404,WP_VExplicitOC_HL,2022.2.5,Win32,16.13631963,-37.23958333,4.1311,2.0043,NA,NA,NA,NA,NA,frustrated,"frustrated, not frustrated","more frustrated, less frustrated",NA,NA,NA,NA,NA,NA,NA,NA,NA,NA,NA,NA,NA,NA,NA,0,2,2,1,1,NA,NA,NA,NA,NA,NA,NA,NA,NA,NA,NA,NA,NA,NA,NA,NA,NA,NA,NA,NA,NA,NA,NA,NA,NA,NA,NA,NA
SUPAMT54374,3FE2ERCCZ372A5QM13DFV1P6ZSDOPF,E22A9ADE-CC5F-48C9-A596-9A8C1C7E45AD,2023-09-26_06h31.50.404,WP_VExplicitOC_HL,2022.2.5,Win32,16.13631963,NA,NA,NA,NA,NA,NA,NA,NA,NA,NA,NA,NA,NA,NA,NA,NA,NA,NA,NA,NA,NA,NA,NA,NA,NA,NA,NA,NA,NA,NA,NA,3,0,3,0,1,NA,NA,NA,NA,NA,NA,NA,NA,NA,NA,NA,NA,NA,NA,NA,NA,NA,NA,NA,NA,NA,NA,NA
SUPAMT54374,3FE2ERCCZ372A5QM13DFV1P6ZSDOPF,E22A9ADE-CC5F-48C9-A596-9A8C1C7E45AD,2023-09-26_06h31.50.404,WP_VExplicitOC_HL,2022.2.5,Win32,16.13631963,22.65625,5.0276,2.0444,NA,NA,NA,NA,NA,bored,"bored, not bored","more bored, less bored",NA,NA,NA,NA,NA,NA,NA,NA,NA,NA,NA,NA,NA,NA,NA,0,0,0,2,1,NA,NA,NA,NA,NA,NA,NA,NA,NA,NA,NA,NA,NA,NA,NA,NA,NA,NA,NA,NA,NA,NA,NA,NA,NA,NA,NA,NA
SUPAMT54374,3FE2ERCCZ372A5QM13DFV1P6ZSDOPF,E22A9ADE-CC5F-48C9-A596-9A8C1C7E45AD,2023-09-26_06h31.50.404,WP_VExplicitOC_HL,2022.2.5,Win32,16.13631963,-63.02083333,4.7928,2.0822,NA,NA,NA,NA,NA,frustrated,"frustrated, not frustrated","more frustrated, less frustrated",NA,NA,NA,NA,NA,NA,NA,NA,NA,NA,NA,NA,NA,NA,NA,0,1,1,1,1,NA,NA,NA,NA,NA,NA,NA,NA,NA,NA,NA,NA,NA,NA,NA,NA,NA,NA,NA,NA,NA,NA,NA,NA,NA,NA,NA,NA
SUPAMT54374,3FE2ERCCZ372A5QM13DFV1P6ZSDOPF,E22A9ADE-CC5F-48C9-A596-9A8C1C7E45AD,2023-09-26_06h31.50.404,WP_VExplicitOC_HL,2022.2.5,Win32,16.13631963,31.77083333,6.5428,2.0677,NA,NA,NA,NA,NA,happy,"unhappy, happy","less happy, more happy",NA,NA,NA,NA,NA,NA,NA,NA,NA,NA,NA,NA,NA,NA,NA,0,2,2,0,1,NA,NA,NA,NA,NA,NA,NA,NA,NA,NA,NA,NA,NA,NA,NA,NA,NA,NA,NA,NA,NA,NA,NA,NA,NA,NA,NA,NA
SUPAMT54374,3FE2ERCCZ372A5QM13DFV1P6ZSDOPF,E22A9ADE-CC5F-48C9-A596-9A8C1C7E45AD,2023-09-26_06h31.50.404,WP_VExplicitOC_HL,2022.2.5,Win32,16.13631963,NA,NA,NA,NA,NA,NA,NA,NA,NA,NA,NA,NA,NA,NA,NA,NA,NA,NA,NA,NA,NA,NA,NA,NA,NA,NA,NA,NA,NA,NA,NA,4,0,4,0,1,NA,NA,NA,NA,NA,NA,NA,NA,NA,NA,NA,NA,NA,NA,NA,NA,NA,NA,NA,NA,NA,NA,NA
SUPAMT54374,3FE2ERCCZ372A5QM13DFV1P6ZSDOPF,E22A9ADE-CC5F-48C9-A596-9A8C1C7E45AD,2023-09-26_06h31.50.404,WP_VExplicitOC_HL,2022.2.5,Win32,16.13631963,31.51041667,4.3548,2.0426,NA,NA,NA,NA,NA,happy,"unhappy, happy","less happy, more happy",NA,NA,NA,NA,NA,NA,NA,NA,NA,NA,NA,NA,NA,NA,NA,0,0,0,0,1,NA,NA,NA,NA,NA,NA,NA,NA,NA,NA,NA,NA,NA,NA,NA,NA,NA,NA,NA,NA,NA,NA,NA,NA,NA,NA,NA,NA
SUPAMT54374,3FE2ERCCZ372A5QM13DFV1P6ZSDOPF,E22A9ADE-CC5F-48C9-A596-9A8C1C7E45AD,2023-09-26_06h31.50.404,WP_VExplicitOC_HL,2022.2.5,Win32,16.13631963,31.51041667,3.7315,2.0578,NA,NA,NA,NA,NA,bored,"bored, not bored","more bored, less bored",NA,NA,NA,NA,NA,NA,NA,NA,NA,NA,NA,NA,NA,NA,NA,0,1,1,2,1,NA,NA,NA,NA,NA,NA,NA,NA,NA,NA,NA,NA,NA,NA,NA,NA,NA,NA,NA,NA,NA,NA,NA,NA,NA,NA,NA,NA
SUPAMT54374,3FE2ERCCZ372A5QM13DFV1P6ZSDOPF,E22A9ADE-CC5F-48C9-A596-9A8C1C7E45AD,2023-09-26_06h31.50.404,WP_VExplicitOC_HL,2022.2.5,Win32,16.13631963,-26.82291667,4.9643,2.0158,NA,NA,NA,NA,NA,frustrated,"frustrated, not frustrated","more frustrated, less frustrated",NA,NA,NA,NA,NA,NA,NA,NA,NA,NA,NA,NA,NA,NA,NA,0,2,2,1,1,NA,NA,NA,NA,NA,NA,NA,NA,NA,NA,NA,NA,NA,NA,NA,NA,NA,NA,NA,NA,NA,NA,NA,NA,NA,NA,NA,NA
SUPAMT54374,3FE2ERCCZ372A5QM13DFV1P6ZSDOPF,E22A9ADE-CC5F-48C9-A596-9A8C1C7E45AD,2023-09-26_06h31.50.404,WP_VExplicitOC_HL,2022.2.5,Win32,16.13631963,NA,NA,NA,NA,NA,NA,NA,NA,NA,NA,NA,NA,NA,NA,NA,NA,NA,NA,NA,NA,NA,NA,NA,NA,NA,NA,NA,NA,NA,NA,NA,5,0,5,0,1,NA,NA,NA,NA,NA,NA,NA,NA,NA,NA,NA,NA,NA,NA,NA,NA,NA,NA,NA,NA,NA,NA,NA
SUPAMT54374,3FE2ERCCZ372A5QM13DFV1P6ZSDOPF,E22A9ADE-CC5F-48C9-A596-9A8C1C7E45AD,2023-09-26_06h31.50.404,WP_VExplicitOC_HL,2022.2.5,Win32,16.13631963,26.82291667,4.19,2.0258,NA,NA,NA,NA,NA,bored,"bored, not bored","more bored, less bored",NA,NA,NA,NA,NA,NA,NA,NA,NA,NA,NA,NA,NA,NA,NA,0,0,0,2,1,NA,NA,NA,NA,NA,NA,NA,NA,NA,NA,NA,NA,NA,NA,NA,NA,NA,NA,NA,NA,NA,NA,NA,NA,NA,NA,NA,NA
SUPAMT54374,3FE2ERCCZ372A5QM13DFV1P6ZSDOPF,E22A9ADE-CC5F-48C9-A596-9A8C1C7E45AD,2023-09-26_06h31.50.404,WP_VExplicitOC_HL,2022.2.5,Win32,16.13631963,-47.91666667,4.2509,2.0521,NA,NA,NA,NA,NA,frustrated,"frustrated, not frustrated","more frustrated, less frustrated",NA,NA,NA,NA,NA,NA,NA,NA,NA,NA,NA,NA,NA,NA,NA,0,1,1,1,1,NA,NA,NA,NA,NA,NA,NA,NA,NA,NA,NA,NA,NA,NA,NA,NA,NA,NA,NA,NA,NA,NA,NA,NA,NA,NA,NA,NA
SUPAMT54374,3FE2ERCCZ372A5QM13DFV1P6ZSDOPF,E22A9ADE-CC5F-48C9-A596-9A8C1C7E45AD,2023-09-26_06h31.50.404,WP_VExplicitOC_HL,2022.2.5,Win32,16.13631963,36.71875,4.5551,2.0317,NA,NA,NA,NA,NA,happy,"unhappy, happy","less happy, more happy",NA,NA,NA,NA,NA,NA,NA,NA,NA,NA,NA,NA,NA,NA,NA,0,2,2,0,1,NA,NA,NA,NA,NA,NA,NA,NA,NA,NA,NA,NA,NA,NA,NA,NA,NA,NA,NA,NA,NA,NA,NA,NA,NA,NA,NA,NA
SUPAMT54374,3FE2ERCCZ372A5QM13DFV1P6ZSDOPF,E22A9ADE-CC5F-48C9-A596-9A8C1C7E45AD,2023-09-26_06h31.50.404,WP_VExplicitOC_HL,2022.2.5,Win32,16.13631963,NA,NA,NA,NA,NA,NA,NA,NA,NA,NA,NA,NA,NA,NA,NA,NA,NA,NA,NA,NA,NA,NA,NA,NA,NA,NA,NA,NA,NA,NA,NA,6,0,6,0,1,NA,NA,NA,NA,NA,NA,NA,NA,NA,NA,NA,NA,NA,NA,NA,NA,NA,NA,NA,NA,NA,NA,NA
SUPAMT54374,3FE2ERCCZ372A5QM13DFV1P6ZSDOPF,E22A9ADE-CC5F-48C9-A596-9A8C1C7E45AD,2023-09-26_06h31.50.404,WP_VExplicitOC_HL,2022.2.5,Win32,16.13631963,-45.05208333,4.1619,2.0721,NA,NA,NA,NA,NA,frustrated,"frustrated, not frustrated","more frustrated, less frustrated",NA,NA,NA,NA,NA,NA,NA,NA,NA,NA,NA,NA,NA,NA,NA,0,0,0,1,1,NA,NA,NA,NA,NA,NA,NA,NA,NA,NA,NA,NA,NA,NA,NA,NA,NA,NA,NA,NA,NA,NA,NA,NA,NA,NA,NA,NA
SUPAMT54374,3FE2ERCCZ372A5QM13DFV1P6ZSDOPF,E22A9ADE-CC5F-48C9-A596-9A8C1C7E45AD,2023-09-26_06h31.50.404,WP_VExplicitOC_HL,2022.2.5,Win32,16.13631963,37.76041667,4.4857,2.042,NA,NA,NA,NA,NA,happy,"unhappy, happy","less happy, more happy",NA,NA,NA,NA,NA,NA,NA,NA,NA,NA,NA,NA,NA,NA,NA,0,1,1,0,1,NA,NA,NA,NA,NA,NA,NA,NA,NA,NA,NA,NA,NA,NA,NA,NA,NA,NA,NA,NA,NA,NA,NA,NA,NA,NA,NA,NA
SUPAMT54374,3FE2ERCCZ372A5QM13DFV1P6ZSDOPF,E22A9ADE-CC5F-48C9-A596-9A8C1C7E45AD,2023-09-26_06h31.50.404,WP_VExplicitOC_HL,2022.2.5,Win32,16.13631963,50.26041667,5.2328,2.0301,NA,NA,NA,NA,NA,bored,"bored, not bored","more bored, less bored",NA,NA,NA,NA,NA,NA,NA,NA,NA,NA,NA,NA,NA,NA,NA,0,2,2,2,1,NA,NA,NA,NA,NA,NA,NA,NA,NA,NA,NA,NA,NA,NA,NA,NA,NA,NA,NA,NA,NA,NA,NA,NA,NA,NA,NA,NA
SUPAMT54374,3FE2ERCCZ372A5QM13DFV1P6ZSDOPF,E22A9ADE-CC5F-48C9-A596-9A8C1C7E45AD,2023-09-26_06h31.50.404,WP_VExplicitOC_HL,2022.2.5,Win32,16.13631963,NA,NA,NA,NA,NA,NA,NA,NA,NA,NA,NA,NA,NA,NA,NA,NA,NA,NA,NA,NA,NA,NA,NA,NA,NA,NA,NA,NA,NA,NA,NA,7,0,7,0,1,NA,NA,NA,NA,NA,NA,NA,NA,NA,NA,NA,NA,NA,NA,NA,NA,NA,NA,NA,NA,NA,NA,NA
SUPAMT54374,3FE2ERCCZ372A5QM13DFV1P6ZSDOPF,E22A9ADE-CC5F-48C9-A596-9A8C1C7E45AD,2023-09-26_06h31.50.404,WP_VExplicitOC_HL,2022.2.5,Win32,16.13631963,49.47916667,3.973,2.0071,NA,NA,NA,NA,NA,happy,"unhappy, happy","less happy, more happy",NA,NA,NA,NA,NA,NA,NA,NA,NA,NA,NA,NA,NA,NA,NA,0,0,0,0,1,NA,NA,NA,NA,NA,NA,NA,NA,NA,NA,NA,NA,NA,NA,NA,NA,NA,NA,NA,NA,NA,NA,NA,NA,NA,NA,NA,NA
SUPAMT54374,3FE2ERCCZ372A5QM13DFV1P6ZSDOPF,E22A9ADE-CC5F-48C9-A596-9A8C1C7E45AD,2023-09-26_06h31.50.404,WP_VExplicitOC_HL,2022.2.5,Win32,16.13631963,26.30208333,4.7885,2.0185,NA,NA,NA,NA,NA,bored,"bored, not bored","more bored, less bored",NA,NA,NA,NA,NA,NA,NA,NA,NA,NA,NA,NA,NA,NA,NA,0,1,1,2,1,NA,NA,NA,NA,NA,NA,NA,NA,NA,NA,NA,NA,NA,NA,NA,NA,NA,NA,NA,NA,NA,NA,NA,NA,NA,NA,NA,NA
SUPAMT54374,3FE2ERCCZ372A5QM13DFV1P6ZSDOPF,E22A9ADE-CC5F-48C9-A596-9A8C1C7E45AD,2023-09-26_06h31.50.404,WP_VExplicitOC_HL,2022.2.5,Win32,16.13631963,-27.86458333,4.2575,2.0195,NA,NA,NA,NA,NA,frustrated,"frustrated, not frustrated","more frustrated, less frustrated",NA,NA,NA,NA,NA,NA,NA,NA,NA,NA,NA,NA,NA,NA,NA,0,2,2,1,1,NA,NA,NA,NA,NA,NA,NA,NA,NA,NA,NA,NA,NA,NA,NA,NA,NA,NA,NA,NA,NA,NA,NA,NA,NA,NA,NA,NA
SUPAMT54374,3FE2ERCCZ372A5QM13DFV1P6ZSDOPF,E22A9ADE-CC5F-48C9-A596-9A8C1C7E45AD,2023-09-26_06h31.50.404,WP_VExplicitOC_HL,2022.2.5,Win32,16.13631963,NA,NA,NA,NA,NA,NA,NA,NA,NA,NA,NA,NA,NA,NA,NA,NA,NA,NA,NA,NA,NA,NA,NA,NA,NA,NA,NA,NA,NA,NA,NA,8,0,8,0,1,NA,NA,NA,NA,NA,NA,NA,NA,NA,NA,NA,NA,NA,NA,NA,NA,NA,NA,NA,NA,NA,NA,NA
SUPAMT54374,3FE2ERCCZ372A5QM13DFV1P6ZSDOPF,E22A9ADE-CC5F-48C9-A596-9A8C1C7E45AD,2023-09-26_06h31.50.404,WP_VExplicitOC_HL,2022.2.5,Win32,16.13631963,17.44791667,4.5596,2.0211,NA,NA,NA,NA,NA,bored,"bored, not bored","more bored, less bored",NA,NA,NA,NA,NA,NA,NA,NA,NA,NA,NA,NA,NA,NA,NA,0,0,0,2,1,NA,NA,NA,NA,NA,NA,NA,NA,NA,NA,NA,NA,NA,NA,NA,NA,NA,NA,NA,NA,NA,NA,NA,NA,NA,NA,NA,NA
SUPAMT54374,3FE2ERCCZ372A5QM13DFV1P6ZSDOPF,E22A9ADE-CC5F-48C9-A596-9A8C1C7E45AD,2023-09-26_06h31.50.404,WP_VExplicitOC_HL,2022.2.5,Win32,16.13631963,26.30208333,4.0147,2.058,NA,NA,NA,NA,NA,happy,"unhappy, happy","less happy, more happy",NA,NA,NA,NA,NA,NA,NA,NA,NA,NA,NA,NA,NA,NA,NA,0,1,1,0,1,NA,NA,NA,NA,NA,NA,NA,NA,NA,NA,NA,NA,NA,NA,NA,NA,NA,NA,NA,NA,NA,NA,NA,NA,NA,NA,NA,NA
SUPAMT54374,3FE2ERCCZ372A5QM13DFV1P6ZSDOPF,E22A9ADE-CC5F-48C9-A596-9A8C1C7E45AD,2023-09-26_06h31.50.404,WP_VExplicitOC_HL,2022.2.5,Win32,16.13631963,-56.25,4.751,2.0289,NA,NA,NA,NA,NA,frustrated,"frustrated, not frustrated","more frustrated, less frustrated",NA,NA,NA,NA,NA,NA,NA,NA,NA,NA,NA,NA,NA,NA,NA,0,2,2,1,1,NA,NA,NA,NA,NA,NA,NA,NA,NA,NA,NA,NA,NA,NA,NA,NA,NA,NA,NA,NA,NA,NA,NA,NA,NA,NA,NA,NA
SUPAMT54374,3FE2ERCCZ372A5QM13DFV1P6ZSDOPF,E22A9ADE-CC5F-48C9-A596-9A8C1C7E45AD,2023-09-26_06h31.50.404,WP_VExplicitOC_HL,2022.2.5,Win32,16.13631963,NA,NA,NA,NA,NA,NA,NA,NA,NA,NA,NA,NA,NA,NA,NA,NA,NA,NA,NA,NA,NA,NA,NA,NA,NA,NA,NA,NA,NA,NA,NA,9,0,9,0,1,NA,NA,NA,NA,NA,NA,NA,NA,NA,NA,NA,NA,NA,NA,NA,NA,NA,NA,NA,NA,NA,NA,NA
SUPAMT54374,3FE2ERCCZ372A5QM13DFV1P6ZSDOPF,E22A9ADE-CC5F-48C9-A596-9A8C1C7E45AD,2023-09-26_06h31.50.404,WP_VExplicitOC_HL,2022.2.5,Win32,16.13631963,28.125,4.1375,2.0151,NA,NA,NA,NA,NA,happy,"unhappy, happy","less happy, more happy",NA,NA,NA,NA,NA,NA,NA,NA,NA,NA,NA,NA,NA,NA,NA,0,0,0,0,1,NA,NA,NA,NA,NA,NA,NA,NA,NA,NA,NA,NA,NA,NA,NA,NA,NA,NA,NA,NA,NA,NA,NA,NA,NA,NA,NA,NA
SUPAMT54374,3FE2ERCCZ372A5QM13DFV1P6ZSDOPF,E22A9ADE-CC5F-48C9-A596-9A8C1C7E45AD,2023-09-26_06h31.50.404,WP_VExplicitOC_HL,2022.2.5,Win32,16.13631963,18.48958333,4.3066,2.0606,NA,NA,NA,NA,NA,bored,"bored, not bored","more bored, less bored",NA,NA,NA,NA,NA,NA,NA,NA,NA,NA,NA,NA,NA,NA,NA,0,1,1,2,1,NA,NA,NA,NA,NA,NA,NA,NA,NA,NA,NA,NA,NA,NA,NA,NA,NA,NA,NA,NA,NA,NA,NA,NA,NA,NA,NA,NA
SUPAMT54374,3FE2ERCCZ372A5QM13DFV1P6ZSDOPF,E22A9ADE-CC5F-48C9-A596-9A8C1C7E45AD,2023-09-26_06h31.50.404,WP_VExplicitOC_HL,2022.2.5,Win32,16.13631963,-53.90625,4.1255,2.0339,NA,NA,NA,NA,NA,frustrated,"frustrated, not frustrated","more frustrated, less frustrated",NA,NA,NA,NA,NA,NA,NA,NA,NA,NA,NA,NA,NA,NA,NA,0,2,2,1,1,NA,NA,NA,NA,NA,NA,NA,NA,NA,NA,NA,NA,NA,NA,NA,NA,NA,NA,NA,NA,NA,NA,NA,NA,NA,NA,NA,NA
SUPAMT54374,3FE2ERCCZ372A5QM13DFV1P6ZSDOPF,E22A9ADE-CC5F-48C9-A596-9A8C1C7E45AD,2023-09-26_06h31.50.404,WP_VExplicitOC_HL,2022.2.5,Win32,16.13631963,NA,NA,NA,NA,NA,NA,NA,NA,NA,NA,NA,NA,NA,NA,NA,NA,NA,NA,NA,NA,NA,NA,NA,NA,NA,NA,NA,NA,NA,NA,NA,10,0,10,0,1,NA,NA,NA,NA,NA,NA,NA,NA,NA,NA,NA,NA,NA,NA,NA,NA,NA,NA,NA,NA,NA,NA,NA
SUPAMT54374,3FE2ERCCZ372A5QM13DFV1P6ZSDOPF,E22A9ADE-CC5F-48C9-A596-9A8C1C7E45AD,2023-09-26_06h31.50.404,WP_VExplicitOC_HL,2022.2.5,Win32,16.13631963,39.0625,3.8831,2.0685,NA,NA,NA,NA,NA,happy,"unhappy, happy","less happy, more happy",NA,NA,NA,NA,NA,NA,NA,NA,NA,NA,NA,NA,NA,NA,NA,0,0,0,0,1,NA,NA,NA,NA,NA,NA,NA,NA,NA,NA,NA,NA,NA,NA,NA,NA,NA,NA,NA,NA,NA,NA,NA,NA,NA,NA,NA,NA
SUPAMT54374,3FE2ERCCZ372A5QM13DFV1P6ZSDOPF,E22A9ADE-CC5F-48C9-A596-9A8C1C7E45AD,2023-09-26_06h31.50.404,WP_VExplicitOC_HL,2022.2.5,Win32,16.13631963,-31.77083333,4.2307,2.063,NA,NA,NA,NA,NA,frustrated,"frustrated, not frustrated","more frustrated, less frustrated",NA,NA,NA,NA,NA,NA,NA,NA,NA,NA,NA,NA,NA,NA,NA,0,1,1,1,1,NA,NA,NA,NA,NA,NA,NA,NA,NA,NA,NA,NA,NA,NA,NA,NA,NA,NA,NA,NA,NA,NA,NA,NA,NA,NA,NA,NA
SUPAMT54374,3FE2ERCCZ372A5QM13DFV1P6ZSDOPF,E22A9ADE-CC5F-48C9-A596-9A8C1C7E45AD,2023-09-26_06h31.50.404,WP_VExplicitOC_HL,2022.2.5,Win32,16.13631963,27.60416667,4.5657,2.0664,NA,NA,NA,NA,NA,bored,"bored, not bored","more bored, less bored",NA,NA,NA,NA,NA,NA,NA,NA,NA,NA,NA,NA,NA,NA,NA,0,2,2,2,1,NA,NA,NA,NA,NA,NA,NA,NA,NA,NA,NA,NA,NA,NA,NA,NA,NA,NA,NA,NA,NA,NA,NA,NA,NA,NA,NA,NA
SUPAMT54374,3FE2ERCCZ372A5QM13DFV1P6ZSDOPF,E22A9ADE-CC5F-48C9-A596-9A8C1C7E45AD,2023-09-26_06h31.50.404,WP_VExplicitOC_HL,2022.2.5,Win32,16.13631963,NA,NA,NA,NA,NA,NA,NA,NA,NA,NA,NA,NA,NA,NA,NA,NA,NA,NA,NA,NA,NA,NA,NA,NA,NA,NA,NA,NA,NA,NA,NA,11,0,11,0,1,NA,NA,NA,NA,NA,NA,NA,NA,NA,NA,NA,NA,NA,NA,NA,NA,NA,NA,NA,NA,NA,NA,NA
SUPAMT54374,3FE2ERCCZ372A5QM13DFV1P6ZSDOPF,E22A9ADE-CC5F-48C9-A596-9A8C1C7E45AD,2023-09-26_06h31.50.404,WP_VExplicitOC_HL,2022.2.5,Win32,16.13631963,27.34375,3.7808,2.0616,NA,NA,NA,NA,NA,bored,"bored, not bored","more bored, less bored",NA,NA,NA,NA,NA,NA,NA,NA,NA,NA,NA,NA,NA,NA,NA,0,0,0,2,1,NA,NA,NA,NA,NA,NA,NA,NA,NA,NA,NA,NA,NA,NA,NA,NA,NA,NA,NA,NA,NA,NA,NA,NA,NA,NA,NA,NA
SUPAMT54374,3FE2ERCCZ372A5QM13DFV1P6ZSDOPF,E22A9ADE-CC5F-48C9-A596-9A8C1C7E45AD,2023-09-26_06h31.50.404,WP_VExplicitOC_HL,2022.2.5,Win32,16.13631963,27.34375,3.6547,2.0377,NA,NA,NA,NA,NA,happy,"unhappy, happy","less happy, more happy",NA,NA,NA,NA,NA,NA,NA,NA,NA,NA,NA,NA,NA,NA,NA,0,1,1,0,1,NA,NA,NA,NA,NA,NA,NA,NA,NA,NA,NA,NA,NA,NA,NA,NA,NA,NA,NA,NA,NA,NA,NA,NA,NA,NA,NA,NA
SUPAMT54374,3FE2ERCCZ372A5QM13DFV1P6ZSDOPF,E22A9ADE-CC5F-48C9-A596-9A8C1C7E45AD,2023-09-26_06h31.50.404,WP_VExplicitOC_HL,2022.2.5,Win32,16.13631963,-36.71875,4.203,2.06,NA,NA,NA,NA,NA,frustrated,"frustrated, not frustrated","more frustrated, less frustrated",NA,NA,NA,NA,NA,NA,NA,NA,NA,NA,NA,NA,NA,NA,NA,0,2,2,1,1,NA,NA,NA,NA,NA,NA,NA,NA,NA,NA,NA,NA,NA,NA,NA,NA,NA,NA,NA,NA,NA,NA,NA,NA,NA,NA,NA,NA
SUPAMT54374,3FE2ERCCZ372A5QM13DFV1P6ZSDOPF,E22A9ADE-CC5F-48C9-A596-9A8C1C7E45AD,2023-09-26_06h31.50.404,WP_VExplicitOC_HL,2022.2.5,Win32,16.13631963,NA,NA,NA,NA,NA,NA,NA,NA,NA,NA,NA,NA,NA,NA,NA,NA,NA,NA,NA,NA,NA,NA,NA,NA,NA,NA,NA,NA,NA,NA,NA,12,0,12,0,1,NA,NA,NA,NA,NA,NA,NA,NA,NA,NA,NA,NA,NA,NA,NA,NA,NA,NA,NA,NA,NA,NA,NA
SUPAMT54374,3FE2ERCCZ372A5QM13DFV1P6ZSDOPF,E22A9ADE-CC5F-48C9-A596-9A8C1C7E45AD,2023-09-26_06h31.50.404,WP_VExplicitOC_HL,2022.2.5,Win32,16.13631963,47.39583333,5.3676,2.005,NA,NA,NA,NA,NA,happy,"unhappy, happy","less happy, more happy",NA,NA,NA,NA,NA,NA,NA,NA,NA,NA,NA,NA,NA,NA,NA,0,0,0,0,1,NA,NA,NA,NA,NA,NA,NA,NA,NA,NA,NA,NA,NA,NA,NA,NA,NA,NA,NA,NA,NA,NA,NA,NA,NA,NA,NA,NA
SUPAMT54374,3FE2ERCCZ372A5QM13DFV1P6ZSDOPF,E22A9ADE-CC5F-48C9-A596-9A8C1C7E45AD,2023-09-26_06h31.50.404,WP_VExplicitOC_HL,2022.2.5,Win32,16.13631963,45.3125,4.1501,2.0614,NA,NA,NA,NA,NA,bored,"bored, not bored","more bored, less bored",NA,NA,NA,NA,NA,NA,NA,NA,NA,NA,NA,NA,NA,NA,NA,0,1,1,2,1,NA,NA,NA,NA,NA,NA,NA,NA,NA,NA,NA,NA,NA,NA,NA,NA,NA,NA,NA,NA,NA,NA,NA,NA,NA,NA,NA,NA
SUPAMT54374,3FE2ERCCZ372A5QM13DFV1P6ZSDOPF,E22A9ADE-CC5F-48C9-A596-9A8C1C7E45AD,2023-09-26_06h31.50.404,WP_VExplicitOC_HL,2022.2.5,Win32,16.13631963,-30.46875,3.9051,2.0585,NA,NA,NA,NA,NA,frustrated,"frustrated, not frustrated","more frustrated, less frustrated",NA,NA,NA,NA,NA,NA,NA,NA,NA,NA,NA,NA,NA,NA,NA,0,2,2,1,1,NA,NA,NA,NA,NA,NA,NA,NA,NA,NA,NA,NA,NA,NA,NA,NA,NA,NA,NA,NA,NA,NA,NA,NA,NA,NA,NA,NA
SUPAMT54374,3FE2ERCCZ372A5QM13DFV1P6ZSDOPF,E22A9ADE-CC5F-48C9-A596-9A8C1C7E45AD,2023-09-26_06h31.50.404,WP_VExplicitOC_HL,2022.2.5,Win32,16.13631963,NA,NA,NA,NA,NA,NA,NA,NA,NA,NA,NA,NA,NA,NA,NA,NA,NA,NA,NA,NA,NA,NA,NA,NA,NA,NA,NA,NA,NA,NA,NA,13,0,13,0,1,NA,NA,NA,NA,NA,NA,NA,NA,NA,NA,NA,NA,NA,NA,NA,NA,NA,NA,NA,NA,NA,NA,NA
SUPAMT54374,3FE2ERCCZ372A5QM13DFV1P6ZSDOPF,E22A9ADE-CC5F-48C9-A596-9A8C1C7E45AD,2023-09-26_06h31.50.404,WP_VExplicitOC_HL,2022.2.5,Win32,16.13631963,-30.46875,4.005,2.068,NA,NA,NA,NA,NA,frustrated,"frustrated, not frustrated","more frustrated, less frustrated",NA,NA,NA,NA,NA,NA,NA,NA,NA,NA,NA,NA,NA,NA,NA,0,0,0,1,1,NA,NA,NA,NA,NA,NA,NA,NA,NA,NA,NA,NA,NA,NA,NA,NA,NA,NA,NA,NA,NA,NA,NA,NA,NA,NA,NA,NA
SUPAMT54374,3FE2ERCCZ372A5QM13DFV1P6ZSDOPF,E22A9ADE-CC5F-48C9-A596-9A8C1C7E45AD,2023-09-26_06h31.50.404,WP_VExplicitOC_HL,2022.2.5,Win32,16.13631963,52.60416667,4.3089,2.0622,NA,NA,NA,NA,NA,happy,"unhappy, happy","less happy, more happy",NA,NA,NA,NA,NA,NA,NA,NA,NA,NA,NA,NA,NA,NA,NA,0,1,1,0,1,NA,NA,NA,NA,NA,NA,NA,NA,NA,NA,NA,NA,NA,NA,NA,NA,NA,NA,NA,NA,NA,NA,NA,NA,NA,NA,NA,NA
SUPAMT54374,3FE2ERCCZ372A5QM13DFV1P6ZSDOPF,E22A9ADE-CC5F-48C9-A596-9A8C1C7E45AD,2023-09-26_06h31.50.404,WP_VExplicitOC_HL,2022.2.5,Win32,16.13631963,24.21875,3.814,2.0627,NA,NA,NA,NA,NA,bored,"bored, not bored","more bored, less bored",NA,NA,NA,NA,NA,NA,NA,NA,NA,NA,NA,NA,NA,NA,NA,0,2,2,2,1,NA,NA,NA,NA,NA,NA,NA,NA,NA,NA,NA,NA,NA,NA,NA,NA,NA,NA,NA,NA,NA,NA,NA,NA,NA,NA,NA,NA
SUPAMT54374,3FE2ERCCZ372A5QM13DFV1P6ZSDOPF,E22A9ADE-CC5F-48C9-A596-9A8C1C7E45AD,2023-09-26_06h31.50.404,WP_VExplicitOC_HL,2022.2.5,Win32,16.13631963,NA,NA,NA,NA,NA,NA,NA,NA,NA,NA,NA,NA,NA,NA,NA,NA,NA,NA,NA,NA,NA,NA,NA,NA,NA,NA,NA,NA,NA,NA,NA,14,0,14,0,1,NA,NA,NA,NA,NA,NA,NA,NA,NA,NA,NA,NA,NA,NA,NA,NA,NA,NA,NA,NA,NA,NA,NA
SUPAMT54374,3FE2ERCCZ372A5QM13DFV1P6ZSDOPF,E22A9ADE-CC5F-48C9-A596-9A8C1C7E45AD,2023-09-26_06h31.50.404,WP_VExplicitOC_HL,2022.2.5,Win32,16.13631963,NA,NA,NA,NA,NA,NA,NA,NA,NA,NA,NA,NA,NA,NA,NA,NA,NA,NA,NA,NA,NA,NA,NA,NA,NA,NA,NA,NA,NA,NA,NA,NA,NA,NA,NA,NA,NA,NA,NA,NA,NA,NA,NA,NA,NA,NA,NA,NA,NA,NA,NA,NA,NA,NA,NA,NA,NA,NA,NA
SUPAMT54374,3FE2ERCCZ372A5QM13DFV1P6ZSDOPF,E22A9ADE-CC5F-48C9-A596-9A8C1C7E45AD,2023-09-26_06h31.50.404,WP_VExplicitOC_HL,2022.2.5,Win32,16.13631963,NA,NA,NA,NA,NA,NA,NA,NA,NA,NA,NA,NA,NA,NA,NA,NA,NA,NA,NA,NA,NA,NA,NA,NA,NA,NA,NA,NA,NA,NA,NA,NA,NA,NA,NA,NA,NA,NA,NA,NA,NA,NA,NA,NA,NA,NA,NA,NA,NA,NA,NA,NA,NA,NA,NA,NA,NA,NA,NA
SUPAMT54374,3FE2ERCCZ372A5QM13DFV1P6ZSDOPF,E22A9ADE-CC5F-48C9-A596-9A8C1C7E45AD,2023-09-26_06h31.50.404,WP_VExplicitOC_HL,2022.2.5,Win32,16.13631963,NA,NA,NA,NA,NA,NA,NA,NA,NA,NA,NA,NA,NA,NA,NA,NA,NA,NA,rest (looking at a fixed cross),001.png,NA,NA,NA,NA,NA,NA,NA,NA,NA,NA,NA,NA,NA,NA,NA,NA,24.21875,1.9347,0,0,0,0,1,NA,NA,NA,NA,NA,NA,NA,NA,NA,NA,NA,NA,NA,NA,NA,NA
SUPAMT54374,3FE2ERCCZ372A5QM13DFV1P6ZSDOPF,E22A9ADE-CC5F-48C9-A596-9A8C1C7E45AD,2023-09-26_06h31.50.404,WP_VExplicitOC_HL,2022.2.5,Win32,16.13631963,NA,NA,NA,NA,NA,NA,NA,NA,NA,NA,NA,NA,NA,NA,NA,NA,NA,NA,stand up,002.png,NA,NA,NA,NA,NA,NA,NA,NA,NA,NA,NA,NA,NA,NA,NA,NA,46.35416667,2.3922,0,1,1,1,1,NA,NA,NA,NA,NA,NA,NA,NA,NA,NA,NA,NA,NA,NA,NA,NA
SUPAMT54374,3FE2ERCCZ372A5QM13DFV1P6ZSDOPF,E22A9ADE-CC5F-48C9-A596-9A8C1C7E45AD,2023-09-26_06h31.50.404,WP_VExplicitOC_HL,2022.2.5,Win32,16.13631963,NA,NA,NA,NA,NA,NA,NA,NA,NA,NA,NA,NA,NA,NA,NA,NA,NA,NA,stretch,003.png,NA,NA,NA,NA,NA,NA,NA,NA,NA,NA,NA,NA,NA,NA,NA,NA,31.77083333,1.845,0,2,2,2,1,NA,NA,NA,NA,NA,NA,NA,NA,NA,NA,NA,NA,NA,NA,NA,NA
SUPAMT54374,3FE2ERCCZ372A5QM13DFV1P6ZSDOPF,E22A9ADE-CC5F-48C9-A596-9A8C1C7E45AD,2023-09-26_06h31.50.404,WP_VExplicitOC_HL,2022.2.5,Win32,16.13631963,NA,NA,NA,NA,NA,NA,NA,NA,NA,NA,NA,NA,NA,NA,NA,NA,NA,NA,make a drink,004.png,NA,NA,NA,NA,NA,NA,NA,NA,NA,NA,NA,NA,NA,NA,NA,NA,59.89583333,1.9442,0,3,3,3,1,NA,NA,NA,NA,NA,NA,NA,NA,NA,NA,NA,NA,NA,NA,NA,NA
SUPAMT54374,3FE2ERCCZ372A5QM13DFV1P6ZSDOPF,E22A9ADE-CC5F-48C9-A596-9A8C1C7E45AD,2023-09-26_06h31.50.404,WP_VExplicitOC_HL,2022.2.5,Win32,16.13631963,NA,NA,NA,NA,NA,NA,NA,NA,NA,NA,NA,NA,NA,NA,NA,NA,NA,NA,scroll social media,005.png,NA,NA,NA,NA,NA,NA,NA,NA,NA,NA,NA,NA,NA,NA,NA,NA,53.90625,1.8127,0,4,4,4,1,NA,NA,NA,NA,NA,NA,NA,NA,NA,NA,NA,NA,NA,NA,NA,NA
SUPAMT54374,3FE2ERCCZ372A5QM13DFV1P6ZSDOPF,E22A9ADE-CC5F-48C9-A596-9A8C1C7E45AD,2023-09-26_06h31.50.404,WP_VExplicitOC_HL,2022.2.5,Win32,16.13631963,NA,NA,NA,NA,NA,NA,NA,NA,NA,NA,NA,NA,NA,NA,NA,NA,NA,NA,listen to music,006.png,NA,NA,NA,NA,NA,NA,NA,NA,NA,NA,NA,NA,NA,NA,NA,NA,81.51041667,1.9931,0,5,5,5,1,NA,NA,NA,NA,NA,NA,NA,NA,NA,NA,NA,NA,NA,NA,NA,NA
SUPAMT54374,3FE2ERCCZ372A5QM13DFV1P6ZSDOPF,E22A9ADE-CC5F-48C9-A596-9A8C1C7E45AD,2023-09-26_06h31.50.404,WP_VExplicitOC_HL,2022.2.5,Win32,16.13631963,NA,NA,NA,NA,NA,NA,NA,NA,NA,NA,NA,NA,NA,NA,NA,NA,NA,NA,daydream,007.png,NA,NA,NA,NA,NA,NA,NA,NA,NA,NA,NA,NA,NA,NA,NA,NA,-19.27083333,2.2096,0,6,6,6,1,NA,NA,NA,NA,NA,NA,NA,NA,NA,NA,NA,NA,NA,NA,NA,NA
SUPAMT54374,3FE2ERCCZ372A5QM13DFV1P6ZSDOPF,E22A9ADE-CC5F-48C9-A596-9A8C1C7E45AD,2023-09-26_06h31.50.404,WP_VExplicitOC_HL,2022.2.5,Win32,16.13631963,NA,NA,NA,NA,NA,NA,NA,NA,NA,NA,NA,NA,NA,NA,NA,NA,NA,NA,watch a short animation,008.png,NA,NA,NA,NA,NA,NA,NA,NA,NA,NA,NA,NA,NA,NA,NA,NA,14.84375,1.7956,0,7,7,7,1,NA,NA,NA,NA,NA,NA,NA,NA,NA,NA,NA,NA,NA,NA,NA,NA
SUPAMT54374,3FE2ERCCZ372A5QM13DFV1P6ZSDOPF,E22A9ADE-CC5F-48C9-A596-9A8C1C7E45AD,2023-09-26_06h31.50.404,WP_VExplicitOC_HL,2022.2.5,Win32,16.13631963,NA,NA,NA,NA,NA,NA,NA,NA,NA,NA,NA,NA,NA,NA,NA,NA,NA,NA,read a novel,009.png,NA,NA,NA,NA,NA,NA,NA,NA,NA,NA,NA,NA,NA,NA,NA,NA,37.23958333,1.617,0,8,8,8,1,NA,NA,NA,NA,NA,NA,NA,NA,NA,NA,NA,NA,NA,NA,NA,NA
SUPAMT54374,3FE2ERCCZ372A5QM13DFV1P6ZSDOPF,E22A9ADE-CC5F-48C9-A596-9A8C1C7E45AD,2023-09-26_06h31.50.404,WP_VExplicitOC_HL,2022.2.5,Win32,16.13631963,NA,NA,NA,NA,NA,NA,NA,NA,NA,NA,NA,NA,NA,NA,NA,NA,NA,NA,read the news,010.png,NA,NA,NA,NA,NA,NA,NA,NA,NA,NA,NA,NA,NA,NA,NA,NA,62.76041667,1.9364,0,9,9,9,1,NA,NA,NA,NA,NA,NA,NA,NA,NA,NA,NA,NA,NA,NA,NA,NA
SUPAMT54374,3FE2ERCCZ372A5QM13DFV1P6ZSDOPF,E22A9ADE-CC5F-48C9-A596-9A8C1C7E45AD,2023-09-26_06h31.50.404,WP_VExplicitOC_HL,2022.2.5,Win32,16.13631963,NA,NA,NA,NA,NA,NA,NA,NA,NA,NA,NA,NA,NA,NA,NA,NA,NA,NA,NA,NA,NA,NA,NA,NA,NA,NA,NA,NA,NA,NA,NA,NA,NA,NA,NA,NA,NA,NA,NA,NA,NA,NA,NA,daydream,NA,NA,NA,NA,NA,NA,NA,NA,NA,NA,NA,NA,NA,NA,NA
SUPAMT54374,3FE2ERCCZ372A5QM13DFV1P6ZSDOPF,E22A9ADE-CC5F-48C9-A596-9A8C1C7E45AD,2023-09-26_06h31.50.404,WP_VExplicitOC_HL,2022.2.5,Win32,16.13631963,43.75,3.895,2.0925,NA,NA,NA,NA,NA,bored,"bored, not bored","more bored, less bored",NA,NA,NA,NA,NA,NA,NA,NA,NA,NA,NA,NA,NA,NA,NA,NA,NA,NA,NA,NA,NA,NA,NA,NA,NA,NA,NA,NA,NA,NA,NA,NA,NA,0,0,0,2,1,NA,NA,NA,NA,NA,NA,NA,NA,NA,NA
SUPAMT54374,3FE2ERCCZ372A5QM13DFV1P6ZSDOPF,E22A9ADE-CC5F-48C9-A596-9A8C1C7E45AD,2023-09-26_06h31.50.404,WP_VExplicitOC_HL,2022.2.5,Win32,16.13631963,43.75,3.4412,2.0313,NA,NA,NA,NA,NA,happy,"unhappy, happy","less happy, more happy",NA,NA,NA,NA,NA,NA,NA,NA,NA,NA,NA,NA,NA,NA,NA,NA,NA,NA,NA,NA,NA,NA,NA,NA,NA,NA,NA,NA,NA,NA,NA,NA,NA,0,1,1,0,1,NA,NA,NA,NA,NA,NA,NA,NA,NA,NA
SUPAMT54374,3FE2ERCCZ372A5QM13DFV1P6ZSDOPF,E22A9ADE-CC5F-48C9-A596-9A8C1C7E45AD,2023-09-26_06h31.50.404,WP_VExplicitOC_HL,2022.2.5,Win32,16.13631963,-69.27083333,4.3789,2.0482,NA,NA,NA,NA,NA,frustrated,"frustrated, not frustrated","more frustrated, less frustrated",NA,NA,NA,NA,NA,NA,NA,NA,NA,NA,NA,NA,NA,NA,NA,NA,NA,NA,NA,NA,NA,NA,NA,NA,NA,NA,NA,NA,NA,NA,NA,NA,NA,0,2,2,1,1,NA,NA,NA,NA,NA,NA,NA,NA,NA,NA
SUPAMT54374,3FE2ERCCZ372A5QM13DFV1P6ZSDOPF,E22A9ADE-CC5F-48C9-A596-9A8C1C7E45AD,2023-09-26_06h31.50.404,WP_VExplicitOC_HL,2022.2.5,Win32,16.13631963,NA,NA,NA,NA,NA,NA,NA,NA,NA,NA,NA,NA,NA,NA,NA,NA,NA,NA,NA,NA,NA,NA,NA,NA,NA,NA,NA,NA,NA,NA,NA,NA,NA,NA,NA,NA,NA,NA,NA,NA,NA,NA,NA,NA,NA,NA,NA,NA,NA,NA,NA,NA,NA,NA,NA,NA,NA,NA,NA
SUPAMT54374,3FE2ERCCZ372A5QM13DFV1P6ZSDOPF,E22A9ADE-CC5F-48C9-A596-9A8C1C7E45AD,2023-09-26_06h31.50.404,WP_VExplicitOC_HL,2022.2.5,Win32,16.13631963,NA,NA,NA,NA,NA,NA,NA,NA,NA,NA,NA,NA,NA,NA,NA,NA,NA,NA,NA,NA,NA,NA,NA,NA,NA,NA,NA,NA,NA,NA,NA,NA,NA,NA,NA,NA,NA,NA,NA,NA,NA,NA,NA,NA,NA,NA,NA,NA,NA,NA,NA,NA,NA,NA,NA,NA,NA,NA,NA
SUPAMT54374,3FE2ERCCZ372A5QM13DFV1P6ZSDOPF,E22A9ADE-CC5F-48C9-A596-9A8C1C7E45AD,2023-09-26_06h31.50.404,WP_VExplicitOC_HL,2022.2.5,Win32,16.13631963,22.91666667,4.2441,2.0319,NA,NA,NA,NA,NA,bored,"bored, not bored","more bored, less bored",NA,NA,NA,NA,NA,NA,NA,NA,NA,NA,NA,NA,NA,NA,NA,NA,NA,NA,NA,NA,NA,NA,NA,NA,NA,NA,NA,NA,NA,NA,NA,NA,NA,NA,NA,NA,NA,NA,0,0,0,2,1,NA,NA,NA,NA,NA
SUPAMT54374,3FE2ERCCZ372A5QM13DFV1P6ZSDOPF,E22A9ADE-CC5F-48C9-A596-9A8C1C7E45AD,2023-09-26_06h31.50.404,WP_VExplicitOC_HL,2022.2.5,Win32,16.13631963,-35.15625,4.5429,2.0457,NA,NA,NA,NA,NA,frustrated,"frustrated, not frustrated","more frustrated, less frustrated",NA,NA,NA,NA,NA,NA,NA,NA,NA,NA,NA,NA,NA,NA,NA,NA,NA,NA,NA,NA,NA,NA,NA,NA,NA,NA,NA,NA,NA,NA,NA,NA,NA,NA,NA,NA,NA,NA,0,1,1,1,1,NA,NA,NA,NA,NA
SUPAMT54374,3FE2ERCCZ372A5QM13DFV1P6ZSDOPF,E22A9ADE-CC5F-48C9-A596-9A8C1C7E45AD,2023-09-26_06h31.50.404,WP_VExplicitOC_HL,2022.2.5,Win32,16.13631963,23.69791667,4.5471,2.0411,NA,NA,NA,NA,NA,happy,"unhappy, happy","less happy, more happy",NA,NA,NA,NA,NA,NA,NA,NA,NA,NA,NA,NA,NA,NA,NA,NA,NA,NA,NA,NA,NA,NA,NA,NA,NA,NA,NA,NA,NA,NA,NA,NA,NA,NA,NA,NA,NA,NA,0,2,2,0,1,NA,NA,NA,NA,NA
SUPAMT54374,3FE2ERCCZ372A5QM13DFV1P6ZSDOPF,E22A9ADE-CC5F-48C9-A596-9A8C1C7E45AD,2023-09-26_06h31.50.404,WP_VExplicitOC_HL,2022.2.5,Win32,16.13631963,NA,NA,NA,NA,NA,NA,NA,NA,NA,NA,NA,NA,NA,NA,NA,NA,NA,NA,NA,NA,NA,NA,NA,NA,NA,NA,NA,NA,NA,NA,NA,NA,NA,NA,NA,NA,NA,NA,NA,NA,NA,NA,NA,NA,NA,NA,NA,NA,NA,NA,NA,NA,NA,NA,0,0,0,0,1
SUPAMT54374,3FE2ERCCZ372A5QM13DFV1P6ZSDOPF,E22A9ADE-CC5F-48C9-A596-9A8C1C7E45AD,2023-09-26_06h31.50.404,WP_VExplicitOC_HL,2022.2.5,Win32,16.13631963,37.5,4.9067,2.0578,NA,NA,NA,NA,NA,bored,"bored, not bored","more bored, less bored",NA,NA,NA,NA,NA,NA,NA,NA,NA,NA,NA,NA,NA,NA,NA,NA,NA,NA,NA,NA,NA,NA,NA,NA,NA,NA,NA,NA,NA,NA,NA,NA,NA,NA,NA,NA,NA,NA,0,0,0,2,1,NA,NA,NA,NA,NA
SUPAMT54374,3FE2ERCCZ372A5QM13DFV1P6ZSDOPF,E22A9ADE-CC5F-48C9-A596-9A8C1C7E45AD,2023-09-26_06h31.50.404,WP_VExplicitOC_HL,2022.2.5,Win32,16.13631963,37.5,3.7649,2.0448,NA,NA,NA,NA,NA,happy,"unhappy, happy","less happy, more happy",NA,NA,NA,NA,NA,NA,NA,NA,NA,NA,NA,NA,NA,NA,NA,NA,NA,NA,NA,NA,NA,NA,NA,NA,NA,NA,NA,NA,NA,NA,NA,NA,NA,NA,NA,NA,NA,NA,0,1,1,0,1,NA,NA,NA,NA,NA
SUPAMT54374,3FE2ERCCZ372A5QM13DFV1P6ZSDOPF,E22A9ADE-CC5F-48C9-A596-9A8C1C7E45AD,2023-09-26_06h31.50.404,WP_VExplicitOC_HL,2022.2.5,Win32,16.13631963,-65.625,4.3874,2.0078,NA,NA,NA,NA,NA,frustrated,"frustrated, not frustrated","more frustrated, less frustrated",NA,NA,NA,NA,NA,NA,NA,NA,NA,NA,NA,NA,NA,NA,NA,NA,NA,NA,NA,NA,NA,NA,NA,NA,NA,NA,NA,NA,NA,NA,NA,NA,NA,NA,NA,NA,NA,NA,0,2,2,1,1,NA,NA,NA,NA,NA
SUPAMT54374,3FE2ERCCZ372A5QM13DFV1P6ZSDOPF,E22A9ADE-CC5F-48C9-A596-9A8C1C7E45AD,2023-09-26_06h31.50.404,WP_VExplicitOC_HL,2022.2.5,Win32,16.13631963,NA,NA,NA,NA,NA,NA,NA,NA,NA,NA,NA,NA,NA,NA,NA,NA,NA,NA,NA,NA,NA,NA,NA,NA,NA,NA,NA,NA,NA,NA,NA,NA,NA,NA,NA,NA,NA,NA,NA,NA,NA,NA,NA,NA,NA,NA,NA,NA,NA,NA,NA,NA,NA,NA,1,0,1,0,1
SUPAMT54374,3FE2ERCCZ372A5QM13DFV1P6ZSDOPF,E22A9ADE-CC5F-48C9-A596-9A8C1C7E45AD,2023-09-26_06h31.50.404,WP_VExplicitOC_HL,2022.2.5,Win32,16.13631963,39.0625,5.2794,2.0074,NA,NA,NA,NA,NA,happy,"unhappy, happy","less happy, more happy",NA,NA,NA,NA,NA,NA,NA,NA,NA,NA,NA,NA,NA,NA,NA,NA,NA,NA,NA,NA,NA,NA,NA,NA,NA,NA,NA,NA,NA,NA,NA,NA,NA,NA,NA,NA,NA,NA,0,0,0,0,1,NA,NA,NA,NA,NA
SUPAMT54374,3FE2ERCCZ372A5QM13DFV1P6ZSDOPF,E22A9ADE-CC5F-48C9-A596-9A8C1C7E45AD,2023-09-26_06h31.50.404,WP_VExplicitOC_HL,2022.2.5,Win32,16.13631963,-41.92708333,4.0166,2.026,NA,NA,NA,NA,NA,frustrated,"frustrated, not frustrated","more frustrated, less frustrated",NA,NA,NA,NA,NA,NA,NA,NA,NA,NA,NA,NA,NA,NA,NA,NA,NA,NA,NA,NA,NA,NA,NA,NA,NA,NA,NA,NA,NA,NA,NA,NA,NA,NA,NA,NA,NA,NA,0,1,1,1,1,NA,NA,NA,NA,NA
SUPAMT54374,3FE2ERCCZ372A5QM13DFV1P6ZSDOPF,E22A9ADE-CC5F-48C9-A596-9A8C1C7E45AD,2023-09-26_06h31.50.404,WP_VExplicitOC_HL,2022.2.5,Win32,16.13631963,22.39583333,3.9996,2.0414,NA,NA,NA,NA,NA,bored,"bored, not bored","more bored, less bored",NA,NA,NA,NA,NA,NA,NA,NA,NA,NA,NA,NA,NA,NA,NA,NA,NA,NA,NA,NA,NA,NA,NA,NA,NA,NA,NA,NA,NA,NA,NA,NA,NA,NA,NA,NA,NA,NA,0,2,2,2,1,NA,NA,NA,NA,NA
SUPAMT54374,3FE2ERCCZ372A5QM13DFV1P6ZSDOPF,E22A9ADE-CC5F-48C9-A596-9A8C1C7E45AD,2023-09-26_06h31.50.404,WP_VExplicitOC_HL,2022.2.5,Win32,16.13631963,NA,NA,NA,NA,NA,NA,NA,NA,NA,NA,NA,NA,NA,NA,NA,NA,NA,NA,NA,NA,NA,NA,NA,NA,NA,NA,NA,NA,NA,NA,NA,NA,NA,NA,NA,NA,NA,NA,NA,NA,NA,NA,NA,NA,NA,NA,NA,NA,NA,NA,NA,NA,NA,NA,2,0,2,0,1
SUPAMT54374,3FE2ERCCZ372A5QM13DFV1P6ZSDOPF,E22A9ADE-CC5F-48C9-A596-9A8C1C7E45AD,2023-09-26_06h31.50.404,WP_VExplicitOC_HL,2022.2.5,Win32,16.13631963,22.39583333,3.9639,2.0092,NA,NA,NA,NA,NA,bored,"bored, not bored","more bored, less bored",NA,NA,NA,NA,NA,NA,NA,NA,NA,NA,NA,NA,NA,NA,NA,NA,NA,NA,NA,NA,NA,NA,NA,NA,NA,NA,NA,NA,NA,NA,NA,NA,NA,NA,NA,NA,NA,NA,0,0,0,2,1,NA,NA,NA,NA,NA
SUPAMT54374,3FE2ERCCZ372A5QM13DFV1P6ZSDOPF,E22A9ADE-CC5F-48C9-A596-9A8C1C7E45AD,2023-09-26_06h31.50.404,WP_VExplicitOC_HL,2022.2.5,Win32,16.13631963,-55.46875,4.8956,2.0523,NA,NA,NA,NA,NA,frustrated,"frustrated, not frustrated","more frustrated, less frustrated",NA,NA,NA,NA,NA,NA,NA,NA,NA,NA,NA,NA,NA,NA,NA,NA,NA,NA,NA,NA,NA,NA,NA,NA,NA,NA,NA,NA,NA,NA,NA,NA,NA,NA,NA,NA,NA,NA,0,1,1,1,1,NA,NA,NA,NA,NA
SUPAMT54374,3FE2ERCCZ372A5QM13DFV1P6ZSDOPF,E22A9ADE-CC5F-48C9-A596-9A8C1C7E45AD,2023-09-26_06h31.50.404,WP_VExplicitOC_HL,2022.2.5,Win32,16.13631963,38.80208333,4.234,2.0373,NA,NA,NA,NA,NA,happy,"unhappy, happy","less happy, more happy",NA,NA,NA,NA,NA,NA,NA,NA,NA,NA,NA,NA,NA,NA,NA,NA,NA,NA,NA,NA,NA,NA,NA,NA,NA,NA,NA,NA,NA,NA,NA,NA,NA,NA,NA,NA,NA,NA,0,2,2,0,1,NA,NA,NA,NA,NA
SUPAMT54374,3FE2ERCCZ372A5QM13DFV1P6ZSDOPF,E22A9ADE-CC5F-48C9-A596-9A8C1C7E45AD,2023-09-26_06h31.50.404,WP_VExplicitOC_HL,2022.2.5,Win32,16.13631963,NA,NA,NA,NA,NA,NA,NA,NA,NA,NA,NA,NA,NA,NA,NA,NA,NA,NA,NA,NA,NA,NA,NA,NA,NA,NA,NA,NA,NA,NA,NA,NA,NA,NA,NA,NA,NA,NA,NA,NA,NA,NA,NA,NA,NA,NA,NA,NA,NA,NA,NA,NA,NA,NA,3,0,3,0,1
SUPAMT54374,3FE2ERCCZ372A5QM13DFV1P6ZSDOPF,E22A9ADE-CC5F-48C9-A596-9A8C1C7E45AD,2023-09-26_06h31.50.404,WP_VExplicitOC_HL,2022.2.5,Win32,16.13631963,-45.05208333,4.795,2.0387,NA,NA,NA,NA,NA,frustrated,"frustrated, not frustrated","more frustrated, less frustrated",NA,NA,NA,NA,NA,NA,NA,NA,NA,NA,NA,NA,NA,NA,NA,NA,NA,NA,NA,NA,NA,NA,NA,NA,NA,NA,NA,NA,NA,NA,NA,NA,NA,NA,NA,NA,NA,NA,0,0,0,1,1,NA,NA,NA,NA,NA
SUPAMT54374,3FE2ERCCZ372A5QM13DFV1P6ZSDOPF,E22A9ADE-CC5F-48C9-A596-9A8C1C7E45AD,2023-09-26_06h31.50.404,WP_VExplicitOC_HL,2022.2.5,Win32,16.13631963,43.48958333,4.3708,2.0459,NA,NA,NA,NA,NA,happy,"unhappy, happy","less happy, more happy",NA,NA,NA,NA,NA,NA,NA,NA,NA,NA,NA,NA,NA,NA,NA,NA,NA,NA,NA,NA,NA,NA,NA,NA,NA,NA,NA,NA,NA,NA,NA,NA,NA,NA,NA,NA,NA,NA,0,1,1,0,1,NA,NA,NA,NA,NA
SUPAMT54374,3FE2ERCCZ372A5QM13DFV1P6ZSDOPF,E22A9ADE-CC5F-48C9-A596-9A8C1C7E45AD,2023-09-26_06h31.50.404,WP_VExplicitOC_HL,2022.2.5,Win32,16.13631963,37.23958333,4.3388,2.0379,NA,NA,NA,NA,NA,bored,"bored, not bored","more bored, less bored",NA,NA,NA,NA,NA,NA,NA,NA,NA,NA,NA,NA,NA,NA,NA,NA,NA,NA,NA,NA,NA,NA,NA,NA,NA,NA,NA,NA,NA,NA,NA,NA,NA,NA,NA,NA,NA,NA,0,2,2,2,1,NA,NA,NA,NA,NA
SUPAMT54374,3FE2ERCCZ372A5QM13DFV1P6ZSDOPF,E22A9ADE-CC5F-48C9-A596-9A8C1C7E45AD,2023-09-26_06h31.50.404,WP_VExplicitOC_HL,2022.2.5,Win32,16.13631963,NA,NA,NA,NA,NA,NA,NA,NA,NA,NA,NA,NA,NA,NA,NA,NA,NA,NA,NA,NA,NA,NA,NA,NA,NA,NA,NA,NA,NA,NA,NA,NA,NA,NA,NA,NA,NA,NA,NA,NA,NA,NA,NA,NA,NA,NA,NA,NA,NA,NA,NA,NA,NA,NA,4,0,4,0,1
SUPAMT54374,3FE2ERCCZ372A5QM13DFV1P6ZSDOPF,E22A9ADE-CC5F-48C9-A596-9A8C1C7E45AD,2023-09-26_06h31.50.404,WP_VExplicitOC_HL,2022.2.5,Win32,16.13631963,NA,NA,2.0628,NA,NA,NA,NA,NA,happy,"unhappy, happy","less happy, more happy",NA,NA,NA,NA,NA,NA,NA,NA,NA,NA,NA,NA,NA,NA,NA,NA,NA,NA,NA,NA,NA,NA,NA,NA,NA,NA,NA,NA,NA,NA,NA,NA,NA,NA,NA,NA,NA,NA,0,0,0,0,1,NA,NA,NA,NA,NA
SUPAMT54374,3FE2ERCCZ372A5QM13DFV1P6ZSDOPF,E22A9ADE-CC5F-48C9-A596-9A8C1C7E45AD,2023-09-26_06h31.50.404,WP_VExplicitOC_HL,2022.2.5,Win32,16.13631963,NA,NA,2.0156,NA,NA,NA,NA,NA,bored,"bored, not bored","more bored, less bored",NA,NA,NA,NA,NA,NA,NA,NA,NA,NA,NA,NA,NA,NA,NA,NA,NA,NA,NA,NA,NA,NA,NA,NA,NA,NA,NA,NA,NA,NA,NA,NA,NA,NA,NA,NA,NA,NA,0,1,1,2,1,NA,NA,NA,NA,NA
SUPAMT54374,3FE2ERCCZ372A5QM13DFV1P6ZSDOPF,E22A9ADE-CC5F-48C9-A596-9A8C1C7E45AD,2023-09-26_06h31.50.404,WP_VExplicitOC_HL,2022.2.5,Win32,16.13631963,-45.83333333,4.876,2.0234,NA,NA,NA,NA,NA,frustrated,"frustrated, not frustrated","more frustrated, less frustrated",NA,NA,NA,NA,NA,NA,NA,NA,NA,NA,NA,NA,NA,NA,NA,NA,NA,NA,NA,NA,NA,NA,NA,NA,NA,NA,NA,NA,NA,NA,NA,NA,NA,NA,NA,NA,NA,NA,0,2,2,1,1,NA,NA,NA,NA,NA
SUPAMT54374,3FE2ERCCZ372A5QM13DFV1P6ZSDOPF,E22A9ADE-CC5F-48C9-A596-9A8C1C7E45AD,2023-09-26_06h31.50.404,WP_VExplicitOC_HL,2022.2.5,Win32,16.13631963,NA,NA,NA,NA,NA,NA,NA,NA,NA,NA,NA,NA,NA,NA,NA,NA,NA,NA,NA,NA,NA,NA,NA,NA,NA,NA,NA,NA,NA,NA,NA,NA,NA,NA,NA,NA,NA,NA,NA,NA,NA,NA,NA,NA,NA,NA,NA,NA,NA,NA,NA,NA,NA,NA,5,0,5,0,1
SUPAMT54374,3FE2ERCCZ372A5QM13DFV1P6ZSDOPF,E22A9ADE-CC5F-48C9-A596-9A8C1C7E45AD,2023-09-26_06h31.50.404,WP_VExplicitOC_HL,2022.2.5,Win32,16.13631963,25,5.8251,2.0504,NA,NA,NA,NA,NA,bored,"bored, not bored","more bored, less bored",NA,NA,NA,NA,NA,NA,NA,NA,NA,NA,NA,NA,NA,NA,NA,NA,NA,NA,NA,NA,NA,NA,NA,NA,NA,NA,NA,NA,NA,NA,NA,NA,NA,NA,NA,NA,NA,NA,0,0,0,2,1,NA,NA,NA,NA,NA
SUPAMT54374,3FE2ERCCZ372A5QM13DFV1P6ZSDOPF,E22A9ADE-CC5F-48C9-A596-9A8C1C7E45AD,2023-09-26_06h31.50.404,WP_VExplicitOC_HL,2022.2.5,Win32,16.13631963,43.22916667,4.7338,2.0291,NA,NA,NA,NA,NA,happy,"unhappy, happy","less happy, more happy",NA,NA,NA,NA,NA,NA,NA,NA,NA,NA,NA,NA,NA,NA,NA,NA,NA,NA,NA,NA,NA,NA,NA,NA,NA,NA,NA,NA,NA,NA,NA,NA,NA,NA,NA,NA,NA,NA,0,1,1,0,1,NA,NA,NA,NA,NA
SUPAMT54374,3FE2ERCCZ372A5QM13DFV1P6ZSDOPF,E22A9ADE-CC5F-48C9-A596-9A8C1C7E45AD,2023-09-26_06h31.50.404,WP_VExplicitOC_HL,2022.2.5,Win32,16.13631963,-41.40625,4.1747,2.0405,NA,NA,NA,NA,NA,frustrated,"frustrated, not frustrated","more frustrated, less frustrated",NA,NA,NA,NA,NA,NA,NA,NA,NA,NA,NA,NA,NA,NA,NA,NA,NA,NA,NA,NA,NA,NA,NA,NA,NA,NA,NA,NA,NA,NA,NA,NA,NA,NA,NA,NA,NA,NA,0,2,2,1,1,NA,NA,NA,NA,NA
SUPAMT54374,3FE2ERCCZ372A5QM13DFV1P6ZSDOPF,E22A9ADE-CC5F-48C9-A596-9A8C1C7E45AD,2023-09-26_06h31.50.404,WP_VExplicitOC_HL,2022.2.5,Win32,16.13631963,NA,NA,NA,NA,NA,NA,NA,NA,NA,NA,NA,NA,NA,NA,NA,NA,NA,NA,NA,NA,NA,NA,NA,NA,NA,NA,NA,NA,NA,NA,NA,NA,NA,NA,NA,NA,NA,NA,NA,NA,NA,NA,NA,NA,NA,NA,NA,NA,NA,NA,NA,NA,NA,NA,6,0,6,0,1
SUPAMT54374,3FE2ERCCZ372A5QM13DFV1P6ZSDOPF,E22A9ADE-CC5F-48C9-A596-9A8C1C7E45AD,2023-09-26_06h31.50.404,WP_VExplicitOC_HL,2022.2.5,Win32,16.13631963,42.96875,5.3162,2.0472,NA,NA,NA,NA,NA,happy,"unhappy, happy","less happy, more happy",NA,NA,NA,NA,NA,NA,NA,NA,NA,NA,NA,NA,NA,NA,NA,NA,NA,NA,NA,NA,NA,NA,NA,NA,NA,NA,NA,NA,NA,NA,NA,NA,NA,NA,NA,NA,NA,NA,0,0,0,0,1,NA,NA,NA,NA,NA
SUPAMT54374,3FE2ERCCZ372A5QM13DFV1P6ZSDOPF,E22A9ADE-CC5F-48C9-A596-9A8C1C7E45AD,2023-09-26_06h31.50.404,WP_VExplicitOC_HL,2022.2.5,Win32,16.13631963,-16.66666667,4.9203,2.0629,NA,NA,NA,NA,NA,frustrated,"frustrated, not frustrated","more frustrated, less frustrated",NA,NA,NA,NA,NA,NA,NA,NA,NA,NA,NA,NA,NA,NA,NA,NA,NA,NA,NA,NA,NA,NA,NA,NA,NA,NA,NA,NA,NA,NA,NA,NA,NA,NA,NA,NA,NA,NA,0,1,1,1,1,NA,NA,NA,NA,NA
SUPAMT54374,3FE2ERCCZ372A5QM13DFV1P6ZSDOPF,E22A9ADE-CC5F-48C9-A596-9A8C1C7E45AD,2023-09-26_06h31.50.404,WP_VExplicitOC_HL,2022.2.5,Win32,16.13631963,40.88541667,4.3439,2.0141,NA,NA,NA,NA,NA,bored,"bored, not bored","more bored, less bored",NA,NA,NA,NA,NA,NA,NA,NA,NA,NA,NA,NA,NA,NA,NA,NA,NA,NA,NA,NA,NA,NA,NA,NA,NA,NA,NA,NA,NA,NA,NA,NA,NA,NA,NA,NA,NA,NA,0,2,2,2,1,NA,NA,NA,NA,NA
SUPAMT54374,3FE2ERCCZ372A5QM13DFV1P6ZSDOPF,E22A9ADE-CC5F-48C9-A596-9A8C1C7E45AD,2023-09-26_06h31.50.404,WP_VExplicitOC_HL,2022.2.5,Win32,16.13631963,NA,NA,NA,NA,NA,NA,NA,NA,NA,NA,NA,NA,NA,NA,NA,NA,NA,NA,NA,NA,NA,NA,NA,NA,NA,NA,NA,NA,NA,NA,NA,NA,NA,NA,NA,NA,NA,NA,NA,NA,NA,NA,NA,NA,NA,NA,NA,NA,NA,NA,NA,NA,NA,NA,7,0,7,0,1
SUPAMT54374,3FE2ERCCZ372A5QM13DFV1P6ZSDOPF,E22A9ADE-CC5F-48C9-A596-9A8C1C7E45AD,2023-09-26_06h31.50.404,WP_VExplicitOC_HL,2022.2.5,Win32,16.13631963,-67.96875,5.1871,2.0341,NA,NA,NA,NA,NA,frustrated,"frustrated, not frustrated","more frustrated, less frustrated",NA,NA,NA,NA,NA,NA,NA,NA,NA,NA,NA,NA,NA,NA,NA,NA,NA,NA,NA,NA,NA,NA,NA,NA,NA,NA,NA,NA,NA,NA,NA,NA,NA,NA,NA,NA,NA,NA,0,0,0,1,1,NA,NA,NA,NA,NA
SUPAMT54374,3FE2ERCCZ372A5QM13DFV1P6ZSDOPF,E22A9ADE-CC5F-48C9-A596-9A8C1C7E45AD,2023-09-26_06h31.50.404,WP_VExplicitOC_HL,2022.2.5,Win32,16.13631963,29.16666667,4.2141,2.0412,NA,NA,NA,NA,NA,happy,"unhappy, happy","less happy, more happy",NA,NA,NA,NA,NA,NA,NA,NA,NA,NA,NA,NA,NA,NA,NA,NA,NA,NA,NA,NA,NA,NA,NA,NA,NA,NA,NA,NA,NA,NA,NA,NA,NA,NA,NA,NA,NA,NA,0,1,1,0,1,NA,NA,NA,NA,NA
SUPAMT54374,3FE2ERCCZ372A5QM13DFV1P6ZSDOPF,E22A9ADE-CC5F-48C9-A596-9A8C1C7E45AD,2023-09-26_06h31.50.404,WP_VExplicitOC_HL,2022.2.5,Win32,16.13631963,34.11458333,5.2105,2.0134,NA,NA,NA,NA,NA,bored,"bored, not bored","more bored, less bored",NA,NA,NA,NA,NA,NA,NA,NA,NA,NA,NA,NA,NA,NA,NA,NA,NA,NA,NA,NA,NA,NA,NA,NA,NA,NA,NA,NA,NA,NA,NA,NA,NA,NA,NA,NA,NA,NA,0,2,2,2,1,NA,NA,NA,NA,NA
SUPAMT54374,3FE2ERCCZ372A5QM13DFV1P6ZSDOPF,E22A9ADE-CC5F-48C9-A596-9A8C1C7E45AD,2023-09-26_06h31.50.404,WP_VExplicitOC_HL,2022.2.5,Win32,16.13631963,NA,NA,NA,NA,NA,NA,NA,NA,NA,NA,NA,NA,NA,NA,NA,NA,NA,NA,NA,NA,NA,NA,NA,NA,NA,NA,NA,NA,NA,NA,NA,NA,NA,NA,NA,NA,NA,NA,NA,NA,NA,NA,NA,NA,NA,NA,NA,NA,NA,NA,NA,NA,NA,NA,8,0,8,0,1
SUPAMT54374,3FE2ERCCZ372A5QM13DFV1P6ZSDOPF,E22A9ADE-CC5F-48C9-A596-9A8C1C7E45AD,2023-09-26_06h31.50.404,WP_VExplicitOC_HL,2022.2.5,Win32,16.13631963,34.63541667,4.9977,2.0602,NA,NA,NA,NA,NA,bored,"bored, not bored","more bored, less bored",NA,NA,NA,NA,NA,NA,NA,NA,NA,NA,NA,NA,NA,NA,NA,NA,NA,NA,NA,NA,NA,NA,NA,NA,NA,NA,NA,NA,NA,NA,NA,NA,NA,NA,NA,NA,NA,NA,0,0,0,2,1,NA,NA,NA,NA,NA
SUPAMT54374,3FE2ERCCZ372A5QM13DFV1P6ZSDOPF,E22A9ADE-CC5F-48C9-A596-9A8C1C7E45AD,2023-09-26_06h31.50.404,WP_VExplicitOC_HL,2022.2.5,Win32,16.13631963,34.63541667,4.4311,2.0121000000000002,NA,NA,NA,NA,NA,happy,"unhappy, happy","less happy, more happy",NA,NA,NA,NA,NA,NA,NA,NA,NA,NA,NA,NA,NA,NA,NA,NA,NA,NA,NA,NA,NA,NA,NA,NA,NA,NA,NA,NA,NA,NA,NA,NA,NA,NA,NA,NA,NA,NA,0,1,1,0,1,NA,NA,NA,NA,NA
SUPAMT54374,3FE2ERCCZ372A5QM13DFV1P6ZSDOPF,E22A9ADE-CC5F-48C9-A596-9A8C1C7E45AD,2023-09-26_06h31.50.404,WP_VExplicitOC_HL,2022.2.5,Win32,16.13631963,NA,NA,2.0443,NA,NA,NA,NA,NA,frustrated,"frustrated, not frustrated","more frustrated, less frustrated",NA,NA,NA,NA,NA,NA,NA,NA,NA,NA,NA,NA,NA,NA,NA,NA,NA,NA,NA,NA,NA,NA,NA,NA,NA,NA,NA,NA,NA,NA,NA,NA,NA,NA,NA,NA,NA,NA,0,2,2,1,1,NA,NA,NA,NA,NA
SUPAMT54374,3FE2ERCCZ372A5QM13DFV1P6ZSDOPF,E22A9ADE-CC5F-48C9-A596-9A8C1C7E45AD,2023-09-26_06h31.50.404,WP_VExplicitOC_HL,2022.2.5,Win32,16.13631963,NA,NA,NA,NA,NA,NA,NA,NA,NA,NA,NA,NA,NA,NA,NA,NA,NA,NA,NA,NA,NA,NA,NA,NA,NA,NA,NA,NA,NA,NA,NA,NA,NA,NA,NA,NA,NA,NA,NA,NA,NA,NA,NA,NA,NA,NA,NA,NA,NA,NA,NA,NA,NA,NA,9,0,9,0,1
SUPAMT54374,3FE2ERCCZ372A5QM13DFV1P6ZSDOPF,E22A9ADE-CC5F-48C9-A596-9A8C1C7E45AD,2023-09-26_06h31.50.404,WP_VExplicitOC_HL,2022.2.5,Win32,16.13631963,37.76041667,7.5008,2.0255,NA,NA,NA,NA,NA,bored,"bored, not bored","more bored, less bored",NA,NA,NA,NA,NA,NA,NA,NA,NA,NA,NA,NA,NA,NA,NA,NA,NA,NA,NA,NA,NA,NA,NA,NA,NA,NA,NA,NA,NA,NA,NA,NA,NA,NA,NA,NA,NA,NA,0,0,0,2,1,NA,NA,NA,NA,NA
SUPAMT54374,3FE2ERCCZ372A5QM13DFV1P6ZSDOPF,E22A9ADE-CC5F-48C9-A596-9A8C1C7E45AD,2023-09-26_06h31.50.404,WP_VExplicitOC_HL,2022.2.5,Win32,16.13631963,37.76041667,4.2235,2.0143,NA,NA,NA,NA,NA,happy,"unhappy, happy","less happy, more happy",NA,NA,NA,NA,NA,NA,NA,NA,NA,NA,NA,NA,NA,NA,NA,NA,NA,NA,NA,NA,NA,NA,NA,NA,NA,NA,NA,NA,NA,NA,NA,NA,NA,NA,NA,NA,NA,NA,0,1,1,0,1,NA,NA,NA,NA,NA
SUPAMT54374,3FE2ERCCZ372A5QM13DFV1P6ZSDOPF,E22A9ADE-CC5F-48C9-A596-9A8C1C7E45AD,2023-09-26_06h31.50.404,WP_VExplicitOC_HL,2022.2.5,Win32,16.13631963,-27.08333333,5.0129,2.0382,NA,NA,NA,NA,NA,frustrated,"frustrated, not frustrated","more frustrated, less frustrated",NA,NA,NA,NA,NA,NA,NA,NA,NA,NA,NA,NA,NA,NA,NA,NA,NA,NA,NA,NA,NA,NA,NA,NA,NA,NA,NA,NA,NA,NA,NA,NA,NA,NA,NA,NA,NA,NA,0,2,2,1,1,NA,NA,NA,NA,NA
SUPAMT54374,3FE2ERCCZ372A5QM13DFV1P6ZSDOPF,E22A9ADE-CC5F-48C9-A596-9A8C1C7E45AD,2023-09-26_06h31.50.404,WP_VExplicitOC_HL,2022.2.5,Win32,16.13631963,NA,NA,NA,NA,NA,NA,NA,NA,NA,NA,NA,NA,NA,NA,NA,NA,NA,NA,NA,NA,NA,NA,NA,NA,NA,NA,NA,NA,NA,NA,NA,NA,NA,NA,NA,NA,NA,NA,NA,NA,NA,NA,NA,NA,NA,NA,NA,NA,NA,NA,NA,NA,NA,NA,10,0,10,0,1
SUPAMT54374,3FE2ERCCZ372A5QM13DFV1P6ZSDOPF,E22A9ADE-CC5F-48C9-A596-9A8C1C7E45AD,2023-09-26_06h31.50.404,WP_VExplicitOC_HL,2022.2.5,Win32,16.13631963,38.02083333,5.2966,2.0415,NA,NA,NA,NA,NA,happy,"unhappy, happy","less happy, more happy",NA,NA,NA,NA,NA,NA,NA,NA,NA,NA,NA,NA,NA,NA,NA,NA,NA,NA,NA,NA,NA,NA,NA,NA,NA,NA,NA,NA,NA,NA,NA,NA,NA,NA,NA,NA,NA,NA,0,0,0,0,1,NA,NA,NA,NA,NA
SUPAMT54374,3FE2ERCCZ372A5QM13DFV1P6ZSDOPF,E22A9ADE-CC5F-48C9-A596-9A8C1C7E45AD,2023-09-26_06h31.50.404,WP_VExplicitOC_HL,2022.2.5,Win32,16.13631963,38.54166667,3.571,2.0407,NA,NA,NA,NA,NA,bored,"bored, not bored","more bored, less bored",NA,NA,NA,NA,NA,NA,NA,NA,NA,NA,NA,NA,NA,NA,NA,NA,NA,NA,NA,NA,NA,NA,NA,NA,NA,NA,NA,NA,NA,NA,NA,NA,NA,NA,NA,NA,NA,NA,0,1,1,2,1,NA,NA,NA,NA,NA
SUPAMT54374,3FE2ERCCZ372A5QM13DFV1P6ZSDOPF,E22A9ADE-CC5F-48C9-A596-9A8C1C7E45AD,2023-09-26_06h31.50.404,WP_VExplicitOC_HL,2022.2.5,Win32,16.13631963,-46.35416667,4.3765,2.0397,NA,NA,NA,NA,NA,frustrated,"frustrated, not frustrated","more frustrated, less frustrated",NA,NA,NA,NA,NA,NA,NA,NA,NA,NA,NA,NA,NA,NA,NA,NA,NA,NA,NA,NA,NA,NA,NA,NA,NA,NA,NA,NA,NA,NA,NA,NA,NA,NA,NA,NA,NA,NA,0,2,2,1,1,NA,NA,NA,NA,NA
SUPAMT54374,3FE2ERCCZ372A5QM13DFV1P6ZSDOPF,E22A9ADE-CC5F-48C9-A596-9A8C1C7E45AD,2023-09-26_06h31.50.404,WP_VExplicitOC_HL,2022.2.5,Win32,16.13631963,NA,NA,NA,NA,NA,NA,NA,NA,NA,NA,NA,NA,NA,NA,NA,NA,NA,NA,NA,NA,NA,NA,NA,NA,NA,NA,NA,NA,NA,NA,NA,NA,NA,NA,NA,NA,NA,NA,NA,NA,NA,NA,NA,NA,NA,NA,NA,NA,NA,NA,NA,NA,NA,NA,11,0,11,0,1
SUPAMT54374,3FE2ERCCZ372A5QM13DFV1P6ZSDOPF,E22A9ADE-CC5F-48C9-A596-9A8C1C7E45AD,2023-09-26_06h31.50.404,WP_VExplicitOC_HL,2022.2.5,Win32,16.13631963,-36.45833333,4.2276,2.0554,NA,NA,NA,NA,NA,frustrated,"frustrated, not frustrated","more frustrated, less frustrated",NA,NA,NA,NA,NA,NA,NA,NA,NA,NA,NA,NA,NA,NA,NA,NA,NA,NA,NA,NA,NA,NA,NA,NA,NA,NA,NA,NA,NA,NA,NA,NA,NA,NA,NA,NA,NA,NA,0,0,0,1,1,NA,NA,NA,NA,NA
SUPAMT54374,3FE2ERCCZ372A5QM13DFV1P6ZSDOPF,E22A9ADE-CC5F-48C9-A596-9A8C1C7E45AD,2023-09-26_06h31.50.404,WP_VExplicitOC_HL,2022.2.5,Win32,16.13631963,23.17708333,4.6641,2.0612,NA,NA,NA,NA,NA,bored,"bored, not bored","more bored, less bored",NA,NA,NA,NA,NA,NA,NA,NA,NA,NA,NA,NA,NA,NA,NA,NA,NA,NA,NA,NA,NA,NA,NA,NA,NA,NA,NA,NA,NA,NA,NA,NA,NA,NA,NA,NA,NA,NA,0,1,1,2,1,NA,NA,NA,NA,NA
SUPAMT54374,3FE2ERCCZ372A5QM13DFV1P6ZSDOPF,E22A9ADE-CC5F-48C9-A596-9A8C1C7E45AD,2023-09-26_06h31.50.404,WP_VExplicitOC_HL,2022.2.5,Win32,16.13631963,48.69791667,4.8389,2.0226,NA,NA,NA,NA,NA,happy,"unhappy, happy","less happy, more happy",NA,NA,NA,NA,NA,NA,NA,NA,NA,NA,NA,NA,NA,NA,NA,NA,NA,NA,NA,NA,NA,NA,NA,NA,NA,NA,NA,NA,NA,NA,NA,NA,NA,NA,NA,NA,NA,NA,0,2,2,0,1,NA,NA,NA,NA,NA
SUPAMT54374,3FE2ERCCZ372A5QM13DFV1P6ZSDOPF,E22A9ADE-CC5F-48C9-A596-9A8C1C7E45AD,2023-09-26_06h31.50.404,WP_VExplicitOC_HL,2022.2.5,Win32,16.13631963,NA,NA,NA,NA,NA,NA,NA,NA,NA,NA,NA,NA,NA,NA,NA,NA,NA,NA,NA,NA,NA,NA,NA,NA,NA,NA,NA,NA,NA,NA,NA,NA,NA,NA,NA,NA,NA,NA,NA,NA,NA,NA,NA,NA,NA,NA,NA,NA,NA,NA,NA,NA,NA,NA,12,0,12,0,1
SUPAMT54374,3FE2ERCCZ372A5QM13DFV1P6ZSDOPF,E22A9ADE-CC5F-48C9-A596-9A8C1C7E45AD,2023-09-26_06h31.50.404,WP_VExplicitOC_HL,2022.2.5,Win32,16.13631963,48.69791667,4.2927,2.0429,NA,NA,NA,NA,NA,bored,"bored, not bored","more bored, less bored",NA,NA,NA,NA,NA,NA,NA,NA,NA,NA,NA,NA,NA,NA,NA,NA,NA,NA,NA,NA,NA,NA,NA,NA,NA,NA,NA,NA,NA,NA,NA,NA,NA,NA,NA,NA,NA,NA,0,0,0,2,1,NA,NA,NA,NA,NA
SUPAMT54374,3FE2ERCCZ372A5QM13DFV1P6ZSDOPF,E22A9ADE-CC5F-48C9-A596-9A8C1C7E45AD,2023-09-26_06h31.50.404,WP_VExplicitOC_HL,2022.2.5,Win32,16.13631963,48.69791667,6.0169,2.0386,NA,NA,NA,NA,NA,happy,"unhappy, happy","less happy, more happy",NA,NA,NA,NA,NA,NA,NA,NA,NA,NA,NA,NA,NA,NA,NA,NA,NA,NA,NA,NA,NA,NA,NA,NA,NA,NA,NA,NA,NA,NA,NA,NA,NA,NA,NA,NA,NA,NA,0,1,1,0,1,NA,NA,NA,NA,NA
SUPAMT54374,3FE2ERCCZ372A5QM13DFV1P6ZSDOPF,E22A9ADE-CC5F-48C9-A596-9A8C1C7E45AD,2023-09-26_06h31.50.404,WP_VExplicitOC_HL,2022.2.5,Win32,16.13631963,-52.08333333,4.7668,2.0364,NA,NA,NA,NA,NA,frustrated,"frustrated, not frustrated","more frustrated, less frustrated",NA,NA,NA,NA,NA,NA,NA,NA,NA,NA,NA,NA,NA,NA,NA,NA,NA,NA,NA,NA,NA,NA,NA,NA,NA,NA,NA,NA,NA,NA,NA,NA,NA,NA,NA,NA,NA,NA,0,2,2,1,1,NA,NA,NA,NA,NA
SUPAMT54374,3FE2ERCCZ372A5QM13DFV1P6ZSDOPF,E22A9ADE-CC5F-48C9-A596-9A8C1C7E45AD,2023-09-26_06h31.50.404,WP_VExplicitOC_HL,2022.2.5,Win32,16.13631963,NA,NA,NA,NA,NA,NA,NA,NA,NA,NA,NA,NA,NA,NA,NA,NA,NA,NA,NA,NA,NA,NA,NA,NA,NA,NA,NA,NA,NA,NA,NA,NA,NA,NA,NA,NA,NA,NA,NA,NA,NA,NA,NA,NA,NA,NA,NA,NA,NA,NA,NA,NA,NA,NA,13,0,13,0,1
SUPAMT54374,3FE2ERCCZ372A5QM13DFV1P6ZSDOPF,E22A9ADE-CC5F-48C9-A596-9A8C1C7E45AD,2023-09-26_06h31.50.404,WP_VExplicitOC_HL,2022.2.5,Win32,16.13631963,-50,3.7949,2.0086,NA,NA,NA,NA,NA,frustrated,"frustrated, not frustrated","more frustrated, less frustrated",NA,NA,NA,NA,NA,NA,NA,NA,NA,NA,NA,NA,NA,NA,NA,NA,NA,NA,NA,NA,NA,NA,NA,NA,NA,NA,NA,NA,NA,NA,NA,NA,NA,NA,NA,NA,NA,NA,0,0,0,1,1,NA,NA,NA,NA,NA
SUPAMT54374,3FE2ERCCZ372A5QM13DFV1P6ZSDOPF,E22A9ADE-CC5F-48C9-A596-9A8C1C7E45AD,2023-09-26_06h31.50.404,WP_VExplicitOC_HL,2022.2.5,Win32,16.13631963,59.375,4.2112,2.0582,NA,NA,NA,NA,NA,happy,"unhappy, happy","less happy, more happy",NA,NA,NA,NA,NA,NA,NA,NA,NA,NA,NA,NA,NA,NA,NA,NA,NA,NA,NA,NA,NA,NA,NA,NA,NA,NA,NA,NA,NA,NA,NA,NA,NA,NA,NA,NA,NA,NA,0,1,1,0,1,NA,NA,NA,NA,NA
SUPAMT54374,3FE2ERCCZ372A5QM13DFV1P6ZSDOPF,E22A9ADE-CC5F-48C9-A596-9A8C1C7E45AD,2023-09-26_06h31.50.404,WP_VExplicitOC_HL,2022.2.5,Win32,16.13631963,46.61458333,4.1047,2.049,NA,NA,NA,NA,NA,bored,"bored, not bored","more bored, less bored",NA,NA,NA,NA,NA,NA,NA,NA,NA,NA,NA,NA,NA,NA,NA,NA,NA,NA,NA,NA,NA,NA,NA,NA,NA,NA,NA,NA,NA,NA,NA,NA,NA,NA,NA,NA,NA,NA,0,2,2,2,1,NA,NA,NA,NA,NA
SUPAMT54374,3FE2ERCCZ372A5QM13DFV1P6ZSDOPF,E22A9ADE-CC5F-48C9-A596-9A8C1C7E45AD,2023-09-26_06h31.50.404,WP_VExplicitOC_HL,2022.2.5,Win32,16.13631963,NA,NA,NA,NA,NA,NA,NA,NA,NA,NA,NA,NA,NA,NA,NA,NA,NA,NA,NA,NA,NA,NA,NA,NA,NA,NA,NA,NA,NA,NA,NA,NA,NA,NA,NA,NA,NA,NA,NA,NA,NA,NA,NA,NA,NA,NA,NA,NA,NA,NA,NA,NA,NA,NA,14,0,14,0,1
SUPAMT54374,3FE2ERCCZ372A5QM13DFV1P6ZSDOPF,E22A9ADE-CC5F-48C9-A596-9A8C1C7E45AD,2023-09-26_06h31.50.404,WP_VExplicitOC_HL,2022.2.5,Win32,16.13631963,NA,NA,NA,NA,NA,NA,NA,NA,NA,NA,NA,NA,NA,NA,NA,NA,NA,NA,NA,NA,NA,NA,NA,NA,NA,NA,NA,NA,NA,NA,NA,NA,NA,NA,NA,NA,NA,NA,NA,NA,NA,NA,NA,NA,NA,NA,NA,NA,NA,NA,NA,NA,NA,NA,NA,NA,NA,NA,NA
