participant,session,completion,date,expName,psychopyVersion,OS,frameRate,rating_all.response,rating_all.rt,rating_all.tStart,rndRat1.thisRepN,rndRat1.thisTrialN,rndRat1.thisN,rndRat1.thisIndex,rndRat1.ran,Emo,Labs,Labs2,rating_alt.response,rating_alt.rt,AltC.thisRepN,AltC.thisTrialN,AltC.thisN,AltC.thisIndex,AltC.ran,alt_choices,pic_choices,TopAlt_Choice,rndRat2.thisRepN,rndRat2.thisTrialN,rndRat2.thisN,rndRat2.thisIndex,rndRat2.ran,rndRat3.thisRepN,rndRat3.thisTrialN,rndRat3.thisN,rndRat3.thisIndex,rndRat3.ran,trials_FC_H.thisRepN,trials_FC_H.thisTrialN,trials_FC_H.thisN,trials_FC_H.thisIndex,trials_FC_H.ran,rating_alt_2.response,rating_alt_2.rt,AltC2.thisRepN,AltC2.thisTrialN,AltC2.thisN,AltC2.thisIndex,AltC2.ran,BottomAlt_Choice,rndRat4.thisRepN,rndRat4.thisTrialN,rndRat4.thisN,rndRat4.thisIndex,rndRat4.ran,rndRat5.thisRepN,rndRat5.thisTrialN,rndRat5.thisN,rndRat5.thisIndex,rndRat5.ran,trials_FC_L.thisRepN,trials_FC_L.thisTrialN,trials_FC_L.thisN,trials_FC_L.thisIndex,trials_FC_L.ran
SUPAMT73370,NA,A08E8436-9279-4519-84D5-6870898EB6BA,2023-09-27_24h10.57.675,WP_VExplicitOC_HL,2022.2.5,Win32,1.875525147,NA,NA,NA,NA,NA,NA,NA,NA,NA,NA,NA,NA,NA,NA,NA,NA,NA,NA,NA,NA,NA,NA,NA,NA,NA,NA,NA,NA,NA,NA,NA,NA,NA,NA,NA,NA,NA,NA,NA,NA,NA,NA,NA,NA,NA,NA,NA,NA,NA,NA,NA,NA,NA,NA,NA,NA,NA,NA,NA
SUPAMT73370,NA,A08E8436-9279-4519-84D5-6870898EB6BA,2023-09-27_24h10.57.675,WP_VExplicitOC_HL,2022.2.5,Win32,1.875525147,NA,NA,NA,NA,NA,NA,NA,NA,NA,NA,NA,NA,NA,NA,NA,NA,NA,NA,NA,NA,NA,NA,NA,NA,NA,NA,NA,NA,NA,NA,NA,NA,NA,NA,NA,NA,NA,NA,NA,NA,NA,NA,NA,NA,NA,NA,NA,NA,NA,NA,NA,NA,NA,NA,NA,NA,NA,NA,NA
SUPAMT73370,NA,A08E8436-9279-4519-84D5-6870898EB6BA,2023-09-27_24h10.57.675,WP_VExplicitOC_HL,2022.2.5,Win32,1.875525147,NA,NA,NA,NA,NA,NA,NA,NA,NA,NA,NA,NA,NA,NA,NA,NA,NA,NA,NA,NA,NA,NA,NA,NA,NA,NA,NA,NA,NA,NA,NA,NA,NA,NA,NA,NA,NA,NA,NA,NA,NA,NA,NA,NA,NA,NA,NA,NA,NA,NA,NA,NA,NA,NA,NA,NA,NA,NA,NA
SUPAMT73370,NA,A08E8436-9279-4519-84D5-6870898EB6BA,2023-09-27_24h10.57.675,WP_VExplicitOC_HL,2022.2.5,Win32,1.875525147,NA,NA,2.276,0,0,0,2,1,bored,"bored, not bored","more bored, less bored",NA,NA,NA,NA,NA,NA,NA,NA,NA,NA,NA,NA,NA,NA,NA,NA,NA,NA,NA,NA,NA,NA,NA,NA,NA,NA,NA,NA,NA,NA,NA,NA,NA,NA,NA,NA,NA,NA,NA,NA,NA,NA,NA,NA,NA,NA,NA,NA
SUPAMT73370,NA,A08E8436-9279-4519-84D5-6870898EB6BA,2023-09-27_24h10.57.675,WP_VExplicitOC_HL,2022.2.5,Win32,1.875525147,88.54166667,5.758,2.267,0,1,1,1,1,frustrated,"frustrated, not frustrated","more frustrated, less frustrated",NA,NA,NA,NA,NA,NA,NA,NA,NA,NA,NA,NA,NA,NA,NA,NA,NA,NA,NA,NA,NA,NA,NA,NA,NA,NA,NA,NA,NA,NA,NA,NA,NA,NA,NA,NA,NA,NA,NA,NA,NA,NA,NA,NA,NA,NA,NA,NA
SUPAMT73370,NA,A08E8436-9279-4519-84D5-6870898EB6BA,2023-09-27_24h10.57.675,WP_VExplicitOC_HL,2022.2.5,Win32,1.875525147,71.61458333,5.73,2.318,0,2,2,0,1,happy,"unhappy, happy","less happy, more happy",NA,NA,NA,NA,NA,NA,NA,NA,NA,NA,NA,NA,NA,NA,NA,NA,NA,NA,NA,NA,NA,NA,NA,NA,NA,NA,NA,NA,NA,NA,NA,NA,NA,NA,NA,NA,NA,NA,NA,NA,NA,NA,NA,NA,NA,NA,NA,NA
SUPAMT73370,NA,A08E8436-9279-4519-84D5-6870898EB6BA,2023-09-27_24h10.57.675,WP_VExplicitOC_HL,2022.2.5,Win32,1.875525147,NA,NA,NA,NA,NA,NA,NA,NA,NA,NA,NA,NA,NA,NA,NA,NA,NA,NA,NA,NA,NA,NA,NA,NA,NA,NA,NA,NA,NA,NA,NA,NA,NA,NA,NA,NA,NA,NA,NA,NA,NA,NA,NA,NA,NA,NA,NA,NA,NA,NA,NA,NA,NA,NA,NA,NA,NA,NA,NA
SUPAMT73370,NA,A08E8436-9279-4519-84D5-6870898EB6BA,2023-09-27_24h10.57.675,WP_VExplicitOC_HL,2022.2.5,Win32,1.875525147,NA,NA,NA,NA,NA,NA,NA,NA,NA,NA,NA,NA,NA,NA,NA,NA,NA,NA,NA,NA,NA,NA,NA,NA,NA,NA,NA,NA,NA,NA,NA,NA,NA,NA,NA,NA,NA,NA,NA,NA,NA,NA,NA,NA,NA,NA,NA,NA,NA,NA,NA,NA,NA,NA,NA,NA,NA,NA,NA
SUPAMT73370,NA,A08E8436-9279-4519-84D5-6870898EB6BA,2023-09-27_24h10.57.675,WP_VExplicitOC_HL,2022.2.5,Win32,1.875525147,NA,NA,NA,NA,NA,NA,NA,NA,NA,NA,NA,NA,NA,NA,NA,NA,NA,NA,NA,NA,NA,NA,NA,NA,NA,NA,NA,NA,NA,NA,NA,NA,NA,NA,NA,NA,NA,NA,NA,NA,NA,NA,NA,NA,NA,NA,NA,NA,NA,NA,NA,NA,NA,NA,NA,NA,NA,NA,NA
SUPAMT73370,NA,A08E8436-9279-4519-84D5-6870898EB6BA,2023-09-27_24h10.57.675,WP_VExplicitOC_HL,2022.2.5,Win32,1.875525147,NA,NA,NA,NA,NA,NA,NA,NA,NA,NA,NA,NA,NA,NA,NA,NA,NA,NA,NA,NA,NA,NA,NA,NA,NA,NA,NA,NA,NA,NA,NA,NA,NA,NA,NA,NA,NA,NA,NA,NA,NA,NA,NA,NA,NA,NA,NA,NA,NA,NA,NA,NA,NA,NA,NA,NA,NA,NA,NA
SUPAMT73370,NA,A08E8436-9279-4519-84D5-6870898EB6BA,2023-09-27_24h10.57.675,WP_VExplicitOC_HL,2022.2.5,Win32,1.875525147,NA,NA,NA,NA,NA,NA,NA,NA,NA,NA,NA,-50.78125,6.985,0,0,0,0,1,rest (looking at a fixed cross),001.png,NA,NA,NA,NA,NA,NA,NA,NA,NA,NA,NA,NA,NA,NA,NA,NA,NA,NA,NA,NA,NA,NA,NA,NA,NA,NA,NA,NA,NA,NA,NA,NA,NA,NA,NA,NA,NA,NA,NA
SUPAMT73370,NA,A08E8436-9279-4519-84D5-6870898EB6BA,2023-09-27_24h10.57.675,WP_VExplicitOC_HL,2022.2.5,Win32,1.875525147,NA,NA,NA,NA,NA,NA,NA,NA,NA,NA,NA,-21.61458333,4.636,0,1,1,1,1,stand up,002.png,NA,NA,NA,NA,NA,NA,NA,NA,NA,NA,NA,NA,NA,NA,NA,NA,NA,NA,NA,NA,NA,NA,NA,NA,NA,NA,NA,NA,NA,NA,NA,NA,NA,NA,NA,NA,NA,NA,NA
SUPAMT73370,NA,A08E8436-9279-4519-84D5-6870898EB6BA,2023-09-27_24h10.57.675,WP_VExplicitOC_HL,2022.2.5,Win32,1.875525147,NA,NA,NA,NA,NA,NA,NA,NA,NA,NA,NA,-21.61458333,3.446,0,2,2,2,1,stretch,003.png,NA,NA,NA,NA,NA,NA,NA,NA,NA,NA,NA,NA,NA,NA,NA,NA,NA,NA,NA,NA,NA,NA,NA,NA,NA,NA,NA,NA,NA,NA,NA,NA,NA,NA,NA,NA,NA,NA,NA
SUPAMT73370,NA,A08E8436-9279-4519-84D5-6870898EB6BA,2023-09-27_24h10.57.675,WP_VExplicitOC_HL,2022.2.5,Win32,1.875525147,NA,NA,NA,NA,NA,NA,NA,NA,NA,NA,NA,-13.54166667,4.058,0,3,3,3,1,make a drink,004.png,NA,NA,NA,NA,NA,NA,NA,NA,NA,NA,NA,NA,NA,NA,NA,NA,NA,NA,NA,NA,NA,NA,NA,NA,NA,NA,NA,NA,NA,NA,NA,NA,NA,NA,NA,NA,NA,NA,NA
SUPAMT73370,NA,A08E8436-9279-4519-84D5-6870898EB6BA,2023-09-27_24h10.57.675,WP_VExplicitOC_HL,2022.2.5,Win32,1.875525147,NA,NA,NA,NA,NA,NA,NA,NA,NA,NA,NA,34.375,4.047,0,4,4,4,1,scroll social media,005.png,NA,NA,NA,NA,NA,NA,NA,NA,NA,NA,NA,NA,NA,NA,NA,NA,NA,NA,NA,NA,NA,NA,NA,NA,NA,NA,NA,NA,NA,NA,NA,NA,NA,NA,NA,NA,NA,NA,NA
SUPAMT73370,NA,A08E8436-9279-4519-84D5-6870898EB6BA,2023-09-27_24h10.57.675,WP_VExplicitOC_HL,2022.2.5,Win32,1.875525147,NA,NA,NA,NA,NA,NA,NA,NA,NA,NA,NA,-11.19791667,7.488,0,5,5,5,1,listen to music,006.png,NA,NA,NA,NA,NA,NA,NA,NA,NA,NA,NA,NA,NA,NA,NA,NA,NA,NA,NA,NA,NA,NA,NA,NA,NA,NA,NA,NA,NA,NA,NA,NA,NA,NA,NA,NA,NA,NA,NA
SUPAMT73370,NA,A08E8436-9279-4519-84D5-6870898EB6BA,2023-09-27_24h10.57.675,WP_VExplicitOC_HL,2022.2.5,Win32,1.875525147,NA,NA,NA,NA,NA,NA,NA,NA,NA,NA,NA,-21.61458333,6.879,0,6,6,6,1,daydream,007.png,NA,NA,NA,NA,NA,NA,NA,NA,NA,NA,NA,NA,NA,NA,NA,NA,NA,NA,NA,NA,NA,NA,NA,NA,NA,NA,NA,NA,NA,NA,NA,NA,NA,NA,NA,NA,NA,NA,NA
SUPAMT73370,NA,A08E8436-9279-4519-84D5-6870898EB6BA,2023-09-27_24h10.57.675,WP_VExplicitOC_HL,2022.2.5,Win32,1.875525147,NA,NA,NA,NA,NA,NA,NA,NA,NA,NA,NA,-18.75,5.782,0,7,7,7,1,watch a short animation,008.png,NA,NA,NA,NA,NA,NA,NA,NA,NA,NA,NA,NA,NA,NA,NA,NA,NA,NA,NA,NA,NA,NA,NA,NA,NA,NA,NA,NA,NA,NA,NA,NA,NA,NA,NA,NA,NA,NA,NA
SUPAMT73370,NA,A08E8436-9279-4519-84D5-6870898EB6BA,2023-09-27_24h10.57.675,WP_VExplicitOC_HL,2022.2.5,Win32,1.875525147,NA,NA,NA,NA,NA,NA,NA,NA,NA,NA,NA,-39.0625,4.661,0,8,8,8,1,read a novel,009.png,NA,NA,NA,NA,NA,NA,NA,NA,NA,NA,NA,NA,NA,NA,NA,NA,NA,NA,NA,NA,NA,NA,NA,NA,NA,NA,NA,NA,NA,NA,NA,NA,NA,NA,NA,NA,NA,NA,NA
SUPAMT73370,NA,A08E8436-9279-4519-84D5-6870898EB6BA,2023-09-27_24h10.57.675,WP_VExplicitOC_HL,2022.2.5,Win32,1.875525147,NA,NA,NA,NA,NA,NA,NA,NA,NA,NA,NA,-31.77083333,5.269,0,9,9,9,1,read the news,010.png,NA,NA,NA,NA,NA,NA,NA,NA,NA,NA,NA,NA,NA,NA,NA,NA,NA,NA,NA,NA,NA,NA,NA,NA,NA,NA,NA,NA,NA,NA,NA,NA,NA,NA,NA,NA,NA,NA,NA
SUPAMT73370,NA,A08E8436-9279-4519-84D5-6870898EB6BA,2023-09-27_24h10.57.675,WP_VExplicitOC_HL,2022.2.5,Win32,1.875525147,NA,NA,NA,NA,NA,NA,NA,NA,NA,NA,NA,NA,NA,NA,NA,NA,NA,NA,NA,NA,NA,NA,NA,NA,NA,NA,NA,NA,NA,NA,NA,NA,NA,NA,NA,NA,NA,NA,NA,NA,NA,NA,NA,NA,NA,NA,NA,NA,NA,NA,NA,NA,NA,NA,NA,NA,NA,NA,NA
SUPAMT73370,NA,A08E8436-9279-4519-84D5-6870898EB6BA,2023-09-27_24h10.57.675,WP_VExplicitOC_HL,2022.2.5,Win32,1.875525147,NA,NA,NA,NA,NA,NA,NA,NA,NA,NA,NA,NA,NA,NA,NA,NA,NA,NA,NA,NA,scroll social media,NA,NA,NA,NA,NA,NA,NA,NA,NA,NA,NA,NA,NA,NA,NA,NA,NA,NA,NA,NA,NA,NA,NA,NA,NA,NA,NA,NA,NA,NA,NA,NA,NA,NA,NA,NA,NA,NA
SUPAMT73370,NA,A08E8436-9279-4519-84D5-6870898EB6BA,2023-09-27_24h10.57.675,WP_VExplicitOC_HL,2022.2.5,Win32,1.875525147,100,5.66,2.205,NA,NA,NA,NA,NA,frustrated,"frustrated, not frustrated","more frustrated, less frustrated",NA,NA,NA,NA,NA,NA,NA,NA,NA,NA,0,0,0,1,1,NA,NA,NA,NA,NA,NA,NA,NA,NA,NA,NA,NA,NA,NA,NA,NA,NA,NA,NA,NA,NA,NA,NA,NA,NA,NA,NA,NA,NA,NA,NA,NA,NA
SUPAMT73370,NA,A08E8436-9279-4519-84D5-6870898EB6BA,2023-09-27_24h10.57.675,WP_VExplicitOC_HL,2022.2.5,Win32,1.875525147,99.47916667,6.222,2.244,NA,NA,NA,NA,NA,bored,"bored, not bored","more bored, less bored",NA,NA,NA,NA,NA,NA,NA,NA,NA,NA,0,1,1,2,1,NA,NA,NA,NA,NA,NA,NA,NA,NA,NA,NA,NA,NA,NA,NA,NA,NA,NA,NA,NA,NA,NA,NA,NA,NA,NA,NA,NA,NA,NA,NA,NA,NA
SUPAMT73370,NA,A08E8436-9279-4519-84D5-6870898EB6BA,2023-09-27_24h10.57.675,WP_VExplicitOC_HL,2022.2.5,Win32,1.875525147,100,5.698,2.293,NA,NA,NA,NA,NA,happy,"unhappy, happy","less happy, more happy",NA,NA,NA,NA,NA,NA,NA,NA,NA,NA,0,2,2,0,1,NA,NA,NA,NA,NA,NA,NA,NA,NA,NA,NA,NA,NA,NA,NA,NA,NA,NA,NA,NA,NA,NA,NA,NA,NA,NA,NA,NA,NA,NA,NA,NA,NA
SUPAMT73370,NA,A08E8436-9279-4519-84D5-6870898EB6BA,2023-09-27_24h10.57.675,WP_VExplicitOC_HL,2022.2.5,Win32,1.875525147,NA,NA,NA,NA,NA,NA,NA,NA,NA,NA,NA,NA,NA,NA,NA,NA,NA,NA,NA,NA,NA,NA,NA,NA,NA,NA,NA,NA,NA,NA,NA,NA,NA,NA,NA,NA,NA,NA,NA,NA,NA,NA,NA,NA,NA,NA,NA,NA,NA,NA,NA,NA,NA,NA,NA,NA,NA,NA,NA
SUPAMT73370,NA,A08E8436-9279-4519-84D5-6870898EB6BA,2023-09-27_24h10.57.675,WP_VExplicitOC_HL,2022.2.5,Win32,1.875525147,NA,NA,NA,NA,NA,NA,NA,NA,NA,NA,NA,NA,NA,NA,NA,NA,NA,NA,NA,NA,NA,NA,NA,NA,NA,NA,NA,NA,NA,NA,NA,NA,NA,NA,NA,NA,NA,NA,NA,NA,NA,NA,NA,NA,NA,NA,NA,NA,NA,NA,NA,NA,NA,NA,NA,NA,NA,NA,NA
SUPAMT73370,NA,A08E8436-9279-4519-84D5-6870898EB6BA,2023-09-27_24h10.57.675,WP_VExplicitOC_HL,2022.2.5,Win32,1.875525147,92.70833333,6.165,2.226,NA,NA,NA,NA,NA,happy,"unhappy, happy","less happy, more happy",NA,NA,NA,NA,NA,NA,NA,NA,NA,NA,NA,NA,NA,NA,NA,0,0,0,0,1,NA,NA,NA,NA,NA,NA,NA,NA,NA,NA,NA,NA,NA,NA,NA,NA,NA,NA,NA,NA,NA,NA,NA,NA,NA,NA,NA,NA
SUPAMT73370,NA,A08E8436-9279-4519-84D5-6870898EB6BA,2023-09-27_24h10.57.675,WP_VExplicitOC_HL,2022.2.5,Win32,1.875525147,100,5.638,2.254,NA,NA,NA,NA,NA,bored,"bored, not bored","more bored, less bored",NA,NA,NA,NA,NA,NA,NA,NA,NA,NA,NA,NA,NA,NA,NA,0,1,1,2,1,NA,NA,NA,NA,NA,NA,NA,NA,NA,NA,NA,NA,NA,NA,NA,NA,NA,NA,NA,NA,NA,NA,NA,NA,NA,NA,NA,NA
SUPAMT73370,NA,A08E8436-9279-4519-84D5-6870898EB6BA,2023-09-27_24h10.57.675,WP_VExplicitOC_HL,2022.2.5,Win32,1.875525147,100,5.737,2.346,NA,NA,NA,NA,NA,frustrated,"frustrated, not frustrated","more frustrated, less frustrated",NA,NA,NA,NA,NA,NA,NA,NA,NA,NA,NA,NA,NA,NA,NA,0,2,2,1,1,NA,NA,NA,NA,NA,NA,NA,NA,NA,NA,NA,NA,NA,NA,NA,NA,NA,NA,NA,NA,NA,NA,NA,NA,NA,NA,NA,NA
SUPAMT73370,NA,A08E8436-9279-4519-84D5-6870898EB6BA,2023-09-27_24h10.57.675,WP_VExplicitOC_HL,2022.2.5,Win32,1.875525147,NA,NA,NA,NA,NA,NA,NA,NA,NA,NA,NA,NA,NA,NA,NA,NA,NA,NA,NA,NA,NA,NA,NA,NA,NA,NA,NA,NA,NA,NA,NA,0,0,0,0,1,NA,NA,NA,NA,NA,NA,NA,NA,NA,NA,NA,NA,NA,NA,NA,NA,NA,NA,NA,NA,NA,NA,NA
SUPAMT73370,NA,A08E8436-9279-4519-84D5-6870898EB6BA,2023-09-27_24h10.57.675,WP_VExplicitOC_HL,2022.2.5,Win32,1.875525147,NA,NA,2.173,NA,NA,NA,NA,NA,frustrated,"frustrated, not frustrated","more frustrated, less frustrated",NA,NA,NA,NA,NA,NA,NA,NA,NA,NA,NA,NA,NA,NA,NA,0,0,0,1,1,NA,NA,NA,NA,NA,NA,NA,NA,NA,NA,NA,NA,NA,NA,NA,NA,NA,NA,NA,NA,NA,NA,NA,NA,NA,NA,NA,NA
SUPAMT73370,NA,A08E8436-9279-4519-84D5-6870898EB6BA,2023-09-27_24h10.57.675,WP_VExplicitOC_HL,2022.2.5,Win32,1.875525147,93.22916667,6.231,2.269,NA,NA,NA,NA,NA,bored,"bored, not bored","more bored, less bored",NA,NA,NA,NA,NA,NA,NA,NA,NA,NA,NA,NA,NA,NA,NA,0,1,1,2,1,NA,NA,NA,NA,NA,NA,NA,NA,NA,NA,NA,NA,NA,NA,NA,NA,NA,NA,NA,NA,NA,NA,NA,NA,NA,NA,NA,NA
SUPAMT73370,NA,A08E8436-9279-4519-84D5-6870898EB6BA,2023-09-27_24h10.57.675,WP_VExplicitOC_HL,2022.2.5,Win32,1.875525147,79.6875,7.36,2.288,NA,NA,NA,NA,NA,happy,"unhappy, happy","less happy, more happy",NA,NA,NA,NA,NA,NA,NA,NA,NA,NA,NA,NA,NA,NA,NA,0,2,2,0,1,NA,NA,NA,NA,NA,NA,NA,NA,NA,NA,NA,NA,NA,NA,NA,NA,NA,NA,NA,NA,NA,NA,NA,NA,NA,NA,NA,NA
SUPAMT73370,NA,A08E8436-9279-4519-84D5-6870898EB6BA,2023-09-27_24h10.57.675,WP_VExplicitOC_HL,2022.2.5,Win32,1.875525147,NA,NA,NA,NA,NA,NA,NA,NA,NA,NA,NA,NA,NA,NA,NA,NA,NA,NA,NA,NA,NA,NA,NA,NA,NA,NA,NA,NA,NA,NA,NA,1,0,1,0,1,NA,NA,NA,NA,NA,NA,NA,NA,NA,NA,NA,NA,NA,NA,NA,NA,NA,NA,NA,NA,NA,NA,NA
SUPAMT73370,NA,A08E8436-9279-4519-84D5-6870898EB6BA,2023-09-27_24h10.57.675,WP_VExplicitOC_HL,2022.2.5,Win32,1.875525147,74.73958333,6.14,2.15,NA,NA,NA,NA,NA,happy,"unhappy, happy","less happy, more happy",NA,NA,NA,NA,NA,NA,NA,NA,NA,NA,NA,NA,NA,NA,NA,0,0,0,0,1,NA,NA,NA,NA,NA,NA,NA,NA,NA,NA,NA,NA,NA,NA,NA,NA,NA,NA,NA,NA,NA,NA,NA,NA,NA,NA,NA,NA
SUPAMT73370,NA,A08E8436-9279-4519-84D5-6870898EB6BA,2023-09-27_24h10.57.675,WP_VExplicitOC_HL,2022.2.5,Win32,1.875525147,96.875,6.227,2.262,NA,NA,NA,NA,NA,frustrated,"frustrated, not frustrated","more frustrated, less frustrated",NA,NA,NA,NA,NA,NA,NA,NA,NA,NA,NA,NA,NA,NA,NA,0,1,1,1,1,NA,NA,NA,NA,NA,NA,NA,NA,NA,NA,NA,NA,NA,NA,NA,NA,NA,NA,NA,NA,NA,NA,NA,NA,NA,NA,NA,NA
SUPAMT73370,NA,A08E8436-9279-4519-84D5-6870898EB6BA,2023-09-27_24h10.57.675,WP_VExplicitOC_HL,2022.2.5,Win32,1.875525147,91.40625,6.198,2.25,NA,NA,NA,NA,NA,bored,"bored, not bored","more bored, less bored",NA,NA,NA,NA,NA,NA,NA,NA,NA,NA,NA,NA,NA,NA,NA,0,2,2,2,1,NA,NA,NA,NA,NA,NA,NA,NA,NA,NA,NA,NA,NA,NA,NA,NA,NA,NA,NA,NA,NA,NA,NA,NA,NA,NA,NA,NA
SUPAMT73370,NA,A08E8436-9279-4519-84D5-6870898EB6BA,2023-09-27_24h10.57.675,WP_VExplicitOC_HL,2022.2.5,Win32,1.875525147,NA,NA,NA,NA,NA,NA,NA,NA,NA,NA,NA,NA,NA,NA,NA,NA,NA,NA,NA,NA,NA,NA,NA,NA,NA,NA,NA,NA,NA,NA,NA,2,0,2,0,1,NA,NA,NA,NA,NA,NA,NA,NA,NA,NA,NA,NA,NA,NA,NA,NA,NA,NA,NA,NA,NA,NA,NA
SUPAMT73370,NA,A08E8436-9279-4519-84D5-6870898EB6BA,2023-09-27_24h10.57.675,WP_VExplicitOC_HL,2022.2.5,Win32,1.875525147,70.05208333,6.227,2.248,NA,NA,NA,NA,NA,happy,"unhappy, happy","less happy, more happy",NA,NA,NA,NA,NA,NA,NA,NA,NA,NA,NA,NA,NA,NA,NA,0,0,0,0,1,NA,NA,NA,NA,NA,NA,NA,NA,NA,NA,NA,NA,NA,NA,NA,NA,NA,NA,NA,NA,NA,NA,NA,NA,NA,NA,NA,NA
SUPAMT73370,NA,A08E8436-9279-4519-84D5-6870898EB6BA,2023-09-27_24h10.57.675,WP_VExplicitOC_HL,2022.2.5,Win32,1.875525147,94.79166667,6.215,2.237,NA,NA,NA,NA,NA,bored,"bored, not bored","more bored, less bored",NA,NA,NA,NA,NA,NA,NA,NA,NA,NA,NA,NA,NA,NA,NA,0,1,1,2,1,NA,NA,NA,NA,NA,NA,NA,NA,NA,NA,NA,NA,NA,NA,NA,NA,NA,NA,NA,NA,NA,NA,NA,NA,NA,NA,NA,NA
SUPAMT73370,NA,A08E8436-9279-4519-84D5-6870898EB6BA,2023-09-27_24h10.57.675,WP_VExplicitOC_HL,2022.2.5,Win32,1.875525147,72.39583333,5.596,2.215,NA,NA,NA,NA,NA,frustrated,"frustrated, not frustrated","more frustrated, less frustrated",NA,NA,NA,NA,NA,NA,NA,NA,NA,NA,NA,NA,NA,NA,NA,0,2,2,1,1,NA,NA,NA,NA,NA,NA,NA,NA,NA,NA,NA,NA,NA,NA,NA,NA,NA,NA,NA,NA,NA,NA,NA,NA,NA,NA,NA,NA
SUPAMT73370,NA,A08E8436-9279-4519-84D5-6870898EB6BA,2023-09-27_24h10.57.675,WP_VExplicitOC_HL,2022.2.5,Win32,1.875525147,NA,NA,NA,NA,NA,NA,NA,NA,NA,NA,NA,NA,NA,NA,NA,NA,NA,NA,NA,NA,NA,NA,NA,NA,NA,NA,NA,NA,NA,NA,NA,3,0,3,0,1,NA,NA,NA,NA,NA,NA,NA,NA,NA,NA,NA,NA,NA,NA,NA,NA,NA,NA,NA,NA,NA,NA,NA
SUPAMT73370,NA,A08E8436-9279-4519-84D5-6870898EB6BA,2023-09-27_24h10.57.675,WP_VExplicitOC_HL,2022.2.5,Win32,1.875525147,59.63541667,6.244,2.217,NA,NA,NA,NA,NA,frustrated,"frustrated, not frustrated","more frustrated, less frustrated",NA,NA,NA,NA,NA,NA,NA,NA,NA,NA,NA,NA,NA,NA,NA,0,0,0,1,1,NA,NA,NA,NA,NA,NA,NA,NA,NA,NA,NA,NA,NA,NA,NA,NA,NA,NA,NA,NA,NA,NA,NA,NA,NA,NA,NA,NA
SUPAMT73370,NA,A08E8436-9279-4519-84D5-6870898EB6BA,2023-09-27_24h10.57.675,WP_VExplicitOC_HL,2022.2.5,Win32,1.875525147,72.13541667,6.221,2.263,NA,NA,NA,NA,NA,bored,"bored, not bored","more bored, less bored",NA,NA,NA,NA,NA,NA,NA,NA,NA,NA,NA,NA,NA,NA,NA,0,1,1,2,1,NA,NA,NA,NA,NA,NA,NA,NA,NA,NA,NA,NA,NA,NA,NA,NA,NA,NA,NA,NA,NA,NA,NA,NA,NA,NA,NA,NA
SUPAMT73370,NA,A08E8436-9279-4519-84D5-6870898EB6BA,2023-09-27_24h10.57.675,WP_VExplicitOC_HL,2022.2.5,Win32,1.875525147,69.79166667,5.646,2.232,NA,NA,NA,NA,NA,happy,"unhappy, happy","less happy, more happy",NA,NA,NA,NA,NA,NA,NA,NA,NA,NA,NA,NA,NA,NA,NA,0,2,2,0,1,NA,NA,NA,NA,NA,NA,NA,NA,NA,NA,NA,NA,NA,NA,NA,NA,NA,NA,NA,NA,NA,NA,NA,NA,NA,NA,NA,NA
SUPAMT73370,NA,A08E8436-9279-4519-84D5-6870898EB6BA,2023-09-27_24h10.57.675,WP_VExplicitOC_HL,2022.2.5,Win32,1.875525147,NA,NA,NA,NA,NA,NA,NA,NA,NA,NA,NA,NA,NA,NA,NA,NA,NA,NA,NA,NA,NA,NA,NA,NA,NA,NA,NA,NA,NA,NA,NA,4,0,4,0,1,NA,NA,NA,NA,NA,NA,NA,NA,NA,NA,NA,NA,NA,NA,NA,NA,NA,NA,NA,NA,NA,NA,NA
SUPAMT73370,NA,A08E8436-9279-4519-84D5-6870898EB6BA,2023-09-27_24h10.57.675,WP_VExplicitOC_HL,2022.2.5,Win32,1.875525147,NA,NA,2.196,NA,NA,NA,NA,NA,happy,"unhappy, happy","less happy, more happy",NA,NA,NA,NA,NA,NA,NA,NA,NA,NA,NA,NA,NA,NA,NA,0,0,0,0,1,NA,NA,NA,NA,NA,NA,NA,NA,NA,NA,NA,NA,NA,NA,NA,NA,NA,NA,NA,NA,NA,NA,NA,NA,NA,NA,NA,NA
SUPAMT73370,NA,A08E8436-9279-4519-84D5-6870898EB6BA,2023-09-27_24h10.57.675,WP_VExplicitOC_HL,2022.2.5,Win32,1.875525147,NA,NA,2.238,NA,NA,NA,NA,NA,bored,"bored, not bored","more bored, less bored",NA,NA,NA,NA,NA,NA,NA,NA,NA,NA,NA,NA,NA,NA,NA,0,1,1,2,1,NA,NA,NA,NA,NA,NA,NA,NA,NA,NA,NA,NA,NA,NA,NA,NA,NA,NA,NA,NA,NA,NA,NA,NA,NA,NA,NA,NA
SUPAMT73370,NA,A08E8436-9279-4519-84D5-6870898EB6BA,2023-09-27_24h10.57.675,WP_VExplicitOC_HL,2022.2.5,Win32,1.875525147,28.38541667,6.162,2.243,NA,NA,NA,NA,NA,frustrated,"frustrated, not frustrated","more frustrated, less frustrated",NA,NA,NA,NA,NA,NA,NA,NA,NA,NA,NA,NA,NA,NA,NA,0,2,2,1,1,NA,NA,NA,NA,NA,NA,NA,NA,NA,NA,NA,NA,NA,NA,NA,NA,NA,NA,NA,NA,NA,NA,NA,NA,NA,NA,NA,NA
SUPAMT73370,NA,A08E8436-9279-4519-84D5-6870898EB6BA,2023-09-27_24h10.57.675,WP_VExplicitOC_HL,2022.2.5,Win32,1.875525147,NA,NA,NA,NA,NA,NA,NA,NA,NA,NA,NA,NA,NA,NA,NA,NA,NA,NA,NA,NA,NA,NA,NA,NA,NA,NA,NA,NA,NA,NA,NA,5,0,5,0,1,NA,NA,NA,NA,NA,NA,NA,NA,NA,NA,NA,NA,NA,NA,NA,NA,NA,NA,NA,NA,NA,NA,NA
SUPAMT73370,NA,A08E8436-9279-4519-84D5-6870898EB6BA,2023-09-27_24h10.57.675,WP_VExplicitOC_HL,2022.2.5,Win32,1.875525147,42.1875,6.744,2.167,NA,NA,NA,NA,NA,frustrated,"frustrated, not frustrated","more frustrated, less frustrated",NA,NA,NA,NA,NA,NA,NA,NA,NA,NA,NA,NA,NA,NA,NA,0,0,0,1,1,NA,NA,NA,NA,NA,NA,NA,NA,NA,NA,NA,NA,NA,NA,NA,NA,NA,NA,NA,NA,NA,NA,NA,NA,NA,NA,NA,NA
SUPAMT73370,NA,A08E8436-9279-4519-84D5-6870898EB6BA,2023-09-27_24h10.57.675,WP_VExplicitOC_HL,2022.2.5,Win32,1.875525147,39.0625,5.622,2.233,NA,NA,NA,NA,NA,happy,"unhappy, happy","less happy, more happy",NA,NA,NA,NA,NA,NA,NA,NA,NA,NA,NA,NA,NA,NA,NA,0,1,1,0,1,NA,NA,NA,NA,NA,NA,NA,NA,NA,NA,NA,NA,NA,NA,NA,NA,NA,NA,NA,NA,NA,NA,NA,NA,NA,NA,NA,NA
SUPAMT73370,NA,A08E8436-9279-4519-84D5-6870898EB6BA,2023-09-27_24h10.57.675,WP_VExplicitOC_HL,2022.2.5,Win32,1.875525147,28.125,5.592,2.219,NA,NA,NA,NA,NA,bored,"bored, not bored","more bored, less bored",NA,NA,NA,NA,NA,NA,NA,NA,NA,NA,NA,NA,NA,NA,NA,0,2,2,2,1,NA,NA,NA,NA,NA,NA,NA,NA,NA,NA,NA,NA,NA,NA,NA,NA,NA,NA,NA,NA,NA,NA,NA,NA,NA,NA,NA,NA
SUPAMT73370,NA,A08E8436-9279-4519-84D5-6870898EB6BA,2023-09-27_24h10.57.675,WP_VExplicitOC_HL,2022.2.5,Win32,1.875525147,NA,NA,NA,NA,NA,NA,NA,NA,NA,NA,NA,NA,NA,NA,NA,NA,NA,NA,NA,NA,NA,NA,NA,NA,NA,NA,NA,NA,NA,NA,NA,6,0,6,0,1,NA,NA,NA,NA,NA,NA,NA,NA,NA,NA,NA,NA,NA,NA,NA,NA,NA,NA,NA,NA,NA,NA,NA
SUPAMT73370,NA,A08E8436-9279-4519-84D5-6870898EB6BA,2023-09-27_24h10.57.675,WP_VExplicitOC_HL,2022.2.5,Win32,1.875525147,10.15625,5.551,2.191,NA,NA,NA,NA,NA,bored,"bored, not bored","more bored, less bored",NA,NA,NA,NA,NA,NA,NA,NA,NA,NA,NA,NA,NA,NA,NA,0,0,0,2,1,NA,NA,NA,NA,NA,NA,NA,NA,NA,NA,NA,NA,NA,NA,NA,NA,NA,NA,NA,NA,NA,NA,NA,NA,NA,NA,NA,NA
SUPAMT73370,NA,A08E8436-9279-4519-84D5-6870898EB6BA,2023-09-27_24h10.57.675,WP_VExplicitOC_HL,2022.2.5,Win32,1.875525147,12.23958333,6.184,2.249,NA,NA,NA,NA,NA,happy,"unhappy, happy","less happy, more happy",NA,NA,NA,NA,NA,NA,NA,NA,NA,NA,NA,NA,NA,NA,NA,0,1,1,0,1,NA,NA,NA,NA,NA,NA,NA,NA,NA,NA,NA,NA,NA,NA,NA,NA,NA,NA,NA,NA,NA,NA,NA,NA,NA,NA,NA,NA
SUPAMT73370,NA,A08E8436-9279-4519-84D5-6870898EB6BA,2023-09-27_24h10.57.675,WP_VExplicitOC_HL,2022.2.5,Win32,1.875525147,12.23958333,7.29,2.224,NA,NA,NA,NA,NA,frustrated,"frustrated, not frustrated","more frustrated, less frustrated",NA,NA,NA,NA,NA,NA,NA,NA,NA,NA,NA,NA,NA,NA,NA,0,2,2,1,1,NA,NA,NA,NA,NA,NA,NA,NA,NA,NA,NA,NA,NA,NA,NA,NA,NA,NA,NA,NA,NA,NA,NA,NA,NA,NA,NA,NA
SUPAMT73370,NA,A08E8436-9279-4519-84D5-6870898EB6BA,2023-09-27_24h10.57.675,WP_VExplicitOC_HL,2022.2.5,Win32,1.875525147,NA,NA,NA,NA,NA,NA,NA,NA,NA,NA,NA,NA,NA,NA,NA,NA,NA,NA,NA,NA,NA,NA,NA,NA,NA,NA,NA,NA,NA,NA,NA,7,0,7,0,1,NA,NA,NA,NA,NA,NA,NA,NA,NA,NA,NA,NA,NA,NA,NA,NA,NA,NA,NA,NA,NA,NA,NA
SUPAMT73370,NA,A08E8436-9279-4519-84D5-6870898EB6BA,2023-09-27_24h10.57.675,WP_VExplicitOC_HL,2022.2.5,Win32,1.875525147,NA,NA,2.198,NA,NA,NA,NA,NA,happy,"unhappy, happy","less happy, more happy",NA,NA,NA,NA,NA,NA,NA,NA,NA,NA,NA,NA,NA,NA,NA,0,0,0,0,1,NA,NA,NA,NA,NA,NA,NA,NA,NA,NA,NA,NA,NA,NA,NA,NA,NA,NA,NA,NA,NA,NA,NA,NA,NA,NA,NA,NA
SUPAMT73370,NA,A08E8436-9279-4519-84D5-6870898EB6BA,2023-09-27_24h10.57.675,WP_VExplicitOC_HL,2022.2.5,Win32,1.875525147,-22.39583333,5.658,2.28,NA,NA,NA,NA,NA,bored,"bored, not bored","more bored, less bored",NA,NA,NA,NA,NA,NA,NA,NA,NA,NA,NA,NA,NA,NA,NA,0,1,1,2,1,NA,NA,NA,NA,NA,NA,NA,NA,NA,NA,NA,NA,NA,NA,NA,NA,NA,NA,NA,NA,NA,NA,NA,NA,NA,NA,NA,NA
SUPAMT73370,NA,A08E8436-9279-4519-84D5-6870898EB6BA,2023-09-27_24h10.57.675,WP_VExplicitOC_HL,2022.2.5,Win32,1.875525147,-30.72916667,5.647,2.248,NA,NA,NA,NA,NA,frustrated,"frustrated, not frustrated","more frustrated, less frustrated",NA,NA,NA,NA,NA,NA,NA,NA,NA,NA,NA,NA,NA,NA,NA,0,2,2,1,1,NA,NA,NA,NA,NA,NA,NA,NA,NA,NA,NA,NA,NA,NA,NA,NA,NA,NA,NA,NA,NA,NA,NA,NA,NA,NA,NA,NA
SUPAMT73370,NA,A08E8436-9279-4519-84D5-6870898EB6BA,2023-09-27_24h10.57.675,WP_VExplicitOC_HL,2022.2.5,Win32,1.875525147,NA,NA,NA,NA,NA,NA,NA,NA,NA,NA,NA,NA,NA,NA,NA,NA,NA,NA,NA,NA,NA,NA,NA,NA,NA,NA,NA,NA,NA,NA,NA,8,0,8,0,1,NA,NA,NA,NA,NA,NA,NA,NA,NA,NA,NA,NA,NA,NA,NA,NA,NA,NA,NA,NA,NA,NA,NA
SUPAMT73370,NA,A08E8436-9279-4519-84D5-6870898EB6BA,2023-09-27_24h10.57.675,WP_VExplicitOC_HL,2022.2.5,Win32,1.875525147,-28.64583333,5.533,2.196,NA,NA,NA,NA,NA,bored,"bored, not bored","more bored, less bored",NA,NA,NA,NA,NA,NA,NA,NA,NA,NA,NA,NA,NA,NA,NA,0,0,0,2,1,NA,NA,NA,NA,NA,NA,NA,NA,NA,NA,NA,NA,NA,NA,NA,NA,NA,NA,NA,NA,NA,NA,NA,NA,NA,NA,NA,NA
SUPAMT73370,NA,A08E8436-9279-4519-84D5-6870898EB6BA,2023-09-27_24h10.57.675,WP_VExplicitOC_HL,2022.2.5,Win32,1.875525147,-27.34375,5.591,2.229,NA,NA,NA,NA,NA,frustrated,"frustrated, not frustrated","more frustrated, less frustrated",NA,NA,NA,NA,NA,NA,NA,NA,NA,NA,NA,NA,NA,NA,NA,0,1,1,1,1,NA,NA,NA,NA,NA,NA,NA,NA,NA,NA,NA,NA,NA,NA,NA,NA,NA,NA,NA,NA,NA,NA,NA,NA,NA,NA,NA,NA
SUPAMT73370,NA,A08E8436-9279-4519-84D5-6870898EB6BA,2023-09-27_24h10.57.675,WP_VExplicitOC_HL,2022.2.5,Win32,1.875525147,-13.28125,5.585,2.229,NA,NA,NA,NA,NA,happy,"unhappy, happy","less happy, more happy",NA,NA,NA,NA,NA,NA,NA,NA,NA,NA,NA,NA,NA,NA,NA,0,2,2,0,1,NA,NA,NA,NA,NA,NA,NA,NA,NA,NA,NA,NA,NA,NA,NA,NA,NA,NA,NA,NA,NA,NA,NA,NA,NA,NA,NA,NA
SUPAMT73370,NA,A08E8436-9279-4519-84D5-6870898EB6BA,2023-09-27_24h10.57.675,WP_VExplicitOC_HL,2022.2.5,Win32,1.875525147,NA,NA,NA,NA,NA,NA,NA,NA,NA,NA,NA,NA,NA,NA,NA,NA,NA,NA,NA,NA,NA,NA,NA,NA,NA,NA,NA,NA,NA,NA,NA,9,0,9,0,1,NA,NA,NA,NA,NA,NA,NA,NA,NA,NA,NA,NA,NA,NA,NA,NA,NA,NA,NA,NA,NA,NA,NA
SUPAMT73370,NA,A08E8436-9279-4519-84D5-6870898EB6BA,2023-09-27_24h10.57.675,WP_VExplicitOC_HL,2022.2.5,Win32,1.875525147,-19.01041667,5.504,2.157,NA,NA,NA,NA,NA,happy,"unhappy, happy","less happy, more happy",NA,NA,NA,NA,NA,NA,NA,NA,NA,NA,NA,NA,NA,NA,NA,0,0,0,0,1,NA,NA,NA,NA,NA,NA,NA,NA,NA,NA,NA,NA,NA,NA,NA,NA,NA,NA,NA,NA,NA,NA,NA,NA,NA,NA,NA,NA
SUPAMT73370,NA,A08E8436-9279-4519-84D5-6870898EB6BA,2023-09-27_24h10.57.675,WP_VExplicitOC_HL,2022.2.5,Win32,1.875525147,-43.22916667,6.201,2.227,NA,NA,NA,NA,NA,frustrated,"frustrated, not frustrated","more frustrated, less frustrated",NA,NA,NA,NA,NA,NA,NA,NA,NA,NA,NA,NA,NA,NA,NA,0,1,1,1,1,NA,NA,NA,NA,NA,NA,NA,NA,NA,NA,NA,NA,NA,NA,NA,NA,NA,NA,NA,NA,NA,NA,NA,NA,NA,NA,NA,NA
SUPAMT73370,NA,A08E8436-9279-4519-84D5-6870898EB6BA,2023-09-27_24h10.57.675,WP_VExplicitOC_HL,2022.2.5,Win32,1.875525147,-46.09375,5.562,2.208,NA,NA,NA,NA,NA,bored,"bored, not bored","more bored, less bored",NA,NA,NA,NA,NA,NA,NA,NA,NA,NA,NA,NA,NA,NA,NA,0,2,2,2,1,NA,NA,NA,NA,NA,NA,NA,NA,NA,NA,NA,NA,NA,NA,NA,NA,NA,NA,NA,NA,NA,NA,NA,NA,NA,NA,NA,NA
SUPAMT73370,NA,A08E8436-9279-4519-84D5-6870898EB6BA,2023-09-27_24h10.57.675,WP_VExplicitOC_HL,2022.2.5,Win32,1.875525147,NA,NA,NA,NA,NA,NA,NA,NA,NA,NA,NA,NA,NA,NA,NA,NA,NA,NA,NA,NA,NA,NA,NA,NA,NA,NA,NA,NA,NA,NA,NA,10,0,10,0,1,NA,NA,NA,NA,NA,NA,NA,NA,NA,NA,NA,NA,NA,NA,NA,NA,NA,NA,NA,NA,NA,NA,NA
SUPAMT73370,NA,A08E8436-9279-4519-84D5-6870898EB6BA,2023-09-27_24h10.57.675,WP_VExplicitOC_HL,2022.2.5,Win32,1.875525147,-64.84375,6.847,2.32,NA,NA,NA,NA,NA,frustrated,"frustrated, not frustrated","more frustrated, less frustrated",NA,NA,NA,NA,NA,NA,NA,NA,NA,NA,NA,NA,NA,NA,NA,0,0,0,1,1,NA,NA,NA,NA,NA,NA,NA,NA,NA,NA,NA,NA,NA,NA,NA,NA,NA,NA,NA,NA,NA,NA,NA,NA,NA,NA,NA,NA
SUPAMT73370,NA,A08E8436-9279-4519-84D5-6870898EB6BA,2023-09-27_24h10.57.675,WP_VExplicitOC_HL,2022.2.5,Win32,1.875525147,-57.29166667,7.321,2.265,NA,NA,NA,NA,NA,bored,"bored, not bored","more bored, less bored",NA,NA,NA,NA,NA,NA,NA,NA,NA,NA,NA,NA,NA,NA,NA,0,1,1,2,1,NA,NA,NA,NA,NA,NA,NA,NA,NA,NA,NA,NA,NA,NA,NA,NA,NA,NA,NA,NA,NA,NA,NA,NA,NA,NA,NA,NA
SUPAMT73370,NA,A08E8436-9279-4519-84D5-6870898EB6BA,2023-09-27_24h10.57.675,WP_VExplicitOC_HL,2022.2.5,Win32,1.875525147,-28.64583333,6.663,2.191,NA,NA,NA,NA,NA,happy,"unhappy, happy","less happy, more happy",NA,NA,NA,NA,NA,NA,NA,NA,NA,NA,NA,NA,NA,NA,NA,0,2,2,0,1,NA,NA,NA,NA,NA,NA,NA,NA,NA,NA,NA,NA,NA,NA,NA,NA,NA,NA,NA,NA,NA,NA,NA,NA,NA,NA,NA,NA
SUPAMT73370,NA,A08E8436-9279-4519-84D5-6870898EB6BA,2023-09-27_24h10.57.675,WP_VExplicitOC_HL,2022.2.5,Win32,1.875525147,NA,NA,NA,NA,NA,NA,NA,NA,NA,NA,NA,NA,NA,NA,NA,NA,NA,NA,NA,NA,NA,NA,NA,NA,NA,NA,NA,NA,NA,NA,NA,11,0,11,0,1,NA,NA,NA,NA,NA,NA,NA,NA,NA,NA,NA,NA,NA,NA,NA,NA,NA,NA,NA,NA,NA,NA,NA
SUPAMT73370,NA,A08E8436-9279-4519-84D5-6870898EB6BA,2023-09-27_24h10.57.675,WP_VExplicitOC_HL,2022.2.5,Win32,1.875525147,-30.46875,5.47,2.148,NA,NA,NA,NA,NA,happy,"unhappy, happy","less happy, more happy",NA,NA,NA,NA,NA,NA,NA,NA,NA,NA,NA,NA,NA,NA,NA,0,0,0,0,1,NA,NA,NA,NA,NA,NA,NA,NA,NA,NA,NA,NA,NA,NA,NA,NA,NA,NA,NA,NA,NA,NA,NA,NA,NA,NA,NA,NA
SUPAMT73370,NA,A08E8436-9279-4519-84D5-6870898EB6BA,2023-09-27_24h10.57.675,WP_VExplicitOC_HL,2022.2.5,Win32,1.875525147,-60.15625,5.582,2.219,NA,NA,NA,NA,NA,bored,"bored, not bored","more bored, less bored",NA,NA,NA,NA,NA,NA,NA,NA,NA,NA,NA,NA,NA,NA,NA,0,1,1,2,1,NA,NA,NA,NA,NA,NA,NA,NA,NA,NA,NA,NA,NA,NA,NA,NA,NA,NA,NA,NA,NA,NA,NA,NA,NA,NA,NA,NA
SUPAMT73370,NA,A08E8436-9279-4519-84D5-6870898EB6BA,2023-09-27_24h10.57.675,WP_VExplicitOC_HL,2022.2.5,Win32,1.875525147,-63.02083333,5.612,2.257,NA,NA,NA,NA,NA,frustrated,"frustrated, not frustrated","more frustrated, less frustrated",NA,NA,NA,NA,NA,NA,NA,NA,NA,NA,NA,NA,NA,NA,NA,0,2,2,1,1,NA,NA,NA,NA,NA,NA,NA,NA,NA,NA,NA,NA,NA,NA,NA,NA,NA,NA,NA,NA,NA,NA,NA,NA,NA,NA,NA,NA
SUPAMT73370,NA,A08E8436-9279-4519-84D5-6870898EB6BA,2023-09-27_24h10.57.675,WP_VExplicitOC_HL,2022.2.5,Win32,1.875525147,NA,NA,NA,NA,NA,NA,NA,NA,NA,NA,NA,NA,NA,NA,NA,NA,NA,NA,NA,NA,NA,NA,NA,NA,NA,NA,NA,NA,NA,NA,NA,12,0,12,0,1,NA,NA,NA,NA,NA,NA,NA,NA,NA,NA,NA,NA,NA,NA,NA,NA,NA,NA,NA,NA,NA,NA,NA
SUPAMT73370,NA,A08E8436-9279-4519-84D5-6870898EB6BA,2023-09-27_24h10.57.675,WP_VExplicitOC_HL,2022.2.5,Win32,1.875525147,-75.26041667,6.747,2.22,NA,NA,NA,NA,NA,frustrated,"frustrated, not frustrated","more frustrated, less frustrated",NA,NA,NA,NA,NA,NA,NA,NA,NA,NA,NA,NA,NA,NA,NA,0,0,0,1,1,NA,NA,NA,NA,NA,NA,NA,NA,NA,NA,NA,NA,NA,NA,NA,NA,NA,NA,NA,NA,NA,NA,NA,NA,NA,NA,NA,NA
SUPAMT73370,NA,A08E8436-9279-4519-84D5-6870898EB6BA,2023-09-27_24h10.57.675,WP_VExplicitOC_HL,2022.2.5,Win32,1.875525147,-76.5625,5.6,2.234,NA,NA,NA,NA,NA,happy,"unhappy, happy","less happy, more happy",NA,NA,NA,NA,NA,NA,NA,NA,NA,NA,NA,NA,NA,NA,NA,0,1,1,0,1,NA,NA,NA,NA,NA,NA,NA,NA,NA,NA,NA,NA,NA,NA,NA,NA,NA,NA,NA,NA,NA,NA,NA,NA,NA,NA,NA,NA
SUPAMT73370,NA,A08E8436-9279-4519-84D5-6870898EB6BA,2023-09-27_24h10.57.675,WP_VExplicitOC_HL,2022.2.5,Win32,1.875525147,-79.42708333,6.666,2.18,NA,NA,NA,NA,NA,bored,"bored, not bored","more bored, less bored",NA,NA,NA,NA,NA,NA,NA,NA,NA,NA,NA,NA,NA,NA,NA,0,2,2,2,1,NA,NA,NA,NA,NA,NA,NA,NA,NA,NA,NA,NA,NA,NA,NA,NA,NA,NA,NA,NA,NA,NA,NA,NA,NA,NA,NA,NA
SUPAMT73370,NA,A08E8436-9279-4519-84D5-6870898EB6BA,2023-09-27_24h10.57.675,WP_VExplicitOC_HL,2022.2.5,Win32,1.875525147,NA,NA,NA,NA,NA,NA,NA,NA,NA,NA,NA,NA,NA,NA,NA,NA,NA,NA,NA,NA,NA,NA,NA,NA,NA,NA,NA,NA,NA,NA,NA,13,0,13,0,1,NA,NA,NA,NA,NA,NA,NA,NA,NA,NA,NA,NA,NA,NA,NA,NA,NA,NA,NA,NA,NA,NA,NA
SUPAMT73370,NA,A08E8436-9279-4519-84D5-6870898EB6BA,2023-09-27_24h10.57.675,WP_VExplicitOC_HL,2022.2.5,Win32,1.875525147,-86.97916667,6.181,2.222,NA,NA,NA,NA,NA,frustrated,"frustrated, not frustrated","more frustrated, less frustrated",NA,NA,NA,NA,NA,NA,NA,NA,NA,NA,NA,NA,NA,NA,NA,0,0,0,1,1,NA,NA,NA,NA,NA,NA,NA,NA,NA,NA,NA,NA,NA,NA,NA,NA,NA,NA,NA,NA,NA,NA,NA,NA,NA,NA,NA,NA
SUPAMT73370,NA,A08E8436-9279-4519-84D5-6870898EB6BA,2023-09-27_24h10.57.675,WP_VExplicitOC_HL,2022.2.5,Win32,1.875525147,-89.58333333,5.569,2.231,NA,NA,NA,NA,NA,happy,"unhappy, happy","less happy, more happy",NA,NA,NA,NA,NA,NA,NA,NA,NA,NA,NA,NA,NA,NA,NA,0,1,1,0,1,NA,NA,NA,NA,NA,NA,NA,NA,NA,NA,NA,NA,NA,NA,NA,NA,NA,NA,NA,NA,NA,NA,NA,NA,NA,NA,NA,NA
SUPAMT73370,NA,A08E8436-9279-4519-84D5-6870898EB6BA,2023-09-27_24h10.57.675,WP_VExplicitOC_HL,2022.2.5,Win32,1.875525147,-98.69791667,5.583,2.217,NA,NA,NA,NA,NA,bored,"bored, not bored","more bored, less bored",NA,NA,NA,NA,NA,NA,NA,NA,NA,NA,NA,NA,NA,NA,NA,0,2,2,2,1,NA,NA,NA,NA,NA,NA,NA,NA,NA,NA,NA,NA,NA,NA,NA,NA,NA,NA,NA,NA,NA,NA,NA,NA,NA,NA,NA,NA
SUPAMT73370,NA,A08E8436-9279-4519-84D5-6870898EB6BA,2023-09-27_24h10.57.675,WP_VExplicitOC_HL,2022.2.5,Win32,1.875525147,NA,NA,NA,NA,NA,NA,NA,NA,NA,NA,NA,NA,NA,NA,NA,NA,NA,NA,NA,NA,NA,NA,NA,NA,NA,NA,NA,NA,NA,NA,NA,14,0,14,0,1,NA,NA,NA,NA,NA,NA,NA,NA,NA,NA,NA,NA,NA,NA,NA,NA,NA,NA,NA,NA,NA,NA,NA
SUPAMT73370,NA,A08E8436-9279-4519-84D5-6870898EB6BA,2023-09-27_24h10.57.675,WP_VExplicitOC_HL,2022.2.5,Win32,1.875525147,NA,NA,NA,NA,NA,NA,NA,NA,NA,NA,NA,NA,NA,NA,NA,NA,NA,NA,NA,NA,NA,NA,NA,NA,NA,NA,NA,NA,NA,NA,NA,NA,NA,NA,NA,NA,NA,NA,NA,NA,NA,NA,NA,NA,NA,NA,NA,NA,NA,NA,NA,NA,NA,NA,NA,NA,NA,NA,NA
SUPAMT73370,NA,A08E8436-9279-4519-84D5-6870898EB6BA,2023-09-27_24h10.57.675,WP_VExplicitOC_HL,2022.2.5,Win32,1.875525147,NA,NA,NA,NA,NA,NA,NA,NA,NA,NA,NA,NA,NA,NA,NA,NA,NA,NA,NA,NA,NA,NA,NA,NA,NA,NA,NA,NA,NA,NA,NA,NA,NA,NA,NA,NA,NA,NA,NA,NA,NA,NA,NA,NA,NA,NA,NA,NA,NA,NA,NA,NA,NA,NA,NA,NA,NA,NA,NA
SUPAMT73370,NA,A08E8436-9279-4519-84D5-6870898EB6BA,2023-09-27_24h10.57.675,WP_VExplicitOC_HL,2022.2.5,Win32,1.875525147,NA,NA,NA,NA,NA,NA,NA,NA,NA,NA,NA,NA,NA,NA,NA,NA,NA,NA,rest (looking at a fixed cross),001.png,NA,NA,NA,NA,NA,NA,NA,NA,NA,NA,NA,NA,NA,NA,NA,NA,-58.33333333,5.31,0,0,0,0,1,NA,NA,NA,NA,NA,NA,NA,NA,NA,NA,NA,NA,NA,NA,NA,NA
SUPAMT73370,NA,A08E8436-9279-4519-84D5-6870898EB6BA,2023-09-27_24h10.57.675,WP_VExplicitOC_HL,2022.2.5,Win32,1.875525147,NA,NA,NA,NA,NA,NA,NA,NA,NA,NA,NA,NA,NA,NA,NA,NA,NA,NA,stand up,002.png,NA,NA,NA,NA,NA,NA,NA,NA,NA,NA,NA,NA,NA,NA,NA,NA,-30.46875,3.458,0,1,1,1,1,NA,NA,NA,NA,NA,NA,NA,NA,NA,NA,NA,NA,NA,NA,NA,NA
SUPAMT73370,NA,A08E8436-9279-4519-84D5-6870898EB6BA,2023-09-27_24h10.57.675,WP_VExplicitOC_HL,2022.2.5,Win32,1.875525147,NA,NA,NA,NA,NA,NA,NA,NA,NA,NA,NA,NA,NA,NA,NA,NA,NA,NA,stretch,003.png,NA,NA,NA,NA,NA,NA,NA,NA,NA,NA,NA,NA,NA,NA,NA,NA,-30.46875,3.451,0,2,2,2,1,NA,NA,NA,NA,NA,NA,NA,NA,NA,NA,NA,NA,NA,NA,NA,NA
SUPAMT73370,NA,A08E8436-9279-4519-84D5-6870898EB6BA,2023-09-27_24h10.57.675,WP_VExplicitOC_HL,2022.2.5,Win32,1.875525147,NA,NA,NA,NA,NA,NA,NA,NA,NA,NA,NA,NA,NA,NA,NA,NA,NA,NA,make a drink,004.png,NA,NA,NA,NA,NA,NA,NA,NA,NA,NA,NA,NA,NA,NA,NA,NA,-18.22916667,4.06,0,3,3,3,1,NA,NA,NA,NA,NA,NA,NA,NA,NA,NA,NA,NA,NA,NA,NA,NA
SUPAMT73370,NA,A08E8436-9279-4519-84D5-6870898EB6BA,2023-09-27_24h10.57.675,WP_VExplicitOC_HL,2022.2.5,Win32,1.875525147,NA,NA,NA,NA,NA,NA,NA,NA,NA,NA,NA,NA,NA,NA,NA,NA,NA,NA,scroll social media,005.png,NA,NA,NA,NA,NA,NA,NA,NA,NA,NA,NA,NA,NA,NA,NA,NA,31.77083333,5.829,0,4,4,4,1,NA,NA,NA,NA,NA,NA,NA,NA,NA,NA,NA,NA,NA,NA,NA,NA
SUPAMT73370,NA,A08E8436-9279-4519-84D5-6870898EB6BA,2023-09-27_24h10.57.675,WP_VExplicitOC_HL,2022.2.5,Win32,1.875525147,NA,NA,NA,NA,NA,NA,NA,NA,NA,NA,NA,NA,NA,NA,NA,NA,NA,NA,listen to music,006.png,NA,NA,NA,NA,NA,NA,NA,NA,NA,NA,NA,NA,NA,NA,NA,NA,-13.80208333,4,0,5,5,5,1,NA,NA,NA,NA,NA,NA,NA,NA,NA,NA,NA,NA,NA,NA,NA,NA
SUPAMT73370,NA,A08E8436-9279-4519-84D5-6870898EB6BA,2023-09-27_24h10.57.675,WP_VExplicitOC_HL,2022.2.5,Win32,1.875525147,NA,NA,NA,NA,NA,NA,NA,NA,NA,NA,NA,NA,NA,NA,NA,NA,NA,NA,daydream,007.png,NA,NA,NA,NA,NA,NA,NA,NA,NA,NA,NA,NA,NA,NA,NA,NA,-22.39583333,3.46,0,6,6,6,1,NA,NA,NA,NA,NA,NA,NA,NA,NA,NA,NA,NA,NA,NA,NA,NA
SUPAMT73370,NA,A08E8436-9279-4519-84D5-6870898EB6BA,2023-09-27_24h10.57.675,WP_VExplicitOC_HL,2022.2.5,Win32,1.875525147,NA,NA,NA,NA,NA,NA,NA,NA,NA,NA,NA,NA,NA,NA,NA,NA,NA,NA,watch a short animation,008.png,NA,NA,NA,NA,NA,NA,NA,NA,NA,NA,NA,NA,NA,NA,NA,NA,-22.13541667,3.517,0,7,7,7,1,NA,NA,NA,NA,NA,NA,NA,NA,NA,NA,NA,NA,NA,NA,NA,NA
SUPAMT73370,NA,A08E8436-9279-4519-84D5-6870898EB6BA,2023-09-27_24h10.57.675,WP_VExplicitOC_HL,2022.2.5,Win32,1.875525147,NA,NA,NA,NA,NA,NA,NA,NA,NA,NA,NA,NA,NA,NA,NA,NA,NA,NA,read a novel,009.png,NA,NA,NA,NA,NA,NA,NA,NA,NA,NA,NA,NA,NA,NA,NA,NA,-58.07291667,4.055,0,8,8,8,1,NA,NA,NA,NA,NA,NA,NA,NA,NA,NA,NA,NA,NA,NA,NA,NA
SUPAMT73370,NA,A08E8436-9279-4519-84D5-6870898EB6BA,2023-09-27_24h10.57.675,WP_VExplicitOC_HL,2022.2.5,Win32,1.875525147,NA,NA,NA,NA,NA,NA,NA,NA,NA,NA,NA,NA,NA,NA,NA,NA,NA,NA,read the news,010.png,NA,NA,NA,NA,NA,NA,NA,NA,NA,NA,NA,NA,NA,NA,NA,NA,-37.76041667,4.059,0,9,9,9,1,NA,NA,NA,NA,NA,NA,NA,NA,NA,NA,NA,NA,NA,NA,NA,NA
SUPAMT73370,NA,A08E8436-9279-4519-84D5-6870898EB6BA,2023-09-27_24h10.57.675,WP_VExplicitOC_HL,2022.2.5,Win32,1.875525147,NA,NA,NA,NA,NA,NA,NA,NA,NA,NA,NA,NA,NA,NA,NA,NA,NA,NA,NA,NA,NA,NA,NA,NA,NA,NA,NA,NA,NA,NA,NA,NA,NA,NA,NA,NA,NA,NA,NA,NA,NA,NA,NA,read a novel,NA,NA,NA,NA,NA,NA,NA,NA,NA,NA,NA,NA,NA,NA,NA
SUPAMT73370,NA,A08E8436-9279-4519-84D5-6870898EB6BA,2023-09-27_24h10.57.675,WP_VExplicitOC_HL,2022.2.5,Win32,1.875525147,-23.17708333,5.632,2.226,NA,NA,NA,NA,NA,frustrated,"frustrated, not frustrated","more frustrated, less frustrated",NA,NA,NA,NA,NA,NA,NA,NA,NA,NA,NA,NA,NA,NA,NA,NA,NA,NA,NA,NA,NA,NA,NA,NA,NA,NA,NA,NA,NA,NA,NA,NA,NA,0,0,0,1,1,NA,NA,NA,NA,NA,NA,NA,NA,NA,NA
SUPAMT73370,NA,A08E8436-9279-4519-84D5-6870898EB6BA,2023-09-27_24h10.57.675,WP_VExplicitOC_HL,2022.2.5,Win32,1.875525147,-22.13541667,4.969,2.194,NA,NA,NA,NA,NA,happy,"unhappy, happy","less happy, more happy",NA,NA,NA,NA,NA,NA,NA,NA,NA,NA,NA,NA,NA,NA,NA,NA,NA,NA,NA,NA,NA,NA,NA,NA,NA,NA,NA,NA,NA,NA,NA,NA,NA,0,1,1,0,1,NA,NA,NA,NA,NA,NA,NA,NA,NA,NA
SUPAMT73370,NA,A08E8436-9279-4519-84D5-6870898EB6BA,2023-09-27_24h10.57.675,WP_VExplicitOC_HL,2022.2.5,Win32,1.875525147,-43.48958333,5.578,2.251,NA,NA,NA,NA,NA,bored,"bored, not bored","more bored, less bored",NA,NA,NA,NA,NA,NA,NA,NA,NA,NA,NA,NA,NA,NA,NA,NA,NA,NA,NA,NA,NA,NA,NA,NA,NA,NA,NA,NA,NA,NA,NA,NA,NA,0,2,2,2,1,NA,NA,NA,NA,NA,NA,NA,NA,NA,NA
SUPAMT73370,NA,A08E8436-9279-4519-84D5-6870898EB6BA,2023-09-27_24h10.57.675,WP_VExplicitOC_HL,2022.2.5,Win32,1.875525147,NA,NA,NA,NA,NA,NA,NA,NA,NA,NA,NA,NA,NA,NA,NA,NA,NA,NA,NA,NA,NA,NA,NA,NA,NA,NA,NA,NA,NA,NA,NA,NA,NA,NA,NA,NA,NA,NA,NA,NA,NA,NA,NA,NA,NA,NA,NA,NA,NA,NA,NA,NA,NA,NA,NA,NA,NA,NA,NA
SUPAMT73370,NA,A08E8436-9279-4519-84D5-6870898EB6BA,2023-09-27_24h10.57.675,WP_VExplicitOC_HL,2022.2.5,Win32,1.875525147,NA,NA,NA,NA,NA,NA,NA,NA,NA,NA,NA,NA,NA,NA,NA,NA,NA,NA,NA,NA,NA,NA,NA,NA,NA,NA,NA,NA,NA,NA,NA,NA,NA,NA,NA,NA,NA,NA,NA,NA,NA,NA,NA,NA,NA,NA,NA,NA,NA,NA,NA,NA,NA,NA,NA,NA,NA,NA,NA
SUPAMT73370,NA,A08E8436-9279-4519-84D5-6870898EB6BA,2023-09-27_24h10.57.675,WP_VExplicitOC_HL,2022.2.5,Win32,1.875525147,-14.0625,6.185,2.209,NA,NA,NA,NA,NA,frustrated,"frustrated, not frustrated","more frustrated, less frustrated",NA,NA,NA,NA,NA,NA,NA,NA,NA,NA,NA,NA,NA,NA,NA,NA,NA,NA,NA,NA,NA,NA,NA,NA,NA,NA,NA,NA,NA,NA,NA,NA,NA,NA,NA,NA,NA,NA,0,0,0,1,1,NA,NA,NA,NA,NA
SUPAMT73370,NA,A08E8436-9279-4519-84D5-6870898EB6BA,2023-09-27_24h10.57.675,WP_VExplicitOC_HL,2022.2.5,Win32,1.875525147,-26.04166667,6.113,2.195,NA,NA,NA,NA,NA,bored,"bored, not bored","more bored, less bored",NA,NA,NA,NA,NA,NA,NA,NA,NA,NA,NA,NA,NA,NA,NA,NA,NA,NA,NA,NA,NA,NA,NA,NA,NA,NA,NA,NA,NA,NA,NA,NA,NA,NA,NA,NA,NA,NA,0,1,1,2,1,NA,NA,NA,NA,NA
SUPAMT73370,NA,A08E8436-9279-4519-84D5-6870898EB6BA,2023-09-27_24h10.57.675,WP_VExplicitOC_HL,2022.2.5,Win32,1.875525147,-17.96875,5.561,2.188,NA,NA,NA,NA,NA,happy,"unhappy, happy","less happy, more happy",NA,NA,NA,NA,NA,NA,NA,NA,NA,NA,NA,NA,NA,NA,NA,NA,NA,NA,NA,NA,NA,NA,NA,NA,NA,NA,NA,NA,NA,NA,NA,NA,NA,NA,NA,NA,NA,NA,0,2,2,0,1,NA,NA,NA,NA,NA
SUPAMT73370,NA,A08E8436-9279-4519-84D5-6870898EB6BA,2023-09-27_24h10.57.675,WP_VExplicitOC_HL,2022.2.5,Win32,1.875525147,NA,NA,NA,NA,NA,NA,NA,NA,NA,NA,NA,NA,NA,NA,NA,NA,NA,NA,NA,NA,NA,NA,NA,NA,NA,NA,NA,NA,NA,NA,NA,NA,NA,NA,NA,NA,NA,NA,NA,NA,NA,NA,NA,NA,NA,NA,NA,NA,NA,NA,NA,NA,NA,NA,0,0,0,0,1
SUPAMT73370,NA,A08E8436-9279-4519-84D5-6870898EB6BA,2023-09-27_24h10.57.675,WP_VExplicitOC_HL,2022.2.5,Win32,1.875525147,-47.65625,6.116,2.165,NA,NA,NA,NA,NA,bored,"bored, not bored","more bored, less bored",NA,NA,NA,NA,NA,NA,NA,NA,NA,NA,NA,NA,NA,NA,NA,NA,NA,NA,NA,NA,NA,NA,NA,NA,NA,NA,NA,NA,NA,NA,NA,NA,NA,NA,NA,NA,NA,NA,0,0,0,2,1,NA,NA,NA,NA,NA
SUPAMT73370,NA,A08E8436-9279-4519-84D5-6870898EB6BA,2023-09-27_24h10.57.675,WP_VExplicitOC_HL,2022.2.5,Win32,1.875525147,-50.78125,7.278,2.209,NA,NA,NA,NA,NA,frustrated,"frustrated, not frustrated","more frustrated, less frustrated",NA,NA,NA,NA,NA,NA,NA,NA,NA,NA,NA,NA,NA,NA,NA,NA,NA,NA,NA,NA,NA,NA,NA,NA,NA,NA,NA,NA,NA,NA,NA,NA,NA,NA,NA,NA,NA,NA,0,1,1,1,1,NA,NA,NA,NA,NA
SUPAMT73370,NA,A08E8436-9279-4519-84D5-6870898EB6BA,2023-09-27_24h10.57.675,WP_VExplicitOC_HL,2022.2.5,Win32,1.875525147,-39.58333333,5.698,2.297,NA,NA,NA,NA,NA,happy,"unhappy, happy","less happy, more happy",NA,NA,NA,NA,NA,NA,NA,NA,NA,NA,NA,NA,NA,NA,NA,NA,NA,NA,NA,NA,NA,NA,NA,NA,NA,NA,NA,NA,NA,NA,NA,NA,NA,NA,NA,NA,NA,NA,0,2,2,0,1,NA,NA,NA,NA,NA
SUPAMT73370,NA,A08E8436-9279-4519-84D5-6870898EB6BA,2023-09-27_24h10.57.675,WP_VExplicitOC_HL,2022.2.5,Win32,1.875525147,NA,NA,NA,NA,NA,NA,NA,NA,NA,NA,NA,NA,NA,NA,NA,NA,NA,NA,NA,NA,NA,NA,NA,NA,NA,NA,NA,NA,NA,NA,NA,NA,NA,NA,NA,NA,NA,NA,NA,NA,NA,NA,NA,NA,NA,NA,NA,NA,NA,NA,NA,NA,NA,NA,1,0,1,0,1
SUPAMT73370,NA,A08E8436-9279-4519-84D5-6870898EB6BA,2023-09-27_24h10.57.675,WP_VExplicitOC_HL,2022.2.5,Win32,1.875525147,-62.76041667,6.115,2.205,NA,NA,NA,NA,NA,happy,"unhappy, happy","less happy, more happy",NA,NA,NA,NA,NA,NA,NA,NA,NA,NA,NA,NA,NA,NA,NA,NA,NA,NA,NA,NA,NA,NA,NA,NA,NA,NA,NA,NA,NA,NA,NA,NA,NA,NA,NA,NA,NA,NA,0,0,0,0,1,NA,NA,NA,NA,NA
SUPAMT73370,NA,A08E8436-9279-4519-84D5-6870898EB6BA,2023-09-27_24h10.57.675,WP_VExplicitOC_HL,2022.2.5,Win32,1.875525147,-98.95833333,5.597,2.243,NA,NA,NA,NA,NA,frustrated,"frustrated, not frustrated","more frustrated, less frustrated",NA,NA,NA,NA,NA,NA,NA,NA,NA,NA,NA,NA,NA,NA,NA,NA,NA,NA,NA,NA,NA,NA,NA,NA,NA,NA,NA,NA,NA,NA,NA,NA,NA,NA,NA,NA,NA,NA,0,1,1,1,1,NA,NA,NA,NA,NA
SUPAMT73370,NA,A08E8436-9279-4519-84D5-6870898EB6BA,2023-09-27_24h10.57.675,WP_VExplicitOC_HL,2022.2.5,Win32,1.875525147,-98.95833333,6.16,2.25,NA,NA,NA,NA,NA,bored,"bored, not bored","more bored, less bored",NA,NA,NA,NA,NA,NA,NA,NA,NA,NA,NA,NA,NA,NA,NA,NA,NA,NA,NA,NA,NA,NA,NA,NA,NA,NA,NA,NA,NA,NA,NA,NA,NA,NA,NA,NA,NA,NA,0,2,2,2,1,NA,NA,NA,NA,NA
SUPAMT73370,NA,A08E8436-9279-4519-84D5-6870898EB6BA,2023-09-27_24h10.57.675,WP_VExplicitOC_HL,2022.2.5,Win32,1.875525147,NA,NA,NA,NA,NA,NA,NA,NA,NA,NA,NA,NA,NA,NA,NA,NA,NA,NA,NA,NA,NA,NA,NA,NA,NA,NA,NA,NA,NA,NA,NA,NA,NA,NA,NA,NA,NA,NA,NA,NA,NA,NA,NA,NA,NA,NA,NA,NA,NA,NA,NA,NA,NA,NA,2,0,2,0,1
SUPAMT73370,NA,A08E8436-9279-4519-84D5-6870898EB6BA,2023-09-27_24h10.57.675,WP_VExplicitOC_HL,2022.2.5,Win32,1.875525147,-81.77083333,6.132,2.174,NA,NA,NA,NA,NA,frustrated,"frustrated, not frustrated","more frustrated, less frustrated",NA,NA,NA,NA,NA,NA,NA,NA,NA,NA,NA,NA,NA,NA,NA,NA,NA,NA,NA,NA,NA,NA,NA,NA,NA,NA,NA,NA,NA,NA,NA,NA,NA,NA,NA,NA,NA,NA,0,0,0,1,1,NA,NA,NA,NA,NA
SUPAMT73370,NA,A08E8436-9279-4519-84D5-6870898EB6BA,2023-09-27_24h10.57.675,WP_VExplicitOC_HL,2022.2.5,Win32,1.875525147,-83.33333333,5.58,2.24,NA,NA,NA,NA,NA,bored,"bored, not bored","more bored, less bored",NA,NA,NA,NA,NA,NA,NA,NA,NA,NA,NA,NA,NA,NA,NA,NA,NA,NA,NA,NA,NA,NA,NA,NA,NA,NA,NA,NA,NA,NA,NA,NA,NA,NA,NA,NA,NA,NA,0,1,1,2,1,NA,NA,NA,NA,NA
SUPAMT73370,NA,A08E8436-9279-4519-84D5-6870898EB6BA,2023-09-27_24h10.57.675,WP_VExplicitOC_HL,2022.2.5,Win32,1.875525147,-84.375,6.714,2.241,NA,NA,NA,NA,NA,happy,"unhappy, happy","less happy, more happy",NA,NA,NA,NA,NA,NA,NA,NA,NA,NA,NA,NA,NA,NA,NA,NA,NA,NA,NA,NA,NA,NA,NA,NA,NA,NA,NA,NA,NA,NA,NA,NA,NA,NA,NA,NA,NA,NA,0,2,2,0,1,NA,NA,NA,NA,NA
SUPAMT73370,NA,A08E8436-9279-4519-84D5-6870898EB6BA,2023-09-27_24h10.57.675,WP_VExplicitOC_HL,2022.2.5,Win32,1.875525147,NA,NA,NA,NA,NA,NA,NA,NA,NA,NA,NA,NA,NA,NA,NA,NA,NA,NA,NA,NA,NA,NA,NA,NA,NA,NA,NA,NA,NA,NA,NA,NA,NA,NA,NA,NA,NA,NA,NA,NA,NA,NA,NA,NA,NA,NA,NA,NA,NA,NA,NA,NA,NA,NA,3,0,3,0,1
SUPAMT73370,NA,A08E8436-9279-4519-84D5-6870898EB6BA,2023-09-27_24h10.57.675,WP_VExplicitOC_HL,2022.2.5,Win32,1.875525147,-73.4375,5.483,2.158,NA,NA,NA,NA,NA,bored,"bored, not bored","more bored, less bored",NA,NA,NA,NA,NA,NA,NA,NA,NA,NA,NA,NA,NA,NA,NA,NA,NA,NA,NA,NA,NA,NA,NA,NA,NA,NA,NA,NA,NA,NA,NA,NA,NA,NA,NA,NA,NA,NA,0,0,0,2,1,NA,NA,NA,NA,NA
SUPAMT73370,NA,A08E8436-9279-4519-84D5-6870898EB6BA,2023-09-27_24h10.57.675,WP_VExplicitOC_HL,2022.2.5,Win32,1.875525147,-75.78125,5.578,2.243,NA,NA,NA,NA,NA,happy,"unhappy, happy","less happy, more happy",NA,NA,NA,NA,NA,NA,NA,NA,NA,NA,NA,NA,NA,NA,NA,NA,NA,NA,NA,NA,NA,NA,NA,NA,NA,NA,NA,NA,NA,NA,NA,NA,NA,NA,NA,NA,NA,NA,0,1,1,0,1,NA,NA,NA,NA,NA
SUPAMT73370,NA,A08E8436-9279-4519-84D5-6870898EB6BA,2023-09-27_24h10.57.675,WP_VExplicitOC_HL,2022.2.5,Win32,1.875525147,-100,5.589,2.246,NA,NA,NA,NA,NA,frustrated,"frustrated, not frustrated","more frustrated, less frustrated",NA,NA,NA,NA,NA,NA,NA,NA,NA,NA,NA,NA,NA,NA,NA,NA,NA,NA,NA,NA,NA,NA,NA,NA,NA,NA,NA,NA,NA,NA,NA,NA,NA,NA,NA,NA,NA,NA,0,2,2,1,1,NA,NA,NA,NA,NA
SUPAMT73370,NA,A08E8436-9279-4519-84D5-6870898EB6BA,2023-09-27_24h10.57.675,WP_VExplicitOC_HL,2022.2.5,Win32,1.875525147,NA,NA,NA,NA,NA,NA,NA,NA,NA,NA,NA,NA,NA,NA,NA,NA,NA,NA,NA,NA,NA,NA,NA,NA,NA,NA,NA,NA,NA,NA,NA,NA,NA,NA,NA,NA,NA,NA,NA,NA,NA,NA,NA,NA,NA,NA,NA,NA,NA,NA,NA,NA,NA,NA,4,0,4,0,1
SUPAMT73370,NA,A08E8436-9279-4519-84D5-6870898EB6BA,2023-09-27_24h10.57.675,WP_VExplicitOC_HL,2022.2.5,Win32,1.875525147,-72.65625,6.165,2.198,NA,NA,NA,NA,NA,happy,"unhappy, happy","less happy, more happy",NA,NA,NA,NA,NA,NA,NA,NA,NA,NA,NA,NA,NA,NA,NA,NA,NA,NA,NA,NA,NA,NA,NA,NA,NA,NA,NA,NA,NA,NA,NA,NA,NA,NA,NA,NA,NA,NA,0,0,0,0,1,NA,NA,NA,NA,NA
SUPAMT73370,NA,A08E8436-9279-4519-84D5-6870898EB6BA,2023-09-27_24h10.57.675,WP_VExplicitOC_HL,2022.2.5,Win32,1.875525147,-100,5.692,2.308,NA,NA,NA,NA,NA,bored,"bored, not bored","more bored, less bored",NA,NA,NA,NA,NA,NA,NA,NA,NA,NA,NA,NA,NA,NA,NA,NA,NA,NA,NA,NA,NA,NA,NA,NA,NA,NA,NA,NA,NA,NA,NA,NA,NA,NA,NA,NA,NA,NA,0,1,1,2,1,NA,NA,NA,NA,NA
SUPAMT73370,NA,A08E8436-9279-4519-84D5-6870898EB6BA,2023-09-27_24h10.57.675,WP_VExplicitOC_HL,2022.2.5,Win32,1.875525147,-100,5.616,2.222,NA,NA,NA,NA,NA,frustrated,"frustrated, not frustrated","more frustrated, less frustrated",NA,NA,NA,NA,NA,NA,NA,NA,NA,NA,NA,NA,NA,NA,NA,NA,NA,NA,NA,NA,NA,NA,NA,NA,NA,NA,NA,NA,NA,NA,NA,NA,NA,NA,NA,NA,NA,NA,0,2,2,1,1,NA,NA,NA,NA,NA
SUPAMT73370,NA,A08E8436-9279-4519-84D5-6870898EB6BA,2023-09-27_24h10.57.675,WP_VExplicitOC_HL,2022.2.5,Win32,1.875525147,NA,NA,NA,NA,NA,NA,NA,NA,NA,NA,NA,NA,NA,NA,NA,NA,NA,NA,NA,NA,NA,NA,NA,NA,NA,NA,NA,NA,NA,NA,NA,NA,NA,NA,NA,NA,NA,NA,NA,NA,NA,NA,NA,NA,NA,NA,NA,NA,NA,NA,NA,NA,NA,NA,5,0,5,0,1
SUPAMT73370,NA,A08E8436-9279-4519-84D5-6870898EB6BA,2023-09-27_24h10.57.675,WP_VExplicitOC_HL,2022.2.5,Win32,1.875525147,-73.17708333,6.085,2.166,NA,NA,NA,NA,NA,happy,"unhappy, happy","less happy, more happy",NA,NA,NA,NA,NA,NA,NA,NA,NA,NA,NA,NA,NA,NA,NA,NA,NA,NA,NA,NA,NA,NA,NA,NA,NA,NA,NA,NA,NA,NA,NA,NA,NA,NA,NA,NA,NA,NA,0,0,0,0,1,NA,NA,NA,NA,NA
SUPAMT73370,NA,A08E8436-9279-4519-84D5-6870898EB6BA,2023-09-27_24h10.57.675,WP_VExplicitOC_HL,2022.2.5,Win32,1.875525147,-96.61458333,5.626,2.222,NA,NA,NA,NA,NA,frustrated,"frustrated, not frustrated","more frustrated, less frustrated",NA,NA,NA,NA,NA,NA,NA,NA,NA,NA,NA,NA,NA,NA,NA,NA,NA,NA,NA,NA,NA,NA,NA,NA,NA,NA,NA,NA,NA,NA,NA,NA,NA,NA,NA,NA,NA,NA,0,1,1,1,1,NA,NA,NA,NA,NA
SUPAMT73370,NA,A08E8436-9279-4519-84D5-6870898EB6BA,2023-09-27_24h10.57.675,WP_VExplicitOC_HL,2022.2.5,Win32,1.875525147,-98.4375,5.59,2.231,NA,NA,NA,NA,NA,bored,"bored, not bored","more bored, less bored",NA,NA,NA,NA,NA,NA,NA,NA,NA,NA,NA,NA,NA,NA,NA,NA,NA,NA,NA,NA,NA,NA,NA,NA,NA,NA,NA,NA,NA,NA,NA,NA,NA,NA,NA,NA,NA,NA,0,2,2,2,1,NA,NA,NA,NA,NA
SUPAMT73370,NA,A08E8436-9279-4519-84D5-6870898EB6BA,2023-09-27_24h10.57.675,WP_VExplicitOC_HL,2022.2.5,Win32,1.875525147,NA,NA,NA,NA,NA,NA,NA,NA,NA,NA,NA,NA,NA,NA,NA,NA,NA,NA,NA,NA,NA,NA,NA,NA,NA,NA,NA,NA,NA,NA,NA,NA,NA,NA,NA,NA,NA,NA,NA,NA,NA,NA,NA,NA,NA,NA,NA,NA,NA,NA,NA,NA,NA,NA,6,0,6,0,1
SUPAMT73370,NA,A08E8436-9279-4519-84D5-6870898EB6BA,2023-09-27_24h10.57.675,WP_VExplicitOC_HL,2022.2.5,Win32,1.875525147,-89.32291667,6.114,2.172,NA,NA,NA,NA,NA,happy,"unhappy, happy","less happy, more happy",NA,NA,NA,NA,NA,NA,NA,NA,NA,NA,NA,NA,NA,NA,NA,NA,NA,NA,NA,NA,NA,NA,NA,NA,NA,NA,NA,NA,NA,NA,NA,NA,NA,NA,NA,NA,NA,NA,0,0,0,0,1,NA,NA,NA,NA,NA
SUPAMT73370,NA,A08E8436-9279-4519-84D5-6870898EB6BA,2023-09-27_24h10.57.675,WP_VExplicitOC_HL,2022.2.5,Win32,1.875525147,-100,6.229,2.268,NA,NA,NA,NA,NA,frustrated,"frustrated, not frustrated","more frustrated, less frustrated",NA,NA,NA,NA,NA,NA,NA,NA,NA,NA,NA,NA,NA,NA,NA,NA,NA,NA,NA,NA,NA,NA,NA,NA,NA,NA,NA,NA,NA,NA,NA,NA,NA,NA,NA,NA,NA,NA,0,1,1,1,1,NA,NA,NA,NA,NA
SUPAMT73370,NA,A08E8436-9279-4519-84D5-6870898EB6BA,2023-09-27_24h10.57.675,WP_VExplicitOC_HL,2022.2.5,Win32,1.875525147,-100,6.751,2.221,NA,NA,NA,NA,NA,bored,"bored, not bored","more bored, less bored",NA,NA,NA,NA,NA,NA,NA,NA,NA,NA,NA,NA,NA,NA,NA,NA,NA,NA,NA,NA,NA,NA,NA,NA,NA,NA,NA,NA,NA,NA,NA,NA,NA,NA,NA,NA,NA,NA,0,2,2,2,1,NA,NA,NA,NA,NA
SUPAMT73370,NA,A08E8436-9279-4519-84D5-6870898EB6BA,2023-09-27_24h10.57.675,WP_VExplicitOC_HL,2022.2.5,Win32,1.875525147,NA,NA,NA,NA,NA,NA,NA,NA,NA,NA,NA,NA,NA,NA,NA,NA,NA,NA,NA,NA,NA,NA,NA,NA,NA,NA,NA,NA,NA,NA,NA,NA,NA,NA,NA,NA,NA,NA,NA,NA,NA,NA,NA,NA,NA,NA,NA,NA,NA,NA,NA,NA,NA,NA,7,0,7,0,1
SUPAMT73370,NA,A08E8436-9279-4519-84D5-6870898EB6BA,2023-09-27_24h10.57.675,WP_VExplicitOC_HL,2022.2.5,Win32,1.875525147,-85.67708333,6.13,2.243,NA,NA,NA,NA,NA,happy,"unhappy, happy","less happy, more happy",NA,NA,NA,NA,NA,NA,NA,NA,NA,NA,NA,NA,NA,NA,NA,NA,NA,NA,NA,NA,NA,NA,NA,NA,NA,NA,NA,NA,NA,NA,NA,NA,NA,NA,NA,NA,NA,NA,0,0,0,0,1,NA,NA,NA,NA,NA
SUPAMT73370,NA,A08E8436-9279-4519-84D5-6870898EB6BA,2023-09-27_24h10.57.675,WP_VExplicitOC_HL,2022.2.5,Win32,1.875525147,-100,6.205,2.248,NA,NA,NA,NA,NA,frustrated,"frustrated, not frustrated","more frustrated, less frustrated",NA,NA,NA,NA,NA,NA,NA,NA,NA,NA,NA,NA,NA,NA,NA,NA,NA,NA,NA,NA,NA,NA,NA,NA,NA,NA,NA,NA,NA,NA,NA,NA,NA,NA,NA,NA,NA,NA,0,1,1,1,1,NA,NA,NA,NA,NA
SUPAMT73370,NA,A08E8436-9279-4519-84D5-6870898EB6BA,2023-09-27_24h10.57.675,WP_VExplicitOC_HL,2022.2.5,Win32,1.875525147,NA,NA,2.22,NA,NA,NA,NA,NA,bored,"bored, not bored","more bored, less bored",NA,NA,NA,NA,NA,NA,NA,NA,NA,NA,NA,NA,NA,NA,NA,NA,NA,NA,NA,NA,NA,NA,NA,NA,NA,NA,NA,NA,NA,NA,NA,NA,NA,NA,NA,NA,NA,NA,0,2,2,2,1,NA,NA,NA,NA,NA
SUPAMT73370,NA,A08E8436-9279-4519-84D5-6870898EB6BA,2023-09-27_24h10.57.675,WP_VExplicitOC_HL,2022.2.5,Win32,1.875525147,NA,NA,NA,NA,NA,NA,NA,NA,NA,NA,NA,NA,NA,NA,NA,NA,NA,NA,NA,NA,NA,NA,NA,NA,NA,NA,NA,NA,NA,NA,NA,NA,NA,NA,NA,NA,NA,NA,NA,NA,NA,NA,NA,NA,NA,NA,NA,NA,NA,NA,NA,NA,NA,NA,8,0,8,0,1
SUPAMT73370,NA,A08E8436-9279-4519-84D5-6870898EB6BA,2023-09-27_24h10.57.675,WP_VExplicitOC_HL,2022.2.5,Win32,1.875525147,-100,6.174,2.224,NA,NA,NA,NA,NA,bored,"bored, not bored","more bored, less bored",NA,NA,NA,NA,NA,NA,NA,NA,NA,NA,NA,NA,NA,NA,NA,NA,NA,NA,NA,NA,NA,NA,NA,NA,NA,NA,NA,NA,NA,NA,NA,NA,NA,NA,NA,NA,NA,NA,0,0,0,2,1,NA,NA,NA,NA,NA
SUPAMT73370,NA,A08E8436-9279-4519-84D5-6870898EB6BA,2023-09-27_24h10.57.675,WP_VExplicitOC_HL,2022.2.5,Win32,1.875525147,-96.09375,6.133,2.205,NA,NA,NA,NA,NA,happy,"unhappy, happy","less happy, more happy",NA,NA,NA,NA,NA,NA,NA,NA,NA,NA,NA,NA,NA,NA,NA,NA,NA,NA,NA,NA,NA,NA,NA,NA,NA,NA,NA,NA,NA,NA,NA,NA,NA,NA,NA,NA,NA,NA,0,1,1,0,1,NA,NA,NA,NA,NA
SUPAMT73370,NA,A08E8436-9279-4519-84D5-6870898EB6BA,2023-09-27_24h10.57.675,WP_VExplicitOC_HL,2022.2.5,Win32,1.875525147,-100,6.128,2.208,NA,NA,NA,NA,NA,frustrated,"frustrated, not frustrated","more frustrated, less frustrated",NA,NA,NA,NA,NA,NA,NA,NA,NA,NA,NA,NA,NA,NA,NA,NA,NA,NA,NA,NA,NA,NA,NA,NA,NA,NA,NA,NA,NA,NA,NA,NA,NA,NA,NA,NA,NA,NA,0,2,2,1,1,NA,NA,NA,NA,NA
SUPAMT73370,NA,A08E8436-9279-4519-84D5-6870898EB6BA,2023-09-27_24h10.57.675,WP_VExplicitOC_HL,2022.2.5,Win32,1.875525147,NA,NA,NA,NA,NA,NA,NA,NA,NA,NA,NA,NA,NA,NA,NA,NA,NA,NA,NA,NA,NA,NA,NA,NA,NA,NA,NA,NA,NA,NA,NA,NA,NA,NA,NA,NA,NA,NA,NA,NA,NA,NA,NA,NA,NA,NA,NA,NA,NA,NA,NA,NA,NA,NA,9,0,9,0,1
SUPAMT73370,NA,A08E8436-9279-4519-84D5-6870898EB6BA,2023-09-27_24h10.57.675,WP_VExplicitOC_HL,2022.2.5,Win32,1.875525147,-99.47916667,6.119,2.172,NA,NA,NA,NA,NA,bored,"bored, not bored","more bored, less bored",NA,NA,NA,NA,NA,NA,NA,NA,NA,NA,NA,NA,NA,NA,NA,NA,NA,NA,NA,NA,NA,NA,NA,NA,NA,NA,NA,NA,NA,NA,NA,NA,NA,NA,NA,NA,NA,NA,0,0,0,2,1,NA,NA,NA,NA,NA
SUPAMT73370,NA,A08E8436-9279-4519-84D5-6870898EB6BA,2023-09-27_24h10.57.675,WP_VExplicitOC_HL,2022.2.5,Win32,1.875525147,-99.73958333,6.196,2.236,NA,NA,NA,NA,NA,frustrated,"frustrated, not frustrated","more frustrated, less frustrated",NA,NA,NA,NA,NA,NA,NA,NA,NA,NA,NA,NA,NA,NA,NA,NA,NA,NA,NA,NA,NA,NA,NA,NA,NA,NA,NA,NA,NA,NA,NA,NA,NA,NA,NA,NA,NA,NA,0,1,1,1,1,NA,NA,NA,NA,NA
SUPAMT73370,NA,A08E8436-9279-4519-84D5-6870898EB6BA,2023-09-27_24h10.57.675,WP_VExplicitOC_HL,2022.2.5,Win32,1.875525147,-95.05208333,6.774,2.287,NA,NA,NA,NA,NA,happy,"unhappy, happy","less happy, more happy",NA,NA,NA,NA,NA,NA,NA,NA,NA,NA,NA,NA,NA,NA,NA,NA,NA,NA,NA,NA,NA,NA,NA,NA,NA,NA,NA,NA,NA,NA,NA,NA,NA,NA,NA,NA,NA,NA,0,2,2,0,1,NA,NA,NA,NA,NA
SUPAMT73370,NA,A08E8436-9279-4519-84D5-6870898EB6BA,2023-09-27_24h10.57.675,WP_VExplicitOC_HL,2022.2.5,Win32,1.875525147,NA,NA,NA,NA,NA,NA,NA,NA,NA,NA,NA,NA,NA,NA,NA,NA,NA,NA,NA,NA,NA,NA,NA,NA,NA,NA,NA,NA,NA,NA,NA,NA,NA,NA,NA,NA,NA,NA,NA,NA,NA,NA,NA,NA,NA,NA,NA,NA,NA,NA,NA,NA,NA,NA,10,0,10,0,1
SUPAMT73370,NA,A08E8436-9279-4519-84D5-6870898EB6BA,2023-09-27_24h10.57.675,WP_VExplicitOC_HL,2022.2.5,Win32,1.875525147,-95.83333333,6.706,2.183,NA,NA,NA,NA,NA,happy,"unhappy, happy","less happy, more happy",NA,NA,NA,NA,NA,NA,NA,NA,NA,NA,NA,NA,NA,NA,NA,NA,NA,NA,NA,NA,NA,NA,NA,NA,NA,NA,NA,NA,NA,NA,NA,NA,NA,NA,NA,NA,NA,NA,0,0,0,0,1,NA,NA,NA,NA,NA
SUPAMT73370,NA,A08E8436-9279-4519-84D5-6870898EB6BA,2023-09-27_24h10.57.675,WP_VExplicitOC_HL,2022.2.5,Win32,1.875525147,-100,6.152,2.209,NA,NA,NA,NA,NA,bored,"bored, not bored","more bored, less bored",NA,NA,NA,NA,NA,NA,NA,NA,NA,NA,NA,NA,NA,NA,NA,NA,NA,NA,NA,NA,NA,NA,NA,NA,NA,NA,NA,NA,NA,NA,NA,NA,NA,NA,NA,NA,NA,NA,0,1,1,2,1,NA,NA,NA,NA,NA
SUPAMT73370,NA,A08E8436-9279-4519-84D5-6870898EB6BA,2023-09-27_24h10.57.675,WP_VExplicitOC_HL,2022.2.5,Win32,1.875525147,-100,7.288,2.22,NA,NA,NA,NA,NA,frustrated,"frustrated, not frustrated","more frustrated, less frustrated",NA,NA,NA,NA,NA,NA,NA,NA,NA,NA,NA,NA,NA,NA,NA,NA,NA,NA,NA,NA,NA,NA,NA,NA,NA,NA,NA,NA,NA,NA,NA,NA,NA,NA,NA,NA,NA,NA,0,2,2,1,1,NA,NA,NA,NA,NA
SUPAMT73370,NA,A08E8436-9279-4519-84D5-6870898EB6BA,2023-09-27_24h10.57.675,WP_VExplicitOC_HL,2022.2.5,Win32,1.875525147,NA,NA,NA,NA,NA,NA,NA,NA,NA,NA,NA,NA,NA,NA,NA,NA,NA,NA,NA,NA,NA,NA,NA,NA,NA,NA,NA,NA,NA,NA,NA,NA,NA,NA,NA,NA,NA,NA,NA,NA,NA,NA,NA,NA,NA,NA,NA,NA,NA,NA,NA,NA,NA,NA,11,0,11,0,1
SUPAMT73370,NA,A08E8436-9279-4519-84D5-6870898EB6BA,2023-09-27_24h10.57.675,WP_VExplicitOC_HL,2022.2.5,Win32,1.875525147,-94.79166667,6.162,2.23,NA,NA,NA,NA,NA,happy,"unhappy, happy","less happy, more happy",NA,NA,NA,NA,NA,NA,NA,NA,NA,NA,NA,NA,NA,NA,NA,NA,NA,NA,NA,NA,NA,NA,NA,NA,NA,NA,NA,NA,NA,NA,NA,NA,NA,NA,NA,NA,NA,NA,0,0,0,0,1,NA,NA,NA,NA,NA
SUPAMT73370,NA,A08E8436-9279-4519-84D5-6870898EB6BA,2023-09-27_24h10.57.675,WP_VExplicitOC_HL,2022.2.5,Win32,1.875525147,-100,6.742,2.263,NA,NA,NA,NA,NA,bored,"bored, not bored","more bored, less bored",NA,NA,NA,NA,NA,NA,NA,NA,NA,NA,NA,NA,NA,NA,NA,NA,NA,NA,NA,NA,NA,NA,NA,NA,NA,NA,NA,NA,NA,NA,NA,NA,NA,NA,NA,NA,NA,NA,0,1,1,2,1,NA,NA,NA,NA,NA
SUPAMT73370,NA,A08E8436-9279-4519-84D5-6870898EB6BA,2023-09-27_24h10.57.675,WP_VExplicitOC_HL,2022.2.5,Win32,1.875525147,-100,7.306,2.244,NA,NA,NA,NA,NA,frustrated,"frustrated, not frustrated","more frustrated, less frustrated",NA,NA,NA,NA,NA,NA,NA,NA,NA,NA,NA,NA,NA,NA,NA,NA,NA,NA,NA,NA,NA,NA,NA,NA,NA,NA,NA,NA,NA,NA,NA,NA,NA,NA,NA,NA,NA,NA,0,2,2,1,1,NA,NA,NA,NA,NA
SUPAMT73370,NA,A08E8436-9279-4519-84D5-6870898EB6BA,2023-09-27_24h10.57.675,WP_VExplicitOC_HL,2022.2.5,Win32,1.875525147,NA,NA,NA,NA,NA,NA,NA,NA,NA,NA,NA,NA,NA,NA,NA,NA,NA,NA,NA,NA,NA,NA,NA,NA,NA,NA,NA,NA,NA,NA,NA,NA,NA,NA,NA,NA,NA,NA,NA,NA,NA,NA,NA,NA,NA,NA,NA,NA,NA,NA,NA,NA,NA,NA,12,0,12,0,1
SUPAMT73370,NA,A08E8436-9279-4519-84D5-6870898EB6BA,2023-09-27_24h10.57.675,WP_VExplicitOC_HL,2022.2.5,Win32,1.875525147,-94.27083333,6.114,2.191,NA,NA,NA,NA,NA,happy,"unhappy, happy","less happy, more happy",NA,NA,NA,NA,NA,NA,NA,NA,NA,NA,NA,NA,NA,NA,NA,NA,NA,NA,NA,NA,NA,NA,NA,NA,NA,NA,NA,NA,NA,NA,NA,NA,NA,NA,NA,NA,NA,NA,0,0,0,0,1,NA,NA,NA,NA,NA
SUPAMT73370,NA,A08E8436-9279-4519-84D5-6870898EB6BA,2023-09-27_24h10.57.675,WP_VExplicitOC_HL,2022.2.5,Win32,1.875525147,-95.3125,6.184,2.261,NA,NA,NA,NA,NA,frustrated,"frustrated, not frustrated","more frustrated, less frustrated",NA,NA,NA,NA,NA,NA,NA,NA,NA,NA,NA,NA,NA,NA,NA,NA,NA,NA,NA,NA,NA,NA,NA,NA,NA,NA,NA,NA,NA,NA,NA,NA,NA,NA,NA,NA,NA,NA,0,1,1,1,1,NA,NA,NA,NA,NA
SUPAMT73370,NA,A08E8436-9279-4519-84D5-6870898EB6BA,2023-09-27_24h10.57.675,WP_VExplicitOC_HL,2022.2.5,Win32,1.875525147,-100,7.308,2.24,NA,NA,NA,NA,NA,bored,"bored, not bored","more bored, less bored",NA,NA,NA,NA,NA,NA,NA,NA,NA,NA,NA,NA,NA,NA,NA,NA,NA,NA,NA,NA,NA,NA,NA,NA,NA,NA,NA,NA,NA,NA,NA,NA,NA,NA,NA,NA,NA,NA,0,2,2,2,1,NA,NA,NA,NA,NA
SUPAMT73370,NA,A08E8436-9279-4519-84D5-6870898EB6BA,2023-09-27_24h10.57.675,WP_VExplicitOC_HL,2022.2.5,Win32,1.875525147,NA,NA,NA,NA,NA,NA,NA,NA,NA,NA,NA,NA,NA,NA,NA,NA,NA,NA,NA,NA,NA,NA,NA,NA,NA,NA,NA,NA,NA,NA,NA,NA,NA,NA,NA,NA,NA,NA,NA,NA,NA,NA,NA,NA,NA,NA,NA,NA,NA,NA,NA,NA,NA,NA,13,0,13,0,1
SUPAMT73370,NA,A08E8436-9279-4519-84D5-6870898EB6BA,2023-09-27_24h10.57.675,WP_VExplicitOC_HL,2022.2.5,Win32,1.875525147,-100,6.206,2.18,NA,NA,NA,NA,NA,frustrated,"frustrated, not frustrated","more frustrated, less frustrated",NA,NA,NA,NA,NA,NA,NA,NA,NA,NA,NA,NA,NA,NA,NA,NA,NA,NA,NA,NA,NA,NA,NA,NA,NA,NA,NA,NA,NA,NA,NA,NA,NA,NA,NA,NA,NA,NA,0,0,0,1,1,NA,NA,NA,NA,NA
SUPAMT73370,NA,A08E8436-9279-4519-84D5-6870898EB6BA,2023-09-27_24h10.57.675,WP_VExplicitOC_HL,2022.2.5,Win32,1.875525147,-100,6.164,2.26,NA,NA,NA,NA,NA,bored,"bored, not bored","more bored, less bored",NA,NA,NA,NA,NA,NA,NA,NA,NA,NA,NA,NA,NA,NA,NA,NA,NA,NA,NA,NA,NA,NA,NA,NA,NA,NA,NA,NA,NA,NA,NA,NA,NA,NA,NA,NA,NA,NA,0,1,1,2,1,NA,NA,NA,NA,NA
SUPAMT73370,NA,A08E8436-9279-4519-84D5-6870898EB6BA,2023-09-27_24h10.57.675,WP_VExplicitOC_HL,2022.2.5,Win32,1.875525147,-92.1875,6.15,2.239,NA,NA,NA,NA,NA,happy,"unhappy, happy","less happy, more happy",NA,NA,NA,NA,NA,NA,NA,NA,NA,NA,NA,NA,NA,NA,NA,NA,NA,NA,NA,NA,NA,NA,NA,NA,NA,NA,NA,NA,NA,NA,NA,NA,NA,NA,NA,NA,NA,NA,0,2,2,0,1,NA,NA,NA,NA,NA
SUPAMT73370,NA,A08E8436-9279-4519-84D5-6870898EB6BA,2023-09-27_24h10.57.675,WP_VExplicitOC_HL,2022.2.5,Win32,1.875525147,NA,NA,NA,NA,NA,NA,NA,NA,NA,NA,NA,NA,NA,NA,NA,NA,NA,NA,NA,NA,NA,NA,NA,NA,NA,NA,NA,NA,NA,NA,NA,NA,NA,NA,NA,NA,NA,NA,NA,NA,NA,NA,NA,NA,NA,NA,NA,NA,NA,NA,NA,NA,NA,NA,14,0,14,0,1
SUPAMT73370,NA,A08E8436-9279-4519-84D5-6870898EB6BA,2023-09-27_24h10.57.675,WP_VExplicitOC_HL,2022.2.5,Win32,1.875525147,NA,NA,NA,NA,NA,NA,NA,NA,NA,NA,NA,NA,NA,NA,NA,NA,NA,NA,NA,NA,NA,NA,NA,NA,NA,NA,NA,NA,NA,NA,NA,NA,NA,NA,NA,NA,NA,NA,NA,NA,NA,NA,NA,NA,NA,NA,NA,NA,NA,NA,NA,NA,NA,NA,NA,NA,NA,NA,NA
