participant,session,completion,date,expName,psychopyVersion,OS,frameRate,rating_all.response,rating_all.rt,rating_all.tStart,rndRat1.thisRepN,rndRat1.thisTrialN,rndRat1.thisN,rndRat1.thisIndex,rndRat1.ran,Emo,Labs,Labs2,rating_alt.response,rating_alt.rt,AltC.thisRepN,AltC.thisTrialN,AltC.thisN,AltC.thisIndex,AltC.ran,alt_choices,pic_choices,BottomAlt_Choice,rndRat2.thisRepN,rndRat2.thisTrialN,rndRat2.thisN,rndRat2.thisIndex,rndRat2.ran,rndRat3.thisRepN,rndRat3.thisTrialN,rndRat3.thisN,rndRat3.thisIndex,rndRat3.ran,trials_FC_L.thisRepN,trials_FC_L.thisTrialN,trials_FC_L.thisN,trials_FC_L.thisIndex,trials_FC_L.ran,rating_alt_2.response,rating_alt_2.rt,AltC2.thisRepN,AltC2.thisTrialN,AltC2.thisN,AltC2.thisIndex,AltC2.ran,TopAlt_Choice,rndRat4.thisRepN,rndRat4.thisTrialN,rndRat4.thisN,rndRat4.thisIndex,rndRat4.ran,rndRat5.thisRepN,rndRat5.thisTrialN,rndRat5.thisN,rndRat5.thisIndex,rndRat5.ran,trials_FC_H.thisRepN,trials_FC_H.thisTrialN,trials_FC_H.thisN,trials_FC_H.thisIndex,trials_FC_H.ran
SUPAMT86355,3EFVCAY5L9833208Z9JZ1JDUC3G8J4,C6F5F409-9176-4488-83A1-0771710954C1,2023-09-28_10h07.33.849,WP_VExplicitOC_LH,2022.2.5,Win32,10.66666667,NA,NA,NA,NA,NA,NA,NA,NA,NA,NA,NA,NA,NA,NA,NA,NA,NA,NA,NA,NA,NA,NA,NA,NA,NA,NA,NA,NA,NA,NA,NA,NA,NA,NA,NA,NA,NA,NA,NA,NA,NA,NA,NA,NA,NA,NA,NA,NA,NA,NA,NA,NA,NA,NA,NA,NA,NA,NA,NA
SUPAMT86355,3EFVCAY5L9833208Z9JZ1JDUC3G8J4,C6F5F409-9176-4488-83A1-0771710954C1,2023-09-28_10h07.33.849,WP_VExplicitOC_LH,2022.2.5,Win32,10.66666667,NA,NA,NA,NA,NA,NA,NA,NA,NA,NA,NA,NA,NA,NA,NA,NA,NA,NA,NA,NA,NA,NA,NA,NA,NA,NA,NA,NA,NA,NA,NA,NA,NA,NA,NA,NA,NA,NA,NA,NA,NA,NA,NA,NA,NA,NA,NA,NA,NA,NA,NA,NA,NA,NA,NA,NA,NA,NA,NA
SUPAMT86355,3EFVCAY5L9833208Z9JZ1JDUC3G8J4,C6F5F409-9176-4488-83A1-0771710954C1,2023-09-28_10h07.33.849,WP_VExplicitOC_LH,2022.2.5,Win32,10.66666667,NA,NA,NA,NA,NA,NA,NA,NA,NA,NA,NA,NA,NA,NA,NA,NA,NA,NA,NA,NA,NA,NA,NA,NA,NA,NA,NA,NA,NA,NA,NA,NA,NA,NA,NA,NA,NA,NA,NA,NA,NA,NA,NA,NA,NA,NA,NA,NA,NA,NA,NA,NA,NA,NA,NA,NA,NA,NA,NA
SUPAMT86355,3EFVCAY5L9833208Z9JZ1JDUC3G8J4,C6F5F409-9176-4488-83A1-0771710954C1,2023-09-28_10h07.33.849,WP_VExplicitOC_LH,2022.2.5,Win32,10.66666667,NA,NA,2.143,0,0,0,2,1,bored,"bored, not bored","more bored, less bored",NA,NA,NA,NA,NA,NA,NA,NA,NA,NA,NA,NA,NA,NA,NA,NA,NA,NA,NA,NA,NA,NA,NA,NA,NA,NA,NA,NA,NA,NA,NA,NA,NA,NA,NA,NA,NA,NA,NA,NA,NA,NA,NA,NA,NA,NA,NA,NA
SUPAMT86355,3EFVCAY5L9833208Z9JZ1JDUC3G8J4,C6F5F409-9176-4488-83A1-0771710954C1,2023-09-28_10h07.33.849,WP_VExplicitOC_LH,2022.2.5,Win32,10.66666667,64.32291667,3.736,2.106,0,1,1,0,1,happy,"unhappy, happy","less happy, more happy",NA,NA,NA,NA,NA,NA,NA,NA,NA,NA,NA,NA,NA,NA,NA,NA,NA,NA,NA,NA,NA,NA,NA,NA,NA,NA,NA,NA,NA,NA,NA,NA,NA,NA,NA,NA,NA,NA,NA,NA,NA,NA,NA,NA,NA,NA,NA,NA
SUPAMT86355,3EFVCAY5L9833208Z9JZ1JDUC3G8J4,C6F5F409-9176-4488-83A1-0771710954C1,2023-09-28_10h07.33.849,WP_VExplicitOC_LH,2022.2.5,Win32,10.66666667,-62.23958333,4.501,2.113,0,2,2,1,1,frustrated,"frustrated, not frustrated","more frustrated, less frustrated",NA,NA,NA,NA,NA,NA,NA,NA,NA,NA,NA,NA,NA,NA,NA,NA,NA,NA,NA,NA,NA,NA,NA,NA,NA,NA,NA,NA,NA,NA,NA,NA,NA,NA,NA,NA,NA,NA,NA,NA,NA,NA,NA,NA,NA,NA,NA,NA
SUPAMT86355,3EFVCAY5L9833208Z9JZ1JDUC3G8J4,C6F5F409-9176-4488-83A1-0771710954C1,2023-09-28_10h07.33.849,WP_VExplicitOC_LH,2022.2.5,Win32,10.66666667,NA,NA,NA,NA,NA,NA,NA,NA,NA,NA,NA,NA,NA,NA,NA,NA,NA,NA,NA,NA,NA,NA,NA,NA,NA,NA,NA,NA,NA,NA,NA,NA,NA,NA,NA,NA,NA,NA,NA,NA,NA,NA,NA,NA,NA,NA,NA,NA,NA,NA,NA,NA,NA,NA,NA,NA,NA,NA,NA
SUPAMT86355,3EFVCAY5L9833208Z9JZ1JDUC3G8J4,C6F5F409-9176-4488-83A1-0771710954C1,2023-09-28_10h07.33.849,WP_VExplicitOC_LH,2022.2.5,Win32,10.66666667,NA,NA,NA,NA,NA,NA,NA,NA,NA,NA,NA,NA,NA,NA,NA,NA,NA,NA,NA,NA,NA,NA,NA,NA,NA,NA,NA,NA,NA,NA,NA,NA,NA,NA,NA,NA,NA,NA,NA,NA,NA,NA,NA,NA,NA,NA,NA,NA,NA,NA,NA,NA,NA,NA,NA,NA,NA,NA,NA
SUPAMT86355,3EFVCAY5L9833208Z9JZ1JDUC3G8J4,C6F5F409-9176-4488-83A1-0771710954C1,2023-09-28_10h07.33.849,WP_VExplicitOC_LH,2022.2.5,Win32,10.66666667,NA,NA,NA,NA,NA,NA,NA,NA,NA,NA,NA,NA,NA,NA,NA,NA,NA,NA,NA,NA,NA,NA,NA,NA,NA,NA,NA,NA,NA,NA,NA,NA,NA,NA,NA,NA,NA,NA,NA,NA,NA,NA,NA,NA,NA,NA,NA,NA,NA,NA,NA,NA,NA,NA,NA,NA,NA,NA,NA
SUPAMT86355,3EFVCAY5L9833208Z9JZ1JDUC3G8J4,C6F5F409-9176-4488-83A1-0771710954C1,2023-09-28_10h07.33.849,WP_VExplicitOC_LH,2022.2.5,Win32,10.66666667,NA,NA,NA,NA,NA,NA,NA,NA,NA,NA,NA,NA,NA,NA,NA,NA,NA,NA,NA,NA,NA,NA,NA,NA,NA,NA,NA,NA,NA,NA,NA,NA,NA,NA,NA,NA,NA,NA,NA,NA,NA,NA,NA,NA,NA,NA,NA,NA,NA,NA,NA,NA,NA,NA,NA,NA,NA,NA,NA
SUPAMT86355,3EFVCAY5L9833208Z9JZ1JDUC3G8J4,C6F5F409-9176-4488-83A1-0771710954C1,2023-09-28_10h07.33.849,WP_VExplicitOC_LH,2022.2.5,Win32,10.66666667,NA,NA,NA,NA,NA,NA,NA,NA,NA,NA,NA,64.0625,4.796,0,0,0,0,1,rest (looking at a fixed cross),001.png,NA,NA,NA,NA,NA,NA,NA,NA,NA,NA,NA,NA,NA,NA,NA,NA,NA,NA,NA,NA,NA,NA,NA,NA,NA,NA,NA,NA,NA,NA,NA,NA,NA,NA,NA,NA,NA,NA,NA
SUPAMT86355,3EFVCAY5L9833208Z9JZ1JDUC3G8J4,C6F5F409-9176-4488-83A1-0771710954C1,2023-09-28_10h07.33.849,WP_VExplicitOC_LH,2022.2.5,Win32,10.66666667,NA,NA,NA,NA,NA,NA,NA,NA,NA,NA,NA,82.29166667,2.872,0,1,1,1,1,stand up,002.png,NA,NA,NA,NA,NA,NA,NA,NA,NA,NA,NA,NA,NA,NA,NA,NA,NA,NA,NA,NA,NA,NA,NA,NA,NA,NA,NA,NA,NA,NA,NA,NA,NA,NA,NA,NA,NA,NA,NA
SUPAMT86355,3EFVCAY5L9833208Z9JZ1JDUC3G8J4,C6F5F409-9176-4488-83A1-0771710954C1,2023-09-28_10h07.33.849,WP_VExplicitOC_LH,2022.2.5,Win32,10.66666667,NA,NA,NA,NA,NA,NA,NA,NA,NA,NA,NA,78.90625,3.031,0,2,2,2,1,stretch,003.png,NA,NA,NA,NA,NA,NA,NA,NA,NA,NA,NA,NA,NA,NA,NA,NA,NA,NA,NA,NA,NA,NA,NA,NA,NA,NA,NA,NA,NA,NA,NA,NA,NA,NA,NA,NA,NA,NA,NA
SUPAMT86355,3EFVCAY5L9833208Z9JZ1JDUC3G8J4,C6F5F409-9176-4488-83A1-0771710954C1,2023-09-28_10h07.33.849,WP_VExplicitOC_LH,2022.2.5,Win32,10.66666667,NA,NA,NA,NA,NA,NA,NA,NA,NA,NA,NA,87.76041667,3.283,0,3,3,3,1,make a drink,004.png,NA,NA,NA,NA,NA,NA,NA,NA,NA,NA,NA,NA,NA,NA,NA,NA,NA,NA,NA,NA,NA,NA,NA,NA,NA,NA,NA,NA,NA,NA,NA,NA,NA,NA,NA,NA,NA,NA,NA
SUPAMT86355,3EFVCAY5L9833208Z9JZ1JDUC3G8J4,C6F5F409-9176-4488-83A1-0771710954C1,2023-09-28_10h07.33.849,WP_VExplicitOC_LH,2022.2.5,Win32,10.66666667,NA,NA,NA,NA,NA,NA,NA,NA,NA,NA,NA,58.85416667,4.326,0,4,4,4,1,scroll social media,005.png,NA,NA,NA,NA,NA,NA,NA,NA,NA,NA,NA,NA,NA,NA,NA,NA,NA,NA,NA,NA,NA,NA,NA,NA,NA,NA,NA,NA,NA,NA,NA,NA,NA,NA,NA,NA,NA,NA,NA
SUPAMT86355,3EFVCAY5L9833208Z9JZ1JDUC3G8J4,C6F5F409-9176-4488-83A1-0771710954C1,2023-09-28_10h07.33.849,WP_VExplicitOC_LH,2022.2.5,Win32,10.66666667,NA,NA,NA,NA,NA,NA,NA,NA,NA,NA,NA,38.80208333,2.453,0,5,5,5,1,listen to music,006.png,NA,NA,NA,NA,NA,NA,NA,NA,NA,NA,NA,NA,NA,NA,NA,NA,NA,NA,NA,NA,NA,NA,NA,NA,NA,NA,NA,NA,NA,NA,NA,NA,NA,NA,NA,NA,NA,NA,NA
SUPAMT86355,3EFVCAY5L9833208Z9JZ1JDUC3G8J4,C6F5F409-9176-4488-83A1-0771710954C1,2023-09-28_10h07.33.849,WP_VExplicitOC_LH,2022.2.5,Win32,10.66666667,NA,NA,NA,NA,NA,NA,NA,NA,NA,NA,NA,25.52083333,1.785,0,6,6,6,1,daydream,007.png,NA,NA,NA,NA,NA,NA,NA,NA,NA,NA,NA,NA,NA,NA,NA,NA,NA,NA,NA,NA,NA,NA,NA,NA,NA,NA,NA,NA,NA,NA,NA,NA,NA,NA,NA,NA,NA,NA,NA
SUPAMT86355,3EFVCAY5L9833208Z9JZ1JDUC3G8J4,C6F5F409-9176-4488-83A1-0771710954C1,2023-09-28_10h07.33.849,WP_VExplicitOC_LH,2022.2.5,Win32,10.66666667,NA,NA,NA,NA,NA,NA,NA,NA,NA,NA,NA,85.67708333,2.339,0,7,7,7,1,watch a short animation,008.png,NA,NA,NA,NA,NA,NA,NA,NA,NA,NA,NA,NA,NA,NA,NA,NA,NA,NA,NA,NA,NA,NA,NA,NA,NA,NA,NA,NA,NA,NA,NA,NA,NA,NA,NA,NA,NA,NA,NA
SUPAMT86355,3EFVCAY5L9833208Z9JZ1JDUC3G8J4,C6F5F409-9176-4488-83A1-0771710954C1,2023-09-28_10h07.33.849,WP_VExplicitOC_LH,2022.2.5,Win32,10.66666667,NA,NA,NA,NA,NA,NA,NA,NA,NA,NA,NA,76.30208333,1.328,0,8,8,8,1,read a novel,009.png,NA,NA,NA,NA,NA,NA,NA,NA,NA,NA,NA,NA,NA,NA,NA,NA,NA,NA,NA,NA,NA,NA,NA,NA,NA,NA,NA,NA,NA,NA,NA,NA,NA,NA,NA,NA,NA,NA,NA
SUPAMT86355,3EFVCAY5L9833208Z9JZ1JDUC3G8J4,C6F5F409-9176-4488-83A1-0771710954C1,2023-09-28_10h07.33.849,WP_VExplicitOC_LH,2022.2.5,Win32,10.66666667,NA,NA,NA,NA,NA,NA,NA,NA,NA,NA,NA,76.82291667,1.009,0,9,9,9,1,read the news,010.png,NA,NA,NA,NA,NA,NA,NA,NA,NA,NA,NA,NA,NA,NA,NA,NA,NA,NA,NA,NA,NA,NA,NA,NA,NA,NA,NA,NA,NA,NA,NA,NA,NA,NA,NA,NA,NA,NA,NA
SUPAMT86355,3EFVCAY5L9833208Z9JZ1JDUC3G8J4,C6F5F409-9176-4488-83A1-0771710954C1,2023-09-28_10h07.33.849,WP_VExplicitOC_LH,2022.2.5,Win32,10.66666667,NA,NA,NA,NA,NA,NA,NA,NA,NA,NA,NA,NA,NA,NA,NA,NA,NA,NA,NA,NA,NA,NA,NA,NA,NA,NA,NA,NA,NA,NA,NA,NA,NA,NA,NA,NA,NA,NA,NA,NA,NA,NA,NA,NA,NA,NA,NA,NA,NA,NA,NA,NA,NA,NA,NA,NA,NA,NA,NA
SUPAMT86355,3EFVCAY5L9833208Z9JZ1JDUC3G8J4,C6F5F409-9176-4488-83A1-0771710954C1,2023-09-28_10h07.33.849,WP_VExplicitOC_LH,2022.2.5,Win32,10.66666667,NA,NA,NA,NA,NA,NA,NA,NA,NA,NA,NA,NA,NA,NA,NA,NA,NA,NA,NA,NA,daydream,NA,NA,NA,NA,NA,NA,NA,NA,NA,NA,NA,NA,NA,NA,NA,NA,NA,NA,NA,NA,NA,NA,NA,NA,NA,NA,NA,NA,NA,NA,NA,NA,NA,NA,NA,NA,NA,NA
SUPAMT86355,3EFVCAY5L9833208Z9JZ1JDUC3G8J4,C6F5F409-9176-4488-83A1-0771710954C1,2023-09-28_10h07.33.849,WP_VExplicitOC_LH,2022.2.5,Win32,10.66666667,-62.23958333,4.465,2.063,NA,NA,NA,NA,NA,frustrated,"frustrated, not frustrated","more frustrated, less frustrated",NA,NA,NA,NA,NA,NA,NA,NA,NA,NA,0,0,0,1,1,NA,NA,NA,NA,NA,NA,NA,NA,NA,NA,NA,NA,NA,NA,NA,NA,NA,NA,NA,NA,NA,NA,NA,NA,NA,NA,NA,NA,NA,NA,NA,NA,NA
SUPAMT86355,3EFVCAY5L9833208Z9JZ1JDUC3G8J4,C6F5F409-9176-4488-83A1-0771710954C1,2023-09-28_10h07.33.849,WP_VExplicitOC_LH,2022.2.5,Win32,10.66666667,86.45833333,5.556,2,NA,NA,NA,NA,NA,happy,"unhappy, happy","less happy, more happy",NA,NA,NA,NA,NA,NA,NA,NA,NA,NA,0,1,1,0,1,NA,NA,NA,NA,NA,NA,NA,NA,NA,NA,NA,NA,NA,NA,NA,NA,NA,NA,NA,NA,NA,NA,NA,NA,NA,NA,NA,NA,NA,NA,NA,NA,NA
SUPAMT86355,3EFVCAY5L9833208Z9JZ1JDUC3G8J4,C6F5F409-9176-4488-83A1-0771710954C1,2023-09-28_10h07.33.849,WP_VExplicitOC_LH,2022.2.5,Win32,10.66666667,-67.70833333,4.277,2.16,NA,NA,NA,NA,NA,bored,"bored, not bored","more bored, less bored",NA,NA,NA,NA,NA,NA,NA,NA,NA,NA,0,2,2,2,1,NA,NA,NA,NA,NA,NA,NA,NA,NA,NA,NA,NA,NA,NA,NA,NA,NA,NA,NA,NA,NA,NA,NA,NA,NA,NA,NA,NA,NA,NA,NA,NA,NA
SUPAMT86355,3EFVCAY5L9833208Z9JZ1JDUC3G8J4,C6F5F409-9176-4488-83A1-0771710954C1,2023-09-28_10h07.33.849,WP_VExplicitOC_LH,2022.2.5,Win32,10.66666667,NA,NA,NA,NA,NA,NA,NA,NA,NA,NA,NA,NA,NA,NA,NA,NA,NA,NA,NA,NA,NA,NA,NA,NA,NA,NA,NA,NA,NA,NA,NA,NA,NA,NA,NA,NA,NA,NA,NA,NA,NA,NA,NA,NA,NA,NA,NA,NA,NA,NA,NA,NA,NA,NA,NA,NA,NA,NA,NA
SUPAMT86355,3EFVCAY5L9833208Z9JZ1JDUC3G8J4,C6F5F409-9176-4488-83A1-0771710954C1,2023-09-28_10h07.33.849,WP_VExplicitOC_LH,2022.2.5,Win32,10.66666667,NA,NA,NA,NA,NA,NA,NA,NA,NA,NA,NA,NA,NA,NA,NA,NA,NA,NA,NA,NA,NA,NA,NA,NA,NA,NA,NA,NA,NA,NA,NA,NA,NA,NA,NA,NA,NA,NA,NA,NA,NA,NA,NA,NA,NA,NA,NA,NA,NA,NA,NA,NA,NA,NA,NA,NA,NA,NA,NA
SUPAMT86355,3EFVCAY5L9833208Z9JZ1JDUC3G8J4,C6F5F409-9176-4488-83A1-0771710954C1,2023-09-28_10h07.33.849,WP_VExplicitOC_LH,2022.2.5,Win32,10.66666667,-56.77083333,6.31,2.046,NA,NA,NA,NA,NA,frustrated,"frustrated, not frustrated","more frustrated, less frustrated",NA,NA,NA,NA,NA,NA,NA,NA,NA,NA,NA,NA,NA,NA,NA,0,0,0,1,1,NA,NA,NA,NA,NA,NA,NA,NA,NA,NA,NA,NA,NA,NA,NA,NA,NA,NA,NA,NA,NA,NA,NA,NA,NA,NA,NA,NA
SUPAMT86355,3EFVCAY5L9833208Z9JZ1JDUC3G8J4,C6F5F409-9176-4488-83A1-0771710954C1,2023-09-28_10h07.33.849,WP_VExplicitOC_LH,2022.2.5,Win32,10.66666667,-76.5625,5.175,2.04,NA,NA,NA,NA,NA,bored,"bored, not bored","more bored, less bored",NA,NA,NA,NA,NA,NA,NA,NA,NA,NA,NA,NA,NA,NA,NA,0,1,1,2,1,NA,NA,NA,NA,NA,NA,NA,NA,NA,NA,NA,NA,NA,NA,NA,NA,NA,NA,NA,NA,NA,NA,NA,NA,NA,NA,NA,NA
SUPAMT86355,3EFVCAY5L9833208Z9JZ1JDUC3G8J4,C6F5F409-9176-4488-83A1-0771710954C1,2023-09-28_10h07.33.849,WP_VExplicitOC_LH,2022.2.5,Win32,10.66666667,93.75,4.736,2.134,NA,NA,NA,NA,NA,happy,"unhappy, happy","less happy, more happy",NA,NA,NA,NA,NA,NA,NA,NA,NA,NA,NA,NA,NA,NA,NA,0,2,2,0,1,NA,NA,NA,NA,NA,NA,NA,NA,NA,NA,NA,NA,NA,NA,NA,NA,NA,NA,NA,NA,NA,NA,NA,NA,NA,NA,NA,NA
SUPAMT86355,3EFVCAY5L9833208Z9JZ1JDUC3G8J4,C6F5F409-9176-4488-83A1-0771710954C1,2023-09-28_10h07.33.849,WP_VExplicitOC_LH,2022.2.5,Win32,10.66666667,NA,NA,NA,NA,NA,NA,NA,NA,NA,NA,NA,NA,NA,NA,NA,NA,NA,NA,NA,NA,NA,NA,NA,NA,NA,NA,NA,NA,NA,NA,NA,0,0,0,0,1,NA,NA,NA,NA,NA,NA,NA,NA,NA,NA,NA,NA,NA,NA,NA,NA,NA,NA,NA,NA,NA,NA,NA
SUPAMT86355,3EFVCAY5L9833208Z9JZ1JDUC3G8J4,C6F5F409-9176-4488-83A1-0771710954C1,2023-09-28_10h07.33.849,WP_VExplicitOC_LH,2022.2.5,Win32,10.66666667,88.28125,5.406,2.158,NA,NA,NA,NA,NA,happy,"unhappy, happy","less happy, more happy",NA,NA,NA,NA,NA,NA,NA,NA,NA,NA,NA,NA,NA,NA,NA,0,0,0,0,1,NA,NA,NA,NA,NA,NA,NA,NA,NA,NA,NA,NA,NA,NA,NA,NA,NA,NA,NA,NA,NA,NA,NA,NA,NA,NA,NA,NA
SUPAMT86355,3EFVCAY5L9833208Z9JZ1JDUC3G8J4,C6F5F409-9176-4488-83A1-0771710954C1,2023-09-28_10h07.33.849,WP_VExplicitOC_LH,2022.2.5,Win32,10.66666667,-69.79166667,6.006,2.103,NA,NA,NA,NA,NA,bored,"bored, not bored","more bored, less bored",NA,NA,NA,NA,NA,NA,NA,NA,NA,NA,NA,NA,NA,NA,NA,0,1,1,2,1,NA,NA,NA,NA,NA,NA,NA,NA,NA,NA,NA,NA,NA,NA,NA,NA,NA,NA,NA,NA,NA,NA,NA,NA,NA,NA,NA,NA
SUPAMT86355,3EFVCAY5L9833208Z9JZ1JDUC3G8J4,C6F5F409-9176-4488-83A1-0771710954C1,2023-09-28_10h07.33.849,WP_VExplicitOC_LH,2022.2.5,Win32,10.66666667,-70.83333333,4.972,2.163,NA,NA,NA,NA,NA,frustrated,"frustrated, not frustrated","more frustrated, less frustrated",NA,NA,NA,NA,NA,NA,NA,NA,NA,NA,NA,NA,NA,NA,NA,0,2,2,1,1,NA,NA,NA,NA,NA,NA,NA,NA,NA,NA,NA,NA,NA,NA,NA,NA,NA,NA,NA,NA,NA,NA,NA,NA,NA,NA,NA,NA
SUPAMT86355,3EFVCAY5L9833208Z9JZ1JDUC3G8J4,C6F5F409-9176-4488-83A1-0771710954C1,2023-09-28_10h07.33.849,WP_VExplicitOC_LH,2022.2.5,Win32,10.66666667,NA,NA,NA,NA,NA,NA,NA,NA,NA,NA,NA,NA,NA,NA,NA,NA,NA,NA,NA,NA,NA,NA,NA,NA,NA,NA,NA,NA,NA,NA,NA,1,0,1,0,1,NA,NA,NA,NA,NA,NA,NA,NA,NA,NA,NA,NA,NA,NA,NA,NA,NA,NA,NA,NA,NA,NA,NA
SUPAMT86355,3EFVCAY5L9833208Z9JZ1JDUC3G8J4,C6F5F409-9176-4488-83A1-0771710954C1,2023-09-28_10h07.33.849,WP_VExplicitOC_LH,2022.2.5,Win32,10.66666667,-85.9375,5.321,2.15,NA,NA,NA,NA,NA,frustrated,"frustrated, not frustrated","more frustrated, less frustrated",NA,NA,NA,NA,NA,NA,NA,NA,NA,NA,NA,NA,NA,NA,NA,0,0,0,1,1,NA,NA,NA,NA,NA,NA,NA,NA,NA,NA,NA,NA,NA,NA,NA,NA,NA,NA,NA,NA,NA,NA,NA,NA,NA,NA,NA,NA
SUPAMT86355,3EFVCAY5L9833208Z9JZ1JDUC3G8J4,C6F5F409-9176-4488-83A1-0771710954C1,2023-09-28_10h07.33.849,WP_VExplicitOC_LH,2022.2.5,Win32,10.66666667,-66.14583333,5.163,2.147,NA,NA,NA,NA,NA,bored,"bored, not bored","more bored, less bored",NA,NA,NA,NA,NA,NA,NA,NA,NA,NA,NA,NA,NA,NA,NA,0,1,1,2,1,NA,NA,NA,NA,NA,NA,NA,NA,NA,NA,NA,NA,NA,NA,NA,NA,NA,NA,NA,NA,NA,NA,NA,NA,NA,NA,NA,NA
SUPAMT86355,3EFVCAY5L9833208Z9JZ1JDUC3G8J4,C6F5F409-9176-4488-83A1-0771710954C1,2023-09-28_10h07.33.849,WP_VExplicitOC_LH,2022.2.5,Win32,10.66666667,72.91666667,3.657,2.085,NA,NA,NA,NA,NA,happy,"unhappy, happy","less happy, more happy",NA,NA,NA,NA,NA,NA,NA,NA,NA,NA,NA,NA,NA,NA,NA,0,2,2,0,1,NA,NA,NA,NA,NA,NA,NA,NA,NA,NA,NA,NA,NA,NA,NA,NA,NA,NA,NA,NA,NA,NA,NA,NA,NA,NA,NA,NA
SUPAMT86355,3EFVCAY5L9833208Z9JZ1JDUC3G8J4,C6F5F409-9176-4488-83A1-0771710954C1,2023-09-28_10h07.33.849,WP_VExplicitOC_LH,2022.2.5,Win32,10.66666667,NA,NA,NA,NA,NA,NA,NA,NA,NA,NA,NA,NA,NA,NA,NA,NA,NA,NA,NA,NA,NA,NA,NA,NA,NA,NA,NA,NA,NA,NA,NA,2,0,2,0,1,NA,NA,NA,NA,NA,NA,NA,NA,NA,NA,NA,NA,NA,NA,NA,NA,NA,NA,NA,NA,NA,NA,NA
SUPAMT86355,3EFVCAY5L9833208Z9JZ1JDUC3G8J4,C6F5F409-9176-4488-83A1-0771710954C1,2023-09-28_10h07.33.849,WP_VExplicitOC_LH,2022.2.5,Win32,10.66666667,NA,NA,2.149,NA,NA,NA,NA,NA,bored,"bored, not bored","more bored, less bored",NA,NA,NA,NA,NA,NA,NA,NA,NA,NA,NA,NA,NA,NA,NA,0,0,0,2,1,NA,NA,NA,NA,NA,NA,NA,NA,NA,NA,NA,NA,NA,NA,NA,NA,NA,NA,NA,NA,NA,NA,NA,NA,NA,NA,NA,NA
SUPAMT86355,3EFVCAY5L9833208Z9JZ1JDUC3G8J4,C6F5F409-9176-4488-83A1-0771710954C1,2023-09-28_10h07.33.849,WP_VExplicitOC_LH,2022.2.5,Win32,10.66666667,-78.125,3.971,2.074,NA,NA,NA,NA,NA,frustrated,"frustrated, not frustrated","more frustrated, less frustrated",NA,NA,NA,NA,NA,NA,NA,NA,NA,NA,NA,NA,NA,NA,NA,0,1,1,1,1,NA,NA,NA,NA,NA,NA,NA,NA,NA,NA,NA,NA,NA,NA,NA,NA,NA,NA,NA,NA,NA,NA,NA,NA,NA,NA,NA,NA
SUPAMT86355,3EFVCAY5L9833208Z9JZ1JDUC3G8J4,C6F5F409-9176-4488-83A1-0771710954C1,2023-09-28_10h07.33.849,WP_VExplicitOC_LH,2022.2.5,Win32,10.66666667,78.125,6,2.112,NA,NA,NA,NA,NA,happy,"unhappy, happy","less happy, more happy",NA,NA,NA,NA,NA,NA,NA,NA,NA,NA,NA,NA,NA,NA,NA,0,2,2,0,1,NA,NA,NA,NA,NA,NA,NA,NA,NA,NA,NA,NA,NA,NA,NA,NA,NA,NA,NA,NA,NA,NA,NA,NA,NA,NA,NA,NA
SUPAMT86355,3EFVCAY5L9833208Z9JZ1JDUC3G8J4,C6F5F409-9176-4488-83A1-0771710954C1,2023-09-28_10h07.33.849,WP_VExplicitOC_LH,2022.2.5,Win32,10.66666667,NA,NA,NA,NA,NA,NA,NA,NA,NA,NA,NA,NA,NA,NA,NA,NA,NA,NA,NA,NA,NA,NA,NA,NA,NA,NA,NA,NA,NA,NA,NA,3,0,3,0,1,NA,NA,NA,NA,NA,NA,NA,NA,NA,NA,NA,NA,NA,NA,NA,NA,NA,NA,NA,NA,NA,NA,NA
SUPAMT86355,3EFVCAY5L9833208Z9JZ1JDUC3G8J4,C6F5F409-9176-4488-83A1-0771710954C1,2023-09-28_10h07.33.849,WP_VExplicitOC_LH,2022.2.5,Win32,10.66666667,68.22916667,4.03,2.081,NA,NA,NA,NA,NA,happy,"unhappy, happy","less happy, more happy",NA,NA,NA,NA,NA,NA,NA,NA,NA,NA,NA,NA,NA,NA,NA,0,0,0,0,1,NA,NA,NA,NA,NA,NA,NA,NA,NA,NA,NA,NA,NA,NA,NA,NA,NA,NA,NA,NA,NA,NA,NA,NA,NA,NA,NA,NA
SUPAMT86355,3EFVCAY5L9833208Z9JZ1JDUC3G8J4,C6F5F409-9176-4488-83A1-0771710954C1,2023-09-28_10h07.33.849,WP_VExplicitOC_LH,2022.2.5,Win32,10.66666667,-79.94791667,6.441,2.003,NA,NA,NA,NA,NA,bored,"bored, not bored","more bored, less bored",NA,NA,NA,NA,NA,NA,NA,NA,NA,NA,NA,NA,NA,NA,NA,0,1,1,2,1,NA,NA,NA,NA,NA,NA,NA,NA,NA,NA,NA,NA,NA,NA,NA,NA,NA,NA,NA,NA,NA,NA,NA,NA,NA,NA,NA,NA
SUPAMT86355,3EFVCAY5L9833208Z9JZ1JDUC3G8J4,C6F5F409-9176-4488-83A1-0771710954C1,2023-09-28_10h07.33.849,WP_VExplicitOC_LH,2022.2.5,Win32,10.66666667,-60.41666667,4.82,2.165,NA,NA,NA,NA,NA,frustrated,"frustrated, not frustrated","more frustrated, less frustrated",NA,NA,NA,NA,NA,NA,NA,NA,NA,NA,NA,NA,NA,NA,NA,0,2,2,1,1,NA,NA,NA,NA,NA,NA,NA,NA,NA,NA,NA,NA,NA,NA,NA,NA,NA,NA,NA,NA,NA,NA,NA,NA,NA,NA,NA,NA
SUPAMT86355,3EFVCAY5L9833208Z9JZ1JDUC3G8J4,C6F5F409-9176-4488-83A1-0771710954C1,2023-09-28_10h07.33.849,WP_VExplicitOC_LH,2022.2.5,Win32,10.66666667,NA,NA,NA,NA,NA,NA,NA,NA,NA,NA,NA,NA,NA,NA,NA,NA,NA,NA,NA,NA,NA,NA,NA,NA,NA,NA,NA,NA,NA,NA,NA,4,0,4,0,1,NA,NA,NA,NA,NA,NA,NA,NA,NA,NA,NA,NA,NA,NA,NA,NA,NA,NA,NA,NA,NA,NA,NA
SUPAMT86355,3EFVCAY5L9833208Z9JZ1JDUC3G8J4,C6F5F409-9176-4488-83A1-0771710954C1,2023-09-28_10h07.33.849,WP_VExplicitOC_LH,2022.2.5,Win32,10.66666667,95.05208333,6.137,2.015,NA,NA,NA,NA,NA,happy,"unhappy, happy","less happy, more happy",NA,NA,NA,NA,NA,NA,NA,NA,NA,NA,NA,NA,NA,NA,NA,0,0,0,0,1,NA,NA,NA,NA,NA,NA,NA,NA,NA,NA,NA,NA,NA,NA,NA,NA,NA,NA,NA,NA,NA,NA,NA,NA,NA,NA,NA,NA
SUPAMT86355,3EFVCAY5L9833208Z9JZ1JDUC3G8J4,C6F5F409-9176-4488-83A1-0771710954C1,2023-09-28_10h07.33.849,WP_VExplicitOC_LH,2022.2.5,Win32,10.66666667,-100,4.313,2.011,NA,NA,NA,NA,NA,bored,"bored, not bored","more bored, less bored",NA,NA,NA,NA,NA,NA,NA,NA,NA,NA,NA,NA,NA,NA,NA,0,1,1,2,1,NA,NA,NA,NA,NA,NA,NA,NA,NA,NA,NA,NA,NA,NA,NA,NA,NA,NA,NA,NA,NA,NA,NA,NA,NA,NA,NA,NA
SUPAMT86355,3EFVCAY5L9833208Z9JZ1JDUC3G8J4,C6F5F409-9176-4488-83A1-0771710954C1,2023-09-28_10h07.33.849,WP_VExplicitOC_LH,2022.2.5,Win32,10.66666667,-53.125,5.836,2.158,NA,NA,NA,NA,NA,frustrated,"frustrated, not frustrated","more frustrated, less frustrated",NA,NA,NA,NA,NA,NA,NA,NA,NA,NA,NA,NA,NA,NA,NA,0,2,2,1,1,NA,NA,NA,NA,NA,NA,NA,NA,NA,NA,NA,NA,NA,NA,NA,NA,NA,NA,NA,NA,NA,NA,NA,NA,NA,NA,NA,NA
SUPAMT86355,3EFVCAY5L9833208Z9JZ1JDUC3G8J4,C6F5F409-9176-4488-83A1-0771710954C1,2023-09-28_10h07.33.849,WP_VExplicitOC_LH,2022.2.5,Win32,10.66666667,NA,NA,NA,NA,NA,NA,NA,NA,NA,NA,NA,NA,NA,NA,NA,NA,NA,NA,NA,NA,NA,NA,NA,NA,NA,NA,NA,NA,NA,NA,NA,5,0,5,0,1,NA,NA,NA,NA,NA,NA,NA,NA,NA,NA,NA,NA,NA,NA,NA,NA,NA,NA,NA,NA,NA,NA,NA
SUPAMT86355,3EFVCAY5L9833208Z9JZ1JDUC3G8J4,C6F5F409-9176-4488-83A1-0771710954C1,2023-09-28_10h07.33.849,WP_VExplicitOC_LH,2022.2.5,Win32,10.66666667,66.14583333,5.797,2.138,NA,NA,NA,NA,NA,happy,"unhappy, happy","less happy, more happy",NA,NA,NA,NA,NA,NA,NA,NA,NA,NA,NA,NA,NA,NA,NA,0,0,0,0,1,NA,NA,NA,NA,NA,NA,NA,NA,NA,NA,NA,NA,NA,NA,NA,NA,NA,NA,NA,NA,NA,NA,NA,NA,NA,NA,NA,NA
SUPAMT86355,3EFVCAY5L9833208Z9JZ1JDUC3G8J4,C6F5F409-9176-4488-83A1-0771710954C1,2023-09-28_10h07.33.849,WP_VExplicitOC_LH,2022.2.5,Win32,10.66666667,-50.78125,4.145,2.162,NA,NA,NA,NA,NA,frustrated,"frustrated, not frustrated","more frustrated, less frustrated",NA,NA,NA,NA,NA,NA,NA,NA,NA,NA,NA,NA,NA,NA,NA,0,1,1,1,1,NA,NA,NA,NA,NA,NA,NA,NA,NA,NA,NA,NA,NA,NA,NA,NA,NA,NA,NA,NA,NA,NA,NA,NA,NA,NA,NA,NA
SUPAMT86355,3EFVCAY5L9833208Z9JZ1JDUC3G8J4,C6F5F409-9176-4488-83A1-0771710954C1,2023-09-28_10h07.33.849,WP_VExplicitOC_LH,2022.2.5,Win32,10.66666667,-58.85416667,4.163,2.022,NA,NA,NA,NA,NA,bored,"bored, not bored","more bored, less bored",NA,NA,NA,NA,NA,NA,NA,NA,NA,NA,NA,NA,NA,NA,NA,0,2,2,2,1,NA,NA,NA,NA,NA,NA,NA,NA,NA,NA,NA,NA,NA,NA,NA,NA,NA,NA,NA,NA,NA,NA,NA,NA,NA,NA,NA,NA
SUPAMT86355,3EFVCAY5L9833208Z9JZ1JDUC3G8J4,C6F5F409-9176-4488-83A1-0771710954C1,2023-09-28_10h07.33.849,WP_VExplicitOC_LH,2022.2.5,Win32,10.66666667,NA,NA,NA,NA,NA,NA,NA,NA,NA,NA,NA,NA,NA,NA,NA,NA,NA,NA,NA,NA,NA,NA,NA,NA,NA,NA,NA,NA,NA,NA,NA,6,0,6,0,1,NA,NA,NA,NA,NA,NA,NA,NA,NA,NA,NA,NA,NA,NA,NA,NA,NA,NA,NA,NA,NA,NA,NA
SUPAMT86355,3EFVCAY5L9833208Z9JZ1JDUC3G8J4,C6F5F409-9176-4488-83A1-0771710954C1,2023-09-28_10h07.33.849,WP_VExplicitOC_LH,2022.2.5,Win32,10.66666667,55.72916667,4.472,2.061,NA,NA,NA,NA,NA,happy,"unhappy, happy","less happy, more happy",NA,NA,NA,NA,NA,NA,NA,NA,NA,NA,NA,NA,NA,NA,NA,0,0,0,0,1,NA,NA,NA,NA,NA,NA,NA,NA,NA,NA,NA,NA,NA,NA,NA,NA,NA,NA,NA,NA,NA,NA,NA,NA,NA,NA,NA,NA
SUPAMT86355,3EFVCAY5L9833208Z9JZ1JDUC3G8J4,C6F5F409-9176-4488-83A1-0771710954C1,2023-09-28_10h07.33.849,WP_VExplicitOC_LH,2022.2.5,Win32,10.66666667,-63.02083333,4.974,2.138,NA,NA,NA,NA,NA,frustrated,"frustrated, not frustrated","more frustrated, less frustrated",NA,NA,NA,NA,NA,NA,NA,NA,NA,NA,NA,NA,NA,NA,NA,0,1,1,1,1,NA,NA,NA,NA,NA,NA,NA,NA,NA,NA,NA,NA,NA,NA,NA,NA,NA,NA,NA,NA,NA,NA,NA,NA,NA,NA,NA,NA
SUPAMT86355,3EFVCAY5L9833208Z9JZ1JDUC3G8J4,C6F5F409-9176-4488-83A1-0771710954C1,2023-09-28_10h07.33.849,WP_VExplicitOC_LH,2022.2.5,Win32,10.66666667,-52.60416667,4.52,2.04,NA,NA,NA,NA,NA,bored,"bored, not bored","more bored, less bored",NA,NA,NA,NA,NA,NA,NA,NA,NA,NA,NA,NA,NA,NA,NA,0,2,2,2,1,NA,NA,NA,NA,NA,NA,NA,NA,NA,NA,NA,NA,NA,NA,NA,NA,NA,NA,NA,NA,NA,NA,NA,NA,NA,NA,NA,NA
SUPAMT86355,3EFVCAY5L9833208Z9JZ1JDUC3G8J4,C6F5F409-9176-4488-83A1-0771710954C1,2023-09-28_10h07.33.849,WP_VExplicitOC_LH,2022.2.5,Win32,10.66666667,NA,NA,NA,NA,NA,NA,NA,NA,NA,NA,NA,NA,NA,NA,NA,NA,NA,NA,NA,NA,NA,NA,NA,NA,NA,NA,NA,NA,NA,NA,NA,7,0,7,0,1,NA,NA,NA,NA,NA,NA,NA,NA,NA,NA,NA,NA,NA,NA,NA,NA,NA,NA,NA,NA,NA,NA,NA
SUPAMT86355,3EFVCAY5L9833208Z9JZ1JDUC3G8J4,C6F5F409-9176-4488-83A1-0771710954C1,2023-09-28_10h07.33.849,WP_VExplicitOC_LH,2022.2.5,Win32,10.66666667,-49.21875,6.122,2.129,NA,NA,NA,NA,NA,frustrated,"frustrated, not frustrated","more frustrated, less frustrated",NA,NA,NA,NA,NA,NA,NA,NA,NA,NA,NA,NA,NA,NA,NA,0,0,0,1,1,NA,NA,NA,NA,NA,NA,NA,NA,NA,NA,NA,NA,NA,NA,NA,NA,NA,NA,NA,NA,NA,NA,NA,NA,NA,NA,NA,NA
SUPAMT86355,3EFVCAY5L9833208Z9JZ1JDUC3G8J4,C6F5F409-9176-4488-83A1-0771710954C1,2023-09-28_10h07.33.849,WP_VExplicitOC_LH,2022.2.5,Win32,10.66666667,NA,NA,2.105,NA,NA,NA,NA,NA,happy,"unhappy, happy","less happy, more happy",NA,NA,NA,NA,NA,NA,NA,NA,NA,NA,NA,NA,NA,NA,NA,0,1,1,0,1,NA,NA,NA,NA,NA,NA,NA,NA,NA,NA,NA,NA,NA,NA,NA,NA,NA,NA,NA,NA,NA,NA,NA,NA,NA,NA,NA,NA
SUPAMT86355,3EFVCAY5L9833208Z9JZ1JDUC3G8J4,C6F5F409-9176-4488-83A1-0771710954C1,2023-09-28_10h07.33.849,WP_VExplicitOC_LH,2022.2.5,Win32,10.66666667,-48.4375,5.393,2.111,NA,NA,NA,NA,NA,bored,"bored, not bored","more bored, less bored",NA,NA,NA,NA,NA,NA,NA,NA,NA,NA,NA,NA,NA,NA,NA,0,2,2,2,1,NA,NA,NA,NA,NA,NA,NA,NA,NA,NA,NA,NA,NA,NA,NA,NA,NA,NA,NA,NA,NA,NA,NA,NA,NA,NA,NA,NA
SUPAMT86355,3EFVCAY5L9833208Z9JZ1JDUC3G8J4,C6F5F409-9176-4488-83A1-0771710954C1,2023-09-28_10h07.33.849,WP_VExplicitOC_LH,2022.2.5,Win32,10.66666667,NA,NA,NA,NA,NA,NA,NA,NA,NA,NA,NA,NA,NA,NA,NA,NA,NA,NA,NA,NA,NA,NA,NA,NA,NA,NA,NA,NA,NA,NA,NA,8,0,8,0,1,NA,NA,NA,NA,NA,NA,NA,NA,NA,NA,NA,NA,NA,NA,NA,NA,NA,NA,NA,NA,NA,NA,NA
SUPAMT86355,3EFVCAY5L9833208Z9JZ1JDUC3G8J4,C6F5F409-9176-4488-83A1-0771710954C1,2023-09-28_10h07.33.849,WP_VExplicitOC_LH,2022.2.5,Win32,10.66666667,74.73958333,5.25,2.079,NA,NA,NA,NA,NA,happy,"unhappy, happy","less happy, more happy",NA,NA,NA,NA,NA,NA,NA,NA,NA,NA,NA,NA,NA,NA,NA,0,0,0,0,1,NA,NA,NA,NA,NA,NA,NA,NA,NA,NA,NA,NA,NA,NA,NA,NA,NA,NA,NA,NA,NA,NA,NA,NA,NA,NA,NA,NA
SUPAMT86355,3EFVCAY5L9833208Z9JZ1JDUC3G8J4,C6F5F409-9176-4488-83A1-0771710954C1,2023-09-28_10h07.33.849,WP_VExplicitOC_LH,2022.2.5,Win32,10.66666667,-75.52083333,5.152,2.102,NA,NA,NA,NA,NA,frustrated,"frustrated, not frustrated","more frustrated, less frustrated",NA,NA,NA,NA,NA,NA,NA,NA,NA,NA,NA,NA,NA,NA,NA,0,1,1,1,1,NA,NA,NA,NA,NA,NA,NA,NA,NA,NA,NA,NA,NA,NA,NA,NA,NA,NA,NA,NA,NA,NA,NA,NA,NA,NA,NA,NA
SUPAMT86355,3EFVCAY5L9833208Z9JZ1JDUC3G8J4,C6F5F409-9176-4488-83A1-0771710954C1,2023-09-28_10h07.33.849,WP_VExplicitOC_LH,2022.2.5,Win32,10.66666667,-64.84375,5.942,2.099,NA,NA,NA,NA,NA,bored,"bored, not bored","more bored, less bored",NA,NA,NA,NA,NA,NA,NA,NA,NA,NA,NA,NA,NA,NA,NA,0,2,2,2,1,NA,NA,NA,NA,NA,NA,NA,NA,NA,NA,NA,NA,NA,NA,NA,NA,NA,NA,NA,NA,NA,NA,NA,NA,NA,NA,NA,NA
SUPAMT86355,3EFVCAY5L9833208Z9JZ1JDUC3G8J4,C6F5F409-9176-4488-83A1-0771710954C1,2023-09-28_10h07.33.849,WP_VExplicitOC_LH,2022.2.5,Win32,10.66666667,NA,NA,NA,NA,NA,NA,NA,NA,NA,NA,NA,NA,NA,NA,NA,NA,NA,NA,NA,NA,NA,NA,NA,NA,NA,NA,NA,NA,NA,NA,NA,9,0,9,0,1,NA,NA,NA,NA,NA,NA,NA,NA,NA,NA,NA,NA,NA,NA,NA,NA,NA,NA,NA,NA,NA,NA,NA
SUPAMT86355,3EFVCAY5L9833208Z9JZ1JDUC3G8J4,C6F5F409-9176-4488-83A1-0771710954C1,2023-09-28_10h07.33.849,WP_VExplicitOC_LH,2022.2.5,Win32,10.66666667,-39.32291667,6.448,2.065,NA,NA,NA,NA,NA,bored,"bored, not bored","more bored, less bored",NA,NA,NA,NA,NA,NA,NA,NA,NA,NA,NA,NA,NA,NA,NA,0,0,0,2,1,NA,NA,NA,NA,NA,NA,NA,NA,NA,NA,NA,NA,NA,NA,NA,NA,NA,NA,NA,NA,NA,NA,NA,NA,NA,NA,NA,NA
SUPAMT86355,3EFVCAY5L9833208Z9JZ1JDUC3G8J4,C6F5F409-9176-4488-83A1-0771710954C1,2023-09-28_10h07.33.849,WP_VExplicitOC_LH,2022.2.5,Win32,10.66666667,NA,NA,2.003,NA,NA,NA,NA,NA,happy,"unhappy, happy","less happy, more happy",NA,NA,NA,NA,NA,NA,NA,NA,NA,NA,NA,NA,NA,NA,NA,0,1,1,0,1,NA,NA,NA,NA,NA,NA,NA,NA,NA,NA,NA,NA,NA,NA,NA,NA,NA,NA,NA,NA,NA,NA,NA,NA,NA,NA,NA,NA
SUPAMT86355,3EFVCAY5L9833208Z9JZ1JDUC3G8J4,C6F5F409-9176-4488-83A1-0771710954C1,2023-09-28_10h07.33.849,WP_VExplicitOC_LH,2022.2.5,Win32,10.66666667,86.71875,4.153,2.022,NA,NA,NA,NA,NA,frustrated,"frustrated, not frustrated","more frustrated, less frustrated",NA,NA,NA,NA,NA,NA,NA,NA,NA,NA,NA,NA,NA,NA,NA,0,2,2,1,1,NA,NA,NA,NA,NA,NA,NA,NA,NA,NA,NA,NA,NA,NA,NA,NA,NA,NA,NA,NA,NA,NA,NA,NA,NA,NA,NA,NA
SUPAMT86355,3EFVCAY5L9833208Z9JZ1JDUC3G8J4,C6F5F409-9176-4488-83A1-0771710954C1,2023-09-28_10h07.33.849,WP_VExplicitOC_LH,2022.2.5,Win32,10.66666667,NA,NA,NA,NA,NA,NA,NA,NA,NA,NA,NA,NA,NA,NA,NA,NA,NA,NA,NA,NA,NA,NA,NA,NA,NA,NA,NA,NA,NA,NA,NA,10,0,10,0,1,NA,NA,NA,NA,NA,NA,NA,NA,NA,NA,NA,NA,NA,NA,NA,NA,NA,NA,NA,NA,NA,NA,NA
SUPAMT86355,3EFVCAY5L9833208Z9JZ1JDUC3G8J4,C6F5F409-9176-4488-83A1-0771710954C1,2023-09-28_10h07.33.849,WP_VExplicitOC_LH,2022.2.5,Win32,10.66666667,-67.96875,4.078,2.063,NA,NA,NA,NA,NA,bored,"bored, not bored","more bored, less bored",NA,NA,NA,NA,NA,NA,NA,NA,NA,NA,NA,NA,NA,NA,NA,0,0,0,2,1,NA,NA,NA,NA,NA,NA,NA,NA,NA,NA,NA,NA,NA,NA,NA,NA,NA,NA,NA,NA,NA,NA,NA,NA,NA,NA,NA,NA
SUPAMT86355,3EFVCAY5L9833208Z9JZ1JDUC3G8J4,C6F5F409-9176-4488-83A1-0771710954C1,2023-09-28_10h07.33.849,WP_VExplicitOC_LH,2022.2.5,Win32,10.66666667,27.86458333,4.588,2.131,NA,NA,NA,NA,NA,happy,"unhappy, happy","less happy, more happy",NA,NA,NA,NA,NA,NA,NA,NA,NA,NA,NA,NA,NA,NA,NA,0,1,1,0,1,NA,NA,NA,NA,NA,NA,NA,NA,NA,NA,NA,NA,NA,NA,NA,NA,NA,NA,NA,NA,NA,NA,NA,NA,NA,NA,NA,NA
SUPAMT86355,3EFVCAY5L9833208Z9JZ1JDUC3G8J4,C6F5F409-9176-4488-83A1-0771710954C1,2023-09-28_10h07.33.849,WP_VExplicitOC_LH,2022.2.5,Win32,10.66666667,-51.30208333,5.16,2.173,NA,NA,NA,NA,NA,frustrated,"frustrated, not frustrated","more frustrated, less frustrated",NA,NA,NA,NA,NA,NA,NA,NA,NA,NA,NA,NA,NA,NA,NA,0,2,2,1,1,NA,NA,NA,NA,NA,NA,NA,NA,NA,NA,NA,NA,NA,NA,NA,NA,NA,NA,NA,NA,NA,NA,NA,NA,NA,NA,NA,NA
SUPAMT86355,3EFVCAY5L9833208Z9JZ1JDUC3G8J4,C6F5F409-9176-4488-83A1-0771710954C1,2023-09-28_10h07.33.849,WP_VExplicitOC_LH,2022.2.5,Win32,10.66666667,NA,NA,NA,NA,NA,NA,NA,NA,NA,NA,NA,NA,NA,NA,NA,NA,NA,NA,NA,NA,NA,NA,NA,NA,NA,NA,NA,NA,NA,NA,NA,11,0,11,0,1,NA,NA,NA,NA,NA,NA,NA,NA,NA,NA,NA,NA,NA,NA,NA,NA,NA,NA,NA,NA,NA,NA,NA
SUPAMT86355,3EFVCAY5L9833208Z9JZ1JDUC3G8J4,C6F5F409-9176-4488-83A1-0771710954C1,2023-09-28_10h07.33.849,WP_VExplicitOC_LH,2022.2.5,Win32,10.66666667,NA,NA,2.005,NA,NA,NA,NA,NA,frustrated,"frustrated, not frustrated","more frustrated, less frustrated",NA,NA,NA,NA,NA,NA,NA,NA,NA,NA,NA,NA,NA,NA,NA,0,0,0,1,1,NA,NA,NA,NA,NA,NA,NA,NA,NA,NA,NA,NA,NA,NA,NA,NA,NA,NA,NA,NA,NA,NA,NA,NA,NA,NA,NA,NA
SUPAMT86355,3EFVCAY5L9833208Z9JZ1JDUC3G8J4,C6F5F409-9176-4488-83A1-0771710954C1,2023-09-28_10h07.33.849,WP_VExplicitOC_LH,2022.2.5,Win32,10.66666667,42.44791667,4.875,2.146,NA,NA,NA,NA,NA,happy,"unhappy, happy","less happy, more happy",NA,NA,NA,NA,NA,NA,NA,NA,NA,NA,NA,NA,NA,NA,NA,0,1,1,0,1,NA,NA,NA,NA,NA,NA,NA,NA,NA,NA,NA,NA,NA,NA,NA,NA,NA,NA,NA,NA,NA,NA,NA,NA,NA,NA,NA,NA
SUPAMT86355,3EFVCAY5L9833208Z9JZ1JDUC3G8J4,C6F5F409-9176-4488-83A1-0771710954C1,2023-09-28_10h07.33.849,WP_VExplicitOC_LH,2022.2.5,Win32,10.66666667,-39.0625,6.216,2.17,NA,NA,NA,NA,NA,bored,"bored, not bored","more bored, less bored",NA,NA,NA,NA,NA,NA,NA,NA,NA,NA,NA,NA,NA,NA,NA,0,2,2,2,1,NA,NA,NA,NA,NA,NA,NA,NA,NA,NA,NA,NA,NA,NA,NA,NA,NA,NA,NA,NA,NA,NA,NA,NA,NA,NA,NA,NA
SUPAMT86355,3EFVCAY5L9833208Z9JZ1JDUC3G8J4,C6F5F409-9176-4488-83A1-0771710954C1,2023-09-28_10h07.33.849,WP_VExplicitOC_LH,2022.2.5,Win32,10.66666667,NA,NA,NA,NA,NA,NA,NA,NA,NA,NA,NA,NA,NA,NA,NA,NA,NA,NA,NA,NA,NA,NA,NA,NA,NA,NA,NA,NA,NA,NA,NA,12,0,12,0,1,NA,NA,NA,NA,NA,NA,NA,NA,NA,NA,NA,NA,NA,NA,NA,NA,NA,NA,NA,NA,NA,NA,NA
SUPAMT86355,3EFVCAY5L9833208Z9JZ1JDUC3G8J4,C6F5F409-9176-4488-83A1-0771710954C1,2023-09-28_10h07.33.849,WP_VExplicitOC_LH,2022.2.5,Win32,10.66666667,-50.26041667,4.6,2.142,NA,NA,NA,NA,NA,frustrated,"frustrated, not frustrated","more frustrated, less frustrated",NA,NA,NA,NA,NA,NA,NA,NA,NA,NA,NA,NA,NA,NA,NA,0,0,0,1,1,NA,NA,NA,NA,NA,NA,NA,NA,NA,NA,NA,NA,NA,NA,NA,NA,NA,NA,NA,NA,NA,NA,NA,NA,NA,NA,NA,NA
SUPAMT86355,3EFVCAY5L9833208Z9JZ1JDUC3G8J4,C6F5F409-9176-4488-83A1-0771710954C1,2023-09-28_10h07.33.849,WP_VExplicitOC_LH,2022.2.5,Win32,10.66666667,-71.35416667,4.233,2.079,NA,NA,NA,NA,NA,bored,"bored, not bored","more bored, less bored",NA,NA,NA,NA,NA,NA,NA,NA,NA,NA,NA,NA,NA,NA,NA,0,1,1,2,1,NA,NA,NA,NA,NA,NA,NA,NA,NA,NA,NA,NA,NA,NA,NA,NA,NA,NA,NA,NA,NA,NA,NA,NA,NA,NA,NA,NA
SUPAMT86355,3EFVCAY5L9833208Z9JZ1JDUC3G8J4,C6F5F409-9176-4488-83A1-0771710954C1,2023-09-28_10h07.33.849,WP_VExplicitOC_LH,2022.2.5,Win32,10.66666667,66.14583333,4.214,2.156,NA,NA,NA,NA,NA,happy,"unhappy, happy","less happy, more happy",NA,NA,NA,NA,NA,NA,NA,NA,NA,NA,NA,NA,NA,NA,NA,0,2,2,0,1,NA,NA,NA,NA,NA,NA,NA,NA,NA,NA,NA,NA,NA,NA,NA,NA,NA,NA,NA,NA,NA,NA,NA,NA,NA,NA,NA,NA
SUPAMT86355,3EFVCAY5L9833208Z9JZ1JDUC3G8J4,C6F5F409-9176-4488-83A1-0771710954C1,2023-09-28_10h07.33.849,WP_VExplicitOC_LH,2022.2.5,Win32,10.66666667,NA,NA,NA,NA,NA,NA,NA,NA,NA,NA,NA,NA,NA,NA,NA,NA,NA,NA,NA,NA,NA,NA,NA,NA,NA,NA,NA,NA,NA,NA,NA,13,0,13,0,1,NA,NA,NA,NA,NA,NA,NA,NA,NA,NA,NA,NA,NA,NA,NA,NA,NA,NA,NA,NA,NA,NA,NA
SUPAMT86355,3EFVCAY5L9833208Z9JZ1JDUC3G8J4,C6F5F409-9176-4488-83A1-0771710954C1,2023-09-28_10h07.33.849,WP_VExplicitOC_LH,2022.2.5,Win32,10.66666667,NA,NA,2.109,NA,NA,NA,NA,NA,bored,"bored, not bored","more bored, less bored",NA,NA,NA,NA,NA,NA,NA,NA,NA,NA,NA,NA,NA,NA,NA,0,0,0,2,1,NA,NA,NA,NA,NA,NA,NA,NA,NA,NA,NA,NA,NA,NA,NA,NA,NA,NA,NA,NA,NA,NA,NA,NA,NA,NA,NA,NA
SUPAMT86355,3EFVCAY5L9833208Z9JZ1JDUC3G8J4,C6F5F409-9176-4488-83A1-0771710954C1,2023-09-28_10h07.33.849,WP_VExplicitOC_LH,2022.2.5,Win32,10.66666667,-60.41666667,5.019,2.018,NA,NA,NA,NA,NA,frustrated,"frustrated, not frustrated","more frustrated, less frustrated",NA,NA,NA,NA,NA,NA,NA,NA,NA,NA,NA,NA,NA,NA,NA,0,1,1,1,1,NA,NA,NA,NA,NA,NA,NA,NA,NA,NA,NA,NA,NA,NA,NA,NA,NA,NA,NA,NA,NA,NA,NA,NA,NA,NA,NA,NA
SUPAMT86355,3EFVCAY5L9833208Z9JZ1JDUC3G8J4,C6F5F409-9176-4488-83A1-0771710954C1,2023-09-28_10h07.33.849,WP_VExplicitOC_LH,2022.2.5,Win32,10.66666667,66.92708333,6.788,2.118,NA,NA,NA,NA,NA,happy,"unhappy, happy","less happy, more happy",NA,NA,NA,NA,NA,NA,NA,NA,NA,NA,NA,NA,NA,NA,NA,0,2,2,0,1,NA,NA,NA,NA,NA,NA,NA,NA,NA,NA,NA,NA,NA,NA,NA,NA,NA,NA,NA,NA,NA,NA,NA,NA,NA,NA,NA,NA
SUPAMT86355,3EFVCAY5L9833208Z9JZ1JDUC3G8J4,C6F5F409-9176-4488-83A1-0771710954C1,2023-09-28_10h07.33.849,WP_VExplicitOC_LH,2022.2.5,Win32,10.66666667,NA,NA,NA,NA,NA,NA,NA,NA,NA,NA,NA,NA,NA,NA,NA,NA,NA,NA,NA,NA,NA,NA,NA,NA,NA,NA,NA,NA,NA,NA,NA,14,0,14,0,1,NA,NA,NA,NA,NA,NA,NA,NA,NA,NA,NA,NA,NA,NA,NA,NA,NA,NA,NA,NA,NA,NA,NA
SUPAMT86355,3EFVCAY5L9833208Z9JZ1JDUC3G8J4,C6F5F409-9176-4488-83A1-0771710954C1,2023-09-28_10h07.33.849,WP_VExplicitOC_LH,2022.2.5,Win32,10.66666667,NA,NA,NA,NA,NA,NA,NA,NA,NA,NA,NA,NA,NA,NA,NA,NA,NA,NA,NA,NA,NA,NA,NA,NA,NA,NA,NA,NA,NA,NA,NA,NA,NA,NA,NA,NA,NA,NA,NA,NA,NA,NA,NA,NA,NA,NA,NA,NA,NA,NA,NA,NA,NA,NA,NA,NA,NA,NA,NA
SUPAMT86355,3EFVCAY5L9833208Z9JZ1JDUC3G8J4,C6F5F409-9176-4488-83A1-0771710954C1,2023-09-28_10h07.33.849,WP_VExplicitOC_LH,2022.2.5,Win32,10.66666667,NA,NA,NA,NA,NA,NA,NA,NA,NA,NA,NA,NA,NA,NA,NA,NA,NA,NA,NA,NA,NA,NA,NA,NA,NA,NA,NA,NA,NA,NA,NA,NA,NA,NA,NA,NA,NA,NA,NA,NA,NA,NA,NA,NA,NA,NA,NA,NA,NA,NA,NA,NA,NA,NA,NA,NA,NA,NA,NA
SUPAMT86355,3EFVCAY5L9833208Z9JZ1JDUC3G8J4,C6F5F409-9176-4488-83A1-0771710954C1,2023-09-28_10h07.33.849,WP_VExplicitOC_LH,2022.2.5,Win32,10.66666667,NA,NA,NA,NA,NA,NA,NA,NA,NA,NA,NA,NA,NA,NA,NA,NA,NA,NA,rest (looking at a fixed cross),001.png,NA,NA,NA,NA,NA,NA,NA,NA,NA,NA,NA,NA,NA,NA,NA,NA,NA,NA,0,0,0,0,1,NA,NA,NA,NA,NA,NA,NA,NA,NA,NA,NA,NA,NA,NA,NA,NA
SUPAMT86355,3EFVCAY5L9833208Z9JZ1JDUC3G8J4,C6F5F409-9176-4488-83A1-0771710954C1,2023-09-28_10h07.33.849,WP_VExplicitOC_LH,2022.2.5,Win32,10.66666667,NA,NA,NA,NA,NA,NA,NA,NA,NA,NA,NA,NA,NA,NA,NA,NA,NA,NA,stand up,002.png,NA,NA,NA,NA,NA,NA,NA,NA,NA,NA,NA,NA,NA,NA,NA,NA,NA,NA,0,1,1,1,1,NA,NA,NA,NA,NA,NA,NA,NA,NA,NA,NA,NA,NA,NA,NA,NA
SUPAMT86355,3EFVCAY5L9833208Z9JZ1JDUC3G8J4,C6F5F409-9176-4488-83A1-0771710954C1,2023-09-28_10h07.33.849,WP_VExplicitOC_LH,2022.2.5,Win32,10.66666667,NA,NA,NA,NA,NA,NA,NA,NA,NA,NA,NA,NA,NA,NA,NA,NA,NA,NA,stretch,003.png,NA,NA,NA,NA,NA,NA,NA,NA,NA,NA,NA,NA,NA,NA,NA,NA,NA,NA,0,2,2,2,1,NA,NA,NA,NA,NA,NA,NA,NA,NA,NA,NA,NA,NA,NA,NA,NA
SUPAMT86355,3EFVCAY5L9833208Z9JZ1JDUC3G8J4,C6F5F409-9176-4488-83A1-0771710954C1,2023-09-28_10h07.33.849,WP_VExplicitOC_LH,2022.2.5,Win32,10.66666667,NA,NA,NA,NA,NA,NA,NA,NA,NA,NA,NA,NA,NA,NA,NA,NA,NA,NA,make a drink,004.png,NA,NA,NA,NA,NA,NA,NA,NA,NA,NA,NA,NA,NA,NA,NA,NA,NA,NA,0,3,3,3,1,NA,NA,NA,NA,NA,NA,NA,NA,NA,NA,NA,NA,NA,NA,NA,NA
SUPAMT86355,3EFVCAY5L9833208Z9JZ1JDUC3G8J4,C6F5F409-9176-4488-83A1-0771710954C1,2023-09-28_10h07.33.849,WP_VExplicitOC_LH,2022.2.5,Win32,10.66666667,NA,NA,NA,NA,NA,NA,NA,NA,NA,NA,NA,NA,NA,NA,NA,NA,NA,NA,scroll social media,005.png,NA,NA,NA,NA,NA,NA,NA,NA,NA,NA,NA,NA,NA,NA,NA,NA,63.02083333,0.918,0,4,4,4,1,NA,NA,NA,NA,NA,NA,NA,NA,NA,NA,NA,NA,NA,NA,NA,NA
SUPAMT86355,3EFVCAY5L9833208Z9JZ1JDUC3G8J4,C6F5F409-9176-4488-83A1-0771710954C1,2023-09-28_10h07.33.849,WP_VExplicitOC_LH,2022.2.5,Win32,10.66666667,NA,NA,NA,NA,NA,NA,NA,NA,NA,NA,NA,NA,NA,NA,NA,NA,NA,NA,listen to music,006.png,NA,NA,NA,NA,NA,NA,NA,NA,NA,NA,NA,NA,NA,NA,NA,NA,57.03125,1.522,0,5,5,5,1,NA,NA,NA,NA,NA,NA,NA,NA,NA,NA,NA,NA,NA,NA,NA,NA
SUPAMT86355,3EFVCAY5L9833208Z9JZ1JDUC3G8J4,C6F5F409-9176-4488-83A1-0771710954C1,2023-09-28_10h07.33.849,WP_VExplicitOC_LH,2022.2.5,Win32,10.66666667,NA,NA,NA,NA,NA,NA,NA,NA,NA,NA,NA,NA,NA,NA,NA,NA,NA,NA,daydream,007.png,NA,NA,NA,NA,NA,NA,NA,NA,NA,NA,NA,NA,NA,NA,NA,NA,79.6875,1.752,0,6,6,6,1,NA,NA,NA,NA,NA,NA,NA,NA,NA,NA,NA,NA,NA,NA,NA,NA
SUPAMT86355,3EFVCAY5L9833208Z9JZ1JDUC3G8J4,C6F5F409-9176-4488-83A1-0771710954C1,2023-09-28_10h07.33.849,WP_VExplicitOC_LH,2022.2.5,Win32,10.66666667,NA,NA,NA,NA,NA,NA,NA,NA,NA,NA,NA,NA,NA,NA,NA,NA,NA,NA,watch a short animation,008.png,NA,NA,NA,NA,NA,NA,NA,NA,NA,NA,NA,NA,NA,NA,NA,NA,21.61458333,1.929,0,7,7,7,1,NA,NA,NA,NA,NA,NA,NA,NA,NA,NA,NA,NA,NA,NA,NA,NA
SUPAMT86355,3EFVCAY5L9833208Z9JZ1JDUC3G8J4,C6F5F409-9176-4488-83A1-0771710954C1,2023-09-28_10h07.33.849,WP_VExplicitOC_LH,2022.2.5,Win32,10.66666667,NA,NA,NA,NA,NA,NA,NA,NA,NA,NA,NA,NA,NA,NA,NA,NA,NA,NA,read a novel,009.png,NA,NA,NA,NA,NA,NA,NA,NA,NA,NA,NA,NA,NA,NA,NA,NA,98.4375,1.96,0,8,8,8,1,NA,NA,NA,NA,NA,NA,NA,NA,NA,NA,NA,NA,NA,NA,NA,NA
SUPAMT86355,3EFVCAY5L9833208Z9JZ1JDUC3G8J4,C6F5F409-9176-4488-83A1-0771710954C1,2023-09-28_10h07.33.849,WP_VExplicitOC_LH,2022.2.5,Win32,10.66666667,NA,NA,NA,NA,NA,NA,NA,NA,NA,NA,NA,NA,NA,NA,NA,NA,NA,NA,read the news,010.png,NA,NA,NA,NA,NA,NA,NA,NA,NA,NA,NA,NA,NA,NA,NA,NA,100,2.348,0,9,9,9,1,NA,NA,NA,NA,NA,NA,NA,NA,NA,NA,NA,NA,NA,NA,NA,NA
SUPAMT86355,3EFVCAY5L9833208Z9JZ1JDUC3G8J4,C6F5F409-9176-4488-83A1-0771710954C1,2023-09-28_10h07.33.849,WP_VExplicitOC_LH,2022.2.5,Win32,10.66666667,NA,NA,NA,NA,NA,NA,NA,NA,NA,NA,NA,NA,NA,NA,NA,NA,NA,NA,NA,NA,NA,NA,NA,NA,NA,NA,NA,NA,NA,NA,NA,NA,NA,NA,NA,NA,NA,NA,NA,NA,NA,NA,NA,listen to music,NA,NA,NA,NA,NA,NA,NA,NA,NA,NA,NA,NA,NA,NA,NA
SUPAMT86355,3EFVCAY5L9833208Z9JZ1JDUC3G8J4,C6F5F409-9176-4488-83A1-0771710954C1,2023-09-28_10h07.33.849,WP_VExplicitOC_LH,2022.2.5,Win32,10.66666667,40.10416667,5.601,2.103,NA,NA,NA,NA,NA,bored,"bored, not bored","more bored, less bored",NA,NA,NA,NA,NA,NA,NA,NA,NA,NA,NA,NA,NA,NA,NA,NA,NA,NA,NA,NA,NA,NA,NA,NA,NA,NA,NA,NA,NA,NA,NA,NA,NA,0,0,0,2,1,NA,NA,NA,NA,NA,NA,NA,NA,NA,NA
SUPAMT86355,3EFVCAY5L9833208Z9JZ1JDUC3G8J4,C6F5F409-9176-4488-83A1-0771710954C1,2023-09-28_10h07.33.849,WP_VExplicitOC_LH,2022.2.5,Win32,10.66666667,67.70833333,4.336,2.055,NA,NA,NA,NA,NA,happy,"unhappy, happy","less happy, more happy",NA,NA,NA,NA,NA,NA,NA,NA,NA,NA,NA,NA,NA,NA,NA,NA,NA,NA,NA,NA,NA,NA,NA,NA,NA,NA,NA,NA,NA,NA,NA,NA,NA,0,1,1,0,1,NA,NA,NA,NA,NA,NA,NA,NA,NA,NA
SUPAMT86355,3EFVCAY5L9833208Z9JZ1JDUC3G8J4,C6F5F409-9176-4488-83A1-0771710954C1,2023-09-28_10h07.33.849,WP_VExplicitOC_LH,2022.2.5,Win32,10.66666667,-28.38541667,6.45,2.099,NA,NA,NA,NA,NA,frustrated,"frustrated, not frustrated","more frustrated, less frustrated",NA,NA,NA,NA,NA,NA,NA,NA,NA,NA,NA,NA,NA,NA,NA,NA,NA,NA,NA,NA,NA,NA,NA,NA,NA,NA,NA,NA,NA,NA,NA,NA,NA,0,2,2,1,1,NA,NA,NA,NA,NA,NA,NA,NA,NA,NA
SUPAMT86355,3EFVCAY5L9833208Z9JZ1JDUC3G8J4,C6F5F409-9176-4488-83A1-0771710954C1,2023-09-28_10h07.33.849,WP_VExplicitOC_LH,2022.2.5,Win32,10.66666667,NA,NA,NA,NA,NA,NA,NA,NA,NA,NA,NA,NA,NA,NA,NA,NA,NA,NA,NA,NA,NA,NA,NA,NA,NA,NA,NA,NA,NA,NA,NA,NA,NA,NA,NA,NA,NA,NA,NA,NA,NA,NA,NA,NA,NA,NA,NA,NA,NA,NA,NA,NA,NA,NA,NA,NA,NA,NA,NA
SUPAMT86355,3EFVCAY5L9833208Z9JZ1JDUC3G8J4,C6F5F409-9176-4488-83A1-0771710954C1,2023-09-28_10h07.33.849,WP_VExplicitOC_LH,2022.2.5,Win32,10.66666667,NA,NA,NA,NA,NA,NA,NA,NA,NA,NA,NA,NA,NA,NA,NA,NA,NA,NA,NA,NA,NA,NA,NA,NA,NA,NA,NA,NA,NA,NA,NA,NA,NA,NA,NA,NA,NA,NA,NA,NA,NA,NA,NA,NA,NA,NA,NA,NA,NA,NA,NA,NA,NA,NA,NA,NA,NA,NA,NA
SUPAMT86355,3EFVCAY5L9833208Z9JZ1JDUC3G8J4,C6F5F409-9176-4488-83A1-0771710954C1,2023-09-28_10h07.33.849,WP_VExplicitOC_LH,2022.2.5,Win32,10.66666667,NA,NA,2.093,NA,NA,NA,NA,NA,bored,"bored, not bored","more bored, less bored",NA,NA,NA,NA,NA,NA,NA,NA,NA,NA,NA,NA,NA,NA,NA,NA,NA,NA,NA,NA,NA,NA,NA,NA,NA,NA,NA,NA,NA,NA,NA,NA,NA,NA,NA,NA,NA,NA,0,0,0,2,1,NA,NA,NA,NA,NA
SUPAMT86355,3EFVCAY5L9833208Z9JZ1JDUC3G8J4,C6F5F409-9176-4488-83A1-0771710954C1,2023-09-28_10h07.33.849,WP_VExplicitOC_LH,2022.2.5,Win32,10.66666667,38.28125,5.103,2.115,NA,NA,NA,NA,NA,frustrated,"frustrated, not frustrated","more frustrated, less frustrated",NA,NA,NA,NA,NA,NA,NA,NA,NA,NA,NA,NA,NA,NA,NA,NA,NA,NA,NA,NA,NA,NA,NA,NA,NA,NA,NA,NA,NA,NA,NA,NA,NA,NA,NA,NA,NA,NA,0,1,1,1,1,NA,NA,NA,NA,NA
SUPAMT86355,3EFVCAY5L9833208Z9JZ1JDUC3G8J4,C6F5F409-9176-4488-83A1-0771710954C1,2023-09-28_10h07.33.849,WP_VExplicitOC_LH,2022.2.5,Win32,10.66666667,80.98958333,5.422,2.166,NA,NA,NA,NA,NA,happy,"unhappy, happy","less happy, more happy",NA,NA,NA,NA,NA,NA,NA,NA,NA,NA,NA,NA,NA,NA,NA,NA,NA,NA,NA,NA,NA,NA,NA,NA,NA,NA,NA,NA,NA,NA,NA,NA,NA,NA,NA,NA,NA,NA,0,2,2,0,1,NA,NA,NA,NA,NA
SUPAMT86355,3EFVCAY5L9833208Z9JZ1JDUC3G8J4,C6F5F409-9176-4488-83A1-0771710954C1,2023-09-28_10h07.33.849,WP_VExplicitOC_LH,2022.2.5,Win32,10.66666667,NA,NA,NA,NA,NA,NA,NA,NA,NA,NA,NA,NA,NA,NA,NA,NA,NA,NA,NA,NA,NA,NA,NA,NA,NA,NA,NA,NA,NA,NA,NA,NA,NA,NA,NA,NA,NA,NA,NA,NA,NA,NA,NA,NA,NA,NA,NA,NA,NA,NA,NA,NA,NA,NA,0,0,0,0,1
SUPAMT86355,3EFVCAY5L9833208Z9JZ1JDUC3G8J4,C6F5F409-9176-4488-83A1-0771710954C1,2023-09-28_10h07.33.849,WP_VExplicitOC_LH,2022.2.5,Win32,10.66666667,-100,7.082,2.017,NA,NA,NA,NA,NA,bored,"bored, not bored","more bored, less bored",NA,NA,NA,NA,NA,NA,NA,NA,NA,NA,NA,NA,NA,NA,NA,NA,NA,NA,NA,NA,NA,NA,NA,NA,NA,NA,NA,NA,NA,NA,NA,NA,NA,NA,NA,NA,NA,NA,0,0,0,2,1,NA,NA,NA,NA,NA
SUPAMT86355,3EFVCAY5L9833208Z9JZ1JDUC3G8J4,C6F5F409-9176-4488-83A1-0771710954C1,2023-09-28_10h07.33.849,WP_VExplicitOC_LH,2022.2.5,Win32,10.66666667,100,5.219,2.07,NA,NA,NA,NA,NA,frustrated,"frustrated, not frustrated","more frustrated, less frustrated",NA,NA,NA,NA,NA,NA,NA,NA,NA,NA,NA,NA,NA,NA,NA,NA,NA,NA,NA,NA,NA,NA,NA,NA,NA,NA,NA,NA,NA,NA,NA,NA,NA,NA,NA,NA,NA,NA,0,1,1,1,1,NA,NA,NA,NA,NA
SUPAMT86355,3EFVCAY5L9833208Z9JZ1JDUC3G8J4,C6F5F409-9176-4488-83A1-0771710954C1,2023-09-28_10h07.33.849,WP_VExplicitOC_LH,2022.2.5,Win32,10.66666667,100,4.805,2.033,NA,NA,NA,NA,NA,happy,"unhappy, happy","less happy, more happy",NA,NA,NA,NA,NA,NA,NA,NA,NA,NA,NA,NA,NA,NA,NA,NA,NA,NA,NA,NA,NA,NA,NA,NA,NA,NA,NA,NA,NA,NA,NA,NA,NA,NA,NA,NA,NA,NA,0,2,2,0,1,NA,NA,NA,NA,NA
SUPAMT86355,3EFVCAY5L9833208Z9JZ1JDUC3G8J4,C6F5F409-9176-4488-83A1-0771710954C1,2023-09-28_10h07.33.849,WP_VExplicitOC_LH,2022.2.5,Win32,10.66666667,NA,NA,NA,NA,NA,NA,NA,NA,NA,NA,NA,NA,NA,NA,NA,NA,NA,NA,NA,NA,NA,NA,NA,NA,NA,NA,NA,NA,NA,NA,NA,NA,NA,NA,NA,NA,NA,NA,NA,NA,NA,NA,NA,NA,NA,NA,NA,NA,NA,NA,NA,NA,NA,NA,1,0,1,0,1
SUPAMT86355,3EFVCAY5L9833208Z9JZ1JDUC3G8J4,C6F5F409-9176-4488-83A1-0771710954C1,2023-09-28_10h07.33.849,WP_VExplicitOC_LH,2022.2.5,Win32,10.66666667,-67.44791667,6.364,2.061,NA,NA,NA,NA,NA,frustrated,"frustrated, not frustrated","more frustrated, less frustrated",NA,NA,NA,NA,NA,NA,NA,NA,NA,NA,NA,NA,NA,NA,NA,NA,NA,NA,NA,NA,NA,NA,NA,NA,NA,NA,NA,NA,NA,NA,NA,NA,NA,NA,NA,NA,NA,NA,0,0,0,1,1,NA,NA,NA,NA,NA
SUPAMT86355,3EFVCAY5L9833208Z9JZ1JDUC3G8J4,C6F5F409-9176-4488-83A1-0771710954C1,2023-09-28_10h07.33.849,WP_VExplicitOC_LH,2022.2.5,Win32,10.66666667,60.15625,4.855,2.024,NA,NA,NA,NA,NA,happy,"unhappy, happy","less happy, more happy",NA,NA,NA,NA,NA,NA,NA,NA,NA,NA,NA,NA,NA,NA,NA,NA,NA,NA,NA,NA,NA,NA,NA,NA,NA,NA,NA,NA,NA,NA,NA,NA,NA,NA,NA,NA,NA,NA,0,1,1,0,1,NA,NA,NA,NA,NA
SUPAMT86355,3EFVCAY5L9833208Z9JZ1JDUC3G8J4,C6F5F409-9176-4488-83A1-0771710954C1,2023-09-28_10h07.33.849,WP_VExplicitOC_LH,2022.2.5,Win32,10.66666667,-77.08333333,7.163,2.158,NA,NA,NA,NA,NA,bored,"bored, not bored","more bored, less bored",NA,NA,NA,NA,NA,NA,NA,NA,NA,NA,NA,NA,NA,NA,NA,NA,NA,NA,NA,NA,NA,NA,NA,NA,NA,NA,NA,NA,NA,NA,NA,NA,NA,NA,NA,NA,NA,NA,0,2,2,2,1,NA,NA,NA,NA,NA
SUPAMT86355,3EFVCAY5L9833208Z9JZ1JDUC3G8J4,C6F5F409-9176-4488-83A1-0771710954C1,2023-09-28_10h07.33.849,WP_VExplicitOC_LH,2022.2.5,Win32,10.66666667,NA,NA,NA,NA,NA,NA,NA,NA,NA,NA,NA,NA,NA,NA,NA,NA,NA,NA,NA,NA,NA,NA,NA,NA,NA,NA,NA,NA,NA,NA,NA,NA,NA,NA,NA,NA,NA,NA,NA,NA,NA,NA,NA,NA,NA,NA,NA,NA,NA,NA,NA,NA,NA,NA,2,0,2,0,1
SUPAMT86355,3EFVCAY5L9833208Z9JZ1JDUC3G8J4,C6F5F409-9176-4488-83A1-0771710954C1,2023-09-28_10h07.33.849,WP_VExplicitOC_LH,2022.2.5,Win32,10.66666667,-35.41666667,5.278,2.132,NA,NA,NA,NA,NA,frustrated,"frustrated, not frustrated","more frustrated, less frustrated",NA,NA,NA,NA,NA,NA,NA,NA,NA,NA,NA,NA,NA,NA,NA,NA,NA,NA,NA,NA,NA,NA,NA,NA,NA,NA,NA,NA,NA,NA,NA,NA,NA,NA,NA,NA,NA,NA,0,0,0,1,1,NA,NA,NA,NA,NA
SUPAMT86355,3EFVCAY5L9833208Z9JZ1JDUC3G8J4,C6F5F409-9176-4488-83A1-0771710954C1,2023-09-28_10h07.33.849,WP_VExplicitOC_LH,2022.2.5,Win32,10.66666667,53.90625,5,2.148,NA,NA,NA,NA,NA,happy,"unhappy, happy","less happy, more happy",NA,NA,NA,NA,NA,NA,NA,NA,NA,NA,NA,NA,NA,NA,NA,NA,NA,NA,NA,NA,NA,NA,NA,NA,NA,NA,NA,NA,NA,NA,NA,NA,NA,NA,NA,NA,NA,NA,0,1,1,0,1,NA,NA,NA,NA,NA
SUPAMT86355,3EFVCAY5L9833208Z9JZ1JDUC3G8J4,C6F5F409-9176-4488-83A1-0771710954C1,2023-09-28_10h07.33.849,WP_VExplicitOC_LH,2022.2.5,Win32,10.66666667,-50.78125,5.232,2.058,NA,NA,NA,NA,NA,bored,"bored, not bored","more bored, less bored",NA,NA,NA,NA,NA,NA,NA,NA,NA,NA,NA,NA,NA,NA,NA,NA,NA,NA,NA,NA,NA,NA,NA,NA,NA,NA,NA,NA,NA,NA,NA,NA,NA,NA,NA,NA,NA,NA,0,2,2,2,1,NA,NA,NA,NA,NA
SUPAMT86355,3EFVCAY5L9833208Z9JZ1JDUC3G8J4,C6F5F409-9176-4488-83A1-0771710954C1,2023-09-28_10h07.33.849,WP_VExplicitOC_LH,2022.2.5,Win32,10.66666667,NA,NA,NA,NA,NA,NA,NA,NA,NA,NA,NA,NA,NA,NA,NA,NA,NA,NA,NA,NA,NA,NA,NA,NA,NA,NA,NA,NA,NA,NA,NA,NA,NA,NA,NA,NA,NA,NA,NA,NA,NA,NA,NA,NA,NA,NA,NA,NA,NA,NA,NA,NA,NA,NA,3,0,3,0,1
SUPAMT86355,3EFVCAY5L9833208Z9JZ1JDUC3G8J4,C6F5F409-9176-4488-83A1-0771710954C1,2023-09-28_10h07.33.849,WP_VExplicitOC_LH,2022.2.5,Win32,10.66666667,NA,NA,2.117,NA,NA,NA,NA,NA,bored,"bored, not bored","more bored, less bored",NA,NA,NA,NA,NA,NA,NA,NA,NA,NA,NA,NA,NA,NA,NA,NA,NA,NA,NA,NA,NA,NA,NA,NA,NA,NA,NA,NA,NA,NA,NA,NA,NA,NA,NA,NA,NA,NA,0,0,0,2,1,NA,NA,NA,NA,NA
SUPAMT86355,3EFVCAY5L9833208Z9JZ1JDUC3G8J4,C6F5F409-9176-4488-83A1-0771710954C1,2023-09-28_10h07.33.849,WP_VExplicitOC_LH,2022.2.5,Win32,10.66666667,-54.94791667,4.611,2.162,NA,NA,NA,NA,NA,frustrated,"frustrated, not frustrated","more frustrated, less frustrated",NA,NA,NA,NA,NA,NA,NA,NA,NA,NA,NA,NA,NA,NA,NA,NA,NA,NA,NA,NA,NA,NA,NA,NA,NA,NA,NA,NA,NA,NA,NA,NA,NA,NA,NA,NA,NA,NA,0,1,1,1,1,NA,NA,NA,NA,NA
SUPAMT86355,3EFVCAY5L9833208Z9JZ1JDUC3G8J4,C6F5F409-9176-4488-83A1-0771710954C1,2023-09-28_10h07.33.849,WP_VExplicitOC_LH,2022.2.5,Win32,10.66666667,67.44791667,4.034,2.08,NA,NA,NA,NA,NA,happy,"unhappy, happy","less happy, more happy",NA,NA,NA,NA,NA,NA,NA,NA,NA,NA,NA,NA,NA,NA,NA,NA,NA,NA,NA,NA,NA,NA,NA,NA,NA,NA,NA,NA,NA,NA,NA,NA,NA,NA,NA,NA,NA,NA,0,2,2,0,1,NA,NA,NA,NA,NA
SUPAMT86355,3EFVCAY5L9833208Z9JZ1JDUC3G8J4,C6F5F409-9176-4488-83A1-0771710954C1,2023-09-28_10h07.33.849,WP_VExplicitOC_LH,2022.2.5,Win32,10.66666667,NA,NA,NA,NA,NA,NA,NA,NA,NA,NA,NA,NA,NA,NA,NA,NA,NA,NA,NA,NA,NA,NA,NA,NA,NA,NA,NA,NA,NA,NA,NA,NA,NA,NA,NA,NA,NA,NA,NA,NA,NA,NA,NA,NA,NA,NA,NA,NA,NA,NA,NA,NA,NA,NA,4,0,4,0,1
SUPAMT86355,3EFVCAY5L9833208Z9JZ1JDUC3G8J4,C6F5F409-9176-4488-83A1-0771710954C1,2023-09-28_10h07.33.849,WP_VExplicitOC_LH,2022.2.5,Win32,10.66666667,NA,NA,2.104,NA,NA,NA,NA,NA,bored,"bored, not bored","more bored, less bored",NA,NA,NA,NA,NA,NA,NA,NA,NA,NA,NA,NA,NA,NA,NA,NA,NA,NA,NA,NA,NA,NA,NA,NA,NA,NA,NA,NA,NA,NA,NA,NA,NA,NA,NA,NA,NA,NA,0,0,0,2,1,NA,NA,NA,NA,NA
SUPAMT86355,3EFVCAY5L9833208Z9JZ1JDUC3G8J4,C6F5F409-9176-4488-83A1-0771710954C1,2023-09-28_10h07.33.849,WP_VExplicitOC_LH,2022.2.5,Win32,10.66666667,-50.52083333,4.866,2.005,NA,NA,NA,NA,NA,frustrated,"frustrated, not frustrated","more frustrated, less frustrated",NA,NA,NA,NA,NA,NA,NA,NA,NA,NA,NA,NA,NA,NA,NA,NA,NA,NA,NA,NA,NA,NA,NA,NA,NA,NA,NA,NA,NA,NA,NA,NA,NA,NA,NA,NA,NA,NA,0,1,1,1,1,NA,NA,NA,NA,NA
SUPAMT86355,3EFVCAY5L9833208Z9JZ1JDUC3G8J4,C6F5F409-9176-4488-83A1-0771710954C1,2023-09-28_10h07.33.849,WP_VExplicitOC_LH,2022.2.5,Win32,10.66666667,NA,NA,2.062,NA,NA,NA,NA,NA,happy,"unhappy, happy","less happy, more happy",NA,NA,NA,NA,NA,NA,NA,NA,NA,NA,NA,NA,NA,NA,NA,NA,NA,NA,NA,NA,NA,NA,NA,NA,NA,NA,NA,NA,NA,NA,NA,NA,NA,NA,NA,NA,NA,NA,0,2,2,0,1,NA,NA,NA,NA,NA
SUPAMT86355,3EFVCAY5L9833208Z9JZ1JDUC3G8J4,C6F5F409-9176-4488-83A1-0771710954C1,2023-09-28_10h07.33.849,WP_VExplicitOC_LH,2022.2.5,Win32,10.66666667,NA,NA,NA,NA,NA,NA,NA,NA,NA,NA,NA,NA,NA,NA,NA,NA,NA,NA,NA,NA,NA,NA,NA,NA,NA,NA,NA,NA,NA,NA,NA,NA,NA,NA,NA,NA,NA,NA,NA,NA,NA,NA,NA,NA,NA,NA,NA,NA,NA,NA,NA,NA,NA,NA,5,0,5,0,1
SUPAMT86355,3EFVCAY5L9833208Z9JZ1JDUC3G8J4,C6F5F409-9176-4488-83A1-0771710954C1,2023-09-28_10h07.33.849,WP_VExplicitOC_LH,2022.2.5,Win32,10.66666667,100,4.152,2.092,NA,NA,NA,NA,NA,happy,"unhappy, happy","less happy, more happy",NA,NA,NA,NA,NA,NA,NA,NA,NA,NA,NA,NA,NA,NA,NA,NA,NA,NA,NA,NA,NA,NA,NA,NA,NA,NA,NA,NA,NA,NA,NA,NA,NA,NA,NA,NA,NA,NA,0,0,0,0,1,NA,NA,NA,NA,NA
SUPAMT86355,3EFVCAY5L9833208Z9JZ1JDUC3G8J4,C6F5F409-9176-4488-83A1-0771710954C1,2023-09-28_10h07.33.849,WP_VExplicitOC_LH,2022.2.5,Win32,10.66666667,-51.82291667,5,2.17,NA,NA,NA,NA,NA,bored,"bored, not bored","more bored, less bored",NA,NA,NA,NA,NA,NA,NA,NA,NA,NA,NA,NA,NA,NA,NA,NA,NA,NA,NA,NA,NA,NA,NA,NA,NA,NA,NA,NA,NA,NA,NA,NA,NA,NA,NA,NA,NA,NA,0,1,1,2,1,NA,NA,NA,NA,NA
SUPAMT86355,3EFVCAY5L9833208Z9JZ1JDUC3G8J4,C6F5F409-9176-4488-83A1-0771710954C1,2023-09-28_10h07.33.849,WP_VExplicitOC_LH,2022.2.5,Win32,10.66666667,79.16666667,4.412,2.091,NA,NA,NA,NA,NA,frustrated,"frustrated, not frustrated","more frustrated, less frustrated",NA,NA,NA,NA,NA,NA,NA,NA,NA,NA,NA,NA,NA,NA,NA,NA,NA,NA,NA,NA,NA,NA,NA,NA,NA,NA,NA,NA,NA,NA,NA,NA,NA,NA,NA,NA,NA,NA,0,2,2,1,1,NA,NA,NA,NA,NA
SUPAMT86355,3EFVCAY5L9833208Z9JZ1JDUC3G8J4,C6F5F409-9176-4488-83A1-0771710954C1,2023-09-28_10h07.33.849,WP_VExplicitOC_LH,2022.2.5,Win32,10.66666667,NA,NA,NA,NA,NA,NA,NA,NA,NA,NA,NA,NA,NA,NA,NA,NA,NA,NA,NA,NA,NA,NA,NA,NA,NA,NA,NA,NA,NA,NA,NA,NA,NA,NA,NA,NA,NA,NA,NA,NA,NA,NA,NA,NA,NA,NA,NA,NA,NA,NA,NA,NA,NA,NA,6,0,6,0,1
SUPAMT86355,3EFVCAY5L9833208Z9JZ1JDUC3G8J4,C6F5F409-9176-4488-83A1-0771710954C1,2023-09-28_10h07.33.849,WP_VExplicitOC_LH,2022.2.5,Win32,10.66666667,71.875,3.973,2.123,NA,NA,NA,NA,NA,happy,"unhappy, happy","less happy, more happy",NA,NA,NA,NA,NA,NA,NA,NA,NA,NA,NA,NA,NA,NA,NA,NA,NA,NA,NA,NA,NA,NA,NA,NA,NA,NA,NA,NA,NA,NA,NA,NA,NA,NA,NA,NA,NA,NA,0,0,0,0,1,NA,NA,NA,NA,NA
SUPAMT86355,3EFVCAY5L9833208Z9JZ1JDUC3G8J4,C6F5F409-9176-4488-83A1-0771710954C1,2023-09-28_10h07.33.849,WP_VExplicitOC_LH,2022.2.5,Win32,10.66666667,-33.59375,4.723,2.145,NA,NA,NA,NA,NA,bored,"bored, not bored","more bored, less bored",NA,NA,NA,NA,NA,NA,NA,NA,NA,NA,NA,NA,NA,NA,NA,NA,NA,NA,NA,NA,NA,NA,NA,NA,NA,NA,NA,NA,NA,NA,NA,NA,NA,NA,NA,NA,NA,NA,0,1,1,2,1,NA,NA,NA,NA,NA
SUPAMT86355,3EFVCAY5L9833208Z9JZ1JDUC3G8J4,C6F5F409-9176-4488-83A1-0771710954C1,2023-09-28_10h07.33.849,WP_VExplicitOC_LH,2022.2.5,Win32,10.66666667,NA,NA,2.119,NA,NA,NA,NA,NA,frustrated,"frustrated, not frustrated","more frustrated, less frustrated",NA,NA,NA,NA,NA,NA,NA,NA,NA,NA,NA,NA,NA,NA,NA,NA,NA,NA,NA,NA,NA,NA,NA,NA,NA,NA,NA,NA,NA,NA,NA,NA,NA,NA,NA,NA,NA,NA,0,2,2,1,1,NA,NA,NA,NA,NA
SUPAMT86355,3EFVCAY5L9833208Z9JZ1JDUC3G8J4,C6F5F409-9176-4488-83A1-0771710954C1,2023-09-28_10h07.33.849,WP_VExplicitOC_LH,2022.2.5,Win32,10.66666667,NA,NA,NA,NA,NA,NA,NA,NA,NA,NA,NA,NA,NA,NA,NA,NA,NA,NA,NA,NA,NA,NA,NA,NA,NA,NA,NA,NA,NA,NA,NA,NA,NA,NA,NA,NA,NA,NA,NA,NA,NA,NA,NA,NA,NA,NA,NA,NA,NA,NA,NA,NA,NA,NA,7,0,7,0,1
SUPAMT86355,3EFVCAY5L9833208Z9JZ1JDUC3G8J4,C6F5F409-9176-4488-83A1-0771710954C1,2023-09-28_10h07.33.849,WP_VExplicitOC_LH,2022.2.5,Win32,10.66666667,NA,NA,2.065,NA,NA,NA,NA,NA,frustrated,"frustrated, not frustrated","more frustrated, less frustrated",NA,NA,NA,NA,NA,NA,NA,NA,NA,NA,NA,NA,NA,NA,NA,NA,NA,NA,NA,NA,NA,NA,NA,NA,NA,NA,NA,NA,NA,NA,NA,NA,NA,NA,NA,NA,NA,NA,0,0,0,1,1,NA,NA,NA,NA,NA
SUPAMT86355,3EFVCAY5L9833208Z9JZ1JDUC3G8J4,C6F5F409-9176-4488-83A1-0771710954C1,2023-09-28_10h07.33.849,WP_VExplicitOC_LH,2022.2.5,Win32,10.66666667,NA,NA,2.125,NA,NA,NA,NA,NA,happy,"unhappy, happy","less happy, more happy",NA,NA,NA,NA,NA,NA,NA,NA,NA,NA,NA,NA,NA,NA,NA,NA,NA,NA,NA,NA,NA,NA,NA,NA,NA,NA,NA,NA,NA,NA,NA,NA,NA,NA,NA,NA,NA,NA,0,1,1,0,1,NA,NA,NA,NA,NA
SUPAMT86355,3EFVCAY5L9833208Z9JZ1JDUC3G8J4,C6F5F409-9176-4488-83A1-0771710954C1,2023-09-28_10h07.33.849,WP_VExplicitOC_LH,2022.2.5,Win32,10.66666667,-70.83333333,4.924,2.004,NA,NA,NA,NA,NA,bored,"bored, not bored","more bored, less bored",NA,NA,NA,NA,NA,NA,NA,NA,NA,NA,NA,NA,NA,NA,NA,NA,NA,NA,NA,NA,NA,NA,NA,NA,NA,NA,NA,NA,NA,NA,NA,NA,NA,NA,NA,NA,NA,NA,0,2,2,2,1,NA,NA,NA,NA,NA
SUPAMT86355,3EFVCAY5L9833208Z9JZ1JDUC3G8J4,C6F5F409-9176-4488-83A1-0771710954C1,2023-09-28_10h07.33.849,WP_VExplicitOC_LH,2022.2.5,Win32,10.66666667,NA,NA,NA,NA,NA,NA,NA,NA,NA,NA,NA,NA,NA,NA,NA,NA,NA,NA,NA,NA,NA,NA,NA,NA,NA,NA,NA,NA,NA,NA,NA,NA,NA,NA,NA,NA,NA,NA,NA,NA,NA,NA,NA,NA,NA,NA,NA,NA,NA,NA,NA,NA,NA,NA,8,0,8,0,1
SUPAMT86355,3EFVCAY5L9833208Z9JZ1JDUC3G8J4,C6F5F409-9176-4488-83A1-0771710954C1,2023-09-28_10h07.33.849,WP_VExplicitOC_LH,2022.2.5,Win32,10.66666667,-52.08333333,5.013,2.061,NA,NA,NA,NA,NA,bored,"bored, not bored","more bored, less bored",NA,NA,NA,NA,NA,NA,NA,NA,NA,NA,NA,NA,NA,NA,NA,NA,NA,NA,NA,NA,NA,NA,NA,NA,NA,NA,NA,NA,NA,NA,NA,NA,NA,NA,NA,NA,NA,NA,0,0,0,2,1,NA,NA,NA,NA,NA
SUPAMT86355,3EFVCAY5L9833208Z9JZ1JDUC3G8J4,C6F5F409-9176-4488-83A1-0771710954C1,2023-09-28_10h07.33.849,WP_VExplicitOC_LH,2022.2.5,Win32,10.66666667,NA,NA,2.022,NA,NA,NA,NA,NA,frustrated,"frustrated, not frustrated","more frustrated, less frustrated",NA,NA,NA,NA,NA,NA,NA,NA,NA,NA,NA,NA,NA,NA,NA,NA,NA,NA,NA,NA,NA,NA,NA,NA,NA,NA,NA,NA,NA,NA,NA,NA,NA,NA,NA,NA,NA,NA,0,1,1,1,1,NA,NA,NA,NA,NA
SUPAMT86355,3EFVCAY5L9833208Z9JZ1JDUC3G8J4,C6F5F409-9176-4488-83A1-0771710954C1,2023-09-28_10h07.33.849,WP_VExplicitOC_LH,2022.2.5,Win32,10.66666667,60.41666667,4.726,2.105,NA,NA,NA,NA,NA,happy,"unhappy, happy","less happy, more happy",NA,NA,NA,NA,NA,NA,NA,NA,NA,NA,NA,NA,NA,NA,NA,NA,NA,NA,NA,NA,NA,NA,NA,NA,NA,NA,NA,NA,NA,NA,NA,NA,NA,NA,NA,NA,NA,NA,0,2,2,0,1,NA,NA,NA,NA,NA
SUPAMT86355,3EFVCAY5L9833208Z9JZ1JDUC3G8J4,C6F5F409-9176-4488-83A1-0771710954C1,2023-09-28_10h07.33.849,WP_VExplicitOC_LH,2022.2.5,Win32,10.66666667,NA,NA,NA,NA,NA,NA,NA,NA,NA,NA,NA,NA,NA,NA,NA,NA,NA,NA,NA,NA,NA,NA,NA,NA,NA,NA,NA,NA,NA,NA,NA,NA,NA,NA,NA,NA,NA,NA,NA,NA,NA,NA,NA,NA,NA,NA,NA,NA,NA,NA,NA,NA,NA,NA,9,0,9,0,1
SUPAMT86355,3EFVCAY5L9833208Z9JZ1JDUC3G8J4,C6F5F409-9176-4488-83A1-0771710954C1,2023-09-28_10h07.33.849,WP_VExplicitOC_LH,2022.2.5,Win32,10.66666667,-47.91666667,5.854,2.033,NA,NA,NA,NA,NA,bored,"bored, not bored","more bored, less bored",NA,NA,NA,NA,NA,NA,NA,NA,NA,NA,NA,NA,NA,NA,NA,NA,NA,NA,NA,NA,NA,NA,NA,NA,NA,NA,NA,NA,NA,NA,NA,NA,NA,NA,NA,NA,NA,NA,0,0,0,2,1,NA,NA,NA,NA,NA
SUPAMT86355,3EFVCAY5L9833208Z9JZ1JDUC3G8J4,C6F5F409-9176-4488-83A1-0771710954C1,2023-09-28_10h07.33.849,WP_VExplicitOC_LH,2022.2.5,Win32,10.66666667,58.85416667,3.902,2.077,NA,NA,NA,NA,NA,happy,"unhappy, happy","less happy, more happy",NA,NA,NA,NA,NA,NA,NA,NA,NA,NA,NA,NA,NA,NA,NA,NA,NA,NA,NA,NA,NA,NA,NA,NA,NA,NA,NA,NA,NA,NA,NA,NA,NA,NA,NA,NA,NA,NA,0,1,1,0,1,NA,NA,NA,NA,NA
SUPAMT86355,3EFVCAY5L9833208Z9JZ1JDUC3G8J4,C6F5F409-9176-4488-83A1-0771710954C1,2023-09-28_10h07.33.849,WP_VExplicitOC_LH,2022.2.5,Win32,10.66666667,55.46875,3.665,2.058,NA,NA,NA,NA,NA,frustrated,"frustrated, not frustrated","more frustrated, less frustrated",NA,NA,NA,NA,NA,NA,NA,NA,NA,NA,NA,NA,NA,NA,NA,NA,NA,NA,NA,NA,NA,NA,NA,NA,NA,NA,NA,NA,NA,NA,NA,NA,NA,NA,NA,NA,NA,NA,0,2,2,1,1,NA,NA,NA,NA,NA
SUPAMT86355,3EFVCAY5L9833208Z9JZ1JDUC3G8J4,C6F5F409-9176-4488-83A1-0771710954C1,2023-09-28_10h07.33.849,WP_VExplicitOC_LH,2022.2.5,Win32,10.66666667,NA,NA,NA,NA,NA,NA,NA,NA,NA,NA,NA,NA,NA,NA,NA,NA,NA,NA,NA,NA,NA,NA,NA,NA,NA,NA,NA,NA,NA,NA,NA,NA,NA,NA,NA,NA,NA,NA,NA,NA,NA,NA,NA,NA,NA,NA,NA,NA,NA,NA,NA,NA,NA,NA,10,0,10,0,1
SUPAMT86355,3EFVCAY5L9833208Z9JZ1JDUC3G8J4,C6F5F409-9176-4488-83A1-0771710954C1,2023-09-28_10h07.33.849,WP_VExplicitOC_LH,2022.2.5,Win32,10.66666667,68.75,5.782,2.055,NA,NA,NA,NA,NA,happy,"unhappy, happy","less happy, more happy",NA,NA,NA,NA,NA,NA,NA,NA,NA,NA,NA,NA,NA,NA,NA,NA,NA,NA,NA,NA,NA,NA,NA,NA,NA,NA,NA,NA,NA,NA,NA,NA,NA,NA,NA,NA,NA,NA,0,0,0,0,1,NA,NA,NA,NA,NA
SUPAMT86355,3EFVCAY5L9833208Z9JZ1JDUC3G8J4,C6F5F409-9176-4488-83A1-0771710954C1,2023-09-28_10h07.33.849,WP_VExplicitOC_LH,2022.2.5,Win32,10.66666667,-48.4375,4.766,2.005,NA,NA,NA,NA,NA,bored,"bored, not bored","more bored, less bored",NA,NA,NA,NA,NA,NA,NA,NA,NA,NA,NA,NA,NA,NA,NA,NA,NA,NA,NA,NA,NA,NA,NA,NA,NA,NA,NA,NA,NA,NA,NA,NA,NA,NA,NA,NA,NA,NA,0,1,1,2,1,NA,NA,NA,NA,NA
SUPAMT86355,3EFVCAY5L9833208Z9JZ1JDUC3G8J4,C6F5F409-9176-4488-83A1-0771710954C1,2023-09-28_10h07.33.849,WP_VExplicitOC_LH,2022.2.5,Win32,10.66666667,45.3125,3.544,2.115,NA,NA,NA,NA,NA,frustrated,"frustrated, not frustrated","more frustrated, less frustrated",NA,NA,NA,NA,NA,NA,NA,NA,NA,NA,NA,NA,NA,NA,NA,NA,NA,NA,NA,NA,NA,NA,NA,NA,NA,NA,NA,NA,NA,NA,NA,NA,NA,NA,NA,NA,NA,NA,0,2,2,1,1,NA,NA,NA,NA,NA
SUPAMT86355,3EFVCAY5L9833208Z9JZ1JDUC3G8J4,C6F5F409-9176-4488-83A1-0771710954C1,2023-09-28_10h07.33.849,WP_VExplicitOC_LH,2022.2.5,Win32,10.66666667,NA,NA,NA,NA,NA,NA,NA,NA,NA,NA,NA,NA,NA,NA,NA,NA,NA,NA,NA,NA,NA,NA,NA,NA,NA,NA,NA,NA,NA,NA,NA,NA,NA,NA,NA,NA,NA,NA,NA,NA,NA,NA,NA,NA,NA,NA,NA,NA,NA,NA,NA,NA,NA,NA,11,0,11,0,1
SUPAMT86355,3EFVCAY5L9833208Z9JZ1JDUC3G8J4,C6F5F409-9176-4488-83A1-0771710954C1,2023-09-28_10h07.33.849,WP_VExplicitOC_LH,2022.2.5,Win32,10.66666667,48.17708333,5.106,2.062,NA,NA,NA,NA,NA,happy,"unhappy, happy","less happy, more happy",NA,NA,NA,NA,NA,NA,NA,NA,NA,NA,NA,NA,NA,NA,NA,NA,NA,NA,NA,NA,NA,NA,NA,NA,NA,NA,NA,NA,NA,NA,NA,NA,NA,NA,NA,NA,NA,NA,0,0,0,0,1,NA,NA,NA,NA,NA
SUPAMT86355,3EFVCAY5L9833208Z9JZ1JDUC3G8J4,C6F5F409-9176-4488-83A1-0771710954C1,2023-09-28_10h07.33.849,WP_VExplicitOC_LH,2022.2.5,Win32,10.66666667,-42.44791667,5.019,2.039,NA,NA,NA,NA,NA,bored,"bored, not bored","more bored, less bored",NA,NA,NA,NA,NA,NA,NA,NA,NA,NA,NA,NA,NA,NA,NA,NA,NA,NA,NA,NA,NA,NA,NA,NA,NA,NA,NA,NA,NA,NA,NA,NA,NA,NA,NA,NA,NA,NA,0,1,1,2,1,NA,NA,NA,NA,NA
SUPAMT86355,3EFVCAY5L9833208Z9JZ1JDUC3G8J4,C6F5F409-9176-4488-83A1-0771710954C1,2023-09-28_10h07.33.849,WP_VExplicitOC_LH,2022.2.5,Win32,10.66666667,73.4375,4.551,2.114,NA,NA,NA,NA,NA,frustrated,"frustrated, not frustrated","more frustrated, less frustrated",NA,NA,NA,NA,NA,NA,NA,NA,NA,NA,NA,NA,NA,NA,NA,NA,NA,NA,NA,NA,NA,NA,NA,NA,NA,NA,NA,NA,NA,NA,NA,NA,NA,NA,NA,NA,NA,NA,0,2,2,1,1,NA,NA,NA,NA,NA
SUPAMT86355,3EFVCAY5L9833208Z9JZ1JDUC3G8J4,C6F5F409-9176-4488-83A1-0771710954C1,2023-09-28_10h07.33.849,WP_VExplicitOC_LH,2022.2.5,Win32,10.66666667,NA,NA,NA,NA,NA,NA,NA,NA,NA,NA,NA,NA,NA,NA,NA,NA,NA,NA,NA,NA,NA,NA,NA,NA,NA,NA,NA,NA,NA,NA,NA,NA,NA,NA,NA,NA,NA,NA,NA,NA,NA,NA,NA,NA,NA,NA,NA,NA,NA,NA,NA,NA,NA,NA,12,0,12,0,1
SUPAMT86355,3EFVCAY5L9833208Z9JZ1JDUC3G8J4,C6F5F409-9176-4488-83A1-0771710954C1,2023-09-28_10h07.33.849,WP_VExplicitOC_LH,2022.2.5,Win32,10.66666667,48.69791667,4.909,2.086,NA,NA,NA,NA,NA,frustrated,"frustrated, not frustrated","more frustrated, less frustrated",NA,NA,NA,NA,NA,NA,NA,NA,NA,NA,NA,NA,NA,NA,NA,NA,NA,NA,NA,NA,NA,NA,NA,NA,NA,NA,NA,NA,NA,NA,NA,NA,NA,NA,NA,NA,NA,NA,0,0,0,1,1,NA,NA,NA,NA,NA
SUPAMT86355,3EFVCAY5L9833208Z9JZ1JDUC3G8J4,C6F5F409-9176-4488-83A1-0771710954C1,2023-09-28_10h07.33.849,WP_VExplicitOC_LH,2022.2.5,Win32,10.66666667,69.79166667,6.234,2.125,NA,NA,NA,NA,NA,happy,"unhappy, happy","less happy, more happy",NA,NA,NA,NA,NA,NA,NA,NA,NA,NA,NA,NA,NA,NA,NA,NA,NA,NA,NA,NA,NA,NA,NA,NA,NA,NA,NA,NA,NA,NA,NA,NA,NA,NA,NA,NA,NA,NA,0,1,1,0,1,NA,NA,NA,NA,NA
SUPAMT86355,3EFVCAY5L9833208Z9JZ1JDUC3G8J4,C6F5F409-9176-4488-83A1-0771710954C1,2023-09-28_10h07.33.849,WP_VExplicitOC_LH,2022.2.5,Win32,10.66666667,-40.625,5.626,2.088,NA,NA,NA,NA,NA,bored,"bored, not bored","more bored, less bored",NA,NA,NA,NA,NA,NA,NA,NA,NA,NA,NA,NA,NA,NA,NA,NA,NA,NA,NA,NA,NA,NA,NA,NA,NA,NA,NA,NA,NA,NA,NA,NA,NA,NA,NA,NA,NA,NA,0,2,2,2,1,NA,NA,NA,NA,NA
SUPAMT86355,3EFVCAY5L9833208Z9JZ1JDUC3G8J4,C6F5F409-9176-4488-83A1-0771710954C1,2023-09-28_10h07.33.849,WP_VExplicitOC_LH,2022.2.5,Win32,10.66666667,NA,NA,NA,NA,NA,NA,NA,NA,NA,NA,NA,NA,NA,NA,NA,NA,NA,NA,NA,NA,NA,NA,NA,NA,NA,NA,NA,NA,NA,NA,NA,NA,NA,NA,NA,NA,NA,NA,NA,NA,NA,NA,NA,NA,NA,NA,NA,NA,NA,NA,NA,NA,NA,NA,13,0,13,0,1
SUPAMT86355,3EFVCAY5L9833208Z9JZ1JDUC3G8J4,C6F5F409-9176-4488-83A1-0771710954C1,2023-09-28_10h07.33.849,WP_VExplicitOC_LH,2022.2.5,Win32,10.66666667,NA,NA,2.136,NA,NA,NA,NA,NA,bored,"bored, not bored","more bored, less bored",NA,NA,NA,NA,NA,NA,NA,NA,NA,NA,NA,NA,NA,NA,NA,NA,NA,NA,NA,NA,NA,NA,NA,NA,NA,NA,NA,NA,NA,NA,NA,NA,NA,NA,NA,NA,NA,NA,0,0,0,2,1,NA,NA,NA,NA,NA
SUPAMT86355,3EFVCAY5L9833208Z9JZ1JDUC3G8J4,C6F5F409-9176-4488-83A1-0771710954C1,2023-09-28_10h07.33.849,WP_VExplicitOC_LH,2022.2.5,Win32,10.66666667,61.45833333,3.745,2.069,NA,NA,NA,NA,NA,happy,"unhappy, happy","less happy, more happy",NA,NA,NA,NA,NA,NA,NA,NA,NA,NA,NA,NA,NA,NA,NA,NA,NA,NA,NA,NA,NA,NA,NA,NA,NA,NA,NA,NA,NA,NA,NA,NA,NA,NA,NA,NA,NA,NA,0,1,1,0,1,NA,NA,NA,NA,NA
SUPAMT86355,3EFVCAY5L9833208Z9JZ1JDUC3G8J4,C6F5F409-9176-4488-83A1-0771710954C1,2023-09-28_10h07.33.849,WP_VExplicitOC_LH,2022.2.5,Win32,10.66666667,NA,NA,2.149,NA,NA,NA,NA,NA,frustrated,"frustrated, not frustrated","more frustrated, less frustrated",NA,NA,NA,NA,NA,NA,NA,NA,NA,NA,NA,NA,NA,NA,NA,NA,NA,NA,NA,NA,NA,NA,NA,NA,NA,NA,NA,NA,NA,NA,NA,NA,NA,NA,NA,NA,NA,NA,0,2,2,1,1,NA,NA,NA,NA,NA
SUPAMT86355,3EFVCAY5L9833208Z9JZ1JDUC3G8J4,C6F5F409-9176-4488-83A1-0771710954C1,2023-09-28_10h07.33.849,WP_VExplicitOC_LH,2022.2.5,Win32,10.66666667,NA,NA,NA,NA,NA,NA,NA,NA,NA,NA,NA,NA,NA,NA,NA,NA,NA,NA,NA,NA,NA,NA,NA,NA,NA,NA,NA,NA,NA,NA,NA,NA,NA,NA,NA,NA,NA,NA,NA,NA,NA,NA,NA,NA,NA,NA,NA,NA,NA,NA,NA,NA,NA,NA,14,0,14,0,1
SUPAMT86355,3EFVCAY5L9833208Z9JZ1JDUC3G8J4,C6F5F409-9176-4488-83A1-0771710954C1,2023-09-28_10h07.33.849,WP_VExplicitOC_LH,2022.2.5,Win32,10.66666667,NA,NA,NA,NA,NA,NA,NA,NA,NA,NA,NA,NA,NA,NA,NA,NA,NA,NA,NA,NA,NA,NA,NA,NA,NA,NA,NA,NA,NA,NA,NA,NA,NA,NA,NA,NA,NA,NA,NA,NA,NA,NA,NA,NA,NA,NA,NA,NA,NA,NA,NA,NA,NA,NA,NA,NA,NA,NA,NA
