participant,session,completion,date,expName,psychopyVersion,OS,frameRate,rating_all.response,rating_all.rt,rating_all.tStart,rndRat1.thisRepN,rndRat1.thisTrialN,rndRat1.thisN,rndRat1.thisIndex,rndRat1.ran,Emo,Labs,Labs2,rating_alt.response,rating_alt.rt,AltC.thisRepN,AltC.thisTrialN,AltC.thisN,AltC.thisIndex,AltC.ran,alt_choices,pic_choices,TopAlt_Choice,rndRat2.thisRepN,rndRat2.thisTrialN,rndRat2.thisN,rndRat2.thisIndex,rndRat2.ran,rndRat3.thisRepN,rndRat3.thisTrialN,rndRat3.thisN,rndRat3.thisIndex,rndRat3.ran,trials_FC_H.thisRepN,trials_FC_H.thisTrialN,trials_FC_H.thisN,trials_FC_H.thisIndex,trials_FC_H.ran,rating_alt_2.response,rating_alt_2.rt,AltC2.thisRepN,AltC2.thisTrialN,AltC2.thisN,AltC2.thisIndex,AltC2.ran,BottomAlt_Choice,rndRat4.thisRepN,rndRat4.thisTrialN,rndRat4.thisN,rndRat4.thisIndex,rndRat4.ran,rndRat5.thisRepN,rndRat5.thisTrialN,rndRat5.thisN,rndRat5.thisIndex,rndRat5.ran,trials_FC_L.thisRepN,trials_FC_L.thisTrialN,trials_FC_L.thisN,trials_FC_L.thisIndex,trials_FC_L.ran
SUPAMT80310,3Q5ZZ9ZEVUEVW3LNA7F509UPU2L58F,ADB4A718-69F9-4D56-83F7-015C79E02D7C,2023-09-28_12h10.14.008,WP_VExplicitOC_HL,2022.2.5,Win32,20.03124875,NA,NA,NA,NA,NA,NA,NA,NA,NA,NA,NA,NA,NA,NA,NA,NA,NA,NA,NA,NA,NA,NA,NA,NA,NA,NA,NA,NA,NA,NA,NA,NA,NA,NA,NA,NA,NA,NA,NA,NA,NA,NA,NA,NA,NA,NA,NA,NA,NA,NA,NA,NA,NA,NA,NA,NA,NA,NA,NA
SUPAMT80310,3Q5ZZ9ZEVUEVW3LNA7F509UPU2L58F,ADB4A718-69F9-4D56-83F7-015C79E02D7C,2023-09-28_12h10.14.008,WP_VExplicitOC_HL,2022.2.5,Win32,20.03124875,NA,NA,NA,NA,NA,NA,NA,NA,NA,NA,NA,NA,NA,NA,NA,NA,NA,NA,NA,NA,NA,NA,NA,NA,NA,NA,NA,NA,NA,NA,NA,NA,NA,NA,NA,NA,NA,NA,NA,NA,NA,NA,NA,NA,NA,NA,NA,NA,NA,NA,NA,NA,NA,NA,NA,NA,NA,NA,NA
SUPAMT80310,3Q5ZZ9ZEVUEVW3LNA7F509UPU2L58F,ADB4A718-69F9-4D56-83F7-015C79E02D7C,2023-09-28_12h10.14.008,WP_VExplicitOC_HL,2022.2.5,Win32,20.03124875,NA,NA,NA,NA,NA,NA,NA,NA,NA,NA,NA,NA,NA,NA,NA,NA,NA,NA,NA,NA,NA,NA,NA,NA,NA,NA,NA,NA,NA,NA,NA,NA,NA,NA,NA,NA,NA,NA,NA,NA,NA,NA,NA,NA,NA,NA,NA,NA,NA,NA,NA,NA,NA,NA,NA,NA,NA,NA,NA
SUPAMT80310,3Q5ZZ9ZEVUEVW3LNA7F509UPU2L58F,ADB4A718-69F9-4D56-83F7-015C79E02D7C,2023-09-28_12h10.14.008,WP_VExplicitOC_HL,2022.2.5,Win32,20.03124875,-99.57567185,3.9229,2.0433,0,0,0,2,1,bored,"bored, not bored","more bored, less bored",NA,NA,NA,NA,NA,NA,NA,NA,NA,NA,NA,NA,NA,NA,NA,NA,NA,NA,NA,NA,NA,NA,NA,NA,NA,NA,NA,NA,NA,NA,NA,NA,NA,NA,NA,NA,NA,NA,NA,NA,NA,NA,NA,NA,NA,NA,NA,NA
SUPAMT80310,3Q5ZZ9ZEVUEVW3LNA7F509UPU2L58F,ADB4A718-69F9-4D56-83F7-015C79E02D7C,2023-09-28_12h10.14.008,WP_VExplicitOC_HL,2022.2.5,Win32,20.03124875,-97.08627488,4.539,2.0041,0,1,1,0,1,happy,"unhappy, happy","less happy, more happy",NA,NA,NA,NA,NA,NA,NA,NA,NA,NA,NA,NA,NA,NA,NA,NA,NA,NA,NA,NA,NA,NA,NA,NA,NA,NA,NA,NA,NA,NA,NA,NA,NA,NA,NA,NA,NA,NA,NA,NA,NA,NA,NA,NA,NA,NA,NA,NA
SUPAMT80310,3Q5ZZ9ZEVUEVW3LNA7F509UPU2L58F,ADB4A718-69F9-4D56-83F7-015C79E02D7C,2023-09-28_12h10.14.008,WP_VExplicitOC_HL,2022.2.5,Win32,20.03124875,-23.30974919,4.3943,2.0146,0,2,2,1,1,frustrated,"frustrated, not frustrated","more frustrated, less frustrated",NA,NA,NA,NA,NA,NA,NA,NA,NA,NA,NA,NA,NA,NA,NA,NA,NA,NA,NA,NA,NA,NA,NA,NA,NA,NA,NA,NA,NA,NA,NA,NA,NA,NA,NA,NA,NA,NA,NA,NA,NA,NA,NA,NA,NA,NA,NA,NA
SUPAMT80310,3Q5ZZ9ZEVUEVW3LNA7F509UPU2L58F,ADB4A718-69F9-4D56-83F7-015C79E02D7C,2023-09-28_12h10.14.008,WP_VExplicitOC_HL,2022.2.5,Win32,20.03124875,NA,NA,NA,NA,NA,NA,NA,NA,NA,NA,NA,NA,NA,NA,NA,NA,NA,NA,NA,NA,NA,NA,NA,NA,NA,NA,NA,NA,NA,NA,NA,NA,NA,NA,NA,NA,NA,NA,NA,NA,NA,NA,NA,NA,NA,NA,NA,NA,NA,NA,NA,NA,NA,NA,NA,NA,NA,NA,NA
SUPAMT80310,3Q5ZZ9ZEVUEVW3LNA7F509UPU2L58F,ADB4A718-69F9-4D56-83F7-015C79E02D7C,2023-09-28_12h10.14.008,WP_VExplicitOC_HL,2022.2.5,Win32,20.03124875,NA,NA,NA,NA,NA,NA,NA,NA,NA,NA,NA,NA,NA,NA,NA,NA,NA,NA,NA,NA,NA,NA,NA,NA,NA,NA,NA,NA,NA,NA,NA,NA,NA,NA,NA,NA,NA,NA,NA,NA,NA,NA,NA,NA,NA,NA,NA,NA,NA,NA,NA,NA,NA,NA,NA,NA,NA,NA,NA
SUPAMT80310,3Q5ZZ9ZEVUEVW3LNA7F509UPU2L58F,ADB4A718-69F9-4D56-83F7-015C79E02D7C,2023-09-28_12h10.14.008,WP_VExplicitOC_HL,2022.2.5,Win32,20.03124875,NA,NA,NA,NA,NA,NA,NA,NA,NA,NA,NA,NA,NA,NA,NA,NA,NA,NA,NA,NA,NA,NA,NA,NA,NA,NA,NA,NA,NA,NA,NA,NA,NA,NA,NA,NA,NA,NA,NA,NA,NA,NA,NA,NA,NA,NA,NA,NA,NA,NA,NA,NA,NA,NA,NA,NA,NA,NA,NA
SUPAMT80310,3Q5ZZ9ZEVUEVW3LNA7F509UPU2L58F,ADB4A718-69F9-4D56-83F7-015C79E02D7C,2023-09-28_12h10.14.008,WP_VExplicitOC_HL,2022.2.5,Win32,20.03124875,NA,NA,NA,NA,NA,NA,NA,NA,NA,NA,NA,NA,NA,NA,NA,NA,NA,NA,NA,NA,NA,NA,NA,NA,NA,NA,NA,NA,NA,NA,NA,NA,NA,NA,NA,NA,NA,NA,NA,NA,NA,NA,NA,NA,NA,NA,NA,NA,NA,NA,NA,NA,NA,NA,NA,NA,NA,NA,NA
SUPAMT80310,3Q5ZZ9ZEVUEVW3LNA7F509UPU2L58F,ADB4A718-69F9-4D56-83F7-015C79E02D7C,2023-09-28_12h10.14.008,WP_VExplicitOC_HL,2022.2.5,Win32,20.03124875,NA,NA,NA,NA,NA,NA,NA,NA,NA,NA,NA,-93.01272639,4.0043,0,0,0,0,1,rest (looking at a fixed cross),001.png,NA,NA,NA,NA,NA,NA,NA,NA,NA,NA,NA,NA,NA,NA,NA,NA,NA,NA,NA,NA,NA,NA,NA,NA,NA,NA,NA,NA,NA,NA,NA,NA,NA,NA,NA,NA,NA,NA,NA
SUPAMT80310,3Q5ZZ9ZEVUEVW3LNA7F509UPU2L58F,ADB4A718-69F9-4D56-83F7-015C79E02D7C,2023-09-28_12h10.14.008,WP_VExplicitOC_HL,2022.2.5,Win32,20.03124875,NA,NA,NA,NA,NA,NA,NA,NA,NA,NA,NA,-96.18104668,3.8711,0,1,1,1,1,stand up,002.png,NA,NA,NA,NA,NA,NA,NA,NA,NA,NA,NA,NA,NA,NA,NA,NA,NA,NA,NA,NA,NA,NA,NA,NA,NA,NA,NA,NA,NA,NA,NA,NA,NA,NA,NA,NA,NA,NA,NA
SUPAMT80310,3Q5ZZ9ZEVUEVW3LNA7F509UPU2L58F,ADB4A718-69F9-4D56-83F7-015C79E02D7C,2023-09-28_12h10.14.008,WP_VExplicitOC_HL,2022.2.5,Win32,20.03124875,NA,NA,NA,NA,NA,NA,NA,NA,NA,NA,NA,-56.80339117,2.1466,0,2,2,2,1,stretch,003.png,NA,NA,NA,NA,NA,NA,NA,NA,NA,NA,NA,NA,NA,NA,NA,NA,NA,NA,NA,NA,NA,NA,NA,NA,NA,NA,NA,NA,NA,NA,NA,NA,NA,NA,NA,NA,NA,NA,NA
SUPAMT80310,3Q5ZZ9ZEVUEVW3LNA7F509UPU2L58F,ADB4A718-69F9-4D56-83F7-015C79E02D7C,2023-09-28_12h10.14.008,WP_VExplicitOC_HL,2022.2.5,Win32,20.03124875,NA,NA,NA,NA,NA,NA,NA,NA,NA,NA,NA,-25.57283264,4.3231,0,3,3,3,1,make a drink,004.png,NA,NA,NA,NA,NA,NA,NA,NA,NA,NA,NA,NA,NA,NA,NA,NA,NA,NA,NA,NA,NA,NA,NA,NA,NA,NA,NA,NA,NA,NA,NA,NA,NA,NA,NA,NA,NA,NA,NA
SUPAMT80310,3Q5ZZ9ZEVUEVW3LNA7F509UPU2L58F,ADB4A718-69F9-4D56-83F7-015C79E02D7C,2023-09-28_12h10.14.008,WP_VExplicitOC_HL,2022.2.5,Win32,20.03124875,NA,NA,NA,NA,NA,NA,NA,NA,NA,NA,NA,-55.67184945,2.2101,0,4,4,4,1,scroll social media,005.png,NA,NA,NA,NA,NA,NA,NA,NA,NA,NA,NA,NA,NA,NA,NA,NA,NA,NA,NA,NA,NA,NA,NA,NA,NA,NA,NA,NA,NA,NA,NA,NA,NA,NA,NA,NA,NA,NA,NA
SUPAMT80310,3Q5ZZ9ZEVUEVW3LNA7F509UPU2L58F,ADB4A718-69F9-4D56-83F7-015C79E02D7C,2023-09-28_12h10.14.008,WP_VExplicitOC_HL,2022.2.5,Win32,20.03124875,NA,NA,NA,NA,NA,NA,NA,NA,NA,NA,NA,54.08769794,1.6995,0,5,5,5,1,listen to music,006.png,NA,NA,NA,NA,NA,NA,NA,NA,NA,NA,NA,NA,NA,NA,NA,NA,NA,NA,NA,NA,NA,NA,NA,NA,NA,NA,NA,NA,NA,NA,NA,NA,NA,NA,NA,NA,NA,NA,NA
SUPAMT80310,3Q5ZZ9ZEVUEVW3LNA7F509UPU2L58F,ADB4A718-69F9-4D56-83F7-015C79E02D7C,2023-09-28_12h10.14.008,WP_VExplicitOC_HL,2022.2.5,Win32,20.03124875,NA,NA,NA,NA,NA,NA,NA,NA,NA,NA,NA,48.42998931,1.6184,0,6,6,6,1,daydream,007.png,NA,NA,NA,NA,NA,NA,NA,NA,NA,NA,NA,NA,NA,NA,NA,NA,NA,NA,NA,NA,NA,NA,NA,NA,NA,NA,NA,NA,NA,NA,NA,NA,NA,NA,NA,NA,NA,NA,NA
SUPAMT80310,3Q5ZZ9ZEVUEVW3LNA7F509UPU2L58F,ADB4A718-69F9-4D56-83F7-015C79E02D7C,2023-09-28_12h10.14.008,WP_VExplicitOC_HL,2022.2.5,Win32,20.03124875,NA,NA,NA,NA,NA,NA,NA,NA,NA,NA,NA,40.05658745,1.9356,0,7,7,7,1,watch a short animation,008.png,NA,NA,NA,NA,NA,NA,NA,NA,NA,NA,NA,NA,NA,NA,NA,NA,NA,NA,NA,NA,NA,NA,NA,NA,NA,NA,NA,NA,NA,NA,NA,NA,NA,NA,NA,NA,NA,NA,NA
SUPAMT80310,3Q5ZZ9ZEVUEVW3LNA7F509UPU2L58F,ADB4A718-69F9-4D56-83F7-015C79E02D7C,2023-09-28_12h10.14.008,WP_VExplicitOC_HL,2022.2.5,Win32,20.03124875,NA,NA,NA,NA,NA,NA,NA,NA,NA,NA,NA,6.789250354,2.7404,0,8,8,8,1,read a novel,009.png,NA,NA,NA,NA,NA,NA,NA,NA,NA,NA,NA,NA,NA,NA,NA,NA,NA,NA,NA,NA,NA,NA,NA,NA,NA,NA,NA,NA,NA,NA,NA,NA,NA,NA,NA,NA,NA,NA,NA
SUPAMT80310,3Q5ZZ9ZEVUEVW3LNA7F509UPU2L58F,ADB4A718-69F9-4D56-83F7-015C79E02D7C,2023-09-28_12h10.14.008,WP_VExplicitOC_HL,2022.2.5,Win32,20.03124875,NA,NA,NA,NA,NA,NA,NA,NA,NA,NA,NA,-32.58840515,1.8395,0,9,9,9,1,read the news,010.png,NA,NA,NA,NA,NA,NA,NA,NA,NA,NA,NA,NA,NA,NA,NA,NA,NA,NA,NA,NA,NA,NA,NA,NA,NA,NA,NA,NA,NA,NA,NA,NA,NA,NA,NA,NA,NA,NA,NA
SUPAMT80310,3Q5ZZ9ZEVUEVW3LNA7F509UPU2L58F,ADB4A718-69F9-4D56-83F7-015C79E02D7C,2023-09-28_12h10.14.008,WP_VExplicitOC_HL,2022.2.5,Win32,20.03124875,NA,NA,NA,NA,NA,NA,NA,NA,NA,NA,NA,NA,NA,NA,NA,NA,NA,NA,NA,NA,NA,NA,NA,NA,NA,NA,NA,NA,NA,NA,NA,NA,NA,NA,NA,NA,NA,NA,NA,NA,NA,NA,NA,NA,NA,NA,NA,NA,NA,NA,NA,NA,NA,NA,NA,NA,NA,NA,NA
SUPAMT80310,3Q5ZZ9ZEVUEVW3LNA7F509UPU2L58F,ADB4A718-69F9-4D56-83F7-015C79E02D7C,2023-09-28_12h10.14.008,WP_VExplicitOC_HL,2022.2.5,Win32,20.03124875,NA,NA,NA,NA,NA,NA,NA,NA,NA,NA,NA,NA,NA,NA,NA,NA,NA,NA,NA,NA,listen to music,NA,NA,NA,NA,NA,NA,NA,NA,NA,NA,NA,NA,NA,NA,NA,NA,NA,NA,NA,NA,NA,NA,NA,NA,NA,NA,NA,NA,NA,NA,NA,NA,NA,NA,NA,NA,NA,NA
SUPAMT80310,3Q5ZZ9ZEVUEVW3LNA7F509UPU2L58F,ADB4A718-69F9-4D56-83F7-015C79E02D7C,2023-09-28_12h10.14.008,WP_VExplicitOC_HL,2022.2.5,Win32,20.03124875,-100,3.3566,2.0138,NA,NA,NA,NA,NA,bored,"bored, not bored","more bored, less bored",NA,NA,NA,NA,NA,NA,NA,NA,NA,NA,0,0,0,2,1,NA,NA,NA,NA,NA,NA,NA,NA,NA,NA,NA,NA,NA,NA,NA,NA,NA,NA,NA,NA,NA,NA,NA,NA,NA,NA,NA,NA,NA,NA,NA,NA,NA
SUPAMT80310,3Q5ZZ9ZEVUEVW3LNA7F509UPU2L58F,ADB4A718-69F9-4D56-83F7-015C79E02D7C,2023-09-28_12h10.14.008,WP_VExplicitOC_HL,2022.2.5,Win32,20.03124875,-100,3.2568,2.0346,NA,NA,NA,NA,NA,happy,"unhappy, happy","less happy, more happy",NA,NA,NA,NA,NA,NA,NA,NA,NA,NA,0,1,1,0,1,NA,NA,NA,NA,NA,NA,NA,NA,NA,NA,NA,NA,NA,NA,NA,NA,NA,NA,NA,NA,NA,NA,NA,NA,NA,NA,NA,NA,NA,NA,NA,NA,NA
SUPAMT80310,3Q5ZZ9ZEVUEVW3LNA7F509UPU2L58F,ADB4A718-69F9-4D56-83F7-015C79E02D7C,2023-09-28_12h10.14.008,WP_VExplicitOC_HL,2022.2.5,Win32,20.03124875,-26.47806947,2.895,2.0331,NA,NA,NA,NA,NA,frustrated,"frustrated, not frustrated","more frustrated, less frustrated",NA,NA,NA,NA,NA,NA,NA,NA,NA,NA,0,2,2,1,1,NA,NA,NA,NA,NA,NA,NA,NA,NA,NA,NA,NA,NA,NA,NA,NA,NA,NA,NA,NA,NA,NA,NA,NA,NA,NA,NA,NA,NA,NA,NA,NA,NA
SUPAMT80310,3Q5ZZ9ZEVUEVW3LNA7F509UPU2L58F,ADB4A718-69F9-4D56-83F7-015C79E02D7C,2023-09-28_12h10.14.008,WP_VExplicitOC_HL,2022.2.5,Win32,20.03124875,NA,NA,NA,NA,NA,NA,NA,NA,NA,NA,NA,NA,NA,NA,NA,NA,NA,NA,NA,NA,NA,NA,NA,NA,NA,NA,NA,NA,NA,NA,NA,NA,NA,NA,NA,NA,NA,NA,NA,NA,NA,NA,NA,NA,NA,NA,NA,NA,NA,NA,NA,NA,NA,NA,NA,NA,NA,NA,NA
SUPAMT80310,3Q5ZZ9ZEVUEVW3LNA7F509UPU2L58F,ADB4A718-69F9-4D56-83F7-015C79E02D7C,2023-09-28_12h10.14.008,WP_VExplicitOC_HL,2022.2.5,Win32,20.03124875,NA,NA,NA,NA,NA,NA,NA,NA,NA,NA,NA,NA,NA,NA,NA,NA,NA,NA,NA,NA,NA,NA,NA,NA,NA,NA,NA,NA,NA,NA,NA,NA,NA,NA,NA,NA,NA,NA,NA,NA,NA,NA,NA,NA,NA,NA,NA,NA,NA,NA,NA,NA,NA,NA,NA,NA,NA,NA,NA
SUPAMT80310,3Q5ZZ9ZEVUEVW3LNA7F509UPU2L58F,ADB4A718-69F9-4D56-83F7-015C79E02D7C,2023-09-28_12h10.14.008,WP_VExplicitOC_HL,2022.2.5,Win32,20.03124875,-79.20792079,3.4311,2.0184,NA,NA,NA,NA,NA,frustrated,"frustrated, not frustrated","more frustrated, less frustrated",NA,NA,NA,NA,NA,NA,NA,NA,NA,NA,NA,NA,NA,NA,NA,0,0,0,1,1,NA,NA,NA,NA,NA,NA,NA,NA,NA,NA,NA,NA,NA,NA,NA,NA,NA,NA,NA,NA,NA,NA,NA,NA,NA,NA,NA,NA
SUPAMT80310,3Q5ZZ9ZEVUEVW3LNA7F509UPU2L58F,ADB4A718-69F9-4D56-83F7-015C79E02D7C,2023-09-28_12h10.14.008,WP_VExplicitOC_HL,2022.2.5,Win32,20.03124875,-96.18104668,3.0037,2.0079,NA,NA,NA,NA,NA,happy,"unhappy, happy","less happy, more happy",NA,NA,NA,NA,NA,NA,NA,NA,NA,NA,NA,NA,NA,NA,NA,0,1,1,0,1,NA,NA,NA,NA,NA,NA,NA,NA,NA,NA,NA,NA,NA,NA,NA,NA,NA,NA,NA,NA,NA,NA,NA,NA,NA,NA,NA,NA
SUPAMT80310,3Q5ZZ9ZEVUEVW3LNA7F509UPU2L58F,ADB4A718-69F9-4D56-83F7-015C79E02D7C,2023-09-28_12h10.14.008,WP_VExplicitOC_HL,2022.2.5,Win32,20.03124875,-99.80197674,2.5489,2.0273,NA,NA,NA,NA,NA,bored,"bored, not bored","more bored, less bored",NA,NA,NA,NA,NA,NA,NA,NA,NA,NA,NA,NA,NA,NA,NA,0,2,2,2,1,NA,NA,NA,NA,NA,NA,NA,NA,NA,NA,NA,NA,NA,NA,NA,NA,NA,NA,NA,NA,NA,NA,NA,NA,NA,NA,NA,NA
SUPAMT80310,3Q5ZZ9ZEVUEVW3LNA7F509UPU2L58F,ADB4A718-69F9-4D56-83F7-015C79E02D7C,2023-09-28_12h10.14.008,WP_VExplicitOC_HL,2022.2.5,Win32,20.03124875,NA,NA,NA,NA,NA,NA,NA,NA,NA,NA,NA,NA,NA,NA,NA,NA,NA,NA,NA,NA,NA,NA,NA,NA,NA,NA,NA,NA,NA,NA,NA,0,0,0,0,1,NA,NA,NA,NA,NA,NA,NA,NA,NA,NA,NA,NA,NA,NA,NA,NA,NA,NA,NA,NA,NA,NA,NA
SUPAMT80310,3Q5ZZ9ZEVUEVW3LNA7F509UPU2L58F,ADB4A718-69F9-4D56-83F7-015C79E02D7C,2023-09-28_12h10.14.008,WP_VExplicitOC_HL,2022.2.5,Win32,20.03124875,-99.34935833,3.4872,2.0098,NA,NA,NA,NA,NA,happy,"unhappy, happy","less happy, more happy",NA,NA,NA,NA,NA,NA,NA,NA,NA,NA,NA,NA,NA,NA,NA,0,0,0,0,1,NA,NA,NA,NA,NA,NA,NA,NA,NA,NA,NA,NA,NA,NA,NA,NA,NA,NA,NA,NA,NA,NA,NA,NA,NA,NA,NA,NA
SUPAMT80310,3Q5ZZ9ZEVUEVW3LNA7F509UPU2L58F,ADB4A718-69F9-4D56-83F7-015C79E02D7C,2023-09-28_12h10.14.008,WP_VExplicitOC_HL,2022.2.5,Win32,20.03124875,-99.34935833,2.3926,2.0461,NA,NA,NA,NA,NA,bored,"bored, not bored","more bored, less bored",NA,NA,NA,NA,NA,NA,NA,NA,NA,NA,NA,NA,NA,NA,NA,0,1,1,2,1,NA,NA,NA,NA,NA,NA,NA,NA,NA,NA,NA,NA,NA,NA,NA,NA,NA,NA,NA,NA,NA,NA,NA,NA,NA,NA,NA,NA
SUPAMT80310,3Q5ZZ9ZEVUEVW3LNA7F509UPU2L58F,ADB4A718-69F9-4D56-83F7-015C79E02D7C,2023-09-28_12h10.14.008,WP_VExplicitOC_HL,2022.2.5,Win32,20.03124875,-86.67609445,2.9627,2.042,NA,NA,NA,NA,NA,frustrated,"frustrated, not frustrated","more frustrated, less frustrated",NA,NA,NA,NA,NA,NA,NA,NA,NA,NA,NA,NA,NA,NA,NA,0,2,2,1,1,NA,NA,NA,NA,NA,NA,NA,NA,NA,NA,NA,NA,NA,NA,NA,NA,NA,NA,NA,NA,NA,NA,NA,NA,NA,NA,NA,NA
SUPAMT80310,3Q5ZZ9ZEVUEVW3LNA7F509UPU2L58F,ADB4A718-69F9-4D56-83F7-015C79E02D7C,2023-09-28_12h10.14.008,WP_VExplicitOC_HL,2022.2.5,Win32,20.03124875,NA,NA,NA,NA,NA,NA,NA,NA,NA,NA,NA,NA,NA,NA,NA,NA,NA,NA,NA,NA,NA,NA,NA,NA,NA,NA,NA,NA,NA,NA,NA,1,0,1,0,1,NA,NA,NA,NA,NA,NA,NA,NA,NA,NA,NA,NA,NA,NA,NA,NA,NA,NA,NA,NA,NA,NA,NA
SUPAMT80310,3Q5ZZ9ZEVUEVW3LNA7F509UPU2L58F,ADB4A718-69F9-4D56-83F7-015C79E02D7C,2023-09-28_12h10.14.008,WP_VExplicitOC_HL,2022.2.5,Win32,20.03124875,-97.76520682,4.6926,2.0194,NA,NA,NA,NA,NA,happy,"unhappy, happy","less happy, more happy",NA,NA,NA,NA,NA,NA,NA,NA,NA,NA,NA,NA,NA,NA,NA,0,0,0,0,1,NA,NA,NA,NA,NA,NA,NA,NA,NA,NA,NA,NA,NA,NA,NA,NA,NA,NA,NA,NA,NA,NA,NA,NA,NA,NA,NA,NA
SUPAMT80310,3Q5ZZ9ZEVUEVW3LNA7F509UPU2L58F,ADB4A718-69F9-4D56-83F7-015C79E02D7C,2023-09-28_12h10.14.008,WP_VExplicitOC_HL,2022.2.5,Win32,20.03124875,-95.27580984,3.1746,2.025,NA,NA,NA,NA,NA,bored,"bored, not bored","more bored, less bored",NA,NA,NA,NA,NA,NA,NA,NA,NA,NA,NA,NA,NA,NA,NA,0,1,1,2,1,NA,NA,NA,NA,NA,NA,NA,NA,NA,NA,NA,NA,NA,NA,NA,NA,NA,NA,NA,NA,NA,NA,NA,NA,NA,NA,NA,NA
SUPAMT80310,3Q5ZZ9ZEVUEVW3LNA7F509UPU2L58F,ADB4A718-69F9-4D56-83F7-015C79E02D7C,2023-09-28_12h10.14.008,WP_VExplicitOC_HL,2022.2.5,Win32,20.03124875,-98.2178166,3.0643,2.0459,NA,NA,NA,NA,NA,frustrated,"frustrated, not frustrated","more frustrated, less frustrated",NA,NA,NA,NA,NA,NA,NA,NA,NA,NA,NA,NA,NA,NA,NA,0,2,2,1,1,NA,NA,NA,NA,NA,NA,NA,NA,NA,NA,NA,NA,NA,NA,NA,NA,NA,NA,NA,NA,NA,NA,NA,NA,NA,NA,NA,NA
SUPAMT80310,3Q5ZZ9ZEVUEVW3LNA7F509UPU2L58F,ADB4A718-69F9-4D56-83F7-015C79E02D7C,2023-09-28_12h10.14.008,WP_VExplicitOC_HL,2022.2.5,Win32,20.03124875,NA,NA,NA,NA,NA,NA,NA,NA,NA,NA,NA,NA,NA,NA,NA,NA,NA,NA,NA,NA,NA,NA,NA,NA,NA,NA,NA,NA,NA,NA,NA,2,0,2,0,1,NA,NA,NA,NA,NA,NA,NA,NA,NA,NA,NA,NA,NA,NA,NA,NA,NA,NA,NA,NA,NA,NA,NA
SUPAMT80310,3Q5ZZ9ZEVUEVW3LNA7F509UPU2L58F,ADB4A718-69F9-4D56-83F7-015C79E02D7C,2023-09-28_12h10.14.008,WP_VExplicitOC_HL,2022.2.5,Win32,20.03124875,NA,NA,2.0417,NA,NA,NA,NA,NA,frustrated,"frustrated, not frustrated","more frustrated, less frustrated",NA,NA,NA,NA,NA,NA,NA,NA,NA,NA,NA,NA,NA,NA,NA,0,0,0,1,1,NA,NA,NA,NA,NA,NA,NA,NA,NA,NA,NA,NA,NA,NA,NA,NA,NA,NA,NA,NA,NA,NA,NA,NA,NA,NA,NA,NA
SUPAMT80310,3Q5ZZ9ZEVUEVW3LNA7F509UPU2L58F,ADB4A718-69F9-4D56-83F7-015C79E02D7C,2023-09-28_12h10.14.008,WP_VExplicitOC_HL,2022.2.5,Win32,20.03124875,-97.99151171,4.2251,2.0249,NA,NA,NA,NA,NA,happy,"unhappy, happy","less happy, more happy",NA,NA,NA,NA,NA,NA,NA,NA,NA,NA,NA,NA,NA,NA,NA,0,1,1,0,1,NA,NA,NA,NA,NA,NA,NA,NA,NA,NA,NA,NA,NA,NA,NA,NA,NA,NA,NA,NA,NA,NA,NA,NA,NA,NA,NA,NA
SUPAMT80310,3Q5ZZ9ZEVUEVW3LNA7F509UPU2L58F,ADB4A718-69F9-4D56-83F7-015C79E02D7C,2023-09-28_12h10.14.008,WP_VExplicitOC_HL,2022.2.5,Win32,20.03124875,-93.01272639,3.0217,2.0301,NA,NA,NA,NA,NA,bored,"bored, not bored","more bored, less bored",NA,NA,NA,NA,NA,NA,NA,NA,NA,NA,NA,NA,NA,NA,NA,0,2,2,2,1,NA,NA,NA,NA,NA,NA,NA,NA,NA,NA,NA,NA,NA,NA,NA,NA,NA,NA,NA,NA,NA,NA,NA,NA,NA,NA,NA,NA
SUPAMT80310,3Q5ZZ9ZEVUEVW3LNA7F509UPU2L58F,ADB4A718-69F9-4D56-83F7-015C79E02D7C,2023-09-28_12h10.14.008,WP_VExplicitOC_HL,2022.2.5,Win32,20.03124875,NA,NA,NA,NA,NA,NA,NA,NA,NA,NA,NA,NA,NA,NA,NA,NA,NA,NA,NA,NA,NA,NA,NA,NA,NA,NA,NA,NA,NA,NA,NA,3,0,3,0,1,NA,NA,NA,NA,NA,NA,NA,NA,NA,NA,NA,NA,NA,NA,NA,NA,NA,NA,NA,NA,NA,NA,NA
SUPAMT80310,3Q5ZZ9ZEVUEVW3LNA7F509UPU2L58F,ADB4A718-69F9-4D56-83F7-015C79E02D7C,2023-09-28_12h10.14.008,WP_VExplicitOC_HL,2022.2.5,Win32,20.03124875,-98.2178166,3.9624,2.0157,NA,NA,NA,NA,NA,bored,"bored, not bored","more bored, less bored",NA,NA,NA,NA,NA,NA,NA,NA,NA,NA,NA,NA,NA,NA,NA,0,0,0,2,1,NA,NA,NA,NA,NA,NA,NA,NA,NA,NA,NA,NA,NA,NA,NA,NA,NA,NA,NA,NA,NA,NA,NA,NA,NA,NA,NA,NA
SUPAMT80310,3Q5ZZ9ZEVUEVW3LNA7F509UPU2L58F,ADB4A718-69F9-4D56-83F7-015C79E02D7C,2023-09-28_12h10.14.008,WP_VExplicitOC_HL,2022.2.5,Win32,20.03124875,-98.89674854,3.344,2.0316,NA,NA,NA,NA,NA,happy,"unhappy, happy","less happy, more happy",NA,NA,NA,NA,NA,NA,NA,NA,NA,NA,NA,NA,NA,NA,NA,0,1,1,0,1,NA,NA,NA,NA,NA,NA,NA,NA,NA,NA,NA,NA,NA,NA,NA,NA,NA,NA,NA,NA,NA,NA,NA,NA,NA,NA,NA,NA
SUPAMT80310,3Q5ZZ9ZEVUEVW3LNA7F509UPU2L58F,ADB4A718-69F9-4D56-83F7-015C79E02D7C,2023-09-28_12h10.14.008,WP_VExplicitOC_HL,2022.2.5,Win32,20.03124875,-98.89674854,2.8326,2.0372,NA,NA,NA,NA,NA,frustrated,"frustrated, not frustrated","more frustrated, less frustrated",NA,NA,NA,NA,NA,NA,NA,NA,NA,NA,NA,NA,NA,NA,NA,0,2,2,1,1,NA,NA,NA,NA,NA,NA,NA,NA,NA,NA,NA,NA,NA,NA,NA,NA,NA,NA,NA,NA,NA,NA,NA,NA,NA,NA,NA,NA
SUPAMT80310,3Q5ZZ9ZEVUEVW3LNA7F509UPU2L58F,ADB4A718-69F9-4D56-83F7-015C79E02D7C,2023-09-28_12h10.14.008,WP_VExplicitOC_HL,2022.2.5,Win32,20.03124875,NA,NA,NA,NA,NA,NA,NA,NA,NA,NA,NA,NA,NA,NA,NA,NA,NA,NA,NA,NA,NA,NA,NA,NA,NA,NA,NA,NA,NA,NA,NA,4,0,4,0,1,NA,NA,NA,NA,NA,NA,NA,NA,NA,NA,NA,NA,NA,NA,NA,NA,NA,NA,NA,NA,NA,NA,NA
SUPAMT80310,3Q5ZZ9ZEVUEVW3LNA7F509UPU2L58F,ADB4A718-69F9-4D56-83F7-015C79E02D7C,2023-09-28_12h10.14.008,WP_VExplicitOC_HL,2022.2.5,Win32,20.03124875,-97.53889329,4.5204,2.0072,NA,NA,NA,NA,NA,bored,"bored, not bored","more bored, less bored",NA,NA,NA,NA,NA,NA,NA,NA,NA,NA,NA,NA,NA,NA,NA,0,0,0,2,1,NA,NA,NA,NA,NA,NA,NA,NA,NA,NA,NA,NA,NA,NA,NA,NA,NA,NA,NA,NA,NA,NA,NA,NA,NA,NA,NA,NA
SUPAMT80310,3Q5ZZ9ZEVUEVW3LNA7F509UPU2L58F,ADB4A718-69F9-4D56-83F7-015C79E02D7C,2023-09-28_12h10.14.008,WP_VExplicitOC_HL,2022.2.5,Win32,20.03124875,-96.40735157,3.3616,2.016,NA,NA,NA,NA,NA,happy,"unhappy, happy","less happy, more happy",NA,NA,NA,NA,NA,NA,NA,NA,NA,NA,NA,NA,NA,NA,NA,0,1,1,0,1,NA,NA,NA,NA,NA,NA,NA,NA,NA,NA,NA,NA,NA,NA,NA,NA,NA,NA,NA,NA,NA,NA,NA,NA,NA,NA,NA,NA
SUPAMT80310,3Q5ZZ9ZEVUEVW3LNA7F509UPU2L58F,ADB4A718-69F9-4D56-83F7-015C79E02D7C,2023-09-28_12h10.14.008,WP_VExplicitOC_HL,2022.2.5,Win32,20.03124875,-97.76520682,3.0661,2.0076,NA,NA,NA,NA,NA,frustrated,"frustrated, not frustrated","more frustrated, less frustrated",NA,NA,NA,NA,NA,NA,NA,NA,NA,NA,NA,NA,NA,NA,NA,0,2,2,1,1,NA,NA,NA,NA,NA,NA,NA,NA,NA,NA,NA,NA,NA,NA,NA,NA,NA,NA,NA,NA,NA,NA,NA,NA,NA,NA,NA,NA
SUPAMT80310,3Q5ZZ9ZEVUEVW3LNA7F509UPU2L58F,ADB4A718-69F9-4D56-83F7-015C79E02D7C,2023-09-28_12h10.14.008,WP_VExplicitOC_HL,2022.2.5,Win32,20.03124875,NA,NA,NA,NA,NA,NA,NA,NA,NA,NA,NA,NA,NA,NA,NA,NA,NA,NA,NA,NA,NA,NA,NA,NA,NA,NA,NA,NA,NA,NA,NA,5,0,5,0,1,NA,NA,NA,NA,NA,NA,NA,NA,NA,NA,NA,NA,NA,NA,NA,NA,NA,NA,NA,NA,NA,NA,NA
SUPAMT80310,3Q5ZZ9ZEVUEVW3LNA7F509UPU2L58F,ADB4A718-69F9-4D56-83F7-015C79E02D7C,2023-09-28_12h10.14.008,WP_VExplicitOC_HL,2022.2.5,Win32,20.03124875,-94.82319143,3.713,2.0109,NA,NA,NA,NA,NA,bored,"bored, not bored","more bored, less bored",NA,NA,NA,NA,NA,NA,NA,NA,NA,NA,NA,NA,NA,NA,NA,0,0,0,2,1,NA,NA,NA,NA,NA,NA,NA,NA,NA,NA,NA,NA,NA,NA,NA,NA,NA,NA,NA,NA,NA,NA,NA,NA,NA,NA,NA,NA
SUPAMT80310,3Q5ZZ9ZEVUEVW3LNA7F509UPU2L58F,ADB4A718-69F9-4D56-83F7-015C79E02D7C,2023-09-28_12h10.14.008,WP_VExplicitOC_HL,2022.2.5,Win32,20.03124875,-96.63366509,3.5926,2.036,NA,NA,NA,NA,NA,frustrated,"frustrated, not frustrated","more frustrated, less frustrated",NA,NA,NA,NA,NA,NA,NA,NA,NA,NA,NA,NA,NA,NA,NA,0,1,1,1,1,NA,NA,NA,NA,NA,NA,NA,NA,NA,NA,NA,NA,NA,NA,NA,NA,NA,NA,NA,NA,NA,NA,NA,NA,NA,NA,NA,NA
SUPAMT80310,3Q5ZZ9ZEVUEVW3LNA7F509UPU2L58F,ADB4A718-69F9-4D56-83F7-015C79E02D7C,2023-09-28_12h10.14.008,WP_VExplicitOC_HL,2022.2.5,Win32,20.03124875,-97.76520682,3.4345,2.0538,NA,NA,NA,NA,NA,happy,"unhappy, happy","less happy, more happy",NA,NA,NA,NA,NA,NA,NA,NA,NA,NA,NA,NA,NA,NA,NA,0,2,2,0,1,NA,NA,NA,NA,NA,NA,NA,NA,NA,NA,NA,NA,NA,NA,NA,NA,NA,NA,NA,NA,NA,NA,NA,NA,NA,NA,NA,NA
SUPAMT80310,3Q5ZZ9ZEVUEVW3LNA7F509UPU2L58F,ADB4A718-69F9-4D56-83F7-015C79E02D7C,2023-09-28_12h10.14.008,WP_VExplicitOC_HL,2022.2.5,Win32,20.03124875,NA,NA,NA,NA,NA,NA,NA,NA,NA,NA,NA,NA,NA,NA,NA,NA,NA,NA,NA,NA,NA,NA,NA,NA,NA,NA,NA,NA,NA,NA,NA,6,0,6,0,1,NA,NA,NA,NA,NA,NA,NA,NA,NA,NA,NA,NA,NA,NA,NA,NA,NA,NA,NA,NA,NA,NA,NA
SUPAMT80310,3Q5ZZ9ZEVUEVW3LNA7F509UPU2L58F,ADB4A718-69F9-4D56-83F7-015C79E02D7C,2023-09-28_12h10.14.008,WP_VExplicitOC_HL,2022.2.5,Win32,20.03124875,-98.67043502,5.024,2.0171,NA,NA,NA,NA,NA,happy,"unhappy, happy","less happy, more happy",NA,NA,NA,NA,NA,NA,NA,NA,NA,NA,NA,NA,NA,NA,NA,0,0,0,0,1,NA,NA,NA,NA,NA,NA,NA,NA,NA,NA,NA,NA,NA,NA,NA,NA,NA,NA,NA,NA,NA,NA,NA,NA,NA,NA,NA,NA
SUPAMT80310,3Q5ZZ9ZEVUEVW3LNA7F509UPU2L58F,ADB4A718-69F9-4D56-83F7-015C79E02D7C,2023-09-28_12h10.14.008,WP_VExplicitOC_HL,2022.2.5,Win32,20.03124875,-97.99151171,2.9044,2.0063,NA,NA,NA,NA,NA,frustrated,"frustrated, not frustrated","more frustrated, less frustrated",NA,NA,NA,NA,NA,NA,NA,NA,NA,NA,NA,NA,NA,NA,NA,0,1,1,1,1,NA,NA,NA,NA,NA,NA,NA,NA,NA,NA,NA,NA,NA,NA,NA,NA,NA,NA,NA,NA,NA,NA,NA,NA,NA,NA,NA,NA
SUPAMT80310,3Q5ZZ9ZEVUEVW3LNA7F509UPU2L58F,ADB4A718-69F9-4D56-83F7-015C79E02D7C,2023-09-28_12h10.14.008,WP_VExplicitOC_HL,2022.2.5,Win32,20.03124875,-94.37058164,3.5475,2.0358,NA,NA,NA,NA,NA,bored,"bored, not bored","more bored, less bored",NA,NA,NA,NA,NA,NA,NA,NA,NA,NA,NA,NA,NA,NA,NA,0,2,2,2,1,NA,NA,NA,NA,NA,NA,NA,NA,NA,NA,NA,NA,NA,NA,NA,NA,NA,NA,NA,NA,NA,NA,NA,NA,NA,NA,NA,NA
SUPAMT80310,3Q5ZZ9ZEVUEVW3LNA7F509UPU2L58F,ADB4A718-69F9-4D56-83F7-015C79E02D7C,2023-09-28_12h10.14.008,WP_VExplicitOC_HL,2022.2.5,Win32,20.03124875,NA,NA,NA,NA,NA,NA,NA,NA,NA,NA,NA,NA,NA,NA,NA,NA,NA,NA,NA,NA,NA,NA,NA,NA,NA,NA,NA,NA,NA,NA,NA,7,0,7,0,1,NA,NA,NA,NA,NA,NA,NA,NA,NA,NA,NA,NA,NA,NA,NA,NA,NA,NA,NA,NA,NA,NA,NA
SUPAMT80310,3Q5ZZ9ZEVUEVW3LNA7F509UPU2L58F,ADB4A718-69F9-4D56-83F7-015C79E02D7C,2023-09-28_12h10.14.008,WP_VExplicitOC_HL,2022.2.5,Win32,20.03124875,-91.42856625,3.1846,2.0282,NA,NA,NA,NA,NA,happy,"unhappy, happy","less happy, more happy",NA,NA,NA,NA,NA,NA,NA,NA,NA,NA,NA,NA,NA,NA,NA,0,0,0,0,1,NA,NA,NA,NA,NA,NA,NA,NA,NA,NA,NA,NA,NA,NA,NA,NA,NA,NA,NA,NA,NA,NA,NA,NA,NA,NA,NA,NA
SUPAMT80310,3Q5ZZ9ZEVUEVW3LNA7F509UPU2L58F,ADB4A718-69F9-4D56-83F7-015C79E02D7C,2023-09-28_12h10.14.008,WP_VExplicitOC_HL,2022.2.5,Win32,20.03124875,-96.18104668,4.5532,2.0054,NA,NA,NA,NA,NA,bored,"bored, not bored","more bored, less bored",NA,NA,NA,NA,NA,NA,NA,NA,NA,NA,NA,NA,NA,NA,NA,0,1,1,2,1,NA,NA,NA,NA,NA,NA,NA,NA,NA,NA,NA,NA,NA,NA,NA,NA,NA,NA,NA,NA,NA,NA,NA,NA,NA,NA,NA,NA
SUPAMT80310,3Q5ZZ9ZEVUEVW3LNA7F509UPU2L58F,ADB4A718-69F9-4D56-83F7-015C79E02D7C,2023-09-28_12h10.14.008,WP_VExplicitOC_HL,2022.2.5,Win32,20.03124875,-95.95473315,3.1712,2.0247,NA,NA,NA,NA,NA,frustrated,"frustrated, not frustrated","more frustrated, less frustrated",NA,NA,NA,NA,NA,NA,NA,NA,NA,NA,NA,NA,NA,NA,NA,0,2,2,1,1,NA,NA,NA,NA,NA,NA,NA,NA,NA,NA,NA,NA,NA,NA,NA,NA,NA,NA,NA,NA,NA,NA,NA,NA,NA,NA,NA,NA
SUPAMT80310,3Q5ZZ9ZEVUEVW3LNA7F509UPU2L58F,ADB4A718-69F9-4D56-83F7-015C79E02D7C,2023-09-28_12h10.14.008,WP_VExplicitOC_HL,2022.2.5,Win32,20.03124875,NA,NA,NA,NA,NA,NA,NA,NA,NA,NA,NA,NA,NA,NA,NA,NA,NA,NA,NA,NA,NA,NA,NA,NA,NA,NA,NA,NA,NA,NA,NA,8,0,8,0,1,NA,NA,NA,NA,NA,NA,NA,NA,NA,NA,NA,NA,NA,NA,NA,NA,NA,NA,NA,NA,NA,NA,NA
SUPAMT80310,3Q5ZZ9ZEVUEVW3LNA7F509UPU2L58F,ADB4A718-69F9-4D56-83F7-015C79E02D7C,2023-09-28_12h10.14.008,WP_VExplicitOC_HL,2022.2.5,Win32,20.03124875,-97.3125884,3.9602,2.0391,NA,NA,NA,NA,NA,frustrated,"frustrated, not frustrated","more frustrated, less frustrated",NA,NA,NA,NA,NA,NA,NA,NA,NA,NA,NA,NA,NA,NA,NA,0,0,0,1,1,NA,NA,NA,NA,NA,NA,NA,NA,NA,NA,NA,NA,NA,NA,NA,NA,NA,NA,NA,NA,NA,NA,NA,NA,NA,NA,NA,NA
SUPAMT80310,3Q5ZZ9ZEVUEVW3LNA7F509UPU2L58F,ADB4A718-69F9-4D56-83F7-015C79E02D7C,2023-09-28_12h10.14.008,WP_VExplicitOC_HL,2022.2.5,Win32,20.03124875,-93.23903992,3.2009,2.0519,NA,NA,NA,NA,NA,happy,"unhappy, happy","less happy, more happy",NA,NA,NA,NA,NA,NA,NA,NA,NA,NA,NA,NA,NA,NA,NA,0,1,1,0,1,NA,NA,NA,NA,NA,NA,NA,NA,NA,NA,NA,NA,NA,NA,NA,NA,NA,NA,NA,NA,NA,NA,NA,NA,NA,NA,NA,NA
SUPAMT80310,3Q5ZZ9ZEVUEVW3LNA7F509UPU2L58F,ADB4A718-69F9-4D56-83F7-015C79E02D7C,2023-09-28_12h10.14.008,WP_VExplicitOC_HL,2022.2.5,Win32,20.03124875,-93.6916497,3.3394,2.0261,NA,NA,NA,NA,NA,bored,"bored, not bored","more bored, less bored",NA,NA,NA,NA,NA,NA,NA,NA,NA,NA,NA,NA,NA,NA,NA,0,2,2,2,1,NA,NA,NA,NA,NA,NA,NA,NA,NA,NA,NA,NA,NA,NA,NA,NA,NA,NA,NA,NA,NA,NA,NA,NA,NA,NA,NA,NA
SUPAMT80310,3Q5ZZ9ZEVUEVW3LNA7F509UPU2L58F,ADB4A718-69F9-4D56-83F7-015C79E02D7C,2023-09-28_12h10.14.008,WP_VExplicitOC_HL,2022.2.5,Win32,20.03124875,NA,NA,NA,NA,NA,NA,NA,NA,NA,NA,NA,NA,NA,NA,NA,NA,NA,NA,NA,NA,NA,NA,NA,NA,NA,NA,NA,NA,NA,NA,NA,9,0,9,0,1,NA,NA,NA,NA,NA,NA,NA,NA,NA,NA,NA,NA,NA,NA,NA,NA,NA,NA,NA,NA,NA,NA,NA
SUPAMT80310,3Q5ZZ9ZEVUEVW3LNA7F509UPU2L58F,ADB4A718-69F9-4D56-83F7-015C79E02D7C,2023-09-28_12h10.14.008,WP_VExplicitOC_HL,2022.2.5,Win32,20.03124875,-89.84441474,4.826,2.0083,NA,NA,NA,NA,NA,bored,"bored, not bored","more bored, less bored",NA,NA,NA,NA,NA,NA,NA,NA,NA,NA,NA,NA,NA,NA,NA,0,0,0,2,1,NA,NA,NA,NA,NA,NA,NA,NA,NA,NA,NA,NA,NA,NA,NA,NA,NA,NA,NA,NA,NA,NA,NA,NA,NA,NA,NA,NA
SUPAMT80310,3Q5ZZ9ZEVUEVW3LNA7F509UPU2L58F,ADB4A718-69F9-4D56-83F7-015C79E02D7C,2023-09-28_12h10.14.008,WP_VExplicitOC_HL,2022.2.5,Win32,20.03124875,-92.10749819,3.5937,2.0097,NA,NA,NA,NA,NA,frustrated,"frustrated, not frustrated","more frustrated, less frustrated",NA,NA,NA,NA,NA,NA,NA,NA,NA,NA,NA,NA,NA,NA,NA,0,1,1,1,1,NA,NA,NA,NA,NA,NA,NA,NA,NA,NA,NA,NA,NA,NA,NA,NA,NA,NA,NA,NA,NA,NA,NA,NA,NA,NA,NA,NA
SUPAMT80310,3Q5ZZ9ZEVUEVW3LNA7F509UPU2L58F,ADB4A718-69F9-4D56-83F7-015C79E02D7C,2023-09-28_12h10.14.008,WP_VExplicitOC_HL,2022.2.5,Win32,20.03124875,-96.85996998,2.6938,2.0045,NA,NA,NA,NA,NA,happy,"unhappy, happy","less happy, more happy",NA,NA,NA,NA,NA,NA,NA,NA,NA,NA,NA,NA,NA,NA,NA,0,2,2,0,1,NA,NA,NA,NA,NA,NA,NA,NA,NA,NA,NA,NA,NA,NA,NA,NA,NA,NA,NA,NA,NA,NA,NA,NA,NA,NA,NA,NA
SUPAMT80310,3Q5ZZ9ZEVUEVW3LNA7F509UPU2L58F,ADB4A718-69F9-4D56-83F7-015C79E02D7C,2023-09-28_12h10.14.008,WP_VExplicitOC_HL,2022.2.5,Win32,20.03124875,NA,NA,NA,NA,NA,NA,NA,NA,NA,NA,NA,NA,NA,NA,NA,NA,NA,NA,NA,NA,NA,NA,NA,NA,NA,NA,NA,NA,NA,NA,NA,10,0,10,0,1,NA,NA,NA,NA,NA,NA,NA,NA,NA,NA,NA,NA,NA,NA,NA,NA,NA,NA,NA,NA,NA,NA,NA
SUPAMT80310,3Q5ZZ9ZEVUEVW3LNA7F509UPU2L58F,ADB4A718-69F9-4D56-83F7-015C79E02D7C,2023-09-28_12h10.14.008,WP_VExplicitOC_HL,2022.2.5,Win32,20.03124875,-99.80197674,3.2997,2.0078,NA,NA,NA,NA,NA,frustrated,"frustrated, not frustrated","more frustrated, less frustrated",NA,NA,NA,NA,NA,NA,NA,NA,NA,NA,NA,NA,NA,NA,NA,0,0,0,1,1,NA,NA,NA,NA,NA,NA,NA,NA,NA,NA,NA,NA,NA,NA,NA,NA,NA,NA,NA,NA,NA,NA,NA,NA,NA,NA,NA,NA
SUPAMT80310,3Q5ZZ9ZEVUEVW3LNA7F509UPU2L58F,ADB4A718-69F9-4D56-83F7-015C79E02D7C,2023-09-28_12h10.14.008,WP_VExplicitOC_HL,2022.2.5,Win32,20.03124875,-96.18104668,3.8697,2.0011,NA,NA,NA,NA,NA,bored,"bored, not bored","more bored, less bored",NA,NA,NA,NA,NA,NA,NA,NA,NA,NA,NA,NA,NA,NA,NA,0,1,1,2,1,NA,NA,NA,NA,NA,NA,NA,NA,NA,NA,NA,NA,NA,NA,NA,NA,NA,NA,NA,NA,NA,NA,NA,NA,NA,NA,NA,NA
SUPAMT80310,3Q5ZZ9ZEVUEVW3LNA7F509UPU2L58F,ADB4A718-69F9-4D56-83F7-015C79E02D7C,2023-09-28_12h10.14.008,WP_VExplicitOC_HL,2022.2.5,Win32,20.03124875,-98.67043502,2.6481,2.0501,NA,NA,NA,NA,NA,happy,"unhappy, happy","less happy, more happy",NA,NA,NA,NA,NA,NA,NA,NA,NA,NA,NA,NA,NA,NA,NA,0,2,2,0,1,NA,NA,NA,NA,NA,NA,NA,NA,NA,NA,NA,NA,NA,NA,NA,NA,NA,NA,NA,NA,NA,NA,NA,NA,NA,NA,NA,NA
SUPAMT80310,3Q5ZZ9ZEVUEVW3LNA7F509UPU2L58F,ADB4A718-69F9-4D56-83F7-015C79E02D7C,2023-09-28_12h10.14.008,WP_VExplicitOC_HL,2022.2.5,Win32,20.03124875,NA,NA,NA,NA,NA,NA,NA,NA,NA,NA,NA,NA,NA,NA,NA,NA,NA,NA,NA,NA,NA,NA,NA,NA,NA,NA,NA,NA,NA,NA,NA,11,0,11,0,1,NA,NA,NA,NA,NA,NA,NA,NA,NA,NA,NA,NA,NA,NA,NA,NA,NA,NA,NA,NA,NA,NA,NA
SUPAMT80310,3Q5ZZ9ZEVUEVW3LNA7F509UPU2L58F,ADB4A718-69F9-4D56-83F7-015C79E02D7C,2023-09-28_12h10.14.008,WP_VExplicitOC_HL,2022.2.5,Win32,20.03124875,-96.40735157,6.1225,2.0123,NA,NA,NA,NA,NA,bored,"bored, not bored","more bored, less bored",NA,NA,NA,NA,NA,NA,NA,NA,NA,NA,NA,NA,NA,NA,NA,0,0,0,2,1,NA,NA,NA,NA,NA,NA,NA,NA,NA,NA,NA,NA,NA,NA,NA,NA,NA,NA,NA,NA,NA,NA,NA,NA,NA,NA,NA,NA
SUPAMT80310,3Q5ZZ9ZEVUEVW3LNA7F509UPU2L58F,ADB4A718-69F9-4D56-83F7-015C79E02D7C,2023-09-28_12h10.14.008,WP_VExplicitOC_HL,2022.2.5,Win32,20.03124875,-96.85996998,4.3175,2.0174,NA,NA,NA,NA,NA,frustrated,"frustrated, not frustrated","more frustrated, less frustrated",NA,NA,NA,NA,NA,NA,NA,NA,NA,NA,NA,NA,NA,NA,NA,0,1,1,1,1,NA,NA,NA,NA,NA,NA,NA,NA,NA,NA,NA,NA,NA,NA,NA,NA,NA,NA,NA,NA,NA,NA,NA,NA,NA,NA,NA,NA
SUPAMT80310,3Q5ZZ9ZEVUEVW3LNA7F509UPU2L58F,ADB4A718-69F9-4D56-83F7-015C79E02D7C,2023-09-28_12h10.14.008,WP_VExplicitOC_HL,2022.2.5,Win32,20.03124875,-99.34935833,2.2564,2.0406,NA,NA,NA,NA,NA,happy,"unhappy, happy","less happy, more happy",NA,NA,NA,NA,NA,NA,NA,NA,NA,NA,NA,NA,NA,NA,NA,0,2,2,0,1,NA,NA,NA,NA,NA,NA,NA,NA,NA,NA,NA,NA,NA,NA,NA,NA,NA,NA,NA,NA,NA,NA,NA,NA,NA,NA,NA,NA
SUPAMT80310,3Q5ZZ9ZEVUEVW3LNA7F509UPU2L58F,ADB4A718-69F9-4D56-83F7-015C79E02D7C,2023-09-28_12h10.14.008,WP_VExplicitOC_HL,2022.2.5,Win32,20.03124875,NA,NA,NA,NA,NA,NA,NA,NA,NA,NA,NA,NA,NA,NA,NA,NA,NA,NA,NA,NA,NA,NA,NA,NA,NA,NA,NA,NA,NA,NA,NA,12,0,12,0,1,NA,NA,NA,NA,NA,NA,NA,NA,NA,NA,NA,NA,NA,NA,NA,NA,NA,NA,NA,NA,NA,NA,NA
SUPAMT80310,3Q5ZZ9ZEVUEVW3LNA7F509UPU2L58F,ADB4A718-69F9-4D56-83F7-015C79E02D7C,2023-09-28_12h10.14.008,WP_VExplicitOC_HL,2022.2.5,Win32,20.03124875,-82.37623244,3.4644,2.021,NA,NA,NA,NA,NA,happy,"unhappy, happy","less happy, more happy",NA,NA,NA,NA,NA,NA,NA,NA,NA,NA,NA,NA,NA,NA,NA,0,0,0,0,1,NA,NA,NA,NA,NA,NA,NA,NA,NA,NA,NA,NA,NA,NA,NA,NA,NA,NA,NA,NA,NA,NA,NA,NA,NA,NA,NA,NA
SUPAMT80310,3Q5ZZ9ZEVUEVW3LNA7F509UPU2L58F,ADB4A718-69F9-4D56-83F7-015C79E02D7C,2023-09-28_12h10.14.008,WP_VExplicitOC_HL,2022.2.5,Win32,20.03124875,-83.73408769,3.7438,2.0512,NA,NA,NA,NA,NA,bored,"bored, not bored","more bored, less bored",NA,NA,NA,NA,NA,NA,NA,NA,NA,NA,NA,NA,NA,NA,NA,0,1,1,2,1,NA,NA,NA,NA,NA,NA,NA,NA,NA,NA,NA,NA,NA,NA,NA,NA,NA,NA,NA,NA,NA,NA,NA,NA,NA,NA,NA,NA
SUPAMT80310,3Q5ZZ9ZEVUEVW3LNA7F509UPU2L58F,ADB4A718-69F9-4D56-83F7-015C79E02D7C,2023-09-28_12h10.14.008,WP_VExplicitOC_HL,2022.2.5,Win32,20.03124875,-98.2178166,3.4806,2.0507,NA,NA,NA,NA,NA,frustrated,"frustrated, not frustrated","more frustrated, less frustrated",NA,NA,NA,NA,NA,NA,NA,NA,NA,NA,NA,NA,NA,NA,NA,0,2,2,1,1,NA,NA,NA,NA,NA,NA,NA,NA,NA,NA,NA,NA,NA,NA,NA,NA,NA,NA,NA,NA,NA,NA,NA,NA,NA,NA,NA,NA
SUPAMT80310,3Q5ZZ9ZEVUEVW3LNA7F509UPU2L58F,ADB4A718-69F9-4D56-83F7-015C79E02D7C,2023-09-28_12h10.14.008,WP_VExplicitOC_HL,2022.2.5,Win32,20.03124875,NA,NA,NA,NA,NA,NA,NA,NA,NA,NA,NA,NA,NA,NA,NA,NA,NA,NA,NA,NA,NA,NA,NA,NA,NA,NA,NA,NA,NA,NA,NA,13,0,13,0,1,NA,NA,NA,NA,NA,NA,NA,NA,NA,NA,NA,NA,NA,NA,NA,NA,NA,NA,NA,NA,NA,NA,NA
SUPAMT80310,3Q5ZZ9ZEVUEVW3LNA7F509UPU2L58F,ADB4A718-69F9-4D56-83F7-015C79E02D7C,2023-09-28_12h10.14.008,WP_VExplicitOC_HL,2022.2.5,Win32,20.03124875,-95.04950495,2.6623,2.0495,NA,NA,NA,NA,NA,frustrated,"frustrated, not frustrated","more frustrated, less frustrated",NA,NA,NA,NA,NA,NA,NA,NA,NA,NA,NA,NA,NA,NA,NA,0,0,0,1,1,NA,NA,NA,NA,NA,NA,NA,NA,NA,NA,NA,NA,NA,NA,NA,NA,NA,NA,NA,NA,NA,NA,NA,NA,NA,NA,NA,NA
SUPAMT80310,3Q5ZZ9ZEVUEVW3LNA7F509UPU2L58F,ADB4A718-69F9-4D56-83F7-015C79E02D7C,2023-09-28_12h10.14.008,WP_VExplicitOC_HL,2022.2.5,Win32,20.03124875,-94.82319143,2.6724,2.0191,NA,NA,NA,NA,NA,bored,"bored, not bored","more bored, less bored",NA,NA,NA,NA,NA,NA,NA,NA,NA,NA,NA,NA,NA,NA,NA,0,1,1,2,1,NA,NA,NA,NA,NA,NA,NA,NA,NA,NA,NA,NA,NA,NA,NA,NA,NA,NA,NA,NA,NA,NA,NA,NA,NA,NA,NA,NA
SUPAMT80310,3Q5ZZ9ZEVUEVW3LNA7F509UPU2L58F,ADB4A718-69F9-4D56-83F7-015C79E02D7C,2023-09-28_12h10.14.008,WP_VExplicitOC_HL,2022.2.5,Win32,20.03124875,-93.91796322,2.5663,2.0468,NA,NA,NA,NA,NA,happy,"unhappy, happy","less happy, more happy",NA,NA,NA,NA,NA,NA,NA,NA,NA,NA,NA,NA,NA,NA,NA,0,2,2,0,1,NA,NA,NA,NA,NA,NA,NA,NA,NA,NA,NA,NA,NA,NA,NA,NA,NA,NA,NA,NA,NA,NA,NA,NA,NA,NA,NA,NA
SUPAMT80310,3Q5ZZ9ZEVUEVW3LNA7F509UPU2L58F,ADB4A718-69F9-4D56-83F7-015C79E02D7C,2023-09-28_12h10.14.008,WP_VExplicitOC_HL,2022.2.5,Win32,20.03124875,NA,NA,NA,NA,NA,NA,NA,NA,NA,NA,NA,NA,NA,NA,NA,NA,NA,NA,NA,NA,NA,NA,NA,NA,NA,NA,NA,NA,NA,NA,NA,14,0,14,0,1,NA,NA,NA,NA,NA,NA,NA,NA,NA,NA,NA,NA,NA,NA,NA,NA,NA,NA,NA,NA,NA,NA,NA
SUPAMT80310,3Q5ZZ9ZEVUEVW3LNA7F509UPU2L58F,ADB4A718-69F9-4D56-83F7-015C79E02D7C,2023-09-28_12h10.14.008,WP_VExplicitOC_HL,2022.2.5,Win32,20.03124875,NA,NA,NA,NA,NA,NA,NA,NA,NA,NA,NA,NA,NA,NA,NA,NA,NA,NA,NA,NA,NA,NA,NA,NA,NA,NA,NA,NA,NA,NA,NA,NA,NA,NA,NA,NA,NA,NA,NA,NA,NA,NA,NA,NA,NA,NA,NA,NA,NA,NA,NA,NA,NA,NA,NA,NA,NA,NA,NA
SUPAMT80310,3Q5ZZ9ZEVUEVW3LNA7F509UPU2L58F,ADB4A718-69F9-4D56-83F7-015C79E02D7C,2023-09-28_12h10.14.008,WP_VExplicitOC_HL,2022.2.5,Win32,20.03124875,NA,NA,NA,NA,NA,NA,NA,NA,NA,NA,NA,NA,NA,NA,NA,NA,NA,NA,NA,NA,NA,NA,NA,NA,NA,NA,NA,NA,NA,NA,NA,NA,NA,NA,NA,NA,NA,NA,NA,NA,NA,NA,NA,NA,NA,NA,NA,NA,NA,NA,NA,NA,NA,NA,NA,NA,NA,NA,NA
SUPAMT80310,3Q5ZZ9ZEVUEVW3LNA7F509UPU2L58F,ADB4A718-69F9-4D56-83F7-015C79E02D7C,2023-09-28_12h10.14.008,WP_VExplicitOC_HL,2022.2.5,Win32,20.03124875,NA,NA,NA,NA,NA,NA,NA,NA,NA,NA,NA,NA,NA,NA,NA,NA,NA,NA,rest (looking at a fixed cross),001.png,NA,NA,NA,NA,NA,NA,NA,NA,NA,NA,NA,NA,NA,NA,NA,NA,-100,3.7026,0,0,0,0,1,NA,NA,NA,NA,NA,NA,NA,NA,NA,NA,NA,NA,NA,NA,NA,NA
SUPAMT80310,3Q5ZZ9ZEVUEVW3LNA7F509UPU2L58F,ADB4A718-69F9-4D56-83F7-015C79E02D7C,2023-09-28_12h10.14.008,WP_VExplicitOC_HL,2022.2.5,Win32,20.03124875,NA,NA,NA,NA,NA,NA,NA,NA,NA,NA,NA,NA,NA,NA,NA,NA,NA,NA,stand up,002.png,NA,NA,NA,NA,NA,NA,NA,NA,NA,NA,NA,NA,NA,NA,NA,NA,-100,1.695,0,1,1,1,1,NA,NA,NA,NA,NA,NA,NA,NA,NA,NA,NA,NA,NA,NA,NA,NA
SUPAMT80310,3Q5ZZ9ZEVUEVW3LNA7F509UPU2L58F,ADB4A718-69F9-4D56-83F7-015C79E02D7C,2023-09-28_12h10.14.008,WP_VExplicitOC_HL,2022.2.5,Win32,20.03124875,NA,NA,NA,NA,NA,NA,NA,NA,NA,NA,NA,NA,NA,NA,NA,NA,NA,NA,stretch,003.png,NA,NA,NA,NA,NA,NA,NA,NA,NA,NA,NA,NA,NA,NA,NA,NA,-100,1.3975,0,2,2,2,1,NA,NA,NA,NA,NA,NA,NA,NA,NA,NA,NA,NA,NA,NA,NA,NA
SUPAMT80310,3Q5ZZ9ZEVUEVW3LNA7F509UPU2L58F,ADB4A718-69F9-4D56-83F7-015C79E02D7C,2023-09-28_12h10.14.008,WP_VExplicitOC_HL,2022.2.5,Win32,20.03124875,NA,NA,NA,NA,NA,NA,NA,NA,NA,NA,NA,NA,NA,NA,NA,NA,NA,NA,make a drink,004.png,NA,NA,NA,NA,NA,NA,NA,NA,NA,NA,NA,NA,NA,NA,NA,NA,39.6039604,1.8565,0,3,3,3,1,NA,NA,NA,NA,NA,NA,NA,NA,NA,NA,NA,NA,NA,NA,NA,NA
SUPAMT80310,3Q5ZZ9ZEVUEVW3LNA7F509UPU2L58F,ADB4A718-69F9-4D56-83F7-015C79E02D7C,2023-09-28_12h10.14.008,WP_VExplicitOC_HL,2022.2.5,Win32,20.03124875,NA,NA,NA,NA,NA,NA,NA,NA,NA,NA,NA,NA,NA,NA,NA,NA,NA,NA,scroll social media,005.png,NA,NA,NA,NA,NA,NA,NA,NA,NA,NA,NA,NA,NA,NA,NA,NA,56.80339117,1.5549,0,4,4,4,1,NA,NA,NA,NA,NA,NA,NA,NA,NA,NA,NA,NA,NA,NA,NA,NA
SUPAMT80310,3Q5ZZ9ZEVUEVW3LNA7F509UPU2L58F,ADB4A718-69F9-4D56-83F7-015C79E02D7C,2023-09-28_12h10.14.008,WP_VExplicitOC_HL,2022.2.5,Win32,20.03124875,NA,NA,NA,NA,NA,NA,NA,NA,NA,NA,NA,NA,NA,NA,NA,NA,NA,NA,listen to music,006.png,NA,NA,NA,NA,NA,NA,NA,NA,NA,NA,NA,NA,NA,NA,NA,NA,100,1.406,0,5,5,5,1,NA,NA,NA,NA,NA,NA,NA,NA,NA,NA,NA,NA,NA,NA,NA,NA
SUPAMT80310,3Q5ZZ9ZEVUEVW3LNA7F509UPU2L58F,ADB4A718-69F9-4D56-83F7-015C79E02D7C,2023-09-28_12h10.14.008,WP_VExplicitOC_HL,2022.2.5,Win32,20.03124875,NA,NA,NA,NA,NA,NA,NA,NA,NA,NA,NA,NA,NA,NA,NA,NA,NA,NA,daydream,007.png,NA,NA,NA,NA,NA,NA,NA,NA,NA,NA,NA,NA,NA,NA,NA,NA,37.34087694,1.5495,0,6,6,6,1,NA,NA,NA,NA,NA,NA,NA,NA,NA,NA,NA,NA,NA,NA,NA,NA
SUPAMT80310,3Q5ZZ9ZEVUEVW3LNA7F509UPU2L58F,ADB4A718-69F9-4D56-83F7-015C79E02D7C,2023-09-28_12h10.14.008,WP_VExplicitOC_HL,2022.2.5,Win32,20.03124875,NA,NA,NA,NA,NA,NA,NA,NA,NA,NA,NA,NA,NA,NA,NA,NA,NA,NA,watch a short animation,008.png,NA,NA,NA,NA,NA,NA,NA,NA,NA,NA,NA,NA,NA,NA,NA,NA,100,2.3835,0,7,7,7,1,NA,NA,NA,NA,NA,NA,NA,NA,NA,NA,NA,NA,NA,NA,NA,NA
SUPAMT80310,3Q5ZZ9ZEVUEVW3LNA7F509UPU2L58F,ADB4A718-69F9-4D56-83F7-015C79E02D7C,2023-09-28_12h10.14.008,WP_VExplicitOC_HL,2022.2.5,Win32,20.03124875,NA,NA,NA,NA,NA,NA,NA,NA,NA,NA,NA,NA,NA,NA,NA,NA,NA,NA,read a novel,009.png,NA,NA,NA,NA,NA,NA,NA,NA,NA,NA,NA,NA,NA,NA,NA,NA,26.02545969,1.6183,0,8,8,8,1,NA,NA,NA,NA,NA,NA,NA,NA,NA,NA,NA,NA,NA,NA,NA,NA
SUPAMT80310,3Q5ZZ9ZEVUEVW3LNA7F509UPU2L58F,ADB4A718-69F9-4D56-83F7-015C79E02D7C,2023-09-28_12h10.14.008,WP_VExplicitOC_HL,2022.2.5,Win32,20.03124875,NA,NA,NA,NA,NA,NA,NA,NA,NA,NA,NA,NA,NA,NA,NA,NA,NA,NA,read the news,010.png,NA,NA,NA,NA,NA,NA,NA,NA,NA,NA,NA,NA,NA,NA,NA,NA,19.68883639,1.8605,0,9,9,9,1,NA,NA,NA,NA,NA,NA,NA,NA,NA,NA,NA,NA,NA,NA,NA,NA
SUPAMT80310,3Q5ZZ9ZEVUEVW3LNA7F509UPU2L58F,ADB4A718-69F9-4D56-83F7-015C79E02D7C,2023-09-28_12h10.14.008,WP_VExplicitOC_HL,2022.2.5,Win32,20.03124875,NA,NA,NA,NA,NA,NA,NA,NA,NA,NA,NA,NA,NA,NA,NA,NA,NA,NA,NA,NA,NA,NA,NA,NA,NA,NA,NA,NA,NA,NA,NA,NA,NA,NA,NA,NA,NA,NA,NA,NA,NA,NA,NA,stand up,NA,NA,NA,NA,NA,NA,NA,NA,NA,NA,NA,NA,NA,NA,NA
SUPAMT80310,3Q5ZZ9ZEVUEVW3LNA7F509UPU2L58F,ADB4A718-69F9-4D56-83F7-015C79E02D7C,2023-09-28_12h10.14.008,WP_VExplicitOC_HL,2022.2.5,Win32,20.03124875,-97.99151171,4.3292,2.0049,NA,NA,NA,NA,NA,bored,"bored, not bored","more bored, less bored",NA,NA,NA,NA,NA,NA,NA,NA,NA,NA,NA,NA,NA,NA,NA,NA,NA,NA,NA,NA,NA,NA,NA,NA,NA,NA,NA,NA,NA,NA,NA,NA,NA,0,0,0,2,1,NA,NA,NA,NA,NA,NA,NA,NA,NA,NA
SUPAMT80310,3Q5ZZ9ZEVUEVW3LNA7F509UPU2L58F,ADB4A718-69F9-4D56-83F7-015C79E02D7C,2023-09-28_12h10.14.008,WP_VExplicitOC_HL,2022.2.5,Win32,20.03124875,-86.44978956,4.5648,2.0423,NA,NA,NA,NA,NA,frustrated,"frustrated, not frustrated","more frustrated, less frustrated",NA,NA,NA,NA,NA,NA,NA,NA,NA,NA,NA,NA,NA,NA,NA,NA,NA,NA,NA,NA,NA,NA,NA,NA,NA,NA,NA,NA,NA,NA,NA,NA,NA,0,1,1,1,1,NA,NA,NA,NA,NA,NA,NA,NA,NA,NA
SUPAMT80310,3Q5ZZ9ZEVUEVW3LNA7F509UPU2L58F,ADB4A718-69F9-4D56-83F7-015C79E02D7C,2023-09-28_12h10.14.008,WP_VExplicitOC_HL,2022.2.5,Win32,20.03124875,-100,3.0326,2.0508,NA,NA,NA,NA,NA,happy,"unhappy, happy","less happy, more happy",NA,NA,NA,NA,NA,NA,NA,NA,NA,NA,NA,NA,NA,NA,NA,NA,NA,NA,NA,NA,NA,NA,NA,NA,NA,NA,NA,NA,NA,NA,NA,NA,NA,0,2,2,0,1,NA,NA,NA,NA,NA,NA,NA,NA,NA,NA
SUPAMT80310,3Q5ZZ9ZEVUEVW3LNA7F509UPU2L58F,ADB4A718-69F9-4D56-83F7-015C79E02D7C,2023-09-28_12h10.14.008,WP_VExplicitOC_HL,2022.2.5,Win32,20.03124875,NA,NA,NA,NA,NA,NA,NA,NA,NA,NA,NA,NA,NA,NA,NA,NA,NA,NA,NA,NA,NA,NA,NA,NA,NA,NA,NA,NA,NA,NA,NA,NA,NA,NA,NA,NA,NA,NA,NA,NA,NA,NA,NA,NA,NA,NA,NA,NA,NA,NA,NA,NA,NA,NA,NA,NA,NA,NA,NA
SUPAMT80310,3Q5ZZ9ZEVUEVW3LNA7F509UPU2L58F,ADB4A718-69F9-4D56-83F7-015C79E02D7C,2023-09-28_12h10.14.008,WP_VExplicitOC_HL,2022.2.5,Win32,20.03124875,NA,NA,NA,NA,NA,NA,NA,NA,NA,NA,NA,NA,NA,NA,NA,NA,NA,NA,NA,NA,NA,NA,NA,NA,NA,NA,NA,NA,NA,NA,NA,NA,NA,NA,NA,NA,NA,NA,NA,NA,NA,NA,NA,NA,NA,NA,NA,NA,NA,NA,NA,NA,NA,NA,NA,NA,NA,NA,NA
SUPAMT80310,3Q5ZZ9ZEVUEVW3LNA7F509UPU2L58F,ADB4A718-69F9-4D56-83F7-015C79E02D7C,2023-09-28_12h10.14.008,WP_VExplicitOC_HL,2022.2.5,Win32,20.03124875,-100,4.8795,2.054,NA,NA,NA,NA,NA,happy,"unhappy, happy","less happy, more happy",NA,NA,NA,NA,NA,NA,NA,NA,NA,NA,NA,NA,NA,NA,NA,NA,NA,NA,NA,NA,NA,NA,NA,NA,NA,NA,NA,NA,NA,NA,NA,NA,NA,NA,NA,NA,NA,NA,0,0,0,0,1,NA,NA,NA,NA,NA
SUPAMT80310,3Q5ZZ9ZEVUEVW3LNA7F509UPU2L58F,ADB4A718-69F9-4D56-83F7-015C79E02D7C,2023-09-28_12h10.14.008,WP_VExplicitOC_HL,2022.2.5,Win32,20.03124875,-100,3.6655,2.0525,NA,NA,NA,NA,NA,bored,"bored, not bored","more bored, less bored",NA,NA,NA,NA,NA,NA,NA,NA,NA,NA,NA,NA,NA,NA,NA,NA,NA,NA,NA,NA,NA,NA,NA,NA,NA,NA,NA,NA,NA,NA,NA,NA,NA,NA,NA,NA,NA,NA,0,1,1,2,1,NA,NA,NA,NA,NA
SUPAMT80310,3Q5ZZ9ZEVUEVW3LNA7F509UPU2L58F,ADB4A718-69F9-4D56-83F7-015C79E02D7C,2023-09-28_12h10.14.008,WP_VExplicitOC_HL,2022.2.5,Win32,20.03124875,-100,3.3554,2.025,NA,NA,NA,NA,NA,frustrated,"frustrated, not frustrated","more frustrated, less frustrated",NA,NA,NA,NA,NA,NA,NA,NA,NA,NA,NA,NA,NA,NA,NA,NA,NA,NA,NA,NA,NA,NA,NA,NA,NA,NA,NA,NA,NA,NA,NA,NA,NA,NA,NA,NA,NA,NA,0,2,2,1,1,NA,NA,NA,NA,NA
SUPAMT80310,3Q5ZZ9ZEVUEVW3LNA7F509UPU2L58F,ADB4A718-69F9-4D56-83F7-015C79E02D7C,2023-09-28_12h10.14.008,WP_VExplicitOC_HL,2022.2.5,Win32,20.03124875,NA,NA,NA,NA,NA,NA,NA,NA,NA,NA,NA,NA,NA,NA,NA,NA,NA,NA,NA,NA,NA,NA,NA,NA,NA,NA,NA,NA,NA,NA,NA,NA,NA,NA,NA,NA,NA,NA,NA,NA,NA,NA,NA,NA,NA,NA,NA,NA,NA,NA,NA,NA,NA,NA,0,0,0,0,1
SUPAMT80310,3Q5ZZ9ZEVUEVW3LNA7F509UPU2L58F,ADB4A718-69F9-4D56-83F7-015C79E02D7C,2023-09-28_12h10.14.008,WP_VExplicitOC_HL,2022.2.5,Win32,20.03124875,-97.08627488,5.0381,2.0386,NA,NA,NA,NA,NA,happy,"unhappy, happy","less happy, more happy",NA,NA,NA,NA,NA,NA,NA,NA,NA,NA,NA,NA,NA,NA,NA,NA,NA,NA,NA,NA,NA,NA,NA,NA,NA,NA,NA,NA,NA,NA,NA,NA,NA,NA,NA,NA,NA,NA,0,0,0,0,1,NA,NA,NA,NA,NA
SUPAMT80310,3Q5ZZ9ZEVUEVW3LNA7F509UPU2L58F,ADB4A718-69F9-4D56-83F7-015C79E02D7C,2023-09-28_12h10.14.008,WP_VExplicitOC_HL,2022.2.5,Win32,20.03124875,-97.76520682,3.4693,2.0442,NA,NA,NA,NA,NA,frustrated,"frustrated, not frustrated","more frustrated, less frustrated",NA,NA,NA,NA,NA,NA,NA,NA,NA,NA,NA,NA,NA,NA,NA,NA,NA,NA,NA,NA,NA,NA,NA,NA,NA,NA,NA,NA,NA,NA,NA,NA,NA,NA,NA,NA,NA,NA,0,1,1,1,1,NA,NA,NA,NA,NA
SUPAMT80310,3Q5ZZ9ZEVUEVW3LNA7F509UPU2L58F,ADB4A718-69F9-4D56-83F7-015C79E02D7C,2023-09-28_12h10.14.008,WP_VExplicitOC_HL,2022.2.5,Win32,20.03124875,-97.53889329,2.82,2.0073,NA,NA,NA,NA,NA,bored,"bored, not bored","more bored, less bored",NA,NA,NA,NA,NA,NA,NA,NA,NA,NA,NA,NA,NA,NA,NA,NA,NA,NA,NA,NA,NA,NA,NA,NA,NA,NA,NA,NA,NA,NA,NA,NA,NA,NA,NA,NA,NA,NA,0,2,2,2,1,NA,NA,NA,NA,NA
SUPAMT80310,3Q5ZZ9ZEVUEVW3LNA7F509UPU2L58F,ADB4A718-69F9-4D56-83F7-015C79E02D7C,2023-09-28_12h10.14.008,WP_VExplicitOC_HL,2022.2.5,Win32,20.03124875,NA,NA,NA,NA,NA,NA,NA,NA,NA,NA,NA,NA,NA,NA,NA,NA,NA,NA,NA,NA,NA,NA,NA,NA,NA,NA,NA,NA,NA,NA,NA,NA,NA,NA,NA,NA,NA,NA,NA,NA,NA,NA,NA,NA,NA,NA,NA,NA,NA,NA,NA,NA,NA,NA,1,0,1,0,1
SUPAMT80310,3Q5ZZ9ZEVUEVW3LNA7F509UPU2L58F,ADB4A718-69F9-4D56-83F7-015C79E02D7C,2023-09-28_12h10.14.008,WP_VExplicitOC_HL,2022.2.5,Win32,20.03124875,-94.37058164,3.7231,2.0346,NA,NA,NA,NA,NA,frustrated,"frustrated, not frustrated","more frustrated, less frustrated",NA,NA,NA,NA,NA,NA,NA,NA,NA,NA,NA,NA,NA,NA,NA,NA,NA,NA,NA,NA,NA,NA,NA,NA,NA,NA,NA,NA,NA,NA,NA,NA,NA,NA,NA,NA,NA,NA,0,0,0,1,1,NA,NA,NA,NA,NA
SUPAMT80310,3Q5ZZ9ZEVUEVW3LNA7F509UPU2L58F,ADB4A718-69F9-4D56-83F7-015C79E02D7C,2023-09-28_12h10.14.008,WP_VExplicitOC_HL,2022.2.5,Win32,20.03124875,-84.86562942,2.1539,2.0418,NA,NA,NA,NA,NA,happy,"unhappy, happy","less happy, more happy",NA,NA,NA,NA,NA,NA,NA,NA,NA,NA,NA,NA,NA,NA,NA,NA,NA,NA,NA,NA,NA,NA,NA,NA,NA,NA,NA,NA,NA,NA,NA,NA,NA,NA,NA,NA,NA,NA,0,1,1,0,1,NA,NA,NA,NA,NA
SUPAMT80310,3Q5ZZ9ZEVUEVW3LNA7F509UPU2L58F,ADB4A718-69F9-4D56-83F7-015C79E02D7C,2023-09-28_12h10.14.008,WP_VExplicitOC_HL,2022.2.5,Win32,20.03124875,-91.42856625,2.3609,2.0168,NA,NA,NA,NA,NA,bored,"bored, not bored","more bored, less bored",NA,NA,NA,NA,NA,NA,NA,NA,NA,NA,NA,NA,NA,NA,NA,NA,NA,NA,NA,NA,NA,NA,NA,NA,NA,NA,NA,NA,NA,NA,NA,NA,NA,NA,NA,NA,NA,NA,0,2,2,2,1,NA,NA,NA,NA,NA
SUPAMT80310,3Q5ZZ9ZEVUEVW3LNA7F509UPU2L58F,ADB4A718-69F9-4D56-83F7-015C79E02D7C,2023-09-28_12h10.14.008,WP_VExplicitOC_HL,2022.2.5,Win32,20.03124875,NA,NA,NA,NA,NA,NA,NA,NA,NA,NA,NA,NA,NA,NA,NA,NA,NA,NA,NA,NA,NA,NA,NA,NA,NA,NA,NA,NA,NA,NA,NA,NA,NA,NA,NA,NA,NA,NA,NA,NA,NA,NA,NA,NA,NA,NA,NA,NA,NA,NA,NA,NA,NA,NA,2,0,2,0,1
SUPAMT80310,3Q5ZZ9ZEVUEVW3LNA7F509UPU2L58F,ADB4A718-69F9-4D56-83F7-015C79E02D7C,2023-09-28_12h10.14.008,WP_VExplicitOC_HL,2022.2.5,Win32,20.03124875,-97.53889329,3.1023,2.0297,NA,NA,NA,NA,NA,happy,"unhappy, happy","less happy, more happy",NA,NA,NA,NA,NA,NA,NA,NA,NA,NA,NA,NA,NA,NA,NA,NA,NA,NA,NA,NA,NA,NA,NA,NA,NA,NA,NA,NA,NA,NA,NA,NA,NA,NA,NA,NA,NA,NA,0,0,0,0,1,NA,NA,NA,NA,NA
SUPAMT80310,3Q5ZZ9ZEVUEVW3LNA7F509UPU2L58F,ADB4A718-69F9-4D56-83F7-015C79E02D7C,2023-09-28_12h10.14.008,WP_VExplicitOC_HL,2022.2.5,Win32,20.03124875,-96.63366509,2.3385,2.0311,NA,NA,NA,NA,NA,frustrated,"frustrated, not frustrated","more frustrated, less frustrated",NA,NA,NA,NA,NA,NA,NA,NA,NA,NA,NA,NA,NA,NA,NA,NA,NA,NA,NA,NA,NA,NA,NA,NA,NA,NA,NA,NA,NA,NA,NA,NA,NA,NA,NA,NA,NA,NA,0,1,1,1,1,NA,NA,NA,NA,NA
SUPAMT80310,3Q5ZZ9ZEVUEVW3LNA7F509UPU2L58F,ADB4A718-69F9-4D56-83F7-015C79E02D7C,2023-09-28_12h10.14.008,WP_VExplicitOC_HL,2022.2.5,Win32,20.03124875,-98.89674854,2.7684,2.0129,NA,NA,NA,NA,NA,bored,"bored, not bored","more bored, less bored",NA,NA,NA,NA,NA,NA,NA,NA,NA,NA,NA,NA,NA,NA,NA,NA,NA,NA,NA,NA,NA,NA,NA,NA,NA,NA,NA,NA,NA,NA,NA,NA,NA,NA,NA,NA,NA,NA,0,2,2,2,1,NA,NA,NA,NA,NA
SUPAMT80310,3Q5ZZ9ZEVUEVW3LNA7F509UPU2L58F,ADB4A718-69F9-4D56-83F7-015C79E02D7C,2023-09-28_12h10.14.008,WP_VExplicitOC_HL,2022.2.5,Win32,20.03124875,NA,NA,NA,NA,NA,NA,NA,NA,NA,NA,NA,NA,NA,NA,NA,NA,NA,NA,NA,NA,NA,NA,NA,NA,NA,NA,NA,NA,NA,NA,NA,NA,NA,NA,NA,NA,NA,NA,NA,NA,NA,NA,NA,NA,NA,NA,NA,NA,NA,NA,NA,NA,NA,NA,3,0,3,0,1
SUPAMT80310,3Q5ZZ9ZEVUEVW3LNA7F509UPU2L58F,ADB4A718-69F9-4D56-83F7-015C79E02D7C,2023-09-28_12h10.14.008,WP_VExplicitOC_HL,2022.2.5,Win32,20.03124875,-98.2178166,3.0719,2.0126,NA,NA,NA,NA,NA,bored,"bored, not bored","more bored, less bored",NA,NA,NA,NA,NA,NA,NA,NA,NA,NA,NA,NA,NA,NA,NA,NA,NA,NA,NA,NA,NA,NA,NA,NA,NA,NA,NA,NA,NA,NA,NA,NA,NA,NA,NA,NA,NA,NA,0,0,0,2,1,NA,NA,NA,NA,NA
SUPAMT80310,3Q5ZZ9ZEVUEVW3LNA7F509UPU2L58F,ADB4A718-69F9-4D56-83F7-015C79E02D7C,2023-09-28_12h10.14.008,WP_VExplicitOC_HL,2022.2.5,Win32,20.03124875,-98.89674854,4.592,2.0258,NA,NA,NA,NA,NA,frustrated,"frustrated, not frustrated","more frustrated, less frustrated",NA,NA,NA,NA,NA,NA,NA,NA,NA,NA,NA,NA,NA,NA,NA,NA,NA,NA,NA,NA,NA,NA,NA,NA,NA,NA,NA,NA,NA,NA,NA,NA,NA,NA,NA,NA,NA,NA,0,1,1,1,1,NA,NA,NA,NA,NA
SUPAMT80310,3Q5ZZ9ZEVUEVW3LNA7F509UPU2L58F,ADB4A718-69F9-4D56-83F7-015C79E02D7C,2023-09-28_12h10.14.008,WP_VExplicitOC_HL,2022.2.5,Win32,20.03124875,-97.76520682,2.874,2.0074,NA,NA,NA,NA,NA,happy,"unhappy, happy","less happy, more happy",NA,NA,NA,NA,NA,NA,NA,NA,NA,NA,NA,NA,NA,NA,NA,NA,NA,NA,NA,NA,NA,NA,NA,NA,NA,NA,NA,NA,NA,NA,NA,NA,NA,NA,NA,NA,NA,NA,0,2,2,0,1,NA,NA,NA,NA,NA
SUPAMT80310,3Q5ZZ9ZEVUEVW3LNA7F509UPU2L58F,ADB4A718-69F9-4D56-83F7-015C79E02D7C,2023-09-28_12h10.14.008,WP_VExplicitOC_HL,2022.2.5,Win32,20.03124875,NA,NA,NA,NA,NA,NA,NA,NA,NA,NA,NA,NA,NA,NA,NA,NA,NA,NA,NA,NA,NA,NA,NA,NA,NA,NA,NA,NA,NA,NA,NA,NA,NA,NA,NA,NA,NA,NA,NA,NA,NA,NA,NA,NA,NA,NA,NA,NA,NA,NA,NA,NA,NA,NA,4,0,4,0,1
SUPAMT80310,3Q5ZZ9ZEVUEVW3LNA7F509UPU2L58F,ADB4A718-69F9-4D56-83F7-015C79E02D7C,2023-09-28_12h10.14.008,WP_VExplicitOC_HL,2022.2.5,Win32,20.03124875,-95.27580984,2.9593,2.0394,NA,NA,NA,NA,NA,bored,"bored, not bored","more bored, less bored",NA,NA,NA,NA,NA,NA,NA,NA,NA,NA,NA,NA,NA,NA,NA,NA,NA,NA,NA,NA,NA,NA,NA,NA,NA,NA,NA,NA,NA,NA,NA,NA,NA,NA,NA,NA,NA,NA,0,0,0,2,1,NA,NA,NA,NA,NA
SUPAMT80310,3Q5ZZ9ZEVUEVW3LNA7F509UPU2L58F,ADB4A718-69F9-4D56-83F7-015C79E02D7C,2023-09-28_12h10.14.008,WP_VExplicitOC_HL,2022.2.5,Win32,20.03124875,-97.76520682,2.6735,2.04,NA,NA,NA,NA,NA,frustrated,"frustrated, not frustrated","more frustrated, less frustrated",NA,NA,NA,NA,NA,NA,NA,NA,NA,NA,NA,NA,NA,NA,NA,NA,NA,NA,NA,NA,NA,NA,NA,NA,NA,NA,NA,NA,NA,NA,NA,NA,NA,NA,NA,NA,NA,NA,0,1,1,1,1,NA,NA,NA,NA,NA
SUPAMT80310,3Q5ZZ9ZEVUEVW3LNA7F509UPU2L58F,ADB4A718-69F9-4D56-83F7-015C79E02D7C,2023-09-28_12h10.14.008,WP_VExplicitOC_HL,2022.2.5,Win32,20.03124875,-99.34935833,2.9485,2.0453,NA,NA,NA,NA,NA,happy,"unhappy, happy","less happy, more happy",NA,NA,NA,NA,NA,NA,NA,NA,NA,NA,NA,NA,NA,NA,NA,NA,NA,NA,NA,NA,NA,NA,NA,NA,NA,NA,NA,NA,NA,NA,NA,NA,NA,NA,NA,NA,NA,NA,0,2,2,0,1,NA,NA,NA,NA,NA
SUPAMT80310,3Q5ZZ9ZEVUEVW3LNA7F509UPU2L58F,ADB4A718-69F9-4D56-83F7-015C79E02D7C,2023-09-28_12h10.14.008,WP_VExplicitOC_HL,2022.2.5,Win32,20.03124875,NA,NA,NA,NA,NA,NA,NA,NA,NA,NA,NA,NA,NA,NA,NA,NA,NA,NA,NA,NA,NA,NA,NA,NA,NA,NA,NA,NA,NA,NA,NA,NA,NA,NA,NA,NA,NA,NA,NA,NA,NA,NA,NA,NA,NA,NA,NA,NA,NA,NA,NA,NA,NA,NA,5,0,5,0,1
SUPAMT80310,3Q5ZZ9ZEVUEVW3LNA7F509UPU2L58F,ADB4A718-69F9-4D56-83F7-015C79E02D7C,2023-09-28_12h10.14.008,WP_VExplicitOC_HL,2022.2.5,Win32,20.03124875,-100,3.6712,2.0042,NA,NA,NA,NA,NA,frustrated,"frustrated, not frustrated","more frustrated, less frustrated",NA,NA,NA,NA,NA,NA,NA,NA,NA,NA,NA,NA,NA,NA,NA,NA,NA,NA,NA,NA,NA,NA,NA,NA,NA,NA,NA,NA,NA,NA,NA,NA,NA,NA,NA,NA,NA,NA,0,0,0,1,1,NA,NA,NA,NA,NA
SUPAMT80310,3Q5ZZ9ZEVUEVW3LNA7F509UPU2L58F,ADB4A718-69F9-4D56-83F7-015C79E02D7C,2023-09-28_12h10.14.008,WP_VExplicitOC_HL,2022.2.5,Win32,20.03124875,-96.40735157,2.6144,2.0276,NA,NA,NA,NA,NA,happy,"unhappy, happy","less happy, more happy",NA,NA,NA,NA,NA,NA,NA,NA,NA,NA,NA,NA,NA,NA,NA,NA,NA,NA,NA,NA,NA,NA,NA,NA,NA,NA,NA,NA,NA,NA,NA,NA,NA,NA,NA,NA,NA,NA,0,1,1,0,1,NA,NA,NA,NA,NA
SUPAMT80310,3Q5ZZ9ZEVUEVW3LNA7F509UPU2L58F,ADB4A718-69F9-4D56-83F7-015C79E02D7C,2023-09-28_12h10.14.008,WP_VExplicitOC_HL,2022.2.5,Win32,20.03124875,-98.44413013,2.9372,2.0499,NA,NA,NA,NA,NA,bored,"bored, not bored","more bored, less bored",NA,NA,NA,NA,NA,NA,NA,NA,NA,NA,NA,NA,NA,NA,NA,NA,NA,NA,NA,NA,NA,NA,NA,NA,NA,NA,NA,NA,NA,NA,NA,NA,NA,NA,NA,NA,NA,NA,0,2,2,2,1,NA,NA,NA,NA,NA
SUPAMT80310,3Q5ZZ9ZEVUEVW3LNA7F509UPU2L58F,ADB4A718-69F9-4D56-83F7-015C79E02D7C,2023-09-28_12h10.14.008,WP_VExplicitOC_HL,2022.2.5,Win32,20.03124875,NA,NA,NA,NA,NA,NA,NA,NA,NA,NA,NA,NA,NA,NA,NA,NA,NA,NA,NA,NA,NA,NA,NA,NA,NA,NA,NA,NA,NA,NA,NA,NA,NA,NA,NA,NA,NA,NA,NA,NA,NA,NA,NA,NA,NA,NA,NA,NA,NA,NA,NA,NA,NA,NA,6,0,6,0,1
SUPAMT80310,3Q5ZZ9ZEVUEVW3LNA7F509UPU2L58F,ADB4A718-69F9-4D56-83F7-015C79E02D7C,2023-09-28_12h10.14.008,WP_VExplicitOC_HL,2022.2.5,Win32,20.03124875,-98.2178166,3.3629,2.008,NA,NA,NA,NA,NA,frustrated,"frustrated, not frustrated","more frustrated, less frustrated",NA,NA,NA,NA,NA,NA,NA,NA,NA,NA,NA,NA,NA,NA,NA,NA,NA,NA,NA,NA,NA,NA,NA,NA,NA,NA,NA,NA,NA,NA,NA,NA,NA,NA,NA,NA,NA,NA,0,0,0,1,1,NA,NA,NA,NA,NA
SUPAMT80310,3Q5ZZ9ZEVUEVW3LNA7F509UPU2L58F,ADB4A718-69F9-4D56-83F7-015C79E02D7C,2023-09-28_12h10.14.008,WP_VExplicitOC_HL,2022.2.5,Win32,20.03124875,-97.3125884,2.8323,2.0094,NA,NA,NA,NA,NA,bored,"bored, not bored","more bored, less bored",NA,NA,NA,NA,NA,NA,NA,NA,NA,NA,NA,NA,NA,NA,NA,NA,NA,NA,NA,NA,NA,NA,NA,NA,NA,NA,NA,NA,NA,NA,NA,NA,NA,NA,NA,NA,NA,NA,0,1,1,2,1,NA,NA,NA,NA,NA
SUPAMT80310,3Q5ZZ9ZEVUEVW3LNA7F509UPU2L58F,ADB4A718-69F9-4D56-83F7-015C79E02D7C,2023-09-28_12h10.14.008,WP_VExplicitOC_HL,2022.2.5,Win32,20.03124875,-96.63366509,2.2232,2.0458,NA,NA,NA,NA,NA,happy,"unhappy, happy","less happy, more happy",NA,NA,NA,NA,NA,NA,NA,NA,NA,NA,NA,NA,NA,NA,NA,NA,NA,NA,NA,NA,NA,NA,NA,NA,NA,NA,NA,NA,NA,NA,NA,NA,NA,NA,NA,NA,NA,NA,0,2,2,0,1,NA,NA,NA,NA,NA
SUPAMT80310,3Q5ZZ9ZEVUEVW3LNA7F509UPU2L58F,ADB4A718-69F9-4D56-83F7-015C79E02D7C,2023-09-28_12h10.14.008,WP_VExplicitOC_HL,2022.2.5,Win32,20.03124875,NA,NA,NA,NA,NA,NA,NA,NA,NA,NA,NA,NA,NA,NA,NA,NA,NA,NA,NA,NA,NA,NA,NA,NA,NA,NA,NA,NA,NA,NA,NA,NA,NA,NA,NA,NA,NA,NA,NA,NA,NA,NA,NA,NA,NA,NA,NA,NA,NA,NA,NA,NA,NA,NA,7,0,7,0,1
SUPAMT80310,3Q5ZZ9ZEVUEVW3LNA7F509UPU2L58F,ADB4A718-69F9-4D56-83F7-015C79E02D7C,2023-09-28_12h10.14.008,WP_VExplicitOC_HL,2022.2.5,Win32,20.03124875,-98.44413013,3.8532,2.0085,NA,NA,NA,NA,NA,happy,"unhappy, happy","less happy, more happy",NA,NA,NA,NA,NA,NA,NA,NA,NA,NA,NA,NA,NA,NA,NA,NA,NA,NA,NA,NA,NA,NA,NA,NA,NA,NA,NA,NA,NA,NA,NA,NA,NA,NA,NA,NA,NA,NA,0,0,0,0,1,NA,NA,NA,NA,NA
SUPAMT80310,3Q5ZZ9ZEVUEVW3LNA7F509UPU2L58F,ADB4A718-69F9-4D56-83F7-015C79E02D7C,2023-09-28_12h10.14.008,WP_VExplicitOC_HL,2022.2.5,Win32,20.03124875,-97.53889329,3.4242,2.0134,NA,NA,NA,NA,NA,frustrated,"frustrated, not frustrated","more frustrated, less frustrated",NA,NA,NA,NA,NA,NA,NA,NA,NA,NA,NA,NA,NA,NA,NA,NA,NA,NA,NA,NA,NA,NA,NA,NA,NA,NA,NA,NA,NA,NA,NA,NA,NA,NA,NA,NA,NA,NA,0,1,1,1,1,NA,NA,NA,NA,NA
SUPAMT80310,3Q5ZZ9ZEVUEVW3LNA7F509UPU2L58F,ADB4A718-69F9-4D56-83F7-015C79E02D7C,2023-09-28_12h10.14.008,WP_VExplicitOC_HL,2022.2.5,Win32,20.03124875,-98.2178166,3.0585,2.0804,NA,NA,NA,NA,NA,bored,"bored, not bored","more bored, less bored",NA,NA,NA,NA,NA,NA,NA,NA,NA,NA,NA,NA,NA,NA,NA,NA,NA,NA,NA,NA,NA,NA,NA,NA,NA,NA,NA,NA,NA,NA,NA,NA,NA,NA,NA,NA,NA,NA,0,2,2,2,1,NA,NA,NA,NA,NA
SUPAMT80310,3Q5ZZ9ZEVUEVW3LNA7F509UPU2L58F,ADB4A718-69F9-4D56-83F7-015C79E02D7C,2023-09-28_12h10.14.008,WP_VExplicitOC_HL,2022.2.5,Win32,20.03124875,NA,NA,NA,NA,NA,NA,NA,NA,NA,NA,NA,NA,NA,NA,NA,NA,NA,NA,NA,NA,NA,NA,NA,NA,NA,NA,NA,NA,NA,NA,NA,NA,NA,NA,NA,NA,NA,NA,NA,NA,NA,NA,NA,NA,NA,NA,NA,NA,NA,NA,NA,NA,NA,NA,8,0,8,0,1
SUPAMT80310,3Q5ZZ9ZEVUEVW3LNA7F509UPU2L58F,ADB4A718-69F9-4D56-83F7-015C79E02D7C,2023-09-28_12h10.14.008,WP_VExplicitOC_HL,2022.2.5,Win32,20.03124875,-97.08627488,5.88,2.0557,NA,NA,NA,NA,NA,bored,"bored, not bored","more bored, less bored",NA,NA,NA,NA,NA,NA,NA,NA,NA,NA,NA,NA,NA,NA,NA,NA,NA,NA,NA,NA,NA,NA,NA,NA,NA,NA,NA,NA,NA,NA,NA,NA,NA,NA,NA,NA,NA,NA,0,0,0,2,1,NA,NA,NA,NA,NA
SUPAMT80310,3Q5ZZ9ZEVUEVW3LNA7F509UPU2L58F,ADB4A718-69F9-4D56-83F7-015C79E02D7C,2023-09-28_12h10.14.008,WP_VExplicitOC_HL,2022.2.5,Win32,20.03124875,-97.76520682,2.4522,2.0364,NA,NA,NA,NA,NA,happy,"unhappy, happy","less happy, more happy",NA,NA,NA,NA,NA,NA,NA,NA,NA,NA,NA,NA,NA,NA,NA,NA,NA,NA,NA,NA,NA,NA,NA,NA,NA,NA,NA,NA,NA,NA,NA,NA,NA,NA,NA,NA,NA,NA,0,1,1,0,1,NA,NA,NA,NA,NA
SUPAMT80310,3Q5ZZ9ZEVUEVW3LNA7F509UPU2L58F,ADB4A718-69F9-4D56-83F7-015C79E02D7C,2023-09-28_12h10.14.008,WP_VExplicitOC_HL,2022.2.5,Win32,20.03124875,-97.76520682,2.2934,2.0063,NA,NA,NA,NA,NA,frustrated,"frustrated, not frustrated","more frustrated, less frustrated",NA,NA,NA,NA,NA,NA,NA,NA,NA,NA,NA,NA,NA,NA,NA,NA,NA,NA,NA,NA,NA,NA,NA,NA,NA,NA,NA,NA,NA,NA,NA,NA,NA,NA,NA,NA,NA,NA,0,2,2,1,1,NA,NA,NA,NA,NA
SUPAMT80310,3Q5ZZ9ZEVUEVW3LNA7F509UPU2L58F,ADB4A718-69F9-4D56-83F7-015C79E02D7C,2023-09-28_12h10.14.008,WP_VExplicitOC_HL,2022.2.5,Win32,20.03124875,NA,NA,NA,NA,NA,NA,NA,NA,NA,NA,NA,NA,NA,NA,NA,NA,NA,NA,NA,NA,NA,NA,NA,NA,NA,NA,NA,NA,NA,NA,NA,NA,NA,NA,NA,NA,NA,NA,NA,NA,NA,NA,NA,NA,NA,NA,NA,NA,NA,NA,NA,NA,NA,NA,9,0,9,0,1
SUPAMT80310,3Q5ZZ9ZEVUEVW3LNA7F509UPU2L58F,ADB4A718-69F9-4D56-83F7-015C79E02D7C,2023-09-28_12h10.14.008,WP_VExplicitOC_HL,2022.2.5,Win32,20.03124875,-97.53889329,2.8447,2,NA,NA,NA,NA,NA,frustrated,"frustrated, not frustrated","more frustrated, less frustrated",NA,NA,NA,NA,NA,NA,NA,NA,NA,NA,NA,NA,NA,NA,NA,NA,NA,NA,NA,NA,NA,NA,NA,NA,NA,NA,NA,NA,NA,NA,NA,NA,NA,NA,NA,NA,NA,NA,0,0,0,1,1,NA,NA,NA,NA,NA
SUPAMT80310,3Q5ZZ9ZEVUEVW3LNA7F509UPU2L58F,ADB4A718-69F9-4D56-83F7-015C79E02D7C,2023-09-28_12h10.14.008,WP_VExplicitOC_HL,2022.2.5,Win32,20.03124875,-99.12305344,2.2719,2.0509,NA,NA,NA,NA,NA,bored,"bored, not bored","more bored, less bored",NA,NA,NA,NA,NA,NA,NA,NA,NA,NA,NA,NA,NA,NA,NA,NA,NA,NA,NA,NA,NA,NA,NA,NA,NA,NA,NA,NA,NA,NA,NA,NA,NA,NA,NA,NA,NA,NA,0,1,1,2,1,NA,NA,NA,NA,NA
SUPAMT80310,3Q5ZZ9ZEVUEVW3LNA7F509UPU2L58F,ADB4A718-69F9-4D56-83F7-015C79E02D7C,2023-09-28_12h10.14.008,WP_VExplicitOC_HL,2022.2.5,Win32,20.03124875,-99.12305344,2.1921,2.0294,NA,NA,NA,NA,NA,happy,"unhappy, happy","less happy, more happy",NA,NA,NA,NA,NA,NA,NA,NA,NA,NA,NA,NA,NA,NA,NA,NA,NA,NA,NA,NA,NA,NA,NA,NA,NA,NA,NA,NA,NA,NA,NA,NA,NA,NA,NA,NA,NA,NA,0,2,2,0,1,NA,NA,NA,NA,NA
SUPAMT80310,3Q5ZZ9ZEVUEVW3LNA7F509UPU2L58F,ADB4A718-69F9-4D56-83F7-015C79E02D7C,2023-09-28_12h10.14.008,WP_VExplicitOC_HL,2022.2.5,Win32,20.03124875,NA,NA,NA,NA,NA,NA,NA,NA,NA,NA,NA,NA,NA,NA,NA,NA,NA,NA,NA,NA,NA,NA,NA,NA,NA,NA,NA,NA,NA,NA,NA,NA,NA,NA,NA,NA,NA,NA,NA,NA,NA,NA,NA,NA,NA,NA,NA,NA,NA,NA,NA,NA,NA,NA,10,0,10,0,1
SUPAMT80310,3Q5ZZ9ZEVUEVW3LNA7F509UPU2L58F,ADB4A718-69F9-4D56-83F7-015C79E02D7C,2023-09-28_12h10.14.008,WP_VExplicitOC_HL,2022.2.5,Win32,20.03124875,-92.33380308,3.4284,2.0146,NA,NA,NA,NA,NA,happy,"unhappy, happy","less happy, more happy",NA,NA,NA,NA,NA,NA,NA,NA,NA,NA,NA,NA,NA,NA,NA,NA,NA,NA,NA,NA,NA,NA,NA,NA,NA,NA,NA,NA,NA,NA,NA,NA,NA,NA,NA,NA,NA,NA,0,0,0,0,1,NA,NA,NA,NA,NA
SUPAMT80310,3Q5ZZ9ZEVUEVW3LNA7F509UPU2L58F,ADB4A718-69F9-4D56-83F7-015C79E02D7C,2023-09-28_12h10.14.008,WP_VExplicitOC_HL,2022.2.5,Win32,20.03124875,-99.12305344,2.1897,2.0131,NA,NA,NA,NA,NA,frustrated,"frustrated, not frustrated","more frustrated, less frustrated",NA,NA,NA,NA,NA,NA,NA,NA,NA,NA,NA,NA,NA,NA,NA,NA,NA,NA,NA,NA,NA,NA,NA,NA,NA,NA,NA,NA,NA,NA,NA,NA,NA,NA,NA,NA,NA,NA,0,1,1,1,1,NA,NA,NA,NA,NA
SUPAMT80310,3Q5ZZ9ZEVUEVW3LNA7F509UPU2L58F,ADB4A718-69F9-4D56-83F7-015C79E02D7C,2023-09-28_12h10.14.008,WP_VExplicitOC_HL,2022.2.5,Win32,20.03124875,-99.12305344,2.2147,2.0058,NA,NA,NA,NA,NA,bored,"bored, not bored","more bored, less bored",NA,NA,NA,NA,NA,NA,NA,NA,NA,NA,NA,NA,NA,NA,NA,NA,NA,NA,NA,NA,NA,NA,NA,NA,NA,NA,NA,NA,NA,NA,NA,NA,NA,NA,NA,NA,NA,NA,0,2,2,2,1,NA,NA,NA,NA,NA
SUPAMT80310,3Q5ZZ9ZEVUEVW3LNA7F509UPU2L58F,ADB4A718-69F9-4D56-83F7-015C79E02D7C,2023-09-28_12h10.14.008,WP_VExplicitOC_HL,2022.2.5,Win32,20.03124875,NA,NA,NA,NA,NA,NA,NA,NA,NA,NA,NA,NA,NA,NA,NA,NA,NA,NA,NA,NA,NA,NA,NA,NA,NA,NA,NA,NA,NA,NA,NA,NA,NA,NA,NA,NA,NA,NA,NA,NA,NA,NA,NA,NA,NA,NA,NA,NA,NA,NA,NA,NA,NA,NA,11,0,11,0,1
SUPAMT80310,3Q5ZZ9ZEVUEVW3LNA7F509UPU2L58F,ADB4A718-69F9-4D56-83F7-015C79E02D7C,2023-09-28_12h10.14.008,WP_VExplicitOC_HL,2022.2.5,Win32,20.03124875,-99.12305344,2.6855,2.0145,NA,NA,NA,NA,NA,bored,"bored, not bored","more bored, less bored",NA,NA,NA,NA,NA,NA,NA,NA,NA,NA,NA,NA,NA,NA,NA,NA,NA,NA,NA,NA,NA,NA,NA,NA,NA,NA,NA,NA,NA,NA,NA,NA,NA,NA,NA,NA,NA,NA,0,0,0,2,1,NA,NA,NA,NA,NA
SUPAMT80310,3Q5ZZ9ZEVUEVW3LNA7F509UPU2L58F,ADB4A718-69F9-4D56-83F7-015C79E02D7C,2023-09-28_12h10.14.008,WP_VExplicitOC_HL,2022.2.5,Win32,20.03124875,-99.34935833,2.1698,2.0146,NA,NA,NA,NA,NA,frustrated,"frustrated, not frustrated","more frustrated, less frustrated",NA,NA,NA,NA,NA,NA,NA,NA,NA,NA,NA,NA,NA,NA,NA,NA,NA,NA,NA,NA,NA,NA,NA,NA,NA,NA,NA,NA,NA,NA,NA,NA,NA,NA,NA,NA,NA,NA,0,1,1,1,1,NA,NA,NA,NA,NA
SUPAMT80310,3Q5ZZ9ZEVUEVW3LNA7F509UPU2L58F,ADB4A718-69F9-4D56-83F7-015C79E02D7C,2023-09-28_12h10.14.008,WP_VExplicitOC_HL,2022.2.5,Win32,20.03124875,-99.34935833,2.1761,2.0001,NA,NA,NA,NA,NA,happy,"unhappy, happy","less happy, more happy",NA,NA,NA,NA,NA,NA,NA,NA,NA,NA,NA,NA,NA,NA,NA,NA,NA,NA,NA,NA,NA,NA,NA,NA,NA,NA,NA,NA,NA,NA,NA,NA,NA,NA,NA,NA,NA,NA,0,2,2,0,1,NA,NA,NA,NA,NA
SUPAMT80310,3Q5ZZ9ZEVUEVW3LNA7F509UPU2L58F,ADB4A718-69F9-4D56-83F7-015C79E02D7C,2023-09-28_12h10.14.008,WP_VExplicitOC_HL,2022.2.5,Win32,20.03124875,NA,NA,NA,NA,NA,NA,NA,NA,NA,NA,NA,NA,NA,NA,NA,NA,NA,NA,NA,NA,NA,NA,NA,NA,NA,NA,NA,NA,NA,NA,NA,NA,NA,NA,NA,NA,NA,NA,NA,NA,NA,NA,NA,NA,NA,NA,NA,NA,NA,NA,NA,NA,NA,NA,12,0,12,0,1
SUPAMT80310,3Q5ZZ9ZEVUEVW3LNA7F509UPU2L58F,ADB4A718-69F9-4D56-83F7-015C79E02D7C,2023-09-28_12h10.14.008,WP_VExplicitOC_HL,2022.2.5,Win32,20.03124875,-97.99151171,2.3201,2.0169,NA,NA,NA,NA,NA,bored,"bored, not bored","more bored, less bored",NA,NA,NA,NA,NA,NA,NA,NA,NA,NA,NA,NA,NA,NA,NA,NA,NA,NA,NA,NA,NA,NA,NA,NA,NA,NA,NA,NA,NA,NA,NA,NA,NA,NA,NA,NA,NA,NA,0,0,0,2,1,NA,NA,NA,NA,NA
SUPAMT80310,3Q5ZZ9ZEVUEVW3LNA7F509UPU2L58F,ADB4A718-69F9-4D56-83F7-015C79E02D7C,2023-09-28_12h10.14.008,WP_VExplicitOC_HL,2022.2.5,Win32,20.03124875,-97.99151171,2.2204,2.0156,NA,NA,NA,NA,NA,happy,"unhappy, happy","less happy, more happy",NA,NA,NA,NA,NA,NA,NA,NA,NA,NA,NA,NA,NA,NA,NA,NA,NA,NA,NA,NA,NA,NA,NA,NA,NA,NA,NA,NA,NA,NA,NA,NA,NA,NA,NA,NA,NA,NA,0,1,1,0,1,NA,NA,NA,NA,NA
SUPAMT80310,3Q5ZZ9ZEVUEVW3LNA7F509UPU2L58F,ADB4A718-69F9-4D56-83F7-015C79E02D7C,2023-09-28_12h10.14.008,WP_VExplicitOC_HL,2022.2.5,Win32,20.03124875,-98.2178166,3.1009,2.0483,NA,NA,NA,NA,NA,frustrated,"frustrated, not frustrated","more frustrated, less frustrated",NA,NA,NA,NA,NA,NA,NA,NA,NA,NA,NA,NA,NA,NA,NA,NA,NA,NA,NA,NA,NA,NA,NA,NA,NA,NA,NA,NA,NA,NA,NA,NA,NA,NA,NA,NA,NA,NA,0,2,2,1,1,NA,NA,NA,NA,NA
SUPAMT80310,3Q5ZZ9ZEVUEVW3LNA7F509UPU2L58F,ADB4A718-69F9-4D56-83F7-015C79E02D7C,2023-09-28_12h10.14.008,WP_VExplicitOC_HL,2022.2.5,Win32,20.03124875,NA,NA,NA,NA,NA,NA,NA,NA,NA,NA,NA,NA,NA,NA,NA,NA,NA,NA,NA,NA,NA,NA,NA,NA,NA,NA,NA,NA,NA,NA,NA,NA,NA,NA,NA,NA,NA,NA,NA,NA,NA,NA,NA,NA,NA,NA,NA,NA,NA,NA,NA,NA,NA,NA,13,0,13,0,1
SUPAMT80310,3Q5ZZ9ZEVUEVW3LNA7F509UPU2L58F,ADB4A718-69F9-4D56-83F7-015C79E02D7C,2023-09-28_12h10.14.008,WP_VExplicitOC_HL,2022.2.5,Win32,20.03124875,-96.18104668,2.1518,2.0014,NA,NA,NA,NA,NA,frustrated,"frustrated, not frustrated","more frustrated, less frustrated",NA,NA,NA,NA,NA,NA,NA,NA,NA,NA,NA,NA,NA,NA,NA,NA,NA,NA,NA,NA,NA,NA,NA,NA,NA,NA,NA,NA,NA,NA,NA,NA,NA,NA,NA,NA,NA,NA,0,0,0,1,1,NA,NA,NA,NA,NA
SUPAMT80310,3Q5ZZ9ZEVUEVW3LNA7F509UPU2L58F,ADB4A718-69F9-4D56-83F7-015C79E02D7C,2023-09-28_12h10.14.008,WP_VExplicitOC_HL,2022.2.5,Win32,20.03124875,-94.37058164,2.9017,2.0342,NA,NA,NA,NA,NA,happy,"unhappy, happy","less happy, more happy",NA,NA,NA,NA,NA,NA,NA,NA,NA,NA,NA,NA,NA,NA,NA,NA,NA,NA,NA,NA,NA,NA,NA,NA,NA,NA,NA,NA,NA,NA,NA,NA,NA,NA,NA,NA,NA,NA,0,1,1,0,1,NA,NA,NA,NA,NA
SUPAMT80310,3Q5ZZ9ZEVUEVW3LNA7F509UPU2L58F,ADB4A718-69F9-4D56-83F7-015C79E02D7C,2023-09-28_12h10.14.008,WP_VExplicitOC_HL,2022.2.5,Win32,20.03124875,-98.44413013,2.111,2.0032,NA,NA,NA,NA,NA,bored,"bored, not bored","more bored, less bored",NA,NA,NA,NA,NA,NA,NA,NA,NA,NA,NA,NA,NA,NA,NA,NA,NA,NA,NA,NA,NA,NA,NA,NA,NA,NA,NA,NA,NA,NA,NA,NA,NA,NA,NA,NA,NA,NA,0,2,2,2,1,NA,NA,NA,NA,NA
SUPAMT80310,3Q5ZZ9ZEVUEVW3LNA7F509UPU2L58F,ADB4A718-69F9-4D56-83F7-015C79E02D7C,2023-09-28_12h10.14.008,WP_VExplicitOC_HL,2022.2.5,Win32,20.03124875,NA,NA,NA,NA,NA,NA,NA,NA,NA,NA,NA,NA,NA,NA,NA,NA,NA,NA,NA,NA,NA,NA,NA,NA,NA,NA,NA,NA,NA,NA,NA,NA,NA,NA,NA,NA,NA,NA,NA,NA,NA,NA,NA,NA,NA,NA,NA,NA,NA,NA,NA,NA,NA,NA,14,0,14,0,1
SUPAMT80310,3Q5ZZ9ZEVUEVW3LNA7F509UPU2L58F,ADB4A718-69F9-4D56-83F7-015C79E02D7C,2023-09-28_12h10.14.008,WP_VExplicitOC_HL,2022.2.5,Win32,20.03124875,NA,NA,NA,NA,NA,NA,NA,NA,NA,NA,NA,NA,NA,NA,NA,NA,NA,NA,NA,NA,NA,NA,NA,NA,NA,NA,NA,NA,NA,NA,NA,NA,NA,NA,NA,NA,NA,NA,NA,NA,NA,NA,NA,NA,NA,NA,NA,NA,NA,NA,NA,NA,NA,NA,NA,NA,NA,NA,NA
