participant,session,completion,date,expName,psychopyVersion,OS,frameRate,rating_all.response,rating_all.rt,rating_all.tStart,rndRat1.thisRepN,rndRat1.thisTrialN,rndRat1.thisN,rndRat1.thisIndex,rndRat1.ran,Emo,Labs,Labs2,rating_alt.response,rating_alt.rt,AltC.thisRepN,AltC.thisTrialN,AltC.thisN,AltC.thisIndex,AltC.ran,alt_choices,pic_choices,BottomAlt_Choice,rndRat2.thisRepN,rndRat2.thisTrialN,rndRat2.thisN,rndRat2.thisIndex,rndRat2.ran,rndRat3.thisRepN,rndRat3.thisTrialN,rndRat3.thisN,rndRat3.thisIndex,rndRat3.ran,trials_FC_L.thisRepN,trials_FC_L.thisTrialN,trials_FC_L.thisN,trials_FC_L.thisIndex,trials_FC_L.ran,rating_alt_2.response,rating_alt_2.rt,AltC2.thisRepN,AltC2.thisTrialN,AltC2.thisN,AltC2.thisIndex,AltC2.ran,TopAlt_Choice,rndRat4.thisRepN,rndRat4.thisTrialN,rndRat4.thisN,rndRat4.thisIndex,rndRat4.ran,rndRat5.thisRepN,rndRat5.thisTrialN,rndRat5.thisN,rndRat5.thisIndex,rndRat5.ran,trials_FC_H.thisRepN,trials_FC_H.thisTrialN,trials_FC_H.thisN,trials_FC_H.thisIndex,trials_FC_H.ran
SUPAMT92404,3WMOAN2SRHWXX4N6M0M1M4EJWLMNVS,DFCD0001-0A78-4DB6-9FAD-C068696600D6,2023-09-28_12h47.56.060,WP_VExplicitOC_LH,2022.2.5,Win32,7.353535948,NA,NA,NA,NA,NA,NA,NA,NA,NA,NA,NA,NA,NA,NA,NA,NA,NA,NA,NA,NA,NA,NA,NA,NA,NA,NA,NA,NA,NA,NA,NA,NA,NA,NA,NA,NA,NA,NA,NA,NA,NA,NA,NA,NA,NA,NA,NA,NA,NA,NA,NA,NA,NA,NA,NA,NA,NA,NA,NA
SUPAMT92404,3WMOAN2SRHWXX4N6M0M1M4EJWLMNVS,DFCD0001-0A78-4DB6-9FAD-C068696600D6,2023-09-28_12h47.56.060,WP_VExplicitOC_LH,2022.2.5,Win32,7.353535948,NA,NA,NA,NA,NA,NA,NA,NA,NA,NA,NA,NA,NA,NA,NA,NA,NA,NA,NA,NA,NA,NA,NA,NA,NA,NA,NA,NA,NA,NA,NA,NA,NA,NA,NA,NA,NA,NA,NA,NA,NA,NA,NA,NA,NA,NA,NA,NA,NA,NA,NA,NA,NA,NA,NA,NA,NA,NA,NA
SUPAMT92404,3WMOAN2SRHWXX4N6M0M1M4EJWLMNVS,DFCD0001-0A78-4DB6-9FAD-C068696600D6,2023-09-28_12h47.56.060,WP_VExplicitOC_LH,2022.2.5,Win32,7.353535948,NA,NA,NA,NA,NA,NA,NA,NA,NA,NA,NA,NA,NA,NA,NA,NA,NA,NA,NA,NA,NA,NA,NA,NA,NA,NA,NA,NA,NA,NA,NA,NA,NA,NA,NA,NA,NA,NA,NA,NA,NA,NA,NA,NA,NA,NA,NA,NA,NA,NA,NA,NA,NA,NA,NA,NA,NA,NA,NA
SUPAMT92404,3WMOAN2SRHWXX4N6M0M1M4EJWLMNVS,DFCD0001-0A78-4DB6-9FAD-C068696600D6,2023-09-28_12h47.56.060,WP_VExplicitOC_LH,2022.2.5,Win32,7.353535948,NA,NA,2.0746000000000002,0,0,0,0,1,happy,"unhappy, happy","less happy, more happy",NA,NA,NA,NA,NA,NA,NA,NA,NA,NA,NA,NA,NA,NA,NA,NA,NA,NA,NA,NA,NA,NA,NA,NA,NA,NA,NA,NA,NA,NA,NA,NA,NA,NA,NA,NA,NA,NA,NA,NA,NA,NA,NA,NA,NA,NA,NA,NA
SUPAMT92404,3WMOAN2SRHWXX4N6M0M1M4EJWLMNVS,DFCD0001-0A78-4DB6-9FAD-C068696600D6,2023-09-28_12h47.56.060,WP_VExplicitOC_LH,2022.2.5,Win32,7.353535948,100,3.8114,2.0528,0,1,1,1,1,frustrated,"frustrated, not frustrated","more frustrated, less frustrated",NA,NA,NA,NA,NA,NA,NA,NA,NA,NA,NA,NA,NA,NA,NA,NA,NA,NA,NA,NA,NA,NA,NA,NA,NA,NA,NA,NA,NA,NA,NA,NA,NA,NA,NA,NA,NA,NA,NA,NA,NA,NA,NA,NA,NA,NA,NA,NA
SUPAMT92404,3WMOAN2SRHWXX4N6M0M1M4EJWLMNVS,DFCD0001-0A78-4DB6-9FAD-C068696600D6,2023-09-28_12h47.56.060,WP_VExplicitOC_LH,2022.2.5,Win32,7.353535948,100,3.2077,2.0782,0,2,2,2,1,bored,"bored, not bored","more bored, less bored",NA,NA,NA,NA,NA,NA,NA,NA,NA,NA,NA,NA,NA,NA,NA,NA,NA,NA,NA,NA,NA,NA,NA,NA,NA,NA,NA,NA,NA,NA,NA,NA,NA,NA,NA,NA,NA,NA,NA,NA,NA,NA,NA,NA,NA,NA,NA,NA
SUPAMT92404,3WMOAN2SRHWXX4N6M0M1M4EJWLMNVS,DFCD0001-0A78-4DB6-9FAD-C068696600D6,2023-09-28_12h47.56.060,WP_VExplicitOC_LH,2022.2.5,Win32,7.353535948,NA,NA,NA,NA,NA,NA,NA,NA,NA,NA,NA,NA,NA,NA,NA,NA,NA,NA,NA,NA,NA,NA,NA,NA,NA,NA,NA,NA,NA,NA,NA,NA,NA,NA,NA,NA,NA,NA,NA,NA,NA,NA,NA,NA,NA,NA,NA,NA,NA,NA,NA,NA,NA,NA,NA,NA,NA,NA,NA
SUPAMT92404,3WMOAN2SRHWXX4N6M0M1M4EJWLMNVS,DFCD0001-0A78-4DB6-9FAD-C068696600D6,2023-09-28_12h47.56.060,WP_VExplicitOC_LH,2022.2.5,Win32,7.353535948,NA,NA,NA,NA,NA,NA,NA,NA,NA,NA,NA,NA,NA,NA,NA,NA,NA,NA,NA,NA,NA,NA,NA,NA,NA,NA,NA,NA,NA,NA,NA,NA,NA,NA,NA,NA,NA,NA,NA,NA,NA,NA,NA,NA,NA,NA,NA,NA,NA,NA,NA,NA,NA,NA,NA,NA,NA,NA,NA
SUPAMT92404,3WMOAN2SRHWXX4N6M0M1M4EJWLMNVS,DFCD0001-0A78-4DB6-9FAD-C068696600D6,2023-09-28_12h47.56.060,WP_VExplicitOC_LH,2022.2.5,Win32,7.353535948,NA,NA,NA,NA,NA,NA,NA,NA,NA,NA,NA,NA,NA,NA,NA,NA,NA,NA,NA,NA,NA,NA,NA,NA,NA,NA,NA,NA,NA,NA,NA,NA,NA,NA,NA,NA,NA,NA,NA,NA,NA,NA,NA,NA,NA,NA,NA,NA,NA,NA,NA,NA,NA,NA,NA,NA,NA,NA,NA
SUPAMT92404,3WMOAN2SRHWXX4N6M0M1M4EJWLMNVS,DFCD0001-0A78-4DB6-9FAD-C068696600D6,2023-09-28_12h47.56.060,WP_VExplicitOC_LH,2022.2.5,Win32,7.353535948,NA,NA,NA,NA,NA,NA,NA,NA,NA,NA,NA,NA,NA,NA,NA,NA,NA,NA,NA,NA,NA,NA,NA,NA,NA,NA,NA,NA,NA,NA,NA,NA,NA,NA,NA,NA,NA,NA,NA,NA,NA,NA,NA,NA,NA,NA,NA,NA,NA,NA,NA,NA,NA,NA,NA,NA,NA,NA,NA
SUPAMT92404,3WMOAN2SRHWXX4N6M0M1M4EJWLMNVS,DFCD0001-0A78-4DB6-9FAD-C068696600D6,2023-09-28_12h47.56.060,WP_VExplicitOC_LH,2022.2.5,Win32,7.353535948,NA,NA,NA,NA,NA,NA,NA,NA,NA,NA,NA,59.60061444,2.2868,0,0,0,0,1,rest (looking at a fixed cross),001.png,NA,NA,NA,NA,NA,NA,NA,NA,NA,NA,NA,NA,NA,NA,NA,NA,NA,NA,NA,NA,NA,NA,NA,NA,NA,NA,NA,NA,NA,NA,NA,NA,NA,NA,NA,NA,NA,NA,NA
SUPAMT92404,3WMOAN2SRHWXX4N6M0M1M4EJWLMNVS,DFCD0001-0A78-4DB6-9FAD-C068696600D6,2023-09-28_12h47.56.060,WP_VExplicitOC_LH,2022.2.5,Win32,7.353535948,NA,NA,NA,NA,NA,NA,NA,NA,NA,NA,NA,-28.57142857,1.603,0,1,1,1,1,stand up,002.png,NA,NA,NA,NA,NA,NA,NA,NA,NA,NA,NA,NA,NA,NA,NA,NA,NA,NA,NA,NA,NA,NA,NA,NA,NA,NA,NA,NA,NA,NA,NA,NA,NA,NA,NA,NA,NA,NA,NA
SUPAMT92404,3WMOAN2SRHWXX4N6M0M1M4EJWLMNVS,DFCD0001-0A78-4DB6-9FAD-C068696600D6,2023-09-28_12h47.56.060,WP_VExplicitOC_LH,2022.2.5,Win32,7.353535948,NA,NA,NA,NA,NA,NA,NA,NA,NA,NA,NA,27.95698925,1.2897,0,2,2,2,1,stretch,003.png,NA,NA,NA,NA,NA,NA,NA,NA,NA,NA,NA,NA,NA,NA,NA,NA,NA,NA,NA,NA,NA,NA,NA,NA,NA,NA,NA,NA,NA,NA,NA,NA,NA,NA,NA,NA,NA,NA,NA
SUPAMT92404,3WMOAN2SRHWXX4N6M0M1M4EJWLMNVS,DFCD0001-0A78-4DB6-9FAD-C068696600D6,2023-09-28_12h47.56.060,WP_VExplicitOC_LH,2022.2.5,Win32,7.353535948,NA,NA,NA,NA,NA,NA,NA,NA,NA,NA,NA,54.37788018,1.1149,0,3,3,3,1,make a drink,004.png,NA,NA,NA,NA,NA,NA,NA,NA,NA,NA,NA,NA,NA,NA,NA,NA,NA,NA,NA,NA,NA,NA,NA,NA,NA,NA,NA,NA,NA,NA,NA,NA,NA,NA,NA,NA,NA,NA,NA
SUPAMT92404,3WMOAN2SRHWXX4N6M0M1M4EJWLMNVS,DFCD0001-0A78-4DB6-9FAD-C068696600D6,2023-09-28_12h47.56.060,WP_VExplicitOC_LH,2022.2.5,Win32,7.353535948,NA,NA,NA,NA,NA,NA,NA,NA,NA,NA,NA,37.78801843,1.2919,0,4,4,4,1,scroll social media,005.png,NA,NA,NA,NA,NA,NA,NA,NA,NA,NA,NA,NA,NA,NA,NA,NA,NA,NA,NA,NA,NA,NA,NA,NA,NA,NA,NA,NA,NA,NA,NA,NA,NA,NA,NA,NA,NA,NA,NA
SUPAMT92404,3WMOAN2SRHWXX4N6M0M1M4EJWLMNVS,DFCD0001-0A78-4DB6-9FAD-C068696600D6,2023-09-28_12h47.56.060,WP_VExplicitOC_LH,2022.2.5,Win32,7.353535948,NA,NA,NA,NA,NA,NA,NA,NA,NA,NA,NA,62.3655914,1.1231,0,5,5,5,1,listen to music,006.png,NA,NA,NA,NA,NA,NA,NA,NA,NA,NA,NA,NA,NA,NA,NA,NA,NA,NA,NA,NA,NA,NA,NA,NA,NA,NA,NA,NA,NA,NA,NA,NA,NA,NA,NA,NA,NA,NA,NA
SUPAMT92404,3WMOAN2SRHWXX4N6M0M1M4EJWLMNVS,DFCD0001-0A78-4DB6-9FAD-C068696600D6,2023-09-28_12h47.56.060,WP_VExplicitOC_LH,2022.2.5,Win32,7.353535948,NA,NA,NA,NA,NA,NA,NA,NA,NA,NA,NA,61.13671275,0.9591,0,6,6,6,1,daydream,007.png,NA,NA,NA,NA,NA,NA,NA,NA,NA,NA,NA,NA,NA,NA,NA,NA,NA,NA,NA,NA,NA,NA,NA,NA,NA,NA,NA,NA,NA,NA,NA,NA,NA,NA,NA,NA,NA,NA,NA
SUPAMT92404,3WMOAN2SRHWXX4N6M0M1M4EJWLMNVS,DFCD0001-0A78-4DB6-9FAD-C068696600D6,2023-09-28_12h47.56.060,WP_VExplicitOC_LH,2022.2.5,Win32,7.353535948,NA,NA,NA,NA,NA,NA,NA,NA,NA,NA,NA,70.66052227,1.133,0,7,7,7,1,watch a short animation,008.png,NA,NA,NA,NA,NA,NA,NA,NA,NA,NA,NA,NA,NA,NA,NA,NA,NA,NA,NA,NA,NA,NA,NA,NA,NA,NA,NA,NA,NA,NA,NA,NA,NA,NA,NA,NA,NA,NA,NA
SUPAMT92404,3WMOAN2SRHWXX4N6M0M1M4EJWLMNVS,DFCD0001-0A78-4DB6-9FAD-C068696600D6,2023-09-28_12h47.56.060,WP_VExplicitOC_LH,2022.2.5,Win32,7.353535948,NA,NA,NA,NA,NA,NA,NA,NA,NA,NA,NA,54.37788018,1.4528,0,8,8,8,1,read a novel,009.png,NA,NA,NA,NA,NA,NA,NA,NA,NA,NA,NA,NA,NA,NA,NA,NA,NA,NA,NA,NA,NA,NA,NA,NA,NA,NA,NA,NA,NA,NA,NA,NA,NA,NA,NA,NA,NA,NA,NA
SUPAMT92404,3WMOAN2SRHWXX4N6M0M1M4EJWLMNVS,DFCD0001-0A78-4DB6-9FAD-C068696600D6,2023-09-28_12h47.56.060,WP_VExplicitOC_LH,2022.2.5,Win32,7.353535948,NA,NA,NA,NA,NA,NA,NA,NA,NA,NA,NA,68.8172043,1.766,0,9,9,9,1,read the news,010.png,NA,NA,NA,NA,NA,NA,NA,NA,NA,NA,NA,NA,NA,NA,NA,NA,NA,NA,NA,NA,NA,NA,NA,NA,NA,NA,NA,NA,NA,NA,NA,NA,NA,NA,NA,NA,NA,NA,NA
SUPAMT92404,3WMOAN2SRHWXX4N6M0M1M4EJWLMNVS,DFCD0001-0A78-4DB6-9FAD-C068696600D6,2023-09-28_12h47.56.060,WP_VExplicitOC_LH,2022.2.5,Win32,7.353535948,NA,NA,NA,NA,NA,NA,NA,NA,NA,NA,NA,NA,NA,NA,NA,NA,NA,NA,NA,NA,NA,NA,NA,NA,NA,NA,NA,NA,NA,NA,NA,NA,NA,NA,NA,NA,NA,NA,NA,NA,NA,NA,NA,NA,NA,NA,NA,NA,NA,NA,NA,NA,NA,NA,NA,NA,NA,NA,NA
SUPAMT92404,3WMOAN2SRHWXX4N6M0M1M4EJWLMNVS,DFCD0001-0A78-4DB6-9FAD-C068696600D6,2023-09-28_12h47.56.060,WP_VExplicitOC_LH,2022.2.5,Win32,7.353535948,NA,NA,NA,NA,NA,NA,NA,NA,NA,NA,NA,NA,NA,NA,NA,NA,NA,NA,NA,NA,stand up,NA,NA,NA,NA,NA,NA,NA,NA,NA,NA,NA,NA,NA,NA,NA,NA,NA,NA,NA,NA,NA,NA,NA,NA,NA,NA,NA,NA,NA,NA,NA,NA,NA,NA,NA,NA,NA,NA
SUPAMT92404,3WMOAN2SRHWXX4N6M0M1M4EJWLMNVS,DFCD0001-0A78-4DB6-9FAD-C068696600D6,2023-09-28_12h47.56.060,WP_VExplicitOC_LH,2022.2.5,Win32,7.353535948,81.72043011,4.9205,2.0727,NA,NA,NA,NA,NA,frustrated,"frustrated, not frustrated","more frustrated, less frustrated",NA,NA,NA,NA,NA,NA,NA,NA,NA,NA,0,0,0,1,1,NA,NA,NA,NA,NA,NA,NA,NA,NA,NA,NA,NA,NA,NA,NA,NA,NA,NA,NA,NA,NA,NA,NA,NA,NA,NA,NA,NA,NA,NA,NA,NA,NA
SUPAMT92404,3WMOAN2SRHWXX4N6M0M1M4EJWLMNVS,DFCD0001-0A78-4DB6-9FAD-C068696600D6,2023-09-28_12h47.56.060,WP_VExplicitOC_LH,2022.2.5,Win32,7.353535948,NA,NA,2.1473,NA,NA,NA,NA,NA,bored,"bored, not bored","more bored, less bored",NA,NA,NA,NA,NA,NA,NA,NA,NA,NA,0,1,1,2,1,NA,NA,NA,NA,NA,NA,NA,NA,NA,NA,NA,NA,NA,NA,NA,NA,NA,NA,NA,NA,NA,NA,NA,NA,NA,NA,NA,NA,NA,NA,NA,NA,NA
SUPAMT92404,3WMOAN2SRHWXX4N6M0M1M4EJWLMNVS,DFCD0001-0A78-4DB6-9FAD-C068696600D6,2023-09-28_12h47.56.060,WP_VExplicitOC_LH,2022.2.5,Win32,7.353535948,NA,NA,2.0177,NA,NA,NA,NA,NA,happy,"unhappy, happy","less happy, more happy",NA,NA,NA,NA,NA,NA,NA,NA,NA,NA,0,2,2,0,1,NA,NA,NA,NA,NA,NA,NA,NA,NA,NA,NA,NA,NA,NA,NA,NA,NA,NA,NA,NA,NA,NA,NA,NA,NA,NA,NA,NA,NA,NA,NA,NA,NA
SUPAMT92404,3WMOAN2SRHWXX4N6M0M1M4EJWLMNVS,DFCD0001-0A78-4DB6-9FAD-C068696600D6,2023-09-28_12h47.56.060,WP_VExplicitOC_LH,2022.2.5,Win32,7.353535948,NA,NA,NA,NA,NA,NA,NA,NA,NA,NA,NA,NA,NA,NA,NA,NA,NA,NA,NA,NA,NA,NA,NA,NA,NA,NA,NA,NA,NA,NA,NA,NA,NA,NA,NA,NA,NA,NA,NA,NA,NA,NA,NA,NA,NA,NA,NA,NA,NA,NA,NA,NA,NA,NA,NA,NA,NA,NA,NA
SUPAMT92404,3WMOAN2SRHWXX4N6M0M1M4EJWLMNVS,DFCD0001-0A78-4DB6-9FAD-C068696600D6,2023-09-28_12h47.56.060,WP_VExplicitOC_LH,2022.2.5,Win32,7.353535948,NA,NA,NA,NA,NA,NA,NA,NA,NA,NA,NA,NA,NA,NA,NA,NA,NA,NA,NA,NA,NA,NA,NA,NA,NA,NA,NA,NA,NA,NA,NA,NA,NA,NA,NA,NA,NA,NA,NA,NA,NA,NA,NA,NA,NA,NA,NA,NA,NA,NA,NA,NA,NA,NA,NA,NA,NA,NA,NA
SUPAMT92404,3WMOAN2SRHWXX4N6M0M1M4EJWLMNVS,DFCD0001-0A78-4DB6-9FAD-C068696600D6,2023-09-28_12h47.56.060,WP_VExplicitOC_LH,2022.2.5,Win32,7.353535948,NA,NA,2.0056,NA,NA,NA,NA,NA,bored,"bored, not bored","more bored, less bored",NA,NA,NA,NA,NA,NA,NA,NA,NA,NA,NA,NA,NA,NA,NA,0,0,0,2,1,NA,NA,NA,NA,NA,NA,NA,NA,NA,NA,NA,NA,NA,NA,NA,NA,NA,NA,NA,NA,NA,NA,NA,NA,NA,NA,NA,NA
SUPAMT92404,3WMOAN2SRHWXX4N6M0M1M4EJWLMNVS,DFCD0001-0A78-4DB6-9FAD-C068696600D6,2023-09-28_12h47.56.060,WP_VExplicitOC_LH,2022.2.5,Win32,7.353535948,NA,NA,2.0056,NA,NA,NA,NA,NA,happy,"unhappy, happy","less happy, more happy",NA,NA,NA,NA,NA,NA,NA,NA,NA,NA,NA,NA,NA,NA,NA,0,1,1,0,1,NA,NA,NA,NA,NA,NA,NA,NA,NA,NA,NA,NA,NA,NA,NA,NA,NA,NA,NA,NA,NA,NA,NA,NA,NA,NA,NA,NA
SUPAMT92404,3WMOAN2SRHWXX4N6M0M1M4EJWLMNVS,DFCD0001-0A78-4DB6-9FAD-C068696600D6,2023-09-28_12h47.56.060,WP_VExplicitOC_LH,2022.2.5,Win32,7.353535948,99.84639017,4.0429,2.0043,NA,NA,NA,NA,NA,frustrated,"frustrated, not frustrated","more frustrated, less frustrated",NA,NA,NA,NA,NA,NA,NA,NA,NA,NA,NA,NA,NA,NA,NA,0,2,2,1,1,NA,NA,NA,NA,NA,NA,NA,NA,NA,NA,NA,NA,NA,NA,NA,NA,NA,NA,NA,NA,NA,NA,NA,NA,NA,NA,NA,NA
SUPAMT92404,3WMOAN2SRHWXX4N6M0M1M4EJWLMNVS,DFCD0001-0A78-4DB6-9FAD-C068696600D6,2023-09-28_12h47.56.060,WP_VExplicitOC_LH,2022.2.5,Win32,7.353535948,NA,NA,NA,NA,NA,NA,NA,NA,NA,NA,NA,NA,NA,NA,NA,NA,NA,NA,NA,NA,NA,NA,NA,NA,NA,NA,NA,NA,NA,NA,NA,0,0,0,0,1,NA,NA,NA,NA,NA,NA,NA,NA,NA,NA,NA,NA,NA,NA,NA,NA,NA,NA,NA,NA,NA,NA,NA
SUPAMT92404,3WMOAN2SRHWXX4N6M0M1M4EJWLMNVS,DFCD0001-0A78-4DB6-9FAD-C068696600D6,2023-09-28_12h47.56.060,WP_VExplicitOC_LH,2022.2.5,Win32,7.353535948,NA,NA,2.0134,NA,NA,NA,NA,NA,frustrated,"frustrated, not frustrated","more frustrated, less frustrated",NA,NA,NA,NA,NA,NA,NA,NA,NA,NA,NA,NA,NA,NA,NA,0,0,0,1,1,NA,NA,NA,NA,NA,NA,NA,NA,NA,NA,NA,NA,NA,NA,NA,NA,NA,NA,NA,NA,NA,NA,NA,NA,NA,NA,NA,NA
SUPAMT92404,3WMOAN2SRHWXX4N6M0M1M4EJWLMNVS,DFCD0001-0A78-4DB6-9FAD-C068696600D6,2023-09-28_12h47.56.060,WP_VExplicitOC_LH,2022.2.5,Win32,7.353535948,NA,NA,2.026,NA,NA,NA,NA,NA,bored,"bored, not bored","more bored, less bored",NA,NA,NA,NA,NA,NA,NA,NA,NA,NA,NA,NA,NA,NA,NA,0,1,1,2,1,NA,NA,NA,NA,NA,NA,NA,NA,NA,NA,NA,NA,NA,NA,NA,NA,NA,NA,NA,NA,NA,NA,NA,NA,NA,NA,NA,NA
SUPAMT92404,3WMOAN2SRHWXX4N6M0M1M4EJWLMNVS,DFCD0001-0A78-4DB6-9FAD-C068696600D6,2023-09-28_12h47.56.060,WP_VExplicitOC_LH,2022.2.5,Win32,7.353535948,NA,NA,2.0041,NA,NA,NA,NA,NA,happy,"unhappy, happy","less happy, more happy",NA,NA,NA,NA,NA,NA,NA,NA,NA,NA,NA,NA,NA,NA,NA,0,2,2,0,1,NA,NA,NA,NA,NA,NA,NA,NA,NA,NA,NA,NA,NA,NA,NA,NA,NA,NA,NA,NA,NA,NA,NA,NA,NA,NA,NA,NA
SUPAMT92404,3WMOAN2SRHWXX4N6M0M1M4EJWLMNVS,DFCD0001-0A78-4DB6-9FAD-C068696600D6,2023-09-28_12h47.56.060,WP_VExplicitOC_LH,2022.2.5,Win32,7.353535948,NA,NA,NA,NA,NA,NA,NA,NA,NA,NA,NA,NA,NA,NA,NA,NA,NA,NA,NA,NA,NA,NA,NA,NA,NA,NA,NA,NA,NA,NA,NA,1,0,1,0,1,NA,NA,NA,NA,NA,NA,NA,NA,NA,NA,NA,NA,NA,NA,NA,NA,NA,NA,NA,NA,NA,NA,NA
SUPAMT92404,3WMOAN2SRHWXX4N6M0M1M4EJWLMNVS,DFCD0001-0A78-4DB6-9FAD-C068696600D6,2023-09-28_12h47.56.060,WP_VExplicitOC_LH,2022.2.5,Win32,7.353535948,NA,NA,2.066,NA,NA,NA,NA,NA,frustrated,"frustrated, not frustrated","more frustrated, less frustrated",NA,NA,NA,NA,NA,NA,NA,NA,NA,NA,NA,NA,NA,NA,NA,0,0,0,1,1,NA,NA,NA,NA,NA,NA,NA,NA,NA,NA,NA,NA,NA,NA,NA,NA,NA,NA,NA,NA,NA,NA,NA,NA,NA,NA,NA,NA
SUPAMT92404,3WMOAN2SRHWXX4N6M0M1M4EJWLMNVS,DFCD0001-0A78-4DB6-9FAD-C068696600D6,2023-09-28_12h47.56.060,WP_VExplicitOC_LH,2022.2.5,Win32,7.353535948,NA,NA,2.0372,NA,NA,NA,NA,NA,bored,"bored, not bored","more bored, less bored",NA,NA,NA,NA,NA,NA,NA,NA,NA,NA,NA,NA,NA,NA,NA,0,1,1,2,1,NA,NA,NA,NA,NA,NA,NA,NA,NA,NA,NA,NA,NA,NA,NA,NA,NA,NA,NA,NA,NA,NA,NA,NA,NA,NA,NA,NA
SUPAMT92404,3WMOAN2SRHWXX4N6M0M1M4EJWLMNVS,DFCD0001-0A78-4DB6-9FAD-C068696600D6,2023-09-28_12h47.56.060,WP_VExplicitOC_LH,2022.2.5,Win32,7.353535948,NA,NA,2.1531,NA,NA,NA,NA,NA,happy,"unhappy, happy","less happy, more happy",NA,NA,NA,NA,NA,NA,NA,NA,NA,NA,NA,NA,NA,NA,NA,0,2,2,0,1,NA,NA,NA,NA,NA,NA,NA,NA,NA,NA,NA,NA,NA,NA,NA,NA,NA,NA,NA,NA,NA,NA,NA,NA,NA,NA,NA,NA
SUPAMT92404,3WMOAN2SRHWXX4N6M0M1M4EJWLMNVS,DFCD0001-0A78-4DB6-9FAD-C068696600D6,2023-09-28_12h47.56.060,WP_VExplicitOC_LH,2022.2.5,Win32,7.353535948,NA,NA,NA,NA,NA,NA,NA,NA,NA,NA,NA,NA,NA,NA,NA,NA,NA,NA,NA,NA,NA,NA,NA,NA,NA,NA,NA,NA,NA,NA,NA,2,0,2,0,1,NA,NA,NA,NA,NA,NA,NA,NA,NA,NA,NA,NA,NA,NA,NA,NA,NA,NA,NA,NA,NA,NA,NA
SUPAMT92404,3WMOAN2SRHWXX4N6M0M1M4EJWLMNVS,DFCD0001-0A78-4DB6-9FAD-C068696600D6,2023-09-28_12h47.56.060,WP_VExplicitOC_LH,2022.2.5,Win32,7.353535948,-2.457757296,3.7553,2.0279,NA,NA,NA,NA,NA,frustrated,"frustrated, not frustrated","more frustrated, less frustrated",NA,NA,NA,NA,NA,NA,NA,NA,NA,NA,NA,NA,NA,NA,NA,0,0,0,1,1,NA,NA,NA,NA,NA,NA,NA,NA,NA,NA,NA,NA,NA,NA,NA,NA,NA,NA,NA,NA,NA,NA,NA,NA,NA,NA,NA,NA
SUPAMT92404,3WMOAN2SRHWXX4N6M0M1M4EJWLMNVS,DFCD0001-0A78-4DB6-9FAD-C068696600D6,2023-09-28_12h47.56.060,WP_VExplicitOC_LH,2022.2.5,Win32,7.353535948,100,4.8384,2.0197,NA,NA,NA,NA,NA,bored,"bored, not bored","more bored, less bored",NA,NA,NA,NA,NA,NA,NA,NA,NA,NA,NA,NA,NA,NA,NA,0,1,1,2,1,NA,NA,NA,NA,NA,NA,NA,NA,NA,NA,NA,NA,NA,NA,NA,NA,NA,NA,NA,NA,NA,NA,NA,NA,NA,NA,NA,NA
SUPAMT92404,3WMOAN2SRHWXX4N6M0M1M4EJWLMNVS,DFCD0001-0A78-4DB6-9FAD-C068696600D6,2023-09-28_12h47.56.060,WP_VExplicitOC_LH,2022.2.5,Win32,7.353535948,96.15975422,4.1784,2.1547,NA,NA,NA,NA,NA,happy,"unhappy, happy","less happy, more happy",NA,NA,NA,NA,NA,NA,NA,NA,NA,NA,NA,NA,NA,NA,NA,0,2,2,0,1,NA,NA,NA,NA,NA,NA,NA,NA,NA,NA,NA,NA,NA,NA,NA,NA,NA,NA,NA,NA,NA,NA,NA,NA,NA,NA,NA,NA
SUPAMT92404,3WMOAN2SRHWXX4N6M0M1M4EJWLMNVS,DFCD0001-0A78-4DB6-9FAD-C068696600D6,2023-09-28_12h47.56.060,WP_VExplicitOC_LH,2022.2.5,Win32,7.353535948,NA,NA,NA,NA,NA,NA,NA,NA,NA,NA,NA,NA,NA,NA,NA,NA,NA,NA,NA,NA,NA,NA,NA,NA,NA,NA,NA,NA,NA,NA,NA,3,0,3,0,1,NA,NA,NA,NA,NA,NA,NA,NA,NA,NA,NA,NA,NA,NA,NA,NA,NA,NA,NA,NA,NA,NA,NA
SUPAMT92404,3WMOAN2SRHWXX4N6M0M1M4EJWLMNVS,DFCD0001-0A78-4DB6-9FAD-C068696600D6,2023-09-28_12h47.56.060,WP_VExplicitOC_LH,2022.2.5,Win32,7.353535948,NA,NA,2.1441,NA,NA,NA,NA,NA,happy,"unhappy, happy","less happy, more happy",NA,NA,NA,NA,NA,NA,NA,NA,NA,NA,NA,NA,NA,NA,NA,0,0,0,0,1,NA,NA,NA,NA,NA,NA,NA,NA,NA,NA,NA,NA,NA,NA,NA,NA,NA,NA,NA,NA,NA,NA,NA,NA,NA,NA,NA,NA
SUPAMT92404,3WMOAN2SRHWXX4N6M0M1M4EJWLMNVS,DFCD0001-0A78-4DB6-9FAD-C068696600D6,2023-09-28_12h47.56.060,WP_VExplicitOC_LH,2022.2.5,Win32,7.353535948,NA,NA,2.0154,NA,NA,NA,NA,NA,frustrated,"frustrated, not frustrated","more frustrated, less frustrated",NA,NA,NA,NA,NA,NA,NA,NA,NA,NA,NA,NA,NA,NA,NA,0,1,1,1,1,NA,NA,NA,NA,NA,NA,NA,NA,NA,NA,NA,NA,NA,NA,NA,NA,NA,NA,NA,NA,NA,NA,NA,NA,NA,NA,NA,NA
SUPAMT92404,3WMOAN2SRHWXX4N6M0M1M4EJWLMNVS,DFCD0001-0A78-4DB6-9FAD-C068696600D6,2023-09-28_12h47.56.060,WP_VExplicitOC_LH,2022.2.5,Win32,7.353535948,NA,NA,2.0149,NA,NA,NA,NA,NA,bored,"bored, not bored","more bored, less bored",NA,NA,NA,NA,NA,NA,NA,NA,NA,NA,NA,NA,NA,NA,NA,0,2,2,2,1,NA,NA,NA,NA,NA,NA,NA,NA,NA,NA,NA,NA,NA,NA,NA,NA,NA,NA,NA,NA,NA,NA,NA,NA,NA,NA,NA,NA
SUPAMT92404,3WMOAN2SRHWXX4N6M0M1M4EJWLMNVS,DFCD0001-0A78-4DB6-9FAD-C068696600D6,2023-09-28_12h47.56.060,WP_VExplicitOC_LH,2022.2.5,Win32,7.353535948,NA,NA,NA,NA,NA,NA,NA,NA,NA,NA,NA,NA,NA,NA,NA,NA,NA,NA,NA,NA,NA,NA,NA,NA,NA,NA,NA,NA,NA,NA,NA,4,0,4,0,1,NA,NA,NA,NA,NA,NA,NA,NA,NA,NA,NA,NA,NA,NA,NA,NA,NA,NA,NA,NA,NA,NA,NA
SUPAMT92404,3WMOAN2SRHWXX4N6M0M1M4EJWLMNVS,DFCD0001-0A78-4DB6-9FAD-C068696600D6,2023-09-28_12h47.56.060,WP_VExplicitOC_LH,2022.2.5,Win32,7.353535948,NA,NA,2.0077,NA,NA,NA,NA,NA,happy,"unhappy, happy","less happy, more happy",NA,NA,NA,NA,NA,NA,NA,NA,NA,NA,NA,NA,NA,NA,NA,0,0,0,0,1,NA,NA,NA,NA,NA,NA,NA,NA,NA,NA,NA,NA,NA,NA,NA,NA,NA,NA,NA,NA,NA,NA,NA,NA,NA,NA,NA,NA
SUPAMT92404,3WMOAN2SRHWXX4N6M0M1M4EJWLMNVS,DFCD0001-0A78-4DB6-9FAD-C068696600D6,2023-09-28_12h47.56.060,WP_VExplicitOC_LH,2022.2.5,Win32,7.353535948,NA,NA,2.1339,NA,NA,NA,NA,NA,bored,"bored, not bored","more bored, less bored",NA,NA,NA,NA,NA,NA,NA,NA,NA,NA,NA,NA,NA,NA,NA,0,1,1,2,1,NA,NA,NA,NA,NA,NA,NA,NA,NA,NA,NA,NA,NA,NA,NA,NA,NA,NA,NA,NA,NA,NA,NA,NA,NA,NA,NA,NA
SUPAMT92404,3WMOAN2SRHWXX4N6M0M1M4EJWLMNVS,DFCD0001-0A78-4DB6-9FAD-C068696600D6,2023-09-28_12h47.56.060,WP_VExplicitOC_LH,2022.2.5,Win32,7.353535948,NA,NA,2.1421,NA,NA,NA,NA,NA,frustrated,"frustrated, not frustrated","more frustrated, less frustrated",NA,NA,NA,NA,NA,NA,NA,NA,NA,NA,NA,NA,NA,NA,NA,0,2,2,1,1,NA,NA,NA,NA,NA,NA,NA,NA,NA,NA,NA,NA,NA,NA,NA,NA,NA,NA,NA,NA,NA,NA,NA,NA,NA,NA,NA,NA
SUPAMT92404,3WMOAN2SRHWXX4N6M0M1M4EJWLMNVS,DFCD0001-0A78-4DB6-9FAD-C068696600D6,2023-09-28_12h47.56.060,WP_VExplicitOC_LH,2022.2.5,Win32,7.353535948,NA,NA,NA,NA,NA,NA,NA,NA,NA,NA,NA,NA,NA,NA,NA,NA,NA,NA,NA,NA,NA,NA,NA,NA,NA,NA,NA,NA,NA,NA,NA,5,0,5,0,1,NA,NA,NA,NA,NA,NA,NA,NA,NA,NA,NA,NA,NA,NA,NA,NA,NA,NA,NA,NA,NA,NA,NA
SUPAMT92404,3WMOAN2SRHWXX4N6M0M1M4EJWLMNVS,DFCD0001-0A78-4DB6-9FAD-C068696600D6,2023-09-28_12h47.56.060,WP_VExplicitOC_LH,2022.2.5,Win32,7.353535948,NA,NA,2.1427,NA,NA,NA,NA,NA,frustrated,"frustrated, not frustrated","more frustrated, less frustrated",NA,NA,NA,NA,NA,NA,NA,NA,NA,NA,NA,NA,NA,NA,NA,0,0,0,1,1,NA,NA,NA,NA,NA,NA,NA,NA,NA,NA,NA,NA,NA,NA,NA,NA,NA,NA,NA,NA,NA,NA,NA,NA,NA,NA,NA,NA
SUPAMT92404,3WMOAN2SRHWXX4N6M0M1M4EJWLMNVS,DFCD0001-0A78-4DB6-9FAD-C068696600D6,2023-09-28_12h47.56.060,WP_VExplicitOC_LH,2022.2.5,Win32,7.353535948,NA,NA,2.1451,NA,NA,NA,NA,NA,happy,"unhappy, happy","less happy, more happy",NA,NA,NA,NA,NA,NA,NA,NA,NA,NA,NA,NA,NA,NA,NA,0,1,1,0,1,NA,NA,NA,NA,NA,NA,NA,NA,NA,NA,NA,NA,NA,NA,NA,NA,NA,NA,NA,NA,NA,NA,NA,NA,NA,NA,NA,NA
SUPAMT92404,3WMOAN2SRHWXX4N6M0M1M4EJWLMNVS,DFCD0001-0A78-4DB6-9FAD-C068696600D6,2023-09-28_12h47.56.060,WP_VExplicitOC_LH,2022.2.5,Win32,7.353535948,100,6.4081,2.1453,NA,NA,NA,NA,NA,bored,"bored, not bored","more bored, less bored",NA,NA,NA,NA,NA,NA,NA,NA,NA,NA,NA,NA,NA,NA,NA,0,2,2,2,1,NA,NA,NA,NA,NA,NA,NA,NA,NA,NA,NA,NA,NA,NA,NA,NA,NA,NA,NA,NA,NA,NA,NA,NA,NA,NA,NA,NA
SUPAMT92404,3WMOAN2SRHWXX4N6M0M1M4EJWLMNVS,DFCD0001-0A78-4DB6-9FAD-C068696600D6,2023-09-28_12h47.56.060,WP_VExplicitOC_LH,2022.2.5,Win32,7.353535948,NA,NA,NA,NA,NA,NA,NA,NA,NA,NA,NA,NA,NA,NA,NA,NA,NA,NA,NA,NA,NA,NA,NA,NA,NA,NA,NA,NA,NA,NA,NA,6,0,6,0,1,NA,NA,NA,NA,NA,NA,NA,NA,NA,NA,NA,NA,NA,NA,NA,NA,NA,NA,NA,NA,NA,NA,NA
SUPAMT92404,3WMOAN2SRHWXX4N6M0M1M4EJWLMNVS,DFCD0001-0A78-4DB6-9FAD-C068696600D6,2023-09-28_12h47.56.060,WP_VExplicitOC_LH,2022.2.5,Win32,7.353535948,NA,NA,2.1535,NA,NA,NA,NA,NA,bored,"bored, not bored","more bored, less bored",NA,NA,NA,NA,NA,NA,NA,NA,NA,NA,NA,NA,NA,NA,NA,0,0,0,2,1,NA,NA,NA,NA,NA,NA,NA,NA,NA,NA,NA,NA,NA,NA,NA,NA,NA,NA,NA,NA,NA,NA,NA,NA,NA,NA,NA,NA
SUPAMT92404,3WMOAN2SRHWXX4N6M0M1M4EJWLMNVS,DFCD0001-0A78-4DB6-9FAD-C068696600D6,2023-09-28_12h47.56.060,WP_VExplicitOC_LH,2022.2.5,Win32,7.353535948,NA,NA,2.1456,NA,NA,NA,NA,NA,frustrated,"frustrated, not frustrated","more frustrated, less frustrated",NA,NA,NA,NA,NA,NA,NA,NA,NA,NA,NA,NA,NA,NA,NA,0,1,1,1,1,NA,NA,NA,NA,NA,NA,NA,NA,NA,NA,NA,NA,NA,NA,NA,NA,NA,NA,NA,NA,NA,NA,NA,NA,NA,NA,NA,NA
SUPAMT92404,3WMOAN2SRHWXX4N6M0M1M4EJWLMNVS,DFCD0001-0A78-4DB6-9FAD-C068696600D6,2023-09-28_12h47.56.060,WP_VExplicitOC_LH,2022.2.5,Win32,7.353535948,100,5.4413,2.0323,NA,NA,NA,NA,NA,happy,"unhappy, happy","less happy, more happy",NA,NA,NA,NA,NA,NA,NA,NA,NA,NA,NA,NA,NA,NA,NA,0,2,2,0,1,NA,NA,NA,NA,NA,NA,NA,NA,NA,NA,NA,NA,NA,NA,NA,NA,NA,NA,NA,NA,NA,NA,NA,NA,NA,NA,NA,NA
SUPAMT92404,3WMOAN2SRHWXX4N6M0M1M4EJWLMNVS,DFCD0001-0A78-4DB6-9FAD-C068696600D6,2023-09-28_12h47.56.060,WP_VExplicitOC_LH,2022.2.5,Win32,7.353535948,NA,NA,NA,NA,NA,NA,NA,NA,NA,NA,NA,NA,NA,NA,NA,NA,NA,NA,NA,NA,NA,NA,NA,NA,NA,NA,NA,NA,NA,NA,NA,7,0,7,0,1,NA,NA,NA,NA,NA,NA,NA,NA,NA,NA,NA,NA,NA,NA,NA,NA,NA,NA,NA,NA,NA,NA,NA
SUPAMT92404,3WMOAN2SRHWXX4N6M0M1M4EJWLMNVS,DFCD0001-0A78-4DB6-9FAD-C068696600D6,2023-09-28_12h47.56.060,WP_VExplicitOC_LH,2022.2.5,Win32,7.353535948,NA,NA,2.143,NA,NA,NA,NA,NA,frustrated,"frustrated, not frustrated","more frustrated, less frustrated",NA,NA,NA,NA,NA,NA,NA,NA,NA,NA,NA,NA,NA,NA,NA,0,0,0,1,1,NA,NA,NA,NA,NA,NA,NA,NA,NA,NA,NA,NA,NA,NA,NA,NA,NA,NA,NA,NA,NA,NA,NA,NA,NA,NA,NA,NA
SUPAMT92404,3WMOAN2SRHWXX4N6M0M1M4EJWLMNVS,DFCD0001-0A78-4DB6-9FAD-C068696600D6,2023-09-28_12h47.56.060,WP_VExplicitOC_LH,2022.2.5,Win32,7.353535948,NA,NA,2.1396,NA,NA,NA,NA,NA,bored,"bored, not bored","more bored, less bored",NA,NA,NA,NA,NA,NA,NA,NA,NA,NA,NA,NA,NA,NA,NA,0,1,1,2,1,NA,NA,NA,NA,NA,NA,NA,NA,NA,NA,NA,NA,NA,NA,NA,NA,NA,NA,NA,NA,NA,NA,NA,NA,NA,NA,NA,NA
SUPAMT92404,3WMOAN2SRHWXX4N6M0M1M4EJWLMNVS,DFCD0001-0A78-4DB6-9FAD-C068696600D6,2023-09-28_12h47.56.060,WP_VExplicitOC_LH,2022.2.5,Win32,7.353535948,NA,NA,2.1391,NA,NA,NA,NA,NA,happy,"unhappy, happy","less happy, more happy",NA,NA,NA,NA,NA,NA,NA,NA,NA,NA,NA,NA,NA,NA,NA,0,2,2,0,1,NA,NA,NA,NA,NA,NA,NA,NA,NA,NA,NA,NA,NA,NA,NA,NA,NA,NA,NA,NA,NA,NA,NA,NA,NA,NA,NA,NA
SUPAMT92404,3WMOAN2SRHWXX4N6M0M1M4EJWLMNVS,DFCD0001-0A78-4DB6-9FAD-C068696600D6,2023-09-28_12h47.56.060,WP_VExplicitOC_LH,2022.2.5,Win32,7.353535948,NA,NA,NA,NA,NA,NA,NA,NA,NA,NA,NA,NA,NA,NA,NA,NA,NA,NA,NA,NA,NA,NA,NA,NA,NA,NA,NA,NA,NA,NA,NA,8,0,8,0,1,NA,NA,NA,NA,NA,NA,NA,NA,NA,NA,NA,NA,NA,NA,NA,NA,NA,NA,NA,NA,NA,NA,NA
SUPAMT92404,3WMOAN2SRHWXX4N6M0M1M4EJWLMNVS,DFCD0001-0A78-4DB6-9FAD-C068696600D6,2023-09-28_12h47.56.060,WP_VExplicitOC_LH,2022.2.5,Win32,7.353535948,NA,NA,2.009,NA,NA,NA,NA,NA,bored,"bored, not bored","more bored, less bored",NA,NA,NA,NA,NA,NA,NA,NA,NA,NA,NA,NA,NA,NA,NA,0,0,0,2,1,NA,NA,NA,NA,NA,NA,NA,NA,NA,NA,NA,NA,NA,NA,NA,NA,NA,NA,NA,NA,NA,NA,NA,NA,NA,NA,NA,NA
SUPAMT92404,3WMOAN2SRHWXX4N6M0M1M4EJWLMNVS,DFCD0001-0A78-4DB6-9FAD-C068696600D6,2023-09-28_12h47.56.060,WP_VExplicitOC_LH,2022.2.5,Win32,7.353535948,NA,NA,2.0205,NA,NA,NA,NA,NA,happy,"unhappy, happy","less happy, more happy",NA,NA,NA,NA,NA,NA,NA,NA,NA,NA,NA,NA,NA,NA,NA,0,1,1,0,1,NA,NA,NA,NA,NA,NA,NA,NA,NA,NA,NA,NA,NA,NA,NA,NA,NA,NA,NA,NA,NA,NA,NA,NA,NA,NA,NA,NA
SUPAMT92404,3WMOAN2SRHWXX4N6M0M1M4EJWLMNVS,DFCD0001-0A78-4DB6-9FAD-C068696600D6,2023-09-28_12h47.56.060,WP_VExplicitOC_LH,2022.2.5,Win32,7.353535948,69.73886329,4.6467,2.1472,NA,NA,NA,NA,NA,frustrated,"frustrated, not frustrated","more frustrated, less frustrated",NA,NA,NA,NA,NA,NA,NA,NA,NA,NA,NA,NA,NA,NA,NA,0,2,2,1,1,NA,NA,NA,NA,NA,NA,NA,NA,NA,NA,NA,NA,NA,NA,NA,NA,NA,NA,NA,NA,NA,NA,NA,NA,NA,NA,NA,NA
SUPAMT92404,3WMOAN2SRHWXX4N6M0M1M4EJWLMNVS,DFCD0001-0A78-4DB6-9FAD-C068696600D6,2023-09-28_12h47.56.060,WP_VExplicitOC_LH,2022.2.5,Win32,7.353535948,NA,NA,NA,NA,NA,NA,NA,NA,NA,NA,NA,NA,NA,NA,NA,NA,NA,NA,NA,NA,NA,NA,NA,NA,NA,NA,NA,NA,NA,NA,NA,9,0,9,0,1,NA,NA,NA,NA,NA,NA,NA,NA,NA,NA,NA,NA,NA,NA,NA,NA,NA,NA,NA,NA,NA,NA,NA
SUPAMT92404,3WMOAN2SRHWXX4N6M0M1M4EJWLMNVS,DFCD0001-0A78-4DB6-9FAD-C068696600D6,2023-09-28_12h47.56.060,WP_VExplicitOC_LH,2022.2.5,Win32,7.353535948,NA,NA,2.0048,NA,NA,NA,NA,NA,happy,"unhappy, happy","less happy, more happy",NA,NA,NA,NA,NA,NA,NA,NA,NA,NA,NA,NA,NA,NA,NA,0,0,0,0,1,NA,NA,NA,NA,NA,NA,NA,NA,NA,NA,NA,NA,NA,NA,NA,NA,NA,NA,NA,NA,NA,NA,NA,NA,NA,NA,NA,NA
SUPAMT92404,3WMOAN2SRHWXX4N6M0M1M4EJWLMNVS,DFCD0001-0A78-4DB6-9FAD-C068696600D6,2023-09-28_12h47.56.060,WP_VExplicitOC_LH,2022.2.5,Win32,7.353535948,100,6.0716,2.1349,NA,NA,NA,NA,NA,frustrated,"frustrated, not frustrated","more frustrated, less frustrated",NA,NA,NA,NA,NA,NA,NA,NA,NA,NA,NA,NA,NA,NA,NA,0,1,1,1,1,NA,NA,NA,NA,NA,NA,NA,NA,NA,NA,NA,NA,NA,NA,NA,NA,NA,NA,NA,NA,NA,NA,NA,NA,NA,NA,NA,NA
SUPAMT92404,3WMOAN2SRHWXX4N6M0M1M4EJWLMNVS,DFCD0001-0A78-4DB6-9FAD-C068696600D6,2023-09-28_12h47.56.060,WP_VExplicitOC_LH,2022.2.5,Win32,7.353535948,NA,NA,2.0112,NA,NA,NA,NA,NA,bored,"bored, not bored","more bored, less bored",NA,NA,NA,NA,NA,NA,NA,NA,NA,NA,NA,NA,NA,NA,NA,0,2,2,2,1,NA,NA,NA,NA,NA,NA,NA,NA,NA,NA,NA,NA,NA,NA,NA,NA,NA,NA,NA,NA,NA,NA,NA,NA,NA,NA,NA,NA
SUPAMT92404,3WMOAN2SRHWXX4N6M0M1M4EJWLMNVS,DFCD0001-0A78-4DB6-9FAD-C068696600D6,2023-09-28_12h47.56.060,WP_VExplicitOC_LH,2022.2.5,Win32,7.353535948,NA,NA,NA,NA,NA,NA,NA,NA,NA,NA,NA,NA,NA,NA,NA,NA,NA,NA,NA,NA,NA,NA,NA,NA,NA,NA,NA,NA,NA,NA,NA,10,0,10,0,1,NA,NA,NA,NA,NA,NA,NA,NA,NA,NA,NA,NA,NA,NA,NA,NA,NA,NA,NA,NA,NA,NA,NA
SUPAMT92404,3WMOAN2SRHWXX4N6M0M1M4EJWLMNVS,DFCD0001-0A78-4DB6-9FAD-C068696600D6,2023-09-28_12h47.56.060,WP_VExplicitOC_LH,2022.2.5,Win32,7.353535948,NA,NA,2.0217,NA,NA,NA,NA,NA,bored,"bored, not bored","more bored, less bored",NA,NA,NA,NA,NA,NA,NA,NA,NA,NA,NA,NA,NA,NA,NA,0,0,0,2,1,NA,NA,NA,NA,NA,NA,NA,NA,NA,NA,NA,NA,NA,NA,NA,NA,NA,NA,NA,NA,NA,NA,NA,NA,NA,NA,NA,NA
SUPAMT92404,3WMOAN2SRHWXX4N6M0M1M4EJWLMNVS,DFCD0001-0A78-4DB6-9FAD-C068696600D6,2023-09-28_12h47.56.060,WP_VExplicitOC_LH,2022.2.5,Win32,7.353535948,NA,NA,2.0056,NA,NA,NA,NA,NA,frustrated,"frustrated, not frustrated","more frustrated, less frustrated",NA,NA,NA,NA,NA,NA,NA,NA,NA,NA,NA,NA,NA,NA,NA,0,1,1,1,1,NA,NA,NA,NA,NA,NA,NA,NA,NA,NA,NA,NA,NA,NA,NA,NA,NA,NA,NA,NA,NA,NA,NA,NA,NA,NA,NA,NA
SUPAMT92404,3WMOAN2SRHWXX4N6M0M1M4EJWLMNVS,DFCD0001-0A78-4DB6-9FAD-C068696600D6,2023-09-28_12h47.56.060,WP_VExplicitOC_LH,2022.2.5,Win32,7.353535948,NA,NA,2.006,NA,NA,NA,NA,NA,happy,"unhappy, happy","less happy, more happy",NA,NA,NA,NA,NA,NA,NA,NA,NA,NA,NA,NA,NA,NA,NA,0,2,2,0,1,NA,NA,NA,NA,NA,NA,NA,NA,NA,NA,NA,NA,NA,NA,NA,NA,NA,NA,NA,NA,NA,NA,NA,NA,NA,NA,NA,NA
SUPAMT92404,3WMOAN2SRHWXX4N6M0M1M4EJWLMNVS,DFCD0001-0A78-4DB6-9FAD-C068696600D6,2023-09-28_12h47.56.060,WP_VExplicitOC_LH,2022.2.5,Win32,7.353535948,NA,NA,NA,NA,NA,NA,NA,NA,NA,NA,NA,NA,NA,NA,NA,NA,NA,NA,NA,NA,NA,NA,NA,NA,NA,NA,NA,NA,NA,NA,NA,11,0,11,0,1,NA,NA,NA,NA,NA,NA,NA,NA,NA,NA,NA,NA,NA,NA,NA,NA,NA,NA,NA,NA,NA,NA,NA
SUPAMT92404,3WMOAN2SRHWXX4N6M0M1M4EJWLMNVS,DFCD0001-0A78-4DB6-9FAD-C068696600D6,2023-09-28_12h47.56.060,WP_VExplicitOC_LH,2022.2.5,Win32,7.353535948,NA,NA,2.031,NA,NA,NA,NA,NA,bored,"bored, not bored","more bored, less bored",NA,NA,NA,NA,NA,NA,NA,NA,NA,NA,NA,NA,NA,NA,NA,0,0,0,2,1,NA,NA,NA,NA,NA,NA,NA,NA,NA,NA,NA,NA,NA,NA,NA,NA,NA,NA,NA,NA,NA,NA,NA,NA,NA,NA,NA,NA
SUPAMT92404,3WMOAN2SRHWXX4N6M0M1M4EJWLMNVS,DFCD0001-0A78-4DB6-9FAD-C068696600D6,2023-09-28_12h47.56.060,WP_VExplicitOC_LH,2022.2.5,Win32,7.353535948,NA,NA,2.0108,NA,NA,NA,NA,NA,happy,"unhappy, happy","less happy, more happy",NA,NA,NA,NA,NA,NA,NA,NA,NA,NA,NA,NA,NA,NA,NA,0,1,1,0,1,NA,NA,NA,NA,NA,NA,NA,NA,NA,NA,NA,NA,NA,NA,NA,NA,NA,NA,NA,NA,NA,NA,NA,NA,NA,NA,NA,NA
SUPAMT92404,3WMOAN2SRHWXX4N6M0M1M4EJWLMNVS,DFCD0001-0A78-4DB6-9FAD-C068696600D6,2023-09-28_12h47.56.060,WP_VExplicitOC_LH,2022.2.5,Win32,7.353535948,NA,NA,2.0665,NA,NA,NA,NA,NA,frustrated,"frustrated, not frustrated","more frustrated, less frustrated",NA,NA,NA,NA,NA,NA,NA,NA,NA,NA,NA,NA,NA,NA,NA,0,2,2,1,1,NA,NA,NA,NA,NA,NA,NA,NA,NA,NA,NA,NA,NA,NA,NA,NA,NA,NA,NA,NA,NA,NA,NA,NA,NA,NA,NA,NA
SUPAMT92404,3WMOAN2SRHWXX4N6M0M1M4EJWLMNVS,DFCD0001-0A78-4DB6-9FAD-C068696600D6,2023-09-28_12h47.56.060,WP_VExplicitOC_LH,2022.2.5,Win32,7.353535948,NA,NA,NA,NA,NA,NA,NA,NA,NA,NA,NA,NA,NA,NA,NA,NA,NA,NA,NA,NA,NA,NA,NA,NA,NA,NA,NA,NA,NA,NA,NA,12,0,12,0,1,NA,NA,NA,NA,NA,NA,NA,NA,NA,NA,NA,NA,NA,NA,NA,NA,NA,NA,NA,NA,NA,NA,NA
SUPAMT92404,3WMOAN2SRHWXX4N6M0M1M4EJWLMNVS,DFCD0001-0A78-4DB6-9FAD-C068696600D6,2023-09-28_12h47.56.060,WP_VExplicitOC_LH,2022.2.5,Win32,7.353535948,NA,NA,2.0282,NA,NA,NA,NA,NA,bored,"bored, not bored","more bored, less bored",NA,NA,NA,NA,NA,NA,NA,NA,NA,NA,NA,NA,NA,NA,NA,0,0,0,2,1,NA,NA,NA,NA,NA,NA,NA,NA,NA,NA,NA,NA,NA,NA,NA,NA,NA,NA,NA,NA,NA,NA,NA,NA,NA,NA,NA,NA
SUPAMT92404,3WMOAN2SRHWXX4N6M0M1M4EJWLMNVS,DFCD0001-0A78-4DB6-9FAD-C068696600D6,2023-09-28_12h47.56.060,WP_VExplicitOC_LH,2022.2.5,Win32,7.353535948,NA,NA,2.0353,NA,NA,NA,NA,NA,frustrated,"frustrated, not frustrated","more frustrated, less frustrated",NA,NA,NA,NA,NA,NA,NA,NA,NA,NA,NA,NA,NA,NA,NA,0,1,1,1,1,NA,NA,NA,NA,NA,NA,NA,NA,NA,NA,NA,NA,NA,NA,NA,NA,NA,NA,NA,NA,NA,NA,NA,NA,NA,NA,NA,NA
SUPAMT92404,3WMOAN2SRHWXX4N6M0M1M4EJWLMNVS,DFCD0001-0A78-4DB6-9FAD-C068696600D6,2023-09-28_12h47.56.060,WP_VExplicitOC_LH,2022.2.5,Win32,7.353535948,NA,NA,2.01,NA,NA,NA,NA,NA,happy,"unhappy, happy","less happy, more happy",NA,NA,NA,NA,NA,NA,NA,NA,NA,NA,NA,NA,NA,NA,NA,0,2,2,0,1,NA,NA,NA,NA,NA,NA,NA,NA,NA,NA,NA,NA,NA,NA,NA,NA,NA,NA,NA,NA,NA,NA,NA,NA,NA,NA,NA,NA
SUPAMT92404,3WMOAN2SRHWXX4N6M0M1M4EJWLMNVS,DFCD0001-0A78-4DB6-9FAD-C068696600D6,2023-09-28_12h47.56.060,WP_VExplicitOC_LH,2022.2.5,Win32,7.353535948,NA,NA,NA,NA,NA,NA,NA,NA,NA,NA,NA,NA,NA,NA,NA,NA,NA,NA,NA,NA,NA,NA,NA,NA,NA,NA,NA,NA,NA,NA,NA,13,0,13,0,1,NA,NA,NA,NA,NA,NA,NA,NA,NA,NA,NA,NA,NA,NA,NA,NA,NA,NA,NA,NA,NA,NA,NA
SUPAMT92404,3WMOAN2SRHWXX4N6M0M1M4EJWLMNVS,DFCD0001-0A78-4DB6-9FAD-C068696600D6,2023-09-28_12h47.56.060,WP_VExplicitOC_LH,2022.2.5,Win32,7.353535948,NA,NA,2.0034,NA,NA,NA,NA,NA,happy,"unhappy, happy","less happy, more happy",NA,NA,NA,NA,NA,NA,NA,NA,NA,NA,NA,NA,NA,NA,NA,0,0,0,0,1,NA,NA,NA,NA,NA,NA,NA,NA,NA,NA,NA,NA,NA,NA,NA,NA,NA,NA,NA,NA,NA,NA,NA,NA,NA,NA,NA,NA
SUPAMT92404,3WMOAN2SRHWXX4N6M0M1M4EJWLMNVS,DFCD0001-0A78-4DB6-9FAD-C068696600D6,2023-09-28_12h47.56.060,WP_VExplicitOC_LH,2022.2.5,Win32,7.353535948,100,3.913,2.0046,NA,NA,NA,NA,NA,frustrated,"frustrated, not frustrated","more frustrated, less frustrated",NA,NA,NA,NA,NA,NA,NA,NA,NA,NA,NA,NA,NA,NA,NA,0,1,1,1,1,NA,NA,NA,NA,NA,NA,NA,NA,NA,NA,NA,NA,NA,NA,NA,NA,NA,NA,NA,NA,NA,NA,NA,NA,NA,NA,NA,NA
SUPAMT92404,3WMOAN2SRHWXX4N6M0M1M4EJWLMNVS,DFCD0001-0A78-4DB6-9FAD-C068696600D6,2023-09-28_12h47.56.060,WP_VExplicitOC_LH,2022.2.5,Win32,7.353535948,NA,NA,2.0082,NA,NA,NA,NA,NA,bored,"bored, not bored","more bored, less bored",NA,NA,NA,NA,NA,NA,NA,NA,NA,NA,NA,NA,NA,NA,NA,0,2,2,2,1,NA,NA,NA,NA,NA,NA,NA,NA,NA,NA,NA,NA,NA,NA,NA,NA,NA,NA,NA,NA,NA,NA,NA,NA,NA,NA,NA,NA
SUPAMT92404,3WMOAN2SRHWXX4N6M0M1M4EJWLMNVS,DFCD0001-0A78-4DB6-9FAD-C068696600D6,2023-09-28_12h47.56.060,WP_VExplicitOC_LH,2022.2.5,Win32,7.353535948,NA,NA,NA,NA,NA,NA,NA,NA,NA,NA,NA,NA,NA,NA,NA,NA,NA,NA,NA,NA,NA,NA,NA,NA,NA,NA,NA,NA,NA,NA,NA,14,0,14,0,1,NA,NA,NA,NA,NA,NA,NA,NA,NA,NA,NA,NA,NA,NA,NA,NA,NA,NA,NA,NA,NA,NA,NA
SUPAMT92404,3WMOAN2SRHWXX4N6M0M1M4EJWLMNVS,DFCD0001-0A78-4DB6-9FAD-C068696600D6,2023-09-28_12h47.56.060,WP_VExplicitOC_LH,2022.2.5,Win32,7.353535948,NA,NA,NA,NA,NA,NA,NA,NA,NA,NA,NA,NA,NA,NA,NA,NA,NA,NA,NA,NA,NA,NA,NA,NA,NA,NA,NA,NA,NA,NA,NA,NA,NA,NA,NA,NA,NA,NA,NA,NA,NA,NA,NA,NA,NA,NA,NA,NA,NA,NA,NA,NA,NA,NA,NA,NA,NA,NA,NA
SUPAMT92404,3WMOAN2SRHWXX4N6M0M1M4EJWLMNVS,DFCD0001-0A78-4DB6-9FAD-C068696600D6,2023-09-28_12h47.56.060,WP_VExplicitOC_LH,2022.2.5,Win32,7.353535948,NA,NA,NA,NA,NA,NA,NA,NA,NA,NA,NA,NA,NA,NA,NA,NA,NA,NA,NA,NA,NA,NA,NA,NA,NA,NA,NA,NA,NA,NA,NA,NA,NA,NA,NA,NA,NA,NA,NA,NA,NA,NA,NA,NA,NA,NA,NA,NA,NA,NA,NA,NA,NA,NA,NA,NA,NA,NA,NA
SUPAMT92404,3WMOAN2SRHWXX4N6M0M1M4EJWLMNVS,DFCD0001-0A78-4DB6-9FAD-C068696600D6,2023-09-28_12h47.56.060,WP_VExplicitOC_LH,2022.2.5,Win32,7.353535948,NA,NA,NA,NA,NA,NA,NA,NA,NA,NA,NA,NA,NA,NA,NA,NA,NA,NA,rest (looking at a fixed cross),001.png,NA,NA,NA,NA,NA,NA,NA,NA,NA,NA,NA,NA,NA,NA,NA,NA,NA,NA,0,0,0,0,1,NA,NA,NA,NA,NA,NA,NA,NA,NA,NA,NA,NA,NA,NA,NA,NA
SUPAMT92404,3WMOAN2SRHWXX4N6M0M1M4EJWLMNVS,DFCD0001-0A78-4DB6-9FAD-C068696600D6,2023-09-28_12h47.56.060,WP_VExplicitOC_LH,2022.2.5,Win32,7.353535948,NA,NA,NA,NA,NA,NA,NA,NA,NA,NA,NA,NA,NA,NA,NA,NA,NA,NA,stand up,002.png,NA,NA,NA,NA,NA,NA,NA,NA,NA,NA,NA,NA,NA,NA,NA,NA,57.75729647,1.4548,0,1,1,1,1,NA,NA,NA,NA,NA,NA,NA,NA,NA,NA,NA,NA,NA,NA,NA,NA
SUPAMT92404,3WMOAN2SRHWXX4N6M0M1M4EJWLMNVS,DFCD0001-0A78-4DB6-9FAD-C068696600D6,2023-09-28_12h47.56.060,WP_VExplicitOC_LH,2022.2.5,Win32,7.353535948,NA,NA,NA,NA,NA,NA,NA,NA,NA,NA,NA,NA,NA,NA,NA,NA,NA,NA,stretch,003.png,NA,NA,NA,NA,NA,NA,NA,NA,NA,NA,NA,NA,NA,NA,NA,NA,92.78033794,1.7555,0,2,2,2,1,NA,NA,NA,NA,NA,NA,NA,NA,NA,NA,NA,NA,NA,NA,NA,NA
SUPAMT92404,3WMOAN2SRHWXX4N6M0M1M4EJWLMNVS,DFCD0001-0A78-4DB6-9FAD-C068696600D6,2023-09-28_12h47.56.060,WP_VExplicitOC_LH,2022.2.5,Win32,7.353535948,NA,NA,NA,NA,NA,NA,NA,NA,NA,NA,NA,NA,NA,NA,NA,NA,NA,NA,make a drink,004.png,NA,NA,NA,NA,NA,NA,NA,NA,NA,NA,NA,NA,NA,NA,NA,NA,51.30568356,0.9724,0,3,3,3,1,NA,NA,NA,NA,NA,NA,NA,NA,NA,NA,NA,NA,NA,NA,NA,NA
SUPAMT92404,3WMOAN2SRHWXX4N6M0M1M4EJWLMNVS,DFCD0001-0A78-4DB6-9FAD-C068696600D6,2023-09-28_12h47.56.060,WP_VExplicitOC_LH,2022.2.5,Win32,7.353535948,NA,NA,NA,NA,NA,NA,NA,NA,NA,NA,NA,NA,NA,NA,NA,NA,NA,NA,scroll social media,005.png,NA,NA,NA,NA,NA,NA,NA,NA,NA,NA,NA,NA,NA,NA,NA,NA,43.31797235,1.2894,0,4,4,4,1,NA,NA,NA,NA,NA,NA,NA,NA,NA,NA,NA,NA,NA,NA,NA,NA
SUPAMT92404,3WMOAN2SRHWXX4N6M0M1M4EJWLMNVS,DFCD0001-0A78-4DB6-9FAD-C068696600D6,2023-09-28_12h47.56.060,WP_VExplicitOC_LH,2022.2.5,Win32,7.353535948,NA,NA,NA,NA,NA,NA,NA,NA,NA,NA,NA,NA,NA,NA,NA,NA,NA,NA,listen to music,006.png,NA,NA,NA,NA,NA,NA,NA,NA,NA,NA,NA,NA,NA,NA,NA,NA,65.13056836,0.9662,0,5,5,5,1,NA,NA,NA,NA,NA,NA,NA,NA,NA,NA,NA,NA,NA,NA,NA,NA
SUPAMT92404,3WMOAN2SRHWXX4N6M0M1M4EJWLMNVS,DFCD0001-0A78-4DB6-9FAD-C068696600D6,2023-09-28_12h47.56.060,WP_VExplicitOC_LH,2022.2.5,Win32,7.353535948,NA,NA,NA,NA,NA,NA,NA,NA,NA,NA,NA,NA,NA,NA,NA,NA,NA,NA,daydream,007.png,NA,NA,NA,NA,NA,NA,NA,NA,NA,NA,NA,NA,NA,NA,NA,NA,69.73886329,1.1272,0,6,6,6,1,NA,NA,NA,NA,NA,NA,NA,NA,NA,NA,NA,NA,NA,NA,NA,NA
SUPAMT92404,3WMOAN2SRHWXX4N6M0M1M4EJWLMNVS,DFCD0001-0A78-4DB6-9FAD-C068696600D6,2023-09-28_12h47.56.060,WP_VExplicitOC_LH,2022.2.5,Win32,7.353535948,NA,NA,NA,NA,NA,NA,NA,NA,NA,NA,NA,NA,NA,NA,NA,NA,NA,NA,watch a short animation,008.png,NA,NA,NA,NA,NA,NA,NA,NA,NA,NA,NA,NA,NA,NA,NA,NA,76.80491551,0.9711,0,7,7,7,1,NA,NA,NA,NA,NA,NA,NA,NA,NA,NA,NA,NA,NA,NA,NA,NA
SUPAMT92404,3WMOAN2SRHWXX4N6M0M1M4EJWLMNVS,DFCD0001-0A78-4DB6-9FAD-C068696600D6,2023-09-28_12h47.56.060,WP_VExplicitOC_LH,2022.2.5,Win32,7.353535948,NA,NA,NA,NA,NA,NA,NA,NA,NA,NA,NA,NA,NA,NA,NA,NA,NA,NA,read a novel,009.png,NA,NA,NA,NA,NA,NA,NA,NA,NA,NA,NA,NA,NA,NA,NA,NA,85.40706605,1.1252,0,8,8,8,1,NA,NA,NA,NA,NA,NA,NA,NA,NA,NA,NA,NA,NA,NA,NA,NA
SUPAMT92404,3WMOAN2SRHWXX4N6M0M1M4EJWLMNVS,DFCD0001-0A78-4DB6-9FAD-C068696600D6,2023-09-28_12h47.56.060,WP_VExplicitOC_LH,2022.2.5,Win32,7.353535948,NA,NA,NA,NA,NA,NA,NA,NA,NA,NA,NA,NA,NA,NA,NA,NA,NA,NA,read the news,010.png,NA,NA,NA,NA,NA,NA,NA,NA,NA,NA,NA,NA,NA,NA,NA,NA,82.64208909,0.9737,0,9,9,9,1,NA,NA,NA,NA,NA,NA,NA,NA,NA,NA,NA,NA,NA,NA,NA,NA
SUPAMT92404,3WMOAN2SRHWXX4N6M0M1M4EJWLMNVS,DFCD0001-0A78-4DB6-9FAD-C068696600D6,2023-09-28_12h47.56.060,WP_VExplicitOC_LH,2022.2.5,Win32,7.353535948,NA,NA,NA,NA,NA,NA,NA,NA,NA,NA,NA,NA,NA,NA,NA,NA,NA,NA,NA,NA,NA,NA,NA,NA,NA,NA,NA,NA,NA,NA,NA,NA,NA,NA,NA,NA,NA,NA,NA,NA,NA,NA,NA,stand up,NA,NA,NA,NA,NA,NA,NA,NA,NA,NA,NA,NA,NA,NA,NA
SUPAMT92404,3WMOAN2SRHWXX4N6M0M1M4EJWLMNVS,DFCD0001-0A78-4DB6-9FAD-C068696600D6,2023-09-28_12h47.56.060,WP_VExplicitOC_LH,2022.2.5,Win32,7.353535948,NA,NA,2.1643,NA,NA,NA,NA,NA,frustrated,"frustrated, not frustrated","more frustrated, less frustrated",NA,NA,NA,NA,NA,NA,NA,NA,NA,NA,NA,NA,NA,NA,NA,NA,NA,NA,NA,NA,NA,NA,NA,NA,NA,NA,NA,NA,NA,NA,NA,NA,NA,0,0,0,1,1,NA,NA,NA,NA,NA,NA,NA,NA,NA,NA
SUPAMT92404,3WMOAN2SRHWXX4N6M0M1M4EJWLMNVS,DFCD0001-0A78-4DB6-9FAD-C068696600D6,2023-09-28_12h47.56.060,WP_VExplicitOC_LH,2022.2.5,Win32,7.353535948,92.16589862,6.4086,2.0188,NA,NA,NA,NA,NA,bored,"bored, not bored","more bored, less bored",NA,NA,NA,NA,NA,NA,NA,NA,NA,NA,NA,NA,NA,NA,NA,NA,NA,NA,NA,NA,NA,NA,NA,NA,NA,NA,NA,NA,NA,NA,NA,NA,NA,0,1,1,2,1,NA,NA,NA,NA,NA,NA,NA,NA,NA,NA
SUPAMT92404,3WMOAN2SRHWXX4N6M0M1M4EJWLMNVS,DFCD0001-0A78-4DB6-9FAD-C068696600D6,2023-09-28_12h47.56.060,WP_VExplicitOC_LH,2022.2.5,Win32,7.353535948,100,3.4526,2.0521,NA,NA,NA,NA,NA,happy,"unhappy, happy","less happy, more happy",NA,NA,NA,NA,NA,NA,NA,NA,NA,NA,NA,NA,NA,NA,NA,NA,NA,NA,NA,NA,NA,NA,NA,NA,NA,NA,NA,NA,NA,NA,NA,NA,NA,0,2,2,0,1,NA,NA,NA,NA,NA,NA,NA,NA,NA,NA
SUPAMT92404,3WMOAN2SRHWXX4N6M0M1M4EJWLMNVS,DFCD0001-0A78-4DB6-9FAD-C068696600D6,2023-09-28_12h47.56.060,WP_VExplicitOC_LH,2022.2.5,Win32,7.353535948,NA,NA,NA,NA,NA,NA,NA,NA,NA,NA,NA,NA,NA,NA,NA,NA,NA,NA,NA,NA,NA,NA,NA,NA,NA,NA,NA,NA,NA,NA,NA,NA,NA,NA,NA,NA,NA,NA,NA,NA,NA,NA,NA,NA,NA,NA,NA,NA,NA,NA,NA,NA,NA,NA,NA,NA,NA,NA,NA
SUPAMT92404,3WMOAN2SRHWXX4N6M0M1M4EJWLMNVS,DFCD0001-0A78-4DB6-9FAD-C068696600D6,2023-09-28_12h47.56.060,WP_VExplicitOC_LH,2022.2.5,Win32,7.353535948,NA,NA,NA,NA,NA,NA,NA,NA,NA,NA,NA,NA,NA,NA,NA,NA,NA,NA,NA,NA,NA,NA,NA,NA,NA,NA,NA,NA,NA,NA,NA,NA,NA,NA,NA,NA,NA,NA,NA,NA,NA,NA,NA,NA,NA,NA,NA,NA,NA,NA,NA,NA,NA,NA,NA,NA,NA,NA,NA
SUPAMT92404,3WMOAN2SRHWXX4N6M0M1M4EJWLMNVS,DFCD0001-0A78-4DB6-9FAD-C068696600D6,2023-09-28_12h47.56.060,WP_VExplicitOC_LH,2022.2.5,Win32,7.353535948,NA,NA,2.0042,NA,NA,NA,NA,NA,frustrated,"frustrated, not frustrated","more frustrated, less frustrated",NA,NA,NA,NA,NA,NA,NA,NA,NA,NA,NA,NA,NA,NA,NA,NA,NA,NA,NA,NA,NA,NA,NA,NA,NA,NA,NA,NA,NA,NA,NA,NA,NA,NA,NA,NA,NA,NA,0,0,0,1,1,NA,NA,NA,NA,NA
SUPAMT92404,3WMOAN2SRHWXX4N6M0M1M4EJWLMNVS,DFCD0001-0A78-4DB6-9FAD-C068696600D6,2023-09-28_12h47.56.060,WP_VExplicitOC_LH,2022.2.5,Win32,7.353535948,NA,NA,2.0034,NA,NA,NA,NA,NA,bored,"bored, not bored","more bored, less bored",NA,NA,NA,NA,NA,NA,NA,NA,NA,NA,NA,NA,NA,NA,NA,NA,NA,NA,NA,NA,NA,NA,NA,NA,NA,NA,NA,NA,NA,NA,NA,NA,NA,NA,NA,NA,NA,NA,0,1,1,2,1,NA,NA,NA,NA,NA
SUPAMT92404,3WMOAN2SRHWXX4N6M0M1M4EJWLMNVS,DFCD0001-0A78-4DB6-9FAD-C068696600D6,2023-09-28_12h47.56.060,WP_VExplicitOC_LH,2022.2.5,Win32,7.353535948,NA,NA,2.1363,NA,NA,NA,NA,NA,happy,"unhappy, happy","less happy, more happy",NA,NA,NA,NA,NA,NA,NA,NA,NA,NA,NA,NA,NA,NA,NA,NA,NA,NA,NA,NA,NA,NA,NA,NA,NA,NA,NA,NA,NA,NA,NA,NA,NA,NA,NA,NA,NA,NA,0,2,2,0,1,NA,NA,NA,NA,NA
SUPAMT92404,3WMOAN2SRHWXX4N6M0M1M4EJWLMNVS,DFCD0001-0A78-4DB6-9FAD-C068696600D6,2023-09-28_12h47.56.060,WP_VExplicitOC_LH,2022.2.5,Win32,7.353535948,NA,NA,NA,NA,NA,NA,NA,NA,NA,NA,NA,NA,NA,NA,NA,NA,NA,NA,NA,NA,NA,NA,NA,NA,NA,NA,NA,NA,NA,NA,NA,NA,NA,NA,NA,NA,NA,NA,NA,NA,NA,NA,NA,NA,NA,NA,NA,NA,NA,NA,NA,NA,NA,NA,0,0,0,0,1
SUPAMT92404,3WMOAN2SRHWXX4N6M0M1M4EJWLMNVS,DFCD0001-0A78-4DB6-9FAD-C068696600D6,2023-09-28_12h47.56.060,WP_VExplicitOC_LH,2022.2.5,Win32,7.353535948,NA,NA,2.1489,NA,NA,NA,NA,NA,frustrated,"frustrated, not frustrated","more frustrated, less frustrated",NA,NA,NA,NA,NA,NA,NA,NA,NA,NA,NA,NA,NA,NA,NA,NA,NA,NA,NA,NA,NA,NA,NA,NA,NA,NA,NA,NA,NA,NA,NA,NA,NA,NA,NA,NA,NA,NA,0,0,0,1,1,NA,NA,NA,NA,NA
SUPAMT92404,3WMOAN2SRHWXX4N6M0M1M4EJWLMNVS,DFCD0001-0A78-4DB6-9FAD-C068696600D6,2023-09-28_12h47.56.060,WP_VExplicitOC_LH,2022.2.5,Win32,7.353535948,NA,NA,2.0306,NA,NA,NA,NA,NA,bored,"bored, not bored","more bored, less bored",NA,NA,NA,NA,NA,NA,NA,NA,NA,NA,NA,NA,NA,NA,NA,NA,NA,NA,NA,NA,NA,NA,NA,NA,NA,NA,NA,NA,NA,NA,NA,NA,NA,NA,NA,NA,NA,NA,0,1,1,2,1,NA,NA,NA,NA,NA
SUPAMT92404,3WMOAN2SRHWXX4N6M0M1M4EJWLMNVS,DFCD0001-0A78-4DB6-9FAD-C068696600D6,2023-09-28_12h47.56.060,WP_VExplicitOC_LH,2022.2.5,Win32,7.353535948,NA,NA,2.0013,NA,NA,NA,NA,NA,happy,"unhappy, happy","less happy, more happy",NA,NA,NA,NA,NA,NA,NA,NA,NA,NA,NA,NA,NA,NA,NA,NA,NA,NA,NA,NA,NA,NA,NA,NA,NA,NA,NA,NA,NA,NA,NA,NA,NA,NA,NA,NA,NA,NA,0,2,2,0,1,NA,NA,NA,NA,NA
SUPAMT92404,3WMOAN2SRHWXX4N6M0M1M4EJWLMNVS,DFCD0001-0A78-4DB6-9FAD-C068696600D6,2023-09-28_12h47.56.060,WP_VExplicitOC_LH,2022.2.5,Win32,7.353535948,NA,NA,NA,NA,NA,NA,NA,NA,NA,NA,NA,NA,NA,NA,NA,NA,NA,NA,NA,NA,NA,NA,NA,NA,NA,NA,NA,NA,NA,NA,NA,NA,NA,NA,NA,NA,NA,NA,NA,NA,NA,NA,NA,NA,NA,NA,NA,NA,NA,NA,NA,NA,NA,NA,1,0,1,0,1
SUPAMT92404,3WMOAN2SRHWXX4N6M0M1M4EJWLMNVS,DFCD0001-0A78-4DB6-9FAD-C068696600D6,2023-09-28_12h47.56.060,WP_VExplicitOC_LH,2022.2.5,Win32,7.353535948,NA,NA,2.0315,NA,NA,NA,NA,NA,happy,"unhappy, happy","less happy, more happy",NA,NA,NA,NA,NA,NA,NA,NA,NA,NA,NA,NA,NA,NA,NA,NA,NA,NA,NA,NA,NA,NA,NA,NA,NA,NA,NA,NA,NA,NA,NA,NA,NA,NA,NA,NA,NA,NA,0,0,0,0,1,NA,NA,NA,NA,NA
SUPAMT92404,3WMOAN2SRHWXX4N6M0M1M4EJWLMNVS,DFCD0001-0A78-4DB6-9FAD-C068696600D6,2023-09-28_12h47.56.060,WP_VExplicitOC_LH,2022.2.5,Win32,7.353535948,NA,NA,2.0368,NA,NA,NA,NA,NA,frustrated,"frustrated, not frustrated","more frustrated, less frustrated",NA,NA,NA,NA,NA,NA,NA,NA,NA,NA,NA,NA,NA,NA,NA,NA,NA,NA,NA,NA,NA,NA,NA,NA,NA,NA,NA,NA,NA,NA,NA,NA,NA,NA,NA,NA,NA,NA,0,1,1,1,1,NA,NA,NA,NA,NA
SUPAMT92404,3WMOAN2SRHWXX4N6M0M1M4EJWLMNVS,DFCD0001-0A78-4DB6-9FAD-C068696600D6,2023-09-28_12h47.56.060,WP_VExplicitOC_LH,2022.2.5,Win32,7.353535948,93.39477727,6.8801,2.0036,NA,NA,NA,NA,NA,bored,"bored, not bored","more bored, less bored",NA,NA,NA,NA,NA,NA,NA,NA,NA,NA,NA,NA,NA,NA,NA,NA,NA,NA,NA,NA,NA,NA,NA,NA,NA,NA,NA,NA,NA,NA,NA,NA,NA,NA,NA,NA,NA,NA,0,2,2,2,1,NA,NA,NA,NA,NA
SUPAMT92404,3WMOAN2SRHWXX4N6M0M1M4EJWLMNVS,DFCD0001-0A78-4DB6-9FAD-C068696600D6,2023-09-28_12h47.56.060,WP_VExplicitOC_LH,2022.2.5,Win32,7.353535948,NA,NA,NA,NA,NA,NA,NA,NA,NA,NA,NA,NA,NA,NA,NA,NA,NA,NA,NA,NA,NA,NA,NA,NA,NA,NA,NA,NA,NA,NA,NA,NA,NA,NA,NA,NA,NA,NA,NA,NA,NA,NA,NA,NA,NA,NA,NA,NA,NA,NA,NA,NA,NA,NA,2,0,2,0,1
SUPAMT92404,3WMOAN2SRHWXX4N6M0M1M4EJWLMNVS,DFCD0001-0A78-4DB6-9FAD-C068696600D6,2023-09-28_12h47.56.060,WP_VExplicitOC_LH,2022.2.5,Win32,7.353535948,NA,NA,2.0274,NA,NA,NA,NA,NA,frustrated,"frustrated, not frustrated","more frustrated, less frustrated",NA,NA,NA,NA,NA,NA,NA,NA,NA,NA,NA,NA,NA,NA,NA,NA,NA,NA,NA,NA,NA,NA,NA,NA,NA,NA,NA,NA,NA,NA,NA,NA,NA,NA,NA,NA,NA,NA,0,0,0,1,1,NA,NA,NA,NA,NA
SUPAMT92404,3WMOAN2SRHWXX4N6M0M1M4EJWLMNVS,DFCD0001-0A78-4DB6-9FAD-C068696600D6,2023-09-28_12h47.56.060,WP_VExplicitOC_LH,2022.2.5,Win32,7.353535948,NA,NA,2.138,NA,NA,NA,NA,NA,bored,"bored, not bored","more bored, less bored",NA,NA,NA,NA,NA,NA,NA,NA,NA,NA,NA,NA,NA,NA,NA,NA,NA,NA,NA,NA,NA,NA,NA,NA,NA,NA,NA,NA,NA,NA,NA,NA,NA,NA,NA,NA,NA,NA,0,1,1,2,1,NA,NA,NA,NA,NA
SUPAMT92404,3WMOAN2SRHWXX4N6M0M1M4EJWLMNVS,DFCD0001-0A78-4DB6-9FAD-C068696600D6,2023-09-28_12h47.56.060,WP_VExplicitOC_LH,2022.2.5,Win32,7.353535948,96.46697389,4.1716,2.1375,NA,NA,NA,NA,NA,happy,"unhappy, happy","less happy, more happy",NA,NA,NA,NA,NA,NA,NA,NA,NA,NA,NA,NA,NA,NA,NA,NA,NA,NA,NA,NA,NA,NA,NA,NA,NA,NA,NA,NA,NA,NA,NA,NA,NA,NA,NA,NA,NA,NA,0,2,2,0,1,NA,NA,NA,NA,NA
SUPAMT92404,3WMOAN2SRHWXX4N6M0M1M4EJWLMNVS,DFCD0001-0A78-4DB6-9FAD-C068696600D6,2023-09-28_12h47.56.060,WP_VExplicitOC_LH,2022.2.5,Win32,7.353535948,NA,NA,NA,NA,NA,NA,NA,NA,NA,NA,NA,NA,NA,NA,NA,NA,NA,NA,NA,NA,NA,NA,NA,NA,NA,NA,NA,NA,NA,NA,NA,NA,NA,NA,NA,NA,NA,NA,NA,NA,NA,NA,NA,NA,NA,NA,NA,NA,NA,NA,NA,NA,NA,NA,3,0,3,0,1
SUPAMT92404,3WMOAN2SRHWXX4N6M0M1M4EJWLMNVS,DFCD0001-0A78-4DB6-9FAD-C068696600D6,2023-09-28_12h47.56.060,WP_VExplicitOC_LH,2022.2.5,Win32,7.353535948,NA,NA,2.0193,NA,NA,NA,NA,NA,happy,"unhappy, happy","less happy, more happy",NA,NA,NA,NA,NA,NA,NA,NA,NA,NA,NA,NA,NA,NA,NA,NA,NA,NA,NA,NA,NA,NA,NA,NA,NA,NA,NA,NA,NA,NA,NA,NA,NA,NA,NA,NA,NA,NA,0,0,0,0,1,NA,NA,NA,NA,NA
SUPAMT92404,3WMOAN2SRHWXX4N6M0M1M4EJWLMNVS,DFCD0001-0A78-4DB6-9FAD-C068696600D6,2023-09-28_12h47.56.060,WP_VExplicitOC_LH,2022.2.5,Win32,7.353535948,NA,NA,2.0017,NA,NA,NA,NA,NA,bored,"bored, not bored","more bored, less bored",NA,NA,NA,NA,NA,NA,NA,NA,NA,NA,NA,NA,NA,NA,NA,NA,NA,NA,NA,NA,NA,NA,NA,NA,NA,NA,NA,NA,NA,NA,NA,NA,NA,NA,NA,NA,NA,NA,0,1,1,2,1,NA,NA,NA,NA,NA
SUPAMT92404,3WMOAN2SRHWXX4N6M0M1M4EJWLMNVS,DFCD0001-0A78-4DB6-9FAD-C068696600D6,2023-09-28_12h47.56.060,WP_VExplicitOC_LH,2022.2.5,Win32,7.353535948,NA,NA,2.1425,NA,NA,NA,NA,NA,frustrated,"frustrated, not frustrated","more frustrated, less frustrated",NA,NA,NA,NA,NA,NA,NA,NA,NA,NA,NA,NA,NA,NA,NA,NA,NA,NA,NA,NA,NA,NA,NA,NA,NA,NA,NA,NA,NA,NA,NA,NA,NA,NA,NA,NA,NA,NA,0,2,2,1,1,NA,NA,NA,NA,NA
SUPAMT92404,3WMOAN2SRHWXX4N6M0M1M4EJWLMNVS,DFCD0001-0A78-4DB6-9FAD-C068696600D6,2023-09-28_12h47.56.060,WP_VExplicitOC_LH,2022.2.5,Win32,7.353535948,NA,NA,NA,NA,NA,NA,NA,NA,NA,NA,NA,NA,NA,NA,NA,NA,NA,NA,NA,NA,NA,NA,NA,NA,NA,NA,NA,NA,NA,NA,NA,NA,NA,NA,NA,NA,NA,NA,NA,NA,NA,NA,NA,NA,NA,NA,NA,NA,NA,NA,NA,NA,NA,NA,4,0,4,0,1
SUPAMT92404,3WMOAN2SRHWXX4N6M0M1M4EJWLMNVS,DFCD0001-0A78-4DB6-9FAD-C068696600D6,2023-09-28_12h47.56.060,WP_VExplicitOC_LH,2022.2.5,Win32,7.353535948,NA,NA,2.1541,NA,NA,NA,NA,NA,happy,"unhappy, happy","less happy, more happy",NA,NA,NA,NA,NA,NA,NA,NA,NA,NA,NA,NA,NA,NA,NA,NA,NA,NA,NA,NA,NA,NA,NA,NA,NA,NA,NA,NA,NA,NA,NA,NA,NA,NA,NA,NA,NA,NA,0,0,0,0,1,NA,NA,NA,NA,NA
SUPAMT92404,3WMOAN2SRHWXX4N6M0M1M4EJWLMNVS,DFCD0001-0A78-4DB6-9FAD-C068696600D6,2023-09-28_12h47.56.060,WP_VExplicitOC_LH,2022.2.5,Win32,7.353535948,NA,NA,2.018,NA,NA,NA,NA,NA,bored,"bored, not bored","more bored, less bored",NA,NA,NA,NA,NA,NA,NA,NA,NA,NA,NA,NA,NA,NA,NA,NA,NA,NA,NA,NA,NA,NA,NA,NA,NA,NA,NA,NA,NA,NA,NA,NA,NA,NA,NA,NA,NA,NA,0,1,1,2,1,NA,NA,NA,NA,NA
SUPAMT92404,3WMOAN2SRHWXX4N6M0M1M4EJWLMNVS,DFCD0001-0A78-4DB6-9FAD-C068696600D6,2023-09-28_12h47.56.060,WP_VExplicitOC_LH,2022.2.5,Win32,7.353535948,NA,NA,2.0299,NA,NA,NA,NA,NA,frustrated,"frustrated, not frustrated","more frustrated, less frustrated",NA,NA,NA,NA,NA,NA,NA,NA,NA,NA,NA,NA,NA,NA,NA,NA,NA,NA,NA,NA,NA,NA,NA,NA,NA,NA,NA,NA,NA,NA,NA,NA,NA,NA,NA,NA,NA,NA,0,2,2,1,1,NA,NA,NA,NA,NA
SUPAMT92404,3WMOAN2SRHWXX4N6M0M1M4EJWLMNVS,DFCD0001-0A78-4DB6-9FAD-C068696600D6,2023-09-28_12h47.56.060,WP_VExplicitOC_LH,2022.2.5,Win32,7.353535948,NA,NA,NA,NA,NA,NA,NA,NA,NA,NA,NA,NA,NA,NA,NA,NA,NA,NA,NA,NA,NA,NA,NA,NA,NA,NA,NA,NA,NA,NA,NA,NA,NA,NA,NA,NA,NA,NA,NA,NA,NA,NA,NA,NA,NA,NA,NA,NA,NA,NA,NA,NA,NA,NA,5,0,5,0,1
SUPAMT92404,3WMOAN2SRHWXX4N6M0M1M4EJWLMNVS,DFCD0001-0A78-4DB6-9FAD-C068696600D6,2023-09-28_12h47.56.060,WP_VExplicitOC_LH,2022.2.5,Win32,7.353535948,NA,NA,2.1218,NA,NA,NA,NA,NA,happy,"unhappy, happy","less happy, more happy",NA,NA,NA,NA,NA,NA,NA,NA,NA,NA,NA,NA,NA,NA,NA,NA,NA,NA,NA,NA,NA,NA,NA,NA,NA,NA,NA,NA,NA,NA,NA,NA,NA,NA,NA,NA,NA,NA,0,0,0,0,1,NA,NA,NA,NA,NA
SUPAMT92404,3WMOAN2SRHWXX4N6M0M1M4EJWLMNVS,DFCD0001-0A78-4DB6-9FAD-C068696600D6,2023-09-28_12h47.56.060,WP_VExplicitOC_LH,2022.2.5,Win32,7.353535948,NA,NA,2.0053,NA,NA,NA,NA,NA,frustrated,"frustrated, not frustrated","more frustrated, less frustrated",NA,NA,NA,NA,NA,NA,NA,NA,NA,NA,NA,NA,NA,NA,NA,NA,NA,NA,NA,NA,NA,NA,NA,NA,NA,NA,NA,NA,NA,NA,NA,NA,NA,NA,NA,NA,NA,NA,0,1,1,1,1,NA,NA,NA,NA,NA
SUPAMT92404,3WMOAN2SRHWXX4N6M0M1M4EJWLMNVS,DFCD0001-0A78-4DB6-9FAD-C068696600D6,2023-09-28_12h47.56.060,WP_VExplicitOC_LH,2022.2.5,Win32,7.353535948,NA,NA,2.0425,NA,NA,NA,NA,NA,bored,"bored, not bored","more bored, less bored",NA,NA,NA,NA,NA,NA,NA,NA,NA,NA,NA,NA,NA,NA,NA,NA,NA,NA,NA,NA,NA,NA,NA,NA,NA,NA,NA,NA,NA,NA,NA,NA,NA,NA,NA,NA,NA,NA,0,2,2,2,1,NA,NA,NA,NA,NA
SUPAMT92404,3WMOAN2SRHWXX4N6M0M1M4EJWLMNVS,DFCD0001-0A78-4DB6-9FAD-C068696600D6,2023-09-28_12h47.56.060,WP_VExplicitOC_LH,2022.2.5,Win32,7.353535948,NA,NA,NA,NA,NA,NA,NA,NA,NA,NA,NA,NA,NA,NA,NA,NA,NA,NA,NA,NA,NA,NA,NA,NA,NA,NA,NA,NA,NA,NA,NA,NA,NA,NA,NA,NA,NA,NA,NA,NA,NA,NA,NA,NA,NA,NA,NA,NA,NA,NA,NA,NA,NA,NA,6,0,6,0,1
SUPAMT92404,3WMOAN2SRHWXX4N6M0M1M4EJWLMNVS,DFCD0001-0A78-4DB6-9FAD-C068696600D6,2023-09-28_12h47.56.060,WP_VExplicitOC_LH,2022.2.5,Win32,7.353535948,NA,NA,2.0568,NA,NA,NA,NA,NA,bored,"bored, not bored","more bored, less bored",NA,NA,NA,NA,NA,NA,NA,NA,NA,NA,NA,NA,NA,NA,NA,NA,NA,NA,NA,NA,NA,NA,NA,NA,NA,NA,NA,NA,NA,NA,NA,NA,NA,NA,NA,NA,NA,NA,0,0,0,2,1,NA,NA,NA,NA,NA
SUPAMT92404,3WMOAN2SRHWXX4N6M0M1M4EJWLMNVS,DFCD0001-0A78-4DB6-9FAD-C068696600D6,2023-09-28_12h47.56.060,WP_VExplicitOC_LH,2022.2.5,Win32,7.353535948,NA,NA,2.0896,NA,NA,NA,NA,NA,frustrated,"frustrated, not frustrated","more frustrated, less frustrated",NA,NA,NA,NA,NA,NA,NA,NA,NA,NA,NA,NA,NA,NA,NA,NA,NA,NA,NA,NA,NA,NA,NA,NA,NA,NA,NA,NA,NA,NA,NA,NA,NA,NA,NA,NA,NA,NA,0,1,1,1,1,NA,NA,NA,NA,NA
SUPAMT92404,3WMOAN2SRHWXX4N6M0M1M4EJWLMNVS,DFCD0001-0A78-4DB6-9FAD-C068696600D6,2023-09-28_12h47.56.060,WP_VExplicitOC_LH,2022.2.5,Win32,7.353535948,NA,NA,2.0395,NA,NA,NA,NA,NA,happy,"unhappy, happy","less happy, more happy",NA,NA,NA,NA,NA,NA,NA,NA,NA,NA,NA,NA,NA,NA,NA,NA,NA,NA,NA,NA,NA,NA,NA,NA,NA,NA,NA,NA,NA,NA,NA,NA,NA,NA,NA,NA,NA,NA,0,2,2,0,1,NA,NA,NA,NA,NA
SUPAMT92404,3WMOAN2SRHWXX4N6M0M1M4EJWLMNVS,DFCD0001-0A78-4DB6-9FAD-C068696600D6,2023-09-28_12h47.56.060,WP_VExplicitOC_LH,2022.2.5,Win32,7.353535948,NA,NA,NA,NA,NA,NA,NA,NA,NA,NA,NA,NA,NA,NA,NA,NA,NA,NA,NA,NA,NA,NA,NA,NA,NA,NA,NA,NA,NA,NA,NA,NA,NA,NA,NA,NA,NA,NA,NA,NA,NA,NA,NA,NA,NA,NA,NA,NA,NA,NA,NA,NA,NA,NA,7,0,7,0,1
SUPAMT92404,3WMOAN2SRHWXX4N6M0M1M4EJWLMNVS,DFCD0001-0A78-4DB6-9FAD-C068696600D6,2023-09-28_12h47.56.060,WP_VExplicitOC_LH,2022.2.5,Win32,7.353535948,NA,NA,2.0524,NA,NA,NA,NA,NA,bored,"bored, not bored","more bored, less bored",NA,NA,NA,NA,NA,NA,NA,NA,NA,NA,NA,NA,NA,NA,NA,NA,NA,NA,NA,NA,NA,NA,NA,NA,NA,NA,NA,NA,NA,NA,NA,NA,NA,NA,NA,NA,NA,NA,0,0,0,2,1,NA,NA,NA,NA,NA
SUPAMT92404,3WMOAN2SRHWXX4N6M0M1M4EJWLMNVS,DFCD0001-0A78-4DB6-9FAD-C068696600D6,2023-09-28_12h47.56.060,WP_VExplicitOC_LH,2022.2.5,Win32,7.353535948,NA,NA,2.0066,NA,NA,NA,NA,NA,frustrated,"frustrated, not frustrated","more frustrated, less frustrated",NA,NA,NA,NA,NA,NA,NA,NA,NA,NA,NA,NA,NA,NA,NA,NA,NA,NA,NA,NA,NA,NA,NA,NA,NA,NA,NA,NA,NA,NA,NA,NA,NA,NA,NA,NA,NA,NA,0,1,1,1,1,NA,NA,NA,NA,NA
SUPAMT92404,3WMOAN2SRHWXX4N6M0M1M4EJWLMNVS,DFCD0001-0A78-4DB6-9FAD-C068696600D6,2023-09-28_12h47.56.060,WP_VExplicitOC_LH,2022.2.5,Win32,7.353535948,NA,NA,2.1653,NA,NA,NA,NA,NA,happy,"unhappy, happy","less happy, more happy",NA,NA,NA,NA,NA,NA,NA,NA,NA,NA,NA,NA,NA,NA,NA,NA,NA,NA,NA,NA,NA,NA,NA,NA,NA,NA,NA,NA,NA,NA,NA,NA,NA,NA,NA,NA,NA,NA,0,2,2,0,1,NA,NA,NA,NA,NA
SUPAMT92404,3WMOAN2SRHWXX4N6M0M1M4EJWLMNVS,DFCD0001-0A78-4DB6-9FAD-C068696600D6,2023-09-28_12h47.56.060,WP_VExplicitOC_LH,2022.2.5,Win32,7.353535948,NA,NA,NA,NA,NA,NA,NA,NA,NA,NA,NA,NA,NA,NA,NA,NA,NA,NA,NA,NA,NA,NA,NA,NA,NA,NA,NA,NA,NA,NA,NA,NA,NA,NA,NA,NA,NA,NA,NA,NA,NA,NA,NA,NA,NA,NA,NA,NA,NA,NA,NA,NA,NA,NA,8,0,8,0,1
SUPAMT92404,3WMOAN2SRHWXX4N6M0M1M4EJWLMNVS,DFCD0001-0A78-4DB6-9FAD-C068696600D6,2023-09-28_12h47.56.060,WP_VExplicitOC_LH,2022.2.5,Win32,7.353535948,NA,NA,2.0697,NA,NA,NA,NA,NA,bored,"bored, not bored","more bored, less bored",NA,NA,NA,NA,NA,NA,NA,NA,NA,NA,NA,NA,NA,NA,NA,NA,NA,NA,NA,NA,NA,NA,NA,NA,NA,NA,NA,NA,NA,NA,NA,NA,NA,NA,NA,NA,NA,NA,0,0,0,2,1,NA,NA,NA,NA,NA
SUPAMT92404,3WMOAN2SRHWXX4N6M0M1M4EJWLMNVS,DFCD0001-0A78-4DB6-9FAD-C068696600D6,2023-09-28_12h47.56.060,WP_VExplicitOC_LH,2022.2.5,Win32,7.353535948,NA,NA,2.1554,NA,NA,NA,NA,NA,frustrated,"frustrated, not frustrated","more frustrated, less frustrated",NA,NA,NA,NA,NA,NA,NA,NA,NA,NA,NA,NA,NA,NA,NA,NA,NA,NA,NA,NA,NA,NA,NA,NA,NA,NA,NA,NA,NA,NA,NA,NA,NA,NA,NA,NA,NA,NA,0,1,1,1,1,NA,NA,NA,NA,NA
SUPAMT92404,3WMOAN2SRHWXX4N6M0M1M4EJWLMNVS,DFCD0001-0A78-4DB6-9FAD-C068696600D6,2023-09-28_12h47.56.060,WP_VExplicitOC_LH,2022.2.5,Win32,7.353535948,NA,NA,2.0247,NA,NA,NA,NA,NA,happy,"unhappy, happy","less happy, more happy",NA,NA,NA,NA,NA,NA,NA,NA,NA,NA,NA,NA,NA,NA,NA,NA,NA,NA,NA,NA,NA,NA,NA,NA,NA,NA,NA,NA,NA,NA,NA,NA,NA,NA,NA,NA,NA,NA,0,2,2,0,1,NA,NA,NA,NA,NA
SUPAMT92404,3WMOAN2SRHWXX4N6M0M1M4EJWLMNVS,DFCD0001-0A78-4DB6-9FAD-C068696600D6,2023-09-28_12h47.56.060,WP_VExplicitOC_LH,2022.2.5,Win32,7.353535948,NA,NA,NA,NA,NA,NA,NA,NA,NA,NA,NA,NA,NA,NA,NA,NA,NA,NA,NA,NA,NA,NA,NA,NA,NA,NA,NA,NA,NA,NA,NA,NA,NA,NA,NA,NA,NA,NA,NA,NA,NA,NA,NA,NA,NA,NA,NA,NA,NA,NA,NA,NA,NA,NA,9,0,9,0,1
SUPAMT92404,3WMOAN2SRHWXX4N6M0M1M4EJWLMNVS,DFCD0001-0A78-4DB6-9FAD-C068696600D6,2023-09-28_12h47.56.060,WP_VExplicitOC_LH,2022.2.5,Win32,7.353535948,NA,NA,2.0536,NA,NA,NA,NA,NA,happy,"unhappy, happy","less happy, more happy",NA,NA,NA,NA,NA,NA,NA,NA,NA,NA,NA,NA,NA,NA,NA,NA,NA,NA,NA,NA,NA,NA,NA,NA,NA,NA,NA,NA,NA,NA,NA,NA,NA,NA,NA,NA,NA,NA,0,0,0,0,1,NA,NA,NA,NA,NA
SUPAMT92404,3WMOAN2SRHWXX4N6M0M1M4EJWLMNVS,DFCD0001-0A78-4DB6-9FAD-C068696600D6,2023-09-28_12h47.56.060,WP_VExplicitOC_LH,2022.2.5,Win32,7.353535948,NA,NA,2.034,NA,NA,NA,NA,NA,frustrated,"frustrated, not frustrated","more frustrated, less frustrated",NA,NA,NA,NA,NA,NA,NA,NA,NA,NA,NA,NA,NA,NA,NA,NA,NA,NA,NA,NA,NA,NA,NA,NA,NA,NA,NA,NA,NA,NA,NA,NA,NA,NA,NA,NA,NA,NA,0,1,1,1,1,NA,NA,NA,NA,NA
SUPAMT92404,3WMOAN2SRHWXX4N6M0M1M4EJWLMNVS,DFCD0001-0A78-4DB6-9FAD-C068696600D6,2023-09-28_12h47.56.060,WP_VExplicitOC_LH,2022.2.5,Win32,7.353535948,90.01536098,5.7483,2.1647,NA,NA,NA,NA,NA,bored,"bored, not bored","more bored, less bored",NA,NA,NA,NA,NA,NA,NA,NA,NA,NA,NA,NA,NA,NA,NA,NA,NA,NA,NA,NA,NA,NA,NA,NA,NA,NA,NA,NA,NA,NA,NA,NA,NA,NA,NA,NA,NA,NA,0,2,2,2,1,NA,NA,NA,NA,NA
SUPAMT92404,3WMOAN2SRHWXX4N6M0M1M4EJWLMNVS,DFCD0001-0A78-4DB6-9FAD-C068696600D6,2023-09-28_12h47.56.060,WP_VExplicitOC_LH,2022.2.5,Win32,7.353535948,NA,NA,NA,NA,NA,NA,NA,NA,NA,NA,NA,NA,NA,NA,NA,NA,NA,NA,NA,NA,NA,NA,NA,NA,NA,NA,NA,NA,NA,NA,NA,NA,NA,NA,NA,NA,NA,NA,NA,NA,NA,NA,NA,NA,NA,NA,NA,NA,NA,NA,NA,NA,NA,NA,10,0,10,0,1
SUPAMT92404,3WMOAN2SRHWXX4N6M0M1M4EJWLMNVS,DFCD0001-0A78-4DB6-9FAD-C068696600D6,2023-09-28_12h47.56.060,WP_VExplicitOC_LH,2022.2.5,Win32,7.353535948,NA,NA,2.0379,NA,NA,NA,NA,NA,frustrated,"frustrated, not frustrated","more frustrated, less frustrated",NA,NA,NA,NA,NA,NA,NA,NA,NA,NA,NA,NA,NA,NA,NA,NA,NA,NA,NA,NA,NA,NA,NA,NA,NA,NA,NA,NA,NA,NA,NA,NA,NA,NA,NA,NA,NA,NA,0,0,0,1,1,NA,NA,NA,NA,NA
SUPAMT92404,3WMOAN2SRHWXX4N6M0M1M4EJWLMNVS,DFCD0001-0A78-4DB6-9FAD-C068696600D6,2023-09-28_12h47.56.060,WP_VExplicitOC_LH,2022.2.5,Win32,7.353535948,NA,NA,2,NA,NA,NA,NA,NA,happy,"unhappy, happy","less happy, more happy",NA,NA,NA,NA,NA,NA,NA,NA,NA,NA,NA,NA,NA,NA,NA,NA,NA,NA,NA,NA,NA,NA,NA,NA,NA,NA,NA,NA,NA,NA,NA,NA,NA,NA,NA,NA,NA,NA,0,1,1,0,1,NA,NA,NA,NA,NA
SUPAMT92404,3WMOAN2SRHWXX4N6M0M1M4EJWLMNVS,DFCD0001-0A78-4DB6-9FAD-C068696600D6,2023-09-28_12h47.56.060,WP_VExplicitOC_LH,2022.2.5,Win32,7.353535948,NA,NA,2.0535,NA,NA,NA,NA,NA,bored,"bored, not bored","more bored, less bored",NA,NA,NA,NA,NA,NA,NA,NA,NA,NA,NA,NA,NA,NA,NA,NA,NA,NA,NA,NA,NA,NA,NA,NA,NA,NA,NA,NA,NA,NA,NA,NA,NA,NA,NA,NA,NA,NA,0,2,2,2,1,NA,NA,NA,NA,NA
SUPAMT92404,3WMOAN2SRHWXX4N6M0M1M4EJWLMNVS,DFCD0001-0A78-4DB6-9FAD-C068696600D6,2023-09-28_12h47.56.060,WP_VExplicitOC_LH,2022.2.5,Win32,7.353535948,NA,NA,NA,NA,NA,NA,NA,NA,NA,NA,NA,NA,NA,NA,NA,NA,NA,NA,NA,NA,NA,NA,NA,NA,NA,NA,NA,NA,NA,NA,NA,NA,NA,NA,NA,NA,NA,NA,NA,NA,NA,NA,NA,NA,NA,NA,NA,NA,NA,NA,NA,NA,NA,NA,11,0,11,0,1
SUPAMT92404,3WMOAN2SRHWXX4N6M0M1M4EJWLMNVS,DFCD0001-0A78-4DB6-9FAD-C068696600D6,2023-09-28_12h47.56.060,WP_VExplicitOC_LH,2022.2.5,Win32,7.353535948,NA,NA,2.0038,NA,NA,NA,NA,NA,happy,"unhappy, happy","less happy, more happy",NA,NA,NA,NA,NA,NA,NA,NA,NA,NA,NA,NA,NA,NA,NA,NA,NA,NA,NA,NA,NA,NA,NA,NA,NA,NA,NA,NA,NA,NA,NA,NA,NA,NA,NA,NA,NA,NA,0,0,0,0,1,NA,NA,NA,NA,NA
SUPAMT92404,3WMOAN2SRHWXX4N6M0M1M4EJWLMNVS,DFCD0001-0A78-4DB6-9FAD-C068696600D6,2023-09-28_12h47.56.060,WP_VExplicitOC_LH,2022.2.5,Win32,7.353535948,NA,NA,2.0567,NA,NA,NA,NA,NA,bored,"bored, not bored","more bored, less bored",NA,NA,NA,NA,NA,NA,NA,NA,NA,NA,NA,NA,NA,NA,NA,NA,NA,NA,NA,NA,NA,NA,NA,NA,NA,NA,NA,NA,NA,NA,NA,NA,NA,NA,NA,NA,NA,NA,0,1,1,2,1,NA,NA,NA,NA,NA
SUPAMT92404,3WMOAN2SRHWXX4N6M0M1M4EJWLMNVS,DFCD0001-0A78-4DB6-9FAD-C068696600D6,2023-09-28_12h47.56.060,WP_VExplicitOC_LH,2022.2.5,Win32,7.353535948,NA,NA,2.0543,NA,NA,NA,NA,NA,frustrated,"frustrated, not frustrated","more frustrated, less frustrated",NA,NA,NA,NA,NA,NA,NA,NA,NA,NA,NA,NA,NA,NA,NA,NA,NA,NA,NA,NA,NA,NA,NA,NA,NA,NA,NA,NA,NA,NA,NA,NA,NA,NA,NA,NA,NA,NA,0,2,2,1,1,NA,NA,NA,NA,NA
SUPAMT92404,3WMOAN2SRHWXX4N6M0M1M4EJWLMNVS,DFCD0001-0A78-4DB6-9FAD-C068696600D6,2023-09-28_12h47.56.060,WP_VExplicitOC_LH,2022.2.5,Win32,7.353535948,NA,NA,NA,NA,NA,NA,NA,NA,NA,NA,NA,NA,NA,NA,NA,NA,NA,NA,NA,NA,NA,NA,NA,NA,NA,NA,NA,NA,NA,NA,NA,NA,NA,NA,NA,NA,NA,NA,NA,NA,NA,NA,NA,NA,NA,NA,NA,NA,NA,NA,NA,NA,NA,NA,12,0,12,0,1
SUPAMT92404,3WMOAN2SRHWXX4N6M0M1M4EJWLMNVS,DFCD0001-0A78-4DB6-9FAD-C068696600D6,2023-09-28_12h47.56.060,WP_VExplicitOC_LH,2022.2.5,Win32,7.353535948,100,6.9672,2.0062,NA,NA,NA,NA,NA,bored,"bored, not bored","more bored, less bored",NA,NA,NA,NA,NA,NA,NA,NA,NA,NA,NA,NA,NA,NA,NA,NA,NA,NA,NA,NA,NA,NA,NA,NA,NA,NA,NA,NA,NA,NA,NA,NA,NA,NA,NA,NA,NA,NA,0,0,0,2,1,NA,NA,NA,NA,NA
SUPAMT92404,3WMOAN2SRHWXX4N6M0M1M4EJWLMNVS,DFCD0001-0A78-4DB6-9FAD-C068696600D6,2023-09-28_12h47.56.060,WP_VExplicitOC_LH,2022.2.5,Win32,7.353535948,100,3.5966,2.0366,NA,NA,NA,NA,NA,frustrated,"frustrated, not frustrated","more frustrated, less frustrated",NA,NA,NA,NA,NA,NA,NA,NA,NA,NA,NA,NA,NA,NA,NA,NA,NA,NA,NA,NA,NA,NA,NA,NA,NA,NA,NA,NA,NA,NA,NA,NA,NA,NA,NA,NA,NA,NA,0,1,1,1,1,NA,NA,NA,NA,NA
SUPAMT92404,3WMOAN2SRHWXX4N6M0M1M4EJWLMNVS,DFCD0001-0A78-4DB6-9FAD-C068696600D6,2023-09-28_12h47.56.060,WP_VExplicitOC_LH,2022.2.5,Win32,7.353535948,100,4.0604,2.0111,NA,NA,NA,NA,NA,happy,"unhappy, happy","less happy, more happy",NA,NA,NA,NA,NA,NA,NA,NA,NA,NA,NA,NA,NA,NA,NA,NA,NA,NA,NA,NA,NA,NA,NA,NA,NA,NA,NA,NA,NA,NA,NA,NA,NA,NA,NA,NA,NA,NA,0,2,2,0,1,NA,NA,NA,NA,NA
SUPAMT92404,3WMOAN2SRHWXX4N6M0M1M4EJWLMNVS,DFCD0001-0A78-4DB6-9FAD-C068696600D6,2023-09-28_12h47.56.060,WP_VExplicitOC_LH,2022.2.5,Win32,7.353535948,NA,NA,NA,NA,NA,NA,NA,NA,NA,NA,NA,NA,NA,NA,NA,NA,NA,NA,NA,NA,NA,NA,NA,NA,NA,NA,NA,NA,NA,NA,NA,NA,NA,NA,NA,NA,NA,NA,NA,NA,NA,NA,NA,NA,NA,NA,NA,NA,NA,NA,NA,NA,NA,NA,13,0,13,0,1
SUPAMT92404,3WMOAN2SRHWXX4N6M0M1M4EJWLMNVS,DFCD0001-0A78-4DB6-9FAD-C068696600D6,2023-09-28_12h47.56.060,WP_VExplicitOC_LH,2022.2.5,Win32,7.353535948,NA,NA,2.0105,NA,NA,NA,NA,NA,happy,"unhappy, happy","less happy, more happy",NA,NA,NA,NA,NA,NA,NA,NA,NA,NA,NA,NA,NA,NA,NA,NA,NA,NA,NA,NA,NA,NA,NA,NA,NA,NA,NA,NA,NA,NA,NA,NA,NA,NA,NA,NA,NA,NA,0,0,0,0,1,NA,NA,NA,NA,NA
SUPAMT92404,3WMOAN2SRHWXX4N6M0M1M4EJWLMNVS,DFCD0001-0A78-4DB6-9FAD-C068696600D6,2023-09-28_12h47.56.060,WP_VExplicitOC_LH,2022.2.5,Win32,7.353535948,NA,NA,2.0169,NA,NA,NA,NA,NA,bored,"bored, not bored","more bored, less bored",NA,NA,NA,NA,NA,NA,NA,NA,NA,NA,NA,NA,NA,NA,NA,NA,NA,NA,NA,NA,NA,NA,NA,NA,NA,NA,NA,NA,NA,NA,NA,NA,NA,NA,NA,NA,NA,NA,0,1,1,2,1,NA,NA,NA,NA,NA
SUPAMT92404,3WMOAN2SRHWXX4N6M0M1M4EJWLMNVS,DFCD0001-0A78-4DB6-9FAD-C068696600D6,2023-09-28_12h47.56.060,WP_VExplicitOC_LH,2022.2.5,Win32,7.353535948,NA,NA,2.0099,NA,NA,NA,NA,NA,frustrated,"frustrated, not frustrated","more frustrated, less frustrated",NA,NA,NA,NA,NA,NA,NA,NA,NA,NA,NA,NA,NA,NA,NA,NA,NA,NA,NA,NA,NA,NA,NA,NA,NA,NA,NA,NA,NA,NA,NA,NA,NA,NA,NA,NA,NA,NA,0,2,2,1,1,NA,NA,NA,NA,NA
SUPAMT92404,3WMOAN2SRHWXX4N6M0M1M4EJWLMNVS,DFCD0001-0A78-4DB6-9FAD-C068696600D6,2023-09-28_12h47.56.060,WP_VExplicitOC_LH,2022.2.5,Win32,7.353535948,NA,NA,NA,NA,NA,NA,NA,NA,NA,NA,NA,NA,NA,NA,NA,NA,NA,NA,NA,NA,NA,NA,NA,NA,NA,NA,NA,NA,NA,NA,NA,NA,NA,NA,NA,NA,NA,NA,NA,NA,NA,NA,NA,NA,NA,NA,NA,NA,NA,NA,NA,NA,NA,NA,14,0,14,0,1
SUPAMT92404,3WMOAN2SRHWXX4N6M0M1M4EJWLMNVS,DFCD0001-0A78-4DB6-9FAD-C068696600D6,2023-09-28_12h47.56.060,WP_VExplicitOC_LH,2022.2.5,Win32,7.353535948,NA,NA,NA,NA,NA,NA,NA,NA,NA,NA,NA,NA,NA,NA,NA,NA,NA,NA,NA,NA,NA,NA,NA,NA,NA,NA,NA,NA,NA,NA,NA,NA,NA,NA,NA,NA,NA,NA,NA,NA,NA,NA,NA,NA,NA,NA,NA,NA,NA,NA,NA,NA,NA,NA,NA,NA,NA,NA,NA
