participant,session,completion,date,expName,psychopyVersion,OS,frameRate,rating_all.response,rating_all.rt,rating_all.tStart,rndRat1.thisRepN,rndRat1.thisTrialN,rndRat1.thisN,rndRat1.thisIndex,rndRat1.ran,Emo,Labs,Labs2,rating_alt.response,rating_alt.rt,AltC.thisRepN,AltC.thisTrialN,AltC.thisN,AltC.thisIndex,AltC.ran,alt_choices,pic_choices,TopAlt_Choice,rndRat2.thisRepN,rndRat2.thisTrialN,rndRat2.thisN,rndRat2.thisIndex,rndRat2.ran,rndRat3.thisRepN,rndRat3.thisTrialN,rndRat3.thisN,rndRat3.thisIndex,rndRat3.ran,trials_FC_H.thisRepN,trials_FC_H.thisTrialN,trials_FC_H.thisN,trials_FC_H.thisIndex,trials_FC_H.ran,rating_alt_2.response,rating_alt_2.rt,AltC2.thisRepN,AltC2.thisTrialN,AltC2.thisN,AltC2.thisIndex,AltC2.ran,BottomAlt_Choice,rndRat4.thisRepN,rndRat4.thisTrialN,rndRat4.thisN,rndRat4.thisIndex,rndRat4.ran,rndRat5.thisRepN,rndRat5.thisTrialN,rndRat5.thisN,rndRat5.thisIndex,rndRat5.ran,trials_FC_L.thisRepN,trials_FC_L.thisTrialN,trials_FC_L.thisN,trials_FC_L.thisIndex,trials_FC_L.ran
SUPAMT45944,3I7DHKZYGTZ4BIVAILLBA1BBH6ZF57,F13C6F2B-1B34-4EC4-9F59-B6417DC8E25C,2023-09-28_12h55.29.640,WP_VExplicitOC_HL,2022.2.5,Win32,16.13710081,NA,NA,NA,NA,NA,NA,NA,NA,NA,NA,NA,NA,NA,NA,NA,NA,NA,NA,NA,NA,NA,NA,NA,NA,NA,NA,NA,NA,NA,NA,NA,NA,NA,NA,NA,NA,NA,NA,NA,NA,NA,NA,NA,NA,NA,NA,NA,NA,NA,NA,NA,NA,NA,NA,NA,NA,NA,NA,NA
SUPAMT45944,3I7DHKZYGTZ4BIVAILLBA1BBH6ZF57,F13C6F2B-1B34-4EC4-9F59-B6417DC8E25C,2023-09-28_12h55.29.640,WP_VExplicitOC_HL,2022.2.5,Win32,16.13710081,NA,NA,NA,NA,NA,NA,NA,NA,NA,NA,NA,NA,NA,NA,NA,NA,NA,NA,NA,NA,NA,NA,NA,NA,NA,NA,NA,NA,NA,NA,NA,NA,NA,NA,NA,NA,NA,NA,NA,NA,NA,NA,NA,NA,NA,NA,NA,NA,NA,NA,NA,NA,NA,NA,NA,NA,NA,NA,NA
SUPAMT45944,3I7DHKZYGTZ4BIVAILLBA1BBH6ZF57,F13C6F2B-1B34-4EC4-9F59-B6417DC8E25C,2023-09-28_12h55.29.640,WP_VExplicitOC_HL,2022.2.5,Win32,16.13710081,NA,NA,NA,NA,NA,NA,NA,NA,NA,NA,NA,NA,NA,NA,NA,NA,NA,NA,NA,NA,NA,NA,NA,NA,NA,NA,NA,NA,NA,NA,NA,NA,NA,NA,NA,NA,NA,NA,NA,NA,NA,NA,NA,NA,NA,NA,NA,NA,NA,NA,NA,NA,NA,NA,NA,NA,NA,NA,NA
SUPAMT45944,3I7DHKZYGTZ4BIVAILLBA1BBH6ZF57,F13C6F2B-1B34-4EC4-9F59-B6417DC8E25C,2023-09-28_12h55.29.640,WP_VExplicitOC_HL,2022.2.5,Win32,16.13710081,55.46875,4.5563,2.0669,0,0,0,0,1,happy,"unhappy, happy","less happy, more happy",NA,NA,NA,NA,NA,NA,NA,NA,NA,NA,NA,NA,NA,NA,NA,NA,NA,NA,NA,NA,NA,NA,NA,NA,NA,NA,NA,NA,NA,NA,NA,NA,NA,NA,NA,NA,NA,NA,NA,NA,NA,NA,NA,NA,NA,NA,NA,NA
SUPAMT45944,3I7DHKZYGTZ4BIVAILLBA1BBH6ZF57,F13C6F2B-1B34-4EC4-9F59-B6417DC8E25C,2023-09-28_12h55.29.640,WP_VExplicitOC_HL,2022.2.5,Win32,16.13710081,-68.75,6.7924,2.0436,0,1,1,1,1,frustrated,"frustrated, not frustrated","more frustrated, less frustrated",NA,NA,NA,NA,NA,NA,NA,NA,NA,NA,NA,NA,NA,NA,NA,NA,NA,NA,NA,NA,NA,NA,NA,NA,NA,NA,NA,NA,NA,NA,NA,NA,NA,NA,NA,NA,NA,NA,NA,NA,NA,NA,NA,NA,NA,NA,NA,NA
SUPAMT45944,3I7DHKZYGTZ4BIVAILLBA1BBH6ZF57,F13C6F2B-1B34-4EC4-9F59-B6417DC8E25C,2023-09-28_12h55.29.640,WP_VExplicitOC_HL,2022.2.5,Win32,16.13710081,-67.96875,4.7371,2.0574,0,2,2,2,1,bored,"bored, not bored","more bored, less bored",NA,NA,NA,NA,NA,NA,NA,NA,NA,NA,NA,NA,NA,NA,NA,NA,NA,NA,NA,NA,NA,NA,NA,NA,NA,NA,NA,NA,NA,NA,NA,NA,NA,NA,NA,NA,NA,NA,NA,NA,NA,NA,NA,NA,NA,NA,NA,NA
SUPAMT45944,3I7DHKZYGTZ4BIVAILLBA1BBH6ZF57,F13C6F2B-1B34-4EC4-9F59-B6417DC8E25C,2023-09-28_12h55.29.640,WP_VExplicitOC_HL,2022.2.5,Win32,16.13710081,NA,NA,NA,NA,NA,NA,NA,NA,NA,NA,NA,NA,NA,NA,NA,NA,NA,NA,NA,NA,NA,NA,NA,NA,NA,NA,NA,NA,NA,NA,NA,NA,NA,NA,NA,NA,NA,NA,NA,NA,NA,NA,NA,NA,NA,NA,NA,NA,NA,NA,NA,NA,NA,NA,NA,NA,NA,NA,NA
SUPAMT45944,3I7DHKZYGTZ4BIVAILLBA1BBH6ZF57,F13C6F2B-1B34-4EC4-9F59-B6417DC8E25C,2023-09-28_12h55.29.640,WP_VExplicitOC_HL,2022.2.5,Win32,16.13710081,NA,NA,NA,NA,NA,NA,NA,NA,NA,NA,NA,NA,NA,NA,NA,NA,NA,NA,NA,NA,NA,NA,NA,NA,NA,NA,NA,NA,NA,NA,NA,NA,NA,NA,NA,NA,NA,NA,NA,NA,NA,NA,NA,NA,NA,NA,NA,NA,NA,NA,NA,NA,NA,NA,NA,NA,NA,NA,NA
SUPAMT45944,3I7DHKZYGTZ4BIVAILLBA1BBH6ZF57,F13C6F2B-1B34-4EC4-9F59-B6417DC8E25C,2023-09-28_12h55.29.640,WP_VExplicitOC_HL,2022.2.5,Win32,16.13710081,NA,NA,NA,NA,NA,NA,NA,NA,NA,NA,NA,NA,NA,NA,NA,NA,NA,NA,NA,NA,NA,NA,NA,NA,NA,NA,NA,NA,NA,NA,NA,NA,NA,NA,NA,NA,NA,NA,NA,NA,NA,NA,NA,NA,NA,NA,NA,NA,NA,NA,NA,NA,NA,NA,NA,NA,NA,NA,NA
SUPAMT45944,3I7DHKZYGTZ4BIVAILLBA1BBH6ZF57,F13C6F2B-1B34-4EC4-9F59-B6417DC8E25C,2023-09-28_12h55.29.640,WP_VExplicitOC_HL,2022.2.5,Win32,16.13710081,NA,NA,NA,NA,NA,NA,NA,NA,NA,NA,NA,NA,NA,NA,NA,NA,NA,NA,NA,NA,NA,NA,NA,NA,NA,NA,NA,NA,NA,NA,NA,NA,NA,NA,NA,NA,NA,NA,NA,NA,NA,NA,NA,NA,NA,NA,NA,NA,NA,NA,NA,NA,NA,NA,NA,NA,NA,NA,NA
SUPAMT45944,3I7DHKZYGTZ4BIVAILLBA1BBH6ZF57,F13C6F2B-1B34-4EC4-9F59-B6417DC8E25C,2023-09-28_12h55.29.640,WP_VExplicitOC_HL,2022.2.5,Win32,16.13710081,NA,NA,NA,NA,NA,NA,NA,NA,NA,NA,NA,64.58333333,3.2476,0,0,0,0,1,rest (looking at a fixed cross),001.png,NA,NA,NA,NA,NA,NA,NA,NA,NA,NA,NA,NA,NA,NA,NA,NA,NA,NA,NA,NA,NA,NA,NA,NA,NA,NA,NA,NA,NA,NA,NA,NA,NA,NA,NA,NA,NA,NA,NA
SUPAMT45944,3I7DHKZYGTZ4BIVAILLBA1BBH6ZF57,F13C6F2B-1B34-4EC4-9F59-B6417DC8E25C,2023-09-28_12h55.29.640,WP_VExplicitOC_HL,2022.2.5,Win32,16.13710081,NA,NA,NA,NA,NA,NA,NA,NA,NA,NA,NA,52.34375,3.4269,0,1,1,1,1,stand up,002.png,NA,NA,NA,NA,NA,NA,NA,NA,NA,NA,NA,NA,NA,NA,NA,NA,NA,NA,NA,NA,NA,NA,NA,NA,NA,NA,NA,NA,NA,NA,NA,NA,NA,NA,NA,NA,NA,NA,NA
SUPAMT45944,3I7DHKZYGTZ4BIVAILLBA1BBH6ZF57,F13C6F2B-1B34-4EC4-9F59-B6417DC8E25C,2023-09-28_12h55.29.640,WP_VExplicitOC_HL,2022.2.5,Win32,16.13710081,NA,NA,NA,NA,NA,NA,NA,NA,NA,NA,NA,55.20833333,2.4361,0,2,2,2,1,stretch,003.png,NA,NA,NA,NA,NA,NA,NA,NA,NA,NA,NA,NA,NA,NA,NA,NA,NA,NA,NA,NA,NA,NA,NA,NA,NA,NA,NA,NA,NA,NA,NA,NA,NA,NA,NA,NA,NA,NA,NA
SUPAMT45944,3I7DHKZYGTZ4BIVAILLBA1BBH6ZF57,F13C6F2B-1B34-4EC4-9F59-B6417DC8E25C,2023-09-28_12h55.29.640,WP_VExplicitOC_HL,2022.2.5,Win32,16.13710081,NA,NA,NA,NA,NA,NA,NA,NA,NA,NA,NA,-65.88541667,3.2307,0,3,3,3,1,make a drink,004.png,NA,NA,NA,NA,NA,NA,NA,NA,NA,NA,NA,NA,NA,NA,NA,NA,NA,NA,NA,NA,NA,NA,NA,NA,NA,NA,NA,NA,NA,NA,NA,NA,NA,NA,NA,NA,NA,NA,NA
SUPAMT45944,3I7DHKZYGTZ4BIVAILLBA1BBH6ZF57,F13C6F2B-1B34-4EC4-9F59-B6417DC8E25C,2023-09-28_12h55.29.640,WP_VExplicitOC_HL,2022.2.5,Win32,16.13710081,NA,NA,NA,NA,NA,NA,NA,NA,NA,NA,NA,73.69791667,3.5685,0,4,4,4,1,scroll social media,005.png,NA,NA,NA,NA,NA,NA,NA,NA,NA,NA,NA,NA,NA,NA,NA,NA,NA,NA,NA,NA,NA,NA,NA,NA,NA,NA,NA,NA,NA,NA,NA,NA,NA,NA,NA,NA,NA,NA,NA
SUPAMT45944,3I7DHKZYGTZ4BIVAILLBA1BBH6ZF57,F13C6F2B-1B34-4EC4-9F59-B6417DC8E25C,2023-09-28_12h55.29.640,WP_VExplicitOC_HL,2022.2.5,Win32,16.13710081,NA,NA,NA,NA,NA,NA,NA,NA,NA,NA,NA,73.69791667,3.2944,0,5,5,5,1,listen to music,006.png,NA,NA,NA,NA,NA,NA,NA,NA,NA,NA,NA,NA,NA,NA,NA,NA,NA,NA,NA,NA,NA,NA,NA,NA,NA,NA,NA,NA,NA,NA,NA,NA,NA,NA,NA,NA,NA,NA,NA
SUPAMT45944,3I7DHKZYGTZ4BIVAILLBA1BBH6ZF57,F13C6F2B-1B34-4EC4-9F59-B6417DC8E25C,2023-09-28_12h55.29.640,WP_VExplicitOC_HL,2022.2.5,Win32,16.13710081,NA,NA,NA,NA,NA,NA,NA,NA,NA,NA,NA,57.55208333,3.9299,0,6,6,6,1,daydream,007.png,NA,NA,NA,NA,NA,NA,NA,NA,NA,NA,NA,NA,NA,NA,NA,NA,NA,NA,NA,NA,NA,NA,NA,NA,NA,NA,NA,NA,NA,NA,NA,NA,NA,NA,NA,NA,NA,NA,NA
SUPAMT45944,3I7DHKZYGTZ4BIVAILLBA1BBH6ZF57,F13C6F2B-1B34-4EC4-9F59-B6417DC8E25C,2023-09-28_12h55.29.640,WP_VExplicitOC_HL,2022.2.5,Win32,16.13710081,NA,NA,NA,NA,NA,NA,NA,NA,NA,NA,NA,57.55208333,4.1477,0,7,7,7,1,watch a short animation,008.png,NA,NA,NA,NA,NA,NA,NA,NA,NA,NA,NA,NA,NA,NA,NA,NA,NA,NA,NA,NA,NA,NA,NA,NA,NA,NA,NA,NA,NA,NA,NA,NA,NA,NA,NA,NA,NA,NA,NA
SUPAMT45944,3I7DHKZYGTZ4BIVAILLBA1BBH6ZF57,F13C6F2B-1B34-4EC4-9F59-B6417DC8E25C,2023-09-28_12h55.29.640,WP_VExplicitOC_HL,2022.2.5,Win32,16.13710081,NA,NA,NA,NA,NA,NA,NA,NA,NA,NA,NA,57.55208333,2.9729,0,8,8,8,1,read a novel,009.png,NA,NA,NA,NA,NA,NA,NA,NA,NA,NA,NA,NA,NA,NA,NA,NA,NA,NA,NA,NA,NA,NA,NA,NA,NA,NA,NA,NA,NA,NA,NA,NA,NA,NA,NA,NA,NA,NA,NA
SUPAMT45944,3I7DHKZYGTZ4BIVAILLBA1BBH6ZF57,F13C6F2B-1B34-4EC4-9F59-B6417DC8E25C,2023-09-28_12h55.29.640,WP_VExplicitOC_HL,2022.2.5,Win32,16.13710081,NA,NA,NA,NA,NA,NA,NA,NA,NA,NA,NA,57.55208333,1.8524,0,9,9,9,1,read the news,010.png,NA,NA,NA,NA,NA,NA,NA,NA,NA,NA,NA,NA,NA,NA,NA,NA,NA,NA,NA,NA,NA,NA,NA,NA,NA,NA,NA,NA,NA,NA,NA,NA,NA,NA,NA,NA,NA,NA,NA
SUPAMT45944,3I7DHKZYGTZ4BIVAILLBA1BBH6ZF57,F13C6F2B-1B34-4EC4-9F59-B6417DC8E25C,2023-09-28_12h55.29.640,WP_VExplicitOC_HL,2022.2.5,Win32,16.13710081,NA,NA,NA,NA,NA,NA,NA,NA,NA,NA,NA,NA,NA,NA,NA,NA,NA,NA,NA,NA,NA,NA,NA,NA,NA,NA,NA,NA,NA,NA,NA,NA,NA,NA,NA,NA,NA,NA,NA,NA,NA,NA,NA,NA,NA,NA,NA,NA,NA,NA,NA,NA,NA,NA,NA,NA,NA,NA,NA
SUPAMT45944,3I7DHKZYGTZ4BIVAILLBA1BBH6ZF57,F13C6F2B-1B34-4EC4-9F59-B6417DC8E25C,2023-09-28_12h55.29.640,WP_VExplicitOC_HL,2022.2.5,Win32,16.13710081,NA,NA,NA,NA,NA,NA,NA,NA,NA,NA,NA,NA,NA,NA,NA,NA,NA,NA,NA,NA,scroll social media,NA,NA,NA,NA,NA,NA,NA,NA,NA,NA,NA,NA,NA,NA,NA,NA,NA,NA,NA,NA,NA,NA,NA,NA,NA,NA,NA,NA,NA,NA,NA,NA,NA,NA,NA,NA,NA,NA
SUPAMT45944,3I7DHKZYGTZ4BIVAILLBA1BBH6ZF57,F13C6F2B-1B34-4EC4-9F59-B6417DC8E25C,2023-09-28_12h55.29.640,WP_VExplicitOC_HL,2022.2.5,Win32,16.13710081,60.15625,5.1493,2.0408,NA,NA,NA,NA,NA,bored,"bored, not bored","more bored, less bored",NA,NA,NA,NA,NA,NA,NA,NA,NA,NA,0,0,0,2,1,NA,NA,NA,NA,NA,NA,NA,NA,NA,NA,NA,NA,NA,NA,NA,NA,NA,NA,NA,NA,NA,NA,NA,NA,NA,NA,NA,NA,NA,NA,NA,NA,NA
SUPAMT45944,3I7DHKZYGTZ4BIVAILLBA1BBH6ZF57,F13C6F2B-1B34-4EC4-9F59-B6417DC8E25C,2023-09-28_12h55.29.640,WP_VExplicitOC_HL,2022.2.5,Win32,16.13710081,70.83333333,6.498,2.0485,NA,NA,NA,NA,NA,frustrated,"frustrated, not frustrated","more frustrated, less frustrated",NA,NA,NA,NA,NA,NA,NA,NA,NA,NA,0,1,1,1,1,NA,NA,NA,NA,NA,NA,NA,NA,NA,NA,NA,NA,NA,NA,NA,NA,NA,NA,NA,NA,NA,NA,NA,NA,NA,NA,NA,NA,NA,NA,NA,NA,NA
SUPAMT45944,3I7DHKZYGTZ4BIVAILLBA1BBH6ZF57,F13C6F2B-1B34-4EC4-9F59-B6417DC8E25C,2023-09-28_12h55.29.640,WP_VExplicitOC_HL,2022.2.5,Win32,16.13710081,70.83333333,4.3242,2.0461,NA,NA,NA,NA,NA,happy,"unhappy, happy","less happy, more happy",NA,NA,NA,NA,NA,NA,NA,NA,NA,NA,0,2,2,0,1,NA,NA,NA,NA,NA,NA,NA,NA,NA,NA,NA,NA,NA,NA,NA,NA,NA,NA,NA,NA,NA,NA,NA,NA,NA,NA,NA,NA,NA,NA,NA,NA,NA
SUPAMT45944,3I7DHKZYGTZ4BIVAILLBA1BBH6ZF57,F13C6F2B-1B34-4EC4-9F59-B6417DC8E25C,2023-09-28_12h55.29.640,WP_VExplicitOC_HL,2022.2.5,Win32,16.13710081,NA,NA,NA,NA,NA,NA,NA,NA,NA,NA,NA,NA,NA,NA,NA,NA,NA,NA,NA,NA,NA,NA,NA,NA,NA,NA,NA,NA,NA,NA,NA,NA,NA,NA,NA,NA,NA,NA,NA,NA,NA,NA,NA,NA,NA,NA,NA,NA,NA,NA,NA,NA,NA,NA,NA,NA,NA,NA,NA
SUPAMT45944,3I7DHKZYGTZ4BIVAILLBA1BBH6ZF57,F13C6F2B-1B34-4EC4-9F59-B6417DC8E25C,2023-09-28_12h55.29.640,WP_VExplicitOC_HL,2022.2.5,Win32,16.13710081,NA,NA,NA,NA,NA,NA,NA,NA,NA,NA,NA,NA,NA,NA,NA,NA,NA,NA,NA,NA,NA,NA,NA,NA,NA,NA,NA,NA,NA,NA,NA,NA,NA,NA,NA,NA,NA,NA,NA,NA,NA,NA,NA,NA,NA,NA,NA,NA,NA,NA,NA,NA,NA,NA,NA,NA,NA,NA,NA
SUPAMT45944,3I7DHKZYGTZ4BIVAILLBA1BBH6ZF57,F13C6F2B-1B34-4EC4-9F59-B6417DC8E25C,2023-09-28_12h55.29.640,WP_VExplicitOC_HL,2022.2.5,Win32,16.13710081,63.80208333,5.0304,2.0117,NA,NA,NA,NA,NA,bored,"bored, not bored","more bored, less bored",NA,NA,NA,NA,NA,NA,NA,NA,NA,NA,NA,NA,NA,NA,NA,0,0,0,2,1,NA,NA,NA,NA,NA,NA,NA,NA,NA,NA,NA,NA,NA,NA,NA,NA,NA,NA,NA,NA,NA,NA,NA,NA,NA,NA,NA,NA
SUPAMT45944,3I7DHKZYGTZ4BIVAILLBA1BBH6ZF57,F13C6F2B-1B34-4EC4-9F59-B6417DC8E25C,2023-09-28_12h55.29.640,WP_VExplicitOC_HL,2022.2.5,Win32,16.13710081,69.01041667,4.944,2.0537,NA,NA,NA,NA,NA,frustrated,"frustrated, not frustrated","more frustrated, less frustrated",NA,NA,NA,NA,NA,NA,NA,NA,NA,NA,NA,NA,NA,NA,NA,0,1,1,1,1,NA,NA,NA,NA,NA,NA,NA,NA,NA,NA,NA,NA,NA,NA,NA,NA,NA,NA,NA,NA,NA,NA,NA,NA,NA,NA,NA,NA
SUPAMT45944,3I7DHKZYGTZ4BIVAILLBA1BBH6ZF57,F13C6F2B-1B34-4EC4-9F59-B6417DC8E25C,2023-09-28_12h55.29.640,WP_VExplicitOC_HL,2022.2.5,Win32,16.13710081,68.75,4.412,2.0125,NA,NA,NA,NA,NA,happy,"unhappy, happy","less happy, more happy",NA,NA,NA,NA,NA,NA,NA,NA,NA,NA,NA,NA,NA,NA,NA,0,2,2,0,1,NA,NA,NA,NA,NA,NA,NA,NA,NA,NA,NA,NA,NA,NA,NA,NA,NA,NA,NA,NA,NA,NA,NA,NA,NA,NA,NA,NA
SUPAMT45944,3I7DHKZYGTZ4BIVAILLBA1BBH6ZF57,F13C6F2B-1B34-4EC4-9F59-B6417DC8E25C,2023-09-28_12h55.29.640,WP_VExplicitOC_HL,2022.2.5,Win32,16.13710081,NA,NA,NA,NA,NA,NA,NA,NA,NA,NA,NA,NA,NA,NA,NA,NA,NA,NA,NA,NA,NA,NA,NA,NA,NA,NA,NA,NA,NA,NA,NA,0,0,0,0,1,NA,NA,NA,NA,NA,NA,NA,NA,NA,NA,NA,NA,NA,NA,NA,NA,NA,NA,NA,NA,NA,NA,NA
SUPAMT45944,3I7DHKZYGTZ4BIVAILLBA1BBH6ZF57,F13C6F2B-1B34-4EC4-9F59-B6417DC8E25C,2023-09-28_12h55.29.640,WP_VExplicitOC_HL,2022.2.5,Win32,16.13710081,63.02083333,4.741,2.018,NA,NA,NA,NA,NA,bored,"bored, not bored","more bored, less bored",NA,NA,NA,NA,NA,NA,NA,NA,NA,NA,NA,NA,NA,NA,NA,0,0,0,2,1,NA,NA,NA,NA,NA,NA,NA,NA,NA,NA,NA,NA,NA,NA,NA,NA,NA,NA,NA,NA,NA,NA,NA,NA,NA,NA,NA,NA
SUPAMT45944,3I7DHKZYGTZ4BIVAILLBA1BBH6ZF57,F13C6F2B-1B34-4EC4-9F59-B6417DC8E25C,2023-09-28_12h55.29.640,WP_VExplicitOC_HL,2022.2.5,Win32,16.13710081,84.375,6.5923,2.0471,NA,NA,NA,NA,NA,happy,"unhappy, happy","less happy, more happy",NA,NA,NA,NA,NA,NA,NA,NA,NA,NA,NA,NA,NA,NA,NA,0,1,1,0,1,NA,NA,NA,NA,NA,NA,NA,NA,NA,NA,NA,NA,NA,NA,NA,NA,NA,NA,NA,NA,NA,NA,NA,NA,NA,NA,NA,NA
SUPAMT45944,3I7DHKZYGTZ4BIVAILLBA1BBH6ZF57,F13C6F2B-1B34-4EC4-9F59-B6417DC8E25C,2023-09-28_12h55.29.640,WP_VExplicitOC_HL,2022.2.5,Win32,16.13710081,87.76041667,6.4609,2.0295,NA,NA,NA,NA,NA,frustrated,"frustrated, not frustrated","more frustrated, less frustrated",NA,NA,NA,NA,NA,NA,NA,NA,NA,NA,NA,NA,NA,NA,NA,0,2,2,1,1,NA,NA,NA,NA,NA,NA,NA,NA,NA,NA,NA,NA,NA,NA,NA,NA,NA,NA,NA,NA,NA,NA,NA,NA,NA,NA,NA,NA
SUPAMT45944,3I7DHKZYGTZ4BIVAILLBA1BBH6ZF57,F13C6F2B-1B34-4EC4-9F59-B6417DC8E25C,2023-09-28_12h55.29.640,WP_VExplicitOC_HL,2022.2.5,Win32,16.13710081,NA,NA,NA,NA,NA,NA,NA,NA,NA,NA,NA,NA,NA,NA,NA,NA,NA,NA,NA,NA,NA,NA,NA,NA,NA,NA,NA,NA,NA,NA,NA,1,0,1,0,1,NA,NA,NA,NA,NA,NA,NA,NA,NA,NA,NA,NA,NA,NA,NA,NA,NA,NA,NA,NA,NA,NA,NA
SUPAMT45944,3I7DHKZYGTZ4BIVAILLBA1BBH6ZF57,F13C6F2B-1B34-4EC4-9F59-B6417DC8E25C,2023-09-28_12h55.29.640,WP_VExplicitOC_HL,2022.2.5,Win32,16.13710081,-78.38541667,6.2329,2.0247,NA,NA,NA,NA,NA,bored,"bored, not bored","more bored, less bored",NA,NA,NA,NA,NA,NA,NA,NA,NA,NA,NA,NA,NA,NA,NA,0,0,0,2,1,NA,NA,NA,NA,NA,NA,NA,NA,NA,NA,NA,NA,NA,NA,NA,NA,NA,NA,NA,NA,NA,NA,NA,NA,NA,NA,NA,NA
SUPAMT45944,3I7DHKZYGTZ4BIVAILLBA1BBH6ZF57,F13C6F2B-1B34-4EC4-9F59-B6417DC8E25C,2023-09-28_12h55.29.640,WP_VExplicitOC_HL,2022.2.5,Win32,16.13710081,71.09375,4.8693,2.0379,NA,NA,NA,NA,NA,happy,"unhappy, happy","less happy, more happy",NA,NA,NA,NA,NA,NA,NA,NA,NA,NA,NA,NA,NA,NA,NA,0,1,1,0,1,NA,NA,NA,NA,NA,NA,NA,NA,NA,NA,NA,NA,NA,NA,NA,NA,NA,NA,NA,NA,NA,NA,NA,NA,NA,NA,NA,NA
SUPAMT45944,3I7DHKZYGTZ4BIVAILLBA1BBH6ZF57,F13C6F2B-1B34-4EC4-9F59-B6417DC8E25C,2023-09-28_12h55.29.640,WP_VExplicitOC_HL,2022.2.5,Win32,16.13710081,100,5.3605,2.0727,NA,NA,NA,NA,NA,frustrated,"frustrated, not frustrated","more frustrated, less frustrated",NA,NA,NA,NA,NA,NA,NA,NA,NA,NA,NA,NA,NA,NA,NA,0,2,2,1,1,NA,NA,NA,NA,NA,NA,NA,NA,NA,NA,NA,NA,NA,NA,NA,NA,NA,NA,NA,NA,NA,NA,NA,NA,NA,NA,NA,NA
SUPAMT45944,3I7DHKZYGTZ4BIVAILLBA1BBH6ZF57,F13C6F2B-1B34-4EC4-9F59-B6417DC8E25C,2023-09-28_12h55.29.640,WP_VExplicitOC_HL,2022.2.5,Win32,16.13710081,NA,NA,NA,NA,NA,NA,NA,NA,NA,NA,NA,NA,NA,NA,NA,NA,NA,NA,NA,NA,NA,NA,NA,NA,NA,NA,NA,NA,NA,NA,NA,2,0,2,0,1,NA,NA,NA,NA,NA,NA,NA,NA,NA,NA,NA,NA,NA,NA,NA,NA,NA,NA,NA,NA,NA,NA,NA
SUPAMT45944,3I7DHKZYGTZ4BIVAILLBA1BBH6ZF57,F13C6F2B-1B34-4EC4-9F59-B6417DC8E25C,2023-09-28_12h55.29.640,WP_VExplicitOC_HL,2022.2.5,Win32,16.13710081,-88.02083333,5.2754,2.061,NA,NA,NA,NA,NA,bored,"bored, not bored","more bored, less bored",NA,NA,NA,NA,NA,NA,NA,NA,NA,NA,NA,NA,NA,NA,NA,0,0,0,2,1,NA,NA,NA,NA,NA,NA,NA,NA,NA,NA,NA,NA,NA,NA,NA,NA,NA,NA,NA,NA,NA,NA,NA,NA,NA,NA,NA,NA
SUPAMT45944,3I7DHKZYGTZ4BIVAILLBA1BBH6ZF57,F13C6F2B-1B34-4EC4-9F59-B6417DC8E25C,2023-09-28_12h55.29.640,WP_VExplicitOC_HL,2022.2.5,Win32,16.13710081,-86.19791667,5.7271,2.0493,NA,NA,NA,NA,NA,frustrated,"frustrated, not frustrated","more frustrated, less frustrated",NA,NA,NA,NA,NA,NA,NA,NA,NA,NA,NA,NA,NA,NA,NA,0,1,1,1,1,NA,NA,NA,NA,NA,NA,NA,NA,NA,NA,NA,NA,NA,NA,NA,NA,NA,NA,NA,NA,NA,NA,NA,NA,NA,NA,NA,NA
SUPAMT45944,3I7DHKZYGTZ4BIVAILLBA1BBH6ZF57,F13C6F2B-1B34-4EC4-9F59-B6417DC8E25C,2023-09-28_12h55.29.640,WP_VExplicitOC_HL,2022.2.5,Win32,16.13710081,90.10416667,4.6915,2.0336,NA,NA,NA,NA,NA,happy,"unhappy, happy","less happy, more happy",NA,NA,NA,NA,NA,NA,NA,NA,NA,NA,NA,NA,NA,NA,NA,0,2,2,0,1,NA,NA,NA,NA,NA,NA,NA,NA,NA,NA,NA,NA,NA,NA,NA,NA,NA,NA,NA,NA,NA,NA,NA,NA,NA,NA,NA,NA
SUPAMT45944,3I7DHKZYGTZ4BIVAILLBA1BBH6ZF57,F13C6F2B-1B34-4EC4-9F59-B6417DC8E25C,2023-09-28_12h55.29.640,WP_VExplicitOC_HL,2022.2.5,Win32,16.13710081,NA,NA,NA,NA,NA,NA,NA,NA,NA,NA,NA,NA,NA,NA,NA,NA,NA,NA,NA,NA,NA,NA,NA,NA,NA,NA,NA,NA,NA,NA,NA,3,0,3,0,1,NA,NA,NA,NA,NA,NA,NA,NA,NA,NA,NA,NA,NA,NA,NA,NA,NA,NA,NA,NA,NA,NA,NA
SUPAMT45944,3I7DHKZYGTZ4BIVAILLBA1BBH6ZF57,F13C6F2B-1B34-4EC4-9F59-B6417DC8E25C,2023-09-28_12h55.29.640,WP_VExplicitOC_HL,2022.2.5,Win32,16.13710081,-81.77083333,6.818,2.0111,NA,NA,NA,NA,NA,bored,"bored, not bored","more bored, less bored",NA,NA,NA,NA,NA,NA,NA,NA,NA,NA,NA,NA,NA,NA,NA,0,0,0,2,1,NA,NA,NA,NA,NA,NA,NA,NA,NA,NA,NA,NA,NA,NA,NA,NA,NA,NA,NA,NA,NA,NA,NA,NA,NA,NA,NA,NA
SUPAMT45944,3I7DHKZYGTZ4BIVAILLBA1BBH6ZF57,F13C6F2B-1B34-4EC4-9F59-B6417DC8E25C,2023-09-28_12h55.29.640,WP_VExplicitOC_HL,2022.2.5,Win32,16.13710081,NA,NA,2.056,NA,NA,NA,NA,NA,happy,"unhappy, happy","less happy, more happy",NA,NA,NA,NA,NA,NA,NA,NA,NA,NA,NA,NA,NA,NA,NA,0,1,1,0,1,NA,NA,NA,NA,NA,NA,NA,NA,NA,NA,NA,NA,NA,NA,NA,NA,NA,NA,NA,NA,NA,NA,NA,NA,NA,NA,NA,NA
SUPAMT45944,3I7DHKZYGTZ4BIVAILLBA1BBH6ZF57,F13C6F2B-1B34-4EC4-9F59-B6417DC8E25C,2023-09-28_12h55.29.640,WP_VExplicitOC_HL,2022.2.5,Win32,16.13710081,NA,NA,2.0033,NA,NA,NA,NA,NA,frustrated,"frustrated, not frustrated","more frustrated, less frustrated",NA,NA,NA,NA,NA,NA,NA,NA,NA,NA,NA,NA,NA,NA,NA,0,2,2,1,1,NA,NA,NA,NA,NA,NA,NA,NA,NA,NA,NA,NA,NA,NA,NA,NA,NA,NA,NA,NA,NA,NA,NA,NA,NA,NA,NA,NA
SUPAMT45944,3I7DHKZYGTZ4BIVAILLBA1BBH6ZF57,F13C6F2B-1B34-4EC4-9F59-B6417DC8E25C,2023-09-28_12h55.29.640,WP_VExplicitOC_HL,2022.2.5,Win32,16.13710081,NA,NA,NA,NA,NA,NA,NA,NA,NA,NA,NA,NA,NA,NA,NA,NA,NA,NA,NA,NA,NA,NA,NA,NA,NA,NA,NA,NA,NA,NA,NA,4,0,4,0,1,NA,NA,NA,NA,NA,NA,NA,NA,NA,NA,NA,NA,NA,NA,NA,NA,NA,NA,NA,NA,NA,NA,NA
SUPAMT45944,3I7DHKZYGTZ4BIVAILLBA1BBH6ZF57,F13C6F2B-1B34-4EC4-9F59-B6417DC8E25C,2023-09-28_12h55.29.640,WP_VExplicitOC_HL,2022.2.5,Win32,16.13710081,90.36458333,5.2252,2.0513,NA,NA,NA,NA,NA,happy,"unhappy, happy","less happy, more happy",NA,NA,NA,NA,NA,NA,NA,NA,NA,NA,NA,NA,NA,NA,NA,0,0,0,0,1,NA,NA,NA,NA,NA,NA,NA,NA,NA,NA,NA,NA,NA,NA,NA,NA,NA,NA,NA,NA,NA,NA,NA,NA,NA,NA,NA,NA
SUPAMT45944,3I7DHKZYGTZ4BIVAILLBA1BBH6ZF57,F13C6F2B-1B34-4EC4-9F59-B6417DC8E25C,2023-09-28_12h55.29.640,WP_VExplicitOC_HL,2022.2.5,Win32,16.13710081,-89.58333333,6.7419,2.0338,NA,NA,NA,NA,NA,bored,"bored, not bored","more bored, less bored",NA,NA,NA,NA,NA,NA,NA,NA,NA,NA,NA,NA,NA,NA,NA,0,1,1,2,1,NA,NA,NA,NA,NA,NA,NA,NA,NA,NA,NA,NA,NA,NA,NA,NA,NA,NA,NA,NA,NA,NA,NA,NA,NA,NA,NA,NA
SUPAMT45944,3I7DHKZYGTZ4BIVAILLBA1BBH6ZF57,F13C6F2B-1B34-4EC4-9F59-B6417DC8E25C,2023-09-28_12h55.29.640,WP_VExplicitOC_HL,2022.2.5,Win32,16.13710081,-90.10416667,6.1456,2.0449,NA,NA,NA,NA,NA,frustrated,"frustrated, not frustrated","more frustrated, less frustrated",NA,NA,NA,NA,NA,NA,NA,NA,NA,NA,NA,NA,NA,NA,NA,0,2,2,1,1,NA,NA,NA,NA,NA,NA,NA,NA,NA,NA,NA,NA,NA,NA,NA,NA,NA,NA,NA,NA,NA,NA,NA,NA,NA,NA,NA,NA
SUPAMT45944,3I7DHKZYGTZ4BIVAILLBA1BBH6ZF57,F13C6F2B-1B34-4EC4-9F59-B6417DC8E25C,2023-09-28_12h55.29.640,WP_VExplicitOC_HL,2022.2.5,Win32,16.13710081,NA,NA,NA,NA,NA,NA,NA,NA,NA,NA,NA,NA,NA,NA,NA,NA,NA,NA,NA,NA,NA,NA,NA,NA,NA,NA,NA,NA,NA,NA,NA,5,0,5,0,1,NA,NA,NA,NA,NA,NA,NA,NA,NA,NA,NA,NA,NA,NA,NA,NA,NA,NA,NA,NA,NA,NA,NA
SUPAMT45944,3I7DHKZYGTZ4BIVAILLBA1BBH6ZF57,F13C6F2B-1B34-4EC4-9F59-B6417DC8E25C,2023-09-28_12h55.29.640,WP_VExplicitOC_HL,2022.2.5,Win32,16.13710081,NA,NA,2.0721,NA,NA,NA,NA,NA,bored,"bored, not bored","more bored, less bored",NA,NA,NA,NA,NA,NA,NA,NA,NA,NA,NA,NA,NA,NA,NA,0,0,0,2,1,NA,NA,NA,NA,NA,NA,NA,NA,NA,NA,NA,NA,NA,NA,NA,NA,NA,NA,NA,NA,NA,NA,NA,NA,NA,NA,NA,NA
SUPAMT45944,3I7DHKZYGTZ4BIVAILLBA1BBH6ZF57,F13C6F2B-1B34-4EC4-9F59-B6417DC8E25C,2023-09-28_12h55.29.640,WP_VExplicitOC_HL,2022.2.5,Win32,16.13710081,75.78125,3.8006,2.0282,NA,NA,NA,NA,NA,happy,"unhappy, happy","less happy, more happy",NA,NA,NA,NA,NA,NA,NA,NA,NA,NA,NA,NA,NA,NA,NA,0,1,1,0,1,NA,NA,NA,NA,NA,NA,NA,NA,NA,NA,NA,NA,NA,NA,NA,NA,NA,NA,NA,NA,NA,NA,NA,NA,NA,NA,NA,NA
SUPAMT45944,3I7DHKZYGTZ4BIVAILLBA1BBH6ZF57,F13C6F2B-1B34-4EC4-9F59-B6417DC8E25C,2023-09-28_12h55.29.640,WP_VExplicitOC_HL,2022.2.5,Win32,16.13710081,86.19791667,5.1706,2.0312,NA,NA,NA,NA,NA,frustrated,"frustrated, not frustrated","more frustrated, less frustrated",NA,NA,NA,NA,NA,NA,NA,NA,NA,NA,NA,NA,NA,NA,NA,0,2,2,1,1,NA,NA,NA,NA,NA,NA,NA,NA,NA,NA,NA,NA,NA,NA,NA,NA,NA,NA,NA,NA,NA,NA,NA,NA,NA,NA,NA,NA
SUPAMT45944,3I7DHKZYGTZ4BIVAILLBA1BBH6ZF57,F13C6F2B-1B34-4EC4-9F59-B6417DC8E25C,2023-09-28_12h55.29.640,WP_VExplicitOC_HL,2022.2.5,Win32,16.13710081,NA,NA,NA,NA,NA,NA,NA,NA,NA,NA,NA,NA,NA,NA,NA,NA,NA,NA,NA,NA,NA,NA,NA,NA,NA,NA,NA,NA,NA,NA,NA,6,0,6,0,1,NA,NA,NA,NA,NA,NA,NA,NA,NA,NA,NA,NA,NA,NA,NA,NA,NA,NA,NA,NA,NA,NA,NA
SUPAMT45944,3I7DHKZYGTZ4BIVAILLBA1BBH6ZF57,F13C6F2B-1B34-4EC4-9F59-B6417DC8E25C,2023-09-28_12h55.29.640,WP_VExplicitOC_HL,2022.2.5,Win32,16.13710081,-84.375,4.1291,2.0516,NA,NA,NA,NA,NA,frustrated,"frustrated, not frustrated","more frustrated, less frustrated",NA,NA,NA,NA,NA,NA,NA,NA,NA,NA,NA,NA,NA,NA,NA,0,0,0,1,1,NA,NA,NA,NA,NA,NA,NA,NA,NA,NA,NA,NA,NA,NA,NA,NA,NA,NA,NA,NA,NA,NA,NA,NA,NA,NA,NA,NA
SUPAMT45944,3I7DHKZYGTZ4BIVAILLBA1BBH6ZF57,F13C6F2B-1B34-4EC4-9F59-B6417DC8E25C,2023-09-28_12h55.29.640,WP_VExplicitOC_HL,2022.2.5,Win32,16.13710081,84.11458333,4.7582,2.0284,NA,NA,NA,NA,NA,bored,"bored, not bored","more bored, less bored",NA,NA,NA,NA,NA,NA,NA,NA,NA,NA,NA,NA,NA,NA,NA,0,1,1,2,1,NA,NA,NA,NA,NA,NA,NA,NA,NA,NA,NA,NA,NA,NA,NA,NA,NA,NA,NA,NA,NA,NA,NA,NA,NA,NA,NA,NA
SUPAMT45944,3I7DHKZYGTZ4BIVAILLBA1BBH6ZF57,F13C6F2B-1B34-4EC4-9F59-B6417DC8E25C,2023-09-28_12h55.29.640,WP_VExplicitOC_HL,2022.2.5,Win32,16.13710081,91.14583333,5.2644,2.0573,NA,NA,NA,NA,NA,happy,"unhappy, happy","less happy, more happy",NA,NA,NA,NA,NA,NA,NA,NA,NA,NA,NA,NA,NA,NA,NA,0,2,2,0,1,NA,NA,NA,NA,NA,NA,NA,NA,NA,NA,NA,NA,NA,NA,NA,NA,NA,NA,NA,NA,NA,NA,NA,NA,NA,NA,NA,NA
SUPAMT45944,3I7DHKZYGTZ4BIVAILLBA1BBH6ZF57,F13C6F2B-1B34-4EC4-9F59-B6417DC8E25C,2023-09-28_12h55.29.640,WP_VExplicitOC_HL,2022.2.5,Win32,16.13710081,NA,NA,NA,NA,NA,NA,NA,NA,NA,NA,NA,NA,NA,NA,NA,NA,NA,NA,NA,NA,NA,NA,NA,NA,NA,NA,NA,NA,NA,NA,NA,7,0,7,0,1,NA,NA,NA,NA,NA,NA,NA,NA,NA,NA,NA,NA,NA,NA,NA,NA,NA,NA,NA,NA,NA,NA,NA
SUPAMT45944,3I7DHKZYGTZ4BIVAILLBA1BBH6ZF57,F13C6F2B-1B34-4EC4-9F59-B6417DC8E25C,2023-09-28_12h55.29.640,WP_VExplicitOC_HL,2022.2.5,Win32,16.13710081,77.86458333,6.9829,2.08,NA,NA,NA,NA,NA,frustrated,"frustrated, not frustrated","more frustrated, less frustrated",NA,NA,NA,NA,NA,NA,NA,NA,NA,NA,NA,NA,NA,NA,NA,0,0,0,1,1,NA,NA,NA,NA,NA,NA,NA,NA,NA,NA,NA,NA,NA,NA,NA,NA,NA,NA,NA,NA,NA,NA,NA,NA,NA,NA,NA,NA
SUPAMT45944,3I7DHKZYGTZ4BIVAILLBA1BBH6ZF57,F13C6F2B-1B34-4EC4-9F59-B6417DC8E25C,2023-09-28_12h55.29.640,WP_VExplicitOC_HL,2022.2.5,Win32,16.13710081,87.23958333,4.4399,2.0463,NA,NA,NA,NA,NA,happy,"unhappy, happy","less happy, more happy",NA,NA,NA,NA,NA,NA,NA,NA,NA,NA,NA,NA,NA,NA,NA,0,1,1,0,1,NA,NA,NA,NA,NA,NA,NA,NA,NA,NA,NA,NA,NA,NA,NA,NA,NA,NA,NA,NA,NA,NA,NA,NA,NA,NA,NA,NA
SUPAMT45944,3I7DHKZYGTZ4BIVAILLBA1BBH6ZF57,F13C6F2B-1B34-4EC4-9F59-B6417DC8E25C,2023-09-28_12h55.29.640,WP_VExplicitOC_HL,2022.2.5,Win32,16.13710081,90.10416667,4.6549,2.0554,NA,NA,NA,NA,NA,bored,"bored, not bored","more bored, less bored",NA,NA,NA,NA,NA,NA,NA,NA,NA,NA,NA,NA,NA,NA,NA,0,2,2,2,1,NA,NA,NA,NA,NA,NA,NA,NA,NA,NA,NA,NA,NA,NA,NA,NA,NA,NA,NA,NA,NA,NA,NA,NA,NA,NA,NA,NA
SUPAMT45944,3I7DHKZYGTZ4BIVAILLBA1BBH6ZF57,F13C6F2B-1B34-4EC4-9F59-B6417DC8E25C,2023-09-28_12h55.29.640,WP_VExplicitOC_HL,2022.2.5,Win32,16.13710081,NA,NA,NA,NA,NA,NA,NA,NA,NA,NA,NA,NA,NA,NA,NA,NA,NA,NA,NA,NA,NA,NA,NA,NA,NA,NA,NA,NA,NA,NA,NA,8,0,8,0,1,NA,NA,NA,NA,NA,NA,NA,NA,NA,NA,NA,NA,NA,NA,NA,NA,NA,NA,NA,NA,NA,NA,NA
SUPAMT45944,3I7DHKZYGTZ4BIVAILLBA1BBH6ZF57,F13C6F2B-1B34-4EC4-9F59-B6417DC8E25C,2023-09-28_12h55.29.640,WP_VExplicitOC_HL,2022.2.5,Win32,16.13710081,-91.14583333,4.306,2.0369,NA,NA,NA,NA,NA,frustrated,"frustrated, not frustrated","more frustrated, less frustrated",NA,NA,NA,NA,NA,NA,NA,NA,NA,NA,NA,NA,NA,NA,NA,0,0,0,1,1,NA,NA,NA,NA,NA,NA,NA,NA,NA,NA,NA,NA,NA,NA,NA,NA,NA,NA,NA,NA,NA,NA,NA,NA,NA,NA,NA,NA
SUPAMT45944,3I7DHKZYGTZ4BIVAILLBA1BBH6ZF57,F13C6F2B-1B34-4EC4-9F59-B6417DC8E25C,2023-09-28_12h55.29.640,WP_VExplicitOC_HL,2022.2.5,Win32,16.13710081,85.67708333,5.0583,2.0437,NA,NA,NA,NA,NA,bored,"bored, not bored","more bored, less bored",NA,NA,NA,NA,NA,NA,NA,NA,NA,NA,NA,NA,NA,NA,NA,0,1,1,2,1,NA,NA,NA,NA,NA,NA,NA,NA,NA,NA,NA,NA,NA,NA,NA,NA,NA,NA,NA,NA,NA,NA,NA,NA,NA,NA,NA,NA
SUPAMT45944,3I7DHKZYGTZ4BIVAILLBA1BBH6ZF57,F13C6F2B-1B34-4EC4-9F59-B6417DC8E25C,2023-09-28_12h55.29.640,WP_VExplicitOC_HL,2022.2.5,Win32,16.13710081,93.75,5.0519,2.0029,NA,NA,NA,NA,NA,happy,"unhappy, happy","less happy, more happy",NA,NA,NA,NA,NA,NA,NA,NA,NA,NA,NA,NA,NA,NA,NA,0,2,2,0,1,NA,NA,NA,NA,NA,NA,NA,NA,NA,NA,NA,NA,NA,NA,NA,NA,NA,NA,NA,NA,NA,NA,NA,NA,NA,NA,NA,NA
SUPAMT45944,3I7DHKZYGTZ4BIVAILLBA1BBH6ZF57,F13C6F2B-1B34-4EC4-9F59-B6417DC8E25C,2023-09-28_12h55.29.640,WP_VExplicitOC_HL,2022.2.5,Win32,16.13710081,NA,NA,NA,NA,NA,NA,NA,NA,NA,NA,NA,NA,NA,NA,NA,NA,NA,NA,NA,NA,NA,NA,NA,NA,NA,NA,NA,NA,NA,NA,NA,9,0,9,0,1,NA,NA,NA,NA,NA,NA,NA,NA,NA,NA,NA,NA,NA,NA,NA,NA,NA,NA,NA,NA,NA,NA,NA
SUPAMT45944,3I7DHKZYGTZ4BIVAILLBA1BBH6ZF57,F13C6F2B-1B34-4EC4-9F59-B6417DC8E25C,2023-09-28_12h55.29.640,WP_VExplicitOC_HL,2022.2.5,Win32,16.13710081,64.0625,5.5138,2.0949,NA,NA,NA,NA,NA,frustrated,"frustrated, not frustrated","more frustrated, less frustrated",NA,NA,NA,NA,NA,NA,NA,NA,NA,NA,NA,NA,NA,NA,NA,0,0,0,1,1,NA,NA,NA,NA,NA,NA,NA,NA,NA,NA,NA,NA,NA,NA,NA,NA,NA,NA,NA,NA,NA,NA,NA,NA,NA,NA,NA,NA
SUPAMT45944,3I7DHKZYGTZ4BIVAILLBA1BBH6ZF57,F13C6F2B-1B34-4EC4-9F59-B6417DC8E25C,2023-09-28_12h55.29.640,WP_VExplicitOC_HL,2022.2.5,Win32,16.13710081,78.90625,4.5742,2.0155,NA,NA,NA,NA,NA,bored,"bored, not bored","more bored, less bored",NA,NA,NA,NA,NA,NA,NA,NA,NA,NA,NA,NA,NA,NA,NA,0,1,1,2,1,NA,NA,NA,NA,NA,NA,NA,NA,NA,NA,NA,NA,NA,NA,NA,NA,NA,NA,NA,NA,NA,NA,NA,NA,NA,NA,NA,NA
SUPAMT45944,3I7DHKZYGTZ4BIVAILLBA1BBH6ZF57,F13C6F2B-1B34-4EC4-9F59-B6417DC8E25C,2023-09-28_12h55.29.640,WP_VExplicitOC_HL,2022.2.5,Win32,16.13710081,97.13541667,4.7047,2.0534,NA,NA,NA,NA,NA,happy,"unhappy, happy","less happy, more happy",NA,NA,NA,NA,NA,NA,NA,NA,NA,NA,NA,NA,NA,NA,NA,0,2,2,0,1,NA,NA,NA,NA,NA,NA,NA,NA,NA,NA,NA,NA,NA,NA,NA,NA,NA,NA,NA,NA,NA,NA,NA,NA,NA,NA,NA,NA
SUPAMT45944,3I7DHKZYGTZ4BIVAILLBA1BBH6ZF57,F13C6F2B-1B34-4EC4-9F59-B6417DC8E25C,2023-09-28_12h55.29.640,WP_VExplicitOC_HL,2022.2.5,Win32,16.13710081,NA,NA,NA,NA,NA,NA,NA,NA,NA,NA,NA,NA,NA,NA,NA,NA,NA,NA,NA,NA,NA,NA,NA,NA,NA,NA,NA,NA,NA,NA,NA,10,0,10,0,1,NA,NA,NA,NA,NA,NA,NA,NA,NA,NA,NA,NA,NA,NA,NA,NA,NA,NA,NA,NA,NA,NA,NA
SUPAMT45944,3I7DHKZYGTZ4BIVAILLBA1BBH6ZF57,F13C6F2B-1B34-4EC4-9F59-B6417DC8E25C,2023-09-28_12h55.29.640,WP_VExplicitOC_HL,2022.2.5,Win32,16.13710081,-98.4375,4.9739,2.0409,NA,NA,NA,NA,NA,bored,"bored, not bored","more bored, less bored",NA,NA,NA,NA,NA,NA,NA,NA,NA,NA,NA,NA,NA,NA,NA,0,0,0,2,1,NA,NA,NA,NA,NA,NA,NA,NA,NA,NA,NA,NA,NA,NA,NA,NA,NA,NA,NA,NA,NA,NA,NA,NA,NA,NA,NA,NA
SUPAMT45944,3I7DHKZYGTZ4BIVAILLBA1BBH6ZF57,F13C6F2B-1B34-4EC4-9F59-B6417DC8E25C,2023-09-28_12h55.29.640,WP_VExplicitOC_HL,2022.2.5,Win32,16.13710081,-92.96875,5.7224,2.0246,NA,NA,NA,NA,NA,frustrated,"frustrated, not frustrated","more frustrated, less frustrated",NA,NA,NA,NA,NA,NA,NA,NA,NA,NA,NA,NA,NA,NA,NA,0,1,1,1,1,NA,NA,NA,NA,NA,NA,NA,NA,NA,NA,NA,NA,NA,NA,NA,NA,NA,NA,NA,NA,NA,NA,NA,NA,NA,NA,NA,NA
SUPAMT45944,3I7DHKZYGTZ4BIVAILLBA1BBH6ZF57,F13C6F2B-1B34-4EC4-9F59-B6417DC8E25C,2023-09-28_12h55.29.640,WP_VExplicitOC_HL,2022.2.5,Win32,16.13710081,96.09375,4.698,2.0493,NA,NA,NA,NA,NA,happy,"unhappy, happy","less happy, more happy",NA,NA,NA,NA,NA,NA,NA,NA,NA,NA,NA,NA,NA,NA,NA,0,2,2,0,1,NA,NA,NA,NA,NA,NA,NA,NA,NA,NA,NA,NA,NA,NA,NA,NA,NA,NA,NA,NA,NA,NA,NA,NA,NA,NA,NA,NA
SUPAMT45944,3I7DHKZYGTZ4BIVAILLBA1BBH6ZF57,F13C6F2B-1B34-4EC4-9F59-B6417DC8E25C,2023-09-28_12h55.29.640,WP_VExplicitOC_HL,2022.2.5,Win32,16.13710081,NA,NA,NA,NA,NA,NA,NA,NA,NA,NA,NA,NA,NA,NA,NA,NA,NA,NA,NA,NA,NA,NA,NA,NA,NA,NA,NA,NA,NA,NA,NA,11,0,11,0,1,NA,NA,NA,NA,NA,NA,NA,NA,NA,NA,NA,NA,NA,NA,NA,NA,NA,NA,NA,NA,NA,NA,NA
SUPAMT45944,3I7DHKZYGTZ4BIVAILLBA1BBH6ZF57,F13C6F2B-1B34-4EC4-9F59-B6417DC8E25C,2023-09-28_12h55.29.640,WP_VExplicitOC_HL,2022.2.5,Win32,16.13710081,89.32291667,4.7138,2.0668,NA,NA,NA,NA,NA,frustrated,"frustrated, not frustrated","more frustrated, less frustrated",NA,NA,NA,NA,NA,NA,NA,NA,NA,NA,NA,NA,NA,NA,NA,0,0,0,1,1,NA,NA,NA,NA,NA,NA,NA,NA,NA,NA,NA,NA,NA,NA,NA,NA,NA,NA,NA,NA,NA,NA,NA,NA,NA,NA,NA,NA
SUPAMT45944,3I7DHKZYGTZ4BIVAILLBA1BBH6ZF57,F13C6F2B-1B34-4EC4-9F59-B6417DC8E25C,2023-09-28_12h55.29.640,WP_VExplicitOC_HL,2022.2.5,Win32,16.13710081,94.01041667,4.6565,2.0676,NA,NA,NA,NA,NA,bored,"bored, not bored","more bored, less bored",NA,NA,NA,NA,NA,NA,NA,NA,NA,NA,NA,NA,NA,NA,NA,0,1,1,2,1,NA,NA,NA,NA,NA,NA,NA,NA,NA,NA,NA,NA,NA,NA,NA,NA,NA,NA,NA,NA,NA,NA,NA,NA,NA,NA,NA,NA
SUPAMT45944,3I7DHKZYGTZ4BIVAILLBA1BBH6ZF57,F13C6F2B-1B34-4EC4-9F59-B6417DC8E25C,2023-09-28_12h55.29.640,WP_VExplicitOC_HL,2022.2.5,Win32,16.13710081,95.05208333,4.3164,2.0571,NA,NA,NA,NA,NA,happy,"unhappy, happy","less happy, more happy",NA,NA,NA,NA,NA,NA,NA,NA,NA,NA,NA,NA,NA,NA,NA,0,2,2,0,1,NA,NA,NA,NA,NA,NA,NA,NA,NA,NA,NA,NA,NA,NA,NA,NA,NA,NA,NA,NA,NA,NA,NA,NA,NA,NA,NA,NA
SUPAMT45944,3I7DHKZYGTZ4BIVAILLBA1BBH6ZF57,F13C6F2B-1B34-4EC4-9F59-B6417DC8E25C,2023-09-28_12h55.29.640,WP_VExplicitOC_HL,2022.2.5,Win32,16.13710081,NA,NA,NA,NA,NA,NA,NA,NA,NA,NA,NA,NA,NA,NA,NA,NA,NA,NA,NA,NA,NA,NA,NA,NA,NA,NA,NA,NA,NA,NA,NA,12,0,12,0,1,NA,NA,NA,NA,NA,NA,NA,NA,NA,NA,NA,NA,NA,NA,NA,NA,NA,NA,NA,NA,NA,NA,NA
SUPAMT45944,3I7DHKZYGTZ4BIVAILLBA1BBH6ZF57,F13C6F2B-1B34-4EC4-9F59-B6417DC8E25C,2023-09-28_12h55.29.640,WP_VExplicitOC_HL,2022.2.5,Win32,16.13710081,NA,NA,2.0085,NA,NA,NA,NA,NA,happy,"unhappy, happy","less happy, more happy",NA,NA,NA,NA,NA,NA,NA,NA,NA,NA,NA,NA,NA,NA,NA,0,0,0,0,1,NA,NA,NA,NA,NA,NA,NA,NA,NA,NA,NA,NA,NA,NA,NA,NA,NA,NA,NA,NA,NA,NA,NA,NA,NA,NA,NA,NA
SUPAMT45944,3I7DHKZYGTZ4BIVAILLBA1BBH6ZF57,F13C6F2B-1B34-4EC4-9F59-B6417DC8E25C,2023-09-28_12h55.29.640,WP_VExplicitOC_HL,2022.2.5,Win32,16.13710081,85.41666667,5.1189,2.0668,NA,NA,NA,NA,NA,frustrated,"frustrated, not frustrated","more frustrated, less frustrated",NA,NA,NA,NA,NA,NA,NA,NA,NA,NA,NA,NA,NA,NA,NA,0,1,1,1,1,NA,NA,NA,NA,NA,NA,NA,NA,NA,NA,NA,NA,NA,NA,NA,NA,NA,NA,NA,NA,NA,NA,NA,NA,NA,NA,NA,NA
SUPAMT45944,3I7DHKZYGTZ4BIVAILLBA1BBH6ZF57,F13C6F2B-1B34-4EC4-9F59-B6417DC8E25C,2023-09-28_12h55.29.640,WP_VExplicitOC_HL,2022.2.5,Win32,16.13710081,94.27083333,4.8052,2.0441,NA,NA,NA,NA,NA,bored,"bored, not bored","more bored, less bored",NA,NA,NA,NA,NA,NA,NA,NA,NA,NA,NA,NA,NA,NA,NA,0,2,2,2,1,NA,NA,NA,NA,NA,NA,NA,NA,NA,NA,NA,NA,NA,NA,NA,NA,NA,NA,NA,NA,NA,NA,NA,NA,NA,NA,NA,NA
SUPAMT45944,3I7DHKZYGTZ4BIVAILLBA1BBH6ZF57,F13C6F2B-1B34-4EC4-9F59-B6417DC8E25C,2023-09-28_12h55.29.640,WP_VExplicitOC_HL,2022.2.5,Win32,16.13710081,NA,NA,NA,NA,NA,NA,NA,NA,NA,NA,NA,NA,NA,NA,NA,NA,NA,NA,NA,NA,NA,NA,NA,NA,NA,NA,NA,NA,NA,NA,NA,13,0,13,0,1,NA,NA,NA,NA,NA,NA,NA,NA,NA,NA,NA,NA,NA,NA,NA,NA,NA,NA,NA,NA,NA,NA,NA
SUPAMT45944,3I7DHKZYGTZ4BIVAILLBA1BBH6ZF57,F13C6F2B-1B34-4EC4-9F59-B6417DC8E25C,2023-09-28_12h55.29.640,WP_VExplicitOC_HL,2022.2.5,Win32,16.13710081,98.17708333,4.8286,2.0231,NA,NA,NA,NA,NA,bored,"bored, not bored","more bored, less bored",NA,NA,NA,NA,NA,NA,NA,NA,NA,NA,NA,NA,NA,NA,NA,0,0,0,2,1,NA,NA,NA,NA,NA,NA,NA,NA,NA,NA,NA,NA,NA,NA,NA,NA,NA,NA,NA,NA,NA,NA,NA,NA,NA,NA,NA,NA
SUPAMT45944,3I7DHKZYGTZ4BIVAILLBA1BBH6ZF57,F13C6F2B-1B34-4EC4-9F59-B6417DC8E25C,2023-09-28_12h55.29.640,WP_VExplicitOC_HL,2022.2.5,Win32,16.13710081,98.95833333,4.6726,2.0024,NA,NA,NA,NA,NA,happy,"unhappy, happy","less happy, more happy",NA,NA,NA,NA,NA,NA,NA,NA,NA,NA,NA,NA,NA,NA,NA,0,1,1,0,1,NA,NA,NA,NA,NA,NA,NA,NA,NA,NA,NA,NA,NA,NA,NA,NA,NA,NA,NA,NA,NA,NA,NA,NA,NA,NA,NA,NA
SUPAMT45944,3I7DHKZYGTZ4BIVAILLBA1BBH6ZF57,F13C6F2B-1B34-4EC4-9F59-B6417DC8E25C,2023-09-28_12h55.29.640,WP_VExplicitOC_HL,2022.2.5,Win32,16.13710081,97.39583333,4.1068,2.0014,NA,NA,NA,NA,NA,frustrated,"frustrated, not frustrated","more frustrated, less frustrated",NA,NA,NA,NA,NA,NA,NA,NA,NA,NA,NA,NA,NA,NA,NA,0,2,2,1,1,NA,NA,NA,NA,NA,NA,NA,NA,NA,NA,NA,NA,NA,NA,NA,NA,NA,NA,NA,NA,NA,NA,NA,NA,NA,NA,NA,NA
SUPAMT45944,3I7DHKZYGTZ4BIVAILLBA1BBH6ZF57,F13C6F2B-1B34-4EC4-9F59-B6417DC8E25C,2023-09-28_12h55.29.640,WP_VExplicitOC_HL,2022.2.5,Win32,16.13710081,NA,NA,NA,NA,NA,NA,NA,NA,NA,NA,NA,NA,NA,NA,NA,NA,NA,NA,NA,NA,NA,NA,NA,NA,NA,NA,NA,NA,NA,NA,NA,14,0,14,0,1,NA,NA,NA,NA,NA,NA,NA,NA,NA,NA,NA,NA,NA,NA,NA,NA,NA,NA,NA,NA,NA,NA,NA
SUPAMT45944,3I7DHKZYGTZ4BIVAILLBA1BBH6ZF57,F13C6F2B-1B34-4EC4-9F59-B6417DC8E25C,2023-09-28_12h55.29.640,WP_VExplicitOC_HL,2022.2.5,Win32,16.13710081,NA,NA,NA,NA,NA,NA,NA,NA,NA,NA,NA,NA,NA,NA,NA,NA,NA,NA,NA,NA,NA,NA,NA,NA,NA,NA,NA,NA,NA,NA,NA,NA,NA,NA,NA,NA,NA,NA,NA,NA,NA,NA,NA,NA,NA,NA,NA,NA,NA,NA,NA,NA,NA,NA,NA,NA,NA,NA,NA
SUPAMT45944,3I7DHKZYGTZ4BIVAILLBA1BBH6ZF57,F13C6F2B-1B34-4EC4-9F59-B6417DC8E25C,2023-09-28_12h55.29.640,WP_VExplicitOC_HL,2022.2.5,Win32,16.13710081,NA,NA,NA,NA,NA,NA,NA,NA,NA,NA,NA,NA,NA,NA,NA,NA,NA,NA,NA,NA,NA,NA,NA,NA,NA,NA,NA,NA,NA,NA,NA,NA,NA,NA,NA,NA,NA,NA,NA,NA,NA,NA,NA,NA,NA,NA,NA,NA,NA,NA,NA,NA,NA,NA,NA,NA,NA,NA,NA
SUPAMT45944,3I7DHKZYGTZ4BIVAILLBA1BBH6ZF57,F13C6F2B-1B34-4EC4-9F59-B6417DC8E25C,2023-09-28_12h55.29.640,WP_VExplicitOC_HL,2022.2.5,Win32,16.13710081,NA,NA,NA,NA,NA,NA,NA,NA,NA,NA,NA,NA,NA,NA,NA,NA,NA,NA,rest (looking at a fixed cross),001.png,NA,NA,NA,NA,NA,NA,NA,NA,NA,NA,NA,NA,NA,NA,NA,NA,NA,NA,0,0,0,0,1,NA,NA,NA,NA,NA,NA,NA,NA,NA,NA,NA,NA,NA,NA,NA,NA
SUPAMT45944,3I7DHKZYGTZ4BIVAILLBA1BBH6ZF57,F13C6F2B-1B34-4EC4-9F59-B6417DC8E25C,2023-09-28_12h55.29.640,WP_VExplicitOC_HL,2022.2.5,Win32,16.13710081,NA,NA,NA,NA,NA,NA,NA,NA,NA,NA,NA,NA,NA,NA,NA,NA,NA,NA,stand up,002.png,NA,NA,NA,NA,NA,NA,NA,NA,NA,NA,NA,NA,NA,NA,NA,NA,93.75,3.9377,0,1,1,1,1,NA,NA,NA,NA,NA,NA,NA,NA,NA,NA,NA,NA,NA,NA,NA,NA
SUPAMT45944,3I7DHKZYGTZ4BIVAILLBA1BBH6ZF57,F13C6F2B-1B34-4EC4-9F59-B6417DC8E25C,2023-09-28_12h55.29.640,WP_VExplicitOC_HL,2022.2.5,Win32,16.13710081,NA,NA,NA,NA,NA,NA,NA,NA,NA,NA,NA,NA,NA,NA,NA,NA,NA,NA,stretch,003.png,NA,NA,NA,NA,NA,NA,NA,NA,NA,NA,NA,NA,NA,NA,NA,NA,93.75,1.6185,0,2,2,2,1,NA,NA,NA,NA,NA,NA,NA,NA,NA,NA,NA,NA,NA,NA,NA,NA
SUPAMT45944,3I7DHKZYGTZ4BIVAILLBA1BBH6ZF57,F13C6F2B-1B34-4EC4-9F59-B6417DC8E25C,2023-09-28_12h55.29.640,WP_VExplicitOC_HL,2022.2.5,Win32,16.13710081,NA,NA,NA,NA,NA,NA,NA,NA,NA,NA,NA,NA,NA,NA,NA,NA,NA,NA,make a drink,004.png,NA,NA,NA,NA,NA,NA,NA,NA,NA,NA,NA,NA,NA,NA,NA,NA,-89.0625,3.0061,0,3,3,3,1,NA,NA,NA,NA,NA,NA,NA,NA,NA,NA,NA,NA,NA,NA,NA,NA
SUPAMT45944,3I7DHKZYGTZ4BIVAILLBA1BBH6ZF57,F13C6F2B-1B34-4EC4-9F59-B6417DC8E25C,2023-09-28_12h55.29.640,WP_VExplicitOC_HL,2022.2.5,Win32,16.13710081,NA,NA,NA,NA,NA,NA,NA,NA,NA,NA,NA,NA,NA,NA,NA,NA,NA,NA,scroll social media,005.png,NA,NA,NA,NA,NA,NA,NA,NA,NA,NA,NA,NA,NA,NA,NA,NA,95.57291667,2.5342,0,4,4,4,1,NA,NA,NA,NA,NA,NA,NA,NA,NA,NA,NA,NA,NA,NA,NA,NA
SUPAMT45944,3I7DHKZYGTZ4BIVAILLBA1BBH6ZF57,F13C6F2B-1B34-4EC4-9F59-B6417DC8E25C,2023-09-28_12h55.29.640,WP_VExplicitOC_HL,2022.2.5,Win32,16.13710081,NA,NA,NA,NA,NA,NA,NA,NA,NA,NA,NA,NA,NA,NA,NA,NA,NA,NA,listen to music,006.png,NA,NA,NA,NA,NA,NA,NA,NA,NA,NA,NA,NA,NA,NA,NA,NA,95.57291667,1.7657,0,5,5,5,1,NA,NA,NA,NA,NA,NA,NA,NA,NA,NA,NA,NA,NA,NA,NA,NA
SUPAMT45944,3I7DHKZYGTZ4BIVAILLBA1BBH6ZF57,F13C6F2B-1B34-4EC4-9F59-B6417DC8E25C,2023-09-28_12h55.29.640,WP_VExplicitOC_HL,2022.2.5,Win32,16.13710081,NA,NA,NA,NA,NA,NA,NA,NA,NA,NA,NA,NA,NA,NA,NA,NA,NA,NA,daydream,007.png,NA,NA,NA,NA,NA,NA,NA,NA,NA,NA,NA,NA,NA,NA,NA,NA,95.83333333,2.5198,0,6,6,6,1,NA,NA,NA,NA,NA,NA,NA,NA,NA,NA,NA,NA,NA,NA,NA,NA
SUPAMT45944,3I7DHKZYGTZ4BIVAILLBA1BBH6ZF57,F13C6F2B-1B34-4EC4-9F59-B6417DC8E25C,2023-09-28_12h55.29.640,WP_VExplicitOC_HL,2022.2.5,Win32,16.13710081,NA,NA,NA,NA,NA,NA,NA,NA,NA,NA,NA,NA,NA,NA,NA,NA,NA,NA,watch a short animation,008.png,NA,NA,NA,NA,NA,NA,NA,NA,NA,NA,NA,NA,NA,NA,NA,NA,95.83333333,1.9221,0,7,7,7,1,NA,NA,NA,NA,NA,NA,NA,NA,NA,NA,NA,NA,NA,NA,NA,NA
SUPAMT45944,3I7DHKZYGTZ4BIVAILLBA1BBH6ZF57,F13C6F2B-1B34-4EC4-9F59-B6417DC8E25C,2023-09-28_12h55.29.640,WP_VExplicitOC_HL,2022.2.5,Win32,16.13710081,NA,NA,NA,NA,NA,NA,NA,NA,NA,NA,NA,NA,NA,NA,NA,NA,NA,NA,read a novel,009.png,NA,NA,NA,NA,NA,NA,NA,NA,NA,NA,NA,NA,NA,NA,NA,NA,95.83333333,1.5887,0,8,8,8,1,NA,NA,NA,NA,NA,NA,NA,NA,NA,NA,NA,NA,NA,NA,NA,NA
SUPAMT45944,3I7DHKZYGTZ4BIVAILLBA1BBH6ZF57,F13C6F2B-1B34-4EC4-9F59-B6417DC8E25C,2023-09-28_12h55.29.640,WP_VExplicitOC_HL,2022.2.5,Win32,16.13710081,NA,NA,NA,NA,NA,NA,NA,NA,NA,NA,NA,NA,NA,NA,NA,NA,NA,NA,read the news,010.png,NA,NA,NA,NA,NA,NA,NA,NA,NA,NA,NA,NA,NA,NA,NA,NA,95.83333333,1.5565,0,9,9,9,1,NA,NA,NA,NA,NA,NA,NA,NA,NA,NA,NA,NA,NA,NA,NA,NA
SUPAMT45944,3I7DHKZYGTZ4BIVAILLBA1BBH6ZF57,F13C6F2B-1B34-4EC4-9F59-B6417DC8E25C,2023-09-28_12h55.29.640,WP_VExplicitOC_HL,2022.2.5,Win32,16.13710081,NA,NA,NA,NA,NA,NA,NA,NA,NA,NA,NA,NA,NA,NA,NA,NA,NA,NA,NA,NA,NA,NA,NA,NA,NA,NA,NA,NA,NA,NA,NA,NA,NA,NA,NA,NA,NA,NA,NA,NA,NA,NA,NA,stretch,NA,NA,NA,NA,NA,NA,NA,NA,NA,NA,NA,NA,NA,NA,NA
SUPAMT45944,3I7DHKZYGTZ4BIVAILLBA1BBH6ZF57,F13C6F2B-1B34-4EC4-9F59-B6417DC8E25C,2023-09-28_12h55.29.640,WP_VExplicitOC_HL,2022.2.5,Win32,16.13710081,95.57291667,5.1976,2.0177,NA,NA,NA,NA,NA,bored,"bored, not bored","more bored, less bored",NA,NA,NA,NA,NA,NA,NA,NA,NA,NA,NA,NA,NA,NA,NA,NA,NA,NA,NA,NA,NA,NA,NA,NA,NA,NA,NA,NA,NA,NA,NA,NA,NA,0,0,0,2,1,NA,NA,NA,NA,NA,NA,NA,NA,NA,NA
SUPAMT45944,3I7DHKZYGTZ4BIVAILLBA1BBH6ZF57,F13C6F2B-1B34-4EC4-9F59-B6417DC8E25C,2023-09-28_12h55.29.640,WP_VExplicitOC_HL,2022.2.5,Win32,16.13710081,93.48958333,4.038,2.0414,NA,NA,NA,NA,NA,happy,"unhappy, happy","less happy, more happy",NA,NA,NA,NA,NA,NA,NA,NA,NA,NA,NA,NA,NA,NA,NA,NA,NA,NA,NA,NA,NA,NA,NA,NA,NA,NA,NA,NA,NA,NA,NA,NA,NA,0,1,1,0,1,NA,NA,NA,NA,NA,NA,NA,NA,NA,NA
SUPAMT45944,3I7DHKZYGTZ4BIVAILLBA1BBH6ZF57,F13C6F2B-1B34-4EC4-9F59-B6417DC8E25C,2023-09-28_12h55.29.640,WP_VExplicitOC_HL,2022.2.5,Win32,16.13710081,94.53125,3.644,2.0672,NA,NA,NA,NA,NA,frustrated,"frustrated, not frustrated","more frustrated, less frustrated",NA,NA,NA,NA,NA,NA,NA,NA,NA,NA,NA,NA,NA,NA,NA,NA,NA,NA,NA,NA,NA,NA,NA,NA,NA,NA,NA,NA,NA,NA,NA,NA,NA,0,2,2,1,1,NA,NA,NA,NA,NA,NA,NA,NA,NA,NA
SUPAMT45944,3I7DHKZYGTZ4BIVAILLBA1BBH6ZF57,F13C6F2B-1B34-4EC4-9F59-B6417DC8E25C,2023-09-28_12h55.29.640,WP_VExplicitOC_HL,2022.2.5,Win32,16.13710081,NA,NA,NA,NA,NA,NA,NA,NA,NA,NA,NA,NA,NA,NA,NA,NA,NA,NA,NA,NA,NA,NA,NA,NA,NA,NA,NA,NA,NA,NA,NA,NA,NA,NA,NA,NA,NA,NA,NA,NA,NA,NA,NA,NA,NA,NA,NA,NA,NA,NA,NA,NA,NA,NA,NA,NA,NA,NA,NA
SUPAMT45944,3I7DHKZYGTZ4BIVAILLBA1BBH6ZF57,F13C6F2B-1B34-4EC4-9F59-B6417DC8E25C,2023-09-28_12h55.29.640,WP_VExplicitOC_HL,2022.2.5,Win32,16.13710081,NA,NA,NA,NA,NA,NA,NA,NA,NA,NA,NA,NA,NA,NA,NA,NA,NA,NA,NA,NA,NA,NA,NA,NA,NA,NA,NA,NA,NA,NA,NA,NA,NA,NA,NA,NA,NA,NA,NA,NA,NA,NA,NA,NA,NA,NA,NA,NA,NA,NA,NA,NA,NA,NA,NA,NA,NA,NA,NA
SUPAMT45944,3I7DHKZYGTZ4BIVAILLBA1BBH6ZF57,F13C6F2B-1B34-4EC4-9F59-B6417DC8E25C,2023-09-28_12h55.29.640,WP_VExplicitOC_HL,2022.2.5,Win32,16.13710081,NA,NA,2.0458,NA,NA,NA,NA,NA,frustrated,"frustrated, not frustrated","more frustrated, less frustrated",NA,NA,NA,NA,NA,NA,NA,NA,NA,NA,NA,NA,NA,NA,NA,NA,NA,NA,NA,NA,NA,NA,NA,NA,NA,NA,NA,NA,NA,NA,NA,NA,NA,NA,NA,NA,NA,NA,0,0,0,1,1,NA,NA,NA,NA,NA
SUPAMT45944,3I7DHKZYGTZ4BIVAILLBA1BBH6ZF57,F13C6F2B-1B34-4EC4-9F59-B6417DC8E25C,2023-09-28_12h55.29.640,WP_VExplicitOC_HL,2022.2.5,Win32,16.13710081,NA,NA,2.0132,NA,NA,NA,NA,NA,happy,"unhappy, happy","less happy, more happy",NA,NA,NA,NA,NA,NA,NA,NA,NA,NA,NA,NA,NA,NA,NA,NA,NA,NA,NA,NA,NA,NA,NA,NA,NA,NA,NA,NA,NA,NA,NA,NA,NA,NA,NA,NA,NA,NA,0,1,1,0,1,NA,NA,NA,NA,NA
SUPAMT45944,3I7DHKZYGTZ4BIVAILLBA1BBH6ZF57,F13C6F2B-1B34-4EC4-9F59-B6417DC8E25C,2023-09-28_12h55.29.640,WP_VExplicitOC_HL,2022.2.5,Win32,16.13710081,NA,NA,2.0558,NA,NA,NA,NA,NA,bored,"bored, not bored","more bored, less bored",NA,NA,NA,NA,NA,NA,NA,NA,NA,NA,NA,NA,NA,NA,NA,NA,NA,NA,NA,NA,NA,NA,NA,NA,NA,NA,NA,NA,NA,NA,NA,NA,NA,NA,NA,NA,NA,NA,0,2,2,2,1,NA,NA,NA,NA,NA
SUPAMT45944,3I7DHKZYGTZ4BIVAILLBA1BBH6ZF57,F13C6F2B-1B34-4EC4-9F59-B6417DC8E25C,2023-09-28_12h55.29.640,WP_VExplicitOC_HL,2022.2.5,Win32,16.13710081,NA,NA,NA,NA,NA,NA,NA,NA,NA,NA,NA,NA,NA,NA,NA,NA,NA,NA,NA,NA,NA,NA,NA,NA,NA,NA,NA,NA,NA,NA,NA,NA,NA,NA,NA,NA,NA,NA,NA,NA,NA,NA,NA,NA,NA,NA,NA,NA,NA,NA,NA,NA,NA,NA,0,0,0,0,1
SUPAMT45944,3I7DHKZYGTZ4BIVAILLBA1BBH6ZF57,F13C6F2B-1B34-4EC4-9F59-B6417DC8E25C,2023-09-28_12h55.29.640,WP_VExplicitOC_HL,2022.2.5,Win32,16.13710081,93.22916667,4.0136,2.0109,NA,NA,NA,NA,NA,bored,"bored, not bored","more bored, less bored",NA,NA,NA,NA,NA,NA,NA,NA,NA,NA,NA,NA,NA,NA,NA,NA,NA,NA,NA,NA,NA,NA,NA,NA,NA,NA,NA,NA,NA,NA,NA,NA,NA,NA,NA,NA,NA,NA,0,0,0,2,1,NA,NA,NA,NA,NA
SUPAMT45944,3I7DHKZYGTZ4BIVAILLBA1BBH6ZF57,F13C6F2B-1B34-4EC4-9F59-B6417DC8E25C,2023-09-28_12h55.29.640,WP_VExplicitOC_HL,2022.2.5,Win32,16.13710081,98.17708333,4.9024,2.0537,NA,NA,NA,NA,NA,happy,"unhappy, happy","less happy, more happy",NA,NA,NA,NA,NA,NA,NA,NA,NA,NA,NA,NA,NA,NA,NA,NA,NA,NA,NA,NA,NA,NA,NA,NA,NA,NA,NA,NA,NA,NA,NA,NA,NA,NA,NA,NA,NA,NA,0,1,1,0,1,NA,NA,NA,NA,NA
SUPAMT45944,3I7DHKZYGTZ4BIVAILLBA1BBH6ZF57,F13C6F2B-1B34-4EC4-9F59-B6417DC8E25C,2023-09-28_12h55.29.640,WP_VExplicitOC_HL,2022.2.5,Win32,16.13710081,98.17708333,6.368,2.0285,NA,NA,NA,NA,NA,frustrated,"frustrated, not frustrated","more frustrated, less frustrated",NA,NA,NA,NA,NA,NA,NA,NA,NA,NA,NA,NA,NA,NA,NA,NA,NA,NA,NA,NA,NA,NA,NA,NA,NA,NA,NA,NA,NA,NA,NA,NA,NA,NA,NA,NA,NA,NA,0,2,2,1,1,NA,NA,NA,NA,NA
SUPAMT45944,3I7DHKZYGTZ4BIVAILLBA1BBH6ZF57,F13C6F2B-1B34-4EC4-9F59-B6417DC8E25C,2023-09-28_12h55.29.640,WP_VExplicitOC_HL,2022.2.5,Win32,16.13710081,NA,NA,NA,NA,NA,NA,NA,NA,NA,NA,NA,NA,NA,NA,NA,NA,NA,NA,NA,NA,NA,NA,NA,NA,NA,NA,NA,NA,NA,NA,NA,NA,NA,NA,NA,NA,NA,NA,NA,NA,NA,NA,NA,NA,NA,NA,NA,NA,NA,NA,NA,NA,NA,NA,1,0,1,0,1
SUPAMT45944,3I7DHKZYGTZ4BIVAILLBA1BBH6ZF57,F13C6F2B-1B34-4EC4-9F59-B6417DC8E25C,2023-09-28_12h55.29.640,WP_VExplicitOC_HL,2022.2.5,Win32,16.13710081,96.09375,4.5982,2.053,NA,NA,NA,NA,NA,bored,"bored, not bored","more bored, less bored",NA,NA,NA,NA,NA,NA,NA,NA,NA,NA,NA,NA,NA,NA,NA,NA,NA,NA,NA,NA,NA,NA,NA,NA,NA,NA,NA,NA,NA,NA,NA,NA,NA,NA,NA,NA,NA,NA,0,0,0,2,1,NA,NA,NA,NA,NA
SUPAMT45944,3I7DHKZYGTZ4BIVAILLBA1BBH6ZF57,F13C6F2B-1B34-4EC4-9F59-B6417DC8E25C,2023-09-28_12h55.29.640,WP_VExplicitOC_HL,2022.2.5,Win32,16.13710081,91.40625,5.3463,2.0237,NA,NA,NA,NA,NA,happy,"unhappy, happy","less happy, more happy",NA,NA,NA,NA,NA,NA,NA,NA,NA,NA,NA,NA,NA,NA,NA,NA,NA,NA,NA,NA,NA,NA,NA,NA,NA,NA,NA,NA,NA,NA,NA,NA,NA,NA,NA,NA,NA,NA,0,1,1,0,1,NA,NA,NA,NA,NA
SUPAMT45944,3I7DHKZYGTZ4BIVAILLBA1BBH6ZF57,F13C6F2B-1B34-4EC4-9F59-B6417DC8E25C,2023-09-28_12h55.29.640,WP_VExplicitOC_HL,2022.2.5,Win32,16.13710081,95.3125,4.7387,2.0147,NA,NA,NA,NA,NA,frustrated,"frustrated, not frustrated","more frustrated, less frustrated",NA,NA,NA,NA,NA,NA,NA,NA,NA,NA,NA,NA,NA,NA,NA,NA,NA,NA,NA,NA,NA,NA,NA,NA,NA,NA,NA,NA,NA,NA,NA,NA,NA,NA,NA,NA,NA,NA,0,2,2,1,1,NA,NA,NA,NA,NA
SUPAMT45944,3I7DHKZYGTZ4BIVAILLBA1BBH6ZF57,F13C6F2B-1B34-4EC4-9F59-B6417DC8E25C,2023-09-28_12h55.29.640,WP_VExplicitOC_HL,2022.2.5,Win32,16.13710081,NA,NA,NA,NA,NA,NA,NA,NA,NA,NA,NA,NA,NA,NA,NA,NA,NA,NA,NA,NA,NA,NA,NA,NA,NA,NA,NA,NA,NA,NA,NA,NA,NA,NA,NA,NA,NA,NA,NA,NA,NA,NA,NA,NA,NA,NA,NA,NA,NA,NA,NA,NA,NA,NA,2,0,2,0,1
SUPAMT45944,3I7DHKZYGTZ4BIVAILLBA1BBH6ZF57,F13C6F2B-1B34-4EC4-9F59-B6417DC8E25C,2023-09-28_12h55.29.640,WP_VExplicitOC_HL,2022.2.5,Win32,16.13710081,93.75,3.8586,2.0505,NA,NA,NA,NA,NA,frustrated,"frustrated, not frustrated","more frustrated, less frustrated",NA,NA,NA,NA,NA,NA,NA,NA,NA,NA,NA,NA,NA,NA,NA,NA,NA,NA,NA,NA,NA,NA,NA,NA,NA,NA,NA,NA,NA,NA,NA,NA,NA,NA,NA,NA,NA,NA,0,0,0,1,1,NA,NA,NA,NA,NA
SUPAMT45944,3I7DHKZYGTZ4BIVAILLBA1BBH6ZF57,F13C6F2B-1B34-4EC4-9F59-B6417DC8E25C,2023-09-28_12h55.29.640,WP_VExplicitOC_HL,2022.2.5,Win32,16.13710081,NA,NA,2.0227,NA,NA,NA,NA,NA,bored,"bored, not bored","more bored, less bored",NA,NA,NA,NA,NA,NA,NA,NA,NA,NA,NA,NA,NA,NA,NA,NA,NA,NA,NA,NA,NA,NA,NA,NA,NA,NA,NA,NA,NA,NA,NA,NA,NA,NA,NA,NA,NA,NA,0,1,1,2,1,NA,NA,NA,NA,NA
SUPAMT45944,3I7DHKZYGTZ4BIVAILLBA1BBH6ZF57,F13C6F2B-1B34-4EC4-9F59-B6417DC8E25C,2023-09-28_12h55.29.640,WP_VExplicitOC_HL,2022.2.5,Win32,16.13710081,94.53125,4.3735,2.0353,NA,NA,NA,NA,NA,happy,"unhappy, happy","less happy, more happy",NA,NA,NA,NA,NA,NA,NA,NA,NA,NA,NA,NA,NA,NA,NA,NA,NA,NA,NA,NA,NA,NA,NA,NA,NA,NA,NA,NA,NA,NA,NA,NA,NA,NA,NA,NA,NA,NA,0,2,2,0,1,NA,NA,NA,NA,NA
SUPAMT45944,3I7DHKZYGTZ4BIVAILLBA1BBH6ZF57,F13C6F2B-1B34-4EC4-9F59-B6417DC8E25C,2023-09-28_12h55.29.640,WP_VExplicitOC_HL,2022.2.5,Win32,16.13710081,NA,NA,NA,NA,NA,NA,NA,NA,NA,NA,NA,NA,NA,NA,NA,NA,NA,NA,NA,NA,NA,NA,NA,NA,NA,NA,NA,NA,NA,NA,NA,NA,NA,NA,NA,NA,NA,NA,NA,NA,NA,NA,NA,NA,NA,NA,NA,NA,NA,NA,NA,NA,NA,NA,3,0,3,0,1
SUPAMT45944,3I7DHKZYGTZ4BIVAILLBA1BBH6ZF57,F13C6F2B-1B34-4EC4-9F59-B6417DC8E25C,2023-09-28_12h55.29.640,WP_VExplicitOC_HL,2022.2.5,Win32,16.13710081,98.95833333,5.0082,2.0576,NA,NA,NA,NA,NA,frustrated,"frustrated, not frustrated","more frustrated, less frustrated",NA,NA,NA,NA,NA,NA,NA,NA,NA,NA,NA,NA,NA,NA,NA,NA,NA,NA,NA,NA,NA,NA,NA,NA,NA,NA,NA,NA,NA,NA,NA,NA,NA,NA,NA,NA,NA,NA,0,0,0,1,1,NA,NA,NA,NA,NA
SUPAMT45944,3I7DHKZYGTZ4BIVAILLBA1BBH6ZF57,F13C6F2B-1B34-4EC4-9F59-B6417DC8E25C,2023-09-28_12h55.29.640,WP_VExplicitOC_HL,2022.2.5,Win32,16.13710081,97.65625,4.5779,2.0706,NA,NA,NA,NA,NA,happy,"unhappy, happy","less happy, more happy",NA,NA,NA,NA,NA,NA,NA,NA,NA,NA,NA,NA,NA,NA,NA,NA,NA,NA,NA,NA,NA,NA,NA,NA,NA,NA,NA,NA,NA,NA,NA,NA,NA,NA,NA,NA,NA,NA,0,1,1,0,1,NA,NA,NA,NA,NA
SUPAMT45944,3I7DHKZYGTZ4BIVAILLBA1BBH6ZF57,F13C6F2B-1B34-4EC4-9F59-B6417DC8E25C,2023-09-28_12h55.29.640,WP_VExplicitOC_HL,2022.2.5,Win32,16.13710081,98.17708333,3.8386,2.0616,NA,NA,NA,NA,NA,bored,"bored, not bored","more bored, less bored",NA,NA,NA,NA,NA,NA,NA,NA,NA,NA,NA,NA,NA,NA,NA,NA,NA,NA,NA,NA,NA,NA,NA,NA,NA,NA,NA,NA,NA,NA,NA,NA,NA,NA,NA,NA,NA,NA,0,2,2,2,1,NA,NA,NA,NA,NA
SUPAMT45944,3I7DHKZYGTZ4BIVAILLBA1BBH6ZF57,F13C6F2B-1B34-4EC4-9F59-B6417DC8E25C,2023-09-28_12h55.29.640,WP_VExplicitOC_HL,2022.2.5,Win32,16.13710081,NA,NA,NA,NA,NA,NA,NA,NA,NA,NA,NA,NA,NA,NA,NA,NA,NA,NA,NA,NA,NA,NA,NA,NA,NA,NA,NA,NA,NA,NA,NA,NA,NA,NA,NA,NA,NA,NA,NA,NA,NA,NA,NA,NA,NA,NA,NA,NA,NA,NA,NA,NA,NA,NA,4,0,4,0,1
SUPAMT45944,3I7DHKZYGTZ4BIVAILLBA1BBH6ZF57,F13C6F2B-1B34-4EC4-9F59-B6417DC8E25C,2023-09-28_12h55.29.640,WP_VExplicitOC_HL,2022.2.5,Win32,16.13710081,95.57291667,5.3797,2.018,NA,NA,NA,NA,NA,frustrated,"frustrated, not frustrated","more frustrated, less frustrated",NA,NA,NA,NA,NA,NA,NA,NA,NA,NA,NA,NA,NA,NA,NA,NA,NA,NA,NA,NA,NA,NA,NA,NA,NA,NA,NA,NA,NA,NA,NA,NA,NA,NA,NA,NA,NA,NA,0,0,0,1,1,NA,NA,NA,NA,NA
SUPAMT45944,3I7DHKZYGTZ4BIVAILLBA1BBH6ZF57,F13C6F2B-1B34-4EC4-9F59-B6417DC8E25C,2023-09-28_12h55.29.640,WP_VExplicitOC_HL,2022.2.5,Win32,16.13710081,94.53125,4.5226,2.0221,NA,NA,NA,NA,NA,bored,"bored, not bored","more bored, less bored",NA,NA,NA,NA,NA,NA,NA,NA,NA,NA,NA,NA,NA,NA,NA,NA,NA,NA,NA,NA,NA,NA,NA,NA,NA,NA,NA,NA,NA,NA,NA,NA,NA,NA,NA,NA,NA,NA,0,1,1,2,1,NA,NA,NA,NA,NA
SUPAMT45944,3I7DHKZYGTZ4BIVAILLBA1BBH6ZF57,F13C6F2B-1B34-4EC4-9F59-B6417DC8E25C,2023-09-28_12h55.29.640,WP_VExplicitOC_HL,2022.2.5,Win32,16.13710081,94.53125,3.7128,2.0066,NA,NA,NA,NA,NA,happy,"unhappy, happy","less happy, more happy",NA,NA,NA,NA,NA,NA,NA,NA,NA,NA,NA,NA,NA,NA,NA,NA,NA,NA,NA,NA,NA,NA,NA,NA,NA,NA,NA,NA,NA,NA,NA,NA,NA,NA,NA,NA,NA,NA,0,2,2,0,1,NA,NA,NA,NA,NA
SUPAMT45944,3I7DHKZYGTZ4BIVAILLBA1BBH6ZF57,F13C6F2B-1B34-4EC4-9F59-B6417DC8E25C,2023-09-28_12h55.29.640,WP_VExplicitOC_HL,2022.2.5,Win32,16.13710081,NA,NA,NA,NA,NA,NA,NA,NA,NA,NA,NA,NA,NA,NA,NA,NA,NA,NA,NA,NA,NA,NA,NA,NA,NA,NA,NA,NA,NA,NA,NA,NA,NA,NA,NA,NA,NA,NA,NA,NA,NA,NA,NA,NA,NA,NA,NA,NA,NA,NA,NA,NA,NA,NA,5,0,5,0,1
SUPAMT45944,3I7DHKZYGTZ4BIVAILLBA1BBH6ZF57,F13C6F2B-1B34-4EC4-9F59-B6417DC8E25C,2023-09-28_12h55.29.640,WP_VExplicitOC_HL,2022.2.5,Win32,16.13710081,97.65625,6.852,2.0279,NA,NA,NA,NA,NA,bored,"bored, not bored","more bored, less bored",NA,NA,NA,NA,NA,NA,NA,NA,NA,NA,NA,NA,NA,NA,NA,NA,NA,NA,NA,NA,NA,NA,NA,NA,NA,NA,NA,NA,NA,NA,NA,NA,NA,NA,NA,NA,NA,NA,0,0,0,2,1,NA,NA,NA,NA,NA
SUPAMT45944,3I7DHKZYGTZ4BIVAILLBA1BBH6ZF57,F13C6F2B-1B34-4EC4-9F59-B6417DC8E25C,2023-09-28_12h55.29.640,WP_VExplicitOC_HL,2022.2.5,Win32,16.13710081,92.96875,3.9897,2.0052,NA,NA,NA,NA,NA,frustrated,"frustrated, not frustrated","more frustrated, less frustrated",NA,NA,NA,NA,NA,NA,NA,NA,NA,NA,NA,NA,NA,NA,NA,NA,NA,NA,NA,NA,NA,NA,NA,NA,NA,NA,NA,NA,NA,NA,NA,NA,NA,NA,NA,NA,NA,NA,0,1,1,1,1,NA,NA,NA,NA,NA
SUPAMT45944,3I7DHKZYGTZ4BIVAILLBA1BBH6ZF57,F13C6F2B-1B34-4EC4-9F59-B6417DC8E25C,2023-09-28_12h55.29.640,WP_VExplicitOC_HL,2022.2.5,Win32,16.13710081,90.10416667,3.7043,2.0171,NA,NA,NA,NA,NA,happy,"unhappy, happy","less happy, more happy",NA,NA,NA,NA,NA,NA,NA,NA,NA,NA,NA,NA,NA,NA,NA,NA,NA,NA,NA,NA,NA,NA,NA,NA,NA,NA,NA,NA,NA,NA,NA,NA,NA,NA,NA,NA,NA,NA,0,2,2,0,1,NA,NA,NA,NA,NA
SUPAMT45944,3I7DHKZYGTZ4BIVAILLBA1BBH6ZF57,F13C6F2B-1B34-4EC4-9F59-B6417DC8E25C,2023-09-28_12h55.29.640,WP_VExplicitOC_HL,2022.2.5,Win32,16.13710081,NA,NA,NA,NA,NA,NA,NA,NA,NA,NA,NA,NA,NA,NA,NA,NA,NA,NA,NA,NA,NA,NA,NA,NA,NA,NA,NA,NA,NA,NA,NA,NA,NA,NA,NA,NA,NA,NA,NA,NA,NA,NA,NA,NA,NA,NA,NA,NA,NA,NA,NA,NA,NA,NA,6,0,6,0,1
SUPAMT45944,3I7DHKZYGTZ4BIVAILLBA1BBH6ZF57,F13C6F2B-1B34-4EC4-9F59-B6417DC8E25C,2023-09-28_12h55.29.640,WP_VExplicitOC_HL,2022.2.5,Win32,16.13710081,96.35416667,4.018,2.0351,NA,NA,NA,NA,NA,bored,"bored, not bored","more bored, less bored",NA,NA,NA,NA,NA,NA,NA,NA,NA,NA,NA,NA,NA,NA,NA,NA,NA,NA,NA,NA,NA,NA,NA,NA,NA,NA,NA,NA,NA,NA,NA,NA,NA,NA,NA,NA,NA,NA,0,0,0,2,1,NA,NA,NA,NA,NA
SUPAMT45944,3I7DHKZYGTZ4BIVAILLBA1BBH6ZF57,F13C6F2B-1B34-4EC4-9F59-B6417DC8E25C,2023-09-28_12h55.29.640,WP_VExplicitOC_HL,2022.2.5,Win32,16.13710081,96.61458333,3.9007,2.05,NA,NA,NA,NA,NA,frustrated,"frustrated, not frustrated","more frustrated, less frustrated",NA,NA,NA,NA,NA,NA,NA,NA,NA,NA,NA,NA,NA,NA,NA,NA,NA,NA,NA,NA,NA,NA,NA,NA,NA,NA,NA,NA,NA,NA,NA,NA,NA,NA,NA,NA,NA,NA,0,1,1,1,1,NA,NA,NA,NA,NA
SUPAMT45944,3I7DHKZYGTZ4BIVAILLBA1BBH6ZF57,F13C6F2B-1B34-4EC4-9F59-B6417DC8E25C,2023-09-28_12h55.29.640,WP_VExplicitOC_HL,2022.2.5,Win32,16.13710081,92.1875,3.4771,2.0145,NA,NA,NA,NA,NA,happy,"unhappy, happy","less happy, more happy",NA,NA,NA,NA,NA,NA,NA,NA,NA,NA,NA,NA,NA,NA,NA,NA,NA,NA,NA,NA,NA,NA,NA,NA,NA,NA,NA,NA,NA,NA,NA,NA,NA,NA,NA,NA,NA,NA,0,2,2,0,1,NA,NA,NA,NA,NA
SUPAMT45944,3I7DHKZYGTZ4BIVAILLBA1BBH6ZF57,F13C6F2B-1B34-4EC4-9F59-B6417DC8E25C,2023-09-28_12h55.29.640,WP_VExplicitOC_HL,2022.2.5,Win32,16.13710081,NA,NA,NA,NA,NA,NA,NA,NA,NA,NA,NA,NA,NA,NA,NA,NA,NA,NA,NA,NA,NA,NA,NA,NA,NA,NA,NA,NA,NA,NA,NA,NA,NA,NA,NA,NA,NA,NA,NA,NA,NA,NA,NA,NA,NA,NA,NA,NA,NA,NA,NA,NA,NA,NA,7,0,7,0,1
SUPAMT45944,3I7DHKZYGTZ4BIVAILLBA1BBH6ZF57,F13C6F2B-1B34-4EC4-9F59-B6417DC8E25C,2023-09-28_12h55.29.640,WP_VExplicitOC_HL,2022.2.5,Win32,16.13710081,NA,NA,2.0581,NA,NA,NA,NA,NA,bored,"bored, not bored","more bored, less bored",NA,NA,NA,NA,NA,NA,NA,NA,NA,NA,NA,NA,NA,NA,NA,NA,NA,NA,NA,NA,NA,NA,NA,NA,NA,NA,NA,NA,NA,NA,NA,NA,NA,NA,NA,NA,NA,NA,0,0,0,2,1,NA,NA,NA,NA,NA
SUPAMT45944,3I7DHKZYGTZ4BIVAILLBA1BBH6ZF57,F13C6F2B-1B34-4EC4-9F59-B6417DC8E25C,2023-09-28_12h55.29.640,WP_VExplicitOC_HL,2022.2.5,Win32,16.13710081,91.40625,4.3826,2.0363,NA,NA,NA,NA,NA,happy,"unhappy, happy","less happy, more happy",NA,NA,NA,NA,NA,NA,NA,NA,NA,NA,NA,NA,NA,NA,NA,NA,NA,NA,NA,NA,NA,NA,NA,NA,NA,NA,NA,NA,NA,NA,NA,NA,NA,NA,NA,NA,NA,NA,0,1,1,0,1,NA,NA,NA,NA,NA
SUPAMT45944,3I7DHKZYGTZ4BIVAILLBA1BBH6ZF57,F13C6F2B-1B34-4EC4-9F59-B6417DC8E25C,2023-09-28_12h55.29.640,WP_VExplicitOC_HL,2022.2.5,Win32,16.13710081,93.48958333,3.6039,2.0186,NA,NA,NA,NA,NA,frustrated,"frustrated, not frustrated","more frustrated, less frustrated",NA,NA,NA,NA,NA,NA,NA,NA,NA,NA,NA,NA,NA,NA,NA,NA,NA,NA,NA,NA,NA,NA,NA,NA,NA,NA,NA,NA,NA,NA,NA,NA,NA,NA,NA,NA,NA,NA,0,2,2,1,1,NA,NA,NA,NA,NA
SUPAMT45944,3I7DHKZYGTZ4BIVAILLBA1BBH6ZF57,F13C6F2B-1B34-4EC4-9F59-B6417DC8E25C,2023-09-28_12h55.29.640,WP_VExplicitOC_HL,2022.2.5,Win32,16.13710081,NA,NA,NA,NA,NA,NA,NA,NA,NA,NA,NA,NA,NA,NA,NA,NA,NA,NA,NA,NA,NA,NA,NA,NA,NA,NA,NA,NA,NA,NA,NA,NA,NA,NA,NA,NA,NA,NA,NA,NA,NA,NA,NA,NA,NA,NA,NA,NA,NA,NA,NA,NA,NA,NA,8,0,8,0,1
SUPAMT45944,3I7DHKZYGTZ4BIVAILLBA1BBH6ZF57,F13C6F2B-1B34-4EC4-9F59-B6417DC8E25C,2023-09-28_12h55.29.640,WP_VExplicitOC_HL,2022.2.5,Win32,16.13710081,94.27083333,4.367,2.0575,NA,NA,NA,NA,NA,bored,"bored, not bored","more bored, less bored",NA,NA,NA,NA,NA,NA,NA,NA,NA,NA,NA,NA,NA,NA,NA,NA,NA,NA,NA,NA,NA,NA,NA,NA,NA,NA,NA,NA,NA,NA,NA,NA,NA,NA,NA,NA,NA,NA,0,0,0,2,1,NA,NA,NA,NA,NA
SUPAMT45944,3I7DHKZYGTZ4BIVAILLBA1BBH6ZF57,F13C6F2B-1B34-4EC4-9F59-B6417DC8E25C,2023-09-28_12h55.29.640,WP_VExplicitOC_HL,2022.2.5,Win32,16.13710081,NA,NA,2.0035,NA,NA,NA,NA,NA,frustrated,"frustrated, not frustrated","more frustrated, less frustrated",NA,NA,NA,NA,NA,NA,NA,NA,NA,NA,NA,NA,NA,NA,NA,NA,NA,NA,NA,NA,NA,NA,NA,NA,NA,NA,NA,NA,NA,NA,NA,NA,NA,NA,NA,NA,NA,NA,0,1,1,1,1,NA,NA,NA,NA,NA
SUPAMT45944,3I7DHKZYGTZ4BIVAILLBA1BBH6ZF57,F13C6F2B-1B34-4EC4-9F59-B6417DC8E25C,2023-09-28_12h55.29.640,WP_VExplicitOC_HL,2022.2.5,Win32,16.13710081,72.65625,6.0864,2.0475,NA,NA,NA,NA,NA,happy,"unhappy, happy","less happy, more happy",NA,NA,NA,NA,NA,NA,NA,NA,NA,NA,NA,NA,NA,NA,NA,NA,NA,NA,NA,NA,NA,NA,NA,NA,NA,NA,NA,NA,NA,NA,NA,NA,NA,NA,NA,NA,NA,NA,0,2,2,0,1,NA,NA,NA,NA,NA
SUPAMT45944,3I7DHKZYGTZ4BIVAILLBA1BBH6ZF57,F13C6F2B-1B34-4EC4-9F59-B6417DC8E25C,2023-09-28_12h55.29.640,WP_VExplicitOC_HL,2022.2.5,Win32,16.13710081,NA,NA,NA,NA,NA,NA,NA,NA,NA,NA,NA,NA,NA,NA,NA,NA,NA,NA,NA,NA,NA,NA,NA,NA,NA,NA,NA,NA,NA,NA,NA,NA,NA,NA,NA,NA,NA,NA,NA,NA,NA,NA,NA,NA,NA,NA,NA,NA,NA,NA,NA,NA,NA,NA,9,0,9,0,1
SUPAMT45944,3I7DHKZYGTZ4BIVAILLBA1BBH6ZF57,F13C6F2B-1B34-4EC4-9F59-B6417DC8E25C,2023-09-28_12h55.29.640,WP_VExplicitOC_HL,2022.2.5,Win32,16.13710081,94.01041667,4.003,2.0083,NA,NA,NA,NA,NA,happy,"unhappy, happy","less happy, more happy",NA,NA,NA,NA,NA,NA,NA,NA,NA,NA,NA,NA,NA,NA,NA,NA,NA,NA,NA,NA,NA,NA,NA,NA,NA,NA,NA,NA,NA,NA,NA,NA,NA,NA,NA,NA,NA,NA,0,0,0,0,1,NA,NA,NA,NA,NA
SUPAMT45944,3I7DHKZYGTZ4BIVAILLBA1BBH6ZF57,F13C6F2B-1B34-4EC4-9F59-B6417DC8E25C,2023-09-28_12h55.29.640,WP_VExplicitOC_HL,2022.2.5,Win32,16.13710081,94.01041667,5.4616,2.0259,NA,NA,NA,NA,NA,bored,"bored, not bored","more bored, less bored",NA,NA,NA,NA,NA,NA,NA,NA,NA,NA,NA,NA,NA,NA,NA,NA,NA,NA,NA,NA,NA,NA,NA,NA,NA,NA,NA,NA,NA,NA,NA,NA,NA,NA,NA,NA,NA,NA,0,1,1,2,1,NA,NA,NA,NA,NA
SUPAMT45944,3I7DHKZYGTZ4BIVAILLBA1BBH6ZF57,F13C6F2B-1B34-4EC4-9F59-B6417DC8E25C,2023-09-28_12h55.29.640,WP_VExplicitOC_HL,2022.2.5,Win32,16.13710081,94.01041667,3.685,2.0344,NA,NA,NA,NA,NA,frustrated,"frustrated, not frustrated","more frustrated, less frustrated",NA,NA,NA,NA,NA,NA,NA,NA,NA,NA,NA,NA,NA,NA,NA,NA,NA,NA,NA,NA,NA,NA,NA,NA,NA,NA,NA,NA,NA,NA,NA,NA,NA,NA,NA,NA,NA,NA,0,2,2,1,1,NA,NA,NA,NA,NA
SUPAMT45944,3I7DHKZYGTZ4BIVAILLBA1BBH6ZF57,F13C6F2B-1B34-4EC4-9F59-B6417DC8E25C,2023-09-28_12h55.29.640,WP_VExplicitOC_HL,2022.2.5,Win32,16.13710081,NA,NA,NA,NA,NA,NA,NA,NA,NA,NA,NA,NA,NA,NA,NA,NA,NA,NA,NA,NA,NA,NA,NA,NA,NA,NA,NA,NA,NA,NA,NA,NA,NA,NA,NA,NA,NA,NA,NA,NA,NA,NA,NA,NA,NA,NA,NA,NA,NA,NA,NA,NA,NA,NA,10,0,10,0,1
SUPAMT45944,3I7DHKZYGTZ4BIVAILLBA1BBH6ZF57,F13C6F2B-1B34-4EC4-9F59-B6417DC8E25C,2023-09-28_12h55.29.640,WP_VExplicitOC_HL,2022.2.5,Win32,16.13710081,NA,NA,2.0285,NA,NA,NA,NA,NA,frustrated,"frustrated, not frustrated","more frustrated, less frustrated",NA,NA,NA,NA,NA,NA,NA,NA,NA,NA,NA,NA,NA,NA,NA,NA,NA,NA,NA,NA,NA,NA,NA,NA,NA,NA,NA,NA,NA,NA,NA,NA,NA,NA,NA,NA,NA,NA,0,0,0,1,1,NA,NA,NA,NA,NA
SUPAMT45944,3I7DHKZYGTZ4BIVAILLBA1BBH6ZF57,F13C6F2B-1B34-4EC4-9F59-B6417DC8E25C,2023-09-28_12h55.29.640,WP_VExplicitOC_HL,2022.2.5,Win32,16.13710081,NA,NA,2.0308,NA,NA,NA,NA,NA,happy,"unhappy, happy","less happy, more happy",NA,NA,NA,NA,NA,NA,NA,NA,NA,NA,NA,NA,NA,NA,NA,NA,NA,NA,NA,NA,NA,NA,NA,NA,NA,NA,NA,NA,NA,NA,NA,NA,NA,NA,NA,NA,NA,NA,0,1,1,0,1,NA,NA,NA,NA,NA
SUPAMT45944,3I7DHKZYGTZ4BIVAILLBA1BBH6ZF57,F13C6F2B-1B34-4EC4-9F59-B6417DC8E25C,2023-09-28_12h55.29.640,WP_VExplicitOC_HL,2022.2.5,Win32,16.13710081,91.14583333,3.8705,2.0572,NA,NA,NA,NA,NA,bored,"bored, not bored","more bored, less bored",NA,NA,NA,NA,NA,NA,NA,NA,NA,NA,NA,NA,NA,NA,NA,NA,NA,NA,NA,NA,NA,NA,NA,NA,NA,NA,NA,NA,NA,NA,NA,NA,NA,NA,NA,NA,NA,NA,0,2,2,2,1,NA,NA,NA,NA,NA
SUPAMT45944,3I7DHKZYGTZ4BIVAILLBA1BBH6ZF57,F13C6F2B-1B34-4EC4-9F59-B6417DC8E25C,2023-09-28_12h55.29.640,WP_VExplicitOC_HL,2022.2.5,Win32,16.13710081,NA,NA,NA,NA,NA,NA,NA,NA,NA,NA,NA,NA,NA,NA,NA,NA,NA,NA,NA,NA,NA,NA,NA,NA,NA,NA,NA,NA,NA,NA,NA,NA,NA,NA,NA,NA,NA,NA,NA,NA,NA,NA,NA,NA,NA,NA,NA,NA,NA,NA,NA,NA,NA,NA,11,0,11,0,1
SUPAMT45944,3I7DHKZYGTZ4BIVAILLBA1BBH6ZF57,F13C6F2B-1B34-4EC4-9F59-B6417DC8E25C,2023-09-28_12h55.29.640,WP_VExplicitOC_HL,2022.2.5,Win32,16.13710081,93.75,4.6553,2.0443,NA,NA,NA,NA,NA,happy,"unhappy, happy","less happy, more happy",NA,NA,NA,NA,NA,NA,NA,NA,NA,NA,NA,NA,NA,NA,NA,NA,NA,NA,NA,NA,NA,NA,NA,NA,NA,NA,NA,NA,NA,NA,NA,NA,NA,NA,NA,NA,NA,NA,0,0,0,0,1,NA,NA,NA,NA,NA
SUPAMT45944,3I7DHKZYGTZ4BIVAILLBA1BBH6ZF57,F13C6F2B-1B34-4EC4-9F59-B6417DC8E25C,2023-09-28_12h55.29.640,WP_VExplicitOC_HL,2022.2.5,Win32,16.13710081,96.35416667,3.8109,2.0049,NA,NA,NA,NA,NA,frustrated,"frustrated, not frustrated","more frustrated, less frustrated",NA,NA,NA,NA,NA,NA,NA,NA,NA,NA,NA,NA,NA,NA,NA,NA,NA,NA,NA,NA,NA,NA,NA,NA,NA,NA,NA,NA,NA,NA,NA,NA,NA,NA,NA,NA,NA,NA,0,1,1,1,1,NA,NA,NA,NA,NA
SUPAMT45944,3I7DHKZYGTZ4BIVAILLBA1BBH6ZF57,F13C6F2B-1B34-4EC4-9F59-B6417DC8E25C,2023-09-28_12h55.29.640,WP_VExplicitOC_HL,2022.2.5,Win32,16.13710081,96.35416667,3.9659,2.0734,NA,NA,NA,NA,NA,bored,"bored, not bored","more bored, less bored",NA,NA,NA,NA,NA,NA,NA,NA,NA,NA,NA,NA,NA,NA,NA,NA,NA,NA,NA,NA,NA,NA,NA,NA,NA,NA,NA,NA,NA,NA,NA,NA,NA,NA,NA,NA,NA,NA,0,2,2,2,1,NA,NA,NA,NA,NA
SUPAMT45944,3I7DHKZYGTZ4BIVAILLBA1BBH6ZF57,F13C6F2B-1B34-4EC4-9F59-B6417DC8E25C,2023-09-28_12h55.29.640,WP_VExplicitOC_HL,2022.2.5,Win32,16.13710081,NA,NA,NA,NA,NA,NA,NA,NA,NA,NA,NA,NA,NA,NA,NA,NA,NA,NA,NA,NA,NA,NA,NA,NA,NA,NA,NA,NA,NA,NA,NA,NA,NA,NA,NA,NA,NA,NA,NA,NA,NA,NA,NA,NA,NA,NA,NA,NA,NA,NA,NA,NA,NA,NA,12,0,12,0,1
SUPAMT45944,3I7DHKZYGTZ4BIVAILLBA1BBH6ZF57,F13C6F2B-1B34-4EC4-9F59-B6417DC8E25C,2023-09-28_12h55.29.640,WP_VExplicitOC_HL,2022.2.5,Win32,16.13710081,92.16589862,4.1807,2.0422,NA,NA,NA,NA,NA,bored,"bored, not bored","more bored, less bored",NA,NA,NA,NA,NA,NA,NA,NA,NA,NA,NA,NA,NA,NA,NA,NA,NA,NA,NA,NA,NA,NA,NA,NA,NA,NA,NA,NA,NA,NA,NA,NA,NA,NA,NA,NA,NA,NA,0,0,0,2,1,NA,NA,NA,NA,NA
SUPAMT45944,3I7DHKZYGTZ4BIVAILLBA1BBH6ZF57,F13C6F2B-1B34-4EC4-9F59-B6417DC8E25C,2023-09-28_12h55.29.640,WP_VExplicitOC_HL,2022.2.5,Win32,16.13710081,96.15975422,4.4986,2.0099,NA,NA,NA,NA,NA,happy,"unhappy, happy","less happy, more happy",NA,NA,NA,NA,NA,NA,NA,NA,NA,NA,NA,NA,NA,NA,NA,NA,NA,NA,NA,NA,NA,NA,NA,NA,NA,NA,NA,NA,NA,NA,NA,NA,NA,NA,NA,NA,NA,NA,0,1,1,0,1,NA,NA,NA,NA,NA
SUPAMT45944,3I7DHKZYGTZ4BIVAILLBA1BBH6ZF57,F13C6F2B-1B34-4EC4-9F59-B6417DC8E25C,2023-09-28_12h55.29.640,WP_VExplicitOC_HL,2022.2.5,Win32,16.13710081,94.62365591,4.0565,2.0535,NA,NA,NA,NA,NA,frustrated,"frustrated, not frustrated","more frustrated, less frustrated",NA,NA,NA,NA,NA,NA,NA,NA,NA,NA,NA,NA,NA,NA,NA,NA,NA,NA,NA,NA,NA,NA,NA,NA,NA,NA,NA,NA,NA,NA,NA,NA,NA,NA,NA,NA,NA,NA,0,2,2,1,1,NA,NA,NA,NA,NA
SUPAMT45944,3I7DHKZYGTZ4BIVAILLBA1BBH6ZF57,F13C6F2B-1B34-4EC4-9F59-B6417DC8E25C,2023-09-28_12h55.29.640,WP_VExplicitOC_HL,2022.2.5,Win32,16.13710081,NA,NA,NA,NA,NA,NA,NA,NA,NA,NA,NA,NA,NA,NA,NA,NA,NA,NA,NA,NA,NA,NA,NA,NA,NA,NA,NA,NA,NA,NA,NA,NA,NA,NA,NA,NA,NA,NA,NA,NA,NA,NA,NA,NA,NA,NA,NA,NA,NA,NA,NA,NA,NA,NA,13,0,13,0,1
SUPAMT45944,3I7DHKZYGTZ4BIVAILLBA1BBH6ZF57,F13C6F2B-1B34-4EC4-9F59-B6417DC8E25C,2023-09-28_12h55.29.640,WP_VExplicitOC_HL,2022.2.5,Win32,16.13710081,96.15975422,5.1471,2.0081,NA,NA,NA,NA,NA,happy,"unhappy, happy","less happy, more happy",NA,NA,NA,NA,NA,NA,NA,NA,NA,NA,NA,NA,NA,NA,NA,NA,NA,NA,NA,NA,NA,NA,NA,NA,NA,NA,NA,NA,NA,NA,NA,NA,NA,NA,NA,NA,NA,NA,0,0,0,0,1,NA,NA,NA,NA,NA
SUPAMT45944,3I7DHKZYGTZ4BIVAILLBA1BBH6ZF57,F13C6F2B-1B34-4EC4-9F59-B6417DC8E25C,2023-09-28_12h55.29.640,WP_VExplicitOC_HL,2022.2.5,Win32,16.13710081,NA,NA,2.0481,NA,NA,NA,NA,NA,frustrated,"frustrated, not frustrated","more frustrated, less frustrated",NA,NA,NA,NA,NA,NA,NA,NA,NA,NA,NA,NA,NA,NA,NA,NA,NA,NA,NA,NA,NA,NA,NA,NA,NA,NA,NA,NA,NA,NA,NA,NA,NA,NA,NA,NA,NA,NA,0,1,1,1,1,NA,NA,NA,NA,NA
SUPAMT45944,3I7DHKZYGTZ4BIVAILLBA1BBH6ZF57,F13C6F2B-1B34-4EC4-9F59-B6417DC8E25C,2023-09-28_12h55.29.640,WP_VExplicitOC_HL,2022.2.5,Win32,16.13710081,95.85253456,4.1936,2.0318,NA,NA,NA,NA,NA,bored,"bored, not bored","more bored, less bored",NA,NA,NA,NA,NA,NA,NA,NA,NA,NA,NA,NA,NA,NA,NA,NA,NA,NA,NA,NA,NA,NA,NA,NA,NA,NA,NA,NA,NA,NA,NA,NA,NA,NA,NA,NA,NA,NA,0,2,2,2,1,NA,NA,NA,NA,NA
SUPAMT45944,3I7DHKZYGTZ4BIVAILLBA1BBH6ZF57,F13C6F2B-1B34-4EC4-9F59-B6417DC8E25C,2023-09-28_12h55.29.640,WP_VExplicitOC_HL,2022.2.5,Win32,16.13710081,NA,NA,NA,NA,NA,NA,NA,NA,NA,NA,NA,NA,NA,NA,NA,NA,NA,NA,NA,NA,NA,NA,NA,NA,NA,NA,NA,NA,NA,NA,NA,NA,NA,NA,NA,NA,NA,NA,NA,NA,NA,NA,NA,NA,NA,NA,NA,NA,NA,NA,NA,NA,NA,NA,14,0,14,0,1
SUPAMT45944,3I7DHKZYGTZ4BIVAILLBA1BBH6ZF57,F13C6F2B-1B34-4EC4-9F59-B6417DC8E25C,2023-09-28_12h55.29.640,WP_VExplicitOC_HL,2022.2.5,Win32,16.13710081,NA,NA,NA,NA,NA,NA,NA,NA,NA,NA,NA,NA,NA,NA,NA,NA,NA,NA,NA,NA,NA,NA,NA,NA,NA,NA,NA,NA,NA,NA,NA,NA,NA,NA,NA,NA,NA,NA,NA,NA,NA,NA,NA,NA,NA,NA,NA,NA,NA,NA,NA,NA,NA,NA,NA,NA,NA,NA,NA
