participant,session,completion,date,expName,psychopyVersion,OS,frameRate,rating_all.response,rating_all.rt,rating_all.tStart,rndRat1.thisRepN,rndRat1.thisTrialN,rndRat1.thisN,rndRat1.thisIndex,rndRat1.ran,Emo,Labs,Labs2,rating_alt.response,rating_alt.rt,AltC.thisRepN,AltC.thisTrialN,AltC.thisN,AltC.thisIndex,AltC.ran,alt_choices,pic_choices,TopAlt_Choice,rndRat2.thisRepN,rndRat2.thisTrialN,rndRat2.thisN,rndRat2.thisIndex,rndRat2.ran,rndRat3.thisRepN,rndRat3.thisTrialN,rndRat3.thisN,rndRat3.thisIndex,rndRat3.ran,trials_FC_H.thisRepN,trials_FC_H.thisTrialN,trials_FC_H.thisN,trials_FC_H.thisIndex,trials_FC_H.ran,rating_alt_2.response,rating_alt_2.rt,AltC2.thisRepN,AltC2.thisTrialN,AltC2.thisN,AltC2.thisIndex,AltC2.ran,BottomAlt_Choice,rndRat4.thisRepN,rndRat4.thisTrialN,rndRat4.thisN,rndRat4.thisIndex,rndRat4.ran,rndRat5.thisRepN,rndRat5.thisTrialN,rndRat5.thisN,rndRat5.thisIndex,rndRat5.ran,trials_FC_L.thisRepN,trials_FC_L.thisTrialN,trials_FC_L.thisN,trials_FC_L.thisIndex,trials_FC_L.ran
SUPAMT59156,3WEV0KO0OSR8J0FP3B3TFCIIJ7WDSP,EFBCA522-9E3E-4B07-A772-0B143C88E8CE,2023-09-27_13h22.27.502,WP_VExplicitOC_HL,2022.2.5,Win32,8.115104644,NA,NA,NA,NA,NA,NA,NA,NA,NA,NA,NA,NA,NA,NA,NA,NA,NA,NA,NA,NA,NA,NA,NA,NA,NA,NA,NA,NA,NA,NA,NA,NA,NA,NA,NA,NA,NA,NA,NA,NA,NA,NA,NA,NA,NA,NA,NA,NA,NA,NA,NA,NA,NA,NA,NA,NA,NA,NA,NA
SUPAMT59156,3WEV0KO0OSR8J0FP3B3TFCIIJ7WDSP,EFBCA522-9E3E-4B07-A772-0B143C88E8CE,2023-09-27_13h22.27.502,WP_VExplicitOC_HL,2022.2.5,Win32,8.115104644,NA,NA,NA,NA,NA,NA,NA,NA,NA,NA,NA,NA,NA,NA,NA,NA,NA,NA,NA,NA,NA,NA,NA,NA,NA,NA,NA,NA,NA,NA,NA,NA,NA,NA,NA,NA,NA,NA,NA,NA,NA,NA,NA,NA,NA,NA,NA,NA,NA,NA,NA,NA,NA,NA,NA,NA,NA,NA,NA
SUPAMT59156,3WEV0KO0OSR8J0FP3B3TFCIIJ7WDSP,EFBCA522-9E3E-4B07-A772-0B143C88E8CE,2023-09-27_13h22.27.502,WP_VExplicitOC_HL,2022.2.5,Win32,8.115104644,NA,NA,NA,NA,NA,NA,NA,NA,NA,NA,NA,NA,NA,NA,NA,NA,NA,NA,NA,NA,NA,NA,NA,NA,NA,NA,NA,NA,NA,NA,NA,NA,NA,NA,NA,NA,NA,NA,NA,NA,NA,NA,NA,NA,NA,NA,NA,NA,NA,NA,NA,NA,NA,NA,NA,NA,NA,NA,NA
SUPAMT59156,3WEV0KO0OSR8J0FP3B3TFCIIJ7WDSP,EFBCA522-9E3E-4B07-A772-0B143C88E8CE,2023-09-27_13h22.27.502,WP_VExplicitOC_HL,2022.2.5,Win32,8.115104644,36.45833333,6.0542,2.0781,0,0,0,1,1,frustrated,"frustrated, not frustrated","more frustrated, less frustrated",NA,NA,NA,NA,NA,NA,NA,NA,NA,NA,NA,NA,NA,NA,NA,NA,NA,NA,NA,NA,NA,NA,NA,NA,NA,NA,NA,NA,NA,NA,NA,NA,NA,NA,NA,NA,NA,NA,NA,NA,NA,NA,NA,NA,NA,NA,NA,NA
SUPAMT59156,3WEV0KO0OSR8J0FP3B3TFCIIJ7WDSP,EFBCA522-9E3E-4B07-A772-0B143C88E8CE,2023-09-27_13h22.27.502,WP_VExplicitOC_HL,2022.2.5,Win32,8.115104644,27.86458333,3.6827,2.0253,0,1,1,2,1,bored,"bored, not bored","more bored, less bored",NA,NA,NA,NA,NA,NA,NA,NA,NA,NA,NA,NA,NA,NA,NA,NA,NA,NA,NA,NA,NA,NA,NA,NA,NA,NA,NA,NA,NA,NA,NA,NA,NA,NA,NA,NA,NA,NA,NA,NA,NA,NA,NA,NA,NA,NA,NA,NA
SUPAMT59156,3WEV0KO0OSR8J0FP3B3TFCIIJ7WDSP,EFBCA522-9E3E-4B07-A772-0B143C88E8CE,2023-09-27_13h22.27.502,WP_VExplicitOC_HL,2022.2.5,Win32,8.115104644,38.54166667,4.0423,2.1228,0,2,2,0,1,happy,"unhappy, happy","less happy, more happy",NA,NA,NA,NA,NA,NA,NA,NA,NA,NA,NA,NA,NA,NA,NA,NA,NA,NA,NA,NA,NA,NA,NA,NA,NA,NA,NA,NA,NA,NA,NA,NA,NA,NA,NA,NA,NA,NA,NA,NA,NA,NA,NA,NA,NA,NA,NA,NA
SUPAMT59156,3WEV0KO0OSR8J0FP3B3TFCIIJ7WDSP,EFBCA522-9E3E-4B07-A772-0B143C88E8CE,2023-09-27_13h22.27.502,WP_VExplicitOC_HL,2022.2.5,Win32,8.115104644,NA,NA,NA,NA,NA,NA,NA,NA,NA,NA,NA,NA,NA,NA,NA,NA,NA,NA,NA,NA,NA,NA,NA,NA,NA,NA,NA,NA,NA,NA,NA,NA,NA,NA,NA,NA,NA,NA,NA,NA,NA,NA,NA,NA,NA,NA,NA,NA,NA,NA,NA,NA,NA,NA,NA,NA,NA,NA,NA
SUPAMT59156,3WEV0KO0OSR8J0FP3B3TFCIIJ7WDSP,EFBCA522-9E3E-4B07-A772-0B143C88E8CE,2023-09-27_13h22.27.502,WP_VExplicitOC_HL,2022.2.5,Win32,8.115104644,NA,NA,NA,NA,NA,NA,NA,NA,NA,NA,NA,NA,NA,NA,NA,NA,NA,NA,NA,NA,NA,NA,NA,NA,NA,NA,NA,NA,NA,NA,NA,NA,NA,NA,NA,NA,NA,NA,NA,NA,NA,NA,NA,NA,NA,NA,NA,NA,NA,NA,NA,NA,NA,NA,NA,NA,NA,NA,NA
SUPAMT59156,3WEV0KO0OSR8J0FP3B3TFCIIJ7WDSP,EFBCA522-9E3E-4B07-A772-0B143C88E8CE,2023-09-27_13h22.27.502,WP_VExplicitOC_HL,2022.2.5,Win32,8.115104644,NA,NA,NA,NA,NA,NA,NA,NA,NA,NA,NA,NA,NA,NA,NA,NA,NA,NA,NA,NA,NA,NA,NA,NA,NA,NA,NA,NA,NA,NA,NA,NA,NA,NA,NA,NA,NA,NA,NA,NA,NA,NA,NA,NA,NA,NA,NA,NA,NA,NA,NA,NA,NA,NA,NA,NA,NA,NA,NA
SUPAMT59156,3WEV0KO0OSR8J0FP3B3TFCIIJ7WDSP,EFBCA522-9E3E-4B07-A772-0B143C88E8CE,2023-09-27_13h22.27.502,WP_VExplicitOC_HL,2022.2.5,Win32,8.115104644,NA,NA,NA,NA,NA,NA,NA,NA,NA,NA,NA,NA,NA,NA,NA,NA,NA,NA,NA,NA,NA,NA,NA,NA,NA,NA,NA,NA,NA,NA,NA,NA,NA,NA,NA,NA,NA,NA,NA,NA,NA,NA,NA,NA,NA,NA,NA,NA,NA,NA,NA,NA,NA,NA,NA,NA,NA,NA,NA
SUPAMT59156,3WEV0KO0OSR8J0FP3B3TFCIIJ7WDSP,EFBCA522-9E3E-4B07-A772-0B143C88E8CE,2023-09-27_13h22.27.502,WP_VExplicitOC_HL,2022.2.5,Win32,8.115104644,NA,NA,NA,NA,NA,NA,NA,NA,NA,NA,NA,-34.11458333,1.9023,0,0,0,0,1,rest (looking at a fixed cross),001.png,NA,NA,NA,NA,NA,NA,NA,NA,NA,NA,NA,NA,NA,NA,NA,NA,NA,NA,NA,NA,NA,NA,NA,NA,NA,NA,NA,NA,NA,NA,NA,NA,NA,NA,NA,NA,NA,NA,NA
SUPAMT59156,3WEV0KO0OSR8J0FP3B3TFCIIJ7WDSP,EFBCA522-9E3E-4B07-A772-0B143C88E8CE,2023-09-27_13h22.27.502,WP_VExplicitOC_HL,2022.2.5,Win32,8.115104644,NA,NA,NA,NA,NA,NA,NA,NA,NA,NA,NA,38.54166667,2.5251,0,1,1,1,1,stand up,002.png,NA,NA,NA,NA,NA,NA,NA,NA,NA,NA,NA,NA,NA,NA,NA,NA,NA,NA,NA,NA,NA,NA,NA,NA,NA,NA,NA,NA,NA,NA,NA,NA,NA,NA,NA,NA,NA,NA,NA
SUPAMT59156,3WEV0KO0OSR8J0FP3B3TFCIIJ7WDSP,EFBCA522-9E3E-4B07-A772-0B143C88E8CE,2023-09-27_13h22.27.502,WP_VExplicitOC_HL,2022.2.5,Win32,8.115104644,NA,NA,NA,NA,NA,NA,NA,NA,NA,NA,NA,40.625,2.2683,0,2,2,2,1,stretch,003.png,NA,NA,NA,NA,NA,NA,NA,NA,NA,NA,NA,NA,NA,NA,NA,NA,NA,NA,NA,NA,NA,NA,NA,NA,NA,NA,NA,NA,NA,NA,NA,NA,NA,NA,NA,NA,NA,NA,NA
SUPAMT59156,3WEV0KO0OSR8J0FP3B3TFCIIJ7WDSP,EFBCA522-9E3E-4B07-A772-0B143C88E8CE,2023-09-27_13h22.27.502,WP_VExplicitOC_HL,2022.2.5,Win32,8.115104644,NA,NA,NA,NA,NA,NA,NA,NA,NA,NA,NA,29.94791667,2.6182,0,3,3,3,1,make a drink,004.png,NA,NA,NA,NA,NA,NA,NA,NA,NA,NA,NA,NA,NA,NA,NA,NA,NA,NA,NA,NA,NA,NA,NA,NA,NA,NA,NA,NA,NA,NA,NA,NA,NA,NA,NA,NA,NA,NA,NA
SUPAMT59156,3WEV0KO0OSR8J0FP3B3TFCIIJ7WDSP,EFBCA522-9E3E-4B07-A772-0B143C88E8CE,2023-09-27_13h22.27.502,WP_VExplicitOC_HL,2022.2.5,Win32,8.115104644,NA,NA,NA,NA,NA,NA,NA,NA,NA,NA,NA,28.64583333,2.7369,0,4,4,4,1,scroll social media,005.png,NA,NA,NA,NA,NA,NA,NA,NA,NA,NA,NA,NA,NA,NA,NA,NA,NA,NA,NA,NA,NA,NA,NA,NA,NA,NA,NA,NA,NA,NA,NA,NA,NA,NA,NA,NA,NA,NA,NA
SUPAMT59156,3WEV0KO0OSR8J0FP3B3TFCIIJ7WDSP,EFBCA522-9E3E-4B07-A772-0B143C88E8CE,2023-09-27_13h22.27.502,WP_VExplicitOC_HL,2022.2.5,Win32,8.115104644,NA,NA,NA,NA,NA,NA,NA,NA,NA,NA,NA,26.82291667,2.6866,0,5,5,5,1,listen to music,006.png,NA,NA,NA,NA,NA,NA,NA,NA,NA,NA,NA,NA,NA,NA,NA,NA,NA,NA,NA,NA,NA,NA,NA,NA,NA,NA,NA,NA,NA,NA,NA,NA,NA,NA,NA,NA,NA,NA,NA
SUPAMT59156,3WEV0KO0OSR8J0FP3B3TFCIIJ7WDSP,EFBCA522-9E3E-4B07-A772-0B143C88E8CE,2023-09-27_13h22.27.502,WP_VExplicitOC_HL,2022.2.5,Win32,8.115104644,NA,NA,NA,NA,NA,NA,NA,NA,NA,NA,NA,26.82291667,0.5548,0,6,6,6,1,daydream,007.png,NA,NA,NA,NA,NA,NA,NA,NA,NA,NA,NA,NA,NA,NA,NA,NA,NA,NA,NA,NA,NA,NA,NA,NA,NA,NA,NA,NA,NA,NA,NA,NA,NA,NA,NA,NA,NA,NA,NA
SUPAMT59156,3WEV0KO0OSR8J0FP3B3TFCIIJ7WDSP,EFBCA522-9E3E-4B07-A772-0B143C88E8CE,2023-09-27_13h22.27.502,WP_VExplicitOC_HL,2022.2.5,Win32,8.115104644,NA,NA,NA,NA,NA,NA,NA,NA,NA,NA,NA,26.82291667,0.8467,0,7,7,7,1,watch a short animation,008.png,NA,NA,NA,NA,NA,NA,NA,NA,NA,NA,NA,NA,NA,NA,NA,NA,NA,NA,NA,NA,NA,NA,NA,NA,NA,NA,NA,NA,NA,NA,NA,NA,NA,NA,NA,NA,NA,NA,NA
SUPAMT59156,3WEV0KO0OSR8J0FP3B3TFCIIJ7WDSP,EFBCA522-9E3E-4B07-A772-0B143C88E8CE,2023-09-27_13h22.27.502,WP_VExplicitOC_HL,2022.2.5,Win32,8.115104644,NA,NA,NA,NA,NA,NA,NA,NA,NA,NA,NA,26.82291667,0.8742,0,8,8,8,1,read a novel,009.png,NA,NA,NA,NA,NA,NA,NA,NA,NA,NA,NA,NA,NA,NA,NA,NA,NA,NA,NA,NA,NA,NA,NA,NA,NA,NA,NA,NA,NA,NA,NA,NA,NA,NA,NA,NA,NA,NA,NA
SUPAMT59156,3WEV0KO0OSR8J0FP3B3TFCIIJ7WDSP,EFBCA522-9E3E-4B07-A772-0B143C88E8CE,2023-09-27_13h22.27.502,WP_VExplicitOC_HL,2022.2.5,Win32,8.115104644,NA,NA,NA,NA,NA,NA,NA,NA,NA,NA,NA,26.82291667,2.2454,0,9,9,9,1,read the news,010.png,NA,NA,NA,NA,NA,NA,NA,NA,NA,NA,NA,NA,NA,NA,NA,NA,NA,NA,NA,NA,NA,NA,NA,NA,NA,NA,NA,NA,NA,NA,NA,NA,NA,NA,NA,NA,NA,NA,NA
SUPAMT59156,3WEV0KO0OSR8J0FP3B3TFCIIJ7WDSP,EFBCA522-9E3E-4B07-A772-0B143C88E8CE,2023-09-27_13h22.27.502,WP_VExplicitOC_HL,2022.2.5,Win32,8.115104644,NA,NA,NA,NA,NA,NA,NA,NA,NA,NA,NA,NA,NA,NA,NA,NA,NA,NA,NA,NA,NA,NA,NA,NA,NA,NA,NA,NA,NA,NA,NA,NA,NA,NA,NA,NA,NA,NA,NA,NA,NA,NA,NA,NA,NA,NA,NA,NA,NA,NA,NA,NA,NA,NA,NA,NA,NA,NA,NA
SUPAMT59156,3WEV0KO0OSR8J0FP3B3TFCIIJ7WDSP,EFBCA522-9E3E-4B07-A772-0B143C88E8CE,2023-09-27_13h22.27.502,WP_VExplicitOC_HL,2022.2.5,Win32,8.115104644,NA,NA,NA,NA,NA,NA,NA,NA,NA,NA,NA,NA,NA,NA,NA,NA,NA,NA,NA,NA,stretch,NA,NA,NA,NA,NA,NA,NA,NA,NA,NA,NA,NA,NA,NA,NA,NA,NA,NA,NA,NA,NA,NA,NA,NA,NA,NA,NA,NA,NA,NA,NA,NA,NA,NA,NA,NA,NA,NA
SUPAMT59156,3WEV0KO0OSR8J0FP3B3TFCIIJ7WDSP,EFBCA522-9E3E-4B07-A772-0B143C88E8CE,2023-09-27_13h22.27.502,WP_VExplicitOC_HL,2022.2.5,Win32,8.115104644,61.19791667,7.2523,2.0198,NA,NA,NA,NA,NA,happy,"unhappy, happy","less happy, more happy",NA,NA,NA,NA,NA,NA,NA,NA,NA,NA,0,0,0,0,1,NA,NA,NA,NA,NA,NA,NA,NA,NA,NA,NA,NA,NA,NA,NA,NA,NA,NA,NA,NA,NA,NA,NA,NA,NA,NA,NA,NA,NA,NA,NA,NA,NA
SUPAMT59156,3WEV0KO0OSR8J0FP3B3TFCIIJ7WDSP,EFBCA522-9E3E-4B07-A772-0B143C88E8CE,2023-09-27_13h22.27.502,WP_VExplicitOC_HL,2022.2.5,Win32,8.115104644,62.23958333,3.2509,2.0742,NA,NA,NA,NA,NA,frustrated,"frustrated, not frustrated","more frustrated, less frustrated",NA,NA,NA,NA,NA,NA,NA,NA,NA,NA,0,1,1,1,1,NA,NA,NA,NA,NA,NA,NA,NA,NA,NA,NA,NA,NA,NA,NA,NA,NA,NA,NA,NA,NA,NA,NA,NA,NA,NA,NA,NA,NA,NA,NA,NA,NA
SUPAMT59156,3WEV0KO0OSR8J0FP3B3TFCIIJ7WDSP,EFBCA522-9E3E-4B07-A772-0B143C88E8CE,2023-09-27_13h22.27.502,WP_VExplicitOC_HL,2022.2.5,Win32,8.115104644,44.53125,3.3379,2.0822,NA,NA,NA,NA,NA,bored,"bored, not bored","more bored, less bored",NA,NA,NA,NA,NA,NA,NA,NA,NA,NA,0,2,2,2,1,NA,NA,NA,NA,NA,NA,NA,NA,NA,NA,NA,NA,NA,NA,NA,NA,NA,NA,NA,NA,NA,NA,NA,NA,NA,NA,NA,NA,NA,NA,NA,NA,NA
SUPAMT59156,3WEV0KO0OSR8J0FP3B3TFCIIJ7WDSP,EFBCA522-9E3E-4B07-A772-0B143C88E8CE,2023-09-27_13h22.27.502,WP_VExplicitOC_HL,2022.2.5,Win32,8.115104644,NA,NA,NA,NA,NA,NA,NA,NA,NA,NA,NA,NA,NA,NA,NA,NA,NA,NA,NA,NA,NA,NA,NA,NA,NA,NA,NA,NA,NA,NA,NA,NA,NA,NA,NA,NA,NA,NA,NA,NA,NA,NA,NA,NA,NA,NA,NA,NA,NA,NA,NA,NA,NA,NA,NA,NA,NA,NA,NA
SUPAMT59156,3WEV0KO0OSR8J0FP3B3TFCIIJ7WDSP,EFBCA522-9E3E-4B07-A772-0B143C88E8CE,2023-09-27_13h22.27.502,WP_VExplicitOC_HL,2022.2.5,Win32,8.115104644,NA,NA,NA,NA,NA,NA,NA,NA,NA,NA,NA,NA,NA,NA,NA,NA,NA,NA,NA,NA,NA,NA,NA,NA,NA,NA,NA,NA,NA,NA,NA,NA,NA,NA,NA,NA,NA,NA,NA,NA,NA,NA,NA,NA,NA,NA,NA,NA,NA,NA,NA,NA,NA,NA,NA,NA,NA,NA,NA
SUPAMT59156,3WEV0KO0OSR8J0FP3B3TFCIIJ7WDSP,EFBCA522-9E3E-4B07-A772-0B143C88E8CE,2023-09-27_13h22.27.502,WP_VExplicitOC_HL,2022.2.5,Win32,8.115104644,34.11458333,3.6394,2.033,NA,NA,NA,NA,NA,frustrated,"frustrated, not frustrated","more frustrated, less frustrated",NA,NA,NA,NA,NA,NA,NA,NA,NA,NA,NA,NA,NA,NA,NA,0,0,0,1,1,NA,NA,NA,NA,NA,NA,NA,NA,NA,NA,NA,NA,NA,NA,NA,NA,NA,NA,NA,NA,NA,NA,NA,NA,NA,NA,NA,NA
SUPAMT59156,3WEV0KO0OSR8J0FP3B3TFCIIJ7WDSP,EFBCA522-9E3E-4B07-A772-0B143C88E8CE,2023-09-27_13h22.27.502,WP_VExplicitOC_HL,2022.2.5,Win32,8.115104644,42.70833333,3.4976,2.1139,NA,NA,NA,NA,NA,happy,"unhappy, happy","less happy, more happy",NA,NA,NA,NA,NA,NA,NA,NA,NA,NA,NA,NA,NA,NA,NA,0,1,1,0,1,NA,NA,NA,NA,NA,NA,NA,NA,NA,NA,NA,NA,NA,NA,NA,NA,NA,NA,NA,NA,NA,NA,NA,NA,NA,NA,NA,NA
SUPAMT59156,3WEV0KO0OSR8J0FP3B3TFCIIJ7WDSP,EFBCA522-9E3E-4B07-A772-0B143C88E8CE,2023-09-27_13h22.27.502,WP_VExplicitOC_HL,2022.2.5,Win32,8.115104644,58.85416667,3.6386,2.1806,NA,NA,NA,NA,NA,bored,"bored, not bored","more bored, less bored",NA,NA,NA,NA,NA,NA,NA,NA,NA,NA,NA,NA,NA,NA,NA,0,2,2,2,1,NA,NA,NA,NA,NA,NA,NA,NA,NA,NA,NA,NA,NA,NA,NA,NA,NA,NA,NA,NA,NA,NA,NA,NA,NA,NA,NA,NA
SUPAMT59156,3WEV0KO0OSR8J0FP3B3TFCIIJ7WDSP,EFBCA522-9E3E-4B07-A772-0B143C88E8CE,2023-09-27_13h22.27.502,WP_VExplicitOC_HL,2022.2.5,Win32,8.115104644,NA,NA,NA,NA,NA,NA,NA,NA,NA,NA,NA,NA,NA,NA,NA,NA,NA,NA,NA,NA,NA,NA,NA,NA,NA,NA,NA,NA,NA,NA,NA,0,0,0,0,1,NA,NA,NA,NA,NA,NA,NA,NA,NA,NA,NA,NA,NA,NA,NA,NA,NA,NA,NA,NA,NA,NA,NA
SUPAMT59156,3WEV0KO0OSR8J0FP3B3TFCIIJ7WDSP,EFBCA522-9E3E-4B07-A772-0B143C88E8CE,2023-09-27_13h22.27.502,WP_VExplicitOC_HL,2022.2.5,Win32,8.115104644,37.76041667,5.6148,2.0978,NA,NA,NA,NA,NA,happy,"unhappy, happy","less happy, more happy",NA,NA,NA,NA,NA,NA,NA,NA,NA,NA,NA,NA,NA,NA,NA,0,0,0,0,1,NA,NA,NA,NA,NA,NA,NA,NA,NA,NA,NA,NA,NA,NA,NA,NA,NA,NA,NA,NA,NA,NA,NA,NA,NA,NA,NA,NA
SUPAMT59156,3WEV0KO0OSR8J0FP3B3TFCIIJ7WDSP,EFBCA522-9E3E-4B07-A772-0B143C88E8CE,2023-09-27_13h22.27.502,WP_VExplicitOC_HL,2022.2.5,Win32,8.115104644,52.86458333,4.5609,2.0293,NA,NA,NA,NA,NA,frustrated,"frustrated, not frustrated","more frustrated, less frustrated",NA,NA,NA,NA,NA,NA,NA,NA,NA,NA,NA,NA,NA,NA,NA,0,1,1,1,1,NA,NA,NA,NA,NA,NA,NA,NA,NA,NA,NA,NA,NA,NA,NA,NA,NA,NA,NA,NA,NA,NA,NA,NA,NA,NA,NA,NA
SUPAMT59156,3WEV0KO0OSR8J0FP3B3TFCIIJ7WDSP,EFBCA522-9E3E-4B07-A772-0B143C88E8CE,2023-09-27_13h22.27.502,WP_VExplicitOC_HL,2022.2.5,Win32,8.115104644,-24.21875,3.8937,2.1088,NA,NA,NA,NA,NA,bored,"bored, not bored","more bored, less bored",NA,NA,NA,NA,NA,NA,NA,NA,NA,NA,NA,NA,NA,NA,NA,0,2,2,2,1,NA,NA,NA,NA,NA,NA,NA,NA,NA,NA,NA,NA,NA,NA,NA,NA,NA,NA,NA,NA,NA,NA,NA,NA,NA,NA,NA,NA
SUPAMT59156,3WEV0KO0OSR8J0FP3B3TFCIIJ7WDSP,EFBCA522-9E3E-4B07-A772-0B143C88E8CE,2023-09-27_13h22.27.502,WP_VExplicitOC_HL,2022.2.5,Win32,8.115104644,NA,NA,NA,NA,NA,NA,NA,NA,NA,NA,NA,NA,NA,NA,NA,NA,NA,NA,NA,NA,NA,NA,NA,NA,NA,NA,NA,NA,NA,NA,NA,1,0,1,0,1,NA,NA,NA,NA,NA,NA,NA,NA,NA,NA,NA,NA,NA,NA,NA,NA,NA,NA,NA,NA,NA,NA,NA
SUPAMT59156,3WEV0KO0OSR8J0FP3B3TFCIIJ7WDSP,EFBCA522-9E3E-4B07-A772-0B143C88E8CE,2023-09-27_13h22.27.502,WP_VExplicitOC_HL,2022.2.5,Win32,8.115104644,61.97916667,3.7376,2.0953,NA,NA,NA,NA,NA,happy,"unhappy, happy","less happy, more happy",NA,NA,NA,NA,NA,NA,NA,NA,NA,NA,NA,NA,NA,NA,NA,0,0,0,0,1,NA,NA,NA,NA,NA,NA,NA,NA,NA,NA,NA,NA,NA,NA,NA,NA,NA,NA,NA,NA,NA,NA,NA,NA,NA,NA,NA,NA
SUPAMT59156,3WEV0KO0OSR8J0FP3B3TFCIIJ7WDSP,EFBCA522-9E3E-4B07-A772-0B143C88E8CE,2023-09-27_13h22.27.502,WP_VExplicitOC_HL,2022.2.5,Win32,8.115104644,60.15625,3.5317,2.0231,NA,NA,NA,NA,NA,bored,"bored, not bored","more bored, less bored",NA,NA,NA,NA,NA,NA,NA,NA,NA,NA,NA,NA,NA,NA,NA,0,1,1,2,1,NA,NA,NA,NA,NA,NA,NA,NA,NA,NA,NA,NA,NA,NA,NA,NA,NA,NA,NA,NA,NA,NA,NA,NA,NA,NA,NA,NA
SUPAMT59156,3WEV0KO0OSR8J0FP3B3TFCIIJ7WDSP,EFBCA522-9E3E-4B07-A772-0B143C88E8CE,2023-09-27_13h22.27.502,WP_VExplicitOC_HL,2022.2.5,Win32,8.115104644,61.97916667,3.8273,2.0755,NA,NA,NA,NA,NA,frustrated,"frustrated, not frustrated","more frustrated, less frustrated",NA,NA,NA,NA,NA,NA,NA,NA,NA,NA,NA,NA,NA,NA,NA,0,2,2,1,1,NA,NA,NA,NA,NA,NA,NA,NA,NA,NA,NA,NA,NA,NA,NA,NA,NA,NA,NA,NA,NA,NA,NA,NA,NA,NA,NA,NA
SUPAMT59156,3WEV0KO0OSR8J0FP3B3TFCIIJ7WDSP,EFBCA522-9E3E-4B07-A772-0B143C88E8CE,2023-09-27_13h22.27.502,WP_VExplicitOC_HL,2022.2.5,Win32,8.115104644,NA,NA,NA,NA,NA,NA,NA,NA,NA,NA,NA,NA,NA,NA,NA,NA,NA,NA,NA,NA,NA,NA,NA,NA,NA,NA,NA,NA,NA,NA,NA,2,0,2,0,1,NA,NA,NA,NA,NA,NA,NA,NA,NA,NA,NA,NA,NA,NA,NA,NA,NA,NA,NA,NA,NA,NA,NA
SUPAMT59156,3WEV0KO0OSR8J0FP3B3TFCIIJ7WDSP,EFBCA522-9E3E-4B07-A772-0B143C88E8CE,2023-09-27_13h22.27.502,WP_VExplicitOC_HL,2022.2.5,Win32,8.115104644,50,3.5892,2.0396,NA,NA,NA,NA,NA,bored,"bored, not bored","more bored, less bored",NA,NA,NA,NA,NA,NA,NA,NA,NA,NA,NA,NA,NA,NA,NA,0,0,0,2,1,NA,NA,NA,NA,NA,NA,NA,NA,NA,NA,NA,NA,NA,NA,NA,NA,NA,NA,NA,NA,NA,NA,NA,NA,NA,NA,NA,NA
SUPAMT59156,3WEV0KO0OSR8J0FP3B3TFCIIJ7WDSP,EFBCA522-9E3E-4B07-A772-0B143C88E8CE,2023-09-27_13h22.27.502,WP_VExplicitOC_HL,2022.2.5,Win32,8.115104644,48.95833333,3.6539,2.1171,NA,NA,NA,NA,NA,frustrated,"frustrated, not frustrated","more frustrated, less frustrated",NA,NA,NA,NA,NA,NA,NA,NA,NA,NA,NA,NA,NA,NA,NA,0,1,1,1,1,NA,NA,NA,NA,NA,NA,NA,NA,NA,NA,NA,NA,NA,NA,NA,NA,NA,NA,NA,NA,NA,NA,NA,NA,NA,NA,NA,NA
SUPAMT59156,3WEV0KO0OSR8J0FP3B3TFCIIJ7WDSP,EFBCA522-9E3E-4B07-A772-0B143C88E8CE,2023-09-27_13h22.27.502,WP_VExplicitOC_HL,2022.2.5,Win32,8.115104644,64.58333333,3.6646,2.0757,NA,NA,NA,NA,NA,happy,"unhappy, happy","less happy, more happy",NA,NA,NA,NA,NA,NA,NA,NA,NA,NA,NA,NA,NA,NA,NA,0,2,2,0,1,NA,NA,NA,NA,NA,NA,NA,NA,NA,NA,NA,NA,NA,NA,NA,NA,NA,NA,NA,NA,NA,NA,NA,NA,NA,NA,NA,NA
SUPAMT59156,3WEV0KO0OSR8J0FP3B3TFCIIJ7WDSP,EFBCA522-9E3E-4B07-A772-0B143C88E8CE,2023-09-27_13h22.27.502,WP_VExplicitOC_HL,2022.2.5,Win32,8.115104644,NA,NA,NA,NA,NA,NA,NA,NA,NA,NA,NA,NA,NA,NA,NA,NA,NA,NA,NA,NA,NA,NA,NA,NA,NA,NA,NA,NA,NA,NA,NA,3,0,3,0,1,NA,NA,NA,NA,NA,NA,NA,NA,NA,NA,NA,NA,NA,NA,NA,NA,NA,NA,NA,NA,NA,NA,NA
SUPAMT59156,3WEV0KO0OSR8J0FP3B3TFCIIJ7WDSP,EFBCA522-9E3E-4B07-A772-0B143C88E8CE,2023-09-27_13h22.27.502,WP_VExplicitOC_HL,2022.2.5,Win32,8.115104644,52.08333333,3.8311,2.004,NA,NA,NA,NA,NA,happy,"unhappy, happy","less happy, more happy",NA,NA,NA,NA,NA,NA,NA,NA,NA,NA,NA,NA,NA,NA,NA,0,0,0,0,1,NA,NA,NA,NA,NA,NA,NA,NA,NA,NA,NA,NA,NA,NA,NA,NA,NA,NA,NA,NA,NA,NA,NA,NA,NA,NA,NA,NA
SUPAMT59156,3WEV0KO0OSR8J0FP3B3TFCIIJ7WDSP,EFBCA522-9E3E-4B07-A772-0B143C88E8CE,2023-09-27_13h22.27.502,WP_VExplicitOC_HL,2022.2.5,Win32,8.115104644,53.90625,3.4978,2.084,NA,NA,NA,NA,NA,bored,"bored, not bored","more bored, less bored",NA,NA,NA,NA,NA,NA,NA,NA,NA,NA,NA,NA,NA,NA,NA,0,1,1,2,1,NA,NA,NA,NA,NA,NA,NA,NA,NA,NA,NA,NA,NA,NA,NA,NA,NA,NA,NA,NA,NA,NA,NA,NA,NA,NA,NA,NA
SUPAMT59156,3WEV0KO0OSR8J0FP3B3TFCIIJ7WDSP,EFBCA522-9E3E-4B07-A772-0B143C88E8CE,2023-09-27_13h22.27.502,WP_VExplicitOC_HL,2022.2.5,Win32,8.115104644,73.17708333,3.7053,2.1475,NA,NA,NA,NA,NA,frustrated,"frustrated, not frustrated","more frustrated, less frustrated",NA,NA,NA,NA,NA,NA,NA,NA,NA,NA,NA,NA,NA,NA,NA,0,2,2,1,1,NA,NA,NA,NA,NA,NA,NA,NA,NA,NA,NA,NA,NA,NA,NA,NA,NA,NA,NA,NA,NA,NA,NA,NA,NA,NA,NA,NA
SUPAMT59156,3WEV0KO0OSR8J0FP3B3TFCIIJ7WDSP,EFBCA522-9E3E-4B07-A772-0B143C88E8CE,2023-09-27_13h22.27.502,WP_VExplicitOC_HL,2022.2.5,Win32,8.115104644,NA,NA,NA,NA,NA,NA,NA,NA,NA,NA,NA,NA,NA,NA,NA,NA,NA,NA,NA,NA,NA,NA,NA,NA,NA,NA,NA,NA,NA,NA,NA,4,0,4,0,1,NA,NA,NA,NA,NA,NA,NA,NA,NA,NA,NA,NA,NA,NA,NA,NA,NA,NA,NA,NA,NA,NA,NA
SUPAMT59156,3WEV0KO0OSR8J0FP3B3TFCIIJ7WDSP,EFBCA522-9E3E-4B07-A772-0B143C88E8CE,2023-09-27_13h22.27.502,WP_VExplicitOC_HL,2022.2.5,Win32,8.115104644,53.38541667,3.7434,2.0492,NA,NA,NA,NA,NA,happy,"unhappy, happy","less happy, more happy",NA,NA,NA,NA,NA,NA,NA,NA,NA,NA,NA,NA,NA,NA,NA,0,0,0,0,1,NA,NA,NA,NA,NA,NA,NA,NA,NA,NA,NA,NA,NA,NA,NA,NA,NA,NA,NA,NA,NA,NA,NA,NA,NA,NA,NA,NA
SUPAMT59156,3WEV0KO0OSR8J0FP3B3TFCIIJ7WDSP,EFBCA522-9E3E-4B07-A772-0B143C88E8CE,2023-09-27_13h22.27.502,WP_VExplicitOC_HL,2022.2.5,Win32,8.115104644,54.16666667,3.2689,2.0023,NA,NA,NA,NA,NA,frustrated,"frustrated, not frustrated","more frustrated, less frustrated",NA,NA,NA,NA,NA,NA,NA,NA,NA,NA,NA,NA,NA,NA,NA,0,1,1,1,1,NA,NA,NA,NA,NA,NA,NA,NA,NA,NA,NA,NA,NA,NA,NA,NA,NA,NA,NA,NA,NA,NA,NA,NA,NA,NA,NA,NA
SUPAMT59156,3WEV0KO0OSR8J0FP3B3TFCIIJ7WDSP,EFBCA522-9E3E-4B07-A772-0B143C88E8CE,2023-09-27_13h22.27.502,WP_VExplicitOC_HL,2022.2.5,Win32,8.115104644,72.91666667,3.5697,2.1042,NA,NA,NA,NA,NA,bored,"bored, not bored","more bored, less bored",NA,NA,NA,NA,NA,NA,NA,NA,NA,NA,NA,NA,NA,NA,NA,0,2,2,2,1,NA,NA,NA,NA,NA,NA,NA,NA,NA,NA,NA,NA,NA,NA,NA,NA,NA,NA,NA,NA,NA,NA,NA,NA,NA,NA,NA,NA
SUPAMT59156,3WEV0KO0OSR8J0FP3B3TFCIIJ7WDSP,EFBCA522-9E3E-4B07-A772-0B143C88E8CE,2023-09-27_13h22.27.502,WP_VExplicitOC_HL,2022.2.5,Win32,8.115104644,NA,NA,NA,NA,NA,NA,NA,NA,NA,NA,NA,NA,NA,NA,NA,NA,NA,NA,NA,NA,NA,NA,NA,NA,NA,NA,NA,NA,NA,NA,NA,5,0,5,0,1,NA,NA,NA,NA,NA,NA,NA,NA,NA,NA,NA,NA,NA,NA,NA,NA,NA,NA,NA,NA,NA,NA,NA
SUPAMT59156,3WEV0KO0OSR8J0FP3B3TFCIIJ7WDSP,EFBCA522-9E3E-4B07-A772-0B143C88E8CE,2023-09-27_13h22.27.502,WP_VExplicitOC_HL,2022.2.5,Win32,8.115104644,53.90625,3.5945,2.0303,NA,NA,NA,NA,NA,happy,"unhappy, happy","less happy, more happy",NA,NA,NA,NA,NA,NA,NA,NA,NA,NA,NA,NA,NA,NA,NA,0,0,0,0,1,NA,NA,NA,NA,NA,NA,NA,NA,NA,NA,NA,NA,NA,NA,NA,NA,NA,NA,NA,NA,NA,NA,NA,NA,NA,NA,NA,NA
SUPAMT59156,3WEV0KO0OSR8J0FP3B3TFCIIJ7WDSP,EFBCA522-9E3E-4B07-A772-0B143C88E8CE,2023-09-27_13h22.27.502,WP_VExplicitOC_HL,2022.2.5,Win32,8.115104644,63.54166667,3.7344,2.0588,NA,NA,NA,NA,NA,bored,"bored, not bored","more bored, less bored",NA,NA,NA,NA,NA,NA,NA,NA,NA,NA,NA,NA,NA,NA,NA,0,1,1,2,1,NA,NA,NA,NA,NA,NA,NA,NA,NA,NA,NA,NA,NA,NA,NA,NA,NA,NA,NA,NA,NA,NA,NA,NA,NA,NA,NA,NA
SUPAMT59156,3WEV0KO0OSR8J0FP3B3TFCIIJ7WDSP,EFBCA522-9E3E-4B07-A772-0B143C88E8CE,2023-09-27_13h22.27.502,WP_VExplicitOC_HL,2022.2.5,Win32,8.115104644,58.33333333,3.5964,2.0729,NA,NA,NA,NA,NA,frustrated,"frustrated, not frustrated","more frustrated, less frustrated",NA,NA,NA,NA,NA,NA,NA,NA,NA,NA,NA,NA,NA,NA,NA,0,2,2,1,1,NA,NA,NA,NA,NA,NA,NA,NA,NA,NA,NA,NA,NA,NA,NA,NA,NA,NA,NA,NA,NA,NA,NA,NA,NA,NA,NA,NA
SUPAMT59156,3WEV0KO0OSR8J0FP3B3TFCIIJ7WDSP,EFBCA522-9E3E-4B07-A772-0B143C88E8CE,2023-09-27_13h22.27.502,WP_VExplicitOC_HL,2022.2.5,Win32,8.115104644,NA,NA,NA,NA,NA,NA,NA,NA,NA,NA,NA,NA,NA,NA,NA,NA,NA,NA,NA,NA,NA,NA,NA,NA,NA,NA,NA,NA,NA,NA,NA,6,0,6,0,1,NA,NA,NA,NA,NA,NA,NA,NA,NA,NA,NA,NA,NA,NA,NA,NA,NA,NA,NA,NA,NA,NA,NA
SUPAMT59156,3WEV0KO0OSR8J0FP3B3TFCIIJ7WDSP,EFBCA522-9E3E-4B07-A772-0B143C88E8CE,2023-09-27_13h22.27.502,WP_VExplicitOC_HL,2022.2.5,Win32,8.115104644,54.16666667,4.0038,2.0785,NA,NA,NA,NA,NA,bored,"bored, not bored","more bored, less bored",NA,NA,NA,NA,NA,NA,NA,NA,NA,NA,NA,NA,NA,NA,NA,0,0,0,2,1,NA,NA,NA,NA,NA,NA,NA,NA,NA,NA,NA,NA,NA,NA,NA,NA,NA,NA,NA,NA,NA,NA,NA,NA,NA,NA,NA,NA
SUPAMT59156,3WEV0KO0OSR8J0FP3B3TFCIIJ7WDSP,EFBCA522-9E3E-4B07-A772-0B143C88E8CE,2023-09-27_13h22.27.502,WP_VExplicitOC_HL,2022.2.5,Win32,8.115104644,65.88541667,4.4612,2.0768,NA,NA,NA,NA,NA,frustrated,"frustrated, not frustrated","more frustrated, less frustrated",NA,NA,NA,NA,NA,NA,NA,NA,NA,NA,NA,NA,NA,NA,NA,0,1,1,1,1,NA,NA,NA,NA,NA,NA,NA,NA,NA,NA,NA,NA,NA,NA,NA,NA,NA,NA,NA,NA,NA,NA,NA,NA,NA,NA,NA,NA
SUPAMT59156,3WEV0KO0OSR8J0FP3B3TFCIIJ7WDSP,EFBCA522-9E3E-4B07-A772-0B143C88E8CE,2023-09-27_13h22.27.502,WP_VExplicitOC_HL,2022.2.5,Win32,8.115104644,78.90625,4.1417,2.109,NA,NA,NA,NA,NA,happy,"unhappy, happy","less happy, more happy",NA,NA,NA,NA,NA,NA,NA,NA,NA,NA,NA,NA,NA,NA,NA,0,2,2,0,1,NA,NA,NA,NA,NA,NA,NA,NA,NA,NA,NA,NA,NA,NA,NA,NA,NA,NA,NA,NA,NA,NA,NA,NA,NA,NA,NA,NA
SUPAMT59156,3WEV0KO0OSR8J0FP3B3TFCIIJ7WDSP,EFBCA522-9E3E-4B07-A772-0B143C88E8CE,2023-09-27_13h22.27.502,WP_VExplicitOC_HL,2022.2.5,Win32,8.115104644,NA,NA,NA,NA,NA,NA,NA,NA,NA,NA,NA,NA,NA,NA,NA,NA,NA,NA,NA,NA,NA,NA,NA,NA,NA,NA,NA,NA,NA,NA,NA,7,0,7,0,1,NA,NA,NA,NA,NA,NA,NA,NA,NA,NA,NA,NA,NA,NA,NA,NA,NA,NA,NA,NA,NA,NA,NA
SUPAMT59156,3WEV0KO0OSR8J0FP3B3TFCIIJ7WDSP,EFBCA522-9E3E-4B07-A772-0B143C88E8CE,2023-09-27_13h22.27.502,WP_VExplicitOC_HL,2022.2.5,Win32,8.115104644,85.67708333,3.7493,2.0144,NA,NA,NA,NA,NA,happy,"unhappy, happy","less happy, more happy",NA,NA,NA,NA,NA,NA,NA,NA,NA,NA,NA,NA,NA,NA,NA,0,0,0,0,1,NA,NA,NA,NA,NA,NA,NA,NA,NA,NA,NA,NA,NA,NA,NA,NA,NA,NA,NA,NA,NA,NA,NA,NA,NA,NA,NA,NA
SUPAMT59156,3WEV0KO0OSR8J0FP3B3TFCIIJ7WDSP,EFBCA522-9E3E-4B07-A772-0B143C88E8CE,2023-09-27_13h22.27.502,WP_VExplicitOC_HL,2022.2.5,Win32,8.115104644,76.30208333,3.5308,2.0297,NA,NA,NA,NA,NA,bored,"bored, not bored","more bored, less bored",NA,NA,NA,NA,NA,NA,NA,NA,NA,NA,NA,NA,NA,NA,NA,0,1,1,2,1,NA,NA,NA,NA,NA,NA,NA,NA,NA,NA,NA,NA,NA,NA,NA,NA,NA,NA,NA,NA,NA,NA,NA,NA,NA,NA,NA,NA
SUPAMT59156,3WEV0KO0OSR8J0FP3B3TFCIIJ7WDSP,EFBCA522-9E3E-4B07-A772-0B143C88E8CE,2023-09-27_13h22.27.502,WP_VExplicitOC_HL,2022.2.5,Win32,8.115104644,58.85416667,3.5859,2.07,NA,NA,NA,NA,NA,frustrated,"frustrated, not frustrated","more frustrated, less frustrated",NA,NA,NA,NA,NA,NA,NA,NA,NA,NA,NA,NA,NA,NA,NA,0,2,2,1,1,NA,NA,NA,NA,NA,NA,NA,NA,NA,NA,NA,NA,NA,NA,NA,NA,NA,NA,NA,NA,NA,NA,NA,NA,NA,NA,NA,NA
SUPAMT59156,3WEV0KO0OSR8J0FP3B3TFCIIJ7WDSP,EFBCA522-9E3E-4B07-A772-0B143C88E8CE,2023-09-27_13h22.27.502,WP_VExplicitOC_HL,2022.2.5,Win32,8.115104644,NA,NA,NA,NA,NA,NA,NA,NA,NA,NA,NA,NA,NA,NA,NA,NA,NA,NA,NA,NA,NA,NA,NA,NA,NA,NA,NA,NA,NA,NA,NA,8,0,8,0,1,NA,NA,NA,NA,NA,NA,NA,NA,NA,NA,NA,NA,NA,NA,NA,NA,NA,NA,NA,NA,NA,NA,NA
SUPAMT59156,3WEV0KO0OSR8J0FP3B3TFCIIJ7WDSP,EFBCA522-9E3E-4B07-A772-0B143C88E8CE,2023-09-27_13h22.27.502,WP_VExplicitOC_HL,2022.2.5,Win32,8.115104644,51.30208333,3.4983,2.0167,NA,NA,NA,NA,NA,bored,"bored, not bored","more bored, less bored",NA,NA,NA,NA,NA,NA,NA,NA,NA,NA,NA,NA,NA,NA,NA,0,0,0,2,1,NA,NA,NA,NA,NA,NA,NA,NA,NA,NA,NA,NA,NA,NA,NA,NA,NA,NA,NA,NA,NA,NA,NA,NA,NA,NA,NA,NA
SUPAMT59156,3WEV0KO0OSR8J0FP3B3TFCIIJ7WDSP,EFBCA522-9E3E-4B07-A772-0B143C88E8CE,2023-09-27_13h22.27.502,WP_VExplicitOC_HL,2022.2.5,Win32,8.115104644,82.03125,3.5384,2.0181,NA,NA,NA,NA,NA,frustrated,"frustrated, not frustrated","more frustrated, less frustrated",NA,NA,NA,NA,NA,NA,NA,NA,NA,NA,NA,NA,NA,NA,NA,0,1,1,1,1,NA,NA,NA,NA,NA,NA,NA,NA,NA,NA,NA,NA,NA,NA,NA,NA,NA,NA,NA,NA,NA,NA,NA,NA,NA,NA,NA,NA
SUPAMT59156,3WEV0KO0OSR8J0FP3B3TFCIIJ7WDSP,EFBCA522-9E3E-4B07-A772-0B143C88E8CE,2023-09-27_13h22.27.502,WP_VExplicitOC_HL,2022.2.5,Win32,8.115104644,68.48958333,3.5055,2.0321,NA,NA,NA,NA,NA,happy,"unhappy, happy","less happy, more happy",NA,NA,NA,NA,NA,NA,NA,NA,NA,NA,NA,NA,NA,NA,NA,0,2,2,0,1,NA,NA,NA,NA,NA,NA,NA,NA,NA,NA,NA,NA,NA,NA,NA,NA,NA,NA,NA,NA,NA,NA,NA,NA,NA,NA,NA,NA
SUPAMT59156,3WEV0KO0OSR8J0FP3B3TFCIIJ7WDSP,EFBCA522-9E3E-4B07-A772-0B143C88E8CE,2023-09-27_13h22.27.502,WP_VExplicitOC_HL,2022.2.5,Win32,8.115104644,NA,NA,NA,NA,NA,NA,NA,NA,NA,NA,NA,NA,NA,NA,NA,NA,NA,NA,NA,NA,NA,NA,NA,NA,NA,NA,NA,NA,NA,NA,NA,9,0,9,0,1,NA,NA,NA,NA,NA,NA,NA,NA,NA,NA,NA,NA,NA,NA,NA,NA,NA,NA,NA,NA,NA,NA,NA
SUPAMT59156,3WEV0KO0OSR8J0FP3B3TFCIIJ7WDSP,EFBCA522-9E3E-4B07-A772-0B143C88E8CE,2023-09-27_13h22.27.502,WP_VExplicitOC_HL,2022.2.5,Win32,8.115104644,63.80208333,3.6962,2.0245,NA,NA,NA,NA,NA,bored,"bored, not bored","more bored, less bored",NA,NA,NA,NA,NA,NA,NA,NA,NA,NA,NA,NA,NA,NA,NA,0,0,0,2,1,NA,NA,NA,NA,NA,NA,NA,NA,NA,NA,NA,NA,NA,NA,NA,NA,NA,NA,NA,NA,NA,NA,NA,NA,NA,NA,NA,NA
SUPAMT59156,3WEV0KO0OSR8J0FP3B3TFCIIJ7WDSP,EFBCA522-9E3E-4B07-A772-0B143C88E8CE,2023-09-27_13h22.27.502,WP_VExplicitOC_HL,2022.2.5,Win32,8.115104644,73.95833333,3.5231,2.0544,NA,NA,NA,NA,NA,frustrated,"frustrated, not frustrated","more frustrated, less frustrated",NA,NA,NA,NA,NA,NA,NA,NA,NA,NA,NA,NA,NA,NA,NA,0,1,1,1,1,NA,NA,NA,NA,NA,NA,NA,NA,NA,NA,NA,NA,NA,NA,NA,NA,NA,NA,NA,NA,NA,NA,NA,NA,NA,NA,NA,NA
SUPAMT59156,3WEV0KO0OSR8J0FP3B3TFCIIJ7WDSP,EFBCA522-9E3E-4B07-A772-0B143C88E8CE,2023-09-27_13h22.27.502,WP_VExplicitOC_HL,2022.2.5,Win32,8.115104644,73.69791667,3.4901,2.0493,NA,NA,NA,NA,NA,happy,"unhappy, happy","less happy, more happy",NA,NA,NA,NA,NA,NA,NA,NA,NA,NA,NA,NA,NA,NA,NA,0,2,2,0,1,NA,NA,NA,NA,NA,NA,NA,NA,NA,NA,NA,NA,NA,NA,NA,NA,NA,NA,NA,NA,NA,NA,NA,NA,NA,NA,NA,NA
SUPAMT59156,3WEV0KO0OSR8J0FP3B3TFCIIJ7WDSP,EFBCA522-9E3E-4B07-A772-0B143C88E8CE,2023-09-27_13h22.27.502,WP_VExplicitOC_HL,2022.2.5,Win32,8.115104644,NA,NA,NA,NA,NA,NA,NA,NA,NA,NA,NA,NA,NA,NA,NA,NA,NA,NA,NA,NA,NA,NA,NA,NA,NA,NA,NA,NA,NA,NA,NA,10,0,10,0,1,NA,NA,NA,NA,NA,NA,NA,NA,NA,NA,NA,NA,NA,NA,NA,NA,NA,NA,NA,NA,NA,NA,NA
SUPAMT59156,3WEV0KO0OSR8J0FP3B3TFCIIJ7WDSP,EFBCA522-9E3E-4B07-A772-0B143C88E8CE,2023-09-27_13h22.27.502,WP_VExplicitOC_HL,2022.2.5,Win32,8.115104644,58.85416667,4.1232,2.1285,NA,NA,NA,NA,NA,happy,"unhappy, happy","less happy, more happy",NA,NA,NA,NA,NA,NA,NA,NA,NA,NA,NA,NA,NA,NA,NA,0,0,0,0,1,NA,NA,NA,NA,NA,NA,NA,NA,NA,NA,NA,NA,NA,NA,NA,NA,NA,NA,NA,NA,NA,NA,NA,NA,NA,NA,NA,NA
SUPAMT59156,3WEV0KO0OSR8J0FP3B3TFCIIJ7WDSP,EFBCA522-9E3E-4B07-A772-0B143C88E8CE,2023-09-27_13h22.27.502,WP_VExplicitOC_HL,2022.2.5,Win32,8.115104644,84.63541667,4.0155,2.1169,NA,NA,NA,NA,NA,bored,"bored, not bored","more bored, less bored",NA,NA,NA,NA,NA,NA,NA,NA,NA,NA,NA,NA,NA,NA,NA,0,1,1,2,1,NA,NA,NA,NA,NA,NA,NA,NA,NA,NA,NA,NA,NA,NA,NA,NA,NA,NA,NA,NA,NA,NA,NA,NA,NA,NA,NA,NA
SUPAMT59156,3WEV0KO0OSR8J0FP3B3TFCIIJ7WDSP,EFBCA522-9E3E-4B07-A772-0B143C88E8CE,2023-09-27_13h22.27.502,WP_VExplicitOC_HL,2022.2.5,Win32,8.115104644,51.5625,3.5639,2.002,NA,NA,NA,NA,NA,frustrated,"frustrated, not frustrated","more frustrated, less frustrated",NA,NA,NA,NA,NA,NA,NA,NA,NA,NA,NA,NA,NA,NA,NA,0,2,2,1,1,NA,NA,NA,NA,NA,NA,NA,NA,NA,NA,NA,NA,NA,NA,NA,NA,NA,NA,NA,NA,NA,NA,NA,NA,NA,NA,NA,NA
SUPAMT59156,3WEV0KO0OSR8J0FP3B3TFCIIJ7WDSP,EFBCA522-9E3E-4B07-A772-0B143C88E8CE,2023-09-27_13h22.27.502,WP_VExplicitOC_HL,2022.2.5,Win32,8.115104644,NA,NA,NA,NA,NA,NA,NA,NA,NA,NA,NA,NA,NA,NA,NA,NA,NA,NA,NA,NA,NA,NA,NA,NA,NA,NA,NA,NA,NA,NA,NA,11,0,11,0,1,NA,NA,NA,NA,NA,NA,NA,NA,NA,NA,NA,NA,NA,NA,NA,NA,NA,NA,NA,NA,NA,NA,NA
SUPAMT59156,3WEV0KO0OSR8J0FP3B3TFCIIJ7WDSP,EFBCA522-9E3E-4B07-A772-0B143C88E8CE,2023-09-27_13h22.27.502,WP_VExplicitOC_HL,2022.2.5,Win32,8.115104644,79.42708333,3.5429,2.0827,NA,NA,NA,NA,NA,happy,"unhappy, happy","less happy, more happy",NA,NA,NA,NA,NA,NA,NA,NA,NA,NA,NA,NA,NA,NA,NA,0,0,0,0,1,NA,NA,NA,NA,NA,NA,NA,NA,NA,NA,NA,NA,NA,NA,NA,NA,NA,NA,NA,NA,NA,NA,NA,NA,NA,NA,NA,NA
SUPAMT59156,3WEV0KO0OSR8J0FP3B3TFCIIJ7WDSP,EFBCA522-9E3E-4B07-A772-0B143C88E8CE,2023-09-27_13h22.27.502,WP_VExplicitOC_HL,2022.2.5,Win32,8.115104644,73.95833333,3.5879,2.0348,NA,NA,NA,NA,NA,bored,"bored, not bored","more bored, less bored",NA,NA,NA,NA,NA,NA,NA,NA,NA,NA,NA,NA,NA,NA,NA,0,1,1,2,1,NA,NA,NA,NA,NA,NA,NA,NA,NA,NA,NA,NA,NA,NA,NA,NA,NA,NA,NA,NA,NA,NA,NA,NA,NA,NA,NA,NA
SUPAMT59156,3WEV0KO0OSR8J0FP3B3TFCIIJ7WDSP,EFBCA522-9E3E-4B07-A772-0B143C88E8CE,2023-09-27_13h22.27.502,WP_VExplicitOC_HL,2022.2.5,Win32,8.115104644,80.98958333,3.6878,2.1451,NA,NA,NA,NA,NA,frustrated,"frustrated, not frustrated","more frustrated, less frustrated",NA,NA,NA,NA,NA,NA,NA,NA,NA,NA,NA,NA,NA,NA,NA,0,2,2,1,1,NA,NA,NA,NA,NA,NA,NA,NA,NA,NA,NA,NA,NA,NA,NA,NA,NA,NA,NA,NA,NA,NA,NA,NA,NA,NA,NA,NA
SUPAMT59156,3WEV0KO0OSR8J0FP3B3TFCIIJ7WDSP,EFBCA522-9E3E-4B07-A772-0B143C88E8CE,2023-09-27_13h22.27.502,WP_VExplicitOC_HL,2022.2.5,Win32,8.115104644,NA,NA,NA,NA,NA,NA,NA,NA,NA,NA,NA,NA,NA,NA,NA,NA,NA,NA,NA,NA,NA,NA,NA,NA,NA,NA,NA,NA,NA,NA,NA,12,0,12,0,1,NA,NA,NA,NA,NA,NA,NA,NA,NA,NA,NA,NA,NA,NA,NA,NA,NA,NA,NA,NA,NA,NA,NA
SUPAMT59156,3WEV0KO0OSR8J0FP3B3TFCIIJ7WDSP,EFBCA522-9E3E-4B07-A772-0B143C88E8CE,2023-09-27_13h22.27.502,WP_VExplicitOC_HL,2022.2.5,Win32,8.115104644,67.96875,3.6293,2.0618,NA,NA,NA,NA,NA,frustrated,"frustrated, not frustrated","more frustrated, less frustrated",NA,NA,NA,NA,NA,NA,NA,NA,NA,NA,NA,NA,NA,NA,NA,0,0,0,1,1,NA,NA,NA,NA,NA,NA,NA,NA,NA,NA,NA,NA,NA,NA,NA,NA,NA,NA,NA,NA,NA,NA,NA,NA,NA,NA,NA,NA
SUPAMT59156,3WEV0KO0OSR8J0FP3B3TFCIIJ7WDSP,EFBCA522-9E3E-4B07-A772-0B143C88E8CE,2023-09-27_13h22.27.502,WP_VExplicitOC_HL,2022.2.5,Win32,8.115104644,64.58333333,4.2401,2.0504,NA,NA,NA,NA,NA,bored,"bored, not bored","more bored, less bored",NA,NA,NA,NA,NA,NA,NA,NA,NA,NA,NA,NA,NA,NA,NA,0,1,1,2,1,NA,NA,NA,NA,NA,NA,NA,NA,NA,NA,NA,NA,NA,NA,NA,NA,NA,NA,NA,NA,NA,NA,NA,NA,NA,NA,NA,NA
SUPAMT59156,3WEV0KO0OSR8J0FP3B3TFCIIJ7WDSP,EFBCA522-9E3E-4B07-A772-0B143C88E8CE,2023-09-27_13h22.27.502,WP_VExplicitOC_HL,2022.2.5,Win32,8.115104644,51.30208333,3.683,2.0108,NA,NA,NA,NA,NA,happy,"unhappy, happy","less happy, more happy",NA,NA,NA,NA,NA,NA,NA,NA,NA,NA,NA,NA,NA,NA,NA,0,2,2,0,1,NA,NA,NA,NA,NA,NA,NA,NA,NA,NA,NA,NA,NA,NA,NA,NA,NA,NA,NA,NA,NA,NA,NA,NA,NA,NA,NA,NA
SUPAMT59156,3WEV0KO0OSR8J0FP3B3TFCIIJ7WDSP,EFBCA522-9E3E-4B07-A772-0B143C88E8CE,2023-09-27_13h22.27.502,WP_VExplicitOC_HL,2022.2.5,Win32,8.115104644,NA,NA,NA,NA,NA,NA,NA,NA,NA,NA,NA,NA,NA,NA,NA,NA,NA,NA,NA,NA,NA,NA,NA,NA,NA,NA,NA,NA,NA,NA,NA,13,0,13,0,1,NA,NA,NA,NA,NA,NA,NA,NA,NA,NA,NA,NA,NA,NA,NA,NA,NA,NA,NA,NA,NA,NA,NA
SUPAMT59156,3WEV0KO0OSR8J0FP3B3TFCIIJ7WDSP,EFBCA522-9E3E-4B07-A772-0B143C88E8CE,2023-09-27_13h22.27.502,WP_VExplicitOC_HL,2022.2.5,Win32,8.115104644,27.34375,4.8622,2.0291,NA,NA,NA,NA,NA,bored,"bored, not bored","more bored, less bored",NA,NA,NA,NA,NA,NA,NA,NA,NA,NA,NA,NA,NA,NA,NA,0,0,0,2,1,NA,NA,NA,NA,NA,NA,NA,NA,NA,NA,NA,NA,NA,NA,NA,NA,NA,NA,NA,NA,NA,NA,NA,NA,NA,NA,NA,NA
SUPAMT59156,3WEV0KO0OSR8J0FP3B3TFCIIJ7WDSP,EFBCA522-9E3E-4B07-A772-0B143C88E8CE,2023-09-27_13h22.27.502,WP_VExplicitOC_HL,2022.2.5,Win32,8.115104644,30.46875,4.5315,2.065,NA,NA,NA,NA,NA,happy,"unhappy, happy","less happy, more happy",NA,NA,NA,NA,NA,NA,NA,NA,NA,NA,NA,NA,NA,NA,NA,0,1,1,0,1,NA,NA,NA,NA,NA,NA,NA,NA,NA,NA,NA,NA,NA,NA,NA,NA,NA,NA,NA,NA,NA,NA,NA,NA,NA,NA,NA,NA
SUPAMT59156,3WEV0KO0OSR8J0FP3B3TFCIIJ7WDSP,EFBCA522-9E3E-4B07-A772-0B143C88E8CE,2023-09-27_13h22.27.502,WP_VExplicitOC_HL,2022.2.5,Win32,8.115104644,46.61458333,4.1656,2.0052,NA,NA,NA,NA,NA,frustrated,"frustrated, not frustrated","more frustrated, less frustrated",NA,NA,NA,NA,NA,NA,NA,NA,NA,NA,NA,NA,NA,NA,NA,0,2,2,1,1,NA,NA,NA,NA,NA,NA,NA,NA,NA,NA,NA,NA,NA,NA,NA,NA,NA,NA,NA,NA,NA,NA,NA,NA,NA,NA,NA,NA
SUPAMT59156,3WEV0KO0OSR8J0FP3B3TFCIIJ7WDSP,EFBCA522-9E3E-4B07-A772-0B143C88E8CE,2023-09-27_13h22.27.502,WP_VExplicitOC_HL,2022.2.5,Win32,8.115104644,NA,NA,NA,NA,NA,NA,NA,NA,NA,NA,NA,NA,NA,NA,NA,NA,NA,NA,NA,NA,NA,NA,NA,NA,NA,NA,NA,NA,NA,NA,NA,14,0,14,0,1,NA,NA,NA,NA,NA,NA,NA,NA,NA,NA,NA,NA,NA,NA,NA,NA,NA,NA,NA,NA,NA,NA,NA
SUPAMT59156,3WEV0KO0OSR8J0FP3B3TFCIIJ7WDSP,EFBCA522-9E3E-4B07-A772-0B143C88E8CE,2023-09-27_13h22.27.502,WP_VExplicitOC_HL,2022.2.5,Win32,8.115104644,NA,NA,NA,NA,NA,NA,NA,NA,NA,NA,NA,NA,NA,NA,NA,NA,NA,NA,NA,NA,NA,NA,NA,NA,NA,NA,NA,NA,NA,NA,NA,NA,NA,NA,NA,NA,NA,NA,NA,NA,NA,NA,NA,NA,NA,NA,NA,NA,NA,NA,NA,NA,NA,NA,NA,NA,NA,NA,NA
SUPAMT59156,3WEV0KO0OSR8J0FP3B3TFCIIJ7WDSP,EFBCA522-9E3E-4B07-A772-0B143C88E8CE,2023-09-27_13h22.27.502,WP_VExplicitOC_HL,2022.2.5,Win32,8.115104644,NA,NA,NA,NA,NA,NA,NA,NA,NA,NA,NA,NA,NA,NA,NA,NA,NA,NA,NA,NA,NA,NA,NA,NA,NA,NA,NA,NA,NA,NA,NA,NA,NA,NA,NA,NA,NA,NA,NA,NA,NA,NA,NA,NA,NA,NA,NA,NA,NA,NA,NA,NA,NA,NA,NA,NA,NA,NA,NA
SUPAMT59156,3WEV0KO0OSR8J0FP3B3TFCIIJ7WDSP,EFBCA522-9E3E-4B07-A772-0B143C88E8CE,2023-09-27_13h22.27.502,WP_VExplicitOC_HL,2022.2.5,Win32,8.115104644,NA,NA,NA,NA,NA,NA,NA,NA,NA,NA,NA,NA,NA,NA,NA,NA,NA,NA,rest (looking at a fixed cross),001.png,NA,NA,NA,NA,NA,NA,NA,NA,NA,NA,NA,NA,NA,NA,NA,NA,-45.05208333,2.888,0,0,0,0,1,NA,NA,NA,NA,NA,NA,NA,NA,NA,NA,NA,NA,NA,NA,NA,NA
SUPAMT59156,3WEV0KO0OSR8J0FP3B3TFCIIJ7WDSP,EFBCA522-9E3E-4B07-A772-0B143C88E8CE,2023-09-27_13h22.27.502,WP_VExplicitOC_HL,2022.2.5,Win32,8.115104644,NA,NA,NA,NA,NA,NA,NA,NA,NA,NA,NA,NA,NA,NA,NA,NA,NA,NA,stand up,002.png,NA,NA,NA,NA,NA,NA,NA,NA,NA,NA,NA,NA,NA,NA,NA,NA,37.76041667,1.7821,0,1,1,1,1,NA,NA,NA,NA,NA,NA,NA,NA,NA,NA,NA,NA,NA,NA,NA,NA
SUPAMT59156,3WEV0KO0OSR8J0FP3B3TFCIIJ7WDSP,EFBCA522-9E3E-4B07-A772-0B143C88E8CE,2023-09-27_13h22.27.502,WP_VExplicitOC_HL,2022.2.5,Win32,8.115104644,NA,NA,NA,NA,NA,NA,NA,NA,NA,NA,NA,NA,NA,NA,NA,NA,NA,NA,stretch,003.png,NA,NA,NA,NA,NA,NA,NA,NA,NA,NA,NA,NA,NA,NA,NA,NA,25.26041667,1.3315,0,2,2,2,1,NA,NA,NA,NA,NA,NA,NA,NA,NA,NA,NA,NA,NA,NA,NA,NA
SUPAMT59156,3WEV0KO0OSR8J0FP3B3TFCIIJ7WDSP,EFBCA522-9E3E-4B07-A772-0B143C88E8CE,2023-09-27_13h22.27.502,WP_VExplicitOC_HL,2022.2.5,Win32,8.115104644,NA,NA,NA,NA,NA,NA,NA,NA,NA,NA,NA,NA,NA,NA,NA,NA,NA,NA,make a drink,004.png,NA,NA,NA,NA,NA,NA,NA,NA,NA,NA,NA,NA,NA,NA,NA,NA,38.80208333,2.8062,0,3,3,3,1,NA,NA,NA,NA,NA,NA,NA,NA,NA,NA,NA,NA,NA,NA,NA,NA
SUPAMT59156,3WEV0KO0OSR8J0FP3B3TFCIIJ7WDSP,EFBCA522-9E3E-4B07-A772-0B143C88E8CE,2023-09-27_13h22.27.502,WP_VExplicitOC_HL,2022.2.5,Win32,8.115104644,NA,NA,NA,NA,NA,NA,NA,NA,NA,NA,NA,NA,NA,NA,NA,NA,NA,NA,scroll social media,005.png,NA,NA,NA,NA,NA,NA,NA,NA,NA,NA,NA,NA,NA,NA,NA,NA,35.41666667,1.8462,0,4,4,4,1,NA,NA,NA,NA,NA,NA,NA,NA,NA,NA,NA,NA,NA,NA,NA,NA
SUPAMT59156,3WEV0KO0OSR8J0FP3B3TFCIIJ7WDSP,EFBCA522-9E3E-4B07-A772-0B143C88E8CE,2023-09-27_13h22.27.502,WP_VExplicitOC_HL,2022.2.5,Win32,8.115104644,NA,NA,NA,NA,NA,NA,NA,NA,NA,NA,NA,NA,NA,NA,NA,NA,NA,NA,listen to music,006.png,NA,NA,NA,NA,NA,NA,NA,NA,NA,NA,NA,NA,NA,NA,NA,NA,35.67708333,0.7391,0,5,5,5,1,NA,NA,NA,NA,NA,NA,NA,NA,NA,NA,NA,NA,NA,NA,NA,NA
SUPAMT59156,3WEV0KO0OSR8J0FP3B3TFCIIJ7WDSP,EFBCA522-9E3E-4B07-A772-0B143C88E8CE,2023-09-27_13h22.27.502,WP_VExplicitOC_HL,2022.2.5,Win32,8.115104644,NA,NA,NA,NA,NA,NA,NA,NA,NA,NA,NA,NA,NA,NA,NA,NA,NA,NA,daydream,007.png,NA,NA,NA,NA,NA,NA,NA,NA,NA,NA,NA,NA,NA,NA,NA,NA,35.67708333,0.6914,0,6,6,6,1,NA,NA,NA,NA,NA,NA,NA,NA,NA,NA,NA,NA,NA,NA,NA,NA
SUPAMT59156,3WEV0KO0OSR8J0FP3B3TFCIIJ7WDSP,EFBCA522-9E3E-4B07-A772-0B143C88E8CE,2023-09-27_13h22.27.502,WP_VExplicitOC_HL,2022.2.5,Win32,8.115104644,NA,NA,NA,NA,NA,NA,NA,NA,NA,NA,NA,NA,NA,NA,NA,NA,NA,NA,watch a short animation,008.png,NA,NA,NA,NA,NA,NA,NA,NA,NA,NA,NA,NA,NA,NA,NA,NA,35.67708333,1.5945,0,7,7,7,1,NA,NA,NA,NA,NA,NA,NA,NA,NA,NA,NA,NA,NA,NA,NA,NA
SUPAMT59156,3WEV0KO0OSR8J0FP3B3TFCIIJ7WDSP,EFBCA522-9E3E-4B07-A772-0B143C88E8CE,2023-09-27_13h22.27.502,WP_VExplicitOC_HL,2022.2.5,Win32,8.115104644,NA,NA,NA,NA,NA,NA,NA,NA,NA,NA,NA,NA,NA,NA,NA,NA,NA,NA,read a novel,009.png,NA,NA,NA,NA,NA,NA,NA,NA,NA,NA,NA,NA,NA,NA,NA,NA,35.67708333,3.5903,0,8,8,8,1,NA,NA,NA,NA,NA,NA,NA,NA,NA,NA,NA,NA,NA,NA,NA,NA
SUPAMT59156,3WEV0KO0OSR8J0FP3B3TFCIIJ7WDSP,EFBCA522-9E3E-4B07-A772-0B143C88E8CE,2023-09-27_13h22.27.502,WP_VExplicitOC_HL,2022.2.5,Win32,8.115104644,NA,NA,NA,NA,NA,NA,NA,NA,NA,NA,NA,NA,NA,NA,NA,NA,NA,NA,read the news,010.png,NA,NA,NA,NA,NA,NA,NA,NA,NA,NA,NA,NA,NA,NA,NA,NA,35.67708333,0.991,0,9,9,9,1,NA,NA,NA,NA,NA,NA,NA,NA,NA,NA,NA,NA,NA,NA,NA,NA
SUPAMT59156,3WEV0KO0OSR8J0FP3B3TFCIIJ7WDSP,EFBCA522-9E3E-4B07-A772-0B143C88E8CE,2023-09-27_13h22.27.502,WP_VExplicitOC_HL,2022.2.5,Win32,8.115104644,NA,NA,NA,NA,NA,NA,NA,NA,NA,NA,NA,NA,NA,NA,NA,NA,NA,NA,NA,NA,NA,NA,NA,NA,NA,NA,NA,NA,NA,NA,NA,NA,NA,NA,NA,NA,NA,NA,NA,NA,NA,NA,NA,stretch,NA,NA,NA,NA,NA,NA,NA,NA,NA,NA,NA,NA,NA,NA,NA
SUPAMT59156,3WEV0KO0OSR8J0FP3B3TFCIIJ7WDSP,EFBCA522-9E3E-4B07-A772-0B143C88E8CE,2023-09-27_13h22.27.502,WP_VExplicitOC_HL,2022.2.5,Win32,8.115104644,67.1875,4.5528,2.1197,NA,NA,NA,NA,NA,happy,"unhappy, happy","less happy, more happy",NA,NA,NA,NA,NA,NA,NA,NA,NA,NA,NA,NA,NA,NA,NA,NA,NA,NA,NA,NA,NA,NA,NA,NA,NA,NA,NA,NA,NA,NA,NA,NA,NA,0,0,0,0,1,NA,NA,NA,NA,NA,NA,NA,NA,NA,NA
SUPAMT59156,3WEV0KO0OSR8J0FP3B3TFCIIJ7WDSP,EFBCA522-9E3E-4B07-A772-0B143C88E8CE,2023-09-27_13h22.27.502,WP_VExplicitOC_HL,2022.2.5,Win32,8.115104644,NA,NA,2.101,NA,NA,NA,NA,NA,bored,"bored, not bored","more bored, less bored",NA,NA,NA,NA,NA,NA,NA,NA,NA,NA,NA,NA,NA,NA,NA,NA,NA,NA,NA,NA,NA,NA,NA,NA,NA,NA,NA,NA,NA,NA,NA,NA,NA,0,1,1,2,1,NA,NA,NA,NA,NA,NA,NA,NA,NA,NA
SUPAMT59156,3WEV0KO0OSR8J0FP3B3TFCIIJ7WDSP,EFBCA522-9E3E-4B07-A772-0B143C88E8CE,2023-09-27_13h22.27.502,WP_VExplicitOC_HL,2022.2.5,Win32,8.115104644,55.46875,4.7351,2.1483,NA,NA,NA,NA,NA,frustrated,"frustrated, not frustrated","more frustrated, less frustrated",NA,NA,NA,NA,NA,NA,NA,NA,NA,NA,NA,NA,NA,NA,NA,NA,NA,NA,NA,NA,NA,NA,NA,NA,NA,NA,NA,NA,NA,NA,NA,NA,NA,0,2,2,1,1,NA,NA,NA,NA,NA,NA,NA,NA,NA,NA
SUPAMT59156,3WEV0KO0OSR8J0FP3B3TFCIIJ7WDSP,EFBCA522-9E3E-4B07-A772-0B143C88E8CE,2023-09-27_13h22.27.502,WP_VExplicitOC_HL,2022.2.5,Win32,8.115104644,NA,NA,NA,NA,NA,NA,NA,NA,NA,NA,NA,NA,NA,NA,NA,NA,NA,NA,NA,NA,NA,NA,NA,NA,NA,NA,NA,NA,NA,NA,NA,NA,NA,NA,NA,NA,NA,NA,NA,NA,NA,NA,NA,NA,NA,NA,NA,NA,NA,NA,NA,NA,NA,NA,NA,NA,NA,NA,NA
SUPAMT59156,3WEV0KO0OSR8J0FP3B3TFCIIJ7WDSP,EFBCA522-9E3E-4B07-A772-0B143C88E8CE,2023-09-27_13h22.27.502,WP_VExplicitOC_HL,2022.2.5,Win32,8.115104644,NA,NA,NA,NA,NA,NA,NA,NA,NA,NA,NA,NA,NA,NA,NA,NA,NA,NA,NA,NA,NA,NA,NA,NA,NA,NA,NA,NA,NA,NA,NA,NA,NA,NA,NA,NA,NA,NA,NA,NA,NA,NA,NA,NA,NA,NA,NA,NA,NA,NA,NA,NA,NA,NA,NA,NA,NA,NA,NA
SUPAMT59156,3WEV0KO0OSR8J0FP3B3TFCIIJ7WDSP,EFBCA522-9E3E-4B07-A772-0B143C88E8CE,2023-09-27_13h22.27.502,WP_VExplicitOC_HL,2022.2.5,Win32,8.115104644,52.08333333,3.6806,2.0648,NA,NA,NA,NA,NA,bored,"bored, not bored","more bored, less bored",NA,NA,NA,NA,NA,NA,NA,NA,NA,NA,NA,NA,NA,NA,NA,NA,NA,NA,NA,NA,NA,NA,NA,NA,NA,NA,NA,NA,NA,NA,NA,NA,NA,NA,NA,NA,NA,NA,0,0,0,2,1,NA,NA,NA,NA,NA
SUPAMT59156,3WEV0KO0OSR8J0FP3B3TFCIIJ7WDSP,EFBCA522-9E3E-4B07-A772-0B143C88E8CE,2023-09-27_13h22.27.502,WP_VExplicitOC_HL,2022.2.5,Win32,8.115104644,59.11458333,3.6082,2.021,NA,NA,NA,NA,NA,happy,"unhappy, happy","less happy, more happy",NA,NA,NA,NA,NA,NA,NA,NA,NA,NA,NA,NA,NA,NA,NA,NA,NA,NA,NA,NA,NA,NA,NA,NA,NA,NA,NA,NA,NA,NA,NA,NA,NA,NA,NA,NA,NA,NA,0,1,1,0,1,NA,NA,NA,NA,NA
SUPAMT59156,3WEV0KO0OSR8J0FP3B3TFCIIJ7WDSP,EFBCA522-9E3E-4B07-A772-0B143C88E8CE,2023-09-27_13h22.27.502,WP_VExplicitOC_HL,2022.2.5,Win32,8.115104644,49.47916667,3.7211,2.0189,NA,NA,NA,NA,NA,frustrated,"frustrated, not frustrated","more frustrated, less frustrated",NA,NA,NA,NA,NA,NA,NA,NA,NA,NA,NA,NA,NA,NA,NA,NA,NA,NA,NA,NA,NA,NA,NA,NA,NA,NA,NA,NA,NA,NA,NA,NA,NA,NA,NA,NA,NA,NA,0,2,2,1,1,NA,NA,NA,NA,NA
SUPAMT59156,3WEV0KO0OSR8J0FP3B3TFCIIJ7WDSP,EFBCA522-9E3E-4B07-A772-0B143C88E8CE,2023-09-27_13h22.27.502,WP_VExplicitOC_HL,2022.2.5,Win32,8.115104644,NA,NA,NA,NA,NA,NA,NA,NA,NA,NA,NA,NA,NA,NA,NA,NA,NA,NA,NA,NA,NA,NA,NA,NA,NA,NA,NA,NA,NA,NA,NA,NA,NA,NA,NA,NA,NA,NA,NA,NA,NA,NA,NA,NA,NA,NA,NA,NA,NA,NA,NA,NA,NA,NA,0,0,0,0,1
SUPAMT59156,3WEV0KO0OSR8J0FP3B3TFCIIJ7WDSP,EFBCA522-9E3E-4B07-A772-0B143C88E8CE,2023-09-27_13h22.27.502,WP_VExplicitOC_HL,2022.2.5,Win32,8.115104644,42.1875,3.546,2.0084,NA,NA,NA,NA,NA,happy,"unhappy, happy","less happy, more happy",NA,NA,NA,NA,NA,NA,NA,NA,NA,NA,NA,NA,NA,NA,NA,NA,NA,NA,NA,NA,NA,NA,NA,NA,NA,NA,NA,NA,NA,NA,NA,NA,NA,NA,NA,NA,NA,NA,0,0,0,0,1,NA,NA,NA,NA,NA
SUPAMT59156,3WEV0KO0OSR8J0FP3B3TFCIIJ7WDSP,EFBCA522-9E3E-4B07-A772-0B143C88E8CE,2023-09-27_13h22.27.502,WP_VExplicitOC_HL,2022.2.5,Win32,8.115104644,53.64583333,3.5422,2.0413,NA,NA,NA,NA,NA,frustrated,"frustrated, not frustrated","more frustrated, less frustrated",NA,NA,NA,NA,NA,NA,NA,NA,NA,NA,NA,NA,NA,NA,NA,NA,NA,NA,NA,NA,NA,NA,NA,NA,NA,NA,NA,NA,NA,NA,NA,NA,NA,NA,NA,NA,NA,NA,0,1,1,1,1,NA,NA,NA,NA,NA
SUPAMT59156,3WEV0KO0OSR8J0FP3B3TFCIIJ7WDSP,EFBCA522-9E3E-4B07-A772-0B143C88E8CE,2023-09-27_13h22.27.502,WP_VExplicitOC_HL,2022.2.5,Win32,8.115104644,55.46875,3.4662,2.0995,NA,NA,NA,NA,NA,bored,"bored, not bored","more bored, less bored",NA,NA,NA,NA,NA,NA,NA,NA,NA,NA,NA,NA,NA,NA,NA,NA,NA,NA,NA,NA,NA,NA,NA,NA,NA,NA,NA,NA,NA,NA,NA,NA,NA,NA,NA,NA,NA,NA,0,2,2,2,1,NA,NA,NA,NA,NA
SUPAMT59156,3WEV0KO0OSR8J0FP3B3TFCIIJ7WDSP,EFBCA522-9E3E-4B07-A772-0B143C88E8CE,2023-09-27_13h22.27.502,WP_VExplicitOC_HL,2022.2.5,Win32,8.115104644,NA,NA,NA,NA,NA,NA,NA,NA,NA,NA,NA,NA,NA,NA,NA,NA,NA,NA,NA,NA,NA,NA,NA,NA,NA,NA,NA,NA,NA,NA,NA,NA,NA,NA,NA,NA,NA,NA,NA,NA,NA,NA,NA,NA,NA,NA,NA,NA,NA,NA,NA,NA,NA,NA,1,0,1,0,1
SUPAMT59156,3WEV0KO0OSR8J0FP3B3TFCIIJ7WDSP,EFBCA522-9E3E-4B07-A772-0B143C88E8CE,2023-09-27_13h22.27.502,WP_VExplicitOC_HL,2022.2.5,Win32,8.115104644,49.73958333,3.4302,2.031,NA,NA,NA,NA,NA,frustrated,"frustrated, not frustrated","more frustrated, less frustrated",NA,NA,NA,NA,NA,NA,NA,NA,NA,NA,NA,NA,NA,NA,NA,NA,NA,NA,NA,NA,NA,NA,NA,NA,NA,NA,NA,NA,NA,NA,NA,NA,NA,NA,NA,NA,NA,NA,0,0,0,1,1,NA,NA,NA,NA,NA
SUPAMT59156,3WEV0KO0OSR8J0FP3B3TFCIIJ7WDSP,EFBCA522-9E3E-4B07-A772-0B143C88E8CE,2023-09-27_13h22.27.502,WP_VExplicitOC_HL,2022.2.5,Win32,8.115104644,61.45833333,3.5447,2.0916,NA,NA,NA,NA,NA,happy,"unhappy, happy","less happy, more happy",NA,NA,NA,NA,NA,NA,NA,NA,NA,NA,NA,NA,NA,NA,NA,NA,NA,NA,NA,NA,NA,NA,NA,NA,NA,NA,NA,NA,NA,NA,NA,NA,NA,NA,NA,NA,NA,NA,0,1,1,0,1,NA,NA,NA,NA,NA
SUPAMT59156,3WEV0KO0OSR8J0FP3B3TFCIIJ7WDSP,EFBCA522-9E3E-4B07-A772-0B143C88E8CE,2023-09-27_13h22.27.502,WP_VExplicitOC_HL,2022.2.5,Win32,8.115104644,45.57291667,3.588,2.0098,NA,NA,NA,NA,NA,bored,"bored, not bored","more bored, less bored",NA,NA,NA,NA,NA,NA,NA,NA,NA,NA,NA,NA,NA,NA,NA,NA,NA,NA,NA,NA,NA,NA,NA,NA,NA,NA,NA,NA,NA,NA,NA,NA,NA,NA,NA,NA,NA,NA,0,2,2,2,1,NA,NA,NA,NA,NA
SUPAMT59156,3WEV0KO0OSR8J0FP3B3TFCIIJ7WDSP,EFBCA522-9E3E-4B07-A772-0B143C88E8CE,2023-09-27_13h22.27.502,WP_VExplicitOC_HL,2022.2.5,Win32,8.115104644,NA,NA,NA,NA,NA,NA,NA,NA,NA,NA,NA,NA,NA,NA,NA,NA,NA,NA,NA,NA,NA,NA,NA,NA,NA,NA,NA,NA,NA,NA,NA,NA,NA,NA,NA,NA,NA,NA,NA,NA,NA,NA,NA,NA,NA,NA,NA,NA,NA,NA,NA,NA,NA,NA,2,0,2,0,1
SUPAMT59156,3WEV0KO0OSR8J0FP3B3TFCIIJ7WDSP,EFBCA522-9E3E-4B07-A772-0B143C88E8CE,2023-09-27_13h22.27.502,WP_VExplicitOC_HL,2022.2.5,Win32,8.115104644,58.59375,4.8935,2.0597,NA,NA,NA,NA,NA,frustrated,"frustrated, not frustrated","more frustrated, less frustrated",NA,NA,NA,NA,NA,NA,NA,NA,NA,NA,NA,NA,NA,NA,NA,NA,NA,NA,NA,NA,NA,NA,NA,NA,NA,NA,NA,NA,NA,NA,NA,NA,NA,NA,NA,NA,NA,NA,0,0,0,1,1,NA,NA,NA,NA,NA
SUPAMT59156,3WEV0KO0OSR8J0FP3B3TFCIIJ7WDSP,EFBCA522-9E3E-4B07-A772-0B143C88E8CE,2023-09-27_13h22.27.502,WP_VExplicitOC_HL,2022.2.5,Win32,8.115104644,41.92708333,3.2859,2.0631,NA,NA,NA,NA,NA,bored,"bored, not bored","more bored, less bored",NA,NA,NA,NA,NA,NA,NA,NA,NA,NA,NA,NA,NA,NA,NA,NA,NA,NA,NA,NA,NA,NA,NA,NA,NA,NA,NA,NA,NA,NA,NA,NA,NA,NA,NA,NA,NA,NA,0,1,1,2,1,NA,NA,NA,NA,NA
SUPAMT59156,3WEV0KO0OSR8J0FP3B3TFCIIJ7WDSP,EFBCA522-9E3E-4B07-A772-0B143C88E8CE,2023-09-27_13h22.27.502,WP_VExplicitOC_HL,2022.2.5,Win32,8.115104644,57.8125,3.6355,2.0859,NA,NA,NA,NA,NA,happy,"unhappy, happy","less happy, more happy",NA,NA,NA,NA,NA,NA,NA,NA,NA,NA,NA,NA,NA,NA,NA,NA,NA,NA,NA,NA,NA,NA,NA,NA,NA,NA,NA,NA,NA,NA,NA,NA,NA,NA,NA,NA,NA,NA,0,2,2,0,1,NA,NA,NA,NA,NA
SUPAMT59156,3WEV0KO0OSR8J0FP3B3TFCIIJ7WDSP,EFBCA522-9E3E-4B07-A772-0B143C88E8CE,2023-09-27_13h22.27.502,WP_VExplicitOC_HL,2022.2.5,Win32,8.115104644,NA,NA,NA,NA,NA,NA,NA,NA,NA,NA,NA,NA,NA,NA,NA,NA,NA,NA,NA,NA,NA,NA,NA,NA,NA,NA,NA,NA,NA,NA,NA,NA,NA,NA,NA,NA,NA,NA,NA,NA,NA,NA,NA,NA,NA,NA,NA,NA,NA,NA,NA,NA,NA,NA,3,0,3,0,1
SUPAMT59156,3WEV0KO0OSR8J0FP3B3TFCIIJ7WDSP,EFBCA522-9E3E-4B07-A772-0B143C88E8CE,2023-09-27_13h22.27.502,WP_VExplicitOC_HL,2022.2.5,Win32,8.115104644,73.95833333,3.6875,2.0304,NA,NA,NA,NA,NA,frustrated,"frustrated, not frustrated","more frustrated, less frustrated",NA,NA,NA,NA,NA,NA,NA,NA,NA,NA,NA,NA,NA,NA,NA,NA,NA,NA,NA,NA,NA,NA,NA,NA,NA,NA,NA,NA,NA,NA,NA,NA,NA,NA,NA,NA,NA,NA,0,0,0,1,1,NA,NA,NA,NA,NA
SUPAMT59156,3WEV0KO0OSR8J0FP3B3TFCIIJ7WDSP,EFBCA522-9E3E-4B07-A772-0B143C88E8CE,2023-09-27_13h22.27.502,WP_VExplicitOC_HL,2022.2.5,Win32,8.115104644,60.15625,3.9189,2.0337,NA,NA,NA,NA,NA,happy,"unhappy, happy","less happy, more happy",NA,NA,NA,NA,NA,NA,NA,NA,NA,NA,NA,NA,NA,NA,NA,NA,NA,NA,NA,NA,NA,NA,NA,NA,NA,NA,NA,NA,NA,NA,NA,NA,NA,NA,NA,NA,NA,NA,0,1,1,0,1,NA,NA,NA,NA,NA
SUPAMT59156,3WEV0KO0OSR8J0FP3B3TFCIIJ7WDSP,EFBCA522-9E3E-4B07-A772-0B143C88E8CE,2023-09-27_13h22.27.502,WP_VExplicitOC_HL,2022.2.5,Win32,8.115104644,66.92708333,3.5231,2.0418,NA,NA,NA,NA,NA,bored,"bored, not bored","more bored, less bored",NA,NA,NA,NA,NA,NA,NA,NA,NA,NA,NA,NA,NA,NA,NA,NA,NA,NA,NA,NA,NA,NA,NA,NA,NA,NA,NA,NA,NA,NA,NA,NA,NA,NA,NA,NA,NA,NA,0,2,2,2,1,NA,NA,NA,NA,NA
SUPAMT59156,3WEV0KO0OSR8J0FP3B3TFCIIJ7WDSP,EFBCA522-9E3E-4B07-A772-0B143C88E8CE,2023-09-27_13h22.27.502,WP_VExplicitOC_HL,2022.2.5,Win32,8.115104644,NA,NA,NA,NA,NA,NA,NA,NA,NA,NA,NA,NA,NA,NA,NA,NA,NA,NA,NA,NA,NA,NA,NA,NA,NA,NA,NA,NA,NA,NA,NA,NA,NA,NA,NA,NA,NA,NA,NA,NA,NA,NA,NA,NA,NA,NA,NA,NA,NA,NA,NA,NA,NA,NA,4,0,4,0,1
SUPAMT59156,3WEV0KO0OSR8J0FP3B3TFCIIJ7WDSP,EFBCA522-9E3E-4B07-A772-0B143C88E8CE,2023-09-27_13h22.27.502,WP_VExplicitOC_HL,2022.2.5,Win32,8.115104644,63.28125,3.9308,2.0288,NA,NA,NA,NA,NA,happy,"unhappy, happy","less happy, more happy",NA,NA,NA,NA,NA,NA,NA,NA,NA,NA,NA,NA,NA,NA,NA,NA,NA,NA,NA,NA,NA,NA,NA,NA,NA,NA,NA,NA,NA,NA,NA,NA,NA,NA,NA,NA,NA,NA,0,0,0,0,1,NA,NA,NA,NA,NA
SUPAMT59156,3WEV0KO0OSR8J0FP3B3TFCIIJ7WDSP,EFBCA522-9E3E-4B07-A772-0B143C88E8CE,2023-09-27_13h22.27.502,WP_VExplicitOC_HL,2022.2.5,Win32,8.115104644,61.71875,3.4288,2.0154,NA,NA,NA,NA,NA,bored,"bored, not bored","more bored, less bored",NA,NA,NA,NA,NA,NA,NA,NA,NA,NA,NA,NA,NA,NA,NA,NA,NA,NA,NA,NA,NA,NA,NA,NA,NA,NA,NA,NA,NA,NA,NA,NA,NA,NA,NA,NA,NA,NA,0,1,1,2,1,NA,NA,NA,NA,NA
SUPAMT59156,3WEV0KO0OSR8J0FP3B3TFCIIJ7WDSP,EFBCA522-9E3E-4B07-A772-0B143C88E8CE,2023-09-27_13h22.27.502,WP_VExplicitOC_HL,2022.2.5,Win32,8.115104644,60.9375,3.6351,2.0083,NA,NA,NA,NA,NA,frustrated,"frustrated, not frustrated","more frustrated, less frustrated",NA,NA,NA,NA,NA,NA,NA,NA,NA,NA,NA,NA,NA,NA,NA,NA,NA,NA,NA,NA,NA,NA,NA,NA,NA,NA,NA,NA,NA,NA,NA,NA,NA,NA,NA,NA,NA,NA,0,2,2,1,1,NA,NA,NA,NA,NA
SUPAMT59156,3WEV0KO0OSR8J0FP3B3TFCIIJ7WDSP,EFBCA522-9E3E-4B07-A772-0B143C88E8CE,2023-09-27_13h22.27.502,WP_VExplicitOC_HL,2022.2.5,Win32,8.115104644,NA,NA,NA,NA,NA,NA,NA,NA,NA,NA,NA,NA,NA,NA,NA,NA,NA,NA,NA,NA,NA,NA,NA,NA,NA,NA,NA,NA,NA,NA,NA,NA,NA,NA,NA,NA,NA,NA,NA,NA,NA,NA,NA,NA,NA,NA,NA,NA,NA,NA,NA,NA,NA,NA,5,0,5,0,1
SUPAMT59156,3WEV0KO0OSR8J0FP3B3TFCIIJ7WDSP,EFBCA522-9E3E-4B07-A772-0B143C88E8CE,2023-09-27_13h22.27.502,WP_VExplicitOC_HL,2022.2.5,Win32,8.115104644,NA,NA,2.033,NA,NA,NA,NA,NA,bored,"bored, not bored","more bored, less bored",NA,NA,NA,NA,NA,NA,NA,NA,NA,NA,NA,NA,NA,NA,NA,NA,NA,NA,NA,NA,NA,NA,NA,NA,NA,NA,NA,NA,NA,NA,NA,NA,NA,NA,NA,NA,NA,NA,0,0,0,2,1,NA,NA,NA,NA,NA
SUPAMT59156,3WEV0KO0OSR8J0FP3B3TFCIIJ7WDSP,EFBCA522-9E3E-4B07-A772-0B143C88E8CE,2023-09-27_13h22.27.502,WP_VExplicitOC_HL,2022.2.5,Win32,8.115104644,NA,NA,2.0025,NA,NA,NA,NA,NA,happy,"unhappy, happy","less happy, more happy",NA,NA,NA,NA,NA,NA,NA,NA,NA,NA,NA,NA,NA,NA,NA,NA,NA,NA,NA,NA,NA,NA,NA,NA,NA,NA,NA,NA,NA,NA,NA,NA,NA,NA,NA,NA,NA,NA,0,1,1,0,1,NA,NA,NA,NA,NA
SUPAMT59156,3WEV0KO0OSR8J0FP3B3TFCIIJ7WDSP,EFBCA522-9E3E-4B07-A772-0B143C88E8CE,2023-09-27_13h22.27.502,WP_VExplicitOC_HL,2022.2.5,Win32,8.115104644,53.38541667,3.6595,2.09,NA,NA,NA,NA,NA,frustrated,"frustrated, not frustrated","more frustrated, less frustrated",NA,NA,NA,NA,NA,NA,NA,NA,NA,NA,NA,NA,NA,NA,NA,NA,NA,NA,NA,NA,NA,NA,NA,NA,NA,NA,NA,NA,NA,NA,NA,NA,NA,NA,NA,NA,NA,NA,0,2,2,1,1,NA,NA,NA,NA,NA
SUPAMT59156,3WEV0KO0OSR8J0FP3B3TFCIIJ7WDSP,EFBCA522-9E3E-4B07-A772-0B143C88E8CE,2023-09-27_13h22.27.502,WP_VExplicitOC_HL,2022.2.5,Win32,8.115104644,NA,NA,NA,NA,NA,NA,NA,NA,NA,NA,NA,NA,NA,NA,NA,NA,NA,NA,NA,NA,NA,NA,NA,NA,NA,NA,NA,NA,NA,NA,NA,NA,NA,NA,NA,NA,NA,NA,NA,NA,NA,NA,NA,NA,NA,NA,NA,NA,NA,NA,NA,NA,NA,NA,6,0,6,0,1
SUPAMT59156,3WEV0KO0OSR8J0FP3B3TFCIIJ7WDSP,EFBCA522-9E3E-4B07-A772-0B143C88E8CE,2023-09-27_13h22.27.502,WP_VExplicitOC_HL,2022.2.5,Win32,8.115104644,63.02083333,3.742,2.0098,NA,NA,NA,NA,NA,frustrated,"frustrated, not frustrated","more frustrated, less frustrated",NA,NA,NA,NA,NA,NA,NA,NA,NA,NA,NA,NA,NA,NA,NA,NA,NA,NA,NA,NA,NA,NA,NA,NA,NA,NA,NA,NA,NA,NA,NA,NA,NA,NA,NA,NA,NA,NA,0,0,0,1,1,NA,NA,NA,NA,NA
SUPAMT59156,3WEV0KO0OSR8J0FP3B3TFCIIJ7WDSP,EFBCA522-9E3E-4B07-A772-0B143C88E8CE,2023-09-27_13h22.27.502,WP_VExplicitOC_HL,2022.2.5,Win32,8.115104644,65.625,3.4648,2.036,NA,NA,NA,NA,NA,bored,"bored, not bored","more bored, less bored",NA,NA,NA,NA,NA,NA,NA,NA,NA,NA,NA,NA,NA,NA,NA,NA,NA,NA,NA,NA,NA,NA,NA,NA,NA,NA,NA,NA,NA,NA,NA,NA,NA,NA,NA,NA,NA,NA,0,1,1,2,1,NA,NA,NA,NA,NA
SUPAMT59156,3WEV0KO0OSR8J0FP3B3TFCIIJ7WDSP,EFBCA522-9E3E-4B07-A772-0B143C88E8CE,2023-09-27_13h22.27.502,WP_VExplicitOC_HL,2022.2.5,Win32,8.115104644,63.28125,3.5599,2.0316,NA,NA,NA,NA,NA,happy,"unhappy, happy","less happy, more happy",NA,NA,NA,NA,NA,NA,NA,NA,NA,NA,NA,NA,NA,NA,NA,NA,NA,NA,NA,NA,NA,NA,NA,NA,NA,NA,NA,NA,NA,NA,NA,NA,NA,NA,NA,NA,NA,NA,0,2,2,0,1,NA,NA,NA,NA,NA
SUPAMT59156,3WEV0KO0OSR8J0FP3B3TFCIIJ7WDSP,EFBCA522-9E3E-4B07-A772-0B143C88E8CE,2023-09-27_13h22.27.502,WP_VExplicitOC_HL,2022.2.5,Win32,8.115104644,NA,NA,NA,NA,NA,NA,NA,NA,NA,NA,NA,NA,NA,NA,NA,NA,NA,NA,NA,NA,NA,NA,NA,NA,NA,NA,NA,NA,NA,NA,NA,NA,NA,NA,NA,NA,NA,NA,NA,NA,NA,NA,NA,NA,NA,NA,NA,NA,NA,NA,NA,NA,NA,NA,7,0,7,0,1
SUPAMT59156,3WEV0KO0OSR8J0FP3B3TFCIIJ7WDSP,EFBCA522-9E3E-4B07-A772-0B143C88E8CE,2023-09-27_13h22.27.502,WP_VExplicitOC_HL,2022.2.5,Win32,8.115104644,50.52083333,3.721,2.1035,NA,NA,NA,NA,NA,bored,"bored, not bored","more bored, less bored",NA,NA,NA,NA,NA,NA,NA,NA,NA,NA,NA,NA,NA,NA,NA,NA,NA,NA,NA,NA,NA,NA,NA,NA,NA,NA,NA,NA,NA,NA,NA,NA,NA,NA,NA,NA,NA,NA,0,0,0,2,1,NA,NA,NA,NA,NA
SUPAMT59156,3WEV0KO0OSR8J0FP3B3TFCIIJ7WDSP,EFBCA522-9E3E-4B07-A772-0B143C88E8CE,2023-09-27_13h22.27.502,WP_VExplicitOC_HL,2022.2.5,Win32,8.115104644,64.0625,3.7953,2.1293,NA,NA,NA,NA,NA,happy,"unhappy, happy","less happy, more happy",NA,NA,NA,NA,NA,NA,NA,NA,NA,NA,NA,NA,NA,NA,NA,NA,NA,NA,NA,NA,NA,NA,NA,NA,NA,NA,NA,NA,NA,NA,NA,NA,NA,NA,NA,NA,NA,NA,0,1,1,0,1,NA,NA,NA,NA,NA
SUPAMT59156,3WEV0KO0OSR8J0FP3B3TFCIIJ7WDSP,EFBCA522-9E3E-4B07-A772-0B143C88E8CE,2023-09-27_13h22.27.502,WP_VExplicitOC_HL,2022.2.5,Win32,8.115104644,56.51041667,3.88,2.0385,NA,NA,NA,NA,NA,frustrated,"frustrated, not frustrated","more frustrated, less frustrated",NA,NA,NA,NA,NA,NA,NA,NA,NA,NA,NA,NA,NA,NA,NA,NA,NA,NA,NA,NA,NA,NA,NA,NA,NA,NA,NA,NA,NA,NA,NA,NA,NA,NA,NA,NA,NA,NA,0,2,2,1,1,NA,NA,NA,NA,NA
SUPAMT59156,3WEV0KO0OSR8J0FP3B3TFCIIJ7WDSP,EFBCA522-9E3E-4B07-A772-0B143C88E8CE,2023-09-27_13h22.27.502,WP_VExplicitOC_HL,2022.2.5,Win32,8.115104644,NA,NA,NA,NA,NA,NA,NA,NA,NA,NA,NA,NA,NA,NA,NA,NA,NA,NA,NA,NA,NA,NA,NA,NA,NA,NA,NA,NA,NA,NA,NA,NA,NA,NA,NA,NA,NA,NA,NA,NA,NA,NA,NA,NA,NA,NA,NA,NA,NA,NA,NA,NA,NA,NA,8,0,8,0,1
SUPAMT59156,3WEV0KO0OSR8J0FP3B3TFCIIJ7WDSP,EFBCA522-9E3E-4B07-A772-0B143C88E8CE,2023-09-27_13h22.27.502,WP_VExplicitOC_HL,2022.2.5,Win32,8.115104644,53.38541667,3.6651,2.0663,NA,NA,NA,NA,NA,frustrated,"frustrated, not frustrated","more frustrated, less frustrated",NA,NA,NA,NA,NA,NA,NA,NA,NA,NA,NA,NA,NA,NA,NA,NA,NA,NA,NA,NA,NA,NA,NA,NA,NA,NA,NA,NA,NA,NA,NA,NA,NA,NA,NA,NA,NA,NA,0,0,0,1,1,NA,NA,NA,NA,NA
SUPAMT59156,3WEV0KO0OSR8J0FP3B3TFCIIJ7WDSP,EFBCA522-9E3E-4B07-A772-0B143C88E8CE,2023-09-27_13h22.27.502,WP_VExplicitOC_HL,2022.2.5,Win32,8.115104644,55.72916667,3.8627,2.1004,NA,NA,NA,NA,NA,bored,"bored, not bored","more bored, less bored",NA,NA,NA,NA,NA,NA,NA,NA,NA,NA,NA,NA,NA,NA,NA,NA,NA,NA,NA,NA,NA,NA,NA,NA,NA,NA,NA,NA,NA,NA,NA,NA,NA,NA,NA,NA,NA,NA,0,1,1,2,1,NA,NA,NA,NA,NA
SUPAMT59156,3WEV0KO0OSR8J0FP3B3TFCIIJ7WDSP,EFBCA522-9E3E-4B07-A772-0B143C88E8CE,2023-09-27_13h22.27.502,WP_VExplicitOC_HL,2022.2.5,Win32,8.115104644,58.85416667,3.5783,2.0146,NA,NA,NA,NA,NA,happy,"unhappy, happy","less happy, more happy",NA,NA,NA,NA,NA,NA,NA,NA,NA,NA,NA,NA,NA,NA,NA,NA,NA,NA,NA,NA,NA,NA,NA,NA,NA,NA,NA,NA,NA,NA,NA,NA,NA,NA,NA,NA,NA,NA,0,2,2,0,1,NA,NA,NA,NA,NA
SUPAMT59156,3WEV0KO0OSR8J0FP3B3TFCIIJ7WDSP,EFBCA522-9E3E-4B07-A772-0B143C88E8CE,2023-09-27_13h22.27.502,WP_VExplicitOC_HL,2022.2.5,Win32,8.115104644,NA,NA,NA,NA,NA,NA,NA,NA,NA,NA,NA,NA,NA,NA,NA,NA,NA,NA,NA,NA,NA,NA,NA,NA,NA,NA,NA,NA,NA,NA,NA,NA,NA,NA,NA,NA,NA,NA,NA,NA,NA,NA,NA,NA,NA,NA,NA,NA,NA,NA,NA,NA,NA,NA,9,0,9,0,1
SUPAMT59156,3WEV0KO0OSR8J0FP3B3TFCIIJ7WDSP,EFBCA522-9E3E-4B07-A772-0B143C88E8CE,2023-09-27_13h22.27.502,WP_VExplicitOC_HL,2022.2.5,Win32,8.115104644,42.44791667,5.3098,2.0449,NA,NA,NA,NA,NA,bored,"bored, not bored","more bored, less bored",NA,NA,NA,NA,NA,NA,NA,NA,NA,NA,NA,NA,NA,NA,NA,NA,NA,NA,NA,NA,NA,NA,NA,NA,NA,NA,NA,NA,NA,NA,NA,NA,NA,NA,NA,NA,NA,NA,0,0,0,2,1,NA,NA,NA,NA,NA
SUPAMT59156,3WEV0KO0OSR8J0FP3B3TFCIIJ7WDSP,EFBCA522-9E3E-4B07-A772-0B143C88E8CE,2023-09-27_13h22.27.502,WP_VExplicitOC_HL,2022.2.5,Win32,8.115104644,43.48958333,3.2306,2.0451,NA,NA,NA,NA,NA,frustrated,"frustrated, not frustrated","more frustrated, less frustrated",NA,NA,NA,NA,NA,NA,NA,NA,NA,NA,NA,NA,NA,NA,NA,NA,NA,NA,NA,NA,NA,NA,NA,NA,NA,NA,NA,NA,NA,NA,NA,NA,NA,NA,NA,NA,NA,NA,0,1,1,1,1,NA,NA,NA,NA,NA
SUPAMT59156,3WEV0KO0OSR8J0FP3B3TFCIIJ7WDSP,EFBCA522-9E3E-4B07-A772-0B143C88E8CE,2023-09-27_13h22.27.502,WP_VExplicitOC_HL,2022.2.5,Win32,8.115104644,52.86458333,3.6318,2.0071,NA,NA,NA,NA,NA,happy,"unhappy, happy","less happy, more happy",NA,NA,NA,NA,NA,NA,NA,NA,NA,NA,NA,NA,NA,NA,NA,NA,NA,NA,NA,NA,NA,NA,NA,NA,NA,NA,NA,NA,NA,NA,NA,NA,NA,NA,NA,NA,NA,NA,0,2,2,0,1,NA,NA,NA,NA,NA
SUPAMT59156,3WEV0KO0OSR8J0FP3B3TFCIIJ7WDSP,EFBCA522-9E3E-4B07-A772-0B143C88E8CE,2023-09-27_13h22.27.502,WP_VExplicitOC_HL,2022.2.5,Win32,8.115104644,NA,NA,NA,NA,NA,NA,NA,NA,NA,NA,NA,NA,NA,NA,NA,NA,NA,NA,NA,NA,NA,NA,NA,NA,NA,NA,NA,NA,NA,NA,NA,NA,NA,NA,NA,NA,NA,NA,NA,NA,NA,NA,NA,NA,NA,NA,NA,NA,NA,NA,NA,NA,NA,NA,10,0,10,0,1
SUPAMT59156,3WEV0KO0OSR8J0FP3B3TFCIIJ7WDSP,EFBCA522-9E3E-4B07-A772-0B143C88E8CE,2023-09-27_13h22.27.502,WP_VExplicitOC_HL,2022.2.5,Win32,8.115104644,55.20833333,3.3561,2.0038,NA,NA,NA,NA,NA,frustrated,"frustrated, not frustrated","more frustrated, less frustrated",NA,NA,NA,NA,NA,NA,NA,NA,NA,NA,NA,NA,NA,NA,NA,NA,NA,NA,NA,NA,NA,NA,NA,NA,NA,NA,NA,NA,NA,NA,NA,NA,NA,NA,NA,NA,NA,NA,0,0,0,1,1,NA,NA,NA,NA,NA
SUPAMT59156,3WEV0KO0OSR8J0FP3B3TFCIIJ7WDSP,EFBCA522-9E3E-4B07-A772-0B143C88E8CE,2023-09-27_13h22.27.502,WP_VExplicitOC_HL,2022.2.5,Win32,8.115104644,55.20833333,3.4854,2.0194,NA,NA,NA,NA,NA,happy,"unhappy, happy","less happy, more happy",NA,NA,NA,NA,NA,NA,NA,NA,NA,NA,NA,NA,NA,NA,NA,NA,NA,NA,NA,NA,NA,NA,NA,NA,NA,NA,NA,NA,NA,NA,NA,NA,NA,NA,NA,NA,NA,NA,0,1,1,0,1,NA,NA,NA,NA,NA
SUPAMT59156,3WEV0KO0OSR8J0FP3B3TFCIIJ7WDSP,EFBCA522-9E3E-4B07-A772-0B143C88E8CE,2023-09-27_13h22.27.502,WP_VExplicitOC_HL,2022.2.5,Win32,8.115104644,59.11458333,3.6983,2.0514,NA,NA,NA,NA,NA,bored,"bored, not bored","more bored, less bored",NA,NA,NA,NA,NA,NA,NA,NA,NA,NA,NA,NA,NA,NA,NA,NA,NA,NA,NA,NA,NA,NA,NA,NA,NA,NA,NA,NA,NA,NA,NA,NA,NA,NA,NA,NA,NA,NA,0,2,2,2,1,NA,NA,NA,NA,NA
SUPAMT59156,3WEV0KO0OSR8J0FP3B3TFCIIJ7WDSP,EFBCA522-9E3E-4B07-A772-0B143C88E8CE,2023-09-27_13h22.27.502,WP_VExplicitOC_HL,2022.2.5,Win32,8.115104644,NA,NA,NA,NA,NA,NA,NA,NA,NA,NA,NA,NA,NA,NA,NA,NA,NA,NA,NA,NA,NA,NA,NA,NA,NA,NA,NA,NA,NA,NA,NA,NA,NA,NA,NA,NA,NA,NA,NA,NA,NA,NA,NA,NA,NA,NA,NA,NA,NA,NA,NA,NA,NA,NA,11,0,11,0,1
SUPAMT59156,3WEV0KO0OSR8J0FP3B3TFCIIJ7WDSP,EFBCA522-9E3E-4B07-A772-0B143C88E8CE,2023-09-27_13h22.27.502,WP_VExplicitOC_HL,2022.2.5,Win32,8.115104644,46.09375,3.6609,2.0574,NA,NA,NA,NA,NA,happy,"unhappy, happy","less happy, more happy",NA,NA,NA,NA,NA,NA,NA,NA,NA,NA,NA,NA,NA,NA,NA,NA,NA,NA,NA,NA,NA,NA,NA,NA,NA,NA,NA,NA,NA,NA,NA,NA,NA,NA,NA,NA,NA,NA,0,0,0,0,1,NA,NA,NA,NA,NA
SUPAMT59156,3WEV0KO0OSR8J0FP3B3TFCIIJ7WDSP,EFBCA522-9E3E-4B07-A772-0B143C88E8CE,2023-09-27_13h22.27.502,WP_VExplicitOC_HL,2022.2.5,Win32,8.115104644,50.78125,4.1669,2.0914,NA,NA,NA,NA,NA,bored,"bored, not bored","more bored, less bored",NA,NA,NA,NA,NA,NA,NA,NA,NA,NA,NA,NA,NA,NA,NA,NA,NA,NA,NA,NA,NA,NA,NA,NA,NA,NA,NA,NA,NA,NA,NA,NA,NA,NA,NA,NA,NA,NA,0,1,1,2,1,NA,NA,NA,NA,NA
SUPAMT59156,3WEV0KO0OSR8J0FP3B3TFCIIJ7WDSP,EFBCA522-9E3E-4B07-A772-0B143C88E8CE,2023-09-27_13h22.27.502,WP_VExplicitOC_HL,2022.2.5,Win32,8.115104644,54.42708333,3.5352,2.0637,NA,NA,NA,NA,NA,frustrated,"frustrated, not frustrated","more frustrated, less frustrated",NA,NA,NA,NA,NA,NA,NA,NA,NA,NA,NA,NA,NA,NA,NA,NA,NA,NA,NA,NA,NA,NA,NA,NA,NA,NA,NA,NA,NA,NA,NA,NA,NA,NA,NA,NA,NA,NA,0,2,2,1,1,NA,NA,NA,NA,NA
SUPAMT59156,3WEV0KO0OSR8J0FP3B3TFCIIJ7WDSP,EFBCA522-9E3E-4B07-A772-0B143C88E8CE,2023-09-27_13h22.27.502,WP_VExplicitOC_HL,2022.2.5,Win32,8.115104644,NA,NA,NA,NA,NA,NA,NA,NA,NA,NA,NA,NA,NA,NA,NA,NA,NA,NA,NA,NA,NA,NA,NA,NA,NA,NA,NA,NA,NA,NA,NA,NA,NA,NA,NA,NA,NA,NA,NA,NA,NA,NA,NA,NA,NA,NA,NA,NA,NA,NA,NA,NA,NA,NA,12,0,12,0,1
SUPAMT59156,3WEV0KO0OSR8J0FP3B3TFCIIJ7WDSP,EFBCA522-9E3E-4B07-A772-0B143C88E8CE,2023-09-27_13h22.27.502,WP_VExplicitOC_HL,2022.2.5,Win32,8.115104644,36.71875,3.8483,2.0744,NA,NA,NA,NA,NA,bored,"bored, not bored","more bored, less bored",NA,NA,NA,NA,NA,NA,NA,NA,NA,NA,NA,NA,NA,NA,NA,NA,NA,NA,NA,NA,NA,NA,NA,NA,NA,NA,NA,NA,NA,NA,NA,NA,NA,NA,NA,NA,NA,NA,0,0,0,2,1,NA,NA,NA,NA,NA
SUPAMT59156,3WEV0KO0OSR8J0FP3B3TFCIIJ7WDSP,EFBCA522-9E3E-4B07-A772-0B143C88E8CE,2023-09-27_13h22.27.502,WP_VExplicitOC_HL,2022.2.5,Win32,8.115104644,55.46875,3.3215,2.0586,NA,NA,NA,NA,NA,happy,"unhappy, happy","less happy, more happy",NA,NA,NA,NA,NA,NA,NA,NA,NA,NA,NA,NA,NA,NA,NA,NA,NA,NA,NA,NA,NA,NA,NA,NA,NA,NA,NA,NA,NA,NA,NA,NA,NA,NA,NA,NA,NA,NA,0,1,1,0,1,NA,NA,NA,NA,NA
SUPAMT59156,3WEV0KO0OSR8J0FP3B3TFCIIJ7WDSP,EFBCA522-9E3E-4B07-A772-0B143C88E8CE,2023-09-27_13h22.27.502,WP_VExplicitOC_HL,2022.2.5,Win32,8.115104644,52.08333333,3.546,2.0229,NA,NA,NA,NA,NA,frustrated,"frustrated, not frustrated","more frustrated, less frustrated",NA,NA,NA,NA,NA,NA,NA,NA,NA,NA,NA,NA,NA,NA,NA,NA,NA,NA,NA,NA,NA,NA,NA,NA,NA,NA,NA,NA,NA,NA,NA,NA,NA,NA,NA,NA,NA,NA,0,2,2,1,1,NA,NA,NA,NA,NA
SUPAMT59156,3WEV0KO0OSR8J0FP3B3TFCIIJ7WDSP,EFBCA522-9E3E-4B07-A772-0B143C88E8CE,2023-09-27_13h22.27.502,WP_VExplicitOC_HL,2022.2.5,Win32,8.115104644,NA,NA,NA,NA,NA,NA,NA,NA,NA,NA,NA,NA,NA,NA,NA,NA,NA,NA,NA,NA,NA,NA,NA,NA,NA,NA,NA,NA,NA,NA,NA,NA,NA,NA,NA,NA,NA,NA,NA,NA,NA,NA,NA,NA,NA,NA,NA,NA,NA,NA,NA,NA,NA,NA,13,0,13,0,1
SUPAMT59156,3WEV0KO0OSR8J0FP3B3TFCIIJ7WDSP,EFBCA522-9E3E-4B07-A772-0B143C88E8CE,2023-09-27_13h22.27.502,WP_VExplicitOC_HL,2022.2.5,Win32,8.115104644,48.69791667,3.6548,2.0857,NA,NA,NA,NA,NA,bored,"bored, not bored","more bored, less bored",NA,NA,NA,NA,NA,NA,NA,NA,NA,NA,NA,NA,NA,NA,NA,NA,NA,NA,NA,NA,NA,NA,NA,NA,NA,NA,NA,NA,NA,NA,NA,NA,NA,NA,NA,NA,NA,NA,0,0,0,2,1,NA,NA,NA,NA,NA
SUPAMT59156,3WEV0KO0OSR8J0FP3B3TFCIIJ7WDSP,EFBCA522-9E3E-4B07-A772-0B143C88E8CE,2023-09-27_13h22.27.502,WP_VExplicitOC_HL,2022.2.5,Win32,8.115104644,58.59375,3.3651,2.0604,NA,NA,NA,NA,NA,happy,"unhappy, happy","less happy, more happy",NA,NA,NA,NA,NA,NA,NA,NA,NA,NA,NA,NA,NA,NA,NA,NA,NA,NA,NA,NA,NA,NA,NA,NA,NA,NA,NA,NA,NA,NA,NA,NA,NA,NA,NA,NA,NA,NA,0,1,1,0,1,NA,NA,NA,NA,NA
SUPAMT59156,3WEV0KO0OSR8J0FP3B3TFCIIJ7WDSP,EFBCA522-9E3E-4B07-A772-0B143C88E8CE,2023-09-27_13h22.27.502,WP_VExplicitOC_HL,2022.2.5,Win32,8.115104644,55.20833333,3.4844,2.0262,NA,NA,NA,NA,NA,frustrated,"frustrated, not frustrated","more frustrated, less frustrated",NA,NA,NA,NA,NA,NA,NA,NA,NA,NA,NA,NA,NA,NA,NA,NA,NA,NA,NA,NA,NA,NA,NA,NA,NA,NA,NA,NA,NA,NA,NA,NA,NA,NA,NA,NA,NA,NA,0,2,2,1,1,NA,NA,NA,NA,NA
SUPAMT59156,3WEV0KO0OSR8J0FP3B3TFCIIJ7WDSP,EFBCA522-9E3E-4B07-A772-0B143C88E8CE,2023-09-27_13h22.27.502,WP_VExplicitOC_HL,2022.2.5,Win32,8.115104644,NA,NA,NA,NA,NA,NA,NA,NA,NA,NA,NA,NA,NA,NA,NA,NA,NA,NA,NA,NA,NA,NA,NA,NA,NA,NA,NA,NA,NA,NA,NA,NA,NA,NA,NA,NA,NA,NA,NA,NA,NA,NA,NA,NA,NA,NA,NA,NA,NA,NA,NA,NA,NA,NA,14,0,14,0,1
SUPAMT59156,3WEV0KO0OSR8J0FP3B3TFCIIJ7WDSP,EFBCA522-9E3E-4B07-A772-0B143C88E8CE,2023-09-27_13h22.27.502,WP_VExplicitOC_HL,2022.2.5,Win32,8.115104644,NA,NA,NA,NA,NA,NA,NA,NA,NA,NA,NA,NA,NA,NA,NA,NA,NA,NA,NA,NA,NA,NA,NA,NA,NA,NA,NA,NA,NA,NA,NA,NA,NA,NA,NA,NA,NA,NA,NA,NA,NA,NA,NA,NA,NA,NA,NA,NA,NA,NA,NA,NA,NA,NA,NA,NA,NA,NA,NA
