participant,session,completion,date,expName,psychopyVersion,OS,frameRate,rating_all.response,rating_all.rt,rating_all.tStart,rndRat1.thisRepN,rndRat1.thisTrialN,rndRat1.thisN,rndRat1.thisIndex,rndRat1.ran,Emo,Labs,Labs2,rating_alt.response,rating_alt.rt,AltC.thisRepN,AltC.thisTrialN,AltC.thisN,AltC.thisIndex,AltC.ran,alt_choices,pic_choices,BottomAlt_Choice,rndRat2.thisRepN,rndRat2.thisTrialN,rndRat2.thisN,rndRat2.thisIndex,rndRat2.ran,rndRat3.thisRepN,rndRat3.thisTrialN,rndRat3.thisN,rndRat3.thisIndex,rndRat3.ran,trials_FC_L.thisRepN,trials_FC_L.thisTrialN,trials_FC_L.thisN,trials_FC_L.thisIndex,trials_FC_L.ran,rating_alt_2.response,rating_alt_2.rt,AltC2.thisRepN,AltC2.thisTrialN,AltC2.thisN,AltC2.thisIndex,AltC2.ran,TopAlt_Choice,rndRat4.thisRepN,rndRat4.thisTrialN,rndRat4.thisN,rndRat4.thisIndex,rndRat4.ran,rndRat5.thisRepN,rndRat5.thisTrialN,rndRat5.thisN,rndRat5.thisIndex,rndRat5.ran,trials_FC_H.thisRepN,trials_FC_H.thisTrialN,trials_FC_H.thisN,trials_FC_H.thisIndex,trials_FC_H.ran
SUPAMT18178,39O5D9O87ZRUUROWD07HNYSO6YPC3E,83F8F53E-74DE-4D16-981A-B466B5739767,2023-09-28_14h35.02.867,WP_VExplicitOC_LH,2022.2.5,MacIntel,59.99520038,NA,NA,NA,NA,NA,NA,NA,NA,NA,NA,NA,NA,NA,NA,NA,NA,NA,NA,NA,NA,NA,NA,NA,NA,NA,NA,NA,NA,NA,NA,NA,NA,NA,NA,NA,NA,NA,NA,NA,NA,NA,NA,NA,NA,NA,NA,NA,NA,NA,NA,NA,NA,NA,NA,NA,NA,NA,NA,NA
SUPAMT18178,39O5D9O87ZRUUROWD07HNYSO6YPC3E,83F8F53E-74DE-4D16-981A-B466B5739767,2023-09-28_14h35.02.867,WP_VExplicitOC_LH,2022.2.5,MacIntel,59.99520038,NA,NA,NA,NA,NA,NA,NA,NA,NA,NA,NA,NA,NA,NA,NA,NA,NA,NA,NA,NA,NA,NA,NA,NA,NA,NA,NA,NA,NA,NA,NA,NA,NA,NA,NA,NA,NA,NA,NA,NA,NA,NA,NA,NA,NA,NA,NA,NA,NA,NA,NA,NA,NA,NA,NA,NA,NA,NA,NA
SUPAMT18178,39O5D9O87ZRUUROWD07HNYSO6YPC3E,83F8F53E-74DE-4D16-981A-B466B5739767,2023-09-28_14h35.02.867,WP_VExplicitOC_LH,2022.2.5,MacIntel,59.99520038,NA,NA,NA,NA,NA,NA,NA,NA,NA,NA,NA,NA,NA,NA,NA,NA,NA,NA,NA,NA,NA,NA,NA,NA,NA,NA,NA,NA,NA,NA,NA,NA,NA,NA,NA,NA,NA,NA,NA,NA,NA,NA,NA,NA,NA,NA,NA,NA,NA,NA,NA,NA,NA,NA,NA,NA,NA,NA,NA
SUPAMT18178,39O5D9O87ZRUUROWD07HNYSO6YPC3E,83F8F53E-74DE-4D16-981A-B466B5739767,2023-09-28_14h35.02.867,WP_VExplicitOC_LH,2022.2.5,MacIntel,59.99520038,71.95092095,5.1792,2.0039,0,0,0,1,1,frustrated,"frustrated, not frustrated","more frustrated, less frustrated",NA,NA,NA,NA,NA,NA,NA,NA,NA,NA,NA,NA,NA,NA,NA,NA,NA,NA,NA,NA,NA,NA,NA,NA,NA,NA,NA,NA,NA,NA,NA,NA,NA,NA,NA,NA,NA,NA,NA,NA,NA,NA,NA,NA,NA,NA,NA,NA
SUPAMT18178,39O5D9O87ZRUUROWD07HNYSO6YPC3E,83F8F53E-74DE-4D16-981A-B466B5739767,2023-09-28_14h35.02.867,WP_VExplicitOC_LH,2022.2.5,MacIntel,59.99520038,0.571577284,4.6436,2.0152,0,1,1,0,1,happy,"unhappy, happy","less happy, more happy",NA,NA,NA,NA,NA,NA,NA,NA,NA,NA,NA,NA,NA,NA,NA,NA,NA,NA,NA,NA,NA,NA,NA,NA,NA,NA,NA,NA,NA,NA,NA,NA,NA,NA,NA,NA,NA,NA,NA,NA,NA,NA,NA,NA,NA,NA,NA,NA
SUPAMT18178,39O5D9O87ZRUUROWD07HNYSO6YPC3E,83F8F53E-74DE-4D16-981A-B466B5739767,2023-09-28_14h35.02.867,WP_VExplicitOC_LH,2022.2.5,MacIntel,59.99520038,-18.22825114,3.4426,2.0136,0,2,2,2,1,bored,"bored, not bored","more bored, less bored",NA,NA,NA,NA,NA,NA,NA,NA,NA,NA,NA,NA,NA,NA,NA,NA,NA,NA,NA,NA,NA,NA,NA,NA,NA,NA,NA,NA,NA,NA,NA,NA,NA,NA,NA,NA,NA,NA,NA,NA,NA,NA,NA,NA,NA,NA,NA,NA
SUPAMT18178,39O5D9O87ZRUUROWD07HNYSO6YPC3E,83F8F53E-74DE-4D16-981A-B466B5739767,2023-09-28_14h35.02.867,WP_VExplicitOC_LH,2022.2.5,MacIntel,59.99520038,NA,NA,NA,NA,NA,NA,NA,NA,NA,NA,NA,NA,NA,NA,NA,NA,NA,NA,NA,NA,NA,NA,NA,NA,NA,NA,NA,NA,NA,NA,NA,NA,NA,NA,NA,NA,NA,NA,NA,NA,NA,NA,NA,NA,NA,NA,NA,NA,NA,NA,NA,NA,NA,NA,NA,NA,NA,NA,NA
SUPAMT18178,39O5D9O87ZRUUROWD07HNYSO6YPC3E,83F8F53E-74DE-4D16-981A-B466B5739767,2023-09-28_14h35.02.867,WP_VExplicitOC_LH,2022.2.5,MacIntel,59.99520038,NA,NA,NA,NA,NA,NA,NA,NA,NA,NA,NA,NA,NA,NA,NA,NA,NA,NA,NA,NA,NA,NA,NA,NA,NA,NA,NA,NA,NA,NA,NA,NA,NA,NA,NA,NA,NA,NA,NA,NA,NA,NA,NA,NA,NA,NA,NA,NA,NA,NA,NA,NA,NA,NA,NA,NA,NA,NA,NA
SUPAMT18178,39O5D9O87ZRUUROWD07HNYSO6YPC3E,83F8F53E-74DE-4D16-981A-B466B5739767,2023-09-28_14h35.02.867,WP_VExplicitOC_LH,2022.2.5,MacIntel,59.99520038,NA,NA,NA,NA,NA,NA,NA,NA,NA,NA,NA,NA,NA,NA,NA,NA,NA,NA,NA,NA,NA,NA,NA,NA,NA,NA,NA,NA,NA,NA,NA,NA,NA,NA,NA,NA,NA,NA,NA,NA,NA,NA,NA,NA,NA,NA,NA,NA,NA,NA,NA,NA,NA,NA,NA,NA,NA,NA,NA
SUPAMT18178,39O5D9O87ZRUUROWD07HNYSO6YPC3E,83F8F53E-74DE-4D16-981A-B466B5739767,2023-09-28_14h35.02.867,WP_VExplicitOC_LH,2022.2.5,MacIntel,59.99520038,NA,NA,NA,NA,NA,NA,NA,NA,NA,NA,NA,NA,NA,NA,NA,NA,NA,NA,NA,NA,NA,NA,NA,NA,NA,NA,NA,NA,NA,NA,NA,NA,NA,NA,NA,NA,NA,NA,NA,NA,NA,NA,NA,NA,NA,NA,NA,NA,NA,NA,NA,NA,NA,NA,NA,NA,NA,NA,NA
SUPAMT18178,39O5D9O87ZRUUROWD07HNYSO6YPC3E,83F8F53E-74DE-4D16-981A-B466B5739767,2023-09-28_14h35.02.867,WP_VExplicitOC_LH,2022.2.5,MacIntel,59.99520038,NA,NA,NA,NA,NA,NA,NA,NA,NA,NA,NA,-34.5638699,5.9865,0,0,0,0,1,rest (looking at a fixed cross),001.png,NA,NA,NA,NA,NA,NA,NA,NA,NA,NA,NA,NA,NA,NA,NA,NA,NA,NA,NA,NA,NA,NA,NA,NA,NA,NA,NA,NA,NA,NA,NA,NA,NA,NA,NA,NA,NA,NA,NA
SUPAMT18178,39O5D9O87ZRUUROWD07HNYSO6YPC3E,83F8F53E-74DE-4D16-981A-B466B5739767,2023-09-28_14h35.02.867,WP_VExplicitOC_LH,2022.2.5,MacIntel,59.99520038,NA,NA,NA,NA,NA,NA,NA,NA,NA,NA,NA,29.38656277,1.6474,0,1,1,1,1,stand up,002.png,NA,NA,NA,NA,NA,NA,NA,NA,NA,NA,NA,NA,NA,NA,NA,NA,NA,NA,NA,NA,NA,NA,NA,NA,NA,NA,NA,NA,NA,NA,NA,NA,NA,NA,NA,NA,NA,NA,NA
SUPAMT18178,39O5D9O87ZRUUROWD07HNYSO6YPC3E,83F8F53E-74DE-4D16-981A-B466B5739767,2023-09-28_14h35.02.867,WP_VExplicitOC_LH,2022.2.5,MacIntel,59.99520038,NA,NA,NA,NA,NA,NA,NA,NA,NA,NA,NA,75.98188612,1.1493,0,2,2,2,1,stretch,003.png,NA,NA,NA,NA,NA,NA,NA,NA,NA,NA,NA,NA,NA,NA,NA,NA,NA,NA,NA,NA,NA,NA,NA,NA,NA,NA,NA,NA,NA,NA,NA,NA,NA,NA,NA,NA,NA,NA,NA
SUPAMT18178,39O5D9O87ZRUUROWD07HNYSO6YPC3E,83F8F53E-74DE-4D16-981A-B466B5739767,2023-09-28_14h35.02.867,WP_VExplicitOC_LH,2022.2.5,MacIntel,59.99520038,NA,NA,NA,NA,NA,NA,NA,NA,NA,NA,NA,29.01072184,1.2485,0,3,3,3,1,make a drink,004.png,NA,NA,NA,NA,NA,NA,NA,NA,NA,NA,NA,NA,NA,NA,NA,NA,NA,NA,NA,NA,NA,NA,NA,NA,NA,NA,NA,NA,NA,NA,NA,NA,NA,NA,NA,NA,NA,NA,NA
SUPAMT18178,39O5D9O87ZRUUROWD07HNYSO6YPC3E,83F8F53E-74DE-4D16-981A-B466B5739767,2023-09-28_14h35.02.867,WP_VExplicitOC_LH,2022.2.5,MacIntel,59.99520038,NA,NA,NA,NA,NA,NA,NA,NA,NA,NA,NA,33.49758572,1.5298,0,4,4,4,1,scroll social media,005.png,NA,NA,NA,NA,NA,NA,NA,NA,NA,NA,NA,NA,NA,NA,NA,NA,NA,NA,NA,NA,NA,NA,NA,NA,NA,NA,NA,NA,NA,NA,NA,NA,NA,NA,NA,NA,NA,NA,NA
SUPAMT18178,39O5D9O87ZRUUROWD07HNYSO6YPC3E,83F8F53E-74DE-4D16-981A-B466B5739767,2023-09-28_14h35.02.867,WP_VExplicitOC_LH,2022.2.5,MacIntel,59.99520038,NA,NA,NA,NA,NA,NA,NA,NA,NA,NA,NA,91.72895643,1.3821,0,5,5,5,1,listen to music,006.png,NA,NA,NA,NA,NA,NA,NA,NA,NA,NA,NA,NA,NA,NA,NA,NA,NA,NA,NA,NA,NA,NA,NA,NA,NA,NA,NA,NA,NA,NA,NA,NA,NA,NA,NA,NA,NA,NA,NA
SUPAMT18178,39O5D9O87ZRUUROWD07HNYSO6YPC3E,83F8F53E-74DE-4D16-981A-B466B5739767,2023-09-28_14h35.02.867,WP_VExplicitOC_LH,2022.2.5,MacIntel,59.99520038,NA,NA,NA,NA,NA,NA,NA,NA,NA,NA,NA,47.62993707,1.3292,0,6,6,6,1,daydream,007.png,NA,NA,NA,NA,NA,NA,NA,NA,NA,NA,NA,NA,NA,NA,NA,NA,NA,NA,NA,NA,NA,NA,NA,NA,NA,NA,NA,NA,NA,NA,NA,NA,NA,NA,NA,NA,NA,NA,NA
SUPAMT18178,39O5D9O87ZRUUROWD07HNYSO6YPC3E,83F8F53E-74DE-4D16-981A-B466B5739767,2023-09-28_14h35.02.867,WP_VExplicitOC_LH,2022.2.5,MacIntel,59.99520038,NA,NA,NA,NA,NA,NA,NA,NA,NA,NA,NA,-27.18951755,2.3433,0,7,7,7,1,watch a short animation,008.png,NA,NA,NA,NA,NA,NA,NA,NA,NA,NA,NA,NA,NA,NA,NA,NA,NA,NA,NA,NA,NA,NA,NA,NA,NA,NA,NA,NA,NA,NA,NA,NA,NA,NA,NA,NA,NA,NA,NA
SUPAMT18178,39O5D9O87ZRUUROWD07HNYSO6YPC3E,83F8F53E-74DE-4D16-981A-B466B5739767,2023-09-28_14h35.02.867,WP_VExplicitOC_LH,2022.2.5,MacIntel,59.99520038,NA,NA,NA,NA,NA,NA,NA,NA,NA,NA,NA,-48.4724172,1.7145,0,8,8,8,1,read a novel,009.png,NA,NA,NA,NA,NA,NA,NA,NA,NA,NA,NA,NA,NA,NA,NA,NA,NA,NA,NA,NA,NA,NA,NA,NA,NA,NA,NA,NA,NA,NA,NA,NA,NA,NA,NA,NA,NA,NA,NA
SUPAMT18178,39O5D9O87ZRUUROWD07HNYSO6YPC3E,83F8F53E-74DE-4D16-981A-B466B5739767,2023-09-28_14h35.02.867,WP_VExplicitOC_LH,2022.2.5,MacIntel,59.99520038,NA,NA,NA,NA,NA,NA,NA,NA,NA,NA,NA,-59.56608242,1.0283,0,9,9,9,1,read the news,010.png,NA,NA,NA,NA,NA,NA,NA,NA,NA,NA,NA,NA,NA,NA,NA,NA,NA,NA,NA,NA,NA,NA,NA,NA,NA,NA,NA,NA,NA,NA,NA,NA,NA,NA,NA,NA,NA,NA,NA
SUPAMT18178,39O5D9O87ZRUUROWD07HNYSO6YPC3E,83F8F53E-74DE-4D16-981A-B466B5739767,2023-09-28_14h35.02.867,WP_VExplicitOC_LH,2022.2.5,MacIntel,59.99520038,NA,NA,NA,NA,NA,NA,NA,NA,NA,NA,NA,NA,NA,NA,NA,NA,NA,NA,NA,NA,NA,NA,NA,NA,NA,NA,NA,NA,NA,NA,NA,NA,NA,NA,NA,NA,NA,NA,NA,NA,NA,NA,NA,NA,NA,NA,NA,NA,NA,NA,NA,NA,NA,NA,NA,NA,NA,NA,NA
SUPAMT18178,39O5D9O87ZRUUROWD07HNYSO6YPC3E,83F8F53E-74DE-4D16-981A-B466B5739767,2023-09-28_14h35.02.867,WP_VExplicitOC_LH,2022.2.5,MacIntel,59.99520038,NA,NA,NA,NA,NA,NA,NA,NA,NA,NA,NA,NA,NA,NA,NA,NA,NA,NA,NA,NA,read the news,NA,NA,NA,NA,NA,NA,NA,NA,NA,NA,NA,NA,NA,NA,NA,NA,NA,NA,NA,NA,NA,NA,NA,NA,NA,NA,NA,NA,NA,NA,NA,NA,NA,NA,NA,NA,NA,NA
SUPAMT18178,39O5D9O87ZRUUROWD07HNYSO6YPC3E,83F8F53E-74DE-4D16-981A-B466B5739767,2023-09-28_14h35.02.867,WP_VExplicitOC_LH,2022.2.5,MacIntel,59.99520038,41.63887872,3.3203,2.0062,NA,NA,NA,NA,NA,happy,"unhappy, happy","less happy, more happy",NA,NA,NA,NA,NA,NA,NA,NA,NA,NA,0,0,0,0,1,NA,NA,NA,NA,NA,NA,NA,NA,NA,NA,NA,NA,NA,NA,NA,NA,NA,NA,NA,NA,NA,NA,NA,NA,NA,NA,NA,NA,NA,NA,NA,NA,NA
SUPAMT18178,39O5D9O87ZRUUROWD07HNYSO6YPC3E,83F8F53E-74DE-4D16-981A-B466B5739767,2023-09-28_14h35.02.867,WP_VExplicitOC_LH,2022.2.5,MacIntel,59.99520038,-11.35894775,3.2146,2.0158,NA,NA,NA,NA,NA,bored,"bored, not bored","more bored, less bored",NA,NA,NA,NA,NA,NA,NA,NA,NA,NA,0,1,1,2,1,NA,NA,NA,NA,NA,NA,NA,NA,NA,NA,NA,NA,NA,NA,NA,NA,NA,NA,NA,NA,NA,NA,NA,NA,NA,NA,NA,NA,NA,NA,NA,NA,NA
SUPAMT18178,39O5D9O87ZRUUROWD07HNYSO6YPC3E,83F8F53E-74DE-4D16-981A-B466B5739767,2023-09-28_14h35.02.867,WP_VExplicitOC_LH,2022.2.5,MacIntel,59.99520038,-9.743737115,3.1456,2.0008,NA,NA,NA,NA,NA,frustrated,"frustrated, not frustrated","more frustrated, less frustrated",NA,NA,NA,NA,NA,NA,NA,NA,NA,NA,0,2,2,1,1,NA,NA,NA,NA,NA,NA,NA,NA,NA,NA,NA,NA,NA,NA,NA,NA,NA,NA,NA,NA,NA,NA,NA,NA,NA,NA,NA,NA,NA,NA,NA,NA,NA
SUPAMT18178,39O5D9O87ZRUUROWD07HNYSO6YPC3E,83F8F53E-74DE-4D16-981A-B466B5739767,2023-09-28_14h35.02.867,WP_VExplicitOC_LH,2022.2.5,MacIntel,59.99520038,NA,NA,NA,NA,NA,NA,NA,NA,NA,NA,NA,NA,NA,NA,NA,NA,NA,NA,NA,NA,NA,NA,NA,NA,NA,NA,NA,NA,NA,NA,NA,NA,NA,NA,NA,NA,NA,NA,NA,NA,NA,NA,NA,NA,NA,NA,NA,NA,NA,NA,NA,NA,NA,NA,NA,NA,NA,NA,NA
SUPAMT18178,39O5D9O87ZRUUROWD07HNYSO6YPC3E,83F8F53E-74DE-4D16-981A-B466B5739767,2023-09-28_14h35.02.867,WP_VExplicitOC_LH,2022.2.5,MacIntel,59.99520038,NA,NA,NA,NA,NA,NA,NA,NA,NA,NA,NA,NA,NA,NA,NA,NA,NA,NA,NA,NA,NA,NA,NA,NA,NA,NA,NA,NA,NA,NA,NA,NA,NA,NA,NA,NA,NA,NA,NA,NA,NA,NA,NA,NA,NA,NA,NA,NA,NA,NA,NA,NA,NA,NA,NA,NA,NA,NA,NA
SUPAMT18178,39O5D9O87ZRUUROWD07HNYSO6YPC3E,83F8F53E-74DE-4D16-981A-B466B5739767,2023-09-28_14h35.02.867,WP_VExplicitOC_LH,2022.2.5,MacIntel,59.99520038,-19.07479337,3.3843,2.0076,NA,NA,NA,NA,NA,frustrated,"frustrated, not frustrated","more frustrated, less frustrated",NA,NA,NA,NA,NA,NA,NA,NA,NA,NA,NA,NA,NA,NA,NA,0,0,0,1,1,NA,NA,NA,NA,NA,NA,NA,NA,NA,NA,NA,NA,NA,NA,NA,NA,NA,NA,NA,NA,NA,NA,NA,NA,NA,NA,NA,NA
SUPAMT18178,39O5D9O87ZRUUROWD07HNYSO6YPC3E,83F8F53E-74DE-4D16-981A-B466B5739767,2023-09-28_14h35.02.867,WP_VExplicitOC_LH,2022.2.5,MacIntel,59.99520038,-84.79214951,3.1744,2.0008,NA,NA,NA,NA,NA,bored,"bored, not bored","more bored, less bored",NA,NA,NA,NA,NA,NA,NA,NA,NA,NA,NA,NA,NA,NA,NA,0,1,1,2,1,NA,NA,NA,NA,NA,NA,NA,NA,NA,NA,NA,NA,NA,NA,NA,NA,NA,NA,NA,NA,NA,NA,NA,NA,NA,NA,NA,NA
SUPAMT18178,39O5D9O87ZRUUROWD07HNYSO6YPC3E,83F8F53E-74DE-4D16-981A-B466B5739767,2023-09-28_14h35.02.867,WP_VExplicitOC_LH,2022.2.5,MacIntel,59.99520038,-44.70409101,3.0562,2.016,NA,NA,NA,NA,NA,happy,"unhappy, happy","less happy, more happy",NA,NA,NA,NA,NA,NA,NA,NA,NA,NA,NA,NA,NA,NA,NA,0,2,2,0,1,NA,NA,NA,NA,NA,NA,NA,NA,NA,NA,NA,NA,NA,NA,NA,NA,NA,NA,NA,NA,NA,NA,NA,NA,NA,NA,NA,NA
SUPAMT18178,39O5D9O87ZRUUROWD07HNYSO6YPC3E,83F8F53E-74DE-4D16-981A-B466B5739767,2023-09-28_14h35.02.867,WP_VExplicitOC_LH,2022.2.5,MacIntel,59.99520038,NA,NA,NA,NA,NA,NA,NA,NA,NA,NA,NA,NA,NA,NA,NA,NA,NA,NA,NA,NA,NA,NA,NA,NA,NA,NA,NA,NA,NA,NA,NA,0,0,0,0,1,NA,NA,NA,NA,NA,NA,NA,NA,NA,NA,NA,NA,NA,NA,NA,NA,NA,NA,NA,NA,NA,NA,NA
SUPAMT18178,39O5D9O87ZRUUROWD07HNYSO6YPC3E,83F8F53E-74DE-4D16-981A-B466B5739767,2023-09-28_14h35.02.867,WP_VExplicitOC_LH,2022.2.5,MacIntel,59.99520038,NA,NA,2.012,NA,NA,NA,NA,NA,frustrated,"frustrated, not frustrated","more frustrated, less frustrated",NA,NA,NA,NA,NA,NA,NA,NA,NA,NA,NA,NA,NA,NA,NA,0,0,0,1,1,NA,NA,NA,NA,NA,NA,NA,NA,NA,NA,NA,NA,NA,NA,NA,NA,NA,NA,NA,NA,NA,NA,NA,NA,NA,NA,NA,NA
SUPAMT18178,39O5D9O87ZRUUROWD07HNYSO6YPC3E,83F8F53E-74DE-4D16-981A-B466B5739767,2023-09-28_14h35.02.867,WP_VExplicitOC_LH,2022.2.5,MacIntel,59.99520038,NA,NA,2.0017,NA,NA,NA,NA,NA,happy,"unhappy, happy","less happy, more happy",NA,NA,NA,NA,NA,NA,NA,NA,NA,NA,NA,NA,NA,NA,NA,0,1,1,0,1,NA,NA,NA,NA,NA,NA,NA,NA,NA,NA,NA,NA,NA,NA,NA,NA,NA,NA,NA,NA,NA,NA,NA,NA,NA,NA,NA,NA
SUPAMT18178,39O5D9O87ZRUUROWD07HNYSO6YPC3E,83F8F53E-74DE-4D16-981A-B466B5739767,2023-09-28_14h35.02.867,WP_VExplicitOC_LH,2022.2.5,MacIntel,59.99520038,-100,3.3798,2.0157,NA,NA,NA,NA,NA,bored,"bored, not bored","more bored, less bored",NA,NA,NA,NA,NA,NA,NA,NA,NA,NA,NA,NA,NA,NA,NA,0,2,2,2,1,NA,NA,NA,NA,NA,NA,NA,NA,NA,NA,NA,NA,NA,NA,NA,NA,NA,NA,NA,NA,NA,NA,NA,NA,NA,NA,NA,NA
SUPAMT18178,39O5D9O87ZRUUROWD07HNYSO6YPC3E,83F8F53E-74DE-4D16-981A-B466B5739767,2023-09-28_14h35.02.867,WP_VExplicitOC_LH,2022.2.5,MacIntel,59.99520038,NA,NA,NA,NA,NA,NA,NA,NA,NA,NA,NA,NA,NA,NA,NA,NA,NA,NA,NA,NA,NA,NA,NA,NA,NA,NA,NA,NA,NA,NA,NA,1,0,1,0,1,NA,NA,NA,NA,NA,NA,NA,NA,NA,NA,NA,NA,NA,NA,NA,NA,NA,NA,NA,NA,NA,NA,NA
SUPAMT18178,39O5D9O87ZRUUROWD07HNYSO6YPC3E,83F8F53E-74DE-4D16-981A-B466B5739767,2023-09-28_14h35.02.867,WP_VExplicitOC_LH,2022.2.5,MacIntel,59.99520038,NA,NA,2.0148,NA,NA,NA,NA,NA,happy,"unhappy, happy","less happy, more happy",NA,NA,NA,NA,NA,NA,NA,NA,NA,NA,NA,NA,NA,NA,NA,0,0,0,0,1,NA,NA,NA,NA,NA,NA,NA,NA,NA,NA,NA,NA,NA,NA,NA,NA,NA,NA,NA,NA,NA,NA,NA,NA,NA,NA,NA,NA
SUPAMT18178,39O5D9O87ZRUUROWD07HNYSO6YPC3E,83F8F53E-74DE-4D16-981A-B466B5739767,2023-09-28_14h35.02.867,WP_VExplicitOC_LH,2022.2.5,MacIntel,59.99520038,NA,NA,2.001,NA,NA,NA,NA,NA,frustrated,"frustrated, not frustrated","more frustrated, less frustrated",NA,NA,NA,NA,NA,NA,NA,NA,NA,NA,NA,NA,NA,NA,NA,0,1,1,1,1,NA,NA,NA,NA,NA,NA,NA,NA,NA,NA,NA,NA,NA,NA,NA,NA,NA,NA,NA,NA,NA,NA,NA,NA,NA,NA,NA,NA
SUPAMT18178,39O5D9O87ZRUUROWD07HNYSO6YPC3E,83F8F53E-74DE-4D16-981A-B466B5739767,2023-09-28_14h35.02.867,WP_VExplicitOC_LH,2022.2.5,MacIntel,59.99520038,NA,NA,2.0028,NA,NA,NA,NA,NA,bored,"bored, not bored","more bored, less bored",NA,NA,NA,NA,NA,NA,NA,NA,NA,NA,NA,NA,NA,NA,NA,0,2,2,2,1,NA,NA,NA,NA,NA,NA,NA,NA,NA,NA,NA,NA,NA,NA,NA,NA,NA,NA,NA,NA,NA,NA,NA,NA,NA,NA,NA,NA
SUPAMT18178,39O5D9O87ZRUUROWD07HNYSO6YPC3E,83F8F53E-74DE-4D16-981A-B466B5739767,2023-09-28_14h35.02.867,WP_VExplicitOC_LH,2022.2.5,MacIntel,59.99520038,NA,NA,NA,NA,NA,NA,NA,NA,NA,NA,NA,NA,NA,NA,NA,NA,NA,NA,NA,NA,NA,NA,NA,NA,NA,NA,NA,NA,NA,NA,NA,2,0,2,0,1,NA,NA,NA,NA,NA,NA,NA,NA,NA,NA,NA,NA,NA,NA,NA,NA,NA,NA,NA,NA,NA,NA,NA
SUPAMT18178,39O5D9O87ZRUUROWD07HNYSO6YPC3E,83F8F53E-74DE-4D16-981A-B466B5739767,2023-09-28_14h35.02.867,WP_VExplicitOC_LH,2022.2.5,MacIntel,59.99520038,-100,3.1729,2.0042,NA,NA,NA,NA,NA,frustrated,"frustrated, not frustrated","more frustrated, less frustrated",NA,NA,NA,NA,NA,NA,NA,NA,NA,NA,NA,NA,NA,NA,NA,0,0,0,1,1,NA,NA,NA,NA,NA,NA,NA,NA,NA,NA,NA,NA,NA,NA,NA,NA,NA,NA,NA,NA,NA,NA,NA,NA,NA,NA,NA,NA
SUPAMT18178,39O5D9O87ZRUUROWD07HNYSO6YPC3E,83F8F53E-74DE-4D16-981A-B466B5739767,2023-09-28_14h35.02.867,WP_VExplicitOC_LH,2022.2.5,MacIntel,59.99520038,-100,2.9481,2.0004,NA,NA,NA,NA,NA,happy,"unhappy, happy","less happy, more happy",NA,NA,NA,NA,NA,NA,NA,NA,NA,NA,NA,NA,NA,NA,NA,0,1,1,0,1,NA,NA,NA,NA,NA,NA,NA,NA,NA,NA,NA,NA,NA,NA,NA,NA,NA,NA,NA,NA,NA,NA,NA,NA,NA,NA,NA,NA
SUPAMT18178,39O5D9O87ZRUUROWD07HNYSO6YPC3E,83F8F53E-74DE-4D16-981A-B466B5739767,2023-09-28_14h35.02.867,WP_VExplicitOC_LH,2022.2.5,MacIntel,59.99520038,-100,2.7458,2.0046,NA,NA,NA,NA,NA,bored,"bored, not bored","more bored, less bored",NA,NA,NA,NA,NA,NA,NA,NA,NA,NA,NA,NA,NA,NA,NA,0,2,2,2,1,NA,NA,NA,NA,NA,NA,NA,NA,NA,NA,NA,NA,NA,NA,NA,NA,NA,NA,NA,NA,NA,NA,NA,NA,NA,NA,NA,NA
SUPAMT18178,39O5D9O87ZRUUROWD07HNYSO6YPC3E,83F8F53E-74DE-4D16-981A-B466B5739767,2023-09-28_14h35.02.867,WP_VExplicitOC_LH,2022.2.5,MacIntel,59.99520038,NA,NA,NA,NA,NA,NA,NA,NA,NA,NA,NA,NA,NA,NA,NA,NA,NA,NA,NA,NA,NA,NA,NA,NA,NA,NA,NA,NA,NA,NA,NA,3,0,3,0,1,NA,NA,NA,NA,NA,NA,NA,NA,NA,NA,NA,NA,NA,NA,NA,NA,NA,NA,NA,NA,NA,NA,NA
SUPAMT18178,39O5D9O87ZRUUROWD07HNYSO6YPC3E,83F8F53E-74DE-4D16-981A-B466B5739767,2023-09-28_14h35.02.867,WP_VExplicitOC_LH,2022.2.5,MacIntel,59.99520038,-100,2.9457,2.0053,NA,NA,NA,NA,NA,bored,"bored, not bored","more bored, less bored",NA,NA,NA,NA,NA,NA,NA,NA,NA,NA,NA,NA,NA,NA,NA,0,0,0,2,1,NA,NA,NA,NA,NA,NA,NA,NA,NA,NA,NA,NA,NA,NA,NA,NA,NA,NA,NA,NA,NA,NA,NA,NA,NA,NA,NA,NA
SUPAMT18178,39O5D9O87ZRUUROWD07HNYSO6YPC3E,83F8F53E-74DE-4D16-981A-B466B5739767,2023-09-28_14h35.02.867,WP_VExplicitOC_LH,2022.2.5,MacIntel,59.99520038,-100,2.7327,2.0033,NA,NA,NA,NA,NA,frustrated,"frustrated, not frustrated","more frustrated, less frustrated",NA,NA,NA,NA,NA,NA,NA,NA,NA,NA,NA,NA,NA,NA,NA,0,1,1,1,1,NA,NA,NA,NA,NA,NA,NA,NA,NA,NA,NA,NA,NA,NA,NA,NA,NA,NA,NA,NA,NA,NA,NA,NA,NA,NA,NA,NA
SUPAMT18178,39O5D9O87ZRUUROWD07HNYSO6YPC3E,83F8F53E-74DE-4D16-981A-B466B5739767,2023-09-28_14h35.02.867,WP_VExplicitOC_LH,2022.2.5,MacIntel,59.99520038,-100,2.798,2.0077,NA,NA,NA,NA,NA,happy,"unhappy, happy","less happy, more happy",NA,NA,NA,NA,NA,NA,NA,NA,NA,NA,NA,NA,NA,NA,NA,0,2,2,0,1,NA,NA,NA,NA,NA,NA,NA,NA,NA,NA,NA,NA,NA,NA,NA,NA,NA,NA,NA,NA,NA,NA,NA,NA,NA,NA,NA,NA
SUPAMT18178,39O5D9O87ZRUUROWD07HNYSO6YPC3E,83F8F53E-74DE-4D16-981A-B466B5739767,2023-09-28_14h35.02.867,WP_VExplicitOC_LH,2022.2.5,MacIntel,59.99520038,NA,NA,NA,NA,NA,NA,NA,NA,NA,NA,NA,NA,NA,NA,NA,NA,NA,NA,NA,NA,NA,NA,NA,NA,NA,NA,NA,NA,NA,NA,NA,4,0,4,0,1,NA,NA,NA,NA,NA,NA,NA,NA,NA,NA,NA,NA,NA,NA,NA,NA,NA,NA,NA,NA,NA,NA,NA
SUPAMT18178,39O5D9O87ZRUUROWD07HNYSO6YPC3E,83F8F53E-74DE-4D16-981A-B466B5739767,2023-09-28_14h35.02.867,WP_VExplicitOC_LH,2022.2.5,MacIntel,59.99520038,-100,3.1207,2.0057,NA,NA,NA,NA,NA,bored,"bored, not bored","more bored, less bored",NA,NA,NA,NA,NA,NA,NA,NA,NA,NA,NA,NA,NA,NA,NA,0,0,0,2,1,NA,NA,NA,NA,NA,NA,NA,NA,NA,NA,NA,NA,NA,NA,NA,NA,NA,NA,NA,NA,NA,NA,NA,NA,NA,NA,NA,NA
SUPAMT18178,39O5D9O87ZRUUROWD07HNYSO6YPC3E,83F8F53E-74DE-4D16-981A-B466B5739767,2023-09-28_14h35.02.867,WP_VExplicitOC_LH,2022.2.5,MacIntel,59.99520038,-100,2.9384,2.0077,NA,NA,NA,NA,NA,happy,"unhappy, happy","less happy, more happy",NA,NA,NA,NA,NA,NA,NA,NA,NA,NA,NA,NA,NA,NA,NA,0,1,1,0,1,NA,NA,NA,NA,NA,NA,NA,NA,NA,NA,NA,NA,NA,NA,NA,NA,NA,NA,NA,NA,NA,NA,NA,NA,NA,NA,NA,NA
SUPAMT18178,39O5D9O87ZRUUROWD07HNYSO6YPC3E,83F8F53E-74DE-4D16-981A-B466B5739767,2023-09-28_14h35.02.867,WP_VExplicitOC_LH,2022.2.5,MacIntel,59.99520038,-100,2.7061,2.0007,NA,NA,NA,NA,NA,frustrated,"frustrated, not frustrated","more frustrated, less frustrated",NA,NA,NA,NA,NA,NA,NA,NA,NA,NA,NA,NA,NA,NA,NA,0,2,2,1,1,NA,NA,NA,NA,NA,NA,NA,NA,NA,NA,NA,NA,NA,NA,NA,NA,NA,NA,NA,NA,NA,NA,NA,NA,NA,NA,NA,NA
SUPAMT18178,39O5D9O87ZRUUROWD07HNYSO6YPC3E,83F8F53E-74DE-4D16-981A-B466B5739767,2023-09-28_14h35.02.867,WP_VExplicitOC_LH,2022.2.5,MacIntel,59.99520038,NA,NA,NA,NA,NA,NA,NA,NA,NA,NA,NA,NA,NA,NA,NA,NA,NA,NA,NA,NA,NA,NA,NA,NA,NA,NA,NA,NA,NA,NA,NA,5,0,5,0,1,NA,NA,NA,NA,NA,NA,NA,NA,NA,NA,NA,NA,NA,NA,NA,NA,NA,NA,NA,NA,NA,NA,NA
SUPAMT18178,39O5D9O87ZRUUROWD07HNYSO6YPC3E,83F8F53E-74DE-4D16-981A-B466B5739767,2023-09-28_14h35.02.867,WP_VExplicitOC_LH,2022.2.5,MacIntel,59.99520038,-99.50061916,7.3182,2.002,NA,NA,NA,NA,NA,bored,"bored, not bored","more bored, less bored",NA,NA,NA,NA,NA,NA,NA,NA,NA,NA,NA,NA,NA,NA,NA,0,0,0,2,1,NA,NA,NA,NA,NA,NA,NA,NA,NA,NA,NA,NA,NA,NA,NA,NA,NA,NA,NA,NA,NA,NA,NA,NA,NA,NA,NA,NA
SUPAMT18178,39O5D9O87ZRUUROWD07HNYSO6YPC3E,83F8F53E-74DE-4D16-981A-B466B5739767,2023-09-28_14h35.02.867,WP_VExplicitOC_LH,2022.2.5,MacIntel,59.99520038,100,2.7232,2.008,NA,NA,NA,NA,NA,happy,"unhappy, happy","less happy, more happy",NA,NA,NA,NA,NA,NA,NA,NA,NA,NA,NA,NA,NA,NA,NA,0,1,1,0,1,NA,NA,NA,NA,NA,NA,NA,NA,NA,NA,NA,NA,NA,NA,NA,NA,NA,NA,NA,NA,NA,NA,NA,NA,NA,NA,NA,NA
SUPAMT18178,39O5D9O87ZRUUROWD07HNYSO6YPC3E,83F8F53E-74DE-4D16-981A-B466B5739767,2023-09-28_14h35.02.867,WP_VExplicitOC_LH,2022.2.5,MacIntel,59.99520038,-100,3.2366,2.0003,NA,NA,NA,NA,NA,frustrated,"frustrated, not frustrated","more frustrated, less frustrated",NA,NA,NA,NA,NA,NA,NA,NA,NA,NA,NA,NA,NA,NA,NA,0,2,2,1,1,NA,NA,NA,NA,NA,NA,NA,NA,NA,NA,NA,NA,NA,NA,NA,NA,NA,NA,NA,NA,NA,NA,NA,NA,NA,NA,NA,NA
SUPAMT18178,39O5D9O87ZRUUROWD07HNYSO6YPC3E,83F8F53E-74DE-4D16-981A-B466B5739767,2023-09-28_14h35.02.867,WP_VExplicitOC_LH,2022.2.5,MacIntel,59.99520038,NA,NA,NA,NA,NA,NA,NA,NA,NA,NA,NA,NA,NA,NA,NA,NA,NA,NA,NA,NA,NA,NA,NA,NA,NA,NA,NA,NA,NA,NA,NA,6,0,6,0,1,NA,NA,NA,NA,NA,NA,NA,NA,NA,NA,NA,NA,NA,NA,NA,NA,NA,NA,NA,NA,NA,NA,NA
SUPAMT18178,39O5D9O87ZRUUROWD07HNYSO6YPC3E,83F8F53E-74DE-4D16-981A-B466B5739767,2023-09-28_14h35.02.867,WP_VExplicitOC_LH,2022.2.5,MacIntel,59.99520038,NA,NA,2.0031,NA,NA,NA,NA,NA,frustrated,"frustrated, not frustrated","more frustrated, less frustrated",NA,NA,NA,NA,NA,NA,NA,NA,NA,NA,NA,NA,NA,NA,NA,0,0,0,1,1,NA,NA,NA,NA,NA,NA,NA,NA,NA,NA,NA,NA,NA,NA,NA,NA,NA,NA,NA,NA,NA,NA,NA,NA,NA,NA,NA,NA
SUPAMT18178,39O5D9O87ZRUUROWD07HNYSO6YPC3E,83F8F53E-74DE-4D16-981A-B466B5739767,2023-09-28_14h35.02.867,WP_VExplicitOC_LH,2022.2.5,MacIntel,59.99520038,-100,7.1059,2.0003,NA,NA,NA,NA,NA,bored,"bored, not bored","more bored, less bored",NA,NA,NA,NA,NA,NA,NA,NA,NA,NA,NA,NA,NA,NA,NA,0,1,1,2,1,NA,NA,NA,NA,NA,NA,NA,NA,NA,NA,NA,NA,NA,NA,NA,NA,NA,NA,NA,NA,NA,NA,NA,NA,NA,NA,NA,NA
SUPAMT18178,39O5D9O87ZRUUROWD07HNYSO6YPC3E,83F8F53E-74DE-4D16-981A-B466B5739767,2023-09-28_14h35.02.867,WP_VExplicitOC_LH,2022.2.5,MacIntel,59.99520038,-100,3.4403,2.0016,NA,NA,NA,NA,NA,happy,"unhappy, happy","less happy, more happy",NA,NA,NA,NA,NA,NA,NA,NA,NA,NA,NA,NA,NA,NA,NA,0,2,2,0,1,NA,NA,NA,NA,NA,NA,NA,NA,NA,NA,NA,NA,NA,NA,NA,NA,NA,NA,NA,NA,NA,NA,NA,NA,NA,NA,NA,NA
SUPAMT18178,39O5D9O87ZRUUROWD07HNYSO6YPC3E,83F8F53E-74DE-4D16-981A-B466B5739767,2023-09-28_14h35.02.867,WP_VExplicitOC_LH,2022.2.5,MacIntel,59.99520038,NA,NA,NA,NA,NA,NA,NA,NA,NA,NA,NA,NA,NA,NA,NA,NA,NA,NA,NA,NA,NA,NA,NA,NA,NA,NA,NA,NA,NA,NA,NA,7,0,7,0,1,NA,NA,NA,NA,NA,NA,NA,NA,NA,NA,NA,NA,NA,NA,NA,NA,NA,NA,NA,NA,NA,NA,NA
SUPAMT18178,39O5D9O87ZRUUROWD07HNYSO6YPC3E,83F8F53E-74DE-4D16-981A-B466B5739767,2023-09-28_14h35.02.867,WP_VExplicitOC_LH,2022.2.5,MacIntel,59.99520038,-100,6.0274,2.0058,NA,NA,NA,NA,NA,frustrated,"frustrated, not frustrated","more frustrated, less frustrated",NA,NA,NA,NA,NA,NA,NA,NA,NA,NA,NA,NA,NA,NA,NA,0,0,0,1,1,NA,NA,NA,NA,NA,NA,NA,NA,NA,NA,NA,NA,NA,NA,NA,NA,NA,NA,NA,NA,NA,NA,NA,NA,NA,NA,NA,NA
SUPAMT18178,39O5D9O87ZRUUROWD07HNYSO6YPC3E,83F8F53E-74DE-4D16-981A-B466B5739767,2023-09-28_14h35.02.867,WP_VExplicitOC_LH,2022.2.5,MacIntel,59.99520038,-100,2.6742,2.0014,NA,NA,NA,NA,NA,bored,"bored, not bored","more bored, less bored",NA,NA,NA,NA,NA,NA,NA,NA,NA,NA,NA,NA,NA,NA,NA,0,1,1,2,1,NA,NA,NA,NA,NA,NA,NA,NA,NA,NA,NA,NA,NA,NA,NA,NA,NA,NA,NA,NA,NA,NA,NA,NA,NA,NA,NA,NA
SUPAMT18178,39O5D9O87ZRUUROWD07HNYSO6YPC3E,83F8F53E-74DE-4D16-981A-B466B5739767,2023-09-28_14h35.02.867,WP_VExplicitOC_LH,2022.2.5,MacIntel,59.99520038,-100,2.765,2.0004,NA,NA,NA,NA,NA,happy,"unhappy, happy","less happy, more happy",NA,NA,NA,NA,NA,NA,NA,NA,NA,NA,NA,NA,NA,NA,NA,0,2,2,0,1,NA,NA,NA,NA,NA,NA,NA,NA,NA,NA,NA,NA,NA,NA,NA,NA,NA,NA,NA,NA,NA,NA,NA,NA,NA,NA,NA,NA
SUPAMT18178,39O5D9O87ZRUUROWD07HNYSO6YPC3E,83F8F53E-74DE-4D16-981A-B466B5739767,2023-09-28_14h35.02.867,WP_VExplicitOC_LH,2022.2.5,MacIntel,59.99520038,NA,NA,NA,NA,NA,NA,NA,NA,NA,NA,NA,NA,NA,NA,NA,NA,NA,NA,NA,NA,NA,NA,NA,NA,NA,NA,NA,NA,NA,NA,NA,8,0,8,0,1,NA,NA,NA,NA,NA,NA,NA,NA,NA,NA,NA,NA,NA,NA,NA,NA,NA,NA,NA,NA,NA,NA,NA
SUPAMT18178,39O5D9O87ZRUUROWD07HNYSO6YPC3E,83F8F53E-74DE-4D16-981A-B466B5739767,2023-09-28_14h35.02.867,WP_VExplicitOC_LH,2022.2.5,MacIntel,59.99520038,NA,NA,2.0079,NA,NA,NA,NA,NA,frustrated,"frustrated, not frustrated","more frustrated, less frustrated",NA,NA,NA,NA,NA,NA,NA,NA,NA,NA,NA,NA,NA,NA,NA,0,0,0,1,1,NA,NA,NA,NA,NA,NA,NA,NA,NA,NA,NA,NA,NA,NA,NA,NA,NA,NA,NA,NA,NA,NA,NA,NA,NA,NA,NA,NA
SUPAMT18178,39O5D9O87ZRUUROWD07HNYSO6YPC3E,83F8F53E-74DE-4D16-981A-B466B5739767,2023-09-28_14h35.02.867,WP_VExplicitOC_LH,2022.2.5,MacIntel,59.99520038,-100,2.8312,2.0077,NA,NA,NA,NA,NA,happy,"unhappy, happy","less happy, more happy",NA,NA,NA,NA,NA,NA,NA,NA,NA,NA,NA,NA,NA,NA,NA,0,1,1,0,1,NA,NA,NA,NA,NA,NA,NA,NA,NA,NA,NA,NA,NA,NA,NA,NA,NA,NA,NA,NA,NA,NA,NA,NA,NA,NA,NA,NA
SUPAMT18178,39O5D9O87ZRUUROWD07HNYSO6YPC3E,83F8F53E-74DE-4D16-981A-B466B5739767,2023-09-28_14h35.02.867,WP_VExplicitOC_LH,2022.2.5,MacIntel,59.99520038,-100,2.6978,2.0065,NA,NA,NA,NA,NA,bored,"bored, not bored","more bored, less bored",NA,NA,NA,NA,NA,NA,NA,NA,NA,NA,NA,NA,NA,NA,NA,0,2,2,2,1,NA,NA,NA,NA,NA,NA,NA,NA,NA,NA,NA,NA,NA,NA,NA,NA,NA,NA,NA,NA,NA,NA,NA,NA,NA,NA,NA,NA
SUPAMT18178,39O5D9O87ZRUUROWD07HNYSO6YPC3E,83F8F53E-74DE-4D16-981A-B466B5739767,2023-09-28_14h35.02.867,WP_VExplicitOC_LH,2022.2.5,MacIntel,59.99520038,NA,NA,NA,NA,NA,NA,NA,NA,NA,NA,NA,NA,NA,NA,NA,NA,NA,NA,NA,NA,NA,NA,NA,NA,NA,NA,NA,NA,NA,NA,NA,9,0,9,0,1,NA,NA,NA,NA,NA,NA,NA,NA,NA,NA,NA,NA,NA,NA,NA,NA,NA,NA,NA,NA,NA,NA,NA
SUPAMT18178,39O5D9O87ZRUUROWD07HNYSO6YPC3E,83F8F53E-74DE-4D16-981A-B466B5739767,2023-09-28_14h35.02.867,WP_VExplicitOC_LH,2022.2.5,MacIntel,59.99520038,-100,3.7439,2.0032,NA,NA,NA,NA,NA,frustrated,"frustrated, not frustrated","more frustrated, less frustrated",NA,NA,NA,NA,NA,NA,NA,NA,NA,NA,NA,NA,NA,NA,NA,0,0,0,1,1,NA,NA,NA,NA,NA,NA,NA,NA,NA,NA,NA,NA,NA,NA,NA,NA,NA,NA,NA,NA,NA,NA,NA,NA,NA,NA,NA,NA
SUPAMT18178,39O5D9O87ZRUUROWD07HNYSO6YPC3E,83F8F53E-74DE-4D16-981A-B466B5739767,2023-09-28_14h35.02.867,WP_VExplicitOC_LH,2022.2.5,MacIntel,59.99520038,-100,2.6567,2.0138,NA,NA,NA,NA,NA,bored,"bored, not bored","more bored, less bored",NA,NA,NA,NA,NA,NA,NA,NA,NA,NA,NA,NA,NA,NA,NA,0,1,1,2,1,NA,NA,NA,NA,NA,NA,NA,NA,NA,NA,NA,NA,NA,NA,NA,NA,NA,NA,NA,NA,NA,NA,NA,NA,NA,NA,NA,NA
SUPAMT18178,39O5D9O87ZRUUROWD07HNYSO6YPC3E,83F8F53E-74DE-4D16-981A-B466B5739767,2023-09-28_14h35.02.867,WP_VExplicitOC_LH,2022.2.5,MacIntel,59.99520038,-100,2.9305,2.0077,NA,NA,NA,NA,NA,happy,"unhappy, happy","less happy, more happy",NA,NA,NA,NA,NA,NA,NA,NA,NA,NA,NA,NA,NA,NA,NA,0,2,2,0,1,NA,NA,NA,NA,NA,NA,NA,NA,NA,NA,NA,NA,NA,NA,NA,NA,NA,NA,NA,NA,NA,NA,NA,NA,NA,NA,NA,NA
SUPAMT18178,39O5D9O87ZRUUROWD07HNYSO6YPC3E,83F8F53E-74DE-4D16-981A-B466B5739767,2023-09-28_14h35.02.867,WP_VExplicitOC_LH,2022.2.5,MacIntel,59.99520038,NA,NA,NA,NA,NA,NA,NA,NA,NA,NA,NA,NA,NA,NA,NA,NA,NA,NA,NA,NA,NA,NA,NA,NA,NA,NA,NA,NA,NA,NA,NA,10,0,10,0,1,NA,NA,NA,NA,NA,NA,NA,NA,NA,NA,NA,NA,NA,NA,NA,NA,NA,NA,NA,NA,NA,NA,NA
SUPAMT18178,39O5D9O87ZRUUROWD07HNYSO6YPC3E,83F8F53E-74DE-4D16-981A-B466B5739767,2023-09-28_14h35.02.867,WP_VExplicitOC_LH,2022.2.5,MacIntel,59.99520038,-100,3.7084,2.0013,NA,NA,NA,NA,NA,happy,"unhappy, happy","less happy, more happy",NA,NA,NA,NA,NA,NA,NA,NA,NA,NA,NA,NA,NA,NA,NA,0,0,0,0,1,NA,NA,NA,NA,NA,NA,NA,NA,NA,NA,NA,NA,NA,NA,NA,NA,NA,NA,NA,NA,NA,NA,NA,NA,NA,NA,NA,NA
SUPAMT18178,39O5D9O87ZRUUROWD07HNYSO6YPC3E,83F8F53E-74DE-4D16-981A-B466B5739767,2023-09-28_14h35.02.867,WP_VExplicitOC_LH,2022.2.5,MacIntel,59.99520038,-100,2.7572,2.0002,NA,NA,NA,NA,NA,frustrated,"frustrated, not frustrated","more frustrated, less frustrated",NA,NA,NA,NA,NA,NA,NA,NA,NA,NA,NA,NA,NA,NA,NA,0,1,1,1,1,NA,NA,NA,NA,NA,NA,NA,NA,NA,NA,NA,NA,NA,NA,NA,NA,NA,NA,NA,NA,NA,NA,NA,NA,NA,NA,NA,NA
SUPAMT18178,39O5D9O87ZRUUROWD07HNYSO6YPC3E,83F8F53E-74DE-4D16-981A-B466B5739767,2023-09-28_14h35.02.867,WP_VExplicitOC_LH,2022.2.5,MacIntel,59.99520038,-100,2.7134,2.0071,NA,NA,NA,NA,NA,bored,"bored, not bored","more bored, less bored",NA,NA,NA,NA,NA,NA,NA,NA,NA,NA,NA,NA,NA,NA,NA,0,2,2,2,1,NA,NA,NA,NA,NA,NA,NA,NA,NA,NA,NA,NA,NA,NA,NA,NA,NA,NA,NA,NA,NA,NA,NA,NA,NA,NA,NA,NA
SUPAMT18178,39O5D9O87ZRUUROWD07HNYSO6YPC3E,83F8F53E-74DE-4D16-981A-B466B5739767,2023-09-28_14h35.02.867,WP_VExplicitOC_LH,2022.2.5,MacIntel,59.99520038,NA,NA,NA,NA,NA,NA,NA,NA,NA,NA,NA,NA,NA,NA,NA,NA,NA,NA,NA,NA,NA,NA,NA,NA,NA,NA,NA,NA,NA,NA,NA,11,0,11,0,1,NA,NA,NA,NA,NA,NA,NA,NA,NA,NA,NA,NA,NA,NA,NA,NA,NA,NA,NA,NA,NA,NA,NA
SUPAMT18178,39O5D9O87ZRUUROWD07HNYSO6YPC3E,83F8F53E-74DE-4D16-981A-B466B5739767,2023-09-28_14h35.02.867,WP_VExplicitOC_LH,2022.2.5,MacIntel,59.99520038,-100,3.5789,2.0087,NA,NA,NA,NA,NA,frustrated,"frustrated, not frustrated","more frustrated, less frustrated",NA,NA,NA,NA,NA,NA,NA,NA,NA,NA,NA,NA,NA,NA,NA,0,0,0,1,1,NA,NA,NA,NA,NA,NA,NA,NA,NA,NA,NA,NA,NA,NA,NA,NA,NA,NA,NA,NA,NA,NA,NA,NA,NA,NA,NA,NA
SUPAMT18178,39O5D9O87ZRUUROWD07HNYSO6YPC3E,83F8F53E-74DE-4D16-981A-B466B5739767,2023-09-28_14h35.02.867,WP_VExplicitOC_LH,2022.2.5,MacIntel,59.99520038,-100,2.9806,2.0087,NA,NA,NA,NA,NA,bored,"bored, not bored","more bored, less bored",NA,NA,NA,NA,NA,NA,NA,NA,NA,NA,NA,NA,NA,NA,NA,0,1,1,2,1,NA,NA,NA,NA,NA,NA,NA,NA,NA,NA,NA,NA,NA,NA,NA,NA,NA,NA,NA,NA,NA,NA,NA,NA,NA,NA,NA,NA
SUPAMT18178,39O5D9O87ZRUUROWD07HNYSO6YPC3E,83F8F53E-74DE-4D16-981A-B466B5739767,2023-09-28_14h35.02.867,WP_VExplicitOC_LH,2022.2.5,MacIntel,59.99520038,-100,6.9894,2.0072,NA,NA,NA,NA,NA,happy,"unhappy, happy","less happy, more happy",NA,NA,NA,NA,NA,NA,NA,NA,NA,NA,NA,NA,NA,NA,NA,0,2,2,0,1,NA,NA,NA,NA,NA,NA,NA,NA,NA,NA,NA,NA,NA,NA,NA,NA,NA,NA,NA,NA,NA,NA,NA,NA,NA,NA,NA,NA
SUPAMT18178,39O5D9O87ZRUUROWD07HNYSO6YPC3E,83F8F53E-74DE-4D16-981A-B466B5739767,2023-09-28_14h35.02.867,WP_VExplicitOC_LH,2022.2.5,MacIntel,59.99520038,NA,NA,NA,NA,NA,NA,NA,NA,NA,NA,NA,NA,NA,NA,NA,NA,NA,NA,NA,NA,NA,NA,NA,NA,NA,NA,NA,NA,NA,NA,NA,12,0,12,0,1,NA,NA,NA,NA,NA,NA,NA,NA,NA,NA,NA,NA,NA,NA,NA,NA,NA,NA,NA,NA,NA,NA,NA
SUPAMT18178,39O5D9O87ZRUUROWD07HNYSO6YPC3E,83F8F53E-74DE-4D16-981A-B466B5739767,2023-09-28_14h35.02.867,WP_VExplicitOC_LH,2022.2.5,MacIntel,59.99520038,NA,NA,2.0056,NA,NA,NA,NA,NA,bored,"bored, not bored","more bored, less bored",NA,NA,NA,NA,NA,NA,NA,NA,NA,NA,NA,NA,NA,NA,NA,0,0,0,2,1,NA,NA,NA,NA,NA,NA,NA,NA,NA,NA,NA,NA,NA,NA,NA,NA,NA,NA,NA,NA,NA,NA,NA,NA,NA,NA,NA,NA
SUPAMT18178,39O5D9O87ZRUUROWD07HNYSO6YPC3E,83F8F53E-74DE-4D16-981A-B466B5739767,2023-09-28_14h35.02.867,WP_VExplicitOC_LH,2022.2.5,MacIntel,59.99520038,-100,2.9632,2.0056,NA,NA,NA,NA,NA,happy,"unhappy, happy","less happy, more happy",NA,NA,NA,NA,NA,NA,NA,NA,NA,NA,NA,NA,NA,NA,NA,0,1,1,0,1,NA,NA,NA,NA,NA,NA,NA,NA,NA,NA,NA,NA,NA,NA,NA,NA,NA,NA,NA,NA,NA,NA,NA,NA,NA,NA,NA,NA
SUPAMT18178,39O5D9O87ZRUUROWD07HNYSO6YPC3E,83F8F53E-74DE-4D16-981A-B466B5739767,2023-09-28_14h35.02.867,WP_VExplicitOC_LH,2022.2.5,MacIntel,59.99520038,-100,2.8581,2.0085,NA,NA,NA,NA,NA,frustrated,"frustrated, not frustrated","more frustrated, less frustrated",NA,NA,NA,NA,NA,NA,NA,NA,NA,NA,NA,NA,NA,NA,NA,0,2,2,1,1,NA,NA,NA,NA,NA,NA,NA,NA,NA,NA,NA,NA,NA,NA,NA,NA,NA,NA,NA,NA,NA,NA,NA,NA,NA,NA,NA,NA
SUPAMT18178,39O5D9O87ZRUUROWD07HNYSO6YPC3E,83F8F53E-74DE-4D16-981A-B466B5739767,2023-09-28_14h35.02.867,WP_VExplicitOC_LH,2022.2.5,MacIntel,59.99520038,NA,NA,NA,NA,NA,NA,NA,NA,NA,NA,NA,NA,NA,NA,NA,NA,NA,NA,NA,NA,NA,NA,NA,NA,NA,NA,NA,NA,NA,NA,NA,13,0,13,0,1,NA,NA,NA,NA,NA,NA,NA,NA,NA,NA,NA,NA,NA,NA,NA,NA,NA,NA,NA,NA,NA,NA,NA
SUPAMT18178,39O5D9O87ZRUUROWD07HNYSO6YPC3E,83F8F53E-74DE-4D16-981A-B466B5739767,2023-09-28_14h35.02.867,WP_VExplicitOC_LH,2022.2.5,MacIntel,59.99520038,-100,2.7943,2.0049,NA,NA,NA,NA,NA,bored,"bored, not bored","more bored, less bored",NA,NA,NA,NA,NA,NA,NA,NA,NA,NA,NA,NA,NA,NA,NA,0,0,0,2,1,NA,NA,NA,NA,NA,NA,NA,NA,NA,NA,NA,NA,NA,NA,NA,NA,NA,NA,NA,NA,NA,NA,NA,NA,NA,NA,NA,NA
SUPAMT18178,39O5D9O87ZRUUROWD07HNYSO6YPC3E,83F8F53E-74DE-4D16-981A-B466B5739767,2023-09-28_14h35.02.867,WP_VExplicitOC_LH,2022.2.5,MacIntel,59.99520038,-100,2.8726,2.0068,NA,NA,NA,NA,NA,frustrated,"frustrated, not frustrated","more frustrated, less frustrated",NA,NA,NA,NA,NA,NA,NA,NA,NA,NA,NA,NA,NA,NA,NA,0,1,1,1,1,NA,NA,NA,NA,NA,NA,NA,NA,NA,NA,NA,NA,NA,NA,NA,NA,NA,NA,NA,NA,NA,NA,NA,NA,NA,NA,NA,NA
SUPAMT18178,39O5D9O87ZRUUROWD07HNYSO6YPC3E,83F8F53E-74DE-4D16-981A-B466B5739767,2023-09-28_14h35.02.867,WP_VExplicitOC_LH,2022.2.5,MacIntel,59.99520038,-100,2.7549,2.0067,NA,NA,NA,NA,NA,happy,"unhappy, happy","less happy, more happy",NA,NA,NA,NA,NA,NA,NA,NA,NA,NA,NA,NA,NA,NA,NA,0,2,2,0,1,NA,NA,NA,NA,NA,NA,NA,NA,NA,NA,NA,NA,NA,NA,NA,NA,NA,NA,NA,NA,NA,NA,NA,NA,NA,NA,NA,NA
SUPAMT18178,39O5D9O87ZRUUROWD07HNYSO6YPC3E,83F8F53E-74DE-4D16-981A-B466B5739767,2023-09-28_14h35.02.867,WP_VExplicitOC_LH,2022.2.5,MacIntel,59.99520038,NA,NA,NA,NA,NA,NA,NA,NA,NA,NA,NA,NA,NA,NA,NA,NA,NA,NA,NA,NA,NA,NA,NA,NA,NA,NA,NA,NA,NA,NA,NA,14,0,14,0,1,NA,NA,NA,NA,NA,NA,NA,NA,NA,NA,NA,NA,NA,NA,NA,NA,NA,NA,NA,NA,NA,NA,NA
SUPAMT18178,39O5D9O87ZRUUROWD07HNYSO6YPC3E,83F8F53E-74DE-4D16-981A-B466B5739767,2023-09-28_14h35.02.867,WP_VExplicitOC_LH,2022.2.5,MacIntel,59.99520038,NA,NA,NA,NA,NA,NA,NA,NA,NA,NA,NA,NA,NA,NA,NA,NA,NA,NA,NA,NA,NA,NA,NA,NA,NA,NA,NA,NA,NA,NA,NA,NA,NA,NA,NA,NA,NA,NA,NA,NA,NA,NA,NA,NA,NA,NA,NA,NA,NA,NA,NA,NA,NA,NA,NA,NA,NA,NA,NA
SUPAMT18178,39O5D9O87ZRUUROWD07HNYSO6YPC3E,83F8F53E-74DE-4D16-981A-B466B5739767,2023-09-28_14h35.02.867,WP_VExplicitOC_LH,2022.2.5,MacIntel,59.99520038,NA,NA,NA,NA,NA,NA,NA,NA,NA,NA,NA,NA,NA,NA,NA,NA,NA,NA,NA,NA,NA,NA,NA,NA,NA,NA,NA,NA,NA,NA,NA,NA,NA,NA,NA,NA,NA,NA,NA,NA,NA,NA,NA,NA,NA,NA,NA,NA,NA,NA,NA,NA,NA,NA,NA,NA,NA,NA,NA
SUPAMT18178,39O5D9O87ZRUUROWD07HNYSO6YPC3E,83F8F53E-74DE-4D16-981A-B466B5739767,2023-09-28_14h35.02.867,WP_VExplicitOC_LH,2022.2.5,MacIntel,59.99520038,NA,NA,NA,NA,NA,NA,NA,NA,NA,NA,NA,NA,NA,NA,NA,NA,NA,NA,rest (looking at a fixed cross),001.png,NA,NA,NA,NA,NA,NA,NA,NA,NA,NA,NA,NA,NA,NA,NA,NA,-100,3.8857,0,0,0,0,1,NA,NA,NA,NA,NA,NA,NA,NA,NA,NA,NA,NA,NA,NA,NA,NA
SUPAMT18178,39O5D9O87ZRUUROWD07HNYSO6YPC3E,83F8F53E-74DE-4D16-981A-B466B5739767,2023-09-28_14h35.02.867,WP_VExplicitOC_LH,2022.2.5,MacIntel,59.99520038,NA,NA,NA,NA,NA,NA,NA,NA,NA,NA,NA,NA,NA,NA,NA,NA,NA,NA,stand up,002.png,NA,NA,NA,NA,NA,NA,NA,NA,NA,NA,NA,NA,NA,NA,NA,NA,92.30418412,1.3819,0,1,1,1,1,NA,NA,NA,NA,NA,NA,NA,NA,NA,NA,NA,NA,NA,NA,NA,NA
SUPAMT18178,39O5D9O87ZRUUROWD07HNYSO6YPC3E,83F8F53E-74DE-4D16-981A-B466B5739767,2023-09-28_14h35.02.867,WP_VExplicitOC_LH,2022.2.5,MacIntel,59.99520038,NA,NA,NA,NA,NA,NA,NA,NA,NA,NA,NA,NA,NA,NA,NA,NA,NA,NA,stretch,003.png,NA,NA,NA,NA,NA,NA,NA,NA,NA,NA,NA,NA,NA,NA,NA,NA,100,0.8306,0,2,2,2,1,NA,NA,NA,NA,NA,NA,NA,NA,NA,NA,NA,NA,NA,NA,NA,NA
SUPAMT18178,39O5D9O87ZRUUROWD07HNYSO6YPC3E,83F8F53E-74DE-4D16-981A-B466B5739767,2023-09-28_14h35.02.867,WP_VExplicitOC_LH,2022.2.5,MacIntel,59.99520038,NA,NA,NA,NA,NA,NA,NA,NA,NA,NA,NA,NA,NA,NA,NA,NA,NA,NA,make a drink,004.png,NA,NA,NA,NA,NA,NA,NA,NA,NA,NA,NA,NA,NA,NA,NA,NA,100,0.9979,0,3,3,3,1,NA,NA,NA,NA,NA,NA,NA,NA,NA,NA,NA,NA,NA,NA,NA,NA
SUPAMT18178,39O5D9O87ZRUUROWD07HNYSO6YPC3E,83F8F53E-74DE-4D16-981A-B466B5739767,2023-09-28_14h35.02.867,WP_VExplicitOC_LH,2022.2.5,MacIntel,59.99520038,NA,NA,NA,NA,NA,NA,NA,NA,NA,NA,NA,NA,NA,NA,NA,NA,NA,NA,scroll social media,005.png,NA,NA,NA,NA,NA,NA,NA,NA,NA,NA,NA,NA,NA,NA,NA,NA,100,1.1908,0,4,4,4,1,NA,NA,NA,NA,NA,NA,NA,NA,NA,NA,NA,NA,NA,NA,NA,NA
SUPAMT18178,39O5D9O87ZRUUROWD07HNYSO6YPC3E,83F8F53E-74DE-4D16-981A-B466B5739767,2023-09-28_14h35.02.867,WP_VExplicitOC_LH,2022.2.5,MacIntel,59.99520038,NA,NA,NA,NA,NA,NA,NA,NA,NA,NA,NA,NA,NA,NA,NA,NA,NA,NA,listen to music,006.png,NA,NA,NA,NA,NA,NA,NA,NA,NA,NA,NA,NA,NA,NA,NA,NA,100,1.0161,0,5,5,5,1,NA,NA,NA,NA,NA,NA,NA,NA,NA,NA,NA,NA,NA,NA,NA,NA
SUPAMT18178,39O5D9O87ZRUUROWD07HNYSO6YPC3E,83F8F53E-74DE-4D16-981A-B466B5739767,2023-09-28_14h35.02.867,WP_VExplicitOC_LH,2022.2.5,MacIntel,59.99520038,NA,NA,NA,NA,NA,NA,NA,NA,NA,NA,NA,NA,NA,NA,NA,NA,NA,NA,daydream,007.png,NA,NA,NA,NA,NA,NA,NA,NA,NA,NA,NA,NA,NA,NA,NA,NA,100,0.997,0,6,6,6,1,NA,NA,NA,NA,NA,NA,NA,NA,NA,NA,NA,NA,NA,NA,NA,NA
SUPAMT18178,39O5D9O87ZRUUROWD07HNYSO6YPC3E,83F8F53E-74DE-4D16-981A-B466B5739767,2023-09-28_14h35.02.867,WP_VExplicitOC_LH,2022.2.5,MacIntel,59.99520038,NA,NA,NA,NA,NA,NA,NA,NA,NA,NA,NA,NA,NA,NA,NA,NA,NA,NA,watch a short animation,008.png,NA,NA,NA,NA,NA,NA,NA,NA,NA,NA,NA,NA,NA,NA,NA,NA,24.35604764,1.9744,0,7,7,7,1,NA,NA,NA,NA,NA,NA,NA,NA,NA,NA,NA,NA,NA,NA,NA,NA
SUPAMT18178,39O5D9O87ZRUUROWD07HNYSO6YPC3E,83F8F53E-74DE-4D16-981A-B466B5739767,2023-09-28_14h35.02.867,WP_VExplicitOC_LH,2022.2.5,MacIntel,59.99520038,NA,NA,NA,NA,NA,NA,NA,NA,NA,NA,NA,NA,NA,NA,NA,NA,NA,NA,read a novel,009.png,NA,NA,NA,NA,NA,NA,NA,NA,NA,NA,NA,NA,NA,NA,NA,NA,44.42005275,1.7477,0,8,8,8,1,NA,NA,NA,NA,NA,NA,NA,NA,NA,NA,NA,NA,NA,NA,NA,NA
SUPAMT18178,39O5D9O87ZRUUROWD07HNYSO6YPC3E,83F8F53E-74DE-4D16-981A-B466B5739767,2023-09-28_14h35.02.867,WP_VExplicitOC_LH,2022.2.5,MacIntel,59.99520038,NA,NA,NA,NA,NA,NA,NA,NA,NA,NA,NA,NA,NA,NA,NA,NA,NA,NA,read the news,010.png,NA,NA,NA,NA,NA,NA,NA,NA,NA,NA,NA,NA,NA,NA,NA,NA,22.55250282,1.7481,0,9,9,9,1,NA,NA,NA,NA,NA,NA,NA,NA,NA,NA,NA,NA,NA,NA,NA,NA
SUPAMT18178,39O5D9O87ZRUUROWD07HNYSO6YPC3E,83F8F53E-74DE-4D16-981A-B466B5739767,2023-09-28_14h35.02.867,WP_VExplicitOC_LH,2022.2.5,MacIntel,59.99520038,NA,NA,NA,NA,NA,NA,NA,NA,NA,NA,NA,NA,NA,NA,NA,NA,NA,NA,NA,NA,NA,NA,NA,NA,NA,NA,NA,NA,NA,NA,NA,NA,NA,NA,NA,NA,NA,NA,NA,NA,NA,NA,NA,stretch,NA,NA,NA,NA,NA,NA,NA,NA,NA,NA,NA,NA,NA,NA,NA
SUPAMT18178,39O5D9O87ZRUUROWD07HNYSO6YPC3E,83F8F53E-74DE-4D16-981A-B466B5739767,2023-09-28_14h35.02.867,WP_VExplicitOC_LH,2022.2.5,MacIntel,59.99520038,-100,2.8553,2.0045,NA,NA,NA,NA,NA,bored,"bored, not bored","more bored, less bored",NA,NA,NA,NA,NA,NA,NA,NA,NA,NA,NA,NA,NA,NA,NA,NA,NA,NA,NA,NA,NA,NA,NA,NA,NA,NA,NA,NA,NA,NA,NA,NA,NA,0,0,0,2,1,NA,NA,NA,NA,NA,NA,NA,NA,NA,NA
SUPAMT18178,39O5D9O87ZRUUROWD07HNYSO6YPC3E,83F8F53E-74DE-4D16-981A-B466B5739767,2023-09-28_14h35.02.867,WP_VExplicitOC_LH,2022.2.5,MacIntel,59.99520038,-100,2.7048,2.0066,NA,NA,NA,NA,NA,frustrated,"frustrated, not frustrated","more frustrated, less frustrated",NA,NA,NA,NA,NA,NA,NA,NA,NA,NA,NA,NA,NA,NA,NA,NA,NA,NA,NA,NA,NA,NA,NA,NA,NA,NA,NA,NA,NA,NA,NA,NA,NA,0,1,1,1,1,NA,NA,NA,NA,NA,NA,NA,NA,NA,NA
SUPAMT18178,39O5D9O87ZRUUROWD07HNYSO6YPC3E,83F8F53E-74DE-4D16-981A-B466B5739767,2023-09-28_14h35.02.867,WP_VExplicitOC_LH,2022.2.5,MacIntel,59.99520038,-100,2.698,2.0002,NA,NA,NA,NA,NA,happy,"unhappy, happy","less happy, more happy",NA,NA,NA,NA,NA,NA,NA,NA,NA,NA,NA,NA,NA,NA,NA,NA,NA,NA,NA,NA,NA,NA,NA,NA,NA,NA,NA,NA,NA,NA,NA,NA,NA,0,2,2,0,1,NA,NA,NA,NA,NA,NA,NA,NA,NA,NA
SUPAMT18178,39O5D9O87ZRUUROWD07HNYSO6YPC3E,83F8F53E-74DE-4D16-981A-B466B5739767,2023-09-28_14h35.02.867,WP_VExplicitOC_LH,2022.2.5,MacIntel,59.99520038,NA,NA,NA,NA,NA,NA,NA,NA,NA,NA,NA,NA,NA,NA,NA,NA,NA,NA,NA,NA,NA,NA,NA,NA,NA,NA,NA,NA,NA,NA,NA,NA,NA,NA,NA,NA,NA,NA,NA,NA,NA,NA,NA,NA,NA,NA,NA,NA,NA,NA,NA,NA,NA,NA,NA,NA,NA,NA,NA
SUPAMT18178,39O5D9O87ZRUUROWD07HNYSO6YPC3E,83F8F53E-74DE-4D16-981A-B466B5739767,2023-09-28_14h35.02.867,WP_VExplicitOC_LH,2022.2.5,MacIntel,59.99520038,NA,NA,NA,NA,NA,NA,NA,NA,NA,NA,NA,NA,NA,NA,NA,NA,NA,NA,NA,NA,NA,NA,NA,NA,NA,NA,NA,NA,NA,NA,NA,NA,NA,NA,NA,NA,NA,NA,NA,NA,NA,NA,NA,NA,NA,NA,NA,NA,NA,NA,NA,NA,NA,NA,NA,NA,NA,NA,NA
SUPAMT18178,39O5D9O87ZRUUROWD07HNYSO6YPC3E,83F8F53E-74DE-4D16-981A-B466B5739767,2023-09-28_14h35.02.867,WP_VExplicitOC_LH,2022.2.5,MacIntel,59.99520038,-100,3.4698,2.0056,NA,NA,NA,NA,NA,frustrated,"frustrated, not frustrated","more frustrated, less frustrated",NA,NA,NA,NA,NA,NA,NA,NA,NA,NA,NA,NA,NA,NA,NA,NA,NA,NA,NA,NA,NA,NA,NA,NA,NA,NA,NA,NA,NA,NA,NA,NA,NA,NA,NA,NA,NA,NA,0,0,0,1,1,NA,NA,NA,NA,NA
SUPAMT18178,39O5D9O87ZRUUROWD07HNYSO6YPC3E,83F8F53E-74DE-4D16-981A-B466B5739767,2023-09-28_14h35.02.867,WP_VExplicitOC_LH,2022.2.5,MacIntel,59.99520038,-100,2.807,2.0065,NA,NA,NA,NA,NA,happy,"unhappy, happy","less happy, more happy",NA,NA,NA,NA,NA,NA,NA,NA,NA,NA,NA,NA,NA,NA,NA,NA,NA,NA,NA,NA,NA,NA,NA,NA,NA,NA,NA,NA,NA,NA,NA,NA,NA,NA,NA,NA,NA,NA,0,1,1,0,1,NA,NA,NA,NA,NA
SUPAMT18178,39O5D9O87ZRUUROWD07HNYSO6YPC3E,83F8F53E-74DE-4D16-981A-B466B5739767,2023-09-28_14h35.02.867,WP_VExplicitOC_LH,2022.2.5,MacIntel,59.99520038,-100,2.8123,2.0067,NA,NA,NA,NA,NA,bored,"bored, not bored","more bored, less bored",NA,NA,NA,NA,NA,NA,NA,NA,NA,NA,NA,NA,NA,NA,NA,NA,NA,NA,NA,NA,NA,NA,NA,NA,NA,NA,NA,NA,NA,NA,NA,NA,NA,NA,NA,NA,NA,NA,0,2,2,2,1,NA,NA,NA,NA,NA
SUPAMT18178,39O5D9O87ZRUUROWD07HNYSO6YPC3E,83F8F53E-74DE-4D16-981A-B466B5739767,2023-09-28_14h35.02.867,WP_VExplicitOC_LH,2022.2.5,MacIntel,59.99520038,NA,NA,NA,NA,NA,NA,NA,NA,NA,NA,NA,NA,NA,NA,NA,NA,NA,NA,NA,NA,NA,NA,NA,NA,NA,NA,NA,NA,NA,NA,NA,NA,NA,NA,NA,NA,NA,NA,NA,NA,NA,NA,NA,NA,NA,NA,NA,NA,NA,NA,NA,NA,NA,NA,0,0,0,0,1
SUPAMT18178,39O5D9O87ZRUUROWD07HNYSO6YPC3E,83F8F53E-74DE-4D16-981A-B466B5739767,2023-09-28_14h35.02.867,WP_VExplicitOC_LH,2022.2.5,MacIntel,59.99520038,NA,NA,2.0054,NA,NA,NA,NA,NA,frustrated,"frustrated, not frustrated","more frustrated, less frustrated",NA,NA,NA,NA,NA,NA,NA,NA,NA,NA,NA,NA,NA,NA,NA,NA,NA,NA,NA,NA,NA,NA,NA,NA,NA,NA,NA,NA,NA,NA,NA,NA,NA,NA,NA,NA,NA,NA,0,0,0,1,1,NA,NA,NA,NA,NA
SUPAMT18178,39O5D9O87ZRUUROWD07HNYSO6YPC3E,83F8F53E-74DE-4D16-981A-B466B5739767,2023-09-28_14h35.02.867,WP_VExplicitOC_LH,2022.2.5,MacIntel,59.99520038,100,2.9227,2.0073,NA,NA,NA,NA,NA,happy,"unhappy, happy","less happy, more happy",NA,NA,NA,NA,NA,NA,NA,NA,NA,NA,NA,NA,NA,NA,NA,NA,NA,NA,NA,NA,NA,NA,NA,NA,NA,NA,NA,NA,NA,NA,NA,NA,NA,NA,NA,NA,NA,NA,0,1,1,0,1,NA,NA,NA,NA,NA
SUPAMT18178,39O5D9O87ZRUUROWD07HNYSO6YPC3E,83F8F53E-74DE-4D16-981A-B466B5739767,2023-09-28_14h35.02.867,WP_VExplicitOC_LH,2022.2.5,MacIntel,59.99520038,-100,2.6954,2.0073,NA,NA,NA,NA,NA,bored,"bored, not bored","more bored, less bored",NA,NA,NA,NA,NA,NA,NA,NA,NA,NA,NA,NA,NA,NA,NA,NA,NA,NA,NA,NA,NA,NA,NA,NA,NA,NA,NA,NA,NA,NA,NA,NA,NA,NA,NA,NA,NA,NA,0,2,2,2,1,NA,NA,NA,NA,NA
SUPAMT18178,39O5D9O87ZRUUROWD07HNYSO6YPC3E,83F8F53E-74DE-4D16-981A-B466B5739767,2023-09-28_14h35.02.867,WP_VExplicitOC_LH,2022.2.5,MacIntel,59.99520038,NA,NA,NA,NA,NA,NA,NA,NA,NA,NA,NA,NA,NA,NA,NA,NA,NA,NA,NA,NA,NA,NA,NA,NA,NA,NA,NA,NA,NA,NA,NA,NA,NA,NA,NA,NA,NA,NA,NA,NA,NA,NA,NA,NA,NA,NA,NA,NA,NA,NA,NA,NA,NA,NA,1,0,1,0,1
SUPAMT18178,39O5D9O87ZRUUROWD07HNYSO6YPC3E,83F8F53E-74DE-4D16-981A-B466B5739767,2023-09-28_14h35.02.867,WP_VExplicitOC_LH,2022.2.5,MacIntel,59.99520038,-100,2.6385,2.0062,NA,NA,NA,NA,NA,frustrated,"frustrated, not frustrated","more frustrated, less frustrated",NA,NA,NA,NA,NA,NA,NA,NA,NA,NA,NA,NA,NA,NA,NA,NA,NA,NA,NA,NA,NA,NA,NA,NA,NA,NA,NA,NA,NA,NA,NA,NA,NA,NA,NA,NA,NA,NA,0,0,0,1,1,NA,NA,NA,NA,NA
SUPAMT18178,39O5D9O87ZRUUROWD07HNYSO6YPC3E,83F8F53E-74DE-4D16-981A-B466B5739767,2023-09-28_14h35.02.867,WP_VExplicitOC_LH,2022.2.5,MacIntel,59.99520038,-100,2.5874,2.0086,NA,NA,NA,NA,NA,bored,"bored, not bored","more bored, less bored",NA,NA,NA,NA,NA,NA,NA,NA,NA,NA,NA,NA,NA,NA,NA,NA,NA,NA,NA,NA,NA,NA,NA,NA,NA,NA,NA,NA,NA,NA,NA,NA,NA,NA,NA,NA,NA,NA,0,1,1,2,1,NA,NA,NA,NA,NA
SUPAMT18178,39O5D9O87ZRUUROWD07HNYSO6YPC3E,83F8F53E-74DE-4D16-981A-B466B5739767,2023-09-28_14h35.02.867,WP_VExplicitOC_LH,2022.2.5,MacIntel,59.99520038,-100,2.6814,2,NA,NA,NA,NA,NA,happy,"unhappy, happy","less happy, more happy",NA,NA,NA,NA,NA,NA,NA,NA,NA,NA,NA,NA,NA,NA,NA,NA,NA,NA,NA,NA,NA,NA,NA,NA,NA,NA,NA,NA,NA,NA,NA,NA,NA,NA,NA,NA,NA,NA,0,2,2,0,1,NA,NA,NA,NA,NA
SUPAMT18178,39O5D9O87ZRUUROWD07HNYSO6YPC3E,83F8F53E-74DE-4D16-981A-B466B5739767,2023-09-28_14h35.02.867,WP_VExplicitOC_LH,2022.2.5,MacIntel,59.99520038,NA,NA,NA,NA,NA,NA,NA,NA,NA,NA,NA,NA,NA,NA,NA,NA,NA,NA,NA,NA,NA,NA,NA,NA,NA,NA,NA,NA,NA,NA,NA,NA,NA,NA,NA,NA,NA,NA,NA,NA,NA,NA,NA,NA,NA,NA,NA,NA,NA,NA,NA,NA,NA,NA,2,0,2,0,1
SUPAMT18178,39O5D9O87ZRUUROWD07HNYSO6YPC3E,83F8F53E-74DE-4D16-981A-B466B5739767,2023-09-28_14h35.02.867,WP_VExplicitOC_LH,2022.2.5,MacIntel,59.99520038,-100,2.7295,2.0055,NA,NA,NA,NA,NA,happy,"unhappy, happy","less happy, more happy",NA,NA,NA,NA,NA,NA,NA,NA,NA,NA,NA,NA,NA,NA,NA,NA,NA,NA,NA,NA,NA,NA,NA,NA,NA,NA,NA,NA,NA,NA,NA,NA,NA,NA,NA,NA,NA,NA,0,0,0,0,1,NA,NA,NA,NA,NA
SUPAMT18178,39O5D9O87ZRUUROWD07HNYSO6YPC3E,83F8F53E-74DE-4D16-981A-B466B5739767,2023-09-28_14h35.02.867,WP_VExplicitOC_LH,2022.2.5,MacIntel,59.99520038,-100,2.7735,2.0071,NA,NA,NA,NA,NA,bored,"bored, not bored","more bored, less bored",NA,NA,NA,NA,NA,NA,NA,NA,NA,NA,NA,NA,NA,NA,NA,NA,NA,NA,NA,NA,NA,NA,NA,NA,NA,NA,NA,NA,NA,NA,NA,NA,NA,NA,NA,NA,NA,NA,0,1,1,2,1,NA,NA,NA,NA,NA
SUPAMT18178,39O5D9O87ZRUUROWD07HNYSO6YPC3E,83F8F53E-74DE-4D16-981A-B466B5739767,2023-09-28_14h35.02.867,WP_VExplicitOC_LH,2022.2.5,MacIntel,59.99520038,-100,2.7306,2.0069,NA,NA,NA,NA,NA,frustrated,"frustrated, not frustrated","more frustrated, less frustrated",NA,NA,NA,NA,NA,NA,NA,NA,NA,NA,NA,NA,NA,NA,NA,NA,NA,NA,NA,NA,NA,NA,NA,NA,NA,NA,NA,NA,NA,NA,NA,NA,NA,NA,NA,NA,NA,NA,0,2,2,1,1,NA,NA,NA,NA,NA
SUPAMT18178,39O5D9O87ZRUUROWD07HNYSO6YPC3E,83F8F53E-74DE-4D16-981A-B466B5739767,2023-09-28_14h35.02.867,WP_VExplicitOC_LH,2022.2.5,MacIntel,59.99520038,NA,NA,NA,NA,NA,NA,NA,NA,NA,NA,NA,NA,NA,NA,NA,NA,NA,NA,NA,NA,NA,NA,NA,NA,NA,NA,NA,NA,NA,NA,NA,NA,NA,NA,NA,NA,NA,NA,NA,NA,NA,NA,NA,NA,NA,NA,NA,NA,NA,NA,NA,NA,NA,NA,3,0,3,0,1
SUPAMT18178,39O5D9O87ZRUUROWD07HNYSO6YPC3E,83F8F53E-74DE-4D16-981A-B466B5739767,2023-09-28_14h35.02.867,WP_VExplicitOC_LH,2022.2.5,MacIntel,59.99520038,-100,2.6142,2.0058,NA,NA,NA,NA,NA,happy,"unhappy, happy","less happy, more happy",NA,NA,NA,NA,NA,NA,NA,NA,NA,NA,NA,NA,NA,NA,NA,NA,NA,NA,NA,NA,NA,NA,NA,NA,NA,NA,NA,NA,NA,NA,NA,NA,NA,NA,NA,NA,NA,NA,0,0,0,0,1,NA,NA,NA,NA,NA
SUPAMT18178,39O5D9O87ZRUUROWD07HNYSO6YPC3E,83F8F53E-74DE-4D16-981A-B466B5739767,2023-09-28_14h35.02.867,WP_VExplicitOC_LH,2022.2.5,MacIntel,59.99520038,-100,2.8222,2.007,NA,NA,NA,NA,NA,bored,"bored, not bored","more bored, less bored",NA,NA,NA,NA,NA,NA,NA,NA,NA,NA,NA,NA,NA,NA,NA,NA,NA,NA,NA,NA,NA,NA,NA,NA,NA,NA,NA,NA,NA,NA,NA,NA,NA,NA,NA,NA,NA,NA,0,1,1,2,1,NA,NA,NA,NA,NA
SUPAMT18178,39O5D9O87ZRUUROWD07HNYSO6YPC3E,83F8F53E-74DE-4D16-981A-B466B5739767,2023-09-28_14h35.02.867,WP_VExplicitOC_LH,2022.2.5,MacIntel,59.99520038,-100,2.765,2.0087,NA,NA,NA,NA,NA,frustrated,"frustrated, not frustrated","more frustrated, less frustrated",NA,NA,NA,NA,NA,NA,NA,NA,NA,NA,NA,NA,NA,NA,NA,NA,NA,NA,NA,NA,NA,NA,NA,NA,NA,NA,NA,NA,NA,NA,NA,NA,NA,NA,NA,NA,NA,NA,0,2,2,1,1,NA,NA,NA,NA,NA
SUPAMT18178,39O5D9O87ZRUUROWD07HNYSO6YPC3E,83F8F53E-74DE-4D16-981A-B466B5739767,2023-09-28_14h35.02.867,WP_VExplicitOC_LH,2022.2.5,MacIntel,59.99520038,NA,NA,NA,NA,NA,NA,NA,NA,NA,NA,NA,NA,NA,NA,NA,NA,NA,NA,NA,NA,NA,NA,NA,NA,NA,NA,NA,NA,NA,NA,NA,NA,NA,NA,NA,NA,NA,NA,NA,NA,NA,NA,NA,NA,NA,NA,NA,NA,NA,NA,NA,NA,NA,NA,4,0,4,0,1
SUPAMT18178,39O5D9O87ZRUUROWD07HNYSO6YPC3E,83F8F53E-74DE-4D16-981A-B466B5739767,2023-09-28_14h35.02.867,WP_VExplicitOC_LH,2022.2.5,MacIntel,59.99520038,-100,3.179,2.0052,NA,NA,NA,NA,NA,frustrated,"frustrated, not frustrated","more frustrated, less frustrated",NA,NA,NA,NA,NA,NA,NA,NA,NA,NA,NA,NA,NA,NA,NA,NA,NA,NA,NA,NA,NA,NA,NA,NA,NA,NA,NA,NA,NA,NA,NA,NA,NA,NA,NA,NA,NA,NA,0,0,0,1,1,NA,NA,NA,NA,NA
SUPAMT18178,39O5D9O87ZRUUROWD07HNYSO6YPC3E,83F8F53E-74DE-4D16-981A-B466B5739767,2023-09-28_14h35.02.867,WP_VExplicitOC_LH,2022.2.5,MacIntel,59.99520038,-100,2.5567,2.0018,NA,NA,NA,NA,NA,bored,"bored, not bored","more bored, less bored",NA,NA,NA,NA,NA,NA,NA,NA,NA,NA,NA,NA,NA,NA,NA,NA,NA,NA,NA,NA,NA,NA,NA,NA,NA,NA,NA,NA,NA,NA,NA,NA,NA,NA,NA,NA,NA,NA,0,1,1,2,1,NA,NA,NA,NA,NA
SUPAMT18178,39O5D9O87ZRUUROWD07HNYSO6YPC3E,83F8F53E-74DE-4D16-981A-B466B5739767,2023-09-28_14h35.02.867,WP_VExplicitOC_LH,2022.2.5,MacIntel,59.99520038,-100,2.7313,2.0004,NA,NA,NA,NA,NA,happy,"unhappy, happy","less happy, more happy",NA,NA,NA,NA,NA,NA,NA,NA,NA,NA,NA,NA,NA,NA,NA,NA,NA,NA,NA,NA,NA,NA,NA,NA,NA,NA,NA,NA,NA,NA,NA,NA,NA,NA,NA,NA,NA,NA,0,2,2,0,1,NA,NA,NA,NA,NA
SUPAMT18178,39O5D9O87ZRUUROWD07HNYSO6YPC3E,83F8F53E-74DE-4D16-981A-B466B5739767,2023-09-28_14h35.02.867,WP_VExplicitOC_LH,2022.2.5,MacIntel,59.99520038,NA,NA,NA,NA,NA,NA,NA,NA,NA,NA,NA,NA,NA,NA,NA,NA,NA,NA,NA,NA,NA,NA,NA,NA,NA,NA,NA,NA,NA,NA,NA,NA,NA,NA,NA,NA,NA,NA,NA,NA,NA,NA,NA,NA,NA,NA,NA,NA,NA,NA,NA,NA,NA,NA,5,0,5,0,1
SUPAMT18178,39O5D9O87ZRUUROWD07HNYSO6YPC3E,83F8F53E-74DE-4D16-981A-B466B5739767,2023-09-28_14h35.02.867,WP_VExplicitOC_LH,2022.2.5,MacIntel,59.99520038,-100,4.1962,2.0047,NA,NA,NA,NA,NA,happy,"unhappy, happy","less happy, more happy",NA,NA,NA,NA,NA,NA,NA,NA,NA,NA,NA,NA,NA,NA,NA,NA,NA,NA,NA,NA,NA,NA,NA,NA,NA,NA,NA,NA,NA,NA,NA,NA,NA,NA,NA,NA,NA,NA,0,0,0,0,1,NA,NA,NA,NA,NA
SUPAMT18178,39O5D9O87ZRUUROWD07HNYSO6YPC3E,83F8F53E-74DE-4D16-981A-B466B5739767,2023-09-28_14h35.02.867,WP_VExplicitOC_LH,2022.2.5,MacIntel,59.99520038,-100,2.7143,2.008,NA,NA,NA,NA,NA,frustrated,"frustrated, not frustrated","more frustrated, less frustrated",NA,NA,NA,NA,NA,NA,NA,NA,NA,NA,NA,NA,NA,NA,NA,NA,NA,NA,NA,NA,NA,NA,NA,NA,NA,NA,NA,NA,NA,NA,NA,NA,NA,NA,NA,NA,NA,NA,0,1,1,1,1,NA,NA,NA,NA,NA
SUPAMT18178,39O5D9O87ZRUUROWD07HNYSO6YPC3E,83F8F53E-74DE-4D16-981A-B466B5739767,2023-09-28_14h35.02.867,WP_VExplicitOC_LH,2022.2.5,MacIntel,59.99520038,-100,2.5812,2.0067,NA,NA,NA,NA,NA,bored,"bored, not bored","more bored, less bored",NA,NA,NA,NA,NA,NA,NA,NA,NA,NA,NA,NA,NA,NA,NA,NA,NA,NA,NA,NA,NA,NA,NA,NA,NA,NA,NA,NA,NA,NA,NA,NA,NA,NA,NA,NA,NA,NA,0,2,2,2,1,NA,NA,NA,NA,NA
SUPAMT18178,39O5D9O87ZRUUROWD07HNYSO6YPC3E,83F8F53E-74DE-4D16-981A-B466B5739767,2023-09-28_14h35.02.867,WP_VExplicitOC_LH,2022.2.5,MacIntel,59.99520038,NA,NA,NA,NA,NA,NA,NA,NA,NA,NA,NA,NA,NA,NA,NA,NA,NA,NA,NA,NA,NA,NA,NA,NA,NA,NA,NA,NA,NA,NA,NA,NA,NA,NA,NA,NA,NA,NA,NA,NA,NA,NA,NA,NA,NA,NA,NA,NA,NA,NA,NA,NA,NA,NA,6,0,6,0,1
SUPAMT18178,39O5D9O87ZRUUROWD07HNYSO6YPC3E,83F8F53E-74DE-4D16-981A-B466B5739767,2023-09-28_14h35.02.867,WP_VExplicitOC_LH,2022.2.5,MacIntel,59.99520038,-100,3.2219,2.0046,NA,NA,NA,NA,NA,happy,"unhappy, happy","less happy, more happy",NA,NA,NA,NA,NA,NA,NA,NA,NA,NA,NA,NA,NA,NA,NA,NA,NA,NA,NA,NA,NA,NA,NA,NA,NA,NA,NA,NA,NA,NA,NA,NA,NA,NA,NA,NA,NA,NA,0,0,0,0,1,NA,NA,NA,NA,NA
SUPAMT18178,39O5D9O87ZRUUROWD07HNYSO6YPC3E,83F8F53E-74DE-4D16-981A-B466B5739767,2023-09-28_14h35.02.867,WP_VExplicitOC_LH,2022.2.5,MacIntel,59.99520038,-100,2.5477,2.0064,NA,NA,NA,NA,NA,frustrated,"frustrated, not frustrated","more frustrated, less frustrated",NA,NA,NA,NA,NA,NA,NA,NA,NA,NA,NA,NA,NA,NA,NA,NA,NA,NA,NA,NA,NA,NA,NA,NA,NA,NA,NA,NA,NA,NA,NA,NA,NA,NA,NA,NA,NA,NA,0,1,1,1,1,NA,NA,NA,NA,NA
SUPAMT18178,39O5D9O87ZRUUROWD07HNYSO6YPC3E,83F8F53E-74DE-4D16-981A-B466B5739767,2023-09-28_14h35.02.867,WP_VExplicitOC_LH,2022.2.5,MacIntel,59.99520038,-100,2.5876,2.0066,NA,NA,NA,NA,NA,bored,"bored, not bored","more bored, less bored",NA,NA,NA,NA,NA,NA,NA,NA,NA,NA,NA,NA,NA,NA,NA,NA,NA,NA,NA,NA,NA,NA,NA,NA,NA,NA,NA,NA,NA,NA,NA,NA,NA,NA,NA,NA,NA,NA,0,2,2,2,1,NA,NA,NA,NA,NA
SUPAMT18178,39O5D9O87ZRUUROWD07HNYSO6YPC3E,83F8F53E-74DE-4D16-981A-B466B5739767,2023-09-28_14h35.02.867,WP_VExplicitOC_LH,2022.2.5,MacIntel,59.99520038,NA,NA,NA,NA,NA,NA,NA,NA,NA,NA,NA,NA,NA,NA,NA,NA,NA,NA,NA,NA,NA,NA,NA,NA,NA,NA,NA,NA,NA,NA,NA,NA,NA,NA,NA,NA,NA,NA,NA,NA,NA,NA,NA,NA,NA,NA,NA,NA,NA,NA,NA,NA,NA,NA,7,0,7,0,1
SUPAMT18178,39O5D9O87ZRUUROWD07HNYSO6YPC3E,83F8F53E-74DE-4D16-981A-B466B5739767,2023-09-28_14h35.02.867,WP_VExplicitOC_LH,2022.2.5,MacIntel,59.99520038,-100,3.1341,2.002,NA,NA,NA,NA,NA,bored,"bored, not bored","more bored, less bored",NA,NA,NA,NA,NA,NA,NA,NA,NA,NA,NA,NA,NA,NA,NA,NA,NA,NA,NA,NA,NA,NA,NA,NA,NA,NA,NA,NA,NA,NA,NA,NA,NA,NA,NA,NA,NA,NA,0,0,0,2,1,NA,NA,NA,NA,NA
SUPAMT18178,39O5D9O87ZRUUROWD07HNYSO6YPC3E,83F8F53E-74DE-4D16-981A-B466B5739767,2023-09-28_14h35.02.867,WP_VExplicitOC_LH,2022.2.5,MacIntel,59.99520038,-100,2.4894,2.0085,NA,NA,NA,NA,NA,happy,"unhappy, happy","less happy, more happy",NA,NA,NA,NA,NA,NA,NA,NA,NA,NA,NA,NA,NA,NA,NA,NA,NA,NA,NA,NA,NA,NA,NA,NA,NA,NA,NA,NA,NA,NA,NA,NA,NA,NA,NA,NA,NA,NA,0,1,1,0,1,NA,NA,NA,NA,NA
SUPAMT18178,39O5D9O87ZRUUROWD07HNYSO6YPC3E,83F8F53E-74DE-4D16-981A-B466B5739767,2023-09-28_14h35.02.867,WP_VExplicitOC_LH,2022.2.5,MacIntel,59.99520038,-100,2.4644,2.0086,NA,NA,NA,NA,NA,frustrated,"frustrated, not frustrated","more frustrated, less frustrated",NA,NA,NA,NA,NA,NA,NA,NA,NA,NA,NA,NA,NA,NA,NA,NA,NA,NA,NA,NA,NA,NA,NA,NA,NA,NA,NA,NA,NA,NA,NA,NA,NA,NA,NA,NA,NA,NA,0,2,2,1,1,NA,NA,NA,NA,NA
SUPAMT18178,39O5D9O87ZRUUROWD07HNYSO6YPC3E,83F8F53E-74DE-4D16-981A-B466B5739767,2023-09-28_14h35.02.867,WP_VExplicitOC_LH,2022.2.5,MacIntel,59.99520038,NA,NA,NA,NA,NA,NA,NA,NA,NA,NA,NA,NA,NA,NA,NA,NA,NA,NA,NA,NA,NA,NA,NA,NA,NA,NA,NA,NA,NA,NA,NA,NA,NA,NA,NA,NA,NA,NA,NA,NA,NA,NA,NA,NA,NA,NA,NA,NA,NA,NA,NA,NA,NA,NA,8,0,8,0,1
SUPAMT18178,39O5D9O87ZRUUROWD07HNYSO6YPC3E,83F8F53E-74DE-4D16-981A-B466B5739767,2023-09-28_14h35.02.867,WP_VExplicitOC_LH,2022.2.5,MacIntel,59.99520038,-100,2.612,2.0047,NA,NA,NA,NA,NA,happy,"unhappy, happy","less happy, more happy",NA,NA,NA,NA,NA,NA,NA,NA,NA,NA,NA,NA,NA,NA,NA,NA,NA,NA,NA,NA,NA,NA,NA,NA,NA,NA,NA,NA,NA,NA,NA,NA,NA,NA,NA,NA,NA,NA,0,0,0,0,1,NA,NA,NA,NA,NA
SUPAMT18178,39O5D9O87ZRUUROWD07HNYSO6YPC3E,83F8F53E-74DE-4D16-981A-B466B5739767,2023-09-28_14h35.02.867,WP_VExplicitOC_LH,2022.2.5,MacIntel,59.99520038,-100,3.1886,2,NA,NA,NA,NA,NA,frustrated,"frustrated, not frustrated","more frustrated, less frustrated",NA,NA,NA,NA,NA,NA,NA,NA,NA,NA,NA,NA,NA,NA,NA,NA,NA,NA,NA,NA,NA,NA,NA,NA,NA,NA,NA,NA,NA,NA,NA,NA,NA,NA,NA,NA,NA,NA,0,1,1,1,1,NA,NA,NA,NA,NA
SUPAMT18178,39O5D9O87ZRUUROWD07HNYSO6YPC3E,83F8F53E-74DE-4D16-981A-B466B5739767,2023-09-28_14h35.02.867,WP_VExplicitOC_LH,2022.2.5,MacIntel,59.99520038,-100,3.2393,2.0074,NA,NA,NA,NA,NA,bored,"bored, not bored","more bored, less bored",NA,NA,NA,NA,NA,NA,NA,NA,NA,NA,NA,NA,NA,NA,NA,NA,NA,NA,NA,NA,NA,NA,NA,NA,NA,NA,NA,NA,NA,NA,NA,NA,NA,NA,NA,NA,NA,NA,0,2,2,2,1,NA,NA,NA,NA,NA
SUPAMT18178,39O5D9O87ZRUUROWD07HNYSO6YPC3E,83F8F53E-74DE-4D16-981A-B466B5739767,2023-09-28_14h35.02.867,WP_VExplicitOC_LH,2022.2.5,MacIntel,59.99520038,NA,NA,NA,NA,NA,NA,NA,NA,NA,NA,NA,NA,NA,NA,NA,NA,NA,NA,NA,NA,NA,NA,NA,NA,NA,NA,NA,NA,NA,NA,NA,NA,NA,NA,NA,NA,NA,NA,NA,NA,NA,NA,NA,NA,NA,NA,NA,NA,NA,NA,NA,NA,NA,NA,9,0,9,0,1
SUPAMT18178,39O5D9O87ZRUUROWD07HNYSO6YPC3E,83F8F53E-74DE-4D16-981A-B466B5739767,2023-09-28_14h35.02.867,WP_VExplicitOC_LH,2022.2.5,MacIntel,59.99520038,-100,3.5456,2.0059,NA,NA,NA,NA,NA,happy,"unhappy, happy","less happy, more happy",NA,NA,NA,NA,NA,NA,NA,NA,NA,NA,NA,NA,NA,NA,NA,NA,NA,NA,NA,NA,NA,NA,NA,NA,NA,NA,NA,NA,NA,NA,NA,NA,NA,NA,NA,NA,NA,NA,0,0,0,0,1,NA,NA,NA,NA,NA
SUPAMT18178,39O5D9O87ZRUUROWD07HNYSO6YPC3E,83F8F53E-74DE-4D16-981A-B466B5739767,2023-09-28_14h35.02.867,WP_VExplicitOC_LH,2022.2.5,MacIntel,59.99520038,-100,2.7475,2.0075,NA,NA,NA,NA,NA,bored,"bored, not bored","more bored, less bored",NA,NA,NA,NA,NA,NA,NA,NA,NA,NA,NA,NA,NA,NA,NA,NA,NA,NA,NA,NA,NA,NA,NA,NA,NA,NA,NA,NA,NA,NA,NA,NA,NA,NA,NA,NA,NA,NA,0,1,1,2,1,NA,NA,NA,NA,NA
SUPAMT18178,39O5D9O87ZRUUROWD07HNYSO6YPC3E,83F8F53E-74DE-4D16-981A-B466B5739767,2023-09-28_14h35.02.867,WP_VExplicitOC_LH,2022.2.5,MacIntel,59.99520038,-100,2.5821,2.0079,NA,NA,NA,NA,NA,frustrated,"frustrated, not frustrated","more frustrated, less frustrated",NA,NA,NA,NA,NA,NA,NA,NA,NA,NA,NA,NA,NA,NA,NA,NA,NA,NA,NA,NA,NA,NA,NA,NA,NA,NA,NA,NA,NA,NA,NA,NA,NA,NA,NA,NA,NA,NA,0,2,2,1,1,NA,NA,NA,NA,NA
SUPAMT18178,39O5D9O87ZRUUROWD07HNYSO6YPC3E,83F8F53E-74DE-4D16-981A-B466B5739767,2023-09-28_14h35.02.867,WP_VExplicitOC_LH,2022.2.5,MacIntel,59.99520038,NA,NA,NA,NA,NA,NA,NA,NA,NA,NA,NA,NA,NA,NA,NA,NA,NA,NA,NA,NA,NA,NA,NA,NA,NA,NA,NA,NA,NA,NA,NA,NA,NA,NA,NA,NA,NA,NA,NA,NA,NA,NA,NA,NA,NA,NA,NA,NA,NA,NA,NA,NA,NA,NA,10,0,10,0,1
SUPAMT18178,39O5D9O87ZRUUROWD07HNYSO6YPC3E,83F8F53E-74DE-4D16-981A-B466B5739767,2023-09-28_14h35.02.867,WP_VExplicitOC_LH,2022.2.5,MacIntel,59.99520038,-100,5.418,2.0003,NA,NA,NA,NA,NA,bored,"bored, not bored","more bored, less bored",NA,NA,NA,NA,NA,NA,NA,NA,NA,NA,NA,NA,NA,NA,NA,NA,NA,NA,NA,NA,NA,NA,NA,NA,NA,NA,NA,NA,NA,NA,NA,NA,NA,NA,NA,NA,NA,NA,0,0,0,2,1,NA,NA,NA,NA,NA
SUPAMT18178,39O5D9O87ZRUUROWD07HNYSO6YPC3E,83F8F53E-74DE-4D16-981A-B466B5739767,2023-09-28_14h35.02.867,WP_VExplicitOC_LH,2022.2.5,MacIntel,59.99520038,-100,2.4642,2.0012,NA,NA,NA,NA,NA,happy,"unhappy, happy","less happy, more happy",NA,NA,NA,NA,NA,NA,NA,NA,NA,NA,NA,NA,NA,NA,NA,NA,NA,NA,NA,NA,NA,NA,NA,NA,NA,NA,NA,NA,NA,NA,NA,NA,NA,NA,NA,NA,NA,NA,0,1,1,0,1,NA,NA,NA,NA,NA
SUPAMT18178,39O5D9O87ZRUUROWD07HNYSO6YPC3E,83F8F53E-74DE-4D16-981A-B466B5739767,2023-09-28_14h35.02.867,WP_VExplicitOC_LH,2022.2.5,MacIntel,59.99520038,-100,2.4324,2.0068,NA,NA,NA,NA,NA,frustrated,"frustrated, not frustrated","more frustrated, less frustrated",NA,NA,NA,NA,NA,NA,NA,NA,NA,NA,NA,NA,NA,NA,NA,NA,NA,NA,NA,NA,NA,NA,NA,NA,NA,NA,NA,NA,NA,NA,NA,NA,NA,NA,NA,NA,NA,NA,0,2,2,1,1,NA,NA,NA,NA,NA
SUPAMT18178,39O5D9O87ZRUUROWD07HNYSO6YPC3E,83F8F53E-74DE-4D16-981A-B466B5739767,2023-09-28_14h35.02.867,WP_VExplicitOC_LH,2022.2.5,MacIntel,59.99520038,NA,NA,NA,NA,NA,NA,NA,NA,NA,NA,NA,NA,NA,NA,NA,NA,NA,NA,NA,NA,NA,NA,NA,NA,NA,NA,NA,NA,NA,NA,NA,NA,NA,NA,NA,NA,NA,NA,NA,NA,NA,NA,NA,NA,NA,NA,NA,NA,NA,NA,NA,NA,NA,NA,11,0,11,0,1
SUPAMT18178,39O5D9O87ZRUUROWD07HNYSO6YPC3E,83F8F53E-74DE-4D16-981A-B466B5739767,2023-09-28_14h35.02.867,WP_VExplicitOC_LH,2022.2.5,MacIntel,59.99520038,-100,3.8494,2.0019,NA,NA,NA,NA,NA,happy,"unhappy, happy","less happy, more happy",NA,NA,NA,NA,NA,NA,NA,NA,NA,NA,NA,NA,NA,NA,NA,NA,NA,NA,NA,NA,NA,NA,NA,NA,NA,NA,NA,NA,NA,NA,NA,NA,NA,NA,NA,NA,NA,NA,0,0,0,0,1,NA,NA,NA,NA,NA
SUPAMT18178,39O5D9O87ZRUUROWD07HNYSO6YPC3E,83F8F53E-74DE-4D16-981A-B466B5739767,2023-09-28_14h35.02.867,WP_VExplicitOC_LH,2022.2.5,MacIntel,59.99520038,-100,2.5818,2.0078,NA,NA,NA,NA,NA,bored,"bored, not bored","more bored, less bored",NA,NA,NA,NA,NA,NA,NA,NA,NA,NA,NA,NA,NA,NA,NA,NA,NA,NA,NA,NA,NA,NA,NA,NA,NA,NA,NA,NA,NA,NA,NA,NA,NA,NA,NA,NA,NA,NA,0,1,1,2,1,NA,NA,NA,NA,NA
SUPAMT18178,39O5D9O87ZRUUROWD07HNYSO6YPC3E,83F8F53E-74DE-4D16-981A-B466B5739767,2023-09-28_14h35.02.867,WP_VExplicitOC_LH,2022.2.5,MacIntel,59.99520038,-100,2.4814,2.0007,NA,NA,NA,NA,NA,frustrated,"frustrated, not frustrated","more frustrated, less frustrated",NA,NA,NA,NA,NA,NA,NA,NA,NA,NA,NA,NA,NA,NA,NA,NA,NA,NA,NA,NA,NA,NA,NA,NA,NA,NA,NA,NA,NA,NA,NA,NA,NA,NA,NA,NA,NA,NA,0,2,2,1,1,NA,NA,NA,NA,NA
SUPAMT18178,39O5D9O87ZRUUROWD07HNYSO6YPC3E,83F8F53E-74DE-4D16-981A-B466B5739767,2023-09-28_14h35.02.867,WP_VExplicitOC_LH,2022.2.5,MacIntel,59.99520038,NA,NA,NA,NA,NA,NA,NA,NA,NA,NA,NA,NA,NA,NA,NA,NA,NA,NA,NA,NA,NA,NA,NA,NA,NA,NA,NA,NA,NA,NA,NA,NA,NA,NA,NA,NA,NA,NA,NA,NA,NA,NA,NA,NA,NA,NA,NA,NA,NA,NA,NA,NA,NA,NA,12,0,12,0,1
SUPAMT18178,39O5D9O87ZRUUROWD07HNYSO6YPC3E,83F8F53E-74DE-4D16-981A-B466B5739767,2023-09-28_14h35.02.867,WP_VExplicitOC_LH,2022.2.5,MacIntel,59.99520038,-100,2.9249,2.0043,NA,NA,NA,NA,NA,frustrated,"frustrated, not frustrated","more frustrated, less frustrated",NA,NA,NA,NA,NA,NA,NA,NA,NA,NA,NA,NA,NA,NA,NA,NA,NA,NA,NA,NA,NA,NA,NA,NA,NA,NA,NA,NA,NA,NA,NA,NA,NA,NA,NA,NA,NA,NA,0,0,0,1,1,NA,NA,NA,NA,NA
SUPAMT18178,39O5D9O87ZRUUROWD07HNYSO6YPC3E,83F8F53E-74DE-4D16-981A-B466B5739767,2023-09-28_14h35.02.867,WP_VExplicitOC_LH,2022.2.5,MacIntel,59.99520038,-100,2.5867,2.0035,NA,NA,NA,NA,NA,bored,"bored, not bored","more bored, less bored",NA,NA,NA,NA,NA,NA,NA,NA,NA,NA,NA,NA,NA,NA,NA,NA,NA,NA,NA,NA,NA,NA,NA,NA,NA,NA,NA,NA,NA,NA,NA,NA,NA,NA,NA,NA,NA,NA,0,1,1,2,1,NA,NA,NA,NA,NA
SUPAMT18178,39O5D9O87ZRUUROWD07HNYSO6YPC3E,83F8F53E-74DE-4D16-981A-B466B5739767,2023-09-28_14h35.02.867,WP_VExplicitOC_LH,2022.2.5,MacIntel,59.99520038,-100,2.5721,2.0072,NA,NA,NA,NA,NA,happy,"unhappy, happy","less happy, more happy",NA,NA,NA,NA,NA,NA,NA,NA,NA,NA,NA,NA,NA,NA,NA,NA,NA,NA,NA,NA,NA,NA,NA,NA,NA,NA,NA,NA,NA,NA,NA,NA,NA,NA,NA,NA,NA,NA,0,2,2,0,1,NA,NA,NA,NA,NA
SUPAMT18178,39O5D9O87ZRUUROWD07HNYSO6YPC3E,83F8F53E-74DE-4D16-981A-B466B5739767,2023-09-28_14h35.02.867,WP_VExplicitOC_LH,2022.2.5,MacIntel,59.99520038,NA,NA,NA,NA,NA,NA,NA,NA,NA,NA,NA,NA,NA,NA,NA,NA,NA,NA,NA,NA,NA,NA,NA,NA,NA,NA,NA,NA,NA,NA,NA,NA,NA,NA,NA,NA,NA,NA,NA,NA,NA,NA,NA,NA,NA,NA,NA,NA,NA,NA,NA,NA,NA,NA,13,0,13,0,1
SUPAMT18178,39O5D9O87ZRUUROWD07HNYSO6YPC3E,83F8F53E-74DE-4D16-981A-B466B5739767,2023-09-28_14h35.02.867,WP_VExplicitOC_LH,2022.2.5,MacIntel,59.99520038,-100,3.0714,2.0091,NA,NA,NA,NA,NA,frustrated,"frustrated, not frustrated","more frustrated, less frustrated",NA,NA,NA,NA,NA,NA,NA,NA,NA,NA,NA,NA,NA,NA,NA,NA,NA,NA,NA,NA,NA,NA,NA,NA,NA,NA,NA,NA,NA,NA,NA,NA,NA,NA,NA,NA,NA,NA,0,0,0,1,1,NA,NA,NA,NA,NA
SUPAMT18178,39O5D9O87ZRUUROWD07HNYSO6YPC3E,83F8F53E-74DE-4D16-981A-B466B5739767,2023-09-28_14h35.02.867,WP_VExplicitOC_LH,2022.2.5,MacIntel,59.99520038,-96.97507249,3.9122,2.0056,NA,NA,NA,NA,NA,bored,"bored, not bored","more bored, less bored",NA,NA,NA,NA,NA,NA,NA,NA,NA,NA,NA,NA,NA,NA,NA,NA,NA,NA,NA,NA,NA,NA,NA,NA,NA,NA,NA,NA,NA,NA,NA,NA,NA,NA,NA,NA,NA,NA,0,1,1,2,1,NA,NA,NA,NA,NA
SUPAMT18178,39O5D9O87ZRUUROWD07HNYSO6YPC3E,83F8F53E-74DE-4D16-981A-B466B5739767,2023-09-28_14h35.02.867,WP_VExplicitOC_LH,2022.2.5,MacIntel,59.99520038,-100,2.6408,2.0003,NA,NA,NA,NA,NA,happy,"unhappy, happy","less happy, more happy",NA,NA,NA,NA,NA,NA,NA,NA,NA,NA,NA,NA,NA,NA,NA,NA,NA,NA,NA,NA,NA,NA,NA,NA,NA,NA,NA,NA,NA,NA,NA,NA,NA,NA,NA,NA,NA,NA,0,2,2,0,1,NA,NA,NA,NA,NA
SUPAMT18178,39O5D9O87ZRUUROWD07HNYSO6YPC3E,83F8F53E-74DE-4D16-981A-B466B5739767,2023-09-28_14h35.02.867,WP_VExplicitOC_LH,2022.2.5,MacIntel,59.99520038,NA,NA,NA,NA,NA,NA,NA,NA,NA,NA,NA,NA,NA,NA,NA,NA,NA,NA,NA,NA,NA,NA,NA,NA,NA,NA,NA,NA,NA,NA,NA,NA,NA,NA,NA,NA,NA,NA,NA,NA,NA,NA,NA,NA,NA,NA,NA,NA,NA,NA,NA,NA,NA,NA,14,0,14,0,1
SUPAMT18178,39O5D9O87ZRUUROWD07HNYSO6YPC3E,83F8F53E-74DE-4D16-981A-B466B5739767,2023-09-28_14h35.02.867,WP_VExplicitOC_LH,2022.2.5,MacIntel,59.99520038,NA,NA,NA,NA,NA,NA,NA,NA,NA,NA,NA,NA,NA,NA,NA,NA,NA,NA,NA,NA,NA,NA,NA,NA,NA,NA,NA,NA,NA,NA,NA,NA,NA,NA,NA,NA,NA,NA,NA,NA,NA,NA,NA,NA,NA,NA,NA,NA,NA,NA,NA,NA,NA,NA,NA,NA,NA,NA,NA
