participant,session,completion,date,expName,psychopyVersion,OS,frameRate,rating_all.response,rating_all.rt,rating_all.tStart,rndRat1.thisRepN,rndRat1.thisTrialN,rndRat1.thisN,rndRat1.thisIndex,rndRat1.ran,Emo,Labs,Labs2,rating_alt.response,rating_alt.rt,AltC.thisRepN,AltC.thisTrialN,AltC.thisN,AltC.thisIndex,AltC.ran,alt_choices,pic_choices,TopAlt_Choice,rndRat2.thisRepN,rndRat2.thisTrialN,rndRat2.thisN,rndRat2.thisIndex,rndRat2.ran,rndRat3.thisRepN,rndRat3.thisTrialN,rndRat3.thisN,rndRat3.thisIndex,rndRat3.ran,trials_FC_H.thisRepN,trials_FC_H.thisTrialN,trials_FC_H.thisN,trials_FC_H.thisIndex,trials_FC_H.ran,rating_alt_2.response,rating_alt_2.rt,AltC2.thisRepN,AltC2.thisTrialN,AltC2.thisN,AltC2.thisIndex,AltC2.ran,BottomAlt_Choice,rndRat4.thisRepN,rndRat4.thisTrialN,rndRat4.thisN,rndRat4.thisIndex,rndRat4.ran,rndRat5.thisRepN,rndRat5.thisTrialN,rndRat5.thisN,rndRat5.thisIndex,rndRat5.ran,trials_FC_L.thisRepN,trials_FC_L.thisTrialN,trials_FC_L.thisN,trials_FC_L.thisIndex,trials_FC_L.ran
SUPAMT14988,3VE8AYVF8SWNY0ECGJSEMLL2JWZF88,83E6CDF1-C43C-4D7B-8995-E678F9336FAE,2023-09-28_09h50.08.185,WP_VExplicitOC_HL,2022.2.5,Win32,3.2,NA,NA,NA,NA,NA,NA,NA,NA,NA,NA,NA,NA,NA,NA,NA,NA,NA,NA,NA,NA,NA,NA,NA,NA,NA,NA,NA,NA,NA,NA,NA,NA,NA,NA,NA,NA,NA,NA,NA,NA,NA,NA,NA,NA,NA,NA,NA,NA,NA,NA,NA,NA,NA,NA,NA,NA,NA,NA,NA
SUPAMT14988,3VE8AYVF8SWNY0ECGJSEMLL2JWZF88,83E6CDF1-C43C-4D7B-8995-E678F9336FAE,2023-09-28_09h50.08.185,WP_VExplicitOC_HL,2022.2.5,Win32,3.2,NA,NA,NA,NA,NA,NA,NA,NA,NA,NA,NA,NA,NA,NA,NA,NA,NA,NA,NA,NA,NA,NA,NA,NA,NA,NA,NA,NA,NA,NA,NA,NA,NA,NA,NA,NA,NA,NA,NA,NA,NA,NA,NA,NA,NA,NA,NA,NA,NA,NA,NA,NA,NA,NA,NA,NA,NA,NA,NA
SUPAMT14988,3VE8AYVF8SWNY0ECGJSEMLL2JWZF88,83E6CDF1-C43C-4D7B-8995-E678F9336FAE,2023-09-28_09h50.08.185,WP_VExplicitOC_HL,2022.2.5,Win32,3.2,NA,NA,NA,NA,NA,NA,NA,NA,NA,NA,NA,NA,NA,NA,NA,NA,NA,NA,NA,NA,NA,NA,NA,NA,NA,NA,NA,NA,NA,NA,NA,NA,NA,NA,NA,NA,NA,NA,NA,NA,NA,NA,NA,NA,NA,NA,NA,NA,NA,NA,NA,NA,NA,NA,NA,NA,NA,NA,NA
SUPAMT14988,3VE8AYVF8SWNY0ECGJSEMLL2JWZF88,83E6CDF1-C43C-4D7B-8995-E678F9336FAE,2023-09-28_09h50.08.185,WP_VExplicitOC_HL,2022.2.5,Win32,3.2,NA,NA,2.346,0,0,0,0,1,happy,"unhappy, happy","less happy, more happy",NA,NA,NA,NA,NA,NA,NA,NA,NA,NA,NA,NA,NA,NA,NA,NA,NA,NA,NA,NA,NA,NA,NA,NA,NA,NA,NA,NA,NA,NA,NA,NA,NA,NA,NA,NA,NA,NA,NA,NA,NA,NA,NA,NA,NA,NA,NA,NA
SUPAMT14988,3VE8AYVF8SWNY0ECGJSEMLL2JWZF88,83E6CDF1-C43C-4D7B-8995-E678F9336FAE,2023-09-28_09h50.08.185,WP_VExplicitOC_HL,2022.2.5,Win32,3.2,NA,NA,2.218,0,1,1,2,1,bored,"bored, not bored","more bored, less bored",NA,NA,NA,NA,NA,NA,NA,NA,NA,NA,NA,NA,NA,NA,NA,NA,NA,NA,NA,NA,NA,NA,NA,NA,NA,NA,NA,NA,NA,NA,NA,NA,NA,NA,NA,NA,NA,NA,NA,NA,NA,NA,NA,NA,NA,NA,NA,NA
SUPAMT14988,3VE8AYVF8SWNY0ECGJSEMLL2JWZF88,83E6CDF1-C43C-4D7B-8995-E678F9336FAE,2023-09-28_09h50.08.185,WP_VExplicitOC_HL,2022.2.5,Win32,3.2,NA,NA,2.208,0,2,2,1,1,frustrated,"frustrated, not frustrated","more frustrated, less frustrated",NA,NA,NA,NA,NA,NA,NA,NA,NA,NA,NA,NA,NA,NA,NA,NA,NA,NA,NA,NA,NA,NA,NA,NA,NA,NA,NA,NA,NA,NA,NA,NA,NA,NA,NA,NA,NA,NA,NA,NA,NA,NA,NA,NA,NA,NA,NA,NA
SUPAMT14988,3VE8AYVF8SWNY0ECGJSEMLL2JWZF88,83E6CDF1-C43C-4D7B-8995-E678F9336FAE,2023-09-28_09h50.08.185,WP_VExplicitOC_HL,2022.2.5,Win32,3.2,NA,NA,NA,NA,NA,NA,NA,NA,NA,NA,NA,NA,NA,NA,NA,NA,NA,NA,NA,NA,NA,NA,NA,NA,NA,NA,NA,NA,NA,NA,NA,NA,NA,NA,NA,NA,NA,NA,NA,NA,NA,NA,NA,NA,NA,NA,NA,NA,NA,NA,NA,NA,NA,NA,NA,NA,NA,NA,NA
SUPAMT14988,3VE8AYVF8SWNY0ECGJSEMLL2JWZF88,83E6CDF1-C43C-4D7B-8995-E678F9336FAE,2023-09-28_09h50.08.185,WP_VExplicitOC_HL,2022.2.5,Win32,3.2,NA,NA,NA,NA,NA,NA,NA,NA,NA,NA,NA,NA,NA,NA,NA,NA,NA,NA,NA,NA,NA,NA,NA,NA,NA,NA,NA,NA,NA,NA,NA,NA,NA,NA,NA,NA,NA,NA,NA,NA,NA,NA,NA,NA,NA,NA,NA,NA,NA,NA,NA,NA,NA,NA,NA,NA,NA,NA,NA
SUPAMT14988,3VE8AYVF8SWNY0ECGJSEMLL2JWZF88,83E6CDF1-C43C-4D7B-8995-E678F9336FAE,2023-09-28_09h50.08.185,WP_VExplicitOC_HL,2022.2.5,Win32,3.2,NA,NA,NA,NA,NA,NA,NA,NA,NA,NA,NA,NA,NA,NA,NA,NA,NA,NA,NA,NA,NA,NA,NA,NA,NA,NA,NA,NA,NA,NA,NA,NA,NA,NA,NA,NA,NA,NA,NA,NA,NA,NA,NA,NA,NA,NA,NA,NA,NA,NA,NA,NA,NA,NA,NA,NA,NA,NA,NA
SUPAMT14988,3VE8AYVF8SWNY0ECGJSEMLL2JWZF88,83E6CDF1-C43C-4D7B-8995-E678F9336FAE,2023-09-28_09h50.08.185,WP_VExplicitOC_HL,2022.2.5,Win32,3.2,NA,NA,NA,NA,NA,NA,NA,NA,NA,NA,NA,NA,NA,NA,NA,NA,NA,NA,NA,NA,NA,NA,NA,NA,NA,NA,NA,NA,NA,NA,NA,NA,NA,NA,NA,NA,NA,NA,NA,NA,NA,NA,NA,NA,NA,NA,NA,NA,NA,NA,NA,NA,NA,NA,NA,NA,NA,NA,NA
SUPAMT14988,3VE8AYVF8SWNY0ECGJSEMLL2JWZF88,83E6CDF1-C43C-4D7B-8995-E678F9336FAE,2023-09-28_09h50.08.185,WP_VExplicitOC_HL,2022.2.5,Win32,3.2,NA,NA,NA,NA,NA,NA,NA,NA,NA,NA,NA,NA,NA,0,0,0,0,1,rest (looking at a fixed cross),001.png,NA,NA,NA,NA,NA,NA,NA,NA,NA,NA,NA,NA,NA,NA,NA,NA,NA,NA,NA,NA,NA,NA,NA,NA,NA,NA,NA,NA,NA,NA,NA,NA,NA,NA,NA,NA,NA,NA,NA
SUPAMT14988,3VE8AYVF8SWNY0ECGJSEMLL2JWZF88,83E6CDF1-C43C-4D7B-8995-E678F9336FAE,2023-09-28_09h50.08.185,WP_VExplicitOC_HL,2022.2.5,Win32,3.2,NA,NA,NA,NA,NA,NA,NA,NA,NA,NA,NA,NA,NA,0,1,1,1,1,stand up,002.png,NA,NA,NA,NA,NA,NA,NA,NA,NA,NA,NA,NA,NA,NA,NA,NA,NA,NA,NA,NA,NA,NA,NA,NA,NA,NA,NA,NA,NA,NA,NA,NA,NA,NA,NA,NA,NA,NA,NA
SUPAMT14988,3VE8AYVF8SWNY0ECGJSEMLL2JWZF88,83E6CDF1-C43C-4D7B-8995-E678F9336FAE,2023-09-28_09h50.08.185,WP_VExplicitOC_HL,2022.2.5,Win32,3.2,NA,NA,NA,NA,NA,NA,NA,NA,NA,NA,NA,-41.48148148,5.079,0,2,2,2,1,stretch,003.png,NA,NA,NA,NA,NA,NA,NA,NA,NA,NA,NA,NA,NA,NA,NA,NA,NA,NA,NA,NA,NA,NA,NA,NA,NA,NA,NA,NA,NA,NA,NA,NA,NA,NA,NA,NA,NA,NA,NA
SUPAMT14988,3VE8AYVF8SWNY0ECGJSEMLL2JWZF88,83E6CDF1-C43C-4D7B-8995-E678F9336FAE,2023-09-28_09h50.08.185,WP_VExplicitOC_HL,2022.2.5,Win32,3.2,NA,NA,NA,NA,NA,NA,NA,NA,NA,NA,NA,34.62962963,1.414,0,3,3,3,1,make a drink,004.png,NA,NA,NA,NA,NA,NA,NA,NA,NA,NA,NA,NA,NA,NA,NA,NA,NA,NA,NA,NA,NA,NA,NA,NA,NA,NA,NA,NA,NA,NA,NA,NA,NA,NA,NA,NA,NA,NA,NA
SUPAMT14988,3VE8AYVF8SWNY0ECGJSEMLL2JWZF88,83E6CDF1-C43C-4D7B-8995-E678F9336FAE,2023-09-28_09h50.08.185,WP_VExplicitOC_HL,2022.2.5,Win32,3.2,NA,NA,NA,NA,NA,NA,NA,NA,NA,NA,NA,NA,NA,0,4,4,4,1,scroll social media,005.png,NA,NA,NA,NA,NA,NA,NA,NA,NA,NA,NA,NA,NA,NA,NA,NA,NA,NA,NA,NA,NA,NA,NA,NA,NA,NA,NA,NA,NA,NA,NA,NA,NA,NA,NA,NA,NA,NA,NA
SUPAMT14988,3VE8AYVF8SWNY0ECGJSEMLL2JWZF88,83E6CDF1-C43C-4D7B-8995-E678F9336FAE,2023-09-28_09h50.08.185,WP_VExplicitOC_HL,2022.2.5,Win32,3.2,NA,NA,NA,NA,NA,NA,NA,NA,NA,NA,NA,35,1.273,0,5,5,5,1,listen to music,006.png,NA,NA,NA,NA,NA,NA,NA,NA,NA,NA,NA,NA,NA,NA,NA,NA,NA,NA,NA,NA,NA,NA,NA,NA,NA,NA,NA,NA,NA,NA,NA,NA,NA,NA,NA,NA,NA,NA,NA
SUPAMT14988,3VE8AYVF8SWNY0ECGJSEMLL2JWZF88,83E6CDF1-C43C-4D7B-8995-E678F9336FAE,2023-09-28_09h50.08.185,WP_VExplicitOC_HL,2022.2.5,Win32,3.2,NA,NA,NA,NA,NA,NA,NA,NA,NA,NA,NA,100,0.373,0,6,6,6,1,daydream,007.png,NA,NA,NA,NA,NA,NA,NA,NA,NA,NA,NA,NA,NA,NA,NA,NA,NA,NA,NA,NA,NA,NA,NA,NA,NA,NA,NA,NA,NA,NA,NA,NA,NA,NA,NA,NA,NA,NA,NA
SUPAMT14988,3VE8AYVF8SWNY0ECGJSEMLL2JWZF88,83E6CDF1-C43C-4D7B-8995-E678F9336FAE,2023-09-28_09h50.08.185,WP_VExplicitOC_HL,2022.2.5,Win32,3.2,NA,NA,NA,NA,NA,NA,NA,NA,NA,NA,NA,NA,NA,0,7,7,7,1,watch a short animation,008.png,NA,NA,NA,NA,NA,NA,NA,NA,NA,NA,NA,NA,NA,NA,NA,NA,NA,NA,NA,NA,NA,NA,NA,NA,NA,NA,NA,NA,NA,NA,NA,NA,NA,NA,NA,NA,NA,NA,NA
SUPAMT14988,3VE8AYVF8SWNY0ECGJSEMLL2JWZF88,83E6CDF1-C43C-4D7B-8995-E678F9336FAE,2023-09-28_09h50.08.185,WP_VExplicitOC_HL,2022.2.5,Win32,3.2,NA,NA,NA,NA,NA,NA,NA,NA,NA,NA,NA,-100,1.905,0,8,8,8,1,read a novel,009.png,NA,NA,NA,NA,NA,NA,NA,NA,NA,NA,NA,NA,NA,NA,NA,NA,NA,NA,NA,NA,NA,NA,NA,NA,NA,NA,NA,NA,NA,NA,NA,NA,NA,NA,NA,NA,NA,NA,NA
SUPAMT14988,3VE8AYVF8SWNY0ECGJSEMLL2JWZF88,83E6CDF1-C43C-4D7B-8995-E678F9336FAE,2023-09-28_09h50.08.185,WP_VExplicitOC_HL,2022.2.5,Win32,3.2,NA,NA,NA,NA,NA,NA,NA,NA,NA,NA,NA,77.77777778,7.084,0,9,9,9,1,read the news,010.png,NA,NA,NA,NA,NA,NA,NA,NA,NA,NA,NA,NA,NA,NA,NA,NA,NA,NA,NA,NA,NA,NA,NA,NA,NA,NA,NA,NA,NA,NA,NA,NA,NA,NA,NA,NA,NA,NA,NA
SUPAMT14988,3VE8AYVF8SWNY0ECGJSEMLL2JWZF88,83E6CDF1-C43C-4D7B-8995-E678F9336FAE,2023-09-28_09h50.08.185,WP_VExplicitOC_HL,2022.2.5,Win32,3.2,NA,NA,NA,NA,NA,NA,NA,NA,NA,NA,NA,NA,NA,NA,NA,NA,NA,NA,NA,NA,NA,NA,NA,NA,NA,NA,NA,NA,NA,NA,NA,NA,NA,NA,NA,NA,NA,NA,NA,NA,NA,NA,NA,NA,NA,NA,NA,NA,NA,NA,NA,NA,NA,NA,NA,NA,NA,NA,NA
SUPAMT14988,3VE8AYVF8SWNY0ECGJSEMLL2JWZF88,83E6CDF1-C43C-4D7B-8995-E678F9336FAE,2023-09-28_09h50.08.185,WP_VExplicitOC_HL,2022.2.5,Win32,3.2,NA,NA,NA,NA,NA,NA,NA,NA,NA,NA,NA,NA,NA,NA,NA,NA,NA,NA,NA,NA,make a drink,NA,NA,NA,NA,NA,NA,NA,NA,NA,NA,NA,NA,NA,NA,NA,NA,NA,NA,NA,NA,NA,NA,NA,NA,NA,NA,NA,NA,NA,NA,NA,NA,NA,NA,NA,NA,NA,NA
SUPAMT14988,3VE8AYVF8SWNY0ECGJSEMLL2JWZF88,83E6CDF1-C43C-4D7B-8995-E678F9336FAE,2023-09-28_09h50.08.185,WP_VExplicitOC_HL,2022.2.5,Win32,3.2,NA,NA,2.137,NA,NA,NA,NA,NA,frustrated,"frustrated, not frustrated","more frustrated, less frustrated",NA,NA,NA,NA,NA,NA,NA,NA,NA,NA,0,0,0,1,1,NA,NA,NA,NA,NA,NA,NA,NA,NA,NA,NA,NA,NA,NA,NA,NA,NA,NA,NA,NA,NA,NA,NA,NA,NA,NA,NA,NA,NA,NA,NA,NA,NA
SUPAMT14988,3VE8AYVF8SWNY0ECGJSEMLL2JWZF88,83E6CDF1-C43C-4D7B-8995-E678F9336FAE,2023-09-28_09h50.08.185,WP_VExplicitOC_HL,2022.2.5,Win32,3.2,100,6.415,2.255,NA,NA,NA,NA,NA,bored,"bored, not bored","more bored, less bored",NA,NA,NA,NA,NA,NA,NA,NA,NA,NA,0,1,1,2,1,NA,NA,NA,NA,NA,NA,NA,NA,NA,NA,NA,NA,NA,NA,NA,NA,NA,NA,NA,NA,NA,NA,NA,NA,NA,NA,NA,NA,NA,NA,NA,NA,NA
SUPAMT14988,3VE8AYVF8SWNY0ECGJSEMLL2JWZF88,83E6CDF1-C43C-4D7B-8995-E678F9336FAE,2023-09-28_09h50.08.185,WP_VExplicitOC_HL,2022.2.5,Win32,3.2,97.40740741,6.227,2.22,NA,NA,NA,NA,NA,happy,"unhappy, happy","less happy, more happy",NA,NA,NA,NA,NA,NA,NA,NA,NA,NA,0,2,2,0,1,NA,NA,NA,NA,NA,NA,NA,NA,NA,NA,NA,NA,NA,NA,NA,NA,NA,NA,NA,NA,NA,NA,NA,NA,NA,NA,NA,NA,NA,NA,NA,NA,NA
SUPAMT14988,3VE8AYVF8SWNY0ECGJSEMLL2JWZF88,83E6CDF1-C43C-4D7B-8995-E678F9336FAE,2023-09-28_09h50.08.185,WP_VExplicitOC_HL,2022.2.5,Win32,3.2,NA,NA,NA,NA,NA,NA,NA,NA,NA,NA,NA,NA,NA,NA,NA,NA,NA,NA,NA,NA,NA,NA,NA,NA,NA,NA,NA,NA,NA,NA,NA,NA,NA,NA,NA,NA,NA,NA,NA,NA,NA,NA,NA,NA,NA,NA,NA,NA,NA,NA,NA,NA,NA,NA,NA,NA,NA,NA,NA
SUPAMT14988,3VE8AYVF8SWNY0ECGJSEMLL2JWZF88,83E6CDF1-C43C-4D7B-8995-E678F9336FAE,2023-09-28_09h50.08.185,WP_VExplicitOC_HL,2022.2.5,Win32,3.2,NA,NA,NA,NA,NA,NA,NA,NA,NA,NA,NA,NA,NA,NA,NA,NA,NA,NA,NA,NA,NA,NA,NA,NA,NA,NA,NA,NA,NA,NA,NA,NA,NA,NA,NA,NA,NA,NA,NA,NA,NA,NA,NA,NA,NA,NA,NA,NA,NA,NA,NA,NA,NA,NA,NA,NA,NA,NA,NA
SUPAMT14988,3VE8AYVF8SWNY0ECGJSEMLL2JWZF88,83E6CDF1-C43C-4D7B-8995-E678F9336FAE,2023-09-28_09h50.08.185,WP_VExplicitOC_HL,2022.2.5,Win32,3.2,NA,NA,2.236,NA,NA,NA,NA,NA,happy,"unhappy, happy","less happy, more happy",NA,NA,NA,NA,NA,NA,NA,NA,NA,NA,NA,NA,NA,NA,NA,0,0,0,0,1,NA,NA,NA,NA,NA,NA,NA,NA,NA,NA,NA,NA,NA,NA,NA,NA,NA,NA,NA,NA,NA,NA,NA,NA,NA,NA,NA,NA
SUPAMT14988,3VE8AYVF8SWNY0ECGJSEMLL2JWZF88,83E6CDF1-C43C-4D7B-8995-E678F9336FAE,2023-09-28_09h50.08.185,WP_VExplicitOC_HL,2022.2.5,Win32,3.2,100,4.641,2.022,NA,NA,NA,NA,NA,bored,"bored, not bored","more bored, less bored",NA,NA,NA,NA,NA,NA,NA,NA,NA,NA,NA,NA,NA,NA,NA,0,1,1,2,1,NA,NA,NA,NA,NA,NA,NA,NA,NA,NA,NA,NA,NA,NA,NA,NA,NA,NA,NA,NA,NA,NA,NA,NA,NA,NA,NA,NA
SUPAMT14988,3VE8AYVF8SWNY0ECGJSEMLL2JWZF88,83E6CDF1-C43C-4D7B-8995-E678F9336FAE,2023-09-28_09h50.08.185,WP_VExplicitOC_HL,2022.2.5,Win32,3.2,98.88888889,6.535,2.161,NA,NA,NA,NA,NA,frustrated,"frustrated, not frustrated","more frustrated, less frustrated",NA,NA,NA,NA,NA,NA,NA,NA,NA,NA,NA,NA,NA,NA,NA,0,2,2,1,1,NA,NA,NA,NA,NA,NA,NA,NA,NA,NA,NA,NA,NA,NA,NA,NA,NA,NA,NA,NA,NA,NA,NA,NA,NA,NA,NA,NA
SUPAMT14988,3VE8AYVF8SWNY0ECGJSEMLL2JWZF88,83E6CDF1-C43C-4D7B-8995-E678F9336FAE,2023-09-28_09h50.08.185,WP_VExplicitOC_HL,2022.2.5,Win32,3.2,NA,NA,NA,NA,NA,NA,NA,NA,NA,NA,NA,NA,NA,NA,NA,NA,NA,NA,NA,NA,NA,NA,NA,NA,NA,NA,NA,NA,NA,NA,NA,0,0,0,0,1,NA,NA,NA,NA,NA,NA,NA,NA,NA,NA,NA,NA,NA,NA,NA,NA,NA,NA,NA,NA,NA,NA,NA
SUPAMT14988,3VE8AYVF8SWNY0ECGJSEMLL2JWZF88,83E6CDF1-C43C-4D7B-8995-E678F9336FAE,2023-09-28_09h50.08.185,WP_VExplicitOC_HL,2022.2.5,Win32,3.2,-1.296296296,6.892,2.438,NA,NA,NA,NA,NA,frustrated,"frustrated, not frustrated","more frustrated, less frustrated",NA,NA,NA,NA,NA,NA,NA,NA,NA,NA,NA,NA,NA,NA,NA,0,0,0,1,1,NA,NA,NA,NA,NA,NA,NA,NA,NA,NA,NA,NA,NA,NA,NA,NA,NA,NA,NA,NA,NA,NA,NA,NA,NA,NA,NA,NA
SUPAMT14988,3VE8AYVF8SWNY0ECGJSEMLL2JWZF88,83E6CDF1-C43C-4D7B-8995-E678F9336FAE,2023-09-28_09h50.08.185,WP_VExplicitOC_HL,2022.2.5,Win32,3.2,88.14814815,6.972,2.349,NA,NA,NA,NA,NA,bored,"bored, not bored","more bored, less bored",NA,NA,NA,NA,NA,NA,NA,NA,NA,NA,NA,NA,NA,NA,NA,0,1,1,2,1,NA,NA,NA,NA,NA,NA,NA,NA,NA,NA,NA,NA,NA,NA,NA,NA,NA,NA,NA,NA,NA,NA,NA,NA,NA,NA,NA,NA
SUPAMT14988,3VE8AYVF8SWNY0ECGJSEMLL2JWZF88,83E6CDF1-C43C-4D7B-8995-E678F9336FAE,2023-09-28_09h50.08.185,WP_VExplicitOC_HL,2022.2.5,Win32,3.2,98.51851852,4.874,2.17,NA,NA,NA,NA,NA,happy,"unhappy, happy","less happy, more happy",NA,NA,NA,NA,NA,NA,NA,NA,NA,NA,NA,NA,NA,NA,NA,0,2,2,0,1,NA,NA,NA,NA,NA,NA,NA,NA,NA,NA,NA,NA,NA,NA,NA,NA,NA,NA,NA,NA,NA,NA,NA,NA,NA,NA,NA,NA
SUPAMT14988,3VE8AYVF8SWNY0ECGJSEMLL2JWZF88,83E6CDF1-C43C-4D7B-8995-E678F9336FAE,2023-09-28_09h50.08.185,WP_VExplicitOC_HL,2022.2.5,Win32,3.2,NA,NA,NA,NA,NA,NA,NA,NA,NA,NA,NA,NA,NA,NA,NA,NA,NA,NA,NA,NA,NA,NA,NA,NA,NA,NA,NA,NA,NA,NA,NA,1,0,1,0,1,NA,NA,NA,NA,NA,NA,NA,NA,NA,NA,NA,NA,NA,NA,NA,NA,NA,NA,NA,NA,NA,NA,NA
SUPAMT14988,3VE8AYVF8SWNY0ECGJSEMLL2JWZF88,83E6CDF1-C43C-4D7B-8995-E678F9336FAE,2023-09-28_09h50.08.185,WP_VExplicitOC_HL,2022.2.5,Win32,3.2,NA,NA,2.272,NA,NA,NA,NA,NA,frustrated,"frustrated, not frustrated","more frustrated, less frustrated",NA,NA,NA,NA,NA,NA,NA,NA,NA,NA,NA,NA,NA,NA,NA,0,0,0,1,1,NA,NA,NA,NA,NA,NA,NA,NA,NA,NA,NA,NA,NA,NA,NA,NA,NA,NA,NA,NA,NA,NA,NA,NA,NA,NA,NA,NA
SUPAMT14988,3VE8AYVF8SWNY0ECGJSEMLL2JWZF88,83E6CDF1-C43C-4D7B-8995-E678F9336FAE,2023-09-28_09h50.08.185,WP_VExplicitOC_HL,2022.2.5,Win32,3.2,88.7037037,7.522,2.261,NA,NA,NA,NA,NA,happy,"unhappy, happy","less happy, more happy",NA,NA,NA,NA,NA,NA,NA,NA,NA,NA,NA,NA,NA,NA,NA,0,1,1,0,1,NA,NA,NA,NA,NA,NA,NA,NA,NA,NA,NA,NA,NA,NA,NA,NA,NA,NA,NA,NA,NA,NA,NA,NA,NA,NA,NA,NA
SUPAMT14988,3VE8AYVF8SWNY0ECGJSEMLL2JWZF88,83E6CDF1-C43C-4D7B-8995-E678F9336FAE,2023-09-28_09h50.08.185,WP_VExplicitOC_HL,2022.2.5,Win32,3.2,90.18518519,6.835,2.067,NA,NA,NA,NA,NA,bored,"bored, not bored","more bored, less bored",NA,NA,NA,NA,NA,NA,NA,NA,NA,NA,NA,NA,NA,NA,NA,0,2,2,2,1,NA,NA,NA,NA,NA,NA,NA,NA,NA,NA,NA,NA,NA,NA,NA,NA,NA,NA,NA,NA,NA,NA,NA,NA,NA,NA,NA,NA
SUPAMT14988,3VE8AYVF8SWNY0ECGJSEMLL2JWZF88,83E6CDF1-C43C-4D7B-8995-E678F9336FAE,2023-09-28_09h50.08.185,WP_VExplicitOC_HL,2022.2.5,Win32,3.2,NA,NA,NA,NA,NA,NA,NA,NA,NA,NA,NA,NA,NA,NA,NA,NA,NA,NA,NA,NA,NA,NA,NA,NA,NA,NA,NA,NA,NA,NA,NA,2,0,2,0,1,NA,NA,NA,NA,NA,NA,NA,NA,NA,NA,NA,NA,NA,NA,NA,NA,NA,NA,NA,NA,NA,NA,NA
SUPAMT14988,3VE8AYVF8SWNY0ECGJSEMLL2JWZF88,83E6CDF1-C43C-4D7B-8995-E678F9336FAE,2023-09-28_09h50.08.185,WP_VExplicitOC_HL,2022.2.5,Win32,3.2,98.7037037,5.267,2.293,NA,NA,NA,NA,NA,happy,"unhappy, happy","less happy, more happy",NA,NA,NA,NA,NA,NA,NA,NA,NA,NA,NA,NA,NA,NA,NA,0,0,0,0,1,NA,NA,NA,NA,NA,NA,NA,NA,NA,NA,NA,NA,NA,NA,NA,NA,NA,NA,NA,NA,NA,NA,NA,NA,NA,NA,NA,NA
SUPAMT14988,3VE8AYVF8SWNY0ECGJSEMLL2JWZF88,83E6CDF1-C43C-4D7B-8995-E678F9336FAE,2023-09-28_09h50.08.185,WP_VExplicitOC_HL,2022.2.5,Win32,3.2,96.85185185,6.827,2.082,NA,NA,NA,NA,NA,frustrated,"frustrated, not frustrated","more frustrated, less frustrated",NA,NA,NA,NA,NA,NA,NA,NA,NA,NA,NA,NA,NA,NA,NA,0,1,1,1,1,NA,NA,NA,NA,NA,NA,NA,NA,NA,NA,NA,NA,NA,NA,NA,NA,NA,NA,NA,NA,NA,NA,NA,NA,NA,NA,NA,NA
SUPAMT14988,3VE8AYVF8SWNY0ECGJSEMLL2JWZF88,83E6CDF1-C43C-4D7B-8995-E678F9336FAE,2023-09-28_09h50.08.185,WP_VExplicitOC_HL,2022.2.5,Win32,3.2,NA,NA,2.062,NA,NA,NA,NA,NA,bored,"bored, not bored","more bored, less bored",NA,NA,NA,NA,NA,NA,NA,NA,NA,NA,NA,NA,NA,NA,NA,0,2,2,2,1,NA,NA,NA,NA,NA,NA,NA,NA,NA,NA,NA,NA,NA,NA,NA,NA,NA,NA,NA,NA,NA,NA,NA,NA,NA,NA,NA,NA
SUPAMT14988,3VE8AYVF8SWNY0ECGJSEMLL2JWZF88,83E6CDF1-C43C-4D7B-8995-E678F9336FAE,2023-09-28_09h50.08.185,WP_VExplicitOC_HL,2022.2.5,Win32,3.2,NA,NA,NA,NA,NA,NA,NA,NA,NA,NA,NA,NA,NA,NA,NA,NA,NA,NA,NA,NA,NA,NA,NA,NA,NA,NA,NA,NA,NA,NA,NA,3,0,3,0,1,NA,NA,NA,NA,NA,NA,NA,NA,NA,NA,NA,NA,NA,NA,NA,NA,NA,NA,NA,NA,NA,NA,NA
SUPAMT14988,3VE8AYVF8SWNY0ECGJSEMLL2JWZF88,83E6CDF1-C43C-4D7B-8995-E678F9336FAE,2023-09-28_09h50.08.185,WP_VExplicitOC_HL,2022.2.5,Win32,3.2,95.74074074,5.701,2.211,NA,NA,NA,NA,NA,frustrated,"frustrated, not frustrated","more frustrated, less frustrated",NA,NA,NA,NA,NA,NA,NA,NA,NA,NA,NA,NA,NA,NA,NA,0,0,0,1,1,NA,NA,NA,NA,NA,NA,NA,NA,NA,NA,NA,NA,NA,NA,NA,NA,NA,NA,NA,NA,NA,NA,NA,NA,NA,NA,NA,NA
SUPAMT14988,3VE8AYVF8SWNY0ECGJSEMLL2JWZF88,83E6CDF1-C43C-4D7B-8995-E678F9336FAE,2023-09-28_09h50.08.185,WP_VExplicitOC_HL,2022.2.5,Win32,3.2,NA,NA,2.131,NA,NA,NA,NA,NA,happy,"unhappy, happy","less happy, more happy",NA,NA,NA,NA,NA,NA,NA,NA,NA,NA,NA,NA,NA,NA,NA,0,1,1,0,1,NA,NA,NA,NA,NA,NA,NA,NA,NA,NA,NA,NA,NA,NA,NA,NA,NA,NA,NA,NA,NA,NA,NA,NA,NA,NA,NA,NA
SUPAMT14988,3VE8AYVF8SWNY0ECGJSEMLL2JWZF88,83E6CDF1-C43C-4D7B-8995-E678F9336FAE,2023-09-28_09h50.08.185,WP_VExplicitOC_HL,2022.2.5,Win32,3.2,100,3.409,2.099,NA,NA,NA,NA,NA,bored,"bored, not bored","more bored, less bored",NA,NA,NA,NA,NA,NA,NA,NA,NA,NA,NA,NA,NA,NA,NA,0,2,2,2,1,NA,NA,NA,NA,NA,NA,NA,NA,NA,NA,NA,NA,NA,NA,NA,NA,NA,NA,NA,NA,NA,NA,NA,NA,NA,NA,NA,NA
SUPAMT14988,3VE8AYVF8SWNY0ECGJSEMLL2JWZF88,83E6CDF1-C43C-4D7B-8995-E678F9336FAE,2023-09-28_09h50.08.185,WP_VExplicitOC_HL,2022.2.5,Win32,3.2,NA,NA,NA,NA,NA,NA,NA,NA,NA,NA,NA,NA,NA,NA,NA,NA,NA,NA,NA,NA,NA,NA,NA,NA,NA,NA,NA,NA,NA,NA,NA,4,0,4,0,1,NA,NA,NA,NA,NA,NA,NA,NA,NA,NA,NA,NA,NA,NA,NA,NA,NA,NA,NA,NA,NA,NA,NA
SUPAMT14988,3VE8AYVF8SWNY0ECGJSEMLL2JWZF88,83E6CDF1-C43C-4D7B-8995-E678F9336FAE,2023-09-28_09h50.08.185,WP_VExplicitOC_HL,2022.2.5,Win32,3.2,NA,NA,5.029,NA,NA,NA,NA,NA,bored,"bored, not bored","more bored, less bored",NA,NA,NA,NA,NA,NA,NA,NA,NA,NA,NA,NA,NA,NA,NA,0,0,0,2,1,NA,NA,NA,NA,NA,NA,NA,NA,NA,NA,NA,NA,NA,NA,NA,NA,NA,NA,NA,NA,NA,NA,NA,NA,NA,NA,NA,NA
SUPAMT14988,3VE8AYVF8SWNY0ECGJSEMLL2JWZF88,83E6CDF1-C43C-4D7B-8995-E678F9336FAE,2023-09-28_09h50.08.185,WP_VExplicitOC_HL,2022.2.5,Win32,3.2,NA,NA,2.146,NA,NA,NA,NA,NA,frustrated,"frustrated, not frustrated","more frustrated, less frustrated",NA,NA,NA,NA,NA,NA,NA,NA,NA,NA,NA,NA,NA,NA,NA,0,1,1,1,1,NA,NA,NA,NA,NA,NA,NA,NA,NA,NA,NA,NA,NA,NA,NA,NA,NA,NA,NA,NA,NA,NA,NA,NA,NA,NA,NA,NA
SUPAMT14988,3VE8AYVF8SWNY0ECGJSEMLL2JWZF88,83E6CDF1-C43C-4D7B-8995-E678F9336FAE,2023-09-28_09h50.08.185,WP_VExplicitOC_HL,2022.2.5,Win32,3.2,NA,NA,2.162,NA,NA,NA,NA,NA,happy,"unhappy, happy","less happy, more happy",NA,NA,NA,NA,NA,NA,NA,NA,NA,NA,NA,NA,NA,NA,NA,0,2,2,0,1,NA,NA,NA,NA,NA,NA,NA,NA,NA,NA,NA,NA,NA,NA,NA,NA,NA,NA,NA,NA,NA,NA,NA,NA,NA,NA,NA,NA
SUPAMT14988,3VE8AYVF8SWNY0ECGJSEMLL2JWZF88,83E6CDF1-C43C-4D7B-8995-E678F9336FAE,2023-09-28_09h50.08.185,WP_VExplicitOC_HL,2022.2.5,Win32,3.2,NA,NA,NA,NA,NA,NA,NA,NA,NA,NA,NA,NA,NA,NA,NA,NA,NA,NA,NA,NA,NA,NA,NA,NA,NA,NA,NA,NA,NA,NA,NA,5,0,5,0,1,NA,NA,NA,NA,NA,NA,NA,NA,NA,NA,NA,NA,NA,NA,NA,NA,NA,NA,NA,NA,NA,NA,NA
SUPAMT14988,3VE8AYVF8SWNY0ECGJSEMLL2JWZF88,83E6CDF1-C43C-4D7B-8995-E678F9336FAE,2023-09-28_09h50.08.185,WP_VExplicitOC_HL,2022.2.5,Win32,3.2,NA,NA,2.077,NA,NA,NA,NA,NA,frustrated,"frustrated, not frustrated","more frustrated, less frustrated",NA,NA,NA,NA,NA,NA,NA,NA,NA,NA,NA,NA,NA,NA,NA,0,0,0,1,1,NA,NA,NA,NA,NA,NA,NA,NA,NA,NA,NA,NA,NA,NA,NA,NA,NA,NA,NA,NA,NA,NA,NA,NA,NA,NA,NA,NA
SUPAMT14988,3VE8AYVF8SWNY0ECGJSEMLL2JWZF88,83E6CDF1-C43C-4D7B-8995-E678F9336FAE,2023-09-28_09h50.08.185,WP_VExplicitOC_HL,2022.2.5,Win32,3.2,NA,NA,2.169,NA,NA,NA,NA,NA,happy,"unhappy, happy","less happy, more happy",NA,NA,NA,NA,NA,NA,NA,NA,NA,NA,NA,NA,NA,NA,NA,0,1,1,0,1,NA,NA,NA,NA,NA,NA,NA,NA,NA,NA,NA,NA,NA,NA,NA,NA,NA,NA,NA,NA,NA,NA,NA,NA,NA,NA,NA,NA
SUPAMT14988,3VE8AYVF8SWNY0ECGJSEMLL2JWZF88,83E6CDF1-C43C-4D7B-8995-E678F9336FAE,2023-09-28_09h50.08.185,WP_VExplicitOC_HL,2022.2.5,Win32,3.2,100,6.008,2.233,NA,NA,NA,NA,NA,bored,"bored, not bored","more bored, less bored",NA,NA,NA,NA,NA,NA,NA,NA,NA,NA,NA,NA,NA,NA,NA,0,2,2,2,1,NA,NA,NA,NA,NA,NA,NA,NA,NA,NA,NA,NA,NA,NA,NA,NA,NA,NA,NA,NA,NA,NA,NA,NA,NA,NA,NA,NA
SUPAMT14988,3VE8AYVF8SWNY0ECGJSEMLL2JWZF88,83E6CDF1-C43C-4D7B-8995-E678F9336FAE,2023-09-28_09h50.08.185,WP_VExplicitOC_HL,2022.2.5,Win32,3.2,NA,NA,NA,NA,NA,NA,NA,NA,NA,NA,NA,NA,NA,NA,NA,NA,NA,NA,NA,NA,NA,NA,NA,NA,NA,NA,NA,NA,NA,NA,NA,6,0,6,0,1,NA,NA,NA,NA,NA,NA,NA,NA,NA,NA,NA,NA,NA,NA,NA,NA,NA,NA,NA,NA,NA,NA,NA
SUPAMT14988,3VE8AYVF8SWNY0ECGJSEMLL2JWZF88,83E6CDF1-C43C-4D7B-8995-E678F9336FAE,2023-09-28_09h50.08.185,WP_VExplicitOC_HL,2022.2.5,Win32,3.2,NA,NA,2.202,NA,NA,NA,NA,NA,frustrated,"frustrated, not frustrated","more frustrated, less frustrated",NA,NA,NA,NA,NA,NA,NA,NA,NA,NA,NA,NA,NA,NA,NA,0,0,0,1,1,NA,NA,NA,NA,NA,NA,NA,NA,NA,NA,NA,NA,NA,NA,NA,NA,NA,NA,NA,NA,NA,NA,NA,NA,NA,NA,NA,NA
SUPAMT14988,3VE8AYVF8SWNY0ECGJSEMLL2JWZF88,83E6CDF1-C43C-4D7B-8995-E678F9336FAE,2023-09-28_09h50.08.185,WP_VExplicitOC_HL,2022.2.5,Win32,3.2,97.59259259,3.536,2.269,NA,NA,NA,NA,NA,bored,"bored, not bored","more bored, less bored",NA,NA,NA,NA,NA,NA,NA,NA,NA,NA,NA,NA,NA,NA,NA,0,1,1,2,1,NA,NA,NA,NA,NA,NA,NA,NA,NA,NA,NA,NA,NA,NA,NA,NA,NA,NA,NA,NA,NA,NA,NA,NA,NA,NA,NA,NA
SUPAMT14988,3VE8AYVF8SWNY0ECGJSEMLL2JWZF88,83E6CDF1-C43C-4D7B-8995-E678F9336FAE,2023-09-28_09h50.08.185,WP_VExplicitOC_HL,2022.2.5,Win32,3.2,89.81481481,7.359,2.149,NA,NA,NA,NA,NA,happy,"unhappy, happy","less happy, more happy",NA,NA,NA,NA,NA,NA,NA,NA,NA,NA,NA,NA,NA,NA,NA,0,2,2,0,1,NA,NA,NA,NA,NA,NA,NA,NA,NA,NA,NA,NA,NA,NA,NA,NA,NA,NA,NA,NA,NA,NA,NA,NA,NA,NA,NA,NA
SUPAMT14988,3VE8AYVF8SWNY0ECGJSEMLL2JWZF88,83E6CDF1-C43C-4D7B-8995-E678F9336FAE,2023-09-28_09h50.08.185,WP_VExplicitOC_HL,2022.2.5,Win32,3.2,NA,NA,NA,NA,NA,NA,NA,NA,NA,NA,NA,NA,NA,NA,NA,NA,NA,NA,NA,NA,NA,NA,NA,NA,NA,NA,NA,NA,NA,NA,NA,7,0,7,0,1,NA,NA,NA,NA,NA,NA,NA,NA,NA,NA,NA,NA,NA,NA,NA,NA,NA,NA,NA,NA,NA,NA,NA
SUPAMT14988,3VE8AYVF8SWNY0ECGJSEMLL2JWZF88,83E6CDF1-C43C-4D7B-8995-E678F9336FAE,2023-09-28_09h50.08.185,WP_VExplicitOC_HL,2022.2.5,Win32,3.2,NA,NA,2.07,NA,NA,NA,NA,NA,frustrated,"frustrated, not frustrated","more frustrated, less frustrated",NA,NA,NA,NA,NA,NA,NA,NA,NA,NA,NA,NA,NA,NA,NA,0,0,0,1,1,NA,NA,NA,NA,NA,NA,NA,NA,NA,NA,NA,NA,NA,NA,NA,NA,NA,NA,NA,NA,NA,NA,NA,NA,NA,NA,NA,NA
SUPAMT14988,3VE8AYVF8SWNY0ECGJSEMLL2JWZF88,83E6CDF1-C43C-4D7B-8995-E678F9336FAE,2023-09-28_09h50.08.185,WP_VExplicitOC_HL,2022.2.5,Win32,3.2,87.03703704,3.872,2.248,NA,NA,NA,NA,NA,bored,"bored, not bored","more bored, less bored",NA,NA,NA,NA,NA,NA,NA,NA,NA,NA,NA,NA,NA,NA,NA,0,1,1,2,1,NA,NA,NA,NA,NA,NA,NA,NA,NA,NA,NA,NA,NA,NA,NA,NA,NA,NA,NA,NA,NA,NA,NA,NA,NA,NA,NA,NA
SUPAMT14988,3VE8AYVF8SWNY0ECGJSEMLL2JWZF88,83E6CDF1-C43C-4D7B-8995-E678F9336FAE,2023-09-28_09h50.08.185,WP_VExplicitOC_HL,2022.2.5,Win32,3.2,100,6.987,2.226,NA,NA,NA,NA,NA,happy,"unhappy, happy","less happy, more happy",NA,NA,NA,NA,NA,NA,NA,NA,NA,NA,NA,NA,NA,NA,NA,0,2,2,0,1,NA,NA,NA,NA,NA,NA,NA,NA,NA,NA,NA,NA,NA,NA,NA,NA,NA,NA,NA,NA,NA,NA,NA,NA,NA,NA,NA,NA
SUPAMT14988,3VE8AYVF8SWNY0ECGJSEMLL2JWZF88,83E6CDF1-C43C-4D7B-8995-E678F9336FAE,2023-09-28_09h50.08.185,WP_VExplicitOC_HL,2022.2.5,Win32,3.2,NA,NA,NA,NA,NA,NA,NA,NA,NA,NA,NA,NA,NA,NA,NA,NA,NA,NA,NA,NA,NA,NA,NA,NA,NA,NA,NA,NA,NA,NA,NA,8,0,8,0,1,NA,NA,NA,NA,NA,NA,NA,NA,NA,NA,NA,NA,NA,NA,NA,NA,NA,NA,NA,NA,NA,NA,NA
SUPAMT14988,3VE8AYVF8SWNY0ECGJSEMLL2JWZF88,83E6CDF1-C43C-4D7B-8995-E678F9336FAE,2023-09-28_09h50.08.185,WP_VExplicitOC_HL,2022.2.5,Win32,3.2,NA,NA,2.211,NA,NA,NA,NA,NA,frustrated,"frustrated, not frustrated","more frustrated, less frustrated",NA,NA,NA,NA,NA,NA,NA,NA,NA,NA,NA,NA,NA,NA,NA,0,0,0,1,1,NA,NA,NA,NA,NA,NA,NA,NA,NA,NA,NA,NA,NA,NA,NA,NA,NA,NA,NA,NA,NA,NA,NA,NA,NA,NA,NA,NA
SUPAMT14988,3VE8AYVF8SWNY0ECGJSEMLL2JWZF88,83E6CDF1-C43C-4D7B-8995-E678F9336FAE,2023-09-28_09h50.08.185,WP_VExplicitOC_HL,2022.2.5,Win32,3.2,100,4.43,2.076,NA,NA,NA,NA,NA,bored,"bored, not bored","more bored, less bored",NA,NA,NA,NA,NA,NA,NA,NA,NA,NA,NA,NA,NA,NA,NA,0,1,1,2,1,NA,NA,NA,NA,NA,NA,NA,NA,NA,NA,NA,NA,NA,NA,NA,NA,NA,NA,NA,NA,NA,NA,NA,NA,NA,NA,NA,NA
SUPAMT14988,3VE8AYVF8SWNY0ECGJSEMLL2JWZF88,83E6CDF1-C43C-4D7B-8995-E678F9336FAE,2023-09-28_09h50.08.185,WP_VExplicitOC_HL,2022.2.5,Win32,3.2,NA,NA,2.084,NA,NA,NA,NA,NA,happy,"unhappy, happy","less happy, more happy",NA,NA,NA,NA,NA,NA,NA,NA,NA,NA,NA,NA,NA,NA,NA,0,2,2,0,1,NA,NA,NA,NA,NA,NA,NA,NA,NA,NA,NA,NA,NA,NA,NA,NA,NA,NA,NA,NA,NA,NA,NA,NA,NA,NA,NA,NA
SUPAMT14988,3VE8AYVF8SWNY0ECGJSEMLL2JWZF88,83E6CDF1-C43C-4D7B-8995-E678F9336FAE,2023-09-28_09h50.08.185,WP_VExplicitOC_HL,2022.2.5,Win32,3.2,NA,NA,NA,NA,NA,NA,NA,NA,NA,NA,NA,NA,NA,NA,NA,NA,NA,NA,NA,NA,NA,NA,NA,NA,NA,NA,NA,NA,NA,NA,NA,9,0,9,0,1,NA,NA,NA,NA,NA,NA,NA,NA,NA,NA,NA,NA,NA,NA,NA,NA,NA,NA,NA,NA,NA,NA,NA
SUPAMT14988,3VE8AYVF8SWNY0ECGJSEMLL2JWZF88,83E6CDF1-C43C-4D7B-8995-E678F9336FAE,2023-09-28_09h50.08.185,WP_VExplicitOC_HL,2022.2.5,Win32,3.2,NA,NA,2.26,NA,NA,NA,NA,NA,bored,"bored, not bored","more bored, less bored",NA,NA,NA,NA,NA,NA,NA,NA,NA,NA,NA,NA,NA,NA,NA,0,0,0,2,1,NA,NA,NA,NA,NA,NA,NA,NA,NA,NA,NA,NA,NA,NA,NA,NA,NA,NA,NA,NA,NA,NA,NA,NA,NA,NA,NA,NA
SUPAMT14988,3VE8AYVF8SWNY0ECGJSEMLL2JWZF88,83E6CDF1-C43C-4D7B-8995-E678F9336FAE,2023-09-28_09h50.08.185,WP_VExplicitOC_HL,2022.2.5,Win32,3.2,NA,NA,2.175,NA,NA,NA,NA,NA,frustrated,"frustrated, not frustrated","more frustrated, less frustrated",NA,NA,NA,NA,NA,NA,NA,NA,NA,NA,NA,NA,NA,NA,NA,0,1,1,1,1,NA,NA,NA,NA,NA,NA,NA,NA,NA,NA,NA,NA,NA,NA,NA,NA,NA,NA,NA,NA,NA,NA,NA,NA,NA,NA,NA,NA
SUPAMT14988,3VE8AYVF8SWNY0ECGJSEMLL2JWZF88,83E6CDF1-C43C-4D7B-8995-E678F9336FAE,2023-09-28_09h50.08.185,WP_VExplicitOC_HL,2022.2.5,Win32,3.2,100,2.413,2.05,NA,NA,NA,NA,NA,happy,"unhappy, happy","less happy, more happy",NA,NA,NA,NA,NA,NA,NA,NA,NA,NA,NA,NA,NA,NA,NA,0,2,2,0,1,NA,NA,NA,NA,NA,NA,NA,NA,NA,NA,NA,NA,NA,NA,NA,NA,NA,NA,NA,NA,NA,NA,NA,NA,NA,NA,NA,NA
SUPAMT14988,3VE8AYVF8SWNY0ECGJSEMLL2JWZF88,83E6CDF1-C43C-4D7B-8995-E678F9336FAE,2023-09-28_09h50.08.185,WP_VExplicitOC_HL,2022.2.5,Win32,3.2,NA,NA,NA,NA,NA,NA,NA,NA,NA,NA,NA,NA,NA,NA,NA,NA,NA,NA,NA,NA,NA,NA,NA,NA,NA,NA,NA,NA,NA,NA,NA,10,0,10,0,1,NA,NA,NA,NA,NA,NA,NA,NA,NA,NA,NA,NA,NA,NA,NA,NA,NA,NA,NA,NA,NA,NA,NA
SUPAMT14988,3VE8AYVF8SWNY0ECGJSEMLL2JWZF88,83E6CDF1-C43C-4D7B-8995-E678F9336FAE,2023-09-28_09h50.08.185,WP_VExplicitOC_HL,2022.2.5,Win32,3.2,NA,NA,2.185,NA,NA,NA,NA,NA,bored,"bored, not bored","more bored, less bored",NA,NA,NA,NA,NA,NA,NA,NA,NA,NA,NA,NA,NA,NA,NA,0,0,0,2,1,NA,NA,NA,NA,NA,NA,NA,NA,NA,NA,NA,NA,NA,NA,NA,NA,NA,NA,NA,NA,NA,NA,NA,NA,NA,NA,NA,NA
SUPAMT14988,3VE8AYVF8SWNY0ECGJSEMLL2JWZF88,83E6CDF1-C43C-4D7B-8995-E678F9336FAE,2023-09-28_09h50.08.185,WP_VExplicitOC_HL,2022.2.5,Win32,3.2,NA,NA,2.241,NA,NA,NA,NA,NA,happy,"unhappy, happy","less happy, more happy",NA,NA,NA,NA,NA,NA,NA,NA,NA,NA,NA,NA,NA,NA,NA,0,1,1,0,1,NA,NA,NA,NA,NA,NA,NA,NA,NA,NA,NA,NA,NA,NA,NA,NA,NA,NA,NA,NA,NA,NA,NA,NA,NA,NA,NA,NA
SUPAMT14988,3VE8AYVF8SWNY0ECGJSEMLL2JWZF88,83E6CDF1-C43C-4D7B-8995-E678F9336FAE,2023-09-28_09h50.08.185,WP_VExplicitOC_HL,2022.2.5,Win32,3.2,NA,NA,2.275,NA,NA,NA,NA,NA,frustrated,"frustrated, not frustrated","more frustrated, less frustrated",NA,NA,NA,NA,NA,NA,NA,NA,NA,NA,NA,NA,NA,NA,NA,0,2,2,1,1,NA,NA,NA,NA,NA,NA,NA,NA,NA,NA,NA,NA,NA,NA,NA,NA,NA,NA,NA,NA,NA,NA,NA,NA,NA,NA,NA,NA
SUPAMT14988,3VE8AYVF8SWNY0ECGJSEMLL2JWZF88,83E6CDF1-C43C-4D7B-8995-E678F9336FAE,2023-09-28_09h50.08.185,WP_VExplicitOC_HL,2022.2.5,Win32,3.2,NA,NA,NA,NA,NA,NA,NA,NA,NA,NA,NA,NA,NA,NA,NA,NA,NA,NA,NA,NA,NA,NA,NA,NA,NA,NA,NA,NA,NA,NA,NA,11,0,11,0,1,NA,NA,NA,NA,NA,NA,NA,NA,NA,NA,NA,NA,NA,NA,NA,NA,NA,NA,NA,NA,NA,NA,NA
SUPAMT14988,3VE8AYVF8SWNY0ECGJSEMLL2JWZF88,83E6CDF1-C43C-4D7B-8995-E678F9336FAE,2023-09-28_09h50.08.185,WP_VExplicitOC_HL,2022.2.5,Win32,3.2,NA,NA,2.243,NA,NA,NA,NA,NA,bored,"bored, not bored","more bored, less bored",NA,NA,NA,NA,NA,NA,NA,NA,NA,NA,NA,NA,NA,NA,NA,0,0,0,2,1,NA,NA,NA,NA,NA,NA,NA,NA,NA,NA,NA,NA,NA,NA,NA,NA,NA,NA,NA,NA,NA,NA,NA,NA,NA,NA,NA,NA
SUPAMT14988,3VE8AYVF8SWNY0ECGJSEMLL2JWZF88,83E6CDF1-C43C-4D7B-8995-E678F9336FAE,2023-09-28_09h50.08.185,WP_VExplicitOC_HL,2022.2.5,Win32,3.2,98.51851852,5.917,2.03,NA,NA,NA,NA,NA,frustrated,"frustrated, not frustrated","more frustrated, less frustrated",NA,NA,NA,NA,NA,NA,NA,NA,NA,NA,NA,NA,NA,NA,NA,0,1,1,1,1,NA,NA,NA,NA,NA,NA,NA,NA,NA,NA,NA,NA,NA,NA,NA,NA,NA,NA,NA,NA,NA,NA,NA,NA,NA,NA,NA,NA
SUPAMT14988,3VE8AYVF8SWNY0ECGJSEMLL2JWZF88,83E6CDF1-C43C-4D7B-8995-E678F9336FAE,2023-09-28_09h50.08.185,WP_VExplicitOC_HL,2022.2.5,Win32,3.2,NA,NA,2.017,NA,NA,NA,NA,NA,happy,"unhappy, happy","less happy, more happy",NA,NA,NA,NA,NA,NA,NA,NA,NA,NA,NA,NA,NA,NA,NA,0,2,2,0,1,NA,NA,NA,NA,NA,NA,NA,NA,NA,NA,NA,NA,NA,NA,NA,NA,NA,NA,NA,NA,NA,NA,NA,NA,NA,NA,NA,NA
SUPAMT14988,3VE8AYVF8SWNY0ECGJSEMLL2JWZF88,83E6CDF1-C43C-4D7B-8995-E678F9336FAE,2023-09-28_09h50.08.185,WP_VExplicitOC_HL,2022.2.5,Win32,3.2,NA,NA,NA,NA,NA,NA,NA,NA,NA,NA,NA,NA,NA,NA,NA,NA,NA,NA,NA,NA,NA,NA,NA,NA,NA,NA,NA,NA,NA,NA,NA,12,0,12,0,1,NA,NA,NA,NA,NA,NA,NA,NA,NA,NA,NA,NA,NA,NA,NA,NA,NA,NA,NA,NA,NA,NA,NA
SUPAMT14988,3VE8AYVF8SWNY0ECGJSEMLL2JWZF88,83E6CDF1-C43C-4D7B-8995-E678F9336FAE,2023-09-28_09h50.08.185,WP_VExplicitOC_HL,2022.2.5,Win32,3.2,NA,NA,2.089,NA,NA,NA,NA,NA,frustrated,"frustrated, not frustrated","more frustrated, less frustrated",NA,NA,NA,NA,NA,NA,NA,NA,NA,NA,NA,NA,NA,NA,NA,0,0,0,1,1,NA,NA,NA,NA,NA,NA,NA,NA,NA,NA,NA,NA,NA,NA,NA,NA,NA,NA,NA,NA,NA,NA,NA,NA,NA,NA,NA,NA
SUPAMT14988,3VE8AYVF8SWNY0ECGJSEMLL2JWZF88,83E6CDF1-C43C-4D7B-8995-E678F9336FAE,2023-09-28_09h50.08.185,WP_VExplicitOC_HL,2022.2.5,Win32,3.2,NA,NA,2.09,NA,NA,NA,NA,NA,bored,"bored, not bored","more bored, less bored",NA,NA,NA,NA,NA,NA,NA,NA,NA,NA,NA,NA,NA,NA,NA,0,1,1,2,1,NA,NA,NA,NA,NA,NA,NA,NA,NA,NA,NA,NA,NA,NA,NA,NA,NA,NA,NA,NA,NA,NA,NA,NA,NA,NA,NA,NA
SUPAMT14988,3VE8AYVF8SWNY0ECGJSEMLL2JWZF88,83E6CDF1-C43C-4D7B-8995-E678F9336FAE,2023-09-28_09h50.08.185,WP_VExplicitOC_HL,2022.2.5,Win32,3.2,NA,NA,2.022,NA,NA,NA,NA,NA,happy,"unhappy, happy","less happy, more happy",NA,NA,NA,NA,NA,NA,NA,NA,NA,NA,NA,NA,NA,NA,NA,0,2,2,0,1,NA,NA,NA,NA,NA,NA,NA,NA,NA,NA,NA,NA,NA,NA,NA,NA,NA,NA,NA,NA,NA,NA,NA,NA,NA,NA,NA,NA
SUPAMT14988,3VE8AYVF8SWNY0ECGJSEMLL2JWZF88,83E6CDF1-C43C-4D7B-8995-E678F9336FAE,2023-09-28_09h50.08.185,WP_VExplicitOC_HL,2022.2.5,Win32,3.2,NA,NA,NA,NA,NA,NA,NA,NA,NA,NA,NA,NA,NA,NA,NA,NA,NA,NA,NA,NA,NA,NA,NA,NA,NA,NA,NA,NA,NA,NA,NA,13,0,13,0,1,NA,NA,NA,NA,NA,NA,NA,NA,NA,NA,NA,NA,NA,NA,NA,NA,NA,NA,NA,NA,NA,NA,NA
SUPAMT14988,3VE8AYVF8SWNY0ECGJSEMLL2JWZF88,83E6CDF1-C43C-4D7B-8995-E678F9336FAE,2023-09-28_09h50.08.185,WP_VExplicitOC_HL,2022.2.5,Win32,3.2,NA,NA,2.218,NA,NA,NA,NA,NA,happy,"unhappy, happy","less happy, more happy",NA,NA,NA,NA,NA,NA,NA,NA,NA,NA,NA,NA,NA,NA,NA,0,0,0,0,1,NA,NA,NA,NA,NA,NA,NA,NA,NA,NA,NA,NA,NA,NA,NA,NA,NA,NA,NA,NA,NA,NA,NA,NA,NA,NA,NA,NA
SUPAMT14988,3VE8AYVF8SWNY0ECGJSEMLL2JWZF88,83E6CDF1-C43C-4D7B-8995-E678F9336FAE,2023-09-28_09h50.08.185,WP_VExplicitOC_HL,2022.2.5,Win32,3.2,100,7.234,2.018,NA,NA,NA,NA,NA,frustrated,"frustrated, not frustrated","more frustrated, less frustrated",NA,NA,NA,NA,NA,NA,NA,NA,NA,NA,NA,NA,NA,NA,NA,0,1,1,1,1,NA,NA,NA,NA,NA,NA,NA,NA,NA,NA,NA,NA,NA,NA,NA,NA,NA,NA,NA,NA,NA,NA,NA,NA,NA,NA,NA,NA
SUPAMT14988,3VE8AYVF8SWNY0ECGJSEMLL2JWZF88,83E6CDF1-C43C-4D7B-8995-E678F9336FAE,2023-09-28_09h50.08.185,WP_VExplicitOC_HL,2022.2.5,Win32,3.2,99.07407407,2.669,2.273,NA,NA,NA,NA,NA,bored,"bored, not bored","more bored, less bored",NA,NA,NA,NA,NA,NA,NA,NA,NA,NA,NA,NA,NA,NA,NA,0,2,2,2,1,NA,NA,NA,NA,NA,NA,NA,NA,NA,NA,NA,NA,NA,NA,NA,NA,NA,NA,NA,NA,NA,NA,NA,NA,NA,NA,NA,NA
SUPAMT14988,3VE8AYVF8SWNY0ECGJSEMLL2JWZF88,83E6CDF1-C43C-4D7B-8995-E678F9336FAE,2023-09-28_09h50.08.185,WP_VExplicitOC_HL,2022.2.5,Win32,3.2,NA,NA,NA,NA,NA,NA,NA,NA,NA,NA,NA,NA,NA,NA,NA,NA,NA,NA,NA,NA,NA,NA,NA,NA,NA,NA,NA,NA,NA,NA,NA,14,0,14,0,1,NA,NA,NA,NA,NA,NA,NA,NA,NA,NA,NA,NA,NA,NA,NA,NA,NA,NA,NA,NA,NA,NA,NA
SUPAMT14988,3VE8AYVF8SWNY0ECGJSEMLL2JWZF88,83E6CDF1-C43C-4D7B-8995-E678F9336FAE,2023-09-28_09h50.08.185,WP_VExplicitOC_HL,2022.2.5,Win32,3.2,NA,NA,NA,NA,NA,NA,NA,NA,NA,NA,NA,NA,NA,NA,NA,NA,NA,NA,NA,NA,NA,NA,NA,NA,NA,NA,NA,NA,NA,NA,NA,NA,NA,NA,NA,NA,NA,NA,NA,NA,NA,NA,NA,NA,NA,NA,NA,NA,NA,NA,NA,NA,NA,NA,NA,NA,NA,NA,NA
SUPAMT14988,3VE8AYVF8SWNY0ECGJSEMLL2JWZF88,83E6CDF1-C43C-4D7B-8995-E678F9336FAE,2023-09-28_09h50.08.185,WP_VExplicitOC_HL,2022.2.5,Win32,3.2,NA,NA,NA,NA,NA,NA,NA,NA,NA,NA,NA,NA,NA,NA,NA,NA,NA,NA,NA,NA,NA,NA,NA,NA,NA,NA,NA,NA,NA,NA,NA,NA,NA,NA,NA,NA,NA,NA,NA,NA,NA,NA,NA,NA,NA,NA,NA,NA,NA,NA,NA,NA,NA,NA,NA,NA,NA,NA,NA
SUPAMT14988,3VE8AYVF8SWNY0ECGJSEMLL2JWZF88,83E6CDF1-C43C-4D7B-8995-E678F9336FAE,2023-09-28_09h50.08.185,WP_VExplicitOC_HL,2022.2.5,Win32,3.2,NA,NA,NA,NA,NA,NA,NA,NA,NA,NA,NA,NA,NA,NA,NA,NA,NA,NA,rest (looking at a fixed cross),001.png,NA,NA,NA,NA,NA,NA,NA,NA,NA,NA,NA,NA,NA,NA,NA,NA,96.85185185,0.38,0,0,0,0,1,NA,NA,NA,NA,NA,NA,NA,NA,NA,NA,NA,NA,NA,NA,NA,NA
SUPAMT14988,3VE8AYVF8SWNY0ECGJSEMLL2JWZF88,83E6CDF1-C43C-4D7B-8995-E678F9336FAE,2023-09-28_09h50.08.185,WP_VExplicitOC_HL,2022.2.5,Win32,3.2,NA,NA,NA,NA,NA,NA,NA,NA,NA,NA,NA,NA,NA,NA,NA,NA,NA,NA,stand up,002.png,NA,NA,NA,NA,NA,NA,NA,NA,NA,NA,NA,NA,NA,NA,NA,NA,99.81481481,6.297,0,1,1,1,1,NA,NA,NA,NA,NA,NA,NA,NA,NA,NA,NA,NA,NA,NA,NA,NA
SUPAMT14988,3VE8AYVF8SWNY0ECGJSEMLL2JWZF88,83E6CDF1-C43C-4D7B-8995-E678F9336FAE,2023-09-28_09h50.08.185,WP_VExplicitOC_HL,2022.2.5,Win32,3.2,NA,NA,NA,NA,NA,NA,NA,NA,NA,NA,NA,NA,NA,NA,NA,NA,NA,NA,stretch,003.png,NA,NA,NA,NA,NA,NA,NA,NA,NA,NA,NA,NA,NA,NA,NA,NA,99.81481481,0.686,0,2,2,2,1,NA,NA,NA,NA,NA,NA,NA,NA,NA,NA,NA,NA,NA,NA,NA,NA
SUPAMT14988,3VE8AYVF8SWNY0ECGJSEMLL2JWZF88,83E6CDF1-C43C-4D7B-8995-E678F9336FAE,2023-09-28_09h50.08.185,WP_VExplicitOC_HL,2022.2.5,Win32,3.2,NA,NA,NA,NA,NA,NA,NA,NA,NA,NA,NA,NA,NA,NA,NA,NA,NA,NA,make a drink,004.png,NA,NA,NA,NA,NA,NA,NA,NA,NA,NA,NA,NA,NA,NA,NA,NA,99.81481481,2.382,0,3,3,3,1,NA,NA,NA,NA,NA,NA,NA,NA,NA,NA,NA,NA,NA,NA,NA,NA
SUPAMT14988,3VE8AYVF8SWNY0ECGJSEMLL2JWZF88,83E6CDF1-C43C-4D7B-8995-E678F9336FAE,2023-09-28_09h50.08.185,WP_VExplicitOC_HL,2022.2.5,Win32,3.2,NA,NA,NA,NA,NA,NA,NA,NA,NA,NA,NA,NA,NA,NA,NA,NA,NA,NA,scroll social media,005.png,NA,NA,NA,NA,NA,NA,NA,NA,NA,NA,NA,NA,NA,NA,NA,NA,99.81481481,0.988,0,4,4,4,1,NA,NA,NA,NA,NA,NA,NA,NA,NA,NA,NA,NA,NA,NA,NA,NA
SUPAMT14988,3VE8AYVF8SWNY0ECGJSEMLL2JWZF88,83E6CDF1-C43C-4D7B-8995-E678F9336FAE,2023-09-28_09h50.08.185,WP_VExplicitOC_HL,2022.2.5,Win32,3.2,NA,NA,NA,NA,NA,NA,NA,NA,NA,NA,NA,NA,NA,NA,NA,NA,NA,NA,listen to music,006.png,NA,NA,NA,NA,NA,NA,NA,NA,NA,NA,NA,NA,NA,NA,NA,NA,99.81481481,0.988,0,5,5,5,1,NA,NA,NA,NA,NA,NA,NA,NA,NA,NA,NA,NA,NA,NA,NA,NA
SUPAMT14988,3VE8AYVF8SWNY0ECGJSEMLL2JWZF88,83E6CDF1-C43C-4D7B-8995-E678F9336FAE,2023-09-28_09h50.08.185,WP_VExplicitOC_HL,2022.2.5,Win32,3.2,NA,NA,NA,NA,NA,NA,NA,NA,NA,NA,NA,NA,NA,NA,NA,NA,NA,NA,daydream,007.png,NA,NA,NA,NA,NA,NA,NA,NA,NA,NA,NA,NA,NA,NA,NA,NA,95.37037037,1.004,0,6,6,6,1,NA,NA,NA,NA,NA,NA,NA,NA,NA,NA,NA,NA,NA,NA,NA,NA
SUPAMT14988,3VE8AYVF8SWNY0ECGJSEMLL2JWZF88,83E6CDF1-C43C-4D7B-8995-E678F9336FAE,2023-09-28_09h50.08.185,WP_VExplicitOC_HL,2022.2.5,Win32,3.2,NA,NA,NA,NA,NA,NA,NA,NA,NA,NA,NA,NA,NA,NA,NA,NA,NA,NA,watch a short animation,008.png,NA,NA,NA,NA,NA,NA,NA,NA,NA,NA,NA,NA,NA,NA,NA,NA,93.51851852,0.671,0,7,7,7,1,NA,NA,NA,NA,NA,NA,NA,NA,NA,NA,NA,NA,NA,NA,NA,NA
SUPAMT14988,3VE8AYVF8SWNY0ECGJSEMLL2JWZF88,83E6CDF1-C43C-4D7B-8995-E678F9336FAE,2023-09-28_09h50.08.185,WP_VExplicitOC_HL,2022.2.5,Win32,3.2,NA,NA,NA,NA,NA,NA,NA,NA,NA,NA,NA,NA,NA,NA,NA,NA,NA,NA,read a novel,009.png,NA,NA,NA,NA,NA,NA,NA,NA,NA,NA,NA,NA,NA,NA,NA,NA,100,0.738,0,8,8,8,1,NA,NA,NA,NA,NA,NA,NA,NA,NA,NA,NA,NA,NA,NA,NA,NA
SUPAMT14988,3VE8AYVF8SWNY0ECGJSEMLL2JWZF88,83E6CDF1-C43C-4D7B-8995-E678F9336FAE,2023-09-28_09h50.08.185,WP_VExplicitOC_HL,2022.2.5,Win32,3.2,NA,NA,NA,NA,NA,NA,NA,NA,NA,NA,NA,NA,NA,NA,NA,NA,NA,NA,read the news,010.png,NA,NA,NA,NA,NA,NA,NA,NA,NA,NA,NA,NA,NA,NA,NA,NA,98.88888889,5.73,0,9,9,9,1,NA,NA,NA,NA,NA,NA,NA,NA,NA,NA,NA,NA,NA,NA,NA,NA
SUPAMT14988,3VE8AYVF8SWNY0ECGJSEMLL2JWZF88,83E6CDF1-C43C-4D7B-8995-E678F9336FAE,2023-09-28_09h50.08.185,WP_VExplicitOC_HL,2022.2.5,Win32,3.2,NA,NA,NA,NA,NA,NA,NA,NA,NA,NA,NA,NA,NA,NA,NA,NA,NA,NA,NA,NA,NA,NA,NA,NA,NA,NA,NA,NA,NA,NA,NA,NA,NA,NA,NA,NA,NA,NA,NA,NA,NA,NA,NA,watch a short animation,NA,NA,NA,NA,NA,NA,NA,NA,NA,NA,NA,NA,NA,NA,NA
SUPAMT14988,3VE8AYVF8SWNY0ECGJSEMLL2JWZF88,83E6CDF1-C43C-4D7B-8995-E678F9336FAE,2023-09-28_09h50.08.185,WP_VExplicitOC_HL,2022.2.5,Win32,3.2,NA,NA,7.003,NA,NA,NA,NA,NA,frustrated,"frustrated, not frustrated","more frustrated, less frustrated",NA,NA,NA,NA,NA,NA,NA,NA,NA,NA,NA,NA,NA,NA,NA,NA,NA,NA,NA,NA,NA,NA,NA,NA,NA,NA,NA,NA,NA,NA,NA,NA,NA,0,0,0,1,1,NA,NA,NA,NA,NA,NA,NA,NA,NA,NA
SUPAMT14988,3VE8AYVF8SWNY0ECGJSEMLL2JWZF88,83E6CDF1-C43C-4D7B-8995-E678F9336FAE,2023-09-28_09h50.08.185,WP_VExplicitOC_HL,2022.2.5,Win32,3.2,NA,NA,2.18,NA,NA,NA,NA,NA,bored,"bored, not bored","more bored, less bored",NA,NA,NA,NA,NA,NA,NA,NA,NA,NA,NA,NA,NA,NA,NA,NA,NA,NA,NA,NA,NA,NA,NA,NA,NA,NA,NA,NA,NA,NA,NA,NA,NA,0,1,1,2,1,NA,NA,NA,NA,NA,NA,NA,NA,NA,NA
SUPAMT14988,3VE8AYVF8SWNY0ECGJSEMLL2JWZF88,83E6CDF1-C43C-4D7B-8995-E678F9336FAE,2023-09-28_09h50.08.185,WP_VExplicitOC_HL,2022.2.5,Win32,3.2,98.51851852,7.334,2.007,NA,NA,NA,NA,NA,happy,"unhappy, happy","less happy, more happy",NA,NA,NA,NA,NA,NA,NA,NA,NA,NA,NA,NA,NA,NA,NA,NA,NA,NA,NA,NA,NA,NA,NA,NA,NA,NA,NA,NA,NA,NA,NA,NA,NA,0,2,2,0,1,NA,NA,NA,NA,NA,NA,NA,NA,NA,NA
SUPAMT14988,3VE8AYVF8SWNY0ECGJSEMLL2JWZF88,83E6CDF1-C43C-4D7B-8995-E678F9336FAE,2023-09-28_09h50.08.185,WP_VExplicitOC_HL,2022.2.5,Win32,3.2,NA,NA,NA,NA,NA,NA,NA,NA,NA,NA,NA,NA,NA,NA,NA,NA,NA,NA,NA,NA,NA,NA,NA,NA,NA,NA,NA,NA,NA,NA,NA,NA,NA,NA,NA,NA,NA,NA,NA,NA,NA,NA,NA,NA,NA,NA,NA,NA,NA,NA,NA,NA,NA,NA,NA,NA,NA,NA,NA
SUPAMT14988,3VE8AYVF8SWNY0ECGJSEMLL2JWZF88,83E6CDF1-C43C-4D7B-8995-E678F9336FAE,2023-09-28_09h50.08.185,WP_VExplicitOC_HL,2022.2.5,Win32,3.2,NA,NA,NA,NA,NA,NA,NA,NA,NA,NA,NA,NA,NA,NA,NA,NA,NA,NA,NA,NA,NA,NA,NA,NA,NA,NA,NA,NA,NA,NA,NA,NA,NA,NA,NA,NA,NA,NA,NA,NA,NA,NA,NA,NA,NA,NA,NA,NA,NA,NA,NA,NA,NA,NA,NA,NA,NA,NA,NA
SUPAMT14988,3VE8AYVF8SWNY0ECGJSEMLL2JWZF88,83E6CDF1-C43C-4D7B-8995-E678F9336FAE,2023-09-28_09h50.08.185,WP_VExplicitOC_HL,2022.2.5,Win32,3.2,NA,NA,2.082,NA,NA,NA,NA,NA,frustrated,"frustrated, not frustrated","more frustrated, less frustrated",NA,NA,NA,NA,NA,NA,NA,NA,NA,NA,NA,NA,NA,NA,NA,NA,NA,NA,NA,NA,NA,NA,NA,NA,NA,NA,NA,NA,NA,NA,NA,NA,NA,NA,NA,NA,NA,NA,0,0,0,1,1,NA,NA,NA,NA,NA
SUPAMT14988,3VE8AYVF8SWNY0ECGJSEMLL2JWZF88,83E6CDF1-C43C-4D7B-8995-E678F9336FAE,2023-09-28_09h50.08.185,WP_VExplicitOC_HL,2022.2.5,Win32,3.2,54.07407407,5.615,2.031,NA,NA,NA,NA,NA,bored,"bored, not bored","more bored, less bored",NA,NA,NA,NA,NA,NA,NA,NA,NA,NA,NA,NA,NA,NA,NA,NA,NA,NA,NA,NA,NA,NA,NA,NA,NA,NA,NA,NA,NA,NA,NA,NA,NA,NA,NA,NA,NA,NA,0,1,1,2,1,NA,NA,NA,NA,NA
SUPAMT14988,3VE8AYVF8SWNY0ECGJSEMLL2JWZF88,83E6CDF1-C43C-4D7B-8995-E678F9336FAE,2023-09-28_09h50.08.185,WP_VExplicitOC_HL,2022.2.5,Win32,3.2,NA,NA,2.232,NA,NA,NA,NA,NA,happy,"unhappy, happy","less happy, more happy",NA,NA,NA,NA,NA,NA,NA,NA,NA,NA,NA,NA,NA,NA,NA,NA,NA,NA,NA,NA,NA,NA,NA,NA,NA,NA,NA,NA,NA,NA,NA,NA,NA,NA,NA,NA,NA,NA,0,2,2,0,1,NA,NA,NA,NA,NA
SUPAMT14988,3VE8AYVF8SWNY0ECGJSEMLL2JWZF88,83E6CDF1-C43C-4D7B-8995-E678F9336FAE,2023-09-28_09h50.08.185,WP_VExplicitOC_HL,2022.2.5,Win32,3.2,NA,NA,NA,NA,NA,NA,NA,NA,NA,NA,NA,NA,NA,NA,NA,NA,NA,NA,NA,NA,NA,NA,NA,NA,NA,NA,NA,NA,NA,NA,NA,NA,NA,NA,NA,NA,NA,NA,NA,NA,NA,NA,NA,NA,NA,NA,NA,NA,NA,NA,NA,NA,NA,NA,0,0,0,0,1
SUPAMT14988,3VE8AYVF8SWNY0ECGJSEMLL2JWZF88,83E6CDF1-C43C-4D7B-8995-E678F9336FAE,2023-09-28_09h50.08.185,WP_VExplicitOC_HL,2022.2.5,Win32,3.2,87.77777778,4.815,2.103,NA,NA,NA,NA,NA,happy,"unhappy, happy","less happy, more happy",NA,NA,NA,NA,NA,NA,NA,NA,NA,NA,NA,NA,NA,NA,NA,NA,NA,NA,NA,NA,NA,NA,NA,NA,NA,NA,NA,NA,NA,NA,NA,NA,NA,NA,NA,NA,NA,NA,0,0,0,0,1,NA,NA,NA,NA,NA
SUPAMT14988,3VE8AYVF8SWNY0ECGJSEMLL2JWZF88,83E6CDF1-C43C-4D7B-8995-E678F9336FAE,2023-09-28_09h50.08.185,WP_VExplicitOC_HL,2022.2.5,Win32,3.2,95,3.585,2.287,NA,NA,NA,NA,NA,bored,"bored, not bored","more bored, less bored",NA,NA,NA,NA,NA,NA,NA,NA,NA,NA,NA,NA,NA,NA,NA,NA,NA,NA,NA,NA,NA,NA,NA,NA,NA,NA,NA,NA,NA,NA,NA,NA,NA,NA,NA,NA,NA,NA,0,1,1,2,1,NA,NA,NA,NA,NA
SUPAMT14988,3VE8AYVF8SWNY0ECGJSEMLL2JWZF88,83E6CDF1-C43C-4D7B-8995-E678F9336FAE,2023-09-28_09h50.08.185,WP_VExplicitOC_HL,2022.2.5,Win32,3.2,93.88888889,3.813,2.013,NA,NA,NA,NA,NA,frustrated,"frustrated, not frustrated","more frustrated, less frustrated",NA,NA,NA,NA,NA,NA,NA,NA,NA,NA,NA,NA,NA,NA,NA,NA,NA,NA,NA,NA,NA,NA,NA,NA,NA,NA,NA,NA,NA,NA,NA,NA,NA,NA,NA,NA,NA,NA,0,2,2,1,1,NA,NA,NA,NA,NA
SUPAMT14988,3VE8AYVF8SWNY0ECGJSEMLL2JWZF88,83E6CDF1-C43C-4D7B-8995-E678F9336FAE,2023-09-28_09h50.08.185,WP_VExplicitOC_HL,2022.2.5,Win32,3.2,NA,NA,NA,NA,NA,NA,NA,NA,NA,NA,NA,NA,NA,NA,NA,NA,NA,NA,NA,NA,NA,NA,NA,NA,NA,NA,NA,NA,NA,NA,NA,NA,NA,NA,NA,NA,NA,NA,NA,NA,NA,NA,NA,NA,NA,NA,NA,NA,NA,NA,NA,NA,NA,NA,1,0,1,0,1
SUPAMT14988,3VE8AYVF8SWNY0ECGJSEMLL2JWZF88,83E6CDF1-C43C-4D7B-8995-E678F9336FAE,2023-09-28_09h50.08.185,WP_VExplicitOC_HL,2022.2.5,Win32,3.2,NA,NA,2.19,NA,NA,NA,NA,NA,bored,"bored, not bored","more bored, less bored",NA,NA,NA,NA,NA,NA,NA,NA,NA,NA,NA,NA,NA,NA,NA,NA,NA,NA,NA,NA,NA,NA,NA,NA,NA,NA,NA,NA,NA,NA,NA,NA,NA,NA,NA,NA,NA,NA,0,0,0,2,1,NA,NA,NA,NA,NA
SUPAMT14988,3VE8AYVF8SWNY0ECGJSEMLL2JWZF88,83E6CDF1-C43C-4D7B-8995-E678F9336FAE,2023-09-28_09h50.08.185,WP_VExplicitOC_HL,2022.2.5,Win32,3.2,NA,NA,2.116,NA,NA,NA,NA,NA,frustrated,"frustrated, not frustrated","more frustrated, less frustrated",NA,NA,NA,NA,NA,NA,NA,NA,NA,NA,NA,NA,NA,NA,NA,NA,NA,NA,NA,NA,NA,NA,NA,NA,NA,NA,NA,NA,NA,NA,NA,NA,NA,NA,NA,NA,NA,NA,0,1,1,1,1,NA,NA,NA,NA,NA
SUPAMT14988,3VE8AYVF8SWNY0ECGJSEMLL2JWZF88,83E6CDF1-C43C-4D7B-8995-E678F9336FAE,2023-09-28_09h50.08.185,WP_VExplicitOC_HL,2022.2.5,Win32,3.2,98.7037037,2.837,2.233,NA,NA,NA,NA,NA,happy,"unhappy, happy","less happy, more happy",NA,NA,NA,NA,NA,NA,NA,NA,NA,NA,NA,NA,NA,NA,NA,NA,NA,NA,NA,NA,NA,NA,NA,NA,NA,NA,NA,NA,NA,NA,NA,NA,NA,NA,NA,NA,NA,NA,0,2,2,0,1,NA,NA,NA,NA,NA
SUPAMT14988,3VE8AYVF8SWNY0ECGJSEMLL2JWZF88,83E6CDF1-C43C-4D7B-8995-E678F9336FAE,2023-09-28_09h50.08.185,WP_VExplicitOC_HL,2022.2.5,Win32,3.2,NA,NA,NA,NA,NA,NA,NA,NA,NA,NA,NA,NA,NA,NA,NA,NA,NA,NA,NA,NA,NA,NA,NA,NA,NA,NA,NA,NA,NA,NA,NA,NA,NA,NA,NA,NA,NA,NA,NA,NA,NA,NA,NA,NA,NA,NA,NA,NA,NA,NA,NA,NA,NA,NA,2,0,2,0,1
SUPAMT14988,3VE8AYVF8SWNY0ECGJSEMLL2JWZF88,83E6CDF1-C43C-4D7B-8995-E678F9336FAE,2023-09-28_09h50.08.185,WP_VExplicitOC_HL,2022.2.5,Win32,3.2,NA,NA,2.287,NA,NA,NA,NA,NA,frustrated,"frustrated, not frustrated","more frustrated, less frustrated",NA,NA,NA,NA,NA,NA,NA,NA,NA,NA,NA,NA,NA,NA,NA,NA,NA,NA,NA,NA,NA,NA,NA,NA,NA,NA,NA,NA,NA,NA,NA,NA,NA,NA,NA,NA,NA,NA,0,0,0,1,1,NA,NA,NA,NA,NA
SUPAMT14988,3VE8AYVF8SWNY0ECGJSEMLL2JWZF88,83E6CDF1-C43C-4D7B-8995-E678F9336FAE,2023-09-28_09h50.08.185,WP_VExplicitOC_HL,2022.2.5,Win32,3.2,NA,NA,2.285,NA,NA,NA,NA,NA,happy,"unhappy, happy","less happy, more happy",NA,NA,NA,NA,NA,NA,NA,NA,NA,NA,NA,NA,NA,NA,NA,NA,NA,NA,NA,NA,NA,NA,NA,NA,NA,NA,NA,NA,NA,NA,NA,NA,NA,NA,NA,NA,NA,NA,0,1,1,0,1,NA,NA,NA,NA,NA
SUPAMT14988,3VE8AYVF8SWNY0ECGJSEMLL2JWZF88,83E6CDF1-C43C-4D7B-8995-E678F9336FAE,2023-09-28_09h50.08.185,WP_VExplicitOC_HL,2022.2.5,Win32,3.2,97.77777778,6.252,2.105,NA,NA,NA,NA,NA,bored,"bored, not bored","more bored, less bored",NA,NA,NA,NA,NA,NA,NA,NA,NA,NA,NA,NA,NA,NA,NA,NA,NA,NA,NA,NA,NA,NA,NA,NA,NA,NA,NA,NA,NA,NA,NA,NA,NA,NA,NA,NA,NA,NA,0,2,2,2,1,NA,NA,NA,NA,NA
SUPAMT14988,3VE8AYVF8SWNY0ECGJSEMLL2JWZF88,83E6CDF1-C43C-4D7B-8995-E678F9336FAE,2023-09-28_09h50.08.185,WP_VExplicitOC_HL,2022.2.5,Win32,3.2,NA,NA,NA,NA,NA,NA,NA,NA,NA,NA,NA,NA,NA,NA,NA,NA,NA,NA,NA,NA,NA,NA,NA,NA,NA,NA,NA,NA,NA,NA,NA,NA,NA,NA,NA,NA,NA,NA,NA,NA,NA,NA,NA,NA,NA,NA,NA,NA,NA,NA,NA,NA,NA,NA,3,0,3,0,1
SUPAMT14988,3VE8AYVF8SWNY0ECGJSEMLL2JWZF88,83E6CDF1-C43C-4D7B-8995-E678F9336FAE,2023-09-28_09h50.08.185,WP_VExplicitOC_HL,2022.2.5,Win32,3.2,78.88888889,3.061,2.03,NA,NA,NA,NA,NA,frustrated,"frustrated, not frustrated","more frustrated, less frustrated",NA,NA,NA,NA,NA,NA,NA,NA,NA,NA,NA,NA,NA,NA,NA,NA,NA,NA,NA,NA,NA,NA,NA,NA,NA,NA,NA,NA,NA,NA,NA,NA,NA,NA,NA,NA,NA,NA,0,0,0,1,1,NA,NA,NA,NA,NA
SUPAMT14988,3VE8AYVF8SWNY0ECGJSEMLL2JWZF88,83E6CDF1-C43C-4D7B-8995-E678F9336FAE,2023-09-28_09h50.08.185,WP_VExplicitOC_HL,2022.2.5,Win32,3.2,-99.81481481,6.062,2.267,NA,NA,NA,NA,NA,happy,"unhappy, happy","less happy, more happy",NA,NA,NA,NA,NA,NA,NA,NA,NA,NA,NA,NA,NA,NA,NA,NA,NA,NA,NA,NA,NA,NA,NA,NA,NA,NA,NA,NA,NA,NA,NA,NA,NA,NA,NA,NA,NA,NA,0,1,1,0,1,NA,NA,NA,NA,NA
SUPAMT14988,3VE8AYVF8SWNY0ECGJSEMLL2JWZF88,83E6CDF1-C43C-4D7B-8995-E678F9336FAE,2023-09-28_09h50.08.185,WP_VExplicitOC_HL,2022.2.5,Win32,3.2,84.07407407,2.933,2.227,NA,NA,NA,NA,NA,bored,"bored, not bored","more bored, less bored",NA,NA,NA,NA,NA,NA,NA,NA,NA,NA,NA,NA,NA,NA,NA,NA,NA,NA,NA,NA,NA,NA,NA,NA,NA,NA,NA,NA,NA,NA,NA,NA,NA,NA,NA,NA,NA,NA,0,2,2,2,1,NA,NA,NA,NA,NA
SUPAMT14988,3VE8AYVF8SWNY0ECGJSEMLL2JWZF88,83E6CDF1-C43C-4D7B-8995-E678F9336FAE,2023-09-28_09h50.08.185,WP_VExplicitOC_HL,2022.2.5,Win32,3.2,NA,NA,NA,NA,NA,NA,NA,NA,NA,NA,NA,NA,NA,NA,NA,NA,NA,NA,NA,NA,NA,NA,NA,NA,NA,NA,NA,NA,NA,NA,NA,NA,NA,NA,NA,NA,NA,NA,NA,NA,NA,NA,NA,NA,NA,NA,NA,NA,NA,NA,NA,NA,NA,NA,4,0,4,0,1
SUPAMT14988,3VE8AYVF8SWNY0ECGJSEMLL2JWZF88,83E6CDF1-C43C-4D7B-8995-E678F9336FAE,2023-09-28_09h50.08.185,WP_VExplicitOC_HL,2022.2.5,Win32,3.2,NA,NA,2.029,NA,NA,NA,NA,NA,happy,"unhappy, happy","less happy, more happy",NA,NA,NA,NA,NA,NA,NA,NA,NA,NA,NA,NA,NA,NA,NA,NA,NA,NA,NA,NA,NA,NA,NA,NA,NA,NA,NA,NA,NA,NA,NA,NA,NA,NA,NA,NA,NA,NA,0,0,0,0,1,NA,NA,NA,NA,NA
SUPAMT14988,3VE8AYVF8SWNY0ECGJSEMLL2JWZF88,83E6CDF1-C43C-4D7B-8995-E678F9336FAE,2023-09-28_09h50.08.185,WP_VExplicitOC_HL,2022.2.5,Win32,3.2,NA,NA,2.102,NA,NA,NA,NA,NA,bored,"bored, not bored","more bored, less bored",NA,NA,NA,NA,NA,NA,NA,NA,NA,NA,NA,NA,NA,NA,NA,NA,NA,NA,NA,NA,NA,NA,NA,NA,NA,NA,NA,NA,NA,NA,NA,NA,NA,NA,NA,NA,NA,NA,0,1,1,2,1,NA,NA,NA,NA,NA
SUPAMT14988,3VE8AYVF8SWNY0ECGJSEMLL2JWZF88,83E6CDF1-C43C-4D7B-8995-E678F9336FAE,2023-09-28_09h50.08.185,WP_VExplicitOC_HL,2022.2.5,Win32,3.2,NA,NA,2.382,NA,NA,NA,NA,NA,frustrated,"frustrated, not frustrated","more frustrated, less frustrated",NA,NA,NA,NA,NA,NA,NA,NA,NA,NA,NA,NA,NA,NA,NA,NA,NA,NA,NA,NA,NA,NA,NA,NA,NA,NA,NA,NA,NA,NA,NA,NA,NA,NA,NA,NA,NA,NA,0,2,2,1,1,NA,NA,NA,NA,NA
SUPAMT14988,3VE8AYVF8SWNY0ECGJSEMLL2JWZF88,83E6CDF1-C43C-4D7B-8995-E678F9336FAE,2023-09-28_09h50.08.185,WP_VExplicitOC_HL,2022.2.5,Win32,3.2,NA,NA,NA,NA,NA,NA,NA,NA,NA,NA,NA,NA,NA,NA,NA,NA,NA,NA,NA,NA,NA,NA,NA,NA,NA,NA,NA,NA,NA,NA,NA,NA,NA,NA,NA,NA,NA,NA,NA,NA,NA,NA,NA,NA,NA,NA,NA,NA,NA,NA,NA,NA,NA,NA,5,0,5,0,1
SUPAMT14988,3VE8AYVF8SWNY0ECGJSEMLL2JWZF88,83E6CDF1-C43C-4D7B-8995-E678F9336FAE,2023-09-28_09h50.08.185,WP_VExplicitOC_HL,2022.2.5,Win32,3.2,NA,NA,2.199,NA,NA,NA,NA,NA,happy,"unhappy, happy","less happy, more happy",NA,NA,NA,NA,NA,NA,NA,NA,NA,NA,NA,NA,NA,NA,NA,NA,NA,NA,NA,NA,NA,NA,NA,NA,NA,NA,NA,NA,NA,NA,NA,NA,NA,NA,NA,NA,NA,NA,0,0,0,0,1,NA,NA,NA,NA,NA
SUPAMT14988,3VE8AYVF8SWNY0ECGJSEMLL2JWZF88,83E6CDF1-C43C-4D7B-8995-E678F9336FAE,2023-09-28_09h50.08.185,WP_VExplicitOC_HL,2022.2.5,Win32,3.2,63.7037037,4.515,2.225,NA,NA,NA,NA,NA,bored,"bored, not bored","more bored, less bored",NA,NA,NA,NA,NA,NA,NA,NA,NA,NA,NA,NA,NA,NA,NA,NA,NA,NA,NA,NA,NA,NA,NA,NA,NA,NA,NA,NA,NA,NA,NA,NA,NA,NA,NA,NA,NA,NA,0,1,1,2,1,NA,NA,NA,NA,NA
SUPAMT14988,3VE8AYVF8SWNY0ECGJSEMLL2JWZF88,83E6CDF1-C43C-4D7B-8995-E678F9336FAE,2023-09-28_09h50.08.185,WP_VExplicitOC_HL,2022.2.5,Win32,3.2,98.14814815,3.375,2.061,NA,NA,NA,NA,NA,frustrated,"frustrated, not frustrated","more frustrated, less frustrated",NA,NA,NA,NA,NA,NA,NA,NA,NA,NA,NA,NA,NA,NA,NA,NA,NA,NA,NA,NA,NA,NA,NA,NA,NA,NA,NA,NA,NA,NA,NA,NA,NA,NA,NA,NA,NA,NA,0,2,2,1,1,NA,NA,NA,NA,NA
SUPAMT14988,3VE8AYVF8SWNY0ECGJSEMLL2JWZF88,83E6CDF1-C43C-4D7B-8995-E678F9336FAE,2023-09-28_09h50.08.185,WP_VExplicitOC_HL,2022.2.5,Win32,3.2,NA,NA,NA,NA,NA,NA,NA,NA,NA,NA,NA,NA,NA,NA,NA,NA,NA,NA,NA,NA,NA,NA,NA,NA,NA,NA,NA,NA,NA,NA,NA,NA,NA,NA,NA,NA,NA,NA,NA,NA,NA,NA,NA,NA,NA,NA,NA,NA,NA,NA,NA,NA,NA,NA,6,0,6,0,1
SUPAMT14988,3VE8AYVF8SWNY0ECGJSEMLL2JWZF88,83E6CDF1-C43C-4D7B-8995-E678F9336FAE,2023-09-28_09h50.08.185,WP_VExplicitOC_HL,2022.2.5,Win32,3.2,99.62962963,5.726,2.011,NA,NA,NA,NA,NA,happy,"unhappy, happy","less happy, more happy",NA,NA,NA,NA,NA,NA,NA,NA,NA,NA,NA,NA,NA,NA,NA,NA,NA,NA,NA,NA,NA,NA,NA,NA,NA,NA,NA,NA,NA,NA,NA,NA,NA,NA,NA,NA,NA,NA,0,0,0,0,1,NA,NA,NA,NA,NA
SUPAMT14988,3VE8AYVF8SWNY0ECGJSEMLL2JWZF88,83E6CDF1-C43C-4D7B-8995-E678F9336FAE,2023-09-28_09h50.08.185,WP_VExplicitOC_HL,2022.2.5,Win32,3.2,NA,NA,2.01,NA,NA,NA,NA,NA,frustrated,"frustrated, not frustrated","more frustrated, less frustrated",NA,NA,NA,NA,NA,NA,NA,NA,NA,NA,NA,NA,NA,NA,NA,NA,NA,NA,NA,NA,NA,NA,NA,NA,NA,NA,NA,NA,NA,NA,NA,NA,NA,NA,NA,NA,NA,NA,0,1,1,1,1,NA,NA,NA,NA,NA
SUPAMT14988,3VE8AYVF8SWNY0ECGJSEMLL2JWZF88,83E6CDF1-C43C-4D7B-8995-E678F9336FAE,2023-09-28_09h50.08.185,WP_VExplicitOC_HL,2022.2.5,Win32,3.2,78.7037037,3.888,2.02,NA,NA,NA,NA,NA,bored,"bored, not bored","more bored, less bored",NA,NA,NA,NA,NA,NA,NA,NA,NA,NA,NA,NA,NA,NA,NA,NA,NA,NA,NA,NA,NA,NA,NA,NA,NA,NA,NA,NA,NA,NA,NA,NA,NA,NA,NA,NA,NA,NA,0,2,2,2,1,NA,NA,NA,NA,NA
SUPAMT14988,3VE8AYVF8SWNY0ECGJSEMLL2JWZF88,83E6CDF1-C43C-4D7B-8995-E678F9336FAE,2023-09-28_09h50.08.185,WP_VExplicitOC_HL,2022.2.5,Win32,3.2,NA,NA,NA,NA,NA,NA,NA,NA,NA,NA,NA,NA,NA,NA,NA,NA,NA,NA,NA,NA,NA,NA,NA,NA,NA,NA,NA,NA,NA,NA,NA,NA,NA,NA,NA,NA,NA,NA,NA,NA,NA,NA,NA,NA,NA,NA,NA,NA,NA,NA,NA,NA,NA,NA,7,0,7,0,1
SUPAMT14988,3VE8AYVF8SWNY0ECGJSEMLL2JWZF88,83E6CDF1-C43C-4D7B-8995-E678F9336FAE,2023-09-28_09h50.08.185,WP_VExplicitOC_HL,2022.2.5,Win32,3.2,NA,NA,2.262,NA,NA,NA,NA,NA,happy,"unhappy, happy","less happy, more happy",NA,NA,NA,NA,NA,NA,NA,NA,NA,NA,NA,NA,NA,NA,NA,NA,NA,NA,NA,NA,NA,NA,NA,NA,NA,NA,NA,NA,NA,NA,NA,NA,NA,NA,NA,NA,NA,NA,0,0,0,0,1,NA,NA,NA,NA,NA
SUPAMT14988,3VE8AYVF8SWNY0ECGJSEMLL2JWZF88,83E6CDF1-C43C-4D7B-8995-E678F9336FAE,2023-09-28_09h50.08.185,WP_VExplicitOC_HL,2022.2.5,Win32,3.2,NA,NA,2.175,NA,NA,NA,NA,NA,frustrated,"frustrated, not frustrated","more frustrated, less frustrated",NA,NA,NA,NA,NA,NA,NA,NA,NA,NA,NA,NA,NA,NA,NA,NA,NA,NA,NA,NA,NA,NA,NA,NA,NA,NA,NA,NA,NA,NA,NA,NA,NA,NA,NA,NA,NA,NA,0,1,1,1,1,NA,NA,NA,NA,NA
SUPAMT14988,3VE8AYVF8SWNY0ECGJSEMLL2JWZF88,83E6CDF1-C43C-4D7B-8995-E678F9336FAE,2023-09-28_09h50.08.185,WP_VExplicitOC_HL,2022.2.5,Win32,3.2,NA,NA,2.098,NA,NA,NA,NA,NA,bored,"bored, not bored","more bored, less bored",NA,NA,NA,NA,NA,NA,NA,NA,NA,NA,NA,NA,NA,NA,NA,NA,NA,NA,NA,NA,NA,NA,NA,NA,NA,NA,NA,NA,NA,NA,NA,NA,NA,NA,NA,NA,NA,NA,0,2,2,2,1,NA,NA,NA,NA,NA
SUPAMT14988,3VE8AYVF8SWNY0ECGJSEMLL2JWZF88,83E6CDF1-C43C-4D7B-8995-E678F9336FAE,2023-09-28_09h50.08.185,WP_VExplicitOC_HL,2022.2.5,Win32,3.2,NA,NA,NA,NA,NA,NA,NA,NA,NA,NA,NA,NA,NA,NA,NA,NA,NA,NA,NA,NA,NA,NA,NA,NA,NA,NA,NA,NA,NA,NA,NA,NA,NA,NA,NA,NA,NA,NA,NA,NA,NA,NA,NA,NA,NA,NA,NA,NA,NA,NA,NA,NA,NA,NA,8,0,8,0,1
SUPAMT14988,3VE8AYVF8SWNY0ECGJSEMLL2JWZF88,83E6CDF1-C43C-4D7B-8995-E678F9336FAE,2023-09-28_09h50.08.185,WP_VExplicitOC_HL,2022.2.5,Win32,3.2,NA,NA,45.169,NA,NA,NA,NA,NA,frustrated,"frustrated, not frustrated","more frustrated, less frustrated",NA,NA,NA,NA,NA,NA,NA,NA,NA,NA,NA,NA,NA,NA,NA,NA,NA,NA,NA,NA,NA,NA,NA,NA,NA,NA,NA,NA,NA,NA,NA,NA,NA,NA,NA,NA,NA,NA,0,0,0,1,1,NA,NA,NA,NA,NA
SUPAMT14988,3VE8AYVF8SWNY0ECGJSEMLL2JWZF88,83E6CDF1-C43C-4D7B-8995-E678F9336FAE,2023-09-28_09h50.08.185,WP_VExplicitOC_HL,2022.2.5,Win32,3.2,NA,NA,2.143,NA,NA,NA,NA,NA,bored,"bored, not bored","more bored, less bored",NA,NA,NA,NA,NA,NA,NA,NA,NA,NA,NA,NA,NA,NA,NA,NA,NA,NA,NA,NA,NA,NA,NA,NA,NA,NA,NA,NA,NA,NA,NA,NA,NA,NA,NA,NA,NA,NA,0,1,1,2,1,NA,NA,NA,NA,NA
SUPAMT14988,3VE8AYVF8SWNY0ECGJSEMLL2JWZF88,83E6CDF1-C43C-4D7B-8995-E678F9336FAE,2023-09-28_09h50.08.185,WP_VExplicitOC_HL,2022.2.5,Win32,3.2,90.55555556,4.187,2.257,NA,NA,NA,NA,NA,happy,"unhappy, happy","less happy, more happy",NA,NA,NA,NA,NA,NA,NA,NA,NA,NA,NA,NA,NA,NA,NA,NA,NA,NA,NA,NA,NA,NA,NA,NA,NA,NA,NA,NA,NA,NA,NA,NA,NA,NA,NA,NA,NA,NA,0,2,2,0,1,NA,NA,NA,NA,NA
SUPAMT14988,3VE8AYVF8SWNY0ECGJSEMLL2JWZF88,83E6CDF1-C43C-4D7B-8995-E678F9336FAE,2023-09-28_09h50.08.185,WP_VExplicitOC_HL,2022.2.5,Win32,3.2,NA,NA,NA,NA,NA,NA,NA,NA,NA,NA,NA,NA,NA,NA,NA,NA,NA,NA,NA,NA,NA,NA,NA,NA,NA,NA,NA,NA,NA,NA,NA,NA,NA,NA,NA,NA,NA,NA,NA,NA,NA,NA,NA,NA,NA,NA,NA,NA,NA,NA,NA,NA,NA,NA,9,0,9,0,1
SUPAMT14988,3VE8AYVF8SWNY0ECGJSEMLL2JWZF88,83E6CDF1-C43C-4D7B-8995-E678F9336FAE,2023-09-28_09h50.08.185,WP_VExplicitOC_HL,2022.2.5,Win32,3.2,-0.185185185,5.845,2.312,NA,NA,NA,NA,NA,frustrated,"frustrated, not frustrated","more frustrated, less frustrated",NA,NA,NA,NA,NA,NA,NA,NA,NA,NA,NA,NA,NA,NA,NA,NA,NA,NA,NA,NA,NA,NA,NA,NA,NA,NA,NA,NA,NA,NA,NA,NA,NA,NA,NA,NA,NA,NA,0,0,0,1,1,NA,NA,NA,NA,NA
SUPAMT14988,3VE8AYVF8SWNY0ECGJSEMLL2JWZF88,83E6CDF1-C43C-4D7B-8995-E678F9336FAE,2023-09-28_09h50.08.185,WP_VExplicitOC_HL,2022.2.5,Win32,3.2,NA,NA,2.126,NA,NA,NA,NA,NA,bored,"bored, not bored","more bored, less bored",NA,NA,NA,NA,NA,NA,NA,NA,NA,NA,NA,NA,NA,NA,NA,NA,NA,NA,NA,NA,NA,NA,NA,NA,NA,NA,NA,NA,NA,NA,NA,NA,NA,NA,NA,NA,NA,NA,0,1,1,2,1,NA,NA,NA,NA,NA
SUPAMT14988,3VE8AYVF8SWNY0ECGJSEMLL2JWZF88,83E6CDF1-C43C-4D7B-8995-E678F9336FAE,2023-09-28_09h50.08.185,WP_VExplicitOC_HL,2022.2.5,Win32,3.2,98.7037037,3.378,2.054,NA,NA,NA,NA,NA,happy,"unhappy, happy","less happy, more happy",NA,NA,NA,NA,NA,NA,NA,NA,NA,NA,NA,NA,NA,NA,NA,NA,NA,NA,NA,NA,NA,NA,NA,NA,NA,NA,NA,NA,NA,NA,NA,NA,NA,NA,NA,NA,NA,NA,0,2,2,0,1,NA,NA,NA,NA,NA
SUPAMT14988,3VE8AYVF8SWNY0ECGJSEMLL2JWZF88,83E6CDF1-C43C-4D7B-8995-E678F9336FAE,2023-09-28_09h50.08.185,WP_VExplicitOC_HL,2022.2.5,Win32,3.2,NA,NA,NA,NA,NA,NA,NA,NA,NA,NA,NA,NA,NA,NA,NA,NA,NA,NA,NA,NA,NA,NA,NA,NA,NA,NA,NA,NA,NA,NA,NA,NA,NA,NA,NA,NA,NA,NA,NA,NA,NA,NA,NA,NA,NA,NA,NA,NA,NA,NA,NA,NA,NA,NA,10,0,10,0,1
SUPAMT14988,3VE8AYVF8SWNY0ECGJSEMLL2JWZF88,83E6CDF1-C43C-4D7B-8995-E678F9336FAE,2023-09-28_09h50.08.185,WP_VExplicitOC_HL,2022.2.5,Win32,3.2,75.74074074,4.047,2.274,NA,NA,NA,NA,NA,frustrated,"frustrated, not frustrated","more frustrated, less frustrated",NA,NA,NA,NA,NA,NA,NA,NA,NA,NA,NA,NA,NA,NA,NA,NA,NA,NA,NA,NA,NA,NA,NA,NA,NA,NA,NA,NA,NA,NA,NA,NA,NA,NA,NA,NA,NA,NA,0,0,0,1,1,NA,NA,NA,NA,NA
SUPAMT14988,3VE8AYVF8SWNY0ECGJSEMLL2JWZF88,83E6CDF1-C43C-4D7B-8995-E678F9336FAE,2023-09-28_09h50.08.185,WP_VExplicitOC_HL,2022.2.5,Win32,3.2,97.22222222,3.52,2.089,NA,NA,NA,NA,NA,bored,"bored, not bored","more bored, less bored",NA,NA,NA,NA,NA,NA,NA,NA,NA,NA,NA,NA,NA,NA,NA,NA,NA,NA,NA,NA,NA,NA,NA,NA,NA,NA,NA,NA,NA,NA,NA,NA,NA,NA,NA,NA,NA,NA,0,1,1,2,1,NA,NA,NA,NA,NA
SUPAMT14988,3VE8AYVF8SWNY0ECGJSEMLL2JWZF88,83E6CDF1-C43C-4D7B-8995-E678F9336FAE,2023-09-28_09h50.08.185,WP_VExplicitOC_HL,2022.2.5,Win32,3.2,99.44444444,3.691,2.08,NA,NA,NA,NA,NA,happy,"unhappy, happy","less happy, more happy",NA,NA,NA,NA,NA,NA,NA,NA,NA,NA,NA,NA,NA,NA,NA,NA,NA,NA,NA,NA,NA,NA,NA,NA,NA,NA,NA,NA,NA,NA,NA,NA,NA,NA,NA,NA,NA,NA,0,2,2,0,1,NA,NA,NA,NA,NA
SUPAMT14988,3VE8AYVF8SWNY0ECGJSEMLL2JWZF88,83E6CDF1-C43C-4D7B-8995-E678F9336FAE,2023-09-28_09h50.08.185,WP_VExplicitOC_HL,2022.2.5,Win32,3.2,NA,NA,NA,NA,NA,NA,NA,NA,NA,NA,NA,NA,NA,NA,NA,NA,NA,NA,NA,NA,NA,NA,NA,NA,NA,NA,NA,NA,NA,NA,NA,NA,NA,NA,NA,NA,NA,NA,NA,NA,NA,NA,NA,NA,NA,NA,NA,NA,NA,NA,NA,NA,NA,NA,11,0,11,0,1
SUPAMT14988,3VE8AYVF8SWNY0ECGJSEMLL2JWZF88,83E6CDF1-C43C-4D7B-8995-E678F9336FAE,2023-09-28_09h50.08.185,WP_VExplicitOC_HL,2022.2.5,Win32,3.2,85.18518519,2.928,2.274,NA,NA,NA,NA,NA,bored,"bored, not bored","more bored, less bored",NA,NA,NA,NA,NA,NA,NA,NA,NA,NA,NA,NA,NA,NA,NA,NA,NA,NA,NA,NA,NA,NA,NA,NA,NA,NA,NA,NA,NA,NA,NA,NA,NA,NA,NA,NA,NA,NA,0,0,0,2,1,NA,NA,NA,NA,NA
SUPAMT14988,3VE8AYVF8SWNY0ECGJSEMLL2JWZF88,83E6CDF1-C43C-4D7B-8995-E678F9336FAE,2023-09-28_09h50.08.185,WP_VExplicitOC_HL,2022.2.5,Win32,3.2,97.03703704,6.659,2.071,NA,NA,NA,NA,NA,frustrated,"frustrated, not frustrated","more frustrated, less frustrated",NA,NA,NA,NA,NA,NA,NA,NA,NA,NA,NA,NA,NA,NA,NA,NA,NA,NA,NA,NA,NA,NA,NA,NA,NA,NA,NA,NA,NA,NA,NA,NA,NA,NA,NA,NA,NA,NA,0,1,1,1,1,NA,NA,NA,NA,NA
SUPAMT14988,3VE8AYVF8SWNY0ECGJSEMLL2JWZF88,83E6CDF1-C43C-4D7B-8995-E678F9336FAE,2023-09-28_09h50.08.185,WP_VExplicitOC_HL,2022.2.5,Win32,3.2,90.37037037,2.454,2.078,NA,NA,NA,NA,NA,happy,"unhappy, happy","less happy, more happy",NA,NA,NA,NA,NA,NA,NA,NA,NA,NA,NA,NA,NA,NA,NA,NA,NA,NA,NA,NA,NA,NA,NA,NA,NA,NA,NA,NA,NA,NA,NA,NA,NA,NA,NA,NA,NA,NA,0,2,2,0,1,NA,NA,NA,NA,NA
SUPAMT14988,3VE8AYVF8SWNY0ECGJSEMLL2JWZF88,83E6CDF1-C43C-4D7B-8995-E678F9336FAE,2023-09-28_09h50.08.185,WP_VExplicitOC_HL,2022.2.5,Win32,3.2,NA,NA,NA,NA,NA,NA,NA,NA,NA,NA,NA,NA,NA,NA,NA,NA,NA,NA,NA,NA,NA,NA,NA,NA,NA,NA,NA,NA,NA,NA,NA,NA,NA,NA,NA,NA,NA,NA,NA,NA,NA,NA,NA,NA,NA,NA,NA,NA,NA,NA,NA,NA,NA,NA,12,0,12,0,1
SUPAMT14988,3VE8AYVF8SWNY0ECGJSEMLL2JWZF88,83E6CDF1-C43C-4D7B-8995-E678F9336FAE,2023-09-28_09h50.08.185,WP_VExplicitOC_HL,2022.2.5,Win32,3.2,NA,NA,2.111,NA,NA,NA,NA,NA,bored,"bored, not bored","more bored, less bored",NA,NA,NA,NA,NA,NA,NA,NA,NA,NA,NA,NA,NA,NA,NA,NA,NA,NA,NA,NA,NA,NA,NA,NA,NA,NA,NA,NA,NA,NA,NA,NA,NA,NA,NA,NA,NA,NA,0,0,0,2,1,NA,NA,NA,NA,NA
SUPAMT14988,3VE8AYVF8SWNY0ECGJSEMLL2JWZF88,83E6CDF1-C43C-4D7B-8995-E678F9336FAE,2023-09-28_09h50.08.185,WP_VExplicitOC_HL,2022.2.5,Win32,3.2,85.18518519,7.118,2.006,NA,NA,NA,NA,NA,happy,"unhappy, happy","less happy, more happy",NA,NA,NA,NA,NA,NA,NA,NA,NA,NA,NA,NA,NA,NA,NA,NA,NA,NA,NA,NA,NA,NA,NA,NA,NA,NA,NA,NA,NA,NA,NA,NA,NA,NA,NA,NA,NA,NA,0,1,1,0,1,NA,NA,NA,NA,NA
SUPAMT14988,3VE8AYVF8SWNY0ECGJSEMLL2JWZF88,83E6CDF1-C43C-4D7B-8995-E678F9336FAE,2023-09-28_09h50.08.185,WP_VExplicitOC_HL,2022.2.5,Win32,3.2,99.62962963,2.648,2.011,NA,NA,NA,NA,NA,frustrated,"frustrated, not frustrated","more frustrated, less frustrated",NA,NA,NA,NA,NA,NA,NA,NA,NA,NA,NA,NA,NA,NA,NA,NA,NA,NA,NA,NA,NA,NA,NA,NA,NA,NA,NA,NA,NA,NA,NA,NA,NA,NA,NA,NA,NA,NA,0,2,2,1,1,NA,NA,NA,NA,NA
SUPAMT14988,3VE8AYVF8SWNY0ECGJSEMLL2JWZF88,83E6CDF1-C43C-4D7B-8995-E678F9336FAE,2023-09-28_09h50.08.185,WP_VExplicitOC_HL,2022.2.5,Win32,3.2,NA,NA,NA,NA,NA,NA,NA,NA,NA,NA,NA,NA,NA,NA,NA,NA,NA,NA,NA,NA,NA,NA,NA,NA,NA,NA,NA,NA,NA,NA,NA,NA,NA,NA,NA,NA,NA,NA,NA,NA,NA,NA,NA,NA,NA,NA,NA,NA,NA,NA,NA,NA,NA,NA,13,0,13,0,1
SUPAMT14988,3VE8AYVF8SWNY0ECGJSEMLL2JWZF88,83E6CDF1-C43C-4D7B-8995-E678F9336FAE,2023-09-28_09h50.08.185,WP_VExplicitOC_HL,2022.2.5,Win32,3.2,NA,NA,2.26,NA,NA,NA,NA,NA,happy,"unhappy, happy","less happy, more happy",NA,NA,NA,NA,NA,NA,NA,NA,NA,NA,NA,NA,NA,NA,NA,NA,NA,NA,NA,NA,NA,NA,NA,NA,NA,NA,NA,NA,NA,NA,NA,NA,NA,NA,NA,NA,NA,NA,0,0,0,0,1,NA,NA,NA,NA,NA
SUPAMT14988,3VE8AYVF8SWNY0ECGJSEMLL2JWZF88,83E6CDF1-C43C-4D7B-8995-E678F9336FAE,2023-09-28_09h50.08.185,WP_VExplicitOC_HL,2022.2.5,Win32,3.2,NA,NA,2.015,NA,NA,NA,NA,NA,frustrated,"frustrated, not frustrated","more frustrated, less frustrated",NA,NA,NA,NA,NA,NA,NA,NA,NA,NA,NA,NA,NA,NA,NA,NA,NA,NA,NA,NA,NA,NA,NA,NA,NA,NA,NA,NA,NA,NA,NA,NA,NA,NA,NA,NA,NA,NA,0,1,1,1,1,NA,NA,NA,NA,NA
SUPAMT14988,3VE8AYVF8SWNY0ECGJSEMLL2JWZF88,83E6CDF1-C43C-4D7B-8995-E678F9336FAE,2023-09-28_09h50.08.185,WP_VExplicitOC_HL,2022.2.5,Win32,3.2,NA,NA,2.091,NA,NA,NA,NA,NA,bored,"bored, not bored","more bored, less bored",NA,NA,NA,NA,NA,NA,NA,NA,NA,NA,NA,NA,NA,NA,NA,NA,NA,NA,NA,NA,NA,NA,NA,NA,NA,NA,NA,NA,NA,NA,NA,NA,NA,NA,NA,NA,NA,NA,0,2,2,2,1,NA,NA,NA,NA,NA
SUPAMT14988,3VE8AYVF8SWNY0ECGJSEMLL2JWZF88,83E6CDF1-C43C-4D7B-8995-E678F9336FAE,2023-09-28_09h50.08.185,WP_VExplicitOC_HL,2022.2.5,Win32,3.2,NA,NA,NA,NA,NA,NA,NA,NA,NA,NA,NA,NA,NA,NA,NA,NA,NA,NA,NA,NA,NA,NA,NA,NA,NA,NA,NA,NA,NA,NA,NA,NA,NA,NA,NA,NA,NA,NA,NA,NA,NA,NA,NA,NA,NA,NA,NA,NA,NA,NA,NA,NA,NA,NA,14,0,14,0,1
SUPAMT14988,3VE8AYVF8SWNY0ECGJSEMLL2JWZF88,83E6CDF1-C43C-4D7B-8995-E678F9336FAE,2023-09-28_09h50.08.185,WP_VExplicitOC_HL,2022.2.5,Win32,3.2,NA,NA,NA,NA,NA,NA,NA,NA,NA,NA,NA,NA,NA,NA,NA,NA,NA,NA,NA,NA,NA,NA,NA,NA,NA,NA,NA,NA,NA,NA,NA,NA,NA,NA,NA,NA,NA,NA,NA,NA,NA,NA,NA,NA,NA,NA,NA,NA,NA,NA,NA,NA,NA,NA,NA,NA,NA,NA,NA
