participant,session,completion,date,expName,psychopyVersion,OS,frameRate,rating_all.response,rating_all.rt,rating_all.tStart,rndRat1.thisRepN,rndRat1.thisTrialN,rndRat1.thisN,rndRat1.thisIndex,rndRat1.ran,Emo,Labs,Labs2,rating_alt.response,rating_alt.rt,AltC.thisRepN,AltC.thisTrialN,AltC.thisN,AltC.thisIndex,AltC.ran,alt_choices,pic_choices,TopAlt_Choice,rndRat2.thisRepN,rndRat2.thisTrialN,rndRat2.thisN,rndRat2.thisIndex,rndRat2.ran,rndRat3.thisRepN,rndRat3.thisTrialN,rndRat3.thisN,rndRat3.thisIndex,rndRat3.ran,trials_FC_H.thisRepN,trials_FC_H.thisTrialN,trials_FC_H.thisN,trials_FC_H.thisIndex,trials_FC_H.ran,rating_alt_2.response,rating_alt_2.rt,AltC2.thisRepN,AltC2.thisTrialN,AltC2.thisN,AltC2.thisIndex,AltC2.ran,BottomAlt_Choice,rndRat4.thisRepN,rndRat4.thisTrialN,rndRat4.thisN,rndRat4.thisIndex,rndRat4.ran,rndRat5.thisRepN,rndRat5.thisTrialN,rndRat5.thisN,rndRat5.thisIndex,rndRat5.ran,trials_FC_L.thisRepN,trials_FC_L.thisTrialN,trials_FC_L.thisN,trials_FC_L.thisIndex,trials_FC_L.ran
SUPAMT13490,3TAYZSBPLR7LGQH96MJCJTREMS8S2K,A3DC18A2-7C81-42A1-89EC-D7A5E3180AC2,2023-09-29_13h10.02.263,WP_VExplicitOC_HL,2022.2.5,Win32,6.666933344,NA,NA,NA,NA,NA,NA,NA,NA,NA,NA,NA,NA,NA,NA,NA,NA,NA,NA,NA,NA,NA,NA,NA,NA,NA,NA,NA,NA,NA,NA,NA,NA,NA,NA,NA,NA,NA,NA,NA,NA,NA,NA,NA,NA,NA,NA,NA,NA,NA,NA,NA,NA,NA,NA,NA,NA,NA,NA,NA
SUPAMT13490,3TAYZSBPLR7LGQH96MJCJTREMS8S2K,A3DC18A2-7C81-42A1-89EC-D7A5E3180AC2,2023-09-29_13h10.02.263,WP_VExplicitOC_HL,2022.2.5,Win32,6.666933344,NA,NA,NA,NA,NA,NA,NA,NA,NA,NA,NA,NA,NA,NA,NA,NA,NA,NA,NA,NA,NA,NA,NA,NA,NA,NA,NA,NA,NA,NA,NA,NA,NA,NA,NA,NA,NA,NA,NA,NA,NA,NA,NA,NA,NA,NA,NA,NA,NA,NA,NA,NA,NA,NA,NA,NA,NA,NA,NA
SUPAMT13490,3TAYZSBPLR7LGQH96MJCJTREMS8S2K,A3DC18A2-7C81-42A1-89EC-D7A5E3180AC2,2023-09-29_13h10.02.263,WP_VExplicitOC_HL,2022.2.5,Win32,6.666933344,NA,NA,NA,NA,NA,NA,NA,NA,NA,NA,NA,NA,NA,NA,NA,NA,NA,NA,NA,NA,NA,NA,NA,NA,NA,NA,NA,NA,NA,NA,NA,NA,NA,NA,NA,NA,NA,NA,NA,NA,NA,NA,NA,NA,NA,NA,NA,NA,NA,NA,NA,NA,NA,NA,NA,NA,NA,NA,NA
SUPAMT13490,3TAYZSBPLR7LGQH96MJCJTREMS8S2K,A3DC18A2-7C81-42A1-89EC-D7A5E3180AC2,2023-09-29_13h10.02.263,WP_VExplicitOC_HL,2022.2.5,Win32,6.666933344,66.14583333,4.223,2.063,0,0,0,0,1,happy,"unhappy, happy","less happy, more happy",NA,NA,NA,NA,NA,NA,NA,NA,NA,NA,NA,NA,NA,NA,NA,NA,NA,NA,NA,NA,NA,NA,NA,NA,NA,NA,NA,NA,NA,NA,NA,NA,NA,NA,NA,NA,NA,NA,NA,NA,NA,NA,NA,NA,NA,NA,NA,NA
SUPAMT13490,3TAYZSBPLR7LGQH96MJCJTREMS8S2K,A3DC18A2-7C81-42A1-89EC-D7A5E3180AC2,2023-09-29_13h10.02.263,WP_VExplicitOC_HL,2022.2.5,Win32,6.666933344,-60.67708333,3.544,2.082,0,1,1,2,1,bored,"bored, not bored","more bored, less bored",NA,NA,NA,NA,NA,NA,NA,NA,NA,NA,NA,NA,NA,NA,NA,NA,NA,NA,NA,NA,NA,NA,NA,NA,NA,NA,NA,NA,NA,NA,NA,NA,NA,NA,NA,NA,NA,NA,NA,NA,NA,NA,NA,NA,NA,NA,NA,NA
SUPAMT13490,3TAYZSBPLR7LGQH96MJCJTREMS8S2K,A3DC18A2-7C81-42A1-89EC-D7A5E3180AC2,2023-09-29_13h10.02.263,WP_VExplicitOC_HL,2022.2.5,Win32,6.666933344,87.76041667,3.414,2.017,0,2,2,1,1,frustrated,"frustrated, not frustrated","more frustrated, less frustrated",NA,NA,NA,NA,NA,NA,NA,NA,NA,NA,NA,NA,NA,NA,NA,NA,NA,NA,NA,NA,NA,NA,NA,NA,NA,NA,NA,NA,NA,NA,NA,NA,NA,NA,NA,NA,NA,NA,NA,NA,NA,NA,NA,NA,NA,NA,NA,NA
SUPAMT13490,3TAYZSBPLR7LGQH96MJCJTREMS8S2K,A3DC18A2-7C81-42A1-89EC-D7A5E3180AC2,2023-09-29_13h10.02.263,WP_VExplicitOC_HL,2022.2.5,Win32,6.666933344,NA,NA,NA,NA,NA,NA,NA,NA,NA,NA,NA,NA,NA,NA,NA,NA,NA,NA,NA,NA,NA,NA,NA,NA,NA,NA,NA,NA,NA,NA,NA,NA,NA,NA,NA,NA,NA,NA,NA,NA,NA,NA,NA,NA,NA,NA,NA,NA,NA,NA,NA,NA,NA,NA,NA,NA,NA,NA,NA
SUPAMT13490,3TAYZSBPLR7LGQH96MJCJTREMS8S2K,A3DC18A2-7C81-42A1-89EC-D7A5E3180AC2,2023-09-29_13h10.02.263,WP_VExplicitOC_HL,2022.2.5,Win32,6.666933344,NA,NA,NA,NA,NA,NA,NA,NA,NA,NA,NA,NA,NA,NA,NA,NA,NA,NA,NA,NA,NA,NA,NA,NA,NA,NA,NA,NA,NA,NA,NA,NA,NA,NA,NA,NA,NA,NA,NA,NA,NA,NA,NA,NA,NA,NA,NA,NA,NA,NA,NA,NA,NA,NA,NA,NA,NA,NA,NA
SUPAMT13490,3TAYZSBPLR7LGQH96MJCJTREMS8S2K,A3DC18A2-7C81-42A1-89EC-D7A5E3180AC2,2023-09-29_13h10.02.263,WP_VExplicitOC_HL,2022.2.5,Win32,6.666933344,NA,NA,NA,NA,NA,NA,NA,NA,NA,NA,NA,NA,NA,NA,NA,NA,NA,NA,NA,NA,NA,NA,NA,NA,NA,NA,NA,NA,NA,NA,NA,NA,NA,NA,NA,NA,NA,NA,NA,NA,NA,NA,NA,NA,NA,NA,NA,NA,NA,NA,NA,NA,NA,NA,NA,NA,NA,NA,NA
SUPAMT13490,3TAYZSBPLR7LGQH96MJCJTREMS8S2K,A3DC18A2-7C81-42A1-89EC-D7A5E3180AC2,2023-09-29_13h10.02.263,WP_VExplicitOC_HL,2022.2.5,Win32,6.666933344,NA,NA,NA,NA,NA,NA,NA,NA,NA,NA,NA,NA,NA,NA,NA,NA,NA,NA,NA,NA,NA,NA,NA,NA,NA,NA,NA,NA,NA,NA,NA,NA,NA,NA,NA,NA,NA,NA,NA,NA,NA,NA,NA,NA,NA,NA,NA,NA,NA,NA,NA,NA,NA,NA,NA,NA,NA,NA,NA
SUPAMT13490,3TAYZSBPLR7LGQH96MJCJTREMS8S2K,A3DC18A2-7C81-42A1-89EC-D7A5E3180AC2,2023-09-29_13h10.02.263,WP_VExplicitOC_HL,2022.2.5,Win32,6.666933344,NA,NA,NA,NA,NA,NA,NA,NA,NA,NA,NA,42.44791667,1.918,0,0,0,0,1,rest (looking at a fixed cross),001.png,NA,NA,NA,NA,NA,NA,NA,NA,NA,NA,NA,NA,NA,NA,NA,NA,NA,NA,NA,NA,NA,NA,NA,NA,NA,NA,NA,NA,NA,NA,NA,NA,NA,NA,NA,NA,NA,NA,NA
SUPAMT13490,3TAYZSBPLR7LGQH96MJCJTREMS8S2K,A3DC18A2-7C81-42A1-89EC-D7A5E3180AC2,2023-09-29_13h10.02.263,WP_VExplicitOC_HL,2022.2.5,Win32,6.666933344,NA,NA,NA,NA,NA,NA,NA,NA,NA,NA,NA,31.25,1.943,0,1,1,1,1,stand up,002.png,NA,NA,NA,NA,NA,NA,NA,NA,NA,NA,NA,NA,NA,NA,NA,NA,NA,NA,NA,NA,NA,NA,NA,NA,NA,NA,NA,NA,NA,NA,NA,NA,NA,NA,NA,NA,NA,NA,NA
SUPAMT13490,3TAYZSBPLR7LGQH96MJCJTREMS8S2K,A3DC18A2-7C81-42A1-89EC-D7A5E3180AC2,2023-09-29_13h10.02.263,WP_VExplicitOC_HL,2022.2.5,Win32,6.666933344,NA,NA,NA,NA,NA,NA,NA,NA,NA,NA,NA,74.73958333,1.719,0,2,2,2,1,stretch,003.png,NA,NA,NA,NA,NA,NA,NA,NA,NA,NA,NA,NA,NA,NA,NA,NA,NA,NA,NA,NA,NA,NA,NA,NA,NA,NA,NA,NA,NA,NA,NA,NA,NA,NA,NA,NA,NA,NA,NA
SUPAMT13490,3TAYZSBPLR7LGQH96MJCJTREMS8S2K,A3DC18A2-7C81-42A1-89EC-D7A5E3180AC2,2023-09-29_13h10.02.263,WP_VExplicitOC_HL,2022.2.5,Win32,6.666933344,NA,NA,NA,NA,NA,NA,NA,NA,NA,NA,NA,91.66666667,1.931,0,3,3,3,1,make a drink,004.png,NA,NA,NA,NA,NA,NA,NA,NA,NA,NA,NA,NA,NA,NA,NA,NA,NA,NA,NA,NA,NA,NA,NA,NA,NA,NA,NA,NA,NA,NA,NA,NA,NA,NA,NA,NA,NA,NA,NA
SUPAMT13490,3TAYZSBPLR7LGQH96MJCJTREMS8S2K,A3DC18A2-7C81-42A1-89EC-D7A5E3180AC2,2023-09-29_13h10.02.263,WP_VExplicitOC_HL,2022.2.5,Win32,6.666933344,NA,NA,NA,NA,NA,NA,NA,NA,NA,NA,NA,-51.30208333,1.741,0,4,4,4,1,scroll social media,005.png,NA,NA,NA,NA,NA,NA,NA,NA,NA,NA,NA,NA,NA,NA,NA,NA,NA,NA,NA,NA,NA,NA,NA,NA,NA,NA,NA,NA,NA,NA,NA,NA,NA,NA,NA,NA,NA,NA,NA
SUPAMT13490,3TAYZSBPLR7LGQH96MJCJTREMS8S2K,A3DC18A2-7C81-42A1-89EC-D7A5E3180AC2,2023-09-29_13h10.02.263,WP_VExplicitOC_HL,2022.2.5,Win32,6.666933344,NA,NA,NA,NA,NA,NA,NA,NA,NA,NA,NA,90.625,1.715,0,5,5,5,1,listen to music,006.png,NA,NA,NA,NA,NA,NA,NA,NA,NA,NA,NA,NA,NA,NA,NA,NA,NA,NA,NA,NA,NA,NA,NA,NA,NA,NA,NA,NA,NA,NA,NA,NA,NA,NA,NA,NA,NA,NA,NA
SUPAMT13490,3TAYZSBPLR7LGQH96MJCJTREMS8S2K,A3DC18A2-7C81-42A1-89EC-D7A5E3180AC2,2023-09-29_13h10.02.263,WP_VExplicitOC_HL,2022.2.5,Win32,6.666933344,NA,NA,NA,NA,NA,NA,NA,NA,NA,NA,NA,-84.375,1.933,0,6,6,6,1,daydream,007.png,NA,NA,NA,NA,NA,NA,NA,NA,NA,NA,NA,NA,NA,NA,NA,NA,NA,NA,NA,NA,NA,NA,NA,NA,NA,NA,NA,NA,NA,NA,NA,NA,NA,NA,NA,NA,NA,NA,NA
SUPAMT13490,3TAYZSBPLR7LGQH96MJCJTREMS8S2K,A3DC18A2-7C81-42A1-89EC-D7A5E3180AC2,2023-09-29_13h10.02.263,WP_VExplicitOC_HL,2022.2.5,Win32,6.666933344,NA,NA,NA,NA,NA,NA,NA,NA,NA,NA,NA,42.70833333,1.952,0,7,7,7,1,watch a short animation,008.png,NA,NA,NA,NA,NA,NA,NA,NA,NA,NA,NA,NA,NA,NA,NA,NA,NA,NA,NA,NA,NA,NA,NA,NA,NA,NA,NA,NA,NA,NA,NA,NA,NA,NA,NA,NA,NA,NA,NA
SUPAMT13490,3TAYZSBPLR7LGQH96MJCJTREMS8S2K,A3DC18A2-7C81-42A1-89EC-D7A5E3180AC2,2023-09-29_13h10.02.263,WP_VExplicitOC_HL,2022.2.5,Win32,6.666933344,NA,NA,NA,NA,NA,NA,NA,NA,NA,NA,NA,66.66666667,1.743,0,8,8,8,1,read a novel,009.png,NA,NA,NA,NA,NA,NA,NA,NA,NA,NA,NA,NA,NA,NA,NA,NA,NA,NA,NA,NA,NA,NA,NA,NA,NA,NA,NA,NA,NA,NA,NA,NA,NA,NA,NA,NA,NA,NA,NA
SUPAMT13490,3TAYZSBPLR7LGQH96MJCJTREMS8S2K,A3DC18A2-7C81-42A1-89EC-D7A5E3180AC2,2023-09-29_13h10.02.263,WP_VExplicitOC_HL,2022.2.5,Win32,6.666933344,NA,NA,NA,NA,NA,NA,NA,NA,NA,NA,NA,-33.85416667,1.966,0,9,9,9,1,read the news,010.png,NA,NA,NA,NA,NA,NA,NA,NA,NA,NA,NA,NA,NA,NA,NA,NA,NA,NA,NA,NA,NA,NA,NA,NA,NA,NA,NA,NA,NA,NA,NA,NA,NA,NA,NA,NA,NA,NA,NA
SUPAMT13490,3TAYZSBPLR7LGQH96MJCJTREMS8S2K,A3DC18A2-7C81-42A1-89EC-D7A5E3180AC2,2023-09-29_13h10.02.263,WP_VExplicitOC_HL,2022.2.5,Win32,6.666933344,NA,NA,NA,NA,NA,NA,NA,NA,NA,NA,NA,NA,NA,NA,NA,NA,NA,NA,NA,NA,NA,NA,NA,NA,NA,NA,NA,NA,NA,NA,NA,NA,NA,NA,NA,NA,NA,NA,NA,NA,NA,NA,NA,NA,NA,NA,NA,NA,NA,NA,NA,NA,NA,NA,NA,NA,NA,NA,NA
SUPAMT13490,3TAYZSBPLR7LGQH96MJCJTREMS8S2K,A3DC18A2-7C81-42A1-89EC-D7A5E3180AC2,2023-09-29_13h10.02.263,WP_VExplicitOC_HL,2022.2.5,Win32,6.666933344,NA,NA,NA,NA,NA,NA,NA,NA,NA,NA,NA,NA,NA,NA,NA,NA,NA,NA,NA,NA,make a drink,NA,NA,NA,NA,NA,NA,NA,NA,NA,NA,NA,NA,NA,NA,NA,NA,NA,NA,NA,NA,NA,NA,NA,NA,NA,NA,NA,NA,NA,NA,NA,NA,NA,NA,NA,NA,NA,NA
SUPAMT13490,3TAYZSBPLR7LGQH96MJCJTREMS8S2K,A3DC18A2-7C81-42A1-89EC-D7A5E3180AC2,2023-09-29_13h10.02.263,WP_VExplicitOC_HL,2022.2.5,Win32,6.666933344,56.25,3.734,2.037,NA,NA,NA,NA,NA,happy,"unhappy, happy","less happy, more happy",NA,NA,NA,NA,NA,NA,NA,NA,NA,NA,0,0,0,0,1,NA,NA,NA,NA,NA,NA,NA,NA,NA,NA,NA,NA,NA,NA,NA,NA,NA,NA,NA,NA,NA,NA,NA,NA,NA,NA,NA,NA,NA,NA,NA,NA,NA
SUPAMT13490,3TAYZSBPLR7LGQH96MJCJTREMS8S2K,A3DC18A2-7C81-42A1-89EC-D7A5E3180AC2,2023-09-29_13h10.02.263,WP_VExplicitOC_HL,2022.2.5,Win32,6.666933344,50.78125,3.598,2.034,NA,NA,NA,NA,NA,frustrated,"frustrated, not frustrated","more frustrated, less frustrated",NA,NA,NA,NA,NA,NA,NA,NA,NA,NA,0,1,1,1,1,NA,NA,NA,NA,NA,NA,NA,NA,NA,NA,NA,NA,NA,NA,NA,NA,NA,NA,NA,NA,NA,NA,NA,NA,NA,NA,NA,NA,NA,NA,NA,NA,NA
SUPAMT13490,3TAYZSBPLR7LGQH96MJCJTREMS8S2K,A3DC18A2-7C81-42A1-89EC-D7A5E3180AC2,2023-09-29_13h10.02.263,WP_VExplicitOC_HL,2022.2.5,Win32,6.666933344,-53.90625,3.498,2.049,NA,NA,NA,NA,NA,bored,"bored, not bored","more bored, less bored",NA,NA,NA,NA,NA,NA,NA,NA,NA,NA,0,2,2,2,1,NA,NA,NA,NA,NA,NA,NA,NA,NA,NA,NA,NA,NA,NA,NA,NA,NA,NA,NA,NA,NA,NA,NA,NA,NA,NA,NA,NA,NA,NA,NA,NA,NA
SUPAMT13490,3TAYZSBPLR7LGQH96MJCJTREMS8S2K,A3DC18A2-7C81-42A1-89EC-D7A5E3180AC2,2023-09-29_13h10.02.263,WP_VExplicitOC_HL,2022.2.5,Win32,6.666933344,NA,NA,NA,NA,NA,NA,NA,NA,NA,NA,NA,NA,NA,NA,NA,NA,NA,NA,NA,NA,NA,NA,NA,NA,NA,NA,NA,NA,NA,NA,NA,NA,NA,NA,NA,NA,NA,NA,NA,NA,NA,NA,NA,NA,NA,NA,NA,NA,NA,NA,NA,NA,NA,NA,NA,NA,NA,NA,NA
SUPAMT13490,3TAYZSBPLR7LGQH96MJCJTREMS8S2K,A3DC18A2-7C81-42A1-89EC-D7A5E3180AC2,2023-09-29_13h10.02.263,WP_VExplicitOC_HL,2022.2.5,Win32,6.666933344,NA,NA,NA,NA,NA,NA,NA,NA,NA,NA,NA,NA,NA,NA,NA,NA,NA,NA,NA,NA,NA,NA,NA,NA,NA,NA,NA,NA,NA,NA,NA,NA,NA,NA,NA,NA,NA,NA,NA,NA,NA,NA,NA,NA,NA,NA,NA,NA,NA,NA,NA,NA,NA,NA,NA,NA,NA,NA,NA
SUPAMT13490,3TAYZSBPLR7LGQH96MJCJTREMS8S2K,A3DC18A2-7C81-42A1-89EC-D7A5E3180AC2,2023-09-29_13h10.02.263,WP_VExplicitOC_HL,2022.2.5,Win32,6.666933344,60.67708333,3.747,2.154,NA,NA,NA,NA,NA,happy,"unhappy, happy","less happy, more happy",NA,NA,NA,NA,NA,NA,NA,NA,NA,NA,NA,NA,NA,NA,NA,0,0,0,0,1,NA,NA,NA,NA,NA,NA,NA,NA,NA,NA,NA,NA,NA,NA,NA,NA,NA,NA,NA,NA,NA,NA,NA,NA,NA,NA,NA,NA
SUPAMT13490,3TAYZSBPLR7LGQH96MJCJTREMS8S2K,A3DC18A2-7C81-42A1-89EC-D7A5E3180AC2,2023-09-29_13h10.02.263,WP_VExplicitOC_HL,2022.2.5,Win32,6.666933344,59.89583333,3.624,2.101,NA,NA,NA,NA,NA,bored,"bored, not bored","more bored, less bored",NA,NA,NA,NA,NA,NA,NA,NA,NA,NA,NA,NA,NA,NA,NA,0,1,1,2,1,NA,NA,NA,NA,NA,NA,NA,NA,NA,NA,NA,NA,NA,NA,NA,NA,NA,NA,NA,NA,NA,NA,NA,NA,NA,NA,NA,NA
SUPAMT13490,3TAYZSBPLR7LGQH96MJCJTREMS8S2K,A3DC18A2-7C81-42A1-89EC-D7A5E3180AC2,2023-09-29_13h10.02.263,WP_VExplicitOC_HL,2022.2.5,Win32,6.666933344,-57.29166667,3.416,2.083,NA,NA,NA,NA,NA,frustrated,"frustrated, not frustrated","more frustrated, less frustrated",NA,NA,NA,NA,NA,NA,NA,NA,NA,NA,NA,NA,NA,NA,NA,0,2,2,1,1,NA,NA,NA,NA,NA,NA,NA,NA,NA,NA,NA,NA,NA,NA,NA,NA,NA,NA,NA,NA,NA,NA,NA,NA,NA,NA,NA,NA
SUPAMT13490,3TAYZSBPLR7LGQH96MJCJTREMS8S2K,A3DC18A2-7C81-42A1-89EC-D7A5E3180AC2,2023-09-29_13h10.02.263,WP_VExplicitOC_HL,2022.2.5,Win32,6.666933344,NA,NA,NA,NA,NA,NA,NA,NA,NA,NA,NA,NA,NA,NA,NA,NA,NA,NA,NA,NA,NA,NA,NA,NA,NA,NA,NA,NA,NA,NA,NA,0,0,0,0,1,NA,NA,NA,NA,NA,NA,NA,NA,NA,NA,NA,NA,NA,NA,NA,NA,NA,NA,NA,NA,NA,NA,NA
SUPAMT13490,3TAYZSBPLR7LGQH96MJCJTREMS8S2K,A3DC18A2-7C81-42A1-89EC-D7A5E3180AC2,2023-09-29_13h10.02.263,WP_VExplicitOC_HL,2022.2.5,Win32,6.666933344,62.23958333,3.667,2.119,NA,NA,NA,NA,NA,frustrated,"frustrated, not frustrated","more frustrated, less frustrated",NA,NA,NA,NA,NA,NA,NA,NA,NA,NA,NA,NA,NA,NA,NA,0,0,0,1,1,NA,NA,NA,NA,NA,NA,NA,NA,NA,NA,NA,NA,NA,NA,NA,NA,NA,NA,NA,NA,NA,NA,NA,NA,NA,NA,NA,NA
SUPAMT13490,3TAYZSBPLR7LGQH96MJCJTREMS8S2K,A3DC18A2-7C81-42A1-89EC-D7A5E3180AC2,2023-09-29_13h10.02.263,WP_VExplicitOC_HL,2022.2.5,Win32,6.666933344,63.54166667,3.375,2.048,NA,NA,NA,NA,NA,happy,"unhappy, happy","less happy, more happy",NA,NA,NA,NA,NA,NA,NA,NA,NA,NA,NA,NA,NA,NA,NA,0,1,1,0,1,NA,NA,NA,NA,NA,NA,NA,NA,NA,NA,NA,NA,NA,NA,NA,NA,NA,NA,NA,NA,NA,NA,NA,NA,NA,NA,NA,NA
SUPAMT13490,3TAYZSBPLR7LGQH96MJCJTREMS8S2K,A3DC18A2-7C81-42A1-89EC-D7A5E3180AC2,2023-09-29_13h10.02.263,WP_VExplicitOC_HL,2022.2.5,Win32,6.666933344,-88.28125,3.357,2.149,NA,NA,NA,NA,NA,bored,"bored, not bored","more bored, less bored",NA,NA,NA,NA,NA,NA,NA,NA,NA,NA,NA,NA,NA,NA,NA,0,2,2,2,1,NA,NA,NA,NA,NA,NA,NA,NA,NA,NA,NA,NA,NA,NA,NA,NA,NA,NA,NA,NA,NA,NA,NA,NA,NA,NA,NA,NA
SUPAMT13490,3TAYZSBPLR7LGQH96MJCJTREMS8S2K,A3DC18A2-7C81-42A1-89EC-D7A5E3180AC2,2023-09-29_13h10.02.263,WP_VExplicitOC_HL,2022.2.5,Win32,6.666933344,NA,NA,NA,NA,NA,NA,NA,NA,NA,NA,NA,NA,NA,NA,NA,NA,NA,NA,NA,NA,NA,NA,NA,NA,NA,NA,NA,NA,NA,NA,NA,1,0,1,0,1,NA,NA,NA,NA,NA,NA,NA,NA,NA,NA,NA,NA,NA,NA,NA,NA,NA,NA,NA,NA,NA,NA,NA
SUPAMT13490,3TAYZSBPLR7LGQH96MJCJTREMS8S2K,A3DC18A2-7C81-42A1-89EC-D7A5E3180AC2,2023-09-29_13h10.02.263,WP_VExplicitOC_HL,2022.2.5,Win32,6.666933344,68.48958333,3.735,2.038,NA,NA,NA,NA,NA,happy,"unhappy, happy","less happy, more happy",NA,NA,NA,NA,NA,NA,NA,NA,NA,NA,NA,NA,NA,NA,NA,0,0,0,0,1,NA,NA,NA,NA,NA,NA,NA,NA,NA,NA,NA,NA,NA,NA,NA,NA,NA,NA,NA,NA,NA,NA,NA,NA,NA,NA,NA,NA
SUPAMT13490,3TAYZSBPLR7LGQH96MJCJTREMS8S2K,A3DC18A2-7C81-42A1-89EC-D7A5E3180AC2,2023-09-29_13h10.02.263,WP_VExplicitOC_HL,2022.2.5,Win32,6.666933344,-79.94791667,3.526,2.033,NA,NA,NA,NA,NA,bored,"bored, not bored","more bored, less bored",NA,NA,NA,NA,NA,NA,NA,NA,NA,NA,NA,NA,NA,NA,NA,0,1,1,2,1,NA,NA,NA,NA,NA,NA,NA,NA,NA,NA,NA,NA,NA,NA,NA,NA,NA,NA,NA,NA,NA,NA,NA,NA,NA,NA,NA,NA
SUPAMT13490,3TAYZSBPLR7LGQH96MJCJTREMS8S2K,A3DC18A2-7C81-42A1-89EC-D7A5E3180AC2,2023-09-29_13h10.02.263,WP_VExplicitOC_HL,2022.2.5,Win32,6.666933344,63.28125,3.491,2.122,NA,NA,NA,NA,NA,frustrated,"frustrated, not frustrated","more frustrated, less frustrated",NA,NA,NA,NA,NA,NA,NA,NA,NA,NA,NA,NA,NA,NA,NA,0,2,2,1,1,NA,NA,NA,NA,NA,NA,NA,NA,NA,NA,NA,NA,NA,NA,NA,NA,NA,NA,NA,NA,NA,NA,NA,NA,NA,NA,NA,NA
SUPAMT13490,3TAYZSBPLR7LGQH96MJCJTREMS8S2K,A3DC18A2-7C81-42A1-89EC-D7A5E3180AC2,2023-09-29_13h10.02.263,WP_VExplicitOC_HL,2022.2.5,Win32,6.666933344,NA,NA,NA,NA,NA,NA,NA,NA,NA,NA,NA,NA,NA,NA,NA,NA,NA,NA,NA,NA,NA,NA,NA,NA,NA,NA,NA,NA,NA,NA,NA,2,0,2,0,1,NA,NA,NA,NA,NA,NA,NA,NA,NA,NA,NA,NA,NA,NA,NA,NA,NA,NA,NA,NA,NA,NA,NA
SUPAMT13490,3TAYZSBPLR7LGQH96MJCJTREMS8S2K,A3DC18A2-7C81-42A1-89EC-D7A5E3180AC2,2023-09-29_13h10.02.263,WP_VExplicitOC_HL,2022.2.5,Win32,6.666933344,100,3.482,2.173,NA,NA,NA,NA,NA,happy,"unhappy, happy","less happy, more happy",NA,NA,NA,NA,NA,NA,NA,NA,NA,NA,NA,NA,NA,NA,NA,0,0,0,0,1,NA,NA,NA,NA,NA,NA,NA,NA,NA,NA,NA,NA,NA,NA,NA,NA,NA,NA,NA,NA,NA,NA,NA,NA,NA,NA,NA,NA
SUPAMT13490,3TAYZSBPLR7LGQH96MJCJTREMS8S2K,A3DC18A2-7C81-42A1-89EC-D7A5E3180AC2,2023-09-29_13h10.02.263,WP_VExplicitOC_HL,2022.2.5,Win32,6.666933344,73.17708333,3.635,2.118,NA,NA,NA,NA,NA,frustrated,"frustrated, not frustrated","more frustrated, less frustrated",NA,NA,NA,NA,NA,NA,NA,NA,NA,NA,NA,NA,NA,NA,NA,0,1,1,1,1,NA,NA,NA,NA,NA,NA,NA,NA,NA,NA,NA,NA,NA,NA,NA,NA,NA,NA,NA,NA,NA,NA,NA,NA,NA,NA,NA,NA
SUPAMT13490,3TAYZSBPLR7LGQH96MJCJTREMS8S2K,A3DC18A2-7C81-42A1-89EC-D7A5E3180AC2,2023-09-29_13h10.02.263,WP_VExplicitOC_HL,2022.2.5,Win32,6.666933344,-78.38541667,3.398,2.115,NA,NA,NA,NA,NA,bored,"bored, not bored","more bored, less bored",NA,NA,NA,NA,NA,NA,NA,NA,NA,NA,NA,NA,NA,NA,NA,0,2,2,2,1,NA,NA,NA,NA,NA,NA,NA,NA,NA,NA,NA,NA,NA,NA,NA,NA,NA,NA,NA,NA,NA,NA,NA,NA,NA,NA,NA,NA
SUPAMT13490,3TAYZSBPLR7LGQH96MJCJTREMS8S2K,A3DC18A2-7C81-42A1-89EC-D7A5E3180AC2,2023-09-29_13h10.02.263,WP_VExplicitOC_HL,2022.2.5,Win32,6.666933344,NA,NA,NA,NA,NA,NA,NA,NA,NA,NA,NA,NA,NA,NA,NA,NA,NA,NA,NA,NA,NA,NA,NA,NA,NA,NA,NA,NA,NA,NA,NA,3,0,3,0,1,NA,NA,NA,NA,NA,NA,NA,NA,NA,NA,NA,NA,NA,NA,NA,NA,NA,NA,NA,NA,NA,NA,NA
SUPAMT13490,3TAYZSBPLR7LGQH96MJCJTREMS8S2K,A3DC18A2-7C81-42A1-89EC-D7A5E3180AC2,2023-09-29_13h10.02.263,WP_VExplicitOC_HL,2022.2.5,Win32,6.666933344,-88.54166667,3.515,2.088,NA,NA,NA,NA,NA,bored,"bored, not bored","more bored, less bored",NA,NA,NA,NA,NA,NA,NA,NA,NA,NA,NA,NA,NA,NA,NA,0,0,0,2,1,NA,NA,NA,NA,NA,NA,NA,NA,NA,NA,NA,NA,NA,NA,NA,NA,NA,NA,NA,NA,NA,NA,NA,NA,NA,NA,NA,NA
SUPAMT13490,3TAYZSBPLR7LGQH96MJCJTREMS8S2K,A3DC18A2-7C81-42A1-89EC-D7A5E3180AC2,2023-09-29_13h10.02.263,WP_VExplicitOC_HL,2022.2.5,Win32,6.666933344,62.23958333,3.598,2.017,NA,NA,NA,NA,NA,happy,"unhappy, happy","less happy, more happy",NA,NA,NA,NA,NA,NA,NA,NA,NA,NA,NA,NA,NA,NA,NA,0,1,1,0,1,NA,NA,NA,NA,NA,NA,NA,NA,NA,NA,NA,NA,NA,NA,NA,NA,NA,NA,NA,NA,NA,NA,NA,NA,NA,NA,NA,NA
SUPAMT13490,3TAYZSBPLR7LGQH96MJCJTREMS8S2K,A3DC18A2-7C81-42A1-89EC-D7A5E3180AC2,2023-09-29_13h10.02.263,WP_VExplicitOC_HL,2022.2.5,Win32,6.666933344,57.29166667,3.808,2.082,NA,NA,NA,NA,NA,frustrated,"frustrated, not frustrated","more frustrated, less frustrated",NA,NA,NA,NA,NA,NA,NA,NA,NA,NA,NA,NA,NA,NA,NA,0,2,2,1,1,NA,NA,NA,NA,NA,NA,NA,NA,NA,NA,NA,NA,NA,NA,NA,NA,NA,NA,NA,NA,NA,NA,NA,NA,NA,NA,NA,NA
SUPAMT13490,3TAYZSBPLR7LGQH96MJCJTREMS8S2K,A3DC18A2-7C81-42A1-89EC-D7A5E3180AC2,2023-09-29_13h10.02.263,WP_VExplicitOC_HL,2022.2.5,Win32,6.666933344,NA,NA,NA,NA,NA,NA,NA,NA,NA,NA,NA,NA,NA,NA,NA,NA,NA,NA,NA,NA,NA,NA,NA,NA,NA,NA,NA,NA,NA,NA,NA,4,0,4,0,1,NA,NA,NA,NA,NA,NA,NA,NA,NA,NA,NA,NA,NA,NA,NA,NA,NA,NA,NA,NA,NA,NA,NA
SUPAMT13490,3TAYZSBPLR7LGQH96MJCJTREMS8S2K,A3DC18A2-7C81-42A1-89EC-D7A5E3180AC2,2023-09-29_13h10.02.263,WP_VExplicitOC_HL,2022.2.5,Win32,6.666933344,66.66666667,3.675,2.12,NA,NA,NA,NA,NA,bored,"bored, not bored","more bored, less bored",NA,NA,NA,NA,NA,NA,NA,NA,NA,NA,NA,NA,NA,NA,NA,0,0,0,2,1,NA,NA,NA,NA,NA,NA,NA,NA,NA,NA,NA,NA,NA,NA,NA,NA,NA,NA,NA,NA,NA,NA,NA,NA,NA,NA,NA,NA
SUPAMT13490,3TAYZSBPLR7LGQH96MJCJTREMS8S2K,A3DC18A2-7C81-42A1-89EC-D7A5E3180AC2,2023-09-29_13h10.02.263,WP_VExplicitOC_HL,2022.2.5,Win32,6.666933344,62.5,3.757,2.165,NA,NA,NA,NA,NA,frustrated,"frustrated, not frustrated","more frustrated, less frustrated",NA,NA,NA,NA,NA,NA,NA,NA,NA,NA,NA,NA,NA,NA,NA,0,1,1,1,1,NA,NA,NA,NA,NA,NA,NA,NA,NA,NA,NA,NA,NA,NA,NA,NA,NA,NA,NA,NA,NA,NA,NA,NA,NA,NA,NA,NA
SUPAMT13490,3TAYZSBPLR7LGQH96MJCJTREMS8S2K,A3DC18A2-7C81-42A1-89EC-D7A5E3180AC2,2023-09-29_13h10.02.263,WP_VExplicitOC_HL,2022.2.5,Win32,6.666933344,81.25,3.417,2.082,NA,NA,NA,NA,NA,happy,"unhappy, happy","less happy, more happy",NA,NA,NA,NA,NA,NA,NA,NA,NA,NA,NA,NA,NA,NA,NA,0,2,2,0,1,NA,NA,NA,NA,NA,NA,NA,NA,NA,NA,NA,NA,NA,NA,NA,NA,NA,NA,NA,NA,NA,NA,NA,NA,NA,NA,NA,NA
SUPAMT13490,3TAYZSBPLR7LGQH96MJCJTREMS8S2K,A3DC18A2-7C81-42A1-89EC-D7A5E3180AC2,2023-09-29_13h10.02.263,WP_VExplicitOC_HL,2022.2.5,Win32,6.666933344,NA,NA,NA,NA,NA,NA,NA,NA,NA,NA,NA,NA,NA,NA,NA,NA,NA,NA,NA,NA,NA,NA,NA,NA,NA,NA,NA,NA,NA,NA,NA,5,0,5,0,1,NA,NA,NA,NA,NA,NA,NA,NA,NA,NA,NA,NA,NA,NA,NA,NA,NA,NA,NA,NA,NA,NA,NA
SUPAMT13490,3TAYZSBPLR7LGQH96MJCJTREMS8S2K,A3DC18A2-7C81-42A1-89EC-D7A5E3180AC2,2023-09-29_13h10.02.263,WP_VExplicitOC_HL,2022.2.5,Win32,6.666933344,65.10416667,3.558,2.006,NA,NA,NA,NA,NA,frustrated,"frustrated, not frustrated","more frustrated, less frustrated",NA,NA,NA,NA,NA,NA,NA,NA,NA,NA,NA,NA,NA,NA,NA,0,0,0,1,1,NA,NA,NA,NA,NA,NA,NA,NA,NA,NA,NA,NA,NA,NA,NA,NA,NA,NA,NA,NA,NA,NA,NA,NA,NA,NA,NA,NA
SUPAMT13490,3TAYZSBPLR7LGQH96MJCJTREMS8S2K,A3DC18A2-7C81-42A1-89EC-D7A5E3180AC2,2023-09-29_13h10.02.263,WP_VExplicitOC_HL,2022.2.5,Win32,6.666933344,65.10416667,3.466,2.083,NA,NA,NA,NA,NA,happy,"unhappy, happy","less happy, more happy",NA,NA,NA,NA,NA,NA,NA,NA,NA,NA,NA,NA,NA,NA,NA,0,1,1,0,1,NA,NA,NA,NA,NA,NA,NA,NA,NA,NA,NA,NA,NA,NA,NA,NA,NA,NA,NA,NA,NA,NA,NA,NA,NA,NA,NA,NA
SUPAMT13490,3TAYZSBPLR7LGQH96MJCJTREMS8S2K,A3DC18A2-7C81-42A1-89EC-D7A5E3180AC2,2023-09-29_13h10.02.263,WP_VExplicitOC_HL,2022.2.5,Win32,6.666933344,-70.3125,3.417,2.049,NA,NA,NA,NA,NA,bored,"bored, not bored","more bored, less bored",NA,NA,NA,NA,NA,NA,NA,NA,NA,NA,NA,NA,NA,NA,NA,0,2,2,2,1,NA,NA,NA,NA,NA,NA,NA,NA,NA,NA,NA,NA,NA,NA,NA,NA,NA,NA,NA,NA,NA,NA,NA,NA,NA,NA,NA,NA
SUPAMT13490,3TAYZSBPLR7LGQH96MJCJTREMS8S2K,A3DC18A2-7C81-42A1-89EC-D7A5E3180AC2,2023-09-29_13h10.02.263,WP_VExplicitOC_HL,2022.2.5,Win32,6.666933344,NA,NA,NA,NA,NA,NA,NA,NA,NA,NA,NA,NA,NA,NA,NA,NA,NA,NA,NA,NA,NA,NA,NA,NA,NA,NA,NA,NA,NA,NA,NA,6,0,6,0,1,NA,NA,NA,NA,NA,NA,NA,NA,NA,NA,NA,NA,NA,NA,NA,NA,NA,NA,NA,NA,NA,NA,NA
SUPAMT13490,3TAYZSBPLR7LGQH96MJCJTREMS8S2K,A3DC18A2-7C81-42A1-89EC-D7A5E3180AC2,2023-09-29_13h10.02.263,WP_VExplicitOC_HL,2022.2.5,Win32,6.666933344,67.70833333,3.456,2.085,NA,NA,NA,NA,NA,bored,"bored, not bored","more bored, less bored",NA,NA,NA,NA,NA,NA,NA,NA,NA,NA,NA,NA,NA,NA,NA,0,0,0,2,1,NA,NA,NA,NA,NA,NA,NA,NA,NA,NA,NA,NA,NA,NA,NA,NA,NA,NA,NA,NA,NA,NA,NA,NA,NA,NA,NA,NA
SUPAMT13490,3TAYZSBPLR7LGQH96MJCJTREMS8S2K,A3DC18A2-7C81-42A1-89EC-D7A5E3180AC2,2023-09-29_13h10.02.263,WP_VExplicitOC_HL,2022.2.5,Win32,6.666933344,61.45833333,3.46,2.082,NA,NA,NA,NA,NA,happy,"unhappy, happy","less happy, more happy",NA,NA,NA,NA,NA,NA,NA,NA,NA,NA,NA,NA,NA,NA,NA,0,1,1,0,1,NA,NA,NA,NA,NA,NA,NA,NA,NA,NA,NA,NA,NA,NA,NA,NA,NA,NA,NA,NA,NA,NA,NA,NA,NA,NA,NA,NA
SUPAMT13490,3TAYZSBPLR7LGQH96MJCJTREMS8S2K,A3DC18A2-7C81-42A1-89EC-D7A5E3180AC2,2023-09-29_13h10.02.263,WP_VExplicitOC_HL,2022.2.5,Win32,6.666933344,-65.625,3.84,2.116,NA,NA,NA,NA,NA,frustrated,"frustrated, not frustrated","more frustrated, less frustrated",NA,NA,NA,NA,NA,NA,NA,NA,NA,NA,NA,NA,NA,NA,NA,0,2,2,1,1,NA,NA,NA,NA,NA,NA,NA,NA,NA,NA,NA,NA,NA,NA,NA,NA,NA,NA,NA,NA,NA,NA,NA,NA,NA,NA,NA,NA
SUPAMT13490,3TAYZSBPLR7LGQH96MJCJTREMS8S2K,A3DC18A2-7C81-42A1-89EC-D7A5E3180AC2,2023-09-29_13h10.02.263,WP_VExplicitOC_HL,2022.2.5,Win32,6.666933344,NA,NA,NA,NA,NA,NA,NA,NA,NA,NA,NA,NA,NA,NA,NA,NA,NA,NA,NA,NA,NA,NA,NA,NA,NA,NA,NA,NA,NA,NA,NA,7,0,7,0,1,NA,NA,NA,NA,NA,NA,NA,NA,NA,NA,NA,NA,NA,NA,NA,NA,NA,NA,NA,NA,NA,NA,NA
SUPAMT13490,3TAYZSBPLR7LGQH96MJCJTREMS8S2K,A3DC18A2-7C81-42A1-89EC-D7A5E3180AC2,2023-09-29_13h10.02.263,WP_VExplicitOC_HL,2022.2.5,Win32,6.666933344,48.95833333,3.663,2.104,NA,NA,NA,NA,NA,happy,"unhappy, happy","less happy, more happy",NA,NA,NA,NA,NA,NA,NA,NA,NA,NA,NA,NA,NA,NA,NA,0,0,0,0,1,NA,NA,NA,NA,NA,NA,NA,NA,NA,NA,NA,NA,NA,NA,NA,NA,NA,NA,NA,NA,NA,NA,NA,NA,NA,NA,NA,NA
SUPAMT13490,3TAYZSBPLR7LGQH96MJCJTREMS8S2K,A3DC18A2-7C81-42A1-89EC-D7A5E3180AC2,2023-09-29_13h10.02.263,WP_VExplicitOC_HL,2022.2.5,Win32,6.666933344,-77.08333333,3.438,2.033,NA,NA,NA,NA,NA,frustrated,"frustrated, not frustrated","more frustrated, less frustrated",NA,NA,NA,NA,NA,NA,NA,NA,NA,NA,NA,NA,NA,NA,NA,0,1,1,1,1,NA,NA,NA,NA,NA,NA,NA,NA,NA,NA,NA,NA,NA,NA,NA,NA,NA,NA,NA,NA,NA,NA,NA,NA,NA,NA,NA,NA
SUPAMT13490,3TAYZSBPLR7LGQH96MJCJTREMS8S2K,A3DC18A2-7C81-42A1-89EC-D7A5E3180AC2,2023-09-29_13h10.02.263,WP_VExplicitOC_HL,2022.2.5,Win32,6.666933344,-92.96875,3.368,2.035,NA,NA,NA,NA,NA,bored,"bored, not bored","more bored, less bored",NA,NA,NA,NA,NA,NA,NA,NA,NA,NA,NA,NA,NA,NA,NA,0,2,2,2,1,NA,NA,NA,NA,NA,NA,NA,NA,NA,NA,NA,NA,NA,NA,NA,NA,NA,NA,NA,NA,NA,NA,NA,NA,NA,NA,NA,NA
SUPAMT13490,3TAYZSBPLR7LGQH96MJCJTREMS8S2K,A3DC18A2-7C81-42A1-89EC-D7A5E3180AC2,2023-09-29_13h10.02.263,WP_VExplicitOC_HL,2022.2.5,Win32,6.666933344,NA,NA,NA,NA,NA,NA,NA,NA,NA,NA,NA,NA,NA,NA,NA,NA,NA,NA,NA,NA,NA,NA,NA,NA,NA,NA,NA,NA,NA,NA,NA,8,0,8,0,1,NA,NA,NA,NA,NA,NA,NA,NA,NA,NA,NA,NA,NA,NA,NA,NA,NA,NA,NA,NA,NA,NA,NA
SUPAMT13490,3TAYZSBPLR7LGQH96MJCJTREMS8S2K,A3DC18A2-7C81-42A1-89EC-D7A5E3180AC2,2023-09-29_13h10.02.263,WP_VExplicitOC_HL,2022.2.5,Win32,6.666933344,82.55208333,3.512,2.059,NA,NA,NA,NA,NA,frustrated,"frustrated, not frustrated","more frustrated, less frustrated",NA,NA,NA,NA,NA,NA,NA,NA,NA,NA,NA,NA,NA,NA,NA,0,0,0,1,1,NA,NA,NA,NA,NA,NA,NA,NA,NA,NA,NA,NA,NA,NA,NA,NA,NA,NA,NA,NA,NA,NA,NA,NA,NA,NA,NA,NA
SUPAMT13490,3TAYZSBPLR7LGQH96MJCJTREMS8S2K,A3DC18A2-7C81-42A1-89EC-D7A5E3180AC2,2023-09-29_13h10.02.263,WP_VExplicitOC_HL,2022.2.5,Win32,6.666933344,68.48958333,3.484,2.082,NA,NA,NA,NA,NA,bored,"bored, not bored","more bored, less bored",NA,NA,NA,NA,NA,NA,NA,NA,NA,NA,NA,NA,NA,NA,NA,0,1,1,2,1,NA,NA,NA,NA,NA,NA,NA,NA,NA,NA,NA,NA,NA,NA,NA,NA,NA,NA,NA,NA,NA,NA,NA,NA,NA,NA,NA,NA
SUPAMT13490,3TAYZSBPLR7LGQH96MJCJTREMS8S2K,A3DC18A2-7C81-42A1-89EC-D7A5E3180AC2,2023-09-29_13h10.02.263,WP_VExplicitOC_HL,2022.2.5,Win32,6.666933344,-96.61458333,3.564,2.045,NA,NA,NA,NA,NA,happy,"unhappy, happy","less happy, more happy",NA,NA,NA,NA,NA,NA,NA,NA,NA,NA,NA,NA,NA,NA,NA,0,2,2,0,1,NA,NA,NA,NA,NA,NA,NA,NA,NA,NA,NA,NA,NA,NA,NA,NA,NA,NA,NA,NA,NA,NA,NA,NA,NA,NA,NA,NA
SUPAMT13490,3TAYZSBPLR7LGQH96MJCJTREMS8S2K,A3DC18A2-7C81-42A1-89EC-D7A5E3180AC2,2023-09-29_13h10.02.263,WP_VExplicitOC_HL,2022.2.5,Win32,6.666933344,NA,NA,NA,NA,NA,NA,NA,NA,NA,NA,NA,NA,NA,NA,NA,NA,NA,NA,NA,NA,NA,NA,NA,NA,NA,NA,NA,NA,NA,NA,NA,9,0,9,0,1,NA,NA,NA,NA,NA,NA,NA,NA,NA,NA,NA,NA,NA,NA,NA,NA,NA,NA,NA,NA,NA,NA,NA
SUPAMT13490,3TAYZSBPLR7LGQH96MJCJTREMS8S2K,A3DC18A2-7C81-42A1-89EC-D7A5E3180AC2,2023-09-29_13h10.02.263,WP_VExplicitOC_HL,2022.2.5,Win32,6.666933344,64.84375,3.311,2.127,NA,NA,NA,NA,NA,frustrated,"frustrated, not frustrated","more frustrated, less frustrated",NA,NA,NA,NA,NA,NA,NA,NA,NA,NA,NA,NA,NA,NA,NA,0,0,0,1,1,NA,NA,NA,NA,NA,NA,NA,NA,NA,NA,NA,NA,NA,NA,NA,NA,NA,NA,NA,NA,NA,NA,NA,NA,NA,NA,NA,NA
SUPAMT13490,3TAYZSBPLR7LGQH96MJCJTREMS8S2K,A3DC18A2-7C81-42A1-89EC-D7A5E3180AC2,2023-09-29_13h10.02.263,WP_VExplicitOC_HL,2022.2.5,Win32,6.666933344,85.41666667,3.399,2.018,NA,NA,NA,NA,NA,happy,"unhappy, happy","less happy, more happy",NA,NA,NA,NA,NA,NA,NA,NA,NA,NA,NA,NA,NA,NA,NA,0,1,1,0,1,NA,NA,NA,NA,NA,NA,NA,NA,NA,NA,NA,NA,NA,NA,NA,NA,NA,NA,NA,NA,NA,NA,NA,NA,NA,NA,NA,NA
SUPAMT13490,3TAYZSBPLR7LGQH96MJCJTREMS8S2K,A3DC18A2-7C81-42A1-89EC-D7A5E3180AC2,2023-09-29_13h10.02.263,WP_VExplicitOC_HL,2022.2.5,Win32,6.666933344,-56.51041667,3.509,2.181,NA,NA,NA,NA,NA,bored,"bored, not bored","more bored, less bored",NA,NA,NA,NA,NA,NA,NA,NA,NA,NA,NA,NA,NA,NA,NA,0,2,2,2,1,NA,NA,NA,NA,NA,NA,NA,NA,NA,NA,NA,NA,NA,NA,NA,NA,NA,NA,NA,NA,NA,NA,NA,NA,NA,NA,NA,NA
SUPAMT13490,3TAYZSBPLR7LGQH96MJCJTREMS8S2K,A3DC18A2-7C81-42A1-89EC-D7A5E3180AC2,2023-09-29_13h10.02.263,WP_VExplicitOC_HL,2022.2.5,Win32,6.666933344,NA,NA,NA,NA,NA,NA,NA,NA,NA,NA,NA,NA,NA,NA,NA,NA,NA,NA,NA,NA,NA,NA,NA,NA,NA,NA,NA,NA,NA,NA,NA,10,0,10,0,1,NA,NA,NA,NA,NA,NA,NA,NA,NA,NA,NA,NA,NA,NA,NA,NA,NA,NA,NA,NA,NA,NA,NA
SUPAMT13490,3TAYZSBPLR7LGQH96MJCJTREMS8S2K,A3DC18A2-7C81-42A1-89EC-D7A5E3180AC2,2023-09-29_13h10.02.263,WP_VExplicitOC_HL,2022.2.5,Win32,6.666933344,83.59375,3.541,2.155,NA,NA,NA,NA,NA,happy,"unhappy, happy","less happy, more happy",NA,NA,NA,NA,NA,NA,NA,NA,NA,NA,NA,NA,NA,NA,NA,0,0,0,0,1,NA,NA,NA,NA,NA,NA,NA,NA,NA,NA,NA,NA,NA,NA,NA,NA,NA,NA,NA,NA,NA,NA,NA,NA,NA,NA,NA,NA
SUPAMT13490,3TAYZSBPLR7LGQH96MJCJTREMS8S2K,A3DC18A2-7C81-42A1-89EC-D7A5E3180AC2,2023-09-29_13h10.02.263,WP_VExplicitOC_HL,2022.2.5,Win32,6.666933344,-51.04166667,3.529,2.012,NA,NA,NA,NA,NA,bored,"bored, not bored","more bored, less bored",NA,NA,NA,NA,NA,NA,NA,NA,NA,NA,NA,NA,NA,NA,NA,0,1,1,2,1,NA,NA,NA,NA,NA,NA,NA,NA,NA,NA,NA,NA,NA,NA,NA,NA,NA,NA,NA,NA,NA,NA,NA,NA,NA,NA,NA,NA
SUPAMT13490,3TAYZSBPLR7LGQH96MJCJTREMS8S2K,A3DC18A2-7C81-42A1-89EC-D7A5E3180AC2,2023-09-29_13h10.02.263,WP_VExplicitOC_HL,2022.2.5,Win32,6.666933344,75.78125,3.46,2.047,NA,NA,NA,NA,NA,frustrated,"frustrated, not frustrated","more frustrated, less frustrated",NA,NA,NA,NA,NA,NA,NA,NA,NA,NA,NA,NA,NA,NA,NA,0,2,2,1,1,NA,NA,NA,NA,NA,NA,NA,NA,NA,NA,NA,NA,NA,NA,NA,NA,NA,NA,NA,NA,NA,NA,NA,NA,NA,NA,NA,NA
SUPAMT13490,3TAYZSBPLR7LGQH96MJCJTREMS8S2K,A3DC18A2-7C81-42A1-89EC-D7A5E3180AC2,2023-09-29_13h10.02.263,WP_VExplicitOC_HL,2022.2.5,Win32,6.666933344,NA,NA,NA,NA,NA,NA,NA,NA,NA,NA,NA,NA,NA,NA,NA,NA,NA,NA,NA,NA,NA,NA,NA,NA,NA,NA,NA,NA,NA,NA,NA,11,0,11,0,1,NA,NA,NA,NA,NA,NA,NA,NA,NA,NA,NA,NA,NA,NA,NA,NA,NA,NA,NA,NA,NA,NA,NA
SUPAMT13490,3TAYZSBPLR7LGQH96MJCJTREMS8S2K,A3DC18A2-7C81-42A1-89EC-D7A5E3180AC2,2023-09-29_13h10.02.263,WP_VExplicitOC_HL,2022.2.5,Win32,6.666933344,62.5,3.719,2.009,NA,NA,NA,NA,NA,frustrated,"frustrated, not frustrated","more frustrated, less frustrated",NA,NA,NA,NA,NA,NA,NA,NA,NA,NA,NA,NA,NA,NA,NA,0,0,0,1,1,NA,NA,NA,NA,NA,NA,NA,NA,NA,NA,NA,NA,NA,NA,NA,NA,NA,NA,NA,NA,NA,NA,NA,NA,NA,NA,NA,NA
SUPAMT13490,3TAYZSBPLR7LGQH96MJCJTREMS8S2K,A3DC18A2-7C81-42A1-89EC-D7A5E3180AC2,2023-09-29_13h10.02.263,WP_VExplicitOC_HL,2022.2.5,Win32,6.666933344,-42.96875,3.501,2.068,NA,NA,NA,NA,NA,bored,"bored, not bored","more bored, less bored",NA,NA,NA,NA,NA,NA,NA,NA,NA,NA,NA,NA,NA,NA,NA,0,1,1,2,1,NA,NA,NA,NA,NA,NA,NA,NA,NA,NA,NA,NA,NA,NA,NA,NA,NA,NA,NA,NA,NA,NA,NA,NA,NA,NA,NA,NA
SUPAMT13490,3TAYZSBPLR7LGQH96MJCJTREMS8S2K,A3DC18A2-7C81-42A1-89EC-D7A5E3180AC2,2023-09-29_13h10.02.263,WP_VExplicitOC_HL,2022.2.5,Win32,6.666933344,84.375,3.402,2.029,NA,NA,NA,NA,NA,happy,"unhappy, happy","less happy, more happy",NA,NA,NA,NA,NA,NA,NA,NA,NA,NA,NA,NA,NA,NA,NA,0,2,2,0,1,NA,NA,NA,NA,NA,NA,NA,NA,NA,NA,NA,NA,NA,NA,NA,NA,NA,NA,NA,NA,NA,NA,NA,NA,NA,NA,NA,NA
SUPAMT13490,3TAYZSBPLR7LGQH96MJCJTREMS8S2K,A3DC18A2-7C81-42A1-89EC-D7A5E3180AC2,2023-09-29_13h10.02.263,WP_VExplicitOC_HL,2022.2.5,Win32,6.666933344,NA,NA,NA,NA,NA,NA,NA,NA,NA,NA,NA,NA,NA,NA,NA,NA,NA,NA,NA,NA,NA,NA,NA,NA,NA,NA,NA,NA,NA,NA,NA,12,0,12,0,1,NA,NA,NA,NA,NA,NA,NA,NA,NA,NA,NA,NA,NA,NA,NA,NA,NA,NA,NA,NA,NA,NA,NA
SUPAMT13490,3TAYZSBPLR7LGQH96MJCJTREMS8S2K,A3DC18A2-7C81-42A1-89EC-D7A5E3180AC2,2023-09-29_13h10.02.263,WP_VExplicitOC_HL,2022.2.5,Win32,6.666933344,69.27083333,4.012,2.137,NA,NA,NA,NA,NA,happy,"unhappy, happy","less happy, more happy",NA,NA,NA,NA,NA,NA,NA,NA,NA,NA,NA,NA,NA,NA,NA,0,0,0,0,1,NA,NA,NA,NA,NA,NA,NA,NA,NA,NA,NA,NA,NA,NA,NA,NA,NA,NA,NA,NA,NA,NA,NA,NA,NA,NA,NA,NA
SUPAMT13490,3TAYZSBPLR7LGQH96MJCJTREMS8S2K,A3DC18A2-7C81-42A1-89EC-D7A5E3180AC2,2023-09-29_13h10.02.263,WP_VExplicitOC_HL,2022.2.5,Win32,6.666933344,75.52083333,3.521,2.15,NA,NA,NA,NA,NA,bored,"bored, not bored","more bored, less bored",NA,NA,NA,NA,NA,NA,NA,NA,NA,NA,NA,NA,NA,NA,NA,0,1,1,2,1,NA,NA,NA,NA,NA,NA,NA,NA,NA,NA,NA,NA,NA,NA,NA,NA,NA,NA,NA,NA,NA,NA,NA,NA,NA,NA,NA,NA
SUPAMT13490,3TAYZSBPLR7LGQH96MJCJTREMS8S2K,A3DC18A2-7C81-42A1-89EC-D7A5E3180AC2,2023-09-29_13h10.02.263,WP_VExplicitOC_HL,2022.2.5,Win32,6.666933344,89.0625,3.412,2.067,NA,NA,NA,NA,NA,frustrated,"frustrated, not frustrated","more frustrated, less frustrated",NA,NA,NA,NA,NA,NA,NA,NA,NA,NA,NA,NA,NA,NA,NA,0,2,2,1,1,NA,NA,NA,NA,NA,NA,NA,NA,NA,NA,NA,NA,NA,NA,NA,NA,NA,NA,NA,NA,NA,NA,NA,NA,NA,NA,NA,NA
SUPAMT13490,3TAYZSBPLR7LGQH96MJCJTREMS8S2K,A3DC18A2-7C81-42A1-89EC-D7A5E3180AC2,2023-09-29_13h10.02.263,WP_VExplicitOC_HL,2022.2.5,Win32,6.666933344,NA,NA,NA,NA,NA,NA,NA,NA,NA,NA,NA,NA,NA,NA,NA,NA,NA,NA,NA,NA,NA,NA,NA,NA,NA,NA,NA,NA,NA,NA,NA,13,0,13,0,1,NA,NA,NA,NA,NA,NA,NA,NA,NA,NA,NA,NA,NA,NA,NA,NA,NA,NA,NA,NA,NA,NA,NA
SUPAMT13490,3TAYZSBPLR7LGQH96MJCJTREMS8S2K,A3DC18A2-7C81-42A1-89EC-D7A5E3180AC2,2023-09-29_13h10.02.263,WP_VExplicitOC_HL,2022.2.5,Win32,6.666933344,58.33333333,3.798,2.023,NA,NA,NA,NA,NA,frustrated,"frustrated, not frustrated","more frustrated, less frustrated",NA,NA,NA,NA,NA,NA,NA,NA,NA,NA,NA,NA,NA,NA,NA,0,0,0,1,1,NA,NA,NA,NA,NA,NA,NA,NA,NA,NA,NA,NA,NA,NA,NA,NA,NA,NA,NA,NA,NA,NA,NA,NA,NA,NA,NA,NA
SUPAMT13490,3TAYZSBPLR7LGQH96MJCJTREMS8S2K,A3DC18A2-7C81-42A1-89EC-D7A5E3180AC2,2023-09-29_13h10.02.263,WP_VExplicitOC_HL,2022.2.5,Win32,6.666933344,97.13541667,3.624,2.068,NA,NA,NA,NA,NA,happy,"unhappy, happy","less happy, more happy",NA,NA,NA,NA,NA,NA,NA,NA,NA,NA,NA,NA,NA,NA,NA,0,1,1,0,1,NA,NA,NA,NA,NA,NA,NA,NA,NA,NA,NA,NA,NA,NA,NA,NA,NA,NA,NA,NA,NA,NA,NA,NA,NA,NA,NA,NA
SUPAMT13490,3TAYZSBPLR7LGQH96MJCJTREMS8S2K,A3DC18A2-7C81-42A1-89EC-D7A5E3180AC2,2023-09-29_13h10.02.263,WP_VExplicitOC_HL,2022.2.5,Win32,6.666933344,95.05208333,3.557,2.184,NA,NA,NA,NA,NA,bored,"bored, not bored","more bored, less bored",NA,NA,NA,NA,NA,NA,NA,NA,NA,NA,NA,NA,NA,NA,NA,0,2,2,2,1,NA,NA,NA,NA,NA,NA,NA,NA,NA,NA,NA,NA,NA,NA,NA,NA,NA,NA,NA,NA,NA,NA,NA,NA,NA,NA,NA,NA
SUPAMT13490,3TAYZSBPLR7LGQH96MJCJTREMS8S2K,A3DC18A2-7C81-42A1-89EC-D7A5E3180AC2,2023-09-29_13h10.02.263,WP_VExplicitOC_HL,2022.2.5,Win32,6.666933344,NA,NA,NA,NA,NA,NA,NA,NA,NA,NA,NA,NA,NA,NA,NA,NA,NA,NA,NA,NA,NA,NA,NA,NA,NA,NA,NA,NA,NA,NA,NA,14,0,14,0,1,NA,NA,NA,NA,NA,NA,NA,NA,NA,NA,NA,NA,NA,NA,NA,NA,NA,NA,NA,NA,NA,NA,NA
SUPAMT13490,3TAYZSBPLR7LGQH96MJCJTREMS8S2K,A3DC18A2-7C81-42A1-89EC-D7A5E3180AC2,2023-09-29_13h10.02.263,WP_VExplicitOC_HL,2022.2.5,Win32,6.666933344,NA,NA,NA,NA,NA,NA,NA,NA,NA,NA,NA,NA,NA,NA,NA,NA,NA,NA,NA,NA,NA,NA,NA,NA,NA,NA,NA,NA,NA,NA,NA,NA,NA,NA,NA,NA,NA,NA,NA,NA,NA,NA,NA,NA,NA,NA,NA,NA,NA,NA,NA,NA,NA,NA,NA,NA,NA,NA,NA
SUPAMT13490,3TAYZSBPLR7LGQH96MJCJTREMS8S2K,A3DC18A2-7C81-42A1-89EC-D7A5E3180AC2,2023-09-29_13h10.02.263,WP_VExplicitOC_HL,2022.2.5,Win32,6.666933344,NA,NA,NA,NA,NA,NA,NA,NA,NA,NA,NA,NA,NA,NA,NA,NA,NA,NA,NA,NA,NA,NA,NA,NA,NA,NA,NA,NA,NA,NA,NA,NA,NA,NA,NA,NA,NA,NA,NA,NA,NA,NA,NA,NA,NA,NA,NA,NA,NA,NA,NA,NA,NA,NA,NA,NA,NA,NA,NA
SUPAMT13490,3TAYZSBPLR7LGQH96MJCJTREMS8S2K,A3DC18A2-7C81-42A1-89EC-D7A5E3180AC2,2023-09-29_13h10.02.263,WP_VExplicitOC_HL,2022.2.5,Win32,6.666933344,NA,NA,NA,NA,NA,NA,NA,NA,NA,NA,NA,NA,NA,NA,NA,NA,NA,NA,rest (looking at a fixed cross),001.png,NA,NA,NA,NA,NA,NA,NA,NA,NA,NA,NA,NA,NA,NA,NA,NA,75.52083333,1.818,0,0,0,0,1,NA,NA,NA,NA,NA,NA,NA,NA,NA,NA,NA,NA,NA,NA,NA,NA
SUPAMT13490,3TAYZSBPLR7LGQH96MJCJTREMS8S2K,A3DC18A2-7C81-42A1-89EC-D7A5E3180AC2,2023-09-29_13h10.02.263,WP_VExplicitOC_HL,2022.2.5,Win32,6.666933344,NA,NA,NA,NA,NA,NA,NA,NA,NA,NA,NA,NA,NA,NA,NA,NA,NA,NA,stand up,002.png,NA,NA,NA,NA,NA,NA,NA,NA,NA,NA,NA,NA,NA,NA,NA,NA,72.65625,1.649,0,1,1,1,1,NA,NA,NA,NA,NA,NA,NA,NA,NA,NA,NA,NA,NA,NA,NA,NA
SUPAMT13490,3TAYZSBPLR7LGQH96MJCJTREMS8S2K,A3DC18A2-7C81-42A1-89EC-D7A5E3180AC2,2023-09-29_13h10.02.263,WP_VExplicitOC_HL,2022.2.5,Win32,6.666933344,NA,NA,NA,NA,NA,NA,NA,NA,NA,NA,NA,NA,NA,NA,NA,NA,NA,NA,stretch,003.png,NA,NA,NA,NA,NA,NA,NA,NA,NA,NA,NA,NA,NA,NA,NA,NA,100,1.825,0,2,2,2,1,NA,NA,NA,NA,NA,NA,NA,NA,NA,NA,NA,NA,NA,NA,NA,NA
SUPAMT13490,3TAYZSBPLR7LGQH96MJCJTREMS8S2K,A3DC18A2-7C81-42A1-89EC-D7A5E3180AC2,2023-09-29_13h10.02.263,WP_VExplicitOC_HL,2022.2.5,Win32,6.666933344,NA,NA,NA,NA,NA,NA,NA,NA,NA,NA,NA,NA,NA,NA,NA,NA,NA,NA,make a drink,004.png,NA,NA,NA,NA,NA,NA,NA,NA,NA,NA,NA,NA,NA,NA,NA,NA,69.53125,1.527,0,3,3,3,1,NA,NA,NA,NA,NA,NA,NA,NA,NA,NA,NA,NA,NA,NA,NA,NA
SUPAMT13490,3TAYZSBPLR7LGQH96MJCJTREMS8S2K,A3DC18A2-7C81-42A1-89EC-D7A5E3180AC2,2023-09-29_13h10.02.263,WP_VExplicitOC_HL,2022.2.5,Win32,6.666933344,NA,NA,NA,NA,NA,NA,NA,NA,NA,NA,NA,NA,NA,NA,NA,NA,NA,NA,scroll social media,005.png,NA,NA,NA,NA,NA,NA,NA,NA,NA,NA,NA,NA,NA,NA,NA,NA,-66.14583333,1.614,0,4,4,4,1,NA,NA,NA,NA,NA,NA,NA,NA,NA,NA,NA,NA,NA,NA,NA,NA
SUPAMT13490,3TAYZSBPLR7LGQH96MJCJTREMS8S2K,A3DC18A2-7C81-42A1-89EC-D7A5E3180AC2,2023-09-29_13h10.02.263,WP_VExplicitOC_HL,2022.2.5,Win32,6.666933344,NA,NA,NA,NA,NA,NA,NA,NA,NA,NA,NA,NA,NA,NA,NA,NA,NA,NA,listen to music,006.png,NA,NA,NA,NA,NA,NA,NA,NA,NA,NA,NA,NA,NA,NA,NA,NA,100,1.546,0,5,5,5,1,NA,NA,NA,NA,NA,NA,NA,NA,NA,NA,NA,NA,NA,NA,NA,NA
SUPAMT13490,3TAYZSBPLR7LGQH96MJCJTREMS8S2K,A3DC18A2-7C81-42A1-89EC-D7A5E3180AC2,2023-09-29_13h10.02.263,WP_VExplicitOC_HL,2022.2.5,Win32,6.666933344,NA,NA,NA,NA,NA,NA,NA,NA,NA,NA,NA,NA,NA,NA,NA,NA,NA,NA,daydream,007.png,NA,NA,NA,NA,NA,NA,NA,NA,NA,NA,NA,NA,NA,NA,NA,NA,40.36458333,1.7,0,6,6,6,1,NA,NA,NA,NA,NA,NA,NA,NA,NA,NA,NA,NA,NA,NA,NA,NA
SUPAMT13490,3TAYZSBPLR7LGQH96MJCJTREMS8S2K,A3DC18A2-7C81-42A1-89EC-D7A5E3180AC2,2023-09-29_13h10.02.263,WP_VExplicitOC_HL,2022.2.5,Win32,6.666933344,NA,NA,NA,NA,NA,NA,NA,NA,NA,NA,NA,NA,NA,NA,NA,NA,NA,NA,watch a short animation,008.png,NA,NA,NA,NA,NA,NA,NA,NA,NA,NA,NA,NA,NA,NA,NA,NA,-40.10416667,1.528,0,7,7,7,1,NA,NA,NA,NA,NA,NA,NA,NA,NA,NA,NA,NA,NA,NA,NA,NA
SUPAMT13490,3TAYZSBPLR7LGQH96MJCJTREMS8S2K,A3DC18A2-7C81-42A1-89EC-D7A5E3180AC2,2023-09-29_13h10.02.263,WP_VExplicitOC_HL,2022.2.5,Win32,6.666933344,NA,NA,NA,NA,NA,NA,NA,NA,NA,NA,NA,NA,NA,NA,NA,NA,NA,NA,read a novel,009.png,NA,NA,NA,NA,NA,NA,NA,NA,NA,NA,NA,NA,NA,NA,NA,NA,100,1.53,0,8,8,8,1,NA,NA,NA,NA,NA,NA,NA,NA,NA,NA,NA,NA,NA,NA,NA,NA
SUPAMT13490,3TAYZSBPLR7LGQH96MJCJTREMS8S2K,A3DC18A2-7C81-42A1-89EC-D7A5E3180AC2,2023-09-29_13h10.02.263,WP_VExplicitOC_HL,2022.2.5,Win32,6.666933344,NA,NA,NA,NA,NA,NA,NA,NA,NA,NA,NA,NA,NA,NA,NA,NA,NA,NA,read the news,010.png,NA,NA,NA,NA,NA,NA,NA,NA,NA,NA,NA,NA,NA,NA,NA,NA,100,1.743,0,9,9,9,1,NA,NA,NA,NA,NA,NA,NA,NA,NA,NA,NA,NA,NA,NA,NA,NA
SUPAMT13490,3TAYZSBPLR7LGQH96MJCJTREMS8S2K,A3DC18A2-7C81-42A1-89EC-D7A5E3180AC2,2023-09-29_13h10.02.263,WP_VExplicitOC_HL,2022.2.5,Win32,6.666933344,NA,NA,NA,NA,NA,NA,NA,NA,NA,NA,NA,NA,NA,NA,NA,NA,NA,NA,NA,NA,NA,NA,NA,NA,NA,NA,NA,NA,NA,NA,NA,NA,NA,NA,NA,NA,NA,NA,NA,NA,NA,NA,NA,scroll social media,NA,NA,NA,NA,NA,NA,NA,NA,NA,NA,NA,NA,NA,NA,NA
SUPAMT13490,3TAYZSBPLR7LGQH96MJCJTREMS8S2K,A3DC18A2-7C81-42A1-89EC-D7A5E3180AC2,2023-09-29_13h10.02.263,WP_VExplicitOC_HL,2022.2.5,Win32,6.666933344,93.48958333,3.512,2.156,NA,NA,NA,NA,NA,frustrated,"frustrated, not frustrated","more frustrated, less frustrated",NA,NA,NA,NA,NA,NA,NA,NA,NA,NA,NA,NA,NA,NA,NA,NA,NA,NA,NA,NA,NA,NA,NA,NA,NA,NA,NA,NA,NA,NA,NA,NA,NA,0,0,0,1,1,NA,NA,NA,NA,NA,NA,NA,NA,NA,NA
SUPAMT13490,3TAYZSBPLR7LGQH96MJCJTREMS8S2K,A3DC18A2-7C81-42A1-89EC-D7A5E3180AC2,2023-09-29_13h10.02.263,WP_VExplicitOC_HL,2022.2.5,Win32,6.666933344,100,3.3,2.065,NA,NA,NA,NA,NA,bored,"bored, not bored","more bored, less bored",NA,NA,NA,NA,NA,NA,NA,NA,NA,NA,NA,NA,NA,NA,NA,NA,NA,NA,NA,NA,NA,NA,NA,NA,NA,NA,NA,NA,NA,NA,NA,NA,NA,0,1,1,2,1,NA,NA,NA,NA,NA,NA,NA,NA,NA,NA
SUPAMT13490,3TAYZSBPLR7LGQH96MJCJTREMS8S2K,A3DC18A2-7C81-42A1-89EC-D7A5E3180AC2,2023-09-29_13h10.02.263,WP_VExplicitOC_HL,2022.2.5,Win32,6.666933344,78.64583333,3.47,2.151,NA,NA,NA,NA,NA,happy,"unhappy, happy","less happy, more happy",NA,NA,NA,NA,NA,NA,NA,NA,NA,NA,NA,NA,NA,NA,NA,NA,NA,NA,NA,NA,NA,NA,NA,NA,NA,NA,NA,NA,NA,NA,NA,NA,NA,0,2,2,0,1,NA,NA,NA,NA,NA,NA,NA,NA,NA,NA
SUPAMT13490,3TAYZSBPLR7LGQH96MJCJTREMS8S2K,A3DC18A2-7C81-42A1-89EC-D7A5E3180AC2,2023-09-29_13h10.02.263,WP_VExplicitOC_HL,2022.2.5,Win32,6.666933344,NA,NA,NA,NA,NA,NA,NA,NA,NA,NA,NA,NA,NA,NA,NA,NA,NA,NA,NA,NA,NA,NA,NA,NA,NA,NA,NA,NA,NA,NA,NA,NA,NA,NA,NA,NA,NA,NA,NA,NA,NA,NA,NA,NA,NA,NA,NA,NA,NA,NA,NA,NA,NA,NA,NA,NA,NA,NA,NA
SUPAMT13490,3TAYZSBPLR7LGQH96MJCJTREMS8S2K,A3DC18A2-7C81-42A1-89EC-D7A5E3180AC2,2023-09-29_13h10.02.263,WP_VExplicitOC_HL,2022.2.5,Win32,6.666933344,NA,NA,NA,NA,NA,NA,NA,NA,NA,NA,NA,NA,NA,NA,NA,NA,NA,NA,NA,NA,NA,NA,NA,NA,NA,NA,NA,NA,NA,NA,NA,NA,NA,NA,NA,NA,NA,NA,NA,NA,NA,NA,NA,NA,NA,NA,NA,NA,NA,NA,NA,NA,NA,NA,NA,NA,NA,NA,NA
SUPAMT13490,3TAYZSBPLR7LGQH96MJCJTREMS8S2K,A3DC18A2-7C81-42A1-89EC-D7A5E3180AC2,2023-09-29_13h10.02.263,WP_VExplicitOC_HL,2022.2.5,Win32,6.666933344,92.44791667,3.451,2.067,NA,NA,NA,NA,NA,bored,"bored, not bored","more bored, less bored",NA,NA,NA,NA,NA,NA,NA,NA,NA,NA,NA,NA,NA,NA,NA,NA,NA,NA,NA,NA,NA,NA,NA,NA,NA,NA,NA,NA,NA,NA,NA,NA,NA,NA,NA,NA,NA,NA,0,0,0,2,1,NA,NA,NA,NA,NA
SUPAMT13490,3TAYZSBPLR7LGQH96MJCJTREMS8S2K,A3DC18A2-7C81-42A1-89EC-D7A5E3180AC2,2023-09-29_13h10.02.263,WP_VExplicitOC_HL,2022.2.5,Win32,6.666933344,79.42708333,3.364,2.028,NA,NA,NA,NA,NA,happy,"unhappy, happy","less happy, more happy",NA,NA,NA,NA,NA,NA,NA,NA,NA,NA,NA,NA,NA,NA,NA,NA,NA,NA,NA,NA,NA,NA,NA,NA,NA,NA,NA,NA,NA,NA,NA,NA,NA,NA,NA,NA,NA,NA,0,1,1,0,1,NA,NA,NA,NA,NA
SUPAMT13490,3TAYZSBPLR7LGQH96MJCJTREMS8S2K,A3DC18A2-7C81-42A1-89EC-D7A5E3180AC2,2023-09-29_13h10.02.263,WP_VExplicitOC_HL,2022.2.5,Win32,6.666933344,99.73958333,3.451,2.061,NA,NA,NA,NA,NA,frustrated,"frustrated, not frustrated","more frustrated, less frustrated",NA,NA,NA,NA,NA,NA,NA,NA,NA,NA,NA,NA,NA,NA,NA,NA,NA,NA,NA,NA,NA,NA,NA,NA,NA,NA,NA,NA,NA,NA,NA,NA,NA,NA,NA,NA,NA,NA,0,2,2,1,1,NA,NA,NA,NA,NA
SUPAMT13490,3TAYZSBPLR7LGQH96MJCJTREMS8S2K,A3DC18A2-7C81-42A1-89EC-D7A5E3180AC2,2023-09-29_13h10.02.263,WP_VExplicitOC_HL,2022.2.5,Win32,6.666933344,NA,NA,NA,NA,NA,NA,NA,NA,NA,NA,NA,NA,NA,NA,NA,NA,NA,NA,NA,NA,NA,NA,NA,NA,NA,NA,NA,NA,NA,NA,NA,NA,NA,NA,NA,NA,NA,NA,NA,NA,NA,NA,NA,NA,NA,NA,NA,NA,NA,NA,NA,NA,NA,NA,0,0,0,0,1
SUPAMT13490,3TAYZSBPLR7LGQH96MJCJTREMS8S2K,A3DC18A2-7C81-42A1-89EC-D7A5E3180AC2,2023-09-29_13h10.02.263,WP_VExplicitOC_HL,2022.2.5,Win32,6.666933344,69.01041667,3.711,2.138,NA,NA,NA,NA,NA,frustrated,"frustrated, not frustrated","more frustrated, less frustrated",NA,NA,NA,NA,NA,NA,NA,NA,NA,NA,NA,NA,NA,NA,NA,NA,NA,NA,NA,NA,NA,NA,NA,NA,NA,NA,NA,NA,NA,NA,NA,NA,NA,NA,NA,NA,NA,NA,0,0,0,1,1,NA,NA,NA,NA,NA
SUPAMT13490,3TAYZSBPLR7LGQH96MJCJTREMS8S2K,A3DC18A2-7C81-42A1-89EC-D7A5E3180AC2,2023-09-29_13h10.02.263,WP_VExplicitOC_HL,2022.2.5,Win32,6.666933344,80.98958333,3.873,2.132,NA,NA,NA,NA,NA,bored,"bored, not bored","more bored, less bored",NA,NA,NA,NA,NA,NA,NA,NA,NA,NA,NA,NA,NA,NA,NA,NA,NA,NA,NA,NA,NA,NA,NA,NA,NA,NA,NA,NA,NA,NA,NA,NA,NA,NA,NA,NA,NA,NA,0,1,1,2,1,NA,NA,NA,NA,NA
SUPAMT13490,3TAYZSBPLR7LGQH96MJCJTREMS8S2K,A3DC18A2-7C81-42A1-89EC-D7A5E3180AC2,2023-09-29_13h10.02.263,WP_VExplicitOC_HL,2022.2.5,Win32,6.666933344,92.1875,3.564,2.101,NA,NA,NA,NA,NA,happy,"unhappy, happy","less happy, more happy",NA,NA,NA,NA,NA,NA,NA,NA,NA,NA,NA,NA,NA,NA,NA,NA,NA,NA,NA,NA,NA,NA,NA,NA,NA,NA,NA,NA,NA,NA,NA,NA,NA,NA,NA,NA,NA,NA,0,2,2,0,1,NA,NA,NA,NA,NA
SUPAMT13490,3TAYZSBPLR7LGQH96MJCJTREMS8S2K,A3DC18A2-7C81-42A1-89EC-D7A5E3180AC2,2023-09-29_13h10.02.263,WP_VExplicitOC_HL,2022.2.5,Win32,6.666933344,NA,NA,NA,NA,NA,NA,NA,NA,NA,NA,NA,NA,NA,NA,NA,NA,NA,NA,NA,NA,NA,NA,NA,NA,NA,NA,NA,NA,NA,NA,NA,NA,NA,NA,NA,NA,NA,NA,NA,NA,NA,NA,NA,NA,NA,NA,NA,NA,NA,NA,NA,NA,NA,NA,1,0,1,0,1
SUPAMT13490,3TAYZSBPLR7LGQH96MJCJTREMS8S2K,A3DC18A2-7C81-42A1-89EC-D7A5E3180AC2,2023-09-29_13h10.02.263,WP_VExplicitOC_HL,2022.2.5,Win32,6.666933344,79.6875,3.578,2.047,NA,NA,NA,NA,NA,happy,"unhappy, happy","less happy, more happy",NA,NA,NA,NA,NA,NA,NA,NA,NA,NA,NA,NA,NA,NA,NA,NA,NA,NA,NA,NA,NA,NA,NA,NA,NA,NA,NA,NA,NA,NA,NA,NA,NA,NA,NA,NA,NA,NA,0,0,0,0,1,NA,NA,NA,NA,NA
SUPAMT13490,3TAYZSBPLR7LGQH96MJCJTREMS8S2K,A3DC18A2-7C81-42A1-89EC-D7A5E3180AC2,2023-09-29_13h10.02.263,WP_VExplicitOC_HL,2022.2.5,Win32,6.666933344,-77.08333333,3.454,2.071,NA,NA,NA,NA,NA,frustrated,"frustrated, not frustrated","more frustrated, less frustrated",NA,NA,NA,NA,NA,NA,NA,NA,NA,NA,NA,NA,NA,NA,NA,NA,NA,NA,NA,NA,NA,NA,NA,NA,NA,NA,NA,NA,NA,NA,NA,NA,NA,NA,NA,NA,NA,NA,0,1,1,1,1,NA,NA,NA,NA,NA
SUPAMT13490,3TAYZSBPLR7LGQH96MJCJTREMS8S2K,A3DC18A2-7C81-42A1-89EC-D7A5E3180AC2,2023-09-29_13h10.02.263,WP_VExplicitOC_HL,2022.2.5,Win32,6.666933344,88.02083333,3.5,2.118,NA,NA,NA,NA,NA,bored,"bored, not bored","more bored, less bored",NA,NA,NA,NA,NA,NA,NA,NA,NA,NA,NA,NA,NA,NA,NA,NA,NA,NA,NA,NA,NA,NA,NA,NA,NA,NA,NA,NA,NA,NA,NA,NA,NA,NA,NA,NA,NA,NA,0,2,2,2,1,NA,NA,NA,NA,NA
SUPAMT13490,3TAYZSBPLR7LGQH96MJCJTREMS8S2K,A3DC18A2-7C81-42A1-89EC-D7A5E3180AC2,2023-09-29_13h10.02.263,WP_VExplicitOC_HL,2022.2.5,Win32,6.666933344,NA,NA,NA,NA,NA,NA,NA,NA,NA,NA,NA,NA,NA,NA,NA,NA,NA,NA,NA,NA,NA,NA,NA,NA,NA,NA,NA,NA,NA,NA,NA,NA,NA,NA,NA,NA,NA,NA,NA,NA,NA,NA,NA,NA,NA,NA,NA,NA,NA,NA,NA,NA,NA,NA,2,0,2,0,1
SUPAMT13490,3TAYZSBPLR7LGQH96MJCJTREMS8S2K,A3DC18A2-7C81-42A1-89EC-D7A5E3180AC2,2023-09-29_13h10.02.263,WP_VExplicitOC_HL,2022.2.5,Win32,6.666933344,77.60416667,3.548,2.039,NA,NA,NA,NA,NA,bored,"bored, not bored","more bored, less bored",NA,NA,NA,NA,NA,NA,NA,NA,NA,NA,NA,NA,NA,NA,NA,NA,NA,NA,NA,NA,NA,NA,NA,NA,NA,NA,NA,NA,NA,NA,NA,NA,NA,NA,NA,NA,NA,NA,0,0,0,2,1,NA,NA,NA,NA,NA
SUPAMT13490,3TAYZSBPLR7LGQH96MJCJTREMS8S2K,A3DC18A2-7C81-42A1-89EC-D7A5E3180AC2,2023-09-29_13h10.02.263,WP_VExplicitOC_HL,2022.2.5,Win32,6.666933344,64.32291667,3.52,2.147,NA,NA,NA,NA,NA,frustrated,"frustrated, not frustrated","more frustrated, less frustrated",NA,NA,NA,NA,NA,NA,NA,NA,NA,NA,NA,NA,NA,NA,NA,NA,NA,NA,NA,NA,NA,NA,NA,NA,NA,NA,NA,NA,NA,NA,NA,NA,NA,NA,NA,NA,NA,NA,0,1,1,1,1,NA,NA,NA,NA,NA
SUPAMT13490,3TAYZSBPLR7LGQH96MJCJTREMS8S2K,A3DC18A2-7C81-42A1-89EC-D7A5E3180AC2,2023-09-29_13h10.02.263,WP_VExplicitOC_HL,2022.2.5,Win32,6.666933344,87.76041667,3.504,2.072,NA,NA,NA,NA,NA,happy,"unhappy, happy","less happy, more happy",NA,NA,NA,NA,NA,NA,NA,NA,NA,NA,NA,NA,NA,NA,NA,NA,NA,NA,NA,NA,NA,NA,NA,NA,NA,NA,NA,NA,NA,NA,NA,NA,NA,NA,NA,NA,NA,NA,0,2,2,0,1,NA,NA,NA,NA,NA
SUPAMT13490,3TAYZSBPLR7LGQH96MJCJTREMS8S2K,A3DC18A2-7C81-42A1-89EC-D7A5E3180AC2,2023-09-29_13h10.02.263,WP_VExplicitOC_HL,2022.2.5,Win32,6.666933344,NA,NA,NA,NA,NA,NA,NA,NA,NA,NA,NA,NA,NA,NA,NA,NA,NA,NA,NA,NA,NA,NA,NA,NA,NA,NA,NA,NA,NA,NA,NA,NA,NA,NA,NA,NA,NA,NA,NA,NA,NA,NA,NA,NA,NA,NA,NA,NA,NA,NA,NA,NA,NA,NA,3,0,3,0,1
SUPAMT13490,3TAYZSBPLR7LGQH96MJCJTREMS8S2K,A3DC18A2-7C81-42A1-89EC-D7A5E3180AC2,2023-09-29_13h10.02.263,WP_VExplicitOC_HL,2022.2.5,Win32,6.666933344,73.95833333,3.67,2.157,NA,NA,NA,NA,NA,happy,"unhappy, happy","less happy, more happy",NA,NA,NA,NA,NA,NA,NA,NA,NA,NA,NA,NA,NA,NA,NA,NA,NA,NA,NA,NA,NA,NA,NA,NA,NA,NA,NA,NA,NA,NA,NA,NA,NA,NA,NA,NA,NA,NA,0,0,0,0,1,NA,NA,NA,NA,NA
SUPAMT13490,3TAYZSBPLR7LGQH96MJCJTREMS8S2K,A3DC18A2-7C81-42A1-89EC-D7A5E3180AC2,2023-09-29_13h10.02.263,WP_VExplicitOC_HL,2022.2.5,Win32,6.666933344,67.1875,3.615,2.066,NA,NA,NA,NA,NA,frustrated,"frustrated, not frustrated","more frustrated, less frustrated",NA,NA,NA,NA,NA,NA,NA,NA,NA,NA,NA,NA,NA,NA,NA,NA,NA,NA,NA,NA,NA,NA,NA,NA,NA,NA,NA,NA,NA,NA,NA,NA,NA,NA,NA,NA,NA,NA,0,1,1,1,1,NA,NA,NA,NA,NA
SUPAMT13490,3TAYZSBPLR7LGQH96MJCJTREMS8S2K,A3DC18A2-7C81-42A1-89EC-D7A5E3180AC2,2023-09-29_13h10.02.263,WP_VExplicitOC_HL,2022.2.5,Win32,6.666933344,79.16666667,3.476,2.063,NA,NA,NA,NA,NA,bored,"bored, not bored","more bored, less bored",NA,NA,NA,NA,NA,NA,NA,NA,NA,NA,NA,NA,NA,NA,NA,NA,NA,NA,NA,NA,NA,NA,NA,NA,NA,NA,NA,NA,NA,NA,NA,NA,NA,NA,NA,NA,NA,NA,0,2,2,2,1,NA,NA,NA,NA,NA
SUPAMT13490,3TAYZSBPLR7LGQH96MJCJTREMS8S2K,A3DC18A2-7C81-42A1-89EC-D7A5E3180AC2,2023-09-29_13h10.02.263,WP_VExplicitOC_HL,2022.2.5,Win32,6.666933344,NA,NA,NA,NA,NA,NA,NA,NA,NA,NA,NA,NA,NA,NA,NA,NA,NA,NA,NA,NA,NA,NA,NA,NA,NA,NA,NA,NA,NA,NA,NA,NA,NA,NA,NA,NA,NA,NA,NA,NA,NA,NA,NA,NA,NA,NA,NA,NA,NA,NA,NA,NA,NA,NA,4,0,4,0,1
SUPAMT13490,3TAYZSBPLR7LGQH96MJCJTREMS8S2K,A3DC18A2-7C81-42A1-89EC-D7A5E3180AC2,2023-09-29_13h10.02.263,WP_VExplicitOC_HL,2022.2.5,Win32,6.666933344,86.97916667,3.526,2.157,NA,NA,NA,NA,NA,frustrated,"frustrated, not frustrated","more frustrated, less frustrated",NA,NA,NA,NA,NA,NA,NA,NA,NA,NA,NA,NA,NA,NA,NA,NA,NA,NA,NA,NA,NA,NA,NA,NA,NA,NA,NA,NA,NA,NA,NA,NA,NA,NA,NA,NA,NA,NA,0,0,0,1,1,NA,NA,NA,NA,NA
SUPAMT13490,3TAYZSBPLR7LGQH96MJCJTREMS8S2K,A3DC18A2-7C81-42A1-89EC-D7A5E3180AC2,2023-09-29_13h10.02.263,WP_VExplicitOC_HL,2022.2.5,Win32,6.666933344,82.8125,3.545,2.11,NA,NA,NA,NA,NA,bored,"bored, not bored","more bored, less bored",NA,NA,NA,NA,NA,NA,NA,NA,NA,NA,NA,NA,NA,NA,NA,NA,NA,NA,NA,NA,NA,NA,NA,NA,NA,NA,NA,NA,NA,NA,NA,NA,NA,NA,NA,NA,NA,NA,0,1,1,2,1,NA,NA,NA,NA,NA
SUPAMT13490,3TAYZSBPLR7LGQH96MJCJTREMS8S2K,A3DC18A2-7C81-42A1-89EC-D7A5E3180AC2,2023-09-29_13h10.02.263,WP_VExplicitOC_HL,2022.2.5,Win32,6.666933344,100,3.514,2.131,NA,NA,NA,NA,NA,happy,"unhappy, happy","less happy, more happy",NA,NA,NA,NA,NA,NA,NA,NA,NA,NA,NA,NA,NA,NA,NA,NA,NA,NA,NA,NA,NA,NA,NA,NA,NA,NA,NA,NA,NA,NA,NA,NA,NA,NA,NA,NA,NA,NA,0,2,2,0,1,NA,NA,NA,NA,NA
SUPAMT13490,3TAYZSBPLR7LGQH96MJCJTREMS8S2K,A3DC18A2-7C81-42A1-89EC-D7A5E3180AC2,2023-09-29_13h10.02.263,WP_VExplicitOC_HL,2022.2.5,Win32,6.666933344,NA,NA,NA,NA,NA,NA,NA,NA,NA,NA,NA,NA,NA,NA,NA,NA,NA,NA,NA,NA,NA,NA,NA,NA,NA,NA,NA,NA,NA,NA,NA,NA,NA,NA,NA,NA,NA,NA,NA,NA,NA,NA,NA,NA,NA,NA,NA,NA,NA,NA,NA,NA,NA,NA,5,0,5,0,1
SUPAMT13490,3TAYZSBPLR7LGQH96MJCJTREMS8S2K,A3DC18A2-7C81-42A1-89EC-D7A5E3180AC2,2023-09-29_13h10.02.263,WP_VExplicitOC_HL,2022.2.5,Win32,6.666933344,79.16666667,3.412,2.068,NA,NA,NA,NA,NA,frustrated,"frustrated, not frustrated","more frustrated, less frustrated",NA,NA,NA,NA,NA,NA,NA,NA,NA,NA,NA,NA,NA,NA,NA,NA,NA,NA,NA,NA,NA,NA,NA,NA,NA,NA,NA,NA,NA,NA,NA,NA,NA,NA,NA,NA,NA,NA,0,0,0,1,1,NA,NA,NA,NA,NA
SUPAMT13490,3TAYZSBPLR7LGQH96MJCJTREMS8S2K,A3DC18A2-7C81-42A1-89EC-D7A5E3180AC2,2023-09-29_13h10.02.263,WP_VExplicitOC_HL,2022.2.5,Win32,6.666933344,81.25,3.381,2.034,NA,NA,NA,NA,NA,happy,"unhappy, happy","less happy, more happy",NA,NA,NA,NA,NA,NA,NA,NA,NA,NA,NA,NA,NA,NA,NA,NA,NA,NA,NA,NA,NA,NA,NA,NA,NA,NA,NA,NA,NA,NA,NA,NA,NA,NA,NA,NA,NA,NA,0,1,1,0,1,NA,NA,NA,NA,NA
SUPAMT13490,3TAYZSBPLR7LGQH96MJCJTREMS8S2K,A3DC18A2-7C81-42A1-89EC-D7A5E3180AC2,2023-09-29_13h10.02.263,WP_VExplicitOC_HL,2022.2.5,Win32,6.666933344,85.15625,3.488,2.132,NA,NA,NA,NA,NA,bored,"bored, not bored","more bored, less bored",NA,NA,NA,NA,NA,NA,NA,NA,NA,NA,NA,NA,NA,NA,NA,NA,NA,NA,NA,NA,NA,NA,NA,NA,NA,NA,NA,NA,NA,NA,NA,NA,NA,NA,NA,NA,NA,NA,0,2,2,2,1,NA,NA,NA,NA,NA
SUPAMT13490,3TAYZSBPLR7LGQH96MJCJTREMS8S2K,A3DC18A2-7C81-42A1-89EC-D7A5E3180AC2,2023-09-29_13h10.02.263,WP_VExplicitOC_HL,2022.2.5,Win32,6.666933344,NA,NA,NA,NA,NA,NA,NA,NA,NA,NA,NA,NA,NA,NA,NA,NA,NA,NA,NA,NA,NA,NA,NA,NA,NA,NA,NA,NA,NA,NA,NA,NA,NA,NA,NA,NA,NA,NA,NA,NA,NA,NA,NA,NA,NA,NA,NA,NA,NA,NA,NA,NA,NA,NA,6,0,6,0,1
SUPAMT13490,3TAYZSBPLR7LGQH96MJCJTREMS8S2K,A3DC18A2-7C81-42A1-89EC-D7A5E3180AC2,2023-09-29_13h10.02.263,WP_VExplicitOC_HL,2022.2.5,Win32,6.666933344,73.17708333,3.825,2.14,NA,NA,NA,NA,NA,happy,"unhappy, happy","less happy, more happy",NA,NA,NA,NA,NA,NA,NA,NA,NA,NA,NA,NA,NA,NA,NA,NA,NA,NA,NA,NA,NA,NA,NA,NA,NA,NA,NA,NA,NA,NA,NA,NA,NA,NA,NA,NA,NA,NA,0,0,0,0,1,NA,NA,NA,NA,NA
SUPAMT13490,3TAYZSBPLR7LGQH96MJCJTREMS8S2K,A3DC18A2-7C81-42A1-89EC-D7A5E3180AC2,2023-09-29_13h10.02.263,WP_VExplicitOC_HL,2022.2.5,Win32,6.666933344,75,3.571,2.015,NA,NA,NA,NA,NA,bored,"bored, not bored","more bored, less bored",NA,NA,NA,NA,NA,NA,NA,NA,NA,NA,NA,NA,NA,NA,NA,NA,NA,NA,NA,NA,NA,NA,NA,NA,NA,NA,NA,NA,NA,NA,NA,NA,NA,NA,NA,NA,NA,NA,0,1,1,2,1,NA,NA,NA,NA,NA
SUPAMT13490,3TAYZSBPLR7LGQH96MJCJTREMS8S2K,A3DC18A2-7C81-42A1-89EC-D7A5E3180AC2,2023-09-29_13h10.02.263,WP_VExplicitOC_HL,2022.2.5,Win32,6.666933344,74.73958333,3.539,2.068,NA,NA,NA,NA,NA,frustrated,"frustrated, not frustrated","more frustrated, less frustrated",NA,NA,NA,NA,NA,NA,NA,NA,NA,NA,NA,NA,NA,NA,NA,NA,NA,NA,NA,NA,NA,NA,NA,NA,NA,NA,NA,NA,NA,NA,NA,NA,NA,NA,NA,NA,NA,NA,0,2,2,1,1,NA,NA,NA,NA,NA
SUPAMT13490,3TAYZSBPLR7LGQH96MJCJTREMS8S2K,A3DC18A2-7C81-42A1-89EC-D7A5E3180AC2,2023-09-29_13h10.02.263,WP_VExplicitOC_HL,2022.2.5,Win32,6.666933344,NA,NA,NA,NA,NA,NA,NA,NA,NA,NA,NA,NA,NA,NA,NA,NA,NA,NA,NA,NA,NA,NA,NA,NA,NA,NA,NA,NA,NA,NA,NA,NA,NA,NA,NA,NA,NA,NA,NA,NA,NA,NA,NA,NA,NA,NA,NA,NA,NA,NA,NA,NA,NA,NA,7,0,7,0,1
SUPAMT13490,3TAYZSBPLR7LGQH96MJCJTREMS8S2K,A3DC18A2-7C81-42A1-89EC-D7A5E3180AC2,2023-09-29_13h10.02.263,WP_VExplicitOC_HL,2022.2.5,Win32,6.666933344,77.86458333,3.418,2.035,NA,NA,NA,NA,NA,bored,"bored, not bored","more bored, less bored",NA,NA,NA,NA,NA,NA,NA,NA,NA,NA,NA,NA,NA,NA,NA,NA,NA,NA,NA,NA,NA,NA,NA,NA,NA,NA,NA,NA,NA,NA,NA,NA,NA,NA,NA,NA,NA,NA,0,0,0,2,1,NA,NA,NA,NA,NA
SUPAMT13490,3TAYZSBPLR7LGQH96MJCJTREMS8S2K,A3DC18A2-7C81-42A1-89EC-D7A5E3180AC2,2023-09-29_13h10.02.263,WP_VExplicitOC_HL,2022.2.5,Win32,6.666933344,82.55208333,3.678,2.112,NA,NA,NA,NA,NA,happy,"unhappy, happy","less happy, more happy",NA,NA,NA,NA,NA,NA,NA,NA,NA,NA,NA,NA,NA,NA,NA,NA,NA,NA,NA,NA,NA,NA,NA,NA,NA,NA,NA,NA,NA,NA,NA,NA,NA,NA,NA,NA,NA,NA,0,1,1,0,1,NA,NA,NA,NA,NA
SUPAMT13490,3TAYZSBPLR7LGQH96MJCJTREMS8S2K,A3DC18A2-7C81-42A1-89EC-D7A5E3180AC2,2023-09-29_13h10.02.263,WP_VExplicitOC_HL,2022.2.5,Win32,6.666933344,78.125,4.024,2.114,NA,NA,NA,NA,NA,frustrated,"frustrated, not frustrated","more frustrated, less frustrated",NA,NA,NA,NA,NA,NA,NA,NA,NA,NA,NA,NA,NA,NA,NA,NA,NA,NA,NA,NA,NA,NA,NA,NA,NA,NA,NA,NA,NA,NA,NA,NA,NA,NA,NA,NA,NA,NA,0,2,2,1,1,NA,NA,NA,NA,NA
SUPAMT13490,3TAYZSBPLR7LGQH96MJCJTREMS8S2K,A3DC18A2-7C81-42A1-89EC-D7A5E3180AC2,2023-09-29_13h10.02.263,WP_VExplicitOC_HL,2022.2.5,Win32,6.666933344,NA,NA,NA,NA,NA,NA,NA,NA,NA,NA,NA,NA,NA,NA,NA,NA,NA,NA,NA,NA,NA,NA,NA,NA,NA,NA,NA,NA,NA,NA,NA,NA,NA,NA,NA,NA,NA,NA,NA,NA,NA,NA,NA,NA,NA,NA,NA,NA,NA,NA,NA,NA,NA,NA,8,0,8,0,1
SUPAMT13490,3TAYZSBPLR7LGQH96MJCJTREMS8S2K,A3DC18A2-7C81-42A1-89EC-D7A5E3180AC2,2023-09-29_13h10.02.263,WP_VExplicitOC_HL,2022.2.5,Win32,6.666933344,68.48958333,3.586,2.02,NA,NA,NA,NA,NA,bored,"bored, not bored","more bored, less bored",NA,NA,NA,NA,NA,NA,NA,NA,NA,NA,NA,NA,NA,NA,NA,NA,NA,NA,NA,NA,NA,NA,NA,NA,NA,NA,NA,NA,NA,NA,NA,NA,NA,NA,NA,NA,NA,NA,0,0,0,2,1,NA,NA,NA,NA,NA
SUPAMT13490,3TAYZSBPLR7LGQH96MJCJTREMS8S2K,A3DC18A2-7C81-42A1-89EC-D7A5E3180AC2,2023-09-29_13h10.02.263,WP_VExplicitOC_HL,2022.2.5,Win32,6.666933344,84.375,3.487,2.046,NA,NA,NA,NA,NA,frustrated,"frustrated, not frustrated","more frustrated, less frustrated",NA,NA,NA,NA,NA,NA,NA,NA,NA,NA,NA,NA,NA,NA,NA,NA,NA,NA,NA,NA,NA,NA,NA,NA,NA,NA,NA,NA,NA,NA,NA,NA,NA,NA,NA,NA,NA,NA,0,1,1,1,1,NA,NA,NA,NA,NA
SUPAMT13490,3TAYZSBPLR7LGQH96MJCJTREMS8S2K,A3DC18A2-7C81-42A1-89EC-D7A5E3180AC2,2023-09-29_13h10.02.263,WP_VExplicitOC_HL,2022.2.5,Win32,6.666933344,80.20833333,3.671,2.167,NA,NA,NA,NA,NA,happy,"unhappy, happy","less happy, more happy",NA,NA,NA,NA,NA,NA,NA,NA,NA,NA,NA,NA,NA,NA,NA,NA,NA,NA,NA,NA,NA,NA,NA,NA,NA,NA,NA,NA,NA,NA,NA,NA,NA,NA,NA,NA,NA,NA,0,2,2,0,1,NA,NA,NA,NA,NA
SUPAMT13490,3TAYZSBPLR7LGQH96MJCJTREMS8S2K,A3DC18A2-7C81-42A1-89EC-D7A5E3180AC2,2023-09-29_13h10.02.263,WP_VExplicitOC_HL,2022.2.5,Win32,6.666933344,NA,NA,NA,NA,NA,NA,NA,NA,NA,NA,NA,NA,NA,NA,NA,NA,NA,NA,NA,NA,NA,NA,NA,NA,NA,NA,NA,NA,NA,NA,NA,NA,NA,NA,NA,NA,NA,NA,NA,NA,NA,NA,NA,NA,NA,NA,NA,NA,NA,NA,NA,NA,NA,NA,9,0,9,0,1
SUPAMT13490,3TAYZSBPLR7LGQH96MJCJTREMS8S2K,A3DC18A2-7C81-42A1-89EC-D7A5E3180AC2,2023-09-29_13h10.02.263,WP_VExplicitOC_HL,2022.2.5,Win32,6.666933344,83.85416667,3.851,2.002,NA,NA,NA,NA,NA,happy,"unhappy, happy","less happy, more happy",NA,NA,NA,NA,NA,NA,NA,NA,NA,NA,NA,NA,NA,NA,NA,NA,NA,NA,NA,NA,NA,NA,NA,NA,NA,NA,NA,NA,NA,NA,NA,NA,NA,NA,NA,NA,NA,NA,0,0,0,0,1,NA,NA,NA,NA,NA
SUPAMT13490,3TAYZSBPLR7LGQH96MJCJTREMS8S2K,A3DC18A2-7C81-42A1-89EC-D7A5E3180AC2,2023-09-29_13h10.02.263,WP_VExplicitOC_HL,2022.2.5,Win32,6.666933344,55.72916667,3.629,2.081,NA,NA,NA,NA,NA,bored,"bored, not bored","more bored, less bored",NA,NA,NA,NA,NA,NA,NA,NA,NA,NA,NA,NA,NA,NA,NA,NA,NA,NA,NA,NA,NA,NA,NA,NA,NA,NA,NA,NA,NA,NA,NA,NA,NA,NA,NA,NA,NA,NA,0,1,1,2,1,NA,NA,NA,NA,NA
SUPAMT13490,3TAYZSBPLR7LGQH96MJCJTREMS8S2K,A3DC18A2-7C81-42A1-89EC-D7A5E3180AC2,2023-09-29_13h10.02.263,WP_VExplicitOC_HL,2022.2.5,Win32,6.666933344,84.63541667,3.473,2.084,NA,NA,NA,NA,NA,frustrated,"frustrated, not frustrated","more frustrated, less frustrated",NA,NA,NA,NA,NA,NA,NA,NA,NA,NA,NA,NA,NA,NA,NA,NA,NA,NA,NA,NA,NA,NA,NA,NA,NA,NA,NA,NA,NA,NA,NA,NA,NA,NA,NA,NA,NA,NA,0,2,2,1,1,NA,NA,NA,NA,NA
SUPAMT13490,3TAYZSBPLR7LGQH96MJCJTREMS8S2K,A3DC18A2-7C81-42A1-89EC-D7A5E3180AC2,2023-09-29_13h10.02.263,WP_VExplicitOC_HL,2022.2.5,Win32,6.666933344,NA,NA,NA,NA,NA,NA,NA,NA,NA,NA,NA,NA,NA,NA,NA,NA,NA,NA,NA,NA,NA,NA,NA,NA,NA,NA,NA,NA,NA,NA,NA,NA,NA,NA,NA,NA,NA,NA,NA,NA,NA,NA,NA,NA,NA,NA,NA,NA,NA,NA,NA,NA,NA,NA,10,0,10,0,1
SUPAMT13490,3TAYZSBPLR7LGQH96MJCJTREMS8S2K,A3DC18A2-7C81-42A1-89EC-D7A5E3180AC2,2023-09-29_13h10.02.263,WP_VExplicitOC_HL,2022.2.5,Win32,6.666933344,73.95833333,3.876,2.104,NA,NA,NA,NA,NA,frustrated,"frustrated, not frustrated","more frustrated, less frustrated",NA,NA,NA,NA,NA,NA,NA,NA,NA,NA,NA,NA,NA,NA,NA,NA,NA,NA,NA,NA,NA,NA,NA,NA,NA,NA,NA,NA,NA,NA,NA,NA,NA,NA,NA,NA,NA,NA,0,0,0,1,1,NA,NA,NA,NA,NA
SUPAMT13490,3TAYZSBPLR7LGQH96MJCJTREMS8S2K,A3DC18A2-7C81-42A1-89EC-D7A5E3180AC2,2023-09-29_13h10.02.263,WP_VExplicitOC_HL,2022.2.5,Win32,6.666933344,66.92708333,3.856,2.032,NA,NA,NA,NA,NA,happy,"unhappy, happy","less happy, more happy",NA,NA,NA,NA,NA,NA,NA,NA,NA,NA,NA,NA,NA,NA,NA,NA,NA,NA,NA,NA,NA,NA,NA,NA,NA,NA,NA,NA,NA,NA,NA,NA,NA,NA,NA,NA,NA,NA,0,1,1,0,1,NA,NA,NA,NA,NA
SUPAMT13490,3TAYZSBPLR7LGQH96MJCJTREMS8S2K,A3DC18A2-7C81-42A1-89EC-D7A5E3180AC2,2023-09-29_13h10.02.263,WP_VExplicitOC_HL,2022.2.5,Win32,6.666933344,68.75,3.572,2.038,NA,NA,NA,NA,NA,bored,"bored, not bored","more bored, less bored",NA,NA,NA,NA,NA,NA,NA,NA,NA,NA,NA,NA,NA,NA,NA,NA,NA,NA,NA,NA,NA,NA,NA,NA,NA,NA,NA,NA,NA,NA,NA,NA,NA,NA,NA,NA,NA,NA,0,2,2,2,1,NA,NA,NA,NA,NA
SUPAMT13490,3TAYZSBPLR7LGQH96MJCJTREMS8S2K,A3DC18A2-7C81-42A1-89EC-D7A5E3180AC2,2023-09-29_13h10.02.263,WP_VExplicitOC_HL,2022.2.5,Win32,6.666933344,NA,NA,NA,NA,NA,NA,NA,NA,NA,NA,NA,NA,NA,NA,NA,NA,NA,NA,NA,NA,NA,NA,NA,NA,NA,NA,NA,NA,NA,NA,NA,NA,NA,NA,NA,NA,NA,NA,NA,NA,NA,NA,NA,NA,NA,NA,NA,NA,NA,NA,NA,NA,NA,NA,11,0,11,0,1
SUPAMT13490,3TAYZSBPLR7LGQH96MJCJTREMS8S2K,A3DC18A2-7C81-42A1-89EC-D7A5E3180AC2,2023-09-29_13h10.02.263,WP_VExplicitOC_HL,2022.2.5,Win32,6.666933344,-68.48958333,4.146,2.087,NA,NA,NA,NA,NA,frustrated,"frustrated, not frustrated","more frustrated, less frustrated",NA,NA,NA,NA,NA,NA,NA,NA,NA,NA,NA,NA,NA,NA,NA,NA,NA,NA,NA,NA,NA,NA,NA,NA,NA,NA,NA,NA,NA,NA,NA,NA,NA,NA,NA,NA,NA,NA,0,0,0,1,1,NA,NA,NA,NA,NA
SUPAMT13490,3TAYZSBPLR7LGQH96MJCJTREMS8S2K,A3DC18A2-7C81-42A1-89EC-D7A5E3180AC2,2023-09-29_13h10.02.263,WP_VExplicitOC_HL,2022.2.5,Win32,6.666933344,66.40625,3.522,2.037,NA,NA,NA,NA,NA,bored,"bored, not bored","more bored, less bored",NA,NA,NA,NA,NA,NA,NA,NA,NA,NA,NA,NA,NA,NA,NA,NA,NA,NA,NA,NA,NA,NA,NA,NA,NA,NA,NA,NA,NA,NA,NA,NA,NA,NA,NA,NA,NA,NA,0,1,1,2,1,NA,NA,NA,NA,NA
SUPAMT13490,3TAYZSBPLR7LGQH96MJCJTREMS8S2K,A3DC18A2-7C81-42A1-89EC-D7A5E3180AC2,2023-09-29_13h10.02.263,WP_VExplicitOC_HL,2022.2.5,Win32,6.666933344,73.69791667,3.976,2.138,NA,NA,NA,NA,NA,happy,"unhappy, happy","less happy, more happy",NA,NA,NA,NA,NA,NA,NA,NA,NA,NA,NA,NA,NA,NA,NA,NA,NA,NA,NA,NA,NA,NA,NA,NA,NA,NA,NA,NA,NA,NA,NA,NA,NA,NA,NA,NA,NA,NA,0,2,2,0,1,NA,NA,NA,NA,NA
SUPAMT13490,3TAYZSBPLR7LGQH96MJCJTREMS8S2K,A3DC18A2-7C81-42A1-89EC-D7A5E3180AC2,2023-09-29_13h10.02.263,WP_VExplicitOC_HL,2022.2.5,Win32,6.666933344,NA,NA,NA,NA,NA,NA,NA,NA,NA,NA,NA,NA,NA,NA,NA,NA,NA,NA,NA,NA,NA,NA,NA,NA,NA,NA,NA,NA,NA,NA,NA,NA,NA,NA,NA,NA,NA,NA,NA,NA,NA,NA,NA,NA,NA,NA,NA,NA,NA,NA,NA,NA,NA,NA,12,0,12,0,1
SUPAMT13490,3TAYZSBPLR7LGQH96MJCJTREMS8S2K,A3DC18A2-7C81-42A1-89EC-D7A5E3180AC2,2023-09-29_13h10.02.263,WP_VExplicitOC_HL,2022.2.5,Win32,6.666933344,70.05208333,3.526,2.159,NA,NA,NA,NA,NA,bored,"bored, not bored","more bored, less bored",NA,NA,NA,NA,NA,NA,NA,NA,NA,NA,NA,NA,NA,NA,NA,NA,NA,NA,NA,NA,NA,NA,NA,NA,NA,NA,NA,NA,NA,NA,NA,NA,NA,NA,NA,NA,NA,NA,0,0,0,2,1,NA,NA,NA,NA,NA
SUPAMT13490,3TAYZSBPLR7LGQH96MJCJTREMS8S2K,A3DC18A2-7C81-42A1-89EC-D7A5E3180AC2,2023-09-29_13h10.02.263,WP_VExplicitOC_HL,2022.2.5,Win32,6.666933344,71.875,3.614,2.045,NA,NA,NA,NA,NA,frustrated,"frustrated, not frustrated","more frustrated, less frustrated",NA,NA,NA,NA,NA,NA,NA,NA,NA,NA,NA,NA,NA,NA,NA,NA,NA,NA,NA,NA,NA,NA,NA,NA,NA,NA,NA,NA,NA,NA,NA,NA,NA,NA,NA,NA,NA,NA,0,1,1,1,1,NA,NA,NA,NA,NA
SUPAMT13490,3TAYZSBPLR7LGQH96MJCJTREMS8S2K,A3DC18A2-7C81-42A1-89EC-D7A5E3180AC2,2023-09-29_13h10.02.263,WP_VExplicitOC_HL,2022.2.5,Win32,6.666933344,67.44791667,3.433,2.004,NA,NA,NA,NA,NA,happy,"unhappy, happy","less happy, more happy",NA,NA,NA,NA,NA,NA,NA,NA,NA,NA,NA,NA,NA,NA,NA,NA,NA,NA,NA,NA,NA,NA,NA,NA,NA,NA,NA,NA,NA,NA,NA,NA,NA,NA,NA,NA,NA,NA,0,2,2,0,1,NA,NA,NA,NA,NA
SUPAMT13490,3TAYZSBPLR7LGQH96MJCJTREMS8S2K,A3DC18A2-7C81-42A1-89EC-D7A5E3180AC2,2023-09-29_13h10.02.263,WP_VExplicitOC_HL,2022.2.5,Win32,6.666933344,NA,NA,NA,NA,NA,NA,NA,NA,NA,NA,NA,NA,NA,NA,NA,NA,NA,NA,NA,NA,NA,NA,NA,NA,NA,NA,NA,NA,NA,NA,NA,NA,NA,NA,NA,NA,NA,NA,NA,NA,NA,NA,NA,NA,NA,NA,NA,NA,NA,NA,NA,NA,NA,NA,13,0,13,0,1
SUPAMT13490,3TAYZSBPLR7LGQH96MJCJTREMS8S2K,A3DC18A2-7C81-42A1-89EC-D7A5E3180AC2,2023-09-29_13h10.02.263,WP_VExplicitOC_HL,2022.2.5,Win32,6.666933344,78.90625,3.733,2.055,NA,NA,NA,NA,NA,frustrated,"frustrated, not frustrated","more frustrated, less frustrated",NA,NA,NA,NA,NA,NA,NA,NA,NA,NA,NA,NA,NA,NA,NA,NA,NA,NA,NA,NA,NA,NA,NA,NA,NA,NA,NA,NA,NA,NA,NA,NA,NA,NA,NA,NA,NA,NA,0,0,0,1,1,NA,NA,NA,NA,NA
SUPAMT13490,3TAYZSBPLR7LGQH96MJCJTREMS8S2K,A3DC18A2-7C81-42A1-89EC-D7A5E3180AC2,2023-09-29_13h10.02.263,WP_VExplicitOC_HL,2022.2.5,Win32,6.666933344,75.78125,3.733,2.15,NA,NA,NA,NA,NA,happy,"unhappy, happy","less happy, more happy",NA,NA,NA,NA,NA,NA,NA,NA,NA,NA,NA,NA,NA,NA,NA,NA,NA,NA,NA,NA,NA,NA,NA,NA,NA,NA,NA,NA,NA,NA,NA,NA,NA,NA,NA,NA,NA,NA,0,1,1,0,1,NA,NA,NA,NA,NA
SUPAMT13490,3TAYZSBPLR7LGQH96MJCJTREMS8S2K,A3DC18A2-7C81-42A1-89EC-D7A5E3180AC2,2023-09-29_13h10.02.263,WP_VExplicitOC_HL,2022.2.5,Win32,6.666933344,90.10416667,3.44,2.03,NA,NA,NA,NA,NA,bored,"bored, not bored","more bored, less bored",NA,NA,NA,NA,NA,NA,NA,NA,NA,NA,NA,NA,NA,NA,NA,NA,NA,NA,NA,NA,NA,NA,NA,NA,NA,NA,NA,NA,NA,NA,NA,NA,NA,NA,NA,NA,NA,NA,0,2,2,2,1,NA,NA,NA,NA,NA
SUPAMT13490,3TAYZSBPLR7LGQH96MJCJTREMS8S2K,A3DC18A2-7C81-42A1-89EC-D7A5E3180AC2,2023-09-29_13h10.02.263,WP_VExplicitOC_HL,2022.2.5,Win32,6.666933344,NA,NA,NA,NA,NA,NA,NA,NA,NA,NA,NA,NA,NA,NA,NA,NA,NA,NA,NA,NA,NA,NA,NA,NA,NA,NA,NA,NA,NA,NA,NA,NA,NA,NA,NA,NA,NA,NA,NA,NA,NA,NA,NA,NA,NA,NA,NA,NA,NA,NA,NA,NA,NA,NA,14,0,14,0,1
SUPAMT13490,3TAYZSBPLR7LGQH96MJCJTREMS8S2K,A3DC18A2-7C81-42A1-89EC-D7A5E3180AC2,2023-09-29_13h10.02.263,WP_VExplicitOC_HL,2022.2.5,Win32,6.666933344,NA,NA,NA,NA,NA,NA,NA,NA,NA,NA,NA,NA,NA,NA,NA,NA,NA,NA,NA,NA,NA,NA,NA,NA,NA,NA,NA,NA,NA,NA,NA,NA,NA,NA,NA,NA,NA,NA,NA,NA,NA,NA,NA,NA,NA,NA,NA,NA,NA,NA,NA,NA,NA,NA,NA,NA,NA,NA,NA
