participant,session,completion,date,expName,psychopyVersion,OS,frameRate,rating_all.response,rating_all.rt,rating_all.tStart,rndRat1.thisRepN,rndRat1.thisTrialN,rndRat1.thisN,rndRat1.thisIndex,rndRat1.ran,Emo,Labs,Labs2,rating_alt.response,rating_alt.rt,AltC.thisRepN,AltC.thisTrialN,AltC.thisN,AltC.thisIndex,AltC.ran,alt_choices,pic_choices,BottomAlt_Choice,rndRat2.thisRepN,rndRat2.thisTrialN,rndRat2.thisN,rndRat2.thisIndex,rndRat2.ran,rndRat3.thisRepN,rndRat3.thisTrialN,rndRat3.thisN,rndRat3.thisIndex,rndRat3.ran,trials_FC_L.thisRepN,trials_FC_L.thisTrialN,trials_FC_L.thisN,trials_FC_L.thisIndex,trials_FC_L.ran,rating_alt_2.response,rating_alt_2.rt,AltC2.thisRepN,AltC2.thisTrialN,AltC2.thisN,AltC2.thisIndex,AltC2.ran,TopAlt_Choice,rndRat4.thisRepN,rndRat4.thisTrialN,rndRat4.thisN,rndRat4.thisIndex,rndRat4.ran,rndRat5.thisRepN,rndRat5.thisTrialN,rndRat5.thisN,rndRat5.thisIndex,rndRat5.ran,trials_FC_H.thisRepN,trials_FC_H.thisTrialN,trials_FC_H.thisN,trials_FC_H.thisIndex,trials_FC_H.ran
SUPAMT16300,3OSWBBLG1KWGFH1OXL9GEKZAYKKXDZ,1ADCE9FA-4F76-435A-A6FD-7AA8684FE963,2023-09-27_07h22.52.773,WP_VExplicitOC_LH,2022.2.5,Win32,8.571771442,NA,NA,NA,NA,NA,NA,NA,NA,NA,NA,NA,NA,NA,NA,NA,NA,NA,NA,NA,NA,NA,NA,NA,NA,NA,NA,NA,NA,NA,NA,NA,NA,NA,NA,NA,NA,NA,NA,NA,NA,NA,NA,NA,NA,NA,NA,NA,NA,NA,NA,NA,NA,NA,NA,NA,NA,NA,NA,NA
SUPAMT16300,3OSWBBLG1KWGFH1OXL9GEKZAYKKXDZ,1ADCE9FA-4F76-435A-A6FD-7AA8684FE963,2023-09-27_07h22.52.773,WP_VExplicitOC_LH,2022.2.5,Win32,8.571771442,NA,NA,NA,NA,NA,NA,NA,NA,NA,NA,NA,NA,NA,NA,NA,NA,NA,NA,NA,NA,NA,NA,NA,NA,NA,NA,NA,NA,NA,NA,NA,NA,NA,NA,NA,NA,NA,NA,NA,NA,NA,NA,NA,NA,NA,NA,NA,NA,NA,NA,NA,NA,NA,NA,NA,NA,NA,NA,NA
SUPAMT16300,3OSWBBLG1KWGFH1OXL9GEKZAYKKXDZ,1ADCE9FA-4F76-435A-A6FD-7AA8684FE963,2023-09-27_07h22.52.773,WP_VExplicitOC_LH,2022.2.5,Win32,8.571771442,NA,NA,NA,NA,NA,NA,NA,NA,NA,NA,NA,NA,NA,NA,NA,NA,NA,NA,NA,NA,NA,NA,NA,NA,NA,NA,NA,NA,NA,NA,NA,NA,NA,NA,NA,NA,NA,NA,NA,NA,NA,NA,NA,NA,NA,NA,NA,NA,NA,NA,NA,NA,NA,NA,NA,NA,NA,NA,NA
SUPAMT16300,3OSWBBLG1KWGFH1OXL9GEKZAYKKXDZ,1ADCE9FA-4F76-435A-A6FD-7AA8684FE963,2023-09-27_07h22.52.773,WP_VExplicitOC_LH,2022.2.5,Win32,8.571771442,98.86914378,5.842,2.186,0,0,0,2,1,bored,"bored, not bored","more bored, less bored",NA,NA,NA,NA,NA,NA,NA,NA,NA,NA,NA,NA,NA,NA,NA,NA,NA,NA,NA,NA,NA,NA,NA,NA,NA,NA,NA,NA,NA,NA,NA,NA,NA,NA,NA,NA,NA,NA,NA,NA,NA,NA,NA,NA,NA,NA,NA,NA
SUPAMT16300,3OSWBBLG1KWGFH1OXL9GEKZAYKKXDZ,1ADCE9FA-4F76-435A-A6FD-7AA8684FE963,2023-09-27_07h22.52.773,WP_VExplicitOC_LH,2022.2.5,Win32,8.571771442,99.51534733,3.552,2.141,0,1,1,0,1,happy,"unhappy, happy","less happy, more happy",NA,NA,NA,NA,NA,NA,NA,NA,NA,NA,NA,NA,NA,NA,NA,NA,NA,NA,NA,NA,NA,NA,NA,NA,NA,NA,NA,NA,NA,NA,NA,NA,NA,NA,NA,NA,NA,NA,NA,NA,NA,NA,NA,NA,NA,NA,NA,NA
SUPAMT16300,3OSWBBLG1KWGFH1OXL9GEKZAYKKXDZ,1ADCE9FA-4F76-435A-A6FD-7AA8684FE963,2023-09-27_07h22.52.773,WP_VExplicitOC_LH,2022.2.5,Win32,8.571771442,99.51534733,3.423,2.138,0,2,2,1,1,frustrated,"frustrated, not frustrated","more frustrated, less frustrated",NA,NA,NA,NA,NA,NA,NA,NA,NA,NA,NA,NA,NA,NA,NA,NA,NA,NA,NA,NA,NA,NA,NA,NA,NA,NA,NA,NA,NA,NA,NA,NA,NA,NA,NA,NA,NA,NA,NA,NA,NA,NA,NA,NA,NA,NA,NA,NA
SUPAMT16300,3OSWBBLG1KWGFH1OXL9GEKZAYKKXDZ,1ADCE9FA-4F76-435A-A6FD-7AA8684FE963,2023-09-27_07h22.52.773,WP_VExplicitOC_LH,2022.2.5,Win32,8.571771442,NA,NA,NA,NA,NA,NA,NA,NA,NA,NA,NA,NA,NA,NA,NA,NA,NA,NA,NA,NA,NA,NA,NA,NA,NA,NA,NA,NA,NA,NA,NA,NA,NA,NA,NA,NA,NA,NA,NA,NA,NA,NA,NA,NA,NA,NA,NA,NA,NA,NA,NA,NA,NA,NA,NA,NA,NA,NA,NA
SUPAMT16300,3OSWBBLG1KWGFH1OXL9GEKZAYKKXDZ,1ADCE9FA-4F76-435A-A6FD-7AA8684FE963,2023-09-27_07h22.52.773,WP_VExplicitOC_LH,2022.2.5,Win32,8.571771442,NA,NA,NA,NA,NA,NA,NA,NA,NA,NA,NA,NA,NA,NA,NA,NA,NA,NA,NA,NA,NA,NA,NA,NA,NA,NA,NA,NA,NA,NA,NA,NA,NA,NA,NA,NA,NA,NA,NA,NA,NA,NA,NA,NA,NA,NA,NA,NA,NA,NA,NA,NA,NA,NA,NA,NA,NA,NA,NA
SUPAMT16300,3OSWBBLG1KWGFH1OXL9GEKZAYKKXDZ,1ADCE9FA-4F76-435A-A6FD-7AA8684FE963,2023-09-27_07h22.52.773,WP_VExplicitOC_LH,2022.2.5,Win32,8.571771442,NA,NA,NA,NA,NA,NA,NA,NA,NA,NA,NA,NA,NA,NA,NA,NA,NA,NA,NA,NA,NA,NA,NA,NA,NA,NA,NA,NA,NA,NA,NA,NA,NA,NA,NA,NA,NA,NA,NA,NA,NA,NA,NA,NA,NA,NA,NA,NA,NA,NA,NA,NA,NA,NA,NA,NA,NA,NA,NA
SUPAMT16300,3OSWBBLG1KWGFH1OXL9GEKZAYKKXDZ,1ADCE9FA-4F76-435A-A6FD-7AA8684FE963,2023-09-27_07h22.52.773,WP_VExplicitOC_LH,2022.2.5,Win32,8.571771442,NA,NA,NA,NA,NA,NA,NA,NA,NA,NA,NA,NA,NA,NA,NA,NA,NA,NA,NA,NA,NA,NA,NA,NA,NA,NA,NA,NA,NA,NA,NA,NA,NA,NA,NA,NA,NA,NA,NA,NA,NA,NA,NA,NA,NA,NA,NA,NA,NA,NA,NA,NA,NA,NA,NA,NA,NA,NA,NA
SUPAMT16300,3OSWBBLG1KWGFH1OXL9GEKZAYKKXDZ,1ADCE9FA-4F76-435A-A6FD-7AA8684FE963,2023-09-27_07h22.52.773,WP_VExplicitOC_LH,2022.2.5,Win32,8.571771442,NA,NA,NA,NA,NA,NA,NA,NA,NA,NA,NA,99.51534733,2.153,0,0,0,0,1,rest (looking at a fixed cross),001.png,NA,NA,NA,NA,NA,NA,NA,NA,NA,NA,NA,NA,NA,NA,NA,NA,NA,NA,NA,NA,NA,NA,NA,NA,NA,NA,NA,NA,NA,NA,NA,NA,NA,NA,NA,NA,NA,NA,NA
SUPAMT16300,3OSWBBLG1KWGFH1OXL9GEKZAYKKXDZ,1ADCE9FA-4F76-435A-A6FD-7AA8684FE963,2023-09-27_07h22.52.773,WP_VExplicitOC_LH,2022.2.5,Win32,8.571771442,NA,NA,NA,NA,NA,NA,NA,NA,NA,NA,NA,-26.17124394,5.098,0,1,1,1,1,stand up,002.png,NA,NA,NA,NA,NA,NA,NA,NA,NA,NA,NA,NA,NA,NA,NA,NA,NA,NA,NA,NA,NA,NA,NA,NA,NA,NA,NA,NA,NA,NA,NA,NA,NA,NA,NA,NA,NA,NA,NA
SUPAMT16300,3OSWBBLG1KWGFH1OXL9GEKZAYKKXDZ,1ADCE9FA-4F76-435A-A6FD-7AA8684FE963,2023-09-27_07h22.52.773,WP_VExplicitOC_LH,2022.2.5,Win32,8.571771442,NA,NA,NA,NA,NA,NA,NA,NA,NA,NA,NA,31.34087237,3.304,0,2,2,2,1,stretch,003.png,NA,NA,NA,NA,NA,NA,NA,NA,NA,NA,NA,NA,NA,NA,NA,NA,NA,NA,NA,NA,NA,NA,NA,NA,NA,NA,NA,NA,NA,NA,NA,NA,NA,NA,NA,NA,NA,NA,NA
SUPAMT16300,3OSWBBLG1KWGFH1OXL9GEKZAYKKXDZ,1ADCE9FA-4F76-435A-A6FD-7AA8684FE963,2023-09-27_07h22.52.773,WP_VExplicitOC_LH,2022.2.5,Win32,8.571771442,NA,NA,NA,NA,NA,NA,NA,NA,NA,NA,NA,99.19224556,2.851,0,3,3,3,1,make a drink,004.png,NA,NA,NA,NA,NA,NA,NA,NA,NA,NA,NA,NA,NA,NA,NA,NA,NA,NA,NA,NA,NA,NA,NA,NA,NA,NA,NA,NA,NA,NA,NA,NA,NA,NA,NA,NA,NA,NA,NA
SUPAMT16300,3OSWBBLG1KWGFH1OXL9GEKZAYKKXDZ,1ADCE9FA-4F76-435A-A6FD-7AA8684FE963,2023-09-27_07h22.52.773,WP_VExplicitOC_LH,2022.2.5,Win32,8.571771442,NA,NA,NA,NA,NA,NA,NA,NA,NA,NA,NA,99.19224556,2.015,0,4,4,4,1,scroll social media,005.png,NA,NA,NA,NA,NA,NA,NA,NA,NA,NA,NA,NA,NA,NA,NA,NA,NA,NA,NA,NA,NA,NA,NA,NA,NA,NA,NA,NA,NA,NA,NA,NA,NA,NA,NA,NA,NA,NA,NA
SUPAMT16300,3OSWBBLG1KWGFH1OXL9GEKZAYKKXDZ,1ADCE9FA-4F76-435A-A6FD-7AA8684FE963,2023-09-27_07h22.52.773,WP_VExplicitOC_LH,2022.2.5,Win32,8.571771442,NA,NA,NA,NA,NA,NA,NA,NA,NA,NA,NA,99.19224556,1.381,0,5,5,5,1,listen to music,006.png,NA,NA,NA,NA,NA,NA,NA,NA,NA,NA,NA,NA,NA,NA,NA,NA,NA,NA,NA,NA,NA,NA,NA,NA,NA,NA,NA,NA,NA,NA,NA,NA,NA,NA,NA,NA,NA,NA,NA
SUPAMT16300,3OSWBBLG1KWGFH1OXL9GEKZAYKKXDZ,1ADCE9FA-4F76-435A-A6FD-7AA8684FE963,2023-09-27_07h22.52.773,WP_VExplicitOC_LH,2022.2.5,Win32,8.571771442,NA,NA,NA,NA,NA,NA,NA,NA,NA,NA,NA,92.08400646,3.785,0,6,6,6,1,daydream,007.png,NA,NA,NA,NA,NA,NA,NA,NA,NA,NA,NA,NA,NA,NA,NA,NA,NA,NA,NA,NA,NA,NA,NA,NA,NA,NA,NA,NA,NA,NA,NA,NA,NA,NA,NA,NA,NA,NA,NA
SUPAMT16300,3OSWBBLG1KWGFH1OXL9GEKZAYKKXDZ,1ADCE9FA-4F76-435A-A6FD-7AA8684FE963,2023-09-27_07h22.52.773,WP_VExplicitOC_LH,2022.2.5,Win32,8.571771442,NA,NA,NA,NA,NA,NA,NA,NA,NA,NA,NA,93.37641357,2.944,0,7,7,7,1,watch a short animation,008.png,NA,NA,NA,NA,NA,NA,NA,NA,NA,NA,NA,NA,NA,NA,NA,NA,NA,NA,NA,NA,NA,NA,NA,NA,NA,NA,NA,NA,NA,NA,NA,NA,NA,NA,NA,NA,NA,NA,NA
SUPAMT16300,3OSWBBLG1KWGFH1OXL9GEKZAYKKXDZ,1ADCE9FA-4F76-435A-A6FD-7AA8684FE963,2023-09-27_07h22.52.773,WP_VExplicitOC_LH,2022.2.5,Win32,8.571771442,NA,NA,NA,NA,NA,NA,NA,NA,NA,NA,NA,92.73021002,2.112,0,8,8,8,1,read a novel,009.png,NA,NA,NA,NA,NA,NA,NA,NA,NA,NA,NA,NA,NA,NA,NA,NA,NA,NA,NA,NA,NA,NA,NA,NA,NA,NA,NA,NA,NA,NA,NA,NA,NA,NA,NA,NA,NA,NA,NA
SUPAMT16300,3OSWBBLG1KWGFH1OXL9GEKZAYKKXDZ,1ADCE9FA-4F76-435A-A6FD-7AA8684FE963,2023-09-27_07h22.52.773,WP_VExplicitOC_LH,2022.2.5,Win32,8.571771442,NA,NA,NA,NA,NA,NA,NA,NA,NA,NA,NA,92.73021002,1.717,0,9,9,9,1,read the news,010.png,NA,NA,NA,NA,NA,NA,NA,NA,NA,NA,NA,NA,NA,NA,NA,NA,NA,NA,NA,NA,NA,NA,NA,NA,NA,NA,NA,NA,NA,NA,NA,NA,NA,NA,NA,NA,NA,NA,NA
SUPAMT16300,3OSWBBLG1KWGFH1OXL9GEKZAYKKXDZ,1ADCE9FA-4F76-435A-A6FD-7AA8684FE963,2023-09-27_07h22.52.773,WP_VExplicitOC_LH,2022.2.5,Win32,8.571771442,NA,NA,NA,NA,NA,NA,NA,NA,NA,NA,NA,NA,NA,NA,NA,NA,NA,NA,NA,NA,NA,NA,NA,NA,NA,NA,NA,NA,NA,NA,NA,NA,NA,NA,NA,NA,NA,NA,NA,NA,NA,NA,NA,NA,NA,NA,NA,NA,NA,NA,NA,NA,NA,NA,NA,NA,NA,NA,NA
SUPAMT16300,3OSWBBLG1KWGFH1OXL9GEKZAYKKXDZ,1ADCE9FA-4F76-435A-A6FD-7AA8684FE963,2023-09-27_07h22.52.773,WP_VExplicitOC_LH,2022.2.5,Win32,8.571771442,NA,NA,NA,NA,NA,NA,NA,NA,NA,NA,NA,NA,NA,NA,NA,NA,NA,NA,NA,NA,stand up,NA,NA,NA,NA,NA,NA,NA,NA,NA,NA,NA,NA,NA,NA,NA,NA,NA,NA,NA,NA,NA,NA,NA,NA,NA,NA,NA,NA,NA,NA,NA,NA,NA,NA,NA,NA,NA,NA
SUPAMT16300,3OSWBBLG1KWGFH1OXL9GEKZAYKKXDZ,1ADCE9FA-4F76-435A-A6FD-7AA8684FE963,2023-09-27_07h22.52.773,WP_VExplicitOC_LH,2022.2.5,Win32,8.571771442,98.546042,4.236,2.014,NA,NA,NA,NA,NA,frustrated,"frustrated, not frustrated","more frustrated, less frustrated",NA,NA,NA,NA,NA,NA,NA,NA,NA,NA,0,0,0,1,1,NA,NA,NA,NA,NA,NA,NA,NA,NA,NA,NA,NA,NA,NA,NA,NA,NA,NA,NA,NA,NA,NA,NA,NA,NA,NA,NA,NA,NA,NA,NA,NA,NA
SUPAMT16300,3OSWBBLG1KWGFH1OXL9GEKZAYKKXDZ,1ADCE9FA-4F76-435A-A6FD-7AA8684FE963,2023-09-27_07h22.52.773,WP_VExplicitOC_LH,2022.2.5,Win32,8.571771442,98.546042,3.249,2.015,NA,NA,NA,NA,NA,happy,"unhappy, happy","less happy, more happy",NA,NA,NA,NA,NA,NA,NA,NA,NA,NA,0,1,1,0,1,NA,NA,NA,NA,NA,NA,NA,NA,NA,NA,NA,NA,NA,NA,NA,NA,NA,NA,NA,NA,NA,NA,NA,NA,NA,NA,NA,NA,NA,NA,NA,NA,NA
SUPAMT16300,3OSWBBLG1KWGFH1OXL9GEKZAYKKXDZ,1ADCE9FA-4F76-435A-A6FD-7AA8684FE963,2023-09-27_07h22.52.773,WP_VExplicitOC_LH,2022.2.5,Win32,8.571771442,98.546042,4.77,2.019,NA,NA,NA,NA,NA,bored,"bored, not bored","more bored, less bored",NA,NA,NA,NA,NA,NA,NA,NA,NA,NA,0,2,2,2,1,NA,NA,NA,NA,NA,NA,NA,NA,NA,NA,NA,NA,NA,NA,NA,NA,NA,NA,NA,NA,NA,NA,NA,NA,NA,NA,NA,NA,NA,NA,NA,NA,NA
SUPAMT16300,3OSWBBLG1KWGFH1OXL9GEKZAYKKXDZ,1ADCE9FA-4F76-435A-A6FD-7AA8684FE963,2023-09-27_07h22.52.773,WP_VExplicitOC_LH,2022.2.5,Win32,8.571771442,NA,NA,NA,NA,NA,NA,NA,NA,NA,NA,NA,NA,NA,NA,NA,NA,NA,NA,NA,NA,NA,NA,NA,NA,NA,NA,NA,NA,NA,NA,NA,NA,NA,NA,NA,NA,NA,NA,NA,NA,NA,NA,NA,NA,NA,NA,NA,NA,NA,NA,NA,NA,NA,NA,NA,NA,NA,NA,NA
SUPAMT16300,3OSWBBLG1KWGFH1OXL9GEKZAYKKXDZ,1ADCE9FA-4F76-435A-A6FD-7AA8684FE963,2023-09-27_07h22.52.773,WP_VExplicitOC_LH,2022.2.5,Win32,8.571771442,NA,NA,NA,NA,NA,NA,NA,NA,NA,NA,NA,NA,NA,NA,NA,NA,NA,NA,NA,NA,NA,NA,NA,NA,NA,NA,NA,NA,NA,NA,NA,NA,NA,NA,NA,NA,NA,NA,NA,NA,NA,NA,NA,NA,NA,NA,NA,NA,NA,NA,NA,NA,NA,NA,NA,NA,NA,NA,NA
SUPAMT16300,3OSWBBLG1KWGFH1OXL9GEKZAYKKXDZ,1ADCE9FA-4F76-435A-A6FD-7AA8684FE963,2023-09-27_07h22.52.773,WP_VExplicitOC_LH,2022.2.5,Win32,8.571771442,98.86914378,4.28,2.118,NA,NA,NA,NA,NA,bored,"bored, not bored","more bored, less bored",NA,NA,NA,NA,NA,NA,NA,NA,NA,NA,NA,NA,NA,NA,NA,0,0,0,2,1,NA,NA,NA,NA,NA,NA,NA,NA,NA,NA,NA,NA,NA,NA,NA,NA,NA,NA,NA,NA,NA,NA,NA,NA,NA,NA,NA,NA
SUPAMT16300,3OSWBBLG1KWGFH1OXL9GEKZAYKKXDZ,1ADCE9FA-4F76-435A-A6FD-7AA8684FE963,2023-09-27_07h22.52.773,WP_VExplicitOC_LH,2022.2.5,Win32,8.571771442,97.89983845,3.652,2.065,NA,NA,NA,NA,NA,frustrated,"frustrated, not frustrated","more frustrated, less frustrated",NA,NA,NA,NA,NA,NA,NA,NA,NA,NA,NA,NA,NA,NA,NA,0,1,1,1,1,NA,NA,NA,NA,NA,NA,NA,NA,NA,NA,NA,NA,NA,NA,NA,NA,NA,NA,NA,NA,NA,NA,NA,NA,NA,NA,NA,NA
SUPAMT16300,3OSWBBLG1KWGFH1OXL9GEKZAYKKXDZ,1ADCE9FA-4F76-435A-A6FD-7AA8684FE963,2023-09-27_07h22.52.773,WP_VExplicitOC_LH,2022.2.5,Win32,8.571771442,97.89983845,3.908,2.035,NA,NA,NA,NA,NA,happy,"unhappy, happy","less happy, more happy",NA,NA,NA,NA,NA,NA,NA,NA,NA,NA,NA,NA,NA,NA,NA,0,2,2,0,1,NA,NA,NA,NA,NA,NA,NA,NA,NA,NA,NA,NA,NA,NA,NA,NA,NA,NA,NA,NA,NA,NA,NA,NA,NA,NA,NA,NA
SUPAMT16300,3OSWBBLG1KWGFH1OXL9GEKZAYKKXDZ,1ADCE9FA-4F76-435A-A6FD-7AA8684FE963,2023-09-27_07h22.52.773,WP_VExplicitOC_LH,2022.2.5,Win32,8.571771442,NA,NA,NA,NA,NA,NA,NA,NA,NA,NA,NA,NA,NA,NA,NA,NA,NA,NA,NA,NA,NA,NA,NA,NA,NA,NA,NA,NA,NA,NA,NA,0,0,0,0,1,NA,NA,NA,NA,NA,NA,NA,NA,NA,NA,NA,NA,NA,NA,NA,NA,NA,NA,NA,NA,NA,NA,NA
SUPAMT16300,3OSWBBLG1KWGFH1OXL9GEKZAYKKXDZ,1ADCE9FA-4F76-435A-A6FD-7AA8684FE963,2023-09-27_07h22.52.773,WP_VExplicitOC_LH,2022.2.5,Win32,8.571771442,98.22294023,5.146,2.649,NA,NA,NA,NA,NA,bored,"bored, not bored","more bored, less bored",NA,NA,NA,NA,NA,NA,NA,NA,NA,NA,NA,NA,NA,NA,NA,0,0,0,2,1,NA,NA,NA,NA,NA,NA,NA,NA,NA,NA,NA,NA,NA,NA,NA,NA,NA,NA,NA,NA,NA,NA,NA,NA,NA,NA,NA,NA
SUPAMT16300,3OSWBBLG1KWGFH1OXL9GEKZAYKKXDZ,1ADCE9FA-4F76-435A-A6FD-7AA8684FE963,2023-09-27_07h22.52.773,WP_VExplicitOC_LH,2022.2.5,Win32,8.571771442,95.63812601,3.388,2,NA,NA,NA,NA,NA,frustrated,"frustrated, not frustrated","more frustrated, less frustrated",NA,NA,NA,NA,NA,NA,NA,NA,NA,NA,NA,NA,NA,NA,NA,0,1,1,1,1,NA,NA,NA,NA,NA,NA,NA,NA,NA,NA,NA,NA,NA,NA,NA,NA,NA,NA,NA,NA,NA,NA,NA,NA,NA,NA,NA,NA
SUPAMT16300,3OSWBBLG1KWGFH1OXL9GEKZAYKKXDZ,1ADCE9FA-4F76-435A-A6FD-7AA8684FE963,2023-09-27_07h22.52.773,WP_VExplicitOC_LH,2022.2.5,Win32,8.571771442,96.28432956,3.999,2.029,NA,NA,NA,NA,NA,happy,"unhappy, happy","less happy, more happy",NA,NA,NA,NA,NA,NA,NA,NA,NA,NA,NA,NA,NA,NA,NA,0,2,2,0,1,NA,NA,NA,NA,NA,NA,NA,NA,NA,NA,NA,NA,NA,NA,NA,NA,NA,NA,NA,NA,NA,NA,NA,NA,NA,NA,NA,NA
SUPAMT16300,3OSWBBLG1KWGFH1OXL9GEKZAYKKXDZ,1ADCE9FA-4F76-435A-A6FD-7AA8684FE963,2023-09-27_07h22.52.773,WP_VExplicitOC_LH,2022.2.5,Win32,8.571771442,NA,NA,NA,NA,NA,NA,NA,NA,NA,NA,NA,NA,NA,NA,NA,NA,NA,NA,NA,NA,NA,NA,NA,NA,NA,NA,NA,NA,NA,NA,NA,1,0,1,0,1,NA,NA,NA,NA,NA,NA,NA,NA,NA,NA,NA,NA,NA,NA,NA,NA,NA,NA,NA,NA,NA,NA,NA
SUPAMT16300,3OSWBBLG1KWGFH1OXL9GEKZAYKKXDZ,1ADCE9FA-4F76-435A-A6FD-7AA8684FE963,2023-09-27_07h22.52.773,WP_VExplicitOC_LH,2022.2.5,Win32,8.571771442,94.99192246,6.046,2.042,NA,NA,NA,NA,NA,frustrated,"frustrated, not frustrated","more frustrated, less frustrated",NA,NA,NA,NA,NA,NA,NA,NA,NA,NA,NA,NA,NA,NA,NA,0,0,0,1,1,NA,NA,NA,NA,NA,NA,NA,NA,NA,NA,NA,NA,NA,NA,NA,NA,NA,NA,NA,NA,NA,NA,NA,NA,NA,NA,NA,NA
SUPAMT16300,3OSWBBLG1KWGFH1OXL9GEKZAYKKXDZ,1ADCE9FA-4F76-435A-A6FD-7AA8684FE963,2023-09-27_07h22.52.773,WP_VExplicitOC_LH,2022.2.5,Win32,8.571771442,95.31502423,3.353,2.121,NA,NA,NA,NA,NA,happy,"unhappy, happy","less happy, more happy",NA,NA,NA,NA,NA,NA,NA,NA,NA,NA,NA,NA,NA,NA,NA,0,1,1,0,1,NA,NA,NA,NA,NA,NA,NA,NA,NA,NA,NA,NA,NA,NA,NA,NA,NA,NA,NA,NA,NA,NA,NA,NA,NA,NA,NA,NA
SUPAMT16300,3OSWBBLG1KWGFH1OXL9GEKZAYKKXDZ,1ADCE9FA-4F76-435A-A6FD-7AA8684FE963,2023-09-27_07h22.52.773,WP_VExplicitOC_LH,2022.2.5,Win32,8.571771442,95.31502423,3.047,2.072,NA,NA,NA,NA,NA,bored,"bored, not bored","more bored, less bored",NA,NA,NA,NA,NA,NA,NA,NA,NA,NA,NA,NA,NA,NA,NA,0,2,2,2,1,NA,NA,NA,NA,NA,NA,NA,NA,NA,NA,NA,NA,NA,NA,NA,NA,NA,NA,NA,NA,NA,NA,NA,NA,NA,NA,NA,NA
SUPAMT16300,3OSWBBLG1KWGFH1OXL9GEKZAYKKXDZ,1ADCE9FA-4F76-435A-A6FD-7AA8684FE963,2023-09-27_07h22.52.773,WP_VExplicitOC_LH,2022.2.5,Win32,8.571771442,NA,NA,NA,NA,NA,NA,NA,NA,NA,NA,NA,NA,NA,NA,NA,NA,NA,NA,NA,NA,NA,NA,NA,NA,NA,NA,NA,NA,NA,NA,NA,2,0,2,0,1,NA,NA,NA,NA,NA,NA,NA,NA,NA,NA,NA,NA,NA,NA,NA,NA,NA,NA,NA,NA,NA,NA,NA
SUPAMT16300,3OSWBBLG1KWGFH1OXL9GEKZAYKKXDZ,1ADCE9FA-4F76-435A-A6FD-7AA8684FE963,2023-09-27_07h22.52.773,WP_VExplicitOC_LH,2022.2.5,Win32,8.571771442,98.22294023,4.139,2.212,NA,NA,NA,NA,NA,bored,"bored, not bored","more bored, less bored",NA,NA,NA,NA,NA,NA,NA,NA,NA,NA,NA,NA,NA,NA,NA,0,0,0,2,1,NA,NA,NA,NA,NA,NA,NA,NA,NA,NA,NA,NA,NA,NA,NA,NA,NA,NA,NA,NA,NA,NA,NA,NA,NA,NA,NA,NA
SUPAMT16300,3OSWBBLG1KWGFH1OXL9GEKZAYKKXDZ,1ADCE9FA-4F76-435A-A6FD-7AA8684FE963,2023-09-27_07h22.52.773,WP_VExplicitOC_LH,2022.2.5,Win32,8.571771442,NA,NA,2.003,NA,NA,NA,NA,NA,happy,"unhappy, happy","less happy, more happy",NA,NA,NA,NA,NA,NA,NA,NA,NA,NA,NA,NA,NA,NA,NA,0,1,1,0,1,NA,NA,NA,NA,NA,NA,NA,NA,NA,NA,NA,NA,NA,NA,NA,NA,NA,NA,NA,NA,NA,NA,NA,NA,NA,NA,NA,NA
SUPAMT16300,3OSWBBLG1KWGFH1OXL9GEKZAYKKXDZ,1ADCE9FA-4F76-435A-A6FD-7AA8684FE963,2023-09-27_07h22.52.773,WP_VExplicitOC_LH,2022.2.5,Win32,8.571771442,98.546042,4.18,2.09,NA,NA,NA,NA,NA,frustrated,"frustrated, not frustrated","more frustrated, less frustrated",NA,NA,NA,NA,NA,NA,NA,NA,NA,NA,NA,NA,NA,NA,NA,0,2,2,1,1,NA,NA,NA,NA,NA,NA,NA,NA,NA,NA,NA,NA,NA,NA,NA,NA,NA,NA,NA,NA,NA,NA,NA,NA,NA,NA,NA,NA
SUPAMT16300,3OSWBBLG1KWGFH1OXL9GEKZAYKKXDZ,1ADCE9FA-4F76-435A-A6FD-7AA8684FE963,2023-09-27_07h22.52.773,WP_VExplicitOC_LH,2022.2.5,Win32,8.571771442,NA,NA,NA,NA,NA,NA,NA,NA,NA,NA,NA,NA,NA,NA,NA,NA,NA,NA,NA,NA,NA,NA,NA,NA,NA,NA,NA,NA,NA,NA,NA,3,0,3,0,1,NA,NA,NA,NA,NA,NA,NA,NA,NA,NA,NA,NA,NA,NA,NA,NA,NA,NA,NA,NA,NA,NA,NA
SUPAMT16300,3OSWBBLG1KWGFH1OXL9GEKZAYKKXDZ,1ADCE9FA-4F76-435A-A6FD-7AA8684FE963,2023-09-27_07h22.52.773,WP_VExplicitOC_LH,2022.2.5,Win32,8.571771442,97.25363489,3.735,2.018,NA,NA,NA,NA,NA,happy,"unhappy, happy","less happy, more happy",NA,NA,NA,NA,NA,NA,NA,NA,NA,NA,NA,NA,NA,NA,NA,0,0,0,0,1,NA,NA,NA,NA,NA,NA,NA,NA,NA,NA,NA,NA,NA,NA,NA,NA,NA,NA,NA,NA,NA,NA,NA,NA,NA,NA,NA,NA
SUPAMT16300,3OSWBBLG1KWGFH1OXL9GEKZAYKKXDZ,1ADCE9FA-4F76-435A-A6FD-7AA8684FE963,2023-09-27_07h22.52.773,WP_VExplicitOC_LH,2022.2.5,Win32,8.571771442,NA,NA,7.67,NA,NA,NA,NA,NA,bored,"bored, not bored","more bored, less bored",NA,NA,NA,NA,NA,NA,NA,NA,NA,NA,NA,NA,NA,NA,NA,0,1,1,2,1,NA,NA,NA,NA,NA,NA,NA,NA,NA,NA,NA,NA,NA,NA,NA,NA,NA,NA,NA,NA,NA,NA,NA,NA,NA,NA,NA,NA
SUPAMT16300,3OSWBBLG1KWGFH1OXL9GEKZAYKKXDZ,1ADCE9FA-4F76-435A-A6FD-7AA8684FE963,2023-09-27_07h22.52.773,WP_VExplicitOC_LH,2022.2.5,Win32,8.571771442,92.40710824,3.628,2.145,NA,NA,NA,NA,NA,frustrated,"frustrated, not frustrated","more frustrated, less frustrated",NA,NA,NA,NA,NA,NA,NA,NA,NA,NA,NA,NA,NA,NA,NA,0,2,2,1,1,NA,NA,NA,NA,NA,NA,NA,NA,NA,NA,NA,NA,NA,NA,NA,NA,NA,NA,NA,NA,NA,NA,NA,NA,NA,NA,NA,NA
SUPAMT16300,3OSWBBLG1KWGFH1OXL9GEKZAYKKXDZ,1ADCE9FA-4F76-435A-A6FD-7AA8684FE963,2023-09-27_07h22.52.773,WP_VExplicitOC_LH,2022.2.5,Win32,8.571771442,NA,NA,NA,NA,NA,NA,NA,NA,NA,NA,NA,NA,NA,NA,NA,NA,NA,NA,NA,NA,NA,NA,NA,NA,NA,NA,NA,NA,NA,NA,NA,4,0,4,0,1,NA,NA,NA,NA,NA,NA,NA,NA,NA,NA,NA,NA,NA,NA,NA,NA,NA,NA,NA,NA,NA,NA,NA
SUPAMT16300,3OSWBBLG1KWGFH1OXL9GEKZAYKKXDZ,1ADCE9FA-4F76-435A-A6FD-7AA8684FE963,2023-09-27_07h22.52.773,WP_VExplicitOC_LH,2022.2.5,Win32,8.571771442,97.89983845,3.565,2.012,NA,NA,NA,NA,NA,bored,"bored, not bored","more bored, less bored",NA,NA,NA,NA,NA,NA,NA,NA,NA,NA,NA,NA,NA,NA,NA,0,0,0,2,1,NA,NA,NA,NA,NA,NA,NA,NA,NA,NA,NA,NA,NA,NA,NA,NA,NA,NA,NA,NA,NA,NA,NA,NA,NA,NA,NA,NA
SUPAMT16300,3OSWBBLG1KWGFH1OXL9GEKZAYKKXDZ,1ADCE9FA-4F76-435A-A6FD-7AA8684FE963,2023-09-27_07h22.52.773,WP_VExplicitOC_LH,2022.2.5,Win32,8.571771442,NA,NA,6.95,NA,NA,NA,NA,NA,frustrated,"frustrated, not frustrated","more frustrated, less frustrated",NA,NA,NA,NA,NA,NA,NA,NA,NA,NA,NA,NA,NA,NA,NA,0,1,1,1,1,NA,NA,NA,NA,NA,NA,NA,NA,NA,NA,NA,NA,NA,NA,NA,NA,NA,NA,NA,NA,NA,NA,NA,NA,NA,NA,NA,NA
SUPAMT16300,3OSWBBLG1KWGFH1OXL9GEKZAYKKXDZ,1ADCE9FA-4F76-435A-A6FD-7AA8684FE963,2023-09-27_07h22.52.773,WP_VExplicitOC_LH,2022.2.5,Win32,8.571771442,98.546042,3.552,2.028,NA,NA,NA,NA,NA,happy,"unhappy, happy","less happy, more happy",NA,NA,NA,NA,NA,NA,NA,NA,NA,NA,NA,NA,NA,NA,NA,0,2,2,0,1,NA,NA,NA,NA,NA,NA,NA,NA,NA,NA,NA,NA,NA,NA,NA,NA,NA,NA,NA,NA,NA,NA,NA,NA,NA,NA,NA,NA
SUPAMT16300,3OSWBBLG1KWGFH1OXL9GEKZAYKKXDZ,1ADCE9FA-4F76-435A-A6FD-7AA8684FE963,2023-09-27_07h22.52.773,WP_VExplicitOC_LH,2022.2.5,Win32,8.571771442,NA,NA,NA,NA,NA,NA,NA,NA,NA,NA,NA,NA,NA,NA,NA,NA,NA,NA,NA,NA,NA,NA,NA,NA,NA,NA,NA,NA,NA,NA,NA,5,0,5,0,1,NA,NA,NA,NA,NA,NA,NA,NA,NA,NA,NA,NA,NA,NA,NA,NA,NA,NA,NA,NA,NA,NA,NA
SUPAMT16300,3OSWBBLG1KWGFH1OXL9GEKZAYKKXDZ,1ADCE9FA-4F76-435A-A6FD-7AA8684FE963,2023-09-27_07h22.52.773,WP_VExplicitOC_LH,2022.2.5,Win32,8.571771442,93.37641357,3.862,2.06,NA,NA,NA,NA,NA,happy,"unhappy, happy","less happy, more happy",NA,NA,NA,NA,NA,NA,NA,NA,NA,NA,NA,NA,NA,NA,NA,0,0,0,0,1,NA,NA,NA,NA,NA,NA,NA,NA,NA,NA,NA,NA,NA,NA,NA,NA,NA,NA,NA,NA,NA,NA,NA,NA,NA,NA,NA,NA
SUPAMT16300,3OSWBBLG1KWGFH1OXL9GEKZAYKKXDZ,1ADCE9FA-4F76-435A-A6FD-7AA8684FE963,2023-09-27_07h22.52.773,WP_VExplicitOC_LH,2022.2.5,Win32,8.571771442,90.46849758,4.899,3.424,NA,NA,NA,NA,NA,frustrated,"frustrated, not frustrated","more frustrated, less frustrated",NA,NA,NA,NA,NA,NA,NA,NA,NA,NA,NA,NA,NA,NA,NA,0,1,1,1,1,NA,NA,NA,NA,NA,NA,NA,NA,NA,NA,NA,NA,NA,NA,NA,NA,NA,NA,NA,NA,NA,NA,NA,NA,NA,NA,NA,NA
SUPAMT16300,3OSWBBLG1KWGFH1OXL9GEKZAYKKXDZ,1ADCE9FA-4F76-435A-A6FD-7AA8684FE963,2023-09-27_07h22.52.773,WP_VExplicitOC_LH,2022.2.5,Win32,8.571771442,NA,NA,4.856,NA,NA,NA,NA,NA,bored,"bored, not bored","more bored, less bored",NA,NA,NA,NA,NA,NA,NA,NA,NA,NA,NA,NA,NA,NA,NA,0,2,2,2,1,NA,NA,NA,NA,NA,NA,NA,NA,NA,NA,NA,NA,NA,NA,NA,NA,NA,NA,NA,NA,NA,NA,NA,NA,NA,NA,NA,NA
SUPAMT16300,3OSWBBLG1KWGFH1OXL9GEKZAYKKXDZ,1ADCE9FA-4F76-435A-A6FD-7AA8684FE963,2023-09-27_07h22.52.773,WP_VExplicitOC_LH,2022.2.5,Win32,8.571771442,NA,NA,NA,NA,NA,NA,NA,NA,NA,NA,NA,NA,NA,NA,NA,NA,NA,NA,NA,NA,NA,NA,NA,NA,NA,NA,NA,NA,NA,NA,NA,6,0,6,0,1,NA,NA,NA,NA,NA,NA,NA,NA,NA,NA,NA,NA,NA,NA,NA,NA,NA,NA,NA,NA,NA,NA,NA
SUPAMT16300,3OSWBBLG1KWGFH1OXL9GEKZAYKKXDZ,1ADCE9FA-4F76-435A-A6FD-7AA8684FE963,2023-09-27_07h22.52.773,WP_VExplicitOC_LH,2022.2.5,Win32,8.571771442,97.57673667,4.725,2.114,NA,NA,NA,NA,NA,happy,"unhappy, happy","less happy, more happy",NA,NA,NA,NA,NA,NA,NA,NA,NA,NA,NA,NA,NA,NA,NA,0,0,0,0,1,NA,NA,NA,NA,NA,NA,NA,NA,NA,NA,NA,NA,NA,NA,NA,NA,NA,NA,NA,NA,NA,NA,NA,NA,NA,NA,NA,NA
SUPAMT16300,3OSWBBLG1KWGFH1OXL9GEKZAYKKXDZ,1ADCE9FA-4F76-435A-A6FD-7AA8684FE963,2023-09-27_07h22.52.773,WP_VExplicitOC_LH,2022.2.5,Win32,8.571771442,NA,NA,2.959,NA,NA,NA,NA,NA,frustrated,"frustrated, not frustrated","more frustrated, less frustrated",NA,NA,NA,NA,NA,NA,NA,NA,NA,NA,NA,NA,NA,NA,NA,0,1,1,1,1,NA,NA,NA,NA,NA,NA,NA,NA,NA,NA,NA,NA,NA,NA,NA,NA,NA,NA,NA,NA,NA,NA,NA,NA,NA,NA,NA,NA
SUPAMT16300,3OSWBBLG1KWGFH1OXL9GEKZAYKKXDZ,1ADCE9FA-4F76-435A-A6FD-7AA8684FE963,2023-09-27_07h22.52.773,WP_VExplicitOC_LH,2022.2.5,Win32,8.571771442,82.06785137,2.31,2.032,NA,NA,NA,NA,NA,bored,"bored, not bored","more bored, less bored",NA,NA,NA,NA,NA,NA,NA,NA,NA,NA,NA,NA,NA,NA,NA,0,2,2,2,1,NA,NA,NA,NA,NA,NA,NA,NA,NA,NA,NA,NA,NA,NA,NA,NA,NA,NA,NA,NA,NA,NA,NA,NA,NA,NA,NA,NA
SUPAMT16300,3OSWBBLG1KWGFH1OXL9GEKZAYKKXDZ,1ADCE9FA-4F76-435A-A6FD-7AA8684FE963,2023-09-27_07h22.52.773,WP_VExplicitOC_LH,2022.2.5,Win32,8.571771442,NA,NA,NA,NA,NA,NA,NA,NA,NA,NA,NA,NA,NA,NA,NA,NA,NA,NA,NA,NA,NA,NA,NA,NA,NA,NA,NA,NA,NA,NA,NA,7,0,7,0,1,NA,NA,NA,NA,NA,NA,NA,NA,NA,NA,NA,NA,NA,NA,NA,NA,NA,NA,NA,NA,NA,NA,NA
SUPAMT16300,3OSWBBLG1KWGFH1OXL9GEKZAYKKXDZ,1ADCE9FA-4F76-435A-A6FD-7AA8684FE963,2023-09-27_07h22.52.773,WP_VExplicitOC_LH,2022.2.5,Win32,8.571771442,NA,NA,2.139,NA,NA,NA,NA,NA,frustrated,"frustrated, not frustrated","more frustrated, less frustrated",NA,NA,NA,NA,NA,NA,NA,NA,NA,NA,NA,NA,NA,NA,NA,0,0,0,1,1,NA,NA,NA,NA,NA,NA,NA,NA,NA,NA,NA,NA,NA,NA,NA,NA,NA,NA,NA,NA,NA,NA,NA,NA,NA,NA,NA,NA
SUPAMT16300,3OSWBBLG1KWGFH1OXL9GEKZAYKKXDZ,1ADCE9FA-4F76-435A-A6FD-7AA8684FE963,2023-09-27_07h22.52.773,WP_VExplicitOC_LH,2022.2.5,Win32,8.571771442,97.89983845,4.234,2.077,NA,NA,NA,NA,NA,bored,"bored, not bored","more bored, less bored",NA,NA,NA,NA,NA,NA,NA,NA,NA,NA,NA,NA,NA,NA,NA,0,1,1,2,1,NA,NA,NA,NA,NA,NA,NA,NA,NA,NA,NA,NA,NA,NA,NA,NA,NA,NA,NA,NA,NA,NA,NA,NA,NA,NA,NA,NA
SUPAMT16300,3OSWBBLG1KWGFH1OXL9GEKZAYKKXDZ,1ADCE9FA-4F76-435A-A6FD-7AA8684FE963,2023-09-27_07h22.52.773,WP_VExplicitOC_LH,2022.2.5,Win32,8.571771442,95.31502423,5.355,3.78,NA,NA,NA,NA,NA,happy,"unhappy, happy","less happy, more happy",NA,NA,NA,NA,NA,NA,NA,NA,NA,NA,NA,NA,NA,NA,NA,0,2,2,0,1,NA,NA,NA,NA,NA,NA,NA,NA,NA,NA,NA,NA,NA,NA,NA,NA,NA,NA,NA,NA,NA,NA,NA,NA,NA,NA,NA,NA
SUPAMT16300,3OSWBBLG1KWGFH1OXL9GEKZAYKKXDZ,1ADCE9FA-4F76-435A-A6FD-7AA8684FE963,2023-09-27_07h22.52.773,WP_VExplicitOC_LH,2022.2.5,Win32,8.571771442,NA,NA,NA,NA,NA,NA,NA,NA,NA,NA,NA,NA,NA,NA,NA,NA,NA,NA,NA,NA,NA,NA,NA,NA,NA,NA,NA,NA,NA,NA,NA,8,0,8,0,1,NA,NA,NA,NA,NA,NA,NA,NA,NA,NA,NA,NA,NA,NA,NA,NA,NA,NA,NA,NA,NA,NA,NA
SUPAMT16300,3OSWBBLG1KWGFH1OXL9GEKZAYKKXDZ,1ADCE9FA-4F76-435A-A6FD-7AA8684FE963,2023-09-27_07h22.52.773,WP_VExplicitOC_LH,2022.2.5,Win32,8.571771442,84.97576737,3.999,2.019,NA,NA,NA,NA,NA,happy,"unhappy, happy","less happy, more happy",NA,NA,NA,NA,NA,NA,NA,NA,NA,NA,NA,NA,NA,NA,NA,0,0,0,0,1,NA,NA,NA,NA,NA,NA,NA,NA,NA,NA,NA,NA,NA,NA,NA,NA,NA,NA,NA,NA,NA,NA,NA,NA,NA,NA,NA,NA
SUPAMT16300,3OSWBBLG1KWGFH1OXL9GEKZAYKKXDZ,1ADCE9FA-4F76-435A-A6FD-7AA8684FE963,2023-09-27_07h22.52.773,WP_VExplicitOC_LH,2022.2.5,Win32,8.571771442,NA,NA,7.377,NA,NA,NA,NA,NA,bored,"bored, not bored","more bored, less bored",NA,NA,NA,NA,NA,NA,NA,NA,NA,NA,NA,NA,NA,NA,NA,0,1,1,2,1,NA,NA,NA,NA,NA,NA,NA,NA,NA,NA,NA,NA,NA,NA,NA,NA,NA,NA,NA,NA,NA,NA,NA,NA,NA,NA,NA,NA
SUPAMT16300,3OSWBBLG1KWGFH1OXL9GEKZAYKKXDZ,1ADCE9FA-4F76-435A-A6FD-7AA8684FE963,2023-09-27_07h22.52.773,WP_VExplicitOC_LH,2022.2.5,Win32,8.571771442,94.02261712,4.128,2.088,NA,NA,NA,NA,NA,frustrated,"frustrated, not frustrated","more frustrated, less frustrated",NA,NA,NA,NA,NA,NA,NA,NA,NA,NA,NA,NA,NA,NA,NA,0,2,2,1,1,NA,NA,NA,NA,NA,NA,NA,NA,NA,NA,NA,NA,NA,NA,NA,NA,NA,NA,NA,NA,NA,NA,NA,NA,NA,NA,NA,NA
SUPAMT16300,3OSWBBLG1KWGFH1OXL9GEKZAYKKXDZ,1ADCE9FA-4F76-435A-A6FD-7AA8684FE963,2023-09-27_07h22.52.773,WP_VExplicitOC_LH,2022.2.5,Win32,8.571771442,NA,NA,NA,NA,NA,NA,NA,NA,NA,NA,NA,NA,NA,NA,NA,NA,NA,NA,NA,NA,NA,NA,NA,NA,NA,NA,NA,NA,NA,NA,NA,9,0,9,0,1,NA,NA,NA,NA,NA,NA,NA,NA,NA,NA,NA,NA,NA,NA,NA,NA,NA,NA,NA,NA,NA,NA,NA
SUPAMT16300,3OSWBBLG1KWGFH1OXL9GEKZAYKKXDZ,1ADCE9FA-4F76-435A-A6FD-7AA8684FE963,2023-09-27_07h22.52.773,WP_VExplicitOC_LH,2022.2.5,Win32,8.571771442,97.89983845,4.002,2.113,NA,NA,NA,NA,NA,bored,"bored, not bored","more bored, less bored",NA,NA,NA,NA,NA,NA,NA,NA,NA,NA,NA,NA,NA,NA,NA,0,0,0,2,1,NA,NA,NA,NA,NA,NA,NA,NA,NA,NA,NA,NA,NA,NA,NA,NA,NA,NA,NA,NA,NA,NA,NA,NA,NA,NA,NA,NA
SUPAMT16300,3OSWBBLG1KWGFH1OXL9GEKZAYKKXDZ,1ADCE9FA-4F76-435A-A6FD-7AA8684FE963,2023-09-27_07h22.52.773,WP_VExplicitOC_LH,2022.2.5,Win32,8.571771442,NA,NA,6.589,NA,NA,NA,NA,NA,frustrated,"frustrated, not frustrated","more frustrated, less frustrated",NA,NA,NA,NA,NA,NA,NA,NA,NA,NA,NA,NA,NA,NA,NA,0,1,1,1,1,NA,NA,NA,NA,NA,NA,NA,NA,NA,NA,NA,NA,NA,NA,NA,NA,NA,NA,NA,NA,NA,NA,NA,NA,NA,NA,NA,NA
SUPAMT16300,3OSWBBLG1KWGFH1OXL9GEKZAYKKXDZ,1ADCE9FA-4F76-435A-A6FD-7AA8684FE963,2023-09-27_07h22.52.773,WP_VExplicitOC_LH,2022.2.5,Win32,8.571771442,98.22294023,3.974,2.126,NA,NA,NA,NA,NA,happy,"unhappy, happy","less happy, more happy",NA,NA,NA,NA,NA,NA,NA,NA,NA,NA,NA,NA,NA,NA,NA,0,2,2,0,1,NA,NA,NA,NA,NA,NA,NA,NA,NA,NA,NA,NA,NA,NA,NA,NA,NA,NA,NA,NA,NA,NA,NA,NA,NA,NA,NA,NA
SUPAMT16300,3OSWBBLG1KWGFH1OXL9GEKZAYKKXDZ,1ADCE9FA-4F76-435A-A6FD-7AA8684FE963,2023-09-27_07h22.52.773,WP_VExplicitOC_LH,2022.2.5,Win32,8.571771442,NA,NA,NA,NA,NA,NA,NA,NA,NA,NA,NA,NA,NA,NA,NA,NA,NA,NA,NA,NA,NA,NA,NA,NA,NA,NA,NA,NA,NA,NA,NA,10,0,10,0,1,NA,NA,NA,NA,NA,NA,NA,NA,NA,NA,NA,NA,NA,NA,NA,NA,NA,NA,NA,NA,NA,NA,NA
SUPAMT16300,3OSWBBLG1KWGFH1OXL9GEKZAYKKXDZ,1ADCE9FA-4F76-435A-A6FD-7AA8684FE963,2023-09-27_07h22.52.773,WP_VExplicitOC_LH,2022.2.5,Win32,8.571771442,96.28432956,4.14,2.007,NA,NA,NA,NA,NA,bored,"bored, not bored","more bored, less bored",NA,NA,NA,NA,NA,NA,NA,NA,NA,NA,NA,NA,NA,NA,NA,0,0,0,2,1,NA,NA,NA,NA,NA,NA,NA,NA,NA,NA,NA,NA,NA,NA,NA,NA,NA,NA,NA,NA,NA,NA,NA,NA,NA,NA,NA,NA
SUPAMT16300,3OSWBBLG1KWGFH1OXL9GEKZAYKKXDZ,1ADCE9FA-4F76-435A-A6FD-7AA8684FE963,2023-09-27_07h22.52.773,WP_VExplicitOC_LH,2022.2.5,Win32,8.571771442,96.28432956,3.181,2.06,NA,NA,NA,NA,NA,frustrated,"frustrated, not frustrated","more frustrated, less frustrated",NA,NA,NA,NA,NA,NA,NA,NA,NA,NA,NA,NA,NA,NA,NA,0,1,1,1,1,NA,NA,NA,NA,NA,NA,NA,NA,NA,NA,NA,NA,NA,NA,NA,NA,NA,NA,NA,NA,NA,NA,NA,NA,NA,NA,NA,NA
SUPAMT16300,3OSWBBLG1KWGFH1OXL9GEKZAYKKXDZ,1ADCE9FA-4F76-435A-A6FD-7AA8684FE963,2023-09-27_07h22.52.773,WP_VExplicitOC_LH,2022.2.5,Win32,8.571771442,96.28432956,3.108,2.052,NA,NA,NA,NA,NA,happy,"unhappy, happy","less happy, more happy",NA,NA,NA,NA,NA,NA,NA,NA,NA,NA,NA,NA,NA,NA,NA,0,2,2,0,1,NA,NA,NA,NA,NA,NA,NA,NA,NA,NA,NA,NA,NA,NA,NA,NA,NA,NA,NA,NA,NA,NA,NA,NA,NA,NA,NA,NA
SUPAMT16300,3OSWBBLG1KWGFH1OXL9GEKZAYKKXDZ,1ADCE9FA-4F76-435A-A6FD-7AA8684FE963,2023-09-27_07h22.52.773,WP_VExplicitOC_LH,2022.2.5,Win32,8.571771442,NA,NA,NA,NA,NA,NA,NA,NA,NA,NA,NA,NA,NA,NA,NA,NA,NA,NA,NA,NA,NA,NA,NA,NA,NA,NA,NA,NA,NA,NA,NA,11,0,11,0,1,NA,NA,NA,NA,NA,NA,NA,NA,NA,NA,NA,NA,NA,NA,NA,NA,NA,NA,NA,NA,NA,NA,NA
SUPAMT16300,3OSWBBLG1KWGFH1OXL9GEKZAYKKXDZ,1ADCE9FA-4F76-435A-A6FD-7AA8684FE963,2023-09-27_07h22.52.773,WP_VExplicitOC_LH,2022.2.5,Win32,8.571771442,94.66882068,3.738,2.209,NA,NA,NA,NA,NA,frustrated,"frustrated, not frustrated","more frustrated, less frustrated",NA,NA,NA,NA,NA,NA,NA,NA,NA,NA,NA,NA,NA,NA,NA,0,0,0,1,1,NA,NA,NA,NA,NA,NA,NA,NA,NA,NA,NA,NA,NA,NA,NA,NA,NA,NA,NA,NA,NA,NA,NA,NA,NA,NA,NA,NA
SUPAMT16300,3OSWBBLG1KWGFH1OXL9GEKZAYKKXDZ,1ADCE9FA-4F76-435A-A6FD-7AA8684FE963,2023-09-27_07h22.52.773,WP_VExplicitOC_LH,2022.2.5,Win32,8.571771442,98.22294023,5.997,2.027,NA,NA,NA,NA,NA,happy,"unhappy, happy","less happy, more happy",NA,NA,NA,NA,NA,NA,NA,NA,NA,NA,NA,NA,NA,NA,NA,0,1,1,0,1,NA,NA,NA,NA,NA,NA,NA,NA,NA,NA,NA,NA,NA,NA,NA,NA,NA,NA,NA,NA,NA,NA,NA,NA,NA,NA,NA,NA
SUPAMT16300,3OSWBBLG1KWGFH1OXL9GEKZAYKKXDZ,1ADCE9FA-4F76-435A-A6FD-7AA8684FE963,2023-09-27_07h22.52.773,WP_VExplicitOC_LH,2022.2.5,Win32,8.571771442,93.37641357,3.927,2.072,NA,NA,NA,NA,NA,bored,"bored, not bored","more bored, less bored",NA,NA,NA,NA,NA,NA,NA,NA,NA,NA,NA,NA,NA,NA,NA,0,2,2,2,1,NA,NA,NA,NA,NA,NA,NA,NA,NA,NA,NA,NA,NA,NA,NA,NA,NA,NA,NA,NA,NA,NA,NA,NA,NA,NA,NA,NA
SUPAMT16300,3OSWBBLG1KWGFH1OXL9GEKZAYKKXDZ,1ADCE9FA-4F76-435A-A6FD-7AA8684FE963,2023-09-27_07h22.52.773,WP_VExplicitOC_LH,2022.2.5,Win32,8.571771442,NA,NA,NA,NA,NA,NA,NA,NA,NA,NA,NA,NA,NA,NA,NA,NA,NA,NA,NA,NA,NA,NA,NA,NA,NA,NA,NA,NA,NA,NA,NA,12,0,12,0,1,NA,NA,NA,NA,NA,NA,NA,NA,NA,NA,NA,NA,NA,NA,NA,NA,NA,NA,NA,NA,NA,NA,NA
SUPAMT16300,3OSWBBLG1KWGFH1OXL9GEKZAYKKXDZ,1ADCE9FA-4F76-435A-A6FD-7AA8684FE963,2023-09-27_07h22.52.773,WP_VExplicitOC_LH,2022.2.5,Win32,8.571771442,98.22294023,3.777,2.057,NA,NA,NA,NA,NA,bored,"bored, not bored","more bored, less bored",NA,NA,NA,NA,NA,NA,NA,NA,NA,NA,NA,NA,NA,NA,NA,0,0,0,2,1,NA,NA,NA,NA,NA,NA,NA,NA,NA,NA,NA,NA,NA,NA,NA,NA,NA,NA,NA,NA,NA,NA,NA,NA,NA,NA,NA,NA
SUPAMT16300,3OSWBBLG1KWGFH1OXL9GEKZAYKKXDZ,1ADCE9FA-4F76-435A-A6FD-7AA8684FE963,2023-09-27_07h22.52.773,WP_VExplicitOC_LH,2022.2.5,Win32,8.571771442,NA,NA,7.439,NA,NA,NA,NA,NA,happy,"unhappy, happy","less happy, more happy",NA,NA,NA,NA,NA,NA,NA,NA,NA,NA,NA,NA,NA,NA,NA,0,1,1,0,1,NA,NA,NA,NA,NA,NA,NA,NA,NA,NA,NA,NA,NA,NA,NA,NA,NA,NA,NA,NA,NA,NA,NA,NA,NA,NA,NA,NA
SUPAMT16300,3OSWBBLG1KWGFH1OXL9GEKZAYKKXDZ,1ADCE9FA-4F76-435A-A6FD-7AA8684FE963,2023-09-27_07h22.52.773,WP_VExplicitOC_LH,2022.2.5,Win32,8.571771442,94.02261712,3.544,2.004,NA,NA,NA,NA,NA,frustrated,"frustrated, not frustrated","more frustrated, less frustrated",NA,NA,NA,NA,NA,NA,NA,NA,NA,NA,NA,NA,NA,NA,NA,0,2,2,1,1,NA,NA,NA,NA,NA,NA,NA,NA,NA,NA,NA,NA,NA,NA,NA,NA,NA,NA,NA,NA,NA,NA,NA,NA,NA,NA,NA,NA
SUPAMT16300,3OSWBBLG1KWGFH1OXL9GEKZAYKKXDZ,1ADCE9FA-4F76-435A-A6FD-7AA8684FE963,2023-09-27_07h22.52.773,WP_VExplicitOC_LH,2022.2.5,Win32,8.571771442,NA,NA,NA,NA,NA,NA,NA,NA,NA,NA,NA,NA,NA,NA,NA,NA,NA,NA,NA,NA,NA,NA,NA,NA,NA,NA,NA,NA,NA,NA,NA,13,0,13,0,1,NA,NA,NA,NA,NA,NA,NA,NA,NA,NA,NA,NA,NA,NA,NA,NA,NA,NA,NA,NA,NA,NA,NA
SUPAMT16300,3OSWBBLG1KWGFH1OXL9GEKZAYKKXDZ,1ADCE9FA-4F76-435A-A6FD-7AA8684FE963,2023-09-27_07h22.52.773,WP_VExplicitOC_LH,2022.2.5,Win32,8.571771442,95.31502423,4.715,2.031,NA,NA,NA,NA,NA,happy,"unhappy, happy","less happy, more happy",NA,NA,NA,NA,NA,NA,NA,NA,NA,NA,NA,NA,NA,NA,NA,0,0,0,0,1,NA,NA,NA,NA,NA,NA,NA,NA,NA,NA,NA,NA,NA,NA,NA,NA,NA,NA,NA,NA,NA,NA,NA,NA,NA,NA,NA,NA
SUPAMT16300,3OSWBBLG1KWGFH1OXL9GEKZAYKKXDZ,1ADCE9FA-4F76-435A-A6FD-7AA8684FE963,2023-09-27_07h22.52.773,WP_VExplicitOC_LH,2022.2.5,Win32,8.571771442,NA,NA,2.008,NA,NA,NA,NA,NA,bored,"bored, not bored","more bored, less bored",NA,NA,NA,NA,NA,NA,NA,NA,NA,NA,NA,NA,NA,NA,NA,0,1,1,2,1,NA,NA,NA,NA,NA,NA,NA,NA,NA,NA,NA,NA,NA,NA,NA,NA,NA,NA,NA,NA,NA,NA,NA,NA,NA,NA,NA,NA
SUPAMT16300,3OSWBBLG1KWGFH1OXL9GEKZAYKKXDZ,1ADCE9FA-4F76-435A-A6FD-7AA8684FE963,2023-09-27_07h22.52.773,WP_VExplicitOC_LH,2022.2.5,Win32,8.571771442,99.19224556,3.271,2.006,NA,NA,NA,NA,NA,frustrated,"frustrated, not frustrated","more frustrated, less frustrated",NA,NA,NA,NA,NA,NA,NA,NA,NA,NA,NA,NA,NA,NA,NA,0,2,2,1,1,NA,NA,NA,NA,NA,NA,NA,NA,NA,NA,NA,NA,NA,NA,NA,NA,NA,NA,NA,NA,NA,NA,NA,NA,NA,NA,NA,NA
SUPAMT16300,3OSWBBLG1KWGFH1OXL9GEKZAYKKXDZ,1ADCE9FA-4F76-435A-A6FD-7AA8684FE963,2023-09-27_07h22.52.773,WP_VExplicitOC_LH,2022.2.5,Win32,8.571771442,NA,NA,NA,NA,NA,NA,NA,NA,NA,NA,NA,NA,NA,NA,NA,NA,NA,NA,NA,NA,NA,NA,NA,NA,NA,NA,NA,NA,NA,NA,NA,14,0,14,0,1,NA,NA,NA,NA,NA,NA,NA,NA,NA,NA,NA,NA,NA,NA,NA,NA,NA,NA,NA,NA,NA,NA,NA
SUPAMT16300,3OSWBBLG1KWGFH1OXL9GEKZAYKKXDZ,1ADCE9FA-4F76-435A-A6FD-7AA8684FE963,2023-09-27_07h22.52.773,WP_VExplicitOC_LH,2022.2.5,Win32,8.571771442,NA,NA,NA,NA,NA,NA,NA,NA,NA,NA,NA,NA,NA,NA,NA,NA,NA,NA,NA,NA,NA,NA,NA,NA,NA,NA,NA,NA,NA,NA,NA,NA,NA,NA,NA,NA,NA,NA,NA,NA,NA,NA,NA,NA,NA,NA,NA,NA,NA,NA,NA,NA,NA,NA,NA,NA,NA,NA,NA
SUPAMT16300,3OSWBBLG1KWGFH1OXL9GEKZAYKKXDZ,1ADCE9FA-4F76-435A-A6FD-7AA8684FE963,2023-09-27_07h22.52.773,WP_VExplicitOC_LH,2022.2.5,Win32,8.571771442,NA,NA,NA,NA,NA,NA,NA,NA,NA,NA,NA,NA,NA,NA,NA,NA,NA,NA,NA,NA,NA,NA,NA,NA,NA,NA,NA,NA,NA,NA,NA,NA,NA,NA,NA,NA,NA,NA,NA,NA,NA,NA,NA,NA,NA,NA,NA,NA,NA,NA,NA,NA,NA,NA,NA,NA,NA,NA,NA
SUPAMT16300,3OSWBBLG1KWGFH1OXL9GEKZAYKKXDZ,1ADCE9FA-4F76-435A-A6FD-7AA8684FE963,2023-09-27_07h22.52.773,WP_VExplicitOC_LH,2022.2.5,Win32,8.571771442,NA,NA,NA,NA,NA,NA,NA,NA,NA,NA,NA,NA,NA,NA,NA,NA,NA,NA,rest (looking at a fixed cross),001.png,NA,NA,NA,NA,NA,NA,NA,NA,NA,NA,NA,NA,NA,NA,NA,NA,97.57673667,6.119,0,0,0,0,1,NA,NA,NA,NA,NA,NA,NA,NA,NA,NA,NA,NA,NA,NA,NA,NA
SUPAMT16300,3OSWBBLG1KWGFH1OXL9GEKZAYKKXDZ,1ADCE9FA-4F76-435A-A6FD-7AA8684FE963,2023-09-27_07h22.52.773,WP_VExplicitOC_LH,2022.2.5,Win32,8.571771442,NA,NA,NA,NA,NA,NA,NA,NA,NA,NA,NA,NA,NA,NA,NA,NA,NA,NA,stand up,002.png,NA,NA,NA,NA,NA,NA,NA,NA,NA,NA,NA,NA,NA,NA,NA,NA,97.57673667,2.708,0,1,1,1,1,NA,NA,NA,NA,NA,NA,NA,NA,NA,NA,NA,NA,NA,NA,NA,NA
SUPAMT16300,3OSWBBLG1KWGFH1OXL9GEKZAYKKXDZ,1ADCE9FA-4F76-435A-A6FD-7AA8684FE963,2023-09-27_07h22.52.773,WP_VExplicitOC_LH,2022.2.5,Win32,8.571771442,NA,NA,NA,NA,NA,NA,NA,NA,NA,NA,NA,NA,NA,NA,NA,NA,NA,NA,stretch,003.png,NA,NA,NA,NA,NA,NA,NA,NA,NA,NA,NA,NA,NA,NA,NA,NA,97.57673667,1.73,0,2,2,2,1,NA,NA,NA,NA,NA,NA,NA,NA,NA,NA,NA,NA,NA,NA,NA,NA
SUPAMT16300,3OSWBBLG1KWGFH1OXL9GEKZAYKKXDZ,1ADCE9FA-4F76-435A-A6FD-7AA8684FE963,2023-09-27_07h22.52.773,WP_VExplicitOC_LH,2022.2.5,Win32,8.571771442,NA,NA,NA,NA,NA,NA,NA,NA,NA,NA,NA,NA,NA,NA,NA,NA,NA,NA,make a drink,004.png,NA,NA,NA,NA,NA,NA,NA,NA,NA,NA,NA,NA,NA,NA,NA,NA,97.57673667,1.22,0,3,3,3,1,NA,NA,NA,NA,NA,NA,NA,NA,NA,NA,NA,NA,NA,NA,NA,NA
SUPAMT16300,3OSWBBLG1KWGFH1OXL9GEKZAYKKXDZ,1ADCE9FA-4F76-435A-A6FD-7AA8684FE963,2023-09-27_07h22.52.773,WP_VExplicitOC_LH,2022.2.5,Win32,8.571771442,NA,NA,NA,NA,NA,NA,NA,NA,NA,NA,NA,NA,NA,NA,NA,NA,NA,NA,scroll social media,005.png,NA,NA,NA,NA,NA,NA,NA,NA,NA,NA,NA,NA,NA,NA,NA,NA,97.57673667,1.305,0,4,4,4,1,NA,NA,NA,NA,NA,NA,NA,NA,NA,NA,NA,NA,NA,NA,NA,NA
SUPAMT16300,3OSWBBLG1KWGFH1OXL9GEKZAYKKXDZ,1ADCE9FA-4F76-435A-A6FD-7AA8684FE963,2023-09-27_07h22.52.773,WP_VExplicitOC_LH,2022.2.5,Win32,8.571771442,NA,NA,NA,NA,NA,NA,NA,NA,NA,NA,NA,NA,NA,NA,NA,NA,NA,NA,listen to music,006.png,NA,NA,NA,NA,NA,NA,NA,NA,NA,NA,NA,NA,NA,NA,NA,NA,97.57673667,0.82,0,5,5,5,1,NA,NA,NA,NA,NA,NA,NA,NA,NA,NA,NA,NA,NA,NA,NA,NA
SUPAMT16300,3OSWBBLG1KWGFH1OXL9GEKZAYKKXDZ,1ADCE9FA-4F76-435A-A6FD-7AA8684FE963,2023-09-27_07h22.52.773,WP_VExplicitOC_LH,2022.2.5,Win32,8.571771442,NA,NA,NA,NA,NA,NA,NA,NA,NA,NA,NA,NA,NA,NA,NA,NA,NA,NA,daydream,007.png,NA,NA,NA,NA,NA,NA,NA,NA,NA,NA,NA,NA,NA,NA,NA,NA,97.57673667,1.166,0,6,6,6,1,NA,NA,NA,NA,NA,NA,NA,NA,NA,NA,NA,NA,NA,NA,NA,NA
SUPAMT16300,3OSWBBLG1KWGFH1OXL9GEKZAYKKXDZ,1ADCE9FA-4F76-435A-A6FD-7AA8684FE963,2023-09-27_07h22.52.773,WP_VExplicitOC_LH,2022.2.5,Win32,8.571771442,NA,NA,NA,NA,NA,NA,NA,NA,NA,NA,NA,NA,NA,NA,NA,NA,NA,NA,watch a short animation,008.png,NA,NA,NA,NA,NA,NA,NA,NA,NA,NA,NA,NA,NA,NA,NA,NA,97.57673667,1.274,0,7,7,7,1,NA,NA,NA,NA,NA,NA,NA,NA,NA,NA,NA,NA,NA,NA,NA,NA
SUPAMT16300,3OSWBBLG1KWGFH1OXL9GEKZAYKKXDZ,1ADCE9FA-4F76-435A-A6FD-7AA8684FE963,2023-09-27_07h22.52.773,WP_VExplicitOC_LH,2022.2.5,Win32,8.571771442,NA,NA,NA,NA,NA,NA,NA,NA,NA,NA,NA,NA,NA,NA,NA,NA,NA,NA,read a novel,009.png,NA,NA,NA,NA,NA,NA,NA,NA,NA,NA,NA,NA,NA,NA,NA,NA,97.57673667,1.638,0,8,8,8,1,NA,NA,NA,NA,NA,NA,NA,NA,NA,NA,NA,NA,NA,NA,NA,NA
SUPAMT16300,3OSWBBLG1KWGFH1OXL9GEKZAYKKXDZ,1ADCE9FA-4F76-435A-A6FD-7AA8684FE963,2023-09-27_07h22.52.773,WP_VExplicitOC_LH,2022.2.5,Win32,8.571771442,NA,NA,NA,NA,NA,NA,NA,NA,NA,NA,NA,NA,NA,NA,NA,NA,NA,NA,read the news,010.png,NA,NA,NA,NA,NA,NA,NA,NA,NA,NA,NA,NA,NA,NA,NA,NA,97.57673667,1.865,0,9,9,9,1,NA,NA,NA,NA,NA,NA,NA,NA,NA,NA,NA,NA,NA,NA,NA,NA
SUPAMT16300,3OSWBBLG1KWGFH1OXL9GEKZAYKKXDZ,1ADCE9FA-4F76-435A-A6FD-7AA8684FE963,2023-09-27_07h22.52.773,WP_VExplicitOC_LH,2022.2.5,Win32,8.571771442,NA,NA,NA,NA,NA,NA,NA,NA,NA,NA,NA,NA,NA,NA,NA,NA,NA,NA,NA,NA,NA,NA,NA,NA,NA,NA,NA,NA,NA,NA,NA,NA,NA,NA,NA,NA,NA,NA,NA,NA,NA,NA,NA,stand up,NA,NA,NA,NA,NA,NA,NA,NA,NA,NA,NA,NA,NA,NA,NA
SUPAMT16300,3OSWBBLG1KWGFH1OXL9GEKZAYKKXDZ,1ADCE9FA-4F76-435A-A6FD-7AA8684FE963,2023-09-27_07h22.52.773,WP_VExplicitOC_LH,2022.2.5,Win32,8.571771442,NA,NA,3.707,NA,NA,NA,NA,NA,bored,"bored, not bored","more bored, less bored",NA,NA,NA,NA,NA,NA,NA,NA,NA,NA,NA,NA,NA,NA,NA,NA,NA,NA,NA,NA,NA,NA,NA,NA,NA,NA,NA,NA,NA,NA,NA,NA,NA,0,0,0,2,1,NA,NA,NA,NA,NA,NA,NA,NA,NA,NA
SUPAMT16300,3OSWBBLG1KWGFH1OXL9GEKZAYKKXDZ,1ADCE9FA-4F76-435A-A6FD-7AA8684FE963,2023-09-27_07h22.52.773,WP_VExplicitOC_LH,2022.2.5,Win32,8.571771442,98.86914378,4.783,2.076,NA,NA,NA,NA,NA,frustrated,"frustrated, not frustrated","more frustrated, less frustrated",NA,NA,NA,NA,NA,NA,NA,NA,NA,NA,NA,NA,NA,NA,NA,NA,NA,NA,NA,NA,NA,NA,NA,NA,NA,NA,NA,NA,NA,NA,NA,NA,NA,0,1,1,1,1,NA,NA,NA,NA,NA,NA,NA,NA,NA,NA
SUPAMT16300,3OSWBBLG1KWGFH1OXL9GEKZAYKKXDZ,1ADCE9FA-4F76-435A-A6FD-7AA8684FE963,2023-09-27_07h22.52.773,WP_VExplicitOC_LH,2022.2.5,Win32,8.571771442,NA,NA,6.774,NA,NA,NA,NA,NA,happy,"unhappy, happy","less happy, more happy",NA,NA,NA,NA,NA,NA,NA,NA,NA,NA,NA,NA,NA,NA,NA,NA,NA,NA,NA,NA,NA,NA,NA,NA,NA,NA,NA,NA,NA,NA,NA,NA,NA,0,2,2,0,1,NA,NA,NA,NA,NA,NA,NA,NA,NA,NA
SUPAMT16300,3OSWBBLG1KWGFH1OXL9GEKZAYKKXDZ,1ADCE9FA-4F76-435A-A6FD-7AA8684FE963,2023-09-27_07h22.52.773,WP_VExplicitOC_LH,2022.2.5,Win32,8.571771442,NA,NA,NA,NA,NA,NA,NA,NA,NA,NA,NA,NA,NA,NA,NA,NA,NA,NA,NA,NA,NA,NA,NA,NA,NA,NA,NA,NA,NA,NA,NA,NA,NA,NA,NA,NA,NA,NA,NA,NA,NA,NA,NA,NA,NA,NA,NA,NA,NA,NA,NA,NA,NA,NA,NA,NA,NA,NA,NA
SUPAMT16300,3OSWBBLG1KWGFH1OXL9GEKZAYKKXDZ,1ADCE9FA-4F76-435A-A6FD-7AA8684FE963,2023-09-27_07h22.52.773,WP_VExplicitOC_LH,2022.2.5,Win32,8.571771442,NA,NA,NA,NA,NA,NA,NA,NA,NA,NA,NA,NA,NA,NA,NA,NA,NA,NA,NA,NA,NA,NA,NA,NA,NA,NA,NA,NA,NA,NA,NA,NA,NA,NA,NA,NA,NA,NA,NA,NA,NA,NA,NA,NA,NA,NA,NA,NA,NA,NA,NA,NA,NA,NA,NA,NA,NA,NA,NA
SUPAMT16300,3OSWBBLG1KWGFH1OXL9GEKZAYKKXDZ,1ADCE9FA-4F76-435A-A6FD-7AA8684FE963,2023-09-27_07h22.52.773,WP_VExplicitOC_LH,2022.2.5,Win32,8.571771442,98.86914378,4.021,2.035,NA,NA,NA,NA,NA,frustrated,"frustrated, not frustrated","more frustrated, less frustrated",NA,NA,NA,NA,NA,NA,NA,NA,NA,NA,NA,NA,NA,NA,NA,NA,NA,NA,NA,NA,NA,NA,NA,NA,NA,NA,NA,NA,NA,NA,NA,NA,NA,NA,NA,NA,NA,NA,0,0,0,1,1,NA,NA,NA,NA,NA
SUPAMT16300,3OSWBBLG1KWGFH1OXL9GEKZAYKKXDZ,1ADCE9FA-4F76-435A-A6FD-7AA8684FE963,2023-09-27_07h22.52.773,WP_VExplicitOC_LH,2022.2.5,Win32,8.571771442,96.93053312,3.797,2.005,NA,NA,NA,NA,NA,bored,"bored, not bored","more bored, less bored",NA,NA,NA,NA,NA,NA,NA,NA,NA,NA,NA,NA,NA,NA,NA,NA,NA,NA,NA,NA,NA,NA,NA,NA,NA,NA,NA,NA,NA,NA,NA,NA,NA,NA,NA,NA,NA,NA,0,1,1,2,1,NA,NA,NA,NA,NA
SUPAMT16300,3OSWBBLG1KWGFH1OXL9GEKZAYKKXDZ,1ADCE9FA-4F76-435A-A6FD-7AA8684FE963,2023-09-27_07h22.52.773,WP_VExplicitOC_LH,2022.2.5,Win32,8.571771442,NA,NA,6.894,NA,NA,NA,NA,NA,happy,"unhappy, happy","less happy, more happy",NA,NA,NA,NA,NA,NA,NA,NA,NA,NA,NA,NA,NA,NA,NA,NA,NA,NA,NA,NA,NA,NA,NA,NA,NA,NA,NA,NA,NA,NA,NA,NA,NA,NA,NA,NA,NA,NA,0,2,2,0,1,NA,NA,NA,NA,NA
SUPAMT16300,3OSWBBLG1KWGFH1OXL9GEKZAYKKXDZ,1ADCE9FA-4F76-435A-A6FD-7AA8684FE963,2023-09-27_07h22.52.773,WP_VExplicitOC_LH,2022.2.5,Win32,8.571771442,NA,NA,NA,NA,NA,NA,NA,NA,NA,NA,NA,NA,NA,NA,NA,NA,NA,NA,NA,NA,NA,NA,NA,NA,NA,NA,NA,NA,NA,NA,NA,NA,NA,NA,NA,NA,NA,NA,NA,NA,NA,NA,NA,NA,NA,NA,NA,NA,NA,NA,NA,NA,NA,NA,0,0,0,0,1
SUPAMT16300,3OSWBBLG1KWGFH1OXL9GEKZAYKKXDZ,1ADCE9FA-4F76-435A-A6FD-7AA8684FE963,2023-09-27_07h22.52.773,WP_VExplicitOC_LH,2022.2.5,Win32,8.571771442,98.22294023,4.019,2.02,NA,NA,NA,NA,NA,happy,"unhappy, happy","less happy, more happy",NA,NA,NA,NA,NA,NA,NA,NA,NA,NA,NA,NA,NA,NA,NA,NA,NA,NA,NA,NA,NA,NA,NA,NA,NA,NA,NA,NA,NA,NA,NA,NA,NA,NA,NA,NA,NA,NA,0,0,0,0,1,NA,NA,NA,NA,NA
SUPAMT16300,3OSWBBLG1KWGFH1OXL9GEKZAYKKXDZ,1ADCE9FA-4F76-435A-A6FD-7AA8684FE963,2023-09-27_07h22.52.773,WP_VExplicitOC_LH,2022.2.5,Win32,8.571771442,87.88368336,6.297,2.119,NA,NA,NA,NA,NA,bored,"bored, not bored","more bored, less bored",NA,NA,NA,NA,NA,NA,NA,NA,NA,NA,NA,NA,NA,NA,NA,NA,NA,NA,NA,NA,NA,NA,NA,NA,NA,NA,NA,NA,NA,NA,NA,NA,NA,NA,NA,NA,NA,NA,0,1,1,2,1,NA,NA,NA,NA,NA
SUPAMT16300,3OSWBBLG1KWGFH1OXL9GEKZAYKKXDZ,1ADCE9FA-4F76-435A-A6FD-7AA8684FE963,2023-09-27_07h22.52.773,WP_VExplicitOC_LH,2022.2.5,Win32,8.571771442,97.57673667,3.732,2.071,NA,NA,NA,NA,NA,frustrated,"frustrated, not frustrated","more frustrated, less frustrated",NA,NA,NA,NA,NA,NA,NA,NA,NA,NA,NA,NA,NA,NA,NA,NA,NA,NA,NA,NA,NA,NA,NA,NA,NA,NA,NA,NA,NA,NA,NA,NA,NA,NA,NA,NA,NA,NA,0,2,2,1,1,NA,NA,NA,NA,NA
SUPAMT16300,3OSWBBLG1KWGFH1OXL9GEKZAYKKXDZ,1ADCE9FA-4F76-435A-A6FD-7AA8684FE963,2023-09-27_07h22.52.773,WP_VExplicitOC_LH,2022.2.5,Win32,8.571771442,NA,NA,NA,NA,NA,NA,NA,NA,NA,NA,NA,NA,NA,NA,NA,NA,NA,NA,NA,NA,NA,NA,NA,NA,NA,NA,NA,NA,NA,NA,NA,NA,NA,NA,NA,NA,NA,NA,NA,NA,NA,NA,NA,NA,NA,NA,NA,NA,NA,NA,NA,NA,NA,NA,1,0,1,0,1
SUPAMT16300,3OSWBBLG1KWGFH1OXL9GEKZAYKKXDZ,1ADCE9FA-4F76-435A-A6FD-7AA8684FE963,2023-09-27_07h22.52.773,WP_VExplicitOC_LH,2022.2.5,Win32,8.571771442,95.31502423,4.014,2.055,NA,NA,NA,NA,NA,bored,"bored, not bored","more bored, less bored",NA,NA,NA,NA,NA,NA,NA,NA,NA,NA,NA,NA,NA,NA,NA,NA,NA,NA,NA,NA,NA,NA,NA,NA,NA,NA,NA,NA,NA,NA,NA,NA,NA,NA,NA,NA,NA,NA,0,0,0,2,1,NA,NA,NA,NA,NA
SUPAMT16300,3OSWBBLG1KWGFH1OXL9GEKZAYKKXDZ,1ADCE9FA-4F76-435A-A6FD-7AA8684FE963,2023-09-27_07h22.52.773,WP_VExplicitOC_LH,2022.2.5,Win32,8.571771442,94.66882068,5.715,2.159,NA,NA,NA,NA,NA,frustrated,"frustrated, not frustrated","more frustrated, less frustrated",NA,NA,NA,NA,NA,NA,NA,NA,NA,NA,NA,NA,NA,NA,NA,NA,NA,NA,NA,NA,NA,NA,NA,NA,NA,NA,NA,NA,NA,NA,NA,NA,NA,NA,NA,NA,NA,NA,0,1,1,1,1,NA,NA,NA,NA,NA
SUPAMT16300,3OSWBBLG1KWGFH1OXL9GEKZAYKKXDZ,1ADCE9FA-4F76-435A-A6FD-7AA8684FE963,2023-09-27_07h22.52.773,WP_VExplicitOC_LH,2022.2.5,Win32,8.571771442,NA,NA,2.091,NA,NA,NA,NA,NA,happy,"unhappy, happy","less happy, more happy",NA,NA,NA,NA,NA,NA,NA,NA,NA,NA,NA,NA,NA,NA,NA,NA,NA,NA,NA,NA,NA,NA,NA,NA,NA,NA,NA,NA,NA,NA,NA,NA,NA,NA,NA,NA,NA,NA,0,2,2,0,1,NA,NA,NA,NA,NA
SUPAMT16300,3OSWBBLG1KWGFH1OXL9GEKZAYKKXDZ,1ADCE9FA-4F76-435A-A6FD-7AA8684FE963,2023-09-27_07h22.52.773,WP_VExplicitOC_LH,2022.2.5,Win32,8.571771442,NA,NA,NA,NA,NA,NA,NA,NA,NA,NA,NA,NA,NA,NA,NA,NA,NA,NA,NA,NA,NA,NA,NA,NA,NA,NA,NA,NA,NA,NA,NA,NA,NA,NA,NA,NA,NA,NA,NA,NA,NA,NA,NA,NA,NA,NA,NA,NA,NA,NA,NA,NA,NA,NA,2,0,2,0,1
SUPAMT16300,3OSWBBLG1KWGFH1OXL9GEKZAYKKXDZ,1ADCE9FA-4F76-435A-A6FD-7AA8684FE963,2023-09-27_07h22.52.773,WP_VExplicitOC_LH,2022.2.5,Win32,8.571771442,97.57673667,4.967,2.229,NA,NA,NA,NA,NA,frustrated,"frustrated, not frustrated","more frustrated, less frustrated",NA,NA,NA,NA,NA,NA,NA,NA,NA,NA,NA,NA,NA,NA,NA,NA,NA,NA,NA,NA,NA,NA,NA,NA,NA,NA,NA,NA,NA,NA,NA,NA,NA,NA,NA,NA,NA,NA,0,0,0,1,1,NA,NA,NA,NA,NA
SUPAMT16300,3OSWBBLG1KWGFH1OXL9GEKZAYKKXDZ,1ADCE9FA-4F76-435A-A6FD-7AA8684FE963,2023-09-27_07h22.52.773,WP_VExplicitOC_LH,2022.2.5,Win32,8.571771442,93.37641357,6.944,2.061,NA,NA,NA,NA,NA,happy,"unhappy, happy","less happy, more happy",NA,NA,NA,NA,NA,NA,NA,NA,NA,NA,NA,NA,NA,NA,NA,NA,NA,NA,NA,NA,NA,NA,NA,NA,NA,NA,NA,NA,NA,NA,NA,NA,NA,NA,NA,NA,NA,NA,0,1,1,0,1,NA,NA,NA,NA,NA
SUPAMT16300,3OSWBBLG1KWGFH1OXL9GEKZAYKKXDZ,1ADCE9FA-4F76-435A-A6FD-7AA8684FE963,2023-09-27_07h22.52.773,WP_VExplicitOC_LH,2022.2.5,Win32,8.571771442,NA,NA,5.881,NA,NA,NA,NA,NA,bored,"bored, not bored","more bored, less bored",NA,NA,NA,NA,NA,NA,NA,NA,NA,NA,NA,NA,NA,NA,NA,NA,NA,NA,NA,NA,NA,NA,NA,NA,NA,NA,NA,NA,NA,NA,NA,NA,NA,NA,NA,NA,NA,NA,0,2,2,2,1,NA,NA,NA,NA,NA
SUPAMT16300,3OSWBBLG1KWGFH1OXL9GEKZAYKKXDZ,1ADCE9FA-4F76-435A-A6FD-7AA8684FE963,2023-09-27_07h22.52.773,WP_VExplicitOC_LH,2022.2.5,Win32,8.571771442,NA,NA,NA,NA,NA,NA,NA,NA,NA,NA,NA,NA,NA,NA,NA,NA,NA,NA,NA,NA,NA,NA,NA,NA,NA,NA,NA,NA,NA,NA,NA,NA,NA,NA,NA,NA,NA,NA,NA,NA,NA,NA,NA,NA,NA,NA,NA,NA,NA,NA,NA,NA,NA,NA,3,0,3,0,1
SUPAMT16300,3OSWBBLG1KWGFH1OXL9GEKZAYKKXDZ,1ADCE9FA-4F76-435A-A6FD-7AA8684FE963,2023-09-27_07h22.52.773,WP_VExplicitOC_LH,2022.2.5,Win32,8.571771442,95.63812601,4.166,2.025,NA,NA,NA,NA,NA,bored,"bored, not bored","more bored, less bored",NA,NA,NA,NA,NA,NA,NA,NA,NA,NA,NA,NA,NA,NA,NA,NA,NA,NA,NA,NA,NA,NA,NA,NA,NA,NA,NA,NA,NA,NA,NA,NA,NA,NA,NA,NA,NA,NA,0,0,0,2,1,NA,NA,NA,NA,NA
SUPAMT16300,3OSWBBLG1KWGFH1OXL9GEKZAYKKXDZ,1ADCE9FA-4F76-435A-A6FD-7AA8684FE963,2023-09-27_07h22.52.773,WP_VExplicitOC_LH,2022.2.5,Win32,8.571771442,96.28432956,4.331,2.045,NA,NA,NA,NA,NA,happy,"unhappy, happy","less happy, more happy",NA,NA,NA,NA,NA,NA,NA,NA,NA,NA,NA,NA,NA,NA,NA,NA,NA,NA,NA,NA,NA,NA,NA,NA,NA,NA,NA,NA,NA,NA,NA,NA,NA,NA,NA,NA,NA,NA,0,1,1,0,1,NA,NA,NA,NA,NA
SUPAMT16300,3OSWBBLG1KWGFH1OXL9GEKZAYKKXDZ,1ADCE9FA-4F76-435A-A6FD-7AA8684FE963,2023-09-27_07h22.52.773,WP_VExplicitOC_LH,2022.2.5,Win32,8.571771442,NA,NA,10.389,NA,NA,NA,NA,NA,frustrated,"frustrated, not frustrated","more frustrated, less frustrated",NA,NA,NA,NA,NA,NA,NA,NA,NA,NA,NA,NA,NA,NA,NA,NA,NA,NA,NA,NA,NA,NA,NA,NA,NA,NA,NA,NA,NA,NA,NA,NA,NA,NA,NA,NA,NA,NA,0,2,2,1,1,NA,NA,NA,NA,NA
SUPAMT16300,3OSWBBLG1KWGFH1OXL9GEKZAYKKXDZ,1ADCE9FA-4F76-435A-A6FD-7AA8684FE963,2023-09-27_07h22.52.773,WP_VExplicitOC_LH,2022.2.5,Win32,8.571771442,NA,NA,NA,NA,NA,NA,NA,NA,NA,NA,NA,NA,NA,NA,NA,NA,NA,NA,NA,NA,NA,NA,NA,NA,NA,NA,NA,NA,NA,NA,NA,NA,NA,NA,NA,NA,NA,NA,NA,NA,NA,NA,NA,NA,NA,NA,NA,NA,NA,NA,NA,NA,NA,NA,4,0,4,0,1
SUPAMT16300,3OSWBBLG1KWGFH1OXL9GEKZAYKKXDZ,1ADCE9FA-4F76-435A-A6FD-7AA8684FE963,2023-09-27_07h22.52.773,WP_VExplicitOC_LH,2022.2.5,Win32,8.571771442,95.31502423,3.615,2.035,NA,NA,NA,NA,NA,bored,"bored, not bored","more bored, less bored",NA,NA,NA,NA,NA,NA,NA,NA,NA,NA,NA,NA,NA,NA,NA,NA,NA,NA,NA,NA,NA,NA,NA,NA,NA,NA,NA,NA,NA,NA,NA,NA,NA,NA,NA,NA,NA,NA,0,0,0,2,1,NA,NA,NA,NA,NA
SUPAMT16300,3OSWBBLG1KWGFH1OXL9GEKZAYKKXDZ,1ADCE9FA-4F76-435A-A6FD-7AA8684FE963,2023-09-27_07h22.52.773,WP_VExplicitOC_LH,2022.2.5,Win32,8.571771442,89.17609047,4.599,3.278,NA,NA,NA,NA,NA,frustrated,"frustrated, not frustrated","more frustrated, less frustrated",NA,NA,NA,NA,NA,NA,NA,NA,NA,NA,NA,NA,NA,NA,NA,NA,NA,NA,NA,NA,NA,NA,NA,NA,NA,NA,NA,NA,NA,NA,NA,NA,NA,NA,NA,NA,NA,NA,0,1,1,1,1,NA,NA,NA,NA,NA
SUPAMT16300,3OSWBBLG1KWGFH1OXL9GEKZAYKKXDZ,1ADCE9FA-4F76-435A-A6FD-7AA8684FE963,2023-09-27_07h22.52.773,WP_VExplicitOC_LH,2022.2.5,Win32,8.571771442,89.49919225,6.059,4.487,NA,NA,NA,NA,NA,happy,"unhappy, happy","less happy, more happy",NA,NA,NA,NA,NA,NA,NA,NA,NA,NA,NA,NA,NA,NA,NA,NA,NA,NA,NA,NA,NA,NA,NA,NA,NA,NA,NA,NA,NA,NA,NA,NA,NA,NA,NA,NA,NA,NA,0,2,2,0,1,NA,NA,NA,NA,NA
SUPAMT16300,3OSWBBLG1KWGFH1OXL9GEKZAYKKXDZ,1ADCE9FA-4F76-435A-A6FD-7AA8684FE963,2023-09-27_07h22.52.773,WP_VExplicitOC_LH,2022.2.5,Win32,8.571771442,NA,NA,NA,NA,NA,NA,NA,NA,NA,NA,NA,NA,NA,NA,NA,NA,NA,NA,NA,NA,NA,NA,NA,NA,NA,NA,NA,NA,NA,NA,NA,NA,NA,NA,NA,NA,NA,NA,NA,NA,NA,NA,NA,NA,NA,NA,NA,NA,NA,NA,NA,NA,NA,NA,5,0,5,0,1
SUPAMT16300,3OSWBBLG1KWGFH1OXL9GEKZAYKKXDZ,1ADCE9FA-4F76-435A-A6FD-7AA8684FE963,2023-09-27_07h22.52.773,WP_VExplicitOC_LH,2022.2.5,Win32,8.571771442,95.96122779,4.231,2.048,NA,NA,NA,NA,NA,bored,"bored, not bored","more bored, less bored",NA,NA,NA,NA,NA,NA,NA,NA,NA,NA,NA,NA,NA,NA,NA,NA,NA,NA,NA,NA,NA,NA,NA,NA,NA,NA,NA,NA,NA,NA,NA,NA,NA,NA,NA,NA,NA,NA,0,0,0,2,1,NA,NA,NA,NA,NA
SUPAMT16300,3OSWBBLG1KWGFH1OXL9GEKZAYKKXDZ,1ADCE9FA-4F76-435A-A6FD-7AA8684FE963,2023-09-27_07h22.52.773,WP_VExplicitOC_LH,2022.2.5,Win32,8.571771442,95.63812601,4.181,2.048,NA,NA,NA,NA,NA,happy,"unhappy, happy","less happy, more happy",NA,NA,NA,NA,NA,NA,NA,NA,NA,NA,NA,NA,NA,NA,NA,NA,NA,NA,NA,NA,NA,NA,NA,NA,NA,NA,NA,NA,NA,NA,NA,NA,NA,NA,NA,NA,NA,NA,0,1,1,0,1,NA,NA,NA,NA,NA
SUPAMT16300,3OSWBBLG1KWGFH1OXL9GEKZAYKKXDZ,1ADCE9FA-4F76-435A-A6FD-7AA8684FE963,2023-09-27_07h22.52.773,WP_VExplicitOC_LH,2022.2.5,Win32,8.571771442,90.1453958,6.244,2,NA,NA,NA,NA,NA,frustrated,"frustrated, not frustrated","more frustrated, less frustrated",NA,NA,NA,NA,NA,NA,NA,NA,NA,NA,NA,NA,NA,NA,NA,NA,NA,NA,NA,NA,NA,NA,NA,NA,NA,NA,NA,NA,NA,NA,NA,NA,NA,NA,NA,NA,NA,NA,0,2,2,1,1,NA,NA,NA,NA,NA
SUPAMT16300,3OSWBBLG1KWGFH1OXL9GEKZAYKKXDZ,1ADCE9FA-4F76-435A-A6FD-7AA8684FE963,2023-09-27_07h22.52.773,WP_VExplicitOC_LH,2022.2.5,Win32,8.571771442,NA,NA,NA,NA,NA,NA,NA,NA,NA,NA,NA,NA,NA,NA,NA,NA,NA,NA,NA,NA,NA,NA,NA,NA,NA,NA,NA,NA,NA,NA,NA,NA,NA,NA,NA,NA,NA,NA,NA,NA,NA,NA,NA,NA,NA,NA,NA,NA,NA,NA,NA,NA,NA,NA,6,0,6,0,1
SUPAMT16300,3OSWBBLG1KWGFH1OXL9GEKZAYKKXDZ,1ADCE9FA-4F76-435A-A6FD-7AA8684FE963,2023-09-27_07h22.52.773,WP_VExplicitOC_LH,2022.2.5,Win32,8.571771442,98.22294023,5.158,2.021,NA,NA,NA,NA,NA,frustrated,"frustrated, not frustrated","more frustrated, less frustrated",NA,NA,NA,NA,NA,NA,NA,NA,NA,NA,NA,NA,NA,NA,NA,NA,NA,NA,NA,NA,NA,NA,NA,NA,NA,NA,NA,NA,NA,NA,NA,NA,NA,NA,NA,NA,NA,NA,0,0,0,1,1,NA,NA,NA,NA,NA
SUPAMT16300,3OSWBBLG1KWGFH1OXL9GEKZAYKKXDZ,1ADCE9FA-4F76-435A-A6FD-7AA8684FE963,2023-09-27_07h22.52.773,WP_VExplicitOC_LH,2022.2.5,Win32,8.571771442,98.22294023,3.55,2.044,NA,NA,NA,NA,NA,happy,"unhappy, happy","less happy, more happy",NA,NA,NA,NA,NA,NA,NA,NA,NA,NA,NA,NA,NA,NA,NA,NA,NA,NA,NA,NA,NA,NA,NA,NA,NA,NA,NA,NA,NA,NA,NA,NA,NA,NA,NA,NA,NA,NA,0,1,1,0,1,NA,NA,NA,NA,NA
SUPAMT16300,3OSWBBLG1KWGFH1OXL9GEKZAYKKXDZ,1ADCE9FA-4F76-435A-A6FD-7AA8684FE963,2023-09-27_07h22.52.773,WP_VExplicitOC_LH,2022.2.5,Win32,8.571771442,98.22294023,3.305,2.051,NA,NA,NA,NA,NA,bored,"bored, not bored","more bored, less bored",NA,NA,NA,NA,NA,NA,NA,NA,NA,NA,NA,NA,NA,NA,NA,NA,NA,NA,NA,NA,NA,NA,NA,NA,NA,NA,NA,NA,NA,NA,NA,NA,NA,NA,NA,NA,NA,NA,0,2,2,2,1,NA,NA,NA,NA,NA
SUPAMT16300,3OSWBBLG1KWGFH1OXL9GEKZAYKKXDZ,1ADCE9FA-4F76-435A-A6FD-7AA8684FE963,2023-09-27_07h22.52.773,WP_VExplicitOC_LH,2022.2.5,Win32,8.571771442,NA,NA,NA,NA,NA,NA,NA,NA,NA,NA,NA,NA,NA,NA,NA,NA,NA,NA,NA,NA,NA,NA,NA,NA,NA,NA,NA,NA,NA,NA,NA,NA,NA,NA,NA,NA,NA,NA,NA,NA,NA,NA,NA,NA,NA,NA,NA,NA,NA,NA,NA,NA,NA,NA,7,0,7,0,1
SUPAMT16300,3OSWBBLG1KWGFH1OXL9GEKZAYKKXDZ,1ADCE9FA-4F76-435A-A6FD-7AA8684FE963,2023-09-27_07h22.52.773,WP_VExplicitOC_LH,2022.2.5,Win32,8.571771442,97.57673667,4.155,2.034,NA,NA,NA,NA,NA,happy,"unhappy, happy","less happy, more happy",NA,NA,NA,NA,NA,NA,NA,NA,NA,NA,NA,NA,NA,NA,NA,NA,NA,NA,NA,NA,NA,NA,NA,NA,NA,NA,NA,NA,NA,NA,NA,NA,NA,NA,NA,NA,NA,NA,0,0,0,0,1,NA,NA,NA,NA,NA
SUPAMT16300,3OSWBBLG1KWGFH1OXL9GEKZAYKKXDZ,1ADCE9FA-4F76-435A-A6FD-7AA8684FE963,2023-09-27_07h22.52.773,WP_VExplicitOC_LH,2022.2.5,Win32,8.571771442,97.57673667,3.786,2.038,NA,NA,NA,NA,NA,bored,"bored, not bored","more bored, less bored",NA,NA,NA,NA,NA,NA,NA,NA,NA,NA,NA,NA,NA,NA,NA,NA,NA,NA,NA,NA,NA,NA,NA,NA,NA,NA,NA,NA,NA,NA,NA,NA,NA,NA,NA,NA,NA,NA,0,1,1,2,1,NA,NA,NA,NA,NA
SUPAMT16300,3OSWBBLG1KWGFH1OXL9GEKZAYKKXDZ,1ADCE9FA-4F76-435A-A6FD-7AA8684FE963,2023-09-27_07h22.52.773,WP_VExplicitOC_LH,2022.2.5,Win32,8.571771442,97.57673667,3.341,2.027,NA,NA,NA,NA,NA,frustrated,"frustrated, not frustrated","more frustrated, less frustrated",NA,NA,NA,NA,NA,NA,NA,NA,NA,NA,NA,NA,NA,NA,NA,NA,NA,NA,NA,NA,NA,NA,NA,NA,NA,NA,NA,NA,NA,NA,NA,NA,NA,NA,NA,NA,NA,NA,0,2,2,1,1,NA,NA,NA,NA,NA
SUPAMT16300,3OSWBBLG1KWGFH1OXL9GEKZAYKKXDZ,1ADCE9FA-4F76-435A-A6FD-7AA8684FE963,2023-09-27_07h22.52.773,WP_VExplicitOC_LH,2022.2.5,Win32,8.571771442,NA,NA,NA,NA,NA,NA,NA,NA,NA,NA,NA,NA,NA,NA,NA,NA,NA,NA,NA,NA,NA,NA,NA,NA,NA,NA,NA,NA,NA,NA,NA,NA,NA,NA,NA,NA,NA,NA,NA,NA,NA,NA,NA,NA,NA,NA,NA,NA,NA,NA,NA,NA,NA,NA,8,0,8,0,1
SUPAMT16300,3OSWBBLG1KWGFH1OXL9GEKZAYKKXDZ,1ADCE9FA-4F76-435A-A6FD-7AA8684FE963,2023-09-27_07h22.52.773,WP_VExplicitOC_LH,2022.2.5,Win32,8.571771442,NA,NA,2.037,NA,NA,NA,NA,NA,frustrated,"frustrated, not frustrated","more frustrated, less frustrated",NA,NA,NA,NA,NA,NA,NA,NA,NA,NA,NA,NA,NA,NA,NA,NA,NA,NA,NA,NA,NA,NA,NA,NA,NA,NA,NA,NA,NA,NA,NA,NA,NA,NA,NA,NA,NA,NA,0,0,0,1,1,NA,NA,NA,NA,NA
SUPAMT16300,3OSWBBLG1KWGFH1OXL9GEKZAYKKXDZ,1ADCE9FA-4F76-435A-A6FD-7AA8684FE963,2023-09-27_07h22.52.773,WP_VExplicitOC_LH,2022.2.5,Win32,8.571771442,97.25363489,5.135,2.001,NA,NA,NA,NA,NA,bored,"bored, not bored","more bored, less bored",NA,NA,NA,NA,NA,NA,NA,NA,NA,NA,NA,NA,NA,NA,NA,NA,NA,NA,NA,NA,NA,NA,NA,NA,NA,NA,NA,NA,NA,NA,NA,NA,NA,NA,NA,NA,NA,NA,0,1,1,2,1,NA,NA,NA,NA,NA
SUPAMT16300,3OSWBBLG1KWGFH1OXL9GEKZAYKKXDZ,1ADCE9FA-4F76-435A-A6FD-7AA8684FE963,2023-09-27_07h22.52.773,WP_VExplicitOC_LH,2022.2.5,Win32,8.571771442,97.25363489,3.367,2.102,NA,NA,NA,NA,NA,happy,"unhappy, happy","less happy, more happy",NA,NA,NA,NA,NA,NA,NA,NA,NA,NA,NA,NA,NA,NA,NA,NA,NA,NA,NA,NA,NA,NA,NA,NA,NA,NA,NA,NA,NA,NA,NA,NA,NA,NA,NA,NA,NA,NA,0,2,2,0,1,NA,NA,NA,NA,NA
SUPAMT16300,3OSWBBLG1KWGFH1OXL9GEKZAYKKXDZ,1ADCE9FA-4F76-435A-A6FD-7AA8684FE963,2023-09-27_07h22.52.773,WP_VExplicitOC_LH,2022.2.5,Win32,8.571771442,NA,NA,NA,NA,NA,NA,NA,NA,NA,NA,NA,NA,NA,NA,NA,NA,NA,NA,NA,NA,NA,NA,NA,NA,NA,NA,NA,NA,NA,NA,NA,NA,NA,NA,NA,NA,NA,NA,NA,NA,NA,NA,NA,NA,NA,NA,NA,NA,NA,NA,NA,NA,NA,NA,9,0,9,0,1
SUPAMT16300,3OSWBBLG1KWGFH1OXL9GEKZAYKKXDZ,1ADCE9FA-4F76-435A-A6FD-7AA8684FE963,2023-09-27_07h22.52.773,WP_VExplicitOC_LH,2022.2.5,Win32,8.571771442,96.60743134,4.4,2.121,NA,NA,NA,NA,NA,bored,"bored, not bored","more bored, less bored",NA,NA,NA,NA,NA,NA,NA,NA,NA,NA,NA,NA,NA,NA,NA,NA,NA,NA,NA,NA,NA,NA,NA,NA,NA,NA,NA,NA,NA,NA,NA,NA,NA,NA,NA,NA,NA,NA,0,0,0,2,1,NA,NA,NA,NA,NA
SUPAMT16300,3OSWBBLG1KWGFH1OXL9GEKZAYKKXDZ,1ADCE9FA-4F76-435A-A6FD-7AA8684FE963,2023-09-27_07h22.52.773,WP_VExplicitOC_LH,2022.2.5,Win32,8.571771442,97.57673667,3.842,2.038,NA,NA,NA,NA,NA,happy,"unhappy, happy","less happy, more happy",NA,NA,NA,NA,NA,NA,NA,NA,NA,NA,NA,NA,NA,NA,NA,NA,NA,NA,NA,NA,NA,NA,NA,NA,NA,NA,NA,NA,NA,NA,NA,NA,NA,NA,NA,NA,NA,NA,0,1,1,0,1,NA,NA,NA,NA,NA
SUPAMT16300,3OSWBBLG1KWGFH1OXL9GEKZAYKKXDZ,1ADCE9FA-4F76-435A-A6FD-7AA8684FE963,2023-09-27_07h22.52.773,WP_VExplicitOC_LH,2022.2.5,Win32,8.571771442,97.57673667,3.2,2.045,NA,NA,NA,NA,NA,frustrated,"frustrated, not frustrated","more frustrated, less frustrated",NA,NA,NA,NA,NA,NA,NA,NA,NA,NA,NA,NA,NA,NA,NA,NA,NA,NA,NA,NA,NA,NA,NA,NA,NA,NA,NA,NA,NA,NA,NA,NA,NA,NA,NA,NA,NA,NA,0,2,2,1,1,NA,NA,NA,NA,NA
SUPAMT16300,3OSWBBLG1KWGFH1OXL9GEKZAYKKXDZ,1ADCE9FA-4F76-435A-A6FD-7AA8684FE963,2023-09-27_07h22.52.773,WP_VExplicitOC_LH,2022.2.5,Win32,8.571771442,NA,NA,NA,NA,NA,NA,NA,NA,NA,NA,NA,NA,NA,NA,NA,NA,NA,NA,NA,NA,NA,NA,NA,NA,NA,NA,NA,NA,NA,NA,NA,NA,NA,NA,NA,NA,NA,NA,NA,NA,NA,NA,NA,NA,NA,NA,NA,NA,NA,NA,NA,NA,NA,NA,10,0,10,0,1
SUPAMT16300,3OSWBBLG1KWGFH1OXL9GEKZAYKKXDZ,1ADCE9FA-4F76-435A-A6FD-7AA8684FE963,2023-09-27_07h22.52.773,WP_VExplicitOC_LH,2022.2.5,Win32,8.571771442,97.89983845,4.614,2.185,NA,NA,NA,NA,NA,frustrated,"frustrated, not frustrated","more frustrated, less frustrated",NA,NA,NA,NA,NA,NA,NA,NA,NA,NA,NA,NA,NA,NA,NA,NA,NA,NA,NA,NA,NA,NA,NA,NA,NA,NA,NA,NA,NA,NA,NA,NA,NA,NA,NA,NA,NA,NA,0,0,0,1,1,NA,NA,NA,NA,NA
SUPAMT16300,3OSWBBLG1KWGFH1OXL9GEKZAYKKXDZ,1ADCE9FA-4F76-435A-A6FD-7AA8684FE963,2023-09-27_07h22.52.773,WP_VExplicitOC_LH,2022.2.5,Win32,8.571771442,97.89983845,3.166,2.049,NA,NA,NA,NA,NA,happy,"unhappy, happy","less happy, more happy",NA,NA,NA,NA,NA,NA,NA,NA,NA,NA,NA,NA,NA,NA,NA,NA,NA,NA,NA,NA,NA,NA,NA,NA,NA,NA,NA,NA,NA,NA,NA,NA,NA,NA,NA,NA,NA,NA,0,1,1,0,1,NA,NA,NA,NA,NA
SUPAMT16300,3OSWBBLG1KWGFH1OXL9GEKZAYKKXDZ,1ADCE9FA-4F76-435A-A6FD-7AA8684FE963,2023-09-27_07h22.52.773,WP_VExplicitOC_LH,2022.2.5,Win32,8.571771442,97.89983845,5.243,2.094,NA,NA,NA,NA,NA,bored,"bored, not bored","more bored, less bored",NA,NA,NA,NA,NA,NA,NA,NA,NA,NA,NA,NA,NA,NA,NA,NA,NA,NA,NA,NA,NA,NA,NA,NA,NA,NA,NA,NA,NA,NA,NA,NA,NA,NA,NA,NA,NA,NA,0,2,2,2,1,NA,NA,NA,NA,NA
SUPAMT16300,3OSWBBLG1KWGFH1OXL9GEKZAYKKXDZ,1ADCE9FA-4F76-435A-A6FD-7AA8684FE963,2023-09-27_07h22.52.773,WP_VExplicitOC_LH,2022.2.5,Win32,8.571771442,NA,NA,NA,NA,NA,NA,NA,NA,NA,NA,NA,NA,NA,NA,NA,NA,NA,NA,NA,NA,NA,NA,NA,NA,NA,NA,NA,NA,NA,NA,NA,NA,NA,NA,NA,NA,NA,NA,NA,NA,NA,NA,NA,NA,NA,NA,NA,NA,NA,NA,NA,NA,NA,NA,11,0,11,0,1
SUPAMT16300,3OSWBBLG1KWGFH1OXL9GEKZAYKKXDZ,1ADCE9FA-4F76-435A-A6FD-7AA8684FE963,2023-09-27_07h22.52.773,WP_VExplicitOC_LH,2022.2.5,Win32,8.571771442,98.546042,5.775,2.047,NA,NA,NA,NA,NA,happy,"unhappy, happy","less happy, more happy",NA,NA,NA,NA,NA,NA,NA,NA,NA,NA,NA,NA,NA,NA,NA,NA,NA,NA,NA,NA,NA,NA,NA,NA,NA,NA,NA,NA,NA,NA,NA,NA,NA,NA,NA,NA,NA,NA,0,0,0,0,1,NA,NA,NA,NA,NA
SUPAMT16300,3OSWBBLG1KWGFH1OXL9GEKZAYKKXDZ,1ADCE9FA-4F76-435A-A6FD-7AA8684FE963,2023-09-27_07h22.52.773,WP_VExplicitOC_LH,2022.2.5,Win32,8.571771442,98.546042,3.325,2.108,NA,NA,NA,NA,NA,frustrated,"frustrated, not frustrated","more frustrated, less frustrated",NA,NA,NA,NA,NA,NA,NA,NA,NA,NA,NA,NA,NA,NA,NA,NA,NA,NA,NA,NA,NA,NA,NA,NA,NA,NA,NA,NA,NA,NA,NA,NA,NA,NA,NA,NA,NA,NA,0,1,1,1,1,NA,NA,NA,NA,NA
SUPAMT16300,3OSWBBLG1KWGFH1OXL9GEKZAYKKXDZ,1ADCE9FA-4F76-435A-A6FD-7AA8684FE963,2023-09-27_07h22.52.773,WP_VExplicitOC_LH,2022.2.5,Win32,8.571771442,98.546042,3.208,2.021,NA,NA,NA,NA,NA,bored,"bored, not bored","more bored, less bored",NA,NA,NA,NA,NA,NA,NA,NA,NA,NA,NA,NA,NA,NA,NA,NA,NA,NA,NA,NA,NA,NA,NA,NA,NA,NA,NA,NA,NA,NA,NA,NA,NA,NA,NA,NA,NA,NA,0,2,2,2,1,NA,NA,NA,NA,NA
SUPAMT16300,3OSWBBLG1KWGFH1OXL9GEKZAYKKXDZ,1ADCE9FA-4F76-435A-A6FD-7AA8684FE963,2023-09-27_07h22.52.773,WP_VExplicitOC_LH,2022.2.5,Win32,8.571771442,NA,NA,NA,NA,NA,NA,NA,NA,NA,NA,NA,NA,NA,NA,NA,NA,NA,NA,NA,NA,NA,NA,NA,NA,NA,NA,NA,NA,NA,NA,NA,NA,NA,NA,NA,NA,NA,NA,NA,NA,NA,NA,NA,NA,NA,NA,NA,NA,NA,NA,NA,NA,NA,NA,12,0,12,0,1
SUPAMT16300,3OSWBBLG1KWGFH1OXL9GEKZAYKKXDZ,1ADCE9FA-4F76-435A-A6FD-7AA8684FE963,2023-09-27_07h22.52.773,WP_VExplicitOC_LH,2022.2.5,Win32,8.571771442,98.86914378,4.484,2.108,NA,NA,NA,NA,NA,bored,"bored, not bored","more bored, less bored",NA,NA,NA,NA,NA,NA,NA,NA,NA,NA,NA,NA,NA,NA,NA,NA,NA,NA,NA,NA,NA,NA,NA,NA,NA,NA,NA,NA,NA,NA,NA,NA,NA,NA,NA,NA,NA,NA,0,0,0,2,1,NA,NA,NA,NA,NA
SUPAMT16300,3OSWBBLG1KWGFH1OXL9GEKZAYKKXDZ,1ADCE9FA-4F76-435A-A6FD-7AA8684FE963,2023-09-27_07h22.52.773,WP_VExplicitOC_LH,2022.2.5,Win32,8.571771442,96.28432956,3.432,2.058,NA,NA,NA,NA,NA,happy,"unhappy, happy","less happy, more happy",NA,NA,NA,NA,NA,NA,NA,NA,NA,NA,NA,NA,NA,NA,NA,NA,NA,NA,NA,NA,NA,NA,NA,NA,NA,NA,NA,NA,NA,NA,NA,NA,NA,NA,NA,NA,NA,NA,0,1,1,0,1,NA,NA,NA,NA,NA
SUPAMT16300,3OSWBBLG1KWGFH1OXL9GEKZAYKKXDZ,1ADCE9FA-4F76-435A-A6FD-7AA8684FE963,2023-09-27_07h22.52.773,WP_VExplicitOC_LH,2022.2.5,Win32,8.571771442,96.28432956,3.231,2.153,NA,NA,NA,NA,NA,frustrated,"frustrated, not frustrated","more frustrated, less frustrated",NA,NA,NA,NA,NA,NA,NA,NA,NA,NA,NA,NA,NA,NA,NA,NA,NA,NA,NA,NA,NA,NA,NA,NA,NA,NA,NA,NA,NA,NA,NA,NA,NA,NA,NA,NA,NA,NA,0,2,2,1,1,NA,NA,NA,NA,NA
SUPAMT16300,3OSWBBLG1KWGFH1OXL9GEKZAYKKXDZ,1ADCE9FA-4F76-435A-A6FD-7AA8684FE963,2023-09-27_07h22.52.773,WP_VExplicitOC_LH,2022.2.5,Win32,8.571771442,NA,NA,NA,NA,NA,NA,NA,NA,NA,NA,NA,NA,NA,NA,NA,NA,NA,NA,NA,NA,NA,NA,NA,NA,NA,NA,NA,NA,NA,NA,NA,NA,NA,NA,NA,NA,NA,NA,NA,NA,NA,NA,NA,NA,NA,NA,NA,NA,NA,NA,NA,NA,NA,NA,13,0,13,0,1
SUPAMT16300,3OSWBBLG1KWGFH1OXL9GEKZAYKKXDZ,1ADCE9FA-4F76-435A-A6FD-7AA8684FE963,2023-09-27_07h22.52.773,WP_VExplicitOC_LH,2022.2.5,Win32,8.571771442,96.28432956,3.872,2.048,NA,NA,NA,NA,NA,happy,"unhappy, happy","less happy, more happy",NA,NA,NA,NA,NA,NA,NA,NA,NA,NA,NA,NA,NA,NA,NA,NA,NA,NA,NA,NA,NA,NA,NA,NA,NA,NA,NA,NA,NA,NA,NA,NA,NA,NA,NA,NA,NA,NA,0,0,0,0,1,NA,NA,NA,NA,NA
SUPAMT16300,3OSWBBLG1KWGFH1OXL9GEKZAYKKXDZ,1ADCE9FA-4F76-435A-A6FD-7AA8684FE963,2023-09-27_07h22.52.773,WP_VExplicitOC_LH,2022.2.5,Win32,8.571771442,88.85298869,3.343,2.045,NA,NA,NA,NA,NA,frustrated,"frustrated, not frustrated","more frustrated, less frustrated",NA,NA,NA,NA,NA,NA,NA,NA,NA,NA,NA,NA,NA,NA,NA,NA,NA,NA,NA,NA,NA,NA,NA,NA,NA,NA,NA,NA,NA,NA,NA,NA,NA,NA,NA,NA,NA,NA,0,1,1,1,1,NA,NA,NA,NA,NA
SUPAMT16300,3OSWBBLG1KWGFH1OXL9GEKZAYKKXDZ,1ADCE9FA-4F76-435A-A6FD-7AA8684FE963,2023-09-27_07h22.52.773,WP_VExplicitOC_LH,2022.2.5,Win32,8.571771442,91.11470113,3.561,2.003,NA,NA,NA,NA,NA,bored,"bored, not bored","more bored, less bored",NA,NA,NA,NA,NA,NA,NA,NA,NA,NA,NA,NA,NA,NA,NA,NA,NA,NA,NA,NA,NA,NA,NA,NA,NA,NA,NA,NA,NA,NA,NA,NA,NA,NA,NA,NA,NA,NA,0,2,2,2,1,NA,NA,NA,NA,NA
SUPAMT16300,3OSWBBLG1KWGFH1OXL9GEKZAYKKXDZ,1ADCE9FA-4F76-435A-A6FD-7AA8684FE963,2023-09-27_07h22.52.773,WP_VExplicitOC_LH,2022.2.5,Win32,8.571771442,NA,NA,NA,NA,NA,NA,NA,NA,NA,NA,NA,NA,NA,NA,NA,NA,NA,NA,NA,NA,NA,NA,NA,NA,NA,NA,NA,NA,NA,NA,NA,NA,NA,NA,NA,NA,NA,NA,NA,NA,NA,NA,NA,NA,NA,NA,NA,NA,NA,NA,NA,NA,NA,NA,14,0,14,0,1
SUPAMT16300,3OSWBBLG1KWGFH1OXL9GEKZAYKKXDZ,1ADCE9FA-4F76-435A-A6FD-7AA8684FE963,2023-09-27_07h22.52.773,WP_VExplicitOC_LH,2022.2.5,Win32,8.571771442,NA,NA,NA,NA,NA,NA,NA,NA,NA,NA,NA,NA,NA,NA,NA,NA,NA,NA,NA,NA,NA,NA,NA,NA,NA,NA,NA,NA,NA,NA,NA,NA,NA,NA,NA,NA,NA,NA,NA,NA,NA,NA,NA,NA,NA,NA,NA,NA,NA,NA,NA,NA,NA,NA,NA,NA,NA,NA,NA
