participant,session,completion,date,expName,psychopyVersion,OS,frameRate,rating_all.response,rating_all.rt,rating_all.tStart,rndRat1.thisRepN,rndRat1.thisTrialN,rndRat1.thisN,rndRat1.thisIndex,rndRat1.ran,Emo,Labs,Labs2,rating_alt.response,rating_alt.rt,AltC.thisRepN,AltC.thisTrialN,AltC.thisN,AltC.thisIndex,AltC.ran,alt_choices,pic_choices,BottomAlt_Choice,rndRat2.thisRepN,rndRat2.thisTrialN,rndRat2.thisN,rndRat2.thisIndex,rndRat2.ran,rndRat3.thisRepN,rndRat3.thisTrialN,rndRat3.thisN,rndRat3.thisIndex,rndRat3.ran,trials_FC_L.thisRepN,trials_FC_L.thisTrialN,trials_FC_L.thisN,trials_FC_L.thisIndex,trials_FC_L.ran,rating_alt_2.response,rating_alt_2.rt,AltC2.thisRepN,AltC2.thisTrialN,AltC2.thisN,AltC2.thisIndex,AltC2.ran,TopAlt_Choice,rndRat4.thisRepN,rndRat4.thisTrialN,rndRat4.thisN,rndRat4.thisIndex,rndRat4.ran,rndRat5.thisRepN,rndRat5.thisTrialN,rndRat5.thisN,rndRat5.thisIndex,rndRat5.ran,trials_FC_H.thisRepN,trials_FC_H.thisTrialN,trials_FC_H.thisN,trials_FC_H.thisIndex,trials_FC_H.ran
SUPAMT37840,3WQ3B2KGEEFFAJIBCWX3OL79PEY1BW,15759615-E998-4A4B-A59C-599F824CAC43,2023-09-26_09h43.48.000,WP_VExplicitOC_LH,2022.2.5,Win32,13.1788769,NA,NA,NA,NA,NA,NA,NA,NA,NA,NA,NA,NA,NA,NA,NA,NA,NA,NA,NA,NA,NA,NA,NA,NA,NA,NA,NA,NA,NA,NA,NA,NA,NA,NA,NA,NA,NA,NA,NA,NA,NA,NA,NA,NA,NA,NA,NA,NA,NA,NA,NA,NA,NA,NA,NA,NA,NA,NA,NA
SUPAMT37840,3WQ3B2KGEEFFAJIBCWX3OL79PEY1BW,15759615-E998-4A4B-A59C-599F824CAC43,2023-09-26_09h43.48.000,WP_VExplicitOC_LH,2022.2.5,Win32,13.1788769,NA,NA,NA,NA,NA,NA,NA,NA,NA,NA,NA,NA,NA,NA,NA,NA,NA,NA,NA,NA,NA,NA,NA,NA,NA,NA,NA,NA,NA,NA,NA,NA,NA,NA,NA,NA,NA,NA,NA,NA,NA,NA,NA,NA,NA,NA,NA,NA,NA,NA,NA,NA,NA,NA,NA,NA,NA,NA,NA
SUPAMT37840,3WQ3B2KGEEFFAJIBCWX3OL79PEY1BW,15759615-E998-4A4B-A59C-599F824CAC43,2023-09-26_09h43.48.000,WP_VExplicitOC_LH,2022.2.5,Win32,13.1788769,NA,NA,NA,NA,NA,NA,NA,NA,NA,NA,NA,NA,NA,NA,NA,NA,NA,NA,NA,NA,NA,NA,NA,NA,NA,NA,NA,NA,NA,NA,NA,NA,NA,NA,NA,NA,NA,NA,NA,NA,NA,NA,NA,NA,NA,NA,NA,NA,NA,NA,NA,NA,NA,NA,NA,NA,NA,NA,NA
SUPAMT37840,3WQ3B2KGEEFFAJIBCWX3OL79PEY1BW,15759615-E998-4A4B-A59C-599F824CAC43,2023-09-26_09h43.48.000,WP_VExplicitOC_LH,2022.2.5,Win32,13.1788769,100,5.2316,2.0551,0,0,0,0,1,happy,"unhappy, happy","less happy, more happy",NA,NA,NA,NA,NA,NA,NA,NA,NA,NA,NA,NA,NA,NA,NA,NA,NA,NA,NA,NA,NA,NA,NA,NA,NA,NA,NA,NA,NA,NA,NA,NA,NA,NA,NA,NA,NA,NA,NA,NA,NA,NA,NA,NA,NA,NA,NA,NA
SUPAMT37840,3WQ3B2KGEEFFAJIBCWX3OL79PEY1BW,15759615-E998-4A4B-A59C-599F824CAC43,2023-09-26_09h43.48.000,WP_VExplicitOC_LH,2022.2.5,Win32,13.1788769,75.26041667,4.5724,2.0397,0,1,1,2,1,bored,"bored, not bored","more bored, less bored",NA,NA,NA,NA,NA,NA,NA,NA,NA,NA,NA,NA,NA,NA,NA,NA,NA,NA,NA,NA,NA,NA,NA,NA,NA,NA,NA,NA,NA,NA,NA,NA,NA,NA,NA,NA,NA,NA,NA,NA,NA,NA,NA,NA,NA,NA,NA,NA
SUPAMT37840,3WQ3B2KGEEFFAJIBCWX3OL79PEY1BW,15759615-E998-4A4B-A59C-599F824CAC43,2023-09-26_09h43.48.000,WP_VExplicitOC_LH,2022.2.5,Win32,13.1788769,74.73958333,4.3984,2.0341,0,2,2,1,1,frustrated,"frustrated, not frustrated","more frustrated, less frustrated",NA,NA,NA,NA,NA,NA,NA,NA,NA,NA,NA,NA,NA,NA,NA,NA,NA,NA,NA,NA,NA,NA,NA,NA,NA,NA,NA,NA,NA,NA,NA,NA,NA,NA,NA,NA,NA,NA,NA,NA,NA,NA,NA,NA,NA,NA,NA,NA
SUPAMT37840,3WQ3B2KGEEFFAJIBCWX3OL79PEY1BW,15759615-E998-4A4B-A59C-599F824CAC43,2023-09-26_09h43.48.000,WP_VExplicitOC_LH,2022.2.5,Win32,13.1788769,NA,NA,NA,NA,NA,NA,NA,NA,NA,NA,NA,NA,NA,NA,NA,NA,NA,NA,NA,NA,NA,NA,NA,NA,NA,NA,NA,NA,NA,NA,NA,NA,NA,NA,NA,NA,NA,NA,NA,NA,NA,NA,NA,NA,NA,NA,NA,NA,NA,NA,NA,NA,NA,NA,NA,NA,NA,NA,NA
SUPAMT37840,3WQ3B2KGEEFFAJIBCWX3OL79PEY1BW,15759615-E998-4A4B-A59C-599F824CAC43,2023-09-26_09h43.48.000,WP_VExplicitOC_LH,2022.2.5,Win32,13.1788769,NA,NA,NA,NA,NA,NA,NA,NA,NA,NA,NA,NA,NA,NA,NA,NA,NA,NA,NA,NA,NA,NA,NA,NA,NA,NA,NA,NA,NA,NA,NA,NA,NA,NA,NA,NA,NA,NA,NA,NA,NA,NA,NA,NA,NA,NA,NA,NA,NA,NA,NA,NA,NA,NA,NA,NA,NA,NA,NA
SUPAMT37840,3WQ3B2KGEEFFAJIBCWX3OL79PEY1BW,15759615-E998-4A4B-A59C-599F824CAC43,2023-09-26_09h43.48.000,WP_VExplicitOC_LH,2022.2.5,Win32,13.1788769,NA,NA,NA,NA,NA,NA,NA,NA,NA,NA,NA,NA,NA,NA,NA,NA,NA,NA,NA,NA,NA,NA,NA,NA,NA,NA,NA,NA,NA,NA,NA,NA,NA,NA,NA,NA,NA,NA,NA,NA,NA,NA,NA,NA,NA,NA,NA,NA,NA,NA,NA,NA,NA,NA,NA,NA,NA,NA,NA
SUPAMT37840,3WQ3B2KGEEFFAJIBCWX3OL79PEY1BW,15759615-E998-4A4B-A59C-599F824CAC43,2023-09-26_09h43.48.000,WP_VExplicitOC_LH,2022.2.5,Win32,13.1788769,NA,NA,NA,NA,NA,NA,NA,NA,NA,NA,NA,NA,NA,NA,NA,NA,NA,NA,NA,NA,NA,NA,NA,NA,NA,NA,NA,NA,NA,NA,NA,NA,NA,NA,NA,NA,NA,NA,NA,NA,NA,NA,NA,NA,NA,NA,NA,NA,NA,NA,NA,NA,NA,NA,NA,NA,NA,NA,NA
SUPAMT37840,3WQ3B2KGEEFFAJIBCWX3OL79PEY1BW,15759615-E998-4A4B-A59C-599F824CAC43,2023-09-26_09h43.48.000,WP_VExplicitOC_LH,2022.2.5,Win32,13.1788769,NA,NA,NA,NA,NA,NA,NA,NA,NA,NA,NA,NA,NA,0,0,0,0,1,rest (looking at a fixed cross),001.png,NA,NA,NA,NA,NA,NA,NA,NA,NA,NA,NA,NA,NA,NA,NA,NA,NA,NA,NA,NA,NA,NA,NA,NA,NA,NA,NA,NA,NA,NA,NA,NA,NA,NA,NA,NA,NA,NA,NA
SUPAMT37840,3WQ3B2KGEEFFAJIBCWX3OL79PEY1BW,15759615-E998-4A4B-A59C-599F824CAC43,2023-09-26_09h43.48.000,WP_VExplicitOC_LH,2022.2.5,Win32,13.1788769,NA,NA,NA,NA,NA,NA,NA,NA,NA,NA,NA,-14.84375,3.5874,0,1,1,1,1,stand up,002.png,NA,NA,NA,NA,NA,NA,NA,NA,NA,NA,NA,NA,NA,NA,NA,NA,NA,NA,NA,NA,NA,NA,NA,NA,NA,NA,NA,NA,NA,NA,NA,NA,NA,NA,NA,NA,NA,NA,NA
SUPAMT37840,3WQ3B2KGEEFFAJIBCWX3OL79PEY1BW,15759615-E998-4A4B-A59C-599F824CAC43,2023-09-26_09h43.48.000,WP_VExplicitOC_LH,2022.2.5,Win32,13.1788769,NA,NA,NA,NA,NA,NA,NA,NA,NA,NA,NA,22.91666667,2.3775,0,2,2,2,1,stretch,003.png,NA,NA,NA,NA,NA,NA,NA,NA,NA,NA,NA,NA,NA,NA,NA,NA,NA,NA,NA,NA,NA,NA,NA,NA,NA,NA,NA,NA,NA,NA,NA,NA,NA,NA,NA,NA,NA,NA,NA
SUPAMT37840,3WQ3B2KGEEFFAJIBCWX3OL79PEY1BW,15759615-E998-4A4B-A59C-599F824CAC43,2023-09-26_09h43.48.000,WP_VExplicitOC_LH,2022.2.5,Win32,13.1788769,NA,NA,NA,NA,NA,NA,NA,NA,NA,NA,NA,NA,NA,0,3,3,3,1,make a drink,004.png,NA,NA,NA,NA,NA,NA,NA,NA,NA,NA,NA,NA,NA,NA,NA,NA,NA,NA,NA,NA,NA,NA,NA,NA,NA,NA,NA,NA,NA,NA,NA,NA,NA,NA,NA,NA,NA,NA,NA
SUPAMT37840,3WQ3B2KGEEFFAJIBCWX3OL79PEY1BW,15759615-E998-4A4B-A59C-599F824CAC43,2023-09-26_09h43.48.000,WP_VExplicitOC_LH,2022.2.5,Win32,13.1788769,NA,NA,NA,NA,NA,NA,NA,NA,NA,NA,NA,-19.79166667,2.9734,0,4,4,4,1,scroll social media,005.png,NA,NA,NA,NA,NA,NA,NA,NA,NA,NA,NA,NA,NA,NA,NA,NA,NA,NA,NA,NA,NA,NA,NA,NA,NA,NA,NA,NA,NA,NA,NA,NA,NA,NA,NA,NA,NA,NA,NA
SUPAMT37840,3WQ3B2KGEEFFAJIBCWX3OL79PEY1BW,15759615-E998-4A4B-A59C-599F824CAC43,2023-09-26_09h43.48.000,WP_VExplicitOC_LH,2022.2.5,Win32,13.1788769,NA,NA,NA,NA,NA,NA,NA,NA,NA,NA,NA,53.125,2.2117,0,5,5,5,1,listen to music,006.png,NA,NA,NA,NA,NA,NA,NA,NA,NA,NA,NA,NA,NA,NA,NA,NA,NA,NA,NA,NA,NA,NA,NA,NA,NA,NA,NA,NA,NA,NA,NA,NA,NA,NA,NA,NA,NA,NA,NA
SUPAMT37840,3WQ3B2KGEEFFAJIBCWX3OL79PEY1BW,15759615-E998-4A4B-A59C-599F824CAC43,2023-09-26_09h43.48.000,WP_VExplicitOC_LH,2022.2.5,Win32,13.1788769,NA,NA,NA,NA,NA,NA,NA,NA,NA,NA,NA,50,2.1479,0,6,6,6,1,daydream,007.png,NA,NA,NA,NA,NA,NA,NA,NA,NA,NA,NA,NA,NA,NA,NA,NA,NA,NA,NA,NA,NA,NA,NA,NA,NA,NA,NA,NA,NA,NA,NA,NA,NA,NA,NA,NA,NA,NA,NA
SUPAMT37840,3WQ3B2KGEEFFAJIBCWX3OL79PEY1BW,15759615-E998-4A4B-A59C-599F824CAC43,2023-09-26_09h43.48.000,WP_VExplicitOC_LH,2022.2.5,Win32,13.1788769,NA,NA,NA,NA,NA,NA,NA,NA,NA,NA,NA,35.41666667,2.5491,0,7,7,7,1,watch a short animation,008.png,NA,NA,NA,NA,NA,NA,NA,NA,NA,NA,NA,NA,NA,NA,NA,NA,NA,NA,NA,NA,NA,NA,NA,NA,NA,NA,NA,NA,NA,NA,NA,NA,NA,NA,NA,NA,NA,NA,NA
SUPAMT37840,3WQ3B2KGEEFFAJIBCWX3OL79PEY1BW,15759615-E998-4A4B-A59C-599F824CAC43,2023-09-26_09h43.48.000,WP_VExplicitOC_LH,2022.2.5,Win32,13.1788769,NA,NA,NA,NA,NA,NA,NA,NA,NA,NA,NA,26.30208333,2.3761,0,8,8,8,1,read a novel,009.png,NA,NA,NA,NA,NA,NA,NA,NA,NA,NA,NA,NA,NA,NA,NA,NA,NA,NA,NA,NA,NA,NA,NA,NA,NA,NA,NA,NA,NA,NA,NA,NA,NA,NA,NA,NA,NA,NA,NA
SUPAMT37840,3WQ3B2KGEEFFAJIBCWX3OL79PEY1BW,15759615-E998-4A4B-A59C-599F824CAC43,2023-09-26_09h43.48.000,WP_VExplicitOC_LH,2022.2.5,Win32,13.1788769,NA,NA,NA,NA,NA,NA,NA,NA,NA,NA,NA,63.28125,2.0299,0,9,9,9,1,read the news,010.png,NA,NA,NA,NA,NA,NA,NA,NA,NA,NA,NA,NA,NA,NA,NA,NA,NA,NA,NA,NA,NA,NA,NA,NA,NA,NA,NA,NA,NA,NA,NA,NA,NA,NA,NA,NA,NA,NA,NA
SUPAMT37840,3WQ3B2KGEEFFAJIBCWX3OL79PEY1BW,15759615-E998-4A4B-A59C-599F824CAC43,2023-09-26_09h43.48.000,WP_VExplicitOC_LH,2022.2.5,Win32,13.1788769,NA,NA,NA,NA,NA,NA,NA,NA,NA,NA,NA,NA,NA,NA,NA,NA,NA,NA,NA,NA,NA,NA,NA,NA,NA,NA,NA,NA,NA,NA,NA,NA,NA,NA,NA,NA,NA,NA,NA,NA,NA,NA,NA,NA,NA,NA,NA,NA,NA,NA,NA,NA,NA,NA,NA,NA,NA,NA,NA
SUPAMT37840,3WQ3B2KGEEFFAJIBCWX3OL79PEY1BW,15759615-E998-4A4B-A59C-599F824CAC43,2023-09-26_09h43.48.000,WP_VExplicitOC_LH,2022.2.5,Win32,13.1788769,NA,NA,NA,NA,NA,NA,NA,NA,NA,NA,NA,NA,NA,NA,NA,NA,NA,NA,NA,NA,stretch,NA,NA,NA,NA,NA,NA,NA,NA,NA,NA,NA,NA,NA,NA,NA,NA,NA,NA,NA,NA,NA,NA,NA,NA,NA,NA,NA,NA,NA,NA,NA,NA,NA,NA,NA,NA,NA,NA
SUPAMT37840,3WQ3B2KGEEFFAJIBCWX3OL79PEY1BW,15759615-E998-4A4B-A59C-599F824CAC43,2023-09-26_09h43.48.000,WP_VExplicitOC_LH,2022.2.5,Win32,13.1788769,62.23958333,4.8997,2.0665,NA,NA,NA,NA,NA,bored,"bored, not bored","more bored, less bored",NA,NA,NA,NA,NA,NA,NA,NA,NA,NA,0,0,0,2,1,NA,NA,NA,NA,NA,NA,NA,NA,NA,NA,NA,NA,NA,NA,NA,NA,NA,NA,NA,NA,NA,NA,NA,NA,NA,NA,NA,NA,NA,NA,NA,NA,NA
SUPAMT37840,3WQ3B2KGEEFFAJIBCWX3OL79PEY1BW,15759615-E998-4A4B-A59C-599F824CAC43,2023-09-26_09h43.48.000,WP_VExplicitOC_LH,2022.2.5,Win32,13.1788769,91.92708333,3.4665,2.0063,NA,NA,NA,NA,NA,happy,"unhappy, happy","less happy, more happy",NA,NA,NA,NA,NA,NA,NA,NA,NA,NA,0,1,1,0,1,NA,NA,NA,NA,NA,NA,NA,NA,NA,NA,NA,NA,NA,NA,NA,NA,NA,NA,NA,NA,NA,NA,NA,NA,NA,NA,NA,NA,NA,NA,NA,NA,NA
SUPAMT37840,3WQ3B2KGEEFFAJIBCWX3OL79PEY1BW,15759615-E998-4A4B-A59C-599F824CAC43,2023-09-26_09h43.48.000,WP_VExplicitOC_LH,2022.2.5,Win32,13.1788769,65.625,3.743,2.0772,NA,NA,NA,NA,NA,frustrated,"frustrated, not frustrated","more frustrated, less frustrated",NA,NA,NA,NA,NA,NA,NA,NA,NA,NA,0,2,2,1,1,NA,NA,NA,NA,NA,NA,NA,NA,NA,NA,NA,NA,NA,NA,NA,NA,NA,NA,NA,NA,NA,NA,NA,NA,NA,NA,NA,NA,NA,NA,NA,NA,NA
SUPAMT37840,3WQ3B2KGEEFFAJIBCWX3OL79PEY1BW,15759615-E998-4A4B-A59C-599F824CAC43,2023-09-26_09h43.48.000,WP_VExplicitOC_LH,2022.2.5,Win32,13.1788769,NA,NA,NA,NA,NA,NA,NA,NA,NA,NA,NA,NA,NA,NA,NA,NA,NA,NA,NA,NA,NA,NA,NA,NA,NA,NA,NA,NA,NA,NA,NA,NA,NA,NA,NA,NA,NA,NA,NA,NA,NA,NA,NA,NA,NA,NA,NA,NA,NA,NA,NA,NA,NA,NA,NA,NA,NA,NA,NA
SUPAMT37840,3WQ3B2KGEEFFAJIBCWX3OL79PEY1BW,15759615-E998-4A4B-A59C-599F824CAC43,2023-09-26_09h43.48.000,WP_VExplicitOC_LH,2022.2.5,Win32,13.1788769,NA,NA,NA,NA,NA,NA,NA,NA,NA,NA,NA,NA,NA,NA,NA,NA,NA,NA,NA,NA,NA,NA,NA,NA,NA,NA,NA,NA,NA,NA,NA,NA,NA,NA,NA,NA,NA,NA,NA,NA,NA,NA,NA,NA,NA,NA,NA,NA,NA,NA,NA,NA,NA,NA,NA,NA,NA,NA,NA
SUPAMT37840,3WQ3B2KGEEFFAJIBCWX3OL79PEY1BW,15759615-E998-4A4B-A59C-599F824CAC43,2023-09-26_09h43.48.000,WP_VExplicitOC_LH,2022.2.5,Win32,13.1788769,88.28125,4.1661,2.0127,NA,NA,NA,NA,NA,bored,"bored, not bored","more bored, less bored",NA,NA,NA,NA,NA,NA,NA,NA,NA,NA,NA,NA,NA,NA,NA,0,0,0,2,1,NA,NA,NA,NA,NA,NA,NA,NA,NA,NA,NA,NA,NA,NA,NA,NA,NA,NA,NA,NA,NA,NA,NA,NA,NA,NA,NA,NA
SUPAMT37840,3WQ3B2KGEEFFAJIBCWX3OL79PEY1BW,15759615-E998-4A4B-A59C-599F824CAC43,2023-09-26_09h43.48.000,WP_VExplicitOC_LH,2022.2.5,Win32,13.1788769,72.13541667,3.7049,2.0228,NA,NA,NA,NA,NA,frustrated,"frustrated, not frustrated","more frustrated, less frustrated",NA,NA,NA,NA,NA,NA,NA,NA,NA,NA,NA,NA,NA,NA,NA,0,1,1,1,1,NA,NA,NA,NA,NA,NA,NA,NA,NA,NA,NA,NA,NA,NA,NA,NA,NA,NA,NA,NA,NA,NA,NA,NA,NA,NA,NA,NA
SUPAMT37840,3WQ3B2KGEEFFAJIBCWX3OL79PEY1BW,15759615-E998-4A4B-A59C-599F824CAC43,2023-09-26_09h43.48.000,WP_VExplicitOC_LH,2022.2.5,Win32,13.1788769,77.34375,4.553,2.0288,NA,NA,NA,NA,NA,happy,"unhappy, happy","less happy, more happy",NA,NA,NA,NA,NA,NA,NA,NA,NA,NA,NA,NA,NA,NA,NA,0,2,2,0,1,NA,NA,NA,NA,NA,NA,NA,NA,NA,NA,NA,NA,NA,NA,NA,NA,NA,NA,NA,NA,NA,NA,NA,NA,NA,NA,NA,NA
SUPAMT37840,3WQ3B2KGEEFFAJIBCWX3OL79PEY1BW,15759615-E998-4A4B-A59C-599F824CAC43,2023-09-26_09h43.48.000,WP_VExplicitOC_LH,2022.2.5,Win32,13.1788769,NA,NA,NA,NA,NA,NA,NA,NA,NA,NA,NA,NA,NA,NA,NA,NA,NA,NA,NA,NA,NA,NA,NA,NA,NA,NA,NA,NA,NA,NA,NA,0,0,0,0,1,NA,NA,NA,NA,NA,NA,NA,NA,NA,NA,NA,NA,NA,NA,NA,NA,NA,NA,NA,NA,NA,NA,NA
SUPAMT37840,3WQ3B2KGEEFFAJIBCWX3OL79PEY1BW,15759615-E998-4A4B-A59C-599F824CAC43,2023-09-26_09h43.48.000,WP_VExplicitOC_LH,2022.2.5,Win32,13.1788769,92.44791667,3.887,2.0543,NA,NA,NA,NA,NA,happy,"unhappy, happy","less happy, more happy",NA,NA,NA,NA,NA,NA,NA,NA,NA,NA,NA,NA,NA,NA,NA,0,0,0,0,1,NA,NA,NA,NA,NA,NA,NA,NA,NA,NA,NA,NA,NA,NA,NA,NA,NA,NA,NA,NA,NA,NA,NA,NA,NA,NA,NA,NA
SUPAMT37840,3WQ3B2KGEEFFAJIBCWX3OL79PEY1BW,15759615-E998-4A4B-A59C-599F824CAC43,2023-09-26_09h43.48.000,WP_VExplicitOC_LH,2022.2.5,Win32,13.1788769,79.6875,3.4401,2.056,NA,NA,NA,NA,NA,bored,"bored, not bored","more bored, less bored",NA,NA,NA,NA,NA,NA,NA,NA,NA,NA,NA,NA,NA,NA,NA,0,1,1,2,1,NA,NA,NA,NA,NA,NA,NA,NA,NA,NA,NA,NA,NA,NA,NA,NA,NA,NA,NA,NA,NA,NA,NA,NA,NA,NA,NA,NA
SUPAMT37840,3WQ3B2KGEEFFAJIBCWX3OL79PEY1BW,15759615-E998-4A4B-A59C-599F824CAC43,2023-09-26_09h43.48.000,WP_VExplicitOC_LH,2022.2.5,Win32,13.1788769,86.45833333,3.8681,2.0869,NA,NA,NA,NA,NA,frustrated,"frustrated, not frustrated","more frustrated, less frustrated",NA,NA,NA,NA,NA,NA,NA,NA,NA,NA,NA,NA,NA,NA,NA,0,2,2,1,1,NA,NA,NA,NA,NA,NA,NA,NA,NA,NA,NA,NA,NA,NA,NA,NA,NA,NA,NA,NA,NA,NA,NA,NA,NA,NA,NA,NA
SUPAMT37840,3WQ3B2KGEEFFAJIBCWX3OL79PEY1BW,15759615-E998-4A4B-A59C-599F824CAC43,2023-09-26_09h43.48.000,WP_VExplicitOC_LH,2022.2.5,Win32,13.1788769,NA,NA,NA,NA,NA,NA,NA,NA,NA,NA,NA,NA,NA,NA,NA,NA,NA,NA,NA,NA,NA,NA,NA,NA,NA,NA,NA,NA,NA,NA,NA,1,0,1,0,1,NA,NA,NA,NA,NA,NA,NA,NA,NA,NA,NA,NA,NA,NA,NA,NA,NA,NA,NA,NA,NA,NA,NA
SUPAMT37840,3WQ3B2KGEEFFAJIBCWX3OL79PEY1BW,15759615-E998-4A4B-A59C-599F824CAC43,2023-09-26_09h43.48.000,WP_VExplicitOC_LH,2022.2.5,Win32,13.1788769,80.98958333,3.9808,2.058,NA,NA,NA,NA,NA,happy,"unhappy, happy","less happy, more happy",NA,NA,NA,NA,NA,NA,NA,NA,NA,NA,NA,NA,NA,NA,NA,0,0,0,0,1,NA,NA,NA,NA,NA,NA,NA,NA,NA,NA,NA,NA,NA,NA,NA,NA,NA,NA,NA,NA,NA,NA,NA,NA,NA,NA,NA,NA
SUPAMT37840,3WQ3B2KGEEFFAJIBCWX3OL79PEY1BW,15759615-E998-4A4B-A59C-599F824CAC43,2023-09-26_09h43.48.000,WP_VExplicitOC_LH,2022.2.5,Win32,13.1788769,NA,NA,2.055,NA,NA,NA,NA,NA,frustrated,"frustrated, not frustrated","more frustrated, less frustrated",NA,NA,NA,NA,NA,NA,NA,NA,NA,NA,NA,NA,NA,NA,NA,0,1,1,1,1,NA,NA,NA,NA,NA,NA,NA,NA,NA,NA,NA,NA,NA,NA,NA,NA,NA,NA,NA,NA,NA,NA,NA,NA,NA,NA,NA,NA
SUPAMT37840,3WQ3B2KGEEFFAJIBCWX3OL79PEY1BW,15759615-E998-4A4B-A59C-599F824CAC43,2023-09-26_09h43.48.000,WP_VExplicitOC_LH,2022.2.5,Win32,13.1788769,NA,NA,2.0535,NA,NA,NA,NA,NA,bored,"bored, not bored","more bored, less bored",NA,NA,NA,NA,NA,NA,NA,NA,NA,NA,NA,NA,NA,NA,NA,0,2,2,2,1,NA,NA,NA,NA,NA,NA,NA,NA,NA,NA,NA,NA,NA,NA,NA,NA,NA,NA,NA,NA,NA,NA,NA,NA,NA,NA,NA,NA
SUPAMT37840,3WQ3B2KGEEFFAJIBCWX3OL79PEY1BW,15759615-E998-4A4B-A59C-599F824CAC43,2023-09-26_09h43.48.000,WP_VExplicitOC_LH,2022.2.5,Win32,13.1788769,NA,NA,NA,NA,NA,NA,NA,NA,NA,NA,NA,NA,NA,NA,NA,NA,NA,NA,NA,NA,NA,NA,NA,NA,NA,NA,NA,NA,NA,NA,NA,2,0,2,0,1,NA,NA,NA,NA,NA,NA,NA,NA,NA,NA,NA,NA,NA,NA,NA,NA,NA,NA,NA,NA,NA,NA,NA
SUPAMT37840,3WQ3B2KGEEFFAJIBCWX3OL79PEY1BW,15759615-E998-4A4B-A59C-599F824CAC43,2023-09-26_09h43.48.000,WP_VExplicitOC_LH,2022.2.5,Win32,13.1788769,82.03125,4.3197,2.0631,NA,NA,NA,NA,NA,happy,"unhappy, happy","less happy, more happy",NA,NA,NA,NA,NA,NA,NA,NA,NA,NA,NA,NA,NA,NA,NA,0,0,0,0,1,NA,NA,NA,NA,NA,NA,NA,NA,NA,NA,NA,NA,NA,NA,NA,NA,NA,NA,NA,NA,NA,NA,NA,NA,NA,NA,NA,NA
SUPAMT37840,3WQ3B2KGEEFFAJIBCWX3OL79PEY1BW,15759615-E998-4A4B-A59C-599F824CAC43,2023-09-26_09h43.48.000,WP_VExplicitOC_LH,2022.2.5,Win32,13.1788769,71.35416667,3.3966,2.0396,NA,NA,NA,NA,NA,frustrated,"frustrated, not frustrated","more frustrated, less frustrated",NA,NA,NA,NA,NA,NA,NA,NA,NA,NA,NA,NA,NA,NA,NA,0,1,1,1,1,NA,NA,NA,NA,NA,NA,NA,NA,NA,NA,NA,NA,NA,NA,NA,NA,NA,NA,NA,NA,NA,NA,NA,NA,NA,NA,NA,NA
SUPAMT37840,3WQ3B2KGEEFFAJIBCWX3OL79PEY1BW,15759615-E998-4A4B-A59C-599F824CAC43,2023-09-26_09h43.48.000,WP_VExplicitOC_LH,2022.2.5,Win32,13.1788769,77.08333333,3.5263,2.0603,NA,NA,NA,NA,NA,bored,"bored, not bored","more bored, less bored",NA,NA,NA,NA,NA,NA,NA,NA,NA,NA,NA,NA,NA,NA,NA,0,2,2,2,1,NA,NA,NA,NA,NA,NA,NA,NA,NA,NA,NA,NA,NA,NA,NA,NA,NA,NA,NA,NA,NA,NA,NA,NA,NA,NA,NA,NA
SUPAMT37840,3WQ3B2KGEEFFAJIBCWX3OL79PEY1BW,15759615-E998-4A4B-A59C-599F824CAC43,2023-09-26_09h43.48.000,WP_VExplicitOC_LH,2022.2.5,Win32,13.1788769,NA,NA,NA,NA,NA,NA,NA,NA,NA,NA,NA,NA,NA,NA,NA,NA,NA,NA,NA,NA,NA,NA,NA,NA,NA,NA,NA,NA,NA,NA,NA,3,0,3,0,1,NA,NA,NA,NA,NA,NA,NA,NA,NA,NA,NA,NA,NA,NA,NA,NA,NA,NA,NA,NA,NA,NA,NA
SUPAMT37840,3WQ3B2KGEEFFAJIBCWX3OL79PEY1BW,15759615-E998-4A4B-A59C-599F824CAC43,2023-09-26_09h43.48.000,WP_VExplicitOC_LH,2022.2.5,Win32,13.1788769,74.47916667,4.1616,2.0579,NA,NA,NA,NA,NA,frustrated,"frustrated, not frustrated","more frustrated, less frustrated",NA,NA,NA,NA,NA,NA,NA,NA,NA,NA,NA,NA,NA,NA,NA,0,0,0,1,1,NA,NA,NA,NA,NA,NA,NA,NA,NA,NA,NA,NA,NA,NA,NA,NA,NA,NA,NA,NA,NA,NA,NA,NA,NA,NA,NA,NA
SUPAMT37840,3WQ3B2KGEEFFAJIBCWX3OL79PEY1BW,15759615-E998-4A4B-A59C-599F824CAC43,2023-09-26_09h43.48.000,WP_VExplicitOC_LH,2022.2.5,Win32,13.1788769,64.84375,3.2207,2.0232,NA,NA,NA,NA,NA,happy,"unhappy, happy","less happy, more happy",NA,NA,NA,NA,NA,NA,NA,NA,NA,NA,NA,NA,NA,NA,NA,0,1,1,0,1,NA,NA,NA,NA,NA,NA,NA,NA,NA,NA,NA,NA,NA,NA,NA,NA,NA,NA,NA,NA,NA,NA,NA,NA,NA,NA,NA,NA
SUPAMT37840,3WQ3B2KGEEFFAJIBCWX3OL79PEY1BW,15759615-E998-4A4B-A59C-599F824CAC43,2023-09-26_09h43.48.000,WP_VExplicitOC_LH,2022.2.5,Win32,13.1788769,80.98958333,3.4002,2.023,NA,NA,NA,NA,NA,bored,"bored, not bored","more bored, less bored",NA,NA,NA,NA,NA,NA,NA,NA,NA,NA,NA,NA,NA,NA,NA,0,2,2,2,1,NA,NA,NA,NA,NA,NA,NA,NA,NA,NA,NA,NA,NA,NA,NA,NA,NA,NA,NA,NA,NA,NA,NA,NA,NA,NA,NA,NA
SUPAMT37840,3WQ3B2KGEEFFAJIBCWX3OL79PEY1BW,15759615-E998-4A4B-A59C-599F824CAC43,2023-09-26_09h43.48.000,WP_VExplicitOC_LH,2022.2.5,Win32,13.1788769,NA,NA,NA,NA,NA,NA,NA,NA,NA,NA,NA,NA,NA,NA,NA,NA,NA,NA,NA,NA,NA,NA,NA,NA,NA,NA,NA,NA,NA,NA,NA,4,0,4,0,1,NA,NA,NA,NA,NA,NA,NA,NA,NA,NA,NA,NA,NA,NA,NA,NA,NA,NA,NA,NA,NA,NA,NA
SUPAMT37840,3WQ3B2KGEEFFAJIBCWX3OL79PEY1BW,15759615-E998-4A4B-A59C-599F824CAC43,2023-09-26_09h43.48.000,WP_VExplicitOC_LH,2022.2.5,Win32,13.1788769,69.79166667,4.0491,2.0392,NA,NA,NA,NA,NA,happy,"unhappy, happy","less happy, more happy",NA,NA,NA,NA,NA,NA,NA,NA,NA,NA,NA,NA,NA,NA,NA,0,0,0,0,1,NA,NA,NA,NA,NA,NA,NA,NA,NA,NA,NA,NA,NA,NA,NA,NA,NA,NA,NA,NA,NA,NA,NA,NA,NA,NA,NA,NA
SUPAMT37840,3WQ3B2KGEEFFAJIBCWX3OL79PEY1BW,15759615-E998-4A4B-A59C-599F824CAC43,2023-09-26_09h43.48.000,WP_VExplicitOC_LH,2022.2.5,Win32,13.1788769,76.04166667,3.3579,2.0647,NA,NA,NA,NA,NA,frustrated,"frustrated, not frustrated","more frustrated, less frustrated",NA,NA,NA,NA,NA,NA,NA,NA,NA,NA,NA,NA,NA,NA,NA,0,1,1,1,1,NA,NA,NA,NA,NA,NA,NA,NA,NA,NA,NA,NA,NA,NA,NA,NA,NA,NA,NA,NA,NA,NA,NA,NA,NA,NA,NA,NA
SUPAMT37840,3WQ3B2KGEEFFAJIBCWX3OL79PEY1BW,15759615-E998-4A4B-A59C-599F824CAC43,2023-09-26_09h43.48.000,WP_VExplicitOC_LH,2022.2.5,Win32,13.1788769,70.83333333,3.2199,2.0813,NA,NA,NA,NA,NA,bored,"bored, not bored","more bored, less bored",NA,NA,NA,NA,NA,NA,NA,NA,NA,NA,NA,NA,NA,NA,NA,0,2,2,2,1,NA,NA,NA,NA,NA,NA,NA,NA,NA,NA,NA,NA,NA,NA,NA,NA,NA,NA,NA,NA,NA,NA,NA,NA,NA,NA,NA,NA
SUPAMT37840,3WQ3B2KGEEFFAJIBCWX3OL79PEY1BW,15759615-E998-4A4B-A59C-599F824CAC43,2023-09-26_09h43.48.000,WP_VExplicitOC_LH,2022.2.5,Win32,13.1788769,NA,NA,NA,NA,NA,NA,NA,NA,NA,NA,NA,NA,NA,NA,NA,NA,NA,NA,NA,NA,NA,NA,NA,NA,NA,NA,NA,NA,NA,NA,NA,5,0,5,0,1,NA,NA,NA,NA,NA,NA,NA,NA,NA,NA,NA,NA,NA,NA,NA,NA,NA,NA,NA,NA,NA,NA,NA
SUPAMT37840,3WQ3B2KGEEFFAJIBCWX3OL79PEY1BW,15759615-E998-4A4B-A59C-599F824CAC43,2023-09-26_09h43.48.000,WP_VExplicitOC_LH,2022.2.5,Win32,13.1788769,62.23958333,3.9573,2.0599,NA,NA,NA,NA,NA,happy,"unhappy, happy","less happy, more happy",NA,NA,NA,NA,NA,NA,NA,NA,NA,NA,NA,NA,NA,NA,NA,0,0,0,0,1,NA,NA,NA,NA,NA,NA,NA,NA,NA,NA,NA,NA,NA,NA,NA,NA,NA,NA,NA,NA,NA,NA,NA,NA,NA,NA,NA,NA
SUPAMT37840,3WQ3B2KGEEFFAJIBCWX3OL79PEY1BW,15759615-E998-4A4B-A59C-599F824CAC43,2023-09-26_09h43.48.000,WP_VExplicitOC_LH,2022.2.5,Win32,13.1788769,77.86458333,3.7663,2.0238,NA,NA,NA,NA,NA,frustrated,"frustrated, not frustrated","more frustrated, less frustrated",NA,NA,NA,NA,NA,NA,NA,NA,NA,NA,NA,NA,NA,NA,NA,0,1,1,1,1,NA,NA,NA,NA,NA,NA,NA,NA,NA,NA,NA,NA,NA,NA,NA,NA,NA,NA,NA,NA,NA,NA,NA,NA,NA,NA,NA,NA
SUPAMT37840,3WQ3B2KGEEFFAJIBCWX3OL79PEY1BW,15759615-E998-4A4B-A59C-599F824CAC43,2023-09-26_09h43.48.000,WP_VExplicitOC_LH,2022.2.5,Win32,13.1788769,75,3.5149,2.0222,NA,NA,NA,NA,NA,bored,"bored, not bored","more bored, less bored",NA,NA,NA,NA,NA,NA,NA,NA,NA,NA,NA,NA,NA,NA,NA,0,2,2,2,1,NA,NA,NA,NA,NA,NA,NA,NA,NA,NA,NA,NA,NA,NA,NA,NA,NA,NA,NA,NA,NA,NA,NA,NA,NA,NA,NA,NA
SUPAMT37840,3WQ3B2KGEEFFAJIBCWX3OL79PEY1BW,15759615-E998-4A4B-A59C-599F824CAC43,2023-09-26_09h43.48.000,WP_VExplicitOC_LH,2022.2.5,Win32,13.1788769,NA,NA,NA,NA,NA,NA,NA,NA,NA,NA,NA,NA,NA,NA,NA,NA,NA,NA,NA,NA,NA,NA,NA,NA,NA,NA,NA,NA,NA,NA,NA,6,0,6,0,1,NA,NA,NA,NA,NA,NA,NA,NA,NA,NA,NA,NA,NA,NA,NA,NA,NA,NA,NA,NA,NA,NA,NA
SUPAMT37840,3WQ3B2KGEEFFAJIBCWX3OL79PEY1BW,15759615-E998-4A4B-A59C-599F824CAC43,2023-09-26_09h43.48.000,WP_VExplicitOC_LH,2022.2.5,Win32,13.1788769,59.63541667,3.7008,2.0612,NA,NA,NA,NA,NA,bored,"bored, not bored","more bored, less bored",NA,NA,NA,NA,NA,NA,NA,NA,NA,NA,NA,NA,NA,NA,NA,0,0,0,2,1,NA,NA,NA,NA,NA,NA,NA,NA,NA,NA,NA,NA,NA,NA,NA,NA,NA,NA,NA,NA,NA,NA,NA,NA,NA,NA,NA,NA
SUPAMT37840,3WQ3B2KGEEFFAJIBCWX3OL79PEY1BW,15759615-E998-4A4B-A59C-599F824CAC43,2023-09-26_09h43.48.000,WP_VExplicitOC_LH,2022.2.5,Win32,13.1788769,81.25,3.1596,2.0884,NA,NA,NA,NA,NA,happy,"unhappy, happy","less happy, more happy",NA,NA,NA,NA,NA,NA,NA,NA,NA,NA,NA,NA,NA,NA,NA,0,1,1,0,1,NA,NA,NA,NA,NA,NA,NA,NA,NA,NA,NA,NA,NA,NA,NA,NA,NA,NA,NA,NA,NA,NA,NA,NA,NA,NA,NA,NA
SUPAMT37840,3WQ3B2KGEEFFAJIBCWX3OL79PEY1BW,15759615-E998-4A4B-A59C-599F824CAC43,2023-09-26_09h43.48.000,WP_VExplicitOC_LH,2022.2.5,Win32,13.1788769,83.33333333,3.0274,2.023,NA,NA,NA,NA,NA,frustrated,"frustrated, not frustrated","more frustrated, less frustrated",NA,NA,NA,NA,NA,NA,NA,NA,NA,NA,NA,NA,NA,NA,NA,0,2,2,1,1,NA,NA,NA,NA,NA,NA,NA,NA,NA,NA,NA,NA,NA,NA,NA,NA,NA,NA,NA,NA,NA,NA,NA,NA,NA,NA,NA,NA
SUPAMT37840,3WQ3B2KGEEFFAJIBCWX3OL79PEY1BW,15759615-E998-4A4B-A59C-599F824CAC43,2023-09-26_09h43.48.000,WP_VExplicitOC_LH,2022.2.5,Win32,13.1788769,NA,NA,NA,NA,NA,NA,NA,NA,NA,NA,NA,NA,NA,NA,NA,NA,NA,NA,NA,NA,NA,NA,NA,NA,NA,NA,NA,NA,NA,NA,NA,7,0,7,0,1,NA,NA,NA,NA,NA,NA,NA,NA,NA,NA,NA,NA,NA,NA,NA,NA,NA,NA,NA,NA,NA,NA,NA
SUPAMT37840,3WQ3B2KGEEFFAJIBCWX3OL79PEY1BW,15759615-E998-4A4B-A59C-599F824CAC43,2023-09-26_09h43.48.000,WP_VExplicitOC_LH,2022.2.5,Win32,13.1788769,76.82291667,3.4984,2.0751,NA,NA,NA,NA,NA,happy,"unhappy, happy","less happy, more happy",NA,NA,NA,NA,NA,NA,NA,NA,NA,NA,NA,NA,NA,NA,NA,0,0,0,0,1,NA,NA,NA,NA,NA,NA,NA,NA,NA,NA,NA,NA,NA,NA,NA,NA,NA,NA,NA,NA,NA,NA,NA,NA,NA,NA,NA,NA
SUPAMT37840,3WQ3B2KGEEFFAJIBCWX3OL79PEY1BW,15759615-E998-4A4B-A59C-599F824CAC43,2023-09-26_09h43.48.000,WP_VExplicitOC_LH,2022.2.5,Win32,13.1788769,76.04166667,3.5272,2.1022,NA,NA,NA,NA,NA,bored,"bored, not bored","more bored, less bored",NA,NA,NA,NA,NA,NA,NA,NA,NA,NA,NA,NA,NA,NA,NA,0,1,1,2,1,NA,NA,NA,NA,NA,NA,NA,NA,NA,NA,NA,NA,NA,NA,NA,NA,NA,NA,NA,NA,NA,NA,NA,NA,NA,NA,NA,NA
SUPAMT37840,3WQ3B2KGEEFFAJIBCWX3OL79PEY1BW,15759615-E998-4A4B-A59C-599F824CAC43,2023-09-26_09h43.48.000,WP_VExplicitOC_LH,2022.2.5,Win32,13.1788769,82.8125,3.1161,2.0533,NA,NA,NA,NA,NA,frustrated,"frustrated, not frustrated","more frustrated, less frustrated",NA,NA,NA,NA,NA,NA,NA,NA,NA,NA,NA,NA,NA,NA,NA,0,2,2,1,1,NA,NA,NA,NA,NA,NA,NA,NA,NA,NA,NA,NA,NA,NA,NA,NA,NA,NA,NA,NA,NA,NA,NA,NA,NA,NA,NA,NA
SUPAMT37840,3WQ3B2KGEEFFAJIBCWX3OL79PEY1BW,15759615-E998-4A4B-A59C-599F824CAC43,2023-09-26_09h43.48.000,WP_VExplicitOC_LH,2022.2.5,Win32,13.1788769,NA,NA,NA,NA,NA,NA,NA,NA,NA,NA,NA,NA,NA,NA,NA,NA,NA,NA,NA,NA,NA,NA,NA,NA,NA,NA,NA,NA,NA,NA,NA,8,0,8,0,1,NA,NA,NA,NA,NA,NA,NA,NA,NA,NA,NA,NA,NA,NA,NA,NA,NA,NA,NA,NA,NA,NA,NA
SUPAMT37840,3WQ3B2KGEEFFAJIBCWX3OL79PEY1BW,15759615-E998-4A4B-A59C-599F824CAC43,2023-09-26_09h43.48.000,WP_VExplicitOC_LH,2022.2.5,Win32,13.1788769,72.91666667,3.6421,2.0799,NA,NA,NA,NA,NA,happy,"unhappy, happy","less happy, more happy",NA,NA,NA,NA,NA,NA,NA,NA,NA,NA,NA,NA,NA,NA,NA,0,0,0,0,1,NA,NA,NA,NA,NA,NA,NA,NA,NA,NA,NA,NA,NA,NA,NA,NA,NA,NA,NA,NA,NA,NA,NA,NA,NA,NA,NA,NA
SUPAMT37840,3WQ3B2KGEEFFAJIBCWX3OL79PEY1BW,15759615-E998-4A4B-A59C-599F824CAC43,2023-09-26_09h43.48.000,WP_VExplicitOC_LH,2022.2.5,Win32,13.1788769,71.09375,4.0927,2.0397,NA,NA,NA,NA,NA,bored,"bored, not bored","more bored, less bored",NA,NA,NA,NA,NA,NA,NA,NA,NA,NA,NA,NA,NA,NA,NA,0,1,1,2,1,NA,NA,NA,NA,NA,NA,NA,NA,NA,NA,NA,NA,NA,NA,NA,NA,NA,NA,NA,NA,NA,NA,NA,NA,NA,NA,NA,NA
SUPAMT37840,3WQ3B2KGEEFFAJIBCWX3OL79PEY1BW,15759615-E998-4A4B-A59C-599F824CAC43,2023-09-26_09h43.48.000,WP_VExplicitOC_LH,2022.2.5,Win32,13.1788769,78.125,3.3968,2.1004,NA,NA,NA,NA,NA,frustrated,"frustrated, not frustrated","more frustrated, less frustrated",NA,NA,NA,NA,NA,NA,NA,NA,NA,NA,NA,NA,NA,NA,NA,0,2,2,1,1,NA,NA,NA,NA,NA,NA,NA,NA,NA,NA,NA,NA,NA,NA,NA,NA,NA,NA,NA,NA,NA,NA,NA,NA,NA,NA,NA,NA
SUPAMT37840,3WQ3B2KGEEFFAJIBCWX3OL79PEY1BW,15759615-E998-4A4B-A59C-599F824CAC43,2023-09-26_09h43.48.000,WP_VExplicitOC_LH,2022.2.5,Win32,13.1788769,NA,NA,NA,NA,NA,NA,NA,NA,NA,NA,NA,NA,NA,NA,NA,NA,NA,NA,NA,NA,NA,NA,NA,NA,NA,NA,NA,NA,NA,NA,NA,9,0,9,0,1,NA,NA,NA,NA,NA,NA,NA,NA,NA,NA,NA,NA,NA,NA,NA,NA,NA,NA,NA,NA,NA,NA,NA
SUPAMT37840,3WQ3B2KGEEFFAJIBCWX3OL79PEY1BW,15759615-E998-4A4B-A59C-599F824CAC43,2023-09-26_09h43.48.000,WP_VExplicitOC_LH,2022.2.5,Win32,13.1788769,64.0625,3.7612,2.0196,NA,NA,NA,NA,NA,happy,"unhappy, happy","less happy, more happy",NA,NA,NA,NA,NA,NA,NA,NA,NA,NA,NA,NA,NA,NA,NA,0,0,0,0,1,NA,NA,NA,NA,NA,NA,NA,NA,NA,NA,NA,NA,NA,NA,NA,NA,NA,NA,NA,NA,NA,NA,NA,NA,NA,NA,NA,NA
SUPAMT37840,3WQ3B2KGEEFFAJIBCWX3OL79PEY1BW,15759615-E998-4A4B-A59C-599F824CAC43,2023-09-26_09h43.48.000,WP_VExplicitOC_LH,2022.2.5,Win32,13.1788769,71.09375,3.3388,2.0328,NA,NA,NA,NA,NA,frustrated,"frustrated, not frustrated","more frustrated, less frustrated",NA,NA,NA,NA,NA,NA,NA,NA,NA,NA,NA,NA,NA,NA,NA,0,1,1,1,1,NA,NA,NA,NA,NA,NA,NA,NA,NA,NA,NA,NA,NA,NA,NA,NA,NA,NA,NA,NA,NA,NA,NA,NA,NA,NA,NA,NA
SUPAMT37840,3WQ3B2KGEEFFAJIBCWX3OL79PEY1BW,15759615-E998-4A4B-A59C-599F824CAC43,2023-09-26_09h43.48.000,WP_VExplicitOC_LH,2022.2.5,Win32,13.1788769,75.26041667,3.3692,2.0073,NA,NA,NA,NA,NA,bored,"bored, not bored","more bored, less bored",NA,NA,NA,NA,NA,NA,NA,NA,NA,NA,NA,NA,NA,NA,NA,0,2,2,2,1,NA,NA,NA,NA,NA,NA,NA,NA,NA,NA,NA,NA,NA,NA,NA,NA,NA,NA,NA,NA,NA,NA,NA,NA,NA,NA,NA,NA
SUPAMT37840,3WQ3B2KGEEFFAJIBCWX3OL79PEY1BW,15759615-E998-4A4B-A59C-599F824CAC43,2023-09-26_09h43.48.000,WP_VExplicitOC_LH,2022.2.5,Win32,13.1788769,NA,NA,NA,NA,NA,NA,NA,NA,NA,NA,NA,NA,NA,NA,NA,NA,NA,NA,NA,NA,NA,NA,NA,NA,NA,NA,NA,NA,NA,NA,NA,10,0,10,0,1,NA,NA,NA,NA,NA,NA,NA,NA,NA,NA,NA,NA,NA,NA,NA,NA,NA,NA,NA,NA,NA,NA,NA
SUPAMT37840,3WQ3B2KGEEFFAJIBCWX3OL79PEY1BW,15759615-E998-4A4B-A59C-599F824CAC43,2023-09-26_09h43.48.000,WP_VExplicitOC_LH,2022.2.5,Win32,13.1788769,69.79166667,4.4061,2.0273,NA,NA,NA,NA,NA,happy,"unhappy, happy","less happy, more happy",NA,NA,NA,NA,NA,NA,NA,NA,NA,NA,NA,NA,NA,NA,NA,0,0,0,0,1,NA,NA,NA,NA,NA,NA,NA,NA,NA,NA,NA,NA,NA,NA,NA,NA,NA,NA,NA,NA,NA,NA,NA,NA,NA,NA,NA,NA
SUPAMT37840,3WQ3B2KGEEFFAJIBCWX3OL79PEY1BW,15759615-E998-4A4B-A59C-599F824CAC43,2023-09-26_09h43.48.000,WP_VExplicitOC_LH,2022.2.5,Win32,13.1788769,75.78125,3.9898,2.033,NA,NA,NA,NA,NA,frustrated,"frustrated, not frustrated","more frustrated, less frustrated",NA,NA,NA,NA,NA,NA,NA,NA,NA,NA,NA,NA,NA,NA,NA,0,1,1,1,1,NA,NA,NA,NA,NA,NA,NA,NA,NA,NA,NA,NA,NA,NA,NA,NA,NA,NA,NA,NA,NA,NA,NA,NA,NA,NA,NA,NA
SUPAMT37840,3WQ3B2KGEEFFAJIBCWX3OL79PEY1BW,15759615-E998-4A4B-A59C-599F824CAC43,2023-09-26_09h43.48.000,WP_VExplicitOC_LH,2022.2.5,Win32,13.1788769,76.04166667,3.3163,2.0018,NA,NA,NA,NA,NA,bored,"bored, not bored","more bored, less bored",NA,NA,NA,NA,NA,NA,NA,NA,NA,NA,NA,NA,NA,NA,NA,0,2,2,2,1,NA,NA,NA,NA,NA,NA,NA,NA,NA,NA,NA,NA,NA,NA,NA,NA,NA,NA,NA,NA,NA,NA,NA,NA,NA,NA,NA,NA
SUPAMT37840,3WQ3B2KGEEFFAJIBCWX3OL79PEY1BW,15759615-E998-4A4B-A59C-599F824CAC43,2023-09-26_09h43.48.000,WP_VExplicitOC_LH,2022.2.5,Win32,13.1788769,NA,NA,NA,NA,NA,NA,NA,NA,NA,NA,NA,NA,NA,NA,NA,NA,NA,NA,NA,NA,NA,NA,NA,NA,NA,NA,NA,NA,NA,NA,NA,11,0,11,0,1,NA,NA,NA,NA,NA,NA,NA,NA,NA,NA,NA,NA,NA,NA,NA,NA,NA,NA,NA,NA,NA,NA,NA
SUPAMT37840,3WQ3B2KGEEFFAJIBCWX3OL79PEY1BW,15759615-E998-4A4B-A59C-599F824CAC43,2023-09-26_09h43.48.000,WP_VExplicitOC_LH,2022.2.5,Win32,13.1788769,60.15625,3.9329,2.0341,NA,NA,NA,NA,NA,bored,"bored, not bored","more bored, less bored",NA,NA,NA,NA,NA,NA,NA,NA,NA,NA,NA,NA,NA,NA,NA,0,0,0,2,1,NA,NA,NA,NA,NA,NA,NA,NA,NA,NA,NA,NA,NA,NA,NA,NA,NA,NA,NA,NA,NA,NA,NA,NA,NA,NA,NA,NA
SUPAMT37840,3WQ3B2KGEEFFAJIBCWX3OL79PEY1BW,15759615-E998-4A4B-A59C-599F824CAC43,2023-09-26_09h43.48.000,WP_VExplicitOC_LH,2022.2.5,Win32,13.1788769,72.13541667,3.0439,2.0442,NA,NA,NA,NA,NA,happy,"unhappy, happy","less happy, more happy",NA,NA,NA,NA,NA,NA,NA,NA,NA,NA,NA,NA,NA,NA,NA,0,1,1,0,1,NA,NA,NA,NA,NA,NA,NA,NA,NA,NA,NA,NA,NA,NA,NA,NA,NA,NA,NA,NA,NA,NA,NA,NA,NA,NA,NA,NA
SUPAMT37840,3WQ3B2KGEEFFAJIBCWX3OL79PEY1BW,15759615-E998-4A4B-A59C-599F824CAC43,2023-09-26_09h43.48.000,WP_VExplicitOC_LH,2022.2.5,Win32,13.1788769,70.83333333,3.5444,2.0101,NA,NA,NA,NA,NA,frustrated,"frustrated, not frustrated","more frustrated, less frustrated",NA,NA,NA,NA,NA,NA,NA,NA,NA,NA,NA,NA,NA,NA,NA,0,2,2,1,1,NA,NA,NA,NA,NA,NA,NA,NA,NA,NA,NA,NA,NA,NA,NA,NA,NA,NA,NA,NA,NA,NA,NA,NA,NA,NA,NA,NA
SUPAMT37840,3WQ3B2KGEEFFAJIBCWX3OL79PEY1BW,15759615-E998-4A4B-A59C-599F824CAC43,2023-09-26_09h43.48.000,WP_VExplicitOC_LH,2022.2.5,Win32,13.1788769,NA,NA,NA,NA,NA,NA,NA,NA,NA,NA,NA,NA,NA,NA,NA,NA,NA,NA,NA,NA,NA,NA,NA,NA,NA,NA,NA,NA,NA,NA,NA,12,0,12,0,1,NA,NA,NA,NA,NA,NA,NA,NA,NA,NA,NA,NA,NA,NA,NA,NA,NA,NA,NA,NA,NA,NA,NA
SUPAMT37840,3WQ3B2KGEEFFAJIBCWX3OL79PEY1BW,15759615-E998-4A4B-A59C-599F824CAC43,2023-09-26_09h43.48.000,WP_VExplicitOC_LH,2022.2.5,Win32,13.1788769,75.78125,3.5307,2.0269,NA,NA,NA,NA,NA,frustrated,"frustrated, not frustrated","more frustrated, less frustrated",NA,NA,NA,NA,NA,NA,NA,NA,NA,NA,NA,NA,NA,NA,NA,0,0,0,1,1,NA,NA,NA,NA,NA,NA,NA,NA,NA,NA,NA,NA,NA,NA,NA,NA,NA,NA,NA,NA,NA,NA,NA,NA,NA,NA,NA,NA
SUPAMT37840,3WQ3B2KGEEFFAJIBCWX3OL79PEY1BW,15759615-E998-4A4B-A59C-599F824CAC43,2023-09-26_09h43.48.000,WP_VExplicitOC_LH,2022.2.5,Win32,13.1788769,76.82291667,3.6388,2.1118,NA,NA,NA,NA,NA,bored,"bored, not bored","more bored, less bored",NA,NA,NA,NA,NA,NA,NA,NA,NA,NA,NA,NA,NA,NA,NA,0,1,1,2,1,NA,NA,NA,NA,NA,NA,NA,NA,NA,NA,NA,NA,NA,NA,NA,NA,NA,NA,NA,NA,NA,NA,NA,NA,NA,NA,NA,NA
SUPAMT37840,3WQ3B2KGEEFFAJIBCWX3OL79PEY1BW,15759615-E998-4A4B-A59C-599F824CAC43,2023-09-26_09h43.48.000,WP_VExplicitOC_LH,2022.2.5,Win32,13.1788769,73.69791667,3.5922,2.0576,NA,NA,NA,NA,NA,happy,"unhappy, happy","less happy, more happy",NA,NA,NA,NA,NA,NA,NA,NA,NA,NA,NA,NA,NA,NA,NA,0,2,2,0,1,NA,NA,NA,NA,NA,NA,NA,NA,NA,NA,NA,NA,NA,NA,NA,NA,NA,NA,NA,NA,NA,NA,NA,NA,NA,NA,NA,NA
SUPAMT37840,3WQ3B2KGEEFFAJIBCWX3OL79PEY1BW,15759615-E998-4A4B-A59C-599F824CAC43,2023-09-26_09h43.48.000,WP_VExplicitOC_LH,2022.2.5,Win32,13.1788769,NA,NA,NA,NA,NA,NA,NA,NA,NA,NA,NA,NA,NA,NA,NA,NA,NA,NA,NA,NA,NA,NA,NA,NA,NA,NA,NA,NA,NA,NA,NA,13,0,13,0,1,NA,NA,NA,NA,NA,NA,NA,NA,NA,NA,NA,NA,NA,NA,NA,NA,NA,NA,NA,NA,NA,NA,NA
SUPAMT37840,3WQ3B2KGEEFFAJIBCWX3OL79PEY1BW,15759615-E998-4A4B-A59C-599F824CAC43,2023-09-26_09h43.48.000,WP_VExplicitOC_LH,2022.2.5,Win32,13.1788769,71.61458333,3.8764,2.064,NA,NA,NA,NA,NA,frustrated,"frustrated, not frustrated","more frustrated, less frustrated",NA,NA,NA,NA,NA,NA,NA,NA,NA,NA,NA,NA,NA,NA,NA,0,0,0,1,1,NA,NA,NA,NA,NA,NA,NA,NA,NA,NA,NA,NA,NA,NA,NA,NA,NA,NA,NA,NA,NA,NA,NA,NA,NA,NA,NA,NA
SUPAMT37840,3WQ3B2KGEEFFAJIBCWX3OL79PEY1BW,15759615-E998-4A4B-A59C-599F824CAC43,2023-09-26_09h43.48.000,WP_VExplicitOC_LH,2022.2.5,Win32,13.1788769,71.35416667,3.2735,2.0756,NA,NA,NA,NA,NA,bored,"bored, not bored","more bored, less bored",NA,NA,NA,NA,NA,NA,NA,NA,NA,NA,NA,NA,NA,NA,NA,0,1,1,2,1,NA,NA,NA,NA,NA,NA,NA,NA,NA,NA,NA,NA,NA,NA,NA,NA,NA,NA,NA,NA,NA,NA,NA,NA,NA,NA,NA,NA
SUPAMT37840,3WQ3B2KGEEFFAJIBCWX3OL79PEY1BW,15759615-E998-4A4B-A59C-599F824CAC43,2023-09-26_09h43.48.000,WP_VExplicitOC_LH,2022.2.5,Win32,13.1788769,65.36458333,3.28,2.0592,NA,NA,NA,NA,NA,happy,"unhappy, happy","less happy, more happy",NA,NA,NA,NA,NA,NA,NA,NA,NA,NA,NA,NA,NA,NA,NA,0,2,2,0,1,NA,NA,NA,NA,NA,NA,NA,NA,NA,NA,NA,NA,NA,NA,NA,NA,NA,NA,NA,NA,NA,NA,NA,NA,NA,NA,NA,NA
SUPAMT37840,3WQ3B2KGEEFFAJIBCWX3OL79PEY1BW,15759615-E998-4A4B-A59C-599F824CAC43,2023-09-26_09h43.48.000,WP_VExplicitOC_LH,2022.2.5,Win32,13.1788769,NA,NA,NA,NA,NA,NA,NA,NA,NA,NA,NA,NA,NA,NA,NA,NA,NA,NA,NA,NA,NA,NA,NA,NA,NA,NA,NA,NA,NA,NA,NA,14,0,14,0,1,NA,NA,NA,NA,NA,NA,NA,NA,NA,NA,NA,NA,NA,NA,NA,NA,NA,NA,NA,NA,NA,NA,NA
SUPAMT37840,3WQ3B2KGEEFFAJIBCWX3OL79PEY1BW,15759615-E998-4A4B-A59C-599F824CAC43,2023-09-26_09h43.48.000,WP_VExplicitOC_LH,2022.2.5,Win32,13.1788769,NA,NA,NA,NA,NA,NA,NA,NA,NA,NA,NA,NA,NA,NA,NA,NA,NA,NA,NA,NA,NA,NA,NA,NA,NA,NA,NA,NA,NA,NA,NA,NA,NA,NA,NA,NA,NA,NA,NA,NA,NA,NA,NA,NA,NA,NA,NA,NA,NA,NA,NA,NA,NA,NA,NA,NA,NA,NA,NA
SUPAMT37840,3WQ3B2KGEEFFAJIBCWX3OL79PEY1BW,15759615-E998-4A4B-A59C-599F824CAC43,2023-09-26_09h43.48.000,WP_VExplicitOC_LH,2022.2.5,Win32,13.1788769,NA,NA,NA,NA,NA,NA,NA,NA,NA,NA,NA,NA,NA,NA,NA,NA,NA,NA,NA,NA,NA,NA,NA,NA,NA,NA,NA,NA,NA,NA,NA,NA,NA,NA,NA,NA,NA,NA,NA,NA,NA,NA,NA,NA,NA,NA,NA,NA,NA,NA,NA,NA,NA,NA,NA,NA,NA,NA,NA
SUPAMT37840,3WQ3B2KGEEFFAJIBCWX3OL79PEY1BW,15759615-E998-4A4B-A59C-599F824CAC43,2023-09-26_09h43.48.000,WP_VExplicitOC_LH,2022.2.5,Win32,13.1788769,NA,NA,NA,NA,NA,NA,NA,NA,NA,NA,NA,NA,NA,NA,NA,NA,NA,NA,rest (looking at a fixed cross),001.png,NA,NA,NA,NA,NA,NA,NA,NA,NA,NA,NA,NA,NA,NA,NA,NA,50.78125,2.6389,0,0,0,0,1,NA,NA,NA,NA,NA,NA,NA,NA,NA,NA,NA,NA,NA,NA,NA,NA
SUPAMT37840,3WQ3B2KGEEFFAJIBCWX3OL79PEY1BW,15759615-E998-4A4B-A59C-599F824CAC43,2023-09-26_09h43.48.000,WP_VExplicitOC_LH,2022.2.5,Win32,13.1788769,NA,NA,NA,NA,NA,NA,NA,NA,NA,NA,NA,NA,NA,NA,NA,NA,NA,NA,stand up,002.png,NA,NA,NA,NA,NA,NA,NA,NA,NA,NA,NA,NA,NA,NA,NA,NA,56.77083333,1.7657,0,1,1,1,1,NA,NA,NA,NA,NA,NA,NA,NA,NA,NA,NA,NA,NA,NA,NA,NA
SUPAMT37840,3WQ3B2KGEEFFAJIBCWX3OL79PEY1BW,15759615-E998-4A4B-A59C-599F824CAC43,2023-09-26_09h43.48.000,WP_VExplicitOC_LH,2022.2.5,Win32,13.1788769,NA,NA,NA,NA,NA,NA,NA,NA,NA,NA,NA,NA,NA,NA,NA,NA,NA,NA,stretch,003.png,NA,NA,NA,NA,NA,NA,NA,NA,NA,NA,NA,NA,NA,NA,NA,NA,74.73958333,1.8253,0,2,2,2,1,NA,NA,NA,NA,NA,NA,NA,NA,NA,NA,NA,NA,NA,NA,NA,NA
SUPAMT37840,3WQ3B2KGEEFFAJIBCWX3OL79PEY1BW,15759615-E998-4A4B-A59C-599F824CAC43,2023-09-26_09h43.48.000,WP_VExplicitOC_LH,2022.2.5,Win32,13.1788769,NA,NA,NA,NA,NA,NA,NA,NA,NA,NA,NA,NA,NA,NA,NA,NA,NA,NA,make a drink,004.png,NA,NA,NA,NA,NA,NA,NA,NA,NA,NA,NA,NA,NA,NA,NA,NA,-29.6875,3.1815,0,3,3,3,1,NA,NA,NA,NA,NA,NA,NA,NA,NA,NA,NA,NA,NA,NA,NA,NA
SUPAMT37840,3WQ3B2KGEEFFAJIBCWX3OL79PEY1BW,15759615-E998-4A4B-A59C-599F824CAC43,2023-09-26_09h43.48.000,WP_VExplicitOC_LH,2022.2.5,Win32,13.1788769,NA,NA,NA,NA,NA,NA,NA,NA,NA,NA,NA,NA,NA,NA,NA,NA,NA,NA,scroll social media,005.png,NA,NA,NA,NA,NA,NA,NA,NA,NA,NA,NA,NA,NA,NA,NA,NA,40.88541667,2.373,0,4,4,4,1,NA,NA,NA,NA,NA,NA,NA,NA,NA,NA,NA,NA,NA,NA,NA,NA
SUPAMT37840,3WQ3B2KGEEFFAJIBCWX3OL79PEY1BW,15759615-E998-4A4B-A59C-599F824CAC43,2023-09-26_09h43.48.000,WP_VExplicitOC_LH,2022.2.5,Win32,13.1788769,NA,NA,NA,NA,NA,NA,NA,NA,NA,NA,NA,NA,NA,NA,NA,NA,NA,NA,listen to music,006.png,NA,NA,NA,NA,NA,NA,NA,NA,NA,NA,NA,NA,NA,NA,NA,NA,71.35416667,2.4452,0,5,5,5,1,NA,NA,NA,NA,NA,NA,NA,NA,NA,NA,NA,NA,NA,NA,NA,NA
SUPAMT37840,3WQ3B2KGEEFFAJIBCWX3OL79PEY1BW,15759615-E998-4A4B-A59C-599F824CAC43,2023-09-26_09h43.48.000,WP_VExplicitOC_LH,2022.2.5,Win32,13.1788769,NA,NA,NA,NA,NA,NA,NA,NA,NA,NA,NA,NA,NA,NA,NA,NA,NA,NA,daydream,007.png,NA,NA,NA,NA,NA,NA,NA,NA,NA,NA,NA,NA,NA,NA,NA,NA,49.47916667,1.8509,0,6,6,6,1,NA,NA,NA,NA,NA,NA,NA,NA,NA,NA,NA,NA,NA,NA,NA,NA
SUPAMT37840,3WQ3B2KGEEFFAJIBCWX3OL79PEY1BW,15759615-E998-4A4B-A59C-599F824CAC43,2023-09-26_09h43.48.000,WP_VExplicitOC_LH,2022.2.5,Win32,13.1788769,NA,NA,NA,NA,NA,NA,NA,NA,NA,NA,NA,NA,NA,NA,NA,NA,NA,NA,watch a short animation,008.png,NA,NA,NA,NA,NA,NA,NA,NA,NA,NA,NA,NA,NA,NA,NA,NA,71.875,2.0471,0,7,7,7,1,NA,NA,NA,NA,NA,NA,NA,NA,NA,NA,NA,NA,NA,NA,NA,NA
SUPAMT37840,3WQ3B2KGEEFFAJIBCWX3OL79PEY1BW,15759615-E998-4A4B-A59C-599F824CAC43,2023-09-26_09h43.48.000,WP_VExplicitOC_LH,2022.2.5,Win32,13.1788769,NA,NA,NA,NA,NA,NA,NA,NA,NA,NA,NA,NA,NA,NA,NA,NA,NA,NA,read a novel,009.png,NA,NA,NA,NA,NA,NA,NA,NA,NA,NA,NA,NA,NA,NA,NA,NA,76.5625,1.6363,0,8,8,8,1,NA,NA,NA,NA,NA,NA,NA,NA,NA,NA,NA,NA,NA,NA,NA,NA
SUPAMT37840,3WQ3B2KGEEFFAJIBCWX3OL79PEY1BW,15759615-E998-4A4B-A59C-599F824CAC43,2023-09-26_09h43.48.000,WP_VExplicitOC_LH,2022.2.5,Win32,13.1788769,NA,NA,NA,NA,NA,NA,NA,NA,NA,NA,NA,NA,NA,NA,NA,NA,NA,NA,read the news,010.png,NA,NA,NA,NA,NA,NA,NA,NA,NA,NA,NA,NA,NA,NA,NA,NA,67.44791667,1.5027,0,9,9,9,1,NA,NA,NA,NA,NA,NA,NA,NA,NA,NA,NA,NA,NA,NA,NA,NA
SUPAMT37840,3WQ3B2KGEEFFAJIBCWX3OL79PEY1BW,15759615-E998-4A4B-A59C-599F824CAC43,2023-09-26_09h43.48.000,WP_VExplicitOC_LH,2022.2.5,Win32,13.1788769,NA,NA,NA,NA,NA,NA,NA,NA,NA,NA,NA,NA,NA,NA,NA,NA,NA,NA,NA,NA,NA,NA,NA,NA,NA,NA,NA,NA,NA,NA,NA,NA,NA,NA,NA,NA,NA,NA,NA,NA,NA,NA,NA,read a novel,NA,NA,NA,NA,NA,NA,NA,NA,NA,NA,NA,NA,NA,NA,NA
SUPAMT37840,3WQ3B2KGEEFFAJIBCWX3OL79PEY1BW,15759615-E998-4A4B-A59C-599F824CAC43,2023-09-26_09h43.48.000,WP_VExplicitOC_LH,2022.2.5,Win32,13.1788769,56.25,3.794,2.0774,NA,NA,NA,NA,NA,frustrated,"frustrated, not frustrated","more frustrated, less frustrated",NA,NA,NA,NA,NA,NA,NA,NA,NA,NA,NA,NA,NA,NA,NA,NA,NA,NA,NA,NA,NA,NA,NA,NA,NA,NA,NA,NA,NA,NA,NA,NA,NA,0,0,0,1,1,NA,NA,NA,NA,NA,NA,NA,NA,NA,NA
SUPAMT37840,3WQ3B2KGEEFFAJIBCWX3OL79PEY1BW,15759615-E998-4A4B-A59C-599F824CAC43,2023-09-26_09h43.48.000,WP_VExplicitOC_LH,2022.2.5,Win32,13.1788769,55.46875,3.634,2.0101,NA,NA,NA,NA,NA,bored,"bored, not bored","more bored, less bored",NA,NA,NA,NA,NA,NA,NA,NA,NA,NA,NA,NA,NA,NA,NA,NA,NA,NA,NA,NA,NA,NA,NA,NA,NA,NA,NA,NA,NA,NA,NA,NA,NA,0,1,1,2,1,NA,NA,NA,NA,NA,NA,NA,NA,NA,NA
SUPAMT37840,3WQ3B2KGEEFFAJIBCWX3OL79PEY1BW,15759615-E998-4A4B-A59C-599F824CAC43,2023-09-26_09h43.48.000,WP_VExplicitOC_LH,2022.2.5,Win32,13.1788769,57.8125,3.2986,2.0467,NA,NA,NA,NA,NA,happy,"unhappy, happy","less happy, more happy",NA,NA,NA,NA,NA,NA,NA,NA,NA,NA,NA,NA,NA,NA,NA,NA,NA,NA,NA,NA,NA,NA,NA,NA,NA,NA,NA,NA,NA,NA,NA,NA,NA,0,2,2,0,1,NA,NA,NA,NA,NA,NA,NA,NA,NA,NA
SUPAMT37840,3WQ3B2KGEEFFAJIBCWX3OL79PEY1BW,15759615-E998-4A4B-A59C-599F824CAC43,2023-09-26_09h43.48.000,WP_VExplicitOC_LH,2022.2.5,Win32,13.1788769,NA,NA,NA,NA,NA,NA,NA,NA,NA,NA,NA,NA,NA,NA,NA,NA,NA,NA,NA,NA,NA,NA,NA,NA,NA,NA,NA,NA,NA,NA,NA,NA,NA,NA,NA,NA,NA,NA,NA,NA,NA,NA,NA,NA,NA,NA,NA,NA,NA,NA,NA,NA,NA,NA,NA,NA,NA,NA,NA
SUPAMT37840,3WQ3B2KGEEFFAJIBCWX3OL79PEY1BW,15759615-E998-4A4B-A59C-599F824CAC43,2023-09-26_09h43.48.000,WP_VExplicitOC_LH,2022.2.5,Win32,13.1788769,NA,NA,NA,NA,NA,NA,NA,NA,NA,NA,NA,NA,NA,NA,NA,NA,NA,NA,NA,NA,NA,NA,NA,NA,NA,NA,NA,NA,NA,NA,NA,NA,NA,NA,NA,NA,NA,NA,NA,NA,NA,NA,NA,NA,NA,NA,NA,NA,NA,NA,NA,NA,NA,NA,NA,NA,NA,NA,NA
SUPAMT37840,3WQ3B2KGEEFFAJIBCWX3OL79PEY1BW,15759615-E998-4A4B-A59C-599F824CAC43,2023-09-26_09h43.48.000,WP_VExplicitOC_LH,2022.2.5,Win32,13.1788769,67.96875,3.6987,2.0014,NA,NA,NA,NA,NA,frustrated,"frustrated, not frustrated","more frustrated, less frustrated",NA,NA,NA,NA,NA,NA,NA,NA,NA,NA,NA,NA,NA,NA,NA,NA,NA,NA,NA,NA,NA,NA,NA,NA,NA,NA,NA,NA,NA,NA,NA,NA,NA,NA,NA,NA,NA,NA,0,0,0,1,1,NA,NA,NA,NA,NA
SUPAMT37840,3WQ3B2KGEEFFAJIBCWX3OL79PEY1BW,15759615-E998-4A4B-A59C-599F824CAC43,2023-09-26_09h43.48.000,WP_VExplicitOC_LH,2022.2.5,Win32,13.1788769,67.70833333,2.9881,2.0237,NA,NA,NA,NA,NA,bored,"bored, not bored","more bored, less bored",NA,NA,NA,NA,NA,NA,NA,NA,NA,NA,NA,NA,NA,NA,NA,NA,NA,NA,NA,NA,NA,NA,NA,NA,NA,NA,NA,NA,NA,NA,NA,NA,NA,NA,NA,NA,NA,NA,0,1,1,2,1,NA,NA,NA,NA,NA
SUPAMT37840,3WQ3B2KGEEFFAJIBCWX3OL79PEY1BW,15759615-E998-4A4B-A59C-599F824CAC43,2023-09-26_09h43.48.000,WP_VExplicitOC_LH,2022.2.5,Win32,13.1788769,67.70833333,3.1344,2.0077,NA,NA,NA,NA,NA,happy,"unhappy, happy","less happy, more happy",NA,NA,NA,NA,NA,NA,NA,NA,NA,NA,NA,NA,NA,NA,NA,NA,NA,NA,NA,NA,NA,NA,NA,NA,NA,NA,NA,NA,NA,NA,NA,NA,NA,NA,NA,NA,NA,NA,0,2,2,0,1,NA,NA,NA,NA,NA
SUPAMT37840,3WQ3B2KGEEFFAJIBCWX3OL79PEY1BW,15759615-E998-4A4B-A59C-599F824CAC43,2023-09-26_09h43.48.000,WP_VExplicitOC_LH,2022.2.5,Win32,13.1788769,NA,NA,NA,NA,NA,NA,NA,NA,NA,NA,NA,NA,NA,NA,NA,NA,NA,NA,NA,NA,NA,NA,NA,NA,NA,NA,NA,NA,NA,NA,NA,NA,NA,NA,NA,NA,NA,NA,NA,NA,NA,NA,NA,NA,NA,NA,NA,NA,NA,NA,NA,NA,NA,NA,0,0,0,0,1
SUPAMT37840,3WQ3B2KGEEFFAJIBCWX3OL79PEY1BW,15759615-E998-4A4B-A59C-599F824CAC43,2023-09-26_09h43.48.000,WP_VExplicitOC_LH,2022.2.5,Win32,13.1788769,64.0625,3.8785,2.0828,NA,NA,NA,NA,NA,frustrated,"frustrated, not frustrated","more frustrated, less frustrated",NA,NA,NA,NA,NA,NA,NA,NA,NA,NA,NA,NA,NA,NA,NA,NA,NA,NA,NA,NA,NA,NA,NA,NA,NA,NA,NA,NA,NA,NA,NA,NA,NA,NA,NA,NA,NA,NA,0,0,0,1,1,NA,NA,NA,NA,NA
SUPAMT37840,3WQ3B2KGEEFFAJIBCWX3OL79PEY1BW,15759615-E998-4A4B-A59C-599F824CAC43,2023-09-26_09h43.48.000,WP_VExplicitOC_LH,2022.2.5,Win32,13.1788769,63.28125,3.9136,2.0612,NA,NA,NA,NA,NA,bored,"bored, not bored","more bored, less bored",NA,NA,NA,NA,NA,NA,NA,NA,NA,NA,NA,NA,NA,NA,NA,NA,NA,NA,NA,NA,NA,NA,NA,NA,NA,NA,NA,NA,NA,NA,NA,NA,NA,NA,NA,NA,NA,NA,0,1,1,2,1,NA,NA,NA,NA,NA
SUPAMT37840,3WQ3B2KGEEFFAJIBCWX3OL79PEY1BW,15759615-E998-4A4B-A59C-599F824CAC43,2023-09-26_09h43.48.000,WP_VExplicitOC_LH,2022.2.5,Win32,13.1788769,70.3125,3.6336,2.0617,NA,NA,NA,NA,NA,happy,"unhappy, happy","less happy, more happy",NA,NA,NA,NA,NA,NA,NA,NA,NA,NA,NA,NA,NA,NA,NA,NA,NA,NA,NA,NA,NA,NA,NA,NA,NA,NA,NA,NA,NA,NA,NA,NA,NA,NA,NA,NA,NA,NA,0,2,2,0,1,NA,NA,NA,NA,NA
SUPAMT37840,3WQ3B2KGEEFFAJIBCWX3OL79PEY1BW,15759615-E998-4A4B-A59C-599F824CAC43,2023-09-26_09h43.48.000,WP_VExplicitOC_LH,2022.2.5,Win32,13.1788769,NA,NA,NA,NA,NA,NA,NA,NA,NA,NA,NA,NA,NA,NA,NA,NA,NA,NA,NA,NA,NA,NA,NA,NA,NA,NA,NA,NA,NA,NA,NA,NA,NA,NA,NA,NA,NA,NA,NA,NA,NA,NA,NA,NA,NA,NA,NA,NA,NA,NA,NA,NA,NA,NA,1,0,1,0,1
SUPAMT37840,3WQ3B2KGEEFFAJIBCWX3OL79PEY1BW,15759615-E998-4A4B-A59C-599F824CAC43,2023-09-26_09h43.48.000,WP_VExplicitOC_LH,2022.2.5,Win32,13.1788769,75,4.1487,2.0887,NA,NA,NA,NA,NA,happy,"unhappy, happy","less happy, more happy",NA,NA,NA,NA,NA,NA,NA,NA,NA,NA,NA,NA,NA,NA,NA,NA,NA,NA,NA,NA,NA,NA,NA,NA,NA,NA,NA,NA,NA,NA,NA,NA,NA,NA,NA,NA,NA,NA,0,0,0,0,1,NA,NA,NA,NA,NA
SUPAMT37840,3WQ3B2KGEEFFAJIBCWX3OL79PEY1BW,15759615-E998-4A4B-A59C-599F824CAC43,2023-09-26_09h43.48.000,WP_VExplicitOC_LH,2022.2.5,Win32,13.1788769,75.78125,3.7335,2.0605,NA,NA,NA,NA,NA,frustrated,"frustrated, not frustrated","more frustrated, less frustrated",NA,NA,NA,NA,NA,NA,NA,NA,NA,NA,NA,NA,NA,NA,NA,NA,NA,NA,NA,NA,NA,NA,NA,NA,NA,NA,NA,NA,NA,NA,NA,NA,NA,NA,NA,NA,NA,NA,0,1,1,1,1,NA,NA,NA,NA,NA
SUPAMT37840,3WQ3B2KGEEFFAJIBCWX3OL79PEY1BW,15759615-E998-4A4B-A59C-599F824CAC43,2023-09-26_09h43.48.000,WP_VExplicitOC_LH,2022.2.5,Win32,13.1788769,77.08333333,3.1419,2.0559,NA,NA,NA,NA,NA,bored,"bored, not bored","more bored, less bored",NA,NA,NA,NA,NA,NA,NA,NA,NA,NA,NA,NA,NA,NA,NA,NA,NA,NA,NA,NA,NA,NA,NA,NA,NA,NA,NA,NA,NA,NA,NA,NA,NA,NA,NA,NA,NA,NA,0,2,2,2,1,NA,NA,NA,NA,NA
SUPAMT37840,3WQ3B2KGEEFFAJIBCWX3OL79PEY1BW,15759615-E998-4A4B-A59C-599F824CAC43,2023-09-26_09h43.48.000,WP_VExplicitOC_LH,2022.2.5,Win32,13.1788769,NA,NA,NA,NA,NA,NA,NA,NA,NA,NA,NA,NA,NA,NA,NA,NA,NA,NA,NA,NA,NA,NA,NA,NA,NA,NA,NA,NA,NA,NA,NA,NA,NA,NA,NA,NA,NA,NA,NA,NA,NA,NA,NA,NA,NA,NA,NA,NA,NA,NA,NA,NA,NA,NA,2,0,2,0,1
SUPAMT37840,3WQ3B2KGEEFFAJIBCWX3OL79PEY1BW,15759615-E998-4A4B-A59C-599F824CAC43,2023-09-26_09h43.48.000,WP_VExplicitOC_LH,2022.2.5,Win32,13.1788769,22.91666667,4.2221,2.0798,NA,NA,NA,NA,NA,happy,"unhappy, happy","less happy, more happy",NA,NA,NA,NA,NA,NA,NA,NA,NA,NA,NA,NA,NA,NA,NA,NA,NA,NA,NA,NA,NA,NA,NA,NA,NA,NA,NA,NA,NA,NA,NA,NA,NA,NA,NA,NA,NA,NA,0,0,0,0,1,NA,NA,NA,NA,NA
SUPAMT37840,3WQ3B2KGEEFFAJIBCWX3OL79PEY1BW,15759615-E998-4A4B-A59C-599F824CAC43,2023-09-26_09h43.48.000,WP_VExplicitOC_LH,2022.2.5,Win32,13.1788769,42.44791667,3.1386,2.0498,NA,NA,NA,NA,NA,frustrated,"frustrated, not frustrated","more frustrated, less frustrated",NA,NA,NA,NA,NA,NA,NA,NA,NA,NA,NA,NA,NA,NA,NA,NA,NA,NA,NA,NA,NA,NA,NA,NA,NA,NA,NA,NA,NA,NA,NA,NA,NA,NA,NA,NA,NA,NA,0,1,1,1,1,NA,NA,NA,NA,NA
SUPAMT37840,3WQ3B2KGEEFFAJIBCWX3OL79PEY1BW,15759615-E998-4A4B-A59C-599F824CAC43,2023-09-26_09h43.48.000,WP_VExplicitOC_LH,2022.2.5,Win32,13.1788769,40.36458333,3.2465,2.0178,NA,NA,NA,NA,NA,bored,"bored, not bored","more bored, less bored",NA,NA,NA,NA,NA,NA,NA,NA,NA,NA,NA,NA,NA,NA,NA,NA,NA,NA,NA,NA,NA,NA,NA,NA,NA,NA,NA,NA,NA,NA,NA,NA,NA,NA,NA,NA,NA,NA,0,2,2,2,1,NA,NA,NA,NA,NA
SUPAMT37840,3WQ3B2KGEEFFAJIBCWX3OL79PEY1BW,15759615-E998-4A4B-A59C-599F824CAC43,2023-09-26_09h43.48.000,WP_VExplicitOC_LH,2022.2.5,Win32,13.1788769,NA,NA,NA,NA,NA,NA,NA,NA,NA,NA,NA,NA,NA,NA,NA,NA,NA,NA,NA,NA,NA,NA,NA,NA,NA,NA,NA,NA,NA,NA,NA,NA,NA,NA,NA,NA,NA,NA,NA,NA,NA,NA,NA,NA,NA,NA,NA,NA,NA,NA,NA,NA,NA,NA,3,0,3,0,1
SUPAMT37840,3WQ3B2KGEEFFAJIBCWX3OL79PEY1BW,15759615-E998-4A4B-A59C-599F824CAC43,2023-09-26_09h43.48.000,WP_VExplicitOC_LH,2022.2.5,Win32,13.1788769,19.53125,3.6168,2.0192,NA,NA,NA,NA,NA,bored,"bored, not bored","more bored, less bored",NA,NA,NA,NA,NA,NA,NA,NA,NA,NA,NA,NA,NA,NA,NA,NA,NA,NA,NA,NA,NA,NA,NA,NA,NA,NA,NA,NA,NA,NA,NA,NA,NA,NA,NA,NA,NA,NA,0,0,0,2,1,NA,NA,NA,NA,NA
SUPAMT37840,3WQ3B2KGEEFFAJIBCWX3OL79PEY1BW,15759615-E998-4A4B-A59C-599F824CAC43,2023-09-26_09h43.48.000,WP_VExplicitOC_LH,2022.2.5,Win32,13.1788769,-20.05208333,3.488,2.0426,NA,NA,NA,NA,NA,frustrated,"frustrated, not frustrated","more frustrated, less frustrated",NA,NA,NA,NA,NA,NA,NA,NA,NA,NA,NA,NA,NA,NA,NA,NA,NA,NA,NA,NA,NA,NA,NA,NA,NA,NA,NA,NA,NA,NA,NA,NA,NA,NA,NA,NA,NA,NA,0,1,1,1,1,NA,NA,NA,NA,NA
SUPAMT37840,3WQ3B2KGEEFFAJIBCWX3OL79PEY1BW,15759615-E998-4A4B-A59C-599F824CAC43,2023-09-26_09h43.48.000,WP_VExplicitOC_LH,2022.2.5,Win32,13.1788769,-20.05208333,3.6417,2.0278,NA,NA,NA,NA,NA,happy,"unhappy, happy","less happy, more happy",NA,NA,NA,NA,NA,NA,NA,NA,NA,NA,NA,NA,NA,NA,NA,NA,NA,NA,NA,NA,NA,NA,NA,NA,NA,NA,NA,NA,NA,NA,NA,NA,NA,NA,NA,NA,NA,NA,0,2,2,0,1,NA,NA,NA,NA,NA
SUPAMT37840,3WQ3B2KGEEFFAJIBCWX3OL79PEY1BW,15759615-E998-4A4B-A59C-599F824CAC43,2023-09-26_09h43.48.000,WP_VExplicitOC_LH,2022.2.5,Win32,13.1788769,NA,NA,NA,NA,NA,NA,NA,NA,NA,NA,NA,NA,NA,NA,NA,NA,NA,NA,NA,NA,NA,NA,NA,NA,NA,NA,NA,NA,NA,NA,NA,NA,NA,NA,NA,NA,NA,NA,NA,NA,NA,NA,NA,NA,NA,NA,NA,NA,NA,NA,NA,NA,NA,NA,4,0,4,0,1
SUPAMT37840,3WQ3B2KGEEFFAJIBCWX3OL79PEY1BW,15759615-E998-4A4B-A59C-599F824CAC43,2023-09-26_09h43.48.000,WP_VExplicitOC_LH,2022.2.5,Win32,13.1788769,35.9375,4.1422,2.0801,NA,NA,NA,NA,NA,frustrated,"frustrated, not frustrated","more frustrated, less frustrated",NA,NA,NA,NA,NA,NA,NA,NA,NA,NA,NA,NA,NA,NA,NA,NA,NA,NA,NA,NA,NA,NA,NA,NA,NA,NA,NA,NA,NA,NA,NA,NA,NA,NA,NA,NA,NA,NA,0,0,0,1,1,NA,NA,NA,NA,NA
SUPAMT37840,3WQ3B2KGEEFFAJIBCWX3OL79PEY1BW,15759615-E998-4A4B-A59C-599F824CAC43,2023-09-26_09h43.48.000,WP_VExplicitOC_LH,2022.2.5,Win32,13.1788769,-17.1875,3.566,2.0185,NA,NA,NA,NA,NA,bored,"bored, not bored","more bored, less bored",NA,NA,NA,NA,NA,NA,NA,NA,NA,NA,NA,NA,NA,NA,NA,NA,NA,NA,NA,NA,NA,NA,NA,NA,NA,NA,NA,NA,NA,NA,NA,NA,NA,NA,NA,NA,NA,NA,0,1,1,2,1,NA,NA,NA,NA,NA
SUPAMT37840,3WQ3B2KGEEFFAJIBCWX3OL79PEY1BW,15759615-E998-4A4B-A59C-599F824CAC43,2023-09-26_09h43.48.000,WP_VExplicitOC_LH,2022.2.5,Win32,13.1788769,29.6875,3.4523,2.0457,NA,NA,NA,NA,NA,happy,"unhappy, happy","less happy, more happy",NA,NA,NA,NA,NA,NA,NA,NA,NA,NA,NA,NA,NA,NA,NA,NA,NA,NA,NA,NA,NA,NA,NA,NA,NA,NA,NA,NA,NA,NA,NA,NA,NA,NA,NA,NA,NA,NA,0,2,2,0,1,NA,NA,NA,NA,NA
SUPAMT37840,3WQ3B2KGEEFFAJIBCWX3OL79PEY1BW,15759615-E998-4A4B-A59C-599F824CAC43,2023-09-26_09h43.48.000,WP_VExplicitOC_LH,2022.2.5,Win32,13.1788769,NA,NA,NA,NA,NA,NA,NA,NA,NA,NA,NA,NA,NA,NA,NA,NA,NA,NA,NA,NA,NA,NA,NA,NA,NA,NA,NA,NA,NA,NA,NA,NA,NA,NA,NA,NA,NA,NA,NA,NA,NA,NA,NA,NA,NA,NA,NA,NA,NA,NA,NA,NA,NA,NA,5,0,5,0,1
SUPAMT37840,3WQ3B2KGEEFFAJIBCWX3OL79PEY1BW,15759615-E998-4A4B-A59C-599F824CAC43,2023-09-26_09h43.48.000,WP_VExplicitOC_LH,2022.2.5,Win32,13.1788769,38.28125,3.8405,2.0603,NA,NA,NA,NA,NA,happy,"unhappy, happy","less happy, more happy",NA,NA,NA,NA,NA,NA,NA,NA,NA,NA,NA,NA,NA,NA,NA,NA,NA,NA,NA,NA,NA,NA,NA,NA,NA,NA,NA,NA,NA,NA,NA,NA,NA,NA,NA,NA,NA,NA,0,0,0,0,1,NA,NA,NA,NA,NA
SUPAMT37840,3WQ3B2KGEEFFAJIBCWX3OL79PEY1BW,15759615-E998-4A4B-A59C-599F824CAC43,2023-09-26_09h43.48.000,WP_VExplicitOC_LH,2022.2.5,Win32,13.1788769,31.25,4.431,2.0381,NA,NA,NA,NA,NA,frustrated,"frustrated, not frustrated","more frustrated, less frustrated",NA,NA,NA,NA,NA,NA,NA,NA,NA,NA,NA,NA,NA,NA,NA,NA,NA,NA,NA,NA,NA,NA,NA,NA,NA,NA,NA,NA,NA,NA,NA,NA,NA,NA,NA,NA,NA,NA,0,1,1,1,1,NA,NA,NA,NA,NA
SUPAMT37840,3WQ3B2KGEEFFAJIBCWX3OL79PEY1BW,15759615-E998-4A4B-A59C-599F824CAC43,2023-09-26_09h43.48.000,WP_VExplicitOC_LH,2022.2.5,Win32,13.1788769,43.22916667,3.5697,2.029,NA,NA,NA,NA,NA,bored,"bored, not bored","more bored, less bored",NA,NA,NA,NA,NA,NA,NA,NA,NA,NA,NA,NA,NA,NA,NA,NA,NA,NA,NA,NA,NA,NA,NA,NA,NA,NA,NA,NA,NA,NA,NA,NA,NA,NA,NA,NA,NA,NA,0,2,2,2,1,NA,NA,NA,NA,NA
SUPAMT37840,3WQ3B2KGEEFFAJIBCWX3OL79PEY1BW,15759615-E998-4A4B-A59C-599F824CAC43,2023-09-26_09h43.48.000,WP_VExplicitOC_LH,2022.2.5,Win32,13.1788769,NA,NA,NA,NA,NA,NA,NA,NA,NA,NA,NA,NA,NA,NA,NA,NA,NA,NA,NA,NA,NA,NA,NA,NA,NA,NA,NA,NA,NA,NA,NA,NA,NA,NA,NA,NA,NA,NA,NA,NA,NA,NA,NA,NA,NA,NA,NA,NA,NA,NA,NA,NA,NA,NA,6,0,6,0,1
SUPAMT37840,3WQ3B2KGEEFFAJIBCWX3OL79PEY1BW,15759615-E998-4A4B-A59C-599F824CAC43,2023-09-26_09h43.48.000,WP_VExplicitOC_LH,2022.2.5,Win32,13.1788769,-27.86458333,3.7623,2.0543,NA,NA,NA,NA,NA,frustrated,"frustrated, not frustrated","more frustrated, less frustrated",NA,NA,NA,NA,NA,NA,NA,NA,NA,NA,NA,NA,NA,NA,NA,NA,NA,NA,NA,NA,NA,NA,NA,NA,NA,NA,NA,NA,NA,NA,NA,NA,NA,NA,NA,NA,NA,NA,0,0,0,1,1,NA,NA,NA,NA,NA
SUPAMT37840,3WQ3B2KGEEFFAJIBCWX3OL79PEY1BW,15759615-E998-4A4B-A59C-599F824CAC43,2023-09-26_09h43.48.000,WP_VExplicitOC_LH,2022.2.5,Win32,13.1788769,-26.5625,3.447,2.0819,NA,NA,NA,NA,NA,bored,"bored, not bored","more bored, less bored",NA,NA,NA,NA,NA,NA,NA,NA,NA,NA,NA,NA,NA,NA,NA,NA,NA,NA,NA,NA,NA,NA,NA,NA,NA,NA,NA,NA,NA,NA,NA,NA,NA,NA,NA,NA,NA,NA,0,1,1,2,1,NA,NA,NA,NA,NA
SUPAMT37840,3WQ3B2KGEEFFAJIBCWX3OL79PEY1BW,15759615-E998-4A4B-A59C-599F824CAC43,2023-09-26_09h43.48.000,WP_VExplicitOC_LH,2022.2.5,Win32,13.1788769,-26.5625,3.0188,2.0018,NA,NA,NA,NA,NA,happy,"unhappy, happy","less happy, more happy",NA,NA,NA,NA,NA,NA,NA,NA,NA,NA,NA,NA,NA,NA,NA,NA,NA,NA,NA,NA,NA,NA,NA,NA,NA,NA,NA,NA,NA,NA,NA,NA,NA,NA,NA,NA,NA,NA,0,2,2,0,1,NA,NA,NA,NA,NA
SUPAMT37840,3WQ3B2KGEEFFAJIBCWX3OL79PEY1BW,15759615-E998-4A4B-A59C-599F824CAC43,2023-09-26_09h43.48.000,WP_VExplicitOC_LH,2022.2.5,Win32,13.1788769,NA,NA,NA,NA,NA,NA,NA,NA,NA,NA,NA,NA,NA,NA,NA,NA,NA,NA,NA,NA,NA,NA,NA,NA,NA,NA,NA,NA,NA,NA,NA,NA,NA,NA,NA,NA,NA,NA,NA,NA,NA,NA,NA,NA,NA,NA,NA,NA,NA,NA,NA,NA,NA,NA,7,0,7,0,1
SUPAMT37840,3WQ3B2KGEEFFAJIBCWX3OL79PEY1BW,15759615-E998-4A4B-A59C-599F824CAC43,2023-09-26_09h43.48.000,WP_VExplicitOC_LH,2022.2.5,Win32,13.1788769,71.35416667,4.9058,2.024,NA,NA,NA,NA,NA,happy,"unhappy, happy","less happy, more happy",NA,NA,NA,NA,NA,NA,NA,NA,NA,NA,NA,NA,NA,NA,NA,NA,NA,NA,NA,NA,NA,NA,NA,NA,NA,NA,NA,NA,NA,NA,NA,NA,NA,NA,NA,NA,NA,NA,0,0,0,0,1,NA,NA,NA,NA,NA
SUPAMT37840,3WQ3B2KGEEFFAJIBCWX3OL79PEY1BW,15759615-E998-4A4B-A59C-599F824CAC43,2023-09-26_09h43.48.000,WP_VExplicitOC_LH,2022.2.5,Win32,13.1788769,78.90625,6.5859,2.0418,NA,NA,NA,NA,NA,bored,"bored, not bored","more bored, less bored",NA,NA,NA,NA,NA,NA,NA,NA,NA,NA,NA,NA,NA,NA,NA,NA,NA,NA,NA,NA,NA,NA,NA,NA,NA,NA,NA,NA,NA,NA,NA,NA,NA,NA,NA,NA,NA,NA,0,1,1,2,1,NA,NA,NA,NA,NA
SUPAMT37840,3WQ3B2KGEEFFAJIBCWX3OL79PEY1BW,15759615-E998-4A4B-A59C-599F824CAC43,2023-09-26_09h43.48.000,WP_VExplicitOC_LH,2022.2.5,Win32,13.1788769,NA,NA,2.0369,NA,NA,NA,NA,NA,frustrated,"frustrated, not frustrated","more frustrated, less frustrated",NA,NA,NA,NA,NA,NA,NA,NA,NA,NA,NA,NA,NA,NA,NA,NA,NA,NA,NA,NA,NA,NA,NA,NA,NA,NA,NA,NA,NA,NA,NA,NA,NA,NA,NA,NA,NA,NA,0,2,2,1,1,NA,NA,NA,NA,NA
SUPAMT37840,3WQ3B2KGEEFFAJIBCWX3OL79PEY1BW,15759615-E998-4A4B-A59C-599F824CAC43,2023-09-26_09h43.48.000,WP_VExplicitOC_LH,2022.2.5,Win32,13.1788769,NA,NA,NA,NA,NA,NA,NA,NA,NA,NA,NA,NA,NA,NA,NA,NA,NA,NA,NA,NA,NA,NA,NA,NA,NA,NA,NA,NA,NA,NA,NA,NA,NA,NA,NA,NA,NA,NA,NA,NA,NA,NA,NA,NA,NA,NA,NA,NA,NA,NA,NA,NA,NA,NA,8,0,8,0,1
SUPAMT37840,3WQ3B2KGEEFFAJIBCWX3OL79PEY1BW,15759615-E998-4A4B-A59C-599F824CAC43,2023-09-26_09h43.48.000,WP_VExplicitOC_LH,2022.2.5,Win32,13.1788769,61.19791667,4.1068,2.0315,NA,NA,NA,NA,NA,bored,"bored, not bored","more bored, less bored",NA,NA,NA,NA,NA,NA,NA,NA,NA,NA,NA,NA,NA,NA,NA,NA,NA,NA,NA,NA,NA,NA,NA,NA,NA,NA,NA,NA,NA,NA,NA,NA,NA,NA,NA,NA,NA,NA,0,0,0,2,1,NA,NA,NA,NA,NA
SUPAMT37840,3WQ3B2KGEEFFAJIBCWX3OL79PEY1BW,15759615-E998-4A4B-A59C-599F824CAC43,2023-09-26_09h43.48.000,WP_VExplicitOC_LH,2022.2.5,Win32,13.1788769,55.98958333,3.1811,2.0309,NA,NA,NA,NA,NA,frustrated,"frustrated, not frustrated","more frustrated, less frustrated",NA,NA,NA,NA,NA,NA,NA,NA,NA,NA,NA,NA,NA,NA,NA,NA,NA,NA,NA,NA,NA,NA,NA,NA,NA,NA,NA,NA,NA,NA,NA,NA,NA,NA,NA,NA,NA,NA,0,1,1,1,1,NA,NA,NA,NA,NA
SUPAMT37840,3WQ3B2KGEEFFAJIBCWX3OL79PEY1BW,15759615-E998-4A4B-A59C-599F824CAC43,2023-09-26_09h43.48.000,WP_VExplicitOC_LH,2022.2.5,Win32,13.1788769,62.76041667,6.5823,2.0235,NA,NA,NA,NA,NA,happy,"unhappy, happy","less happy, more happy",NA,NA,NA,NA,NA,NA,NA,NA,NA,NA,NA,NA,NA,NA,NA,NA,NA,NA,NA,NA,NA,NA,NA,NA,NA,NA,NA,NA,NA,NA,NA,NA,NA,NA,NA,NA,NA,NA,0,2,2,0,1,NA,NA,NA,NA,NA
SUPAMT37840,3WQ3B2KGEEFFAJIBCWX3OL79PEY1BW,15759615-E998-4A4B-A59C-599F824CAC43,2023-09-26_09h43.48.000,WP_VExplicitOC_LH,2022.2.5,Win32,13.1788769,NA,NA,NA,NA,NA,NA,NA,NA,NA,NA,NA,NA,NA,NA,NA,NA,NA,NA,NA,NA,NA,NA,NA,NA,NA,NA,NA,NA,NA,NA,NA,NA,NA,NA,NA,NA,NA,NA,NA,NA,NA,NA,NA,NA,NA,NA,NA,NA,NA,NA,NA,NA,NA,NA,9,0,9,0,1
SUPAMT37840,3WQ3B2KGEEFFAJIBCWX3OL79PEY1BW,15759615-E998-4A4B-A59C-599F824CAC43,2023-09-26_09h43.48.000,WP_VExplicitOC_LH,2022.2.5,Win32,13.1788769,69.27083333,5.4485,2.0319,NA,NA,NA,NA,NA,frustrated,"frustrated, not frustrated","more frustrated, less frustrated",NA,NA,NA,NA,NA,NA,NA,NA,NA,NA,NA,NA,NA,NA,NA,NA,NA,NA,NA,NA,NA,NA,NA,NA,NA,NA,NA,NA,NA,NA,NA,NA,NA,NA,NA,NA,NA,NA,0,0,0,1,1,NA,NA,NA,NA,NA
SUPAMT37840,3WQ3B2KGEEFFAJIBCWX3OL79PEY1BW,15759615-E998-4A4B-A59C-599F824CAC43,2023-09-26_09h43.48.000,WP_VExplicitOC_LH,2022.2.5,Win32,13.1788769,NA,NA,2.0165,NA,NA,NA,NA,NA,bored,"bored, not bored","more bored, less bored",NA,NA,NA,NA,NA,NA,NA,NA,NA,NA,NA,NA,NA,NA,NA,NA,NA,NA,NA,NA,NA,NA,NA,NA,NA,NA,NA,NA,NA,NA,NA,NA,NA,NA,NA,NA,NA,NA,0,1,1,2,1,NA,NA,NA,NA,NA
SUPAMT37840,3WQ3B2KGEEFFAJIBCWX3OL79PEY1BW,15759615-E998-4A4B-A59C-599F824CAC43,2023-09-26_09h43.48.000,WP_VExplicitOC_LH,2022.2.5,Win32,13.1788769,82.03125,3.9398,2.0383,NA,NA,NA,NA,NA,happy,"unhappy, happy","less happy, more happy",NA,NA,NA,NA,NA,NA,NA,NA,NA,NA,NA,NA,NA,NA,NA,NA,NA,NA,NA,NA,NA,NA,NA,NA,NA,NA,NA,NA,NA,NA,NA,NA,NA,NA,NA,NA,NA,NA,0,2,2,0,1,NA,NA,NA,NA,NA
SUPAMT37840,3WQ3B2KGEEFFAJIBCWX3OL79PEY1BW,15759615-E998-4A4B-A59C-599F824CAC43,2023-09-26_09h43.48.000,WP_VExplicitOC_LH,2022.2.5,Win32,13.1788769,NA,NA,NA,NA,NA,NA,NA,NA,NA,NA,NA,NA,NA,NA,NA,NA,NA,NA,NA,NA,NA,NA,NA,NA,NA,NA,NA,NA,NA,NA,NA,NA,NA,NA,NA,NA,NA,NA,NA,NA,NA,NA,NA,NA,NA,NA,NA,NA,NA,NA,NA,NA,NA,NA,10,0,10,0,1
SUPAMT37840,3WQ3B2KGEEFFAJIBCWX3OL79PEY1BW,15759615-E998-4A4B-A59C-599F824CAC43,2023-09-26_09h43.48.000,WP_VExplicitOC_LH,2022.2.5,Win32,13.1788769,56.77083333,3.864,2.064,NA,NA,NA,NA,NA,frustrated,"frustrated, not frustrated","more frustrated, less frustrated",NA,NA,NA,NA,NA,NA,NA,NA,NA,NA,NA,NA,NA,NA,NA,NA,NA,NA,NA,NA,NA,NA,NA,NA,NA,NA,NA,NA,NA,NA,NA,NA,NA,NA,NA,NA,NA,NA,0,0,0,1,1,NA,NA,NA,NA,NA
SUPAMT37840,3WQ3B2KGEEFFAJIBCWX3OL79PEY1BW,15759615-E998-4A4B-A59C-599F824CAC43,2023-09-26_09h43.48.000,WP_VExplicitOC_LH,2022.2.5,Win32,13.1788769,56.77083333,4.1117,2.0082,NA,NA,NA,NA,NA,happy,"unhappy, happy","less happy, more happy",NA,NA,NA,NA,NA,NA,NA,NA,NA,NA,NA,NA,NA,NA,NA,NA,NA,NA,NA,NA,NA,NA,NA,NA,NA,NA,NA,NA,NA,NA,NA,NA,NA,NA,NA,NA,NA,NA,0,1,1,0,1,NA,NA,NA,NA,NA
SUPAMT37840,3WQ3B2KGEEFFAJIBCWX3OL79PEY1BW,15759615-E998-4A4B-A59C-599F824CAC43,2023-09-26_09h43.48.000,WP_VExplicitOC_LH,2022.2.5,Win32,13.1788769,57.29166667,3.6665,2.0525,NA,NA,NA,NA,NA,bored,"bored, not bored","more bored, less bored",NA,NA,NA,NA,NA,NA,NA,NA,NA,NA,NA,NA,NA,NA,NA,NA,NA,NA,NA,NA,NA,NA,NA,NA,NA,NA,NA,NA,NA,NA,NA,NA,NA,NA,NA,NA,NA,NA,0,2,2,2,1,NA,NA,NA,NA,NA
SUPAMT37840,3WQ3B2KGEEFFAJIBCWX3OL79PEY1BW,15759615-E998-4A4B-A59C-599F824CAC43,2023-09-26_09h43.48.000,WP_VExplicitOC_LH,2022.2.5,Win32,13.1788769,NA,NA,NA,NA,NA,NA,NA,NA,NA,NA,NA,NA,NA,NA,NA,NA,NA,NA,NA,NA,NA,NA,NA,NA,NA,NA,NA,NA,NA,NA,NA,NA,NA,NA,NA,NA,NA,NA,NA,NA,NA,NA,NA,NA,NA,NA,NA,NA,NA,NA,NA,NA,NA,NA,11,0,11,0,1
SUPAMT37840,3WQ3B2KGEEFFAJIBCWX3OL79PEY1BW,15759615-E998-4A4B-A59C-599F824CAC43,2023-09-26_09h43.48.000,WP_VExplicitOC_LH,2022.2.5,Win32,13.1788769,59.89583333,3.7414,2.0162,NA,NA,NA,NA,NA,frustrated,"frustrated, not frustrated","more frustrated, less frustrated",NA,NA,NA,NA,NA,NA,NA,NA,NA,NA,NA,NA,NA,NA,NA,NA,NA,NA,NA,NA,NA,NA,NA,NA,NA,NA,NA,NA,NA,NA,NA,NA,NA,NA,NA,NA,NA,NA,0,0,0,1,1,NA,NA,NA,NA,NA
SUPAMT37840,3WQ3B2KGEEFFAJIBCWX3OL79PEY1BW,15759615-E998-4A4B-A59C-599F824CAC43,2023-09-26_09h43.48.000,WP_VExplicitOC_LH,2022.2.5,Win32,13.1788769,64.32291667,3.1359,2.0289,NA,NA,NA,NA,NA,happy,"unhappy, happy","less happy, more happy",NA,NA,NA,NA,NA,NA,NA,NA,NA,NA,NA,NA,NA,NA,NA,NA,NA,NA,NA,NA,NA,NA,NA,NA,NA,NA,NA,NA,NA,NA,NA,NA,NA,NA,NA,NA,NA,NA,0,1,1,0,1,NA,NA,NA,NA,NA
SUPAMT37840,3WQ3B2KGEEFFAJIBCWX3OL79PEY1BW,15759615-E998-4A4B-A59C-599F824CAC43,2023-09-26_09h43.48.000,WP_VExplicitOC_LH,2022.2.5,Win32,13.1788769,53.38541667,3.0362,2.0393,NA,NA,NA,NA,NA,bored,"bored, not bored","more bored, less bored",NA,NA,NA,NA,NA,NA,NA,NA,NA,NA,NA,NA,NA,NA,NA,NA,NA,NA,NA,NA,NA,NA,NA,NA,NA,NA,NA,NA,NA,NA,NA,NA,NA,NA,NA,NA,NA,NA,0,2,2,2,1,NA,NA,NA,NA,NA
SUPAMT37840,3WQ3B2KGEEFFAJIBCWX3OL79PEY1BW,15759615-E998-4A4B-A59C-599F824CAC43,2023-09-26_09h43.48.000,WP_VExplicitOC_LH,2022.2.5,Win32,13.1788769,NA,NA,NA,NA,NA,NA,NA,NA,NA,NA,NA,NA,NA,NA,NA,NA,NA,NA,NA,NA,NA,NA,NA,NA,NA,NA,NA,NA,NA,NA,NA,NA,NA,NA,NA,NA,NA,NA,NA,NA,NA,NA,NA,NA,NA,NA,NA,NA,NA,NA,NA,NA,NA,NA,12,0,12,0,1
SUPAMT37840,3WQ3B2KGEEFFAJIBCWX3OL79PEY1BW,15759615-E998-4A4B-A59C-599F824CAC43,2023-09-26_09h43.48.000,WP_VExplicitOC_LH,2022.2.5,Win32,13.1788769,60.15625,3.5871,2.0384,NA,NA,NA,NA,NA,frustrated,"frustrated, not frustrated","more frustrated, less frustrated",NA,NA,NA,NA,NA,NA,NA,NA,NA,NA,NA,NA,NA,NA,NA,NA,NA,NA,NA,NA,NA,NA,NA,NA,NA,NA,NA,NA,NA,NA,NA,NA,NA,NA,NA,NA,NA,NA,0,0,0,1,1,NA,NA,NA,NA,NA
SUPAMT37840,3WQ3B2KGEEFFAJIBCWX3OL79PEY1BW,15759615-E998-4A4B-A59C-599F824CAC43,2023-09-26_09h43.48.000,WP_VExplicitOC_LH,2022.2.5,Win32,13.1788769,58.33333333,3.3504,2.022,NA,NA,NA,NA,NA,bored,"bored, not bored","more bored, less bored",NA,NA,NA,NA,NA,NA,NA,NA,NA,NA,NA,NA,NA,NA,NA,NA,NA,NA,NA,NA,NA,NA,NA,NA,NA,NA,NA,NA,NA,NA,NA,NA,NA,NA,NA,NA,NA,NA,0,1,1,2,1,NA,NA,NA,NA,NA
SUPAMT37840,3WQ3B2KGEEFFAJIBCWX3OL79PEY1BW,15759615-E998-4A4B-A59C-599F824CAC43,2023-09-26_09h43.48.000,WP_VExplicitOC_LH,2022.2.5,Win32,13.1788769,69.53125,3.3088,2.0114,NA,NA,NA,NA,NA,happy,"unhappy, happy","less happy, more happy",NA,NA,NA,NA,NA,NA,NA,NA,NA,NA,NA,NA,NA,NA,NA,NA,NA,NA,NA,NA,NA,NA,NA,NA,NA,NA,NA,NA,NA,NA,NA,NA,NA,NA,NA,NA,NA,NA,0,2,2,0,1,NA,NA,NA,NA,NA
SUPAMT37840,3WQ3B2KGEEFFAJIBCWX3OL79PEY1BW,15759615-E998-4A4B-A59C-599F824CAC43,2023-09-26_09h43.48.000,WP_VExplicitOC_LH,2022.2.5,Win32,13.1788769,NA,NA,NA,NA,NA,NA,NA,NA,NA,NA,NA,NA,NA,NA,NA,NA,NA,NA,NA,NA,NA,NA,NA,NA,NA,NA,NA,NA,NA,NA,NA,NA,NA,NA,NA,NA,NA,NA,NA,NA,NA,NA,NA,NA,NA,NA,NA,NA,NA,NA,NA,NA,NA,NA,13,0,13,0,1
SUPAMT37840,3WQ3B2KGEEFFAJIBCWX3OL79PEY1BW,15759615-E998-4A4B-A59C-599F824CAC43,2023-09-26_09h43.48.000,WP_VExplicitOC_LH,2022.2.5,Win32,13.1788769,52.86458333,3.887,2.0385,NA,NA,NA,NA,NA,happy,"unhappy, happy","less happy, more happy",NA,NA,NA,NA,NA,NA,NA,NA,NA,NA,NA,NA,NA,NA,NA,NA,NA,NA,NA,NA,NA,NA,NA,NA,NA,NA,NA,NA,NA,NA,NA,NA,NA,NA,NA,NA,NA,NA,0,0,0,0,1,NA,NA,NA,NA,NA
SUPAMT37840,3WQ3B2KGEEFFAJIBCWX3OL79PEY1BW,15759615-E998-4A4B-A59C-599F824CAC43,2023-09-26_09h43.48.000,WP_VExplicitOC_LH,2022.2.5,Win32,13.1788769,73.95833333,4.0489,2.0464,NA,NA,NA,NA,NA,bored,"bored, not bored","more bored, less bored",NA,NA,NA,NA,NA,NA,NA,NA,NA,NA,NA,NA,NA,NA,NA,NA,NA,NA,NA,NA,NA,NA,NA,NA,NA,NA,NA,NA,NA,NA,NA,NA,NA,NA,NA,NA,NA,NA,0,1,1,2,1,NA,NA,NA,NA,NA
SUPAMT37840,3WQ3B2KGEEFFAJIBCWX3OL79PEY1BW,15759615-E998-4A4B-A59C-599F824CAC43,2023-09-26_09h43.48.000,WP_VExplicitOC_LH,2022.2.5,Win32,13.1788769,60.15625,3.9725,2.0381,NA,NA,NA,NA,NA,frustrated,"frustrated, not frustrated","more frustrated, less frustrated",NA,NA,NA,NA,NA,NA,NA,NA,NA,NA,NA,NA,NA,NA,NA,NA,NA,NA,NA,NA,NA,NA,NA,NA,NA,NA,NA,NA,NA,NA,NA,NA,NA,NA,NA,NA,NA,NA,0,2,2,1,1,NA,NA,NA,NA,NA
SUPAMT37840,3WQ3B2KGEEFFAJIBCWX3OL79PEY1BW,15759615-E998-4A4B-A59C-599F824CAC43,2023-09-26_09h43.48.000,WP_VExplicitOC_LH,2022.2.5,Win32,13.1788769,NA,NA,NA,NA,NA,NA,NA,NA,NA,NA,NA,NA,NA,NA,NA,NA,NA,NA,NA,NA,NA,NA,NA,NA,NA,NA,NA,NA,NA,NA,NA,NA,NA,NA,NA,NA,NA,NA,NA,NA,NA,NA,NA,NA,NA,NA,NA,NA,NA,NA,NA,NA,NA,NA,14,0,14,0,1
SUPAMT37840,3WQ3B2KGEEFFAJIBCWX3OL79PEY1BW,15759615-E998-4A4B-A59C-599F824CAC43,2023-09-26_09h43.48.000,WP_VExplicitOC_LH,2022.2.5,Win32,13.1788769,NA,NA,NA,NA,NA,NA,NA,NA,NA,NA,NA,NA,NA,NA,NA,NA,NA,NA,NA,NA,NA,NA,NA,NA,NA,NA,NA,NA,NA,NA,NA,NA,NA,NA,NA,NA,NA,NA,NA,NA,NA,NA,NA,NA,NA,NA,NA,NA,NA,NA,NA,NA,NA,NA,NA,NA,NA,NA,NA
