participant,session,completion,date,expName,psychopyVersion,OS,frameRate,rating_all.response,rating_all.rt,rating_all.tStart,rndRat1.thisRepN,rndRat1.thisTrialN,rndRat1.thisN,rndRat1.thisIndex,rndRat1.ran,Emo,Labs,Labs2,rating_alt.response,rating_alt.rt,AltC.thisRepN,AltC.thisTrialN,AltC.thisN,AltC.thisIndex,AltC.ran,alt_choices,pic_choices,BottomAlt_Choice,rndRat2.thisRepN,rndRat2.thisTrialN,rndRat2.thisN,rndRat2.thisIndex,rndRat2.ran,rndRat3.thisRepN,rndRat3.thisTrialN,rndRat3.thisN,rndRat3.thisIndex,rndRat3.ran,trials_FC_L.thisRepN,trials_FC_L.thisTrialN,trials_FC_L.thisN,trials_FC_L.thisIndex,trials_FC_L.ran,rating_alt_2.response,rating_alt_2.rt,AltC2.thisRepN,AltC2.thisTrialN,AltC2.thisN,AltC2.thisIndex,AltC2.ran,TopAlt_Choice,rndRat4.thisRepN,rndRat4.thisTrialN,rndRat4.thisN,rndRat4.thisIndex,rndRat4.ran,rndRat5.thisRepN,rndRat5.thisTrialN,rndRat5.thisN,rndRat5.thisIndex,rndRat5.ran,trials_FC_H.thisRepN,trials_FC_H.thisTrialN,trials_FC_H.thisN,trials_FC_H.thisIndex,trials_FC_H.ran
SUPAMT85773,3GGAI1SQE1XVGDW6JICWJX1U6S4CMY,8EE145DD-A70D-43B4-AA12-7978C0B56A81,2023-09-28_21h16.03.792,WP_VExplicitOC_LH,2022.2.5,Win32,4.571428571,NA,NA,NA,NA,NA,NA,NA,NA,NA,NA,NA,NA,NA,NA,NA,NA,NA,NA,NA,NA,NA,NA,NA,NA,NA,NA,NA,NA,NA,NA,NA,NA,NA,NA,NA,NA,NA,NA,NA,NA,NA,NA,NA,NA,NA,NA,NA,NA,NA,NA,NA,NA,NA,NA,NA,NA,NA,NA,NA
SUPAMT85773,3GGAI1SQE1XVGDW6JICWJX1U6S4CMY,8EE145DD-A70D-43B4-AA12-7978C0B56A81,2023-09-28_21h16.03.792,WP_VExplicitOC_LH,2022.2.5,Win32,4.571428571,NA,NA,NA,NA,NA,NA,NA,NA,NA,NA,NA,NA,NA,NA,NA,NA,NA,NA,NA,NA,NA,NA,NA,NA,NA,NA,NA,NA,NA,NA,NA,NA,NA,NA,NA,NA,NA,NA,NA,NA,NA,NA,NA,NA,NA,NA,NA,NA,NA,NA,NA,NA,NA,NA,NA,NA,NA,NA,NA
SUPAMT85773,3GGAI1SQE1XVGDW6JICWJX1U6S4CMY,8EE145DD-A70D-43B4-AA12-7978C0B56A81,2023-09-28_21h16.03.792,WP_VExplicitOC_LH,2022.2.5,Win32,4.571428571,NA,NA,NA,NA,NA,NA,NA,NA,NA,NA,NA,NA,NA,NA,NA,NA,NA,NA,NA,NA,NA,NA,NA,NA,NA,NA,NA,NA,NA,NA,NA,NA,NA,NA,NA,NA,NA,NA,NA,NA,NA,NA,NA,NA,NA,NA,NA,NA,NA,NA,NA,NA,NA,NA,NA,NA,NA,NA,NA
SUPAMT85773,3GGAI1SQE1XVGDW6JICWJX1U6S4CMY,8EE145DD-A70D-43B4-AA12-7978C0B56A81,2023-09-28_21h16.03.792,WP_VExplicitOC_LH,2022.2.5,Win32,4.571428571,44,5.251,2.171,0,0,0,1,1,frustrated,"frustrated, not frustrated","more frustrated, less frustrated",NA,NA,NA,NA,NA,NA,NA,NA,NA,NA,NA,NA,NA,NA,NA,NA,NA,NA,NA,NA,NA,NA,NA,NA,NA,NA,NA,NA,NA,NA,NA,NA,NA,NA,NA,NA,NA,NA,NA,NA,NA,NA,NA,NA,NA,NA,NA,NA
SUPAMT85773,3GGAI1SQE1XVGDW6JICWJX1U6S4CMY,8EE145DD-A70D-43B4-AA12-7978C0B56A81,2023-09-28_21h16.03.792,WP_VExplicitOC_LH,2022.2.5,Win32,4.571428571,55.33333333,4.581,2.099,0,1,1,2,1,bored,"bored, not bored","more bored, less bored",NA,NA,NA,NA,NA,NA,NA,NA,NA,NA,NA,NA,NA,NA,NA,NA,NA,NA,NA,NA,NA,NA,NA,NA,NA,NA,NA,NA,NA,NA,NA,NA,NA,NA,NA,NA,NA,NA,NA,NA,NA,NA,NA,NA,NA,NA,NA,NA
SUPAMT85773,3GGAI1SQE1XVGDW6JICWJX1U6S4CMY,8EE145DD-A70D-43B4-AA12-7978C0B56A81,2023-09-28_21h16.03.792,WP_VExplicitOC_LH,2022.2.5,Win32,4.571428571,56.44444444,5.633,2.108,0,2,2,0,1,happy,"unhappy, happy","less happy, more happy",NA,NA,NA,NA,NA,NA,NA,NA,NA,NA,NA,NA,NA,NA,NA,NA,NA,NA,NA,NA,NA,NA,NA,NA,NA,NA,NA,NA,NA,NA,NA,NA,NA,NA,NA,NA,NA,NA,NA,NA,NA,NA,NA,NA,NA,NA,NA,NA
SUPAMT85773,3GGAI1SQE1XVGDW6JICWJX1U6S4CMY,8EE145DD-A70D-43B4-AA12-7978C0B56A81,2023-09-28_21h16.03.792,WP_VExplicitOC_LH,2022.2.5,Win32,4.571428571,NA,NA,NA,NA,NA,NA,NA,NA,NA,NA,NA,NA,NA,NA,NA,NA,NA,NA,NA,NA,NA,NA,NA,NA,NA,NA,NA,NA,NA,NA,NA,NA,NA,NA,NA,NA,NA,NA,NA,NA,NA,NA,NA,NA,NA,NA,NA,NA,NA,NA,NA,NA,NA,NA,NA,NA,NA,NA,NA
SUPAMT85773,3GGAI1SQE1XVGDW6JICWJX1U6S4CMY,8EE145DD-A70D-43B4-AA12-7978C0B56A81,2023-09-28_21h16.03.792,WP_VExplicitOC_LH,2022.2.5,Win32,4.571428571,NA,NA,NA,NA,NA,NA,NA,NA,NA,NA,NA,NA,NA,NA,NA,NA,NA,NA,NA,NA,NA,NA,NA,NA,NA,NA,NA,NA,NA,NA,NA,NA,NA,NA,NA,NA,NA,NA,NA,NA,NA,NA,NA,NA,NA,NA,NA,NA,NA,NA,NA,NA,NA,NA,NA,NA,NA,NA,NA
SUPAMT85773,3GGAI1SQE1XVGDW6JICWJX1U6S4CMY,8EE145DD-A70D-43B4-AA12-7978C0B56A81,2023-09-28_21h16.03.792,WP_VExplicitOC_LH,2022.2.5,Win32,4.571428571,NA,NA,NA,NA,NA,NA,NA,NA,NA,NA,NA,NA,NA,NA,NA,NA,NA,NA,NA,NA,NA,NA,NA,NA,NA,NA,NA,NA,NA,NA,NA,NA,NA,NA,NA,NA,NA,NA,NA,NA,NA,NA,NA,NA,NA,NA,NA,NA,NA,NA,NA,NA,NA,NA,NA,NA,NA,NA,NA
SUPAMT85773,3GGAI1SQE1XVGDW6JICWJX1U6S4CMY,8EE145DD-A70D-43B4-AA12-7978C0B56A81,2023-09-28_21h16.03.792,WP_VExplicitOC_LH,2022.2.5,Win32,4.571428571,NA,NA,NA,NA,NA,NA,NA,NA,NA,NA,NA,NA,NA,NA,NA,NA,NA,NA,NA,NA,NA,NA,NA,NA,NA,NA,NA,NA,NA,NA,NA,NA,NA,NA,NA,NA,NA,NA,NA,NA,NA,NA,NA,NA,NA,NA,NA,NA,NA,NA,NA,NA,NA,NA,NA,NA,NA,NA,NA
SUPAMT85773,3GGAI1SQE1XVGDW6JICWJX1U6S4CMY,8EE145DD-A70D-43B4-AA12-7978C0B56A81,2023-09-28_21h16.03.792,WP_VExplicitOC_LH,2022.2.5,Win32,4.571428571,NA,NA,NA,NA,NA,NA,NA,NA,NA,NA,NA,30.88888889,6.219,0,0,0,0,1,rest (looking at a fixed cross),001.png,NA,NA,NA,NA,NA,NA,NA,NA,NA,NA,NA,NA,NA,NA,NA,NA,NA,NA,NA,NA,NA,NA,NA,NA,NA,NA,NA,NA,NA,NA,NA,NA,NA,NA,NA,NA,NA,NA,NA
SUPAMT85773,3GGAI1SQE1XVGDW6JICWJX1U6S4CMY,8EE145DD-A70D-43B4-AA12-7978C0B56A81,2023-09-28_21h16.03.792,WP_VExplicitOC_LH,2022.2.5,Win32,4.571428571,NA,NA,NA,NA,NA,NA,NA,NA,NA,NA,NA,46.44444444,3.76,0,1,1,1,1,stand up,002.png,NA,NA,NA,NA,NA,NA,NA,NA,NA,NA,NA,NA,NA,NA,NA,NA,NA,NA,NA,NA,NA,NA,NA,NA,NA,NA,NA,NA,NA,NA,NA,NA,NA,NA,NA,NA,NA,NA,NA
SUPAMT85773,3GGAI1SQE1XVGDW6JICWJX1U6S4CMY,8EE145DD-A70D-43B4-AA12-7978C0B56A81,2023-09-28_21h16.03.792,WP_VExplicitOC_LH,2022.2.5,Win32,4.571428571,NA,NA,NA,NA,NA,NA,NA,NA,NA,NA,NA,74,2.894,0,2,2,2,1,stretch,003.png,NA,NA,NA,NA,NA,NA,NA,NA,NA,NA,NA,NA,NA,NA,NA,NA,NA,NA,NA,NA,NA,NA,NA,NA,NA,NA,NA,NA,NA,NA,NA,NA,NA,NA,NA,NA,NA,NA,NA
SUPAMT85773,3GGAI1SQE1XVGDW6JICWJX1U6S4CMY,8EE145DD-A70D-43B4-AA12-7978C0B56A81,2023-09-28_21h16.03.792,WP_VExplicitOC_LH,2022.2.5,Win32,4.571428571,NA,NA,NA,NA,NA,NA,NA,NA,NA,NA,NA,78.22222222,2.768,0,3,3,3,1,make a drink,004.png,NA,NA,NA,NA,NA,NA,NA,NA,NA,NA,NA,NA,NA,NA,NA,NA,NA,NA,NA,NA,NA,NA,NA,NA,NA,NA,NA,NA,NA,NA,NA,NA,NA,NA,NA,NA,NA,NA,NA
SUPAMT85773,3GGAI1SQE1XVGDW6JICWJX1U6S4CMY,8EE145DD-A70D-43B4-AA12-7978C0B56A81,2023-09-28_21h16.03.792,WP_VExplicitOC_LH,2022.2.5,Win32,4.571428571,NA,NA,NA,NA,NA,NA,NA,NA,NA,NA,NA,78.22222222,2.039,0,4,4,4,1,scroll social media,005.png,NA,NA,NA,NA,NA,NA,NA,NA,NA,NA,NA,NA,NA,NA,NA,NA,NA,NA,NA,NA,NA,NA,NA,NA,NA,NA,NA,NA,NA,NA,NA,NA,NA,NA,NA,NA,NA,NA,NA
SUPAMT85773,3GGAI1SQE1XVGDW6JICWJX1U6S4CMY,8EE145DD-A70D-43B4-AA12-7978C0B56A81,2023-09-28_21h16.03.792,WP_VExplicitOC_LH,2022.2.5,Win32,4.571428571,NA,NA,NA,NA,NA,NA,NA,NA,NA,NA,NA,90,4.298,0,5,5,5,1,listen to music,006.png,NA,NA,NA,NA,NA,NA,NA,NA,NA,NA,NA,NA,NA,NA,NA,NA,NA,NA,NA,NA,NA,NA,NA,NA,NA,NA,NA,NA,NA,NA,NA,NA,NA,NA,NA,NA,NA,NA,NA
SUPAMT85773,3GGAI1SQE1XVGDW6JICWJX1U6S4CMY,8EE145DD-A70D-43B4-AA12-7978C0B56A81,2023-09-28_21h16.03.792,WP_VExplicitOC_LH,2022.2.5,Win32,4.571428571,NA,NA,NA,NA,NA,NA,NA,NA,NA,NA,NA,54,2.204,0,6,6,6,1,daydream,007.png,NA,NA,NA,NA,NA,NA,NA,NA,NA,NA,NA,NA,NA,NA,NA,NA,NA,NA,NA,NA,NA,NA,NA,NA,NA,NA,NA,NA,NA,NA,NA,NA,NA,NA,NA,NA,NA,NA,NA
SUPAMT85773,3GGAI1SQE1XVGDW6JICWJX1U6S4CMY,8EE145DD-A70D-43B4-AA12-7978C0B56A81,2023-09-28_21h16.03.792,WP_VExplicitOC_LH,2022.2.5,Win32,4.571428571,NA,NA,NA,NA,NA,NA,NA,NA,NA,NA,NA,NA,NA,0,7,7,7,1,watch a short animation,008.png,NA,NA,NA,NA,NA,NA,NA,NA,NA,NA,NA,NA,NA,NA,NA,NA,NA,NA,NA,NA,NA,NA,NA,NA,NA,NA,NA,NA,NA,NA,NA,NA,NA,NA,NA,NA,NA,NA,NA
SUPAMT85773,3GGAI1SQE1XVGDW6JICWJX1U6S4CMY,8EE145DD-A70D-43B4-AA12-7978C0B56A81,2023-09-28_21h16.03.792,WP_VExplicitOC_LH,2022.2.5,Win32,4.571428571,NA,NA,NA,NA,NA,NA,NA,NA,NA,NA,NA,57.55555556,6.336,0,8,8,8,1,read a novel,009.png,NA,NA,NA,NA,NA,NA,NA,NA,NA,NA,NA,NA,NA,NA,NA,NA,NA,NA,NA,NA,NA,NA,NA,NA,NA,NA,NA,NA,NA,NA,NA,NA,NA,NA,NA,NA,NA,NA,NA
SUPAMT85773,3GGAI1SQE1XVGDW6JICWJX1U6S4CMY,8EE145DD-A70D-43B4-AA12-7978C0B56A81,2023-09-28_21h16.03.792,WP_VExplicitOC_LH,2022.2.5,Win32,4.571428571,NA,NA,NA,NA,NA,NA,NA,NA,NA,NA,NA,68.66666667,2.052,0,9,9,9,1,read the news,010.png,NA,NA,NA,NA,NA,NA,NA,NA,NA,NA,NA,NA,NA,NA,NA,NA,NA,NA,NA,NA,NA,NA,NA,NA,NA,NA,NA,NA,NA,NA,NA,NA,NA,NA,NA,NA,NA,NA,NA
SUPAMT85773,3GGAI1SQE1XVGDW6JICWJX1U6S4CMY,8EE145DD-A70D-43B4-AA12-7978C0B56A81,2023-09-28_21h16.03.792,WP_VExplicitOC_LH,2022.2.5,Win32,4.571428571,NA,NA,NA,NA,NA,NA,NA,NA,NA,NA,NA,NA,NA,NA,NA,NA,NA,NA,NA,NA,NA,NA,NA,NA,NA,NA,NA,NA,NA,NA,NA,NA,NA,NA,NA,NA,NA,NA,NA,NA,NA,NA,NA,NA,NA,NA,NA,NA,NA,NA,NA,NA,NA,NA,NA,NA,NA,NA,NA
SUPAMT85773,3GGAI1SQE1XVGDW6JICWJX1U6S4CMY,8EE145DD-A70D-43B4-AA12-7978C0B56A81,2023-09-28_21h16.03.792,WP_VExplicitOC_LH,2022.2.5,Win32,4.571428571,NA,NA,NA,NA,NA,NA,NA,NA,NA,NA,NA,NA,NA,NA,NA,NA,NA,NA,NA,NA,stand up,NA,NA,NA,NA,NA,NA,NA,NA,NA,NA,NA,NA,NA,NA,NA,NA,NA,NA,NA,NA,NA,NA,NA,NA,NA,NA,NA,NA,NA,NA,NA,NA,NA,NA,NA,NA,NA,NA
SUPAMT85773,3GGAI1SQE1XVGDW6JICWJX1U6S4CMY,8EE145DD-A70D-43B4-AA12-7978C0B56A81,2023-09-28_21h16.03.792,WP_VExplicitOC_LH,2022.2.5,Win32,4.571428571,64.66666667,3.765,2.089,NA,NA,NA,NA,NA,happy,"unhappy, happy","less happy, more happy",NA,NA,NA,NA,NA,NA,NA,NA,NA,NA,0,0,0,0,1,NA,NA,NA,NA,NA,NA,NA,NA,NA,NA,NA,NA,NA,NA,NA,NA,NA,NA,NA,NA,NA,NA,NA,NA,NA,NA,NA,NA,NA,NA,NA,NA,NA
SUPAMT85773,3GGAI1SQE1XVGDW6JICWJX1U6S4CMY,8EE145DD-A70D-43B4-AA12-7978C0B56A81,2023-09-28_21h16.03.792,WP_VExplicitOC_LH,2022.2.5,Win32,4.571428571,68.22222222,4.367,2.177,NA,NA,NA,NA,NA,frustrated,"frustrated, not frustrated","more frustrated, less frustrated",NA,NA,NA,NA,NA,NA,NA,NA,NA,NA,0,1,1,1,1,NA,NA,NA,NA,NA,NA,NA,NA,NA,NA,NA,NA,NA,NA,NA,NA,NA,NA,NA,NA,NA,NA,NA,NA,NA,NA,NA,NA,NA,NA,NA,NA,NA
SUPAMT85773,3GGAI1SQE1XVGDW6JICWJX1U6S4CMY,8EE145DD-A70D-43B4-AA12-7978C0B56A81,2023-09-28_21h16.03.792,WP_VExplicitOC_LH,2022.2.5,Win32,4.571428571,NA,NA,2.018,NA,NA,NA,NA,NA,bored,"bored, not bored","more bored, less bored",NA,NA,NA,NA,NA,NA,NA,NA,NA,NA,0,2,2,2,1,NA,NA,NA,NA,NA,NA,NA,NA,NA,NA,NA,NA,NA,NA,NA,NA,NA,NA,NA,NA,NA,NA,NA,NA,NA,NA,NA,NA,NA,NA,NA,NA,NA
SUPAMT85773,3GGAI1SQE1XVGDW6JICWJX1U6S4CMY,8EE145DD-A70D-43B4-AA12-7978C0B56A81,2023-09-28_21h16.03.792,WP_VExplicitOC_LH,2022.2.5,Win32,4.571428571,NA,NA,NA,NA,NA,NA,NA,NA,NA,NA,NA,NA,NA,NA,NA,NA,NA,NA,NA,NA,NA,NA,NA,NA,NA,NA,NA,NA,NA,NA,NA,NA,NA,NA,NA,NA,NA,NA,NA,NA,NA,NA,NA,NA,NA,NA,NA,NA,NA,NA,NA,NA,NA,NA,NA,NA,NA,NA,NA
SUPAMT85773,3GGAI1SQE1XVGDW6JICWJX1U6S4CMY,8EE145DD-A70D-43B4-AA12-7978C0B56A81,2023-09-28_21h16.03.792,WP_VExplicitOC_LH,2022.2.5,Win32,4.571428571,NA,NA,NA,NA,NA,NA,NA,NA,NA,NA,NA,NA,NA,NA,NA,NA,NA,NA,NA,NA,NA,NA,NA,NA,NA,NA,NA,NA,NA,NA,NA,NA,NA,NA,NA,NA,NA,NA,NA,NA,NA,NA,NA,NA,NA,NA,NA,NA,NA,NA,NA,NA,NA,NA,NA,NA,NA,NA,NA
SUPAMT85773,3GGAI1SQE1XVGDW6JICWJX1U6S4CMY,8EE145DD-A70D-43B4-AA12-7978C0B56A81,2023-09-28_21h16.03.792,WP_VExplicitOC_LH,2022.2.5,Win32,4.571428571,75.11111111,4.564,2.084,NA,NA,NA,NA,NA,happy,"unhappy, happy","less happy, more happy",NA,NA,NA,NA,NA,NA,NA,NA,NA,NA,NA,NA,NA,NA,NA,0,0,0,0,1,NA,NA,NA,NA,NA,NA,NA,NA,NA,NA,NA,NA,NA,NA,NA,NA,NA,NA,NA,NA,NA,NA,NA,NA,NA,NA,NA,NA
SUPAMT85773,3GGAI1SQE1XVGDW6JICWJX1U6S4CMY,8EE145DD-A70D-43B4-AA12-7978C0B56A81,2023-09-28_21h16.03.792,WP_VExplicitOC_LH,2022.2.5,Win32,4.571428571,NA,NA,2.021,NA,NA,NA,NA,NA,bored,"bored, not bored","more bored, less bored",NA,NA,NA,NA,NA,NA,NA,NA,NA,NA,NA,NA,NA,NA,NA,0,1,1,2,1,NA,NA,NA,NA,NA,NA,NA,NA,NA,NA,NA,NA,NA,NA,NA,NA,NA,NA,NA,NA,NA,NA,NA,NA,NA,NA,NA,NA
SUPAMT85773,3GGAI1SQE1XVGDW6JICWJX1U6S4CMY,8EE145DD-A70D-43B4-AA12-7978C0B56A81,2023-09-28_21h16.03.792,WP_VExplicitOC_LH,2022.2.5,Win32,4.571428571,48.66666667,4.673,2.115,NA,NA,NA,NA,NA,frustrated,"frustrated, not frustrated","more frustrated, less frustrated",NA,NA,NA,NA,NA,NA,NA,NA,NA,NA,NA,NA,NA,NA,NA,0,2,2,1,1,NA,NA,NA,NA,NA,NA,NA,NA,NA,NA,NA,NA,NA,NA,NA,NA,NA,NA,NA,NA,NA,NA,NA,NA,NA,NA,NA,NA
SUPAMT85773,3GGAI1SQE1XVGDW6JICWJX1U6S4CMY,8EE145DD-A70D-43B4-AA12-7978C0B56A81,2023-09-28_21h16.03.792,WP_VExplicitOC_LH,2022.2.5,Win32,4.571428571,NA,NA,NA,NA,NA,NA,NA,NA,NA,NA,NA,NA,NA,NA,NA,NA,NA,NA,NA,NA,NA,NA,NA,NA,NA,NA,NA,NA,NA,NA,NA,0,0,0,0,1,NA,NA,NA,NA,NA,NA,NA,NA,NA,NA,NA,NA,NA,NA,NA,NA,NA,NA,NA,NA,NA,NA,NA
SUPAMT85773,3GGAI1SQE1XVGDW6JICWJX1U6S4CMY,8EE145DD-A70D-43B4-AA12-7978C0B56A81,2023-09-28_21h16.03.792,WP_VExplicitOC_LH,2022.2.5,Win32,4.571428571,35.55555556,4.92,2.046,NA,NA,NA,NA,NA,bored,"bored, not bored","more bored, less bored",NA,NA,NA,NA,NA,NA,NA,NA,NA,NA,NA,NA,NA,NA,NA,0,0,0,2,1,NA,NA,NA,NA,NA,NA,NA,NA,NA,NA,NA,NA,NA,NA,NA,NA,NA,NA,NA,NA,NA,NA,NA,NA,NA,NA,NA,NA
SUPAMT85773,3GGAI1SQE1XVGDW6JICWJX1U6S4CMY,8EE145DD-A70D-43B4-AA12-7978C0B56A81,2023-09-28_21h16.03.792,WP_VExplicitOC_LH,2022.2.5,Win32,4.571428571,71.11111111,4.312,2.136,NA,NA,NA,NA,NA,happy,"unhappy, happy","less happy, more happy",NA,NA,NA,NA,NA,NA,NA,NA,NA,NA,NA,NA,NA,NA,NA,0,1,1,0,1,NA,NA,NA,NA,NA,NA,NA,NA,NA,NA,NA,NA,NA,NA,NA,NA,NA,NA,NA,NA,NA,NA,NA,NA,NA,NA,NA,NA
SUPAMT85773,3GGAI1SQE1XVGDW6JICWJX1U6S4CMY,8EE145DD-A70D-43B4-AA12-7978C0B56A81,2023-09-28_21h16.03.792,WP_VExplicitOC_LH,2022.2.5,Win32,4.571428571,36.22222222,5.657,2.099,NA,NA,NA,NA,NA,frustrated,"frustrated, not frustrated","more frustrated, less frustrated",NA,NA,NA,NA,NA,NA,NA,NA,NA,NA,NA,NA,NA,NA,NA,0,2,2,1,1,NA,NA,NA,NA,NA,NA,NA,NA,NA,NA,NA,NA,NA,NA,NA,NA,NA,NA,NA,NA,NA,NA,NA,NA,NA,NA,NA,NA
SUPAMT85773,3GGAI1SQE1XVGDW6JICWJX1U6S4CMY,8EE145DD-A70D-43B4-AA12-7978C0B56A81,2023-09-28_21h16.03.792,WP_VExplicitOC_LH,2022.2.5,Win32,4.571428571,NA,NA,NA,NA,NA,NA,NA,NA,NA,NA,NA,NA,NA,NA,NA,NA,NA,NA,NA,NA,NA,NA,NA,NA,NA,NA,NA,NA,NA,NA,NA,1,0,1,0,1,NA,NA,NA,NA,NA,NA,NA,NA,NA,NA,NA,NA,NA,NA,NA,NA,NA,NA,NA,NA,NA,NA,NA
SUPAMT85773,3GGAI1SQE1XVGDW6JICWJX1U6S4CMY,8EE145DD-A70D-43B4-AA12-7978C0B56A81,2023-09-28_21h16.03.792,WP_VExplicitOC_LH,2022.2.5,Win32,4.571428571,49.33333333,4.149,2.073,NA,NA,NA,NA,NA,frustrated,"frustrated, not frustrated","more frustrated, less frustrated",NA,NA,NA,NA,NA,NA,NA,NA,NA,NA,NA,NA,NA,NA,NA,0,0,0,1,1,NA,NA,NA,NA,NA,NA,NA,NA,NA,NA,NA,NA,NA,NA,NA,NA,NA,NA,NA,NA,NA,NA,NA,NA,NA,NA,NA,NA
SUPAMT85773,3GGAI1SQE1XVGDW6JICWJX1U6S4CMY,8EE145DD-A70D-43B4-AA12-7978C0B56A81,2023-09-28_21h16.03.792,WP_VExplicitOC_LH,2022.2.5,Win32,4.571428571,70.66666667,3.804,2.091,NA,NA,NA,NA,NA,happy,"unhappy, happy","less happy, more happy",NA,NA,NA,NA,NA,NA,NA,NA,NA,NA,NA,NA,NA,NA,NA,0,1,1,0,1,NA,NA,NA,NA,NA,NA,NA,NA,NA,NA,NA,NA,NA,NA,NA,NA,NA,NA,NA,NA,NA,NA,NA,NA,NA,NA,NA,NA
SUPAMT85773,3GGAI1SQE1XVGDW6JICWJX1U6S4CMY,8EE145DD-A70D-43B4-AA12-7978C0B56A81,2023-09-28_21h16.03.792,WP_VExplicitOC_LH,2022.2.5,Win32,4.571428571,26.66666667,5.602,2.086,NA,NA,NA,NA,NA,bored,"bored, not bored","more bored, less bored",NA,NA,NA,NA,NA,NA,NA,NA,NA,NA,NA,NA,NA,NA,NA,0,2,2,2,1,NA,NA,NA,NA,NA,NA,NA,NA,NA,NA,NA,NA,NA,NA,NA,NA,NA,NA,NA,NA,NA,NA,NA,NA,NA,NA,NA,NA
SUPAMT85773,3GGAI1SQE1XVGDW6JICWJX1U6S4CMY,8EE145DD-A70D-43B4-AA12-7978C0B56A81,2023-09-28_21h16.03.792,WP_VExplicitOC_LH,2022.2.5,Win32,4.571428571,NA,NA,NA,NA,NA,NA,NA,NA,NA,NA,NA,NA,NA,NA,NA,NA,NA,NA,NA,NA,NA,NA,NA,NA,NA,NA,NA,NA,NA,NA,NA,2,0,2,0,1,NA,NA,NA,NA,NA,NA,NA,NA,NA,NA,NA,NA,NA,NA,NA,NA,NA,NA,NA,NA,NA,NA,NA
SUPAMT85773,3GGAI1SQE1XVGDW6JICWJX1U6S4CMY,8EE145DD-A70D-43B4-AA12-7978C0B56A81,2023-09-28_21h16.03.792,WP_VExplicitOC_LH,2022.2.5,Win32,4.571428571,51.11111111,4.242,2.073,NA,NA,NA,NA,NA,happy,"unhappy, happy","less happy, more happy",NA,NA,NA,NA,NA,NA,NA,NA,NA,NA,NA,NA,NA,NA,NA,0,0,0,0,1,NA,NA,NA,NA,NA,NA,NA,NA,NA,NA,NA,NA,NA,NA,NA,NA,NA,NA,NA,NA,NA,NA,NA,NA,NA,NA,NA,NA
SUPAMT85773,3GGAI1SQE1XVGDW6JICWJX1U6S4CMY,8EE145DD-A70D-43B4-AA12-7978C0B56A81,2023-09-28_21h16.03.792,WP_VExplicitOC_LH,2022.2.5,Win32,4.571428571,30.88888889,4.092,2.125,NA,NA,NA,NA,NA,bored,"bored, not bored","more bored, less bored",NA,NA,NA,NA,NA,NA,NA,NA,NA,NA,NA,NA,NA,NA,NA,0,1,1,2,1,NA,NA,NA,NA,NA,NA,NA,NA,NA,NA,NA,NA,NA,NA,NA,NA,NA,NA,NA,NA,NA,NA,NA,NA,NA,NA,NA,NA
SUPAMT85773,3GGAI1SQE1XVGDW6JICWJX1U6S4CMY,8EE145DD-A70D-43B4-AA12-7978C0B56A81,2023-09-28_21h16.03.792,WP_VExplicitOC_LH,2022.2.5,Win32,4.571428571,-32.88888889,4.612,2.074,NA,NA,NA,NA,NA,frustrated,"frustrated, not frustrated","more frustrated, less frustrated",NA,NA,NA,NA,NA,NA,NA,NA,NA,NA,NA,NA,NA,NA,NA,0,2,2,1,1,NA,NA,NA,NA,NA,NA,NA,NA,NA,NA,NA,NA,NA,NA,NA,NA,NA,NA,NA,NA,NA,NA,NA,NA,NA,NA,NA,NA
SUPAMT85773,3GGAI1SQE1XVGDW6JICWJX1U6S4CMY,8EE145DD-A70D-43B4-AA12-7978C0B56A81,2023-09-28_21h16.03.792,WP_VExplicitOC_LH,2022.2.5,Win32,4.571428571,NA,NA,NA,NA,NA,NA,NA,NA,NA,NA,NA,NA,NA,NA,NA,NA,NA,NA,NA,NA,NA,NA,NA,NA,NA,NA,NA,NA,NA,NA,NA,3,0,3,0,1,NA,NA,NA,NA,NA,NA,NA,NA,NA,NA,NA,NA,NA,NA,NA,NA,NA,NA,NA,NA,NA,NA,NA
SUPAMT85773,3GGAI1SQE1XVGDW6JICWJX1U6S4CMY,8EE145DD-A70D-43B4-AA12-7978C0B56A81,2023-09-28_21h16.03.792,WP_VExplicitOC_LH,2022.2.5,Win32,4.571428571,-18.66666667,6.722,2.112,NA,NA,NA,NA,NA,bored,"bored, not bored","more bored, less bored",NA,NA,NA,NA,NA,NA,NA,NA,NA,NA,NA,NA,NA,NA,NA,0,0,0,2,1,NA,NA,NA,NA,NA,NA,NA,NA,NA,NA,NA,NA,NA,NA,NA,NA,NA,NA,NA,NA,NA,NA,NA,NA,NA,NA,NA,NA
SUPAMT85773,3GGAI1SQE1XVGDW6JICWJX1U6S4CMY,8EE145DD-A70D-43B4-AA12-7978C0B56A81,2023-09-28_21h16.03.792,WP_VExplicitOC_LH,2022.2.5,Win32,4.571428571,-38.22222222,3.666,2.161,NA,NA,NA,NA,NA,frustrated,"frustrated, not frustrated","more frustrated, less frustrated",NA,NA,NA,NA,NA,NA,NA,NA,NA,NA,NA,NA,NA,NA,NA,0,1,1,1,1,NA,NA,NA,NA,NA,NA,NA,NA,NA,NA,NA,NA,NA,NA,NA,NA,NA,NA,NA,NA,NA,NA,NA,NA,NA,NA,NA,NA
SUPAMT85773,3GGAI1SQE1XVGDW6JICWJX1U6S4CMY,8EE145DD-A70D-43B4-AA12-7978C0B56A81,2023-09-28_21h16.03.792,WP_VExplicitOC_LH,2022.2.5,Win32,4.571428571,16,5.887,2.066,NA,NA,NA,NA,NA,happy,"unhappy, happy","less happy, more happy",NA,NA,NA,NA,NA,NA,NA,NA,NA,NA,NA,NA,NA,NA,NA,0,2,2,0,1,NA,NA,NA,NA,NA,NA,NA,NA,NA,NA,NA,NA,NA,NA,NA,NA,NA,NA,NA,NA,NA,NA,NA,NA,NA,NA,NA,NA
SUPAMT85773,3GGAI1SQE1XVGDW6JICWJX1U6S4CMY,8EE145DD-A70D-43B4-AA12-7978C0B56A81,2023-09-28_21h16.03.792,WP_VExplicitOC_LH,2022.2.5,Win32,4.571428571,NA,NA,NA,NA,NA,NA,NA,NA,NA,NA,NA,NA,NA,NA,NA,NA,NA,NA,NA,NA,NA,NA,NA,NA,NA,NA,NA,NA,NA,NA,NA,4,0,4,0,1,NA,NA,NA,NA,NA,NA,NA,NA,NA,NA,NA,NA,NA,NA,NA,NA,NA,NA,NA,NA,NA,NA,NA
SUPAMT85773,3GGAI1SQE1XVGDW6JICWJX1U6S4CMY,8EE145DD-A70D-43B4-AA12-7978C0B56A81,2023-09-28_21h16.03.792,WP_VExplicitOC_LH,2022.2.5,Win32,4.571428571,-21.77777778,7.06,2.117,NA,NA,NA,NA,NA,bored,"bored, not bored","more bored, less bored",NA,NA,NA,NA,NA,NA,NA,NA,NA,NA,NA,NA,NA,NA,NA,0,0,0,2,1,NA,NA,NA,NA,NA,NA,NA,NA,NA,NA,NA,NA,NA,NA,NA,NA,NA,NA,NA,NA,NA,NA,NA,NA,NA,NA,NA,NA
SUPAMT85773,3GGAI1SQE1XVGDW6JICWJX1U6S4CMY,8EE145DD-A70D-43B4-AA12-7978C0B56A81,2023-09-28_21h16.03.792,WP_VExplicitOC_LH,2022.2.5,Win32,4.571428571,-23.77777778,5.186,2.14,NA,NA,NA,NA,NA,happy,"unhappy, happy","less happy, more happy",NA,NA,NA,NA,NA,NA,NA,NA,NA,NA,NA,NA,NA,NA,NA,0,1,1,0,1,NA,NA,NA,NA,NA,NA,NA,NA,NA,NA,NA,NA,NA,NA,NA,NA,NA,NA,NA,NA,NA,NA,NA,NA,NA,NA,NA,NA
SUPAMT85773,3GGAI1SQE1XVGDW6JICWJX1U6S4CMY,8EE145DD-A70D-43B4-AA12-7978C0B56A81,2023-09-28_21h16.03.792,WP_VExplicitOC_LH,2022.2.5,Win32,4.571428571,14.22222222,4.956,2.065,NA,NA,NA,NA,NA,frustrated,"frustrated, not frustrated","more frustrated, less frustrated",NA,NA,NA,NA,NA,NA,NA,NA,NA,NA,NA,NA,NA,NA,NA,0,2,2,1,1,NA,NA,NA,NA,NA,NA,NA,NA,NA,NA,NA,NA,NA,NA,NA,NA,NA,NA,NA,NA,NA,NA,NA,NA,NA,NA,NA,NA
SUPAMT85773,3GGAI1SQE1XVGDW6JICWJX1U6S4CMY,8EE145DD-A70D-43B4-AA12-7978C0B56A81,2023-09-28_21h16.03.792,WP_VExplicitOC_LH,2022.2.5,Win32,4.571428571,NA,NA,NA,NA,NA,NA,NA,NA,NA,NA,NA,NA,NA,NA,NA,NA,NA,NA,NA,NA,NA,NA,NA,NA,NA,NA,NA,NA,NA,NA,NA,5,0,5,0,1,NA,NA,NA,NA,NA,NA,NA,NA,NA,NA,NA,NA,NA,NA,NA,NA,NA,NA,NA,NA,NA,NA,NA
SUPAMT85773,3GGAI1SQE1XVGDW6JICWJX1U6S4CMY,8EE145DD-A70D-43B4-AA12-7978C0B56A81,2023-09-28_21h16.03.792,WP_VExplicitOC_LH,2022.2.5,Win32,4.571428571,-21.11111111,4.892,2.067,NA,NA,NA,NA,NA,bored,"bored, not bored","more bored, less bored",NA,NA,NA,NA,NA,NA,NA,NA,NA,NA,NA,NA,NA,NA,NA,0,0,0,2,1,NA,NA,NA,NA,NA,NA,NA,NA,NA,NA,NA,NA,NA,NA,NA,NA,NA,NA,NA,NA,NA,NA,NA,NA,NA,NA,NA,NA
SUPAMT85773,3GGAI1SQE1XVGDW6JICWJX1U6S4CMY,8EE145DD-A70D-43B4-AA12-7978C0B56A81,2023-09-28_21h16.03.792,WP_VExplicitOC_LH,2022.2.5,Win32,4.571428571,NA,NA,2.046,NA,NA,NA,NA,NA,happy,"unhappy, happy","less happy, more happy",NA,NA,NA,NA,NA,NA,NA,NA,NA,NA,NA,NA,NA,NA,NA,0,1,1,0,1,NA,NA,NA,NA,NA,NA,NA,NA,NA,NA,NA,NA,NA,NA,NA,NA,NA,NA,NA,NA,NA,NA,NA,NA,NA,NA,NA,NA
SUPAMT85773,3GGAI1SQE1XVGDW6JICWJX1U6S4CMY,8EE145DD-A70D-43B4-AA12-7978C0B56A81,2023-09-28_21h16.03.792,WP_VExplicitOC_LH,2022.2.5,Win32,4.571428571,37.77777778,4.667,2.127,NA,NA,NA,NA,NA,frustrated,"frustrated, not frustrated","more frustrated, less frustrated",NA,NA,NA,NA,NA,NA,NA,NA,NA,NA,NA,NA,NA,NA,NA,0,2,2,1,1,NA,NA,NA,NA,NA,NA,NA,NA,NA,NA,NA,NA,NA,NA,NA,NA,NA,NA,NA,NA,NA,NA,NA,NA,NA,NA,NA,NA
SUPAMT85773,3GGAI1SQE1XVGDW6JICWJX1U6S4CMY,8EE145DD-A70D-43B4-AA12-7978C0B56A81,2023-09-28_21h16.03.792,WP_VExplicitOC_LH,2022.2.5,Win32,4.571428571,NA,NA,NA,NA,NA,NA,NA,NA,NA,NA,NA,NA,NA,NA,NA,NA,NA,NA,NA,NA,NA,NA,NA,NA,NA,NA,NA,NA,NA,NA,NA,6,0,6,0,1,NA,NA,NA,NA,NA,NA,NA,NA,NA,NA,NA,NA,NA,NA,NA,NA,NA,NA,NA,NA,NA,NA,NA
SUPAMT85773,3GGAI1SQE1XVGDW6JICWJX1U6S4CMY,8EE145DD-A70D-43B4-AA12-7978C0B56A81,2023-09-28_21h16.03.792,WP_VExplicitOC_LH,2022.2.5,Win32,4.571428571,-18.66666667,5.752,2.177,NA,NA,NA,NA,NA,bored,"bored, not bored","more bored, less bored",NA,NA,NA,NA,NA,NA,NA,NA,NA,NA,NA,NA,NA,NA,NA,0,0,0,2,1,NA,NA,NA,NA,NA,NA,NA,NA,NA,NA,NA,NA,NA,NA,NA,NA,NA,NA,NA,NA,NA,NA,NA,NA,NA,NA,NA,NA
SUPAMT85773,3GGAI1SQE1XVGDW6JICWJX1U6S4CMY,8EE145DD-A70D-43B4-AA12-7978C0B56A81,2023-09-28_21h16.03.792,WP_VExplicitOC_LH,2022.2.5,Win32,4.571428571,NA,NA,2.03,NA,NA,NA,NA,NA,frustrated,"frustrated, not frustrated","more frustrated, less frustrated",NA,NA,NA,NA,NA,NA,NA,NA,NA,NA,NA,NA,NA,NA,NA,0,1,1,1,1,NA,NA,NA,NA,NA,NA,NA,NA,NA,NA,NA,NA,NA,NA,NA,NA,NA,NA,NA,NA,NA,NA,NA,NA,NA,NA,NA,NA
SUPAMT85773,3GGAI1SQE1XVGDW6JICWJX1U6S4CMY,8EE145DD-A70D-43B4-AA12-7978C0B56A81,2023-09-28_21h16.03.792,WP_VExplicitOC_LH,2022.2.5,Win32,4.571428571,39.77777778,4.591,2.021,NA,NA,NA,NA,NA,happy,"unhappy, happy","less happy, more happy",NA,NA,NA,NA,NA,NA,NA,NA,NA,NA,NA,NA,NA,NA,NA,0,2,2,0,1,NA,NA,NA,NA,NA,NA,NA,NA,NA,NA,NA,NA,NA,NA,NA,NA,NA,NA,NA,NA,NA,NA,NA,NA,NA,NA,NA,NA
SUPAMT85773,3GGAI1SQE1XVGDW6JICWJX1U6S4CMY,8EE145DD-A70D-43B4-AA12-7978C0B56A81,2023-09-28_21h16.03.792,WP_VExplicitOC_LH,2022.2.5,Win32,4.571428571,NA,NA,NA,NA,NA,NA,NA,NA,NA,NA,NA,NA,NA,NA,NA,NA,NA,NA,NA,NA,NA,NA,NA,NA,NA,NA,NA,NA,NA,NA,NA,7,0,7,0,1,NA,NA,NA,NA,NA,NA,NA,NA,NA,NA,NA,NA,NA,NA,NA,NA,NA,NA,NA,NA,NA,NA,NA
SUPAMT85773,3GGAI1SQE1XVGDW6JICWJX1U6S4CMY,8EE145DD-A70D-43B4-AA12-7978C0B56A81,2023-09-28_21h16.03.792,WP_VExplicitOC_LH,2022.2.5,Win32,4.571428571,46.88888889,4.485,2.118,NA,NA,NA,NA,NA,frustrated,"frustrated, not frustrated","more frustrated, less frustrated",NA,NA,NA,NA,NA,NA,NA,NA,NA,NA,NA,NA,NA,NA,NA,0,0,0,1,1,NA,NA,NA,NA,NA,NA,NA,NA,NA,NA,NA,NA,NA,NA,NA,NA,NA,NA,NA,NA,NA,NA,NA,NA,NA,NA,NA,NA
SUPAMT85773,3GGAI1SQE1XVGDW6JICWJX1U6S4CMY,8EE145DD-A70D-43B4-AA12-7978C0B56A81,2023-09-28_21h16.03.792,WP_VExplicitOC_LH,2022.2.5,Win32,4.571428571,46.22222222,4.733,2.045,NA,NA,NA,NA,NA,happy,"unhappy, happy","less happy, more happy",NA,NA,NA,NA,NA,NA,NA,NA,NA,NA,NA,NA,NA,NA,NA,0,1,1,0,1,NA,NA,NA,NA,NA,NA,NA,NA,NA,NA,NA,NA,NA,NA,NA,NA,NA,NA,NA,NA,NA,NA,NA,NA,NA,NA,NA,NA
SUPAMT85773,3GGAI1SQE1XVGDW6JICWJX1U6S4CMY,8EE145DD-A70D-43B4-AA12-7978C0B56A81,2023-09-28_21h16.03.792,WP_VExplicitOC_LH,2022.2.5,Win32,4.571428571,-27.33333333,4.698,2.096,NA,NA,NA,NA,NA,bored,"bored, not bored","more bored, less bored",NA,NA,NA,NA,NA,NA,NA,NA,NA,NA,NA,NA,NA,NA,NA,0,2,2,2,1,NA,NA,NA,NA,NA,NA,NA,NA,NA,NA,NA,NA,NA,NA,NA,NA,NA,NA,NA,NA,NA,NA,NA,NA,NA,NA,NA,NA
SUPAMT85773,3GGAI1SQE1XVGDW6JICWJX1U6S4CMY,8EE145DD-A70D-43B4-AA12-7978C0B56A81,2023-09-28_21h16.03.792,WP_VExplicitOC_LH,2022.2.5,Win32,4.571428571,NA,NA,NA,NA,NA,NA,NA,NA,NA,NA,NA,NA,NA,NA,NA,NA,NA,NA,NA,NA,NA,NA,NA,NA,NA,NA,NA,NA,NA,NA,NA,8,0,8,0,1,NA,NA,NA,NA,NA,NA,NA,NA,NA,NA,NA,NA,NA,NA,NA,NA,NA,NA,NA,NA,NA,NA,NA
SUPAMT85773,3GGAI1SQE1XVGDW6JICWJX1U6S4CMY,8EE145DD-A70D-43B4-AA12-7978C0B56A81,2023-09-28_21h16.03.792,WP_VExplicitOC_LH,2022.2.5,Win32,4.571428571,32.66666667,4.13,2.139,NA,NA,NA,NA,NA,happy,"unhappy, happy","less happy, more happy",NA,NA,NA,NA,NA,NA,NA,NA,NA,NA,NA,NA,NA,NA,NA,0,0,0,0,1,NA,NA,NA,NA,NA,NA,NA,NA,NA,NA,NA,NA,NA,NA,NA,NA,NA,NA,NA,NA,NA,NA,NA,NA,NA,NA,NA,NA
SUPAMT85773,3GGAI1SQE1XVGDW6JICWJX1U6S4CMY,8EE145DD-A70D-43B4-AA12-7978C0B56A81,2023-09-28_21h16.03.792,WP_VExplicitOC_LH,2022.2.5,Win32,4.571428571,68.44444444,5.169,2.083,NA,NA,NA,NA,NA,bored,"bored, not bored","more bored, less bored",NA,NA,NA,NA,NA,NA,NA,NA,NA,NA,NA,NA,NA,NA,NA,0,1,1,2,1,NA,NA,NA,NA,NA,NA,NA,NA,NA,NA,NA,NA,NA,NA,NA,NA,NA,NA,NA,NA,NA,NA,NA,NA,NA,NA,NA,NA
SUPAMT85773,3GGAI1SQE1XVGDW6JICWJX1U6S4CMY,8EE145DD-A70D-43B4-AA12-7978C0B56A81,2023-09-28_21h16.03.792,WP_VExplicitOC_LH,2022.2.5,Win32,4.571428571,-19.33333333,3.995,2.066,NA,NA,NA,NA,NA,frustrated,"frustrated, not frustrated","more frustrated, less frustrated",NA,NA,NA,NA,NA,NA,NA,NA,NA,NA,NA,NA,NA,NA,NA,0,2,2,1,1,NA,NA,NA,NA,NA,NA,NA,NA,NA,NA,NA,NA,NA,NA,NA,NA,NA,NA,NA,NA,NA,NA,NA,NA,NA,NA,NA,NA
SUPAMT85773,3GGAI1SQE1XVGDW6JICWJX1U6S4CMY,8EE145DD-A70D-43B4-AA12-7978C0B56A81,2023-09-28_21h16.03.792,WP_VExplicitOC_LH,2022.2.5,Win32,4.571428571,NA,NA,NA,NA,NA,NA,NA,NA,NA,NA,NA,NA,NA,NA,NA,NA,NA,NA,NA,NA,NA,NA,NA,NA,NA,NA,NA,NA,NA,NA,NA,9,0,9,0,1,NA,NA,NA,NA,NA,NA,NA,NA,NA,NA,NA,NA,NA,NA,NA,NA,NA,NA,NA,NA,NA,NA,NA
SUPAMT85773,3GGAI1SQE1XVGDW6JICWJX1U6S4CMY,8EE145DD-A70D-43B4-AA12-7978C0B56A81,2023-09-28_21h16.03.792,WP_VExplicitOC_LH,2022.2.5,Win32,4.571428571,-32,4.358,2.121,NA,NA,NA,NA,NA,frustrated,"frustrated, not frustrated","more frustrated, less frustrated",NA,NA,NA,NA,NA,NA,NA,NA,NA,NA,NA,NA,NA,NA,NA,0,0,0,1,1,NA,NA,NA,NA,NA,NA,NA,NA,NA,NA,NA,NA,NA,NA,NA,NA,NA,NA,NA,NA,NA,NA,NA,NA,NA,NA,NA,NA
SUPAMT85773,3GGAI1SQE1XVGDW6JICWJX1U6S4CMY,8EE145DD-A70D-43B4-AA12-7978C0B56A81,2023-09-28_21h16.03.792,WP_VExplicitOC_LH,2022.2.5,Win32,4.571428571,40.22222222,6.714,2.04,NA,NA,NA,NA,NA,bored,"bored, not bored","more bored, less bored",NA,NA,NA,NA,NA,NA,NA,NA,NA,NA,NA,NA,NA,NA,NA,0,1,1,2,1,NA,NA,NA,NA,NA,NA,NA,NA,NA,NA,NA,NA,NA,NA,NA,NA,NA,NA,NA,NA,NA,NA,NA,NA,NA,NA,NA,NA
SUPAMT85773,3GGAI1SQE1XVGDW6JICWJX1U6S4CMY,8EE145DD-A70D-43B4-AA12-7978C0B56A81,2023-09-28_21h16.03.792,WP_VExplicitOC_LH,2022.2.5,Win32,4.571428571,78.44444444,4.234,2.129,NA,NA,NA,NA,NA,happy,"unhappy, happy","less happy, more happy",NA,NA,NA,NA,NA,NA,NA,NA,NA,NA,NA,NA,NA,NA,NA,0,2,2,0,1,NA,NA,NA,NA,NA,NA,NA,NA,NA,NA,NA,NA,NA,NA,NA,NA,NA,NA,NA,NA,NA,NA,NA,NA,NA,NA,NA,NA
SUPAMT85773,3GGAI1SQE1XVGDW6JICWJX1U6S4CMY,8EE145DD-A70D-43B4-AA12-7978C0B56A81,2023-09-28_21h16.03.792,WP_VExplicitOC_LH,2022.2.5,Win32,4.571428571,NA,NA,NA,NA,NA,NA,NA,NA,NA,NA,NA,NA,NA,NA,NA,NA,NA,NA,NA,NA,NA,NA,NA,NA,NA,NA,NA,NA,NA,NA,NA,10,0,10,0,1,NA,NA,NA,NA,NA,NA,NA,NA,NA,NA,NA,NA,NA,NA,NA,NA,NA,NA,NA,NA,NA,NA,NA
SUPAMT85773,3GGAI1SQE1XVGDW6JICWJX1U6S4CMY,8EE145DD-A70D-43B4-AA12-7978C0B56A81,2023-09-28_21h16.03.792,WP_VExplicitOC_LH,2022.2.5,Win32,4.571428571,-23.33333333,5.533,2.123,NA,NA,NA,NA,NA,frustrated,"frustrated, not frustrated","more frustrated, less frustrated",NA,NA,NA,NA,NA,NA,NA,NA,NA,NA,NA,NA,NA,NA,NA,0,0,0,1,1,NA,NA,NA,NA,NA,NA,NA,NA,NA,NA,NA,NA,NA,NA,NA,NA,NA,NA,NA,NA,NA,NA,NA,NA,NA,NA,NA,NA
SUPAMT85773,3GGAI1SQE1XVGDW6JICWJX1U6S4CMY,8EE145DD-A70D-43B4-AA12-7978C0B56A81,2023-09-28_21h16.03.792,WP_VExplicitOC_LH,2022.2.5,Win32,4.571428571,58,5.086,2.097,NA,NA,NA,NA,NA,bored,"bored, not bored","more bored, less bored",NA,NA,NA,NA,NA,NA,NA,NA,NA,NA,NA,NA,NA,NA,NA,0,1,1,2,1,NA,NA,NA,NA,NA,NA,NA,NA,NA,NA,NA,NA,NA,NA,NA,NA,NA,NA,NA,NA,NA,NA,NA,NA,NA,NA,NA,NA
SUPAMT85773,3GGAI1SQE1XVGDW6JICWJX1U6S4CMY,8EE145DD-A70D-43B4-AA12-7978C0B56A81,2023-09-28_21h16.03.792,WP_VExplicitOC_LH,2022.2.5,Win32,4.571428571,48.44444444,4.406,2.129,NA,NA,NA,NA,NA,happy,"unhappy, happy","less happy, more happy",NA,NA,NA,NA,NA,NA,NA,NA,NA,NA,NA,NA,NA,NA,NA,0,2,2,0,1,NA,NA,NA,NA,NA,NA,NA,NA,NA,NA,NA,NA,NA,NA,NA,NA,NA,NA,NA,NA,NA,NA,NA,NA,NA,NA,NA,NA
SUPAMT85773,3GGAI1SQE1XVGDW6JICWJX1U6S4CMY,8EE145DD-A70D-43B4-AA12-7978C0B56A81,2023-09-28_21h16.03.792,WP_VExplicitOC_LH,2022.2.5,Win32,4.571428571,NA,NA,NA,NA,NA,NA,NA,NA,NA,NA,NA,NA,NA,NA,NA,NA,NA,NA,NA,NA,NA,NA,NA,NA,NA,NA,NA,NA,NA,NA,NA,11,0,11,0,1,NA,NA,NA,NA,NA,NA,NA,NA,NA,NA,NA,NA,NA,NA,NA,NA,NA,NA,NA,NA,NA,NA,NA
SUPAMT85773,3GGAI1SQE1XVGDW6JICWJX1U6S4CMY,8EE145DD-A70D-43B4-AA12-7978C0B56A81,2023-09-28_21h16.03.792,WP_VExplicitOC_LH,2022.2.5,Win32,4.571428571,81.11111111,4.084,2.184,NA,NA,NA,NA,NA,happy,"unhappy, happy","less happy, more happy",NA,NA,NA,NA,NA,NA,NA,NA,NA,NA,NA,NA,NA,NA,NA,0,0,0,0,1,NA,NA,NA,NA,NA,NA,NA,NA,NA,NA,NA,NA,NA,NA,NA,NA,NA,NA,NA,NA,NA,NA,NA,NA,NA,NA,NA,NA
SUPAMT85773,3GGAI1SQE1XVGDW6JICWJX1U6S4CMY,8EE145DD-A70D-43B4-AA12-7978C0B56A81,2023-09-28_21h16.03.792,WP_VExplicitOC_LH,2022.2.5,Win32,4.571428571,47.11111111,4.291,2.093,NA,NA,NA,NA,NA,frustrated,"frustrated, not frustrated","more frustrated, less frustrated",NA,NA,NA,NA,NA,NA,NA,NA,NA,NA,NA,NA,NA,NA,NA,0,1,1,1,1,NA,NA,NA,NA,NA,NA,NA,NA,NA,NA,NA,NA,NA,NA,NA,NA,NA,NA,NA,NA,NA,NA,NA,NA,NA,NA,NA,NA
SUPAMT85773,3GGAI1SQE1XVGDW6JICWJX1U6S4CMY,8EE145DD-A70D-43B4-AA12-7978C0B56A81,2023-09-28_21h16.03.792,WP_VExplicitOC_LH,2022.2.5,Win32,4.571428571,-29.11111111,3.847,2.12,NA,NA,NA,NA,NA,bored,"bored, not bored","more bored, less bored",NA,NA,NA,NA,NA,NA,NA,NA,NA,NA,NA,NA,NA,NA,NA,0,2,2,2,1,NA,NA,NA,NA,NA,NA,NA,NA,NA,NA,NA,NA,NA,NA,NA,NA,NA,NA,NA,NA,NA,NA,NA,NA,NA,NA,NA,NA
SUPAMT85773,3GGAI1SQE1XVGDW6JICWJX1U6S4CMY,8EE145DD-A70D-43B4-AA12-7978C0B56A81,2023-09-28_21h16.03.792,WP_VExplicitOC_LH,2022.2.5,Win32,4.571428571,NA,NA,NA,NA,NA,NA,NA,NA,NA,NA,NA,NA,NA,NA,NA,NA,NA,NA,NA,NA,NA,NA,NA,NA,NA,NA,NA,NA,NA,NA,NA,12,0,12,0,1,NA,NA,NA,NA,NA,NA,NA,NA,NA,NA,NA,NA,NA,NA,NA,NA,NA,NA,NA,NA,NA,NA,NA
SUPAMT85773,3GGAI1SQE1XVGDW6JICWJX1U6S4CMY,8EE145DD-A70D-43B4-AA12-7978C0B56A81,2023-09-28_21h16.03.792,WP_VExplicitOC_LH,2022.2.5,Win32,4.571428571,51.55555556,5.079,2.088,NA,NA,NA,NA,NA,happy,"unhappy, happy","less happy, more happy",NA,NA,NA,NA,NA,NA,NA,NA,NA,NA,NA,NA,NA,NA,NA,0,0,0,0,1,NA,NA,NA,NA,NA,NA,NA,NA,NA,NA,NA,NA,NA,NA,NA,NA,NA,NA,NA,NA,NA,NA,NA,NA,NA,NA,NA,NA
SUPAMT85773,3GGAI1SQE1XVGDW6JICWJX1U6S4CMY,8EE145DD-A70D-43B4-AA12-7978C0B56A81,2023-09-28_21h16.03.792,WP_VExplicitOC_LH,2022.2.5,Win32,4.571428571,50.44444444,4.791,2.075,NA,NA,NA,NA,NA,bored,"bored, not bored","more bored, less bored",NA,NA,NA,NA,NA,NA,NA,NA,NA,NA,NA,NA,NA,NA,NA,0,1,1,2,1,NA,NA,NA,NA,NA,NA,NA,NA,NA,NA,NA,NA,NA,NA,NA,NA,NA,NA,NA,NA,NA,NA,NA,NA,NA,NA,NA,NA
SUPAMT85773,3GGAI1SQE1XVGDW6JICWJX1U6S4CMY,8EE145DD-A70D-43B4-AA12-7978C0B56A81,2023-09-28_21h16.03.792,WP_VExplicitOC_LH,2022.2.5,Win32,4.571428571,-21.55555556,4.963,2.184,NA,NA,NA,NA,NA,frustrated,"frustrated, not frustrated","more frustrated, less frustrated",NA,NA,NA,NA,NA,NA,NA,NA,NA,NA,NA,NA,NA,NA,NA,0,2,2,1,1,NA,NA,NA,NA,NA,NA,NA,NA,NA,NA,NA,NA,NA,NA,NA,NA,NA,NA,NA,NA,NA,NA,NA,NA,NA,NA,NA,NA
SUPAMT85773,3GGAI1SQE1XVGDW6JICWJX1U6S4CMY,8EE145DD-A70D-43B4-AA12-7978C0B56A81,2023-09-28_21h16.03.792,WP_VExplicitOC_LH,2022.2.5,Win32,4.571428571,NA,NA,NA,NA,NA,NA,NA,NA,NA,NA,NA,NA,NA,NA,NA,NA,NA,NA,NA,NA,NA,NA,NA,NA,NA,NA,NA,NA,NA,NA,NA,13,0,13,0,1,NA,NA,NA,NA,NA,NA,NA,NA,NA,NA,NA,NA,NA,NA,NA,NA,NA,NA,NA,NA,NA,NA,NA
SUPAMT85773,3GGAI1SQE1XVGDW6JICWJX1U6S4CMY,8EE145DD-A70D-43B4-AA12-7978C0B56A81,2023-09-28_21h16.03.792,WP_VExplicitOC_LH,2022.2.5,Win32,4.571428571,61.33333333,3.763,2.107,NA,NA,NA,NA,NA,frustrated,"frustrated, not frustrated","more frustrated, less frustrated",NA,NA,NA,NA,NA,NA,NA,NA,NA,NA,NA,NA,NA,NA,NA,0,0,0,1,1,NA,NA,NA,NA,NA,NA,NA,NA,NA,NA,NA,NA,NA,NA,NA,NA,NA,NA,NA,NA,NA,NA,NA,NA,NA,NA,NA,NA
SUPAMT85773,3GGAI1SQE1XVGDW6JICWJX1U6S4CMY,8EE145DD-A70D-43B4-AA12-7978C0B56A81,2023-09-28_21h16.03.792,WP_VExplicitOC_LH,2022.2.5,Win32,4.571428571,36.66666667,4.038,2.009,NA,NA,NA,NA,NA,bored,"bored, not bored","more bored, less bored",NA,NA,NA,NA,NA,NA,NA,NA,NA,NA,NA,NA,NA,NA,NA,0,1,1,2,1,NA,NA,NA,NA,NA,NA,NA,NA,NA,NA,NA,NA,NA,NA,NA,NA,NA,NA,NA,NA,NA,NA,NA,NA,NA,NA,NA,NA
SUPAMT85773,3GGAI1SQE1XVGDW6JICWJX1U6S4CMY,8EE145DD-A70D-43B4-AA12-7978C0B56A81,2023-09-28_21h16.03.792,WP_VExplicitOC_LH,2022.2.5,Win32,4.571428571,80.22222222,4.362,2.073,NA,NA,NA,NA,NA,happy,"unhappy, happy","less happy, more happy",NA,NA,NA,NA,NA,NA,NA,NA,NA,NA,NA,NA,NA,NA,NA,0,2,2,0,1,NA,NA,NA,NA,NA,NA,NA,NA,NA,NA,NA,NA,NA,NA,NA,NA,NA,NA,NA,NA,NA,NA,NA,NA,NA,NA,NA,NA
SUPAMT85773,3GGAI1SQE1XVGDW6JICWJX1U6S4CMY,8EE145DD-A70D-43B4-AA12-7978C0B56A81,2023-09-28_21h16.03.792,WP_VExplicitOC_LH,2022.2.5,Win32,4.571428571,NA,NA,NA,NA,NA,NA,NA,NA,NA,NA,NA,NA,NA,NA,NA,NA,NA,NA,NA,NA,NA,NA,NA,NA,NA,NA,NA,NA,NA,NA,NA,14,0,14,0,1,NA,NA,NA,NA,NA,NA,NA,NA,NA,NA,NA,NA,NA,NA,NA,NA,NA,NA,NA,NA,NA,NA,NA
SUPAMT85773,3GGAI1SQE1XVGDW6JICWJX1U6S4CMY,8EE145DD-A70D-43B4-AA12-7978C0B56A81,2023-09-28_21h16.03.792,WP_VExplicitOC_LH,2022.2.5,Win32,4.571428571,NA,NA,NA,NA,NA,NA,NA,NA,NA,NA,NA,NA,NA,NA,NA,NA,NA,NA,NA,NA,NA,NA,NA,NA,NA,NA,NA,NA,NA,NA,NA,NA,NA,NA,NA,NA,NA,NA,NA,NA,NA,NA,NA,NA,NA,NA,NA,NA,NA,NA,NA,NA,NA,NA,NA,NA,NA,NA,NA
SUPAMT85773,3GGAI1SQE1XVGDW6JICWJX1U6S4CMY,8EE145DD-A70D-43B4-AA12-7978C0B56A81,2023-09-28_21h16.03.792,WP_VExplicitOC_LH,2022.2.5,Win32,4.571428571,NA,NA,NA,NA,NA,NA,NA,NA,NA,NA,NA,NA,NA,NA,NA,NA,NA,NA,NA,NA,NA,NA,NA,NA,NA,NA,NA,NA,NA,NA,NA,NA,NA,NA,NA,NA,NA,NA,NA,NA,NA,NA,NA,NA,NA,NA,NA,NA,NA,NA,NA,NA,NA,NA,NA,NA,NA,NA,NA
SUPAMT85773,3GGAI1SQE1XVGDW6JICWJX1U6S4CMY,8EE145DD-A70D-43B4-AA12-7978C0B56A81,2023-09-28_21h16.03.792,WP_VExplicitOC_LH,2022.2.5,Win32,4.571428571,NA,NA,NA,NA,NA,NA,NA,NA,NA,NA,NA,NA,NA,NA,NA,NA,NA,NA,rest (looking at a fixed cross),001.png,NA,NA,NA,NA,NA,NA,NA,NA,NA,NA,NA,NA,NA,NA,NA,NA,NA,NA,0,0,0,0,1,NA,NA,NA,NA,NA,NA,NA,NA,NA,NA,NA,NA,NA,NA,NA,NA
SUPAMT85773,3GGAI1SQE1XVGDW6JICWJX1U6S4CMY,8EE145DD-A70D-43B4-AA12-7978C0B56A81,2023-09-28_21h16.03.792,WP_VExplicitOC_LH,2022.2.5,Win32,4.571428571,NA,NA,NA,NA,NA,NA,NA,NA,NA,NA,NA,NA,NA,NA,NA,NA,NA,NA,stand up,002.png,NA,NA,NA,NA,NA,NA,NA,NA,NA,NA,NA,NA,NA,NA,NA,NA,50,1.966,0,1,1,1,1,NA,NA,NA,NA,NA,NA,NA,NA,NA,NA,NA,NA,NA,NA,NA,NA
SUPAMT85773,3GGAI1SQE1XVGDW6JICWJX1U6S4CMY,8EE145DD-A70D-43B4-AA12-7978C0B56A81,2023-09-28_21h16.03.792,WP_VExplicitOC_LH,2022.2.5,Win32,4.571428571,NA,NA,NA,NA,NA,NA,NA,NA,NA,NA,NA,NA,NA,NA,NA,NA,NA,NA,stretch,003.png,NA,NA,NA,NA,NA,NA,NA,NA,NA,NA,NA,NA,NA,NA,NA,NA,84.22222222,2.454,0,2,2,2,1,NA,NA,NA,NA,NA,NA,NA,NA,NA,NA,NA,NA,NA,NA,NA,NA
SUPAMT85773,3GGAI1SQE1XVGDW6JICWJX1U6S4CMY,8EE145DD-A70D-43B4-AA12-7978C0B56A81,2023-09-28_21h16.03.792,WP_VExplicitOC_LH,2022.2.5,Win32,4.571428571,NA,NA,NA,NA,NA,NA,NA,NA,NA,NA,NA,NA,NA,NA,NA,NA,NA,NA,make a drink,004.png,NA,NA,NA,NA,NA,NA,NA,NA,NA,NA,NA,NA,NA,NA,NA,NA,59.77777778,2.529,0,3,3,3,1,NA,NA,NA,NA,NA,NA,NA,NA,NA,NA,NA,NA,NA,NA,NA,NA
SUPAMT85773,3GGAI1SQE1XVGDW6JICWJX1U6S4CMY,8EE145DD-A70D-43B4-AA12-7978C0B56A81,2023-09-28_21h16.03.792,WP_VExplicitOC_LH,2022.2.5,Win32,4.571428571,NA,NA,NA,NA,NA,NA,NA,NA,NA,NA,NA,NA,NA,NA,NA,NA,NA,NA,scroll social media,005.png,NA,NA,NA,NA,NA,NA,NA,NA,NA,NA,NA,NA,NA,NA,NA,NA,81.77777778,3.018,0,4,4,4,1,NA,NA,NA,NA,NA,NA,NA,NA,NA,NA,NA,NA,NA,NA,NA,NA
SUPAMT85773,3GGAI1SQE1XVGDW6JICWJX1U6S4CMY,8EE145DD-A70D-43B4-AA12-7978C0B56A81,2023-09-28_21h16.03.792,WP_VExplicitOC_LH,2022.2.5,Win32,4.571428571,NA,NA,NA,NA,NA,NA,NA,NA,NA,NA,NA,NA,NA,NA,NA,NA,NA,NA,listen to music,006.png,NA,NA,NA,NA,NA,NA,NA,NA,NA,NA,NA,NA,NA,NA,NA,NA,85.77777778,1.888,0,5,5,5,1,NA,NA,NA,NA,NA,NA,NA,NA,NA,NA,NA,NA,NA,NA,NA,NA
SUPAMT85773,3GGAI1SQE1XVGDW6JICWJX1U6S4CMY,8EE145DD-A70D-43B4-AA12-7978C0B56A81,2023-09-28_21h16.03.792,WP_VExplicitOC_LH,2022.2.5,Win32,4.571428571,NA,NA,NA,NA,NA,NA,NA,NA,NA,NA,NA,NA,NA,NA,NA,NA,NA,NA,daydream,007.png,NA,NA,NA,NA,NA,NA,NA,NA,NA,NA,NA,NA,NA,NA,NA,NA,54.66666667,2.702,0,6,6,6,1,NA,NA,NA,NA,NA,NA,NA,NA,NA,NA,NA,NA,NA,NA,NA,NA
SUPAMT85773,3GGAI1SQE1XVGDW6JICWJX1U6S4CMY,8EE145DD-A70D-43B4-AA12-7978C0B56A81,2023-09-28_21h16.03.792,WP_VExplicitOC_LH,2022.2.5,Win32,4.571428571,NA,NA,NA,NA,NA,NA,NA,NA,NA,NA,NA,NA,NA,NA,NA,NA,NA,NA,watch a short animation,008.png,NA,NA,NA,NA,NA,NA,NA,NA,NA,NA,NA,NA,NA,NA,NA,NA,72,2.55,0,7,7,7,1,NA,NA,NA,NA,NA,NA,NA,NA,NA,NA,NA,NA,NA,NA,NA,NA
SUPAMT85773,3GGAI1SQE1XVGDW6JICWJX1U6S4CMY,8EE145DD-A70D-43B4-AA12-7978C0B56A81,2023-09-28_21h16.03.792,WP_VExplicitOC_LH,2022.2.5,Win32,4.571428571,NA,NA,NA,NA,NA,NA,NA,NA,NA,NA,NA,NA,NA,NA,NA,NA,NA,NA,read a novel,009.png,NA,NA,NA,NA,NA,NA,NA,NA,NA,NA,NA,NA,NA,NA,NA,NA,71.55555556,2.978,0,8,8,8,1,NA,NA,NA,NA,NA,NA,NA,NA,NA,NA,NA,NA,NA,NA,NA,NA
SUPAMT85773,3GGAI1SQE1XVGDW6JICWJX1U6S4CMY,8EE145DD-A70D-43B4-AA12-7978C0B56A81,2023-09-28_21h16.03.792,WP_VExplicitOC_LH,2022.2.5,Win32,4.571428571,NA,NA,NA,NA,NA,NA,NA,NA,NA,NA,NA,NA,NA,NA,NA,NA,NA,NA,read the news,010.png,NA,NA,NA,NA,NA,NA,NA,NA,NA,NA,NA,NA,NA,NA,NA,NA,84.44444444,2.273,0,9,9,9,1,NA,NA,NA,NA,NA,NA,NA,NA,NA,NA,NA,NA,NA,NA,NA,NA
SUPAMT85773,3GGAI1SQE1XVGDW6JICWJX1U6S4CMY,8EE145DD-A70D-43B4-AA12-7978C0B56A81,2023-09-28_21h16.03.792,WP_VExplicitOC_LH,2022.2.5,Win32,4.571428571,NA,NA,NA,NA,NA,NA,NA,NA,NA,NA,NA,NA,NA,NA,NA,NA,NA,NA,NA,NA,NA,NA,NA,NA,NA,NA,NA,NA,NA,NA,NA,NA,NA,NA,NA,NA,NA,NA,NA,NA,NA,NA,NA,scroll social media,NA,NA,NA,NA,NA,NA,NA,NA,NA,NA,NA,NA,NA,NA,NA
SUPAMT85773,3GGAI1SQE1XVGDW6JICWJX1U6S4CMY,8EE145DD-A70D-43B4-AA12-7978C0B56A81,2023-09-28_21h16.03.792,WP_VExplicitOC_LH,2022.2.5,Win32,4.571428571,49.33333333,4.516,2.1,NA,NA,NA,NA,NA,frustrated,"frustrated, not frustrated","more frustrated, less frustrated",NA,NA,NA,NA,NA,NA,NA,NA,NA,NA,NA,NA,NA,NA,NA,NA,NA,NA,NA,NA,NA,NA,NA,NA,NA,NA,NA,NA,NA,NA,NA,NA,NA,0,0,0,1,1,NA,NA,NA,NA,NA,NA,NA,NA,NA,NA
SUPAMT85773,3GGAI1SQE1XVGDW6JICWJX1U6S4CMY,8EE145DD-A70D-43B4-AA12-7978C0B56A81,2023-09-28_21h16.03.792,WP_VExplicitOC_LH,2022.2.5,Win32,4.571428571,39.77777778,5.302,2.094,NA,NA,NA,NA,NA,bored,"bored, not bored","more bored, less bored",NA,NA,NA,NA,NA,NA,NA,NA,NA,NA,NA,NA,NA,NA,NA,NA,NA,NA,NA,NA,NA,NA,NA,NA,NA,NA,NA,NA,NA,NA,NA,NA,NA,0,1,1,2,1,NA,NA,NA,NA,NA,NA,NA,NA,NA,NA
SUPAMT85773,3GGAI1SQE1XVGDW6JICWJX1U6S4CMY,8EE145DD-A70D-43B4-AA12-7978C0B56A81,2023-09-28_21h16.03.792,WP_VExplicitOC_LH,2022.2.5,Win32,4.571428571,31.77777778,3.421,2.145,NA,NA,NA,NA,NA,happy,"unhappy, happy","less happy, more happy",NA,NA,NA,NA,NA,NA,NA,NA,NA,NA,NA,NA,NA,NA,NA,NA,NA,NA,NA,NA,NA,NA,NA,NA,NA,NA,NA,NA,NA,NA,NA,NA,NA,0,2,2,0,1,NA,NA,NA,NA,NA,NA,NA,NA,NA,NA
SUPAMT85773,3GGAI1SQE1XVGDW6JICWJX1U6S4CMY,8EE145DD-A70D-43B4-AA12-7978C0B56A81,2023-09-28_21h16.03.792,WP_VExplicitOC_LH,2022.2.5,Win32,4.571428571,NA,NA,NA,NA,NA,NA,NA,NA,NA,NA,NA,NA,NA,NA,NA,NA,NA,NA,NA,NA,NA,NA,NA,NA,NA,NA,NA,NA,NA,NA,NA,NA,NA,NA,NA,NA,NA,NA,NA,NA,NA,NA,NA,NA,NA,NA,NA,NA,NA,NA,NA,NA,NA,NA,NA,NA,NA,NA,NA
SUPAMT85773,3GGAI1SQE1XVGDW6JICWJX1U6S4CMY,8EE145DD-A70D-43B4-AA12-7978C0B56A81,2023-09-28_21h16.03.792,WP_VExplicitOC_LH,2022.2.5,Win32,4.571428571,NA,NA,NA,NA,NA,NA,NA,NA,NA,NA,NA,NA,NA,NA,NA,NA,NA,NA,NA,NA,NA,NA,NA,NA,NA,NA,NA,NA,NA,NA,NA,NA,NA,NA,NA,NA,NA,NA,NA,NA,NA,NA,NA,NA,NA,NA,NA,NA,NA,NA,NA,NA,NA,NA,NA,NA,NA,NA,NA
SUPAMT85773,3GGAI1SQE1XVGDW6JICWJX1U6S4CMY,8EE145DD-A70D-43B4-AA12-7978C0B56A81,2023-09-28_21h16.03.792,WP_VExplicitOC_LH,2022.2.5,Win32,4.571428571,50,4.44,2.083,NA,NA,NA,NA,NA,bored,"bored, not bored","more bored, less bored",NA,NA,NA,NA,NA,NA,NA,NA,NA,NA,NA,NA,NA,NA,NA,NA,NA,NA,NA,NA,NA,NA,NA,NA,NA,NA,NA,NA,NA,NA,NA,NA,NA,NA,NA,NA,NA,NA,0,0,0,2,1,NA,NA,NA,NA,NA
SUPAMT85773,3GGAI1SQE1XVGDW6JICWJX1U6S4CMY,8EE145DD-A70D-43B4-AA12-7978C0B56A81,2023-09-28_21h16.03.792,WP_VExplicitOC_LH,2022.2.5,Win32,4.571428571,81.33333333,3.801,2.212,NA,NA,NA,NA,NA,happy,"unhappy, happy","less happy, more happy",NA,NA,NA,NA,NA,NA,NA,NA,NA,NA,NA,NA,NA,NA,NA,NA,NA,NA,NA,NA,NA,NA,NA,NA,NA,NA,NA,NA,NA,NA,NA,NA,NA,NA,NA,NA,NA,NA,0,1,1,0,1,NA,NA,NA,NA,NA
SUPAMT85773,3GGAI1SQE1XVGDW6JICWJX1U6S4CMY,8EE145DD-A70D-43B4-AA12-7978C0B56A81,2023-09-28_21h16.03.792,WP_VExplicitOC_LH,2022.2.5,Win32,4.571428571,28.88888889,3.8,2.192,NA,NA,NA,NA,NA,frustrated,"frustrated, not frustrated","more frustrated, less frustrated",NA,NA,NA,NA,NA,NA,NA,NA,NA,NA,NA,NA,NA,NA,NA,NA,NA,NA,NA,NA,NA,NA,NA,NA,NA,NA,NA,NA,NA,NA,NA,NA,NA,NA,NA,NA,NA,NA,0,2,2,1,1,NA,NA,NA,NA,NA
SUPAMT85773,3GGAI1SQE1XVGDW6JICWJX1U6S4CMY,8EE145DD-A70D-43B4-AA12-7978C0B56A81,2023-09-28_21h16.03.792,WP_VExplicitOC_LH,2022.2.5,Win32,4.571428571,NA,NA,NA,NA,NA,NA,NA,NA,NA,NA,NA,NA,NA,NA,NA,NA,NA,NA,NA,NA,NA,NA,NA,NA,NA,NA,NA,NA,NA,NA,NA,NA,NA,NA,NA,NA,NA,NA,NA,NA,NA,NA,NA,NA,NA,NA,NA,NA,NA,NA,NA,NA,NA,NA,0,0,0,0,1
SUPAMT85773,3GGAI1SQE1XVGDW6JICWJX1U6S4CMY,8EE145DD-A70D-43B4-AA12-7978C0B56A81,2023-09-28_21h16.03.792,WP_VExplicitOC_LH,2022.2.5,Win32,4.571428571,18.22222222,4.229,2.089,NA,NA,NA,NA,NA,frustrated,"frustrated, not frustrated","more frustrated, less frustrated",NA,NA,NA,NA,NA,NA,NA,NA,NA,NA,NA,NA,NA,NA,NA,NA,NA,NA,NA,NA,NA,NA,NA,NA,NA,NA,NA,NA,NA,NA,NA,NA,NA,NA,NA,NA,NA,NA,0,0,0,1,1,NA,NA,NA,NA,NA
SUPAMT85773,3GGAI1SQE1XVGDW6JICWJX1U6S4CMY,8EE145DD-A70D-43B4-AA12-7978C0B56A81,2023-09-28_21h16.03.792,WP_VExplicitOC_LH,2022.2.5,Win32,4.571428571,74.88888889,4.129,2.128,NA,NA,NA,NA,NA,bored,"bored, not bored","more bored, less bored",NA,NA,NA,NA,NA,NA,NA,NA,NA,NA,NA,NA,NA,NA,NA,NA,NA,NA,NA,NA,NA,NA,NA,NA,NA,NA,NA,NA,NA,NA,NA,NA,NA,NA,NA,NA,NA,NA,0,1,1,2,1,NA,NA,NA,NA,NA
SUPAMT85773,3GGAI1SQE1XVGDW6JICWJX1U6S4CMY,8EE145DD-A70D-43B4-AA12-7978C0B56A81,2023-09-28_21h16.03.792,WP_VExplicitOC_LH,2022.2.5,Win32,4.571428571,76,4.173,2.179,NA,NA,NA,NA,NA,happy,"unhappy, happy","less happy, more happy",NA,NA,NA,NA,NA,NA,NA,NA,NA,NA,NA,NA,NA,NA,NA,NA,NA,NA,NA,NA,NA,NA,NA,NA,NA,NA,NA,NA,NA,NA,NA,NA,NA,NA,NA,NA,NA,NA,0,2,2,0,1,NA,NA,NA,NA,NA
SUPAMT85773,3GGAI1SQE1XVGDW6JICWJX1U6S4CMY,8EE145DD-A70D-43B4-AA12-7978C0B56A81,2023-09-28_21h16.03.792,WP_VExplicitOC_LH,2022.2.5,Win32,4.571428571,NA,NA,NA,NA,NA,NA,NA,NA,NA,NA,NA,NA,NA,NA,NA,NA,NA,NA,NA,NA,NA,NA,NA,NA,NA,NA,NA,NA,NA,NA,NA,NA,NA,NA,NA,NA,NA,NA,NA,NA,NA,NA,NA,NA,NA,NA,NA,NA,NA,NA,NA,NA,NA,NA,1,0,1,0,1
SUPAMT85773,3GGAI1SQE1XVGDW6JICWJX1U6S4CMY,8EE145DD-A70D-43B4-AA12-7978C0B56A81,2023-09-28_21h16.03.792,WP_VExplicitOC_LH,2022.2.5,Win32,4.571428571,63.77777778,4.519,2.143,NA,NA,NA,NA,NA,frustrated,"frustrated, not frustrated","more frustrated, less frustrated",NA,NA,NA,NA,NA,NA,NA,NA,NA,NA,NA,NA,NA,NA,NA,NA,NA,NA,NA,NA,NA,NA,NA,NA,NA,NA,NA,NA,NA,NA,NA,NA,NA,NA,NA,NA,NA,NA,0,0,0,1,1,NA,NA,NA,NA,NA
SUPAMT85773,3GGAI1SQE1XVGDW6JICWJX1U6S4CMY,8EE145DD-A70D-43B4-AA12-7978C0B56A81,2023-09-28_21h16.03.792,WP_VExplicitOC_LH,2022.2.5,Win32,4.571428571,73.33333333,3.455,2.136,NA,NA,NA,NA,NA,happy,"unhappy, happy","less happy, more happy",NA,NA,NA,NA,NA,NA,NA,NA,NA,NA,NA,NA,NA,NA,NA,NA,NA,NA,NA,NA,NA,NA,NA,NA,NA,NA,NA,NA,NA,NA,NA,NA,NA,NA,NA,NA,NA,NA,0,1,1,0,1,NA,NA,NA,NA,NA
SUPAMT85773,3GGAI1SQE1XVGDW6JICWJX1U6S4CMY,8EE145DD-A70D-43B4-AA12-7978C0B56A81,2023-09-28_21h16.03.792,WP_VExplicitOC_LH,2022.2.5,Win32,4.571428571,92.88888889,5.566,2.1,NA,NA,NA,NA,NA,bored,"bored, not bored","more bored, less bored",NA,NA,NA,NA,NA,NA,NA,NA,NA,NA,NA,NA,NA,NA,NA,NA,NA,NA,NA,NA,NA,NA,NA,NA,NA,NA,NA,NA,NA,NA,NA,NA,NA,NA,NA,NA,NA,NA,0,2,2,2,1,NA,NA,NA,NA,NA
SUPAMT85773,3GGAI1SQE1XVGDW6JICWJX1U6S4CMY,8EE145DD-A70D-43B4-AA12-7978C0B56A81,2023-09-28_21h16.03.792,WP_VExplicitOC_LH,2022.2.5,Win32,4.571428571,NA,NA,NA,NA,NA,NA,NA,NA,NA,NA,NA,NA,NA,NA,NA,NA,NA,NA,NA,NA,NA,NA,NA,NA,NA,NA,NA,NA,NA,NA,NA,NA,NA,NA,NA,NA,NA,NA,NA,NA,NA,NA,NA,NA,NA,NA,NA,NA,NA,NA,NA,NA,NA,NA,2,0,2,0,1
SUPAMT85773,3GGAI1SQE1XVGDW6JICWJX1U6S4CMY,8EE145DD-A70D-43B4-AA12-7978C0B56A81,2023-09-28_21h16.03.792,WP_VExplicitOC_LH,2022.2.5,Win32,4.571428571,-18.66666667,6.262,2.172,NA,NA,NA,NA,NA,frustrated,"frustrated, not frustrated","more frustrated, less frustrated",NA,NA,NA,NA,NA,NA,NA,NA,NA,NA,NA,NA,NA,NA,NA,NA,NA,NA,NA,NA,NA,NA,NA,NA,NA,NA,NA,NA,NA,NA,NA,NA,NA,NA,NA,NA,NA,NA,0,0,0,1,1,NA,NA,NA,NA,NA
SUPAMT85773,3GGAI1SQE1XVGDW6JICWJX1U6S4CMY,8EE145DD-A70D-43B4-AA12-7978C0B56A81,2023-09-28_21h16.03.792,WP_VExplicitOC_LH,2022.2.5,Win32,4.571428571,75.77777778,4.389,2.149,NA,NA,NA,NA,NA,bored,"bored, not bored","more bored, less bored",NA,NA,NA,NA,NA,NA,NA,NA,NA,NA,NA,NA,NA,NA,NA,NA,NA,NA,NA,NA,NA,NA,NA,NA,NA,NA,NA,NA,NA,NA,NA,NA,NA,NA,NA,NA,NA,NA,0,1,1,2,1,NA,NA,NA,NA,NA
SUPAMT85773,3GGAI1SQE1XVGDW6JICWJX1U6S4CMY,8EE145DD-A70D-43B4-AA12-7978C0B56A81,2023-09-28_21h16.03.792,WP_VExplicitOC_LH,2022.2.5,Win32,4.571428571,61.55555556,4.513,2.01,NA,NA,NA,NA,NA,happy,"unhappy, happy","less happy, more happy",NA,NA,NA,NA,NA,NA,NA,NA,NA,NA,NA,NA,NA,NA,NA,NA,NA,NA,NA,NA,NA,NA,NA,NA,NA,NA,NA,NA,NA,NA,NA,NA,NA,NA,NA,NA,NA,NA,0,2,2,0,1,NA,NA,NA,NA,NA
SUPAMT85773,3GGAI1SQE1XVGDW6JICWJX1U6S4CMY,8EE145DD-A70D-43B4-AA12-7978C0B56A81,2023-09-28_21h16.03.792,WP_VExplicitOC_LH,2022.2.5,Win32,4.571428571,NA,NA,NA,NA,NA,NA,NA,NA,NA,NA,NA,NA,NA,NA,NA,NA,NA,NA,NA,NA,NA,NA,NA,NA,NA,NA,NA,NA,NA,NA,NA,NA,NA,NA,NA,NA,NA,NA,NA,NA,NA,NA,NA,NA,NA,NA,NA,NA,NA,NA,NA,NA,NA,NA,3,0,3,0,1
SUPAMT85773,3GGAI1SQE1XVGDW6JICWJX1U6S4CMY,8EE145DD-A70D-43B4-AA12-7978C0B56A81,2023-09-28_21h16.03.792,WP_VExplicitOC_LH,2022.2.5,Win32,4.571428571,35.33333333,5.948,2.156,NA,NA,NA,NA,NA,bored,"bored, not bored","more bored, less bored",NA,NA,NA,NA,NA,NA,NA,NA,NA,NA,NA,NA,NA,NA,NA,NA,NA,NA,NA,NA,NA,NA,NA,NA,NA,NA,NA,NA,NA,NA,NA,NA,NA,NA,NA,NA,NA,NA,0,0,0,2,1,NA,NA,NA,NA,NA
SUPAMT85773,3GGAI1SQE1XVGDW6JICWJX1U6S4CMY,8EE145DD-A70D-43B4-AA12-7978C0B56A81,2023-09-28_21h16.03.792,WP_VExplicitOC_LH,2022.2.5,Win32,4.571428571,41.33333333,4.427,2.21,NA,NA,NA,NA,NA,happy,"unhappy, happy","less happy, more happy",NA,NA,NA,NA,NA,NA,NA,NA,NA,NA,NA,NA,NA,NA,NA,NA,NA,NA,NA,NA,NA,NA,NA,NA,NA,NA,NA,NA,NA,NA,NA,NA,NA,NA,NA,NA,NA,NA,0,1,1,0,1,NA,NA,NA,NA,NA
SUPAMT85773,3GGAI1SQE1XVGDW6JICWJX1U6S4CMY,8EE145DD-A70D-43B4-AA12-7978C0B56A81,2023-09-28_21h16.03.792,WP_VExplicitOC_LH,2022.2.5,Win32,4.571428571,64.66666667,7.034,2.108,NA,NA,NA,NA,NA,frustrated,"frustrated, not frustrated","more frustrated, less frustrated",NA,NA,NA,NA,NA,NA,NA,NA,NA,NA,NA,NA,NA,NA,NA,NA,NA,NA,NA,NA,NA,NA,NA,NA,NA,NA,NA,NA,NA,NA,NA,NA,NA,NA,NA,NA,NA,NA,0,2,2,1,1,NA,NA,NA,NA,NA
SUPAMT85773,3GGAI1SQE1XVGDW6JICWJX1U6S4CMY,8EE145DD-A70D-43B4-AA12-7978C0B56A81,2023-09-28_21h16.03.792,WP_VExplicitOC_LH,2022.2.5,Win32,4.571428571,NA,NA,NA,NA,NA,NA,NA,NA,NA,NA,NA,NA,NA,NA,NA,NA,NA,NA,NA,NA,NA,NA,NA,NA,NA,NA,NA,NA,NA,NA,NA,NA,NA,NA,NA,NA,NA,NA,NA,NA,NA,NA,NA,NA,NA,NA,NA,NA,NA,NA,NA,NA,NA,NA,4,0,4,0,1
SUPAMT85773,3GGAI1SQE1XVGDW6JICWJX1U6S4CMY,8EE145DD-A70D-43B4-AA12-7978C0B56A81,2023-09-28_21h16.03.792,WP_VExplicitOC_LH,2022.2.5,Win32,4.571428571,34.22222222,4.263,2.198,NA,NA,NA,NA,NA,frustrated,"frustrated, not frustrated","more frustrated, less frustrated",NA,NA,NA,NA,NA,NA,NA,NA,NA,NA,NA,NA,NA,NA,NA,NA,NA,NA,NA,NA,NA,NA,NA,NA,NA,NA,NA,NA,NA,NA,NA,NA,NA,NA,NA,NA,NA,NA,0,0,0,1,1,NA,NA,NA,NA,NA
SUPAMT85773,3GGAI1SQE1XVGDW6JICWJX1U6S4CMY,8EE145DD-A70D-43B4-AA12-7978C0B56A81,2023-09-28_21h16.03.792,WP_VExplicitOC_LH,2022.2.5,Win32,4.571428571,43.77777778,5.312,2.148,NA,NA,NA,NA,NA,happy,"unhappy, happy","less happy, more happy",NA,NA,NA,NA,NA,NA,NA,NA,NA,NA,NA,NA,NA,NA,NA,NA,NA,NA,NA,NA,NA,NA,NA,NA,NA,NA,NA,NA,NA,NA,NA,NA,NA,NA,NA,NA,NA,NA,0,1,1,0,1,NA,NA,NA,NA,NA
SUPAMT85773,3GGAI1SQE1XVGDW6JICWJX1U6S4CMY,8EE145DD-A70D-43B4-AA12-7978C0B56A81,2023-09-28_21h16.03.792,WP_VExplicitOC_LH,2022.2.5,Win32,4.571428571,83.11111111,4.59,2.128,NA,NA,NA,NA,NA,bored,"bored, not bored","more bored, less bored",NA,NA,NA,NA,NA,NA,NA,NA,NA,NA,NA,NA,NA,NA,NA,NA,NA,NA,NA,NA,NA,NA,NA,NA,NA,NA,NA,NA,NA,NA,NA,NA,NA,NA,NA,NA,NA,NA,0,2,2,2,1,NA,NA,NA,NA,NA
SUPAMT85773,3GGAI1SQE1XVGDW6JICWJX1U6S4CMY,8EE145DD-A70D-43B4-AA12-7978C0B56A81,2023-09-28_21h16.03.792,WP_VExplicitOC_LH,2022.2.5,Win32,4.571428571,NA,NA,NA,NA,NA,NA,NA,NA,NA,NA,NA,NA,NA,NA,NA,NA,NA,NA,NA,NA,NA,NA,NA,NA,NA,NA,NA,NA,NA,NA,NA,NA,NA,NA,NA,NA,NA,NA,NA,NA,NA,NA,NA,NA,NA,NA,NA,NA,NA,NA,NA,NA,NA,NA,5,0,5,0,1
SUPAMT85773,3GGAI1SQE1XVGDW6JICWJX1U6S4CMY,8EE145DD-A70D-43B4-AA12-7978C0B56A81,2023-09-28_21h16.03.792,WP_VExplicitOC_LH,2022.2.5,Win32,4.571428571,NA,NA,2.177,NA,NA,NA,NA,NA,happy,"unhappy, happy","less happy, more happy",NA,NA,NA,NA,NA,NA,NA,NA,NA,NA,NA,NA,NA,NA,NA,NA,NA,NA,NA,NA,NA,NA,NA,NA,NA,NA,NA,NA,NA,NA,NA,NA,NA,NA,NA,NA,NA,NA,0,0,0,0,1,NA,NA,NA,NA,NA
SUPAMT85773,3GGAI1SQE1XVGDW6JICWJX1U6S4CMY,8EE145DD-A70D-43B4-AA12-7978C0B56A81,2023-09-28_21h16.03.792,WP_VExplicitOC_LH,2022.2.5,Win32,4.571428571,52.44444444,3.719,2.17,NA,NA,NA,NA,NA,bored,"bored, not bored","more bored, less bored",NA,NA,NA,NA,NA,NA,NA,NA,NA,NA,NA,NA,NA,NA,NA,NA,NA,NA,NA,NA,NA,NA,NA,NA,NA,NA,NA,NA,NA,NA,NA,NA,NA,NA,NA,NA,NA,NA,0,1,1,2,1,NA,NA,NA,NA,NA
SUPAMT85773,3GGAI1SQE1XVGDW6JICWJX1U6S4CMY,8EE145DD-A70D-43B4-AA12-7978C0B56A81,2023-09-28_21h16.03.792,WP_VExplicitOC_LH,2022.2.5,Win32,4.571428571,56.66666667,4.57,2.078,NA,NA,NA,NA,NA,frustrated,"frustrated, not frustrated","more frustrated, less frustrated",NA,NA,NA,NA,NA,NA,NA,NA,NA,NA,NA,NA,NA,NA,NA,NA,NA,NA,NA,NA,NA,NA,NA,NA,NA,NA,NA,NA,NA,NA,NA,NA,NA,NA,NA,NA,NA,NA,0,2,2,1,1,NA,NA,NA,NA,NA
SUPAMT85773,3GGAI1SQE1XVGDW6JICWJX1U6S4CMY,8EE145DD-A70D-43B4-AA12-7978C0B56A81,2023-09-28_21h16.03.792,WP_VExplicitOC_LH,2022.2.5,Win32,4.571428571,NA,NA,NA,NA,NA,NA,NA,NA,NA,NA,NA,NA,NA,NA,NA,NA,NA,NA,NA,NA,NA,NA,NA,NA,NA,NA,NA,NA,NA,NA,NA,NA,NA,NA,NA,NA,NA,NA,NA,NA,NA,NA,NA,NA,NA,NA,NA,NA,NA,NA,NA,NA,NA,NA,6,0,6,0,1
SUPAMT85773,3GGAI1SQE1XVGDW6JICWJX1U6S4CMY,8EE145DD-A70D-43B4-AA12-7978C0B56A81,2023-09-28_21h16.03.792,WP_VExplicitOC_LH,2022.2.5,Win32,4.571428571,70.44444444,3.973,2.057,NA,NA,NA,NA,NA,happy,"unhappy, happy","less happy, more happy",NA,NA,NA,NA,NA,NA,NA,NA,NA,NA,NA,NA,NA,NA,NA,NA,NA,NA,NA,NA,NA,NA,NA,NA,NA,NA,NA,NA,NA,NA,NA,NA,NA,NA,NA,NA,NA,NA,0,0,0,0,1,NA,NA,NA,NA,NA
SUPAMT85773,3GGAI1SQE1XVGDW6JICWJX1U6S4CMY,8EE145DD-A70D-43B4-AA12-7978C0B56A81,2023-09-28_21h16.03.792,WP_VExplicitOC_LH,2022.2.5,Win32,4.571428571,65.33333333,4.144,2.192,NA,NA,NA,NA,NA,bored,"bored, not bored","more bored, less bored",NA,NA,NA,NA,NA,NA,NA,NA,NA,NA,NA,NA,NA,NA,NA,NA,NA,NA,NA,NA,NA,NA,NA,NA,NA,NA,NA,NA,NA,NA,NA,NA,NA,NA,NA,NA,NA,NA,0,1,1,2,1,NA,NA,NA,NA,NA
SUPAMT85773,3GGAI1SQE1XVGDW6JICWJX1U6S4CMY,8EE145DD-A70D-43B4-AA12-7978C0B56A81,2023-09-28_21h16.03.792,WP_VExplicitOC_LH,2022.2.5,Win32,4.571428571,30,4.275,2.118,NA,NA,NA,NA,NA,frustrated,"frustrated, not frustrated","more frustrated, less frustrated",NA,NA,NA,NA,NA,NA,NA,NA,NA,NA,NA,NA,NA,NA,NA,NA,NA,NA,NA,NA,NA,NA,NA,NA,NA,NA,NA,NA,NA,NA,NA,NA,NA,NA,NA,NA,NA,NA,0,2,2,1,1,NA,NA,NA,NA,NA
SUPAMT85773,3GGAI1SQE1XVGDW6JICWJX1U6S4CMY,8EE145DD-A70D-43B4-AA12-7978C0B56A81,2023-09-28_21h16.03.792,WP_VExplicitOC_LH,2022.2.5,Win32,4.571428571,NA,NA,NA,NA,NA,NA,NA,NA,NA,NA,NA,NA,NA,NA,NA,NA,NA,NA,NA,NA,NA,NA,NA,NA,NA,NA,NA,NA,NA,NA,NA,NA,NA,NA,NA,NA,NA,NA,NA,NA,NA,NA,NA,NA,NA,NA,NA,NA,NA,NA,NA,NA,NA,NA,7,0,7,0,1
SUPAMT85773,3GGAI1SQE1XVGDW6JICWJX1U6S4CMY,8EE145DD-A70D-43B4-AA12-7978C0B56A81,2023-09-28_21h16.03.792,WP_VExplicitOC_LH,2022.2.5,Win32,4.571428571,43.33333333,4.249,2.12,NA,NA,NA,NA,NA,frustrated,"frustrated, not frustrated","more frustrated, less frustrated",NA,NA,NA,NA,NA,NA,NA,NA,NA,NA,NA,NA,NA,NA,NA,NA,NA,NA,NA,NA,NA,NA,NA,NA,NA,NA,NA,NA,NA,NA,NA,NA,NA,NA,NA,NA,NA,NA,0,0,0,1,1,NA,NA,NA,NA,NA
SUPAMT85773,3GGAI1SQE1XVGDW6JICWJX1U6S4CMY,8EE145DD-A70D-43B4-AA12-7978C0B56A81,2023-09-28_21h16.03.792,WP_VExplicitOC_LH,2022.2.5,Win32,4.571428571,NA,NA,2.175,NA,NA,NA,NA,NA,bored,"bored, not bored","more bored, less bored",NA,NA,NA,NA,NA,NA,NA,NA,NA,NA,NA,NA,NA,NA,NA,NA,NA,NA,NA,NA,NA,NA,NA,NA,NA,NA,NA,NA,NA,NA,NA,NA,NA,NA,NA,NA,NA,NA,0,1,1,2,1,NA,NA,NA,NA,NA
SUPAMT85773,3GGAI1SQE1XVGDW6JICWJX1U6S4CMY,8EE145DD-A70D-43B4-AA12-7978C0B56A81,2023-09-28_21h16.03.792,WP_VExplicitOC_LH,2022.2.5,Win32,4.571428571,81.55555556,4.22,2.061,NA,NA,NA,NA,NA,happy,"unhappy, happy","less happy, more happy",NA,NA,NA,NA,NA,NA,NA,NA,NA,NA,NA,NA,NA,NA,NA,NA,NA,NA,NA,NA,NA,NA,NA,NA,NA,NA,NA,NA,NA,NA,NA,NA,NA,NA,NA,NA,NA,NA,0,2,2,0,1,NA,NA,NA,NA,NA
SUPAMT85773,3GGAI1SQE1XVGDW6JICWJX1U6S4CMY,8EE145DD-A70D-43B4-AA12-7978C0B56A81,2023-09-28_21h16.03.792,WP_VExplicitOC_LH,2022.2.5,Win32,4.571428571,NA,NA,NA,NA,NA,NA,NA,NA,NA,NA,NA,NA,NA,NA,NA,NA,NA,NA,NA,NA,NA,NA,NA,NA,NA,NA,NA,NA,NA,NA,NA,NA,NA,NA,NA,NA,NA,NA,NA,NA,NA,NA,NA,NA,NA,NA,NA,NA,NA,NA,NA,NA,NA,NA,8,0,8,0,1
SUPAMT85773,3GGAI1SQE1XVGDW6JICWJX1U6S4CMY,8EE145DD-A70D-43B4-AA12-7978C0B56A81,2023-09-28_21h16.03.792,WP_VExplicitOC_LH,2022.2.5,Win32,4.571428571,78.22222222,4.273,2.225,NA,NA,NA,NA,NA,happy,"unhappy, happy","less happy, more happy",NA,NA,NA,NA,NA,NA,NA,NA,NA,NA,NA,NA,NA,NA,NA,NA,NA,NA,NA,NA,NA,NA,NA,NA,NA,NA,NA,NA,NA,NA,NA,NA,NA,NA,NA,NA,NA,NA,0,0,0,0,1,NA,NA,NA,NA,NA
SUPAMT85773,3GGAI1SQE1XVGDW6JICWJX1U6S4CMY,8EE145DD-A70D-43B4-AA12-7978C0B56A81,2023-09-28_21h16.03.792,WP_VExplicitOC_LH,2022.2.5,Win32,4.571428571,66.88888889,4.765,2.029,NA,NA,NA,NA,NA,frustrated,"frustrated, not frustrated","more frustrated, less frustrated",NA,NA,NA,NA,NA,NA,NA,NA,NA,NA,NA,NA,NA,NA,NA,NA,NA,NA,NA,NA,NA,NA,NA,NA,NA,NA,NA,NA,NA,NA,NA,NA,NA,NA,NA,NA,NA,NA,0,1,1,1,1,NA,NA,NA,NA,NA
SUPAMT85773,3GGAI1SQE1XVGDW6JICWJX1U6S4CMY,8EE145DD-A70D-43B4-AA12-7978C0B56A81,2023-09-28_21h16.03.792,WP_VExplicitOC_LH,2022.2.5,Win32,4.571428571,64.22222222,4.017,2.03,NA,NA,NA,NA,NA,bored,"bored, not bored","more bored, less bored",NA,NA,NA,NA,NA,NA,NA,NA,NA,NA,NA,NA,NA,NA,NA,NA,NA,NA,NA,NA,NA,NA,NA,NA,NA,NA,NA,NA,NA,NA,NA,NA,NA,NA,NA,NA,NA,NA,0,2,2,2,1,NA,NA,NA,NA,NA
SUPAMT85773,3GGAI1SQE1XVGDW6JICWJX1U6S4CMY,8EE145DD-A70D-43B4-AA12-7978C0B56A81,2023-09-28_21h16.03.792,WP_VExplicitOC_LH,2022.2.5,Win32,4.571428571,NA,NA,NA,NA,NA,NA,NA,NA,NA,NA,NA,NA,NA,NA,NA,NA,NA,NA,NA,NA,NA,NA,NA,NA,NA,NA,NA,NA,NA,NA,NA,NA,NA,NA,NA,NA,NA,NA,NA,NA,NA,NA,NA,NA,NA,NA,NA,NA,NA,NA,NA,NA,NA,NA,9,0,9,0,1
SUPAMT85773,3GGAI1SQE1XVGDW6JICWJX1U6S4CMY,8EE145DD-A70D-43B4-AA12-7978C0B56A81,2023-09-28_21h16.03.792,WP_VExplicitOC_LH,2022.2.5,Win32,4.571428571,64,5.384,2.18,NA,NA,NA,NA,NA,frustrated,"frustrated, not frustrated","more frustrated, less frustrated",NA,NA,NA,NA,NA,NA,NA,NA,NA,NA,NA,NA,NA,NA,NA,NA,NA,NA,NA,NA,NA,NA,NA,NA,NA,NA,NA,NA,NA,NA,NA,NA,NA,NA,NA,NA,NA,NA,0,0,0,1,1,NA,NA,NA,NA,NA
SUPAMT85773,3GGAI1SQE1XVGDW6JICWJX1U6S4CMY,8EE145DD-A70D-43B4-AA12-7978C0B56A81,2023-09-28_21h16.03.792,WP_VExplicitOC_LH,2022.2.5,Win32,4.571428571,82.44444444,4.792,2.109,NA,NA,NA,NA,NA,happy,"unhappy, happy","less happy, more happy",NA,NA,NA,NA,NA,NA,NA,NA,NA,NA,NA,NA,NA,NA,NA,NA,NA,NA,NA,NA,NA,NA,NA,NA,NA,NA,NA,NA,NA,NA,NA,NA,NA,NA,NA,NA,NA,NA,0,1,1,0,1,NA,NA,NA,NA,NA
SUPAMT85773,3GGAI1SQE1XVGDW6JICWJX1U6S4CMY,8EE145DD-A70D-43B4-AA12-7978C0B56A81,2023-09-28_21h16.03.792,WP_VExplicitOC_LH,2022.2.5,Win32,4.571428571,-20.88888889,3.744,2.143,NA,NA,NA,NA,NA,bored,"bored, not bored","more bored, less bored",NA,NA,NA,NA,NA,NA,NA,NA,NA,NA,NA,NA,NA,NA,NA,NA,NA,NA,NA,NA,NA,NA,NA,NA,NA,NA,NA,NA,NA,NA,NA,NA,NA,NA,NA,NA,NA,NA,0,2,2,2,1,NA,NA,NA,NA,NA
SUPAMT85773,3GGAI1SQE1XVGDW6JICWJX1U6S4CMY,8EE145DD-A70D-43B4-AA12-7978C0B56A81,2023-09-28_21h16.03.792,WP_VExplicitOC_LH,2022.2.5,Win32,4.571428571,NA,NA,NA,NA,NA,NA,NA,NA,NA,NA,NA,NA,NA,NA,NA,NA,NA,NA,NA,NA,NA,NA,NA,NA,NA,NA,NA,NA,NA,NA,NA,NA,NA,NA,NA,NA,NA,NA,NA,NA,NA,NA,NA,NA,NA,NA,NA,NA,NA,NA,NA,NA,NA,NA,10,0,10,0,1
SUPAMT85773,3GGAI1SQE1XVGDW6JICWJX1U6S4CMY,8EE145DD-A70D-43B4-AA12-7978C0B56A81,2023-09-28_21h16.03.792,WP_VExplicitOC_LH,2022.2.5,Win32,4.571428571,65.11111111,6.719,2.145,NA,NA,NA,NA,NA,frustrated,"frustrated, not frustrated","more frustrated, less frustrated",NA,NA,NA,NA,NA,NA,NA,NA,NA,NA,NA,NA,NA,NA,NA,NA,NA,NA,NA,NA,NA,NA,NA,NA,NA,NA,NA,NA,NA,NA,NA,NA,NA,NA,NA,NA,NA,NA,0,0,0,1,1,NA,NA,NA,NA,NA
SUPAMT85773,3GGAI1SQE1XVGDW6JICWJX1U6S4CMY,8EE145DD-A70D-43B4-AA12-7978C0B56A81,2023-09-28_21h16.03.792,WP_VExplicitOC_LH,2022.2.5,Win32,4.571428571,NA,NA,2.18,NA,NA,NA,NA,NA,happy,"unhappy, happy","less happy, more happy",NA,NA,NA,NA,NA,NA,NA,NA,NA,NA,NA,NA,NA,NA,NA,NA,NA,NA,NA,NA,NA,NA,NA,NA,NA,NA,NA,NA,NA,NA,NA,NA,NA,NA,NA,NA,NA,NA,0,1,1,0,1,NA,NA,NA,NA,NA
SUPAMT85773,3GGAI1SQE1XVGDW6JICWJX1U6S4CMY,8EE145DD-A70D-43B4-AA12-7978C0B56A81,2023-09-28_21h16.03.792,WP_VExplicitOC_LH,2022.2.5,Win32,4.571428571,71.77777778,3.598,2.08,NA,NA,NA,NA,NA,bored,"bored, not bored","more bored, less bored",NA,NA,NA,NA,NA,NA,NA,NA,NA,NA,NA,NA,NA,NA,NA,NA,NA,NA,NA,NA,NA,NA,NA,NA,NA,NA,NA,NA,NA,NA,NA,NA,NA,NA,NA,NA,NA,NA,0,2,2,2,1,NA,NA,NA,NA,NA
SUPAMT85773,3GGAI1SQE1XVGDW6JICWJX1U6S4CMY,8EE145DD-A70D-43B4-AA12-7978C0B56A81,2023-09-28_21h16.03.792,WP_VExplicitOC_LH,2022.2.5,Win32,4.571428571,NA,NA,NA,NA,NA,NA,NA,NA,NA,NA,NA,NA,NA,NA,NA,NA,NA,NA,NA,NA,NA,NA,NA,NA,NA,NA,NA,NA,NA,NA,NA,NA,NA,NA,NA,NA,NA,NA,NA,NA,NA,NA,NA,NA,NA,NA,NA,NA,NA,NA,NA,NA,NA,NA,11,0,11,0,1
SUPAMT85773,3GGAI1SQE1XVGDW6JICWJX1U6S4CMY,8EE145DD-A70D-43B4-AA12-7978C0B56A81,2023-09-28_21h16.03.792,WP_VExplicitOC_LH,2022.2.5,Win32,4.571428571,81.77777778,4.205,2.186,NA,NA,NA,NA,NA,happy,"unhappy, happy","less happy, more happy",NA,NA,NA,NA,NA,NA,NA,NA,NA,NA,NA,NA,NA,NA,NA,NA,NA,NA,NA,NA,NA,NA,NA,NA,NA,NA,NA,NA,NA,NA,NA,NA,NA,NA,NA,NA,NA,NA,0,0,0,0,1,NA,NA,NA,NA,NA
SUPAMT85773,3GGAI1SQE1XVGDW6JICWJX1U6S4CMY,8EE145DD-A70D-43B4-AA12-7978C0B56A81,2023-09-28_21h16.03.792,WP_VExplicitOC_LH,2022.2.5,Win32,4.571428571,52.66666667,4.063,2.016,NA,NA,NA,NA,NA,frustrated,"frustrated, not frustrated","more frustrated, less frustrated",NA,NA,NA,NA,NA,NA,NA,NA,NA,NA,NA,NA,NA,NA,NA,NA,NA,NA,NA,NA,NA,NA,NA,NA,NA,NA,NA,NA,NA,NA,NA,NA,NA,NA,NA,NA,NA,NA,0,1,1,1,1,NA,NA,NA,NA,NA
SUPAMT85773,3GGAI1SQE1XVGDW6JICWJX1U6S4CMY,8EE145DD-A70D-43B4-AA12-7978C0B56A81,2023-09-28_21h16.03.792,WP_VExplicitOC_LH,2022.2.5,Win32,4.571428571,65.55555556,4.27,2.065,NA,NA,NA,NA,NA,bored,"bored, not bored","more bored, less bored",NA,NA,NA,NA,NA,NA,NA,NA,NA,NA,NA,NA,NA,NA,NA,NA,NA,NA,NA,NA,NA,NA,NA,NA,NA,NA,NA,NA,NA,NA,NA,NA,NA,NA,NA,NA,NA,NA,0,2,2,2,1,NA,NA,NA,NA,NA
SUPAMT85773,3GGAI1SQE1XVGDW6JICWJX1U6S4CMY,8EE145DD-A70D-43B4-AA12-7978C0B56A81,2023-09-28_21h16.03.792,WP_VExplicitOC_LH,2022.2.5,Win32,4.571428571,NA,NA,NA,NA,NA,NA,NA,NA,NA,NA,NA,NA,NA,NA,NA,NA,NA,NA,NA,NA,NA,NA,NA,NA,NA,NA,NA,NA,NA,NA,NA,NA,NA,NA,NA,NA,NA,NA,NA,NA,NA,NA,NA,NA,NA,NA,NA,NA,NA,NA,NA,NA,NA,NA,12,0,12,0,1
SUPAMT85773,3GGAI1SQE1XVGDW6JICWJX1U6S4CMY,8EE145DD-A70D-43B4-AA12-7978C0B56A81,2023-09-28_21h16.03.792,WP_VExplicitOC_LH,2022.2.5,Win32,4.571428571,69.11111111,4.148,2.128,NA,NA,NA,NA,NA,frustrated,"frustrated, not frustrated","more frustrated, less frustrated",NA,NA,NA,NA,NA,NA,NA,NA,NA,NA,NA,NA,NA,NA,NA,NA,NA,NA,NA,NA,NA,NA,NA,NA,NA,NA,NA,NA,NA,NA,NA,NA,NA,NA,NA,NA,NA,NA,0,0,0,1,1,NA,NA,NA,NA,NA
SUPAMT85773,3GGAI1SQE1XVGDW6JICWJX1U6S4CMY,8EE145DD-A70D-43B4-AA12-7978C0B56A81,2023-09-28_21h16.03.792,WP_VExplicitOC_LH,2022.2.5,Win32,4.571428571,56.44444444,4.375,2.257,NA,NA,NA,NA,NA,happy,"unhappy, happy","less happy, more happy",NA,NA,NA,NA,NA,NA,NA,NA,NA,NA,NA,NA,NA,NA,NA,NA,NA,NA,NA,NA,NA,NA,NA,NA,NA,NA,NA,NA,NA,NA,NA,NA,NA,NA,NA,NA,NA,NA,0,1,1,0,1,NA,NA,NA,NA,NA
SUPAMT85773,3GGAI1SQE1XVGDW6JICWJX1U6S4CMY,8EE145DD-A70D-43B4-AA12-7978C0B56A81,2023-09-28_21h16.03.792,WP_VExplicitOC_LH,2022.2.5,Win32,4.571428571,74.88888889,3.868,2.127,NA,NA,NA,NA,NA,bored,"bored, not bored","more bored, less bored",NA,NA,NA,NA,NA,NA,NA,NA,NA,NA,NA,NA,NA,NA,NA,NA,NA,NA,NA,NA,NA,NA,NA,NA,NA,NA,NA,NA,NA,NA,NA,NA,NA,NA,NA,NA,NA,NA,0,2,2,2,1,NA,NA,NA,NA,NA
SUPAMT85773,3GGAI1SQE1XVGDW6JICWJX1U6S4CMY,8EE145DD-A70D-43B4-AA12-7978C0B56A81,2023-09-28_21h16.03.792,WP_VExplicitOC_LH,2022.2.5,Win32,4.571428571,NA,NA,NA,NA,NA,NA,NA,NA,NA,NA,NA,NA,NA,NA,NA,NA,NA,NA,NA,NA,NA,NA,NA,NA,NA,NA,NA,NA,NA,NA,NA,NA,NA,NA,NA,NA,NA,NA,NA,NA,NA,NA,NA,NA,NA,NA,NA,NA,NA,NA,NA,NA,NA,NA,13,0,13,0,1
SUPAMT85773,3GGAI1SQE1XVGDW6JICWJX1U6S4CMY,8EE145DD-A70D-43B4-AA12-7978C0B56A81,2023-09-28_21h16.03.792,WP_VExplicitOC_LH,2022.2.5,Win32,4.571428571,76.66666667,5.329,2.096,NA,NA,NA,NA,NA,happy,"unhappy, happy","less happy, more happy",NA,NA,NA,NA,NA,NA,NA,NA,NA,NA,NA,NA,NA,NA,NA,NA,NA,NA,NA,NA,NA,NA,NA,NA,NA,NA,NA,NA,NA,NA,NA,NA,NA,NA,NA,NA,NA,NA,0,0,0,0,1,NA,NA,NA,NA,NA
SUPAMT85773,3GGAI1SQE1XVGDW6JICWJX1U6S4CMY,8EE145DD-A70D-43B4-AA12-7978C0B56A81,2023-09-28_21h16.03.792,WP_VExplicitOC_LH,2022.2.5,Win32,4.571428571,74,5.216,2.075,NA,NA,NA,NA,NA,bored,"bored, not bored","more bored, less bored",NA,NA,NA,NA,NA,NA,NA,NA,NA,NA,NA,NA,NA,NA,NA,NA,NA,NA,NA,NA,NA,NA,NA,NA,NA,NA,NA,NA,NA,NA,NA,NA,NA,NA,NA,NA,NA,NA,0,1,1,2,1,NA,NA,NA,NA,NA
SUPAMT85773,3GGAI1SQE1XVGDW6JICWJX1U6S4CMY,8EE145DD-A70D-43B4-AA12-7978C0B56A81,2023-09-28_21h16.03.792,WP_VExplicitOC_LH,2022.2.5,Win32,4.571428571,72.66666667,4.268,2.202,NA,NA,NA,NA,NA,frustrated,"frustrated, not frustrated","more frustrated, less frustrated",NA,NA,NA,NA,NA,NA,NA,NA,NA,NA,NA,NA,NA,NA,NA,NA,NA,NA,NA,NA,NA,NA,NA,NA,NA,NA,NA,NA,NA,NA,NA,NA,NA,NA,NA,NA,NA,NA,0,2,2,1,1,NA,NA,NA,NA,NA
SUPAMT85773,3GGAI1SQE1XVGDW6JICWJX1U6S4CMY,8EE145DD-A70D-43B4-AA12-7978C0B56A81,2023-09-28_21h16.03.792,WP_VExplicitOC_LH,2022.2.5,Win32,4.571428571,NA,NA,NA,NA,NA,NA,NA,NA,NA,NA,NA,NA,NA,NA,NA,NA,NA,NA,NA,NA,NA,NA,NA,NA,NA,NA,NA,NA,NA,NA,NA,NA,NA,NA,NA,NA,NA,NA,NA,NA,NA,NA,NA,NA,NA,NA,NA,NA,NA,NA,NA,NA,NA,NA,14,0,14,0,1
SUPAMT85773,3GGAI1SQE1XVGDW6JICWJX1U6S4CMY,8EE145DD-A70D-43B4-AA12-7978C0B56A81,2023-09-28_21h16.03.792,WP_VExplicitOC_LH,2022.2.5,Win32,4.571428571,NA,NA,NA,NA,NA,NA,NA,NA,NA,NA,NA,NA,NA,NA,NA,NA,NA,NA,NA,NA,NA,NA,NA,NA,NA,NA,NA,NA,NA,NA,NA,NA,NA,NA,NA,NA,NA,NA,NA,NA,NA,NA,NA,NA,NA,NA,NA,NA,NA,NA,NA,NA,NA,NA,NA,NA,NA,NA,NA
