participant,session,completion,date,expName,psychopyVersion,OS,frameRate,rating_all.response,rating_all.rt,rating_all.tStart,rndRat1.thisRepN,rndRat1.thisTrialN,rndRat1.thisN,rndRat1.thisIndex,rndRat1.ran,Emo,Labs,Labs2,rating_alt.response,rating_alt.rt,AltC.thisRepN,AltC.thisTrialN,AltC.thisN,AltC.thisIndex,AltC.ran,alt_choices,pic_choices,BottomAlt_Choice,rndRat2.thisRepN,rndRat2.thisTrialN,rndRat2.thisN,rndRat2.thisIndex,rndRat2.ran,rndRat3.thisRepN,rndRat3.thisTrialN,rndRat3.thisN,rndRat3.thisIndex,rndRat3.ran,trials_FC_L.thisRepN,trials_FC_L.thisTrialN,trials_FC_L.thisN,trials_FC_L.thisIndex,trials_FC_L.ran,rating_alt_2.response,rating_alt_2.rt,AltC2.thisRepN,AltC2.thisTrialN,AltC2.thisN,AltC2.thisIndex,AltC2.ran,TopAlt_Choice,rndRat4.thisRepN,rndRat4.thisTrialN,rndRat4.thisN,rndRat4.thisIndex,rndRat4.ran,rndRat5.thisRepN,rndRat5.thisTrialN,rndRat5.thisN,rndRat5.thisIndex,rndRat5.ran,trials_FC_H.thisRepN,trials_FC_H.thisTrialN,trials_FC_H.thisN,trials_FC_H.thisIndex,trials_FC_H.ran
SUPAMT82113,3KRVW3HTZTKBNUL2G42WY25CRGFSM2,E842C782-8F2F-4F20-8BC8-FEA7469431DB,2023-09-26_18h11.08.629,WP_VExplicitOC_LH,2022.2.5,Win32,15.54629687,NA,NA,NA,NA,NA,NA,NA,NA,NA,NA,NA,NA,NA,NA,NA,NA,NA,NA,NA,NA,NA,NA,NA,NA,NA,NA,NA,NA,NA,NA,NA,NA,NA,NA,NA,NA,NA,NA,NA,NA,NA,NA,NA,NA,NA,NA,NA,NA,NA,NA,NA,NA,NA,NA,NA,NA,NA,NA,NA
SUPAMT82113,3KRVW3HTZTKBNUL2G42WY25CRGFSM2,E842C782-8F2F-4F20-8BC8-FEA7469431DB,2023-09-26_18h11.08.629,WP_VExplicitOC_LH,2022.2.5,Win32,15.54629687,NA,NA,NA,NA,NA,NA,NA,NA,NA,NA,NA,NA,NA,NA,NA,NA,NA,NA,NA,NA,NA,NA,NA,NA,NA,NA,NA,NA,NA,NA,NA,NA,NA,NA,NA,NA,NA,NA,NA,NA,NA,NA,NA,NA,NA,NA,NA,NA,NA,NA,NA,NA,NA,NA,NA,NA,NA,NA,NA
SUPAMT82113,3KRVW3HTZTKBNUL2G42WY25CRGFSM2,E842C782-8F2F-4F20-8BC8-FEA7469431DB,2023-09-26_18h11.08.629,WP_VExplicitOC_LH,2022.2.5,Win32,15.54629687,NA,NA,NA,NA,NA,NA,NA,NA,NA,NA,NA,NA,NA,NA,NA,NA,NA,NA,NA,NA,NA,NA,NA,NA,NA,NA,NA,NA,NA,NA,NA,NA,NA,NA,NA,NA,NA,NA,NA,NA,NA,NA,NA,NA,NA,NA,NA,NA,NA,NA,NA,NA,NA,NA,NA,NA,NA,NA,NA
SUPAMT82113,3KRVW3HTZTKBNUL2G42WY25CRGFSM2,E842C782-8F2F-4F20-8BC8-FEA7469431DB,2023-09-26_18h11.08.629,WP_VExplicitOC_LH,2022.2.5,Win32,15.54629687,64.0625,3.6965,2.0699,0,0,0,1,1,frustrated,"frustrated, not frustrated","more frustrated, less frustrated",NA,NA,NA,NA,NA,NA,NA,NA,NA,NA,NA,NA,NA,NA,NA,NA,NA,NA,NA,NA,NA,NA,NA,NA,NA,NA,NA,NA,NA,NA,NA,NA,NA,NA,NA,NA,NA,NA,NA,NA,NA,NA,NA,NA,NA,NA,NA,NA
SUPAMT82113,3KRVW3HTZTKBNUL2G42WY25CRGFSM2,E842C782-8F2F-4F20-8BC8-FEA7469431DB,2023-09-26_18h11.08.629,WP_VExplicitOC_LH,2022.2.5,Win32,15.54629687,57.29166667,3.523,2.0736,0,1,1,2,1,bored,"bored, not bored","more bored, less bored",NA,NA,NA,NA,NA,NA,NA,NA,NA,NA,NA,NA,NA,NA,NA,NA,NA,NA,NA,NA,NA,NA,NA,NA,NA,NA,NA,NA,NA,NA,NA,NA,NA,NA,NA,NA,NA,NA,NA,NA,NA,NA,NA,NA,NA,NA,NA,NA
SUPAMT82113,3KRVW3HTZTKBNUL2G42WY25CRGFSM2,E842C782-8F2F-4F20-8BC8-FEA7469431DB,2023-09-26_18h11.08.629,WP_VExplicitOC_LH,2022.2.5,Win32,15.54629687,64.0625,4.2912,2.0003,0,2,2,0,1,happy,"unhappy, happy","less happy, more happy",NA,NA,NA,NA,NA,NA,NA,NA,NA,NA,NA,NA,NA,NA,NA,NA,NA,NA,NA,NA,NA,NA,NA,NA,NA,NA,NA,NA,NA,NA,NA,NA,NA,NA,NA,NA,NA,NA,NA,NA,NA,NA,NA,NA,NA,NA,NA,NA
SUPAMT82113,3KRVW3HTZTKBNUL2G42WY25CRGFSM2,E842C782-8F2F-4F20-8BC8-FEA7469431DB,2023-09-26_18h11.08.629,WP_VExplicitOC_LH,2022.2.5,Win32,15.54629687,NA,NA,NA,NA,NA,NA,NA,NA,NA,NA,NA,NA,NA,NA,NA,NA,NA,NA,NA,NA,NA,NA,NA,NA,NA,NA,NA,NA,NA,NA,NA,NA,NA,NA,NA,NA,NA,NA,NA,NA,NA,NA,NA,NA,NA,NA,NA,NA,NA,NA,NA,NA,NA,NA,NA,NA,NA,NA,NA
SUPAMT82113,3KRVW3HTZTKBNUL2G42WY25CRGFSM2,E842C782-8F2F-4F20-8BC8-FEA7469431DB,2023-09-26_18h11.08.629,WP_VExplicitOC_LH,2022.2.5,Win32,15.54629687,NA,NA,NA,NA,NA,NA,NA,NA,NA,NA,NA,NA,NA,NA,NA,NA,NA,NA,NA,NA,NA,NA,NA,NA,NA,NA,NA,NA,NA,NA,NA,NA,NA,NA,NA,NA,NA,NA,NA,NA,NA,NA,NA,NA,NA,NA,NA,NA,NA,NA,NA,NA,NA,NA,NA,NA,NA,NA,NA
SUPAMT82113,3KRVW3HTZTKBNUL2G42WY25CRGFSM2,E842C782-8F2F-4F20-8BC8-FEA7469431DB,2023-09-26_18h11.08.629,WP_VExplicitOC_LH,2022.2.5,Win32,15.54629687,NA,NA,NA,NA,NA,NA,NA,NA,NA,NA,NA,NA,NA,NA,NA,NA,NA,NA,NA,NA,NA,NA,NA,NA,NA,NA,NA,NA,NA,NA,NA,NA,NA,NA,NA,NA,NA,NA,NA,NA,NA,NA,NA,NA,NA,NA,NA,NA,NA,NA,NA,NA,NA,NA,NA,NA,NA,NA,NA
SUPAMT82113,3KRVW3HTZTKBNUL2G42WY25CRGFSM2,E842C782-8F2F-4F20-8BC8-FEA7469431DB,2023-09-26_18h11.08.629,WP_VExplicitOC_LH,2022.2.5,Win32,15.54629687,NA,NA,NA,NA,NA,NA,NA,NA,NA,NA,NA,NA,NA,NA,NA,NA,NA,NA,NA,NA,NA,NA,NA,NA,NA,NA,NA,NA,NA,NA,NA,NA,NA,NA,NA,NA,NA,NA,NA,NA,NA,NA,NA,NA,NA,NA,NA,NA,NA,NA,NA,NA,NA,NA,NA,NA,NA,NA,NA
SUPAMT82113,3KRVW3HTZTKBNUL2G42WY25CRGFSM2,E842C782-8F2F-4F20-8BC8-FEA7469431DB,2023-09-26_18h11.08.629,WP_VExplicitOC_LH,2022.2.5,Win32,15.54629687,NA,NA,NA,NA,NA,NA,NA,NA,NA,NA,NA,47.5060517,2.8822,0,0,0,0,1,rest (looking at a fixed cross),001.png,NA,NA,NA,NA,NA,NA,NA,NA,NA,NA,NA,NA,NA,NA,NA,NA,NA,NA,NA,NA,NA,NA,NA,NA,NA,NA,NA,NA,NA,NA,NA,NA,NA,NA,NA,NA,NA,NA,NA
SUPAMT82113,3KRVW3HTZTKBNUL2G42WY25CRGFSM2,E842C782-8F2F-4F20-8BC8-FEA7469431DB,2023-09-26_18h11.08.629,WP_VExplicitOC_LH,2022.2.5,Win32,15.54629687,NA,NA,NA,NA,NA,NA,NA,NA,NA,NA,NA,62.61617228,1.6268,0,1,1,1,1,stand up,002.png,NA,NA,NA,NA,NA,NA,NA,NA,NA,NA,NA,NA,NA,NA,NA,NA,NA,NA,NA,NA,NA,NA,NA,NA,NA,NA,NA,NA,NA,NA,NA,NA,NA,NA,NA,NA,NA,NA,NA
SUPAMT82113,3KRVW3HTZTKBNUL2G42WY25CRGFSM2,E842C782-8F2F-4F20-8BC8-FEA7469431DB,2023-09-26_18h11.08.629,WP_VExplicitOC_LH,2022.2.5,Win32,15.54629687,NA,NA,NA,NA,NA,NA,NA,NA,NA,NA,NA,52.19539404,1.3495,0,2,2,2,1,stretch,003.png,NA,NA,NA,NA,NA,NA,NA,NA,NA,NA,NA,NA,NA,NA,NA,NA,NA,NA,NA,NA,NA,NA,NA,NA,NA,NA,NA,NA,NA,NA,NA,NA,NA,NA,NA,NA,NA,NA,NA
SUPAMT82113,3KRVW3HTZTKBNUL2G42WY25CRGFSM2,E842C782-8F2F-4F20-8BC8-FEA7469431DB,2023-09-26_18h11.08.629,WP_VExplicitOC_LH,2022.2.5,Win32,15.54629687,NA,NA,NA,NA,NA,NA,NA,NA,NA,NA,NA,68.86861918,1.265,0,3,3,3,1,make a drink,004.png,NA,NA,NA,NA,NA,NA,NA,NA,NA,NA,NA,NA,NA,NA,NA,NA,NA,NA,NA,NA,NA,NA,NA,NA,NA,NA,NA,NA,NA,NA,NA,NA,NA,NA,NA,NA,NA,NA,NA
SUPAMT82113,3KRVW3HTZTKBNUL2G42WY25CRGFSM2,E842C782-8F2F-4F20-8BC8-FEA7469431DB,2023-09-26_18h11.08.629,WP_VExplicitOC_LH,2022.2.5,Win32,15.54629687,NA,NA,NA,NA,NA,NA,NA,NA,NA,NA,NA,48.02709133,1.0389,0,4,4,4,1,scroll social media,005.png,NA,NA,NA,NA,NA,NA,NA,NA,NA,NA,NA,NA,NA,NA,NA,NA,NA,NA,NA,NA,NA,NA,NA,NA,NA,NA,NA,NA,NA,NA,NA,NA,NA,NA,NA,NA,NA,NA,NA
SUPAMT82113,3KRVW3HTZTKBNUL2G42WY25CRGFSM2,E842C782-8F2F-4F20-8BC8-FEA7469431DB,2023-09-26_18h11.08.629,WP_VExplicitOC_LH,2022.2.5,Win32,15.54629687,NA,NA,NA,NA,NA,NA,NA,NA,NA,NA,NA,70.43172375,1.6342,0,5,5,5,1,listen to music,006.png,NA,NA,NA,NA,NA,NA,NA,NA,NA,NA,NA,NA,NA,NA,NA,NA,NA,NA,NA,NA,NA,NA,NA,NA,NA,NA,NA,NA,NA,NA,NA,NA,NA,NA,NA,NA,NA,NA,NA
SUPAMT82113,3KRVW3HTZTKBNUL2G42WY25CRGFSM2,E842C782-8F2F-4F20-8BC8-FEA7469431DB,2023-09-26_18h11.08.629,WP_VExplicitOC_LH,2022.2.5,Win32,15.54629687,NA,NA,NA,NA,NA,NA,NA,NA,NA,NA,NA,52.71643367,0.9897,0,6,6,6,1,daydream,007.png,NA,NA,NA,NA,NA,NA,NA,NA,NA,NA,NA,NA,NA,NA,NA,NA,NA,NA,NA,NA,NA,NA,NA,NA,NA,NA,NA,NA,NA,NA,NA,NA,NA,NA,NA,NA,NA,NA,NA
SUPAMT82113,3KRVW3HTZTKBNUL2G42WY25CRGFSM2,E842C782-8F2F-4F20-8BC8-FEA7469431DB,2023-09-26_18h11.08.629,WP_VExplicitOC_LH,2022.2.5,Win32,15.54629687,NA,NA,NA,NA,NA,NA,NA,NA,NA,NA,NA,72.25536961,1.1862,0,7,7,7,1,watch a short animation,008.png,NA,NA,NA,NA,NA,NA,NA,NA,NA,NA,NA,NA,NA,NA,NA,NA,NA,NA,NA,NA,NA,NA,NA,NA,NA,NA,NA,NA,NA,NA,NA,NA,NA,NA,NA,NA,NA,NA,NA
SUPAMT82113,3KRVW3HTZTKBNUL2G42WY25CRGFSM2,E842C782-8F2F-4F20-8BC8-FEA7469431DB,2023-09-26_18h11.08.629,WP_VExplicitOC_LH,2022.2.5,Win32,15.54629687,NA,NA,NA,NA,NA,NA,NA,NA,NA,NA,NA,39.95099857,0.8344,0,8,8,8,1,read a novel,009.png,NA,NA,NA,NA,NA,NA,NA,NA,NA,NA,NA,NA,NA,NA,NA,NA,NA,NA,NA,NA,NA,NA,NA,NA,NA,NA,NA,NA,NA,NA,NA,NA,NA,NA,NA,NA,NA,NA,NA
SUPAMT82113,3KRVW3HTZTKBNUL2G42WY25CRGFSM2,E842C782-8F2F-4F20-8BC8-FEA7469431DB,2023-09-26_18h11.08.629,WP_VExplicitOC_LH,2022.2.5,Win32,15.54629687,NA,NA,NA,NA,NA,NA,NA,NA,NA,NA,NA,57.92681563,1.1922,0,9,9,9,1,read the news,010.png,NA,NA,NA,NA,NA,NA,NA,NA,NA,NA,NA,NA,NA,NA,NA,NA,NA,NA,NA,NA,NA,NA,NA,NA,NA,NA,NA,NA,NA,NA,NA,NA,NA,NA,NA,NA,NA,NA,NA
SUPAMT82113,3KRVW3HTZTKBNUL2G42WY25CRGFSM2,E842C782-8F2F-4F20-8BC8-FEA7469431DB,2023-09-26_18h11.08.629,WP_VExplicitOC_LH,2022.2.5,Win32,15.54629687,NA,NA,NA,NA,NA,NA,NA,NA,NA,NA,NA,NA,NA,NA,NA,NA,NA,NA,NA,NA,NA,NA,NA,NA,NA,NA,NA,NA,NA,NA,NA,NA,NA,NA,NA,NA,NA,NA,NA,NA,NA,NA,NA,NA,NA,NA,NA,NA,NA,NA,NA,NA,NA,NA,NA,NA,NA,NA,NA
SUPAMT82113,3KRVW3HTZTKBNUL2G42WY25CRGFSM2,E842C782-8F2F-4F20-8BC8-FEA7469431DB,2023-09-26_18h11.08.629,WP_VExplicitOC_LH,2022.2.5,Win32,15.54629687,NA,NA,NA,NA,NA,NA,NA,NA,NA,NA,NA,NA,NA,NA,NA,NA,NA,NA,NA,NA,read a novel,NA,NA,NA,NA,NA,NA,NA,NA,NA,NA,NA,NA,NA,NA,NA,NA,NA,NA,NA,NA,NA,NA,NA,NA,NA,NA,NA,NA,NA,NA,NA,NA,NA,NA,NA,NA,NA,NA
SUPAMT82113,3KRVW3HTZTKBNUL2G42WY25CRGFSM2,E842C782-8F2F-4F20-8BC8-FEA7469431DB,2023-09-26_18h11.08.629,WP_VExplicitOC_LH,2022.2.5,Win32,15.54629687,65.48186876,4.3155,2.0524,NA,NA,NA,NA,NA,bored,"bored, not bored","more bored, less bored",NA,NA,NA,NA,NA,NA,NA,NA,NA,NA,0,0,0,2,1,NA,NA,NA,NA,NA,NA,NA,NA,NA,NA,NA,NA,NA,NA,NA,NA,NA,NA,NA,NA,NA,NA,NA,NA,NA,NA,NA,NA,NA,NA,NA,NA,NA
SUPAMT82113,3KRVW3HTZTKBNUL2G42WY25CRGFSM2,E842C782-8F2F-4F20-8BC8-FEA7469431DB,2023-09-26_18h11.08.629,WP_VExplicitOC_LH,2022.2.5,Win32,15.54629687,50.11124984,3.1687,2.0127,NA,NA,NA,NA,NA,frustrated,"frustrated, not frustrated","more frustrated, less frustrated",NA,NA,NA,NA,NA,NA,NA,NA,NA,NA,0,1,1,1,1,NA,NA,NA,NA,NA,NA,NA,NA,NA,NA,NA,NA,NA,NA,NA,NA,NA,NA,NA,NA,NA,NA,NA,NA,NA,NA,NA,NA,NA,NA,NA,NA,NA
SUPAMT82113,3KRVW3HTZTKBNUL2G42WY25CRGFSM2,E842C782-8F2F-4F20-8BC8-FEA7469431DB,2023-09-26_18h11.08.629,WP_VExplicitOC_LH,2022.2.5,Win32,15.54629687,71.73431567,3.17,2.0165,NA,NA,NA,NA,NA,happy,"unhappy, happy","less happy, more happy",NA,NA,NA,NA,NA,NA,NA,NA,NA,NA,0,2,2,0,1,NA,NA,NA,NA,NA,NA,NA,NA,NA,NA,NA,NA,NA,NA,NA,NA,NA,NA,NA,NA,NA,NA,NA,NA,NA,NA,NA,NA,NA,NA,NA,NA,NA
SUPAMT82113,3KRVW3HTZTKBNUL2G42WY25CRGFSM2,E842C782-8F2F-4F20-8BC8-FEA7469431DB,2023-09-26_18h11.08.629,WP_VExplicitOC_LH,2022.2.5,Win32,15.54629687,NA,NA,NA,NA,NA,NA,NA,NA,NA,NA,NA,NA,NA,NA,NA,NA,NA,NA,NA,NA,NA,NA,NA,NA,NA,NA,NA,NA,NA,NA,NA,NA,NA,NA,NA,NA,NA,NA,NA,NA,NA,NA,NA,NA,NA,NA,NA,NA,NA,NA,NA,NA,NA,NA,NA,NA,NA,NA,NA
SUPAMT82113,3KRVW3HTZTKBNUL2G42WY25CRGFSM2,E842C782-8F2F-4F20-8BC8-FEA7469431DB,2023-09-26_18h11.08.629,WP_VExplicitOC_LH,2022.2.5,Win32,15.54629687,NA,NA,NA,NA,NA,NA,NA,NA,NA,NA,NA,NA,NA,NA,NA,NA,NA,NA,NA,NA,NA,NA,NA,NA,NA,NA,NA,NA,NA,NA,NA,NA,NA,NA,NA,NA,NA,NA,NA,NA,NA,NA,NA,NA,NA,NA,NA,NA,NA,NA,NA,NA,NA,NA,NA,NA,NA,NA,NA
SUPAMT82113,3KRVW3HTZTKBNUL2G42WY25CRGFSM2,E842C782-8F2F-4F20-8BC8-FEA7469431DB,2023-09-26_18h11.08.629,WP_VExplicitOC_LH,2022.2.5,Win32,15.54629687,NA,NA,2.0289,NA,NA,NA,NA,NA,happy,"unhappy, happy","less happy, more happy",NA,NA,NA,NA,NA,NA,NA,NA,NA,NA,NA,NA,NA,NA,NA,0,0,0,0,1,NA,NA,NA,NA,NA,NA,NA,NA,NA,NA,NA,NA,NA,NA,NA,NA,NA,NA,NA,NA,NA,NA,NA,NA,NA,NA,NA,NA
SUPAMT82113,3KRVW3HTZTKBNUL2G42WY25CRGFSM2,E842C782-8F2F-4F20-8BC8-FEA7469431DB,2023-09-26_18h11.08.629,WP_VExplicitOC_LH,2022.2.5,Win32,15.54629687,NA,NA,2.0081,NA,NA,NA,NA,NA,frustrated,"frustrated, not frustrated","more frustrated, less frustrated",NA,NA,NA,NA,NA,NA,NA,NA,NA,NA,NA,NA,NA,NA,NA,0,1,1,1,1,NA,NA,NA,NA,NA,NA,NA,NA,NA,NA,NA,NA,NA,NA,NA,NA,NA,NA,NA,NA,NA,NA,NA,NA,NA,NA,NA,NA
SUPAMT82113,3KRVW3HTZTKBNUL2G42WY25CRGFSM2,E842C782-8F2F-4F20-8BC8-FEA7469431DB,2023-09-26_18h11.08.629,WP_VExplicitOC_LH,2022.2.5,Win32,15.54629687,50.89280213,3.6873,2.0897,NA,NA,NA,NA,NA,bored,"bored, not bored","more bored, less bored",NA,NA,NA,NA,NA,NA,NA,NA,NA,NA,NA,NA,NA,NA,NA,0,2,2,2,1,NA,NA,NA,NA,NA,NA,NA,NA,NA,NA,NA,NA,NA,NA,NA,NA,NA,NA,NA,NA,NA,NA,NA,NA,NA,NA,NA,NA
SUPAMT82113,3KRVW3HTZTKBNUL2G42WY25CRGFSM2,E842C782-8F2F-4F20-8BC8-FEA7469431DB,2023-09-26_18h11.08.629,WP_VExplicitOC_LH,2022.2.5,Win32,15.54629687,NA,NA,NA,NA,NA,NA,NA,NA,NA,NA,NA,NA,NA,NA,NA,NA,NA,NA,NA,NA,NA,NA,NA,NA,NA,NA,NA,NA,NA,NA,NA,0,0,0,0,1,NA,NA,NA,NA,NA,NA,NA,NA,NA,NA,NA,NA,NA,NA,NA,NA,NA,NA,NA,NA,NA,NA,NA
SUPAMT82113,3KRVW3HTZTKBNUL2G42WY25CRGFSM2,E842C782-8F2F-4F20-8BC8-FEA7469431DB,2023-09-26_18h11.08.629,WP_VExplicitOC_LH,2022.2.5,Win32,15.54629687,59.48993451,3.5102,2.042,NA,NA,NA,NA,NA,bored,"bored, not bored","more bored, less bored",NA,NA,NA,NA,NA,NA,NA,NA,NA,NA,NA,NA,NA,NA,NA,0,0,0,2,1,NA,NA,NA,NA,NA,NA,NA,NA,NA,NA,NA,NA,NA,NA,NA,NA,NA,NA,NA,NA,NA,NA,NA,NA,NA,NA,NA,NA
SUPAMT82113,3KRVW3HTZTKBNUL2G42WY25CRGFSM2,E842C782-8F2F-4F20-8BC8-FEA7469431DB,2023-09-26_18h11.08.629,WP_VExplicitOC_LH,2022.2.5,Win32,15.54629687,58.96889488,3.565,2.0291,NA,NA,NA,NA,NA,happy,"unhappy, happy","less happy, more happy",NA,NA,NA,NA,NA,NA,NA,NA,NA,NA,NA,NA,NA,NA,NA,0,1,1,0,1,NA,NA,NA,NA,NA,NA,NA,NA,NA,NA,NA,NA,NA,NA,NA,NA,NA,NA,NA,NA,NA,NA,NA,NA,NA,NA,NA,NA
SUPAMT82113,3KRVW3HTZTKBNUL2G42WY25CRGFSM2,E842C782-8F2F-4F20-8BC8-FEA7469431DB,2023-09-26_18h11.08.629,WP_VExplicitOC_LH,2022.2.5,Win32,15.54629687,46.46397245,3.1778,2.0756,NA,NA,NA,NA,NA,frustrated,"frustrated, not frustrated","more frustrated, less frustrated",NA,NA,NA,NA,NA,NA,NA,NA,NA,NA,NA,NA,NA,NA,NA,0,2,2,1,1,NA,NA,NA,NA,NA,NA,NA,NA,NA,NA,NA,NA,NA,NA,NA,NA,NA,NA,NA,NA,NA,NA,NA,NA,NA,NA,NA,NA
SUPAMT82113,3KRVW3HTZTKBNUL2G42WY25CRGFSM2,E842C782-8F2F-4F20-8BC8-FEA7469431DB,2023-09-26_18h11.08.629,WP_VExplicitOC_LH,2022.2.5,Win32,15.54629687,NA,NA,NA,NA,NA,NA,NA,NA,NA,NA,NA,NA,NA,NA,NA,NA,NA,NA,NA,NA,NA,NA,NA,NA,NA,NA,NA,NA,NA,NA,NA,1,0,1,0,1,NA,NA,NA,NA,NA,NA,NA,NA,NA,NA,NA,NA,NA,NA,NA,NA,NA,NA,NA,NA,NA,NA,NA
SUPAMT82113,3KRVW3HTZTKBNUL2G42WY25CRGFSM2,E842C782-8F2F-4F20-8BC8-FEA7469431DB,2023-09-26_18h11.08.629,WP_VExplicitOC_LH,2022.2.5,Win32,15.54629687,47.5060517,3.7441,2.0725,NA,NA,NA,NA,NA,frustrated,"frustrated, not frustrated","more frustrated, less frustrated",NA,NA,NA,NA,NA,NA,NA,NA,NA,NA,NA,NA,NA,NA,NA,0,0,0,1,1,NA,NA,NA,NA,NA,NA,NA,NA,NA,NA,NA,NA,NA,NA,NA,NA,NA,NA,NA,NA,NA,NA,NA,NA,NA,NA,NA,NA
SUPAMT82113,3KRVW3HTZTKBNUL2G42WY25CRGFSM2,E842C782-8F2F-4F20-8BC8-FEA7469431DB,2023-09-26_18h11.08.629,WP_VExplicitOC_LH,2022.2.5,Win32,15.54629687,NA,NA,2.036,NA,NA,NA,NA,NA,happy,"unhappy, happy","less happy, more happy",NA,NA,NA,NA,NA,NA,NA,NA,NA,NA,NA,NA,NA,NA,NA,0,1,1,0,1,NA,NA,NA,NA,NA,NA,NA,NA,NA,NA,NA,NA,NA,NA,NA,NA,NA,NA,NA,NA,NA,NA,NA,NA,NA,NA,NA,NA
SUPAMT82113,3KRVW3HTZTKBNUL2G42WY25CRGFSM2,E842C782-8F2F-4F20-8BC8-FEA7469431DB,2023-09-26_18h11.08.629,WP_VExplicitOC_LH,2022.2.5,Win32,15.54629687,40.73256517,3.7838,2.0219,NA,NA,NA,NA,NA,bored,"bored, not bored","more bored, less bored",NA,NA,NA,NA,NA,NA,NA,NA,NA,NA,NA,NA,NA,NA,NA,0,2,2,2,1,NA,NA,NA,NA,NA,NA,NA,NA,NA,NA,NA,NA,NA,NA,NA,NA,NA,NA,NA,NA,NA,NA,NA,NA,NA,NA,NA,NA
SUPAMT82113,3KRVW3HTZTKBNUL2G42WY25CRGFSM2,E842C782-8F2F-4F20-8BC8-FEA7469431DB,2023-09-26_18h11.08.629,WP_VExplicitOC_LH,2022.2.5,Win32,15.54629687,NA,NA,NA,NA,NA,NA,NA,NA,NA,NA,NA,NA,NA,NA,NA,NA,NA,NA,NA,NA,NA,NA,NA,NA,NA,NA,NA,NA,NA,NA,NA,2,0,2,0,1,NA,NA,NA,NA,NA,NA,NA,NA,NA,NA,NA,NA,NA,NA,NA,NA,NA,NA,NA,NA,NA,NA,NA
SUPAMT82113,3KRVW3HTZTKBNUL2G42WY25CRGFSM2,E842C782-8F2F-4F20-8BC8-FEA7469431DB,2023-09-26_18h11.08.629,WP_VExplicitOC_LH,2022.2.5,Win32,15.54629687,47.24553904,4.301,2.1044,NA,NA,NA,NA,NA,frustrated,"frustrated, not frustrated","more frustrated, less frustrated",NA,NA,NA,NA,NA,NA,NA,NA,NA,NA,NA,NA,NA,NA,NA,0,0,0,1,1,NA,NA,NA,NA,NA,NA,NA,NA,NA,NA,NA,NA,NA,NA,NA,NA,NA,NA,NA,NA,NA,NA,NA,NA,NA,NA,NA,NA
SUPAMT82113,3KRVW3HTZTKBNUL2G42WY25CRGFSM2,E842C782-8F2F-4F20-8BC8-FEA7469431DB,2023-09-26_18h11.08.629,WP_VExplicitOC_LH,2022.2.5,Win32,15.54629687,50.11124984,4.2269,2.1253,NA,NA,NA,NA,NA,bored,"bored, not bored","more bored, less bored",NA,NA,NA,NA,NA,NA,NA,NA,NA,NA,NA,NA,NA,NA,NA,0,1,1,2,1,NA,NA,NA,NA,NA,NA,NA,NA,NA,NA,NA,NA,NA,NA,NA,NA,NA,NA,NA,NA,NA,NA,NA,NA,NA,NA,NA,NA
SUPAMT82113,3KRVW3HTZTKBNUL2G42WY25CRGFSM2,E842C782-8F2F-4F20-8BC8-FEA7469431DB,2023-09-26_18h11.08.629,WP_VExplicitOC_LH,2022.2.5,Win32,15.54629687,50.11124984,4.6713,2.0387,NA,NA,NA,NA,NA,happy,"unhappy, happy","less happy, more happy",NA,NA,NA,NA,NA,NA,NA,NA,NA,NA,NA,NA,NA,NA,NA,0,2,2,0,1,NA,NA,NA,NA,NA,NA,NA,NA,NA,NA,NA,NA,NA,NA,NA,NA,NA,NA,NA,NA,NA,NA,NA,NA,NA,NA,NA,NA
SUPAMT82113,3KRVW3HTZTKBNUL2G42WY25CRGFSM2,E842C782-8F2F-4F20-8BC8-FEA7469431DB,2023-09-26_18h11.08.629,WP_VExplicitOC_LH,2022.2.5,Win32,15.54629687,NA,NA,NA,NA,NA,NA,NA,NA,NA,NA,NA,NA,NA,NA,NA,NA,NA,NA,NA,NA,NA,NA,NA,NA,NA,NA,NA,NA,NA,NA,NA,3,0,3,0,1,NA,NA,NA,NA,NA,NA,NA,NA,NA,NA,NA,NA,NA,NA,NA,NA,NA,NA,NA,NA,NA,NA,NA
SUPAMT82113,3KRVW3HTZTKBNUL2G42WY25CRGFSM2,E842C782-8F2F-4F20-8BC8-FEA7469431DB,2023-09-26_18h11.08.629,WP_VExplicitOC_LH,2022.2.5,Win32,15.54629687,40.4720382,3.3497,2.0962,NA,NA,NA,NA,NA,frustrated,"frustrated, not frustrated","more frustrated, less frustrated",NA,NA,NA,NA,NA,NA,NA,NA,NA,NA,NA,NA,NA,NA,NA,0,0,0,1,1,NA,NA,NA,NA,NA,NA,NA,NA,NA,NA,NA,NA,NA,NA,NA,NA,NA,NA,NA,NA,NA,NA,NA,NA,NA,NA,NA,NA
SUPAMT82113,3KRVW3HTZTKBNUL2G42WY25CRGFSM2,E842C782-8F2F-4F20-8BC8-FEA7469431DB,2023-09-26_18h11.08.629,WP_VExplicitOC_LH,2022.2.5,Win32,15.54629687,60.53199946,3.1528,2.0046,NA,NA,NA,NA,NA,happy,"unhappy, happy","less happy, more happy",NA,NA,NA,NA,NA,NA,NA,NA,NA,NA,NA,NA,NA,NA,NA,0,1,1,0,1,NA,NA,NA,NA,NA,NA,NA,NA,NA,NA,NA,NA,NA,NA,NA,NA,NA,NA,NA,NA,NA,NA,NA,NA,NA,NA,NA,NA
SUPAMT82113,3KRVW3HTZTKBNUL2G42WY25CRGFSM2,E842C782-8F2F-4F20-8BC8-FEA7469431DB,2023-09-26_18h11.08.629,WP_VExplicitOC_LH,2022.2.5,Win32,15.54629687,57.14526334,5.4948,2.1334,NA,NA,NA,NA,NA,bored,"bored, not bored","more bored, less bored",NA,NA,NA,NA,NA,NA,NA,NA,NA,NA,NA,NA,NA,NA,NA,0,2,2,2,1,NA,NA,NA,NA,NA,NA,NA,NA,NA,NA,NA,NA,NA,NA,NA,NA,NA,NA,NA,NA,NA,NA,NA,NA,NA,NA,NA,NA
SUPAMT82113,3KRVW3HTZTKBNUL2G42WY25CRGFSM2,E842C782-8F2F-4F20-8BC8-FEA7469431DB,2023-09-26_18h11.08.629,WP_VExplicitOC_LH,2022.2.5,Win32,15.54629687,NA,NA,NA,NA,NA,NA,NA,NA,NA,NA,NA,NA,NA,NA,NA,NA,NA,NA,NA,NA,NA,NA,NA,NA,NA,NA,NA,NA,NA,NA,NA,4,0,4,0,1,NA,NA,NA,NA,NA,NA,NA,NA,NA,NA,NA,NA,NA,NA,NA,NA,NA,NA,NA,NA,NA,NA,NA
SUPAMT82113,3KRVW3HTZTKBNUL2G42WY25CRGFSM2,E842C782-8F2F-4F20-8BC8-FEA7469431DB,2023-09-26_18h11.08.629,WP_VExplicitOC_LH,2022.2.5,Win32,15.54629687,55.58214446,3.5051,2.0787,NA,NA,NA,NA,NA,happy,"unhappy, happy","less happy, more happy",NA,NA,NA,NA,NA,NA,NA,NA,NA,NA,NA,NA,NA,NA,NA,0,0,0,0,1,NA,NA,NA,NA,NA,NA,NA,NA,NA,NA,NA,NA,NA,NA,NA,NA,NA,NA,NA,NA,NA,NA,NA,NA,NA,NA,NA,NA
SUPAMT82113,3KRVW3HTZTKBNUL2G42WY25CRGFSM2,E842C782-8F2F-4F20-8BC8-FEA7469431DB,2023-09-26_18h11.08.629,WP_VExplicitOC_LH,2022.2.5,Win32,15.54629687,30.5723139,5.9955,2.009,NA,NA,NA,NA,NA,frustrated,"frustrated, not frustrated","more frustrated, less frustrated",NA,NA,NA,NA,NA,NA,NA,NA,NA,NA,NA,NA,NA,NA,NA,0,1,1,1,1,NA,NA,NA,NA,NA,NA,NA,NA,NA,NA,NA,NA,NA,NA,NA,NA,NA,NA,NA,NA,NA,NA,NA,NA,NA,NA,NA,NA
SUPAMT82113,3KRVW3HTZTKBNUL2G42WY25CRGFSM2,E842C782-8F2F-4F20-8BC8-FEA7469431DB,2023-09-26_18h11.08.629,WP_VExplicitOC_LH,2022.2.5,Win32,15.54629687,65.74238142,3.9496000000000002,2.0297,NA,NA,NA,NA,NA,bored,"bored, not bored","more bored, less bored",NA,NA,NA,NA,NA,NA,NA,NA,NA,NA,NA,NA,NA,NA,NA,0,2,2,2,1,NA,NA,NA,NA,NA,NA,NA,NA,NA,NA,NA,NA,NA,NA,NA,NA,NA,NA,NA,NA,NA,NA,NA,NA,NA,NA,NA,NA
SUPAMT82113,3KRVW3HTZTKBNUL2G42WY25CRGFSM2,E842C782-8F2F-4F20-8BC8-FEA7469431DB,2023-09-26_18h11.08.629,WP_VExplicitOC_LH,2022.2.5,Win32,15.54629687,NA,NA,NA,NA,NA,NA,NA,NA,NA,NA,NA,NA,NA,NA,NA,NA,NA,NA,NA,NA,NA,NA,NA,NA,NA,NA,NA,NA,NA,NA,NA,5,0,5,0,1,NA,NA,NA,NA,NA,NA,NA,NA,NA,NA,NA,NA,NA,NA,NA,NA,NA,NA,NA,NA,NA,NA,NA
SUPAMT82113,3KRVW3HTZTKBNUL2G42WY25CRGFSM2,E842C782-8F2F-4F20-8BC8-FEA7469431DB,2023-09-26_18h11.08.629,WP_VExplicitOC_LH,2022.2.5,Win32,15.54629687,43.59827596,3.2538,2.0266,NA,NA,NA,NA,NA,bored,"bored, not bored","more bored, less bored",NA,NA,NA,NA,NA,NA,NA,NA,NA,NA,NA,NA,NA,NA,NA,0,0,0,2,1,NA,NA,NA,NA,NA,NA,NA,NA,NA,NA,NA,NA,NA,NA,NA,NA,NA,NA,NA,NA,NA,NA,NA,NA,NA,NA,NA,NA
SUPAMT82113,3KRVW3HTZTKBNUL2G42WY25CRGFSM2,E842C782-8F2F-4F20-8BC8-FEA7469431DB,2023-09-26_18h11.08.629,WP_VExplicitOC_LH,2022.2.5,Win32,15.54629687,63.13719759,3.0699,2.0846,NA,NA,NA,NA,NA,frustrated,"frustrated, not frustrated","more frustrated, less frustrated",NA,NA,NA,NA,NA,NA,NA,NA,NA,NA,NA,NA,NA,NA,NA,0,1,1,1,1,NA,NA,NA,NA,NA,NA,NA,NA,NA,NA,NA,NA,NA,NA,NA,NA,NA,NA,NA,NA,NA,NA,NA,NA,NA,NA,NA,NA
SUPAMT82113,3KRVW3HTZTKBNUL2G42WY25CRGFSM2,E842C782-8F2F-4F20-8BC8-FEA7469431DB,2023-09-26_18h11.08.629,WP_VExplicitOC_LH,2022.2.5,Win32,15.54629687,55.58214446,3.2229,2.0893,NA,NA,NA,NA,NA,happy,"unhappy, happy","less happy, more happy",NA,NA,NA,NA,NA,NA,NA,NA,NA,NA,NA,NA,NA,NA,NA,0,2,2,0,1,NA,NA,NA,NA,NA,NA,NA,NA,NA,NA,NA,NA,NA,NA,NA,NA,NA,NA,NA,NA,NA,NA,NA,NA,NA,NA,NA,NA
SUPAMT82113,3KRVW3HTZTKBNUL2G42WY25CRGFSM2,E842C782-8F2F-4F20-8BC8-FEA7469431DB,2023-09-26_18h11.08.629,WP_VExplicitOC_LH,2022.2.5,Win32,15.54629687,NA,NA,NA,NA,NA,NA,NA,NA,NA,NA,NA,NA,NA,NA,NA,NA,NA,NA,NA,NA,NA,NA,NA,NA,NA,NA,NA,NA,NA,NA,NA,6,0,6,0,1,NA,NA,NA,NA,NA,NA,NA,NA,NA,NA,NA,NA,NA,NA,NA,NA,NA,NA,NA,NA,NA,NA,NA
SUPAMT82113,3KRVW3HTZTKBNUL2G42WY25CRGFSM2,E842C782-8F2F-4F20-8BC8-FEA7469431DB,2023-09-26_18h11.08.629,WP_VExplicitOC_LH,2022.2.5,Win32,15.54629687,NA,NA,2.0341,NA,NA,NA,NA,NA,frustrated,"frustrated, not frustrated","more frustrated, less frustrated",NA,NA,NA,NA,NA,NA,NA,NA,NA,NA,NA,NA,NA,NA,NA,0,0,0,1,1,NA,NA,NA,NA,NA,NA,NA,NA,NA,NA,NA,NA,NA,NA,NA,NA,NA,NA,NA,NA,NA,NA,NA,NA,NA,NA,NA,NA
SUPAMT82113,3KRVW3HTZTKBNUL2G42WY25CRGFSM2,E842C782-8F2F-4F20-8BC8-FEA7469431DB,2023-09-26_18h11.08.629,WP_VExplicitOC_LH,2022.2.5,Win32,15.54629687,45.4219075,3.7017,2.0706,NA,NA,NA,NA,NA,bored,"bored, not bored","more bored, less bored",NA,NA,NA,NA,NA,NA,NA,NA,NA,NA,NA,NA,NA,NA,NA,0,1,1,2,1,NA,NA,NA,NA,NA,NA,NA,NA,NA,NA,NA,NA,NA,NA,NA,NA,NA,NA,NA,NA,NA,NA,NA,NA,NA,NA,NA,NA
SUPAMT82113,3KRVW3HTZTKBNUL2G42WY25CRGFSM2,E842C782-8F2F-4F20-8BC8-FEA7469431DB,2023-09-26_18h11.08.629,WP_VExplicitOC_LH,2022.2.5,Win32,15.54629687,48.02709133,2.9771,2.0217,NA,NA,NA,NA,NA,happy,"unhappy, happy","less happy, more happy",NA,NA,NA,NA,NA,NA,NA,NA,NA,NA,NA,NA,NA,NA,NA,0,2,2,0,1,NA,NA,NA,NA,NA,NA,NA,NA,NA,NA,NA,NA,NA,NA,NA,NA,NA,NA,NA,NA,NA,NA,NA,NA,NA,NA,NA,NA
SUPAMT82113,3KRVW3HTZTKBNUL2G42WY25CRGFSM2,E842C782-8F2F-4F20-8BC8-FEA7469431DB,2023-09-26_18h11.08.629,WP_VExplicitOC_LH,2022.2.5,Win32,15.54629687,NA,NA,NA,NA,NA,NA,NA,NA,NA,NA,NA,NA,NA,NA,NA,NA,NA,NA,NA,NA,NA,NA,NA,NA,NA,NA,NA,NA,NA,NA,NA,7,0,7,0,1,NA,NA,NA,NA,NA,NA,NA,NA,NA,NA,NA,NA,NA,NA,NA,NA,NA,NA,NA,NA,NA,NA,NA
SUPAMT82113,3KRVW3HTZTKBNUL2G42WY25CRGFSM2,E842C782-8F2F-4F20-8BC8-FEA7469431DB,2023-09-26_18h11.08.629,WP_VExplicitOC_LH,2022.2.5,Win32,15.54629687,51.15331478,4.9172,2.0841,NA,NA,NA,NA,NA,happy,"unhappy, happy","less happy, more happy",NA,NA,NA,NA,NA,NA,NA,NA,NA,NA,NA,NA,NA,NA,NA,0,0,0,0,1,NA,NA,NA,NA,NA,NA,NA,NA,NA,NA,NA,NA,NA,NA,NA,NA,NA,NA,NA,NA,NA,NA,NA,NA,NA,NA,NA,NA
SUPAMT82113,3KRVW3HTZTKBNUL2G42WY25CRGFSM2,E842C782-8F2F-4F20-8BC8-FEA7469431DB,2023-09-26_18h11.08.629,WP_VExplicitOC_LH,2022.2.5,Win32,15.54629687,52.97696064,3.4414,2.0611,NA,NA,NA,NA,NA,bored,"bored, not bored","more bored, less bored",NA,NA,NA,NA,NA,NA,NA,NA,NA,NA,NA,NA,NA,NA,NA,0,1,1,2,1,NA,NA,NA,NA,NA,NA,NA,NA,NA,NA,NA,NA,NA,NA,NA,NA,NA,NA,NA,NA,NA,NA,NA,NA,NA,NA,NA,NA
SUPAMT82113,3KRVW3HTZTKBNUL2G42WY25CRGFSM2,E842C782-8F2F-4F20-8BC8-FEA7469431DB,2023-09-26_18h11.08.629,WP_VExplicitOC_LH,2022.2.5,Win32,15.54629687,52.97696064,3.2625,2.055,NA,NA,NA,NA,NA,frustrated,"frustrated, not frustrated","more frustrated, less frustrated",NA,NA,NA,NA,NA,NA,NA,NA,NA,NA,NA,NA,NA,NA,NA,0,2,2,1,1,NA,NA,NA,NA,NA,NA,NA,NA,NA,NA,NA,NA,NA,NA,NA,NA,NA,NA,NA,NA,NA,NA,NA,NA,NA,NA,NA,NA
SUPAMT82113,3KRVW3HTZTKBNUL2G42WY25CRGFSM2,E842C782-8F2F-4F20-8BC8-FEA7469431DB,2023-09-26_18h11.08.629,WP_VExplicitOC_LH,2022.2.5,Win32,15.54629687,NA,NA,NA,NA,NA,NA,NA,NA,NA,NA,NA,NA,NA,NA,NA,NA,NA,NA,NA,NA,NA,NA,NA,NA,NA,NA,NA,NA,NA,NA,NA,8,0,8,0,1,NA,NA,NA,NA,NA,NA,NA,NA,NA,NA,NA,NA,NA,NA,NA,NA,NA,NA,NA,NA,NA,NA,NA
SUPAMT82113,3KRVW3HTZTKBNUL2G42WY25CRGFSM2,E842C782-8F2F-4F20-8BC8-FEA7469431DB,2023-09-26_18h11.08.629,WP_VExplicitOC_LH,2022.2.5,Win32,15.54629687,46.20345979,4.5995,2.1095,NA,NA,NA,NA,NA,frustrated,"frustrated, not frustrated","more frustrated, less frustrated",NA,NA,NA,NA,NA,NA,NA,NA,NA,NA,NA,NA,NA,NA,NA,0,0,0,1,1,NA,NA,NA,NA,NA,NA,NA,NA,NA,NA,NA,NA,NA,NA,NA,NA,NA,NA,NA,NA,NA,NA,NA,NA,NA,NA,NA,NA
SUPAMT82113,3KRVW3HTZTKBNUL2G42WY25CRGFSM2,E842C782-8F2F-4F20-8BC8-FEA7469431DB,2023-09-26_18h11.08.629,WP_VExplicitOC_LH,2022.2.5,Win32,15.54629687,NA,NA,2.0177,NA,NA,NA,NA,NA,happy,"unhappy, happy","less happy, more happy",NA,NA,NA,NA,NA,NA,NA,NA,NA,NA,NA,NA,NA,NA,NA,0,1,1,0,1,NA,NA,NA,NA,NA,NA,NA,NA,NA,NA,NA,NA,NA,NA,NA,NA,NA,NA,NA,NA,NA,NA,NA,NA,NA,NA,NA,NA
SUPAMT82113,3KRVW3HTZTKBNUL2G42WY25CRGFSM2,E842C782-8F2F-4F20-8BC8-FEA7469431DB,2023-09-26_18h11.08.629,WP_VExplicitOC_LH,2022.2.5,Win32,15.54629687,46.20345979,3.6005,2.0304,NA,NA,NA,NA,NA,bored,"bored, not bored","more bored, less bored",NA,NA,NA,NA,NA,NA,NA,NA,NA,NA,NA,NA,NA,NA,NA,0,2,2,2,1,NA,NA,NA,NA,NA,NA,NA,NA,NA,NA,NA,NA,NA,NA,NA,NA,NA,NA,NA,NA,NA,NA,NA,NA,NA,NA,NA,NA
SUPAMT82113,3KRVW3HTZTKBNUL2G42WY25CRGFSM2,E842C782-8F2F-4F20-8BC8-FEA7469431DB,2023-09-26_18h11.08.629,WP_VExplicitOC_LH,2022.2.5,Win32,15.54629687,NA,NA,NA,NA,NA,NA,NA,NA,NA,NA,NA,NA,NA,NA,NA,NA,NA,NA,NA,NA,NA,NA,NA,NA,NA,NA,NA,NA,NA,NA,NA,9,0,9,0,1,NA,NA,NA,NA,NA,NA,NA,NA,NA,NA,NA,NA,NA,NA,NA,NA,NA,NA,NA,NA,NA,NA,NA
SUPAMT82113,3KRVW3HTZTKBNUL2G42WY25CRGFSM2,E842C782-8F2F-4F20-8BC8-FEA7469431DB,2023-09-26_18h11.08.629,WP_VExplicitOC_LH,2022.2.5,Win32,15.54629687,42.55619671,3.5679,2.0325,NA,NA,NA,NA,NA,bored,"bored, not bored","more bored, less bored",NA,NA,NA,NA,NA,NA,NA,NA,NA,NA,NA,NA,NA,NA,NA,0,0,0,2,1,NA,NA,NA,NA,NA,NA,NA,NA,NA,NA,NA,NA,NA,NA,NA,NA,NA,NA,NA,NA,NA,NA,NA,NA,NA,NA,NA,NA
SUPAMT82113,3KRVW3HTZTKBNUL2G42WY25CRGFSM2,E842C782-8F2F-4F20-8BC8-FEA7469431DB,2023-09-26_18h11.08.629,WP_VExplicitOC_LH,2022.2.5,Win32,15.54629687,58.44785526,4.3068,2.046,NA,NA,NA,NA,NA,frustrated,"frustrated, not frustrated","more frustrated, less frustrated",NA,NA,NA,NA,NA,NA,NA,NA,NA,NA,NA,NA,NA,NA,NA,0,1,1,1,1,NA,NA,NA,NA,NA,NA,NA,NA,NA,NA,NA,NA,NA,NA,NA,NA,NA,NA,NA,NA,NA,NA,NA,NA,NA,NA,NA,NA
SUPAMT82113,3KRVW3HTZTKBNUL2G42WY25CRGFSM2,E842C782-8F2F-4F20-8BC8-FEA7469431DB,2023-09-26_18h11.08.629,WP_VExplicitOC_LH,2022.2.5,Win32,15.54629687,61.05303908,4.0064,2.0888,NA,NA,NA,NA,NA,happy,"unhappy, happy","less happy, more happy",NA,NA,NA,NA,NA,NA,NA,NA,NA,NA,NA,NA,NA,NA,NA,0,2,2,0,1,NA,NA,NA,NA,NA,NA,NA,NA,NA,NA,NA,NA,NA,NA,NA,NA,NA,NA,NA,NA,NA,NA,NA,NA,NA,NA,NA,NA
SUPAMT82113,3KRVW3HTZTKBNUL2G42WY25CRGFSM2,E842C782-8F2F-4F20-8BC8-FEA7469431DB,2023-09-26_18h11.08.629,WP_VExplicitOC_LH,2022.2.5,Win32,15.54629687,NA,NA,NA,NA,NA,NA,NA,NA,NA,NA,NA,NA,NA,NA,NA,NA,NA,NA,NA,NA,NA,NA,NA,NA,NA,NA,NA,NA,NA,NA,NA,10,0,10,0,1,NA,NA,NA,NA,NA,NA,NA,NA,NA,NA,NA,NA,NA,NA,NA,NA,NA,NA,NA,NA,NA,NA,NA
SUPAMT82113,3KRVW3HTZTKBNUL2G42WY25CRGFSM2,E842C782-8F2F-4F20-8BC8-FEA7469431DB,2023-09-26_18h11.08.629,WP_VExplicitOC_LH,2022.2.5,Win32,15.54629687,42.55619671,6.6182,2.0772,NA,NA,NA,NA,NA,happy,"unhappy, happy","less happy, more happy",NA,NA,NA,NA,NA,NA,NA,NA,NA,NA,NA,NA,NA,NA,NA,0,0,0,0,1,NA,NA,NA,NA,NA,NA,NA,NA,NA,NA,NA,NA,NA,NA,NA,NA,NA,NA,NA,NA,NA,NA,NA,NA,NA,NA,NA,NA
SUPAMT82113,3KRVW3HTZTKBNUL2G42WY25CRGFSM2,E842C782-8F2F-4F20-8BC8-FEA7469431DB,2023-09-26_18h11.08.629,WP_VExplicitOC_LH,2022.2.5,Win32,15.54629687,49.06917059,4.0387,2.0458,NA,NA,NA,NA,NA,frustrated,"frustrated, not frustrated","more frustrated, less frustrated",NA,NA,NA,NA,NA,NA,NA,NA,NA,NA,NA,NA,NA,NA,NA,0,1,1,1,1,NA,NA,NA,NA,NA,NA,NA,NA,NA,NA,NA,NA,NA,NA,NA,NA,NA,NA,NA,NA,NA,NA,NA,NA,NA,NA,NA,NA
SUPAMT82113,3KRVW3HTZTKBNUL2G42WY25CRGFSM2,E842C782-8F2F-4F20-8BC8-FEA7469431DB,2023-09-26_18h11.08.629,WP_VExplicitOC_LH,2022.2.5,Win32,15.54629687,55.3216318,3.5076,2.0108,NA,NA,NA,NA,NA,bored,"bored, not bored","more bored, less bored",NA,NA,NA,NA,NA,NA,NA,NA,NA,NA,NA,NA,NA,NA,NA,0,2,2,2,1,NA,NA,NA,NA,NA,NA,NA,NA,NA,NA,NA,NA,NA,NA,NA,NA,NA,NA,NA,NA,NA,NA,NA,NA,NA,NA,NA,NA
SUPAMT82113,3KRVW3HTZTKBNUL2G42WY25CRGFSM2,E842C782-8F2F-4F20-8BC8-FEA7469431DB,2023-09-26_18h11.08.629,WP_VExplicitOC_LH,2022.2.5,Win32,15.54629687,NA,NA,NA,NA,NA,NA,NA,NA,NA,NA,NA,NA,NA,NA,NA,NA,NA,NA,NA,NA,NA,NA,NA,NA,NA,NA,NA,NA,NA,NA,NA,11,0,11,0,1,NA,NA,NA,NA,NA,NA,NA,NA,NA,NA,NA,NA,NA,NA,NA,NA,NA,NA,NA,NA,NA,NA,NA
SUPAMT82113,3KRVW3HTZTKBNUL2G42WY25CRGFSM2,E842C782-8F2F-4F20-8BC8-FEA7469431DB,2023-09-26_18h11.08.629,WP_VExplicitOC_LH,2022.2.5,Win32,15.54629687,56.88473637,3.89,2.0086,NA,NA,NA,NA,NA,bored,"bored, not bored","more bored, less bored",NA,NA,NA,NA,NA,NA,NA,NA,NA,NA,NA,NA,NA,NA,NA,0,0,0,2,1,NA,NA,NA,NA,NA,NA,NA,NA,NA,NA,NA,NA,NA,NA,NA,NA,NA,NA,NA,NA,NA,NA,NA,NA,NA,NA,NA,NA
SUPAMT82113,3KRVW3HTZTKBNUL2G42WY25CRGFSM2,E842C782-8F2F-4F20-8BC8-FEA7469431DB,2023-09-26_18h11.08.629,WP_VExplicitOC_LH,2022.2.5,Win32,15.54629687,56.88473637,6.8081,2.0708,NA,NA,NA,NA,NA,happy,"unhappy, happy","less happy, more happy",NA,NA,NA,NA,NA,NA,NA,NA,NA,NA,NA,NA,NA,NA,NA,0,1,1,0,1,NA,NA,NA,NA,NA,NA,NA,NA,NA,NA,NA,NA,NA,NA,NA,NA,NA,NA,NA,NA,NA,NA,NA,NA,NA,NA,NA,NA
SUPAMT82113,3KRVW3HTZTKBNUL2G42WY25CRGFSM2,E842C782-8F2F-4F20-8BC8-FEA7469431DB,2023-09-26_18h11.08.629,WP_VExplicitOC_LH,2022.2.5,Win32,15.54629687,56.88473637,3.0333,2.0639,NA,NA,NA,NA,NA,frustrated,"frustrated, not frustrated","more frustrated, less frustrated",NA,NA,NA,NA,NA,NA,NA,NA,NA,NA,NA,NA,NA,NA,NA,0,2,2,1,1,NA,NA,NA,NA,NA,NA,NA,NA,NA,NA,NA,NA,NA,NA,NA,NA,NA,NA,NA,NA,NA,NA,NA,NA,NA,NA,NA,NA
SUPAMT82113,3KRVW3HTZTKBNUL2G42WY25CRGFSM2,E842C782-8F2F-4F20-8BC8-FEA7469431DB,2023-09-26_18h11.08.629,WP_VExplicitOC_LH,2022.2.5,Win32,15.54629687,NA,NA,NA,NA,NA,NA,NA,NA,NA,NA,NA,NA,NA,NA,NA,NA,NA,NA,NA,NA,NA,NA,NA,NA,NA,NA,NA,NA,NA,NA,NA,12,0,12,0,1,NA,NA,NA,NA,NA,NA,NA,NA,NA,NA,NA,NA,NA,NA,NA,NA,NA,NA,NA,NA,NA,NA,NA
SUPAMT82113,3KRVW3HTZTKBNUL2G42WY25CRGFSM2,E842C782-8F2F-4F20-8BC8-FEA7469431DB,2023-09-26_18h11.08.629,WP_VExplicitOC_LH,2022.2.5,Win32,15.54629687,56.88473637,3.4325,2.0166,NA,NA,NA,NA,NA,frustrated,"frustrated, not frustrated","more frustrated, less frustrated",NA,NA,NA,NA,NA,NA,NA,NA,NA,NA,NA,NA,NA,NA,NA,0,0,0,1,1,NA,NA,NA,NA,NA,NA,NA,NA,NA,NA,NA,NA,NA,NA,NA,NA,NA,NA,NA,NA,NA,NA,NA,NA,NA,NA,NA,NA
SUPAMT82113,3KRVW3HTZTKBNUL2G42WY25CRGFSM2,E842C782-8F2F-4F20-8BC8-FEA7469431DB,2023-09-26_18h11.08.629,WP_VExplicitOC_LH,2022.2.5,Win32,15.54629687,55.84265712,5.4533,2.0089,NA,NA,NA,NA,NA,bored,"bored, not bored","more bored, less bored",NA,NA,NA,NA,NA,NA,NA,NA,NA,NA,NA,NA,NA,NA,NA,0,1,1,2,1,NA,NA,NA,NA,NA,NA,NA,NA,NA,NA,NA,NA,NA,NA,NA,NA,NA,NA,NA,NA,NA,NA,NA,NA,NA,NA,NA,NA
SUPAMT82113,3KRVW3HTZTKBNUL2G42WY25CRGFSM2,E842C782-8F2F-4F20-8BC8-FEA7469431DB,2023-09-26_18h11.08.629,WP_VExplicitOC_LH,2022.2.5,Win32,15.54629687,55.84265712,2.1289,2.0218,NA,NA,NA,NA,NA,happy,"unhappy, happy","less happy, more happy",NA,NA,NA,NA,NA,NA,NA,NA,NA,NA,NA,NA,NA,NA,NA,0,2,2,0,1,NA,NA,NA,NA,NA,NA,NA,NA,NA,NA,NA,NA,NA,NA,NA,NA,NA,NA,NA,NA,NA,NA,NA,NA,NA,NA,NA,NA
SUPAMT82113,3KRVW3HTZTKBNUL2G42WY25CRGFSM2,E842C782-8F2F-4F20-8BC8-FEA7469431DB,2023-09-26_18h11.08.629,WP_VExplicitOC_LH,2022.2.5,Win32,15.54629687,NA,NA,NA,NA,NA,NA,NA,NA,NA,NA,NA,NA,NA,NA,NA,NA,NA,NA,NA,NA,NA,NA,NA,NA,NA,NA,NA,NA,NA,NA,NA,13,0,13,0,1,NA,NA,NA,NA,NA,NA,NA,NA,NA,NA,NA,NA,NA,NA,NA,NA,NA,NA,NA,NA,NA,NA,NA
SUPAMT82113,3KRVW3HTZTKBNUL2G42WY25CRGFSM2,E842C782-8F2F-4F20-8BC8-FEA7469431DB,2023-09-26_18h11.08.629,WP_VExplicitOC_LH,2022.2.5,Win32,15.54629687,55.84265712,3.6239,2.0809,NA,NA,NA,NA,NA,bored,"bored, not bored","more bored, less bored",NA,NA,NA,NA,NA,NA,NA,NA,NA,NA,NA,NA,NA,NA,NA,0,0,0,2,1,NA,NA,NA,NA,NA,NA,NA,NA,NA,NA,NA,NA,NA,NA,NA,NA,NA,NA,NA,NA,NA,NA,NA,NA,NA,NA,NA,NA
SUPAMT82113,3KRVW3HTZTKBNUL2G42WY25CRGFSM2,E842C782-8F2F-4F20-8BC8-FEA7469431DB,2023-09-26_18h11.08.629,WP_VExplicitOC_LH,2022.2.5,Win32,15.54629687,55.84265712,4.98,2.0396,NA,NA,NA,NA,NA,happy,"unhappy, happy","less happy, more happy",NA,NA,NA,NA,NA,NA,NA,NA,NA,NA,NA,NA,NA,NA,NA,0,1,1,0,1,NA,NA,NA,NA,NA,NA,NA,NA,NA,NA,NA,NA,NA,NA,NA,NA,NA,NA,NA,NA,NA,NA,NA,NA,NA,NA,NA,NA
SUPAMT82113,3KRVW3HTZTKBNUL2G42WY25CRGFSM2,E842C782-8F2F-4F20-8BC8-FEA7469431DB,2023-09-26_18h11.08.629,WP_VExplicitOC_LH,2022.2.5,Win32,15.54629687,55.84265712,3.2766,2.0718,NA,NA,NA,NA,NA,frustrated,"frustrated, not frustrated","more frustrated, less frustrated",NA,NA,NA,NA,NA,NA,NA,NA,NA,NA,NA,NA,NA,NA,NA,0,2,2,1,1,NA,NA,NA,NA,NA,NA,NA,NA,NA,NA,NA,NA,NA,NA,NA,NA,NA,NA,NA,NA,NA,NA,NA,NA,NA,NA,NA,NA
SUPAMT82113,3KRVW3HTZTKBNUL2G42WY25CRGFSM2,E842C782-8F2F-4F20-8BC8-FEA7469431DB,2023-09-26_18h11.08.629,WP_VExplicitOC_LH,2022.2.5,Win32,15.54629687,NA,NA,NA,NA,NA,NA,NA,NA,NA,NA,NA,NA,NA,NA,NA,NA,NA,NA,NA,NA,NA,NA,NA,NA,NA,NA,NA,NA,NA,NA,NA,14,0,14,0,1,NA,NA,NA,NA,NA,NA,NA,NA,NA,NA,NA,NA,NA,NA,NA,NA,NA,NA,NA,NA,NA,NA,NA
SUPAMT82113,3KRVW3HTZTKBNUL2G42WY25CRGFSM2,E842C782-8F2F-4F20-8BC8-FEA7469431DB,2023-09-26_18h11.08.629,WP_VExplicitOC_LH,2022.2.5,Win32,15.54629687,NA,NA,NA,NA,NA,NA,NA,NA,NA,NA,NA,NA,NA,NA,NA,NA,NA,NA,NA,NA,NA,NA,NA,NA,NA,NA,NA,NA,NA,NA,NA,NA,NA,NA,NA,NA,NA,NA,NA,NA,NA,NA,NA,NA,NA,NA,NA,NA,NA,NA,NA,NA,NA,NA,NA,NA,NA,NA,NA
SUPAMT82113,3KRVW3HTZTKBNUL2G42WY25CRGFSM2,E842C782-8F2F-4F20-8BC8-FEA7469431DB,2023-09-26_18h11.08.629,WP_VExplicitOC_LH,2022.2.5,Win32,15.54629687,NA,NA,NA,NA,NA,NA,NA,NA,NA,NA,NA,NA,NA,NA,NA,NA,NA,NA,NA,NA,NA,NA,NA,NA,NA,NA,NA,NA,NA,NA,NA,NA,NA,NA,NA,NA,NA,NA,NA,NA,NA,NA,NA,NA,NA,NA,NA,NA,NA,NA,NA,NA,NA,NA,NA,NA,NA,NA,NA
SUPAMT82113,3KRVW3HTZTKBNUL2G42WY25CRGFSM2,E842C782-8F2F-4F20-8BC8-FEA7469431DB,2023-09-26_18h11.08.629,WP_VExplicitOC_LH,2022.2.5,Win32,15.54629687,NA,NA,NA,NA,NA,NA,NA,NA,NA,NA,NA,NA,NA,NA,NA,NA,NA,NA,rest (looking at a fixed cross),001.png,NA,NA,NA,NA,NA,NA,NA,NA,NA,NA,NA,NA,NA,NA,NA,NA,55.58214446,1.5187,0,0,0,0,1,NA,NA,NA,NA,NA,NA,NA,NA,NA,NA,NA,NA,NA,NA,NA,NA
SUPAMT82113,3KRVW3HTZTKBNUL2G42WY25CRGFSM2,E842C782-8F2F-4F20-8BC8-FEA7469431DB,2023-09-26_18h11.08.629,WP_VExplicitOC_LH,2022.2.5,Win32,15.54629687,NA,NA,NA,NA,NA,NA,NA,NA,NA,NA,NA,NA,NA,NA,NA,NA,NA,NA,stand up,002.png,NA,NA,NA,NA,NA,NA,NA,NA,NA,NA,NA,NA,NA,NA,NA,NA,55.3216318,1.2549,0,1,1,1,1,NA,NA,NA,NA,NA,NA,NA,NA,NA,NA,NA,NA,NA,NA,NA,NA
SUPAMT82113,3KRVW3HTZTKBNUL2G42WY25CRGFSM2,E842C782-8F2F-4F20-8BC8-FEA7469431DB,2023-09-26_18h11.08.629,WP_VExplicitOC_LH,2022.2.5,Win32,15.54629687,NA,NA,NA,NA,NA,NA,NA,NA,NA,NA,NA,NA,NA,NA,NA,NA,NA,NA,stretch,003.png,NA,NA,NA,NA,NA,NA,NA,NA,NA,NA,NA,NA,NA,NA,NA,NA,48.02709133,1.423,0,2,2,2,1,NA,NA,NA,NA,NA,NA,NA,NA,NA,NA,NA,NA,NA,NA,NA,NA
SUPAMT82113,3KRVW3HTZTKBNUL2G42WY25CRGFSM2,E842C782-8F2F-4F20-8BC8-FEA7469431DB,2023-09-26_18h11.08.629,WP_VExplicitOC_LH,2022.2.5,Win32,15.54629687,NA,NA,NA,NA,NA,NA,NA,NA,NA,NA,NA,NA,NA,NA,NA,NA,NA,NA,make a drink,004.png,NA,NA,NA,NA,NA,NA,NA,NA,NA,NA,NA,NA,NA,NA,NA,NA,35.52218321,1.2875,0,3,3,3,1,NA,NA,NA,NA,NA,NA,NA,NA,NA,NA,NA,NA,NA,NA,NA,NA
SUPAMT82113,3KRVW3HTZTKBNUL2G42WY25CRGFSM2,E842C782-8F2F-4F20-8BC8-FEA7469431DB,2023-09-26_18h11.08.629,WP_VExplicitOC_LH,2022.2.5,Win32,15.54629687,NA,NA,NA,NA,NA,NA,NA,NA,NA,NA,NA,NA,NA,NA,NA,NA,NA,NA,scroll social media,005.png,NA,NA,NA,NA,NA,NA,NA,NA,NA,NA,NA,NA,NA,NA,NA,NA,66.26343536,1.4339,0,4,4,4,1,NA,NA,NA,NA,NA,NA,NA,NA,NA,NA,NA,NA,NA,NA,NA,NA
SUPAMT82113,3KRVW3HTZTKBNUL2G42WY25CRGFSM2,E842C782-8F2F-4F20-8BC8-FEA7469431DB,2023-09-26_18h11.08.629,WP_VExplicitOC_LH,2022.2.5,Win32,15.54629687,NA,NA,NA,NA,NA,NA,NA,NA,NA,NA,NA,NA,NA,NA,NA,NA,NA,NA,listen to music,006.png,NA,NA,NA,NA,NA,NA,NA,NA,NA,NA,NA,NA,NA,NA,NA,NA,66.26343536,1.1696,0,5,5,5,1,NA,NA,NA,NA,NA,NA,NA,NA,NA,NA,NA,NA,NA,NA,NA,NA
SUPAMT82113,3KRVW3HTZTKBNUL2G42WY25CRGFSM2,E842C782-8F2F-4F20-8BC8-FEA7469431DB,2023-09-26_18h11.08.629,WP_VExplicitOC_LH,2022.2.5,Win32,15.54629687,NA,NA,NA,NA,NA,NA,NA,NA,NA,NA,NA,NA,NA,NA,NA,NA,NA,NA,daydream,007.png,NA,NA,NA,NA,NA,NA,NA,NA,NA,NA,NA,NA,NA,NA,NA,NA,48.02709133,0.9223,0,6,6,6,1,NA,NA,NA,NA,NA,NA,NA,NA,NA,NA,NA,NA,NA,NA,NA,NA
SUPAMT82113,3KRVW3HTZTKBNUL2G42WY25CRGFSM2,E842C782-8F2F-4F20-8BC8-FEA7469431DB,2023-09-26_18h11.08.629,WP_VExplicitOC_LH,2022.2.5,Win32,15.54629687,NA,NA,NA,NA,NA,NA,NA,NA,NA,NA,NA,NA,NA,NA,NA,NA,NA,NA,watch a short animation,008.png,NA,NA,NA,NA,NA,NA,NA,NA,NA,NA,NA,NA,NA,NA,NA,NA,76.16314535,1.2238,0,7,7,7,1,NA,NA,NA,NA,NA,NA,NA,NA,NA,NA,NA,NA,NA,NA,NA,NA
SUPAMT82113,3KRVW3HTZTKBNUL2G42WY25CRGFSM2,E842C782-8F2F-4F20-8BC8-FEA7469431DB,2023-09-26_18h11.08.629,WP_VExplicitOC_LH,2022.2.5,Win32,15.54629687,NA,NA,NA,NA,NA,NA,NA,NA,NA,NA,NA,NA,NA,NA,NA,NA,NA,NA,read a novel,009.png,NA,NA,NA,NA,NA,NA,NA,NA,NA,NA,NA,NA,NA,NA,NA,NA,48.02709133,0.9536,0,8,8,8,1,NA,NA,NA,NA,NA,NA,NA,NA,NA,NA,NA,NA,NA,NA,NA,NA
SUPAMT82113,3KRVW3HTZTKBNUL2G42WY25CRGFSM2,E842C782-8F2F-4F20-8BC8-FEA7469431DB,2023-09-26_18h11.08.629,WP_VExplicitOC_LH,2022.2.5,Win32,15.54629687,NA,NA,NA,NA,NA,NA,NA,NA,NA,NA,NA,NA,NA,NA,NA,NA,NA,NA,read the news,010.png,NA,NA,NA,NA,NA,NA,NA,NA,NA,NA,NA,NA,NA,NA,NA,NA,65.48186876,0.9549,0,9,9,9,1,NA,NA,NA,NA,NA,NA,NA,NA,NA,NA,NA,NA,NA,NA,NA,NA
SUPAMT82113,3KRVW3HTZTKBNUL2G42WY25CRGFSM2,E842C782-8F2F-4F20-8BC8-FEA7469431DB,2023-09-26_18h11.08.629,WP_VExplicitOC_LH,2022.2.5,Win32,15.54629687,NA,NA,NA,NA,NA,NA,NA,NA,NA,NA,NA,NA,NA,NA,NA,NA,NA,NA,NA,NA,NA,NA,NA,NA,NA,NA,NA,NA,NA,NA,NA,NA,NA,NA,NA,NA,NA,NA,NA,NA,NA,NA,NA,watch a short animation,NA,NA,NA,NA,NA,NA,NA,NA,NA,NA,NA,NA,NA,NA,NA
SUPAMT82113,3KRVW3HTZTKBNUL2G42WY25CRGFSM2,E842C782-8F2F-4F20-8BC8-FEA7469431DB,2023-09-26_18h11.08.629,WP_VExplicitOC_LH,2022.2.5,Win32,15.54629687,44.90086788,3.5355,2.0253,NA,NA,NA,NA,NA,bored,"bored, not bored","more bored, less bored",NA,NA,NA,NA,NA,NA,NA,NA,NA,NA,NA,NA,NA,NA,NA,NA,NA,NA,NA,NA,NA,NA,NA,NA,NA,NA,NA,NA,NA,NA,NA,NA,NA,0,0,0,2,1,NA,NA,NA,NA,NA,NA,NA,NA,NA,NA
SUPAMT82113,3KRVW3HTZTKBNUL2G42WY25CRGFSM2,E842C782-8F2F-4F20-8BC8-FEA7469431DB,2023-09-26_18h11.08.629,WP_VExplicitOC_LH,2022.2.5,Win32,15.54629687,63.39771025,3.1178,2.0181,NA,NA,NA,NA,NA,happy,"unhappy, happy","less happy, more happy",NA,NA,NA,NA,NA,NA,NA,NA,NA,NA,NA,NA,NA,NA,NA,NA,NA,NA,NA,NA,NA,NA,NA,NA,NA,NA,NA,NA,NA,NA,NA,NA,NA,0,1,1,0,1,NA,NA,NA,NA,NA,NA,NA,NA,NA,NA
SUPAMT82113,3KRVW3HTZTKBNUL2G42WY25CRGFSM2,E842C782-8F2F-4F20-8BC8-FEA7469431DB,2023-09-26_18h11.08.629,WP_VExplicitOC_LH,2022.2.5,Win32,15.54629687,36.04322283,3.1895,2.0854,NA,NA,NA,NA,NA,frustrated,"frustrated, not frustrated","more frustrated, less frustrated",NA,NA,NA,NA,NA,NA,NA,NA,NA,NA,NA,NA,NA,NA,NA,NA,NA,NA,NA,NA,NA,NA,NA,NA,NA,NA,NA,NA,NA,NA,NA,NA,NA,0,2,2,1,1,NA,NA,NA,NA,NA,NA,NA,NA,NA,NA
SUPAMT82113,3KRVW3HTZTKBNUL2G42WY25CRGFSM2,E842C782-8F2F-4F20-8BC8-FEA7469431DB,2023-09-26_18h11.08.629,WP_VExplicitOC_LH,2022.2.5,Win32,15.54629687,NA,NA,NA,NA,NA,NA,NA,NA,NA,NA,NA,NA,NA,NA,NA,NA,NA,NA,NA,NA,NA,NA,NA,NA,NA,NA,NA,NA,NA,NA,NA,NA,NA,NA,NA,NA,NA,NA,NA,NA,NA,NA,NA,NA,NA,NA,NA,NA,NA,NA,NA,NA,NA,NA,NA,NA,NA,NA,NA
SUPAMT82113,3KRVW3HTZTKBNUL2G42WY25CRGFSM2,E842C782-8F2F-4F20-8BC8-FEA7469431DB,2023-09-26_18h11.08.629,WP_VExplicitOC_LH,2022.2.5,Win32,15.54629687,NA,NA,NA,NA,NA,NA,NA,NA,NA,NA,NA,NA,NA,NA,NA,NA,NA,NA,NA,NA,NA,NA,NA,NA,NA,NA,NA,NA,NA,NA,NA,NA,NA,NA,NA,NA,NA,NA,NA,NA,NA,NA,NA,NA,NA,NA,NA,NA,NA,NA,NA,NA,NA,NA,NA,NA,NA,NA,NA
SUPAMT82113,3KRVW3HTZTKBNUL2G42WY25CRGFSM2,E842C782-8F2F-4F20-8BC8-FEA7469431DB,2023-09-26_18h11.08.629,WP_VExplicitOC_LH,2022.2.5,Win32,15.54629687,NA,NA,2.0077,NA,NA,NA,NA,NA,bored,"bored, not bored","more bored, less bored",NA,NA,NA,NA,NA,NA,NA,NA,NA,NA,NA,NA,NA,NA,NA,NA,NA,NA,NA,NA,NA,NA,NA,NA,NA,NA,NA,NA,NA,NA,NA,NA,NA,NA,NA,NA,NA,NA,0,0,0,2,1,NA,NA,NA,NA,NA
SUPAMT82113,3KRVW3HTZTKBNUL2G42WY25CRGFSM2,E842C782-8F2F-4F20-8BC8-FEA7469431DB,2023-09-26_18h11.08.629,WP_VExplicitOC_LH,2022.2.5,Win32,15.54629687,53.75851292,4.2183,2.0966,NA,NA,NA,NA,NA,happy,"unhappy, happy","less happy, more happy",NA,NA,NA,NA,NA,NA,NA,NA,NA,NA,NA,NA,NA,NA,NA,NA,NA,NA,NA,NA,NA,NA,NA,NA,NA,NA,NA,NA,NA,NA,NA,NA,NA,NA,NA,NA,NA,NA,0,1,1,0,1,NA,NA,NA,NA,NA
SUPAMT82113,3KRVW3HTZTKBNUL2G42WY25CRGFSM2,E842C782-8F2F-4F20-8BC8-FEA7469431DB,2023-09-26_18h11.08.629,WP_VExplicitOC_LH,2022.2.5,Win32,15.54629687,53.75851292,3.5359,2.0439,NA,NA,NA,NA,NA,frustrated,"frustrated, not frustrated","more frustrated, less frustrated",NA,NA,NA,NA,NA,NA,NA,NA,NA,NA,NA,NA,NA,NA,NA,NA,NA,NA,NA,NA,NA,NA,NA,NA,NA,NA,NA,NA,NA,NA,NA,NA,NA,NA,NA,NA,NA,NA,0,2,2,1,1,NA,NA,NA,NA,NA
SUPAMT82113,3KRVW3HTZTKBNUL2G42WY25CRGFSM2,E842C782-8F2F-4F20-8BC8-FEA7469431DB,2023-09-26_18h11.08.629,WP_VExplicitOC_LH,2022.2.5,Win32,15.54629687,NA,NA,NA,NA,NA,NA,NA,NA,NA,NA,NA,NA,NA,NA,NA,NA,NA,NA,NA,NA,NA,NA,NA,NA,NA,NA,NA,NA,NA,NA,NA,NA,NA,NA,NA,NA,NA,NA,NA,NA,NA,NA,NA,NA,NA,NA,NA,NA,NA,NA,NA,NA,NA,NA,0,0,0,0,1
SUPAMT82113,3KRVW3HTZTKBNUL2G42WY25CRGFSM2,E842C782-8F2F-4F20-8BC8-FEA7469431DB,2023-09-26_18h11.08.629,WP_VExplicitOC_LH,2022.2.5,Win32,15.54629687,53.75851292,4.1628,2.0502,NA,NA,NA,NA,NA,happy,"unhappy, happy","less happy, more happy",NA,NA,NA,NA,NA,NA,NA,NA,NA,NA,NA,NA,NA,NA,NA,NA,NA,NA,NA,NA,NA,NA,NA,NA,NA,NA,NA,NA,NA,NA,NA,NA,NA,NA,NA,NA,NA,NA,0,0,0,0,1,NA,NA,NA,NA,NA
SUPAMT82113,3KRVW3HTZTKBNUL2G42WY25CRGFSM2,E842C782-8F2F-4F20-8BC8-FEA7469431DB,2023-09-26_18h11.08.629,WP_VExplicitOC_LH,2022.2.5,Win32,15.54629687,53.75851292,3.406,2.0361,NA,NA,NA,NA,NA,frustrated,"frustrated, not frustrated","more frustrated, less frustrated",NA,NA,NA,NA,NA,NA,NA,NA,NA,NA,NA,NA,NA,NA,NA,NA,NA,NA,NA,NA,NA,NA,NA,NA,NA,NA,NA,NA,NA,NA,NA,NA,NA,NA,NA,NA,NA,NA,0,1,1,1,1,NA,NA,NA,NA,NA
SUPAMT82113,3KRVW3HTZTKBNUL2G42WY25CRGFSM2,E842C782-8F2F-4F20-8BC8-FEA7469431DB,2023-09-26_18h11.08.629,WP_VExplicitOC_LH,2022.2.5,Win32,15.54629687,53.49798595,3.2992,2.0708,NA,NA,NA,NA,NA,bored,"bored, not bored","more bored, less bored",NA,NA,NA,NA,NA,NA,NA,NA,NA,NA,NA,NA,NA,NA,NA,NA,NA,NA,NA,NA,NA,NA,NA,NA,NA,NA,NA,NA,NA,NA,NA,NA,NA,NA,NA,NA,NA,NA,0,2,2,2,1,NA,NA,NA,NA,NA
SUPAMT82113,3KRVW3HTZTKBNUL2G42WY25CRGFSM2,E842C782-8F2F-4F20-8BC8-FEA7469431DB,2023-09-26_18h11.08.629,WP_VExplicitOC_LH,2022.2.5,Win32,15.54629687,NA,NA,NA,NA,NA,NA,NA,NA,NA,NA,NA,NA,NA,NA,NA,NA,NA,NA,NA,NA,NA,NA,NA,NA,NA,NA,NA,NA,NA,NA,NA,NA,NA,NA,NA,NA,NA,NA,NA,NA,NA,NA,NA,NA,NA,NA,NA,NA,NA,NA,NA,NA,NA,NA,1,0,1,0,1
SUPAMT82113,3KRVW3HTZTKBNUL2G42WY25CRGFSM2,E842C782-8F2F-4F20-8BC8-FEA7469431DB,2023-09-26_18h11.08.629,WP_VExplicitOC_LH,2022.2.5,Win32,15.54629687,41.2536048,3.535,2.0448,NA,NA,NA,NA,NA,frustrated,"frustrated, not frustrated","more frustrated, less frustrated",NA,NA,NA,NA,NA,NA,NA,NA,NA,NA,NA,NA,NA,NA,NA,NA,NA,NA,NA,NA,NA,NA,NA,NA,NA,NA,NA,NA,NA,NA,NA,NA,NA,NA,NA,NA,NA,NA,0,0,0,1,1,NA,NA,NA,NA,NA
SUPAMT82113,3KRVW3HTZTKBNUL2G42WY25CRGFSM2,E842C782-8F2F-4F20-8BC8-FEA7469431DB,2023-09-26_18h11.08.629,WP_VExplicitOC_LH,2022.2.5,Win32,15.54629687,41.77463011,4.0718,2.0463,NA,NA,NA,NA,NA,happy,"unhappy, happy","less happy, more happy",NA,NA,NA,NA,NA,NA,NA,NA,NA,NA,NA,NA,NA,NA,NA,NA,NA,NA,NA,NA,NA,NA,NA,NA,NA,NA,NA,NA,NA,NA,NA,NA,NA,NA,NA,NA,NA,NA,0,1,1,0,1,NA,NA,NA,NA,NA
SUPAMT82113,3KRVW3HTZTKBNUL2G42WY25CRGFSM2,E842C782-8F2F-4F20-8BC8-FEA7469431DB,2023-09-26_18h11.08.629,WP_VExplicitOC_LH,2022.2.5,Win32,15.54629687,41.77463011,3.2842,2.0824,NA,NA,NA,NA,NA,bored,"bored, not bored","more bored, less bored",NA,NA,NA,NA,NA,NA,NA,NA,NA,NA,NA,NA,NA,NA,NA,NA,NA,NA,NA,NA,NA,NA,NA,NA,NA,NA,NA,NA,NA,NA,NA,NA,NA,NA,NA,NA,NA,NA,0,2,2,2,1,NA,NA,NA,NA,NA
SUPAMT82113,3KRVW3HTZTKBNUL2G42WY25CRGFSM2,E842C782-8F2F-4F20-8BC8-FEA7469431DB,2023-09-26_18h11.08.629,WP_VExplicitOC_LH,2022.2.5,Win32,15.54629687,NA,NA,NA,NA,NA,NA,NA,NA,NA,NA,NA,NA,NA,NA,NA,NA,NA,NA,NA,NA,NA,NA,NA,NA,NA,NA,NA,NA,NA,NA,NA,NA,NA,NA,NA,NA,NA,NA,NA,NA,NA,NA,NA,NA,NA,NA,NA,NA,NA,NA,NA,NA,NA,NA,2,0,2,0,1
SUPAMT82113,3KRVW3HTZTKBNUL2G42WY25CRGFSM2,E842C782-8F2F-4F20-8BC8-FEA7469431DB,2023-09-26_18h11.08.629,WP_VExplicitOC_LH,2022.2.5,Win32,15.54629687,41.77463011,4.7357,2.0878,NA,NA,NA,NA,NA,happy,"unhappy, happy","less happy, more happy",NA,NA,NA,NA,NA,NA,NA,NA,NA,NA,NA,NA,NA,NA,NA,NA,NA,NA,NA,NA,NA,NA,NA,NA,NA,NA,NA,NA,NA,NA,NA,NA,NA,NA,NA,NA,NA,NA,0,0,0,0,1,NA,NA,NA,NA,NA
SUPAMT82113,3KRVW3HTZTKBNUL2G42WY25CRGFSM2,E842C782-8F2F-4F20-8BC8-FEA7469431DB,2023-09-26_18h11.08.629,WP_VExplicitOC_LH,2022.2.5,Win32,15.54629687,41.77463011,4.1789,2.0714,NA,NA,NA,NA,NA,bored,"bored, not bored","more bored, less bored",NA,NA,NA,NA,NA,NA,NA,NA,NA,NA,NA,NA,NA,NA,NA,NA,NA,NA,NA,NA,NA,NA,NA,NA,NA,NA,NA,NA,NA,NA,NA,NA,NA,NA,NA,NA,NA,NA,0,1,1,2,1,NA,NA,NA,NA,NA
SUPAMT82113,3KRVW3HTZTKBNUL2G42WY25CRGFSM2,E842C782-8F2F-4F20-8BC8-FEA7469431DB,2023-09-26_18h11.08.629,WP_VExplicitOC_LH,2022.2.5,Win32,15.54629687,41.77463011,4.8893,2.0423,NA,NA,NA,NA,NA,frustrated,"frustrated, not frustrated","more frustrated, less frustrated",NA,NA,NA,NA,NA,NA,NA,NA,NA,NA,NA,NA,NA,NA,NA,NA,NA,NA,NA,NA,NA,NA,NA,NA,NA,NA,NA,NA,NA,NA,NA,NA,NA,NA,NA,NA,NA,NA,0,2,2,1,1,NA,NA,NA,NA,NA
SUPAMT82113,3KRVW3HTZTKBNUL2G42WY25CRGFSM2,E842C782-8F2F-4F20-8BC8-FEA7469431DB,2023-09-26_18h11.08.629,WP_VExplicitOC_LH,2022.2.5,Win32,15.54629687,NA,NA,NA,NA,NA,NA,NA,NA,NA,NA,NA,NA,NA,NA,NA,NA,NA,NA,NA,NA,NA,NA,NA,NA,NA,NA,NA,NA,NA,NA,NA,NA,NA,NA,NA,NA,NA,NA,NA,NA,NA,NA,NA,NA,NA,NA,NA,NA,NA,NA,NA,NA,NA,NA,3,0,3,0,1
SUPAMT82113,3KRVW3HTZTKBNUL2G42WY25CRGFSM2,E842C782-8F2F-4F20-8BC8-FEA7469431DB,2023-09-26_18h11.08.629,WP_VExplicitOC_LH,2022.2.5,Win32,15.54629687,41.77463011,3.1375,2.0813,NA,NA,NA,NA,NA,bored,"bored, not bored","more bored, less bored",NA,NA,NA,NA,NA,NA,NA,NA,NA,NA,NA,NA,NA,NA,NA,NA,NA,NA,NA,NA,NA,NA,NA,NA,NA,NA,NA,NA,NA,NA,NA,NA,NA,NA,NA,NA,NA,NA,0,0,0,2,1,NA,NA,NA,NA,NA
SUPAMT82113,3KRVW3HTZTKBNUL2G42WY25CRGFSM2,E842C782-8F2F-4F20-8BC8-FEA7469431DB,2023-09-26_18h11.08.629,WP_VExplicitOC_LH,2022.2.5,Win32,15.54629687,41.77463011,3.7089,2.081,NA,NA,NA,NA,NA,happy,"unhappy, happy","less happy, more happy",NA,NA,NA,NA,NA,NA,NA,NA,NA,NA,NA,NA,NA,NA,NA,NA,NA,NA,NA,NA,NA,NA,NA,NA,NA,NA,NA,NA,NA,NA,NA,NA,NA,NA,NA,NA,NA,NA,0,1,1,0,1,NA,NA,NA,NA,NA
SUPAMT82113,3KRVW3HTZTKBNUL2G42WY25CRGFSM2,E842C782-8F2F-4F20-8BC8-FEA7469431DB,2023-09-26_18h11.08.629,WP_VExplicitOC_LH,2022.2.5,Win32,15.54629687,41.77463011,4.0596,2.092,NA,NA,NA,NA,NA,frustrated,"frustrated, not frustrated","more frustrated, less frustrated",NA,NA,NA,NA,NA,NA,NA,NA,NA,NA,NA,NA,NA,NA,NA,NA,NA,NA,NA,NA,NA,NA,NA,NA,NA,NA,NA,NA,NA,NA,NA,NA,NA,NA,NA,NA,NA,NA,0,2,2,1,1,NA,NA,NA,NA,NA
SUPAMT82113,3KRVW3HTZTKBNUL2G42WY25CRGFSM2,E842C782-8F2F-4F20-8BC8-FEA7469431DB,2023-09-26_18h11.08.629,WP_VExplicitOC_LH,2022.2.5,Win32,15.54629687,NA,NA,NA,NA,NA,NA,NA,NA,NA,NA,NA,NA,NA,NA,NA,NA,NA,NA,NA,NA,NA,NA,NA,NA,NA,NA,NA,NA,NA,NA,NA,NA,NA,NA,NA,NA,NA,NA,NA,NA,NA,NA,NA,NA,NA,NA,NA,NA,NA,NA,NA,NA,NA,NA,4,0,4,0,1
SUPAMT82113,3KRVW3HTZTKBNUL2G42WY25CRGFSM2,E842C782-8F2F-4F20-8BC8-FEA7469431DB,2023-09-26_18h11.08.629,WP_VExplicitOC_LH,2022.2.5,Win32,15.54629687,53.75851292,4.1615,2.0757,NA,NA,NA,NA,NA,bored,"bored, not bored","more bored, less bored",NA,NA,NA,NA,NA,NA,NA,NA,NA,NA,NA,NA,NA,NA,NA,NA,NA,NA,NA,NA,NA,NA,NA,NA,NA,NA,NA,NA,NA,NA,NA,NA,NA,NA,NA,NA,NA,NA,0,0,0,2,1,NA,NA,NA,NA,NA
SUPAMT82113,3KRVW3HTZTKBNUL2G42WY25CRGFSM2,E842C782-8F2F-4F20-8BC8-FEA7469431DB,2023-09-26_18h11.08.629,WP_VExplicitOC_LH,2022.2.5,Win32,15.54629687,53.75851292,3.2496,2.0855,NA,NA,NA,NA,NA,frustrated,"frustrated, not frustrated","more frustrated, less frustrated",NA,NA,NA,NA,NA,NA,NA,NA,NA,NA,NA,NA,NA,NA,NA,NA,NA,NA,NA,NA,NA,NA,NA,NA,NA,NA,NA,NA,NA,NA,NA,NA,NA,NA,NA,NA,NA,NA,0,1,1,1,1,NA,NA,NA,NA,NA
SUPAMT82113,3KRVW3HTZTKBNUL2G42WY25CRGFSM2,E842C782-8F2F-4F20-8BC8-FEA7469431DB,2023-09-26_18h11.08.629,WP_VExplicitOC_LH,2022.2.5,Win32,15.54629687,57.14526334,3.5448,2.0161,NA,NA,NA,NA,NA,happy,"unhappy, happy","less happy, more happy",NA,NA,NA,NA,NA,NA,NA,NA,NA,NA,NA,NA,NA,NA,NA,NA,NA,NA,NA,NA,NA,NA,NA,NA,NA,NA,NA,NA,NA,NA,NA,NA,NA,NA,NA,NA,NA,NA,0,2,2,0,1,NA,NA,NA,NA,NA
SUPAMT82113,3KRVW3HTZTKBNUL2G42WY25CRGFSM2,E842C782-8F2F-4F20-8BC8-FEA7469431DB,2023-09-26_18h11.08.629,WP_VExplicitOC_LH,2022.2.5,Win32,15.54629687,NA,NA,NA,NA,NA,NA,NA,NA,NA,NA,NA,NA,NA,NA,NA,NA,NA,NA,NA,NA,NA,NA,NA,NA,NA,NA,NA,NA,NA,NA,NA,NA,NA,NA,NA,NA,NA,NA,NA,NA,NA,NA,NA,NA,NA,NA,NA,NA,NA,NA,NA,NA,NA,NA,5,0,5,0,1
SUPAMT82113,3KRVW3HTZTKBNUL2G42WY25CRGFSM2,E842C782-8F2F-4F20-8BC8-FEA7469431DB,2023-09-26_18h11.08.629,WP_VExplicitOC_LH,2022.2.5,Win32,15.54629687,45.68242016,4.1479,2.0661,NA,NA,NA,NA,NA,happy,"unhappy, happy","less happy, more happy",NA,NA,NA,NA,NA,NA,NA,NA,NA,NA,NA,NA,NA,NA,NA,NA,NA,NA,NA,NA,NA,NA,NA,NA,NA,NA,NA,NA,NA,NA,NA,NA,NA,NA,NA,NA,NA,NA,0,0,0,0,1,NA,NA,NA,NA,NA
SUPAMT82113,3KRVW3HTZTKBNUL2G42WY25CRGFSM2,E842C782-8F2F-4F20-8BC8-FEA7469431DB,2023-09-26_18h11.08.629,WP_VExplicitOC_LH,2022.2.5,Win32,15.54629687,49.59021021,3.4797,2.0666,NA,NA,NA,NA,NA,bored,"bored, not bored","more bored, less bored",NA,NA,NA,NA,NA,NA,NA,NA,NA,NA,NA,NA,NA,NA,NA,NA,NA,NA,NA,NA,NA,NA,NA,NA,NA,NA,NA,NA,NA,NA,NA,NA,NA,NA,NA,NA,NA,NA,0,1,1,2,1,NA,NA,NA,NA,NA
SUPAMT82113,3KRVW3HTZTKBNUL2G42WY25CRGFSM2,E842C782-8F2F-4F20-8BC8-FEA7469431DB,2023-09-26_18h11.08.629,WP_VExplicitOC_LH,2022.2.5,Win32,15.54629687,54.54006521,3.4621,2.048,NA,NA,NA,NA,NA,frustrated,"frustrated, not frustrated","more frustrated, less frustrated",NA,NA,NA,NA,NA,NA,NA,NA,NA,NA,NA,NA,NA,NA,NA,NA,NA,NA,NA,NA,NA,NA,NA,NA,NA,NA,NA,NA,NA,NA,NA,NA,NA,NA,NA,NA,NA,NA,0,2,2,1,1,NA,NA,NA,NA,NA
SUPAMT82113,3KRVW3HTZTKBNUL2G42WY25CRGFSM2,E842C782-8F2F-4F20-8BC8-FEA7469431DB,2023-09-26_18h11.08.629,WP_VExplicitOC_LH,2022.2.5,Win32,15.54629687,NA,NA,NA,NA,NA,NA,NA,NA,NA,NA,NA,NA,NA,NA,NA,NA,NA,NA,NA,NA,NA,NA,NA,NA,NA,NA,NA,NA,NA,NA,NA,NA,NA,NA,NA,NA,NA,NA,NA,NA,NA,NA,NA,NA,NA,NA,NA,NA,NA,NA,NA,NA,NA,NA,6,0,6,0,1
SUPAMT82113,3KRVW3HTZTKBNUL2G42WY25CRGFSM2,E842C782-8F2F-4F20-8BC8-FEA7469431DB,2023-09-26_18h11.08.629,WP_VExplicitOC_LH,2022.2.5,Win32,15.54629687,51.86864554,4.0136,2.0553,NA,NA,NA,NA,NA,happy,"unhappy, happy","less happy, more happy",NA,NA,NA,NA,NA,NA,NA,NA,NA,NA,NA,NA,NA,NA,NA,NA,NA,NA,NA,NA,NA,NA,NA,NA,NA,NA,NA,NA,NA,NA,NA,NA,NA,NA,NA,NA,NA,NA,0,0,0,0,1,NA,NA,NA,NA,NA
SUPAMT82113,3KRVW3HTZTKBNUL2G42WY25CRGFSM2,E842C782-8F2F-4F20-8BC8-FEA7469431DB,2023-09-26_18h11.08.629,WP_VExplicitOC_LH,2022.2.5,Win32,15.54629687,51.86864554,5.0985,2.0215,NA,NA,NA,NA,NA,frustrated,"frustrated, not frustrated","more frustrated, less frustrated",NA,NA,NA,NA,NA,NA,NA,NA,NA,NA,NA,NA,NA,NA,NA,NA,NA,NA,NA,NA,NA,NA,NA,NA,NA,NA,NA,NA,NA,NA,NA,NA,NA,NA,NA,NA,NA,NA,0,1,1,1,1,NA,NA,NA,NA,NA
SUPAMT82113,3KRVW3HTZTKBNUL2G42WY25CRGFSM2,E842C782-8F2F-4F20-8BC8-FEA7469431DB,2023-09-26_18h11.08.629,WP_VExplicitOC_LH,2022.2.5,Win32,15.54629687,51.86864554,4.1045,2.0613,NA,NA,NA,NA,NA,bored,"bored, not bored","more bored, less bored",NA,NA,NA,NA,NA,NA,NA,NA,NA,NA,NA,NA,NA,NA,NA,NA,NA,NA,NA,NA,NA,NA,NA,NA,NA,NA,NA,NA,NA,NA,NA,NA,NA,NA,NA,NA,NA,NA,0,2,2,2,1,NA,NA,NA,NA,NA
SUPAMT82113,3KRVW3HTZTKBNUL2G42WY25CRGFSM2,E842C782-8F2F-4F20-8BC8-FEA7469431DB,2023-09-26_18h11.08.629,WP_VExplicitOC_LH,2022.2.5,Win32,15.54629687,NA,NA,NA,NA,NA,NA,NA,NA,NA,NA,NA,NA,NA,NA,NA,NA,NA,NA,NA,NA,NA,NA,NA,NA,NA,NA,NA,NA,NA,NA,NA,NA,NA,NA,NA,NA,NA,NA,NA,NA,NA,NA,NA,NA,NA,NA,NA,NA,NA,NA,NA,NA,NA,NA,7,0,7,0,1
SUPAMT82113,3KRVW3HTZTKBNUL2G42WY25CRGFSM2,E842C782-8F2F-4F20-8BC8-FEA7469431DB,2023-09-26_18h11.08.629,WP_VExplicitOC_LH,2022.2.5,Win32,15.54629687,40.87072527,4.2104,2.0339,NA,NA,NA,NA,NA,happy,"unhappy, happy","less happy, more happy",NA,NA,NA,NA,NA,NA,NA,NA,NA,NA,NA,NA,NA,NA,NA,NA,NA,NA,NA,NA,NA,NA,NA,NA,NA,NA,NA,NA,NA,NA,NA,NA,NA,NA,NA,NA,NA,NA,0,0,0,0,1,NA,NA,NA,NA,NA
SUPAMT82113,3KRVW3HTZTKBNUL2G42WY25CRGFSM2,E842C782-8F2F-4F20-8BC8-FEA7469431DB,2023-09-26_18h11.08.629,WP_VExplicitOC_LH,2022.2.5,Win32,15.54629687,40.87072527,4.4707,2.0423,NA,NA,NA,NA,NA,bored,"bored, not bored","more bored, less bored",NA,NA,NA,NA,NA,NA,NA,NA,NA,NA,NA,NA,NA,NA,NA,NA,NA,NA,NA,NA,NA,NA,NA,NA,NA,NA,NA,NA,NA,NA,NA,NA,NA,NA,NA,NA,NA,NA,0,1,1,2,1,NA,NA,NA,NA,NA
SUPAMT82113,3KRVW3HTZTKBNUL2G42WY25CRGFSM2,E842C782-8F2F-4F20-8BC8-FEA7469431DB,2023-09-26_18h11.08.629,WP_VExplicitOC_LH,2022.2.5,Win32,15.54629687,51.54518514,3.3711,2.0137,NA,NA,NA,NA,NA,frustrated,"frustrated, not frustrated","more frustrated, less frustrated",NA,NA,NA,NA,NA,NA,NA,NA,NA,NA,NA,NA,NA,NA,NA,NA,NA,NA,NA,NA,NA,NA,NA,NA,NA,NA,NA,NA,NA,NA,NA,NA,NA,NA,NA,NA,NA,NA,0,2,2,1,1,NA,NA,NA,NA,NA
SUPAMT82113,3KRVW3HTZTKBNUL2G42WY25CRGFSM2,E842C782-8F2F-4F20-8BC8-FEA7469431DB,2023-09-26_18h11.08.629,WP_VExplicitOC_LH,2022.2.5,Win32,15.54629687,NA,NA,NA,NA,NA,NA,NA,NA,NA,NA,NA,NA,NA,NA,NA,NA,NA,NA,NA,NA,NA,NA,NA,NA,NA,NA,NA,NA,NA,NA,NA,NA,NA,NA,NA,NA,NA,NA,NA,NA,NA,NA,NA,NA,NA,NA,NA,NA,NA,NA,NA,NA,NA,NA,8,0,8,0,1
SUPAMT82113,3KRVW3HTZTKBNUL2G42WY25CRGFSM2,E842C782-8F2F-4F20-8BC8-FEA7469431DB,2023-09-26_18h11.08.629,WP_VExplicitOC_LH,2022.2.5,Win32,15.54629687,55.42679883,4.1288,2.0233,NA,NA,NA,NA,NA,bored,"bored, not bored","more bored, less bored",NA,NA,NA,NA,NA,NA,NA,NA,NA,NA,NA,NA,NA,NA,NA,NA,NA,NA,NA,NA,NA,NA,NA,NA,NA,NA,NA,NA,NA,NA,NA,NA,NA,NA,NA,NA,NA,NA,0,0,0,2,1,NA,NA,NA,NA,NA
SUPAMT82113,3KRVW3HTZTKBNUL2G42WY25CRGFSM2,E842C782-8F2F-4F20-8BC8-FEA7469431DB,2023-09-26_18h11.08.629,WP_VExplicitOC_LH,2022.2.5,Win32,15.54629687,70.30635055,6.5004,2.034,NA,NA,NA,NA,NA,happy,"unhappy, happy","less happy, more happy",NA,NA,NA,NA,NA,NA,NA,NA,NA,NA,NA,NA,NA,NA,NA,NA,NA,NA,NA,NA,NA,NA,NA,NA,NA,NA,NA,NA,NA,NA,NA,NA,NA,NA,NA,NA,NA,NA,0,1,1,0,1,NA,NA,NA,NA,NA
SUPAMT82113,3KRVW3HTZTKBNUL2G42WY25CRGFSM2,E842C782-8F2F-4F20-8BC8-FEA7469431DB,2023-09-26_18h11.08.629,WP_VExplicitOC_LH,2022.2.5,Win32,15.54629687,51.54518514,4.201,2.0221,NA,NA,NA,NA,NA,frustrated,"frustrated, not frustrated","more frustrated, less frustrated",NA,NA,NA,NA,NA,NA,NA,NA,NA,NA,NA,NA,NA,NA,NA,NA,NA,NA,NA,NA,NA,NA,NA,NA,NA,NA,NA,NA,NA,NA,NA,NA,NA,NA,NA,NA,NA,NA,0,2,2,1,1,NA,NA,NA,NA,NA
SUPAMT82113,3KRVW3HTZTKBNUL2G42WY25CRGFSM2,E842C782-8F2F-4F20-8BC8-FEA7469431DB,2023-09-26_18h11.08.629,WP_VExplicitOC_LH,2022.2.5,Win32,15.54629687,NA,NA,NA,NA,NA,NA,NA,NA,NA,NA,NA,NA,NA,NA,NA,NA,NA,NA,NA,NA,NA,NA,NA,NA,NA,NA,NA,NA,NA,NA,NA,NA,NA,NA,NA,NA,NA,NA,NA,NA,NA,NA,NA,NA,NA,NA,NA,NA,NA,NA,NA,NA,NA,NA,9,0,9,0,1
SUPAMT82113,3KRVW3HTZTKBNUL2G42WY25CRGFSM2,E842C782-8F2F-4F20-8BC8-FEA7469431DB,2023-09-26_18h11.08.629,WP_VExplicitOC_LH,2022.2.5,Win32,15.54629687,50.25130798,3.7886,2.022,NA,NA,NA,NA,NA,happy,"unhappy, happy","less happy, more happy",NA,NA,NA,NA,NA,NA,NA,NA,NA,NA,NA,NA,NA,NA,NA,NA,NA,NA,NA,NA,NA,NA,NA,NA,NA,NA,NA,NA,NA,NA,NA,NA,NA,NA,NA,NA,NA,NA,0,0,0,0,1,NA,NA,NA,NA,NA
SUPAMT82113,3KRVW3HTZTKBNUL2G42WY25CRGFSM2,E842C782-8F2F-4F20-8BC8-FEA7469431DB,2023-09-26_18h11.08.629,WP_VExplicitOC_LH,2022.2.5,Win32,15.54629687,50.25130798,3.7938,2.0216,NA,NA,NA,NA,NA,frustrated,"frustrated, not frustrated","more frustrated, less frustrated",NA,NA,NA,NA,NA,NA,NA,NA,NA,NA,NA,NA,NA,NA,NA,NA,NA,NA,NA,NA,NA,NA,NA,NA,NA,NA,NA,NA,NA,NA,NA,NA,NA,NA,NA,NA,NA,NA,0,1,1,1,1,NA,NA,NA,NA,NA
SUPAMT82113,3KRVW3HTZTKBNUL2G42WY25CRGFSM2,E842C782-8F2F-4F20-8BC8-FEA7469431DB,2023-09-26_18h11.08.629,WP_VExplicitOC_LH,2022.2.5,Win32,15.54629687,50.25130798,3.6695,2.0011,NA,NA,NA,NA,NA,bored,"bored, not bored","more bored, less bored",NA,NA,NA,NA,NA,NA,NA,NA,NA,NA,NA,NA,NA,NA,NA,NA,NA,NA,NA,NA,NA,NA,NA,NA,NA,NA,NA,NA,NA,NA,NA,NA,NA,NA,NA,NA,NA,NA,0,2,2,2,1,NA,NA,NA,NA,NA
SUPAMT82113,3KRVW3HTZTKBNUL2G42WY25CRGFSM2,E842C782-8F2F-4F20-8BC8-FEA7469431DB,2023-09-26_18h11.08.629,WP_VExplicitOC_LH,2022.2.5,Win32,15.54629687,NA,NA,NA,NA,NA,NA,NA,NA,NA,NA,NA,NA,NA,NA,NA,NA,NA,NA,NA,NA,NA,NA,NA,NA,NA,NA,NA,NA,NA,NA,NA,NA,NA,NA,NA,NA,NA,NA,NA,NA,NA,NA,NA,NA,NA,NA,NA,NA,NA,NA,NA,NA,NA,NA,10,0,10,0,1
SUPAMT82113,3KRVW3HTZTKBNUL2G42WY25CRGFSM2,E842C782-8F2F-4F20-8BC8-FEA7469431DB,2023-09-26_18h11.08.629,WP_VExplicitOC_LH,2022.2.5,Win32,15.54629687,53.48600087,4.3899,2.0096,NA,NA,NA,NA,NA,bored,"bored, not bored","more bored, less bored",NA,NA,NA,NA,NA,NA,NA,NA,NA,NA,NA,NA,NA,NA,NA,NA,NA,NA,NA,NA,NA,NA,NA,NA,NA,NA,NA,NA,NA,NA,NA,NA,NA,NA,NA,NA,NA,NA,0,0,0,2,1,NA,NA,NA,NA,NA
SUPAMT82113,3KRVW3HTZTKBNUL2G42WY25CRGFSM2,E842C782-8F2F-4F20-8BC8-FEA7469431DB,2023-09-26_18h11.08.629,WP_VExplicitOC_LH,2022.2.5,Win32,15.54629687,63.19004398,4.4862,2.0317,NA,NA,NA,NA,NA,happy,"unhappy, happy","less happy, more happy",NA,NA,NA,NA,NA,NA,NA,NA,NA,NA,NA,NA,NA,NA,NA,NA,NA,NA,NA,NA,NA,NA,NA,NA,NA,NA,NA,NA,NA,NA,NA,NA,NA,NA,NA,NA,NA,NA,0,1,1,0,1,NA,NA,NA,NA,NA
SUPAMT82113,3KRVW3HTZTKBNUL2G42WY25CRGFSM2,E842C782-8F2F-4F20-8BC8-FEA7469431DB,2023-09-26_18h11.08.629,WP_VExplicitOC_LH,2022.2.5,Win32,15.54629687,53.80946127,4.7186,2.0607,NA,NA,NA,NA,NA,frustrated,"frustrated, not frustrated","more frustrated, less frustrated",NA,NA,NA,NA,NA,NA,NA,NA,NA,NA,NA,NA,NA,NA,NA,NA,NA,NA,NA,NA,NA,NA,NA,NA,NA,NA,NA,NA,NA,NA,NA,NA,NA,NA,NA,NA,NA,NA,0,2,2,1,1,NA,NA,NA,NA,NA
SUPAMT82113,3KRVW3HTZTKBNUL2G42WY25CRGFSM2,E842C782-8F2F-4F20-8BC8-FEA7469431DB,2023-09-26_18h11.08.629,WP_VExplicitOC_LH,2022.2.5,Win32,15.54629687,NA,NA,NA,NA,NA,NA,NA,NA,NA,NA,NA,NA,NA,NA,NA,NA,NA,NA,NA,NA,NA,NA,NA,NA,NA,NA,NA,NA,NA,NA,NA,NA,NA,NA,NA,NA,NA,NA,NA,NA,NA,NA,NA,NA,NA,NA,NA,NA,NA,NA,NA,NA,NA,NA,11,0,11,0,1
SUPAMT82113,3KRVW3HTZTKBNUL2G42WY25CRGFSM2,E842C782-8F2F-4F20-8BC8-FEA7469431DB,2023-09-26_18h11.08.629,WP_VExplicitOC_LH,2022.2.5,Win32,15.54629687,53.80946127,3.4558,2.032,NA,NA,NA,NA,NA,happy,"unhappy, happy","less happy, more happy",NA,NA,NA,NA,NA,NA,NA,NA,NA,NA,NA,NA,NA,NA,NA,NA,NA,NA,NA,NA,NA,NA,NA,NA,NA,NA,NA,NA,NA,NA,NA,NA,NA,NA,NA,NA,NA,NA,0,0,0,0,1,NA,NA,NA,NA,NA
SUPAMT82113,3KRVW3HTZTKBNUL2G42WY25CRGFSM2,E842C782-8F2F-4F20-8BC8-FEA7469431DB,2023-09-26_18h11.08.629,WP_VExplicitOC_LH,2022.2.5,Win32,15.54629687,53.48600087,4.1833,2.042,NA,NA,NA,NA,NA,bored,"bored, not bored","more bored, less bored",NA,NA,NA,NA,NA,NA,NA,NA,NA,NA,NA,NA,NA,NA,NA,NA,NA,NA,NA,NA,NA,NA,NA,NA,NA,NA,NA,NA,NA,NA,NA,NA,NA,NA,NA,NA,NA,NA,0,1,1,2,1,NA,NA,NA,NA,NA
SUPAMT82113,3KRVW3HTZTKBNUL2G42WY25CRGFSM2,E842C782-8F2F-4F20-8BC8-FEA7469431DB,2023-09-26_18h11.08.629,WP_VExplicitOC_LH,2022.2.5,Win32,15.54629687,53.48600087,3.5265,2.051,NA,NA,NA,NA,NA,frustrated,"frustrated, not frustrated","more frustrated, less frustrated",NA,NA,NA,NA,NA,NA,NA,NA,NA,NA,NA,NA,NA,NA,NA,NA,NA,NA,NA,NA,NA,NA,NA,NA,NA,NA,NA,NA,NA,NA,NA,NA,NA,NA,NA,NA,NA,NA,0,2,2,1,1,NA,NA,NA,NA,NA
SUPAMT82113,3KRVW3HTZTKBNUL2G42WY25CRGFSM2,E842C782-8F2F-4F20-8BC8-FEA7469431DB,2023-09-26_18h11.08.629,WP_VExplicitOC_LH,2022.2.5,Win32,15.54629687,NA,NA,NA,NA,NA,NA,NA,NA,NA,NA,NA,NA,NA,NA,NA,NA,NA,NA,NA,NA,NA,NA,NA,NA,NA,NA,NA,NA,NA,NA,NA,NA,NA,NA,NA,NA,NA,NA,NA,NA,NA,NA,NA,NA,NA,NA,NA,NA,NA,NA,NA,NA,NA,NA,12,0,12,0,1
SUPAMT82113,3KRVW3HTZTKBNUL2G42WY25CRGFSM2,E842C782-8F2F-4F20-8BC8-FEA7469431DB,2023-09-26_18h11.08.629,WP_VExplicitOC_LH,2022.2.5,Win32,15.54629687,53.48600087,3.4214,2.0236,NA,NA,NA,NA,NA,frustrated,"frustrated, not frustrated","more frustrated, less frustrated",NA,NA,NA,NA,NA,NA,NA,NA,NA,NA,NA,NA,NA,NA,NA,NA,NA,NA,NA,NA,NA,NA,NA,NA,NA,NA,NA,NA,NA,NA,NA,NA,NA,NA,NA,NA,NA,NA,0,0,0,1,1,NA,NA,NA,NA,NA
SUPAMT82113,3KRVW3HTZTKBNUL2G42WY25CRGFSM2,E842C782-8F2F-4F20-8BC8-FEA7469431DB,2023-09-26_18h11.08.629,WP_VExplicitOC_LH,2022.2.5,Win32,15.54629687,53.48600087,3.6864,2.0312,NA,NA,NA,NA,NA,bored,"bored, not bored","more bored, less bored",NA,NA,NA,NA,NA,NA,NA,NA,NA,NA,NA,NA,NA,NA,NA,NA,NA,NA,NA,NA,NA,NA,NA,NA,NA,NA,NA,NA,NA,NA,NA,NA,NA,NA,NA,NA,NA,NA,0,1,1,2,1,NA,NA,NA,NA,NA
SUPAMT82113,3KRVW3HTZTKBNUL2G42WY25CRGFSM2,E842C782-8F2F-4F20-8BC8-FEA7469431DB,2023-09-26_18h11.08.629,WP_VExplicitOC_LH,2022.2.5,Win32,15.54629687,53.48600087,4.398,2.0451,NA,NA,NA,NA,NA,happy,"unhappy, happy","less happy, more happy",NA,NA,NA,NA,NA,NA,NA,NA,NA,NA,NA,NA,NA,NA,NA,NA,NA,NA,NA,NA,NA,NA,NA,NA,NA,NA,NA,NA,NA,NA,NA,NA,NA,NA,NA,NA,NA,NA,0,2,2,0,1,NA,NA,NA,NA,NA
SUPAMT82113,3KRVW3HTZTKBNUL2G42WY25CRGFSM2,E842C782-8F2F-4F20-8BC8-FEA7469431DB,2023-09-26_18h11.08.629,WP_VExplicitOC_LH,2022.2.5,Win32,15.54629687,NA,NA,NA,NA,NA,NA,NA,NA,NA,NA,NA,NA,NA,NA,NA,NA,NA,NA,NA,NA,NA,NA,NA,NA,NA,NA,NA,NA,NA,NA,NA,NA,NA,NA,NA,NA,NA,NA,NA,NA,NA,NA,NA,NA,NA,NA,NA,NA,NA,NA,NA,NA,NA,NA,13,0,13,0,1
SUPAMT82113,3KRVW3HTZTKBNUL2G42WY25CRGFSM2,E842C782-8F2F-4F20-8BC8-FEA7469431DB,2023-09-26_18h11.08.629,WP_VExplicitOC_LH,2022.2.5,Win32,15.54629687,53.48600087,3.0069,2.0239,NA,NA,NA,NA,NA,bored,"bored, not bored","more bored, less bored",NA,NA,NA,NA,NA,NA,NA,NA,NA,NA,NA,NA,NA,NA,NA,NA,NA,NA,NA,NA,NA,NA,NA,NA,NA,NA,NA,NA,NA,NA,NA,NA,NA,NA,NA,NA,NA,NA,0,0,0,2,1,NA,NA,NA,NA,NA
SUPAMT82113,3KRVW3HTZTKBNUL2G42WY25CRGFSM2,E842C782-8F2F-4F20-8BC8-FEA7469431DB,2023-09-26_18h11.08.629,WP_VExplicitOC_LH,2022.2.5,Win32,15.54629687,53.48600087,4.3244,2.0462,NA,NA,NA,NA,NA,happy,"unhappy, happy","less happy, more happy",NA,NA,NA,NA,NA,NA,NA,NA,NA,NA,NA,NA,NA,NA,NA,NA,NA,NA,NA,NA,NA,NA,NA,NA,NA,NA,NA,NA,NA,NA,NA,NA,NA,NA,NA,NA,NA,NA,0,1,1,0,1,NA,NA,NA,NA,NA
SUPAMT82113,3KRVW3HTZTKBNUL2G42WY25CRGFSM2,E842C782-8F2F-4F20-8BC8-FEA7469431DB,2023-09-26_18h11.08.629,WP_VExplicitOC_LH,2022.2.5,Win32,15.54629687,59.95536886,3.8346,2.0497,NA,NA,NA,NA,NA,frustrated,"frustrated, not frustrated","more frustrated, less frustrated",NA,NA,NA,NA,NA,NA,NA,NA,NA,NA,NA,NA,NA,NA,NA,NA,NA,NA,NA,NA,NA,NA,NA,NA,NA,NA,NA,NA,NA,NA,NA,NA,NA,NA,NA,NA,NA,NA,0,2,2,1,1,NA,NA,NA,NA,NA
SUPAMT82113,3KRVW3HTZTKBNUL2G42WY25CRGFSM2,E842C782-8F2F-4F20-8BC8-FEA7469431DB,2023-09-26_18h11.08.629,WP_VExplicitOC_LH,2022.2.5,Win32,15.54629687,NA,NA,NA,NA,NA,NA,NA,NA,NA,NA,NA,NA,NA,NA,NA,NA,NA,NA,NA,NA,NA,NA,NA,NA,NA,NA,NA,NA,NA,NA,NA,NA,NA,NA,NA,NA,NA,NA,NA,NA,NA,NA,NA,NA,NA,NA,NA,NA,NA,NA,NA,NA,NA,NA,14,0,14,0,1
SUPAMT82113,3KRVW3HTZTKBNUL2G42WY25CRGFSM2,E842C782-8F2F-4F20-8BC8-FEA7469431DB,2023-09-26_18h11.08.629,WP_VExplicitOC_LH,2022.2.5,Win32,15.54629687,NA,NA,NA,NA,NA,NA,NA,NA,NA,NA,NA,NA,NA,NA,NA,NA,NA,NA,NA,NA,NA,NA,NA,NA,NA,NA,NA,NA,NA,NA,NA,NA,NA,NA,NA,NA,NA,NA,NA,NA,NA,NA,NA,NA,NA,NA,NA,NA,NA,NA,NA,NA,NA,NA,NA,NA,NA,NA,NA
