participant,session,completion,date,expName,psychopyVersion,OS,frameRate,rating_all.response,rating_all.rt,rating_all.tStart,rndRat1.thisRepN,rndRat1.thisTrialN,rndRat1.thisN,rndRat1.thisIndex,rndRat1.ran,Emo,Labs,Labs2,rating_alt.response,rating_alt.rt,AltC.thisRepN,AltC.thisTrialN,AltC.thisN,AltC.thisIndex,AltC.ran,alt_choices,pic_choices,TopAlt_Choice,rndRat2.thisRepN,rndRat2.thisTrialN,rndRat2.thisN,rndRat2.thisIndex,rndRat2.ran,rndRat3.thisRepN,rndRat3.thisTrialN,rndRat3.thisN,rndRat3.thisIndex,rndRat3.ran,trials_FC_H.thisRepN,trials_FC_H.thisTrialN,trials_FC_H.thisN,trials_FC_H.thisIndex,trials_FC_H.ran,rating_alt_2.response,rating_alt_2.rt,AltC2.thisRepN,AltC2.thisTrialN,AltC2.thisN,AltC2.thisIndex,AltC2.ran,BottomAlt_Choice,rndRat4.thisRepN,rndRat4.thisTrialN,rndRat4.thisN,rndRat4.thisIndex,rndRat4.ran,rndRat5.thisRepN,rndRat5.thisTrialN,rndRat5.thisN,rndRat5.thisIndex,rndRat5.ran,trials_FC_L.thisRepN,trials_FC_L.thisTrialN,trials_FC_L.thisN,trials_FC_L.thisIndex,trials_FC_L.ran
SUPAMT21877,3XM0HYN6NQYGYEDX7PAJQPVSVROEPK,EAA7AEE5-A6DB-431B-80BA-C2762ED60C45,2023-09-26_09h48.52.046,WP_VExplicitOC_HL,2022.2.5,Win32,22.077492,NA,NA,NA,NA,NA,NA,NA,NA,NA,NA,NA,NA,NA,NA,NA,NA,NA,NA,NA,NA,NA,NA,NA,NA,NA,NA,NA,NA,NA,NA,NA,NA,NA,NA,NA,NA,NA,NA,NA,NA,NA,NA,NA,NA,NA,NA,NA,NA,NA,NA,NA,NA,NA,NA,NA,NA,NA,NA,NA
SUPAMT21877,3XM0HYN6NQYGYEDX7PAJQPVSVROEPK,EAA7AEE5-A6DB-431B-80BA-C2762ED60C45,2023-09-26_09h48.52.046,WP_VExplicitOC_HL,2022.2.5,Win32,22.077492,NA,NA,NA,NA,NA,NA,NA,NA,NA,NA,NA,NA,NA,NA,NA,NA,NA,NA,NA,NA,NA,NA,NA,NA,NA,NA,NA,NA,NA,NA,NA,NA,NA,NA,NA,NA,NA,NA,NA,NA,NA,NA,NA,NA,NA,NA,NA,NA,NA,NA,NA,NA,NA,NA,NA,NA,NA,NA,NA
SUPAMT21877,3XM0HYN6NQYGYEDX7PAJQPVSVROEPK,EAA7AEE5-A6DB-431B-80BA-C2762ED60C45,2023-09-26_09h48.52.046,WP_VExplicitOC_HL,2022.2.5,Win32,22.077492,NA,NA,NA,NA,NA,NA,NA,NA,NA,NA,NA,NA,NA,NA,NA,NA,NA,NA,NA,NA,NA,NA,NA,NA,NA,NA,NA,NA,NA,NA,NA,NA,NA,NA,NA,NA,NA,NA,NA,NA,NA,NA,NA,NA,NA,NA,NA,NA,NA,NA,NA,NA,NA,NA,NA,NA,NA,NA,NA
SUPAMT21877,3XM0HYN6NQYGYEDX7PAJQPVSVROEPK,EAA7AEE5-A6DB-431B-80BA-C2762ED60C45,2023-09-26_09h48.52.046,WP_VExplicitOC_HL,2022.2.5,Win32,22.077492,40.625,4.3934,2.0295,0,0,0,0,1,happy,"unhappy, happy","less happy, more happy",NA,NA,NA,NA,NA,NA,NA,NA,NA,NA,NA,NA,NA,NA,NA,NA,NA,NA,NA,NA,NA,NA,NA,NA,NA,NA,NA,NA,NA,NA,NA,NA,NA,NA,NA,NA,NA,NA,NA,NA,NA,NA,NA,NA,NA,NA,NA,NA
SUPAMT21877,3XM0HYN6NQYGYEDX7PAJQPVSVROEPK,EAA7AEE5-A6DB-431B-80BA-C2762ED60C45,2023-09-26_09h48.52.046,WP_VExplicitOC_HL,2022.2.5,Win32,22.077492,-32.63327948,4.096,2.0549,0,1,1,1,1,frustrated,"frustrated, not frustrated","more frustrated, less frustrated",NA,NA,NA,NA,NA,NA,NA,NA,NA,NA,NA,NA,NA,NA,NA,NA,NA,NA,NA,NA,NA,NA,NA,NA,NA,NA,NA,NA,NA,NA,NA,NA,NA,NA,NA,NA,NA,NA,NA,NA,NA,NA,NA,NA,NA,NA,NA,NA
SUPAMT21877,3XM0HYN6NQYGYEDX7PAJQPVSVROEPK,EAA7AEE5-A6DB-431B-80BA-C2762ED60C45,2023-09-26_09h48.52.046,WP_VExplicitOC_HL,2022.2.5,Win32,22.077492,36.83360258,3.8817,2.0087,0,2,2,2,1,bored,"bored, not bored","more bored, less bored",NA,NA,NA,NA,NA,NA,NA,NA,NA,NA,NA,NA,NA,NA,NA,NA,NA,NA,NA,NA,NA,NA,NA,NA,NA,NA,NA,NA,NA,NA,NA,NA,NA,NA,NA,NA,NA,NA,NA,NA,NA,NA,NA,NA,NA,NA,NA,NA
SUPAMT21877,3XM0HYN6NQYGYEDX7PAJQPVSVROEPK,EAA7AEE5-A6DB-431B-80BA-C2762ED60C45,2023-09-26_09h48.52.046,WP_VExplicitOC_HL,2022.2.5,Win32,22.077492,NA,NA,NA,NA,NA,NA,NA,NA,NA,NA,NA,NA,NA,NA,NA,NA,NA,NA,NA,NA,NA,NA,NA,NA,NA,NA,NA,NA,NA,NA,NA,NA,NA,NA,NA,NA,NA,NA,NA,NA,NA,NA,NA,NA,NA,NA,NA,NA,NA,NA,NA,NA,NA,NA,NA,NA,NA,NA,NA
SUPAMT21877,3XM0HYN6NQYGYEDX7PAJQPVSVROEPK,EAA7AEE5-A6DB-431B-80BA-C2762ED60C45,2023-09-26_09h48.52.046,WP_VExplicitOC_HL,2022.2.5,Win32,22.077492,NA,NA,NA,NA,NA,NA,NA,NA,NA,NA,NA,NA,NA,NA,NA,NA,NA,NA,NA,NA,NA,NA,NA,NA,NA,NA,NA,NA,NA,NA,NA,NA,NA,NA,NA,NA,NA,NA,NA,NA,NA,NA,NA,NA,NA,NA,NA,NA,NA,NA,NA,NA,NA,NA,NA,NA,NA,NA,NA
SUPAMT21877,3XM0HYN6NQYGYEDX7PAJQPVSVROEPK,EAA7AEE5-A6DB-431B-80BA-C2762ED60C45,2023-09-26_09h48.52.046,WP_VExplicitOC_HL,2022.2.5,Win32,22.077492,NA,NA,NA,NA,NA,NA,NA,NA,NA,NA,NA,NA,NA,NA,NA,NA,NA,NA,NA,NA,NA,NA,NA,NA,NA,NA,NA,NA,NA,NA,NA,NA,NA,NA,NA,NA,NA,NA,NA,NA,NA,NA,NA,NA,NA,NA,NA,NA,NA,NA,NA,NA,NA,NA,NA,NA,NA,NA,NA
SUPAMT21877,3XM0HYN6NQYGYEDX7PAJQPVSVROEPK,EAA7AEE5-A6DB-431B-80BA-C2762ED60C45,2023-09-26_09h48.52.046,WP_VExplicitOC_HL,2022.2.5,Win32,22.077492,NA,NA,NA,NA,NA,NA,NA,NA,NA,NA,NA,NA,NA,NA,NA,NA,NA,NA,NA,NA,NA,NA,NA,NA,NA,NA,NA,NA,NA,NA,NA,NA,NA,NA,NA,NA,NA,NA,NA,NA,NA,NA,NA,NA,NA,NA,NA,NA,NA,NA,NA,NA,NA,NA,NA,NA,NA,NA,NA
SUPAMT21877,3XM0HYN6NQYGYEDX7PAJQPVSVROEPK,EAA7AEE5-A6DB-431B-80BA-C2762ED60C45,2023-09-26_09h48.52.046,WP_VExplicitOC_HL,2022.2.5,Win32,22.077492,NA,NA,NA,NA,NA,NA,NA,NA,NA,NA,NA,36.83360258,1.7814,0,0,0,0,1,rest (looking at a fixed cross),001.png,NA,NA,NA,NA,NA,NA,NA,NA,NA,NA,NA,NA,NA,NA,NA,NA,NA,NA,NA,NA,NA,NA,NA,NA,NA,NA,NA,NA,NA,NA,NA,NA,NA,NA,NA,NA,NA,NA,NA
SUPAMT21877,3XM0HYN6NQYGYEDX7PAJQPVSVROEPK,EAA7AEE5-A6DB-431B-80BA-C2762ED60C45,2023-09-26_09h48.52.046,WP_VExplicitOC_HL,2022.2.5,Win32,22.077492,NA,NA,NA,NA,NA,NA,NA,NA,NA,NA,NA,53.31179321,1.5627,0,1,1,1,1,stand up,002.png,NA,NA,NA,NA,NA,NA,NA,NA,NA,NA,NA,NA,NA,NA,NA,NA,NA,NA,NA,NA,NA,NA,NA,NA,NA,NA,NA,NA,NA,NA,NA,NA,NA,NA,NA,NA,NA,NA,NA
SUPAMT21877,3XM0HYN6NQYGYEDX7PAJQPVSVROEPK,EAA7AEE5-A6DB-431B-80BA-C2762ED60C45,2023-09-26_09h48.52.046,WP_VExplicitOC_HL,2022.2.5,Win32,22.077492,NA,NA,NA,NA,NA,NA,NA,NA,NA,NA,NA,35.54119548,1.2476,0,2,2,2,1,stretch,003.png,NA,NA,NA,NA,NA,NA,NA,NA,NA,NA,NA,NA,NA,NA,NA,NA,NA,NA,NA,NA,NA,NA,NA,NA,NA,NA,NA,NA,NA,NA,NA,NA,NA,NA,NA,NA,NA,NA,NA
SUPAMT21877,3XM0HYN6NQYGYEDX7PAJQPVSVROEPK,EAA7AEE5-A6DB-431B-80BA-C2762ED60C45,2023-09-26_09h48.52.046,WP_VExplicitOC_HL,2022.2.5,Win32,22.077492,NA,NA,NA,NA,NA,NA,NA,NA,NA,NA,NA,67.52827141,1.6935,0,3,3,3,1,make a drink,004.png,NA,NA,NA,NA,NA,NA,NA,NA,NA,NA,NA,NA,NA,NA,NA,NA,NA,NA,NA,NA,NA,NA,NA,NA,NA,NA,NA,NA,NA,NA,NA,NA,NA,NA,NA,NA,NA,NA,NA
SUPAMT21877,3XM0HYN6NQYGYEDX7PAJQPVSVROEPK,EAA7AEE5-A6DB-431B-80BA-C2762ED60C45,2023-09-26_09h48.52.046,WP_VExplicitOC_HL,2022.2.5,Win32,22.077492,NA,NA,NA,NA,NA,NA,NA,NA,NA,NA,NA,49.75767367,1.3432,0,4,4,4,1,scroll social media,005.png,NA,NA,NA,NA,NA,NA,NA,NA,NA,NA,NA,NA,NA,NA,NA,NA,NA,NA,NA,NA,NA,NA,NA,NA,NA,NA,NA,NA,NA,NA,NA,NA,NA,NA,NA,NA,NA,NA,NA
SUPAMT21877,3XM0HYN6NQYGYEDX7PAJQPVSVROEPK,EAA7AEE5-A6DB-431B-80BA-C2762ED60C45,2023-09-26_09h48.52.046,WP_VExplicitOC_HL,2022.2.5,Win32,22.077492,NA,NA,NA,NA,NA,NA,NA,NA,NA,NA,NA,37.15670436,1.2162,0,5,5,5,1,listen to music,006.png,NA,NA,NA,NA,NA,NA,NA,NA,NA,NA,NA,NA,NA,NA,NA,NA,NA,NA,NA,NA,NA,NA,NA,NA,NA,NA,NA,NA,NA,NA,NA,NA,NA,NA,NA,NA,NA,NA,NA
SUPAMT21877,3XM0HYN6NQYGYEDX7PAJQPVSVROEPK,EAA7AEE5-A6DB-431B-80BA-C2762ED60C45,2023-09-26_09h48.52.046,WP_VExplicitOC_HL,2022.2.5,Win32,22.077492,NA,NA,NA,NA,NA,NA,NA,NA,NA,NA,NA,-20.67851373,2.5425,0,6,6,6,1,daydream,007.png,NA,NA,NA,NA,NA,NA,NA,NA,NA,NA,NA,NA,NA,NA,NA,NA,NA,NA,NA,NA,NA,NA,NA,NA,NA,NA,NA,NA,NA,NA,NA,NA,NA,NA,NA,NA,NA,NA,NA
SUPAMT21877,3XM0HYN6NQYGYEDX7PAJQPVSVROEPK,EAA7AEE5-A6DB-431B-80BA-C2762ED60C45,2023-09-26_09h48.52.046,WP_VExplicitOC_HL,2022.2.5,Win32,22.077492,NA,NA,NA,NA,NA,NA,NA,NA,NA,NA,NA,24.23263328,1.5023,0,7,7,7,1,watch a short animation,008.png,NA,NA,NA,NA,NA,NA,NA,NA,NA,NA,NA,NA,NA,NA,NA,NA,NA,NA,NA,NA,NA,NA,NA,NA,NA,NA,NA,NA,NA,NA,NA,NA,NA,NA,NA,NA,NA,NA,NA
SUPAMT21877,3XM0HYN6NQYGYEDX7PAJQPVSVROEPK,EAA7AEE5-A6DB-431B-80BA-C2762ED60C45,2023-09-26_09h48.52.046,WP_VExplicitOC_HL,2022.2.5,Win32,22.077492,NA,NA,NA,NA,NA,NA,NA,NA,NA,NA,NA,46.84975767,0.9876,0,8,8,8,1,read a novel,009.png,NA,NA,NA,NA,NA,NA,NA,NA,NA,NA,NA,NA,NA,NA,NA,NA,NA,NA,NA,NA,NA,NA,NA,NA,NA,NA,NA,NA,NA,NA,NA,NA,NA,NA,NA,NA,NA,NA,NA
SUPAMT21877,3XM0HYN6NQYGYEDX7PAJQPVSVROEPK,EAA7AEE5-A6DB-431B-80BA-C2762ED60C45,2023-09-26_09h48.52.046,WP_VExplicitOC_HL,2022.2.5,Win32,22.077492,NA,NA,NA,NA,NA,NA,NA,NA,NA,NA,NA,64.29725363,0.8622,0,9,9,9,1,read the news,010.png,NA,NA,NA,NA,NA,NA,NA,NA,NA,NA,NA,NA,NA,NA,NA,NA,NA,NA,NA,NA,NA,NA,NA,NA,NA,NA,NA,NA,NA,NA,NA,NA,NA,NA,NA,NA,NA,NA,NA
SUPAMT21877,3XM0HYN6NQYGYEDX7PAJQPVSVROEPK,EAA7AEE5-A6DB-431B-80BA-C2762ED60C45,2023-09-26_09h48.52.046,WP_VExplicitOC_HL,2022.2.5,Win32,22.077492,NA,NA,NA,NA,NA,NA,NA,NA,NA,NA,NA,NA,NA,NA,NA,NA,NA,NA,NA,NA,NA,NA,NA,NA,NA,NA,NA,NA,NA,NA,NA,NA,NA,NA,NA,NA,NA,NA,NA,NA,NA,NA,NA,NA,NA,NA,NA,NA,NA,NA,NA,NA,NA,NA,NA,NA,NA,NA,NA
SUPAMT21877,3XM0HYN6NQYGYEDX7PAJQPVSVROEPK,EAA7AEE5-A6DB-431B-80BA-C2762ED60C45,2023-09-26_09h48.52.046,WP_VExplicitOC_HL,2022.2.5,Win32,22.077492,NA,NA,NA,NA,NA,NA,NA,NA,NA,NA,NA,NA,NA,NA,NA,NA,NA,NA,NA,NA,make a drink,NA,NA,NA,NA,NA,NA,NA,NA,NA,NA,NA,NA,NA,NA,NA,NA,NA,NA,NA,NA,NA,NA,NA,NA,NA,NA,NA,NA,NA,NA,NA,NA,NA,NA,NA,NA,NA,NA
SUPAMT21877,3XM0HYN6NQYGYEDX7PAJQPVSVROEPK,EAA7AEE5-A6DB-431B-80BA-C2762ED60C45,2023-09-26_09h48.52.046,WP_VExplicitOC_HL,2022.2.5,Win32,22.077492,32.63327948,3.9512,2.0242,NA,NA,NA,NA,NA,bored,"bored, not bored","more bored, less bored",NA,NA,NA,NA,NA,NA,NA,NA,NA,NA,0,0,0,2,1,NA,NA,NA,NA,NA,NA,NA,NA,NA,NA,NA,NA,NA,NA,NA,NA,NA,NA,NA,NA,NA,NA,NA,NA,NA,NA,NA,NA,NA,NA,NA,NA,NA
SUPAMT21877,3XM0HYN6NQYGYEDX7PAJQPVSVROEPK,EAA7AEE5-A6DB-431B-80BA-C2762ED60C45,2023-09-26_09h48.52.046,WP_VExplicitOC_HL,2022.2.5,Win32,22.077492,-62.0355412,4.0847,2.0494,NA,NA,NA,NA,NA,frustrated,"frustrated, not frustrated","more frustrated, less frustrated",NA,NA,NA,NA,NA,NA,NA,NA,NA,NA,0,1,1,1,1,NA,NA,NA,NA,NA,NA,NA,NA,NA,NA,NA,NA,NA,NA,NA,NA,NA,NA,NA,NA,NA,NA,NA,NA,NA,NA,NA,NA,NA,NA,NA,NA,NA
SUPAMT21877,3XM0HYN6NQYGYEDX7PAJQPVSVROEPK,EAA7AEE5-A6DB-431B-80BA-C2762ED60C45,2023-09-26_09h48.52.046,WP_VExplicitOC_HL,2022.2.5,Win32,22.077492,48.78836834,4.0695,2.0594,NA,NA,NA,NA,NA,happy,"unhappy, happy","less happy, more happy",NA,NA,NA,NA,NA,NA,NA,NA,NA,NA,0,2,2,0,1,NA,NA,NA,NA,NA,NA,NA,NA,NA,NA,NA,NA,NA,NA,NA,NA,NA,NA,NA,NA,NA,NA,NA,NA,NA,NA,NA,NA,NA,NA,NA,NA,NA
SUPAMT21877,3XM0HYN6NQYGYEDX7PAJQPVSVROEPK,EAA7AEE5-A6DB-431B-80BA-C2762ED60C45,2023-09-26_09h48.52.046,WP_VExplicitOC_HL,2022.2.5,Win32,22.077492,NA,NA,NA,NA,NA,NA,NA,NA,NA,NA,NA,NA,NA,NA,NA,NA,NA,NA,NA,NA,NA,NA,NA,NA,NA,NA,NA,NA,NA,NA,NA,NA,NA,NA,NA,NA,NA,NA,NA,NA,NA,NA,NA,NA,NA,NA,NA,NA,NA,NA,NA,NA,NA,NA,NA,NA,NA,NA,NA
SUPAMT21877,3XM0HYN6NQYGYEDX7PAJQPVSVROEPK,EAA7AEE5-A6DB-431B-80BA-C2762ED60C45,2023-09-26_09h48.52.046,WP_VExplicitOC_HL,2022.2.5,Win32,22.077492,NA,NA,NA,NA,NA,NA,NA,NA,NA,NA,NA,NA,NA,NA,NA,NA,NA,NA,NA,NA,NA,NA,NA,NA,NA,NA,NA,NA,NA,NA,NA,NA,NA,NA,NA,NA,NA,NA,NA,NA,NA,NA,NA,NA,NA,NA,NA,NA,NA,NA,NA,NA,NA,NA,NA,NA,NA,NA,NA
SUPAMT21877,3XM0HYN6NQYGYEDX7PAJQPVSVROEPK,EAA7AEE5-A6DB-431B-80BA-C2762ED60C45,2023-09-26_09h48.52.046,WP_VExplicitOC_HL,2022.2.5,Win32,22.077492,20.03231018,6.0924,2.0022,NA,NA,NA,NA,NA,bored,"bored, not bored","more bored, less bored",NA,NA,NA,NA,NA,NA,NA,NA,NA,NA,NA,NA,NA,NA,NA,0,0,0,2,1,NA,NA,NA,NA,NA,NA,NA,NA,NA,NA,NA,NA,NA,NA,NA,NA,NA,NA,NA,NA,NA,NA,NA,NA,NA,NA,NA,NA
SUPAMT21877,3XM0HYN6NQYGYEDX7PAJQPVSVROEPK,EAA7AEE5-A6DB-431B-80BA-C2762ED60C45,2023-09-26_09h48.52.046,WP_VExplicitOC_HL,2022.2.5,Win32,22.077492,29.07915994,4.1962,2.0047,NA,NA,NA,NA,NA,happy,"unhappy, happy","less happy, more happy",NA,NA,NA,NA,NA,NA,NA,NA,NA,NA,NA,NA,NA,NA,NA,0,1,1,0,1,NA,NA,NA,NA,NA,NA,NA,NA,NA,NA,NA,NA,NA,NA,NA,NA,NA,NA,NA,NA,NA,NA,NA,NA,NA,NA,NA,NA
SUPAMT21877,3XM0HYN6NQYGYEDX7PAJQPVSVROEPK,EAA7AEE5-A6DB-431B-80BA-C2762ED60C45,2023-09-26_09h48.52.046,WP_VExplicitOC_HL,2022.2.5,Win32,22.077492,-23.58642973,4.9627,2.0216,NA,NA,NA,NA,NA,frustrated,"frustrated, not frustrated","more frustrated, less frustrated",NA,NA,NA,NA,NA,NA,NA,NA,NA,NA,NA,NA,NA,NA,NA,0,2,2,1,1,NA,NA,NA,NA,NA,NA,NA,NA,NA,NA,NA,NA,NA,NA,NA,NA,NA,NA,NA,NA,NA,NA,NA,NA,NA,NA,NA,NA
SUPAMT21877,3XM0HYN6NQYGYEDX7PAJQPVSVROEPK,EAA7AEE5-A6DB-431B-80BA-C2762ED60C45,2023-09-26_09h48.52.046,WP_VExplicitOC_HL,2022.2.5,Win32,22.077492,NA,NA,NA,NA,NA,NA,NA,NA,NA,NA,NA,NA,NA,NA,NA,NA,NA,NA,NA,NA,NA,NA,NA,NA,NA,NA,NA,NA,NA,NA,NA,0,0,0,0,1,NA,NA,NA,NA,NA,NA,NA,NA,NA,NA,NA,NA,NA,NA,NA,NA,NA,NA,NA,NA,NA,NA,NA
SUPAMT21877,3XM0HYN6NQYGYEDX7PAJQPVSVROEPK,EAA7AEE5-A6DB-431B-80BA-C2762ED60C45,2023-09-26_09h48.52.046,WP_VExplicitOC_HL,2022.2.5,Win32,22.077492,NA,NA,2.0068,NA,NA,NA,NA,NA,frustrated,"frustrated, not frustrated","more frustrated, less frustrated",NA,NA,NA,NA,NA,NA,NA,NA,NA,NA,NA,NA,NA,NA,NA,0,0,0,1,1,NA,NA,NA,NA,NA,NA,NA,NA,NA,NA,NA,NA,NA,NA,NA,NA,NA,NA,NA,NA,NA,NA,NA,NA,NA,NA,NA,NA
SUPAMT21877,3XM0HYN6NQYGYEDX7PAJQPVSVROEPK,EAA7AEE5-A6DB-431B-80BA-C2762ED60C45,2023-09-26_09h48.52.046,WP_VExplicitOC_HL,2022.2.5,Win32,22.077492,NA,NA,2.0399,NA,NA,NA,NA,NA,bored,"bored, not bored","more bored, less bored",NA,NA,NA,NA,NA,NA,NA,NA,NA,NA,NA,NA,NA,NA,NA,0,1,1,2,1,NA,NA,NA,NA,NA,NA,NA,NA,NA,NA,NA,NA,NA,NA,NA,NA,NA,NA,NA,NA,NA,NA,NA,NA,NA,NA,NA,NA
SUPAMT21877,3XM0HYN6NQYGYEDX7PAJQPVSVROEPK,EAA7AEE5-A6DB-431B-80BA-C2762ED60C45,2023-09-26_09h48.52.046,WP_VExplicitOC_HL,2022.2.5,Win32,22.077492,26.8174475,4.3209,2.017,NA,NA,NA,NA,NA,happy,"unhappy, happy","less happy, more happy",NA,NA,NA,NA,NA,NA,NA,NA,NA,NA,NA,NA,NA,NA,NA,0,2,2,0,1,NA,NA,NA,NA,NA,NA,NA,NA,NA,NA,NA,NA,NA,NA,NA,NA,NA,NA,NA,NA,NA,NA,NA,NA,NA,NA,NA,NA
SUPAMT21877,3XM0HYN6NQYGYEDX7PAJQPVSVROEPK,EAA7AEE5-A6DB-431B-80BA-C2762ED60C45,2023-09-26_09h48.52.046,WP_VExplicitOC_HL,2022.2.5,Win32,22.077492,NA,NA,NA,NA,NA,NA,NA,NA,NA,NA,NA,NA,NA,NA,NA,NA,NA,NA,NA,NA,NA,NA,NA,NA,NA,NA,NA,NA,NA,NA,NA,1,0,1,0,1,NA,NA,NA,NA,NA,NA,NA,NA,NA,NA,NA,NA,NA,NA,NA,NA,NA,NA,NA,NA,NA,NA,NA
SUPAMT21877,3XM0HYN6NQYGYEDX7PAJQPVSVROEPK,EAA7AEE5-A6DB-431B-80BA-C2762ED60C45,2023-09-26_09h48.52.046,WP_VExplicitOC_HL,2022.2.5,Win32,22.077492,-36.51050081,4.5764,2.0443,NA,NA,NA,NA,NA,frustrated,"frustrated, not frustrated","more frustrated, less frustrated",NA,NA,NA,NA,NA,NA,NA,NA,NA,NA,NA,NA,NA,NA,NA,0,0,0,1,1,NA,NA,NA,NA,NA,NA,NA,NA,NA,NA,NA,NA,NA,NA,NA,NA,NA,NA,NA,NA,NA,NA,NA,NA,NA,NA,NA,NA
SUPAMT21877,3XM0HYN6NQYGYEDX7PAJQPVSVROEPK,EAA7AEE5-A6DB-431B-80BA-C2762ED60C45,2023-09-26_09h48.52.046,WP_VExplicitOC_HL,2022.2.5,Win32,22.077492,37.15670436,4.0901,2.0586,NA,NA,NA,NA,NA,bored,"bored, not bored","more bored, less bored",NA,NA,NA,NA,NA,NA,NA,NA,NA,NA,NA,NA,NA,NA,NA,0,1,1,2,1,NA,NA,NA,NA,NA,NA,NA,NA,NA,NA,NA,NA,NA,NA,NA,NA,NA,NA,NA,NA,NA,NA,NA,NA,NA,NA,NA,NA
SUPAMT21877,3XM0HYN6NQYGYEDX7PAJQPVSVROEPK,EAA7AEE5-A6DB-431B-80BA-C2762ED60C45,2023-09-26_09h48.52.046,WP_VExplicitOC_HL,2022.2.5,Win32,22.077492,52.01938611,4.4278,2.0292,NA,NA,NA,NA,NA,happy,"unhappy, happy","less happy, more happy",NA,NA,NA,NA,NA,NA,NA,NA,NA,NA,NA,NA,NA,NA,NA,0,2,2,0,1,NA,NA,NA,NA,NA,NA,NA,NA,NA,NA,NA,NA,NA,NA,NA,NA,NA,NA,NA,NA,NA,NA,NA,NA,NA,NA,NA,NA
SUPAMT21877,3XM0HYN6NQYGYEDX7PAJQPVSVROEPK,EAA7AEE5-A6DB-431B-80BA-C2762ED60C45,2023-09-26_09h48.52.046,WP_VExplicitOC_HL,2022.2.5,Win32,22.077492,NA,NA,NA,NA,NA,NA,NA,NA,NA,NA,NA,NA,NA,NA,NA,NA,NA,NA,NA,NA,NA,NA,NA,NA,NA,NA,NA,NA,NA,NA,NA,2,0,2,0,1,NA,NA,NA,NA,NA,NA,NA,NA,NA,NA,NA,NA,NA,NA,NA,NA,NA,NA,NA,NA,NA,NA,NA
SUPAMT21877,3XM0HYN6NQYGYEDX7PAJQPVSVROEPK,EAA7AEE5-A6DB-431B-80BA-C2762ED60C45,2023-09-26_09h48.52.046,WP_VExplicitOC_HL,2022.2.5,Win32,22.077492,34.24878837,3.821,2.0638,NA,NA,NA,NA,NA,happy,"unhappy, happy","less happy, more happy",NA,NA,NA,NA,NA,NA,NA,NA,NA,NA,NA,NA,NA,NA,NA,0,0,0,0,1,NA,NA,NA,NA,NA,NA,NA,NA,NA,NA,NA,NA,NA,NA,NA,NA,NA,NA,NA,NA,NA,NA,NA,NA,NA,NA,NA,NA
SUPAMT21877,3XM0HYN6NQYGYEDX7PAJQPVSVROEPK,EAA7AEE5-A6DB-431B-80BA-C2762ED60C45,2023-09-26_09h48.52.046,WP_VExplicitOC_HL,2022.2.5,Win32,22.077492,-31.66397415,3.7998,2.0077,NA,NA,NA,NA,NA,frustrated,"frustrated, not frustrated","more frustrated, less frustrated",NA,NA,NA,NA,NA,NA,NA,NA,NA,NA,NA,NA,NA,NA,NA,0,1,1,1,1,NA,NA,NA,NA,NA,NA,NA,NA,NA,NA,NA,NA,NA,NA,NA,NA,NA,NA,NA,NA,NA,NA,NA,NA,NA,NA,NA,NA
SUPAMT21877,3XM0HYN6NQYGYEDX7PAJQPVSVROEPK,EAA7AEE5-A6DB-431B-80BA-C2762ED60C45,2023-09-26_09h48.52.046,WP_VExplicitOC_HL,2022.2.5,Win32,22.077492,49.75767367,4.3229,2.0753,NA,NA,NA,NA,NA,bored,"bored, not bored","more bored, less bored",NA,NA,NA,NA,NA,NA,NA,NA,NA,NA,NA,NA,NA,NA,NA,0,2,2,2,1,NA,NA,NA,NA,NA,NA,NA,NA,NA,NA,NA,NA,NA,NA,NA,NA,NA,NA,NA,NA,NA,NA,NA,NA,NA,NA,NA,NA
SUPAMT21877,3XM0HYN6NQYGYEDX7PAJQPVSVROEPK,EAA7AEE5-A6DB-431B-80BA-C2762ED60C45,2023-09-26_09h48.52.046,WP_VExplicitOC_HL,2022.2.5,Win32,22.077492,NA,NA,NA,NA,NA,NA,NA,NA,NA,NA,NA,NA,NA,NA,NA,NA,NA,NA,NA,NA,NA,NA,NA,NA,NA,NA,NA,NA,NA,NA,NA,3,0,3,0,1,NA,NA,NA,NA,NA,NA,NA,NA,NA,NA,NA,NA,NA,NA,NA,NA,NA,NA,NA,NA,NA,NA,NA
SUPAMT21877,3XM0HYN6NQYGYEDX7PAJQPVSVROEPK,EAA7AEE5-A6DB-431B-80BA-C2762ED60C45,2023-09-26_09h48.52.046,WP_VExplicitOC_HL,2022.2.5,Win32,22.077492,-31.34087237,4.1287,2.0689,NA,NA,NA,NA,NA,frustrated,"frustrated, not frustrated","more frustrated, less frustrated",NA,NA,NA,NA,NA,NA,NA,NA,NA,NA,NA,NA,NA,NA,NA,0,0,0,1,1,NA,NA,NA,NA,NA,NA,NA,NA,NA,NA,NA,NA,NA,NA,NA,NA,NA,NA,NA,NA,NA,NA,NA,NA,NA,NA,NA,NA
SUPAMT21877,3XM0HYN6NQYGYEDX7PAJQPVSVROEPK,EAA7AEE5-A6DB-431B-80BA-C2762ED60C45,2023-09-26_09h48.52.046,WP_VExplicitOC_HL,2022.2.5,Win32,22.077492,43.29563813,4.7957,2.0482,NA,NA,NA,NA,NA,bored,"bored, not bored","more bored, less bored",NA,NA,NA,NA,NA,NA,NA,NA,NA,NA,NA,NA,NA,NA,NA,0,1,1,2,1,NA,NA,NA,NA,NA,NA,NA,NA,NA,NA,NA,NA,NA,NA,NA,NA,NA,NA,NA,NA,NA,NA,NA,NA,NA,NA,NA,NA
SUPAMT21877,3XM0HYN6NQYGYEDX7PAJQPVSVROEPK,EAA7AEE5-A6DB-431B-80BA-C2762ED60C45,2023-09-26_09h48.52.046,WP_VExplicitOC_HL,2022.2.5,Win32,22.077492,42.97253635,3.8697,2.0487,NA,NA,NA,NA,NA,happy,"unhappy, happy","less happy, more happy",NA,NA,NA,NA,NA,NA,NA,NA,NA,NA,NA,NA,NA,NA,NA,0,2,2,0,1,NA,NA,NA,NA,NA,NA,NA,NA,NA,NA,NA,NA,NA,NA,NA,NA,NA,NA,NA,NA,NA,NA,NA,NA,NA,NA,NA,NA
SUPAMT21877,3XM0HYN6NQYGYEDX7PAJQPVSVROEPK,EAA7AEE5-A6DB-431B-80BA-C2762ED60C45,2023-09-26_09h48.52.046,WP_VExplicitOC_HL,2022.2.5,Win32,22.077492,NA,NA,NA,NA,NA,NA,NA,NA,NA,NA,NA,NA,NA,NA,NA,NA,NA,NA,NA,NA,NA,NA,NA,NA,NA,NA,NA,NA,NA,NA,NA,4,0,4,0,1,NA,NA,NA,NA,NA,NA,NA,NA,NA,NA,NA,NA,NA,NA,NA,NA,NA,NA,NA,NA,NA,NA,NA
SUPAMT21877,3XM0HYN6NQYGYEDX7PAJQPVSVROEPK,EAA7AEE5-A6DB-431B-80BA-C2762ED60C45,2023-09-26_09h48.52.046,WP_VExplicitOC_HL,2022.2.5,Win32,22.077492,-22.94022617,4.5786,2.0165,NA,NA,NA,NA,NA,frustrated,"frustrated, not frustrated","more frustrated, less frustrated",NA,NA,NA,NA,NA,NA,NA,NA,NA,NA,NA,NA,NA,NA,NA,0,0,0,1,1,NA,NA,NA,NA,NA,NA,NA,NA,NA,NA,NA,NA,NA,NA,NA,NA,NA,NA,NA,NA,NA,NA,NA,NA,NA,NA,NA,NA
SUPAMT21877,3XM0HYN6NQYGYEDX7PAJQPVSVROEPK,EAA7AEE5-A6DB-431B-80BA-C2762ED60C45,2023-09-26_09h48.52.046,WP_VExplicitOC_HL,2022.2.5,Win32,22.077492,36.83360258,4.5885,2.0562,NA,NA,NA,NA,NA,bored,"bored, not bored","more bored, less bored",NA,NA,NA,NA,NA,NA,NA,NA,NA,NA,NA,NA,NA,NA,NA,0,1,1,2,1,NA,NA,NA,NA,NA,NA,NA,NA,NA,NA,NA,NA,NA,NA,NA,NA,NA,NA,NA,NA,NA,NA,NA,NA,NA,NA,NA,NA
SUPAMT21877,3XM0HYN6NQYGYEDX7PAJQPVSVROEPK,EAA7AEE5-A6DB-431B-80BA-C2762ED60C45,2023-09-26_09h48.52.046,WP_VExplicitOC_HL,2022.2.5,Win32,22.077492,35.2180937,3.6419,2.0017,NA,NA,NA,NA,NA,happy,"unhappy, happy","less happy, more happy",NA,NA,NA,NA,NA,NA,NA,NA,NA,NA,NA,NA,NA,NA,NA,0,2,2,0,1,NA,NA,NA,NA,NA,NA,NA,NA,NA,NA,NA,NA,NA,NA,NA,NA,NA,NA,NA,NA,NA,NA,NA,NA,NA,NA,NA,NA
SUPAMT21877,3XM0HYN6NQYGYEDX7PAJQPVSVROEPK,EAA7AEE5-A6DB-431B-80BA-C2762ED60C45,2023-09-26_09h48.52.046,WP_VExplicitOC_HL,2022.2.5,Win32,22.077492,NA,NA,NA,NA,NA,NA,NA,NA,NA,NA,NA,NA,NA,NA,NA,NA,NA,NA,NA,NA,NA,NA,NA,NA,NA,NA,NA,NA,NA,NA,NA,5,0,5,0,1,NA,NA,NA,NA,NA,NA,NA,NA,NA,NA,NA,NA,NA,NA,NA,NA,NA,NA,NA,NA,NA,NA,NA
SUPAMT21877,3XM0HYN6NQYGYEDX7PAJQPVSVROEPK,EAA7AEE5-A6DB-431B-80BA-C2762ED60C45,2023-09-26_09h48.52.046,WP_VExplicitOC_HL,2022.2.5,Win32,22.077492,-48.14216478,4.2495,2.0057,NA,NA,NA,NA,NA,frustrated,"frustrated, not frustrated","more frustrated, less frustrated",NA,NA,NA,NA,NA,NA,NA,NA,NA,NA,NA,NA,NA,NA,NA,0,0,0,1,1,NA,NA,NA,NA,NA,NA,NA,NA,NA,NA,NA,NA,NA,NA,NA,NA,NA,NA,NA,NA,NA,NA,NA,NA,NA,NA,NA,NA
SUPAMT21877,3XM0HYN6NQYGYEDX7PAJQPVSVROEPK,EAA7AEE5-A6DB-431B-80BA-C2762ED60C45,2023-09-26_09h48.52.046,WP_VExplicitOC_HL,2022.2.5,Win32,22.077492,47.819063,4.576,2.0284,NA,NA,NA,NA,NA,happy,"unhappy, happy","less happy, more happy",NA,NA,NA,NA,NA,NA,NA,NA,NA,NA,NA,NA,NA,NA,NA,0,1,1,0,1,NA,NA,NA,NA,NA,NA,NA,NA,NA,NA,NA,NA,NA,NA,NA,NA,NA,NA,NA,NA,NA,NA,NA,NA,NA,NA,NA,NA
SUPAMT21877,3XM0HYN6NQYGYEDX7PAJQPVSVROEPK,EAA7AEE5-A6DB-431B-80BA-C2762ED60C45,2023-09-26_09h48.52.046,WP_VExplicitOC_HL,2022.2.5,Win32,22.077492,47.819063,3.7507,2.0174,NA,NA,NA,NA,NA,bored,"bored, not bored","more bored, less bored",NA,NA,NA,NA,NA,NA,NA,NA,NA,NA,NA,NA,NA,NA,NA,0,2,2,2,1,NA,NA,NA,NA,NA,NA,NA,NA,NA,NA,NA,NA,NA,NA,NA,NA,NA,NA,NA,NA,NA,NA,NA,NA,NA,NA,NA,NA
SUPAMT21877,3XM0HYN6NQYGYEDX7PAJQPVSVROEPK,EAA7AEE5-A6DB-431B-80BA-C2762ED60C45,2023-09-26_09h48.52.046,WP_VExplicitOC_HL,2022.2.5,Win32,22.077492,NA,NA,NA,NA,NA,NA,NA,NA,NA,NA,NA,NA,NA,NA,NA,NA,NA,NA,NA,NA,NA,NA,NA,NA,NA,NA,NA,NA,NA,NA,NA,6,0,6,0,1,NA,NA,NA,NA,NA,NA,NA,NA,NA,NA,NA,NA,NA,NA,NA,NA,NA,NA,NA,NA,NA,NA,NA
SUPAMT21877,3XM0HYN6NQYGYEDX7PAJQPVSVROEPK,EAA7AEE5-A6DB-431B-80BA-C2762ED60C45,2023-09-26_09h48.52.046,WP_VExplicitOC_HL,2022.2.5,Win32,22.077492,47.819063,3.6877,2.0205,NA,NA,NA,NA,NA,happy,"unhappy, happy","less happy, more happy",NA,NA,NA,NA,NA,NA,NA,NA,NA,NA,NA,NA,NA,NA,NA,0,0,0,0,1,NA,NA,NA,NA,NA,NA,NA,NA,NA,NA,NA,NA,NA,NA,NA,NA,NA,NA,NA,NA,NA,NA,NA,NA,NA,NA,NA,NA
SUPAMT21877,3XM0HYN6NQYGYEDX7PAJQPVSVROEPK,EAA7AEE5-A6DB-431B-80BA-C2762ED60C45,2023-09-26_09h48.52.046,WP_VExplicitOC_HL,2022.2.5,Win32,22.077492,68.17447496,3.3143,2.0059,NA,NA,NA,NA,NA,bored,"bored, not bored","more bored, less bored",NA,NA,NA,NA,NA,NA,NA,NA,NA,NA,NA,NA,NA,NA,NA,0,1,1,2,1,NA,NA,NA,NA,NA,NA,NA,NA,NA,NA,NA,NA,NA,NA,NA,NA,NA,NA,NA,NA,NA,NA,NA,NA,NA,NA,NA,NA
SUPAMT21877,3XM0HYN6NQYGYEDX7PAJQPVSVROEPK,EAA7AEE5-A6DB-431B-80BA-C2762ED60C45,2023-09-26_09h48.52.046,WP_VExplicitOC_HL,2022.2.5,Win32,22.077492,-43.6187399,3.6805,2.0086,NA,NA,NA,NA,NA,frustrated,"frustrated, not frustrated","more frustrated, less frustrated",NA,NA,NA,NA,NA,NA,NA,NA,NA,NA,NA,NA,NA,NA,NA,0,2,2,1,1,NA,NA,NA,NA,NA,NA,NA,NA,NA,NA,NA,NA,NA,NA,NA,NA,NA,NA,NA,NA,NA,NA,NA,NA,NA,NA,NA,NA
SUPAMT21877,3XM0HYN6NQYGYEDX7PAJQPVSVROEPK,EAA7AEE5-A6DB-431B-80BA-C2762ED60C45,2023-09-26_09h48.52.046,WP_VExplicitOC_HL,2022.2.5,Win32,22.077492,NA,NA,NA,NA,NA,NA,NA,NA,NA,NA,NA,NA,NA,NA,NA,NA,NA,NA,NA,NA,NA,NA,NA,NA,NA,NA,NA,NA,NA,NA,NA,7,0,7,0,1,NA,NA,NA,NA,NA,NA,NA,NA,NA,NA,NA,NA,NA,NA,NA,NA,NA,NA,NA,NA,NA,NA,NA
SUPAMT21877,3XM0HYN6NQYGYEDX7PAJQPVSVROEPK,EAA7AEE5-A6DB-431B-80BA-C2762ED60C45,2023-09-26_09h48.52.046,WP_VExplicitOC_HL,2022.2.5,Win32,22.077492,29.72536349,5.0235,2.0561,NA,NA,NA,NA,NA,bored,"bored, not bored","more bored, less bored",NA,NA,NA,NA,NA,NA,NA,NA,NA,NA,NA,NA,NA,NA,NA,0,0,0,2,1,NA,NA,NA,NA,NA,NA,NA,NA,NA,NA,NA,NA,NA,NA,NA,NA,NA,NA,NA,NA,NA,NA,NA,NA,NA,NA,NA,NA
SUPAMT21877,3XM0HYN6NQYGYEDX7PAJQPVSVROEPK,EAA7AEE5-A6DB-431B-80BA-C2762ED60C45,2023-09-26_09h48.52.046,WP_VExplicitOC_HL,2022.2.5,Win32,22.077492,59.77382876,3.2561,2.0008,NA,NA,NA,NA,NA,happy,"unhappy, happy","less happy, more happy",NA,NA,NA,NA,NA,NA,NA,NA,NA,NA,NA,NA,NA,NA,NA,0,1,1,0,1,NA,NA,NA,NA,NA,NA,NA,NA,NA,NA,NA,NA,NA,NA,NA,NA,NA,NA,NA,NA,NA,NA,NA,NA,NA,NA,NA,NA
SUPAMT21877,3XM0HYN6NQYGYEDX7PAJQPVSVROEPK,EAA7AEE5-A6DB-431B-80BA-C2762ED60C45,2023-09-26_09h48.52.046,WP_VExplicitOC_HL,2022.2.5,Win32,22.077492,-66.88206785,3.3936,2.05,NA,NA,NA,NA,NA,frustrated,"frustrated, not frustrated","more frustrated, less frustrated",NA,NA,NA,NA,NA,NA,NA,NA,NA,NA,NA,NA,NA,NA,NA,0,2,2,1,1,NA,NA,NA,NA,NA,NA,NA,NA,NA,NA,NA,NA,NA,NA,NA,NA,NA,NA,NA,NA,NA,NA,NA,NA,NA,NA,NA,NA
SUPAMT21877,3XM0HYN6NQYGYEDX7PAJQPVSVROEPK,EAA7AEE5-A6DB-431B-80BA-C2762ED60C45,2023-09-26_09h48.52.046,WP_VExplicitOC_HL,2022.2.5,Win32,22.077492,NA,NA,NA,NA,NA,NA,NA,NA,NA,NA,NA,NA,NA,NA,NA,NA,NA,NA,NA,NA,NA,NA,NA,NA,NA,NA,NA,NA,NA,NA,NA,8,0,8,0,1,NA,NA,NA,NA,NA,NA,NA,NA,NA,NA,NA,NA,NA,NA,NA,NA,NA,NA,NA,NA,NA,NA,NA
SUPAMT21877,3XM0HYN6NQYGYEDX7PAJQPVSVROEPK,EAA7AEE5-A6DB-431B-80BA-C2762ED60C45,2023-09-26_09h48.52.046,WP_VExplicitOC_HL,2022.2.5,Win32,22.077492,56.86591276,4.893,2.045,NA,NA,NA,NA,NA,bored,"bored, not bored","more bored, less bored",NA,NA,NA,NA,NA,NA,NA,NA,NA,NA,NA,NA,NA,NA,NA,0,0,0,2,1,NA,NA,NA,NA,NA,NA,NA,NA,NA,NA,NA,NA,NA,NA,NA,NA,NA,NA,NA,NA,NA,NA,NA,NA,NA,NA,NA,NA
SUPAMT21877,3XM0HYN6NQYGYEDX7PAJQPVSVROEPK,EAA7AEE5-A6DB-431B-80BA-C2762ED60C45,2023-09-26_09h48.52.046,WP_VExplicitOC_HL,2022.2.5,Win32,22.077492,-53.95799677,4.1977,2.0268,NA,NA,NA,NA,NA,frustrated,"frustrated, not frustrated","more frustrated, less frustrated",NA,NA,NA,NA,NA,NA,NA,NA,NA,NA,NA,NA,NA,NA,NA,0,1,1,1,1,NA,NA,NA,NA,NA,NA,NA,NA,NA,NA,NA,NA,NA,NA,NA,NA,NA,NA,NA,NA,NA,NA,NA,NA,NA,NA,NA,NA
SUPAMT21877,3XM0HYN6NQYGYEDX7PAJQPVSVROEPK,EAA7AEE5-A6DB-431B-80BA-C2762ED60C45,2023-09-26_09h48.52.046,WP_VExplicitOC_HL,2022.2.5,Win32,22.077492,37.47980614,3.9923,2.0228,NA,NA,NA,NA,NA,happy,"unhappy, happy","less happy, more happy",NA,NA,NA,NA,NA,NA,NA,NA,NA,NA,NA,NA,NA,NA,NA,0,2,2,0,1,NA,NA,NA,NA,NA,NA,NA,NA,NA,NA,NA,NA,NA,NA,NA,NA,NA,NA,NA,NA,NA,NA,NA,NA,NA,NA,NA,NA
SUPAMT21877,3XM0HYN6NQYGYEDX7PAJQPVSVROEPK,EAA7AEE5-A6DB-431B-80BA-C2762ED60C45,2023-09-26_09h48.52.046,WP_VExplicitOC_HL,2022.2.5,Win32,22.077492,NA,NA,NA,NA,NA,NA,NA,NA,NA,NA,NA,NA,NA,NA,NA,NA,NA,NA,NA,NA,NA,NA,NA,NA,NA,NA,NA,NA,NA,NA,NA,9,0,9,0,1,NA,NA,NA,NA,NA,NA,NA,NA,NA,NA,NA,NA,NA,NA,NA,NA,NA,NA,NA,NA,NA,NA,NA
SUPAMT21877,3XM0HYN6NQYGYEDX7PAJQPVSVROEPK,EAA7AEE5-A6DB-431B-80BA-C2762ED60C45,2023-09-26_09h48.52.046,WP_VExplicitOC_HL,2022.2.5,Win32,22.077492,37.47980614,3.7614,2.0014,NA,NA,NA,NA,NA,bored,"bored, not bored","more bored, less bored",NA,NA,NA,NA,NA,NA,NA,NA,NA,NA,NA,NA,NA,NA,NA,0,0,0,2,1,NA,NA,NA,NA,NA,NA,NA,NA,NA,NA,NA,NA,NA,NA,NA,NA,NA,NA,NA,NA,NA,NA,NA,NA,NA,NA,NA,NA
SUPAMT21877,3XM0HYN6NQYGYEDX7PAJQPVSVROEPK,EAA7AEE5-A6DB-431B-80BA-C2762ED60C45,2023-09-26_09h48.52.046,WP_VExplicitOC_HL,2022.2.5,Win32,22.077492,37.47980614,3.4933,2.0227,NA,NA,NA,NA,NA,happy,"unhappy, happy","less happy, more happy",NA,NA,NA,NA,NA,NA,NA,NA,NA,NA,NA,NA,NA,NA,NA,0,1,1,0,1,NA,NA,NA,NA,NA,NA,NA,NA,NA,NA,NA,NA,NA,NA,NA,NA,NA,NA,NA,NA,NA,NA,NA,NA,NA,NA,NA,NA
SUPAMT21877,3XM0HYN6NQYGYEDX7PAJQPVSVROEPK,EAA7AEE5-A6DB-431B-80BA-C2762ED60C45,2023-09-26_09h48.52.046,WP_VExplicitOC_HL,2022.2.5,Win32,22.077492,-33.27948304,3.5359,2.0425,NA,NA,NA,NA,NA,frustrated,"frustrated, not frustrated","more frustrated, less frustrated",NA,NA,NA,NA,NA,NA,NA,NA,NA,NA,NA,NA,NA,NA,NA,0,2,2,1,1,NA,NA,NA,NA,NA,NA,NA,NA,NA,NA,NA,NA,NA,NA,NA,NA,NA,NA,NA,NA,NA,NA,NA,NA,NA,NA,NA,NA
SUPAMT21877,3XM0HYN6NQYGYEDX7PAJQPVSVROEPK,EAA7AEE5-A6DB-431B-80BA-C2762ED60C45,2023-09-26_09h48.52.046,WP_VExplicitOC_HL,2022.2.5,Win32,22.077492,NA,NA,NA,NA,NA,NA,NA,NA,NA,NA,NA,NA,NA,NA,NA,NA,NA,NA,NA,NA,NA,NA,NA,NA,NA,NA,NA,NA,NA,NA,NA,10,0,10,0,1,NA,NA,NA,NA,NA,NA,NA,NA,NA,NA,NA,NA,NA,NA,NA,NA,NA,NA,NA,NA,NA,NA,NA
SUPAMT21877,3XM0HYN6NQYGYEDX7PAJQPVSVROEPK,EAA7AEE5-A6DB-431B-80BA-C2762ED60C45,2023-09-26_09h48.52.046,WP_VExplicitOC_HL,2022.2.5,Win32,22.077492,-33.27948304,3.9931,2.0767,NA,NA,NA,NA,NA,frustrated,"frustrated, not frustrated","more frustrated, less frustrated",NA,NA,NA,NA,NA,NA,NA,NA,NA,NA,NA,NA,NA,NA,NA,0,0,0,1,1,NA,NA,NA,NA,NA,NA,NA,NA,NA,NA,NA,NA,NA,NA,NA,NA,NA,NA,NA,NA,NA,NA,NA,NA,NA,NA,NA,NA
SUPAMT21877,3XM0HYN6NQYGYEDX7PAJQPVSVROEPK,EAA7AEE5-A6DB-431B-80BA-C2762ED60C45,2023-09-26_09h48.52.046,WP_VExplicitOC_HL,2022.2.5,Win32,22.077492,36.83360258,4.2441,2.0023,NA,NA,NA,NA,NA,bored,"bored, not bored","more bored, less bored",NA,NA,NA,NA,NA,NA,NA,NA,NA,NA,NA,NA,NA,NA,NA,0,1,1,2,1,NA,NA,NA,NA,NA,NA,NA,NA,NA,NA,NA,NA,NA,NA,NA,NA,NA,NA,NA,NA,NA,NA,NA,NA,NA,NA,NA,NA
SUPAMT21877,3XM0HYN6NQYGYEDX7PAJQPVSVROEPK,EAA7AEE5-A6DB-431B-80BA-C2762ED60C45,2023-09-26_09h48.52.046,WP_VExplicitOC_HL,2022.2.5,Win32,22.077492,36.83360258,5.5698,2.011,NA,NA,NA,NA,NA,happy,"unhappy, happy","less happy, more happy",NA,NA,NA,NA,NA,NA,NA,NA,NA,NA,NA,NA,NA,NA,NA,0,2,2,0,1,NA,NA,NA,NA,NA,NA,NA,NA,NA,NA,NA,NA,NA,NA,NA,NA,NA,NA,NA,NA,NA,NA,NA,NA,NA,NA,NA,NA
SUPAMT21877,3XM0HYN6NQYGYEDX7PAJQPVSVROEPK,EAA7AEE5-A6DB-431B-80BA-C2762ED60C45,2023-09-26_09h48.52.046,WP_VExplicitOC_HL,2022.2.5,Win32,22.077492,NA,NA,NA,NA,NA,NA,NA,NA,NA,NA,NA,NA,NA,NA,NA,NA,NA,NA,NA,NA,NA,NA,NA,NA,NA,NA,NA,NA,NA,NA,NA,11,0,11,0,1,NA,NA,NA,NA,NA,NA,NA,NA,NA,NA,NA,NA,NA,NA,NA,NA,NA,NA,NA,NA,NA,NA,NA
SUPAMT21877,3XM0HYN6NQYGYEDX7PAJQPVSVROEPK,EAA7AEE5-A6DB-431B-80BA-C2762ED60C45,2023-09-26_09h48.52.046,WP_VExplicitOC_HL,2022.2.5,Win32,22.077492,NA,NA,2.05,NA,NA,NA,NA,NA,frustrated,"frustrated, not frustrated","more frustrated, less frustrated",NA,NA,NA,NA,NA,NA,NA,NA,NA,NA,NA,NA,NA,NA,NA,0,0,0,1,1,NA,NA,NA,NA,NA,NA,NA,NA,NA,NA,NA,NA,NA,NA,NA,NA,NA,NA,NA,NA,NA,NA,NA,NA,NA,NA,NA,NA
SUPAMT21877,3XM0HYN6NQYGYEDX7PAJQPVSVROEPK,EAA7AEE5-A6DB-431B-80BA-C2762ED60C45,2023-09-26_09h48.52.046,WP_VExplicitOC_HL,2022.2.5,Win32,22.077492,36.83360258,3.9318,2.0557,NA,NA,NA,NA,NA,happy,"unhappy, happy","less happy, more happy",NA,NA,NA,NA,NA,NA,NA,NA,NA,NA,NA,NA,NA,NA,NA,0,1,1,0,1,NA,NA,NA,NA,NA,NA,NA,NA,NA,NA,NA,NA,NA,NA,NA,NA,NA,NA,NA,NA,NA,NA,NA,NA,NA,NA,NA,NA
SUPAMT21877,3XM0HYN6NQYGYEDX7PAJQPVSVROEPK,EAA7AEE5-A6DB-431B-80BA-C2762ED60C45,2023-09-26_09h48.52.046,WP_VExplicitOC_HL,2022.2.5,Win32,22.077492,36.83360258,3.3655,2.0076,NA,NA,NA,NA,NA,bored,"bored, not bored","more bored, less bored",NA,NA,NA,NA,NA,NA,NA,NA,NA,NA,NA,NA,NA,NA,NA,0,2,2,2,1,NA,NA,NA,NA,NA,NA,NA,NA,NA,NA,NA,NA,NA,NA,NA,NA,NA,NA,NA,NA,NA,NA,NA,NA,NA,NA,NA,NA
SUPAMT21877,3XM0HYN6NQYGYEDX7PAJQPVSVROEPK,EAA7AEE5-A6DB-431B-80BA-C2762ED60C45,2023-09-26_09h48.52.046,WP_VExplicitOC_HL,2022.2.5,Win32,22.077492,NA,NA,NA,NA,NA,NA,NA,NA,NA,NA,NA,NA,NA,NA,NA,NA,NA,NA,NA,NA,NA,NA,NA,NA,NA,NA,NA,NA,NA,NA,NA,12,0,12,0,1,NA,NA,NA,NA,NA,NA,NA,NA,NA,NA,NA,NA,NA,NA,NA,NA,NA,NA,NA,NA,NA,NA,NA
SUPAMT21877,3XM0HYN6NQYGYEDX7PAJQPVSVROEPK,EAA7AEE5-A6DB-431B-80BA-C2762ED60C45,2023-09-26_09h48.52.046,WP_VExplicitOC_HL,2022.2.5,Win32,22.077492,-36.83360258,4.9438,2.0619,NA,NA,NA,NA,NA,frustrated,"frustrated, not frustrated","more frustrated, less frustrated",NA,NA,NA,NA,NA,NA,NA,NA,NA,NA,NA,NA,NA,NA,NA,0,0,0,1,1,NA,NA,NA,NA,NA,NA,NA,NA,NA,NA,NA,NA,NA,NA,NA,NA,NA,NA,NA,NA,NA,NA,NA,NA,NA,NA,NA,NA
SUPAMT21877,3XM0HYN6NQYGYEDX7PAJQPVSVROEPK,EAA7AEE5-A6DB-431B-80BA-C2762ED60C45,2023-09-26_09h48.52.046,WP_VExplicitOC_HL,2022.2.5,Win32,22.077492,55.89660743,3.8747,2.0199,NA,NA,NA,NA,NA,happy,"unhappy, happy","less happy, more happy",NA,NA,NA,NA,NA,NA,NA,NA,NA,NA,NA,NA,NA,NA,NA,0,1,1,0,1,NA,NA,NA,NA,NA,NA,NA,NA,NA,NA,NA,NA,NA,NA,NA,NA,NA,NA,NA,NA,NA,NA,NA,NA,NA,NA,NA,NA
SUPAMT21877,3XM0HYN6NQYGYEDX7PAJQPVSVROEPK,EAA7AEE5-A6DB-431B-80BA-C2762ED60C45,2023-09-26_09h48.52.046,WP_VExplicitOC_HL,2022.2.5,Win32,22.077492,55.89660743,3.4179,2.0456,NA,NA,NA,NA,NA,bored,"bored, not bored","more bored, less bored",NA,NA,NA,NA,NA,NA,NA,NA,NA,NA,NA,NA,NA,NA,NA,0,2,2,2,1,NA,NA,NA,NA,NA,NA,NA,NA,NA,NA,NA,NA,NA,NA,NA,NA,NA,NA,NA,NA,NA,NA,NA,NA,NA,NA,NA,NA
SUPAMT21877,3XM0HYN6NQYGYEDX7PAJQPVSVROEPK,EAA7AEE5-A6DB-431B-80BA-C2762ED60C45,2023-09-26_09h48.52.046,WP_VExplicitOC_HL,2022.2.5,Win32,22.077492,NA,NA,NA,NA,NA,NA,NA,NA,NA,NA,NA,NA,NA,NA,NA,NA,NA,NA,NA,NA,NA,NA,NA,NA,NA,NA,NA,NA,NA,NA,NA,13,0,13,0,1,NA,NA,NA,NA,NA,NA,NA,NA,NA,NA,NA,NA,NA,NA,NA,NA,NA,NA,NA,NA,NA,NA,NA
SUPAMT21877,3XM0HYN6NQYGYEDX7PAJQPVSVROEPK,EAA7AEE5-A6DB-431B-80BA-C2762ED60C45,2023-09-26_09h48.52.046,WP_VExplicitOC_HL,2022.2.5,Win32,22.077492,55.89660743,3.3104,2.0242,NA,NA,NA,NA,NA,happy,"unhappy, happy","less happy, more happy",NA,NA,NA,NA,NA,NA,NA,NA,NA,NA,NA,NA,NA,NA,NA,0,0,0,0,1,NA,NA,NA,NA,NA,NA,NA,NA,NA,NA,NA,NA,NA,NA,NA,NA,NA,NA,NA,NA,NA,NA,NA,NA,NA,NA,NA,NA
SUPAMT21877,3XM0HYN6NQYGYEDX7PAJQPVSVROEPK,EAA7AEE5-A6DB-431B-80BA-C2762ED60C45,2023-09-26_09h48.52.046,WP_VExplicitOC_HL,2022.2.5,Win32,22.077492,30.69466882,3.512,2.0276,NA,NA,NA,NA,NA,bored,"bored, not bored","more bored, less bored",NA,NA,NA,NA,NA,NA,NA,NA,NA,NA,NA,NA,NA,NA,NA,0,1,1,2,1,NA,NA,NA,NA,NA,NA,NA,NA,NA,NA,NA,NA,NA,NA,NA,NA,NA,NA,NA,NA,NA,NA,NA,NA,NA,NA,NA,NA
SUPAMT21877,3XM0HYN6NQYGYEDX7PAJQPVSVROEPK,EAA7AEE5-A6DB-431B-80BA-C2762ED60C45,2023-09-26_09h48.52.046,WP_VExplicitOC_HL,2022.2.5,Win32,22.077492,-71.08239095,3.4003,2.0449,NA,NA,NA,NA,NA,frustrated,"frustrated, not frustrated","more frustrated, less frustrated",NA,NA,NA,NA,NA,NA,NA,NA,NA,NA,NA,NA,NA,NA,NA,0,2,2,1,1,NA,NA,NA,NA,NA,NA,NA,NA,NA,NA,NA,NA,NA,NA,NA,NA,NA,NA,NA,NA,NA,NA,NA,NA,NA,NA,NA,NA
SUPAMT21877,3XM0HYN6NQYGYEDX7PAJQPVSVROEPK,EAA7AEE5-A6DB-431B-80BA-C2762ED60C45,2023-09-26_09h48.52.046,WP_VExplicitOC_HL,2022.2.5,Win32,22.077492,NA,NA,NA,NA,NA,NA,NA,NA,NA,NA,NA,NA,NA,NA,NA,NA,NA,NA,NA,NA,NA,NA,NA,NA,NA,NA,NA,NA,NA,NA,NA,14,0,14,0,1,NA,NA,NA,NA,NA,NA,NA,NA,NA,NA,NA,NA,NA,NA,NA,NA,NA,NA,NA,NA,NA,NA,NA
SUPAMT21877,3XM0HYN6NQYGYEDX7PAJQPVSVROEPK,EAA7AEE5-A6DB-431B-80BA-C2762ED60C45,2023-09-26_09h48.52.046,WP_VExplicitOC_HL,2022.2.5,Win32,22.077492,NA,NA,NA,NA,NA,NA,NA,NA,NA,NA,NA,NA,NA,NA,NA,NA,NA,NA,NA,NA,NA,NA,NA,NA,NA,NA,NA,NA,NA,NA,NA,NA,NA,NA,NA,NA,NA,NA,NA,NA,NA,NA,NA,NA,NA,NA,NA,NA,NA,NA,NA,NA,NA,NA,NA,NA,NA,NA,NA
SUPAMT21877,3XM0HYN6NQYGYEDX7PAJQPVSVROEPK,EAA7AEE5-A6DB-431B-80BA-C2762ED60C45,2023-09-26_09h48.52.046,WP_VExplicitOC_HL,2022.2.5,Win32,22.077492,NA,NA,NA,NA,NA,NA,NA,NA,NA,NA,NA,NA,NA,NA,NA,NA,NA,NA,NA,NA,NA,NA,NA,NA,NA,NA,NA,NA,NA,NA,NA,NA,NA,NA,NA,NA,NA,NA,NA,NA,NA,NA,NA,NA,NA,NA,NA,NA,NA,NA,NA,NA,NA,NA,NA,NA,NA,NA,NA
SUPAMT21877,3XM0HYN6NQYGYEDX7PAJQPVSVROEPK,EAA7AEE5-A6DB-431B-80BA-C2762ED60C45,2023-09-26_09h48.52.046,WP_VExplicitOC_HL,2022.2.5,Win32,22.077492,NA,NA,NA,NA,NA,NA,NA,NA,NA,NA,NA,NA,NA,NA,NA,NA,NA,NA,rest (looking at a fixed cross),001.png,NA,NA,NA,NA,NA,NA,NA,NA,NA,NA,NA,NA,NA,NA,NA,NA,27.14054927,2.9958,0,0,0,0,1,NA,NA,NA,NA,NA,NA,NA,NA,NA,NA,NA,NA,NA,NA,NA,NA
SUPAMT21877,3XM0HYN6NQYGYEDX7PAJQPVSVROEPK,EAA7AEE5-A6DB-431B-80BA-C2762ED60C45,2023-09-26_09h48.52.046,WP_VExplicitOC_HL,2022.2.5,Win32,22.077492,NA,NA,NA,NA,NA,NA,NA,NA,NA,NA,NA,NA,NA,NA,NA,NA,NA,NA,stand up,002.png,NA,NA,NA,NA,NA,NA,NA,NA,NA,NA,NA,NA,NA,NA,NA,NA,22.29402262,2.4698,0,1,1,1,1,NA,NA,NA,NA,NA,NA,NA,NA,NA,NA,NA,NA,NA,NA,NA,NA
SUPAMT21877,3XM0HYN6NQYGYEDX7PAJQPVSVROEPK,EAA7AEE5-A6DB-431B-80BA-C2762ED60C45,2023-09-26_09h48.52.046,WP_VExplicitOC_HL,2022.2.5,Win32,22.077492,NA,NA,NA,NA,NA,NA,NA,NA,NA,NA,NA,NA,NA,NA,NA,NA,NA,NA,stretch,003.png,NA,NA,NA,NA,NA,NA,NA,NA,NA,NA,NA,NA,NA,NA,NA,NA,37.15670436,1.9917,0,2,2,2,1,NA,NA,NA,NA,NA,NA,NA,NA,NA,NA,NA,NA,NA,NA,NA,NA
SUPAMT21877,3XM0HYN6NQYGYEDX7PAJQPVSVROEPK,EAA7AEE5-A6DB-431B-80BA-C2762ED60C45,2023-09-26_09h48.52.046,WP_VExplicitOC_HL,2022.2.5,Win32,22.077492,NA,NA,NA,NA,NA,NA,NA,NA,NA,NA,NA,NA,NA,NA,NA,NA,NA,NA,make a drink,004.png,NA,NA,NA,NA,NA,NA,NA,NA,NA,NA,NA,NA,NA,NA,NA,NA,61.71243942,1.6785,0,3,3,3,1,NA,NA,NA,NA,NA,NA,NA,NA,NA,NA,NA,NA,NA,NA,NA,NA
SUPAMT21877,3XM0HYN6NQYGYEDX7PAJQPVSVROEPK,EAA7AEE5-A6DB-431B-80BA-C2762ED60C45,2023-09-26_09h48.52.046,WP_VExplicitOC_HL,2022.2.5,Win32,22.077492,NA,NA,NA,NA,NA,NA,NA,NA,NA,NA,NA,NA,NA,NA,NA,NA,NA,NA,scroll social media,005.png,NA,NA,NA,NA,NA,NA,NA,NA,NA,NA,NA,NA,NA,NA,NA,NA,46.5266559,1.548,0,4,4,4,1,NA,NA,NA,NA,NA,NA,NA,NA,NA,NA,NA,NA,NA,NA,NA,NA
SUPAMT21877,3XM0HYN6NQYGYEDX7PAJQPVSVROEPK,EAA7AEE5-A6DB-431B-80BA-C2762ED60C45,2023-09-26_09h48.52.046,WP_VExplicitOC_HL,2022.2.5,Win32,22.077492,NA,NA,NA,NA,NA,NA,NA,NA,NA,NA,NA,NA,NA,NA,NA,NA,NA,NA,listen to music,006.png,NA,NA,NA,NA,NA,NA,NA,NA,NA,NA,NA,NA,NA,NA,NA,NA,74.31340872,1.9945,0,5,5,5,1,NA,NA,NA,NA,NA,NA,NA,NA,NA,NA,NA,NA,NA,NA,NA,NA
SUPAMT21877,3XM0HYN6NQYGYEDX7PAJQPVSVROEPK,EAA7AEE5-A6DB-431B-80BA-C2762ED60C45,2023-09-26_09h48.52.046,WP_VExplicitOC_HL,2022.2.5,Win32,22.077492,NA,NA,NA,NA,NA,NA,NA,NA,NA,NA,NA,NA,NA,NA,NA,NA,NA,NA,daydream,007.png,NA,NA,NA,NA,NA,NA,NA,NA,NA,NA,NA,NA,NA,NA,NA,NA,-27.14054927,2.393,0,6,6,6,1,NA,NA,NA,NA,NA,NA,NA,NA,NA,NA,NA,NA,NA,NA,NA,NA
SUPAMT21877,3XM0HYN6NQYGYEDX7PAJQPVSVROEPK,EAA7AEE5-A6DB-431B-80BA-C2762ED60C45,2023-09-26_09h48.52.046,WP_VExplicitOC_HL,2022.2.5,Win32,22.077492,NA,NA,NA,NA,NA,NA,NA,NA,NA,NA,NA,NA,NA,NA,NA,NA,NA,NA,watch a short animation,008.png,NA,NA,NA,NA,NA,NA,NA,NA,NA,NA,NA,NA,NA,NA,NA,NA,24.87883683,2.2757,0,7,7,7,1,NA,NA,NA,NA,NA,NA,NA,NA,NA,NA,NA,NA,NA,NA,NA,NA
SUPAMT21877,3XM0HYN6NQYGYEDX7PAJQPVSVROEPK,EAA7AEE5-A6DB-431B-80BA-C2762ED60C45,2023-09-26_09h48.52.046,WP_VExplicitOC_HL,2022.2.5,Win32,22.077492,NA,NA,NA,NA,NA,NA,NA,NA,NA,NA,NA,NA,NA,NA,NA,NA,NA,NA,read a novel,009.png,NA,NA,NA,NA,NA,NA,NA,NA,NA,NA,NA,NA,NA,NA,NA,NA,48.14216478,1.183,0,8,8,8,1,NA,NA,NA,NA,NA,NA,NA,NA,NA,NA,NA,NA,NA,NA,NA,NA
SUPAMT21877,3XM0HYN6NQYGYEDX7PAJQPVSVROEPK,EAA7AEE5-A6DB-431B-80BA-C2762ED60C45,2023-09-26_09h48.52.046,WP_VExplicitOC_HL,2022.2.5,Win32,22.077492,NA,NA,NA,NA,NA,NA,NA,NA,NA,NA,NA,NA,NA,NA,NA,NA,NA,NA,read the news,010.png,NA,NA,NA,NA,NA,NA,NA,NA,NA,NA,NA,NA,NA,NA,NA,NA,34.89499192,1.395,0,9,9,9,1,NA,NA,NA,NA,NA,NA,NA,NA,NA,NA,NA,NA,NA,NA,NA,NA
SUPAMT21877,3XM0HYN6NQYGYEDX7PAJQPVSVROEPK,EAA7AEE5-A6DB-431B-80BA-C2762ED60C45,2023-09-26_09h48.52.046,WP_VExplicitOC_HL,2022.2.5,Win32,22.077492,NA,NA,NA,NA,NA,NA,NA,NA,NA,NA,NA,NA,NA,NA,NA,NA,NA,NA,NA,NA,NA,NA,NA,NA,NA,NA,NA,NA,NA,NA,NA,NA,NA,NA,NA,NA,NA,NA,NA,NA,NA,NA,NA,daydream,NA,NA,NA,NA,NA,NA,NA,NA,NA,NA,NA,NA,NA,NA,NA
SUPAMT21877,3XM0HYN6NQYGYEDX7PAJQPVSVROEPK,EAA7AEE5-A6DB-431B-80BA-C2762ED60C45,2023-09-26_09h48.52.046,WP_VExplicitOC_HL,2022.2.5,Win32,22.077492,-41.68012924,4.0425,2.0417,NA,NA,NA,NA,NA,frustrated,"frustrated, not frustrated","more frustrated, less frustrated",NA,NA,NA,NA,NA,NA,NA,NA,NA,NA,NA,NA,NA,NA,NA,NA,NA,NA,NA,NA,NA,NA,NA,NA,NA,NA,NA,NA,NA,NA,NA,NA,NA,0,0,0,1,1,NA,NA,NA,NA,NA,NA,NA,NA,NA,NA
SUPAMT21877,3XM0HYN6NQYGYEDX7PAJQPVSVROEPK,EAA7AEE5-A6DB-431B-80BA-C2762ED60C45,2023-09-26_09h48.52.046,WP_VExplicitOC_HL,2022.2.5,Win32,22.077492,51.69628433,3.2781,2.0623,NA,NA,NA,NA,NA,happy,"unhappy, happy","less happy, more happy",NA,NA,NA,NA,NA,NA,NA,NA,NA,NA,NA,NA,NA,NA,NA,NA,NA,NA,NA,NA,NA,NA,NA,NA,NA,NA,NA,NA,NA,NA,NA,NA,NA,0,1,1,0,1,NA,NA,NA,NA,NA,NA,NA,NA,NA,NA
SUPAMT21877,3XM0HYN6NQYGYEDX7PAJQPVSVROEPK,EAA7AEE5-A6DB-431B-80BA-C2762ED60C45,2023-09-26_09h48.52.046,WP_VExplicitOC_HL,2022.2.5,Win32,22.077492,52.01938611,3.3026,2.0406,NA,NA,NA,NA,NA,bored,"bored, not bored","more bored, less bored",NA,NA,NA,NA,NA,NA,NA,NA,NA,NA,NA,NA,NA,NA,NA,NA,NA,NA,NA,NA,NA,NA,NA,NA,NA,NA,NA,NA,NA,NA,NA,NA,NA,0,2,2,2,1,NA,NA,NA,NA,NA,NA,NA,NA,NA,NA
SUPAMT21877,3XM0HYN6NQYGYEDX7PAJQPVSVROEPK,EAA7AEE5-A6DB-431B-80BA-C2762ED60C45,2023-09-26_09h48.52.046,WP_VExplicitOC_HL,2022.2.5,Win32,22.077492,NA,NA,NA,NA,NA,NA,NA,NA,NA,NA,NA,NA,NA,NA,NA,NA,NA,NA,NA,NA,NA,NA,NA,NA,NA,NA,NA,NA,NA,NA,NA,NA,NA,NA,NA,NA,NA,NA,NA,NA,NA,NA,NA,NA,NA,NA,NA,NA,NA,NA,NA,NA,NA,NA,NA,NA,NA,NA,NA
SUPAMT21877,3XM0HYN6NQYGYEDX7PAJQPVSVROEPK,EAA7AEE5-A6DB-431B-80BA-C2762ED60C45,2023-09-26_09h48.52.046,WP_VExplicitOC_HL,2022.2.5,Win32,22.077492,NA,NA,NA,NA,NA,NA,NA,NA,NA,NA,NA,NA,NA,NA,NA,NA,NA,NA,NA,NA,NA,NA,NA,NA,NA,NA,NA,NA,NA,NA,NA,NA,NA,NA,NA,NA,NA,NA,NA,NA,NA,NA,NA,NA,NA,NA,NA,NA,NA,NA,NA,NA,NA,NA,NA,NA,NA,NA,NA
SUPAMT21877,3XM0HYN6NQYGYEDX7PAJQPVSVROEPK,EAA7AEE5-A6DB-431B-80BA-C2762ED60C45,2023-09-26_09h48.52.046,WP_VExplicitOC_HL,2022.2.5,Win32,22.077492,52.01938611,3.7297,2.0226,NA,NA,NA,NA,NA,bored,"bored, not bored","more bored, less bored",NA,NA,NA,NA,NA,NA,NA,NA,NA,NA,NA,NA,NA,NA,NA,NA,NA,NA,NA,NA,NA,NA,NA,NA,NA,NA,NA,NA,NA,NA,NA,NA,NA,NA,NA,NA,NA,NA,0,0,0,2,1,NA,NA,NA,NA,NA
SUPAMT21877,3XM0HYN6NQYGYEDX7PAJQPVSVROEPK,EAA7AEE5-A6DB-431B-80BA-C2762ED60C45,2023-09-26_09h48.52.046,WP_VExplicitOC_HL,2022.2.5,Win32,22.077492,-27.46365105,4.3163,2.0012,NA,NA,NA,NA,NA,frustrated,"frustrated, not frustrated","more frustrated, less frustrated",NA,NA,NA,NA,NA,NA,NA,NA,NA,NA,NA,NA,NA,NA,NA,NA,NA,NA,NA,NA,NA,NA,NA,NA,NA,NA,NA,NA,NA,NA,NA,NA,NA,NA,NA,NA,NA,NA,0,1,1,1,1,NA,NA,NA,NA,NA
SUPAMT21877,3XM0HYN6NQYGYEDX7PAJQPVSVROEPK,EAA7AEE5-A6DB-431B-80BA-C2762ED60C45,2023-09-26_09h48.52.046,WP_VExplicitOC_HL,2022.2.5,Win32,22.077492,38.77221325,4.4918,2.0296,NA,NA,NA,NA,NA,happy,"unhappy, happy","less happy, more happy",NA,NA,NA,NA,NA,NA,NA,NA,NA,NA,NA,NA,NA,NA,NA,NA,NA,NA,NA,NA,NA,NA,NA,NA,NA,NA,NA,NA,NA,NA,NA,NA,NA,NA,NA,NA,NA,NA,0,2,2,0,1,NA,NA,NA,NA,NA
SUPAMT21877,3XM0HYN6NQYGYEDX7PAJQPVSVROEPK,EAA7AEE5-A6DB-431B-80BA-C2762ED60C45,2023-09-26_09h48.52.046,WP_VExplicitOC_HL,2022.2.5,Win32,22.077492,NA,NA,NA,NA,NA,NA,NA,NA,NA,NA,NA,NA,NA,NA,NA,NA,NA,NA,NA,NA,NA,NA,NA,NA,NA,NA,NA,NA,NA,NA,NA,NA,NA,NA,NA,NA,NA,NA,NA,NA,NA,NA,NA,NA,NA,NA,NA,NA,NA,NA,NA,NA,NA,NA,0,0,0,0,1
SUPAMT21877,3XM0HYN6NQYGYEDX7PAJQPVSVROEPK,EAA7AEE5-A6DB-431B-80BA-C2762ED60C45,2023-09-26_09h48.52.046,WP_VExplicitOC_HL,2022.2.5,Win32,22.077492,38.77221325,3.2793,2.0116,NA,NA,NA,NA,NA,happy,"unhappy, happy","less happy, more happy",NA,NA,NA,NA,NA,NA,NA,NA,NA,NA,NA,NA,NA,NA,NA,NA,NA,NA,NA,NA,NA,NA,NA,NA,NA,NA,NA,NA,NA,NA,NA,NA,NA,NA,NA,NA,NA,NA,0,0,0,0,1,NA,NA,NA,NA,NA
SUPAMT21877,3XM0HYN6NQYGYEDX7PAJQPVSVROEPK,EAA7AEE5-A6DB-431B-80BA-C2762ED60C45,2023-09-26_09h48.52.046,WP_VExplicitOC_HL,2022.2.5,Win32,22.077492,-69.78998384,3.4877,2.0736,NA,NA,NA,NA,NA,frustrated,"frustrated, not frustrated","more frustrated, less frustrated",NA,NA,NA,NA,NA,NA,NA,NA,NA,NA,NA,NA,NA,NA,NA,NA,NA,NA,NA,NA,NA,NA,NA,NA,NA,NA,NA,NA,NA,NA,NA,NA,NA,NA,NA,NA,NA,NA,0,1,1,1,1,NA,NA,NA,NA,NA
SUPAMT21877,3XM0HYN6NQYGYEDX7PAJQPVSVROEPK,EAA7AEE5-A6DB-431B-80BA-C2762ED60C45,2023-09-26_09h48.52.046,WP_VExplicitOC_HL,2022.2.5,Win32,22.077492,73.66720517,3.146,2.0245,NA,NA,NA,NA,NA,bored,"bored, not bored","more bored, less bored",NA,NA,NA,NA,NA,NA,NA,NA,NA,NA,NA,NA,NA,NA,NA,NA,NA,NA,NA,NA,NA,NA,NA,NA,NA,NA,NA,NA,NA,NA,NA,NA,NA,NA,NA,NA,NA,NA,0,2,2,2,1,NA,NA,NA,NA,NA
SUPAMT21877,3XM0HYN6NQYGYEDX7PAJQPVSVROEPK,EAA7AEE5-A6DB-431B-80BA-C2762ED60C45,2023-09-26_09h48.52.046,WP_VExplicitOC_HL,2022.2.5,Win32,22.077492,NA,NA,NA,NA,NA,NA,NA,NA,NA,NA,NA,NA,NA,NA,NA,NA,NA,NA,NA,NA,NA,NA,NA,NA,NA,NA,NA,NA,NA,NA,NA,NA,NA,NA,NA,NA,NA,NA,NA,NA,NA,NA,NA,NA,NA,NA,NA,NA,NA,NA,NA,NA,NA,NA,1,0,1,0,1
SUPAMT21877,3XM0HYN6NQYGYEDX7PAJQPVSVROEPK,EAA7AEE5-A6DB-431B-80BA-C2762ED60C45,2023-09-26_09h48.52.046,WP_VExplicitOC_HL,2022.2.5,Win32,22.077492,NA,NA,2.0374,NA,NA,NA,NA,NA,bored,"bored, not bored","more bored, less bored",NA,NA,NA,NA,NA,NA,NA,NA,NA,NA,NA,NA,NA,NA,NA,NA,NA,NA,NA,NA,NA,NA,NA,NA,NA,NA,NA,NA,NA,NA,NA,NA,NA,NA,NA,NA,NA,NA,0,0,0,2,1,NA,NA,NA,NA,NA
SUPAMT21877,3XM0HYN6NQYGYEDX7PAJQPVSVROEPK,EAA7AEE5-A6DB-431B-80BA-C2762ED60C45,2023-09-26_09h48.52.046,WP_VExplicitOC_HL,2022.2.5,Win32,22.077492,-56.54281099,4.8189,2.0177,NA,NA,NA,NA,NA,frustrated,"frustrated, not frustrated","more frustrated, less frustrated",NA,NA,NA,NA,NA,NA,NA,NA,NA,NA,NA,NA,NA,NA,NA,NA,NA,NA,NA,NA,NA,NA,NA,NA,NA,NA,NA,NA,NA,NA,NA,NA,NA,NA,NA,NA,NA,NA,0,1,1,1,1,NA,NA,NA,NA,NA
SUPAMT21877,3XM0HYN6NQYGYEDX7PAJQPVSVROEPK,EAA7AEE5-A6DB-431B-80BA-C2762ED60C45,2023-09-26_09h48.52.046,WP_VExplicitOC_HL,2022.2.5,Win32,22.077492,38.44911147,4.4132,2.0525,NA,NA,NA,NA,NA,happy,"unhappy, happy","less happy, more happy",NA,NA,NA,NA,NA,NA,NA,NA,NA,NA,NA,NA,NA,NA,NA,NA,NA,NA,NA,NA,NA,NA,NA,NA,NA,NA,NA,NA,NA,NA,NA,NA,NA,NA,NA,NA,NA,NA,0,2,2,0,1,NA,NA,NA,NA,NA
SUPAMT21877,3XM0HYN6NQYGYEDX7PAJQPVSVROEPK,EAA7AEE5-A6DB-431B-80BA-C2762ED60C45,2023-09-26_09h48.52.046,WP_VExplicitOC_HL,2022.2.5,Win32,22.077492,NA,NA,NA,NA,NA,NA,NA,NA,NA,NA,NA,NA,NA,NA,NA,NA,NA,NA,NA,NA,NA,NA,NA,NA,NA,NA,NA,NA,NA,NA,NA,NA,NA,NA,NA,NA,NA,NA,NA,NA,NA,NA,NA,NA,NA,NA,NA,NA,NA,NA,NA,NA,NA,NA,2,0,2,0,1
SUPAMT21877,3XM0HYN6NQYGYEDX7PAJQPVSVROEPK,EAA7AEE5-A6DB-431B-80BA-C2762ED60C45,2023-09-26_09h48.52.046,WP_VExplicitOC_HL,2022.2.5,Win32,22.077492,NA,NA,2.0507,NA,NA,NA,NA,NA,frustrated,"frustrated, not frustrated","more frustrated, less frustrated",NA,NA,NA,NA,NA,NA,NA,NA,NA,NA,NA,NA,NA,NA,NA,NA,NA,NA,NA,NA,NA,NA,NA,NA,NA,NA,NA,NA,NA,NA,NA,NA,NA,NA,NA,NA,NA,NA,0,0,0,1,1,NA,NA,NA,NA,NA
SUPAMT21877,3XM0HYN6NQYGYEDX7PAJQPVSVROEPK,EAA7AEE5-A6DB-431B-80BA-C2762ED60C45,2023-09-26_09h48.52.046,WP_VExplicitOC_HL,2022.2.5,Win32,22.077492,22.29402262,4.8882,2.0478,NA,NA,NA,NA,NA,happy,"unhappy, happy","less happy, more happy",NA,NA,NA,NA,NA,NA,NA,NA,NA,NA,NA,NA,NA,NA,NA,NA,NA,NA,NA,NA,NA,NA,NA,NA,NA,NA,NA,NA,NA,NA,NA,NA,NA,NA,NA,NA,NA,NA,0,1,1,0,1,NA,NA,NA,NA,NA
SUPAMT21877,3XM0HYN6NQYGYEDX7PAJQPVSVROEPK,EAA7AEE5-A6DB-431B-80BA-C2762ED60C45,2023-09-26_09h48.52.046,WP_VExplicitOC_HL,2022.2.5,Win32,22.077492,22.29402262,3.7824,2.0459,NA,NA,NA,NA,NA,bored,"bored, not bored","more bored, less bored",NA,NA,NA,NA,NA,NA,NA,NA,NA,NA,NA,NA,NA,NA,NA,NA,NA,NA,NA,NA,NA,NA,NA,NA,NA,NA,NA,NA,NA,NA,NA,NA,NA,NA,NA,NA,NA,NA,0,2,2,2,1,NA,NA,NA,NA,NA
SUPAMT21877,3XM0HYN6NQYGYEDX7PAJQPVSVROEPK,EAA7AEE5-A6DB-431B-80BA-C2762ED60C45,2023-09-26_09h48.52.046,WP_VExplicitOC_HL,2022.2.5,Win32,22.077492,NA,NA,NA,NA,NA,NA,NA,NA,NA,NA,NA,NA,NA,NA,NA,NA,NA,NA,NA,NA,NA,NA,NA,NA,NA,NA,NA,NA,NA,NA,NA,NA,NA,NA,NA,NA,NA,NA,NA,NA,NA,NA,NA,NA,NA,NA,NA,NA,NA,NA,NA,NA,NA,NA,3,0,3,0,1
SUPAMT21877,3XM0HYN6NQYGYEDX7PAJQPVSVROEPK,EAA7AEE5-A6DB-431B-80BA-C2762ED60C45,2023-09-26_09h48.52.046,WP_VExplicitOC_HL,2022.2.5,Win32,22.077492,34.24878837,5.5725,2.0443,NA,NA,NA,NA,NA,happy,"unhappy, happy","less happy, more happy",NA,NA,NA,NA,NA,NA,NA,NA,NA,NA,NA,NA,NA,NA,NA,NA,NA,NA,NA,NA,NA,NA,NA,NA,NA,NA,NA,NA,NA,NA,NA,NA,NA,NA,NA,NA,NA,NA,0,0,0,0,1,NA,NA,NA,NA,NA
SUPAMT21877,3XM0HYN6NQYGYEDX7PAJQPVSVROEPK,EAA7AEE5-A6DB-431B-80BA-C2762ED60C45,2023-09-26_09h48.52.046,WP_VExplicitOC_HL,2022.2.5,Win32,22.077492,35.86429725,3.9532,2.0291,NA,NA,NA,NA,NA,bored,"bored, not bored","more bored, less bored",NA,NA,NA,NA,NA,NA,NA,NA,NA,NA,NA,NA,NA,NA,NA,NA,NA,NA,NA,NA,NA,NA,NA,NA,NA,NA,NA,NA,NA,NA,NA,NA,NA,NA,NA,NA,NA,NA,0,1,1,2,1,NA,NA,NA,NA,NA
SUPAMT21877,3XM0HYN6NQYGYEDX7PAJQPVSVROEPK,EAA7AEE5-A6DB-431B-80BA-C2762ED60C45,2023-09-26_09h48.52.046,WP_VExplicitOC_HL,2022.2.5,Win32,22.077492,-56.86591276,4.8241,2.0367,NA,NA,NA,NA,NA,frustrated,"frustrated, not frustrated","more frustrated, less frustrated",NA,NA,NA,NA,NA,NA,NA,NA,NA,NA,NA,NA,NA,NA,NA,NA,NA,NA,NA,NA,NA,NA,NA,NA,NA,NA,NA,NA,NA,NA,NA,NA,NA,NA,NA,NA,NA,NA,0,2,2,1,1,NA,NA,NA,NA,NA
SUPAMT21877,3XM0HYN6NQYGYEDX7PAJQPVSVROEPK,EAA7AEE5-A6DB-431B-80BA-C2762ED60C45,2023-09-26_09h48.52.046,WP_VExplicitOC_HL,2022.2.5,Win32,22.077492,NA,NA,NA,NA,NA,NA,NA,NA,NA,NA,NA,NA,NA,NA,NA,NA,NA,NA,NA,NA,NA,NA,NA,NA,NA,NA,NA,NA,NA,NA,NA,NA,NA,NA,NA,NA,NA,NA,NA,NA,NA,NA,NA,NA,NA,NA,NA,NA,NA,NA,NA,NA,NA,NA,4,0,4,0,1
SUPAMT21877,3XM0HYN6NQYGYEDX7PAJQPVSVROEPK,EAA7AEE5-A6DB-431B-80BA-C2762ED60C45,2023-09-26_09h48.52.046,WP_VExplicitOC_HL,2022.2.5,Win32,22.077492,32.63327948,4.7208,2.0121000000000002,NA,NA,NA,NA,NA,bored,"bored, not bored","more bored, less bored",NA,NA,NA,NA,NA,NA,NA,NA,NA,NA,NA,NA,NA,NA,NA,NA,NA,NA,NA,NA,NA,NA,NA,NA,NA,NA,NA,NA,NA,NA,NA,NA,NA,NA,NA,NA,NA,NA,0,0,0,2,1,NA,NA,NA,NA,NA
SUPAMT21877,3XM0HYN6NQYGYEDX7PAJQPVSVROEPK,EAA7AEE5-A6DB-431B-80BA-C2762ED60C45,2023-09-26_09h48.52.046,WP_VExplicitOC_HL,2022.2.5,Win32,22.077492,43.94184168,4.4286,2.053,NA,NA,NA,NA,NA,happy,"unhappy, happy","less happy, more happy",NA,NA,NA,NA,NA,NA,NA,NA,NA,NA,NA,NA,NA,NA,NA,NA,NA,NA,NA,NA,NA,NA,NA,NA,NA,NA,NA,NA,NA,NA,NA,NA,NA,NA,NA,NA,NA,NA,0,1,1,0,1,NA,NA,NA,NA,NA
SUPAMT21877,3XM0HYN6NQYGYEDX7PAJQPVSVROEPK,EAA7AEE5-A6DB-431B-80BA-C2762ED60C45,2023-09-26_09h48.52.046,WP_VExplicitOC_HL,2022.2.5,Win32,22.077492,-35.86429725,4.4246,2.001,NA,NA,NA,NA,NA,frustrated,"frustrated, not frustrated","more frustrated, less frustrated",NA,NA,NA,NA,NA,NA,NA,NA,NA,NA,NA,NA,NA,NA,NA,NA,NA,NA,NA,NA,NA,NA,NA,NA,NA,NA,NA,NA,NA,NA,NA,NA,NA,NA,NA,NA,NA,NA,0,2,2,1,1,NA,NA,NA,NA,NA
SUPAMT21877,3XM0HYN6NQYGYEDX7PAJQPVSVROEPK,EAA7AEE5-A6DB-431B-80BA-C2762ED60C45,2023-09-26_09h48.52.046,WP_VExplicitOC_HL,2022.2.5,Win32,22.077492,NA,NA,NA,NA,NA,NA,NA,NA,NA,NA,NA,NA,NA,NA,NA,NA,NA,NA,NA,NA,NA,NA,NA,NA,NA,NA,NA,NA,NA,NA,NA,NA,NA,NA,NA,NA,NA,NA,NA,NA,NA,NA,NA,NA,NA,NA,NA,NA,NA,NA,NA,NA,NA,NA,5,0,5,0,1
SUPAMT21877,3XM0HYN6NQYGYEDX7PAJQPVSVROEPK,EAA7AEE5-A6DB-431B-80BA-C2762ED60C45,2023-09-26_09h48.52.046,WP_VExplicitOC_HL,2022.2.5,Win32,22.077492,45.55735057,4.9246,2.0494,NA,NA,NA,NA,NA,happy,"unhappy, happy","less happy, more happy",NA,NA,NA,NA,NA,NA,NA,NA,NA,NA,NA,NA,NA,NA,NA,NA,NA,NA,NA,NA,NA,NA,NA,NA,NA,NA,NA,NA,NA,NA,NA,NA,NA,NA,NA,NA,NA,NA,0,0,0,0,1,NA,NA,NA,NA,NA
SUPAMT21877,3XM0HYN6NQYGYEDX7PAJQPVSVROEPK,EAA7AEE5-A6DB-431B-80BA-C2762ED60C45,2023-09-26_09h48.52.046,WP_VExplicitOC_HL,2022.2.5,Win32,22.077492,-37.15670436,4.7481,2.0353,NA,NA,NA,NA,NA,frustrated,"frustrated, not frustrated","more frustrated, less frustrated",NA,NA,NA,NA,NA,NA,NA,NA,NA,NA,NA,NA,NA,NA,NA,NA,NA,NA,NA,NA,NA,NA,NA,NA,NA,NA,NA,NA,NA,NA,NA,NA,NA,NA,NA,NA,NA,NA,0,1,1,1,1,NA,NA,NA,NA,NA
SUPAMT21877,3XM0HYN6NQYGYEDX7PAJQPVSVROEPK,EAA7AEE5-A6DB-431B-80BA-C2762ED60C45,2023-09-26_09h48.52.046,WP_VExplicitOC_HL,2022.2.5,Win32,22.077492,43.6187399,4.1226,2.008,NA,NA,NA,NA,NA,bored,"bored, not bored","more bored, less bored",NA,NA,NA,NA,NA,NA,NA,NA,NA,NA,NA,NA,NA,NA,NA,NA,NA,NA,NA,NA,NA,NA,NA,NA,NA,NA,NA,NA,NA,NA,NA,NA,NA,NA,NA,NA,NA,NA,0,2,2,2,1,NA,NA,NA,NA,NA
SUPAMT21877,3XM0HYN6NQYGYEDX7PAJQPVSVROEPK,EAA7AEE5-A6DB-431B-80BA-C2762ED60C45,2023-09-26_09h48.52.046,WP_VExplicitOC_HL,2022.2.5,Win32,22.077492,NA,NA,NA,NA,NA,NA,NA,NA,NA,NA,NA,NA,NA,NA,NA,NA,NA,NA,NA,NA,NA,NA,NA,NA,NA,NA,NA,NA,NA,NA,NA,NA,NA,NA,NA,NA,NA,NA,NA,NA,NA,NA,NA,NA,NA,NA,NA,NA,NA,NA,NA,NA,NA,NA,6,0,6,0,1
SUPAMT21877,3XM0HYN6NQYGYEDX7PAJQPVSVROEPK,EAA7AEE5-A6DB-431B-80BA-C2762ED60C45,2023-09-26_09h48.52.046,WP_VExplicitOC_HL,2022.2.5,Win32,22.077492,39.4184168,3.8665,2.0635,NA,NA,NA,NA,NA,happy,"unhappy, happy","less happy, more happy",NA,NA,NA,NA,NA,NA,NA,NA,NA,NA,NA,NA,NA,NA,NA,NA,NA,NA,NA,NA,NA,NA,NA,NA,NA,NA,NA,NA,NA,NA,NA,NA,NA,NA,NA,NA,NA,NA,0,0,0,0,1,NA,NA,NA,NA,NA
SUPAMT21877,3XM0HYN6NQYGYEDX7PAJQPVSVROEPK,EAA7AEE5-A6DB-431B-80BA-C2762ED60C45,2023-09-26_09h48.52.046,WP_VExplicitOC_HL,2022.2.5,Win32,22.077492,-52.34248788,4.5768,2.0296,NA,NA,NA,NA,NA,frustrated,"frustrated, not frustrated","more frustrated, less frustrated",NA,NA,NA,NA,NA,NA,NA,NA,NA,NA,NA,NA,NA,NA,NA,NA,NA,NA,NA,NA,NA,NA,NA,NA,NA,NA,NA,NA,NA,NA,NA,NA,NA,NA,NA,NA,NA,NA,0,1,1,1,1,NA,NA,NA,NA,NA
SUPAMT21877,3XM0HYN6NQYGYEDX7PAJQPVSVROEPK,EAA7AEE5-A6DB-431B-80BA-C2762ED60C45,2023-09-26_09h48.52.046,WP_VExplicitOC_HL,2022.2.5,Win32,22.077492,19.38610662,4.3896,2.0283,NA,NA,NA,NA,NA,bored,"bored, not bored","more bored, less bored",NA,NA,NA,NA,NA,NA,NA,NA,NA,NA,NA,NA,NA,NA,NA,NA,NA,NA,NA,NA,NA,NA,NA,NA,NA,NA,NA,NA,NA,NA,NA,NA,NA,NA,NA,NA,NA,NA,0,2,2,2,1,NA,NA,NA,NA,NA
SUPAMT21877,3XM0HYN6NQYGYEDX7PAJQPVSVROEPK,EAA7AEE5-A6DB-431B-80BA-C2762ED60C45,2023-09-26_09h48.52.046,WP_VExplicitOC_HL,2022.2.5,Win32,22.077492,NA,NA,NA,NA,NA,NA,NA,NA,NA,NA,NA,NA,NA,NA,NA,NA,NA,NA,NA,NA,NA,NA,NA,NA,NA,NA,NA,NA,NA,NA,NA,NA,NA,NA,NA,NA,NA,NA,NA,NA,NA,NA,NA,NA,NA,NA,NA,NA,NA,NA,NA,NA,NA,NA,7,0,7,0,1
SUPAMT21877,3XM0HYN6NQYGYEDX7PAJQPVSVROEPK,EAA7AEE5-A6DB-431B-80BA-C2762ED60C45,2023-09-26_09h48.52.046,WP_VExplicitOC_HL,2022.2.5,Win32,22.077492,-31.66397415,4.1617,2.041,NA,NA,NA,NA,NA,frustrated,"frustrated, not frustrated","more frustrated, less frustrated",NA,NA,NA,NA,NA,NA,NA,NA,NA,NA,NA,NA,NA,NA,NA,NA,NA,NA,NA,NA,NA,NA,NA,NA,NA,NA,NA,NA,NA,NA,NA,NA,NA,NA,NA,NA,NA,NA,0,0,0,1,1,NA,NA,NA,NA,NA
SUPAMT21877,3XM0HYN6NQYGYEDX7PAJQPVSVROEPK,EAA7AEE5-A6DB-431B-80BA-C2762ED60C45,2023-09-26_09h48.52.046,WP_VExplicitOC_HL,2022.2.5,Win32,22.077492,37.15670436,4.1163,2.0464,NA,NA,NA,NA,NA,happy,"unhappy, happy","less happy, more happy",NA,NA,NA,NA,NA,NA,NA,NA,NA,NA,NA,NA,NA,NA,NA,NA,NA,NA,NA,NA,NA,NA,NA,NA,NA,NA,NA,NA,NA,NA,NA,NA,NA,NA,NA,NA,NA,NA,0,1,1,0,1,NA,NA,NA,NA,NA
SUPAMT21877,3XM0HYN6NQYGYEDX7PAJQPVSVROEPK,EAA7AEE5-A6DB-431B-80BA-C2762ED60C45,2023-09-26_09h48.52.046,WP_VExplicitOC_HL,2022.2.5,Win32,22.077492,25.52504039,4.3613,2.0459,NA,NA,NA,NA,NA,bored,"bored, not bored","more bored, less bored",NA,NA,NA,NA,NA,NA,NA,NA,NA,NA,NA,NA,NA,NA,NA,NA,NA,NA,NA,NA,NA,NA,NA,NA,NA,NA,NA,NA,NA,NA,NA,NA,NA,NA,NA,NA,NA,NA,0,2,2,2,1,NA,NA,NA,NA,NA
SUPAMT21877,3XM0HYN6NQYGYEDX7PAJQPVSVROEPK,EAA7AEE5-A6DB-431B-80BA-C2762ED60C45,2023-09-26_09h48.52.046,WP_VExplicitOC_HL,2022.2.5,Win32,22.077492,NA,NA,NA,NA,NA,NA,NA,NA,NA,NA,NA,NA,NA,NA,NA,NA,NA,NA,NA,NA,NA,NA,NA,NA,NA,NA,NA,NA,NA,NA,NA,NA,NA,NA,NA,NA,NA,NA,NA,NA,NA,NA,NA,NA,NA,NA,NA,NA,NA,NA,NA,NA,NA,NA,8,0,8,0,1
SUPAMT21877,3XM0HYN6NQYGYEDX7PAJQPVSVROEPK,EAA7AEE5-A6DB-431B-80BA-C2762ED60C45,2023-09-26_09h48.52.046,WP_VExplicitOC_HL,2022.2.5,Win32,22.077492,30.37156704,5.1543,2.0115,NA,NA,NA,NA,NA,bored,"bored, not bored","more bored, less bored",NA,NA,NA,NA,NA,NA,NA,NA,NA,NA,NA,NA,NA,NA,NA,NA,NA,NA,NA,NA,NA,NA,NA,NA,NA,NA,NA,NA,NA,NA,NA,NA,NA,NA,NA,NA,NA,NA,0,0,0,2,1,NA,NA,NA,NA,NA
SUPAMT21877,3XM0HYN6NQYGYEDX7PAJQPVSVROEPK,EAA7AEE5-A6DB-431B-80BA-C2762ED60C45,2023-09-26_09h48.52.046,WP_VExplicitOC_HL,2022.2.5,Win32,22.077492,-52.01938611,4.5462,2.0546,NA,NA,NA,NA,NA,frustrated,"frustrated, not frustrated","more frustrated, less frustrated",NA,NA,NA,NA,NA,NA,NA,NA,NA,NA,NA,NA,NA,NA,NA,NA,NA,NA,NA,NA,NA,NA,NA,NA,NA,NA,NA,NA,NA,NA,NA,NA,NA,NA,NA,NA,NA,NA,0,1,1,1,1,NA,NA,NA,NA,NA
SUPAMT21877,3XM0HYN6NQYGYEDX7PAJQPVSVROEPK,EAA7AEE5-A6DB-431B-80BA-C2762ED60C45,2023-09-26_09h48.52.046,WP_VExplicitOC_HL,2022.2.5,Win32,22.077492,48.46526656,4.7345,2.011,NA,NA,NA,NA,NA,happy,"unhappy, happy","less happy, more happy",NA,NA,NA,NA,NA,NA,NA,NA,NA,NA,NA,NA,NA,NA,NA,NA,NA,NA,NA,NA,NA,NA,NA,NA,NA,NA,NA,NA,NA,NA,NA,NA,NA,NA,NA,NA,NA,NA,0,2,2,0,1,NA,NA,NA,NA,NA
SUPAMT21877,3XM0HYN6NQYGYEDX7PAJQPVSVROEPK,EAA7AEE5-A6DB-431B-80BA-C2762ED60C45,2023-09-26_09h48.52.046,WP_VExplicitOC_HL,2022.2.5,Win32,22.077492,NA,NA,NA,NA,NA,NA,NA,NA,NA,NA,NA,NA,NA,NA,NA,NA,NA,NA,NA,NA,NA,NA,NA,NA,NA,NA,NA,NA,NA,NA,NA,NA,NA,NA,NA,NA,NA,NA,NA,NA,NA,NA,NA,NA,NA,NA,NA,NA,NA,NA,NA,NA,NA,NA,9,0,9,0,1
SUPAMT21877,3XM0HYN6NQYGYEDX7PAJQPVSVROEPK,EAA7AEE5-A6DB-431B-80BA-C2762ED60C45,2023-09-26_09h48.52.046,WP_VExplicitOC_HL,2022.2.5,Win32,22.077492,41.68012924,4.2346,2.0671,NA,NA,NA,NA,NA,happy,"unhappy, happy","less happy, more happy",NA,NA,NA,NA,NA,NA,NA,NA,NA,NA,NA,NA,NA,NA,NA,NA,NA,NA,NA,NA,NA,NA,NA,NA,NA,NA,NA,NA,NA,NA,NA,NA,NA,NA,NA,NA,NA,NA,0,0,0,0,1,NA,NA,NA,NA,NA
SUPAMT21877,3XM0HYN6NQYGYEDX7PAJQPVSVROEPK,EAA7AEE5-A6DB-431B-80BA-C2762ED60C45,2023-09-26_09h48.52.046,WP_VExplicitOC_HL,2022.2.5,Win32,22.077492,-33.27948304,6.0347,2.037,NA,NA,NA,NA,NA,frustrated,"frustrated, not frustrated","more frustrated, less frustrated",NA,NA,NA,NA,NA,NA,NA,NA,NA,NA,NA,NA,NA,NA,NA,NA,NA,NA,NA,NA,NA,NA,NA,NA,NA,NA,NA,NA,NA,NA,NA,NA,NA,NA,NA,NA,NA,NA,0,1,1,1,1,NA,NA,NA,NA,NA
SUPAMT21877,3XM0HYN6NQYGYEDX7PAJQPVSVROEPK,EAA7AEE5-A6DB-431B-80BA-C2762ED60C45,2023-09-26_09h48.52.046,WP_VExplicitOC_HL,2022.2.5,Win32,22.077492,46.5266559,4.5038,2.0291,NA,NA,NA,NA,NA,bored,"bored, not bored","more bored, less bored",NA,NA,NA,NA,NA,NA,NA,NA,NA,NA,NA,NA,NA,NA,NA,NA,NA,NA,NA,NA,NA,NA,NA,NA,NA,NA,NA,NA,NA,NA,NA,NA,NA,NA,NA,NA,NA,NA,0,2,2,2,1,NA,NA,NA,NA,NA
SUPAMT21877,3XM0HYN6NQYGYEDX7PAJQPVSVROEPK,EAA7AEE5-A6DB-431B-80BA-C2762ED60C45,2023-09-26_09h48.52.046,WP_VExplicitOC_HL,2022.2.5,Win32,22.077492,NA,NA,NA,NA,NA,NA,NA,NA,NA,NA,NA,NA,NA,NA,NA,NA,NA,NA,NA,NA,NA,NA,NA,NA,NA,NA,NA,NA,NA,NA,NA,NA,NA,NA,NA,NA,NA,NA,NA,NA,NA,NA,NA,NA,NA,NA,NA,NA,NA,NA,NA,NA,NA,NA,10,0,10,0,1
SUPAMT21877,3XM0HYN6NQYGYEDX7PAJQPVSVROEPK,EAA7AEE5-A6DB-431B-80BA-C2762ED60C45,2023-09-26_09h48.52.046,WP_VExplicitOC_HL,2022.2.5,Win32,22.077492,46.5266559,5.7384,2.0349,NA,NA,NA,NA,NA,bored,"bored, not bored","more bored, less bored",NA,NA,NA,NA,NA,NA,NA,NA,NA,NA,NA,NA,NA,NA,NA,NA,NA,NA,NA,NA,NA,NA,NA,NA,NA,NA,NA,NA,NA,NA,NA,NA,NA,NA,NA,NA,NA,NA,0,0,0,2,1,NA,NA,NA,NA,NA
SUPAMT21877,3XM0HYN6NQYGYEDX7PAJQPVSVROEPK,EAA7AEE5-A6DB-431B-80BA-C2762ED60C45,2023-09-26_09h48.52.046,WP_VExplicitOC_HL,2022.2.5,Win32,22.077492,50.40387722,5.402,2.0034,NA,NA,NA,NA,NA,happy,"unhappy, happy","less happy, more happy",NA,NA,NA,NA,NA,NA,NA,NA,NA,NA,NA,NA,NA,NA,NA,NA,NA,NA,NA,NA,NA,NA,NA,NA,NA,NA,NA,NA,NA,NA,NA,NA,NA,NA,NA,NA,NA,NA,0,1,1,0,1,NA,NA,NA,NA,NA
SUPAMT21877,3XM0HYN6NQYGYEDX7PAJQPVSVROEPK,EAA7AEE5-A6DB-431B-80BA-C2762ED60C45,2023-09-26_09h48.52.046,WP_VExplicitOC_HL,2022.2.5,Win32,22.077492,-69.14378029,4.7065,2.0613,NA,NA,NA,NA,NA,frustrated,"frustrated, not frustrated","more frustrated, less frustrated",NA,NA,NA,NA,NA,NA,NA,NA,NA,NA,NA,NA,NA,NA,NA,NA,NA,NA,NA,NA,NA,NA,NA,NA,NA,NA,NA,NA,NA,NA,NA,NA,NA,NA,NA,NA,NA,NA,0,2,2,1,1,NA,NA,NA,NA,NA
SUPAMT21877,3XM0HYN6NQYGYEDX7PAJQPVSVROEPK,EAA7AEE5-A6DB-431B-80BA-C2762ED60C45,2023-09-26_09h48.52.046,WP_VExplicitOC_HL,2022.2.5,Win32,22.077492,NA,NA,NA,NA,NA,NA,NA,NA,NA,NA,NA,NA,NA,NA,NA,NA,NA,NA,NA,NA,NA,NA,NA,NA,NA,NA,NA,NA,NA,NA,NA,NA,NA,NA,NA,NA,NA,NA,NA,NA,NA,NA,NA,NA,NA,NA,NA,NA,NA,NA,NA,NA,NA,NA,11,0,11,0,1
SUPAMT21877,3XM0HYN6NQYGYEDX7PAJQPVSVROEPK,EAA7AEE5-A6DB-431B-80BA-C2762ED60C45,2023-09-26_09h48.52.046,WP_VExplicitOC_HL,2022.2.5,Win32,22.077492,50.08077544,6.0062,2.0271,NA,NA,NA,NA,NA,happy,"unhappy, happy","less happy, more happy",NA,NA,NA,NA,NA,NA,NA,NA,NA,NA,NA,NA,NA,NA,NA,NA,NA,NA,NA,NA,NA,NA,NA,NA,NA,NA,NA,NA,NA,NA,NA,NA,NA,NA,NA,NA,NA,NA,0,0,0,0,1,NA,NA,NA,NA,NA
SUPAMT21877,3XM0HYN6NQYGYEDX7PAJQPVSVROEPK,EAA7AEE5-A6DB-431B-80BA-C2762ED60C45,2023-09-26_09h48.52.046,WP_VExplicitOC_HL,2022.2.5,Win32,22.077492,42.64943457,6.1554,2.0755,NA,NA,NA,NA,NA,bored,"bored, not bored","more bored, less bored",NA,NA,NA,NA,NA,NA,NA,NA,NA,NA,NA,NA,NA,NA,NA,NA,NA,NA,NA,NA,NA,NA,NA,NA,NA,NA,NA,NA,NA,NA,NA,NA,NA,NA,NA,NA,NA,NA,0,1,1,2,1,NA,NA,NA,NA,NA
SUPAMT21877,3XM0HYN6NQYGYEDX7PAJQPVSVROEPK,EAA7AEE5-A6DB-431B-80BA-C2762ED60C45,2023-09-26_09h48.52.046,WP_VExplicitOC_HL,2022.2.5,Win32,22.077492,-69.78998384,6.0359,2.0251,NA,NA,NA,NA,NA,frustrated,"frustrated, not frustrated","more frustrated, less frustrated",NA,NA,NA,NA,NA,NA,NA,NA,NA,NA,NA,NA,NA,NA,NA,NA,NA,NA,NA,NA,NA,NA,NA,NA,NA,NA,NA,NA,NA,NA,NA,NA,NA,NA,NA,NA,NA,NA,0,2,2,1,1,NA,NA,NA,NA,NA
SUPAMT21877,3XM0HYN6NQYGYEDX7PAJQPVSVROEPK,EAA7AEE5-A6DB-431B-80BA-C2762ED60C45,2023-09-26_09h48.52.046,WP_VExplicitOC_HL,2022.2.5,Win32,22.077492,NA,NA,NA,NA,NA,NA,NA,NA,NA,NA,NA,NA,NA,NA,NA,NA,NA,NA,NA,NA,NA,NA,NA,NA,NA,NA,NA,NA,NA,NA,NA,NA,NA,NA,NA,NA,NA,NA,NA,NA,NA,NA,NA,NA,NA,NA,NA,NA,NA,NA,NA,NA,NA,NA,12,0,12,0,1
SUPAMT21877,3XM0HYN6NQYGYEDX7PAJQPVSVROEPK,EAA7AEE5-A6DB-431B-80BA-C2762ED60C45,2023-09-26_09h48.52.046,WP_VExplicitOC_HL,2022.2.5,Win32,22.077492,53.31179321,5.2663,2.0688,NA,NA,NA,NA,NA,happy,"unhappy, happy","less happy, more happy",NA,NA,NA,NA,NA,NA,NA,NA,NA,NA,NA,NA,NA,NA,NA,NA,NA,NA,NA,NA,NA,NA,NA,NA,NA,NA,NA,NA,NA,NA,NA,NA,NA,NA,NA,NA,NA,NA,0,0,0,0,1,NA,NA,NA,NA,NA
SUPAMT21877,3XM0HYN6NQYGYEDX7PAJQPVSVROEPK,EAA7AEE5-A6DB-431B-80BA-C2762ED60C45,2023-09-26_09h48.52.046,WP_VExplicitOC_HL,2022.2.5,Win32,22.077492,-68.17447496,5.595,2.0006,NA,NA,NA,NA,NA,frustrated,"frustrated, not frustrated","more frustrated, less frustrated",NA,NA,NA,NA,NA,NA,NA,NA,NA,NA,NA,NA,NA,NA,NA,NA,NA,NA,NA,NA,NA,NA,NA,NA,NA,NA,NA,NA,NA,NA,NA,NA,NA,NA,NA,NA,NA,NA,0,1,1,1,1,NA,NA,NA,NA,NA
SUPAMT21877,3XM0HYN6NQYGYEDX7PAJQPVSVROEPK,EAA7AEE5-A6DB-431B-80BA-C2762ED60C45,2023-09-26_09h48.52.046,WP_VExplicitOC_HL,2022.2.5,Win32,22.077492,22.94022617,4.4717,2.0496,NA,NA,NA,NA,NA,bored,"bored, not bored","more bored, less bored",NA,NA,NA,NA,NA,NA,NA,NA,NA,NA,NA,NA,NA,NA,NA,NA,NA,NA,NA,NA,NA,NA,NA,NA,NA,NA,NA,NA,NA,NA,NA,NA,NA,NA,NA,NA,NA,NA,0,2,2,2,1,NA,NA,NA,NA,NA
SUPAMT21877,3XM0HYN6NQYGYEDX7PAJQPVSVROEPK,EAA7AEE5-A6DB-431B-80BA-C2762ED60C45,2023-09-26_09h48.52.046,WP_VExplicitOC_HL,2022.2.5,Win32,22.077492,NA,NA,NA,NA,NA,NA,NA,NA,NA,NA,NA,NA,NA,NA,NA,NA,NA,NA,NA,NA,NA,NA,NA,NA,NA,NA,NA,NA,NA,NA,NA,NA,NA,NA,NA,NA,NA,NA,NA,NA,NA,NA,NA,NA,NA,NA,NA,NA,NA,NA,NA,NA,NA,NA,13,0,13,0,1
SUPAMT21877,3XM0HYN6NQYGYEDX7PAJQPVSVROEPK,EAA7AEE5-A6DB-431B-80BA-C2762ED60C45,2023-09-26_09h48.52.046,WP_VExplicitOC_HL,2022.2.5,Win32,22.077492,27.46365105,5.7619,2.0351,NA,NA,NA,NA,NA,happy,"unhappy, happy","less happy, more happy",NA,NA,NA,NA,NA,NA,NA,NA,NA,NA,NA,NA,NA,NA,NA,NA,NA,NA,NA,NA,NA,NA,NA,NA,NA,NA,NA,NA,NA,NA,NA,NA,NA,NA,NA,NA,NA,NA,0,0,0,0,1,NA,NA,NA,NA,NA
SUPAMT21877,3XM0HYN6NQYGYEDX7PAJQPVSVROEPK,EAA7AEE5-A6DB-431B-80BA-C2762ED60C45,2023-09-26_09h48.52.046,WP_VExplicitOC_HL,2022.2.5,Win32,22.077492,NA,NA,2.0913,NA,NA,NA,NA,NA,bored,"bored, not bored","more bored, less bored",NA,NA,NA,NA,NA,NA,NA,NA,NA,NA,NA,NA,NA,NA,NA,NA,NA,NA,NA,NA,NA,NA,NA,NA,NA,NA,NA,NA,NA,NA,NA,NA,NA,NA,NA,NA,NA,NA,0,1,1,2,1,NA,NA,NA,NA,NA
SUPAMT21877,3XM0HYN6NQYGYEDX7PAJQPVSVROEPK,EAA7AEE5-A6DB-431B-80BA-C2762ED60C45,2023-09-26_09h48.52.046,WP_VExplicitOC_HL,2022.2.5,Win32,22.077492,NA,NA,2.0599,NA,NA,NA,NA,NA,frustrated,"frustrated, not frustrated","more frustrated, less frustrated",NA,NA,NA,NA,NA,NA,NA,NA,NA,NA,NA,NA,NA,NA,NA,NA,NA,NA,NA,NA,NA,NA,NA,NA,NA,NA,NA,NA,NA,NA,NA,NA,NA,NA,NA,NA,NA,NA,0,2,2,1,1,NA,NA,NA,NA,NA
SUPAMT21877,3XM0HYN6NQYGYEDX7PAJQPVSVROEPK,EAA7AEE5-A6DB-431B-80BA-C2762ED60C45,2023-09-26_09h48.52.046,WP_VExplicitOC_HL,2022.2.5,Win32,22.077492,NA,NA,NA,NA,NA,NA,NA,NA,NA,NA,NA,NA,NA,NA,NA,NA,NA,NA,NA,NA,NA,NA,NA,NA,NA,NA,NA,NA,NA,NA,NA,NA,NA,NA,NA,NA,NA,NA,NA,NA,NA,NA,NA,NA,NA,NA,NA,NA,NA,NA,NA,NA,NA,NA,14,0,14,0,1
SUPAMT21877,3XM0HYN6NQYGYEDX7PAJQPVSVROEPK,EAA7AEE5-A6DB-431B-80BA-C2762ED60C45,2023-09-26_09h48.52.046,WP_VExplicitOC_HL,2022.2.5,Win32,22.077492,NA,NA,NA,NA,NA,NA,NA,NA,NA,NA,NA,NA,NA,NA,NA,NA,NA,NA,NA,NA,NA,NA,NA,NA,NA,NA,NA,NA,NA,NA,NA,NA,NA,NA,NA,NA,NA,NA,NA,NA,NA,NA,NA,NA,NA,NA,NA,NA,NA,NA,NA,NA,NA,NA,NA,NA,NA,NA,NA
