participant,session,completion,date,expName,psychopyVersion,OS,frameRate,rating_all.response,rating_all.rt,rating_all.tStart,rndRat1.thisRepN,rndRat1.thisTrialN,rndRat1.thisN,rndRat1.thisIndex,rndRat1.ran,Emo,Labs,Labs2,rating_alt.response,rating_alt.rt,AltC.thisRepN,AltC.thisTrialN,AltC.thisN,AltC.thisIndex,AltC.ran,alt_choices,pic_choices,TopAlt_Choice,rndRat2.thisRepN,rndRat2.thisTrialN,rndRat2.thisN,rndRat2.thisIndex,rndRat2.ran,rndRat3.thisRepN,rndRat3.thisTrialN,rndRat3.thisN,rndRat3.thisIndex,rndRat3.ran,trials_FC_H.thisRepN,trials_FC_H.thisTrialN,trials_FC_H.thisN,trials_FC_H.thisIndex,trials_FC_H.ran,rating_alt_2.response,rating_alt_2.rt,AltC2.thisRepN,AltC2.thisTrialN,AltC2.thisN,AltC2.thisIndex,AltC2.ran,BottomAlt_Choice,rndRat4.thisRepN,rndRat4.thisTrialN,rndRat4.thisN,rndRat4.thisIndex,rndRat4.ran,rndRat5.thisRepN,rndRat5.thisTrialN,rndRat5.thisN,rndRat5.thisIndex,rndRat5.ran,trials_FC_L.thisRepN,trials_FC_L.thisTrialN,trials_FC_L.thisN,trials_FC_L.thisIndex,trials_FC_L.ran
SUPAMT08258,33PPO7FEC1EJPMCTYZ9FBACVAFODI3,FEAD1A01-F393-492D-A103-6A5D589F813A,2023-09-28_12h28.57.986,WP_VExplicitOC_HL,2022.2.5,Win32,13.09792005,NA,NA,NA,NA,NA,NA,NA,NA,NA,NA,NA,NA,NA,NA,NA,NA,NA,NA,NA,NA,NA,NA,NA,NA,NA,NA,NA,NA,NA,NA,NA,NA,NA,NA,NA,NA,NA,NA,NA,NA,NA,NA,NA,NA,NA,NA,NA,NA,NA,NA,NA,NA,NA,NA,NA,NA,NA,NA,NA
SUPAMT08258,33PPO7FEC1EJPMCTYZ9FBACVAFODI3,FEAD1A01-F393-492D-A103-6A5D589F813A,2023-09-28_12h28.57.986,WP_VExplicitOC_HL,2022.2.5,Win32,13.09792005,NA,NA,NA,NA,NA,NA,NA,NA,NA,NA,NA,NA,NA,NA,NA,NA,NA,NA,NA,NA,NA,NA,NA,NA,NA,NA,NA,NA,NA,NA,NA,NA,NA,NA,NA,NA,NA,NA,NA,NA,NA,NA,NA,NA,NA,NA,NA,NA,NA,NA,NA,NA,NA,NA,NA,NA,NA,NA,NA
SUPAMT08258,33PPO7FEC1EJPMCTYZ9FBACVAFODI3,FEAD1A01-F393-492D-A103-6A5D589F813A,2023-09-28_12h28.57.986,WP_VExplicitOC_HL,2022.2.5,Win32,13.09792005,NA,NA,NA,NA,NA,NA,NA,NA,NA,NA,NA,NA,NA,NA,NA,NA,NA,NA,NA,NA,NA,NA,NA,NA,NA,NA,NA,NA,NA,NA,NA,NA,NA,NA,NA,NA,NA,NA,NA,NA,NA,NA,NA,NA,NA,NA,NA,NA,NA,NA,NA,NA,NA,NA,NA,NA,NA,NA,NA
SUPAMT08258,33PPO7FEC1EJPMCTYZ9FBACVAFODI3,FEAD1A01-F393-492D-A103-6A5D589F813A,2023-09-28_12h28.57.986,WP_VExplicitOC_HL,2022.2.5,Win32,13.09792005,54.6875,4.5571,2.0794,0,0,0,2,1,bored,"bored, not bored","more bored, less bored",NA,NA,NA,NA,NA,NA,NA,NA,NA,NA,NA,NA,NA,NA,NA,NA,NA,NA,NA,NA,NA,NA,NA,NA,NA,NA,NA,NA,NA,NA,NA,NA,NA,NA,NA,NA,NA,NA,NA,NA,NA,NA,NA,NA,NA,NA,NA,NA
SUPAMT08258,33PPO7FEC1EJPMCTYZ9FBACVAFODI3,FEAD1A01-F393-492D-A103-6A5D589F813A,2023-09-28_12h28.57.986,WP_VExplicitOC_HL,2022.2.5,Win32,13.09792005,54.6875,3.573,2.0305,0,1,1,0,1,happy,"unhappy, happy","less happy, more happy",NA,NA,NA,NA,NA,NA,NA,NA,NA,NA,NA,NA,NA,NA,NA,NA,NA,NA,NA,NA,NA,NA,NA,NA,NA,NA,NA,NA,NA,NA,NA,NA,NA,NA,NA,NA,NA,NA,NA,NA,NA,NA,NA,NA,NA,NA,NA,NA
SUPAMT08258,33PPO7FEC1EJPMCTYZ9FBACVAFODI3,FEAD1A01-F393-492D-A103-6A5D589F813A,2023-09-28_12h28.57.986,WP_VExplicitOC_HL,2022.2.5,Win32,13.09792005,54.6875,3.3719,2.1151,0,2,2,1,1,frustrated,"frustrated, not frustrated","more frustrated, less frustrated",NA,NA,NA,NA,NA,NA,NA,NA,NA,NA,NA,NA,NA,NA,NA,NA,NA,NA,NA,NA,NA,NA,NA,NA,NA,NA,NA,NA,NA,NA,NA,NA,NA,NA,NA,NA,NA,NA,NA,NA,NA,NA,NA,NA,NA,NA,NA,NA
SUPAMT08258,33PPO7FEC1EJPMCTYZ9FBACVAFODI3,FEAD1A01-F393-492D-A103-6A5D589F813A,2023-09-28_12h28.57.986,WP_VExplicitOC_HL,2022.2.5,Win32,13.09792005,NA,NA,NA,NA,NA,NA,NA,NA,NA,NA,NA,NA,NA,NA,NA,NA,NA,NA,NA,NA,NA,NA,NA,NA,NA,NA,NA,NA,NA,NA,NA,NA,NA,NA,NA,NA,NA,NA,NA,NA,NA,NA,NA,NA,NA,NA,NA,NA,NA,NA,NA,NA,NA,NA,NA,NA,NA,NA,NA
SUPAMT08258,33PPO7FEC1EJPMCTYZ9FBACVAFODI3,FEAD1A01-F393-492D-A103-6A5D589F813A,2023-09-28_12h28.57.986,WP_VExplicitOC_HL,2022.2.5,Win32,13.09792005,NA,NA,NA,NA,NA,NA,NA,NA,NA,NA,NA,NA,NA,NA,NA,NA,NA,NA,NA,NA,NA,NA,NA,NA,NA,NA,NA,NA,NA,NA,NA,NA,NA,NA,NA,NA,NA,NA,NA,NA,NA,NA,NA,NA,NA,NA,NA,NA,NA,NA,NA,NA,NA,NA,NA,NA,NA,NA,NA
SUPAMT08258,33PPO7FEC1EJPMCTYZ9FBACVAFODI3,FEAD1A01-F393-492D-A103-6A5D589F813A,2023-09-28_12h28.57.986,WP_VExplicitOC_HL,2022.2.5,Win32,13.09792005,NA,NA,NA,NA,NA,NA,NA,NA,NA,NA,NA,NA,NA,NA,NA,NA,NA,NA,NA,NA,NA,NA,NA,NA,NA,NA,NA,NA,NA,NA,NA,NA,NA,NA,NA,NA,NA,NA,NA,NA,NA,NA,NA,NA,NA,NA,NA,NA,NA,NA,NA,NA,NA,NA,NA,NA,NA,NA,NA
SUPAMT08258,33PPO7FEC1EJPMCTYZ9FBACVAFODI3,FEAD1A01-F393-492D-A103-6A5D589F813A,2023-09-28_12h28.57.986,WP_VExplicitOC_HL,2022.2.5,Win32,13.09792005,NA,NA,NA,NA,NA,NA,NA,NA,NA,NA,NA,NA,NA,NA,NA,NA,NA,NA,NA,NA,NA,NA,NA,NA,NA,NA,NA,NA,NA,NA,NA,NA,NA,NA,NA,NA,NA,NA,NA,NA,NA,NA,NA,NA,NA,NA,NA,NA,NA,NA,NA,NA,NA,NA,NA,NA,NA,NA,NA
SUPAMT08258,33PPO7FEC1EJPMCTYZ9FBACVAFODI3,FEAD1A01-F393-492D-A103-6A5D589F813A,2023-09-28_12h28.57.986,WP_VExplicitOC_HL,2022.2.5,Win32,13.09792005,NA,NA,NA,NA,NA,NA,NA,NA,NA,NA,NA,54.6875,1.6681,0,0,0,0,1,rest (looking at a fixed cross),001.png,NA,NA,NA,NA,NA,NA,NA,NA,NA,NA,NA,NA,NA,NA,NA,NA,NA,NA,NA,NA,NA,NA,NA,NA,NA,NA,NA,NA,NA,NA,NA,NA,NA,NA,NA,NA,NA,NA,NA
SUPAMT08258,33PPO7FEC1EJPMCTYZ9FBACVAFODI3,FEAD1A01-F393-492D-A103-6A5D589F813A,2023-09-28_12h28.57.986,WP_VExplicitOC_HL,2022.2.5,Win32,13.09792005,NA,NA,NA,NA,NA,NA,NA,NA,NA,NA,NA,62.6953125,5.2028,0,1,1,1,1,stand up,002.png,NA,NA,NA,NA,NA,NA,NA,NA,NA,NA,NA,NA,NA,NA,NA,NA,NA,NA,NA,NA,NA,NA,NA,NA,NA,NA,NA,NA,NA,NA,NA,NA,NA,NA,NA,NA,NA,NA,NA
SUPAMT08258,33PPO7FEC1EJPMCTYZ9FBACVAFODI3,FEAD1A01-F393-492D-A103-6A5D589F813A,2023-09-28_12h28.57.986,WP_VExplicitOC_HL,2022.2.5,Win32,13.09792005,NA,NA,NA,NA,NA,NA,NA,NA,NA,NA,NA,52.734375,2.0811,0,2,2,2,1,stretch,003.png,NA,NA,NA,NA,NA,NA,NA,NA,NA,NA,NA,NA,NA,NA,NA,NA,NA,NA,NA,NA,NA,NA,NA,NA,NA,NA,NA,NA,NA,NA,NA,NA,NA,NA,NA,NA,NA,NA,NA
SUPAMT08258,33PPO7FEC1EJPMCTYZ9FBACVAFODI3,FEAD1A01-F393-492D-A103-6A5D589F813A,2023-09-28_12h28.57.986,WP_VExplicitOC_HL,2022.2.5,Win32,13.09792005,NA,NA,NA,NA,NA,NA,NA,NA,NA,NA,NA,52.734375,1.2125,0,3,3,3,1,make a drink,004.png,NA,NA,NA,NA,NA,NA,NA,NA,NA,NA,NA,NA,NA,NA,NA,NA,NA,NA,NA,NA,NA,NA,NA,NA,NA,NA,NA,NA,NA,NA,NA,NA,NA,NA,NA,NA,NA,NA,NA
SUPAMT08258,33PPO7FEC1EJPMCTYZ9FBACVAFODI3,FEAD1A01-F393-492D-A103-6A5D589F813A,2023-09-28_12h28.57.986,WP_VExplicitOC_HL,2022.2.5,Win32,13.09792005,NA,NA,NA,NA,NA,NA,NA,NA,NA,NA,NA,53.125,0.8605,0,4,4,4,1,scroll social media,005.png,NA,NA,NA,NA,NA,NA,NA,NA,NA,NA,NA,NA,NA,NA,NA,NA,NA,NA,NA,NA,NA,NA,NA,NA,NA,NA,NA,NA,NA,NA,NA,NA,NA,NA,NA,NA,NA,NA,NA
SUPAMT08258,33PPO7FEC1EJPMCTYZ9FBACVAFODI3,FEAD1A01-F393-492D-A103-6A5D589F813A,2023-09-28_12h28.57.986,WP_VExplicitOC_HL,2022.2.5,Win32,13.09792005,NA,NA,NA,NA,NA,NA,NA,NA,NA,NA,NA,53.125,0.981,0,5,5,5,1,listen to music,006.png,NA,NA,NA,NA,NA,NA,NA,NA,NA,NA,NA,NA,NA,NA,NA,NA,NA,NA,NA,NA,NA,NA,NA,NA,NA,NA,NA,NA,NA,NA,NA,NA,NA,NA,NA,NA,NA,NA,NA
SUPAMT08258,33PPO7FEC1EJPMCTYZ9FBACVAFODI3,FEAD1A01-F393-492D-A103-6A5D589F813A,2023-09-28_12h28.57.986,WP_VExplicitOC_HL,2022.2.5,Win32,13.09792005,NA,NA,NA,NA,NA,NA,NA,NA,NA,NA,NA,53.125,0.5702,0,6,6,6,1,daydream,007.png,NA,NA,NA,NA,NA,NA,NA,NA,NA,NA,NA,NA,NA,NA,NA,NA,NA,NA,NA,NA,NA,NA,NA,NA,NA,NA,NA,NA,NA,NA,NA,NA,NA,NA,NA,NA,NA,NA,NA
SUPAMT08258,33PPO7FEC1EJPMCTYZ9FBACVAFODI3,FEAD1A01-F393-492D-A103-6A5D589F813A,2023-09-28_12h28.57.986,WP_VExplicitOC_HL,2022.2.5,Win32,13.09792005,NA,NA,NA,NA,NA,NA,NA,NA,NA,NA,NA,53.125,0.2264,0,7,7,7,1,watch a short animation,008.png,NA,NA,NA,NA,NA,NA,NA,NA,NA,NA,NA,NA,NA,NA,NA,NA,NA,NA,NA,NA,NA,NA,NA,NA,NA,NA,NA,NA,NA,NA,NA,NA,NA,NA,NA,NA,NA,NA,NA
SUPAMT08258,33PPO7FEC1EJPMCTYZ9FBACVAFODI3,FEAD1A01-F393-492D-A103-6A5D589F813A,2023-09-28_12h28.57.986,WP_VExplicitOC_HL,2022.2.5,Win32,13.09792005,NA,NA,NA,NA,NA,NA,NA,NA,NA,NA,NA,53.125,0.3049,0,8,8,8,1,read a novel,009.png,NA,NA,NA,NA,NA,NA,NA,NA,NA,NA,NA,NA,NA,NA,NA,NA,NA,NA,NA,NA,NA,NA,NA,NA,NA,NA,NA,NA,NA,NA,NA,NA,NA,NA,NA,NA,NA,NA,NA
SUPAMT08258,33PPO7FEC1EJPMCTYZ9FBACVAFODI3,FEAD1A01-F393-492D-A103-6A5D589F813A,2023-09-28_12h28.57.986,WP_VExplicitOC_HL,2022.2.5,Win32,13.09792005,NA,NA,NA,NA,NA,NA,NA,NA,NA,NA,NA,53.125,0.7185,0,9,9,9,1,read the news,010.png,NA,NA,NA,NA,NA,NA,NA,NA,NA,NA,NA,NA,NA,NA,NA,NA,NA,NA,NA,NA,NA,NA,NA,NA,NA,NA,NA,NA,NA,NA,NA,NA,NA,NA,NA,NA,NA,NA,NA
SUPAMT08258,33PPO7FEC1EJPMCTYZ9FBACVAFODI3,FEAD1A01-F393-492D-A103-6A5D589F813A,2023-09-28_12h28.57.986,WP_VExplicitOC_HL,2022.2.5,Win32,13.09792005,NA,NA,NA,NA,NA,NA,NA,NA,NA,NA,NA,NA,NA,NA,NA,NA,NA,NA,NA,NA,NA,NA,NA,NA,NA,NA,NA,NA,NA,NA,NA,NA,NA,NA,NA,NA,NA,NA,NA,NA,NA,NA,NA,NA,NA,NA,NA,NA,NA,NA,NA,NA,NA,NA,NA,NA,NA,NA,NA
SUPAMT08258,33PPO7FEC1EJPMCTYZ9FBACVAFODI3,FEAD1A01-F393-492D-A103-6A5D589F813A,2023-09-28_12h28.57.986,WP_VExplicitOC_HL,2022.2.5,Win32,13.09792005,NA,NA,NA,NA,NA,NA,NA,NA,NA,NA,NA,NA,NA,NA,NA,NA,NA,NA,NA,NA,stand up,NA,NA,NA,NA,NA,NA,NA,NA,NA,NA,NA,NA,NA,NA,NA,NA,NA,NA,NA,NA,NA,NA,NA,NA,NA,NA,NA,NA,NA,NA,NA,NA,NA,NA,NA,NA,NA,NA
SUPAMT08258,33PPO7FEC1EJPMCTYZ9FBACVAFODI3,FEAD1A01-F393-492D-A103-6A5D589F813A,2023-09-28_12h28.57.986,WP_VExplicitOC_HL,2022.2.5,Win32,13.09792005,58.203125,4.3,2.0328,NA,NA,NA,NA,NA,frustrated,"frustrated, not frustrated","more frustrated, less frustrated",NA,NA,NA,NA,NA,NA,NA,NA,NA,NA,0,0,0,1,1,NA,NA,NA,NA,NA,NA,NA,NA,NA,NA,NA,NA,NA,NA,NA,NA,NA,NA,NA,NA,NA,NA,NA,NA,NA,NA,NA,NA,NA,NA,NA,NA,NA
SUPAMT08258,33PPO7FEC1EJPMCTYZ9FBACVAFODI3,FEAD1A01-F393-492D-A103-6A5D589F813A,2023-09-28_12h28.57.986,WP_VExplicitOC_HL,2022.2.5,Win32,13.09792005,58.203125,3.5428,2.0081,NA,NA,NA,NA,NA,happy,"unhappy, happy","less happy, more happy",NA,NA,NA,NA,NA,NA,NA,NA,NA,NA,0,1,1,0,1,NA,NA,NA,NA,NA,NA,NA,NA,NA,NA,NA,NA,NA,NA,NA,NA,NA,NA,NA,NA,NA,NA,NA,NA,NA,NA,NA,NA,NA,NA,NA,NA,NA
SUPAMT08258,33PPO7FEC1EJPMCTYZ9FBACVAFODI3,FEAD1A01-F393-492D-A103-6A5D589F813A,2023-09-28_12h28.57.986,WP_VExplicitOC_HL,2022.2.5,Win32,13.09792005,58.203125,4.0901,2.0574,NA,NA,NA,NA,NA,bored,"bored, not bored","more bored, less bored",NA,NA,NA,NA,NA,NA,NA,NA,NA,NA,0,2,2,2,1,NA,NA,NA,NA,NA,NA,NA,NA,NA,NA,NA,NA,NA,NA,NA,NA,NA,NA,NA,NA,NA,NA,NA,NA,NA,NA,NA,NA,NA,NA,NA,NA,NA
SUPAMT08258,33PPO7FEC1EJPMCTYZ9FBACVAFODI3,FEAD1A01-F393-492D-A103-6A5D589F813A,2023-09-28_12h28.57.986,WP_VExplicitOC_HL,2022.2.5,Win32,13.09792005,NA,NA,NA,NA,NA,NA,NA,NA,NA,NA,NA,NA,NA,NA,NA,NA,NA,NA,NA,NA,NA,NA,NA,NA,NA,NA,NA,NA,NA,NA,NA,NA,NA,NA,NA,NA,NA,NA,NA,NA,NA,NA,NA,NA,NA,NA,NA,NA,NA,NA,NA,NA,NA,NA,NA,NA,NA,NA,NA
SUPAMT08258,33PPO7FEC1EJPMCTYZ9FBACVAFODI3,FEAD1A01-F393-492D-A103-6A5D589F813A,2023-09-28_12h28.57.986,WP_VExplicitOC_HL,2022.2.5,Win32,13.09792005,NA,NA,NA,NA,NA,NA,NA,NA,NA,NA,NA,NA,NA,NA,NA,NA,NA,NA,NA,NA,NA,NA,NA,NA,NA,NA,NA,NA,NA,NA,NA,NA,NA,NA,NA,NA,NA,NA,NA,NA,NA,NA,NA,NA,NA,NA,NA,NA,NA,NA,NA,NA,NA,NA,NA,NA,NA,NA,NA
SUPAMT08258,33PPO7FEC1EJPMCTYZ9FBACVAFODI3,FEAD1A01-F393-492D-A103-6A5D589F813A,2023-09-28_12h28.57.986,WP_VExplicitOC_HL,2022.2.5,Win32,13.09792005,57.8125,4.0207,2.0527,NA,NA,NA,NA,NA,happy,"unhappy, happy","less happy, more happy",NA,NA,NA,NA,NA,NA,NA,NA,NA,NA,NA,NA,NA,NA,NA,0,0,0,0,1,NA,NA,NA,NA,NA,NA,NA,NA,NA,NA,NA,NA,NA,NA,NA,NA,NA,NA,NA,NA,NA,NA,NA,NA,NA,NA,NA,NA
SUPAMT08258,33PPO7FEC1EJPMCTYZ9FBACVAFODI3,FEAD1A01-F393-492D-A103-6A5D589F813A,2023-09-28_12h28.57.986,WP_VExplicitOC_HL,2022.2.5,Win32,13.09792005,60.546875,4.5738,2.0166,NA,NA,NA,NA,NA,frustrated,"frustrated, not frustrated","more frustrated, less frustrated",NA,NA,NA,NA,NA,NA,NA,NA,NA,NA,NA,NA,NA,NA,NA,0,1,1,1,1,NA,NA,NA,NA,NA,NA,NA,NA,NA,NA,NA,NA,NA,NA,NA,NA,NA,NA,NA,NA,NA,NA,NA,NA,NA,NA,NA,NA
SUPAMT08258,33PPO7FEC1EJPMCTYZ9FBACVAFODI3,FEAD1A01-F393-492D-A103-6A5D589F813A,2023-09-28_12h28.57.986,WP_VExplicitOC_HL,2022.2.5,Win32,13.09792005,60.546875,4.937,2.0521,NA,NA,NA,NA,NA,bored,"bored, not bored","more bored, less bored",NA,NA,NA,NA,NA,NA,NA,NA,NA,NA,NA,NA,NA,NA,NA,0,2,2,2,1,NA,NA,NA,NA,NA,NA,NA,NA,NA,NA,NA,NA,NA,NA,NA,NA,NA,NA,NA,NA,NA,NA,NA,NA,NA,NA,NA,NA
SUPAMT08258,33PPO7FEC1EJPMCTYZ9FBACVAFODI3,FEAD1A01-F393-492D-A103-6A5D589F813A,2023-09-28_12h28.57.986,WP_VExplicitOC_HL,2022.2.5,Win32,13.09792005,NA,NA,NA,NA,NA,NA,NA,NA,NA,NA,NA,NA,NA,NA,NA,NA,NA,NA,NA,NA,NA,NA,NA,NA,NA,NA,NA,NA,NA,NA,NA,0,0,0,0,1,NA,NA,NA,NA,NA,NA,NA,NA,NA,NA,NA,NA,NA,NA,NA,NA,NA,NA,NA,NA,NA,NA,NA
SUPAMT08258,33PPO7FEC1EJPMCTYZ9FBACVAFODI3,FEAD1A01-F393-492D-A103-6A5D589F813A,2023-09-28_12h28.57.986,WP_VExplicitOC_HL,2022.2.5,Win32,13.09792005,-70.3125,6.9903,2.0753,NA,NA,NA,NA,NA,bored,"bored, not bored","more bored, less bored",NA,NA,NA,NA,NA,NA,NA,NA,NA,NA,NA,NA,NA,NA,NA,0,0,0,2,1,NA,NA,NA,NA,NA,NA,NA,NA,NA,NA,NA,NA,NA,NA,NA,NA,NA,NA,NA,NA,NA,NA,NA,NA,NA,NA,NA,NA
SUPAMT08258,33PPO7FEC1EJPMCTYZ9FBACVAFODI3,FEAD1A01-F393-492D-A103-6A5D589F813A,2023-09-28_12h28.57.986,WP_VExplicitOC_HL,2022.2.5,Win32,13.09792005,-56.8359375,4.1913,2.096,NA,NA,NA,NA,NA,frustrated,"frustrated, not frustrated","more frustrated, less frustrated",NA,NA,NA,NA,NA,NA,NA,NA,NA,NA,NA,NA,NA,NA,NA,0,1,1,1,1,NA,NA,NA,NA,NA,NA,NA,NA,NA,NA,NA,NA,NA,NA,NA,NA,NA,NA,NA,NA,NA,NA,NA,NA,NA,NA,NA,NA
SUPAMT08258,33PPO7FEC1EJPMCTYZ9FBACVAFODI3,FEAD1A01-F393-492D-A103-6A5D589F813A,2023-09-28_12h28.57.986,WP_VExplicitOC_HL,2022.2.5,Win32,13.09792005,67.578125,4.4787,2.0078,NA,NA,NA,NA,NA,happy,"unhappy, happy","less happy, more happy",NA,NA,NA,NA,NA,NA,NA,NA,NA,NA,NA,NA,NA,NA,NA,0,2,2,0,1,NA,NA,NA,NA,NA,NA,NA,NA,NA,NA,NA,NA,NA,NA,NA,NA,NA,NA,NA,NA,NA,NA,NA,NA,NA,NA,NA,NA
SUPAMT08258,33PPO7FEC1EJPMCTYZ9FBACVAFODI3,FEAD1A01-F393-492D-A103-6A5D589F813A,2023-09-28_12h28.57.986,WP_VExplicitOC_HL,2022.2.5,Win32,13.09792005,NA,NA,NA,NA,NA,NA,NA,NA,NA,NA,NA,NA,NA,NA,NA,NA,NA,NA,NA,NA,NA,NA,NA,NA,NA,NA,NA,NA,NA,NA,NA,1,0,1,0,1,NA,NA,NA,NA,NA,NA,NA,NA,NA,NA,NA,NA,NA,NA,NA,NA,NA,NA,NA,NA,NA,NA,NA
SUPAMT08258,33PPO7FEC1EJPMCTYZ9FBACVAFODI3,FEAD1A01-F393-492D-A103-6A5D589F813A,2023-09-28_12h28.57.986,WP_VExplicitOC_HL,2022.2.5,Win32,13.09792005,NA,NA,2.0062,NA,NA,NA,NA,NA,frustrated,"frustrated, not frustrated","more frustrated, less frustrated",NA,NA,NA,NA,NA,NA,NA,NA,NA,NA,NA,NA,NA,NA,NA,0,0,0,1,1,NA,NA,NA,NA,NA,NA,NA,NA,NA,NA,NA,NA,NA,NA,NA,NA,NA,NA,NA,NA,NA,NA,NA,NA,NA,NA,NA,NA
SUPAMT08258,33PPO7FEC1EJPMCTYZ9FBACVAFODI3,FEAD1A01-F393-492D-A103-6A5D589F813A,2023-09-28_12h28.57.986,WP_VExplicitOC_HL,2022.2.5,Win32,13.09792005,75,3.2785,2.0316,NA,NA,NA,NA,NA,happy,"unhappy, happy","less happy, more happy",NA,NA,NA,NA,NA,NA,NA,NA,NA,NA,NA,NA,NA,NA,NA,0,1,1,0,1,NA,NA,NA,NA,NA,NA,NA,NA,NA,NA,NA,NA,NA,NA,NA,NA,NA,NA,NA,NA,NA,NA,NA,NA,NA,NA,NA,NA
SUPAMT08258,33PPO7FEC1EJPMCTYZ9FBACVAFODI3,FEAD1A01-F393-492D-A103-6A5D589F813A,2023-09-28_12h28.57.986,WP_VExplicitOC_HL,2022.2.5,Win32,13.09792005,75.5859375,3.2535,2.035,NA,NA,NA,NA,NA,bored,"bored, not bored","more bored, less bored",NA,NA,NA,NA,NA,NA,NA,NA,NA,NA,NA,NA,NA,NA,NA,0,2,2,2,1,NA,NA,NA,NA,NA,NA,NA,NA,NA,NA,NA,NA,NA,NA,NA,NA,NA,NA,NA,NA,NA,NA,NA,NA,NA,NA,NA,NA
SUPAMT08258,33PPO7FEC1EJPMCTYZ9FBACVAFODI3,FEAD1A01-F393-492D-A103-6A5D589F813A,2023-09-28_12h28.57.986,WP_VExplicitOC_HL,2022.2.5,Win32,13.09792005,NA,NA,NA,NA,NA,NA,NA,NA,NA,NA,NA,NA,NA,NA,NA,NA,NA,NA,NA,NA,NA,NA,NA,NA,NA,NA,NA,NA,NA,NA,NA,2,0,2,0,1,NA,NA,NA,NA,NA,NA,NA,NA,NA,NA,NA,NA,NA,NA,NA,NA,NA,NA,NA,NA,NA,NA,NA
SUPAMT08258,33PPO7FEC1EJPMCTYZ9FBACVAFODI3,FEAD1A01-F393-492D-A103-6A5D589F813A,2023-09-28_12h28.57.986,WP_VExplicitOC_HL,2022.2.5,Win32,13.09792005,-51.953125,4.3297,2.0139,NA,NA,NA,NA,NA,frustrated,"frustrated, not frustrated","more frustrated, less frustrated",NA,NA,NA,NA,NA,NA,NA,NA,NA,NA,NA,NA,NA,NA,NA,0,0,0,1,1,NA,NA,NA,NA,NA,NA,NA,NA,NA,NA,NA,NA,NA,NA,NA,NA,NA,NA,NA,NA,NA,NA,NA,NA,NA,NA,NA,NA
SUPAMT08258,33PPO7FEC1EJPMCTYZ9FBACVAFODI3,FEAD1A01-F393-492D-A103-6A5D589F813A,2023-09-28_12h28.57.986,WP_VExplicitOC_HL,2022.2.5,Win32,13.09792005,69.7265625,4.1189,2.1054,NA,NA,NA,NA,NA,happy,"unhappy, happy","less happy, more happy",NA,NA,NA,NA,NA,NA,NA,NA,NA,NA,NA,NA,NA,NA,NA,0,1,1,0,1,NA,NA,NA,NA,NA,NA,NA,NA,NA,NA,NA,NA,NA,NA,NA,NA,NA,NA,NA,NA,NA,NA,NA,NA,NA,NA,NA,NA
SUPAMT08258,33PPO7FEC1EJPMCTYZ9FBACVAFODI3,FEAD1A01-F393-492D-A103-6A5D589F813A,2023-09-28_12h28.57.986,WP_VExplicitOC_HL,2022.2.5,Win32,13.09792005,58.7890625,4.6802,2.042,NA,NA,NA,NA,NA,bored,"bored, not bored","more bored, less bored",NA,NA,NA,NA,NA,NA,NA,NA,NA,NA,NA,NA,NA,NA,NA,0,2,2,2,1,NA,NA,NA,NA,NA,NA,NA,NA,NA,NA,NA,NA,NA,NA,NA,NA,NA,NA,NA,NA,NA,NA,NA,NA,NA,NA,NA,NA
SUPAMT08258,33PPO7FEC1EJPMCTYZ9FBACVAFODI3,FEAD1A01-F393-492D-A103-6A5D589F813A,2023-09-28_12h28.57.986,WP_VExplicitOC_HL,2022.2.5,Win32,13.09792005,NA,NA,NA,NA,NA,NA,NA,NA,NA,NA,NA,NA,NA,NA,NA,NA,NA,NA,NA,NA,NA,NA,NA,NA,NA,NA,NA,NA,NA,NA,NA,3,0,3,0,1,NA,NA,NA,NA,NA,NA,NA,NA,NA,NA,NA,NA,NA,NA,NA,NA,NA,NA,NA,NA,NA,NA,NA
SUPAMT08258,33PPO7FEC1EJPMCTYZ9FBACVAFODI3,FEAD1A01-F393-492D-A103-6A5D589F813A,2023-09-28_12h28.57.986,WP_VExplicitOC_HL,2022.2.5,Win32,13.09792005,-54.1015625,4.5045,2.0315,NA,NA,NA,NA,NA,bored,"bored, not bored","more bored, less bored",NA,NA,NA,NA,NA,NA,NA,NA,NA,NA,NA,NA,NA,NA,NA,0,0,0,2,1,NA,NA,NA,NA,NA,NA,NA,NA,NA,NA,NA,NA,NA,NA,NA,NA,NA,NA,NA,NA,NA,NA,NA,NA,NA,NA,NA,NA
SUPAMT08258,33PPO7FEC1EJPMCTYZ9FBACVAFODI3,FEAD1A01-F393-492D-A103-6A5D589F813A,2023-09-28_12h28.57.986,WP_VExplicitOC_HL,2022.2.5,Win32,13.09792005,-54.4921875,4.7798,2.0442,NA,NA,NA,NA,NA,frustrated,"frustrated, not frustrated","more frustrated, less frustrated",NA,NA,NA,NA,NA,NA,NA,NA,NA,NA,NA,NA,NA,NA,NA,0,1,1,1,1,NA,NA,NA,NA,NA,NA,NA,NA,NA,NA,NA,NA,NA,NA,NA,NA,NA,NA,NA,NA,NA,NA,NA,NA,NA,NA,NA,NA
SUPAMT08258,33PPO7FEC1EJPMCTYZ9FBACVAFODI3,FEAD1A01-F393-492D-A103-6A5D589F813A,2023-09-28_12h28.57.986,WP_VExplicitOC_HL,2022.2.5,Win32,13.09792005,62.109375,4.4596,2.1164,NA,NA,NA,NA,NA,happy,"unhappy, happy","less happy, more happy",NA,NA,NA,NA,NA,NA,NA,NA,NA,NA,NA,NA,NA,NA,NA,0,2,2,0,1,NA,NA,NA,NA,NA,NA,NA,NA,NA,NA,NA,NA,NA,NA,NA,NA,NA,NA,NA,NA,NA,NA,NA,NA,NA,NA,NA,NA
SUPAMT08258,33PPO7FEC1EJPMCTYZ9FBACVAFODI3,FEAD1A01-F393-492D-A103-6A5D589F813A,2023-09-28_12h28.57.986,WP_VExplicitOC_HL,2022.2.5,Win32,13.09792005,NA,NA,NA,NA,NA,NA,NA,NA,NA,NA,NA,NA,NA,NA,NA,NA,NA,NA,NA,NA,NA,NA,NA,NA,NA,NA,NA,NA,NA,NA,NA,4,0,4,0,1,NA,NA,NA,NA,NA,NA,NA,NA,NA,NA,NA,NA,NA,NA,NA,NA,NA,NA,NA,NA,NA,NA,NA
SUPAMT08258,33PPO7FEC1EJPMCTYZ9FBACVAFODI3,FEAD1A01-F393-492D-A103-6A5D589F813A,2023-09-28_12h28.57.986,WP_VExplicitOC_HL,2022.2.5,Win32,13.09792005,41.796875,4.4622,2.0134,NA,NA,NA,NA,NA,frustrated,"frustrated, not frustrated","more frustrated, less frustrated",NA,NA,NA,NA,NA,NA,NA,NA,NA,NA,NA,NA,NA,NA,NA,0,0,0,1,1,NA,NA,NA,NA,NA,NA,NA,NA,NA,NA,NA,NA,NA,NA,NA,NA,NA,NA,NA,NA,NA,NA,NA,NA,NA,NA,NA,NA
SUPAMT08258,33PPO7FEC1EJPMCTYZ9FBACVAFODI3,FEAD1A01-F393-492D-A103-6A5D589F813A,2023-09-28_12h28.57.986,WP_VExplicitOC_HL,2022.2.5,Win32,13.09792005,41.796875,3.1981,2.0487,NA,NA,NA,NA,NA,bored,"bored, not bored","more bored, less bored",NA,NA,NA,NA,NA,NA,NA,NA,NA,NA,NA,NA,NA,NA,NA,0,1,1,2,1,NA,NA,NA,NA,NA,NA,NA,NA,NA,NA,NA,NA,NA,NA,NA,NA,NA,NA,NA,NA,NA,NA,NA,NA,NA,NA,NA,NA
SUPAMT08258,33PPO7FEC1EJPMCTYZ9FBACVAFODI3,FEAD1A01-F393-492D-A103-6A5D589F813A,2023-09-28_12h28.57.986,WP_VExplicitOC_HL,2022.2.5,Win32,13.09792005,41.796875,3.0132,2.0003,NA,NA,NA,NA,NA,happy,"unhappy, happy","less happy, more happy",NA,NA,NA,NA,NA,NA,NA,NA,NA,NA,NA,NA,NA,NA,NA,0,2,2,0,1,NA,NA,NA,NA,NA,NA,NA,NA,NA,NA,NA,NA,NA,NA,NA,NA,NA,NA,NA,NA,NA,NA,NA,NA,NA,NA,NA,NA
SUPAMT08258,33PPO7FEC1EJPMCTYZ9FBACVAFODI3,FEAD1A01-F393-492D-A103-6A5D589F813A,2023-09-28_12h28.57.986,WP_VExplicitOC_HL,2022.2.5,Win32,13.09792005,NA,NA,NA,NA,NA,NA,NA,NA,NA,NA,NA,NA,NA,NA,NA,NA,NA,NA,NA,NA,NA,NA,NA,NA,NA,NA,NA,NA,NA,NA,NA,5,0,5,0,1,NA,NA,NA,NA,NA,NA,NA,NA,NA,NA,NA,NA,NA,NA,NA,NA,NA,NA,NA,NA,NA,NA,NA
SUPAMT08258,33PPO7FEC1EJPMCTYZ9FBACVAFODI3,FEAD1A01-F393-492D-A103-6A5D589F813A,2023-09-28_12h28.57.986,WP_VExplicitOC_HL,2022.2.5,Win32,13.09792005,41.2109375,3.8072,2.0168,NA,NA,NA,NA,NA,frustrated,"frustrated, not frustrated","more frustrated, less frustrated",NA,NA,NA,NA,NA,NA,NA,NA,NA,NA,NA,NA,NA,NA,NA,0,0,0,1,1,NA,NA,NA,NA,NA,NA,NA,NA,NA,NA,NA,NA,NA,NA,NA,NA,NA,NA,NA,NA,NA,NA,NA,NA,NA,NA,NA,NA
SUPAMT08258,33PPO7FEC1EJPMCTYZ9FBACVAFODI3,FEAD1A01-F393-492D-A103-6A5D589F813A,2023-09-28_12h28.57.986,WP_VExplicitOC_HL,2022.2.5,Win32,13.09792005,43.359375,3.1543,2.067,NA,NA,NA,NA,NA,bored,"bored, not bored","more bored, less bored",NA,NA,NA,NA,NA,NA,NA,NA,NA,NA,NA,NA,NA,NA,NA,0,1,1,2,1,NA,NA,NA,NA,NA,NA,NA,NA,NA,NA,NA,NA,NA,NA,NA,NA,NA,NA,NA,NA,NA,NA,NA,NA,NA,NA,NA,NA
SUPAMT08258,33PPO7FEC1EJPMCTYZ9FBACVAFODI3,FEAD1A01-F393-492D-A103-6A5D589F813A,2023-09-28_12h28.57.986,WP_VExplicitOC_HL,2022.2.5,Win32,13.09792005,43.9453125,3.0071,2.0514,NA,NA,NA,NA,NA,happy,"unhappy, happy","less happy, more happy",NA,NA,NA,NA,NA,NA,NA,NA,NA,NA,NA,NA,NA,NA,NA,0,2,2,0,1,NA,NA,NA,NA,NA,NA,NA,NA,NA,NA,NA,NA,NA,NA,NA,NA,NA,NA,NA,NA,NA,NA,NA,NA,NA,NA,NA,NA
SUPAMT08258,33PPO7FEC1EJPMCTYZ9FBACVAFODI3,FEAD1A01-F393-492D-A103-6A5D589F813A,2023-09-28_12h28.57.986,WP_VExplicitOC_HL,2022.2.5,Win32,13.09792005,NA,NA,NA,NA,NA,NA,NA,NA,NA,NA,NA,NA,NA,NA,NA,NA,NA,NA,NA,NA,NA,NA,NA,NA,NA,NA,NA,NA,NA,NA,NA,6,0,6,0,1,NA,NA,NA,NA,NA,NA,NA,NA,NA,NA,NA,NA,NA,NA,NA,NA,NA,NA,NA,NA,NA,NA,NA
SUPAMT08258,33PPO7FEC1EJPMCTYZ9FBACVAFODI3,FEAD1A01-F393-492D-A103-6A5D589F813A,2023-09-28_12h28.57.986,WP_VExplicitOC_HL,2022.2.5,Win32,13.09792005,47.8515625,4.4828,2.0303,NA,NA,NA,NA,NA,bored,"bored, not bored","more bored, less bored",NA,NA,NA,NA,NA,NA,NA,NA,NA,NA,NA,NA,NA,NA,NA,0,0,0,2,1,NA,NA,NA,NA,NA,NA,NA,NA,NA,NA,NA,NA,NA,NA,NA,NA,NA,NA,NA,NA,NA,NA,NA,NA,NA,NA,NA,NA
SUPAMT08258,33PPO7FEC1EJPMCTYZ9FBACVAFODI3,FEAD1A01-F393-492D-A103-6A5D589F813A,2023-09-28_12h28.57.986,WP_VExplicitOC_HL,2022.2.5,Win32,13.09792005,49.0234375,3.213,2.0412,NA,NA,NA,NA,NA,frustrated,"frustrated, not frustrated","more frustrated, less frustrated",NA,NA,NA,NA,NA,NA,NA,NA,NA,NA,NA,NA,NA,NA,NA,0,1,1,1,1,NA,NA,NA,NA,NA,NA,NA,NA,NA,NA,NA,NA,NA,NA,NA,NA,NA,NA,NA,NA,NA,NA,NA,NA,NA,NA,NA,NA
SUPAMT08258,33PPO7FEC1EJPMCTYZ9FBACVAFODI3,FEAD1A01-F393-492D-A103-6A5D589F813A,2023-09-28_12h28.57.986,WP_VExplicitOC_HL,2022.2.5,Win32,13.09792005,50.78125,3.0448,2.005,NA,NA,NA,NA,NA,happy,"unhappy, happy","less happy, more happy",NA,NA,NA,NA,NA,NA,NA,NA,NA,NA,NA,NA,NA,NA,NA,0,2,2,0,1,NA,NA,NA,NA,NA,NA,NA,NA,NA,NA,NA,NA,NA,NA,NA,NA,NA,NA,NA,NA,NA,NA,NA,NA,NA,NA,NA,NA
SUPAMT08258,33PPO7FEC1EJPMCTYZ9FBACVAFODI3,FEAD1A01-F393-492D-A103-6A5D589F813A,2023-09-28_12h28.57.986,WP_VExplicitOC_HL,2022.2.5,Win32,13.09792005,NA,NA,NA,NA,NA,NA,NA,NA,NA,NA,NA,NA,NA,NA,NA,NA,NA,NA,NA,NA,NA,NA,NA,NA,NA,NA,NA,NA,NA,NA,NA,7,0,7,0,1,NA,NA,NA,NA,NA,NA,NA,NA,NA,NA,NA,NA,NA,NA,NA,NA,NA,NA,NA,NA,NA,NA,NA
SUPAMT08258,33PPO7FEC1EJPMCTYZ9FBACVAFODI3,FEAD1A01-F393-492D-A103-6A5D589F813A,2023-09-28_12h28.57.986,WP_VExplicitOC_HL,2022.2.5,Win32,13.09792005,46.875,3.7432,2.0552,NA,NA,NA,NA,NA,frustrated,"frustrated, not frustrated","more frustrated, less frustrated",NA,NA,NA,NA,NA,NA,NA,NA,NA,NA,NA,NA,NA,NA,NA,0,0,0,1,1,NA,NA,NA,NA,NA,NA,NA,NA,NA,NA,NA,NA,NA,NA,NA,NA,NA,NA,NA,NA,NA,NA,NA,NA,NA,NA,NA,NA
SUPAMT08258,33PPO7FEC1EJPMCTYZ9FBACVAFODI3,FEAD1A01-F393-492D-A103-6A5D589F813A,2023-09-28_12h28.57.986,WP_VExplicitOC_HL,2022.2.5,Win32,13.09792005,46.875,3.0481,2.0271,NA,NA,NA,NA,NA,bored,"bored, not bored","more bored, less bored",NA,NA,NA,NA,NA,NA,NA,NA,NA,NA,NA,NA,NA,NA,NA,0,1,1,2,1,NA,NA,NA,NA,NA,NA,NA,NA,NA,NA,NA,NA,NA,NA,NA,NA,NA,NA,NA,NA,NA,NA,NA,NA,NA,NA,NA,NA
SUPAMT08258,33PPO7FEC1EJPMCTYZ9FBACVAFODI3,FEAD1A01-F393-492D-A103-6A5D589F813A,2023-09-28_12h28.57.986,WP_VExplicitOC_HL,2022.2.5,Win32,13.09792005,46.875,3.0806,2.0804,NA,NA,NA,NA,NA,happy,"unhappy, happy","less happy, more happy",NA,NA,NA,NA,NA,NA,NA,NA,NA,NA,NA,NA,NA,NA,NA,0,2,2,0,1,NA,NA,NA,NA,NA,NA,NA,NA,NA,NA,NA,NA,NA,NA,NA,NA,NA,NA,NA,NA,NA,NA,NA,NA,NA,NA,NA,NA
SUPAMT08258,33PPO7FEC1EJPMCTYZ9FBACVAFODI3,FEAD1A01-F393-492D-A103-6A5D589F813A,2023-09-28_12h28.57.986,WP_VExplicitOC_HL,2022.2.5,Win32,13.09792005,NA,NA,NA,NA,NA,NA,NA,NA,NA,NA,NA,NA,NA,NA,NA,NA,NA,NA,NA,NA,NA,NA,NA,NA,NA,NA,NA,NA,NA,NA,NA,8,0,8,0,1,NA,NA,NA,NA,NA,NA,NA,NA,NA,NA,NA,NA,NA,NA,NA,NA,NA,NA,NA,NA,NA,NA,NA
SUPAMT08258,33PPO7FEC1EJPMCTYZ9FBACVAFODI3,FEAD1A01-F393-492D-A103-6A5D589F813A,2023-09-28_12h28.57.986,WP_VExplicitOC_HL,2022.2.5,Win32,13.09792005,NA,NA,2.0603,NA,NA,NA,NA,NA,happy,"unhappy, happy","less happy, more happy",NA,NA,NA,NA,NA,NA,NA,NA,NA,NA,NA,NA,NA,NA,NA,0,0,0,0,1,NA,NA,NA,NA,NA,NA,NA,NA,NA,NA,NA,NA,NA,NA,NA,NA,NA,NA,NA,NA,NA,NA,NA,NA,NA,NA,NA,NA
SUPAMT08258,33PPO7FEC1EJPMCTYZ9FBACVAFODI3,FEAD1A01-F393-492D-A103-6A5D589F813A,2023-09-28_12h28.57.986,WP_VExplicitOC_HL,2022.2.5,Win32,13.09792005,46.875,4.7345,2.0347,NA,NA,NA,NA,NA,frustrated,"frustrated, not frustrated","more frustrated, less frustrated",NA,NA,NA,NA,NA,NA,NA,NA,NA,NA,NA,NA,NA,NA,NA,0,1,1,1,1,NA,NA,NA,NA,NA,NA,NA,NA,NA,NA,NA,NA,NA,NA,NA,NA,NA,NA,NA,NA,NA,NA,NA,NA,NA,NA,NA,NA
SUPAMT08258,33PPO7FEC1EJPMCTYZ9FBACVAFODI3,FEAD1A01-F393-492D-A103-6A5D589F813A,2023-09-28_12h28.57.986,WP_VExplicitOC_HL,2022.2.5,Win32,13.09792005,46.875,3.4118,2.0344,NA,NA,NA,NA,NA,bored,"bored, not bored","more bored, less bored",NA,NA,NA,NA,NA,NA,NA,NA,NA,NA,NA,NA,NA,NA,NA,0,2,2,2,1,NA,NA,NA,NA,NA,NA,NA,NA,NA,NA,NA,NA,NA,NA,NA,NA,NA,NA,NA,NA,NA,NA,NA,NA,NA,NA,NA,NA
SUPAMT08258,33PPO7FEC1EJPMCTYZ9FBACVAFODI3,FEAD1A01-F393-492D-A103-6A5D589F813A,2023-09-28_12h28.57.986,WP_VExplicitOC_HL,2022.2.5,Win32,13.09792005,NA,NA,NA,NA,NA,NA,NA,NA,NA,NA,NA,NA,NA,NA,NA,NA,NA,NA,NA,NA,NA,NA,NA,NA,NA,NA,NA,NA,NA,NA,NA,9,0,9,0,1,NA,NA,NA,NA,NA,NA,NA,NA,NA,NA,NA,NA,NA,NA,NA,NA,NA,NA,NA,NA,NA,NA,NA
SUPAMT08258,33PPO7FEC1EJPMCTYZ9FBACVAFODI3,FEAD1A01-F393-492D-A103-6A5D589F813A,2023-09-28_12h28.57.986,WP_VExplicitOC_HL,2022.2.5,Win32,13.09792005,46.875,4.0714,2.0063,NA,NA,NA,NA,NA,bored,"bored, not bored","more bored, less bored",NA,NA,NA,NA,NA,NA,NA,NA,NA,NA,NA,NA,NA,NA,NA,0,0,0,2,1,NA,NA,NA,NA,NA,NA,NA,NA,NA,NA,NA,NA,NA,NA,NA,NA,NA,NA,NA,NA,NA,NA,NA,NA,NA,NA,NA,NA
SUPAMT08258,33PPO7FEC1EJPMCTYZ9FBACVAFODI3,FEAD1A01-F393-492D-A103-6A5D589F813A,2023-09-28_12h28.57.986,WP_VExplicitOC_HL,2022.2.5,Win32,13.09792005,46.875,3.0101,2.03,NA,NA,NA,NA,NA,happy,"unhappy, happy","less happy, more happy",NA,NA,NA,NA,NA,NA,NA,NA,NA,NA,NA,NA,NA,NA,NA,0,1,1,0,1,NA,NA,NA,NA,NA,NA,NA,NA,NA,NA,NA,NA,NA,NA,NA,NA,NA,NA,NA,NA,NA,NA,NA,NA,NA,NA,NA,NA
SUPAMT08258,33PPO7FEC1EJPMCTYZ9FBACVAFODI3,FEAD1A01-F393-492D-A103-6A5D589F813A,2023-09-28_12h28.57.986,WP_VExplicitOC_HL,2022.2.5,Win32,13.09792005,46.875,2.9553,2.0325,NA,NA,NA,NA,NA,frustrated,"frustrated, not frustrated","more frustrated, less frustrated",NA,NA,NA,NA,NA,NA,NA,NA,NA,NA,NA,NA,NA,NA,NA,0,2,2,1,1,NA,NA,NA,NA,NA,NA,NA,NA,NA,NA,NA,NA,NA,NA,NA,NA,NA,NA,NA,NA,NA,NA,NA,NA,NA,NA,NA,NA
SUPAMT08258,33PPO7FEC1EJPMCTYZ9FBACVAFODI3,FEAD1A01-F393-492D-A103-6A5D589F813A,2023-09-28_12h28.57.986,WP_VExplicitOC_HL,2022.2.5,Win32,13.09792005,NA,NA,NA,NA,NA,NA,NA,NA,NA,NA,NA,NA,NA,NA,NA,NA,NA,NA,NA,NA,NA,NA,NA,NA,NA,NA,NA,NA,NA,NA,NA,10,0,10,0,1,NA,NA,NA,NA,NA,NA,NA,NA,NA,NA,NA,NA,NA,NA,NA,NA,NA,NA,NA,NA,NA,NA,NA
SUPAMT08258,33PPO7FEC1EJPMCTYZ9FBACVAFODI3,FEAD1A01-F393-492D-A103-6A5D589F813A,2023-09-28_12h28.57.986,WP_VExplicitOC_HL,2022.2.5,Win32,13.09792005,46.875,4.1881,2.0616,NA,NA,NA,NA,NA,bored,"bored, not bored","more bored, less bored",NA,NA,NA,NA,NA,NA,NA,NA,NA,NA,NA,NA,NA,NA,NA,0,0,0,2,1,NA,NA,NA,NA,NA,NA,NA,NA,NA,NA,NA,NA,NA,NA,NA,NA,NA,NA,NA,NA,NA,NA,NA,NA,NA,NA,NA,NA
SUPAMT08258,33PPO7FEC1EJPMCTYZ9FBACVAFODI3,FEAD1A01-F393-492D-A103-6A5D589F813A,2023-09-28_12h28.57.986,WP_VExplicitOC_HL,2022.2.5,Win32,13.09792005,46.875,3.0628,2.0805,NA,NA,NA,NA,NA,frustrated,"frustrated, not frustrated","more frustrated, less frustrated",NA,NA,NA,NA,NA,NA,NA,NA,NA,NA,NA,NA,NA,NA,NA,0,1,1,1,1,NA,NA,NA,NA,NA,NA,NA,NA,NA,NA,NA,NA,NA,NA,NA,NA,NA,NA,NA,NA,NA,NA,NA,NA,NA,NA,NA,NA
SUPAMT08258,33PPO7FEC1EJPMCTYZ9FBACVAFODI3,FEAD1A01-F393-492D-A103-6A5D589F813A,2023-09-28_12h28.57.986,WP_VExplicitOC_HL,2022.2.5,Win32,13.09792005,69.921875,3.1003,2.0743,NA,NA,NA,NA,NA,happy,"unhappy, happy","less happy, more happy",NA,NA,NA,NA,NA,NA,NA,NA,NA,NA,NA,NA,NA,NA,NA,0,2,2,0,1,NA,NA,NA,NA,NA,NA,NA,NA,NA,NA,NA,NA,NA,NA,NA,NA,NA,NA,NA,NA,NA,NA,NA,NA,NA,NA,NA,NA
SUPAMT08258,33PPO7FEC1EJPMCTYZ9FBACVAFODI3,FEAD1A01-F393-492D-A103-6A5D589F813A,2023-09-28_12h28.57.986,WP_VExplicitOC_HL,2022.2.5,Win32,13.09792005,NA,NA,NA,NA,NA,NA,NA,NA,NA,NA,NA,NA,NA,NA,NA,NA,NA,NA,NA,NA,NA,NA,NA,NA,NA,NA,NA,NA,NA,NA,NA,11,0,11,0,1,NA,NA,NA,NA,NA,NA,NA,NA,NA,NA,NA,NA,NA,NA,NA,NA,NA,NA,NA,NA,NA,NA,NA
SUPAMT08258,33PPO7FEC1EJPMCTYZ9FBACVAFODI3,FEAD1A01-F393-492D-A103-6A5D589F813A,2023-09-28_12h28.57.986,WP_VExplicitOC_HL,2022.2.5,Win32,13.09792005,55.078125,4.9219,2.065,NA,NA,NA,NA,NA,bored,"bored, not bored","more bored, less bored",NA,NA,NA,NA,NA,NA,NA,NA,NA,NA,NA,NA,NA,NA,NA,0,0,0,2,1,NA,NA,NA,NA,NA,NA,NA,NA,NA,NA,NA,NA,NA,NA,NA,NA,NA,NA,NA,NA,NA,NA,NA,NA,NA,NA,NA,NA
SUPAMT08258,33PPO7FEC1EJPMCTYZ9FBACVAFODI3,FEAD1A01-F393-492D-A103-6A5D589F813A,2023-09-28_12h28.57.986,WP_VExplicitOC_HL,2022.2.5,Win32,13.09792005,55.078125,3.0227,2.0262,NA,NA,NA,NA,NA,frustrated,"frustrated, not frustrated","more frustrated, less frustrated",NA,NA,NA,NA,NA,NA,NA,NA,NA,NA,NA,NA,NA,NA,NA,0,1,1,1,1,NA,NA,NA,NA,NA,NA,NA,NA,NA,NA,NA,NA,NA,NA,NA,NA,NA,NA,NA,NA,NA,NA,NA,NA,NA,NA,NA,NA
SUPAMT08258,33PPO7FEC1EJPMCTYZ9FBACVAFODI3,FEAD1A01-F393-492D-A103-6A5D589F813A,2023-09-28_12h28.57.986,WP_VExplicitOC_HL,2022.2.5,Win32,13.09792005,55.078125,3.0959,2.049,NA,NA,NA,NA,NA,happy,"unhappy, happy","less happy, more happy",NA,NA,NA,NA,NA,NA,NA,NA,NA,NA,NA,NA,NA,NA,NA,0,2,2,0,1,NA,NA,NA,NA,NA,NA,NA,NA,NA,NA,NA,NA,NA,NA,NA,NA,NA,NA,NA,NA,NA,NA,NA,NA,NA,NA,NA,NA
SUPAMT08258,33PPO7FEC1EJPMCTYZ9FBACVAFODI3,FEAD1A01-F393-492D-A103-6A5D589F813A,2023-09-28_12h28.57.986,WP_VExplicitOC_HL,2022.2.5,Win32,13.09792005,NA,NA,NA,NA,NA,NA,NA,NA,NA,NA,NA,NA,NA,NA,NA,NA,NA,NA,NA,NA,NA,NA,NA,NA,NA,NA,NA,NA,NA,NA,NA,12,0,12,0,1,NA,NA,NA,NA,NA,NA,NA,NA,NA,NA,NA,NA,NA,NA,NA,NA,NA,NA,NA,NA,NA,NA,NA
SUPAMT08258,33PPO7FEC1EJPMCTYZ9FBACVAFODI3,FEAD1A01-F393-492D-A103-6A5D589F813A,2023-09-28_12h28.57.986,WP_VExplicitOC_HL,2022.2.5,Win32,13.09792005,45.703125,3.6442,2.0167,NA,NA,NA,NA,NA,bored,"bored, not bored","more bored, less bored",NA,NA,NA,NA,NA,NA,NA,NA,NA,NA,NA,NA,NA,NA,NA,0,0,0,2,1,NA,NA,NA,NA,NA,NA,NA,NA,NA,NA,NA,NA,NA,NA,NA,NA,NA,NA,NA,NA,NA,NA,NA,NA,NA,NA,NA,NA
SUPAMT08258,33PPO7FEC1EJPMCTYZ9FBACVAFODI3,FEAD1A01-F393-492D-A103-6A5D589F813A,2023-09-28_12h28.57.986,WP_VExplicitOC_HL,2022.2.5,Win32,13.09792005,64.453125,3.4003,2.1037,NA,NA,NA,NA,NA,frustrated,"frustrated, not frustrated","more frustrated, less frustrated",NA,NA,NA,NA,NA,NA,NA,NA,NA,NA,NA,NA,NA,NA,NA,0,1,1,1,1,NA,NA,NA,NA,NA,NA,NA,NA,NA,NA,NA,NA,NA,NA,NA,NA,NA,NA,NA,NA,NA,NA,NA,NA,NA,NA,NA,NA
SUPAMT08258,33PPO7FEC1EJPMCTYZ9FBACVAFODI3,FEAD1A01-F393-492D-A103-6A5D589F813A,2023-09-28_12h28.57.986,WP_VExplicitOC_HL,2022.2.5,Win32,13.09792005,64.453125,3.2234,2.1268,NA,NA,NA,NA,NA,happy,"unhappy, happy","less happy, more happy",NA,NA,NA,NA,NA,NA,NA,NA,NA,NA,NA,NA,NA,NA,NA,0,2,2,0,1,NA,NA,NA,NA,NA,NA,NA,NA,NA,NA,NA,NA,NA,NA,NA,NA,NA,NA,NA,NA,NA,NA,NA,NA,NA,NA,NA,NA
SUPAMT08258,33PPO7FEC1EJPMCTYZ9FBACVAFODI3,FEAD1A01-F393-492D-A103-6A5D589F813A,2023-09-28_12h28.57.986,WP_VExplicitOC_HL,2022.2.5,Win32,13.09792005,NA,NA,NA,NA,NA,NA,NA,NA,NA,NA,NA,NA,NA,NA,NA,NA,NA,NA,NA,NA,NA,NA,NA,NA,NA,NA,NA,NA,NA,NA,NA,13,0,13,0,1,NA,NA,NA,NA,NA,NA,NA,NA,NA,NA,NA,NA,NA,NA,NA,NA,NA,NA,NA,NA,NA,NA,NA
SUPAMT08258,33PPO7FEC1EJPMCTYZ9FBACVAFODI3,FEAD1A01-F393-492D-A103-6A5D589F813A,2023-09-28_12h28.57.986,WP_VExplicitOC_HL,2022.2.5,Win32,13.09792005,NA,NA,2.0819,NA,NA,NA,NA,NA,frustrated,"frustrated, not frustrated","more frustrated, less frustrated",NA,NA,NA,NA,NA,NA,NA,NA,NA,NA,NA,NA,NA,NA,NA,0,0,0,1,1,NA,NA,NA,NA,NA,NA,NA,NA,NA,NA,NA,NA,NA,NA,NA,NA,NA,NA,NA,NA,NA,NA,NA,NA,NA,NA,NA,NA
SUPAMT08258,33PPO7FEC1EJPMCTYZ9FBACVAFODI3,FEAD1A01-F393-492D-A103-6A5D589F813A,2023-09-28_12h28.57.986,WP_VExplicitOC_HL,2022.2.5,Win32,13.09792005,46.2890625,3.5727,2.0738,NA,NA,NA,NA,NA,happy,"unhappy, happy","less happy, more happy",NA,NA,NA,NA,NA,NA,NA,NA,NA,NA,NA,NA,NA,NA,NA,0,1,1,0,1,NA,NA,NA,NA,NA,NA,NA,NA,NA,NA,NA,NA,NA,NA,NA,NA,NA,NA,NA,NA,NA,NA,NA,NA,NA,NA,NA,NA
SUPAMT08258,33PPO7FEC1EJPMCTYZ9FBACVAFODI3,FEAD1A01-F393-492D-A103-6A5D589F813A,2023-09-28_12h28.57.986,WP_VExplicitOC_HL,2022.2.5,Win32,13.09792005,46.2890625,3.2615,2.0293,NA,NA,NA,NA,NA,bored,"bored, not bored","more bored, less bored",NA,NA,NA,NA,NA,NA,NA,NA,NA,NA,NA,NA,NA,NA,NA,0,2,2,2,1,NA,NA,NA,NA,NA,NA,NA,NA,NA,NA,NA,NA,NA,NA,NA,NA,NA,NA,NA,NA,NA,NA,NA,NA,NA,NA,NA,NA
SUPAMT08258,33PPO7FEC1EJPMCTYZ9FBACVAFODI3,FEAD1A01-F393-492D-A103-6A5D589F813A,2023-09-28_12h28.57.986,WP_VExplicitOC_HL,2022.2.5,Win32,13.09792005,NA,NA,NA,NA,NA,NA,NA,NA,NA,NA,NA,NA,NA,NA,NA,NA,NA,NA,NA,NA,NA,NA,NA,NA,NA,NA,NA,NA,NA,NA,NA,14,0,14,0,1,NA,NA,NA,NA,NA,NA,NA,NA,NA,NA,NA,NA,NA,NA,NA,NA,NA,NA,NA,NA,NA,NA,NA
SUPAMT08258,33PPO7FEC1EJPMCTYZ9FBACVAFODI3,FEAD1A01-F393-492D-A103-6A5D589F813A,2023-09-28_12h28.57.986,WP_VExplicitOC_HL,2022.2.5,Win32,13.09792005,NA,NA,NA,NA,NA,NA,NA,NA,NA,NA,NA,NA,NA,NA,NA,NA,NA,NA,NA,NA,NA,NA,NA,NA,NA,NA,NA,NA,NA,NA,NA,NA,NA,NA,NA,NA,NA,NA,NA,NA,NA,NA,NA,NA,NA,NA,NA,NA,NA,NA,NA,NA,NA,NA,NA,NA,NA,NA,NA
SUPAMT08258,33PPO7FEC1EJPMCTYZ9FBACVAFODI3,FEAD1A01-F393-492D-A103-6A5D589F813A,2023-09-28_12h28.57.986,WP_VExplicitOC_HL,2022.2.5,Win32,13.09792005,NA,NA,NA,NA,NA,NA,NA,NA,NA,NA,NA,NA,NA,NA,NA,NA,NA,NA,NA,NA,NA,NA,NA,NA,NA,NA,NA,NA,NA,NA,NA,NA,NA,NA,NA,NA,NA,NA,NA,NA,NA,NA,NA,NA,NA,NA,NA,NA,NA,NA,NA,NA,NA,NA,NA,NA,NA,NA,NA
SUPAMT08258,33PPO7FEC1EJPMCTYZ9FBACVAFODI3,FEAD1A01-F393-492D-A103-6A5D589F813A,2023-09-28_12h28.57.986,WP_VExplicitOC_HL,2022.2.5,Win32,13.09792005,NA,NA,NA,NA,NA,NA,NA,NA,NA,NA,NA,NA,NA,NA,NA,NA,NA,NA,rest (looking at a fixed cross),001.png,NA,NA,NA,NA,NA,NA,NA,NA,NA,NA,NA,NA,NA,NA,NA,NA,46.2890625,2.4311,0,0,0,0,1,NA,NA,NA,NA,NA,NA,NA,NA,NA,NA,NA,NA,NA,NA,NA,NA
SUPAMT08258,33PPO7FEC1EJPMCTYZ9FBACVAFODI3,FEAD1A01-F393-492D-A103-6A5D589F813A,2023-09-28_12h28.57.986,WP_VExplicitOC_HL,2022.2.5,Win32,13.09792005,NA,NA,NA,NA,NA,NA,NA,NA,NA,NA,NA,NA,NA,NA,NA,NA,NA,NA,stand up,002.png,NA,NA,NA,NA,NA,NA,NA,NA,NA,NA,NA,NA,NA,NA,NA,NA,46.2890625,1.1331,0,1,1,1,1,NA,NA,NA,NA,NA,NA,NA,NA,NA,NA,NA,NA,NA,NA,NA,NA
SUPAMT08258,33PPO7FEC1EJPMCTYZ9FBACVAFODI3,FEAD1A01-F393-492D-A103-6A5D589F813A,2023-09-28_12h28.57.986,WP_VExplicitOC_HL,2022.2.5,Win32,13.09792005,NA,NA,NA,NA,NA,NA,NA,NA,NA,NA,NA,NA,NA,NA,NA,NA,NA,NA,stretch,003.png,NA,NA,NA,NA,NA,NA,NA,NA,NA,NA,NA,NA,NA,NA,NA,NA,46.2890625,1.0466,0,2,2,2,1,NA,NA,NA,NA,NA,NA,NA,NA,NA,NA,NA,NA,NA,NA,NA,NA
SUPAMT08258,33PPO7FEC1EJPMCTYZ9FBACVAFODI3,FEAD1A01-F393-492D-A103-6A5D589F813A,2023-09-28_12h28.57.986,WP_VExplicitOC_HL,2022.2.5,Win32,13.09792005,NA,NA,NA,NA,NA,NA,NA,NA,NA,NA,NA,NA,NA,NA,NA,NA,NA,NA,make a drink,004.png,NA,NA,NA,NA,NA,NA,NA,NA,NA,NA,NA,NA,NA,NA,NA,NA,46.2890625,1.8177,0,3,3,3,1,NA,NA,NA,NA,NA,NA,NA,NA,NA,NA,NA,NA,NA,NA,NA,NA
SUPAMT08258,33PPO7FEC1EJPMCTYZ9FBACVAFODI3,FEAD1A01-F393-492D-A103-6A5D589F813A,2023-09-28_12h28.57.986,WP_VExplicitOC_HL,2022.2.5,Win32,13.09792005,NA,NA,NA,NA,NA,NA,NA,NA,NA,NA,NA,NA,NA,NA,NA,NA,NA,NA,scroll social media,005.png,NA,NA,NA,NA,NA,NA,NA,NA,NA,NA,NA,NA,NA,NA,NA,NA,46.2890625,1.7052,0,4,4,4,1,NA,NA,NA,NA,NA,NA,NA,NA,NA,NA,NA,NA,NA,NA,NA,NA
SUPAMT08258,33PPO7FEC1EJPMCTYZ9FBACVAFODI3,FEAD1A01-F393-492D-A103-6A5D589F813A,2023-09-28_12h28.57.986,WP_VExplicitOC_HL,2022.2.5,Win32,13.09792005,NA,NA,NA,NA,NA,NA,NA,NA,NA,NA,NA,NA,NA,NA,NA,NA,NA,NA,listen to music,006.png,NA,NA,NA,NA,NA,NA,NA,NA,NA,NA,NA,NA,NA,NA,NA,NA,46.2890625,0.8638,0,5,5,5,1,NA,NA,NA,NA,NA,NA,NA,NA,NA,NA,NA,NA,NA,NA,NA,NA
SUPAMT08258,33PPO7FEC1EJPMCTYZ9FBACVAFODI3,FEAD1A01-F393-492D-A103-6A5D589F813A,2023-09-28_12h28.57.986,WP_VExplicitOC_HL,2022.2.5,Win32,13.09792005,NA,NA,NA,NA,NA,NA,NA,NA,NA,NA,NA,NA,NA,NA,NA,NA,NA,NA,daydream,007.png,NA,NA,NA,NA,NA,NA,NA,NA,NA,NA,NA,NA,NA,NA,NA,NA,NA,NA,0,6,6,6,1,NA,NA,NA,NA,NA,NA,NA,NA,NA,NA,NA,NA,NA,NA,NA,NA
SUPAMT08258,33PPO7FEC1EJPMCTYZ9FBACVAFODI3,FEAD1A01-F393-492D-A103-6A5D589F813A,2023-09-28_12h28.57.986,WP_VExplicitOC_HL,2022.2.5,Win32,13.09792005,NA,NA,NA,NA,NA,NA,NA,NA,NA,NA,NA,NA,NA,NA,NA,NA,NA,NA,watch a short animation,008.png,NA,NA,NA,NA,NA,NA,NA,NA,NA,NA,NA,NA,NA,NA,NA,NA,46.2890625,4.0178,0,7,7,7,1,NA,NA,NA,NA,NA,NA,NA,NA,NA,NA,NA,NA,NA,NA,NA,NA
SUPAMT08258,33PPO7FEC1EJPMCTYZ9FBACVAFODI3,FEAD1A01-F393-492D-A103-6A5D589F813A,2023-09-28_12h28.57.986,WP_VExplicitOC_HL,2022.2.5,Win32,13.09792005,NA,NA,NA,NA,NA,NA,NA,NA,NA,NA,NA,NA,NA,NA,NA,NA,NA,NA,read a novel,009.png,NA,NA,NA,NA,NA,NA,NA,NA,NA,NA,NA,NA,NA,NA,NA,NA,46.2890625,1.0679,0,8,8,8,1,NA,NA,NA,NA,NA,NA,NA,NA,NA,NA,NA,NA,NA,NA,NA,NA
SUPAMT08258,33PPO7FEC1EJPMCTYZ9FBACVAFODI3,FEAD1A01-F393-492D-A103-6A5D589F813A,2023-09-28_12h28.57.986,WP_VExplicitOC_HL,2022.2.5,Win32,13.09792005,NA,NA,NA,NA,NA,NA,NA,NA,NA,NA,NA,NA,NA,NA,NA,NA,NA,NA,read the news,010.png,NA,NA,NA,NA,NA,NA,NA,NA,NA,NA,NA,NA,NA,NA,NA,NA,46.2890625,1.3357,0,9,9,9,1,NA,NA,NA,NA,NA,NA,NA,NA,NA,NA,NA,NA,NA,NA,NA,NA
SUPAMT08258,33PPO7FEC1EJPMCTYZ9FBACVAFODI3,FEAD1A01-F393-492D-A103-6A5D589F813A,2023-09-28_12h28.57.986,WP_VExplicitOC_HL,2022.2.5,Win32,13.09792005,NA,NA,NA,NA,NA,NA,NA,NA,NA,NA,NA,NA,NA,NA,NA,NA,NA,NA,NA,NA,NA,NA,NA,NA,NA,NA,NA,NA,NA,NA,NA,NA,NA,NA,NA,NA,NA,NA,NA,NA,NA,NA,NA,stand up,NA,NA,NA,NA,NA,NA,NA,NA,NA,NA,NA,NA,NA,NA,NA
SUPAMT08258,33PPO7FEC1EJPMCTYZ9FBACVAFODI3,FEAD1A01-F393-492D-A103-6A5D589F813A,2023-09-28_12h28.57.986,WP_VExplicitOC_HL,2022.2.5,Win32,13.09792005,45.1171875,4.1833,2.1394,NA,NA,NA,NA,NA,bored,"bored, not bored","more bored, less bored",NA,NA,NA,NA,NA,NA,NA,NA,NA,NA,NA,NA,NA,NA,NA,NA,NA,NA,NA,NA,NA,NA,NA,NA,NA,NA,NA,NA,NA,NA,NA,NA,NA,0,0,0,2,1,NA,NA,NA,NA,NA,NA,NA,NA,NA,NA
SUPAMT08258,33PPO7FEC1EJPMCTYZ9FBACVAFODI3,FEAD1A01-F393-492D-A103-6A5D589F813A,2023-09-28_12h28.57.986,WP_VExplicitOC_HL,2022.2.5,Win32,13.09792005,47.0703125,5.8113,2.0291,NA,NA,NA,NA,NA,frustrated,"frustrated, not frustrated","more frustrated, less frustrated",NA,NA,NA,NA,NA,NA,NA,NA,NA,NA,NA,NA,NA,NA,NA,NA,NA,NA,NA,NA,NA,NA,NA,NA,NA,NA,NA,NA,NA,NA,NA,NA,NA,0,1,1,1,1,NA,NA,NA,NA,NA,NA,NA,NA,NA,NA
SUPAMT08258,33PPO7FEC1EJPMCTYZ9FBACVAFODI3,FEAD1A01-F393-492D-A103-6A5D589F813A,2023-09-28_12h28.57.986,WP_VExplicitOC_HL,2022.2.5,Win32,13.09792005,47.0703125,6.713,2.0478,NA,NA,NA,NA,NA,happy,"unhappy, happy","less happy, more happy",NA,NA,NA,NA,NA,NA,NA,NA,NA,NA,NA,NA,NA,NA,NA,NA,NA,NA,NA,NA,NA,NA,NA,NA,NA,NA,NA,NA,NA,NA,NA,NA,NA,0,2,2,0,1,NA,NA,NA,NA,NA,NA,NA,NA,NA,NA
SUPAMT08258,33PPO7FEC1EJPMCTYZ9FBACVAFODI3,FEAD1A01-F393-492D-A103-6A5D589F813A,2023-09-28_12h28.57.986,WP_VExplicitOC_HL,2022.2.5,Win32,13.09792005,NA,NA,NA,NA,NA,NA,NA,NA,NA,NA,NA,NA,NA,NA,NA,NA,NA,NA,NA,NA,NA,NA,NA,NA,NA,NA,NA,NA,NA,NA,NA,NA,NA,NA,NA,NA,NA,NA,NA,NA,NA,NA,NA,NA,NA,NA,NA,NA,NA,NA,NA,NA,NA,NA,NA,NA,NA,NA,NA
SUPAMT08258,33PPO7FEC1EJPMCTYZ9FBACVAFODI3,FEAD1A01-F393-492D-A103-6A5D589F813A,2023-09-28_12h28.57.986,WP_VExplicitOC_HL,2022.2.5,Win32,13.09792005,NA,NA,NA,NA,NA,NA,NA,NA,NA,NA,NA,NA,NA,NA,NA,NA,NA,NA,NA,NA,NA,NA,NA,NA,NA,NA,NA,NA,NA,NA,NA,NA,NA,NA,NA,NA,NA,NA,NA,NA,NA,NA,NA,NA,NA,NA,NA,NA,NA,NA,NA,NA,NA,NA,NA,NA,NA,NA,NA
SUPAMT08258,33PPO7FEC1EJPMCTYZ9FBACVAFODI3,FEAD1A01-F393-492D-A103-6A5D589F813A,2023-09-28_12h28.57.986,WP_VExplicitOC_HL,2022.2.5,Win32,13.09792005,37.890625,6.5158,2.0825,NA,NA,NA,NA,NA,frustrated,"frustrated, not frustrated","more frustrated, less frustrated",NA,NA,NA,NA,NA,NA,NA,NA,NA,NA,NA,NA,NA,NA,NA,NA,NA,NA,NA,NA,NA,NA,NA,NA,NA,NA,NA,NA,NA,NA,NA,NA,NA,NA,NA,NA,NA,NA,0,0,0,1,1,NA,NA,NA,NA,NA
SUPAMT08258,33PPO7FEC1EJPMCTYZ9FBACVAFODI3,FEAD1A01-F393-492D-A103-6A5D589F813A,2023-09-28_12h28.57.986,WP_VExplicitOC_HL,2022.2.5,Win32,13.09792005,37.890625,4.6363,2.0835,NA,NA,NA,NA,NA,bored,"bored, not bored","more bored, less bored",NA,NA,NA,NA,NA,NA,NA,NA,NA,NA,NA,NA,NA,NA,NA,NA,NA,NA,NA,NA,NA,NA,NA,NA,NA,NA,NA,NA,NA,NA,NA,NA,NA,NA,NA,NA,NA,NA,0,1,1,2,1,NA,NA,NA,NA,NA
SUPAMT08258,33PPO7FEC1EJPMCTYZ9FBACVAFODI3,FEAD1A01-F393-492D-A103-6A5D589F813A,2023-09-28_12h28.57.986,WP_VExplicitOC_HL,2022.2.5,Win32,13.09792005,37.890625,5.4063,2.0362,NA,NA,NA,NA,NA,happy,"unhappy, happy","less happy, more happy",NA,NA,NA,NA,NA,NA,NA,NA,NA,NA,NA,NA,NA,NA,NA,NA,NA,NA,NA,NA,NA,NA,NA,NA,NA,NA,NA,NA,NA,NA,NA,NA,NA,NA,NA,NA,NA,NA,0,2,2,0,1,NA,NA,NA,NA,NA
SUPAMT08258,33PPO7FEC1EJPMCTYZ9FBACVAFODI3,FEAD1A01-F393-492D-A103-6A5D589F813A,2023-09-28_12h28.57.986,WP_VExplicitOC_HL,2022.2.5,Win32,13.09792005,NA,NA,NA,NA,NA,NA,NA,NA,NA,NA,NA,NA,NA,NA,NA,NA,NA,NA,NA,NA,NA,NA,NA,NA,NA,NA,NA,NA,NA,NA,NA,NA,NA,NA,NA,NA,NA,NA,NA,NA,NA,NA,NA,NA,NA,NA,NA,NA,NA,NA,NA,NA,NA,NA,0,0,0,0,1
SUPAMT08258,33PPO7FEC1EJPMCTYZ9FBACVAFODI3,FEAD1A01-F393-492D-A103-6A5D589F813A,2023-09-28_12h28.57.986,WP_VExplicitOC_HL,2022.2.5,Win32,13.09792005,37.890625,3.863,2.0933,NA,NA,NA,NA,NA,frustrated,"frustrated, not frustrated","more frustrated, less frustrated",NA,NA,NA,NA,NA,NA,NA,NA,NA,NA,NA,NA,NA,NA,NA,NA,NA,NA,NA,NA,NA,NA,NA,NA,NA,NA,NA,NA,NA,NA,NA,NA,NA,NA,NA,NA,NA,NA,0,0,0,1,1,NA,NA,NA,NA,NA
SUPAMT08258,33PPO7FEC1EJPMCTYZ9FBACVAFODI3,FEAD1A01-F393-492D-A103-6A5D589F813A,2023-09-28_12h28.57.986,WP_VExplicitOC_HL,2022.2.5,Win32,13.09792005,37.890625,3.113,2.0572,NA,NA,NA,NA,NA,happy,"unhappy, happy","less happy, more happy",NA,NA,NA,NA,NA,NA,NA,NA,NA,NA,NA,NA,NA,NA,NA,NA,NA,NA,NA,NA,NA,NA,NA,NA,NA,NA,NA,NA,NA,NA,NA,NA,NA,NA,NA,NA,NA,NA,0,1,1,0,1,NA,NA,NA,NA,NA
SUPAMT08258,33PPO7FEC1EJPMCTYZ9FBACVAFODI3,FEAD1A01-F393-492D-A103-6A5D589F813A,2023-09-28_12h28.57.986,WP_VExplicitOC_HL,2022.2.5,Win32,13.09792005,37.890625,2.9903,2.0007,NA,NA,NA,NA,NA,bored,"bored, not bored","more bored, less bored",NA,NA,NA,NA,NA,NA,NA,NA,NA,NA,NA,NA,NA,NA,NA,NA,NA,NA,NA,NA,NA,NA,NA,NA,NA,NA,NA,NA,NA,NA,NA,NA,NA,NA,NA,NA,NA,NA,0,2,2,2,1,NA,NA,NA,NA,NA
SUPAMT08258,33PPO7FEC1EJPMCTYZ9FBACVAFODI3,FEAD1A01-F393-492D-A103-6A5D589F813A,2023-09-28_12h28.57.986,WP_VExplicitOC_HL,2022.2.5,Win32,13.09792005,NA,NA,NA,NA,NA,NA,NA,NA,NA,NA,NA,NA,NA,NA,NA,NA,NA,NA,NA,NA,NA,NA,NA,NA,NA,NA,NA,NA,NA,NA,NA,NA,NA,NA,NA,NA,NA,NA,NA,NA,NA,NA,NA,NA,NA,NA,NA,NA,NA,NA,NA,NA,NA,NA,1,0,1,0,1
SUPAMT08258,33PPO7FEC1EJPMCTYZ9FBACVAFODI3,FEAD1A01-F393-492D-A103-6A5D589F813A,2023-09-28_12h28.57.986,WP_VExplicitOC_HL,2022.2.5,Win32,13.09792005,44.3359375,5.4484,2.0888,NA,NA,NA,NA,NA,frustrated,"frustrated, not frustrated","more frustrated, less frustrated",NA,NA,NA,NA,NA,NA,NA,NA,NA,NA,NA,NA,NA,NA,NA,NA,NA,NA,NA,NA,NA,NA,NA,NA,NA,NA,NA,NA,NA,NA,NA,NA,NA,NA,NA,NA,NA,NA,0,0,0,1,1,NA,NA,NA,NA,NA
SUPAMT08258,33PPO7FEC1EJPMCTYZ9FBACVAFODI3,FEAD1A01-F393-492D-A103-6A5D589F813A,2023-09-28_12h28.57.986,WP_VExplicitOC_HL,2022.2.5,Win32,13.09792005,44.3359375,4.283,2.0484,NA,NA,NA,NA,NA,happy,"unhappy, happy","less happy, more happy",NA,NA,NA,NA,NA,NA,NA,NA,NA,NA,NA,NA,NA,NA,NA,NA,NA,NA,NA,NA,NA,NA,NA,NA,NA,NA,NA,NA,NA,NA,NA,NA,NA,NA,NA,NA,NA,NA,0,1,1,0,1,NA,NA,NA,NA,NA
SUPAMT08258,33PPO7FEC1EJPMCTYZ9FBACVAFODI3,FEAD1A01-F393-492D-A103-6A5D589F813A,2023-09-28_12h28.57.986,WP_VExplicitOC_HL,2022.2.5,Win32,13.09792005,44.3359375,3.8976,2.0801,NA,NA,NA,NA,NA,bored,"bored, not bored","more bored, less bored",NA,NA,NA,NA,NA,NA,NA,NA,NA,NA,NA,NA,NA,NA,NA,NA,NA,NA,NA,NA,NA,NA,NA,NA,NA,NA,NA,NA,NA,NA,NA,NA,NA,NA,NA,NA,NA,NA,0,2,2,2,1,NA,NA,NA,NA,NA
SUPAMT08258,33PPO7FEC1EJPMCTYZ9FBACVAFODI3,FEAD1A01-F393-492D-A103-6A5D589F813A,2023-09-28_12h28.57.986,WP_VExplicitOC_HL,2022.2.5,Win32,13.09792005,NA,NA,NA,NA,NA,NA,NA,NA,NA,NA,NA,NA,NA,NA,NA,NA,NA,NA,NA,NA,NA,NA,NA,NA,NA,NA,NA,NA,NA,NA,NA,NA,NA,NA,NA,NA,NA,NA,NA,NA,NA,NA,NA,NA,NA,NA,NA,NA,NA,NA,NA,NA,NA,NA,2,0,2,0,1
SUPAMT08258,33PPO7FEC1EJPMCTYZ9FBACVAFODI3,FEAD1A01-F393-492D-A103-6A5D589F813A,2023-09-28_12h28.57.986,WP_VExplicitOC_HL,2022.2.5,Win32,13.09792005,60.15625,4.2265,2.0235,NA,NA,NA,NA,NA,frustrated,"frustrated, not frustrated","more frustrated, less frustrated",NA,NA,NA,NA,NA,NA,NA,NA,NA,NA,NA,NA,NA,NA,NA,NA,NA,NA,NA,NA,NA,NA,NA,NA,NA,NA,NA,NA,NA,NA,NA,NA,NA,NA,NA,NA,NA,NA,0,0,0,1,1,NA,NA,NA,NA,NA
SUPAMT08258,33PPO7FEC1EJPMCTYZ9FBACVAFODI3,FEAD1A01-F393-492D-A103-6A5D589F813A,2023-09-28_12h28.57.986,WP_VExplicitOC_HL,2022.2.5,Win32,13.09792005,60.15625,2.967,2.0101,NA,NA,NA,NA,NA,happy,"unhappy, happy","less happy, more happy",NA,NA,NA,NA,NA,NA,NA,NA,NA,NA,NA,NA,NA,NA,NA,NA,NA,NA,NA,NA,NA,NA,NA,NA,NA,NA,NA,NA,NA,NA,NA,NA,NA,NA,NA,NA,NA,NA,0,1,1,0,1,NA,NA,NA,NA,NA
SUPAMT08258,33PPO7FEC1EJPMCTYZ9FBACVAFODI3,FEAD1A01-F393-492D-A103-6A5D589F813A,2023-09-28_12h28.57.986,WP_VExplicitOC_HL,2022.2.5,Win32,13.09792005,60.15625,3.524,2.0377,NA,NA,NA,NA,NA,bored,"bored, not bored","more bored, less bored",NA,NA,NA,NA,NA,NA,NA,NA,NA,NA,NA,NA,NA,NA,NA,NA,NA,NA,NA,NA,NA,NA,NA,NA,NA,NA,NA,NA,NA,NA,NA,NA,NA,NA,NA,NA,NA,NA,0,2,2,2,1,NA,NA,NA,NA,NA
SUPAMT08258,33PPO7FEC1EJPMCTYZ9FBACVAFODI3,FEAD1A01-F393-492D-A103-6A5D589F813A,2023-09-28_12h28.57.986,WP_VExplicitOC_HL,2022.2.5,Win32,13.09792005,NA,NA,NA,NA,NA,NA,NA,NA,NA,NA,NA,NA,NA,NA,NA,NA,NA,NA,NA,NA,NA,NA,NA,NA,NA,NA,NA,NA,NA,NA,NA,NA,NA,NA,NA,NA,NA,NA,NA,NA,NA,NA,NA,NA,NA,NA,NA,NA,NA,NA,NA,NA,NA,NA,3,0,3,0,1
SUPAMT08258,33PPO7FEC1EJPMCTYZ9FBACVAFODI3,FEAD1A01-F393-492D-A103-6A5D589F813A,2023-09-28_12h28.57.986,WP_VExplicitOC_HL,2022.2.5,Win32,13.09792005,60.15625,4.1212,2.0028,NA,NA,NA,NA,NA,frustrated,"frustrated, not frustrated","more frustrated, less frustrated",NA,NA,NA,NA,NA,NA,NA,NA,NA,NA,NA,NA,NA,NA,NA,NA,NA,NA,NA,NA,NA,NA,NA,NA,NA,NA,NA,NA,NA,NA,NA,NA,NA,NA,NA,NA,NA,NA,0,0,0,1,1,NA,NA,NA,NA,NA
SUPAMT08258,33PPO7FEC1EJPMCTYZ9FBACVAFODI3,FEAD1A01-F393-492D-A103-6A5D589F813A,2023-09-28_12h28.57.986,WP_VExplicitOC_HL,2022.2.5,Win32,13.09792005,60.15625,3.1896,2.0366,NA,NA,NA,NA,NA,happy,"unhappy, happy","less happy, more happy",NA,NA,NA,NA,NA,NA,NA,NA,NA,NA,NA,NA,NA,NA,NA,NA,NA,NA,NA,NA,NA,NA,NA,NA,NA,NA,NA,NA,NA,NA,NA,NA,NA,NA,NA,NA,NA,NA,0,1,1,0,1,NA,NA,NA,NA,NA
SUPAMT08258,33PPO7FEC1EJPMCTYZ9FBACVAFODI3,FEAD1A01-F393-492D-A103-6A5D589F813A,2023-09-28_12h28.57.986,WP_VExplicitOC_HL,2022.2.5,Win32,13.09792005,60.15625,3.094,2.036,NA,NA,NA,NA,NA,bored,"bored, not bored","more bored, less bored",NA,NA,NA,NA,NA,NA,NA,NA,NA,NA,NA,NA,NA,NA,NA,NA,NA,NA,NA,NA,NA,NA,NA,NA,NA,NA,NA,NA,NA,NA,NA,NA,NA,NA,NA,NA,NA,NA,0,2,2,2,1,NA,NA,NA,NA,NA
SUPAMT08258,33PPO7FEC1EJPMCTYZ9FBACVAFODI3,FEAD1A01-F393-492D-A103-6A5D589F813A,2023-09-28_12h28.57.986,WP_VExplicitOC_HL,2022.2.5,Win32,13.09792005,NA,NA,NA,NA,NA,NA,NA,NA,NA,NA,NA,NA,NA,NA,NA,NA,NA,NA,NA,NA,NA,NA,NA,NA,NA,NA,NA,NA,NA,NA,NA,NA,NA,NA,NA,NA,NA,NA,NA,NA,NA,NA,NA,NA,NA,NA,NA,NA,NA,NA,NA,NA,NA,NA,4,0,4,0,1
SUPAMT08258,33PPO7FEC1EJPMCTYZ9FBACVAFODI3,FEAD1A01-F393-492D-A103-6A5D589F813A,2023-09-28_12h28.57.986,WP_VExplicitOC_HL,2022.2.5,Win32,13.09792005,60.15625,3.9666,2.0401,NA,NA,NA,NA,NA,frustrated,"frustrated, not frustrated","more frustrated, less frustrated",NA,NA,NA,NA,NA,NA,NA,NA,NA,NA,NA,NA,NA,NA,NA,NA,NA,NA,NA,NA,NA,NA,NA,NA,NA,NA,NA,NA,NA,NA,NA,NA,NA,NA,NA,NA,NA,NA,0,0,0,1,1,NA,NA,NA,NA,NA
SUPAMT08258,33PPO7FEC1EJPMCTYZ9FBACVAFODI3,FEAD1A01-F393-492D-A103-6A5D589F813A,2023-09-28_12h28.57.986,WP_VExplicitOC_HL,2022.2.5,Win32,13.09792005,60.15625,3.1717,2.0486,NA,NA,NA,NA,NA,happy,"unhappy, happy","less happy, more happy",NA,NA,NA,NA,NA,NA,NA,NA,NA,NA,NA,NA,NA,NA,NA,NA,NA,NA,NA,NA,NA,NA,NA,NA,NA,NA,NA,NA,NA,NA,NA,NA,NA,NA,NA,NA,NA,NA,0,1,1,0,1,NA,NA,NA,NA,NA
SUPAMT08258,33PPO7FEC1EJPMCTYZ9FBACVAFODI3,FEAD1A01-F393-492D-A103-6A5D589F813A,2023-09-28_12h28.57.986,WP_VExplicitOC_HL,2022.2.5,Win32,13.09792005,60.15625,3.0088,2.0425,NA,NA,NA,NA,NA,bored,"bored, not bored","more bored, less bored",NA,NA,NA,NA,NA,NA,NA,NA,NA,NA,NA,NA,NA,NA,NA,NA,NA,NA,NA,NA,NA,NA,NA,NA,NA,NA,NA,NA,NA,NA,NA,NA,NA,NA,NA,NA,NA,NA,0,2,2,2,1,NA,NA,NA,NA,NA
SUPAMT08258,33PPO7FEC1EJPMCTYZ9FBACVAFODI3,FEAD1A01-F393-492D-A103-6A5D589F813A,2023-09-28_12h28.57.986,WP_VExplicitOC_HL,2022.2.5,Win32,13.09792005,NA,NA,NA,NA,NA,NA,NA,NA,NA,NA,NA,NA,NA,NA,NA,NA,NA,NA,NA,NA,NA,NA,NA,NA,NA,NA,NA,NA,NA,NA,NA,NA,NA,NA,NA,NA,NA,NA,NA,NA,NA,NA,NA,NA,NA,NA,NA,NA,NA,NA,NA,NA,NA,NA,5,0,5,0,1
SUPAMT08258,33PPO7FEC1EJPMCTYZ9FBACVAFODI3,FEAD1A01-F393-492D-A103-6A5D589F813A,2023-09-28_12h28.57.986,WP_VExplicitOC_HL,2022.2.5,Win32,13.09792005,60.15625,4.1019,2.0205,NA,NA,NA,NA,NA,bored,"bored, not bored","more bored, less bored",NA,NA,NA,NA,NA,NA,NA,NA,NA,NA,NA,NA,NA,NA,NA,NA,NA,NA,NA,NA,NA,NA,NA,NA,NA,NA,NA,NA,NA,NA,NA,NA,NA,NA,NA,NA,NA,NA,0,0,0,2,1,NA,NA,NA,NA,NA
SUPAMT08258,33PPO7FEC1EJPMCTYZ9FBACVAFODI3,FEAD1A01-F393-492D-A103-6A5D589F813A,2023-09-28_12h28.57.986,WP_VExplicitOC_HL,2022.2.5,Win32,13.09792005,60.15625,3.412,2.0382,NA,NA,NA,NA,NA,frustrated,"frustrated, not frustrated","more frustrated, less frustrated",NA,NA,NA,NA,NA,NA,NA,NA,NA,NA,NA,NA,NA,NA,NA,NA,NA,NA,NA,NA,NA,NA,NA,NA,NA,NA,NA,NA,NA,NA,NA,NA,NA,NA,NA,NA,NA,NA,0,1,1,1,1,NA,NA,NA,NA,NA
SUPAMT08258,33PPO7FEC1EJPMCTYZ9FBACVAFODI3,FEAD1A01-F393-492D-A103-6A5D589F813A,2023-09-28_12h28.57.986,WP_VExplicitOC_HL,2022.2.5,Win32,13.09792005,60.15625,3.4314,2.003,NA,NA,NA,NA,NA,happy,"unhappy, happy","less happy, more happy",NA,NA,NA,NA,NA,NA,NA,NA,NA,NA,NA,NA,NA,NA,NA,NA,NA,NA,NA,NA,NA,NA,NA,NA,NA,NA,NA,NA,NA,NA,NA,NA,NA,NA,NA,NA,NA,NA,0,2,2,0,1,NA,NA,NA,NA,NA
SUPAMT08258,33PPO7FEC1EJPMCTYZ9FBACVAFODI3,FEAD1A01-F393-492D-A103-6A5D589F813A,2023-09-28_12h28.57.986,WP_VExplicitOC_HL,2022.2.5,Win32,13.09792005,NA,NA,NA,NA,NA,NA,NA,NA,NA,NA,NA,NA,NA,NA,NA,NA,NA,NA,NA,NA,NA,NA,NA,NA,NA,NA,NA,NA,NA,NA,NA,NA,NA,NA,NA,NA,NA,NA,NA,NA,NA,NA,NA,NA,NA,NA,NA,NA,NA,NA,NA,NA,NA,NA,6,0,6,0,1
SUPAMT08258,33PPO7FEC1EJPMCTYZ9FBACVAFODI3,FEAD1A01-F393-492D-A103-6A5D589F813A,2023-09-28_12h28.57.986,WP_VExplicitOC_HL,2022.2.5,Win32,13.09792005,60.15625,3.7525,2.0753,NA,NA,NA,NA,NA,bored,"bored, not bored","more bored, less bored",NA,NA,NA,NA,NA,NA,NA,NA,NA,NA,NA,NA,NA,NA,NA,NA,NA,NA,NA,NA,NA,NA,NA,NA,NA,NA,NA,NA,NA,NA,NA,NA,NA,NA,NA,NA,NA,NA,0,0,0,2,1,NA,NA,NA,NA,NA
SUPAMT08258,33PPO7FEC1EJPMCTYZ9FBACVAFODI3,FEAD1A01-F393-492D-A103-6A5D589F813A,2023-09-28_12h28.57.986,WP_VExplicitOC_HL,2022.2.5,Win32,13.09792005,60.15625,3.4646,2.0618,NA,NA,NA,NA,NA,frustrated,"frustrated, not frustrated","more frustrated, less frustrated",NA,NA,NA,NA,NA,NA,NA,NA,NA,NA,NA,NA,NA,NA,NA,NA,NA,NA,NA,NA,NA,NA,NA,NA,NA,NA,NA,NA,NA,NA,NA,NA,NA,NA,NA,NA,NA,NA,0,1,1,1,1,NA,NA,NA,NA,NA
SUPAMT08258,33PPO7FEC1EJPMCTYZ9FBACVAFODI3,FEAD1A01-F393-492D-A103-6A5D589F813A,2023-09-28_12h28.57.986,WP_VExplicitOC_HL,2022.2.5,Win32,13.09792005,60.15625,6.5391,2.0332,NA,NA,NA,NA,NA,happy,"unhappy, happy","less happy, more happy",NA,NA,NA,NA,NA,NA,NA,NA,NA,NA,NA,NA,NA,NA,NA,NA,NA,NA,NA,NA,NA,NA,NA,NA,NA,NA,NA,NA,NA,NA,NA,NA,NA,NA,NA,NA,NA,NA,0,2,2,0,1,NA,NA,NA,NA,NA
SUPAMT08258,33PPO7FEC1EJPMCTYZ9FBACVAFODI3,FEAD1A01-F393-492D-A103-6A5D589F813A,2023-09-28_12h28.57.986,WP_VExplicitOC_HL,2022.2.5,Win32,13.09792005,NA,NA,NA,NA,NA,NA,NA,NA,NA,NA,NA,NA,NA,NA,NA,NA,NA,NA,NA,NA,NA,NA,NA,NA,NA,NA,NA,NA,NA,NA,NA,NA,NA,NA,NA,NA,NA,NA,NA,NA,NA,NA,NA,NA,NA,NA,NA,NA,NA,NA,NA,NA,NA,NA,7,0,7,0,1
SUPAMT08258,33PPO7FEC1EJPMCTYZ9FBACVAFODI3,FEAD1A01-F393-492D-A103-6A5D589F813A,2023-09-28_12h28.57.986,WP_VExplicitOC_HL,2022.2.5,Win32,13.09792005,60.15625,3.4353,2.0445,NA,NA,NA,NA,NA,bored,"bored, not bored","more bored, less bored",NA,NA,NA,NA,NA,NA,NA,NA,NA,NA,NA,NA,NA,NA,NA,NA,NA,NA,NA,NA,NA,NA,NA,NA,NA,NA,NA,NA,NA,NA,NA,NA,NA,NA,NA,NA,NA,NA,0,0,0,2,1,NA,NA,NA,NA,NA
SUPAMT08258,33PPO7FEC1EJPMCTYZ9FBACVAFODI3,FEAD1A01-F393-492D-A103-6A5D589F813A,2023-09-28_12h28.57.986,WP_VExplicitOC_HL,2022.2.5,Win32,13.09792005,60.15625,3.5226,2.0578,NA,NA,NA,NA,NA,happy,"unhappy, happy","less happy, more happy",NA,NA,NA,NA,NA,NA,NA,NA,NA,NA,NA,NA,NA,NA,NA,NA,NA,NA,NA,NA,NA,NA,NA,NA,NA,NA,NA,NA,NA,NA,NA,NA,NA,NA,NA,NA,NA,NA,0,1,1,0,1,NA,NA,NA,NA,NA
SUPAMT08258,33PPO7FEC1EJPMCTYZ9FBACVAFODI3,FEAD1A01-F393-492D-A103-6A5D589F813A,2023-09-28_12h28.57.986,WP_VExplicitOC_HL,2022.2.5,Win32,13.09792005,60.15625,2.9768,2.0226,NA,NA,NA,NA,NA,frustrated,"frustrated, not frustrated","more frustrated, less frustrated",NA,NA,NA,NA,NA,NA,NA,NA,NA,NA,NA,NA,NA,NA,NA,NA,NA,NA,NA,NA,NA,NA,NA,NA,NA,NA,NA,NA,NA,NA,NA,NA,NA,NA,NA,NA,NA,NA,0,2,2,1,1,NA,NA,NA,NA,NA
SUPAMT08258,33PPO7FEC1EJPMCTYZ9FBACVAFODI3,FEAD1A01-F393-492D-A103-6A5D589F813A,2023-09-28_12h28.57.986,WP_VExplicitOC_HL,2022.2.5,Win32,13.09792005,NA,NA,NA,NA,NA,NA,NA,NA,NA,NA,NA,NA,NA,NA,NA,NA,NA,NA,NA,NA,NA,NA,NA,NA,NA,NA,NA,NA,NA,NA,NA,NA,NA,NA,NA,NA,NA,NA,NA,NA,NA,NA,NA,NA,NA,NA,NA,NA,NA,NA,NA,NA,NA,NA,8,0,8,0,1
SUPAMT08258,33PPO7FEC1EJPMCTYZ9FBACVAFODI3,FEAD1A01-F393-492D-A103-6A5D589F813A,2023-09-28_12h28.57.986,WP_VExplicitOC_HL,2022.2.5,Win32,13.09792005,60.15625,3.7883,2.0369,NA,NA,NA,NA,NA,frustrated,"frustrated, not frustrated","more frustrated, less frustrated",NA,NA,NA,NA,NA,NA,NA,NA,NA,NA,NA,NA,NA,NA,NA,NA,NA,NA,NA,NA,NA,NA,NA,NA,NA,NA,NA,NA,NA,NA,NA,NA,NA,NA,NA,NA,NA,NA,0,0,0,1,1,NA,NA,NA,NA,NA
SUPAMT08258,33PPO7FEC1EJPMCTYZ9FBACVAFODI3,FEAD1A01-F393-492D-A103-6A5D589F813A,2023-09-28_12h28.57.986,WP_VExplicitOC_HL,2022.2.5,Win32,13.09792005,NA,NA,2.0012,NA,NA,NA,NA,NA,happy,"unhappy, happy","less happy, more happy",NA,NA,NA,NA,NA,NA,NA,NA,NA,NA,NA,NA,NA,NA,NA,NA,NA,NA,NA,NA,NA,NA,NA,NA,NA,NA,NA,NA,NA,NA,NA,NA,NA,NA,NA,NA,NA,NA,0,1,1,0,1,NA,NA,NA,NA,NA
SUPAMT08258,33PPO7FEC1EJPMCTYZ9FBACVAFODI3,FEAD1A01-F393-492D-A103-6A5D589F813A,2023-09-28_12h28.57.986,WP_VExplicitOC_HL,2022.2.5,Win32,13.09792005,60.15625,3.5502,2.109,NA,NA,NA,NA,NA,bored,"bored, not bored","more bored, less bored",NA,NA,NA,NA,NA,NA,NA,NA,NA,NA,NA,NA,NA,NA,NA,NA,NA,NA,NA,NA,NA,NA,NA,NA,NA,NA,NA,NA,NA,NA,NA,NA,NA,NA,NA,NA,NA,NA,0,2,2,2,1,NA,NA,NA,NA,NA
SUPAMT08258,33PPO7FEC1EJPMCTYZ9FBACVAFODI3,FEAD1A01-F393-492D-A103-6A5D589F813A,2023-09-28_12h28.57.986,WP_VExplicitOC_HL,2022.2.5,Win32,13.09792005,NA,NA,NA,NA,NA,NA,NA,NA,NA,NA,NA,NA,NA,NA,NA,NA,NA,NA,NA,NA,NA,NA,NA,NA,NA,NA,NA,NA,NA,NA,NA,NA,NA,NA,NA,NA,NA,NA,NA,NA,NA,NA,NA,NA,NA,NA,NA,NA,NA,NA,NA,NA,NA,NA,9,0,9,0,1
SUPAMT08258,33PPO7FEC1EJPMCTYZ9FBACVAFODI3,FEAD1A01-F393-492D-A103-6A5D589F813A,2023-09-28_12h28.57.986,WP_VExplicitOC_HL,2022.2.5,Win32,13.09792005,60.15625,2.8589,2.0047,NA,NA,NA,NA,NA,frustrated,"frustrated, not frustrated","more frustrated, less frustrated",NA,NA,NA,NA,NA,NA,NA,NA,NA,NA,NA,NA,NA,NA,NA,NA,NA,NA,NA,NA,NA,NA,NA,NA,NA,NA,NA,NA,NA,NA,NA,NA,NA,NA,NA,NA,NA,NA,0,0,0,1,1,NA,NA,NA,NA,NA
SUPAMT08258,33PPO7FEC1EJPMCTYZ9FBACVAFODI3,FEAD1A01-F393-492D-A103-6A5D589F813A,2023-09-28_12h28.57.986,WP_VExplicitOC_HL,2022.2.5,Win32,13.09792005,60.15625,3.1998,2.0891,NA,NA,NA,NA,NA,bored,"bored, not bored","more bored, less bored",NA,NA,NA,NA,NA,NA,NA,NA,NA,NA,NA,NA,NA,NA,NA,NA,NA,NA,NA,NA,NA,NA,NA,NA,NA,NA,NA,NA,NA,NA,NA,NA,NA,NA,NA,NA,NA,NA,0,1,1,2,1,NA,NA,NA,NA,NA
SUPAMT08258,33PPO7FEC1EJPMCTYZ9FBACVAFODI3,FEAD1A01-F393-492D-A103-6A5D589F813A,2023-09-28_12h28.57.986,WP_VExplicitOC_HL,2022.2.5,Win32,13.09792005,60.15625,3.0105,2.0717,NA,NA,NA,NA,NA,happy,"unhappy, happy","less happy, more happy",NA,NA,NA,NA,NA,NA,NA,NA,NA,NA,NA,NA,NA,NA,NA,NA,NA,NA,NA,NA,NA,NA,NA,NA,NA,NA,NA,NA,NA,NA,NA,NA,NA,NA,NA,NA,NA,NA,0,2,2,0,1,NA,NA,NA,NA,NA
SUPAMT08258,33PPO7FEC1EJPMCTYZ9FBACVAFODI3,FEAD1A01-F393-492D-A103-6A5D589F813A,2023-09-28_12h28.57.986,WP_VExplicitOC_HL,2022.2.5,Win32,13.09792005,NA,NA,NA,NA,NA,NA,NA,NA,NA,NA,NA,NA,NA,NA,NA,NA,NA,NA,NA,NA,NA,NA,NA,NA,NA,NA,NA,NA,NA,NA,NA,NA,NA,NA,NA,NA,NA,NA,NA,NA,NA,NA,NA,NA,NA,NA,NA,NA,NA,NA,NA,NA,NA,NA,10,0,10,0,1
SUPAMT08258,33PPO7FEC1EJPMCTYZ9FBACVAFODI3,FEAD1A01-F393-492D-A103-6A5D589F813A,2023-09-28_12h28.57.986,WP_VExplicitOC_HL,2022.2.5,Win32,13.09792005,39.6484375,3.9237,2.0639,NA,NA,NA,NA,NA,happy,"unhappy, happy","less happy, more happy",NA,NA,NA,NA,NA,NA,NA,NA,NA,NA,NA,NA,NA,NA,NA,NA,NA,NA,NA,NA,NA,NA,NA,NA,NA,NA,NA,NA,NA,NA,NA,NA,NA,NA,NA,NA,NA,NA,0,0,0,0,1,NA,NA,NA,NA,NA
SUPAMT08258,33PPO7FEC1EJPMCTYZ9FBACVAFODI3,FEAD1A01-F393-492D-A103-6A5D589F813A,2023-09-28_12h28.57.986,WP_VExplicitOC_HL,2022.2.5,Win32,13.09792005,39.6484375,3.2916,2.0974,NA,NA,NA,NA,NA,frustrated,"frustrated, not frustrated","more frustrated, less frustrated",NA,NA,NA,NA,NA,NA,NA,NA,NA,NA,NA,NA,NA,NA,NA,NA,NA,NA,NA,NA,NA,NA,NA,NA,NA,NA,NA,NA,NA,NA,NA,NA,NA,NA,NA,NA,NA,NA,0,1,1,1,1,NA,NA,NA,NA,NA
SUPAMT08258,33PPO7FEC1EJPMCTYZ9FBACVAFODI3,FEAD1A01-F393-492D-A103-6A5D589F813A,2023-09-28_12h28.57.986,WP_VExplicitOC_HL,2022.2.5,Win32,13.09792005,39.6484375,3.0199,2.0624,NA,NA,NA,NA,NA,bored,"bored, not bored","more bored, less bored",NA,NA,NA,NA,NA,NA,NA,NA,NA,NA,NA,NA,NA,NA,NA,NA,NA,NA,NA,NA,NA,NA,NA,NA,NA,NA,NA,NA,NA,NA,NA,NA,NA,NA,NA,NA,NA,NA,0,2,2,2,1,NA,NA,NA,NA,NA
SUPAMT08258,33PPO7FEC1EJPMCTYZ9FBACVAFODI3,FEAD1A01-F393-492D-A103-6A5D589F813A,2023-09-28_12h28.57.986,WP_VExplicitOC_HL,2022.2.5,Win32,13.09792005,NA,NA,NA,NA,NA,NA,NA,NA,NA,NA,NA,NA,NA,NA,NA,NA,NA,NA,NA,NA,NA,NA,NA,NA,NA,NA,NA,NA,NA,NA,NA,NA,NA,NA,NA,NA,NA,NA,NA,NA,NA,NA,NA,NA,NA,NA,NA,NA,NA,NA,NA,NA,NA,NA,11,0,11,0,1
SUPAMT08258,33PPO7FEC1EJPMCTYZ9FBACVAFODI3,FEAD1A01-F393-492D-A103-6A5D589F813A,2023-09-28_12h28.57.986,WP_VExplicitOC_HL,2022.2.5,Win32,13.09792005,39.6484375,3.8716,2.019,NA,NA,NA,NA,NA,bored,"bored, not bored","more bored, less bored",NA,NA,NA,NA,NA,NA,NA,NA,NA,NA,NA,NA,NA,NA,NA,NA,NA,NA,NA,NA,NA,NA,NA,NA,NA,NA,NA,NA,NA,NA,NA,NA,NA,NA,NA,NA,NA,NA,0,0,0,2,1,NA,NA,NA,NA,NA
SUPAMT08258,33PPO7FEC1EJPMCTYZ9FBACVAFODI3,FEAD1A01-F393-492D-A103-6A5D589F813A,2023-09-28_12h28.57.986,WP_VExplicitOC_HL,2022.2.5,Win32,13.09792005,64.2578125,3.0535,2.0081,NA,NA,NA,NA,NA,frustrated,"frustrated, not frustrated","more frustrated, less frustrated",NA,NA,NA,NA,NA,NA,NA,NA,NA,NA,NA,NA,NA,NA,NA,NA,NA,NA,NA,NA,NA,NA,NA,NA,NA,NA,NA,NA,NA,NA,NA,NA,NA,NA,NA,NA,NA,NA,0,1,1,1,1,NA,NA,NA,NA,NA
SUPAMT08258,33PPO7FEC1EJPMCTYZ9FBACVAFODI3,FEAD1A01-F393-492D-A103-6A5D589F813A,2023-09-28_12h28.57.986,WP_VExplicitOC_HL,2022.2.5,Win32,13.09792005,87.3046875,3.1915,2.0663,NA,NA,NA,NA,NA,happy,"unhappy, happy","less happy, more happy",NA,NA,NA,NA,NA,NA,NA,NA,NA,NA,NA,NA,NA,NA,NA,NA,NA,NA,NA,NA,NA,NA,NA,NA,NA,NA,NA,NA,NA,NA,NA,NA,NA,NA,NA,NA,NA,NA,0,2,2,0,1,NA,NA,NA,NA,NA
SUPAMT08258,33PPO7FEC1EJPMCTYZ9FBACVAFODI3,FEAD1A01-F393-492D-A103-6A5D589F813A,2023-09-28_12h28.57.986,WP_VExplicitOC_HL,2022.2.5,Win32,13.09792005,NA,NA,NA,NA,NA,NA,NA,NA,NA,NA,NA,NA,NA,NA,NA,NA,NA,NA,NA,NA,NA,NA,NA,NA,NA,NA,NA,NA,NA,NA,NA,NA,NA,NA,NA,NA,NA,NA,NA,NA,NA,NA,NA,NA,NA,NA,NA,NA,NA,NA,NA,NA,NA,NA,12,0,12,0,1
SUPAMT08258,33PPO7FEC1EJPMCTYZ9FBACVAFODI3,FEAD1A01-F393-492D-A103-6A5D589F813A,2023-09-28_12h28.57.986,WP_VExplicitOC_HL,2022.2.5,Win32,13.09792005,21.484375,3.242,2.0204,NA,NA,NA,NA,NA,happy,"unhappy, happy","less happy, more happy",NA,NA,NA,NA,NA,NA,NA,NA,NA,NA,NA,NA,NA,NA,NA,NA,NA,NA,NA,NA,NA,NA,NA,NA,NA,NA,NA,NA,NA,NA,NA,NA,NA,NA,NA,NA,NA,NA,0,0,0,0,1,NA,NA,NA,NA,NA
SUPAMT08258,33PPO7FEC1EJPMCTYZ9FBACVAFODI3,FEAD1A01-F393-492D-A103-6A5D589F813A,2023-09-28_12h28.57.986,WP_VExplicitOC_HL,2022.2.5,Win32,13.09792005,27.5390625,3.0129,2.0464,NA,NA,NA,NA,NA,frustrated,"frustrated, not frustrated","more frustrated, less frustrated",NA,NA,NA,NA,NA,NA,NA,NA,NA,NA,NA,NA,NA,NA,NA,NA,NA,NA,NA,NA,NA,NA,NA,NA,NA,NA,NA,NA,NA,NA,NA,NA,NA,NA,NA,NA,NA,NA,0,1,1,1,1,NA,NA,NA,NA,NA
SUPAMT08258,33PPO7FEC1EJPMCTYZ9FBACVAFODI3,FEAD1A01-F393-492D-A103-6A5D589F813A,2023-09-28_12h28.57.986,WP_VExplicitOC_HL,2022.2.5,Win32,13.09792005,30.46875,2.9655,2.0719,NA,NA,NA,NA,NA,bored,"bored, not bored","more bored, less bored",NA,NA,NA,NA,NA,NA,NA,NA,NA,NA,NA,NA,NA,NA,NA,NA,NA,NA,NA,NA,NA,NA,NA,NA,NA,NA,NA,NA,NA,NA,NA,NA,NA,NA,NA,NA,NA,NA,0,2,2,2,1,NA,NA,NA,NA,NA
SUPAMT08258,33PPO7FEC1EJPMCTYZ9FBACVAFODI3,FEAD1A01-F393-492D-A103-6A5D589F813A,2023-09-28_12h28.57.986,WP_VExplicitOC_HL,2022.2.5,Win32,13.09792005,NA,NA,NA,NA,NA,NA,NA,NA,NA,NA,NA,NA,NA,NA,NA,NA,NA,NA,NA,NA,NA,NA,NA,NA,NA,NA,NA,NA,NA,NA,NA,NA,NA,NA,NA,NA,NA,NA,NA,NA,NA,NA,NA,NA,NA,NA,NA,NA,NA,NA,NA,NA,NA,NA,13,0,13,0,1
SUPAMT08258,33PPO7FEC1EJPMCTYZ9FBACVAFODI3,FEAD1A01-F393-492D-A103-6A5D589F813A,2023-09-28_12h28.57.986,WP_VExplicitOC_HL,2022.2.5,Win32,13.09792005,49.4140625,5.6679,2.0927,NA,NA,NA,NA,NA,happy,"unhappy, happy","less happy, more happy",NA,NA,NA,NA,NA,NA,NA,NA,NA,NA,NA,NA,NA,NA,NA,NA,NA,NA,NA,NA,NA,NA,NA,NA,NA,NA,NA,NA,NA,NA,NA,NA,NA,NA,NA,NA,NA,NA,0,0,0,0,1,NA,NA,NA,NA,NA
SUPAMT08258,33PPO7FEC1EJPMCTYZ9FBACVAFODI3,FEAD1A01-F393-492D-A103-6A5D589F813A,2023-09-28_12h28.57.986,WP_VExplicitOC_HL,2022.2.5,Win32,13.09792005,54.1015625,4.0219,2.072,NA,NA,NA,NA,NA,frustrated,"frustrated, not frustrated","more frustrated, less frustrated",NA,NA,NA,NA,NA,NA,NA,NA,NA,NA,NA,NA,NA,NA,NA,NA,NA,NA,NA,NA,NA,NA,NA,NA,NA,NA,NA,NA,NA,NA,NA,NA,NA,NA,NA,NA,NA,NA,0,1,1,1,1,NA,NA,NA,NA,NA
SUPAMT08258,33PPO7FEC1EJPMCTYZ9FBACVAFODI3,FEAD1A01-F393-492D-A103-6A5D589F813A,2023-09-28_12h28.57.986,WP_VExplicitOC_HL,2022.2.5,Win32,13.09792005,73.4375,3.4043,2.1435,NA,NA,NA,NA,NA,bored,"bored, not bored","more bored, less bored",NA,NA,NA,NA,NA,NA,NA,NA,NA,NA,NA,NA,NA,NA,NA,NA,NA,NA,NA,NA,NA,NA,NA,NA,NA,NA,NA,NA,NA,NA,NA,NA,NA,NA,NA,NA,NA,NA,0,2,2,2,1,NA,NA,NA,NA,NA
SUPAMT08258,33PPO7FEC1EJPMCTYZ9FBACVAFODI3,FEAD1A01-F393-492D-A103-6A5D589F813A,2023-09-28_12h28.57.986,WP_VExplicitOC_HL,2022.2.5,Win32,13.09792005,NA,NA,NA,NA,NA,NA,NA,NA,NA,NA,NA,NA,NA,NA,NA,NA,NA,NA,NA,NA,NA,NA,NA,NA,NA,NA,NA,NA,NA,NA,NA,NA,NA,NA,NA,NA,NA,NA,NA,NA,NA,NA,NA,NA,NA,NA,NA,NA,NA,NA,NA,NA,NA,NA,14,0,14,0,1
SUPAMT08258,33PPO7FEC1EJPMCTYZ9FBACVAFODI3,FEAD1A01-F393-492D-A103-6A5D589F813A,2023-09-28_12h28.57.986,WP_VExplicitOC_HL,2022.2.5,Win32,13.09792005,NA,NA,NA,NA,NA,NA,NA,NA,NA,NA,NA,NA,NA,NA,NA,NA,NA,NA,NA,NA,NA,NA,NA,NA,NA,NA,NA,NA,NA,NA,NA,NA,NA,NA,NA,NA,NA,NA,NA,NA,NA,NA,NA,NA,NA,NA,NA,NA,NA,NA,NA,NA,NA,NA,NA,NA,NA,NA,NA
