participant,session,completion,date,expName,psychopyVersion,OS,frameRate,rating_all.response,rating_all.rt,rating_all.tStart,rndRat1.thisRepN,rndRat1.thisTrialN,rndRat1.thisN,rndRat1.thisIndex,rndRat1.ran,Emo,Labs,Labs2,rating_alt.response,rating_alt.rt,AltC.thisRepN,AltC.thisTrialN,AltC.thisN,AltC.thisIndex,AltC.ran,alt_choices,pic_choices,TopAlt_Choice,rndRat2.thisRepN,rndRat2.thisTrialN,rndRat2.thisN,rndRat2.thisIndex,rndRat2.ran,rndRat3.thisRepN,rndRat3.thisTrialN,rndRat3.thisN,rndRat3.thisIndex,rndRat3.ran,trials_FC_H.thisRepN,trials_FC_H.thisTrialN,trials_FC_H.thisN,trials_FC_H.thisIndex,trials_FC_H.ran,rating_alt_2.response,rating_alt_2.rt,AltC2.thisRepN,AltC2.thisTrialN,AltC2.thisN,AltC2.thisIndex,AltC2.ran,BottomAlt_Choice,rndRat4.thisRepN,rndRat4.thisTrialN,rndRat4.thisN,rndRat4.thisIndex,rndRat4.ran,rndRat5.thisRepN,rndRat5.thisTrialN,rndRat5.thisN,rndRat5.thisIndex,rndRat5.ran,trials_FC_L.thisRepN,trials_FC_L.thisTrialN,trials_FC_L.thisN,trials_FC_L.thisIndex,trials_FC_L.ran
SUPAMT66564,NA,5358B491-EA93-438C-B70D-D2BB52421F71,2023-09-27_13h52.09.172,WP_VExplicitOC_HL,2022.2.5,Win32,2.500100004,NA,NA,NA,NA,NA,NA,NA,NA,NA,NA,NA,NA,NA,NA,NA,NA,NA,NA,NA,NA,NA,NA,NA,NA,NA,NA,NA,NA,NA,NA,NA,NA,NA,NA,NA,NA,NA,NA,NA,NA,NA,NA,NA,NA,NA,NA,NA,NA,NA,NA,NA,NA,NA,NA,NA,NA,NA,NA,NA
SUPAMT66564,NA,5358B491-EA93-438C-B70D-D2BB52421F71,2023-09-27_13h52.09.172,WP_VExplicitOC_HL,2022.2.5,Win32,2.500100004,NA,NA,NA,NA,NA,NA,NA,NA,NA,NA,NA,NA,NA,NA,NA,NA,NA,NA,NA,NA,NA,NA,NA,NA,NA,NA,NA,NA,NA,NA,NA,NA,NA,NA,NA,NA,NA,NA,NA,NA,NA,NA,NA,NA,NA,NA,NA,NA,NA,NA,NA,NA,NA,NA,NA,NA,NA,NA,NA
SUPAMT66564,NA,5358B491-EA93-438C-B70D-D2BB52421F71,2023-09-27_13h52.09.172,WP_VExplicitOC_HL,2022.2.5,Win32,2.500100004,NA,NA,NA,NA,NA,NA,NA,NA,NA,NA,NA,NA,NA,NA,NA,NA,NA,NA,NA,NA,NA,NA,NA,NA,NA,NA,NA,NA,NA,NA,NA,NA,NA,NA,NA,NA,NA,NA,NA,NA,NA,NA,NA,NA,NA,NA,NA,NA,NA,NA,NA,NA,NA,NA,NA,NA,NA,NA,NA
SUPAMT66564,NA,5358B491-EA93-438C-B70D-D2BB52421F71,2023-09-27_13h52.09.172,WP_VExplicitOC_HL,2022.2.5,Win32,2.500100004,93.22916667,6.212,2.024,0,0,0,1,1,frustrated,"frustrated, not frustrated","more frustrated, less frustrated",NA,NA,NA,NA,NA,NA,NA,NA,NA,NA,NA,NA,NA,NA,NA,NA,NA,NA,NA,NA,NA,NA,NA,NA,NA,NA,NA,NA,NA,NA,NA,NA,NA,NA,NA,NA,NA,NA,NA,NA,NA,NA,NA,NA,NA,NA,NA,NA
SUPAMT66564,NA,5358B491-EA93-438C-B70D-D2BB52421F71,2023-09-27_13h52.09.172,WP_VExplicitOC_HL,2022.2.5,Win32,2.500100004,96.61458333,5.225,2.048,0,1,1,2,1,bored,"bored, not bored","more bored, less bored",NA,NA,NA,NA,NA,NA,NA,NA,NA,NA,NA,NA,NA,NA,NA,NA,NA,NA,NA,NA,NA,NA,NA,NA,NA,NA,NA,NA,NA,NA,NA,NA,NA,NA,NA,NA,NA,NA,NA,NA,NA,NA,NA,NA,NA,NA,NA,NA
SUPAMT66564,NA,5358B491-EA93-438C-B70D-D2BB52421F71,2023-09-27_13h52.09.172,WP_VExplicitOC_HL,2022.2.5,Win32,2.500100004,89.84375,5.077,2.008,0,2,2,0,1,happy,"unhappy, happy","less happy, more happy",NA,NA,NA,NA,NA,NA,NA,NA,NA,NA,NA,NA,NA,NA,NA,NA,NA,NA,NA,NA,NA,NA,NA,NA,NA,NA,NA,NA,NA,NA,NA,NA,NA,NA,NA,NA,NA,NA,NA,NA,NA,NA,NA,NA,NA,NA,NA,NA
SUPAMT66564,NA,5358B491-EA93-438C-B70D-D2BB52421F71,2023-09-27_13h52.09.172,WP_VExplicitOC_HL,2022.2.5,Win32,2.500100004,NA,NA,NA,NA,NA,NA,NA,NA,NA,NA,NA,NA,NA,NA,NA,NA,NA,NA,NA,NA,NA,NA,NA,NA,NA,NA,NA,NA,NA,NA,NA,NA,NA,NA,NA,NA,NA,NA,NA,NA,NA,NA,NA,NA,NA,NA,NA,NA,NA,NA,NA,NA,NA,NA,NA,NA,NA,NA,NA
SUPAMT66564,NA,5358B491-EA93-438C-B70D-D2BB52421F71,2023-09-27_13h52.09.172,WP_VExplicitOC_HL,2022.2.5,Win32,2.500100004,NA,NA,NA,NA,NA,NA,NA,NA,NA,NA,NA,NA,NA,NA,NA,NA,NA,NA,NA,NA,NA,NA,NA,NA,NA,NA,NA,NA,NA,NA,NA,NA,NA,NA,NA,NA,NA,NA,NA,NA,NA,NA,NA,NA,NA,NA,NA,NA,NA,NA,NA,NA,NA,NA,NA,NA,NA,NA,NA
SUPAMT66564,NA,5358B491-EA93-438C-B70D-D2BB52421F71,2023-09-27_13h52.09.172,WP_VExplicitOC_HL,2022.2.5,Win32,2.500100004,NA,NA,NA,NA,NA,NA,NA,NA,NA,NA,NA,NA,NA,NA,NA,NA,NA,NA,NA,NA,NA,NA,NA,NA,NA,NA,NA,NA,NA,NA,NA,NA,NA,NA,NA,NA,NA,NA,NA,NA,NA,NA,NA,NA,NA,NA,NA,NA,NA,NA,NA,NA,NA,NA,NA,NA,NA,NA,NA
SUPAMT66564,NA,5358B491-EA93-438C-B70D-D2BB52421F71,2023-09-27_13h52.09.172,WP_VExplicitOC_HL,2022.2.5,Win32,2.500100004,NA,NA,NA,NA,NA,NA,NA,NA,NA,NA,NA,NA,NA,NA,NA,NA,NA,NA,NA,NA,NA,NA,NA,NA,NA,NA,NA,NA,NA,NA,NA,NA,NA,NA,NA,NA,NA,NA,NA,NA,NA,NA,NA,NA,NA,NA,NA,NA,NA,NA,NA,NA,NA,NA,NA,NA,NA,NA,NA
SUPAMT66564,NA,5358B491-EA93-438C-B70D-D2BB52421F71,2023-09-27_13h52.09.172,WP_VExplicitOC_HL,2022.2.5,Win32,2.500100004,NA,NA,NA,NA,NA,NA,NA,NA,NA,NA,NA,-65.36458333,5.286,0,0,0,0,1,rest (looking at a fixed cross),001.png,NA,NA,NA,NA,NA,NA,NA,NA,NA,NA,NA,NA,NA,NA,NA,NA,NA,NA,NA,NA,NA,NA,NA,NA,NA,NA,NA,NA,NA,NA,NA,NA,NA,NA,NA,NA,NA,NA,NA
SUPAMT66564,NA,5358B491-EA93-438C-B70D-D2BB52421F71,2023-09-27_13h52.09.172,WP_VExplicitOC_HL,2022.2.5,Win32,2.500100004,NA,NA,NA,NA,NA,NA,NA,NA,NA,NA,NA,-46.09375,3.669,0,1,1,1,1,stand up,002.png,NA,NA,NA,NA,NA,NA,NA,NA,NA,NA,NA,NA,NA,NA,NA,NA,NA,NA,NA,NA,NA,NA,NA,NA,NA,NA,NA,NA,NA,NA,NA,NA,NA,NA,NA,NA,NA,NA,NA
SUPAMT66564,NA,5358B491-EA93-438C-B70D-D2BB52421F71,2023-09-27_13h52.09.172,WP_VExplicitOC_HL,2022.2.5,Win32,2.500100004,NA,NA,NA,NA,NA,NA,NA,NA,NA,NA,NA,-48.95833333,3.126,0,2,2,2,1,stretch,003.png,NA,NA,NA,NA,NA,NA,NA,NA,NA,NA,NA,NA,NA,NA,NA,NA,NA,NA,NA,NA,NA,NA,NA,NA,NA,NA,NA,NA,NA,NA,NA,NA,NA,NA,NA,NA,NA,NA,NA
SUPAMT66564,NA,5358B491-EA93-438C-B70D-D2BB52421F71,2023-09-27_13h52.09.172,WP_VExplicitOC_HL,2022.2.5,Win32,2.500100004,NA,NA,NA,NA,NA,NA,NA,NA,NA,NA,NA,-17.96875,3.689,0,3,3,3,1,make a drink,004.png,NA,NA,NA,NA,NA,NA,NA,NA,NA,NA,NA,NA,NA,NA,NA,NA,NA,NA,NA,NA,NA,NA,NA,NA,NA,NA,NA,NA,NA,NA,NA,NA,NA,NA,NA,NA,NA,NA,NA
SUPAMT66564,NA,5358B491-EA93-438C-B70D-D2BB52421F71,2023-09-27_13h52.09.172,WP_VExplicitOC_HL,2022.2.5,Win32,2.500100004,NA,NA,NA,NA,NA,NA,NA,NA,NA,NA,NA,33.07291667,3.694,0,4,4,4,1,scroll social media,005.png,NA,NA,NA,NA,NA,NA,NA,NA,NA,NA,NA,NA,NA,NA,NA,NA,NA,NA,NA,NA,NA,NA,NA,NA,NA,NA,NA,NA,NA,NA,NA,NA,NA,NA,NA,NA,NA,NA,NA
SUPAMT66564,NA,5358B491-EA93-438C-B70D-D2BB52421F71,2023-09-27_13h52.09.172,WP_VExplicitOC_HL,2022.2.5,Win32,2.500100004,NA,NA,NA,NA,NA,NA,NA,NA,NA,NA,NA,-15.36458333,3.672,0,5,5,5,1,listen to music,006.png,NA,NA,NA,NA,NA,NA,NA,NA,NA,NA,NA,NA,NA,NA,NA,NA,NA,NA,NA,NA,NA,NA,NA,NA,NA,NA,NA,NA,NA,NA,NA,NA,NA,NA,NA,NA,NA,NA,NA
SUPAMT66564,NA,5358B491-EA93-438C-B70D-D2BB52421F71,2023-09-27_13h52.09.172,WP_VExplicitOC_HL,2022.2.5,Win32,2.500100004,NA,NA,NA,NA,NA,NA,NA,NA,NA,NA,NA,-26.30208333,3.14,0,6,6,6,1,daydream,007.png,NA,NA,NA,NA,NA,NA,NA,NA,NA,NA,NA,NA,NA,NA,NA,NA,NA,NA,NA,NA,NA,NA,NA,NA,NA,NA,NA,NA,NA,NA,NA,NA,NA,NA,NA,NA,NA,NA,NA
SUPAMT66564,NA,5358B491-EA93-438C-B70D-D2BB52421F71,2023-09-27_13h52.09.172,WP_VExplicitOC_HL,2022.2.5,Win32,2.500100004,NA,NA,NA,NA,NA,NA,NA,NA,NA,NA,NA,-31.77083333,3.677,0,7,7,7,1,watch a short animation,008.png,NA,NA,NA,NA,NA,NA,NA,NA,NA,NA,NA,NA,NA,NA,NA,NA,NA,NA,NA,NA,NA,NA,NA,NA,NA,NA,NA,NA,NA,NA,NA,NA,NA,NA,NA,NA,NA,NA,NA
SUPAMT66564,NA,5358B491-EA93-438C-B70D-D2BB52421F71,2023-09-27_13h52.09.172,WP_VExplicitOC_HL,2022.2.5,Win32,2.500100004,NA,NA,NA,NA,NA,NA,NA,NA,NA,NA,NA,-55.46875,3.156,0,8,8,8,1,read a novel,009.png,NA,NA,NA,NA,NA,NA,NA,NA,NA,NA,NA,NA,NA,NA,NA,NA,NA,NA,NA,NA,NA,NA,NA,NA,NA,NA,NA,NA,NA,NA,NA,NA,NA,NA,NA,NA,NA,NA,NA
SUPAMT66564,NA,5358B491-EA93-438C-B70D-D2BB52421F71,2023-09-27_13h52.09.172,WP_VExplicitOC_HL,2022.2.5,Win32,2.500100004,NA,NA,NA,NA,NA,NA,NA,NA,NA,NA,NA,-30.98958333,3.144,0,9,9,9,1,read the news,010.png,NA,NA,NA,NA,NA,NA,NA,NA,NA,NA,NA,NA,NA,NA,NA,NA,NA,NA,NA,NA,NA,NA,NA,NA,NA,NA,NA,NA,NA,NA,NA,NA,NA,NA,NA,NA,NA,NA,NA
SUPAMT66564,NA,5358B491-EA93-438C-B70D-D2BB52421F71,2023-09-27_13h52.09.172,WP_VExplicitOC_HL,2022.2.5,Win32,2.500100004,NA,NA,NA,NA,NA,NA,NA,NA,NA,NA,NA,NA,NA,NA,NA,NA,NA,NA,NA,NA,NA,NA,NA,NA,NA,NA,NA,NA,NA,NA,NA,NA,NA,NA,NA,NA,NA,NA,NA,NA,NA,NA,NA,NA,NA,NA,NA,NA,NA,NA,NA,NA,NA,NA,NA,NA,NA,NA,NA
SUPAMT66564,NA,5358B491-EA93-438C-B70D-D2BB52421F71,2023-09-27_13h52.09.172,WP_VExplicitOC_HL,2022.2.5,Win32,2.500100004,NA,NA,NA,NA,NA,NA,NA,NA,NA,NA,NA,NA,NA,NA,NA,NA,NA,NA,NA,NA,scroll social media,NA,NA,NA,NA,NA,NA,NA,NA,NA,NA,NA,NA,NA,NA,NA,NA,NA,NA,NA,NA,NA,NA,NA,NA,NA,NA,NA,NA,NA,NA,NA,NA,NA,NA,NA,NA,NA,NA
SUPAMT66564,NA,5358B491-EA93-438C-B70D-D2BB52421F71,2023-09-27_13h52.09.172,WP_VExplicitOC_HL,2022.2.5,Win32,2.500100004,69.01041667,5.634,2.493,NA,NA,NA,NA,NA,bored,"bored, not bored","more bored, less bored",NA,NA,NA,NA,NA,NA,NA,NA,NA,NA,0,0,0,2,1,NA,NA,NA,NA,NA,NA,NA,NA,NA,NA,NA,NA,NA,NA,NA,NA,NA,NA,NA,NA,NA,NA,NA,NA,NA,NA,NA,NA,NA,NA,NA,NA,NA
SUPAMT66564,NA,5358B491-EA93-438C-B70D-D2BB52421F71,2023-09-27_13h52.09.172,WP_VExplicitOC_HL,2022.2.5,Win32,2.500100004,64.58333333,5.586,2.399,NA,NA,NA,NA,NA,happy,"unhappy, happy","less happy, more happy",NA,NA,NA,NA,NA,NA,NA,NA,NA,NA,0,1,1,0,1,NA,NA,NA,NA,NA,NA,NA,NA,NA,NA,NA,NA,NA,NA,NA,NA,NA,NA,NA,NA,NA,NA,NA,NA,NA,NA,NA,NA,NA,NA,NA,NA,NA
SUPAMT66564,NA,5358B491-EA93-438C-B70D-D2BB52421F71,2023-09-27_13h52.09.172,WP_VExplicitOC_HL,2022.2.5,Win32,2.500100004,62.5,5.099,2.009,NA,NA,NA,NA,NA,frustrated,"frustrated, not frustrated","more frustrated, less frustrated",NA,NA,NA,NA,NA,NA,NA,NA,NA,NA,0,2,2,1,1,NA,NA,NA,NA,NA,NA,NA,NA,NA,NA,NA,NA,NA,NA,NA,NA,NA,NA,NA,NA,NA,NA,NA,NA,NA,NA,NA,NA,NA,NA,NA,NA,NA
SUPAMT66564,NA,5358B491-EA93-438C-B70D-D2BB52421F71,2023-09-27_13h52.09.172,WP_VExplicitOC_HL,2022.2.5,Win32,2.500100004,NA,NA,NA,NA,NA,NA,NA,NA,NA,NA,NA,NA,NA,NA,NA,NA,NA,NA,NA,NA,NA,NA,NA,NA,NA,NA,NA,NA,NA,NA,NA,NA,NA,NA,NA,NA,NA,NA,NA,NA,NA,NA,NA,NA,NA,NA,NA,NA,NA,NA,NA,NA,NA,NA,NA,NA,NA,NA,NA
SUPAMT66564,NA,5358B491-EA93-438C-B70D-D2BB52421F71,2023-09-27_13h52.09.172,WP_VExplicitOC_HL,2022.2.5,Win32,2.500100004,NA,NA,NA,NA,NA,NA,NA,NA,NA,NA,NA,NA,NA,NA,NA,NA,NA,NA,NA,NA,NA,NA,NA,NA,NA,NA,NA,NA,NA,NA,NA,NA,NA,NA,NA,NA,NA,NA,NA,NA,NA,NA,NA,NA,NA,NA,NA,NA,NA,NA,NA,NA,NA,NA,NA,NA,NA,NA,NA
SUPAMT66564,NA,5358B491-EA93-438C-B70D-D2BB52421F71,2023-09-27_13h52.09.172,WP_VExplicitOC_HL,2022.2.5,Win32,2.500100004,84.89583333,6.108,2.479,NA,NA,NA,NA,NA,frustrated,"frustrated, not frustrated","more frustrated, less frustrated",NA,NA,NA,NA,NA,NA,NA,NA,NA,NA,NA,NA,NA,NA,NA,0,0,0,1,1,NA,NA,NA,NA,NA,NA,NA,NA,NA,NA,NA,NA,NA,NA,NA,NA,NA,NA,NA,NA,NA,NA,NA,NA,NA,NA,NA,NA
SUPAMT66564,NA,5358B491-EA93-438C-B70D-D2BB52421F71,2023-09-27_13h52.09.172,WP_VExplicitOC_HL,2022.2.5,Win32,2.500100004,52.60416667,5.047,2.011,NA,NA,NA,NA,NA,happy,"unhappy, happy","less happy, more happy",NA,NA,NA,NA,NA,NA,NA,NA,NA,NA,NA,NA,NA,NA,NA,0,1,1,0,1,NA,NA,NA,NA,NA,NA,NA,NA,NA,NA,NA,NA,NA,NA,NA,NA,NA,NA,NA,NA,NA,NA,NA,NA,NA,NA,NA,NA
SUPAMT66564,NA,5358B491-EA93-438C-B70D-D2BB52421F71,2023-09-27_13h52.09.172,WP_VExplicitOC_HL,2022.2.5,Win32,2.500100004,86.45833333,5.571,2.003,NA,NA,NA,NA,NA,bored,"bored, not bored","more bored, less bored",NA,NA,NA,NA,NA,NA,NA,NA,NA,NA,NA,NA,NA,NA,NA,0,2,2,2,1,NA,NA,NA,NA,NA,NA,NA,NA,NA,NA,NA,NA,NA,NA,NA,NA,NA,NA,NA,NA,NA,NA,NA,NA,NA,NA,NA,NA
SUPAMT66564,NA,5358B491-EA93-438C-B70D-D2BB52421F71,2023-09-27_13h52.09.172,WP_VExplicitOC_HL,2022.2.5,Win32,2.500100004,NA,NA,NA,NA,NA,NA,NA,NA,NA,NA,NA,NA,NA,NA,NA,NA,NA,NA,NA,NA,NA,NA,NA,NA,NA,NA,NA,NA,NA,NA,NA,0,0,0,0,1,NA,NA,NA,NA,NA,NA,NA,NA,NA,NA,NA,NA,NA,NA,NA,NA,NA,NA,NA,NA,NA,NA,NA
SUPAMT66564,NA,5358B491-EA93-438C-B70D-D2BB52421F71,2023-09-27_13h52.09.172,WP_VExplicitOC_HL,2022.2.5,Win32,2.500100004,63.54166667,7.066,2.48,NA,NA,NA,NA,NA,bored,"bored, not bored","more bored, less bored",NA,NA,NA,NA,NA,NA,NA,NA,NA,NA,NA,NA,NA,NA,NA,0,0,0,2,1,NA,NA,NA,NA,NA,NA,NA,NA,NA,NA,NA,NA,NA,NA,NA,NA,NA,NA,NA,NA,NA,NA,NA,NA,NA,NA,NA,NA
SUPAMT66564,NA,5358B491-EA93-438C-B70D-D2BB52421F71,2023-09-27_13h52.09.172,WP_VExplicitOC_HL,2022.2.5,Win32,2.500100004,32.8125,6.04,2.481,NA,NA,NA,NA,NA,happy,"unhappy, happy","less happy, more happy",NA,NA,NA,NA,NA,NA,NA,NA,NA,NA,NA,NA,NA,NA,NA,0,1,1,0,1,NA,NA,NA,NA,NA,NA,NA,NA,NA,NA,NA,NA,NA,NA,NA,NA,NA,NA,NA,NA,NA,NA,NA,NA,NA,NA,NA,NA
SUPAMT66564,NA,5358B491-EA93-438C-B70D-D2BB52421F71,2023-09-27_13h52.09.172,WP_VExplicitOC_HL,2022.2.5,Win32,2.500100004,58.33333333,5.568,2.007,NA,NA,NA,NA,NA,frustrated,"frustrated, not frustrated","more frustrated, less frustrated",NA,NA,NA,NA,NA,NA,NA,NA,NA,NA,NA,NA,NA,NA,NA,0,2,2,1,1,NA,NA,NA,NA,NA,NA,NA,NA,NA,NA,NA,NA,NA,NA,NA,NA,NA,NA,NA,NA,NA,NA,NA,NA,NA,NA,NA,NA
SUPAMT66564,NA,5358B491-EA93-438C-B70D-D2BB52421F71,2023-09-27_13h52.09.172,WP_VExplicitOC_HL,2022.2.5,Win32,2.500100004,NA,NA,NA,NA,NA,NA,NA,NA,NA,NA,NA,NA,NA,NA,NA,NA,NA,NA,NA,NA,NA,NA,NA,NA,NA,NA,NA,NA,NA,NA,NA,1,0,1,0,1,NA,NA,NA,NA,NA,NA,NA,NA,NA,NA,NA,NA,NA,NA,NA,NA,NA,NA,NA,NA,NA,NA,NA
SUPAMT66564,NA,5358B491-EA93-438C-B70D-D2BB52421F71,2023-09-27_13h52.09.172,WP_VExplicitOC_HL,2022.2.5,Win32,2.500100004,41.40625,5.518,2.467,NA,NA,NA,NA,NA,happy,"unhappy, happy","less happy, more happy",NA,NA,NA,NA,NA,NA,NA,NA,NA,NA,NA,NA,NA,NA,NA,0,0,0,0,1,NA,NA,NA,NA,NA,NA,NA,NA,NA,NA,NA,NA,NA,NA,NA,NA,NA,NA,NA,NA,NA,NA,NA,NA,NA,NA,NA,NA
SUPAMT66564,NA,5358B491-EA93-438C-B70D-D2BB52421F71,2023-09-27_13h52.09.172,WP_VExplicitOC_HL,2022.2.5,Win32,2.500100004,43.48958333,5.603,2.018,NA,NA,NA,NA,NA,frustrated,"frustrated, not frustrated","more frustrated, less frustrated",NA,NA,NA,NA,NA,NA,NA,NA,NA,NA,NA,NA,NA,NA,NA,0,1,1,1,1,NA,NA,NA,NA,NA,NA,NA,NA,NA,NA,NA,NA,NA,NA,NA,NA,NA,NA,NA,NA,NA,NA,NA,NA,NA,NA,NA,NA
SUPAMT66564,NA,5358B491-EA93-438C-B70D-D2BB52421F71,2023-09-27_13h52.09.172,WP_VExplicitOC_HL,2022.2.5,Win32,2.500100004,49.73958333,5.566,2.018,NA,NA,NA,NA,NA,bored,"bored, not bored","more bored, less bored",NA,NA,NA,NA,NA,NA,NA,NA,NA,NA,NA,NA,NA,NA,NA,0,2,2,2,1,NA,NA,NA,NA,NA,NA,NA,NA,NA,NA,NA,NA,NA,NA,NA,NA,NA,NA,NA,NA,NA,NA,NA,NA,NA,NA,NA,NA
SUPAMT66564,NA,5358B491-EA93-438C-B70D-D2BB52421F71,2023-09-27_13h52.09.172,WP_VExplicitOC_HL,2022.2.5,Win32,2.500100004,NA,NA,NA,NA,NA,NA,NA,NA,NA,NA,NA,NA,NA,NA,NA,NA,NA,NA,NA,NA,NA,NA,NA,NA,NA,NA,NA,NA,NA,NA,NA,2,0,2,0,1,NA,NA,NA,NA,NA,NA,NA,NA,NA,NA,NA,NA,NA,NA,NA,NA,NA,NA,NA,NA,NA,NA,NA
SUPAMT66564,NA,5358B491-EA93-438C-B70D-D2BB52421F71,2023-09-27_13h52.09.172,WP_VExplicitOC_HL,2022.2.5,Win32,2.500100004,34.11458333,6.067,2.503,NA,NA,NA,NA,NA,frustrated,"frustrated, not frustrated","more frustrated, less frustrated",NA,NA,NA,NA,NA,NA,NA,NA,NA,NA,NA,NA,NA,NA,NA,0,0,0,1,1,NA,NA,NA,NA,NA,NA,NA,NA,NA,NA,NA,NA,NA,NA,NA,NA,NA,NA,NA,NA,NA,NA,NA,NA,NA,NA,NA,NA
SUPAMT66564,NA,5358B491-EA93-438C-B70D-D2BB52421F71,2023-09-27_13h52.09.172,WP_VExplicitOC_HL,2022.2.5,Win32,2.500100004,59.63541667,5.036,2.002,NA,NA,NA,NA,NA,bored,"bored, not bored","more bored, less bored",NA,NA,NA,NA,NA,NA,NA,NA,NA,NA,NA,NA,NA,NA,NA,0,1,1,2,1,NA,NA,NA,NA,NA,NA,NA,NA,NA,NA,NA,NA,NA,NA,NA,NA,NA,NA,NA,NA,NA,NA,NA,NA,NA,NA,NA,NA
SUPAMT66564,NA,5358B491-EA93-438C-B70D-D2BB52421F71,2023-09-27_13h52.09.172,WP_VExplicitOC_HL,2022.2.5,Win32,2.500100004,30.20833333,5.577,2.036,NA,NA,NA,NA,NA,happy,"unhappy, happy","less happy, more happy",NA,NA,NA,NA,NA,NA,NA,NA,NA,NA,NA,NA,NA,NA,NA,0,2,2,0,1,NA,NA,NA,NA,NA,NA,NA,NA,NA,NA,NA,NA,NA,NA,NA,NA,NA,NA,NA,NA,NA,NA,NA,NA,NA,NA,NA,NA
SUPAMT66564,NA,5358B491-EA93-438C-B70D-D2BB52421F71,2023-09-27_13h52.09.172,WP_VExplicitOC_HL,2022.2.5,Win32,2.500100004,NA,NA,NA,NA,NA,NA,NA,NA,NA,NA,NA,NA,NA,NA,NA,NA,NA,NA,NA,NA,NA,NA,NA,NA,NA,NA,NA,NA,NA,NA,NA,3,0,3,0,1,NA,NA,NA,NA,NA,NA,NA,NA,NA,NA,NA,NA,NA,NA,NA,NA,NA,NA,NA,NA,NA,NA,NA
SUPAMT66564,NA,5358B491-EA93-438C-B70D-D2BB52421F71,2023-09-27_13h52.09.172,WP_VExplicitOC_HL,2022.2.5,Win32,2.500100004,19.79166667,6.036,2.47,NA,NA,NA,NA,NA,happy,"unhappy, happy","less happy, more happy",NA,NA,NA,NA,NA,NA,NA,NA,NA,NA,NA,NA,NA,NA,NA,0,0,0,0,1,NA,NA,NA,NA,NA,NA,NA,NA,NA,NA,NA,NA,NA,NA,NA,NA,NA,NA,NA,NA,NA,NA,NA,NA,NA,NA,NA,NA
SUPAMT66564,NA,5358B491-EA93-438C-B70D-D2BB52421F71,2023-09-27_13h52.09.172,WP_VExplicitOC_HL,2022.2.5,Win32,2.500100004,17.70833333,5.05,2.011,NA,NA,NA,NA,NA,frustrated,"frustrated, not frustrated","more frustrated, less frustrated",NA,NA,NA,NA,NA,NA,NA,NA,NA,NA,NA,NA,NA,NA,NA,0,1,1,1,1,NA,NA,NA,NA,NA,NA,NA,NA,NA,NA,NA,NA,NA,NA,NA,NA,NA,NA,NA,NA,NA,NA,NA,NA,NA,NA,NA,NA
SUPAMT66564,NA,5358B491-EA93-438C-B70D-D2BB52421F71,2023-09-27_13h52.09.172,WP_VExplicitOC_HL,2022.2.5,Win32,2.500100004,19.53125,5.554,2.5,NA,NA,NA,NA,NA,bored,"bored, not bored","more bored, less bored",NA,NA,NA,NA,NA,NA,NA,NA,NA,NA,NA,NA,NA,NA,NA,0,2,2,2,1,NA,NA,NA,NA,NA,NA,NA,NA,NA,NA,NA,NA,NA,NA,NA,NA,NA,NA,NA,NA,NA,NA,NA,NA,NA,NA,NA,NA
SUPAMT66564,NA,5358B491-EA93-438C-B70D-D2BB52421F71,2023-09-27_13h52.09.172,WP_VExplicitOC_HL,2022.2.5,Win32,2.500100004,NA,NA,NA,NA,NA,NA,NA,NA,NA,NA,NA,NA,NA,NA,NA,NA,NA,NA,NA,NA,NA,NA,NA,NA,NA,NA,NA,NA,NA,NA,NA,4,0,4,0,1,NA,NA,NA,NA,NA,NA,NA,NA,NA,NA,NA,NA,NA,NA,NA,NA,NA,NA,NA,NA,NA,NA,NA
SUPAMT66564,NA,5358B491-EA93-438C-B70D-D2BB52421F71,2023-09-27_13h52.09.172,WP_VExplicitOC_HL,2022.2.5,Win32,2.500100004,-15.88541667,6.133,2.477,NA,NA,NA,NA,NA,frustrated,"frustrated, not frustrated","more frustrated, less frustrated",NA,NA,NA,NA,NA,NA,NA,NA,NA,NA,NA,NA,NA,NA,NA,0,0,0,1,1,NA,NA,NA,NA,NA,NA,NA,NA,NA,NA,NA,NA,NA,NA,NA,NA,NA,NA,NA,NA,NA,NA,NA,NA,NA,NA,NA,NA
SUPAMT66564,NA,5358B491-EA93-438C-B70D-D2BB52421F71,2023-09-27_13h52.09.172,WP_VExplicitOC_HL,2022.2.5,Win32,2.500100004,11.19791667,4.547,2.005,NA,NA,NA,NA,NA,happy,"unhappy, happy","less happy, more happy",NA,NA,NA,NA,NA,NA,NA,NA,NA,NA,NA,NA,NA,NA,NA,0,1,1,0,1,NA,NA,NA,NA,NA,NA,NA,NA,NA,NA,NA,NA,NA,NA,NA,NA,NA,NA,NA,NA,NA,NA,NA,NA,NA,NA,NA,NA
SUPAMT66564,NA,5358B491-EA93-438C-B70D-D2BB52421F71,2023-09-27_13h52.09.172,WP_VExplicitOC_HL,2022.2.5,Win32,2.500100004,-19.27083333,6.018,2.469,NA,NA,NA,NA,NA,bored,"bored, not bored","more bored, less bored",NA,NA,NA,NA,NA,NA,NA,NA,NA,NA,NA,NA,NA,NA,NA,0,2,2,2,1,NA,NA,NA,NA,NA,NA,NA,NA,NA,NA,NA,NA,NA,NA,NA,NA,NA,NA,NA,NA,NA,NA,NA,NA,NA,NA,NA,NA
SUPAMT66564,NA,5358B491-EA93-438C-B70D-D2BB52421F71,2023-09-27_13h52.09.172,WP_VExplicitOC_HL,2022.2.5,Win32,2.500100004,NA,NA,NA,NA,NA,NA,NA,NA,NA,NA,NA,NA,NA,NA,NA,NA,NA,NA,NA,NA,NA,NA,NA,NA,NA,NA,NA,NA,NA,NA,NA,5,0,5,0,1,NA,NA,NA,NA,NA,NA,NA,NA,NA,NA,NA,NA,NA,NA,NA,NA,NA,NA,NA,NA,NA,NA,NA
SUPAMT66564,NA,5358B491-EA93-438C-B70D-D2BB52421F71,2023-09-27_13h52.09.172,WP_VExplicitOC_HL,2022.2.5,Win32,2.500100004,NA,NA,2.009,NA,NA,NA,NA,NA,happy,"unhappy, happy","less happy, more happy",NA,NA,NA,NA,NA,NA,NA,NA,NA,NA,NA,NA,NA,NA,NA,0,0,0,0,1,NA,NA,NA,NA,NA,NA,NA,NA,NA,NA,NA,NA,NA,NA,NA,NA,NA,NA,NA,NA,NA,NA,NA,NA,NA,NA,NA,NA
SUPAMT66564,NA,5358B491-EA93-438C-B70D-D2BB52421F71,2023-09-27_13h52.09.172,WP_VExplicitOC_HL,2022.2.5,Win32,2.500100004,-33.33333333,5.584,2.504,NA,NA,NA,NA,NA,frustrated,"frustrated, not frustrated","more frustrated, less frustrated",NA,NA,NA,NA,NA,NA,NA,NA,NA,NA,NA,NA,NA,NA,NA,0,1,1,1,1,NA,NA,NA,NA,NA,NA,NA,NA,NA,NA,NA,NA,NA,NA,NA,NA,NA,NA,NA,NA,NA,NA,NA,NA,NA,NA,NA,NA
SUPAMT66564,NA,5358B491-EA93-438C-B70D-D2BB52421F71,2023-09-27_13h52.09.172,WP_VExplicitOC_HL,2022.2.5,Win32,2.500100004,-26.82291667,5.531,2.483,NA,NA,NA,NA,NA,bored,"bored, not bored","more bored, less bored",NA,NA,NA,NA,NA,NA,NA,NA,NA,NA,NA,NA,NA,NA,NA,0,2,2,2,1,NA,NA,NA,NA,NA,NA,NA,NA,NA,NA,NA,NA,NA,NA,NA,NA,NA,NA,NA,NA,NA,NA,NA,NA,NA,NA,NA,NA
SUPAMT66564,NA,5358B491-EA93-438C-B70D-D2BB52421F71,2023-09-27_13h52.09.172,WP_VExplicitOC_HL,2022.2.5,Win32,2.500100004,NA,NA,NA,NA,NA,NA,NA,NA,NA,NA,NA,NA,NA,NA,NA,NA,NA,NA,NA,NA,NA,NA,NA,NA,NA,NA,NA,NA,NA,NA,NA,6,0,6,0,1,NA,NA,NA,NA,NA,NA,NA,NA,NA,NA,NA,NA,NA,NA,NA,NA,NA,NA,NA,NA,NA,NA,NA
SUPAMT66564,NA,5358B491-EA93-438C-B70D-D2BB52421F71,2023-09-27_13h52.09.172,WP_VExplicitOC_HL,2022.2.5,Win32,2.500100004,NA,NA,2.042,NA,NA,NA,NA,NA,bored,"bored, not bored","more bored, less bored",NA,NA,NA,NA,NA,NA,NA,NA,NA,NA,NA,NA,NA,NA,NA,0,0,0,2,1,NA,NA,NA,NA,NA,NA,NA,NA,NA,NA,NA,NA,NA,NA,NA,NA,NA,NA,NA,NA,NA,NA,NA,NA,NA,NA,NA,NA
SUPAMT66564,NA,5358B491-EA93-438C-B70D-D2BB52421F71,2023-09-27_13h52.09.172,WP_VExplicitOC_HL,2022.2.5,Win32,2.500100004,-26.04166667,5.525,2.495,NA,NA,NA,NA,NA,happy,"unhappy, happy","less happy, more happy",NA,NA,NA,NA,NA,NA,NA,NA,NA,NA,NA,NA,NA,NA,NA,0,1,1,0,1,NA,NA,NA,NA,NA,NA,NA,NA,NA,NA,NA,NA,NA,NA,NA,NA,NA,NA,NA,NA,NA,NA,NA,NA,NA,NA,NA,NA
SUPAMT66564,NA,5358B491-EA93-438C-B70D-D2BB52421F71,2023-09-27_13h52.09.172,WP_VExplicitOC_HL,2022.2.5,Win32,2.500100004,-48.69791667,5.085,2.019,NA,NA,NA,NA,NA,frustrated,"frustrated, not frustrated","more frustrated, less frustrated",NA,NA,NA,NA,NA,NA,NA,NA,NA,NA,NA,NA,NA,NA,NA,0,2,2,1,1,NA,NA,NA,NA,NA,NA,NA,NA,NA,NA,NA,NA,NA,NA,NA,NA,NA,NA,NA,NA,NA,NA,NA,NA,NA,NA,NA,NA
SUPAMT66564,NA,5358B491-EA93-438C-B70D-D2BB52421F71,2023-09-27_13h52.09.172,WP_VExplicitOC_HL,2022.2.5,Win32,2.500100004,NA,NA,NA,NA,NA,NA,NA,NA,NA,NA,NA,NA,NA,NA,NA,NA,NA,NA,NA,NA,NA,NA,NA,NA,NA,NA,NA,NA,NA,NA,NA,7,0,7,0,1,NA,NA,NA,NA,NA,NA,NA,NA,NA,NA,NA,NA,NA,NA,NA,NA,NA,NA,NA,NA,NA,NA,NA
SUPAMT66564,NA,5358B491-EA93-438C-B70D-D2BB52421F71,2023-09-27_13h52.09.172,WP_VExplicitOC_HL,2022.2.5,Win32,2.500100004,-22.65625,6.537,2.462,NA,NA,NA,NA,NA,bored,"bored, not bored","more bored, less bored",NA,NA,NA,NA,NA,NA,NA,NA,NA,NA,NA,NA,NA,NA,NA,0,0,0,2,1,NA,NA,NA,NA,NA,NA,NA,NA,NA,NA,NA,NA,NA,NA,NA,NA,NA,NA,NA,NA,NA,NA,NA,NA,NA,NA,NA,NA
SUPAMT66564,NA,5358B491-EA93-438C-B70D-D2BB52421F71,2023-09-27_13h52.09.172,WP_VExplicitOC_HL,2022.2.5,Win32,2.500100004,NA,NA,2.49,NA,NA,NA,NA,NA,frustrated,"frustrated, not frustrated","more frustrated, less frustrated",NA,NA,NA,NA,NA,NA,NA,NA,NA,NA,NA,NA,NA,NA,NA,0,1,1,1,1,NA,NA,NA,NA,NA,NA,NA,NA,NA,NA,NA,NA,NA,NA,NA,NA,NA,NA,NA,NA,NA,NA,NA,NA,NA,NA,NA,NA
SUPAMT66564,NA,5358B491-EA93-438C-B70D-D2BB52421F71,2023-09-27_13h52.09.172,WP_VExplicitOC_HL,2022.2.5,Win32,2.500100004,-19.27083333,6.046,2.498,NA,NA,NA,NA,NA,happy,"unhappy, happy","less happy, more happy",NA,NA,NA,NA,NA,NA,NA,NA,NA,NA,NA,NA,NA,NA,NA,0,2,2,0,1,NA,NA,NA,NA,NA,NA,NA,NA,NA,NA,NA,NA,NA,NA,NA,NA,NA,NA,NA,NA,NA,NA,NA,NA,NA,NA,NA,NA
SUPAMT66564,NA,5358B491-EA93-438C-B70D-D2BB52421F71,2023-09-27_13h52.09.172,WP_VExplicitOC_HL,2022.2.5,Win32,2.500100004,NA,NA,NA,NA,NA,NA,NA,NA,NA,NA,NA,NA,NA,NA,NA,NA,NA,NA,NA,NA,NA,NA,NA,NA,NA,NA,NA,NA,NA,NA,NA,8,0,8,0,1,NA,NA,NA,NA,NA,NA,NA,NA,NA,NA,NA,NA,NA,NA,NA,NA,NA,NA,NA,NA,NA,NA,NA
SUPAMT66564,NA,5358B491-EA93-438C-B70D-D2BB52421F71,2023-09-27_13h52.09.172,WP_VExplicitOC_HL,2022.2.5,Win32,2.500100004,-24.73958333,6.036,2.482,NA,NA,NA,NA,NA,happy,"unhappy, happy","less happy, more happy",NA,NA,NA,NA,NA,NA,NA,NA,NA,NA,NA,NA,NA,NA,NA,0,0,0,0,1,NA,NA,NA,NA,NA,NA,NA,NA,NA,NA,NA,NA,NA,NA,NA,NA,NA,NA,NA,NA,NA,NA,NA,NA,NA,NA,NA,NA
SUPAMT66564,NA,5358B491-EA93-438C-B70D-D2BB52421F71,2023-09-27_13h52.09.172,WP_VExplicitOC_HL,2022.2.5,Win32,2.500100004,-55.98958333,5.641,2.009,NA,NA,NA,NA,NA,frustrated,"frustrated, not frustrated","more frustrated, less frustrated",NA,NA,NA,NA,NA,NA,NA,NA,NA,NA,NA,NA,NA,NA,NA,0,1,1,1,1,NA,NA,NA,NA,NA,NA,NA,NA,NA,NA,NA,NA,NA,NA,NA,NA,NA,NA,NA,NA,NA,NA,NA,NA,NA,NA,NA,NA
SUPAMT66564,NA,5358B491-EA93-438C-B70D-D2BB52421F71,2023-09-27_13h52.09.172,WP_VExplicitOC_HL,2022.2.5,Win32,2.500100004,-61.97916667,5.065,2.01,NA,NA,NA,NA,NA,bored,"bored, not bored","more bored, less bored",NA,NA,NA,NA,NA,NA,NA,NA,NA,NA,NA,NA,NA,NA,NA,0,2,2,2,1,NA,NA,NA,NA,NA,NA,NA,NA,NA,NA,NA,NA,NA,NA,NA,NA,NA,NA,NA,NA,NA,NA,NA,NA,NA,NA,NA,NA
SUPAMT66564,NA,5358B491-EA93-438C-B70D-D2BB52421F71,2023-09-27_13h52.09.172,WP_VExplicitOC_HL,2022.2.5,Win32,2.500100004,NA,NA,NA,NA,NA,NA,NA,NA,NA,NA,NA,NA,NA,NA,NA,NA,NA,NA,NA,NA,NA,NA,NA,NA,NA,NA,NA,NA,NA,NA,NA,9,0,9,0,1,NA,NA,NA,NA,NA,NA,NA,NA,NA,NA,NA,NA,NA,NA,NA,NA,NA,NA,NA,NA,NA,NA,NA
SUPAMT66564,NA,5358B491-EA93-438C-B70D-D2BB52421F71,2023-09-27_13h52.09.172,WP_VExplicitOC_HL,2022.2.5,Win32,2.500100004,-71.35416667,5.645,2.034,NA,NA,NA,NA,NA,frustrated,"frustrated, not frustrated","more frustrated, less frustrated",NA,NA,NA,NA,NA,NA,NA,NA,NA,NA,NA,NA,NA,NA,NA,0,0,0,1,1,NA,NA,NA,NA,NA,NA,NA,NA,NA,NA,NA,NA,NA,NA,NA,NA,NA,NA,NA,NA,NA,NA,NA,NA,NA,NA,NA,NA
SUPAMT66564,NA,5358B491-EA93-438C-B70D-D2BB52421F71,2023-09-27_13h52.09.172,WP_VExplicitOC_HL,2022.2.5,Win32,2.500100004,-70.05208333,5.04,2.008,NA,NA,NA,NA,NA,bored,"bored, not bored","more bored, less bored",NA,NA,NA,NA,NA,NA,NA,NA,NA,NA,NA,NA,NA,NA,NA,0,1,1,2,1,NA,NA,NA,NA,NA,NA,NA,NA,NA,NA,NA,NA,NA,NA,NA,NA,NA,NA,NA,NA,NA,NA,NA,NA,NA,NA,NA,NA
SUPAMT66564,NA,5358B491-EA93-438C-B70D-D2BB52421F71,2023-09-27_13h52.09.172,WP_VExplicitOC_HL,2022.2.5,Win32,2.500100004,-42.70833333,5.538,2.492,NA,NA,NA,NA,NA,happy,"unhappy, happy","less happy, more happy",NA,NA,NA,NA,NA,NA,NA,NA,NA,NA,NA,NA,NA,NA,NA,0,2,2,0,1,NA,NA,NA,NA,NA,NA,NA,NA,NA,NA,NA,NA,NA,NA,NA,NA,NA,NA,NA,NA,NA,NA,NA,NA,NA,NA,NA,NA
SUPAMT66564,NA,5358B491-EA93-438C-B70D-D2BB52421F71,2023-09-27_13h52.09.172,WP_VExplicitOC_HL,2022.2.5,Win32,2.500100004,NA,NA,NA,NA,NA,NA,NA,NA,NA,NA,NA,NA,NA,NA,NA,NA,NA,NA,NA,NA,NA,NA,NA,NA,NA,NA,NA,NA,NA,NA,NA,10,0,10,0,1,NA,NA,NA,NA,NA,NA,NA,NA,NA,NA,NA,NA,NA,NA,NA,NA,NA,NA,NA,NA,NA,NA,NA
SUPAMT66564,NA,5358B491-EA93-438C-B70D-D2BB52421F71,2023-09-27_13h52.09.172,WP_VExplicitOC_HL,2022.2.5,Win32,2.500100004,-78.125,7.076,2.48,NA,NA,NA,NA,NA,bored,"bored, not bored","more bored, less bored",NA,NA,NA,NA,NA,NA,NA,NA,NA,NA,NA,NA,NA,NA,NA,0,0,0,2,1,NA,NA,NA,NA,NA,NA,NA,NA,NA,NA,NA,NA,NA,NA,NA,NA,NA,NA,NA,NA,NA,NA,NA,NA,NA,NA,NA,NA
SUPAMT66564,NA,5358B491-EA93-438C-B70D-D2BB52421F71,2023-09-27_13h52.09.172,WP_VExplicitOC_HL,2022.2.5,Win32,2.500100004,-84.89583333,6.068,2.503,NA,NA,NA,NA,NA,frustrated,"frustrated, not frustrated","more frustrated, less frustrated",NA,NA,NA,NA,NA,NA,NA,NA,NA,NA,NA,NA,NA,NA,NA,0,1,1,1,1,NA,NA,NA,NA,NA,NA,NA,NA,NA,NA,NA,NA,NA,NA,NA,NA,NA,NA,NA,NA,NA,NA,NA,NA,NA,NA,NA,NA
SUPAMT66564,NA,5358B491-EA93-438C-B70D-D2BB52421F71,2023-09-27_13h52.09.172,WP_VExplicitOC_HL,2022.2.5,Win32,2.500100004,-47.91666667,6.086,2.018,NA,NA,NA,NA,NA,happy,"unhappy, happy","less happy, more happy",NA,NA,NA,NA,NA,NA,NA,NA,NA,NA,NA,NA,NA,NA,NA,0,2,2,0,1,NA,NA,NA,NA,NA,NA,NA,NA,NA,NA,NA,NA,NA,NA,NA,NA,NA,NA,NA,NA,NA,NA,NA,NA,NA,NA,NA,NA
SUPAMT66564,NA,5358B491-EA93-438C-B70D-D2BB52421F71,2023-09-27_13h52.09.172,WP_VExplicitOC_HL,2022.2.5,Win32,2.500100004,NA,NA,NA,NA,NA,NA,NA,NA,NA,NA,NA,NA,NA,NA,NA,NA,NA,NA,NA,NA,NA,NA,NA,NA,NA,NA,NA,NA,NA,NA,NA,11,0,11,0,1,NA,NA,NA,NA,NA,NA,NA,NA,NA,NA,NA,NA,NA,NA,NA,NA,NA,NA,NA,NA,NA,NA,NA
SUPAMT66564,NA,5358B491-EA93-438C-B70D-D2BB52421F71,2023-09-27_13h52.09.172,WP_VExplicitOC_HL,2022.2.5,Win32,2.500100004,-63.80208333,5.512,2.46,NA,NA,NA,NA,NA,happy,"unhappy, happy","less happy, more happy",NA,NA,NA,NA,NA,NA,NA,NA,NA,NA,NA,NA,NA,NA,NA,0,0,0,0,1,NA,NA,NA,NA,NA,NA,NA,NA,NA,NA,NA,NA,NA,NA,NA,NA,NA,NA,NA,NA,NA,NA,NA,NA,NA,NA,NA,NA
SUPAMT66564,NA,5358B491-EA93-438C-B70D-D2BB52421F71,2023-09-27_13h52.09.172,WP_VExplicitOC_HL,2022.2.5,Win32,2.500100004,-97.91666667,5.088,2.024,NA,NA,NA,NA,NA,frustrated,"frustrated, not frustrated","more frustrated, less frustrated",NA,NA,NA,NA,NA,NA,NA,NA,NA,NA,NA,NA,NA,NA,NA,0,1,1,1,1,NA,NA,NA,NA,NA,NA,NA,NA,NA,NA,NA,NA,NA,NA,NA,NA,NA,NA,NA,NA,NA,NA,NA,NA,NA,NA,NA,NA
SUPAMT66564,NA,5358B491-EA93-438C-B70D-D2BB52421F71,2023-09-27_13h52.09.172,WP_VExplicitOC_HL,2022.2.5,Win32,2.500100004,-100,5.061,2.003,NA,NA,NA,NA,NA,bored,"bored, not bored","more bored, less bored",NA,NA,NA,NA,NA,NA,NA,NA,NA,NA,NA,NA,NA,NA,NA,0,2,2,2,1,NA,NA,NA,NA,NA,NA,NA,NA,NA,NA,NA,NA,NA,NA,NA,NA,NA,NA,NA,NA,NA,NA,NA,NA,NA,NA,NA,NA
SUPAMT66564,NA,5358B491-EA93-438C-B70D-D2BB52421F71,2023-09-27_13h52.09.172,WP_VExplicitOC_HL,2022.2.5,Win32,2.500100004,NA,NA,NA,NA,NA,NA,NA,NA,NA,NA,NA,NA,NA,NA,NA,NA,NA,NA,NA,NA,NA,NA,NA,NA,NA,NA,NA,NA,NA,NA,NA,12,0,12,0,1,NA,NA,NA,NA,NA,NA,NA,NA,NA,NA,NA,NA,NA,NA,NA,NA,NA,NA,NA,NA,NA,NA,NA
SUPAMT66564,NA,5358B491-EA93-438C-B70D-D2BB52421F71,2023-09-27_13h52.09.172,WP_VExplicitOC_HL,2022.2.5,Win32,2.500100004,-67.96875,6.532,2.493,NA,NA,NA,NA,NA,happy,"unhappy, happy","less happy, more happy",NA,NA,NA,NA,NA,NA,NA,NA,NA,NA,NA,NA,NA,NA,NA,0,0,0,0,1,NA,NA,NA,NA,NA,NA,NA,NA,NA,NA,NA,NA,NA,NA,NA,NA,NA,NA,NA,NA,NA,NA,NA,NA,NA,NA,NA,NA
SUPAMT66564,NA,5358B491-EA93-438C-B70D-D2BB52421F71,2023-09-27_13h52.09.172,WP_VExplicitOC_HL,2022.2.5,Win32,2.500100004,-83.07291667,7.176,2.037,NA,NA,NA,NA,NA,frustrated,"frustrated, not frustrated","more frustrated, less frustrated",NA,NA,NA,NA,NA,NA,NA,NA,NA,NA,NA,NA,NA,NA,NA,0,1,1,1,1,NA,NA,NA,NA,NA,NA,NA,NA,NA,NA,NA,NA,NA,NA,NA,NA,NA,NA,NA,NA,NA,NA,NA,NA,NA,NA,NA,NA
SUPAMT66564,NA,5358B491-EA93-438C-B70D-D2BB52421F71,2023-09-27_13h52.09.172,WP_VExplicitOC_HL,2022.2.5,Win32,2.500100004,-93.75,5.576,2.506,NA,NA,NA,NA,NA,bored,"bored, not bored","more bored, less bored",NA,NA,NA,NA,NA,NA,NA,NA,NA,NA,NA,NA,NA,NA,NA,0,2,2,2,1,NA,NA,NA,NA,NA,NA,NA,NA,NA,NA,NA,NA,NA,NA,NA,NA,NA,NA,NA,NA,NA,NA,NA,NA,NA,NA,NA,NA
SUPAMT66564,NA,5358B491-EA93-438C-B70D-D2BB52421F71,2023-09-27_13h52.09.172,WP_VExplicitOC_HL,2022.2.5,Win32,2.500100004,NA,NA,NA,NA,NA,NA,NA,NA,NA,NA,NA,NA,NA,NA,NA,NA,NA,NA,NA,NA,NA,NA,NA,NA,NA,NA,NA,NA,NA,NA,NA,13,0,13,0,1,NA,NA,NA,NA,NA,NA,NA,NA,NA,NA,NA,NA,NA,NA,NA,NA,NA,NA,NA,NA,NA,NA,NA
SUPAMT66564,NA,5358B491-EA93-438C-B70D-D2BB52421F71,2023-09-27_13h52.09.172,WP_VExplicitOC_HL,2022.2.5,Win32,2.500100004,-87.23958333,7.576,2.476,NA,NA,NA,NA,NA,frustrated,"frustrated, not frustrated","more frustrated, less frustrated",NA,NA,NA,NA,NA,NA,NA,NA,NA,NA,NA,NA,NA,NA,NA,0,0,0,1,1,NA,NA,NA,NA,NA,NA,NA,NA,NA,NA,NA,NA,NA,NA,NA,NA,NA,NA,NA,NA,NA,NA,NA,NA,NA,NA,NA,NA
SUPAMT66564,NA,5358B491-EA93-438C-B70D-D2BB52421F71,2023-09-27_13h52.09.172,WP_VExplicitOC_HL,2022.2.5,Win32,2.500100004,-63.02083333,5.565,2.018,NA,NA,NA,NA,NA,happy,"unhappy, happy","less happy, more happy",NA,NA,NA,NA,NA,NA,NA,NA,NA,NA,NA,NA,NA,NA,NA,0,1,1,0,1,NA,NA,NA,NA,NA,NA,NA,NA,NA,NA,NA,NA,NA,NA,NA,NA,NA,NA,NA,NA,NA,NA,NA,NA,NA,NA,NA,NA
SUPAMT66564,NA,5358B491-EA93-438C-B70D-D2BB52421F71,2023-09-27_13h52.09.172,WP_VExplicitOC_HL,2022.2.5,Win32,2.500100004,-97.39583333,5.046,2.011,NA,NA,NA,NA,NA,bored,"bored, not bored","more bored, less bored",NA,NA,NA,NA,NA,NA,NA,NA,NA,NA,NA,NA,NA,NA,NA,0,2,2,2,1,NA,NA,NA,NA,NA,NA,NA,NA,NA,NA,NA,NA,NA,NA,NA,NA,NA,NA,NA,NA,NA,NA,NA,NA,NA,NA,NA,NA
SUPAMT66564,NA,5358B491-EA93-438C-B70D-D2BB52421F71,2023-09-27_13h52.09.172,WP_VExplicitOC_HL,2022.2.5,Win32,2.500100004,NA,NA,NA,NA,NA,NA,NA,NA,NA,NA,NA,NA,NA,NA,NA,NA,NA,NA,NA,NA,NA,NA,NA,NA,NA,NA,NA,NA,NA,NA,NA,14,0,14,0,1,NA,NA,NA,NA,NA,NA,NA,NA,NA,NA,NA,NA,NA,NA,NA,NA,NA,NA,NA,NA,NA,NA,NA
SUPAMT66564,NA,5358B491-EA93-438C-B70D-D2BB52421F71,2023-09-27_13h52.09.172,WP_VExplicitOC_HL,2022.2.5,Win32,2.500100004,NA,NA,NA,NA,NA,NA,NA,NA,NA,NA,NA,NA,NA,NA,NA,NA,NA,NA,NA,NA,NA,NA,NA,NA,NA,NA,NA,NA,NA,NA,NA,NA,NA,NA,NA,NA,NA,NA,NA,NA,NA,NA,NA,NA,NA,NA,NA,NA,NA,NA,NA,NA,NA,NA,NA,NA,NA,NA,NA
SUPAMT66564,NA,5358B491-EA93-438C-B70D-D2BB52421F71,2023-09-27_13h52.09.172,WP_VExplicitOC_HL,2022.2.5,Win32,2.500100004,NA,NA,NA,NA,NA,NA,NA,NA,NA,NA,NA,NA,NA,NA,NA,NA,NA,NA,NA,NA,NA,NA,NA,NA,NA,NA,NA,NA,NA,NA,NA,NA,NA,NA,NA,NA,NA,NA,NA,NA,NA,NA,NA,NA,NA,NA,NA,NA,NA,NA,NA,NA,NA,NA,NA,NA,NA,NA,NA
SUPAMT66564,NA,5358B491-EA93-438C-B70D-D2BB52421F71,2023-09-27_13h52.09.172,WP_VExplicitOC_HL,2022.2.5,Win32,2.500100004,NA,NA,NA,NA,NA,NA,NA,NA,NA,NA,NA,NA,NA,NA,NA,NA,NA,NA,rest (looking at a fixed cross),001.png,NA,NA,NA,NA,NA,NA,NA,NA,NA,NA,NA,NA,NA,NA,NA,NA,-60.67708333,5.357,0,0,0,0,1,NA,NA,NA,NA,NA,NA,NA,NA,NA,NA,NA,NA,NA,NA,NA,NA
SUPAMT66564,NA,5358B491-EA93-438C-B70D-D2BB52421F71,2023-09-27_13h52.09.172,WP_VExplicitOC_HL,2022.2.5,Win32,2.500100004,NA,NA,NA,NA,NA,NA,NA,NA,NA,NA,NA,NA,NA,NA,NA,NA,NA,NA,stand up,002.png,NA,NA,NA,NA,NA,NA,NA,NA,NA,NA,NA,NA,NA,NA,NA,NA,-40.36458333,3.699,0,1,1,1,1,NA,NA,NA,NA,NA,NA,NA,NA,NA,NA,NA,NA,NA,NA,NA,NA
SUPAMT66564,NA,5358B491-EA93-438C-B70D-D2BB52421F71,2023-09-27_13h52.09.172,WP_VExplicitOC_HL,2022.2.5,Win32,2.500100004,NA,NA,NA,NA,NA,NA,NA,NA,NA,NA,NA,NA,NA,NA,NA,NA,NA,NA,stretch,003.png,NA,NA,NA,NA,NA,NA,NA,NA,NA,NA,NA,NA,NA,NA,NA,NA,-36.97916667,3.132,0,2,2,2,1,NA,NA,NA,NA,NA,NA,NA,NA,NA,NA,NA,NA,NA,NA,NA,NA
SUPAMT66564,NA,5358B491-EA93-438C-B70D-D2BB52421F71,2023-09-27_13h52.09.172,WP_VExplicitOC_HL,2022.2.5,Win32,2.500100004,NA,NA,NA,NA,NA,NA,NA,NA,NA,NA,NA,NA,NA,NA,NA,NA,NA,NA,make a drink,004.png,NA,NA,NA,NA,NA,NA,NA,NA,NA,NA,NA,NA,NA,NA,NA,NA,-18.22916667,3.675,0,3,3,3,1,NA,NA,NA,NA,NA,NA,NA,NA,NA,NA,NA,NA,NA,NA,NA,NA
SUPAMT66564,NA,5358B491-EA93-438C-B70D-D2BB52421F71,2023-09-27_13h52.09.172,WP_VExplicitOC_HL,2022.2.5,Win32,2.500100004,NA,NA,NA,NA,NA,NA,NA,NA,NA,NA,NA,NA,NA,NA,NA,NA,NA,NA,scroll social media,005.png,NA,NA,NA,NA,NA,NA,NA,NA,NA,NA,NA,NA,NA,NA,NA,NA,23.17708333,3.684,0,4,4,4,1,NA,NA,NA,NA,NA,NA,NA,NA,NA,NA,NA,NA,NA,NA,NA,NA
SUPAMT66564,NA,5358B491-EA93-438C-B70D-D2BB52421F71,2023-09-27_13h52.09.172,WP_VExplicitOC_HL,2022.2.5,Win32,2.500100004,NA,NA,NA,NA,NA,NA,NA,NA,NA,NA,NA,NA,NA,NA,NA,NA,NA,NA,listen to music,006.png,NA,NA,NA,NA,NA,NA,NA,NA,NA,NA,NA,NA,NA,NA,NA,NA,-11.71875,3.182,0,5,5,5,1,NA,NA,NA,NA,NA,NA,NA,NA,NA,NA,NA,NA,NA,NA,NA,NA
SUPAMT66564,NA,5358B491-EA93-438C-B70D-D2BB52421F71,2023-09-27_13h52.09.172,WP_VExplicitOC_HL,2022.2.5,Win32,2.500100004,NA,NA,NA,NA,NA,NA,NA,NA,NA,NA,NA,NA,NA,NA,NA,NA,NA,NA,daydream,007.png,NA,NA,NA,NA,NA,NA,NA,NA,NA,NA,NA,NA,NA,NA,NA,NA,-37.23958333,3.694,0,6,6,6,1,NA,NA,NA,NA,NA,NA,NA,NA,NA,NA,NA,NA,NA,NA,NA,NA
SUPAMT66564,NA,5358B491-EA93-438C-B70D-D2BB52421F71,2023-09-27_13h52.09.172,WP_VExplicitOC_HL,2022.2.5,Win32,2.500100004,NA,NA,NA,NA,NA,NA,NA,NA,NA,NA,NA,NA,NA,NA,NA,NA,NA,NA,watch a short animation,008.png,NA,NA,NA,NA,NA,NA,NA,NA,NA,NA,NA,NA,NA,NA,NA,NA,-31.51041667,3.197,0,7,7,7,1,NA,NA,NA,NA,NA,NA,NA,NA,NA,NA,NA,NA,NA,NA,NA,NA
SUPAMT66564,NA,5358B491-EA93-438C-B70D-D2BB52421F71,2023-09-27_13h52.09.172,WP_VExplicitOC_HL,2022.2.5,Win32,2.500100004,NA,NA,NA,NA,NA,NA,NA,NA,NA,NA,NA,NA,NA,NA,NA,NA,NA,NA,read a novel,009.png,NA,NA,NA,NA,NA,NA,NA,NA,NA,NA,NA,NA,NA,NA,NA,NA,-52.60416667,3.154,0,8,8,8,1,NA,NA,NA,NA,NA,NA,NA,NA,NA,NA,NA,NA,NA,NA,NA,NA
SUPAMT66564,NA,5358B491-EA93-438C-B70D-D2BB52421F71,2023-09-27_13h52.09.172,WP_VExplicitOC_HL,2022.2.5,Win32,2.500100004,NA,NA,NA,NA,NA,NA,NA,NA,NA,NA,NA,NA,NA,NA,NA,NA,NA,NA,read the news,010.png,NA,NA,NA,NA,NA,NA,NA,NA,NA,NA,NA,NA,NA,NA,NA,NA,-38.02083333,3.682,0,9,9,9,1,NA,NA,NA,NA,NA,NA,NA,NA,NA,NA,NA,NA,NA,NA,NA,NA
SUPAMT66564,NA,5358B491-EA93-438C-B70D-D2BB52421F71,2023-09-27_13h52.09.172,WP_VExplicitOC_HL,2022.2.5,Win32,2.500100004,NA,NA,NA,NA,NA,NA,NA,NA,NA,NA,NA,NA,NA,NA,NA,NA,NA,NA,NA,NA,NA,NA,NA,NA,NA,NA,NA,NA,NA,NA,NA,NA,NA,NA,NA,NA,NA,NA,NA,NA,NA,NA,NA,read a novel,NA,NA,NA,NA,NA,NA,NA,NA,NA,NA,NA,NA,NA,NA,NA
SUPAMT66564,NA,5358B491-EA93-438C-B70D-D2BB52421F71,2023-09-27_13h52.09.172,WP_VExplicitOC_HL,2022.2.5,Win32,2.500100004,-11.97916667,7.046,2.475,NA,NA,NA,NA,NA,happy,"unhappy, happy","less happy, more happy",NA,NA,NA,NA,NA,NA,NA,NA,NA,NA,NA,NA,NA,NA,NA,NA,NA,NA,NA,NA,NA,NA,NA,NA,NA,NA,NA,NA,NA,NA,NA,NA,NA,0,0,0,0,1,NA,NA,NA,NA,NA,NA,NA,NA,NA,NA
SUPAMT66564,NA,5358B491-EA93-438C-B70D-D2BB52421F71,2023-09-27_13h52.09.172,WP_VExplicitOC_HL,2022.2.5,Win32,2.500100004,-59.89583333,5.539,2.5,NA,NA,NA,NA,NA,bored,"bored, not bored","more bored, less bored",NA,NA,NA,NA,NA,NA,NA,NA,NA,NA,NA,NA,NA,NA,NA,NA,NA,NA,NA,NA,NA,NA,NA,NA,NA,NA,NA,NA,NA,NA,NA,NA,NA,0,1,1,2,1,NA,NA,NA,NA,NA,NA,NA,NA,NA,NA
SUPAMT66564,NA,5358B491-EA93-438C-B70D-D2BB52421F71,2023-09-27_13h52.09.172,WP_VExplicitOC_HL,2022.2.5,Win32,2.500100004,-56.25,6.627,2.034,NA,NA,NA,NA,NA,frustrated,"frustrated, not frustrated","more frustrated, less frustrated",NA,NA,NA,NA,NA,NA,NA,NA,NA,NA,NA,NA,NA,NA,NA,NA,NA,NA,NA,NA,NA,NA,NA,NA,NA,NA,NA,NA,NA,NA,NA,NA,NA,0,2,2,1,1,NA,NA,NA,NA,NA,NA,NA,NA,NA,NA
SUPAMT66564,NA,5358B491-EA93-438C-B70D-D2BB52421F71,2023-09-27_13h52.09.172,WP_VExplicitOC_HL,2022.2.5,Win32,2.500100004,NA,NA,NA,NA,NA,NA,NA,NA,NA,NA,NA,NA,NA,NA,NA,NA,NA,NA,NA,NA,NA,NA,NA,NA,NA,NA,NA,NA,NA,NA,NA,NA,NA,NA,NA,NA,NA,NA,NA,NA,NA,NA,NA,NA,NA,NA,NA,NA,NA,NA,NA,NA,NA,NA,NA,NA,NA,NA,NA
SUPAMT66564,NA,5358B491-EA93-438C-B70D-D2BB52421F71,2023-09-27_13h52.09.172,WP_VExplicitOC_HL,2022.2.5,Win32,2.500100004,NA,NA,NA,NA,NA,NA,NA,NA,NA,NA,NA,NA,NA,NA,NA,NA,NA,NA,NA,NA,NA,NA,NA,NA,NA,NA,NA,NA,NA,NA,NA,NA,NA,NA,NA,NA,NA,NA,NA,NA,NA,NA,NA,NA,NA,NA,NA,NA,NA,NA,NA,NA,NA,NA,NA,NA,NA,NA,NA
SUPAMT66564,NA,5358B491-EA93-438C-B70D-D2BB52421F71,2023-09-27_13h52.09.172,WP_VExplicitOC_HL,2022.2.5,Win32,2.500100004,-73.95833333,5.559,2.488,NA,NA,NA,NA,NA,frustrated,"frustrated, not frustrated","more frustrated, less frustrated",NA,NA,NA,NA,NA,NA,NA,NA,NA,NA,NA,NA,NA,NA,NA,NA,NA,NA,NA,NA,NA,NA,NA,NA,NA,NA,NA,NA,NA,NA,NA,NA,NA,NA,NA,NA,NA,NA,0,0,0,1,1,NA,NA,NA,NA,NA
SUPAMT66564,NA,5358B491-EA93-438C-B70D-D2BB52421F71,2023-09-27_13h52.09.172,WP_VExplicitOC_HL,2022.2.5,Win32,2.500100004,-41.92708333,6.05,2.004,NA,NA,NA,NA,NA,happy,"unhappy, happy","less happy, more happy",NA,NA,NA,NA,NA,NA,NA,NA,NA,NA,NA,NA,NA,NA,NA,NA,NA,NA,NA,NA,NA,NA,NA,NA,NA,NA,NA,NA,NA,NA,NA,NA,NA,NA,NA,NA,NA,NA,0,1,1,0,1,NA,NA,NA,NA,NA
SUPAMT66564,NA,5358B491-EA93-438C-B70D-D2BB52421F71,2023-09-27_13h52.09.172,WP_VExplicitOC_HL,2022.2.5,Win32,2.500100004,-75.78125,6.556,2.472,NA,NA,NA,NA,NA,bored,"bored, not bored","more bored, less bored",NA,NA,NA,NA,NA,NA,NA,NA,NA,NA,NA,NA,NA,NA,NA,NA,NA,NA,NA,NA,NA,NA,NA,NA,NA,NA,NA,NA,NA,NA,NA,NA,NA,NA,NA,NA,NA,NA,0,2,2,2,1,NA,NA,NA,NA,NA
SUPAMT66564,NA,5358B491-EA93-438C-B70D-D2BB52421F71,2023-09-27_13h52.09.172,WP_VExplicitOC_HL,2022.2.5,Win32,2.500100004,NA,NA,NA,NA,NA,NA,NA,NA,NA,NA,NA,NA,NA,NA,NA,NA,NA,NA,NA,NA,NA,NA,NA,NA,NA,NA,NA,NA,NA,NA,NA,NA,NA,NA,NA,NA,NA,NA,NA,NA,NA,NA,NA,NA,NA,NA,NA,NA,NA,NA,NA,NA,NA,NA,0,0,0,0,1
SUPAMT66564,NA,5358B491-EA93-438C-B70D-D2BB52421F71,2023-09-27_13h52.09.172,WP_VExplicitOC_HL,2022.2.5,Win32,2.500100004,-87.76041667,6.556,2.485,NA,NA,NA,NA,NA,frustrated,"frustrated, not frustrated","more frustrated, less frustrated",NA,NA,NA,NA,NA,NA,NA,NA,NA,NA,NA,NA,NA,NA,NA,NA,NA,NA,NA,NA,NA,NA,NA,NA,NA,NA,NA,NA,NA,NA,NA,NA,NA,NA,NA,NA,NA,NA,0,0,0,1,1,NA,NA,NA,NA,NA
SUPAMT66564,NA,5358B491-EA93-438C-B70D-D2BB52421F71,2023-09-27_13h52.09.172,WP_VExplicitOC_HL,2022.2.5,Win32,2.500100004,-86.97916667,5.543,2.006,NA,NA,NA,NA,NA,bored,"bored, not bored","more bored, less bored",NA,NA,NA,NA,NA,NA,NA,NA,NA,NA,NA,NA,NA,NA,NA,NA,NA,NA,NA,NA,NA,NA,NA,NA,NA,NA,NA,NA,NA,NA,NA,NA,NA,NA,NA,NA,NA,NA,0,1,1,2,1,NA,NA,NA,NA,NA
SUPAMT66564,NA,5358B491-EA93-438C-B70D-D2BB52421F71,2023-09-27_13h52.09.172,WP_VExplicitOC_HL,2022.2.5,Win32,2.500100004,-53.125,5.583,2.046,NA,NA,NA,NA,NA,happy,"unhappy, happy","less happy, more happy",NA,NA,NA,NA,NA,NA,NA,NA,NA,NA,NA,NA,NA,NA,NA,NA,NA,NA,NA,NA,NA,NA,NA,NA,NA,NA,NA,NA,NA,NA,NA,NA,NA,NA,NA,NA,NA,NA,0,2,2,0,1,NA,NA,NA,NA,NA
SUPAMT66564,NA,5358B491-EA93-438C-B70D-D2BB52421F71,2023-09-27_13h52.09.172,WP_VExplicitOC_HL,2022.2.5,Win32,2.500100004,NA,NA,NA,NA,NA,NA,NA,NA,NA,NA,NA,NA,NA,NA,NA,NA,NA,NA,NA,NA,NA,NA,NA,NA,NA,NA,NA,NA,NA,NA,NA,NA,NA,NA,NA,NA,NA,NA,NA,NA,NA,NA,NA,NA,NA,NA,NA,NA,NA,NA,NA,NA,NA,NA,1,0,1,0,1
SUPAMT66564,NA,5358B491-EA93-438C-B70D-D2BB52421F71,2023-09-27_13h52.09.172,WP_VExplicitOC_HL,2022.2.5,Win32,2.500100004,-72.13541667,6.047,2.485,NA,NA,NA,NA,NA,frustrated,"frustrated, not frustrated","more frustrated, less frustrated",NA,NA,NA,NA,NA,NA,NA,NA,NA,NA,NA,NA,NA,NA,NA,NA,NA,NA,NA,NA,NA,NA,NA,NA,NA,NA,NA,NA,NA,NA,NA,NA,NA,NA,NA,NA,NA,NA,0,0,0,1,1,NA,NA,NA,NA,NA
SUPAMT66564,NA,5358B491-EA93-438C-B70D-D2BB52421F71,2023-09-27_13h52.09.172,WP_VExplicitOC_HL,2022.2.5,Win32,2.500100004,-45.83333333,5.525,2.488,NA,NA,NA,NA,NA,happy,"unhappy, happy","less happy, more happy",NA,NA,NA,NA,NA,NA,NA,NA,NA,NA,NA,NA,NA,NA,NA,NA,NA,NA,NA,NA,NA,NA,NA,NA,NA,NA,NA,NA,NA,NA,NA,NA,NA,NA,NA,NA,NA,NA,0,1,1,0,1,NA,NA,NA,NA,NA
SUPAMT66564,NA,5358B491-EA93-438C-B70D-D2BB52421F71,2023-09-27_13h52.09.172,WP_VExplicitOC_HL,2022.2.5,Win32,2.500100004,-79.6875,5.511,2.476,NA,NA,NA,NA,NA,bored,"bored, not bored","more bored, less bored",NA,NA,NA,NA,NA,NA,NA,NA,NA,NA,NA,NA,NA,NA,NA,NA,NA,NA,NA,NA,NA,NA,NA,NA,NA,NA,NA,NA,NA,NA,NA,NA,NA,NA,NA,NA,NA,NA,0,2,2,2,1,NA,NA,NA,NA,NA
SUPAMT66564,NA,5358B491-EA93-438C-B70D-D2BB52421F71,2023-09-27_13h52.09.172,WP_VExplicitOC_HL,2022.2.5,Win32,2.500100004,NA,NA,NA,NA,NA,NA,NA,NA,NA,NA,NA,NA,NA,NA,NA,NA,NA,NA,NA,NA,NA,NA,NA,NA,NA,NA,NA,NA,NA,NA,NA,NA,NA,NA,NA,NA,NA,NA,NA,NA,NA,NA,NA,NA,NA,NA,NA,NA,NA,NA,NA,NA,NA,NA,2,0,2,0,1
SUPAMT66564,NA,5358B491-EA93-438C-B70D-D2BB52421F71,2023-09-27_13h52.09.172,WP_VExplicitOC_HL,2022.2.5,Win32,2.500100004,-46.875,7.492,2.458,NA,NA,NA,NA,NA,happy,"unhappy, happy","less happy, more happy",NA,NA,NA,NA,NA,NA,NA,NA,NA,NA,NA,NA,NA,NA,NA,NA,NA,NA,NA,NA,NA,NA,NA,NA,NA,NA,NA,NA,NA,NA,NA,NA,NA,NA,NA,NA,NA,NA,0,0,0,0,1,NA,NA,NA,NA,NA
SUPAMT66564,NA,5358B491-EA93-438C-B70D-D2BB52421F71,2023-09-27_13h52.09.172,WP_VExplicitOC_HL,2022.2.5,Win32,2.500100004,-69.27083333,6.066,2.503,NA,NA,NA,NA,NA,frustrated,"frustrated, not frustrated","more frustrated, less frustrated",NA,NA,NA,NA,NA,NA,NA,NA,NA,NA,NA,NA,NA,NA,NA,NA,NA,NA,NA,NA,NA,NA,NA,NA,NA,NA,NA,NA,NA,NA,NA,NA,NA,NA,NA,NA,NA,NA,0,1,1,1,1,NA,NA,NA,NA,NA
SUPAMT66564,NA,5358B491-EA93-438C-B70D-D2BB52421F71,2023-09-27_13h52.09.172,WP_VExplicitOC_HL,2022.2.5,Win32,2.500100004,-77.86458333,5.5,2.475,NA,NA,NA,NA,NA,bored,"bored, not bored","more bored, less bored",NA,NA,NA,NA,NA,NA,NA,NA,NA,NA,NA,NA,NA,NA,NA,NA,NA,NA,NA,NA,NA,NA,NA,NA,NA,NA,NA,NA,NA,NA,NA,NA,NA,NA,NA,NA,NA,NA,0,2,2,2,1,NA,NA,NA,NA,NA
SUPAMT66564,NA,5358B491-EA93-438C-B70D-D2BB52421F71,2023-09-27_13h52.09.172,WP_VExplicitOC_HL,2022.2.5,Win32,2.500100004,NA,NA,NA,NA,NA,NA,NA,NA,NA,NA,NA,NA,NA,NA,NA,NA,NA,NA,NA,NA,NA,NA,NA,NA,NA,NA,NA,NA,NA,NA,NA,NA,NA,NA,NA,NA,NA,NA,NA,NA,NA,NA,NA,NA,NA,NA,NA,NA,NA,NA,NA,NA,NA,NA,3,0,3,0,1
SUPAMT66564,NA,5358B491-EA93-438C-B70D-D2BB52421F71,2023-09-27_13h52.09.172,WP_VExplicitOC_HL,2022.2.5,Win32,2.500100004,-59.63541667,6.559,2.493,NA,NA,NA,NA,NA,happy,"unhappy, happy","less happy, more happy",NA,NA,NA,NA,NA,NA,NA,NA,NA,NA,NA,NA,NA,NA,NA,NA,NA,NA,NA,NA,NA,NA,NA,NA,NA,NA,NA,NA,NA,NA,NA,NA,NA,NA,NA,NA,NA,NA,0,0,0,0,1,NA,NA,NA,NA,NA
SUPAMT66564,NA,5358B491-EA93-438C-B70D-D2BB52421F71,2023-09-27_13h52.09.172,WP_VExplicitOC_HL,2022.2.5,Win32,2.500100004,-78.38541667,6.514,2.485,NA,NA,NA,NA,NA,bored,"bored, not bored","more bored, less bored",NA,NA,NA,NA,NA,NA,NA,NA,NA,NA,NA,NA,NA,NA,NA,NA,NA,NA,NA,NA,NA,NA,NA,NA,NA,NA,NA,NA,NA,NA,NA,NA,NA,NA,NA,NA,NA,NA,0,1,1,2,1,NA,NA,NA,NA,NA
SUPAMT66564,NA,5358B491-EA93-438C-B70D-D2BB52421F71,2023-09-27_13h52.09.172,WP_VExplicitOC_HL,2022.2.5,Win32,2.500100004,-81.77083333,5.588,2.004,NA,NA,NA,NA,NA,frustrated,"frustrated, not frustrated","more frustrated, less frustrated",NA,NA,NA,NA,NA,NA,NA,NA,NA,NA,NA,NA,NA,NA,NA,NA,NA,NA,NA,NA,NA,NA,NA,NA,NA,NA,NA,NA,NA,NA,NA,NA,NA,NA,NA,NA,NA,NA,0,2,2,1,1,NA,NA,NA,NA,NA
SUPAMT66564,NA,5358B491-EA93-438C-B70D-D2BB52421F71,2023-09-27_13h52.09.172,WP_VExplicitOC_HL,2022.2.5,Win32,2.500100004,NA,NA,NA,NA,NA,NA,NA,NA,NA,NA,NA,NA,NA,NA,NA,NA,NA,NA,NA,NA,NA,NA,NA,NA,NA,NA,NA,NA,NA,NA,NA,NA,NA,NA,NA,NA,NA,NA,NA,NA,NA,NA,NA,NA,NA,NA,NA,NA,NA,NA,NA,NA,NA,NA,4,0,4,0,1
SUPAMT66564,NA,5358B491-EA93-438C-B70D-D2BB52421F71,2023-09-27_13h52.09.172,WP_VExplicitOC_HL,2022.2.5,Win32,2.500100004,-68.75,5.512,2.482,NA,NA,NA,NA,NA,happy,"unhappy, happy","less happy, more happy",NA,NA,NA,NA,NA,NA,NA,NA,NA,NA,NA,NA,NA,NA,NA,NA,NA,NA,NA,NA,NA,NA,NA,NA,NA,NA,NA,NA,NA,NA,NA,NA,NA,NA,NA,NA,NA,NA,0,0,0,0,1,NA,NA,NA,NA,NA
SUPAMT66564,NA,5358B491-EA93-438C-B70D-D2BB52421F71,2023-09-27_13h52.09.172,WP_VExplicitOC_HL,2022.2.5,Win32,2.500100004,-94.27083333,5.05,2.012,NA,NA,NA,NA,NA,bored,"bored, not bored","more bored, less bored",NA,NA,NA,NA,NA,NA,NA,NA,NA,NA,NA,NA,NA,NA,NA,NA,NA,NA,NA,NA,NA,NA,NA,NA,NA,NA,NA,NA,NA,NA,NA,NA,NA,NA,NA,NA,NA,NA,0,1,1,2,1,NA,NA,NA,NA,NA
SUPAMT66564,NA,5358B491-EA93-438C-B70D-D2BB52421F71,2023-09-27_13h52.09.172,WP_VExplicitOC_HL,2022.2.5,Win32,2.500100004,-96.61458333,5.138,2.001,NA,NA,NA,NA,NA,frustrated,"frustrated, not frustrated","more frustrated, less frustrated",NA,NA,NA,NA,NA,NA,NA,NA,NA,NA,NA,NA,NA,NA,NA,NA,NA,NA,NA,NA,NA,NA,NA,NA,NA,NA,NA,NA,NA,NA,NA,NA,NA,NA,NA,NA,NA,NA,0,2,2,1,1,NA,NA,NA,NA,NA
SUPAMT66564,NA,5358B491-EA93-438C-B70D-D2BB52421F71,2023-09-27_13h52.09.172,WP_VExplicitOC_HL,2022.2.5,Win32,2.500100004,NA,NA,NA,NA,NA,NA,NA,NA,NA,NA,NA,NA,NA,NA,NA,NA,NA,NA,NA,NA,NA,NA,NA,NA,NA,NA,NA,NA,NA,NA,NA,NA,NA,NA,NA,NA,NA,NA,NA,NA,NA,NA,NA,NA,NA,NA,NA,NA,NA,NA,NA,NA,NA,NA,5,0,5,0,1
SUPAMT66564,NA,5358B491-EA93-438C-B70D-D2BB52421F71,2023-09-27_13h52.09.172,WP_VExplicitOC_HL,2022.2.5,Win32,2.500100004,-100,6.08,2.039,NA,NA,NA,NA,NA,bored,"bored, not bored","more bored, less bored",NA,NA,NA,NA,NA,NA,NA,NA,NA,NA,NA,NA,NA,NA,NA,NA,NA,NA,NA,NA,NA,NA,NA,NA,NA,NA,NA,NA,NA,NA,NA,NA,NA,NA,NA,NA,NA,NA,0,0,0,2,1,NA,NA,NA,NA,NA
SUPAMT66564,NA,5358B491-EA93-438C-B70D-D2BB52421F71,2023-09-27_13h52.09.172,WP_VExplicitOC_HL,2022.2.5,Win32,2.500100004,-97.39583333,6.042,2.48,NA,NA,NA,NA,NA,frustrated,"frustrated, not frustrated","more frustrated, less frustrated",NA,NA,NA,NA,NA,NA,NA,NA,NA,NA,NA,NA,NA,NA,NA,NA,NA,NA,NA,NA,NA,NA,NA,NA,NA,NA,NA,NA,NA,NA,NA,NA,NA,NA,NA,NA,NA,NA,0,1,1,1,1,NA,NA,NA,NA,NA
SUPAMT66564,NA,5358B491-EA93-438C-B70D-D2BB52421F71,2023-09-27_13h52.09.172,WP_VExplicitOC_HL,2022.2.5,Win32,2.500100004,-81.51041667,6.01,2.478,NA,NA,NA,NA,NA,happy,"unhappy, happy","less happy, more happy",NA,NA,NA,NA,NA,NA,NA,NA,NA,NA,NA,NA,NA,NA,NA,NA,NA,NA,NA,NA,NA,NA,NA,NA,NA,NA,NA,NA,NA,NA,NA,NA,NA,NA,NA,NA,NA,NA,0,2,2,0,1,NA,NA,NA,NA,NA
SUPAMT66564,NA,5358B491-EA93-438C-B70D-D2BB52421F71,2023-09-27_13h52.09.172,WP_VExplicitOC_HL,2022.2.5,Win32,2.500100004,NA,NA,NA,NA,NA,NA,NA,NA,NA,NA,NA,NA,NA,NA,NA,NA,NA,NA,NA,NA,NA,NA,NA,NA,NA,NA,NA,NA,NA,NA,NA,NA,NA,NA,NA,NA,NA,NA,NA,NA,NA,NA,NA,NA,NA,NA,NA,NA,NA,NA,NA,NA,NA,NA,6,0,6,0,1
SUPAMT66564,NA,5358B491-EA93-438C-B70D-D2BB52421F71,2023-09-27_13h52.09.172,WP_VExplicitOC_HL,2022.2.5,Win32,2.500100004,-93.75,6.01,2.453,NA,NA,NA,NA,NA,bored,"bored, not bored","more bored, less bored",NA,NA,NA,NA,NA,NA,NA,NA,NA,NA,NA,NA,NA,NA,NA,NA,NA,NA,NA,NA,NA,NA,NA,NA,NA,NA,NA,NA,NA,NA,NA,NA,NA,NA,NA,NA,NA,NA,0,0,0,2,1,NA,NA,NA,NA,NA
SUPAMT66564,NA,5358B491-EA93-438C-B70D-D2BB52421F71,2023-09-27_13h52.09.172,WP_VExplicitOC_HL,2022.2.5,Win32,2.500100004,-95.83333333,6.052,2.488,NA,NA,NA,NA,NA,frustrated,"frustrated, not frustrated","more frustrated, less frustrated",NA,NA,NA,NA,NA,NA,NA,NA,NA,NA,NA,NA,NA,NA,NA,NA,NA,NA,NA,NA,NA,NA,NA,NA,NA,NA,NA,NA,NA,NA,NA,NA,NA,NA,NA,NA,NA,NA,0,1,1,1,1,NA,NA,NA,NA,NA
SUPAMT66564,NA,5358B491-EA93-438C-B70D-D2BB52421F71,2023-09-27_13h52.09.172,WP_VExplicitOC_HL,2022.2.5,Win32,2.500100004,-90.10416667,6.023,2.479,NA,NA,NA,NA,NA,happy,"unhappy, happy","less happy, more happy",NA,NA,NA,NA,NA,NA,NA,NA,NA,NA,NA,NA,NA,NA,NA,NA,NA,NA,NA,NA,NA,NA,NA,NA,NA,NA,NA,NA,NA,NA,NA,NA,NA,NA,NA,NA,NA,NA,0,2,2,0,1,NA,NA,NA,NA,NA
SUPAMT66564,NA,5358B491-EA93-438C-B70D-D2BB52421F71,2023-09-27_13h52.09.172,WP_VExplicitOC_HL,2022.2.5,Win32,2.500100004,NA,NA,NA,NA,NA,NA,NA,NA,NA,NA,NA,NA,NA,NA,NA,NA,NA,NA,NA,NA,NA,NA,NA,NA,NA,NA,NA,NA,NA,NA,NA,NA,NA,NA,NA,NA,NA,NA,NA,NA,NA,NA,NA,NA,NA,NA,NA,NA,NA,NA,NA,NA,NA,NA,7,0,7,0,1
SUPAMT66564,NA,5358B491-EA93-438C-B70D-D2BB52421F71,2023-09-27_13h52.09.172,WP_VExplicitOC_HL,2022.2.5,Win32,2.500100004,-98.17708333,6.061,2.476,NA,NA,NA,NA,NA,frustrated,"frustrated, not frustrated","more frustrated, less frustrated",NA,NA,NA,NA,NA,NA,NA,NA,NA,NA,NA,NA,NA,NA,NA,NA,NA,NA,NA,NA,NA,NA,NA,NA,NA,NA,NA,NA,NA,NA,NA,NA,NA,NA,NA,NA,NA,NA,0,0,0,1,1,NA,NA,NA,NA,NA
SUPAMT66564,NA,5358B491-EA93-438C-B70D-D2BB52421F71,2023-09-27_13h52.09.172,WP_VExplicitOC_HL,2022.2.5,Win32,2.500100004,-83.07291667,6.025,2.485,NA,NA,NA,NA,NA,happy,"unhappy, happy","less happy, more happy",NA,NA,NA,NA,NA,NA,NA,NA,NA,NA,NA,NA,NA,NA,NA,NA,NA,NA,NA,NA,NA,NA,NA,NA,NA,NA,NA,NA,NA,NA,NA,NA,NA,NA,NA,NA,NA,NA,0,1,1,0,1,NA,NA,NA,NA,NA
SUPAMT66564,NA,5358B491-EA93-438C-B70D-D2BB52421F71,2023-09-27_13h52.09.172,WP_VExplicitOC_HL,2022.2.5,Win32,2.500100004,-96.875,6.071,2.031,NA,NA,NA,NA,NA,bored,"bored, not bored","more bored, less bored",NA,NA,NA,NA,NA,NA,NA,NA,NA,NA,NA,NA,NA,NA,NA,NA,NA,NA,NA,NA,NA,NA,NA,NA,NA,NA,NA,NA,NA,NA,NA,NA,NA,NA,NA,NA,NA,NA,0,2,2,2,1,NA,NA,NA,NA,NA
SUPAMT66564,NA,5358B491-EA93-438C-B70D-D2BB52421F71,2023-09-27_13h52.09.172,WP_VExplicitOC_HL,2022.2.5,Win32,2.500100004,NA,NA,NA,NA,NA,NA,NA,NA,NA,NA,NA,NA,NA,NA,NA,NA,NA,NA,NA,NA,NA,NA,NA,NA,NA,NA,NA,NA,NA,NA,NA,NA,NA,NA,NA,NA,NA,NA,NA,NA,NA,NA,NA,NA,NA,NA,NA,NA,NA,NA,NA,NA,NA,NA,8,0,8,0,1
SUPAMT66564,NA,5358B491-EA93-438C-B70D-D2BB52421F71,2023-09-27_13h52.09.172,WP_VExplicitOC_HL,2022.2.5,Win32,2.500100004,-98.95833333,6.034,2.463,NA,NA,NA,NA,NA,frustrated,"frustrated, not frustrated","more frustrated, less frustrated",NA,NA,NA,NA,NA,NA,NA,NA,NA,NA,NA,NA,NA,NA,NA,NA,NA,NA,NA,NA,NA,NA,NA,NA,NA,NA,NA,NA,NA,NA,NA,NA,NA,NA,NA,NA,NA,NA,0,0,0,1,1,NA,NA,NA,NA,NA
SUPAMT66564,NA,5358B491-EA93-438C-B70D-D2BB52421F71,2023-09-27_13h52.09.172,WP_VExplicitOC_HL,2022.2.5,Win32,2.500100004,-99.21875,5.591,2.022,NA,NA,NA,NA,NA,bored,"bored, not bored","more bored, less bored",NA,NA,NA,NA,NA,NA,NA,NA,NA,NA,NA,NA,NA,NA,NA,NA,NA,NA,NA,NA,NA,NA,NA,NA,NA,NA,NA,NA,NA,NA,NA,NA,NA,NA,NA,NA,NA,NA,0,1,1,2,1,NA,NA,NA,NA,NA
SUPAMT66564,NA,5358B491-EA93-438C-B70D-D2BB52421F71,2023-09-27_13h52.09.172,WP_VExplicitOC_HL,2022.2.5,Win32,2.500100004,-88.80208333,5.559,2.008,NA,NA,NA,NA,NA,happy,"unhappy, happy","less happy, more happy",NA,NA,NA,NA,NA,NA,NA,NA,NA,NA,NA,NA,NA,NA,NA,NA,NA,NA,NA,NA,NA,NA,NA,NA,NA,NA,NA,NA,NA,NA,NA,NA,NA,NA,NA,NA,NA,NA,0,2,2,0,1,NA,NA,NA,NA,NA
SUPAMT66564,NA,5358B491-EA93-438C-B70D-D2BB52421F71,2023-09-27_13h52.09.172,WP_VExplicitOC_HL,2022.2.5,Win32,2.500100004,NA,NA,NA,NA,NA,NA,NA,NA,NA,NA,NA,NA,NA,NA,NA,NA,NA,NA,NA,NA,NA,NA,NA,NA,NA,NA,NA,NA,NA,NA,NA,NA,NA,NA,NA,NA,NA,NA,NA,NA,NA,NA,NA,NA,NA,NA,NA,NA,NA,NA,NA,NA,NA,NA,9,0,9,0,1
SUPAMT66564,NA,5358B491-EA93-438C-B70D-D2BB52421F71,2023-09-27_13h52.09.172,WP_VExplicitOC_HL,2022.2.5,Win32,2.500100004,-78.38541667,6.042,2.484,NA,NA,NA,NA,NA,happy,"unhappy, happy","less happy, more happy",NA,NA,NA,NA,NA,NA,NA,NA,NA,NA,NA,NA,NA,NA,NA,NA,NA,NA,NA,NA,NA,NA,NA,NA,NA,NA,NA,NA,NA,NA,NA,NA,NA,NA,NA,NA,NA,NA,0,0,0,0,1,NA,NA,NA,NA,NA
SUPAMT66564,NA,5358B491-EA93-438C-B70D-D2BB52421F71,2023-09-27_13h52.09.172,WP_VExplicitOC_HL,2022.2.5,Win32,2.500100004,-96.09375,5.593,2.022,NA,NA,NA,NA,NA,bored,"bored, not bored","more bored, less bored",NA,NA,NA,NA,NA,NA,NA,NA,NA,NA,NA,NA,NA,NA,NA,NA,NA,NA,NA,NA,NA,NA,NA,NA,NA,NA,NA,NA,NA,NA,NA,NA,NA,NA,NA,NA,NA,NA,0,1,1,2,1,NA,NA,NA,NA,NA
SUPAMT66564,NA,5358B491-EA93-438C-B70D-D2BB52421F71,2023-09-27_13h52.09.172,WP_VExplicitOC_HL,2022.2.5,Win32,2.500100004,-98.4375,5.1,2.018,NA,NA,NA,NA,NA,frustrated,"frustrated, not frustrated","more frustrated, less frustrated",NA,NA,NA,NA,NA,NA,NA,NA,NA,NA,NA,NA,NA,NA,NA,NA,NA,NA,NA,NA,NA,NA,NA,NA,NA,NA,NA,NA,NA,NA,NA,NA,NA,NA,NA,NA,NA,NA,0,2,2,1,1,NA,NA,NA,NA,NA
SUPAMT66564,NA,5358B491-EA93-438C-B70D-D2BB52421F71,2023-09-27_13h52.09.172,WP_VExplicitOC_HL,2022.2.5,Win32,2.500100004,NA,NA,NA,NA,NA,NA,NA,NA,NA,NA,NA,NA,NA,NA,NA,NA,NA,NA,NA,NA,NA,NA,NA,NA,NA,NA,NA,NA,NA,NA,NA,NA,NA,NA,NA,NA,NA,NA,NA,NA,NA,NA,NA,NA,NA,NA,NA,NA,NA,NA,NA,NA,NA,NA,10,0,10,0,1
SUPAMT66564,NA,5358B491-EA93-438C-B70D-D2BB52421F71,2023-09-27_13h52.09.172,WP_VExplicitOC_HL,2022.2.5,Win32,2.500100004,-79.6875,6.049,2.49,NA,NA,NA,NA,NA,happy,"unhappy, happy","less happy, more happy",NA,NA,NA,NA,NA,NA,NA,NA,NA,NA,NA,NA,NA,NA,NA,NA,NA,NA,NA,NA,NA,NA,NA,NA,NA,NA,NA,NA,NA,NA,NA,NA,NA,NA,NA,NA,NA,NA,0,0,0,0,1,NA,NA,NA,NA,NA
SUPAMT66564,NA,5358B491-EA93-438C-B70D-D2BB52421F71,2023-09-27_13h52.09.172,WP_VExplicitOC_HL,2022.2.5,Win32,2.500100004,-99.73958333,6.031,2.488,NA,NA,NA,NA,NA,bored,"bored, not bored","more bored, less bored",NA,NA,NA,NA,NA,NA,NA,NA,NA,NA,NA,NA,NA,NA,NA,NA,NA,NA,NA,NA,NA,NA,NA,NA,NA,NA,NA,NA,NA,NA,NA,NA,NA,NA,NA,NA,NA,NA,0,1,1,2,1,NA,NA,NA,NA,NA
SUPAMT66564,NA,5358B491-EA93-438C-B70D-D2BB52421F71,2023-09-27_13h52.09.172,WP_VExplicitOC_HL,2022.2.5,Win32,2.500100004,-98.4375,5.567,2.007,NA,NA,NA,NA,NA,frustrated,"frustrated, not frustrated","more frustrated, less frustrated",NA,NA,NA,NA,NA,NA,NA,NA,NA,NA,NA,NA,NA,NA,NA,NA,NA,NA,NA,NA,NA,NA,NA,NA,NA,NA,NA,NA,NA,NA,NA,NA,NA,NA,NA,NA,NA,NA,0,2,2,1,1,NA,NA,NA,NA,NA
SUPAMT66564,NA,5358B491-EA93-438C-B70D-D2BB52421F71,2023-09-27_13h52.09.172,WP_VExplicitOC_HL,2022.2.5,Win32,2.500100004,NA,NA,NA,NA,NA,NA,NA,NA,NA,NA,NA,NA,NA,NA,NA,NA,NA,NA,NA,NA,NA,NA,NA,NA,NA,NA,NA,NA,NA,NA,NA,NA,NA,NA,NA,NA,NA,NA,NA,NA,NA,NA,NA,NA,NA,NA,NA,NA,NA,NA,NA,NA,NA,NA,11,0,11,0,1
SUPAMT66564,NA,5358B491-EA93-438C-B70D-D2BB52421F71,2023-09-27_13h52.09.172,WP_VExplicitOC_HL,2022.2.5,Win32,2.500100004,-93.48958333,7.061,2.475,NA,NA,NA,NA,NA,bored,"bored, not bored","more bored, less bored",NA,NA,NA,NA,NA,NA,NA,NA,NA,NA,NA,NA,NA,NA,NA,NA,NA,NA,NA,NA,NA,NA,NA,NA,NA,NA,NA,NA,NA,NA,NA,NA,NA,NA,NA,NA,NA,NA,0,0,0,2,1,NA,NA,NA,NA,NA
SUPAMT66564,NA,5358B491-EA93-438C-B70D-D2BB52421F71,2023-09-27_13h52.09.172,WP_VExplicitOC_HL,2022.2.5,Win32,2.500100004,-81.77083333,6.56,2.482,NA,NA,NA,NA,NA,happy,"unhappy, happy","less happy, more happy",NA,NA,NA,NA,NA,NA,NA,NA,NA,NA,NA,NA,NA,NA,NA,NA,NA,NA,NA,NA,NA,NA,NA,NA,NA,NA,NA,NA,NA,NA,NA,NA,NA,NA,NA,NA,NA,NA,0,1,1,0,1,NA,NA,NA,NA,NA
SUPAMT66564,NA,5358B491-EA93-438C-B70D-D2BB52421F71,2023-09-27_13h52.09.172,WP_VExplicitOC_HL,2022.2.5,Win32,2.500100004,-97.65625,6.569,2.482,NA,NA,NA,NA,NA,frustrated,"frustrated, not frustrated","more frustrated, less frustrated",NA,NA,NA,NA,NA,NA,NA,NA,NA,NA,NA,NA,NA,NA,NA,NA,NA,NA,NA,NA,NA,NA,NA,NA,NA,NA,NA,NA,NA,NA,NA,NA,NA,NA,NA,NA,NA,NA,0,2,2,1,1,NA,NA,NA,NA,NA
SUPAMT66564,NA,5358B491-EA93-438C-B70D-D2BB52421F71,2023-09-27_13h52.09.172,WP_VExplicitOC_HL,2022.2.5,Win32,2.500100004,NA,NA,NA,NA,NA,NA,NA,NA,NA,NA,NA,NA,NA,NA,NA,NA,NA,NA,NA,NA,NA,NA,NA,NA,NA,NA,NA,NA,NA,NA,NA,NA,NA,NA,NA,NA,NA,NA,NA,NA,NA,NA,NA,NA,NA,NA,NA,NA,NA,NA,NA,NA,NA,NA,12,0,12,0,1
SUPAMT66564,NA,5358B491-EA93-438C-B70D-D2BB52421F71,2023-09-27_13h52.09.172,WP_VExplicitOC_HL,2022.2.5,Win32,2.500100004,-93.75,6.545,2.463,NA,NA,NA,NA,NA,bored,"bored, not bored","more bored, less bored",NA,NA,NA,NA,NA,NA,NA,NA,NA,NA,NA,NA,NA,NA,NA,NA,NA,NA,NA,NA,NA,NA,NA,NA,NA,NA,NA,NA,NA,NA,NA,NA,NA,NA,NA,NA,NA,NA,0,0,0,2,1,NA,NA,NA,NA,NA
SUPAMT66564,NA,5358B491-EA93-438C-B70D-D2BB52421F71,2023-09-27_13h52.09.172,WP_VExplicitOC_HL,2022.2.5,Win32,2.500100004,-86.97916667,6.089,2.001,NA,NA,NA,NA,NA,happy,"unhappy, happy","less happy, more happy",NA,NA,NA,NA,NA,NA,NA,NA,NA,NA,NA,NA,NA,NA,NA,NA,NA,NA,NA,NA,NA,NA,NA,NA,NA,NA,NA,NA,NA,NA,NA,NA,NA,NA,NA,NA,NA,NA,0,1,1,0,1,NA,NA,NA,NA,NA
SUPAMT66564,NA,5358B491-EA93-438C-B70D-D2BB52421F71,2023-09-27_13h52.09.172,WP_VExplicitOC_HL,2022.2.5,Win32,2.500100004,-100,5.601,2.028,NA,NA,NA,NA,NA,frustrated,"frustrated, not frustrated","more frustrated, less frustrated",NA,NA,NA,NA,NA,NA,NA,NA,NA,NA,NA,NA,NA,NA,NA,NA,NA,NA,NA,NA,NA,NA,NA,NA,NA,NA,NA,NA,NA,NA,NA,NA,NA,NA,NA,NA,NA,NA,0,2,2,1,1,NA,NA,NA,NA,NA
SUPAMT66564,NA,5358B491-EA93-438C-B70D-D2BB52421F71,2023-09-27_13h52.09.172,WP_VExplicitOC_HL,2022.2.5,Win32,2.500100004,NA,NA,NA,NA,NA,NA,NA,NA,NA,NA,NA,NA,NA,NA,NA,NA,NA,NA,NA,NA,NA,NA,NA,NA,NA,NA,NA,NA,NA,NA,NA,NA,NA,NA,NA,NA,NA,NA,NA,NA,NA,NA,NA,NA,NA,NA,NA,NA,NA,NA,NA,NA,NA,NA,13,0,13,0,1
SUPAMT66564,NA,5358B491-EA93-438C-B70D-D2BB52421F71,2023-09-27_13h52.09.172,WP_VExplicitOC_HL,2022.2.5,Win32,2.500100004,-98.4375,6.167,2.543,NA,NA,NA,NA,NA,bored,"bored, not bored","more bored, less bored",NA,NA,NA,NA,NA,NA,NA,NA,NA,NA,NA,NA,NA,NA,NA,NA,NA,NA,NA,NA,NA,NA,NA,NA,NA,NA,NA,NA,NA,NA,NA,NA,NA,NA,NA,NA,NA,NA,0,0,0,2,1,NA,NA,NA,NA,NA
SUPAMT66564,NA,5358B491-EA93-438C-B70D-D2BB52421F71,2023-09-27_13h52.09.172,WP_VExplicitOC_HL,2022.2.5,Win32,2.500100004,-100,5.639,2.024,NA,NA,NA,NA,NA,frustrated,"frustrated, not frustrated","more frustrated, less frustrated",NA,NA,NA,NA,NA,NA,NA,NA,NA,NA,NA,NA,NA,NA,NA,NA,NA,NA,NA,NA,NA,NA,NA,NA,NA,NA,NA,NA,NA,NA,NA,NA,NA,NA,NA,NA,NA,NA,0,1,1,1,1,NA,NA,NA,NA,NA
SUPAMT66564,NA,5358B491-EA93-438C-B70D-D2BB52421F71,2023-09-27_13h52.09.172,WP_VExplicitOC_HL,2022.2.5,Win32,2.500100004,-91.92708333,6.047,2.475,NA,NA,NA,NA,NA,happy,"unhappy, happy","less happy, more happy",NA,NA,NA,NA,NA,NA,NA,NA,NA,NA,NA,NA,NA,NA,NA,NA,NA,NA,NA,NA,NA,NA,NA,NA,NA,NA,NA,NA,NA,NA,NA,NA,NA,NA,NA,NA,NA,NA,0,2,2,0,1,NA,NA,NA,NA,NA
SUPAMT66564,NA,5358B491-EA93-438C-B70D-D2BB52421F71,2023-09-27_13h52.09.172,WP_VExplicitOC_HL,2022.2.5,Win32,2.500100004,NA,NA,NA,NA,NA,NA,NA,NA,NA,NA,NA,NA,NA,NA,NA,NA,NA,NA,NA,NA,NA,NA,NA,NA,NA,NA,NA,NA,NA,NA,NA,NA,NA,NA,NA,NA,NA,NA,NA,NA,NA,NA,NA,NA,NA,NA,NA,NA,NA,NA,NA,NA,NA,NA,14,0,14,0,1
SUPAMT66564,NA,5358B491-EA93-438C-B70D-D2BB52421F71,2023-09-27_13h52.09.172,WP_VExplicitOC_HL,2022.2.5,Win32,2.500100004,NA,NA,NA,NA,NA,NA,NA,NA,NA,NA,NA,NA,NA,NA,NA,NA,NA,NA,NA,NA,NA,NA,NA,NA,NA,NA,NA,NA,NA,NA,NA,NA,NA,NA,NA,NA,NA,NA,NA,NA,NA,NA,NA,NA,NA,NA,NA,NA,NA,NA,NA,NA,NA,NA,NA,NA,NA,NA,NA
