participant,session,completion,date,expName,psychopyVersion,OS,frameRate,rating_all.response,rating_all.rt,rating_all.tStart,rndRat1.thisRepN,rndRat1.thisTrialN,rndRat1.thisN,rndRat1.thisIndex,rndRat1.ran,Emo,Labs,Labs2,rating_alt.response,rating_alt.rt,AltC.thisRepN,AltC.thisTrialN,AltC.thisN,AltC.thisIndex,AltC.ran,alt_choices,pic_choices,TopAlt_Choice,rndRat2.thisRepN,rndRat2.thisTrialN,rndRat2.thisN,rndRat2.thisIndex,rndRat2.ran,rndRat3.thisRepN,rndRat3.thisTrialN,rndRat3.thisN,rndRat3.thisIndex,rndRat3.ran,trials_FC_H.thisRepN,trials_FC_H.thisTrialN,trials_FC_H.thisN,trials_FC_H.thisIndex,trials_FC_H.ran,rating_alt_2.response,rating_alt_2.rt,AltC2.thisRepN,AltC2.thisTrialN,AltC2.thisN,AltC2.thisIndex,AltC2.ran,BottomAlt_Choice,rndRat4.thisRepN,rndRat4.thisTrialN,rndRat4.thisN,rndRat4.thisIndex,rndRat4.ran,rndRat5.thisRepN,rndRat5.thisTrialN,rndRat5.thisN,rndRat5.thisIndex,rndRat5.ran,trials_FC_L.thisRepN,trials_FC_L.thisTrialN,trials_FC_L.thisN,trials_FC_L.thisIndex,trials_FC_L.ran
SUPAMT04571,3LKC68YZ3G2SUENNDPRANVX2T52OWT,3A3C8882-AAD8-46C6-ADC3-6C10A3B3C700,2023-09-28_14h03.15.613,WP_VExplicitOC_HL,2022.2.5,Win32,16.12539104,NA,NA,NA,NA,NA,NA,NA,NA,NA,NA,NA,NA,NA,NA,NA,NA,NA,NA,NA,NA,NA,NA,NA,NA,NA,NA,NA,NA,NA,NA,NA,NA,NA,NA,NA,NA,NA,NA,NA,NA,NA,NA,NA,NA,NA,NA,NA,NA,NA,NA,NA,NA,NA,NA,NA,NA,NA,NA,NA
SUPAMT04571,3LKC68YZ3G2SUENNDPRANVX2T52OWT,3A3C8882-AAD8-46C6-ADC3-6C10A3B3C700,2023-09-28_14h03.15.613,WP_VExplicitOC_HL,2022.2.5,Win32,16.12539104,NA,NA,NA,NA,NA,NA,NA,NA,NA,NA,NA,NA,NA,NA,NA,NA,NA,NA,NA,NA,NA,NA,NA,NA,NA,NA,NA,NA,NA,NA,NA,NA,NA,NA,NA,NA,NA,NA,NA,NA,NA,NA,NA,NA,NA,NA,NA,NA,NA,NA,NA,NA,NA,NA,NA,NA,NA,NA,NA
SUPAMT04571,3LKC68YZ3G2SUENNDPRANVX2T52OWT,3A3C8882-AAD8-46C6-ADC3-6C10A3B3C700,2023-09-28_14h03.15.613,WP_VExplicitOC_HL,2022.2.5,Win32,16.12539104,NA,NA,NA,NA,NA,NA,NA,NA,NA,NA,NA,NA,NA,NA,NA,NA,NA,NA,NA,NA,NA,NA,NA,NA,NA,NA,NA,NA,NA,NA,NA,NA,NA,NA,NA,NA,NA,NA,NA,NA,NA,NA,NA,NA,NA,NA,NA,NA,NA,NA,NA,NA,NA,NA,NA,NA,NA,NA,NA
SUPAMT04571,3LKC68YZ3G2SUENNDPRANVX2T52OWT,3A3C8882-AAD8-46C6-ADC3-6C10A3B3C700,2023-09-28_14h03.15.613,WP_VExplicitOC_HL,2022.2.5,Win32,16.12539104,NA,NA,2.0197,0,0,0,1,1,frustrated,"frustrated, not frustrated","more frustrated, less frustrated",NA,NA,NA,NA,NA,NA,NA,NA,NA,NA,NA,NA,NA,NA,NA,NA,NA,NA,NA,NA,NA,NA,NA,NA,NA,NA,NA,NA,NA,NA,NA,NA,NA,NA,NA,NA,NA,NA,NA,NA,NA,NA,NA,NA,NA,NA,NA,NA
SUPAMT04571,3LKC68YZ3G2SUENNDPRANVX2T52OWT,3A3C8882-AAD8-46C6-ADC3-6C10A3B3C700,2023-09-28_14h03.15.613,WP_VExplicitOC_HL,2022.2.5,Win32,16.12539104,85.9375,4.8675,2.0766,0,1,1,2,1,bored,"bored, not bored","more bored, less bored",NA,NA,NA,NA,NA,NA,NA,NA,NA,NA,NA,NA,NA,NA,NA,NA,NA,NA,NA,NA,NA,NA,NA,NA,NA,NA,NA,NA,NA,NA,NA,NA,NA,NA,NA,NA,NA,NA,NA,NA,NA,NA,NA,NA,NA,NA,NA,NA
SUPAMT04571,3LKC68YZ3G2SUENNDPRANVX2T52OWT,3A3C8882-AAD8-46C6-ADC3-6C10A3B3C700,2023-09-28_14h03.15.613,WP_VExplicitOC_HL,2022.2.5,Win32,16.12539104,100,3.8378,2.0006,0,2,2,0,1,happy,"unhappy, happy","less happy, more happy",NA,NA,NA,NA,NA,NA,NA,NA,NA,NA,NA,NA,NA,NA,NA,NA,NA,NA,NA,NA,NA,NA,NA,NA,NA,NA,NA,NA,NA,NA,NA,NA,NA,NA,NA,NA,NA,NA,NA,NA,NA,NA,NA,NA,NA,NA,NA,NA
SUPAMT04571,3LKC68YZ3G2SUENNDPRANVX2T52OWT,3A3C8882-AAD8-46C6-ADC3-6C10A3B3C700,2023-09-28_14h03.15.613,WP_VExplicitOC_HL,2022.2.5,Win32,16.12539104,NA,NA,NA,NA,NA,NA,NA,NA,NA,NA,NA,NA,NA,NA,NA,NA,NA,NA,NA,NA,NA,NA,NA,NA,NA,NA,NA,NA,NA,NA,NA,NA,NA,NA,NA,NA,NA,NA,NA,NA,NA,NA,NA,NA,NA,NA,NA,NA,NA,NA,NA,NA,NA,NA,NA,NA,NA,NA,NA
SUPAMT04571,3LKC68YZ3G2SUENNDPRANVX2T52OWT,3A3C8882-AAD8-46C6-ADC3-6C10A3B3C700,2023-09-28_14h03.15.613,WP_VExplicitOC_HL,2022.2.5,Win32,16.12539104,NA,NA,NA,NA,NA,NA,NA,NA,NA,NA,NA,NA,NA,NA,NA,NA,NA,NA,NA,NA,NA,NA,NA,NA,NA,NA,NA,NA,NA,NA,NA,NA,NA,NA,NA,NA,NA,NA,NA,NA,NA,NA,NA,NA,NA,NA,NA,NA,NA,NA,NA,NA,NA,NA,NA,NA,NA,NA,NA
SUPAMT04571,3LKC68YZ3G2SUENNDPRANVX2T52OWT,3A3C8882-AAD8-46C6-ADC3-6C10A3B3C700,2023-09-28_14h03.15.613,WP_VExplicitOC_HL,2022.2.5,Win32,16.12539104,NA,NA,NA,NA,NA,NA,NA,NA,NA,NA,NA,NA,NA,NA,NA,NA,NA,NA,NA,NA,NA,NA,NA,NA,NA,NA,NA,NA,NA,NA,NA,NA,NA,NA,NA,NA,NA,NA,NA,NA,NA,NA,NA,NA,NA,NA,NA,NA,NA,NA,NA,NA,NA,NA,NA,NA,NA,NA,NA
SUPAMT04571,3LKC68YZ3G2SUENNDPRANVX2T52OWT,3A3C8882-AAD8-46C6-ADC3-6C10A3B3C700,2023-09-28_14h03.15.613,WP_VExplicitOC_HL,2022.2.5,Win32,16.12539104,NA,NA,NA,NA,NA,NA,NA,NA,NA,NA,NA,NA,NA,NA,NA,NA,NA,NA,NA,NA,NA,NA,NA,NA,NA,NA,NA,NA,NA,NA,NA,NA,NA,NA,NA,NA,NA,NA,NA,NA,NA,NA,NA,NA,NA,NA,NA,NA,NA,NA,NA,NA,NA,NA,NA,NA,NA,NA,NA
SUPAMT04571,3LKC68YZ3G2SUENNDPRANVX2T52OWT,3A3C8882-AAD8-46C6-ADC3-6C10A3B3C700,2023-09-28_14h03.15.613,WP_VExplicitOC_HL,2022.2.5,Win32,16.12539104,NA,NA,NA,NA,NA,NA,NA,NA,NA,NA,NA,96.09375,3.1647,0,0,0,0,1,rest (looking at a fixed cross),001.png,NA,NA,NA,NA,NA,NA,NA,NA,NA,NA,NA,NA,NA,NA,NA,NA,NA,NA,NA,NA,NA,NA,NA,NA,NA,NA,NA,NA,NA,NA,NA,NA,NA,NA,NA,NA,NA,NA,NA
SUPAMT04571,3LKC68YZ3G2SUENNDPRANVX2T52OWT,3A3C8882-AAD8-46C6-ADC3-6C10A3B3C700,2023-09-28_14h03.15.613,WP_VExplicitOC_HL,2022.2.5,Win32,16.12539104,NA,NA,NA,NA,NA,NA,NA,NA,NA,NA,NA,73.95833333,3.1786,0,1,1,1,1,stand up,002.png,NA,NA,NA,NA,NA,NA,NA,NA,NA,NA,NA,NA,NA,NA,NA,NA,NA,NA,NA,NA,NA,NA,NA,NA,NA,NA,NA,NA,NA,NA,NA,NA,NA,NA,NA,NA,NA,NA,NA
SUPAMT04571,3LKC68YZ3G2SUENNDPRANVX2T52OWT,3A3C8882-AAD8-46C6-ADC3-6C10A3B3C700,2023-09-28_14h03.15.613,WP_VExplicitOC_HL,2022.2.5,Win32,16.12539104,NA,NA,NA,NA,NA,NA,NA,NA,NA,NA,NA,89.0625,1.907,0,2,2,2,1,stretch,003.png,NA,NA,NA,NA,NA,NA,NA,NA,NA,NA,NA,NA,NA,NA,NA,NA,NA,NA,NA,NA,NA,NA,NA,NA,NA,NA,NA,NA,NA,NA,NA,NA,NA,NA,NA,NA,NA,NA,NA
SUPAMT04571,3LKC68YZ3G2SUENNDPRANVX2T52OWT,3A3C8882-AAD8-46C6-ADC3-6C10A3B3C700,2023-09-28_14h03.15.613,WP_VExplicitOC_HL,2022.2.5,Win32,16.12539104,NA,NA,NA,NA,NA,NA,NA,NA,NA,NA,NA,65.88541667,5.2134,0,3,3,3,1,make a drink,004.png,NA,NA,NA,NA,NA,NA,NA,NA,NA,NA,NA,NA,NA,NA,NA,NA,NA,NA,NA,NA,NA,NA,NA,NA,NA,NA,NA,NA,NA,NA,NA,NA,NA,NA,NA,NA,NA,NA,NA
SUPAMT04571,3LKC68YZ3G2SUENNDPRANVX2T52OWT,3A3C8882-AAD8-46C6-ADC3-6C10A3B3C700,2023-09-28_14h03.15.613,WP_VExplicitOC_HL,2022.2.5,Win32,16.12539104,NA,NA,NA,NA,NA,NA,NA,NA,NA,NA,NA,100,6.0128,0,4,4,4,1,scroll social media,005.png,NA,NA,NA,NA,NA,NA,NA,NA,NA,NA,NA,NA,NA,NA,NA,NA,NA,NA,NA,NA,NA,NA,NA,NA,NA,NA,NA,NA,NA,NA,NA,NA,NA,NA,NA,NA,NA,NA,NA
SUPAMT04571,3LKC68YZ3G2SUENNDPRANVX2T52OWT,3A3C8882-AAD8-46C6-ADC3-6C10A3B3C700,2023-09-28_14h03.15.613,WP_VExplicitOC_HL,2022.2.5,Win32,16.12539104,NA,NA,NA,NA,NA,NA,NA,NA,NA,NA,NA,83.07291667,3.6502,0,5,5,5,1,listen to music,006.png,NA,NA,NA,NA,NA,NA,NA,NA,NA,NA,NA,NA,NA,NA,NA,NA,NA,NA,NA,NA,NA,NA,NA,NA,NA,NA,NA,NA,NA,NA,NA,NA,NA,NA,NA,NA,NA,NA,NA
SUPAMT04571,3LKC68YZ3G2SUENNDPRANVX2T52OWT,3A3C8882-AAD8-46C6-ADC3-6C10A3B3C700,2023-09-28_14h03.15.613,WP_VExplicitOC_HL,2022.2.5,Win32,16.12539104,NA,NA,NA,NA,NA,NA,NA,NA,NA,NA,NA,78.90625,3.9139,0,6,6,6,1,daydream,007.png,NA,NA,NA,NA,NA,NA,NA,NA,NA,NA,NA,NA,NA,NA,NA,NA,NA,NA,NA,NA,NA,NA,NA,NA,NA,NA,NA,NA,NA,NA,NA,NA,NA,NA,NA,NA,NA,NA,NA
SUPAMT04571,3LKC68YZ3G2SUENNDPRANVX2T52OWT,3A3C8882-AAD8-46C6-ADC3-6C10A3B3C700,2023-09-28_14h03.15.613,WP_VExplicitOC_HL,2022.2.5,Win32,16.12539104,NA,NA,NA,NA,NA,NA,NA,NA,NA,NA,NA,100,3.1677,0,7,7,7,1,watch a short animation,008.png,NA,NA,NA,NA,NA,NA,NA,NA,NA,NA,NA,NA,NA,NA,NA,NA,NA,NA,NA,NA,NA,NA,NA,NA,NA,NA,NA,NA,NA,NA,NA,NA,NA,NA,NA,NA,NA,NA,NA
SUPAMT04571,3LKC68YZ3G2SUENNDPRANVX2T52OWT,3A3C8882-AAD8-46C6-ADC3-6C10A3B3C700,2023-09-28_14h03.15.613,WP_VExplicitOC_HL,2022.2.5,Win32,16.12539104,NA,NA,NA,NA,NA,NA,NA,NA,NA,NA,NA,82.8125,3.0446,0,8,8,8,1,read a novel,009.png,NA,NA,NA,NA,NA,NA,NA,NA,NA,NA,NA,NA,NA,NA,NA,NA,NA,NA,NA,NA,NA,NA,NA,NA,NA,NA,NA,NA,NA,NA,NA,NA,NA,NA,NA,NA,NA,NA,NA
SUPAMT04571,3LKC68YZ3G2SUENNDPRANVX2T52OWT,3A3C8882-AAD8-46C6-ADC3-6C10A3B3C700,2023-09-28_14h03.15.613,WP_VExplicitOC_HL,2022.2.5,Win32,16.12539104,NA,NA,NA,NA,NA,NA,NA,NA,NA,NA,NA,61.97916667,1.6075,0,9,9,9,1,read the news,010.png,NA,NA,NA,NA,NA,NA,NA,NA,NA,NA,NA,NA,NA,NA,NA,NA,NA,NA,NA,NA,NA,NA,NA,NA,NA,NA,NA,NA,NA,NA,NA,NA,NA,NA,NA,NA,NA,NA,NA
SUPAMT04571,3LKC68YZ3G2SUENNDPRANVX2T52OWT,3A3C8882-AAD8-46C6-ADC3-6C10A3B3C700,2023-09-28_14h03.15.613,WP_VExplicitOC_HL,2022.2.5,Win32,16.12539104,NA,NA,NA,NA,NA,NA,NA,NA,NA,NA,NA,NA,NA,NA,NA,NA,NA,NA,NA,NA,NA,NA,NA,NA,NA,NA,NA,NA,NA,NA,NA,NA,NA,NA,NA,NA,NA,NA,NA,NA,NA,NA,NA,NA,NA,NA,NA,NA,NA,NA,NA,NA,NA,NA,NA,NA,NA,NA,NA
SUPAMT04571,3LKC68YZ3G2SUENNDPRANVX2T52OWT,3A3C8882-AAD8-46C6-ADC3-6C10A3B3C700,2023-09-28_14h03.15.613,WP_VExplicitOC_HL,2022.2.5,Win32,16.12539104,NA,NA,NA,NA,NA,NA,NA,NA,NA,NA,NA,NA,NA,NA,NA,NA,NA,NA,NA,NA,scroll social media,NA,NA,NA,NA,NA,NA,NA,NA,NA,NA,NA,NA,NA,NA,NA,NA,NA,NA,NA,NA,NA,NA,NA,NA,NA,NA,NA,NA,NA,NA,NA,NA,NA,NA,NA,NA,NA,NA
SUPAMT04571,3LKC68YZ3G2SUENNDPRANVX2T52OWT,3A3C8882-AAD8-46C6-ADC3-6C10A3B3C700,2023-09-28_14h03.15.613,WP_VExplicitOC_HL,2022.2.5,Win32,16.12539104,NA,NA,2.0223,NA,NA,NA,NA,NA,happy,"unhappy, happy","less happy, more happy",NA,NA,NA,NA,NA,NA,NA,NA,NA,NA,0,0,0,0,1,NA,NA,NA,NA,NA,NA,NA,NA,NA,NA,NA,NA,NA,NA,NA,NA,NA,NA,NA,NA,NA,NA,NA,NA,NA,NA,NA,NA,NA,NA,NA,NA,NA
SUPAMT04571,3LKC68YZ3G2SUENNDPRANVX2T52OWT,3A3C8882-AAD8-46C6-ADC3-6C10A3B3C700,2023-09-28_14h03.15.613,WP_VExplicitOC_HL,2022.2.5,Win32,16.12539104,82.03125,3.5106,2.0613,NA,NA,NA,NA,NA,bored,"bored, not bored","more bored, less bored",NA,NA,NA,NA,NA,NA,NA,NA,NA,NA,0,1,1,2,1,NA,NA,NA,NA,NA,NA,NA,NA,NA,NA,NA,NA,NA,NA,NA,NA,NA,NA,NA,NA,NA,NA,NA,NA,NA,NA,NA,NA,NA,NA,NA,NA,NA
SUPAMT04571,3LKC68YZ3G2SUENNDPRANVX2T52OWT,3A3C8882-AAD8-46C6-ADC3-6C10A3B3C700,2023-09-28_14h03.15.613,WP_VExplicitOC_HL,2022.2.5,Win32,16.12539104,-76.30208333,5.4097,2.0284,NA,NA,NA,NA,NA,frustrated,"frustrated, not frustrated","more frustrated, less frustrated",NA,NA,NA,NA,NA,NA,NA,NA,NA,NA,0,2,2,1,1,NA,NA,NA,NA,NA,NA,NA,NA,NA,NA,NA,NA,NA,NA,NA,NA,NA,NA,NA,NA,NA,NA,NA,NA,NA,NA,NA,NA,NA,NA,NA,NA,NA
SUPAMT04571,3LKC68YZ3G2SUENNDPRANVX2T52OWT,3A3C8882-AAD8-46C6-ADC3-6C10A3B3C700,2023-09-28_14h03.15.613,WP_VExplicitOC_HL,2022.2.5,Win32,16.12539104,NA,NA,NA,NA,NA,NA,NA,NA,NA,NA,NA,NA,NA,NA,NA,NA,NA,NA,NA,NA,NA,NA,NA,NA,NA,NA,NA,NA,NA,NA,NA,NA,NA,NA,NA,NA,NA,NA,NA,NA,NA,NA,NA,NA,NA,NA,NA,NA,NA,NA,NA,NA,NA,NA,NA,NA,NA,NA,NA
SUPAMT04571,3LKC68YZ3G2SUENNDPRANVX2T52OWT,3A3C8882-AAD8-46C6-ADC3-6C10A3B3C700,2023-09-28_14h03.15.613,WP_VExplicitOC_HL,2022.2.5,Win32,16.12539104,NA,NA,NA,NA,NA,NA,NA,NA,NA,NA,NA,NA,NA,NA,NA,NA,NA,NA,NA,NA,NA,NA,NA,NA,NA,NA,NA,NA,NA,NA,NA,NA,NA,NA,NA,NA,NA,NA,NA,NA,NA,NA,NA,NA,NA,NA,NA,NA,NA,NA,NA,NA,NA,NA,NA,NA,NA,NA,NA
SUPAMT04571,3LKC68YZ3G2SUENNDPRANVX2T52OWT,3A3C8882-AAD8-46C6-ADC3-6C10A3B3C700,2023-09-28_14h03.15.613,WP_VExplicitOC_HL,2022.2.5,Win32,16.12539104,-72.91666667,4.1454,2.0453,NA,NA,NA,NA,NA,frustrated,"frustrated, not frustrated","more frustrated, less frustrated",NA,NA,NA,NA,NA,NA,NA,NA,NA,NA,NA,NA,NA,NA,NA,0,0,0,1,1,NA,NA,NA,NA,NA,NA,NA,NA,NA,NA,NA,NA,NA,NA,NA,NA,NA,NA,NA,NA,NA,NA,NA,NA,NA,NA,NA,NA
SUPAMT04571,3LKC68YZ3G2SUENNDPRANVX2T52OWT,3A3C8882-AAD8-46C6-ADC3-6C10A3B3C700,2023-09-28_14h03.15.613,WP_VExplicitOC_HL,2022.2.5,Win32,16.12539104,100,5.8025,2.0966,NA,NA,NA,NA,NA,happy,"unhappy, happy","less happy, more happy",NA,NA,NA,NA,NA,NA,NA,NA,NA,NA,NA,NA,NA,NA,NA,0,1,1,0,1,NA,NA,NA,NA,NA,NA,NA,NA,NA,NA,NA,NA,NA,NA,NA,NA,NA,NA,NA,NA,NA,NA,NA,NA,NA,NA,NA,NA
SUPAMT04571,3LKC68YZ3G2SUENNDPRANVX2T52OWT,3A3C8882-AAD8-46C6-ADC3-6C10A3B3C700,2023-09-28_14h03.15.613,WP_VExplicitOC_HL,2022.2.5,Win32,16.12539104,NA,NA,2.012,NA,NA,NA,NA,NA,bored,"bored, not bored","more bored, less bored",NA,NA,NA,NA,NA,NA,NA,NA,NA,NA,NA,NA,NA,NA,NA,0,2,2,2,1,NA,NA,NA,NA,NA,NA,NA,NA,NA,NA,NA,NA,NA,NA,NA,NA,NA,NA,NA,NA,NA,NA,NA,NA,NA,NA,NA,NA
SUPAMT04571,3LKC68YZ3G2SUENNDPRANVX2T52OWT,3A3C8882-AAD8-46C6-ADC3-6C10A3B3C700,2023-09-28_14h03.15.613,WP_VExplicitOC_HL,2022.2.5,Win32,16.12539104,NA,NA,NA,NA,NA,NA,NA,NA,NA,NA,NA,NA,NA,NA,NA,NA,NA,NA,NA,NA,NA,NA,NA,NA,NA,NA,NA,NA,NA,NA,NA,0,0,0,0,1,NA,NA,NA,NA,NA,NA,NA,NA,NA,NA,NA,NA,NA,NA,NA,NA,NA,NA,NA,NA,NA,NA,NA
SUPAMT04571,3LKC68YZ3G2SUENNDPRANVX2T52OWT,3A3C8882-AAD8-46C6-ADC3-6C10A3B3C700,2023-09-28_14h03.15.613,WP_VExplicitOC_HL,2022.2.5,Win32,16.12539104,100,5.3475,2.0824,NA,NA,NA,NA,NA,happy,"unhappy, happy","less happy, more happy",NA,NA,NA,NA,NA,NA,NA,NA,NA,NA,NA,NA,NA,NA,NA,0,0,0,0,1,NA,NA,NA,NA,NA,NA,NA,NA,NA,NA,NA,NA,NA,NA,NA,NA,NA,NA,NA,NA,NA,NA,NA,NA,NA,NA,NA,NA
SUPAMT04571,3LKC68YZ3G2SUENNDPRANVX2T52OWT,3A3C8882-AAD8-46C6-ADC3-6C10A3B3C700,2023-09-28_14h03.15.613,WP_VExplicitOC_HL,2022.2.5,Win32,16.12539104,-100,4.0563,2.143,NA,NA,NA,NA,NA,bored,"bored, not bored","more bored, less bored",NA,NA,NA,NA,NA,NA,NA,NA,NA,NA,NA,NA,NA,NA,NA,0,1,1,2,1,NA,NA,NA,NA,NA,NA,NA,NA,NA,NA,NA,NA,NA,NA,NA,NA,NA,NA,NA,NA,NA,NA,NA,NA,NA,NA,NA,NA
SUPAMT04571,3LKC68YZ3G2SUENNDPRANVX2T52OWT,3A3C8882-AAD8-46C6-ADC3-6C10A3B3C700,2023-09-28_14h03.15.613,WP_VExplicitOC_HL,2022.2.5,Win32,16.12539104,-100,3.7174,2.1051,NA,NA,NA,NA,NA,frustrated,"frustrated, not frustrated","more frustrated, less frustrated",NA,NA,NA,NA,NA,NA,NA,NA,NA,NA,NA,NA,NA,NA,NA,0,2,2,1,1,NA,NA,NA,NA,NA,NA,NA,NA,NA,NA,NA,NA,NA,NA,NA,NA,NA,NA,NA,NA,NA,NA,NA,NA,NA,NA,NA,NA
SUPAMT04571,3LKC68YZ3G2SUENNDPRANVX2T52OWT,3A3C8882-AAD8-46C6-ADC3-6C10A3B3C700,2023-09-28_14h03.15.613,WP_VExplicitOC_HL,2022.2.5,Win32,16.12539104,NA,NA,NA,NA,NA,NA,NA,NA,NA,NA,NA,NA,NA,NA,NA,NA,NA,NA,NA,NA,NA,NA,NA,NA,NA,NA,NA,NA,NA,NA,NA,1,0,1,0,1,NA,NA,NA,NA,NA,NA,NA,NA,NA,NA,NA,NA,NA,NA,NA,NA,NA,NA,NA,NA,NA,NA,NA
SUPAMT04571,3LKC68YZ3G2SUENNDPRANVX2T52OWT,3A3C8882-AAD8-46C6-ADC3-6C10A3B3C700,2023-09-28_14h03.15.613,WP_VExplicitOC_HL,2022.2.5,Win32,16.12539104,-100,4.2878,2.0847,NA,NA,NA,NA,NA,bored,"bored, not bored","more bored, less bored",NA,NA,NA,NA,NA,NA,NA,NA,NA,NA,NA,NA,NA,NA,NA,0,0,0,2,1,NA,NA,NA,NA,NA,NA,NA,NA,NA,NA,NA,NA,NA,NA,NA,NA,NA,NA,NA,NA,NA,NA,NA,NA,NA,NA,NA,NA
SUPAMT04571,3LKC68YZ3G2SUENNDPRANVX2T52OWT,3A3C8882-AAD8-46C6-ADC3-6C10A3B3C700,2023-09-28_14h03.15.613,WP_VExplicitOC_HL,2022.2.5,Win32,16.12539104,-100,4.5243,2.0234,NA,NA,NA,NA,NA,frustrated,"frustrated, not frustrated","more frustrated, less frustrated",NA,NA,NA,NA,NA,NA,NA,NA,NA,NA,NA,NA,NA,NA,NA,0,1,1,1,1,NA,NA,NA,NA,NA,NA,NA,NA,NA,NA,NA,NA,NA,NA,NA,NA,NA,NA,NA,NA,NA,NA,NA,NA,NA,NA,NA,NA
SUPAMT04571,3LKC68YZ3G2SUENNDPRANVX2T52OWT,3A3C8882-AAD8-46C6-ADC3-6C10A3B3C700,2023-09-28_14h03.15.613,WP_VExplicitOC_HL,2022.2.5,Win32,16.12539104,100,4.3243,2.0327,NA,NA,NA,NA,NA,happy,"unhappy, happy","less happy, more happy",NA,NA,NA,NA,NA,NA,NA,NA,NA,NA,NA,NA,NA,NA,NA,0,2,2,0,1,NA,NA,NA,NA,NA,NA,NA,NA,NA,NA,NA,NA,NA,NA,NA,NA,NA,NA,NA,NA,NA,NA,NA,NA,NA,NA,NA,NA
SUPAMT04571,3LKC68YZ3G2SUENNDPRANVX2T52OWT,3A3C8882-AAD8-46C6-ADC3-6C10A3B3C700,2023-09-28_14h03.15.613,WP_VExplicitOC_HL,2022.2.5,Win32,16.12539104,NA,NA,NA,NA,NA,NA,NA,NA,NA,NA,NA,NA,NA,NA,NA,NA,NA,NA,NA,NA,NA,NA,NA,NA,NA,NA,NA,NA,NA,NA,NA,2,0,2,0,1,NA,NA,NA,NA,NA,NA,NA,NA,NA,NA,NA,NA,NA,NA,NA,NA,NA,NA,NA,NA,NA,NA,NA
SUPAMT04571,3LKC68YZ3G2SUENNDPRANVX2T52OWT,3A3C8882-AAD8-46C6-ADC3-6C10A3B3C700,2023-09-28_14h03.15.613,WP_VExplicitOC_HL,2022.2.5,Win32,16.12539104,NA,NA,2.0805,NA,NA,NA,NA,NA,bored,"bored, not bored","more bored, less bored",NA,NA,NA,NA,NA,NA,NA,NA,NA,NA,NA,NA,NA,NA,NA,0,0,0,2,1,NA,NA,NA,NA,NA,NA,NA,NA,NA,NA,NA,NA,NA,NA,NA,NA,NA,NA,NA,NA,NA,NA,NA,NA,NA,NA,NA,NA
SUPAMT04571,3LKC68YZ3G2SUENNDPRANVX2T52OWT,3A3C8882-AAD8-46C6-ADC3-6C10A3B3C700,2023-09-28_14h03.15.613,WP_VExplicitOC_HL,2022.2.5,Win32,16.12539104,-100,4.3335,2.0839,NA,NA,NA,NA,NA,frustrated,"frustrated, not frustrated","more frustrated, less frustrated",NA,NA,NA,NA,NA,NA,NA,NA,NA,NA,NA,NA,NA,NA,NA,0,1,1,1,1,NA,NA,NA,NA,NA,NA,NA,NA,NA,NA,NA,NA,NA,NA,NA,NA,NA,NA,NA,NA,NA,NA,NA,NA,NA,NA,NA,NA
SUPAMT04571,3LKC68YZ3G2SUENNDPRANVX2T52OWT,3A3C8882-AAD8-46C6-ADC3-6C10A3B3C700,2023-09-28_14h03.15.613,WP_VExplicitOC_HL,2022.2.5,Win32,16.12539104,100,4.4382,2.0202,NA,NA,NA,NA,NA,happy,"unhappy, happy","less happy, more happy",NA,NA,NA,NA,NA,NA,NA,NA,NA,NA,NA,NA,NA,NA,NA,0,2,2,0,1,NA,NA,NA,NA,NA,NA,NA,NA,NA,NA,NA,NA,NA,NA,NA,NA,NA,NA,NA,NA,NA,NA,NA,NA,NA,NA,NA,NA
SUPAMT04571,3LKC68YZ3G2SUENNDPRANVX2T52OWT,3A3C8882-AAD8-46C6-ADC3-6C10A3B3C700,2023-09-28_14h03.15.613,WP_VExplicitOC_HL,2022.2.5,Win32,16.12539104,NA,NA,NA,NA,NA,NA,NA,NA,NA,NA,NA,NA,NA,NA,NA,NA,NA,NA,NA,NA,NA,NA,NA,NA,NA,NA,NA,NA,NA,NA,NA,3,0,3,0,1,NA,NA,NA,NA,NA,NA,NA,NA,NA,NA,NA,NA,NA,NA,NA,NA,NA,NA,NA,NA,NA,NA,NA
SUPAMT04571,3LKC68YZ3G2SUENNDPRANVX2T52OWT,3A3C8882-AAD8-46C6-ADC3-6C10A3B3C700,2023-09-28_14h03.15.613,WP_VExplicitOC_HL,2022.2.5,Win32,16.12539104,-56.77083333,7.0345,2.0364,NA,NA,NA,NA,NA,bored,"bored, not bored","more bored, less bored",NA,NA,NA,NA,NA,NA,NA,NA,NA,NA,NA,NA,NA,NA,NA,0,0,0,2,1,NA,NA,NA,NA,NA,NA,NA,NA,NA,NA,NA,NA,NA,NA,NA,NA,NA,NA,NA,NA,NA,NA,NA,NA,NA,NA,NA,NA
SUPAMT04571,3LKC68YZ3G2SUENNDPRANVX2T52OWT,3A3C8882-AAD8-46C6-ADC3-6C10A3B3C700,2023-09-28_14h03.15.613,WP_VExplicitOC_HL,2022.2.5,Win32,16.12539104,NA,NA,2.0488,NA,NA,NA,NA,NA,happy,"unhappy, happy","less happy, more happy",NA,NA,NA,NA,NA,NA,NA,NA,NA,NA,NA,NA,NA,NA,NA,0,1,1,0,1,NA,NA,NA,NA,NA,NA,NA,NA,NA,NA,NA,NA,NA,NA,NA,NA,NA,NA,NA,NA,NA,NA,NA,NA,NA,NA,NA,NA
SUPAMT04571,3LKC68YZ3G2SUENNDPRANVX2T52OWT,3A3C8882-AAD8-46C6-ADC3-6C10A3B3C700,2023-09-28_14h03.15.613,WP_VExplicitOC_HL,2022.2.5,Win32,16.12539104,NA,NA,2.0935,NA,NA,NA,NA,NA,frustrated,"frustrated, not frustrated","more frustrated, less frustrated",NA,NA,NA,NA,NA,NA,NA,NA,NA,NA,NA,NA,NA,NA,NA,0,2,2,1,1,NA,NA,NA,NA,NA,NA,NA,NA,NA,NA,NA,NA,NA,NA,NA,NA,NA,NA,NA,NA,NA,NA,NA,NA,NA,NA,NA,NA
SUPAMT04571,3LKC68YZ3G2SUENNDPRANVX2T52OWT,3A3C8882-AAD8-46C6-ADC3-6C10A3B3C700,2023-09-28_14h03.15.613,WP_VExplicitOC_HL,2022.2.5,Win32,16.12539104,NA,NA,NA,NA,NA,NA,NA,NA,NA,NA,NA,NA,NA,NA,NA,NA,NA,NA,NA,NA,NA,NA,NA,NA,NA,NA,NA,NA,NA,NA,NA,4,0,4,0,1,NA,NA,NA,NA,NA,NA,NA,NA,NA,NA,NA,NA,NA,NA,NA,NA,NA,NA,NA,NA,NA,NA,NA
SUPAMT04571,3LKC68YZ3G2SUENNDPRANVX2T52OWT,3A3C8882-AAD8-46C6-ADC3-6C10A3B3C700,2023-09-28_14h03.15.613,WP_VExplicitOC_HL,2022.2.5,Win32,16.12539104,-100,4.5262,2.0346,NA,NA,NA,NA,NA,bored,"bored, not bored","more bored, less bored",NA,NA,NA,NA,NA,NA,NA,NA,NA,NA,NA,NA,NA,NA,NA,0,0,0,2,1,NA,NA,NA,NA,NA,NA,NA,NA,NA,NA,NA,NA,NA,NA,NA,NA,NA,NA,NA,NA,NA,NA,NA,NA,NA,NA,NA,NA
SUPAMT04571,3LKC68YZ3G2SUENNDPRANVX2T52OWT,3A3C8882-AAD8-46C6-ADC3-6C10A3B3C700,2023-09-28_14h03.15.613,WP_VExplicitOC_HL,2022.2.5,Win32,16.12539104,100,4.3399,2.0158,NA,NA,NA,NA,NA,happy,"unhappy, happy","less happy, more happy",NA,NA,NA,NA,NA,NA,NA,NA,NA,NA,NA,NA,NA,NA,NA,0,1,1,0,1,NA,NA,NA,NA,NA,NA,NA,NA,NA,NA,NA,NA,NA,NA,NA,NA,NA,NA,NA,NA,NA,NA,NA,NA,NA,NA,NA,NA
SUPAMT04571,3LKC68YZ3G2SUENNDPRANVX2T52OWT,3A3C8882-AAD8-46C6-ADC3-6C10A3B3C700,2023-09-28_14h03.15.613,WP_VExplicitOC_HL,2022.2.5,Win32,16.12539104,-100,5.0286,2.0331,NA,NA,NA,NA,NA,frustrated,"frustrated, not frustrated","more frustrated, less frustrated",NA,NA,NA,NA,NA,NA,NA,NA,NA,NA,NA,NA,NA,NA,NA,0,2,2,1,1,NA,NA,NA,NA,NA,NA,NA,NA,NA,NA,NA,NA,NA,NA,NA,NA,NA,NA,NA,NA,NA,NA,NA,NA,NA,NA,NA,NA
SUPAMT04571,3LKC68YZ3G2SUENNDPRANVX2T52OWT,3A3C8882-AAD8-46C6-ADC3-6C10A3B3C700,2023-09-28_14h03.15.613,WP_VExplicitOC_HL,2022.2.5,Win32,16.12539104,NA,NA,NA,NA,NA,NA,NA,NA,NA,NA,NA,NA,NA,NA,NA,NA,NA,NA,NA,NA,NA,NA,NA,NA,NA,NA,NA,NA,NA,NA,NA,5,0,5,0,1,NA,NA,NA,NA,NA,NA,NA,NA,NA,NA,NA,NA,NA,NA,NA,NA,NA,NA,NA,NA,NA,NA,NA
SUPAMT04571,3LKC68YZ3G2SUENNDPRANVX2T52OWT,3A3C8882-AAD8-46C6-ADC3-6C10A3B3C700,2023-09-28_14h03.15.613,WP_VExplicitOC_HL,2022.2.5,Win32,16.12539104,NA,NA,2.0897,NA,NA,NA,NA,NA,frustrated,"frustrated, not frustrated","more frustrated, less frustrated",NA,NA,NA,NA,NA,NA,NA,NA,NA,NA,NA,NA,NA,NA,NA,0,0,0,1,1,NA,NA,NA,NA,NA,NA,NA,NA,NA,NA,NA,NA,NA,NA,NA,NA,NA,NA,NA,NA,NA,NA,NA,NA,NA,NA,NA,NA
SUPAMT04571,3LKC68YZ3G2SUENNDPRANVX2T52OWT,3A3C8882-AAD8-46C6-ADC3-6C10A3B3C700,2023-09-28_14h03.15.613,WP_VExplicitOC_HL,2022.2.5,Win32,16.12539104,100,3.8082,2.1208,NA,NA,NA,NA,NA,happy,"unhappy, happy","less happy, more happy",NA,NA,NA,NA,NA,NA,NA,NA,NA,NA,NA,NA,NA,NA,NA,0,1,1,0,1,NA,NA,NA,NA,NA,NA,NA,NA,NA,NA,NA,NA,NA,NA,NA,NA,NA,NA,NA,NA,NA,NA,NA,NA,NA,NA,NA,NA
SUPAMT04571,3LKC68YZ3G2SUENNDPRANVX2T52OWT,3A3C8882-AAD8-46C6-ADC3-6C10A3B3C700,2023-09-28_14h03.15.613,WP_VExplicitOC_HL,2022.2.5,Win32,16.12539104,100,3.9293,2.0664,NA,NA,NA,NA,NA,bored,"bored, not bored","more bored, less bored",NA,NA,NA,NA,NA,NA,NA,NA,NA,NA,NA,NA,NA,NA,NA,0,2,2,2,1,NA,NA,NA,NA,NA,NA,NA,NA,NA,NA,NA,NA,NA,NA,NA,NA,NA,NA,NA,NA,NA,NA,NA,NA,NA,NA,NA,NA
SUPAMT04571,3LKC68YZ3G2SUENNDPRANVX2T52OWT,3A3C8882-AAD8-46C6-ADC3-6C10A3B3C700,2023-09-28_14h03.15.613,WP_VExplicitOC_HL,2022.2.5,Win32,16.12539104,NA,NA,NA,NA,NA,NA,NA,NA,NA,NA,NA,NA,NA,NA,NA,NA,NA,NA,NA,NA,NA,NA,NA,NA,NA,NA,NA,NA,NA,NA,NA,6,0,6,0,1,NA,NA,NA,NA,NA,NA,NA,NA,NA,NA,NA,NA,NA,NA,NA,NA,NA,NA,NA,NA,NA,NA,NA
SUPAMT04571,3LKC68YZ3G2SUENNDPRANVX2T52OWT,3A3C8882-AAD8-46C6-ADC3-6C10A3B3C700,2023-09-28_14h03.15.613,WP_VExplicitOC_HL,2022.2.5,Win32,16.12539104,100,4.4577,2.0276,NA,NA,NA,NA,NA,happy,"unhappy, happy","less happy, more happy",NA,NA,NA,NA,NA,NA,NA,NA,NA,NA,NA,NA,NA,NA,NA,0,0,0,0,1,NA,NA,NA,NA,NA,NA,NA,NA,NA,NA,NA,NA,NA,NA,NA,NA,NA,NA,NA,NA,NA,NA,NA,NA,NA,NA,NA,NA
SUPAMT04571,3LKC68YZ3G2SUENNDPRANVX2T52OWT,3A3C8882-AAD8-46C6-ADC3-6C10A3B3C700,2023-09-28_14h03.15.613,WP_VExplicitOC_HL,2022.2.5,Win32,16.12539104,-100,4.7561,2.0916,NA,NA,NA,NA,NA,bored,"bored, not bored","more bored, less bored",NA,NA,NA,NA,NA,NA,NA,NA,NA,NA,NA,NA,NA,NA,NA,0,1,1,2,1,NA,NA,NA,NA,NA,NA,NA,NA,NA,NA,NA,NA,NA,NA,NA,NA,NA,NA,NA,NA,NA,NA,NA,NA,NA,NA,NA,NA
SUPAMT04571,3LKC68YZ3G2SUENNDPRANVX2T52OWT,3A3C8882-AAD8-46C6-ADC3-6C10A3B3C700,2023-09-28_14h03.15.613,WP_VExplicitOC_HL,2022.2.5,Win32,16.12539104,-100,6.6165,2.0199,NA,NA,NA,NA,NA,frustrated,"frustrated, not frustrated","more frustrated, less frustrated",NA,NA,NA,NA,NA,NA,NA,NA,NA,NA,NA,NA,NA,NA,NA,0,2,2,1,1,NA,NA,NA,NA,NA,NA,NA,NA,NA,NA,NA,NA,NA,NA,NA,NA,NA,NA,NA,NA,NA,NA,NA,NA,NA,NA,NA,NA
SUPAMT04571,3LKC68YZ3G2SUENNDPRANVX2T52OWT,3A3C8882-AAD8-46C6-ADC3-6C10A3B3C700,2023-09-28_14h03.15.613,WP_VExplicitOC_HL,2022.2.5,Win32,16.12539104,NA,NA,NA,NA,NA,NA,NA,NA,NA,NA,NA,NA,NA,NA,NA,NA,NA,NA,NA,NA,NA,NA,NA,NA,NA,NA,NA,NA,NA,NA,NA,7,0,7,0,1,NA,NA,NA,NA,NA,NA,NA,NA,NA,NA,NA,NA,NA,NA,NA,NA,NA,NA,NA,NA,NA,NA,NA
SUPAMT04571,3LKC68YZ3G2SUENNDPRANVX2T52OWT,3A3C8882-AAD8-46C6-ADC3-6C10A3B3C700,2023-09-28_14h03.15.613,WP_VExplicitOC_HL,2022.2.5,Win32,16.12539104,-100,5.3283,2.1116,NA,NA,NA,NA,NA,frustrated,"frustrated, not frustrated","more frustrated, less frustrated",NA,NA,NA,NA,NA,NA,NA,NA,NA,NA,NA,NA,NA,NA,NA,0,0,0,1,1,NA,NA,NA,NA,NA,NA,NA,NA,NA,NA,NA,NA,NA,NA,NA,NA,NA,NA,NA,NA,NA,NA,NA,NA,NA,NA,NA,NA
SUPAMT04571,3LKC68YZ3G2SUENNDPRANVX2T52OWT,3A3C8882-AAD8-46C6-ADC3-6C10A3B3C700,2023-09-28_14h03.15.613,WP_VExplicitOC_HL,2022.2.5,Win32,16.12539104,-100,4.5275,2.0422,NA,NA,NA,NA,NA,bored,"bored, not bored","more bored, less bored",NA,NA,NA,NA,NA,NA,NA,NA,NA,NA,NA,NA,NA,NA,NA,0,1,1,2,1,NA,NA,NA,NA,NA,NA,NA,NA,NA,NA,NA,NA,NA,NA,NA,NA,NA,NA,NA,NA,NA,NA,NA,NA,NA,NA,NA,NA
SUPAMT04571,3LKC68YZ3G2SUENNDPRANVX2T52OWT,3A3C8882-AAD8-46C6-ADC3-6C10A3B3C700,2023-09-28_14h03.15.613,WP_VExplicitOC_HL,2022.2.5,Win32,16.12539104,-64.58333333,3.4946,2.0213,NA,NA,NA,NA,NA,happy,"unhappy, happy","less happy, more happy",NA,NA,NA,NA,NA,NA,NA,NA,NA,NA,NA,NA,NA,NA,NA,0,2,2,0,1,NA,NA,NA,NA,NA,NA,NA,NA,NA,NA,NA,NA,NA,NA,NA,NA,NA,NA,NA,NA,NA,NA,NA,NA,NA,NA,NA,NA
SUPAMT04571,3LKC68YZ3G2SUENNDPRANVX2T52OWT,3A3C8882-AAD8-46C6-ADC3-6C10A3B3C700,2023-09-28_14h03.15.613,WP_VExplicitOC_HL,2022.2.5,Win32,16.12539104,NA,NA,NA,NA,NA,NA,NA,NA,NA,NA,NA,NA,NA,NA,NA,NA,NA,NA,NA,NA,NA,NA,NA,NA,NA,NA,NA,NA,NA,NA,NA,8,0,8,0,1,NA,NA,NA,NA,NA,NA,NA,NA,NA,NA,NA,NA,NA,NA,NA,NA,NA,NA,NA,NA,NA,NA,NA
SUPAMT04571,3LKC68YZ3G2SUENNDPRANVX2T52OWT,3A3C8882-AAD8-46C6-ADC3-6C10A3B3C700,2023-09-28_14h03.15.613,WP_VExplicitOC_HL,2022.2.5,Win32,16.12539104,100,4.6591,2.058,NA,NA,NA,NA,NA,bored,"bored, not bored","more bored, less bored",NA,NA,NA,NA,NA,NA,NA,NA,NA,NA,NA,NA,NA,NA,NA,0,0,0,2,1,NA,NA,NA,NA,NA,NA,NA,NA,NA,NA,NA,NA,NA,NA,NA,NA,NA,NA,NA,NA,NA,NA,NA,NA,NA,NA,NA,NA
SUPAMT04571,3LKC68YZ3G2SUENNDPRANVX2T52OWT,3A3C8882-AAD8-46C6-ADC3-6C10A3B3C700,2023-09-28_14h03.15.613,WP_VExplicitOC_HL,2022.2.5,Win32,16.12539104,-100,4.4915,2.0034,NA,NA,NA,NA,NA,frustrated,"frustrated, not frustrated","more frustrated, less frustrated",NA,NA,NA,NA,NA,NA,NA,NA,NA,NA,NA,NA,NA,NA,NA,0,1,1,1,1,NA,NA,NA,NA,NA,NA,NA,NA,NA,NA,NA,NA,NA,NA,NA,NA,NA,NA,NA,NA,NA,NA,NA,NA,NA,NA,NA,NA
SUPAMT04571,3LKC68YZ3G2SUENNDPRANVX2T52OWT,3A3C8882-AAD8-46C6-ADC3-6C10A3B3C700,2023-09-28_14h03.15.613,WP_VExplicitOC_HL,2022.2.5,Win32,16.12539104,100,3.6112,2.0067,NA,NA,NA,NA,NA,happy,"unhappy, happy","less happy, more happy",NA,NA,NA,NA,NA,NA,NA,NA,NA,NA,NA,NA,NA,NA,NA,0,2,2,0,1,NA,NA,NA,NA,NA,NA,NA,NA,NA,NA,NA,NA,NA,NA,NA,NA,NA,NA,NA,NA,NA,NA,NA,NA,NA,NA,NA,NA
SUPAMT04571,3LKC68YZ3G2SUENNDPRANVX2T52OWT,3A3C8882-AAD8-46C6-ADC3-6C10A3B3C700,2023-09-28_14h03.15.613,WP_VExplicitOC_HL,2022.2.5,Win32,16.12539104,NA,NA,NA,NA,NA,NA,NA,NA,NA,NA,NA,NA,NA,NA,NA,NA,NA,NA,NA,NA,NA,NA,NA,NA,NA,NA,NA,NA,NA,NA,NA,9,0,9,0,1,NA,NA,NA,NA,NA,NA,NA,NA,NA,NA,NA,NA,NA,NA,NA,NA,NA,NA,NA,NA,NA,NA,NA
SUPAMT04571,3LKC68YZ3G2SUENNDPRANVX2T52OWT,3A3C8882-AAD8-46C6-ADC3-6C10A3B3C700,2023-09-28_14h03.15.613,WP_VExplicitOC_HL,2022.2.5,Win32,16.12539104,100,5.9956,2.0181,NA,NA,NA,NA,NA,happy,"unhappy, happy","less happy, more happy",NA,NA,NA,NA,NA,NA,NA,NA,NA,NA,NA,NA,NA,NA,NA,0,0,0,0,1,NA,NA,NA,NA,NA,NA,NA,NA,NA,NA,NA,NA,NA,NA,NA,NA,NA,NA,NA,NA,NA,NA,NA,NA,NA,NA,NA,NA
SUPAMT04571,3LKC68YZ3G2SUENNDPRANVX2T52OWT,3A3C8882-AAD8-46C6-ADC3-6C10A3B3C700,2023-09-28_14h03.15.613,WP_VExplicitOC_HL,2022.2.5,Win32,16.12539104,100,5.4777,2.0702,NA,NA,NA,NA,NA,bored,"bored, not bored","more bored, less bored",NA,NA,NA,NA,NA,NA,NA,NA,NA,NA,NA,NA,NA,NA,NA,0,1,1,2,1,NA,NA,NA,NA,NA,NA,NA,NA,NA,NA,NA,NA,NA,NA,NA,NA,NA,NA,NA,NA,NA,NA,NA,NA,NA,NA,NA,NA
SUPAMT04571,3LKC68YZ3G2SUENNDPRANVX2T52OWT,3A3C8882-AAD8-46C6-ADC3-6C10A3B3C700,2023-09-28_14h03.15.613,WP_VExplicitOC_HL,2022.2.5,Win32,16.12539104,100,4.6159,2.0466,NA,NA,NA,NA,NA,frustrated,"frustrated, not frustrated","more frustrated, less frustrated",NA,NA,NA,NA,NA,NA,NA,NA,NA,NA,NA,NA,NA,NA,NA,0,2,2,1,1,NA,NA,NA,NA,NA,NA,NA,NA,NA,NA,NA,NA,NA,NA,NA,NA,NA,NA,NA,NA,NA,NA,NA,NA,NA,NA,NA,NA
SUPAMT04571,3LKC68YZ3G2SUENNDPRANVX2T52OWT,3A3C8882-AAD8-46C6-ADC3-6C10A3B3C700,2023-09-28_14h03.15.613,WP_VExplicitOC_HL,2022.2.5,Win32,16.12539104,NA,NA,NA,NA,NA,NA,NA,NA,NA,NA,NA,NA,NA,NA,NA,NA,NA,NA,NA,NA,NA,NA,NA,NA,NA,NA,NA,NA,NA,NA,NA,10,0,10,0,1,NA,NA,NA,NA,NA,NA,NA,NA,NA,NA,NA,NA,NA,NA,NA,NA,NA,NA,NA,NA,NA,NA,NA
SUPAMT04571,3LKC68YZ3G2SUENNDPRANVX2T52OWT,3A3C8882-AAD8-46C6-ADC3-6C10A3B3C700,2023-09-28_14h03.15.613,WP_VExplicitOC_HL,2022.2.5,Win32,16.12539104,100,4.6187,2.0198,NA,NA,NA,NA,NA,happy,"unhappy, happy","less happy, more happy",NA,NA,NA,NA,NA,NA,NA,NA,NA,NA,NA,NA,NA,NA,NA,0,0,0,0,1,NA,NA,NA,NA,NA,NA,NA,NA,NA,NA,NA,NA,NA,NA,NA,NA,NA,NA,NA,NA,NA,NA,NA,NA,NA,NA,NA,NA
SUPAMT04571,3LKC68YZ3G2SUENNDPRANVX2T52OWT,3A3C8882-AAD8-46C6-ADC3-6C10A3B3C700,2023-09-28_14h03.15.613,WP_VExplicitOC_HL,2022.2.5,Win32,16.12539104,100,5.2612,2.0435,NA,NA,NA,NA,NA,frustrated,"frustrated, not frustrated","more frustrated, less frustrated",NA,NA,NA,NA,NA,NA,NA,NA,NA,NA,NA,NA,NA,NA,NA,0,1,1,1,1,NA,NA,NA,NA,NA,NA,NA,NA,NA,NA,NA,NA,NA,NA,NA,NA,NA,NA,NA,NA,NA,NA,NA,NA,NA,NA,NA,NA
SUPAMT04571,3LKC68YZ3G2SUENNDPRANVX2T52OWT,3A3C8882-AAD8-46C6-ADC3-6C10A3B3C700,2023-09-28_14h03.15.613,WP_VExplicitOC_HL,2022.2.5,Win32,16.12539104,100,4.5143,2.0684,NA,NA,NA,NA,NA,bored,"bored, not bored","more bored, less bored",NA,NA,NA,NA,NA,NA,NA,NA,NA,NA,NA,NA,NA,NA,NA,0,2,2,2,1,NA,NA,NA,NA,NA,NA,NA,NA,NA,NA,NA,NA,NA,NA,NA,NA,NA,NA,NA,NA,NA,NA,NA,NA,NA,NA,NA,NA
SUPAMT04571,3LKC68YZ3G2SUENNDPRANVX2T52OWT,3A3C8882-AAD8-46C6-ADC3-6C10A3B3C700,2023-09-28_14h03.15.613,WP_VExplicitOC_HL,2022.2.5,Win32,16.12539104,NA,NA,NA,NA,NA,NA,NA,NA,NA,NA,NA,NA,NA,NA,NA,NA,NA,NA,NA,NA,NA,NA,NA,NA,NA,NA,NA,NA,NA,NA,NA,11,0,11,0,1,NA,NA,NA,NA,NA,NA,NA,NA,NA,NA,NA,NA,NA,NA,NA,NA,NA,NA,NA,NA,NA,NA,NA
SUPAMT04571,3LKC68YZ3G2SUENNDPRANVX2T52OWT,3A3C8882-AAD8-46C6-ADC3-6C10A3B3C700,2023-09-28_14h03.15.613,WP_VExplicitOC_HL,2022.2.5,Win32,16.12539104,100,3.69,2.0777,NA,NA,NA,NA,NA,frustrated,"frustrated, not frustrated","more frustrated, less frustrated",NA,NA,NA,NA,NA,NA,NA,NA,NA,NA,NA,NA,NA,NA,NA,0,0,0,1,1,NA,NA,NA,NA,NA,NA,NA,NA,NA,NA,NA,NA,NA,NA,NA,NA,NA,NA,NA,NA,NA,NA,NA,NA,NA,NA,NA,NA
SUPAMT04571,3LKC68YZ3G2SUENNDPRANVX2T52OWT,3A3C8882-AAD8-46C6-ADC3-6C10A3B3C700,2023-09-28_14h03.15.613,WP_VExplicitOC_HL,2022.2.5,Win32,16.12539104,100,4.653,2.0833,NA,NA,NA,NA,NA,bored,"bored, not bored","more bored, less bored",NA,NA,NA,NA,NA,NA,NA,NA,NA,NA,NA,NA,NA,NA,NA,0,1,1,2,1,NA,NA,NA,NA,NA,NA,NA,NA,NA,NA,NA,NA,NA,NA,NA,NA,NA,NA,NA,NA,NA,NA,NA,NA,NA,NA,NA,NA
SUPAMT04571,3LKC68YZ3G2SUENNDPRANVX2T52OWT,3A3C8882-AAD8-46C6-ADC3-6C10A3B3C700,2023-09-28_14h03.15.613,WP_VExplicitOC_HL,2022.2.5,Win32,16.12539104,100,4.5773,2.0629,NA,NA,NA,NA,NA,happy,"unhappy, happy","less happy, more happy",NA,NA,NA,NA,NA,NA,NA,NA,NA,NA,NA,NA,NA,NA,NA,0,2,2,0,1,NA,NA,NA,NA,NA,NA,NA,NA,NA,NA,NA,NA,NA,NA,NA,NA,NA,NA,NA,NA,NA,NA,NA,NA,NA,NA,NA,NA
SUPAMT04571,3LKC68YZ3G2SUENNDPRANVX2T52OWT,3A3C8882-AAD8-46C6-ADC3-6C10A3B3C700,2023-09-28_14h03.15.613,WP_VExplicitOC_HL,2022.2.5,Win32,16.12539104,NA,NA,NA,NA,NA,NA,NA,NA,NA,NA,NA,NA,NA,NA,NA,NA,NA,NA,NA,NA,NA,NA,NA,NA,NA,NA,NA,NA,NA,NA,NA,12,0,12,0,1,NA,NA,NA,NA,NA,NA,NA,NA,NA,NA,NA,NA,NA,NA,NA,NA,NA,NA,NA,NA,NA,NA,NA
SUPAMT04571,3LKC68YZ3G2SUENNDPRANVX2T52OWT,3A3C8882-AAD8-46C6-ADC3-6C10A3B3C700,2023-09-28_14h03.15.613,WP_VExplicitOC_HL,2022.2.5,Win32,16.12539104,100,6.4303,2.0909,NA,NA,NA,NA,NA,bored,"bored, not bored","more bored, less bored",NA,NA,NA,NA,NA,NA,NA,NA,NA,NA,NA,NA,NA,NA,NA,0,0,0,2,1,NA,NA,NA,NA,NA,NA,NA,NA,NA,NA,NA,NA,NA,NA,NA,NA,NA,NA,NA,NA,NA,NA,NA,NA,NA,NA,NA,NA
SUPAMT04571,3LKC68YZ3G2SUENNDPRANVX2T52OWT,3A3C8882-AAD8-46C6-ADC3-6C10A3B3C700,2023-09-28_14h03.15.613,WP_VExplicitOC_HL,2022.2.5,Win32,16.12539104,100,4.3036,2.0011,NA,NA,NA,NA,NA,happy,"unhappy, happy","less happy, more happy",NA,NA,NA,NA,NA,NA,NA,NA,NA,NA,NA,NA,NA,NA,NA,0,1,1,0,1,NA,NA,NA,NA,NA,NA,NA,NA,NA,NA,NA,NA,NA,NA,NA,NA,NA,NA,NA,NA,NA,NA,NA,NA,NA,NA,NA,NA
SUPAMT04571,3LKC68YZ3G2SUENNDPRANVX2T52OWT,3A3C8882-AAD8-46C6-ADC3-6C10A3B3C700,2023-09-28_14h03.15.613,WP_VExplicitOC_HL,2022.2.5,Win32,16.12539104,100,4.459,2.0652,NA,NA,NA,NA,NA,frustrated,"frustrated, not frustrated","more frustrated, less frustrated",NA,NA,NA,NA,NA,NA,NA,NA,NA,NA,NA,NA,NA,NA,NA,0,2,2,1,1,NA,NA,NA,NA,NA,NA,NA,NA,NA,NA,NA,NA,NA,NA,NA,NA,NA,NA,NA,NA,NA,NA,NA,NA,NA,NA,NA,NA
SUPAMT04571,3LKC68YZ3G2SUENNDPRANVX2T52OWT,3A3C8882-AAD8-46C6-ADC3-6C10A3B3C700,2023-09-28_14h03.15.613,WP_VExplicitOC_HL,2022.2.5,Win32,16.12539104,NA,NA,NA,NA,NA,NA,NA,NA,NA,NA,NA,NA,NA,NA,NA,NA,NA,NA,NA,NA,NA,NA,NA,NA,NA,NA,NA,NA,NA,NA,NA,13,0,13,0,1,NA,NA,NA,NA,NA,NA,NA,NA,NA,NA,NA,NA,NA,NA,NA,NA,NA,NA,NA,NA,NA,NA,NA
SUPAMT04571,3LKC68YZ3G2SUENNDPRANVX2T52OWT,3A3C8882-AAD8-46C6-ADC3-6C10A3B3C700,2023-09-28_14h03.15.613,WP_VExplicitOC_HL,2022.2.5,Win32,16.12539104,100,4.4023,2.0972,NA,NA,NA,NA,NA,happy,"unhappy, happy","less happy, more happy",NA,NA,NA,NA,NA,NA,NA,NA,NA,NA,NA,NA,NA,NA,NA,0,0,0,0,1,NA,NA,NA,NA,NA,NA,NA,NA,NA,NA,NA,NA,NA,NA,NA,NA,NA,NA,NA,NA,NA,NA,NA,NA,NA,NA,NA,NA
SUPAMT04571,3LKC68YZ3G2SUENNDPRANVX2T52OWT,3A3C8882-AAD8-46C6-ADC3-6C10A3B3C700,2023-09-28_14h03.15.613,WP_VExplicitOC_HL,2022.2.5,Win32,16.12539104,-100,3.9913,2.0262,NA,NA,NA,NA,NA,bored,"bored, not bored","more bored, less bored",NA,NA,NA,NA,NA,NA,NA,NA,NA,NA,NA,NA,NA,NA,NA,0,1,1,2,1,NA,NA,NA,NA,NA,NA,NA,NA,NA,NA,NA,NA,NA,NA,NA,NA,NA,NA,NA,NA,NA,NA,NA,NA,NA,NA,NA,NA
SUPAMT04571,3LKC68YZ3G2SUENNDPRANVX2T52OWT,3A3C8882-AAD8-46C6-ADC3-6C10A3B3C700,2023-09-28_14h03.15.613,WP_VExplicitOC_HL,2022.2.5,Win32,16.12539104,-100,3.5969,2.1146,NA,NA,NA,NA,NA,frustrated,"frustrated, not frustrated","more frustrated, less frustrated",NA,NA,NA,NA,NA,NA,NA,NA,NA,NA,NA,NA,NA,NA,NA,0,2,2,1,1,NA,NA,NA,NA,NA,NA,NA,NA,NA,NA,NA,NA,NA,NA,NA,NA,NA,NA,NA,NA,NA,NA,NA,NA,NA,NA,NA,NA
SUPAMT04571,3LKC68YZ3G2SUENNDPRANVX2T52OWT,3A3C8882-AAD8-46C6-ADC3-6C10A3B3C700,2023-09-28_14h03.15.613,WP_VExplicitOC_HL,2022.2.5,Win32,16.12539104,NA,NA,NA,NA,NA,NA,NA,NA,NA,NA,NA,NA,NA,NA,NA,NA,NA,NA,NA,NA,NA,NA,NA,NA,NA,NA,NA,NA,NA,NA,NA,14,0,14,0,1,NA,NA,NA,NA,NA,NA,NA,NA,NA,NA,NA,NA,NA,NA,NA,NA,NA,NA,NA,NA,NA,NA,NA
SUPAMT04571,3LKC68YZ3G2SUENNDPRANVX2T52OWT,3A3C8882-AAD8-46C6-ADC3-6C10A3B3C700,2023-09-28_14h03.15.613,WP_VExplicitOC_HL,2022.2.5,Win32,16.12539104,NA,NA,NA,NA,NA,NA,NA,NA,NA,NA,NA,NA,NA,NA,NA,NA,NA,NA,NA,NA,NA,NA,NA,NA,NA,NA,NA,NA,NA,NA,NA,NA,NA,NA,NA,NA,NA,NA,NA,NA,NA,NA,NA,NA,NA,NA,NA,NA,NA,NA,NA,NA,NA,NA,NA,NA,NA,NA,NA
SUPAMT04571,3LKC68YZ3G2SUENNDPRANVX2T52OWT,3A3C8882-AAD8-46C6-ADC3-6C10A3B3C700,2023-09-28_14h03.15.613,WP_VExplicitOC_HL,2022.2.5,Win32,16.12539104,NA,NA,NA,NA,NA,NA,NA,NA,NA,NA,NA,NA,NA,NA,NA,NA,NA,NA,NA,NA,NA,NA,NA,NA,NA,NA,NA,NA,NA,NA,NA,NA,NA,NA,NA,NA,NA,NA,NA,NA,NA,NA,NA,NA,NA,NA,NA,NA,NA,NA,NA,NA,NA,NA,NA,NA,NA,NA,NA
SUPAMT04571,3LKC68YZ3G2SUENNDPRANVX2T52OWT,3A3C8882-AAD8-46C6-ADC3-6C10A3B3C700,2023-09-28_14h03.15.613,WP_VExplicitOC_HL,2022.2.5,Win32,16.12539104,NA,NA,NA,NA,NA,NA,NA,NA,NA,NA,NA,NA,NA,NA,NA,NA,NA,NA,rest (looking at a fixed cross),001.png,NA,NA,NA,NA,NA,NA,NA,NA,NA,NA,NA,NA,NA,NA,NA,NA,96.35416667,3.5949,0,0,0,0,1,NA,NA,NA,NA,NA,NA,NA,NA,NA,NA,NA,NA,NA,NA,NA,NA
SUPAMT04571,3LKC68YZ3G2SUENNDPRANVX2T52OWT,3A3C8882-AAD8-46C6-ADC3-6C10A3B3C700,2023-09-28_14h03.15.613,WP_VExplicitOC_HL,2022.2.5,Win32,16.12539104,NA,NA,NA,NA,NA,NA,NA,NA,NA,NA,NA,NA,NA,NA,NA,NA,NA,NA,stand up,002.png,NA,NA,NA,NA,NA,NA,NA,NA,NA,NA,NA,NA,NA,NA,NA,NA,100,2.1659,0,1,1,1,1,NA,NA,NA,NA,NA,NA,NA,NA,NA,NA,NA,NA,NA,NA,NA,NA
SUPAMT04571,3LKC68YZ3G2SUENNDPRANVX2T52OWT,3A3C8882-AAD8-46C6-ADC3-6C10A3B3C700,2023-09-28_14h03.15.613,WP_VExplicitOC_HL,2022.2.5,Win32,16.12539104,NA,NA,NA,NA,NA,NA,NA,NA,NA,NA,NA,NA,NA,NA,NA,NA,NA,NA,stretch,003.png,NA,NA,NA,NA,NA,NA,NA,NA,NA,NA,NA,NA,NA,NA,NA,NA,100,1.6865,0,2,2,2,1,NA,NA,NA,NA,NA,NA,NA,NA,NA,NA,NA,NA,NA,NA,NA,NA
SUPAMT04571,3LKC68YZ3G2SUENNDPRANVX2T52OWT,3A3C8882-AAD8-46C6-ADC3-6C10A3B3C700,2023-09-28_14h03.15.613,WP_VExplicitOC_HL,2022.2.5,Win32,16.12539104,NA,NA,NA,NA,NA,NA,NA,NA,NA,NA,NA,NA,NA,NA,NA,NA,NA,NA,make a drink,004.png,NA,NA,NA,NA,NA,NA,NA,NA,NA,NA,NA,NA,NA,NA,NA,NA,100,2.3603,0,3,3,3,1,NA,NA,NA,NA,NA,NA,NA,NA,NA,NA,NA,NA,NA,NA,NA,NA
SUPAMT04571,3LKC68YZ3G2SUENNDPRANVX2T52OWT,3A3C8882-AAD8-46C6-ADC3-6C10A3B3C700,2023-09-28_14h03.15.613,WP_VExplicitOC_HL,2022.2.5,Win32,16.12539104,NA,NA,NA,NA,NA,NA,NA,NA,NA,NA,NA,NA,NA,NA,NA,NA,NA,NA,scroll social media,005.png,NA,NA,NA,NA,NA,NA,NA,NA,NA,NA,NA,NA,NA,NA,NA,NA,100,1.896,0,4,4,4,1,NA,NA,NA,NA,NA,NA,NA,NA,NA,NA,NA,NA,NA,NA,NA,NA
SUPAMT04571,3LKC68YZ3G2SUENNDPRANVX2T52OWT,3A3C8882-AAD8-46C6-ADC3-6C10A3B3C700,2023-09-28_14h03.15.613,WP_VExplicitOC_HL,2022.2.5,Win32,16.12539104,NA,NA,NA,NA,NA,NA,NA,NA,NA,NA,NA,NA,NA,NA,NA,NA,NA,NA,listen to music,006.png,NA,NA,NA,NA,NA,NA,NA,NA,NA,NA,NA,NA,NA,NA,NA,NA,100,3.7991,0,5,5,5,1,NA,NA,NA,NA,NA,NA,NA,NA,NA,NA,NA,NA,NA,NA,NA,NA
SUPAMT04571,3LKC68YZ3G2SUENNDPRANVX2T52OWT,3A3C8882-AAD8-46C6-ADC3-6C10A3B3C700,2023-09-28_14h03.15.613,WP_VExplicitOC_HL,2022.2.5,Win32,16.12539104,NA,NA,NA,NA,NA,NA,NA,NA,NA,NA,NA,NA,NA,NA,NA,NA,NA,NA,daydream,007.png,NA,NA,NA,NA,NA,NA,NA,NA,NA,NA,NA,NA,NA,NA,NA,NA,-39.32291667,3.7263,0,6,6,6,1,NA,NA,NA,NA,NA,NA,NA,NA,NA,NA,NA,NA,NA,NA,NA,NA
SUPAMT04571,3LKC68YZ3G2SUENNDPRANVX2T52OWT,3A3C8882-AAD8-46C6-ADC3-6C10A3B3C700,2023-09-28_14h03.15.613,WP_VExplicitOC_HL,2022.2.5,Win32,16.12539104,NA,NA,NA,NA,NA,NA,NA,NA,NA,NA,NA,NA,NA,NA,NA,NA,NA,NA,watch a short animation,008.png,NA,NA,NA,NA,NA,NA,NA,NA,NA,NA,NA,NA,NA,NA,NA,NA,83.33333333,3.8244,0,7,7,7,1,NA,NA,NA,NA,NA,NA,NA,NA,NA,NA,NA,NA,NA,NA,NA,NA
SUPAMT04571,3LKC68YZ3G2SUENNDPRANVX2T52OWT,3A3C8882-AAD8-46C6-ADC3-6C10A3B3C700,2023-09-28_14h03.15.613,WP_VExplicitOC_HL,2022.2.5,Win32,16.12539104,NA,NA,NA,NA,NA,NA,NA,NA,NA,NA,NA,NA,NA,NA,NA,NA,NA,NA,read a novel,009.png,NA,NA,NA,NA,NA,NA,NA,NA,NA,NA,NA,NA,NA,NA,NA,NA,40.88541667,6.4512,0,8,8,8,1,NA,NA,NA,NA,NA,NA,NA,NA,NA,NA,NA,NA,NA,NA,NA,NA
SUPAMT04571,3LKC68YZ3G2SUENNDPRANVX2T52OWT,3A3C8882-AAD8-46C6-ADC3-6C10A3B3C700,2023-09-28_14h03.15.613,WP_VExplicitOC_HL,2022.2.5,Win32,16.12539104,NA,NA,NA,NA,NA,NA,NA,NA,NA,NA,NA,NA,NA,NA,NA,NA,NA,NA,read the news,010.png,NA,NA,NA,NA,NA,NA,NA,NA,NA,NA,NA,NA,NA,NA,NA,NA,100,4.2288,0,9,9,9,1,NA,NA,NA,NA,NA,NA,NA,NA,NA,NA,NA,NA,NA,NA,NA,NA
SUPAMT04571,3LKC68YZ3G2SUENNDPRANVX2T52OWT,3A3C8882-AAD8-46C6-ADC3-6C10A3B3C700,2023-09-28_14h03.15.613,WP_VExplicitOC_HL,2022.2.5,Win32,16.12539104,NA,NA,NA,NA,NA,NA,NA,NA,NA,NA,NA,NA,NA,NA,NA,NA,NA,NA,NA,NA,NA,NA,NA,NA,NA,NA,NA,NA,NA,NA,NA,NA,NA,NA,NA,NA,NA,NA,NA,NA,NA,NA,NA,daydream,NA,NA,NA,NA,NA,NA,NA,NA,NA,NA,NA,NA,NA,NA,NA
SUPAMT04571,3LKC68YZ3G2SUENNDPRANVX2T52OWT,3A3C8882-AAD8-46C6-ADC3-6C10A3B3C700,2023-09-28_14h03.15.613,WP_VExplicitOC_HL,2022.2.5,Win32,16.12539104,-100,4.4255,2.0276,NA,NA,NA,NA,NA,happy,"unhappy, happy","less happy, more happy",NA,NA,NA,NA,NA,NA,NA,NA,NA,NA,NA,NA,NA,NA,NA,NA,NA,NA,NA,NA,NA,NA,NA,NA,NA,NA,NA,NA,NA,NA,NA,NA,NA,0,0,0,0,1,NA,NA,NA,NA,NA,NA,NA,NA,NA,NA
SUPAMT04571,3LKC68YZ3G2SUENNDPRANVX2T52OWT,3A3C8882-AAD8-46C6-ADC3-6C10A3B3C700,2023-09-28_14h03.15.613,WP_VExplicitOC_HL,2022.2.5,Win32,16.12539104,-100,5.6914,2.0463,NA,NA,NA,NA,NA,frustrated,"frustrated, not frustrated","more frustrated, less frustrated",NA,NA,NA,NA,NA,NA,NA,NA,NA,NA,NA,NA,NA,NA,NA,NA,NA,NA,NA,NA,NA,NA,NA,NA,NA,NA,NA,NA,NA,NA,NA,NA,NA,0,1,1,1,1,NA,NA,NA,NA,NA,NA,NA,NA,NA,NA
SUPAMT04571,3LKC68YZ3G2SUENNDPRANVX2T52OWT,3A3C8882-AAD8-46C6-ADC3-6C10A3B3C700,2023-09-28_14h03.15.613,WP_VExplicitOC_HL,2022.2.5,Win32,16.12539104,-100,4.8355,2.0887,NA,NA,NA,NA,NA,bored,"bored, not bored","more bored, less bored",NA,NA,NA,NA,NA,NA,NA,NA,NA,NA,NA,NA,NA,NA,NA,NA,NA,NA,NA,NA,NA,NA,NA,NA,NA,NA,NA,NA,NA,NA,NA,NA,NA,0,2,2,2,1,NA,NA,NA,NA,NA,NA,NA,NA,NA,NA
SUPAMT04571,3LKC68YZ3G2SUENNDPRANVX2T52OWT,3A3C8882-AAD8-46C6-ADC3-6C10A3B3C700,2023-09-28_14h03.15.613,WP_VExplicitOC_HL,2022.2.5,Win32,16.12539104,NA,NA,NA,NA,NA,NA,NA,NA,NA,NA,NA,NA,NA,NA,NA,NA,NA,NA,NA,NA,NA,NA,NA,NA,NA,NA,NA,NA,NA,NA,NA,NA,NA,NA,NA,NA,NA,NA,NA,NA,NA,NA,NA,NA,NA,NA,NA,NA,NA,NA,NA,NA,NA,NA,NA,NA,NA,NA,NA
SUPAMT04571,3LKC68YZ3G2SUENNDPRANVX2T52OWT,3A3C8882-AAD8-46C6-ADC3-6C10A3B3C700,2023-09-28_14h03.15.613,WP_VExplicitOC_HL,2022.2.5,Win32,16.12539104,NA,NA,NA,NA,NA,NA,NA,NA,NA,NA,NA,NA,NA,NA,NA,NA,NA,NA,NA,NA,NA,NA,NA,NA,NA,NA,NA,NA,NA,NA,NA,NA,NA,NA,NA,NA,NA,NA,NA,NA,NA,NA,NA,NA,NA,NA,NA,NA,NA,NA,NA,NA,NA,NA,NA,NA,NA,NA,NA
SUPAMT04571,3LKC68YZ3G2SUENNDPRANVX2T52OWT,3A3C8882-AAD8-46C6-ADC3-6C10A3B3C700,2023-09-28_14h03.15.613,WP_VExplicitOC_HL,2022.2.5,Win32,16.12539104,-100,5.081,2.0782,NA,NA,NA,NA,NA,bored,"bored, not bored","more bored, less bored",NA,NA,NA,NA,NA,NA,NA,NA,NA,NA,NA,NA,NA,NA,NA,NA,NA,NA,NA,NA,NA,NA,NA,NA,NA,NA,NA,NA,NA,NA,NA,NA,NA,NA,NA,NA,NA,NA,0,0,0,2,1,NA,NA,NA,NA,NA
SUPAMT04571,3LKC68YZ3G2SUENNDPRANVX2T52OWT,3A3C8882-AAD8-46C6-ADC3-6C10A3B3C700,2023-09-28_14h03.15.613,WP_VExplicitOC_HL,2022.2.5,Win32,16.12539104,NA,NA,2.029,NA,NA,NA,NA,NA,happy,"unhappy, happy","less happy, more happy",NA,NA,NA,NA,NA,NA,NA,NA,NA,NA,NA,NA,NA,NA,NA,NA,NA,NA,NA,NA,NA,NA,NA,NA,NA,NA,NA,NA,NA,NA,NA,NA,NA,NA,NA,NA,NA,NA,0,1,1,0,1,NA,NA,NA,NA,NA
SUPAMT04571,3LKC68YZ3G2SUENNDPRANVX2T52OWT,3A3C8882-AAD8-46C6-ADC3-6C10A3B3C700,2023-09-28_14h03.15.613,WP_VExplicitOC_HL,2022.2.5,Win32,16.12539104,-100,6.0532,2.0937,NA,NA,NA,NA,NA,frustrated,"frustrated, not frustrated","more frustrated, less frustrated",NA,NA,NA,NA,NA,NA,NA,NA,NA,NA,NA,NA,NA,NA,NA,NA,NA,NA,NA,NA,NA,NA,NA,NA,NA,NA,NA,NA,NA,NA,NA,NA,NA,NA,NA,NA,NA,NA,0,2,2,1,1,NA,NA,NA,NA,NA
SUPAMT04571,3LKC68YZ3G2SUENNDPRANVX2T52OWT,3A3C8882-AAD8-46C6-ADC3-6C10A3B3C700,2023-09-28_14h03.15.613,WP_VExplicitOC_HL,2022.2.5,Win32,16.12539104,NA,NA,NA,NA,NA,NA,NA,NA,NA,NA,NA,NA,NA,NA,NA,NA,NA,NA,NA,NA,NA,NA,NA,NA,NA,NA,NA,NA,NA,NA,NA,NA,NA,NA,NA,NA,NA,NA,NA,NA,NA,NA,NA,NA,NA,NA,NA,NA,NA,NA,NA,NA,NA,NA,0,0,0,0,1
SUPAMT04571,3LKC68YZ3G2SUENNDPRANVX2T52OWT,3A3C8882-AAD8-46C6-ADC3-6C10A3B3C700,2023-09-28_14h03.15.613,WP_VExplicitOC_HL,2022.2.5,Win32,16.12539104,-100,4.2819,2.0802,NA,NA,NA,NA,NA,bored,"bored, not bored","more bored, less bored",NA,NA,NA,NA,NA,NA,NA,NA,NA,NA,NA,NA,NA,NA,NA,NA,NA,NA,NA,NA,NA,NA,NA,NA,NA,NA,NA,NA,NA,NA,NA,NA,NA,NA,NA,NA,NA,NA,0,0,0,2,1,NA,NA,NA,NA,NA
SUPAMT04571,3LKC68YZ3G2SUENNDPRANVX2T52OWT,3A3C8882-AAD8-46C6-ADC3-6C10A3B3C700,2023-09-28_14h03.15.613,WP_VExplicitOC_HL,2022.2.5,Win32,16.12539104,-100,3.999,2.0245,NA,NA,NA,NA,NA,frustrated,"frustrated, not frustrated","more frustrated, less frustrated",NA,NA,NA,NA,NA,NA,NA,NA,NA,NA,NA,NA,NA,NA,NA,NA,NA,NA,NA,NA,NA,NA,NA,NA,NA,NA,NA,NA,NA,NA,NA,NA,NA,NA,NA,NA,NA,NA,0,1,1,1,1,NA,NA,NA,NA,NA
SUPAMT04571,3LKC68YZ3G2SUENNDPRANVX2T52OWT,3A3C8882-AAD8-46C6-ADC3-6C10A3B3C700,2023-09-28_14h03.15.613,WP_VExplicitOC_HL,2022.2.5,Win32,16.12539104,100,4.1677,2.0415,NA,NA,NA,NA,NA,happy,"unhappy, happy","less happy, more happy",NA,NA,NA,NA,NA,NA,NA,NA,NA,NA,NA,NA,NA,NA,NA,NA,NA,NA,NA,NA,NA,NA,NA,NA,NA,NA,NA,NA,NA,NA,NA,NA,NA,NA,NA,NA,NA,NA,0,2,2,0,1,NA,NA,NA,NA,NA
SUPAMT04571,3LKC68YZ3G2SUENNDPRANVX2T52OWT,3A3C8882-AAD8-46C6-ADC3-6C10A3B3C700,2023-09-28_14h03.15.613,WP_VExplicitOC_HL,2022.2.5,Win32,16.12539104,NA,NA,NA,NA,NA,NA,NA,NA,NA,NA,NA,NA,NA,NA,NA,NA,NA,NA,NA,NA,NA,NA,NA,NA,NA,NA,NA,NA,NA,NA,NA,NA,NA,NA,NA,NA,NA,NA,NA,NA,NA,NA,NA,NA,NA,NA,NA,NA,NA,NA,NA,NA,NA,NA,1,0,1,0,1
SUPAMT04571,3LKC68YZ3G2SUENNDPRANVX2T52OWT,3A3C8882-AAD8-46C6-ADC3-6C10A3B3C700,2023-09-28_14h03.15.613,WP_VExplicitOC_HL,2022.2.5,Win32,16.12539104,-100,7.2533,2.0435,NA,NA,NA,NA,NA,bored,"bored, not bored","more bored, less bored",NA,NA,NA,NA,NA,NA,NA,NA,NA,NA,NA,NA,NA,NA,NA,NA,NA,NA,NA,NA,NA,NA,NA,NA,NA,NA,NA,NA,NA,NA,NA,NA,NA,NA,NA,NA,NA,NA,0,0,0,2,1,NA,NA,NA,NA,NA
SUPAMT04571,3LKC68YZ3G2SUENNDPRANVX2T52OWT,3A3C8882-AAD8-46C6-ADC3-6C10A3B3C700,2023-09-28_14h03.15.613,WP_VExplicitOC_HL,2022.2.5,Win32,16.12539104,-100,5.6942,2.0341,NA,NA,NA,NA,NA,happy,"unhappy, happy","less happy, more happy",NA,NA,NA,NA,NA,NA,NA,NA,NA,NA,NA,NA,NA,NA,NA,NA,NA,NA,NA,NA,NA,NA,NA,NA,NA,NA,NA,NA,NA,NA,NA,NA,NA,NA,NA,NA,NA,NA,0,1,1,0,1,NA,NA,NA,NA,NA
SUPAMT04571,3LKC68YZ3G2SUENNDPRANVX2T52OWT,3A3C8882-AAD8-46C6-ADC3-6C10A3B3C700,2023-09-28_14h03.15.613,WP_VExplicitOC_HL,2022.2.5,Win32,16.12539104,NA,NA,2.0678,NA,NA,NA,NA,NA,frustrated,"frustrated, not frustrated","more frustrated, less frustrated",NA,NA,NA,NA,NA,NA,NA,NA,NA,NA,NA,NA,NA,NA,NA,NA,NA,NA,NA,NA,NA,NA,NA,NA,NA,NA,NA,NA,NA,NA,NA,NA,NA,NA,NA,NA,NA,NA,0,2,2,1,1,NA,NA,NA,NA,NA
SUPAMT04571,3LKC68YZ3G2SUENNDPRANVX2T52OWT,3A3C8882-AAD8-46C6-ADC3-6C10A3B3C700,2023-09-28_14h03.15.613,WP_VExplicitOC_HL,2022.2.5,Win32,16.12539104,NA,NA,NA,NA,NA,NA,NA,NA,NA,NA,NA,NA,NA,NA,NA,NA,NA,NA,NA,NA,NA,NA,NA,NA,NA,NA,NA,NA,NA,NA,NA,NA,NA,NA,NA,NA,NA,NA,NA,NA,NA,NA,NA,NA,NA,NA,NA,NA,NA,NA,NA,NA,NA,NA,2,0,2,0,1
SUPAMT04571,3LKC68YZ3G2SUENNDPRANVX2T52OWT,3A3C8882-AAD8-46C6-ADC3-6C10A3B3C700,2023-09-28_14h03.15.613,WP_VExplicitOC_HL,2022.2.5,Win32,16.12539104,100,4.5626,2.0276,NA,NA,NA,NA,NA,frustrated,"frustrated, not frustrated","more frustrated, less frustrated",NA,NA,NA,NA,NA,NA,NA,NA,NA,NA,NA,NA,NA,NA,NA,NA,NA,NA,NA,NA,NA,NA,NA,NA,NA,NA,NA,NA,NA,NA,NA,NA,NA,NA,NA,NA,NA,NA,0,0,0,1,1,NA,NA,NA,NA,NA
SUPAMT04571,3LKC68YZ3G2SUENNDPRANVX2T52OWT,3A3C8882-AAD8-46C6-ADC3-6C10A3B3C700,2023-09-28_14h03.15.613,WP_VExplicitOC_HL,2022.2.5,Win32,16.12539104,100,3.5315,2.016,NA,NA,NA,NA,NA,bored,"bored, not bored","more bored, less bored",NA,NA,NA,NA,NA,NA,NA,NA,NA,NA,NA,NA,NA,NA,NA,NA,NA,NA,NA,NA,NA,NA,NA,NA,NA,NA,NA,NA,NA,NA,NA,NA,NA,NA,NA,NA,NA,NA,0,1,1,2,1,NA,NA,NA,NA,NA
SUPAMT04571,3LKC68YZ3G2SUENNDPRANVX2T52OWT,3A3C8882-AAD8-46C6-ADC3-6C10A3B3C700,2023-09-28_14h03.15.613,WP_VExplicitOC_HL,2022.2.5,Win32,16.12539104,100,3.2409,2.0071,NA,NA,NA,NA,NA,happy,"unhappy, happy","less happy, more happy",NA,NA,NA,NA,NA,NA,NA,NA,NA,NA,NA,NA,NA,NA,NA,NA,NA,NA,NA,NA,NA,NA,NA,NA,NA,NA,NA,NA,NA,NA,NA,NA,NA,NA,NA,NA,NA,NA,0,2,2,0,1,NA,NA,NA,NA,NA
SUPAMT04571,3LKC68YZ3G2SUENNDPRANVX2T52OWT,3A3C8882-AAD8-46C6-ADC3-6C10A3B3C700,2023-09-28_14h03.15.613,WP_VExplicitOC_HL,2022.2.5,Win32,16.12539104,NA,NA,NA,NA,NA,NA,NA,NA,NA,NA,NA,NA,NA,NA,NA,NA,NA,NA,NA,NA,NA,NA,NA,NA,NA,NA,NA,NA,NA,NA,NA,NA,NA,NA,NA,NA,NA,NA,NA,NA,NA,NA,NA,NA,NA,NA,NA,NA,NA,NA,NA,NA,NA,NA,3,0,3,0,1
SUPAMT04571,3LKC68YZ3G2SUENNDPRANVX2T52OWT,3A3C8882-AAD8-46C6-ADC3-6C10A3B3C700,2023-09-28_14h03.15.613,WP_VExplicitOC_HL,2022.2.5,Win32,16.12539104,-100,4.8362,2.0964,NA,NA,NA,NA,NA,happy,"unhappy, happy","less happy, more happy",NA,NA,NA,NA,NA,NA,NA,NA,NA,NA,NA,NA,NA,NA,NA,NA,NA,NA,NA,NA,NA,NA,NA,NA,NA,NA,NA,NA,NA,NA,NA,NA,NA,NA,NA,NA,NA,NA,0,0,0,0,1,NA,NA,NA,NA,NA
SUPAMT04571,3LKC68YZ3G2SUENNDPRANVX2T52OWT,3A3C8882-AAD8-46C6-ADC3-6C10A3B3C700,2023-09-28_14h03.15.613,WP_VExplicitOC_HL,2022.2.5,Win32,16.12539104,100,4.65,2.0554,NA,NA,NA,NA,NA,bored,"bored, not bored","more bored, less bored",NA,NA,NA,NA,NA,NA,NA,NA,NA,NA,NA,NA,NA,NA,NA,NA,NA,NA,NA,NA,NA,NA,NA,NA,NA,NA,NA,NA,NA,NA,NA,NA,NA,NA,NA,NA,NA,NA,0,1,1,2,1,NA,NA,NA,NA,NA
SUPAMT04571,3LKC68YZ3G2SUENNDPRANVX2T52OWT,3A3C8882-AAD8-46C6-ADC3-6C10A3B3C700,2023-09-28_14h03.15.613,WP_VExplicitOC_HL,2022.2.5,Win32,16.12539104,100,4.7586,2.0414,NA,NA,NA,NA,NA,frustrated,"frustrated, not frustrated","more frustrated, less frustrated",NA,NA,NA,NA,NA,NA,NA,NA,NA,NA,NA,NA,NA,NA,NA,NA,NA,NA,NA,NA,NA,NA,NA,NA,NA,NA,NA,NA,NA,NA,NA,NA,NA,NA,NA,NA,NA,NA,0,2,2,1,1,NA,NA,NA,NA,NA
SUPAMT04571,3LKC68YZ3G2SUENNDPRANVX2T52OWT,3A3C8882-AAD8-46C6-ADC3-6C10A3B3C700,2023-09-28_14h03.15.613,WP_VExplicitOC_HL,2022.2.5,Win32,16.12539104,NA,NA,NA,NA,NA,NA,NA,NA,NA,NA,NA,NA,NA,NA,NA,NA,NA,NA,NA,NA,NA,NA,NA,NA,NA,NA,NA,NA,NA,NA,NA,NA,NA,NA,NA,NA,NA,NA,NA,NA,NA,NA,NA,NA,NA,NA,NA,NA,NA,NA,NA,NA,NA,NA,4,0,4,0,1
SUPAMT04571,3LKC68YZ3G2SUENNDPRANVX2T52OWT,3A3C8882-AAD8-46C6-ADC3-6C10A3B3C700,2023-09-28_14h03.15.613,WP_VExplicitOC_HL,2022.2.5,Win32,16.12539104,100,3.3241,2.0619,NA,NA,NA,NA,NA,bored,"bored, not bored","more bored, less bored",NA,NA,NA,NA,NA,NA,NA,NA,NA,NA,NA,NA,NA,NA,NA,NA,NA,NA,NA,NA,NA,NA,NA,NA,NA,NA,NA,NA,NA,NA,NA,NA,NA,NA,NA,NA,NA,NA,0,0,0,2,1,NA,NA,NA,NA,NA
SUPAMT04571,3LKC68YZ3G2SUENNDPRANVX2T52OWT,3A3C8882-AAD8-46C6-ADC3-6C10A3B3C700,2023-09-28_14h03.15.613,WP_VExplicitOC_HL,2022.2.5,Win32,16.12539104,100,3.2445,2.0795,NA,NA,NA,NA,NA,frustrated,"frustrated, not frustrated","more frustrated, less frustrated",NA,NA,NA,NA,NA,NA,NA,NA,NA,NA,NA,NA,NA,NA,NA,NA,NA,NA,NA,NA,NA,NA,NA,NA,NA,NA,NA,NA,NA,NA,NA,NA,NA,NA,NA,NA,NA,NA,0,1,1,1,1,NA,NA,NA,NA,NA
SUPAMT04571,3LKC68YZ3G2SUENNDPRANVX2T52OWT,3A3C8882-AAD8-46C6-ADC3-6C10A3B3C700,2023-09-28_14h03.15.613,WP_VExplicitOC_HL,2022.2.5,Win32,16.12539104,100,3.7959,2.0384,NA,NA,NA,NA,NA,happy,"unhappy, happy","less happy, more happy",NA,NA,NA,NA,NA,NA,NA,NA,NA,NA,NA,NA,NA,NA,NA,NA,NA,NA,NA,NA,NA,NA,NA,NA,NA,NA,NA,NA,NA,NA,NA,NA,NA,NA,NA,NA,NA,NA,0,2,2,0,1,NA,NA,NA,NA,NA
SUPAMT04571,3LKC68YZ3G2SUENNDPRANVX2T52OWT,3A3C8882-AAD8-46C6-ADC3-6C10A3B3C700,2023-09-28_14h03.15.613,WP_VExplicitOC_HL,2022.2.5,Win32,16.12539104,NA,NA,NA,NA,NA,NA,NA,NA,NA,NA,NA,NA,NA,NA,NA,NA,NA,NA,NA,NA,NA,NA,NA,NA,NA,NA,NA,NA,NA,NA,NA,NA,NA,NA,NA,NA,NA,NA,NA,NA,NA,NA,NA,NA,NA,NA,NA,NA,NA,NA,NA,NA,NA,NA,5,0,5,0,1
SUPAMT04571,3LKC68YZ3G2SUENNDPRANVX2T52OWT,3A3C8882-AAD8-46C6-ADC3-6C10A3B3C700,2023-09-28_14h03.15.613,WP_VExplicitOC_HL,2022.2.5,Win32,16.12539104,100,7.0584,2.0535,NA,NA,NA,NA,NA,bored,"bored, not bored","more bored, less bored",NA,NA,NA,NA,NA,NA,NA,NA,NA,NA,NA,NA,NA,NA,NA,NA,NA,NA,NA,NA,NA,NA,NA,NA,NA,NA,NA,NA,NA,NA,NA,NA,NA,NA,NA,NA,NA,NA,0,0,0,2,1,NA,NA,NA,NA,NA
SUPAMT04571,3LKC68YZ3G2SUENNDPRANVX2T52OWT,3A3C8882-AAD8-46C6-ADC3-6C10A3B3C700,2023-09-28_14h03.15.613,WP_VExplicitOC_HL,2022.2.5,Win32,16.12539104,100,3.1051,2.0572,NA,NA,NA,NA,NA,happy,"unhappy, happy","less happy, more happy",NA,NA,NA,NA,NA,NA,NA,NA,NA,NA,NA,NA,NA,NA,NA,NA,NA,NA,NA,NA,NA,NA,NA,NA,NA,NA,NA,NA,NA,NA,NA,NA,NA,NA,NA,NA,NA,NA,0,1,1,0,1,NA,NA,NA,NA,NA
SUPAMT04571,3LKC68YZ3G2SUENNDPRANVX2T52OWT,3A3C8882-AAD8-46C6-ADC3-6C10A3B3C700,2023-09-28_14h03.15.613,WP_VExplicitOC_HL,2022.2.5,Win32,16.12539104,NA,NA,2.0019,NA,NA,NA,NA,NA,frustrated,"frustrated, not frustrated","more frustrated, less frustrated",NA,NA,NA,NA,NA,NA,NA,NA,NA,NA,NA,NA,NA,NA,NA,NA,NA,NA,NA,NA,NA,NA,NA,NA,NA,NA,NA,NA,NA,NA,NA,NA,NA,NA,NA,NA,NA,NA,0,2,2,1,1,NA,NA,NA,NA,NA
SUPAMT04571,3LKC68YZ3G2SUENNDPRANVX2T52OWT,3A3C8882-AAD8-46C6-ADC3-6C10A3B3C700,2023-09-28_14h03.15.613,WP_VExplicitOC_HL,2022.2.5,Win32,16.12539104,NA,NA,NA,NA,NA,NA,NA,NA,NA,NA,NA,NA,NA,NA,NA,NA,NA,NA,NA,NA,NA,NA,NA,NA,NA,NA,NA,NA,NA,NA,NA,NA,NA,NA,NA,NA,NA,NA,NA,NA,NA,NA,NA,NA,NA,NA,NA,NA,NA,NA,NA,NA,NA,NA,6,0,6,0,1
SUPAMT04571,3LKC68YZ3G2SUENNDPRANVX2T52OWT,3A3C8882-AAD8-46C6-ADC3-6C10A3B3C700,2023-09-28_14h03.15.613,WP_VExplicitOC_HL,2022.2.5,Win32,16.12539104,100,4.49,2.0166,NA,NA,NA,NA,NA,happy,"unhappy, happy","less happy, more happy",NA,NA,NA,NA,NA,NA,NA,NA,NA,NA,NA,NA,NA,NA,NA,NA,NA,NA,NA,NA,NA,NA,NA,NA,NA,NA,NA,NA,NA,NA,NA,NA,NA,NA,NA,NA,NA,NA,0,0,0,0,1,NA,NA,NA,NA,NA
SUPAMT04571,3LKC68YZ3G2SUENNDPRANVX2T52OWT,3A3C8882-AAD8-46C6-ADC3-6C10A3B3C700,2023-09-28_14h03.15.613,WP_VExplicitOC_HL,2022.2.5,Win32,16.12539104,100,3.2726,2.0173,NA,NA,NA,NA,NA,frustrated,"frustrated, not frustrated","more frustrated, less frustrated",NA,NA,NA,NA,NA,NA,NA,NA,NA,NA,NA,NA,NA,NA,NA,NA,NA,NA,NA,NA,NA,NA,NA,NA,NA,NA,NA,NA,NA,NA,NA,NA,NA,NA,NA,NA,NA,NA,0,1,1,1,1,NA,NA,NA,NA,NA
SUPAMT04571,3LKC68YZ3G2SUENNDPRANVX2T52OWT,3A3C8882-AAD8-46C6-ADC3-6C10A3B3C700,2023-09-28_14h03.15.613,WP_VExplicitOC_HL,2022.2.5,Win32,16.12539104,100,5.0116,2.0181,NA,NA,NA,NA,NA,bored,"bored, not bored","more bored, less bored",NA,NA,NA,NA,NA,NA,NA,NA,NA,NA,NA,NA,NA,NA,NA,NA,NA,NA,NA,NA,NA,NA,NA,NA,NA,NA,NA,NA,NA,NA,NA,NA,NA,NA,NA,NA,NA,NA,0,2,2,2,1,NA,NA,NA,NA,NA
SUPAMT04571,3LKC68YZ3G2SUENNDPRANVX2T52OWT,3A3C8882-AAD8-46C6-ADC3-6C10A3B3C700,2023-09-28_14h03.15.613,WP_VExplicitOC_HL,2022.2.5,Win32,16.12539104,NA,NA,NA,NA,NA,NA,NA,NA,NA,NA,NA,NA,NA,NA,NA,NA,NA,NA,NA,NA,NA,NA,NA,NA,NA,NA,NA,NA,NA,NA,NA,NA,NA,NA,NA,NA,NA,NA,NA,NA,NA,NA,NA,NA,NA,NA,NA,NA,NA,NA,NA,NA,NA,NA,7,0,7,0,1
SUPAMT04571,3LKC68YZ3G2SUENNDPRANVX2T52OWT,3A3C8882-AAD8-46C6-ADC3-6C10A3B3C700,2023-09-28_14h03.15.613,WP_VExplicitOC_HL,2022.2.5,Win32,16.12539104,100,4.3342,2.0473,NA,NA,NA,NA,NA,frustrated,"frustrated, not frustrated","more frustrated, less frustrated",NA,NA,NA,NA,NA,NA,NA,NA,NA,NA,NA,NA,NA,NA,NA,NA,NA,NA,NA,NA,NA,NA,NA,NA,NA,NA,NA,NA,NA,NA,NA,NA,NA,NA,NA,NA,NA,NA,0,0,0,1,1,NA,NA,NA,NA,NA
SUPAMT04571,3LKC68YZ3G2SUENNDPRANVX2T52OWT,3A3C8882-AAD8-46C6-ADC3-6C10A3B3C700,2023-09-28_14h03.15.613,WP_VExplicitOC_HL,2022.2.5,Win32,16.12539104,100,3.1748,2.0649,NA,NA,NA,NA,NA,happy,"unhappy, happy","less happy, more happy",NA,NA,NA,NA,NA,NA,NA,NA,NA,NA,NA,NA,NA,NA,NA,NA,NA,NA,NA,NA,NA,NA,NA,NA,NA,NA,NA,NA,NA,NA,NA,NA,NA,NA,NA,NA,NA,NA,0,1,1,0,1,NA,NA,NA,NA,NA
SUPAMT04571,3LKC68YZ3G2SUENNDPRANVX2T52OWT,3A3C8882-AAD8-46C6-ADC3-6C10A3B3C700,2023-09-28_14h03.15.613,WP_VExplicitOC_HL,2022.2.5,Win32,16.12539104,100,3.3969,2.0139,NA,NA,NA,NA,NA,bored,"bored, not bored","more bored, less bored",NA,NA,NA,NA,NA,NA,NA,NA,NA,NA,NA,NA,NA,NA,NA,NA,NA,NA,NA,NA,NA,NA,NA,NA,NA,NA,NA,NA,NA,NA,NA,NA,NA,NA,NA,NA,NA,NA,0,2,2,2,1,NA,NA,NA,NA,NA
SUPAMT04571,3LKC68YZ3G2SUENNDPRANVX2T52OWT,3A3C8882-AAD8-46C6-ADC3-6C10A3B3C700,2023-09-28_14h03.15.613,WP_VExplicitOC_HL,2022.2.5,Win32,16.12539104,NA,NA,NA,NA,NA,NA,NA,NA,NA,NA,NA,NA,NA,NA,NA,NA,NA,NA,NA,NA,NA,NA,NA,NA,NA,NA,NA,NA,NA,NA,NA,NA,NA,NA,NA,NA,NA,NA,NA,NA,NA,NA,NA,NA,NA,NA,NA,NA,NA,NA,NA,NA,NA,NA,8,0,8,0,1
SUPAMT04571,3LKC68YZ3G2SUENNDPRANVX2T52OWT,3A3C8882-AAD8-46C6-ADC3-6C10A3B3C700,2023-09-28_14h03.15.613,WP_VExplicitOC_HL,2022.2.5,Win32,16.12539104,100,5.8838,2.0641,NA,NA,NA,NA,NA,bored,"bored, not bored","more bored, less bored",NA,NA,NA,NA,NA,NA,NA,NA,NA,NA,NA,NA,NA,NA,NA,NA,NA,NA,NA,NA,NA,NA,NA,NA,NA,NA,NA,NA,NA,NA,NA,NA,NA,NA,NA,NA,NA,NA,0,0,0,2,1,NA,NA,NA,NA,NA
SUPAMT04571,3LKC68YZ3G2SUENNDPRANVX2T52OWT,3A3C8882-AAD8-46C6-ADC3-6C10A3B3C700,2023-09-28_14h03.15.613,WP_VExplicitOC_HL,2022.2.5,Win32,16.12539104,100,4.0471,2.0038,NA,NA,NA,NA,NA,happy,"unhappy, happy","less happy, more happy",NA,NA,NA,NA,NA,NA,NA,NA,NA,NA,NA,NA,NA,NA,NA,NA,NA,NA,NA,NA,NA,NA,NA,NA,NA,NA,NA,NA,NA,NA,NA,NA,NA,NA,NA,NA,NA,NA,0,1,1,0,1,NA,NA,NA,NA,NA
SUPAMT04571,3LKC68YZ3G2SUENNDPRANVX2T52OWT,3A3C8882-AAD8-46C6-ADC3-6C10A3B3C700,2023-09-28_14h03.15.613,WP_VExplicitOC_HL,2022.2.5,Win32,16.12539104,100,3.253,2.0228,NA,NA,NA,NA,NA,frustrated,"frustrated, not frustrated","more frustrated, less frustrated",NA,NA,NA,NA,NA,NA,NA,NA,NA,NA,NA,NA,NA,NA,NA,NA,NA,NA,NA,NA,NA,NA,NA,NA,NA,NA,NA,NA,NA,NA,NA,NA,NA,NA,NA,NA,NA,NA,0,2,2,1,1,NA,NA,NA,NA,NA
SUPAMT04571,3LKC68YZ3G2SUENNDPRANVX2T52OWT,3A3C8882-AAD8-46C6-ADC3-6C10A3B3C700,2023-09-28_14h03.15.613,WP_VExplicitOC_HL,2022.2.5,Win32,16.12539104,NA,NA,NA,NA,NA,NA,NA,NA,NA,NA,NA,NA,NA,NA,NA,NA,NA,NA,NA,NA,NA,NA,NA,NA,NA,NA,NA,NA,NA,NA,NA,NA,NA,NA,NA,NA,NA,NA,NA,NA,NA,NA,NA,NA,NA,NA,NA,NA,NA,NA,NA,NA,NA,NA,9,0,9,0,1
SUPAMT04571,3LKC68YZ3G2SUENNDPRANVX2T52OWT,3A3C8882-AAD8-46C6-ADC3-6C10A3B3C700,2023-09-28_14h03.15.613,WP_VExplicitOC_HL,2022.2.5,Win32,16.12539104,NA,NA,2.0711,NA,NA,NA,NA,NA,happy,"unhappy, happy","less happy, more happy",NA,NA,NA,NA,NA,NA,NA,NA,NA,NA,NA,NA,NA,NA,NA,NA,NA,NA,NA,NA,NA,NA,NA,NA,NA,NA,NA,NA,NA,NA,NA,NA,NA,NA,NA,NA,NA,NA,0,0,0,0,1,NA,NA,NA,NA,NA
SUPAMT04571,3LKC68YZ3G2SUENNDPRANVX2T52OWT,3A3C8882-AAD8-46C6-ADC3-6C10A3B3C700,2023-09-28_14h03.15.613,WP_VExplicitOC_HL,2022.2.5,Win32,16.12539104,100,5.382,2.0831,NA,NA,NA,NA,NA,bored,"bored, not bored","more bored, less bored",NA,NA,NA,NA,NA,NA,NA,NA,NA,NA,NA,NA,NA,NA,NA,NA,NA,NA,NA,NA,NA,NA,NA,NA,NA,NA,NA,NA,NA,NA,NA,NA,NA,NA,NA,NA,NA,NA,0,1,1,2,1,NA,NA,NA,NA,NA
SUPAMT04571,3LKC68YZ3G2SUENNDPRANVX2T52OWT,3A3C8882-AAD8-46C6-ADC3-6C10A3B3C700,2023-09-28_14h03.15.613,WP_VExplicitOC_HL,2022.2.5,Win32,16.12539104,100,4.7737,2.0769,NA,NA,NA,NA,NA,frustrated,"frustrated, not frustrated","more frustrated, less frustrated",NA,NA,NA,NA,NA,NA,NA,NA,NA,NA,NA,NA,NA,NA,NA,NA,NA,NA,NA,NA,NA,NA,NA,NA,NA,NA,NA,NA,NA,NA,NA,NA,NA,NA,NA,NA,NA,NA,0,2,2,1,1,NA,NA,NA,NA,NA
SUPAMT04571,3LKC68YZ3G2SUENNDPRANVX2T52OWT,3A3C8882-AAD8-46C6-ADC3-6C10A3B3C700,2023-09-28_14h03.15.613,WP_VExplicitOC_HL,2022.2.5,Win32,16.12539104,NA,NA,NA,NA,NA,NA,NA,NA,NA,NA,NA,NA,NA,NA,NA,NA,NA,NA,NA,NA,NA,NA,NA,NA,NA,NA,NA,NA,NA,NA,NA,NA,NA,NA,NA,NA,NA,NA,NA,NA,NA,NA,NA,NA,NA,NA,NA,NA,NA,NA,NA,NA,NA,NA,10,0,10,0,1
SUPAMT04571,3LKC68YZ3G2SUENNDPRANVX2T52OWT,3A3C8882-AAD8-46C6-ADC3-6C10A3B3C700,2023-09-28_14h03.15.613,WP_VExplicitOC_HL,2022.2.5,Win32,16.12539104,100,5.6538,2.0284,NA,NA,NA,NA,NA,bored,"bored, not bored","more bored, less bored",NA,NA,NA,NA,NA,NA,NA,NA,NA,NA,NA,NA,NA,NA,NA,NA,NA,NA,NA,NA,NA,NA,NA,NA,NA,NA,NA,NA,NA,NA,NA,NA,NA,NA,NA,NA,NA,NA,0,0,0,2,1,NA,NA,NA,NA,NA
SUPAMT04571,3LKC68YZ3G2SUENNDPRANVX2T52OWT,3A3C8882-AAD8-46C6-ADC3-6C10A3B3C700,2023-09-28_14h03.15.613,WP_VExplicitOC_HL,2022.2.5,Win32,16.12539104,100,3.9476,2.022,NA,NA,NA,NA,NA,frustrated,"frustrated, not frustrated","more frustrated, less frustrated",NA,NA,NA,NA,NA,NA,NA,NA,NA,NA,NA,NA,NA,NA,NA,NA,NA,NA,NA,NA,NA,NA,NA,NA,NA,NA,NA,NA,NA,NA,NA,NA,NA,NA,NA,NA,NA,NA,0,1,1,1,1,NA,NA,NA,NA,NA
SUPAMT04571,3LKC68YZ3G2SUENNDPRANVX2T52OWT,3A3C8882-AAD8-46C6-ADC3-6C10A3B3C700,2023-09-28_14h03.15.613,WP_VExplicitOC_HL,2022.2.5,Win32,16.12539104,100,3.3329,2.0559,NA,NA,NA,NA,NA,happy,"unhappy, happy","less happy, more happy",NA,NA,NA,NA,NA,NA,NA,NA,NA,NA,NA,NA,NA,NA,NA,NA,NA,NA,NA,NA,NA,NA,NA,NA,NA,NA,NA,NA,NA,NA,NA,NA,NA,NA,NA,NA,NA,NA,0,2,2,0,1,NA,NA,NA,NA,NA
SUPAMT04571,3LKC68YZ3G2SUENNDPRANVX2T52OWT,3A3C8882-AAD8-46C6-ADC3-6C10A3B3C700,2023-09-28_14h03.15.613,WP_VExplicitOC_HL,2022.2.5,Win32,16.12539104,NA,NA,NA,NA,NA,NA,NA,NA,NA,NA,NA,NA,NA,NA,NA,NA,NA,NA,NA,NA,NA,NA,NA,NA,NA,NA,NA,NA,NA,NA,NA,NA,NA,NA,NA,NA,NA,NA,NA,NA,NA,NA,NA,NA,NA,NA,NA,NA,NA,NA,NA,NA,NA,NA,11,0,11,0,1
SUPAMT04571,3LKC68YZ3G2SUENNDPRANVX2T52OWT,3A3C8882-AAD8-46C6-ADC3-6C10A3B3C700,2023-09-28_14h03.15.613,WP_VExplicitOC_HL,2022.2.5,Win32,16.12539104,NA,NA,2.043,NA,NA,NA,NA,NA,bored,"bored, not bored","more bored, less bored",NA,NA,NA,NA,NA,NA,NA,NA,NA,NA,NA,NA,NA,NA,NA,NA,NA,NA,NA,NA,NA,NA,NA,NA,NA,NA,NA,NA,NA,NA,NA,NA,NA,NA,NA,NA,NA,NA,0,0,0,2,1,NA,NA,NA,NA,NA
SUPAMT04571,3LKC68YZ3G2SUENNDPRANVX2T52OWT,3A3C8882-AAD8-46C6-ADC3-6C10A3B3C700,2023-09-28_14h03.15.613,WP_VExplicitOC_HL,2022.2.5,Win32,16.12539104,NA,NA,2.0782,NA,NA,NA,NA,NA,happy,"unhappy, happy","less happy, more happy",NA,NA,NA,NA,NA,NA,NA,NA,NA,NA,NA,NA,NA,NA,NA,NA,NA,NA,NA,NA,NA,NA,NA,NA,NA,NA,NA,NA,NA,NA,NA,NA,NA,NA,NA,NA,NA,NA,0,1,1,0,1,NA,NA,NA,NA,NA
SUPAMT04571,3LKC68YZ3G2SUENNDPRANVX2T52OWT,3A3C8882-AAD8-46C6-ADC3-6C10A3B3C700,2023-09-28_14h03.15.613,WP_VExplicitOC_HL,2022.2.5,Win32,16.12539104,100,6.6843,2.0788,NA,NA,NA,NA,NA,frustrated,"frustrated, not frustrated","more frustrated, less frustrated",NA,NA,NA,NA,NA,NA,NA,NA,NA,NA,NA,NA,NA,NA,NA,NA,NA,NA,NA,NA,NA,NA,NA,NA,NA,NA,NA,NA,NA,NA,NA,NA,NA,NA,NA,NA,NA,NA,0,2,2,1,1,NA,NA,NA,NA,NA
SUPAMT04571,3LKC68YZ3G2SUENNDPRANVX2T52OWT,3A3C8882-AAD8-46C6-ADC3-6C10A3B3C700,2023-09-28_14h03.15.613,WP_VExplicitOC_HL,2022.2.5,Win32,16.12539104,NA,NA,NA,NA,NA,NA,NA,NA,NA,NA,NA,NA,NA,NA,NA,NA,NA,NA,NA,NA,NA,NA,NA,NA,NA,NA,NA,NA,NA,NA,NA,NA,NA,NA,NA,NA,NA,NA,NA,NA,NA,NA,NA,NA,NA,NA,NA,NA,NA,NA,NA,NA,NA,NA,12,0,12,0,1
SUPAMT04571,3LKC68YZ3G2SUENNDPRANVX2T52OWT,3A3C8882-AAD8-46C6-ADC3-6C10A3B3C700,2023-09-28_14h03.15.613,WP_VExplicitOC_HL,2022.2.5,Win32,16.12539104,NA,NA,2.0715,NA,NA,NA,NA,NA,bored,"bored, not bored","more bored, less bored",NA,NA,NA,NA,NA,NA,NA,NA,NA,NA,NA,NA,NA,NA,NA,NA,NA,NA,NA,NA,NA,NA,NA,NA,NA,NA,NA,NA,NA,NA,NA,NA,NA,NA,NA,NA,NA,NA,0,0,0,2,1,NA,NA,NA,NA,NA
SUPAMT04571,3LKC68YZ3G2SUENNDPRANVX2T52OWT,3A3C8882-AAD8-46C6-ADC3-6C10A3B3C700,2023-09-28_14h03.15.613,WP_VExplicitOC_HL,2022.2.5,Win32,16.12539104,100,5.7714,2.137,NA,NA,NA,NA,NA,happy,"unhappy, happy","less happy, more happy",NA,NA,NA,NA,NA,NA,NA,NA,NA,NA,NA,NA,NA,NA,NA,NA,NA,NA,NA,NA,NA,NA,NA,NA,NA,NA,NA,NA,NA,NA,NA,NA,NA,NA,NA,NA,NA,NA,0,1,1,0,1,NA,NA,NA,NA,NA
SUPAMT04571,3LKC68YZ3G2SUENNDPRANVX2T52OWT,3A3C8882-AAD8-46C6-ADC3-6C10A3B3C700,2023-09-28_14h03.15.613,WP_VExplicitOC_HL,2022.2.5,Win32,16.12539104,100,4.6733,2.0518,NA,NA,NA,NA,NA,frustrated,"frustrated, not frustrated","more frustrated, less frustrated",NA,NA,NA,NA,NA,NA,NA,NA,NA,NA,NA,NA,NA,NA,NA,NA,NA,NA,NA,NA,NA,NA,NA,NA,NA,NA,NA,NA,NA,NA,NA,NA,NA,NA,NA,NA,NA,NA,0,2,2,1,1,NA,NA,NA,NA,NA
SUPAMT04571,3LKC68YZ3G2SUENNDPRANVX2T52OWT,3A3C8882-AAD8-46C6-ADC3-6C10A3B3C700,2023-09-28_14h03.15.613,WP_VExplicitOC_HL,2022.2.5,Win32,16.12539104,NA,NA,NA,NA,NA,NA,NA,NA,NA,NA,NA,NA,NA,NA,NA,NA,NA,NA,NA,NA,NA,NA,NA,NA,NA,NA,NA,NA,NA,NA,NA,NA,NA,NA,NA,NA,NA,NA,NA,NA,NA,NA,NA,NA,NA,NA,NA,NA,NA,NA,NA,NA,NA,NA,13,0,13,0,1
SUPAMT04571,3LKC68YZ3G2SUENNDPRANVX2T52OWT,3A3C8882-AAD8-46C6-ADC3-6C10A3B3C700,2023-09-28_14h03.15.613,WP_VExplicitOC_HL,2022.2.5,Win32,16.12539104,100,4.5448,2.0854,NA,NA,NA,NA,NA,frustrated,"frustrated, not frustrated","more frustrated, less frustrated",NA,NA,NA,NA,NA,NA,NA,NA,NA,NA,NA,NA,NA,NA,NA,NA,NA,NA,NA,NA,NA,NA,NA,NA,NA,NA,NA,NA,NA,NA,NA,NA,NA,NA,NA,NA,NA,NA,0,0,0,1,1,NA,NA,NA,NA,NA
SUPAMT04571,3LKC68YZ3G2SUENNDPRANVX2T52OWT,3A3C8882-AAD8-46C6-ADC3-6C10A3B3C700,2023-09-28_14h03.15.613,WP_VExplicitOC_HL,2022.2.5,Win32,16.12539104,100,3.391,2.0797,NA,NA,NA,NA,NA,happy,"unhappy, happy","less happy, more happy",NA,NA,NA,NA,NA,NA,NA,NA,NA,NA,NA,NA,NA,NA,NA,NA,NA,NA,NA,NA,NA,NA,NA,NA,NA,NA,NA,NA,NA,NA,NA,NA,NA,NA,NA,NA,NA,NA,0,1,1,0,1,NA,NA,NA,NA,NA
SUPAMT04571,3LKC68YZ3G2SUENNDPRANVX2T52OWT,3A3C8882-AAD8-46C6-ADC3-6C10A3B3C700,2023-09-28_14h03.15.613,WP_VExplicitOC_HL,2022.2.5,Win32,16.12539104,100,5.0948,2.0856,NA,NA,NA,NA,NA,bored,"bored, not bored","more bored, less bored",NA,NA,NA,NA,NA,NA,NA,NA,NA,NA,NA,NA,NA,NA,NA,NA,NA,NA,NA,NA,NA,NA,NA,NA,NA,NA,NA,NA,NA,NA,NA,NA,NA,NA,NA,NA,NA,NA,0,2,2,2,1,NA,NA,NA,NA,NA
SUPAMT04571,3LKC68YZ3G2SUENNDPRANVX2T52OWT,3A3C8882-AAD8-46C6-ADC3-6C10A3B3C700,2023-09-28_14h03.15.613,WP_VExplicitOC_HL,2022.2.5,Win32,16.12539104,NA,NA,NA,NA,NA,NA,NA,NA,NA,NA,NA,NA,NA,NA,NA,NA,NA,NA,NA,NA,NA,NA,NA,NA,NA,NA,NA,NA,NA,NA,NA,NA,NA,NA,NA,NA,NA,NA,NA,NA,NA,NA,NA,NA,NA,NA,NA,NA,NA,NA,NA,NA,NA,NA,14,0,14,0,1
SUPAMT04571,3LKC68YZ3G2SUENNDPRANVX2T52OWT,3A3C8882-AAD8-46C6-ADC3-6C10A3B3C700,2023-09-28_14h03.15.613,WP_VExplicitOC_HL,2022.2.5,Win32,16.12539104,NA,NA,NA,NA,NA,NA,NA,NA,NA,NA,NA,NA,NA,NA,NA,NA,NA,NA,NA,NA,NA,NA,NA,NA,NA,NA,NA,NA,NA,NA,NA,NA,NA,NA,NA,NA,NA,NA,NA,NA,NA,NA,NA,NA,NA,NA,NA,NA,NA,NA,NA,NA,NA,NA,NA,NA,NA,NA,NA
