participant,session,completion,date,expName,psychopyVersion,OS,frameRate,rating_all.response,rating_all.rt,rating_all.tStart,rndRat1.thisRepN,rndRat1.thisTrialN,rndRat1.thisN,rndRat1.thisIndex,rndRat1.ran,Emo,Labs,Labs2,rating_alt.response,rating_alt.rt,AltC.thisRepN,AltC.thisTrialN,AltC.thisN,AltC.thisIndex,AltC.ran,alt_choices,pic_choices,BottomAlt_Choice,rndRat2.thisRepN,rndRat2.thisTrialN,rndRat2.thisN,rndRat2.thisIndex,rndRat2.ran,rndRat3.thisRepN,rndRat3.thisTrialN,rndRat3.thisN,rndRat3.thisIndex,rndRat3.ran,trials_FC_L.thisRepN,trials_FC_L.thisTrialN,trials_FC_L.thisN,trials_FC_L.thisIndex,trials_FC_L.ran,rating_alt_2.response,rating_alt_2.rt,AltC2.thisRepN,AltC2.thisTrialN,AltC2.thisN,AltC2.thisIndex,AltC2.ran,TopAlt_Choice,rndRat4.thisRepN,rndRat4.thisTrialN,rndRat4.thisN,rndRat4.thisIndex,rndRat4.ran,rndRat5.thisRepN,rndRat5.thisTrialN,rndRat5.thisN,rndRat5.thisIndex,rndRat5.ran,trials_FC_H.thisRepN,trials_FC_H.thisTrialN,trials_FC_H.thisN,trials_FC_H.thisIndex,trials_FC_H.ran
SUPAMT62293,374TNBHA8HUZ4VV37312XXDIIYYYQR,E6DB9CB5-36FE-458F-999A-923E506FDE60,2023-09-26_06h27.31.134,WP_VExplicitOC_LH,2022.2.5,Win32,20.98459731,NA,NA,NA,NA,NA,NA,NA,NA,NA,NA,NA,NA,NA,NA,NA,NA,NA,NA,NA,NA,NA,NA,NA,NA,NA,NA,NA,NA,NA,NA,NA,NA,NA,NA,NA,NA,NA,NA,NA,NA,NA,NA,NA,NA,NA,NA,NA,NA,NA,NA,NA,NA,NA,NA,NA,NA,NA,NA,NA
SUPAMT62293,374TNBHA8HUZ4VV37312XXDIIYYYQR,E6DB9CB5-36FE-458F-999A-923E506FDE60,2023-09-26_06h27.31.134,WP_VExplicitOC_LH,2022.2.5,Win32,20.98459731,NA,NA,NA,NA,NA,NA,NA,NA,NA,NA,NA,NA,NA,NA,NA,NA,NA,NA,NA,NA,NA,NA,NA,NA,NA,NA,NA,NA,NA,NA,NA,NA,NA,NA,NA,NA,NA,NA,NA,NA,NA,NA,NA,NA,NA,NA,NA,NA,NA,NA,NA,NA,NA,NA,NA,NA,NA,NA,NA
SUPAMT62293,374TNBHA8HUZ4VV37312XXDIIYYYQR,E6DB9CB5-36FE-458F-999A-923E506FDE60,2023-09-26_06h27.31.134,WP_VExplicitOC_LH,2022.2.5,Win32,20.98459731,NA,NA,NA,NA,NA,NA,NA,NA,NA,NA,NA,NA,NA,NA,NA,NA,NA,NA,NA,NA,NA,NA,NA,NA,NA,NA,NA,NA,NA,NA,NA,NA,NA,NA,NA,NA,NA,NA,NA,NA,NA,NA,NA,NA,NA,NA,NA,NA,NA,NA,NA,NA,NA,NA,NA,NA,NA,NA,NA
SUPAMT62293,374TNBHA8HUZ4VV37312XXDIIYYYQR,E6DB9CB5-36FE-458F-999A-923E506FDE60,2023-09-26_06h27.31.134,WP_VExplicitOC_LH,2022.2.5,Win32,20.98459731,100,4.374700001,2.0361,0,0,0,0,1,happy,"unhappy, happy","less happy, more happy",NA,NA,NA,NA,NA,NA,NA,NA,NA,NA,NA,NA,NA,NA,NA,NA,NA,NA,NA,NA,NA,NA,NA,NA,NA,NA,NA,NA,NA,NA,NA,NA,NA,NA,NA,NA,NA,NA,NA,NA,NA,NA,NA,NA,NA,NA,NA,NA
SUPAMT62293,374TNBHA8HUZ4VV37312XXDIIYYYQR,E6DB9CB5-36FE-458F-999A-923E506FDE60,2023-09-26_06h27.31.134,WP_VExplicitOC_LH,2022.2.5,Win32,20.98459731,76.75,3.3733,2.018599999,0,1,1,1,1,frustrated,"frustrated, not frustrated","more frustrated, less frustrated",NA,NA,NA,NA,NA,NA,NA,NA,NA,NA,NA,NA,NA,NA,NA,NA,NA,NA,NA,NA,NA,NA,NA,NA,NA,NA,NA,NA,NA,NA,NA,NA,NA,NA,NA,NA,NA,NA,NA,NA,NA,NA,NA,NA,NA,NA,NA,NA
SUPAMT62293,374TNBHA8HUZ4VV37312XXDIIYYYQR,E6DB9CB5-36FE-458F-999A-923E506FDE60,2023-09-26_06h27.31.134,WP_VExplicitOC_LH,2022.2.5,Win32,20.98459731,98,3.5168,2.0161,0,2,2,2,1,bored,"bored, not bored","more bored, less bored",NA,NA,NA,NA,NA,NA,NA,NA,NA,NA,NA,NA,NA,NA,NA,NA,NA,NA,NA,NA,NA,NA,NA,NA,NA,NA,NA,NA,NA,NA,NA,NA,NA,NA,NA,NA,NA,NA,NA,NA,NA,NA,NA,NA,NA,NA,NA,NA
SUPAMT62293,374TNBHA8HUZ4VV37312XXDIIYYYQR,E6DB9CB5-36FE-458F-999A-923E506FDE60,2023-09-26_06h27.31.134,WP_VExplicitOC_LH,2022.2.5,Win32,20.98459731,NA,NA,NA,NA,NA,NA,NA,NA,NA,NA,NA,NA,NA,NA,NA,NA,NA,NA,NA,NA,NA,NA,NA,NA,NA,NA,NA,NA,NA,NA,NA,NA,NA,NA,NA,NA,NA,NA,NA,NA,NA,NA,NA,NA,NA,NA,NA,NA,NA,NA,NA,NA,NA,NA,NA,NA,NA,NA,NA
SUPAMT62293,374TNBHA8HUZ4VV37312XXDIIYYYQR,E6DB9CB5-36FE-458F-999A-923E506FDE60,2023-09-26_06h27.31.134,WP_VExplicitOC_LH,2022.2.5,Win32,20.98459731,NA,NA,NA,NA,NA,NA,NA,NA,NA,NA,NA,NA,NA,NA,NA,NA,NA,NA,NA,NA,NA,NA,NA,NA,NA,NA,NA,NA,NA,NA,NA,NA,NA,NA,NA,NA,NA,NA,NA,NA,NA,NA,NA,NA,NA,NA,NA,NA,NA,NA,NA,NA,NA,NA,NA,NA,NA,NA,NA
SUPAMT62293,374TNBHA8HUZ4VV37312XXDIIYYYQR,E6DB9CB5-36FE-458F-999A-923E506FDE60,2023-09-26_06h27.31.134,WP_VExplicitOC_LH,2022.2.5,Win32,20.98459731,NA,NA,NA,NA,NA,NA,NA,NA,NA,NA,NA,NA,NA,NA,NA,NA,NA,NA,NA,NA,NA,NA,NA,NA,NA,NA,NA,NA,NA,NA,NA,NA,NA,NA,NA,NA,NA,NA,NA,NA,NA,NA,NA,NA,NA,NA,NA,NA,NA,NA,NA,NA,NA,NA,NA,NA,NA,NA,NA
SUPAMT62293,374TNBHA8HUZ4VV37312XXDIIYYYQR,E6DB9CB5-36FE-458F-999A-923E506FDE60,2023-09-26_06h27.31.134,WP_VExplicitOC_LH,2022.2.5,Win32,20.98459731,NA,NA,NA,NA,NA,NA,NA,NA,NA,NA,NA,NA,NA,NA,NA,NA,NA,NA,NA,NA,NA,NA,NA,NA,NA,NA,NA,NA,NA,NA,NA,NA,NA,NA,NA,NA,NA,NA,NA,NA,NA,NA,NA,NA,NA,NA,NA,NA,NA,NA,NA,NA,NA,NA,NA,NA,NA,NA,NA
SUPAMT62293,374TNBHA8HUZ4VV37312XXDIIYYYQR,E6DB9CB5-36FE-458F-999A-923E506FDE60,2023-09-26_06h27.31.134,WP_VExplicitOC_LH,2022.2.5,Win32,20.98459731,NA,NA,NA,NA,NA,NA,NA,NA,NA,NA,NA,93.25,2.592400001,0,0,0,0,1,rest (looking at a fixed cross),001.png,NA,NA,NA,NA,NA,NA,NA,NA,NA,NA,NA,NA,NA,NA,NA,NA,NA,NA,NA,NA,NA,NA,NA,NA,NA,NA,NA,NA,NA,NA,NA,NA,NA,NA,NA,NA,NA,NA,NA
SUPAMT62293,374TNBHA8HUZ4VV37312XXDIIYYYQR,E6DB9CB5-36FE-458F-999A-923E506FDE60,2023-09-26_06h27.31.134,WP_VExplicitOC_LH,2022.2.5,Win32,20.98459731,NA,NA,NA,NA,NA,NA,NA,NA,NA,NA,NA,51.75,1.3865,0,1,1,1,1,stand up,002.png,NA,NA,NA,NA,NA,NA,NA,NA,NA,NA,NA,NA,NA,NA,NA,NA,NA,NA,NA,NA,NA,NA,NA,NA,NA,NA,NA,NA,NA,NA,NA,NA,NA,NA,NA,NA,NA,NA,NA
SUPAMT62293,374TNBHA8HUZ4VV37312XXDIIYYYQR,E6DB9CB5-36FE-458F-999A-923E506FDE60,2023-09-26_06h27.31.134,WP_VExplicitOC_LH,2022.2.5,Win32,20.98459731,NA,NA,NA,NA,NA,NA,NA,NA,NA,NA,NA,55.75,1.2145,0,2,2,2,1,stretch,003.png,NA,NA,NA,NA,NA,NA,NA,NA,NA,NA,NA,NA,NA,NA,NA,NA,NA,NA,NA,NA,NA,NA,NA,NA,NA,NA,NA,NA,NA,NA,NA,NA,NA,NA,NA,NA,NA,NA,NA
SUPAMT62293,374TNBHA8HUZ4VV37312XXDIIYYYQR,E6DB9CB5-36FE-458F-999A-923E506FDE60,2023-09-26_06h27.31.134,WP_VExplicitOC_LH,2022.2.5,Win32,20.98459731,NA,NA,NA,NA,NA,NA,NA,NA,NA,NA,NA,65,1.0442,0,3,3,3,1,make a drink,004.png,NA,NA,NA,NA,NA,NA,NA,NA,NA,NA,NA,NA,NA,NA,NA,NA,NA,NA,NA,NA,NA,NA,NA,NA,NA,NA,NA,NA,NA,NA,NA,NA,NA,NA,NA,NA,NA,NA,NA
SUPAMT62293,374TNBHA8HUZ4VV37312XXDIIYYYQR,E6DB9CB5-36FE-458F-999A-923E506FDE60,2023-09-26_06h27.31.134,WP_VExplicitOC_LH,2022.2.5,Win32,20.98459731,NA,NA,NA,NA,NA,NA,NA,NA,NA,NA,NA,77.75,1.317799999,0,4,4,4,1,scroll social media,005.png,NA,NA,NA,NA,NA,NA,NA,NA,NA,NA,NA,NA,NA,NA,NA,NA,NA,NA,NA,NA,NA,NA,NA,NA,NA,NA,NA,NA,NA,NA,NA,NA,NA,NA,NA,NA,NA,NA,NA
SUPAMT62293,374TNBHA8HUZ4VV37312XXDIIYYYQR,E6DB9CB5-36FE-458F-999A-923E506FDE60,2023-09-26_06h27.31.134,WP_VExplicitOC_LH,2022.2.5,Win32,20.98459731,NA,NA,NA,NA,NA,NA,NA,NA,NA,NA,NA,70.25,0.961599999,0,5,5,5,1,listen to music,006.png,NA,NA,NA,NA,NA,NA,NA,NA,NA,NA,NA,NA,NA,NA,NA,NA,NA,NA,NA,NA,NA,NA,NA,NA,NA,NA,NA,NA,NA,NA,NA,NA,NA,NA,NA,NA,NA,NA,NA
SUPAMT62293,374TNBHA8HUZ4VV37312XXDIIYYYQR,E6DB9CB5-36FE-458F-999A-923E506FDE60,2023-09-26_06h27.31.134,WP_VExplicitOC_LH,2022.2.5,Win32,20.98459731,NA,NA,NA,NA,NA,NA,NA,NA,NA,NA,NA,83.25,0.906099999,0,6,6,6,1,daydream,007.png,NA,NA,NA,NA,NA,NA,NA,NA,NA,NA,NA,NA,NA,NA,NA,NA,NA,NA,NA,NA,NA,NA,NA,NA,NA,NA,NA,NA,NA,NA,NA,NA,NA,NA,NA,NA,NA,NA,NA
SUPAMT62293,374TNBHA8HUZ4VV37312XXDIIYYYQR,E6DB9CB5-36FE-458F-999A-923E506FDE60,2023-09-26_06h27.31.134,WP_VExplicitOC_LH,2022.2.5,Win32,20.98459731,NA,NA,NA,NA,NA,NA,NA,NA,NA,NA,NA,74.5,1.2795,0,7,7,7,1,watch a short animation,008.png,NA,NA,NA,NA,NA,NA,NA,NA,NA,NA,NA,NA,NA,NA,NA,NA,NA,NA,NA,NA,NA,NA,NA,NA,NA,NA,NA,NA,NA,NA,NA,NA,NA,NA,NA,NA,NA,NA,NA
SUPAMT62293,374TNBHA8HUZ4VV37312XXDIIYYYQR,E6DB9CB5-36FE-458F-999A-923E506FDE60,2023-09-26_06h27.31.134,WP_VExplicitOC_LH,2022.2.5,Win32,20.98459731,NA,NA,NA,NA,NA,NA,NA,NA,NA,NA,NA,80.25,1.0677,0,8,8,8,1,read a novel,009.png,NA,NA,NA,NA,NA,NA,NA,NA,NA,NA,NA,NA,NA,NA,NA,NA,NA,NA,NA,NA,NA,NA,NA,NA,NA,NA,NA,NA,NA,NA,NA,NA,NA,NA,NA,NA,NA,NA,NA
SUPAMT62293,374TNBHA8HUZ4VV37312XXDIIYYYQR,E6DB9CB5-36FE-458F-999A-923E506FDE60,2023-09-26_06h27.31.134,WP_VExplicitOC_LH,2022.2.5,Win32,20.98459731,NA,NA,NA,NA,NA,NA,NA,NA,NA,NA,NA,95.75,2.2548,0,9,9,9,1,read the news,010.png,NA,NA,NA,NA,NA,NA,NA,NA,NA,NA,NA,NA,NA,NA,NA,NA,NA,NA,NA,NA,NA,NA,NA,NA,NA,NA,NA,NA,NA,NA,NA,NA,NA,NA,NA,NA,NA,NA,NA
SUPAMT62293,374TNBHA8HUZ4VV37312XXDIIYYYQR,E6DB9CB5-36FE-458F-999A-923E506FDE60,2023-09-26_06h27.31.134,WP_VExplicitOC_LH,2022.2.5,Win32,20.98459731,NA,NA,NA,NA,NA,NA,NA,NA,NA,NA,NA,NA,NA,NA,NA,NA,NA,NA,NA,NA,NA,NA,NA,NA,NA,NA,NA,NA,NA,NA,NA,NA,NA,NA,NA,NA,NA,NA,NA,NA,NA,NA,NA,NA,NA,NA,NA,NA,NA,NA,NA,NA,NA,NA,NA,NA,NA,NA,NA
SUPAMT62293,374TNBHA8HUZ4VV37312XXDIIYYYQR,E6DB9CB5-36FE-458F-999A-923E506FDE60,2023-09-26_06h27.31.134,WP_VExplicitOC_LH,2022.2.5,Win32,20.98459731,NA,NA,NA,NA,NA,NA,NA,NA,NA,NA,NA,NA,NA,NA,NA,NA,NA,NA,NA,NA,stand up,NA,NA,NA,NA,NA,NA,NA,NA,NA,NA,NA,NA,NA,NA,NA,NA,NA,NA,NA,NA,NA,NA,NA,NA,NA,NA,NA,NA,NA,NA,NA,NA,NA,NA,NA,NA,NA,NA
SUPAMT62293,374TNBHA8HUZ4VV37312XXDIIYYYQR,E6DB9CB5-36FE-458F-999A-923E506FDE60,2023-09-26_06h27.31.134,WP_VExplicitOC_LH,2022.2.5,Win32,20.98459731,NA,NA,5.4506,NA,NA,NA,NA,NA,bored,"bored, not bored","more bored, less bored",NA,NA,NA,NA,NA,NA,NA,NA,NA,NA,0,0,0,2,1,NA,NA,NA,NA,NA,NA,NA,NA,NA,NA,NA,NA,NA,NA,NA,NA,NA,NA,NA,NA,NA,NA,NA,NA,NA,NA,NA,NA,NA,NA,NA,NA,NA
SUPAMT62293,374TNBHA8HUZ4VV37312XXDIIYYYQR,E6DB9CB5-36FE-458F-999A-923E506FDE60,2023-09-26_06h27.31.134,WP_VExplicitOC_LH,2022.2.5,Win32,20.98459731,100,3.8723,2.0302,NA,NA,NA,NA,NA,happy,"unhappy, happy","less happy, more happy",NA,NA,NA,NA,NA,NA,NA,NA,NA,NA,0,1,1,0,1,NA,NA,NA,NA,NA,NA,NA,NA,NA,NA,NA,NA,NA,NA,NA,NA,NA,NA,NA,NA,NA,NA,NA,NA,NA,NA,NA,NA,NA,NA,NA,NA,NA
SUPAMT62293,374TNBHA8HUZ4VV37312XXDIIYYYQR,E6DB9CB5-36FE-458F-999A-923E506FDE60,2023-09-26_06h27.31.134,WP_VExplicitOC_LH,2022.2.5,Win32,20.98459731,100,3.3186,2.0589,NA,NA,NA,NA,NA,frustrated,"frustrated, not frustrated","more frustrated, less frustrated",NA,NA,NA,NA,NA,NA,NA,NA,NA,NA,0,2,2,1,1,NA,NA,NA,NA,NA,NA,NA,NA,NA,NA,NA,NA,NA,NA,NA,NA,NA,NA,NA,NA,NA,NA,NA,NA,NA,NA,NA,NA,NA,NA,NA,NA,NA
SUPAMT62293,374TNBHA8HUZ4VV37312XXDIIYYYQR,E6DB9CB5-36FE-458F-999A-923E506FDE60,2023-09-26_06h27.31.134,WP_VExplicitOC_LH,2022.2.5,Win32,20.98459731,NA,NA,NA,NA,NA,NA,NA,NA,NA,NA,NA,NA,NA,NA,NA,NA,NA,NA,NA,NA,NA,NA,NA,NA,NA,NA,NA,NA,NA,NA,NA,NA,NA,NA,NA,NA,NA,NA,NA,NA,NA,NA,NA,NA,NA,NA,NA,NA,NA,NA,NA,NA,NA,NA,NA,NA,NA,NA,NA
SUPAMT62293,374TNBHA8HUZ4VV37312XXDIIYYYQR,E6DB9CB5-36FE-458F-999A-923E506FDE60,2023-09-26_06h27.31.134,WP_VExplicitOC_LH,2022.2.5,Win32,20.98459731,NA,NA,NA,NA,NA,NA,NA,NA,NA,NA,NA,NA,NA,NA,NA,NA,NA,NA,NA,NA,NA,NA,NA,NA,NA,NA,NA,NA,NA,NA,NA,NA,NA,NA,NA,NA,NA,NA,NA,NA,NA,NA,NA,NA,NA,NA,NA,NA,NA,NA,NA,NA,NA,NA,NA,NA,NA,NA,NA
SUPAMT62293,374TNBHA8HUZ4VV37312XXDIIYYYQR,E6DB9CB5-36FE-458F-999A-923E506FDE60,2023-09-26_06h27.31.134,WP_VExplicitOC_LH,2022.2.5,Win32,20.98459731,100,3.7884,2.0302,NA,NA,NA,NA,NA,bored,"bored, not bored","more bored, less bored",NA,NA,NA,NA,NA,NA,NA,NA,NA,NA,NA,NA,NA,NA,NA,0,0,0,2,1,NA,NA,NA,NA,NA,NA,NA,NA,NA,NA,NA,NA,NA,NA,NA,NA,NA,NA,NA,NA,NA,NA,NA,NA,NA,NA,NA,NA
SUPAMT62293,374TNBHA8HUZ4VV37312XXDIIYYYQR,E6DB9CB5-36FE-458F-999A-923E506FDE60,2023-09-26_06h27.31.134,WP_VExplicitOC_LH,2022.2.5,Win32,20.98459731,100,3.4567,2.0237,NA,NA,NA,NA,NA,happy,"unhappy, happy","less happy, more happy",NA,NA,NA,NA,NA,NA,NA,NA,NA,NA,NA,NA,NA,NA,NA,0,1,1,0,1,NA,NA,NA,NA,NA,NA,NA,NA,NA,NA,NA,NA,NA,NA,NA,NA,NA,NA,NA,NA,NA,NA,NA,NA,NA,NA,NA,NA
SUPAMT62293,374TNBHA8HUZ4VV37312XXDIIYYYQR,E6DB9CB5-36FE-458F-999A-923E506FDE60,2023-09-26_06h27.31.134,WP_VExplicitOC_LH,2022.2.5,Win32,20.98459731,100,3.288599999,2.031799999,NA,NA,NA,NA,NA,frustrated,"frustrated, not frustrated","more frustrated, less frustrated",NA,NA,NA,NA,NA,NA,NA,NA,NA,NA,NA,NA,NA,NA,NA,0,2,2,1,1,NA,NA,NA,NA,NA,NA,NA,NA,NA,NA,NA,NA,NA,NA,NA,NA,NA,NA,NA,NA,NA,NA,NA,NA,NA,NA,NA,NA
SUPAMT62293,374TNBHA8HUZ4VV37312XXDIIYYYQR,E6DB9CB5-36FE-458F-999A-923E506FDE60,2023-09-26_06h27.31.134,WP_VExplicitOC_LH,2022.2.5,Win32,20.98459731,NA,NA,NA,NA,NA,NA,NA,NA,NA,NA,NA,NA,NA,NA,NA,NA,NA,NA,NA,NA,NA,NA,NA,NA,NA,NA,NA,NA,NA,NA,NA,0,0,0,0,1,NA,NA,NA,NA,NA,NA,NA,NA,NA,NA,NA,NA,NA,NA,NA,NA,NA,NA,NA,NA,NA,NA,NA
SUPAMT62293,374TNBHA8HUZ4VV37312XXDIIYYYQR,E6DB9CB5-36FE-458F-999A-923E506FDE60,2023-09-26_06h27.31.134,WP_VExplicitOC_LH,2022.2.5,Win32,20.98459731,100,3.395700001,2.0445,NA,NA,NA,NA,NA,bored,"bored, not bored","more bored, less bored",NA,NA,NA,NA,NA,NA,NA,NA,NA,NA,NA,NA,NA,NA,NA,0,0,0,2,1,NA,NA,NA,NA,NA,NA,NA,NA,NA,NA,NA,NA,NA,NA,NA,NA,NA,NA,NA,NA,NA,NA,NA,NA,NA,NA,NA,NA
SUPAMT62293,374TNBHA8HUZ4VV37312XXDIIYYYQR,E6DB9CB5-36FE-458F-999A-923E506FDE60,2023-09-26_06h27.31.134,WP_VExplicitOC_LH,2022.2.5,Win32,20.98459731,100,5.2334,2.0452,NA,NA,NA,NA,NA,happy,"unhappy, happy","less happy, more happy",NA,NA,NA,NA,NA,NA,NA,NA,NA,NA,NA,NA,NA,NA,NA,0,1,1,0,1,NA,NA,NA,NA,NA,NA,NA,NA,NA,NA,NA,NA,NA,NA,NA,NA,NA,NA,NA,NA,NA,NA,NA,NA,NA,NA,NA,NA
SUPAMT62293,374TNBHA8HUZ4VV37312XXDIIYYYQR,E6DB9CB5-36FE-458F-999A-923E506FDE60,2023-09-26_06h27.31.134,WP_VExplicitOC_LH,2022.2.5,Win32,20.98459731,97.5,3.8309,2.0454,NA,NA,NA,NA,NA,frustrated,"frustrated, not frustrated","more frustrated, less frustrated",NA,NA,NA,NA,NA,NA,NA,NA,NA,NA,NA,NA,NA,NA,NA,0,2,2,1,1,NA,NA,NA,NA,NA,NA,NA,NA,NA,NA,NA,NA,NA,NA,NA,NA,NA,NA,NA,NA,NA,NA,NA,NA,NA,NA,NA,NA
SUPAMT62293,374TNBHA8HUZ4VV37312XXDIIYYYQR,E6DB9CB5-36FE-458F-999A-923E506FDE60,2023-09-26_06h27.31.134,WP_VExplicitOC_LH,2022.2.5,Win32,20.98459731,NA,NA,NA,NA,NA,NA,NA,NA,NA,NA,NA,NA,NA,NA,NA,NA,NA,NA,NA,NA,NA,NA,NA,NA,NA,NA,NA,NA,NA,NA,NA,1,0,1,0,1,NA,NA,NA,NA,NA,NA,NA,NA,NA,NA,NA,NA,NA,NA,NA,NA,NA,NA,NA,NA,NA,NA,NA
SUPAMT62293,374TNBHA8HUZ4VV37312XXDIIYYYQR,E6DB9CB5-36FE-458F-999A-923E506FDE60,2023-09-26_06h27.31.134,WP_VExplicitOC_LH,2022.2.5,Win32,20.98459731,100,3.4872,2.0228,NA,NA,NA,NA,NA,frustrated,"frustrated, not frustrated","more frustrated, less frustrated",NA,NA,NA,NA,NA,NA,NA,NA,NA,NA,NA,NA,NA,NA,NA,0,0,0,1,1,NA,NA,NA,NA,NA,NA,NA,NA,NA,NA,NA,NA,NA,NA,NA,NA,NA,NA,NA,NA,NA,NA,NA,NA,NA,NA,NA,NA
SUPAMT62293,374TNBHA8HUZ4VV37312XXDIIYYYQR,E6DB9CB5-36FE-458F-999A-923E506FDE60,2023-09-26_06h27.31.134,WP_VExplicitOC_LH,2022.2.5,Win32,20.98459731,100,3.344,2.0245,NA,NA,NA,NA,NA,bored,"bored, not bored","more bored, less bored",NA,NA,NA,NA,NA,NA,NA,NA,NA,NA,NA,NA,NA,NA,NA,0,1,1,2,1,NA,NA,NA,NA,NA,NA,NA,NA,NA,NA,NA,NA,NA,NA,NA,NA,NA,NA,NA,NA,NA,NA,NA,NA,NA,NA,NA,NA
SUPAMT62293,374TNBHA8HUZ4VV37312XXDIIYYYQR,E6DB9CB5-36FE-458F-999A-923E506FDE60,2023-09-26_06h27.31.134,WP_VExplicitOC_LH,2022.2.5,Win32,20.98459731,100,7.4613,2.0303,NA,NA,NA,NA,NA,happy,"unhappy, happy","less happy, more happy",NA,NA,NA,NA,NA,NA,NA,NA,NA,NA,NA,NA,NA,NA,NA,0,2,2,0,1,NA,NA,NA,NA,NA,NA,NA,NA,NA,NA,NA,NA,NA,NA,NA,NA,NA,NA,NA,NA,NA,NA,NA,NA,NA,NA,NA,NA
SUPAMT62293,374TNBHA8HUZ4VV37312XXDIIYYYQR,E6DB9CB5-36FE-458F-999A-923E506FDE60,2023-09-26_06h27.31.134,WP_VExplicitOC_LH,2022.2.5,Win32,20.98459731,NA,NA,NA,NA,NA,NA,NA,NA,NA,NA,NA,NA,NA,NA,NA,NA,NA,NA,NA,NA,NA,NA,NA,NA,NA,NA,NA,NA,NA,NA,NA,2,0,2,0,1,NA,NA,NA,NA,NA,NA,NA,NA,NA,NA,NA,NA,NA,NA,NA,NA,NA,NA,NA,NA,NA,NA,NA
SUPAMT62293,374TNBHA8HUZ4VV37312XXDIIYYYQR,E6DB9CB5-36FE-458F-999A-923E506FDE60,2023-09-26_06h27.31.134,WP_VExplicitOC_LH,2022.2.5,Win32,20.98459731,100,3.409900001,2.0618,NA,NA,NA,NA,NA,frustrated,"frustrated, not frustrated","more frustrated, less frustrated",NA,NA,NA,NA,NA,NA,NA,NA,NA,NA,NA,NA,NA,NA,NA,0,0,0,1,1,NA,NA,NA,NA,NA,NA,NA,NA,NA,NA,NA,NA,NA,NA,NA,NA,NA,NA,NA,NA,NA,NA,NA,NA,NA,NA,NA,NA
SUPAMT62293,374TNBHA8HUZ4VV37312XXDIIYYYQR,E6DB9CB5-36FE-458F-999A-923E506FDE60,2023-09-26_06h27.31.134,WP_VExplicitOC_LH,2022.2.5,Win32,20.98459731,100,6.0696,2.0017,NA,NA,NA,NA,NA,bored,"bored, not bored","more bored, less bored",NA,NA,NA,NA,NA,NA,NA,NA,NA,NA,NA,NA,NA,NA,NA,0,1,1,2,1,NA,NA,NA,NA,NA,NA,NA,NA,NA,NA,NA,NA,NA,NA,NA,NA,NA,NA,NA,NA,NA,NA,NA,NA,NA,NA,NA,NA
SUPAMT62293,374TNBHA8HUZ4VV37312XXDIIYYYQR,E6DB9CB5-36FE-458F-999A-923E506FDE60,2023-09-26_06h27.31.134,WP_VExplicitOC_LH,2022.2.5,Win32,20.98459731,100,3.3225,2.0332,NA,NA,NA,NA,NA,happy,"unhappy, happy","less happy, more happy",NA,NA,NA,NA,NA,NA,NA,NA,NA,NA,NA,NA,NA,NA,NA,0,2,2,0,1,NA,NA,NA,NA,NA,NA,NA,NA,NA,NA,NA,NA,NA,NA,NA,NA,NA,NA,NA,NA,NA,NA,NA,NA,NA,NA,NA,NA
SUPAMT62293,374TNBHA8HUZ4VV37312XXDIIYYYQR,E6DB9CB5-36FE-458F-999A-923E506FDE60,2023-09-26_06h27.31.134,WP_VExplicitOC_LH,2022.2.5,Win32,20.98459731,NA,NA,NA,NA,NA,NA,NA,NA,NA,NA,NA,NA,NA,NA,NA,NA,NA,NA,NA,NA,NA,NA,NA,NA,NA,NA,NA,NA,NA,NA,NA,3,0,3,0,1,NA,NA,NA,NA,NA,NA,NA,NA,NA,NA,NA,NA,NA,NA,NA,NA,NA,NA,NA,NA,NA,NA,NA
SUPAMT62293,374TNBHA8HUZ4VV37312XXDIIYYYQR,E6DB9CB5-36FE-458F-999A-923E506FDE60,2023-09-26_06h27.31.134,WP_VExplicitOC_LH,2022.2.5,Win32,20.98459731,100,6.5898,2.0068,NA,NA,NA,NA,NA,bored,"bored, not bored","more bored, less bored",NA,NA,NA,NA,NA,NA,NA,NA,NA,NA,NA,NA,NA,NA,NA,0,0,0,2,1,NA,NA,NA,NA,NA,NA,NA,NA,NA,NA,NA,NA,NA,NA,NA,NA,NA,NA,NA,NA,NA,NA,NA,NA,NA,NA,NA,NA
SUPAMT62293,374TNBHA8HUZ4VV37312XXDIIYYYQR,E6DB9CB5-36FE-458F-999A-923E506FDE60,2023-09-26_06h27.31.134,WP_VExplicitOC_LH,2022.2.5,Win32,20.98459731,100,3.9785,2.0419,NA,NA,NA,NA,NA,happy,"unhappy, happy","less happy, more happy",NA,NA,NA,NA,NA,NA,NA,NA,NA,NA,NA,NA,NA,NA,NA,0,1,1,0,1,NA,NA,NA,NA,NA,NA,NA,NA,NA,NA,NA,NA,NA,NA,NA,NA,NA,NA,NA,NA,NA,NA,NA,NA,NA,NA,NA,NA
SUPAMT62293,374TNBHA8HUZ4VV37312XXDIIYYYQR,E6DB9CB5-36FE-458F-999A-923E506FDE60,2023-09-26_06h27.31.134,WP_VExplicitOC_LH,2022.2.5,Win32,20.98459731,100,3.286200001,2.0276,NA,NA,NA,NA,NA,frustrated,"frustrated, not frustrated","more frustrated, less frustrated",NA,NA,NA,NA,NA,NA,NA,NA,NA,NA,NA,NA,NA,NA,NA,0,2,2,1,1,NA,NA,NA,NA,NA,NA,NA,NA,NA,NA,NA,NA,NA,NA,NA,NA,NA,NA,NA,NA,NA,NA,NA,NA,NA,NA,NA,NA
SUPAMT62293,374TNBHA8HUZ4VV37312XXDIIYYYQR,E6DB9CB5-36FE-458F-999A-923E506FDE60,2023-09-26_06h27.31.134,WP_VExplicitOC_LH,2022.2.5,Win32,20.98459731,NA,NA,NA,NA,NA,NA,NA,NA,NA,NA,NA,NA,NA,NA,NA,NA,NA,NA,NA,NA,NA,NA,NA,NA,NA,NA,NA,NA,NA,NA,NA,4,0,4,0,1,NA,NA,NA,NA,NA,NA,NA,NA,NA,NA,NA,NA,NA,NA,NA,NA,NA,NA,NA,NA,NA,NA,NA
SUPAMT62293,374TNBHA8HUZ4VV37312XXDIIYYYQR,E6DB9CB5-36FE-458F-999A-923E506FDE60,2023-09-26_06h27.31.134,WP_VExplicitOC_LH,2022.2.5,Win32,20.98459731,100,4.4925,2.0158,NA,NA,NA,NA,NA,happy,"unhappy, happy","less happy, more happy",NA,NA,NA,NA,NA,NA,NA,NA,NA,NA,NA,NA,NA,NA,NA,0,0,0,0,1,NA,NA,NA,NA,NA,NA,NA,NA,NA,NA,NA,NA,NA,NA,NA,NA,NA,NA,NA,NA,NA,NA,NA,NA,NA,NA,NA,NA
SUPAMT62293,374TNBHA8HUZ4VV37312XXDIIYYYQR,E6DB9CB5-36FE-458F-999A-923E506FDE60,2023-09-26_06h27.31.134,WP_VExplicitOC_LH,2022.2.5,Win32,20.98459731,100,3.479599999,2.014299999,NA,NA,NA,NA,NA,frustrated,"frustrated, not frustrated","more frustrated, less frustrated",NA,NA,NA,NA,NA,NA,NA,NA,NA,NA,NA,NA,NA,NA,NA,0,1,1,1,1,NA,NA,NA,NA,NA,NA,NA,NA,NA,NA,NA,NA,NA,NA,NA,NA,NA,NA,NA,NA,NA,NA,NA,NA,NA,NA,NA,NA
SUPAMT62293,374TNBHA8HUZ4VV37312XXDIIYYYQR,E6DB9CB5-36FE-458F-999A-923E506FDE60,2023-09-26_06h27.31.134,WP_VExplicitOC_LH,2022.2.5,Win32,20.98459731,100,3.196700001,2.0302,NA,NA,NA,NA,NA,bored,"bored, not bored","more bored, less bored",NA,NA,NA,NA,NA,NA,NA,NA,NA,NA,NA,NA,NA,NA,NA,0,2,2,2,1,NA,NA,NA,NA,NA,NA,NA,NA,NA,NA,NA,NA,NA,NA,NA,NA,NA,NA,NA,NA,NA,NA,NA,NA,NA,NA,NA,NA
SUPAMT62293,374TNBHA8HUZ4VV37312XXDIIYYYQR,E6DB9CB5-36FE-458F-999A-923E506FDE60,2023-09-26_06h27.31.134,WP_VExplicitOC_LH,2022.2.5,Win32,20.98459731,NA,NA,NA,NA,NA,NA,NA,NA,NA,NA,NA,NA,NA,NA,NA,NA,NA,NA,NA,NA,NA,NA,NA,NA,NA,NA,NA,NA,NA,NA,NA,5,0,5,0,1,NA,NA,NA,NA,NA,NA,NA,NA,NA,NA,NA,NA,NA,NA,NA,NA,NA,NA,NA,NA,NA,NA,NA
SUPAMT62293,374TNBHA8HUZ4VV37312XXDIIYYYQR,E6DB9CB5-36FE-458F-999A-923E506FDE60,2023-09-26_06h27.31.134,WP_VExplicitOC_LH,2022.2.5,Win32,20.98459731,100,3.552400001,2.0295,NA,NA,NA,NA,NA,bored,"bored, not bored","more bored, less bored",NA,NA,NA,NA,NA,NA,NA,NA,NA,NA,NA,NA,NA,NA,NA,0,0,0,2,1,NA,NA,NA,NA,NA,NA,NA,NA,NA,NA,NA,NA,NA,NA,NA,NA,NA,NA,NA,NA,NA,NA,NA,NA,NA,NA,NA,NA
SUPAMT62293,374TNBHA8HUZ4VV37312XXDIIYYYQR,E6DB9CB5-36FE-458F-999A-923E506FDE60,2023-09-26_06h27.31.134,WP_VExplicitOC_LH,2022.2.5,Win32,20.98459731,100,3.1123,2.009700001,NA,NA,NA,NA,NA,happy,"unhappy, happy","less happy, more happy",NA,NA,NA,NA,NA,NA,NA,NA,NA,NA,NA,NA,NA,NA,NA,0,1,1,0,1,NA,NA,NA,NA,NA,NA,NA,NA,NA,NA,NA,NA,NA,NA,NA,NA,NA,NA,NA,NA,NA,NA,NA,NA,NA,NA,NA,NA
SUPAMT62293,374TNBHA8HUZ4VV37312XXDIIYYYQR,E6DB9CB5-36FE-458F-999A-923E506FDE60,2023-09-26_06h27.31.134,WP_VExplicitOC_LH,2022.2.5,Win32,20.98459731,100,3.2372,2.053400001,NA,NA,NA,NA,NA,frustrated,"frustrated, not frustrated","more frustrated, less frustrated",NA,NA,NA,NA,NA,NA,NA,NA,NA,NA,NA,NA,NA,NA,NA,0,2,2,1,1,NA,NA,NA,NA,NA,NA,NA,NA,NA,NA,NA,NA,NA,NA,NA,NA,NA,NA,NA,NA,NA,NA,NA,NA,NA,NA,NA,NA
SUPAMT62293,374TNBHA8HUZ4VV37312XXDIIYYYQR,E6DB9CB5-36FE-458F-999A-923E506FDE60,2023-09-26_06h27.31.134,WP_VExplicitOC_LH,2022.2.5,Win32,20.98459731,NA,NA,NA,NA,NA,NA,NA,NA,NA,NA,NA,NA,NA,NA,NA,NA,NA,NA,NA,NA,NA,NA,NA,NA,NA,NA,NA,NA,NA,NA,NA,6,0,6,0,1,NA,NA,NA,NA,NA,NA,NA,NA,NA,NA,NA,NA,NA,NA,NA,NA,NA,NA,NA,NA,NA,NA,NA
SUPAMT62293,374TNBHA8HUZ4VV37312XXDIIYYYQR,E6DB9CB5-36FE-458F-999A-923E506FDE60,2023-09-26_06h27.31.134,WP_VExplicitOC_LH,2022.2.5,Win32,20.98459731,100,4.521,2.0041,NA,NA,NA,NA,NA,bored,"bored, not bored","more bored, less bored",NA,NA,NA,NA,NA,NA,NA,NA,NA,NA,NA,NA,NA,NA,NA,0,0,0,2,1,NA,NA,NA,NA,NA,NA,NA,NA,NA,NA,NA,NA,NA,NA,NA,NA,NA,NA,NA,NA,NA,NA,NA,NA,NA,NA,NA,NA
SUPAMT62293,374TNBHA8HUZ4VV37312XXDIIYYYQR,E6DB9CB5-36FE-458F-999A-923E506FDE60,2023-09-26_06h27.31.134,WP_VExplicitOC_LH,2022.2.5,Win32,20.98459731,100,4.1109,2.005599999,NA,NA,NA,NA,NA,frustrated,"frustrated, not frustrated","more frustrated, less frustrated",NA,NA,NA,NA,NA,NA,NA,NA,NA,NA,NA,NA,NA,NA,NA,0,1,1,1,1,NA,NA,NA,NA,NA,NA,NA,NA,NA,NA,NA,NA,NA,NA,NA,NA,NA,NA,NA,NA,NA,NA,NA,NA,NA,NA,NA,NA
SUPAMT62293,374TNBHA8HUZ4VV37312XXDIIYYYQR,E6DB9CB5-36FE-458F-999A-923E506FDE60,2023-09-26_06h27.31.134,WP_VExplicitOC_LH,2022.2.5,Win32,20.98459731,100,4.5438,2.0275,NA,NA,NA,NA,NA,happy,"unhappy, happy","less happy, more happy",NA,NA,NA,NA,NA,NA,NA,NA,NA,NA,NA,NA,NA,NA,NA,0,2,2,0,1,NA,NA,NA,NA,NA,NA,NA,NA,NA,NA,NA,NA,NA,NA,NA,NA,NA,NA,NA,NA,NA,NA,NA,NA,NA,NA,NA,NA
SUPAMT62293,374TNBHA8HUZ4VV37312XXDIIYYYQR,E6DB9CB5-36FE-458F-999A-923E506FDE60,2023-09-26_06h27.31.134,WP_VExplicitOC_LH,2022.2.5,Win32,20.98459731,NA,NA,NA,NA,NA,NA,NA,NA,NA,NA,NA,NA,NA,NA,NA,NA,NA,NA,NA,NA,NA,NA,NA,NA,NA,NA,NA,NA,NA,NA,NA,7,0,7,0,1,NA,NA,NA,NA,NA,NA,NA,NA,NA,NA,NA,NA,NA,NA,NA,NA,NA,NA,NA,NA,NA,NA,NA
SUPAMT62293,374TNBHA8HUZ4VV37312XXDIIYYYQR,E6DB9CB5-36FE-458F-999A-923E506FDE60,2023-09-26_06h27.31.134,WP_VExplicitOC_LH,2022.2.5,Win32,20.98459731,NA,NA,2.029700001,NA,NA,NA,NA,NA,bored,"bored, not bored","more bored, less bored",NA,NA,NA,NA,NA,NA,NA,NA,NA,NA,NA,NA,NA,NA,NA,0,0,0,2,1,NA,NA,NA,NA,NA,NA,NA,NA,NA,NA,NA,NA,NA,NA,NA,NA,NA,NA,NA,NA,NA,NA,NA,NA,NA,NA,NA,NA
SUPAMT62293,374TNBHA8HUZ4VV37312XXDIIYYYQR,E6DB9CB5-36FE-458F-999A-923E506FDE60,2023-09-26_06h27.31.134,WP_VExplicitOC_LH,2022.2.5,Win32,20.98459731,100,3.1617,2.0194,NA,NA,NA,NA,NA,frustrated,"frustrated, not frustrated","more frustrated, less frustrated",NA,NA,NA,NA,NA,NA,NA,NA,NA,NA,NA,NA,NA,NA,NA,0,1,1,1,1,NA,NA,NA,NA,NA,NA,NA,NA,NA,NA,NA,NA,NA,NA,NA,NA,NA,NA,NA,NA,NA,NA,NA,NA,NA,NA,NA,NA
SUPAMT62293,374TNBHA8HUZ4VV37312XXDIIYYYQR,E6DB9CB5-36FE-458F-999A-923E506FDE60,2023-09-26_06h27.31.134,WP_VExplicitOC_LH,2022.2.5,Win32,20.98459731,94.75,3.2098,2.0222,NA,NA,NA,NA,NA,happy,"unhappy, happy","less happy, more happy",NA,NA,NA,NA,NA,NA,NA,NA,NA,NA,NA,NA,NA,NA,NA,0,2,2,0,1,NA,NA,NA,NA,NA,NA,NA,NA,NA,NA,NA,NA,NA,NA,NA,NA,NA,NA,NA,NA,NA,NA,NA,NA,NA,NA,NA,NA
SUPAMT62293,374TNBHA8HUZ4VV37312XXDIIYYYQR,E6DB9CB5-36FE-458F-999A-923E506FDE60,2023-09-26_06h27.31.134,WP_VExplicitOC_LH,2022.2.5,Win32,20.98459731,NA,NA,NA,NA,NA,NA,NA,NA,NA,NA,NA,NA,NA,NA,NA,NA,NA,NA,NA,NA,NA,NA,NA,NA,NA,NA,NA,NA,NA,NA,NA,8,0,8,0,1,NA,NA,NA,NA,NA,NA,NA,NA,NA,NA,NA,NA,NA,NA,NA,NA,NA,NA,NA,NA,NA,NA,NA
SUPAMT62293,374TNBHA8HUZ4VV37312XXDIIYYYQR,E6DB9CB5-36FE-458F-999A-923E506FDE60,2023-09-26_06h27.31.134,WP_VExplicitOC_LH,2022.2.5,Win32,20.98459731,100,3.321099999,2.0708,NA,NA,NA,NA,NA,frustrated,"frustrated, not frustrated","more frustrated, less frustrated",NA,NA,NA,NA,NA,NA,NA,NA,NA,NA,NA,NA,NA,NA,NA,0,0,0,1,1,NA,NA,NA,NA,NA,NA,NA,NA,NA,NA,NA,NA,NA,NA,NA,NA,NA,NA,NA,NA,NA,NA,NA,NA,NA,NA,NA,NA
SUPAMT62293,374TNBHA8HUZ4VV37312XXDIIYYYQR,E6DB9CB5-36FE-458F-999A-923E506FDE60,2023-09-26_06h27.31.134,WP_VExplicitOC_LH,2022.2.5,Win32,20.98459731,100,3.5386,2.0167,NA,NA,NA,NA,NA,bored,"bored, not bored","more bored, less bored",NA,NA,NA,NA,NA,NA,NA,NA,NA,NA,NA,NA,NA,NA,NA,0,1,1,2,1,NA,NA,NA,NA,NA,NA,NA,NA,NA,NA,NA,NA,NA,NA,NA,NA,NA,NA,NA,NA,NA,NA,NA,NA,NA,NA,NA,NA
SUPAMT62293,374TNBHA8HUZ4VV37312XXDIIYYYQR,E6DB9CB5-36FE-458F-999A-923E506FDE60,2023-09-26_06h27.31.134,WP_VExplicitOC_LH,2022.2.5,Win32,20.98459731,100,3.503,2.0445,NA,NA,NA,NA,NA,happy,"unhappy, happy","less happy, more happy",NA,NA,NA,NA,NA,NA,NA,NA,NA,NA,NA,NA,NA,NA,NA,0,2,2,0,1,NA,NA,NA,NA,NA,NA,NA,NA,NA,NA,NA,NA,NA,NA,NA,NA,NA,NA,NA,NA,NA,NA,NA,NA,NA,NA,NA,NA
SUPAMT62293,374TNBHA8HUZ4VV37312XXDIIYYYQR,E6DB9CB5-36FE-458F-999A-923E506FDE60,2023-09-26_06h27.31.134,WP_VExplicitOC_LH,2022.2.5,Win32,20.98459731,NA,NA,NA,NA,NA,NA,NA,NA,NA,NA,NA,NA,NA,NA,NA,NA,NA,NA,NA,NA,NA,NA,NA,NA,NA,NA,NA,NA,NA,NA,NA,9,0,9,0,1,NA,NA,NA,NA,NA,NA,NA,NA,NA,NA,NA,NA,NA,NA,NA,NA,NA,NA,NA,NA,NA,NA,NA
SUPAMT62293,374TNBHA8HUZ4VV37312XXDIIYYYQR,E6DB9CB5-36FE-458F-999A-923E506FDE60,2023-09-26_06h27.31.134,WP_VExplicitOC_LH,2022.2.5,Win32,20.98459731,100,3.3717,2.0559,NA,NA,NA,NA,NA,bored,"bored, not bored","more bored, less bored",NA,NA,NA,NA,NA,NA,NA,NA,NA,NA,NA,NA,NA,NA,NA,0,0,0,2,1,NA,NA,NA,NA,NA,NA,NA,NA,NA,NA,NA,NA,NA,NA,NA,NA,NA,NA,NA,NA,NA,NA,NA,NA,NA,NA,NA,NA
SUPAMT62293,374TNBHA8HUZ4VV37312XXDIIYYYQR,E6DB9CB5-36FE-458F-999A-923E506FDE60,2023-09-26_06h27.31.134,WP_VExplicitOC_LH,2022.2.5,Win32,20.98459731,NA,NA,2.053400001,NA,NA,NA,NA,NA,frustrated,"frustrated, not frustrated","more frustrated, less frustrated",NA,NA,NA,NA,NA,NA,NA,NA,NA,NA,NA,NA,NA,NA,NA,0,1,1,1,1,NA,NA,NA,NA,NA,NA,NA,NA,NA,NA,NA,NA,NA,NA,NA,NA,NA,NA,NA,NA,NA,NA,NA,NA,NA,NA,NA,NA
SUPAMT62293,374TNBHA8HUZ4VV37312XXDIIYYYQR,E6DB9CB5-36FE-458F-999A-923E506FDE60,2023-09-26_06h27.31.134,WP_VExplicitOC_LH,2022.2.5,Win32,20.98459731,97,5.9942,2.0712,NA,NA,NA,NA,NA,happy,"unhappy, happy","less happy, more happy",NA,NA,NA,NA,NA,NA,NA,NA,NA,NA,NA,NA,NA,NA,NA,0,2,2,0,1,NA,NA,NA,NA,NA,NA,NA,NA,NA,NA,NA,NA,NA,NA,NA,NA,NA,NA,NA,NA,NA,NA,NA,NA,NA,NA,NA,NA
SUPAMT62293,374TNBHA8HUZ4VV37312XXDIIYYYQR,E6DB9CB5-36FE-458F-999A-923E506FDE60,2023-09-26_06h27.31.134,WP_VExplicitOC_LH,2022.2.5,Win32,20.98459731,NA,NA,NA,NA,NA,NA,NA,NA,NA,NA,NA,NA,NA,NA,NA,NA,NA,NA,NA,NA,NA,NA,NA,NA,NA,NA,NA,NA,NA,NA,NA,10,0,10,0,1,NA,NA,NA,NA,NA,NA,NA,NA,NA,NA,NA,NA,NA,NA,NA,NA,NA,NA,NA,NA,NA,NA,NA
SUPAMT62293,374TNBHA8HUZ4VV37312XXDIIYYYQR,E6DB9CB5-36FE-458F-999A-923E506FDE60,2023-09-26_06h27.31.134,WP_VExplicitOC_LH,2022.2.5,Win32,20.98459731,100,3.5451,2.062599999,NA,NA,NA,NA,NA,bored,"bored, not bored","more bored, less bored",NA,NA,NA,NA,NA,NA,NA,NA,NA,NA,NA,NA,NA,NA,NA,0,0,0,2,1,NA,NA,NA,NA,NA,NA,NA,NA,NA,NA,NA,NA,NA,NA,NA,NA,NA,NA,NA,NA,NA,NA,NA,NA,NA,NA,NA,NA
SUPAMT62293,374TNBHA8HUZ4VV37312XXDIIYYYQR,E6DB9CB5-36FE-458F-999A-923E506FDE60,2023-09-26_06h27.31.134,WP_VExplicitOC_LH,2022.2.5,Win32,20.98459731,100,3.1983,2.023700001,NA,NA,NA,NA,NA,happy,"unhappy, happy","less happy, more happy",NA,NA,NA,NA,NA,NA,NA,NA,NA,NA,NA,NA,NA,NA,NA,0,1,1,0,1,NA,NA,NA,NA,NA,NA,NA,NA,NA,NA,NA,NA,NA,NA,NA,NA,NA,NA,NA,NA,NA,NA,NA,NA,NA,NA,NA,NA
SUPAMT62293,374TNBHA8HUZ4VV37312XXDIIYYYQR,E6DB9CB5-36FE-458F-999A-923E506FDE60,2023-09-26_06h27.31.134,WP_VExplicitOC_LH,2022.2.5,Win32,20.98459731,100,3.3497,2.0251,NA,NA,NA,NA,NA,frustrated,"frustrated, not frustrated","more frustrated, less frustrated",NA,NA,NA,NA,NA,NA,NA,NA,NA,NA,NA,NA,NA,NA,NA,0,2,2,1,1,NA,NA,NA,NA,NA,NA,NA,NA,NA,NA,NA,NA,NA,NA,NA,NA,NA,NA,NA,NA,NA,NA,NA,NA,NA,NA,NA,NA
SUPAMT62293,374TNBHA8HUZ4VV37312XXDIIYYYQR,E6DB9CB5-36FE-458F-999A-923E506FDE60,2023-09-26_06h27.31.134,WP_VExplicitOC_LH,2022.2.5,Win32,20.98459731,NA,NA,NA,NA,NA,NA,NA,NA,NA,NA,NA,NA,NA,NA,NA,NA,NA,NA,NA,NA,NA,NA,NA,NA,NA,NA,NA,NA,NA,NA,NA,11,0,11,0,1,NA,NA,NA,NA,NA,NA,NA,NA,NA,NA,NA,NA,NA,NA,NA,NA,NA,NA,NA,NA,NA,NA,NA
SUPAMT62293,374TNBHA8HUZ4VV37312XXDIIYYYQR,E6DB9CB5-36FE-458F-999A-923E506FDE60,2023-09-26_06h27.31.134,WP_VExplicitOC_LH,2022.2.5,Win32,20.98459731,NA,NA,2.020099999,NA,NA,NA,NA,NA,bored,"bored, not bored","more bored, less bored",NA,NA,NA,NA,NA,NA,NA,NA,NA,NA,NA,NA,NA,NA,NA,0,0,0,2,1,NA,NA,NA,NA,NA,NA,NA,NA,NA,NA,NA,NA,NA,NA,NA,NA,NA,NA,NA,NA,NA,NA,NA,NA,NA,NA,NA,NA
SUPAMT62293,374TNBHA8HUZ4VV37312XXDIIYYYQR,E6DB9CB5-36FE-458F-999A-923E506FDE60,2023-09-26_06h27.31.134,WP_VExplicitOC_LH,2022.2.5,Win32,20.98459731,100,3.1767,2.0305,NA,NA,NA,NA,NA,frustrated,"frustrated, not frustrated","more frustrated, less frustrated",NA,NA,NA,NA,NA,NA,NA,NA,NA,NA,NA,NA,NA,NA,NA,0,1,1,1,1,NA,NA,NA,NA,NA,NA,NA,NA,NA,NA,NA,NA,NA,NA,NA,NA,NA,NA,NA,NA,NA,NA,NA,NA,NA,NA,NA,NA
SUPAMT62293,374TNBHA8HUZ4VV37312XXDIIYYYQR,E6DB9CB5-36FE-458F-999A-923E506FDE60,2023-09-26_06h27.31.134,WP_VExplicitOC_LH,2022.2.5,Win32,20.98459731,100,3.3022,2.0191,NA,NA,NA,NA,NA,happy,"unhappy, happy","less happy, more happy",NA,NA,NA,NA,NA,NA,NA,NA,NA,NA,NA,NA,NA,NA,NA,0,2,2,0,1,NA,NA,NA,NA,NA,NA,NA,NA,NA,NA,NA,NA,NA,NA,NA,NA,NA,NA,NA,NA,NA,NA,NA,NA,NA,NA,NA,NA
SUPAMT62293,374TNBHA8HUZ4VV37312XXDIIYYYQR,E6DB9CB5-36FE-458F-999A-923E506FDE60,2023-09-26_06h27.31.134,WP_VExplicitOC_LH,2022.2.5,Win32,20.98459731,NA,NA,NA,NA,NA,NA,NA,NA,NA,NA,NA,NA,NA,NA,NA,NA,NA,NA,NA,NA,NA,NA,NA,NA,NA,NA,NA,NA,NA,NA,NA,12,0,12,0,1,NA,NA,NA,NA,NA,NA,NA,NA,NA,NA,NA,NA,NA,NA,NA,NA,NA,NA,NA,NA,NA,NA,NA
SUPAMT62293,374TNBHA8HUZ4VV37312XXDIIYYYQR,E6DB9CB5-36FE-458F-999A-923E506FDE60,2023-09-26_06h27.31.134,WP_VExplicitOC_LH,2022.2.5,Win32,20.98459731,100,5.0737,2.043400001,NA,NA,NA,NA,NA,bored,"bored, not bored","more bored, less bored",NA,NA,NA,NA,NA,NA,NA,NA,NA,NA,NA,NA,NA,NA,NA,0,0,0,2,1,NA,NA,NA,NA,NA,NA,NA,NA,NA,NA,NA,NA,NA,NA,NA,NA,NA,NA,NA,NA,NA,NA,NA,NA,NA,NA,NA,NA
SUPAMT62293,374TNBHA8HUZ4VV37312XXDIIYYYQR,E6DB9CB5-36FE-458F-999A-923E506FDE60,2023-09-26_06h27.31.134,WP_VExplicitOC_LH,2022.2.5,Win32,20.98459731,100,3.287700001,2.0575,NA,NA,NA,NA,NA,frustrated,"frustrated, not frustrated","more frustrated, less frustrated",NA,NA,NA,NA,NA,NA,NA,NA,NA,NA,NA,NA,NA,NA,NA,0,1,1,1,1,NA,NA,NA,NA,NA,NA,NA,NA,NA,NA,NA,NA,NA,NA,NA,NA,NA,NA,NA,NA,NA,NA,NA,NA,NA,NA,NA,NA
SUPAMT62293,374TNBHA8HUZ4VV37312XXDIIYYYQR,E6DB9CB5-36FE-458F-999A-923E506FDE60,2023-09-26_06h27.31.134,WP_VExplicitOC_LH,2022.2.5,Win32,20.98459731,99.5,3.259400001,2.023099999,NA,NA,NA,NA,NA,happy,"unhappy, happy","less happy, more happy",NA,NA,NA,NA,NA,NA,NA,NA,NA,NA,NA,NA,NA,NA,NA,0,2,2,0,1,NA,NA,NA,NA,NA,NA,NA,NA,NA,NA,NA,NA,NA,NA,NA,NA,NA,NA,NA,NA,NA,NA,NA,NA,NA,NA,NA,NA
SUPAMT62293,374TNBHA8HUZ4VV37312XXDIIYYYQR,E6DB9CB5-36FE-458F-999A-923E506FDE60,2023-09-26_06h27.31.134,WP_VExplicitOC_LH,2022.2.5,Win32,20.98459731,NA,NA,NA,NA,NA,NA,NA,NA,NA,NA,NA,NA,NA,NA,NA,NA,NA,NA,NA,NA,NA,NA,NA,NA,NA,NA,NA,NA,NA,NA,NA,13,0,13,0,1,NA,NA,NA,NA,NA,NA,NA,NA,NA,NA,NA,NA,NA,NA,NA,NA,NA,NA,NA,NA,NA,NA,NA
SUPAMT62293,374TNBHA8HUZ4VV37312XXDIIYYYQR,E6DB9CB5-36FE-458F-999A-923E506FDE60,2023-09-26_06h27.31.134,WP_VExplicitOC_LH,2022.2.5,Win32,20.98459731,100,4.7412,2.0572,NA,NA,NA,NA,NA,bored,"bored, not bored","more bored, less bored",NA,NA,NA,NA,NA,NA,NA,NA,NA,NA,NA,NA,NA,NA,NA,0,0,0,2,1,NA,NA,NA,NA,NA,NA,NA,NA,NA,NA,NA,NA,NA,NA,NA,NA,NA,NA,NA,NA,NA,NA,NA,NA,NA,NA,NA,NA
SUPAMT62293,374TNBHA8HUZ4VV37312XXDIIYYYQR,E6DB9CB5-36FE-458F-999A-923E506FDE60,2023-09-26_06h27.31.134,WP_VExplicitOC_LH,2022.2.5,Win32,20.98459731,100,3.760799999,2.0212,NA,NA,NA,NA,NA,frustrated,"frustrated, not frustrated","more frustrated, less frustrated",NA,NA,NA,NA,NA,NA,NA,NA,NA,NA,NA,NA,NA,NA,NA,0,1,1,1,1,NA,NA,NA,NA,NA,NA,NA,NA,NA,NA,NA,NA,NA,NA,NA,NA,NA,NA,NA,NA,NA,NA,NA,NA,NA,NA,NA,NA
SUPAMT62293,374TNBHA8HUZ4VV37312XXDIIYYYQR,E6DB9CB5-36FE-458F-999A-923E506FDE60,2023-09-26_06h27.31.134,WP_VExplicitOC_LH,2022.2.5,Win32,20.98459731,100,3.4342,2.0582,NA,NA,NA,NA,NA,happy,"unhappy, happy","less happy, more happy",NA,NA,NA,NA,NA,NA,NA,NA,NA,NA,NA,NA,NA,NA,NA,0,2,2,0,1,NA,NA,NA,NA,NA,NA,NA,NA,NA,NA,NA,NA,NA,NA,NA,NA,NA,NA,NA,NA,NA,NA,NA,NA,NA,NA,NA,NA
SUPAMT62293,374TNBHA8HUZ4VV37312XXDIIYYYQR,E6DB9CB5-36FE-458F-999A-923E506FDE60,2023-09-26_06h27.31.134,WP_VExplicitOC_LH,2022.2.5,Win32,20.98459731,NA,NA,NA,NA,NA,NA,NA,NA,NA,NA,NA,NA,NA,NA,NA,NA,NA,NA,NA,NA,NA,NA,NA,NA,NA,NA,NA,NA,NA,NA,NA,14,0,14,0,1,NA,NA,NA,NA,NA,NA,NA,NA,NA,NA,NA,NA,NA,NA,NA,NA,NA,NA,NA,NA,NA,NA,NA
SUPAMT62293,374TNBHA8HUZ4VV37312XXDIIYYYQR,E6DB9CB5-36FE-458F-999A-923E506FDE60,2023-09-26_06h27.31.134,WP_VExplicitOC_LH,2022.2.5,Win32,20.98459731,NA,NA,NA,NA,NA,NA,NA,NA,NA,NA,NA,NA,NA,NA,NA,NA,NA,NA,NA,NA,NA,NA,NA,NA,NA,NA,NA,NA,NA,NA,NA,NA,NA,NA,NA,NA,NA,NA,NA,NA,NA,NA,NA,NA,NA,NA,NA,NA,NA,NA,NA,NA,NA,NA,NA,NA,NA,NA,NA
SUPAMT62293,374TNBHA8HUZ4VV37312XXDIIYYYQR,E6DB9CB5-36FE-458F-999A-923E506FDE60,2023-09-26_06h27.31.134,WP_VExplicitOC_LH,2022.2.5,Win32,20.98459731,NA,NA,NA,NA,NA,NA,NA,NA,NA,NA,NA,NA,NA,NA,NA,NA,NA,NA,NA,NA,NA,NA,NA,NA,NA,NA,NA,NA,NA,NA,NA,NA,NA,NA,NA,NA,NA,NA,NA,NA,NA,NA,NA,NA,NA,NA,NA,NA,NA,NA,NA,NA,NA,NA,NA,NA,NA,NA,NA
SUPAMT62293,374TNBHA8HUZ4VV37312XXDIIYYYQR,E6DB9CB5-36FE-458F-999A-923E506FDE60,2023-09-26_06h27.31.134,WP_VExplicitOC_LH,2022.2.5,Win32,20.98459731,NA,NA,NA,NA,NA,NA,NA,NA,NA,NA,NA,NA,NA,NA,NA,NA,NA,NA,rest (looking at a fixed cross),001.png,NA,NA,NA,NA,NA,NA,NA,NA,NA,NA,NA,NA,NA,NA,NA,NA,100,4.759900001,0,0,0,0,1,NA,NA,NA,NA,NA,NA,NA,NA,NA,NA,NA,NA,NA,NA,NA,NA
SUPAMT62293,374TNBHA8HUZ4VV37312XXDIIYYYQR,E6DB9CB5-36FE-458F-999A-923E506FDE60,2023-09-26_06h27.31.134,WP_VExplicitOC_LH,2022.2.5,Win32,20.98459731,NA,NA,NA,NA,NA,NA,NA,NA,NA,NA,NA,NA,NA,NA,NA,NA,NA,NA,stand up,002.png,NA,NA,NA,NA,NA,NA,NA,NA,NA,NA,NA,NA,NA,NA,NA,NA,44.75,1.5521,0,1,1,1,1,NA,NA,NA,NA,NA,NA,NA,NA,NA,NA,NA,NA,NA,NA,NA,NA
SUPAMT62293,374TNBHA8HUZ4VV37312XXDIIYYYQR,E6DB9CB5-36FE-458F-999A-923E506FDE60,2023-09-26_06h27.31.134,WP_VExplicitOC_LH,2022.2.5,Win32,20.98459731,NA,NA,NA,NA,NA,NA,NA,NA,NA,NA,NA,NA,NA,NA,NA,NA,NA,NA,stretch,003.png,NA,NA,NA,NA,NA,NA,NA,NA,NA,NA,NA,NA,NA,NA,NA,NA,61.75,1.2311,0,2,2,2,1,NA,NA,NA,NA,NA,NA,NA,NA,NA,NA,NA,NA,NA,NA,NA,NA
SUPAMT62293,374TNBHA8HUZ4VV37312XXDIIYYYQR,E6DB9CB5-36FE-458F-999A-923E506FDE60,2023-09-26_06h27.31.134,WP_VExplicitOC_LH,2022.2.5,Win32,20.98459731,NA,NA,NA,NA,NA,NA,NA,NA,NA,NA,NA,NA,NA,NA,NA,NA,NA,NA,make a drink,004.png,NA,NA,NA,NA,NA,NA,NA,NA,NA,NA,NA,NA,NA,NA,NA,NA,66.5,1.3895,0,3,3,3,1,NA,NA,NA,NA,NA,NA,NA,NA,NA,NA,NA,NA,NA,NA,NA,NA
SUPAMT62293,374TNBHA8HUZ4VV37312XXDIIYYYQR,E6DB9CB5-36FE-458F-999A-923E506FDE60,2023-09-26_06h27.31.134,WP_VExplicitOC_LH,2022.2.5,Win32,20.98459731,NA,NA,NA,NA,NA,NA,NA,NA,NA,NA,NA,NA,NA,NA,NA,NA,NA,NA,scroll social media,005.png,NA,NA,NA,NA,NA,NA,NA,NA,NA,NA,NA,NA,NA,NA,NA,NA,100,1.6187,0,4,4,4,1,NA,NA,NA,NA,NA,NA,NA,NA,NA,NA,NA,NA,NA,NA,NA,NA
SUPAMT62293,374TNBHA8HUZ4VV37312XXDIIYYYQR,E6DB9CB5-36FE-458F-999A-923E506FDE60,2023-09-26_06h27.31.134,WP_VExplicitOC_LH,2022.2.5,Win32,20.98459731,NA,NA,NA,NA,NA,NA,NA,NA,NA,NA,NA,NA,NA,NA,NA,NA,NA,NA,listen to music,006.png,NA,NA,NA,NA,NA,NA,NA,NA,NA,NA,NA,NA,NA,NA,NA,NA,54.75,1.3804,0,5,5,5,1,NA,NA,NA,NA,NA,NA,NA,NA,NA,NA,NA,NA,NA,NA,NA,NA
SUPAMT62293,374TNBHA8HUZ4VV37312XXDIIYYYQR,E6DB9CB5-36FE-458F-999A-923E506FDE60,2023-09-26_06h27.31.134,WP_VExplicitOC_LH,2022.2.5,Win32,20.98459731,NA,NA,NA,NA,NA,NA,NA,NA,NA,NA,NA,NA,NA,NA,NA,NA,NA,NA,daydream,007.png,NA,NA,NA,NA,NA,NA,NA,NA,NA,NA,NA,NA,NA,NA,NA,NA,61.75,1.167299999,0,6,6,6,1,NA,NA,NA,NA,NA,NA,NA,NA,NA,NA,NA,NA,NA,NA,NA,NA
SUPAMT62293,374TNBHA8HUZ4VV37312XXDIIYYYQR,E6DB9CB5-36FE-458F-999A-923E506FDE60,2023-09-26_06h27.31.134,WP_VExplicitOC_LH,2022.2.5,Win32,20.98459731,NA,NA,NA,NA,NA,NA,NA,NA,NA,NA,NA,NA,NA,NA,NA,NA,NA,NA,watch a short animation,008.png,NA,NA,NA,NA,NA,NA,NA,NA,NA,NA,NA,NA,NA,NA,NA,NA,72.25,1.3595,0,7,7,7,1,NA,NA,NA,NA,NA,NA,NA,NA,NA,NA,NA,NA,NA,NA,NA,NA
SUPAMT62293,374TNBHA8HUZ4VV37312XXDIIYYYQR,E6DB9CB5-36FE-458F-999A-923E506FDE60,2023-09-26_06h27.31.134,WP_VExplicitOC_LH,2022.2.5,Win32,20.98459731,NA,NA,NA,NA,NA,NA,NA,NA,NA,NA,NA,NA,NA,NA,NA,NA,NA,NA,read a novel,009.png,NA,NA,NA,NA,NA,NA,NA,NA,NA,NA,NA,NA,NA,NA,NA,NA,86.25,1.5643,0,8,8,8,1,NA,NA,NA,NA,NA,NA,NA,NA,NA,NA,NA,NA,NA,NA,NA,NA
SUPAMT62293,374TNBHA8HUZ4VV37312XXDIIYYYQR,E6DB9CB5-36FE-458F-999A-923E506FDE60,2023-09-26_06h27.31.134,WP_VExplicitOC_LH,2022.2.5,Win32,20.98459731,NA,NA,NA,NA,NA,NA,NA,NA,NA,NA,NA,NA,NA,NA,NA,NA,NA,NA,read the news,010.png,NA,NA,NA,NA,NA,NA,NA,NA,NA,NA,NA,NA,NA,NA,NA,NA,99.25,2.0297,0,9,9,9,1,NA,NA,NA,NA,NA,NA,NA,NA,NA,NA,NA,NA,NA,NA,NA,NA
SUPAMT62293,374TNBHA8HUZ4VV37312XXDIIYYYQR,E6DB9CB5-36FE-458F-999A-923E506FDE60,2023-09-26_06h27.31.134,WP_VExplicitOC_LH,2022.2.5,Win32,20.98459731,NA,NA,NA,NA,NA,NA,NA,NA,NA,NA,NA,NA,NA,NA,NA,NA,NA,NA,NA,NA,NA,NA,NA,NA,NA,NA,NA,NA,NA,NA,NA,NA,NA,NA,NA,NA,NA,NA,NA,NA,NA,NA,NA,scroll social media,NA,NA,NA,NA,NA,NA,NA,NA,NA,NA,NA,NA,NA,NA,NA
SUPAMT62293,374TNBHA8HUZ4VV37312XXDIIYYYQR,E6DB9CB5-36FE-458F-999A-923E506FDE60,2023-09-26_06h27.31.134,WP_VExplicitOC_LH,2022.2.5,Win32,20.98459731,NA,NA,2.0334,NA,NA,NA,NA,NA,happy,"unhappy, happy","less happy, more happy",NA,NA,NA,NA,NA,NA,NA,NA,NA,NA,NA,NA,NA,NA,NA,NA,NA,NA,NA,NA,NA,NA,NA,NA,NA,NA,NA,NA,NA,NA,NA,NA,NA,0,0,0,0,1,NA,NA,NA,NA,NA,NA,NA,NA,NA,NA
SUPAMT62293,374TNBHA8HUZ4VV37312XXDIIYYYQR,E6DB9CB5-36FE-458F-999A-923E506FDE60,2023-09-26_06h27.31.134,WP_VExplicitOC_LH,2022.2.5,Win32,20.98459731,NA,NA,2.012099999,NA,NA,NA,NA,NA,bored,"bored, not bored","more bored, less bored",NA,NA,NA,NA,NA,NA,NA,NA,NA,NA,NA,NA,NA,NA,NA,NA,NA,NA,NA,NA,NA,NA,NA,NA,NA,NA,NA,NA,NA,NA,NA,NA,NA,0,1,1,2,1,NA,NA,NA,NA,NA,NA,NA,NA,NA,NA
SUPAMT62293,374TNBHA8HUZ4VV37312XXDIIYYYQR,E6DB9CB5-36FE-458F-999A-923E506FDE60,2023-09-26_06h27.31.134,WP_VExplicitOC_LH,2022.2.5,Win32,20.98459731,100,5.2193,2.0346,NA,NA,NA,NA,NA,frustrated,"frustrated, not frustrated","more frustrated, less frustrated",NA,NA,NA,NA,NA,NA,NA,NA,NA,NA,NA,NA,NA,NA,NA,NA,NA,NA,NA,NA,NA,NA,NA,NA,NA,NA,NA,NA,NA,NA,NA,NA,NA,0,2,2,1,1,NA,NA,NA,NA,NA,NA,NA,NA,NA,NA
SUPAMT62293,374TNBHA8HUZ4VV37312XXDIIYYYQR,E6DB9CB5-36FE-458F-999A-923E506FDE60,2023-09-26_06h27.31.134,WP_VExplicitOC_LH,2022.2.5,Win32,20.98459731,NA,NA,NA,NA,NA,NA,NA,NA,NA,NA,NA,NA,NA,NA,NA,NA,NA,NA,NA,NA,NA,NA,NA,NA,NA,NA,NA,NA,NA,NA,NA,NA,NA,NA,NA,NA,NA,NA,NA,NA,NA,NA,NA,NA,NA,NA,NA,NA,NA,NA,NA,NA,NA,NA,NA,NA,NA,NA,NA
SUPAMT62293,374TNBHA8HUZ4VV37312XXDIIYYYQR,E6DB9CB5-36FE-458F-999A-923E506FDE60,2023-09-26_06h27.31.134,WP_VExplicitOC_LH,2022.2.5,Win32,20.98459731,NA,NA,NA,NA,NA,NA,NA,NA,NA,NA,NA,NA,NA,NA,NA,NA,NA,NA,NA,NA,NA,NA,NA,NA,NA,NA,NA,NA,NA,NA,NA,NA,NA,NA,NA,NA,NA,NA,NA,NA,NA,NA,NA,NA,NA,NA,NA,NA,NA,NA,NA,NA,NA,NA,NA,NA,NA,NA,NA
SUPAMT62293,374TNBHA8HUZ4VV37312XXDIIYYYQR,E6DB9CB5-36FE-458F-999A-923E506FDE60,2023-09-26_06h27.31.134,WP_VExplicitOC_LH,2022.2.5,Win32,20.98459731,100,5.434,2.048700001,NA,NA,NA,NA,NA,frustrated,"frustrated, not frustrated","more frustrated, less frustrated",NA,NA,NA,NA,NA,NA,NA,NA,NA,NA,NA,NA,NA,NA,NA,NA,NA,NA,NA,NA,NA,NA,NA,NA,NA,NA,NA,NA,NA,NA,NA,NA,NA,NA,NA,NA,NA,NA,0,0,0,1,1,NA,NA,NA,NA,NA
SUPAMT62293,374TNBHA8HUZ4VV37312XXDIIYYYQR,E6DB9CB5-36FE-458F-999A-923E506FDE60,2023-09-26_06h27.31.134,WP_VExplicitOC_LH,2022.2.5,Win32,20.98459731,85.75,3.289,2.0512,NA,NA,NA,NA,NA,happy,"unhappy, happy","less happy, more happy",NA,NA,NA,NA,NA,NA,NA,NA,NA,NA,NA,NA,NA,NA,NA,NA,NA,NA,NA,NA,NA,NA,NA,NA,NA,NA,NA,NA,NA,NA,NA,NA,NA,NA,NA,NA,NA,NA,0,1,1,0,1,NA,NA,NA,NA,NA
SUPAMT62293,374TNBHA8HUZ4VV37312XXDIIYYYQR,E6DB9CB5-36FE-458F-999A-923E506FDE60,2023-09-26_06h27.31.134,WP_VExplicitOC_LH,2022.2.5,Win32,20.98459731,100,3.416900001,2.0424,NA,NA,NA,NA,NA,bored,"bored, not bored","more bored, less bored",NA,NA,NA,NA,NA,NA,NA,NA,NA,NA,NA,NA,NA,NA,NA,NA,NA,NA,NA,NA,NA,NA,NA,NA,NA,NA,NA,NA,NA,NA,NA,NA,NA,NA,NA,NA,NA,NA,0,2,2,2,1,NA,NA,NA,NA,NA
SUPAMT62293,374TNBHA8HUZ4VV37312XXDIIYYYQR,E6DB9CB5-36FE-458F-999A-923E506FDE60,2023-09-26_06h27.31.134,WP_VExplicitOC_LH,2022.2.5,Win32,20.98459731,NA,NA,NA,NA,NA,NA,NA,NA,NA,NA,NA,NA,NA,NA,NA,NA,NA,NA,NA,NA,NA,NA,NA,NA,NA,NA,NA,NA,NA,NA,NA,NA,NA,NA,NA,NA,NA,NA,NA,NA,NA,NA,NA,NA,NA,NA,NA,NA,NA,NA,NA,NA,NA,NA,0,0,0,0,1
SUPAMT62293,374TNBHA8HUZ4VV37312XXDIIYYYQR,E6DB9CB5-36FE-458F-999A-923E506FDE60,2023-09-26_06h27.31.134,WP_VExplicitOC_LH,2022.2.5,Win32,20.98459731,96,3.788299999,2.0274,NA,NA,NA,NA,NA,frustrated,"frustrated, not frustrated","more frustrated, less frustrated",NA,NA,NA,NA,NA,NA,NA,NA,NA,NA,NA,NA,NA,NA,NA,NA,NA,NA,NA,NA,NA,NA,NA,NA,NA,NA,NA,NA,NA,NA,NA,NA,NA,NA,NA,NA,NA,NA,0,0,0,1,1,NA,NA,NA,NA,NA
SUPAMT62293,374TNBHA8HUZ4VV37312XXDIIYYYQR,E6DB9CB5-36FE-458F-999A-923E506FDE60,2023-09-26_06h27.31.134,WP_VExplicitOC_LH,2022.2.5,Win32,20.98459731,98,4.5042,2.048599999,NA,NA,NA,NA,NA,happy,"unhappy, happy","less happy, more happy",NA,NA,NA,NA,NA,NA,NA,NA,NA,NA,NA,NA,NA,NA,NA,NA,NA,NA,NA,NA,NA,NA,NA,NA,NA,NA,NA,NA,NA,NA,NA,NA,NA,NA,NA,NA,NA,NA,0,1,1,0,1,NA,NA,NA,NA,NA
SUPAMT62293,374TNBHA8HUZ4VV37312XXDIIYYYQR,E6DB9CB5-36FE-458F-999A-923E506FDE60,2023-09-26_06h27.31.134,WP_VExplicitOC_LH,2022.2.5,Win32,20.98459731,100,3.224,2.0436,NA,NA,NA,NA,NA,bored,"bored, not bored","more bored, less bored",NA,NA,NA,NA,NA,NA,NA,NA,NA,NA,NA,NA,NA,NA,NA,NA,NA,NA,NA,NA,NA,NA,NA,NA,NA,NA,NA,NA,NA,NA,NA,NA,NA,NA,NA,NA,NA,NA,0,2,2,2,1,NA,NA,NA,NA,NA
SUPAMT62293,374TNBHA8HUZ4VV37312XXDIIYYYQR,E6DB9CB5-36FE-458F-999A-923E506FDE60,2023-09-26_06h27.31.134,WP_VExplicitOC_LH,2022.2.5,Win32,20.98459731,NA,NA,NA,NA,NA,NA,NA,NA,NA,NA,NA,NA,NA,NA,NA,NA,NA,NA,NA,NA,NA,NA,NA,NA,NA,NA,NA,NA,NA,NA,NA,NA,NA,NA,NA,NA,NA,NA,NA,NA,NA,NA,NA,NA,NA,NA,NA,NA,NA,NA,NA,NA,NA,NA,1,0,1,0,1
SUPAMT62293,374TNBHA8HUZ4VV37312XXDIIYYYQR,E6DB9CB5-36FE-458F-999A-923E506FDE60,2023-09-26_06h27.31.134,WP_VExplicitOC_LH,2022.2.5,Win32,20.98459731,NA,NA,2.0613,NA,NA,NA,NA,NA,happy,"unhappy, happy","less happy, more happy",NA,NA,NA,NA,NA,NA,NA,NA,NA,NA,NA,NA,NA,NA,NA,NA,NA,NA,NA,NA,NA,NA,NA,NA,NA,NA,NA,NA,NA,NA,NA,NA,NA,NA,NA,NA,NA,NA,0,0,0,0,1,NA,NA,NA,NA,NA
SUPAMT62293,374TNBHA8HUZ4VV37312XXDIIYYYQR,E6DB9CB5-36FE-458F-999A-923E506FDE60,2023-09-26_06h27.31.134,WP_VExplicitOC_LH,2022.2.5,Win32,20.98459731,100,3.541099999,2.0258,NA,NA,NA,NA,NA,frustrated,"frustrated, not frustrated","more frustrated, less frustrated",NA,NA,NA,NA,NA,NA,NA,NA,NA,NA,NA,NA,NA,NA,NA,NA,NA,NA,NA,NA,NA,NA,NA,NA,NA,NA,NA,NA,NA,NA,NA,NA,NA,NA,NA,NA,NA,NA,0,1,1,1,1,NA,NA,NA,NA,NA
SUPAMT62293,374TNBHA8HUZ4VV37312XXDIIYYYQR,E6DB9CB5-36FE-458F-999A-923E506FDE60,2023-09-26_06h27.31.134,WP_VExplicitOC_LH,2022.2.5,Win32,20.98459731,100,4.1707,2.0447,NA,NA,NA,NA,NA,bored,"bored, not bored","more bored, less bored",NA,NA,NA,NA,NA,NA,NA,NA,NA,NA,NA,NA,NA,NA,NA,NA,NA,NA,NA,NA,NA,NA,NA,NA,NA,NA,NA,NA,NA,NA,NA,NA,NA,NA,NA,NA,NA,NA,0,2,2,2,1,NA,NA,NA,NA,NA
SUPAMT62293,374TNBHA8HUZ4VV37312XXDIIYYYQR,E6DB9CB5-36FE-458F-999A-923E506FDE60,2023-09-26_06h27.31.134,WP_VExplicitOC_LH,2022.2.5,Win32,20.98459731,NA,NA,NA,NA,NA,NA,NA,NA,NA,NA,NA,NA,NA,NA,NA,NA,NA,NA,NA,NA,NA,NA,NA,NA,NA,NA,NA,NA,NA,NA,NA,NA,NA,NA,NA,NA,NA,NA,NA,NA,NA,NA,NA,NA,NA,NA,NA,NA,NA,NA,NA,NA,NA,NA,2,0,2,0,1
SUPAMT62293,374TNBHA8HUZ4VV37312XXDIIYYYQR,E6DB9CB5-36FE-458F-999A-923E506FDE60,2023-09-26_06h27.31.134,WP_VExplicitOC_LH,2022.2.5,Win32,20.98459731,NA,NA,2.007099999,NA,NA,NA,NA,NA,bored,"bored, not bored","more bored, less bored",NA,NA,NA,NA,NA,NA,NA,NA,NA,NA,NA,NA,NA,NA,NA,NA,NA,NA,NA,NA,NA,NA,NA,NA,NA,NA,NA,NA,NA,NA,NA,NA,NA,NA,NA,NA,NA,NA,0,0,0,2,1,NA,NA,NA,NA,NA
SUPAMT62293,374TNBHA8HUZ4VV37312XXDIIYYYQR,E6DB9CB5-36FE-458F-999A-923E506FDE60,2023-09-26_06h27.31.134,WP_VExplicitOC_LH,2022.2.5,Win32,20.98459731,NA,NA,2.049,NA,NA,NA,NA,NA,frustrated,"frustrated, not frustrated","more frustrated, less frustrated",NA,NA,NA,NA,NA,NA,NA,NA,NA,NA,NA,NA,NA,NA,NA,NA,NA,NA,NA,NA,NA,NA,NA,NA,NA,NA,NA,NA,NA,NA,NA,NA,NA,NA,NA,NA,NA,NA,0,1,1,1,1,NA,NA,NA,NA,NA
SUPAMT62293,374TNBHA8HUZ4VV37312XXDIIYYYQR,E6DB9CB5-36FE-458F-999A-923E506FDE60,2023-09-26_06h27.31.134,WP_VExplicitOC_LH,2022.2.5,Win32,20.98459731,100,3.2236,2.0104,NA,NA,NA,NA,NA,happy,"unhappy, happy","less happy, more happy",NA,NA,NA,NA,NA,NA,NA,NA,NA,NA,NA,NA,NA,NA,NA,NA,NA,NA,NA,NA,NA,NA,NA,NA,NA,NA,NA,NA,NA,NA,NA,NA,NA,NA,NA,NA,NA,NA,0,2,2,0,1,NA,NA,NA,NA,NA
SUPAMT62293,374TNBHA8HUZ4VV37312XXDIIYYYQR,E6DB9CB5-36FE-458F-999A-923E506FDE60,2023-09-26_06h27.31.134,WP_VExplicitOC_LH,2022.2.5,Win32,20.98459731,NA,NA,NA,NA,NA,NA,NA,NA,NA,NA,NA,NA,NA,NA,NA,NA,NA,NA,NA,NA,NA,NA,NA,NA,NA,NA,NA,NA,NA,NA,NA,NA,NA,NA,NA,NA,NA,NA,NA,NA,NA,NA,NA,NA,NA,NA,NA,NA,NA,NA,NA,NA,NA,NA,3,0,3,0,1
SUPAMT62293,374TNBHA8HUZ4VV37312XXDIIYYYQR,E6DB9CB5-36FE-458F-999A-923E506FDE60,2023-09-26_06h27.31.134,WP_VExplicitOC_LH,2022.2.5,Win32,20.98459731,NA,NA,2.0254,NA,NA,NA,NA,NA,bored,"bored, not bored","more bored, less bored",NA,NA,NA,NA,NA,NA,NA,NA,NA,NA,NA,NA,NA,NA,NA,NA,NA,NA,NA,NA,NA,NA,NA,NA,NA,NA,NA,NA,NA,NA,NA,NA,NA,NA,NA,NA,NA,NA,0,0,0,2,1,NA,NA,NA,NA,NA
SUPAMT62293,374TNBHA8HUZ4VV37312XXDIIYYYQR,E6DB9CB5-36FE-458F-999A-923E506FDE60,2023-09-26_06h27.31.134,WP_VExplicitOC_LH,2022.2.5,Win32,20.98459731,98.25,3.5311,2.0005,NA,NA,NA,NA,NA,happy,"unhappy, happy","less happy, more happy",NA,NA,NA,NA,NA,NA,NA,NA,NA,NA,NA,NA,NA,NA,NA,NA,NA,NA,NA,NA,NA,NA,NA,NA,NA,NA,NA,NA,NA,NA,NA,NA,NA,NA,NA,NA,NA,NA,0,1,1,0,1,NA,NA,NA,NA,NA
SUPAMT62293,374TNBHA8HUZ4VV37312XXDIIYYYQR,E6DB9CB5-36FE-458F-999A-923E506FDE60,2023-09-26_06h27.31.134,WP_VExplicitOC_LH,2022.2.5,Win32,20.98459731,100,4.996900001,2.0468,NA,NA,NA,NA,NA,frustrated,"frustrated, not frustrated","more frustrated, less frustrated",NA,NA,NA,NA,NA,NA,NA,NA,NA,NA,NA,NA,NA,NA,NA,NA,NA,NA,NA,NA,NA,NA,NA,NA,NA,NA,NA,NA,NA,NA,NA,NA,NA,NA,NA,NA,NA,NA,0,2,2,1,1,NA,NA,NA,NA,NA
SUPAMT62293,374TNBHA8HUZ4VV37312XXDIIYYYQR,E6DB9CB5-36FE-458F-999A-923E506FDE60,2023-09-26_06h27.31.134,WP_VExplicitOC_LH,2022.2.5,Win32,20.98459731,NA,NA,NA,NA,NA,NA,NA,NA,NA,NA,NA,NA,NA,NA,NA,NA,NA,NA,NA,NA,NA,NA,NA,NA,NA,NA,NA,NA,NA,NA,NA,NA,NA,NA,NA,NA,NA,NA,NA,NA,NA,NA,NA,NA,NA,NA,NA,NA,NA,NA,NA,NA,NA,NA,4,0,4,0,1
SUPAMT62293,374TNBHA8HUZ4VV37312XXDIIYYYQR,E6DB9CB5-36FE-458F-999A-923E506FDE60,2023-09-26_06h27.31.134,WP_VExplicitOC_LH,2022.2.5,Win32,20.98459731,97.5,3.8557,2.0559,NA,NA,NA,NA,NA,frustrated,"frustrated, not frustrated","more frustrated, less frustrated",NA,NA,NA,NA,NA,NA,NA,NA,NA,NA,NA,NA,NA,NA,NA,NA,NA,NA,NA,NA,NA,NA,NA,NA,NA,NA,NA,NA,NA,NA,NA,NA,NA,NA,NA,NA,NA,NA,0,0,0,1,1,NA,NA,NA,NA,NA
SUPAMT62293,374TNBHA8HUZ4VV37312XXDIIYYYQR,E6DB9CB5-36FE-458F-999A-923E506FDE60,2023-09-26_06h27.31.134,WP_VExplicitOC_LH,2022.2.5,Win32,20.98459731,100,3.399599999,2.041099999,NA,NA,NA,NA,NA,happy,"unhappy, happy","less happy, more happy",NA,NA,NA,NA,NA,NA,NA,NA,NA,NA,NA,NA,NA,NA,NA,NA,NA,NA,NA,NA,NA,NA,NA,NA,NA,NA,NA,NA,NA,NA,NA,NA,NA,NA,NA,NA,NA,NA,0,1,1,0,1,NA,NA,NA,NA,NA
SUPAMT62293,374TNBHA8HUZ4VV37312XXDIIYYYQR,E6DB9CB5-36FE-458F-999A-923E506FDE60,2023-09-26_06h27.31.134,WP_VExplicitOC_LH,2022.2.5,Win32,20.98459731,100,3.4115,2.0071,NA,NA,NA,NA,NA,bored,"bored, not bored","more bored, less bored",NA,NA,NA,NA,NA,NA,NA,NA,NA,NA,NA,NA,NA,NA,NA,NA,NA,NA,NA,NA,NA,NA,NA,NA,NA,NA,NA,NA,NA,NA,NA,NA,NA,NA,NA,NA,NA,NA,0,2,2,2,1,NA,NA,NA,NA,NA
SUPAMT62293,374TNBHA8HUZ4VV37312XXDIIYYYQR,E6DB9CB5-36FE-458F-999A-923E506FDE60,2023-09-26_06h27.31.134,WP_VExplicitOC_LH,2022.2.5,Win32,20.98459731,NA,NA,NA,NA,NA,NA,NA,NA,NA,NA,NA,NA,NA,NA,NA,NA,NA,NA,NA,NA,NA,NA,NA,NA,NA,NA,NA,NA,NA,NA,NA,NA,NA,NA,NA,NA,NA,NA,NA,NA,NA,NA,NA,NA,NA,NA,NA,NA,NA,NA,NA,NA,NA,NA,5,0,5,0,1
SUPAMT62293,374TNBHA8HUZ4VV37312XXDIIYYYQR,E6DB9CB5-36FE-458F-999A-923E506FDE60,2023-09-26_06h27.31.134,WP_VExplicitOC_LH,2022.2.5,Win32,20.98459731,100,4.4173,2.027599999,NA,NA,NA,NA,NA,happy,"unhappy, happy","less happy, more happy",NA,NA,NA,NA,NA,NA,NA,NA,NA,NA,NA,NA,NA,NA,NA,NA,NA,NA,NA,NA,NA,NA,NA,NA,NA,NA,NA,NA,NA,NA,NA,NA,NA,NA,NA,NA,NA,NA,0,0,0,0,1,NA,NA,NA,NA,NA
SUPAMT62293,374TNBHA8HUZ4VV37312XXDIIYYYQR,E6DB9CB5-36FE-458F-999A-923E506FDE60,2023-09-26_06h27.31.134,WP_VExplicitOC_LH,2022.2.5,Win32,20.98459731,100,4.5882,2.0639,NA,NA,NA,NA,NA,frustrated,"frustrated, not frustrated","more frustrated, less frustrated",NA,NA,NA,NA,NA,NA,NA,NA,NA,NA,NA,NA,NA,NA,NA,NA,NA,NA,NA,NA,NA,NA,NA,NA,NA,NA,NA,NA,NA,NA,NA,NA,NA,NA,NA,NA,NA,NA,0,1,1,1,1,NA,NA,NA,NA,NA
SUPAMT62293,374TNBHA8HUZ4VV37312XXDIIYYYQR,E6DB9CB5-36FE-458F-999A-923E506FDE60,2023-09-26_06h27.31.134,WP_VExplicitOC_LH,2022.2.5,Win32,20.98459731,100,3.612,2.046,NA,NA,NA,NA,NA,bored,"bored, not bored","more bored, less bored",NA,NA,NA,NA,NA,NA,NA,NA,NA,NA,NA,NA,NA,NA,NA,NA,NA,NA,NA,NA,NA,NA,NA,NA,NA,NA,NA,NA,NA,NA,NA,NA,NA,NA,NA,NA,NA,NA,0,2,2,2,1,NA,NA,NA,NA,NA
SUPAMT62293,374TNBHA8HUZ4VV37312XXDIIYYYQR,E6DB9CB5-36FE-458F-999A-923E506FDE60,2023-09-26_06h27.31.134,WP_VExplicitOC_LH,2022.2.5,Win32,20.98459731,NA,NA,NA,NA,NA,NA,NA,NA,NA,NA,NA,NA,NA,NA,NA,NA,NA,NA,NA,NA,NA,NA,NA,NA,NA,NA,NA,NA,NA,NA,NA,NA,NA,NA,NA,NA,NA,NA,NA,NA,NA,NA,NA,NA,NA,NA,NA,NA,NA,NA,NA,NA,NA,NA,6,0,6,0,1
SUPAMT62293,374TNBHA8HUZ4VV37312XXDIIYYYQR,E6DB9CB5-36FE-458F-999A-923E506FDE60,2023-09-26_06h27.31.134,WP_VExplicitOC_LH,2022.2.5,Win32,20.98459731,100,3.4299,2.0507,NA,NA,NA,NA,NA,bored,"bored, not bored","more bored, less bored",NA,NA,NA,NA,NA,NA,NA,NA,NA,NA,NA,NA,NA,NA,NA,NA,NA,NA,NA,NA,NA,NA,NA,NA,NA,NA,NA,NA,NA,NA,NA,NA,NA,NA,NA,NA,NA,NA,0,0,0,2,1,NA,NA,NA,NA,NA
SUPAMT62293,374TNBHA8HUZ4VV37312XXDIIYYYQR,E6DB9CB5-36FE-458F-999A-923E506FDE60,2023-09-26_06h27.31.134,WP_VExplicitOC_LH,2022.2.5,Win32,20.98459731,100,3.7322,2.0429,NA,NA,NA,NA,NA,frustrated,"frustrated, not frustrated","more frustrated, less frustrated",NA,NA,NA,NA,NA,NA,NA,NA,NA,NA,NA,NA,NA,NA,NA,NA,NA,NA,NA,NA,NA,NA,NA,NA,NA,NA,NA,NA,NA,NA,NA,NA,NA,NA,NA,NA,NA,NA,0,1,1,1,1,NA,NA,NA,NA,NA
SUPAMT62293,374TNBHA8HUZ4VV37312XXDIIYYYQR,E6DB9CB5-36FE-458F-999A-923E506FDE60,2023-09-26_06h27.31.134,WP_VExplicitOC_LH,2022.2.5,Win32,20.98459731,100,3.5156,2.0528,NA,NA,NA,NA,NA,happy,"unhappy, happy","less happy, more happy",NA,NA,NA,NA,NA,NA,NA,NA,NA,NA,NA,NA,NA,NA,NA,NA,NA,NA,NA,NA,NA,NA,NA,NA,NA,NA,NA,NA,NA,NA,NA,NA,NA,NA,NA,NA,NA,NA,0,2,2,0,1,NA,NA,NA,NA,NA
SUPAMT62293,374TNBHA8HUZ4VV37312XXDIIYYYQR,E6DB9CB5-36FE-458F-999A-923E506FDE60,2023-09-26_06h27.31.134,WP_VExplicitOC_LH,2022.2.5,Win32,20.98459731,NA,NA,NA,NA,NA,NA,NA,NA,NA,NA,NA,NA,NA,NA,NA,NA,NA,NA,NA,NA,NA,NA,NA,NA,NA,NA,NA,NA,NA,NA,NA,NA,NA,NA,NA,NA,NA,NA,NA,NA,NA,NA,NA,NA,NA,NA,NA,NA,NA,NA,NA,NA,NA,NA,7,0,7,0,1
SUPAMT62293,374TNBHA8HUZ4VV37312XXDIIYYYQR,E6DB9CB5-36FE-458F-999A-923E506FDE60,2023-09-26_06h27.31.134,WP_VExplicitOC_LH,2022.2.5,Win32,20.98459731,96.5,5.7568,2.025099999,NA,NA,NA,NA,NA,bored,"bored, not bored","more bored, less bored",NA,NA,NA,NA,NA,NA,NA,NA,NA,NA,NA,NA,NA,NA,NA,NA,NA,NA,NA,NA,NA,NA,NA,NA,NA,NA,NA,NA,NA,NA,NA,NA,NA,NA,NA,NA,NA,NA,0,0,0,2,1,NA,NA,NA,NA,NA
SUPAMT62293,374TNBHA8HUZ4VV37312XXDIIYYYQR,E6DB9CB5-36FE-458F-999A-923E506FDE60,2023-09-26_06h27.31.134,WP_VExplicitOC_LH,2022.2.5,Win32,20.98459731,100,3.429200001,2.0289,NA,NA,NA,NA,NA,happy,"unhappy, happy","less happy, more happy",NA,NA,NA,NA,NA,NA,NA,NA,NA,NA,NA,NA,NA,NA,NA,NA,NA,NA,NA,NA,NA,NA,NA,NA,NA,NA,NA,NA,NA,NA,NA,NA,NA,NA,NA,NA,NA,NA,0,1,1,0,1,NA,NA,NA,NA,NA
SUPAMT62293,374TNBHA8HUZ4VV37312XXDIIYYYQR,E6DB9CB5-36FE-458F-999A-923E506FDE60,2023-09-26_06h27.31.134,WP_VExplicitOC_LH,2022.2.5,Win32,20.98459731,100,3.8467,2.0504,NA,NA,NA,NA,NA,frustrated,"frustrated, not frustrated","more frustrated, less frustrated",NA,NA,NA,NA,NA,NA,NA,NA,NA,NA,NA,NA,NA,NA,NA,NA,NA,NA,NA,NA,NA,NA,NA,NA,NA,NA,NA,NA,NA,NA,NA,NA,NA,NA,NA,NA,NA,NA,0,2,2,1,1,NA,NA,NA,NA,NA
SUPAMT62293,374TNBHA8HUZ4VV37312XXDIIYYYQR,E6DB9CB5-36FE-458F-999A-923E506FDE60,2023-09-26_06h27.31.134,WP_VExplicitOC_LH,2022.2.5,Win32,20.98459731,NA,NA,NA,NA,NA,NA,NA,NA,NA,NA,NA,NA,NA,NA,NA,NA,NA,NA,NA,NA,NA,NA,NA,NA,NA,NA,NA,NA,NA,NA,NA,NA,NA,NA,NA,NA,NA,NA,NA,NA,NA,NA,NA,NA,NA,NA,NA,NA,NA,NA,NA,NA,NA,NA,8,0,8,0,1
SUPAMT62293,374TNBHA8HUZ4VV37312XXDIIYYYQR,E6DB9CB5-36FE-458F-999A-923E506FDE60,2023-09-26_06h27.31.134,WP_VExplicitOC_LH,2022.2.5,Win32,20.98459731,100,4.3945,2.048900001,NA,NA,NA,NA,NA,frustrated,"frustrated, not frustrated","more frustrated, less frustrated",NA,NA,NA,NA,NA,NA,NA,NA,NA,NA,NA,NA,NA,NA,NA,NA,NA,NA,NA,NA,NA,NA,NA,NA,NA,NA,NA,NA,NA,NA,NA,NA,NA,NA,NA,NA,NA,NA,0,0,0,1,1,NA,NA,NA,NA,NA
SUPAMT62293,374TNBHA8HUZ4VV37312XXDIIYYYQR,E6DB9CB5-36FE-458F-999A-923E506FDE60,2023-09-26_06h27.31.134,WP_VExplicitOC_LH,2022.2.5,Win32,20.98459731,100,4.470099999,2.0047,NA,NA,NA,NA,NA,happy,"unhappy, happy","less happy, more happy",NA,NA,NA,NA,NA,NA,NA,NA,NA,NA,NA,NA,NA,NA,NA,NA,NA,NA,NA,NA,NA,NA,NA,NA,NA,NA,NA,NA,NA,NA,NA,NA,NA,NA,NA,NA,NA,NA,0,1,1,0,1,NA,NA,NA,NA,NA
SUPAMT62293,374TNBHA8HUZ4VV37312XXDIIYYYQR,E6DB9CB5-36FE-458F-999A-923E506FDE60,2023-09-26_06h27.31.134,WP_VExplicitOC_LH,2022.2.5,Win32,20.98459731,99.25,3.695900001,2.0475,NA,NA,NA,NA,NA,bored,"bored, not bored","more bored, less bored",NA,NA,NA,NA,NA,NA,NA,NA,NA,NA,NA,NA,NA,NA,NA,NA,NA,NA,NA,NA,NA,NA,NA,NA,NA,NA,NA,NA,NA,NA,NA,NA,NA,NA,NA,NA,NA,NA,0,2,2,2,1,NA,NA,NA,NA,NA
SUPAMT62293,374TNBHA8HUZ4VV37312XXDIIYYYQR,E6DB9CB5-36FE-458F-999A-923E506FDE60,2023-09-26_06h27.31.134,WP_VExplicitOC_LH,2022.2.5,Win32,20.98459731,NA,NA,NA,NA,NA,NA,NA,NA,NA,NA,NA,NA,NA,NA,NA,NA,NA,NA,NA,NA,NA,NA,NA,NA,NA,NA,NA,NA,NA,NA,NA,NA,NA,NA,NA,NA,NA,NA,NA,NA,NA,NA,NA,NA,NA,NA,NA,NA,NA,NA,NA,NA,NA,NA,9,0,9,0,1
SUPAMT62293,374TNBHA8HUZ4VV37312XXDIIYYYQR,E6DB9CB5-36FE-458F-999A-923E506FDE60,2023-09-26_06h27.31.134,WP_VExplicitOC_LH,2022.2.5,Win32,20.98459731,NA,NA,2.043099999,NA,NA,NA,NA,NA,happy,"unhappy, happy","less happy, more happy",NA,NA,NA,NA,NA,NA,NA,NA,NA,NA,NA,NA,NA,NA,NA,NA,NA,NA,NA,NA,NA,NA,NA,NA,NA,NA,NA,NA,NA,NA,NA,NA,NA,NA,NA,NA,NA,NA,0,0,0,0,1,NA,NA,NA,NA,NA
SUPAMT62293,374TNBHA8HUZ4VV37312XXDIIYYYQR,E6DB9CB5-36FE-458F-999A-923E506FDE60,2023-09-26_06h27.31.134,WP_VExplicitOC_LH,2022.2.5,Win32,20.98459731,100,3.2935,2.0133,NA,NA,NA,NA,NA,bored,"bored, not bored","more bored, less bored",NA,NA,NA,NA,NA,NA,NA,NA,NA,NA,NA,NA,NA,NA,NA,NA,NA,NA,NA,NA,NA,NA,NA,NA,NA,NA,NA,NA,NA,NA,NA,NA,NA,NA,NA,NA,NA,NA,0,1,1,2,1,NA,NA,NA,NA,NA
SUPAMT62293,374TNBHA8HUZ4VV37312XXDIIYYYQR,E6DB9CB5-36FE-458F-999A-923E506FDE60,2023-09-26_06h27.31.134,WP_VExplicitOC_LH,2022.2.5,Win32,20.98459731,100,3.3066,2.0093,NA,NA,NA,NA,NA,frustrated,"frustrated, not frustrated","more frustrated, less frustrated",NA,NA,NA,NA,NA,NA,NA,NA,NA,NA,NA,NA,NA,NA,NA,NA,NA,NA,NA,NA,NA,NA,NA,NA,NA,NA,NA,NA,NA,NA,NA,NA,NA,NA,NA,NA,NA,NA,0,2,2,1,1,NA,NA,NA,NA,NA
SUPAMT62293,374TNBHA8HUZ4VV37312XXDIIYYYQR,E6DB9CB5-36FE-458F-999A-923E506FDE60,2023-09-26_06h27.31.134,WP_VExplicitOC_LH,2022.2.5,Win32,20.98459731,NA,NA,NA,NA,NA,NA,NA,NA,NA,NA,NA,NA,NA,NA,NA,NA,NA,NA,NA,NA,NA,NA,NA,NA,NA,NA,NA,NA,NA,NA,NA,NA,NA,NA,NA,NA,NA,NA,NA,NA,NA,NA,NA,NA,NA,NA,NA,NA,NA,NA,NA,NA,NA,NA,10,0,10,0,1
SUPAMT62293,374TNBHA8HUZ4VV37312XXDIIYYYQR,E6DB9CB5-36FE-458F-999A-923E506FDE60,2023-09-26_06h27.31.134,WP_VExplicitOC_LH,2022.2.5,Win32,20.98459731,100,4.1026,2.0635,NA,NA,NA,NA,NA,happy,"unhappy, happy","less happy, more happy",NA,NA,NA,NA,NA,NA,NA,NA,NA,NA,NA,NA,NA,NA,NA,NA,NA,NA,NA,NA,NA,NA,NA,NA,NA,NA,NA,NA,NA,NA,NA,NA,NA,NA,NA,NA,NA,NA,0,0,0,0,1,NA,NA,NA,NA,NA
SUPAMT62293,374TNBHA8HUZ4VV37312XXDIIYYYQR,E6DB9CB5-36FE-458F-999A-923E506FDE60,2023-09-26_06h27.31.134,WP_VExplicitOC_LH,2022.2.5,Win32,20.98459731,100,7.176799999,2.0265,NA,NA,NA,NA,NA,frustrated,"frustrated, not frustrated","more frustrated, less frustrated",NA,NA,NA,NA,NA,NA,NA,NA,NA,NA,NA,NA,NA,NA,NA,NA,NA,NA,NA,NA,NA,NA,NA,NA,NA,NA,NA,NA,NA,NA,NA,NA,NA,NA,NA,NA,NA,NA,0,1,1,1,1,NA,NA,NA,NA,NA
SUPAMT62293,374TNBHA8HUZ4VV37312XXDIIYYYQR,E6DB9CB5-36FE-458F-999A-923E506FDE60,2023-09-26_06h27.31.134,WP_VExplicitOC_LH,2022.2.5,Win32,20.98459731,100,3.8186,2.004,NA,NA,NA,NA,NA,bored,"bored, not bored","more bored, less bored",NA,NA,NA,NA,NA,NA,NA,NA,NA,NA,NA,NA,NA,NA,NA,NA,NA,NA,NA,NA,NA,NA,NA,NA,NA,NA,NA,NA,NA,NA,NA,NA,NA,NA,NA,NA,NA,NA,0,2,2,2,1,NA,NA,NA,NA,NA
SUPAMT62293,374TNBHA8HUZ4VV37312XXDIIYYYQR,E6DB9CB5-36FE-458F-999A-923E506FDE60,2023-09-26_06h27.31.134,WP_VExplicitOC_LH,2022.2.5,Win32,20.98459731,NA,NA,NA,NA,NA,NA,NA,NA,NA,NA,NA,NA,NA,NA,NA,NA,NA,NA,NA,NA,NA,NA,NA,NA,NA,NA,NA,NA,NA,NA,NA,NA,NA,NA,NA,NA,NA,NA,NA,NA,NA,NA,NA,NA,NA,NA,NA,NA,NA,NA,NA,NA,NA,NA,11,0,11,0,1
SUPAMT62293,374TNBHA8HUZ4VV37312XXDIIYYYQR,E6DB9CB5-36FE-458F-999A-923E506FDE60,2023-09-26_06h27.31.134,WP_VExplicitOC_LH,2022.2.5,Win32,20.98459731,NA,NA,2.004,NA,NA,NA,NA,NA,bored,"bored, not bored","more bored, less bored",NA,NA,NA,NA,NA,NA,NA,NA,NA,NA,NA,NA,NA,NA,NA,NA,NA,NA,NA,NA,NA,NA,NA,NA,NA,NA,NA,NA,NA,NA,NA,NA,NA,NA,NA,NA,NA,NA,0,0,0,2,1,NA,NA,NA,NA,NA
SUPAMT62293,374TNBHA8HUZ4VV37312XXDIIYYYQR,E6DB9CB5-36FE-458F-999A-923E506FDE60,2023-09-26_06h27.31.134,WP_VExplicitOC_LH,2022.2.5,Win32,20.98459731,NA,NA,2.0061,NA,NA,NA,NA,NA,frustrated,"frustrated, not frustrated","more frustrated, less frustrated",NA,NA,NA,NA,NA,NA,NA,NA,NA,NA,NA,NA,NA,NA,NA,NA,NA,NA,NA,NA,NA,NA,NA,NA,NA,NA,NA,NA,NA,NA,NA,NA,NA,NA,NA,NA,NA,NA,0,1,1,1,1,NA,NA,NA,NA,NA
SUPAMT62293,374TNBHA8HUZ4VV37312XXDIIYYYQR,E6DB9CB5-36FE-458F-999A-923E506FDE60,2023-09-26_06h27.31.134,WP_VExplicitOC_LH,2022.2.5,Win32,20.98459731,NA,NA,2.0115,NA,NA,NA,NA,NA,happy,"unhappy, happy","less happy, more happy",NA,NA,NA,NA,NA,NA,NA,NA,NA,NA,NA,NA,NA,NA,NA,NA,NA,NA,NA,NA,NA,NA,NA,NA,NA,NA,NA,NA,NA,NA,NA,NA,NA,NA,NA,NA,NA,NA,0,2,2,0,1,NA,NA,NA,NA,NA
SUPAMT62293,374TNBHA8HUZ4VV37312XXDIIYYYQR,E6DB9CB5-36FE-458F-999A-923E506FDE60,2023-09-26_06h27.31.134,WP_VExplicitOC_LH,2022.2.5,Win32,20.98459731,NA,NA,NA,NA,NA,NA,NA,NA,NA,NA,NA,NA,NA,NA,NA,NA,NA,NA,NA,NA,NA,NA,NA,NA,NA,NA,NA,NA,NA,NA,NA,NA,NA,NA,NA,NA,NA,NA,NA,NA,NA,NA,NA,NA,NA,NA,NA,NA,NA,NA,NA,NA,NA,NA,12,0,12,0,1
SUPAMT62293,374TNBHA8HUZ4VV37312XXDIIYYYQR,E6DB9CB5-36FE-458F-999A-923E506FDE60,2023-09-26_06h27.31.134,WP_VExplicitOC_LH,2022.2.5,Win32,20.98459731,NA,NA,2.025799999,NA,NA,NA,NA,NA,happy,"unhappy, happy","less happy, more happy",NA,NA,NA,NA,NA,NA,NA,NA,NA,NA,NA,NA,NA,NA,NA,NA,NA,NA,NA,NA,NA,NA,NA,NA,NA,NA,NA,NA,NA,NA,NA,NA,NA,NA,NA,NA,NA,NA,0,0,0,0,1,NA,NA,NA,NA,NA
SUPAMT62293,374TNBHA8HUZ4VV37312XXDIIYYYQR,E6DB9CB5-36FE-458F-999A-923E506FDE60,2023-09-26_06h27.31.134,WP_VExplicitOC_LH,2022.2.5,Win32,20.98459731,100,3.443900001,2.0629,NA,NA,NA,NA,NA,bored,"bored, not bored","more bored, less bored",NA,NA,NA,NA,NA,NA,NA,NA,NA,NA,NA,NA,NA,NA,NA,NA,NA,NA,NA,NA,NA,NA,NA,NA,NA,NA,NA,NA,NA,NA,NA,NA,NA,NA,NA,NA,NA,NA,0,1,1,2,1,NA,NA,NA,NA,NA
SUPAMT62293,374TNBHA8HUZ4VV37312XXDIIYYYQR,E6DB9CB5-36FE-458F-999A-923E506FDE60,2023-09-26_06h27.31.134,WP_VExplicitOC_LH,2022.2.5,Win32,20.98459731,100,3.9011,2.055700001,NA,NA,NA,NA,NA,frustrated,"frustrated, not frustrated","more frustrated, less frustrated",NA,NA,NA,NA,NA,NA,NA,NA,NA,NA,NA,NA,NA,NA,NA,NA,NA,NA,NA,NA,NA,NA,NA,NA,NA,NA,NA,NA,NA,NA,NA,NA,NA,NA,NA,NA,NA,NA,0,2,2,1,1,NA,NA,NA,NA,NA
SUPAMT62293,374TNBHA8HUZ4VV37312XXDIIYYYQR,E6DB9CB5-36FE-458F-999A-923E506FDE60,2023-09-26_06h27.31.134,WP_VExplicitOC_LH,2022.2.5,Win32,20.98459731,NA,NA,NA,NA,NA,NA,NA,NA,NA,NA,NA,NA,NA,NA,NA,NA,NA,NA,NA,NA,NA,NA,NA,NA,NA,NA,NA,NA,NA,NA,NA,NA,NA,NA,NA,NA,NA,NA,NA,NA,NA,NA,NA,NA,NA,NA,NA,NA,NA,NA,NA,NA,NA,NA,13,0,13,0,1
SUPAMT62293,374TNBHA8HUZ4VV37312XXDIIYYYQR,E6DB9CB5-36FE-458F-999A-923E506FDE60,2023-09-26_06h27.31.134,WP_VExplicitOC_LH,2022.2.5,Win32,20.98459731,100,3.4352,2.0646,NA,NA,NA,NA,NA,bored,"bored, not bored","more bored, less bored",NA,NA,NA,NA,NA,NA,NA,NA,NA,NA,NA,NA,NA,NA,NA,NA,NA,NA,NA,NA,NA,NA,NA,NA,NA,NA,NA,NA,NA,NA,NA,NA,NA,NA,NA,NA,NA,NA,0,0,0,2,1,NA,NA,NA,NA,NA
SUPAMT62293,374TNBHA8HUZ4VV37312XXDIIYYYQR,E6DB9CB5-36FE-458F-999A-923E506FDE60,2023-09-26_06h27.31.134,WP_VExplicitOC_LH,2022.2.5,Win32,20.98459731,99.75,3.1695,2.0422,NA,NA,NA,NA,NA,happy,"unhappy, happy","less happy, more happy",NA,NA,NA,NA,NA,NA,NA,NA,NA,NA,NA,NA,NA,NA,NA,NA,NA,NA,NA,NA,NA,NA,NA,NA,NA,NA,NA,NA,NA,NA,NA,NA,NA,NA,NA,NA,NA,NA,0,1,1,0,1,NA,NA,NA,NA,NA
SUPAMT62293,374TNBHA8HUZ4VV37312XXDIIYYYQR,E6DB9CB5-36FE-458F-999A-923E506FDE60,2023-09-26_06h27.31.134,WP_VExplicitOC_LH,2022.2.5,Win32,20.98459731,100,3.288,2.039,NA,NA,NA,NA,NA,frustrated,"frustrated, not frustrated","more frustrated, less frustrated",NA,NA,NA,NA,NA,NA,NA,NA,NA,NA,NA,NA,NA,NA,NA,NA,NA,NA,NA,NA,NA,NA,NA,NA,NA,NA,NA,NA,NA,NA,NA,NA,NA,NA,NA,NA,NA,NA,0,2,2,1,1,NA,NA,NA,NA,NA
SUPAMT62293,374TNBHA8HUZ4VV37312XXDIIYYYQR,E6DB9CB5-36FE-458F-999A-923E506FDE60,2023-09-26_06h27.31.134,WP_VExplicitOC_LH,2022.2.5,Win32,20.98459731,NA,NA,NA,NA,NA,NA,NA,NA,NA,NA,NA,NA,NA,NA,NA,NA,NA,NA,NA,NA,NA,NA,NA,NA,NA,NA,NA,NA,NA,NA,NA,NA,NA,NA,NA,NA,NA,NA,NA,NA,NA,NA,NA,NA,NA,NA,NA,NA,NA,NA,NA,NA,NA,NA,14,0,14,0,1
SUPAMT62293,374TNBHA8HUZ4VV37312XXDIIYYYQR,E6DB9CB5-36FE-458F-999A-923E506FDE60,2023-09-26_06h27.31.134,WP_VExplicitOC_LH,2022.2.5,Win32,20.98459731,NA,NA,NA,NA,NA,NA,NA,NA,NA,NA,NA,NA,NA,NA,NA,NA,NA,NA,NA,NA,NA,NA,NA,NA,NA,NA,NA,NA,NA,NA,NA,NA,NA,NA,NA,NA,NA,NA,NA,NA,NA,NA,NA,NA,NA,NA,NA,NA,NA,NA,NA,NA,NA,NA,NA,NA,NA,NA,NA
