participant,session,completion,date,expName,psychopyVersion,OS,frameRate,rating_all.response,rating_all.rt,rating_all.tStart,rndRat1.thisRepN,rndRat1.thisTrialN,rndRat1.thisN,rndRat1.thisIndex,rndRat1.ran,Emo,Labs,Labs2,rating_alt.response,rating_alt.rt,AltC.thisRepN,AltC.thisTrialN,AltC.thisN,AltC.thisIndex,AltC.ran,alt_choices,pic_choices,BottomAlt_Choice,rndRat2.thisRepN,rndRat2.thisTrialN,rndRat2.thisN,rndRat2.thisIndex,rndRat2.ran,rndRat3.thisRepN,rndRat3.thisTrialN,rndRat3.thisN,rndRat3.thisIndex,rndRat3.ran,trials_FC_L.thisRepN,trials_FC_L.thisTrialN,trials_FC_L.thisN,trials_FC_L.thisIndex,trials_FC_L.ran,rating_alt_2.response,rating_alt_2.rt,AltC2.thisRepN,AltC2.thisTrialN,AltC2.thisN,AltC2.thisIndex,AltC2.ran,TopAlt_Choice,rndRat4.thisRepN,rndRat4.thisTrialN,rndRat4.thisN,rndRat4.thisIndex,rndRat4.ran,rndRat5.thisRepN,rndRat5.thisTrialN,rndRat5.thisN,rndRat5.thisIndex,rndRat5.ran,trials_FC_H.thisRepN,trials_FC_H.thisTrialN,trials_FC_H.thisN,trials_FC_H.thisIndex,trials_FC_H.ran
SUPAMT17025,37KGEN7NJ9PKV52NG3QUK1UWA4OPPR,2DD2AF21-00D0-4DF9-A255-E68F3E248F28,2023-09-27_08h39.58.131,WP_VExplicitOC_LH,2022.2.5,Win32,12.8387834,NA,NA,NA,NA,NA,NA,NA,NA,NA,NA,NA,NA,NA,NA,NA,NA,NA,NA,NA,NA,NA,NA,NA,NA,NA,NA,NA,NA,NA,NA,NA,NA,NA,NA,NA,NA,NA,NA,NA,NA,NA,NA,NA,NA,NA,NA,NA,NA,NA,NA,NA,NA,NA,NA,NA,NA,NA,NA,NA
SUPAMT17025,37KGEN7NJ9PKV52NG3QUK1UWA4OPPR,2DD2AF21-00D0-4DF9-A255-E68F3E248F28,2023-09-27_08h39.58.131,WP_VExplicitOC_LH,2022.2.5,Win32,12.8387834,NA,NA,NA,NA,NA,NA,NA,NA,NA,NA,NA,NA,NA,NA,NA,NA,NA,NA,NA,NA,NA,NA,NA,NA,NA,NA,NA,NA,NA,NA,NA,NA,NA,NA,NA,NA,NA,NA,NA,NA,NA,NA,NA,NA,NA,NA,NA,NA,NA,NA,NA,NA,NA,NA,NA,NA,NA,NA,NA
SUPAMT17025,37KGEN7NJ9PKV52NG3QUK1UWA4OPPR,2DD2AF21-00D0-4DF9-A255-E68F3E248F28,2023-09-27_08h39.58.131,WP_VExplicitOC_LH,2022.2.5,Win32,12.8387834,NA,NA,NA,NA,NA,NA,NA,NA,NA,NA,NA,NA,NA,NA,NA,NA,NA,NA,NA,NA,NA,NA,NA,NA,NA,NA,NA,NA,NA,NA,NA,NA,NA,NA,NA,NA,NA,NA,NA,NA,NA,NA,NA,NA,NA,NA,NA,NA,NA,NA,NA,NA,NA,NA,NA,NA,NA,NA,NA
SUPAMT17025,37KGEN7NJ9PKV52NG3QUK1UWA4OPPR,2DD2AF21-00D0-4DF9-A255-E68F3E248F28,2023-09-27_08h39.58.131,WP_VExplicitOC_LH,2022.2.5,Win32,12.8387834,55.27343481,3.2716,2.0758,0,0,0,2,1,bored,"bored, not bored","more bored, less bored",NA,NA,NA,NA,NA,NA,NA,NA,NA,NA,NA,NA,NA,NA,NA,NA,NA,NA,NA,NA,NA,NA,NA,NA,NA,NA,NA,NA,NA,NA,NA,NA,NA,NA,NA,NA,NA,NA,NA,NA,NA,NA,NA,NA,NA,NA,NA,NA
SUPAMT17025,37KGEN7NJ9PKV52NG3QUK1UWA4OPPR,2DD2AF21-00D0-4DF9-A255-E68F3E248F28,2023-09-27_08h39.58.131,WP_VExplicitOC_LH,2022.2.5,Win32,12.8387834,55.27343481,2.2395,2.0368,0,1,1,0,1,happy,"unhappy, happy","less happy, more happy",NA,NA,NA,NA,NA,NA,NA,NA,NA,NA,NA,NA,NA,NA,NA,NA,NA,NA,NA,NA,NA,NA,NA,NA,NA,NA,NA,NA,NA,NA,NA,NA,NA,NA,NA,NA,NA,NA,NA,NA,NA,NA,NA,NA,NA,NA,NA,NA
SUPAMT17025,37KGEN7NJ9PKV52NG3QUK1UWA4OPPR,2DD2AF21-00D0-4DF9-A255-E68F3E248F28,2023-09-27_08h39.58.131,WP_VExplicitOC_LH,2022.2.5,Win32,12.8387834,55.27343481,2.3285,2.0069,0,2,2,1,1,frustrated,"frustrated, not frustrated","more frustrated, less frustrated",NA,NA,NA,NA,NA,NA,NA,NA,NA,NA,NA,NA,NA,NA,NA,NA,NA,NA,NA,NA,NA,NA,NA,NA,NA,NA,NA,NA,NA,NA,NA,NA,NA,NA,NA,NA,NA,NA,NA,NA,NA,NA,NA,NA,NA,NA,NA,NA
SUPAMT17025,37KGEN7NJ9PKV52NG3QUK1UWA4OPPR,2DD2AF21-00D0-4DF9-A255-E68F3E248F28,2023-09-27_08h39.58.131,WP_VExplicitOC_LH,2022.2.5,Win32,12.8387834,NA,NA,NA,NA,NA,NA,NA,NA,NA,NA,NA,NA,NA,NA,NA,NA,NA,NA,NA,NA,NA,NA,NA,NA,NA,NA,NA,NA,NA,NA,NA,NA,NA,NA,NA,NA,NA,NA,NA,NA,NA,NA,NA,NA,NA,NA,NA,NA,NA,NA,NA,NA,NA,NA,NA,NA,NA,NA,NA
SUPAMT17025,37KGEN7NJ9PKV52NG3QUK1UWA4OPPR,2DD2AF21-00D0-4DF9-A255-E68F3E248F28,2023-09-27_08h39.58.131,WP_VExplicitOC_LH,2022.2.5,Win32,12.8387834,NA,NA,NA,NA,NA,NA,NA,NA,NA,NA,NA,NA,NA,NA,NA,NA,NA,NA,NA,NA,NA,NA,NA,NA,NA,NA,NA,NA,NA,NA,NA,NA,NA,NA,NA,NA,NA,NA,NA,NA,NA,NA,NA,NA,NA,NA,NA,NA,NA,NA,NA,NA,NA,NA,NA,NA,NA,NA,NA
SUPAMT17025,37KGEN7NJ9PKV52NG3QUK1UWA4OPPR,2DD2AF21-00D0-4DF9-A255-E68F3E248F28,2023-09-27_08h39.58.131,WP_VExplicitOC_LH,2022.2.5,Win32,12.8387834,NA,NA,NA,NA,NA,NA,NA,NA,NA,NA,NA,NA,NA,NA,NA,NA,NA,NA,NA,NA,NA,NA,NA,NA,NA,NA,NA,NA,NA,NA,NA,NA,NA,NA,NA,NA,NA,NA,NA,NA,NA,NA,NA,NA,NA,NA,NA,NA,NA,NA,NA,NA,NA,NA,NA,NA,NA,NA,NA
SUPAMT17025,37KGEN7NJ9PKV52NG3QUK1UWA4OPPR,2DD2AF21-00D0-4DF9-A255-E68F3E248F28,2023-09-27_08h39.58.131,WP_VExplicitOC_LH,2022.2.5,Win32,12.8387834,NA,NA,NA,NA,NA,NA,NA,NA,NA,NA,NA,NA,NA,NA,NA,NA,NA,NA,NA,NA,NA,NA,NA,NA,NA,NA,NA,NA,NA,NA,NA,NA,NA,NA,NA,NA,NA,NA,NA,NA,NA,NA,NA,NA,NA,NA,NA,NA,NA,NA,NA,NA,NA,NA,NA,NA,NA,NA,NA
SUPAMT17025,37KGEN7NJ9PKV52NG3QUK1UWA4OPPR,2DD2AF21-00D0-4DF9-A255-E68F3E248F28,2023-09-27_08h39.58.131,WP_VExplicitOC_LH,2022.2.5,Win32,12.8387834,NA,NA,NA,NA,NA,NA,NA,NA,NA,NA,NA,54.68749732,1.0328,0,0,0,0,1,rest (looking at a fixed cross),001.png,NA,NA,NA,NA,NA,NA,NA,NA,NA,NA,NA,NA,NA,NA,NA,NA,NA,NA,NA,NA,NA,NA,NA,NA,NA,NA,NA,NA,NA,NA,NA,NA,NA,NA,NA,NA,NA,NA,NA
SUPAMT17025,37KGEN7NJ9PKV52NG3QUK1UWA4OPPR,2DD2AF21-00D0-4DF9-A255-E68F3E248F28,2023-09-27_08h39.58.131,WP_VExplicitOC_LH,2022.2.5,Win32,12.8387834,NA,NA,NA,NA,NA,NA,NA,NA,NA,NA,NA,54.68749732,0.2287,0,1,1,1,1,stand up,002.png,NA,NA,NA,NA,NA,NA,NA,NA,NA,NA,NA,NA,NA,NA,NA,NA,NA,NA,NA,NA,NA,NA,NA,NA,NA,NA,NA,NA,NA,NA,NA,NA,NA,NA,NA,NA,NA,NA,NA
SUPAMT17025,37KGEN7NJ9PKV52NG3QUK1UWA4OPPR,2DD2AF21-00D0-4DF9-A255-E68F3E248F28,2023-09-27_08h39.58.131,WP_VExplicitOC_LH,2022.2.5,Win32,12.8387834,NA,NA,NA,NA,NA,NA,NA,NA,NA,NA,NA,54.68749732,0.1895,0,2,2,2,1,stretch,003.png,NA,NA,NA,NA,NA,NA,NA,NA,NA,NA,NA,NA,NA,NA,NA,NA,NA,NA,NA,NA,NA,NA,NA,NA,NA,NA,NA,NA,NA,NA,NA,NA,NA,NA,NA,NA,NA,NA,NA
SUPAMT17025,37KGEN7NJ9PKV52NG3QUK1UWA4OPPR,2DD2AF21-00D0-4DF9-A255-E68F3E248F28,2023-09-27_08h39.58.131,WP_VExplicitOC_LH,2022.2.5,Win32,12.8387834,NA,NA,NA,NA,NA,NA,NA,NA,NA,NA,NA,54.68749732,0.1845,0,3,3,3,1,make a drink,004.png,NA,NA,NA,NA,NA,NA,NA,NA,NA,NA,NA,NA,NA,NA,NA,NA,NA,NA,NA,NA,NA,NA,NA,NA,NA,NA,NA,NA,NA,NA,NA,NA,NA,NA,NA,NA,NA,NA,NA
SUPAMT17025,37KGEN7NJ9PKV52NG3QUK1UWA4OPPR,2DD2AF21-00D0-4DF9-A255-E68F3E248F28,2023-09-27_08h39.58.131,WP_VExplicitOC_LH,2022.2.5,Win32,12.8387834,NA,NA,NA,NA,NA,NA,NA,NA,NA,NA,NA,54.68749732,0.2786,0,4,4,4,1,scroll social media,005.png,NA,NA,NA,NA,NA,NA,NA,NA,NA,NA,NA,NA,NA,NA,NA,NA,NA,NA,NA,NA,NA,NA,NA,NA,NA,NA,NA,NA,NA,NA,NA,NA,NA,NA,NA,NA,NA,NA,NA
SUPAMT17025,37KGEN7NJ9PKV52NG3QUK1UWA4OPPR,2DD2AF21-00D0-4DF9-A255-E68F3E248F28,2023-09-27_08h39.58.131,WP_VExplicitOC_LH,2022.2.5,Win32,12.8387834,NA,NA,NA,NA,NA,NA,NA,NA,NA,NA,NA,54.68749732,0.2118,0,5,5,5,1,listen to music,006.png,NA,NA,NA,NA,NA,NA,NA,NA,NA,NA,NA,NA,NA,NA,NA,NA,NA,NA,NA,NA,NA,NA,NA,NA,NA,NA,NA,NA,NA,NA,NA,NA,NA,NA,NA,NA,NA,NA,NA
SUPAMT17025,37KGEN7NJ9PKV52NG3QUK1UWA4OPPR,2DD2AF21-00D0-4DF9-A255-E68F3E248F28,2023-09-27_08h39.58.131,WP_VExplicitOC_LH,2022.2.5,Win32,12.8387834,NA,NA,NA,NA,NA,NA,NA,NA,NA,NA,NA,54.68749732,0.1745,0,6,6,6,1,daydream,007.png,NA,NA,NA,NA,NA,NA,NA,NA,NA,NA,NA,NA,NA,NA,NA,NA,NA,NA,NA,NA,NA,NA,NA,NA,NA,NA,NA,NA,NA,NA,NA,NA,NA,NA,NA,NA,NA,NA,NA
SUPAMT17025,37KGEN7NJ9PKV52NG3QUK1UWA4OPPR,2DD2AF21-00D0-4DF9-A255-E68F3E248F28,2023-09-27_08h39.58.131,WP_VExplicitOC_LH,2022.2.5,Win32,12.8387834,NA,NA,NA,NA,NA,NA,NA,NA,NA,NA,NA,54.68749732,0.1746,0,7,7,7,1,watch a short animation,008.png,NA,NA,NA,NA,NA,NA,NA,NA,NA,NA,NA,NA,NA,NA,NA,NA,NA,NA,NA,NA,NA,NA,NA,NA,NA,NA,NA,NA,NA,NA,NA,NA,NA,NA,NA,NA,NA,NA,NA
SUPAMT17025,37KGEN7NJ9PKV52NG3QUK1UWA4OPPR,2DD2AF21-00D0-4DF9-A255-E68F3E248F28,2023-09-27_08h39.58.131,WP_VExplicitOC_LH,2022.2.5,Win32,12.8387834,NA,NA,NA,NA,NA,NA,NA,NA,NA,NA,NA,54.68749732,0.2817,0,8,8,8,1,read a novel,009.png,NA,NA,NA,NA,NA,NA,NA,NA,NA,NA,NA,NA,NA,NA,NA,NA,NA,NA,NA,NA,NA,NA,NA,NA,NA,NA,NA,NA,NA,NA,NA,NA,NA,NA,NA,NA,NA,NA,NA
SUPAMT17025,37KGEN7NJ9PKV52NG3QUK1UWA4OPPR,2DD2AF21-00D0-4DF9-A255-E68F3E248F28,2023-09-27_08h39.58.131,WP_VExplicitOC_LH,2022.2.5,Win32,12.8387834,NA,NA,NA,NA,NA,NA,NA,NA,NA,NA,NA,54.68749732,0.1842,0,9,9,9,1,read the news,010.png,NA,NA,NA,NA,NA,NA,NA,NA,NA,NA,NA,NA,NA,NA,NA,NA,NA,NA,NA,NA,NA,NA,NA,NA,NA,NA,NA,NA,NA,NA,NA,NA,NA,NA,NA,NA,NA,NA,NA
SUPAMT17025,37KGEN7NJ9PKV52NG3QUK1UWA4OPPR,2DD2AF21-00D0-4DF9-A255-E68F3E248F28,2023-09-27_08h39.58.131,WP_VExplicitOC_LH,2022.2.5,Win32,12.8387834,NA,NA,NA,NA,NA,NA,NA,NA,NA,NA,NA,NA,NA,NA,NA,NA,NA,NA,NA,NA,NA,NA,NA,NA,NA,NA,NA,NA,NA,NA,NA,NA,NA,NA,NA,NA,NA,NA,NA,NA,NA,NA,NA,NA,NA,NA,NA,NA,NA,NA,NA,NA,NA,NA,NA,NA,NA,NA,NA
SUPAMT17025,37KGEN7NJ9PKV52NG3QUK1UWA4OPPR,2DD2AF21-00D0-4DF9-A255-E68F3E248F28,2023-09-27_08h39.58.131,WP_VExplicitOC_LH,2022.2.5,Win32,12.8387834,NA,NA,NA,NA,NA,NA,NA,NA,NA,NA,NA,NA,NA,NA,NA,NA,NA,NA,NA,NA,stand up,NA,NA,NA,NA,NA,NA,NA,NA,NA,NA,NA,NA,NA,NA,NA,NA,NA,NA,NA,NA,NA,NA,NA,NA,NA,NA,NA,NA,NA,NA,NA,NA,NA,NA,NA,NA,NA,NA
SUPAMT17025,37KGEN7NJ9PKV52NG3QUK1UWA4OPPR,2DD2AF21-00D0-4DF9-A255-E68F3E248F28,2023-09-27_08h39.58.131,WP_VExplicitOC_LH,2022.2.5,Win32,12.8387834,54.68749732,3.5708,2.083,NA,NA,NA,NA,NA,frustrated,"frustrated, not frustrated","more frustrated, less frustrated",NA,NA,NA,NA,NA,NA,NA,NA,NA,NA,0,0,0,1,1,NA,NA,NA,NA,NA,NA,NA,NA,NA,NA,NA,NA,NA,NA,NA,NA,NA,NA,NA,NA,NA,NA,NA,NA,NA,NA,NA,NA,NA,NA,NA,NA,NA
SUPAMT17025,37KGEN7NJ9PKV52NG3QUK1UWA4OPPR,2DD2AF21-00D0-4DF9-A255-E68F3E248F28,2023-09-27_08h39.58.131,WP_VExplicitOC_LH,2022.2.5,Win32,12.8387834,54.68749732,2.5729,2.0717,NA,NA,NA,NA,NA,bored,"bored, not bored","more bored, less bored",NA,NA,NA,NA,NA,NA,NA,NA,NA,NA,0,1,1,2,1,NA,NA,NA,NA,NA,NA,NA,NA,NA,NA,NA,NA,NA,NA,NA,NA,NA,NA,NA,NA,NA,NA,NA,NA,NA,NA,NA,NA,NA,NA,NA,NA,NA
SUPAMT17025,37KGEN7NJ9PKV52NG3QUK1UWA4OPPR,2DD2AF21-00D0-4DF9-A255-E68F3E248F28,2023-09-27_08h39.58.131,WP_VExplicitOC_LH,2022.2.5,Win32,12.8387834,54.68749732,2.4965,2.0046,NA,NA,NA,NA,NA,happy,"unhappy, happy","less happy, more happy",NA,NA,NA,NA,NA,NA,NA,NA,NA,NA,0,2,2,0,1,NA,NA,NA,NA,NA,NA,NA,NA,NA,NA,NA,NA,NA,NA,NA,NA,NA,NA,NA,NA,NA,NA,NA,NA,NA,NA,NA,NA,NA,NA,NA,NA,NA
SUPAMT17025,37KGEN7NJ9PKV52NG3QUK1UWA4OPPR,2DD2AF21-00D0-4DF9-A255-E68F3E248F28,2023-09-27_08h39.58.131,WP_VExplicitOC_LH,2022.2.5,Win32,12.8387834,NA,NA,NA,NA,NA,NA,NA,NA,NA,NA,NA,NA,NA,NA,NA,NA,NA,NA,NA,NA,NA,NA,NA,NA,NA,NA,NA,NA,NA,NA,NA,NA,NA,NA,NA,NA,NA,NA,NA,NA,NA,NA,NA,NA,NA,NA,NA,NA,NA,NA,NA,NA,NA,NA,NA,NA,NA,NA,NA
SUPAMT17025,37KGEN7NJ9PKV52NG3QUK1UWA4OPPR,2DD2AF21-00D0-4DF9-A255-E68F3E248F28,2023-09-27_08h39.58.131,WP_VExplicitOC_LH,2022.2.5,Win32,12.8387834,NA,NA,NA,NA,NA,NA,NA,NA,NA,NA,NA,NA,NA,NA,NA,NA,NA,NA,NA,NA,NA,NA,NA,NA,NA,NA,NA,NA,NA,NA,NA,NA,NA,NA,NA,NA,NA,NA,NA,NA,NA,NA,NA,NA,NA,NA,NA,NA,NA,NA,NA,NA,NA,NA,NA,NA,NA,NA,NA
SUPAMT17025,37KGEN7NJ9PKV52NG3QUK1UWA4OPPR,2DD2AF21-00D0-4DF9-A255-E68F3E248F28,2023-09-27_08h39.58.131,WP_VExplicitOC_LH,2022.2.5,Win32,12.8387834,NA,NA,2.0201,NA,NA,NA,NA,NA,bored,"bored, not bored","more bored, less bored",NA,NA,NA,NA,NA,NA,NA,NA,NA,NA,NA,NA,NA,NA,NA,0,0,0,2,1,NA,NA,NA,NA,NA,NA,NA,NA,NA,NA,NA,NA,NA,NA,NA,NA,NA,NA,NA,NA,NA,NA,NA,NA,NA,NA,NA,NA
SUPAMT17025,37KGEN7NJ9PKV52NG3QUK1UWA4OPPR,2DD2AF21-00D0-4DF9-A255-E68F3E248F28,2023-09-27_08h39.58.131,WP_VExplicitOC_LH,2022.2.5,Win32,12.8387834,NA,NA,2.0809,NA,NA,NA,NA,NA,frustrated,"frustrated, not frustrated","more frustrated, less frustrated",NA,NA,NA,NA,NA,NA,NA,NA,NA,NA,NA,NA,NA,NA,NA,0,1,1,1,1,NA,NA,NA,NA,NA,NA,NA,NA,NA,NA,NA,NA,NA,NA,NA,NA,NA,NA,NA,NA,NA,NA,NA,NA,NA,NA,NA,NA
SUPAMT17025,37KGEN7NJ9PKV52NG3QUK1UWA4OPPR,2DD2AF21-00D0-4DF9-A255-E68F3E248F28,2023-09-27_08h39.58.131,WP_VExplicitOC_LH,2022.2.5,Win32,12.8387834,45.70312246,5.1683,2.0956,NA,NA,NA,NA,NA,happy,"unhappy, happy","less happy, more happy",NA,NA,NA,NA,NA,NA,NA,NA,NA,NA,NA,NA,NA,NA,NA,0,2,2,0,1,NA,NA,NA,NA,NA,NA,NA,NA,NA,NA,NA,NA,NA,NA,NA,NA,NA,NA,NA,NA,NA,NA,NA,NA,NA,NA,NA,NA
SUPAMT17025,37KGEN7NJ9PKV52NG3QUK1UWA4OPPR,2DD2AF21-00D0-4DF9-A255-E68F3E248F28,2023-09-27_08h39.58.131,WP_VExplicitOC_LH,2022.2.5,Win32,12.8387834,NA,NA,NA,NA,NA,NA,NA,NA,NA,NA,NA,NA,NA,NA,NA,NA,NA,NA,NA,NA,NA,NA,NA,NA,NA,NA,NA,NA,NA,NA,NA,0,0,0,0,1,NA,NA,NA,NA,NA,NA,NA,NA,NA,NA,NA,NA,NA,NA,NA,NA,NA,NA,NA,NA,NA,NA,NA
SUPAMT17025,37KGEN7NJ9PKV52NG3QUK1UWA4OPPR,2DD2AF21-00D0-4DF9-A255-E68F3E248F28,2023-09-27_08h39.58.131,WP_VExplicitOC_LH,2022.2.5,Win32,12.8387834,51.17187237,5.6444,2.0998,NA,NA,NA,NA,NA,frustrated,"frustrated, not frustrated","more frustrated, less frustrated",NA,NA,NA,NA,NA,NA,NA,NA,NA,NA,NA,NA,NA,NA,NA,0,0,0,1,1,NA,NA,NA,NA,NA,NA,NA,NA,NA,NA,NA,NA,NA,NA,NA,NA,NA,NA,NA,NA,NA,NA,NA,NA,NA,NA,NA,NA
SUPAMT17025,37KGEN7NJ9PKV52NG3QUK1UWA4OPPR,2DD2AF21-00D0-4DF9-A255-E68F3E248F28,2023-09-27_08h39.58.131,WP_VExplicitOC_LH,2022.2.5,Win32,12.8387834,51.17187237,2.1734,2.0035,NA,NA,NA,NA,NA,happy,"unhappy, happy","less happy, more happy",NA,NA,NA,NA,NA,NA,NA,NA,NA,NA,NA,NA,NA,NA,NA,0,1,1,0,1,NA,NA,NA,NA,NA,NA,NA,NA,NA,NA,NA,NA,NA,NA,NA,NA,NA,NA,NA,NA,NA,NA,NA,NA,NA,NA,NA,NA
SUPAMT17025,37KGEN7NJ9PKV52NG3QUK1UWA4OPPR,2DD2AF21-00D0-4DF9-A255-E68F3E248F28,2023-09-27_08h39.58.131,WP_VExplicitOC_LH,2022.2.5,Win32,12.8387834,51.17187237,2.2649,2.0254,NA,NA,NA,NA,NA,bored,"bored, not bored","more bored, less bored",NA,NA,NA,NA,NA,NA,NA,NA,NA,NA,NA,NA,NA,NA,NA,0,2,2,2,1,NA,NA,NA,NA,NA,NA,NA,NA,NA,NA,NA,NA,NA,NA,NA,NA,NA,NA,NA,NA,NA,NA,NA,NA,NA,NA,NA,NA
SUPAMT17025,37KGEN7NJ9PKV52NG3QUK1UWA4OPPR,2DD2AF21-00D0-4DF9-A255-E68F3E248F28,2023-09-27_08h39.58.131,WP_VExplicitOC_LH,2022.2.5,Win32,12.8387834,NA,NA,NA,NA,NA,NA,NA,NA,NA,NA,NA,NA,NA,NA,NA,NA,NA,NA,NA,NA,NA,NA,NA,NA,NA,NA,NA,NA,NA,NA,NA,1,0,1,0,1,NA,NA,NA,NA,NA,NA,NA,NA,NA,NA,NA,NA,NA,NA,NA,NA,NA,NA,NA,NA,NA,NA,NA
SUPAMT17025,37KGEN7NJ9PKV52NG3QUK1UWA4OPPR,2DD2AF21-00D0-4DF9-A255-E68F3E248F28,2023-09-27_08h39.58.131,WP_VExplicitOC_LH,2022.2.5,Win32,12.8387834,NA,NA,2.0228,NA,NA,NA,NA,NA,frustrated,"frustrated, not frustrated","more frustrated, less frustrated",NA,NA,NA,NA,NA,NA,NA,NA,NA,NA,NA,NA,NA,NA,NA,0,0,0,1,1,NA,NA,NA,NA,NA,NA,NA,NA,NA,NA,NA,NA,NA,NA,NA,NA,NA,NA,NA,NA,NA,NA,NA,NA,NA,NA,NA,NA
SUPAMT17025,37KGEN7NJ9PKV52NG3QUK1UWA4OPPR,2DD2AF21-00D0-4DF9-A255-E68F3E248F28,2023-09-27_08h39.58.131,WP_VExplicitOC_LH,2022.2.5,Win32,12.8387834,NA,NA,2.0613,NA,NA,NA,NA,NA,bored,"bored, not bored","more bored, less bored",NA,NA,NA,NA,NA,NA,NA,NA,NA,NA,NA,NA,NA,NA,NA,0,1,1,2,1,NA,NA,NA,NA,NA,NA,NA,NA,NA,NA,NA,NA,NA,NA,NA,NA,NA,NA,NA,NA,NA,NA,NA,NA,NA,NA,NA,NA
SUPAMT17025,37KGEN7NJ9PKV52NG3QUK1UWA4OPPR,2DD2AF21-00D0-4DF9-A255-E68F3E248F28,2023-09-27_08h39.58.131,WP_VExplicitOC_LH,2022.2.5,Win32,12.8387834,NA,NA,2.1063,NA,NA,NA,NA,NA,happy,"unhappy, happy","less happy, more happy",NA,NA,NA,NA,NA,NA,NA,NA,NA,NA,NA,NA,NA,NA,NA,0,2,2,0,1,NA,NA,NA,NA,NA,NA,NA,NA,NA,NA,NA,NA,NA,NA,NA,NA,NA,NA,NA,NA,NA,NA,NA,NA,NA,NA,NA,NA
SUPAMT17025,37KGEN7NJ9PKV52NG3QUK1UWA4OPPR,2DD2AF21-00D0-4DF9-A255-E68F3E248F28,2023-09-27_08h39.58.131,WP_VExplicitOC_LH,2022.2.5,Win32,12.8387834,NA,NA,NA,NA,NA,NA,NA,NA,NA,NA,NA,NA,NA,NA,NA,NA,NA,NA,NA,NA,NA,NA,NA,NA,NA,NA,NA,NA,NA,NA,NA,2,0,2,0,1,NA,NA,NA,NA,NA,NA,NA,NA,NA,NA,NA,NA,NA,NA,NA,NA,NA,NA,NA,NA,NA,NA,NA
SUPAMT17025,37KGEN7NJ9PKV52NG3QUK1UWA4OPPR,2DD2AF21-00D0-4DF9-A255-E68F3E248F28,2023-09-27_08h39.58.131,WP_VExplicitOC_LH,2022.2.5,Win32,12.8387834,47.07030994,3.6714,2.0149,NA,NA,NA,NA,NA,bored,"bored, not bored","more bored, less bored",NA,NA,NA,NA,NA,NA,NA,NA,NA,NA,NA,NA,NA,NA,NA,0,0,0,2,1,NA,NA,NA,NA,NA,NA,NA,NA,NA,NA,NA,NA,NA,NA,NA,NA,NA,NA,NA,NA,NA,NA,NA,NA,NA,NA,NA,NA
SUPAMT17025,37KGEN7NJ9PKV52NG3QUK1UWA4OPPR,2DD2AF21-00D0-4DF9-A255-E68F3E248F28,2023-09-27_08h39.58.131,WP_VExplicitOC_LH,2022.2.5,Win32,12.8387834,46.87499744,2.2989,2.0133,NA,NA,NA,NA,NA,happy,"unhappy, happy","less happy, more happy",NA,NA,NA,NA,NA,NA,NA,NA,NA,NA,NA,NA,NA,NA,NA,0,1,1,0,1,NA,NA,NA,NA,NA,NA,NA,NA,NA,NA,NA,NA,NA,NA,NA,NA,NA,NA,NA,NA,NA,NA,NA,NA,NA,NA,NA,NA
SUPAMT17025,37KGEN7NJ9PKV52NG3QUK1UWA4OPPR,2DD2AF21-00D0-4DF9-A255-E68F3E248F28,2023-09-27_08h39.58.131,WP_VExplicitOC_LH,2022.2.5,Win32,12.8387834,46.48437244,2.3187,2.0141,NA,NA,NA,NA,NA,frustrated,"frustrated, not frustrated","more frustrated, less frustrated",NA,NA,NA,NA,NA,NA,NA,NA,NA,NA,NA,NA,NA,NA,NA,0,2,2,1,1,NA,NA,NA,NA,NA,NA,NA,NA,NA,NA,NA,NA,NA,NA,NA,NA,NA,NA,NA,NA,NA,NA,NA,NA,NA,NA,NA,NA
SUPAMT17025,37KGEN7NJ9PKV52NG3QUK1UWA4OPPR,2DD2AF21-00D0-4DF9-A255-E68F3E248F28,2023-09-27_08h39.58.131,WP_VExplicitOC_LH,2022.2.5,Win32,12.8387834,NA,NA,NA,NA,NA,NA,NA,NA,NA,NA,NA,NA,NA,NA,NA,NA,NA,NA,NA,NA,NA,NA,NA,NA,NA,NA,NA,NA,NA,NA,NA,3,0,3,0,1,NA,NA,NA,NA,NA,NA,NA,NA,NA,NA,NA,NA,NA,NA,NA,NA,NA,NA,NA,NA,NA,NA,NA
SUPAMT17025,37KGEN7NJ9PKV52NG3QUK1UWA4OPPR,2DD2AF21-00D0-4DF9-A255-E68F3E248F28,2023-09-27_08h39.58.131,WP_VExplicitOC_LH,2022.2.5,Win32,12.8387834,NA,NA,2.0389,NA,NA,NA,NA,NA,bored,"bored, not bored","more bored, less bored",NA,NA,NA,NA,NA,NA,NA,NA,NA,NA,NA,NA,NA,NA,NA,0,0,0,2,1,NA,NA,NA,NA,NA,NA,NA,NA,NA,NA,NA,NA,NA,NA,NA,NA,NA,NA,NA,NA,NA,NA,NA,NA,NA,NA,NA,NA
SUPAMT17025,37KGEN7NJ9PKV52NG3QUK1UWA4OPPR,2DD2AF21-00D0-4DF9-A255-E68F3E248F28,2023-09-27_08h39.58.131,WP_VExplicitOC_LH,2022.2.5,Win32,12.8387834,NA,NA,2.0678,NA,NA,NA,NA,NA,happy,"unhappy, happy","less happy, more happy",NA,NA,NA,NA,NA,NA,NA,NA,NA,NA,NA,NA,NA,NA,NA,0,1,1,0,1,NA,NA,NA,NA,NA,NA,NA,NA,NA,NA,NA,NA,NA,NA,NA,NA,NA,NA,NA,NA,NA,NA,NA,NA,NA,NA,NA,NA
SUPAMT17025,37KGEN7NJ9PKV52NG3QUK1UWA4OPPR,2DD2AF21-00D0-4DF9-A255-E68F3E248F28,2023-09-27_08h39.58.131,WP_VExplicitOC_LH,2022.2.5,Win32,12.8387834,NA,NA,2.0573,NA,NA,NA,NA,NA,frustrated,"frustrated, not frustrated","more frustrated, less frustrated",NA,NA,NA,NA,NA,NA,NA,NA,NA,NA,NA,NA,NA,NA,NA,0,2,2,1,1,NA,NA,NA,NA,NA,NA,NA,NA,NA,NA,NA,NA,NA,NA,NA,NA,NA,NA,NA,NA,NA,NA,NA,NA,NA,NA,NA,NA
SUPAMT17025,37KGEN7NJ9PKV52NG3QUK1UWA4OPPR,2DD2AF21-00D0-4DF9-A255-E68F3E248F28,2023-09-27_08h39.58.131,WP_VExplicitOC_LH,2022.2.5,Win32,12.8387834,NA,NA,NA,NA,NA,NA,NA,NA,NA,NA,NA,NA,NA,NA,NA,NA,NA,NA,NA,NA,NA,NA,NA,NA,NA,NA,NA,NA,NA,NA,NA,4,0,4,0,1,NA,NA,NA,NA,NA,NA,NA,NA,NA,NA,NA,NA,NA,NA,NA,NA,NA,NA,NA,NA,NA,NA,NA
SUPAMT17025,37KGEN7NJ9PKV52NG3QUK1UWA4OPPR,2DD2AF21-00D0-4DF9-A255-E68F3E248F28,2023-09-27_08h39.58.131,WP_VExplicitOC_LH,2022.2.5,Win32,12.8387834,NA,NA,2.0141,NA,NA,NA,NA,NA,happy,"unhappy, happy","less happy, more happy",NA,NA,NA,NA,NA,NA,NA,NA,NA,NA,NA,NA,NA,NA,NA,0,0,0,0,1,NA,NA,NA,NA,NA,NA,NA,NA,NA,NA,NA,NA,NA,NA,NA,NA,NA,NA,NA,NA,NA,NA,NA,NA,NA,NA,NA,NA
SUPAMT17025,37KGEN7NJ9PKV52NG3QUK1UWA4OPPR,2DD2AF21-00D0-4DF9-A255-E68F3E248F28,2023-09-27_08h39.58.131,WP_VExplicitOC_LH,2022.2.5,Win32,12.8387834,43.94530998,3.9314,2.043,NA,NA,NA,NA,NA,frustrated,"frustrated, not frustrated","more frustrated, less frustrated",NA,NA,NA,NA,NA,NA,NA,NA,NA,NA,NA,NA,NA,NA,NA,0,1,1,1,1,NA,NA,NA,NA,NA,NA,NA,NA,NA,NA,NA,NA,NA,NA,NA,NA,NA,NA,NA,NA,NA,NA,NA,NA,NA,NA,NA,NA
SUPAMT17025,37KGEN7NJ9PKV52NG3QUK1UWA4OPPR,2DD2AF21-00D0-4DF9-A255-E68F3E248F28,2023-09-27_08h39.58.131,WP_VExplicitOC_LH,2022.2.5,Win32,12.8387834,43.94530998,2.3854,2.0341,NA,NA,NA,NA,NA,bored,"bored, not bored","more bored, less bored",NA,NA,NA,NA,NA,NA,NA,NA,NA,NA,NA,NA,NA,NA,NA,0,2,2,2,1,NA,NA,NA,NA,NA,NA,NA,NA,NA,NA,NA,NA,NA,NA,NA,NA,NA,NA,NA,NA,NA,NA,NA,NA,NA,NA,NA,NA
SUPAMT17025,37KGEN7NJ9PKV52NG3QUK1UWA4OPPR,2DD2AF21-00D0-4DF9-A255-E68F3E248F28,2023-09-27_08h39.58.131,WP_VExplicitOC_LH,2022.2.5,Win32,12.8387834,NA,NA,NA,NA,NA,NA,NA,NA,NA,NA,NA,NA,NA,NA,NA,NA,NA,NA,NA,NA,NA,NA,NA,NA,NA,NA,NA,NA,NA,NA,NA,5,0,5,0,1,NA,NA,NA,NA,NA,NA,NA,NA,NA,NA,NA,NA,NA,NA,NA,NA,NA,NA,NA,NA,NA,NA,NA
SUPAMT17025,37KGEN7NJ9PKV52NG3QUK1UWA4OPPR,2DD2AF21-00D0-4DF9-A255-E68F3E248F28,2023-09-27_08h39.58.131,WP_VExplicitOC_LH,2022.2.5,Win32,12.8387834,NA,NA,2.0531,NA,NA,NA,NA,NA,frustrated,"frustrated, not frustrated","more frustrated, less frustrated",NA,NA,NA,NA,NA,NA,NA,NA,NA,NA,NA,NA,NA,NA,NA,0,0,0,1,1,NA,NA,NA,NA,NA,NA,NA,NA,NA,NA,NA,NA,NA,NA,NA,NA,NA,NA,NA,NA,NA,NA,NA,NA,NA,NA,NA,NA
SUPAMT17025,37KGEN7NJ9PKV52NG3QUK1UWA4OPPR,2DD2AF21-00D0-4DF9-A255-E68F3E248F28,2023-09-27_08h39.58.131,WP_VExplicitOC_LH,2022.2.5,Win32,12.8387834,NA,NA,2.042,NA,NA,NA,NA,NA,bored,"bored, not bored","more bored, less bored",NA,NA,NA,NA,NA,NA,NA,NA,NA,NA,NA,NA,NA,NA,NA,0,1,1,2,1,NA,NA,NA,NA,NA,NA,NA,NA,NA,NA,NA,NA,NA,NA,NA,NA,NA,NA,NA,NA,NA,NA,NA,NA,NA,NA,NA,NA
SUPAMT17025,37KGEN7NJ9PKV52NG3QUK1UWA4OPPR,2DD2AF21-00D0-4DF9-A255-E68F3E248F28,2023-09-27_08h39.58.131,WP_VExplicitOC_LH,2022.2.5,Win32,12.8387834,NA,NA,2.0414,NA,NA,NA,NA,NA,happy,"unhappy, happy","less happy, more happy",NA,NA,NA,NA,NA,NA,NA,NA,NA,NA,NA,NA,NA,NA,NA,0,2,2,0,1,NA,NA,NA,NA,NA,NA,NA,NA,NA,NA,NA,NA,NA,NA,NA,NA,NA,NA,NA,NA,NA,NA,NA,NA,NA,NA,NA,NA
SUPAMT17025,37KGEN7NJ9PKV52NG3QUK1UWA4OPPR,2DD2AF21-00D0-4DF9-A255-E68F3E248F28,2023-09-27_08h39.58.131,WP_VExplicitOC_LH,2022.2.5,Win32,12.8387834,NA,NA,NA,NA,NA,NA,NA,NA,NA,NA,NA,NA,NA,NA,NA,NA,NA,NA,NA,NA,NA,NA,NA,NA,NA,NA,NA,NA,NA,NA,NA,6,0,6,0,1,NA,NA,NA,NA,NA,NA,NA,NA,NA,NA,NA,NA,NA,NA,NA,NA,NA,NA,NA,NA,NA,NA,NA
SUPAMT17025,37KGEN7NJ9PKV52NG3QUK1UWA4OPPR,2DD2AF21-00D0-4DF9-A255-E68F3E248F28,2023-09-27_08h39.58.131,WP_VExplicitOC_LH,2022.2.5,Win32,12.8387834,NA,NA,2.0094,NA,NA,NA,NA,NA,bored,"bored, not bored","more bored, less bored",NA,NA,NA,NA,NA,NA,NA,NA,NA,NA,NA,NA,NA,NA,NA,0,0,0,2,1,NA,NA,NA,NA,NA,NA,NA,NA,NA,NA,NA,NA,NA,NA,NA,NA,NA,NA,NA,NA,NA,NA,NA,NA,NA,NA,NA,NA
SUPAMT17025,37KGEN7NJ9PKV52NG3QUK1UWA4OPPR,2DD2AF21-00D0-4DF9-A255-E68F3E248F28,2023-09-27_08h39.58.131,WP_VExplicitOC_LH,2022.2.5,Win32,12.8387834,NA,NA,2.004,NA,NA,NA,NA,NA,happy,"unhappy, happy","less happy, more happy",NA,NA,NA,NA,NA,NA,NA,NA,NA,NA,NA,NA,NA,NA,NA,0,1,1,0,1,NA,NA,NA,NA,NA,NA,NA,NA,NA,NA,NA,NA,NA,NA,NA,NA,NA,NA,NA,NA,NA,NA,NA,NA,NA,NA,NA,NA
SUPAMT17025,37KGEN7NJ9PKV52NG3QUK1UWA4OPPR,2DD2AF21-00D0-4DF9-A255-E68F3E248F28,2023-09-27_08h39.58.131,WP_VExplicitOC_LH,2022.2.5,Win32,12.8387834,NA,NA,2.0901,NA,NA,NA,NA,NA,frustrated,"frustrated, not frustrated","more frustrated, less frustrated",NA,NA,NA,NA,NA,NA,NA,NA,NA,NA,NA,NA,NA,NA,NA,0,2,2,1,1,NA,NA,NA,NA,NA,NA,NA,NA,NA,NA,NA,NA,NA,NA,NA,NA,NA,NA,NA,NA,NA,NA,NA,NA,NA,NA,NA,NA
SUPAMT17025,37KGEN7NJ9PKV52NG3QUK1UWA4OPPR,2DD2AF21-00D0-4DF9-A255-E68F3E248F28,2023-09-27_08h39.58.131,WP_VExplicitOC_LH,2022.2.5,Win32,12.8387834,NA,NA,NA,NA,NA,NA,NA,NA,NA,NA,NA,NA,NA,NA,NA,NA,NA,NA,NA,NA,NA,NA,NA,NA,NA,NA,NA,NA,NA,NA,NA,7,0,7,0,1,NA,NA,NA,NA,NA,NA,NA,NA,NA,NA,NA,NA,NA,NA,NA,NA,NA,NA,NA,NA,NA,NA,NA
SUPAMT17025,37KGEN7NJ9PKV52NG3QUK1UWA4OPPR,2DD2AF21-00D0-4DF9-A255-E68F3E248F28,2023-09-27_08h39.58.131,WP_VExplicitOC_LH,2022.2.5,Win32,12.8387834,57.81249728,6.8577,2.0268,NA,NA,NA,NA,NA,bored,"bored, not bored","more bored, less bored",NA,NA,NA,NA,NA,NA,NA,NA,NA,NA,NA,NA,NA,NA,NA,0,0,0,2,1,NA,NA,NA,NA,NA,NA,NA,NA,NA,NA,NA,NA,NA,NA,NA,NA,NA,NA,NA,NA,NA,NA,NA,NA,NA,NA,NA,NA
SUPAMT17025,37KGEN7NJ9PKV52NG3QUK1UWA4OPPR,2DD2AF21-00D0-4DF9-A255-E68F3E248F28,2023-09-27_08h39.58.131,WP_VExplicitOC_LH,2022.2.5,Win32,12.8387834,57.81249728,2.4057,2.0877,NA,NA,NA,NA,NA,frustrated,"frustrated, not frustrated","more frustrated, less frustrated",NA,NA,NA,NA,NA,NA,NA,NA,NA,NA,NA,NA,NA,NA,NA,0,1,1,1,1,NA,NA,NA,NA,NA,NA,NA,NA,NA,NA,NA,NA,NA,NA,NA,NA,NA,NA,NA,NA,NA,NA,NA,NA,NA,NA,NA,NA
SUPAMT17025,37KGEN7NJ9PKV52NG3QUK1UWA4OPPR,2DD2AF21-00D0-4DF9-A255-E68F3E248F28,2023-09-27_08h39.58.131,WP_VExplicitOC_LH,2022.2.5,Win32,12.8387834,57.81249728,2.3488,2.0465,NA,NA,NA,NA,NA,happy,"unhappy, happy","less happy, more happy",NA,NA,NA,NA,NA,NA,NA,NA,NA,NA,NA,NA,NA,NA,NA,0,2,2,0,1,NA,NA,NA,NA,NA,NA,NA,NA,NA,NA,NA,NA,NA,NA,NA,NA,NA,NA,NA,NA,NA,NA,NA,NA,NA,NA,NA,NA
SUPAMT17025,37KGEN7NJ9PKV52NG3QUK1UWA4OPPR,2DD2AF21-00D0-4DF9-A255-E68F3E248F28,2023-09-27_08h39.58.131,WP_VExplicitOC_LH,2022.2.5,Win32,12.8387834,NA,NA,NA,NA,NA,NA,NA,NA,NA,NA,NA,NA,NA,NA,NA,NA,NA,NA,NA,NA,NA,NA,NA,NA,NA,NA,NA,NA,NA,NA,NA,8,0,8,0,1,NA,NA,NA,NA,NA,NA,NA,NA,NA,NA,NA,NA,NA,NA,NA,NA,NA,NA,NA,NA,NA,NA,NA
SUPAMT17025,37KGEN7NJ9PKV52NG3QUK1UWA4OPPR,2DD2AF21-00D0-4DF9-A255-E68F3E248F28,2023-09-27_08h39.58.131,WP_VExplicitOC_LH,2022.2.5,Win32,12.8387834,50.19530989,3.0887,2.0206,NA,NA,NA,NA,NA,bored,"bored, not bored","more bored, less bored",NA,NA,NA,NA,NA,NA,NA,NA,NA,NA,NA,NA,NA,NA,NA,0,0,0,2,1,NA,NA,NA,NA,NA,NA,NA,NA,NA,NA,NA,NA,NA,NA,NA,NA,NA,NA,NA,NA,NA,NA,NA,NA,NA,NA,NA,NA
SUPAMT17025,37KGEN7NJ9PKV52NG3QUK1UWA4OPPR,2DD2AF21-00D0-4DF9-A255-E68F3E248F28,2023-09-27_08h39.58.131,WP_VExplicitOC_LH,2022.2.5,Win32,12.8387834,49.4140599,2.2672,2.0241,NA,NA,NA,NA,NA,frustrated,"frustrated, not frustrated","more frustrated, less frustrated",NA,NA,NA,NA,NA,NA,NA,NA,NA,NA,NA,NA,NA,NA,NA,0,1,1,1,1,NA,NA,NA,NA,NA,NA,NA,NA,NA,NA,NA,NA,NA,NA,NA,NA,NA,NA,NA,NA,NA,NA,NA,NA,NA,NA,NA,NA
SUPAMT17025,37KGEN7NJ9PKV52NG3QUK1UWA4OPPR,2DD2AF21-00D0-4DF9-A255-E68F3E248F28,2023-09-27_08h39.58.131,WP_VExplicitOC_LH,2022.2.5,Win32,12.8387834,49.4140599,2.2844,2.0461,NA,NA,NA,NA,NA,happy,"unhappy, happy","less happy, more happy",NA,NA,NA,NA,NA,NA,NA,NA,NA,NA,NA,NA,NA,NA,NA,0,2,2,0,1,NA,NA,NA,NA,NA,NA,NA,NA,NA,NA,NA,NA,NA,NA,NA,NA,NA,NA,NA,NA,NA,NA,NA,NA,NA,NA,NA,NA
SUPAMT17025,37KGEN7NJ9PKV52NG3QUK1UWA4OPPR,2DD2AF21-00D0-4DF9-A255-E68F3E248F28,2023-09-27_08h39.58.131,WP_VExplicitOC_LH,2022.2.5,Win32,12.8387834,NA,NA,NA,NA,NA,NA,NA,NA,NA,NA,NA,NA,NA,NA,NA,NA,NA,NA,NA,NA,NA,NA,NA,NA,NA,NA,NA,NA,NA,NA,NA,9,0,9,0,1,NA,NA,NA,NA,NA,NA,NA,NA,NA,NA,NA,NA,NA,NA,NA,NA,NA,NA,NA,NA,NA,NA,NA
SUPAMT17025,37KGEN7NJ9PKV52NG3QUK1UWA4OPPR,2DD2AF21-00D0-4DF9-A255-E68F3E248F28,2023-09-27_08h39.58.131,WP_VExplicitOC_LH,2022.2.5,Win32,12.8387834,44.92187247,3.1166,2.0053,NA,NA,NA,NA,NA,happy,"unhappy, happy","less happy, more happy",NA,NA,NA,NA,NA,NA,NA,NA,NA,NA,NA,NA,NA,NA,NA,0,0,0,0,1,NA,NA,NA,NA,NA,NA,NA,NA,NA,NA,NA,NA,NA,NA,NA,NA,NA,NA,NA,NA,NA,NA,NA,NA,NA,NA,NA,NA
SUPAMT17025,37KGEN7NJ9PKV52NG3QUK1UWA4OPPR,2DD2AF21-00D0-4DF9-A255-E68F3E248F28,2023-09-27_08h39.58.131,WP_VExplicitOC_LH,2022.2.5,Win32,12.8387834,44.92187247,2.2466,2.0261,NA,NA,NA,NA,NA,bored,"bored, not bored","more bored, less bored",NA,NA,NA,NA,NA,NA,NA,NA,NA,NA,NA,NA,NA,NA,NA,0,1,1,2,1,NA,NA,NA,NA,NA,NA,NA,NA,NA,NA,NA,NA,NA,NA,NA,NA,NA,NA,NA,NA,NA,NA,NA,NA,NA,NA,NA,NA
SUPAMT17025,37KGEN7NJ9PKV52NG3QUK1UWA4OPPR,2DD2AF21-00D0-4DF9-A255-E68F3E248F28,2023-09-27_08h39.58.131,WP_VExplicitOC_LH,2022.2.5,Win32,12.8387834,44.92187247,2.3978,2.0732,NA,NA,NA,NA,NA,frustrated,"frustrated, not frustrated","more frustrated, less frustrated",NA,NA,NA,NA,NA,NA,NA,NA,NA,NA,NA,NA,NA,NA,NA,0,2,2,1,1,NA,NA,NA,NA,NA,NA,NA,NA,NA,NA,NA,NA,NA,NA,NA,NA,NA,NA,NA,NA,NA,NA,NA,NA,NA,NA,NA,NA
SUPAMT17025,37KGEN7NJ9PKV52NG3QUK1UWA4OPPR,2DD2AF21-00D0-4DF9-A255-E68F3E248F28,2023-09-27_08h39.58.131,WP_VExplicitOC_LH,2022.2.5,Win32,12.8387834,NA,NA,NA,NA,NA,NA,NA,NA,NA,NA,NA,NA,NA,NA,NA,NA,NA,NA,NA,NA,NA,NA,NA,NA,NA,NA,NA,NA,NA,NA,NA,10,0,10,0,1,NA,NA,NA,NA,NA,NA,NA,NA,NA,NA,NA,NA,NA,NA,NA,NA,NA,NA,NA,NA,NA,NA,NA
SUPAMT17025,37KGEN7NJ9PKV52NG3QUK1UWA4OPPR,2DD2AF21-00D0-4DF9-A255-E68F3E248F28,2023-09-27_08h39.58.131,WP_VExplicitOC_LH,2022.2.5,Win32,12.8387834,NA,NA,2.0411,NA,NA,NA,NA,NA,bored,"bored, not bored","more bored, less bored",NA,NA,NA,NA,NA,NA,NA,NA,NA,NA,NA,NA,NA,NA,NA,0,0,0,2,1,NA,NA,NA,NA,NA,NA,NA,NA,NA,NA,NA,NA,NA,NA,NA,NA,NA,NA,NA,NA,NA,NA,NA,NA,NA,NA,NA,NA
SUPAMT17025,37KGEN7NJ9PKV52NG3QUK1UWA4OPPR,2DD2AF21-00D0-4DF9-A255-E68F3E248F28,2023-09-27_08h39.58.131,WP_VExplicitOC_LH,2022.2.5,Win32,12.8387834,49.02343491,4.5264,2.0759,NA,NA,NA,NA,NA,frustrated,"frustrated, not frustrated","more frustrated, less frustrated",NA,NA,NA,NA,NA,NA,NA,NA,NA,NA,NA,NA,NA,NA,NA,0,1,1,1,1,NA,NA,NA,NA,NA,NA,NA,NA,NA,NA,NA,NA,NA,NA,NA,NA,NA,NA,NA,NA,NA,NA,NA,NA,NA,NA,NA,NA
SUPAMT17025,37KGEN7NJ9PKV52NG3QUK1UWA4OPPR,2DD2AF21-00D0-4DF9-A255-E68F3E248F28,2023-09-27_08h39.58.131,WP_VExplicitOC_LH,2022.2.5,Win32,12.8387834,49.02343491,2.4191,2.0596,NA,NA,NA,NA,NA,happy,"unhappy, happy","less happy, more happy",NA,NA,NA,NA,NA,NA,NA,NA,NA,NA,NA,NA,NA,NA,NA,0,2,2,0,1,NA,NA,NA,NA,NA,NA,NA,NA,NA,NA,NA,NA,NA,NA,NA,NA,NA,NA,NA,NA,NA,NA,NA,NA,NA,NA,NA,NA
SUPAMT17025,37KGEN7NJ9PKV52NG3QUK1UWA4OPPR,2DD2AF21-00D0-4DF9-A255-E68F3E248F28,2023-09-27_08h39.58.131,WP_VExplicitOC_LH,2022.2.5,Win32,12.8387834,NA,NA,NA,NA,NA,NA,NA,NA,NA,NA,NA,NA,NA,NA,NA,NA,NA,NA,NA,NA,NA,NA,NA,NA,NA,NA,NA,NA,NA,NA,NA,11,0,11,0,1,NA,NA,NA,NA,NA,NA,NA,NA,NA,NA,NA,NA,NA,NA,NA,NA,NA,NA,NA,NA,NA,NA,NA
SUPAMT17025,37KGEN7NJ9PKV52NG3QUK1UWA4OPPR,2DD2AF21-00D0-4DF9-A255-E68F3E248F28,2023-09-27_08h39.58.131,WP_VExplicitOC_LH,2022.2.5,Win32,12.8387834,48.43749742,3.3318,2.0535,NA,NA,NA,NA,NA,bored,"bored, not bored","more bored, less bored",NA,NA,NA,NA,NA,NA,NA,NA,NA,NA,NA,NA,NA,NA,NA,0,0,0,2,1,NA,NA,NA,NA,NA,NA,NA,NA,NA,NA,NA,NA,NA,NA,NA,NA,NA,NA,NA,NA,NA,NA,NA,NA,NA,NA,NA,NA
SUPAMT17025,37KGEN7NJ9PKV52NG3QUK1UWA4OPPR,2DD2AF21-00D0-4DF9-A255-E68F3E248F28,2023-09-27_08h39.58.131,WP_VExplicitOC_LH,2022.2.5,Win32,12.8387834,48.43749742,2.3036,2.0704,NA,NA,NA,NA,NA,happy,"unhappy, happy","less happy, more happy",NA,NA,NA,NA,NA,NA,NA,NA,NA,NA,NA,NA,NA,NA,NA,0,1,1,0,1,NA,NA,NA,NA,NA,NA,NA,NA,NA,NA,NA,NA,NA,NA,NA,NA,NA,NA,NA,NA,NA,NA,NA,NA,NA,NA,NA,NA
SUPAMT17025,37KGEN7NJ9PKV52NG3QUK1UWA4OPPR,2DD2AF21-00D0-4DF9-A255-E68F3E248F28,2023-09-27_08h39.58.131,WP_VExplicitOC_LH,2022.2.5,Win32,12.8387834,48.43749742,2.3621,2.0195,NA,NA,NA,NA,NA,frustrated,"frustrated, not frustrated","more frustrated, less frustrated",NA,NA,NA,NA,NA,NA,NA,NA,NA,NA,NA,NA,NA,NA,NA,0,2,2,1,1,NA,NA,NA,NA,NA,NA,NA,NA,NA,NA,NA,NA,NA,NA,NA,NA,NA,NA,NA,NA,NA,NA,NA,NA,NA,NA,NA,NA
SUPAMT17025,37KGEN7NJ9PKV52NG3QUK1UWA4OPPR,2DD2AF21-00D0-4DF9-A255-E68F3E248F28,2023-09-27_08h39.58.131,WP_VExplicitOC_LH,2022.2.5,Win32,12.8387834,NA,NA,NA,NA,NA,NA,NA,NA,NA,NA,NA,NA,NA,NA,NA,NA,NA,NA,NA,NA,NA,NA,NA,NA,NA,NA,NA,NA,NA,NA,NA,12,0,12,0,1,NA,NA,NA,NA,NA,NA,NA,NA,NA,NA,NA,NA,NA,NA,NA,NA,NA,NA,NA,NA,NA,NA,NA
SUPAMT17025,37KGEN7NJ9PKV52NG3QUK1UWA4OPPR,2DD2AF21-00D0-4DF9-A255-E68F3E248F28,2023-09-27_08h39.58.131,WP_VExplicitOC_LH,2022.2.5,Win32,12.8387834,NA,NA,2.0709,NA,NA,NA,NA,NA,happy,"unhappy, happy","less happy, more happy",NA,NA,NA,NA,NA,NA,NA,NA,NA,NA,NA,NA,NA,NA,NA,0,0,0,0,1,NA,NA,NA,NA,NA,NA,NA,NA,NA,NA,NA,NA,NA,NA,NA,NA,NA,NA,NA,NA,NA,NA,NA,NA,NA,NA,NA,NA
SUPAMT17025,37KGEN7NJ9PKV52NG3QUK1UWA4OPPR,2DD2AF21-00D0-4DF9-A255-E68F3E248F28,2023-09-27_08h39.58.131,WP_VExplicitOC_LH,2022.2.5,Win32,12.8387834,47.07030994,6.2378,2.0223,NA,NA,NA,NA,NA,frustrated,"frustrated, not frustrated","more frustrated, less frustrated",NA,NA,NA,NA,NA,NA,NA,NA,NA,NA,NA,NA,NA,NA,NA,0,1,1,1,1,NA,NA,NA,NA,NA,NA,NA,NA,NA,NA,NA,NA,NA,NA,NA,NA,NA,NA,NA,NA,NA,NA,NA,NA,NA,NA,NA,NA
SUPAMT17025,37KGEN7NJ9PKV52NG3QUK1UWA4OPPR,2DD2AF21-00D0-4DF9-A255-E68F3E248F28,2023-09-27_08h39.58.131,WP_VExplicitOC_LH,2022.2.5,Win32,12.8387834,41.60156002,5.7959,2.0559,NA,NA,NA,NA,NA,bored,"bored, not bored","more bored, less bored",NA,NA,NA,NA,NA,NA,NA,NA,NA,NA,NA,NA,NA,NA,NA,0,2,2,2,1,NA,NA,NA,NA,NA,NA,NA,NA,NA,NA,NA,NA,NA,NA,NA,NA,NA,NA,NA,NA,NA,NA,NA,NA,NA,NA,NA,NA
SUPAMT17025,37KGEN7NJ9PKV52NG3QUK1UWA4OPPR,2DD2AF21-00D0-4DF9-A255-E68F3E248F28,2023-09-27_08h39.58.131,WP_VExplicitOC_LH,2022.2.5,Win32,12.8387834,NA,NA,NA,NA,NA,NA,NA,NA,NA,NA,NA,NA,NA,NA,NA,NA,NA,NA,NA,NA,NA,NA,NA,NA,NA,NA,NA,NA,NA,NA,NA,13,0,13,0,1,NA,NA,NA,NA,NA,NA,NA,NA,NA,NA,NA,NA,NA,NA,NA,NA,NA,NA,NA,NA,NA,NA,NA
SUPAMT17025,37KGEN7NJ9PKV52NG3QUK1UWA4OPPR,2DD2AF21-00D0-4DF9-A255-E68F3E248F28,2023-09-27_08h39.58.131,WP_VExplicitOC_LH,2022.2.5,Win32,12.8387834,38.47656006,4.2729,2.007,NA,NA,NA,NA,NA,bored,"bored, not bored","more bored, less bored",NA,NA,NA,NA,NA,NA,NA,NA,NA,NA,NA,NA,NA,NA,NA,0,0,0,2,1,NA,NA,NA,NA,NA,NA,NA,NA,NA,NA,NA,NA,NA,NA,NA,NA,NA,NA,NA,NA,NA,NA,NA,NA,NA,NA,NA,NA
SUPAMT17025,37KGEN7NJ9PKV52NG3QUK1UWA4OPPR,2DD2AF21-00D0-4DF9-A255-E68F3E248F28,2023-09-27_08h39.58.131,WP_VExplicitOC_LH,2022.2.5,Win32,12.8387834,38.47656006,2.4066,2.0798,NA,NA,NA,NA,NA,happy,"unhappy, happy","less happy, more happy",NA,NA,NA,NA,NA,NA,NA,NA,NA,NA,NA,NA,NA,NA,NA,0,1,1,0,1,NA,NA,NA,NA,NA,NA,NA,NA,NA,NA,NA,NA,NA,NA,NA,NA,NA,NA,NA,NA,NA,NA,NA,NA,NA,NA,NA,NA
SUPAMT17025,37KGEN7NJ9PKV52NG3QUK1UWA4OPPR,2DD2AF21-00D0-4DF9-A255-E68F3E248F28,2023-09-27_08h39.58.131,WP_VExplicitOC_LH,2022.2.5,Win32,12.8387834,38.47656006,2.4162,2.0202,NA,NA,NA,NA,NA,frustrated,"frustrated, not frustrated","more frustrated, less frustrated",NA,NA,NA,NA,NA,NA,NA,NA,NA,NA,NA,NA,NA,NA,NA,0,2,2,1,1,NA,NA,NA,NA,NA,NA,NA,NA,NA,NA,NA,NA,NA,NA,NA,NA,NA,NA,NA,NA,NA,NA,NA,NA,NA,NA,NA,NA
SUPAMT17025,37KGEN7NJ9PKV52NG3QUK1UWA4OPPR,2DD2AF21-00D0-4DF9-A255-E68F3E248F28,2023-09-27_08h39.58.131,WP_VExplicitOC_LH,2022.2.5,Win32,12.8387834,NA,NA,NA,NA,NA,NA,NA,NA,NA,NA,NA,NA,NA,NA,NA,NA,NA,NA,NA,NA,NA,NA,NA,NA,NA,NA,NA,NA,NA,NA,NA,14,0,14,0,1,NA,NA,NA,NA,NA,NA,NA,NA,NA,NA,NA,NA,NA,NA,NA,NA,NA,NA,NA,NA,NA,NA,NA
SUPAMT17025,37KGEN7NJ9PKV52NG3QUK1UWA4OPPR,2DD2AF21-00D0-4DF9-A255-E68F3E248F28,2023-09-27_08h39.58.131,WP_VExplicitOC_LH,2022.2.5,Win32,12.8387834,NA,NA,NA,NA,NA,NA,NA,NA,NA,NA,NA,NA,NA,NA,NA,NA,NA,NA,NA,NA,NA,NA,NA,NA,NA,NA,NA,NA,NA,NA,NA,NA,NA,NA,NA,NA,NA,NA,NA,NA,NA,NA,NA,NA,NA,NA,NA,NA,NA,NA,NA,NA,NA,NA,NA,NA,NA,NA,NA
SUPAMT17025,37KGEN7NJ9PKV52NG3QUK1UWA4OPPR,2DD2AF21-00D0-4DF9-A255-E68F3E248F28,2023-09-27_08h39.58.131,WP_VExplicitOC_LH,2022.2.5,Win32,12.8387834,NA,NA,NA,NA,NA,NA,NA,NA,NA,NA,NA,NA,NA,NA,NA,NA,NA,NA,NA,NA,NA,NA,NA,NA,NA,NA,NA,NA,NA,NA,NA,NA,NA,NA,NA,NA,NA,NA,NA,NA,NA,NA,NA,NA,NA,NA,NA,NA,NA,NA,NA,NA,NA,NA,NA,NA,NA,NA,NA
SUPAMT17025,37KGEN7NJ9PKV52NG3QUK1UWA4OPPR,2DD2AF21-00D0-4DF9-A255-E68F3E248F28,2023-09-27_08h39.58.131,WP_VExplicitOC_LH,2022.2.5,Win32,12.8387834,NA,NA,NA,NA,NA,NA,NA,NA,NA,NA,NA,NA,NA,NA,NA,NA,NA,NA,rest (looking at a fixed cross),001.png,NA,NA,NA,NA,NA,NA,NA,NA,NA,NA,NA,NA,NA,NA,NA,NA,43.55468499,2.6697,0,0,0,0,1,NA,NA,NA,NA,NA,NA,NA,NA,NA,NA,NA,NA,NA,NA,NA,NA
SUPAMT17025,37KGEN7NJ9PKV52NG3QUK1UWA4OPPR,2DD2AF21-00D0-4DF9-A255-E68F3E248F28,2023-09-27_08h39.58.131,WP_VExplicitOC_LH,2022.2.5,Win32,12.8387834,NA,NA,NA,NA,NA,NA,NA,NA,NA,NA,NA,NA,NA,NA,NA,NA,NA,NA,stand up,002.png,NA,NA,NA,NA,NA,NA,NA,NA,NA,NA,NA,NA,NA,NA,NA,NA,45.70312246,0.3867,0,1,1,1,1,NA,NA,NA,NA,NA,NA,NA,NA,NA,NA,NA,NA,NA,NA,NA,NA
SUPAMT17025,37KGEN7NJ9PKV52NG3QUK1UWA4OPPR,2DD2AF21-00D0-4DF9-A255-E68F3E248F28,2023-09-27_08h39.58.131,WP_VExplicitOC_LH,2022.2.5,Win32,12.8387834,NA,NA,NA,NA,NA,NA,NA,NA,NA,NA,NA,NA,NA,NA,NA,NA,NA,NA,stretch,003.png,NA,NA,NA,NA,NA,NA,NA,NA,NA,NA,NA,NA,NA,NA,NA,NA,45.70312246,0.1647,0,2,2,2,1,NA,NA,NA,NA,NA,NA,NA,NA,NA,NA,NA,NA,NA,NA,NA,NA
SUPAMT17025,37KGEN7NJ9PKV52NG3QUK1UWA4OPPR,2DD2AF21-00D0-4DF9-A255-E68F3E248F28,2023-09-27_08h39.58.131,WP_VExplicitOC_LH,2022.2.5,Win32,12.8387834,NA,NA,NA,NA,NA,NA,NA,NA,NA,NA,NA,NA,NA,NA,NA,NA,NA,NA,make a drink,004.png,NA,NA,NA,NA,NA,NA,NA,NA,NA,NA,NA,NA,NA,NA,NA,NA,45.70312246,0.1726,0,3,3,3,1,NA,NA,NA,NA,NA,NA,NA,NA,NA,NA,NA,NA,NA,NA,NA,NA
SUPAMT17025,37KGEN7NJ9PKV52NG3QUK1UWA4OPPR,2DD2AF21-00D0-4DF9-A255-E68F3E248F28,2023-09-27_08h39.58.131,WP_VExplicitOC_LH,2022.2.5,Win32,12.8387834,NA,NA,NA,NA,NA,NA,NA,NA,NA,NA,NA,NA,NA,NA,NA,NA,NA,NA,scroll social media,005.png,NA,NA,NA,NA,NA,NA,NA,NA,NA,NA,NA,NA,NA,NA,NA,NA,45.70312246,0.2043,0,4,4,4,1,NA,NA,NA,NA,NA,NA,NA,NA,NA,NA,NA,NA,NA,NA,NA,NA
SUPAMT17025,37KGEN7NJ9PKV52NG3QUK1UWA4OPPR,2DD2AF21-00D0-4DF9-A255-E68F3E248F28,2023-09-27_08h39.58.131,WP_VExplicitOC_LH,2022.2.5,Win32,12.8387834,NA,NA,NA,NA,NA,NA,NA,NA,NA,NA,NA,NA,NA,NA,NA,NA,NA,NA,listen to music,006.png,NA,NA,NA,NA,NA,NA,NA,NA,NA,NA,NA,NA,NA,NA,NA,NA,45.70312246,0.1776,0,5,5,5,1,NA,NA,NA,NA,NA,NA,NA,NA,NA,NA,NA,NA,NA,NA,NA,NA
SUPAMT17025,37KGEN7NJ9PKV52NG3QUK1UWA4OPPR,2DD2AF21-00D0-4DF9-A255-E68F3E248F28,2023-09-27_08h39.58.131,WP_VExplicitOC_LH,2022.2.5,Win32,12.8387834,NA,NA,NA,NA,NA,NA,NA,NA,NA,NA,NA,NA,NA,NA,NA,NA,NA,NA,daydream,007.png,NA,NA,NA,NA,NA,NA,NA,NA,NA,NA,NA,NA,NA,NA,NA,NA,45.70312246,0.2296,0,6,6,6,1,NA,NA,NA,NA,NA,NA,NA,NA,NA,NA,NA,NA,NA,NA,NA,NA
SUPAMT17025,37KGEN7NJ9PKV52NG3QUK1UWA4OPPR,2DD2AF21-00D0-4DF9-A255-E68F3E248F28,2023-09-27_08h39.58.131,WP_VExplicitOC_LH,2022.2.5,Win32,12.8387834,NA,NA,NA,NA,NA,NA,NA,NA,NA,NA,NA,NA,NA,NA,NA,NA,NA,NA,watch a short animation,008.png,NA,NA,NA,NA,NA,NA,NA,NA,NA,NA,NA,NA,NA,NA,NA,NA,45.70312246,0.3275,0,7,7,7,1,NA,NA,NA,NA,NA,NA,NA,NA,NA,NA,NA,NA,NA,NA,NA,NA
SUPAMT17025,37KGEN7NJ9PKV52NG3QUK1UWA4OPPR,2DD2AF21-00D0-4DF9-A255-E68F3E248F28,2023-09-27_08h39.58.131,WP_VExplicitOC_LH,2022.2.5,Win32,12.8387834,NA,NA,NA,NA,NA,NA,NA,NA,NA,NA,NA,NA,NA,NA,NA,NA,NA,NA,read a novel,009.png,NA,NA,NA,NA,NA,NA,NA,NA,NA,NA,NA,NA,NA,NA,NA,NA,45.70312246,0.289,0,8,8,8,1,NA,NA,NA,NA,NA,NA,NA,NA,NA,NA,NA,NA,NA,NA,NA,NA
SUPAMT17025,37KGEN7NJ9PKV52NG3QUK1UWA4OPPR,2DD2AF21-00D0-4DF9-A255-E68F3E248F28,2023-09-27_08h39.58.131,WP_VExplicitOC_LH,2022.2.5,Win32,12.8387834,NA,NA,NA,NA,NA,NA,NA,NA,NA,NA,NA,NA,NA,NA,NA,NA,NA,NA,read the news,010.png,NA,NA,NA,NA,NA,NA,NA,NA,NA,NA,NA,NA,NA,NA,NA,NA,45.70312246,0.177,0,9,9,9,1,NA,NA,NA,NA,NA,NA,NA,NA,NA,NA,NA,NA,NA,NA,NA,NA
SUPAMT17025,37KGEN7NJ9PKV52NG3QUK1UWA4OPPR,2DD2AF21-00D0-4DF9-A255-E68F3E248F28,2023-09-27_08h39.58.131,WP_VExplicitOC_LH,2022.2.5,Win32,12.8387834,NA,NA,NA,NA,NA,NA,NA,NA,NA,NA,NA,NA,NA,NA,NA,NA,NA,NA,NA,NA,NA,NA,NA,NA,NA,NA,NA,NA,NA,NA,NA,NA,NA,NA,NA,NA,NA,NA,NA,NA,NA,NA,NA,stand up,NA,NA,NA,NA,NA,NA,NA,NA,NA,NA,NA,NA,NA,NA,NA
SUPAMT17025,37KGEN7NJ9PKV52NG3QUK1UWA4OPPR,2DD2AF21-00D0-4DF9-A255-E68F3E248F28,2023-09-27_08h39.58.131,WP_VExplicitOC_LH,2022.2.5,Win32,12.8387834,51.56249737,5.8013,2.0281,NA,NA,NA,NA,NA,happy,"unhappy, happy","less happy, more happy",NA,NA,NA,NA,NA,NA,NA,NA,NA,NA,NA,NA,NA,NA,NA,NA,NA,NA,NA,NA,NA,NA,NA,NA,NA,NA,NA,NA,NA,NA,NA,NA,NA,0,0,0,0,1,NA,NA,NA,NA,NA,NA,NA,NA,NA,NA
SUPAMT17025,37KGEN7NJ9PKV52NG3QUK1UWA4OPPR,2DD2AF21-00D0-4DF9-A255-E68F3E248F28,2023-09-27_08h39.58.131,WP_VExplicitOC_LH,2022.2.5,Win32,12.8387834,44.33593498,2.1575,2.0137,NA,NA,NA,NA,NA,bored,"bored, not bored","more bored, less bored",NA,NA,NA,NA,NA,NA,NA,NA,NA,NA,NA,NA,NA,NA,NA,NA,NA,NA,NA,NA,NA,NA,NA,NA,NA,NA,NA,NA,NA,NA,NA,NA,NA,0,1,1,2,1,NA,NA,NA,NA,NA,NA,NA,NA,NA,NA
SUPAMT17025,37KGEN7NJ9PKV52NG3QUK1UWA4OPPR,2DD2AF21-00D0-4DF9-A255-E68F3E248F28,2023-09-27_08h39.58.131,WP_VExplicitOC_LH,2022.2.5,Win32,12.8387834,44.53124747,2.4451,2.0041,NA,NA,NA,NA,NA,frustrated,"frustrated, not frustrated","more frustrated, less frustrated",NA,NA,NA,NA,NA,NA,NA,NA,NA,NA,NA,NA,NA,NA,NA,NA,NA,NA,NA,NA,NA,NA,NA,NA,NA,NA,NA,NA,NA,NA,NA,NA,NA,0,2,2,1,1,NA,NA,NA,NA,NA,NA,NA,NA,NA,NA
SUPAMT17025,37KGEN7NJ9PKV52NG3QUK1UWA4OPPR,2DD2AF21-00D0-4DF9-A255-E68F3E248F28,2023-09-27_08h39.58.131,WP_VExplicitOC_LH,2022.2.5,Win32,12.8387834,NA,NA,NA,NA,NA,NA,NA,NA,NA,NA,NA,NA,NA,NA,NA,NA,NA,NA,NA,NA,NA,NA,NA,NA,NA,NA,NA,NA,NA,NA,NA,NA,NA,NA,NA,NA,NA,NA,NA,NA,NA,NA,NA,NA,NA,NA,NA,NA,NA,NA,NA,NA,NA,NA,NA,NA,NA,NA,NA
SUPAMT17025,37KGEN7NJ9PKV52NG3QUK1UWA4OPPR,2DD2AF21-00D0-4DF9-A255-E68F3E248F28,2023-09-27_08h39.58.131,WP_VExplicitOC_LH,2022.2.5,Win32,12.8387834,NA,NA,NA,NA,NA,NA,NA,NA,NA,NA,NA,NA,NA,NA,NA,NA,NA,NA,NA,NA,NA,NA,NA,NA,NA,NA,NA,NA,NA,NA,NA,NA,NA,NA,NA,NA,NA,NA,NA,NA,NA,NA,NA,NA,NA,NA,NA,NA,NA,NA,NA,NA,NA,NA,NA,NA,NA,NA,NA
SUPAMT17025,37KGEN7NJ9PKV52NG3QUK1UWA4OPPR,2DD2AF21-00D0-4DF9-A255-E68F3E248F28,2023-09-27_08h39.58.131,WP_VExplicitOC_LH,2022.2.5,Win32,12.8387834,NA,NA,2.0133,NA,NA,NA,NA,NA,frustrated,"frustrated, not frustrated","more frustrated, less frustrated",NA,NA,NA,NA,NA,NA,NA,NA,NA,NA,NA,NA,NA,NA,NA,NA,NA,NA,NA,NA,NA,NA,NA,NA,NA,NA,NA,NA,NA,NA,NA,NA,NA,NA,NA,NA,NA,NA,0,0,0,1,1,NA,NA,NA,NA,NA
SUPAMT17025,37KGEN7NJ9PKV52NG3QUK1UWA4OPPR,2DD2AF21-00D0-4DF9-A255-E68F3E248F28,2023-09-27_08h39.58.131,WP_VExplicitOC_LH,2022.2.5,Win32,12.8387834,48.43749742,5.4705,2.083,NA,NA,NA,NA,NA,happy,"unhappy, happy","less happy, more happy",NA,NA,NA,NA,NA,NA,NA,NA,NA,NA,NA,NA,NA,NA,NA,NA,NA,NA,NA,NA,NA,NA,NA,NA,NA,NA,NA,NA,NA,NA,NA,NA,NA,NA,NA,NA,NA,NA,0,1,1,0,1,NA,NA,NA,NA,NA
SUPAMT17025,37KGEN7NJ9PKV52NG3QUK1UWA4OPPR,2DD2AF21-00D0-4DF9-A255-E68F3E248F28,2023-09-27_08h39.58.131,WP_VExplicitOC_LH,2022.2.5,Win32,12.8387834,NA,NA,2.0376,NA,NA,NA,NA,NA,bored,"bored, not bored","more bored, less bored",NA,NA,NA,NA,NA,NA,NA,NA,NA,NA,NA,NA,NA,NA,NA,NA,NA,NA,NA,NA,NA,NA,NA,NA,NA,NA,NA,NA,NA,NA,NA,NA,NA,NA,NA,NA,NA,NA,0,2,2,2,1,NA,NA,NA,NA,NA
SUPAMT17025,37KGEN7NJ9PKV52NG3QUK1UWA4OPPR,2DD2AF21-00D0-4DF9-A255-E68F3E248F28,2023-09-27_08h39.58.131,WP_VExplicitOC_LH,2022.2.5,Win32,12.8387834,NA,NA,NA,NA,NA,NA,NA,NA,NA,NA,NA,NA,NA,NA,NA,NA,NA,NA,NA,NA,NA,NA,NA,NA,NA,NA,NA,NA,NA,NA,NA,NA,NA,NA,NA,NA,NA,NA,NA,NA,NA,NA,NA,NA,NA,NA,NA,NA,NA,NA,NA,NA,NA,NA,0,0,0,0,1
SUPAMT17025,37KGEN7NJ9PKV52NG3QUK1UWA4OPPR,2DD2AF21-00D0-4DF9-A255-E68F3E248F28,2023-09-27_08h39.58.131,WP_VExplicitOC_LH,2022.2.5,Win32,12.8387834,39.64843505,3.6095,2.0254,NA,NA,NA,NA,NA,frustrated,"frustrated, not frustrated","more frustrated, less frustrated",NA,NA,NA,NA,NA,NA,NA,NA,NA,NA,NA,NA,NA,NA,NA,NA,NA,NA,NA,NA,NA,NA,NA,NA,NA,NA,NA,NA,NA,NA,NA,NA,NA,NA,NA,NA,NA,NA,0,0,0,1,1,NA,NA,NA,NA,NA
SUPAMT17025,37KGEN7NJ9PKV52NG3QUK1UWA4OPPR,2DD2AF21-00D0-4DF9-A255-E68F3E248F28,2023-09-27_08h39.58.131,WP_VExplicitOC_LH,2022.2.5,Win32,12.8387834,39.64843505,2.2422,2.0245,NA,NA,NA,NA,NA,happy,"unhappy, happy","less happy, more happy",NA,NA,NA,NA,NA,NA,NA,NA,NA,NA,NA,NA,NA,NA,NA,NA,NA,NA,NA,NA,NA,NA,NA,NA,NA,NA,NA,NA,NA,NA,NA,NA,NA,NA,NA,NA,NA,NA,0,1,1,0,1,NA,NA,NA,NA,NA
SUPAMT17025,37KGEN7NJ9PKV52NG3QUK1UWA4OPPR,2DD2AF21-00D0-4DF9-A255-E68F3E248F28,2023-09-27_08h39.58.131,WP_VExplicitOC_LH,2022.2.5,Win32,12.8387834,39.64843505,2.2013,2.0351,NA,NA,NA,NA,NA,bored,"bored, not bored","more bored, less bored",NA,NA,NA,NA,NA,NA,NA,NA,NA,NA,NA,NA,NA,NA,NA,NA,NA,NA,NA,NA,NA,NA,NA,NA,NA,NA,NA,NA,NA,NA,NA,NA,NA,NA,NA,NA,NA,NA,0,2,2,2,1,NA,NA,NA,NA,NA
SUPAMT17025,37KGEN7NJ9PKV52NG3QUK1UWA4OPPR,2DD2AF21-00D0-4DF9-A255-E68F3E248F28,2023-09-27_08h39.58.131,WP_VExplicitOC_LH,2022.2.5,Win32,12.8387834,NA,NA,NA,NA,NA,NA,NA,NA,NA,NA,NA,NA,NA,NA,NA,NA,NA,NA,NA,NA,NA,NA,NA,NA,NA,NA,NA,NA,NA,NA,NA,NA,NA,NA,NA,NA,NA,NA,NA,NA,NA,NA,NA,NA,NA,NA,NA,NA,NA,NA,NA,NA,NA,NA,1,0,1,0,1
SUPAMT17025,37KGEN7NJ9PKV52NG3QUK1UWA4OPPR,2DD2AF21-00D0-4DF9-A255-E68F3E248F28,2023-09-27_08h39.58.131,WP_VExplicitOC_LH,2022.2.5,Win32,12.8387834,NA,NA,2.0378,NA,NA,NA,NA,NA,frustrated,"frustrated, not frustrated","more frustrated, less frustrated",NA,NA,NA,NA,NA,NA,NA,NA,NA,NA,NA,NA,NA,NA,NA,NA,NA,NA,NA,NA,NA,NA,NA,NA,NA,NA,NA,NA,NA,NA,NA,NA,NA,NA,NA,NA,NA,NA,0,0,0,1,1,NA,NA,NA,NA,NA
SUPAMT17025,37KGEN7NJ9PKV52NG3QUK1UWA4OPPR,2DD2AF21-00D0-4DF9-A255-E68F3E248F28,2023-09-27_08h39.58.131,WP_VExplicitOC_LH,2022.2.5,Win32,12.8387834,NA,NA,2.0451,NA,NA,NA,NA,NA,happy,"unhappy, happy","less happy, more happy",NA,NA,NA,NA,NA,NA,NA,NA,NA,NA,NA,NA,NA,NA,NA,NA,NA,NA,NA,NA,NA,NA,NA,NA,NA,NA,NA,NA,NA,NA,NA,NA,NA,NA,NA,NA,NA,NA,0,1,1,0,1,NA,NA,NA,NA,NA
SUPAMT17025,37KGEN7NJ9PKV52NG3QUK1UWA4OPPR,2DD2AF21-00D0-4DF9-A255-E68F3E248F28,2023-09-27_08h39.58.131,WP_VExplicitOC_LH,2022.2.5,Win32,12.8387834,NA,NA,2.0367,NA,NA,NA,NA,NA,bored,"bored, not bored","more bored, less bored",NA,NA,NA,NA,NA,NA,NA,NA,NA,NA,NA,NA,NA,NA,NA,NA,NA,NA,NA,NA,NA,NA,NA,NA,NA,NA,NA,NA,NA,NA,NA,NA,NA,NA,NA,NA,NA,NA,0,2,2,2,1,NA,NA,NA,NA,NA
SUPAMT17025,37KGEN7NJ9PKV52NG3QUK1UWA4OPPR,2DD2AF21-00D0-4DF9-A255-E68F3E248F28,2023-09-27_08h39.58.131,WP_VExplicitOC_LH,2022.2.5,Win32,12.8387834,NA,NA,NA,NA,NA,NA,NA,NA,NA,NA,NA,NA,NA,NA,NA,NA,NA,NA,NA,NA,NA,NA,NA,NA,NA,NA,NA,NA,NA,NA,NA,NA,NA,NA,NA,NA,NA,NA,NA,NA,NA,NA,NA,NA,NA,NA,NA,NA,NA,NA,NA,NA,NA,NA,2,0,2,0,1
SUPAMT17025,37KGEN7NJ9PKV52NG3QUK1UWA4OPPR,2DD2AF21-00D0-4DF9-A255-E68F3E248F28,2023-09-27_08h39.58.131,WP_VExplicitOC_LH,2022.2.5,Win32,12.8387834,50.58593488,4.867,2.0195,NA,NA,NA,NA,NA,bored,"bored, not bored","more bored, less bored",NA,NA,NA,NA,NA,NA,NA,NA,NA,NA,NA,NA,NA,NA,NA,NA,NA,NA,NA,NA,NA,NA,NA,NA,NA,NA,NA,NA,NA,NA,NA,NA,NA,NA,NA,NA,NA,NA,0,0,0,2,1,NA,NA,NA,NA,NA
SUPAMT17025,37KGEN7NJ9PKV52NG3QUK1UWA4OPPR,2DD2AF21-00D0-4DF9-A255-E68F3E248F28,2023-09-27_08h39.58.131,WP_VExplicitOC_LH,2022.2.5,Win32,12.8387834,50.58593488,2.2979,2.0141,NA,NA,NA,NA,NA,frustrated,"frustrated, not frustrated","more frustrated, less frustrated",NA,NA,NA,NA,NA,NA,NA,NA,NA,NA,NA,NA,NA,NA,NA,NA,NA,NA,NA,NA,NA,NA,NA,NA,NA,NA,NA,NA,NA,NA,NA,NA,NA,NA,NA,NA,NA,NA,0,1,1,1,1,NA,NA,NA,NA,NA
SUPAMT17025,37KGEN7NJ9PKV52NG3QUK1UWA4OPPR,2DD2AF21-00D0-4DF9-A255-E68F3E248F28,2023-09-27_08h39.58.131,WP_VExplicitOC_LH,2022.2.5,Win32,12.8387834,50.58593488,2.3289,2.0021,NA,NA,NA,NA,NA,happy,"unhappy, happy","less happy, more happy",NA,NA,NA,NA,NA,NA,NA,NA,NA,NA,NA,NA,NA,NA,NA,NA,NA,NA,NA,NA,NA,NA,NA,NA,NA,NA,NA,NA,NA,NA,NA,NA,NA,NA,NA,NA,NA,NA,0,2,2,0,1,NA,NA,NA,NA,NA
SUPAMT17025,37KGEN7NJ9PKV52NG3QUK1UWA4OPPR,2DD2AF21-00D0-4DF9-A255-E68F3E248F28,2023-09-27_08h39.58.131,WP_VExplicitOC_LH,2022.2.5,Win32,12.8387834,NA,NA,NA,NA,NA,NA,NA,NA,NA,NA,NA,NA,NA,NA,NA,NA,NA,NA,NA,NA,NA,NA,NA,NA,NA,NA,NA,NA,NA,NA,NA,NA,NA,NA,NA,NA,NA,NA,NA,NA,NA,NA,NA,NA,NA,NA,NA,NA,NA,NA,NA,NA,NA,NA,3,0,3,0,1
SUPAMT17025,37KGEN7NJ9PKV52NG3QUK1UWA4OPPR,2DD2AF21-00D0-4DF9-A255-E68F3E248F28,2023-09-27_08h39.58.131,WP_VExplicitOC_LH,2022.2.5,Win32,12.8387834,NA,NA,2.0694,NA,NA,NA,NA,NA,bored,"bored, not bored","more bored, less bored",NA,NA,NA,NA,NA,NA,NA,NA,NA,NA,NA,NA,NA,NA,NA,NA,NA,NA,NA,NA,NA,NA,NA,NA,NA,NA,NA,NA,NA,NA,NA,NA,NA,NA,NA,NA,NA,NA,0,0,0,2,1,NA,NA,NA,NA,NA
SUPAMT17025,37KGEN7NJ9PKV52NG3QUK1UWA4OPPR,2DD2AF21-00D0-4DF9-A255-E68F3E248F28,2023-09-27_08h39.58.131,WP_VExplicitOC_LH,2022.2.5,Win32,12.8387834,39.84374754,4.4202,2.0547,NA,NA,NA,NA,NA,frustrated,"frustrated, not frustrated","more frustrated, less frustrated",NA,NA,NA,NA,NA,NA,NA,NA,NA,NA,NA,NA,NA,NA,NA,NA,NA,NA,NA,NA,NA,NA,NA,NA,NA,NA,NA,NA,NA,NA,NA,NA,NA,NA,NA,NA,NA,NA,0,1,1,1,1,NA,NA,NA,NA,NA
SUPAMT17025,37KGEN7NJ9PKV52NG3QUK1UWA4OPPR,2DD2AF21-00D0-4DF9-A255-E68F3E248F28,2023-09-27_08h39.58.131,WP_VExplicitOC_LH,2022.2.5,Win32,12.8387834,40.03906004,2.3337,2.065,NA,NA,NA,NA,NA,happy,"unhappy, happy","less happy, more happy",NA,NA,NA,NA,NA,NA,NA,NA,NA,NA,NA,NA,NA,NA,NA,NA,NA,NA,NA,NA,NA,NA,NA,NA,NA,NA,NA,NA,NA,NA,NA,NA,NA,NA,NA,NA,NA,NA,0,2,2,0,1,NA,NA,NA,NA,NA
SUPAMT17025,37KGEN7NJ9PKV52NG3QUK1UWA4OPPR,2DD2AF21-00D0-4DF9-A255-E68F3E248F28,2023-09-27_08h39.58.131,WP_VExplicitOC_LH,2022.2.5,Win32,12.8387834,NA,NA,NA,NA,NA,NA,NA,NA,NA,NA,NA,NA,NA,NA,NA,NA,NA,NA,NA,NA,NA,NA,NA,NA,NA,NA,NA,NA,NA,NA,NA,NA,NA,NA,NA,NA,NA,NA,NA,NA,NA,NA,NA,NA,NA,NA,NA,NA,NA,NA,NA,NA,NA,NA,4,0,4,0,1
SUPAMT17025,37KGEN7NJ9PKV52NG3QUK1UWA4OPPR,2DD2AF21-00D0-4DF9-A255-E68F3E248F28,2023-09-27_08h39.58.131,WP_VExplicitOC_LH,2022.2.5,Win32,12.8387834,42.9687475,6.4652,2.0355,NA,NA,NA,NA,NA,frustrated,"frustrated, not frustrated","more frustrated, less frustrated",NA,NA,NA,NA,NA,NA,NA,NA,NA,NA,NA,NA,NA,NA,NA,NA,NA,NA,NA,NA,NA,NA,NA,NA,NA,NA,NA,NA,NA,NA,NA,NA,NA,NA,NA,NA,NA,NA,0,0,0,1,1,NA,NA,NA,NA,NA
SUPAMT17025,37KGEN7NJ9PKV52NG3QUK1UWA4OPPR,2DD2AF21-00D0-4DF9-A255-E68F3E248F28,2023-09-27_08h39.58.131,WP_VExplicitOC_LH,2022.2.5,Win32,12.8387834,42.9687475,2.4214,2.0613,NA,NA,NA,NA,NA,happy,"unhappy, happy","less happy, more happy",NA,NA,NA,NA,NA,NA,NA,NA,NA,NA,NA,NA,NA,NA,NA,NA,NA,NA,NA,NA,NA,NA,NA,NA,NA,NA,NA,NA,NA,NA,NA,NA,NA,NA,NA,NA,NA,NA,0,1,1,0,1,NA,NA,NA,NA,NA
SUPAMT17025,37KGEN7NJ9PKV52NG3QUK1UWA4OPPR,2DD2AF21-00D0-4DF9-A255-E68F3E248F28,2023-09-27_08h39.58.131,WP_VExplicitOC_LH,2022.2.5,Win32,12.8387834,42.9687475,2.4528,2.0722,NA,NA,NA,NA,NA,bored,"bored, not bored","more bored, less bored",NA,NA,NA,NA,NA,NA,NA,NA,NA,NA,NA,NA,NA,NA,NA,NA,NA,NA,NA,NA,NA,NA,NA,NA,NA,NA,NA,NA,NA,NA,NA,NA,NA,NA,NA,NA,NA,NA,0,2,2,2,1,NA,NA,NA,NA,NA
SUPAMT17025,37KGEN7NJ9PKV52NG3QUK1UWA4OPPR,2DD2AF21-00D0-4DF9-A255-E68F3E248F28,2023-09-27_08h39.58.131,WP_VExplicitOC_LH,2022.2.5,Win32,12.8387834,NA,NA,NA,NA,NA,NA,NA,NA,NA,NA,NA,NA,NA,NA,NA,NA,NA,NA,NA,NA,NA,NA,NA,NA,NA,NA,NA,NA,NA,NA,NA,NA,NA,NA,NA,NA,NA,NA,NA,NA,NA,NA,NA,NA,NA,NA,NA,NA,NA,NA,NA,NA,NA,NA,5,0,5,0,1
SUPAMT17025,37KGEN7NJ9PKV52NG3QUK1UWA4OPPR,2DD2AF21-00D0-4DF9-A255-E68F3E248F28,2023-09-27_08h39.58.131,WP_VExplicitOC_LH,2022.2.5,Win32,12.8387834,NA,NA,2.0098,NA,NA,NA,NA,NA,frustrated,"frustrated, not frustrated","more frustrated, less frustrated",NA,NA,NA,NA,NA,NA,NA,NA,NA,NA,NA,NA,NA,NA,NA,NA,NA,NA,NA,NA,NA,NA,NA,NA,NA,NA,NA,NA,NA,NA,NA,NA,NA,NA,NA,NA,NA,NA,0,0,0,1,1,NA,NA,NA,NA,NA
SUPAMT17025,37KGEN7NJ9PKV52NG3QUK1UWA4OPPR,2DD2AF21-00D0-4DF9-A255-E68F3E248F28,2023-09-27_08h39.58.131,WP_VExplicitOC_LH,2022.2.5,Win32,12.8387834,NA,NA,2.0054,NA,NA,NA,NA,NA,happy,"unhappy, happy","less happy, more happy",NA,NA,NA,NA,NA,NA,NA,NA,NA,NA,NA,NA,NA,NA,NA,NA,NA,NA,NA,NA,NA,NA,NA,NA,NA,NA,NA,NA,NA,NA,NA,NA,NA,NA,NA,NA,NA,NA,0,1,1,0,1,NA,NA,NA,NA,NA
SUPAMT17025,37KGEN7NJ9PKV52NG3QUK1UWA4OPPR,2DD2AF21-00D0-4DF9-A255-E68F3E248F28,2023-09-27_08h39.58.131,WP_VExplicitOC_LH,2022.2.5,Win32,12.8387834,NA,NA,2.0362,NA,NA,NA,NA,NA,bored,"bored, not bored","more bored, less bored",NA,NA,NA,NA,NA,NA,NA,NA,NA,NA,NA,NA,NA,NA,NA,NA,NA,NA,NA,NA,NA,NA,NA,NA,NA,NA,NA,NA,NA,NA,NA,NA,NA,NA,NA,NA,NA,NA,0,2,2,2,1,NA,NA,NA,NA,NA
SUPAMT17025,37KGEN7NJ9PKV52NG3QUK1UWA4OPPR,2DD2AF21-00D0-4DF9-A255-E68F3E248F28,2023-09-27_08h39.58.131,WP_VExplicitOC_LH,2022.2.5,Win32,12.8387834,NA,NA,NA,NA,NA,NA,NA,NA,NA,NA,NA,NA,NA,NA,NA,NA,NA,NA,NA,NA,NA,NA,NA,NA,NA,NA,NA,NA,NA,NA,NA,NA,NA,NA,NA,NA,NA,NA,NA,NA,NA,NA,NA,NA,NA,NA,NA,NA,NA,NA,NA,NA,NA,NA,6,0,6,0,1
SUPAMT17025,37KGEN7NJ9PKV52NG3QUK1UWA4OPPR,2DD2AF21-00D0-4DF9-A255-E68F3E248F28,2023-09-27_08h39.58.131,WP_VExplicitOC_LH,2022.2.5,Win32,12.8387834,NA,NA,2.0172,NA,NA,NA,NA,NA,happy,"unhappy, happy","less happy, more happy",NA,NA,NA,NA,NA,NA,NA,NA,NA,NA,NA,NA,NA,NA,NA,NA,NA,NA,NA,NA,NA,NA,NA,NA,NA,NA,NA,NA,NA,NA,NA,NA,NA,NA,NA,NA,NA,NA,0,0,0,0,1,NA,NA,NA,NA,NA
SUPAMT17025,37KGEN7NJ9PKV52NG3QUK1UWA4OPPR,2DD2AF21-00D0-4DF9-A255-E68F3E248F28,2023-09-27_08h39.58.131,WP_VExplicitOC_LH,2022.2.5,Win32,12.8387834,NA,NA,2.0104,NA,NA,NA,NA,NA,bored,"bored, not bored","more bored, less bored",NA,NA,NA,NA,NA,NA,NA,NA,NA,NA,NA,NA,NA,NA,NA,NA,NA,NA,NA,NA,NA,NA,NA,NA,NA,NA,NA,NA,NA,NA,NA,NA,NA,NA,NA,NA,NA,NA,0,1,1,2,1,NA,NA,NA,NA,NA
SUPAMT17025,37KGEN7NJ9PKV52NG3QUK1UWA4OPPR,2DD2AF21-00D0-4DF9-A255-E68F3E248F28,2023-09-27_08h39.58.131,WP_VExplicitOC_LH,2022.2.5,Win32,12.8387834,NA,NA,2.0663,NA,NA,NA,NA,NA,frustrated,"frustrated, not frustrated","more frustrated, less frustrated",NA,NA,NA,NA,NA,NA,NA,NA,NA,NA,NA,NA,NA,NA,NA,NA,NA,NA,NA,NA,NA,NA,NA,NA,NA,NA,NA,NA,NA,NA,NA,NA,NA,NA,NA,NA,NA,NA,0,2,2,1,1,NA,NA,NA,NA,NA
SUPAMT17025,37KGEN7NJ9PKV52NG3QUK1UWA4OPPR,2DD2AF21-00D0-4DF9-A255-E68F3E248F28,2023-09-27_08h39.58.131,WP_VExplicitOC_LH,2022.2.5,Win32,12.8387834,NA,NA,NA,NA,NA,NA,NA,NA,NA,NA,NA,NA,NA,NA,NA,NA,NA,NA,NA,NA,NA,NA,NA,NA,NA,NA,NA,NA,NA,NA,NA,NA,NA,NA,NA,NA,NA,NA,NA,NA,NA,NA,NA,NA,NA,NA,NA,NA,NA,NA,NA,NA,NA,NA,7,0,7,0,1
SUPAMT17025,37KGEN7NJ9PKV52NG3QUK1UWA4OPPR,2DD2AF21-00D0-4DF9-A255-E68F3E248F28,2023-09-27_08h39.58.131,WP_VExplicitOC_LH,2022.2.5,Win32,12.8387834,NA,NA,2.066,NA,NA,NA,NA,NA,frustrated,"frustrated, not frustrated","more frustrated, less frustrated",NA,NA,NA,NA,NA,NA,NA,NA,NA,NA,NA,NA,NA,NA,NA,NA,NA,NA,NA,NA,NA,NA,NA,NA,NA,NA,NA,NA,NA,NA,NA,NA,NA,NA,NA,NA,NA,NA,0,0,0,1,1,NA,NA,NA,NA,NA
SUPAMT17025,37KGEN7NJ9PKV52NG3QUK1UWA4OPPR,2DD2AF21-00D0-4DF9-A255-E68F3E248F28,2023-09-27_08h39.58.131,WP_VExplicitOC_LH,2022.2.5,Win32,12.8387834,NA,NA,2.0157,NA,NA,NA,NA,NA,bored,"bored, not bored","more bored, less bored",NA,NA,NA,NA,NA,NA,NA,NA,NA,NA,NA,NA,NA,NA,NA,NA,NA,NA,NA,NA,NA,NA,NA,NA,NA,NA,NA,NA,NA,NA,NA,NA,NA,NA,NA,NA,NA,NA,0,1,1,2,1,NA,NA,NA,NA,NA
SUPAMT17025,37KGEN7NJ9PKV52NG3QUK1UWA4OPPR,2DD2AF21-00D0-4DF9-A255-E68F3E248F28,2023-09-27_08h39.58.131,WP_VExplicitOC_LH,2022.2.5,Win32,12.8387834,35.15624761,3.8156,2.0225,NA,NA,NA,NA,NA,happy,"unhappy, happy","less happy, more happy",NA,NA,NA,NA,NA,NA,NA,NA,NA,NA,NA,NA,NA,NA,NA,NA,NA,NA,NA,NA,NA,NA,NA,NA,NA,NA,NA,NA,NA,NA,NA,NA,NA,NA,NA,NA,NA,NA,0,2,2,0,1,NA,NA,NA,NA,NA
SUPAMT17025,37KGEN7NJ9PKV52NG3QUK1UWA4OPPR,2DD2AF21-00D0-4DF9-A255-E68F3E248F28,2023-09-27_08h39.58.131,WP_VExplicitOC_LH,2022.2.5,Win32,12.8387834,NA,NA,NA,NA,NA,NA,NA,NA,NA,NA,NA,NA,NA,NA,NA,NA,NA,NA,NA,NA,NA,NA,NA,NA,NA,NA,NA,NA,NA,NA,NA,NA,NA,NA,NA,NA,NA,NA,NA,NA,NA,NA,NA,NA,NA,NA,NA,NA,NA,NA,NA,NA,NA,NA,8,0,8,0,1
SUPAMT17025,37KGEN7NJ9PKV52NG3QUK1UWA4OPPR,2DD2AF21-00D0-4DF9-A255-E68F3E248F28,2023-09-27_08h39.58.131,WP_VExplicitOC_LH,2022.2.5,Win32,12.8387834,NA,NA,2.0638,NA,NA,NA,NA,NA,bored,"bored, not bored","more bored, less bored",NA,NA,NA,NA,NA,NA,NA,NA,NA,NA,NA,NA,NA,NA,NA,NA,NA,NA,NA,NA,NA,NA,NA,NA,NA,NA,NA,NA,NA,NA,NA,NA,NA,NA,NA,NA,NA,NA,0,0,0,2,1,NA,NA,NA,NA,NA
SUPAMT17025,37KGEN7NJ9PKV52NG3QUK1UWA4OPPR,2DD2AF21-00D0-4DF9-A255-E68F3E248F28,2023-09-27_08h39.58.131,WP_VExplicitOC_LH,2022.2.5,Win32,12.8387834,NA,NA,2.0653,NA,NA,NA,NA,NA,frustrated,"frustrated, not frustrated","more frustrated, less frustrated",NA,NA,NA,NA,NA,NA,NA,NA,NA,NA,NA,NA,NA,NA,NA,NA,NA,NA,NA,NA,NA,NA,NA,NA,NA,NA,NA,NA,NA,NA,NA,NA,NA,NA,NA,NA,NA,NA,0,1,1,1,1,NA,NA,NA,NA,NA
SUPAMT17025,37KGEN7NJ9PKV52NG3QUK1UWA4OPPR,2DD2AF21-00D0-4DF9-A255-E68F3E248F28,2023-09-27_08h39.58.131,WP_VExplicitOC_LH,2022.2.5,Win32,12.8387834,NA,NA,2.0376,NA,NA,NA,NA,NA,happy,"unhappy, happy","less happy, more happy",NA,NA,NA,NA,NA,NA,NA,NA,NA,NA,NA,NA,NA,NA,NA,NA,NA,NA,NA,NA,NA,NA,NA,NA,NA,NA,NA,NA,NA,NA,NA,NA,NA,NA,NA,NA,NA,NA,0,2,2,0,1,NA,NA,NA,NA,NA
SUPAMT17025,37KGEN7NJ9PKV52NG3QUK1UWA4OPPR,2DD2AF21-00D0-4DF9-A255-E68F3E248F28,2023-09-27_08h39.58.131,WP_VExplicitOC_LH,2022.2.5,Win32,12.8387834,NA,NA,NA,NA,NA,NA,NA,NA,NA,NA,NA,NA,NA,NA,NA,NA,NA,NA,NA,NA,NA,NA,NA,NA,NA,NA,NA,NA,NA,NA,NA,NA,NA,NA,NA,NA,NA,NA,NA,NA,NA,NA,NA,NA,NA,NA,NA,NA,NA,NA,NA,NA,NA,NA,9,0,9,0,1
SUPAMT17025,37KGEN7NJ9PKV52NG3QUK1UWA4OPPR,2DD2AF21-00D0-4DF9-A255-E68F3E248F28,2023-09-27_08h39.58.131,WP_VExplicitOC_LH,2022.2.5,Win32,12.8387834,NA,NA,2.0757,NA,NA,NA,NA,NA,frustrated,"frustrated, not frustrated","more frustrated, less frustrated",NA,NA,NA,NA,NA,NA,NA,NA,NA,NA,NA,NA,NA,NA,NA,NA,NA,NA,NA,NA,NA,NA,NA,NA,NA,NA,NA,NA,NA,NA,NA,NA,NA,NA,NA,NA,NA,NA,0,0,0,1,1,NA,NA,NA,NA,NA
SUPAMT17025,37KGEN7NJ9PKV52NG3QUK1UWA4OPPR,2DD2AF21-00D0-4DF9-A255-E68F3E248F28,2023-09-27_08h39.58.131,WP_VExplicitOC_LH,2022.2.5,Win32,12.8387834,40.62499753,2.8748,2.0274,NA,NA,NA,NA,NA,bored,"bored, not bored","more bored, less bored",NA,NA,NA,NA,NA,NA,NA,NA,NA,NA,NA,NA,NA,NA,NA,NA,NA,NA,NA,NA,NA,NA,NA,NA,NA,NA,NA,NA,NA,NA,NA,NA,NA,NA,NA,NA,NA,NA,0,1,1,2,1,NA,NA,NA,NA,NA
SUPAMT17025,37KGEN7NJ9PKV52NG3QUK1UWA4OPPR,2DD2AF21-00D0-4DF9-A255-E68F3E248F28,2023-09-27_08h39.58.131,WP_VExplicitOC_LH,2022.2.5,Win32,12.8387834,41.79687251,2.2107,2.0276,NA,NA,NA,NA,NA,happy,"unhappy, happy","less happy, more happy",NA,NA,NA,NA,NA,NA,NA,NA,NA,NA,NA,NA,NA,NA,NA,NA,NA,NA,NA,NA,NA,NA,NA,NA,NA,NA,NA,NA,NA,NA,NA,NA,NA,NA,NA,NA,NA,NA,0,2,2,0,1,NA,NA,NA,NA,NA
SUPAMT17025,37KGEN7NJ9PKV52NG3QUK1UWA4OPPR,2DD2AF21-00D0-4DF9-A255-E68F3E248F28,2023-09-27_08h39.58.131,WP_VExplicitOC_LH,2022.2.5,Win32,12.8387834,NA,NA,NA,NA,NA,NA,NA,NA,NA,NA,NA,NA,NA,NA,NA,NA,NA,NA,NA,NA,NA,NA,NA,NA,NA,NA,NA,NA,NA,NA,NA,NA,NA,NA,NA,NA,NA,NA,NA,NA,NA,NA,NA,NA,NA,NA,NA,NA,NA,NA,NA,NA,NA,NA,10,0,10,0,1
SUPAMT17025,37KGEN7NJ9PKV52NG3QUK1UWA4OPPR,2DD2AF21-00D0-4DF9-A255-E68F3E248F28,2023-09-27_08h39.58.131,WP_VExplicitOC_LH,2022.2.5,Win32,12.8387834,35.7421851,3.0275,2.0393,NA,NA,NA,NA,NA,bored,"bored, not bored","more bored, less bored",NA,NA,NA,NA,NA,NA,NA,NA,NA,NA,NA,NA,NA,NA,NA,NA,NA,NA,NA,NA,NA,NA,NA,NA,NA,NA,NA,NA,NA,NA,NA,NA,NA,NA,NA,NA,NA,NA,0,0,0,2,1,NA,NA,NA,NA,NA
SUPAMT17025,37KGEN7NJ9PKV52NG3QUK1UWA4OPPR,2DD2AF21-00D0-4DF9-A255-E68F3E248F28,2023-09-27_08h39.58.131,WP_VExplicitOC_LH,2022.2.5,Win32,12.8387834,NA,NA,2.0453,NA,NA,NA,NA,NA,frustrated,"frustrated, not frustrated","more frustrated, less frustrated",NA,NA,NA,NA,NA,NA,NA,NA,NA,NA,NA,NA,NA,NA,NA,NA,NA,NA,NA,NA,NA,NA,NA,NA,NA,NA,NA,NA,NA,NA,NA,NA,NA,NA,NA,NA,NA,NA,0,1,1,1,1,NA,NA,NA,NA,NA
SUPAMT17025,37KGEN7NJ9PKV52NG3QUK1UWA4OPPR,2DD2AF21-00D0-4DF9-A255-E68F3E248F28,2023-09-27_08h39.58.131,WP_VExplicitOC_LH,2022.2.5,Win32,12.8387834,NA,NA,2.0505,NA,NA,NA,NA,NA,happy,"unhappy, happy","less happy, more happy",NA,NA,NA,NA,NA,NA,NA,NA,NA,NA,NA,NA,NA,NA,NA,NA,NA,NA,NA,NA,NA,NA,NA,NA,NA,NA,NA,NA,NA,NA,NA,NA,NA,NA,NA,NA,NA,NA,0,2,2,0,1,NA,NA,NA,NA,NA
SUPAMT17025,37KGEN7NJ9PKV52NG3QUK1UWA4OPPR,2DD2AF21-00D0-4DF9-A255-E68F3E248F28,2023-09-27_08h39.58.131,WP_VExplicitOC_LH,2022.2.5,Win32,12.8387834,NA,NA,NA,NA,NA,NA,NA,NA,NA,NA,NA,NA,NA,NA,NA,NA,NA,NA,NA,NA,NA,NA,NA,NA,NA,NA,NA,NA,NA,NA,NA,NA,NA,NA,NA,NA,NA,NA,NA,NA,NA,NA,NA,NA,NA,NA,NA,NA,NA,NA,NA,NA,NA,NA,11,0,11,0,1
SUPAMT17025,37KGEN7NJ9PKV52NG3QUK1UWA4OPPR,2DD2AF21-00D0-4DF9-A255-E68F3E248F28,2023-09-27_08h39.58.131,WP_VExplicitOC_LH,2022.2.5,Win32,12.8387834,53.51562234,4.2838,2.0419,NA,NA,NA,NA,NA,bored,"bored, not bored","more bored, less bored",NA,NA,NA,NA,NA,NA,NA,NA,NA,NA,NA,NA,NA,NA,NA,NA,NA,NA,NA,NA,NA,NA,NA,NA,NA,NA,NA,NA,NA,NA,NA,NA,NA,NA,NA,NA,NA,NA,0,0,0,2,1,NA,NA,NA,NA,NA
SUPAMT17025,37KGEN7NJ9PKV52NG3QUK1UWA4OPPR,2DD2AF21-00D0-4DF9-A255-E68F3E248F28,2023-09-27_08h39.58.131,WP_VExplicitOC_LH,2022.2.5,Win32,12.8387834,53.51562234,2.3325,2.03,NA,NA,NA,NA,NA,frustrated,"frustrated, not frustrated","more frustrated, less frustrated",NA,NA,NA,NA,NA,NA,NA,NA,NA,NA,NA,NA,NA,NA,NA,NA,NA,NA,NA,NA,NA,NA,NA,NA,NA,NA,NA,NA,NA,NA,NA,NA,NA,NA,NA,NA,NA,NA,0,1,1,1,1,NA,NA,NA,NA,NA
SUPAMT17025,37KGEN7NJ9PKV52NG3QUK1UWA4OPPR,2DD2AF21-00D0-4DF9-A255-E68F3E248F28,2023-09-27_08h39.58.131,WP_VExplicitOC_LH,2022.2.5,Win32,12.8387834,53.51562234,2.2762,2.0311,NA,NA,NA,NA,NA,happy,"unhappy, happy","less happy, more happy",NA,NA,NA,NA,NA,NA,NA,NA,NA,NA,NA,NA,NA,NA,NA,NA,NA,NA,NA,NA,NA,NA,NA,NA,NA,NA,NA,NA,NA,NA,NA,NA,NA,NA,NA,NA,NA,NA,0,2,2,0,1,NA,NA,NA,NA,NA
SUPAMT17025,37KGEN7NJ9PKV52NG3QUK1UWA4OPPR,2DD2AF21-00D0-4DF9-A255-E68F3E248F28,2023-09-27_08h39.58.131,WP_VExplicitOC_LH,2022.2.5,Win32,12.8387834,NA,NA,NA,NA,NA,NA,NA,NA,NA,NA,NA,NA,NA,NA,NA,NA,NA,NA,NA,NA,NA,NA,NA,NA,NA,NA,NA,NA,NA,NA,NA,NA,NA,NA,NA,NA,NA,NA,NA,NA,NA,NA,NA,NA,NA,NA,NA,NA,NA,NA,NA,NA,NA,NA,12,0,12,0,1
SUPAMT17025,37KGEN7NJ9PKV52NG3QUK1UWA4OPPR,2DD2AF21-00D0-4DF9-A255-E68F3E248F28,2023-09-27_08h39.58.131,WP_VExplicitOC_LH,2022.2.5,Win32,12.8387834,NA,NA,2.044,NA,NA,NA,NA,NA,happy,"unhappy, happy","less happy, more happy",NA,NA,NA,NA,NA,NA,NA,NA,NA,NA,NA,NA,NA,NA,NA,NA,NA,NA,NA,NA,NA,NA,NA,NA,NA,NA,NA,NA,NA,NA,NA,NA,NA,NA,NA,NA,NA,NA,0,0,0,0,1,NA,NA,NA,NA,NA
SUPAMT17025,37KGEN7NJ9PKV52NG3QUK1UWA4OPPR,2DD2AF21-00D0-4DF9-A255-E68F3E248F28,2023-09-27_08h39.58.131,WP_VExplicitOC_LH,2022.2.5,Win32,12.8387834,NA,NA,2.0705,NA,NA,NA,NA,NA,bored,"bored, not bored","more bored, less bored",NA,NA,NA,NA,NA,NA,NA,NA,NA,NA,NA,NA,NA,NA,NA,NA,NA,NA,NA,NA,NA,NA,NA,NA,NA,NA,NA,NA,NA,NA,NA,NA,NA,NA,NA,NA,NA,NA,0,1,1,2,1,NA,NA,NA,NA,NA
SUPAMT17025,37KGEN7NJ9PKV52NG3QUK1UWA4OPPR,2DD2AF21-00D0-4DF9-A255-E68F3E248F28,2023-09-27_08h39.58.131,WP_VExplicitOC_LH,2022.2.5,Win32,12.8387834,NA,NA,2.0364,NA,NA,NA,NA,NA,frustrated,"frustrated, not frustrated","more frustrated, less frustrated",NA,NA,NA,NA,NA,NA,NA,NA,NA,NA,NA,NA,NA,NA,NA,NA,NA,NA,NA,NA,NA,NA,NA,NA,NA,NA,NA,NA,NA,NA,NA,NA,NA,NA,NA,NA,NA,NA,0,2,2,1,1,NA,NA,NA,NA,NA
SUPAMT17025,37KGEN7NJ9PKV52NG3QUK1UWA4OPPR,2DD2AF21-00D0-4DF9-A255-E68F3E248F28,2023-09-27_08h39.58.131,WP_VExplicitOC_LH,2022.2.5,Win32,12.8387834,NA,NA,NA,NA,NA,NA,NA,NA,NA,NA,NA,NA,NA,NA,NA,NA,NA,NA,NA,NA,NA,NA,NA,NA,NA,NA,NA,NA,NA,NA,NA,NA,NA,NA,NA,NA,NA,NA,NA,NA,NA,NA,NA,NA,NA,NA,NA,NA,NA,NA,NA,NA,NA,NA,13,0,13,0,1
SUPAMT17025,37KGEN7NJ9PKV52NG3QUK1UWA4OPPR,2DD2AF21-00D0-4DF9-A255-E68F3E248F28,2023-09-27_08h39.58.131,WP_VExplicitOC_LH,2022.2.5,Win32,12.8387834,48.24218492,3.9529,2.0453,NA,NA,NA,NA,NA,frustrated,"frustrated, not frustrated","more frustrated, less frustrated",NA,NA,NA,NA,NA,NA,NA,NA,NA,NA,NA,NA,NA,NA,NA,NA,NA,NA,NA,NA,NA,NA,NA,NA,NA,NA,NA,NA,NA,NA,NA,NA,NA,NA,NA,NA,NA,NA,0,0,0,1,1,NA,NA,NA,NA,NA
SUPAMT17025,37KGEN7NJ9PKV52NG3QUK1UWA4OPPR,2DD2AF21-00D0-4DF9-A255-E68F3E248F28,2023-09-27_08h39.58.131,WP_VExplicitOC_LH,2022.2.5,Win32,12.8387834,NA,NA,2.0594,NA,NA,NA,NA,NA,bored,"bored, not bored","more bored, less bored",NA,NA,NA,NA,NA,NA,NA,NA,NA,NA,NA,NA,NA,NA,NA,NA,NA,NA,NA,NA,NA,NA,NA,NA,NA,NA,NA,NA,NA,NA,NA,NA,NA,NA,NA,NA,NA,NA,0,1,1,2,1,NA,NA,NA,NA,NA
SUPAMT17025,37KGEN7NJ9PKV52NG3QUK1UWA4OPPR,2DD2AF21-00D0-4DF9-A255-E68F3E248F28,2023-09-27_08h39.58.131,WP_VExplicitOC_LH,2022.2.5,Win32,12.8387834,NA,NA,2.0562,NA,NA,NA,NA,NA,happy,"unhappy, happy","less happy, more happy",NA,NA,NA,NA,NA,NA,NA,NA,NA,NA,NA,NA,NA,NA,NA,NA,NA,NA,NA,NA,NA,NA,NA,NA,NA,NA,NA,NA,NA,NA,NA,NA,NA,NA,NA,NA,NA,NA,0,2,2,0,1,NA,NA,NA,NA,NA
SUPAMT17025,37KGEN7NJ9PKV52NG3QUK1UWA4OPPR,2DD2AF21-00D0-4DF9-A255-E68F3E248F28,2023-09-27_08h39.58.131,WP_VExplicitOC_LH,2022.2.5,Win32,12.8387834,NA,NA,NA,NA,NA,NA,NA,NA,NA,NA,NA,NA,NA,NA,NA,NA,NA,NA,NA,NA,NA,NA,NA,NA,NA,NA,NA,NA,NA,NA,NA,NA,NA,NA,NA,NA,NA,NA,NA,NA,NA,NA,NA,NA,NA,NA,NA,NA,NA,NA,NA,NA,NA,NA,14,0,14,0,1
SUPAMT17025,37KGEN7NJ9PKV52NG3QUK1UWA4OPPR,2DD2AF21-00D0-4DF9-A255-E68F3E248F28,2023-09-27_08h39.58.131,WP_VExplicitOC_LH,2022.2.5,Win32,12.8387834,NA,NA,NA,NA,NA,NA,NA,NA,NA,NA,NA,NA,NA,NA,NA,NA,NA,NA,NA,NA,NA,NA,NA,NA,NA,NA,NA,NA,NA,NA,NA,NA,NA,NA,NA,NA,NA,NA,NA,NA,NA,NA,NA,NA,NA,NA,NA,NA,NA,NA,NA,NA,NA,NA,NA,NA,NA,NA,NA
