participant,session,completion,date,expName,psychopyVersion,OS,frameRate,rating_all.response,rating_all.rt,rating_all.tStart,rndRat1.thisRepN,rndRat1.thisTrialN,rndRat1.thisN,rndRat1.thisIndex,rndRat1.ran,Emo,Labs,Labs2,rating_alt.response,rating_alt.rt,AltC.thisRepN,AltC.thisTrialN,AltC.thisN,AltC.thisIndex,AltC.ran,alt_choices,pic_choices,BottomAlt_Choice,rndRat2.thisRepN,rndRat2.thisTrialN,rndRat2.thisN,rndRat2.thisIndex,rndRat2.ran,rndRat3.thisRepN,rndRat3.thisTrialN,rndRat3.thisN,rndRat3.thisIndex,rndRat3.ran,trials_FC_L.thisRepN,trials_FC_L.thisTrialN,trials_FC_L.thisN,trials_FC_L.thisIndex,trials_FC_L.ran,rating_alt_2.response,rating_alt_2.rt,AltC2.thisRepN,AltC2.thisTrialN,AltC2.thisN,AltC2.thisIndex,AltC2.ran,TopAlt_Choice,rndRat4.thisRepN,rndRat4.thisTrialN,rndRat4.thisN,rndRat4.thisIndex,rndRat4.ran,rndRat5.thisRepN,rndRat5.thisTrialN,rndRat5.thisN,rndRat5.thisIndex,rndRat5.ran,trials_FC_H.thisRepN,trials_FC_H.thisTrialN,trials_FC_H.thisN,trials_FC_H.thisIndex,trials_FC_H.ran
SUPAMT17673,3Z3ZLGNNSOTYOSYFII8C73H5901Q3H,93D90E53-E966-477C-95E5-A5E95F290477,2023-09-26_18h48.39.773,WP_VExplicitOC_LH,2022.2.5,Win32,16.53849334,NA,NA,NA,NA,NA,NA,NA,NA,NA,NA,NA,NA,NA,NA,NA,NA,NA,NA,NA,NA,NA,NA,NA,NA,NA,NA,NA,NA,NA,NA,NA,NA,NA,NA,NA,NA,NA,NA,NA,NA,NA,NA,NA,NA,NA,NA,NA,NA,NA,NA,NA,NA,NA,NA,NA,NA,NA,NA,NA
SUPAMT17673,3Z3ZLGNNSOTYOSYFII8C73H5901Q3H,93D90E53-E966-477C-95E5-A5E95F290477,2023-09-26_18h48.39.773,WP_VExplicitOC_LH,2022.2.5,Win32,16.53849334,NA,NA,NA,NA,NA,NA,NA,NA,NA,NA,NA,NA,NA,NA,NA,NA,NA,NA,NA,NA,NA,NA,NA,NA,NA,NA,NA,NA,NA,NA,NA,NA,NA,NA,NA,NA,NA,NA,NA,NA,NA,NA,NA,NA,NA,NA,NA,NA,NA,NA,NA,NA,NA,NA,NA,NA,NA,NA,NA
SUPAMT17673,3Z3ZLGNNSOTYOSYFII8C73H5901Q3H,93D90E53-E966-477C-95E5-A5E95F290477,2023-09-26_18h48.39.773,WP_VExplicitOC_LH,2022.2.5,Win32,16.53849334,NA,NA,NA,NA,NA,NA,NA,NA,NA,NA,NA,NA,NA,NA,NA,NA,NA,NA,NA,NA,NA,NA,NA,NA,NA,NA,NA,NA,NA,NA,NA,NA,NA,NA,NA,NA,NA,NA,NA,NA,NA,NA,NA,NA,NA,NA,NA,NA,NA,NA,NA,NA,NA,NA,NA,NA,NA,NA,NA
SUPAMT17673,3Z3ZLGNNSOTYOSYFII8C73H5901Q3H,93D90E53-E966-477C-95E5-A5E95F290477,2023-09-26_18h48.39.773,WP_VExplicitOC_LH,2022.2.5,Win32,16.53849334,93.359375,4.9082,2.035,0,0,0,2,1,bored,"bored, not bored","more bored, less bored",NA,NA,NA,NA,NA,NA,NA,NA,NA,NA,NA,NA,NA,NA,NA,NA,NA,NA,NA,NA,NA,NA,NA,NA,NA,NA,NA,NA,NA,NA,NA,NA,NA,NA,NA,NA,NA,NA,NA,NA,NA,NA,NA,NA,NA,NA,NA,NA
SUPAMT17673,3Z3ZLGNNSOTYOSYFII8C73H5901Q3H,93D90E53-E966-477C-95E5-A5E95F290477,2023-09-26_18h48.39.773,WP_VExplicitOC_LH,2022.2.5,Win32,16.53849334,90.625,3.1822,2.021,0,1,1,1,1,frustrated,"frustrated, not frustrated","more frustrated, less frustrated",NA,NA,NA,NA,NA,NA,NA,NA,NA,NA,NA,NA,NA,NA,NA,NA,NA,NA,NA,NA,NA,NA,NA,NA,NA,NA,NA,NA,NA,NA,NA,NA,NA,NA,NA,NA,NA,NA,NA,NA,NA,NA,NA,NA,NA,NA,NA,NA
SUPAMT17673,3Z3ZLGNNSOTYOSYFII8C73H5901Q3H,93D90E53-E966-477C-95E5-A5E95F290477,2023-09-26_18h48.39.773,WP_VExplicitOC_LH,2022.2.5,Win32,16.53849334,91.015625,2.9925,2.0848,0,2,2,0,1,happy,"unhappy, happy","less happy, more happy",NA,NA,NA,NA,NA,NA,NA,NA,NA,NA,NA,NA,NA,NA,NA,NA,NA,NA,NA,NA,NA,NA,NA,NA,NA,NA,NA,NA,NA,NA,NA,NA,NA,NA,NA,NA,NA,NA,NA,NA,NA,NA,NA,NA,NA,NA,NA,NA
SUPAMT17673,3Z3ZLGNNSOTYOSYFII8C73H5901Q3H,93D90E53-E966-477C-95E5-A5E95F290477,2023-09-26_18h48.39.773,WP_VExplicitOC_LH,2022.2.5,Win32,16.53849334,NA,NA,NA,NA,NA,NA,NA,NA,NA,NA,NA,NA,NA,NA,NA,NA,NA,NA,NA,NA,NA,NA,NA,NA,NA,NA,NA,NA,NA,NA,NA,NA,NA,NA,NA,NA,NA,NA,NA,NA,NA,NA,NA,NA,NA,NA,NA,NA,NA,NA,NA,NA,NA,NA,NA,NA,NA,NA,NA
SUPAMT17673,3Z3ZLGNNSOTYOSYFII8C73H5901Q3H,93D90E53-E966-477C-95E5-A5E95F290477,2023-09-26_18h48.39.773,WP_VExplicitOC_LH,2022.2.5,Win32,16.53849334,NA,NA,NA,NA,NA,NA,NA,NA,NA,NA,NA,NA,NA,NA,NA,NA,NA,NA,NA,NA,NA,NA,NA,NA,NA,NA,NA,NA,NA,NA,NA,NA,NA,NA,NA,NA,NA,NA,NA,NA,NA,NA,NA,NA,NA,NA,NA,NA,NA,NA,NA,NA,NA,NA,NA,NA,NA,NA,NA
SUPAMT17673,3Z3ZLGNNSOTYOSYFII8C73H5901Q3H,93D90E53-E966-477C-95E5-A5E95F290477,2023-09-26_18h48.39.773,WP_VExplicitOC_LH,2022.2.5,Win32,16.53849334,NA,NA,NA,NA,NA,NA,NA,NA,NA,NA,NA,NA,NA,NA,NA,NA,NA,NA,NA,NA,NA,NA,NA,NA,NA,NA,NA,NA,NA,NA,NA,NA,NA,NA,NA,NA,NA,NA,NA,NA,NA,NA,NA,NA,NA,NA,NA,NA,NA,NA,NA,NA,NA,NA,NA,NA,NA,NA,NA
SUPAMT17673,3Z3ZLGNNSOTYOSYFII8C73H5901Q3H,93D90E53-E966-477C-95E5-A5E95F290477,2023-09-26_18h48.39.773,WP_VExplicitOC_LH,2022.2.5,Win32,16.53849334,NA,NA,NA,NA,NA,NA,NA,NA,NA,NA,NA,NA,NA,NA,NA,NA,NA,NA,NA,NA,NA,NA,NA,NA,NA,NA,NA,NA,NA,NA,NA,NA,NA,NA,NA,NA,NA,NA,NA,NA,NA,NA,NA,NA,NA,NA,NA,NA,NA,NA,NA,NA,NA,NA,NA,NA,NA,NA,NA
SUPAMT17673,3Z3ZLGNNSOTYOSYFII8C73H5901Q3H,93D90E53-E966-477C-95E5-A5E95F290477,2023-09-26_18h48.39.773,WP_VExplicitOC_LH,2022.2.5,Win32,16.53849334,NA,NA,NA,NA,NA,NA,NA,NA,NA,NA,NA,91.015625,1.3217,0,0,0,0,1,rest (looking at a fixed cross),001.png,NA,NA,NA,NA,NA,NA,NA,NA,NA,NA,NA,NA,NA,NA,NA,NA,NA,NA,NA,NA,NA,NA,NA,NA,NA,NA,NA,NA,NA,NA,NA,NA,NA,NA,NA,NA,NA,NA,NA
SUPAMT17673,3Z3ZLGNNSOTYOSYFII8C73H5901Q3H,93D90E53-E966-477C-95E5-A5E95F290477,2023-09-26_18h48.39.773,WP_VExplicitOC_LH,2022.2.5,Win32,16.53849334,NA,NA,NA,NA,NA,NA,NA,NA,NA,NA,NA,91.015625,0.894,0,1,1,1,1,stand up,002.png,NA,NA,NA,NA,NA,NA,NA,NA,NA,NA,NA,NA,NA,NA,NA,NA,NA,NA,NA,NA,NA,NA,NA,NA,NA,NA,NA,NA,NA,NA,NA,NA,NA,NA,NA,NA,NA,NA,NA
SUPAMT17673,3Z3ZLGNNSOTYOSYFII8C73H5901Q3H,93D90E53-E966-477C-95E5-A5E95F290477,2023-09-26_18h48.39.773,WP_VExplicitOC_LH,2022.2.5,Win32,16.53849334,NA,NA,NA,NA,NA,NA,NA,NA,NA,NA,NA,91.015625,0.5102,0,2,2,2,1,stretch,003.png,NA,NA,NA,NA,NA,NA,NA,NA,NA,NA,NA,NA,NA,NA,NA,NA,NA,NA,NA,NA,NA,NA,NA,NA,NA,NA,NA,NA,NA,NA,NA,NA,NA,NA,NA,NA,NA,NA,NA
SUPAMT17673,3Z3ZLGNNSOTYOSYFII8C73H5901Q3H,93D90E53-E966-477C-95E5-A5E95F290477,2023-09-26_18h48.39.773,WP_VExplicitOC_LH,2022.2.5,Win32,16.53849334,NA,NA,NA,NA,NA,NA,NA,NA,NA,NA,NA,91.015625,0.331,0,3,3,3,1,make a drink,004.png,NA,NA,NA,NA,NA,NA,NA,NA,NA,NA,NA,NA,NA,NA,NA,NA,NA,NA,NA,NA,NA,NA,NA,NA,NA,NA,NA,NA,NA,NA,NA,NA,NA,NA,NA,NA,NA,NA,NA
SUPAMT17673,3Z3ZLGNNSOTYOSYFII8C73H5901Q3H,93D90E53-E966-477C-95E5-A5E95F290477,2023-09-26_18h48.39.773,WP_VExplicitOC_LH,2022.2.5,Win32,16.53849334,NA,NA,NA,NA,NA,NA,NA,NA,NA,NA,NA,91.015625,0.2362,0,4,4,4,1,scroll social media,005.png,NA,NA,NA,NA,NA,NA,NA,NA,NA,NA,NA,NA,NA,NA,NA,NA,NA,NA,NA,NA,NA,NA,NA,NA,NA,NA,NA,NA,NA,NA,NA,NA,NA,NA,NA,NA,NA,NA,NA
SUPAMT17673,3Z3ZLGNNSOTYOSYFII8C73H5901Q3H,93D90E53-E966-477C-95E5-A5E95F290477,2023-09-26_18h48.39.773,WP_VExplicitOC_LH,2022.2.5,Win32,16.53849334,NA,NA,NA,NA,NA,NA,NA,NA,NA,NA,NA,91.015625,0.2058,0,5,5,5,1,listen to music,006.png,NA,NA,NA,NA,NA,NA,NA,NA,NA,NA,NA,NA,NA,NA,NA,NA,NA,NA,NA,NA,NA,NA,NA,NA,NA,NA,NA,NA,NA,NA,NA,NA,NA,NA,NA,NA,NA,NA,NA
SUPAMT17673,3Z3ZLGNNSOTYOSYFII8C73H5901Q3H,93D90E53-E966-477C-95E5-A5E95F290477,2023-09-26_18h48.39.773,WP_VExplicitOC_LH,2022.2.5,Win32,16.53849334,NA,NA,NA,NA,NA,NA,NA,NA,NA,NA,NA,91.015625,0.1841,0,6,6,6,1,daydream,007.png,NA,NA,NA,NA,NA,NA,NA,NA,NA,NA,NA,NA,NA,NA,NA,NA,NA,NA,NA,NA,NA,NA,NA,NA,NA,NA,NA,NA,NA,NA,NA,NA,NA,NA,NA,NA,NA,NA,NA
SUPAMT17673,3Z3ZLGNNSOTYOSYFII8C73H5901Q3H,93D90E53-E966-477C-95E5-A5E95F290477,2023-09-26_18h48.39.773,WP_VExplicitOC_LH,2022.2.5,Win32,16.53849334,NA,NA,NA,NA,NA,NA,NA,NA,NA,NA,NA,91.015625,0.2384,0,7,7,7,1,watch a short animation,008.png,NA,NA,NA,NA,NA,NA,NA,NA,NA,NA,NA,NA,NA,NA,NA,NA,NA,NA,NA,NA,NA,NA,NA,NA,NA,NA,NA,NA,NA,NA,NA,NA,NA,NA,NA,NA,NA,NA,NA
SUPAMT17673,3Z3ZLGNNSOTYOSYFII8C73H5901Q3H,93D90E53-E966-477C-95E5-A5E95F290477,2023-09-26_18h48.39.773,WP_VExplicitOC_LH,2022.2.5,Win32,16.53849334,NA,NA,NA,NA,NA,NA,NA,NA,NA,NA,NA,91.015625,0.2299,0,8,8,8,1,read a novel,009.png,NA,NA,NA,NA,NA,NA,NA,NA,NA,NA,NA,NA,NA,NA,NA,NA,NA,NA,NA,NA,NA,NA,NA,NA,NA,NA,NA,NA,NA,NA,NA,NA,NA,NA,NA,NA,NA,NA,NA
SUPAMT17673,3Z3ZLGNNSOTYOSYFII8C73H5901Q3H,93D90E53-E966-477C-95E5-A5E95F290477,2023-09-26_18h48.39.773,WP_VExplicitOC_LH,2022.2.5,Win32,16.53849334,NA,NA,NA,NA,NA,NA,NA,NA,NA,NA,NA,91.015625,0.2149,0,9,9,9,1,read the news,010.png,NA,NA,NA,NA,NA,NA,NA,NA,NA,NA,NA,NA,NA,NA,NA,NA,NA,NA,NA,NA,NA,NA,NA,NA,NA,NA,NA,NA,NA,NA,NA,NA,NA,NA,NA,NA,NA,NA,NA
SUPAMT17673,3Z3ZLGNNSOTYOSYFII8C73H5901Q3H,93D90E53-E966-477C-95E5-A5E95F290477,2023-09-26_18h48.39.773,WP_VExplicitOC_LH,2022.2.5,Win32,16.53849334,NA,NA,NA,NA,NA,NA,NA,NA,NA,NA,NA,NA,NA,NA,NA,NA,NA,NA,NA,NA,NA,NA,NA,NA,NA,NA,NA,NA,NA,NA,NA,NA,NA,NA,NA,NA,NA,NA,NA,NA,NA,NA,NA,NA,NA,NA,NA,NA,NA,NA,NA,NA,NA,NA,NA,NA,NA,NA,NA
SUPAMT17673,3Z3ZLGNNSOTYOSYFII8C73H5901Q3H,93D90E53-E966-477C-95E5-A5E95F290477,2023-09-26_18h48.39.773,WP_VExplicitOC_LH,2022.2.5,Win32,16.53849334,NA,NA,NA,NA,NA,NA,NA,NA,NA,NA,NA,NA,NA,NA,NA,NA,NA,NA,NA,NA,stand up,NA,NA,NA,NA,NA,NA,NA,NA,NA,NA,NA,NA,NA,NA,NA,NA,NA,NA,NA,NA,NA,NA,NA,NA,NA,NA,NA,NA,NA,NA,NA,NA,NA,NA,NA,NA,NA,NA
SUPAMT17673,3Z3ZLGNNSOTYOSYFII8C73H5901Q3H,93D90E53-E966-477C-95E5-A5E95F290477,2023-09-26_18h48.39.773,WP_VExplicitOC_LH,2022.2.5,Win32,16.53849334,89.84375,3.792,2.027,NA,NA,NA,NA,NA,bored,"bored, not bored","more bored, less bored",NA,NA,NA,NA,NA,NA,NA,NA,NA,NA,0,0,0,2,1,NA,NA,NA,NA,NA,NA,NA,NA,NA,NA,NA,NA,NA,NA,NA,NA,NA,NA,NA,NA,NA,NA,NA,NA,NA,NA,NA,NA,NA,NA,NA,NA,NA
SUPAMT17673,3Z3ZLGNNSOTYOSYFII8C73H5901Q3H,93D90E53-E966-477C-95E5-A5E95F290477,2023-09-26_18h48.39.773,WP_VExplicitOC_LH,2022.2.5,Win32,16.53849334,89.84375,3.0725,2.057,NA,NA,NA,NA,NA,frustrated,"frustrated, not frustrated","more frustrated, less frustrated",NA,NA,NA,NA,NA,NA,NA,NA,NA,NA,0,1,1,1,1,NA,NA,NA,NA,NA,NA,NA,NA,NA,NA,NA,NA,NA,NA,NA,NA,NA,NA,NA,NA,NA,NA,NA,NA,NA,NA,NA,NA,NA,NA,NA,NA,NA
SUPAMT17673,3Z3ZLGNNSOTYOSYFII8C73H5901Q3H,93D90E53-E966-477C-95E5-A5E95F290477,2023-09-26_18h48.39.773,WP_VExplicitOC_LH,2022.2.5,Win32,16.53849334,89.84375,3.1559,2.0395,NA,NA,NA,NA,NA,happy,"unhappy, happy","less happy, more happy",NA,NA,NA,NA,NA,NA,NA,NA,NA,NA,0,2,2,0,1,NA,NA,NA,NA,NA,NA,NA,NA,NA,NA,NA,NA,NA,NA,NA,NA,NA,NA,NA,NA,NA,NA,NA,NA,NA,NA,NA,NA,NA,NA,NA,NA,NA
SUPAMT17673,3Z3ZLGNNSOTYOSYFII8C73H5901Q3H,93D90E53-E966-477C-95E5-A5E95F290477,2023-09-26_18h48.39.773,WP_VExplicitOC_LH,2022.2.5,Win32,16.53849334,NA,NA,NA,NA,NA,NA,NA,NA,NA,NA,NA,NA,NA,NA,NA,NA,NA,NA,NA,NA,NA,NA,NA,NA,NA,NA,NA,NA,NA,NA,NA,NA,NA,NA,NA,NA,NA,NA,NA,NA,NA,NA,NA,NA,NA,NA,NA,NA,NA,NA,NA,NA,NA,NA,NA,NA,NA,NA,NA
SUPAMT17673,3Z3ZLGNNSOTYOSYFII8C73H5901Q3H,93D90E53-E966-477C-95E5-A5E95F290477,2023-09-26_18h48.39.773,WP_VExplicitOC_LH,2022.2.5,Win32,16.53849334,NA,NA,NA,NA,NA,NA,NA,NA,NA,NA,NA,NA,NA,NA,NA,NA,NA,NA,NA,NA,NA,NA,NA,NA,NA,NA,NA,NA,NA,NA,NA,NA,NA,NA,NA,NA,NA,NA,NA,NA,NA,NA,NA,NA,NA,NA,NA,NA,NA,NA,NA,NA,NA,NA,NA,NA,NA,NA,NA
SUPAMT17673,3Z3ZLGNNSOTYOSYFII8C73H5901Q3H,93D90E53-E966-477C-95E5-A5E95F290477,2023-09-26_18h48.39.773,WP_VExplicitOC_LH,2022.2.5,Win32,16.53849334,93.1640625,4.2046,2.0638,NA,NA,NA,NA,NA,frustrated,"frustrated, not frustrated","more frustrated, less frustrated",NA,NA,NA,NA,NA,NA,NA,NA,NA,NA,NA,NA,NA,NA,NA,0,0,0,1,1,NA,NA,NA,NA,NA,NA,NA,NA,NA,NA,NA,NA,NA,NA,NA,NA,NA,NA,NA,NA,NA,NA,NA,NA,NA,NA,NA,NA
SUPAMT17673,3Z3ZLGNNSOTYOSYFII8C73H5901Q3H,93D90E53-E966-477C-95E5-A5E95F290477,2023-09-26_18h48.39.773,WP_VExplicitOC_LH,2022.2.5,Win32,16.53849334,93.5546875,4.4011,2.0113,NA,NA,NA,NA,NA,happy,"unhappy, happy","less happy, more happy",NA,NA,NA,NA,NA,NA,NA,NA,NA,NA,NA,NA,NA,NA,NA,0,1,1,0,1,NA,NA,NA,NA,NA,NA,NA,NA,NA,NA,NA,NA,NA,NA,NA,NA,NA,NA,NA,NA,NA,NA,NA,NA,NA,NA,NA,NA
SUPAMT17673,3Z3ZLGNNSOTYOSYFII8C73H5901Q3H,93D90E53-E966-477C-95E5-A5E95F290477,2023-09-26_18h48.39.773,WP_VExplicitOC_LH,2022.2.5,Win32,16.53849334,93.5546875,2.9717,2.0042,NA,NA,NA,NA,NA,bored,"bored, not bored","more bored, less bored",NA,NA,NA,NA,NA,NA,NA,NA,NA,NA,NA,NA,NA,NA,NA,0,2,2,2,1,NA,NA,NA,NA,NA,NA,NA,NA,NA,NA,NA,NA,NA,NA,NA,NA,NA,NA,NA,NA,NA,NA,NA,NA,NA,NA,NA,NA
SUPAMT17673,3Z3ZLGNNSOTYOSYFII8C73H5901Q3H,93D90E53-E966-477C-95E5-A5E95F290477,2023-09-26_18h48.39.773,WP_VExplicitOC_LH,2022.2.5,Win32,16.53849334,NA,NA,NA,NA,NA,NA,NA,NA,NA,NA,NA,NA,NA,NA,NA,NA,NA,NA,NA,NA,NA,NA,NA,NA,NA,NA,NA,NA,NA,NA,NA,0,0,0,0,1,NA,NA,NA,NA,NA,NA,NA,NA,NA,NA,NA,NA,NA,NA,NA,NA,NA,NA,NA,NA,NA,NA,NA
SUPAMT17673,3Z3ZLGNNSOTYOSYFII8C73H5901Q3H,93D90E53-E966-477C-95E5-A5E95F290477,2023-09-26_18h48.39.773,WP_VExplicitOC_LH,2022.2.5,Win32,16.53849334,92.3828125,4.7767,2.0242,NA,NA,NA,NA,NA,bored,"bored, not bored","more bored, less bored",NA,NA,NA,NA,NA,NA,NA,NA,NA,NA,NA,NA,NA,NA,NA,0,0,0,2,1,NA,NA,NA,NA,NA,NA,NA,NA,NA,NA,NA,NA,NA,NA,NA,NA,NA,NA,NA,NA,NA,NA,NA,NA,NA,NA,NA,NA
SUPAMT17673,3Z3ZLGNNSOTYOSYFII8C73H5901Q3H,93D90E53-E966-477C-95E5-A5E95F290477,2023-09-26_18h48.39.773,WP_VExplicitOC_LH,2022.2.5,Win32,16.53849334,92.3828125,3.3025,2.0142,NA,NA,NA,NA,NA,happy,"unhappy, happy","less happy, more happy",NA,NA,NA,NA,NA,NA,NA,NA,NA,NA,NA,NA,NA,NA,NA,0,1,1,0,1,NA,NA,NA,NA,NA,NA,NA,NA,NA,NA,NA,NA,NA,NA,NA,NA,NA,NA,NA,NA,NA,NA,NA,NA,NA,NA,NA,NA
SUPAMT17673,3Z3ZLGNNSOTYOSYFII8C73H5901Q3H,93D90E53-E966-477C-95E5-A5E95F290477,2023-09-26_18h48.39.773,WP_VExplicitOC_LH,2022.2.5,Win32,16.53849334,92.3828125,2.9442,2.0376,NA,NA,NA,NA,NA,frustrated,"frustrated, not frustrated","more frustrated, less frustrated",NA,NA,NA,NA,NA,NA,NA,NA,NA,NA,NA,NA,NA,NA,NA,0,2,2,1,1,NA,NA,NA,NA,NA,NA,NA,NA,NA,NA,NA,NA,NA,NA,NA,NA,NA,NA,NA,NA,NA,NA,NA,NA,NA,NA,NA,NA
SUPAMT17673,3Z3ZLGNNSOTYOSYFII8C73H5901Q3H,93D90E53-E966-477C-95E5-A5E95F290477,2023-09-26_18h48.39.773,WP_VExplicitOC_LH,2022.2.5,Win32,16.53849334,NA,NA,NA,NA,NA,NA,NA,NA,NA,NA,NA,NA,NA,NA,NA,NA,NA,NA,NA,NA,NA,NA,NA,NA,NA,NA,NA,NA,NA,NA,NA,1,0,1,0,1,NA,NA,NA,NA,NA,NA,NA,NA,NA,NA,NA,NA,NA,NA,NA,NA,NA,NA,NA,NA,NA,NA,NA
SUPAMT17673,3Z3ZLGNNSOTYOSYFII8C73H5901Q3H,93D90E53-E966-477C-95E5-A5E95F290477,2023-09-26_18h48.39.773,WP_VExplicitOC_LH,2022.2.5,Win32,16.53849334,92.1875,4.2692,2.0115,NA,NA,NA,NA,NA,bored,"bored, not bored","more bored, less bored",NA,NA,NA,NA,NA,NA,NA,NA,NA,NA,NA,NA,NA,NA,NA,0,0,0,2,1,NA,NA,NA,NA,NA,NA,NA,NA,NA,NA,NA,NA,NA,NA,NA,NA,NA,NA,NA,NA,NA,NA,NA,NA,NA,NA,NA,NA
SUPAMT17673,3Z3ZLGNNSOTYOSYFII8C73H5901Q3H,93D90E53-E966-477C-95E5-A5E95F290477,2023-09-26_18h48.39.773,WP_VExplicitOC_LH,2022.2.5,Win32,16.53849334,91.6015625,3.9186,2.0725,NA,NA,NA,NA,NA,frustrated,"frustrated, not frustrated","more frustrated, less frustrated",NA,NA,NA,NA,NA,NA,NA,NA,NA,NA,NA,NA,NA,NA,NA,0,1,1,1,1,NA,NA,NA,NA,NA,NA,NA,NA,NA,NA,NA,NA,NA,NA,NA,NA,NA,NA,NA,NA,NA,NA,NA,NA,NA,NA,NA,NA
SUPAMT17673,3Z3ZLGNNSOTYOSYFII8C73H5901Q3H,93D90E53-E966-477C-95E5-A5E95F290477,2023-09-26_18h48.39.773,WP_VExplicitOC_LH,2022.2.5,Win32,16.53849334,89.6484375,3.3389,2.059,NA,NA,NA,NA,NA,happy,"unhappy, happy","less happy, more happy",NA,NA,NA,NA,NA,NA,NA,NA,NA,NA,NA,NA,NA,NA,NA,0,2,2,0,1,NA,NA,NA,NA,NA,NA,NA,NA,NA,NA,NA,NA,NA,NA,NA,NA,NA,NA,NA,NA,NA,NA,NA,NA,NA,NA,NA,NA
SUPAMT17673,3Z3ZLGNNSOTYOSYFII8C73H5901Q3H,93D90E53-E966-477C-95E5-A5E95F290477,2023-09-26_18h48.39.773,WP_VExplicitOC_LH,2022.2.5,Win32,16.53849334,NA,NA,NA,NA,NA,NA,NA,NA,NA,NA,NA,NA,NA,NA,NA,NA,NA,NA,NA,NA,NA,NA,NA,NA,NA,NA,NA,NA,NA,NA,NA,2,0,2,0,1,NA,NA,NA,NA,NA,NA,NA,NA,NA,NA,NA,NA,NA,NA,NA,NA,NA,NA,NA,NA,NA,NA,NA
SUPAMT17673,3Z3ZLGNNSOTYOSYFII8C73H5901Q3H,93D90E53-E966-477C-95E5-A5E95F290477,2023-09-26_18h48.39.773,WP_VExplicitOC_LH,2022.2.5,Win32,16.53849334,89.0625,3.9878,2.0433,NA,NA,NA,NA,NA,bored,"bored, not bored","more bored, less bored",NA,NA,NA,NA,NA,NA,NA,NA,NA,NA,NA,NA,NA,NA,NA,0,0,0,2,1,NA,NA,NA,NA,NA,NA,NA,NA,NA,NA,NA,NA,NA,NA,NA,NA,NA,NA,NA,NA,NA,NA,NA,NA,NA,NA,NA,NA
SUPAMT17673,3Z3ZLGNNSOTYOSYFII8C73H5901Q3H,93D90E53-E966-477C-95E5-A5E95F290477,2023-09-26_18h48.39.773,WP_VExplicitOC_LH,2022.2.5,Win32,16.53849334,89.84375,3.3713,2.0362,NA,NA,NA,NA,NA,happy,"unhappy, happy","less happy, more happy",NA,NA,NA,NA,NA,NA,NA,NA,NA,NA,NA,NA,NA,NA,NA,0,1,1,0,1,NA,NA,NA,NA,NA,NA,NA,NA,NA,NA,NA,NA,NA,NA,NA,NA,NA,NA,NA,NA,NA,NA,NA,NA,NA,NA,NA,NA
SUPAMT17673,3Z3ZLGNNSOTYOSYFII8C73H5901Q3H,93D90E53-E966-477C-95E5-A5E95F290477,2023-09-26_18h48.39.773,WP_VExplicitOC_LH,2022.2.5,Win32,16.53849334,90.0390625,3.0199,2.0386,NA,NA,NA,NA,NA,frustrated,"frustrated, not frustrated","more frustrated, less frustrated",NA,NA,NA,NA,NA,NA,NA,NA,NA,NA,NA,NA,NA,NA,NA,0,2,2,1,1,NA,NA,NA,NA,NA,NA,NA,NA,NA,NA,NA,NA,NA,NA,NA,NA,NA,NA,NA,NA,NA,NA,NA,NA,NA,NA,NA,NA
SUPAMT17673,3Z3ZLGNNSOTYOSYFII8C73H5901Q3H,93D90E53-E966-477C-95E5-A5E95F290477,2023-09-26_18h48.39.773,WP_VExplicitOC_LH,2022.2.5,Win32,16.53849334,NA,NA,NA,NA,NA,NA,NA,NA,NA,NA,NA,NA,NA,NA,NA,NA,NA,NA,NA,NA,NA,NA,NA,NA,NA,NA,NA,NA,NA,NA,NA,3,0,3,0,1,NA,NA,NA,NA,NA,NA,NA,NA,NA,NA,NA,NA,NA,NA,NA,NA,NA,NA,NA,NA,NA,NA,NA
SUPAMT17673,3Z3ZLGNNSOTYOSYFII8C73H5901Q3H,93D90E53-E966-477C-95E5-A5E95F290477,2023-09-26_18h48.39.773,WP_VExplicitOC_LH,2022.2.5,Win32,16.53849334,85.546875,4.1408,2.0603,NA,NA,NA,NA,NA,happy,"unhappy, happy","less happy, more happy",NA,NA,NA,NA,NA,NA,NA,NA,NA,NA,NA,NA,NA,NA,NA,0,0,0,0,1,NA,NA,NA,NA,NA,NA,NA,NA,NA,NA,NA,NA,NA,NA,NA,NA,NA,NA,NA,NA,NA,NA,NA,NA,NA,NA,NA,NA
SUPAMT17673,3Z3ZLGNNSOTYOSYFII8C73H5901Q3H,93D90E53-E966-477C-95E5-A5E95F290477,2023-09-26_18h48.39.773,WP_VExplicitOC_LH,2022.2.5,Win32,16.53849334,85.546875,3.5603,2.0113,NA,NA,NA,NA,NA,frustrated,"frustrated, not frustrated","more frustrated, less frustrated",NA,NA,NA,NA,NA,NA,NA,NA,NA,NA,NA,NA,NA,NA,NA,0,1,1,1,1,NA,NA,NA,NA,NA,NA,NA,NA,NA,NA,NA,NA,NA,NA,NA,NA,NA,NA,NA,NA,NA,NA,NA,NA,NA,NA,NA,NA
SUPAMT17673,3Z3ZLGNNSOTYOSYFII8C73H5901Q3H,93D90E53-E966-477C-95E5-A5E95F290477,2023-09-26_18h48.39.773,WP_VExplicitOC_LH,2022.2.5,Win32,16.53849334,86.328125,3.4589,2.0147,NA,NA,NA,NA,NA,bored,"bored, not bored","more bored, less bored",NA,NA,NA,NA,NA,NA,NA,NA,NA,NA,NA,NA,NA,NA,NA,0,2,2,2,1,NA,NA,NA,NA,NA,NA,NA,NA,NA,NA,NA,NA,NA,NA,NA,NA,NA,NA,NA,NA,NA,NA,NA,NA,NA,NA,NA,NA
SUPAMT17673,3Z3ZLGNNSOTYOSYFII8C73H5901Q3H,93D90E53-E966-477C-95E5-A5E95F290477,2023-09-26_18h48.39.773,WP_VExplicitOC_LH,2022.2.5,Win32,16.53849334,NA,NA,NA,NA,NA,NA,NA,NA,NA,NA,NA,NA,NA,NA,NA,NA,NA,NA,NA,NA,NA,NA,NA,NA,NA,NA,NA,NA,NA,NA,NA,4,0,4,0,1,NA,NA,NA,NA,NA,NA,NA,NA,NA,NA,NA,NA,NA,NA,NA,NA,NA,NA,NA,NA,NA,NA,NA
SUPAMT17673,3Z3ZLGNNSOTYOSYFII8C73H5901Q3H,93D90E53-E966-477C-95E5-A5E95F290477,2023-09-26_18h48.39.773,WP_VExplicitOC_LH,2022.2.5,Win32,16.53849334,91.6015625,3.6917,2.0048,NA,NA,NA,NA,NA,happy,"unhappy, happy","less happy, more happy",NA,NA,NA,NA,NA,NA,NA,NA,NA,NA,NA,NA,NA,NA,NA,0,0,0,0,1,NA,NA,NA,NA,NA,NA,NA,NA,NA,NA,NA,NA,NA,NA,NA,NA,NA,NA,NA,NA,NA,NA,NA,NA,NA,NA,NA,NA
SUPAMT17673,3Z3ZLGNNSOTYOSYFII8C73H5901Q3H,93D90E53-E966-477C-95E5-A5E95F290477,2023-09-26_18h48.39.773,WP_VExplicitOC_LH,2022.2.5,Win32,16.53849334,90.8203125,3.0975,2.0295,NA,NA,NA,NA,NA,frustrated,"frustrated, not frustrated","more frustrated, less frustrated",NA,NA,NA,NA,NA,NA,NA,NA,NA,NA,NA,NA,NA,NA,NA,0,1,1,1,1,NA,NA,NA,NA,NA,NA,NA,NA,NA,NA,NA,NA,NA,NA,NA,NA,NA,NA,NA,NA,NA,NA,NA,NA,NA,NA,NA,NA
SUPAMT17673,3Z3ZLGNNSOTYOSYFII8C73H5901Q3H,93D90E53-E966-477C-95E5-A5E95F290477,2023-09-26_18h48.39.773,WP_VExplicitOC_LH,2022.2.5,Win32,16.53849334,91.2109375,3.1919,2.0513,NA,NA,NA,NA,NA,bored,"bored, not bored","more bored, less bored",NA,NA,NA,NA,NA,NA,NA,NA,NA,NA,NA,NA,NA,NA,NA,0,2,2,2,1,NA,NA,NA,NA,NA,NA,NA,NA,NA,NA,NA,NA,NA,NA,NA,NA,NA,NA,NA,NA,NA,NA,NA,NA,NA,NA,NA,NA
SUPAMT17673,3Z3ZLGNNSOTYOSYFII8C73H5901Q3H,93D90E53-E966-477C-95E5-A5E95F290477,2023-09-26_18h48.39.773,WP_VExplicitOC_LH,2022.2.5,Win32,16.53849334,NA,NA,NA,NA,NA,NA,NA,NA,NA,NA,NA,NA,NA,NA,NA,NA,NA,NA,NA,NA,NA,NA,NA,NA,NA,NA,NA,NA,NA,NA,NA,5,0,5,0,1,NA,NA,NA,NA,NA,NA,NA,NA,NA,NA,NA,NA,NA,NA,NA,NA,NA,NA,NA,NA,NA,NA,NA
SUPAMT17673,3Z3ZLGNNSOTYOSYFII8C73H5901Q3H,93D90E53-E966-477C-95E5-A5E95F290477,2023-09-26_18h48.39.773,WP_VExplicitOC_LH,2022.2.5,Win32,16.53849334,92.1875,3.9648,2.0699,NA,NA,NA,NA,NA,happy,"unhappy, happy","less happy, more happy",NA,NA,NA,NA,NA,NA,NA,NA,NA,NA,NA,NA,NA,NA,NA,0,0,0,0,1,NA,NA,NA,NA,NA,NA,NA,NA,NA,NA,NA,NA,NA,NA,NA,NA,NA,NA,NA,NA,NA,NA,NA,NA,NA,NA,NA,NA
SUPAMT17673,3Z3ZLGNNSOTYOSYFII8C73H5901Q3H,93D90E53-E966-477C-95E5-A5E95F290477,2023-09-26_18h48.39.773,WP_VExplicitOC_LH,2022.2.5,Win32,16.53849334,92.1875,3.1688,2.0316,NA,NA,NA,NA,NA,bored,"bored, not bored","more bored, less bored",NA,NA,NA,NA,NA,NA,NA,NA,NA,NA,NA,NA,NA,NA,NA,0,1,1,2,1,NA,NA,NA,NA,NA,NA,NA,NA,NA,NA,NA,NA,NA,NA,NA,NA,NA,NA,NA,NA,NA,NA,NA,NA,NA,NA,NA,NA
SUPAMT17673,3Z3ZLGNNSOTYOSYFII8C73H5901Q3H,93D90E53-E966-477C-95E5-A5E95F290477,2023-09-26_18h48.39.773,WP_VExplicitOC_LH,2022.2.5,Win32,16.53849334,92.1875,2.9561,2.0397,NA,NA,NA,NA,NA,frustrated,"frustrated, not frustrated","more frustrated, less frustrated",NA,NA,NA,NA,NA,NA,NA,NA,NA,NA,NA,NA,NA,NA,NA,0,2,2,1,1,NA,NA,NA,NA,NA,NA,NA,NA,NA,NA,NA,NA,NA,NA,NA,NA,NA,NA,NA,NA,NA,NA,NA,NA,NA,NA,NA,NA
SUPAMT17673,3Z3ZLGNNSOTYOSYFII8C73H5901Q3H,93D90E53-E966-477C-95E5-A5E95F290477,2023-09-26_18h48.39.773,WP_VExplicitOC_LH,2022.2.5,Win32,16.53849334,NA,NA,NA,NA,NA,NA,NA,NA,NA,NA,NA,NA,NA,NA,NA,NA,NA,NA,NA,NA,NA,NA,NA,NA,NA,NA,NA,NA,NA,NA,NA,6,0,6,0,1,NA,NA,NA,NA,NA,NA,NA,NA,NA,NA,NA,NA,NA,NA,NA,NA,NA,NA,NA,NA,NA,NA,NA
SUPAMT17673,3Z3ZLGNNSOTYOSYFII8C73H5901Q3H,93D90E53-E966-477C-95E5-A5E95F290477,2023-09-26_18h48.39.773,WP_VExplicitOC_LH,2022.2.5,Win32,16.53849334,91.2109375,4.8883,2.0312,NA,NA,NA,NA,NA,frustrated,"frustrated, not frustrated","more frustrated, less frustrated",NA,NA,NA,NA,NA,NA,NA,NA,NA,NA,NA,NA,NA,NA,NA,0,0,0,1,1,NA,NA,NA,NA,NA,NA,NA,NA,NA,NA,NA,NA,NA,NA,NA,NA,NA,NA,NA,NA,NA,NA,NA,NA,NA,NA,NA,NA
SUPAMT17673,3Z3ZLGNNSOTYOSYFII8C73H5901Q3H,93D90E53-E966-477C-95E5-A5E95F290477,2023-09-26_18h48.39.773,WP_VExplicitOC_LH,2022.2.5,Win32,16.53849334,91.2109375,3.4414,2.0665,NA,NA,NA,NA,NA,happy,"unhappy, happy","less happy, more happy",NA,NA,NA,NA,NA,NA,NA,NA,NA,NA,NA,NA,NA,NA,NA,0,1,1,0,1,NA,NA,NA,NA,NA,NA,NA,NA,NA,NA,NA,NA,NA,NA,NA,NA,NA,NA,NA,NA,NA,NA,NA,NA,NA,NA,NA,NA
SUPAMT17673,3Z3ZLGNNSOTYOSYFII8C73H5901Q3H,93D90E53-E966-477C-95E5-A5E95F290477,2023-09-26_18h48.39.773,WP_VExplicitOC_LH,2022.2.5,Win32,16.53849334,91.015625,4.1136,2.0746000000000002,NA,NA,NA,NA,NA,bored,"bored, not bored","more bored, less bored",NA,NA,NA,NA,NA,NA,NA,NA,NA,NA,NA,NA,NA,NA,NA,0,2,2,2,1,NA,NA,NA,NA,NA,NA,NA,NA,NA,NA,NA,NA,NA,NA,NA,NA,NA,NA,NA,NA,NA,NA,NA,NA,NA,NA,NA,NA
SUPAMT17673,3Z3ZLGNNSOTYOSYFII8C73H5901Q3H,93D90E53-E966-477C-95E5-A5E95F290477,2023-09-26_18h48.39.773,WP_VExplicitOC_LH,2022.2.5,Win32,16.53849334,NA,NA,NA,NA,NA,NA,NA,NA,NA,NA,NA,NA,NA,NA,NA,NA,NA,NA,NA,NA,NA,NA,NA,NA,NA,NA,NA,NA,NA,NA,NA,7,0,7,0,1,NA,NA,NA,NA,NA,NA,NA,NA,NA,NA,NA,NA,NA,NA,NA,NA,NA,NA,NA,NA,NA,NA,NA
SUPAMT17673,3Z3ZLGNNSOTYOSYFII8C73H5901Q3H,93D90E53-E966-477C-95E5-A5E95F290477,2023-09-26_18h48.39.773,WP_VExplicitOC_LH,2022.2.5,Win32,16.53849334,93.359375,6.8371,2.055,NA,NA,NA,NA,NA,frustrated,"frustrated, not frustrated","more frustrated, less frustrated",NA,NA,NA,NA,NA,NA,NA,NA,NA,NA,NA,NA,NA,NA,NA,0,0,0,1,1,NA,NA,NA,NA,NA,NA,NA,NA,NA,NA,NA,NA,NA,NA,NA,NA,NA,NA,NA,NA,NA,NA,NA,NA,NA,NA,NA,NA
SUPAMT17673,3Z3ZLGNNSOTYOSYFII8C73H5901Q3H,93D90E53-E966-477C-95E5-A5E95F290477,2023-09-26_18h48.39.773,WP_VExplicitOC_LH,2022.2.5,Win32,16.53849334,84.765625,3.6843,2.0228,NA,NA,NA,NA,NA,happy,"unhappy, happy","less happy, more happy",NA,NA,NA,NA,NA,NA,NA,NA,NA,NA,NA,NA,NA,NA,NA,0,1,1,0,1,NA,NA,NA,NA,NA,NA,NA,NA,NA,NA,NA,NA,NA,NA,NA,NA,NA,NA,NA,NA,NA,NA,NA,NA,NA,NA,NA,NA
SUPAMT17673,3Z3ZLGNNSOTYOSYFII8C73H5901Q3H,93D90E53-E966-477C-95E5-A5E95F290477,2023-09-26_18h48.39.773,WP_VExplicitOC_LH,2022.2.5,Win32,16.53849334,84.765625,3.0317,2.0097,NA,NA,NA,NA,NA,bored,"bored, not bored","more bored, less bored",NA,NA,NA,NA,NA,NA,NA,NA,NA,NA,NA,NA,NA,NA,NA,0,2,2,2,1,NA,NA,NA,NA,NA,NA,NA,NA,NA,NA,NA,NA,NA,NA,NA,NA,NA,NA,NA,NA,NA,NA,NA,NA,NA,NA,NA,NA
SUPAMT17673,3Z3ZLGNNSOTYOSYFII8C73H5901Q3H,93D90E53-E966-477C-95E5-A5E95F290477,2023-09-26_18h48.39.773,WP_VExplicitOC_LH,2022.2.5,Win32,16.53849334,NA,NA,NA,NA,NA,NA,NA,NA,NA,NA,NA,NA,NA,NA,NA,NA,NA,NA,NA,NA,NA,NA,NA,NA,NA,NA,NA,NA,NA,NA,NA,8,0,8,0,1,NA,NA,NA,NA,NA,NA,NA,NA,NA,NA,NA,NA,NA,NA,NA,NA,NA,NA,NA,NA,NA,NA,NA
SUPAMT17673,3Z3ZLGNNSOTYOSYFII8C73H5901Q3H,93D90E53-E966-477C-95E5-A5E95F290477,2023-09-26_18h48.39.773,WP_VExplicitOC_LH,2022.2.5,Win32,16.53849334,89.84375,3.6642,2.0376,NA,NA,NA,NA,NA,happy,"unhappy, happy","less happy, more happy",NA,NA,NA,NA,NA,NA,NA,NA,NA,NA,NA,NA,NA,NA,NA,0,0,0,0,1,NA,NA,NA,NA,NA,NA,NA,NA,NA,NA,NA,NA,NA,NA,NA,NA,NA,NA,NA,NA,NA,NA,NA,NA,NA,NA,NA,NA
SUPAMT17673,3Z3ZLGNNSOTYOSYFII8C73H5901Q3H,93D90E53-E966-477C-95E5-A5E95F290477,2023-09-26_18h48.39.773,WP_VExplicitOC_LH,2022.2.5,Win32,16.53849334,90.0390625,3.0243,2.0074,NA,NA,NA,NA,NA,bored,"bored, not bored","more bored, less bored",NA,NA,NA,NA,NA,NA,NA,NA,NA,NA,NA,NA,NA,NA,NA,0,1,1,2,1,NA,NA,NA,NA,NA,NA,NA,NA,NA,NA,NA,NA,NA,NA,NA,NA,NA,NA,NA,NA,NA,NA,NA,NA,NA,NA,NA,NA
SUPAMT17673,3Z3ZLGNNSOTYOSYFII8C73H5901Q3H,93D90E53-E966-477C-95E5-A5E95F290477,2023-09-26_18h48.39.773,WP_VExplicitOC_LH,2022.2.5,Win32,16.53849334,90.0390625,3.0234,2.0469,NA,NA,NA,NA,NA,frustrated,"frustrated, not frustrated","more frustrated, less frustrated",NA,NA,NA,NA,NA,NA,NA,NA,NA,NA,NA,NA,NA,NA,NA,0,2,2,1,1,NA,NA,NA,NA,NA,NA,NA,NA,NA,NA,NA,NA,NA,NA,NA,NA,NA,NA,NA,NA,NA,NA,NA,NA,NA,NA,NA,NA
SUPAMT17673,3Z3ZLGNNSOTYOSYFII8C73H5901Q3H,93D90E53-E966-477C-95E5-A5E95F290477,2023-09-26_18h48.39.773,WP_VExplicitOC_LH,2022.2.5,Win32,16.53849334,NA,NA,NA,NA,NA,NA,NA,NA,NA,NA,NA,NA,NA,NA,NA,NA,NA,NA,NA,NA,NA,NA,NA,NA,NA,NA,NA,NA,NA,NA,NA,9,0,9,0,1,NA,NA,NA,NA,NA,NA,NA,NA,NA,NA,NA,NA,NA,NA,NA,NA,NA,NA,NA,NA,NA,NA,NA
SUPAMT17673,3Z3ZLGNNSOTYOSYFII8C73H5901Q3H,93D90E53-E966-477C-95E5-A5E95F290477,2023-09-26_18h48.39.773,WP_VExplicitOC_LH,2022.2.5,Win32,16.53849334,90.0390625,3.2892,2.053,NA,NA,NA,NA,NA,bored,"bored, not bored","more bored, less bored",NA,NA,NA,NA,NA,NA,NA,NA,NA,NA,NA,NA,NA,NA,NA,0,0,0,2,1,NA,NA,NA,NA,NA,NA,NA,NA,NA,NA,NA,NA,NA,NA,NA,NA,NA,NA,NA,NA,NA,NA,NA,NA,NA,NA,NA,NA
SUPAMT17673,3Z3ZLGNNSOTYOSYFII8C73H5901Q3H,93D90E53-E966-477C-95E5-A5E95F290477,2023-09-26_18h48.39.773,WP_VExplicitOC_LH,2022.2.5,Win32,16.53849334,89.6484375,3.3392,2.0684,NA,NA,NA,NA,NA,happy,"unhappy, happy","less happy, more happy",NA,NA,NA,NA,NA,NA,NA,NA,NA,NA,NA,NA,NA,NA,NA,0,1,1,0,1,NA,NA,NA,NA,NA,NA,NA,NA,NA,NA,NA,NA,NA,NA,NA,NA,NA,NA,NA,NA,NA,NA,NA,NA,NA,NA,NA,NA
SUPAMT17673,3Z3ZLGNNSOTYOSYFII8C73H5901Q3H,93D90E53-E966-477C-95E5-A5E95F290477,2023-09-26_18h48.39.773,WP_VExplicitOC_LH,2022.2.5,Win32,16.53849334,89.453125,3.4244,2.0604,NA,NA,NA,NA,NA,frustrated,"frustrated, not frustrated","more frustrated, less frustrated",NA,NA,NA,NA,NA,NA,NA,NA,NA,NA,NA,NA,NA,NA,NA,0,2,2,1,1,NA,NA,NA,NA,NA,NA,NA,NA,NA,NA,NA,NA,NA,NA,NA,NA,NA,NA,NA,NA,NA,NA,NA,NA,NA,NA,NA,NA
SUPAMT17673,3Z3ZLGNNSOTYOSYFII8C73H5901Q3H,93D90E53-E966-477C-95E5-A5E95F290477,2023-09-26_18h48.39.773,WP_VExplicitOC_LH,2022.2.5,Win32,16.53849334,NA,NA,NA,NA,NA,NA,NA,NA,NA,NA,NA,NA,NA,NA,NA,NA,NA,NA,NA,NA,NA,NA,NA,NA,NA,NA,NA,NA,NA,NA,NA,10,0,10,0,1,NA,NA,NA,NA,NA,NA,NA,NA,NA,NA,NA,NA,NA,NA,NA,NA,NA,NA,NA,NA,NA,NA,NA
SUPAMT17673,3Z3ZLGNNSOTYOSYFII8C73H5901Q3H,93D90E53-E966-477C-95E5-A5E95F290477,2023-09-26_18h48.39.773,WP_VExplicitOC_LH,2022.2.5,Win32,16.53849334,94.7265625,4.6409,2.037,NA,NA,NA,NA,NA,happy,"unhappy, happy","less happy, more happy",NA,NA,NA,NA,NA,NA,NA,NA,NA,NA,NA,NA,NA,NA,NA,0,0,0,0,1,NA,NA,NA,NA,NA,NA,NA,NA,NA,NA,NA,NA,NA,NA,NA,NA,NA,NA,NA,NA,NA,NA,NA,NA,NA,NA,NA,NA
SUPAMT17673,3Z3ZLGNNSOTYOSYFII8C73H5901Q3H,93D90E53-E966-477C-95E5-A5E95F290477,2023-09-26_18h48.39.773,WP_VExplicitOC_LH,2022.2.5,Win32,16.53849334,93.75,3.409,2.058,NA,NA,NA,NA,NA,frustrated,"frustrated, not frustrated","more frustrated, less frustrated",NA,NA,NA,NA,NA,NA,NA,NA,NA,NA,NA,NA,NA,NA,NA,0,1,1,1,1,NA,NA,NA,NA,NA,NA,NA,NA,NA,NA,NA,NA,NA,NA,NA,NA,NA,NA,NA,NA,NA,NA,NA,NA,NA,NA,NA,NA
SUPAMT17673,3Z3ZLGNNSOTYOSYFII8C73H5901Q3H,93D90E53-E966-477C-95E5-A5E95F290477,2023-09-26_18h48.39.773,WP_VExplicitOC_LH,2022.2.5,Win32,16.53849334,94.921875,3.0971,2.013,NA,NA,NA,NA,NA,bored,"bored, not bored","more bored, less bored",NA,NA,NA,NA,NA,NA,NA,NA,NA,NA,NA,NA,NA,NA,NA,0,2,2,2,1,NA,NA,NA,NA,NA,NA,NA,NA,NA,NA,NA,NA,NA,NA,NA,NA,NA,NA,NA,NA,NA,NA,NA,NA,NA,NA,NA,NA
SUPAMT17673,3Z3ZLGNNSOTYOSYFII8C73H5901Q3H,93D90E53-E966-477C-95E5-A5E95F290477,2023-09-26_18h48.39.773,WP_VExplicitOC_LH,2022.2.5,Win32,16.53849334,NA,NA,NA,NA,NA,NA,NA,NA,NA,NA,NA,NA,NA,NA,NA,NA,NA,NA,NA,NA,NA,NA,NA,NA,NA,NA,NA,NA,NA,NA,NA,11,0,11,0,1,NA,NA,NA,NA,NA,NA,NA,NA,NA,NA,NA,NA,NA,NA,NA,NA,NA,NA,NA,NA,NA,NA,NA
SUPAMT17673,3Z3ZLGNNSOTYOSYFII8C73H5901Q3H,93D90E53-E966-477C-95E5-A5E95F290477,2023-09-26_18h48.39.773,WP_VExplicitOC_LH,2022.2.5,Win32,16.53849334,86.328125,3.6323,2.0893,NA,NA,NA,NA,NA,frustrated,"frustrated, not frustrated","more frustrated, less frustrated",NA,NA,NA,NA,NA,NA,NA,NA,NA,NA,NA,NA,NA,NA,NA,0,0,0,1,1,NA,NA,NA,NA,NA,NA,NA,NA,NA,NA,NA,NA,NA,NA,NA,NA,NA,NA,NA,NA,NA,NA,NA,NA,NA,NA,NA,NA
SUPAMT17673,3Z3ZLGNNSOTYOSYFII8C73H5901Q3H,93D90E53-E966-477C-95E5-A5E95F290477,2023-09-26_18h48.39.773,WP_VExplicitOC_LH,2022.2.5,Win32,16.53849334,86.328125,3.1453,2.0509,NA,NA,NA,NA,NA,happy,"unhappy, happy","less happy, more happy",NA,NA,NA,NA,NA,NA,NA,NA,NA,NA,NA,NA,NA,NA,NA,0,1,1,0,1,NA,NA,NA,NA,NA,NA,NA,NA,NA,NA,NA,NA,NA,NA,NA,NA,NA,NA,NA,NA,NA,NA,NA,NA,NA,NA,NA,NA
SUPAMT17673,3Z3ZLGNNSOTYOSYFII8C73H5901Q3H,93D90E53-E966-477C-95E5-A5E95F290477,2023-09-26_18h48.39.773,WP_VExplicitOC_LH,2022.2.5,Win32,16.53849334,86.328125,2.8732,2.0076,NA,NA,NA,NA,NA,bored,"bored, not bored","more bored, less bored",NA,NA,NA,NA,NA,NA,NA,NA,NA,NA,NA,NA,NA,NA,NA,0,2,2,2,1,NA,NA,NA,NA,NA,NA,NA,NA,NA,NA,NA,NA,NA,NA,NA,NA,NA,NA,NA,NA,NA,NA,NA,NA,NA,NA,NA,NA
SUPAMT17673,3Z3ZLGNNSOTYOSYFII8C73H5901Q3H,93D90E53-E966-477C-95E5-A5E95F290477,2023-09-26_18h48.39.773,WP_VExplicitOC_LH,2022.2.5,Win32,16.53849334,NA,NA,NA,NA,NA,NA,NA,NA,NA,NA,NA,NA,NA,NA,NA,NA,NA,NA,NA,NA,NA,NA,NA,NA,NA,NA,NA,NA,NA,NA,NA,12,0,12,0,1,NA,NA,NA,NA,NA,NA,NA,NA,NA,NA,NA,NA,NA,NA,NA,NA,NA,NA,NA,NA,NA,NA,NA
SUPAMT17673,3Z3ZLGNNSOTYOSYFII8C73H5901Q3H,93D90E53-E966-477C-95E5-A5E95F290477,2023-09-26_18h48.39.773,WP_VExplicitOC_LH,2022.2.5,Win32,16.53849334,NA,NA,2.0724,NA,NA,NA,NA,NA,bored,"bored, not bored","more bored, less bored",NA,NA,NA,NA,NA,NA,NA,NA,NA,NA,NA,NA,NA,NA,NA,0,0,0,2,1,NA,NA,NA,NA,NA,NA,NA,NA,NA,NA,NA,NA,NA,NA,NA,NA,NA,NA,NA,NA,NA,NA,NA,NA,NA,NA,NA,NA
SUPAMT17673,3Z3ZLGNNSOTYOSYFII8C73H5901Q3H,93D90E53-E966-477C-95E5-A5E95F290477,2023-09-26_18h48.39.773,WP_VExplicitOC_LH,2022.2.5,Win32,16.53849334,85.9375,4.1763,2.0007,NA,NA,NA,NA,NA,frustrated,"frustrated, not frustrated","more frustrated, less frustrated",NA,NA,NA,NA,NA,NA,NA,NA,NA,NA,NA,NA,NA,NA,NA,0,1,1,1,1,NA,NA,NA,NA,NA,NA,NA,NA,NA,NA,NA,NA,NA,NA,NA,NA,NA,NA,NA,NA,NA,NA,NA,NA,NA,NA,NA,NA
SUPAMT17673,3Z3ZLGNNSOTYOSYFII8C73H5901Q3H,93D90E53-E966-477C-95E5-A5E95F290477,2023-09-26_18h48.39.773,WP_VExplicitOC_LH,2022.2.5,Win32,16.53849334,86.71875,3.3539,2.0479,NA,NA,NA,NA,NA,happy,"unhappy, happy","less happy, more happy",NA,NA,NA,NA,NA,NA,NA,NA,NA,NA,NA,NA,NA,NA,NA,0,2,2,0,1,NA,NA,NA,NA,NA,NA,NA,NA,NA,NA,NA,NA,NA,NA,NA,NA,NA,NA,NA,NA,NA,NA,NA,NA,NA,NA,NA,NA
SUPAMT17673,3Z3ZLGNNSOTYOSYFII8C73H5901Q3H,93D90E53-E966-477C-95E5-A5E95F290477,2023-09-26_18h48.39.773,WP_VExplicitOC_LH,2022.2.5,Win32,16.53849334,NA,NA,NA,NA,NA,NA,NA,NA,NA,NA,NA,NA,NA,NA,NA,NA,NA,NA,NA,NA,NA,NA,NA,NA,NA,NA,NA,NA,NA,NA,NA,13,0,13,0,1,NA,NA,NA,NA,NA,NA,NA,NA,NA,NA,NA,NA,NA,NA,NA,NA,NA,NA,NA,NA,NA,NA,NA
SUPAMT17673,3Z3ZLGNNSOTYOSYFII8C73H5901Q3H,93D90E53-E966-477C-95E5-A5E95F290477,2023-09-26_18h48.39.773,WP_VExplicitOC_LH,2022.2.5,Win32,16.53849334,89.6484375,3.9291,2.0947,NA,NA,NA,NA,NA,bored,"bored, not bored","more bored, less bored",NA,NA,NA,NA,NA,NA,NA,NA,NA,NA,NA,NA,NA,NA,NA,0,0,0,2,1,NA,NA,NA,NA,NA,NA,NA,NA,NA,NA,NA,NA,NA,NA,NA,NA,NA,NA,NA,NA,NA,NA,NA,NA,NA,NA,NA,NA
SUPAMT17673,3Z3ZLGNNSOTYOSYFII8C73H5901Q3H,93D90E53-E966-477C-95E5-A5E95F290477,2023-09-26_18h48.39.773,WP_VExplicitOC_LH,2022.2.5,Win32,16.53849334,89.6484375,3.8977,2.0272,NA,NA,NA,NA,NA,happy,"unhappy, happy","less happy, more happy",NA,NA,NA,NA,NA,NA,NA,NA,NA,NA,NA,NA,NA,NA,NA,0,1,1,0,1,NA,NA,NA,NA,NA,NA,NA,NA,NA,NA,NA,NA,NA,NA,NA,NA,NA,NA,NA,NA,NA,NA,NA,NA,NA,NA,NA,NA
SUPAMT17673,3Z3ZLGNNSOTYOSYFII8C73H5901Q3H,93D90E53-E966-477C-95E5-A5E95F290477,2023-09-26_18h48.39.773,WP_VExplicitOC_LH,2022.2.5,Win32,16.53849334,89.6484375,4.0074,2.0294,NA,NA,NA,NA,NA,frustrated,"frustrated, not frustrated","more frustrated, less frustrated",NA,NA,NA,NA,NA,NA,NA,NA,NA,NA,NA,NA,NA,NA,NA,0,2,2,1,1,NA,NA,NA,NA,NA,NA,NA,NA,NA,NA,NA,NA,NA,NA,NA,NA,NA,NA,NA,NA,NA,NA,NA,NA,NA,NA,NA,NA
SUPAMT17673,3Z3ZLGNNSOTYOSYFII8C73H5901Q3H,93D90E53-E966-477C-95E5-A5E95F290477,2023-09-26_18h48.39.773,WP_VExplicitOC_LH,2022.2.5,Win32,16.53849334,NA,NA,NA,NA,NA,NA,NA,NA,NA,NA,NA,NA,NA,NA,NA,NA,NA,NA,NA,NA,NA,NA,NA,NA,NA,NA,NA,NA,NA,NA,NA,14,0,14,0,1,NA,NA,NA,NA,NA,NA,NA,NA,NA,NA,NA,NA,NA,NA,NA,NA,NA,NA,NA,NA,NA,NA,NA
SUPAMT17673,3Z3ZLGNNSOTYOSYFII8C73H5901Q3H,93D90E53-E966-477C-95E5-A5E95F290477,2023-09-26_18h48.39.773,WP_VExplicitOC_LH,2022.2.5,Win32,16.53849334,NA,NA,NA,NA,NA,NA,NA,NA,NA,NA,NA,NA,NA,NA,NA,NA,NA,NA,NA,NA,NA,NA,NA,NA,NA,NA,NA,NA,NA,NA,NA,NA,NA,NA,NA,NA,NA,NA,NA,NA,NA,NA,NA,NA,NA,NA,NA,NA,NA,NA,NA,NA,NA,NA,NA,NA,NA,NA,NA
SUPAMT17673,3Z3ZLGNNSOTYOSYFII8C73H5901Q3H,93D90E53-E966-477C-95E5-A5E95F290477,2023-09-26_18h48.39.773,WP_VExplicitOC_LH,2022.2.5,Win32,16.53849334,NA,NA,NA,NA,NA,NA,NA,NA,NA,NA,NA,NA,NA,NA,NA,NA,NA,NA,NA,NA,NA,NA,NA,NA,NA,NA,NA,NA,NA,NA,NA,NA,NA,NA,NA,NA,NA,NA,NA,NA,NA,NA,NA,NA,NA,NA,NA,NA,NA,NA,NA,NA,NA,NA,NA,NA,NA,NA,NA
SUPAMT17673,3Z3ZLGNNSOTYOSYFII8C73H5901Q3H,93D90E53-E966-477C-95E5-A5E95F290477,2023-09-26_18h48.39.773,WP_VExplicitOC_LH,2022.2.5,Win32,16.53849334,NA,NA,NA,NA,NA,NA,NA,NA,NA,NA,NA,NA,NA,NA,NA,NA,NA,NA,rest (looking at a fixed cross),001.png,NA,NA,NA,NA,NA,NA,NA,NA,NA,NA,NA,NA,NA,NA,NA,NA,91.015625,1.5095,0,0,0,0,1,NA,NA,NA,NA,NA,NA,NA,NA,NA,NA,NA,NA,NA,NA,NA,NA
SUPAMT17673,3Z3ZLGNNSOTYOSYFII8C73H5901Q3H,93D90E53-E966-477C-95E5-A5E95F290477,2023-09-26_18h48.39.773,WP_VExplicitOC_LH,2022.2.5,Win32,16.53849334,NA,NA,NA,NA,NA,NA,NA,NA,NA,NA,NA,NA,NA,NA,NA,NA,NA,NA,stand up,002.png,NA,NA,NA,NA,NA,NA,NA,NA,NA,NA,NA,NA,NA,NA,NA,NA,91.015625,0.2353,0,1,1,1,1,NA,NA,NA,NA,NA,NA,NA,NA,NA,NA,NA,NA,NA,NA,NA,NA
SUPAMT17673,3Z3ZLGNNSOTYOSYFII8C73H5901Q3H,93D90E53-E966-477C-95E5-A5E95F290477,2023-09-26_18h48.39.773,WP_VExplicitOC_LH,2022.2.5,Win32,16.53849334,NA,NA,NA,NA,NA,NA,NA,NA,NA,NA,NA,NA,NA,NA,NA,NA,NA,NA,stretch,003.png,NA,NA,NA,NA,NA,NA,NA,NA,NA,NA,NA,NA,NA,NA,NA,NA,91.015625,0.23,0,2,2,2,1,NA,NA,NA,NA,NA,NA,NA,NA,NA,NA,NA,NA,NA,NA,NA,NA
SUPAMT17673,3Z3ZLGNNSOTYOSYFII8C73H5901Q3H,93D90E53-E966-477C-95E5-A5E95F290477,2023-09-26_18h48.39.773,WP_VExplicitOC_LH,2022.2.5,Win32,16.53849334,NA,NA,NA,NA,NA,NA,NA,NA,NA,NA,NA,NA,NA,NA,NA,NA,NA,NA,make a drink,004.png,NA,NA,NA,NA,NA,NA,NA,NA,NA,NA,NA,NA,NA,NA,NA,NA,91.015625,0.1265,0,3,3,3,1,NA,NA,NA,NA,NA,NA,NA,NA,NA,NA,NA,NA,NA,NA,NA,NA
SUPAMT17673,3Z3ZLGNNSOTYOSYFII8C73H5901Q3H,93D90E53-E966-477C-95E5-A5E95F290477,2023-09-26_18h48.39.773,WP_VExplicitOC_LH,2022.2.5,Win32,16.53849334,NA,NA,NA,NA,NA,NA,NA,NA,NA,NA,NA,NA,NA,NA,NA,NA,NA,NA,scroll social media,005.png,NA,NA,NA,NA,NA,NA,NA,NA,NA,NA,NA,NA,NA,NA,NA,NA,91.015625,0.232,0,4,4,4,1,NA,NA,NA,NA,NA,NA,NA,NA,NA,NA,NA,NA,NA,NA,NA,NA
SUPAMT17673,3Z3ZLGNNSOTYOSYFII8C73H5901Q3H,93D90E53-E966-477C-95E5-A5E95F290477,2023-09-26_18h48.39.773,WP_VExplicitOC_LH,2022.2.5,Win32,16.53849334,NA,NA,NA,NA,NA,NA,NA,NA,NA,NA,NA,NA,NA,NA,NA,NA,NA,NA,listen to music,006.png,NA,NA,NA,NA,NA,NA,NA,NA,NA,NA,NA,NA,NA,NA,NA,NA,91.015625,0.2231,0,5,5,5,1,NA,NA,NA,NA,NA,NA,NA,NA,NA,NA,NA,NA,NA,NA,NA,NA
SUPAMT17673,3Z3ZLGNNSOTYOSYFII8C73H5901Q3H,93D90E53-E966-477C-95E5-A5E95F290477,2023-09-26_18h48.39.773,WP_VExplicitOC_LH,2022.2.5,Win32,16.53849334,NA,NA,NA,NA,NA,NA,NA,NA,NA,NA,NA,NA,NA,NA,NA,NA,NA,NA,daydream,007.png,NA,NA,NA,NA,NA,NA,NA,NA,NA,NA,NA,NA,NA,NA,NA,NA,91.015625,0.1202,0,6,6,6,1,NA,NA,NA,NA,NA,NA,NA,NA,NA,NA,NA,NA,NA,NA,NA,NA
SUPAMT17673,3Z3ZLGNNSOTYOSYFII8C73H5901Q3H,93D90E53-E966-477C-95E5-A5E95F290477,2023-09-26_18h48.39.773,WP_VExplicitOC_LH,2022.2.5,Win32,16.53849334,NA,NA,NA,NA,NA,NA,NA,NA,NA,NA,NA,NA,NA,NA,NA,NA,NA,NA,watch a short animation,008.png,NA,NA,NA,NA,NA,NA,NA,NA,NA,NA,NA,NA,NA,NA,NA,NA,91.015625,0.2276,0,7,7,7,1,NA,NA,NA,NA,NA,NA,NA,NA,NA,NA,NA,NA,NA,NA,NA,NA
SUPAMT17673,3Z3ZLGNNSOTYOSYFII8C73H5901Q3H,93D90E53-E966-477C-95E5-A5E95F290477,2023-09-26_18h48.39.773,WP_VExplicitOC_LH,2022.2.5,Win32,16.53849334,NA,NA,NA,NA,NA,NA,NA,NA,NA,NA,NA,NA,NA,NA,NA,NA,NA,NA,read a novel,009.png,NA,NA,NA,NA,NA,NA,NA,NA,NA,NA,NA,NA,NA,NA,NA,NA,91.015625,0.1346,0,8,8,8,1,NA,NA,NA,NA,NA,NA,NA,NA,NA,NA,NA,NA,NA,NA,NA,NA
SUPAMT17673,3Z3ZLGNNSOTYOSYFII8C73H5901Q3H,93D90E53-E966-477C-95E5-A5E95F290477,2023-09-26_18h48.39.773,WP_VExplicitOC_LH,2022.2.5,Win32,16.53849334,NA,NA,NA,NA,NA,NA,NA,NA,NA,NA,NA,NA,NA,NA,NA,NA,NA,NA,read the news,010.png,NA,NA,NA,NA,NA,NA,NA,NA,NA,NA,NA,NA,NA,NA,NA,NA,91.015625,0.2345,0,9,9,9,1,NA,NA,NA,NA,NA,NA,NA,NA,NA,NA,NA,NA,NA,NA,NA,NA
SUPAMT17673,3Z3ZLGNNSOTYOSYFII8C73H5901Q3H,93D90E53-E966-477C-95E5-A5E95F290477,2023-09-26_18h48.39.773,WP_VExplicitOC_LH,2022.2.5,Win32,16.53849334,NA,NA,NA,NA,NA,NA,NA,NA,NA,NA,NA,NA,NA,NA,NA,NA,NA,NA,NA,NA,NA,NA,NA,NA,NA,NA,NA,NA,NA,NA,NA,NA,NA,NA,NA,NA,NA,NA,NA,NA,NA,NA,NA,stand up,NA,NA,NA,NA,NA,NA,NA,NA,NA,NA,NA,NA,NA,NA,NA
SUPAMT17673,3Z3ZLGNNSOTYOSYFII8C73H5901Q3H,93D90E53-E966-477C-95E5-A5E95F290477,2023-09-26_18h48.39.773,WP_VExplicitOC_LH,2022.2.5,Win32,16.53849334,84.9609375,3.3409,2.0654,NA,NA,NA,NA,NA,bored,"bored, not bored","more bored, less bored",NA,NA,NA,NA,NA,NA,NA,NA,NA,NA,NA,NA,NA,NA,NA,NA,NA,NA,NA,NA,NA,NA,NA,NA,NA,NA,NA,NA,NA,NA,NA,NA,NA,0,0,0,2,1,NA,NA,NA,NA,NA,NA,NA,NA,NA,NA
SUPAMT17673,3Z3ZLGNNSOTYOSYFII8C73H5901Q3H,93D90E53-E966-477C-95E5-A5E95F290477,2023-09-26_18h48.39.773,WP_VExplicitOC_LH,2022.2.5,Win32,16.53849334,80.859375,3.655,2.0506,NA,NA,NA,NA,NA,frustrated,"frustrated, not frustrated","more frustrated, less frustrated",NA,NA,NA,NA,NA,NA,NA,NA,NA,NA,NA,NA,NA,NA,NA,NA,NA,NA,NA,NA,NA,NA,NA,NA,NA,NA,NA,NA,NA,NA,NA,NA,NA,0,1,1,1,1,NA,NA,NA,NA,NA,NA,NA,NA,NA,NA
SUPAMT17673,3Z3ZLGNNSOTYOSYFII8C73H5901Q3H,93D90E53-E966-477C-95E5-A5E95F290477,2023-09-26_18h48.39.773,WP_VExplicitOC_LH,2022.2.5,Win32,16.53849334,82.6171875,3.3157,2.087,NA,NA,NA,NA,NA,happy,"unhappy, happy","less happy, more happy",NA,NA,NA,NA,NA,NA,NA,NA,NA,NA,NA,NA,NA,NA,NA,NA,NA,NA,NA,NA,NA,NA,NA,NA,NA,NA,NA,NA,NA,NA,NA,NA,NA,0,2,2,0,1,NA,NA,NA,NA,NA,NA,NA,NA,NA,NA
SUPAMT17673,3Z3ZLGNNSOTYOSYFII8C73H5901Q3H,93D90E53-E966-477C-95E5-A5E95F290477,2023-09-26_18h48.39.773,WP_VExplicitOC_LH,2022.2.5,Win32,16.53849334,NA,NA,NA,NA,NA,NA,NA,NA,NA,NA,NA,NA,NA,NA,NA,NA,NA,NA,NA,NA,NA,NA,NA,NA,NA,NA,NA,NA,NA,NA,NA,NA,NA,NA,NA,NA,NA,NA,NA,NA,NA,NA,NA,NA,NA,NA,NA,NA,NA,NA,NA,NA,NA,NA,NA,NA,NA,NA,NA
SUPAMT17673,3Z3ZLGNNSOTYOSYFII8C73H5901Q3H,93D90E53-E966-477C-95E5-A5E95F290477,2023-09-26_18h48.39.773,WP_VExplicitOC_LH,2022.2.5,Win32,16.53849334,NA,NA,NA,NA,NA,NA,NA,NA,NA,NA,NA,NA,NA,NA,NA,NA,NA,NA,NA,NA,NA,NA,NA,NA,NA,NA,NA,NA,NA,NA,NA,NA,NA,NA,NA,NA,NA,NA,NA,NA,NA,NA,NA,NA,NA,NA,NA,NA,NA,NA,NA,NA,NA,NA,NA,NA,NA,NA,NA
SUPAMT17673,3Z3ZLGNNSOTYOSYFII8C73H5901Q3H,93D90E53-E966-477C-95E5-A5E95F290477,2023-09-26_18h48.39.773,WP_VExplicitOC_LH,2022.2.5,Win32,16.53849334,87.5,3.7105,2.067,NA,NA,NA,NA,NA,frustrated,"frustrated, not frustrated","more frustrated, less frustrated",NA,NA,NA,NA,NA,NA,NA,NA,NA,NA,NA,NA,NA,NA,NA,NA,NA,NA,NA,NA,NA,NA,NA,NA,NA,NA,NA,NA,NA,NA,NA,NA,NA,NA,NA,NA,NA,NA,0,0,0,1,1,NA,NA,NA,NA,NA
SUPAMT17673,3Z3ZLGNNSOTYOSYFII8C73H5901Q3H,93D90E53-E966-477C-95E5-A5E95F290477,2023-09-26_18h48.39.773,WP_VExplicitOC_LH,2022.2.5,Win32,16.53849334,87.5,3.9531,2.0514,NA,NA,NA,NA,NA,happy,"unhappy, happy","less happy, more happy",NA,NA,NA,NA,NA,NA,NA,NA,NA,NA,NA,NA,NA,NA,NA,NA,NA,NA,NA,NA,NA,NA,NA,NA,NA,NA,NA,NA,NA,NA,NA,NA,NA,NA,NA,NA,NA,NA,0,1,1,0,1,NA,NA,NA,NA,NA
SUPAMT17673,3Z3ZLGNNSOTYOSYFII8C73H5901Q3H,93D90E53-E966-477C-95E5-A5E95F290477,2023-09-26_18h48.39.773,WP_VExplicitOC_LH,2022.2.5,Win32,16.53849334,87.3046875,3.0191,2.0559,NA,NA,NA,NA,NA,bored,"bored, not bored","more bored, less bored",NA,NA,NA,NA,NA,NA,NA,NA,NA,NA,NA,NA,NA,NA,NA,NA,NA,NA,NA,NA,NA,NA,NA,NA,NA,NA,NA,NA,NA,NA,NA,NA,NA,NA,NA,NA,NA,NA,0,2,2,2,1,NA,NA,NA,NA,NA
SUPAMT17673,3Z3ZLGNNSOTYOSYFII8C73H5901Q3H,93D90E53-E966-477C-95E5-A5E95F290477,2023-09-26_18h48.39.773,WP_VExplicitOC_LH,2022.2.5,Win32,16.53849334,NA,NA,NA,NA,NA,NA,NA,NA,NA,NA,NA,NA,NA,NA,NA,NA,NA,NA,NA,NA,NA,NA,NA,NA,NA,NA,NA,NA,NA,NA,NA,NA,NA,NA,NA,NA,NA,NA,NA,NA,NA,NA,NA,NA,NA,NA,NA,NA,NA,NA,NA,NA,NA,NA,0,0,0,0,1
SUPAMT17673,3Z3ZLGNNSOTYOSYFII8C73H5901Q3H,93D90E53-E966-477C-95E5-A5E95F290477,2023-09-26_18h48.39.773,WP_VExplicitOC_LH,2022.2.5,Win32,16.53849334,89.84375,4.4061,2.0868,NA,NA,NA,NA,NA,bored,"bored, not bored","more bored, less bored",NA,NA,NA,NA,NA,NA,NA,NA,NA,NA,NA,NA,NA,NA,NA,NA,NA,NA,NA,NA,NA,NA,NA,NA,NA,NA,NA,NA,NA,NA,NA,NA,NA,NA,NA,NA,NA,NA,0,0,0,2,1,NA,NA,NA,NA,NA
SUPAMT17673,3Z3ZLGNNSOTYOSYFII8C73H5901Q3H,93D90E53-E966-477C-95E5-A5E95F290477,2023-09-26_18h48.39.773,WP_VExplicitOC_LH,2022.2.5,Win32,16.53849334,89.84375,4.1745,2.0436,NA,NA,NA,NA,NA,happy,"unhappy, happy","less happy, more happy",NA,NA,NA,NA,NA,NA,NA,NA,NA,NA,NA,NA,NA,NA,NA,NA,NA,NA,NA,NA,NA,NA,NA,NA,NA,NA,NA,NA,NA,NA,NA,NA,NA,NA,NA,NA,NA,NA,0,1,1,0,1,NA,NA,NA,NA,NA
SUPAMT17673,3Z3ZLGNNSOTYOSYFII8C73H5901Q3H,93D90E53-E966-477C-95E5-A5E95F290477,2023-09-26_18h48.39.773,WP_VExplicitOC_LH,2022.2.5,Win32,16.53849334,89.84375,3.4472,2.0474,NA,NA,NA,NA,NA,frustrated,"frustrated, not frustrated","more frustrated, less frustrated",NA,NA,NA,NA,NA,NA,NA,NA,NA,NA,NA,NA,NA,NA,NA,NA,NA,NA,NA,NA,NA,NA,NA,NA,NA,NA,NA,NA,NA,NA,NA,NA,NA,NA,NA,NA,NA,NA,0,2,2,1,1,NA,NA,NA,NA,NA
SUPAMT17673,3Z3ZLGNNSOTYOSYFII8C73H5901Q3H,93D90E53-E966-477C-95E5-A5E95F290477,2023-09-26_18h48.39.773,WP_VExplicitOC_LH,2022.2.5,Win32,16.53849334,NA,NA,NA,NA,NA,NA,NA,NA,NA,NA,NA,NA,NA,NA,NA,NA,NA,NA,NA,NA,NA,NA,NA,NA,NA,NA,NA,NA,NA,NA,NA,NA,NA,NA,NA,NA,NA,NA,NA,NA,NA,NA,NA,NA,NA,NA,NA,NA,NA,NA,NA,NA,NA,NA,1,0,1,0,1
SUPAMT17673,3Z3ZLGNNSOTYOSYFII8C73H5901Q3H,93D90E53-E966-477C-95E5-A5E95F290477,2023-09-26_18h48.39.773,WP_VExplicitOC_LH,2022.2.5,Win32,16.53849334,93.75,4.029,2.0139,NA,NA,NA,NA,NA,bored,"bored, not bored","more bored, less bored",NA,NA,NA,NA,NA,NA,NA,NA,NA,NA,NA,NA,NA,NA,NA,NA,NA,NA,NA,NA,NA,NA,NA,NA,NA,NA,NA,NA,NA,NA,NA,NA,NA,NA,NA,NA,NA,NA,0,0,0,2,1,NA,NA,NA,NA,NA
SUPAMT17673,3Z3ZLGNNSOTYOSYFII8C73H5901Q3H,93D90E53-E966-477C-95E5-A5E95F290477,2023-09-26_18h48.39.773,WP_VExplicitOC_LH,2022.2.5,Win32,16.53849334,95.1171875,3.5059,2.0423,NA,NA,NA,NA,NA,happy,"unhappy, happy","less happy, more happy",NA,NA,NA,NA,NA,NA,NA,NA,NA,NA,NA,NA,NA,NA,NA,NA,NA,NA,NA,NA,NA,NA,NA,NA,NA,NA,NA,NA,NA,NA,NA,NA,NA,NA,NA,NA,NA,NA,0,1,1,0,1,NA,NA,NA,NA,NA
SUPAMT17673,3Z3ZLGNNSOTYOSYFII8C73H5901Q3H,93D90E53-E966-477C-95E5-A5E95F290477,2023-09-26_18h48.39.773,WP_VExplicitOC_LH,2022.2.5,Win32,16.53849334,94.921875,3.8409,2.079,NA,NA,NA,NA,NA,frustrated,"frustrated, not frustrated","more frustrated, less frustrated",NA,NA,NA,NA,NA,NA,NA,NA,NA,NA,NA,NA,NA,NA,NA,NA,NA,NA,NA,NA,NA,NA,NA,NA,NA,NA,NA,NA,NA,NA,NA,NA,NA,NA,NA,NA,NA,NA,0,2,2,1,1,NA,NA,NA,NA,NA
SUPAMT17673,3Z3ZLGNNSOTYOSYFII8C73H5901Q3H,93D90E53-E966-477C-95E5-A5E95F290477,2023-09-26_18h48.39.773,WP_VExplicitOC_LH,2022.2.5,Win32,16.53849334,NA,NA,NA,NA,NA,NA,NA,NA,NA,NA,NA,NA,NA,NA,NA,NA,NA,NA,NA,NA,NA,NA,NA,NA,NA,NA,NA,NA,NA,NA,NA,NA,NA,NA,NA,NA,NA,NA,NA,NA,NA,NA,NA,NA,NA,NA,NA,NA,NA,NA,NA,NA,NA,NA,2,0,2,0,1
SUPAMT17673,3Z3ZLGNNSOTYOSYFII8C73H5901Q3H,93D90E53-E966-477C-95E5-A5E95F290477,2023-09-26_18h48.39.773,WP_VExplicitOC_LH,2022.2.5,Win32,16.53849334,87.109375,3.9623,2.0726,NA,NA,NA,NA,NA,happy,"unhappy, happy","less happy, more happy",NA,NA,NA,NA,NA,NA,NA,NA,NA,NA,NA,NA,NA,NA,NA,NA,NA,NA,NA,NA,NA,NA,NA,NA,NA,NA,NA,NA,NA,NA,NA,NA,NA,NA,NA,NA,NA,NA,0,0,0,0,1,NA,NA,NA,NA,NA
SUPAMT17673,3Z3ZLGNNSOTYOSYFII8C73H5901Q3H,93D90E53-E966-477C-95E5-A5E95F290477,2023-09-26_18h48.39.773,WP_VExplicitOC_LH,2022.2.5,Win32,16.53849334,87.109375,3.1404,2.1154,NA,NA,NA,NA,NA,bored,"bored, not bored","more bored, less bored",NA,NA,NA,NA,NA,NA,NA,NA,NA,NA,NA,NA,NA,NA,NA,NA,NA,NA,NA,NA,NA,NA,NA,NA,NA,NA,NA,NA,NA,NA,NA,NA,NA,NA,NA,NA,NA,NA,0,1,1,2,1,NA,NA,NA,NA,NA
SUPAMT17673,3Z3ZLGNNSOTYOSYFII8C73H5901Q3H,93D90E53-E966-477C-95E5-A5E95F290477,2023-09-26_18h48.39.773,WP_VExplicitOC_LH,2022.2.5,Win32,16.53849334,87.109375,2.9679,2.0274,NA,NA,NA,NA,NA,frustrated,"frustrated, not frustrated","more frustrated, less frustrated",NA,NA,NA,NA,NA,NA,NA,NA,NA,NA,NA,NA,NA,NA,NA,NA,NA,NA,NA,NA,NA,NA,NA,NA,NA,NA,NA,NA,NA,NA,NA,NA,NA,NA,NA,NA,NA,NA,0,2,2,1,1,NA,NA,NA,NA,NA
SUPAMT17673,3Z3ZLGNNSOTYOSYFII8C73H5901Q3H,93D90E53-E966-477C-95E5-A5E95F290477,2023-09-26_18h48.39.773,WP_VExplicitOC_LH,2022.2.5,Win32,16.53849334,NA,NA,NA,NA,NA,NA,NA,NA,NA,NA,NA,NA,NA,NA,NA,NA,NA,NA,NA,NA,NA,NA,NA,NA,NA,NA,NA,NA,NA,NA,NA,NA,NA,NA,NA,NA,NA,NA,NA,NA,NA,NA,NA,NA,NA,NA,NA,NA,NA,NA,NA,NA,NA,NA,3,0,3,0,1
SUPAMT17673,3Z3ZLGNNSOTYOSYFII8C73H5901Q3H,93D90E53-E966-477C-95E5-A5E95F290477,2023-09-26_18h48.39.773,WP_VExplicitOC_LH,2022.2.5,Win32,16.53849334,87.890625,4.0689,2.0518,NA,NA,NA,NA,NA,bored,"bored, not bored","more bored, less bored",NA,NA,NA,NA,NA,NA,NA,NA,NA,NA,NA,NA,NA,NA,NA,NA,NA,NA,NA,NA,NA,NA,NA,NA,NA,NA,NA,NA,NA,NA,NA,NA,NA,NA,NA,NA,NA,NA,0,0,0,2,1,NA,NA,NA,NA,NA
SUPAMT17673,3Z3ZLGNNSOTYOSYFII8C73H5901Q3H,93D90E53-E966-477C-95E5-A5E95F290477,2023-09-26_18h48.39.773,WP_VExplicitOC_LH,2022.2.5,Win32,16.53849334,88.4765625,3.2855,2.1265,NA,NA,NA,NA,NA,happy,"unhappy, happy","less happy, more happy",NA,NA,NA,NA,NA,NA,NA,NA,NA,NA,NA,NA,NA,NA,NA,NA,NA,NA,NA,NA,NA,NA,NA,NA,NA,NA,NA,NA,NA,NA,NA,NA,NA,NA,NA,NA,NA,NA,0,1,1,0,1,NA,NA,NA,NA,NA
SUPAMT17673,3Z3ZLGNNSOTYOSYFII8C73H5901Q3H,93D90E53-E966-477C-95E5-A5E95F290477,2023-09-26_18h48.39.773,WP_VExplicitOC_LH,2022.2.5,Win32,16.53849334,88.4765625,3.227,2.1688,NA,NA,NA,NA,NA,frustrated,"frustrated, not frustrated","more frustrated, less frustrated",NA,NA,NA,NA,NA,NA,NA,NA,NA,NA,NA,NA,NA,NA,NA,NA,NA,NA,NA,NA,NA,NA,NA,NA,NA,NA,NA,NA,NA,NA,NA,NA,NA,NA,NA,NA,NA,NA,0,2,2,1,1,NA,NA,NA,NA,NA
SUPAMT17673,3Z3ZLGNNSOTYOSYFII8C73H5901Q3H,93D90E53-E966-477C-95E5-A5E95F290477,2023-09-26_18h48.39.773,WP_VExplicitOC_LH,2022.2.5,Win32,16.53849334,NA,NA,NA,NA,NA,NA,NA,NA,NA,NA,NA,NA,NA,NA,NA,NA,NA,NA,NA,NA,NA,NA,NA,NA,NA,NA,NA,NA,NA,NA,NA,NA,NA,NA,NA,NA,NA,NA,NA,NA,NA,NA,NA,NA,NA,NA,NA,NA,NA,NA,NA,NA,NA,NA,4,0,4,0,1
SUPAMT17673,3Z3ZLGNNSOTYOSYFII8C73H5901Q3H,93D90E53-E966-477C-95E5-A5E95F290477,2023-09-26_18h48.39.773,WP_VExplicitOC_LH,2022.2.5,Win32,16.53849334,90.625,4.0625,2.1158,NA,NA,NA,NA,NA,frustrated,"frustrated, not frustrated","more frustrated, less frustrated",NA,NA,NA,NA,NA,NA,NA,NA,NA,NA,NA,NA,NA,NA,NA,NA,NA,NA,NA,NA,NA,NA,NA,NA,NA,NA,NA,NA,NA,NA,NA,NA,NA,NA,NA,NA,NA,NA,0,0,0,1,1,NA,NA,NA,NA,NA
SUPAMT17673,3Z3ZLGNNSOTYOSYFII8C73H5901Q3H,93D90E53-E966-477C-95E5-A5E95F290477,2023-09-26_18h48.39.773,WP_VExplicitOC_LH,2022.2.5,Win32,16.53849334,90.625,3.3117,2.1015,NA,NA,NA,NA,NA,bored,"bored, not bored","more bored, less bored",NA,NA,NA,NA,NA,NA,NA,NA,NA,NA,NA,NA,NA,NA,NA,NA,NA,NA,NA,NA,NA,NA,NA,NA,NA,NA,NA,NA,NA,NA,NA,NA,NA,NA,NA,NA,NA,NA,0,1,1,2,1,NA,NA,NA,NA,NA
SUPAMT17673,3Z3ZLGNNSOTYOSYFII8C73H5901Q3H,93D90E53-E966-477C-95E5-A5E95F290477,2023-09-26_18h48.39.773,WP_VExplicitOC_LH,2022.2.5,Win32,16.53849334,90.625,3.193,2.1,NA,NA,NA,NA,NA,happy,"unhappy, happy","less happy, more happy",NA,NA,NA,NA,NA,NA,NA,NA,NA,NA,NA,NA,NA,NA,NA,NA,NA,NA,NA,NA,NA,NA,NA,NA,NA,NA,NA,NA,NA,NA,NA,NA,NA,NA,NA,NA,NA,NA,0,2,2,0,1,NA,NA,NA,NA,NA
SUPAMT17673,3Z3ZLGNNSOTYOSYFII8C73H5901Q3H,93D90E53-E966-477C-95E5-A5E95F290477,2023-09-26_18h48.39.773,WP_VExplicitOC_LH,2022.2.5,Win32,16.53849334,NA,NA,NA,NA,NA,NA,NA,NA,NA,NA,NA,NA,NA,NA,NA,NA,NA,NA,NA,NA,NA,NA,NA,NA,NA,NA,NA,NA,NA,NA,NA,NA,NA,NA,NA,NA,NA,NA,NA,NA,NA,NA,NA,NA,NA,NA,NA,NA,NA,NA,NA,NA,NA,NA,5,0,5,0,1
SUPAMT17673,3Z3ZLGNNSOTYOSYFII8C73H5901Q3H,93D90E53-E966-477C-95E5-A5E95F290477,2023-09-26_18h48.39.773,WP_VExplicitOC_LH,2022.2.5,Win32,16.53849334,87.890625,3.5913,2.0004,NA,NA,NA,NA,NA,bored,"bored, not bored","more bored, less bored",NA,NA,NA,NA,NA,NA,NA,NA,NA,NA,NA,NA,NA,NA,NA,NA,NA,NA,NA,NA,NA,NA,NA,NA,NA,NA,NA,NA,NA,NA,NA,NA,NA,NA,NA,NA,NA,NA,0,0,0,2,1,NA,NA,NA,NA,NA
SUPAMT17673,3Z3ZLGNNSOTYOSYFII8C73H5901Q3H,93D90E53-E966-477C-95E5-A5E95F290477,2023-09-26_18h48.39.773,WP_VExplicitOC_LH,2022.2.5,Win32,16.53849334,87.890625,3.9206,2.079,NA,NA,NA,NA,NA,happy,"unhappy, happy","less happy, more happy",NA,NA,NA,NA,NA,NA,NA,NA,NA,NA,NA,NA,NA,NA,NA,NA,NA,NA,NA,NA,NA,NA,NA,NA,NA,NA,NA,NA,NA,NA,NA,NA,NA,NA,NA,NA,NA,NA,0,1,1,0,1,NA,NA,NA,NA,NA
SUPAMT17673,3Z3ZLGNNSOTYOSYFII8C73H5901Q3H,93D90E53-E966-477C-95E5-A5E95F290477,2023-09-26_18h48.39.773,WP_VExplicitOC_LH,2022.2.5,Win32,16.53849334,87.890625,3.7219,2.0995,NA,NA,NA,NA,NA,frustrated,"frustrated, not frustrated","more frustrated, less frustrated",NA,NA,NA,NA,NA,NA,NA,NA,NA,NA,NA,NA,NA,NA,NA,NA,NA,NA,NA,NA,NA,NA,NA,NA,NA,NA,NA,NA,NA,NA,NA,NA,NA,NA,NA,NA,NA,NA,0,2,2,1,1,NA,NA,NA,NA,NA
SUPAMT17673,3Z3ZLGNNSOTYOSYFII8C73H5901Q3H,93D90E53-E966-477C-95E5-A5E95F290477,2023-09-26_18h48.39.773,WP_VExplicitOC_LH,2022.2.5,Win32,16.53849334,NA,NA,NA,NA,NA,NA,NA,NA,NA,NA,NA,NA,NA,NA,NA,NA,NA,NA,NA,NA,NA,NA,NA,NA,NA,NA,NA,NA,NA,NA,NA,NA,NA,NA,NA,NA,NA,NA,NA,NA,NA,NA,NA,NA,NA,NA,NA,NA,NA,NA,NA,NA,NA,NA,6,0,6,0,1
SUPAMT17673,3Z3ZLGNNSOTYOSYFII8C73H5901Q3H,93D90E53-E966-477C-95E5-A5E95F290477,2023-09-26_18h48.39.773,WP_VExplicitOC_LH,2022.2.5,Win32,16.53849334,90.4296875,4.6453,2.0623,NA,NA,NA,NA,NA,frustrated,"frustrated, not frustrated","more frustrated, less frustrated",NA,NA,NA,NA,NA,NA,NA,NA,NA,NA,NA,NA,NA,NA,NA,NA,NA,NA,NA,NA,NA,NA,NA,NA,NA,NA,NA,NA,NA,NA,NA,NA,NA,NA,NA,NA,NA,NA,0,0,0,1,1,NA,NA,NA,NA,NA
SUPAMT17673,3Z3ZLGNNSOTYOSYFII8C73H5901Q3H,93D90E53-E966-477C-95E5-A5E95F290477,2023-09-26_18h48.39.773,WP_VExplicitOC_LH,2022.2.5,Win32,16.53849334,91.2109375,5.1637,2.0616,NA,NA,NA,NA,NA,bored,"bored, not bored","more bored, less bored",NA,NA,NA,NA,NA,NA,NA,NA,NA,NA,NA,NA,NA,NA,NA,NA,NA,NA,NA,NA,NA,NA,NA,NA,NA,NA,NA,NA,NA,NA,NA,NA,NA,NA,NA,NA,NA,NA,0,1,1,2,1,NA,NA,NA,NA,NA
SUPAMT17673,3Z3ZLGNNSOTYOSYFII8C73H5901Q3H,93D90E53-E966-477C-95E5-A5E95F290477,2023-09-26_18h48.39.773,WP_VExplicitOC_LH,2022.2.5,Win32,16.53849334,90.4296875,3.079,2.0471,NA,NA,NA,NA,NA,happy,"unhappy, happy","less happy, more happy",NA,NA,NA,NA,NA,NA,NA,NA,NA,NA,NA,NA,NA,NA,NA,NA,NA,NA,NA,NA,NA,NA,NA,NA,NA,NA,NA,NA,NA,NA,NA,NA,NA,NA,NA,NA,NA,NA,0,2,2,0,1,NA,NA,NA,NA,NA
SUPAMT17673,3Z3ZLGNNSOTYOSYFII8C73H5901Q3H,93D90E53-E966-477C-95E5-A5E95F290477,2023-09-26_18h48.39.773,WP_VExplicitOC_LH,2022.2.5,Win32,16.53849334,NA,NA,NA,NA,NA,NA,NA,NA,NA,NA,NA,NA,NA,NA,NA,NA,NA,NA,NA,NA,NA,NA,NA,NA,NA,NA,NA,NA,NA,NA,NA,NA,NA,NA,NA,NA,NA,NA,NA,NA,NA,NA,NA,NA,NA,NA,NA,NA,NA,NA,NA,NA,NA,NA,7,0,7,0,1
SUPAMT17673,3Z3ZLGNNSOTYOSYFII8C73H5901Q3H,93D90E53-E966-477C-95E5-A5E95F290477,2023-09-26_18h48.39.773,WP_VExplicitOC_LH,2022.2.5,Win32,16.53849334,87.890625,4.3491,2.1224,NA,NA,NA,NA,NA,frustrated,"frustrated, not frustrated","more frustrated, less frustrated",NA,NA,NA,NA,NA,NA,NA,NA,NA,NA,NA,NA,NA,NA,NA,NA,NA,NA,NA,NA,NA,NA,NA,NA,NA,NA,NA,NA,NA,NA,NA,NA,NA,NA,NA,NA,NA,NA,0,0,0,1,1,NA,NA,NA,NA,NA
SUPAMT17673,3Z3ZLGNNSOTYOSYFII8C73H5901Q3H,93D90E53-E966-477C-95E5-A5E95F290477,2023-09-26_18h48.39.773,WP_VExplicitOC_LH,2022.2.5,Win32,16.53849334,92.3828125,3.6561,2.0161,NA,NA,NA,NA,NA,happy,"unhappy, happy","less happy, more happy",NA,NA,NA,NA,NA,NA,NA,NA,NA,NA,NA,NA,NA,NA,NA,NA,NA,NA,NA,NA,NA,NA,NA,NA,NA,NA,NA,NA,NA,NA,NA,NA,NA,NA,NA,NA,NA,NA,0,1,1,0,1,NA,NA,NA,NA,NA
SUPAMT17673,3Z3ZLGNNSOTYOSYFII8C73H5901Q3H,93D90E53-E966-477C-95E5-A5E95F290477,2023-09-26_18h48.39.773,WP_VExplicitOC_LH,2022.2.5,Win32,16.53849334,90.8203125,3.9355,2.1018,NA,NA,NA,NA,NA,bored,"bored, not bored","more bored, less bored",NA,NA,NA,NA,NA,NA,NA,NA,NA,NA,NA,NA,NA,NA,NA,NA,NA,NA,NA,NA,NA,NA,NA,NA,NA,NA,NA,NA,NA,NA,NA,NA,NA,NA,NA,NA,NA,NA,0,2,2,2,1,NA,NA,NA,NA,NA
SUPAMT17673,3Z3ZLGNNSOTYOSYFII8C73H5901Q3H,93D90E53-E966-477C-95E5-A5E95F290477,2023-09-26_18h48.39.773,WP_VExplicitOC_LH,2022.2.5,Win32,16.53849334,NA,NA,NA,NA,NA,NA,NA,NA,NA,NA,NA,NA,NA,NA,NA,NA,NA,NA,NA,NA,NA,NA,NA,NA,NA,NA,NA,NA,NA,NA,NA,NA,NA,NA,NA,NA,NA,NA,NA,NA,NA,NA,NA,NA,NA,NA,NA,NA,NA,NA,NA,NA,NA,NA,8,0,8,0,1
SUPAMT17673,3Z3ZLGNNSOTYOSYFII8C73H5901Q3H,93D90E53-E966-477C-95E5-A5E95F290477,2023-09-26_18h48.39.773,WP_VExplicitOC_LH,2022.2.5,Win32,16.53849334,90.8203125,3.8024,2.1549,NA,NA,NA,NA,NA,frustrated,"frustrated, not frustrated","more frustrated, less frustrated",NA,NA,NA,NA,NA,NA,NA,NA,NA,NA,NA,NA,NA,NA,NA,NA,NA,NA,NA,NA,NA,NA,NA,NA,NA,NA,NA,NA,NA,NA,NA,NA,NA,NA,NA,NA,NA,NA,0,0,0,1,1,NA,NA,NA,NA,NA
SUPAMT17673,3Z3ZLGNNSOTYOSYFII8C73H5901Q3H,93D90E53-E966-477C-95E5-A5E95F290477,2023-09-26_18h48.39.773,WP_VExplicitOC_LH,2022.2.5,Win32,16.53849334,90.8203125,2.9719,2.0183,NA,NA,NA,NA,NA,happy,"unhappy, happy","less happy, more happy",NA,NA,NA,NA,NA,NA,NA,NA,NA,NA,NA,NA,NA,NA,NA,NA,NA,NA,NA,NA,NA,NA,NA,NA,NA,NA,NA,NA,NA,NA,NA,NA,NA,NA,NA,NA,NA,NA,0,1,1,0,1,NA,NA,NA,NA,NA
SUPAMT17673,3Z3ZLGNNSOTYOSYFII8C73H5901Q3H,93D90E53-E966-477C-95E5-A5E95F290477,2023-09-26_18h48.39.773,WP_VExplicitOC_LH,2022.2.5,Win32,16.53849334,91.2109375,3.1787,2.0376,NA,NA,NA,NA,NA,bored,"bored, not bored","more bored, less bored",NA,NA,NA,NA,NA,NA,NA,NA,NA,NA,NA,NA,NA,NA,NA,NA,NA,NA,NA,NA,NA,NA,NA,NA,NA,NA,NA,NA,NA,NA,NA,NA,NA,NA,NA,NA,NA,NA,0,2,2,2,1,NA,NA,NA,NA,NA
SUPAMT17673,3Z3ZLGNNSOTYOSYFII8C73H5901Q3H,93D90E53-E966-477C-95E5-A5E95F290477,2023-09-26_18h48.39.773,WP_VExplicitOC_LH,2022.2.5,Win32,16.53849334,NA,NA,NA,NA,NA,NA,NA,NA,NA,NA,NA,NA,NA,NA,NA,NA,NA,NA,NA,NA,NA,NA,NA,NA,NA,NA,NA,NA,NA,NA,NA,NA,NA,NA,NA,NA,NA,NA,NA,NA,NA,NA,NA,NA,NA,NA,NA,NA,NA,NA,NA,NA,NA,NA,9,0,9,0,1
SUPAMT17673,3Z3ZLGNNSOTYOSYFII8C73H5901Q3H,93D90E53-E966-477C-95E5-A5E95F290477,2023-09-26_18h48.39.773,WP_VExplicitOC_LH,2022.2.5,Win32,16.53849334,86.71875,3.8137,2.0381,NA,NA,NA,NA,NA,bored,"bored, not bored","more bored, less bored",NA,NA,NA,NA,NA,NA,NA,NA,NA,NA,NA,NA,NA,NA,NA,NA,NA,NA,NA,NA,NA,NA,NA,NA,NA,NA,NA,NA,NA,NA,NA,NA,NA,NA,NA,NA,NA,NA,0,0,0,2,1,NA,NA,NA,NA,NA
SUPAMT17673,3Z3ZLGNNSOTYOSYFII8C73H5901Q3H,93D90E53-E966-477C-95E5-A5E95F290477,2023-09-26_18h48.39.773,WP_VExplicitOC_LH,2022.2.5,Win32,16.53849334,86.71875,3.2527,2.0673,NA,NA,NA,NA,NA,happy,"unhappy, happy","less happy, more happy",NA,NA,NA,NA,NA,NA,NA,NA,NA,NA,NA,NA,NA,NA,NA,NA,NA,NA,NA,NA,NA,NA,NA,NA,NA,NA,NA,NA,NA,NA,NA,NA,NA,NA,NA,NA,NA,NA,0,1,1,0,1,NA,NA,NA,NA,NA
SUPAMT17673,3Z3ZLGNNSOTYOSYFII8C73H5901Q3H,93D90E53-E966-477C-95E5-A5E95F290477,2023-09-26_18h48.39.773,WP_VExplicitOC_LH,2022.2.5,Win32,16.53849334,86.71875,3.1376,2.019,NA,NA,NA,NA,NA,frustrated,"frustrated, not frustrated","more frustrated, less frustrated",NA,NA,NA,NA,NA,NA,NA,NA,NA,NA,NA,NA,NA,NA,NA,NA,NA,NA,NA,NA,NA,NA,NA,NA,NA,NA,NA,NA,NA,NA,NA,NA,NA,NA,NA,NA,NA,NA,0,2,2,1,1,NA,NA,NA,NA,NA
SUPAMT17673,3Z3ZLGNNSOTYOSYFII8C73H5901Q3H,93D90E53-E966-477C-95E5-A5E95F290477,2023-09-26_18h48.39.773,WP_VExplicitOC_LH,2022.2.5,Win32,16.53849334,NA,NA,NA,NA,NA,NA,NA,NA,NA,NA,NA,NA,NA,NA,NA,NA,NA,NA,NA,NA,NA,NA,NA,NA,NA,NA,NA,NA,NA,NA,NA,NA,NA,NA,NA,NA,NA,NA,NA,NA,NA,NA,NA,NA,NA,NA,NA,NA,NA,NA,NA,NA,NA,NA,10,0,10,0,1
SUPAMT17673,3Z3ZLGNNSOTYOSYFII8C73H5901Q3H,93D90E53-E966-477C-95E5-A5E95F290477,2023-09-26_18h48.39.773,WP_VExplicitOC_LH,2022.2.5,Win32,16.53849334,86.71875,3.298,2,NA,NA,NA,NA,NA,happy,"unhappy, happy","less happy, more happy",NA,NA,NA,NA,NA,NA,NA,NA,NA,NA,NA,NA,NA,NA,NA,NA,NA,NA,NA,NA,NA,NA,NA,NA,NA,NA,NA,NA,NA,NA,NA,NA,NA,NA,NA,NA,NA,NA,0,0,0,0,1,NA,NA,NA,NA,NA
SUPAMT17673,3Z3ZLGNNSOTYOSYFII8C73H5901Q3H,93D90E53-E966-477C-95E5-A5E95F290477,2023-09-26_18h48.39.773,WP_VExplicitOC_LH,2022.2.5,Win32,16.53849334,86.71875,3.3069,2.0379,NA,NA,NA,NA,NA,frustrated,"frustrated, not frustrated","more frustrated, less frustrated",NA,NA,NA,NA,NA,NA,NA,NA,NA,NA,NA,NA,NA,NA,NA,NA,NA,NA,NA,NA,NA,NA,NA,NA,NA,NA,NA,NA,NA,NA,NA,NA,NA,NA,NA,NA,NA,NA,0,1,1,1,1,NA,NA,NA,NA,NA
SUPAMT17673,3Z3ZLGNNSOTYOSYFII8C73H5901Q3H,93D90E53-E966-477C-95E5-A5E95F290477,2023-09-26_18h48.39.773,WP_VExplicitOC_LH,2022.2.5,Win32,16.53849334,86.71875,3.1882,2.1199,NA,NA,NA,NA,NA,bored,"bored, not bored","more bored, less bored",NA,NA,NA,NA,NA,NA,NA,NA,NA,NA,NA,NA,NA,NA,NA,NA,NA,NA,NA,NA,NA,NA,NA,NA,NA,NA,NA,NA,NA,NA,NA,NA,NA,NA,NA,NA,NA,NA,0,2,2,2,1,NA,NA,NA,NA,NA
SUPAMT17673,3Z3ZLGNNSOTYOSYFII8C73H5901Q3H,93D90E53-E966-477C-95E5-A5E95F290477,2023-09-26_18h48.39.773,WP_VExplicitOC_LH,2022.2.5,Win32,16.53849334,NA,NA,NA,NA,NA,NA,NA,NA,NA,NA,NA,NA,NA,NA,NA,NA,NA,NA,NA,NA,NA,NA,NA,NA,NA,NA,NA,NA,NA,NA,NA,NA,NA,NA,NA,NA,NA,NA,NA,NA,NA,NA,NA,NA,NA,NA,NA,NA,NA,NA,NA,NA,NA,NA,11,0,11,0,1
SUPAMT17673,3Z3ZLGNNSOTYOSYFII8C73H5901Q3H,93D90E53-E966-477C-95E5-A5E95F290477,2023-09-26_18h48.39.773,WP_VExplicitOC_LH,2022.2.5,Win32,16.53849334,96.6796875,3.8894,2.0908,NA,NA,NA,NA,NA,happy,"unhappy, happy","less happy, more happy",NA,NA,NA,NA,NA,NA,NA,NA,NA,NA,NA,NA,NA,NA,NA,NA,NA,NA,NA,NA,NA,NA,NA,NA,NA,NA,NA,NA,NA,NA,NA,NA,NA,NA,NA,NA,NA,NA,0,0,0,0,1,NA,NA,NA,NA,NA
SUPAMT17673,3Z3ZLGNNSOTYOSYFII8C73H5901Q3H,93D90E53-E966-477C-95E5-A5E95F290477,2023-09-26_18h48.39.773,WP_VExplicitOC_LH,2022.2.5,Win32,16.53849334,97.4609375,4.1768,2.1024,NA,NA,NA,NA,NA,bored,"bored, not bored","more bored, less bored",NA,NA,NA,NA,NA,NA,NA,NA,NA,NA,NA,NA,NA,NA,NA,NA,NA,NA,NA,NA,NA,NA,NA,NA,NA,NA,NA,NA,NA,NA,NA,NA,NA,NA,NA,NA,NA,NA,0,1,1,2,1,NA,NA,NA,NA,NA
SUPAMT17673,3Z3ZLGNNSOTYOSYFII8C73H5901Q3H,93D90E53-E966-477C-95E5-A5E95F290477,2023-09-26_18h48.39.773,WP_VExplicitOC_LH,2022.2.5,Win32,16.53849334,97.4609375,3.3478,2.0026,NA,NA,NA,NA,NA,frustrated,"frustrated, not frustrated","more frustrated, less frustrated",NA,NA,NA,NA,NA,NA,NA,NA,NA,NA,NA,NA,NA,NA,NA,NA,NA,NA,NA,NA,NA,NA,NA,NA,NA,NA,NA,NA,NA,NA,NA,NA,NA,NA,NA,NA,NA,NA,0,2,2,1,1,NA,NA,NA,NA,NA
SUPAMT17673,3Z3ZLGNNSOTYOSYFII8C73H5901Q3H,93D90E53-E966-477C-95E5-A5E95F290477,2023-09-26_18h48.39.773,WP_VExplicitOC_LH,2022.2.5,Win32,16.53849334,NA,NA,NA,NA,NA,NA,NA,NA,NA,NA,NA,NA,NA,NA,NA,NA,NA,NA,NA,NA,NA,NA,NA,NA,NA,NA,NA,NA,NA,NA,NA,NA,NA,NA,NA,NA,NA,NA,NA,NA,NA,NA,NA,NA,NA,NA,NA,NA,NA,NA,NA,NA,NA,NA,12,0,12,0,1
SUPAMT17673,3Z3ZLGNNSOTYOSYFII8C73H5901Q3H,93D90E53-E966-477C-95E5-A5E95F290477,2023-09-26_18h48.39.773,WP_VExplicitOC_LH,2022.2.5,Win32,16.53849334,92.7734375,3.9111,2.1242,NA,NA,NA,NA,NA,frustrated,"frustrated, not frustrated","more frustrated, less frustrated",NA,NA,NA,NA,NA,NA,NA,NA,NA,NA,NA,NA,NA,NA,NA,NA,NA,NA,NA,NA,NA,NA,NA,NA,NA,NA,NA,NA,NA,NA,NA,NA,NA,NA,NA,NA,NA,NA,0,0,0,1,1,NA,NA,NA,NA,NA
SUPAMT17673,3Z3ZLGNNSOTYOSYFII8C73H5901Q3H,93D90E53-E966-477C-95E5-A5E95F290477,2023-09-26_18h48.39.773,WP_VExplicitOC_LH,2022.2.5,Win32,16.53849334,92.7734375,3.1356,2.0401,NA,NA,NA,NA,NA,happy,"unhappy, happy","less happy, more happy",NA,NA,NA,NA,NA,NA,NA,NA,NA,NA,NA,NA,NA,NA,NA,NA,NA,NA,NA,NA,NA,NA,NA,NA,NA,NA,NA,NA,NA,NA,NA,NA,NA,NA,NA,NA,NA,NA,0,1,1,0,1,NA,NA,NA,NA,NA
SUPAMT17673,3Z3ZLGNNSOTYOSYFII8C73H5901Q3H,93D90E53-E966-477C-95E5-A5E95F290477,2023-09-26_18h48.39.773,WP_VExplicitOC_LH,2022.2.5,Win32,16.53849334,92.7734375,3.2346,2.0582,NA,NA,NA,NA,NA,bored,"bored, not bored","more bored, less bored",NA,NA,NA,NA,NA,NA,NA,NA,NA,NA,NA,NA,NA,NA,NA,NA,NA,NA,NA,NA,NA,NA,NA,NA,NA,NA,NA,NA,NA,NA,NA,NA,NA,NA,NA,NA,NA,NA,0,2,2,2,1,NA,NA,NA,NA,NA
SUPAMT17673,3Z3ZLGNNSOTYOSYFII8C73H5901Q3H,93D90E53-E966-477C-95E5-A5E95F290477,2023-09-26_18h48.39.773,WP_VExplicitOC_LH,2022.2.5,Win32,16.53849334,NA,NA,NA,NA,NA,NA,NA,NA,NA,NA,NA,NA,NA,NA,NA,NA,NA,NA,NA,NA,NA,NA,NA,NA,NA,NA,NA,NA,NA,NA,NA,NA,NA,NA,NA,NA,NA,NA,NA,NA,NA,NA,NA,NA,NA,NA,NA,NA,NA,NA,NA,NA,NA,NA,13,0,13,0,1
SUPAMT17673,3Z3ZLGNNSOTYOSYFII8C73H5901Q3H,93D90E53-E966-477C-95E5-A5E95F290477,2023-09-26_18h48.39.773,WP_VExplicitOC_LH,2022.2.5,Win32,16.53849334,NA,NA,2.1063,NA,NA,NA,NA,NA,frustrated,"frustrated, not frustrated","more frustrated, less frustrated",NA,NA,NA,NA,NA,NA,NA,NA,NA,NA,NA,NA,NA,NA,NA,NA,NA,NA,NA,NA,NA,NA,NA,NA,NA,NA,NA,NA,NA,NA,NA,NA,NA,NA,NA,NA,NA,NA,0,0,0,1,1,NA,NA,NA,NA,NA
SUPAMT17673,3Z3ZLGNNSOTYOSYFII8C73H5901Q3H,93D90E53-E966-477C-95E5-A5E95F290477,2023-09-26_18h48.39.773,WP_VExplicitOC_LH,2022.2.5,Win32,16.53849334,91.796875,4.4154,2.1063,NA,NA,NA,NA,NA,bored,"bored, not bored","more bored, less bored",NA,NA,NA,NA,NA,NA,NA,NA,NA,NA,NA,NA,NA,NA,NA,NA,NA,NA,NA,NA,NA,NA,NA,NA,NA,NA,NA,NA,NA,NA,NA,NA,NA,NA,NA,NA,NA,NA,0,1,1,2,1,NA,NA,NA,NA,NA
SUPAMT17673,3Z3ZLGNNSOTYOSYFII8C73H5901Q3H,93D90E53-E966-477C-95E5-A5E95F290477,2023-09-26_18h48.39.773,WP_VExplicitOC_LH,2022.2.5,Win32,16.53849334,89.2578125,3.6309,2.0485,NA,NA,NA,NA,NA,happy,"unhappy, happy","less happy, more happy",NA,NA,NA,NA,NA,NA,NA,NA,NA,NA,NA,NA,NA,NA,NA,NA,NA,NA,NA,NA,NA,NA,NA,NA,NA,NA,NA,NA,NA,NA,NA,NA,NA,NA,NA,NA,NA,NA,0,2,2,0,1,NA,NA,NA,NA,NA
SUPAMT17673,3Z3ZLGNNSOTYOSYFII8C73H5901Q3H,93D90E53-E966-477C-95E5-A5E95F290477,2023-09-26_18h48.39.773,WP_VExplicitOC_LH,2022.2.5,Win32,16.53849334,NA,NA,NA,NA,NA,NA,NA,NA,NA,NA,NA,NA,NA,NA,NA,NA,NA,NA,NA,NA,NA,NA,NA,NA,NA,NA,NA,NA,NA,NA,NA,NA,NA,NA,NA,NA,NA,NA,NA,NA,NA,NA,NA,NA,NA,NA,NA,NA,NA,NA,NA,NA,NA,NA,14,0,14,0,1
SUPAMT17673,3Z3ZLGNNSOTYOSYFII8C73H5901Q3H,93D90E53-E966-477C-95E5-A5E95F290477,2023-09-26_18h48.39.773,WP_VExplicitOC_LH,2022.2.5,Win32,16.53849334,NA,NA,NA,NA,NA,NA,NA,NA,NA,NA,NA,NA,NA,NA,NA,NA,NA,NA,NA,NA,NA,NA,NA,NA,NA,NA,NA,NA,NA,NA,NA,NA,NA,NA,NA,NA,NA,NA,NA,NA,NA,NA,NA,NA,NA,NA,NA,NA,NA,NA,NA,NA,NA,NA,NA,NA,NA,NA,NA
