participant,session,completion,date,expName,psychopyVersion,OS,frameRate,rating_all.response,rating_all.rt,rating_all.tStart,rndRat1.thisRepN,rndRat1.thisTrialN,rndRat1.thisN,rndRat1.thisIndex,rndRat1.ran,Emo,Labs,Labs2,rating_alt.response,rating_alt.rt,AltC.thisRepN,AltC.thisTrialN,AltC.thisN,AltC.thisIndex,AltC.ran,alt_choices,pic_choices,BottomAlt_Choice,rndRat2.thisRepN,rndRat2.thisTrialN,rndRat2.thisN,rndRat2.thisIndex,rndRat2.ran,rndRat3.thisRepN,rndRat3.thisTrialN,rndRat3.thisN,rndRat3.thisIndex,rndRat3.ran,trials_FC_L.thisRepN,trials_FC_L.thisTrialN,trials_FC_L.thisN,trials_FC_L.thisIndex,trials_FC_L.ran,rating_alt_2.response,rating_alt_2.rt,AltC2.thisRepN,AltC2.thisTrialN,AltC2.thisN,AltC2.thisIndex,AltC2.ran,TopAlt_Choice,rndRat4.thisRepN,rndRat4.thisTrialN,rndRat4.thisN,rndRat4.thisIndex,rndRat4.ran,rndRat5.thisRepN,rndRat5.thisTrialN,rndRat5.thisN,rndRat5.thisIndex,rndRat5.ran,trials_FC_H.thisRepN,trials_FC_H.thisTrialN,trials_FC_H.thisN,trials_FC_H.thisIndex,trials_FC_H.ran
SUPAMT74748,3LQ8PUHQFRR012HVKVS52VRT2DKIHW,28A0152B-8425-477C-98A9-BBA2B86FF8A3,2023-09-29_12h15.48.179,WP_VExplicitOC_LH,2022.2.5,Win32,3.529552947,NA,NA,NA,NA,NA,NA,NA,NA,NA,NA,NA,NA,NA,NA,NA,NA,NA,NA,NA,NA,NA,NA,NA,NA,NA,NA,NA,NA,NA,NA,NA,NA,NA,NA,NA,NA,NA,NA,NA,NA,NA,NA,NA,NA,NA,NA,NA,NA,NA,NA,NA,NA,NA,NA,NA,NA,NA,NA,NA
SUPAMT74748,3LQ8PUHQFRR012HVKVS52VRT2DKIHW,28A0152B-8425-477C-98A9-BBA2B86FF8A3,2023-09-29_12h15.48.179,WP_VExplicitOC_LH,2022.2.5,Win32,3.529552947,NA,NA,NA,NA,NA,NA,NA,NA,NA,NA,NA,NA,NA,NA,NA,NA,NA,NA,NA,NA,NA,NA,NA,NA,NA,NA,NA,NA,NA,NA,NA,NA,NA,NA,NA,NA,NA,NA,NA,NA,NA,NA,NA,NA,NA,NA,NA,NA,NA,NA,NA,NA,NA,NA,NA,NA,NA,NA,NA
SUPAMT74748,3LQ8PUHQFRR012HVKVS52VRT2DKIHW,28A0152B-8425-477C-98A9-BBA2B86FF8A3,2023-09-29_12h15.48.179,WP_VExplicitOC_LH,2022.2.5,Win32,3.529552947,NA,NA,NA,NA,NA,NA,NA,NA,NA,NA,NA,NA,NA,NA,NA,NA,NA,NA,NA,NA,NA,NA,NA,NA,NA,NA,NA,NA,NA,NA,NA,NA,NA,NA,NA,NA,NA,NA,NA,NA,NA,NA,NA,NA,NA,NA,NA,NA,NA,NA,NA,NA,NA,NA,NA,NA,NA,NA,NA
SUPAMT74748,3LQ8PUHQFRR012HVKVS52VRT2DKIHW,28A0152B-8425-477C-98A9-BBA2B86FF8A3,2023-09-29_12h15.48.179,WP_VExplicitOC_LH,2022.2.5,Win32,3.529552947,NA,NA,2.186,0,0,0,1,1,frustrated,"frustrated, not frustrated","more frustrated, less frustrated",NA,NA,NA,NA,NA,NA,NA,NA,NA,NA,NA,NA,NA,NA,NA,NA,NA,NA,NA,NA,NA,NA,NA,NA,NA,NA,NA,NA,NA,NA,NA,NA,NA,NA,NA,NA,NA,NA,NA,NA,NA,NA,NA,NA,NA,NA,NA,NA
SUPAMT74748,3LQ8PUHQFRR012HVKVS52VRT2DKIHW,28A0152B-8425-477C-98A9-BBA2B86FF8A3,2023-09-29_12h15.48.179,WP_VExplicitOC_LH,2022.2.5,Win32,3.529552947,NA,NA,2.198,0,1,1,2,1,bored,"bored, not bored","more bored, less bored",NA,NA,NA,NA,NA,NA,NA,NA,NA,NA,NA,NA,NA,NA,NA,NA,NA,NA,NA,NA,NA,NA,NA,NA,NA,NA,NA,NA,NA,NA,NA,NA,NA,NA,NA,NA,NA,NA,NA,NA,NA,NA,NA,NA,NA,NA,NA,NA
SUPAMT74748,3LQ8PUHQFRR012HVKVS52VRT2DKIHW,28A0152B-8425-477C-98A9-BBA2B86FF8A3,2023-09-29_12h15.48.179,WP_VExplicitOC_LH,2022.2.5,Win32,3.529552947,53.7037037,4.382,2.188,0,2,2,0,1,happy,"unhappy, happy","less happy, more happy",NA,NA,NA,NA,NA,NA,NA,NA,NA,NA,NA,NA,NA,NA,NA,NA,NA,NA,NA,NA,NA,NA,NA,NA,NA,NA,NA,NA,NA,NA,NA,NA,NA,NA,NA,NA,NA,NA,NA,NA,NA,NA,NA,NA,NA,NA,NA,NA
SUPAMT74748,3LQ8PUHQFRR012HVKVS52VRT2DKIHW,28A0152B-8425-477C-98A9-BBA2B86FF8A3,2023-09-29_12h15.48.179,WP_VExplicitOC_LH,2022.2.5,Win32,3.529552947,NA,NA,NA,NA,NA,NA,NA,NA,NA,NA,NA,NA,NA,NA,NA,NA,NA,NA,NA,NA,NA,NA,NA,NA,NA,NA,NA,NA,NA,NA,NA,NA,NA,NA,NA,NA,NA,NA,NA,NA,NA,NA,NA,NA,NA,NA,NA,NA,NA,NA,NA,NA,NA,NA,NA,NA,NA,NA,NA
SUPAMT74748,3LQ8PUHQFRR012HVKVS52VRT2DKIHW,28A0152B-8425-477C-98A9-BBA2B86FF8A3,2023-09-29_12h15.48.179,WP_VExplicitOC_LH,2022.2.5,Win32,3.529552947,NA,NA,NA,NA,NA,NA,NA,NA,NA,NA,NA,NA,NA,NA,NA,NA,NA,NA,NA,NA,NA,NA,NA,NA,NA,NA,NA,NA,NA,NA,NA,NA,NA,NA,NA,NA,NA,NA,NA,NA,NA,NA,NA,NA,NA,NA,NA,NA,NA,NA,NA,NA,NA,NA,NA,NA,NA,NA,NA
SUPAMT74748,3LQ8PUHQFRR012HVKVS52VRT2DKIHW,28A0152B-8425-477C-98A9-BBA2B86FF8A3,2023-09-29_12h15.48.179,WP_VExplicitOC_LH,2022.2.5,Win32,3.529552947,NA,NA,NA,NA,NA,NA,NA,NA,NA,NA,NA,NA,NA,NA,NA,NA,NA,NA,NA,NA,NA,NA,NA,NA,NA,NA,NA,NA,NA,NA,NA,NA,NA,NA,NA,NA,NA,NA,NA,NA,NA,NA,NA,NA,NA,NA,NA,NA,NA,NA,NA,NA,NA,NA,NA,NA,NA,NA,NA
SUPAMT74748,3LQ8PUHQFRR012HVKVS52VRT2DKIHW,28A0152B-8425-477C-98A9-BBA2B86FF8A3,2023-09-29_12h15.48.179,WP_VExplicitOC_LH,2022.2.5,Win32,3.529552947,NA,NA,NA,NA,NA,NA,NA,NA,NA,NA,NA,NA,NA,NA,NA,NA,NA,NA,NA,NA,NA,NA,NA,NA,NA,NA,NA,NA,NA,NA,NA,NA,NA,NA,NA,NA,NA,NA,NA,NA,NA,NA,NA,NA,NA,NA,NA,NA,NA,NA,NA,NA,NA,NA,NA,NA,NA,NA,NA
SUPAMT74748,3LQ8PUHQFRR012HVKVS52VRT2DKIHW,28A0152B-8425-477C-98A9-BBA2B86FF8A3,2023-09-29_12h15.48.179,WP_VExplicitOC_LH,2022.2.5,Win32,3.529552947,NA,NA,NA,NA,NA,NA,NA,NA,NA,NA,NA,67.22222222,3.684,0,0,0,0,1,rest (looking at a fixed cross),001.png,NA,NA,NA,NA,NA,NA,NA,NA,NA,NA,NA,NA,NA,NA,NA,NA,NA,NA,NA,NA,NA,NA,NA,NA,NA,NA,NA,NA,NA,NA,NA,NA,NA,NA,NA,NA,NA,NA,NA
SUPAMT74748,3LQ8PUHQFRR012HVKVS52VRT2DKIHW,28A0152B-8425-477C-98A9-BBA2B86FF8A3,2023-09-29_12h15.48.179,WP_VExplicitOC_LH,2022.2.5,Win32,3.529552947,NA,NA,NA,NA,NA,NA,NA,NA,NA,NA,NA,64.62962963,0.951,0,1,1,1,1,stand up,002.png,NA,NA,NA,NA,NA,NA,NA,NA,NA,NA,NA,NA,NA,NA,NA,NA,NA,NA,NA,NA,NA,NA,NA,NA,NA,NA,NA,NA,NA,NA,NA,NA,NA,NA,NA,NA,NA,NA,NA
SUPAMT74748,3LQ8PUHQFRR012HVKVS52VRT2DKIHW,28A0152B-8425-477C-98A9-BBA2B86FF8A3,2023-09-29_12h15.48.179,WP_VExplicitOC_LH,2022.2.5,Win32,3.529552947,NA,NA,NA,NA,NA,NA,NA,NA,NA,NA,NA,57.59259259,1.608,0,2,2,2,1,stretch,003.png,NA,NA,NA,NA,NA,NA,NA,NA,NA,NA,NA,NA,NA,NA,NA,NA,NA,NA,NA,NA,NA,NA,NA,NA,NA,NA,NA,NA,NA,NA,NA,NA,NA,NA,NA,NA,NA,NA,NA
SUPAMT74748,3LQ8PUHQFRR012HVKVS52VRT2DKIHW,28A0152B-8425-477C-98A9-BBA2B86FF8A3,2023-09-29_12h15.48.179,WP_VExplicitOC_LH,2022.2.5,Win32,3.529552947,NA,NA,NA,NA,NA,NA,NA,NA,NA,NA,NA,-73.14814815,1.88,0,3,3,3,1,make a drink,004.png,NA,NA,NA,NA,NA,NA,NA,NA,NA,NA,NA,NA,NA,NA,NA,NA,NA,NA,NA,NA,NA,NA,NA,NA,NA,NA,NA,NA,NA,NA,NA,NA,NA,NA,NA,NA,NA,NA,NA
SUPAMT74748,3LQ8PUHQFRR012HVKVS52VRT2DKIHW,28A0152B-8425-477C-98A9-BBA2B86FF8A3,2023-09-29_12h15.48.179,WP_VExplicitOC_LH,2022.2.5,Win32,3.529552947,NA,NA,NA,NA,NA,NA,NA,NA,NA,NA,NA,75.18518519,1.298,0,4,4,4,1,scroll social media,005.png,NA,NA,NA,NA,NA,NA,NA,NA,NA,NA,NA,NA,NA,NA,NA,NA,NA,NA,NA,NA,NA,NA,NA,NA,NA,NA,NA,NA,NA,NA,NA,NA,NA,NA,NA,NA,NA,NA,NA
SUPAMT74748,3LQ8PUHQFRR012HVKVS52VRT2DKIHW,28A0152B-8425-477C-98A9-BBA2B86FF8A3,2023-09-29_12h15.48.179,WP_VExplicitOC_LH,2022.2.5,Win32,3.529552947,NA,NA,NA,NA,NA,NA,NA,NA,NA,NA,NA,57.22222222,2.802,0,5,5,5,1,listen to music,006.png,NA,NA,NA,NA,NA,NA,NA,NA,NA,NA,NA,NA,NA,NA,NA,NA,NA,NA,NA,NA,NA,NA,NA,NA,NA,NA,NA,NA,NA,NA,NA,NA,NA,NA,NA,NA,NA,NA,NA
SUPAMT74748,3LQ8PUHQFRR012HVKVS52VRT2DKIHW,28A0152B-8425-477C-98A9-BBA2B86FF8A3,2023-09-29_12h15.48.179,WP_VExplicitOC_LH,2022.2.5,Win32,3.529552947,NA,NA,NA,NA,NA,NA,NA,NA,NA,NA,NA,58.33333333,1.27,0,6,6,6,1,daydream,007.png,NA,NA,NA,NA,NA,NA,NA,NA,NA,NA,NA,NA,NA,NA,NA,NA,NA,NA,NA,NA,NA,NA,NA,NA,NA,NA,NA,NA,NA,NA,NA,NA,NA,NA,NA,NA,NA,NA,NA
SUPAMT74748,3LQ8PUHQFRR012HVKVS52VRT2DKIHW,28A0152B-8425-477C-98A9-BBA2B86FF8A3,2023-09-29_12h15.48.179,WP_VExplicitOC_LH,2022.2.5,Win32,3.529552947,NA,NA,NA,NA,NA,NA,NA,NA,NA,NA,NA,58.33333333,0.316,0,7,7,7,1,watch a short animation,008.png,NA,NA,NA,NA,NA,NA,NA,NA,NA,NA,NA,NA,NA,NA,NA,NA,NA,NA,NA,NA,NA,NA,NA,NA,NA,NA,NA,NA,NA,NA,NA,NA,NA,NA,NA,NA,NA,NA,NA
SUPAMT74748,3LQ8PUHQFRR012HVKVS52VRT2DKIHW,28A0152B-8425-477C-98A9-BBA2B86FF8A3,2023-09-29_12h15.48.179,WP_VExplicitOC_LH,2022.2.5,Win32,3.529552947,NA,NA,NA,NA,NA,NA,NA,NA,NA,NA,NA,60.55555556,0.959,0,8,8,8,1,read a novel,009.png,NA,NA,NA,NA,NA,NA,NA,NA,NA,NA,NA,NA,NA,NA,NA,NA,NA,NA,NA,NA,NA,NA,NA,NA,NA,NA,NA,NA,NA,NA,NA,NA,NA,NA,NA,NA,NA,NA,NA
SUPAMT74748,3LQ8PUHQFRR012HVKVS52VRT2DKIHW,28A0152B-8425-477C-98A9-BBA2B86FF8A3,2023-09-29_12h15.48.179,WP_VExplicitOC_LH,2022.2.5,Win32,3.529552947,NA,NA,NA,NA,NA,NA,NA,NA,NA,NA,NA,60.55555556,0.308,0,9,9,9,1,read the news,010.png,NA,NA,NA,NA,NA,NA,NA,NA,NA,NA,NA,NA,NA,NA,NA,NA,NA,NA,NA,NA,NA,NA,NA,NA,NA,NA,NA,NA,NA,NA,NA,NA,NA,NA,NA,NA,NA,NA,NA
SUPAMT74748,3LQ8PUHQFRR012HVKVS52VRT2DKIHW,28A0152B-8425-477C-98A9-BBA2B86FF8A3,2023-09-29_12h15.48.179,WP_VExplicitOC_LH,2022.2.5,Win32,3.529552947,NA,NA,NA,NA,NA,NA,NA,NA,NA,NA,NA,NA,NA,NA,NA,NA,NA,NA,NA,NA,NA,NA,NA,NA,NA,NA,NA,NA,NA,NA,NA,NA,NA,NA,NA,NA,NA,NA,NA,NA,NA,NA,NA,NA,NA,NA,NA,NA,NA,NA,NA,NA,NA,NA,NA,NA,NA,NA,NA
SUPAMT74748,3LQ8PUHQFRR012HVKVS52VRT2DKIHW,28A0152B-8425-477C-98A9-BBA2B86FF8A3,2023-09-29_12h15.48.179,WP_VExplicitOC_LH,2022.2.5,Win32,3.529552947,NA,NA,NA,NA,NA,NA,NA,NA,NA,NA,NA,NA,NA,NA,NA,NA,NA,NA,NA,NA,make a drink,NA,NA,NA,NA,NA,NA,NA,NA,NA,NA,NA,NA,NA,NA,NA,NA,NA,NA,NA,NA,NA,NA,NA,NA,NA,NA,NA,NA,NA,NA,NA,NA,NA,NA,NA,NA,NA,NA
SUPAMT74748,3LQ8PUHQFRR012HVKVS52VRT2DKIHW,28A0152B-8425-477C-98A9-BBA2B86FF8A3,2023-09-29_12h15.48.179,WP_VExplicitOC_LH,2022.2.5,Win32,3.529552947,80.18518519,4.059,2.157,NA,NA,NA,NA,NA,frustrated,"frustrated, not frustrated","more frustrated, less frustrated",NA,NA,NA,NA,NA,NA,NA,NA,NA,NA,0,0,0,1,1,NA,NA,NA,NA,NA,NA,NA,NA,NA,NA,NA,NA,NA,NA,NA,NA,NA,NA,NA,NA,NA,NA,NA,NA,NA,NA,NA,NA,NA,NA,NA,NA,NA
SUPAMT74748,3LQ8PUHQFRR012HVKVS52VRT2DKIHW,28A0152B-8425-477C-98A9-BBA2B86FF8A3,2023-09-29_12h15.48.179,WP_VExplicitOC_LH,2022.2.5,Win32,3.529552947,100,4.057,2.195,NA,NA,NA,NA,NA,happy,"unhappy, happy","less happy, more happy",NA,NA,NA,NA,NA,NA,NA,NA,NA,NA,0,1,1,0,1,NA,NA,NA,NA,NA,NA,NA,NA,NA,NA,NA,NA,NA,NA,NA,NA,NA,NA,NA,NA,NA,NA,NA,NA,NA,NA,NA,NA,NA,NA,NA,NA,NA
SUPAMT74748,3LQ8PUHQFRR012HVKVS52VRT2DKIHW,28A0152B-8425-477C-98A9-BBA2B86FF8A3,2023-09-29_12h15.48.179,WP_VExplicitOC_LH,2022.2.5,Win32,3.529552947,-92.40740741,3.769,2.159,NA,NA,NA,NA,NA,bored,"bored, not bored","more bored, less bored",NA,NA,NA,NA,NA,NA,NA,NA,NA,NA,0,2,2,2,1,NA,NA,NA,NA,NA,NA,NA,NA,NA,NA,NA,NA,NA,NA,NA,NA,NA,NA,NA,NA,NA,NA,NA,NA,NA,NA,NA,NA,NA,NA,NA,NA,NA
SUPAMT74748,3LQ8PUHQFRR012HVKVS52VRT2DKIHW,28A0152B-8425-477C-98A9-BBA2B86FF8A3,2023-09-29_12h15.48.179,WP_VExplicitOC_LH,2022.2.5,Win32,3.529552947,NA,NA,NA,NA,NA,NA,NA,NA,NA,NA,NA,NA,NA,NA,NA,NA,NA,NA,NA,NA,NA,NA,NA,NA,NA,NA,NA,NA,NA,NA,NA,NA,NA,NA,NA,NA,NA,NA,NA,NA,NA,NA,NA,NA,NA,NA,NA,NA,NA,NA,NA,NA,NA,NA,NA,NA,NA,NA,NA
SUPAMT74748,3LQ8PUHQFRR012HVKVS52VRT2DKIHW,28A0152B-8425-477C-98A9-BBA2B86FF8A3,2023-09-29_12h15.48.179,WP_VExplicitOC_LH,2022.2.5,Win32,3.529552947,NA,NA,NA,NA,NA,NA,NA,NA,NA,NA,NA,NA,NA,NA,NA,NA,NA,NA,NA,NA,NA,NA,NA,NA,NA,NA,NA,NA,NA,NA,NA,NA,NA,NA,NA,NA,NA,NA,NA,NA,NA,NA,NA,NA,NA,NA,NA,NA,NA,NA,NA,NA,NA,NA,NA,NA,NA,NA,NA
SUPAMT74748,3LQ8PUHQFRR012HVKVS52VRT2DKIHW,28A0152B-8425-477C-98A9-BBA2B86FF8A3,2023-09-29_12h15.48.179,WP_VExplicitOC_LH,2022.2.5,Win32,3.529552947,81.2962963,4.63,2.111,NA,NA,NA,NA,NA,happy,"unhappy, happy","less happy, more happy",NA,NA,NA,NA,NA,NA,NA,NA,NA,NA,NA,NA,NA,NA,NA,0,0,0,0,1,NA,NA,NA,NA,NA,NA,NA,NA,NA,NA,NA,NA,NA,NA,NA,NA,NA,NA,NA,NA,NA,NA,NA,NA,NA,NA,NA,NA
SUPAMT74748,3LQ8PUHQFRR012HVKVS52VRT2DKIHW,28A0152B-8425-477C-98A9-BBA2B86FF8A3,2023-09-29_12h15.48.179,WP_VExplicitOC_LH,2022.2.5,Win32,3.529552947,77.40740741,4.386,2.224,NA,NA,NA,NA,NA,bored,"bored, not bored","more bored, less bored",NA,NA,NA,NA,NA,NA,NA,NA,NA,NA,NA,NA,NA,NA,NA,0,1,1,2,1,NA,NA,NA,NA,NA,NA,NA,NA,NA,NA,NA,NA,NA,NA,NA,NA,NA,NA,NA,NA,NA,NA,NA,NA,NA,NA,NA,NA
SUPAMT74748,3LQ8PUHQFRR012HVKVS52VRT2DKIHW,28A0152B-8425-477C-98A9-BBA2B86FF8A3,2023-09-29_12h15.48.179,WP_VExplicitOC_LH,2022.2.5,Win32,3.529552947,-59.81481481,4.021,2.149,NA,NA,NA,NA,NA,frustrated,"frustrated, not frustrated","more frustrated, less frustrated",NA,NA,NA,NA,NA,NA,NA,NA,NA,NA,NA,NA,NA,NA,NA,0,2,2,1,1,NA,NA,NA,NA,NA,NA,NA,NA,NA,NA,NA,NA,NA,NA,NA,NA,NA,NA,NA,NA,NA,NA,NA,NA,NA,NA,NA,NA
SUPAMT74748,3LQ8PUHQFRR012HVKVS52VRT2DKIHW,28A0152B-8425-477C-98A9-BBA2B86FF8A3,2023-09-29_12h15.48.179,WP_VExplicitOC_LH,2022.2.5,Win32,3.529552947,NA,NA,NA,NA,NA,NA,NA,NA,NA,NA,NA,NA,NA,NA,NA,NA,NA,NA,NA,NA,NA,NA,NA,NA,NA,NA,NA,NA,NA,NA,NA,0,0,0,0,1,NA,NA,NA,NA,NA,NA,NA,NA,NA,NA,NA,NA,NA,NA,NA,NA,NA,NA,NA,NA,NA,NA,NA
SUPAMT74748,3LQ8PUHQFRR012HVKVS52VRT2DKIHW,28A0152B-8425-477C-98A9-BBA2B86FF8A3,2023-09-29_12h15.48.179,WP_VExplicitOC_LH,2022.2.5,Win32,3.529552947,-68.88888889,3.956,2.124,NA,NA,NA,NA,NA,frustrated,"frustrated, not frustrated","more frustrated, less frustrated",NA,NA,NA,NA,NA,NA,NA,NA,NA,NA,NA,NA,NA,NA,NA,0,0,0,1,1,NA,NA,NA,NA,NA,NA,NA,NA,NA,NA,NA,NA,NA,NA,NA,NA,NA,NA,NA,NA,NA,NA,NA,NA,NA,NA,NA,NA
SUPAMT74748,3LQ8PUHQFRR012HVKVS52VRT2DKIHW,28A0152B-8425-477C-98A9-BBA2B86FF8A3,2023-09-29_12h15.48.179,WP_VExplicitOC_LH,2022.2.5,Win32,3.529552947,57.96296296,4.345,2.201,NA,NA,NA,NA,NA,bored,"bored, not bored","more bored, less bored",NA,NA,NA,NA,NA,NA,NA,NA,NA,NA,NA,NA,NA,NA,NA,0,1,1,2,1,NA,NA,NA,NA,NA,NA,NA,NA,NA,NA,NA,NA,NA,NA,NA,NA,NA,NA,NA,NA,NA,NA,NA,NA,NA,NA,NA,NA
SUPAMT74748,3LQ8PUHQFRR012HVKVS52VRT2DKIHW,28A0152B-8425-477C-98A9-BBA2B86FF8A3,2023-09-29_12h15.48.179,WP_VExplicitOC_LH,2022.2.5,Win32,3.529552947,-40,4.617,2.154,NA,NA,NA,NA,NA,happy,"unhappy, happy","less happy, more happy",NA,NA,NA,NA,NA,NA,NA,NA,NA,NA,NA,NA,NA,NA,NA,0,2,2,0,1,NA,NA,NA,NA,NA,NA,NA,NA,NA,NA,NA,NA,NA,NA,NA,NA,NA,NA,NA,NA,NA,NA,NA,NA,NA,NA,NA,NA
SUPAMT74748,3LQ8PUHQFRR012HVKVS52VRT2DKIHW,28A0152B-8425-477C-98A9-BBA2B86FF8A3,2023-09-29_12h15.48.179,WP_VExplicitOC_LH,2022.2.5,Win32,3.529552947,NA,NA,NA,NA,NA,NA,NA,NA,NA,NA,NA,NA,NA,NA,NA,NA,NA,NA,NA,NA,NA,NA,NA,NA,NA,NA,NA,NA,NA,NA,NA,1,0,1,0,1,NA,NA,NA,NA,NA,NA,NA,NA,NA,NA,NA,NA,NA,NA,NA,NA,NA,NA,NA,NA,NA,NA,NA
SUPAMT74748,3LQ8PUHQFRR012HVKVS52VRT2DKIHW,28A0152B-8425-477C-98A9-BBA2B86FF8A3,2023-09-29_12h15.48.179,WP_VExplicitOC_LH,2022.2.5,Win32,3.529552947,66.11111111,4.302,2.122,NA,NA,NA,NA,NA,bored,"bored, not bored","more bored, less bored",NA,NA,NA,NA,NA,NA,NA,NA,NA,NA,NA,NA,NA,NA,NA,0,0,0,2,1,NA,NA,NA,NA,NA,NA,NA,NA,NA,NA,NA,NA,NA,NA,NA,NA,NA,NA,NA,NA,NA,NA,NA,NA,NA,NA,NA,NA
SUPAMT74748,3LQ8PUHQFRR012HVKVS52VRT2DKIHW,28A0152B-8425-477C-98A9-BBA2B86FF8A3,2023-09-29_12h15.48.179,WP_VExplicitOC_LH,2022.2.5,Win32,3.529552947,-50.92592593,4.619,2.138,NA,NA,NA,NA,NA,frustrated,"frustrated, not frustrated","more frustrated, less frustrated",NA,NA,NA,NA,NA,NA,NA,NA,NA,NA,NA,NA,NA,NA,NA,0,1,1,1,1,NA,NA,NA,NA,NA,NA,NA,NA,NA,NA,NA,NA,NA,NA,NA,NA,NA,NA,NA,NA,NA,NA,NA,NA,NA,NA,NA,NA
SUPAMT74748,3LQ8PUHQFRR012HVKVS52VRT2DKIHW,28A0152B-8425-477C-98A9-BBA2B86FF8A3,2023-09-29_12h15.48.179,WP_VExplicitOC_LH,2022.2.5,Win32,3.529552947,61.11111111,4.045,2.173,NA,NA,NA,NA,NA,happy,"unhappy, happy","less happy, more happy",NA,NA,NA,NA,NA,NA,NA,NA,NA,NA,NA,NA,NA,NA,NA,0,2,2,0,1,NA,NA,NA,NA,NA,NA,NA,NA,NA,NA,NA,NA,NA,NA,NA,NA,NA,NA,NA,NA,NA,NA,NA,NA,NA,NA,NA,NA
SUPAMT74748,3LQ8PUHQFRR012HVKVS52VRT2DKIHW,28A0152B-8425-477C-98A9-BBA2B86FF8A3,2023-09-29_12h15.48.179,WP_VExplicitOC_LH,2022.2.5,Win32,3.529552947,NA,NA,NA,NA,NA,NA,NA,NA,NA,NA,NA,NA,NA,NA,NA,NA,NA,NA,NA,NA,NA,NA,NA,NA,NA,NA,NA,NA,NA,NA,NA,2,0,2,0,1,NA,NA,NA,NA,NA,NA,NA,NA,NA,NA,NA,NA,NA,NA,NA,NA,NA,NA,NA,NA,NA,NA,NA
SUPAMT74748,3LQ8PUHQFRR012HVKVS52VRT2DKIHW,28A0152B-8425-477C-98A9-BBA2B86FF8A3,2023-09-29_12h15.48.179,WP_VExplicitOC_LH,2022.2.5,Win32,3.529552947,58.33333333,4.252,2.11,NA,NA,NA,NA,NA,frustrated,"frustrated, not frustrated","more frustrated, less frustrated",NA,NA,NA,NA,NA,NA,NA,NA,NA,NA,NA,NA,NA,NA,NA,0,0,0,1,1,NA,NA,NA,NA,NA,NA,NA,NA,NA,NA,NA,NA,NA,NA,NA,NA,NA,NA,NA,NA,NA,NA,NA,NA,NA,NA,NA,NA
SUPAMT74748,3LQ8PUHQFRR012HVKVS52VRT2DKIHW,28A0152B-8425-477C-98A9-BBA2B86FF8A3,2023-09-29_12h15.48.179,WP_VExplicitOC_LH,2022.2.5,Win32,3.529552947,-50.74074074,4.657,2.183,NA,NA,NA,NA,NA,happy,"unhappy, happy","less happy, more happy",NA,NA,NA,NA,NA,NA,NA,NA,NA,NA,NA,NA,NA,NA,NA,0,1,1,0,1,NA,NA,NA,NA,NA,NA,NA,NA,NA,NA,NA,NA,NA,NA,NA,NA,NA,NA,NA,NA,NA,NA,NA,NA,NA,NA,NA,NA
SUPAMT74748,3LQ8PUHQFRR012HVKVS52VRT2DKIHW,28A0152B-8425-477C-98A9-BBA2B86FF8A3,2023-09-29_12h15.48.179,WP_VExplicitOC_LH,2022.2.5,Win32,3.529552947,54.62962963,4.658,2.215,NA,NA,NA,NA,NA,bored,"bored, not bored","more bored, less bored",NA,NA,NA,NA,NA,NA,NA,NA,NA,NA,NA,NA,NA,NA,NA,0,2,2,2,1,NA,NA,NA,NA,NA,NA,NA,NA,NA,NA,NA,NA,NA,NA,NA,NA,NA,NA,NA,NA,NA,NA,NA,NA,NA,NA,NA,NA
SUPAMT74748,3LQ8PUHQFRR012HVKVS52VRT2DKIHW,28A0152B-8425-477C-98A9-BBA2B86FF8A3,2023-09-29_12h15.48.179,WP_VExplicitOC_LH,2022.2.5,Win32,3.529552947,NA,NA,NA,NA,NA,NA,NA,NA,NA,NA,NA,NA,NA,NA,NA,NA,NA,NA,NA,NA,NA,NA,NA,NA,NA,NA,NA,NA,NA,NA,NA,3,0,3,0,1,NA,NA,NA,NA,NA,NA,NA,NA,NA,NA,NA,NA,NA,NA,NA,NA,NA,NA,NA,NA,NA,NA,NA
SUPAMT74748,3LQ8PUHQFRR012HVKVS52VRT2DKIHW,28A0152B-8425-477C-98A9-BBA2B86FF8A3,2023-09-29_12h15.48.179,WP_VExplicitOC_LH,2022.2.5,Win32,3.529552947,70.37037037,4.349,2.207,NA,NA,NA,NA,NA,bored,"bored, not bored","more bored, less bored",NA,NA,NA,NA,NA,NA,NA,NA,NA,NA,NA,NA,NA,NA,NA,0,0,0,2,1,NA,NA,NA,NA,NA,NA,NA,NA,NA,NA,NA,NA,NA,NA,NA,NA,NA,NA,NA,NA,NA,NA,NA,NA,NA,NA,NA,NA
SUPAMT74748,3LQ8PUHQFRR012HVKVS52VRT2DKIHW,28A0152B-8425-477C-98A9-BBA2B86FF8A3,2023-09-29_12h15.48.179,WP_VExplicitOC_LH,2022.2.5,Win32,3.529552947,47.22222222,4.684,2.232,NA,NA,NA,NA,NA,frustrated,"frustrated, not frustrated","more frustrated, less frustrated",NA,NA,NA,NA,NA,NA,NA,NA,NA,NA,NA,NA,NA,NA,NA,0,1,1,1,1,NA,NA,NA,NA,NA,NA,NA,NA,NA,NA,NA,NA,NA,NA,NA,NA,NA,NA,NA,NA,NA,NA,NA,NA,NA,NA,NA,NA
SUPAMT74748,3LQ8PUHQFRR012HVKVS52VRT2DKIHW,28A0152B-8425-477C-98A9-BBA2B86FF8A3,2023-09-29_12h15.48.179,WP_VExplicitOC_LH,2022.2.5,Win32,3.529552947,-39.81481481,4.439,2.227,NA,NA,NA,NA,NA,happy,"unhappy, happy","less happy, more happy",NA,NA,NA,NA,NA,NA,NA,NA,NA,NA,NA,NA,NA,NA,NA,0,2,2,0,1,NA,NA,NA,NA,NA,NA,NA,NA,NA,NA,NA,NA,NA,NA,NA,NA,NA,NA,NA,NA,NA,NA,NA,NA,NA,NA,NA,NA
SUPAMT74748,3LQ8PUHQFRR012HVKVS52VRT2DKIHW,28A0152B-8425-477C-98A9-BBA2B86FF8A3,2023-09-29_12h15.48.179,WP_VExplicitOC_LH,2022.2.5,Win32,3.529552947,NA,NA,NA,NA,NA,NA,NA,NA,NA,NA,NA,NA,NA,NA,NA,NA,NA,NA,NA,NA,NA,NA,NA,NA,NA,NA,NA,NA,NA,NA,NA,4,0,4,0,1,NA,NA,NA,NA,NA,NA,NA,NA,NA,NA,NA,NA,NA,NA,NA,NA,NA,NA,NA,NA,NA,NA,NA
SUPAMT74748,3LQ8PUHQFRR012HVKVS52VRT2DKIHW,28A0152B-8425-477C-98A9-BBA2B86FF8A3,2023-09-29_12h15.48.179,WP_VExplicitOC_LH,2022.2.5,Win32,3.529552947,47.40740741,4.135,2.175,NA,NA,NA,NA,NA,bored,"bored, not bored","more bored, less bored",NA,NA,NA,NA,NA,NA,NA,NA,NA,NA,NA,NA,NA,NA,NA,0,0,0,2,1,NA,NA,NA,NA,NA,NA,NA,NA,NA,NA,NA,NA,NA,NA,NA,NA,NA,NA,NA,NA,NA,NA,NA,NA,NA,NA,NA,NA
SUPAMT74748,3LQ8PUHQFRR012HVKVS52VRT2DKIHW,28A0152B-8425-477C-98A9-BBA2B86FF8A3,2023-09-29_12h15.48.179,WP_VExplicitOC_LH,2022.2.5,Win32,3.529552947,61.85185185,4.09,2.197,NA,NA,NA,NA,NA,frustrated,"frustrated, not frustrated","more frustrated, less frustrated",NA,NA,NA,NA,NA,NA,NA,NA,NA,NA,NA,NA,NA,NA,NA,0,1,1,1,1,NA,NA,NA,NA,NA,NA,NA,NA,NA,NA,NA,NA,NA,NA,NA,NA,NA,NA,NA,NA,NA,NA,NA,NA,NA,NA,NA,NA
SUPAMT74748,3LQ8PUHQFRR012HVKVS52VRT2DKIHW,28A0152B-8425-477C-98A9-BBA2B86FF8A3,2023-09-29_12h15.48.179,WP_VExplicitOC_LH,2022.2.5,Win32,3.529552947,-20.92592593,4.699,2.211,NA,NA,NA,NA,NA,happy,"unhappy, happy","less happy, more happy",NA,NA,NA,NA,NA,NA,NA,NA,NA,NA,NA,NA,NA,NA,NA,0,2,2,0,1,NA,NA,NA,NA,NA,NA,NA,NA,NA,NA,NA,NA,NA,NA,NA,NA,NA,NA,NA,NA,NA,NA,NA,NA,NA,NA,NA,NA
SUPAMT74748,3LQ8PUHQFRR012HVKVS52VRT2DKIHW,28A0152B-8425-477C-98A9-BBA2B86FF8A3,2023-09-29_12h15.48.179,WP_VExplicitOC_LH,2022.2.5,Win32,3.529552947,NA,NA,NA,NA,NA,NA,NA,NA,NA,NA,NA,NA,NA,NA,NA,NA,NA,NA,NA,NA,NA,NA,NA,NA,NA,NA,NA,NA,NA,NA,NA,5,0,5,0,1,NA,NA,NA,NA,NA,NA,NA,NA,NA,NA,NA,NA,NA,NA,NA,NA,NA,NA,NA,NA,NA,NA,NA
SUPAMT74748,3LQ8PUHQFRR012HVKVS52VRT2DKIHW,28A0152B-8425-477C-98A9-BBA2B86FF8A3,2023-09-29_12h15.48.179,WP_VExplicitOC_LH,2022.2.5,Win32,3.529552947,25.74074074,4.65,2.185,NA,NA,NA,NA,NA,happy,"unhappy, happy","less happy, more happy",NA,NA,NA,NA,NA,NA,NA,NA,NA,NA,NA,NA,NA,NA,NA,0,0,0,0,1,NA,NA,NA,NA,NA,NA,NA,NA,NA,NA,NA,NA,NA,NA,NA,NA,NA,NA,NA,NA,NA,NA,NA,NA,NA,NA,NA,NA
SUPAMT74748,3LQ8PUHQFRR012HVKVS52VRT2DKIHW,28A0152B-8425-477C-98A9-BBA2B86FF8A3,2023-09-29_12h15.48.179,WP_VExplicitOC_LH,2022.2.5,Win32,3.529552947,-39.07407407,5.587,2.192,NA,NA,NA,NA,NA,bored,"bored, not bored","more bored, less bored",NA,NA,NA,NA,NA,NA,NA,NA,NA,NA,NA,NA,NA,NA,NA,0,1,1,2,1,NA,NA,NA,NA,NA,NA,NA,NA,NA,NA,NA,NA,NA,NA,NA,NA,NA,NA,NA,NA,NA,NA,NA,NA,NA,NA,NA,NA
SUPAMT74748,3LQ8PUHQFRR012HVKVS52VRT2DKIHW,28A0152B-8425-477C-98A9-BBA2B86FF8A3,2023-09-29_12h15.48.179,WP_VExplicitOC_LH,2022.2.5,Win32,3.529552947,-42.77777778,5.685,2.15,NA,NA,NA,NA,NA,frustrated,"frustrated, not frustrated","more frustrated, less frustrated",NA,NA,NA,NA,NA,NA,NA,NA,NA,NA,NA,NA,NA,NA,NA,0,2,2,1,1,NA,NA,NA,NA,NA,NA,NA,NA,NA,NA,NA,NA,NA,NA,NA,NA,NA,NA,NA,NA,NA,NA,NA,NA,NA,NA,NA,NA
SUPAMT74748,3LQ8PUHQFRR012HVKVS52VRT2DKIHW,28A0152B-8425-477C-98A9-BBA2B86FF8A3,2023-09-29_12h15.48.179,WP_VExplicitOC_LH,2022.2.5,Win32,3.529552947,NA,NA,NA,NA,NA,NA,NA,NA,NA,NA,NA,NA,NA,NA,NA,NA,NA,NA,NA,NA,NA,NA,NA,NA,NA,NA,NA,NA,NA,NA,NA,6,0,6,0,1,NA,NA,NA,NA,NA,NA,NA,NA,NA,NA,NA,NA,NA,NA,NA,NA,NA,NA,NA,NA,NA,NA,NA
SUPAMT74748,3LQ8PUHQFRR012HVKVS52VRT2DKIHW,28A0152B-8425-477C-98A9-BBA2B86FF8A3,2023-09-29_12h15.48.179,WP_VExplicitOC_LH,2022.2.5,Win32,3.529552947,-33.88888889,6.434,2.157,NA,NA,NA,NA,NA,frustrated,"frustrated, not frustrated","more frustrated, less frustrated",NA,NA,NA,NA,NA,NA,NA,NA,NA,NA,NA,NA,NA,NA,NA,0,0,0,1,1,NA,NA,NA,NA,NA,NA,NA,NA,NA,NA,NA,NA,NA,NA,NA,NA,NA,NA,NA,NA,NA,NA,NA,NA,NA,NA,NA,NA
SUPAMT74748,3LQ8PUHQFRR012HVKVS52VRT2DKIHW,28A0152B-8425-477C-98A9-BBA2B86FF8A3,2023-09-29_12h15.48.179,WP_VExplicitOC_LH,2022.2.5,Win32,3.529552947,-89.07407407,6.178,2.186,NA,NA,NA,NA,NA,happy,"unhappy, happy","less happy, more happy",NA,NA,NA,NA,NA,NA,NA,NA,NA,NA,NA,NA,NA,NA,NA,0,1,1,0,1,NA,NA,NA,NA,NA,NA,NA,NA,NA,NA,NA,NA,NA,NA,NA,NA,NA,NA,NA,NA,NA,NA,NA,NA,NA,NA,NA,NA
SUPAMT74748,3LQ8PUHQFRR012HVKVS52VRT2DKIHW,28A0152B-8425-477C-98A9-BBA2B86FF8A3,2023-09-29_12h15.48.179,WP_VExplicitOC_LH,2022.2.5,Win32,3.529552947,-60.74074074,6.513,2.214,NA,NA,NA,NA,NA,bored,"bored, not bored","more bored, less bored",NA,NA,NA,NA,NA,NA,NA,NA,NA,NA,NA,NA,NA,NA,NA,0,2,2,2,1,NA,NA,NA,NA,NA,NA,NA,NA,NA,NA,NA,NA,NA,NA,NA,NA,NA,NA,NA,NA,NA,NA,NA,NA,NA,NA,NA,NA
SUPAMT74748,3LQ8PUHQFRR012HVKVS52VRT2DKIHW,28A0152B-8425-477C-98A9-BBA2B86FF8A3,2023-09-29_12h15.48.179,WP_VExplicitOC_LH,2022.2.5,Win32,3.529552947,NA,NA,NA,NA,NA,NA,NA,NA,NA,NA,NA,NA,NA,NA,NA,NA,NA,NA,NA,NA,NA,NA,NA,NA,NA,NA,NA,NA,NA,NA,NA,7,0,7,0,1,NA,NA,NA,NA,NA,NA,NA,NA,NA,NA,NA,NA,NA,NA,NA,NA,NA,NA,NA,NA,NA,NA,NA
SUPAMT74748,3LQ8PUHQFRR012HVKVS52VRT2DKIHW,28A0152B-8425-477C-98A9-BBA2B86FF8A3,2023-09-29_12h15.48.179,WP_VExplicitOC_LH,2022.2.5,Win32,3.529552947,-65.92592593,6.202,2.15,NA,NA,NA,NA,NA,happy,"unhappy, happy","less happy, more happy",NA,NA,NA,NA,NA,NA,NA,NA,NA,NA,NA,NA,NA,NA,NA,0,0,0,0,1,NA,NA,NA,NA,NA,NA,NA,NA,NA,NA,NA,NA,NA,NA,NA,NA,NA,NA,NA,NA,NA,NA,NA,NA,NA,NA,NA,NA
SUPAMT74748,3LQ8PUHQFRR012HVKVS52VRT2DKIHW,28A0152B-8425-477C-98A9-BBA2B86FF8A3,2023-09-29_12h15.48.179,WP_VExplicitOC_LH,2022.2.5,Win32,3.529552947,-67.77777778,6.91,2.2,NA,NA,NA,NA,NA,frustrated,"frustrated, not frustrated","more frustrated, less frustrated",NA,NA,NA,NA,NA,NA,NA,NA,NA,NA,NA,NA,NA,NA,NA,0,1,1,1,1,NA,NA,NA,NA,NA,NA,NA,NA,NA,NA,NA,NA,NA,NA,NA,NA,NA,NA,NA,NA,NA,NA,NA,NA,NA,NA,NA,NA
SUPAMT74748,3LQ8PUHQFRR012HVKVS52VRT2DKIHW,28A0152B-8425-477C-98A9-BBA2B86FF8A3,2023-09-29_12h15.48.179,WP_VExplicitOC_LH,2022.2.5,Win32,3.529552947,-70.18518519,5.654,2.204,NA,NA,NA,NA,NA,bored,"bored, not bored","more bored, less bored",NA,NA,NA,NA,NA,NA,NA,NA,NA,NA,NA,NA,NA,NA,NA,0,2,2,2,1,NA,NA,NA,NA,NA,NA,NA,NA,NA,NA,NA,NA,NA,NA,NA,NA,NA,NA,NA,NA,NA,NA,NA,NA,NA,NA,NA,NA
SUPAMT74748,3LQ8PUHQFRR012HVKVS52VRT2DKIHW,28A0152B-8425-477C-98A9-BBA2B86FF8A3,2023-09-29_12h15.48.179,WP_VExplicitOC_LH,2022.2.5,Win32,3.529552947,NA,NA,NA,NA,NA,NA,NA,NA,NA,NA,NA,NA,NA,NA,NA,NA,NA,NA,NA,NA,NA,NA,NA,NA,NA,NA,NA,NA,NA,NA,NA,8,0,8,0,1,NA,NA,NA,NA,NA,NA,NA,NA,NA,NA,NA,NA,NA,NA,NA,NA,NA,NA,NA,NA,NA,NA,NA
SUPAMT74748,3LQ8PUHQFRR012HVKVS52VRT2DKIHW,28A0152B-8425-477C-98A9-BBA2B86FF8A3,2023-09-29_12h15.48.179,WP_VExplicitOC_LH,2022.2.5,Win32,3.529552947,-73.88888889,5.236,2.161,NA,NA,NA,NA,NA,happy,"unhappy, happy","less happy, more happy",NA,NA,NA,NA,NA,NA,NA,NA,NA,NA,NA,NA,NA,NA,NA,0,0,0,0,1,NA,NA,NA,NA,NA,NA,NA,NA,NA,NA,NA,NA,NA,NA,NA,NA,NA,NA,NA,NA,NA,NA,NA,NA,NA,NA,NA,NA
SUPAMT74748,3LQ8PUHQFRR012HVKVS52VRT2DKIHW,28A0152B-8425-477C-98A9-BBA2B86FF8A3,2023-09-29_12h15.48.179,WP_VExplicitOC_LH,2022.2.5,Win32,3.529552947,-63.14814815,5.908,2.211,NA,NA,NA,NA,NA,frustrated,"frustrated, not frustrated","more frustrated, less frustrated",NA,NA,NA,NA,NA,NA,NA,NA,NA,NA,NA,NA,NA,NA,NA,0,1,1,1,1,NA,NA,NA,NA,NA,NA,NA,NA,NA,NA,NA,NA,NA,NA,NA,NA,NA,NA,NA,NA,NA,NA,NA,NA,NA,NA,NA,NA
SUPAMT74748,3LQ8PUHQFRR012HVKVS52VRT2DKIHW,28A0152B-8425-477C-98A9-BBA2B86FF8A3,2023-09-29_12h15.48.179,WP_VExplicitOC_LH,2022.2.5,Win32,3.529552947,-70.18518519,5.617,2.167,NA,NA,NA,NA,NA,bored,"bored, not bored","more bored, less bored",NA,NA,NA,NA,NA,NA,NA,NA,NA,NA,NA,NA,NA,NA,NA,0,2,2,2,1,NA,NA,NA,NA,NA,NA,NA,NA,NA,NA,NA,NA,NA,NA,NA,NA,NA,NA,NA,NA,NA,NA,NA,NA,NA,NA,NA,NA
SUPAMT74748,3LQ8PUHQFRR012HVKVS52VRT2DKIHW,28A0152B-8425-477C-98A9-BBA2B86FF8A3,2023-09-29_12h15.48.179,WP_VExplicitOC_LH,2022.2.5,Win32,3.529552947,NA,NA,NA,NA,NA,NA,NA,NA,NA,NA,NA,NA,NA,NA,NA,NA,NA,NA,NA,NA,NA,NA,NA,NA,NA,NA,NA,NA,NA,NA,NA,9,0,9,0,1,NA,NA,NA,NA,NA,NA,NA,NA,NA,NA,NA,NA,NA,NA,NA,NA,NA,NA,NA,NA,NA,NA,NA
SUPAMT74748,3LQ8PUHQFRR012HVKVS52VRT2DKIHW,28A0152B-8425-477C-98A9-BBA2B86FF8A3,2023-09-29_12h15.48.179,WP_VExplicitOC_LH,2022.2.5,Win32,3.529552947,-61.66666667,5.679,2.17,NA,NA,NA,NA,NA,happy,"unhappy, happy","less happy, more happy",NA,NA,NA,NA,NA,NA,NA,NA,NA,NA,NA,NA,NA,NA,NA,0,0,0,0,1,NA,NA,NA,NA,NA,NA,NA,NA,NA,NA,NA,NA,NA,NA,NA,NA,NA,NA,NA,NA,NA,NA,NA,NA,NA,NA,NA,NA
SUPAMT74748,3LQ8PUHQFRR012HVKVS52VRT2DKIHW,28A0152B-8425-477C-98A9-BBA2B86FF8A3,2023-09-29_12h15.48.179,WP_VExplicitOC_LH,2022.2.5,Win32,3.529552947,-61.48148148,5.86,2.191,NA,NA,NA,NA,NA,frustrated,"frustrated, not frustrated","more frustrated, less frustrated",NA,NA,NA,NA,NA,NA,NA,NA,NA,NA,NA,NA,NA,NA,NA,0,1,1,1,1,NA,NA,NA,NA,NA,NA,NA,NA,NA,NA,NA,NA,NA,NA,NA,NA,NA,NA,NA,NA,NA,NA,NA,NA,NA,NA,NA,NA
SUPAMT74748,3LQ8PUHQFRR012HVKVS52VRT2DKIHW,28A0152B-8425-477C-98A9-BBA2B86FF8A3,2023-09-29_12h15.48.179,WP_VExplicitOC_LH,2022.2.5,Win32,3.529552947,-75.37037037,5.569,2.167,NA,NA,NA,NA,NA,bored,"bored, not bored","more bored, less bored",NA,NA,NA,NA,NA,NA,NA,NA,NA,NA,NA,NA,NA,NA,NA,0,2,2,2,1,NA,NA,NA,NA,NA,NA,NA,NA,NA,NA,NA,NA,NA,NA,NA,NA,NA,NA,NA,NA,NA,NA,NA,NA,NA,NA,NA,NA
SUPAMT74748,3LQ8PUHQFRR012HVKVS52VRT2DKIHW,28A0152B-8425-477C-98A9-BBA2B86FF8A3,2023-09-29_12h15.48.179,WP_VExplicitOC_LH,2022.2.5,Win32,3.529552947,NA,NA,NA,NA,NA,NA,NA,NA,NA,NA,NA,NA,NA,NA,NA,NA,NA,NA,NA,NA,NA,NA,NA,NA,NA,NA,NA,NA,NA,NA,NA,10,0,10,0,1,NA,NA,NA,NA,NA,NA,NA,NA,NA,NA,NA,NA,NA,NA,NA,NA,NA,NA,NA,NA,NA,NA,NA
SUPAMT74748,3LQ8PUHQFRR012HVKVS52VRT2DKIHW,28A0152B-8425-477C-98A9-BBA2B86FF8A3,2023-09-29_12h15.48.179,WP_VExplicitOC_LH,2022.2.5,Win32,3.529552947,-60.55555556,5.285,2.161,NA,NA,NA,NA,NA,happy,"unhappy, happy","less happy, more happy",NA,NA,NA,NA,NA,NA,NA,NA,NA,NA,NA,NA,NA,NA,NA,0,0,0,0,1,NA,NA,NA,NA,NA,NA,NA,NA,NA,NA,NA,NA,NA,NA,NA,NA,NA,NA,NA,NA,NA,NA,NA,NA,NA,NA,NA,NA
SUPAMT74748,3LQ8PUHQFRR012HVKVS52VRT2DKIHW,28A0152B-8425-477C-98A9-BBA2B86FF8A3,2023-09-29_12h15.48.179,WP_VExplicitOC_LH,2022.2.5,Win32,3.529552947,-79.07407407,6.218,2.156,NA,NA,NA,NA,NA,bored,"bored, not bored","more bored, less bored",NA,NA,NA,NA,NA,NA,NA,NA,NA,NA,NA,NA,NA,NA,NA,0,1,1,2,1,NA,NA,NA,NA,NA,NA,NA,NA,NA,NA,NA,NA,NA,NA,NA,NA,NA,NA,NA,NA,NA,NA,NA,NA,NA,NA,NA,NA
SUPAMT74748,3LQ8PUHQFRR012HVKVS52VRT2DKIHW,28A0152B-8425-477C-98A9-BBA2B86FF8A3,2023-09-29_12h15.48.179,WP_VExplicitOC_LH,2022.2.5,Win32,3.529552947,45.55555556,5.634,2.157,NA,NA,NA,NA,NA,frustrated,"frustrated, not frustrated","more frustrated, less frustrated",NA,NA,NA,NA,NA,NA,NA,NA,NA,NA,NA,NA,NA,NA,NA,0,2,2,1,1,NA,NA,NA,NA,NA,NA,NA,NA,NA,NA,NA,NA,NA,NA,NA,NA,NA,NA,NA,NA,NA,NA,NA,NA,NA,NA,NA,NA
SUPAMT74748,3LQ8PUHQFRR012HVKVS52VRT2DKIHW,28A0152B-8425-477C-98A9-BBA2B86FF8A3,2023-09-29_12h15.48.179,WP_VExplicitOC_LH,2022.2.5,Win32,3.529552947,NA,NA,NA,NA,NA,NA,NA,NA,NA,NA,NA,NA,NA,NA,NA,NA,NA,NA,NA,NA,NA,NA,NA,NA,NA,NA,NA,NA,NA,NA,NA,11,0,11,0,1,NA,NA,NA,NA,NA,NA,NA,NA,NA,NA,NA,NA,NA,NA,NA,NA,NA,NA,NA,NA,NA,NA,NA
SUPAMT74748,3LQ8PUHQFRR012HVKVS52VRT2DKIHW,28A0152B-8425-477C-98A9-BBA2B86FF8A3,2023-09-29_12h15.48.179,WP_VExplicitOC_LH,2022.2.5,Win32,3.529552947,-60.18518519,6.806,2.22,NA,NA,NA,NA,NA,bored,"bored, not bored","more bored, less bored",NA,NA,NA,NA,NA,NA,NA,NA,NA,NA,NA,NA,NA,NA,NA,0,0,0,2,1,NA,NA,NA,NA,NA,NA,NA,NA,NA,NA,NA,NA,NA,NA,NA,NA,NA,NA,NA,NA,NA,NA,NA,NA,NA,NA,NA,NA
SUPAMT74748,3LQ8PUHQFRR012HVKVS52VRT2DKIHW,28A0152B-8425-477C-98A9-BBA2B86FF8A3,2023-09-29_12h15.48.179,WP_VExplicitOC_LH,2022.2.5,Win32,3.529552947,-49.81481481,6.46,2.15,NA,NA,NA,NA,NA,frustrated,"frustrated, not frustrated","more frustrated, less frustrated",NA,NA,NA,NA,NA,NA,NA,NA,NA,NA,NA,NA,NA,NA,NA,0,1,1,1,1,NA,NA,NA,NA,NA,NA,NA,NA,NA,NA,NA,NA,NA,NA,NA,NA,NA,NA,NA,NA,NA,NA,NA,NA,NA,NA,NA,NA
SUPAMT74748,3LQ8PUHQFRR012HVKVS52VRT2DKIHW,28A0152B-8425-477C-98A9-BBA2B86FF8A3,2023-09-29_12h15.48.179,WP_VExplicitOC_LH,2022.2.5,Win32,3.529552947,-61.66666667,6.203,2.183,NA,NA,NA,NA,NA,happy,"unhappy, happy","less happy, more happy",NA,NA,NA,NA,NA,NA,NA,NA,NA,NA,NA,NA,NA,NA,NA,0,2,2,0,1,NA,NA,NA,NA,NA,NA,NA,NA,NA,NA,NA,NA,NA,NA,NA,NA,NA,NA,NA,NA,NA,NA,NA,NA,NA,NA,NA,NA
SUPAMT74748,3LQ8PUHQFRR012HVKVS52VRT2DKIHW,28A0152B-8425-477C-98A9-BBA2B86FF8A3,2023-09-29_12h15.48.179,WP_VExplicitOC_LH,2022.2.5,Win32,3.529552947,NA,NA,NA,NA,NA,NA,NA,NA,NA,NA,NA,NA,NA,NA,NA,NA,NA,NA,NA,NA,NA,NA,NA,NA,NA,NA,NA,NA,NA,NA,NA,12,0,12,0,1,NA,NA,NA,NA,NA,NA,NA,NA,NA,NA,NA,NA,NA,NA,NA,NA,NA,NA,NA,NA,NA,NA,NA
SUPAMT74748,3LQ8PUHQFRR012HVKVS52VRT2DKIHW,28A0152B-8425-477C-98A9-BBA2B86FF8A3,2023-09-29_12h15.48.179,WP_VExplicitOC_LH,2022.2.5,Win32,3.529552947,-62.40740741,5.528,2.137,NA,NA,NA,NA,NA,happy,"unhappy, happy","less happy, more happy",NA,NA,NA,NA,NA,NA,NA,NA,NA,NA,NA,NA,NA,NA,NA,0,0,0,0,1,NA,NA,NA,NA,NA,NA,NA,NA,NA,NA,NA,NA,NA,NA,NA,NA,NA,NA,NA,NA,NA,NA,NA,NA,NA,NA,NA,NA
SUPAMT74748,3LQ8PUHQFRR012HVKVS52VRT2DKIHW,28A0152B-8425-477C-98A9-BBA2B86FF8A3,2023-09-29_12h15.48.179,WP_VExplicitOC_LH,2022.2.5,Win32,3.529552947,-58.7037037,5.828,2.087,NA,NA,NA,NA,NA,frustrated,"frustrated, not frustrated","more frustrated, less frustrated",NA,NA,NA,NA,NA,NA,NA,NA,NA,NA,NA,NA,NA,NA,NA,0,1,1,1,1,NA,NA,NA,NA,NA,NA,NA,NA,NA,NA,NA,NA,NA,NA,NA,NA,NA,NA,NA,NA,NA,NA,NA,NA,NA,NA,NA,NA
SUPAMT74748,3LQ8PUHQFRR012HVKVS52VRT2DKIHW,28A0152B-8425-477C-98A9-BBA2B86FF8A3,2023-09-29_12h15.48.179,WP_VExplicitOC_LH,2022.2.5,Win32,3.529552947,-70.37037037,6.146,2.139,NA,NA,NA,NA,NA,bored,"bored, not bored","more bored, less bored",NA,NA,NA,NA,NA,NA,NA,NA,NA,NA,NA,NA,NA,NA,NA,0,2,2,2,1,NA,NA,NA,NA,NA,NA,NA,NA,NA,NA,NA,NA,NA,NA,NA,NA,NA,NA,NA,NA,NA,NA,NA,NA,NA,NA,NA,NA
SUPAMT74748,3LQ8PUHQFRR012HVKVS52VRT2DKIHW,28A0152B-8425-477C-98A9-BBA2B86FF8A3,2023-09-29_12h15.48.179,WP_VExplicitOC_LH,2022.2.5,Win32,3.529552947,NA,NA,NA,NA,NA,NA,NA,NA,NA,NA,NA,NA,NA,NA,NA,NA,NA,NA,NA,NA,NA,NA,NA,NA,NA,NA,NA,NA,NA,NA,NA,13,0,13,0,1,NA,NA,NA,NA,NA,NA,NA,NA,NA,NA,NA,NA,NA,NA,NA,NA,NA,NA,NA,NA,NA,NA,NA
SUPAMT74748,3LQ8PUHQFRR012HVKVS52VRT2DKIHW,28A0152B-8425-477C-98A9-BBA2B86FF8A3,2023-09-29_12h15.48.179,WP_VExplicitOC_LH,2022.2.5,Win32,3.529552947,-61.48148148,5.492,2.147,NA,NA,NA,NA,NA,bored,"bored, not bored","more bored, less bored",NA,NA,NA,NA,NA,NA,NA,NA,NA,NA,NA,NA,NA,NA,NA,0,0,0,2,1,NA,NA,NA,NA,NA,NA,NA,NA,NA,NA,NA,NA,NA,NA,NA,NA,NA,NA,NA,NA,NA,NA,NA,NA,NA,NA,NA,NA
SUPAMT74748,3LQ8PUHQFRR012HVKVS52VRT2DKIHW,28A0152B-8425-477C-98A9-BBA2B86FF8A3,2023-09-29_12h15.48.179,WP_VExplicitOC_LH,2022.2.5,Win32,3.529552947,-67.77777778,5.972,2.173,NA,NA,NA,NA,NA,happy,"unhappy, happy","less happy, more happy",NA,NA,NA,NA,NA,NA,NA,NA,NA,NA,NA,NA,NA,NA,NA,0,1,1,0,1,NA,NA,NA,NA,NA,NA,NA,NA,NA,NA,NA,NA,NA,NA,NA,NA,NA,NA,NA,NA,NA,NA,NA,NA,NA,NA,NA,NA
SUPAMT74748,3LQ8PUHQFRR012HVKVS52VRT2DKIHW,28A0152B-8425-477C-98A9-BBA2B86FF8A3,2023-09-29_12h15.48.179,WP_VExplicitOC_LH,2022.2.5,Win32,3.529552947,-56.48148148,6.228,2.15,NA,NA,NA,NA,NA,frustrated,"frustrated, not frustrated","more frustrated, less frustrated",NA,NA,NA,NA,NA,NA,NA,NA,NA,NA,NA,NA,NA,NA,NA,0,2,2,1,1,NA,NA,NA,NA,NA,NA,NA,NA,NA,NA,NA,NA,NA,NA,NA,NA,NA,NA,NA,NA,NA,NA,NA,NA,NA,NA,NA,NA
SUPAMT74748,3LQ8PUHQFRR012HVKVS52VRT2DKIHW,28A0152B-8425-477C-98A9-BBA2B86FF8A3,2023-09-29_12h15.48.179,WP_VExplicitOC_LH,2022.2.5,Win32,3.529552947,NA,NA,NA,NA,NA,NA,NA,NA,NA,NA,NA,NA,NA,NA,NA,NA,NA,NA,NA,NA,NA,NA,NA,NA,NA,NA,NA,NA,NA,NA,NA,14,0,14,0,1,NA,NA,NA,NA,NA,NA,NA,NA,NA,NA,NA,NA,NA,NA,NA,NA,NA,NA,NA,NA,NA,NA,NA
SUPAMT74748,3LQ8PUHQFRR012HVKVS52VRT2DKIHW,28A0152B-8425-477C-98A9-BBA2B86FF8A3,2023-09-29_12h15.48.179,WP_VExplicitOC_LH,2022.2.5,Win32,3.529552947,NA,NA,NA,NA,NA,NA,NA,NA,NA,NA,NA,NA,NA,NA,NA,NA,NA,NA,NA,NA,NA,NA,NA,NA,NA,NA,NA,NA,NA,NA,NA,NA,NA,NA,NA,NA,NA,NA,NA,NA,NA,NA,NA,NA,NA,NA,NA,NA,NA,NA,NA,NA,NA,NA,NA,NA,NA,NA,NA
SUPAMT74748,3LQ8PUHQFRR012HVKVS52VRT2DKIHW,28A0152B-8425-477C-98A9-BBA2B86FF8A3,2023-09-29_12h15.48.179,WP_VExplicitOC_LH,2022.2.5,Win32,3.529552947,NA,NA,NA,NA,NA,NA,NA,NA,NA,NA,NA,NA,NA,NA,NA,NA,NA,NA,NA,NA,NA,NA,NA,NA,NA,NA,NA,NA,NA,NA,NA,NA,NA,NA,NA,NA,NA,NA,NA,NA,NA,NA,NA,NA,NA,NA,NA,NA,NA,NA,NA,NA,NA,NA,NA,NA,NA,NA,NA
SUPAMT74748,3LQ8PUHQFRR012HVKVS52VRT2DKIHW,28A0152B-8425-477C-98A9-BBA2B86FF8A3,2023-09-29_12h15.48.179,WP_VExplicitOC_LH,2022.2.5,Win32,3.529552947,NA,NA,NA,NA,NA,NA,NA,NA,NA,NA,NA,NA,NA,NA,NA,NA,NA,NA,rest (looking at a fixed cross),001.png,NA,NA,NA,NA,NA,NA,NA,NA,NA,NA,NA,NA,NA,NA,NA,NA,55,3.911,0,0,0,0,1,NA,NA,NA,NA,NA,NA,NA,NA,NA,NA,NA,NA,NA,NA,NA,NA
SUPAMT74748,3LQ8PUHQFRR012HVKVS52VRT2DKIHW,28A0152B-8425-477C-98A9-BBA2B86FF8A3,2023-09-29_12h15.48.179,WP_VExplicitOC_LH,2022.2.5,Win32,3.529552947,NA,NA,NA,NA,NA,NA,NA,NA,NA,NA,NA,NA,NA,NA,NA,NA,NA,NA,stand up,002.png,NA,NA,NA,NA,NA,NA,NA,NA,NA,NA,NA,NA,NA,NA,NA,NA,-60.74074074,3.811,0,1,1,1,1,NA,NA,NA,NA,NA,NA,NA,NA,NA,NA,NA,NA,NA,NA,NA,NA
SUPAMT74748,3LQ8PUHQFRR012HVKVS52VRT2DKIHW,28A0152B-8425-477C-98A9-BBA2B86FF8A3,2023-09-29_12h15.48.179,WP_VExplicitOC_LH,2022.2.5,Win32,3.529552947,NA,NA,NA,NA,NA,NA,NA,NA,NA,NA,NA,NA,NA,NA,NA,NA,NA,NA,stretch,003.png,NA,NA,NA,NA,NA,NA,NA,NA,NA,NA,NA,NA,NA,NA,NA,NA,50.74074074,3.485,0,2,2,2,1,NA,NA,NA,NA,NA,NA,NA,NA,NA,NA,NA,NA,NA,NA,NA,NA
SUPAMT74748,3LQ8PUHQFRR012HVKVS52VRT2DKIHW,28A0152B-8425-477C-98A9-BBA2B86FF8A3,2023-09-29_12h15.48.179,WP_VExplicitOC_LH,2022.2.5,Win32,3.529552947,NA,NA,NA,NA,NA,NA,NA,NA,NA,NA,NA,NA,NA,NA,NA,NA,NA,NA,make a drink,004.png,NA,NA,NA,NA,NA,NA,NA,NA,NA,NA,NA,NA,NA,NA,NA,NA,-45.92592593,3.818,0,3,3,3,1,NA,NA,NA,NA,NA,NA,NA,NA,NA,NA,NA,NA,NA,NA,NA,NA
SUPAMT74748,3LQ8PUHQFRR012HVKVS52VRT2DKIHW,28A0152B-8425-477C-98A9-BBA2B86FF8A3,2023-09-29_12h15.48.179,WP_VExplicitOC_LH,2022.2.5,Win32,3.529552947,NA,NA,NA,NA,NA,NA,NA,NA,NA,NA,NA,NA,NA,NA,NA,NA,NA,NA,scroll social media,005.png,NA,NA,NA,NA,NA,NA,NA,NA,NA,NA,NA,NA,NA,NA,NA,NA,58.33333333,3.481,0,4,4,4,1,NA,NA,NA,NA,NA,NA,NA,NA,NA,NA,NA,NA,NA,NA,NA,NA
SUPAMT74748,3LQ8PUHQFRR012HVKVS52VRT2DKIHW,28A0152B-8425-477C-98A9-BBA2B86FF8A3,2023-09-29_12h15.48.179,WP_VExplicitOC_LH,2022.2.5,Win32,3.529552947,NA,NA,NA,NA,NA,NA,NA,NA,NA,NA,NA,NA,NA,NA,NA,NA,NA,NA,listen to music,006.png,NA,NA,NA,NA,NA,NA,NA,NA,NA,NA,NA,NA,NA,NA,NA,NA,56.2962963,3.545,0,5,5,5,1,NA,NA,NA,NA,NA,NA,NA,NA,NA,NA,NA,NA,NA,NA,NA,NA
SUPAMT74748,3LQ8PUHQFRR012HVKVS52VRT2DKIHW,28A0152B-8425-477C-98A9-BBA2B86FF8A3,2023-09-29_12h15.48.179,WP_VExplicitOC_LH,2022.2.5,Win32,3.529552947,NA,NA,NA,NA,NA,NA,NA,NA,NA,NA,NA,NA,NA,NA,NA,NA,NA,NA,daydream,007.png,NA,NA,NA,NA,NA,NA,NA,NA,NA,NA,NA,NA,NA,NA,NA,NA,55.92592593,3.48,0,6,6,6,1,NA,NA,NA,NA,NA,NA,NA,NA,NA,NA,NA,NA,NA,NA,NA,NA
SUPAMT74748,3LQ8PUHQFRR012HVKVS52VRT2DKIHW,28A0152B-8425-477C-98A9-BBA2B86FF8A3,2023-09-29_12h15.48.179,WP_VExplicitOC_LH,2022.2.5,Win32,3.529552947,NA,NA,NA,NA,NA,NA,NA,NA,NA,NA,NA,NA,NA,NA,NA,NA,NA,NA,watch a short animation,008.png,NA,NA,NA,NA,NA,NA,NA,NA,NA,NA,NA,NA,NA,NA,NA,NA,-55.18518519,3.201,0,7,7,7,1,NA,NA,NA,NA,NA,NA,NA,NA,NA,NA,NA,NA,NA,NA,NA,NA
SUPAMT74748,3LQ8PUHQFRR012HVKVS52VRT2DKIHW,28A0152B-8425-477C-98A9-BBA2B86FF8A3,2023-09-29_12h15.48.179,WP_VExplicitOC_LH,2022.2.5,Win32,3.529552947,NA,NA,NA,NA,NA,NA,NA,NA,NA,NA,NA,NA,NA,NA,NA,NA,NA,NA,read a novel,009.png,NA,NA,NA,NA,NA,NA,NA,NA,NA,NA,NA,NA,NA,NA,NA,NA,52.03703704,2.87,0,8,8,8,1,NA,NA,NA,NA,NA,NA,NA,NA,NA,NA,NA,NA,NA,NA,NA,NA
SUPAMT74748,3LQ8PUHQFRR012HVKVS52VRT2DKIHW,28A0152B-8425-477C-98A9-BBA2B86FF8A3,2023-09-29_12h15.48.179,WP_VExplicitOC_LH,2022.2.5,Win32,3.529552947,NA,NA,NA,NA,NA,NA,NA,NA,NA,NA,NA,NA,NA,NA,NA,NA,NA,NA,read the news,010.png,NA,NA,NA,NA,NA,NA,NA,NA,NA,NA,NA,NA,NA,NA,NA,NA,48.51851852,3.515,0,9,9,9,1,NA,NA,NA,NA,NA,NA,NA,NA,NA,NA,NA,NA,NA,NA,NA,NA
SUPAMT74748,3LQ8PUHQFRR012HVKVS52VRT2DKIHW,28A0152B-8425-477C-98A9-BBA2B86FF8A3,2023-09-29_12h15.48.179,WP_VExplicitOC_LH,2022.2.5,Win32,3.529552947,NA,NA,NA,NA,NA,NA,NA,NA,NA,NA,NA,NA,NA,NA,NA,NA,NA,NA,NA,NA,NA,NA,NA,NA,NA,NA,NA,NA,NA,NA,NA,NA,NA,NA,NA,NA,NA,NA,NA,NA,NA,NA,NA,scroll social media,NA,NA,NA,NA,NA,NA,NA,NA,NA,NA,NA,NA,NA,NA,NA
SUPAMT74748,3LQ8PUHQFRR012HVKVS52VRT2DKIHW,28A0152B-8425-477C-98A9-BBA2B86FF8A3,2023-09-29_12h15.48.179,WP_VExplicitOC_LH,2022.2.5,Win32,3.529552947,-54.62962963,5.462,2.105,NA,NA,NA,NA,NA,bored,"bored, not bored","more bored, less bored",NA,NA,NA,NA,NA,NA,NA,NA,NA,NA,NA,NA,NA,NA,NA,NA,NA,NA,NA,NA,NA,NA,NA,NA,NA,NA,NA,NA,NA,NA,NA,NA,NA,0,0,0,2,1,NA,NA,NA,NA,NA,NA,NA,NA,NA,NA
SUPAMT74748,3LQ8PUHQFRR012HVKVS52VRT2DKIHW,28A0152B-8425-477C-98A9-BBA2B86FF8A3,2023-09-29_12h15.48.179,WP_VExplicitOC_LH,2022.2.5,Win32,3.529552947,53.88888889,5.909,2.194,NA,NA,NA,NA,NA,frustrated,"frustrated, not frustrated","more frustrated, less frustrated",NA,NA,NA,NA,NA,NA,NA,NA,NA,NA,NA,NA,NA,NA,NA,NA,NA,NA,NA,NA,NA,NA,NA,NA,NA,NA,NA,NA,NA,NA,NA,NA,NA,0,1,1,1,1,NA,NA,NA,NA,NA,NA,NA,NA,NA,NA
SUPAMT74748,3LQ8PUHQFRR012HVKVS52VRT2DKIHW,28A0152B-8425-477C-98A9-BBA2B86FF8A3,2023-09-29_12h15.48.179,WP_VExplicitOC_LH,2022.2.5,Win32,3.529552947,-59.07407407,5.279,2.187,NA,NA,NA,NA,NA,happy,"unhappy, happy","less happy, more happy",NA,NA,NA,NA,NA,NA,NA,NA,NA,NA,NA,NA,NA,NA,NA,NA,NA,NA,NA,NA,NA,NA,NA,NA,NA,NA,NA,NA,NA,NA,NA,NA,NA,0,2,2,0,1,NA,NA,NA,NA,NA,NA,NA,NA,NA,NA
SUPAMT74748,3LQ8PUHQFRR012HVKVS52VRT2DKIHW,28A0152B-8425-477C-98A9-BBA2B86FF8A3,2023-09-29_12h15.48.179,WP_VExplicitOC_LH,2022.2.5,Win32,3.529552947,NA,NA,NA,NA,NA,NA,NA,NA,NA,NA,NA,NA,NA,NA,NA,NA,NA,NA,NA,NA,NA,NA,NA,NA,NA,NA,NA,NA,NA,NA,NA,NA,NA,NA,NA,NA,NA,NA,NA,NA,NA,NA,NA,NA,NA,NA,NA,NA,NA,NA,NA,NA,NA,NA,NA,NA,NA,NA,NA
SUPAMT74748,3LQ8PUHQFRR012HVKVS52VRT2DKIHW,28A0152B-8425-477C-98A9-BBA2B86FF8A3,2023-09-29_12h15.48.179,WP_VExplicitOC_LH,2022.2.5,Win32,3.529552947,NA,NA,NA,NA,NA,NA,NA,NA,NA,NA,NA,NA,NA,NA,NA,NA,NA,NA,NA,NA,NA,NA,NA,NA,NA,NA,NA,NA,NA,NA,NA,NA,NA,NA,NA,NA,NA,NA,NA,NA,NA,NA,NA,NA,NA,NA,NA,NA,NA,NA,NA,NA,NA,NA,NA,NA,NA,NA,NA
SUPAMT74748,3LQ8PUHQFRR012HVKVS52VRT2DKIHW,28A0152B-8425-477C-98A9-BBA2B86FF8A3,2023-09-29_12h15.48.179,WP_VExplicitOC_LH,2022.2.5,Win32,3.529552947,-48.33333333,5.227,2.158,NA,NA,NA,NA,NA,happy,"unhappy, happy","less happy, more happy",NA,NA,NA,NA,NA,NA,NA,NA,NA,NA,NA,NA,NA,NA,NA,NA,NA,NA,NA,NA,NA,NA,NA,NA,NA,NA,NA,NA,NA,NA,NA,NA,NA,NA,NA,NA,NA,NA,0,0,0,0,1,NA,NA,NA,NA,NA
SUPAMT74748,3LQ8PUHQFRR012HVKVS52VRT2DKIHW,28A0152B-8425-477C-98A9-BBA2B86FF8A3,2023-09-29_12h15.48.179,WP_VExplicitOC_LH,2022.2.5,Win32,3.529552947,-78.33333333,5.799,2.15,NA,NA,NA,NA,NA,frustrated,"frustrated, not frustrated","more frustrated, less frustrated",NA,NA,NA,NA,NA,NA,NA,NA,NA,NA,NA,NA,NA,NA,NA,NA,NA,NA,NA,NA,NA,NA,NA,NA,NA,NA,NA,NA,NA,NA,NA,NA,NA,NA,NA,NA,NA,NA,0,1,1,1,1,NA,NA,NA,NA,NA
SUPAMT74748,3LQ8PUHQFRR012HVKVS52VRT2DKIHW,28A0152B-8425-477C-98A9-BBA2B86FF8A3,2023-09-29_12h15.48.179,WP_VExplicitOC_LH,2022.2.5,Win32,3.529552947,-66.48148148,6.173,2.189,NA,NA,NA,NA,NA,bored,"bored, not bored","more bored, less bored",NA,NA,NA,NA,NA,NA,NA,NA,NA,NA,NA,NA,NA,NA,NA,NA,NA,NA,NA,NA,NA,NA,NA,NA,NA,NA,NA,NA,NA,NA,NA,NA,NA,NA,NA,NA,NA,NA,0,2,2,2,1,NA,NA,NA,NA,NA
SUPAMT74748,3LQ8PUHQFRR012HVKVS52VRT2DKIHW,28A0152B-8425-477C-98A9-BBA2B86FF8A3,2023-09-29_12h15.48.179,WP_VExplicitOC_LH,2022.2.5,Win32,3.529552947,NA,NA,NA,NA,NA,NA,NA,NA,NA,NA,NA,NA,NA,NA,NA,NA,NA,NA,NA,NA,NA,NA,NA,NA,NA,NA,NA,NA,NA,NA,NA,NA,NA,NA,NA,NA,NA,NA,NA,NA,NA,NA,NA,NA,NA,NA,NA,NA,NA,NA,NA,NA,NA,NA,0,0,0,0,1
SUPAMT74748,3LQ8PUHQFRR012HVKVS52VRT2DKIHW,28A0152B-8425-477C-98A9-BBA2B86FF8A3,2023-09-29_12h15.48.179,WP_VExplicitOC_LH,2022.2.5,Win32,3.529552947,-70.74074074,4.931,2.145,NA,NA,NA,NA,NA,happy,"unhappy, happy","less happy, more happy",NA,NA,NA,NA,NA,NA,NA,NA,NA,NA,NA,NA,NA,NA,NA,NA,NA,NA,NA,NA,NA,NA,NA,NA,NA,NA,NA,NA,NA,NA,NA,NA,NA,NA,NA,NA,NA,NA,0,0,0,0,1,NA,NA,NA,NA,NA
SUPAMT74748,3LQ8PUHQFRR012HVKVS52VRT2DKIHW,28A0152B-8425-477C-98A9-BBA2B86FF8A3,2023-09-29_12h15.48.179,WP_VExplicitOC_LH,2022.2.5,Win32,3.529552947,-56.48148148,7.452,2.223,NA,NA,NA,NA,NA,frustrated,"frustrated, not frustrated","more frustrated, less frustrated",NA,NA,NA,NA,NA,NA,NA,NA,NA,NA,NA,NA,NA,NA,NA,NA,NA,NA,NA,NA,NA,NA,NA,NA,NA,NA,NA,NA,NA,NA,NA,NA,NA,NA,NA,NA,NA,NA,0,1,1,1,1,NA,NA,NA,NA,NA
SUPAMT74748,3LQ8PUHQFRR012HVKVS52VRT2DKIHW,28A0152B-8425-477C-98A9-BBA2B86FF8A3,2023-09-29_12h15.48.179,WP_VExplicitOC_LH,2022.2.5,Win32,3.529552947,43.88888889,5.346,2.131,NA,NA,NA,NA,NA,bored,"bored, not bored","more bored, less bored",NA,NA,NA,NA,NA,NA,NA,NA,NA,NA,NA,NA,NA,NA,NA,NA,NA,NA,NA,NA,NA,NA,NA,NA,NA,NA,NA,NA,NA,NA,NA,NA,NA,NA,NA,NA,NA,NA,0,2,2,2,1,NA,NA,NA,NA,NA
SUPAMT74748,3LQ8PUHQFRR012HVKVS52VRT2DKIHW,28A0152B-8425-477C-98A9-BBA2B86FF8A3,2023-09-29_12h15.48.179,WP_VExplicitOC_LH,2022.2.5,Win32,3.529552947,NA,NA,NA,NA,NA,NA,NA,NA,NA,NA,NA,NA,NA,NA,NA,NA,NA,NA,NA,NA,NA,NA,NA,NA,NA,NA,NA,NA,NA,NA,NA,NA,NA,NA,NA,NA,NA,NA,NA,NA,NA,NA,NA,NA,NA,NA,NA,NA,NA,NA,NA,NA,NA,NA,1,0,1,0,1
SUPAMT74748,3LQ8PUHQFRR012HVKVS52VRT2DKIHW,28A0152B-8425-477C-98A9-BBA2B86FF8A3,2023-09-29_12h15.48.179,WP_VExplicitOC_LH,2022.2.5,Win32,3.529552947,-61.2962963,5.81,2.13,NA,NA,NA,NA,NA,bored,"bored, not bored","more bored, less bored",NA,NA,NA,NA,NA,NA,NA,NA,NA,NA,NA,NA,NA,NA,NA,NA,NA,NA,NA,NA,NA,NA,NA,NA,NA,NA,NA,NA,NA,NA,NA,NA,NA,NA,NA,NA,NA,NA,0,0,0,2,1,NA,NA,NA,NA,NA
SUPAMT74748,3LQ8PUHQFRR012HVKVS52VRT2DKIHW,28A0152B-8425-477C-98A9-BBA2B86FF8A3,2023-09-29_12h15.48.179,WP_VExplicitOC_LH,2022.2.5,Win32,3.529552947,-63.88888889,5.877,2.216,NA,NA,NA,NA,NA,frustrated,"frustrated, not frustrated","more frustrated, less frustrated",NA,NA,NA,NA,NA,NA,NA,NA,NA,NA,NA,NA,NA,NA,NA,NA,NA,NA,NA,NA,NA,NA,NA,NA,NA,NA,NA,NA,NA,NA,NA,NA,NA,NA,NA,NA,NA,NA,0,1,1,1,1,NA,NA,NA,NA,NA
SUPAMT74748,3LQ8PUHQFRR012HVKVS52VRT2DKIHW,28A0152B-8425-477C-98A9-BBA2B86FF8A3,2023-09-29_12h15.48.179,WP_VExplicitOC_LH,2022.2.5,Win32,3.529552947,50.55555556,5.468,2.095,NA,NA,NA,NA,NA,happy,"unhappy, happy","less happy, more happy",NA,NA,NA,NA,NA,NA,NA,NA,NA,NA,NA,NA,NA,NA,NA,NA,NA,NA,NA,NA,NA,NA,NA,NA,NA,NA,NA,NA,NA,NA,NA,NA,NA,NA,NA,NA,NA,NA,0,2,2,0,1,NA,NA,NA,NA,NA
SUPAMT74748,3LQ8PUHQFRR012HVKVS52VRT2DKIHW,28A0152B-8425-477C-98A9-BBA2B86FF8A3,2023-09-29_12h15.48.179,WP_VExplicitOC_LH,2022.2.5,Win32,3.529552947,NA,NA,NA,NA,NA,NA,NA,NA,NA,NA,NA,NA,NA,NA,NA,NA,NA,NA,NA,NA,NA,NA,NA,NA,NA,NA,NA,NA,NA,NA,NA,NA,NA,NA,NA,NA,NA,NA,NA,NA,NA,NA,NA,NA,NA,NA,NA,NA,NA,NA,NA,NA,NA,NA,2,0,2,0,1
SUPAMT74748,3LQ8PUHQFRR012HVKVS52VRT2DKIHW,28A0152B-8425-477C-98A9-BBA2B86FF8A3,2023-09-29_12h15.48.179,WP_VExplicitOC_LH,2022.2.5,Win32,3.529552947,-65.74074074,4.924,2.182,NA,NA,NA,NA,NA,frustrated,"frustrated, not frustrated","more frustrated, less frustrated",NA,NA,NA,NA,NA,NA,NA,NA,NA,NA,NA,NA,NA,NA,NA,NA,NA,NA,NA,NA,NA,NA,NA,NA,NA,NA,NA,NA,NA,NA,NA,NA,NA,NA,NA,NA,NA,NA,0,0,0,1,1,NA,NA,NA,NA,NA
SUPAMT74748,3LQ8PUHQFRR012HVKVS52VRT2DKIHW,28A0152B-8425-477C-98A9-BBA2B86FF8A3,2023-09-29_12h15.48.179,WP_VExplicitOC_LH,2022.2.5,Win32,3.529552947,51.85185185,4.842,2.09,NA,NA,NA,NA,NA,bored,"bored, not bored","more bored, less bored",NA,NA,NA,NA,NA,NA,NA,NA,NA,NA,NA,NA,NA,NA,NA,NA,NA,NA,NA,NA,NA,NA,NA,NA,NA,NA,NA,NA,NA,NA,NA,NA,NA,NA,NA,NA,NA,NA,0,1,1,2,1,NA,NA,NA,NA,NA
SUPAMT74748,3LQ8PUHQFRR012HVKVS52VRT2DKIHW,28A0152B-8425-477C-98A9-BBA2B86FF8A3,2023-09-29_12h15.48.179,WP_VExplicitOC_LH,2022.2.5,Win32,3.529552947,-60.18518519,5.812,2.159,NA,NA,NA,NA,NA,happy,"unhappy, happy","less happy, more happy",NA,NA,NA,NA,NA,NA,NA,NA,NA,NA,NA,NA,NA,NA,NA,NA,NA,NA,NA,NA,NA,NA,NA,NA,NA,NA,NA,NA,NA,NA,NA,NA,NA,NA,NA,NA,NA,NA,0,2,2,0,1,NA,NA,NA,NA,NA
SUPAMT74748,3LQ8PUHQFRR012HVKVS52VRT2DKIHW,28A0152B-8425-477C-98A9-BBA2B86FF8A3,2023-09-29_12h15.48.179,WP_VExplicitOC_LH,2022.2.5,Win32,3.529552947,NA,NA,NA,NA,NA,NA,NA,NA,NA,NA,NA,NA,NA,NA,NA,NA,NA,NA,NA,NA,NA,NA,NA,NA,NA,NA,NA,NA,NA,NA,NA,NA,NA,NA,NA,NA,NA,NA,NA,NA,NA,NA,NA,NA,NA,NA,NA,NA,NA,NA,NA,NA,NA,NA,3,0,3,0,1
SUPAMT74748,3LQ8PUHQFRR012HVKVS52VRT2DKIHW,28A0152B-8425-477C-98A9-BBA2B86FF8A3,2023-09-29_12h15.48.179,WP_VExplicitOC_LH,2022.2.5,Win32,3.529552947,-64.44444444,5.104,2.268,NA,NA,NA,NA,NA,happy,"unhappy, happy","less happy, more happy",NA,NA,NA,NA,NA,NA,NA,NA,NA,NA,NA,NA,NA,NA,NA,NA,NA,NA,NA,NA,NA,NA,NA,NA,NA,NA,NA,NA,NA,NA,NA,NA,NA,NA,NA,NA,NA,NA,0,0,0,0,1,NA,NA,NA,NA,NA
SUPAMT74748,3LQ8PUHQFRR012HVKVS52VRT2DKIHW,28A0152B-8425-477C-98A9-BBA2B86FF8A3,2023-09-29_12h15.48.179,WP_VExplicitOC_LH,2022.2.5,Win32,3.529552947,50.37037037,5.763,2.248,NA,NA,NA,NA,NA,frustrated,"frustrated, not frustrated","more frustrated, less frustrated",NA,NA,NA,NA,NA,NA,NA,NA,NA,NA,NA,NA,NA,NA,NA,NA,NA,NA,NA,NA,NA,NA,NA,NA,NA,NA,NA,NA,NA,NA,NA,NA,NA,NA,NA,NA,NA,NA,0,1,1,1,1,NA,NA,NA,NA,NA
SUPAMT74748,3LQ8PUHQFRR012HVKVS52VRT2DKIHW,28A0152B-8425-477C-98A9-BBA2B86FF8A3,2023-09-29_12h15.48.179,WP_VExplicitOC_LH,2022.2.5,Win32,3.529552947,-52.77777778,5.296,2.187,NA,NA,NA,NA,NA,bored,"bored, not bored","more bored, less bored",NA,NA,NA,NA,NA,NA,NA,NA,NA,NA,NA,NA,NA,NA,NA,NA,NA,NA,NA,NA,NA,NA,NA,NA,NA,NA,NA,NA,NA,NA,NA,NA,NA,NA,NA,NA,NA,NA,0,2,2,2,1,NA,NA,NA,NA,NA
SUPAMT74748,3LQ8PUHQFRR012HVKVS52VRT2DKIHW,28A0152B-8425-477C-98A9-BBA2B86FF8A3,2023-09-29_12h15.48.179,WP_VExplicitOC_LH,2022.2.5,Win32,3.529552947,NA,NA,NA,NA,NA,NA,NA,NA,NA,NA,NA,NA,NA,NA,NA,NA,NA,NA,NA,NA,NA,NA,NA,NA,NA,NA,NA,NA,NA,NA,NA,NA,NA,NA,NA,NA,NA,NA,NA,NA,NA,NA,NA,NA,NA,NA,NA,NA,NA,NA,NA,NA,NA,NA,4,0,4,0,1
SUPAMT74748,3LQ8PUHQFRR012HVKVS52VRT2DKIHW,28A0152B-8425-477C-98A9-BBA2B86FF8A3,2023-09-29_12h15.48.179,WP_VExplicitOC_LH,2022.2.5,Win32,3.529552947,-51.2962963,5.666,2.201,NA,NA,NA,NA,NA,frustrated,"frustrated, not frustrated","more frustrated, less frustrated",NA,NA,NA,NA,NA,NA,NA,NA,NA,NA,NA,NA,NA,NA,NA,NA,NA,NA,NA,NA,NA,NA,NA,NA,NA,NA,NA,NA,NA,NA,NA,NA,NA,NA,NA,NA,NA,NA,0,0,0,1,1,NA,NA,NA,NA,NA
SUPAMT74748,3LQ8PUHQFRR012HVKVS52VRT2DKIHW,28A0152B-8425-477C-98A9-BBA2B86FF8A3,2023-09-29_12h15.48.179,WP_VExplicitOC_LH,2022.2.5,Win32,3.529552947,NA,NA,2.184,NA,NA,NA,NA,NA,bored,"bored, not bored","more bored, less bored",NA,NA,NA,NA,NA,NA,NA,NA,NA,NA,NA,NA,NA,NA,NA,NA,NA,NA,NA,NA,NA,NA,NA,NA,NA,NA,NA,NA,NA,NA,NA,NA,NA,NA,NA,NA,NA,NA,0,1,1,2,1,NA,NA,NA,NA,NA
SUPAMT74748,3LQ8PUHQFRR012HVKVS52VRT2DKIHW,28A0152B-8425-477C-98A9-BBA2B86FF8A3,2023-09-29_12h15.48.179,WP_VExplicitOC_LH,2022.2.5,Win32,3.529552947,63.88888889,5.496,2.1,NA,NA,NA,NA,NA,happy,"unhappy, happy","less happy, more happy",NA,NA,NA,NA,NA,NA,NA,NA,NA,NA,NA,NA,NA,NA,NA,NA,NA,NA,NA,NA,NA,NA,NA,NA,NA,NA,NA,NA,NA,NA,NA,NA,NA,NA,NA,NA,NA,NA,0,2,2,0,1,NA,NA,NA,NA,NA
SUPAMT74748,3LQ8PUHQFRR012HVKVS52VRT2DKIHW,28A0152B-8425-477C-98A9-BBA2B86FF8A3,2023-09-29_12h15.48.179,WP_VExplicitOC_LH,2022.2.5,Win32,3.529552947,NA,NA,NA,NA,NA,NA,NA,NA,NA,NA,NA,NA,NA,NA,NA,NA,NA,NA,NA,NA,NA,NA,NA,NA,NA,NA,NA,NA,NA,NA,NA,NA,NA,NA,NA,NA,NA,NA,NA,NA,NA,NA,NA,NA,NA,NA,NA,NA,NA,NA,NA,NA,NA,NA,5,0,5,0,1
SUPAMT74748,3LQ8PUHQFRR012HVKVS52VRT2DKIHW,28A0152B-8425-477C-98A9-BBA2B86FF8A3,2023-09-29_12h15.48.179,WP_VExplicitOC_LH,2022.2.5,Win32,3.529552947,-46.85185185,4.918,2.164,NA,NA,NA,NA,NA,happy,"unhappy, happy","less happy, more happy",NA,NA,NA,NA,NA,NA,NA,NA,NA,NA,NA,NA,NA,NA,NA,NA,NA,NA,NA,NA,NA,NA,NA,NA,NA,NA,NA,NA,NA,NA,NA,NA,NA,NA,NA,NA,NA,NA,0,0,0,0,1,NA,NA,NA,NA,NA
SUPAMT74748,3LQ8PUHQFRR012HVKVS52VRT2DKIHW,28A0152B-8425-477C-98A9-BBA2B86FF8A3,2023-09-29_12h15.48.179,WP_VExplicitOC_LH,2022.2.5,Win32,3.529552947,-55,4.973,2.203,NA,NA,NA,NA,NA,bored,"bored, not bored","more bored, less bored",NA,NA,NA,NA,NA,NA,NA,NA,NA,NA,NA,NA,NA,NA,NA,NA,NA,NA,NA,NA,NA,NA,NA,NA,NA,NA,NA,NA,NA,NA,NA,NA,NA,NA,NA,NA,NA,NA,0,1,1,2,1,NA,NA,NA,NA,NA
SUPAMT74748,3LQ8PUHQFRR012HVKVS52VRT2DKIHW,28A0152B-8425-477C-98A9-BBA2B86FF8A3,2023-09-29_12h15.48.179,WP_VExplicitOC_LH,2022.2.5,Win32,3.529552947,-47.59259259,5.264,2.155,NA,NA,NA,NA,NA,frustrated,"frustrated, not frustrated","more frustrated, less frustrated",NA,NA,NA,NA,NA,NA,NA,NA,NA,NA,NA,NA,NA,NA,NA,NA,NA,NA,NA,NA,NA,NA,NA,NA,NA,NA,NA,NA,NA,NA,NA,NA,NA,NA,NA,NA,NA,NA,0,2,2,1,1,NA,NA,NA,NA,NA
SUPAMT74748,3LQ8PUHQFRR012HVKVS52VRT2DKIHW,28A0152B-8425-477C-98A9-BBA2B86FF8A3,2023-09-29_12h15.48.179,WP_VExplicitOC_LH,2022.2.5,Win32,3.529552947,NA,NA,NA,NA,NA,NA,NA,NA,NA,NA,NA,NA,NA,NA,NA,NA,NA,NA,NA,NA,NA,NA,NA,NA,NA,NA,NA,NA,NA,NA,NA,NA,NA,NA,NA,NA,NA,NA,NA,NA,NA,NA,NA,NA,NA,NA,NA,NA,NA,NA,NA,NA,NA,NA,6,0,6,0,1
SUPAMT74748,3LQ8PUHQFRR012HVKVS52VRT2DKIHW,28A0152B-8425-477C-98A9-BBA2B86FF8A3,2023-09-29_12h15.48.179,WP_VExplicitOC_LH,2022.2.5,Win32,3.529552947,-53.7037037,4.937,2.198,NA,NA,NA,NA,NA,happy,"unhappy, happy","less happy, more happy",NA,NA,NA,NA,NA,NA,NA,NA,NA,NA,NA,NA,NA,NA,NA,NA,NA,NA,NA,NA,NA,NA,NA,NA,NA,NA,NA,NA,NA,NA,NA,NA,NA,NA,NA,NA,NA,NA,0,0,0,0,1,NA,NA,NA,NA,NA
SUPAMT74748,3LQ8PUHQFRR012HVKVS52VRT2DKIHW,28A0152B-8425-477C-98A9-BBA2B86FF8A3,2023-09-29_12h15.48.179,WP_VExplicitOC_LH,2022.2.5,Win32,3.529552947,38.7037037,5.379,2.236,NA,NA,NA,NA,NA,frustrated,"frustrated, not frustrated","more frustrated, less frustrated",NA,NA,NA,NA,NA,NA,NA,NA,NA,NA,NA,NA,NA,NA,NA,NA,NA,NA,NA,NA,NA,NA,NA,NA,NA,NA,NA,NA,NA,NA,NA,NA,NA,NA,NA,NA,NA,NA,0,1,1,1,1,NA,NA,NA,NA,NA
SUPAMT74748,3LQ8PUHQFRR012HVKVS52VRT2DKIHW,28A0152B-8425-477C-98A9-BBA2B86FF8A3,2023-09-29_12h15.48.179,WP_VExplicitOC_LH,2022.2.5,Win32,3.529552947,-50,4.908,2.105,NA,NA,NA,NA,NA,bored,"bored, not bored","more bored, less bored",NA,NA,NA,NA,NA,NA,NA,NA,NA,NA,NA,NA,NA,NA,NA,NA,NA,NA,NA,NA,NA,NA,NA,NA,NA,NA,NA,NA,NA,NA,NA,NA,NA,NA,NA,NA,NA,NA,0,2,2,2,1,NA,NA,NA,NA,NA
SUPAMT74748,3LQ8PUHQFRR012HVKVS52VRT2DKIHW,28A0152B-8425-477C-98A9-BBA2B86FF8A3,2023-09-29_12h15.48.179,WP_VExplicitOC_LH,2022.2.5,Win32,3.529552947,NA,NA,NA,NA,NA,NA,NA,NA,NA,NA,NA,NA,NA,NA,NA,NA,NA,NA,NA,NA,NA,NA,NA,NA,NA,NA,NA,NA,NA,NA,NA,NA,NA,NA,NA,NA,NA,NA,NA,NA,NA,NA,NA,NA,NA,NA,NA,NA,NA,NA,NA,NA,NA,NA,7,0,7,0,1
SUPAMT74748,3LQ8PUHQFRR012HVKVS52VRT2DKIHW,28A0152B-8425-477C-98A9-BBA2B86FF8A3,2023-09-29_12h15.48.179,WP_VExplicitOC_LH,2022.2.5,Win32,3.529552947,-44.62962963,7.085,2.139,NA,NA,NA,NA,NA,frustrated,"frustrated, not frustrated","more frustrated, less frustrated",NA,NA,NA,NA,NA,NA,NA,NA,NA,NA,NA,NA,NA,NA,NA,NA,NA,NA,NA,NA,NA,NA,NA,NA,NA,NA,NA,NA,NA,NA,NA,NA,NA,NA,NA,NA,NA,NA,0,0,0,1,1,NA,NA,NA,NA,NA
SUPAMT74748,3LQ8PUHQFRR012HVKVS52VRT2DKIHW,28A0152B-8425-477C-98A9-BBA2B86FF8A3,2023-09-29_12h15.48.179,WP_VExplicitOC_LH,2022.2.5,Win32,3.529552947,42.40740741,5.255,2.117,NA,NA,NA,NA,NA,happy,"unhappy, happy","less happy, more happy",NA,NA,NA,NA,NA,NA,NA,NA,NA,NA,NA,NA,NA,NA,NA,NA,NA,NA,NA,NA,NA,NA,NA,NA,NA,NA,NA,NA,NA,NA,NA,NA,NA,NA,NA,NA,NA,NA,0,1,1,0,1,NA,NA,NA,NA,NA
SUPAMT74748,3LQ8PUHQFRR012HVKVS52VRT2DKIHW,28A0152B-8425-477C-98A9-BBA2B86FF8A3,2023-09-29_12h15.48.179,WP_VExplicitOC_LH,2022.2.5,Win32,3.529552947,-47.59259259,5.653,2.269,NA,NA,NA,NA,NA,bored,"bored, not bored","more bored, less bored",NA,NA,NA,NA,NA,NA,NA,NA,NA,NA,NA,NA,NA,NA,NA,NA,NA,NA,NA,NA,NA,NA,NA,NA,NA,NA,NA,NA,NA,NA,NA,NA,NA,NA,NA,NA,NA,NA,0,2,2,2,1,NA,NA,NA,NA,NA
SUPAMT74748,3LQ8PUHQFRR012HVKVS52VRT2DKIHW,28A0152B-8425-477C-98A9-BBA2B86FF8A3,2023-09-29_12h15.48.179,WP_VExplicitOC_LH,2022.2.5,Win32,3.529552947,NA,NA,NA,NA,NA,NA,NA,NA,NA,NA,NA,NA,NA,NA,NA,NA,NA,NA,NA,NA,NA,NA,NA,NA,NA,NA,NA,NA,NA,NA,NA,NA,NA,NA,NA,NA,NA,NA,NA,NA,NA,NA,NA,NA,NA,NA,NA,NA,NA,NA,NA,NA,NA,NA,8,0,8,0,1
SUPAMT74748,3LQ8PUHQFRR012HVKVS52VRT2DKIHW,28A0152B-8425-477C-98A9-BBA2B86FF8A3,2023-09-29_12h15.48.179,WP_VExplicitOC_LH,2022.2.5,Win32,3.529552947,-56.2962963,5.278,2.199,NA,NA,NA,NA,NA,bored,"bored, not bored","more bored, less bored",NA,NA,NA,NA,NA,NA,NA,NA,NA,NA,NA,NA,NA,NA,NA,NA,NA,NA,NA,NA,NA,NA,NA,NA,NA,NA,NA,NA,NA,NA,NA,NA,NA,NA,NA,NA,NA,NA,0,0,0,2,1,NA,NA,NA,NA,NA
SUPAMT74748,3LQ8PUHQFRR012HVKVS52VRT2DKIHW,28A0152B-8425-477C-98A9-BBA2B86FF8A3,2023-09-29_12h15.48.179,WP_VExplicitOC_LH,2022.2.5,Win32,3.529552947,-50.74074074,5.543,2.155,NA,NA,NA,NA,NA,happy,"unhappy, happy","less happy, more happy",NA,NA,NA,NA,NA,NA,NA,NA,NA,NA,NA,NA,NA,NA,NA,NA,NA,NA,NA,NA,NA,NA,NA,NA,NA,NA,NA,NA,NA,NA,NA,NA,NA,NA,NA,NA,NA,NA,0,1,1,0,1,NA,NA,NA,NA,NA
SUPAMT74748,3LQ8PUHQFRR012HVKVS52VRT2DKIHW,28A0152B-8425-477C-98A9-BBA2B86FF8A3,2023-09-29_12h15.48.179,WP_VExplicitOC_LH,2022.2.5,Win32,3.529552947,43.7037037,5.644,2.213,NA,NA,NA,NA,NA,frustrated,"frustrated, not frustrated","more frustrated, less frustrated",NA,NA,NA,NA,NA,NA,NA,NA,NA,NA,NA,NA,NA,NA,NA,NA,NA,NA,NA,NA,NA,NA,NA,NA,NA,NA,NA,NA,NA,NA,NA,NA,NA,NA,NA,NA,NA,NA,0,2,2,1,1,NA,NA,NA,NA,NA
SUPAMT74748,3LQ8PUHQFRR012HVKVS52VRT2DKIHW,28A0152B-8425-477C-98A9-BBA2B86FF8A3,2023-09-29_12h15.48.179,WP_VExplicitOC_LH,2022.2.5,Win32,3.529552947,NA,NA,NA,NA,NA,NA,NA,NA,NA,NA,NA,NA,NA,NA,NA,NA,NA,NA,NA,NA,NA,NA,NA,NA,NA,NA,NA,NA,NA,NA,NA,NA,NA,NA,NA,NA,NA,NA,NA,NA,NA,NA,NA,NA,NA,NA,NA,NA,NA,NA,NA,NA,NA,NA,9,0,9,0,1
SUPAMT74748,3LQ8PUHQFRR012HVKVS52VRT2DKIHW,28A0152B-8425-477C-98A9-BBA2B86FF8A3,2023-09-29_12h15.48.179,WP_VExplicitOC_LH,2022.2.5,Win32,3.529552947,-54.25925926,5.308,2.229,NA,NA,NA,NA,NA,frustrated,"frustrated, not frustrated","more frustrated, less frustrated",NA,NA,NA,NA,NA,NA,NA,NA,NA,NA,NA,NA,NA,NA,NA,NA,NA,NA,NA,NA,NA,NA,NA,NA,NA,NA,NA,NA,NA,NA,NA,NA,NA,NA,NA,NA,NA,NA,0,0,0,1,1,NA,NA,NA,NA,NA
SUPAMT74748,3LQ8PUHQFRR012HVKVS52VRT2DKIHW,28A0152B-8425-477C-98A9-BBA2B86FF8A3,2023-09-29_12h15.48.179,WP_VExplicitOC_LH,2022.2.5,Win32,3.529552947,-56.66666667,4.99,2.199,NA,NA,NA,NA,NA,bored,"bored, not bored","more bored, less bored",NA,NA,NA,NA,NA,NA,NA,NA,NA,NA,NA,NA,NA,NA,NA,NA,NA,NA,NA,NA,NA,NA,NA,NA,NA,NA,NA,NA,NA,NA,NA,NA,NA,NA,NA,NA,NA,NA,0,1,1,2,1,NA,NA,NA,NA,NA
SUPAMT74748,3LQ8PUHQFRR012HVKVS52VRT2DKIHW,28A0152B-8425-477C-98A9-BBA2B86FF8A3,2023-09-29_12h15.48.179,WP_VExplicitOC_LH,2022.2.5,Win32,3.529552947,-47.77777778,5.195,2.115,NA,NA,NA,NA,NA,happy,"unhappy, happy","less happy, more happy",NA,NA,NA,NA,NA,NA,NA,NA,NA,NA,NA,NA,NA,NA,NA,NA,NA,NA,NA,NA,NA,NA,NA,NA,NA,NA,NA,NA,NA,NA,NA,NA,NA,NA,NA,NA,NA,NA,0,2,2,0,1,NA,NA,NA,NA,NA
SUPAMT74748,3LQ8PUHQFRR012HVKVS52VRT2DKIHW,28A0152B-8425-477C-98A9-BBA2B86FF8A3,2023-09-29_12h15.48.179,WP_VExplicitOC_LH,2022.2.5,Win32,3.529552947,NA,NA,NA,NA,NA,NA,NA,NA,NA,NA,NA,NA,NA,NA,NA,NA,NA,NA,NA,NA,NA,NA,NA,NA,NA,NA,NA,NA,NA,NA,NA,NA,NA,NA,NA,NA,NA,NA,NA,NA,NA,NA,NA,NA,NA,NA,NA,NA,NA,NA,NA,NA,NA,NA,10,0,10,0,1
SUPAMT74748,3LQ8PUHQFRR012HVKVS52VRT2DKIHW,28A0152B-8425-477C-98A9-BBA2B86FF8A3,2023-09-29_12h15.48.179,WP_VExplicitOC_LH,2022.2.5,Win32,3.529552947,-60,4.875,2.101,NA,NA,NA,NA,NA,bored,"bored, not bored","more bored, less bored",NA,NA,NA,NA,NA,NA,NA,NA,NA,NA,NA,NA,NA,NA,NA,NA,NA,NA,NA,NA,NA,NA,NA,NA,NA,NA,NA,NA,NA,NA,NA,NA,NA,NA,NA,NA,NA,NA,0,0,0,2,1,NA,NA,NA,NA,NA
SUPAMT74748,3LQ8PUHQFRR012HVKVS52VRT2DKIHW,28A0152B-8425-477C-98A9-BBA2B86FF8A3,2023-09-29_12h15.48.179,WP_VExplicitOC_LH,2022.2.5,Win32,3.529552947,-66.11111111,5.288,2.224,NA,NA,NA,NA,NA,frustrated,"frustrated, not frustrated","more frustrated, less frustrated",NA,NA,NA,NA,NA,NA,NA,NA,NA,NA,NA,NA,NA,NA,NA,NA,NA,NA,NA,NA,NA,NA,NA,NA,NA,NA,NA,NA,NA,NA,NA,NA,NA,NA,NA,NA,NA,NA,0,1,1,1,1,NA,NA,NA,NA,NA
SUPAMT74748,3LQ8PUHQFRR012HVKVS52VRT2DKIHW,28A0152B-8425-477C-98A9-BBA2B86FF8A3,2023-09-29_12h15.48.179,WP_VExplicitOC_LH,2022.2.5,Win32,3.529552947,52.96296296,4.991,2.146,NA,NA,NA,NA,NA,happy,"unhappy, happy","less happy, more happy",NA,NA,NA,NA,NA,NA,NA,NA,NA,NA,NA,NA,NA,NA,NA,NA,NA,NA,NA,NA,NA,NA,NA,NA,NA,NA,NA,NA,NA,NA,NA,NA,NA,NA,NA,NA,NA,NA,0,2,2,0,1,NA,NA,NA,NA,NA
SUPAMT74748,3LQ8PUHQFRR012HVKVS52VRT2DKIHW,28A0152B-8425-477C-98A9-BBA2B86FF8A3,2023-09-29_12h15.48.179,WP_VExplicitOC_LH,2022.2.5,Win32,3.529552947,NA,NA,NA,NA,NA,NA,NA,NA,NA,NA,NA,NA,NA,NA,NA,NA,NA,NA,NA,NA,NA,NA,NA,NA,NA,NA,NA,NA,NA,NA,NA,NA,NA,NA,NA,NA,NA,NA,NA,NA,NA,NA,NA,NA,NA,NA,NA,NA,NA,NA,NA,NA,NA,NA,11,0,11,0,1
SUPAMT74748,3LQ8PUHQFRR012HVKVS52VRT2DKIHW,28A0152B-8425-477C-98A9-BBA2B86FF8A3,2023-09-29_12h15.48.179,WP_VExplicitOC_LH,2022.2.5,Win32,3.529552947,-62.22222222,4.904,2.137,NA,NA,NA,NA,NA,bored,"bored, not bored","more bored, less bored",NA,NA,NA,NA,NA,NA,NA,NA,NA,NA,NA,NA,NA,NA,NA,NA,NA,NA,NA,NA,NA,NA,NA,NA,NA,NA,NA,NA,NA,NA,NA,NA,NA,NA,NA,NA,NA,NA,0,0,0,2,1,NA,NA,NA,NA,NA
SUPAMT74748,3LQ8PUHQFRR012HVKVS52VRT2DKIHW,28A0152B-8425-477C-98A9-BBA2B86FF8A3,2023-09-29_12h15.48.179,WP_VExplicitOC_LH,2022.2.5,Win32,3.529552947,43.88888889,5.311,2.197,NA,NA,NA,NA,NA,frustrated,"frustrated, not frustrated","more frustrated, less frustrated",NA,NA,NA,NA,NA,NA,NA,NA,NA,NA,NA,NA,NA,NA,NA,NA,NA,NA,NA,NA,NA,NA,NA,NA,NA,NA,NA,NA,NA,NA,NA,NA,NA,NA,NA,NA,NA,NA,0,1,1,1,1,NA,NA,NA,NA,NA
SUPAMT74748,3LQ8PUHQFRR012HVKVS52VRT2DKIHW,28A0152B-8425-477C-98A9-BBA2B86FF8A3,2023-09-29_12h15.48.179,WP_VExplicitOC_LH,2022.2.5,Win32,3.529552947,-61.11111111,5.357,2.292,NA,NA,NA,NA,NA,happy,"unhappy, happy","less happy, more happy",NA,NA,NA,NA,NA,NA,NA,NA,NA,NA,NA,NA,NA,NA,NA,NA,NA,NA,NA,NA,NA,NA,NA,NA,NA,NA,NA,NA,NA,NA,NA,NA,NA,NA,NA,NA,NA,NA,0,2,2,0,1,NA,NA,NA,NA,NA
SUPAMT74748,3LQ8PUHQFRR012HVKVS52VRT2DKIHW,28A0152B-8425-477C-98A9-BBA2B86FF8A3,2023-09-29_12h15.48.179,WP_VExplicitOC_LH,2022.2.5,Win32,3.529552947,NA,NA,NA,NA,NA,NA,NA,NA,NA,NA,NA,NA,NA,NA,NA,NA,NA,NA,NA,NA,NA,NA,NA,NA,NA,NA,NA,NA,NA,NA,NA,NA,NA,NA,NA,NA,NA,NA,NA,NA,NA,NA,NA,NA,NA,NA,NA,NA,NA,NA,NA,NA,NA,NA,12,0,12,0,1
SUPAMT74748,3LQ8PUHQFRR012HVKVS52VRT2DKIHW,28A0152B-8425-477C-98A9-BBA2B86FF8A3,2023-09-29_12h15.48.179,WP_VExplicitOC_LH,2022.2.5,Win32,3.529552947,-51.2962963,4.76,2.259,NA,NA,NA,NA,NA,frustrated,"frustrated, not frustrated","more frustrated, less frustrated",NA,NA,NA,NA,NA,NA,NA,NA,NA,NA,NA,NA,NA,NA,NA,NA,NA,NA,NA,NA,NA,NA,NA,NA,NA,NA,NA,NA,NA,NA,NA,NA,NA,NA,NA,NA,NA,NA,0,0,0,1,1,NA,NA,NA,NA,NA
SUPAMT74748,3LQ8PUHQFRR012HVKVS52VRT2DKIHW,28A0152B-8425-477C-98A9-BBA2B86FF8A3,2023-09-29_12h15.48.179,WP_VExplicitOC_LH,2022.2.5,Win32,3.529552947,38.88888889,4.958,2.179,NA,NA,NA,NA,NA,happy,"unhappy, happy","less happy, more happy",NA,NA,NA,NA,NA,NA,NA,NA,NA,NA,NA,NA,NA,NA,NA,NA,NA,NA,NA,NA,NA,NA,NA,NA,NA,NA,NA,NA,NA,NA,NA,NA,NA,NA,NA,NA,NA,NA,0,1,1,0,1,NA,NA,NA,NA,NA
SUPAMT74748,3LQ8PUHQFRR012HVKVS52VRT2DKIHW,28A0152B-8425-477C-98A9-BBA2B86FF8A3,2023-09-29_12h15.48.179,WP_VExplicitOC_LH,2022.2.5,Win32,3.529552947,-58.14814815,4.921,2.146,NA,NA,NA,NA,NA,bored,"bored, not bored","more bored, less bored",NA,NA,NA,NA,NA,NA,NA,NA,NA,NA,NA,NA,NA,NA,NA,NA,NA,NA,NA,NA,NA,NA,NA,NA,NA,NA,NA,NA,NA,NA,NA,NA,NA,NA,NA,NA,NA,NA,0,2,2,2,1,NA,NA,NA,NA,NA
SUPAMT74748,3LQ8PUHQFRR012HVKVS52VRT2DKIHW,28A0152B-8425-477C-98A9-BBA2B86FF8A3,2023-09-29_12h15.48.179,WP_VExplicitOC_LH,2022.2.5,Win32,3.529552947,NA,NA,NA,NA,NA,NA,NA,NA,NA,NA,NA,NA,NA,NA,NA,NA,NA,NA,NA,NA,NA,NA,NA,NA,NA,NA,NA,NA,NA,NA,NA,NA,NA,NA,NA,NA,NA,NA,NA,NA,NA,NA,NA,NA,NA,NA,NA,NA,NA,NA,NA,NA,NA,NA,13,0,13,0,1
SUPAMT74748,3LQ8PUHQFRR012HVKVS52VRT2DKIHW,28A0152B-8425-477C-98A9-BBA2B86FF8A3,2023-09-29_12h15.48.179,WP_VExplicitOC_LH,2022.2.5,Win32,3.529552947,-47.40740741,5.026,2.195,NA,NA,NA,NA,NA,frustrated,"frustrated, not frustrated","more frustrated, less frustrated",NA,NA,NA,NA,NA,NA,NA,NA,NA,NA,NA,NA,NA,NA,NA,NA,NA,NA,NA,NA,NA,NA,NA,NA,NA,NA,NA,NA,NA,NA,NA,NA,NA,NA,NA,NA,NA,NA,0,0,0,1,1,NA,NA,NA,NA,NA
SUPAMT74748,3LQ8PUHQFRR012HVKVS52VRT2DKIHW,28A0152B-8425-477C-98A9-BBA2B86FF8A3,2023-09-29_12h15.48.179,WP_VExplicitOC_LH,2022.2.5,Win32,3.529552947,-55.37037037,4.952,2.183,NA,NA,NA,NA,NA,happy,"unhappy, happy","less happy, more happy",NA,NA,NA,NA,NA,NA,NA,NA,NA,NA,NA,NA,NA,NA,NA,NA,NA,NA,NA,NA,NA,NA,NA,NA,NA,NA,NA,NA,NA,NA,NA,NA,NA,NA,NA,NA,NA,NA,0,1,1,0,1,NA,NA,NA,NA,NA
SUPAMT74748,3LQ8PUHQFRR012HVKVS52VRT2DKIHW,28A0152B-8425-477C-98A9-BBA2B86FF8A3,2023-09-29_12h15.48.179,WP_VExplicitOC_LH,2022.2.5,Win32,3.529552947,-64.44444444,4.798,2.308,NA,NA,NA,NA,NA,bored,"bored, not bored","more bored, less bored",NA,NA,NA,NA,NA,NA,NA,NA,NA,NA,NA,NA,NA,NA,NA,NA,NA,NA,NA,NA,NA,NA,NA,NA,NA,NA,NA,NA,NA,NA,NA,NA,NA,NA,NA,NA,NA,NA,0,2,2,2,1,NA,NA,NA,NA,NA
SUPAMT74748,3LQ8PUHQFRR012HVKVS52VRT2DKIHW,28A0152B-8425-477C-98A9-BBA2B86FF8A3,2023-09-29_12h15.48.179,WP_VExplicitOC_LH,2022.2.5,Win32,3.529552947,NA,NA,NA,NA,NA,NA,NA,NA,NA,NA,NA,NA,NA,NA,NA,NA,NA,NA,NA,NA,NA,NA,NA,NA,NA,NA,NA,NA,NA,NA,NA,NA,NA,NA,NA,NA,NA,NA,NA,NA,NA,NA,NA,NA,NA,NA,NA,NA,NA,NA,NA,NA,NA,NA,14,0,14,0,1
SUPAMT74748,3LQ8PUHQFRR012HVKVS52VRT2DKIHW,28A0152B-8425-477C-98A9-BBA2B86FF8A3,2023-09-29_12h15.48.179,WP_VExplicitOC_LH,2022.2.5,Win32,3.529552947,NA,NA,NA,NA,NA,NA,NA,NA,NA,NA,NA,NA,NA,NA,NA,NA,NA,NA,NA,NA,NA,NA,NA,NA,NA,NA,NA,NA,NA,NA,NA,NA,NA,NA,NA,NA,NA,NA,NA,NA,NA,NA,NA,NA,NA,NA,NA,NA,NA,NA,NA,NA,NA,NA,NA,NA,NA,NA,NA
