participant,session,completion,date,expName,psychopyVersion,OS,frameRate,rating_all.response,rating_all.rt,rating_all.tStart,rndRat1.thisRepN,rndRat1.thisTrialN,rndRat1.thisN,rndRat1.thisIndex,rndRat1.ran,Emo,Labs,Labs2,rating_alt.response,rating_alt.rt,AltC.thisRepN,AltC.thisTrialN,AltC.thisN,AltC.thisIndex,AltC.ran,alt_choices,pic_choices,BottomAlt_Choice,rndRat2.thisRepN,rndRat2.thisTrialN,rndRat2.thisN,rndRat2.thisIndex,rndRat2.ran,rndRat3.thisRepN,rndRat3.thisTrialN,rndRat3.thisN,rndRat3.thisIndex,rndRat3.ran,trials_FC_L.thisRepN,trials_FC_L.thisTrialN,trials_FC_L.thisN,trials_FC_L.thisIndex,trials_FC_L.ran,rating_alt_2.response,rating_alt_2.rt,AltC2.thisRepN,AltC2.thisTrialN,AltC2.thisN,AltC2.thisIndex,AltC2.ran,TopAlt_Choice,rndRat4.thisRepN,rndRat4.thisTrialN,rndRat4.thisN,rndRat4.thisIndex,rndRat4.ran,rndRat5.thisRepN,rndRat5.thisTrialN,rndRat5.thisN,rndRat5.thisIndex,rndRat5.ran,trials_FC_H.thisRepN,trials_FC_H.thisTrialN,trials_FC_H.thisN,trials_FC_H.thisIndex,trials_FC_H.ran
SUPAMT92592,3WQ3B2KGEEFFAJIBCWX3OL79QNEB15,B58569C2-7A75-456A-8C62-3F280A8EBCDE,2023-09-27_14h42.04.165,WP_VExplicitOC_LH,2022.2.5,Win32,21.42382758,NA,NA,NA,NA,NA,NA,NA,NA,NA,NA,NA,NA,NA,NA,NA,NA,NA,NA,NA,NA,NA,NA,NA,NA,NA,NA,NA,NA,NA,NA,NA,NA,NA,NA,NA,NA,NA,NA,NA,NA,NA,NA,NA,NA,NA,NA,NA,NA,NA,NA,NA,NA,NA,NA,NA,NA,NA,NA,NA
SUPAMT92592,3WQ3B2KGEEFFAJIBCWX3OL79QNEB15,B58569C2-7A75-456A-8C62-3F280A8EBCDE,2023-09-27_14h42.04.165,WP_VExplicitOC_LH,2022.2.5,Win32,21.42382758,NA,NA,NA,NA,NA,NA,NA,NA,NA,NA,NA,NA,NA,NA,NA,NA,NA,NA,NA,NA,NA,NA,NA,NA,NA,NA,NA,NA,NA,NA,NA,NA,NA,NA,NA,NA,NA,NA,NA,NA,NA,NA,NA,NA,NA,NA,NA,NA,NA,NA,NA,NA,NA,NA,NA,NA,NA,NA,NA
SUPAMT92592,3WQ3B2KGEEFFAJIBCWX3OL79QNEB15,B58569C2-7A75-456A-8C62-3F280A8EBCDE,2023-09-27_14h42.04.165,WP_VExplicitOC_LH,2022.2.5,Win32,21.42382758,NA,NA,NA,NA,NA,NA,NA,NA,NA,NA,NA,NA,NA,NA,NA,NA,NA,NA,NA,NA,NA,NA,NA,NA,NA,NA,NA,NA,NA,NA,NA,NA,NA,NA,NA,NA,NA,NA,NA,NA,NA,NA,NA,NA,NA,NA,NA,NA,NA,NA,NA,NA,NA,NA,NA,NA,NA,NA,NA
SUPAMT92592,3WQ3B2KGEEFFAJIBCWX3OL79QNEB15,B58569C2-7A75-456A-8C62-3F280A8EBCDE,2023-09-27_14h42.04.165,WP_VExplicitOC_LH,2022.2.5,Win32,21.42382758,NA,NA,2.0264,0,0,0,1,1,frustrated,"frustrated, not frustrated","more frustrated, less frustrated",NA,NA,NA,NA,NA,NA,NA,NA,NA,NA,NA,NA,NA,NA,NA,NA,NA,NA,NA,NA,NA,NA,NA,NA,NA,NA,NA,NA,NA,NA,NA,NA,NA,NA,NA,NA,NA,NA,NA,NA,NA,NA,NA,NA,NA,NA,NA,NA
SUPAMT92592,3WQ3B2KGEEFFAJIBCWX3OL79QNEB15,B58569C2-7A75-456A-8C62-3F280A8EBCDE,2023-09-27_14h42.04.165,WP_VExplicitOC_LH,2022.2.5,Win32,21.42382758,42.70833333,4.7692,2.0441,0,1,1,2,1,bored,"bored, not bored","more bored, less bored",NA,NA,NA,NA,NA,NA,NA,NA,NA,NA,NA,NA,NA,NA,NA,NA,NA,NA,NA,NA,NA,NA,NA,NA,NA,NA,NA,NA,NA,NA,NA,NA,NA,NA,NA,NA,NA,NA,NA,NA,NA,NA,NA,NA,NA,NA,NA,NA
SUPAMT92592,3WQ3B2KGEEFFAJIBCWX3OL79QNEB15,B58569C2-7A75-456A-8C62-3F280A8EBCDE,2023-09-27_14h42.04.165,WP_VExplicitOC_LH,2022.2.5,Win32,21.42382758,NA,NA,2.0498,0,2,2,0,1,happy,"unhappy, happy","less happy, more happy",NA,NA,NA,NA,NA,NA,NA,NA,NA,NA,NA,NA,NA,NA,NA,NA,NA,NA,NA,NA,NA,NA,NA,NA,NA,NA,NA,NA,NA,NA,NA,NA,NA,NA,NA,NA,NA,NA,NA,NA,NA,NA,NA,NA,NA,NA,NA,NA
SUPAMT92592,3WQ3B2KGEEFFAJIBCWX3OL79QNEB15,B58569C2-7A75-456A-8C62-3F280A8EBCDE,2023-09-27_14h42.04.165,WP_VExplicitOC_LH,2022.2.5,Win32,21.42382758,NA,NA,NA,NA,NA,NA,NA,NA,NA,NA,NA,NA,NA,NA,NA,NA,NA,NA,NA,NA,NA,NA,NA,NA,NA,NA,NA,NA,NA,NA,NA,NA,NA,NA,NA,NA,NA,NA,NA,NA,NA,NA,NA,NA,NA,NA,NA,NA,NA,NA,NA,NA,NA,NA,NA,NA,NA,NA,NA
SUPAMT92592,3WQ3B2KGEEFFAJIBCWX3OL79QNEB15,B58569C2-7A75-456A-8C62-3F280A8EBCDE,2023-09-27_14h42.04.165,WP_VExplicitOC_LH,2022.2.5,Win32,21.42382758,NA,NA,NA,NA,NA,NA,NA,NA,NA,NA,NA,NA,NA,NA,NA,NA,NA,NA,NA,NA,NA,NA,NA,NA,NA,NA,NA,NA,NA,NA,NA,NA,NA,NA,NA,NA,NA,NA,NA,NA,NA,NA,NA,NA,NA,NA,NA,NA,NA,NA,NA,NA,NA,NA,NA,NA,NA,NA,NA
SUPAMT92592,3WQ3B2KGEEFFAJIBCWX3OL79QNEB15,B58569C2-7A75-456A-8C62-3F280A8EBCDE,2023-09-27_14h42.04.165,WP_VExplicitOC_LH,2022.2.5,Win32,21.42382758,NA,NA,NA,NA,NA,NA,NA,NA,NA,NA,NA,NA,NA,NA,NA,NA,NA,NA,NA,NA,NA,NA,NA,NA,NA,NA,NA,NA,NA,NA,NA,NA,NA,NA,NA,NA,NA,NA,NA,NA,NA,NA,NA,NA,NA,NA,NA,NA,NA,NA,NA,NA,NA,NA,NA,NA,NA,NA,NA
SUPAMT92592,3WQ3B2KGEEFFAJIBCWX3OL79QNEB15,B58569C2-7A75-456A-8C62-3F280A8EBCDE,2023-09-27_14h42.04.165,WP_VExplicitOC_LH,2022.2.5,Win32,21.42382758,NA,NA,NA,NA,NA,NA,NA,NA,NA,NA,NA,NA,NA,NA,NA,NA,NA,NA,NA,NA,NA,NA,NA,NA,NA,NA,NA,NA,NA,NA,NA,NA,NA,NA,NA,NA,NA,NA,NA,NA,NA,NA,NA,NA,NA,NA,NA,NA,NA,NA,NA,NA,NA,NA,NA,NA,NA,NA,NA
SUPAMT92592,3WQ3B2KGEEFFAJIBCWX3OL79QNEB15,B58569C2-7A75-456A-8C62-3F280A8EBCDE,2023-09-27_14h42.04.165,WP_VExplicitOC_LH,2022.2.5,Win32,21.42382758,NA,NA,NA,NA,NA,NA,NA,NA,NA,NA,NA,NA,NA,0,0,0,0,1,rest (looking at a fixed cross),001.png,NA,NA,NA,NA,NA,NA,NA,NA,NA,NA,NA,NA,NA,NA,NA,NA,NA,NA,NA,NA,NA,NA,NA,NA,NA,NA,NA,NA,NA,NA,NA,NA,NA,NA,NA,NA,NA,NA,NA
SUPAMT92592,3WQ3B2KGEEFFAJIBCWX3OL79QNEB15,B58569C2-7A75-456A-8C62-3F280A8EBCDE,2023-09-27_14h42.04.165,WP_VExplicitOC_LH,2022.2.5,Win32,21.42382758,NA,NA,NA,NA,NA,NA,NA,NA,NA,NA,NA,-40.88541667,5.9857,0,1,1,1,1,stand up,002.png,NA,NA,NA,NA,NA,NA,NA,NA,NA,NA,NA,NA,NA,NA,NA,NA,NA,NA,NA,NA,NA,NA,NA,NA,NA,NA,NA,NA,NA,NA,NA,NA,NA,NA,NA,NA,NA,NA,NA
SUPAMT92592,3WQ3B2KGEEFFAJIBCWX3OL79QNEB15,B58569C2-7A75-456A-8C62-3F280A8EBCDE,2023-09-27_14h42.04.165,WP_VExplicitOC_LH,2022.2.5,Win32,21.42382758,NA,NA,NA,NA,NA,NA,NA,NA,NA,NA,NA,56.25,3.4941,0,2,2,2,1,stretch,003.png,NA,NA,NA,NA,NA,NA,NA,NA,NA,NA,NA,NA,NA,NA,NA,NA,NA,NA,NA,NA,NA,NA,NA,NA,NA,NA,NA,NA,NA,NA,NA,NA,NA,NA,NA,NA,NA,NA,NA
SUPAMT92592,3WQ3B2KGEEFFAJIBCWX3OL79QNEB15,B58569C2-7A75-456A-8C62-3F280A8EBCDE,2023-09-27_14h42.04.165,WP_VExplicitOC_LH,2022.2.5,Win32,21.42382758,NA,NA,NA,NA,NA,NA,NA,NA,NA,NA,NA,50.78125,2.9334,0,3,3,3,1,make a drink,004.png,NA,NA,NA,NA,NA,NA,NA,NA,NA,NA,NA,NA,NA,NA,NA,NA,NA,NA,NA,NA,NA,NA,NA,NA,NA,NA,NA,NA,NA,NA,NA,NA,NA,NA,NA,NA,NA,NA,NA
SUPAMT92592,3WQ3B2KGEEFFAJIBCWX3OL79QNEB15,B58569C2-7A75-456A-8C62-3F280A8EBCDE,2023-09-27_14h42.04.165,WP_VExplicitOC_LH,2022.2.5,Win32,21.42382758,NA,NA,NA,NA,NA,NA,NA,NA,NA,NA,NA,-43.75,2.9494,0,4,4,4,1,scroll social media,005.png,NA,NA,NA,NA,NA,NA,NA,NA,NA,NA,NA,NA,NA,NA,NA,NA,NA,NA,NA,NA,NA,NA,NA,NA,NA,NA,NA,NA,NA,NA,NA,NA,NA,NA,NA,NA,NA,NA,NA
SUPAMT92592,3WQ3B2KGEEFFAJIBCWX3OL79QNEB15,B58569C2-7A75-456A-8C62-3F280A8EBCDE,2023-09-27_14h42.04.165,WP_VExplicitOC_LH,2022.2.5,Win32,21.42382758,NA,NA,NA,NA,NA,NA,NA,NA,NA,NA,NA,-45.57291667,4.8524,0,5,5,5,1,listen to music,006.png,NA,NA,NA,NA,NA,NA,NA,NA,NA,NA,NA,NA,NA,NA,NA,NA,NA,NA,NA,NA,NA,NA,NA,NA,NA,NA,NA,NA,NA,NA,NA,NA,NA,NA,NA,NA,NA,NA,NA
SUPAMT92592,3WQ3B2KGEEFFAJIBCWX3OL79QNEB15,B58569C2-7A75-456A-8C62-3F280A8EBCDE,2023-09-27_14h42.04.165,WP_VExplicitOC_LH,2022.2.5,Win32,21.42382758,NA,NA,NA,NA,NA,NA,NA,NA,NA,NA,NA,-38.28125,2.982,0,6,6,6,1,daydream,007.png,NA,NA,NA,NA,NA,NA,NA,NA,NA,NA,NA,NA,NA,NA,NA,NA,NA,NA,NA,NA,NA,NA,NA,NA,NA,NA,NA,NA,NA,NA,NA,NA,NA,NA,NA,NA,NA,NA,NA
SUPAMT92592,3WQ3B2KGEEFFAJIBCWX3OL79QNEB15,B58569C2-7A75-456A-8C62-3F280A8EBCDE,2023-09-27_14h42.04.165,WP_VExplicitOC_LH,2022.2.5,Win32,21.42382758,NA,NA,NA,NA,NA,NA,NA,NA,NA,NA,NA,-55.72916667,2.6789,0,7,7,7,1,watch a short animation,008.png,NA,NA,NA,NA,NA,NA,NA,NA,NA,NA,NA,NA,NA,NA,NA,NA,NA,NA,NA,NA,NA,NA,NA,NA,NA,NA,NA,NA,NA,NA,NA,NA,NA,NA,NA,NA,NA,NA,NA
SUPAMT92592,3WQ3B2KGEEFFAJIBCWX3OL79QNEB15,B58569C2-7A75-456A-8C62-3F280A8EBCDE,2023-09-27_14h42.04.165,WP_VExplicitOC_LH,2022.2.5,Win32,21.42382758,NA,NA,NA,NA,NA,NA,NA,NA,NA,NA,NA,-43.48958333,2.449,0,8,8,8,1,read a novel,009.png,NA,NA,NA,NA,NA,NA,NA,NA,NA,NA,NA,NA,NA,NA,NA,NA,NA,NA,NA,NA,NA,NA,NA,NA,NA,NA,NA,NA,NA,NA,NA,NA,NA,NA,NA,NA,NA,NA,NA
SUPAMT92592,3WQ3B2KGEEFFAJIBCWX3OL79QNEB15,B58569C2-7A75-456A-8C62-3F280A8EBCDE,2023-09-27_14h42.04.165,WP_VExplicitOC_LH,2022.2.5,Win32,21.42382758,NA,NA,NA,NA,NA,NA,NA,NA,NA,NA,NA,-37.76041667,2.9486,0,9,9,9,1,read the news,010.png,NA,NA,NA,NA,NA,NA,NA,NA,NA,NA,NA,NA,NA,NA,NA,NA,NA,NA,NA,NA,NA,NA,NA,NA,NA,NA,NA,NA,NA,NA,NA,NA,NA,NA,NA,NA,NA,NA,NA
SUPAMT92592,3WQ3B2KGEEFFAJIBCWX3OL79QNEB15,B58569C2-7A75-456A-8C62-3F280A8EBCDE,2023-09-27_14h42.04.165,WP_VExplicitOC_LH,2022.2.5,Win32,21.42382758,NA,NA,NA,NA,NA,NA,NA,NA,NA,NA,NA,NA,NA,NA,NA,NA,NA,NA,NA,NA,NA,NA,NA,NA,NA,NA,NA,NA,NA,NA,NA,NA,NA,NA,NA,NA,NA,NA,NA,NA,NA,NA,NA,NA,NA,NA,NA,NA,NA,NA,NA,NA,NA,NA,NA,NA,NA,NA,NA
SUPAMT92592,3WQ3B2KGEEFFAJIBCWX3OL79QNEB15,B58569C2-7A75-456A-8C62-3F280A8EBCDE,2023-09-27_14h42.04.165,WP_VExplicitOC_LH,2022.2.5,Win32,21.42382758,NA,NA,NA,NA,NA,NA,NA,NA,NA,NA,NA,NA,NA,NA,NA,NA,NA,NA,NA,NA,daydream,NA,NA,NA,NA,NA,NA,NA,NA,NA,NA,NA,NA,NA,NA,NA,NA,NA,NA,NA,NA,NA,NA,NA,NA,NA,NA,NA,NA,NA,NA,NA,NA,NA,NA,NA,NA,NA,NA
SUPAMT92592,3WQ3B2KGEEFFAJIBCWX3OL79QNEB15,B58569C2-7A75-456A-8C62-3F280A8EBCDE,2023-09-27_14h42.04.165,WP_VExplicitOC_LH,2022.2.5,Win32,21.42382758,36.97916667,5.992,2.0231,NA,NA,NA,NA,NA,frustrated,"frustrated, not frustrated","more frustrated, less frustrated",NA,NA,NA,NA,NA,NA,NA,NA,NA,NA,0,0,0,1,1,NA,NA,NA,NA,NA,NA,NA,NA,NA,NA,NA,NA,NA,NA,NA,NA,NA,NA,NA,NA,NA,NA,NA,NA,NA,NA,NA,NA,NA,NA,NA,NA,NA
SUPAMT92592,3WQ3B2KGEEFFAJIBCWX3OL79QNEB15,B58569C2-7A75-456A-8C62-3F280A8EBCDE,2023-09-27_14h42.04.165,WP_VExplicitOC_LH,2022.2.5,Win32,21.42382758,NA,NA,2.0385,NA,NA,NA,NA,NA,happy,"unhappy, happy","less happy, more happy",NA,NA,NA,NA,NA,NA,NA,NA,NA,NA,0,1,1,0,1,NA,NA,NA,NA,NA,NA,NA,NA,NA,NA,NA,NA,NA,NA,NA,NA,NA,NA,NA,NA,NA,NA,NA,NA,NA,NA,NA,NA,NA,NA,NA,NA,NA
SUPAMT92592,3WQ3B2KGEEFFAJIBCWX3OL79QNEB15,B58569C2-7A75-456A-8C62-3F280A8EBCDE,2023-09-27_14h42.04.165,WP_VExplicitOC_LH,2022.2.5,Win32,21.42382758,34.89583333,5.9384,2.0339,NA,NA,NA,NA,NA,bored,"bored, not bored","more bored, less bored",NA,NA,NA,NA,NA,NA,NA,NA,NA,NA,0,2,2,2,1,NA,NA,NA,NA,NA,NA,NA,NA,NA,NA,NA,NA,NA,NA,NA,NA,NA,NA,NA,NA,NA,NA,NA,NA,NA,NA,NA,NA,NA,NA,NA,NA,NA
SUPAMT92592,3WQ3B2KGEEFFAJIBCWX3OL79QNEB15,B58569C2-7A75-456A-8C62-3F280A8EBCDE,2023-09-27_14h42.04.165,WP_VExplicitOC_LH,2022.2.5,Win32,21.42382758,NA,NA,NA,NA,NA,NA,NA,NA,NA,NA,NA,NA,NA,NA,NA,NA,NA,NA,NA,NA,NA,NA,NA,NA,NA,NA,NA,NA,NA,NA,NA,NA,NA,NA,NA,NA,NA,NA,NA,NA,NA,NA,NA,NA,NA,NA,NA,NA,NA,NA,NA,NA,NA,NA,NA,NA,NA,NA,NA
SUPAMT92592,3WQ3B2KGEEFFAJIBCWX3OL79QNEB15,B58569C2-7A75-456A-8C62-3F280A8EBCDE,2023-09-27_14h42.04.165,WP_VExplicitOC_LH,2022.2.5,Win32,21.42382758,NA,NA,NA,NA,NA,NA,NA,NA,NA,NA,NA,NA,NA,NA,NA,NA,NA,NA,NA,NA,NA,NA,NA,NA,NA,NA,NA,NA,NA,NA,NA,NA,NA,NA,NA,NA,NA,NA,NA,NA,NA,NA,NA,NA,NA,NA,NA,NA,NA,NA,NA,NA,NA,NA,NA,NA,NA,NA,NA
SUPAMT92592,3WQ3B2KGEEFFAJIBCWX3OL79QNEB15,B58569C2-7A75-456A-8C62-3F280A8EBCDE,2023-09-27_14h42.04.165,WP_VExplicitOC_LH,2022.2.5,Win32,21.42382758,-44.53125,5.3701,2.0565,NA,NA,NA,NA,NA,frustrated,"frustrated, not frustrated","more frustrated, less frustrated",NA,NA,NA,NA,NA,NA,NA,NA,NA,NA,NA,NA,NA,NA,NA,0,0,0,1,1,NA,NA,NA,NA,NA,NA,NA,NA,NA,NA,NA,NA,NA,NA,NA,NA,NA,NA,NA,NA,NA,NA,NA,NA,NA,NA,NA,NA
SUPAMT92592,3WQ3B2KGEEFFAJIBCWX3OL79QNEB15,B58569C2-7A75-456A-8C62-3F280A8EBCDE,2023-09-27_14h42.04.165,WP_VExplicitOC_LH,2022.2.5,Win32,21.42382758,-16.66666667,6.4336,2.0178,NA,NA,NA,NA,NA,bored,"bored, not bored","more bored, less bored",NA,NA,NA,NA,NA,NA,NA,NA,NA,NA,NA,NA,NA,NA,NA,0,1,1,2,1,NA,NA,NA,NA,NA,NA,NA,NA,NA,NA,NA,NA,NA,NA,NA,NA,NA,NA,NA,NA,NA,NA,NA,NA,NA,NA,NA,NA
SUPAMT92592,3WQ3B2KGEEFFAJIBCWX3OL79QNEB15,B58569C2-7A75-456A-8C62-3F280A8EBCDE,2023-09-27_14h42.04.165,WP_VExplicitOC_LH,2022.2.5,Win32,21.42382758,22.39583333,5.568,2.0373,NA,NA,NA,NA,NA,happy,"unhappy, happy","less happy, more happy",NA,NA,NA,NA,NA,NA,NA,NA,NA,NA,NA,NA,NA,NA,NA,0,2,2,0,1,NA,NA,NA,NA,NA,NA,NA,NA,NA,NA,NA,NA,NA,NA,NA,NA,NA,NA,NA,NA,NA,NA,NA,NA,NA,NA,NA,NA
SUPAMT92592,3WQ3B2KGEEFFAJIBCWX3OL79QNEB15,B58569C2-7A75-456A-8C62-3F280A8EBCDE,2023-09-27_14h42.04.165,WP_VExplicitOC_LH,2022.2.5,Win32,21.42382758,NA,NA,NA,NA,NA,NA,NA,NA,NA,NA,NA,NA,NA,NA,NA,NA,NA,NA,NA,NA,NA,NA,NA,NA,NA,NA,NA,NA,NA,NA,NA,0,0,0,0,1,NA,NA,NA,NA,NA,NA,NA,NA,NA,NA,NA,NA,NA,NA,NA,NA,NA,NA,NA,NA,NA,NA,NA
SUPAMT92592,3WQ3B2KGEEFFAJIBCWX3OL79QNEB15,B58569C2-7A75-456A-8C62-3F280A8EBCDE,2023-09-27_14h42.04.165,WP_VExplicitOC_LH,2022.2.5,Win32,21.42382758,27.60416667,6.8167,2.0435,NA,NA,NA,NA,NA,bored,"bored, not bored","more bored, less bored",NA,NA,NA,NA,NA,NA,NA,NA,NA,NA,NA,NA,NA,NA,NA,0,0,0,2,1,NA,NA,NA,NA,NA,NA,NA,NA,NA,NA,NA,NA,NA,NA,NA,NA,NA,NA,NA,NA,NA,NA,NA,NA,NA,NA,NA,NA
SUPAMT92592,3WQ3B2KGEEFFAJIBCWX3OL79QNEB15,B58569C2-7A75-456A-8C62-3F280A8EBCDE,2023-09-27_14h42.04.165,WP_VExplicitOC_LH,2022.2.5,Win32,21.42382758,NA,NA,2.0532,NA,NA,NA,NA,NA,frustrated,"frustrated, not frustrated","more frustrated, less frustrated",NA,NA,NA,NA,NA,NA,NA,NA,NA,NA,NA,NA,NA,NA,NA,0,1,1,1,1,NA,NA,NA,NA,NA,NA,NA,NA,NA,NA,NA,NA,NA,NA,NA,NA,NA,NA,NA,NA,NA,NA,NA,NA,NA,NA,NA,NA
SUPAMT92592,3WQ3B2KGEEFFAJIBCWX3OL79QNEB15,B58569C2-7A75-456A-8C62-3F280A8EBCDE,2023-09-27_14h42.04.165,WP_VExplicitOC_LH,2022.2.5,Win32,21.42382758,32.55208333,4.6965,2.0435,NA,NA,NA,NA,NA,happy,"unhappy, happy","less happy, more happy",NA,NA,NA,NA,NA,NA,NA,NA,NA,NA,NA,NA,NA,NA,NA,0,2,2,0,1,NA,NA,NA,NA,NA,NA,NA,NA,NA,NA,NA,NA,NA,NA,NA,NA,NA,NA,NA,NA,NA,NA,NA,NA,NA,NA,NA,NA
SUPAMT92592,3WQ3B2KGEEFFAJIBCWX3OL79QNEB15,B58569C2-7A75-456A-8C62-3F280A8EBCDE,2023-09-27_14h42.04.165,WP_VExplicitOC_LH,2022.2.5,Win32,21.42382758,NA,NA,NA,NA,NA,NA,NA,NA,NA,NA,NA,NA,NA,NA,NA,NA,NA,NA,NA,NA,NA,NA,NA,NA,NA,NA,NA,NA,NA,NA,NA,1,0,1,0,1,NA,NA,NA,NA,NA,NA,NA,NA,NA,NA,NA,NA,NA,NA,NA,NA,NA,NA,NA,NA,NA,NA,NA
SUPAMT92592,3WQ3B2KGEEFFAJIBCWX3OL79QNEB15,B58569C2-7A75-456A-8C62-3F280A8EBCDE,2023-09-27_14h42.04.165,WP_VExplicitOC_LH,2022.2.5,Win32,21.42382758,-27.08333333,4.3628,2.0482,NA,NA,NA,NA,NA,frustrated,"frustrated, not frustrated","more frustrated, less frustrated",NA,NA,NA,NA,NA,NA,NA,NA,NA,NA,NA,NA,NA,NA,NA,0,0,0,1,1,NA,NA,NA,NA,NA,NA,NA,NA,NA,NA,NA,NA,NA,NA,NA,NA,NA,NA,NA,NA,NA,NA,NA,NA,NA,NA,NA,NA
SUPAMT92592,3WQ3B2KGEEFFAJIBCWX3OL79QNEB15,B58569C2-7A75-456A-8C62-3F280A8EBCDE,2023-09-27_14h42.04.165,WP_VExplicitOC_LH,2022.2.5,Win32,21.42382758,-32.8125,5.449,2.0152,NA,NA,NA,NA,NA,bored,"bored, not bored","more bored, less bored",NA,NA,NA,NA,NA,NA,NA,NA,NA,NA,NA,NA,NA,NA,NA,0,1,1,2,1,NA,NA,NA,NA,NA,NA,NA,NA,NA,NA,NA,NA,NA,NA,NA,NA,NA,NA,NA,NA,NA,NA,NA,NA,NA,NA,NA,NA
SUPAMT92592,3WQ3B2KGEEFFAJIBCWX3OL79QNEB15,B58569C2-7A75-456A-8C62-3F280A8EBCDE,2023-09-27_14h42.04.165,WP_VExplicitOC_LH,2022.2.5,Win32,21.42382758,-26.82291667,6.187,2.0395,NA,NA,NA,NA,NA,happy,"unhappy, happy","less happy, more happy",NA,NA,NA,NA,NA,NA,NA,NA,NA,NA,NA,NA,NA,NA,NA,0,2,2,0,1,NA,NA,NA,NA,NA,NA,NA,NA,NA,NA,NA,NA,NA,NA,NA,NA,NA,NA,NA,NA,NA,NA,NA,NA,NA,NA,NA,NA
SUPAMT92592,3WQ3B2KGEEFFAJIBCWX3OL79QNEB15,B58569C2-7A75-456A-8C62-3F280A8EBCDE,2023-09-27_14h42.04.165,WP_VExplicitOC_LH,2022.2.5,Win32,21.42382758,NA,NA,NA,NA,NA,NA,NA,NA,NA,NA,NA,NA,NA,NA,NA,NA,NA,NA,NA,NA,NA,NA,NA,NA,NA,NA,NA,NA,NA,NA,NA,2,0,2,0,1,NA,NA,NA,NA,NA,NA,NA,NA,NA,NA,NA,NA,NA,NA,NA,NA,NA,NA,NA,NA,NA,NA,NA
SUPAMT92592,3WQ3B2KGEEFFAJIBCWX3OL79QNEB15,B58569C2-7A75-456A-8C62-3F280A8EBCDE,2023-09-27_14h42.04.165,WP_VExplicitOC_LH,2022.2.5,Win32,21.42382758,-28.38541667,5.3918,2.0161,NA,NA,NA,NA,NA,bored,"bored, not bored","more bored, less bored",NA,NA,NA,NA,NA,NA,NA,NA,NA,NA,NA,NA,NA,NA,NA,0,0,0,2,1,NA,NA,NA,NA,NA,NA,NA,NA,NA,NA,NA,NA,NA,NA,NA,NA,NA,NA,NA,NA,NA,NA,NA,NA,NA,NA,NA,NA
SUPAMT92592,3WQ3B2KGEEFFAJIBCWX3OL79QNEB15,B58569C2-7A75-456A-8C62-3F280A8EBCDE,2023-09-27_14h42.04.165,WP_VExplicitOC_LH,2022.2.5,Win32,21.42382758,-20.83333333,4.8986,2.0038,NA,NA,NA,NA,NA,happy,"unhappy, happy","less happy, more happy",NA,NA,NA,NA,NA,NA,NA,NA,NA,NA,NA,NA,NA,NA,NA,0,1,1,0,1,NA,NA,NA,NA,NA,NA,NA,NA,NA,NA,NA,NA,NA,NA,NA,NA,NA,NA,NA,NA,NA,NA,NA,NA,NA,NA,NA,NA
SUPAMT92592,3WQ3B2KGEEFFAJIBCWX3OL79QNEB15,B58569C2-7A75-456A-8C62-3F280A8EBCDE,2023-09-27_14h42.04.165,WP_VExplicitOC_LH,2022.2.5,Win32,21.42382758,-31.25,4.8066,2.0605,NA,NA,NA,NA,NA,frustrated,"frustrated, not frustrated","more frustrated, less frustrated",NA,NA,NA,NA,NA,NA,NA,NA,NA,NA,NA,NA,NA,NA,NA,0,2,2,1,1,NA,NA,NA,NA,NA,NA,NA,NA,NA,NA,NA,NA,NA,NA,NA,NA,NA,NA,NA,NA,NA,NA,NA,NA,NA,NA,NA,NA
SUPAMT92592,3WQ3B2KGEEFFAJIBCWX3OL79QNEB15,B58569C2-7A75-456A-8C62-3F280A8EBCDE,2023-09-27_14h42.04.165,WP_VExplicitOC_LH,2022.2.5,Win32,21.42382758,NA,NA,NA,NA,NA,NA,NA,NA,NA,NA,NA,NA,NA,NA,NA,NA,NA,NA,NA,NA,NA,NA,NA,NA,NA,NA,NA,NA,NA,NA,NA,3,0,3,0,1,NA,NA,NA,NA,NA,NA,NA,NA,NA,NA,NA,NA,NA,NA,NA,NA,NA,NA,NA,NA,NA,NA,NA
SUPAMT92592,3WQ3B2KGEEFFAJIBCWX3OL79QNEB15,B58569C2-7A75-456A-8C62-3F280A8EBCDE,2023-09-27_14h42.04.165,WP_VExplicitOC_LH,2022.2.5,Win32,21.42382758,-22.65625,5.7007,2.0342,NA,NA,NA,NA,NA,happy,"unhappy, happy","less happy, more happy",NA,NA,NA,NA,NA,NA,NA,NA,NA,NA,NA,NA,NA,NA,NA,0,0,0,0,1,NA,NA,NA,NA,NA,NA,NA,NA,NA,NA,NA,NA,NA,NA,NA,NA,NA,NA,NA,NA,NA,NA,NA,NA,NA,NA,NA,NA
SUPAMT92592,3WQ3B2KGEEFFAJIBCWX3OL79QNEB15,B58569C2-7A75-456A-8C62-3F280A8EBCDE,2023-09-27_14h42.04.165,WP_VExplicitOC_LH,2022.2.5,Win32,21.42382758,-29.16666667,5.4075,2.0507,NA,NA,NA,NA,NA,frustrated,"frustrated, not frustrated","more frustrated, less frustrated",NA,NA,NA,NA,NA,NA,NA,NA,NA,NA,NA,NA,NA,NA,NA,0,1,1,1,1,NA,NA,NA,NA,NA,NA,NA,NA,NA,NA,NA,NA,NA,NA,NA,NA,NA,NA,NA,NA,NA,NA,NA,NA,NA,NA,NA,NA
SUPAMT92592,3WQ3B2KGEEFFAJIBCWX3OL79QNEB15,B58569C2-7A75-456A-8C62-3F280A8EBCDE,2023-09-27_14h42.04.165,WP_VExplicitOC_LH,2022.2.5,Win32,21.42382758,-29.42708333,5.826,2.0283,NA,NA,NA,NA,NA,bored,"bored, not bored","more bored, less bored",NA,NA,NA,NA,NA,NA,NA,NA,NA,NA,NA,NA,NA,NA,NA,0,2,2,2,1,NA,NA,NA,NA,NA,NA,NA,NA,NA,NA,NA,NA,NA,NA,NA,NA,NA,NA,NA,NA,NA,NA,NA,NA,NA,NA,NA,NA
SUPAMT92592,3WQ3B2KGEEFFAJIBCWX3OL79QNEB15,B58569C2-7A75-456A-8C62-3F280A8EBCDE,2023-09-27_14h42.04.165,WP_VExplicitOC_LH,2022.2.5,Win32,21.42382758,NA,NA,NA,NA,NA,NA,NA,NA,NA,NA,NA,NA,NA,NA,NA,NA,NA,NA,NA,NA,NA,NA,NA,NA,NA,NA,NA,NA,NA,NA,NA,4,0,4,0,1,NA,NA,NA,NA,NA,NA,NA,NA,NA,NA,NA,NA,NA,NA,NA,NA,NA,NA,NA,NA,NA,NA,NA
SUPAMT92592,3WQ3B2KGEEFFAJIBCWX3OL79QNEB15,B58569C2-7A75-456A-8C62-3F280A8EBCDE,2023-09-27_14h42.04.165,WP_VExplicitOC_LH,2022.2.5,Win32,21.42382758,-49.21875,6.5809,2.0603,NA,NA,NA,NA,NA,frustrated,"frustrated, not frustrated","more frustrated, less frustrated",NA,NA,NA,NA,NA,NA,NA,NA,NA,NA,NA,NA,NA,NA,NA,0,0,0,1,1,NA,NA,NA,NA,NA,NA,NA,NA,NA,NA,NA,NA,NA,NA,NA,NA,NA,NA,NA,NA,NA,NA,NA,NA,NA,NA,NA,NA
SUPAMT92592,3WQ3B2KGEEFFAJIBCWX3OL79QNEB15,B58569C2-7A75-456A-8C62-3F280A8EBCDE,2023-09-27_14h42.04.165,WP_VExplicitOC_LH,2022.2.5,Win32,21.42382758,-38.02083333,7.5116,2.0217,NA,NA,NA,NA,NA,happy,"unhappy, happy","less happy, more happy",NA,NA,NA,NA,NA,NA,NA,NA,NA,NA,NA,NA,NA,NA,NA,0,1,1,0,1,NA,NA,NA,NA,NA,NA,NA,NA,NA,NA,NA,NA,NA,NA,NA,NA,NA,NA,NA,NA,NA,NA,NA,NA,NA,NA,NA,NA
SUPAMT92592,3WQ3B2KGEEFFAJIBCWX3OL79QNEB15,B58569C2-7A75-456A-8C62-3F280A8EBCDE,2023-09-27_14h42.04.165,WP_VExplicitOC_LH,2022.2.5,Win32,21.42382758,-31.77083333,6.2429,2.0016,NA,NA,NA,NA,NA,bored,"bored, not bored","more bored, less bored",NA,NA,NA,NA,NA,NA,NA,NA,NA,NA,NA,NA,NA,NA,NA,0,2,2,2,1,NA,NA,NA,NA,NA,NA,NA,NA,NA,NA,NA,NA,NA,NA,NA,NA,NA,NA,NA,NA,NA,NA,NA,NA,NA,NA,NA,NA
SUPAMT92592,3WQ3B2KGEEFFAJIBCWX3OL79QNEB15,B58569C2-7A75-456A-8C62-3F280A8EBCDE,2023-09-27_14h42.04.165,WP_VExplicitOC_LH,2022.2.5,Win32,21.42382758,NA,NA,NA,NA,NA,NA,NA,NA,NA,NA,NA,NA,NA,NA,NA,NA,NA,NA,NA,NA,NA,NA,NA,NA,NA,NA,NA,NA,NA,NA,NA,5,0,5,0,1,NA,NA,NA,NA,NA,NA,NA,NA,NA,NA,NA,NA,NA,NA,NA,NA,NA,NA,NA,NA,NA,NA,NA
SUPAMT92592,3WQ3B2KGEEFFAJIBCWX3OL79QNEB15,B58569C2-7A75-456A-8C62-3F280A8EBCDE,2023-09-27_14h42.04.165,WP_VExplicitOC_LH,2022.2.5,Win32,21.42382758,-33.59375,5.085,2.0013,NA,NA,NA,NA,NA,frustrated,"frustrated, not frustrated","more frustrated, less frustrated",NA,NA,NA,NA,NA,NA,NA,NA,NA,NA,NA,NA,NA,NA,NA,0,0,0,1,1,NA,NA,NA,NA,NA,NA,NA,NA,NA,NA,NA,NA,NA,NA,NA,NA,NA,NA,NA,NA,NA,NA,NA,NA,NA,NA,NA,NA
SUPAMT92592,3WQ3B2KGEEFFAJIBCWX3OL79QNEB15,B58569C2-7A75-456A-8C62-3F280A8EBCDE,2023-09-27_14h42.04.165,WP_VExplicitOC_LH,2022.2.5,Win32,21.42382758,-21.61458333,4.5517,2.0162,NA,NA,NA,NA,NA,happy,"unhappy, happy","less happy, more happy",NA,NA,NA,NA,NA,NA,NA,NA,NA,NA,NA,NA,NA,NA,NA,0,1,1,0,1,NA,NA,NA,NA,NA,NA,NA,NA,NA,NA,NA,NA,NA,NA,NA,NA,NA,NA,NA,NA,NA,NA,NA,NA,NA,NA,NA,NA
SUPAMT92592,3WQ3B2KGEEFFAJIBCWX3OL79QNEB15,B58569C2-7A75-456A-8C62-3F280A8EBCDE,2023-09-27_14h42.04.165,WP_VExplicitOC_LH,2022.2.5,Win32,21.42382758,-67.70833333,5.8863,2.0716,NA,NA,NA,NA,NA,bored,"bored, not bored","more bored, less bored",NA,NA,NA,NA,NA,NA,NA,NA,NA,NA,NA,NA,NA,NA,NA,0,2,2,2,1,NA,NA,NA,NA,NA,NA,NA,NA,NA,NA,NA,NA,NA,NA,NA,NA,NA,NA,NA,NA,NA,NA,NA,NA,NA,NA,NA,NA
SUPAMT92592,3WQ3B2KGEEFFAJIBCWX3OL79QNEB15,B58569C2-7A75-456A-8C62-3F280A8EBCDE,2023-09-27_14h42.04.165,WP_VExplicitOC_LH,2022.2.5,Win32,21.42382758,NA,NA,NA,NA,NA,NA,NA,NA,NA,NA,NA,NA,NA,NA,NA,NA,NA,NA,NA,NA,NA,NA,NA,NA,NA,NA,NA,NA,NA,NA,NA,6,0,6,0,1,NA,NA,NA,NA,NA,NA,NA,NA,NA,NA,NA,NA,NA,NA,NA,NA,NA,NA,NA,NA,NA,NA,NA
SUPAMT92592,3WQ3B2KGEEFFAJIBCWX3OL79QNEB15,B58569C2-7A75-456A-8C62-3F280A8EBCDE,2023-09-27_14h42.04.165,WP_VExplicitOC_LH,2022.2.5,Win32,21.42382758,-34.63541667,5.6599,2.0211,NA,NA,NA,NA,NA,bored,"bored, not bored","more bored, less bored",NA,NA,NA,NA,NA,NA,NA,NA,NA,NA,NA,NA,NA,NA,NA,0,0,0,2,1,NA,NA,NA,NA,NA,NA,NA,NA,NA,NA,NA,NA,NA,NA,NA,NA,NA,NA,NA,NA,NA,NA,NA,NA,NA,NA,NA,NA
SUPAMT92592,3WQ3B2KGEEFFAJIBCWX3OL79QNEB15,B58569C2-7A75-456A-8C62-3F280A8EBCDE,2023-09-27_14h42.04.165,WP_VExplicitOC_LH,2022.2.5,Win32,21.42382758,-35.41666667,4.3521,2.0397,NA,NA,NA,NA,NA,frustrated,"frustrated, not frustrated","more frustrated, less frustrated",NA,NA,NA,NA,NA,NA,NA,NA,NA,NA,NA,NA,NA,NA,NA,0,1,1,1,1,NA,NA,NA,NA,NA,NA,NA,NA,NA,NA,NA,NA,NA,NA,NA,NA,NA,NA,NA,NA,NA,NA,NA,NA,NA,NA,NA,NA
SUPAMT92592,3WQ3B2KGEEFFAJIBCWX3OL79QNEB15,B58569C2-7A75-456A-8C62-3F280A8EBCDE,2023-09-27_14h42.04.165,WP_VExplicitOC_LH,2022.2.5,Win32,21.42382758,-40.625,4.335,2.0031,NA,NA,NA,NA,NA,happy,"unhappy, happy","less happy, more happy",NA,NA,NA,NA,NA,NA,NA,NA,NA,NA,NA,NA,NA,NA,NA,0,2,2,0,1,NA,NA,NA,NA,NA,NA,NA,NA,NA,NA,NA,NA,NA,NA,NA,NA,NA,NA,NA,NA,NA,NA,NA,NA,NA,NA,NA,NA
SUPAMT92592,3WQ3B2KGEEFFAJIBCWX3OL79QNEB15,B58569C2-7A75-456A-8C62-3F280A8EBCDE,2023-09-27_14h42.04.165,WP_VExplicitOC_LH,2022.2.5,Win32,21.42382758,NA,NA,NA,NA,NA,NA,NA,NA,NA,NA,NA,NA,NA,NA,NA,NA,NA,NA,NA,NA,NA,NA,NA,NA,NA,NA,NA,NA,NA,NA,NA,7,0,7,0,1,NA,NA,NA,NA,NA,NA,NA,NA,NA,NA,NA,NA,NA,NA,NA,NA,NA,NA,NA,NA,NA,NA,NA
SUPAMT92592,3WQ3B2KGEEFFAJIBCWX3OL79QNEB15,B58569C2-7A75-456A-8C62-3F280A8EBCDE,2023-09-27_14h42.04.165,WP_VExplicitOC_LH,2022.2.5,Win32,21.42382758,-37.76041667,5.412,2.0606,NA,NA,NA,NA,NA,bored,"bored, not bored","more bored, less bored",NA,NA,NA,NA,NA,NA,NA,NA,NA,NA,NA,NA,NA,NA,NA,0,0,0,2,1,NA,NA,NA,NA,NA,NA,NA,NA,NA,NA,NA,NA,NA,NA,NA,NA,NA,NA,NA,NA,NA,NA,NA,NA,NA,NA,NA,NA
SUPAMT92592,3WQ3B2KGEEFFAJIBCWX3OL79QNEB15,B58569C2-7A75-456A-8C62-3F280A8EBCDE,2023-09-27_14h42.04.165,WP_VExplicitOC_LH,2022.2.5,Win32,21.42382758,-70.83333333,5.8824,2.0676,NA,NA,NA,NA,NA,frustrated,"frustrated, not frustrated","more frustrated, less frustrated",NA,NA,NA,NA,NA,NA,NA,NA,NA,NA,NA,NA,NA,NA,NA,0,1,1,1,1,NA,NA,NA,NA,NA,NA,NA,NA,NA,NA,NA,NA,NA,NA,NA,NA,NA,NA,NA,NA,NA,NA,NA,NA,NA,NA,NA,NA
SUPAMT92592,3WQ3B2KGEEFFAJIBCWX3OL79QNEB15,B58569C2-7A75-456A-8C62-3F280A8EBCDE,2023-09-27_14h42.04.165,WP_VExplicitOC_LH,2022.2.5,Win32,21.42382758,-13.80208333,4.4307,2.025,NA,NA,NA,NA,NA,happy,"unhappy, happy","less happy, more happy",NA,NA,NA,NA,NA,NA,NA,NA,NA,NA,NA,NA,NA,NA,NA,0,2,2,0,1,NA,NA,NA,NA,NA,NA,NA,NA,NA,NA,NA,NA,NA,NA,NA,NA,NA,NA,NA,NA,NA,NA,NA,NA,NA,NA,NA,NA
SUPAMT92592,3WQ3B2KGEEFFAJIBCWX3OL79QNEB15,B58569C2-7A75-456A-8C62-3F280A8EBCDE,2023-09-27_14h42.04.165,WP_VExplicitOC_LH,2022.2.5,Win32,21.42382758,NA,NA,NA,NA,NA,NA,NA,NA,NA,NA,NA,NA,NA,NA,NA,NA,NA,NA,NA,NA,NA,NA,NA,NA,NA,NA,NA,NA,NA,NA,NA,8,0,8,0,1,NA,NA,NA,NA,NA,NA,NA,NA,NA,NA,NA,NA,NA,NA,NA,NA,NA,NA,NA,NA,NA,NA,NA
SUPAMT92592,3WQ3B2KGEEFFAJIBCWX3OL79QNEB15,B58569C2-7A75-456A-8C62-3F280A8EBCDE,2023-09-27_14h42.04.165,WP_VExplicitOC_LH,2022.2.5,Win32,21.42382758,-44.53125,5.2507,2.0617,NA,NA,NA,NA,NA,happy,"unhappy, happy","less happy, more happy",NA,NA,NA,NA,NA,NA,NA,NA,NA,NA,NA,NA,NA,NA,NA,0,0,0,0,1,NA,NA,NA,NA,NA,NA,NA,NA,NA,NA,NA,NA,NA,NA,NA,NA,NA,NA,NA,NA,NA,NA,NA,NA,NA,NA,NA,NA
SUPAMT92592,3WQ3B2KGEEFFAJIBCWX3OL79QNEB15,B58569C2-7A75-456A-8C62-3F280A8EBCDE,2023-09-27_14h42.04.165,WP_VExplicitOC_LH,2022.2.5,Win32,21.42382758,-37.76041667,6.11,2.0017,NA,NA,NA,NA,NA,frustrated,"frustrated, not frustrated","more frustrated, less frustrated",NA,NA,NA,NA,NA,NA,NA,NA,NA,NA,NA,NA,NA,NA,NA,0,1,1,1,1,NA,NA,NA,NA,NA,NA,NA,NA,NA,NA,NA,NA,NA,NA,NA,NA,NA,NA,NA,NA,NA,NA,NA,NA,NA,NA,NA,NA
SUPAMT92592,3WQ3B2KGEEFFAJIBCWX3OL79QNEB15,B58569C2-7A75-456A-8C62-3F280A8EBCDE,2023-09-27_14h42.04.165,WP_VExplicitOC_LH,2022.2.5,Win32,21.42382758,-53.64583333,5.1237,2.0288,NA,NA,NA,NA,NA,bored,"bored, not bored","more bored, less bored",NA,NA,NA,NA,NA,NA,NA,NA,NA,NA,NA,NA,NA,NA,NA,0,2,2,2,1,NA,NA,NA,NA,NA,NA,NA,NA,NA,NA,NA,NA,NA,NA,NA,NA,NA,NA,NA,NA,NA,NA,NA,NA,NA,NA,NA,NA
SUPAMT92592,3WQ3B2KGEEFFAJIBCWX3OL79QNEB15,B58569C2-7A75-456A-8C62-3F280A8EBCDE,2023-09-27_14h42.04.165,WP_VExplicitOC_LH,2022.2.5,Win32,21.42382758,NA,NA,NA,NA,NA,NA,NA,NA,NA,NA,NA,NA,NA,NA,NA,NA,NA,NA,NA,NA,NA,NA,NA,NA,NA,NA,NA,NA,NA,NA,NA,9,0,9,0,1,NA,NA,NA,NA,NA,NA,NA,NA,NA,NA,NA,NA,NA,NA,NA,NA,NA,NA,NA,NA,NA,NA,NA
SUPAMT92592,3WQ3B2KGEEFFAJIBCWX3OL79QNEB15,B58569C2-7A75-456A-8C62-3F280A8EBCDE,2023-09-27_14h42.04.165,WP_VExplicitOC_LH,2022.2.5,Win32,21.42382758,-50.78125,4.7556,2.0334,NA,NA,NA,NA,NA,frustrated,"frustrated, not frustrated","more frustrated, less frustrated",NA,NA,NA,NA,NA,NA,NA,NA,NA,NA,NA,NA,NA,NA,NA,0,0,0,1,1,NA,NA,NA,NA,NA,NA,NA,NA,NA,NA,NA,NA,NA,NA,NA,NA,NA,NA,NA,NA,NA,NA,NA,NA,NA,NA,NA,NA
SUPAMT92592,3WQ3B2KGEEFFAJIBCWX3OL79QNEB15,B58569C2-7A75-456A-8C62-3F280A8EBCDE,2023-09-27_14h42.04.165,WP_VExplicitOC_LH,2022.2.5,Win32,21.42382758,-54.6875,6.1647,2.0578,NA,NA,NA,NA,NA,happy,"unhappy, happy","less happy, more happy",NA,NA,NA,NA,NA,NA,NA,NA,NA,NA,NA,NA,NA,NA,NA,0,1,1,0,1,NA,NA,NA,NA,NA,NA,NA,NA,NA,NA,NA,NA,NA,NA,NA,NA,NA,NA,NA,NA,NA,NA,NA,NA,NA,NA,NA,NA
SUPAMT92592,3WQ3B2KGEEFFAJIBCWX3OL79QNEB15,B58569C2-7A75-456A-8C62-3F280A8EBCDE,2023-09-27_14h42.04.165,WP_VExplicitOC_LH,2022.2.5,Win32,21.42382758,NA,NA,2.0442,NA,NA,NA,NA,NA,bored,"bored, not bored","more bored, less bored",NA,NA,NA,NA,NA,NA,NA,NA,NA,NA,NA,NA,NA,NA,NA,0,2,2,2,1,NA,NA,NA,NA,NA,NA,NA,NA,NA,NA,NA,NA,NA,NA,NA,NA,NA,NA,NA,NA,NA,NA,NA,NA,NA,NA,NA,NA
SUPAMT92592,3WQ3B2KGEEFFAJIBCWX3OL79QNEB15,B58569C2-7A75-456A-8C62-3F280A8EBCDE,2023-09-27_14h42.04.165,WP_VExplicitOC_LH,2022.2.5,Win32,21.42382758,NA,NA,NA,NA,NA,NA,NA,NA,NA,NA,NA,NA,NA,NA,NA,NA,NA,NA,NA,NA,NA,NA,NA,NA,NA,NA,NA,NA,NA,NA,NA,10,0,10,0,1,NA,NA,NA,NA,NA,NA,NA,NA,NA,NA,NA,NA,NA,NA,NA,NA,NA,NA,NA,NA,NA,NA,NA
SUPAMT92592,3WQ3B2KGEEFFAJIBCWX3OL79QNEB15,B58569C2-7A75-456A-8C62-3F280A8EBCDE,2023-09-27_14h42.04.165,WP_VExplicitOC_LH,2022.2.5,Win32,21.42382758,-27.86458333,4.6518,2.0067,NA,NA,NA,NA,NA,frustrated,"frustrated, not frustrated","more frustrated, less frustrated",NA,NA,NA,NA,NA,NA,NA,NA,NA,NA,NA,NA,NA,NA,NA,0,0,0,1,1,NA,NA,NA,NA,NA,NA,NA,NA,NA,NA,NA,NA,NA,NA,NA,NA,NA,NA,NA,NA,NA,NA,NA,NA,NA,NA,NA,NA
SUPAMT92592,3WQ3B2KGEEFFAJIBCWX3OL79QNEB15,B58569C2-7A75-456A-8C62-3F280A8EBCDE,2023-09-27_14h42.04.165,WP_VExplicitOC_LH,2022.2.5,Win32,21.42382758,-32.03125,5.2532,2.025,NA,NA,NA,NA,NA,bored,"bored, not bored","more bored, less bored",NA,NA,NA,NA,NA,NA,NA,NA,NA,NA,NA,NA,NA,NA,NA,0,1,1,2,1,NA,NA,NA,NA,NA,NA,NA,NA,NA,NA,NA,NA,NA,NA,NA,NA,NA,NA,NA,NA,NA,NA,NA,NA,NA,NA,NA,NA
SUPAMT92592,3WQ3B2KGEEFFAJIBCWX3OL79QNEB15,B58569C2-7A75-456A-8C62-3F280A8EBCDE,2023-09-27_14h42.04.165,WP_VExplicitOC_LH,2022.2.5,Win32,21.42382758,-19.53125,4.9418,2.0463,NA,NA,NA,NA,NA,happy,"unhappy, happy","less happy, more happy",NA,NA,NA,NA,NA,NA,NA,NA,NA,NA,NA,NA,NA,NA,NA,0,2,2,0,1,NA,NA,NA,NA,NA,NA,NA,NA,NA,NA,NA,NA,NA,NA,NA,NA,NA,NA,NA,NA,NA,NA,NA,NA,NA,NA,NA,NA
SUPAMT92592,3WQ3B2KGEEFFAJIBCWX3OL79QNEB15,B58569C2-7A75-456A-8C62-3F280A8EBCDE,2023-09-27_14h42.04.165,WP_VExplicitOC_LH,2022.2.5,Win32,21.42382758,NA,NA,NA,NA,NA,NA,NA,NA,NA,NA,NA,NA,NA,NA,NA,NA,NA,NA,NA,NA,NA,NA,NA,NA,NA,NA,NA,NA,NA,NA,NA,11,0,11,0,1,NA,NA,NA,NA,NA,NA,NA,NA,NA,NA,NA,NA,NA,NA,NA,NA,NA,NA,NA,NA,NA,NA,NA
SUPAMT92592,3WQ3B2KGEEFFAJIBCWX3OL79QNEB15,B58569C2-7A75-456A-8C62-3F280A8EBCDE,2023-09-27_14h42.04.165,WP_VExplicitOC_LH,2022.2.5,Win32,21.42382758,NA,NA,2.0024,NA,NA,NA,NA,NA,frustrated,"frustrated, not frustrated","more frustrated, less frustrated",NA,NA,NA,NA,NA,NA,NA,NA,NA,NA,NA,NA,NA,NA,NA,0,0,0,1,1,NA,NA,NA,NA,NA,NA,NA,NA,NA,NA,NA,NA,NA,NA,NA,NA,NA,NA,NA,NA,NA,NA,NA,NA,NA,NA,NA,NA
SUPAMT92592,3WQ3B2KGEEFFAJIBCWX3OL79QNEB15,B58569C2-7A75-456A-8C62-3F280A8EBCDE,2023-09-27_14h42.04.165,WP_VExplicitOC_LH,2022.2.5,Win32,21.42382758,-48.95833333,5.3784,2.014,NA,NA,NA,NA,NA,bored,"bored, not bored","more bored, less bored",NA,NA,NA,NA,NA,NA,NA,NA,NA,NA,NA,NA,NA,NA,NA,0,1,1,2,1,NA,NA,NA,NA,NA,NA,NA,NA,NA,NA,NA,NA,NA,NA,NA,NA,NA,NA,NA,NA,NA,NA,NA,NA,NA,NA,NA,NA
SUPAMT92592,3WQ3B2KGEEFFAJIBCWX3OL79QNEB15,B58569C2-7A75-456A-8C62-3F280A8EBCDE,2023-09-27_14h42.04.165,WP_VExplicitOC_LH,2022.2.5,Win32,21.42382758,-36.97916667,4.9156,2.0756,NA,NA,NA,NA,NA,happy,"unhappy, happy","less happy, more happy",NA,NA,NA,NA,NA,NA,NA,NA,NA,NA,NA,NA,NA,NA,NA,0,2,2,0,1,NA,NA,NA,NA,NA,NA,NA,NA,NA,NA,NA,NA,NA,NA,NA,NA,NA,NA,NA,NA,NA,NA,NA,NA,NA,NA,NA,NA
SUPAMT92592,3WQ3B2KGEEFFAJIBCWX3OL79QNEB15,B58569C2-7A75-456A-8C62-3F280A8EBCDE,2023-09-27_14h42.04.165,WP_VExplicitOC_LH,2022.2.5,Win32,21.42382758,NA,NA,NA,NA,NA,NA,NA,NA,NA,NA,NA,NA,NA,NA,NA,NA,NA,NA,NA,NA,NA,NA,NA,NA,NA,NA,NA,NA,NA,NA,NA,12,0,12,0,1,NA,NA,NA,NA,NA,NA,NA,NA,NA,NA,NA,NA,NA,NA,NA,NA,NA,NA,NA,NA,NA,NA,NA
SUPAMT92592,3WQ3B2KGEEFFAJIBCWX3OL79QNEB15,B58569C2-7A75-456A-8C62-3F280A8EBCDE,2023-09-27_14h42.04.165,WP_VExplicitOC_LH,2022.2.5,Win32,21.42382758,NA,NA,2.0587,NA,NA,NA,NA,NA,frustrated,"frustrated, not frustrated","more frustrated, less frustrated",NA,NA,NA,NA,NA,NA,NA,NA,NA,NA,NA,NA,NA,NA,NA,0,0,0,1,1,NA,NA,NA,NA,NA,NA,NA,NA,NA,NA,NA,NA,NA,NA,NA,NA,NA,NA,NA,NA,NA,NA,NA,NA,NA,NA,NA,NA
SUPAMT92592,3WQ3B2KGEEFFAJIBCWX3OL79QNEB15,B58569C2-7A75-456A-8C62-3F280A8EBCDE,2023-09-27_14h42.04.165,WP_VExplicitOC_LH,2022.2.5,Win32,21.42382758,NA,NA,2.0395,NA,NA,NA,NA,NA,happy,"unhappy, happy","less happy, more happy",NA,NA,NA,NA,NA,NA,NA,NA,NA,NA,NA,NA,NA,NA,NA,0,1,1,0,1,NA,NA,NA,NA,NA,NA,NA,NA,NA,NA,NA,NA,NA,NA,NA,NA,NA,NA,NA,NA,NA,NA,NA,NA,NA,NA,NA,NA
SUPAMT92592,3WQ3B2KGEEFFAJIBCWX3OL79QNEB15,B58569C2-7A75-456A-8C62-3F280A8EBCDE,2023-09-27_14h42.04.165,WP_VExplicitOC_LH,2022.2.5,Win32,21.42382758,-22.91666667,5.744,2.0245,NA,NA,NA,NA,NA,bored,"bored, not bored","more bored, less bored",NA,NA,NA,NA,NA,NA,NA,NA,NA,NA,NA,NA,NA,NA,NA,0,2,2,2,1,NA,NA,NA,NA,NA,NA,NA,NA,NA,NA,NA,NA,NA,NA,NA,NA,NA,NA,NA,NA,NA,NA,NA,NA,NA,NA,NA,NA
SUPAMT92592,3WQ3B2KGEEFFAJIBCWX3OL79QNEB15,B58569C2-7A75-456A-8C62-3F280A8EBCDE,2023-09-27_14h42.04.165,WP_VExplicitOC_LH,2022.2.5,Win32,21.42382758,NA,NA,NA,NA,NA,NA,NA,NA,NA,NA,NA,NA,NA,NA,NA,NA,NA,NA,NA,NA,NA,NA,NA,NA,NA,NA,NA,NA,NA,NA,NA,13,0,13,0,1,NA,NA,NA,NA,NA,NA,NA,NA,NA,NA,NA,NA,NA,NA,NA,NA,NA,NA,NA,NA,NA,NA,NA
SUPAMT92592,3WQ3B2KGEEFFAJIBCWX3OL79QNEB15,B58569C2-7A75-456A-8C62-3F280A8EBCDE,2023-09-27_14h42.04.165,WP_VExplicitOC_LH,2022.2.5,Win32,21.42382758,-41.14583333,6.9461,2.0423,NA,NA,NA,NA,NA,bored,"bored, not bored","more bored, less bored",NA,NA,NA,NA,NA,NA,NA,NA,NA,NA,NA,NA,NA,NA,NA,0,0,0,2,1,NA,NA,NA,NA,NA,NA,NA,NA,NA,NA,NA,NA,NA,NA,NA,NA,NA,NA,NA,NA,NA,NA,NA,NA,NA,NA,NA,NA
SUPAMT92592,3WQ3B2KGEEFFAJIBCWX3OL79QNEB15,B58569C2-7A75-456A-8C62-3F280A8EBCDE,2023-09-27_14h42.04.165,WP_VExplicitOC_LH,2022.2.5,Win32,21.42382758,-21.35416667,5.39,2.0523,NA,NA,NA,NA,NA,happy,"unhappy, happy","less happy, more happy",NA,NA,NA,NA,NA,NA,NA,NA,NA,NA,NA,NA,NA,NA,NA,0,1,1,0,1,NA,NA,NA,NA,NA,NA,NA,NA,NA,NA,NA,NA,NA,NA,NA,NA,NA,NA,NA,NA,NA,NA,NA,NA,NA,NA,NA,NA
SUPAMT92592,3WQ3B2KGEEFFAJIBCWX3OL79QNEB15,B58569C2-7A75-456A-8C62-3F280A8EBCDE,2023-09-27_14h42.04.165,WP_VExplicitOC_LH,2022.2.5,Win32,21.42382758,-53.125,7.1642,2.0336,NA,NA,NA,NA,NA,frustrated,"frustrated, not frustrated","more frustrated, less frustrated",NA,NA,NA,NA,NA,NA,NA,NA,NA,NA,NA,NA,NA,NA,NA,0,2,2,1,1,NA,NA,NA,NA,NA,NA,NA,NA,NA,NA,NA,NA,NA,NA,NA,NA,NA,NA,NA,NA,NA,NA,NA,NA,NA,NA,NA,NA
SUPAMT92592,3WQ3B2KGEEFFAJIBCWX3OL79QNEB15,B58569C2-7A75-456A-8C62-3F280A8EBCDE,2023-09-27_14h42.04.165,WP_VExplicitOC_LH,2022.2.5,Win32,21.42382758,NA,NA,NA,NA,NA,NA,NA,NA,NA,NA,NA,NA,NA,NA,NA,NA,NA,NA,NA,NA,NA,NA,NA,NA,NA,NA,NA,NA,NA,NA,NA,14,0,14,0,1,NA,NA,NA,NA,NA,NA,NA,NA,NA,NA,NA,NA,NA,NA,NA,NA,NA,NA,NA,NA,NA,NA,NA
SUPAMT92592,3WQ3B2KGEEFFAJIBCWX3OL79QNEB15,B58569C2-7A75-456A-8C62-3F280A8EBCDE,2023-09-27_14h42.04.165,WP_VExplicitOC_LH,2022.2.5,Win32,21.42382758,NA,NA,NA,NA,NA,NA,NA,NA,NA,NA,NA,NA,NA,NA,NA,NA,NA,NA,NA,NA,NA,NA,NA,NA,NA,NA,NA,NA,NA,NA,NA,NA,NA,NA,NA,NA,NA,NA,NA,NA,NA,NA,NA,NA,NA,NA,NA,NA,NA,NA,NA,NA,NA,NA,NA,NA,NA,NA,NA
SUPAMT92592,3WQ3B2KGEEFFAJIBCWX3OL79QNEB15,B58569C2-7A75-456A-8C62-3F280A8EBCDE,2023-09-27_14h42.04.165,WP_VExplicitOC_LH,2022.2.5,Win32,21.42382758,NA,NA,NA,NA,NA,NA,NA,NA,NA,NA,NA,NA,NA,NA,NA,NA,NA,NA,NA,NA,NA,NA,NA,NA,NA,NA,NA,NA,NA,NA,NA,NA,NA,NA,NA,NA,NA,NA,NA,NA,NA,NA,NA,NA,NA,NA,NA,NA,NA,NA,NA,NA,NA,NA,NA,NA,NA,NA,NA
SUPAMT92592,3WQ3B2KGEEFFAJIBCWX3OL79QNEB15,B58569C2-7A75-456A-8C62-3F280A8EBCDE,2023-09-27_14h42.04.165,WP_VExplicitOC_LH,2022.2.5,Win32,21.42382758,NA,NA,NA,NA,NA,NA,NA,NA,NA,NA,NA,NA,NA,NA,NA,NA,NA,NA,rest (looking at a fixed cross),001.png,NA,NA,NA,NA,NA,NA,NA,NA,NA,NA,NA,NA,NA,NA,NA,NA,NA,NA,0,0,0,0,1,NA,NA,NA,NA,NA,NA,NA,NA,NA,NA,NA,NA,NA,NA,NA,NA
SUPAMT92592,3WQ3B2KGEEFFAJIBCWX3OL79QNEB15,B58569C2-7A75-456A-8C62-3F280A8EBCDE,2023-09-27_14h42.04.165,WP_VExplicitOC_LH,2022.2.5,Win32,21.42382758,NA,NA,NA,NA,NA,NA,NA,NA,NA,NA,NA,NA,NA,NA,NA,NA,NA,NA,stand up,002.png,NA,NA,NA,NA,NA,NA,NA,NA,NA,NA,NA,NA,NA,NA,NA,NA,NA,NA,0,1,1,1,1,NA,NA,NA,NA,NA,NA,NA,NA,NA,NA,NA,NA,NA,NA,NA,NA
SUPAMT92592,3WQ3B2KGEEFFAJIBCWX3OL79QNEB15,B58569C2-7A75-456A-8C62-3F280A8EBCDE,2023-09-27_14h42.04.165,WP_VExplicitOC_LH,2022.2.5,Win32,21.42382758,NA,NA,NA,NA,NA,NA,NA,NA,NA,NA,NA,NA,NA,NA,NA,NA,NA,NA,stretch,003.png,NA,NA,NA,NA,NA,NA,NA,NA,NA,NA,NA,NA,NA,NA,NA,NA,63.54166667,3.886,0,2,2,2,1,NA,NA,NA,NA,NA,NA,NA,NA,NA,NA,NA,NA,NA,NA,NA,NA
SUPAMT92592,3WQ3B2KGEEFFAJIBCWX3OL79QNEB15,B58569C2-7A75-456A-8C62-3F280A8EBCDE,2023-09-27_14h42.04.165,WP_VExplicitOC_LH,2022.2.5,Win32,21.42382758,NA,NA,NA,NA,NA,NA,NA,NA,NA,NA,NA,NA,NA,NA,NA,NA,NA,NA,make a drink,004.png,NA,NA,NA,NA,NA,NA,NA,NA,NA,NA,NA,NA,NA,NA,NA,NA,59.63541667,3.2537,0,3,3,3,1,NA,NA,NA,NA,NA,NA,NA,NA,NA,NA,NA,NA,NA,NA,NA,NA
SUPAMT92592,3WQ3B2KGEEFFAJIBCWX3OL79QNEB15,B58569C2-7A75-456A-8C62-3F280A8EBCDE,2023-09-27_14h42.04.165,WP_VExplicitOC_LH,2022.2.5,Win32,21.42382758,NA,NA,NA,NA,NA,NA,NA,NA,NA,NA,NA,NA,NA,NA,NA,NA,NA,NA,scroll social media,005.png,NA,NA,NA,NA,NA,NA,NA,NA,NA,NA,NA,NA,NA,NA,NA,NA,-40.625,3.4076,0,4,4,4,1,NA,NA,NA,NA,NA,NA,NA,NA,NA,NA,NA,NA,NA,NA,NA,NA
SUPAMT92592,3WQ3B2KGEEFFAJIBCWX3OL79QNEB15,B58569C2-7A75-456A-8C62-3F280A8EBCDE,2023-09-27_14h42.04.165,WP_VExplicitOC_LH,2022.2.5,Win32,21.42382758,NA,NA,NA,NA,NA,NA,NA,NA,NA,NA,NA,NA,NA,NA,NA,NA,NA,NA,listen to music,006.png,NA,NA,NA,NA,NA,NA,NA,NA,NA,NA,NA,NA,NA,NA,NA,NA,-53.38541667,3.4983,0,5,5,5,1,NA,NA,NA,NA,NA,NA,NA,NA,NA,NA,NA,NA,NA,NA,NA,NA
SUPAMT92592,3WQ3B2KGEEFFAJIBCWX3OL79QNEB15,B58569C2-7A75-456A-8C62-3F280A8EBCDE,2023-09-27_14h42.04.165,WP_VExplicitOC_LH,2022.2.5,Win32,21.42382758,NA,NA,NA,NA,NA,NA,NA,NA,NA,NA,NA,NA,NA,NA,NA,NA,NA,NA,daydream,007.png,NA,NA,NA,NA,NA,NA,NA,NA,NA,NA,NA,NA,NA,NA,NA,NA,-46.61458333,4.2791,0,6,6,6,1,NA,NA,NA,NA,NA,NA,NA,NA,NA,NA,NA,NA,NA,NA,NA,NA
SUPAMT92592,3WQ3B2KGEEFFAJIBCWX3OL79QNEB15,B58569C2-7A75-456A-8C62-3F280A8EBCDE,2023-09-27_14h42.04.165,WP_VExplicitOC_LH,2022.2.5,Win32,21.42382758,NA,NA,NA,NA,NA,NA,NA,NA,NA,NA,NA,NA,NA,NA,NA,NA,NA,NA,watch a short animation,008.png,NA,NA,NA,NA,NA,NA,NA,NA,NA,NA,NA,NA,NA,NA,NA,NA,-55.46875,3.8347,0,7,7,7,1,NA,NA,NA,NA,NA,NA,NA,NA,NA,NA,NA,NA,NA,NA,NA,NA
SUPAMT92592,3WQ3B2KGEEFFAJIBCWX3OL79QNEB15,B58569C2-7A75-456A-8C62-3F280A8EBCDE,2023-09-27_14h42.04.165,WP_VExplicitOC_LH,2022.2.5,Win32,21.42382758,NA,NA,NA,NA,NA,NA,NA,NA,NA,NA,NA,NA,NA,NA,NA,NA,NA,NA,read a novel,009.png,NA,NA,NA,NA,NA,NA,NA,NA,NA,NA,NA,NA,NA,NA,NA,NA,-79.16666667,2.6046,0,8,8,8,1,NA,NA,NA,NA,NA,NA,NA,NA,NA,NA,NA,NA,NA,NA,NA,NA
SUPAMT92592,3WQ3B2KGEEFFAJIBCWX3OL79QNEB15,B58569C2-7A75-456A-8C62-3F280A8EBCDE,2023-09-27_14h42.04.165,WP_VExplicitOC_LH,2022.2.5,Win32,21.42382758,NA,NA,NA,NA,NA,NA,NA,NA,NA,NA,NA,NA,NA,NA,NA,NA,NA,NA,read the news,010.png,NA,NA,NA,NA,NA,NA,NA,NA,NA,NA,NA,NA,NA,NA,NA,NA,-73.69791667,2.4264,0,9,9,9,1,NA,NA,NA,NA,NA,NA,NA,NA,NA,NA,NA,NA,NA,NA,NA,NA
SUPAMT92592,3WQ3B2KGEEFFAJIBCWX3OL79QNEB15,B58569C2-7A75-456A-8C62-3F280A8EBCDE,2023-09-27_14h42.04.165,WP_VExplicitOC_LH,2022.2.5,Win32,21.42382758,NA,NA,NA,NA,NA,NA,NA,NA,NA,NA,NA,NA,NA,NA,NA,NA,NA,NA,NA,NA,NA,NA,NA,NA,NA,NA,NA,NA,NA,NA,NA,NA,NA,NA,NA,NA,NA,NA,NA,NA,NA,NA,NA,stand up,NA,NA,NA,NA,NA,NA,NA,NA,NA,NA,NA,NA,NA,NA,NA
SUPAMT92592,3WQ3B2KGEEFFAJIBCWX3OL79QNEB15,B58569C2-7A75-456A-8C62-3F280A8EBCDE,2023-09-27_14h42.04.165,WP_VExplicitOC_LH,2022.2.5,Win32,21.42382758,-53.38541667,5.3624,2.0352,NA,NA,NA,NA,NA,frustrated,"frustrated, not frustrated","more frustrated, less frustrated",NA,NA,NA,NA,NA,NA,NA,NA,NA,NA,NA,NA,NA,NA,NA,NA,NA,NA,NA,NA,NA,NA,NA,NA,NA,NA,NA,NA,NA,NA,NA,NA,NA,0,0,0,1,1,NA,NA,NA,NA,NA,NA,NA,NA,NA,NA
SUPAMT92592,3WQ3B2KGEEFFAJIBCWX3OL79QNEB15,B58569C2-7A75-456A-8C62-3F280A8EBCDE,2023-09-27_14h42.04.165,WP_VExplicitOC_LH,2022.2.5,Win32,21.42382758,-45.05208333,4.8842,2.0829,NA,NA,NA,NA,NA,happy,"unhappy, happy","less happy, more happy",NA,NA,NA,NA,NA,NA,NA,NA,NA,NA,NA,NA,NA,NA,NA,NA,NA,NA,NA,NA,NA,NA,NA,NA,NA,NA,NA,NA,NA,NA,NA,NA,NA,0,1,1,0,1,NA,NA,NA,NA,NA,NA,NA,NA,NA,NA
SUPAMT92592,3WQ3B2KGEEFFAJIBCWX3OL79QNEB15,B58569C2-7A75-456A-8C62-3F280A8EBCDE,2023-09-27_14h42.04.165,WP_VExplicitOC_LH,2022.2.5,Win32,21.42382758,-55.46875,5.3179,2.0049,NA,NA,NA,NA,NA,bored,"bored, not bored","more bored, less bored",NA,NA,NA,NA,NA,NA,NA,NA,NA,NA,NA,NA,NA,NA,NA,NA,NA,NA,NA,NA,NA,NA,NA,NA,NA,NA,NA,NA,NA,NA,NA,NA,NA,0,2,2,2,1,NA,NA,NA,NA,NA,NA,NA,NA,NA,NA
SUPAMT92592,3WQ3B2KGEEFFAJIBCWX3OL79QNEB15,B58569C2-7A75-456A-8C62-3F280A8EBCDE,2023-09-27_14h42.04.165,WP_VExplicitOC_LH,2022.2.5,Win32,21.42382758,NA,NA,NA,NA,NA,NA,NA,NA,NA,NA,NA,NA,NA,NA,NA,NA,NA,NA,NA,NA,NA,NA,NA,NA,NA,NA,NA,NA,NA,NA,NA,NA,NA,NA,NA,NA,NA,NA,NA,NA,NA,NA,NA,NA,NA,NA,NA,NA,NA,NA,NA,NA,NA,NA,NA,NA,NA,NA,NA
SUPAMT92592,3WQ3B2KGEEFFAJIBCWX3OL79QNEB15,B58569C2-7A75-456A-8C62-3F280A8EBCDE,2023-09-27_14h42.04.165,WP_VExplicitOC_LH,2022.2.5,Win32,21.42382758,NA,NA,NA,NA,NA,NA,NA,NA,NA,NA,NA,NA,NA,NA,NA,NA,NA,NA,NA,NA,NA,NA,NA,NA,NA,NA,NA,NA,NA,NA,NA,NA,NA,NA,NA,NA,NA,NA,NA,NA,NA,NA,NA,NA,NA,NA,NA,NA,NA,NA,NA,NA,NA,NA,NA,NA,NA,NA,NA
SUPAMT92592,3WQ3B2KGEEFFAJIBCWX3OL79QNEB15,B58569C2-7A75-456A-8C62-3F280A8EBCDE,2023-09-27_14h42.04.165,WP_VExplicitOC_LH,2022.2.5,Win32,21.42382758,-40.88541667,5.8525,2.0524,NA,NA,NA,NA,NA,happy,"unhappy, happy","less happy, more happy",NA,NA,NA,NA,NA,NA,NA,NA,NA,NA,NA,NA,NA,NA,NA,NA,NA,NA,NA,NA,NA,NA,NA,NA,NA,NA,NA,NA,NA,NA,NA,NA,NA,NA,NA,NA,NA,NA,0,0,0,0,1,NA,NA,NA,NA,NA
SUPAMT92592,3WQ3B2KGEEFFAJIBCWX3OL79QNEB15,B58569C2-7A75-456A-8C62-3F280A8EBCDE,2023-09-27_14h42.04.165,WP_VExplicitOC_LH,2022.2.5,Win32,21.42382758,-45.83333333,6.2456,2.0163,NA,NA,NA,NA,NA,bored,"bored, not bored","more bored, less bored",NA,NA,NA,NA,NA,NA,NA,NA,NA,NA,NA,NA,NA,NA,NA,NA,NA,NA,NA,NA,NA,NA,NA,NA,NA,NA,NA,NA,NA,NA,NA,NA,NA,NA,NA,NA,NA,NA,0,1,1,2,1,NA,NA,NA,NA,NA
SUPAMT92592,3WQ3B2KGEEFFAJIBCWX3OL79QNEB15,B58569C2-7A75-456A-8C62-3F280A8EBCDE,2023-09-27_14h42.04.165,WP_VExplicitOC_LH,2022.2.5,Win32,21.42382758,-71.09375,6.6727,2.0489,NA,NA,NA,NA,NA,frustrated,"frustrated, not frustrated","more frustrated, less frustrated",NA,NA,NA,NA,NA,NA,NA,NA,NA,NA,NA,NA,NA,NA,NA,NA,NA,NA,NA,NA,NA,NA,NA,NA,NA,NA,NA,NA,NA,NA,NA,NA,NA,NA,NA,NA,NA,NA,0,2,2,1,1,NA,NA,NA,NA,NA
SUPAMT92592,3WQ3B2KGEEFFAJIBCWX3OL79QNEB15,B58569C2-7A75-456A-8C62-3F280A8EBCDE,2023-09-27_14h42.04.165,WP_VExplicitOC_LH,2022.2.5,Win32,21.42382758,NA,NA,NA,NA,NA,NA,NA,NA,NA,NA,NA,NA,NA,NA,NA,NA,NA,NA,NA,NA,NA,NA,NA,NA,NA,NA,NA,NA,NA,NA,NA,NA,NA,NA,NA,NA,NA,NA,NA,NA,NA,NA,NA,NA,NA,NA,NA,NA,NA,NA,NA,NA,NA,NA,0,0,0,0,1
SUPAMT92592,3WQ3B2KGEEFFAJIBCWX3OL79QNEB15,B58569C2-7A75-456A-8C62-3F280A8EBCDE,2023-09-27_14h42.04.165,WP_VExplicitOC_LH,2022.2.5,Win32,21.42382758,-40.10416667,6.2955,2.0508,NA,NA,NA,NA,NA,frustrated,"frustrated, not frustrated","more frustrated, less frustrated",NA,NA,NA,NA,NA,NA,NA,NA,NA,NA,NA,NA,NA,NA,NA,NA,NA,NA,NA,NA,NA,NA,NA,NA,NA,NA,NA,NA,NA,NA,NA,NA,NA,NA,NA,NA,NA,NA,0,0,0,1,1,NA,NA,NA,NA,NA
SUPAMT92592,3WQ3B2KGEEFFAJIBCWX3OL79QNEB15,B58569C2-7A75-456A-8C62-3F280A8EBCDE,2023-09-27_14h42.04.165,WP_VExplicitOC_LH,2022.2.5,Win32,21.42382758,-41.14583333,5.1492000000000004,2.0419,NA,NA,NA,NA,NA,happy,"unhappy, happy","less happy, more happy",NA,NA,NA,NA,NA,NA,NA,NA,NA,NA,NA,NA,NA,NA,NA,NA,NA,NA,NA,NA,NA,NA,NA,NA,NA,NA,NA,NA,NA,NA,NA,NA,NA,NA,NA,NA,NA,NA,0,1,1,0,1,NA,NA,NA,NA,NA
SUPAMT92592,3WQ3B2KGEEFFAJIBCWX3OL79QNEB15,B58569C2-7A75-456A-8C62-3F280A8EBCDE,2023-09-27_14h42.04.165,WP_VExplicitOC_LH,2022.2.5,Win32,21.42382758,-80.72916667,5.8779,2.0132,NA,NA,NA,NA,NA,bored,"bored, not bored","more bored, less bored",NA,NA,NA,NA,NA,NA,NA,NA,NA,NA,NA,NA,NA,NA,NA,NA,NA,NA,NA,NA,NA,NA,NA,NA,NA,NA,NA,NA,NA,NA,NA,NA,NA,NA,NA,NA,NA,NA,0,2,2,2,1,NA,NA,NA,NA,NA
SUPAMT92592,3WQ3B2KGEEFFAJIBCWX3OL79QNEB15,B58569C2-7A75-456A-8C62-3F280A8EBCDE,2023-09-27_14h42.04.165,WP_VExplicitOC_LH,2022.2.5,Win32,21.42382758,NA,NA,NA,NA,NA,NA,NA,NA,NA,NA,NA,NA,NA,NA,NA,NA,NA,NA,NA,NA,NA,NA,NA,NA,NA,NA,NA,NA,NA,NA,NA,NA,NA,NA,NA,NA,NA,NA,NA,NA,NA,NA,NA,NA,NA,NA,NA,NA,NA,NA,NA,NA,NA,NA,1,0,1,0,1
SUPAMT92592,3WQ3B2KGEEFFAJIBCWX3OL79QNEB15,B58569C2-7A75-456A-8C62-3F280A8EBCDE,2023-09-27_14h42.04.165,WP_VExplicitOC_LH,2022.2.5,Win32,21.42382758,-73.95833333,5.0858,2.0597,NA,NA,NA,NA,NA,happy,"unhappy, happy","less happy, more happy",NA,NA,NA,NA,NA,NA,NA,NA,NA,NA,NA,NA,NA,NA,NA,NA,NA,NA,NA,NA,NA,NA,NA,NA,NA,NA,NA,NA,NA,NA,NA,NA,NA,NA,NA,NA,NA,NA,0,0,0,0,1,NA,NA,NA,NA,NA
SUPAMT92592,3WQ3B2KGEEFFAJIBCWX3OL79QNEB15,B58569C2-7A75-456A-8C62-3F280A8EBCDE,2023-09-27_14h42.04.165,WP_VExplicitOC_LH,2022.2.5,Win32,21.42382758,NA,NA,2.0518,NA,NA,NA,NA,NA,frustrated,"frustrated, not frustrated","more frustrated, less frustrated",NA,NA,NA,NA,NA,NA,NA,NA,NA,NA,NA,NA,NA,NA,NA,NA,NA,NA,NA,NA,NA,NA,NA,NA,NA,NA,NA,NA,NA,NA,NA,NA,NA,NA,NA,NA,NA,NA,0,1,1,1,1,NA,NA,NA,NA,NA
SUPAMT92592,3WQ3B2KGEEFFAJIBCWX3OL79QNEB15,B58569C2-7A75-456A-8C62-3F280A8EBCDE,2023-09-27_14h42.04.165,WP_VExplicitOC_LH,2022.2.5,Win32,21.42382758,-47.91666667,4.6689,2.0461,NA,NA,NA,NA,NA,bored,"bored, not bored","more bored, less bored",NA,NA,NA,NA,NA,NA,NA,NA,NA,NA,NA,NA,NA,NA,NA,NA,NA,NA,NA,NA,NA,NA,NA,NA,NA,NA,NA,NA,NA,NA,NA,NA,NA,NA,NA,NA,NA,NA,0,2,2,2,1,NA,NA,NA,NA,NA
SUPAMT92592,3WQ3B2KGEEFFAJIBCWX3OL79QNEB15,B58569C2-7A75-456A-8C62-3F280A8EBCDE,2023-09-27_14h42.04.165,WP_VExplicitOC_LH,2022.2.5,Win32,21.42382758,NA,NA,NA,NA,NA,NA,NA,NA,NA,NA,NA,NA,NA,NA,NA,NA,NA,NA,NA,NA,NA,NA,NA,NA,NA,NA,NA,NA,NA,NA,NA,NA,NA,NA,NA,NA,NA,NA,NA,NA,NA,NA,NA,NA,NA,NA,NA,NA,NA,NA,NA,NA,NA,NA,2,0,2,0,1
SUPAMT92592,3WQ3B2KGEEFFAJIBCWX3OL79QNEB15,B58569C2-7A75-456A-8C62-3F280A8EBCDE,2023-09-27_14h42.04.165,WP_VExplicitOC_LH,2022.2.5,Win32,21.42382758,-35.67708333,5.6584,2.0535,NA,NA,NA,NA,NA,happy,"unhappy, happy","less happy, more happy",NA,NA,NA,NA,NA,NA,NA,NA,NA,NA,NA,NA,NA,NA,NA,NA,NA,NA,NA,NA,NA,NA,NA,NA,NA,NA,NA,NA,NA,NA,NA,NA,NA,NA,NA,NA,NA,NA,0,0,0,0,1,NA,NA,NA,NA,NA
SUPAMT92592,3WQ3B2KGEEFFAJIBCWX3OL79QNEB15,B58569C2-7A75-456A-8C62-3F280A8EBCDE,2023-09-27_14h42.04.165,WP_VExplicitOC_LH,2022.2.5,Win32,21.42382758,-30.46875,5.6676,2.0196,NA,NA,NA,NA,NA,frustrated,"frustrated, not frustrated","more frustrated, less frustrated",NA,NA,NA,NA,NA,NA,NA,NA,NA,NA,NA,NA,NA,NA,NA,NA,NA,NA,NA,NA,NA,NA,NA,NA,NA,NA,NA,NA,NA,NA,NA,NA,NA,NA,NA,NA,NA,NA,0,1,1,1,1,NA,NA,NA,NA,NA
SUPAMT92592,3WQ3B2KGEEFFAJIBCWX3OL79QNEB15,B58569C2-7A75-456A-8C62-3F280A8EBCDE,2023-09-27_14h42.04.165,WP_VExplicitOC_LH,2022.2.5,Win32,21.42382758,-26.5625,5.4644,2.0336,NA,NA,NA,NA,NA,bored,"bored, not bored","more bored, less bored",NA,NA,NA,NA,NA,NA,NA,NA,NA,NA,NA,NA,NA,NA,NA,NA,NA,NA,NA,NA,NA,NA,NA,NA,NA,NA,NA,NA,NA,NA,NA,NA,NA,NA,NA,NA,NA,NA,0,2,2,2,1,NA,NA,NA,NA,NA
SUPAMT92592,3WQ3B2KGEEFFAJIBCWX3OL79QNEB15,B58569C2-7A75-456A-8C62-3F280A8EBCDE,2023-09-27_14h42.04.165,WP_VExplicitOC_LH,2022.2.5,Win32,21.42382758,NA,NA,NA,NA,NA,NA,NA,NA,NA,NA,NA,NA,NA,NA,NA,NA,NA,NA,NA,NA,NA,NA,NA,NA,NA,NA,NA,NA,NA,NA,NA,NA,NA,NA,NA,NA,NA,NA,NA,NA,NA,NA,NA,NA,NA,NA,NA,NA,NA,NA,NA,NA,NA,NA,3,0,3,0,1
SUPAMT92592,3WQ3B2KGEEFFAJIBCWX3OL79QNEB15,B58569C2-7A75-456A-8C62-3F280A8EBCDE,2023-09-27_14h42.04.165,WP_VExplicitOC_LH,2022.2.5,Win32,21.42382758,-66.92708333,5.6159,2.0025,NA,NA,NA,NA,NA,happy,"unhappy, happy","less happy, more happy",NA,NA,NA,NA,NA,NA,NA,NA,NA,NA,NA,NA,NA,NA,NA,NA,NA,NA,NA,NA,NA,NA,NA,NA,NA,NA,NA,NA,NA,NA,NA,NA,NA,NA,NA,NA,NA,NA,0,0,0,0,1,NA,NA,NA,NA,NA
SUPAMT92592,3WQ3B2KGEEFFAJIBCWX3OL79QNEB15,B58569C2-7A75-456A-8C62-3F280A8EBCDE,2023-09-27_14h42.04.165,WP_VExplicitOC_LH,2022.2.5,Win32,21.42382758,NA,NA,2.0671,NA,NA,NA,NA,NA,frustrated,"frustrated, not frustrated","more frustrated, less frustrated",NA,NA,NA,NA,NA,NA,NA,NA,NA,NA,NA,NA,NA,NA,NA,NA,NA,NA,NA,NA,NA,NA,NA,NA,NA,NA,NA,NA,NA,NA,NA,NA,NA,NA,NA,NA,NA,NA,0,1,1,1,1,NA,NA,NA,NA,NA
SUPAMT92592,3WQ3B2KGEEFFAJIBCWX3OL79QNEB15,B58569C2-7A75-456A-8C62-3F280A8EBCDE,2023-09-27_14h42.04.165,WP_VExplicitOC_LH,2022.2.5,Win32,21.42382758,-35.67708333,4.5587,2.0144,NA,NA,NA,NA,NA,bored,"bored, not bored","more bored, less bored",NA,NA,NA,NA,NA,NA,NA,NA,NA,NA,NA,NA,NA,NA,NA,NA,NA,NA,NA,NA,NA,NA,NA,NA,NA,NA,NA,NA,NA,NA,NA,NA,NA,NA,NA,NA,NA,NA,0,2,2,2,1,NA,NA,NA,NA,NA
SUPAMT92592,3WQ3B2KGEEFFAJIBCWX3OL79QNEB15,B58569C2-7A75-456A-8C62-3F280A8EBCDE,2023-09-27_14h42.04.165,WP_VExplicitOC_LH,2022.2.5,Win32,21.42382758,NA,NA,NA,NA,NA,NA,NA,NA,NA,NA,NA,NA,NA,NA,NA,NA,NA,NA,NA,NA,NA,NA,NA,NA,NA,NA,NA,NA,NA,NA,NA,NA,NA,NA,NA,NA,NA,NA,NA,NA,NA,NA,NA,NA,NA,NA,NA,NA,NA,NA,NA,NA,NA,NA,4,0,4,0,1
SUPAMT92592,3WQ3B2KGEEFFAJIBCWX3OL79QNEB15,B58569C2-7A75-456A-8C62-3F280A8EBCDE,2023-09-27_14h42.04.165,WP_VExplicitOC_LH,2022.2.5,Win32,21.42382758,-49.73958333,4.9791,2.0272,NA,NA,NA,NA,NA,happy,"unhappy, happy","less happy, more happy",NA,NA,NA,NA,NA,NA,NA,NA,NA,NA,NA,NA,NA,NA,NA,NA,NA,NA,NA,NA,NA,NA,NA,NA,NA,NA,NA,NA,NA,NA,NA,NA,NA,NA,NA,NA,NA,NA,0,0,0,0,1,NA,NA,NA,NA,NA
SUPAMT92592,3WQ3B2KGEEFFAJIBCWX3OL79QNEB15,B58569C2-7A75-456A-8C62-3F280A8EBCDE,2023-09-27_14h42.04.165,WP_VExplicitOC_LH,2022.2.5,Win32,21.42382758,-38.80208333,4.741,2.0551,NA,NA,NA,NA,NA,bored,"bored, not bored","more bored, less bored",NA,NA,NA,NA,NA,NA,NA,NA,NA,NA,NA,NA,NA,NA,NA,NA,NA,NA,NA,NA,NA,NA,NA,NA,NA,NA,NA,NA,NA,NA,NA,NA,NA,NA,NA,NA,NA,NA,0,1,1,2,1,NA,NA,NA,NA,NA
SUPAMT92592,3WQ3B2KGEEFFAJIBCWX3OL79QNEB15,B58569C2-7A75-456A-8C62-3F280A8EBCDE,2023-09-27_14h42.04.165,WP_VExplicitOC_LH,2022.2.5,Win32,21.42382758,-74.21875,4.7192,2.0345,NA,NA,NA,NA,NA,frustrated,"frustrated, not frustrated","more frustrated, less frustrated",NA,NA,NA,NA,NA,NA,NA,NA,NA,NA,NA,NA,NA,NA,NA,NA,NA,NA,NA,NA,NA,NA,NA,NA,NA,NA,NA,NA,NA,NA,NA,NA,NA,NA,NA,NA,NA,NA,0,2,2,1,1,NA,NA,NA,NA,NA
SUPAMT92592,3WQ3B2KGEEFFAJIBCWX3OL79QNEB15,B58569C2-7A75-456A-8C62-3F280A8EBCDE,2023-09-27_14h42.04.165,WP_VExplicitOC_LH,2022.2.5,Win32,21.42382758,NA,NA,NA,NA,NA,NA,NA,NA,NA,NA,NA,NA,NA,NA,NA,NA,NA,NA,NA,NA,NA,NA,NA,NA,NA,NA,NA,NA,NA,NA,NA,NA,NA,NA,NA,NA,NA,NA,NA,NA,NA,NA,NA,NA,NA,NA,NA,NA,NA,NA,NA,NA,NA,NA,5,0,5,0,1
SUPAMT92592,3WQ3B2KGEEFFAJIBCWX3OL79QNEB15,B58569C2-7A75-456A-8C62-3F280A8EBCDE,2023-09-27_14h42.04.165,WP_VExplicitOC_LH,2022.2.5,Win32,21.42382758,-51.82291667,5.8832,2.0424,NA,NA,NA,NA,NA,bored,"bored, not bored","more bored, less bored",NA,NA,NA,NA,NA,NA,NA,NA,NA,NA,NA,NA,NA,NA,NA,NA,NA,NA,NA,NA,NA,NA,NA,NA,NA,NA,NA,NA,NA,NA,NA,NA,NA,NA,NA,NA,NA,NA,0,0,0,2,1,NA,NA,NA,NA,NA
SUPAMT92592,3WQ3B2KGEEFFAJIBCWX3OL79QNEB15,B58569C2-7A75-456A-8C62-3F280A8EBCDE,2023-09-27_14h42.04.165,WP_VExplicitOC_LH,2022.2.5,Win32,21.42382758,NA,NA,2.0162,NA,NA,NA,NA,NA,frustrated,"frustrated, not frustrated","more frustrated, less frustrated",NA,NA,NA,NA,NA,NA,NA,NA,NA,NA,NA,NA,NA,NA,NA,NA,NA,NA,NA,NA,NA,NA,NA,NA,NA,NA,NA,NA,NA,NA,NA,NA,NA,NA,NA,NA,NA,NA,0,1,1,1,1,NA,NA,NA,NA,NA
SUPAMT92592,3WQ3B2KGEEFFAJIBCWX3OL79QNEB15,B58569C2-7A75-456A-8C62-3F280A8EBCDE,2023-09-27_14h42.04.165,WP_VExplicitOC_LH,2022.2.5,Win32,21.42382758,-46.09375,4.7608,2.0297,NA,NA,NA,NA,NA,happy,"unhappy, happy","less happy, more happy",NA,NA,NA,NA,NA,NA,NA,NA,NA,NA,NA,NA,NA,NA,NA,NA,NA,NA,NA,NA,NA,NA,NA,NA,NA,NA,NA,NA,NA,NA,NA,NA,NA,NA,NA,NA,NA,NA,0,2,2,0,1,NA,NA,NA,NA,NA
SUPAMT92592,3WQ3B2KGEEFFAJIBCWX3OL79QNEB15,B58569C2-7A75-456A-8C62-3F280A8EBCDE,2023-09-27_14h42.04.165,WP_VExplicitOC_LH,2022.2.5,Win32,21.42382758,NA,NA,NA,NA,NA,NA,NA,NA,NA,NA,NA,NA,NA,NA,NA,NA,NA,NA,NA,NA,NA,NA,NA,NA,NA,NA,NA,NA,NA,NA,NA,NA,NA,NA,NA,NA,NA,NA,NA,NA,NA,NA,NA,NA,NA,NA,NA,NA,NA,NA,NA,NA,NA,NA,6,0,6,0,1
SUPAMT92592,3WQ3B2KGEEFFAJIBCWX3OL79QNEB15,B58569C2-7A75-456A-8C62-3F280A8EBCDE,2023-09-27_14h42.04.165,WP_VExplicitOC_LH,2022.2.5,Win32,21.42382758,NA,NA,2.0583,NA,NA,NA,NA,NA,bored,"bored, not bored","more bored, less bored",NA,NA,NA,NA,NA,NA,NA,NA,NA,NA,NA,NA,NA,NA,NA,NA,NA,NA,NA,NA,NA,NA,NA,NA,NA,NA,NA,NA,NA,NA,NA,NA,NA,NA,NA,NA,NA,NA,0,0,0,2,1,NA,NA,NA,NA,NA
SUPAMT92592,3WQ3B2KGEEFFAJIBCWX3OL79QNEB15,B58569C2-7A75-456A-8C62-3F280A8EBCDE,2023-09-27_14h42.04.165,WP_VExplicitOC_LH,2022.2.5,Win32,21.42382758,-54.16666667,6.4124,2.0765,NA,NA,NA,NA,NA,happy,"unhappy, happy","less happy, more happy",NA,NA,NA,NA,NA,NA,NA,NA,NA,NA,NA,NA,NA,NA,NA,NA,NA,NA,NA,NA,NA,NA,NA,NA,NA,NA,NA,NA,NA,NA,NA,NA,NA,NA,NA,NA,NA,NA,0,1,1,0,1,NA,NA,NA,NA,NA
SUPAMT92592,3WQ3B2KGEEFFAJIBCWX3OL79QNEB15,B58569C2-7A75-456A-8C62-3F280A8EBCDE,2023-09-27_14h42.04.165,WP_VExplicitOC_LH,2022.2.5,Win32,21.42382758,-45.57291667,5.5066,2.0505,NA,NA,NA,NA,NA,frustrated,"frustrated, not frustrated","more frustrated, less frustrated",NA,NA,NA,NA,NA,NA,NA,NA,NA,NA,NA,NA,NA,NA,NA,NA,NA,NA,NA,NA,NA,NA,NA,NA,NA,NA,NA,NA,NA,NA,NA,NA,NA,NA,NA,NA,NA,NA,0,2,2,1,1,NA,NA,NA,NA,NA
SUPAMT92592,3WQ3B2KGEEFFAJIBCWX3OL79QNEB15,B58569C2-7A75-456A-8C62-3F280A8EBCDE,2023-09-27_14h42.04.165,WP_VExplicitOC_LH,2022.2.5,Win32,21.42382758,NA,NA,NA,NA,NA,NA,NA,NA,NA,NA,NA,NA,NA,NA,NA,NA,NA,NA,NA,NA,NA,NA,NA,NA,NA,NA,NA,NA,NA,NA,NA,NA,NA,NA,NA,NA,NA,NA,NA,NA,NA,NA,NA,NA,NA,NA,NA,NA,NA,NA,NA,NA,NA,NA,7,0,7,0,1
SUPAMT92592,3WQ3B2KGEEFFAJIBCWX3OL79QNEB15,B58569C2-7A75-456A-8C62-3F280A8EBCDE,2023-09-27_14h42.04.165,WP_VExplicitOC_LH,2022.2.5,Win32,21.42382758,-62.76041667,5.334,2.0211,NA,NA,NA,NA,NA,bored,"bored, not bored","more bored, less bored",NA,NA,NA,NA,NA,NA,NA,NA,NA,NA,NA,NA,NA,NA,NA,NA,NA,NA,NA,NA,NA,NA,NA,NA,NA,NA,NA,NA,NA,NA,NA,NA,NA,NA,NA,NA,NA,NA,0,0,0,2,1,NA,NA,NA,NA,NA
SUPAMT92592,3WQ3B2KGEEFFAJIBCWX3OL79QNEB15,B58569C2-7A75-456A-8C62-3F280A8EBCDE,2023-09-27_14h42.04.165,WP_VExplicitOC_LH,2022.2.5,Win32,21.42382758,NA,NA,2.0613,NA,NA,NA,NA,NA,frustrated,"frustrated, not frustrated","more frustrated, less frustrated",NA,NA,NA,NA,NA,NA,NA,NA,NA,NA,NA,NA,NA,NA,NA,NA,NA,NA,NA,NA,NA,NA,NA,NA,NA,NA,NA,NA,NA,NA,NA,NA,NA,NA,NA,NA,NA,NA,0,1,1,1,1,NA,NA,NA,NA,NA
SUPAMT92592,3WQ3B2KGEEFFAJIBCWX3OL79QNEB15,B58569C2-7A75-456A-8C62-3F280A8EBCDE,2023-09-27_14h42.04.165,WP_VExplicitOC_LH,2022.2.5,Win32,21.42382758,-55.98958333,4.8464,2.0358,NA,NA,NA,NA,NA,happy,"unhappy, happy","less happy, more happy",NA,NA,NA,NA,NA,NA,NA,NA,NA,NA,NA,NA,NA,NA,NA,NA,NA,NA,NA,NA,NA,NA,NA,NA,NA,NA,NA,NA,NA,NA,NA,NA,NA,NA,NA,NA,NA,NA,0,2,2,0,1,NA,NA,NA,NA,NA
SUPAMT92592,3WQ3B2KGEEFFAJIBCWX3OL79QNEB15,B58569C2-7A75-456A-8C62-3F280A8EBCDE,2023-09-27_14h42.04.165,WP_VExplicitOC_LH,2022.2.5,Win32,21.42382758,NA,NA,NA,NA,NA,NA,NA,NA,NA,NA,NA,NA,NA,NA,NA,NA,NA,NA,NA,NA,NA,NA,NA,NA,NA,NA,NA,NA,NA,NA,NA,NA,NA,NA,NA,NA,NA,NA,NA,NA,NA,NA,NA,NA,NA,NA,NA,NA,NA,NA,NA,NA,NA,NA,8,0,8,0,1
SUPAMT92592,3WQ3B2KGEEFFAJIBCWX3OL79QNEB15,B58569C2-7A75-456A-8C62-3F280A8EBCDE,2023-09-27_14h42.04.165,WP_VExplicitOC_LH,2022.2.5,Win32,21.42382758,-42.70833333,7.0389,2.0231,NA,NA,NA,NA,NA,bored,"bored, not bored","more bored, less bored",NA,NA,NA,NA,NA,NA,NA,NA,NA,NA,NA,NA,NA,NA,NA,NA,NA,NA,NA,NA,NA,NA,NA,NA,NA,NA,NA,NA,NA,NA,NA,NA,NA,NA,NA,NA,NA,NA,0,0,0,2,1,NA,NA,NA,NA,NA
SUPAMT92592,3WQ3B2KGEEFFAJIBCWX3OL79QNEB15,B58569C2-7A75-456A-8C62-3F280A8EBCDE,2023-09-27_14h42.04.165,WP_VExplicitOC_LH,2022.2.5,Win32,21.42382758,-39.0625,5.0287,2.0637,NA,NA,NA,NA,NA,happy,"unhappy, happy","less happy, more happy",NA,NA,NA,NA,NA,NA,NA,NA,NA,NA,NA,NA,NA,NA,NA,NA,NA,NA,NA,NA,NA,NA,NA,NA,NA,NA,NA,NA,NA,NA,NA,NA,NA,NA,NA,NA,NA,NA,0,1,1,0,1,NA,NA,NA,NA,NA
SUPAMT92592,3WQ3B2KGEEFFAJIBCWX3OL79QNEB15,B58569C2-7A75-456A-8C62-3F280A8EBCDE,2023-09-27_14h42.04.165,WP_VExplicitOC_LH,2022.2.5,Win32,21.42382758,-44.79166667,4.953,2.0478,NA,NA,NA,NA,NA,frustrated,"frustrated, not frustrated","more frustrated, less frustrated",NA,NA,NA,NA,NA,NA,NA,NA,NA,NA,NA,NA,NA,NA,NA,NA,NA,NA,NA,NA,NA,NA,NA,NA,NA,NA,NA,NA,NA,NA,NA,NA,NA,NA,NA,NA,NA,NA,0,2,2,1,1,NA,NA,NA,NA,NA
SUPAMT92592,3WQ3B2KGEEFFAJIBCWX3OL79QNEB15,B58569C2-7A75-456A-8C62-3F280A8EBCDE,2023-09-27_14h42.04.165,WP_VExplicitOC_LH,2022.2.5,Win32,21.42382758,NA,NA,NA,NA,NA,NA,NA,NA,NA,NA,NA,NA,NA,NA,NA,NA,NA,NA,NA,NA,NA,NA,NA,NA,NA,NA,NA,NA,NA,NA,NA,NA,NA,NA,NA,NA,NA,NA,NA,NA,NA,NA,NA,NA,NA,NA,NA,NA,NA,NA,NA,NA,NA,NA,9,0,9,0,1
SUPAMT92592,3WQ3B2KGEEFFAJIBCWX3OL79QNEB15,B58569C2-7A75-456A-8C62-3F280A8EBCDE,2023-09-27_14h42.04.165,WP_VExplicitOC_LH,2022.2.5,Win32,21.42382758,-60.67708333,5.6012,2.0433,NA,NA,NA,NA,NA,happy,"unhappy, happy","less happy, more happy",NA,NA,NA,NA,NA,NA,NA,NA,NA,NA,NA,NA,NA,NA,NA,NA,NA,NA,NA,NA,NA,NA,NA,NA,NA,NA,NA,NA,NA,NA,NA,NA,NA,NA,NA,NA,NA,NA,0,0,0,0,1,NA,NA,NA,NA,NA
SUPAMT92592,3WQ3B2KGEEFFAJIBCWX3OL79QNEB15,B58569C2-7A75-456A-8C62-3F280A8EBCDE,2023-09-27_14h42.04.165,WP_VExplicitOC_LH,2022.2.5,Win32,21.42382758,-10.67708333,3.9416,2.0111,NA,NA,NA,NA,NA,bored,"bored, not bored","more bored, less bored",NA,NA,NA,NA,NA,NA,NA,NA,NA,NA,NA,NA,NA,NA,NA,NA,NA,NA,NA,NA,NA,NA,NA,NA,NA,NA,NA,NA,NA,NA,NA,NA,NA,NA,NA,NA,NA,NA,0,1,1,2,1,NA,NA,NA,NA,NA
SUPAMT92592,3WQ3B2KGEEFFAJIBCWX3OL79QNEB15,B58569C2-7A75-456A-8C62-3F280A8EBCDE,2023-09-27_14h42.04.165,WP_VExplicitOC_LH,2022.2.5,Win32,21.42382758,-85.67708333,4.5025,2.0441,NA,NA,NA,NA,NA,frustrated,"frustrated, not frustrated","more frustrated, less frustrated",NA,NA,NA,NA,NA,NA,NA,NA,NA,NA,NA,NA,NA,NA,NA,NA,NA,NA,NA,NA,NA,NA,NA,NA,NA,NA,NA,NA,NA,NA,NA,NA,NA,NA,NA,NA,NA,NA,0,2,2,1,1,NA,NA,NA,NA,NA
SUPAMT92592,3WQ3B2KGEEFFAJIBCWX3OL79QNEB15,B58569C2-7A75-456A-8C62-3F280A8EBCDE,2023-09-27_14h42.04.165,WP_VExplicitOC_LH,2022.2.5,Win32,21.42382758,NA,NA,NA,NA,NA,NA,NA,NA,NA,NA,NA,NA,NA,NA,NA,NA,NA,NA,NA,NA,NA,NA,NA,NA,NA,NA,NA,NA,NA,NA,NA,NA,NA,NA,NA,NA,NA,NA,NA,NA,NA,NA,NA,NA,NA,NA,NA,NA,NA,NA,NA,NA,NA,NA,10,0,10,0,1
SUPAMT92592,3WQ3B2KGEEFFAJIBCWX3OL79QNEB15,B58569C2-7A75-456A-8C62-3F280A8EBCDE,2023-09-27_14h42.04.165,WP_VExplicitOC_LH,2022.2.5,Win32,21.42382758,-41.92708333,4.1597,2.0206,NA,NA,NA,NA,NA,bored,"bored, not bored","more bored, less bored",NA,NA,NA,NA,NA,NA,NA,NA,NA,NA,NA,NA,NA,NA,NA,NA,NA,NA,NA,NA,NA,NA,NA,NA,NA,NA,NA,NA,NA,NA,NA,NA,NA,NA,NA,NA,NA,NA,0,0,0,2,1,NA,NA,NA,NA,NA
SUPAMT92592,3WQ3B2KGEEFFAJIBCWX3OL79QNEB15,B58569C2-7A75-456A-8C62-3F280A8EBCDE,2023-09-27_14h42.04.165,WP_VExplicitOC_LH,2022.2.5,Win32,21.42382758,-63.28125,6.0309,2.047,NA,NA,NA,NA,NA,frustrated,"frustrated, not frustrated","more frustrated, less frustrated",NA,NA,NA,NA,NA,NA,NA,NA,NA,NA,NA,NA,NA,NA,NA,NA,NA,NA,NA,NA,NA,NA,NA,NA,NA,NA,NA,NA,NA,NA,NA,NA,NA,NA,NA,NA,NA,NA,0,1,1,1,1,NA,NA,NA,NA,NA
SUPAMT92592,3WQ3B2KGEEFFAJIBCWX3OL79QNEB15,B58569C2-7A75-456A-8C62-3F280A8EBCDE,2023-09-27_14h42.04.165,WP_VExplicitOC_LH,2022.2.5,Win32,21.42382758,-31.25,6.7708,2.0518,NA,NA,NA,NA,NA,happy,"unhappy, happy","less happy, more happy",NA,NA,NA,NA,NA,NA,NA,NA,NA,NA,NA,NA,NA,NA,NA,NA,NA,NA,NA,NA,NA,NA,NA,NA,NA,NA,NA,NA,NA,NA,NA,NA,NA,NA,NA,NA,NA,NA,0,2,2,0,1,NA,NA,NA,NA,NA
SUPAMT92592,3WQ3B2KGEEFFAJIBCWX3OL79QNEB15,B58569C2-7A75-456A-8C62-3F280A8EBCDE,2023-09-27_14h42.04.165,WP_VExplicitOC_LH,2022.2.5,Win32,21.42382758,NA,NA,NA,NA,NA,NA,NA,NA,NA,NA,NA,NA,NA,NA,NA,NA,NA,NA,NA,NA,NA,NA,NA,NA,NA,NA,NA,NA,NA,NA,NA,NA,NA,NA,NA,NA,NA,NA,NA,NA,NA,NA,NA,NA,NA,NA,NA,NA,NA,NA,NA,NA,NA,NA,11,0,11,0,1
SUPAMT92592,3WQ3B2KGEEFFAJIBCWX3OL79QNEB15,B58569C2-7A75-456A-8C62-3F280A8EBCDE,2023-09-27_14h42.04.165,WP_VExplicitOC_LH,2022.2.5,Win32,21.42382758,-30.98958333,5.2706,2.0685,NA,NA,NA,NA,NA,frustrated,"frustrated, not frustrated","more frustrated, less frustrated",NA,NA,NA,NA,NA,NA,NA,NA,NA,NA,NA,NA,NA,NA,NA,NA,NA,NA,NA,NA,NA,NA,NA,NA,NA,NA,NA,NA,NA,NA,NA,NA,NA,NA,NA,NA,NA,NA,0,0,0,1,1,NA,NA,NA,NA,NA
SUPAMT92592,3WQ3B2KGEEFFAJIBCWX3OL79QNEB15,B58569C2-7A75-456A-8C62-3F280A8EBCDE,2023-09-27_14h42.04.165,WP_VExplicitOC_LH,2022.2.5,Win32,21.42382758,-22.65625,4.4581,2.0676,NA,NA,NA,NA,NA,happy,"unhappy, happy","less happy, more happy",NA,NA,NA,NA,NA,NA,NA,NA,NA,NA,NA,NA,NA,NA,NA,NA,NA,NA,NA,NA,NA,NA,NA,NA,NA,NA,NA,NA,NA,NA,NA,NA,NA,NA,NA,NA,NA,NA,0,1,1,0,1,NA,NA,NA,NA,NA
SUPAMT92592,3WQ3B2KGEEFFAJIBCWX3OL79QNEB15,B58569C2-7A75-456A-8C62-3F280A8EBCDE,2023-09-27_14h42.04.165,WP_VExplicitOC_LH,2022.2.5,Win32,21.42382758,-60.9375,4.6711,2.0373,NA,NA,NA,NA,NA,bored,"bored, not bored","more bored, less bored",NA,NA,NA,NA,NA,NA,NA,NA,NA,NA,NA,NA,NA,NA,NA,NA,NA,NA,NA,NA,NA,NA,NA,NA,NA,NA,NA,NA,NA,NA,NA,NA,NA,NA,NA,NA,NA,NA,0,2,2,2,1,NA,NA,NA,NA,NA
SUPAMT92592,3WQ3B2KGEEFFAJIBCWX3OL79QNEB15,B58569C2-7A75-456A-8C62-3F280A8EBCDE,2023-09-27_14h42.04.165,WP_VExplicitOC_LH,2022.2.5,Win32,21.42382758,NA,NA,NA,NA,NA,NA,NA,NA,NA,NA,NA,NA,NA,NA,NA,NA,NA,NA,NA,NA,NA,NA,NA,NA,NA,NA,NA,NA,NA,NA,NA,NA,NA,NA,NA,NA,NA,NA,NA,NA,NA,NA,NA,NA,NA,NA,NA,NA,NA,NA,NA,NA,NA,NA,12,0,12,0,1
SUPAMT92592,3WQ3B2KGEEFFAJIBCWX3OL79QNEB15,B58569C2-7A75-456A-8C62-3F280A8EBCDE,2023-09-27_14h42.04.165,WP_VExplicitOC_LH,2022.2.5,Win32,21.42382758,-75.52083333,4.9163,2.0285,NA,NA,NA,NA,NA,frustrated,"frustrated, not frustrated","more frustrated, less frustrated",NA,NA,NA,NA,NA,NA,NA,NA,NA,NA,NA,NA,NA,NA,NA,NA,NA,NA,NA,NA,NA,NA,NA,NA,NA,NA,NA,NA,NA,NA,NA,NA,NA,NA,NA,NA,NA,NA,0,0,0,1,1,NA,NA,NA,NA,NA
SUPAMT92592,3WQ3B2KGEEFFAJIBCWX3OL79QNEB15,B58569C2-7A75-456A-8C62-3F280A8EBCDE,2023-09-27_14h42.04.165,WP_VExplicitOC_LH,2022.2.5,Win32,21.42382758,-51.04166667,6.2286,2.0637,NA,NA,NA,NA,NA,happy,"unhappy, happy","less happy, more happy",NA,NA,NA,NA,NA,NA,NA,NA,NA,NA,NA,NA,NA,NA,NA,NA,NA,NA,NA,NA,NA,NA,NA,NA,NA,NA,NA,NA,NA,NA,NA,NA,NA,NA,NA,NA,NA,NA,0,1,1,0,1,NA,NA,NA,NA,NA
SUPAMT92592,3WQ3B2KGEEFFAJIBCWX3OL79QNEB15,B58569C2-7A75-456A-8C62-3F280A8EBCDE,2023-09-27_14h42.04.165,WP_VExplicitOC_LH,2022.2.5,Win32,21.42382758,-84.375,4.6388,2.0498,NA,NA,NA,NA,NA,bored,"bored, not bored","more bored, less bored",NA,NA,NA,NA,NA,NA,NA,NA,NA,NA,NA,NA,NA,NA,NA,NA,NA,NA,NA,NA,NA,NA,NA,NA,NA,NA,NA,NA,NA,NA,NA,NA,NA,NA,NA,NA,NA,NA,0,2,2,2,1,NA,NA,NA,NA,NA
SUPAMT92592,3WQ3B2KGEEFFAJIBCWX3OL79QNEB15,B58569C2-7A75-456A-8C62-3F280A8EBCDE,2023-09-27_14h42.04.165,WP_VExplicitOC_LH,2022.2.5,Win32,21.42382758,NA,NA,NA,NA,NA,NA,NA,NA,NA,NA,NA,NA,NA,NA,NA,NA,NA,NA,NA,NA,NA,NA,NA,NA,NA,NA,NA,NA,NA,NA,NA,NA,NA,NA,NA,NA,NA,NA,NA,NA,NA,NA,NA,NA,NA,NA,NA,NA,NA,NA,NA,NA,NA,NA,13,0,13,0,1
SUPAMT92592,3WQ3B2KGEEFFAJIBCWX3OL79QNEB15,B58569C2-7A75-456A-8C62-3F280A8EBCDE,2023-09-27_14h42.04.165,WP_VExplicitOC_LH,2022.2.5,Win32,21.42382758,-76.82291667,4.4127,2.0583,NA,NA,NA,NA,NA,bored,"bored, not bored","more bored, less bored",NA,NA,NA,NA,NA,NA,NA,NA,NA,NA,NA,NA,NA,NA,NA,NA,NA,NA,NA,NA,NA,NA,NA,NA,NA,NA,NA,NA,NA,NA,NA,NA,NA,NA,NA,NA,NA,NA,0,0,0,2,1,NA,NA,NA,NA,NA
SUPAMT92592,3WQ3B2KGEEFFAJIBCWX3OL79QNEB15,B58569C2-7A75-456A-8C62-3F280A8EBCDE,2023-09-27_14h42.04.165,WP_VExplicitOC_LH,2022.2.5,Win32,21.42382758,NA,NA,2.0095,NA,NA,NA,NA,NA,frustrated,"frustrated, not frustrated","more frustrated, less frustrated",NA,NA,NA,NA,NA,NA,NA,NA,NA,NA,NA,NA,NA,NA,NA,NA,NA,NA,NA,NA,NA,NA,NA,NA,NA,NA,NA,NA,NA,NA,NA,NA,NA,NA,NA,NA,NA,NA,0,1,1,1,1,NA,NA,NA,NA,NA
SUPAMT92592,3WQ3B2KGEEFFAJIBCWX3OL79QNEB15,B58569C2-7A75-456A-8C62-3F280A8EBCDE,2023-09-27_14h42.04.165,WP_VExplicitOC_LH,2022.2.5,Win32,21.42382758,-11.19791667,5.3153,2.0575,NA,NA,NA,NA,NA,happy,"unhappy, happy","less happy, more happy",NA,NA,NA,NA,NA,NA,NA,NA,NA,NA,NA,NA,NA,NA,NA,NA,NA,NA,NA,NA,NA,NA,NA,NA,NA,NA,NA,NA,NA,NA,NA,NA,NA,NA,NA,NA,NA,NA,0,2,2,0,1,NA,NA,NA,NA,NA
SUPAMT92592,3WQ3B2KGEEFFAJIBCWX3OL79QNEB15,B58569C2-7A75-456A-8C62-3F280A8EBCDE,2023-09-27_14h42.04.165,WP_VExplicitOC_LH,2022.2.5,Win32,21.42382758,NA,NA,NA,NA,NA,NA,NA,NA,NA,NA,NA,NA,NA,NA,NA,NA,NA,NA,NA,NA,NA,NA,NA,NA,NA,NA,NA,NA,NA,NA,NA,NA,NA,NA,NA,NA,NA,NA,NA,NA,NA,NA,NA,NA,NA,NA,NA,NA,NA,NA,NA,NA,NA,NA,14,0,14,0,1
SUPAMT92592,3WQ3B2KGEEFFAJIBCWX3OL79QNEB15,B58569C2-7A75-456A-8C62-3F280A8EBCDE,2023-09-27_14h42.04.165,WP_VExplicitOC_LH,2022.2.5,Win32,21.42382758,NA,NA,NA,NA,NA,NA,NA,NA,NA,NA,NA,NA,NA,NA,NA,NA,NA,NA,NA,NA,NA,NA,NA,NA,NA,NA,NA,NA,NA,NA,NA,NA,NA,NA,NA,NA,NA,NA,NA,NA,NA,NA,NA,NA,NA,NA,NA,NA,NA,NA,NA,NA,NA,NA,NA,NA,NA,NA,NA
