participant,session,completion,date,expName,psychopyVersion,OS,frameRate,rating_all.response,rating_all.rt,rating_all.tStart,rndRat1.thisRepN,rndRat1.thisTrialN,rndRat1.thisN,rndRat1.thisIndex,rndRat1.ran,Emo,Labs,Labs2,rating_alt.response,rating_alt.rt,AltC.thisRepN,AltC.thisTrialN,AltC.thisN,AltC.thisIndex,AltC.ran,alt_choices,pic_choices,TopAlt_Choice,rndRat2.thisRepN,rndRat2.thisTrialN,rndRat2.thisN,rndRat2.thisIndex,rndRat2.ran,rndRat3.thisRepN,rndRat3.thisTrialN,rndRat3.thisN,rndRat3.thisIndex,rndRat3.ran,trials_FC_H.thisRepN,trials_FC_H.thisTrialN,trials_FC_H.thisN,trials_FC_H.thisIndex,trials_FC_H.ran,rating_alt_2.response,rating_alt_2.rt,AltC2.thisRepN,AltC2.thisTrialN,AltC2.thisN,AltC2.thisIndex,AltC2.ran,BottomAlt_Choice,rndRat4.thisRepN,rndRat4.thisTrialN,rndRat4.thisN,rndRat4.thisIndex,rndRat4.ran,rndRat5.thisRepN,rndRat5.thisTrialN,rndRat5.thisN,rndRat5.thisIndex,rndRat5.ran,trials_FC_L.thisRepN,trials_FC_L.thisTrialN,trials_FC_L.thisN,trials_FC_L.thisIndex,trials_FC_L.ran
SUPAMT01522,3AWETUDC98RMSNHPQHYC22VYXLCZID,9620EA71-190C-48F4-9218-7B2F2C28F355,2023-09-26_12h11.07.758,WP_VExplicitOC_HL,2022.2.5,Win32,22.06336599,NA,NA,NA,NA,NA,NA,NA,NA,NA,NA,NA,NA,NA,NA,NA,NA,NA,NA,NA,NA,NA,NA,NA,NA,NA,NA,NA,NA,NA,NA,NA,NA,NA,NA,NA,NA,NA,NA,NA,NA,NA,NA,NA,NA,NA,NA,NA,NA,NA,NA,NA,NA,NA,NA,NA,NA,NA,NA,NA
SUPAMT01522,3AWETUDC98RMSNHPQHYC22VYXLCZID,9620EA71-190C-48F4-9218-7B2F2C28F355,2023-09-26_12h11.07.758,WP_VExplicitOC_HL,2022.2.5,Win32,22.06336599,NA,NA,NA,NA,NA,NA,NA,NA,NA,NA,NA,NA,NA,NA,NA,NA,NA,NA,NA,NA,NA,NA,NA,NA,NA,NA,NA,NA,NA,NA,NA,NA,NA,NA,NA,NA,NA,NA,NA,NA,NA,NA,NA,NA,NA,NA,NA,NA,NA,NA,NA,NA,NA,NA,NA,NA,NA,NA,NA
SUPAMT01522,3AWETUDC98RMSNHPQHYC22VYXLCZID,9620EA71-190C-48F4-9218-7B2F2C28F355,2023-09-26_12h11.07.758,WP_VExplicitOC_HL,2022.2.5,Win32,22.06336599,NA,NA,NA,NA,NA,NA,NA,NA,NA,NA,NA,NA,NA,NA,NA,NA,NA,NA,NA,NA,NA,NA,NA,NA,NA,NA,NA,NA,NA,NA,NA,NA,NA,NA,NA,NA,NA,NA,NA,NA,NA,NA,NA,NA,NA,NA,NA,NA,NA,NA,NA,NA,NA,NA,NA,NA,NA,NA,NA
SUPAMT01522,3AWETUDC98RMSNHPQHYC22VYXLCZID,9620EA71-190C-48F4-9218-7B2F2C28F355,2023-09-26_12h11.07.758,WP_VExplicitOC_HL,2022.2.5,Win32,22.06336599,38.80208333,3.55,2.0251,0,0,0,0,1,happy,"unhappy, happy","less happy, more happy",NA,NA,NA,NA,NA,NA,NA,NA,NA,NA,NA,NA,NA,NA,NA,NA,NA,NA,NA,NA,NA,NA,NA,NA,NA,NA,NA,NA,NA,NA,NA,NA,NA,NA,NA,NA,NA,NA,NA,NA,NA,NA,NA,NA,NA,NA,NA,NA
SUPAMT01522,3AWETUDC98RMSNHPQHYC22VYXLCZID,9620EA71-190C-48F4-9218-7B2F2C28F355,2023-09-26_12h11.07.758,WP_VExplicitOC_HL,2022.2.5,Win32,22.06336599,36.71875,3.4957,2.01,0,1,1,1,1,frustrated,"frustrated, not frustrated","more frustrated, less frustrated",NA,NA,NA,NA,NA,NA,NA,NA,NA,NA,NA,NA,NA,NA,NA,NA,NA,NA,NA,NA,NA,NA,NA,NA,NA,NA,NA,NA,NA,NA,NA,NA,NA,NA,NA,NA,NA,NA,NA,NA,NA,NA,NA,NA,NA,NA,NA,NA
SUPAMT01522,3AWETUDC98RMSNHPQHYC22VYXLCZID,9620EA71-190C-48F4-9218-7B2F2C28F355,2023-09-26_12h11.07.758,WP_VExplicitOC_HL,2022.2.5,Win32,22.06336599,40.88541667,3.6054,2.0469,0,2,2,2,1,bored,"bored, not bored","more bored, less bored",NA,NA,NA,NA,NA,NA,NA,NA,NA,NA,NA,NA,NA,NA,NA,NA,NA,NA,NA,NA,NA,NA,NA,NA,NA,NA,NA,NA,NA,NA,NA,NA,NA,NA,NA,NA,NA,NA,NA,NA,NA,NA,NA,NA,NA,NA,NA,NA
SUPAMT01522,3AWETUDC98RMSNHPQHYC22VYXLCZID,9620EA71-190C-48F4-9218-7B2F2C28F355,2023-09-26_12h11.07.758,WP_VExplicitOC_HL,2022.2.5,Win32,22.06336599,NA,NA,NA,NA,NA,NA,NA,NA,NA,NA,NA,NA,NA,NA,NA,NA,NA,NA,NA,NA,NA,NA,NA,NA,NA,NA,NA,NA,NA,NA,NA,NA,NA,NA,NA,NA,NA,NA,NA,NA,NA,NA,NA,NA,NA,NA,NA,NA,NA,NA,NA,NA,NA,NA,NA,NA,NA,NA,NA
SUPAMT01522,3AWETUDC98RMSNHPQHYC22VYXLCZID,9620EA71-190C-48F4-9218-7B2F2C28F355,2023-09-26_12h11.07.758,WP_VExplicitOC_HL,2022.2.5,Win32,22.06336599,NA,NA,NA,NA,NA,NA,NA,NA,NA,NA,NA,NA,NA,NA,NA,NA,NA,NA,NA,NA,NA,NA,NA,NA,NA,NA,NA,NA,NA,NA,NA,NA,NA,NA,NA,NA,NA,NA,NA,NA,NA,NA,NA,NA,NA,NA,NA,NA,NA,NA,NA,NA,NA,NA,NA,NA,NA,NA,NA
SUPAMT01522,3AWETUDC98RMSNHPQHYC22VYXLCZID,9620EA71-190C-48F4-9218-7B2F2C28F355,2023-09-26_12h11.07.758,WP_VExplicitOC_HL,2022.2.5,Win32,22.06336599,NA,NA,NA,NA,NA,NA,NA,NA,NA,NA,NA,NA,NA,NA,NA,NA,NA,NA,NA,NA,NA,NA,NA,NA,NA,NA,NA,NA,NA,NA,NA,NA,NA,NA,NA,NA,NA,NA,NA,NA,NA,NA,NA,NA,NA,NA,NA,NA,NA,NA,NA,NA,NA,NA,NA,NA,NA,NA,NA
SUPAMT01522,3AWETUDC98RMSNHPQHYC22VYXLCZID,9620EA71-190C-48F4-9218-7B2F2C28F355,2023-09-26_12h11.07.758,WP_VExplicitOC_HL,2022.2.5,Win32,22.06336599,NA,NA,NA,NA,NA,NA,NA,NA,NA,NA,NA,NA,NA,NA,NA,NA,NA,NA,NA,NA,NA,NA,NA,NA,NA,NA,NA,NA,NA,NA,NA,NA,NA,NA,NA,NA,NA,NA,NA,NA,NA,NA,NA,NA,NA,NA,NA,NA,NA,NA,NA,NA,NA,NA,NA,NA,NA,NA,NA
SUPAMT01522,3AWETUDC98RMSNHPQHYC22VYXLCZID,9620EA71-190C-48F4-9218-7B2F2C28F355,2023-09-26_12h11.07.758,WP_VExplicitOC_HL,2022.2.5,Win32,22.06336599,NA,NA,NA,NA,NA,NA,NA,NA,NA,NA,NA,44.53125,2.61,0,0,0,0,1,rest (looking at a fixed cross),001.png,NA,NA,NA,NA,NA,NA,NA,NA,NA,NA,NA,NA,NA,NA,NA,NA,NA,NA,NA,NA,NA,NA,NA,NA,NA,NA,NA,NA,NA,NA,NA,NA,NA,NA,NA,NA,NA,NA,NA
SUPAMT01522,3AWETUDC98RMSNHPQHYC22VYXLCZID,9620EA71-190C-48F4-9218-7B2F2C28F355,2023-09-26_12h11.07.758,WP_VExplicitOC_HL,2022.2.5,Win32,22.06336599,NA,NA,NA,NA,NA,NA,NA,NA,NA,NA,NA,46.61458333,1.6937,0,1,1,1,1,stand up,002.png,NA,NA,NA,NA,NA,NA,NA,NA,NA,NA,NA,NA,NA,NA,NA,NA,NA,NA,NA,NA,NA,NA,NA,NA,NA,NA,NA,NA,NA,NA,NA,NA,NA,NA,NA,NA,NA,NA,NA
SUPAMT01522,3AWETUDC98RMSNHPQHYC22VYXLCZID,9620EA71-190C-48F4-9218-7B2F2C28F355,2023-09-26_12h11.07.758,WP_VExplicitOC_HL,2022.2.5,Win32,22.06336599,NA,NA,NA,NA,NA,NA,NA,NA,NA,NA,NA,47.91666667,1.5127,0,2,2,2,1,stretch,003.png,NA,NA,NA,NA,NA,NA,NA,NA,NA,NA,NA,NA,NA,NA,NA,NA,NA,NA,NA,NA,NA,NA,NA,NA,NA,NA,NA,NA,NA,NA,NA,NA,NA,NA,NA,NA,NA,NA,NA
SUPAMT01522,3AWETUDC98RMSNHPQHYC22VYXLCZID,9620EA71-190C-48F4-9218-7B2F2C28F355,2023-09-26_12h11.07.758,WP_VExplicitOC_HL,2022.2.5,Win32,22.06336599,NA,NA,NA,NA,NA,NA,NA,NA,NA,NA,NA,50.78125,1.2963,0,3,3,3,1,make a drink,004.png,NA,NA,NA,NA,NA,NA,NA,NA,NA,NA,NA,NA,NA,NA,NA,NA,NA,NA,NA,NA,NA,NA,NA,NA,NA,NA,NA,NA,NA,NA,NA,NA,NA,NA,NA,NA,NA,NA,NA
SUPAMT01522,3AWETUDC98RMSNHPQHYC22VYXLCZID,9620EA71-190C-48F4-9218-7B2F2C28F355,2023-09-26_12h11.07.758,WP_VExplicitOC_HL,2022.2.5,Win32,22.06336599,NA,NA,NA,NA,NA,NA,NA,NA,NA,NA,NA,50.78125,0.1238,0,4,4,4,1,scroll social media,005.png,NA,NA,NA,NA,NA,NA,NA,NA,NA,NA,NA,NA,NA,NA,NA,NA,NA,NA,NA,NA,NA,NA,NA,NA,NA,NA,NA,NA,NA,NA,NA,NA,NA,NA,NA,NA,NA,NA,NA
SUPAMT01522,3AWETUDC98RMSNHPQHYC22VYXLCZID,9620EA71-190C-48F4-9218-7B2F2C28F355,2023-09-26_12h11.07.758,WP_VExplicitOC_HL,2022.2.5,Win32,22.06336599,NA,NA,NA,NA,NA,NA,NA,NA,NA,NA,NA,53.38541667,1.2168,0,5,5,5,1,listen to music,006.png,NA,NA,NA,NA,NA,NA,NA,NA,NA,NA,NA,NA,NA,NA,NA,NA,NA,NA,NA,NA,NA,NA,NA,NA,NA,NA,NA,NA,NA,NA,NA,NA,NA,NA,NA,NA,NA,NA,NA
SUPAMT01522,3AWETUDC98RMSNHPQHYC22VYXLCZID,9620EA71-190C-48F4-9218-7B2F2C28F355,2023-09-26_12h11.07.758,WP_VExplicitOC_HL,2022.2.5,Win32,22.06336599,NA,NA,NA,NA,NA,NA,NA,NA,NA,NA,NA,71.875,1.2366,0,6,6,6,1,daydream,007.png,NA,NA,NA,NA,NA,NA,NA,NA,NA,NA,NA,NA,NA,NA,NA,NA,NA,NA,NA,NA,NA,NA,NA,NA,NA,NA,NA,NA,NA,NA,NA,NA,NA,NA,NA,NA,NA,NA,NA
SUPAMT01522,3AWETUDC98RMSNHPQHYC22VYXLCZID,9620EA71-190C-48F4-9218-7B2F2C28F355,2023-09-26_12h11.07.758,WP_VExplicitOC_HL,2022.2.5,Win32,22.06336599,NA,NA,NA,NA,NA,NA,NA,NA,NA,NA,NA,62.23958333,1.4231,0,7,7,7,1,watch a short animation,008.png,NA,NA,NA,NA,NA,NA,NA,NA,NA,NA,NA,NA,NA,NA,NA,NA,NA,NA,NA,NA,NA,NA,NA,NA,NA,NA,NA,NA,NA,NA,NA,NA,NA,NA,NA,NA,NA,NA,NA
SUPAMT01522,3AWETUDC98RMSNHPQHYC22VYXLCZID,9620EA71-190C-48F4-9218-7B2F2C28F355,2023-09-26_12h11.07.758,WP_VExplicitOC_HL,2022.2.5,Win32,22.06336599,NA,NA,NA,NA,NA,NA,NA,NA,NA,NA,NA,54.6875,1.6158,0,8,8,8,1,read a novel,009.png,NA,NA,NA,NA,NA,NA,NA,NA,NA,NA,NA,NA,NA,NA,NA,NA,NA,NA,NA,NA,NA,NA,NA,NA,NA,NA,NA,NA,NA,NA,NA,NA,NA,NA,NA,NA,NA,NA,NA
SUPAMT01522,3AWETUDC98RMSNHPQHYC22VYXLCZID,9620EA71-190C-48F4-9218-7B2F2C28F355,2023-09-26_12h11.07.758,WP_VExplicitOC_HL,2022.2.5,Win32,22.06336599,NA,NA,NA,NA,NA,NA,NA,NA,NA,NA,NA,44.79166667,1.4712,0,9,9,9,1,read the news,010.png,NA,NA,NA,NA,NA,NA,NA,NA,NA,NA,NA,NA,NA,NA,NA,NA,NA,NA,NA,NA,NA,NA,NA,NA,NA,NA,NA,NA,NA,NA,NA,NA,NA,NA,NA,NA,NA,NA,NA
SUPAMT01522,3AWETUDC98RMSNHPQHYC22VYXLCZID,9620EA71-190C-48F4-9218-7B2F2C28F355,2023-09-26_12h11.07.758,WP_VExplicitOC_HL,2022.2.5,Win32,22.06336599,NA,NA,NA,NA,NA,NA,NA,NA,NA,NA,NA,NA,NA,NA,NA,NA,NA,NA,NA,NA,NA,NA,NA,NA,NA,NA,NA,NA,NA,NA,NA,NA,NA,NA,NA,NA,NA,NA,NA,NA,NA,NA,NA,NA,NA,NA,NA,NA,NA,NA,NA,NA,NA,NA,NA,NA,NA,NA,NA
SUPAMT01522,3AWETUDC98RMSNHPQHYC22VYXLCZID,9620EA71-190C-48F4-9218-7B2F2C28F355,2023-09-26_12h11.07.758,WP_VExplicitOC_HL,2022.2.5,Win32,22.06336599,NA,NA,NA,NA,NA,NA,NA,NA,NA,NA,NA,NA,NA,NA,NA,NA,NA,NA,NA,NA,daydream,NA,NA,NA,NA,NA,NA,NA,NA,NA,NA,NA,NA,NA,NA,NA,NA,NA,NA,NA,NA,NA,NA,NA,NA,NA,NA,NA,NA,NA,NA,NA,NA,NA,NA,NA,NA,NA,NA
SUPAMT01522,3AWETUDC98RMSNHPQHYC22VYXLCZID,9620EA71-190C-48F4-9218-7B2F2C28F355,2023-09-26_12h11.07.758,WP_VExplicitOC_HL,2022.2.5,Win32,22.06336599,35.41666667,4.1814,2.0202,NA,NA,NA,NA,NA,frustrated,"frustrated, not frustrated","more frustrated, less frustrated",NA,NA,NA,NA,NA,NA,NA,NA,NA,NA,0,0,0,1,1,NA,NA,NA,NA,NA,NA,NA,NA,NA,NA,NA,NA,NA,NA,NA,NA,NA,NA,NA,NA,NA,NA,NA,NA,NA,NA,NA,NA,NA,NA,NA,NA,NA
SUPAMT01522,3AWETUDC98RMSNHPQHYC22VYXLCZID,9620EA71-190C-48F4-9218-7B2F2C28F355,2023-09-26_12h11.07.758,WP_VExplicitOC_HL,2022.2.5,Win32,22.06336599,41.14583333,3.3231,2.031,NA,NA,NA,NA,NA,bored,"bored, not bored","more bored, less bored",NA,NA,NA,NA,NA,NA,NA,NA,NA,NA,0,1,1,2,1,NA,NA,NA,NA,NA,NA,NA,NA,NA,NA,NA,NA,NA,NA,NA,NA,NA,NA,NA,NA,NA,NA,NA,NA,NA,NA,NA,NA,NA,NA,NA,NA,NA
SUPAMT01522,3AWETUDC98RMSNHPQHYC22VYXLCZID,9620EA71-190C-48F4-9218-7B2F2C28F355,2023-09-26_12h11.07.758,WP_VExplicitOC_HL,2022.2.5,Win32,22.06336599,46.875,3.2533,2.0564,NA,NA,NA,NA,NA,happy,"unhappy, happy","less happy, more happy",NA,NA,NA,NA,NA,NA,NA,NA,NA,NA,0,2,2,0,1,NA,NA,NA,NA,NA,NA,NA,NA,NA,NA,NA,NA,NA,NA,NA,NA,NA,NA,NA,NA,NA,NA,NA,NA,NA,NA,NA,NA,NA,NA,NA,NA,NA
SUPAMT01522,3AWETUDC98RMSNHPQHYC22VYXLCZID,9620EA71-190C-48F4-9218-7B2F2C28F355,2023-09-26_12h11.07.758,WP_VExplicitOC_HL,2022.2.5,Win32,22.06336599,NA,NA,NA,NA,NA,NA,NA,NA,NA,NA,NA,NA,NA,NA,NA,NA,NA,NA,NA,NA,NA,NA,NA,NA,NA,NA,NA,NA,NA,NA,NA,NA,NA,NA,NA,NA,NA,NA,NA,NA,NA,NA,NA,NA,NA,NA,NA,NA,NA,NA,NA,NA,NA,NA,NA,NA,NA,NA,NA
SUPAMT01522,3AWETUDC98RMSNHPQHYC22VYXLCZID,9620EA71-190C-48F4-9218-7B2F2C28F355,2023-09-26_12h11.07.758,WP_VExplicitOC_HL,2022.2.5,Win32,22.06336599,NA,NA,NA,NA,NA,NA,NA,NA,NA,NA,NA,NA,NA,NA,NA,NA,NA,NA,NA,NA,NA,NA,NA,NA,NA,NA,NA,NA,NA,NA,NA,NA,NA,NA,NA,NA,NA,NA,NA,NA,NA,NA,NA,NA,NA,NA,NA,NA,NA,NA,NA,NA,NA,NA,NA,NA,NA,NA,NA
SUPAMT01522,3AWETUDC98RMSNHPQHYC22VYXLCZID,9620EA71-190C-48F4-9218-7B2F2C28F355,2023-09-26_12h11.07.758,WP_VExplicitOC_HL,2022.2.5,Win32,22.06336599,39.58333333,7.4216,2.0424,NA,NA,NA,NA,NA,happy,"unhappy, happy","less happy, more happy",NA,NA,NA,NA,NA,NA,NA,NA,NA,NA,NA,NA,NA,NA,NA,0,0,0,0,1,NA,NA,NA,NA,NA,NA,NA,NA,NA,NA,NA,NA,NA,NA,NA,NA,NA,NA,NA,NA,NA,NA,NA,NA,NA,NA,NA,NA
SUPAMT01522,3AWETUDC98RMSNHPQHYC22VYXLCZID,9620EA71-190C-48F4-9218-7B2F2C28F355,2023-09-26_12h11.07.758,WP_VExplicitOC_HL,2022.2.5,Win32,22.06336599,59.89583333,3.501,2.0236,NA,NA,NA,NA,NA,bored,"bored, not bored","more bored, less bored",NA,NA,NA,NA,NA,NA,NA,NA,NA,NA,NA,NA,NA,NA,NA,0,1,1,2,1,NA,NA,NA,NA,NA,NA,NA,NA,NA,NA,NA,NA,NA,NA,NA,NA,NA,NA,NA,NA,NA,NA,NA,NA,NA,NA,NA,NA
SUPAMT01522,3AWETUDC98RMSNHPQHYC22VYXLCZID,9620EA71-190C-48F4-9218-7B2F2C28F355,2023-09-26_12h11.07.758,WP_VExplicitOC_HL,2022.2.5,Win32,22.06336599,45.05208333,3.6108,2.004,NA,NA,NA,NA,NA,frustrated,"frustrated, not frustrated","more frustrated, less frustrated",NA,NA,NA,NA,NA,NA,NA,NA,NA,NA,NA,NA,NA,NA,NA,0,2,2,1,1,NA,NA,NA,NA,NA,NA,NA,NA,NA,NA,NA,NA,NA,NA,NA,NA,NA,NA,NA,NA,NA,NA,NA,NA,NA,NA,NA,NA
SUPAMT01522,3AWETUDC98RMSNHPQHYC22VYXLCZID,9620EA71-190C-48F4-9218-7B2F2C28F355,2023-09-26_12h11.07.758,WP_VExplicitOC_HL,2022.2.5,Win32,22.06336599,NA,NA,NA,NA,NA,NA,NA,NA,NA,NA,NA,NA,NA,NA,NA,NA,NA,NA,NA,NA,NA,NA,NA,NA,NA,NA,NA,NA,NA,NA,NA,0,0,0,0,1,NA,NA,NA,NA,NA,NA,NA,NA,NA,NA,NA,NA,NA,NA,NA,NA,NA,NA,NA,NA,NA,NA,NA
SUPAMT01522,3AWETUDC98RMSNHPQHYC22VYXLCZID,9620EA71-190C-48F4-9218-7B2F2C28F355,2023-09-26_12h11.07.758,WP_VExplicitOC_HL,2022.2.5,Win32,22.06336599,46.35416667,3.3468,2.0647,NA,NA,NA,NA,NA,bored,"bored, not bored","more bored, less bored",NA,NA,NA,NA,NA,NA,NA,NA,NA,NA,NA,NA,NA,NA,NA,0,0,0,2,1,NA,NA,NA,NA,NA,NA,NA,NA,NA,NA,NA,NA,NA,NA,NA,NA,NA,NA,NA,NA,NA,NA,NA,NA,NA,NA,NA,NA
SUPAMT01522,3AWETUDC98RMSNHPQHYC22VYXLCZID,9620EA71-190C-48F4-9218-7B2F2C28F355,2023-09-26_12h11.07.758,WP_VExplicitOC_HL,2022.2.5,Win32,22.06336599,36.97916667,3.3934,2.0271,NA,NA,NA,NA,NA,happy,"unhappy, happy","less happy, more happy",NA,NA,NA,NA,NA,NA,NA,NA,NA,NA,NA,NA,NA,NA,NA,0,1,1,0,1,NA,NA,NA,NA,NA,NA,NA,NA,NA,NA,NA,NA,NA,NA,NA,NA,NA,NA,NA,NA,NA,NA,NA,NA,NA,NA,NA,NA
SUPAMT01522,3AWETUDC98RMSNHPQHYC22VYXLCZID,9620EA71-190C-48F4-9218-7B2F2C28F355,2023-09-26_12h11.07.758,WP_VExplicitOC_HL,2022.2.5,Win32,22.06336599,54.16666667,3.3571,2.0146,NA,NA,NA,NA,NA,frustrated,"frustrated, not frustrated","more frustrated, less frustrated",NA,NA,NA,NA,NA,NA,NA,NA,NA,NA,NA,NA,NA,NA,NA,0,2,2,1,1,NA,NA,NA,NA,NA,NA,NA,NA,NA,NA,NA,NA,NA,NA,NA,NA,NA,NA,NA,NA,NA,NA,NA,NA,NA,NA,NA,NA
SUPAMT01522,3AWETUDC98RMSNHPQHYC22VYXLCZID,9620EA71-190C-48F4-9218-7B2F2C28F355,2023-09-26_12h11.07.758,WP_VExplicitOC_HL,2022.2.5,Win32,22.06336599,NA,NA,NA,NA,NA,NA,NA,NA,NA,NA,NA,NA,NA,NA,NA,NA,NA,NA,NA,NA,NA,NA,NA,NA,NA,NA,NA,NA,NA,NA,NA,1,0,1,0,1,NA,NA,NA,NA,NA,NA,NA,NA,NA,NA,NA,NA,NA,NA,NA,NA,NA,NA,NA,NA,NA,NA,NA
SUPAMT01522,3AWETUDC98RMSNHPQHYC22VYXLCZID,9620EA71-190C-48F4-9218-7B2F2C28F355,2023-09-26_12h11.07.758,WP_VExplicitOC_HL,2022.2.5,Win32,22.06336599,38.28125,6.2135,2.0941,NA,NA,NA,NA,NA,frustrated,"frustrated, not frustrated","more frustrated, less frustrated",NA,NA,NA,NA,NA,NA,NA,NA,NA,NA,NA,NA,NA,NA,NA,0,0,0,1,1,NA,NA,NA,NA,NA,NA,NA,NA,NA,NA,NA,NA,NA,NA,NA,NA,NA,NA,NA,NA,NA,NA,NA,NA,NA,NA,NA,NA
SUPAMT01522,3AWETUDC98RMSNHPQHYC22VYXLCZID,9620EA71-190C-48F4-9218-7B2F2C28F355,2023-09-26_12h11.07.758,WP_VExplicitOC_HL,2022.2.5,Win32,22.06336599,39.0625,4.3147,2.0359,NA,NA,NA,NA,NA,bored,"bored, not bored","more bored, less bored",NA,NA,NA,NA,NA,NA,NA,NA,NA,NA,NA,NA,NA,NA,NA,0,1,1,2,1,NA,NA,NA,NA,NA,NA,NA,NA,NA,NA,NA,NA,NA,NA,NA,NA,NA,NA,NA,NA,NA,NA,NA,NA,NA,NA,NA,NA
SUPAMT01522,3AWETUDC98RMSNHPQHYC22VYXLCZID,9620EA71-190C-48F4-9218-7B2F2C28F355,2023-09-26_12h11.07.758,WP_VExplicitOC_HL,2022.2.5,Win32,22.06336599,46.61458333,3.7263,2.0339,NA,NA,NA,NA,NA,happy,"unhappy, happy","less happy, more happy",NA,NA,NA,NA,NA,NA,NA,NA,NA,NA,NA,NA,NA,NA,NA,0,2,2,0,1,NA,NA,NA,NA,NA,NA,NA,NA,NA,NA,NA,NA,NA,NA,NA,NA,NA,NA,NA,NA,NA,NA,NA,NA,NA,NA,NA,NA
SUPAMT01522,3AWETUDC98RMSNHPQHYC22VYXLCZID,9620EA71-190C-48F4-9218-7B2F2C28F355,2023-09-26_12h11.07.758,WP_VExplicitOC_HL,2022.2.5,Win32,22.06336599,NA,NA,NA,NA,NA,NA,NA,NA,NA,NA,NA,NA,NA,NA,NA,NA,NA,NA,NA,NA,NA,NA,NA,NA,NA,NA,NA,NA,NA,NA,NA,2,0,2,0,1,NA,NA,NA,NA,NA,NA,NA,NA,NA,NA,NA,NA,NA,NA,NA,NA,NA,NA,NA,NA,NA,NA,NA
SUPAMT01522,3AWETUDC98RMSNHPQHYC22VYXLCZID,9620EA71-190C-48F4-9218-7B2F2C28F355,2023-09-26_12h11.07.758,WP_VExplicitOC_HL,2022.2.5,Win32,22.06336599,53.90625,3.6484,2.0207,NA,NA,NA,NA,NA,frustrated,"frustrated, not frustrated","more frustrated, less frustrated",NA,NA,NA,NA,NA,NA,NA,NA,NA,NA,NA,NA,NA,NA,NA,0,0,0,1,1,NA,NA,NA,NA,NA,NA,NA,NA,NA,NA,NA,NA,NA,NA,NA,NA,NA,NA,NA,NA,NA,NA,NA,NA,NA,NA,NA,NA
SUPAMT01522,3AWETUDC98RMSNHPQHYC22VYXLCZID,9620EA71-190C-48F4-9218-7B2F2C28F355,2023-09-26_12h11.07.758,WP_VExplicitOC_HL,2022.2.5,Win32,22.06336599,52.08333333,3.2357,2.0469,NA,NA,NA,NA,NA,happy,"unhappy, happy","less happy, more happy",NA,NA,NA,NA,NA,NA,NA,NA,NA,NA,NA,NA,NA,NA,NA,0,1,1,0,1,NA,NA,NA,NA,NA,NA,NA,NA,NA,NA,NA,NA,NA,NA,NA,NA,NA,NA,NA,NA,NA,NA,NA,NA,NA,NA,NA,NA
SUPAMT01522,3AWETUDC98RMSNHPQHYC22VYXLCZID,9620EA71-190C-48F4-9218-7B2F2C28F355,2023-09-26_12h11.07.758,WP_VExplicitOC_HL,2022.2.5,Win32,22.06336599,45.83333333,3.5629,2.0226,NA,NA,NA,NA,NA,bored,"bored, not bored","more bored, less bored",NA,NA,NA,NA,NA,NA,NA,NA,NA,NA,NA,NA,NA,NA,NA,0,2,2,2,1,NA,NA,NA,NA,NA,NA,NA,NA,NA,NA,NA,NA,NA,NA,NA,NA,NA,NA,NA,NA,NA,NA,NA,NA,NA,NA,NA,NA
SUPAMT01522,3AWETUDC98RMSNHPQHYC22VYXLCZID,9620EA71-190C-48F4-9218-7B2F2C28F355,2023-09-26_12h11.07.758,WP_VExplicitOC_HL,2022.2.5,Win32,22.06336599,NA,NA,NA,NA,NA,NA,NA,NA,NA,NA,NA,NA,NA,NA,NA,NA,NA,NA,NA,NA,NA,NA,NA,NA,NA,NA,NA,NA,NA,NA,NA,3,0,3,0,1,NA,NA,NA,NA,NA,NA,NA,NA,NA,NA,NA,NA,NA,NA,NA,NA,NA,NA,NA,NA,NA,NA,NA
SUPAMT01522,3AWETUDC98RMSNHPQHYC22VYXLCZID,9620EA71-190C-48F4-9218-7B2F2C28F355,2023-09-26_12h11.07.758,WP_VExplicitOC_HL,2022.2.5,Win32,22.06336599,39.84375,3.8228,2.0168,NA,NA,NA,NA,NA,happy,"unhappy, happy","less happy, more happy",NA,NA,NA,NA,NA,NA,NA,NA,NA,NA,NA,NA,NA,NA,NA,0,0,0,0,1,NA,NA,NA,NA,NA,NA,NA,NA,NA,NA,NA,NA,NA,NA,NA,NA,NA,NA,NA,NA,NA,NA,NA,NA,NA,NA,NA,NA
SUPAMT01522,3AWETUDC98RMSNHPQHYC22VYXLCZID,9620EA71-190C-48F4-9218-7B2F2C28F355,2023-09-26_12h11.07.758,WP_VExplicitOC_HL,2022.2.5,Win32,22.06336599,39.84375,3.2523,2.0519,NA,NA,NA,NA,NA,frustrated,"frustrated, not frustrated","more frustrated, less frustrated",NA,NA,NA,NA,NA,NA,NA,NA,NA,NA,NA,NA,NA,NA,NA,0,1,1,1,1,NA,NA,NA,NA,NA,NA,NA,NA,NA,NA,NA,NA,NA,NA,NA,NA,NA,NA,NA,NA,NA,NA,NA,NA,NA,NA,NA,NA
SUPAMT01522,3AWETUDC98RMSNHPQHYC22VYXLCZID,9620EA71-190C-48F4-9218-7B2F2C28F355,2023-09-26_12h11.07.758,WP_VExplicitOC_HL,2022.2.5,Win32,22.06336599,38.02083333,3.6627,2.0521,NA,NA,NA,NA,NA,bored,"bored, not bored","more bored, less bored",NA,NA,NA,NA,NA,NA,NA,NA,NA,NA,NA,NA,NA,NA,NA,0,2,2,2,1,NA,NA,NA,NA,NA,NA,NA,NA,NA,NA,NA,NA,NA,NA,NA,NA,NA,NA,NA,NA,NA,NA,NA,NA,NA,NA,NA,NA
SUPAMT01522,3AWETUDC98RMSNHPQHYC22VYXLCZID,9620EA71-190C-48F4-9218-7B2F2C28F355,2023-09-26_12h11.07.758,WP_VExplicitOC_HL,2022.2.5,Win32,22.06336599,NA,NA,NA,NA,NA,NA,NA,NA,NA,NA,NA,NA,NA,NA,NA,NA,NA,NA,NA,NA,NA,NA,NA,NA,NA,NA,NA,NA,NA,NA,NA,4,0,4,0,1,NA,NA,NA,NA,NA,NA,NA,NA,NA,NA,NA,NA,NA,NA,NA,NA,NA,NA,NA,NA,NA,NA,NA
SUPAMT01522,3AWETUDC98RMSNHPQHYC22VYXLCZID,9620EA71-190C-48F4-9218-7B2F2C28F355,2023-09-26_12h11.07.758,WP_VExplicitOC_HL,2022.2.5,Win32,22.06336599,57.55208333,3.5655,2.0363,NA,NA,NA,NA,NA,happy,"unhappy, happy","less happy, more happy",NA,NA,NA,NA,NA,NA,NA,NA,NA,NA,NA,NA,NA,NA,NA,0,0,0,0,1,NA,NA,NA,NA,NA,NA,NA,NA,NA,NA,NA,NA,NA,NA,NA,NA,NA,NA,NA,NA,NA,NA,NA,NA,NA,NA,NA,NA
SUPAMT01522,3AWETUDC98RMSNHPQHYC22VYXLCZID,9620EA71-190C-48F4-9218-7B2F2C28F355,2023-09-26_12h11.07.758,WP_VExplicitOC_HL,2022.2.5,Win32,22.06336599,59.375,3.229,2.0185,NA,NA,NA,NA,NA,bored,"bored, not bored","more bored, less bored",NA,NA,NA,NA,NA,NA,NA,NA,NA,NA,NA,NA,NA,NA,NA,0,1,1,2,1,NA,NA,NA,NA,NA,NA,NA,NA,NA,NA,NA,NA,NA,NA,NA,NA,NA,NA,NA,NA,NA,NA,NA,NA,NA,NA,NA,NA
SUPAMT01522,3AWETUDC98RMSNHPQHYC22VYXLCZID,9620EA71-190C-48F4-9218-7B2F2C28F355,2023-09-26_12h11.07.758,WP_VExplicitOC_HL,2022.2.5,Win32,22.06336599,36.45833333,4.0851,2.0596,NA,NA,NA,NA,NA,frustrated,"frustrated, not frustrated","more frustrated, less frustrated",NA,NA,NA,NA,NA,NA,NA,NA,NA,NA,NA,NA,NA,NA,NA,0,2,2,1,1,NA,NA,NA,NA,NA,NA,NA,NA,NA,NA,NA,NA,NA,NA,NA,NA,NA,NA,NA,NA,NA,NA,NA,NA,NA,NA,NA,NA
SUPAMT01522,3AWETUDC98RMSNHPQHYC22VYXLCZID,9620EA71-190C-48F4-9218-7B2F2C28F355,2023-09-26_12h11.07.758,WP_VExplicitOC_HL,2022.2.5,Win32,22.06336599,NA,NA,NA,NA,NA,NA,NA,NA,NA,NA,NA,NA,NA,NA,NA,NA,NA,NA,NA,NA,NA,NA,NA,NA,NA,NA,NA,NA,NA,NA,NA,5,0,5,0,1,NA,NA,NA,NA,NA,NA,NA,NA,NA,NA,NA,NA,NA,NA,NA,NA,NA,NA,NA,NA,NA,NA,NA
SUPAMT01522,3AWETUDC98RMSNHPQHYC22VYXLCZID,9620EA71-190C-48F4-9218-7B2F2C28F355,2023-09-26_12h11.07.758,WP_VExplicitOC_HL,2022.2.5,Win32,22.06336599,49.73958333,3.5105,2.059,NA,NA,NA,NA,NA,frustrated,"frustrated, not frustrated","more frustrated, less frustrated",NA,NA,NA,NA,NA,NA,NA,NA,NA,NA,NA,NA,NA,NA,NA,0,0,0,1,1,NA,NA,NA,NA,NA,NA,NA,NA,NA,NA,NA,NA,NA,NA,NA,NA,NA,NA,NA,NA,NA,NA,NA,NA,NA,NA,NA,NA
SUPAMT01522,3AWETUDC98RMSNHPQHYC22VYXLCZID,9620EA71-190C-48F4-9218-7B2F2C28F355,2023-09-26_12h11.07.758,WP_VExplicitOC_HL,2022.2.5,Win32,22.06336599,32.29166667,3.5086,2.0493,NA,NA,NA,NA,NA,bored,"bored, not bored","more bored, less bored",NA,NA,NA,NA,NA,NA,NA,NA,NA,NA,NA,NA,NA,NA,NA,0,1,1,2,1,NA,NA,NA,NA,NA,NA,NA,NA,NA,NA,NA,NA,NA,NA,NA,NA,NA,NA,NA,NA,NA,NA,NA,NA,NA,NA,NA,NA
SUPAMT01522,3AWETUDC98RMSNHPQHYC22VYXLCZID,9620EA71-190C-48F4-9218-7B2F2C28F355,2023-09-26_12h11.07.758,WP_VExplicitOC_HL,2022.2.5,Win32,22.06336599,39.32291667,3.3562,2.0033,NA,NA,NA,NA,NA,happy,"unhappy, happy","less happy, more happy",NA,NA,NA,NA,NA,NA,NA,NA,NA,NA,NA,NA,NA,NA,NA,0,2,2,0,1,NA,NA,NA,NA,NA,NA,NA,NA,NA,NA,NA,NA,NA,NA,NA,NA,NA,NA,NA,NA,NA,NA,NA,NA,NA,NA,NA,NA
SUPAMT01522,3AWETUDC98RMSNHPQHYC22VYXLCZID,9620EA71-190C-48F4-9218-7B2F2C28F355,2023-09-26_12h11.07.758,WP_VExplicitOC_HL,2022.2.5,Win32,22.06336599,NA,NA,NA,NA,NA,NA,NA,NA,NA,NA,NA,NA,NA,NA,NA,NA,NA,NA,NA,NA,NA,NA,NA,NA,NA,NA,NA,NA,NA,NA,NA,6,0,6,0,1,NA,NA,NA,NA,NA,NA,NA,NA,NA,NA,NA,NA,NA,NA,NA,NA,NA,NA,NA,NA,NA,NA,NA
SUPAMT01522,3AWETUDC98RMSNHPQHYC22VYXLCZID,9620EA71-190C-48F4-9218-7B2F2C28F355,2023-09-26_12h11.07.758,WP_VExplicitOC_HL,2022.2.5,Win32,22.06336599,39.0625,3.4302,2.0289,NA,NA,NA,NA,NA,frustrated,"frustrated, not frustrated","more frustrated, less frustrated",NA,NA,NA,NA,NA,NA,NA,NA,NA,NA,NA,NA,NA,NA,NA,0,0,0,1,1,NA,NA,NA,NA,NA,NA,NA,NA,NA,NA,NA,NA,NA,NA,NA,NA,NA,NA,NA,NA,NA,NA,NA,NA,NA,NA,NA,NA
SUPAMT01522,3AWETUDC98RMSNHPQHYC22VYXLCZID,9620EA71-190C-48F4-9218-7B2F2C28F355,2023-09-26_12h11.07.758,WP_VExplicitOC_HL,2022.2.5,Win32,22.06336599,36.19791667,4.2406,2.0159,NA,NA,NA,NA,NA,happy,"unhappy, happy","less happy, more happy",NA,NA,NA,NA,NA,NA,NA,NA,NA,NA,NA,NA,NA,NA,NA,0,1,1,0,1,NA,NA,NA,NA,NA,NA,NA,NA,NA,NA,NA,NA,NA,NA,NA,NA,NA,NA,NA,NA,NA,NA,NA,NA,NA,NA,NA,NA
SUPAMT01522,3AWETUDC98RMSNHPQHYC22VYXLCZID,9620EA71-190C-48F4-9218-7B2F2C28F355,2023-09-26_12h11.07.758,WP_VExplicitOC_HL,2022.2.5,Win32,22.06336599,38.02083333,3.5135,2.0395,NA,NA,NA,NA,NA,bored,"bored, not bored","more bored, less bored",NA,NA,NA,NA,NA,NA,NA,NA,NA,NA,NA,NA,NA,NA,NA,0,2,2,2,1,NA,NA,NA,NA,NA,NA,NA,NA,NA,NA,NA,NA,NA,NA,NA,NA,NA,NA,NA,NA,NA,NA,NA,NA,NA,NA,NA,NA
SUPAMT01522,3AWETUDC98RMSNHPQHYC22VYXLCZID,9620EA71-190C-48F4-9218-7B2F2C28F355,2023-09-26_12h11.07.758,WP_VExplicitOC_HL,2022.2.5,Win32,22.06336599,NA,NA,NA,NA,NA,NA,NA,NA,NA,NA,NA,NA,NA,NA,NA,NA,NA,NA,NA,NA,NA,NA,NA,NA,NA,NA,NA,NA,NA,NA,NA,7,0,7,0,1,NA,NA,NA,NA,NA,NA,NA,NA,NA,NA,NA,NA,NA,NA,NA,NA,NA,NA,NA,NA,NA,NA,NA
SUPAMT01522,3AWETUDC98RMSNHPQHYC22VYXLCZID,9620EA71-190C-48F4-9218-7B2F2C28F355,2023-09-26_12h11.07.758,WP_VExplicitOC_HL,2022.2.5,Win32,22.06336599,59.11458333,3.7756,2.0021,NA,NA,NA,NA,NA,frustrated,"frustrated, not frustrated","more frustrated, less frustrated",NA,NA,NA,NA,NA,NA,NA,NA,NA,NA,NA,NA,NA,NA,NA,0,0,0,1,1,NA,NA,NA,NA,NA,NA,NA,NA,NA,NA,NA,NA,NA,NA,NA,NA,NA,NA,NA,NA,NA,NA,NA,NA,NA,NA,NA,NA
SUPAMT01522,3AWETUDC98RMSNHPQHYC22VYXLCZID,9620EA71-190C-48F4-9218-7B2F2C28F355,2023-09-26_12h11.07.758,WP_VExplicitOC_HL,2022.2.5,Win32,22.06336599,39.32291667,3.3374,2.0038,NA,NA,NA,NA,NA,bored,"bored, not bored","more bored, less bored",NA,NA,NA,NA,NA,NA,NA,NA,NA,NA,NA,NA,NA,NA,NA,0,1,1,2,1,NA,NA,NA,NA,NA,NA,NA,NA,NA,NA,NA,NA,NA,NA,NA,NA,NA,NA,NA,NA,NA,NA,NA,NA,NA,NA,NA,NA
SUPAMT01522,3AWETUDC98RMSNHPQHYC22VYXLCZID,9620EA71-190C-48F4-9218-7B2F2C28F355,2023-09-26_12h11.07.758,WP_VExplicitOC_HL,2022.2.5,Win32,22.06336599,65.10416667,3.6589,2.0373,NA,NA,NA,NA,NA,happy,"unhappy, happy","less happy, more happy",NA,NA,NA,NA,NA,NA,NA,NA,NA,NA,NA,NA,NA,NA,NA,0,2,2,0,1,NA,NA,NA,NA,NA,NA,NA,NA,NA,NA,NA,NA,NA,NA,NA,NA,NA,NA,NA,NA,NA,NA,NA,NA,NA,NA,NA,NA
SUPAMT01522,3AWETUDC98RMSNHPQHYC22VYXLCZID,9620EA71-190C-48F4-9218-7B2F2C28F355,2023-09-26_12h11.07.758,WP_VExplicitOC_HL,2022.2.5,Win32,22.06336599,NA,NA,NA,NA,NA,NA,NA,NA,NA,NA,NA,NA,NA,NA,NA,NA,NA,NA,NA,NA,NA,NA,NA,NA,NA,NA,NA,NA,NA,NA,NA,8,0,8,0,1,NA,NA,NA,NA,NA,NA,NA,NA,NA,NA,NA,NA,NA,NA,NA,NA,NA,NA,NA,NA,NA,NA,NA
SUPAMT01522,3AWETUDC98RMSNHPQHYC22VYXLCZID,9620EA71-190C-48F4-9218-7B2F2C28F355,2023-09-26_12h11.07.758,WP_VExplicitOC_HL,2022.2.5,Win32,22.06336599,49.21875,3.6288,2.0171,NA,NA,NA,NA,NA,frustrated,"frustrated, not frustrated","more frustrated, less frustrated",NA,NA,NA,NA,NA,NA,NA,NA,NA,NA,NA,NA,NA,NA,NA,0,0,0,1,1,NA,NA,NA,NA,NA,NA,NA,NA,NA,NA,NA,NA,NA,NA,NA,NA,NA,NA,NA,NA,NA,NA,NA,NA,NA,NA,NA,NA
SUPAMT01522,3AWETUDC98RMSNHPQHYC22VYXLCZID,9620EA71-190C-48F4-9218-7B2F2C28F355,2023-09-26_12h11.07.758,WP_VExplicitOC_HL,2022.2.5,Win32,22.06336599,49.73958333,4.3829,2,NA,NA,NA,NA,NA,bored,"bored, not bored","more bored, less bored",NA,NA,NA,NA,NA,NA,NA,NA,NA,NA,NA,NA,NA,NA,NA,0,1,1,2,1,NA,NA,NA,NA,NA,NA,NA,NA,NA,NA,NA,NA,NA,NA,NA,NA,NA,NA,NA,NA,NA,NA,NA,NA,NA,NA,NA,NA
SUPAMT01522,3AWETUDC98RMSNHPQHYC22VYXLCZID,9620EA71-190C-48F4-9218-7B2F2C28F355,2023-09-26_12h11.07.758,WP_VExplicitOC_HL,2022.2.5,Win32,22.06336599,35.9375,3.405,2.0272,NA,NA,NA,NA,NA,happy,"unhappy, happy","less happy, more happy",NA,NA,NA,NA,NA,NA,NA,NA,NA,NA,NA,NA,NA,NA,NA,0,2,2,0,1,NA,NA,NA,NA,NA,NA,NA,NA,NA,NA,NA,NA,NA,NA,NA,NA,NA,NA,NA,NA,NA,NA,NA,NA,NA,NA,NA,NA
SUPAMT01522,3AWETUDC98RMSNHPQHYC22VYXLCZID,9620EA71-190C-48F4-9218-7B2F2C28F355,2023-09-26_12h11.07.758,WP_VExplicitOC_HL,2022.2.5,Win32,22.06336599,NA,NA,NA,NA,NA,NA,NA,NA,NA,NA,NA,NA,NA,NA,NA,NA,NA,NA,NA,NA,NA,NA,NA,NA,NA,NA,NA,NA,NA,NA,NA,9,0,9,0,1,NA,NA,NA,NA,NA,NA,NA,NA,NA,NA,NA,NA,NA,NA,NA,NA,NA,NA,NA,NA,NA,NA,NA
SUPAMT01522,3AWETUDC98RMSNHPQHYC22VYXLCZID,9620EA71-190C-48F4-9218-7B2F2C28F355,2023-09-26_12h11.07.758,WP_VExplicitOC_HL,2022.2.5,Win32,22.06336599,NA,NA,2.0418,NA,NA,NA,NA,NA,frustrated,"frustrated, not frustrated","more frustrated, less frustrated",NA,NA,NA,NA,NA,NA,NA,NA,NA,NA,NA,NA,NA,NA,NA,0,0,0,1,1,NA,NA,NA,NA,NA,NA,NA,NA,NA,NA,NA,NA,NA,NA,NA,NA,NA,NA,NA,NA,NA,NA,NA,NA,NA,NA,NA,NA
SUPAMT01522,3AWETUDC98RMSNHPQHYC22VYXLCZID,9620EA71-190C-48F4-9218-7B2F2C28F355,2023-09-26_12h11.07.758,WP_VExplicitOC_HL,2022.2.5,Win32,22.06336599,54.6875,3.6924,2.0518,NA,NA,NA,NA,NA,bored,"bored, not bored","more bored, less bored",NA,NA,NA,NA,NA,NA,NA,NA,NA,NA,NA,NA,NA,NA,NA,0,1,1,2,1,NA,NA,NA,NA,NA,NA,NA,NA,NA,NA,NA,NA,NA,NA,NA,NA,NA,NA,NA,NA,NA,NA,NA,NA,NA,NA,NA,NA
SUPAMT01522,3AWETUDC98RMSNHPQHYC22VYXLCZID,9620EA71-190C-48F4-9218-7B2F2C28F355,2023-09-26_12h11.07.758,WP_VExplicitOC_HL,2022.2.5,Win32,22.06336599,48.17708333,3.3336,2.0029,NA,NA,NA,NA,NA,happy,"unhappy, happy","less happy, more happy",NA,NA,NA,NA,NA,NA,NA,NA,NA,NA,NA,NA,NA,NA,NA,0,2,2,0,1,NA,NA,NA,NA,NA,NA,NA,NA,NA,NA,NA,NA,NA,NA,NA,NA,NA,NA,NA,NA,NA,NA,NA,NA,NA,NA,NA,NA
SUPAMT01522,3AWETUDC98RMSNHPQHYC22VYXLCZID,9620EA71-190C-48F4-9218-7B2F2C28F355,2023-09-26_12h11.07.758,WP_VExplicitOC_HL,2022.2.5,Win32,22.06336599,NA,NA,NA,NA,NA,NA,NA,NA,NA,NA,NA,NA,NA,NA,NA,NA,NA,NA,NA,NA,NA,NA,NA,NA,NA,NA,NA,NA,NA,NA,NA,10,0,10,0,1,NA,NA,NA,NA,NA,NA,NA,NA,NA,NA,NA,NA,NA,NA,NA,NA,NA,NA,NA,NA,NA,NA,NA
SUPAMT01522,3AWETUDC98RMSNHPQHYC22VYXLCZID,9620EA71-190C-48F4-9218-7B2F2C28F355,2023-09-26_12h11.07.758,WP_VExplicitOC_HL,2022.2.5,Win32,22.06336599,NA,NA,2.0146,NA,NA,NA,NA,NA,bored,"bored, not bored","more bored, less bored",NA,NA,NA,NA,NA,NA,NA,NA,NA,NA,NA,NA,NA,NA,NA,0,0,0,2,1,NA,NA,NA,NA,NA,NA,NA,NA,NA,NA,NA,NA,NA,NA,NA,NA,NA,NA,NA,NA,NA,NA,NA,NA,NA,NA,NA,NA
SUPAMT01522,3AWETUDC98RMSNHPQHYC22VYXLCZID,9620EA71-190C-48F4-9218-7B2F2C28F355,2023-09-26_12h11.07.758,WP_VExplicitOC_HL,2022.2.5,Win32,22.06336599,45.83333333,3.8376,2.0665,NA,NA,NA,NA,NA,frustrated,"frustrated, not frustrated","more frustrated, less frustrated",NA,NA,NA,NA,NA,NA,NA,NA,NA,NA,NA,NA,NA,NA,NA,0,1,1,1,1,NA,NA,NA,NA,NA,NA,NA,NA,NA,NA,NA,NA,NA,NA,NA,NA,NA,NA,NA,NA,NA,NA,NA,NA,NA,NA,NA,NA
SUPAMT01522,3AWETUDC98RMSNHPQHYC22VYXLCZID,9620EA71-190C-48F4-9218-7B2F2C28F355,2023-09-26_12h11.07.758,WP_VExplicitOC_HL,2022.2.5,Win32,22.06336599,76.5625,3.3145,2.0725,NA,NA,NA,NA,NA,happy,"unhappy, happy","less happy, more happy",NA,NA,NA,NA,NA,NA,NA,NA,NA,NA,NA,NA,NA,NA,NA,0,2,2,0,1,NA,NA,NA,NA,NA,NA,NA,NA,NA,NA,NA,NA,NA,NA,NA,NA,NA,NA,NA,NA,NA,NA,NA,NA,NA,NA,NA,NA
SUPAMT01522,3AWETUDC98RMSNHPQHYC22VYXLCZID,9620EA71-190C-48F4-9218-7B2F2C28F355,2023-09-26_12h11.07.758,WP_VExplicitOC_HL,2022.2.5,Win32,22.06336599,NA,NA,NA,NA,NA,NA,NA,NA,NA,NA,NA,NA,NA,NA,NA,NA,NA,NA,NA,NA,NA,NA,NA,NA,NA,NA,NA,NA,NA,NA,NA,11,0,11,0,1,NA,NA,NA,NA,NA,NA,NA,NA,NA,NA,NA,NA,NA,NA,NA,NA,NA,NA,NA,NA,NA,NA,NA
SUPAMT01522,3AWETUDC98RMSNHPQHYC22VYXLCZID,9620EA71-190C-48F4-9218-7B2F2C28F355,2023-09-26_12h11.07.758,WP_VExplicitOC_HL,2022.2.5,Win32,22.06336599,41.92708333,4.6219,2.0439,NA,NA,NA,NA,NA,happy,"unhappy, happy","less happy, more happy",NA,NA,NA,NA,NA,NA,NA,NA,NA,NA,NA,NA,NA,NA,NA,0,0,0,0,1,NA,NA,NA,NA,NA,NA,NA,NA,NA,NA,NA,NA,NA,NA,NA,NA,NA,NA,NA,NA,NA,NA,NA,NA,NA,NA,NA,NA
SUPAMT01522,3AWETUDC98RMSNHPQHYC22VYXLCZID,9620EA71-190C-48F4-9218-7B2F2C28F355,2023-09-26_12h11.07.758,WP_VExplicitOC_HL,2022.2.5,Win32,22.06336599,48.95833333,3.5057,2.0129,NA,NA,NA,NA,NA,bored,"bored, not bored","more bored, less bored",NA,NA,NA,NA,NA,NA,NA,NA,NA,NA,NA,NA,NA,NA,NA,0,1,1,2,1,NA,NA,NA,NA,NA,NA,NA,NA,NA,NA,NA,NA,NA,NA,NA,NA,NA,NA,NA,NA,NA,NA,NA,NA,NA,NA,NA,NA
SUPAMT01522,3AWETUDC98RMSNHPQHYC22VYXLCZID,9620EA71-190C-48F4-9218-7B2F2C28F355,2023-09-26_12h11.07.758,WP_VExplicitOC_HL,2022.2.5,Win32,22.06336599,55.46875,3.3222,2.0196,NA,NA,NA,NA,NA,frustrated,"frustrated, not frustrated","more frustrated, less frustrated",NA,NA,NA,NA,NA,NA,NA,NA,NA,NA,NA,NA,NA,NA,NA,0,2,2,1,1,NA,NA,NA,NA,NA,NA,NA,NA,NA,NA,NA,NA,NA,NA,NA,NA,NA,NA,NA,NA,NA,NA,NA,NA,NA,NA,NA,NA
SUPAMT01522,3AWETUDC98RMSNHPQHYC22VYXLCZID,9620EA71-190C-48F4-9218-7B2F2C28F355,2023-09-26_12h11.07.758,WP_VExplicitOC_HL,2022.2.5,Win32,22.06336599,NA,NA,NA,NA,NA,NA,NA,NA,NA,NA,NA,NA,NA,NA,NA,NA,NA,NA,NA,NA,NA,NA,NA,NA,NA,NA,NA,NA,NA,NA,NA,12,0,12,0,1,NA,NA,NA,NA,NA,NA,NA,NA,NA,NA,NA,NA,NA,NA,NA,NA,NA,NA,NA,NA,NA,NA,NA
SUPAMT01522,3AWETUDC98RMSNHPQHYC22VYXLCZID,9620EA71-190C-48F4-9218-7B2F2C28F355,2023-09-26_12h11.07.758,WP_VExplicitOC_HL,2022.2.5,Win32,22.06336599,NA,NA,2.025,NA,NA,NA,NA,NA,frustrated,"frustrated, not frustrated","more frustrated, less frustrated",NA,NA,NA,NA,NA,NA,NA,NA,NA,NA,NA,NA,NA,NA,NA,0,0,0,1,1,NA,NA,NA,NA,NA,NA,NA,NA,NA,NA,NA,NA,NA,NA,NA,NA,NA,NA,NA,NA,NA,NA,NA,NA,NA,NA,NA,NA
SUPAMT01522,3AWETUDC98RMSNHPQHYC22VYXLCZID,9620EA71-190C-48F4-9218-7B2F2C28F355,2023-09-26_12h11.07.758,WP_VExplicitOC_HL,2022.2.5,Win32,22.06336599,55.46875,3.2508,2.0568,NA,NA,NA,NA,NA,bored,"bored, not bored","more bored, less bored",NA,NA,NA,NA,NA,NA,NA,NA,NA,NA,NA,NA,NA,NA,NA,0,1,1,2,1,NA,NA,NA,NA,NA,NA,NA,NA,NA,NA,NA,NA,NA,NA,NA,NA,NA,NA,NA,NA,NA,NA,NA,NA,NA,NA,NA,NA
SUPAMT01522,3AWETUDC98RMSNHPQHYC22VYXLCZID,9620EA71-190C-48F4-9218-7B2F2C28F355,2023-09-26_12h11.07.758,WP_VExplicitOC_HL,2022.2.5,Win32,22.06336599,41.40625,3.1895,2.0403,NA,NA,NA,NA,NA,happy,"unhappy, happy","less happy, more happy",NA,NA,NA,NA,NA,NA,NA,NA,NA,NA,NA,NA,NA,NA,NA,0,2,2,0,1,NA,NA,NA,NA,NA,NA,NA,NA,NA,NA,NA,NA,NA,NA,NA,NA,NA,NA,NA,NA,NA,NA,NA,NA,NA,NA,NA,NA
SUPAMT01522,3AWETUDC98RMSNHPQHYC22VYXLCZID,9620EA71-190C-48F4-9218-7B2F2C28F355,2023-09-26_12h11.07.758,WP_VExplicitOC_HL,2022.2.5,Win32,22.06336599,NA,NA,NA,NA,NA,NA,NA,NA,NA,NA,NA,NA,NA,NA,NA,NA,NA,NA,NA,NA,NA,NA,NA,NA,NA,NA,NA,NA,NA,NA,NA,13,0,13,0,1,NA,NA,NA,NA,NA,NA,NA,NA,NA,NA,NA,NA,NA,NA,NA,NA,NA,NA,NA,NA,NA,NA,NA
SUPAMT01522,3AWETUDC98RMSNHPQHYC22VYXLCZID,9620EA71-190C-48F4-9218-7B2F2C28F355,2023-09-26_12h11.07.758,WP_VExplicitOC_HL,2022.2.5,Win32,22.06336599,NA,NA,2.0266,NA,NA,NA,NA,NA,frustrated,"frustrated, not frustrated","more frustrated, less frustrated",NA,NA,NA,NA,NA,NA,NA,NA,NA,NA,NA,NA,NA,NA,NA,0,0,0,1,1,NA,NA,NA,NA,NA,NA,NA,NA,NA,NA,NA,NA,NA,NA,NA,NA,NA,NA,NA,NA,NA,NA,NA,NA,NA,NA,NA,NA
SUPAMT01522,3AWETUDC98RMSNHPQHYC22VYXLCZID,9620EA71-190C-48F4-9218-7B2F2C28F355,2023-09-26_12h11.07.758,WP_VExplicitOC_HL,2022.2.5,Win32,22.06336599,NA,NA,2.027,NA,NA,NA,NA,NA,bored,"bored, not bored","more bored, less bored",NA,NA,NA,NA,NA,NA,NA,NA,NA,NA,NA,NA,NA,NA,NA,0,1,1,2,1,NA,NA,NA,NA,NA,NA,NA,NA,NA,NA,NA,NA,NA,NA,NA,NA,NA,NA,NA,NA,NA,NA,NA,NA,NA,NA,NA,NA
SUPAMT01522,3AWETUDC98RMSNHPQHYC22VYXLCZID,9620EA71-190C-48F4-9218-7B2F2C28F355,2023-09-26_12h11.07.758,WP_VExplicitOC_HL,2022.2.5,Win32,22.06336599,36.19791667,3.7053,2.0981,NA,NA,NA,NA,NA,happy,"unhappy, happy","less happy, more happy",NA,NA,NA,NA,NA,NA,NA,NA,NA,NA,NA,NA,NA,NA,NA,0,2,2,0,1,NA,NA,NA,NA,NA,NA,NA,NA,NA,NA,NA,NA,NA,NA,NA,NA,NA,NA,NA,NA,NA,NA,NA,NA,NA,NA,NA,NA
SUPAMT01522,3AWETUDC98RMSNHPQHYC22VYXLCZID,9620EA71-190C-48F4-9218-7B2F2C28F355,2023-09-26_12h11.07.758,WP_VExplicitOC_HL,2022.2.5,Win32,22.06336599,NA,NA,NA,NA,NA,NA,NA,NA,NA,NA,NA,NA,NA,NA,NA,NA,NA,NA,NA,NA,NA,NA,NA,NA,NA,NA,NA,NA,NA,NA,NA,14,0,14,0,1,NA,NA,NA,NA,NA,NA,NA,NA,NA,NA,NA,NA,NA,NA,NA,NA,NA,NA,NA,NA,NA,NA,NA
SUPAMT01522,3AWETUDC98RMSNHPQHYC22VYXLCZID,9620EA71-190C-48F4-9218-7B2F2C28F355,2023-09-26_12h11.07.758,WP_VExplicitOC_HL,2022.2.5,Win32,22.06336599,NA,NA,NA,NA,NA,NA,NA,NA,NA,NA,NA,NA,NA,NA,NA,NA,NA,NA,NA,NA,NA,NA,NA,NA,NA,NA,NA,NA,NA,NA,NA,NA,NA,NA,NA,NA,NA,NA,NA,NA,NA,NA,NA,NA,NA,NA,NA,NA,NA,NA,NA,NA,NA,NA,NA,NA,NA,NA,NA
SUPAMT01522,3AWETUDC98RMSNHPQHYC22VYXLCZID,9620EA71-190C-48F4-9218-7B2F2C28F355,2023-09-26_12h11.07.758,WP_VExplicitOC_HL,2022.2.5,Win32,22.06336599,NA,NA,NA,NA,NA,NA,NA,NA,NA,NA,NA,NA,NA,NA,NA,NA,NA,NA,NA,NA,NA,NA,NA,NA,NA,NA,NA,NA,NA,NA,NA,NA,NA,NA,NA,NA,NA,NA,NA,NA,NA,NA,NA,NA,NA,NA,NA,NA,NA,NA,NA,NA,NA,NA,NA,NA,NA,NA,NA
SUPAMT01522,3AWETUDC98RMSNHPQHYC22VYXLCZID,9620EA71-190C-48F4-9218-7B2F2C28F355,2023-09-26_12h11.07.758,WP_VExplicitOC_HL,2022.2.5,Win32,22.06336599,NA,NA,NA,NA,NA,NA,NA,NA,NA,NA,NA,NA,NA,NA,NA,NA,NA,NA,rest (looking at a fixed cross),001.png,NA,NA,NA,NA,NA,NA,NA,NA,NA,NA,NA,NA,NA,NA,NA,NA,52.60416667,2.5297,0,0,0,0,1,NA,NA,NA,NA,NA,NA,NA,NA,NA,NA,NA,NA,NA,NA,NA,NA
SUPAMT01522,3AWETUDC98RMSNHPQHYC22VYXLCZID,9620EA71-190C-48F4-9218-7B2F2C28F355,2023-09-26_12h11.07.758,WP_VExplicitOC_HL,2022.2.5,Win32,22.06336599,NA,NA,NA,NA,NA,NA,NA,NA,NA,NA,NA,NA,NA,NA,NA,NA,NA,NA,stand up,002.png,NA,NA,NA,NA,NA,NA,NA,NA,NA,NA,NA,NA,NA,NA,NA,NA,50,1.652,0,1,1,1,1,NA,NA,NA,NA,NA,NA,NA,NA,NA,NA,NA,NA,NA,NA,NA,NA
SUPAMT01522,3AWETUDC98RMSNHPQHYC22VYXLCZID,9620EA71-190C-48F4-9218-7B2F2C28F355,2023-09-26_12h11.07.758,WP_VExplicitOC_HL,2022.2.5,Win32,22.06336599,NA,NA,NA,NA,NA,NA,NA,NA,NA,NA,NA,NA,NA,NA,NA,NA,NA,NA,stretch,003.png,NA,NA,NA,NA,NA,NA,NA,NA,NA,NA,NA,NA,NA,NA,NA,NA,54.94791667,1.5575,0,2,2,2,1,NA,NA,NA,NA,NA,NA,NA,NA,NA,NA,NA,NA,NA,NA,NA,NA
SUPAMT01522,3AWETUDC98RMSNHPQHYC22VYXLCZID,9620EA71-190C-48F4-9218-7B2F2C28F355,2023-09-26_12h11.07.758,WP_VExplicitOC_HL,2022.2.5,Win32,22.06336599,NA,NA,NA,NA,NA,NA,NA,NA,NA,NA,NA,NA,NA,NA,NA,NA,NA,NA,make a drink,004.png,NA,NA,NA,NA,NA,NA,NA,NA,NA,NA,NA,NA,NA,NA,NA,NA,44.53125,1.4663,0,3,3,3,1,NA,NA,NA,NA,NA,NA,NA,NA,NA,NA,NA,NA,NA,NA,NA,NA
SUPAMT01522,3AWETUDC98RMSNHPQHYC22VYXLCZID,9620EA71-190C-48F4-9218-7B2F2C28F355,2023-09-26_12h11.07.758,WP_VExplicitOC_HL,2022.2.5,Win32,22.06336599,NA,NA,NA,NA,NA,NA,NA,NA,NA,NA,NA,NA,NA,NA,NA,NA,NA,NA,scroll social media,005.png,NA,NA,NA,NA,NA,NA,NA,NA,NA,NA,NA,NA,NA,NA,NA,NA,48.17708333,1.4948,0,4,4,4,1,NA,NA,NA,NA,NA,NA,NA,NA,NA,NA,NA,NA,NA,NA,NA,NA
SUPAMT01522,3AWETUDC98RMSNHPQHYC22VYXLCZID,9620EA71-190C-48F4-9218-7B2F2C28F355,2023-09-26_12h11.07.758,WP_VExplicitOC_HL,2022.2.5,Win32,22.06336599,NA,NA,NA,NA,NA,NA,NA,NA,NA,NA,NA,NA,NA,NA,NA,NA,NA,NA,listen to music,006.png,NA,NA,NA,NA,NA,NA,NA,NA,NA,NA,NA,NA,NA,NA,NA,NA,61.97916667,1.5578,0,5,5,5,1,NA,NA,NA,NA,NA,NA,NA,NA,NA,NA,NA,NA,NA,NA,NA,NA
SUPAMT01522,3AWETUDC98RMSNHPQHYC22VYXLCZID,9620EA71-190C-48F4-9218-7B2F2C28F355,2023-09-26_12h11.07.758,WP_VExplicitOC_HL,2022.2.5,Win32,22.06336599,NA,NA,NA,NA,NA,NA,NA,NA,NA,NA,NA,NA,NA,NA,NA,NA,NA,NA,daydream,007.png,NA,NA,NA,NA,NA,NA,NA,NA,NA,NA,NA,NA,NA,NA,NA,NA,39.32291667,1.5575,0,6,6,6,1,NA,NA,NA,NA,NA,NA,NA,NA,NA,NA,NA,NA,NA,NA,NA,NA
SUPAMT01522,3AWETUDC98RMSNHPQHYC22VYXLCZID,9620EA71-190C-48F4-9218-7B2F2C28F355,2023-09-26_12h11.07.758,WP_VExplicitOC_HL,2022.2.5,Win32,22.06336599,NA,NA,NA,NA,NA,NA,NA,NA,NA,NA,NA,NA,NA,NA,NA,NA,NA,NA,watch a short animation,008.png,NA,NA,NA,NA,NA,NA,NA,NA,NA,NA,NA,NA,NA,NA,NA,NA,57.29166667,1.3641,0,7,7,7,1,NA,NA,NA,NA,NA,NA,NA,NA,NA,NA,NA,NA,NA,NA,NA,NA
SUPAMT01522,3AWETUDC98RMSNHPQHYC22VYXLCZID,9620EA71-190C-48F4-9218-7B2F2C28F355,2023-09-26_12h11.07.758,WP_VExplicitOC_HL,2022.2.5,Win32,22.06336599,NA,NA,NA,NA,NA,NA,NA,NA,NA,NA,NA,NA,NA,NA,NA,NA,NA,NA,read a novel,009.png,NA,NA,NA,NA,NA,NA,NA,NA,NA,NA,NA,NA,NA,NA,NA,NA,57.29166667,0.0634,0,8,8,8,1,NA,NA,NA,NA,NA,NA,NA,NA,NA,NA,NA,NA,NA,NA,NA,NA
SUPAMT01522,3AWETUDC98RMSNHPQHYC22VYXLCZID,9620EA71-190C-48F4-9218-7B2F2C28F355,2023-09-26_12h11.07.758,WP_VExplicitOC_HL,2022.2.5,Win32,22.06336599,NA,NA,NA,NA,NA,NA,NA,NA,NA,NA,NA,NA,NA,NA,NA,NA,NA,NA,read the news,010.png,NA,NA,NA,NA,NA,NA,NA,NA,NA,NA,NA,NA,NA,NA,NA,NA,70.3125,1.4816,0,9,9,9,1,NA,NA,NA,NA,NA,NA,NA,NA,NA,NA,NA,NA,NA,NA,NA,NA
SUPAMT01522,3AWETUDC98RMSNHPQHYC22VYXLCZID,9620EA71-190C-48F4-9218-7B2F2C28F355,2023-09-26_12h11.07.758,WP_VExplicitOC_HL,2022.2.5,Win32,22.06336599,NA,NA,NA,NA,NA,NA,NA,NA,NA,NA,NA,NA,NA,NA,NA,NA,NA,NA,NA,NA,NA,NA,NA,NA,NA,NA,NA,NA,NA,NA,NA,NA,NA,NA,NA,NA,NA,NA,NA,NA,NA,NA,NA,daydream,NA,NA,NA,NA,NA,NA,NA,NA,NA,NA,NA,NA,NA,NA,NA
SUPAMT01522,3AWETUDC98RMSNHPQHYC22VYXLCZID,9620EA71-190C-48F4-9218-7B2F2C28F355,2023-09-26_12h11.07.758,WP_VExplicitOC_HL,2022.2.5,Win32,22.06336599,43.48958333,3.5559,2.0194,NA,NA,NA,NA,NA,frustrated,"frustrated, not frustrated","more frustrated, less frustrated",NA,NA,NA,NA,NA,NA,NA,NA,NA,NA,NA,NA,NA,NA,NA,NA,NA,NA,NA,NA,NA,NA,NA,NA,NA,NA,NA,NA,NA,NA,NA,NA,NA,0,0,0,1,1,NA,NA,NA,NA,NA,NA,NA,NA,NA,NA
SUPAMT01522,3AWETUDC98RMSNHPQHYC22VYXLCZID,9620EA71-190C-48F4-9218-7B2F2C28F355,2023-09-26_12h11.07.758,WP_VExplicitOC_HL,2022.2.5,Win32,22.06336599,53.64583333,3.3402,2.0331,NA,NA,NA,NA,NA,bored,"bored, not bored","more bored, less bored",NA,NA,NA,NA,NA,NA,NA,NA,NA,NA,NA,NA,NA,NA,NA,NA,NA,NA,NA,NA,NA,NA,NA,NA,NA,NA,NA,NA,NA,NA,NA,NA,NA,0,1,1,2,1,NA,NA,NA,NA,NA,NA,NA,NA,NA,NA
SUPAMT01522,3AWETUDC98RMSNHPQHYC22VYXLCZID,9620EA71-190C-48F4-9218-7B2F2C28F355,2023-09-26_12h11.07.758,WP_VExplicitOC_HL,2022.2.5,Win32,22.06336599,50.26041667,3.2373,2.0035,NA,NA,NA,NA,NA,happy,"unhappy, happy","less happy, more happy",NA,NA,NA,NA,NA,NA,NA,NA,NA,NA,NA,NA,NA,NA,NA,NA,NA,NA,NA,NA,NA,NA,NA,NA,NA,NA,NA,NA,NA,NA,NA,NA,NA,0,2,2,0,1,NA,NA,NA,NA,NA,NA,NA,NA,NA,NA
SUPAMT01522,3AWETUDC98RMSNHPQHYC22VYXLCZID,9620EA71-190C-48F4-9218-7B2F2C28F355,2023-09-26_12h11.07.758,WP_VExplicitOC_HL,2022.2.5,Win32,22.06336599,NA,NA,NA,NA,NA,NA,NA,NA,NA,NA,NA,NA,NA,NA,NA,NA,NA,NA,NA,NA,NA,NA,NA,NA,NA,NA,NA,NA,NA,NA,NA,NA,NA,NA,NA,NA,NA,NA,NA,NA,NA,NA,NA,NA,NA,NA,NA,NA,NA,NA,NA,NA,NA,NA,NA,NA,NA,NA,NA
SUPAMT01522,3AWETUDC98RMSNHPQHYC22VYXLCZID,9620EA71-190C-48F4-9218-7B2F2C28F355,2023-09-26_12h11.07.758,WP_VExplicitOC_HL,2022.2.5,Win32,22.06336599,NA,NA,NA,NA,NA,NA,NA,NA,NA,NA,NA,NA,NA,NA,NA,NA,NA,NA,NA,NA,NA,NA,NA,NA,NA,NA,NA,NA,NA,NA,NA,NA,NA,NA,NA,NA,NA,NA,NA,NA,NA,NA,NA,NA,NA,NA,NA,NA,NA,NA,NA,NA,NA,NA,NA,NA,NA,NA,NA
SUPAMT01522,3AWETUDC98RMSNHPQHYC22VYXLCZID,9620EA71-190C-48F4-9218-7B2F2C28F355,2023-09-26_12h11.07.758,WP_VExplicitOC_HL,2022.2.5,Win32,22.06336599,42.1875,6.8819,2.0237,NA,NA,NA,NA,NA,frustrated,"frustrated, not frustrated","more frustrated, less frustrated",NA,NA,NA,NA,NA,NA,NA,NA,NA,NA,NA,NA,NA,NA,NA,NA,NA,NA,NA,NA,NA,NA,NA,NA,NA,NA,NA,NA,NA,NA,NA,NA,NA,NA,NA,NA,NA,NA,0,0,0,1,1,NA,NA,NA,NA,NA
SUPAMT01522,3AWETUDC98RMSNHPQHYC22VYXLCZID,9620EA71-190C-48F4-9218-7B2F2C28F355,2023-09-26_12h11.07.758,WP_VExplicitOC_HL,2022.2.5,Win32,22.06336599,44.27083333,3.1225,2.0134,NA,NA,NA,NA,NA,bored,"bored, not bored","more bored, less bored",NA,NA,NA,NA,NA,NA,NA,NA,NA,NA,NA,NA,NA,NA,NA,NA,NA,NA,NA,NA,NA,NA,NA,NA,NA,NA,NA,NA,NA,NA,NA,NA,NA,NA,NA,NA,NA,NA,0,1,1,2,1,NA,NA,NA,NA,NA
SUPAMT01522,3AWETUDC98RMSNHPQHYC22VYXLCZID,9620EA71-190C-48F4-9218-7B2F2C28F355,2023-09-26_12h11.07.758,WP_VExplicitOC_HL,2022.2.5,Win32,22.06336599,39.0625,3.2188,2.048,NA,NA,NA,NA,NA,happy,"unhappy, happy","less happy, more happy",NA,NA,NA,NA,NA,NA,NA,NA,NA,NA,NA,NA,NA,NA,NA,NA,NA,NA,NA,NA,NA,NA,NA,NA,NA,NA,NA,NA,NA,NA,NA,NA,NA,NA,NA,NA,NA,NA,0,2,2,0,1,NA,NA,NA,NA,NA
SUPAMT01522,3AWETUDC98RMSNHPQHYC22VYXLCZID,9620EA71-190C-48F4-9218-7B2F2C28F355,2023-09-26_12h11.07.758,WP_VExplicitOC_HL,2022.2.5,Win32,22.06336599,NA,NA,NA,NA,NA,NA,NA,NA,NA,NA,NA,NA,NA,NA,NA,NA,NA,NA,NA,NA,NA,NA,NA,NA,NA,NA,NA,NA,NA,NA,NA,NA,NA,NA,NA,NA,NA,NA,NA,NA,NA,NA,NA,NA,NA,NA,NA,NA,NA,NA,NA,NA,NA,NA,0,0,0,0,1
SUPAMT01522,3AWETUDC98RMSNHPQHYC22VYXLCZID,9620EA71-190C-48F4-9218-7B2F2C28F355,2023-09-26_12h11.07.758,WP_VExplicitOC_HL,2022.2.5,Win32,22.06336599,42.44791667,4.2139,2.09,NA,NA,NA,NA,NA,frustrated,"frustrated, not frustrated","more frustrated, less frustrated",NA,NA,NA,NA,NA,NA,NA,NA,NA,NA,NA,NA,NA,NA,NA,NA,NA,NA,NA,NA,NA,NA,NA,NA,NA,NA,NA,NA,NA,NA,NA,NA,NA,NA,NA,NA,NA,NA,0,0,0,1,1,NA,NA,NA,NA,NA
SUPAMT01522,3AWETUDC98RMSNHPQHYC22VYXLCZID,9620EA71-190C-48F4-9218-7B2F2C28F355,2023-09-26_12h11.07.758,WP_VExplicitOC_HL,2022.2.5,Win32,22.06336599,45.57291667,3.3114,2.0271,NA,NA,NA,NA,NA,bored,"bored, not bored","more bored, less bored",NA,NA,NA,NA,NA,NA,NA,NA,NA,NA,NA,NA,NA,NA,NA,NA,NA,NA,NA,NA,NA,NA,NA,NA,NA,NA,NA,NA,NA,NA,NA,NA,NA,NA,NA,NA,NA,NA,0,1,1,2,1,NA,NA,NA,NA,NA
SUPAMT01522,3AWETUDC98RMSNHPQHYC22VYXLCZID,9620EA71-190C-48F4-9218-7B2F2C28F355,2023-09-26_12h11.07.758,WP_VExplicitOC_HL,2022.2.5,Win32,22.06336599,30.20833333,3.1947,2.0292,NA,NA,NA,NA,NA,happy,"unhappy, happy","less happy, more happy",NA,NA,NA,NA,NA,NA,NA,NA,NA,NA,NA,NA,NA,NA,NA,NA,NA,NA,NA,NA,NA,NA,NA,NA,NA,NA,NA,NA,NA,NA,NA,NA,NA,NA,NA,NA,NA,NA,0,2,2,0,1,NA,NA,NA,NA,NA
SUPAMT01522,3AWETUDC98RMSNHPQHYC22VYXLCZID,9620EA71-190C-48F4-9218-7B2F2C28F355,2023-09-26_12h11.07.758,WP_VExplicitOC_HL,2022.2.5,Win32,22.06336599,NA,NA,NA,NA,NA,NA,NA,NA,NA,NA,NA,NA,NA,NA,NA,NA,NA,NA,NA,NA,NA,NA,NA,NA,NA,NA,NA,NA,NA,NA,NA,NA,NA,NA,NA,NA,NA,NA,NA,NA,NA,NA,NA,NA,NA,NA,NA,NA,NA,NA,NA,NA,NA,NA,1,0,1,0,1
SUPAMT01522,3AWETUDC98RMSNHPQHYC22VYXLCZID,9620EA71-190C-48F4-9218-7B2F2C28F355,2023-09-26_12h11.07.758,WP_VExplicitOC_HL,2022.2.5,Win32,22.06336599,NA,NA,2.0527,NA,NA,NA,NA,NA,frustrated,"frustrated, not frustrated","more frustrated, less frustrated",NA,NA,NA,NA,NA,NA,NA,NA,NA,NA,NA,NA,NA,NA,NA,NA,NA,NA,NA,NA,NA,NA,NA,NA,NA,NA,NA,NA,NA,NA,NA,NA,NA,NA,NA,NA,NA,NA,0,0,0,1,1,NA,NA,NA,NA,NA
SUPAMT01522,3AWETUDC98RMSNHPQHYC22VYXLCZID,9620EA71-190C-48F4-9218-7B2F2C28F355,2023-09-26_12h11.07.758,WP_VExplicitOC_HL,2022.2.5,Win32,22.06336599,NA,NA,2.0647,NA,NA,NA,NA,NA,happy,"unhappy, happy","less happy, more happy",NA,NA,NA,NA,NA,NA,NA,NA,NA,NA,NA,NA,NA,NA,NA,NA,NA,NA,NA,NA,NA,NA,NA,NA,NA,NA,NA,NA,NA,NA,NA,NA,NA,NA,NA,NA,NA,NA,0,1,1,0,1,NA,NA,NA,NA,NA
SUPAMT01522,3AWETUDC98RMSNHPQHYC22VYXLCZID,9620EA71-190C-48F4-9218-7B2F2C28F355,2023-09-26_12h11.07.758,WP_VExplicitOC_HL,2022.2.5,Win32,22.06336599,38.28125,3.4972,2.0625,NA,NA,NA,NA,NA,bored,"bored, not bored","more bored, less bored",NA,NA,NA,NA,NA,NA,NA,NA,NA,NA,NA,NA,NA,NA,NA,NA,NA,NA,NA,NA,NA,NA,NA,NA,NA,NA,NA,NA,NA,NA,NA,NA,NA,NA,NA,NA,NA,NA,0,2,2,2,1,NA,NA,NA,NA,NA
SUPAMT01522,3AWETUDC98RMSNHPQHYC22VYXLCZID,9620EA71-190C-48F4-9218-7B2F2C28F355,2023-09-26_12h11.07.758,WP_VExplicitOC_HL,2022.2.5,Win32,22.06336599,NA,NA,NA,NA,NA,NA,NA,NA,NA,NA,NA,NA,NA,NA,NA,NA,NA,NA,NA,NA,NA,NA,NA,NA,NA,NA,NA,NA,NA,NA,NA,NA,NA,NA,NA,NA,NA,NA,NA,NA,NA,NA,NA,NA,NA,NA,NA,NA,NA,NA,NA,NA,NA,NA,2,0,2,0,1
SUPAMT01522,3AWETUDC98RMSNHPQHYC22VYXLCZID,9620EA71-190C-48F4-9218-7B2F2C28F355,2023-09-26_12h11.07.758,WP_VExplicitOC_HL,2022.2.5,Win32,22.06336599,36.71875,3.4022,2.0361,NA,NA,NA,NA,NA,frustrated,"frustrated, not frustrated","more frustrated, less frustrated",NA,NA,NA,NA,NA,NA,NA,NA,NA,NA,NA,NA,NA,NA,NA,NA,NA,NA,NA,NA,NA,NA,NA,NA,NA,NA,NA,NA,NA,NA,NA,NA,NA,NA,NA,NA,NA,NA,0,0,0,1,1,NA,NA,NA,NA,NA
SUPAMT01522,3AWETUDC98RMSNHPQHYC22VYXLCZID,9620EA71-190C-48F4-9218-7B2F2C28F355,2023-09-26_12h11.07.758,WP_VExplicitOC_HL,2022.2.5,Win32,22.06336599,45.57291667,3.2939,2.0094,NA,NA,NA,NA,NA,happy,"unhappy, happy","less happy, more happy",NA,NA,NA,NA,NA,NA,NA,NA,NA,NA,NA,NA,NA,NA,NA,NA,NA,NA,NA,NA,NA,NA,NA,NA,NA,NA,NA,NA,NA,NA,NA,NA,NA,NA,NA,NA,NA,NA,0,1,1,0,1,NA,NA,NA,NA,NA
SUPAMT01522,3AWETUDC98RMSNHPQHYC22VYXLCZID,9620EA71-190C-48F4-9218-7B2F2C28F355,2023-09-26_12h11.07.758,WP_VExplicitOC_HL,2022.2.5,Win32,22.06336599,41.92708333,3.5665,2.0416,NA,NA,NA,NA,NA,bored,"bored, not bored","more bored, less bored",NA,NA,NA,NA,NA,NA,NA,NA,NA,NA,NA,NA,NA,NA,NA,NA,NA,NA,NA,NA,NA,NA,NA,NA,NA,NA,NA,NA,NA,NA,NA,NA,NA,NA,NA,NA,NA,NA,0,2,2,2,1,NA,NA,NA,NA,NA
SUPAMT01522,3AWETUDC98RMSNHPQHYC22VYXLCZID,9620EA71-190C-48F4-9218-7B2F2C28F355,2023-09-26_12h11.07.758,WP_VExplicitOC_HL,2022.2.5,Win32,22.06336599,NA,NA,NA,NA,NA,NA,NA,NA,NA,NA,NA,NA,NA,NA,NA,NA,NA,NA,NA,NA,NA,NA,NA,NA,NA,NA,NA,NA,NA,NA,NA,NA,NA,NA,NA,NA,NA,NA,NA,NA,NA,NA,NA,NA,NA,NA,NA,NA,NA,NA,NA,NA,NA,NA,3,0,3,0,1
SUPAMT01522,3AWETUDC98RMSNHPQHYC22VYXLCZID,9620EA71-190C-48F4-9218-7B2F2C28F355,2023-09-26_12h11.07.758,WP_VExplicitOC_HL,2022.2.5,Win32,22.06336599,44.53125,6.4759,2.0011,NA,NA,NA,NA,NA,bored,"bored, not bored","more bored, less bored",NA,NA,NA,NA,NA,NA,NA,NA,NA,NA,NA,NA,NA,NA,NA,NA,NA,NA,NA,NA,NA,NA,NA,NA,NA,NA,NA,NA,NA,NA,NA,NA,NA,NA,NA,NA,NA,NA,0,0,0,2,1,NA,NA,NA,NA,NA
SUPAMT01522,3AWETUDC98RMSNHPQHYC22VYXLCZID,9620EA71-190C-48F4-9218-7B2F2C28F355,2023-09-26_12h11.07.758,WP_VExplicitOC_HL,2022.2.5,Win32,22.06336599,44.27083333,3.3469,2.0267,NA,NA,NA,NA,NA,frustrated,"frustrated, not frustrated","more frustrated, less frustrated",NA,NA,NA,NA,NA,NA,NA,NA,NA,NA,NA,NA,NA,NA,NA,NA,NA,NA,NA,NA,NA,NA,NA,NA,NA,NA,NA,NA,NA,NA,NA,NA,NA,NA,NA,NA,NA,NA,0,1,1,1,1,NA,NA,NA,NA,NA
SUPAMT01522,3AWETUDC98RMSNHPQHYC22VYXLCZID,9620EA71-190C-48F4-9218-7B2F2C28F355,2023-09-26_12h11.07.758,WP_VExplicitOC_HL,2022.2.5,Win32,22.06336599,42.44791667,3.3825,2.0324,NA,NA,NA,NA,NA,happy,"unhappy, happy","less happy, more happy",NA,NA,NA,NA,NA,NA,NA,NA,NA,NA,NA,NA,NA,NA,NA,NA,NA,NA,NA,NA,NA,NA,NA,NA,NA,NA,NA,NA,NA,NA,NA,NA,NA,NA,NA,NA,NA,NA,0,2,2,0,1,NA,NA,NA,NA,NA
SUPAMT01522,3AWETUDC98RMSNHPQHYC22VYXLCZID,9620EA71-190C-48F4-9218-7B2F2C28F355,2023-09-26_12h11.07.758,WP_VExplicitOC_HL,2022.2.5,Win32,22.06336599,NA,NA,NA,NA,NA,NA,NA,NA,NA,NA,NA,NA,NA,NA,NA,NA,NA,NA,NA,NA,NA,NA,NA,NA,NA,NA,NA,NA,NA,NA,NA,NA,NA,NA,NA,NA,NA,NA,NA,NA,NA,NA,NA,NA,NA,NA,NA,NA,NA,NA,NA,NA,NA,NA,4,0,4,0,1
SUPAMT01522,3AWETUDC98RMSNHPQHYC22VYXLCZID,9620EA71-190C-48F4-9218-7B2F2C28F355,2023-09-26_12h11.07.758,WP_VExplicitOC_HL,2022.2.5,Win32,22.06336599,NA,NA,2.0387,NA,NA,NA,NA,NA,frustrated,"frustrated, not frustrated","more frustrated, less frustrated",NA,NA,NA,NA,NA,NA,NA,NA,NA,NA,NA,NA,NA,NA,NA,NA,NA,NA,NA,NA,NA,NA,NA,NA,NA,NA,NA,NA,NA,NA,NA,NA,NA,NA,NA,NA,NA,NA,0,0,0,1,1,NA,NA,NA,NA,NA
SUPAMT01522,3AWETUDC98RMSNHPQHYC22VYXLCZID,9620EA71-190C-48F4-9218-7B2F2C28F355,2023-09-26_12h11.07.758,WP_VExplicitOC_HL,2022.2.5,Win32,22.06336599,NA,NA,2.0916,NA,NA,NA,NA,NA,bored,"bored, not bored","more bored, less bored",NA,NA,NA,NA,NA,NA,NA,NA,NA,NA,NA,NA,NA,NA,NA,NA,NA,NA,NA,NA,NA,NA,NA,NA,NA,NA,NA,NA,NA,NA,NA,NA,NA,NA,NA,NA,NA,NA,0,1,1,2,1,NA,NA,NA,NA,NA
SUPAMT01522,3AWETUDC98RMSNHPQHYC22VYXLCZID,9620EA71-190C-48F4-9218-7B2F2C28F355,2023-09-26_12h11.07.758,WP_VExplicitOC_HL,2022.2.5,Win32,22.06336599,NA,NA,2.0256,NA,NA,NA,NA,NA,happy,"unhappy, happy","less happy, more happy",NA,NA,NA,NA,NA,NA,NA,NA,NA,NA,NA,NA,NA,NA,NA,NA,NA,NA,NA,NA,NA,NA,NA,NA,NA,NA,NA,NA,NA,NA,NA,NA,NA,NA,NA,NA,NA,NA,0,2,2,0,1,NA,NA,NA,NA,NA
SUPAMT01522,3AWETUDC98RMSNHPQHYC22VYXLCZID,9620EA71-190C-48F4-9218-7B2F2C28F355,2023-09-26_12h11.07.758,WP_VExplicitOC_HL,2022.2.5,Win32,22.06336599,NA,NA,NA,NA,NA,NA,NA,NA,NA,NA,NA,NA,NA,NA,NA,NA,NA,NA,NA,NA,NA,NA,NA,NA,NA,NA,NA,NA,NA,NA,NA,NA,NA,NA,NA,NA,NA,NA,NA,NA,NA,NA,NA,NA,NA,NA,NA,NA,NA,NA,NA,NA,NA,NA,5,0,5,0,1
SUPAMT01522,3AWETUDC98RMSNHPQHYC22VYXLCZID,9620EA71-190C-48F4-9218-7B2F2C28F355,2023-09-26_12h11.07.758,WP_VExplicitOC_HL,2022.2.5,Win32,22.06336599,NA,NA,2.0304,NA,NA,NA,NA,NA,frustrated,"frustrated, not frustrated","more frustrated, less frustrated",NA,NA,NA,NA,NA,NA,NA,NA,NA,NA,NA,NA,NA,NA,NA,NA,NA,NA,NA,NA,NA,NA,NA,NA,NA,NA,NA,NA,NA,NA,NA,NA,NA,NA,NA,NA,NA,NA,0,0,0,1,1,NA,NA,NA,NA,NA
SUPAMT01522,3AWETUDC98RMSNHPQHYC22VYXLCZID,9620EA71-190C-48F4-9218-7B2F2C28F355,2023-09-26_12h11.07.758,WP_VExplicitOC_HL,2022.2.5,Win32,22.06336599,38.28125,5.0134,2.0635,NA,NA,NA,NA,NA,happy,"unhappy, happy","less happy, more happy",NA,NA,NA,NA,NA,NA,NA,NA,NA,NA,NA,NA,NA,NA,NA,NA,NA,NA,NA,NA,NA,NA,NA,NA,NA,NA,NA,NA,NA,NA,NA,NA,NA,NA,NA,NA,NA,NA,0,1,1,0,1,NA,NA,NA,NA,NA
SUPAMT01522,3AWETUDC98RMSNHPQHYC22VYXLCZID,9620EA71-190C-48F4-9218-7B2F2C28F355,2023-09-26_12h11.07.758,WP_VExplicitOC_HL,2022.2.5,Win32,22.06336599,42.96875,3.392,2.0263,NA,NA,NA,NA,NA,bored,"bored, not bored","more bored, less bored",NA,NA,NA,NA,NA,NA,NA,NA,NA,NA,NA,NA,NA,NA,NA,NA,NA,NA,NA,NA,NA,NA,NA,NA,NA,NA,NA,NA,NA,NA,NA,NA,NA,NA,NA,NA,NA,NA,0,2,2,2,1,NA,NA,NA,NA,NA
SUPAMT01522,3AWETUDC98RMSNHPQHYC22VYXLCZID,9620EA71-190C-48F4-9218-7B2F2C28F355,2023-09-26_12h11.07.758,WP_VExplicitOC_HL,2022.2.5,Win32,22.06336599,NA,NA,NA,NA,NA,NA,NA,NA,NA,NA,NA,NA,NA,NA,NA,NA,NA,NA,NA,NA,NA,NA,NA,NA,NA,NA,NA,NA,NA,NA,NA,NA,NA,NA,NA,NA,NA,NA,NA,NA,NA,NA,NA,NA,NA,NA,NA,NA,NA,NA,NA,NA,NA,NA,6,0,6,0,1
SUPAMT01522,3AWETUDC98RMSNHPQHYC22VYXLCZID,9620EA71-190C-48F4-9218-7B2F2C28F355,2023-09-26_12h11.07.758,WP_VExplicitOC_HL,2022.2.5,Win32,22.06336599,54.42708333,6.2657,2.1001,NA,NA,NA,NA,NA,frustrated,"frustrated, not frustrated","more frustrated, less frustrated",NA,NA,NA,NA,NA,NA,NA,NA,NA,NA,NA,NA,NA,NA,NA,NA,NA,NA,NA,NA,NA,NA,NA,NA,NA,NA,NA,NA,NA,NA,NA,NA,NA,NA,NA,NA,NA,NA,0,0,0,1,1,NA,NA,NA,NA,NA
SUPAMT01522,3AWETUDC98RMSNHPQHYC22VYXLCZID,9620EA71-190C-48F4-9218-7B2F2C28F355,2023-09-26_12h11.07.758,WP_VExplicitOC_HL,2022.2.5,Win32,22.06336599,62.23958333,3.2181,2.0108,NA,NA,NA,NA,NA,happy,"unhappy, happy","less happy, more happy",NA,NA,NA,NA,NA,NA,NA,NA,NA,NA,NA,NA,NA,NA,NA,NA,NA,NA,NA,NA,NA,NA,NA,NA,NA,NA,NA,NA,NA,NA,NA,NA,NA,NA,NA,NA,NA,NA,0,1,1,0,1,NA,NA,NA,NA,NA
SUPAMT01522,3AWETUDC98RMSNHPQHYC22VYXLCZID,9620EA71-190C-48F4-9218-7B2F2C28F355,2023-09-26_12h11.07.758,WP_VExplicitOC_HL,2022.2.5,Win32,22.06336599,51.30208333,3.1334,2.022,NA,NA,NA,NA,NA,bored,"bored, not bored","more bored, less bored",NA,NA,NA,NA,NA,NA,NA,NA,NA,NA,NA,NA,NA,NA,NA,NA,NA,NA,NA,NA,NA,NA,NA,NA,NA,NA,NA,NA,NA,NA,NA,NA,NA,NA,NA,NA,NA,NA,0,2,2,2,1,NA,NA,NA,NA,NA
SUPAMT01522,3AWETUDC98RMSNHPQHYC22VYXLCZID,9620EA71-190C-48F4-9218-7B2F2C28F355,2023-09-26_12h11.07.758,WP_VExplicitOC_HL,2022.2.5,Win32,22.06336599,NA,NA,NA,NA,NA,NA,NA,NA,NA,NA,NA,NA,NA,NA,NA,NA,NA,NA,NA,NA,NA,NA,NA,NA,NA,NA,NA,NA,NA,NA,NA,NA,NA,NA,NA,NA,NA,NA,NA,NA,NA,NA,NA,NA,NA,NA,NA,NA,NA,NA,NA,NA,NA,NA,7,0,7,0,1
SUPAMT01522,3AWETUDC98RMSNHPQHYC22VYXLCZID,9620EA71-190C-48F4-9218-7B2F2C28F355,2023-09-26_12h11.07.758,WP_VExplicitOC_HL,2022.2.5,Win32,22.06336599,NA,NA,2.0123,NA,NA,NA,NA,NA,happy,"unhappy, happy","less happy, more happy",NA,NA,NA,NA,NA,NA,NA,NA,NA,NA,NA,NA,NA,NA,NA,NA,NA,NA,NA,NA,NA,NA,NA,NA,NA,NA,NA,NA,NA,NA,NA,NA,NA,NA,NA,NA,NA,NA,0,0,0,0,1,NA,NA,NA,NA,NA
SUPAMT01522,3AWETUDC98RMSNHPQHYC22VYXLCZID,9620EA71-190C-48F4-9218-7B2F2C28F355,2023-09-26_12h11.07.758,WP_VExplicitOC_HL,2022.2.5,Win32,22.06336599,NA,NA,2.0025,NA,NA,NA,NA,NA,bored,"bored, not bored","more bored, less bored",NA,NA,NA,NA,NA,NA,NA,NA,NA,NA,NA,NA,NA,NA,NA,NA,NA,NA,NA,NA,NA,NA,NA,NA,NA,NA,NA,NA,NA,NA,NA,NA,NA,NA,NA,NA,NA,NA,0,1,1,2,1,NA,NA,NA,NA,NA
SUPAMT01522,3AWETUDC98RMSNHPQHYC22VYXLCZID,9620EA71-190C-48F4-9218-7B2F2C28F355,2023-09-26_12h11.07.758,WP_VExplicitOC_HL,2022.2.5,Win32,22.06336599,NA,NA,2.0293,NA,NA,NA,NA,NA,frustrated,"frustrated, not frustrated","more frustrated, less frustrated",NA,NA,NA,NA,NA,NA,NA,NA,NA,NA,NA,NA,NA,NA,NA,NA,NA,NA,NA,NA,NA,NA,NA,NA,NA,NA,NA,NA,NA,NA,NA,NA,NA,NA,NA,NA,NA,NA,0,2,2,1,1,NA,NA,NA,NA,NA
SUPAMT01522,3AWETUDC98RMSNHPQHYC22VYXLCZID,9620EA71-190C-48F4-9218-7B2F2C28F355,2023-09-26_12h11.07.758,WP_VExplicitOC_HL,2022.2.5,Win32,22.06336599,NA,NA,NA,NA,NA,NA,NA,NA,NA,NA,NA,NA,NA,NA,NA,NA,NA,NA,NA,NA,NA,NA,NA,NA,NA,NA,NA,NA,NA,NA,NA,NA,NA,NA,NA,NA,NA,NA,NA,NA,NA,NA,NA,NA,NA,NA,NA,NA,NA,NA,NA,NA,NA,NA,8,0,8,0,1
SUPAMT01522,3AWETUDC98RMSNHPQHYC22VYXLCZID,9620EA71-190C-48F4-9218-7B2F2C28F355,2023-09-26_12h11.07.758,WP_VExplicitOC_HL,2022.2.5,Win32,22.06336599,NA,NA,2.0361,NA,NA,NA,NA,NA,bored,"bored, not bored","more bored, less bored",NA,NA,NA,NA,NA,NA,NA,NA,NA,NA,NA,NA,NA,NA,NA,NA,NA,NA,NA,NA,NA,NA,NA,NA,NA,NA,NA,NA,NA,NA,NA,NA,NA,NA,NA,NA,NA,NA,0,0,0,2,1,NA,NA,NA,NA,NA
SUPAMT01522,3AWETUDC98RMSNHPQHYC22VYXLCZID,9620EA71-190C-48F4-9218-7B2F2C28F355,2023-09-26_12h11.07.758,WP_VExplicitOC_HL,2022.2.5,Win32,22.06336599,NA,NA,2.0532,NA,NA,NA,NA,NA,happy,"unhappy, happy","less happy, more happy",NA,NA,NA,NA,NA,NA,NA,NA,NA,NA,NA,NA,NA,NA,NA,NA,NA,NA,NA,NA,NA,NA,NA,NA,NA,NA,NA,NA,NA,NA,NA,NA,NA,NA,NA,NA,NA,NA,0,1,1,0,1,NA,NA,NA,NA,NA
SUPAMT01522,3AWETUDC98RMSNHPQHYC22VYXLCZID,9620EA71-190C-48F4-9218-7B2F2C28F355,2023-09-26_12h11.07.758,WP_VExplicitOC_HL,2022.2.5,Win32,22.06336599,NA,NA,2.1988,NA,NA,NA,NA,NA,frustrated,"frustrated, not frustrated","more frustrated, less frustrated",NA,NA,NA,NA,NA,NA,NA,NA,NA,NA,NA,NA,NA,NA,NA,NA,NA,NA,NA,NA,NA,NA,NA,NA,NA,NA,NA,NA,NA,NA,NA,NA,NA,NA,NA,NA,NA,NA,0,2,2,1,1,NA,NA,NA,NA,NA
SUPAMT01522,3AWETUDC98RMSNHPQHYC22VYXLCZID,9620EA71-190C-48F4-9218-7B2F2C28F355,2023-09-26_12h11.07.758,WP_VExplicitOC_HL,2022.2.5,Win32,22.06336599,NA,NA,NA,NA,NA,NA,NA,NA,NA,NA,NA,NA,NA,NA,NA,NA,NA,NA,NA,NA,NA,NA,NA,NA,NA,NA,NA,NA,NA,NA,NA,NA,NA,NA,NA,NA,NA,NA,NA,NA,NA,NA,NA,NA,NA,NA,NA,NA,NA,NA,NA,NA,NA,NA,9,0,9,0,1
SUPAMT01522,3AWETUDC98RMSNHPQHYC22VYXLCZID,9620EA71-190C-48F4-9218-7B2F2C28F355,2023-09-26_12h11.07.758,WP_VExplicitOC_HL,2022.2.5,Win32,22.06336599,NA,NA,2.0341,NA,NA,NA,NA,NA,frustrated,"frustrated, not frustrated","more frustrated, less frustrated",NA,NA,NA,NA,NA,NA,NA,NA,NA,NA,NA,NA,NA,NA,NA,NA,NA,NA,NA,NA,NA,NA,NA,NA,NA,NA,NA,NA,NA,NA,NA,NA,NA,NA,NA,NA,NA,NA,0,0,0,1,1,NA,NA,NA,NA,NA
SUPAMT01522,3AWETUDC98RMSNHPQHYC22VYXLCZID,9620EA71-190C-48F4-9218-7B2F2C28F355,2023-09-26_12h11.07.758,WP_VExplicitOC_HL,2022.2.5,Win32,22.06336599,44.79166667,4.7397,2.0282,NA,NA,NA,NA,NA,bored,"bored, not bored","more bored, less bored",NA,NA,NA,NA,NA,NA,NA,NA,NA,NA,NA,NA,NA,NA,NA,NA,NA,NA,NA,NA,NA,NA,NA,NA,NA,NA,NA,NA,NA,NA,NA,NA,NA,NA,NA,NA,NA,NA,0,1,1,2,1,NA,NA,NA,NA,NA
SUPAMT01522,3AWETUDC98RMSNHPQHYC22VYXLCZID,9620EA71-190C-48F4-9218-7B2F2C28F355,2023-09-26_12h11.07.758,WP_VExplicitOC_HL,2022.2.5,Win32,22.06336599,34.375,7.2755,2.0218,NA,NA,NA,NA,NA,happy,"unhappy, happy","less happy, more happy",NA,NA,NA,NA,NA,NA,NA,NA,NA,NA,NA,NA,NA,NA,NA,NA,NA,NA,NA,NA,NA,NA,NA,NA,NA,NA,NA,NA,NA,NA,NA,NA,NA,NA,NA,NA,NA,NA,0,2,2,0,1,NA,NA,NA,NA,NA
SUPAMT01522,3AWETUDC98RMSNHPQHYC22VYXLCZID,9620EA71-190C-48F4-9218-7B2F2C28F355,2023-09-26_12h11.07.758,WP_VExplicitOC_HL,2022.2.5,Win32,22.06336599,NA,NA,NA,NA,NA,NA,NA,NA,NA,NA,NA,NA,NA,NA,NA,NA,NA,NA,NA,NA,NA,NA,NA,NA,NA,NA,NA,NA,NA,NA,NA,NA,NA,NA,NA,NA,NA,NA,NA,NA,NA,NA,NA,NA,NA,NA,NA,NA,NA,NA,NA,NA,NA,NA,10,0,10,0,1
SUPAMT01522,3AWETUDC98RMSNHPQHYC22VYXLCZID,9620EA71-190C-48F4-9218-7B2F2C28F355,2023-09-26_12h11.07.758,WP_VExplicitOC_HL,2022.2.5,Win32,22.06336599,69.27083333,4.007,2.0316,NA,NA,NA,NA,NA,happy,"unhappy, happy","less happy, more happy",NA,NA,NA,NA,NA,NA,NA,NA,NA,NA,NA,NA,NA,NA,NA,NA,NA,NA,NA,NA,NA,NA,NA,NA,NA,NA,NA,NA,NA,NA,NA,NA,NA,NA,NA,NA,NA,NA,0,0,0,0,1,NA,NA,NA,NA,NA
SUPAMT01522,3AWETUDC98RMSNHPQHYC22VYXLCZID,9620EA71-190C-48F4-9218-7B2F2C28F355,2023-09-26_12h11.07.758,WP_VExplicitOC_HL,2022.2.5,Win32,22.06336599,44.27083333,3.4056,2.0773,NA,NA,NA,NA,NA,bored,"bored, not bored","more bored, less bored",NA,NA,NA,NA,NA,NA,NA,NA,NA,NA,NA,NA,NA,NA,NA,NA,NA,NA,NA,NA,NA,NA,NA,NA,NA,NA,NA,NA,NA,NA,NA,NA,NA,NA,NA,NA,NA,NA,0,1,1,2,1,NA,NA,NA,NA,NA
SUPAMT01522,3AWETUDC98RMSNHPQHYC22VYXLCZID,9620EA71-190C-48F4-9218-7B2F2C28F355,2023-09-26_12h11.07.758,WP_VExplicitOC_HL,2022.2.5,Win32,22.06336599,41.92708333,3.2842,2.0348,NA,NA,NA,NA,NA,frustrated,"frustrated, not frustrated","more frustrated, less frustrated",NA,NA,NA,NA,NA,NA,NA,NA,NA,NA,NA,NA,NA,NA,NA,NA,NA,NA,NA,NA,NA,NA,NA,NA,NA,NA,NA,NA,NA,NA,NA,NA,NA,NA,NA,NA,NA,NA,0,2,2,1,1,NA,NA,NA,NA,NA
SUPAMT01522,3AWETUDC98RMSNHPQHYC22VYXLCZID,9620EA71-190C-48F4-9218-7B2F2C28F355,2023-09-26_12h11.07.758,WP_VExplicitOC_HL,2022.2.5,Win32,22.06336599,NA,NA,NA,NA,NA,NA,NA,NA,NA,NA,NA,NA,NA,NA,NA,NA,NA,NA,NA,NA,NA,NA,NA,NA,NA,NA,NA,NA,NA,NA,NA,NA,NA,NA,NA,NA,NA,NA,NA,NA,NA,NA,NA,NA,NA,NA,NA,NA,NA,NA,NA,NA,NA,NA,11,0,11,0,1
SUPAMT01522,3AWETUDC98RMSNHPQHYC22VYXLCZID,9620EA71-190C-48F4-9218-7B2F2C28F355,2023-09-26_12h11.07.758,WP_VExplicitOC_HL,2022.2.5,Win32,22.06336599,42.1875,4.8282,2.0092,NA,NA,NA,NA,NA,bored,"bored, not bored","more bored, less bored",NA,NA,NA,NA,NA,NA,NA,NA,NA,NA,NA,NA,NA,NA,NA,NA,NA,NA,NA,NA,NA,NA,NA,NA,NA,NA,NA,NA,NA,NA,NA,NA,NA,NA,NA,NA,NA,NA,0,0,0,2,1,NA,NA,NA,NA,NA
SUPAMT01522,3AWETUDC98RMSNHPQHYC22VYXLCZID,9620EA71-190C-48F4-9218-7B2F2C28F355,2023-09-26_12h11.07.758,WP_VExplicitOC_HL,2022.2.5,Win32,22.06336599,38.80208333,3.1956,2.0006,NA,NA,NA,NA,NA,happy,"unhappy, happy","less happy, more happy",NA,NA,NA,NA,NA,NA,NA,NA,NA,NA,NA,NA,NA,NA,NA,NA,NA,NA,NA,NA,NA,NA,NA,NA,NA,NA,NA,NA,NA,NA,NA,NA,NA,NA,NA,NA,NA,NA,0,1,1,0,1,NA,NA,NA,NA,NA
SUPAMT01522,3AWETUDC98RMSNHPQHYC22VYXLCZID,9620EA71-190C-48F4-9218-7B2F2C28F355,2023-09-26_12h11.07.758,WP_VExplicitOC_HL,2022.2.5,Win32,22.06336599,34.63541667,6.0976,2.0192,NA,NA,NA,NA,NA,frustrated,"frustrated, not frustrated","more frustrated, less frustrated",NA,NA,NA,NA,NA,NA,NA,NA,NA,NA,NA,NA,NA,NA,NA,NA,NA,NA,NA,NA,NA,NA,NA,NA,NA,NA,NA,NA,NA,NA,NA,NA,NA,NA,NA,NA,NA,NA,0,2,2,1,1,NA,NA,NA,NA,NA
SUPAMT01522,3AWETUDC98RMSNHPQHYC22VYXLCZID,9620EA71-190C-48F4-9218-7B2F2C28F355,2023-09-26_12h11.07.758,WP_VExplicitOC_HL,2022.2.5,Win32,22.06336599,NA,NA,NA,NA,NA,NA,NA,NA,NA,NA,NA,NA,NA,NA,NA,NA,NA,NA,NA,NA,NA,NA,NA,NA,NA,NA,NA,NA,NA,NA,NA,NA,NA,NA,NA,NA,NA,NA,NA,NA,NA,NA,NA,NA,NA,NA,NA,NA,NA,NA,NA,NA,NA,NA,12,0,12,0,1
SUPAMT01522,3AWETUDC98RMSNHPQHYC22VYXLCZID,9620EA71-190C-48F4-9218-7B2F2C28F355,2023-09-26_12h11.07.758,WP_VExplicitOC_HL,2022.2.5,Win32,22.06336599,39.84375,3.4946,2.0607,NA,NA,NA,NA,NA,frustrated,"frustrated, not frustrated","more frustrated, less frustrated",NA,NA,NA,NA,NA,NA,NA,NA,NA,NA,NA,NA,NA,NA,NA,NA,NA,NA,NA,NA,NA,NA,NA,NA,NA,NA,NA,NA,NA,NA,NA,NA,NA,NA,NA,NA,NA,NA,0,0,0,1,1,NA,NA,NA,NA,NA
SUPAMT01522,3AWETUDC98RMSNHPQHYC22VYXLCZID,9620EA71-190C-48F4-9218-7B2F2C28F355,2023-09-26_12h11.07.758,WP_VExplicitOC_HL,2022.2.5,Win32,22.06336599,36.45833333,3.2743,2.1111,NA,NA,NA,NA,NA,happy,"unhappy, happy","less happy, more happy",NA,NA,NA,NA,NA,NA,NA,NA,NA,NA,NA,NA,NA,NA,NA,NA,NA,NA,NA,NA,NA,NA,NA,NA,NA,NA,NA,NA,NA,NA,NA,NA,NA,NA,NA,NA,NA,NA,0,1,1,0,1,NA,NA,NA,NA,NA
SUPAMT01522,3AWETUDC98RMSNHPQHYC22VYXLCZID,9620EA71-190C-48F4-9218-7B2F2C28F355,2023-09-26_12h11.07.758,WP_VExplicitOC_HL,2022.2.5,Win32,22.06336599,36.97916667,3.7568,2.0453,NA,NA,NA,NA,NA,bored,"bored, not bored","more bored, less bored",NA,NA,NA,NA,NA,NA,NA,NA,NA,NA,NA,NA,NA,NA,NA,NA,NA,NA,NA,NA,NA,NA,NA,NA,NA,NA,NA,NA,NA,NA,NA,NA,NA,NA,NA,NA,NA,NA,0,2,2,2,1,NA,NA,NA,NA,NA
SUPAMT01522,3AWETUDC98RMSNHPQHYC22VYXLCZID,9620EA71-190C-48F4-9218-7B2F2C28F355,2023-09-26_12h11.07.758,WP_VExplicitOC_HL,2022.2.5,Win32,22.06336599,NA,NA,NA,NA,NA,NA,NA,NA,NA,NA,NA,NA,NA,NA,NA,NA,NA,NA,NA,NA,NA,NA,NA,NA,NA,NA,NA,NA,NA,NA,NA,NA,NA,NA,NA,NA,NA,NA,NA,NA,NA,NA,NA,NA,NA,NA,NA,NA,NA,NA,NA,NA,NA,NA,13,0,13,0,1
SUPAMT01522,3AWETUDC98RMSNHPQHYC22VYXLCZID,9620EA71-190C-48F4-9218-7B2F2C28F355,2023-09-26_12h11.07.758,WP_VExplicitOC_HL,2022.2.5,Win32,22.06336599,52.08333333,3.9751,2.0285,NA,NA,NA,NA,NA,happy,"unhappy, happy","less happy, more happy",NA,NA,NA,NA,NA,NA,NA,NA,NA,NA,NA,NA,NA,NA,NA,NA,NA,NA,NA,NA,NA,NA,NA,NA,NA,NA,NA,NA,NA,NA,NA,NA,NA,NA,NA,NA,NA,NA,0,0,0,0,1,NA,NA,NA,NA,NA
SUPAMT01522,3AWETUDC98RMSNHPQHYC22VYXLCZID,9620EA71-190C-48F4-9218-7B2F2C28F355,2023-09-26_12h11.07.758,WP_VExplicitOC_HL,2022.2.5,Win32,22.06336599,44.53125,3.299,2.0067,NA,NA,NA,NA,NA,bored,"bored, not bored","more bored, less bored",NA,NA,NA,NA,NA,NA,NA,NA,NA,NA,NA,NA,NA,NA,NA,NA,NA,NA,NA,NA,NA,NA,NA,NA,NA,NA,NA,NA,NA,NA,NA,NA,NA,NA,NA,NA,NA,NA,0,1,1,2,1,NA,NA,NA,NA,NA
SUPAMT01522,3AWETUDC98RMSNHPQHYC22VYXLCZID,9620EA71-190C-48F4-9218-7B2F2C28F355,2023-09-26_12h11.07.758,WP_VExplicitOC_HL,2022.2.5,Win32,22.06336599,37.76041667,3.833,2.0113,NA,NA,NA,NA,NA,frustrated,"frustrated, not frustrated","more frustrated, less frustrated",NA,NA,NA,NA,NA,NA,NA,NA,NA,NA,NA,NA,NA,NA,NA,NA,NA,NA,NA,NA,NA,NA,NA,NA,NA,NA,NA,NA,NA,NA,NA,NA,NA,NA,NA,NA,NA,NA,0,2,2,1,1,NA,NA,NA,NA,NA
SUPAMT01522,3AWETUDC98RMSNHPQHYC22VYXLCZID,9620EA71-190C-48F4-9218-7B2F2C28F355,2023-09-26_12h11.07.758,WP_VExplicitOC_HL,2022.2.5,Win32,22.06336599,NA,NA,NA,NA,NA,NA,NA,NA,NA,NA,NA,NA,NA,NA,NA,NA,NA,NA,NA,NA,NA,NA,NA,NA,NA,NA,NA,NA,NA,NA,NA,NA,NA,NA,NA,NA,NA,NA,NA,NA,NA,NA,NA,NA,NA,NA,NA,NA,NA,NA,NA,NA,NA,NA,14,0,14,0,1
SUPAMT01522,3AWETUDC98RMSNHPQHYC22VYXLCZID,9620EA71-190C-48F4-9218-7B2F2C28F355,2023-09-26_12h11.07.758,WP_VExplicitOC_HL,2022.2.5,Win32,22.06336599,NA,NA,NA,NA,NA,NA,NA,NA,NA,NA,NA,NA,NA,NA,NA,NA,NA,NA,NA,NA,NA,NA,NA,NA,NA,NA,NA,NA,NA,NA,NA,NA,NA,NA,NA,NA,NA,NA,NA,NA,NA,NA,NA,NA,NA,NA,NA,NA,NA,NA,NA,NA,NA,NA,NA,NA,NA,NA,NA
