participant,session,completion,date,expName,psychopyVersion,OS,frameRate,rating_all.response,rating_all.rt,rating_all.tStart,rndRat1.thisRepN,rndRat1.thisTrialN,rndRat1.thisN,rndRat1.thisIndex,rndRat1.ran,Emo,Labs,Labs2,rating_alt.response,rating_alt.rt,AltC.thisRepN,AltC.thisTrialN,AltC.thisN,AltC.thisIndex,AltC.ran,alt_choices,pic_choices,TopAlt_Choice,rndRat2.thisRepN,rndRat2.thisTrialN,rndRat2.thisN,rndRat2.thisIndex,rndRat2.ran,rndRat3.thisRepN,rndRat3.thisTrialN,rndRat3.thisN,rndRat3.thisIndex,rndRat3.ran,trials_FC_H.thisRepN,trials_FC_H.thisTrialN,trials_FC_H.thisN,trials_FC_H.thisIndex,trials_FC_H.ran,rating_alt_2.response,rating_alt_2.rt,AltC2.thisRepN,AltC2.thisTrialN,AltC2.thisN,AltC2.thisIndex,AltC2.ran,BottomAlt_Choice,rndRat4.thisRepN,rndRat4.thisTrialN,rndRat4.thisN,rndRat4.thisIndex,rndRat4.ran,rndRat5.thisRepN,rndRat5.thisTrialN,rndRat5.thisN,rndRat5.thisIndex,rndRat5.ran,trials_FC_L.thisRepN,trials_FC_L.thisTrialN,trials_FC_L.thisN,trials_FC_L.thisIndex,trials_FC_L.ran
SUPAMT42721,3NC5L260MULQJS1SN0HAJ7B2Y98FOW,0757A9C7-11F0-4765-BB63-41404B22B077,2023-09-29_20h55.27.601,WP_VExplicitOC_HL,2022.2.5,Win32,59.9880024,NA,NA,NA,NA,NA,NA,NA,NA,NA,NA,NA,NA,NA,NA,NA,NA,NA,NA,NA,NA,NA,NA,NA,NA,NA,NA,NA,NA,NA,NA,NA,NA,NA,NA,NA,NA,NA,NA,NA,NA,NA,NA,NA,NA,NA,NA,NA,NA,NA,NA,NA,NA,NA,NA,NA,NA,NA,NA,NA
SUPAMT42721,3NC5L260MULQJS1SN0HAJ7B2Y98FOW,0757A9C7-11F0-4765-BB63-41404B22B077,2023-09-29_20h55.27.601,WP_VExplicitOC_HL,2022.2.5,Win32,59.9880024,NA,NA,NA,NA,NA,NA,NA,NA,NA,NA,NA,NA,NA,NA,NA,NA,NA,NA,NA,NA,NA,NA,NA,NA,NA,NA,NA,NA,NA,NA,NA,NA,NA,NA,NA,NA,NA,NA,NA,NA,NA,NA,NA,NA,NA,NA,NA,NA,NA,NA,NA,NA,NA,NA,NA,NA,NA,NA,NA
SUPAMT42721,3NC5L260MULQJS1SN0HAJ7B2Y98FOW,0757A9C7-11F0-4765-BB63-41404B22B077,2023-09-29_20h55.27.601,WP_VExplicitOC_HL,2022.2.5,Win32,59.9880024,NA,NA,NA,NA,NA,NA,NA,NA,NA,NA,NA,NA,NA,NA,NA,NA,NA,NA,NA,NA,NA,NA,NA,NA,NA,NA,NA,NA,NA,NA,NA,NA,NA,NA,NA,NA,NA,NA,NA,NA,NA,NA,NA,NA,NA,NA,NA,NA,NA,NA,NA,NA,NA,NA,NA,NA,NA,NA,NA
SUPAMT42721,3NC5L260MULQJS1SN0HAJ7B2Y98FOW,0757A9C7-11F0-4765-BB63-41404B22B077,2023-09-29_20h55.27.601,WP_VExplicitOC_HL,2022.2.5,Win32,59.9880024,-35.5555499,4.7076,2.009,0,0,0,2,1,bored,"bored, not bored","more bored, less bored",NA,NA,NA,NA,NA,NA,NA,NA,NA,NA,NA,NA,NA,NA,NA,NA,NA,NA,NA,NA,NA,NA,NA,NA,NA,NA,NA,NA,NA,NA,NA,NA,NA,NA,NA,NA,NA,NA,NA,NA,NA,NA,NA,NA,NA,NA,NA,NA
SUPAMT42721,3NC5L260MULQJS1SN0HAJ7B2Y98FOW,0757A9C7-11F0-4765-BB63-41404B22B077,2023-09-29_20h55.27.601,WP_VExplicitOC_HL,2022.2.5,Win32,59.9880024,35.18518519,3.7106,2.0138,0,1,1,0,1,happy,"unhappy, happy","less happy, more happy",NA,NA,NA,NA,NA,NA,NA,NA,NA,NA,NA,NA,NA,NA,NA,NA,NA,NA,NA,NA,NA,NA,NA,NA,NA,NA,NA,NA,NA,NA,NA,NA,NA,NA,NA,NA,NA,NA,NA,NA,NA,NA,NA,NA,NA,NA,NA,NA
SUPAMT42721,3NC5L260MULQJS1SN0HAJ7B2Y98FOW,0757A9C7-11F0-4765-BB63-41404B22B077,2023-09-29_20h55.27.601,WP_VExplicitOC_HL,2022.2.5,Win32,59.9880024,-17.96295731,3.4967,2.0158,0,2,2,1,1,frustrated,"frustrated, not frustrated","more frustrated, less frustrated",NA,NA,NA,NA,NA,NA,NA,NA,NA,NA,NA,NA,NA,NA,NA,NA,NA,NA,NA,NA,NA,NA,NA,NA,NA,NA,NA,NA,NA,NA,NA,NA,NA,NA,NA,NA,NA,NA,NA,NA,NA,NA,NA,NA,NA,NA,NA,NA
SUPAMT42721,3NC5L260MULQJS1SN0HAJ7B2Y98FOW,0757A9C7-11F0-4765-BB63-41404B22B077,2023-09-29_20h55.27.601,WP_VExplicitOC_HL,2022.2.5,Win32,59.9880024,NA,NA,NA,NA,NA,NA,NA,NA,NA,NA,NA,NA,NA,NA,NA,NA,NA,NA,NA,NA,NA,NA,NA,NA,NA,NA,NA,NA,NA,NA,NA,NA,NA,NA,NA,NA,NA,NA,NA,NA,NA,NA,NA,NA,NA,NA,NA,NA,NA,NA,NA,NA,NA,NA,NA,NA,NA,NA,NA
SUPAMT42721,3NC5L260MULQJS1SN0HAJ7B2Y98FOW,0757A9C7-11F0-4765-BB63-41404B22B077,2023-09-29_20h55.27.601,WP_VExplicitOC_HL,2022.2.5,Win32,59.9880024,NA,NA,NA,NA,NA,NA,NA,NA,NA,NA,NA,NA,NA,NA,NA,NA,NA,NA,NA,NA,NA,NA,NA,NA,NA,NA,NA,NA,NA,NA,NA,NA,NA,NA,NA,NA,NA,NA,NA,NA,NA,NA,NA,NA,NA,NA,NA,NA,NA,NA,NA,NA,NA,NA,NA,NA,NA,NA,NA
SUPAMT42721,3NC5L260MULQJS1SN0HAJ7B2Y98FOW,0757A9C7-11F0-4765-BB63-41404B22B077,2023-09-29_20h55.27.601,WP_VExplicitOC_HL,2022.2.5,Win32,59.9880024,NA,NA,NA,NA,NA,NA,NA,NA,NA,NA,NA,NA,NA,NA,NA,NA,NA,NA,NA,NA,NA,NA,NA,NA,NA,NA,NA,NA,NA,NA,NA,NA,NA,NA,NA,NA,NA,NA,NA,NA,NA,NA,NA,NA,NA,NA,NA,NA,NA,NA,NA,NA,NA,NA,NA,NA,NA,NA,NA
SUPAMT42721,3NC5L260MULQJS1SN0HAJ7B2Y98FOW,0757A9C7-11F0-4765-BB63-41404B22B077,2023-09-29_20h55.27.601,WP_VExplicitOC_HL,2022.2.5,Win32,59.9880024,NA,NA,NA,NA,NA,NA,NA,NA,NA,NA,NA,NA,NA,NA,NA,NA,NA,NA,NA,NA,NA,NA,NA,NA,NA,NA,NA,NA,NA,NA,NA,NA,NA,NA,NA,NA,NA,NA,NA,NA,NA,NA,NA,NA,NA,NA,NA,NA,NA,NA,NA,NA,NA,NA,NA,NA,NA,NA,NA
SUPAMT42721,3NC5L260MULQJS1SN0HAJ7B2Y98FOW,0757A9C7-11F0-4765-BB63-41404B22B077,2023-09-29_20h55.27.601,WP_VExplicitOC_HL,2022.2.5,Win32,59.9880024,NA,NA,NA,NA,NA,NA,NA,NA,NA,NA,NA,-100,2.5445,0,0,0,0,1,rest (looking at a fixed cross),001.png,NA,NA,NA,NA,NA,NA,NA,NA,NA,NA,NA,NA,NA,NA,NA,NA,NA,NA,NA,NA,NA,NA,NA,NA,NA,NA,NA,NA,NA,NA,NA,NA,NA,NA,NA,NA,NA,NA,NA
SUPAMT42721,3NC5L260MULQJS1SN0HAJ7B2Y98FOW,0757A9C7-11F0-4765-BB63-41404B22B077,2023-09-29_20h55.27.601,WP_VExplicitOC_HL,2022.2.5,Win32,59.9880024,NA,NA,NA,NA,NA,NA,NA,NA,NA,NA,NA,-18.88888324,3.7846,0,1,1,1,1,stand up,002.png,NA,NA,NA,NA,NA,NA,NA,NA,NA,NA,NA,NA,NA,NA,NA,NA,NA,NA,NA,NA,NA,NA,NA,NA,NA,NA,NA,NA,NA,NA,NA,NA,NA,NA,NA,NA,NA,NA,NA
SUPAMT42721,3NC5L260MULQJS1SN0HAJ7B2Y98FOW,0757A9C7-11F0-4765-BB63-41404B22B077,2023-09-29_20h55.27.601,WP_VExplicitOC_HL,2022.2.5,Win32,59.9880024,NA,NA,NA,NA,NA,NA,NA,NA,NA,NA,NA,56.85186033,3.0211,0,2,2,2,1,stretch,003.png,NA,NA,NA,NA,NA,NA,NA,NA,NA,NA,NA,NA,NA,NA,NA,NA,NA,NA,NA,NA,NA,NA,NA,NA,NA,NA,NA,NA,NA,NA,NA,NA,NA,NA,NA,NA,NA,NA,NA
SUPAMT42721,3NC5L260MULQJS1SN0HAJ7B2Y98FOW,0757A9C7-11F0-4765-BB63-41404B22B077,2023-09-29_20h55.27.601,WP_VExplicitOC_HL,2022.2.5,Win32,59.9880024,NA,NA,NA,NA,NA,NA,NA,NA,NA,NA,NA,14.99999717,2.4545,0,3,3,3,1,make a drink,004.png,NA,NA,NA,NA,NA,NA,NA,NA,NA,NA,NA,NA,NA,NA,NA,NA,NA,NA,NA,NA,NA,NA,NA,NA,NA,NA,NA,NA,NA,NA,NA,NA,NA,NA,NA,NA,NA,NA,NA
SUPAMT42721,3NC5L260MULQJS1SN0HAJ7B2Y98FOW,0757A9C7-11F0-4765-BB63-41404B22B077,2023-09-29_20h55.27.601,WP_VExplicitOC_HL,2022.2.5,Win32,59.9880024,NA,NA,NA,NA,NA,NA,NA,NA,NA,NA,NA,28.88888606,2.5866,0,4,4,4,1,scroll social media,005.png,NA,NA,NA,NA,NA,NA,NA,NA,NA,NA,NA,NA,NA,NA,NA,NA,NA,NA,NA,NA,NA,NA,NA,NA,NA,NA,NA,NA,NA,NA,NA,NA,NA,NA,NA,NA,NA,NA,NA
SUPAMT42721,3NC5L260MULQJS1SN0HAJ7B2Y98FOW,0757A9C7-11F0-4765-BB63-41404B22B077,2023-09-29_20h55.27.601,WP_VExplicitOC_HL,2022.2.5,Win32,59.9880024,NA,NA,NA,NA,NA,NA,NA,NA,NA,NA,NA,60.92594288,1.8043,0,5,5,5,1,listen to music,006.png,NA,NA,NA,NA,NA,NA,NA,NA,NA,NA,NA,NA,NA,NA,NA,NA,NA,NA,NA,NA,NA,NA,NA,NA,NA,NA,NA,NA,NA,NA,NA,NA,NA,NA,NA,NA,NA,NA,NA
SUPAMT42721,3NC5L260MULQJS1SN0HAJ7B2Y98FOW,0757A9C7-11F0-4765-BB63-41404B22B077,2023-09-29_20h55.27.601,WP_VExplicitOC_HL,2022.2.5,Win32,59.9880024,NA,NA,NA,NA,NA,NA,NA,NA,NA,NA,NA,52.03703421,1.7345,0,6,6,6,1,daydream,007.png,NA,NA,NA,NA,NA,NA,NA,NA,NA,NA,NA,NA,NA,NA,NA,NA,NA,NA,NA,NA,NA,NA,NA,NA,NA,NA,NA,NA,NA,NA,NA,NA,NA,NA,NA,NA,NA,NA,NA
SUPAMT42721,3NC5L260MULQJS1SN0HAJ7B2Y98FOW,0757A9C7-11F0-4765-BB63-41404B22B077,2023-09-29_20h55.27.601,WP_VExplicitOC_HL,2022.2.5,Win32,59.9880024,NA,NA,NA,NA,NA,NA,NA,NA,NA,NA,NA,94.62964093,2.0906,0,7,7,7,1,watch a short animation,008.png,NA,NA,NA,NA,NA,NA,NA,NA,NA,NA,NA,NA,NA,NA,NA,NA,NA,NA,NA,NA,NA,NA,NA,NA,NA,NA,NA,NA,NA,NA,NA,NA,NA,NA,NA,NA,NA,NA,NA
SUPAMT42721,3NC5L260MULQJS1SN0HAJ7B2Y98FOW,0757A9C7-11F0-4765-BB63-41404B22B077,2023-09-29_20h55.27.601,WP_VExplicitOC_HL,2022.2.5,Win32,59.9880024,NA,NA,NA,NA,NA,NA,NA,NA,NA,NA,NA,-44.44444444,2.0534,0,8,8,8,1,read a novel,009.png,NA,NA,NA,NA,NA,NA,NA,NA,NA,NA,NA,NA,NA,NA,NA,NA,NA,NA,NA,NA,NA,NA,NA,NA,NA,NA,NA,NA,NA,NA,NA,NA,NA,NA,NA,NA,NA,NA,NA
SUPAMT42721,3NC5L260MULQJS1SN0HAJ7B2Y98FOW,0757A9C7-11F0-4765-BB63-41404B22B077,2023-09-29_20h55.27.601,WP_VExplicitOC_HL,2022.2.5,Win32,59.9880024,NA,NA,NA,NA,NA,NA,NA,NA,NA,NA,NA,-100,1.5548,0,9,9,9,1,read the news,010.png,NA,NA,NA,NA,NA,NA,NA,NA,NA,NA,NA,NA,NA,NA,NA,NA,NA,NA,NA,NA,NA,NA,NA,NA,NA,NA,NA,NA,NA,NA,NA,NA,NA,NA,NA,NA,NA,NA,NA
SUPAMT42721,3NC5L260MULQJS1SN0HAJ7B2Y98FOW,0757A9C7-11F0-4765-BB63-41404B22B077,2023-09-29_20h55.27.601,WP_VExplicitOC_HL,2022.2.5,Win32,59.9880024,NA,NA,NA,NA,NA,NA,NA,NA,NA,NA,NA,NA,NA,NA,NA,NA,NA,NA,NA,NA,NA,NA,NA,NA,NA,NA,NA,NA,NA,NA,NA,NA,NA,NA,NA,NA,NA,NA,NA,NA,NA,NA,NA,NA,NA,NA,NA,NA,NA,NA,NA,NA,NA,NA,NA,NA,NA,NA,NA
SUPAMT42721,3NC5L260MULQJS1SN0HAJ7B2Y98FOW,0757A9C7-11F0-4765-BB63-41404B22B077,2023-09-29_20h55.27.601,WP_VExplicitOC_HL,2022.2.5,Win32,59.9880024,NA,NA,NA,NA,NA,NA,NA,NA,NA,NA,NA,NA,NA,NA,NA,NA,NA,NA,NA,NA,watch a short animation,NA,NA,NA,NA,NA,NA,NA,NA,NA,NA,NA,NA,NA,NA,NA,NA,NA,NA,NA,NA,NA,NA,NA,NA,NA,NA,NA,NA,NA,NA,NA,NA,NA,NA,NA,NA,NA,NA
SUPAMT42721,3NC5L260MULQJS1SN0HAJ7B2Y98FOW,0757A9C7-11F0-4765-BB63-41404B22B077,2023-09-29_20h55.27.601,WP_VExplicitOC_HL,2022.2.5,Win32,59.9880024,56.66666384,5.8691,2.0035,NA,NA,NA,NA,NA,happy,"unhappy, happy","less happy, more happy",NA,NA,NA,NA,NA,NA,NA,NA,NA,NA,0,0,0,0,1,NA,NA,NA,NA,NA,NA,NA,NA,NA,NA,NA,NA,NA,NA,NA,NA,NA,NA,NA,NA,NA,NA,NA,NA,NA,NA,NA,NA,NA,NA,NA,NA,NA
SUPAMT42721,3NC5L260MULQJS1SN0HAJ7B2Y98FOW,0757A9C7-11F0-4765-BB63-41404B22B077,2023-09-29_20h55.27.601,WP_VExplicitOC_HL,2022.2.5,Win32,59.9880024,-67.96296438,3.2802,2.0081,NA,NA,NA,NA,NA,bored,"bored, not bored","more bored, less bored",NA,NA,NA,NA,NA,NA,NA,NA,NA,NA,0,1,1,2,1,NA,NA,NA,NA,NA,NA,NA,NA,NA,NA,NA,NA,NA,NA,NA,NA,NA,NA,NA,NA,NA,NA,NA,NA,NA,NA,NA,NA,NA,NA,NA,NA,NA
SUPAMT42721,3NC5L260MULQJS1SN0HAJ7B2Y98FOW,0757A9C7-11F0-4765-BB63-41404B22B077,2023-09-29_20h55.27.601,WP_VExplicitOC_HL,2022.2.5,Win32,59.9880024,35.00000283,3.0641,2.015,NA,NA,NA,NA,NA,frustrated,"frustrated, not frustrated","more frustrated, less frustrated",NA,NA,NA,NA,NA,NA,NA,NA,NA,NA,0,2,2,1,1,NA,NA,NA,NA,NA,NA,NA,NA,NA,NA,NA,NA,NA,NA,NA,NA,NA,NA,NA,NA,NA,NA,NA,NA,NA,NA,NA,NA,NA,NA,NA,NA,NA
SUPAMT42721,3NC5L260MULQJS1SN0HAJ7B2Y98FOW,0757A9C7-11F0-4765-BB63-41404B22B077,2023-09-29_20h55.27.601,WP_VExplicitOC_HL,2022.2.5,Win32,59.9880024,NA,NA,NA,NA,NA,NA,NA,NA,NA,NA,NA,NA,NA,NA,NA,NA,NA,NA,NA,NA,NA,NA,NA,NA,NA,NA,NA,NA,NA,NA,NA,NA,NA,NA,NA,NA,NA,NA,NA,NA,NA,NA,NA,NA,NA,NA,NA,NA,NA,NA,NA,NA,NA,NA,NA,NA,NA,NA,NA
SUPAMT42721,3NC5L260MULQJS1SN0HAJ7B2Y98FOW,0757A9C7-11F0-4765-BB63-41404B22B077,2023-09-29_20h55.27.601,WP_VExplicitOC_HL,2022.2.5,Win32,59.9880024,NA,NA,NA,NA,NA,NA,NA,NA,NA,NA,NA,NA,NA,NA,NA,NA,NA,NA,NA,NA,NA,NA,NA,NA,NA,NA,NA,NA,NA,NA,NA,NA,NA,NA,NA,NA,NA,NA,NA,NA,NA,NA,NA,NA,NA,NA,NA,NA,NA,NA,NA,NA,NA,NA,NA,NA,NA,NA,NA
SUPAMT42721,3NC5L260MULQJS1SN0HAJ7B2Y98FOW,0757A9C7-11F0-4765-BB63-41404B22B077,2023-09-29_20h55.27.601,WP_VExplicitOC_HL,2022.2.5,Win32,59.9880024,-100,3.9017,2.0108,NA,NA,NA,NA,NA,bored,"bored, not bored","more bored, less bored",NA,NA,NA,NA,NA,NA,NA,NA,NA,NA,NA,NA,NA,NA,NA,0,0,0,2,1,NA,NA,NA,NA,NA,NA,NA,NA,NA,NA,NA,NA,NA,NA,NA,NA,NA,NA,NA,NA,NA,NA,NA,NA,NA,NA,NA,NA
SUPAMT42721,3NC5L260MULQJS1SN0HAJ7B2Y98FOW,0757A9C7-11F0-4765-BB63-41404B22B077,2023-09-29_20h55.27.601,WP_VExplicitOC_HL,2022.2.5,Win32,59.9880024,-100,2.9036,2.016,NA,NA,NA,NA,NA,frustrated,"frustrated, not frustrated","more frustrated, less frustrated",NA,NA,NA,NA,NA,NA,NA,NA,NA,NA,NA,NA,NA,NA,NA,0,1,1,1,1,NA,NA,NA,NA,NA,NA,NA,NA,NA,NA,NA,NA,NA,NA,NA,NA,NA,NA,NA,NA,NA,NA,NA,NA,NA,NA,NA,NA
SUPAMT42721,3NC5L260MULQJS1SN0HAJ7B2Y98FOW,0757A9C7-11F0-4765-BB63-41404B22B077,2023-09-29_20h55.27.601,WP_VExplicitOC_HL,2022.2.5,Win32,59.9880024,-43.51851852,3.4418,2.0164,NA,NA,NA,NA,NA,happy,"unhappy, happy","less happy, more happy",NA,NA,NA,NA,NA,NA,NA,NA,NA,NA,NA,NA,NA,NA,NA,0,2,2,0,1,NA,NA,NA,NA,NA,NA,NA,NA,NA,NA,NA,NA,NA,NA,NA,NA,NA,NA,NA,NA,NA,NA,NA,NA,NA,NA,NA,NA
SUPAMT42721,3NC5L260MULQJS1SN0HAJ7B2Y98FOW,0757A9C7-11F0-4765-BB63-41404B22B077,2023-09-29_20h55.27.601,WP_VExplicitOC_HL,2022.2.5,Win32,59.9880024,NA,NA,NA,NA,NA,NA,NA,NA,NA,NA,NA,NA,NA,NA,NA,NA,NA,NA,NA,NA,NA,NA,NA,NA,NA,NA,NA,NA,NA,NA,NA,0,0,0,0,1,NA,NA,NA,NA,NA,NA,NA,NA,NA,NA,NA,NA,NA,NA,NA,NA,NA,NA,NA,NA,NA,NA,NA
SUPAMT42721,3NC5L260MULQJS1SN0HAJ7B2Y98FOW,0757A9C7-11F0-4765-BB63-41404B22B077,2023-09-29_20h55.27.601,WP_VExplicitOC_HL,2022.2.5,Win32,59.9880024,-100,4.8046,2.0186,NA,NA,NA,NA,NA,bored,"bored, not bored","more bored, less bored",NA,NA,NA,NA,NA,NA,NA,NA,NA,NA,NA,NA,NA,NA,NA,0,0,0,2,1,NA,NA,NA,NA,NA,NA,NA,NA,NA,NA,NA,NA,NA,NA,NA,NA,NA,NA,NA,NA,NA,NA,NA,NA,NA,NA,NA,NA
SUPAMT42721,3NC5L260MULQJS1SN0HAJ7B2Y98FOW,0757A9C7-11F0-4765-BB63-41404B22B077,2023-09-29_20h55.27.601,WP_VExplicitOC_HL,2022.2.5,Win32,59.9880024,-43.14813967,3.7978,2.0156,NA,NA,NA,NA,NA,happy,"unhappy, happy","less happy, more happy",NA,NA,NA,NA,NA,NA,NA,NA,NA,NA,NA,NA,NA,NA,NA,0,1,1,0,1,NA,NA,NA,NA,NA,NA,NA,NA,NA,NA,NA,NA,NA,NA,NA,NA,NA,NA,NA,NA,NA,NA,NA,NA,NA,NA,NA,NA
SUPAMT42721,3NC5L260MULQJS1SN0HAJ7B2Y98FOW,0757A9C7-11F0-4765-BB63-41404B22B077,2023-09-29_20h55.27.601,WP_VExplicitOC_HL,2022.2.5,Win32,59.9880024,-60.92592169,3.0711,2.0148,NA,NA,NA,NA,NA,frustrated,"frustrated, not frustrated","more frustrated, less frustrated",NA,NA,NA,NA,NA,NA,NA,NA,NA,NA,NA,NA,NA,NA,NA,0,2,2,1,1,NA,NA,NA,NA,NA,NA,NA,NA,NA,NA,NA,NA,NA,NA,NA,NA,NA,NA,NA,NA,NA,NA,NA,NA,NA,NA,NA,NA
SUPAMT42721,3NC5L260MULQJS1SN0HAJ7B2Y98FOW,0757A9C7-11F0-4765-BB63-41404B22B077,2023-09-29_20h55.27.601,WP_VExplicitOC_HL,2022.2.5,Win32,59.9880024,NA,NA,NA,NA,NA,NA,NA,NA,NA,NA,NA,NA,NA,NA,NA,NA,NA,NA,NA,NA,NA,NA,NA,NA,NA,NA,NA,NA,NA,NA,NA,1,0,1,0,1,NA,NA,NA,NA,NA,NA,NA,NA,NA,NA,NA,NA,NA,NA,NA,NA,NA,NA,NA,NA,NA,NA,NA
SUPAMT42721,3NC5L260MULQJS1SN0HAJ7B2Y98FOW,0757A9C7-11F0-4765-BB63-41404B22B077,2023-09-29_20h55.27.601,WP_VExplicitOC_HL,2022.2.5,Win32,59.9880024,-71.66666808,5.1328,2.016,NA,NA,NA,NA,NA,frustrated,"frustrated, not frustrated","more frustrated, less frustrated",NA,NA,NA,NA,NA,NA,NA,NA,NA,NA,NA,NA,NA,NA,NA,0,0,0,1,1,NA,NA,NA,NA,NA,NA,NA,NA,NA,NA,NA,NA,NA,NA,NA,NA,NA,NA,NA,NA,NA,NA,NA,NA,NA,NA,NA,NA
SUPAMT42721,3NC5L260MULQJS1SN0HAJ7B2Y98FOW,0757A9C7-11F0-4765-BB63-41404B22B077,2023-09-29_20h55.27.601,WP_VExplicitOC_HL,2022.2.5,Win32,59.9880024,-100,2.8813,2.0155,NA,NA,NA,NA,NA,bored,"bored, not bored","more bored, less bored",NA,NA,NA,NA,NA,NA,NA,NA,NA,NA,NA,NA,NA,NA,NA,0,1,1,2,1,NA,NA,NA,NA,NA,NA,NA,NA,NA,NA,NA,NA,NA,NA,NA,NA,NA,NA,NA,NA,NA,NA,NA,NA,NA,NA,NA,NA
SUPAMT42721,3NC5L260MULQJS1SN0HAJ7B2Y98FOW,0757A9C7-11F0-4765-BB63-41404B22B077,2023-09-29_20h55.27.601,WP_VExplicitOC_HL,2022.2.5,Win32,59.9880024,-53.51852134,3.4313,2.0086,NA,NA,NA,NA,NA,happy,"unhappy, happy","less happy, more happy",NA,NA,NA,NA,NA,NA,NA,NA,NA,NA,NA,NA,NA,NA,NA,0,2,2,0,1,NA,NA,NA,NA,NA,NA,NA,NA,NA,NA,NA,NA,NA,NA,NA,NA,NA,NA,NA,NA,NA,NA,NA,NA,NA,NA,NA,NA
SUPAMT42721,3NC5L260MULQJS1SN0HAJ7B2Y98FOW,0757A9C7-11F0-4765-BB63-41404B22B077,2023-09-29_20h55.27.601,WP_VExplicitOC_HL,2022.2.5,Win32,59.9880024,NA,NA,NA,NA,NA,NA,NA,NA,NA,NA,NA,NA,NA,NA,NA,NA,NA,NA,NA,NA,NA,NA,NA,NA,NA,NA,NA,NA,NA,NA,NA,2,0,2,0,1,NA,NA,NA,NA,NA,NA,NA,NA,NA,NA,NA,NA,NA,NA,NA,NA,NA,NA,NA,NA,NA,NA,NA
SUPAMT42721,3NC5L260MULQJS1SN0HAJ7B2Y98FOW,0757A9C7-11F0-4765-BB63-41404B22B077,2023-09-29_20h55.27.601,WP_VExplicitOC_HL,2022.2.5,Win32,59.9880024,-100,3.5338,2.01,NA,NA,NA,NA,NA,frustrated,"frustrated, not frustrated","more frustrated, less frustrated",NA,NA,NA,NA,NA,NA,NA,NA,NA,NA,NA,NA,NA,NA,NA,0,0,0,1,1,NA,NA,NA,NA,NA,NA,NA,NA,NA,NA,NA,NA,NA,NA,NA,NA,NA,NA,NA,NA,NA,NA,NA,NA,NA,NA,NA,NA
SUPAMT42721,3NC5L260MULQJS1SN0HAJ7B2Y98FOW,0757A9C7-11F0-4765-BB63-41404B22B077,2023-09-29_20h55.27.601,WP_VExplicitOC_HL,2022.2.5,Win32,59.9880024,-61.48148289,3.4277,2.0161,NA,NA,NA,NA,NA,happy,"unhappy, happy","less happy, more happy",NA,NA,NA,NA,NA,NA,NA,NA,NA,NA,NA,NA,NA,NA,NA,0,1,1,0,1,NA,NA,NA,NA,NA,NA,NA,NA,NA,NA,NA,NA,NA,NA,NA,NA,NA,NA,NA,NA,NA,NA,NA,NA,NA,NA,NA,NA
SUPAMT42721,3NC5L260MULQJS1SN0HAJ7B2Y98FOW,0757A9C7-11F0-4765-BB63-41404B22B077,2023-09-29_20h55.27.601,WP_VExplicitOC_HL,2022.2.5,Win32,59.9880024,-100,3.7714,2.0147,NA,NA,NA,NA,NA,bored,"bored, not bored","more bored, less bored",NA,NA,NA,NA,NA,NA,NA,NA,NA,NA,NA,NA,NA,NA,NA,0,2,2,2,1,NA,NA,NA,NA,NA,NA,NA,NA,NA,NA,NA,NA,NA,NA,NA,NA,NA,NA,NA,NA,NA,NA,NA,NA,NA,NA,NA,NA
SUPAMT42721,3NC5L260MULQJS1SN0HAJ7B2Y98FOW,0757A9C7-11F0-4765-BB63-41404B22B077,2023-09-29_20h55.27.601,WP_VExplicitOC_HL,2022.2.5,Win32,59.9880024,NA,NA,NA,NA,NA,NA,NA,NA,NA,NA,NA,NA,NA,NA,NA,NA,NA,NA,NA,NA,NA,NA,NA,NA,NA,NA,NA,NA,NA,NA,NA,3,0,3,0,1,NA,NA,NA,NA,NA,NA,NA,NA,NA,NA,NA,NA,NA,NA,NA,NA,NA,NA,NA,NA,NA,NA,NA
SUPAMT42721,3NC5L260MULQJS1SN0HAJ7B2Y98FOW,0757A9C7-11F0-4765-BB63-41404B22B077,2023-09-29_20h55.27.601,WP_VExplicitOC_HL,2022.2.5,Win32,59.9880024,-100,4.1715,2.0155,NA,NA,NA,NA,NA,happy,"unhappy, happy","less happy, more happy",NA,NA,NA,NA,NA,NA,NA,NA,NA,NA,NA,NA,NA,NA,NA,0,0,0,0,1,NA,NA,NA,NA,NA,NA,NA,NA,NA,NA,NA,NA,NA,NA,NA,NA,NA,NA,NA,NA,NA,NA,NA,NA,NA,NA,NA,NA
SUPAMT42721,3NC5L260MULQJS1SN0HAJ7B2Y98FOW,0757A9C7-11F0-4765-BB63-41404B22B077,2023-09-29_20h55.27.601,WP_VExplicitOC_HL,2022.2.5,Win32,59.9880024,-100,3.1187,2.0138,NA,NA,NA,NA,NA,frustrated,"frustrated, not frustrated","more frustrated, less frustrated",NA,NA,NA,NA,NA,NA,NA,NA,NA,NA,NA,NA,NA,NA,NA,0,1,1,1,1,NA,NA,NA,NA,NA,NA,NA,NA,NA,NA,NA,NA,NA,NA,NA,NA,NA,NA,NA,NA,NA,NA,NA,NA,NA,NA,NA,NA
SUPAMT42721,3NC5L260MULQJS1SN0HAJ7B2Y98FOW,0757A9C7-11F0-4765-BB63-41404B22B077,2023-09-29_20h55.27.601,WP_VExplicitOC_HL,2022.2.5,Win32,59.9880024,-100,2.9476,2.0155,NA,NA,NA,NA,NA,bored,"bored, not bored","more bored, less bored",NA,NA,NA,NA,NA,NA,NA,NA,NA,NA,NA,NA,NA,NA,NA,0,2,2,2,1,NA,NA,NA,NA,NA,NA,NA,NA,NA,NA,NA,NA,NA,NA,NA,NA,NA,NA,NA,NA,NA,NA,NA,NA,NA,NA,NA,NA
SUPAMT42721,3NC5L260MULQJS1SN0HAJ7B2Y98FOW,0757A9C7-11F0-4765-BB63-41404B22B077,2023-09-29_20h55.27.601,WP_VExplicitOC_HL,2022.2.5,Win32,59.9880024,NA,NA,NA,NA,NA,NA,NA,NA,NA,NA,NA,NA,NA,NA,NA,NA,NA,NA,NA,NA,NA,NA,NA,NA,NA,NA,NA,NA,NA,NA,NA,4,0,4,0,1,NA,NA,NA,NA,NA,NA,NA,NA,NA,NA,NA,NA,NA,NA,NA,NA,NA,NA,NA,NA,NA,NA,NA
SUPAMT42721,3NC5L260MULQJS1SN0HAJ7B2Y98FOW,0757A9C7-11F0-4765-BB63-41404B22B077,2023-09-29_20h55.27.601,WP_VExplicitOC_HL,2022.2.5,Win32,59.9880024,-100,4.5848,2.0108,NA,NA,NA,NA,NA,bored,"bored, not bored","more bored, less bored",NA,NA,NA,NA,NA,NA,NA,NA,NA,NA,NA,NA,NA,NA,NA,0,0,0,2,1,NA,NA,NA,NA,NA,NA,NA,NA,NA,NA,NA,NA,NA,NA,NA,NA,NA,NA,NA,NA,NA,NA,NA,NA,NA,NA,NA,NA
SUPAMT42721,3NC5L260MULQJS1SN0HAJ7B2Y98FOW,0757A9C7-11F0-4765-BB63-41404B22B077,2023-09-29_20h55.27.601,WP_VExplicitOC_HL,2022.2.5,Win32,59.9880024,-74.07407407,3.4025,2.0033,NA,NA,NA,NA,NA,happy,"unhappy, happy","less happy, more happy",NA,NA,NA,NA,NA,NA,NA,NA,NA,NA,NA,NA,NA,NA,NA,0,1,1,0,1,NA,NA,NA,NA,NA,NA,NA,NA,NA,NA,NA,NA,NA,NA,NA,NA,NA,NA,NA,NA,NA,NA,NA,NA,NA,NA,NA,NA
SUPAMT42721,3NC5L260MULQJS1SN0HAJ7B2Y98FOW,0757A9C7-11F0-4765-BB63-41404B22B077,2023-09-29_20h55.27.601,WP_VExplicitOC_HL,2022.2.5,Win32,59.9880024,-100,2.8973,2.0156,NA,NA,NA,NA,NA,frustrated,"frustrated, not frustrated","more frustrated, less frustrated",NA,NA,NA,NA,NA,NA,NA,NA,NA,NA,NA,NA,NA,NA,NA,0,2,2,1,1,NA,NA,NA,NA,NA,NA,NA,NA,NA,NA,NA,NA,NA,NA,NA,NA,NA,NA,NA,NA,NA,NA,NA,NA,NA,NA,NA,NA
SUPAMT42721,3NC5L260MULQJS1SN0HAJ7B2Y98FOW,0757A9C7-11F0-4765-BB63-41404B22B077,2023-09-29_20h55.27.601,WP_VExplicitOC_HL,2022.2.5,Win32,59.9880024,NA,NA,NA,NA,NA,NA,NA,NA,NA,NA,NA,NA,NA,NA,NA,NA,NA,NA,NA,NA,NA,NA,NA,NA,NA,NA,NA,NA,NA,NA,NA,5,0,5,0,1,NA,NA,NA,NA,NA,NA,NA,NA,NA,NA,NA,NA,NA,NA,NA,NA,NA,NA,NA,NA,NA,NA,NA
SUPAMT42721,3NC5L260MULQJS1SN0HAJ7B2Y98FOW,0757A9C7-11F0-4765-BB63-41404B22B077,2023-09-29_20h55.27.601,WP_VExplicitOC_HL,2022.2.5,Win32,59.9880024,-100,3.7823,2.008,NA,NA,NA,NA,NA,bored,"bored, not bored","more bored, less bored",NA,NA,NA,NA,NA,NA,NA,NA,NA,NA,NA,NA,NA,NA,NA,0,0,0,2,1,NA,NA,NA,NA,NA,NA,NA,NA,NA,NA,NA,NA,NA,NA,NA,NA,NA,NA,NA,NA,NA,NA,NA,NA,NA,NA,NA,NA
SUPAMT42721,3NC5L260MULQJS1SN0HAJ7B2Y98FOW,0757A9C7-11F0-4765-BB63-41404B22B077,2023-09-29_20h55.27.601,WP_VExplicitOC_HL,2022.2.5,Win32,59.9880024,-79.81481199,3.1256,2.0161,NA,NA,NA,NA,NA,frustrated,"frustrated, not frustrated","more frustrated, less frustrated",NA,NA,NA,NA,NA,NA,NA,NA,NA,NA,NA,NA,NA,NA,NA,0,1,1,1,1,NA,NA,NA,NA,NA,NA,NA,NA,NA,NA,NA,NA,NA,NA,NA,NA,NA,NA,NA,NA,NA,NA,NA,NA,NA,NA,NA,NA
SUPAMT42721,3NC5L260MULQJS1SN0HAJ7B2Y98FOW,0757A9C7-11F0-4765-BB63-41404B22B077,2023-09-29_20h55.27.601,WP_VExplicitOC_HL,2022.2.5,Win32,59.9880024,-35.00000283,3.5872,2.0167,NA,NA,NA,NA,NA,happy,"unhappy, happy","less happy, more happy",NA,NA,NA,NA,NA,NA,NA,NA,NA,NA,NA,NA,NA,NA,NA,0,2,2,0,1,NA,NA,NA,NA,NA,NA,NA,NA,NA,NA,NA,NA,NA,NA,NA,NA,NA,NA,NA,NA,NA,NA,NA,NA,NA,NA,NA,NA
SUPAMT42721,3NC5L260MULQJS1SN0HAJ7B2Y98FOW,0757A9C7-11F0-4765-BB63-41404B22B077,2023-09-29_20h55.27.601,WP_VExplicitOC_HL,2022.2.5,Win32,59.9880024,NA,NA,NA,NA,NA,NA,NA,NA,NA,NA,NA,NA,NA,NA,NA,NA,NA,NA,NA,NA,NA,NA,NA,NA,NA,NA,NA,NA,NA,NA,NA,6,0,6,0,1,NA,NA,NA,NA,NA,NA,NA,NA,NA,NA,NA,NA,NA,NA,NA,NA,NA,NA,NA,NA,NA,NA,NA
SUPAMT42721,3NC5L260MULQJS1SN0HAJ7B2Y98FOW,0757A9C7-11F0-4765-BB63-41404B22B077,2023-09-29_20h55.27.601,WP_VExplicitOC_HL,2022.2.5,Win32,59.9880024,-54.25925078,3.4038,2.0043,NA,NA,NA,NA,NA,happy,"unhappy, happy","less happy, more happy",NA,NA,NA,NA,NA,NA,NA,NA,NA,NA,NA,NA,NA,NA,NA,0,0,0,0,1,NA,NA,NA,NA,NA,NA,NA,NA,NA,NA,NA,NA,NA,NA,NA,NA,NA,NA,NA,NA,NA,NA,NA,NA,NA,NA,NA,NA
SUPAMT42721,3NC5L260MULQJS1SN0HAJ7B2Y98FOW,0757A9C7-11F0-4765-BB63-41404B22B077,2023-09-29_20h55.27.601,WP_VExplicitOC_HL,2022.2.5,Win32,59.9880024,-44.6296268,4.6974,2.0121000000000002,NA,NA,NA,NA,NA,frustrated,"frustrated, not frustrated","more frustrated, less frustrated",NA,NA,NA,NA,NA,NA,NA,NA,NA,NA,NA,NA,NA,NA,NA,0,1,1,1,1,NA,NA,NA,NA,NA,NA,NA,NA,NA,NA,NA,NA,NA,NA,NA,NA,NA,NA,NA,NA,NA,NA,NA,NA,NA,NA,NA,NA
SUPAMT42721,3NC5L260MULQJS1SN0HAJ7B2Y98FOW,0757A9C7-11F0-4765-BB63-41404B22B077,2023-09-29_20h55.27.601,WP_VExplicitOC_HL,2022.2.5,Win32,59.9880024,-100,3.3481,2.0098,NA,NA,NA,NA,NA,bored,"bored, not bored","more bored, less bored",NA,NA,NA,NA,NA,NA,NA,NA,NA,NA,NA,NA,NA,NA,NA,0,2,2,2,1,NA,NA,NA,NA,NA,NA,NA,NA,NA,NA,NA,NA,NA,NA,NA,NA,NA,NA,NA,NA,NA,NA,NA,NA,NA,NA,NA,NA
SUPAMT42721,3NC5L260MULQJS1SN0HAJ7B2Y98FOW,0757A9C7-11F0-4765-BB63-41404B22B077,2023-09-29_20h55.27.601,WP_VExplicitOC_HL,2022.2.5,Win32,59.9880024,NA,NA,NA,NA,NA,NA,NA,NA,NA,NA,NA,NA,NA,NA,NA,NA,NA,NA,NA,NA,NA,NA,NA,NA,NA,NA,NA,NA,NA,NA,NA,7,0,7,0,1,NA,NA,NA,NA,NA,NA,NA,NA,NA,NA,NA,NA,NA,NA,NA,NA,NA,NA,NA,NA,NA,NA,NA
SUPAMT42721,3NC5L260MULQJS1SN0HAJ7B2Y98FOW,0757A9C7-11F0-4765-BB63-41404B22B077,2023-09-29_20h55.27.601,WP_VExplicitOC_HL,2022.2.5,Win32,59.9880024,-100,3.7984,2.0086,NA,NA,NA,NA,NA,bored,"bored, not bored","more bored, less bored",NA,NA,NA,NA,NA,NA,NA,NA,NA,NA,NA,NA,NA,NA,NA,0,0,0,2,1,NA,NA,NA,NA,NA,NA,NA,NA,NA,NA,NA,NA,NA,NA,NA,NA,NA,NA,NA,NA,NA,NA,NA,NA,NA,NA,NA,NA
SUPAMT42721,3NC5L260MULQJS1SN0HAJ7B2Y98FOW,0757A9C7-11F0-4765-BB63-41404B22B077,2023-09-29_20h55.27.601,WP_VExplicitOC_HL,2022.2.5,Win32,59.9880024,-45.55555273,3.514,2.0094,NA,NA,NA,NA,NA,frustrated,"frustrated, not frustrated","more frustrated, less frustrated",NA,NA,NA,NA,NA,NA,NA,NA,NA,NA,NA,NA,NA,NA,NA,0,1,1,1,1,NA,NA,NA,NA,NA,NA,NA,NA,NA,NA,NA,NA,NA,NA,NA,NA,NA,NA,NA,NA,NA,NA,NA,NA,NA,NA,NA,NA
SUPAMT42721,3NC5L260MULQJS1SN0HAJ7B2Y98FOW,0757A9C7-11F0-4765-BB63-41404B22B077,2023-09-29_20h55.27.601,WP_VExplicitOC_HL,2022.2.5,Win32,59.9880024,-47.22222222,2.7643,2.0159,NA,NA,NA,NA,NA,happy,"unhappy, happy","less happy, more happy",NA,NA,NA,NA,NA,NA,NA,NA,NA,NA,NA,NA,NA,NA,NA,0,2,2,0,1,NA,NA,NA,NA,NA,NA,NA,NA,NA,NA,NA,NA,NA,NA,NA,NA,NA,NA,NA,NA,NA,NA,NA,NA,NA,NA,NA,NA
SUPAMT42721,3NC5L260MULQJS1SN0HAJ7B2Y98FOW,0757A9C7-11F0-4765-BB63-41404B22B077,2023-09-29_20h55.27.601,WP_VExplicitOC_HL,2022.2.5,Win32,59.9880024,NA,NA,NA,NA,NA,NA,NA,NA,NA,NA,NA,NA,NA,NA,NA,NA,NA,NA,NA,NA,NA,NA,NA,NA,NA,NA,NA,NA,NA,NA,NA,8,0,8,0,1,NA,NA,NA,NA,NA,NA,NA,NA,NA,NA,NA,NA,NA,NA,NA,NA,NA,NA,NA,NA,NA,NA,NA
SUPAMT42721,3NC5L260MULQJS1SN0HAJ7B2Y98FOW,0757A9C7-11F0-4765-BB63-41404B22B077,2023-09-29_20h55.27.601,WP_VExplicitOC_HL,2022.2.5,Win32,59.9880024,-57.77777213,3.685,2.0068,NA,NA,NA,NA,NA,happy,"unhappy, happy","less happy, more happy",NA,NA,NA,NA,NA,NA,NA,NA,NA,NA,NA,NA,NA,NA,NA,0,0,0,0,1,NA,NA,NA,NA,NA,NA,NA,NA,NA,NA,NA,NA,NA,NA,NA,NA,NA,NA,NA,NA,NA,NA,NA,NA,NA,NA,NA,NA
SUPAMT42721,3NC5L260MULQJS1SN0HAJ7B2Y98FOW,0757A9C7-11F0-4765-BB63-41404B22B077,2023-09-29_20h55.27.601,WP_VExplicitOC_HL,2022.2.5,Win32,59.9880024,-57.77777213,2.6857,2.0164,NA,NA,NA,NA,NA,frustrated,"frustrated, not frustrated","more frustrated, less frustrated",NA,NA,NA,NA,NA,NA,NA,NA,NA,NA,NA,NA,NA,NA,NA,0,1,1,1,1,NA,NA,NA,NA,NA,NA,NA,NA,NA,NA,NA,NA,NA,NA,NA,NA,NA,NA,NA,NA,NA,NA,NA,NA,NA,NA,NA,NA
SUPAMT42721,3NC5L260MULQJS1SN0HAJ7B2Y98FOW,0757A9C7-11F0-4765-BB63-41404B22B077,2023-09-29_20h55.27.601,WP_VExplicitOC_HL,2022.2.5,Win32,59.9880024,-100,3.0877,2,NA,NA,NA,NA,NA,bored,"bored, not bored","more bored, less bored",NA,NA,NA,NA,NA,NA,NA,NA,NA,NA,NA,NA,NA,NA,NA,0,2,2,2,1,NA,NA,NA,NA,NA,NA,NA,NA,NA,NA,NA,NA,NA,NA,NA,NA,NA,NA,NA,NA,NA,NA,NA,NA,NA,NA,NA,NA
SUPAMT42721,3NC5L260MULQJS1SN0HAJ7B2Y98FOW,0757A9C7-11F0-4765-BB63-41404B22B077,2023-09-29_20h55.27.601,WP_VExplicitOC_HL,2022.2.5,Win32,59.9880024,NA,NA,NA,NA,NA,NA,NA,NA,NA,NA,NA,NA,NA,NA,NA,NA,NA,NA,NA,NA,NA,NA,NA,NA,NA,NA,NA,NA,NA,NA,NA,9,0,9,0,1,NA,NA,NA,NA,NA,NA,NA,NA,NA,NA,NA,NA,NA,NA,NA,NA,NA,NA,NA,NA,NA,NA,NA
SUPAMT42721,3NC5L260MULQJS1SN0HAJ7B2Y98FOW,0757A9C7-11F0-4765-BB63-41404B22B077,2023-09-29_20h55.27.601,WP_VExplicitOC_HL,2022.2.5,Win32,59.9880024,-100,4.3562,2.0135,NA,NA,NA,NA,NA,bored,"bored, not bored","more bored, less bored",NA,NA,NA,NA,NA,NA,NA,NA,NA,NA,NA,NA,NA,NA,NA,0,0,0,2,1,NA,NA,NA,NA,NA,NA,NA,NA,NA,NA,NA,NA,NA,NA,NA,NA,NA,NA,NA,NA,NA,NA,NA,NA,NA,NA,NA,NA
SUPAMT42721,3NC5L260MULQJS1SN0HAJ7B2Y98FOW,0757A9C7-11F0-4765-BB63-41404B22B077,2023-09-29_20h55.27.601,WP_VExplicitOC_HL,2022.2.5,Win32,59.9880024,-43.70370088,3.6043,2.0163,NA,NA,NA,NA,NA,happy,"unhappy, happy","less happy, more happy",NA,NA,NA,NA,NA,NA,NA,NA,NA,NA,NA,NA,NA,NA,NA,0,1,1,0,1,NA,NA,NA,NA,NA,NA,NA,NA,NA,NA,NA,NA,NA,NA,NA,NA,NA,NA,NA,NA,NA,NA,NA,NA,NA,NA,NA,NA
SUPAMT42721,3NC5L260MULQJS1SN0HAJ7B2Y98FOW,0757A9C7-11F0-4765-BB63-41404B22B077,2023-09-29_20h55.27.601,WP_VExplicitOC_HL,2022.2.5,Win32,59.9880024,-86.48148289,3.2024,2.0163,NA,NA,NA,NA,NA,frustrated,"frustrated, not frustrated","more frustrated, less frustrated",NA,NA,NA,NA,NA,NA,NA,NA,NA,NA,NA,NA,NA,NA,NA,0,2,2,1,1,NA,NA,NA,NA,NA,NA,NA,NA,NA,NA,NA,NA,NA,NA,NA,NA,NA,NA,NA,NA,NA,NA,NA,NA,NA,NA,NA,NA
SUPAMT42721,3NC5L260MULQJS1SN0HAJ7B2Y98FOW,0757A9C7-11F0-4765-BB63-41404B22B077,2023-09-29_20h55.27.601,WP_VExplicitOC_HL,2022.2.5,Win32,59.9880024,NA,NA,NA,NA,NA,NA,NA,NA,NA,NA,NA,NA,NA,NA,NA,NA,NA,NA,NA,NA,NA,NA,NA,NA,NA,NA,NA,NA,NA,NA,NA,10,0,10,0,1,NA,NA,NA,NA,NA,NA,NA,NA,NA,NA,NA,NA,NA,NA,NA,NA,NA,NA,NA,NA,NA,NA,NA
SUPAMT42721,3NC5L260MULQJS1SN0HAJ7B2Y98FOW,0757A9C7-11F0-4765-BB63-41404B22B077,2023-09-29_20h55.27.601,WP_VExplicitOC_HL,2022.2.5,Win32,59.9880024,-54.44444727,3.1192,2.0106,NA,NA,NA,NA,NA,happy,"unhappy, happy","less happy, more happy",NA,NA,NA,NA,NA,NA,NA,NA,NA,NA,NA,NA,NA,NA,NA,0,0,0,0,1,NA,NA,NA,NA,NA,NA,NA,NA,NA,NA,NA,NA,NA,NA,NA,NA,NA,NA,NA,NA,NA,NA,NA,NA,NA,NA,NA,NA
SUPAMT42721,3NC5L260MULQJS1SN0HAJ7B2Y98FOW,0757A9C7-11F0-4765-BB63-41404B22B077,2023-09-29_20h55.27.601,WP_VExplicitOC_HL,2022.2.5,Win32,59.9880024,-100,3.279,2,NA,NA,NA,NA,NA,bored,"bored, not bored","more bored, less bored",NA,NA,NA,NA,NA,NA,NA,NA,NA,NA,NA,NA,NA,NA,NA,0,1,1,2,1,NA,NA,NA,NA,NA,NA,NA,NA,NA,NA,NA,NA,NA,NA,NA,NA,NA,NA,NA,NA,NA,NA,NA,NA,NA,NA,NA,NA
SUPAMT42721,3NC5L260MULQJS1SN0HAJ7B2Y98FOW,0757A9C7-11F0-4765-BB63-41404B22B077,2023-09-29_20h55.27.601,WP_VExplicitOC_HL,2022.2.5,Win32,59.9880024,-60.18518519,3.0359,2.0117,NA,NA,NA,NA,NA,frustrated,"frustrated, not frustrated","more frustrated, less frustrated",NA,NA,NA,NA,NA,NA,NA,NA,NA,NA,NA,NA,NA,NA,NA,0,2,2,1,1,NA,NA,NA,NA,NA,NA,NA,NA,NA,NA,NA,NA,NA,NA,NA,NA,NA,NA,NA,NA,NA,NA,NA,NA,NA,NA,NA,NA
SUPAMT42721,3NC5L260MULQJS1SN0HAJ7B2Y98FOW,0757A9C7-11F0-4765-BB63-41404B22B077,2023-09-29_20h55.27.601,WP_VExplicitOC_HL,2022.2.5,Win32,59.9880024,NA,NA,NA,NA,NA,NA,NA,NA,NA,NA,NA,NA,NA,NA,NA,NA,NA,NA,NA,NA,NA,NA,NA,NA,NA,NA,NA,NA,NA,NA,NA,11,0,11,0,1,NA,NA,NA,NA,NA,NA,NA,NA,NA,NA,NA,NA,NA,NA,NA,NA,NA,NA,NA,NA,NA,NA,NA
SUPAMT42721,3NC5L260MULQJS1SN0HAJ7B2Y98FOW,0757A9C7-11F0-4765-BB63-41404B22B077,2023-09-29_20h55.27.601,WP_VExplicitOC_HL,2022.2.5,Win32,59.9880024,-68.51851852,3.6351,2.0166,NA,NA,NA,NA,NA,frustrated,"frustrated, not frustrated","more frustrated, less frustrated",NA,NA,NA,NA,NA,NA,NA,NA,NA,NA,NA,NA,NA,NA,NA,0,0,0,1,1,NA,NA,NA,NA,NA,NA,NA,NA,NA,NA,NA,NA,NA,NA,NA,NA,NA,NA,NA,NA,NA,NA,NA,NA,NA,NA,NA,NA
SUPAMT42721,3NC5L260MULQJS1SN0HAJ7B2Y98FOW,0757A9C7-11F0-4765-BB63-41404B22B077,2023-09-29_20h55.27.601,WP_VExplicitOC_HL,2022.2.5,Win32,59.9880024,-100,2.7848,2.0033,NA,NA,NA,NA,NA,bored,"bored, not bored","more bored, less bored",NA,NA,NA,NA,NA,NA,NA,NA,NA,NA,NA,NA,NA,NA,NA,0,1,1,2,1,NA,NA,NA,NA,NA,NA,NA,NA,NA,NA,NA,NA,NA,NA,NA,NA,NA,NA,NA,NA,NA,NA,NA,NA,NA,NA,NA,NA
SUPAMT42721,3NC5L260MULQJS1SN0HAJ7B2Y98FOW,0757A9C7-11F0-4765-BB63-41404B22B077,2023-09-29_20h55.27.601,WP_VExplicitOC_HL,2022.2.5,Win32,59.9880024,-28.33332486,3.8144,2.0157,NA,NA,NA,NA,NA,happy,"unhappy, happy","less happy, more happy",NA,NA,NA,NA,NA,NA,NA,NA,NA,NA,NA,NA,NA,NA,NA,0,2,2,0,1,NA,NA,NA,NA,NA,NA,NA,NA,NA,NA,NA,NA,NA,NA,NA,NA,NA,NA,NA,NA,NA,NA,NA,NA,NA,NA,NA,NA
SUPAMT42721,3NC5L260MULQJS1SN0HAJ7B2Y98FOW,0757A9C7-11F0-4765-BB63-41404B22B077,2023-09-29_20h55.27.601,WP_VExplicitOC_HL,2022.2.5,Win32,59.9880024,NA,NA,NA,NA,NA,NA,NA,NA,NA,NA,NA,NA,NA,NA,NA,NA,NA,NA,NA,NA,NA,NA,NA,NA,NA,NA,NA,NA,NA,NA,NA,12,0,12,0,1,NA,NA,NA,NA,NA,NA,NA,NA,NA,NA,NA,NA,NA,NA,NA,NA,NA,NA,NA,NA,NA,NA,NA
SUPAMT42721,3NC5L260MULQJS1SN0HAJ7B2Y98FOW,0757A9C7-11F0-4765-BB63-41404B22B077,2023-09-29_20h55.27.601,WP_VExplicitOC_HL,2022.2.5,Win32,59.9880024,-100,3.6843,2.0129,NA,NA,NA,NA,NA,bored,"bored, not bored","more bored, less bored",NA,NA,NA,NA,NA,NA,NA,NA,NA,NA,NA,NA,NA,NA,NA,0,0,0,2,1,NA,NA,NA,NA,NA,NA,NA,NA,NA,NA,NA,NA,NA,NA,NA,NA,NA,NA,NA,NA,NA,NA,NA,NA,NA,NA,NA,NA
SUPAMT42721,3NC5L260MULQJS1SN0HAJ7B2Y98FOW,0757A9C7-11F0-4765-BB63-41404B22B077,2023-09-29_20h55.27.601,WP_VExplicitOC_HL,2022.2.5,Win32,59.9880024,-33.14815097,4.6804,2.015,NA,NA,NA,NA,NA,happy,"unhappy, happy","less happy, more happy",NA,NA,NA,NA,NA,NA,NA,NA,NA,NA,NA,NA,NA,NA,NA,0,1,1,0,1,NA,NA,NA,NA,NA,NA,NA,NA,NA,NA,NA,NA,NA,NA,NA,NA,NA,NA,NA,NA,NA,NA,NA,NA,NA,NA,NA,NA
SUPAMT42721,3NC5L260MULQJS1SN0HAJ7B2Y98FOW,0757A9C7-11F0-4765-BB63-41404B22B077,2023-09-29_20h55.27.601,WP_VExplicitOC_HL,2022.2.5,Win32,59.9880024,-57.96295449,4.2475,2.0149,NA,NA,NA,NA,NA,frustrated,"frustrated, not frustrated","more frustrated, less frustrated",NA,NA,NA,NA,NA,NA,NA,NA,NA,NA,NA,NA,NA,NA,NA,0,2,2,1,1,NA,NA,NA,NA,NA,NA,NA,NA,NA,NA,NA,NA,NA,NA,NA,NA,NA,NA,NA,NA,NA,NA,NA,NA,NA,NA,NA,NA
SUPAMT42721,3NC5L260MULQJS1SN0HAJ7B2Y98FOW,0757A9C7-11F0-4765-BB63-41404B22B077,2023-09-29_20h55.27.601,WP_VExplicitOC_HL,2022.2.5,Win32,59.9880024,NA,NA,NA,NA,NA,NA,NA,NA,NA,NA,NA,NA,NA,NA,NA,NA,NA,NA,NA,NA,NA,NA,NA,NA,NA,NA,NA,NA,NA,NA,NA,13,0,13,0,1,NA,NA,NA,NA,NA,NA,NA,NA,NA,NA,NA,NA,NA,NA,NA,NA,NA,NA,NA,NA,NA,NA,NA
SUPAMT42721,3NC5L260MULQJS1SN0HAJ7B2Y98FOW,0757A9C7-11F0-4765-BB63-41404B22B077,2023-09-29_20h55.27.601,WP_VExplicitOC_HL,2022.2.5,Win32,59.9880024,-39.44443597,5.8783,2.0063,NA,NA,NA,NA,NA,happy,"unhappy, happy","less happy, more happy",NA,NA,NA,NA,NA,NA,NA,NA,NA,NA,NA,NA,NA,NA,NA,0,0,0,0,1,NA,NA,NA,NA,NA,NA,NA,NA,NA,NA,NA,NA,NA,NA,NA,NA,NA,NA,NA,NA,NA,NA,NA,NA,NA,NA,NA,NA
SUPAMT42721,3NC5L260MULQJS1SN0HAJ7B2Y98FOW,0757A9C7-11F0-4765-BB63-41404B22B077,2023-09-29_20h55.27.601,WP_VExplicitOC_HL,2022.2.5,Win32,59.9880024,-67.59259259,4.5709,2.0165,NA,NA,NA,NA,NA,frustrated,"frustrated, not frustrated","more frustrated, less frustrated",NA,NA,NA,NA,NA,NA,NA,NA,NA,NA,NA,NA,NA,NA,NA,0,1,1,1,1,NA,NA,NA,NA,NA,NA,NA,NA,NA,NA,NA,NA,NA,NA,NA,NA,NA,NA,NA,NA,NA,NA,NA,NA,NA,NA,NA,NA
SUPAMT42721,3NC5L260MULQJS1SN0HAJ7B2Y98FOW,0757A9C7-11F0-4765-BB63-41404B22B077,2023-09-29_20h55.27.601,WP_VExplicitOC_HL,2022.2.5,Win32,59.9880024,-100,2.9565,2.0161,NA,NA,NA,NA,NA,bored,"bored, not bored","more bored, less bored",NA,NA,NA,NA,NA,NA,NA,NA,NA,NA,NA,NA,NA,NA,NA,0,2,2,2,1,NA,NA,NA,NA,NA,NA,NA,NA,NA,NA,NA,NA,NA,NA,NA,NA,NA,NA,NA,NA,NA,NA,NA,NA,NA,NA,NA,NA
SUPAMT42721,3NC5L260MULQJS1SN0HAJ7B2Y98FOW,0757A9C7-11F0-4765-BB63-41404B22B077,2023-09-29_20h55.27.601,WP_VExplicitOC_HL,2022.2.5,Win32,59.9880024,NA,NA,NA,NA,NA,NA,NA,NA,NA,NA,NA,NA,NA,NA,NA,NA,NA,NA,NA,NA,NA,NA,NA,NA,NA,NA,NA,NA,NA,NA,NA,14,0,14,0,1,NA,NA,NA,NA,NA,NA,NA,NA,NA,NA,NA,NA,NA,NA,NA,NA,NA,NA,NA,NA,NA,NA,NA
SUPAMT42721,3NC5L260MULQJS1SN0HAJ7B2Y98FOW,0757A9C7-11F0-4765-BB63-41404B22B077,2023-09-29_20h55.27.601,WP_VExplicitOC_HL,2022.2.5,Win32,59.9880024,NA,NA,NA,NA,NA,NA,NA,NA,NA,NA,NA,NA,NA,NA,NA,NA,NA,NA,NA,NA,NA,NA,NA,NA,NA,NA,NA,NA,NA,NA,NA,NA,NA,NA,NA,NA,NA,NA,NA,NA,NA,NA,NA,NA,NA,NA,NA,NA,NA,NA,NA,NA,NA,NA,NA,NA,NA,NA,NA
SUPAMT42721,3NC5L260MULQJS1SN0HAJ7B2Y98FOW,0757A9C7-11F0-4765-BB63-41404B22B077,2023-09-29_20h55.27.601,WP_VExplicitOC_HL,2022.2.5,Win32,59.9880024,NA,NA,NA,NA,NA,NA,NA,NA,NA,NA,NA,NA,NA,NA,NA,NA,NA,NA,NA,NA,NA,NA,NA,NA,NA,NA,NA,NA,NA,NA,NA,NA,NA,NA,NA,NA,NA,NA,NA,NA,NA,NA,NA,NA,NA,NA,NA,NA,NA,NA,NA,NA,NA,NA,NA,NA,NA,NA,NA
SUPAMT42721,3NC5L260MULQJS1SN0HAJ7B2Y98FOW,0757A9C7-11F0-4765-BB63-41404B22B077,2023-09-29_20h55.27.601,WP_VExplicitOC_HL,2022.2.5,Win32,59.9880024,NA,NA,NA,NA,NA,NA,NA,NA,NA,NA,NA,NA,NA,NA,NA,NA,NA,NA,rest (looking at a fixed cross),001.png,NA,NA,NA,NA,NA,NA,NA,NA,NA,NA,NA,NA,NA,NA,NA,NA,-100,5.5889,0,0,0,0,1,NA,NA,NA,NA,NA,NA,NA,NA,NA,NA,NA,NA,NA,NA,NA,NA
SUPAMT42721,3NC5L260MULQJS1SN0HAJ7B2Y98FOW,0757A9C7-11F0-4765-BB63-41404B22B077,2023-09-29_20h55.27.601,WP_VExplicitOC_HL,2022.2.5,Win32,59.9880024,NA,NA,NA,NA,NA,NA,NA,NA,NA,NA,NA,NA,NA,NA,NA,NA,NA,NA,stand up,002.png,NA,NA,NA,NA,NA,NA,NA,NA,NA,NA,NA,NA,NA,NA,NA,NA,41.11111959,2.1701,0,1,1,1,1,NA,NA,NA,NA,NA,NA,NA,NA,NA,NA,NA,NA,NA,NA,NA,NA
SUPAMT42721,3NC5L260MULQJS1SN0HAJ7B2Y98FOW,0757A9C7-11F0-4765-BB63-41404B22B077,2023-09-29_20h55.27.601,WP_VExplicitOC_HL,2022.2.5,Win32,59.9880024,NA,NA,NA,NA,NA,NA,NA,NA,NA,NA,NA,NA,NA,NA,NA,NA,NA,NA,stretch,003.png,NA,NA,NA,NA,NA,NA,NA,NA,NA,NA,NA,NA,NA,NA,NA,NA,100,1.9374,0,2,2,2,1,NA,NA,NA,NA,NA,NA,NA,NA,NA,NA,NA,NA,NA,NA,NA,NA
SUPAMT42721,3NC5L260MULQJS1SN0HAJ7B2Y98FOW,0757A9C7-11F0-4765-BB63-41404B22B077,2023-09-29_20h55.27.601,WP_VExplicitOC_HL,2022.2.5,Win32,59.9880024,NA,NA,NA,NA,NA,NA,NA,NA,NA,NA,NA,NA,NA,NA,NA,NA,NA,NA,make a drink,004.png,NA,NA,NA,NA,NA,NA,NA,NA,NA,NA,NA,NA,NA,NA,NA,NA,60.00001695,2.3109,0,3,3,3,1,NA,NA,NA,NA,NA,NA,NA,NA,NA,NA,NA,NA,NA,NA,NA,NA
SUPAMT42721,3NC5L260MULQJS1SN0HAJ7B2Y98FOW,0757A9C7-11F0-4765-BB63-41404B22B077,2023-09-29_20h55.27.601,WP_VExplicitOC_HL,2022.2.5,Win32,59.9880024,NA,NA,NA,NA,NA,NA,NA,NA,NA,NA,NA,NA,NA,NA,NA,NA,NA,NA,scroll social media,005.png,NA,NA,NA,NA,NA,NA,NA,NA,NA,NA,NA,NA,NA,NA,NA,NA,100,1.4373,0,4,4,4,1,NA,NA,NA,NA,NA,NA,NA,NA,NA,NA,NA,NA,NA,NA,NA,NA
SUPAMT42721,3NC5L260MULQJS1SN0HAJ7B2Y98FOW,0757A9C7-11F0-4765-BB63-41404B22B077,2023-09-29_20h55.27.601,WP_VExplicitOC_HL,2022.2.5,Win32,59.9880024,NA,NA,NA,NA,NA,NA,NA,NA,NA,NA,NA,NA,NA,NA,NA,NA,NA,NA,listen to music,006.png,NA,NA,NA,NA,NA,NA,NA,NA,NA,NA,NA,NA,NA,NA,NA,NA,100,1.6885,0,5,5,5,1,NA,NA,NA,NA,NA,NA,NA,NA,NA,NA,NA,NA,NA,NA,NA,NA
SUPAMT42721,3NC5L260MULQJS1SN0HAJ7B2Y98FOW,0757A9C7-11F0-4765-BB63-41404B22B077,2023-09-29_20h55.27.601,WP_VExplicitOC_HL,2022.2.5,Win32,59.9880024,NA,NA,NA,NA,NA,NA,NA,NA,NA,NA,NA,NA,NA,NA,NA,NA,NA,NA,daydream,007.png,NA,NA,NA,NA,NA,NA,NA,NA,NA,NA,NA,NA,NA,NA,NA,NA,-58.33333333,1.8887,0,6,6,6,1,NA,NA,NA,NA,NA,NA,NA,NA,NA,NA,NA,NA,NA,NA,NA,NA
SUPAMT42721,3NC5L260MULQJS1SN0HAJ7B2Y98FOW,0757A9C7-11F0-4765-BB63-41404B22B077,2023-09-29_20h55.27.601,WP_VExplicitOC_HL,2022.2.5,Win32,59.9880024,NA,NA,NA,NA,NA,NA,NA,NA,NA,NA,NA,NA,NA,NA,NA,NA,NA,NA,watch a short animation,008.png,NA,NA,NA,NA,NA,NA,NA,NA,NA,NA,NA,NA,NA,NA,NA,NA,63.14815945,3.3724,0,7,7,7,1,NA,NA,NA,NA,NA,NA,NA,NA,NA,NA,NA,NA,NA,NA,NA,NA
SUPAMT42721,3NC5L260MULQJS1SN0HAJ7B2Y98FOW,0757A9C7-11F0-4765-BB63-41404B22B077,2023-09-29_20h55.27.601,WP_VExplicitOC_HL,2022.2.5,Win32,59.9880024,NA,NA,NA,NA,NA,NA,NA,NA,NA,NA,NA,NA,NA,NA,NA,NA,NA,NA,read a novel,009.png,NA,NA,NA,NA,NA,NA,NA,NA,NA,NA,NA,NA,NA,NA,NA,NA,-62.96296296,2.1585,0,8,8,8,1,NA,NA,NA,NA,NA,NA,NA,NA,NA,NA,NA,NA,NA,NA,NA,NA
SUPAMT42721,3NC5L260MULQJS1SN0HAJ7B2Y98FOW,0757A9C7-11F0-4765-BB63-41404B22B077,2023-09-29_20h55.27.601,WP_VExplicitOC_HL,2022.2.5,Win32,59.9880024,NA,NA,NA,NA,NA,NA,NA,NA,NA,NA,NA,NA,NA,NA,NA,NA,NA,NA,read the news,010.png,NA,NA,NA,NA,NA,NA,NA,NA,NA,NA,NA,NA,NA,NA,NA,NA,-100,1.7401,0,9,9,9,1,NA,NA,NA,NA,NA,NA,NA,NA,NA,NA,NA,NA,NA,NA,NA,NA
SUPAMT42721,3NC5L260MULQJS1SN0HAJ7B2Y98FOW,0757A9C7-11F0-4765-BB63-41404B22B077,2023-09-29_20h55.27.601,WP_VExplicitOC_HL,2022.2.5,Win32,59.9880024,NA,NA,NA,NA,NA,NA,NA,NA,NA,NA,NA,NA,NA,NA,NA,NA,NA,NA,NA,NA,NA,NA,NA,NA,NA,NA,NA,NA,NA,NA,NA,NA,NA,NA,NA,NA,NA,NA,NA,NA,NA,NA,NA,read the news,NA,NA,NA,NA,NA,NA,NA,NA,NA,NA,NA,NA,NA,NA,NA
SUPAMT42721,3NC5L260MULQJS1SN0HAJ7B2Y98FOW,0757A9C7-11F0-4765-BB63-41404B22B077,2023-09-29_20h55.27.601,WP_VExplicitOC_HL,2022.2.5,Win32,59.9880024,-92.96296438,3.5211,2.0047,NA,NA,NA,NA,NA,bored,"bored, not bored","more bored, less bored",NA,NA,NA,NA,NA,NA,NA,NA,NA,NA,NA,NA,NA,NA,NA,NA,NA,NA,NA,NA,NA,NA,NA,NA,NA,NA,NA,NA,NA,NA,NA,NA,NA,0,0,0,2,1,NA,NA,NA,NA,NA,NA,NA,NA,NA,NA
SUPAMT42721,3NC5L260MULQJS1SN0HAJ7B2Y98FOW,0757A9C7-11F0-4765-BB63-41404B22B077,2023-09-29_20h55.27.601,WP_VExplicitOC_HL,2022.2.5,Win32,59.9880024,43.51851852,3.5104,2.0145,NA,NA,NA,NA,NA,happy,"unhappy, happy","less happy, more happy",NA,NA,NA,NA,NA,NA,NA,NA,NA,NA,NA,NA,NA,NA,NA,NA,NA,NA,NA,NA,NA,NA,NA,NA,NA,NA,NA,NA,NA,NA,NA,NA,NA,0,1,1,0,1,NA,NA,NA,NA,NA,NA,NA,NA,NA,NA
SUPAMT42721,3NC5L260MULQJS1SN0HAJ7B2Y98FOW,0757A9C7-11F0-4765-BB63-41404B22B077,2023-09-29_20h55.27.601,WP_VExplicitOC_HL,2022.2.5,Win32,59.9880024,37.59259824,4.9011,2.0019,NA,NA,NA,NA,NA,frustrated,"frustrated, not frustrated","more frustrated, less frustrated",NA,NA,NA,NA,NA,NA,NA,NA,NA,NA,NA,NA,NA,NA,NA,NA,NA,NA,NA,NA,NA,NA,NA,NA,NA,NA,NA,NA,NA,NA,NA,NA,NA,0,2,2,1,1,NA,NA,NA,NA,NA,NA,NA,NA,NA,NA
SUPAMT42721,3NC5L260MULQJS1SN0HAJ7B2Y98FOW,0757A9C7-11F0-4765-BB63-41404B22B077,2023-09-29_20h55.27.601,WP_VExplicitOC_HL,2022.2.5,Win32,59.9880024,NA,NA,NA,NA,NA,NA,NA,NA,NA,NA,NA,NA,NA,NA,NA,NA,NA,NA,NA,NA,NA,NA,NA,NA,NA,NA,NA,NA,NA,NA,NA,NA,NA,NA,NA,NA,NA,NA,NA,NA,NA,NA,NA,NA,NA,NA,NA,NA,NA,NA,NA,NA,NA,NA,NA,NA,NA,NA,NA
SUPAMT42721,3NC5L260MULQJS1SN0HAJ7B2Y98FOW,0757A9C7-11F0-4765-BB63-41404B22B077,2023-09-29_20h55.27.601,WP_VExplicitOC_HL,2022.2.5,Win32,59.9880024,NA,NA,NA,NA,NA,NA,NA,NA,NA,NA,NA,NA,NA,NA,NA,NA,NA,NA,NA,NA,NA,NA,NA,NA,NA,NA,NA,NA,NA,NA,NA,NA,NA,NA,NA,NA,NA,NA,NA,NA,NA,NA,NA,NA,NA,NA,NA,NA,NA,NA,NA,NA,NA,NA,NA,NA,NA,NA,NA
SUPAMT42721,3NC5L260MULQJS1SN0HAJ7B2Y98FOW,0757A9C7-11F0-4765-BB63-41404B22B077,2023-09-29_20h55.27.601,WP_VExplicitOC_HL,2022.2.5,Win32,59.9880024,17.40741023,5.3352,2.0074,NA,NA,NA,NA,NA,frustrated,"frustrated, not frustrated","more frustrated, less frustrated",NA,NA,NA,NA,NA,NA,NA,NA,NA,NA,NA,NA,NA,NA,NA,NA,NA,NA,NA,NA,NA,NA,NA,NA,NA,NA,NA,NA,NA,NA,NA,NA,NA,NA,NA,NA,NA,NA,0,0,0,1,1,NA,NA,NA,NA,NA
SUPAMT42721,3NC5L260MULQJS1SN0HAJ7B2Y98FOW,0757A9C7-11F0-4765-BB63-41404B22B077,2023-09-29_20h55.27.601,WP_VExplicitOC_HL,2022.2.5,Win32,59.9880024,-20.37037037,3.4053,2.0151,NA,NA,NA,NA,NA,happy,"unhappy, happy","less happy, more happy",NA,NA,NA,NA,NA,NA,NA,NA,NA,NA,NA,NA,NA,NA,NA,NA,NA,NA,NA,NA,NA,NA,NA,NA,NA,NA,NA,NA,NA,NA,NA,NA,NA,NA,NA,NA,NA,NA,0,1,1,0,1,NA,NA,NA,NA,NA
SUPAMT42721,3NC5L260MULQJS1SN0HAJ7B2Y98FOW,0757A9C7-11F0-4765-BB63-41404B22B077,2023-09-29_20h55.27.601,WP_VExplicitOC_HL,2022.2.5,Win32,59.9880024,-57.03702856,3.0896,2.0163,NA,NA,NA,NA,NA,bored,"bored, not bored","more bored, less bored",NA,NA,NA,NA,NA,NA,NA,NA,NA,NA,NA,NA,NA,NA,NA,NA,NA,NA,NA,NA,NA,NA,NA,NA,NA,NA,NA,NA,NA,NA,NA,NA,NA,NA,NA,NA,NA,NA,0,2,2,2,1,NA,NA,NA,NA,NA
SUPAMT42721,3NC5L260MULQJS1SN0HAJ7B2Y98FOW,0757A9C7-11F0-4765-BB63-41404B22B077,2023-09-29_20h55.27.601,WP_VExplicitOC_HL,2022.2.5,Win32,59.9880024,NA,NA,NA,NA,NA,NA,NA,NA,NA,NA,NA,NA,NA,NA,NA,NA,NA,NA,NA,NA,NA,NA,NA,NA,NA,NA,NA,NA,NA,NA,NA,NA,NA,NA,NA,NA,NA,NA,NA,NA,NA,NA,NA,NA,NA,NA,NA,NA,NA,NA,NA,NA,NA,NA,0,0,0,0,1
SUPAMT42721,3NC5L260MULQJS1SN0HAJ7B2Y98FOW,0757A9C7-11F0-4765-BB63-41404B22B077,2023-09-29_20h55.27.601,WP_VExplicitOC_HL,2022.2.5,Win32,59.9880024,-35.74073226,3.2515,2.0026,NA,NA,NA,NA,NA,happy,"unhappy, happy","less happy, more happy",NA,NA,NA,NA,NA,NA,NA,NA,NA,NA,NA,NA,NA,NA,NA,NA,NA,NA,NA,NA,NA,NA,NA,NA,NA,NA,NA,NA,NA,NA,NA,NA,NA,NA,NA,NA,NA,NA,0,0,0,0,1,NA,NA,NA,NA,NA
SUPAMT42721,3NC5L260MULQJS1SN0HAJ7B2Y98FOW,0757A9C7-11F0-4765-BB63-41404B22B077,2023-09-29_20h55.27.601,WP_VExplicitOC_HL,2022.2.5,Win32,59.9880024,18.333336160000002,4.5865,2.0088,NA,NA,NA,NA,NA,frustrated,"frustrated, not frustrated","more frustrated, less frustrated",NA,NA,NA,NA,NA,NA,NA,NA,NA,NA,NA,NA,NA,NA,NA,NA,NA,NA,NA,NA,NA,NA,NA,NA,NA,NA,NA,NA,NA,NA,NA,NA,NA,NA,NA,NA,NA,NA,0,1,1,1,1,NA,NA,NA,NA,NA
SUPAMT42721,3NC5L260MULQJS1SN0HAJ7B2Y98FOW,0757A9C7-11F0-4765-BB63-41404B22B077,2023-09-29_20h55.27.601,WP_VExplicitOC_HL,2022.2.5,Win32,59.9880024,-100,3.4527,2.0005,NA,NA,NA,NA,NA,bored,"bored, not bored","more bored, less bored",NA,NA,NA,NA,NA,NA,NA,NA,NA,NA,NA,NA,NA,NA,NA,NA,NA,NA,NA,NA,NA,NA,NA,NA,NA,NA,NA,NA,NA,NA,NA,NA,NA,NA,NA,NA,NA,NA,0,2,2,2,1,NA,NA,NA,NA,NA
SUPAMT42721,3NC5L260MULQJS1SN0HAJ7B2Y98FOW,0757A9C7-11F0-4765-BB63-41404B22B077,2023-09-29_20h55.27.601,WP_VExplicitOC_HL,2022.2.5,Win32,59.9880024,NA,NA,NA,NA,NA,NA,NA,NA,NA,NA,NA,NA,NA,NA,NA,NA,NA,NA,NA,NA,NA,NA,NA,NA,NA,NA,NA,NA,NA,NA,NA,NA,NA,NA,NA,NA,NA,NA,NA,NA,NA,NA,NA,NA,NA,NA,NA,NA,NA,NA,NA,NA,NA,NA,1,0,1,0,1
SUPAMT42721,3NC5L260MULQJS1SN0HAJ7B2Y98FOW,0757A9C7-11F0-4765-BB63-41404B22B077,2023-09-29_20h55.27.601,WP_VExplicitOC_HL,2022.2.5,Win32,59.9880024,-16.11110546,3.7642,2.0064,NA,NA,NA,NA,NA,happy,"unhappy, happy","less happy, more happy",NA,NA,NA,NA,NA,NA,NA,NA,NA,NA,NA,NA,NA,NA,NA,NA,NA,NA,NA,NA,NA,NA,NA,NA,NA,NA,NA,NA,NA,NA,NA,NA,NA,NA,NA,NA,NA,NA,0,0,0,0,1,NA,NA,NA,NA,NA
SUPAMT42721,3NC5L260MULQJS1SN0HAJ7B2Y98FOW,0757A9C7-11F0-4765-BB63-41404B22B077,2023-09-29_20h55.27.601,WP_VExplicitOC_HL,2022.2.5,Win32,59.9880024,-3.888886063,3.7033,2.0164,NA,NA,NA,NA,NA,frustrated,"frustrated, not frustrated","more frustrated, less frustrated",NA,NA,NA,NA,NA,NA,NA,NA,NA,NA,NA,NA,NA,NA,NA,NA,NA,NA,NA,NA,NA,NA,NA,NA,NA,NA,NA,NA,NA,NA,NA,NA,NA,NA,NA,NA,NA,NA,0,1,1,1,1,NA,NA,NA,NA,NA
SUPAMT42721,3NC5L260MULQJS1SN0HAJ7B2Y98FOW,0757A9C7-11F0-4765-BB63-41404B22B077,2023-09-29_20h55.27.601,WP_VExplicitOC_HL,2022.2.5,Win32,59.9880024,-100,2.8543,2.0164,NA,NA,NA,NA,NA,bored,"bored, not bored","more bored, less bored",NA,NA,NA,NA,NA,NA,NA,NA,NA,NA,NA,NA,NA,NA,NA,NA,NA,NA,NA,NA,NA,NA,NA,NA,NA,NA,NA,NA,NA,NA,NA,NA,NA,NA,NA,NA,NA,NA,0,2,2,2,1,NA,NA,NA,NA,NA
SUPAMT42721,3NC5L260MULQJS1SN0HAJ7B2Y98FOW,0757A9C7-11F0-4765-BB63-41404B22B077,2023-09-29_20h55.27.601,WP_VExplicitOC_HL,2022.2.5,Win32,59.9880024,NA,NA,NA,NA,NA,NA,NA,NA,NA,NA,NA,NA,NA,NA,NA,NA,NA,NA,NA,NA,NA,NA,NA,NA,NA,NA,NA,NA,NA,NA,NA,NA,NA,NA,NA,NA,NA,NA,NA,NA,NA,NA,NA,NA,NA,NA,NA,NA,NA,NA,NA,NA,NA,NA,2,0,2,0,1
SUPAMT42721,3NC5L260MULQJS1SN0HAJ7B2Y98FOW,0757A9C7-11F0-4765-BB63-41404B22B077,2023-09-29_20h55.27.601,WP_VExplicitOC_HL,2022.2.5,Win32,59.9880024,-16.11110546,3.5708,2.0058,NA,NA,NA,NA,NA,happy,"unhappy, happy","less happy, more happy",NA,NA,NA,NA,NA,NA,NA,NA,NA,NA,NA,NA,NA,NA,NA,NA,NA,NA,NA,NA,NA,NA,NA,NA,NA,NA,NA,NA,NA,NA,NA,NA,NA,NA,NA,NA,NA,NA,0,0,0,0,1,NA,NA,NA,NA,NA
SUPAMT42721,3NC5L260MULQJS1SN0HAJ7B2Y98FOW,0757A9C7-11F0-4765-BB63-41404B22B077,2023-09-29_20h55.27.601,WP_VExplicitOC_HL,2022.2.5,Win32,59.9880024,-100,3.1861,2.0159,NA,NA,NA,NA,NA,bored,"bored, not bored","more bored, less bored",NA,NA,NA,NA,NA,NA,NA,NA,NA,NA,NA,NA,NA,NA,NA,NA,NA,NA,NA,NA,NA,NA,NA,NA,NA,NA,NA,NA,NA,NA,NA,NA,NA,NA,NA,NA,NA,NA,0,1,1,2,1,NA,NA,NA,NA,NA
SUPAMT42721,3NC5L260MULQJS1SN0HAJ7B2Y98FOW,0757A9C7-11F0-4765-BB63-41404B22B077,2023-09-29_20h55.27.601,WP_VExplicitOC_HL,2022.2.5,Win32,59.9880024,-7.407407407,4.7024,2.0009,NA,NA,NA,NA,NA,frustrated,"frustrated, not frustrated","more frustrated, less frustrated",NA,NA,NA,NA,NA,NA,NA,NA,NA,NA,NA,NA,NA,NA,NA,NA,NA,NA,NA,NA,NA,NA,NA,NA,NA,NA,NA,NA,NA,NA,NA,NA,NA,NA,NA,NA,NA,NA,0,2,2,1,1,NA,NA,NA,NA,NA
SUPAMT42721,3NC5L260MULQJS1SN0HAJ7B2Y98FOW,0757A9C7-11F0-4765-BB63-41404B22B077,2023-09-29_20h55.27.601,WP_VExplicitOC_HL,2022.2.5,Win32,59.9880024,NA,NA,NA,NA,NA,NA,NA,NA,NA,NA,NA,NA,NA,NA,NA,NA,NA,NA,NA,NA,NA,NA,NA,NA,NA,NA,NA,NA,NA,NA,NA,NA,NA,NA,NA,NA,NA,NA,NA,NA,NA,NA,NA,NA,NA,NA,NA,NA,NA,NA,NA,NA,NA,NA,3,0,3,0,1
SUPAMT42721,3NC5L260MULQJS1SN0HAJ7B2Y98FOW,0757A9C7-11F0-4765-BB63-41404B22B077,2023-09-29_20h55.27.601,WP_VExplicitOC_HL,2022.2.5,Win32,59.9880024,-21.11111394,3.4636,2.0078,NA,NA,NA,NA,NA,happy,"unhappy, happy","less happy, more happy",NA,NA,NA,NA,NA,NA,NA,NA,NA,NA,NA,NA,NA,NA,NA,NA,NA,NA,NA,NA,NA,NA,NA,NA,NA,NA,NA,NA,NA,NA,NA,NA,NA,NA,NA,NA,NA,NA,0,0,0,0,1,NA,NA,NA,NA,NA
SUPAMT42721,3NC5L260MULQJS1SN0HAJ7B2Y98FOW,0757A9C7-11F0-4765-BB63-41404B22B077,2023-09-29_20h55.27.601,WP_VExplicitOC_HL,2022.2.5,Win32,59.9880024,-100,3.0535,2.0161,NA,NA,NA,NA,NA,bored,"bored, not bored","more bored, less bored",NA,NA,NA,NA,NA,NA,NA,NA,NA,NA,NA,NA,NA,NA,NA,NA,NA,NA,NA,NA,NA,NA,NA,NA,NA,NA,NA,NA,NA,NA,NA,NA,NA,NA,NA,NA,NA,NA,0,1,1,2,1,NA,NA,NA,NA,NA
SUPAMT42721,3NC5L260MULQJS1SN0HAJ7B2Y98FOW,0757A9C7-11F0-4765-BB63-41404B22B077,2023-09-29_20h55.27.601,WP_VExplicitOC_HL,2022.2.5,Win32,59.9880024,19.6296268,4.1377,2.0166,NA,NA,NA,NA,NA,frustrated,"frustrated, not frustrated","more frustrated, less frustrated",NA,NA,NA,NA,NA,NA,NA,NA,NA,NA,NA,NA,NA,NA,NA,NA,NA,NA,NA,NA,NA,NA,NA,NA,NA,NA,NA,NA,NA,NA,NA,NA,NA,NA,NA,NA,NA,NA,0,2,2,1,1,NA,NA,NA,NA,NA
SUPAMT42721,3NC5L260MULQJS1SN0HAJ7B2Y98FOW,0757A9C7-11F0-4765-BB63-41404B22B077,2023-09-29_20h55.27.601,WP_VExplicitOC_HL,2022.2.5,Win32,59.9880024,NA,NA,NA,NA,NA,NA,NA,NA,NA,NA,NA,NA,NA,NA,NA,NA,NA,NA,NA,NA,NA,NA,NA,NA,NA,NA,NA,NA,NA,NA,NA,NA,NA,NA,NA,NA,NA,NA,NA,NA,NA,NA,NA,NA,NA,NA,NA,NA,NA,NA,NA,NA,NA,NA,4,0,4,0,1
SUPAMT42721,3NC5L260MULQJS1SN0HAJ7B2Y98FOW,0757A9C7-11F0-4765-BB63-41404B22B077,2023-09-29_20h55.27.601,WP_VExplicitOC_HL,2022.2.5,Win32,59.9880024,-100,4.0346,2.0193,NA,NA,NA,NA,NA,bored,"bored, not bored","more bored, less bored",NA,NA,NA,NA,NA,NA,NA,NA,NA,NA,NA,NA,NA,NA,NA,NA,NA,NA,NA,NA,NA,NA,NA,NA,NA,NA,NA,NA,NA,NA,NA,NA,NA,NA,NA,NA,NA,NA,0,0,0,2,1,NA,NA,NA,NA,NA
SUPAMT42721,3NC5L260MULQJS1SN0HAJ7B2Y98FOW,0757A9C7-11F0-4765-BB63-41404B22B077,2023-09-29_20h55.27.601,WP_VExplicitOC_HL,2022.2.5,Win32,59.9880024,-22.59258694,4.3489,2.0094,NA,NA,NA,NA,NA,happy,"unhappy, happy","less happy, more happy",NA,NA,NA,NA,NA,NA,NA,NA,NA,NA,NA,NA,NA,NA,NA,NA,NA,NA,NA,NA,NA,NA,NA,NA,NA,NA,NA,NA,NA,NA,NA,NA,NA,NA,NA,NA,NA,NA,0,1,1,0,1,NA,NA,NA,NA,NA
SUPAMT42721,3NC5L260MULQJS1SN0HAJ7B2Y98FOW,0757A9C7-11F0-4765-BB63-41404B22B077,2023-09-29_20h55.27.601,WP_VExplicitOC_HL,2022.2.5,Win32,59.9880024,10.00000283,3.9973,2.015,NA,NA,NA,NA,NA,frustrated,"frustrated, not frustrated","more frustrated, less frustrated",NA,NA,NA,NA,NA,NA,NA,NA,NA,NA,NA,NA,NA,NA,NA,NA,NA,NA,NA,NA,NA,NA,NA,NA,NA,NA,NA,NA,NA,NA,NA,NA,NA,NA,NA,NA,NA,NA,0,2,2,1,1,NA,NA,NA,NA,NA
SUPAMT42721,3NC5L260MULQJS1SN0HAJ7B2Y98FOW,0757A9C7-11F0-4765-BB63-41404B22B077,2023-09-29_20h55.27.601,WP_VExplicitOC_HL,2022.2.5,Win32,59.9880024,NA,NA,NA,NA,NA,NA,NA,NA,NA,NA,NA,NA,NA,NA,NA,NA,NA,NA,NA,NA,NA,NA,NA,NA,NA,NA,NA,NA,NA,NA,NA,NA,NA,NA,NA,NA,NA,NA,NA,NA,NA,NA,NA,NA,NA,NA,NA,NA,NA,NA,NA,NA,NA,NA,5,0,5,0,1
SUPAMT42721,3NC5L260MULQJS1SN0HAJ7B2Y98FOW,0757A9C7-11F0-4765-BB63-41404B22B077,2023-09-29_20h55.27.601,WP_VExplicitOC_HL,2022.2.5,Win32,59.9880024,15.37037602,4.5104,2.0148,NA,NA,NA,NA,NA,frustrated,"frustrated, not frustrated","more frustrated, less frustrated",NA,NA,NA,NA,NA,NA,NA,NA,NA,NA,NA,NA,NA,NA,NA,NA,NA,NA,NA,NA,NA,NA,NA,NA,NA,NA,NA,NA,NA,NA,NA,NA,NA,NA,NA,NA,NA,NA,0,0,0,1,1,NA,NA,NA,NA,NA
SUPAMT42721,3NC5L260MULQJS1SN0HAJ7B2Y98FOW,0757A9C7-11F0-4765-BB63-41404B22B077,2023-09-29_20h55.27.601,WP_VExplicitOC_HL,2022.2.5,Win32,59.9880024,-32.40740741,3.0016,2.0032,NA,NA,NA,NA,NA,happy,"unhappy, happy","less happy, more happy",NA,NA,NA,NA,NA,NA,NA,NA,NA,NA,NA,NA,NA,NA,NA,NA,NA,NA,NA,NA,NA,NA,NA,NA,NA,NA,NA,NA,NA,NA,NA,NA,NA,NA,NA,NA,NA,NA,0,1,1,0,1,NA,NA,NA,NA,NA
SUPAMT42721,3NC5L260MULQJS1SN0HAJ7B2Y98FOW,0757A9C7-11F0-4765-BB63-41404B22B077,2023-09-29_20h55.27.601,WP_VExplicitOC_HL,2022.2.5,Win32,59.9880024,-100,3.5644,2.011,NA,NA,NA,NA,NA,bored,"bored, not bored","more bored, less bored",NA,NA,NA,NA,NA,NA,NA,NA,NA,NA,NA,NA,NA,NA,NA,NA,NA,NA,NA,NA,NA,NA,NA,NA,NA,NA,NA,NA,NA,NA,NA,NA,NA,NA,NA,NA,NA,NA,0,2,2,2,1,NA,NA,NA,NA,NA
SUPAMT42721,3NC5L260MULQJS1SN0HAJ7B2Y98FOW,0757A9C7-11F0-4765-BB63-41404B22B077,2023-09-29_20h55.27.601,WP_VExplicitOC_HL,2022.2.5,Win32,59.9880024,NA,NA,NA,NA,NA,NA,NA,NA,NA,NA,NA,NA,NA,NA,NA,NA,NA,NA,NA,NA,NA,NA,NA,NA,NA,NA,NA,NA,NA,NA,NA,NA,NA,NA,NA,NA,NA,NA,NA,NA,NA,NA,NA,NA,NA,NA,NA,NA,NA,NA,NA,NA,NA,NA,6,0,6,0,1
SUPAMT42721,3NC5L260MULQJS1SN0HAJ7B2Y98FOW,0757A9C7-11F0-4765-BB63-41404B22B077,2023-09-29_20h55.27.601,WP_VExplicitOC_HL,2022.2.5,Win32,59.9880024,-21.11111394,3.2521,2.0074,NA,NA,NA,NA,NA,frustrated,"frustrated, not frustrated","more frustrated, less frustrated",NA,NA,NA,NA,NA,NA,NA,NA,NA,NA,NA,NA,NA,NA,NA,NA,NA,NA,NA,NA,NA,NA,NA,NA,NA,NA,NA,NA,NA,NA,NA,NA,NA,NA,NA,NA,NA,NA,0,0,0,1,1,NA,NA,NA,NA,NA
SUPAMT42721,3NC5L260MULQJS1SN0HAJ7B2Y98FOW,0757A9C7-11F0-4765-BB63-41404B22B077,2023-09-29_20h55.27.601,WP_VExplicitOC_HL,2022.2.5,Win32,59.9880024,-84.99999576,3.9391,2.0163,NA,NA,NA,NA,NA,bored,"bored, not bored","more bored, less bored",NA,NA,NA,NA,NA,NA,NA,NA,NA,NA,NA,NA,NA,NA,NA,NA,NA,NA,NA,NA,NA,NA,NA,NA,NA,NA,NA,NA,NA,NA,NA,NA,NA,NA,NA,NA,NA,NA,0,1,1,2,1,NA,NA,NA,NA,NA
SUPAMT42721,3NC5L260MULQJS1SN0HAJ7B2Y98FOW,0757A9C7-11F0-4765-BB63-41404B22B077,2023-09-29_20h55.27.601,WP_VExplicitOC_HL,2022.2.5,Win32,59.9880024,-35.18518519,3.9863,2.0167,NA,NA,NA,NA,NA,happy,"unhappy, happy","less happy, more happy",NA,NA,NA,NA,NA,NA,NA,NA,NA,NA,NA,NA,NA,NA,NA,NA,NA,NA,NA,NA,NA,NA,NA,NA,NA,NA,NA,NA,NA,NA,NA,NA,NA,NA,NA,NA,NA,NA,0,2,2,0,1,NA,NA,NA,NA,NA
SUPAMT42721,3NC5L260MULQJS1SN0HAJ7B2Y98FOW,0757A9C7-11F0-4765-BB63-41404B22B077,2023-09-29_20h55.27.601,WP_VExplicitOC_HL,2022.2.5,Win32,59.9880024,NA,NA,NA,NA,NA,NA,NA,NA,NA,NA,NA,NA,NA,NA,NA,NA,NA,NA,NA,NA,NA,NA,NA,NA,NA,NA,NA,NA,NA,NA,NA,NA,NA,NA,NA,NA,NA,NA,NA,NA,NA,NA,NA,NA,NA,NA,NA,NA,NA,NA,NA,NA,NA,NA,7,0,7,0,1
SUPAMT42721,3NC5L260MULQJS1SN0HAJ7B2Y98FOW,0757A9C7-11F0-4765-BB63-41404B22B077,2023-09-29_20h55.27.601,WP_VExplicitOC_HL,2022.2.5,Win32,59.9880024,-100,5.209,2.0046,NA,NA,NA,NA,NA,bored,"bored, not bored","more bored, less bored",NA,NA,NA,NA,NA,NA,NA,NA,NA,NA,NA,NA,NA,NA,NA,NA,NA,NA,NA,NA,NA,NA,NA,NA,NA,NA,NA,NA,NA,NA,NA,NA,NA,NA,NA,NA,NA,NA,0,0,0,2,1,NA,NA,NA,NA,NA
SUPAMT42721,3NC5L260MULQJS1SN0HAJ7B2Y98FOW,0757A9C7-11F0-4765-BB63-41404B22B077,2023-09-29_20h55.27.601,WP_VExplicitOC_HL,2022.2.5,Win32,59.9880024,-34.44444162,3.7701,2.0161,NA,NA,NA,NA,NA,happy,"unhappy, happy","less happy, more happy",NA,NA,NA,NA,NA,NA,NA,NA,NA,NA,NA,NA,NA,NA,NA,NA,NA,NA,NA,NA,NA,NA,NA,NA,NA,NA,NA,NA,NA,NA,NA,NA,NA,NA,NA,NA,NA,NA,0,1,1,0,1,NA,NA,NA,NA,NA
SUPAMT42721,3NC5L260MULQJS1SN0HAJ7B2Y98FOW,0757A9C7-11F0-4765-BB63-41404B22B077,2023-09-29_20h55.27.601,WP_VExplicitOC_HL,2022.2.5,Win32,59.9880024,-17.77777495,3.8373,2.0165,NA,NA,NA,NA,NA,frustrated,"frustrated, not frustrated","more frustrated, less frustrated",NA,NA,NA,NA,NA,NA,NA,NA,NA,NA,NA,NA,NA,NA,NA,NA,NA,NA,NA,NA,NA,NA,NA,NA,NA,NA,NA,NA,NA,NA,NA,NA,NA,NA,NA,NA,NA,NA,0,2,2,1,1,NA,NA,NA,NA,NA
SUPAMT42721,3NC5L260MULQJS1SN0HAJ7B2Y98FOW,0757A9C7-11F0-4765-BB63-41404B22B077,2023-09-29_20h55.27.601,WP_VExplicitOC_HL,2022.2.5,Win32,59.9880024,NA,NA,NA,NA,NA,NA,NA,NA,NA,NA,NA,NA,NA,NA,NA,NA,NA,NA,NA,NA,NA,NA,NA,NA,NA,NA,NA,NA,NA,NA,NA,NA,NA,NA,NA,NA,NA,NA,NA,NA,NA,NA,NA,NA,NA,NA,NA,NA,NA,NA,NA,NA,NA,NA,8,0,8,0,1
SUPAMT42721,3NC5L260MULQJS1SN0HAJ7B2Y98FOW,0757A9C7-11F0-4765-BB63-41404B22B077,2023-09-29_20h55.27.601,WP_VExplicitOC_HL,2022.2.5,Win32,59.9880024,-28.88888606,3.2546,2.0053,NA,NA,NA,NA,NA,happy,"unhappy, happy","less happy, more happy",NA,NA,NA,NA,NA,NA,NA,NA,NA,NA,NA,NA,NA,NA,NA,NA,NA,NA,NA,NA,NA,NA,NA,NA,NA,NA,NA,NA,NA,NA,NA,NA,NA,NA,NA,NA,NA,NA,0,0,0,0,1,NA,NA,NA,NA,NA
SUPAMT42721,3NC5L260MULQJS1SN0HAJ7B2Y98FOW,0757A9C7-11F0-4765-BB63-41404B22B077,2023-09-29_20h55.27.601,WP_VExplicitOC_HL,2022.2.5,Win32,59.9880024,-19.25926208,2.8517,2.0157,NA,NA,NA,NA,NA,frustrated,"frustrated, not frustrated","more frustrated, less frustrated",NA,NA,NA,NA,NA,NA,NA,NA,NA,NA,NA,NA,NA,NA,NA,NA,NA,NA,NA,NA,NA,NA,NA,NA,NA,NA,NA,NA,NA,NA,NA,NA,NA,NA,NA,NA,NA,NA,0,1,1,1,1,NA,NA,NA,NA,NA
SUPAMT42721,3NC5L260MULQJS1SN0HAJ7B2Y98FOW,0757A9C7-11F0-4765-BB63-41404B22B077,2023-09-29_20h55.27.601,WP_VExplicitOC_HL,2022.2.5,Win32,59.9880024,-85.92592169,4.0685,2.0173,NA,NA,NA,NA,NA,bored,"bored, not bored","more bored, less bored",NA,NA,NA,NA,NA,NA,NA,NA,NA,NA,NA,NA,NA,NA,NA,NA,NA,NA,NA,NA,NA,NA,NA,NA,NA,NA,NA,NA,NA,NA,NA,NA,NA,NA,NA,NA,NA,NA,0,2,2,2,1,NA,NA,NA,NA,NA
SUPAMT42721,3NC5L260MULQJS1SN0HAJ7B2Y98FOW,0757A9C7-11F0-4765-BB63-41404B22B077,2023-09-29_20h55.27.601,WP_VExplicitOC_HL,2022.2.5,Win32,59.9880024,NA,NA,NA,NA,NA,NA,NA,NA,NA,NA,NA,NA,NA,NA,NA,NA,NA,NA,NA,NA,NA,NA,NA,NA,NA,NA,NA,NA,NA,NA,NA,NA,NA,NA,NA,NA,NA,NA,NA,NA,NA,NA,NA,NA,NA,NA,NA,NA,NA,NA,NA,NA,NA,NA,9,0,9,0,1
SUPAMT42721,3NC5L260MULQJS1SN0HAJ7B2Y98FOW,0757A9C7-11F0-4765-BB63-41404B22B077,2023-09-29_20h55.27.601,WP_VExplicitOC_HL,2022.2.5,Win32,59.9880024,-100,3.4178,2.0118,NA,NA,NA,NA,NA,bored,"bored, not bored","more bored, less bored",NA,NA,NA,NA,NA,NA,NA,NA,NA,NA,NA,NA,NA,NA,NA,NA,NA,NA,NA,NA,NA,NA,NA,NA,NA,NA,NA,NA,NA,NA,NA,NA,NA,NA,NA,NA,NA,NA,0,0,0,2,1,NA,NA,NA,NA,NA
SUPAMT42721,3NC5L260MULQJS1SN0HAJ7B2Y98FOW,0757A9C7-11F0-4765-BB63-41404B22B077,2023-09-29_20h55.27.601,WP_VExplicitOC_HL,2022.2.5,Win32,59.9880024,8.518515693,3.3146,2.0153,NA,NA,NA,NA,NA,frustrated,"frustrated, not frustrated","more frustrated, less frustrated",NA,NA,NA,NA,NA,NA,NA,NA,NA,NA,NA,NA,NA,NA,NA,NA,NA,NA,NA,NA,NA,NA,NA,NA,NA,NA,NA,NA,NA,NA,NA,NA,NA,NA,NA,NA,NA,NA,0,1,1,1,1,NA,NA,NA,NA,NA
SUPAMT42721,3NC5L260MULQJS1SN0HAJ7B2Y98FOW,0757A9C7-11F0-4765-BB63-41404B22B077,2023-09-29_20h55.27.601,WP_VExplicitOC_HL,2022.2.5,Win32,59.9880024,-39.44443597,4.0151,2.0083,NA,NA,NA,NA,NA,happy,"unhappy, happy","less happy, more happy",NA,NA,NA,NA,NA,NA,NA,NA,NA,NA,NA,NA,NA,NA,NA,NA,NA,NA,NA,NA,NA,NA,NA,NA,NA,NA,NA,NA,NA,NA,NA,NA,NA,NA,NA,NA,NA,NA,0,2,2,0,1,NA,NA,NA,NA,NA
SUPAMT42721,3NC5L260MULQJS1SN0HAJ7B2Y98FOW,0757A9C7-11F0-4765-BB63-41404B22B077,2023-09-29_20h55.27.601,WP_VExplicitOC_HL,2022.2.5,Win32,59.9880024,NA,NA,NA,NA,NA,NA,NA,NA,NA,NA,NA,NA,NA,NA,NA,NA,NA,NA,NA,NA,NA,NA,NA,NA,NA,NA,NA,NA,NA,NA,NA,NA,NA,NA,NA,NA,NA,NA,NA,NA,NA,NA,NA,NA,NA,NA,NA,NA,NA,NA,NA,NA,NA,NA,10,0,10,0,1
SUPAMT42721,3NC5L260MULQJS1SN0HAJ7B2Y98FOW,0757A9C7-11F0-4765-BB63-41404B22B077,2023-09-29_20h55.27.601,WP_VExplicitOC_HL,2022.2.5,Win32,59.9880024,3.703703704,4.9356,2.0128,NA,NA,NA,NA,NA,frustrated,"frustrated, not frustrated","more frustrated, less frustrated",NA,NA,NA,NA,NA,NA,NA,NA,NA,NA,NA,NA,NA,NA,NA,NA,NA,NA,NA,NA,NA,NA,NA,NA,NA,NA,NA,NA,NA,NA,NA,NA,NA,NA,NA,NA,NA,NA,0,0,0,1,1,NA,NA,NA,NA,NA
SUPAMT42721,3NC5L260MULQJS1SN0HAJ7B2Y98FOW,0757A9C7-11F0-4765-BB63-41404B22B077,2023-09-29_20h55.27.601,WP_VExplicitOC_HL,2022.2.5,Win32,59.9880024,-100,2.9631,2.0141,NA,NA,NA,NA,NA,bored,"bored, not bored","more bored, less bored",NA,NA,NA,NA,NA,NA,NA,NA,NA,NA,NA,NA,NA,NA,NA,NA,NA,NA,NA,NA,NA,NA,NA,NA,NA,NA,NA,NA,NA,NA,NA,NA,NA,NA,NA,NA,NA,NA,0,1,1,2,1,NA,NA,NA,NA,NA
SUPAMT42721,3NC5L260MULQJS1SN0HAJ7B2Y98FOW,0757A9C7-11F0-4765-BB63-41404B22B077,2023-09-29_20h55.27.601,WP_VExplicitOC_HL,2022.2.5,Win32,59.9880024,-30.74073792,3.8639,2.0124,NA,NA,NA,NA,NA,happy,"unhappy, happy","less happy, more happy",NA,NA,NA,NA,NA,NA,NA,NA,NA,NA,NA,NA,NA,NA,NA,NA,NA,NA,NA,NA,NA,NA,NA,NA,NA,NA,NA,NA,NA,NA,NA,NA,NA,NA,NA,NA,NA,NA,0,2,2,0,1,NA,NA,NA,NA,NA
SUPAMT42721,3NC5L260MULQJS1SN0HAJ7B2Y98FOW,0757A9C7-11F0-4765-BB63-41404B22B077,2023-09-29_20h55.27.601,WP_VExplicitOC_HL,2022.2.5,Win32,59.9880024,NA,NA,NA,NA,NA,NA,NA,NA,NA,NA,NA,NA,NA,NA,NA,NA,NA,NA,NA,NA,NA,NA,NA,NA,NA,NA,NA,NA,NA,NA,NA,NA,NA,NA,NA,NA,NA,NA,NA,NA,NA,NA,NA,NA,NA,NA,NA,NA,NA,NA,NA,NA,NA,NA,11,0,11,0,1
SUPAMT42721,3NC5L260MULQJS1SN0HAJ7B2Y98FOW,0757A9C7-11F0-4765-BB63-41404B22B077,2023-09-29_20h55.27.601,WP_VExplicitOC_HL,2022.2.5,Win32,59.9880024,-18.14813967,3.6986,2.006,NA,NA,NA,NA,NA,happy,"unhappy, happy","less happy, more happy",NA,NA,NA,NA,NA,NA,NA,NA,NA,NA,NA,NA,NA,NA,NA,NA,NA,NA,NA,NA,NA,NA,NA,NA,NA,NA,NA,NA,NA,NA,NA,NA,NA,NA,NA,NA,NA,NA,0,0,0,0,1,NA,NA,NA,NA,NA
SUPAMT42721,3NC5L260MULQJS1SN0HAJ7B2Y98FOW,0757A9C7-11F0-4765-BB63-41404B22B077,2023-09-29_20h55.27.601,WP_VExplicitOC_HL,2022.2.5,Win32,59.9880024,-100,2.8706,2,NA,NA,NA,NA,NA,bored,"bored, not bored","more bored, less bored",NA,NA,NA,NA,NA,NA,NA,NA,NA,NA,NA,NA,NA,NA,NA,NA,NA,NA,NA,NA,NA,NA,NA,NA,NA,NA,NA,NA,NA,NA,NA,NA,NA,NA,NA,NA,NA,NA,0,1,1,2,1,NA,NA,NA,NA,NA
SUPAMT42721,3NC5L260MULQJS1SN0HAJ7B2Y98FOW,0757A9C7-11F0-4765-BB63-41404B22B077,2023-09-29_20h55.27.601,WP_VExplicitOC_HL,2022.2.5,Win32,59.9880024,-11.85185468,4.442,2.0163,NA,NA,NA,NA,NA,frustrated,"frustrated, not frustrated","more frustrated, less frustrated",NA,NA,NA,NA,NA,NA,NA,NA,NA,NA,NA,NA,NA,NA,NA,NA,NA,NA,NA,NA,NA,NA,NA,NA,NA,NA,NA,NA,NA,NA,NA,NA,NA,NA,NA,NA,NA,NA,0,2,2,1,1,NA,NA,NA,NA,NA
SUPAMT42721,3NC5L260MULQJS1SN0HAJ7B2Y98FOW,0757A9C7-11F0-4765-BB63-41404B22B077,2023-09-29_20h55.27.601,WP_VExplicitOC_HL,2022.2.5,Win32,59.9880024,NA,NA,NA,NA,NA,NA,NA,NA,NA,NA,NA,NA,NA,NA,NA,NA,NA,NA,NA,NA,NA,NA,NA,NA,NA,NA,NA,NA,NA,NA,NA,NA,NA,NA,NA,NA,NA,NA,NA,NA,NA,NA,NA,NA,NA,NA,NA,NA,NA,NA,NA,NA,NA,NA,12,0,12,0,1
SUPAMT42721,3NC5L260MULQJS1SN0HAJ7B2Y98FOW,0757A9C7-11F0-4765-BB63-41404B22B077,2023-09-29_20h55.27.601,WP_VExplicitOC_HL,2022.2.5,Win32,59.9880024,-27.03703421,4.1537,2.0151,NA,NA,NA,NA,NA,happy,"unhappy, happy","less happy, more happy",NA,NA,NA,NA,NA,NA,NA,NA,NA,NA,NA,NA,NA,NA,NA,NA,NA,NA,NA,NA,NA,NA,NA,NA,NA,NA,NA,NA,NA,NA,NA,NA,NA,NA,NA,NA,NA,NA,0,0,0,0,1,NA,NA,NA,NA,NA
SUPAMT42721,3NC5L260MULQJS1SN0HAJ7B2Y98FOW,0757A9C7-11F0-4765-BB63-41404B22B077,2023-09-29_20h55.27.601,WP_VExplicitOC_HL,2022.2.5,Win32,59.9880024,-100,4.5132,2.0156,NA,NA,NA,NA,NA,bored,"bored, not bored","more bored, less bored",NA,NA,NA,NA,NA,NA,NA,NA,NA,NA,NA,NA,NA,NA,NA,NA,NA,NA,NA,NA,NA,NA,NA,NA,NA,NA,NA,NA,NA,NA,NA,NA,NA,NA,NA,NA,NA,NA,0,1,1,2,1,NA,NA,NA,NA,NA
SUPAMT42721,3NC5L260MULQJS1SN0HAJ7B2Y98FOW,0757A9C7-11F0-4765-BB63-41404B22B077,2023-09-29_20h55.27.601,WP_VExplicitOC_HL,2022.2.5,Win32,59.9880024,-6.666663841,4.9115,2.0118,NA,NA,NA,NA,NA,frustrated,"frustrated, not frustrated","more frustrated, less frustrated",NA,NA,NA,NA,NA,NA,NA,NA,NA,NA,NA,NA,NA,NA,NA,NA,NA,NA,NA,NA,NA,NA,NA,NA,NA,NA,NA,NA,NA,NA,NA,NA,NA,NA,NA,NA,NA,NA,0,2,2,1,1,NA,NA,NA,NA,NA
SUPAMT42721,3NC5L260MULQJS1SN0HAJ7B2Y98FOW,0757A9C7-11F0-4765-BB63-41404B22B077,2023-09-29_20h55.27.601,WP_VExplicitOC_HL,2022.2.5,Win32,59.9880024,NA,NA,NA,NA,NA,NA,NA,NA,NA,NA,NA,NA,NA,NA,NA,NA,NA,NA,NA,NA,NA,NA,NA,NA,NA,NA,NA,NA,NA,NA,NA,NA,NA,NA,NA,NA,NA,NA,NA,NA,NA,NA,NA,NA,NA,NA,NA,NA,NA,NA,NA,NA,NA,NA,13,0,13,0,1
SUPAMT42721,3NC5L260MULQJS1SN0HAJ7B2Y98FOW,0757A9C7-11F0-4765-BB63-41404B22B077,2023-09-29_20h55.27.601,WP_VExplicitOC_HL,2022.2.5,Win32,59.9880024,NA,NA,2.0064,NA,NA,NA,NA,NA,frustrated,"frustrated, not frustrated","more frustrated, less frustrated",NA,NA,NA,NA,NA,NA,NA,NA,NA,NA,NA,NA,NA,NA,NA,NA,NA,NA,NA,NA,NA,NA,NA,NA,NA,NA,NA,NA,NA,NA,NA,NA,NA,NA,NA,NA,NA,NA,0,0,0,1,1,NA,NA,NA,NA,NA
SUPAMT42721,3NC5L260MULQJS1SN0HAJ7B2Y98FOW,0757A9C7-11F0-4765-BB63-41404B22B077,2023-09-29_20h55.27.601,WP_VExplicitOC_HL,2022.2.5,Win32,59.9880024,-100,2.8208,2.016,NA,NA,NA,NA,NA,bored,"bored, not bored","more bored, less bored",NA,NA,NA,NA,NA,NA,NA,NA,NA,NA,NA,NA,NA,NA,NA,NA,NA,NA,NA,NA,NA,NA,NA,NA,NA,NA,NA,NA,NA,NA,NA,NA,NA,NA,NA,NA,NA,NA,0,1,1,2,1,NA,NA,NA,NA,NA
SUPAMT42721,3NC5L260MULQJS1SN0HAJ7B2Y98FOW,0757A9C7-11F0-4765-BB63-41404B22B077,2023-09-29_20h55.27.601,WP_VExplicitOC_HL,2022.2.5,Win32,59.9880024,-28.33332486,3.0535,2.016,NA,NA,NA,NA,NA,happy,"unhappy, happy","less happy, more happy",NA,NA,NA,NA,NA,NA,NA,NA,NA,NA,NA,NA,NA,NA,NA,NA,NA,NA,NA,NA,NA,NA,NA,NA,NA,NA,NA,NA,NA,NA,NA,NA,NA,NA,NA,NA,NA,NA,0,2,2,0,1,NA,NA,NA,NA,NA
SUPAMT42721,3NC5L260MULQJS1SN0HAJ7B2Y98FOW,0757A9C7-11F0-4765-BB63-41404B22B077,2023-09-29_20h55.27.601,WP_VExplicitOC_HL,2022.2.5,Win32,59.9880024,NA,NA,NA,NA,NA,NA,NA,NA,NA,NA,NA,NA,NA,NA,NA,NA,NA,NA,NA,NA,NA,NA,NA,NA,NA,NA,NA,NA,NA,NA,NA,NA,NA,NA,NA,NA,NA,NA,NA,NA,NA,NA,NA,NA,NA,NA,NA,NA,NA,NA,NA,NA,NA,NA,14,0,14,0,1
SUPAMT42721,3NC5L260MULQJS1SN0HAJ7B2Y98FOW,0757A9C7-11F0-4765-BB63-41404B22B077,2023-09-29_20h55.27.601,WP_VExplicitOC_HL,2022.2.5,Win32,59.9880024,NA,NA,NA,NA,NA,NA,NA,NA,NA,NA,NA,NA,NA,NA,NA,NA,NA,NA,NA,NA,NA,NA,NA,NA,NA,NA,NA,NA,NA,NA,NA,NA,NA,NA,NA,NA,NA,NA,NA,NA,NA,NA,NA,NA,NA,NA,NA,NA,NA,NA,NA,NA,NA,NA,NA,NA,NA,NA,NA
