participant,session,completion,date,expName,psychopyVersion,OS,frameRate,rating_all.response,rating_all.rt,rating_all.tStart,rndRat1.thisRepN,rndRat1.thisTrialN,rndRat1.thisN,rndRat1.thisIndex,rndRat1.ran,Emo,Labs,Labs2,rating_alt.response,rating_alt.rt,AltC.thisRepN,AltC.thisTrialN,AltC.thisN,AltC.thisIndex,AltC.ran,alt_choices,pic_choices,TopAlt_Choice,rndRat2.thisRepN,rndRat2.thisTrialN,rndRat2.thisN,rndRat2.thisIndex,rndRat2.ran,rndRat3.thisRepN,rndRat3.thisTrialN,rndRat3.thisN,rndRat3.thisIndex,rndRat3.ran,trials_FC_H.thisRepN,trials_FC_H.thisTrialN,trials_FC_H.thisN,trials_FC_H.thisIndex,trials_FC_H.ran,rating_alt_2.response,rating_alt_2.rt,AltC2.thisRepN,AltC2.thisTrialN,AltC2.thisN,AltC2.thisIndex,AltC2.ran,BottomAlt_Choice,rndRat4.thisRepN,rndRat4.thisTrialN,rndRat4.thisN,rndRat4.thisIndex,rndRat4.ran,rndRat5.thisRepN,rndRat5.thisTrialN,rndRat5.thisN,rndRat5.thisIndex,rndRat5.ran,trials_FC_L.thisRepN,trials_FC_L.thisTrialN,trials_FC_L.thisN,trials_FC_L.thisIndex,trials_FC_L.ran
SUPAMT02660,3TEM0PF1QBW8IRVDU9K956CZN8X0DU,15C5F68E-0536-47B0-91FA-BBECB67682AE,2023-09-26_10h56.35.473,WP_VExplicitOC_HL,2022.2.5,Win32,16.1386634,NA,NA,NA,NA,NA,NA,NA,NA,NA,NA,NA,NA,NA,NA,NA,NA,NA,NA,NA,NA,NA,NA,NA,NA,NA,NA,NA,NA,NA,NA,NA,NA,NA,NA,NA,NA,NA,NA,NA,NA,NA,NA,NA,NA,NA,NA,NA,NA,NA,NA,NA,NA,NA,NA,NA,NA,NA,NA,NA
SUPAMT02660,3TEM0PF1QBW8IRVDU9K956CZN8X0DU,15C5F68E-0536-47B0-91FA-BBECB67682AE,2023-09-26_10h56.35.473,WP_VExplicitOC_HL,2022.2.5,Win32,16.1386634,NA,NA,NA,NA,NA,NA,NA,NA,NA,NA,NA,NA,NA,NA,NA,NA,NA,NA,NA,NA,NA,NA,NA,NA,NA,NA,NA,NA,NA,NA,NA,NA,NA,NA,NA,NA,NA,NA,NA,NA,NA,NA,NA,NA,NA,NA,NA,NA,NA,NA,NA,NA,NA,NA,NA,NA,NA,NA,NA
SUPAMT02660,3TEM0PF1QBW8IRVDU9K956CZN8X0DU,15C5F68E-0536-47B0-91FA-BBECB67682AE,2023-09-26_10h56.35.473,WP_VExplicitOC_HL,2022.2.5,Win32,16.1386634,NA,NA,NA,NA,NA,NA,NA,NA,NA,NA,NA,NA,NA,NA,NA,NA,NA,NA,NA,NA,NA,NA,NA,NA,NA,NA,NA,NA,NA,NA,NA,NA,NA,NA,NA,NA,NA,NA,NA,NA,NA,NA,NA,NA,NA,NA,NA,NA,NA,NA,NA,NA,NA,NA,NA,NA,NA,NA,NA
SUPAMT02660,3TEM0PF1QBW8IRVDU9K956CZN8X0DU,15C5F68E-0536-47B0-91FA-BBECB67682AE,2023-09-26_10h56.35.473,WP_VExplicitOC_HL,2022.2.5,Win32,16.1386634,85.546875,3.7998,2.0122,0,0,0,2,1,bored,"bored, not bored","more bored, less bored",NA,NA,NA,NA,NA,NA,NA,NA,NA,NA,NA,NA,NA,NA,NA,NA,NA,NA,NA,NA,NA,NA,NA,NA,NA,NA,NA,NA,NA,NA,NA,NA,NA,NA,NA,NA,NA,NA,NA,NA,NA,NA,NA,NA,NA,NA,NA,NA
SUPAMT02660,3TEM0PF1QBW8IRVDU9K956CZN8X0DU,15C5F68E-0536-47B0-91FA-BBECB67682AE,2023-09-26_10h56.35.473,WP_VExplicitOC_HL,2022.2.5,Win32,16.1386634,82.421875,3.2865,2.0024,0,1,1,0,1,happy,"unhappy, happy","less happy, more happy",NA,NA,NA,NA,NA,NA,NA,NA,NA,NA,NA,NA,NA,NA,NA,NA,NA,NA,NA,NA,NA,NA,NA,NA,NA,NA,NA,NA,NA,NA,NA,NA,NA,NA,NA,NA,NA,NA,NA,NA,NA,NA,NA,NA,NA,NA,NA,NA
SUPAMT02660,3TEM0PF1QBW8IRVDU9K956CZN8X0DU,15C5F68E-0536-47B0-91FA-BBECB67682AE,2023-09-26_10h56.35.473,WP_VExplicitOC_HL,2022.2.5,Win32,16.1386634,90.4296875,3.982,2.0422,0,2,2,1,1,frustrated,"frustrated, not frustrated","more frustrated, less frustrated",NA,NA,NA,NA,NA,NA,NA,NA,NA,NA,NA,NA,NA,NA,NA,NA,NA,NA,NA,NA,NA,NA,NA,NA,NA,NA,NA,NA,NA,NA,NA,NA,NA,NA,NA,NA,NA,NA,NA,NA,NA,NA,NA,NA,NA,NA,NA,NA
SUPAMT02660,3TEM0PF1QBW8IRVDU9K956CZN8X0DU,15C5F68E-0536-47B0-91FA-BBECB67682AE,2023-09-26_10h56.35.473,WP_VExplicitOC_HL,2022.2.5,Win32,16.1386634,NA,NA,NA,NA,NA,NA,NA,NA,NA,NA,NA,NA,NA,NA,NA,NA,NA,NA,NA,NA,NA,NA,NA,NA,NA,NA,NA,NA,NA,NA,NA,NA,NA,NA,NA,NA,NA,NA,NA,NA,NA,NA,NA,NA,NA,NA,NA,NA,NA,NA,NA,NA,NA,NA,NA,NA,NA,NA,NA
SUPAMT02660,3TEM0PF1QBW8IRVDU9K956CZN8X0DU,15C5F68E-0536-47B0-91FA-BBECB67682AE,2023-09-26_10h56.35.473,WP_VExplicitOC_HL,2022.2.5,Win32,16.1386634,NA,NA,NA,NA,NA,NA,NA,NA,NA,NA,NA,NA,NA,NA,NA,NA,NA,NA,NA,NA,NA,NA,NA,NA,NA,NA,NA,NA,NA,NA,NA,NA,NA,NA,NA,NA,NA,NA,NA,NA,NA,NA,NA,NA,NA,NA,NA,NA,NA,NA,NA,NA,NA,NA,NA,NA,NA,NA,NA
SUPAMT02660,3TEM0PF1QBW8IRVDU9K956CZN8X0DU,15C5F68E-0536-47B0-91FA-BBECB67682AE,2023-09-26_10h56.35.473,WP_VExplicitOC_HL,2022.2.5,Win32,16.1386634,NA,NA,NA,NA,NA,NA,NA,NA,NA,NA,NA,NA,NA,NA,NA,NA,NA,NA,NA,NA,NA,NA,NA,NA,NA,NA,NA,NA,NA,NA,NA,NA,NA,NA,NA,NA,NA,NA,NA,NA,NA,NA,NA,NA,NA,NA,NA,NA,NA,NA,NA,NA,NA,NA,NA,NA,NA,NA,NA
SUPAMT02660,3TEM0PF1QBW8IRVDU9K956CZN8X0DU,15C5F68E-0536-47B0-91FA-BBECB67682AE,2023-09-26_10h56.35.473,WP_VExplicitOC_HL,2022.2.5,Win32,16.1386634,NA,NA,NA,NA,NA,NA,NA,NA,NA,NA,NA,NA,NA,NA,NA,NA,NA,NA,NA,NA,NA,NA,NA,NA,NA,NA,NA,NA,NA,NA,NA,NA,NA,NA,NA,NA,NA,NA,NA,NA,NA,NA,NA,NA,NA,NA,NA,NA,NA,NA,NA,NA,NA,NA,NA,NA,NA,NA,NA
SUPAMT02660,3TEM0PF1QBW8IRVDU9K956CZN8X0DU,15C5F68E-0536-47B0-91FA-BBECB67682AE,2023-09-26_10h56.35.473,WP_VExplicitOC_HL,2022.2.5,Win32,16.1386634,NA,NA,NA,NA,NA,NA,NA,NA,NA,NA,NA,-22.8515625,3.9365,0,0,0,0,1,rest (looking at a fixed cross),001.png,NA,NA,NA,NA,NA,NA,NA,NA,NA,NA,NA,NA,NA,NA,NA,NA,NA,NA,NA,NA,NA,NA,NA,NA,NA,NA,NA,NA,NA,NA,NA,NA,NA,NA,NA,NA,NA,NA,NA
SUPAMT02660,3TEM0PF1QBW8IRVDU9K956CZN8X0DU,15C5F68E-0536-47B0-91FA-BBECB67682AE,2023-09-26_10h56.35.473,WP_VExplicitOC_HL,2022.2.5,Win32,16.1386634,NA,NA,NA,NA,NA,NA,NA,NA,NA,NA,NA,41.015625,1.7365,0,1,1,1,1,stand up,002.png,NA,NA,NA,NA,NA,NA,NA,NA,NA,NA,NA,NA,NA,NA,NA,NA,NA,NA,NA,NA,NA,NA,NA,NA,NA,NA,NA,NA,NA,NA,NA,NA,NA,NA,NA,NA,NA,NA,NA
SUPAMT02660,3TEM0PF1QBW8IRVDU9K956CZN8X0DU,15C5F68E-0536-47B0-91FA-BBECB67682AE,2023-09-26_10h56.35.473,WP_VExplicitOC_HL,2022.2.5,Win32,16.1386634,NA,NA,NA,NA,NA,NA,NA,NA,NA,NA,NA,38.671875,3.1691,0,2,2,2,1,stretch,003.png,NA,NA,NA,NA,NA,NA,NA,NA,NA,NA,NA,NA,NA,NA,NA,NA,NA,NA,NA,NA,NA,NA,NA,NA,NA,NA,NA,NA,NA,NA,NA,NA,NA,NA,NA,NA,NA,NA,NA
SUPAMT02660,3TEM0PF1QBW8IRVDU9K956CZN8X0DU,15C5F68E-0536-47B0-91FA-BBECB67682AE,2023-09-26_10h56.35.473,WP_VExplicitOC_HL,2022.2.5,Win32,16.1386634,NA,NA,NA,NA,NA,NA,NA,NA,NA,NA,NA,91.6015625,1.5563,0,3,3,3,1,make a drink,004.png,NA,NA,NA,NA,NA,NA,NA,NA,NA,NA,NA,NA,NA,NA,NA,NA,NA,NA,NA,NA,NA,NA,NA,NA,NA,NA,NA,NA,NA,NA,NA,NA,NA,NA,NA,NA,NA,NA,NA
SUPAMT02660,3TEM0PF1QBW8IRVDU9K956CZN8X0DU,15C5F68E-0536-47B0-91FA-BBECB67682AE,2023-09-26_10h56.35.473,WP_VExplicitOC_HL,2022.2.5,Win32,16.1386634,NA,NA,NA,NA,NA,NA,NA,NA,NA,NA,NA,82.2265625,1.5126,0,4,4,4,1,scroll social media,005.png,NA,NA,NA,NA,NA,NA,NA,NA,NA,NA,NA,NA,NA,NA,NA,NA,NA,NA,NA,NA,NA,NA,NA,NA,NA,NA,NA,NA,NA,NA,NA,NA,NA,NA,NA,NA,NA,NA,NA
SUPAMT02660,3TEM0PF1QBW8IRVDU9K956CZN8X0DU,15C5F68E-0536-47B0-91FA-BBECB67682AE,2023-09-26_10h56.35.473,WP_VExplicitOC_HL,2022.2.5,Win32,16.1386634,NA,NA,NA,NA,NA,NA,NA,NA,NA,NA,NA,78.3203125,1.8032,0,5,5,5,1,listen to music,006.png,NA,NA,NA,NA,NA,NA,NA,NA,NA,NA,NA,NA,NA,NA,NA,NA,NA,NA,NA,NA,NA,NA,NA,NA,NA,NA,NA,NA,NA,NA,NA,NA,NA,NA,NA,NA,NA,NA,NA
SUPAMT02660,3TEM0PF1QBW8IRVDU9K956CZN8X0DU,15C5F68E-0536-47B0-91FA-BBECB67682AE,2023-09-26_10h56.35.473,WP_VExplicitOC_HL,2022.2.5,Win32,16.1386634,NA,NA,NA,NA,NA,NA,NA,NA,NA,NA,NA,51.953125,2.032,0,6,6,6,1,daydream,007.png,NA,NA,NA,NA,NA,NA,NA,NA,NA,NA,NA,NA,NA,NA,NA,NA,NA,NA,NA,NA,NA,NA,NA,NA,NA,NA,NA,NA,NA,NA,NA,NA,NA,NA,NA,NA,NA,NA,NA
SUPAMT02660,3TEM0PF1QBW8IRVDU9K956CZN8X0DU,15C5F68E-0536-47B0-91FA-BBECB67682AE,2023-09-26_10h56.35.473,WP_VExplicitOC_HL,2022.2.5,Win32,16.1386634,NA,NA,NA,NA,NA,NA,NA,NA,NA,NA,NA,100,1.4769,0,7,7,7,1,watch a short animation,008.png,NA,NA,NA,NA,NA,NA,NA,NA,NA,NA,NA,NA,NA,NA,NA,NA,NA,NA,NA,NA,NA,NA,NA,NA,NA,NA,NA,NA,NA,NA,NA,NA,NA,NA,NA,NA,NA,NA,NA
SUPAMT02660,3TEM0PF1QBW8IRVDU9K956CZN8X0DU,15C5F68E-0536-47B0-91FA-BBECB67682AE,2023-09-26_10h56.35.473,WP_VExplicitOC_HL,2022.2.5,Win32,16.1386634,NA,NA,NA,NA,NA,NA,NA,NA,NA,NA,NA,76.5625,1.8339,0,8,8,8,1,read a novel,009.png,NA,NA,NA,NA,NA,NA,NA,NA,NA,NA,NA,NA,NA,NA,NA,NA,NA,NA,NA,NA,NA,NA,NA,NA,NA,NA,NA,NA,NA,NA,NA,NA,NA,NA,NA,NA,NA,NA,NA
SUPAMT02660,3TEM0PF1QBW8IRVDU9K956CZN8X0DU,15C5F68E-0536-47B0-91FA-BBECB67682AE,2023-09-26_10h56.35.473,WP_VExplicitOC_HL,2022.2.5,Win32,16.1386634,NA,NA,NA,NA,NA,NA,NA,NA,NA,NA,NA,83.984375,1.437,0,9,9,9,1,read the news,010.png,NA,NA,NA,NA,NA,NA,NA,NA,NA,NA,NA,NA,NA,NA,NA,NA,NA,NA,NA,NA,NA,NA,NA,NA,NA,NA,NA,NA,NA,NA,NA,NA,NA,NA,NA,NA,NA,NA,NA
SUPAMT02660,3TEM0PF1QBW8IRVDU9K956CZN8X0DU,15C5F68E-0536-47B0-91FA-BBECB67682AE,2023-09-26_10h56.35.473,WP_VExplicitOC_HL,2022.2.5,Win32,16.1386634,NA,NA,NA,NA,NA,NA,NA,NA,NA,NA,NA,NA,NA,NA,NA,NA,NA,NA,NA,NA,NA,NA,NA,NA,NA,NA,NA,NA,NA,NA,NA,NA,NA,NA,NA,NA,NA,NA,NA,NA,NA,NA,NA,NA,NA,NA,NA,NA,NA,NA,NA,NA,NA,NA,NA,NA,NA,NA,NA
SUPAMT02660,3TEM0PF1QBW8IRVDU9K956CZN8X0DU,15C5F68E-0536-47B0-91FA-BBECB67682AE,2023-09-26_10h56.35.473,WP_VExplicitOC_HL,2022.2.5,Win32,16.1386634,NA,NA,NA,NA,NA,NA,NA,NA,NA,NA,NA,NA,NA,NA,NA,NA,NA,NA,NA,NA,watch a short animation,NA,NA,NA,NA,NA,NA,NA,NA,NA,NA,NA,NA,NA,NA,NA,NA,NA,NA,NA,NA,NA,NA,NA,NA,NA,NA,NA,NA,NA,NA,NA,NA,NA,NA,NA,NA,NA,NA
SUPAMT02660,3TEM0PF1QBW8IRVDU9K956CZN8X0DU,15C5F68E-0536-47B0-91FA-BBECB67682AE,2023-09-26_10h56.35.473,WP_VExplicitOC_HL,2022.2.5,Win32,16.1386634,63.8671875,3.9527,2.0758,NA,NA,NA,NA,NA,happy,"unhappy, happy","less happy, more happy",NA,NA,NA,NA,NA,NA,NA,NA,NA,NA,0,0,0,0,1,NA,NA,NA,NA,NA,NA,NA,NA,NA,NA,NA,NA,NA,NA,NA,NA,NA,NA,NA,NA,NA,NA,NA,NA,NA,NA,NA,NA,NA,NA,NA,NA,NA
SUPAMT02660,3TEM0PF1QBW8IRVDU9K956CZN8X0DU,15C5F68E-0536-47B0-91FA-BBECB67682AE,2023-09-26_10h56.35.473,WP_VExplicitOC_HL,2022.2.5,Win32,16.1386634,60.9375,3.3516,2.0216,NA,NA,NA,NA,NA,frustrated,"frustrated, not frustrated","more frustrated, less frustrated",NA,NA,NA,NA,NA,NA,NA,NA,NA,NA,0,1,1,1,1,NA,NA,NA,NA,NA,NA,NA,NA,NA,NA,NA,NA,NA,NA,NA,NA,NA,NA,NA,NA,NA,NA,NA,NA,NA,NA,NA,NA,NA,NA,NA,NA,NA
SUPAMT02660,3TEM0PF1QBW8IRVDU9K956CZN8X0DU,15C5F68E-0536-47B0-91FA-BBECB67682AE,2023-09-26_10h56.35.473,WP_VExplicitOC_HL,2022.2.5,Win32,16.1386634,58.0078125,4.1682,2.0069,NA,NA,NA,NA,NA,bored,"bored, not bored","more bored, less bored",NA,NA,NA,NA,NA,NA,NA,NA,NA,NA,0,2,2,2,1,NA,NA,NA,NA,NA,NA,NA,NA,NA,NA,NA,NA,NA,NA,NA,NA,NA,NA,NA,NA,NA,NA,NA,NA,NA,NA,NA,NA,NA,NA,NA,NA,NA
SUPAMT02660,3TEM0PF1QBW8IRVDU9K956CZN8X0DU,15C5F68E-0536-47B0-91FA-BBECB67682AE,2023-09-26_10h56.35.473,WP_VExplicitOC_HL,2022.2.5,Win32,16.1386634,NA,NA,NA,NA,NA,NA,NA,NA,NA,NA,NA,NA,NA,NA,NA,NA,NA,NA,NA,NA,NA,NA,NA,NA,NA,NA,NA,NA,NA,NA,NA,NA,NA,NA,NA,NA,NA,NA,NA,NA,NA,NA,NA,NA,NA,NA,NA,NA,NA,NA,NA,NA,NA,NA,NA,NA,NA,NA,NA
SUPAMT02660,3TEM0PF1QBW8IRVDU9K956CZN8X0DU,15C5F68E-0536-47B0-91FA-BBECB67682AE,2023-09-26_10h56.35.473,WP_VExplicitOC_HL,2022.2.5,Win32,16.1386634,NA,NA,NA,NA,NA,NA,NA,NA,NA,NA,NA,NA,NA,NA,NA,NA,NA,NA,NA,NA,NA,NA,NA,NA,NA,NA,NA,NA,NA,NA,NA,NA,NA,NA,NA,NA,NA,NA,NA,NA,NA,NA,NA,NA,NA,NA,NA,NA,NA,NA,NA,NA,NA,NA,NA,NA,NA,NA,NA
SUPAMT02660,3TEM0PF1QBW8IRVDU9K956CZN8X0DU,15C5F68E-0536-47B0-91FA-BBECB67682AE,2023-09-26_10h56.35.473,WP_VExplicitOC_HL,2022.2.5,Win32,16.1386634,65.8203125,4.0629,2.0077,NA,NA,NA,NA,NA,frustrated,"frustrated, not frustrated","more frustrated, less frustrated",NA,NA,NA,NA,NA,NA,NA,NA,NA,NA,NA,NA,NA,NA,NA,0,0,0,1,1,NA,NA,NA,NA,NA,NA,NA,NA,NA,NA,NA,NA,NA,NA,NA,NA,NA,NA,NA,NA,NA,NA,NA,NA,NA,NA,NA,NA
SUPAMT02660,3TEM0PF1QBW8IRVDU9K956CZN8X0DU,15C5F68E-0536-47B0-91FA-BBECB67682AE,2023-09-26_10h56.35.473,WP_VExplicitOC_HL,2022.2.5,Win32,16.1386634,88.671875,3.4107,2.0501,NA,NA,NA,NA,NA,bored,"bored, not bored","more bored, less bored",NA,NA,NA,NA,NA,NA,NA,NA,NA,NA,NA,NA,NA,NA,NA,0,1,1,2,1,NA,NA,NA,NA,NA,NA,NA,NA,NA,NA,NA,NA,NA,NA,NA,NA,NA,NA,NA,NA,NA,NA,NA,NA,NA,NA,NA,NA
SUPAMT02660,3TEM0PF1QBW8IRVDU9K956CZN8X0DU,15C5F68E-0536-47B0-91FA-BBECB67682AE,2023-09-26_10h56.35.473,WP_VExplicitOC_HL,2022.2.5,Win32,16.1386634,80.6640625,3.9405,2.0387,NA,NA,NA,NA,NA,happy,"unhappy, happy","less happy, more happy",NA,NA,NA,NA,NA,NA,NA,NA,NA,NA,NA,NA,NA,NA,NA,0,2,2,0,1,NA,NA,NA,NA,NA,NA,NA,NA,NA,NA,NA,NA,NA,NA,NA,NA,NA,NA,NA,NA,NA,NA,NA,NA,NA,NA,NA,NA
SUPAMT02660,3TEM0PF1QBW8IRVDU9K956CZN8X0DU,15C5F68E-0536-47B0-91FA-BBECB67682AE,2023-09-26_10h56.35.473,WP_VExplicitOC_HL,2022.2.5,Win32,16.1386634,NA,NA,NA,NA,NA,NA,NA,NA,NA,NA,NA,NA,NA,NA,NA,NA,NA,NA,NA,NA,NA,NA,NA,NA,NA,NA,NA,NA,NA,NA,NA,0,0,0,0,1,NA,NA,NA,NA,NA,NA,NA,NA,NA,NA,NA,NA,NA,NA,NA,NA,NA,NA,NA,NA,NA,NA,NA
SUPAMT02660,3TEM0PF1QBW8IRVDU9K956CZN8X0DU,15C5F68E-0536-47B0-91FA-BBECB67682AE,2023-09-26_10h56.35.473,WP_VExplicitOC_HL,2022.2.5,Win32,16.1386634,84.765625,5.7898,2.0381,NA,NA,NA,NA,NA,happy,"unhappy, happy","less happy, more happy",NA,NA,NA,NA,NA,NA,NA,NA,NA,NA,NA,NA,NA,NA,NA,0,0,0,0,1,NA,NA,NA,NA,NA,NA,NA,NA,NA,NA,NA,NA,NA,NA,NA,NA,NA,NA,NA,NA,NA,NA,NA,NA,NA,NA,NA,NA
SUPAMT02660,3TEM0PF1QBW8IRVDU9K956CZN8X0DU,15C5F68E-0536-47B0-91FA-BBECB67682AE,2023-09-26_10h56.35.473,WP_VExplicitOC_HL,2022.2.5,Win32,16.1386634,85.7421875,3.4146,2.0487,NA,NA,NA,NA,NA,frustrated,"frustrated, not frustrated","more frustrated, less frustrated",NA,NA,NA,NA,NA,NA,NA,NA,NA,NA,NA,NA,NA,NA,NA,0,1,1,1,1,NA,NA,NA,NA,NA,NA,NA,NA,NA,NA,NA,NA,NA,NA,NA,NA,NA,NA,NA,NA,NA,NA,NA,NA,NA,NA,NA,NA
SUPAMT02660,3TEM0PF1QBW8IRVDU9K956CZN8X0DU,15C5F68E-0536-47B0-91FA-BBECB67682AE,2023-09-26_10h56.35.473,WP_VExplicitOC_HL,2022.2.5,Win32,16.1386634,93.1640625,3.2688,2.0614,NA,NA,NA,NA,NA,bored,"bored, not bored","more bored, less bored",NA,NA,NA,NA,NA,NA,NA,NA,NA,NA,NA,NA,NA,NA,NA,0,2,2,2,1,NA,NA,NA,NA,NA,NA,NA,NA,NA,NA,NA,NA,NA,NA,NA,NA,NA,NA,NA,NA,NA,NA,NA,NA,NA,NA,NA,NA
SUPAMT02660,3TEM0PF1QBW8IRVDU9K956CZN8X0DU,15C5F68E-0536-47B0-91FA-BBECB67682AE,2023-09-26_10h56.35.473,WP_VExplicitOC_HL,2022.2.5,Win32,16.1386634,NA,NA,NA,NA,NA,NA,NA,NA,NA,NA,NA,NA,NA,NA,NA,NA,NA,NA,NA,NA,NA,NA,NA,NA,NA,NA,NA,NA,NA,NA,NA,1,0,1,0,1,NA,NA,NA,NA,NA,NA,NA,NA,NA,NA,NA,NA,NA,NA,NA,NA,NA,NA,NA,NA,NA,NA,NA
SUPAMT02660,3TEM0PF1QBW8IRVDU9K956CZN8X0DU,15C5F68E-0536-47B0-91FA-BBECB67682AE,2023-09-26_10h56.35.473,WP_VExplicitOC_HL,2022.2.5,Win32,16.1386634,89.0625,4.9554,2.0064,NA,NA,NA,NA,NA,happy,"unhappy, happy","less happy, more happy",NA,NA,NA,NA,NA,NA,NA,NA,NA,NA,NA,NA,NA,NA,NA,0,0,0,0,1,NA,NA,NA,NA,NA,NA,NA,NA,NA,NA,NA,NA,NA,NA,NA,NA,NA,NA,NA,NA,NA,NA,NA,NA,NA,NA,NA,NA
SUPAMT02660,3TEM0PF1QBW8IRVDU9K956CZN8X0DU,15C5F68E-0536-47B0-91FA-BBECB67682AE,2023-09-26_10h56.35.473,WP_VExplicitOC_HL,2022.2.5,Win32,16.1386634,78.125,3.2075,2.0097,NA,NA,NA,NA,NA,bored,"bored, not bored","more bored, less bored",NA,NA,NA,NA,NA,NA,NA,NA,NA,NA,NA,NA,NA,NA,NA,0,1,1,2,1,NA,NA,NA,NA,NA,NA,NA,NA,NA,NA,NA,NA,NA,NA,NA,NA,NA,NA,NA,NA,NA,NA,NA,NA,NA,NA,NA,NA
SUPAMT02660,3TEM0PF1QBW8IRVDU9K956CZN8X0DU,15C5F68E-0536-47B0-91FA-BBECB67682AE,2023-09-26_10h56.35.473,WP_VExplicitOC_HL,2022.2.5,Win32,16.1386634,86.9140625,3.9093,2.0856,NA,NA,NA,NA,NA,frustrated,"frustrated, not frustrated","more frustrated, less frustrated",NA,NA,NA,NA,NA,NA,NA,NA,NA,NA,NA,NA,NA,NA,NA,0,2,2,1,1,NA,NA,NA,NA,NA,NA,NA,NA,NA,NA,NA,NA,NA,NA,NA,NA,NA,NA,NA,NA,NA,NA,NA,NA,NA,NA,NA,NA
SUPAMT02660,3TEM0PF1QBW8IRVDU9K956CZN8X0DU,15C5F68E-0536-47B0-91FA-BBECB67682AE,2023-09-26_10h56.35.473,WP_VExplicitOC_HL,2022.2.5,Win32,16.1386634,NA,NA,NA,NA,NA,NA,NA,NA,NA,NA,NA,NA,NA,NA,NA,NA,NA,NA,NA,NA,NA,NA,NA,NA,NA,NA,NA,NA,NA,NA,NA,2,0,2,0,1,NA,NA,NA,NA,NA,NA,NA,NA,NA,NA,NA,NA,NA,NA,NA,NA,NA,NA,NA,NA,NA,NA,NA
SUPAMT02660,3TEM0PF1QBW8IRVDU9K956CZN8X0DU,15C5F68E-0536-47B0-91FA-BBECB67682AE,2023-09-26_10h56.35.473,WP_VExplicitOC_HL,2022.2.5,Win32,16.1386634,NA,NA,2.0714,NA,NA,NA,NA,NA,bored,"bored, not bored","more bored, less bored",NA,NA,NA,NA,NA,NA,NA,NA,NA,NA,NA,NA,NA,NA,NA,0,0,0,2,1,NA,NA,NA,NA,NA,NA,NA,NA,NA,NA,NA,NA,NA,NA,NA,NA,NA,NA,NA,NA,NA,NA,NA,NA,NA,NA,NA,NA
SUPAMT02660,3TEM0PF1QBW8IRVDU9K956CZN8X0DU,15C5F68E-0536-47B0-91FA-BBECB67682AE,2023-09-26_10h56.35.473,WP_VExplicitOC_HL,2022.2.5,Win32,16.1386634,NA,NA,2.012,NA,NA,NA,NA,NA,frustrated,"frustrated, not frustrated","more frustrated, less frustrated",NA,NA,NA,NA,NA,NA,NA,NA,NA,NA,NA,NA,NA,NA,NA,0,1,1,1,1,NA,NA,NA,NA,NA,NA,NA,NA,NA,NA,NA,NA,NA,NA,NA,NA,NA,NA,NA,NA,NA,NA,NA,NA,NA,NA,NA,NA
SUPAMT02660,3TEM0PF1QBW8IRVDU9K956CZN8X0DU,15C5F68E-0536-47B0-91FA-BBECB67682AE,2023-09-26_10h56.35.473,WP_VExplicitOC_HL,2022.2.5,Win32,16.1386634,89.6484375,3.5787,2.0521,NA,NA,NA,NA,NA,happy,"unhappy, happy","less happy, more happy",NA,NA,NA,NA,NA,NA,NA,NA,NA,NA,NA,NA,NA,NA,NA,0,2,2,0,1,NA,NA,NA,NA,NA,NA,NA,NA,NA,NA,NA,NA,NA,NA,NA,NA,NA,NA,NA,NA,NA,NA,NA,NA,NA,NA,NA,NA
SUPAMT02660,3TEM0PF1QBW8IRVDU9K956CZN8X0DU,15C5F68E-0536-47B0-91FA-BBECB67682AE,2023-09-26_10h56.35.473,WP_VExplicitOC_HL,2022.2.5,Win32,16.1386634,NA,NA,NA,NA,NA,NA,NA,NA,NA,NA,NA,NA,NA,NA,NA,NA,NA,NA,NA,NA,NA,NA,NA,NA,NA,NA,NA,NA,NA,NA,NA,3,0,3,0,1,NA,NA,NA,NA,NA,NA,NA,NA,NA,NA,NA,NA,NA,NA,NA,NA,NA,NA,NA,NA,NA,NA,NA
SUPAMT02660,3TEM0PF1QBW8IRVDU9K956CZN8X0DU,15C5F68E-0536-47B0-91FA-BBECB67682AE,2023-09-26_10h56.35.473,WP_VExplicitOC_HL,2022.2.5,Win32,16.1386634,77.34375,3.7225,2.0171,NA,NA,NA,NA,NA,frustrated,"frustrated, not frustrated","more frustrated, less frustrated",NA,NA,NA,NA,NA,NA,NA,NA,NA,NA,NA,NA,NA,NA,NA,0,0,0,1,1,NA,NA,NA,NA,NA,NA,NA,NA,NA,NA,NA,NA,NA,NA,NA,NA,NA,NA,NA,NA,NA,NA,NA,NA,NA,NA,NA,NA
SUPAMT02660,3TEM0PF1QBW8IRVDU9K956CZN8X0DU,15C5F68E-0536-47B0-91FA-BBECB67682AE,2023-09-26_10h56.35.473,WP_VExplicitOC_HL,2022.2.5,Win32,16.1386634,75.9765625,4.0554,2.0402,NA,NA,NA,NA,NA,happy,"unhappy, happy","less happy, more happy",NA,NA,NA,NA,NA,NA,NA,NA,NA,NA,NA,NA,NA,NA,NA,0,1,1,0,1,NA,NA,NA,NA,NA,NA,NA,NA,NA,NA,NA,NA,NA,NA,NA,NA,NA,NA,NA,NA,NA,NA,NA,NA,NA,NA,NA,NA
SUPAMT02660,3TEM0PF1QBW8IRVDU9K956CZN8X0DU,15C5F68E-0536-47B0-91FA-BBECB67682AE,2023-09-26_10h56.35.473,WP_VExplicitOC_HL,2022.2.5,Win32,16.1386634,81.8359375,3.4271,2.0732,NA,NA,NA,NA,NA,bored,"bored, not bored","more bored, less bored",NA,NA,NA,NA,NA,NA,NA,NA,NA,NA,NA,NA,NA,NA,NA,0,2,2,2,1,NA,NA,NA,NA,NA,NA,NA,NA,NA,NA,NA,NA,NA,NA,NA,NA,NA,NA,NA,NA,NA,NA,NA,NA,NA,NA,NA,NA
SUPAMT02660,3TEM0PF1QBW8IRVDU9K956CZN8X0DU,15C5F68E-0536-47B0-91FA-BBECB67682AE,2023-09-26_10h56.35.473,WP_VExplicitOC_HL,2022.2.5,Win32,16.1386634,NA,NA,NA,NA,NA,NA,NA,NA,NA,NA,NA,NA,NA,NA,NA,NA,NA,NA,NA,NA,NA,NA,NA,NA,NA,NA,NA,NA,NA,NA,NA,4,0,4,0,1,NA,NA,NA,NA,NA,NA,NA,NA,NA,NA,NA,NA,NA,NA,NA,NA,NA,NA,NA,NA,NA,NA,NA
SUPAMT02660,3TEM0PF1QBW8IRVDU9K956CZN8X0DU,15C5F68E-0536-47B0-91FA-BBECB67682AE,2023-09-26_10h56.35.473,WP_VExplicitOC_HL,2022.2.5,Win32,16.1386634,85.3515625,5.1789,2.0787,NA,NA,NA,NA,NA,bored,"bored, not bored","more bored, less bored",NA,NA,NA,NA,NA,NA,NA,NA,NA,NA,NA,NA,NA,NA,NA,0,0,0,2,1,NA,NA,NA,NA,NA,NA,NA,NA,NA,NA,NA,NA,NA,NA,NA,NA,NA,NA,NA,NA,NA,NA,NA,NA,NA,NA,NA,NA
SUPAMT02660,3TEM0PF1QBW8IRVDU9K956CZN8X0DU,15C5F68E-0536-47B0-91FA-BBECB67682AE,2023-09-26_10h56.35.473,WP_VExplicitOC_HL,2022.2.5,Win32,16.1386634,74.0234375,3.5895,2.0128,NA,NA,NA,NA,NA,frustrated,"frustrated, not frustrated","more frustrated, less frustrated",NA,NA,NA,NA,NA,NA,NA,NA,NA,NA,NA,NA,NA,NA,NA,0,1,1,1,1,NA,NA,NA,NA,NA,NA,NA,NA,NA,NA,NA,NA,NA,NA,NA,NA,NA,NA,NA,NA,NA,NA,NA,NA,NA,NA,NA,NA
SUPAMT02660,3TEM0PF1QBW8IRVDU9K956CZN8X0DU,15C5F68E-0536-47B0-91FA-BBECB67682AE,2023-09-26_10h56.35.473,WP_VExplicitOC_HL,2022.2.5,Win32,16.1386634,100,3.2582,2.0149,NA,NA,NA,NA,NA,happy,"unhappy, happy","less happy, more happy",NA,NA,NA,NA,NA,NA,NA,NA,NA,NA,NA,NA,NA,NA,NA,0,2,2,0,1,NA,NA,NA,NA,NA,NA,NA,NA,NA,NA,NA,NA,NA,NA,NA,NA,NA,NA,NA,NA,NA,NA,NA,NA,NA,NA,NA,NA
SUPAMT02660,3TEM0PF1QBW8IRVDU9K956CZN8X0DU,15C5F68E-0536-47B0-91FA-BBECB67682AE,2023-09-26_10h56.35.473,WP_VExplicitOC_HL,2022.2.5,Win32,16.1386634,NA,NA,NA,NA,NA,NA,NA,NA,NA,NA,NA,NA,NA,NA,NA,NA,NA,NA,NA,NA,NA,NA,NA,NA,NA,NA,NA,NA,NA,NA,NA,5,0,5,0,1,NA,NA,NA,NA,NA,NA,NA,NA,NA,NA,NA,NA,NA,NA,NA,NA,NA,NA,NA,NA,NA,NA,NA
SUPAMT02660,3TEM0PF1QBW8IRVDU9K956CZN8X0DU,15C5F68E-0536-47B0-91FA-BBECB67682AE,2023-09-26_10h56.35.473,WP_VExplicitOC_HL,2022.2.5,Win32,16.1386634,84.5703125,3.6902,2.0543,NA,NA,NA,NA,NA,happy,"unhappy, happy","less happy, more happy",NA,NA,NA,NA,NA,NA,NA,NA,NA,NA,NA,NA,NA,NA,NA,0,0,0,0,1,NA,NA,NA,NA,NA,NA,NA,NA,NA,NA,NA,NA,NA,NA,NA,NA,NA,NA,NA,NA,NA,NA,NA,NA,NA,NA,NA,NA
SUPAMT02660,3TEM0PF1QBW8IRVDU9K956CZN8X0DU,15C5F68E-0536-47B0-91FA-BBECB67682AE,2023-09-26_10h56.35.473,WP_VExplicitOC_HL,2022.2.5,Win32,16.1386634,83.3984375,4.0521,2.0674,NA,NA,NA,NA,NA,frustrated,"frustrated, not frustrated","more frustrated, less frustrated",NA,NA,NA,NA,NA,NA,NA,NA,NA,NA,NA,NA,NA,NA,NA,0,1,1,1,1,NA,NA,NA,NA,NA,NA,NA,NA,NA,NA,NA,NA,NA,NA,NA,NA,NA,NA,NA,NA,NA,NA,NA,NA,NA,NA,NA,NA
SUPAMT02660,3TEM0PF1QBW8IRVDU9K956CZN8X0DU,15C5F68E-0536-47B0-91FA-BBECB67682AE,2023-09-26_10h56.35.473,WP_VExplicitOC_HL,2022.2.5,Win32,16.1386634,97.8515625,4.1267,2.0311,NA,NA,NA,NA,NA,bored,"bored, not bored","more bored, less bored",NA,NA,NA,NA,NA,NA,NA,NA,NA,NA,NA,NA,NA,NA,NA,0,2,2,2,1,NA,NA,NA,NA,NA,NA,NA,NA,NA,NA,NA,NA,NA,NA,NA,NA,NA,NA,NA,NA,NA,NA,NA,NA,NA,NA,NA,NA
SUPAMT02660,3TEM0PF1QBW8IRVDU9K956CZN8X0DU,15C5F68E-0536-47B0-91FA-BBECB67682AE,2023-09-26_10h56.35.473,WP_VExplicitOC_HL,2022.2.5,Win32,16.1386634,NA,NA,NA,NA,NA,NA,NA,NA,NA,NA,NA,NA,NA,NA,NA,NA,NA,NA,NA,NA,NA,NA,NA,NA,NA,NA,NA,NA,NA,NA,NA,6,0,6,0,1,NA,NA,NA,NA,NA,NA,NA,NA,NA,NA,NA,NA,NA,NA,NA,NA,NA,NA,NA,NA,NA,NA,NA
SUPAMT02660,3TEM0PF1QBW8IRVDU9K956CZN8X0DU,15C5F68E-0536-47B0-91FA-BBECB67682AE,2023-09-26_10h56.35.473,WP_VExplicitOC_HL,2022.2.5,Win32,16.1386634,73.828125,5.6612,2.0802,NA,NA,NA,NA,NA,happy,"unhappy, happy","less happy, more happy",NA,NA,NA,NA,NA,NA,NA,NA,NA,NA,NA,NA,NA,NA,NA,0,0,0,0,1,NA,NA,NA,NA,NA,NA,NA,NA,NA,NA,NA,NA,NA,NA,NA,NA,NA,NA,NA,NA,NA,NA,NA,NA,NA,NA,NA,NA
SUPAMT02660,3TEM0PF1QBW8IRVDU9K956CZN8X0DU,15C5F68E-0536-47B0-91FA-BBECB67682AE,2023-09-26_10h56.35.473,WP_VExplicitOC_HL,2022.2.5,Win32,16.1386634,80.46875,3.4227,2.0222,NA,NA,NA,NA,NA,frustrated,"frustrated, not frustrated","more frustrated, less frustrated",NA,NA,NA,NA,NA,NA,NA,NA,NA,NA,NA,NA,NA,NA,NA,0,1,1,1,1,NA,NA,NA,NA,NA,NA,NA,NA,NA,NA,NA,NA,NA,NA,NA,NA,NA,NA,NA,NA,NA,NA,NA,NA,NA,NA,NA,NA
SUPAMT02660,3TEM0PF1QBW8IRVDU9K956CZN8X0DU,15C5F68E-0536-47B0-91FA-BBECB67682AE,2023-09-26_10h56.35.473,WP_VExplicitOC_HL,2022.2.5,Win32,16.1386634,80.6640625,3.8379,2.0677,NA,NA,NA,NA,NA,bored,"bored, not bored","more bored, less bored",NA,NA,NA,NA,NA,NA,NA,NA,NA,NA,NA,NA,NA,NA,NA,0,2,2,2,1,NA,NA,NA,NA,NA,NA,NA,NA,NA,NA,NA,NA,NA,NA,NA,NA,NA,NA,NA,NA,NA,NA,NA,NA,NA,NA,NA,NA
SUPAMT02660,3TEM0PF1QBW8IRVDU9K956CZN8X0DU,15C5F68E-0536-47B0-91FA-BBECB67682AE,2023-09-26_10h56.35.473,WP_VExplicitOC_HL,2022.2.5,Win32,16.1386634,NA,NA,NA,NA,NA,NA,NA,NA,NA,NA,NA,NA,NA,NA,NA,NA,NA,NA,NA,NA,NA,NA,NA,NA,NA,NA,NA,NA,NA,NA,NA,7,0,7,0,1,NA,NA,NA,NA,NA,NA,NA,NA,NA,NA,NA,NA,NA,NA,NA,NA,NA,NA,NA,NA,NA,NA,NA
SUPAMT02660,3TEM0PF1QBW8IRVDU9K956CZN8X0DU,15C5F68E-0536-47B0-91FA-BBECB67682AE,2023-09-26_10h56.35.473,WP_VExplicitOC_HL,2022.2.5,Win32,16.1386634,79.4921875,3.5264,2.0151,NA,NA,NA,NA,NA,happy,"unhappy, happy","less happy, more happy",NA,NA,NA,NA,NA,NA,NA,NA,NA,NA,NA,NA,NA,NA,NA,0,0,0,0,1,NA,NA,NA,NA,NA,NA,NA,NA,NA,NA,NA,NA,NA,NA,NA,NA,NA,NA,NA,NA,NA,NA,NA,NA,NA,NA,NA,NA
SUPAMT02660,3TEM0PF1QBW8IRVDU9K956CZN8X0DU,15C5F68E-0536-47B0-91FA-BBECB67682AE,2023-09-26_10h56.35.473,WP_VExplicitOC_HL,2022.2.5,Win32,16.1386634,100,4.1268,2.0758,NA,NA,NA,NA,NA,bored,"bored, not bored","more bored, less bored",NA,NA,NA,NA,NA,NA,NA,NA,NA,NA,NA,NA,NA,NA,NA,0,1,1,2,1,NA,NA,NA,NA,NA,NA,NA,NA,NA,NA,NA,NA,NA,NA,NA,NA,NA,NA,NA,NA,NA,NA,NA,NA,NA,NA,NA,NA
SUPAMT02660,3TEM0PF1QBW8IRVDU9K956CZN8X0DU,15C5F68E-0536-47B0-91FA-BBECB67682AE,2023-09-26_10h56.35.473,WP_VExplicitOC_HL,2022.2.5,Win32,16.1386634,74.609375,3.4498,2.0072,NA,NA,NA,NA,NA,frustrated,"frustrated, not frustrated","more frustrated, less frustrated",NA,NA,NA,NA,NA,NA,NA,NA,NA,NA,NA,NA,NA,NA,NA,0,2,2,1,1,NA,NA,NA,NA,NA,NA,NA,NA,NA,NA,NA,NA,NA,NA,NA,NA,NA,NA,NA,NA,NA,NA,NA,NA,NA,NA,NA,NA
SUPAMT02660,3TEM0PF1QBW8IRVDU9K956CZN8X0DU,15C5F68E-0536-47B0-91FA-BBECB67682AE,2023-09-26_10h56.35.473,WP_VExplicitOC_HL,2022.2.5,Win32,16.1386634,NA,NA,NA,NA,NA,NA,NA,NA,NA,NA,NA,NA,NA,NA,NA,NA,NA,NA,NA,NA,NA,NA,NA,NA,NA,NA,NA,NA,NA,NA,NA,8,0,8,0,1,NA,NA,NA,NA,NA,NA,NA,NA,NA,NA,NA,NA,NA,NA,NA,NA,NA,NA,NA,NA,NA,NA,NA
SUPAMT02660,3TEM0PF1QBW8IRVDU9K956CZN8X0DU,15C5F68E-0536-47B0-91FA-BBECB67682AE,2023-09-26_10h56.35.473,WP_VExplicitOC_HL,2022.2.5,Win32,16.1386634,NA,NA,2.0564,NA,NA,NA,NA,NA,frustrated,"frustrated, not frustrated","more frustrated, less frustrated",NA,NA,NA,NA,NA,NA,NA,NA,NA,NA,NA,NA,NA,NA,NA,0,0,0,1,1,NA,NA,NA,NA,NA,NA,NA,NA,NA,NA,NA,NA,NA,NA,NA,NA,NA,NA,NA,NA,NA,NA,NA,NA,NA,NA,NA,NA
SUPAMT02660,3TEM0PF1QBW8IRVDU9K956CZN8X0DU,15C5F68E-0536-47B0-91FA-BBECB67682AE,2023-09-26_10h56.35.473,WP_VExplicitOC_HL,2022.2.5,Win32,16.1386634,70.1171875,3.7066,2.0375,NA,NA,NA,NA,NA,happy,"unhappy, happy","less happy, more happy",NA,NA,NA,NA,NA,NA,NA,NA,NA,NA,NA,NA,NA,NA,NA,0,1,1,0,1,NA,NA,NA,NA,NA,NA,NA,NA,NA,NA,NA,NA,NA,NA,NA,NA,NA,NA,NA,NA,NA,NA,NA,NA,NA,NA,NA,NA
SUPAMT02660,3TEM0PF1QBW8IRVDU9K956CZN8X0DU,15C5F68E-0536-47B0-91FA-BBECB67682AE,2023-09-26_10h56.35.473,WP_VExplicitOC_HL,2022.2.5,Win32,16.1386634,59.765625,3.7526,2.0118,NA,NA,NA,NA,NA,bored,"bored, not bored","more bored, less bored",NA,NA,NA,NA,NA,NA,NA,NA,NA,NA,NA,NA,NA,NA,NA,0,2,2,2,1,NA,NA,NA,NA,NA,NA,NA,NA,NA,NA,NA,NA,NA,NA,NA,NA,NA,NA,NA,NA,NA,NA,NA,NA,NA,NA,NA,NA
SUPAMT02660,3TEM0PF1QBW8IRVDU9K956CZN8X0DU,15C5F68E-0536-47B0-91FA-BBECB67682AE,2023-09-26_10h56.35.473,WP_VExplicitOC_HL,2022.2.5,Win32,16.1386634,NA,NA,NA,NA,NA,NA,NA,NA,NA,NA,NA,NA,NA,NA,NA,NA,NA,NA,NA,NA,NA,NA,NA,NA,NA,NA,NA,NA,NA,NA,NA,9,0,9,0,1,NA,NA,NA,NA,NA,NA,NA,NA,NA,NA,NA,NA,NA,NA,NA,NA,NA,NA,NA,NA,NA,NA,NA
SUPAMT02660,3TEM0PF1QBW8IRVDU9K956CZN8X0DU,15C5F68E-0536-47B0-91FA-BBECB67682AE,2023-09-26_10h56.35.473,WP_VExplicitOC_HL,2022.2.5,Win32,16.1386634,75.5859375,4.1583,2.039,NA,NA,NA,NA,NA,bored,"bored, not bored","more bored, less bored",NA,NA,NA,NA,NA,NA,NA,NA,NA,NA,NA,NA,NA,NA,NA,0,0,0,2,1,NA,NA,NA,NA,NA,NA,NA,NA,NA,NA,NA,NA,NA,NA,NA,NA,NA,NA,NA,NA,NA,NA,NA,NA,NA,NA,NA,NA
SUPAMT02660,3TEM0PF1QBW8IRVDU9K956CZN8X0DU,15C5F68E-0536-47B0-91FA-BBECB67682AE,2023-09-26_10h56.35.473,WP_VExplicitOC_HL,2022.2.5,Win32,16.1386634,75.1953125,3.6427,2.0181,NA,NA,NA,NA,NA,frustrated,"frustrated, not frustrated","more frustrated, less frustrated",NA,NA,NA,NA,NA,NA,NA,NA,NA,NA,NA,NA,NA,NA,NA,0,1,1,1,1,NA,NA,NA,NA,NA,NA,NA,NA,NA,NA,NA,NA,NA,NA,NA,NA,NA,NA,NA,NA,NA,NA,NA,NA,NA,NA,NA,NA
SUPAMT02660,3TEM0PF1QBW8IRVDU9K956CZN8X0DU,15C5F68E-0536-47B0-91FA-BBECB67682AE,2023-09-26_10h56.35.473,WP_VExplicitOC_HL,2022.2.5,Win32,16.1386634,78.3203125,3.8078,2.054,NA,NA,NA,NA,NA,happy,"unhappy, happy","less happy, more happy",NA,NA,NA,NA,NA,NA,NA,NA,NA,NA,NA,NA,NA,NA,NA,0,2,2,0,1,NA,NA,NA,NA,NA,NA,NA,NA,NA,NA,NA,NA,NA,NA,NA,NA,NA,NA,NA,NA,NA,NA,NA,NA,NA,NA,NA,NA
SUPAMT02660,3TEM0PF1QBW8IRVDU9K956CZN8X0DU,15C5F68E-0536-47B0-91FA-BBECB67682AE,2023-09-26_10h56.35.473,WP_VExplicitOC_HL,2022.2.5,Win32,16.1386634,NA,NA,NA,NA,NA,NA,NA,NA,NA,NA,NA,NA,NA,NA,NA,NA,NA,NA,NA,NA,NA,NA,NA,NA,NA,NA,NA,NA,NA,NA,NA,10,0,10,0,1,NA,NA,NA,NA,NA,NA,NA,NA,NA,NA,NA,NA,NA,NA,NA,NA,NA,NA,NA,NA,NA,NA,NA
SUPAMT02660,3TEM0PF1QBW8IRVDU9K956CZN8X0DU,15C5F68E-0536-47B0-91FA-BBECB67682AE,2023-09-26_10h56.35.473,WP_VExplicitOC_HL,2022.2.5,Win32,16.1386634,88.4765625,5.455,2.0035,NA,NA,NA,NA,NA,bored,"bored, not bored","more bored, less bored",NA,NA,NA,NA,NA,NA,NA,NA,NA,NA,NA,NA,NA,NA,NA,0,0,0,2,1,NA,NA,NA,NA,NA,NA,NA,NA,NA,NA,NA,NA,NA,NA,NA,NA,NA,NA,NA,NA,NA,NA,NA,NA,NA,NA,NA,NA
SUPAMT02660,3TEM0PF1QBW8IRVDU9K956CZN8X0DU,15C5F68E-0536-47B0-91FA-BBECB67682AE,2023-09-26_10h56.35.473,WP_VExplicitOC_HL,2022.2.5,Win32,16.1386634,79.4921875,3.632,2.0842,NA,NA,NA,NA,NA,happy,"unhappy, happy","less happy, more happy",NA,NA,NA,NA,NA,NA,NA,NA,NA,NA,NA,NA,NA,NA,NA,0,1,1,0,1,NA,NA,NA,NA,NA,NA,NA,NA,NA,NA,NA,NA,NA,NA,NA,NA,NA,NA,NA,NA,NA,NA,NA,NA,NA,NA,NA,NA
SUPAMT02660,3TEM0PF1QBW8IRVDU9K956CZN8X0DU,15C5F68E-0536-47B0-91FA-BBECB67682AE,2023-09-26_10h56.35.473,WP_VExplicitOC_HL,2022.2.5,Win32,16.1386634,87.109375,3.5112,2.036,NA,NA,NA,NA,NA,frustrated,"frustrated, not frustrated","more frustrated, less frustrated",NA,NA,NA,NA,NA,NA,NA,NA,NA,NA,NA,NA,NA,NA,NA,0,2,2,1,1,NA,NA,NA,NA,NA,NA,NA,NA,NA,NA,NA,NA,NA,NA,NA,NA,NA,NA,NA,NA,NA,NA,NA,NA,NA,NA,NA,NA
SUPAMT02660,3TEM0PF1QBW8IRVDU9K956CZN8X0DU,15C5F68E-0536-47B0-91FA-BBECB67682AE,2023-09-26_10h56.35.473,WP_VExplicitOC_HL,2022.2.5,Win32,16.1386634,NA,NA,NA,NA,NA,NA,NA,NA,NA,NA,NA,NA,NA,NA,NA,NA,NA,NA,NA,NA,NA,NA,NA,NA,NA,NA,NA,NA,NA,NA,NA,11,0,11,0,1,NA,NA,NA,NA,NA,NA,NA,NA,NA,NA,NA,NA,NA,NA,NA,NA,NA,NA,NA,NA,NA,NA,NA
SUPAMT02660,3TEM0PF1QBW8IRVDU9K956CZN8X0DU,15C5F68E-0536-47B0-91FA-BBECB67682AE,2023-09-26_10h56.35.473,WP_VExplicitOC_HL,2022.2.5,Win32,16.1386634,75.78125,3.6622,2.0382,NA,NA,NA,NA,NA,happy,"unhappy, happy","less happy, more happy",NA,NA,NA,NA,NA,NA,NA,NA,NA,NA,NA,NA,NA,NA,NA,0,0,0,0,1,NA,NA,NA,NA,NA,NA,NA,NA,NA,NA,NA,NA,NA,NA,NA,NA,NA,NA,NA,NA,NA,NA,NA,NA,NA,NA,NA,NA
SUPAMT02660,3TEM0PF1QBW8IRVDU9K956CZN8X0DU,15C5F68E-0536-47B0-91FA-BBECB67682AE,2023-09-26_10h56.35.473,WP_VExplicitOC_HL,2022.2.5,Win32,16.1386634,68.75,4.3697,2.0706,NA,NA,NA,NA,NA,bored,"bored, not bored","more bored, less bored",NA,NA,NA,NA,NA,NA,NA,NA,NA,NA,NA,NA,NA,NA,NA,0,1,1,2,1,NA,NA,NA,NA,NA,NA,NA,NA,NA,NA,NA,NA,NA,NA,NA,NA,NA,NA,NA,NA,NA,NA,NA,NA,NA,NA,NA,NA
SUPAMT02660,3TEM0PF1QBW8IRVDU9K956CZN8X0DU,15C5F68E-0536-47B0-91FA-BBECB67682AE,2023-09-26_10h56.35.473,WP_VExplicitOC_HL,2022.2.5,Win32,16.1386634,75,5.4024,2.0274,NA,NA,NA,NA,NA,frustrated,"frustrated, not frustrated","more frustrated, less frustrated",NA,NA,NA,NA,NA,NA,NA,NA,NA,NA,NA,NA,NA,NA,NA,0,2,2,1,1,NA,NA,NA,NA,NA,NA,NA,NA,NA,NA,NA,NA,NA,NA,NA,NA,NA,NA,NA,NA,NA,NA,NA,NA,NA,NA,NA,NA
SUPAMT02660,3TEM0PF1QBW8IRVDU9K956CZN8X0DU,15C5F68E-0536-47B0-91FA-BBECB67682AE,2023-09-26_10h56.35.473,WP_VExplicitOC_HL,2022.2.5,Win32,16.1386634,NA,NA,NA,NA,NA,NA,NA,NA,NA,NA,NA,NA,NA,NA,NA,NA,NA,NA,NA,NA,NA,NA,NA,NA,NA,NA,NA,NA,NA,NA,NA,12,0,12,0,1,NA,NA,NA,NA,NA,NA,NA,NA,NA,NA,NA,NA,NA,NA,NA,NA,NA,NA,NA,NA,NA,NA,NA
SUPAMT02660,3TEM0PF1QBW8IRVDU9K956CZN8X0DU,15C5F68E-0536-47B0-91FA-BBECB67682AE,2023-09-26_10h56.35.473,WP_VExplicitOC_HL,2022.2.5,Win32,16.1386634,56.0546875,3.6951,2.0766,NA,NA,NA,NA,NA,bored,"bored, not bored","more bored, less bored",NA,NA,NA,NA,NA,NA,NA,NA,NA,NA,NA,NA,NA,NA,NA,0,0,0,2,1,NA,NA,NA,NA,NA,NA,NA,NA,NA,NA,NA,NA,NA,NA,NA,NA,NA,NA,NA,NA,NA,NA,NA,NA,NA,NA,NA,NA
SUPAMT02660,3TEM0PF1QBW8IRVDU9K956CZN8X0DU,15C5F68E-0536-47B0-91FA-BBECB67682AE,2023-09-26_10h56.35.473,WP_VExplicitOC_HL,2022.2.5,Win32,16.1386634,60.7421875,3.883,2.0163,NA,NA,NA,NA,NA,happy,"unhappy, happy","less happy, more happy",NA,NA,NA,NA,NA,NA,NA,NA,NA,NA,NA,NA,NA,NA,NA,0,1,1,0,1,NA,NA,NA,NA,NA,NA,NA,NA,NA,NA,NA,NA,NA,NA,NA,NA,NA,NA,NA,NA,NA,NA,NA,NA,NA,NA,NA,NA
SUPAMT02660,3TEM0PF1QBW8IRVDU9K956CZN8X0DU,15C5F68E-0536-47B0-91FA-BBECB67682AE,2023-09-26_10h56.35.473,WP_VExplicitOC_HL,2022.2.5,Win32,16.1386634,63.28125,4.9746,2.0903,NA,NA,NA,NA,NA,frustrated,"frustrated, not frustrated","more frustrated, less frustrated",NA,NA,NA,NA,NA,NA,NA,NA,NA,NA,NA,NA,NA,NA,NA,0,2,2,1,1,NA,NA,NA,NA,NA,NA,NA,NA,NA,NA,NA,NA,NA,NA,NA,NA,NA,NA,NA,NA,NA,NA,NA,NA,NA,NA,NA,NA
SUPAMT02660,3TEM0PF1QBW8IRVDU9K956CZN8X0DU,15C5F68E-0536-47B0-91FA-BBECB67682AE,2023-09-26_10h56.35.473,WP_VExplicitOC_HL,2022.2.5,Win32,16.1386634,NA,NA,NA,NA,NA,NA,NA,NA,NA,NA,NA,NA,NA,NA,NA,NA,NA,NA,NA,NA,NA,NA,NA,NA,NA,NA,NA,NA,NA,NA,NA,13,0,13,0,1,NA,NA,NA,NA,NA,NA,NA,NA,NA,NA,NA,NA,NA,NA,NA,NA,NA,NA,NA,NA,NA,NA,NA
SUPAMT02660,3TEM0PF1QBW8IRVDU9K956CZN8X0DU,15C5F68E-0536-47B0-91FA-BBECB67682AE,2023-09-26_10h56.35.473,WP_VExplicitOC_HL,2022.2.5,Win32,16.1386634,70.703125,5.0155,2.0355,NA,NA,NA,NA,NA,happy,"unhappy, happy","less happy, more happy",NA,NA,NA,NA,NA,NA,NA,NA,NA,NA,NA,NA,NA,NA,NA,0,0,0,0,1,NA,NA,NA,NA,NA,NA,NA,NA,NA,NA,NA,NA,NA,NA,NA,NA,NA,NA,NA,NA,NA,NA,NA,NA,NA,NA,NA,NA
SUPAMT02660,3TEM0PF1QBW8IRVDU9K956CZN8X0DU,15C5F68E-0536-47B0-91FA-BBECB67682AE,2023-09-26_10h56.35.473,WP_VExplicitOC_HL,2022.2.5,Win32,16.1386634,67.1875,4.7238,2.0427,NA,NA,NA,NA,NA,frustrated,"frustrated, not frustrated","more frustrated, less frustrated",NA,NA,NA,NA,NA,NA,NA,NA,NA,NA,NA,NA,NA,NA,NA,0,1,1,1,1,NA,NA,NA,NA,NA,NA,NA,NA,NA,NA,NA,NA,NA,NA,NA,NA,NA,NA,NA,NA,NA,NA,NA,NA,NA,NA,NA,NA
SUPAMT02660,3TEM0PF1QBW8IRVDU9K956CZN8X0DU,15C5F68E-0536-47B0-91FA-BBECB67682AE,2023-09-26_10h56.35.473,WP_VExplicitOC_HL,2022.2.5,Win32,16.1386634,66.796875,3.689,2.0592,NA,NA,NA,NA,NA,bored,"bored, not bored","more bored, less bored",NA,NA,NA,NA,NA,NA,NA,NA,NA,NA,NA,NA,NA,NA,NA,0,2,2,2,1,NA,NA,NA,NA,NA,NA,NA,NA,NA,NA,NA,NA,NA,NA,NA,NA,NA,NA,NA,NA,NA,NA,NA,NA,NA,NA,NA,NA
SUPAMT02660,3TEM0PF1QBW8IRVDU9K956CZN8X0DU,15C5F68E-0536-47B0-91FA-BBECB67682AE,2023-09-26_10h56.35.473,WP_VExplicitOC_HL,2022.2.5,Win32,16.1386634,NA,NA,NA,NA,NA,NA,NA,NA,NA,NA,NA,NA,NA,NA,NA,NA,NA,NA,NA,NA,NA,NA,NA,NA,NA,NA,NA,NA,NA,NA,NA,14,0,14,0,1,NA,NA,NA,NA,NA,NA,NA,NA,NA,NA,NA,NA,NA,NA,NA,NA,NA,NA,NA,NA,NA,NA,NA
SUPAMT02660,3TEM0PF1QBW8IRVDU9K956CZN8X0DU,15C5F68E-0536-47B0-91FA-BBECB67682AE,2023-09-26_10h56.35.473,WP_VExplicitOC_HL,2022.2.5,Win32,16.1386634,NA,NA,NA,NA,NA,NA,NA,NA,NA,NA,NA,NA,NA,NA,NA,NA,NA,NA,NA,NA,NA,NA,NA,NA,NA,NA,NA,NA,NA,NA,NA,NA,NA,NA,NA,NA,NA,NA,NA,NA,NA,NA,NA,NA,NA,NA,NA,NA,NA,NA,NA,NA,NA,NA,NA,NA,NA,NA,NA
SUPAMT02660,3TEM0PF1QBW8IRVDU9K956CZN8X0DU,15C5F68E-0536-47B0-91FA-BBECB67682AE,2023-09-26_10h56.35.473,WP_VExplicitOC_HL,2022.2.5,Win32,16.1386634,NA,NA,NA,NA,NA,NA,NA,NA,NA,NA,NA,NA,NA,NA,NA,NA,NA,NA,NA,NA,NA,NA,NA,NA,NA,NA,NA,NA,NA,NA,NA,NA,NA,NA,NA,NA,NA,NA,NA,NA,NA,NA,NA,NA,NA,NA,NA,NA,NA,NA,NA,NA,NA,NA,NA,NA,NA,NA,NA
SUPAMT02660,3TEM0PF1QBW8IRVDU9K956CZN8X0DU,15C5F68E-0536-47B0-91FA-BBECB67682AE,2023-09-26_10h56.35.473,WP_VExplicitOC_HL,2022.2.5,Win32,16.1386634,NA,NA,NA,NA,NA,NA,NA,NA,NA,NA,NA,NA,NA,NA,NA,NA,NA,NA,rest (looking at a fixed cross),001.png,NA,NA,NA,NA,NA,NA,NA,NA,NA,NA,NA,NA,NA,NA,NA,NA,30.6640625,2.0133,0,0,0,0,1,NA,NA,NA,NA,NA,NA,NA,NA,NA,NA,NA,NA,NA,NA,NA,NA
SUPAMT02660,3TEM0PF1QBW8IRVDU9K956CZN8X0DU,15C5F68E-0536-47B0-91FA-BBECB67682AE,2023-09-26_10h56.35.473,WP_VExplicitOC_HL,2022.2.5,Win32,16.1386634,NA,NA,NA,NA,NA,NA,NA,NA,NA,NA,NA,NA,NA,NA,NA,NA,NA,NA,stand up,002.png,NA,NA,NA,NA,NA,NA,NA,NA,NA,NA,NA,NA,NA,NA,NA,NA,50.78125,1.351,0,1,1,1,1,NA,NA,NA,NA,NA,NA,NA,NA,NA,NA,NA,NA,NA,NA,NA,NA
SUPAMT02660,3TEM0PF1QBW8IRVDU9K956CZN8X0DU,15C5F68E-0536-47B0-91FA-BBECB67682AE,2023-09-26_10h56.35.473,WP_VExplicitOC_HL,2022.2.5,Win32,16.1386634,NA,NA,NA,NA,NA,NA,NA,NA,NA,NA,NA,NA,NA,NA,NA,NA,NA,NA,stretch,003.png,NA,NA,NA,NA,NA,NA,NA,NA,NA,NA,NA,NA,NA,NA,NA,NA,60.3515625,1.5671,0,2,2,2,1,NA,NA,NA,NA,NA,NA,NA,NA,NA,NA,NA,NA,NA,NA,NA,NA
SUPAMT02660,3TEM0PF1QBW8IRVDU9K956CZN8X0DU,15C5F68E-0536-47B0-91FA-BBECB67682AE,2023-09-26_10h56.35.473,WP_VExplicitOC_HL,2022.2.5,Win32,16.1386634,NA,NA,NA,NA,NA,NA,NA,NA,NA,NA,NA,NA,NA,NA,NA,NA,NA,NA,make a drink,004.png,NA,NA,NA,NA,NA,NA,NA,NA,NA,NA,NA,NA,NA,NA,NA,NA,45.8984375,1.3744,0,3,3,3,1,NA,NA,NA,NA,NA,NA,NA,NA,NA,NA,NA,NA,NA,NA,NA,NA
SUPAMT02660,3TEM0PF1QBW8IRVDU9K956CZN8X0DU,15C5F68E-0536-47B0-91FA-BBECB67682AE,2023-09-26_10h56.35.473,WP_VExplicitOC_HL,2022.2.5,Win32,16.1386634,NA,NA,NA,NA,NA,NA,NA,NA,NA,NA,NA,NA,NA,NA,NA,NA,NA,NA,scroll social media,005.png,NA,NA,NA,NA,NA,NA,NA,NA,NA,NA,NA,NA,NA,NA,NA,NA,65.8203125,1.4546,0,4,4,4,1,NA,NA,NA,NA,NA,NA,NA,NA,NA,NA,NA,NA,NA,NA,NA,NA
SUPAMT02660,3TEM0PF1QBW8IRVDU9K956CZN8X0DU,15C5F68E-0536-47B0-91FA-BBECB67682AE,2023-09-26_10h56.35.473,WP_VExplicitOC_HL,2022.2.5,Win32,16.1386634,NA,NA,NA,NA,NA,NA,NA,NA,NA,NA,NA,NA,NA,NA,NA,NA,NA,NA,listen to music,006.png,NA,NA,NA,NA,NA,NA,NA,NA,NA,NA,NA,NA,NA,NA,NA,NA,62.5,1.4347,0,5,5,5,1,NA,NA,NA,NA,NA,NA,NA,NA,NA,NA,NA,NA,NA,NA,NA,NA
SUPAMT02660,3TEM0PF1QBW8IRVDU9K956CZN8X0DU,15C5F68E-0536-47B0-91FA-BBECB67682AE,2023-09-26_10h56.35.473,WP_VExplicitOC_HL,2022.2.5,Win32,16.1386634,NA,NA,NA,NA,NA,NA,NA,NA,NA,NA,NA,NA,NA,NA,NA,NA,NA,NA,daydream,007.png,NA,NA,NA,NA,NA,NA,NA,NA,NA,NA,NA,NA,NA,NA,NA,NA,55.46875,1.8228,0,6,6,6,1,NA,NA,NA,NA,NA,NA,NA,NA,NA,NA,NA,NA,NA,NA,NA,NA
SUPAMT02660,3TEM0PF1QBW8IRVDU9K956CZN8X0DU,15C5F68E-0536-47B0-91FA-BBECB67682AE,2023-09-26_10h56.35.473,WP_VExplicitOC_HL,2022.2.5,Win32,16.1386634,NA,NA,NA,NA,NA,NA,NA,NA,NA,NA,NA,NA,NA,NA,NA,NA,NA,NA,watch a short animation,008.png,NA,NA,NA,NA,NA,NA,NA,NA,NA,NA,NA,NA,NA,NA,NA,NA,77.9296875,1.5551,0,7,7,7,1,NA,NA,NA,NA,NA,NA,NA,NA,NA,NA,NA,NA,NA,NA,NA,NA
SUPAMT02660,3TEM0PF1QBW8IRVDU9K956CZN8X0DU,15C5F68E-0536-47B0-91FA-BBECB67682AE,2023-09-26_10h56.35.473,WP_VExplicitOC_HL,2022.2.5,Win32,16.1386634,NA,NA,NA,NA,NA,NA,NA,NA,NA,NA,NA,NA,NA,NA,NA,NA,NA,NA,read a novel,009.png,NA,NA,NA,NA,NA,NA,NA,NA,NA,NA,NA,NA,NA,NA,NA,NA,62.5,1.3869,0,8,8,8,1,NA,NA,NA,NA,NA,NA,NA,NA,NA,NA,NA,NA,NA,NA,NA,NA
SUPAMT02660,3TEM0PF1QBW8IRVDU9K956CZN8X0DU,15C5F68E-0536-47B0-91FA-BBECB67682AE,2023-09-26_10h56.35.473,WP_VExplicitOC_HL,2022.2.5,Win32,16.1386634,NA,NA,NA,NA,NA,NA,NA,NA,NA,NA,NA,NA,NA,NA,NA,NA,NA,NA,read the news,010.png,NA,NA,NA,NA,NA,NA,NA,NA,NA,NA,NA,NA,NA,NA,NA,NA,62.109375,1.4353,0,9,9,9,1,NA,NA,NA,NA,NA,NA,NA,NA,NA,NA,NA,NA,NA,NA,NA,NA
SUPAMT02660,3TEM0PF1QBW8IRVDU9K956CZN8X0DU,15C5F68E-0536-47B0-91FA-BBECB67682AE,2023-09-26_10h56.35.473,WP_VExplicitOC_HL,2022.2.5,Win32,16.1386634,NA,NA,NA,NA,NA,NA,NA,NA,NA,NA,NA,NA,NA,NA,NA,NA,NA,NA,NA,NA,NA,NA,NA,NA,NA,NA,NA,NA,NA,NA,NA,NA,NA,NA,NA,NA,NA,NA,NA,NA,NA,NA,NA,make a drink,NA,NA,NA,NA,NA,NA,NA,NA,NA,NA,NA,NA,NA,NA,NA
SUPAMT02660,3TEM0PF1QBW8IRVDU9K956CZN8X0DU,15C5F68E-0536-47B0-91FA-BBECB67682AE,2023-09-26_10h56.35.473,WP_VExplicitOC_HL,2022.2.5,Win32,16.1386634,46.6796875,3.9434,2.0341,NA,NA,NA,NA,NA,frustrated,"frustrated, not frustrated","more frustrated, less frustrated",NA,NA,NA,NA,NA,NA,NA,NA,NA,NA,NA,NA,NA,NA,NA,NA,NA,NA,NA,NA,NA,NA,NA,NA,NA,NA,NA,NA,NA,NA,NA,NA,NA,0,0,0,1,1,NA,NA,NA,NA,NA,NA,NA,NA,NA,NA
SUPAMT02660,3TEM0PF1QBW8IRVDU9K956CZN8X0DU,15C5F68E-0536-47B0-91FA-BBECB67682AE,2023-09-26_10h56.35.473,WP_VExplicitOC_HL,2022.2.5,Win32,16.1386634,48.4375,3.5797,2.0157,NA,NA,NA,NA,NA,happy,"unhappy, happy","less happy, more happy",NA,NA,NA,NA,NA,NA,NA,NA,NA,NA,NA,NA,NA,NA,NA,NA,NA,NA,NA,NA,NA,NA,NA,NA,NA,NA,NA,NA,NA,NA,NA,NA,NA,0,1,1,0,1,NA,NA,NA,NA,NA,NA,NA,NA,NA,NA
SUPAMT02660,3TEM0PF1QBW8IRVDU9K956CZN8X0DU,15C5F68E-0536-47B0-91FA-BBECB67682AE,2023-09-26_10h56.35.473,WP_VExplicitOC_HL,2022.2.5,Win32,16.1386634,54.1015625,4.6004,2.0514,NA,NA,NA,NA,NA,bored,"bored, not bored","more bored, less bored",NA,NA,NA,NA,NA,NA,NA,NA,NA,NA,NA,NA,NA,NA,NA,NA,NA,NA,NA,NA,NA,NA,NA,NA,NA,NA,NA,NA,NA,NA,NA,NA,NA,0,2,2,2,1,NA,NA,NA,NA,NA,NA,NA,NA,NA,NA
SUPAMT02660,3TEM0PF1QBW8IRVDU9K956CZN8X0DU,15C5F68E-0536-47B0-91FA-BBECB67682AE,2023-09-26_10h56.35.473,WP_VExplicitOC_HL,2022.2.5,Win32,16.1386634,NA,NA,NA,NA,NA,NA,NA,NA,NA,NA,NA,NA,NA,NA,NA,NA,NA,NA,NA,NA,NA,NA,NA,NA,NA,NA,NA,NA,NA,NA,NA,NA,NA,NA,NA,NA,NA,NA,NA,NA,NA,NA,NA,NA,NA,NA,NA,NA,NA,NA,NA,NA,NA,NA,NA,NA,NA,NA,NA
SUPAMT02660,3TEM0PF1QBW8IRVDU9K956CZN8X0DU,15C5F68E-0536-47B0-91FA-BBECB67682AE,2023-09-26_10h56.35.473,WP_VExplicitOC_HL,2022.2.5,Win32,16.1386634,NA,NA,NA,NA,NA,NA,NA,NA,NA,NA,NA,NA,NA,NA,NA,NA,NA,NA,NA,NA,NA,NA,NA,NA,NA,NA,NA,NA,NA,NA,NA,NA,NA,NA,NA,NA,NA,NA,NA,NA,NA,NA,NA,NA,NA,NA,NA,NA,NA,NA,NA,NA,NA,NA,NA,NA,NA,NA,NA
SUPAMT02660,3TEM0PF1QBW8IRVDU9K956CZN8X0DU,15C5F68E-0536-47B0-91FA-BBECB67682AE,2023-09-26_10h56.35.473,WP_VExplicitOC_HL,2022.2.5,Win32,16.1386634,70.703125,4.0668,2.0206,NA,NA,NA,NA,NA,happy,"unhappy, happy","less happy, more happy",NA,NA,NA,NA,NA,NA,NA,NA,NA,NA,NA,NA,NA,NA,NA,NA,NA,NA,NA,NA,NA,NA,NA,NA,NA,NA,NA,NA,NA,NA,NA,NA,NA,NA,NA,NA,NA,NA,0,0,0,0,1,NA,NA,NA,NA,NA
SUPAMT02660,3TEM0PF1QBW8IRVDU9K956CZN8X0DU,15C5F68E-0536-47B0-91FA-BBECB67682AE,2023-09-26_10h56.35.473,WP_VExplicitOC_HL,2022.2.5,Win32,16.1386634,52.5390625,4.5743,2.0448,NA,NA,NA,NA,NA,bored,"bored, not bored","more bored, less bored",NA,NA,NA,NA,NA,NA,NA,NA,NA,NA,NA,NA,NA,NA,NA,NA,NA,NA,NA,NA,NA,NA,NA,NA,NA,NA,NA,NA,NA,NA,NA,NA,NA,NA,NA,NA,NA,NA,0,1,1,2,1,NA,NA,NA,NA,NA
SUPAMT02660,3TEM0PF1QBW8IRVDU9K956CZN8X0DU,15C5F68E-0536-47B0-91FA-BBECB67682AE,2023-09-26_10h56.35.473,WP_VExplicitOC_HL,2022.2.5,Win32,16.1386634,70.5078125,4.157,2.0885,NA,NA,NA,NA,NA,frustrated,"frustrated, not frustrated","more frustrated, less frustrated",NA,NA,NA,NA,NA,NA,NA,NA,NA,NA,NA,NA,NA,NA,NA,NA,NA,NA,NA,NA,NA,NA,NA,NA,NA,NA,NA,NA,NA,NA,NA,NA,NA,NA,NA,NA,NA,NA,0,2,2,1,1,NA,NA,NA,NA,NA
SUPAMT02660,3TEM0PF1QBW8IRVDU9K956CZN8X0DU,15C5F68E-0536-47B0-91FA-BBECB67682AE,2023-09-26_10h56.35.473,WP_VExplicitOC_HL,2022.2.5,Win32,16.1386634,NA,NA,NA,NA,NA,NA,NA,NA,NA,NA,NA,NA,NA,NA,NA,NA,NA,NA,NA,NA,NA,NA,NA,NA,NA,NA,NA,NA,NA,NA,NA,NA,NA,NA,NA,NA,NA,NA,NA,NA,NA,NA,NA,NA,NA,NA,NA,NA,NA,NA,NA,NA,NA,NA,0,0,0,0,1
SUPAMT02660,3TEM0PF1QBW8IRVDU9K956CZN8X0DU,15C5F68E-0536-47B0-91FA-BBECB67682AE,2023-09-26_10h56.35.473,WP_VExplicitOC_HL,2022.2.5,Win32,16.1386634,78.125,4.3051,2.0855,NA,NA,NA,NA,NA,happy,"unhappy, happy","less happy, more happy",NA,NA,NA,NA,NA,NA,NA,NA,NA,NA,NA,NA,NA,NA,NA,NA,NA,NA,NA,NA,NA,NA,NA,NA,NA,NA,NA,NA,NA,NA,NA,NA,NA,NA,NA,NA,NA,NA,0,0,0,0,1,NA,NA,NA,NA,NA
SUPAMT02660,3TEM0PF1QBW8IRVDU9K956CZN8X0DU,15C5F68E-0536-47B0-91FA-BBECB67682AE,2023-09-26_10h56.35.473,WP_VExplicitOC_HL,2022.2.5,Win32,16.1386634,57.8125,4.3348,2.0439,NA,NA,NA,NA,NA,bored,"bored, not bored","more bored, less bored",NA,NA,NA,NA,NA,NA,NA,NA,NA,NA,NA,NA,NA,NA,NA,NA,NA,NA,NA,NA,NA,NA,NA,NA,NA,NA,NA,NA,NA,NA,NA,NA,NA,NA,NA,NA,NA,NA,0,1,1,2,1,NA,NA,NA,NA,NA
SUPAMT02660,3TEM0PF1QBW8IRVDU9K956CZN8X0DU,15C5F68E-0536-47B0-91FA-BBECB67682AE,2023-09-26_10h56.35.473,WP_VExplicitOC_HL,2022.2.5,Win32,16.1386634,68.359375,4.3354,2.0482,NA,NA,NA,NA,NA,frustrated,"frustrated, not frustrated","more frustrated, less frustrated",NA,NA,NA,NA,NA,NA,NA,NA,NA,NA,NA,NA,NA,NA,NA,NA,NA,NA,NA,NA,NA,NA,NA,NA,NA,NA,NA,NA,NA,NA,NA,NA,NA,NA,NA,NA,NA,NA,0,2,2,1,1,NA,NA,NA,NA,NA
SUPAMT02660,3TEM0PF1QBW8IRVDU9K956CZN8X0DU,15C5F68E-0536-47B0-91FA-BBECB67682AE,2023-09-26_10h56.35.473,WP_VExplicitOC_HL,2022.2.5,Win32,16.1386634,NA,NA,NA,NA,NA,NA,NA,NA,NA,NA,NA,NA,NA,NA,NA,NA,NA,NA,NA,NA,NA,NA,NA,NA,NA,NA,NA,NA,NA,NA,NA,NA,NA,NA,NA,NA,NA,NA,NA,NA,NA,NA,NA,NA,NA,NA,NA,NA,NA,NA,NA,NA,NA,NA,1,0,1,0,1
SUPAMT02660,3TEM0PF1QBW8IRVDU9K956CZN8X0DU,15C5F68E-0536-47B0-91FA-BBECB67682AE,2023-09-26_10h56.35.473,WP_VExplicitOC_HL,2022.2.5,Win32,16.1386634,62.3046875,3.7993,2.0198,NA,NA,NA,NA,NA,frustrated,"frustrated, not frustrated","more frustrated, less frustrated",NA,NA,NA,NA,NA,NA,NA,NA,NA,NA,NA,NA,NA,NA,NA,NA,NA,NA,NA,NA,NA,NA,NA,NA,NA,NA,NA,NA,NA,NA,NA,NA,NA,NA,NA,NA,NA,NA,0,0,0,1,1,NA,NA,NA,NA,NA
SUPAMT02660,3TEM0PF1QBW8IRVDU9K956CZN8X0DU,15C5F68E-0536-47B0-91FA-BBECB67682AE,2023-09-26_10h56.35.473,WP_VExplicitOC_HL,2022.2.5,Win32,16.1386634,81.4453125,3.4363,2.0428,NA,NA,NA,NA,NA,happy,"unhappy, happy","less happy, more happy",NA,NA,NA,NA,NA,NA,NA,NA,NA,NA,NA,NA,NA,NA,NA,NA,NA,NA,NA,NA,NA,NA,NA,NA,NA,NA,NA,NA,NA,NA,NA,NA,NA,NA,NA,NA,NA,NA,0,1,1,0,1,NA,NA,NA,NA,NA
SUPAMT02660,3TEM0PF1QBW8IRVDU9K956CZN8X0DU,15C5F68E-0536-47B0-91FA-BBECB67682AE,2023-09-26_10h56.35.473,WP_VExplicitOC_HL,2022.2.5,Win32,16.1386634,73.2421875,4.0894,2.0217,NA,NA,NA,NA,NA,bored,"bored, not bored","more bored, less bored",NA,NA,NA,NA,NA,NA,NA,NA,NA,NA,NA,NA,NA,NA,NA,NA,NA,NA,NA,NA,NA,NA,NA,NA,NA,NA,NA,NA,NA,NA,NA,NA,NA,NA,NA,NA,NA,NA,0,2,2,2,1,NA,NA,NA,NA,NA
SUPAMT02660,3TEM0PF1QBW8IRVDU9K956CZN8X0DU,15C5F68E-0536-47B0-91FA-BBECB67682AE,2023-09-26_10h56.35.473,WP_VExplicitOC_HL,2022.2.5,Win32,16.1386634,NA,NA,NA,NA,NA,NA,NA,NA,NA,NA,NA,NA,NA,NA,NA,NA,NA,NA,NA,NA,NA,NA,NA,NA,NA,NA,NA,NA,NA,NA,NA,NA,NA,NA,NA,NA,NA,NA,NA,NA,NA,NA,NA,NA,NA,NA,NA,NA,NA,NA,NA,NA,NA,NA,2,0,2,0,1
SUPAMT02660,3TEM0PF1QBW8IRVDU9K956CZN8X0DU,15C5F68E-0536-47B0-91FA-BBECB67682AE,2023-09-26_10h56.35.473,WP_VExplicitOC_HL,2022.2.5,Win32,16.1386634,65.8203125,4.6675,2.0168,NA,NA,NA,NA,NA,bored,"bored, not bored","more bored, less bored",NA,NA,NA,NA,NA,NA,NA,NA,NA,NA,NA,NA,NA,NA,NA,NA,NA,NA,NA,NA,NA,NA,NA,NA,NA,NA,NA,NA,NA,NA,NA,NA,NA,NA,NA,NA,NA,NA,0,0,0,2,1,NA,NA,NA,NA,NA
SUPAMT02660,3TEM0PF1QBW8IRVDU9K956CZN8X0DU,15C5F68E-0536-47B0-91FA-BBECB67682AE,2023-09-26_10h56.35.473,WP_VExplicitOC_HL,2022.2.5,Win32,16.1386634,76.7578125,6.2727,2.0143,NA,NA,NA,NA,NA,frustrated,"frustrated, not frustrated","more frustrated, less frustrated",NA,NA,NA,NA,NA,NA,NA,NA,NA,NA,NA,NA,NA,NA,NA,NA,NA,NA,NA,NA,NA,NA,NA,NA,NA,NA,NA,NA,NA,NA,NA,NA,NA,NA,NA,NA,NA,NA,0,1,1,1,1,NA,NA,NA,NA,NA
SUPAMT02660,3TEM0PF1QBW8IRVDU9K956CZN8X0DU,15C5F68E-0536-47B0-91FA-BBECB67682AE,2023-09-26_10h56.35.473,WP_VExplicitOC_HL,2022.2.5,Win32,16.1386634,74.8046875,4.0282,2.0697,NA,NA,NA,NA,NA,happy,"unhappy, happy","less happy, more happy",NA,NA,NA,NA,NA,NA,NA,NA,NA,NA,NA,NA,NA,NA,NA,NA,NA,NA,NA,NA,NA,NA,NA,NA,NA,NA,NA,NA,NA,NA,NA,NA,NA,NA,NA,NA,NA,NA,0,2,2,0,1,NA,NA,NA,NA,NA
SUPAMT02660,3TEM0PF1QBW8IRVDU9K956CZN8X0DU,15C5F68E-0536-47B0-91FA-BBECB67682AE,2023-09-26_10h56.35.473,WP_VExplicitOC_HL,2022.2.5,Win32,16.1386634,NA,NA,NA,NA,NA,NA,NA,NA,NA,NA,NA,NA,NA,NA,NA,NA,NA,NA,NA,NA,NA,NA,NA,NA,NA,NA,NA,NA,NA,NA,NA,NA,NA,NA,NA,NA,NA,NA,NA,NA,NA,NA,NA,NA,NA,NA,NA,NA,NA,NA,NA,NA,NA,NA,3,0,3,0,1
SUPAMT02660,3TEM0PF1QBW8IRVDU9K956CZN8X0DU,15C5F68E-0536-47B0-91FA-BBECB67682AE,2023-09-26_10h56.35.473,WP_VExplicitOC_HL,2022.2.5,Win32,16.1386634,84.5703125,3.9769,2.0121000000000002,NA,NA,NA,NA,NA,happy,"unhappy, happy","less happy, more happy",NA,NA,NA,NA,NA,NA,NA,NA,NA,NA,NA,NA,NA,NA,NA,NA,NA,NA,NA,NA,NA,NA,NA,NA,NA,NA,NA,NA,NA,NA,NA,NA,NA,NA,NA,NA,NA,NA,0,0,0,0,1,NA,NA,NA,NA,NA
SUPAMT02660,3TEM0PF1QBW8IRVDU9K956CZN8X0DU,15C5F68E-0536-47B0-91FA-BBECB67682AE,2023-09-26_10h56.35.473,WP_VExplicitOC_HL,2022.2.5,Win32,16.1386634,67.96875,5.2179,2.036,NA,NA,NA,NA,NA,bored,"bored, not bored","more bored, less bored",NA,NA,NA,NA,NA,NA,NA,NA,NA,NA,NA,NA,NA,NA,NA,NA,NA,NA,NA,NA,NA,NA,NA,NA,NA,NA,NA,NA,NA,NA,NA,NA,NA,NA,NA,NA,NA,NA,0,1,1,2,1,NA,NA,NA,NA,NA
SUPAMT02660,3TEM0PF1QBW8IRVDU9K956CZN8X0DU,15C5F68E-0536-47B0-91FA-BBECB67682AE,2023-09-26_10h56.35.473,WP_VExplicitOC_HL,2022.2.5,Win32,16.1386634,76.3671875,4.3803,2.0806,NA,NA,NA,NA,NA,frustrated,"frustrated, not frustrated","more frustrated, less frustrated",NA,NA,NA,NA,NA,NA,NA,NA,NA,NA,NA,NA,NA,NA,NA,NA,NA,NA,NA,NA,NA,NA,NA,NA,NA,NA,NA,NA,NA,NA,NA,NA,NA,NA,NA,NA,NA,NA,0,2,2,1,1,NA,NA,NA,NA,NA
SUPAMT02660,3TEM0PF1QBW8IRVDU9K956CZN8X0DU,15C5F68E-0536-47B0-91FA-BBECB67682AE,2023-09-26_10h56.35.473,WP_VExplicitOC_HL,2022.2.5,Win32,16.1386634,NA,NA,NA,NA,NA,NA,NA,NA,NA,NA,NA,NA,NA,NA,NA,NA,NA,NA,NA,NA,NA,NA,NA,NA,NA,NA,NA,NA,NA,NA,NA,NA,NA,NA,NA,NA,NA,NA,NA,NA,NA,NA,NA,NA,NA,NA,NA,NA,NA,NA,NA,NA,NA,NA,4,0,4,0,1
SUPAMT02660,3TEM0PF1QBW8IRVDU9K956CZN8X0DU,15C5F68E-0536-47B0-91FA-BBECB67682AE,2023-09-26_10h56.35.473,WP_VExplicitOC_HL,2022.2.5,Win32,16.1386634,80.46875,4.5354,2.0043,NA,NA,NA,NA,NA,bored,"bored, not bored","more bored, less bored",NA,NA,NA,NA,NA,NA,NA,NA,NA,NA,NA,NA,NA,NA,NA,NA,NA,NA,NA,NA,NA,NA,NA,NA,NA,NA,NA,NA,NA,NA,NA,NA,NA,NA,NA,NA,NA,NA,0,0,0,2,1,NA,NA,NA,NA,NA
SUPAMT02660,3TEM0PF1QBW8IRVDU9K956CZN8X0DU,15C5F68E-0536-47B0-91FA-BBECB67682AE,2023-09-26_10h56.35.473,WP_VExplicitOC_HL,2022.2.5,Win32,16.1386634,74.0234375,4.1318,2.0358,NA,NA,NA,NA,NA,frustrated,"frustrated, not frustrated","more frustrated, less frustrated",NA,NA,NA,NA,NA,NA,NA,NA,NA,NA,NA,NA,NA,NA,NA,NA,NA,NA,NA,NA,NA,NA,NA,NA,NA,NA,NA,NA,NA,NA,NA,NA,NA,NA,NA,NA,NA,NA,0,1,1,1,1,NA,NA,NA,NA,NA
SUPAMT02660,3TEM0PF1QBW8IRVDU9K956CZN8X0DU,15C5F68E-0536-47B0-91FA-BBECB67682AE,2023-09-26_10h56.35.473,WP_VExplicitOC_HL,2022.2.5,Win32,16.1386634,65.625,4.8585,2.0626,NA,NA,NA,NA,NA,happy,"unhappy, happy","less happy, more happy",NA,NA,NA,NA,NA,NA,NA,NA,NA,NA,NA,NA,NA,NA,NA,NA,NA,NA,NA,NA,NA,NA,NA,NA,NA,NA,NA,NA,NA,NA,NA,NA,NA,NA,NA,NA,NA,NA,0,2,2,0,1,NA,NA,NA,NA,NA
SUPAMT02660,3TEM0PF1QBW8IRVDU9K956CZN8X0DU,15C5F68E-0536-47B0-91FA-BBECB67682AE,2023-09-26_10h56.35.473,WP_VExplicitOC_HL,2022.2.5,Win32,16.1386634,NA,NA,NA,NA,NA,NA,NA,NA,NA,NA,NA,NA,NA,NA,NA,NA,NA,NA,NA,NA,NA,NA,NA,NA,NA,NA,NA,NA,NA,NA,NA,NA,NA,NA,NA,NA,NA,NA,NA,NA,NA,NA,NA,NA,NA,NA,NA,NA,NA,NA,NA,NA,NA,NA,5,0,5,0,1
SUPAMT02660,3TEM0PF1QBW8IRVDU9K956CZN8X0DU,15C5F68E-0536-47B0-91FA-BBECB67682AE,2023-09-26_10h56.35.473,WP_VExplicitOC_HL,2022.2.5,Win32,16.1386634,80.859375,3.787,2.0631,NA,NA,NA,NA,NA,bored,"bored, not bored","more bored, less bored",NA,NA,NA,NA,NA,NA,NA,NA,NA,NA,NA,NA,NA,NA,NA,NA,NA,NA,NA,NA,NA,NA,NA,NA,NA,NA,NA,NA,NA,NA,NA,NA,NA,NA,NA,NA,NA,NA,0,0,0,2,1,NA,NA,NA,NA,NA
SUPAMT02660,3TEM0PF1QBW8IRVDU9K956CZN8X0DU,15C5F68E-0536-47B0-91FA-BBECB67682AE,2023-09-26_10h56.35.473,WP_VExplicitOC_HL,2022.2.5,Win32,16.1386634,71.2890625,4.0832,2.0477,NA,NA,NA,NA,NA,frustrated,"frustrated, not frustrated","more frustrated, less frustrated",NA,NA,NA,NA,NA,NA,NA,NA,NA,NA,NA,NA,NA,NA,NA,NA,NA,NA,NA,NA,NA,NA,NA,NA,NA,NA,NA,NA,NA,NA,NA,NA,NA,NA,NA,NA,NA,NA,0,1,1,1,1,NA,NA,NA,NA,NA
SUPAMT02660,3TEM0PF1QBW8IRVDU9K956CZN8X0DU,15C5F68E-0536-47B0-91FA-BBECB67682AE,2023-09-26_10h56.35.473,WP_VExplicitOC_HL,2022.2.5,Win32,16.1386634,66.796875,4.5108,2.0469,NA,NA,NA,NA,NA,happy,"unhappy, happy","less happy, more happy",NA,NA,NA,NA,NA,NA,NA,NA,NA,NA,NA,NA,NA,NA,NA,NA,NA,NA,NA,NA,NA,NA,NA,NA,NA,NA,NA,NA,NA,NA,NA,NA,NA,NA,NA,NA,NA,NA,0,2,2,0,1,NA,NA,NA,NA,NA
SUPAMT02660,3TEM0PF1QBW8IRVDU9K956CZN8X0DU,15C5F68E-0536-47B0-91FA-BBECB67682AE,2023-09-26_10h56.35.473,WP_VExplicitOC_HL,2022.2.5,Win32,16.1386634,NA,NA,NA,NA,NA,NA,NA,NA,NA,NA,NA,NA,NA,NA,NA,NA,NA,NA,NA,NA,NA,NA,NA,NA,NA,NA,NA,NA,NA,NA,NA,NA,NA,NA,NA,NA,NA,NA,NA,NA,NA,NA,NA,NA,NA,NA,NA,NA,NA,NA,NA,NA,NA,NA,6,0,6,0,1
SUPAMT02660,3TEM0PF1QBW8IRVDU9K956CZN8X0DU,15C5F68E-0536-47B0-91FA-BBECB67682AE,2023-09-26_10h56.35.473,WP_VExplicitOC_HL,2022.2.5,Win32,16.1386634,71.484375,4.0147,2.0849,NA,NA,NA,NA,NA,bored,"bored, not bored","more bored, less bored",NA,NA,NA,NA,NA,NA,NA,NA,NA,NA,NA,NA,NA,NA,NA,NA,NA,NA,NA,NA,NA,NA,NA,NA,NA,NA,NA,NA,NA,NA,NA,NA,NA,NA,NA,NA,NA,NA,0,0,0,2,1,NA,NA,NA,NA,NA
SUPAMT02660,3TEM0PF1QBW8IRVDU9K956CZN8X0DU,15C5F68E-0536-47B0-91FA-BBECB67682AE,2023-09-26_10h56.35.473,WP_VExplicitOC_HL,2022.2.5,Win32,16.1386634,63.28125,5.2747,2.0651,NA,NA,NA,NA,NA,frustrated,"frustrated, not frustrated","more frustrated, less frustrated",NA,NA,NA,NA,NA,NA,NA,NA,NA,NA,NA,NA,NA,NA,NA,NA,NA,NA,NA,NA,NA,NA,NA,NA,NA,NA,NA,NA,NA,NA,NA,NA,NA,NA,NA,NA,NA,NA,0,1,1,1,1,NA,NA,NA,NA,NA
SUPAMT02660,3TEM0PF1QBW8IRVDU9K956CZN8X0DU,15C5F68E-0536-47B0-91FA-BBECB67682AE,2023-09-26_10h56.35.473,WP_VExplicitOC_HL,2022.2.5,Win32,16.1386634,69.140625,4.2816,2.009,NA,NA,NA,NA,NA,happy,"unhappy, happy","less happy, more happy",NA,NA,NA,NA,NA,NA,NA,NA,NA,NA,NA,NA,NA,NA,NA,NA,NA,NA,NA,NA,NA,NA,NA,NA,NA,NA,NA,NA,NA,NA,NA,NA,NA,NA,NA,NA,NA,NA,0,2,2,0,1,NA,NA,NA,NA,NA
SUPAMT02660,3TEM0PF1QBW8IRVDU9K956CZN8X0DU,15C5F68E-0536-47B0-91FA-BBECB67682AE,2023-09-26_10h56.35.473,WP_VExplicitOC_HL,2022.2.5,Win32,16.1386634,NA,NA,NA,NA,NA,NA,NA,NA,NA,NA,NA,NA,NA,NA,NA,NA,NA,NA,NA,NA,NA,NA,NA,NA,NA,NA,NA,NA,NA,NA,NA,NA,NA,NA,NA,NA,NA,NA,NA,NA,NA,NA,NA,NA,NA,NA,NA,NA,NA,NA,NA,NA,NA,NA,7,0,7,0,1
SUPAMT02660,3TEM0PF1QBW8IRVDU9K956CZN8X0DU,15C5F68E-0536-47B0-91FA-BBECB67682AE,2023-09-26_10h56.35.473,WP_VExplicitOC_HL,2022.2.5,Win32,16.1386634,76.3671875,6.8348,2.0413,NA,NA,NA,NA,NA,frustrated,"frustrated, not frustrated","more frustrated, less frustrated",NA,NA,NA,NA,NA,NA,NA,NA,NA,NA,NA,NA,NA,NA,NA,NA,NA,NA,NA,NA,NA,NA,NA,NA,NA,NA,NA,NA,NA,NA,NA,NA,NA,NA,NA,NA,NA,NA,0,0,0,1,1,NA,NA,NA,NA,NA
SUPAMT02660,3TEM0PF1QBW8IRVDU9K956CZN8X0DU,15C5F68E-0536-47B0-91FA-BBECB67682AE,2023-09-26_10h56.35.473,WP_VExplicitOC_HL,2022.2.5,Win32,16.1386634,77.9296875,3.6187,2.0259,NA,NA,NA,NA,NA,happy,"unhappy, happy","less happy, more happy",NA,NA,NA,NA,NA,NA,NA,NA,NA,NA,NA,NA,NA,NA,NA,NA,NA,NA,NA,NA,NA,NA,NA,NA,NA,NA,NA,NA,NA,NA,NA,NA,NA,NA,NA,NA,NA,NA,0,1,1,0,1,NA,NA,NA,NA,NA
SUPAMT02660,3TEM0PF1QBW8IRVDU9K956CZN8X0DU,15C5F68E-0536-47B0-91FA-BBECB67682AE,2023-09-26_10h56.35.473,WP_VExplicitOC_HL,2022.2.5,Win32,16.1386634,63.671875,3.2684,2.0505,NA,NA,NA,NA,NA,bored,"bored, not bored","more bored, less bored",NA,NA,NA,NA,NA,NA,NA,NA,NA,NA,NA,NA,NA,NA,NA,NA,NA,NA,NA,NA,NA,NA,NA,NA,NA,NA,NA,NA,NA,NA,NA,NA,NA,NA,NA,NA,NA,NA,0,2,2,2,1,NA,NA,NA,NA,NA
SUPAMT02660,3TEM0PF1QBW8IRVDU9K956CZN8X0DU,15C5F68E-0536-47B0-91FA-BBECB67682AE,2023-09-26_10h56.35.473,WP_VExplicitOC_HL,2022.2.5,Win32,16.1386634,NA,NA,NA,NA,NA,NA,NA,NA,NA,NA,NA,NA,NA,NA,NA,NA,NA,NA,NA,NA,NA,NA,NA,NA,NA,NA,NA,NA,NA,NA,NA,NA,NA,NA,NA,NA,NA,NA,NA,NA,NA,NA,NA,NA,NA,NA,NA,NA,NA,NA,NA,NA,NA,NA,8,0,8,0,1
SUPAMT02660,3TEM0PF1QBW8IRVDU9K956CZN8X0DU,15C5F68E-0536-47B0-91FA-BBECB67682AE,2023-09-26_10h56.35.473,WP_VExplicitOC_HL,2022.2.5,Win32,16.1386634,63.0859375,5.8025,2.0311,NA,NA,NA,NA,NA,happy,"unhappy, happy","less happy, more happy",NA,NA,NA,NA,NA,NA,NA,NA,NA,NA,NA,NA,NA,NA,NA,NA,NA,NA,NA,NA,NA,NA,NA,NA,NA,NA,NA,NA,NA,NA,NA,NA,NA,NA,NA,NA,NA,NA,0,0,0,0,1,NA,NA,NA,NA,NA
SUPAMT02660,3TEM0PF1QBW8IRVDU9K956CZN8X0DU,15C5F68E-0536-47B0-91FA-BBECB67682AE,2023-09-26_10h56.35.473,WP_VExplicitOC_HL,2022.2.5,Win32,16.1386634,43.1640625,4.2446,2.0631,NA,NA,NA,NA,NA,bored,"bored, not bored","more bored, less bored",NA,NA,NA,NA,NA,NA,NA,NA,NA,NA,NA,NA,NA,NA,NA,NA,NA,NA,NA,NA,NA,NA,NA,NA,NA,NA,NA,NA,NA,NA,NA,NA,NA,NA,NA,NA,NA,NA,0,1,1,2,1,NA,NA,NA,NA,NA
SUPAMT02660,3TEM0PF1QBW8IRVDU9K956CZN8X0DU,15C5F68E-0536-47B0-91FA-BBECB67682AE,2023-09-26_10h56.35.473,WP_VExplicitOC_HL,2022.2.5,Win32,16.1386634,74.21875,3.8224,2.0038,NA,NA,NA,NA,NA,frustrated,"frustrated, not frustrated","more frustrated, less frustrated",NA,NA,NA,NA,NA,NA,NA,NA,NA,NA,NA,NA,NA,NA,NA,NA,NA,NA,NA,NA,NA,NA,NA,NA,NA,NA,NA,NA,NA,NA,NA,NA,NA,NA,NA,NA,NA,NA,0,2,2,1,1,NA,NA,NA,NA,NA
SUPAMT02660,3TEM0PF1QBW8IRVDU9K956CZN8X0DU,15C5F68E-0536-47B0-91FA-BBECB67682AE,2023-09-26_10h56.35.473,WP_VExplicitOC_HL,2022.2.5,Win32,16.1386634,NA,NA,NA,NA,NA,NA,NA,NA,NA,NA,NA,NA,NA,NA,NA,NA,NA,NA,NA,NA,NA,NA,NA,NA,NA,NA,NA,NA,NA,NA,NA,NA,NA,NA,NA,NA,NA,NA,NA,NA,NA,NA,NA,NA,NA,NA,NA,NA,NA,NA,NA,NA,NA,NA,9,0,9,0,1
SUPAMT02660,3TEM0PF1QBW8IRVDU9K956CZN8X0DU,15C5F68E-0536-47B0-91FA-BBECB67682AE,2023-09-26_10h56.35.473,WP_VExplicitOC_HL,2022.2.5,Win32,16.1386634,68.5546875,4.7828,2.0451,NA,NA,NA,NA,NA,frustrated,"frustrated, not frustrated","more frustrated, less frustrated",NA,NA,NA,NA,NA,NA,NA,NA,NA,NA,NA,NA,NA,NA,NA,NA,NA,NA,NA,NA,NA,NA,NA,NA,NA,NA,NA,NA,NA,NA,NA,NA,NA,NA,NA,NA,NA,NA,0,0,0,1,1,NA,NA,NA,NA,NA
SUPAMT02660,3TEM0PF1QBW8IRVDU9K956CZN8X0DU,15C5F68E-0536-47B0-91FA-BBECB67682AE,2023-09-26_10h56.35.473,WP_VExplicitOC_HL,2022.2.5,Win32,16.1386634,74.609375,4.0887,2.0714,NA,NA,NA,NA,NA,happy,"unhappy, happy","less happy, more happy",NA,NA,NA,NA,NA,NA,NA,NA,NA,NA,NA,NA,NA,NA,NA,NA,NA,NA,NA,NA,NA,NA,NA,NA,NA,NA,NA,NA,NA,NA,NA,NA,NA,NA,NA,NA,NA,NA,0,1,1,0,1,NA,NA,NA,NA,NA
SUPAMT02660,3TEM0PF1QBW8IRVDU9K956CZN8X0DU,15C5F68E-0536-47B0-91FA-BBECB67682AE,2023-09-26_10h56.35.473,WP_VExplicitOC_HL,2022.2.5,Win32,16.1386634,57.6171875,4.3328,2.028,NA,NA,NA,NA,NA,bored,"bored, not bored","more bored, less bored",NA,NA,NA,NA,NA,NA,NA,NA,NA,NA,NA,NA,NA,NA,NA,NA,NA,NA,NA,NA,NA,NA,NA,NA,NA,NA,NA,NA,NA,NA,NA,NA,NA,NA,NA,NA,NA,NA,0,2,2,2,1,NA,NA,NA,NA,NA
SUPAMT02660,3TEM0PF1QBW8IRVDU9K956CZN8X0DU,15C5F68E-0536-47B0-91FA-BBECB67682AE,2023-09-26_10h56.35.473,WP_VExplicitOC_HL,2022.2.5,Win32,16.1386634,NA,NA,NA,NA,NA,NA,NA,NA,NA,NA,NA,NA,NA,NA,NA,NA,NA,NA,NA,NA,NA,NA,NA,NA,NA,NA,NA,NA,NA,NA,NA,NA,NA,NA,NA,NA,NA,NA,NA,NA,NA,NA,NA,NA,NA,NA,NA,NA,NA,NA,NA,NA,NA,NA,10,0,10,0,1
SUPAMT02660,3TEM0PF1QBW8IRVDU9K956CZN8X0DU,15C5F68E-0536-47B0-91FA-BBECB67682AE,2023-09-26_10h56.35.473,WP_VExplicitOC_HL,2022.2.5,Win32,16.1386634,86.9140625,4.4803,2.0699,NA,NA,NA,NA,NA,frustrated,"frustrated, not frustrated","more frustrated, less frustrated",NA,NA,NA,NA,NA,NA,NA,NA,NA,NA,NA,NA,NA,NA,NA,NA,NA,NA,NA,NA,NA,NA,NA,NA,NA,NA,NA,NA,NA,NA,NA,NA,NA,NA,NA,NA,NA,NA,0,0,0,1,1,NA,NA,NA,NA,NA
SUPAMT02660,3TEM0PF1QBW8IRVDU9K956CZN8X0DU,15C5F68E-0536-47B0-91FA-BBECB67682AE,2023-09-26_10h56.35.473,WP_VExplicitOC_HL,2022.2.5,Win32,16.1386634,84.5703125,5.7199,2.07,NA,NA,NA,NA,NA,happy,"unhappy, happy","less happy, more happy",NA,NA,NA,NA,NA,NA,NA,NA,NA,NA,NA,NA,NA,NA,NA,NA,NA,NA,NA,NA,NA,NA,NA,NA,NA,NA,NA,NA,NA,NA,NA,NA,NA,NA,NA,NA,NA,NA,0,1,1,0,1,NA,NA,NA,NA,NA
SUPAMT02660,3TEM0PF1QBW8IRVDU9K956CZN8X0DU,15C5F68E-0536-47B0-91FA-BBECB67682AE,2023-09-26_10h56.35.473,WP_VExplicitOC_HL,2022.2.5,Win32,16.1386634,NA,NA,2.0868,NA,NA,NA,NA,NA,bored,"bored, not bored","more bored, less bored",NA,NA,NA,NA,NA,NA,NA,NA,NA,NA,NA,NA,NA,NA,NA,NA,NA,NA,NA,NA,NA,NA,NA,NA,NA,NA,NA,NA,NA,NA,NA,NA,NA,NA,NA,NA,NA,NA,0,2,2,2,1,NA,NA,NA,NA,NA
SUPAMT02660,3TEM0PF1QBW8IRVDU9K956CZN8X0DU,15C5F68E-0536-47B0-91FA-BBECB67682AE,2023-09-26_10h56.35.473,WP_VExplicitOC_HL,2022.2.5,Win32,16.1386634,NA,NA,NA,NA,NA,NA,NA,NA,NA,NA,NA,NA,NA,NA,NA,NA,NA,NA,NA,NA,NA,NA,NA,NA,NA,NA,NA,NA,NA,NA,NA,NA,NA,NA,NA,NA,NA,NA,NA,NA,NA,NA,NA,NA,NA,NA,NA,NA,NA,NA,NA,NA,NA,NA,11,0,11,0,1
SUPAMT02660,3TEM0PF1QBW8IRVDU9K956CZN8X0DU,15C5F68E-0536-47B0-91FA-BBECB67682AE,2023-09-26_10h56.35.473,WP_VExplicitOC_HL,2022.2.5,Win32,16.1386634,NA,NA,2.0275,NA,NA,NA,NA,NA,happy,"unhappy, happy","less happy, more happy",NA,NA,NA,NA,NA,NA,NA,NA,NA,NA,NA,NA,NA,NA,NA,NA,NA,NA,NA,NA,NA,NA,NA,NA,NA,NA,NA,NA,NA,NA,NA,NA,NA,NA,NA,NA,NA,NA,0,0,0,0,1,NA,NA,NA,NA,NA
SUPAMT02660,3TEM0PF1QBW8IRVDU9K956CZN8X0DU,15C5F68E-0536-47B0-91FA-BBECB67682AE,2023-09-26_10h56.35.473,WP_VExplicitOC_HL,2022.2.5,Win32,16.1386634,NA,NA,2.0577,NA,NA,NA,NA,NA,frustrated,"frustrated, not frustrated","more frustrated, less frustrated",NA,NA,NA,NA,NA,NA,NA,NA,NA,NA,NA,NA,NA,NA,NA,NA,NA,NA,NA,NA,NA,NA,NA,NA,NA,NA,NA,NA,NA,NA,NA,NA,NA,NA,NA,NA,NA,NA,0,1,1,1,1,NA,NA,NA,NA,NA
SUPAMT02660,3TEM0PF1QBW8IRVDU9K956CZN8X0DU,15C5F68E-0536-47B0-91FA-BBECB67682AE,2023-09-26_10h56.35.473,WP_VExplicitOC_HL,2022.2.5,Win32,16.1386634,74.21875,5.3204,2.0738,NA,NA,NA,NA,NA,bored,"bored, not bored","more bored, less bored",NA,NA,NA,NA,NA,NA,NA,NA,NA,NA,NA,NA,NA,NA,NA,NA,NA,NA,NA,NA,NA,NA,NA,NA,NA,NA,NA,NA,NA,NA,NA,NA,NA,NA,NA,NA,NA,NA,0,2,2,2,1,NA,NA,NA,NA,NA
SUPAMT02660,3TEM0PF1QBW8IRVDU9K956CZN8X0DU,15C5F68E-0536-47B0-91FA-BBECB67682AE,2023-09-26_10h56.35.473,WP_VExplicitOC_HL,2022.2.5,Win32,16.1386634,NA,NA,NA,NA,NA,NA,NA,NA,NA,NA,NA,NA,NA,NA,NA,NA,NA,NA,NA,NA,NA,NA,NA,NA,NA,NA,NA,NA,NA,NA,NA,NA,NA,NA,NA,NA,NA,NA,NA,NA,NA,NA,NA,NA,NA,NA,NA,NA,NA,NA,NA,NA,NA,NA,12,0,12,0,1
SUPAMT02660,3TEM0PF1QBW8IRVDU9K956CZN8X0DU,15C5F68E-0536-47B0-91FA-BBECB67682AE,2023-09-26_10h56.35.473,WP_VExplicitOC_HL,2022.2.5,Win32,16.1386634,71.6796875,4.5546,2.0118,NA,NA,NA,NA,NA,frustrated,"frustrated, not frustrated","more frustrated, less frustrated",NA,NA,NA,NA,NA,NA,NA,NA,NA,NA,NA,NA,NA,NA,NA,NA,NA,NA,NA,NA,NA,NA,NA,NA,NA,NA,NA,NA,NA,NA,NA,NA,NA,NA,NA,NA,NA,NA,0,0,0,1,1,NA,NA,NA,NA,NA
SUPAMT02660,3TEM0PF1QBW8IRVDU9K956CZN8X0DU,15C5F68E-0536-47B0-91FA-BBECB67682AE,2023-09-26_10h56.35.473,WP_VExplicitOC_HL,2022.2.5,Win32,16.1386634,79.1015625,3.8453,2.044,NA,NA,NA,NA,NA,happy,"unhappy, happy","less happy, more happy",NA,NA,NA,NA,NA,NA,NA,NA,NA,NA,NA,NA,NA,NA,NA,NA,NA,NA,NA,NA,NA,NA,NA,NA,NA,NA,NA,NA,NA,NA,NA,NA,NA,NA,NA,NA,NA,NA,0,1,1,0,1,NA,NA,NA,NA,NA
SUPAMT02660,3TEM0PF1QBW8IRVDU9K956CZN8X0DU,15C5F68E-0536-47B0-91FA-BBECB67682AE,2023-09-26_10h56.35.473,WP_VExplicitOC_HL,2022.2.5,Win32,16.1386634,57.03125,3.7795,2.0854,NA,NA,NA,NA,NA,bored,"bored, not bored","more bored, less bored",NA,NA,NA,NA,NA,NA,NA,NA,NA,NA,NA,NA,NA,NA,NA,NA,NA,NA,NA,NA,NA,NA,NA,NA,NA,NA,NA,NA,NA,NA,NA,NA,NA,NA,NA,NA,NA,NA,0,2,2,2,1,NA,NA,NA,NA,NA
SUPAMT02660,3TEM0PF1QBW8IRVDU9K956CZN8X0DU,15C5F68E-0536-47B0-91FA-BBECB67682AE,2023-09-26_10h56.35.473,WP_VExplicitOC_HL,2022.2.5,Win32,16.1386634,NA,NA,NA,NA,NA,NA,NA,NA,NA,NA,NA,NA,NA,NA,NA,NA,NA,NA,NA,NA,NA,NA,NA,NA,NA,NA,NA,NA,NA,NA,NA,NA,NA,NA,NA,NA,NA,NA,NA,NA,NA,NA,NA,NA,NA,NA,NA,NA,NA,NA,NA,NA,NA,NA,13,0,13,0,1
SUPAMT02660,3TEM0PF1QBW8IRVDU9K956CZN8X0DU,15C5F68E-0536-47B0-91FA-BBECB67682AE,2023-09-26_10h56.35.473,WP_VExplicitOC_HL,2022.2.5,Win32,16.1386634,57.03125,6.7614,2.0818,NA,NA,NA,NA,NA,happy,"unhappy, happy","less happy, more happy",NA,NA,NA,NA,NA,NA,NA,NA,NA,NA,NA,NA,NA,NA,NA,NA,NA,NA,NA,NA,NA,NA,NA,NA,NA,NA,NA,NA,NA,NA,NA,NA,NA,NA,NA,NA,NA,NA,0,0,0,0,1,NA,NA,NA,NA,NA
SUPAMT02660,3TEM0PF1QBW8IRVDU9K956CZN8X0DU,15C5F68E-0536-47B0-91FA-BBECB67682AE,2023-09-26_10h56.35.473,WP_VExplicitOC_HL,2022.2.5,Win32,16.1386634,63.28125,4.2084,2.08,NA,NA,NA,NA,NA,bored,"bored, not bored","more bored, less bored",NA,NA,NA,NA,NA,NA,NA,NA,NA,NA,NA,NA,NA,NA,NA,NA,NA,NA,NA,NA,NA,NA,NA,NA,NA,NA,NA,NA,NA,NA,NA,NA,NA,NA,NA,NA,NA,NA,0,1,1,2,1,NA,NA,NA,NA,NA
SUPAMT02660,3TEM0PF1QBW8IRVDU9K956CZN8X0DU,15C5F68E-0536-47B0-91FA-BBECB67682AE,2023-09-26_10h56.35.473,WP_VExplicitOC_HL,2022.2.5,Win32,16.1386634,68.9453125,5.7961,2.0947,NA,NA,NA,NA,NA,frustrated,"frustrated, not frustrated","more frustrated, less frustrated",NA,NA,NA,NA,NA,NA,NA,NA,NA,NA,NA,NA,NA,NA,NA,NA,NA,NA,NA,NA,NA,NA,NA,NA,NA,NA,NA,NA,NA,NA,NA,NA,NA,NA,NA,NA,NA,NA,0,2,2,1,1,NA,NA,NA,NA,NA
SUPAMT02660,3TEM0PF1QBW8IRVDU9K956CZN8X0DU,15C5F68E-0536-47B0-91FA-BBECB67682AE,2023-09-26_10h56.35.473,WP_VExplicitOC_HL,2022.2.5,Win32,16.1386634,NA,NA,NA,NA,NA,NA,NA,NA,NA,NA,NA,NA,NA,NA,NA,NA,NA,NA,NA,NA,NA,NA,NA,NA,NA,NA,NA,NA,NA,NA,NA,NA,NA,NA,NA,NA,NA,NA,NA,NA,NA,NA,NA,NA,NA,NA,NA,NA,NA,NA,NA,NA,NA,NA,14,0,14,0,1
SUPAMT02660,3TEM0PF1QBW8IRVDU9K956CZN8X0DU,15C5F68E-0536-47B0-91FA-BBECB67682AE,2023-09-26_10h56.35.473,WP_VExplicitOC_HL,2022.2.5,Win32,16.1386634,NA,NA,NA,NA,NA,NA,NA,NA,NA,NA,NA,NA,NA,NA,NA,NA,NA,NA,NA,NA,NA,NA,NA,NA,NA,NA,NA,NA,NA,NA,NA,NA,NA,NA,NA,NA,NA,NA,NA,NA,NA,NA,NA,NA,NA,NA,NA,NA,NA,NA,NA,NA,NA,NA,NA,NA,NA,NA,NA
