participant,session,completion,date,expName,psychopyVersion,OS,frameRate,rating_all.response,rating_all.rt,rating_all.tStart,rndRat1.thisRepN,rndRat1.thisTrialN,rndRat1.thisN,rndRat1.thisIndex,rndRat1.ran,Emo,Labs,Labs2,rating_alt.response,rating_alt.rt,AltC.thisRepN,AltC.thisTrialN,AltC.thisN,AltC.thisIndex,AltC.ran,alt_choices,pic_choices,BottomAlt_Choice,rndRat2.thisRepN,rndRat2.thisTrialN,rndRat2.thisN,rndRat2.thisIndex,rndRat2.ran,rndRat3.thisRepN,rndRat3.thisTrialN,rndRat3.thisN,rndRat3.thisIndex,rndRat3.ran,trials_FC_L.thisRepN,trials_FC_L.thisTrialN,trials_FC_L.thisN,trials_FC_L.thisIndex,trials_FC_L.ran,rating_alt_2.response,rating_alt_2.rt,AltC2.thisRepN,AltC2.thisTrialN,AltC2.thisN,AltC2.thisIndex,AltC2.ran,TopAlt_Choice,rndRat4.thisRepN,rndRat4.thisTrialN,rndRat4.thisN,rndRat4.thisIndex,rndRat4.ran,rndRat5.thisRepN,rndRat5.thisTrialN,rndRat5.thisN,rndRat5.thisIndex,rndRat5.ran,trials_FC_H.thisRepN,trials_FC_H.thisTrialN,trials_FC_H.thisN,trials_FC_H.thisIndex,trials_FC_H.ran
SUPAMT94580,3MTMREQS41H3SATM36MSM0DX4GBWAZ,759403D8-0104-46F8-8494-1454C1036E84,2023-09-27_16h14.29.662,WP_VExplicitOC_LH,2022.2.5,Win32,33.1807021,NA,NA,NA,NA,NA,NA,NA,NA,NA,NA,NA,NA,NA,NA,NA,NA,NA,NA,NA,NA,NA,NA,NA,NA,NA,NA,NA,NA,NA,NA,NA,NA,NA,NA,NA,NA,NA,NA,NA,NA,NA,NA,NA,NA,NA,NA,NA,NA,NA,NA,NA,NA,NA,NA,NA,NA,NA,NA,NA
SUPAMT94580,3MTMREQS41H3SATM36MSM0DX4GBWAZ,759403D8-0104-46F8-8494-1454C1036E84,2023-09-27_16h14.29.662,WP_VExplicitOC_LH,2022.2.5,Win32,33.1807021,NA,NA,NA,NA,NA,NA,NA,NA,NA,NA,NA,NA,NA,NA,NA,NA,NA,NA,NA,NA,NA,NA,NA,NA,NA,NA,NA,NA,NA,NA,NA,NA,NA,NA,NA,NA,NA,NA,NA,NA,NA,NA,NA,NA,NA,NA,NA,NA,NA,NA,NA,NA,NA,NA,NA,NA,NA,NA,NA
SUPAMT94580,3MTMREQS41H3SATM36MSM0DX4GBWAZ,759403D8-0104-46F8-8494-1454C1036E84,2023-09-27_16h14.29.662,WP_VExplicitOC_LH,2022.2.5,Win32,33.1807021,NA,NA,NA,NA,NA,NA,NA,NA,NA,NA,NA,NA,NA,NA,NA,NA,NA,NA,NA,NA,NA,NA,NA,NA,NA,NA,NA,NA,NA,NA,NA,NA,NA,NA,NA,NA,NA,NA,NA,NA,NA,NA,NA,NA,NA,NA,NA,NA,NA,NA,NA,NA,NA,NA,NA,NA,NA,NA,NA
SUPAMT94580,3MTMREQS41H3SATM36MSM0DX4GBWAZ,759403D8-0104-46F8-8494-1454C1036E84,2023-09-27_16h14.29.662,WP_VExplicitOC_LH,2022.2.5,Win32,33.1807021,67.96875,4.1974,2.0174,0,0,0,2,1,bored,"bored, not bored","more bored, less bored",NA,NA,NA,NA,NA,NA,NA,NA,NA,NA,NA,NA,NA,NA,NA,NA,NA,NA,NA,NA,NA,NA,NA,NA,NA,NA,NA,NA,NA,NA,NA,NA,NA,NA,NA,NA,NA,NA,NA,NA,NA,NA,NA,NA,NA,NA,NA,NA
SUPAMT94580,3MTMREQS41H3SATM36MSM0DX4GBWAZ,759403D8-0104-46F8-8494-1454C1036E84,2023-09-27_16h14.29.662,WP_VExplicitOC_LH,2022.2.5,Win32,33.1807021,70.57291667,3.4852,2.0078,0,1,1,1,1,frustrated,"frustrated, not frustrated","more frustrated, less frustrated",NA,NA,NA,NA,NA,NA,NA,NA,NA,NA,NA,NA,NA,NA,NA,NA,NA,NA,NA,NA,NA,NA,NA,NA,NA,NA,NA,NA,NA,NA,NA,NA,NA,NA,NA,NA,NA,NA,NA,NA,NA,NA,NA,NA,NA,NA,NA,NA
SUPAMT94580,3MTMREQS41H3SATM36MSM0DX4GBWAZ,759403D8-0104-46F8-8494-1454C1036E84,2023-09-27_16h14.29.662,WP_VExplicitOC_LH,2022.2.5,Win32,33.1807021,60.67708333,2.9851,2.0141,0,2,2,0,1,happy,"unhappy, happy","less happy, more happy",NA,NA,NA,NA,NA,NA,NA,NA,NA,NA,NA,NA,NA,NA,NA,NA,NA,NA,NA,NA,NA,NA,NA,NA,NA,NA,NA,NA,NA,NA,NA,NA,NA,NA,NA,NA,NA,NA,NA,NA,NA,NA,NA,NA,NA,NA,NA,NA
SUPAMT94580,3MTMREQS41H3SATM36MSM0DX4GBWAZ,759403D8-0104-46F8-8494-1454C1036E84,2023-09-27_16h14.29.662,WP_VExplicitOC_LH,2022.2.5,Win32,33.1807021,NA,NA,NA,NA,NA,NA,NA,NA,NA,NA,NA,NA,NA,NA,NA,NA,NA,NA,NA,NA,NA,NA,NA,NA,NA,NA,NA,NA,NA,NA,NA,NA,NA,NA,NA,NA,NA,NA,NA,NA,NA,NA,NA,NA,NA,NA,NA,NA,NA,NA,NA,NA,NA,NA,NA,NA,NA,NA,NA
SUPAMT94580,3MTMREQS41H3SATM36MSM0DX4GBWAZ,759403D8-0104-46F8-8494-1454C1036E84,2023-09-27_16h14.29.662,WP_VExplicitOC_LH,2022.2.5,Win32,33.1807021,NA,NA,NA,NA,NA,NA,NA,NA,NA,NA,NA,NA,NA,NA,NA,NA,NA,NA,NA,NA,NA,NA,NA,NA,NA,NA,NA,NA,NA,NA,NA,NA,NA,NA,NA,NA,NA,NA,NA,NA,NA,NA,NA,NA,NA,NA,NA,NA,NA,NA,NA,NA,NA,NA,NA,NA,NA,NA,NA
SUPAMT94580,3MTMREQS41H3SATM36MSM0DX4GBWAZ,759403D8-0104-46F8-8494-1454C1036E84,2023-09-27_16h14.29.662,WP_VExplicitOC_LH,2022.2.5,Win32,33.1807021,NA,NA,NA,NA,NA,NA,NA,NA,NA,NA,NA,NA,NA,NA,NA,NA,NA,NA,NA,NA,NA,NA,NA,NA,NA,NA,NA,NA,NA,NA,NA,NA,NA,NA,NA,NA,NA,NA,NA,NA,NA,NA,NA,NA,NA,NA,NA,NA,NA,NA,NA,NA,NA,NA,NA,NA,NA,NA,NA
SUPAMT94580,3MTMREQS41H3SATM36MSM0DX4GBWAZ,759403D8-0104-46F8-8494-1454C1036E84,2023-09-27_16h14.29.662,WP_VExplicitOC_LH,2022.2.5,Win32,33.1807021,NA,NA,NA,NA,NA,NA,NA,NA,NA,NA,NA,NA,NA,NA,NA,NA,NA,NA,NA,NA,NA,NA,NA,NA,NA,NA,NA,NA,NA,NA,NA,NA,NA,NA,NA,NA,NA,NA,NA,NA,NA,NA,NA,NA,NA,NA,NA,NA,NA,NA,NA,NA,NA,NA,NA,NA,NA,NA,NA
SUPAMT94580,3MTMREQS41H3SATM36MSM0DX4GBWAZ,759403D8-0104-46F8-8494-1454C1036E84,2023-09-27_16h14.29.662,WP_VExplicitOC_LH,2022.2.5,Win32,33.1807021,NA,NA,NA,NA,NA,NA,NA,NA,NA,NA,NA,60.67708333,1.5014,0,0,0,0,1,rest (looking at a fixed cross),001.png,NA,NA,NA,NA,NA,NA,NA,NA,NA,NA,NA,NA,NA,NA,NA,NA,NA,NA,NA,NA,NA,NA,NA,NA,NA,NA,NA,NA,NA,NA,NA,NA,NA,NA,NA,NA,NA,NA,NA
SUPAMT94580,3MTMREQS41H3SATM36MSM0DX4GBWAZ,759403D8-0104-46F8-8494-1454C1036E84,2023-09-27_16h14.29.662,WP_VExplicitOC_LH,2022.2.5,Win32,33.1807021,NA,NA,NA,NA,NA,NA,NA,NA,NA,NA,NA,33.33333333,1.9758,0,1,1,1,1,stand up,002.png,NA,NA,NA,NA,NA,NA,NA,NA,NA,NA,NA,NA,NA,NA,NA,NA,NA,NA,NA,NA,NA,NA,NA,NA,NA,NA,NA,NA,NA,NA,NA,NA,NA,NA,NA,NA,NA,NA,NA
SUPAMT94580,3MTMREQS41H3SATM36MSM0DX4GBWAZ,759403D8-0104-46F8-8494-1454C1036E84,2023-09-27_16h14.29.662,WP_VExplicitOC_LH,2022.2.5,Win32,33.1807021,NA,NA,NA,NA,NA,NA,NA,NA,NA,NA,NA,-29.16666667,1.4378,0,2,2,2,1,stretch,003.png,NA,NA,NA,NA,NA,NA,NA,NA,NA,NA,NA,NA,NA,NA,NA,NA,NA,NA,NA,NA,NA,NA,NA,NA,NA,NA,NA,NA,NA,NA,NA,NA,NA,NA,NA,NA,NA,NA,NA
SUPAMT94580,3MTMREQS41H3SATM36MSM0DX4GBWAZ,759403D8-0104-46F8-8494-1454C1036E84,2023-09-27_16h14.29.662,WP_VExplicitOC_LH,2022.2.5,Win32,33.1807021,NA,NA,NA,NA,NA,NA,NA,NA,NA,NA,NA,35.41666667,1.9783,0,3,3,3,1,make a drink,004.png,NA,NA,NA,NA,NA,NA,NA,NA,NA,NA,NA,NA,NA,NA,NA,NA,NA,NA,NA,NA,NA,NA,NA,NA,NA,NA,NA,NA,NA,NA,NA,NA,NA,NA,NA,NA,NA,NA,NA
SUPAMT94580,3MTMREQS41H3SATM36MSM0DX4GBWAZ,759403D8-0104-46F8-8494-1454C1036E84,2023-09-27_16h14.29.662,WP_VExplicitOC_LH,2022.2.5,Win32,33.1807021,NA,NA,NA,NA,NA,NA,NA,NA,NA,NA,NA,-27.86458333,1.3899,0,4,4,4,1,scroll social media,005.png,NA,NA,NA,NA,NA,NA,NA,NA,NA,NA,NA,NA,NA,NA,NA,NA,NA,NA,NA,NA,NA,NA,NA,NA,NA,NA,NA,NA,NA,NA,NA,NA,NA,NA,NA,NA,NA,NA,NA
SUPAMT94580,3MTMREQS41H3SATM36MSM0DX4GBWAZ,759403D8-0104-46F8-8494-1454C1036E84,2023-09-27_16h14.29.662,WP_VExplicitOC_LH,2022.2.5,Win32,33.1807021,NA,NA,NA,NA,NA,NA,NA,NA,NA,NA,NA,26.5625,1.1122,0,5,5,5,1,listen to music,006.png,NA,NA,NA,NA,NA,NA,NA,NA,NA,NA,NA,NA,NA,NA,NA,NA,NA,NA,NA,NA,NA,NA,NA,NA,NA,NA,NA,NA,NA,NA,NA,NA,NA,NA,NA,NA,NA,NA,NA
SUPAMT94580,3MTMREQS41H3SATM36MSM0DX4GBWAZ,759403D8-0104-46F8-8494-1454C1036E84,2023-09-27_16h14.29.662,WP_VExplicitOC_LH,2022.2.5,Win32,33.1807021,NA,NA,NA,NA,NA,NA,NA,NA,NA,NA,NA,43.22916667,2.6066,0,6,6,6,1,daydream,007.png,NA,NA,NA,NA,NA,NA,NA,NA,NA,NA,NA,NA,NA,NA,NA,NA,NA,NA,NA,NA,NA,NA,NA,NA,NA,NA,NA,NA,NA,NA,NA,NA,NA,NA,NA,NA,NA,NA,NA
SUPAMT94580,3MTMREQS41H3SATM36MSM0DX4GBWAZ,759403D8-0104-46F8-8494-1454C1036E84,2023-09-27_16h14.29.662,WP_VExplicitOC_LH,2022.2.5,Win32,33.1807021,NA,NA,NA,NA,NA,NA,NA,NA,NA,NA,NA,44.27083333,1.2077,0,7,7,7,1,watch a short animation,008.png,NA,NA,NA,NA,NA,NA,NA,NA,NA,NA,NA,NA,NA,NA,NA,NA,NA,NA,NA,NA,NA,NA,NA,NA,NA,NA,NA,NA,NA,NA,NA,NA,NA,NA,NA,NA,NA,NA,NA
SUPAMT94580,3MTMREQS41H3SATM36MSM0DX4GBWAZ,759403D8-0104-46F8-8494-1454C1036E84,2023-09-27_16h14.29.662,WP_VExplicitOC_LH,2022.2.5,Win32,33.1807021,NA,NA,NA,NA,NA,NA,NA,NA,NA,NA,NA,50.26041667,1.5422,0,8,8,8,1,read a novel,009.png,NA,NA,NA,NA,NA,NA,NA,NA,NA,NA,NA,NA,NA,NA,NA,NA,NA,NA,NA,NA,NA,NA,NA,NA,NA,NA,NA,NA,NA,NA,NA,NA,NA,NA,NA,NA,NA,NA,NA
SUPAMT94580,3MTMREQS41H3SATM36MSM0DX4GBWAZ,759403D8-0104-46F8-8494-1454C1036E84,2023-09-27_16h14.29.662,WP_VExplicitOC_LH,2022.2.5,Win32,33.1807021,NA,NA,NA,NA,NA,NA,NA,NA,NA,NA,NA,45.05208333,1.2106,0,9,9,9,1,read the news,010.png,NA,NA,NA,NA,NA,NA,NA,NA,NA,NA,NA,NA,NA,NA,NA,NA,NA,NA,NA,NA,NA,NA,NA,NA,NA,NA,NA,NA,NA,NA,NA,NA,NA,NA,NA,NA,NA,NA,NA
SUPAMT94580,3MTMREQS41H3SATM36MSM0DX4GBWAZ,759403D8-0104-46F8-8494-1454C1036E84,2023-09-27_16h14.29.662,WP_VExplicitOC_LH,2022.2.5,Win32,33.1807021,NA,NA,NA,NA,NA,NA,NA,NA,NA,NA,NA,NA,NA,NA,NA,NA,NA,NA,NA,NA,NA,NA,NA,NA,NA,NA,NA,NA,NA,NA,NA,NA,NA,NA,NA,NA,NA,NA,NA,NA,NA,NA,NA,NA,NA,NA,NA,NA,NA,NA,NA,NA,NA,NA,NA,NA,NA,NA,NA
SUPAMT94580,3MTMREQS41H3SATM36MSM0DX4GBWAZ,759403D8-0104-46F8-8494-1454C1036E84,2023-09-27_16h14.29.662,WP_VExplicitOC_LH,2022.2.5,Win32,33.1807021,NA,NA,NA,NA,NA,NA,NA,NA,NA,NA,NA,NA,NA,NA,NA,NA,NA,NA,NA,NA,stretch,NA,NA,NA,NA,NA,NA,NA,NA,NA,NA,NA,NA,NA,NA,NA,NA,NA,NA,NA,NA,NA,NA,NA,NA,NA,NA,NA,NA,NA,NA,NA,NA,NA,NA,NA,NA,NA,NA
SUPAMT94580,3MTMREQS41H3SATM36MSM0DX4GBWAZ,759403D8-0104-46F8-8494-1454C1036E84,2023-09-27_16h14.29.662,WP_VExplicitOC_LH,2022.2.5,Win32,33.1807021,66.92708333,3.684,2.0015,NA,NA,NA,NA,NA,happy,"unhappy, happy","less happy, more happy",NA,NA,NA,NA,NA,NA,NA,NA,NA,NA,0,0,0,0,1,NA,NA,NA,NA,NA,NA,NA,NA,NA,NA,NA,NA,NA,NA,NA,NA,NA,NA,NA,NA,NA,NA,NA,NA,NA,NA,NA,NA,NA,NA,NA,NA,NA
SUPAMT94580,3MTMREQS41H3SATM36MSM0DX4GBWAZ,759403D8-0104-46F8-8494-1454C1036E84,2023-09-27_16h14.29.662,WP_VExplicitOC_LH,2022.2.5,Win32,33.1807021,67.70833333,3.1181,2.0106,NA,NA,NA,NA,NA,bored,"bored, not bored","more bored, less bored",NA,NA,NA,NA,NA,NA,NA,NA,NA,NA,0,1,1,2,1,NA,NA,NA,NA,NA,NA,NA,NA,NA,NA,NA,NA,NA,NA,NA,NA,NA,NA,NA,NA,NA,NA,NA,NA,NA,NA,NA,NA,NA,NA,NA,NA,NA
SUPAMT94580,3MTMREQS41H3SATM36MSM0DX4GBWAZ,759403D8-0104-46F8-8494-1454C1036E84,2023-09-27_16h14.29.662,WP_VExplicitOC_LH,2022.2.5,Win32,33.1807021,63.80208333,2.9135,2.0014,NA,NA,NA,NA,NA,frustrated,"frustrated, not frustrated","more frustrated, less frustrated",NA,NA,NA,NA,NA,NA,NA,NA,NA,NA,0,2,2,1,1,NA,NA,NA,NA,NA,NA,NA,NA,NA,NA,NA,NA,NA,NA,NA,NA,NA,NA,NA,NA,NA,NA,NA,NA,NA,NA,NA,NA,NA,NA,NA,NA,NA
SUPAMT94580,3MTMREQS41H3SATM36MSM0DX4GBWAZ,759403D8-0104-46F8-8494-1454C1036E84,2023-09-27_16h14.29.662,WP_VExplicitOC_LH,2022.2.5,Win32,33.1807021,NA,NA,NA,NA,NA,NA,NA,NA,NA,NA,NA,NA,NA,NA,NA,NA,NA,NA,NA,NA,NA,NA,NA,NA,NA,NA,NA,NA,NA,NA,NA,NA,NA,NA,NA,NA,NA,NA,NA,NA,NA,NA,NA,NA,NA,NA,NA,NA,NA,NA,NA,NA,NA,NA,NA,NA,NA,NA,NA
SUPAMT94580,3MTMREQS41H3SATM36MSM0DX4GBWAZ,759403D8-0104-46F8-8494-1454C1036E84,2023-09-27_16h14.29.662,WP_VExplicitOC_LH,2022.2.5,Win32,33.1807021,NA,NA,NA,NA,NA,NA,NA,NA,NA,NA,NA,NA,NA,NA,NA,NA,NA,NA,NA,NA,NA,NA,NA,NA,NA,NA,NA,NA,NA,NA,NA,NA,NA,NA,NA,NA,NA,NA,NA,NA,NA,NA,NA,NA,NA,NA,NA,NA,NA,NA,NA,NA,NA,NA,NA,NA,NA,NA,NA
SUPAMT94580,3MTMREQS41H3SATM36MSM0DX4GBWAZ,759403D8-0104-46F8-8494-1454C1036E84,2023-09-27_16h14.29.662,WP_VExplicitOC_LH,2022.2.5,Win32,33.1807021,64.58333333,3.3062,2.0157,NA,NA,NA,NA,NA,bored,"bored, not bored","more bored, less bored",NA,NA,NA,NA,NA,NA,NA,NA,NA,NA,NA,NA,NA,NA,NA,0,0,0,2,1,NA,NA,NA,NA,NA,NA,NA,NA,NA,NA,NA,NA,NA,NA,NA,NA,NA,NA,NA,NA,NA,NA,NA,NA,NA,NA,NA,NA
SUPAMT94580,3MTMREQS41H3SATM36MSM0DX4GBWAZ,759403D8-0104-46F8-8494-1454C1036E84,2023-09-27_16h14.29.662,WP_VExplicitOC_LH,2022.2.5,Win32,33.1807021,53.90625,3.1571,2.0149,NA,NA,NA,NA,NA,frustrated,"frustrated, not frustrated","more frustrated, less frustrated",NA,NA,NA,NA,NA,NA,NA,NA,NA,NA,NA,NA,NA,NA,NA,0,1,1,1,1,NA,NA,NA,NA,NA,NA,NA,NA,NA,NA,NA,NA,NA,NA,NA,NA,NA,NA,NA,NA,NA,NA,NA,NA,NA,NA,NA,NA
SUPAMT94580,3MTMREQS41H3SATM36MSM0DX4GBWAZ,759403D8-0104-46F8-8494-1454C1036E84,2023-09-27_16h14.29.662,WP_VExplicitOC_LH,2022.2.5,Win32,33.1807021,64.84375,3.1789,2.0371,NA,NA,NA,NA,NA,happy,"unhappy, happy","less happy, more happy",NA,NA,NA,NA,NA,NA,NA,NA,NA,NA,NA,NA,NA,NA,NA,0,2,2,0,1,NA,NA,NA,NA,NA,NA,NA,NA,NA,NA,NA,NA,NA,NA,NA,NA,NA,NA,NA,NA,NA,NA,NA,NA,NA,NA,NA,NA
SUPAMT94580,3MTMREQS41H3SATM36MSM0DX4GBWAZ,759403D8-0104-46F8-8494-1454C1036E84,2023-09-27_16h14.29.662,WP_VExplicitOC_LH,2022.2.5,Win32,33.1807021,NA,NA,NA,NA,NA,NA,NA,NA,NA,NA,NA,NA,NA,NA,NA,NA,NA,NA,NA,NA,NA,NA,NA,NA,NA,NA,NA,NA,NA,NA,NA,0,0,0,0,1,NA,NA,NA,NA,NA,NA,NA,NA,NA,NA,NA,NA,NA,NA,NA,NA,NA,NA,NA,NA,NA,NA,NA
SUPAMT94580,3MTMREQS41H3SATM36MSM0DX4GBWAZ,759403D8-0104-46F8-8494-1454C1036E84,2023-09-27_16h14.29.662,WP_VExplicitOC_LH,2022.2.5,Win32,33.1807021,58.07291667,3.7655,2.0057,NA,NA,NA,NA,NA,happy,"unhappy, happy","less happy, more happy",NA,NA,NA,NA,NA,NA,NA,NA,NA,NA,NA,NA,NA,NA,NA,0,0,0,0,1,NA,NA,NA,NA,NA,NA,NA,NA,NA,NA,NA,NA,NA,NA,NA,NA,NA,NA,NA,NA,NA,NA,NA,NA,NA,NA,NA,NA
SUPAMT94580,3MTMREQS41H3SATM36MSM0DX4GBWAZ,759403D8-0104-46F8-8494-1454C1036E84,2023-09-27_16h14.29.662,WP_VExplicitOC_LH,2022.2.5,Win32,33.1807021,66.92708333,2.9959,2.0541,NA,NA,NA,NA,NA,bored,"bored, not bored","more bored, less bored",NA,NA,NA,NA,NA,NA,NA,NA,NA,NA,NA,NA,NA,NA,NA,0,1,1,2,1,NA,NA,NA,NA,NA,NA,NA,NA,NA,NA,NA,NA,NA,NA,NA,NA,NA,NA,NA,NA,NA,NA,NA,NA,NA,NA,NA,NA
SUPAMT94580,3MTMREQS41H3SATM36MSM0DX4GBWAZ,759403D8-0104-46F8-8494-1454C1036E84,2023-09-27_16h14.29.662,WP_VExplicitOC_LH,2022.2.5,Win32,33.1807021,60.41666667,3.007,2.0383,NA,NA,NA,NA,NA,frustrated,"frustrated, not frustrated","more frustrated, less frustrated",NA,NA,NA,NA,NA,NA,NA,NA,NA,NA,NA,NA,NA,NA,NA,0,2,2,1,1,NA,NA,NA,NA,NA,NA,NA,NA,NA,NA,NA,NA,NA,NA,NA,NA,NA,NA,NA,NA,NA,NA,NA,NA,NA,NA,NA,NA
SUPAMT94580,3MTMREQS41H3SATM36MSM0DX4GBWAZ,759403D8-0104-46F8-8494-1454C1036E84,2023-09-27_16h14.29.662,WP_VExplicitOC_LH,2022.2.5,Win32,33.1807021,NA,NA,NA,NA,NA,NA,NA,NA,NA,NA,NA,NA,NA,NA,NA,NA,NA,NA,NA,NA,NA,NA,NA,NA,NA,NA,NA,NA,NA,NA,NA,1,0,1,0,1,NA,NA,NA,NA,NA,NA,NA,NA,NA,NA,NA,NA,NA,NA,NA,NA,NA,NA,NA,NA,NA,NA,NA
SUPAMT94580,3MTMREQS41H3SATM36MSM0DX4GBWAZ,759403D8-0104-46F8-8494-1454C1036E84,2023-09-27_16h14.29.662,WP_VExplicitOC_LH,2022.2.5,Win32,33.1807021,66.66666667,3.3985,2.0332,NA,NA,NA,NA,NA,bored,"bored, not bored","more bored, less bored",NA,NA,NA,NA,NA,NA,NA,NA,NA,NA,NA,NA,NA,NA,NA,0,0,0,2,1,NA,NA,NA,NA,NA,NA,NA,NA,NA,NA,NA,NA,NA,NA,NA,NA,NA,NA,NA,NA,NA,NA,NA,NA,NA,NA,NA,NA
SUPAMT94580,3MTMREQS41H3SATM36MSM0DX4GBWAZ,759403D8-0104-46F8-8494-1454C1036E84,2023-09-27_16h14.29.662,WP_VExplicitOC_LH,2022.2.5,Win32,33.1807021,57.8125,2.9189,2.0204,NA,NA,NA,NA,NA,happy,"unhappy, happy","less happy, more happy",NA,NA,NA,NA,NA,NA,NA,NA,NA,NA,NA,NA,NA,NA,NA,0,1,1,0,1,NA,NA,NA,NA,NA,NA,NA,NA,NA,NA,NA,NA,NA,NA,NA,NA,NA,NA,NA,NA,NA,NA,NA,NA,NA,NA,NA,NA
SUPAMT94580,3MTMREQS41H3SATM36MSM0DX4GBWAZ,759403D8-0104-46F8-8494-1454C1036E84,2023-09-27_16h14.29.662,WP_VExplicitOC_LH,2022.2.5,Win32,33.1807021,68.75,3.1398,2.0338,NA,NA,NA,NA,NA,frustrated,"frustrated, not frustrated","more frustrated, less frustrated",NA,NA,NA,NA,NA,NA,NA,NA,NA,NA,NA,NA,NA,NA,NA,0,2,2,1,1,NA,NA,NA,NA,NA,NA,NA,NA,NA,NA,NA,NA,NA,NA,NA,NA,NA,NA,NA,NA,NA,NA,NA,NA,NA,NA,NA,NA
SUPAMT94580,3MTMREQS41H3SATM36MSM0DX4GBWAZ,759403D8-0104-46F8-8494-1454C1036E84,2023-09-27_16h14.29.662,WP_VExplicitOC_LH,2022.2.5,Win32,33.1807021,NA,NA,NA,NA,NA,NA,NA,NA,NA,NA,NA,NA,NA,NA,NA,NA,NA,NA,NA,NA,NA,NA,NA,NA,NA,NA,NA,NA,NA,NA,NA,2,0,2,0,1,NA,NA,NA,NA,NA,NA,NA,NA,NA,NA,NA,NA,NA,NA,NA,NA,NA,NA,NA,NA,NA,NA,NA
SUPAMT94580,3MTMREQS41H3SATM36MSM0DX4GBWAZ,759403D8-0104-46F8-8494-1454C1036E84,2023-09-27_16h14.29.662,WP_VExplicitOC_LH,2022.2.5,Win32,33.1807021,67.70833333,7.1777,2.009,NA,NA,NA,NA,NA,frustrated,"frustrated, not frustrated","more frustrated, less frustrated",NA,NA,NA,NA,NA,NA,NA,NA,NA,NA,NA,NA,NA,NA,NA,0,0,0,1,1,NA,NA,NA,NA,NA,NA,NA,NA,NA,NA,NA,NA,NA,NA,NA,NA,NA,NA,NA,NA,NA,NA,NA,NA,NA,NA,NA,NA
SUPAMT94580,3MTMREQS41H3SATM36MSM0DX4GBWAZ,759403D8-0104-46F8-8494-1454C1036E84,2023-09-27_16h14.29.662,WP_VExplicitOC_LH,2022.2.5,Win32,33.1807021,71.61458333,3.4478,2.0189,NA,NA,NA,NA,NA,happy,"unhappy, happy","less happy, more happy",NA,NA,NA,NA,NA,NA,NA,NA,NA,NA,NA,NA,NA,NA,NA,0,1,1,0,1,NA,NA,NA,NA,NA,NA,NA,NA,NA,NA,NA,NA,NA,NA,NA,NA,NA,NA,NA,NA,NA,NA,NA,NA,NA,NA,NA,NA
SUPAMT94580,3MTMREQS41H3SATM36MSM0DX4GBWAZ,759403D8-0104-46F8-8494-1454C1036E84,2023-09-27_16h14.29.662,WP_VExplicitOC_LH,2022.2.5,Win32,33.1807021,71.35416667,3.4035,2.0461,NA,NA,NA,NA,NA,bored,"bored, not bored","more bored, less bored",NA,NA,NA,NA,NA,NA,NA,NA,NA,NA,NA,NA,NA,NA,NA,0,2,2,2,1,NA,NA,NA,NA,NA,NA,NA,NA,NA,NA,NA,NA,NA,NA,NA,NA,NA,NA,NA,NA,NA,NA,NA,NA,NA,NA,NA,NA
SUPAMT94580,3MTMREQS41H3SATM36MSM0DX4GBWAZ,759403D8-0104-46F8-8494-1454C1036E84,2023-09-27_16h14.29.662,WP_VExplicitOC_LH,2022.2.5,Win32,33.1807021,NA,NA,NA,NA,NA,NA,NA,NA,NA,NA,NA,NA,NA,NA,NA,NA,NA,NA,NA,NA,NA,NA,NA,NA,NA,NA,NA,NA,NA,NA,NA,3,0,3,0,1,NA,NA,NA,NA,NA,NA,NA,NA,NA,NA,NA,NA,NA,NA,NA,NA,NA,NA,NA,NA,NA,NA,NA
SUPAMT94580,3MTMREQS41H3SATM36MSM0DX4GBWAZ,759403D8-0104-46F8-8494-1454C1036E84,2023-09-27_16h14.29.662,WP_VExplicitOC_LH,2022.2.5,Win32,33.1807021,58.59375,3.0896,2.0171,NA,NA,NA,NA,NA,frustrated,"frustrated, not frustrated","more frustrated, less frustrated",NA,NA,NA,NA,NA,NA,NA,NA,NA,NA,NA,NA,NA,NA,NA,0,0,0,1,1,NA,NA,NA,NA,NA,NA,NA,NA,NA,NA,NA,NA,NA,NA,NA,NA,NA,NA,NA,NA,NA,NA,NA,NA,NA,NA,NA,NA
SUPAMT94580,3MTMREQS41H3SATM36MSM0DX4GBWAZ,759403D8-0104-46F8-8494-1454C1036E84,2023-09-27_16h14.29.662,WP_VExplicitOC_LH,2022.2.5,Win32,33.1807021,65.88541667,4.1761,2.0098,NA,NA,NA,NA,NA,bored,"bored, not bored","more bored, less bored",NA,NA,NA,NA,NA,NA,NA,NA,NA,NA,NA,NA,NA,NA,NA,0,1,1,2,1,NA,NA,NA,NA,NA,NA,NA,NA,NA,NA,NA,NA,NA,NA,NA,NA,NA,NA,NA,NA,NA,NA,NA,NA,NA,NA,NA,NA
SUPAMT94580,3MTMREQS41H3SATM36MSM0DX4GBWAZ,759403D8-0104-46F8-8494-1454C1036E84,2023-09-27_16h14.29.662,WP_VExplicitOC_LH,2022.2.5,Win32,33.1807021,66.92708333,3.2458,2.0423,NA,NA,NA,NA,NA,happy,"unhappy, happy","less happy, more happy",NA,NA,NA,NA,NA,NA,NA,NA,NA,NA,NA,NA,NA,NA,NA,0,2,2,0,1,NA,NA,NA,NA,NA,NA,NA,NA,NA,NA,NA,NA,NA,NA,NA,NA,NA,NA,NA,NA,NA,NA,NA,NA,NA,NA,NA,NA
SUPAMT94580,3MTMREQS41H3SATM36MSM0DX4GBWAZ,759403D8-0104-46F8-8494-1454C1036E84,2023-09-27_16h14.29.662,WP_VExplicitOC_LH,2022.2.5,Win32,33.1807021,NA,NA,NA,NA,NA,NA,NA,NA,NA,NA,NA,NA,NA,NA,NA,NA,NA,NA,NA,NA,NA,NA,NA,NA,NA,NA,NA,NA,NA,NA,NA,4,0,4,0,1,NA,NA,NA,NA,NA,NA,NA,NA,NA,NA,NA,NA,NA,NA,NA,NA,NA,NA,NA,NA,NA,NA,NA
SUPAMT94580,3MTMREQS41H3SATM36MSM0DX4GBWAZ,759403D8-0104-46F8-8494-1454C1036E84,2023-09-27_16h14.29.662,WP_VExplicitOC_LH,2022.2.5,Win32,33.1807021,65.36458333,3.4485,2.014,NA,NA,NA,NA,NA,frustrated,"frustrated, not frustrated","more frustrated, less frustrated",NA,NA,NA,NA,NA,NA,NA,NA,NA,NA,NA,NA,NA,NA,NA,0,0,0,1,1,NA,NA,NA,NA,NA,NA,NA,NA,NA,NA,NA,NA,NA,NA,NA,NA,NA,NA,NA,NA,NA,NA,NA,NA,NA,NA,NA,NA
SUPAMT94580,3MTMREQS41H3SATM36MSM0DX4GBWAZ,759403D8-0104-46F8-8494-1454C1036E84,2023-09-27_16h14.29.662,WP_VExplicitOC_LH,2022.2.5,Win32,33.1807021,52.86458333,2.92,2.004,NA,NA,NA,NA,NA,happy,"unhappy, happy","less happy, more happy",NA,NA,NA,NA,NA,NA,NA,NA,NA,NA,NA,NA,NA,NA,NA,0,1,1,0,1,NA,NA,NA,NA,NA,NA,NA,NA,NA,NA,NA,NA,NA,NA,NA,NA,NA,NA,NA,NA,NA,NA,NA,NA,NA,NA,NA,NA
SUPAMT94580,3MTMREQS41H3SATM36MSM0DX4GBWAZ,759403D8-0104-46F8-8494-1454C1036E84,2023-09-27_16h14.29.662,WP_VExplicitOC_LH,2022.2.5,Win32,33.1807021,65.625,3.2344,2.0469,NA,NA,NA,NA,NA,bored,"bored, not bored","more bored, less bored",NA,NA,NA,NA,NA,NA,NA,NA,NA,NA,NA,NA,NA,NA,NA,0,2,2,2,1,NA,NA,NA,NA,NA,NA,NA,NA,NA,NA,NA,NA,NA,NA,NA,NA,NA,NA,NA,NA,NA,NA,NA,NA,NA,NA,NA,NA
SUPAMT94580,3MTMREQS41H3SATM36MSM0DX4GBWAZ,759403D8-0104-46F8-8494-1454C1036E84,2023-09-27_16h14.29.662,WP_VExplicitOC_LH,2022.2.5,Win32,33.1807021,NA,NA,NA,NA,NA,NA,NA,NA,NA,NA,NA,NA,NA,NA,NA,NA,NA,NA,NA,NA,NA,NA,NA,NA,NA,NA,NA,NA,NA,NA,NA,5,0,5,0,1,NA,NA,NA,NA,NA,NA,NA,NA,NA,NA,NA,NA,NA,NA,NA,NA,NA,NA,NA,NA,NA,NA,NA
SUPAMT94580,3MTMREQS41H3SATM36MSM0DX4GBWAZ,759403D8-0104-46F8-8494-1454C1036E84,2023-09-27_16h14.29.662,WP_VExplicitOC_LH,2022.2.5,Win32,33.1807021,55.98958333,4.0073,2.0133,NA,NA,NA,NA,NA,frustrated,"frustrated, not frustrated","more frustrated, less frustrated",NA,NA,NA,NA,NA,NA,NA,NA,NA,NA,NA,NA,NA,NA,NA,0,0,0,1,1,NA,NA,NA,NA,NA,NA,NA,NA,NA,NA,NA,NA,NA,NA,NA,NA,NA,NA,NA,NA,NA,NA,NA,NA,NA,NA,NA,NA
SUPAMT94580,3MTMREQS41H3SATM36MSM0DX4GBWAZ,759403D8-0104-46F8-8494-1454C1036E84,2023-09-27_16h14.29.662,WP_VExplicitOC_LH,2022.2.5,Win32,33.1807021,68.75,3.6032,2.0186,NA,NA,NA,NA,NA,happy,"unhappy, happy","less happy, more happy",NA,NA,NA,NA,NA,NA,NA,NA,NA,NA,NA,NA,NA,NA,NA,0,1,1,0,1,NA,NA,NA,NA,NA,NA,NA,NA,NA,NA,NA,NA,NA,NA,NA,NA,NA,NA,NA,NA,NA,NA,NA,NA,NA,NA,NA,NA
SUPAMT94580,3MTMREQS41H3SATM36MSM0DX4GBWAZ,759403D8-0104-46F8-8494-1454C1036E84,2023-09-27_16h14.29.662,WP_VExplicitOC_LH,2022.2.5,Win32,33.1807021,75.78125,2.9843,2.0175,NA,NA,NA,NA,NA,bored,"bored, not bored","more bored, less bored",NA,NA,NA,NA,NA,NA,NA,NA,NA,NA,NA,NA,NA,NA,NA,0,2,2,2,1,NA,NA,NA,NA,NA,NA,NA,NA,NA,NA,NA,NA,NA,NA,NA,NA,NA,NA,NA,NA,NA,NA,NA,NA,NA,NA,NA,NA
SUPAMT94580,3MTMREQS41H3SATM36MSM0DX4GBWAZ,759403D8-0104-46F8-8494-1454C1036E84,2023-09-27_16h14.29.662,WP_VExplicitOC_LH,2022.2.5,Win32,33.1807021,NA,NA,NA,NA,NA,NA,NA,NA,NA,NA,NA,NA,NA,NA,NA,NA,NA,NA,NA,NA,NA,NA,NA,NA,NA,NA,NA,NA,NA,NA,NA,6,0,6,0,1,NA,NA,NA,NA,NA,NA,NA,NA,NA,NA,NA,NA,NA,NA,NA,NA,NA,NA,NA,NA,NA,NA,NA
SUPAMT94580,3MTMREQS41H3SATM36MSM0DX4GBWAZ,759403D8-0104-46F8-8494-1454C1036E84,2023-09-27_16h14.29.662,WP_VExplicitOC_LH,2022.2.5,Win32,33.1807021,60.41666667,5.6594,2.011,NA,NA,NA,NA,NA,happy,"unhappy, happy","less happy, more happy",NA,NA,NA,NA,NA,NA,NA,NA,NA,NA,NA,NA,NA,NA,NA,0,0,0,0,1,NA,NA,NA,NA,NA,NA,NA,NA,NA,NA,NA,NA,NA,NA,NA,NA,NA,NA,NA,NA,NA,NA,NA,NA,NA,NA,NA,NA
SUPAMT94580,3MTMREQS41H3SATM36MSM0DX4GBWAZ,759403D8-0104-46F8-8494-1454C1036E84,2023-09-27_16h14.29.662,WP_VExplicitOC_LH,2022.2.5,Win32,33.1807021,66.92708333,3.4848,2.0326,NA,NA,NA,NA,NA,frustrated,"frustrated, not frustrated","more frustrated, less frustrated",NA,NA,NA,NA,NA,NA,NA,NA,NA,NA,NA,NA,NA,NA,NA,0,1,1,1,1,NA,NA,NA,NA,NA,NA,NA,NA,NA,NA,NA,NA,NA,NA,NA,NA,NA,NA,NA,NA,NA,NA,NA,NA,NA,NA,NA,NA
SUPAMT94580,3MTMREQS41H3SATM36MSM0DX4GBWAZ,759403D8-0104-46F8-8494-1454C1036E84,2023-09-27_16h14.29.662,WP_VExplicitOC_LH,2022.2.5,Win32,33.1807021,67.44791667,3.9359,2.0034,NA,NA,NA,NA,NA,bored,"bored, not bored","more bored, less bored",NA,NA,NA,NA,NA,NA,NA,NA,NA,NA,NA,NA,NA,NA,NA,0,2,2,2,1,NA,NA,NA,NA,NA,NA,NA,NA,NA,NA,NA,NA,NA,NA,NA,NA,NA,NA,NA,NA,NA,NA,NA,NA,NA,NA,NA,NA
SUPAMT94580,3MTMREQS41H3SATM36MSM0DX4GBWAZ,759403D8-0104-46F8-8494-1454C1036E84,2023-09-27_16h14.29.662,WP_VExplicitOC_LH,2022.2.5,Win32,33.1807021,NA,NA,NA,NA,NA,NA,NA,NA,NA,NA,NA,NA,NA,NA,NA,NA,NA,NA,NA,NA,NA,NA,NA,NA,NA,NA,NA,NA,NA,NA,NA,7,0,7,0,1,NA,NA,NA,NA,NA,NA,NA,NA,NA,NA,NA,NA,NA,NA,NA,NA,NA,NA,NA,NA,NA,NA,NA
SUPAMT94580,3MTMREQS41H3SATM36MSM0DX4GBWAZ,759403D8-0104-46F8-8494-1454C1036E84,2023-09-27_16h14.29.662,WP_VExplicitOC_LH,2022.2.5,Win32,33.1807021,62.76041667,4.9853,2.039,NA,NA,NA,NA,NA,bored,"bored, not bored","more bored, less bored",NA,NA,NA,NA,NA,NA,NA,NA,NA,NA,NA,NA,NA,NA,NA,0,0,0,2,1,NA,NA,NA,NA,NA,NA,NA,NA,NA,NA,NA,NA,NA,NA,NA,NA,NA,NA,NA,NA,NA,NA,NA,NA,NA,NA,NA,NA
SUPAMT94580,3MTMREQS41H3SATM36MSM0DX4GBWAZ,759403D8-0104-46F8-8494-1454C1036E84,2023-09-27_16h14.29.662,WP_VExplicitOC_LH,2022.2.5,Win32,33.1807021,60.9375,3.0041,2.0085,NA,NA,NA,NA,NA,frustrated,"frustrated, not frustrated","more frustrated, less frustrated",NA,NA,NA,NA,NA,NA,NA,NA,NA,NA,NA,NA,NA,NA,NA,0,1,1,1,1,NA,NA,NA,NA,NA,NA,NA,NA,NA,NA,NA,NA,NA,NA,NA,NA,NA,NA,NA,NA,NA,NA,NA,NA,NA,NA,NA,NA
SUPAMT94580,3MTMREQS41H3SATM36MSM0DX4GBWAZ,759403D8-0104-46F8-8494-1454C1036E84,2023-09-27_16h14.29.662,WP_VExplicitOC_LH,2022.2.5,Win32,33.1807021,60.9375,3.7875,2.0212,NA,NA,NA,NA,NA,happy,"unhappy, happy","less happy, more happy",NA,NA,NA,NA,NA,NA,NA,NA,NA,NA,NA,NA,NA,NA,NA,0,2,2,0,1,NA,NA,NA,NA,NA,NA,NA,NA,NA,NA,NA,NA,NA,NA,NA,NA,NA,NA,NA,NA,NA,NA,NA,NA,NA,NA,NA,NA
SUPAMT94580,3MTMREQS41H3SATM36MSM0DX4GBWAZ,759403D8-0104-46F8-8494-1454C1036E84,2023-09-27_16h14.29.662,WP_VExplicitOC_LH,2022.2.5,Win32,33.1807021,NA,NA,NA,NA,NA,NA,NA,NA,NA,NA,NA,NA,NA,NA,NA,NA,NA,NA,NA,NA,NA,NA,NA,NA,NA,NA,NA,NA,NA,NA,NA,8,0,8,0,1,NA,NA,NA,NA,NA,NA,NA,NA,NA,NA,NA,NA,NA,NA,NA,NA,NA,NA,NA,NA,NA,NA,NA
SUPAMT94580,3MTMREQS41H3SATM36MSM0DX4GBWAZ,759403D8-0104-46F8-8494-1454C1036E84,2023-09-27_16h14.29.662,WP_VExplicitOC_LH,2022.2.5,Win32,33.1807021,65.10416667,4.3958,2.0428,NA,NA,NA,NA,NA,frustrated,"frustrated, not frustrated","more frustrated, less frustrated",NA,NA,NA,NA,NA,NA,NA,NA,NA,NA,NA,NA,NA,NA,NA,0,0,0,1,1,NA,NA,NA,NA,NA,NA,NA,NA,NA,NA,NA,NA,NA,NA,NA,NA,NA,NA,NA,NA,NA,NA,NA,NA,NA,NA,NA,NA
SUPAMT94580,3MTMREQS41H3SATM36MSM0DX4GBWAZ,759403D8-0104-46F8-8494-1454C1036E84,2023-09-27_16h14.29.662,WP_VExplicitOC_LH,2022.2.5,Win32,33.1807021,65.10416667,4.4373,2.0124,NA,NA,NA,NA,NA,bored,"bored, not bored","more bored, less bored",NA,NA,NA,NA,NA,NA,NA,NA,NA,NA,NA,NA,NA,NA,NA,0,1,1,2,1,NA,NA,NA,NA,NA,NA,NA,NA,NA,NA,NA,NA,NA,NA,NA,NA,NA,NA,NA,NA,NA,NA,NA,NA,NA,NA,NA,NA
SUPAMT94580,3MTMREQS41H3SATM36MSM0DX4GBWAZ,759403D8-0104-46F8-8494-1454C1036E84,2023-09-27_16h14.29.662,WP_VExplicitOC_LH,2022.2.5,Win32,33.1807021,64.0625,3.465,2.0356,NA,NA,NA,NA,NA,happy,"unhappy, happy","less happy, more happy",NA,NA,NA,NA,NA,NA,NA,NA,NA,NA,NA,NA,NA,NA,NA,0,2,2,0,1,NA,NA,NA,NA,NA,NA,NA,NA,NA,NA,NA,NA,NA,NA,NA,NA,NA,NA,NA,NA,NA,NA,NA,NA,NA,NA,NA,NA
SUPAMT94580,3MTMREQS41H3SATM36MSM0DX4GBWAZ,759403D8-0104-46F8-8494-1454C1036E84,2023-09-27_16h14.29.662,WP_VExplicitOC_LH,2022.2.5,Win32,33.1807021,NA,NA,NA,NA,NA,NA,NA,NA,NA,NA,NA,NA,NA,NA,NA,NA,NA,NA,NA,NA,NA,NA,NA,NA,NA,NA,NA,NA,NA,NA,NA,9,0,9,0,1,NA,NA,NA,NA,NA,NA,NA,NA,NA,NA,NA,NA,NA,NA,NA,NA,NA,NA,NA,NA,NA,NA,NA
SUPAMT94580,3MTMREQS41H3SATM36MSM0DX4GBWAZ,759403D8-0104-46F8-8494-1454C1036E84,2023-09-27_16h14.29.662,WP_VExplicitOC_LH,2022.2.5,Win32,33.1807021,73.17708333,4.5825,2.0183,NA,NA,NA,NA,NA,bored,"bored, not bored","more bored, less bored",NA,NA,NA,NA,NA,NA,NA,NA,NA,NA,NA,NA,NA,NA,NA,0,0,0,2,1,NA,NA,NA,NA,NA,NA,NA,NA,NA,NA,NA,NA,NA,NA,NA,NA,NA,NA,NA,NA,NA,NA,NA,NA,NA,NA,NA,NA
SUPAMT94580,3MTMREQS41H3SATM36MSM0DX4GBWAZ,759403D8-0104-46F8-8494-1454C1036E84,2023-09-27_16h14.29.662,WP_VExplicitOC_LH,2022.2.5,Win32,33.1807021,70.83333333,3.2325,2.0427,NA,NA,NA,NA,NA,frustrated,"frustrated, not frustrated","more frustrated, less frustrated",NA,NA,NA,NA,NA,NA,NA,NA,NA,NA,NA,NA,NA,NA,NA,0,1,1,1,1,NA,NA,NA,NA,NA,NA,NA,NA,NA,NA,NA,NA,NA,NA,NA,NA,NA,NA,NA,NA,NA,NA,NA,NA,NA,NA,NA,NA
SUPAMT94580,3MTMREQS41H3SATM36MSM0DX4GBWAZ,759403D8-0104-46F8-8494-1454C1036E84,2023-09-27_16h14.29.662,WP_VExplicitOC_LH,2022.2.5,Win32,33.1807021,66.14583333,3.914,2.025,NA,NA,NA,NA,NA,happy,"unhappy, happy","less happy, more happy",NA,NA,NA,NA,NA,NA,NA,NA,NA,NA,NA,NA,NA,NA,NA,0,2,2,0,1,NA,NA,NA,NA,NA,NA,NA,NA,NA,NA,NA,NA,NA,NA,NA,NA,NA,NA,NA,NA,NA,NA,NA,NA,NA,NA,NA,NA
SUPAMT94580,3MTMREQS41H3SATM36MSM0DX4GBWAZ,759403D8-0104-46F8-8494-1454C1036E84,2023-09-27_16h14.29.662,WP_VExplicitOC_LH,2022.2.5,Win32,33.1807021,NA,NA,NA,NA,NA,NA,NA,NA,NA,NA,NA,NA,NA,NA,NA,NA,NA,NA,NA,NA,NA,NA,NA,NA,NA,NA,NA,NA,NA,NA,NA,10,0,10,0,1,NA,NA,NA,NA,NA,NA,NA,NA,NA,NA,NA,NA,NA,NA,NA,NA,NA,NA,NA,NA,NA,NA,NA
SUPAMT94580,3MTMREQS41H3SATM36MSM0DX4GBWAZ,759403D8-0104-46F8-8494-1454C1036E84,2023-09-27_16h14.29.662,WP_VExplicitOC_LH,2022.2.5,Win32,33.1807021,50,5.5673,2.0122,NA,NA,NA,NA,NA,bored,"bored, not bored","more bored, less bored",NA,NA,NA,NA,NA,NA,NA,NA,NA,NA,NA,NA,NA,NA,NA,0,0,0,2,1,NA,NA,NA,NA,NA,NA,NA,NA,NA,NA,NA,NA,NA,NA,NA,NA,NA,NA,NA,NA,NA,NA,NA,NA,NA,NA,NA,NA
SUPAMT94580,3MTMREQS41H3SATM36MSM0DX4GBWAZ,759403D8-0104-46F8-8494-1454C1036E84,2023-09-27_16h14.29.662,WP_VExplicitOC_LH,2022.2.5,Win32,33.1807021,50,3.9977,2.038,NA,NA,NA,NA,NA,happy,"unhappy, happy","less happy, more happy",NA,NA,NA,NA,NA,NA,NA,NA,NA,NA,NA,NA,NA,NA,NA,0,1,1,0,1,NA,NA,NA,NA,NA,NA,NA,NA,NA,NA,NA,NA,NA,NA,NA,NA,NA,NA,NA,NA,NA,NA,NA,NA,NA,NA,NA,NA
SUPAMT94580,3MTMREQS41H3SATM36MSM0DX4GBWAZ,759403D8-0104-46F8-8494-1454C1036E84,2023-09-27_16h14.29.662,WP_VExplicitOC_LH,2022.2.5,Win32,33.1807021,64.32291667,3.6693,2.0043,NA,NA,NA,NA,NA,frustrated,"frustrated, not frustrated","more frustrated, less frustrated",NA,NA,NA,NA,NA,NA,NA,NA,NA,NA,NA,NA,NA,NA,NA,0,2,2,1,1,NA,NA,NA,NA,NA,NA,NA,NA,NA,NA,NA,NA,NA,NA,NA,NA,NA,NA,NA,NA,NA,NA,NA,NA,NA,NA,NA,NA
SUPAMT94580,3MTMREQS41H3SATM36MSM0DX4GBWAZ,759403D8-0104-46F8-8494-1454C1036E84,2023-09-27_16h14.29.662,WP_VExplicitOC_LH,2022.2.5,Win32,33.1807021,NA,NA,NA,NA,NA,NA,NA,NA,NA,NA,NA,NA,NA,NA,NA,NA,NA,NA,NA,NA,NA,NA,NA,NA,NA,NA,NA,NA,NA,NA,NA,11,0,11,0,1,NA,NA,NA,NA,NA,NA,NA,NA,NA,NA,NA,NA,NA,NA,NA,NA,NA,NA,NA,NA,NA,NA,NA
SUPAMT94580,3MTMREQS41H3SATM36MSM0DX4GBWAZ,759403D8-0104-46F8-8494-1454C1036E84,2023-09-27_16h14.29.662,WP_VExplicitOC_LH,2022.2.5,Win32,33.1807021,61.71875,3.7239,2.018,NA,NA,NA,NA,NA,bored,"bored, not bored","more bored, less bored",NA,NA,NA,NA,NA,NA,NA,NA,NA,NA,NA,NA,NA,NA,NA,0,0,0,2,1,NA,NA,NA,NA,NA,NA,NA,NA,NA,NA,NA,NA,NA,NA,NA,NA,NA,NA,NA,NA,NA,NA,NA,NA,NA,NA,NA,NA
SUPAMT94580,3MTMREQS41H3SATM36MSM0DX4GBWAZ,759403D8-0104-46F8-8494-1454C1036E84,2023-09-27_16h14.29.662,WP_VExplicitOC_LH,2022.2.5,Win32,33.1807021,61.71875,4.8498,2.0031,NA,NA,NA,NA,NA,frustrated,"frustrated, not frustrated","more frustrated, less frustrated",NA,NA,NA,NA,NA,NA,NA,NA,NA,NA,NA,NA,NA,NA,NA,0,1,1,1,1,NA,NA,NA,NA,NA,NA,NA,NA,NA,NA,NA,NA,NA,NA,NA,NA,NA,NA,NA,NA,NA,NA,NA,NA,NA,NA,NA,NA
SUPAMT94580,3MTMREQS41H3SATM36MSM0DX4GBWAZ,759403D8-0104-46F8-8494-1454C1036E84,2023-09-27_16h14.29.662,WP_VExplicitOC_LH,2022.2.5,Win32,33.1807021,62.5,2.924,2.0193,NA,NA,NA,NA,NA,happy,"unhappy, happy","less happy, more happy",NA,NA,NA,NA,NA,NA,NA,NA,NA,NA,NA,NA,NA,NA,NA,0,2,2,0,1,NA,NA,NA,NA,NA,NA,NA,NA,NA,NA,NA,NA,NA,NA,NA,NA,NA,NA,NA,NA,NA,NA,NA,NA,NA,NA,NA,NA
SUPAMT94580,3MTMREQS41H3SATM36MSM0DX4GBWAZ,759403D8-0104-46F8-8494-1454C1036E84,2023-09-27_16h14.29.662,WP_VExplicitOC_LH,2022.2.5,Win32,33.1807021,NA,NA,NA,NA,NA,NA,NA,NA,NA,NA,NA,NA,NA,NA,NA,NA,NA,NA,NA,NA,NA,NA,NA,NA,NA,NA,NA,NA,NA,NA,NA,12,0,12,0,1,NA,NA,NA,NA,NA,NA,NA,NA,NA,NA,NA,NA,NA,NA,NA,NA,NA,NA,NA,NA,NA,NA,NA
SUPAMT94580,3MTMREQS41H3SATM36MSM0DX4GBWAZ,759403D8-0104-46F8-8494-1454C1036E84,2023-09-27_16h14.29.662,WP_VExplicitOC_LH,2022.2.5,Win32,33.1807021,53.38541667,4.2825,2.0394,NA,NA,NA,NA,NA,bored,"bored, not bored","more bored, less bored",NA,NA,NA,NA,NA,NA,NA,NA,NA,NA,NA,NA,NA,NA,NA,0,0,0,2,1,NA,NA,NA,NA,NA,NA,NA,NA,NA,NA,NA,NA,NA,NA,NA,NA,NA,NA,NA,NA,NA,NA,NA,NA,NA,NA,NA,NA
SUPAMT94580,3MTMREQS41H3SATM36MSM0DX4GBWAZ,759403D8-0104-46F8-8494-1454C1036E84,2023-09-27_16h14.29.662,WP_VExplicitOC_LH,2022.2.5,Win32,33.1807021,61.97916667,4.2845,2.0283,NA,NA,NA,NA,NA,frustrated,"frustrated, not frustrated","more frustrated, less frustrated",NA,NA,NA,NA,NA,NA,NA,NA,NA,NA,NA,NA,NA,NA,NA,0,1,1,1,1,NA,NA,NA,NA,NA,NA,NA,NA,NA,NA,NA,NA,NA,NA,NA,NA,NA,NA,NA,NA,NA,NA,NA,NA,NA,NA,NA,NA
SUPAMT94580,3MTMREQS41H3SATM36MSM0DX4GBWAZ,759403D8-0104-46F8-8494-1454C1036E84,2023-09-27_16h14.29.662,WP_VExplicitOC_LH,2022.2.5,Win32,33.1807021,61.97916667,5.6923,2.0156,NA,NA,NA,NA,NA,happy,"unhappy, happy","less happy, more happy",NA,NA,NA,NA,NA,NA,NA,NA,NA,NA,NA,NA,NA,NA,NA,0,2,2,0,1,NA,NA,NA,NA,NA,NA,NA,NA,NA,NA,NA,NA,NA,NA,NA,NA,NA,NA,NA,NA,NA,NA,NA,NA,NA,NA,NA,NA
SUPAMT94580,3MTMREQS41H3SATM36MSM0DX4GBWAZ,759403D8-0104-46F8-8494-1454C1036E84,2023-09-27_16h14.29.662,WP_VExplicitOC_LH,2022.2.5,Win32,33.1807021,NA,NA,NA,NA,NA,NA,NA,NA,NA,NA,NA,NA,NA,NA,NA,NA,NA,NA,NA,NA,NA,NA,NA,NA,NA,NA,NA,NA,NA,NA,NA,13,0,13,0,1,NA,NA,NA,NA,NA,NA,NA,NA,NA,NA,NA,NA,NA,NA,NA,NA,NA,NA,NA,NA,NA,NA,NA
SUPAMT94580,3MTMREQS41H3SATM36MSM0DX4GBWAZ,759403D8-0104-46F8-8494-1454C1036E84,2023-09-27_16h14.29.662,WP_VExplicitOC_LH,2022.2.5,Win32,33.1807021,60.9375,3.6438,2.0349,NA,NA,NA,NA,NA,happy,"unhappy, happy","less happy, more happy",NA,NA,NA,NA,NA,NA,NA,NA,NA,NA,NA,NA,NA,NA,NA,0,0,0,0,1,NA,NA,NA,NA,NA,NA,NA,NA,NA,NA,NA,NA,NA,NA,NA,NA,NA,NA,NA,NA,NA,NA,NA,NA,NA,NA,NA,NA
SUPAMT94580,3MTMREQS41H3SATM36MSM0DX4GBWAZ,759403D8-0104-46F8-8494-1454C1036E84,2023-09-27_16h14.29.662,WP_VExplicitOC_LH,2022.2.5,Win32,33.1807021,60.15625,4.7616,2.0118,NA,NA,NA,NA,NA,frustrated,"frustrated, not frustrated","more frustrated, less frustrated",NA,NA,NA,NA,NA,NA,NA,NA,NA,NA,NA,NA,NA,NA,NA,0,1,1,1,1,NA,NA,NA,NA,NA,NA,NA,NA,NA,NA,NA,NA,NA,NA,NA,NA,NA,NA,NA,NA,NA,NA,NA,NA,NA,NA,NA,NA
SUPAMT94580,3MTMREQS41H3SATM36MSM0DX4GBWAZ,759403D8-0104-46F8-8494-1454C1036E84,2023-09-27_16h14.29.662,WP_VExplicitOC_LH,2022.2.5,Win32,33.1807021,65.36458333,3.0141,2.0061,NA,NA,NA,NA,NA,bored,"bored, not bored","more bored, less bored",NA,NA,NA,NA,NA,NA,NA,NA,NA,NA,NA,NA,NA,NA,NA,0,2,2,2,1,NA,NA,NA,NA,NA,NA,NA,NA,NA,NA,NA,NA,NA,NA,NA,NA,NA,NA,NA,NA,NA,NA,NA,NA,NA,NA,NA,NA
SUPAMT94580,3MTMREQS41H3SATM36MSM0DX4GBWAZ,759403D8-0104-46F8-8494-1454C1036E84,2023-09-27_16h14.29.662,WP_VExplicitOC_LH,2022.2.5,Win32,33.1807021,NA,NA,NA,NA,NA,NA,NA,NA,NA,NA,NA,NA,NA,NA,NA,NA,NA,NA,NA,NA,NA,NA,NA,NA,NA,NA,NA,NA,NA,NA,NA,14,0,14,0,1,NA,NA,NA,NA,NA,NA,NA,NA,NA,NA,NA,NA,NA,NA,NA,NA,NA,NA,NA,NA,NA,NA,NA
SUPAMT94580,3MTMREQS41H3SATM36MSM0DX4GBWAZ,759403D8-0104-46F8-8494-1454C1036E84,2023-09-27_16h14.29.662,WP_VExplicitOC_LH,2022.2.5,Win32,33.1807021,NA,NA,NA,NA,NA,NA,NA,NA,NA,NA,NA,NA,NA,NA,NA,NA,NA,NA,NA,NA,NA,NA,NA,NA,NA,NA,NA,NA,NA,NA,NA,NA,NA,NA,NA,NA,NA,NA,NA,NA,NA,NA,NA,NA,NA,NA,NA,NA,NA,NA,NA,NA,NA,NA,NA,NA,NA,NA,NA
SUPAMT94580,3MTMREQS41H3SATM36MSM0DX4GBWAZ,759403D8-0104-46F8-8494-1454C1036E84,2023-09-27_16h14.29.662,WP_VExplicitOC_LH,2022.2.5,Win32,33.1807021,NA,NA,NA,NA,NA,NA,NA,NA,NA,NA,NA,NA,NA,NA,NA,NA,NA,NA,NA,NA,NA,NA,NA,NA,NA,NA,NA,NA,NA,NA,NA,NA,NA,NA,NA,NA,NA,NA,NA,NA,NA,NA,NA,NA,NA,NA,NA,NA,NA,NA,NA,NA,NA,NA,NA,NA,NA,NA,NA
SUPAMT94580,3MTMREQS41H3SATM36MSM0DX4GBWAZ,759403D8-0104-46F8-8494-1454C1036E84,2023-09-27_16h14.29.662,WP_VExplicitOC_LH,2022.2.5,Win32,33.1807021,NA,NA,NA,NA,NA,NA,NA,NA,NA,NA,NA,NA,NA,NA,NA,NA,NA,NA,rest (looking at a fixed cross),001.png,NA,NA,NA,NA,NA,NA,NA,NA,NA,NA,NA,NA,NA,NA,NA,NA,61.45833333,3.5844,0,0,0,0,1,NA,NA,NA,NA,NA,NA,NA,NA,NA,NA,NA,NA,NA,NA,NA,NA
SUPAMT94580,3MTMREQS41H3SATM36MSM0DX4GBWAZ,759403D8-0104-46F8-8494-1454C1036E84,2023-09-27_16h14.29.662,WP_VExplicitOC_LH,2022.2.5,Win32,33.1807021,NA,NA,NA,NA,NA,NA,NA,NA,NA,NA,NA,NA,NA,NA,NA,NA,NA,NA,stand up,002.png,NA,NA,NA,NA,NA,NA,NA,NA,NA,NA,NA,NA,NA,NA,NA,NA,46.875,1.0029,0,1,1,1,1,NA,NA,NA,NA,NA,NA,NA,NA,NA,NA,NA,NA,NA,NA,NA,NA
SUPAMT94580,3MTMREQS41H3SATM36MSM0DX4GBWAZ,759403D8-0104-46F8-8494-1454C1036E84,2023-09-27_16h14.29.662,WP_VExplicitOC_LH,2022.2.5,Win32,33.1807021,NA,NA,NA,NA,NA,NA,NA,NA,NA,NA,NA,NA,NA,NA,NA,NA,NA,NA,stretch,003.png,NA,NA,NA,NA,NA,NA,NA,NA,NA,NA,NA,NA,NA,NA,NA,NA,46.875,1.0814,0,2,2,2,1,NA,NA,NA,NA,NA,NA,NA,NA,NA,NA,NA,NA,NA,NA,NA,NA
SUPAMT94580,3MTMREQS41H3SATM36MSM0DX4GBWAZ,759403D8-0104-46F8-8494-1454C1036E84,2023-09-27_16h14.29.662,WP_VExplicitOC_LH,2022.2.5,Win32,33.1807021,NA,NA,NA,NA,NA,NA,NA,NA,NA,NA,NA,NA,NA,NA,NA,NA,NA,NA,make a drink,004.png,NA,NA,NA,NA,NA,NA,NA,NA,NA,NA,NA,NA,NA,NA,NA,NA,47.13541667,1.0088,0,3,3,3,1,NA,NA,NA,NA,NA,NA,NA,NA,NA,NA,NA,NA,NA,NA,NA,NA
SUPAMT94580,3MTMREQS41H3SATM36MSM0DX4GBWAZ,759403D8-0104-46F8-8494-1454C1036E84,2023-09-27_16h14.29.662,WP_VExplicitOC_LH,2022.2.5,Win32,33.1807021,NA,NA,NA,NA,NA,NA,NA,NA,NA,NA,NA,NA,NA,NA,NA,NA,NA,NA,scroll social media,005.png,NA,NA,NA,NA,NA,NA,NA,NA,NA,NA,NA,NA,NA,NA,NA,NA,66.66666667,0.7692,0,4,4,4,1,NA,NA,NA,NA,NA,NA,NA,NA,NA,NA,NA,NA,NA,NA,NA,NA
SUPAMT94580,3MTMREQS41H3SATM36MSM0DX4GBWAZ,759403D8-0104-46F8-8494-1454C1036E84,2023-09-27_16h14.29.662,WP_VExplicitOC_LH,2022.2.5,Win32,33.1807021,NA,NA,NA,NA,NA,NA,NA,NA,NA,NA,NA,NA,NA,NA,NA,NA,NA,NA,listen to music,006.png,NA,NA,NA,NA,NA,NA,NA,NA,NA,NA,NA,NA,NA,NA,NA,NA,37.23958333,0.8444,0,5,5,5,1,NA,NA,NA,NA,NA,NA,NA,NA,NA,NA,NA,NA,NA,NA,NA,NA
SUPAMT94580,3MTMREQS41H3SATM36MSM0DX4GBWAZ,759403D8-0104-46F8-8494-1454C1036E84,2023-09-27_16h14.29.662,WP_VExplicitOC_LH,2022.2.5,Win32,33.1807021,NA,NA,NA,NA,NA,NA,NA,NA,NA,NA,NA,NA,NA,NA,NA,NA,NA,NA,daydream,007.png,NA,NA,NA,NA,NA,NA,NA,NA,NA,NA,NA,NA,NA,NA,NA,NA,61.71875,0.7843,0,6,6,6,1,NA,NA,NA,NA,NA,NA,NA,NA,NA,NA,NA,NA,NA,NA,NA,NA
SUPAMT94580,3MTMREQS41H3SATM36MSM0DX4GBWAZ,759403D8-0104-46F8-8494-1454C1036E84,2023-09-27_16h14.29.662,WP_VExplicitOC_LH,2022.2.5,Win32,33.1807021,NA,NA,NA,NA,NA,NA,NA,NA,NA,NA,NA,NA,NA,NA,NA,NA,NA,NA,watch a short animation,008.png,NA,NA,NA,NA,NA,NA,NA,NA,NA,NA,NA,NA,NA,NA,NA,NA,46.61458333,0.7583,0,7,7,7,1,NA,NA,NA,NA,NA,NA,NA,NA,NA,NA,NA,NA,NA,NA,NA,NA
SUPAMT94580,3MTMREQS41H3SATM36MSM0DX4GBWAZ,759403D8-0104-46F8-8494-1454C1036E84,2023-09-27_16h14.29.662,WP_VExplicitOC_LH,2022.2.5,Win32,33.1807021,NA,NA,NA,NA,NA,NA,NA,NA,NA,NA,NA,NA,NA,NA,NA,NA,NA,NA,read a novel,009.png,NA,NA,NA,NA,NA,NA,NA,NA,NA,NA,NA,NA,NA,NA,NA,NA,68.75,0.8229,0,8,8,8,1,NA,NA,NA,NA,NA,NA,NA,NA,NA,NA,NA,NA,NA,NA,NA,NA
SUPAMT94580,3MTMREQS41H3SATM36MSM0DX4GBWAZ,759403D8-0104-46F8-8494-1454C1036E84,2023-09-27_16h14.29.662,WP_VExplicitOC_LH,2022.2.5,Win32,33.1807021,NA,NA,NA,NA,NA,NA,NA,NA,NA,NA,NA,NA,NA,NA,NA,NA,NA,NA,read the news,010.png,NA,NA,NA,NA,NA,NA,NA,NA,NA,NA,NA,NA,NA,NA,NA,NA,67.1875,1.0199,0,9,9,9,1,NA,NA,NA,NA,NA,NA,NA,NA,NA,NA,NA,NA,NA,NA,NA,NA
SUPAMT94580,3MTMREQS41H3SATM36MSM0DX4GBWAZ,759403D8-0104-46F8-8494-1454C1036E84,2023-09-27_16h14.29.662,WP_VExplicitOC_LH,2022.2.5,Win32,33.1807021,NA,NA,NA,NA,NA,NA,NA,NA,NA,NA,NA,NA,NA,NA,NA,NA,NA,NA,NA,NA,NA,NA,NA,NA,NA,NA,NA,NA,NA,NA,NA,NA,NA,NA,NA,NA,NA,NA,NA,NA,NA,NA,NA,read a novel,NA,NA,NA,NA,NA,NA,NA,NA,NA,NA,NA,NA,NA,NA,NA
SUPAMT94580,3MTMREQS41H3SATM36MSM0DX4GBWAZ,759403D8-0104-46F8-8494-1454C1036E84,2023-09-27_16h14.29.662,WP_VExplicitOC_LH,2022.2.5,Win32,33.1807021,65.36458333,4.2948,2.0315,NA,NA,NA,NA,NA,frustrated,"frustrated, not frustrated","more frustrated, less frustrated",NA,NA,NA,NA,NA,NA,NA,NA,NA,NA,NA,NA,NA,NA,NA,NA,NA,NA,NA,NA,NA,NA,NA,NA,NA,NA,NA,NA,NA,NA,NA,NA,NA,0,0,0,1,1,NA,NA,NA,NA,NA,NA,NA,NA,NA,NA
SUPAMT94580,3MTMREQS41H3SATM36MSM0DX4GBWAZ,759403D8-0104-46F8-8494-1454C1036E84,2023-09-27_16h14.29.662,WP_VExplicitOC_LH,2022.2.5,Win32,33.1807021,65.36458333,3.051,2.0058,NA,NA,NA,NA,NA,bored,"bored, not bored","more bored, less bored",NA,NA,NA,NA,NA,NA,NA,NA,NA,NA,NA,NA,NA,NA,NA,NA,NA,NA,NA,NA,NA,NA,NA,NA,NA,NA,NA,NA,NA,NA,NA,NA,NA,0,1,1,2,1,NA,NA,NA,NA,NA,NA,NA,NA,NA,NA
SUPAMT94580,3MTMREQS41H3SATM36MSM0DX4GBWAZ,759403D8-0104-46F8-8494-1454C1036E84,2023-09-27_16h14.29.662,WP_VExplicitOC_LH,2022.2.5,Win32,33.1807021,56.51041667,3.1778,2.0024,NA,NA,NA,NA,NA,happy,"unhappy, happy","less happy, more happy",NA,NA,NA,NA,NA,NA,NA,NA,NA,NA,NA,NA,NA,NA,NA,NA,NA,NA,NA,NA,NA,NA,NA,NA,NA,NA,NA,NA,NA,NA,NA,NA,NA,0,2,2,0,1,NA,NA,NA,NA,NA,NA,NA,NA,NA,NA
SUPAMT94580,3MTMREQS41H3SATM36MSM0DX4GBWAZ,759403D8-0104-46F8-8494-1454C1036E84,2023-09-27_16h14.29.662,WP_VExplicitOC_LH,2022.2.5,Win32,33.1807021,NA,NA,NA,NA,NA,NA,NA,NA,NA,NA,NA,NA,NA,NA,NA,NA,NA,NA,NA,NA,NA,NA,NA,NA,NA,NA,NA,NA,NA,NA,NA,NA,NA,NA,NA,NA,NA,NA,NA,NA,NA,NA,NA,NA,NA,NA,NA,NA,NA,NA,NA,NA,NA,NA,NA,NA,NA,NA,NA
SUPAMT94580,3MTMREQS41H3SATM36MSM0DX4GBWAZ,759403D8-0104-46F8-8494-1454C1036E84,2023-09-27_16h14.29.662,WP_VExplicitOC_LH,2022.2.5,Win32,33.1807021,NA,NA,NA,NA,NA,NA,NA,NA,NA,NA,NA,NA,NA,NA,NA,NA,NA,NA,NA,NA,NA,NA,NA,NA,NA,NA,NA,NA,NA,NA,NA,NA,NA,NA,NA,NA,NA,NA,NA,NA,NA,NA,NA,NA,NA,NA,NA,NA,NA,NA,NA,NA,NA,NA,NA,NA,NA,NA,NA
SUPAMT94580,3MTMREQS41H3SATM36MSM0DX4GBWAZ,759403D8-0104-46F8-8494-1454C1036E84,2023-09-27_16h14.29.662,WP_VExplicitOC_LH,2022.2.5,Win32,33.1807021,56.77083333,3.1371000000000002,2.0233,NA,NA,NA,NA,NA,bored,"bored, not bored","more bored, less bored",NA,NA,NA,NA,NA,NA,NA,NA,NA,NA,NA,NA,NA,NA,NA,NA,NA,NA,NA,NA,NA,NA,NA,NA,NA,NA,NA,NA,NA,NA,NA,NA,NA,NA,NA,NA,NA,NA,0,0,0,2,1,NA,NA,NA,NA,NA
SUPAMT94580,3MTMREQS41H3SATM36MSM0DX4GBWAZ,759403D8-0104-46F8-8494-1454C1036E84,2023-09-27_16h14.29.662,WP_VExplicitOC_LH,2022.2.5,Win32,33.1807021,61.19791667,3.0334,2.0399,NA,NA,NA,NA,NA,happy,"unhappy, happy","less happy, more happy",NA,NA,NA,NA,NA,NA,NA,NA,NA,NA,NA,NA,NA,NA,NA,NA,NA,NA,NA,NA,NA,NA,NA,NA,NA,NA,NA,NA,NA,NA,NA,NA,NA,NA,NA,NA,NA,NA,0,1,1,0,1,NA,NA,NA,NA,NA
SUPAMT94580,3MTMREQS41H3SATM36MSM0DX4GBWAZ,759403D8-0104-46F8-8494-1454C1036E84,2023-09-27_16h14.29.662,WP_VExplicitOC_LH,2022.2.5,Win32,33.1807021,58.59375,2.8554,2,NA,NA,NA,NA,NA,frustrated,"frustrated, not frustrated","more frustrated, less frustrated",NA,NA,NA,NA,NA,NA,NA,NA,NA,NA,NA,NA,NA,NA,NA,NA,NA,NA,NA,NA,NA,NA,NA,NA,NA,NA,NA,NA,NA,NA,NA,NA,NA,NA,NA,NA,NA,NA,0,2,2,1,1,NA,NA,NA,NA,NA
SUPAMT94580,3MTMREQS41H3SATM36MSM0DX4GBWAZ,759403D8-0104-46F8-8494-1454C1036E84,2023-09-27_16h14.29.662,WP_VExplicitOC_LH,2022.2.5,Win32,33.1807021,NA,NA,NA,NA,NA,NA,NA,NA,NA,NA,NA,NA,NA,NA,NA,NA,NA,NA,NA,NA,NA,NA,NA,NA,NA,NA,NA,NA,NA,NA,NA,NA,NA,NA,NA,NA,NA,NA,NA,NA,NA,NA,NA,NA,NA,NA,NA,NA,NA,NA,NA,NA,NA,NA,0,0,0,0,1
SUPAMT94580,3MTMREQS41H3SATM36MSM0DX4GBWAZ,759403D8-0104-46F8-8494-1454C1036E84,2023-09-27_16h14.29.662,WP_VExplicitOC_LH,2022.2.5,Win32,33.1807021,66.40625,3.5967,2.0015,NA,NA,NA,NA,NA,frustrated,"frustrated, not frustrated","more frustrated, less frustrated",NA,NA,NA,NA,NA,NA,NA,NA,NA,NA,NA,NA,NA,NA,NA,NA,NA,NA,NA,NA,NA,NA,NA,NA,NA,NA,NA,NA,NA,NA,NA,NA,NA,NA,NA,NA,NA,NA,0,0,0,1,1,NA,NA,NA,NA,NA
SUPAMT94580,3MTMREQS41H3SATM36MSM0DX4GBWAZ,759403D8-0104-46F8-8494-1454C1036E84,2023-09-27_16h14.29.662,WP_VExplicitOC_LH,2022.2.5,Win32,33.1807021,72.91666667,3.3257,2.034,NA,NA,NA,NA,NA,bored,"bored, not bored","more bored, less bored",NA,NA,NA,NA,NA,NA,NA,NA,NA,NA,NA,NA,NA,NA,NA,NA,NA,NA,NA,NA,NA,NA,NA,NA,NA,NA,NA,NA,NA,NA,NA,NA,NA,NA,NA,NA,NA,NA,0,1,1,2,1,NA,NA,NA,NA,NA
SUPAMT94580,3MTMREQS41H3SATM36MSM0DX4GBWAZ,759403D8-0104-46F8-8494-1454C1036E84,2023-09-27_16h14.29.662,WP_VExplicitOC_LH,2022.2.5,Win32,33.1807021,66.92708333,3.0934,2.0449,NA,NA,NA,NA,NA,happy,"unhappy, happy","less happy, more happy",NA,NA,NA,NA,NA,NA,NA,NA,NA,NA,NA,NA,NA,NA,NA,NA,NA,NA,NA,NA,NA,NA,NA,NA,NA,NA,NA,NA,NA,NA,NA,NA,NA,NA,NA,NA,NA,NA,0,2,2,0,1,NA,NA,NA,NA,NA
SUPAMT94580,3MTMREQS41H3SATM36MSM0DX4GBWAZ,759403D8-0104-46F8-8494-1454C1036E84,2023-09-27_16h14.29.662,WP_VExplicitOC_LH,2022.2.5,Win32,33.1807021,NA,NA,NA,NA,NA,NA,NA,NA,NA,NA,NA,NA,NA,NA,NA,NA,NA,NA,NA,NA,NA,NA,NA,NA,NA,NA,NA,NA,NA,NA,NA,NA,NA,NA,NA,NA,NA,NA,NA,NA,NA,NA,NA,NA,NA,NA,NA,NA,NA,NA,NA,NA,NA,NA,1,0,1,0,1
SUPAMT94580,3MTMREQS41H3SATM36MSM0DX4GBWAZ,759403D8-0104-46F8-8494-1454C1036E84,2023-09-27_16h14.29.662,WP_VExplicitOC_LH,2022.2.5,Win32,33.1807021,53.38541667,3.1425,2.0393,NA,NA,NA,NA,NA,bored,"bored, not bored","more bored, less bored",NA,NA,NA,NA,NA,NA,NA,NA,NA,NA,NA,NA,NA,NA,NA,NA,NA,NA,NA,NA,NA,NA,NA,NA,NA,NA,NA,NA,NA,NA,NA,NA,NA,NA,NA,NA,NA,NA,0,0,0,2,1,NA,NA,NA,NA,NA
SUPAMT94580,3MTMREQS41H3SATM36MSM0DX4GBWAZ,759403D8-0104-46F8-8494-1454C1036E84,2023-09-27_16h14.29.662,WP_VExplicitOC_LH,2022.2.5,Win32,33.1807021,70.83333333,4.2163,2.0397,NA,NA,NA,NA,NA,happy,"unhappy, happy","less happy, more happy",NA,NA,NA,NA,NA,NA,NA,NA,NA,NA,NA,NA,NA,NA,NA,NA,NA,NA,NA,NA,NA,NA,NA,NA,NA,NA,NA,NA,NA,NA,NA,NA,NA,NA,NA,NA,NA,NA,0,1,1,0,1,NA,NA,NA,NA,NA
SUPAMT94580,3MTMREQS41H3SATM36MSM0DX4GBWAZ,759403D8-0104-46F8-8494-1454C1036E84,2023-09-27_16h14.29.662,WP_VExplicitOC_LH,2022.2.5,Win32,33.1807021,70.83333333,3.7393,2.0372,NA,NA,NA,NA,NA,frustrated,"frustrated, not frustrated","more frustrated, less frustrated",NA,NA,NA,NA,NA,NA,NA,NA,NA,NA,NA,NA,NA,NA,NA,NA,NA,NA,NA,NA,NA,NA,NA,NA,NA,NA,NA,NA,NA,NA,NA,NA,NA,NA,NA,NA,NA,NA,0,2,2,1,1,NA,NA,NA,NA,NA
SUPAMT94580,3MTMREQS41H3SATM36MSM0DX4GBWAZ,759403D8-0104-46F8-8494-1454C1036E84,2023-09-27_16h14.29.662,WP_VExplicitOC_LH,2022.2.5,Win32,33.1807021,NA,NA,NA,NA,NA,NA,NA,NA,NA,NA,NA,NA,NA,NA,NA,NA,NA,NA,NA,NA,NA,NA,NA,NA,NA,NA,NA,NA,NA,NA,NA,NA,NA,NA,NA,NA,NA,NA,NA,NA,NA,NA,NA,NA,NA,NA,NA,NA,NA,NA,NA,NA,NA,NA,2,0,2,0,1
SUPAMT94580,3MTMREQS41H3SATM36MSM0DX4GBWAZ,759403D8-0104-46F8-8494-1454C1036E84,2023-09-27_16h14.29.662,WP_VExplicitOC_LH,2022.2.5,Win32,33.1807021,67.70833333,3.2207,2.0269,NA,NA,NA,NA,NA,frustrated,"frustrated, not frustrated","more frustrated, less frustrated",NA,NA,NA,NA,NA,NA,NA,NA,NA,NA,NA,NA,NA,NA,NA,NA,NA,NA,NA,NA,NA,NA,NA,NA,NA,NA,NA,NA,NA,NA,NA,NA,NA,NA,NA,NA,NA,NA,0,0,0,1,1,NA,NA,NA,NA,NA
SUPAMT94580,3MTMREQS41H3SATM36MSM0DX4GBWAZ,759403D8-0104-46F8-8494-1454C1036E84,2023-09-27_16h14.29.662,WP_VExplicitOC_LH,2022.2.5,Win32,33.1807021,64.84375,3.4736,2.0351,NA,NA,NA,NA,NA,happy,"unhappy, happy","less happy, more happy",NA,NA,NA,NA,NA,NA,NA,NA,NA,NA,NA,NA,NA,NA,NA,NA,NA,NA,NA,NA,NA,NA,NA,NA,NA,NA,NA,NA,NA,NA,NA,NA,NA,NA,NA,NA,NA,NA,0,1,1,0,1,NA,NA,NA,NA,NA
SUPAMT94580,3MTMREQS41H3SATM36MSM0DX4GBWAZ,759403D8-0104-46F8-8494-1454C1036E84,2023-09-27_16h14.29.662,WP_VExplicitOC_LH,2022.2.5,Win32,33.1807021,62.5,2.9801,2.0367,NA,NA,NA,NA,NA,bored,"bored, not bored","more bored, less bored",NA,NA,NA,NA,NA,NA,NA,NA,NA,NA,NA,NA,NA,NA,NA,NA,NA,NA,NA,NA,NA,NA,NA,NA,NA,NA,NA,NA,NA,NA,NA,NA,NA,NA,NA,NA,NA,NA,0,2,2,2,1,NA,NA,NA,NA,NA
SUPAMT94580,3MTMREQS41H3SATM36MSM0DX4GBWAZ,759403D8-0104-46F8-8494-1454C1036E84,2023-09-27_16h14.29.662,WP_VExplicitOC_LH,2022.2.5,Win32,33.1807021,NA,NA,NA,NA,NA,NA,NA,NA,NA,NA,NA,NA,NA,NA,NA,NA,NA,NA,NA,NA,NA,NA,NA,NA,NA,NA,NA,NA,NA,NA,NA,NA,NA,NA,NA,NA,NA,NA,NA,NA,NA,NA,NA,NA,NA,NA,NA,NA,NA,NA,NA,NA,NA,NA,3,0,3,0,1
SUPAMT94580,3MTMREQS41H3SATM36MSM0DX4GBWAZ,759403D8-0104-46F8-8494-1454C1036E84,2023-09-27_16h14.29.662,WP_VExplicitOC_LH,2022.2.5,Win32,33.1807021,76.5625,3.6582,2.0044,NA,NA,NA,NA,NA,frustrated,"frustrated, not frustrated","more frustrated, less frustrated",NA,NA,NA,NA,NA,NA,NA,NA,NA,NA,NA,NA,NA,NA,NA,NA,NA,NA,NA,NA,NA,NA,NA,NA,NA,NA,NA,NA,NA,NA,NA,NA,NA,NA,NA,NA,NA,NA,0,0,0,1,1,NA,NA,NA,NA,NA
SUPAMT94580,3MTMREQS41H3SATM36MSM0DX4GBWAZ,759403D8-0104-46F8-8494-1454C1036E84,2023-09-27_16h14.29.662,WP_VExplicitOC_LH,2022.2.5,Win32,33.1807021,63.54166667,3.5021,2.0008,NA,NA,NA,NA,NA,happy,"unhappy, happy","less happy, more happy",NA,NA,NA,NA,NA,NA,NA,NA,NA,NA,NA,NA,NA,NA,NA,NA,NA,NA,NA,NA,NA,NA,NA,NA,NA,NA,NA,NA,NA,NA,NA,NA,NA,NA,NA,NA,NA,NA,0,1,1,0,1,NA,NA,NA,NA,NA
SUPAMT94580,3MTMREQS41H3SATM36MSM0DX4GBWAZ,759403D8-0104-46F8-8494-1454C1036E84,2023-09-27_16h14.29.662,WP_VExplicitOC_LH,2022.2.5,Win32,33.1807021,62.76041667,2.9325,2.0252,NA,NA,NA,NA,NA,bored,"bored, not bored","more bored, less bored",NA,NA,NA,NA,NA,NA,NA,NA,NA,NA,NA,NA,NA,NA,NA,NA,NA,NA,NA,NA,NA,NA,NA,NA,NA,NA,NA,NA,NA,NA,NA,NA,NA,NA,NA,NA,NA,NA,0,2,2,2,1,NA,NA,NA,NA,NA
SUPAMT94580,3MTMREQS41H3SATM36MSM0DX4GBWAZ,759403D8-0104-46F8-8494-1454C1036E84,2023-09-27_16h14.29.662,WP_VExplicitOC_LH,2022.2.5,Win32,33.1807021,NA,NA,NA,NA,NA,NA,NA,NA,NA,NA,NA,NA,NA,NA,NA,NA,NA,NA,NA,NA,NA,NA,NA,NA,NA,NA,NA,NA,NA,NA,NA,NA,NA,NA,NA,NA,NA,NA,NA,NA,NA,NA,NA,NA,NA,NA,NA,NA,NA,NA,NA,NA,NA,NA,4,0,4,0,1
SUPAMT94580,3MTMREQS41H3SATM36MSM0DX4GBWAZ,759403D8-0104-46F8-8494-1454C1036E84,2023-09-27_16h14.29.662,WP_VExplicitOC_LH,2022.2.5,Win32,33.1807021,68.75,3.6985,2.0055,NA,NA,NA,NA,NA,bored,"bored, not bored","more bored, less bored",NA,NA,NA,NA,NA,NA,NA,NA,NA,NA,NA,NA,NA,NA,NA,NA,NA,NA,NA,NA,NA,NA,NA,NA,NA,NA,NA,NA,NA,NA,NA,NA,NA,NA,NA,NA,NA,NA,0,0,0,2,1,NA,NA,NA,NA,NA
SUPAMT94580,3MTMREQS41H3SATM36MSM0DX4GBWAZ,759403D8-0104-46F8-8494-1454C1036E84,2023-09-27_16h14.29.662,WP_VExplicitOC_LH,2022.2.5,Win32,33.1807021,61.71875,3.2559,2.0026,NA,NA,NA,NA,NA,happy,"unhappy, happy","less happy, more happy",NA,NA,NA,NA,NA,NA,NA,NA,NA,NA,NA,NA,NA,NA,NA,NA,NA,NA,NA,NA,NA,NA,NA,NA,NA,NA,NA,NA,NA,NA,NA,NA,NA,NA,NA,NA,NA,NA,0,1,1,0,1,NA,NA,NA,NA,NA
SUPAMT94580,3MTMREQS41H3SATM36MSM0DX4GBWAZ,759403D8-0104-46F8-8494-1454C1036E84,2023-09-27_16h14.29.662,WP_VExplicitOC_LH,2022.2.5,Win32,33.1807021,64.58333333,3.0949,2.0373,NA,NA,NA,NA,NA,frustrated,"frustrated, not frustrated","more frustrated, less frustrated",NA,NA,NA,NA,NA,NA,NA,NA,NA,NA,NA,NA,NA,NA,NA,NA,NA,NA,NA,NA,NA,NA,NA,NA,NA,NA,NA,NA,NA,NA,NA,NA,NA,NA,NA,NA,NA,NA,0,2,2,1,1,NA,NA,NA,NA,NA
SUPAMT94580,3MTMREQS41H3SATM36MSM0DX4GBWAZ,759403D8-0104-46F8-8494-1454C1036E84,2023-09-27_16h14.29.662,WP_VExplicitOC_LH,2022.2.5,Win32,33.1807021,NA,NA,NA,NA,NA,NA,NA,NA,NA,NA,NA,NA,NA,NA,NA,NA,NA,NA,NA,NA,NA,NA,NA,NA,NA,NA,NA,NA,NA,NA,NA,NA,NA,NA,NA,NA,NA,NA,NA,NA,NA,NA,NA,NA,NA,NA,NA,NA,NA,NA,NA,NA,NA,NA,5,0,5,0,1
SUPAMT94580,3MTMREQS41H3SATM36MSM0DX4GBWAZ,759403D8-0104-46F8-8494-1454C1036E84,2023-09-27_16h14.29.662,WP_VExplicitOC_LH,2022.2.5,Win32,33.1807021,61.19791667,5.2165,2.0083,NA,NA,NA,NA,NA,happy,"unhappy, happy","less happy, more happy",NA,NA,NA,NA,NA,NA,NA,NA,NA,NA,NA,NA,NA,NA,NA,NA,NA,NA,NA,NA,NA,NA,NA,NA,NA,NA,NA,NA,NA,NA,NA,NA,NA,NA,NA,NA,NA,NA,0,0,0,0,1,NA,NA,NA,NA,NA
SUPAMT94580,3MTMREQS41H3SATM36MSM0DX4GBWAZ,759403D8-0104-46F8-8494-1454C1036E84,2023-09-27_16h14.29.662,WP_VExplicitOC_LH,2022.2.5,Win32,33.1807021,66.66666667,5.2751,2.0117,NA,NA,NA,NA,NA,bored,"bored, not bored","more bored, less bored",NA,NA,NA,NA,NA,NA,NA,NA,NA,NA,NA,NA,NA,NA,NA,NA,NA,NA,NA,NA,NA,NA,NA,NA,NA,NA,NA,NA,NA,NA,NA,NA,NA,NA,NA,NA,NA,NA,0,1,1,2,1,NA,NA,NA,NA,NA
SUPAMT94580,3MTMREQS41H3SATM36MSM0DX4GBWAZ,759403D8-0104-46F8-8494-1454C1036E84,2023-09-27_16h14.29.662,WP_VExplicitOC_LH,2022.2.5,Win32,33.1807021,63.28125,4.6825,2.0244,NA,NA,NA,NA,NA,frustrated,"frustrated, not frustrated","more frustrated, less frustrated",NA,NA,NA,NA,NA,NA,NA,NA,NA,NA,NA,NA,NA,NA,NA,NA,NA,NA,NA,NA,NA,NA,NA,NA,NA,NA,NA,NA,NA,NA,NA,NA,NA,NA,NA,NA,NA,NA,0,2,2,1,1,NA,NA,NA,NA,NA
SUPAMT94580,3MTMREQS41H3SATM36MSM0DX4GBWAZ,759403D8-0104-46F8-8494-1454C1036E84,2023-09-27_16h14.29.662,WP_VExplicitOC_LH,2022.2.5,Win32,33.1807021,NA,NA,NA,NA,NA,NA,NA,NA,NA,NA,NA,NA,NA,NA,NA,NA,NA,NA,NA,NA,NA,NA,NA,NA,NA,NA,NA,NA,NA,NA,NA,NA,NA,NA,NA,NA,NA,NA,NA,NA,NA,NA,NA,NA,NA,NA,NA,NA,NA,NA,NA,NA,NA,NA,6,0,6,0,1
SUPAMT94580,3MTMREQS41H3SATM36MSM0DX4GBWAZ,759403D8-0104-46F8-8494-1454C1036E84,2023-09-27_16h14.29.662,WP_VExplicitOC_LH,2022.2.5,Win32,33.1807021,90.625,5.9071,2.0417,NA,NA,NA,NA,NA,frustrated,"frustrated, not frustrated","more frustrated, less frustrated",NA,NA,NA,NA,NA,NA,NA,NA,NA,NA,NA,NA,NA,NA,NA,NA,NA,NA,NA,NA,NA,NA,NA,NA,NA,NA,NA,NA,NA,NA,NA,NA,NA,NA,NA,NA,NA,NA,0,0,0,1,1,NA,NA,NA,NA,NA
SUPAMT94580,3MTMREQS41H3SATM36MSM0DX4GBWAZ,759403D8-0104-46F8-8494-1454C1036E84,2023-09-27_16h14.29.662,WP_VExplicitOC_LH,2022.2.5,Win32,33.1807021,70.3125,3.0504,2.0054,NA,NA,NA,NA,NA,happy,"unhappy, happy","less happy, more happy",NA,NA,NA,NA,NA,NA,NA,NA,NA,NA,NA,NA,NA,NA,NA,NA,NA,NA,NA,NA,NA,NA,NA,NA,NA,NA,NA,NA,NA,NA,NA,NA,NA,NA,NA,NA,NA,NA,0,1,1,0,1,NA,NA,NA,NA,NA
SUPAMT94580,3MTMREQS41H3SATM36MSM0DX4GBWAZ,759403D8-0104-46F8-8494-1454C1036E84,2023-09-27_16h14.29.662,WP_VExplicitOC_LH,2022.2.5,Win32,33.1807021,62.23958333,2.9408,2.0047,NA,NA,NA,NA,NA,bored,"bored, not bored","more bored, less bored",NA,NA,NA,NA,NA,NA,NA,NA,NA,NA,NA,NA,NA,NA,NA,NA,NA,NA,NA,NA,NA,NA,NA,NA,NA,NA,NA,NA,NA,NA,NA,NA,NA,NA,NA,NA,NA,NA,0,2,2,2,1,NA,NA,NA,NA,NA
SUPAMT94580,3MTMREQS41H3SATM36MSM0DX4GBWAZ,759403D8-0104-46F8-8494-1454C1036E84,2023-09-27_16h14.29.662,WP_VExplicitOC_LH,2022.2.5,Win32,33.1807021,NA,NA,NA,NA,NA,NA,NA,NA,NA,NA,NA,NA,NA,NA,NA,NA,NA,NA,NA,NA,NA,NA,NA,NA,NA,NA,NA,NA,NA,NA,NA,NA,NA,NA,NA,NA,NA,NA,NA,NA,NA,NA,NA,NA,NA,NA,NA,NA,NA,NA,NA,NA,NA,NA,7,0,7,0,1
SUPAMT94580,3MTMREQS41H3SATM36MSM0DX4GBWAZ,759403D8-0104-46F8-8494-1454C1036E84,2023-09-27_16h14.29.662,WP_VExplicitOC_LH,2022.2.5,Win32,33.1807021,59.11458333,3.5192,2.0359,NA,NA,NA,NA,NA,happy,"unhappy, happy","less happy, more happy",NA,NA,NA,NA,NA,NA,NA,NA,NA,NA,NA,NA,NA,NA,NA,NA,NA,NA,NA,NA,NA,NA,NA,NA,NA,NA,NA,NA,NA,NA,NA,NA,NA,NA,NA,NA,NA,NA,0,0,0,0,1,NA,NA,NA,NA,NA
SUPAMT94580,3MTMREQS41H3SATM36MSM0DX4GBWAZ,759403D8-0104-46F8-8494-1454C1036E84,2023-09-27_16h14.29.662,WP_VExplicitOC_LH,2022.2.5,Win32,33.1807021,60.41666667,3.4675,2.0449,NA,NA,NA,NA,NA,frustrated,"frustrated, not frustrated","more frustrated, less frustrated",NA,NA,NA,NA,NA,NA,NA,NA,NA,NA,NA,NA,NA,NA,NA,NA,NA,NA,NA,NA,NA,NA,NA,NA,NA,NA,NA,NA,NA,NA,NA,NA,NA,NA,NA,NA,NA,NA,0,1,1,1,1,NA,NA,NA,NA,NA
SUPAMT94580,3MTMREQS41H3SATM36MSM0DX4GBWAZ,759403D8-0104-46F8-8494-1454C1036E84,2023-09-27_16h14.29.662,WP_VExplicitOC_LH,2022.2.5,Win32,33.1807021,60.41666667,3.3758,2.0294,NA,NA,NA,NA,NA,bored,"bored, not bored","more bored, less bored",NA,NA,NA,NA,NA,NA,NA,NA,NA,NA,NA,NA,NA,NA,NA,NA,NA,NA,NA,NA,NA,NA,NA,NA,NA,NA,NA,NA,NA,NA,NA,NA,NA,NA,NA,NA,NA,NA,0,2,2,2,1,NA,NA,NA,NA,NA
SUPAMT94580,3MTMREQS41H3SATM36MSM0DX4GBWAZ,759403D8-0104-46F8-8494-1454C1036E84,2023-09-27_16h14.29.662,WP_VExplicitOC_LH,2022.2.5,Win32,33.1807021,NA,NA,NA,NA,NA,NA,NA,NA,NA,NA,NA,NA,NA,NA,NA,NA,NA,NA,NA,NA,NA,NA,NA,NA,NA,NA,NA,NA,NA,NA,NA,NA,NA,NA,NA,NA,NA,NA,NA,NA,NA,NA,NA,NA,NA,NA,NA,NA,NA,NA,NA,NA,NA,NA,8,0,8,0,1
SUPAMT94580,3MTMREQS41H3SATM36MSM0DX4GBWAZ,759403D8-0104-46F8-8494-1454C1036E84,2023-09-27_16h14.29.662,WP_VExplicitOC_LH,2022.2.5,Win32,33.1807021,48.17708333,3.0389,2.0016,NA,NA,NA,NA,NA,bored,"bored, not bored","more bored, less bored",NA,NA,NA,NA,NA,NA,NA,NA,NA,NA,NA,NA,NA,NA,NA,NA,NA,NA,NA,NA,NA,NA,NA,NA,NA,NA,NA,NA,NA,NA,NA,NA,NA,NA,NA,NA,NA,NA,0,0,0,2,1,NA,NA,NA,NA,NA
SUPAMT94580,3MTMREQS41H3SATM36MSM0DX4GBWAZ,759403D8-0104-46F8-8494-1454C1036E84,2023-09-27_16h14.29.662,WP_VExplicitOC_LH,2022.2.5,Win32,33.1807021,69.27083333,2.9948,2.0422,NA,NA,NA,NA,NA,frustrated,"frustrated, not frustrated","more frustrated, less frustrated",NA,NA,NA,NA,NA,NA,NA,NA,NA,NA,NA,NA,NA,NA,NA,NA,NA,NA,NA,NA,NA,NA,NA,NA,NA,NA,NA,NA,NA,NA,NA,NA,NA,NA,NA,NA,NA,NA,0,1,1,1,1,NA,NA,NA,NA,NA
SUPAMT94580,3MTMREQS41H3SATM36MSM0DX4GBWAZ,759403D8-0104-46F8-8494-1454C1036E84,2023-09-27_16h14.29.662,WP_VExplicitOC_LH,2022.2.5,Win32,33.1807021,54.6875,3.3262,2.0203,NA,NA,NA,NA,NA,happy,"unhappy, happy","less happy, more happy",NA,NA,NA,NA,NA,NA,NA,NA,NA,NA,NA,NA,NA,NA,NA,NA,NA,NA,NA,NA,NA,NA,NA,NA,NA,NA,NA,NA,NA,NA,NA,NA,NA,NA,NA,NA,NA,NA,0,2,2,0,1,NA,NA,NA,NA,NA
SUPAMT94580,3MTMREQS41H3SATM36MSM0DX4GBWAZ,759403D8-0104-46F8-8494-1454C1036E84,2023-09-27_16h14.29.662,WP_VExplicitOC_LH,2022.2.5,Win32,33.1807021,NA,NA,NA,NA,NA,NA,NA,NA,NA,NA,NA,NA,NA,NA,NA,NA,NA,NA,NA,NA,NA,NA,NA,NA,NA,NA,NA,NA,NA,NA,NA,NA,NA,NA,NA,NA,NA,NA,NA,NA,NA,NA,NA,NA,NA,NA,NA,NA,NA,NA,NA,NA,NA,NA,9,0,9,0,1
SUPAMT94580,3MTMREQS41H3SATM36MSM0DX4GBWAZ,759403D8-0104-46F8-8494-1454C1036E84,2023-09-27_16h14.29.662,WP_VExplicitOC_LH,2022.2.5,Win32,33.1807021,61.97916667,3.5703,2.0036,NA,NA,NA,NA,NA,bored,"bored, not bored","more bored, less bored",NA,NA,NA,NA,NA,NA,NA,NA,NA,NA,NA,NA,NA,NA,NA,NA,NA,NA,NA,NA,NA,NA,NA,NA,NA,NA,NA,NA,NA,NA,NA,NA,NA,NA,NA,NA,NA,NA,0,0,0,2,1,NA,NA,NA,NA,NA
SUPAMT94580,3MTMREQS41H3SATM36MSM0DX4GBWAZ,759403D8-0104-46F8-8494-1454C1036E84,2023-09-27_16h14.29.662,WP_VExplicitOC_LH,2022.2.5,Win32,33.1807021,58.85416667,3.6,2.013,NA,NA,NA,NA,NA,frustrated,"frustrated, not frustrated","more frustrated, less frustrated",NA,NA,NA,NA,NA,NA,NA,NA,NA,NA,NA,NA,NA,NA,NA,NA,NA,NA,NA,NA,NA,NA,NA,NA,NA,NA,NA,NA,NA,NA,NA,NA,NA,NA,NA,NA,NA,NA,0,1,1,1,1,NA,NA,NA,NA,NA
SUPAMT94580,3MTMREQS41H3SATM36MSM0DX4GBWAZ,759403D8-0104-46F8-8494-1454C1036E84,2023-09-27_16h14.29.662,WP_VExplicitOC_LH,2022.2.5,Win32,33.1807021,69.53125,3.0313,2.0282,NA,NA,NA,NA,NA,happy,"unhappy, happy","less happy, more happy",NA,NA,NA,NA,NA,NA,NA,NA,NA,NA,NA,NA,NA,NA,NA,NA,NA,NA,NA,NA,NA,NA,NA,NA,NA,NA,NA,NA,NA,NA,NA,NA,NA,NA,NA,NA,NA,NA,0,2,2,0,1,NA,NA,NA,NA,NA
SUPAMT94580,3MTMREQS41H3SATM36MSM0DX4GBWAZ,759403D8-0104-46F8-8494-1454C1036E84,2023-09-27_16h14.29.662,WP_VExplicitOC_LH,2022.2.5,Win32,33.1807021,NA,NA,NA,NA,NA,NA,NA,NA,NA,NA,NA,NA,NA,NA,NA,NA,NA,NA,NA,NA,NA,NA,NA,NA,NA,NA,NA,NA,NA,NA,NA,NA,NA,NA,NA,NA,NA,NA,NA,NA,NA,NA,NA,NA,NA,NA,NA,NA,NA,NA,NA,NA,NA,NA,10,0,10,0,1
SUPAMT94580,3MTMREQS41H3SATM36MSM0DX4GBWAZ,759403D8-0104-46F8-8494-1454C1036E84,2023-09-27_16h14.29.662,WP_VExplicitOC_LH,2022.2.5,Win32,33.1807021,72.39583333,4.2839,2.051,NA,NA,NA,NA,NA,frustrated,"frustrated, not frustrated","more frustrated, less frustrated",NA,NA,NA,NA,NA,NA,NA,NA,NA,NA,NA,NA,NA,NA,NA,NA,NA,NA,NA,NA,NA,NA,NA,NA,NA,NA,NA,NA,NA,NA,NA,NA,NA,NA,NA,NA,NA,NA,0,0,0,1,1,NA,NA,NA,NA,NA
SUPAMT94580,3MTMREQS41H3SATM36MSM0DX4GBWAZ,759403D8-0104-46F8-8494-1454C1036E84,2023-09-27_16h14.29.662,WP_VExplicitOC_LH,2022.2.5,Win32,33.1807021,63.80208333,6.1669,2.0208,NA,NA,NA,NA,NA,bored,"bored, not bored","more bored, less bored",NA,NA,NA,NA,NA,NA,NA,NA,NA,NA,NA,NA,NA,NA,NA,NA,NA,NA,NA,NA,NA,NA,NA,NA,NA,NA,NA,NA,NA,NA,NA,NA,NA,NA,NA,NA,NA,NA,0,1,1,2,1,NA,NA,NA,NA,NA
SUPAMT94580,3MTMREQS41H3SATM36MSM0DX4GBWAZ,759403D8-0104-46F8-8494-1454C1036E84,2023-09-27_16h14.29.662,WP_VExplicitOC_LH,2022.2.5,Win32,33.1807021,61.19791667,3.5314,2.0176,NA,NA,NA,NA,NA,happy,"unhappy, happy","less happy, more happy",NA,NA,NA,NA,NA,NA,NA,NA,NA,NA,NA,NA,NA,NA,NA,NA,NA,NA,NA,NA,NA,NA,NA,NA,NA,NA,NA,NA,NA,NA,NA,NA,NA,NA,NA,NA,NA,NA,0,2,2,0,1,NA,NA,NA,NA,NA
SUPAMT94580,3MTMREQS41H3SATM36MSM0DX4GBWAZ,759403D8-0104-46F8-8494-1454C1036E84,2023-09-27_16h14.29.662,WP_VExplicitOC_LH,2022.2.5,Win32,33.1807021,NA,NA,NA,NA,NA,NA,NA,NA,NA,NA,NA,NA,NA,NA,NA,NA,NA,NA,NA,NA,NA,NA,NA,NA,NA,NA,NA,NA,NA,NA,NA,NA,NA,NA,NA,NA,NA,NA,NA,NA,NA,NA,NA,NA,NA,NA,NA,NA,NA,NA,NA,NA,NA,NA,11,0,11,0,1
SUPAMT94580,3MTMREQS41H3SATM36MSM0DX4GBWAZ,759403D8-0104-46F8-8494-1454C1036E84,2023-09-27_16h14.29.662,WP_VExplicitOC_LH,2022.2.5,Win32,33.1807021,69.01041667,5.0606,2.0149,NA,NA,NA,NA,NA,happy,"unhappy, happy","less happy, more happy",NA,NA,NA,NA,NA,NA,NA,NA,NA,NA,NA,NA,NA,NA,NA,NA,NA,NA,NA,NA,NA,NA,NA,NA,NA,NA,NA,NA,NA,NA,NA,NA,NA,NA,NA,NA,NA,NA,0,0,0,0,1,NA,NA,NA,NA,NA
SUPAMT94580,3MTMREQS41H3SATM36MSM0DX4GBWAZ,759403D8-0104-46F8-8494-1454C1036E84,2023-09-27_16h14.29.662,WP_VExplicitOC_LH,2022.2.5,Win32,33.1807021,69.01041667,4.5089,2.0291,NA,NA,NA,NA,NA,bored,"bored, not bored","more bored, less bored",NA,NA,NA,NA,NA,NA,NA,NA,NA,NA,NA,NA,NA,NA,NA,NA,NA,NA,NA,NA,NA,NA,NA,NA,NA,NA,NA,NA,NA,NA,NA,NA,NA,NA,NA,NA,NA,NA,0,1,1,2,1,NA,NA,NA,NA,NA
SUPAMT94580,3MTMREQS41H3SATM36MSM0DX4GBWAZ,759403D8-0104-46F8-8494-1454C1036E84,2023-09-27_16h14.29.662,WP_VExplicitOC_LH,2022.2.5,Win32,33.1807021,69.01041667,3.6368,2.0002,NA,NA,NA,NA,NA,frustrated,"frustrated, not frustrated","more frustrated, less frustrated",NA,NA,NA,NA,NA,NA,NA,NA,NA,NA,NA,NA,NA,NA,NA,NA,NA,NA,NA,NA,NA,NA,NA,NA,NA,NA,NA,NA,NA,NA,NA,NA,NA,NA,NA,NA,NA,NA,0,2,2,1,1,NA,NA,NA,NA,NA
SUPAMT94580,3MTMREQS41H3SATM36MSM0DX4GBWAZ,759403D8-0104-46F8-8494-1454C1036E84,2023-09-27_16h14.29.662,WP_VExplicitOC_LH,2022.2.5,Win32,33.1807021,NA,NA,NA,NA,NA,NA,NA,NA,NA,NA,NA,NA,NA,NA,NA,NA,NA,NA,NA,NA,NA,NA,NA,NA,NA,NA,NA,NA,NA,NA,NA,NA,NA,NA,NA,NA,NA,NA,NA,NA,NA,NA,NA,NA,NA,NA,NA,NA,NA,NA,NA,NA,NA,NA,12,0,12,0,1
SUPAMT94580,3MTMREQS41H3SATM36MSM0DX4GBWAZ,759403D8-0104-46F8-8494-1454C1036E84,2023-09-27_16h14.29.662,WP_VExplicitOC_LH,2022.2.5,Win32,33.1807021,54.16666667,4.8135,2.0137,NA,NA,NA,NA,NA,frustrated,"frustrated, not frustrated","more frustrated, less frustrated",NA,NA,NA,NA,NA,NA,NA,NA,NA,NA,NA,NA,NA,NA,NA,NA,NA,NA,NA,NA,NA,NA,NA,NA,NA,NA,NA,NA,NA,NA,NA,NA,NA,NA,NA,NA,NA,NA,0,0,0,1,1,NA,NA,NA,NA,NA
SUPAMT94580,3MTMREQS41H3SATM36MSM0DX4GBWAZ,759403D8-0104-46F8-8494-1454C1036E84,2023-09-27_16h14.29.662,WP_VExplicitOC_LH,2022.2.5,Win32,33.1807021,55.98958333,3.1934,2.0131,NA,NA,NA,NA,NA,bored,"bored, not bored","more bored, less bored",NA,NA,NA,NA,NA,NA,NA,NA,NA,NA,NA,NA,NA,NA,NA,NA,NA,NA,NA,NA,NA,NA,NA,NA,NA,NA,NA,NA,NA,NA,NA,NA,NA,NA,NA,NA,NA,NA,0,1,1,2,1,NA,NA,NA,NA,NA
SUPAMT94580,3MTMREQS41H3SATM36MSM0DX4GBWAZ,759403D8-0104-46F8-8494-1454C1036E84,2023-09-27_16h14.29.662,WP_VExplicitOC_LH,2022.2.5,Win32,33.1807021,59.11458333,5.9657,2.0223,NA,NA,NA,NA,NA,happy,"unhappy, happy","less happy, more happy",NA,NA,NA,NA,NA,NA,NA,NA,NA,NA,NA,NA,NA,NA,NA,NA,NA,NA,NA,NA,NA,NA,NA,NA,NA,NA,NA,NA,NA,NA,NA,NA,NA,NA,NA,NA,NA,NA,0,2,2,0,1,NA,NA,NA,NA,NA
SUPAMT94580,3MTMREQS41H3SATM36MSM0DX4GBWAZ,759403D8-0104-46F8-8494-1454C1036E84,2023-09-27_16h14.29.662,WP_VExplicitOC_LH,2022.2.5,Win32,33.1807021,NA,NA,NA,NA,NA,NA,NA,NA,NA,NA,NA,NA,NA,NA,NA,NA,NA,NA,NA,NA,NA,NA,NA,NA,NA,NA,NA,NA,NA,NA,NA,NA,NA,NA,NA,NA,NA,NA,NA,NA,NA,NA,NA,NA,NA,NA,NA,NA,NA,NA,NA,NA,NA,NA,13,0,13,0,1
SUPAMT94580,3MTMREQS41H3SATM36MSM0DX4GBWAZ,759403D8-0104-46F8-8494-1454C1036E84,2023-09-27_16h14.29.662,WP_VExplicitOC_LH,2022.2.5,Win32,33.1807021,50.78125,3.6889,2.0308,NA,NA,NA,NA,NA,happy,"unhappy, happy","less happy, more happy",NA,NA,NA,NA,NA,NA,NA,NA,NA,NA,NA,NA,NA,NA,NA,NA,NA,NA,NA,NA,NA,NA,NA,NA,NA,NA,NA,NA,NA,NA,NA,NA,NA,NA,NA,NA,NA,NA,0,0,0,0,1,NA,NA,NA,NA,NA
SUPAMT94580,3MTMREQS41H3SATM36MSM0DX4GBWAZ,759403D8-0104-46F8-8494-1454C1036E84,2023-09-27_16h14.29.662,WP_VExplicitOC_LH,2022.2.5,Win32,33.1807021,50.78125,3.7272,2.0214,NA,NA,NA,NA,NA,frustrated,"frustrated, not frustrated","more frustrated, less frustrated",NA,NA,NA,NA,NA,NA,NA,NA,NA,NA,NA,NA,NA,NA,NA,NA,NA,NA,NA,NA,NA,NA,NA,NA,NA,NA,NA,NA,NA,NA,NA,NA,NA,NA,NA,NA,NA,NA,0,1,1,1,1,NA,NA,NA,NA,NA
SUPAMT94580,3MTMREQS41H3SATM36MSM0DX4GBWAZ,759403D8-0104-46F8-8494-1454C1036E84,2023-09-27_16h14.29.662,WP_VExplicitOC_LH,2022.2.5,Win32,33.1807021,52.60416667,6.2174,2.0255,NA,NA,NA,NA,NA,bored,"bored, not bored","more bored, less bored",NA,NA,NA,NA,NA,NA,NA,NA,NA,NA,NA,NA,NA,NA,NA,NA,NA,NA,NA,NA,NA,NA,NA,NA,NA,NA,NA,NA,NA,NA,NA,NA,NA,NA,NA,NA,NA,NA,0,2,2,2,1,NA,NA,NA,NA,NA
SUPAMT94580,3MTMREQS41H3SATM36MSM0DX4GBWAZ,759403D8-0104-46F8-8494-1454C1036E84,2023-09-27_16h14.29.662,WP_VExplicitOC_LH,2022.2.5,Win32,33.1807021,NA,NA,NA,NA,NA,NA,NA,NA,NA,NA,NA,NA,NA,NA,NA,NA,NA,NA,NA,NA,NA,NA,NA,NA,NA,NA,NA,NA,NA,NA,NA,NA,NA,NA,NA,NA,NA,NA,NA,NA,NA,NA,NA,NA,NA,NA,NA,NA,NA,NA,NA,NA,NA,NA,14,0,14,0,1
SUPAMT94580,3MTMREQS41H3SATM36MSM0DX4GBWAZ,759403D8-0104-46F8-8494-1454C1036E84,2023-09-27_16h14.29.662,WP_VExplicitOC_LH,2022.2.5,Win32,33.1807021,NA,NA,NA,NA,NA,NA,NA,NA,NA,NA,NA,NA,NA,NA,NA,NA,NA,NA,NA,NA,NA,NA,NA,NA,NA,NA,NA,NA,NA,NA,NA,NA,NA,NA,NA,NA,NA,NA,NA,NA,NA,NA,NA,NA,NA,NA,NA,NA,NA,NA,NA,NA,NA,NA,NA,NA,NA,NA,NA
