participant,session,completion,date,expName,psychopyVersion,OS,frameRate,rating_all.response,rating_all.rt,rating_all.tStart,rndRat1.thisRepN,rndRat1.thisTrialN,rndRat1.thisN,rndRat1.thisIndex,rndRat1.ran,Emo,Labs,Labs2,rating_alt.response,rating_alt.rt,AltC.thisRepN,AltC.thisTrialN,AltC.thisN,AltC.thisIndex,AltC.ran,alt_choices,pic_choices,BottomAlt_Choice,rndRat2.thisRepN,rndRat2.thisTrialN,rndRat2.thisN,rndRat2.thisIndex,rndRat2.ran,rndRat3.thisRepN,rndRat3.thisTrialN,rndRat3.thisN,rndRat3.thisIndex,rndRat3.ran,trials_FC_L.thisRepN,trials_FC_L.thisTrialN,trials_FC_L.thisN,trials_FC_L.thisIndex,trials_FC_L.ran,rating_alt_2.response,rating_alt_2.rt,AltC2.thisRepN,AltC2.thisTrialN,AltC2.thisN,AltC2.thisIndex,AltC2.ran,TopAlt_Choice,rndRat4.thisRepN,rndRat4.thisTrialN,rndRat4.thisN,rndRat4.thisIndex,rndRat4.ran,rndRat5.thisRepN,rndRat5.thisTrialN,rndRat5.thisN,rndRat5.thisIndex,rndRat5.ran,trials_FC_H.thisRepN,trials_FC_H.thisTrialN,trials_FC_H.thisN,trials_FC_H.thisIndex,trials_FC_H.ran
SUPAMT08836,3H0W84IWBQ11ARTCKHE8VKV7XF0REQ,15A22A9D-0012-4E62-8EC2-A6EB1556E9AE,2023-09-27_07h53.27.415,WP_VExplicitOC_LH,2022.2.5,Win32,8,NA,NA,NA,NA,NA,NA,NA,NA,NA,NA,NA,NA,NA,NA,NA,NA,NA,NA,NA,NA,NA,NA,NA,NA,NA,NA,NA,NA,NA,NA,NA,NA,NA,NA,NA,NA,NA,NA,NA,NA,NA,NA,NA,NA,NA,NA,NA,NA,NA,NA,NA,NA,NA,NA,NA,NA,NA,NA,NA
SUPAMT08836,3H0W84IWBQ11ARTCKHE8VKV7XF0REQ,15A22A9D-0012-4E62-8EC2-A6EB1556E9AE,2023-09-27_07h53.27.415,WP_VExplicitOC_LH,2022.2.5,Win32,8,NA,NA,NA,NA,NA,NA,NA,NA,NA,NA,NA,NA,NA,NA,NA,NA,NA,NA,NA,NA,NA,NA,NA,NA,NA,NA,NA,NA,NA,NA,NA,NA,NA,NA,NA,NA,NA,NA,NA,NA,NA,NA,NA,NA,NA,NA,NA,NA,NA,NA,NA,NA,NA,NA,NA,NA,NA,NA,NA
SUPAMT08836,3H0W84IWBQ11ARTCKHE8VKV7XF0REQ,15A22A9D-0012-4E62-8EC2-A6EB1556E9AE,2023-09-27_07h53.27.415,WP_VExplicitOC_LH,2022.2.5,Win32,8,NA,NA,NA,NA,NA,NA,NA,NA,NA,NA,NA,NA,NA,NA,NA,NA,NA,NA,NA,NA,NA,NA,NA,NA,NA,NA,NA,NA,NA,NA,NA,NA,NA,NA,NA,NA,NA,NA,NA,NA,NA,NA,NA,NA,NA,NA,NA,NA,NA,NA,NA,NA,NA,NA,NA,NA,NA,NA,NA
SUPAMT08836,3H0W84IWBQ11ARTCKHE8VKV7XF0REQ,15A22A9D-0012-4E62-8EC2-A6EB1556E9AE,2023-09-27_07h53.27.415,WP_VExplicitOC_LH,2022.2.5,Win32,8,7.03125,3.821,2.136,0,0,0,2,1,bored,"bored, not bored","more bored, less bored",NA,NA,NA,NA,NA,NA,NA,NA,NA,NA,NA,NA,NA,NA,NA,NA,NA,NA,NA,NA,NA,NA,NA,NA,NA,NA,NA,NA,NA,NA,NA,NA,NA,NA,NA,NA,NA,NA,NA,NA,NA,NA,NA,NA,NA,NA,NA,NA
SUPAMT08836,3H0W84IWBQ11ARTCKHE8VKV7XF0REQ,15A22A9D-0012-4E62-8EC2-A6EB1556E9AE,2023-09-27_07h53.27.415,WP_VExplicitOC_LH,2022.2.5,Win32,8,90.10416667,4.319,2.124,0,1,1,0,1,happy,"unhappy, happy","less happy, more happy",NA,NA,NA,NA,NA,NA,NA,NA,NA,NA,NA,NA,NA,NA,NA,NA,NA,NA,NA,NA,NA,NA,NA,NA,NA,NA,NA,NA,NA,NA,NA,NA,NA,NA,NA,NA,NA,NA,NA,NA,NA,NA,NA,NA,NA,NA,NA,NA
SUPAMT08836,3H0W84IWBQ11ARTCKHE8VKV7XF0REQ,15A22A9D-0012-4E62-8EC2-A6EB1556E9AE,2023-09-27_07h53.27.415,WP_VExplicitOC_LH,2022.2.5,Win32,8,86.19791667,4.682,2.095,0,2,2,1,1,frustrated,"frustrated, not frustrated","more frustrated, less frustrated",NA,NA,NA,NA,NA,NA,NA,NA,NA,NA,NA,NA,NA,NA,NA,NA,NA,NA,NA,NA,NA,NA,NA,NA,NA,NA,NA,NA,NA,NA,NA,NA,NA,NA,NA,NA,NA,NA,NA,NA,NA,NA,NA,NA,NA,NA,NA,NA
SUPAMT08836,3H0W84IWBQ11ARTCKHE8VKV7XF0REQ,15A22A9D-0012-4E62-8EC2-A6EB1556E9AE,2023-09-27_07h53.27.415,WP_VExplicitOC_LH,2022.2.5,Win32,8,NA,NA,NA,NA,NA,NA,NA,NA,NA,NA,NA,NA,NA,NA,NA,NA,NA,NA,NA,NA,NA,NA,NA,NA,NA,NA,NA,NA,NA,NA,NA,NA,NA,NA,NA,NA,NA,NA,NA,NA,NA,NA,NA,NA,NA,NA,NA,NA,NA,NA,NA,NA,NA,NA,NA,NA,NA,NA,NA
SUPAMT08836,3H0W84IWBQ11ARTCKHE8VKV7XF0REQ,15A22A9D-0012-4E62-8EC2-A6EB1556E9AE,2023-09-27_07h53.27.415,WP_VExplicitOC_LH,2022.2.5,Win32,8,NA,NA,NA,NA,NA,NA,NA,NA,NA,NA,NA,NA,NA,NA,NA,NA,NA,NA,NA,NA,NA,NA,NA,NA,NA,NA,NA,NA,NA,NA,NA,NA,NA,NA,NA,NA,NA,NA,NA,NA,NA,NA,NA,NA,NA,NA,NA,NA,NA,NA,NA,NA,NA,NA,NA,NA,NA,NA,NA
SUPAMT08836,3H0W84IWBQ11ARTCKHE8VKV7XF0REQ,15A22A9D-0012-4E62-8EC2-A6EB1556E9AE,2023-09-27_07h53.27.415,WP_VExplicitOC_LH,2022.2.5,Win32,8,NA,NA,NA,NA,NA,NA,NA,NA,NA,NA,NA,NA,NA,NA,NA,NA,NA,NA,NA,NA,NA,NA,NA,NA,NA,NA,NA,NA,NA,NA,NA,NA,NA,NA,NA,NA,NA,NA,NA,NA,NA,NA,NA,NA,NA,NA,NA,NA,NA,NA,NA,NA,NA,NA,NA,NA,NA,NA,NA
SUPAMT08836,3H0W84IWBQ11ARTCKHE8VKV7XF0REQ,15A22A9D-0012-4E62-8EC2-A6EB1556E9AE,2023-09-27_07h53.27.415,WP_VExplicitOC_LH,2022.2.5,Win32,8,NA,NA,NA,NA,NA,NA,NA,NA,NA,NA,NA,NA,NA,NA,NA,NA,NA,NA,NA,NA,NA,NA,NA,NA,NA,NA,NA,NA,NA,NA,NA,NA,NA,NA,NA,NA,NA,NA,NA,NA,NA,NA,NA,NA,NA,NA,NA,NA,NA,NA,NA,NA,NA,NA,NA,NA,NA,NA,NA
SUPAMT08836,3H0W84IWBQ11ARTCKHE8VKV7XF0REQ,15A22A9D-0012-4E62-8EC2-A6EB1556E9AE,2023-09-27_07h53.27.415,WP_VExplicitOC_LH,2022.2.5,Win32,8,NA,NA,NA,NA,NA,NA,NA,NA,NA,NA,NA,91.40625,2.989,0,0,0,0,1,rest (looking at a fixed cross),001.png,NA,NA,NA,NA,NA,NA,NA,NA,NA,NA,NA,NA,NA,NA,NA,NA,NA,NA,NA,NA,NA,NA,NA,NA,NA,NA,NA,NA,NA,NA,NA,NA,NA,NA,NA,NA,NA,NA,NA
SUPAMT08836,3H0W84IWBQ11ARTCKHE8VKV7XF0REQ,15A22A9D-0012-4E62-8EC2-A6EB1556E9AE,2023-09-27_07h53.27.415,WP_VExplicitOC_LH,2022.2.5,Win32,8,NA,NA,NA,NA,NA,NA,NA,NA,NA,NA,NA,75.78125,2.466,0,1,1,1,1,stand up,002.png,NA,NA,NA,NA,NA,NA,NA,NA,NA,NA,NA,NA,NA,NA,NA,NA,NA,NA,NA,NA,NA,NA,NA,NA,NA,NA,NA,NA,NA,NA,NA,NA,NA,NA,NA,NA,NA,NA,NA
SUPAMT08836,3H0W84IWBQ11ARTCKHE8VKV7XF0REQ,15A22A9D-0012-4E62-8EC2-A6EB1556E9AE,2023-09-27_07h53.27.415,WP_VExplicitOC_LH,2022.2.5,Win32,8,NA,NA,NA,NA,NA,NA,NA,NA,NA,NA,NA,77.34375,2.317,0,2,2,2,1,stretch,003.png,NA,NA,NA,NA,NA,NA,NA,NA,NA,NA,NA,NA,NA,NA,NA,NA,NA,NA,NA,NA,NA,NA,NA,NA,NA,NA,NA,NA,NA,NA,NA,NA,NA,NA,NA,NA,NA,NA,NA
SUPAMT08836,3H0W84IWBQ11ARTCKHE8VKV7XF0REQ,15A22A9D-0012-4E62-8EC2-A6EB1556E9AE,2023-09-27_07h53.27.415,WP_VExplicitOC_LH,2022.2.5,Win32,8,NA,NA,NA,NA,NA,NA,NA,NA,NA,NA,NA,90.625,2.496,0,3,3,3,1,make a drink,004.png,NA,NA,NA,NA,NA,NA,NA,NA,NA,NA,NA,NA,NA,NA,NA,NA,NA,NA,NA,NA,NA,NA,NA,NA,NA,NA,NA,NA,NA,NA,NA,NA,NA,NA,NA,NA,NA,NA,NA
SUPAMT08836,3H0W84IWBQ11ARTCKHE8VKV7XF0REQ,15A22A9D-0012-4E62-8EC2-A6EB1556E9AE,2023-09-27_07h53.27.415,WP_VExplicitOC_LH,2022.2.5,Win32,8,NA,NA,NA,NA,NA,NA,NA,NA,NA,NA,NA,72.91666667,2.108,0,4,4,4,1,scroll social media,005.png,NA,NA,NA,NA,NA,NA,NA,NA,NA,NA,NA,NA,NA,NA,NA,NA,NA,NA,NA,NA,NA,NA,NA,NA,NA,NA,NA,NA,NA,NA,NA,NA,NA,NA,NA,NA,NA,NA,NA
SUPAMT08836,3H0W84IWBQ11ARTCKHE8VKV7XF0REQ,15A22A9D-0012-4E62-8EC2-A6EB1556E9AE,2023-09-27_07h53.27.415,WP_VExplicitOC_LH,2022.2.5,Win32,8,NA,NA,NA,NA,NA,NA,NA,NA,NA,NA,NA,74.47916667,2.303,0,5,5,5,1,listen to music,006.png,NA,NA,NA,NA,NA,NA,NA,NA,NA,NA,NA,NA,NA,NA,NA,NA,NA,NA,NA,NA,NA,NA,NA,NA,NA,NA,NA,NA,NA,NA,NA,NA,NA,NA,NA,NA,NA,NA,NA
SUPAMT08836,3H0W84IWBQ11ARTCKHE8VKV7XF0REQ,15A22A9D-0012-4E62-8EC2-A6EB1556E9AE,2023-09-27_07h53.27.415,WP_VExplicitOC_LH,2022.2.5,Win32,8,NA,NA,NA,NA,NA,NA,NA,NA,NA,NA,NA,51.04166667,3.058,0,6,6,6,1,daydream,007.png,NA,NA,NA,NA,NA,NA,NA,NA,NA,NA,NA,NA,NA,NA,NA,NA,NA,NA,NA,NA,NA,NA,NA,NA,NA,NA,NA,NA,NA,NA,NA,NA,NA,NA,NA,NA,NA,NA,NA
SUPAMT08836,3H0W84IWBQ11ARTCKHE8VKV7XF0REQ,15A22A9D-0012-4E62-8EC2-A6EB1556E9AE,2023-09-27_07h53.27.415,WP_VExplicitOC_LH,2022.2.5,Win32,8,NA,NA,NA,NA,NA,NA,NA,NA,NA,NA,NA,64.32291667,3.641,0,7,7,7,1,watch a short animation,008.png,NA,NA,NA,NA,NA,NA,NA,NA,NA,NA,NA,NA,NA,NA,NA,NA,NA,NA,NA,NA,NA,NA,NA,NA,NA,NA,NA,NA,NA,NA,NA,NA,NA,NA,NA,NA,NA,NA,NA
SUPAMT08836,3H0W84IWBQ11ARTCKHE8VKV7XF0REQ,15A22A9D-0012-4E62-8EC2-A6EB1556E9AE,2023-09-27_07h53.27.415,WP_VExplicitOC_LH,2022.2.5,Win32,8,NA,NA,NA,NA,NA,NA,NA,NA,NA,NA,NA,100,2.012,0,8,8,8,1,read a novel,009.png,NA,NA,NA,NA,NA,NA,NA,NA,NA,NA,NA,NA,NA,NA,NA,NA,NA,NA,NA,NA,NA,NA,NA,NA,NA,NA,NA,NA,NA,NA,NA,NA,NA,NA,NA,NA,NA,NA,NA
SUPAMT08836,3H0W84IWBQ11ARTCKHE8VKV7XF0REQ,15A22A9D-0012-4E62-8EC2-A6EB1556E9AE,2023-09-27_07h53.27.415,WP_VExplicitOC_LH,2022.2.5,Win32,8,NA,NA,NA,NA,NA,NA,NA,NA,NA,NA,NA,31.77083333,2.317,0,9,9,9,1,read the news,010.png,NA,NA,NA,NA,NA,NA,NA,NA,NA,NA,NA,NA,NA,NA,NA,NA,NA,NA,NA,NA,NA,NA,NA,NA,NA,NA,NA,NA,NA,NA,NA,NA,NA,NA,NA,NA,NA,NA,NA
SUPAMT08836,3H0W84IWBQ11ARTCKHE8VKV7XF0REQ,15A22A9D-0012-4E62-8EC2-A6EB1556E9AE,2023-09-27_07h53.27.415,WP_VExplicitOC_LH,2022.2.5,Win32,8,NA,NA,NA,NA,NA,NA,NA,NA,NA,NA,NA,NA,NA,NA,NA,NA,NA,NA,NA,NA,NA,NA,NA,NA,NA,NA,NA,NA,NA,NA,NA,NA,NA,NA,NA,NA,NA,NA,NA,NA,NA,NA,NA,NA,NA,NA,NA,NA,NA,NA,NA,NA,NA,NA,NA,NA,NA,NA,NA
SUPAMT08836,3H0W84IWBQ11ARTCKHE8VKV7XF0REQ,15A22A9D-0012-4E62-8EC2-A6EB1556E9AE,2023-09-27_07h53.27.415,WP_VExplicitOC_LH,2022.2.5,Win32,8,NA,NA,NA,NA,NA,NA,NA,NA,NA,NA,NA,NA,NA,NA,NA,NA,NA,NA,NA,NA,read the news,NA,NA,NA,NA,NA,NA,NA,NA,NA,NA,NA,NA,NA,NA,NA,NA,NA,NA,NA,NA,NA,NA,NA,NA,NA,NA,NA,NA,NA,NA,NA,NA,NA,NA,NA,NA,NA,NA
SUPAMT08836,3H0W84IWBQ11ARTCKHE8VKV7XF0REQ,15A22A9D-0012-4E62-8EC2-A6EB1556E9AE,2023-09-27_07h53.27.415,WP_VExplicitOC_LH,2022.2.5,Win32,8,87.76041667,4.401,2.107,NA,NA,NA,NA,NA,frustrated,"frustrated, not frustrated","more frustrated, less frustrated",NA,NA,NA,NA,NA,NA,NA,NA,NA,NA,0,0,0,1,1,NA,NA,NA,NA,NA,NA,NA,NA,NA,NA,NA,NA,NA,NA,NA,NA,NA,NA,NA,NA,NA,NA,NA,NA,NA,NA,NA,NA,NA,NA,NA,NA,NA
SUPAMT08836,3H0W84IWBQ11ARTCKHE8VKV7XF0REQ,15A22A9D-0012-4E62-8EC2-A6EB1556E9AE,2023-09-27_07h53.27.415,WP_VExplicitOC_LH,2022.2.5,Win32,8,74.47916667,4.948,2.193,NA,NA,NA,NA,NA,happy,"unhappy, happy","less happy, more happy",NA,NA,NA,NA,NA,NA,NA,NA,NA,NA,0,1,1,0,1,NA,NA,NA,NA,NA,NA,NA,NA,NA,NA,NA,NA,NA,NA,NA,NA,NA,NA,NA,NA,NA,NA,NA,NA,NA,NA,NA,NA,NA,NA,NA,NA,NA
SUPAMT08836,3H0W84IWBQ11ARTCKHE8VKV7XF0REQ,15A22A9D-0012-4E62-8EC2-A6EB1556E9AE,2023-09-27_07h53.27.415,WP_VExplicitOC_LH,2022.2.5,Win32,8,78.38541667,5.414,2.047,NA,NA,NA,NA,NA,bored,"bored, not bored","more bored, less bored",NA,NA,NA,NA,NA,NA,NA,NA,NA,NA,0,2,2,2,1,NA,NA,NA,NA,NA,NA,NA,NA,NA,NA,NA,NA,NA,NA,NA,NA,NA,NA,NA,NA,NA,NA,NA,NA,NA,NA,NA,NA,NA,NA,NA,NA,NA
SUPAMT08836,3H0W84IWBQ11ARTCKHE8VKV7XF0REQ,15A22A9D-0012-4E62-8EC2-A6EB1556E9AE,2023-09-27_07h53.27.415,WP_VExplicitOC_LH,2022.2.5,Win32,8,NA,NA,NA,NA,NA,NA,NA,NA,NA,NA,NA,NA,NA,NA,NA,NA,NA,NA,NA,NA,NA,NA,NA,NA,NA,NA,NA,NA,NA,NA,NA,NA,NA,NA,NA,NA,NA,NA,NA,NA,NA,NA,NA,NA,NA,NA,NA,NA,NA,NA,NA,NA,NA,NA,NA,NA,NA,NA,NA
SUPAMT08836,3H0W84IWBQ11ARTCKHE8VKV7XF0REQ,15A22A9D-0012-4E62-8EC2-A6EB1556E9AE,2023-09-27_07h53.27.415,WP_VExplicitOC_LH,2022.2.5,Win32,8,NA,NA,NA,NA,NA,NA,NA,NA,NA,NA,NA,NA,NA,NA,NA,NA,NA,NA,NA,NA,NA,NA,NA,NA,NA,NA,NA,NA,NA,NA,NA,NA,NA,NA,NA,NA,NA,NA,NA,NA,NA,NA,NA,NA,NA,NA,NA,NA,NA,NA,NA,NA,NA,NA,NA,NA,NA,NA,NA
SUPAMT08836,3H0W84IWBQ11ARTCKHE8VKV7XF0REQ,15A22A9D-0012-4E62-8EC2-A6EB1556E9AE,2023-09-27_07h53.27.415,WP_VExplicitOC_LH,2022.2.5,Win32,8,70.3125,5.526,2.096,NA,NA,NA,NA,NA,frustrated,"frustrated, not frustrated","more frustrated, less frustrated",NA,NA,NA,NA,NA,NA,NA,NA,NA,NA,NA,NA,NA,NA,NA,0,0,0,1,1,NA,NA,NA,NA,NA,NA,NA,NA,NA,NA,NA,NA,NA,NA,NA,NA,NA,NA,NA,NA,NA,NA,NA,NA,NA,NA,NA,NA
SUPAMT08836,3H0W84IWBQ11ARTCKHE8VKV7XF0REQ,15A22A9D-0012-4E62-8EC2-A6EB1556E9AE,2023-09-27_07h53.27.415,WP_VExplicitOC_LH,2022.2.5,Win32,8,83.59375,5.572,2.044,NA,NA,NA,NA,NA,happy,"unhappy, happy","less happy, more happy",NA,NA,NA,NA,NA,NA,NA,NA,NA,NA,NA,NA,NA,NA,NA,0,1,1,0,1,NA,NA,NA,NA,NA,NA,NA,NA,NA,NA,NA,NA,NA,NA,NA,NA,NA,NA,NA,NA,NA,NA,NA,NA,NA,NA,NA,NA
SUPAMT08836,3H0W84IWBQ11ARTCKHE8VKV7XF0REQ,15A22A9D-0012-4E62-8EC2-A6EB1556E9AE,2023-09-27_07h53.27.415,WP_VExplicitOC_LH,2022.2.5,Win32,8,69.79166667,7.397,2.143,NA,NA,NA,NA,NA,bored,"bored, not bored","more bored, less bored",NA,NA,NA,NA,NA,NA,NA,NA,NA,NA,NA,NA,NA,NA,NA,0,2,2,2,1,NA,NA,NA,NA,NA,NA,NA,NA,NA,NA,NA,NA,NA,NA,NA,NA,NA,NA,NA,NA,NA,NA,NA,NA,NA,NA,NA,NA
SUPAMT08836,3H0W84IWBQ11ARTCKHE8VKV7XF0REQ,15A22A9D-0012-4E62-8EC2-A6EB1556E9AE,2023-09-27_07h53.27.415,WP_VExplicitOC_LH,2022.2.5,Win32,8,NA,NA,NA,NA,NA,NA,NA,NA,NA,NA,NA,NA,NA,NA,NA,NA,NA,NA,NA,NA,NA,NA,NA,NA,NA,NA,NA,NA,NA,NA,NA,0,0,0,0,1,NA,NA,NA,NA,NA,NA,NA,NA,NA,NA,NA,NA,NA,NA,NA,NA,NA,NA,NA,NA,NA,NA,NA
SUPAMT08836,3H0W84IWBQ11ARTCKHE8VKV7XF0REQ,15A22A9D-0012-4E62-8EC2-A6EB1556E9AE,2023-09-27_07h53.27.415,WP_VExplicitOC_LH,2022.2.5,Win32,8,76.04166667,6.784,2.06,NA,NA,NA,NA,NA,bored,"bored, not bored","more bored, less bored",NA,NA,NA,NA,NA,NA,NA,NA,NA,NA,NA,NA,NA,NA,NA,0,0,0,2,1,NA,NA,NA,NA,NA,NA,NA,NA,NA,NA,NA,NA,NA,NA,NA,NA,NA,NA,NA,NA,NA,NA,NA,NA,NA,NA,NA,NA
SUPAMT08836,3H0W84IWBQ11ARTCKHE8VKV7XF0REQ,15A22A9D-0012-4E62-8EC2-A6EB1556E9AE,2023-09-27_07h53.27.415,WP_VExplicitOC_LH,2022.2.5,Win32,8,80.98958333,4.65,2.114,NA,NA,NA,NA,NA,frustrated,"frustrated, not frustrated","more frustrated, less frustrated",NA,NA,NA,NA,NA,NA,NA,NA,NA,NA,NA,NA,NA,NA,NA,0,1,1,1,1,NA,NA,NA,NA,NA,NA,NA,NA,NA,NA,NA,NA,NA,NA,NA,NA,NA,NA,NA,NA,NA,NA,NA,NA,NA,NA,NA,NA
SUPAMT08836,3H0W84IWBQ11ARTCKHE8VKV7XF0REQ,15A22A9D-0012-4E62-8EC2-A6EB1556E9AE,2023-09-27_07h53.27.415,WP_VExplicitOC_LH,2022.2.5,Win32,8,60.41666667,4.654,2.05,NA,NA,NA,NA,NA,happy,"unhappy, happy","less happy, more happy",NA,NA,NA,NA,NA,NA,NA,NA,NA,NA,NA,NA,NA,NA,NA,0,2,2,0,1,NA,NA,NA,NA,NA,NA,NA,NA,NA,NA,NA,NA,NA,NA,NA,NA,NA,NA,NA,NA,NA,NA,NA,NA,NA,NA,NA,NA
SUPAMT08836,3H0W84IWBQ11ARTCKHE8VKV7XF0REQ,15A22A9D-0012-4E62-8EC2-A6EB1556E9AE,2023-09-27_07h53.27.415,WP_VExplicitOC_LH,2022.2.5,Win32,8,NA,NA,NA,NA,NA,NA,NA,NA,NA,NA,NA,NA,NA,NA,NA,NA,NA,NA,NA,NA,NA,NA,NA,NA,NA,NA,NA,NA,NA,NA,NA,1,0,1,0,1,NA,NA,NA,NA,NA,NA,NA,NA,NA,NA,NA,NA,NA,NA,NA,NA,NA,NA,NA,NA,NA,NA,NA
SUPAMT08836,3H0W84IWBQ11ARTCKHE8VKV7XF0REQ,15A22A9D-0012-4E62-8EC2-A6EB1556E9AE,2023-09-27_07h53.27.415,WP_VExplicitOC_LH,2022.2.5,Win32,8,84.89583333,5.012,2.048,NA,NA,NA,NA,NA,bored,"bored, not bored","more bored, less bored",NA,NA,NA,NA,NA,NA,NA,NA,NA,NA,NA,NA,NA,NA,NA,0,0,0,2,1,NA,NA,NA,NA,NA,NA,NA,NA,NA,NA,NA,NA,NA,NA,NA,NA,NA,NA,NA,NA,NA,NA,NA,NA,NA,NA,NA,NA
SUPAMT08836,3H0W84IWBQ11ARTCKHE8VKV7XF0REQ,15A22A9D-0012-4E62-8EC2-A6EB1556E9AE,2023-09-27_07h53.27.415,WP_VExplicitOC_LH,2022.2.5,Win32,8,75,4.928,2.076,NA,NA,NA,NA,NA,frustrated,"frustrated, not frustrated","more frustrated, less frustrated",NA,NA,NA,NA,NA,NA,NA,NA,NA,NA,NA,NA,NA,NA,NA,0,1,1,1,1,NA,NA,NA,NA,NA,NA,NA,NA,NA,NA,NA,NA,NA,NA,NA,NA,NA,NA,NA,NA,NA,NA,NA,NA,NA,NA,NA,NA
SUPAMT08836,3H0W84IWBQ11ARTCKHE8VKV7XF0REQ,15A22A9D-0012-4E62-8EC2-A6EB1556E9AE,2023-09-27_07h53.27.415,WP_VExplicitOC_LH,2022.2.5,Win32,8,90.10416667,4.768,2.007,NA,NA,NA,NA,NA,happy,"unhappy, happy","less happy, more happy",NA,NA,NA,NA,NA,NA,NA,NA,NA,NA,NA,NA,NA,NA,NA,0,2,2,0,1,NA,NA,NA,NA,NA,NA,NA,NA,NA,NA,NA,NA,NA,NA,NA,NA,NA,NA,NA,NA,NA,NA,NA,NA,NA,NA,NA,NA
SUPAMT08836,3H0W84IWBQ11ARTCKHE8VKV7XF0REQ,15A22A9D-0012-4E62-8EC2-A6EB1556E9AE,2023-09-27_07h53.27.415,WP_VExplicitOC_LH,2022.2.5,Win32,8,NA,NA,NA,NA,NA,NA,NA,NA,NA,NA,NA,NA,NA,NA,NA,NA,NA,NA,NA,NA,NA,NA,NA,NA,NA,NA,NA,NA,NA,NA,NA,2,0,2,0,1,NA,NA,NA,NA,NA,NA,NA,NA,NA,NA,NA,NA,NA,NA,NA,NA,NA,NA,NA,NA,NA,NA,NA
SUPAMT08836,3H0W84IWBQ11ARTCKHE8VKV7XF0REQ,15A22A9D-0012-4E62-8EC2-A6EB1556E9AE,2023-09-27_07h53.27.415,WP_VExplicitOC_LH,2022.2.5,Win32,8,70.83333333,5.517,2.06,NA,NA,NA,NA,NA,happy,"unhappy, happy","less happy, more happy",NA,NA,NA,NA,NA,NA,NA,NA,NA,NA,NA,NA,NA,NA,NA,0,0,0,0,1,NA,NA,NA,NA,NA,NA,NA,NA,NA,NA,NA,NA,NA,NA,NA,NA,NA,NA,NA,NA,NA,NA,NA,NA,NA,NA,NA,NA
SUPAMT08836,3H0W84IWBQ11ARTCKHE8VKV7XF0REQ,15A22A9D-0012-4E62-8EC2-A6EB1556E9AE,2023-09-27_07h53.27.415,WP_VExplicitOC_LH,2022.2.5,Win32,8,64.58333333,4.48,2.05,NA,NA,NA,NA,NA,frustrated,"frustrated, not frustrated","more frustrated, less frustrated",NA,NA,NA,NA,NA,NA,NA,NA,NA,NA,NA,NA,NA,NA,NA,0,1,1,1,1,NA,NA,NA,NA,NA,NA,NA,NA,NA,NA,NA,NA,NA,NA,NA,NA,NA,NA,NA,NA,NA,NA,NA,NA,NA,NA,NA,NA
SUPAMT08836,3H0W84IWBQ11ARTCKHE8VKV7XF0REQ,15A22A9D-0012-4E62-8EC2-A6EB1556E9AE,2023-09-27_07h53.27.415,WP_VExplicitOC_LH,2022.2.5,Win32,8,88.54166667,4.755,2.028,NA,NA,NA,NA,NA,bored,"bored, not bored","more bored, less bored",NA,NA,NA,NA,NA,NA,NA,NA,NA,NA,NA,NA,NA,NA,NA,0,2,2,2,1,NA,NA,NA,NA,NA,NA,NA,NA,NA,NA,NA,NA,NA,NA,NA,NA,NA,NA,NA,NA,NA,NA,NA,NA,NA,NA,NA,NA
SUPAMT08836,3H0W84IWBQ11ARTCKHE8VKV7XF0REQ,15A22A9D-0012-4E62-8EC2-A6EB1556E9AE,2023-09-27_07h53.27.415,WP_VExplicitOC_LH,2022.2.5,Win32,8,NA,NA,NA,NA,NA,NA,NA,NA,NA,NA,NA,NA,NA,NA,NA,NA,NA,NA,NA,NA,NA,NA,NA,NA,NA,NA,NA,NA,NA,NA,NA,3,0,3,0,1,NA,NA,NA,NA,NA,NA,NA,NA,NA,NA,NA,NA,NA,NA,NA,NA,NA,NA,NA,NA,NA,NA,NA
SUPAMT08836,3H0W84IWBQ11ARTCKHE8VKV7XF0REQ,15A22A9D-0012-4E62-8EC2-A6EB1556E9AE,2023-09-27_07h53.27.415,WP_VExplicitOC_LH,2022.2.5,Win32,8,73.69791667,6.113,2.068,NA,NA,NA,NA,NA,bored,"bored, not bored","more bored, less bored",NA,NA,NA,NA,NA,NA,NA,NA,NA,NA,NA,NA,NA,NA,NA,0,0,0,2,1,NA,NA,NA,NA,NA,NA,NA,NA,NA,NA,NA,NA,NA,NA,NA,NA,NA,NA,NA,NA,NA,NA,NA,NA,NA,NA,NA,NA
SUPAMT08836,3H0W84IWBQ11ARTCKHE8VKV7XF0REQ,15A22A9D-0012-4E62-8EC2-A6EB1556E9AE,2023-09-27_07h53.27.415,WP_VExplicitOC_LH,2022.2.5,Win32,8,70.3125,5.515,2.004,NA,NA,NA,NA,NA,happy,"unhappy, happy","less happy, more happy",NA,NA,NA,NA,NA,NA,NA,NA,NA,NA,NA,NA,NA,NA,NA,0,1,1,0,1,NA,NA,NA,NA,NA,NA,NA,NA,NA,NA,NA,NA,NA,NA,NA,NA,NA,NA,NA,NA,NA,NA,NA,NA,NA,NA,NA,NA
SUPAMT08836,3H0W84IWBQ11ARTCKHE8VKV7XF0REQ,15A22A9D-0012-4E62-8EC2-A6EB1556E9AE,2023-09-27_07h53.27.415,WP_VExplicitOC_LH,2022.2.5,Win32,8,76.82291667,6.477,2.039,NA,NA,NA,NA,NA,frustrated,"frustrated, not frustrated","more frustrated, less frustrated",NA,NA,NA,NA,NA,NA,NA,NA,NA,NA,NA,NA,NA,NA,NA,0,2,2,1,1,NA,NA,NA,NA,NA,NA,NA,NA,NA,NA,NA,NA,NA,NA,NA,NA,NA,NA,NA,NA,NA,NA,NA,NA,NA,NA,NA,NA
SUPAMT08836,3H0W84IWBQ11ARTCKHE8VKV7XF0REQ,15A22A9D-0012-4E62-8EC2-A6EB1556E9AE,2023-09-27_07h53.27.415,WP_VExplicitOC_LH,2022.2.5,Win32,8,NA,NA,NA,NA,NA,NA,NA,NA,NA,NA,NA,NA,NA,NA,NA,NA,NA,NA,NA,NA,NA,NA,NA,NA,NA,NA,NA,NA,NA,NA,NA,4,0,4,0,1,NA,NA,NA,NA,NA,NA,NA,NA,NA,NA,NA,NA,NA,NA,NA,NA,NA,NA,NA,NA,NA,NA,NA
SUPAMT08836,3H0W84IWBQ11ARTCKHE8VKV7XF0REQ,15A22A9D-0012-4E62-8EC2-A6EB1556E9AE,2023-09-27_07h53.27.415,WP_VExplicitOC_LH,2022.2.5,Win32,8,76.04166667,4.704,2.097,NA,NA,NA,NA,NA,frustrated,"frustrated, not frustrated","more frustrated, less frustrated",NA,NA,NA,NA,NA,NA,NA,NA,NA,NA,NA,NA,NA,NA,NA,0,0,0,1,1,NA,NA,NA,NA,NA,NA,NA,NA,NA,NA,NA,NA,NA,NA,NA,NA,NA,NA,NA,NA,NA,NA,NA,NA,NA,NA,NA,NA
SUPAMT08836,3H0W84IWBQ11ARTCKHE8VKV7XF0REQ,15A22A9D-0012-4E62-8EC2-A6EB1556E9AE,2023-09-27_07h53.27.415,WP_VExplicitOC_LH,2022.2.5,Win32,8,80.20833333,5.188,2.081,NA,NA,NA,NA,NA,happy,"unhappy, happy","less happy, more happy",NA,NA,NA,NA,NA,NA,NA,NA,NA,NA,NA,NA,NA,NA,NA,0,1,1,0,1,NA,NA,NA,NA,NA,NA,NA,NA,NA,NA,NA,NA,NA,NA,NA,NA,NA,NA,NA,NA,NA,NA,NA,NA,NA,NA,NA,NA
SUPAMT08836,3H0W84IWBQ11ARTCKHE8VKV7XF0REQ,15A22A9D-0012-4E62-8EC2-A6EB1556E9AE,2023-09-27_07h53.27.415,WP_VExplicitOC_LH,2022.2.5,Win32,8,67.1875,5.127,2.031,NA,NA,NA,NA,NA,bored,"bored, not bored","more bored, less bored",NA,NA,NA,NA,NA,NA,NA,NA,NA,NA,NA,NA,NA,NA,NA,0,2,2,2,1,NA,NA,NA,NA,NA,NA,NA,NA,NA,NA,NA,NA,NA,NA,NA,NA,NA,NA,NA,NA,NA,NA,NA,NA,NA,NA,NA,NA
SUPAMT08836,3H0W84IWBQ11ARTCKHE8VKV7XF0REQ,15A22A9D-0012-4E62-8EC2-A6EB1556E9AE,2023-09-27_07h53.27.415,WP_VExplicitOC_LH,2022.2.5,Win32,8,NA,NA,NA,NA,NA,NA,NA,NA,NA,NA,NA,NA,NA,NA,NA,NA,NA,NA,NA,NA,NA,NA,NA,NA,NA,NA,NA,NA,NA,NA,NA,5,0,5,0,1,NA,NA,NA,NA,NA,NA,NA,NA,NA,NA,NA,NA,NA,NA,NA,NA,NA,NA,NA,NA,NA,NA,NA
SUPAMT08836,3H0W84IWBQ11ARTCKHE8VKV7XF0REQ,15A22A9D-0012-4E62-8EC2-A6EB1556E9AE,2023-09-27_07h53.27.415,WP_VExplicitOC_LH,2022.2.5,Win32,8,72.91666667,4.235,2,NA,NA,NA,NA,NA,frustrated,"frustrated, not frustrated","more frustrated, less frustrated",NA,NA,NA,NA,NA,NA,NA,NA,NA,NA,NA,NA,NA,NA,NA,0,0,0,1,1,NA,NA,NA,NA,NA,NA,NA,NA,NA,NA,NA,NA,NA,NA,NA,NA,NA,NA,NA,NA,NA,NA,NA,NA,NA,NA,NA,NA
SUPAMT08836,3H0W84IWBQ11ARTCKHE8VKV7XF0REQ,15A22A9D-0012-4E62-8EC2-A6EB1556E9AE,2023-09-27_07h53.27.415,WP_VExplicitOC_LH,2022.2.5,Win32,8,77.60416667,4.944,2.147,NA,NA,NA,NA,NA,happy,"unhappy, happy","less happy, more happy",NA,NA,NA,NA,NA,NA,NA,NA,NA,NA,NA,NA,NA,NA,NA,0,1,1,0,1,NA,NA,NA,NA,NA,NA,NA,NA,NA,NA,NA,NA,NA,NA,NA,NA,NA,NA,NA,NA,NA,NA,NA,NA,NA,NA,NA,NA
SUPAMT08836,3H0W84IWBQ11ARTCKHE8VKV7XF0REQ,15A22A9D-0012-4E62-8EC2-A6EB1556E9AE,2023-09-27_07h53.27.415,WP_VExplicitOC_LH,2022.2.5,Win32,8,83.59375,5.175,2.054,NA,NA,NA,NA,NA,bored,"bored, not bored","more bored, less bored",NA,NA,NA,NA,NA,NA,NA,NA,NA,NA,NA,NA,NA,NA,NA,0,2,2,2,1,NA,NA,NA,NA,NA,NA,NA,NA,NA,NA,NA,NA,NA,NA,NA,NA,NA,NA,NA,NA,NA,NA,NA,NA,NA,NA,NA,NA
SUPAMT08836,3H0W84IWBQ11ARTCKHE8VKV7XF0REQ,15A22A9D-0012-4E62-8EC2-A6EB1556E9AE,2023-09-27_07h53.27.415,WP_VExplicitOC_LH,2022.2.5,Win32,8,NA,NA,NA,NA,NA,NA,NA,NA,NA,NA,NA,NA,NA,NA,NA,NA,NA,NA,NA,NA,NA,NA,NA,NA,NA,NA,NA,NA,NA,NA,NA,6,0,6,0,1,NA,NA,NA,NA,NA,NA,NA,NA,NA,NA,NA,NA,NA,NA,NA,NA,NA,NA,NA,NA,NA,NA,NA
SUPAMT08836,3H0W84IWBQ11ARTCKHE8VKV7XF0REQ,15A22A9D-0012-4E62-8EC2-A6EB1556E9AE,2023-09-27_07h53.27.415,WP_VExplicitOC_LH,2022.2.5,Win32,8,86.97916667,6.337,2.024,NA,NA,NA,NA,NA,bored,"bored, not bored","more bored, less bored",NA,NA,NA,NA,NA,NA,NA,NA,NA,NA,NA,NA,NA,NA,NA,0,0,0,2,1,NA,NA,NA,NA,NA,NA,NA,NA,NA,NA,NA,NA,NA,NA,NA,NA,NA,NA,NA,NA,NA,NA,NA,NA,NA,NA,NA,NA
SUPAMT08836,3H0W84IWBQ11ARTCKHE8VKV7XF0REQ,15A22A9D-0012-4E62-8EC2-A6EB1556E9AE,2023-09-27_07h53.27.415,WP_VExplicitOC_LH,2022.2.5,Win32,8,66.92708333,4.703,2.036,NA,NA,NA,NA,NA,happy,"unhappy, happy","less happy, more happy",NA,NA,NA,NA,NA,NA,NA,NA,NA,NA,NA,NA,NA,NA,NA,0,1,1,0,1,NA,NA,NA,NA,NA,NA,NA,NA,NA,NA,NA,NA,NA,NA,NA,NA,NA,NA,NA,NA,NA,NA,NA,NA,NA,NA,NA,NA
SUPAMT08836,3H0W84IWBQ11ARTCKHE8VKV7XF0REQ,15A22A9D-0012-4E62-8EC2-A6EB1556E9AE,2023-09-27_07h53.27.415,WP_VExplicitOC_LH,2022.2.5,Win32,8,77.86458333,4.738,2.104,NA,NA,NA,NA,NA,frustrated,"frustrated, not frustrated","more frustrated, less frustrated",NA,NA,NA,NA,NA,NA,NA,NA,NA,NA,NA,NA,NA,NA,NA,0,2,2,1,1,NA,NA,NA,NA,NA,NA,NA,NA,NA,NA,NA,NA,NA,NA,NA,NA,NA,NA,NA,NA,NA,NA,NA,NA,NA,NA,NA,NA
SUPAMT08836,3H0W84IWBQ11ARTCKHE8VKV7XF0REQ,15A22A9D-0012-4E62-8EC2-A6EB1556E9AE,2023-09-27_07h53.27.415,WP_VExplicitOC_LH,2022.2.5,Win32,8,NA,NA,NA,NA,NA,NA,NA,NA,NA,NA,NA,NA,NA,NA,NA,NA,NA,NA,NA,NA,NA,NA,NA,NA,NA,NA,NA,NA,NA,NA,NA,7,0,7,0,1,NA,NA,NA,NA,NA,NA,NA,NA,NA,NA,NA,NA,NA,NA,NA,NA,NA,NA,NA,NA,NA,NA,NA
SUPAMT08836,3H0W84IWBQ11ARTCKHE8VKV7XF0REQ,15A22A9D-0012-4E62-8EC2-A6EB1556E9AE,2023-09-27_07h53.27.415,WP_VExplicitOC_LH,2022.2.5,Win32,8,68.75,4.893,2.15,NA,NA,NA,NA,NA,bored,"bored, not bored","more bored, less bored",NA,NA,NA,NA,NA,NA,NA,NA,NA,NA,NA,NA,NA,NA,NA,0,0,0,2,1,NA,NA,NA,NA,NA,NA,NA,NA,NA,NA,NA,NA,NA,NA,NA,NA,NA,NA,NA,NA,NA,NA,NA,NA,NA,NA,NA,NA
SUPAMT08836,3H0W84IWBQ11ARTCKHE8VKV7XF0REQ,15A22A9D-0012-4E62-8EC2-A6EB1556E9AE,2023-09-27_07h53.27.415,WP_VExplicitOC_LH,2022.2.5,Win32,8,58.33333333,5.465,2.144,NA,NA,NA,NA,NA,happy,"unhappy, happy","less happy, more happy",NA,NA,NA,NA,NA,NA,NA,NA,NA,NA,NA,NA,NA,NA,NA,0,1,1,0,1,NA,NA,NA,NA,NA,NA,NA,NA,NA,NA,NA,NA,NA,NA,NA,NA,NA,NA,NA,NA,NA,NA,NA,NA,NA,NA,NA,NA
SUPAMT08836,3H0W84IWBQ11ARTCKHE8VKV7XF0REQ,15A22A9D-0012-4E62-8EC2-A6EB1556E9AE,2023-09-27_07h53.27.415,WP_VExplicitOC_LH,2022.2.5,Win32,8,73.69791667,4.653,2.055,NA,NA,NA,NA,NA,frustrated,"frustrated, not frustrated","more frustrated, less frustrated",NA,NA,NA,NA,NA,NA,NA,NA,NA,NA,NA,NA,NA,NA,NA,0,2,2,1,1,NA,NA,NA,NA,NA,NA,NA,NA,NA,NA,NA,NA,NA,NA,NA,NA,NA,NA,NA,NA,NA,NA,NA,NA,NA,NA,NA,NA
SUPAMT08836,3H0W84IWBQ11ARTCKHE8VKV7XF0REQ,15A22A9D-0012-4E62-8EC2-A6EB1556E9AE,2023-09-27_07h53.27.415,WP_VExplicitOC_LH,2022.2.5,Win32,8,NA,NA,NA,NA,NA,NA,NA,NA,NA,NA,NA,NA,NA,NA,NA,NA,NA,NA,NA,NA,NA,NA,NA,NA,NA,NA,NA,NA,NA,NA,NA,8,0,8,0,1,NA,NA,NA,NA,NA,NA,NA,NA,NA,NA,NA,NA,NA,NA,NA,NA,NA,NA,NA,NA,NA,NA,NA
SUPAMT08836,3H0W84IWBQ11ARTCKHE8VKV7XF0REQ,15A22A9D-0012-4E62-8EC2-A6EB1556E9AE,2023-09-27_07h53.27.415,WP_VExplicitOC_LH,2022.2.5,Win32,8,87.23958333,5.076,2.102,NA,NA,NA,NA,NA,frustrated,"frustrated, not frustrated","more frustrated, less frustrated",NA,NA,NA,NA,NA,NA,NA,NA,NA,NA,NA,NA,NA,NA,NA,0,0,0,1,1,NA,NA,NA,NA,NA,NA,NA,NA,NA,NA,NA,NA,NA,NA,NA,NA,NA,NA,NA,NA,NA,NA,NA,NA,NA,NA,NA,NA
SUPAMT08836,3H0W84IWBQ11ARTCKHE8VKV7XF0REQ,15A22A9D-0012-4E62-8EC2-A6EB1556E9AE,2023-09-27_07h53.27.415,WP_VExplicitOC_LH,2022.2.5,Win32,8,58.33333333,4.716,2.083,NA,NA,NA,NA,NA,happy,"unhappy, happy","less happy, more happy",NA,NA,NA,NA,NA,NA,NA,NA,NA,NA,NA,NA,NA,NA,NA,0,1,1,0,1,NA,NA,NA,NA,NA,NA,NA,NA,NA,NA,NA,NA,NA,NA,NA,NA,NA,NA,NA,NA,NA,NA,NA,NA,NA,NA,NA,NA
SUPAMT08836,3H0W84IWBQ11ARTCKHE8VKV7XF0REQ,15A22A9D-0012-4E62-8EC2-A6EB1556E9AE,2023-09-27_07h53.27.415,WP_VExplicitOC_LH,2022.2.5,Win32,8,68.75,4.533,2.107,NA,NA,NA,NA,NA,bored,"bored, not bored","more bored, less bored",NA,NA,NA,NA,NA,NA,NA,NA,NA,NA,NA,NA,NA,NA,NA,0,2,2,2,1,NA,NA,NA,NA,NA,NA,NA,NA,NA,NA,NA,NA,NA,NA,NA,NA,NA,NA,NA,NA,NA,NA,NA,NA,NA,NA,NA,NA
SUPAMT08836,3H0W84IWBQ11ARTCKHE8VKV7XF0REQ,15A22A9D-0012-4E62-8EC2-A6EB1556E9AE,2023-09-27_07h53.27.415,WP_VExplicitOC_LH,2022.2.5,Win32,8,NA,NA,NA,NA,NA,NA,NA,NA,NA,NA,NA,NA,NA,NA,NA,NA,NA,NA,NA,NA,NA,NA,NA,NA,NA,NA,NA,NA,NA,NA,NA,9,0,9,0,1,NA,NA,NA,NA,NA,NA,NA,NA,NA,NA,NA,NA,NA,NA,NA,NA,NA,NA,NA,NA,NA,NA,NA
SUPAMT08836,3H0W84IWBQ11ARTCKHE8VKV7XF0REQ,15A22A9D-0012-4E62-8EC2-A6EB1556E9AE,2023-09-27_07h53.27.415,WP_VExplicitOC_LH,2022.2.5,Win32,8,68.48958333,4.589,2.007,NA,NA,NA,NA,NA,bored,"bored, not bored","more bored, less bored",NA,NA,NA,NA,NA,NA,NA,NA,NA,NA,NA,NA,NA,NA,NA,0,0,0,2,1,NA,NA,NA,NA,NA,NA,NA,NA,NA,NA,NA,NA,NA,NA,NA,NA,NA,NA,NA,NA,NA,NA,NA,NA,NA,NA,NA,NA
SUPAMT08836,3H0W84IWBQ11ARTCKHE8VKV7XF0REQ,15A22A9D-0012-4E62-8EC2-A6EB1556E9AE,2023-09-27_07h53.27.415,WP_VExplicitOC_LH,2022.2.5,Win32,8,70.3125,5.39,2.014,NA,NA,NA,NA,NA,frustrated,"frustrated, not frustrated","more frustrated, less frustrated",NA,NA,NA,NA,NA,NA,NA,NA,NA,NA,NA,NA,NA,NA,NA,0,1,1,1,1,NA,NA,NA,NA,NA,NA,NA,NA,NA,NA,NA,NA,NA,NA,NA,NA,NA,NA,NA,NA,NA,NA,NA,NA,NA,NA,NA,NA
SUPAMT08836,3H0W84IWBQ11ARTCKHE8VKV7XF0REQ,15A22A9D-0012-4E62-8EC2-A6EB1556E9AE,2023-09-27_07h53.27.415,WP_VExplicitOC_LH,2022.2.5,Win32,8,71.35416667,6.718,2.088,NA,NA,NA,NA,NA,happy,"unhappy, happy","less happy, more happy",NA,NA,NA,NA,NA,NA,NA,NA,NA,NA,NA,NA,NA,NA,NA,0,2,2,0,1,NA,NA,NA,NA,NA,NA,NA,NA,NA,NA,NA,NA,NA,NA,NA,NA,NA,NA,NA,NA,NA,NA,NA,NA,NA,NA,NA,NA
SUPAMT08836,3H0W84IWBQ11ARTCKHE8VKV7XF0REQ,15A22A9D-0012-4E62-8EC2-A6EB1556E9AE,2023-09-27_07h53.27.415,WP_VExplicitOC_LH,2022.2.5,Win32,8,NA,NA,NA,NA,NA,NA,NA,NA,NA,NA,NA,NA,NA,NA,NA,NA,NA,NA,NA,NA,NA,NA,NA,NA,NA,NA,NA,NA,NA,NA,NA,10,0,10,0,1,NA,NA,NA,NA,NA,NA,NA,NA,NA,NA,NA,NA,NA,NA,NA,NA,NA,NA,NA,NA,NA,NA,NA
SUPAMT08836,3H0W84IWBQ11ARTCKHE8VKV7XF0REQ,15A22A9D-0012-4E62-8EC2-A6EB1556E9AE,2023-09-27_07h53.27.415,WP_VExplicitOC_LH,2022.2.5,Win32,8,67.1875,4.936,2.034,NA,NA,NA,NA,NA,frustrated,"frustrated, not frustrated","more frustrated, less frustrated",NA,NA,NA,NA,NA,NA,NA,NA,NA,NA,NA,NA,NA,NA,NA,0,0,0,1,1,NA,NA,NA,NA,NA,NA,NA,NA,NA,NA,NA,NA,NA,NA,NA,NA,NA,NA,NA,NA,NA,NA,NA,NA,NA,NA,NA,NA
SUPAMT08836,3H0W84IWBQ11ARTCKHE8VKV7XF0REQ,15A22A9D-0012-4E62-8EC2-A6EB1556E9AE,2023-09-27_07h53.27.415,WP_VExplicitOC_LH,2022.2.5,Win32,8,76.82291667,4.613,2.074,NA,NA,NA,NA,NA,happy,"unhappy, happy","less happy, more happy",NA,NA,NA,NA,NA,NA,NA,NA,NA,NA,NA,NA,NA,NA,NA,0,1,1,0,1,NA,NA,NA,NA,NA,NA,NA,NA,NA,NA,NA,NA,NA,NA,NA,NA,NA,NA,NA,NA,NA,NA,NA,NA,NA,NA,NA,NA
SUPAMT08836,3H0W84IWBQ11ARTCKHE8VKV7XF0REQ,15A22A9D-0012-4E62-8EC2-A6EB1556E9AE,2023-09-27_07h53.27.415,WP_VExplicitOC_LH,2022.2.5,Win32,8,65.88541667,4.787,2.06,NA,NA,NA,NA,NA,bored,"bored, not bored","more bored, less bored",NA,NA,NA,NA,NA,NA,NA,NA,NA,NA,NA,NA,NA,NA,NA,0,2,2,2,1,NA,NA,NA,NA,NA,NA,NA,NA,NA,NA,NA,NA,NA,NA,NA,NA,NA,NA,NA,NA,NA,NA,NA,NA,NA,NA,NA,NA
SUPAMT08836,3H0W84IWBQ11ARTCKHE8VKV7XF0REQ,15A22A9D-0012-4E62-8EC2-A6EB1556E9AE,2023-09-27_07h53.27.415,WP_VExplicitOC_LH,2022.2.5,Win32,8,NA,NA,NA,NA,NA,NA,NA,NA,NA,NA,NA,NA,NA,NA,NA,NA,NA,NA,NA,NA,NA,NA,NA,NA,NA,NA,NA,NA,NA,NA,NA,11,0,11,0,1,NA,NA,NA,NA,NA,NA,NA,NA,NA,NA,NA,NA,NA,NA,NA,NA,NA,NA,NA,NA,NA,NA,NA
SUPAMT08836,3H0W84IWBQ11ARTCKHE8VKV7XF0REQ,15A22A9D-0012-4E62-8EC2-A6EB1556E9AE,2023-09-27_07h53.27.415,WP_VExplicitOC_LH,2022.2.5,Win32,8,3.125,4.91,2.146,NA,NA,NA,NA,NA,happy,"unhappy, happy","less happy, more happy",NA,NA,NA,NA,NA,NA,NA,NA,NA,NA,NA,NA,NA,NA,NA,0,0,0,0,1,NA,NA,NA,NA,NA,NA,NA,NA,NA,NA,NA,NA,NA,NA,NA,NA,NA,NA,NA,NA,NA,NA,NA,NA,NA,NA,NA,NA
SUPAMT08836,3H0W84IWBQ11ARTCKHE8VKV7XF0REQ,15A22A9D-0012-4E62-8EC2-A6EB1556E9AE,2023-09-27_07h53.27.415,WP_VExplicitOC_LH,2022.2.5,Win32,8,70.3125,4.238,2.03,NA,NA,NA,NA,NA,frustrated,"frustrated, not frustrated","more frustrated, less frustrated",NA,NA,NA,NA,NA,NA,NA,NA,NA,NA,NA,NA,NA,NA,NA,0,1,1,1,1,NA,NA,NA,NA,NA,NA,NA,NA,NA,NA,NA,NA,NA,NA,NA,NA,NA,NA,NA,NA,NA,NA,NA,NA,NA,NA,NA,NA
SUPAMT08836,3H0W84IWBQ11ARTCKHE8VKV7XF0REQ,15A22A9D-0012-4E62-8EC2-A6EB1556E9AE,2023-09-27_07h53.27.415,WP_VExplicitOC_LH,2022.2.5,Win32,8,78.64583333,6.393,2.026,NA,NA,NA,NA,NA,bored,"bored, not bored","more bored, less bored",NA,NA,NA,NA,NA,NA,NA,NA,NA,NA,NA,NA,NA,NA,NA,0,2,2,2,1,NA,NA,NA,NA,NA,NA,NA,NA,NA,NA,NA,NA,NA,NA,NA,NA,NA,NA,NA,NA,NA,NA,NA,NA,NA,NA,NA,NA
SUPAMT08836,3H0W84IWBQ11ARTCKHE8VKV7XF0REQ,15A22A9D-0012-4E62-8EC2-A6EB1556E9AE,2023-09-27_07h53.27.415,WP_VExplicitOC_LH,2022.2.5,Win32,8,NA,NA,NA,NA,NA,NA,NA,NA,NA,NA,NA,NA,NA,NA,NA,NA,NA,NA,NA,NA,NA,NA,NA,NA,NA,NA,NA,NA,NA,NA,NA,12,0,12,0,1,NA,NA,NA,NA,NA,NA,NA,NA,NA,NA,NA,NA,NA,NA,NA,NA,NA,NA,NA,NA,NA,NA,NA
SUPAMT08836,3H0W84IWBQ11ARTCKHE8VKV7XF0REQ,15A22A9D-0012-4E62-8EC2-A6EB1556E9AE,2023-09-27_07h53.27.415,WP_VExplicitOC_LH,2022.2.5,Win32,8,62.76041667,4.889,2.013,NA,NA,NA,NA,NA,frustrated,"frustrated, not frustrated","more frustrated, less frustrated",NA,NA,NA,NA,NA,NA,NA,NA,NA,NA,NA,NA,NA,NA,NA,0,0,0,1,1,NA,NA,NA,NA,NA,NA,NA,NA,NA,NA,NA,NA,NA,NA,NA,NA,NA,NA,NA,NA,NA,NA,NA,NA,NA,NA,NA,NA
SUPAMT08836,3H0W84IWBQ11ARTCKHE8VKV7XF0REQ,15A22A9D-0012-4E62-8EC2-A6EB1556E9AE,2023-09-27_07h53.27.415,WP_VExplicitOC_LH,2022.2.5,Win32,8,85.67708333,5.523,2.058,NA,NA,NA,NA,NA,happy,"unhappy, happy","less happy, more happy",NA,NA,NA,NA,NA,NA,NA,NA,NA,NA,NA,NA,NA,NA,NA,0,1,1,0,1,NA,NA,NA,NA,NA,NA,NA,NA,NA,NA,NA,NA,NA,NA,NA,NA,NA,NA,NA,NA,NA,NA,NA,NA,NA,NA,NA,NA
SUPAMT08836,3H0W84IWBQ11ARTCKHE8VKV7XF0REQ,15A22A9D-0012-4E62-8EC2-A6EB1556E9AE,2023-09-27_07h53.27.415,WP_VExplicitOC_LH,2022.2.5,Win32,8,59.89583333,5.199,2.072,NA,NA,NA,NA,NA,bored,"bored, not bored","more bored, less bored",NA,NA,NA,NA,NA,NA,NA,NA,NA,NA,NA,NA,NA,NA,NA,0,2,2,2,1,NA,NA,NA,NA,NA,NA,NA,NA,NA,NA,NA,NA,NA,NA,NA,NA,NA,NA,NA,NA,NA,NA,NA,NA,NA,NA,NA,NA
SUPAMT08836,3H0W84IWBQ11ARTCKHE8VKV7XF0REQ,15A22A9D-0012-4E62-8EC2-A6EB1556E9AE,2023-09-27_07h53.27.415,WP_VExplicitOC_LH,2022.2.5,Win32,8,NA,NA,NA,NA,NA,NA,NA,NA,NA,NA,NA,NA,NA,NA,NA,NA,NA,NA,NA,NA,NA,NA,NA,NA,NA,NA,NA,NA,NA,NA,NA,13,0,13,0,1,NA,NA,NA,NA,NA,NA,NA,NA,NA,NA,NA,NA,NA,NA,NA,NA,NA,NA,NA,NA,NA,NA,NA
SUPAMT08836,3H0W84IWBQ11ARTCKHE8VKV7XF0REQ,15A22A9D-0012-4E62-8EC2-A6EB1556E9AE,2023-09-27_07h53.27.415,WP_VExplicitOC_LH,2022.2.5,Win32,8,83.85416667,5.328,2.059,NA,NA,NA,NA,NA,frustrated,"frustrated, not frustrated","more frustrated, less frustrated",NA,NA,NA,NA,NA,NA,NA,NA,NA,NA,NA,NA,NA,NA,NA,0,0,0,1,1,NA,NA,NA,NA,NA,NA,NA,NA,NA,NA,NA,NA,NA,NA,NA,NA,NA,NA,NA,NA,NA,NA,NA,NA,NA,NA,NA,NA
SUPAMT08836,3H0W84IWBQ11ARTCKHE8VKV7XF0REQ,15A22A9D-0012-4E62-8EC2-A6EB1556E9AE,2023-09-27_07h53.27.415,WP_VExplicitOC_LH,2022.2.5,Win32,8,83.07291667,5.328,2.039,NA,NA,NA,NA,NA,happy,"unhappy, happy","less happy, more happy",NA,NA,NA,NA,NA,NA,NA,NA,NA,NA,NA,NA,NA,NA,NA,0,1,1,0,1,NA,NA,NA,NA,NA,NA,NA,NA,NA,NA,NA,NA,NA,NA,NA,NA,NA,NA,NA,NA,NA,NA,NA,NA,NA,NA,NA,NA
SUPAMT08836,3H0W84IWBQ11ARTCKHE8VKV7XF0REQ,15A22A9D-0012-4E62-8EC2-A6EB1556E9AE,2023-09-27_07h53.27.415,WP_VExplicitOC_LH,2022.2.5,Win32,8,68.48958333,4.598,2.23,NA,NA,NA,NA,NA,bored,"bored, not bored","more bored, less bored",NA,NA,NA,NA,NA,NA,NA,NA,NA,NA,NA,NA,NA,NA,NA,0,2,2,2,1,NA,NA,NA,NA,NA,NA,NA,NA,NA,NA,NA,NA,NA,NA,NA,NA,NA,NA,NA,NA,NA,NA,NA,NA,NA,NA,NA,NA
SUPAMT08836,3H0W84IWBQ11ARTCKHE8VKV7XF0REQ,15A22A9D-0012-4E62-8EC2-A6EB1556E9AE,2023-09-27_07h53.27.415,WP_VExplicitOC_LH,2022.2.5,Win32,8,NA,NA,NA,NA,NA,NA,NA,NA,NA,NA,NA,NA,NA,NA,NA,NA,NA,NA,NA,NA,NA,NA,NA,NA,NA,NA,NA,NA,NA,NA,NA,14,0,14,0,1,NA,NA,NA,NA,NA,NA,NA,NA,NA,NA,NA,NA,NA,NA,NA,NA,NA,NA,NA,NA,NA,NA,NA
SUPAMT08836,3H0W84IWBQ11ARTCKHE8VKV7XF0REQ,15A22A9D-0012-4E62-8EC2-A6EB1556E9AE,2023-09-27_07h53.27.415,WP_VExplicitOC_LH,2022.2.5,Win32,8,NA,NA,NA,NA,NA,NA,NA,NA,NA,NA,NA,NA,NA,NA,NA,NA,NA,NA,NA,NA,NA,NA,NA,NA,NA,NA,NA,NA,NA,NA,NA,NA,NA,NA,NA,NA,NA,NA,NA,NA,NA,NA,NA,NA,NA,NA,NA,NA,NA,NA,NA,NA,NA,NA,NA,NA,NA,NA,NA
SUPAMT08836,3H0W84IWBQ11ARTCKHE8VKV7XF0REQ,15A22A9D-0012-4E62-8EC2-A6EB1556E9AE,2023-09-27_07h53.27.415,WP_VExplicitOC_LH,2022.2.5,Win32,8,NA,NA,NA,NA,NA,NA,NA,NA,NA,NA,NA,NA,NA,NA,NA,NA,NA,NA,NA,NA,NA,NA,NA,NA,NA,NA,NA,NA,NA,NA,NA,NA,NA,NA,NA,NA,NA,NA,NA,NA,NA,NA,NA,NA,NA,NA,NA,NA,NA,NA,NA,NA,NA,NA,NA,NA,NA,NA,NA
SUPAMT08836,3H0W84IWBQ11ARTCKHE8VKV7XF0REQ,15A22A9D-0012-4E62-8EC2-A6EB1556E9AE,2023-09-27_07h53.27.415,WP_VExplicitOC_LH,2022.2.5,Win32,8,NA,NA,NA,NA,NA,NA,NA,NA,NA,NA,NA,NA,NA,NA,NA,NA,NA,NA,rest (looking at a fixed cross),001.png,NA,NA,NA,NA,NA,NA,NA,NA,NA,NA,NA,NA,NA,NA,NA,NA,75,5.271,0,0,0,0,1,NA,NA,NA,NA,NA,NA,NA,NA,NA,NA,NA,NA,NA,NA,NA,NA
SUPAMT08836,3H0W84IWBQ11ARTCKHE8VKV7XF0REQ,15A22A9D-0012-4E62-8EC2-A6EB1556E9AE,2023-09-27_07h53.27.415,WP_VExplicitOC_LH,2022.2.5,Win32,8,NA,NA,NA,NA,NA,NA,NA,NA,NA,NA,NA,NA,NA,NA,NA,NA,NA,NA,stand up,002.png,NA,NA,NA,NA,NA,NA,NA,NA,NA,NA,NA,NA,NA,NA,NA,NA,86.45833333,2.569,0,1,1,1,1,NA,NA,NA,NA,NA,NA,NA,NA,NA,NA,NA,NA,NA,NA,NA,NA
SUPAMT08836,3H0W84IWBQ11ARTCKHE8VKV7XF0REQ,15A22A9D-0012-4E62-8EC2-A6EB1556E9AE,2023-09-27_07h53.27.415,WP_VExplicitOC_LH,2022.2.5,Win32,8,NA,NA,NA,NA,NA,NA,NA,NA,NA,NA,NA,NA,NA,NA,NA,NA,NA,NA,stretch,003.png,NA,NA,NA,NA,NA,NA,NA,NA,NA,NA,NA,NA,NA,NA,NA,NA,84.89583333,2.158,0,2,2,2,1,NA,NA,NA,NA,NA,NA,NA,NA,NA,NA,NA,NA,NA,NA,NA,NA
SUPAMT08836,3H0W84IWBQ11ARTCKHE8VKV7XF0REQ,15A22A9D-0012-4E62-8EC2-A6EB1556E9AE,2023-09-27_07h53.27.415,WP_VExplicitOC_LH,2022.2.5,Win32,8,NA,NA,NA,NA,NA,NA,NA,NA,NA,NA,NA,NA,NA,NA,NA,NA,NA,NA,make a drink,004.png,NA,NA,NA,NA,NA,NA,NA,NA,NA,NA,NA,NA,NA,NA,NA,NA,72.65625,2.176,0,3,3,3,1,NA,NA,NA,NA,NA,NA,NA,NA,NA,NA,NA,NA,NA,NA,NA,NA
SUPAMT08836,3H0W84IWBQ11ARTCKHE8VKV7XF0REQ,15A22A9D-0012-4E62-8EC2-A6EB1556E9AE,2023-09-27_07h53.27.415,WP_VExplicitOC_LH,2022.2.5,Win32,8,NA,NA,NA,NA,NA,NA,NA,NA,NA,NA,NA,NA,NA,NA,NA,NA,NA,NA,scroll social media,005.png,NA,NA,NA,NA,NA,NA,NA,NA,NA,NA,NA,NA,NA,NA,NA,NA,59.63541667,2.046,0,4,4,4,1,NA,NA,NA,NA,NA,NA,NA,NA,NA,NA,NA,NA,NA,NA,NA,NA
SUPAMT08836,3H0W84IWBQ11ARTCKHE8VKV7XF0REQ,15A22A9D-0012-4E62-8EC2-A6EB1556E9AE,2023-09-27_07h53.27.415,WP_VExplicitOC_LH,2022.2.5,Win32,8,NA,NA,NA,NA,NA,NA,NA,NA,NA,NA,NA,NA,NA,NA,NA,NA,NA,NA,listen to music,006.png,NA,NA,NA,NA,NA,NA,NA,NA,NA,NA,NA,NA,NA,NA,NA,NA,50.26041667,2.15,0,5,5,5,1,NA,NA,NA,NA,NA,NA,NA,NA,NA,NA,NA,NA,NA,NA,NA,NA
SUPAMT08836,3H0W84IWBQ11ARTCKHE8VKV7XF0REQ,15A22A9D-0012-4E62-8EC2-A6EB1556E9AE,2023-09-27_07h53.27.415,WP_VExplicitOC_LH,2022.2.5,Win32,8,NA,NA,NA,NA,NA,NA,NA,NA,NA,NA,NA,NA,NA,NA,NA,NA,NA,NA,daydream,007.png,NA,NA,NA,NA,NA,NA,NA,NA,NA,NA,NA,NA,NA,NA,NA,NA,80.20833333,2.315,0,6,6,6,1,NA,NA,NA,NA,NA,NA,NA,NA,NA,NA,NA,NA,NA,NA,NA,NA
SUPAMT08836,3H0W84IWBQ11ARTCKHE8VKV7XF0REQ,15A22A9D-0012-4E62-8EC2-A6EB1556E9AE,2023-09-27_07h53.27.415,WP_VExplicitOC_LH,2022.2.5,Win32,8,NA,NA,NA,NA,NA,NA,NA,NA,NA,NA,NA,NA,NA,NA,NA,NA,NA,NA,watch a short animation,008.png,NA,NA,NA,NA,NA,NA,NA,NA,NA,NA,NA,NA,NA,NA,NA,NA,32.8125,2.491,0,7,7,7,1,NA,NA,NA,NA,NA,NA,NA,NA,NA,NA,NA,NA,NA,NA,NA,NA
SUPAMT08836,3H0W84IWBQ11ARTCKHE8VKV7XF0REQ,15A22A9D-0012-4E62-8EC2-A6EB1556E9AE,2023-09-27_07h53.27.415,WP_VExplicitOC_LH,2022.2.5,Win32,8,NA,NA,NA,NA,NA,NA,NA,NA,NA,NA,NA,NA,NA,NA,NA,NA,NA,NA,read a novel,009.png,NA,NA,NA,NA,NA,NA,NA,NA,NA,NA,NA,NA,NA,NA,NA,NA,100,2.292,0,8,8,8,1,NA,NA,NA,NA,NA,NA,NA,NA,NA,NA,NA,NA,NA,NA,NA,NA
SUPAMT08836,3H0W84IWBQ11ARTCKHE8VKV7XF0REQ,15A22A9D-0012-4E62-8EC2-A6EB1556E9AE,2023-09-27_07h53.27.415,WP_VExplicitOC_LH,2022.2.5,Win32,8,NA,NA,NA,NA,NA,NA,NA,NA,NA,NA,NA,NA,NA,NA,NA,NA,NA,NA,read the news,010.png,NA,NA,NA,NA,NA,NA,NA,NA,NA,NA,NA,NA,NA,NA,NA,NA,65.625,2.618,0,9,9,9,1,NA,NA,NA,NA,NA,NA,NA,NA,NA,NA,NA,NA,NA,NA,NA,NA
SUPAMT08836,3H0W84IWBQ11ARTCKHE8VKV7XF0REQ,15A22A9D-0012-4E62-8EC2-A6EB1556E9AE,2023-09-27_07h53.27.415,WP_VExplicitOC_LH,2022.2.5,Win32,8,NA,NA,NA,NA,NA,NA,NA,NA,NA,NA,NA,NA,NA,NA,NA,NA,NA,NA,NA,NA,NA,NA,NA,NA,NA,NA,NA,NA,NA,NA,NA,NA,NA,NA,NA,NA,NA,NA,NA,NA,NA,NA,NA,read a novel,NA,NA,NA,NA,NA,NA,NA,NA,NA,NA,NA,NA,NA,NA,NA
SUPAMT08836,3H0W84IWBQ11ARTCKHE8VKV7XF0REQ,15A22A9D-0012-4E62-8EC2-A6EB1556E9AE,2023-09-27_07h53.27.415,WP_VExplicitOC_LH,2022.2.5,Win32,8,88.28125,5.964,2.077,NA,NA,NA,NA,NA,bored,"bored, not bored","more bored, less bored",NA,NA,NA,NA,NA,NA,NA,NA,NA,NA,NA,NA,NA,NA,NA,NA,NA,NA,NA,NA,NA,NA,NA,NA,NA,NA,NA,NA,NA,NA,NA,NA,NA,0,0,0,2,1,NA,NA,NA,NA,NA,NA,NA,NA,NA,NA
SUPAMT08836,3H0W84IWBQ11ARTCKHE8VKV7XF0REQ,15A22A9D-0012-4E62-8EC2-A6EB1556E9AE,2023-09-27_07h53.27.415,WP_VExplicitOC_LH,2022.2.5,Win32,8,82.55208333,5.032,2.028,NA,NA,NA,NA,NA,frustrated,"frustrated, not frustrated","more frustrated, less frustrated",NA,NA,NA,NA,NA,NA,NA,NA,NA,NA,NA,NA,NA,NA,NA,NA,NA,NA,NA,NA,NA,NA,NA,NA,NA,NA,NA,NA,NA,NA,NA,NA,NA,0,1,1,1,1,NA,NA,NA,NA,NA,NA,NA,NA,NA,NA
SUPAMT08836,3H0W84IWBQ11ARTCKHE8VKV7XF0REQ,15A22A9D-0012-4E62-8EC2-A6EB1556E9AE,2023-09-27_07h53.27.415,WP_VExplicitOC_LH,2022.2.5,Win32,8,71.875,5.259,2.106,NA,NA,NA,NA,NA,happy,"unhappy, happy","less happy, more happy",NA,NA,NA,NA,NA,NA,NA,NA,NA,NA,NA,NA,NA,NA,NA,NA,NA,NA,NA,NA,NA,NA,NA,NA,NA,NA,NA,NA,NA,NA,NA,NA,NA,0,2,2,0,1,NA,NA,NA,NA,NA,NA,NA,NA,NA,NA
SUPAMT08836,3H0W84IWBQ11ARTCKHE8VKV7XF0REQ,15A22A9D-0012-4E62-8EC2-A6EB1556E9AE,2023-09-27_07h53.27.415,WP_VExplicitOC_LH,2022.2.5,Win32,8,NA,NA,NA,NA,NA,NA,NA,NA,NA,NA,NA,NA,NA,NA,NA,NA,NA,NA,NA,NA,NA,NA,NA,NA,NA,NA,NA,NA,NA,NA,NA,NA,NA,NA,NA,NA,NA,NA,NA,NA,NA,NA,NA,NA,NA,NA,NA,NA,NA,NA,NA,NA,NA,NA,NA,NA,NA,NA,NA
SUPAMT08836,3H0W84IWBQ11ARTCKHE8VKV7XF0REQ,15A22A9D-0012-4E62-8EC2-A6EB1556E9AE,2023-09-27_07h53.27.415,WP_VExplicitOC_LH,2022.2.5,Win32,8,NA,NA,NA,NA,NA,NA,NA,NA,NA,NA,NA,NA,NA,NA,NA,NA,NA,NA,NA,NA,NA,NA,NA,NA,NA,NA,NA,NA,NA,NA,NA,NA,NA,NA,NA,NA,NA,NA,NA,NA,NA,NA,NA,NA,NA,NA,NA,NA,NA,NA,NA,NA,NA,NA,NA,NA,NA,NA,NA
SUPAMT08836,3H0W84IWBQ11ARTCKHE8VKV7XF0REQ,15A22A9D-0012-4E62-8EC2-A6EB1556E9AE,2023-09-27_07h53.27.415,WP_VExplicitOC_LH,2022.2.5,Win32,8,70.05208333,4.726,2.092,NA,NA,NA,NA,NA,bored,"bored, not bored","more bored, less bored",NA,NA,NA,NA,NA,NA,NA,NA,NA,NA,NA,NA,NA,NA,NA,NA,NA,NA,NA,NA,NA,NA,NA,NA,NA,NA,NA,NA,NA,NA,NA,NA,NA,NA,NA,NA,NA,NA,0,0,0,2,1,NA,NA,NA,NA,NA
SUPAMT08836,3H0W84IWBQ11ARTCKHE8VKV7XF0REQ,15A22A9D-0012-4E62-8EC2-A6EB1556E9AE,2023-09-27_07h53.27.415,WP_VExplicitOC_LH,2022.2.5,Win32,8,67.44791667,4.49,2.099,NA,NA,NA,NA,NA,happy,"unhappy, happy","less happy, more happy",NA,NA,NA,NA,NA,NA,NA,NA,NA,NA,NA,NA,NA,NA,NA,NA,NA,NA,NA,NA,NA,NA,NA,NA,NA,NA,NA,NA,NA,NA,NA,NA,NA,NA,NA,NA,NA,NA,0,1,1,0,1,NA,NA,NA,NA,NA
SUPAMT08836,3H0W84IWBQ11ARTCKHE8VKV7XF0REQ,15A22A9D-0012-4E62-8EC2-A6EB1556E9AE,2023-09-27_07h53.27.415,WP_VExplicitOC_LH,2022.2.5,Win32,8,79.6875,5.315,2.107,NA,NA,NA,NA,NA,frustrated,"frustrated, not frustrated","more frustrated, less frustrated",NA,NA,NA,NA,NA,NA,NA,NA,NA,NA,NA,NA,NA,NA,NA,NA,NA,NA,NA,NA,NA,NA,NA,NA,NA,NA,NA,NA,NA,NA,NA,NA,NA,NA,NA,NA,NA,NA,0,2,2,1,1,NA,NA,NA,NA,NA
SUPAMT08836,3H0W84IWBQ11ARTCKHE8VKV7XF0REQ,15A22A9D-0012-4E62-8EC2-A6EB1556E9AE,2023-09-27_07h53.27.415,WP_VExplicitOC_LH,2022.2.5,Win32,8,NA,NA,NA,NA,NA,NA,NA,NA,NA,NA,NA,NA,NA,NA,NA,NA,NA,NA,NA,NA,NA,NA,NA,NA,NA,NA,NA,NA,NA,NA,NA,NA,NA,NA,NA,NA,NA,NA,NA,NA,NA,NA,NA,NA,NA,NA,NA,NA,NA,NA,NA,NA,NA,NA,0,0,0,0,1
SUPAMT08836,3H0W84IWBQ11ARTCKHE8VKV7XF0REQ,15A22A9D-0012-4E62-8EC2-A6EB1556E9AE,2023-09-27_07h53.27.415,WP_VExplicitOC_LH,2022.2.5,Win32,8,74.21875,4.135,2.124,NA,NA,NA,NA,NA,bored,"bored, not bored","more bored, less bored",NA,NA,NA,NA,NA,NA,NA,NA,NA,NA,NA,NA,NA,NA,NA,NA,NA,NA,NA,NA,NA,NA,NA,NA,NA,NA,NA,NA,NA,NA,NA,NA,NA,NA,NA,NA,NA,NA,0,0,0,2,1,NA,NA,NA,NA,NA
SUPAMT08836,3H0W84IWBQ11ARTCKHE8VKV7XF0REQ,15A22A9D-0012-4E62-8EC2-A6EB1556E9AE,2023-09-27_07h53.27.415,WP_VExplicitOC_LH,2022.2.5,Win32,8,86.45833333,4.97,2.146,NA,NA,NA,NA,NA,frustrated,"frustrated, not frustrated","more frustrated, less frustrated",NA,NA,NA,NA,NA,NA,NA,NA,NA,NA,NA,NA,NA,NA,NA,NA,NA,NA,NA,NA,NA,NA,NA,NA,NA,NA,NA,NA,NA,NA,NA,NA,NA,NA,NA,NA,NA,NA,0,1,1,1,1,NA,NA,NA,NA,NA
SUPAMT08836,3H0W84IWBQ11ARTCKHE8VKV7XF0REQ,15A22A9D-0012-4E62-8EC2-A6EB1556E9AE,2023-09-27_07h53.27.415,WP_VExplicitOC_LH,2022.2.5,Win32,8,85.15625,7.19,2.13,NA,NA,NA,NA,NA,happy,"unhappy, happy","less happy, more happy",NA,NA,NA,NA,NA,NA,NA,NA,NA,NA,NA,NA,NA,NA,NA,NA,NA,NA,NA,NA,NA,NA,NA,NA,NA,NA,NA,NA,NA,NA,NA,NA,NA,NA,NA,NA,NA,NA,0,2,2,0,1,NA,NA,NA,NA,NA
SUPAMT08836,3H0W84IWBQ11ARTCKHE8VKV7XF0REQ,15A22A9D-0012-4E62-8EC2-A6EB1556E9AE,2023-09-27_07h53.27.415,WP_VExplicitOC_LH,2022.2.5,Win32,8,NA,NA,NA,NA,NA,NA,NA,NA,NA,NA,NA,NA,NA,NA,NA,NA,NA,NA,NA,NA,NA,NA,NA,NA,NA,NA,NA,NA,NA,NA,NA,NA,NA,NA,NA,NA,NA,NA,NA,NA,NA,NA,NA,NA,NA,NA,NA,NA,NA,NA,NA,NA,NA,NA,1,0,1,0,1
SUPAMT08836,3H0W84IWBQ11ARTCKHE8VKV7XF0REQ,15A22A9D-0012-4E62-8EC2-A6EB1556E9AE,2023-09-27_07h53.27.415,WP_VExplicitOC_LH,2022.2.5,Win32,8,82.29166667,4.866,2.076,NA,NA,NA,NA,NA,bored,"bored, not bored","more bored, less bored",NA,NA,NA,NA,NA,NA,NA,NA,NA,NA,NA,NA,NA,NA,NA,NA,NA,NA,NA,NA,NA,NA,NA,NA,NA,NA,NA,NA,NA,NA,NA,NA,NA,NA,NA,NA,NA,NA,0,0,0,2,1,NA,NA,NA,NA,NA
SUPAMT08836,3H0W84IWBQ11ARTCKHE8VKV7XF0REQ,15A22A9D-0012-4E62-8EC2-A6EB1556E9AE,2023-09-27_07h53.27.415,WP_VExplicitOC_LH,2022.2.5,Win32,8,87.5,5.031,2.112,NA,NA,NA,NA,NA,happy,"unhappy, happy","less happy, more happy",NA,NA,NA,NA,NA,NA,NA,NA,NA,NA,NA,NA,NA,NA,NA,NA,NA,NA,NA,NA,NA,NA,NA,NA,NA,NA,NA,NA,NA,NA,NA,NA,NA,NA,NA,NA,NA,NA,0,1,1,0,1,NA,NA,NA,NA,NA
SUPAMT08836,3H0W84IWBQ11ARTCKHE8VKV7XF0REQ,15A22A9D-0012-4E62-8EC2-A6EB1556E9AE,2023-09-27_07h53.27.415,WP_VExplicitOC_LH,2022.2.5,Win32,8,85.67708333,4.845,2.044,NA,NA,NA,NA,NA,frustrated,"frustrated, not frustrated","more frustrated, less frustrated",NA,NA,NA,NA,NA,NA,NA,NA,NA,NA,NA,NA,NA,NA,NA,NA,NA,NA,NA,NA,NA,NA,NA,NA,NA,NA,NA,NA,NA,NA,NA,NA,NA,NA,NA,NA,NA,NA,0,2,2,1,1,NA,NA,NA,NA,NA
SUPAMT08836,3H0W84IWBQ11ARTCKHE8VKV7XF0REQ,15A22A9D-0012-4E62-8EC2-A6EB1556E9AE,2023-09-27_07h53.27.415,WP_VExplicitOC_LH,2022.2.5,Win32,8,NA,NA,NA,NA,NA,NA,NA,NA,NA,NA,NA,NA,NA,NA,NA,NA,NA,NA,NA,NA,NA,NA,NA,NA,NA,NA,NA,NA,NA,NA,NA,NA,NA,NA,NA,NA,NA,NA,NA,NA,NA,NA,NA,NA,NA,NA,NA,NA,NA,NA,NA,NA,NA,NA,2,0,2,0,1
SUPAMT08836,3H0W84IWBQ11ARTCKHE8VKV7XF0REQ,15A22A9D-0012-4E62-8EC2-A6EB1556E9AE,2023-09-27_07h53.27.415,WP_VExplicitOC_LH,2022.2.5,Win32,8,81.51041667,4.931,2.113,NA,NA,NA,NA,NA,happy,"unhappy, happy","less happy, more happy",NA,NA,NA,NA,NA,NA,NA,NA,NA,NA,NA,NA,NA,NA,NA,NA,NA,NA,NA,NA,NA,NA,NA,NA,NA,NA,NA,NA,NA,NA,NA,NA,NA,NA,NA,NA,NA,NA,0,0,0,0,1,NA,NA,NA,NA,NA
SUPAMT08836,3H0W84IWBQ11ARTCKHE8VKV7XF0REQ,15A22A9D-0012-4E62-8EC2-A6EB1556E9AE,2023-09-27_07h53.27.415,WP_VExplicitOC_LH,2022.2.5,Win32,8,73.95833333,5.126,2.116,NA,NA,NA,NA,NA,frustrated,"frustrated, not frustrated","more frustrated, less frustrated",NA,NA,NA,NA,NA,NA,NA,NA,NA,NA,NA,NA,NA,NA,NA,NA,NA,NA,NA,NA,NA,NA,NA,NA,NA,NA,NA,NA,NA,NA,NA,NA,NA,NA,NA,NA,NA,NA,0,1,1,1,1,NA,NA,NA,NA,NA
SUPAMT08836,3H0W84IWBQ11ARTCKHE8VKV7XF0REQ,15A22A9D-0012-4E62-8EC2-A6EB1556E9AE,2023-09-27_07h53.27.415,WP_VExplicitOC_LH,2022.2.5,Win32,8,71.09375,5.374,2.131,NA,NA,NA,NA,NA,bored,"bored, not bored","more bored, less bored",NA,NA,NA,NA,NA,NA,NA,NA,NA,NA,NA,NA,NA,NA,NA,NA,NA,NA,NA,NA,NA,NA,NA,NA,NA,NA,NA,NA,NA,NA,NA,NA,NA,NA,NA,NA,NA,NA,0,2,2,2,1,NA,NA,NA,NA,NA
SUPAMT08836,3H0W84IWBQ11ARTCKHE8VKV7XF0REQ,15A22A9D-0012-4E62-8EC2-A6EB1556E9AE,2023-09-27_07h53.27.415,WP_VExplicitOC_LH,2022.2.5,Win32,8,NA,NA,NA,NA,NA,NA,NA,NA,NA,NA,NA,NA,NA,NA,NA,NA,NA,NA,NA,NA,NA,NA,NA,NA,NA,NA,NA,NA,NA,NA,NA,NA,NA,NA,NA,NA,NA,NA,NA,NA,NA,NA,NA,NA,NA,NA,NA,NA,NA,NA,NA,NA,NA,NA,3,0,3,0,1
SUPAMT08836,3H0W84IWBQ11ARTCKHE8VKV7XF0REQ,15A22A9D-0012-4E62-8EC2-A6EB1556E9AE,2023-09-27_07h53.27.415,WP_VExplicitOC_LH,2022.2.5,Win32,8,80.98958333,6.515,2.077,NA,NA,NA,NA,NA,frustrated,"frustrated, not frustrated","more frustrated, less frustrated",NA,NA,NA,NA,NA,NA,NA,NA,NA,NA,NA,NA,NA,NA,NA,NA,NA,NA,NA,NA,NA,NA,NA,NA,NA,NA,NA,NA,NA,NA,NA,NA,NA,NA,NA,NA,NA,NA,0,0,0,1,1,NA,NA,NA,NA,NA
SUPAMT08836,3H0W84IWBQ11ARTCKHE8VKV7XF0REQ,15A22A9D-0012-4E62-8EC2-A6EB1556E9AE,2023-09-27_07h53.27.415,WP_VExplicitOC_LH,2022.2.5,Win32,8,76.5625,5.252,2.156,NA,NA,NA,NA,NA,happy,"unhappy, happy","less happy, more happy",NA,NA,NA,NA,NA,NA,NA,NA,NA,NA,NA,NA,NA,NA,NA,NA,NA,NA,NA,NA,NA,NA,NA,NA,NA,NA,NA,NA,NA,NA,NA,NA,NA,NA,NA,NA,NA,NA,0,1,1,0,1,NA,NA,NA,NA,NA
SUPAMT08836,3H0W84IWBQ11ARTCKHE8VKV7XF0REQ,15A22A9D-0012-4E62-8EC2-A6EB1556E9AE,2023-09-27_07h53.27.415,WP_VExplicitOC_LH,2022.2.5,Win32,8,78.125,4.531,2.1,NA,NA,NA,NA,NA,bored,"bored, not bored","more bored, less bored",NA,NA,NA,NA,NA,NA,NA,NA,NA,NA,NA,NA,NA,NA,NA,NA,NA,NA,NA,NA,NA,NA,NA,NA,NA,NA,NA,NA,NA,NA,NA,NA,NA,NA,NA,NA,NA,NA,0,2,2,2,1,NA,NA,NA,NA,NA
SUPAMT08836,3H0W84IWBQ11ARTCKHE8VKV7XF0REQ,15A22A9D-0012-4E62-8EC2-A6EB1556E9AE,2023-09-27_07h53.27.415,WP_VExplicitOC_LH,2022.2.5,Win32,8,NA,NA,NA,NA,NA,NA,NA,NA,NA,NA,NA,NA,NA,NA,NA,NA,NA,NA,NA,NA,NA,NA,NA,NA,NA,NA,NA,NA,NA,NA,NA,NA,NA,NA,NA,NA,NA,NA,NA,NA,NA,NA,NA,NA,NA,NA,NA,NA,NA,NA,NA,NA,NA,NA,4,0,4,0,1
SUPAMT08836,3H0W84IWBQ11ARTCKHE8VKV7XF0REQ,15A22A9D-0012-4E62-8EC2-A6EB1556E9AE,2023-09-27_07h53.27.415,WP_VExplicitOC_LH,2022.2.5,Win32,8,100,5.947,2.156,NA,NA,NA,NA,NA,happy,"unhappy, happy","less happy, more happy",NA,NA,NA,NA,NA,NA,NA,NA,NA,NA,NA,NA,NA,NA,NA,NA,NA,NA,NA,NA,NA,NA,NA,NA,NA,NA,NA,NA,NA,NA,NA,NA,NA,NA,NA,NA,NA,NA,0,0,0,0,1,NA,NA,NA,NA,NA
SUPAMT08836,3H0W84IWBQ11ARTCKHE8VKV7XF0REQ,15A22A9D-0012-4E62-8EC2-A6EB1556E9AE,2023-09-27_07h53.27.415,WP_VExplicitOC_LH,2022.2.5,Win32,8,75.78125,5.314,2.107,NA,NA,NA,NA,NA,bored,"bored, not bored","more bored, less bored",NA,NA,NA,NA,NA,NA,NA,NA,NA,NA,NA,NA,NA,NA,NA,NA,NA,NA,NA,NA,NA,NA,NA,NA,NA,NA,NA,NA,NA,NA,NA,NA,NA,NA,NA,NA,NA,NA,0,1,1,2,1,NA,NA,NA,NA,NA
SUPAMT08836,3H0W84IWBQ11ARTCKHE8VKV7XF0REQ,15A22A9D-0012-4E62-8EC2-A6EB1556E9AE,2023-09-27_07h53.27.415,WP_VExplicitOC_LH,2022.2.5,Win32,8,60.15625,7.079,2.104,NA,NA,NA,NA,NA,frustrated,"frustrated, not frustrated","more frustrated, less frustrated",NA,NA,NA,NA,NA,NA,NA,NA,NA,NA,NA,NA,NA,NA,NA,NA,NA,NA,NA,NA,NA,NA,NA,NA,NA,NA,NA,NA,NA,NA,NA,NA,NA,NA,NA,NA,NA,NA,0,2,2,1,1,NA,NA,NA,NA,NA
SUPAMT08836,3H0W84IWBQ11ARTCKHE8VKV7XF0REQ,15A22A9D-0012-4E62-8EC2-A6EB1556E9AE,2023-09-27_07h53.27.415,WP_VExplicitOC_LH,2022.2.5,Win32,8,NA,NA,NA,NA,NA,NA,NA,NA,NA,NA,NA,NA,NA,NA,NA,NA,NA,NA,NA,NA,NA,NA,NA,NA,NA,NA,NA,NA,NA,NA,NA,NA,NA,NA,NA,NA,NA,NA,NA,NA,NA,NA,NA,NA,NA,NA,NA,NA,NA,NA,NA,NA,NA,NA,5,0,5,0,1
SUPAMT08836,3H0W84IWBQ11ARTCKHE8VKV7XF0REQ,15A22A9D-0012-4E62-8EC2-A6EB1556E9AE,2023-09-27_07h53.27.415,WP_VExplicitOC_LH,2022.2.5,Win32,8,79.42708333,4.549,2.051,NA,NA,NA,NA,NA,happy,"unhappy, happy","less happy, more happy",NA,NA,NA,NA,NA,NA,NA,NA,NA,NA,NA,NA,NA,NA,NA,NA,NA,NA,NA,NA,NA,NA,NA,NA,NA,NA,NA,NA,NA,NA,NA,NA,NA,NA,NA,NA,NA,NA,0,0,0,0,1,NA,NA,NA,NA,NA
SUPAMT08836,3H0W84IWBQ11ARTCKHE8VKV7XF0REQ,15A22A9D-0012-4E62-8EC2-A6EB1556E9AE,2023-09-27_07h53.27.415,WP_VExplicitOC_LH,2022.2.5,Win32,8,NA,NA,2.073,NA,NA,NA,NA,NA,frustrated,"frustrated, not frustrated","more frustrated, less frustrated",NA,NA,NA,NA,NA,NA,NA,NA,NA,NA,NA,NA,NA,NA,NA,NA,NA,NA,NA,NA,NA,NA,NA,NA,NA,NA,NA,NA,NA,NA,NA,NA,NA,NA,NA,NA,NA,NA,0,1,1,1,1,NA,NA,NA,NA,NA
SUPAMT08836,3H0W84IWBQ11ARTCKHE8VKV7XF0REQ,15A22A9D-0012-4E62-8EC2-A6EB1556E9AE,2023-09-27_07h53.27.415,WP_VExplicitOC_LH,2022.2.5,Win32,8,98.17708333,5.116,2.148,NA,NA,NA,NA,NA,bored,"bored, not bored","more bored, less bored",NA,NA,NA,NA,NA,NA,NA,NA,NA,NA,NA,NA,NA,NA,NA,NA,NA,NA,NA,NA,NA,NA,NA,NA,NA,NA,NA,NA,NA,NA,NA,NA,NA,NA,NA,NA,NA,NA,0,2,2,2,1,NA,NA,NA,NA,NA
SUPAMT08836,3H0W84IWBQ11ARTCKHE8VKV7XF0REQ,15A22A9D-0012-4E62-8EC2-A6EB1556E9AE,2023-09-27_07h53.27.415,WP_VExplicitOC_LH,2022.2.5,Win32,8,NA,NA,NA,NA,NA,NA,NA,NA,NA,NA,NA,NA,NA,NA,NA,NA,NA,NA,NA,NA,NA,NA,NA,NA,NA,NA,NA,NA,NA,NA,NA,NA,NA,NA,NA,NA,NA,NA,NA,NA,NA,NA,NA,NA,NA,NA,NA,NA,NA,NA,NA,NA,NA,NA,6,0,6,0,1
SUPAMT08836,3H0W84IWBQ11ARTCKHE8VKV7XF0REQ,15A22A9D-0012-4E62-8EC2-A6EB1556E9AE,2023-09-27_07h53.27.415,WP_VExplicitOC_LH,2022.2.5,Win32,8,85.15625,4.884,2.083,NA,NA,NA,NA,NA,happy,"unhappy, happy","less happy, more happy",NA,NA,NA,NA,NA,NA,NA,NA,NA,NA,NA,NA,NA,NA,NA,NA,NA,NA,NA,NA,NA,NA,NA,NA,NA,NA,NA,NA,NA,NA,NA,NA,NA,NA,NA,NA,NA,NA,0,0,0,0,1,NA,NA,NA,NA,NA
SUPAMT08836,3H0W84IWBQ11ARTCKHE8VKV7XF0REQ,15A22A9D-0012-4E62-8EC2-A6EB1556E9AE,2023-09-27_07h53.27.415,WP_VExplicitOC_LH,2022.2.5,Win32,8,63.54166667,7.274,2.064,NA,NA,NA,NA,NA,bored,"bored, not bored","more bored, less bored",NA,NA,NA,NA,NA,NA,NA,NA,NA,NA,NA,NA,NA,NA,NA,NA,NA,NA,NA,NA,NA,NA,NA,NA,NA,NA,NA,NA,NA,NA,NA,NA,NA,NA,NA,NA,NA,NA,0,1,1,2,1,NA,NA,NA,NA,NA
SUPAMT08836,3H0W84IWBQ11ARTCKHE8VKV7XF0REQ,15A22A9D-0012-4E62-8EC2-A6EB1556E9AE,2023-09-27_07h53.27.415,WP_VExplicitOC_LH,2022.2.5,Win32,8,79.94791667,5.695,2.131,NA,NA,NA,NA,NA,frustrated,"frustrated, not frustrated","more frustrated, less frustrated",NA,NA,NA,NA,NA,NA,NA,NA,NA,NA,NA,NA,NA,NA,NA,NA,NA,NA,NA,NA,NA,NA,NA,NA,NA,NA,NA,NA,NA,NA,NA,NA,NA,NA,NA,NA,NA,NA,0,2,2,1,1,NA,NA,NA,NA,NA
SUPAMT08836,3H0W84IWBQ11ARTCKHE8VKV7XF0REQ,15A22A9D-0012-4E62-8EC2-A6EB1556E9AE,2023-09-27_07h53.27.415,WP_VExplicitOC_LH,2022.2.5,Win32,8,NA,NA,NA,NA,NA,NA,NA,NA,NA,NA,NA,NA,NA,NA,NA,NA,NA,NA,NA,NA,NA,NA,NA,NA,NA,NA,NA,NA,NA,NA,NA,NA,NA,NA,NA,NA,NA,NA,NA,NA,NA,NA,NA,NA,NA,NA,NA,NA,NA,NA,NA,NA,NA,NA,7,0,7,0,1
SUPAMT08836,3H0W84IWBQ11ARTCKHE8VKV7XF0REQ,15A22A9D-0012-4E62-8EC2-A6EB1556E9AE,2023-09-27_07h53.27.415,WP_VExplicitOC_LH,2022.2.5,Win32,8,82.55208333,5.857,2.038,NA,NA,NA,NA,NA,frustrated,"frustrated, not frustrated","more frustrated, less frustrated",NA,NA,NA,NA,NA,NA,NA,NA,NA,NA,NA,NA,NA,NA,NA,NA,NA,NA,NA,NA,NA,NA,NA,NA,NA,NA,NA,NA,NA,NA,NA,NA,NA,NA,NA,NA,NA,NA,0,0,0,1,1,NA,NA,NA,NA,NA
SUPAMT08836,3H0W84IWBQ11ARTCKHE8VKV7XF0REQ,15A22A9D-0012-4E62-8EC2-A6EB1556E9AE,2023-09-27_07h53.27.415,WP_VExplicitOC_LH,2022.2.5,Win32,8,74.47916667,6.874,2.023,NA,NA,NA,NA,NA,happy,"unhappy, happy","less happy, more happy",NA,NA,NA,NA,NA,NA,NA,NA,NA,NA,NA,NA,NA,NA,NA,NA,NA,NA,NA,NA,NA,NA,NA,NA,NA,NA,NA,NA,NA,NA,NA,NA,NA,NA,NA,NA,NA,NA,0,1,1,0,1,NA,NA,NA,NA,NA
SUPAMT08836,3H0W84IWBQ11ARTCKHE8VKV7XF0REQ,15A22A9D-0012-4E62-8EC2-A6EB1556E9AE,2023-09-27_07h53.27.415,WP_VExplicitOC_LH,2022.2.5,Win32,8,NA,NA,2.034,NA,NA,NA,NA,NA,bored,"bored, not bored","more bored, less bored",NA,NA,NA,NA,NA,NA,NA,NA,NA,NA,NA,NA,NA,NA,NA,NA,NA,NA,NA,NA,NA,NA,NA,NA,NA,NA,NA,NA,NA,NA,NA,NA,NA,NA,NA,NA,NA,NA,0,2,2,2,1,NA,NA,NA,NA,NA
SUPAMT08836,3H0W84IWBQ11ARTCKHE8VKV7XF0REQ,15A22A9D-0012-4E62-8EC2-A6EB1556E9AE,2023-09-27_07h53.27.415,WP_VExplicitOC_LH,2022.2.5,Win32,8,NA,NA,NA,NA,NA,NA,NA,NA,NA,NA,NA,NA,NA,NA,NA,NA,NA,NA,NA,NA,NA,NA,NA,NA,NA,NA,NA,NA,NA,NA,NA,NA,NA,NA,NA,NA,NA,NA,NA,NA,NA,NA,NA,NA,NA,NA,NA,NA,NA,NA,NA,NA,NA,NA,8,0,8,0,1
SUPAMT08836,3H0W84IWBQ11ARTCKHE8VKV7XF0REQ,15A22A9D-0012-4E62-8EC2-A6EB1556E9AE,2023-09-27_07h53.27.415,WP_VExplicitOC_LH,2022.2.5,Win32,8,92.1875,4.436,2.035,NA,NA,NA,NA,NA,happy,"unhappy, happy","less happy, more happy",NA,NA,NA,NA,NA,NA,NA,NA,NA,NA,NA,NA,NA,NA,NA,NA,NA,NA,NA,NA,NA,NA,NA,NA,NA,NA,NA,NA,NA,NA,NA,NA,NA,NA,NA,NA,NA,NA,0,0,0,0,1,NA,NA,NA,NA,NA
SUPAMT08836,3H0W84IWBQ11ARTCKHE8VKV7XF0REQ,15A22A9D-0012-4E62-8EC2-A6EB1556E9AE,2023-09-27_07h53.27.415,WP_VExplicitOC_LH,2022.2.5,Win32,8,NA,NA,2.021,NA,NA,NA,NA,NA,frustrated,"frustrated, not frustrated","more frustrated, less frustrated",NA,NA,NA,NA,NA,NA,NA,NA,NA,NA,NA,NA,NA,NA,NA,NA,NA,NA,NA,NA,NA,NA,NA,NA,NA,NA,NA,NA,NA,NA,NA,NA,NA,NA,NA,NA,NA,NA,0,1,1,1,1,NA,NA,NA,NA,NA
SUPAMT08836,3H0W84IWBQ11ARTCKHE8VKV7XF0REQ,15A22A9D-0012-4E62-8EC2-A6EB1556E9AE,2023-09-27_07h53.27.415,WP_VExplicitOC_LH,2022.2.5,Win32,8,59.89583333,5.314,2.086,NA,NA,NA,NA,NA,bored,"bored, not bored","more bored, less bored",NA,NA,NA,NA,NA,NA,NA,NA,NA,NA,NA,NA,NA,NA,NA,NA,NA,NA,NA,NA,NA,NA,NA,NA,NA,NA,NA,NA,NA,NA,NA,NA,NA,NA,NA,NA,NA,NA,0,2,2,2,1,NA,NA,NA,NA,NA
SUPAMT08836,3H0W84IWBQ11ARTCKHE8VKV7XF0REQ,15A22A9D-0012-4E62-8EC2-A6EB1556E9AE,2023-09-27_07h53.27.415,WP_VExplicitOC_LH,2022.2.5,Win32,8,NA,NA,NA,NA,NA,NA,NA,NA,NA,NA,NA,NA,NA,NA,NA,NA,NA,NA,NA,NA,NA,NA,NA,NA,NA,NA,NA,NA,NA,NA,NA,NA,NA,NA,NA,NA,NA,NA,NA,NA,NA,NA,NA,NA,NA,NA,NA,NA,NA,NA,NA,NA,NA,NA,9,0,9,0,1
SUPAMT08836,3H0W84IWBQ11ARTCKHE8VKV7XF0REQ,15A22A9D-0012-4E62-8EC2-A6EB1556E9AE,2023-09-27_07h53.27.415,WP_VExplicitOC_LH,2022.2.5,Win32,8,82.29166667,5.336,2.119,NA,NA,NA,NA,NA,frustrated,"frustrated, not frustrated","more frustrated, less frustrated",NA,NA,NA,NA,NA,NA,NA,NA,NA,NA,NA,NA,NA,NA,NA,NA,NA,NA,NA,NA,NA,NA,NA,NA,NA,NA,NA,NA,NA,NA,NA,NA,NA,NA,NA,NA,NA,NA,0,0,0,1,1,NA,NA,NA,NA,NA
SUPAMT08836,3H0W84IWBQ11ARTCKHE8VKV7XF0REQ,15A22A9D-0012-4E62-8EC2-A6EB1556E9AE,2023-09-27_07h53.27.415,WP_VExplicitOC_LH,2022.2.5,Win32,8,85.67708333,5.609,2.03,NA,NA,NA,NA,NA,bored,"bored, not bored","more bored, less bored",NA,NA,NA,NA,NA,NA,NA,NA,NA,NA,NA,NA,NA,NA,NA,NA,NA,NA,NA,NA,NA,NA,NA,NA,NA,NA,NA,NA,NA,NA,NA,NA,NA,NA,NA,NA,NA,NA,0,1,1,2,1,NA,NA,NA,NA,NA
SUPAMT08836,3H0W84IWBQ11ARTCKHE8VKV7XF0REQ,15A22A9D-0012-4E62-8EC2-A6EB1556E9AE,2023-09-27_07h53.27.415,WP_VExplicitOC_LH,2022.2.5,Win32,8,66.14583333,6.453,2.113,NA,NA,NA,NA,NA,happy,"unhappy, happy","less happy, more happy",NA,NA,NA,NA,NA,NA,NA,NA,NA,NA,NA,NA,NA,NA,NA,NA,NA,NA,NA,NA,NA,NA,NA,NA,NA,NA,NA,NA,NA,NA,NA,NA,NA,NA,NA,NA,NA,NA,0,2,2,0,1,NA,NA,NA,NA,NA
SUPAMT08836,3H0W84IWBQ11ARTCKHE8VKV7XF0REQ,15A22A9D-0012-4E62-8EC2-A6EB1556E9AE,2023-09-27_07h53.27.415,WP_VExplicitOC_LH,2022.2.5,Win32,8,NA,NA,NA,NA,NA,NA,NA,NA,NA,NA,NA,NA,NA,NA,NA,NA,NA,NA,NA,NA,NA,NA,NA,NA,NA,NA,NA,NA,NA,NA,NA,NA,NA,NA,NA,NA,NA,NA,NA,NA,NA,NA,NA,NA,NA,NA,NA,NA,NA,NA,NA,NA,NA,NA,10,0,10,0,1
SUPAMT08836,3H0W84IWBQ11ARTCKHE8VKV7XF0REQ,15A22A9D-0012-4E62-8EC2-A6EB1556E9AE,2023-09-27_07h53.27.415,WP_VExplicitOC_LH,2022.2.5,Win32,8,70.83333333,4.553,2.002,NA,NA,NA,NA,NA,frustrated,"frustrated, not frustrated","more frustrated, less frustrated",NA,NA,NA,NA,NA,NA,NA,NA,NA,NA,NA,NA,NA,NA,NA,NA,NA,NA,NA,NA,NA,NA,NA,NA,NA,NA,NA,NA,NA,NA,NA,NA,NA,NA,NA,NA,NA,NA,0,0,0,1,1,NA,NA,NA,NA,NA
SUPAMT08836,3H0W84IWBQ11ARTCKHE8VKV7XF0REQ,15A22A9D-0012-4E62-8EC2-A6EB1556E9AE,2023-09-27_07h53.27.415,WP_VExplicitOC_LH,2022.2.5,Win32,8,65.10416667,4.67,2.095,NA,NA,NA,NA,NA,bored,"bored, not bored","more bored, less bored",NA,NA,NA,NA,NA,NA,NA,NA,NA,NA,NA,NA,NA,NA,NA,NA,NA,NA,NA,NA,NA,NA,NA,NA,NA,NA,NA,NA,NA,NA,NA,NA,NA,NA,NA,NA,NA,NA,0,1,1,2,1,NA,NA,NA,NA,NA
SUPAMT08836,3H0W84IWBQ11ARTCKHE8VKV7XF0REQ,15A22A9D-0012-4E62-8EC2-A6EB1556E9AE,2023-09-27_07h53.27.415,WP_VExplicitOC_LH,2022.2.5,Win32,8,75.26041667,4.145,2.067,NA,NA,NA,NA,NA,happy,"unhappy, happy","less happy, more happy",NA,NA,NA,NA,NA,NA,NA,NA,NA,NA,NA,NA,NA,NA,NA,NA,NA,NA,NA,NA,NA,NA,NA,NA,NA,NA,NA,NA,NA,NA,NA,NA,NA,NA,NA,NA,NA,NA,0,2,2,0,1,NA,NA,NA,NA,NA
SUPAMT08836,3H0W84IWBQ11ARTCKHE8VKV7XF0REQ,15A22A9D-0012-4E62-8EC2-A6EB1556E9AE,2023-09-27_07h53.27.415,WP_VExplicitOC_LH,2022.2.5,Win32,8,NA,NA,NA,NA,NA,NA,NA,NA,NA,NA,NA,NA,NA,NA,NA,NA,NA,NA,NA,NA,NA,NA,NA,NA,NA,NA,NA,NA,NA,NA,NA,NA,NA,NA,NA,NA,NA,NA,NA,NA,NA,NA,NA,NA,NA,NA,NA,NA,NA,NA,NA,NA,NA,NA,11,0,11,0,1
SUPAMT08836,3H0W84IWBQ11ARTCKHE8VKV7XF0REQ,15A22A9D-0012-4E62-8EC2-A6EB1556E9AE,2023-09-27_07h53.27.415,WP_VExplicitOC_LH,2022.2.5,Win32,8,84.89583333,6.379,2.091,NA,NA,NA,NA,NA,bored,"bored, not bored","more bored, less bored",NA,NA,NA,NA,NA,NA,NA,NA,NA,NA,NA,NA,NA,NA,NA,NA,NA,NA,NA,NA,NA,NA,NA,NA,NA,NA,NA,NA,NA,NA,NA,NA,NA,NA,NA,NA,NA,NA,0,0,0,2,1,NA,NA,NA,NA,NA
SUPAMT08836,3H0W84IWBQ11ARTCKHE8VKV7XF0REQ,15A22A9D-0012-4E62-8EC2-A6EB1556E9AE,2023-09-27_07h53.27.415,WP_VExplicitOC_LH,2022.2.5,Win32,8,77.08333333,4.688,2.083,NA,NA,NA,NA,NA,happy,"unhappy, happy","less happy, more happy",NA,NA,NA,NA,NA,NA,NA,NA,NA,NA,NA,NA,NA,NA,NA,NA,NA,NA,NA,NA,NA,NA,NA,NA,NA,NA,NA,NA,NA,NA,NA,NA,NA,NA,NA,NA,NA,NA,0,1,1,0,1,NA,NA,NA,NA,NA
SUPAMT08836,3H0W84IWBQ11ARTCKHE8VKV7XF0REQ,15A22A9D-0012-4E62-8EC2-A6EB1556E9AE,2023-09-27_07h53.27.415,WP_VExplicitOC_LH,2022.2.5,Win32,8,86.45833333,4.845,2.078,NA,NA,NA,NA,NA,frustrated,"frustrated, not frustrated","more frustrated, less frustrated",NA,NA,NA,NA,NA,NA,NA,NA,NA,NA,NA,NA,NA,NA,NA,NA,NA,NA,NA,NA,NA,NA,NA,NA,NA,NA,NA,NA,NA,NA,NA,NA,NA,NA,NA,NA,NA,NA,0,2,2,1,1,NA,NA,NA,NA,NA
SUPAMT08836,3H0W84IWBQ11ARTCKHE8VKV7XF0REQ,15A22A9D-0012-4E62-8EC2-A6EB1556E9AE,2023-09-27_07h53.27.415,WP_VExplicitOC_LH,2022.2.5,Win32,8,NA,NA,NA,NA,NA,NA,NA,NA,NA,NA,NA,NA,NA,NA,NA,NA,NA,NA,NA,NA,NA,NA,NA,NA,NA,NA,NA,NA,NA,NA,NA,NA,NA,NA,NA,NA,NA,NA,NA,NA,NA,NA,NA,NA,NA,NA,NA,NA,NA,NA,NA,NA,NA,NA,12,0,12,0,1
SUPAMT08836,3H0W84IWBQ11ARTCKHE8VKV7XF0REQ,15A22A9D-0012-4E62-8EC2-A6EB1556E9AE,2023-09-27_07h53.27.415,WP_VExplicitOC_LH,2022.2.5,Win32,8,89.58333333,4.24,2.012,NA,NA,NA,NA,NA,happy,"unhappy, happy","less happy, more happy",NA,NA,NA,NA,NA,NA,NA,NA,NA,NA,NA,NA,NA,NA,NA,NA,NA,NA,NA,NA,NA,NA,NA,NA,NA,NA,NA,NA,NA,NA,NA,NA,NA,NA,NA,NA,NA,NA,0,0,0,0,1,NA,NA,NA,NA,NA
SUPAMT08836,3H0W84IWBQ11ARTCKHE8VKV7XF0REQ,15A22A9D-0012-4E62-8EC2-A6EB1556E9AE,2023-09-27_07h53.27.415,WP_VExplicitOC_LH,2022.2.5,Win32,8,63.54166667,5.428,2.008,NA,NA,NA,NA,NA,bored,"bored, not bored","more bored, less bored",NA,NA,NA,NA,NA,NA,NA,NA,NA,NA,NA,NA,NA,NA,NA,NA,NA,NA,NA,NA,NA,NA,NA,NA,NA,NA,NA,NA,NA,NA,NA,NA,NA,NA,NA,NA,NA,NA,0,1,1,2,1,NA,NA,NA,NA,NA
SUPAMT08836,3H0W84IWBQ11ARTCKHE8VKV7XF0REQ,15A22A9D-0012-4E62-8EC2-A6EB1556E9AE,2023-09-27_07h53.27.415,WP_VExplicitOC_LH,2022.2.5,Win32,8,62.23958333,3.993,2.056,NA,NA,NA,NA,NA,frustrated,"frustrated, not frustrated","more frustrated, less frustrated",NA,NA,NA,NA,NA,NA,NA,NA,NA,NA,NA,NA,NA,NA,NA,NA,NA,NA,NA,NA,NA,NA,NA,NA,NA,NA,NA,NA,NA,NA,NA,NA,NA,NA,NA,NA,NA,NA,0,2,2,1,1,NA,NA,NA,NA,NA
SUPAMT08836,3H0W84IWBQ11ARTCKHE8VKV7XF0REQ,15A22A9D-0012-4E62-8EC2-A6EB1556E9AE,2023-09-27_07h53.27.415,WP_VExplicitOC_LH,2022.2.5,Win32,8,NA,NA,NA,NA,NA,NA,NA,NA,NA,NA,NA,NA,NA,NA,NA,NA,NA,NA,NA,NA,NA,NA,NA,NA,NA,NA,NA,NA,NA,NA,NA,NA,NA,NA,NA,NA,NA,NA,NA,NA,NA,NA,NA,NA,NA,NA,NA,NA,NA,NA,NA,NA,NA,NA,13,0,13,0,1
SUPAMT08836,3H0W84IWBQ11ARTCKHE8VKV7XF0REQ,15A22A9D-0012-4E62-8EC2-A6EB1556E9AE,2023-09-27_07h53.27.415,WP_VExplicitOC_LH,2022.2.5,Win32,8,72.39583333,4.607,2.073,NA,NA,NA,NA,NA,frustrated,"frustrated, not frustrated","more frustrated, less frustrated",NA,NA,NA,NA,NA,NA,NA,NA,NA,NA,NA,NA,NA,NA,NA,NA,NA,NA,NA,NA,NA,NA,NA,NA,NA,NA,NA,NA,NA,NA,NA,NA,NA,NA,NA,NA,NA,NA,0,0,0,1,1,NA,NA,NA,NA,NA
SUPAMT08836,3H0W84IWBQ11ARTCKHE8VKV7XF0REQ,15A22A9D-0012-4E62-8EC2-A6EB1556E9AE,2023-09-27_07h53.27.415,WP_VExplicitOC_LH,2022.2.5,Win32,8,89.58333333,5.878,2.113,NA,NA,NA,NA,NA,happy,"unhappy, happy","less happy, more happy",NA,NA,NA,NA,NA,NA,NA,NA,NA,NA,NA,NA,NA,NA,NA,NA,NA,NA,NA,NA,NA,NA,NA,NA,NA,NA,NA,NA,NA,NA,NA,NA,NA,NA,NA,NA,NA,NA,0,1,1,0,1,NA,NA,NA,NA,NA
SUPAMT08836,3H0W84IWBQ11ARTCKHE8VKV7XF0REQ,15A22A9D-0012-4E62-8EC2-A6EB1556E9AE,2023-09-27_07h53.27.415,WP_VExplicitOC_LH,2022.2.5,Win32,8,100,5.439,2.074,NA,NA,NA,NA,NA,bored,"bored, not bored","more bored, less bored",NA,NA,NA,NA,NA,NA,NA,NA,NA,NA,NA,NA,NA,NA,NA,NA,NA,NA,NA,NA,NA,NA,NA,NA,NA,NA,NA,NA,NA,NA,NA,NA,NA,NA,NA,NA,NA,NA,0,2,2,2,1,NA,NA,NA,NA,NA
SUPAMT08836,3H0W84IWBQ11ARTCKHE8VKV7XF0REQ,15A22A9D-0012-4E62-8EC2-A6EB1556E9AE,2023-09-27_07h53.27.415,WP_VExplicitOC_LH,2022.2.5,Win32,8,NA,NA,NA,NA,NA,NA,NA,NA,NA,NA,NA,NA,NA,NA,NA,NA,NA,NA,NA,NA,NA,NA,NA,NA,NA,NA,NA,NA,NA,NA,NA,NA,NA,NA,NA,NA,NA,NA,NA,NA,NA,NA,NA,NA,NA,NA,NA,NA,NA,NA,NA,NA,NA,NA,14,0,14,0,1
SUPAMT08836,3H0W84IWBQ11ARTCKHE8VKV7XF0REQ,15A22A9D-0012-4E62-8EC2-A6EB1556E9AE,2023-09-27_07h53.27.415,WP_VExplicitOC_LH,2022.2.5,Win32,8,NA,NA,NA,NA,NA,NA,NA,NA,NA,NA,NA,NA,NA,NA,NA,NA,NA,NA,NA,NA,NA,NA,NA,NA,NA,NA,NA,NA,NA,NA,NA,NA,NA,NA,NA,NA,NA,NA,NA,NA,NA,NA,NA,NA,NA,NA,NA,NA,NA,NA,NA,NA,NA,NA,NA,NA,NA,NA,NA
