participant,session,completion,date,expName,psychopyVersion,OS,frameRate,rating_all.response,rating_all.rt,rating_all.tStart,rndRat1.thisRepN,rndRat1.thisTrialN,rndRat1.thisN,rndRat1.thisIndex,rndRat1.ran,Emo,Labs,Labs2,rating_alt.response,rating_alt.rt,AltC.thisRepN,AltC.thisTrialN,AltC.thisN,AltC.thisIndex,AltC.ran,alt_choices,pic_choices,TopAlt_Choice,rndRat2.thisRepN,rndRat2.thisTrialN,rndRat2.thisN,rndRat2.thisIndex,rndRat2.ran,rndRat3.thisRepN,rndRat3.thisTrialN,rndRat3.thisN,rndRat3.thisIndex,rndRat3.ran,trials_FC_H.thisRepN,trials_FC_H.thisTrialN,trials_FC_H.thisN,trials_FC_H.thisIndex,trials_FC_H.ran,rating_alt_2.response,rating_alt_2.rt,AltC2.thisRepN,AltC2.thisTrialN,AltC2.thisN,AltC2.thisIndex,AltC2.ran,BottomAlt_Choice,rndRat4.thisRepN,rndRat4.thisTrialN,rndRat4.thisN,rndRat4.thisIndex,rndRat4.ran,rndRat5.thisRepN,rndRat5.thisTrialN,rndRat5.thisN,rndRat5.thisIndex,rndRat5.ran,trials_FC_L.thisRepN,trials_FC_L.thisTrialN,trials_FC_L.thisN,trials_FC_L.thisIndex,trials_FC_L.ran
SUPAMT73133,3NQL1CS15X7R93RKT2VC3KCQZQDYVL,C7F70F48-5298-4695-9BA6-DA099A885D09,2023-09-26_05h56.55.025,WP_VExplicitOC_HL,2022.2.5,Win32,16.13423685,NA,NA,NA,NA,NA,NA,NA,NA,NA,NA,NA,NA,NA,NA,NA,NA,NA,NA,NA,NA,NA,NA,NA,NA,NA,NA,NA,NA,NA,NA,NA,NA,NA,NA,NA,NA,NA,NA,NA,NA,NA,NA,NA,NA,NA,NA,NA,NA,NA,NA,NA,NA,NA,NA,NA,NA,NA,NA,NA
SUPAMT73133,3NQL1CS15X7R93RKT2VC3KCQZQDYVL,C7F70F48-5298-4695-9BA6-DA099A885D09,2023-09-26_05h56.55.025,WP_VExplicitOC_HL,2022.2.5,Win32,16.13423685,NA,NA,NA,NA,NA,NA,NA,NA,NA,NA,NA,NA,NA,NA,NA,NA,NA,NA,NA,NA,NA,NA,NA,NA,NA,NA,NA,NA,NA,NA,NA,NA,NA,NA,NA,NA,NA,NA,NA,NA,NA,NA,NA,NA,NA,NA,NA,NA,NA,NA,NA,NA,NA,NA,NA,NA,NA,NA,NA
SUPAMT73133,3NQL1CS15X7R93RKT2VC3KCQZQDYVL,C7F70F48-5298-4695-9BA6-DA099A885D09,2023-09-26_05h56.55.025,WP_VExplicitOC_HL,2022.2.5,Win32,16.13423685,NA,NA,NA,NA,NA,NA,NA,NA,NA,NA,NA,NA,NA,NA,NA,NA,NA,NA,NA,NA,NA,NA,NA,NA,NA,NA,NA,NA,NA,NA,NA,NA,NA,NA,NA,NA,NA,NA,NA,NA,NA,NA,NA,NA,NA,NA,NA,NA,NA,NA,NA,NA,NA,NA,NA,NA,NA,NA,NA
SUPAMT73133,3NQL1CS15X7R93RKT2VC3KCQZQDYVL,C7F70F48-5298-4695-9BA6-DA099A885D09,2023-09-26_05h56.55.025,WP_VExplicitOC_HL,2022.2.5,Win32,16.13423685,100,5.3742,2.002,0,0,0,1,1,frustrated,"frustrated, not frustrated","more frustrated, less frustrated",NA,NA,NA,NA,NA,NA,NA,NA,NA,NA,NA,NA,NA,NA,NA,NA,NA,NA,NA,NA,NA,NA,NA,NA,NA,NA,NA,NA,NA,NA,NA,NA,NA,NA,NA,NA,NA,NA,NA,NA,NA,NA,NA,NA,NA,NA,NA,NA
SUPAMT73133,3NQL1CS15X7R93RKT2VC3KCQZQDYVL,C7F70F48-5298-4695-9BA6-DA099A885D09,2023-09-26_05h56.55.025,WP_VExplicitOC_HL,2022.2.5,Win32,16.13423685,100,4.037700001,2.0555,0,1,1,2,1,bored,"bored, not bored","more bored, less bored",NA,NA,NA,NA,NA,NA,NA,NA,NA,NA,NA,NA,NA,NA,NA,NA,NA,NA,NA,NA,NA,NA,NA,NA,NA,NA,NA,NA,NA,NA,NA,NA,NA,NA,NA,NA,NA,NA,NA,NA,NA,NA,NA,NA,NA,NA,NA,NA
SUPAMT73133,3NQL1CS15X7R93RKT2VC3KCQZQDYVL,C7F70F48-5298-4695-9BA6-DA099A885D09,2023-09-26_05h56.55.025,WP_VExplicitOC_HL,2022.2.5,Win32,16.13423685,100,4.6291,2.028799999,0,2,2,0,1,happy,"unhappy, happy","less happy, more happy",NA,NA,NA,NA,NA,NA,NA,NA,NA,NA,NA,NA,NA,NA,NA,NA,NA,NA,NA,NA,NA,NA,NA,NA,NA,NA,NA,NA,NA,NA,NA,NA,NA,NA,NA,NA,NA,NA,NA,NA,NA,NA,NA,NA,NA,NA,NA,NA
SUPAMT73133,3NQL1CS15X7R93RKT2VC3KCQZQDYVL,C7F70F48-5298-4695-9BA6-DA099A885D09,2023-09-26_05h56.55.025,WP_VExplicitOC_HL,2022.2.5,Win32,16.13423685,NA,NA,NA,NA,NA,NA,NA,NA,NA,NA,NA,NA,NA,NA,NA,NA,NA,NA,NA,NA,NA,NA,NA,NA,NA,NA,NA,NA,NA,NA,NA,NA,NA,NA,NA,NA,NA,NA,NA,NA,NA,NA,NA,NA,NA,NA,NA,NA,NA,NA,NA,NA,NA,NA,NA,NA,NA,NA,NA
SUPAMT73133,3NQL1CS15X7R93RKT2VC3KCQZQDYVL,C7F70F48-5298-4695-9BA6-DA099A885D09,2023-09-26_05h56.55.025,WP_VExplicitOC_HL,2022.2.5,Win32,16.13423685,NA,NA,NA,NA,NA,NA,NA,NA,NA,NA,NA,NA,NA,NA,NA,NA,NA,NA,NA,NA,NA,NA,NA,NA,NA,NA,NA,NA,NA,NA,NA,NA,NA,NA,NA,NA,NA,NA,NA,NA,NA,NA,NA,NA,NA,NA,NA,NA,NA,NA,NA,NA,NA,NA,NA,NA,NA,NA,NA
SUPAMT73133,3NQL1CS15X7R93RKT2VC3KCQZQDYVL,C7F70F48-5298-4695-9BA6-DA099A885D09,2023-09-26_05h56.55.025,WP_VExplicitOC_HL,2022.2.5,Win32,16.13423685,NA,NA,NA,NA,NA,NA,NA,NA,NA,NA,NA,NA,NA,NA,NA,NA,NA,NA,NA,NA,NA,NA,NA,NA,NA,NA,NA,NA,NA,NA,NA,NA,NA,NA,NA,NA,NA,NA,NA,NA,NA,NA,NA,NA,NA,NA,NA,NA,NA,NA,NA,NA,NA,NA,NA,NA,NA,NA,NA
SUPAMT73133,3NQL1CS15X7R93RKT2VC3KCQZQDYVL,C7F70F48-5298-4695-9BA6-DA099A885D09,2023-09-26_05h56.55.025,WP_VExplicitOC_HL,2022.2.5,Win32,16.13423685,NA,NA,NA,NA,NA,NA,NA,NA,NA,NA,NA,NA,NA,NA,NA,NA,NA,NA,NA,NA,NA,NA,NA,NA,NA,NA,NA,NA,NA,NA,NA,NA,NA,NA,NA,NA,NA,NA,NA,NA,NA,NA,NA,NA,NA,NA,NA,NA,NA,NA,NA,NA,NA,NA,NA,NA,NA,NA,NA
SUPAMT73133,3NQL1CS15X7R93RKT2VC3KCQZQDYVL,C7F70F48-5298-4695-9BA6-DA099A885D09,2023-09-26_05h56.55.025,WP_VExplicitOC_HL,2022.2.5,Win32,16.13423685,NA,NA,NA,NA,NA,NA,NA,NA,NA,NA,NA,100,1.953,0,0,0,0,1,rest (looking at a fixed cross),001.png,NA,NA,NA,NA,NA,NA,NA,NA,NA,NA,NA,NA,NA,NA,NA,NA,NA,NA,NA,NA,NA,NA,NA,NA,NA,NA,NA,NA,NA,NA,NA,NA,NA,NA,NA,NA,NA,NA,NA
SUPAMT73133,3NQL1CS15X7R93RKT2VC3KCQZQDYVL,C7F70F48-5298-4695-9BA6-DA099A885D09,2023-09-26_05h56.55.025,WP_VExplicitOC_HL,2022.2.5,Win32,16.13423685,NA,NA,NA,NA,NA,NA,NA,NA,NA,NA,NA,66.92708333,1.3895,0,1,1,1,1,stand up,002.png,NA,NA,NA,NA,NA,NA,NA,NA,NA,NA,NA,NA,NA,NA,NA,NA,NA,NA,NA,NA,NA,NA,NA,NA,NA,NA,NA,NA,NA,NA,NA,NA,NA,NA,NA,NA,NA,NA,NA
SUPAMT73133,3NQL1CS15X7R93RKT2VC3KCQZQDYVL,C7F70F48-5298-4695-9BA6-DA099A885D09,2023-09-26_05h56.55.025,WP_VExplicitOC_HL,2022.2.5,Win32,16.13423685,NA,NA,NA,NA,NA,NA,NA,NA,NA,NA,NA,24.47916667,1.965700001,0,2,2,2,1,stretch,003.png,NA,NA,NA,NA,NA,NA,NA,NA,NA,NA,NA,NA,NA,NA,NA,NA,NA,NA,NA,NA,NA,NA,NA,NA,NA,NA,NA,NA,NA,NA,NA,NA,NA,NA,NA,NA,NA,NA,NA
SUPAMT73133,3NQL1CS15X7R93RKT2VC3KCQZQDYVL,C7F70F48-5298-4695-9BA6-DA099A885D09,2023-09-26_05h56.55.025,WP_VExplicitOC_HL,2022.2.5,Win32,16.13423685,NA,NA,NA,NA,NA,NA,NA,NA,NA,NA,NA,25.26041667,0.7995,0,3,3,3,1,make a drink,004.png,NA,NA,NA,NA,NA,NA,NA,NA,NA,NA,NA,NA,NA,NA,NA,NA,NA,NA,NA,NA,NA,NA,NA,NA,NA,NA,NA,NA,NA,NA,NA,NA,NA,NA,NA,NA,NA,NA,NA
SUPAMT73133,3NQL1CS15X7R93RKT2VC3KCQZQDYVL,C7F70F48-5298-4695-9BA6-DA099A885D09,2023-09-26_05h56.55.025,WP_VExplicitOC_HL,2022.2.5,Win32,16.13423685,NA,NA,NA,NA,NA,NA,NA,NA,NA,NA,NA,67.70833333,3.4815,0,4,4,4,1,scroll social media,005.png,NA,NA,NA,NA,NA,NA,NA,NA,NA,NA,NA,NA,NA,NA,NA,NA,NA,NA,NA,NA,NA,NA,NA,NA,NA,NA,NA,NA,NA,NA,NA,NA,NA,NA,NA,NA,NA,NA,NA
SUPAMT73133,3NQL1CS15X7R93RKT2VC3KCQZQDYVL,C7F70F48-5298-4695-9BA6-DA099A885D09,2023-09-26_05h56.55.025,WP_VExplicitOC_HL,2022.2.5,Win32,16.13423685,NA,NA,NA,NA,NA,NA,NA,NA,NA,NA,NA,69.27083333,2.423099999,0,5,5,5,1,listen to music,006.png,NA,NA,NA,NA,NA,NA,NA,NA,NA,NA,NA,NA,NA,NA,NA,NA,NA,NA,NA,NA,NA,NA,NA,NA,NA,NA,NA,NA,NA,NA,NA,NA,NA,NA,NA,NA,NA,NA,NA
SUPAMT73133,3NQL1CS15X7R93RKT2VC3KCQZQDYVL,C7F70F48-5298-4695-9BA6-DA099A885D09,2023-09-26_05h56.55.025,WP_VExplicitOC_HL,2022.2.5,Win32,16.13423685,NA,NA,NA,NA,NA,NA,NA,NA,NA,NA,NA,64.0625,2.649599999,0,6,6,6,1,daydream,007.png,NA,NA,NA,NA,NA,NA,NA,NA,NA,NA,NA,NA,NA,NA,NA,NA,NA,NA,NA,NA,NA,NA,NA,NA,NA,NA,NA,NA,NA,NA,NA,NA,NA,NA,NA,NA,NA,NA,NA
SUPAMT73133,3NQL1CS15X7R93RKT2VC3KCQZQDYVL,C7F70F48-5298-4695-9BA6-DA099A885D09,2023-09-26_05h56.55.025,WP_VExplicitOC_HL,2022.2.5,Win32,16.13423685,NA,NA,NA,NA,NA,NA,NA,NA,NA,NA,NA,65.36458333,1.2021,0,7,7,7,1,watch a short animation,008.png,NA,NA,NA,NA,NA,NA,NA,NA,NA,NA,NA,NA,NA,NA,NA,NA,NA,NA,NA,NA,NA,NA,NA,NA,NA,NA,NA,NA,NA,NA,NA,NA,NA,NA,NA,NA,NA,NA,NA
SUPAMT73133,3NQL1CS15X7R93RKT2VC3KCQZQDYVL,C7F70F48-5298-4695-9BA6-DA099A885D09,2023-09-26_05h56.55.025,WP_VExplicitOC_HL,2022.2.5,Win32,16.13423685,NA,NA,NA,NA,NA,NA,NA,NA,NA,NA,NA,65.36458333,0.8031,0,8,8,8,1,read a novel,009.png,NA,NA,NA,NA,NA,NA,NA,NA,NA,NA,NA,NA,NA,NA,NA,NA,NA,NA,NA,NA,NA,NA,NA,NA,NA,NA,NA,NA,NA,NA,NA,NA,NA,NA,NA,NA,NA,NA,NA
SUPAMT73133,3NQL1CS15X7R93RKT2VC3KCQZQDYVL,C7F70F48-5298-4695-9BA6-DA099A885D09,2023-09-26_05h56.55.025,WP_VExplicitOC_HL,2022.2.5,Win32,16.13423685,NA,NA,NA,NA,NA,NA,NA,NA,NA,NA,NA,65.36458333,0.7952,0,9,9,9,1,read the news,010.png,NA,NA,NA,NA,NA,NA,NA,NA,NA,NA,NA,NA,NA,NA,NA,NA,NA,NA,NA,NA,NA,NA,NA,NA,NA,NA,NA,NA,NA,NA,NA,NA,NA,NA,NA,NA,NA,NA,NA
SUPAMT73133,3NQL1CS15X7R93RKT2VC3KCQZQDYVL,C7F70F48-5298-4695-9BA6-DA099A885D09,2023-09-26_05h56.55.025,WP_VExplicitOC_HL,2022.2.5,Win32,16.13423685,NA,NA,NA,NA,NA,NA,NA,NA,NA,NA,NA,NA,NA,NA,NA,NA,NA,NA,NA,NA,NA,NA,NA,NA,NA,NA,NA,NA,NA,NA,NA,NA,NA,NA,NA,NA,NA,NA,NA,NA,NA,NA,NA,NA,NA,NA,NA,NA,NA,NA,NA,NA,NA,NA,NA,NA,NA,NA,NA
SUPAMT73133,3NQL1CS15X7R93RKT2VC3KCQZQDYVL,C7F70F48-5298-4695-9BA6-DA099A885D09,2023-09-26_05h56.55.025,WP_VExplicitOC_HL,2022.2.5,Win32,16.13423685,NA,NA,NA,NA,NA,NA,NA,NA,NA,NA,NA,NA,NA,NA,NA,NA,NA,NA,NA,NA,listen to music,NA,NA,NA,NA,NA,NA,NA,NA,NA,NA,NA,NA,NA,NA,NA,NA,NA,NA,NA,NA,NA,NA,NA,NA,NA,NA,NA,NA,NA,NA,NA,NA,NA,NA,NA,NA,NA,NA
SUPAMT73133,3NQL1CS15X7R93RKT2VC3KCQZQDYVL,C7F70F48-5298-4695-9BA6-DA099A885D09,2023-09-26_05h56.55.025,WP_VExplicitOC_HL,2022.2.5,Win32,16.13423685,47.65625,5.1857,2.0101,NA,NA,NA,NA,NA,bored,"bored, not bored","more bored, less bored",NA,NA,NA,NA,NA,NA,NA,NA,NA,NA,0,0,0,2,1,NA,NA,NA,NA,NA,NA,NA,NA,NA,NA,NA,NA,NA,NA,NA,NA,NA,NA,NA,NA,NA,NA,NA,NA,NA,NA,NA,NA,NA,NA,NA,NA,NA
SUPAMT73133,3NQL1CS15X7R93RKT2VC3KCQZQDYVL,C7F70F48-5298-4695-9BA6-DA099A885D09,2023-09-26_05h56.55.025,WP_VExplicitOC_HL,2022.2.5,Win32,16.13423685,61.19791667,3.235900001,2.0392,NA,NA,NA,NA,NA,frustrated,"frustrated, not frustrated","more frustrated, less frustrated",NA,NA,NA,NA,NA,NA,NA,NA,NA,NA,0,1,1,1,1,NA,NA,NA,NA,NA,NA,NA,NA,NA,NA,NA,NA,NA,NA,NA,NA,NA,NA,NA,NA,NA,NA,NA,NA,NA,NA,NA,NA,NA,NA,NA,NA,NA
SUPAMT73133,3NQL1CS15X7R93RKT2VC3KCQZQDYVL,C7F70F48-5298-4695-9BA6-DA099A885D09,2023-09-26_05h56.55.025,WP_VExplicitOC_HL,2022.2.5,Win32,16.13423685,65.88541667,3.203,2.0074,NA,NA,NA,NA,NA,happy,"unhappy, happy","less happy, more happy",NA,NA,NA,NA,NA,NA,NA,NA,NA,NA,0,2,2,0,1,NA,NA,NA,NA,NA,NA,NA,NA,NA,NA,NA,NA,NA,NA,NA,NA,NA,NA,NA,NA,NA,NA,NA,NA,NA,NA,NA,NA,NA,NA,NA,NA,NA
SUPAMT73133,3NQL1CS15X7R93RKT2VC3KCQZQDYVL,C7F70F48-5298-4695-9BA6-DA099A885D09,2023-09-26_05h56.55.025,WP_VExplicitOC_HL,2022.2.5,Win32,16.13423685,NA,NA,NA,NA,NA,NA,NA,NA,NA,NA,NA,NA,NA,NA,NA,NA,NA,NA,NA,NA,NA,NA,NA,NA,NA,NA,NA,NA,NA,NA,NA,NA,NA,NA,NA,NA,NA,NA,NA,NA,NA,NA,NA,NA,NA,NA,NA,NA,NA,NA,NA,NA,NA,NA,NA,NA,NA,NA,NA
SUPAMT73133,3NQL1CS15X7R93RKT2VC3KCQZQDYVL,C7F70F48-5298-4695-9BA6-DA099A885D09,2023-09-26_05h56.55.025,WP_VExplicitOC_HL,2022.2.5,Win32,16.13423685,NA,NA,NA,NA,NA,NA,NA,NA,NA,NA,NA,NA,NA,NA,NA,NA,NA,NA,NA,NA,NA,NA,NA,NA,NA,NA,NA,NA,NA,NA,NA,NA,NA,NA,NA,NA,NA,NA,NA,NA,NA,NA,NA,NA,NA,NA,NA,NA,NA,NA,NA,NA,NA,NA,NA,NA,NA,NA,NA
SUPAMT73133,3NQL1CS15X7R93RKT2VC3KCQZQDYVL,C7F70F48-5298-4695-9BA6-DA099A885D09,2023-09-26_05h56.55.025,WP_VExplicitOC_HL,2022.2.5,Win32,16.13423685,NA,NA,2.0065,NA,NA,NA,NA,NA,bored,"bored, not bored","more bored, less bored",NA,NA,NA,NA,NA,NA,NA,NA,NA,NA,NA,NA,NA,NA,NA,0,0,0,2,1,NA,NA,NA,NA,NA,NA,NA,NA,NA,NA,NA,NA,NA,NA,NA,NA,NA,NA,NA,NA,NA,NA,NA,NA,NA,NA,NA,NA
SUPAMT73133,3NQL1CS15X7R93RKT2VC3KCQZQDYVL,C7F70F48-5298-4695-9BA6-DA099A885D09,2023-09-26_05h56.55.025,WP_VExplicitOC_HL,2022.2.5,Win32,16.13423685,NA,NA,2.0389,NA,NA,NA,NA,NA,frustrated,"frustrated, not frustrated","more frustrated, less frustrated",NA,NA,NA,NA,NA,NA,NA,NA,NA,NA,NA,NA,NA,NA,NA,0,1,1,1,1,NA,NA,NA,NA,NA,NA,NA,NA,NA,NA,NA,NA,NA,NA,NA,NA,NA,NA,NA,NA,NA,NA,NA,NA,NA,NA,NA,NA
SUPAMT73133,3NQL1CS15X7R93RKT2VC3KCQZQDYVL,C7F70F48-5298-4695-9BA6-DA099A885D09,2023-09-26_05h56.55.025,WP_VExplicitOC_HL,2022.2.5,Win32,16.13423685,NA,NA,2.0362,NA,NA,NA,NA,NA,happy,"unhappy, happy","less happy, more happy",NA,NA,NA,NA,NA,NA,NA,NA,NA,NA,NA,NA,NA,NA,NA,0,2,2,0,1,NA,NA,NA,NA,NA,NA,NA,NA,NA,NA,NA,NA,NA,NA,NA,NA,NA,NA,NA,NA,NA,NA,NA,NA,NA,NA,NA,NA
SUPAMT73133,3NQL1CS15X7R93RKT2VC3KCQZQDYVL,C7F70F48-5298-4695-9BA6-DA099A885D09,2023-09-26_05h56.55.025,WP_VExplicitOC_HL,2022.2.5,Win32,16.13423685,NA,NA,NA,NA,NA,NA,NA,NA,NA,NA,NA,NA,NA,NA,NA,NA,NA,NA,NA,NA,NA,NA,NA,NA,NA,NA,NA,NA,NA,NA,NA,0,0,0,0,1,NA,NA,NA,NA,NA,NA,NA,NA,NA,NA,NA,NA,NA,NA,NA,NA,NA,NA,NA,NA,NA,NA,NA
SUPAMT73133,3NQL1CS15X7R93RKT2VC3KCQZQDYVL,C7F70F48-5298-4695-9BA6-DA099A885D09,2023-09-26_05h56.55.025,WP_VExplicitOC_HL,2022.2.5,Win32,16.13423685,NA,NA,2.0317,NA,NA,NA,NA,NA,frustrated,"frustrated, not frustrated","more frustrated, less frustrated",NA,NA,NA,NA,NA,NA,NA,NA,NA,NA,NA,NA,NA,NA,NA,0,0,0,1,1,NA,NA,NA,NA,NA,NA,NA,NA,NA,NA,NA,NA,NA,NA,NA,NA,NA,NA,NA,NA,NA,NA,NA,NA,NA,NA,NA,NA
SUPAMT73133,3NQL1CS15X7R93RKT2VC3KCQZQDYVL,C7F70F48-5298-4695-9BA6-DA099A885D09,2023-09-26_05h56.55.025,WP_VExplicitOC_HL,2022.2.5,Win32,16.13423685,NA,NA,2.0161,NA,NA,NA,NA,NA,bored,"bored, not bored","more bored, less bored",NA,NA,NA,NA,NA,NA,NA,NA,NA,NA,NA,NA,NA,NA,NA,0,1,1,2,1,NA,NA,NA,NA,NA,NA,NA,NA,NA,NA,NA,NA,NA,NA,NA,NA,NA,NA,NA,NA,NA,NA,NA,NA,NA,NA,NA,NA
SUPAMT73133,3NQL1CS15X7R93RKT2VC3KCQZQDYVL,C7F70F48-5298-4695-9BA6-DA099A885D09,2023-09-26_05h56.55.025,WP_VExplicitOC_HL,2022.2.5,Win32,16.13423685,65.625,4.704,2.0496,NA,NA,NA,NA,NA,happy,"unhappy, happy","less happy, more happy",NA,NA,NA,NA,NA,NA,NA,NA,NA,NA,NA,NA,NA,NA,NA,0,2,2,0,1,NA,NA,NA,NA,NA,NA,NA,NA,NA,NA,NA,NA,NA,NA,NA,NA,NA,NA,NA,NA,NA,NA,NA,NA,NA,NA,NA,NA
SUPAMT73133,3NQL1CS15X7R93RKT2VC3KCQZQDYVL,C7F70F48-5298-4695-9BA6-DA099A885D09,2023-09-26_05h56.55.025,WP_VExplicitOC_HL,2022.2.5,Win32,16.13423685,NA,NA,NA,NA,NA,NA,NA,NA,NA,NA,NA,NA,NA,NA,NA,NA,NA,NA,NA,NA,NA,NA,NA,NA,NA,NA,NA,NA,NA,NA,NA,1,0,1,0,1,NA,NA,NA,NA,NA,NA,NA,NA,NA,NA,NA,NA,NA,NA,NA,NA,NA,NA,NA,NA,NA,NA,NA
SUPAMT73133,3NQL1CS15X7R93RKT2VC3KCQZQDYVL,C7F70F48-5298-4695-9BA6-DA099A885D09,2023-09-26_05h56.55.025,WP_VExplicitOC_HL,2022.2.5,Win32,16.13423685,NA,NA,2.017799999,NA,NA,NA,NA,NA,frustrated,"frustrated, not frustrated","more frustrated, less frustrated",NA,NA,NA,NA,NA,NA,NA,NA,NA,NA,NA,NA,NA,NA,NA,0,0,0,1,1,NA,NA,NA,NA,NA,NA,NA,NA,NA,NA,NA,NA,NA,NA,NA,NA,NA,NA,NA,NA,NA,NA,NA,NA,NA,NA,NA,NA
SUPAMT73133,3NQL1CS15X7R93RKT2VC3KCQZQDYVL,C7F70F48-5298-4695-9BA6-DA099A885D09,2023-09-26_05h56.55.025,WP_VExplicitOC_HL,2022.2.5,Win32,16.13423685,53.125,3.8241,2.0239,NA,NA,NA,NA,NA,bored,"bored, not bored","more bored, less bored",NA,NA,NA,NA,NA,NA,NA,NA,NA,NA,NA,NA,NA,NA,NA,0,1,1,2,1,NA,NA,NA,NA,NA,NA,NA,NA,NA,NA,NA,NA,NA,NA,NA,NA,NA,NA,NA,NA,NA,NA,NA,NA,NA,NA,NA,NA
SUPAMT73133,3NQL1CS15X7R93RKT2VC3KCQZQDYVL,C7F70F48-5298-4695-9BA6-DA099A885D09,2023-09-26_05h56.55.025,WP_VExplicitOC_HL,2022.2.5,Win32,16.13423685,64.32291667,3.4252,2.0323,NA,NA,NA,NA,NA,happy,"unhappy, happy","less happy, more happy",NA,NA,NA,NA,NA,NA,NA,NA,NA,NA,NA,NA,NA,NA,NA,0,2,2,0,1,NA,NA,NA,NA,NA,NA,NA,NA,NA,NA,NA,NA,NA,NA,NA,NA,NA,NA,NA,NA,NA,NA,NA,NA,NA,NA,NA,NA
SUPAMT73133,3NQL1CS15X7R93RKT2VC3KCQZQDYVL,C7F70F48-5298-4695-9BA6-DA099A885D09,2023-09-26_05h56.55.025,WP_VExplicitOC_HL,2022.2.5,Win32,16.13423685,NA,NA,NA,NA,NA,NA,NA,NA,NA,NA,NA,NA,NA,NA,NA,NA,NA,NA,NA,NA,NA,NA,NA,NA,NA,NA,NA,NA,NA,NA,NA,2,0,2,0,1,NA,NA,NA,NA,NA,NA,NA,NA,NA,NA,NA,NA,NA,NA,NA,NA,NA,NA,NA,NA,NA,NA,NA
SUPAMT73133,3NQL1CS15X7R93RKT2VC3KCQZQDYVL,C7F70F48-5298-4695-9BA6-DA099A885D09,2023-09-26_05h56.55.025,WP_VExplicitOC_HL,2022.2.5,Win32,16.13423685,58.07291667,3.624799999,2.0533,NA,NA,NA,NA,NA,frustrated,"frustrated, not frustrated","more frustrated, less frustrated",NA,NA,NA,NA,NA,NA,NA,NA,NA,NA,NA,NA,NA,NA,NA,0,0,0,1,1,NA,NA,NA,NA,NA,NA,NA,NA,NA,NA,NA,NA,NA,NA,NA,NA,NA,NA,NA,NA,NA,NA,NA,NA,NA,NA,NA,NA
SUPAMT73133,3NQL1CS15X7R93RKT2VC3KCQZQDYVL,C7F70F48-5298-4695-9BA6-DA099A885D09,2023-09-26_05h56.55.025,WP_VExplicitOC_HL,2022.2.5,Win32,16.13423685,65.88541667,3.4489,2.0126,NA,NA,NA,NA,NA,bored,"bored, not bored","more bored, less bored",NA,NA,NA,NA,NA,NA,NA,NA,NA,NA,NA,NA,NA,NA,NA,0,1,1,2,1,NA,NA,NA,NA,NA,NA,NA,NA,NA,NA,NA,NA,NA,NA,NA,NA,NA,NA,NA,NA,NA,NA,NA,NA,NA,NA,NA,NA
SUPAMT73133,3NQL1CS15X7R93RKT2VC3KCQZQDYVL,C7F70F48-5298-4695-9BA6-DA099A885D09,2023-09-26_05h56.55.025,WP_VExplicitOC_HL,2022.2.5,Win32,16.13423685,65.88541667,3.4714,2.066599999,NA,NA,NA,NA,NA,happy,"unhappy, happy","less happy, more happy",NA,NA,NA,NA,NA,NA,NA,NA,NA,NA,NA,NA,NA,NA,NA,0,2,2,0,1,NA,NA,NA,NA,NA,NA,NA,NA,NA,NA,NA,NA,NA,NA,NA,NA,NA,NA,NA,NA,NA,NA,NA,NA,NA,NA,NA,NA
SUPAMT73133,3NQL1CS15X7R93RKT2VC3KCQZQDYVL,C7F70F48-5298-4695-9BA6-DA099A885D09,2023-09-26_05h56.55.025,WP_VExplicitOC_HL,2022.2.5,Win32,16.13423685,NA,NA,NA,NA,NA,NA,NA,NA,NA,NA,NA,NA,NA,NA,NA,NA,NA,NA,NA,NA,NA,NA,NA,NA,NA,NA,NA,NA,NA,NA,NA,3,0,3,0,1,NA,NA,NA,NA,NA,NA,NA,NA,NA,NA,NA,NA,NA,NA,NA,NA,NA,NA,NA,NA,NA,NA,NA
SUPAMT73133,3NQL1CS15X7R93RKT2VC3KCQZQDYVL,C7F70F48-5298-4695-9BA6-DA099A885D09,2023-09-26_05h56.55.025,WP_VExplicitOC_HL,2022.2.5,Win32,16.13423685,58.33333333,3.403,2.0177,NA,NA,NA,NA,NA,bored,"bored, not bored","more bored, less bored",NA,NA,NA,NA,NA,NA,NA,NA,NA,NA,NA,NA,NA,NA,NA,0,0,0,2,1,NA,NA,NA,NA,NA,NA,NA,NA,NA,NA,NA,NA,NA,NA,NA,NA,NA,NA,NA,NA,NA,NA,NA,NA,NA,NA,NA,NA
SUPAMT73133,3NQL1CS15X7R93RKT2VC3KCQZQDYVL,C7F70F48-5298-4695-9BA6-DA099A885D09,2023-09-26_05h56.55.025,WP_VExplicitOC_HL,2022.2.5,Win32,16.13423685,65.10416667,3.7632,2.022,NA,NA,NA,NA,NA,frustrated,"frustrated, not frustrated","more frustrated, less frustrated",NA,NA,NA,NA,NA,NA,NA,NA,NA,NA,NA,NA,NA,NA,NA,0,1,1,1,1,NA,NA,NA,NA,NA,NA,NA,NA,NA,NA,NA,NA,NA,NA,NA,NA,NA,NA,NA,NA,NA,NA,NA,NA,NA,NA,NA,NA
SUPAMT73133,3NQL1CS15X7R93RKT2VC3KCQZQDYVL,C7F70F48-5298-4695-9BA6-DA099A885D09,2023-09-26_05h56.55.025,WP_VExplicitOC_HL,2022.2.5,Win32,16.13423685,65.10416667,3.5786,2.0029,NA,NA,NA,NA,NA,happy,"unhappy, happy","less happy, more happy",NA,NA,NA,NA,NA,NA,NA,NA,NA,NA,NA,NA,NA,NA,NA,0,2,2,0,1,NA,NA,NA,NA,NA,NA,NA,NA,NA,NA,NA,NA,NA,NA,NA,NA,NA,NA,NA,NA,NA,NA,NA,NA,NA,NA,NA,NA
SUPAMT73133,3NQL1CS15X7R93RKT2VC3KCQZQDYVL,C7F70F48-5298-4695-9BA6-DA099A885D09,2023-09-26_05h56.55.025,WP_VExplicitOC_HL,2022.2.5,Win32,16.13423685,NA,NA,NA,NA,NA,NA,NA,NA,NA,NA,NA,NA,NA,NA,NA,NA,NA,NA,NA,NA,NA,NA,NA,NA,NA,NA,NA,NA,NA,NA,NA,4,0,4,0,1,NA,NA,NA,NA,NA,NA,NA,NA,NA,NA,NA,NA,NA,NA,NA,NA,NA,NA,NA,NA,NA,NA,NA
SUPAMT73133,3NQL1CS15X7R93RKT2VC3KCQZQDYVL,C7F70F48-5298-4695-9BA6-DA099A885D09,2023-09-26_05h56.55.025,WP_VExplicitOC_HL,2022.2.5,Win32,16.13423685,55.72916667,3.2968,2.0408,NA,NA,NA,NA,NA,frustrated,"frustrated, not frustrated","more frustrated, less frustrated",NA,NA,NA,NA,NA,NA,NA,NA,NA,NA,NA,NA,NA,NA,NA,0,0,0,1,1,NA,NA,NA,NA,NA,NA,NA,NA,NA,NA,NA,NA,NA,NA,NA,NA,NA,NA,NA,NA,NA,NA,NA,NA,NA,NA,NA,NA
SUPAMT73133,3NQL1CS15X7R93RKT2VC3KCQZQDYVL,C7F70F48-5298-4695-9BA6-DA099A885D09,2023-09-26_05h56.55.025,WP_VExplicitOC_HL,2022.2.5,Win32,16.13423685,73.69791667,3.9398,2.014,NA,NA,NA,NA,NA,happy,"unhappy, happy","less happy, more happy",NA,NA,NA,NA,NA,NA,NA,NA,NA,NA,NA,NA,NA,NA,NA,0,1,1,0,1,NA,NA,NA,NA,NA,NA,NA,NA,NA,NA,NA,NA,NA,NA,NA,NA,NA,NA,NA,NA,NA,NA,NA,NA,NA,NA,NA,NA
SUPAMT73133,3NQL1CS15X7R93RKT2VC3KCQZQDYVL,C7F70F48-5298-4695-9BA6-DA099A885D09,2023-09-26_05h56.55.025,WP_VExplicitOC_HL,2022.2.5,Win32,16.13423685,71.35416667,3.2497,2.0099,NA,NA,NA,NA,NA,bored,"bored, not bored","more bored, less bored",NA,NA,NA,NA,NA,NA,NA,NA,NA,NA,NA,NA,NA,NA,NA,0,2,2,2,1,NA,NA,NA,NA,NA,NA,NA,NA,NA,NA,NA,NA,NA,NA,NA,NA,NA,NA,NA,NA,NA,NA,NA,NA,NA,NA,NA,NA
SUPAMT73133,3NQL1CS15X7R93RKT2VC3KCQZQDYVL,C7F70F48-5298-4695-9BA6-DA099A885D09,2023-09-26_05h56.55.025,WP_VExplicitOC_HL,2022.2.5,Win32,16.13423685,NA,NA,NA,NA,NA,NA,NA,NA,NA,NA,NA,NA,NA,NA,NA,NA,NA,NA,NA,NA,NA,NA,NA,NA,NA,NA,NA,NA,NA,NA,NA,5,0,5,0,1,NA,NA,NA,NA,NA,NA,NA,NA,NA,NA,NA,NA,NA,NA,NA,NA,NA,NA,NA,NA,NA,NA,NA
SUPAMT73133,3NQL1CS15X7R93RKT2VC3KCQZQDYVL,C7F70F48-5298-4695-9BA6-DA099A885D09,2023-09-26_05h56.55.025,WP_VExplicitOC_HL,2022.2.5,Win32,16.13423685,67.70833333,3.6105,2.0494,NA,NA,NA,NA,NA,bored,"bored, not bored","more bored, less bored",NA,NA,NA,NA,NA,NA,NA,NA,NA,NA,NA,NA,NA,NA,NA,0,0,0,2,1,NA,NA,NA,NA,NA,NA,NA,NA,NA,NA,NA,NA,NA,NA,NA,NA,NA,NA,NA,NA,NA,NA,NA,NA,NA,NA,NA,NA
SUPAMT73133,3NQL1CS15X7R93RKT2VC3KCQZQDYVL,C7F70F48-5298-4695-9BA6-DA099A885D09,2023-09-26_05h56.55.025,WP_VExplicitOC_HL,2022.2.5,Win32,16.13423685,83.07291667,3.277700001,2.017,NA,NA,NA,NA,NA,happy,"unhappy, happy","less happy, more happy",NA,NA,NA,NA,NA,NA,NA,NA,NA,NA,NA,NA,NA,NA,NA,0,1,1,0,1,NA,NA,NA,NA,NA,NA,NA,NA,NA,NA,NA,NA,NA,NA,NA,NA,NA,NA,NA,NA,NA,NA,NA,NA,NA,NA,NA,NA
SUPAMT73133,3NQL1CS15X7R93RKT2VC3KCQZQDYVL,C7F70F48-5298-4695-9BA6-DA099A885D09,2023-09-26_05h56.55.025,WP_VExplicitOC_HL,2022.2.5,Win32,16.13423685,83.07291667,3.1758,2.003900001,NA,NA,NA,NA,NA,frustrated,"frustrated, not frustrated","more frustrated, less frustrated",NA,NA,NA,NA,NA,NA,NA,NA,NA,NA,NA,NA,NA,NA,NA,0,2,2,1,1,NA,NA,NA,NA,NA,NA,NA,NA,NA,NA,NA,NA,NA,NA,NA,NA,NA,NA,NA,NA,NA,NA,NA,NA,NA,NA,NA,NA
SUPAMT73133,3NQL1CS15X7R93RKT2VC3KCQZQDYVL,C7F70F48-5298-4695-9BA6-DA099A885D09,2023-09-26_05h56.55.025,WP_VExplicitOC_HL,2022.2.5,Win32,16.13423685,NA,NA,NA,NA,NA,NA,NA,NA,NA,NA,NA,NA,NA,NA,NA,NA,NA,NA,NA,NA,NA,NA,NA,NA,NA,NA,NA,NA,NA,NA,NA,6,0,6,0,1,NA,NA,NA,NA,NA,NA,NA,NA,NA,NA,NA,NA,NA,NA,NA,NA,NA,NA,NA,NA,NA,NA,NA
SUPAMT73133,3NQL1CS15X7R93RKT2VC3KCQZQDYVL,C7F70F48-5298-4695-9BA6-DA099A885D09,2023-09-26_05h56.55.025,WP_VExplicitOC_HL,2022.2.5,Win32,16.13423685,NA,NA,2.0065,NA,NA,NA,NA,NA,bored,"bored, not bored","more bored, less bored",NA,NA,NA,NA,NA,NA,NA,NA,NA,NA,NA,NA,NA,NA,NA,0,0,0,2,1,NA,NA,NA,NA,NA,NA,NA,NA,NA,NA,NA,NA,NA,NA,NA,NA,NA,NA,NA,NA,NA,NA,NA,NA,NA,NA,NA,NA
SUPAMT73133,3NQL1CS15X7R93RKT2VC3KCQZQDYVL,C7F70F48-5298-4695-9BA6-DA099A885D09,2023-09-26_05h56.55.025,WP_VExplicitOC_HL,2022.2.5,Win32,16.13423685,NA,NA,2.0108,NA,NA,NA,NA,NA,frustrated,"frustrated, not frustrated","more frustrated, less frustrated",NA,NA,NA,NA,NA,NA,NA,NA,NA,NA,NA,NA,NA,NA,NA,0,1,1,1,1,NA,NA,NA,NA,NA,NA,NA,NA,NA,NA,NA,NA,NA,NA,NA,NA,NA,NA,NA,NA,NA,NA,NA,NA,NA,NA,NA,NA
SUPAMT73133,3NQL1CS15X7R93RKT2VC3KCQZQDYVL,C7F70F48-5298-4695-9BA6-DA099A885D09,2023-09-26_05h56.55.025,WP_VExplicitOC_HL,2022.2.5,Win32,16.13423685,NA,NA,2.0109,NA,NA,NA,NA,NA,happy,"unhappy, happy","less happy, more happy",NA,NA,NA,NA,NA,NA,NA,NA,NA,NA,NA,NA,NA,NA,NA,0,2,2,0,1,NA,NA,NA,NA,NA,NA,NA,NA,NA,NA,NA,NA,NA,NA,NA,NA,NA,NA,NA,NA,NA,NA,NA,NA,NA,NA,NA,NA
SUPAMT73133,3NQL1CS15X7R93RKT2VC3KCQZQDYVL,C7F70F48-5298-4695-9BA6-DA099A885D09,2023-09-26_05h56.55.025,WP_VExplicitOC_HL,2022.2.5,Win32,16.13423685,NA,NA,NA,NA,NA,NA,NA,NA,NA,NA,NA,NA,NA,NA,NA,NA,NA,NA,NA,NA,NA,NA,NA,NA,NA,NA,NA,NA,NA,NA,NA,7,0,7,0,1,NA,NA,NA,NA,NA,NA,NA,NA,NA,NA,NA,NA,NA,NA,NA,NA,NA,NA,NA,NA,NA,NA,NA
SUPAMT73133,3NQL1CS15X7R93RKT2VC3KCQZQDYVL,C7F70F48-5298-4695-9BA6-DA099A885D09,2023-09-26_05h56.55.025,WP_VExplicitOC_HL,2022.2.5,Win32,16.13423685,NA,NA,2.018799999,NA,NA,NA,NA,NA,happy,"unhappy, happy","less happy, more happy",NA,NA,NA,NA,NA,NA,NA,NA,NA,NA,NA,NA,NA,NA,NA,0,0,0,0,1,NA,NA,NA,NA,NA,NA,NA,NA,NA,NA,NA,NA,NA,NA,NA,NA,NA,NA,NA,NA,NA,NA,NA,NA,NA,NA,NA,NA
SUPAMT73133,3NQL1CS15X7R93RKT2VC3KCQZQDYVL,C7F70F48-5298-4695-9BA6-DA099A885D09,2023-09-26_05h56.55.025,WP_VExplicitOC_HL,2022.2.5,Win32,16.13423685,NA,NA,2.0356,NA,NA,NA,NA,NA,frustrated,"frustrated, not frustrated","more frustrated, less frustrated",NA,NA,NA,NA,NA,NA,NA,NA,NA,NA,NA,NA,NA,NA,NA,0,1,1,1,1,NA,NA,NA,NA,NA,NA,NA,NA,NA,NA,NA,NA,NA,NA,NA,NA,NA,NA,NA,NA,NA,NA,NA,NA,NA,NA,NA,NA
SUPAMT73133,3NQL1CS15X7R93RKT2VC3KCQZQDYVL,C7F70F48-5298-4695-9BA6-DA099A885D09,2023-09-26_05h56.55.025,WP_VExplicitOC_HL,2022.2.5,Win32,16.13423685,NA,NA,2.0413,NA,NA,NA,NA,NA,bored,"bored, not bored","more bored, less bored",NA,NA,NA,NA,NA,NA,NA,NA,NA,NA,NA,NA,NA,NA,NA,0,2,2,2,1,NA,NA,NA,NA,NA,NA,NA,NA,NA,NA,NA,NA,NA,NA,NA,NA,NA,NA,NA,NA,NA,NA,NA,NA,NA,NA,NA,NA
SUPAMT73133,3NQL1CS15X7R93RKT2VC3KCQZQDYVL,C7F70F48-5298-4695-9BA6-DA099A885D09,2023-09-26_05h56.55.025,WP_VExplicitOC_HL,2022.2.5,Win32,16.13423685,NA,NA,NA,NA,NA,NA,NA,NA,NA,NA,NA,NA,NA,NA,NA,NA,NA,NA,NA,NA,NA,NA,NA,NA,NA,NA,NA,NA,NA,NA,NA,8,0,8,0,1,NA,NA,NA,NA,NA,NA,NA,NA,NA,NA,NA,NA,NA,NA,NA,NA,NA,NA,NA,NA,NA,NA,NA
SUPAMT73133,3NQL1CS15X7R93RKT2VC3KCQZQDYVL,C7F70F48-5298-4695-9BA6-DA099A885D09,2023-09-26_05h56.55.025,WP_VExplicitOC_HL,2022.2.5,Win32,16.13423685,85.41666667,3.812099999,2.0559,NA,NA,NA,NA,NA,happy,"unhappy, happy","less happy, more happy",NA,NA,NA,NA,NA,NA,NA,NA,NA,NA,NA,NA,NA,NA,NA,0,0,0,0,1,NA,NA,NA,NA,NA,NA,NA,NA,NA,NA,NA,NA,NA,NA,NA,NA,NA,NA,NA,NA,NA,NA,NA,NA,NA,NA,NA,NA
SUPAMT73133,3NQL1CS15X7R93RKT2VC3KCQZQDYVL,C7F70F48-5298-4695-9BA6-DA099A885D09,2023-09-26_05h56.55.025,WP_VExplicitOC_HL,2022.2.5,Win32,16.13423685,85.41666667,4.4215,2.0184,NA,NA,NA,NA,NA,bored,"bored, not bored","more bored, less bored",NA,NA,NA,NA,NA,NA,NA,NA,NA,NA,NA,NA,NA,NA,NA,0,1,1,2,1,NA,NA,NA,NA,NA,NA,NA,NA,NA,NA,NA,NA,NA,NA,NA,NA,NA,NA,NA,NA,NA,NA,NA,NA,NA,NA,NA,NA
SUPAMT73133,3NQL1CS15X7R93RKT2VC3KCQZQDYVL,C7F70F48-5298-4695-9BA6-DA099A885D09,2023-09-26_05h56.55.025,WP_VExplicitOC_HL,2022.2.5,Win32,16.13423685,70.3125,3.3603,2.008099999,NA,NA,NA,NA,NA,frustrated,"frustrated, not frustrated","more frustrated, less frustrated",NA,NA,NA,NA,NA,NA,NA,NA,NA,NA,NA,NA,NA,NA,NA,0,2,2,1,1,NA,NA,NA,NA,NA,NA,NA,NA,NA,NA,NA,NA,NA,NA,NA,NA,NA,NA,NA,NA,NA,NA,NA,NA,NA,NA,NA,NA
SUPAMT73133,3NQL1CS15X7R93RKT2VC3KCQZQDYVL,C7F70F48-5298-4695-9BA6-DA099A885D09,2023-09-26_05h56.55.025,WP_VExplicitOC_HL,2022.2.5,Win32,16.13423685,NA,NA,NA,NA,NA,NA,NA,NA,NA,NA,NA,NA,NA,NA,NA,NA,NA,NA,NA,NA,NA,NA,NA,NA,NA,NA,NA,NA,NA,NA,NA,9,0,9,0,1,NA,NA,NA,NA,NA,NA,NA,NA,NA,NA,NA,NA,NA,NA,NA,NA,NA,NA,NA,NA,NA,NA,NA
SUPAMT73133,3NQL1CS15X7R93RKT2VC3KCQZQDYVL,C7F70F48-5298-4695-9BA6-DA099A885D09,2023-09-26_05h56.55.025,WP_VExplicitOC_HL,2022.2.5,Win32,16.13423685,NA,NA,2.0617,NA,NA,NA,NA,NA,bored,"bored, not bored","more bored, less bored",NA,NA,NA,NA,NA,NA,NA,NA,NA,NA,NA,NA,NA,NA,NA,0,0,0,2,1,NA,NA,NA,NA,NA,NA,NA,NA,NA,NA,NA,NA,NA,NA,NA,NA,NA,NA,NA,NA,NA,NA,NA,NA,NA,NA,NA,NA
SUPAMT73133,3NQL1CS15X7R93RKT2VC3KCQZQDYVL,C7F70F48-5298-4695-9BA6-DA099A885D09,2023-09-26_05h56.55.025,WP_VExplicitOC_HL,2022.2.5,Win32,16.13423685,78.125,6.0964,2.0282,NA,NA,NA,NA,NA,happy,"unhappy, happy","less happy, more happy",NA,NA,NA,NA,NA,NA,NA,NA,NA,NA,NA,NA,NA,NA,NA,0,1,1,0,1,NA,NA,NA,NA,NA,NA,NA,NA,NA,NA,NA,NA,NA,NA,NA,NA,NA,NA,NA,NA,NA,NA,NA,NA,NA,NA,NA,NA
SUPAMT73133,3NQL1CS15X7R93RKT2VC3KCQZQDYVL,C7F70F48-5298-4695-9BA6-DA099A885D09,2023-09-26_05h56.55.025,WP_VExplicitOC_HL,2022.2.5,Win32,16.13423685,77.60416667,5.566,2.0456,NA,NA,NA,NA,NA,frustrated,"frustrated, not frustrated","more frustrated, less frustrated",NA,NA,NA,NA,NA,NA,NA,NA,NA,NA,NA,NA,NA,NA,NA,0,2,2,1,1,NA,NA,NA,NA,NA,NA,NA,NA,NA,NA,NA,NA,NA,NA,NA,NA,NA,NA,NA,NA,NA,NA,NA,NA,NA,NA,NA,NA
SUPAMT73133,3NQL1CS15X7R93RKT2VC3KCQZQDYVL,C7F70F48-5298-4695-9BA6-DA099A885D09,2023-09-26_05h56.55.025,WP_VExplicitOC_HL,2022.2.5,Win32,16.13423685,NA,NA,NA,NA,NA,NA,NA,NA,NA,NA,NA,NA,NA,NA,NA,NA,NA,NA,NA,NA,NA,NA,NA,NA,NA,NA,NA,NA,NA,NA,NA,10,0,10,0,1,NA,NA,NA,NA,NA,NA,NA,NA,NA,NA,NA,NA,NA,NA,NA,NA,NA,NA,NA,NA,NA,NA,NA
SUPAMT73133,3NQL1CS15X7R93RKT2VC3KCQZQDYVL,C7F70F48-5298-4695-9BA6-DA099A885D09,2023-09-26_05h56.55.025,WP_VExplicitOC_HL,2022.2.5,Win32,16.13423685,82.8125,3.935,2.0386,NA,NA,NA,NA,NA,happy,"unhappy, happy","less happy, more happy",NA,NA,NA,NA,NA,NA,NA,NA,NA,NA,NA,NA,NA,NA,NA,0,0,0,0,1,NA,NA,NA,NA,NA,NA,NA,NA,NA,NA,NA,NA,NA,NA,NA,NA,NA,NA,NA,NA,NA,NA,NA,NA,NA,NA,NA,NA
SUPAMT73133,3NQL1CS15X7R93RKT2VC3KCQZQDYVL,C7F70F48-5298-4695-9BA6-DA099A885D09,2023-09-26_05h56.55.025,WP_VExplicitOC_HL,2022.2.5,Win32,16.13423685,67.1875,3.5714,2.0461,NA,NA,NA,NA,NA,frustrated,"frustrated, not frustrated","more frustrated, less frustrated",NA,NA,NA,NA,NA,NA,NA,NA,NA,NA,NA,NA,NA,NA,NA,0,1,1,1,1,NA,NA,NA,NA,NA,NA,NA,NA,NA,NA,NA,NA,NA,NA,NA,NA,NA,NA,NA,NA,NA,NA,NA,NA,NA,NA,NA,NA
SUPAMT73133,3NQL1CS15X7R93RKT2VC3KCQZQDYVL,C7F70F48-5298-4695-9BA6-DA099A885D09,2023-09-26_05h56.55.025,WP_VExplicitOC_HL,2022.2.5,Win32,16.13423685,66.92708333,4.827599999,2.0174,NA,NA,NA,NA,NA,bored,"bored, not bored","more bored, less bored",NA,NA,NA,NA,NA,NA,NA,NA,NA,NA,NA,NA,NA,NA,NA,0,2,2,2,1,NA,NA,NA,NA,NA,NA,NA,NA,NA,NA,NA,NA,NA,NA,NA,NA,NA,NA,NA,NA,NA,NA,NA,NA,NA,NA,NA,NA
SUPAMT73133,3NQL1CS15X7R93RKT2VC3KCQZQDYVL,C7F70F48-5298-4695-9BA6-DA099A885D09,2023-09-26_05h56.55.025,WP_VExplicitOC_HL,2022.2.5,Win32,16.13423685,NA,NA,NA,NA,NA,NA,NA,NA,NA,NA,NA,NA,NA,NA,NA,NA,NA,NA,NA,NA,NA,NA,NA,NA,NA,NA,NA,NA,NA,NA,NA,11,0,11,0,1,NA,NA,NA,NA,NA,NA,NA,NA,NA,NA,NA,NA,NA,NA,NA,NA,NA,NA,NA,NA,NA,NA,NA
SUPAMT73133,3NQL1CS15X7R93RKT2VC3KCQZQDYVL,C7F70F48-5298-4695-9BA6-DA099A885D09,2023-09-26_05h56.55.025,WP_VExplicitOC_HL,2022.2.5,Win32,16.13423685,NA,NA,2.0016,NA,NA,NA,NA,NA,happy,"unhappy, happy","less happy, more happy",NA,NA,NA,NA,NA,NA,NA,NA,NA,NA,NA,NA,NA,NA,NA,0,0,0,0,1,NA,NA,NA,NA,NA,NA,NA,NA,NA,NA,NA,NA,NA,NA,NA,NA,NA,NA,NA,NA,NA,NA,NA,NA,NA,NA,NA,NA
SUPAMT73133,3NQL1CS15X7R93RKT2VC3KCQZQDYVL,C7F70F48-5298-4695-9BA6-DA099A885D09,2023-09-26_05h56.55.025,WP_VExplicitOC_HL,2022.2.5,Win32,16.13423685,72.65625,4.2615,2.0346,NA,NA,NA,NA,NA,bored,"bored, not bored","more bored, less bored",NA,NA,NA,NA,NA,NA,NA,NA,NA,NA,NA,NA,NA,NA,NA,0,1,1,2,1,NA,NA,NA,NA,NA,NA,NA,NA,NA,NA,NA,NA,NA,NA,NA,NA,NA,NA,NA,NA,NA,NA,NA,NA,NA,NA,NA,NA
SUPAMT73133,3NQL1CS15X7R93RKT2VC3KCQZQDYVL,C7F70F48-5298-4695-9BA6-DA099A885D09,2023-09-26_05h56.55.025,WP_VExplicitOC_HL,2022.2.5,Win32,16.13423685,71.09375,3.5199,2.0468,NA,NA,NA,NA,NA,frustrated,"frustrated, not frustrated","more frustrated, less frustrated",NA,NA,NA,NA,NA,NA,NA,NA,NA,NA,NA,NA,NA,NA,NA,0,2,2,1,1,NA,NA,NA,NA,NA,NA,NA,NA,NA,NA,NA,NA,NA,NA,NA,NA,NA,NA,NA,NA,NA,NA,NA,NA,NA,NA,NA,NA
SUPAMT73133,3NQL1CS15X7R93RKT2VC3KCQZQDYVL,C7F70F48-5298-4695-9BA6-DA099A885D09,2023-09-26_05h56.55.025,WP_VExplicitOC_HL,2022.2.5,Win32,16.13423685,NA,NA,NA,NA,NA,NA,NA,NA,NA,NA,NA,NA,NA,NA,NA,NA,NA,NA,NA,NA,NA,NA,NA,NA,NA,NA,NA,NA,NA,NA,NA,12,0,12,0,1,NA,NA,NA,NA,NA,NA,NA,NA,NA,NA,NA,NA,NA,NA,NA,NA,NA,NA,NA,NA,NA,NA,NA
SUPAMT73133,3NQL1CS15X7R93RKT2VC3KCQZQDYVL,C7F70F48-5298-4695-9BA6-DA099A885D09,2023-09-26_05h56.55.025,WP_VExplicitOC_HL,2022.2.5,Win32,16.13423685,77.34375,3.802200001,2.0231,NA,NA,NA,NA,NA,frustrated,"frustrated, not frustrated","more frustrated, less frustrated",NA,NA,NA,NA,NA,NA,NA,NA,NA,NA,NA,NA,NA,NA,NA,0,0,0,1,1,NA,NA,NA,NA,NA,NA,NA,NA,NA,NA,NA,NA,NA,NA,NA,NA,NA,NA,NA,NA,NA,NA,NA,NA,NA,NA,NA,NA
SUPAMT73133,3NQL1CS15X7R93RKT2VC3KCQZQDYVL,C7F70F48-5298-4695-9BA6-DA099A885D09,2023-09-26_05h56.55.025,WP_VExplicitOC_HL,2022.2.5,Win32,16.13423685,73.95833333,5.2455,2.001900001,NA,NA,NA,NA,NA,happy,"unhappy, happy","less happy, more happy",NA,NA,NA,NA,NA,NA,NA,NA,NA,NA,NA,NA,NA,NA,NA,0,1,1,0,1,NA,NA,NA,NA,NA,NA,NA,NA,NA,NA,NA,NA,NA,NA,NA,NA,NA,NA,NA,NA,NA,NA,NA,NA,NA,NA,NA,NA
SUPAMT73133,3NQL1CS15X7R93RKT2VC3KCQZQDYVL,C7F70F48-5298-4695-9BA6-DA099A885D09,2023-09-26_05h56.55.025,WP_VExplicitOC_HL,2022.2.5,Win32,16.13423685,NA,NA,2.051599999,NA,NA,NA,NA,NA,bored,"bored, not bored","more bored, less bored",NA,NA,NA,NA,NA,NA,NA,NA,NA,NA,NA,NA,NA,NA,NA,0,2,2,2,1,NA,NA,NA,NA,NA,NA,NA,NA,NA,NA,NA,NA,NA,NA,NA,NA,NA,NA,NA,NA,NA,NA,NA,NA,NA,NA,NA,NA
SUPAMT73133,3NQL1CS15X7R93RKT2VC3KCQZQDYVL,C7F70F48-5298-4695-9BA6-DA099A885D09,2023-09-26_05h56.55.025,WP_VExplicitOC_HL,2022.2.5,Win32,16.13423685,NA,NA,NA,NA,NA,NA,NA,NA,NA,NA,NA,NA,NA,NA,NA,NA,NA,NA,NA,NA,NA,NA,NA,NA,NA,NA,NA,NA,NA,NA,NA,13,0,13,0,1,NA,NA,NA,NA,NA,NA,NA,NA,NA,NA,NA,NA,NA,NA,NA,NA,NA,NA,NA,NA,NA,NA,NA
SUPAMT73133,3NQL1CS15X7R93RKT2VC3KCQZQDYVL,C7F70F48-5298-4695-9BA6-DA099A885D09,2023-09-26_05h56.55.025,WP_VExplicitOC_HL,2022.2.5,Win32,16.13423685,86.71875,3.9693,2.034,NA,NA,NA,NA,NA,bored,"bored, not bored","more bored, less bored",NA,NA,NA,NA,NA,NA,NA,NA,NA,NA,NA,NA,NA,NA,NA,0,0,0,2,1,NA,NA,NA,NA,NA,NA,NA,NA,NA,NA,NA,NA,NA,NA,NA,NA,NA,NA,NA,NA,NA,NA,NA,NA,NA,NA,NA,NA
SUPAMT73133,3NQL1CS15X7R93RKT2VC3KCQZQDYVL,C7F70F48-5298-4695-9BA6-DA099A885D09,2023-09-26_05h56.55.025,WP_VExplicitOC_HL,2022.2.5,Win32,16.13423685,67.70833333,3.263599999,2.0317,NA,NA,NA,NA,NA,frustrated,"frustrated, not frustrated","more frustrated, less frustrated",NA,NA,NA,NA,NA,NA,NA,NA,NA,NA,NA,NA,NA,NA,NA,0,1,1,1,1,NA,NA,NA,NA,NA,NA,NA,NA,NA,NA,NA,NA,NA,NA,NA,NA,NA,NA,NA,NA,NA,NA,NA,NA,NA,NA,NA,NA
SUPAMT73133,3NQL1CS15X7R93RKT2VC3KCQZQDYVL,C7F70F48-5298-4695-9BA6-DA099A885D09,2023-09-26_05h56.55.025,WP_VExplicitOC_HL,2022.2.5,Win32,16.13423685,67.70833333,3.2316,2.0527,NA,NA,NA,NA,NA,happy,"unhappy, happy","less happy, more happy",NA,NA,NA,NA,NA,NA,NA,NA,NA,NA,NA,NA,NA,NA,NA,0,2,2,0,1,NA,NA,NA,NA,NA,NA,NA,NA,NA,NA,NA,NA,NA,NA,NA,NA,NA,NA,NA,NA,NA,NA,NA,NA,NA,NA,NA,NA
SUPAMT73133,3NQL1CS15X7R93RKT2VC3KCQZQDYVL,C7F70F48-5298-4695-9BA6-DA099A885D09,2023-09-26_05h56.55.025,WP_VExplicitOC_HL,2022.2.5,Win32,16.13423685,NA,NA,NA,NA,NA,NA,NA,NA,NA,NA,NA,NA,NA,NA,NA,NA,NA,NA,NA,NA,NA,NA,NA,NA,NA,NA,NA,NA,NA,NA,NA,14,0,14,0,1,NA,NA,NA,NA,NA,NA,NA,NA,NA,NA,NA,NA,NA,NA,NA,NA,NA,NA,NA,NA,NA,NA,NA
SUPAMT73133,3NQL1CS15X7R93RKT2VC3KCQZQDYVL,C7F70F48-5298-4695-9BA6-DA099A885D09,2023-09-26_05h56.55.025,WP_VExplicitOC_HL,2022.2.5,Win32,16.13423685,NA,NA,NA,NA,NA,NA,NA,NA,NA,NA,NA,NA,NA,NA,NA,NA,NA,NA,NA,NA,NA,NA,NA,NA,NA,NA,NA,NA,NA,NA,NA,NA,NA,NA,NA,NA,NA,NA,NA,NA,NA,NA,NA,NA,NA,NA,NA,NA,NA,NA,NA,NA,NA,NA,NA,NA,NA,NA,NA
SUPAMT73133,3NQL1CS15X7R93RKT2VC3KCQZQDYVL,C7F70F48-5298-4695-9BA6-DA099A885D09,2023-09-26_05h56.55.025,WP_VExplicitOC_HL,2022.2.5,Win32,16.13423685,NA,NA,NA,NA,NA,NA,NA,NA,NA,NA,NA,NA,NA,NA,NA,NA,NA,NA,NA,NA,NA,NA,NA,NA,NA,NA,NA,NA,NA,NA,NA,NA,NA,NA,NA,NA,NA,NA,NA,NA,NA,NA,NA,NA,NA,NA,NA,NA,NA,NA,NA,NA,NA,NA,NA,NA,NA,NA,NA
SUPAMT73133,3NQL1CS15X7R93RKT2VC3KCQZQDYVL,C7F70F48-5298-4695-9BA6-DA099A885D09,2023-09-26_05h56.55.025,WP_VExplicitOC_HL,2022.2.5,Win32,16.13423685,NA,NA,NA,NA,NA,NA,NA,NA,NA,NA,NA,NA,NA,NA,NA,NA,NA,NA,rest (looking at a fixed cross),001.png,NA,NA,NA,NA,NA,NA,NA,NA,NA,NA,NA,NA,NA,NA,NA,NA,100,5.2855,0,0,0,0,1,NA,NA,NA,NA,NA,NA,NA,NA,NA,NA,NA,NA,NA,NA,NA,NA
SUPAMT73133,3NQL1CS15X7R93RKT2VC3KCQZQDYVL,C7F70F48-5298-4695-9BA6-DA099A885D09,2023-09-26_05h56.55.025,WP_VExplicitOC_HL,2022.2.5,Win32,16.13423685,NA,NA,NA,NA,NA,NA,NA,NA,NA,NA,NA,NA,NA,NA,NA,NA,NA,NA,stand up,002.png,NA,NA,NA,NA,NA,NA,NA,NA,NA,NA,NA,NA,NA,NA,NA,NA,100,2.484200001,0,1,1,1,1,NA,NA,NA,NA,NA,NA,NA,NA,NA,NA,NA,NA,NA,NA,NA,NA
SUPAMT73133,3NQL1CS15X7R93RKT2VC3KCQZQDYVL,C7F70F48-5298-4695-9BA6-DA099A885D09,2023-09-26_05h56.55.025,WP_VExplicitOC_HL,2022.2.5,Win32,16.13423685,NA,NA,NA,NA,NA,NA,NA,NA,NA,NA,NA,NA,NA,NA,NA,NA,NA,NA,stretch,003.png,NA,NA,NA,NA,NA,NA,NA,NA,NA,NA,NA,NA,NA,NA,NA,NA,100,1.8312,0,2,2,2,1,NA,NA,NA,NA,NA,NA,NA,NA,NA,NA,NA,NA,NA,NA,NA,NA
SUPAMT73133,3NQL1CS15X7R93RKT2VC3KCQZQDYVL,C7F70F48-5298-4695-9BA6-DA099A885D09,2023-09-26_05h56.55.025,WP_VExplicitOC_HL,2022.2.5,Win32,16.13423685,NA,NA,NA,NA,NA,NA,NA,NA,NA,NA,NA,NA,NA,NA,NA,NA,NA,NA,make a drink,004.png,NA,NA,NA,NA,NA,NA,NA,NA,NA,NA,NA,NA,NA,NA,NA,NA,100,2.0035,0,3,3,3,1,NA,NA,NA,NA,NA,NA,NA,NA,NA,NA,NA,NA,NA,NA,NA,NA
SUPAMT73133,3NQL1CS15X7R93RKT2VC3KCQZQDYVL,C7F70F48-5298-4695-9BA6-DA099A885D09,2023-09-26_05h56.55.025,WP_VExplicitOC_HL,2022.2.5,Win32,16.13423685,NA,NA,NA,NA,NA,NA,NA,NA,NA,NA,NA,NA,NA,NA,NA,NA,NA,NA,scroll social media,005.png,NA,NA,NA,NA,NA,NA,NA,NA,NA,NA,NA,NA,NA,NA,NA,NA,100,1.8249,0,4,4,4,1,NA,NA,NA,NA,NA,NA,NA,NA,NA,NA,NA,NA,NA,NA,NA,NA
SUPAMT73133,3NQL1CS15X7R93RKT2VC3KCQZQDYVL,C7F70F48-5298-4695-9BA6-DA099A885D09,2023-09-26_05h56.55.025,WP_VExplicitOC_HL,2022.2.5,Win32,16.13423685,NA,NA,NA,NA,NA,NA,NA,NA,NA,NA,NA,NA,NA,NA,NA,NA,NA,NA,listen to music,006.png,NA,NA,NA,NA,NA,NA,NA,NA,NA,NA,NA,NA,NA,NA,NA,NA,100,1.9855,0,5,5,5,1,NA,NA,NA,NA,NA,NA,NA,NA,NA,NA,NA,NA,NA,NA,NA,NA
SUPAMT73133,3NQL1CS15X7R93RKT2VC3KCQZQDYVL,C7F70F48-5298-4695-9BA6-DA099A885D09,2023-09-26_05h56.55.025,WP_VExplicitOC_HL,2022.2.5,Win32,16.13423685,NA,NA,NA,NA,NA,NA,NA,NA,NA,NA,NA,NA,NA,NA,NA,NA,NA,NA,daydream,007.png,NA,NA,NA,NA,NA,NA,NA,NA,NA,NA,NA,NA,NA,NA,NA,NA,100,1.7461,0,6,6,6,1,NA,NA,NA,NA,NA,NA,NA,NA,NA,NA,NA,NA,NA,NA,NA,NA
SUPAMT73133,3NQL1CS15X7R93RKT2VC3KCQZQDYVL,C7F70F48-5298-4695-9BA6-DA099A885D09,2023-09-26_05h56.55.025,WP_VExplicitOC_HL,2022.2.5,Win32,16.13423685,NA,NA,NA,NA,NA,NA,NA,NA,NA,NA,NA,NA,NA,NA,NA,NA,NA,NA,watch a short animation,008.png,NA,NA,NA,NA,NA,NA,NA,NA,NA,NA,NA,NA,NA,NA,NA,NA,100,1.8813,0,7,7,7,1,NA,NA,NA,NA,NA,NA,NA,NA,NA,NA,NA,NA,NA,NA,NA,NA
SUPAMT73133,3NQL1CS15X7R93RKT2VC3KCQZQDYVL,C7F70F48-5298-4695-9BA6-DA099A885D09,2023-09-26_05h56.55.025,WP_VExplicitOC_HL,2022.2.5,Win32,16.13423685,NA,NA,NA,NA,NA,NA,NA,NA,NA,NA,NA,NA,NA,NA,NA,NA,NA,NA,read a novel,009.png,NA,NA,NA,NA,NA,NA,NA,NA,NA,NA,NA,NA,NA,NA,NA,NA,100,2.0618,0,8,8,8,1,NA,NA,NA,NA,NA,NA,NA,NA,NA,NA,NA,NA,NA,NA,NA,NA
SUPAMT73133,3NQL1CS15X7R93RKT2VC3KCQZQDYVL,C7F70F48-5298-4695-9BA6-DA099A885D09,2023-09-26_05h56.55.025,WP_VExplicitOC_HL,2022.2.5,Win32,16.13423685,NA,NA,NA,NA,NA,NA,NA,NA,NA,NA,NA,NA,NA,NA,NA,NA,NA,NA,read the news,010.png,NA,NA,NA,NA,NA,NA,NA,NA,NA,NA,NA,NA,NA,NA,NA,NA,100,2.4261,0,9,9,9,1,NA,NA,NA,NA,NA,NA,NA,NA,NA,NA,NA,NA,NA,NA,NA,NA
SUPAMT73133,3NQL1CS15X7R93RKT2VC3KCQZQDYVL,C7F70F48-5298-4695-9BA6-DA099A885D09,2023-09-26_05h56.55.025,WP_VExplicitOC_HL,2022.2.5,Win32,16.13423685,NA,NA,NA,NA,NA,NA,NA,NA,NA,NA,NA,NA,NA,NA,NA,NA,NA,NA,NA,NA,NA,NA,NA,NA,NA,NA,NA,NA,NA,NA,NA,NA,NA,NA,NA,NA,NA,NA,NA,NA,NA,NA,NA,stand up,NA,NA,NA,NA,NA,NA,NA,NA,NA,NA,NA,NA,NA,NA,NA
SUPAMT73133,3NQL1CS15X7R93RKT2VC3KCQZQDYVL,C7F70F48-5298-4695-9BA6-DA099A885D09,2023-09-26_05h56.55.025,WP_VExplicitOC_HL,2022.2.5,Win32,16.13423685,92.44791667,4.122,2.0118,NA,NA,NA,NA,NA,happy,"unhappy, happy","less happy, more happy",NA,NA,NA,NA,NA,NA,NA,NA,NA,NA,NA,NA,NA,NA,NA,NA,NA,NA,NA,NA,NA,NA,NA,NA,NA,NA,NA,NA,NA,NA,NA,NA,NA,0,0,0,0,1,NA,NA,NA,NA,NA,NA,NA,NA,NA,NA
SUPAMT73133,3NQL1CS15X7R93RKT2VC3KCQZQDYVL,C7F70F48-5298-4695-9BA6-DA099A885D09,2023-09-26_05h56.55.025,WP_VExplicitOC_HL,2022.2.5,Win32,16.13423685,81.25,3.4908,2.0626,NA,NA,NA,NA,NA,frustrated,"frustrated, not frustrated","more frustrated, less frustrated",NA,NA,NA,NA,NA,NA,NA,NA,NA,NA,NA,NA,NA,NA,NA,NA,NA,NA,NA,NA,NA,NA,NA,NA,NA,NA,NA,NA,NA,NA,NA,NA,NA,0,1,1,1,1,NA,NA,NA,NA,NA,NA,NA,NA,NA,NA
SUPAMT73133,3NQL1CS15X7R93RKT2VC3KCQZQDYVL,C7F70F48-5298-4695-9BA6-DA099A885D09,2023-09-26_05h56.55.025,WP_VExplicitOC_HL,2022.2.5,Win32,16.13423685,85.15625,3.432,2.0277,NA,NA,NA,NA,NA,bored,"bored, not bored","more bored, less bored",NA,NA,NA,NA,NA,NA,NA,NA,NA,NA,NA,NA,NA,NA,NA,NA,NA,NA,NA,NA,NA,NA,NA,NA,NA,NA,NA,NA,NA,NA,NA,NA,NA,0,2,2,2,1,NA,NA,NA,NA,NA,NA,NA,NA,NA,NA
SUPAMT73133,3NQL1CS15X7R93RKT2VC3KCQZQDYVL,C7F70F48-5298-4695-9BA6-DA099A885D09,2023-09-26_05h56.55.025,WP_VExplicitOC_HL,2022.2.5,Win32,16.13423685,NA,NA,NA,NA,NA,NA,NA,NA,NA,NA,NA,NA,NA,NA,NA,NA,NA,NA,NA,NA,NA,NA,NA,NA,NA,NA,NA,NA,NA,NA,NA,NA,NA,NA,NA,NA,NA,NA,NA,NA,NA,NA,NA,NA,NA,NA,NA,NA,NA,NA,NA,NA,NA,NA,NA,NA,NA,NA,NA
SUPAMT73133,3NQL1CS15X7R93RKT2VC3KCQZQDYVL,C7F70F48-5298-4695-9BA6-DA099A885D09,2023-09-26_05h56.55.025,WP_VExplicitOC_HL,2022.2.5,Win32,16.13423685,NA,NA,NA,NA,NA,NA,NA,NA,NA,NA,NA,NA,NA,NA,NA,NA,NA,NA,NA,NA,NA,NA,NA,NA,NA,NA,NA,NA,NA,NA,NA,NA,NA,NA,NA,NA,NA,NA,NA,NA,NA,NA,NA,NA,NA,NA,NA,NA,NA,NA,NA,NA,NA,NA,NA,NA,NA,NA,NA
SUPAMT73133,3NQL1CS15X7R93RKT2VC3KCQZQDYVL,C7F70F48-5298-4695-9BA6-DA099A885D09,2023-09-26_05h56.55.025,WP_VExplicitOC_HL,2022.2.5,Win32,16.13423685,84.375,4.2898,2.074200001,NA,NA,NA,NA,NA,bored,"bored, not bored","more bored, less bored",NA,NA,NA,NA,NA,NA,NA,NA,NA,NA,NA,NA,NA,NA,NA,NA,NA,NA,NA,NA,NA,NA,NA,NA,NA,NA,NA,NA,NA,NA,NA,NA,NA,NA,NA,NA,NA,NA,0,0,0,2,1,NA,NA,NA,NA,NA
SUPAMT73133,3NQL1CS15X7R93RKT2VC3KCQZQDYVL,C7F70F48-5298-4695-9BA6-DA099A885D09,2023-09-26_05h56.55.025,WP_VExplicitOC_HL,2022.2.5,Win32,16.13423685,84.375,3.5224,2.0497,NA,NA,NA,NA,NA,frustrated,"frustrated, not frustrated","more frustrated, less frustrated",NA,NA,NA,NA,NA,NA,NA,NA,NA,NA,NA,NA,NA,NA,NA,NA,NA,NA,NA,NA,NA,NA,NA,NA,NA,NA,NA,NA,NA,NA,NA,NA,NA,NA,NA,NA,NA,NA,0,1,1,1,1,NA,NA,NA,NA,NA
SUPAMT73133,3NQL1CS15X7R93RKT2VC3KCQZQDYVL,C7F70F48-5298-4695-9BA6-DA099A885D09,2023-09-26_05h56.55.025,WP_VExplicitOC_HL,2022.2.5,Win32,16.13423685,85.15625,3.418299999,2.0431,NA,NA,NA,NA,NA,happy,"unhappy, happy","less happy, more happy",NA,NA,NA,NA,NA,NA,NA,NA,NA,NA,NA,NA,NA,NA,NA,NA,NA,NA,NA,NA,NA,NA,NA,NA,NA,NA,NA,NA,NA,NA,NA,NA,NA,NA,NA,NA,NA,NA,0,2,2,0,1,NA,NA,NA,NA,NA
SUPAMT73133,3NQL1CS15X7R93RKT2VC3KCQZQDYVL,C7F70F48-5298-4695-9BA6-DA099A885D09,2023-09-26_05h56.55.025,WP_VExplicitOC_HL,2022.2.5,Win32,16.13423685,NA,NA,NA,NA,NA,NA,NA,NA,NA,NA,NA,NA,NA,NA,NA,NA,NA,NA,NA,NA,NA,NA,NA,NA,NA,NA,NA,NA,NA,NA,NA,NA,NA,NA,NA,NA,NA,NA,NA,NA,NA,NA,NA,NA,NA,NA,NA,NA,NA,NA,NA,NA,NA,NA,0,0,0,0,1
SUPAMT73133,3NQL1CS15X7R93RKT2VC3KCQZQDYVL,C7F70F48-5298-4695-9BA6-DA099A885D09,2023-09-26_05h56.55.025,WP_VExplicitOC_HL,2022.2.5,Win32,16.13423685,86.45833333,3.656,2.0465,NA,NA,NA,NA,NA,bored,"bored, not bored","more bored, less bored",NA,NA,NA,NA,NA,NA,NA,NA,NA,NA,NA,NA,NA,NA,NA,NA,NA,NA,NA,NA,NA,NA,NA,NA,NA,NA,NA,NA,NA,NA,NA,NA,NA,NA,NA,NA,NA,NA,0,0,0,2,1,NA,NA,NA,NA,NA
SUPAMT73133,3NQL1CS15X7R93RKT2VC3KCQZQDYVL,C7F70F48-5298-4695-9BA6-DA099A885D09,2023-09-26_05h56.55.025,WP_VExplicitOC_HL,2022.2.5,Win32,16.13423685,88.54166667,3.4188,2.045099999,NA,NA,NA,NA,NA,happy,"unhappy, happy","less happy, more happy",NA,NA,NA,NA,NA,NA,NA,NA,NA,NA,NA,NA,NA,NA,NA,NA,NA,NA,NA,NA,NA,NA,NA,NA,NA,NA,NA,NA,NA,NA,NA,NA,NA,NA,NA,NA,NA,NA,0,1,1,0,1,NA,NA,NA,NA,NA
SUPAMT73133,3NQL1CS15X7R93RKT2VC3KCQZQDYVL,C7F70F48-5298-4695-9BA6-DA099A885D09,2023-09-26_05h56.55.025,WP_VExplicitOC_HL,2022.2.5,Win32,16.13423685,89.0625,3.538,2.0347,NA,NA,NA,NA,NA,frustrated,"frustrated, not frustrated","more frustrated, less frustrated",NA,NA,NA,NA,NA,NA,NA,NA,NA,NA,NA,NA,NA,NA,NA,NA,NA,NA,NA,NA,NA,NA,NA,NA,NA,NA,NA,NA,NA,NA,NA,NA,NA,NA,NA,NA,NA,NA,0,2,2,1,1,NA,NA,NA,NA,NA
SUPAMT73133,3NQL1CS15X7R93RKT2VC3KCQZQDYVL,C7F70F48-5298-4695-9BA6-DA099A885D09,2023-09-26_05h56.55.025,WP_VExplicitOC_HL,2022.2.5,Win32,16.13423685,NA,NA,NA,NA,NA,NA,NA,NA,NA,NA,NA,NA,NA,NA,NA,NA,NA,NA,NA,NA,NA,NA,NA,NA,NA,NA,NA,NA,NA,NA,NA,NA,NA,NA,NA,NA,NA,NA,NA,NA,NA,NA,NA,NA,NA,NA,NA,NA,NA,NA,NA,NA,NA,NA,1,0,1,0,1
SUPAMT73133,3NQL1CS15X7R93RKT2VC3KCQZQDYVL,C7F70F48-5298-4695-9BA6-DA099A885D09,2023-09-26_05h56.55.025,WP_VExplicitOC_HL,2022.2.5,Win32,16.13423685,82.55208333,3.8445,2.014599999,NA,NA,NA,NA,NA,frustrated,"frustrated, not frustrated","more frustrated, less frustrated",NA,NA,NA,NA,NA,NA,NA,NA,NA,NA,NA,NA,NA,NA,NA,NA,NA,NA,NA,NA,NA,NA,NA,NA,NA,NA,NA,NA,NA,NA,NA,NA,NA,NA,NA,NA,NA,NA,0,0,0,1,1,NA,NA,NA,NA,NA
SUPAMT73133,3NQL1CS15X7R93RKT2VC3KCQZQDYVL,C7F70F48-5298-4695-9BA6-DA099A885D09,2023-09-26_05h56.55.025,WP_VExplicitOC_HL,2022.2.5,Win32,16.13423685,82.55208333,3.226799999,2.0425,NA,NA,NA,NA,NA,happy,"unhappy, happy","less happy, more happy",NA,NA,NA,NA,NA,NA,NA,NA,NA,NA,NA,NA,NA,NA,NA,NA,NA,NA,NA,NA,NA,NA,NA,NA,NA,NA,NA,NA,NA,NA,NA,NA,NA,NA,NA,NA,NA,NA,0,1,1,0,1,NA,NA,NA,NA,NA
SUPAMT73133,3NQL1CS15X7R93RKT2VC3KCQZQDYVL,C7F70F48-5298-4695-9BA6-DA099A885D09,2023-09-26_05h56.55.025,WP_VExplicitOC_HL,2022.2.5,Win32,16.13423685,87.23958333,3.277900001,2.029,NA,NA,NA,NA,NA,bored,"bored, not bored","more bored, less bored",NA,NA,NA,NA,NA,NA,NA,NA,NA,NA,NA,NA,NA,NA,NA,NA,NA,NA,NA,NA,NA,NA,NA,NA,NA,NA,NA,NA,NA,NA,NA,NA,NA,NA,NA,NA,NA,NA,0,2,2,2,1,NA,NA,NA,NA,NA
SUPAMT73133,3NQL1CS15X7R93RKT2VC3KCQZQDYVL,C7F70F48-5298-4695-9BA6-DA099A885D09,2023-09-26_05h56.55.025,WP_VExplicitOC_HL,2022.2.5,Win32,16.13423685,NA,NA,NA,NA,NA,NA,NA,NA,NA,NA,NA,NA,NA,NA,NA,NA,NA,NA,NA,NA,NA,NA,NA,NA,NA,NA,NA,NA,NA,NA,NA,NA,NA,NA,NA,NA,NA,NA,NA,NA,NA,NA,NA,NA,NA,NA,NA,NA,NA,NA,NA,NA,NA,NA,2,0,2,0,1
SUPAMT73133,3NQL1CS15X7R93RKT2VC3KCQZQDYVL,C7F70F48-5298-4695-9BA6-DA099A885D09,2023-09-26_05h56.55.025,WP_VExplicitOC_HL,2022.2.5,Win32,16.13423685,82.8125,4.2708,2.0142,NA,NA,NA,NA,NA,happy,"unhappy, happy","less happy, more happy",NA,NA,NA,NA,NA,NA,NA,NA,NA,NA,NA,NA,NA,NA,NA,NA,NA,NA,NA,NA,NA,NA,NA,NA,NA,NA,NA,NA,NA,NA,NA,NA,NA,NA,NA,NA,NA,NA,0,0,0,0,1,NA,NA,NA,NA,NA
SUPAMT73133,3NQL1CS15X7R93RKT2VC3KCQZQDYVL,C7F70F48-5298-4695-9BA6-DA099A885D09,2023-09-26_05h56.55.025,WP_VExplicitOC_HL,2022.2.5,Win32,16.13423685,82.8125,3.5276,2.006200001,NA,NA,NA,NA,NA,frustrated,"frustrated, not frustrated","more frustrated, less frustrated",NA,NA,NA,NA,NA,NA,NA,NA,NA,NA,NA,NA,NA,NA,NA,NA,NA,NA,NA,NA,NA,NA,NA,NA,NA,NA,NA,NA,NA,NA,NA,NA,NA,NA,NA,NA,NA,NA,0,1,1,1,1,NA,NA,NA,NA,NA
SUPAMT73133,3NQL1CS15X7R93RKT2VC3KCQZQDYVL,C7F70F48-5298-4695-9BA6-DA099A885D09,2023-09-26_05h56.55.025,WP_VExplicitOC_HL,2022.2.5,Win32,16.13423685,82.8125,2.9906,2.0206,NA,NA,NA,NA,NA,bored,"bored, not bored","more bored, less bored",NA,NA,NA,NA,NA,NA,NA,NA,NA,NA,NA,NA,NA,NA,NA,NA,NA,NA,NA,NA,NA,NA,NA,NA,NA,NA,NA,NA,NA,NA,NA,NA,NA,NA,NA,NA,NA,NA,0,2,2,2,1,NA,NA,NA,NA,NA
SUPAMT73133,3NQL1CS15X7R93RKT2VC3KCQZQDYVL,C7F70F48-5298-4695-9BA6-DA099A885D09,2023-09-26_05h56.55.025,WP_VExplicitOC_HL,2022.2.5,Win32,16.13423685,NA,NA,NA,NA,NA,NA,NA,NA,NA,NA,NA,NA,NA,NA,NA,NA,NA,NA,NA,NA,NA,NA,NA,NA,NA,NA,NA,NA,NA,NA,NA,NA,NA,NA,NA,NA,NA,NA,NA,NA,NA,NA,NA,NA,NA,NA,NA,NA,NA,NA,NA,NA,NA,NA,3,0,3,0,1
SUPAMT73133,3NQL1CS15X7R93RKT2VC3KCQZQDYVL,C7F70F48-5298-4695-9BA6-DA099A885D09,2023-09-26_05h56.55.025,WP_VExplicitOC_HL,2022.2.5,Win32,16.13423685,67.70833333,3.5065,2.033299999,NA,NA,NA,NA,NA,bored,"bored, not bored","more bored, less bored",NA,NA,NA,NA,NA,NA,NA,NA,NA,NA,NA,NA,NA,NA,NA,NA,NA,NA,NA,NA,NA,NA,NA,NA,NA,NA,NA,NA,NA,NA,NA,NA,NA,NA,NA,NA,NA,NA,0,0,0,2,1,NA,NA,NA,NA,NA
SUPAMT73133,3NQL1CS15X7R93RKT2VC3KCQZQDYVL,C7F70F48-5298-4695-9BA6-DA099A885D09,2023-09-26_05h56.55.025,WP_VExplicitOC_HL,2022.2.5,Win32,16.13423685,81.77083333,3.7347,2.0693,NA,NA,NA,NA,NA,happy,"unhappy, happy","less happy, more happy",NA,NA,NA,NA,NA,NA,NA,NA,NA,NA,NA,NA,NA,NA,NA,NA,NA,NA,NA,NA,NA,NA,NA,NA,NA,NA,NA,NA,NA,NA,NA,NA,NA,NA,NA,NA,NA,NA,0,1,1,0,1,NA,NA,NA,NA,NA
SUPAMT73133,3NQL1CS15X7R93RKT2VC3KCQZQDYVL,C7F70F48-5298-4695-9BA6-DA099A885D09,2023-09-26_05h56.55.025,WP_VExplicitOC_HL,2022.2.5,Win32,16.13423685,82.55208333,3.4276,2.049299999,NA,NA,NA,NA,NA,frustrated,"frustrated, not frustrated","more frustrated, less frustrated",NA,NA,NA,NA,NA,NA,NA,NA,NA,NA,NA,NA,NA,NA,NA,NA,NA,NA,NA,NA,NA,NA,NA,NA,NA,NA,NA,NA,NA,NA,NA,NA,NA,NA,NA,NA,NA,NA,0,2,2,1,1,NA,NA,NA,NA,NA
SUPAMT73133,3NQL1CS15X7R93RKT2VC3KCQZQDYVL,C7F70F48-5298-4695-9BA6-DA099A885D09,2023-09-26_05h56.55.025,WP_VExplicitOC_HL,2022.2.5,Win32,16.13423685,NA,NA,NA,NA,NA,NA,NA,NA,NA,NA,NA,NA,NA,NA,NA,NA,NA,NA,NA,NA,NA,NA,NA,NA,NA,NA,NA,NA,NA,NA,NA,NA,NA,NA,NA,NA,NA,NA,NA,NA,NA,NA,NA,NA,NA,NA,NA,NA,NA,NA,NA,NA,NA,NA,4,0,4,0,1
SUPAMT73133,3NQL1CS15X7R93RKT2VC3KCQZQDYVL,C7F70F48-5298-4695-9BA6-DA099A885D09,2023-09-26_05h56.55.025,WP_VExplicitOC_HL,2022.2.5,Win32,16.13423685,90.36458333,4.403099999,2.047200001,NA,NA,NA,NA,NA,bored,"bored, not bored","more bored, less bored",NA,NA,NA,NA,NA,NA,NA,NA,NA,NA,NA,NA,NA,NA,NA,NA,NA,NA,NA,NA,NA,NA,NA,NA,NA,NA,NA,NA,NA,NA,NA,NA,NA,NA,NA,NA,NA,NA,0,0,0,2,1,NA,NA,NA,NA,NA
SUPAMT73133,3NQL1CS15X7R93RKT2VC3KCQZQDYVL,C7F70F48-5298-4695-9BA6-DA099A885D09,2023-09-26_05h56.55.025,WP_VExplicitOC_HL,2022.2.5,Win32,16.13423685,90.36458333,3.3886,2.0081,NA,NA,NA,NA,NA,frustrated,"frustrated, not frustrated","more frustrated, less frustrated",NA,NA,NA,NA,NA,NA,NA,NA,NA,NA,NA,NA,NA,NA,NA,NA,NA,NA,NA,NA,NA,NA,NA,NA,NA,NA,NA,NA,NA,NA,NA,NA,NA,NA,NA,NA,NA,NA,0,1,1,1,1,NA,NA,NA,NA,NA
SUPAMT73133,3NQL1CS15X7R93RKT2VC3KCQZQDYVL,C7F70F48-5298-4695-9BA6-DA099A885D09,2023-09-26_05h56.55.025,WP_VExplicitOC_HL,2022.2.5,Win32,16.13423685,90.625,3.4251,2.0238,NA,NA,NA,NA,NA,happy,"unhappy, happy","less happy, more happy",NA,NA,NA,NA,NA,NA,NA,NA,NA,NA,NA,NA,NA,NA,NA,NA,NA,NA,NA,NA,NA,NA,NA,NA,NA,NA,NA,NA,NA,NA,NA,NA,NA,NA,NA,NA,NA,NA,0,2,2,0,1,NA,NA,NA,NA,NA
SUPAMT73133,3NQL1CS15X7R93RKT2VC3KCQZQDYVL,C7F70F48-5298-4695-9BA6-DA099A885D09,2023-09-26_05h56.55.025,WP_VExplicitOC_HL,2022.2.5,Win32,16.13423685,NA,NA,NA,NA,NA,NA,NA,NA,NA,NA,NA,NA,NA,NA,NA,NA,NA,NA,NA,NA,NA,NA,NA,NA,NA,NA,NA,NA,NA,NA,NA,NA,NA,NA,NA,NA,NA,NA,NA,NA,NA,NA,NA,NA,NA,NA,NA,NA,NA,NA,NA,NA,NA,NA,5,0,5,0,1
SUPAMT73133,3NQL1CS15X7R93RKT2VC3KCQZQDYVL,C7F70F48-5298-4695-9BA6-DA099A885D09,2023-09-26_05h56.55.025,WP_VExplicitOC_HL,2022.2.5,Win32,16.13423685,83.85416667,3.6314,2.0239,NA,NA,NA,NA,NA,happy,"unhappy, happy","less happy, more happy",NA,NA,NA,NA,NA,NA,NA,NA,NA,NA,NA,NA,NA,NA,NA,NA,NA,NA,NA,NA,NA,NA,NA,NA,NA,NA,NA,NA,NA,NA,NA,NA,NA,NA,NA,NA,NA,NA,0,0,0,0,1,NA,NA,NA,NA,NA
SUPAMT73133,3NQL1CS15X7R93RKT2VC3KCQZQDYVL,C7F70F48-5298-4695-9BA6-DA099A885D09,2023-09-26_05h56.55.025,WP_VExplicitOC_HL,2022.2.5,Win32,16.13423685,83.85416667,4.3582,2.0115,NA,NA,NA,NA,NA,frustrated,"frustrated, not frustrated","more frustrated, less frustrated",NA,NA,NA,NA,NA,NA,NA,NA,NA,NA,NA,NA,NA,NA,NA,NA,NA,NA,NA,NA,NA,NA,NA,NA,NA,NA,NA,NA,NA,NA,NA,NA,NA,NA,NA,NA,NA,NA,0,1,1,1,1,NA,NA,NA,NA,NA
SUPAMT73133,3NQL1CS15X7R93RKT2VC3KCQZQDYVL,C7F70F48-5298-4695-9BA6-DA099A885D09,2023-09-26_05h56.55.025,WP_VExplicitOC_HL,2022.2.5,Win32,16.13423685,83.85416667,5.797,2.0699,NA,NA,NA,NA,NA,bored,"bored, not bored","more bored, less bored",NA,NA,NA,NA,NA,NA,NA,NA,NA,NA,NA,NA,NA,NA,NA,NA,NA,NA,NA,NA,NA,NA,NA,NA,NA,NA,NA,NA,NA,NA,NA,NA,NA,NA,NA,NA,NA,NA,0,2,2,2,1,NA,NA,NA,NA,NA
SUPAMT73133,3NQL1CS15X7R93RKT2VC3KCQZQDYVL,C7F70F48-5298-4695-9BA6-DA099A885D09,2023-09-26_05h56.55.025,WP_VExplicitOC_HL,2022.2.5,Win32,16.13423685,NA,NA,NA,NA,NA,NA,NA,NA,NA,NA,NA,NA,NA,NA,NA,NA,NA,NA,NA,NA,NA,NA,NA,NA,NA,NA,NA,NA,NA,NA,NA,NA,NA,NA,NA,NA,NA,NA,NA,NA,NA,NA,NA,NA,NA,NA,NA,NA,NA,NA,NA,NA,NA,NA,6,0,6,0,1
SUPAMT73133,3NQL1CS15X7R93RKT2VC3KCQZQDYVL,C7F70F48-5298-4695-9BA6-DA099A885D09,2023-09-26_05h56.55.025,WP_VExplicitOC_HL,2022.2.5,Win32,16.13423685,52.86458333,4.0642,2.024099999,NA,NA,NA,NA,NA,frustrated,"frustrated, not frustrated","more frustrated, less frustrated",NA,NA,NA,NA,NA,NA,NA,NA,NA,NA,NA,NA,NA,NA,NA,NA,NA,NA,NA,NA,NA,NA,NA,NA,NA,NA,NA,NA,NA,NA,NA,NA,NA,NA,NA,NA,NA,NA,0,0,0,1,1,NA,NA,NA,NA,NA
SUPAMT73133,3NQL1CS15X7R93RKT2VC3KCQZQDYVL,C7F70F48-5298-4695-9BA6-DA099A885D09,2023-09-26_05h56.55.025,WP_VExplicitOC_HL,2022.2.5,Win32,16.13423685,97.91666667,5.5055,2.064900001,NA,NA,NA,NA,NA,bored,"bored, not bored","more bored, less bored",NA,NA,NA,NA,NA,NA,NA,NA,NA,NA,NA,NA,NA,NA,NA,NA,NA,NA,NA,NA,NA,NA,NA,NA,NA,NA,NA,NA,NA,NA,NA,NA,NA,NA,NA,NA,NA,NA,0,1,1,2,1,NA,NA,NA,NA,NA
SUPAMT73133,3NQL1CS15X7R93RKT2VC3KCQZQDYVL,C7F70F48-5298-4695-9BA6-DA099A885D09,2023-09-26_05h56.55.025,WP_VExplicitOC_HL,2022.2.5,Win32,16.13423685,97.65625,3.1617,2.024400001,NA,NA,NA,NA,NA,happy,"unhappy, happy","less happy, more happy",NA,NA,NA,NA,NA,NA,NA,NA,NA,NA,NA,NA,NA,NA,NA,NA,NA,NA,NA,NA,NA,NA,NA,NA,NA,NA,NA,NA,NA,NA,NA,NA,NA,NA,NA,NA,NA,NA,0,2,2,0,1,NA,NA,NA,NA,NA
SUPAMT73133,3NQL1CS15X7R93RKT2VC3KCQZQDYVL,C7F70F48-5298-4695-9BA6-DA099A885D09,2023-09-26_05h56.55.025,WP_VExplicitOC_HL,2022.2.5,Win32,16.13423685,NA,NA,NA,NA,NA,NA,NA,NA,NA,NA,NA,NA,NA,NA,NA,NA,NA,NA,NA,NA,NA,NA,NA,NA,NA,NA,NA,NA,NA,NA,NA,NA,NA,NA,NA,NA,NA,NA,NA,NA,NA,NA,NA,NA,NA,NA,NA,NA,NA,NA,NA,NA,NA,NA,7,0,7,0,1
SUPAMT73133,3NQL1CS15X7R93RKT2VC3KCQZQDYVL,C7F70F48-5298-4695-9BA6-DA099A885D09,2023-09-26_05h56.55.025,WP_VExplicitOC_HL,2022.2.5,Win32,16.13423685,97.13541667,4.4848,2.0472,NA,NA,NA,NA,NA,bored,"bored, not bored","more bored, less bored",NA,NA,NA,NA,NA,NA,NA,NA,NA,NA,NA,NA,NA,NA,NA,NA,NA,NA,NA,NA,NA,NA,NA,NA,NA,NA,NA,NA,NA,NA,NA,NA,NA,NA,NA,NA,NA,NA,0,0,0,2,1,NA,NA,NA,NA,NA
SUPAMT73133,3NQL1CS15X7R93RKT2VC3KCQZQDYVL,C7F70F48-5298-4695-9BA6-DA099A885D09,2023-09-26_05h56.55.025,WP_VExplicitOC_HL,2022.2.5,Win32,16.13423685,98.95833333,3.849,2.03,NA,NA,NA,NA,NA,frustrated,"frustrated, not frustrated","more frustrated, less frustrated",NA,NA,NA,NA,NA,NA,NA,NA,NA,NA,NA,NA,NA,NA,NA,NA,NA,NA,NA,NA,NA,NA,NA,NA,NA,NA,NA,NA,NA,NA,NA,NA,NA,NA,NA,NA,NA,NA,0,1,1,1,1,NA,NA,NA,NA,NA
SUPAMT73133,3NQL1CS15X7R93RKT2VC3KCQZQDYVL,C7F70F48-5298-4695-9BA6-DA099A885D09,2023-09-26_05h56.55.025,WP_VExplicitOC_HL,2022.2.5,Win32,16.13423685,98.95833333,3.2059,2.024799999,NA,NA,NA,NA,NA,happy,"unhappy, happy","less happy, more happy",NA,NA,NA,NA,NA,NA,NA,NA,NA,NA,NA,NA,NA,NA,NA,NA,NA,NA,NA,NA,NA,NA,NA,NA,NA,NA,NA,NA,NA,NA,NA,NA,NA,NA,NA,NA,NA,NA,0,2,2,0,1,NA,NA,NA,NA,NA
SUPAMT73133,3NQL1CS15X7R93RKT2VC3KCQZQDYVL,C7F70F48-5298-4695-9BA6-DA099A885D09,2023-09-26_05h56.55.025,WP_VExplicitOC_HL,2022.2.5,Win32,16.13423685,NA,NA,NA,NA,NA,NA,NA,NA,NA,NA,NA,NA,NA,NA,NA,NA,NA,NA,NA,NA,NA,NA,NA,NA,NA,NA,NA,NA,NA,NA,NA,NA,NA,NA,NA,NA,NA,NA,NA,NA,NA,NA,NA,NA,NA,NA,NA,NA,NA,NA,NA,NA,NA,NA,8,0,8,0,1
SUPAMT73133,3NQL1CS15X7R93RKT2VC3KCQZQDYVL,C7F70F48-5298-4695-9BA6-DA099A885D09,2023-09-26_05h56.55.025,WP_VExplicitOC_HL,2022.2.5,Win32,16.13423685,98.69791667,5.450200001,2.0399,NA,NA,NA,NA,NA,frustrated,"frustrated, not frustrated","more frustrated, less frustrated",NA,NA,NA,NA,NA,NA,NA,NA,NA,NA,NA,NA,NA,NA,NA,NA,NA,NA,NA,NA,NA,NA,NA,NA,NA,NA,NA,NA,NA,NA,NA,NA,NA,NA,NA,NA,NA,NA,0,0,0,1,1,NA,NA,NA,NA,NA
SUPAMT73133,3NQL1CS15X7R93RKT2VC3KCQZQDYVL,C7F70F48-5298-4695-9BA6-DA099A885D09,2023-09-26_05h56.55.025,WP_VExplicitOC_HL,2022.2.5,Win32,16.13423685,98.69791667,3.3886,2.0277,NA,NA,NA,NA,NA,bored,"bored, not bored","more bored, less bored",NA,NA,NA,NA,NA,NA,NA,NA,NA,NA,NA,NA,NA,NA,NA,NA,NA,NA,NA,NA,NA,NA,NA,NA,NA,NA,NA,NA,NA,NA,NA,NA,NA,NA,NA,NA,NA,NA,0,1,1,2,1,NA,NA,NA,NA,NA
SUPAMT73133,3NQL1CS15X7R93RKT2VC3KCQZQDYVL,C7F70F48-5298-4695-9BA6-DA099A885D09,2023-09-26_05h56.55.025,WP_VExplicitOC_HL,2022.2.5,Win32,16.13423685,98.69791667,3.9715,2.0567,NA,NA,NA,NA,NA,happy,"unhappy, happy","less happy, more happy",NA,NA,NA,NA,NA,NA,NA,NA,NA,NA,NA,NA,NA,NA,NA,NA,NA,NA,NA,NA,NA,NA,NA,NA,NA,NA,NA,NA,NA,NA,NA,NA,NA,NA,NA,NA,NA,NA,0,2,2,0,1,NA,NA,NA,NA,NA
SUPAMT73133,3NQL1CS15X7R93RKT2VC3KCQZQDYVL,C7F70F48-5298-4695-9BA6-DA099A885D09,2023-09-26_05h56.55.025,WP_VExplicitOC_HL,2022.2.5,Win32,16.13423685,NA,NA,NA,NA,NA,NA,NA,NA,NA,NA,NA,NA,NA,NA,NA,NA,NA,NA,NA,NA,NA,NA,NA,NA,NA,NA,NA,NA,NA,NA,NA,NA,NA,NA,NA,NA,NA,NA,NA,NA,NA,NA,NA,NA,NA,NA,NA,NA,NA,NA,NA,NA,NA,NA,9,0,9,0,1
SUPAMT73133,3NQL1CS15X7R93RKT2VC3KCQZQDYVL,C7F70F48-5298-4695-9BA6-DA099A885D09,2023-09-26_05h56.55.025,WP_VExplicitOC_HL,2022.2.5,Win32,16.13423685,97.91666667,5.478900001,2.071,NA,NA,NA,NA,NA,happy,"unhappy, happy","less happy, more happy",NA,NA,NA,NA,NA,NA,NA,NA,NA,NA,NA,NA,NA,NA,NA,NA,NA,NA,NA,NA,NA,NA,NA,NA,NA,NA,NA,NA,NA,NA,NA,NA,NA,NA,NA,NA,NA,NA,0,0,0,0,1,NA,NA,NA,NA,NA
SUPAMT73133,3NQL1CS15X7R93RKT2VC3KCQZQDYVL,C7F70F48-5298-4695-9BA6-DA099A885D09,2023-09-26_05h56.55.025,WP_VExplicitOC_HL,2022.2.5,Win32,16.13423685,97.91666667,4.135900001,2.0153,NA,NA,NA,NA,NA,bored,"bored, not bored","more bored, less bored",NA,NA,NA,NA,NA,NA,NA,NA,NA,NA,NA,NA,NA,NA,NA,NA,NA,NA,NA,NA,NA,NA,NA,NA,NA,NA,NA,NA,NA,NA,NA,NA,NA,NA,NA,NA,NA,NA,0,1,1,2,1,NA,NA,NA,NA,NA
SUPAMT73133,3NQL1CS15X7R93RKT2VC3KCQZQDYVL,C7F70F48-5298-4695-9BA6-DA099A885D09,2023-09-26_05h56.55.025,WP_VExplicitOC_HL,2022.2.5,Win32,16.13423685,97.91666667,3.228400001,2.0463,NA,NA,NA,NA,NA,frustrated,"frustrated, not frustrated","more frustrated, less frustrated",NA,NA,NA,NA,NA,NA,NA,NA,NA,NA,NA,NA,NA,NA,NA,NA,NA,NA,NA,NA,NA,NA,NA,NA,NA,NA,NA,NA,NA,NA,NA,NA,NA,NA,NA,NA,NA,NA,0,2,2,1,1,NA,NA,NA,NA,NA
SUPAMT73133,3NQL1CS15X7R93RKT2VC3KCQZQDYVL,C7F70F48-5298-4695-9BA6-DA099A885D09,2023-09-26_05h56.55.025,WP_VExplicitOC_HL,2022.2.5,Win32,16.13423685,NA,NA,NA,NA,NA,NA,NA,NA,NA,NA,NA,NA,NA,NA,NA,NA,NA,NA,NA,NA,NA,NA,NA,NA,NA,NA,NA,NA,NA,NA,NA,NA,NA,NA,NA,NA,NA,NA,NA,NA,NA,NA,NA,NA,NA,NA,NA,NA,NA,NA,NA,NA,NA,NA,10,0,10,0,1
SUPAMT73133,3NQL1CS15X7R93RKT2VC3KCQZQDYVL,C7F70F48-5298-4695-9BA6-DA099A885D09,2023-09-26_05h56.55.025,WP_VExplicitOC_HL,2022.2.5,Win32,16.13423685,NA,NA,2.0525,NA,NA,NA,NA,NA,happy,"unhappy, happy","less happy, more happy",NA,NA,NA,NA,NA,NA,NA,NA,NA,NA,NA,NA,NA,NA,NA,NA,NA,NA,NA,NA,NA,NA,NA,NA,NA,NA,NA,NA,NA,NA,NA,NA,NA,NA,NA,NA,NA,NA,0,0,0,0,1,NA,NA,NA,NA,NA
SUPAMT73133,3NQL1CS15X7R93RKT2VC3KCQZQDYVL,C7F70F48-5298-4695-9BA6-DA099A885D09,2023-09-26_05h56.55.025,WP_VExplicitOC_HL,2022.2.5,Win32,16.13423685,NA,NA,2.075599999,NA,NA,NA,NA,NA,bored,"bored, not bored","more bored, less bored",NA,NA,NA,NA,NA,NA,NA,NA,NA,NA,NA,NA,NA,NA,NA,NA,NA,NA,NA,NA,NA,NA,NA,NA,NA,NA,NA,NA,NA,NA,NA,NA,NA,NA,NA,NA,NA,NA,0,1,1,2,1,NA,NA,NA,NA,NA
SUPAMT73133,3NQL1CS15X7R93RKT2VC3KCQZQDYVL,C7F70F48-5298-4695-9BA6-DA099A885D09,2023-09-26_05h56.55.025,WP_VExplicitOC_HL,2022.2.5,Win32,16.13423685,NA,NA,2.002599999,NA,NA,NA,NA,NA,frustrated,"frustrated, not frustrated","more frustrated, less frustrated",NA,NA,NA,NA,NA,NA,NA,NA,NA,NA,NA,NA,NA,NA,NA,NA,NA,NA,NA,NA,NA,NA,NA,NA,NA,NA,NA,NA,NA,NA,NA,NA,NA,NA,NA,NA,NA,NA,0,2,2,1,1,NA,NA,NA,NA,NA
SUPAMT73133,3NQL1CS15X7R93RKT2VC3KCQZQDYVL,C7F70F48-5298-4695-9BA6-DA099A885D09,2023-09-26_05h56.55.025,WP_VExplicitOC_HL,2022.2.5,Win32,16.13423685,NA,NA,NA,NA,NA,NA,NA,NA,NA,NA,NA,NA,NA,NA,NA,NA,NA,NA,NA,NA,NA,NA,NA,NA,NA,NA,NA,NA,NA,NA,NA,NA,NA,NA,NA,NA,NA,NA,NA,NA,NA,NA,NA,NA,NA,NA,NA,NA,NA,NA,NA,NA,NA,NA,11,0,11,0,1
SUPAMT73133,3NQL1CS15X7R93RKT2VC3KCQZQDYVL,C7F70F48-5298-4695-9BA6-DA099A885D09,2023-09-26_05h56.55.025,WP_VExplicitOC_HL,2022.2.5,Win32,16.13423685,97.39583333,5.105599999,2.0145,NA,NA,NA,NA,NA,happy,"unhappy, happy","less happy, more happy",NA,NA,NA,NA,NA,NA,NA,NA,NA,NA,NA,NA,NA,NA,NA,NA,NA,NA,NA,NA,NA,NA,NA,NA,NA,NA,NA,NA,NA,NA,NA,NA,NA,NA,NA,NA,NA,NA,0,0,0,0,1,NA,NA,NA,NA,NA
SUPAMT73133,3NQL1CS15X7R93RKT2VC3KCQZQDYVL,C7F70F48-5298-4695-9BA6-DA099A885D09,2023-09-26_05h56.55.025,WP_VExplicitOC_HL,2022.2.5,Win32,16.13423685,98.17708333,3.5243,2.040099999,NA,NA,NA,NA,NA,frustrated,"frustrated, not frustrated","more frustrated, less frustrated",NA,NA,NA,NA,NA,NA,NA,NA,NA,NA,NA,NA,NA,NA,NA,NA,NA,NA,NA,NA,NA,NA,NA,NA,NA,NA,NA,NA,NA,NA,NA,NA,NA,NA,NA,NA,NA,NA,0,1,1,1,1,NA,NA,NA,NA,NA
SUPAMT73133,3NQL1CS15X7R93RKT2VC3KCQZQDYVL,C7F70F48-5298-4695-9BA6-DA099A885D09,2023-09-26_05h56.55.025,WP_VExplicitOC_HL,2022.2.5,Win32,16.13423685,98.17708333,3.777900001,2.0143,NA,NA,NA,NA,NA,bored,"bored, not bored","more bored, less bored",NA,NA,NA,NA,NA,NA,NA,NA,NA,NA,NA,NA,NA,NA,NA,NA,NA,NA,NA,NA,NA,NA,NA,NA,NA,NA,NA,NA,NA,NA,NA,NA,NA,NA,NA,NA,NA,NA,0,2,2,2,1,NA,NA,NA,NA,NA
SUPAMT73133,3NQL1CS15X7R93RKT2VC3KCQZQDYVL,C7F70F48-5298-4695-9BA6-DA099A885D09,2023-09-26_05h56.55.025,WP_VExplicitOC_HL,2022.2.5,Win32,16.13423685,NA,NA,NA,NA,NA,NA,NA,NA,NA,NA,NA,NA,NA,NA,NA,NA,NA,NA,NA,NA,NA,NA,NA,NA,NA,NA,NA,NA,NA,NA,NA,NA,NA,NA,NA,NA,NA,NA,NA,NA,NA,NA,NA,NA,NA,NA,NA,NA,NA,NA,NA,NA,NA,NA,12,0,12,0,1
SUPAMT73133,3NQL1CS15X7R93RKT2VC3KCQZQDYVL,C7F70F48-5298-4695-9BA6-DA099A885D09,2023-09-26_05h56.55.025,WP_VExplicitOC_HL,2022.2.5,Win32,16.13423685,96.35416667,4.002400001,2.0617,NA,NA,NA,NA,NA,happy,"unhappy, happy","less happy, more happy",NA,NA,NA,NA,NA,NA,NA,NA,NA,NA,NA,NA,NA,NA,NA,NA,NA,NA,NA,NA,NA,NA,NA,NA,NA,NA,NA,NA,NA,NA,NA,NA,NA,NA,NA,NA,NA,NA,0,0,0,0,1,NA,NA,NA,NA,NA
SUPAMT73133,3NQL1CS15X7R93RKT2VC3KCQZQDYVL,C7F70F48-5298-4695-9BA6-DA099A885D09,2023-09-26_05h56.55.025,WP_VExplicitOC_HL,2022.2.5,Win32,16.13423685,96.35416667,3.1117,2.0424,NA,NA,NA,NA,NA,frustrated,"frustrated, not frustrated","more frustrated, less frustrated",NA,NA,NA,NA,NA,NA,NA,NA,NA,NA,NA,NA,NA,NA,NA,NA,NA,NA,NA,NA,NA,NA,NA,NA,NA,NA,NA,NA,NA,NA,NA,NA,NA,NA,NA,NA,NA,NA,0,1,1,1,1,NA,NA,NA,NA,NA
SUPAMT73133,3NQL1CS15X7R93RKT2VC3KCQZQDYVL,C7F70F48-5298-4695-9BA6-DA099A885D09,2023-09-26_05h56.55.025,WP_VExplicitOC_HL,2022.2.5,Win32,16.13423685,96.35416667,3.3684,2.023799999,NA,NA,NA,NA,NA,bored,"bored, not bored","more bored, less bored",NA,NA,NA,NA,NA,NA,NA,NA,NA,NA,NA,NA,NA,NA,NA,NA,NA,NA,NA,NA,NA,NA,NA,NA,NA,NA,NA,NA,NA,NA,NA,NA,NA,NA,NA,NA,NA,NA,0,2,2,2,1,NA,NA,NA,NA,NA
SUPAMT73133,3NQL1CS15X7R93RKT2VC3KCQZQDYVL,C7F70F48-5298-4695-9BA6-DA099A885D09,2023-09-26_05h56.55.025,WP_VExplicitOC_HL,2022.2.5,Win32,16.13423685,NA,NA,NA,NA,NA,NA,NA,NA,NA,NA,NA,NA,NA,NA,NA,NA,NA,NA,NA,NA,NA,NA,NA,NA,NA,NA,NA,NA,NA,NA,NA,NA,NA,NA,NA,NA,NA,NA,NA,NA,NA,NA,NA,NA,NA,NA,NA,NA,NA,NA,NA,NA,NA,NA,13,0,13,0,1
SUPAMT73133,3NQL1CS15X7R93RKT2VC3KCQZQDYVL,C7F70F48-5298-4695-9BA6-DA099A885D09,2023-09-26_05h56.55.025,WP_VExplicitOC_HL,2022.2.5,Win32,16.13423685,96.35416667,3.0455,2.058,NA,NA,NA,NA,NA,frustrated,"frustrated, not frustrated","more frustrated, less frustrated",NA,NA,NA,NA,NA,NA,NA,NA,NA,NA,NA,NA,NA,NA,NA,NA,NA,NA,NA,NA,NA,NA,NA,NA,NA,NA,NA,NA,NA,NA,NA,NA,NA,NA,NA,NA,NA,NA,0,0,0,1,1,NA,NA,NA,NA,NA
SUPAMT73133,3NQL1CS15X7R93RKT2VC3KCQZQDYVL,C7F70F48-5298-4695-9BA6-DA099A885D09,2023-09-26_05h56.55.025,WP_VExplicitOC_HL,2022.2.5,Win32,16.13423685,96.35416667,3.103799999,2.0389,NA,NA,NA,NA,NA,happy,"unhappy, happy","less happy, more happy",NA,NA,NA,NA,NA,NA,NA,NA,NA,NA,NA,NA,NA,NA,NA,NA,NA,NA,NA,NA,NA,NA,NA,NA,NA,NA,NA,NA,NA,NA,NA,NA,NA,NA,NA,NA,NA,NA,0,1,1,0,1,NA,NA,NA,NA,NA
SUPAMT73133,3NQL1CS15X7R93RKT2VC3KCQZQDYVL,C7F70F48-5298-4695-9BA6-DA099A885D09,2023-09-26_05h56.55.025,WP_VExplicitOC_HL,2022.2.5,Win32,16.13423685,96.35416667,3.084,2.0104,NA,NA,NA,NA,NA,bored,"bored, not bored","more bored, less bored",NA,NA,NA,NA,NA,NA,NA,NA,NA,NA,NA,NA,NA,NA,NA,NA,NA,NA,NA,NA,NA,NA,NA,NA,NA,NA,NA,NA,NA,NA,NA,NA,NA,NA,NA,NA,NA,NA,0,2,2,2,1,NA,NA,NA,NA,NA
SUPAMT73133,3NQL1CS15X7R93RKT2VC3KCQZQDYVL,C7F70F48-5298-4695-9BA6-DA099A885D09,2023-09-26_05h56.55.025,WP_VExplicitOC_HL,2022.2.5,Win32,16.13423685,NA,NA,NA,NA,NA,NA,NA,NA,NA,NA,NA,NA,NA,NA,NA,NA,NA,NA,NA,NA,NA,NA,NA,NA,NA,NA,NA,NA,NA,NA,NA,NA,NA,NA,NA,NA,NA,NA,NA,NA,NA,NA,NA,NA,NA,NA,NA,NA,NA,NA,NA,NA,NA,NA,14,0,14,0,1
SUPAMT73133,3NQL1CS15X7R93RKT2VC3KCQZQDYVL,C7F70F48-5298-4695-9BA6-DA099A885D09,2023-09-26_05h56.55.025,WP_VExplicitOC_HL,2022.2.5,Win32,16.13423685,NA,NA,NA,NA,NA,NA,NA,NA,NA,NA,NA,NA,NA,NA,NA,NA,NA,NA,NA,NA,NA,NA,NA,NA,NA,NA,NA,NA,NA,NA,NA,NA,NA,NA,NA,NA,NA,NA,NA,NA,NA,NA,NA,NA,NA,NA,NA,NA,NA,NA,NA,NA,NA,NA,NA,NA,NA,NA,NA
