participant,session,completion,date,expName,psychopyVersion,OS,frameRate,rating_all.response,rating_all.rt,rating_all.tStart,rndRat1.thisRepN,rndRat1.thisTrialN,rndRat1.thisN,rndRat1.thisIndex,rndRat1.ran,Emo,Labs,Labs2,rating_alt.response,rating_alt.rt,AltC.thisRepN,AltC.thisTrialN,AltC.thisN,AltC.thisIndex,AltC.ran,alt_choices,pic_choices,TopAlt_Choice,rndRat2.thisRepN,rndRat2.thisTrialN,rndRat2.thisN,rndRat2.thisIndex,rndRat2.ran,rndRat3.thisRepN,rndRat3.thisTrialN,rndRat3.thisN,rndRat3.thisIndex,rndRat3.ran,trials_FC_H.thisRepN,trials_FC_H.thisTrialN,trials_FC_H.thisN,trials_FC_H.thisIndex,trials_FC_H.ran,rating_alt_2.response,rating_alt_2.rt,AltC2.thisRepN,AltC2.thisTrialN,AltC2.thisN,AltC2.thisIndex,AltC2.ran,BottomAlt_Choice,rndRat4.thisRepN,rndRat4.thisTrialN,rndRat4.thisN,rndRat4.thisIndex,rndRat4.ran,rndRat5.thisRepN,rndRat5.thisTrialN,rndRat5.thisN,rndRat5.thisIndex,rndRat5.ran,trials_FC_L.thisRepN,trials_FC_L.thisTrialN,trials_FC_L.thisN,trials_FC_L.thisIndex,trials_FC_L.ran
SUPAMT54273,3TDXMTX3CHTK4DXEOC115423TLUI6T,AC8A4D77-3457-40EA-B70E-1FFF57E6474F,2023-09-27_08h10.52.260,WP_VExplicitOC_HL,2022.2.5,Win32,13.07787877,NA,NA,NA,NA,NA,NA,NA,NA,NA,NA,NA,NA,NA,NA,NA,NA,NA,NA,NA,NA,NA,NA,NA,NA,NA,NA,NA,NA,NA,NA,NA,NA,NA,NA,NA,NA,NA,NA,NA,NA,NA,NA,NA,NA,NA,NA,NA,NA,NA,NA,NA,NA,NA,NA,NA,NA,NA,NA,NA
SUPAMT54273,3TDXMTX3CHTK4DXEOC115423TLUI6T,AC8A4D77-3457-40EA-B70E-1FFF57E6474F,2023-09-27_08h10.52.260,WP_VExplicitOC_HL,2022.2.5,Win32,13.07787877,NA,NA,NA,NA,NA,NA,NA,NA,NA,NA,NA,NA,NA,NA,NA,NA,NA,NA,NA,NA,NA,NA,NA,NA,NA,NA,NA,NA,NA,NA,NA,NA,NA,NA,NA,NA,NA,NA,NA,NA,NA,NA,NA,NA,NA,NA,NA,NA,NA,NA,NA,NA,NA,NA,NA,NA,NA,NA,NA
SUPAMT54273,3TDXMTX3CHTK4DXEOC115423TLUI6T,AC8A4D77-3457-40EA-B70E-1FFF57E6474F,2023-09-27_08h10.52.260,WP_VExplicitOC_HL,2022.2.5,Win32,13.07787877,NA,NA,NA,NA,NA,NA,NA,NA,NA,NA,NA,NA,NA,NA,NA,NA,NA,NA,NA,NA,NA,NA,NA,NA,NA,NA,NA,NA,NA,NA,NA,NA,NA,NA,NA,NA,NA,NA,NA,NA,NA,NA,NA,NA,NA,NA,NA,NA,NA,NA,NA,NA,NA,NA,NA,NA,NA,NA,NA
SUPAMT54273,3TDXMTX3CHTK4DXEOC115423TLUI6T,AC8A4D77-3457-40EA-B70E-1FFF57E6474F,2023-09-27_08h10.52.260,WP_VExplicitOC_HL,2022.2.5,Win32,13.07787877,59.375,4.2798,2.0042,0,0,0,1,1,frustrated,"frustrated, not frustrated","more frustrated, less frustrated",NA,NA,NA,NA,NA,NA,NA,NA,NA,NA,NA,NA,NA,NA,NA,NA,NA,NA,NA,NA,NA,NA,NA,NA,NA,NA,NA,NA,NA,NA,NA,NA,NA,NA,NA,NA,NA,NA,NA,NA,NA,NA,NA,NA,NA,NA,NA,NA
SUPAMT54273,3TDXMTX3CHTK4DXEOC115423TLUI6T,AC8A4D77-3457-40EA-B70E-1FFF57E6474F,2023-09-27_08h10.52.260,WP_VExplicitOC_HL,2022.2.5,Win32,13.07787877,82.03125,4.3463,2.0772,0,1,1,0,1,happy,"unhappy, happy","less happy, more happy",NA,NA,NA,NA,NA,NA,NA,NA,NA,NA,NA,NA,NA,NA,NA,NA,NA,NA,NA,NA,NA,NA,NA,NA,NA,NA,NA,NA,NA,NA,NA,NA,NA,NA,NA,NA,NA,NA,NA,NA,NA,NA,NA,NA,NA,NA,NA,NA
SUPAMT54273,3TDXMTX3CHTK4DXEOC115423TLUI6T,AC8A4D77-3457-40EA-B70E-1FFF57E6474F,2023-09-27_08h10.52.260,WP_VExplicitOC_HL,2022.2.5,Win32,13.07787877,51.82291667,4.1139,2.0489,0,2,2,2,1,bored,"bored, not bored","more bored, less bored",NA,NA,NA,NA,NA,NA,NA,NA,NA,NA,NA,NA,NA,NA,NA,NA,NA,NA,NA,NA,NA,NA,NA,NA,NA,NA,NA,NA,NA,NA,NA,NA,NA,NA,NA,NA,NA,NA,NA,NA,NA,NA,NA,NA,NA,NA,NA,NA
SUPAMT54273,3TDXMTX3CHTK4DXEOC115423TLUI6T,AC8A4D77-3457-40EA-B70E-1FFF57E6474F,2023-09-27_08h10.52.260,WP_VExplicitOC_HL,2022.2.5,Win32,13.07787877,NA,NA,NA,NA,NA,NA,NA,NA,NA,NA,NA,NA,NA,NA,NA,NA,NA,NA,NA,NA,NA,NA,NA,NA,NA,NA,NA,NA,NA,NA,NA,NA,NA,NA,NA,NA,NA,NA,NA,NA,NA,NA,NA,NA,NA,NA,NA,NA,NA,NA,NA,NA,NA,NA,NA,NA,NA,NA,NA
SUPAMT54273,3TDXMTX3CHTK4DXEOC115423TLUI6T,AC8A4D77-3457-40EA-B70E-1FFF57E6474F,2023-09-27_08h10.52.260,WP_VExplicitOC_HL,2022.2.5,Win32,13.07787877,NA,NA,NA,NA,NA,NA,NA,NA,NA,NA,NA,NA,NA,NA,NA,NA,NA,NA,NA,NA,NA,NA,NA,NA,NA,NA,NA,NA,NA,NA,NA,NA,NA,NA,NA,NA,NA,NA,NA,NA,NA,NA,NA,NA,NA,NA,NA,NA,NA,NA,NA,NA,NA,NA,NA,NA,NA,NA,NA
SUPAMT54273,3TDXMTX3CHTK4DXEOC115423TLUI6T,AC8A4D77-3457-40EA-B70E-1FFF57E6474F,2023-09-27_08h10.52.260,WP_VExplicitOC_HL,2022.2.5,Win32,13.07787877,NA,NA,NA,NA,NA,NA,NA,NA,NA,NA,NA,NA,NA,NA,NA,NA,NA,NA,NA,NA,NA,NA,NA,NA,NA,NA,NA,NA,NA,NA,NA,NA,NA,NA,NA,NA,NA,NA,NA,NA,NA,NA,NA,NA,NA,NA,NA,NA,NA,NA,NA,NA,NA,NA,NA,NA,NA,NA,NA
SUPAMT54273,3TDXMTX3CHTK4DXEOC115423TLUI6T,AC8A4D77-3457-40EA-B70E-1FFF57E6474F,2023-09-27_08h10.52.260,WP_VExplicitOC_HL,2022.2.5,Win32,13.07787877,NA,NA,NA,NA,NA,NA,NA,NA,NA,NA,NA,NA,NA,NA,NA,NA,NA,NA,NA,NA,NA,NA,NA,NA,NA,NA,NA,NA,NA,NA,NA,NA,NA,NA,NA,NA,NA,NA,NA,NA,NA,NA,NA,NA,NA,NA,NA,NA,NA,NA,NA,NA,NA,NA,NA,NA,NA,NA,NA
SUPAMT54273,3TDXMTX3CHTK4DXEOC115423TLUI6T,AC8A4D77-3457-40EA-B70E-1FFF57E6474F,2023-09-27_08h10.52.260,WP_VExplicitOC_HL,2022.2.5,Win32,13.07787877,NA,NA,NA,NA,NA,NA,NA,NA,NA,NA,NA,62.23958333,2.4181,0,0,0,0,1,rest (looking at a fixed cross),001.png,NA,NA,NA,NA,NA,NA,NA,NA,NA,NA,NA,NA,NA,NA,NA,NA,NA,NA,NA,NA,NA,NA,NA,NA,NA,NA,NA,NA,NA,NA,NA,NA,NA,NA,NA,NA,NA,NA,NA
SUPAMT54273,3TDXMTX3CHTK4DXEOC115423TLUI6T,AC8A4D77-3457-40EA-B70E-1FFF57E6474F,2023-09-27_08h10.52.260,WP_VExplicitOC_HL,2022.2.5,Win32,13.07787877,NA,NA,NA,NA,NA,NA,NA,NA,NA,NA,NA,53.38541667,1.2127,0,1,1,1,1,stand up,002.png,NA,NA,NA,NA,NA,NA,NA,NA,NA,NA,NA,NA,NA,NA,NA,NA,NA,NA,NA,NA,NA,NA,NA,NA,NA,NA,NA,NA,NA,NA,NA,NA,NA,NA,NA,NA,NA,NA,NA
SUPAMT54273,3TDXMTX3CHTK4DXEOC115423TLUI6T,AC8A4D77-3457-40EA-B70E-1FFF57E6474F,2023-09-27_08h10.52.260,WP_VExplicitOC_HL,2022.2.5,Win32,13.07787877,NA,NA,NA,NA,NA,NA,NA,NA,NA,NA,NA,58.07291667,1.2611,0,2,2,2,1,stretch,003.png,NA,NA,NA,NA,NA,NA,NA,NA,NA,NA,NA,NA,NA,NA,NA,NA,NA,NA,NA,NA,NA,NA,NA,NA,NA,NA,NA,NA,NA,NA,NA,NA,NA,NA,NA,NA,NA,NA,NA
SUPAMT54273,3TDXMTX3CHTK4DXEOC115423TLUI6T,AC8A4D77-3457-40EA-B70E-1FFF57E6474F,2023-09-27_08h10.52.260,WP_VExplicitOC_HL,2022.2.5,Win32,13.07787877,NA,NA,NA,NA,NA,NA,NA,NA,NA,NA,NA,89.84375,1.1743,0,3,3,3,1,make a drink,004.png,NA,NA,NA,NA,NA,NA,NA,NA,NA,NA,NA,NA,NA,NA,NA,NA,NA,NA,NA,NA,NA,NA,NA,NA,NA,NA,NA,NA,NA,NA,NA,NA,NA,NA,NA,NA,NA,NA,NA
SUPAMT54273,3TDXMTX3CHTK4DXEOC115423TLUI6T,AC8A4D77-3457-40EA-B70E-1FFF57E6474F,2023-09-27_08h10.52.260,WP_VExplicitOC_HL,2022.2.5,Win32,13.07787877,NA,NA,NA,NA,NA,NA,NA,NA,NA,NA,NA,73.95833333,1.032,0,4,4,4,1,scroll social media,005.png,NA,NA,NA,NA,NA,NA,NA,NA,NA,NA,NA,NA,NA,NA,NA,NA,NA,NA,NA,NA,NA,NA,NA,NA,NA,NA,NA,NA,NA,NA,NA,NA,NA,NA,NA,NA,NA,NA,NA
SUPAMT54273,3TDXMTX3CHTK4DXEOC115423TLUI6T,AC8A4D77-3457-40EA-B70E-1FFF57E6474F,2023-09-27_08h10.52.260,WP_VExplicitOC_HL,2022.2.5,Win32,13.07787877,NA,NA,NA,NA,NA,NA,NA,NA,NA,NA,NA,100,1.0223,0,5,5,5,1,listen to music,006.png,NA,NA,NA,NA,NA,NA,NA,NA,NA,NA,NA,NA,NA,NA,NA,NA,NA,NA,NA,NA,NA,NA,NA,NA,NA,NA,NA,NA,NA,NA,NA,NA,NA,NA,NA,NA,NA,NA,NA
SUPAMT54273,3TDXMTX3CHTK4DXEOC115423TLUI6T,AC8A4D77-3457-40EA-B70E-1FFF57E6474F,2023-09-27_08h10.52.260,WP_VExplicitOC_HL,2022.2.5,Win32,13.07787877,NA,NA,NA,NA,NA,NA,NA,NA,NA,NA,NA,86.71875,1.1848,0,6,6,6,1,daydream,007.png,NA,NA,NA,NA,NA,NA,NA,NA,NA,NA,NA,NA,NA,NA,NA,NA,NA,NA,NA,NA,NA,NA,NA,NA,NA,NA,NA,NA,NA,NA,NA,NA,NA,NA,NA,NA,NA,NA,NA
SUPAMT54273,3TDXMTX3CHTK4DXEOC115423TLUI6T,AC8A4D77-3457-40EA-B70E-1FFF57E6474F,2023-09-27_08h10.52.260,WP_VExplicitOC_HL,2022.2.5,Win32,13.07787877,NA,NA,NA,NA,NA,NA,NA,NA,NA,NA,NA,89.84375,1.0807,0,7,7,7,1,watch a short animation,008.png,NA,NA,NA,NA,NA,NA,NA,NA,NA,NA,NA,NA,NA,NA,NA,NA,NA,NA,NA,NA,NA,NA,NA,NA,NA,NA,NA,NA,NA,NA,NA,NA,NA,NA,NA,NA,NA,NA,NA
SUPAMT54273,3TDXMTX3CHTK4DXEOC115423TLUI6T,AC8A4D77-3457-40EA-B70E-1FFF57E6474F,2023-09-27_08h10.52.260,WP_VExplicitOC_HL,2022.2.5,Win32,13.07787877,NA,NA,NA,NA,NA,NA,NA,NA,NA,NA,NA,100,1.0864,0,8,8,8,1,read a novel,009.png,NA,NA,NA,NA,NA,NA,NA,NA,NA,NA,NA,NA,NA,NA,NA,NA,NA,NA,NA,NA,NA,NA,NA,NA,NA,NA,NA,NA,NA,NA,NA,NA,NA,NA,NA,NA,NA,NA,NA
SUPAMT54273,3TDXMTX3CHTK4DXEOC115423TLUI6T,AC8A4D77-3457-40EA-B70E-1FFF57E6474F,2023-09-27_08h10.52.260,WP_VExplicitOC_HL,2022.2.5,Win32,13.07787877,NA,NA,NA,NA,NA,NA,NA,NA,NA,NA,NA,91.92708333,1.2414,0,9,9,9,1,read the news,010.png,NA,NA,NA,NA,NA,NA,NA,NA,NA,NA,NA,NA,NA,NA,NA,NA,NA,NA,NA,NA,NA,NA,NA,NA,NA,NA,NA,NA,NA,NA,NA,NA,NA,NA,NA,NA,NA,NA,NA
SUPAMT54273,3TDXMTX3CHTK4DXEOC115423TLUI6T,AC8A4D77-3457-40EA-B70E-1FFF57E6474F,2023-09-27_08h10.52.260,WP_VExplicitOC_HL,2022.2.5,Win32,13.07787877,NA,NA,NA,NA,NA,NA,NA,NA,NA,NA,NA,NA,NA,NA,NA,NA,NA,NA,NA,NA,NA,NA,NA,NA,NA,NA,NA,NA,NA,NA,NA,NA,NA,NA,NA,NA,NA,NA,NA,NA,NA,NA,NA,NA,NA,NA,NA,NA,NA,NA,NA,NA,NA,NA,NA,NA,NA,NA,NA
SUPAMT54273,3TDXMTX3CHTK4DXEOC115423TLUI6T,AC8A4D77-3457-40EA-B70E-1FFF57E6474F,2023-09-27_08h10.52.260,WP_VExplicitOC_HL,2022.2.5,Win32,13.07787877,NA,NA,NA,NA,NA,NA,NA,NA,NA,NA,NA,NA,NA,NA,NA,NA,NA,NA,NA,NA,listen to music,NA,NA,NA,NA,NA,NA,NA,NA,NA,NA,NA,NA,NA,NA,NA,NA,NA,NA,NA,NA,NA,NA,NA,NA,NA,NA,NA,NA,NA,NA,NA,NA,NA,NA,NA,NA,NA,NA
SUPAMT54273,3TDXMTX3CHTK4DXEOC115423TLUI6T,AC8A4D77-3457-40EA-B70E-1FFF57E6474F,2023-09-27_08h10.52.260,WP_VExplicitOC_HL,2022.2.5,Win32,13.07787877,2.604166667,2.3496,2.0046,NA,NA,NA,NA,NA,bored,"bored, not bored","more bored, less bored",NA,NA,NA,NA,NA,NA,NA,NA,NA,NA,0,0,0,2,1,NA,NA,NA,NA,NA,NA,NA,NA,NA,NA,NA,NA,NA,NA,NA,NA,NA,NA,NA,NA,NA,NA,NA,NA,NA,NA,NA,NA,NA,NA,NA,NA,NA
SUPAMT54273,3TDXMTX3CHTK4DXEOC115423TLUI6T,AC8A4D77-3457-40EA-B70E-1FFF57E6474F,2023-09-27_08h10.52.260,WP_VExplicitOC_HL,2022.2.5,Win32,13.07787877,94.53125,3.301,2.0795,NA,NA,NA,NA,NA,happy,"unhappy, happy","less happy, more happy",NA,NA,NA,NA,NA,NA,NA,NA,NA,NA,0,1,1,0,1,NA,NA,NA,NA,NA,NA,NA,NA,NA,NA,NA,NA,NA,NA,NA,NA,NA,NA,NA,NA,NA,NA,NA,NA,NA,NA,NA,NA,NA,NA,NA,NA,NA
SUPAMT54273,3TDXMTX3CHTK4DXEOC115423TLUI6T,AC8A4D77-3457-40EA-B70E-1FFF57E6474F,2023-09-27_08h10.52.260,WP_VExplicitOC_HL,2022.2.5,Win32,13.07787877,72.39583333,3.2586,2.0904,NA,NA,NA,NA,NA,frustrated,"frustrated, not frustrated","more frustrated, less frustrated",NA,NA,NA,NA,NA,NA,NA,NA,NA,NA,0,2,2,1,1,NA,NA,NA,NA,NA,NA,NA,NA,NA,NA,NA,NA,NA,NA,NA,NA,NA,NA,NA,NA,NA,NA,NA,NA,NA,NA,NA,NA,NA,NA,NA,NA,NA
SUPAMT54273,3TDXMTX3CHTK4DXEOC115423TLUI6T,AC8A4D77-3457-40EA-B70E-1FFF57E6474F,2023-09-27_08h10.52.260,WP_VExplicitOC_HL,2022.2.5,Win32,13.07787877,NA,NA,NA,NA,NA,NA,NA,NA,NA,NA,NA,NA,NA,NA,NA,NA,NA,NA,NA,NA,NA,NA,NA,NA,NA,NA,NA,NA,NA,NA,NA,NA,NA,NA,NA,NA,NA,NA,NA,NA,NA,NA,NA,NA,NA,NA,NA,NA,NA,NA,NA,NA,NA,NA,NA,NA,NA,NA,NA
SUPAMT54273,3TDXMTX3CHTK4DXEOC115423TLUI6T,AC8A4D77-3457-40EA-B70E-1FFF57E6474F,2023-09-27_08h10.52.260,WP_VExplicitOC_HL,2022.2.5,Win32,13.07787877,NA,NA,NA,NA,NA,NA,NA,NA,NA,NA,NA,NA,NA,NA,NA,NA,NA,NA,NA,NA,NA,NA,NA,NA,NA,NA,NA,NA,NA,NA,NA,NA,NA,NA,NA,NA,NA,NA,NA,NA,NA,NA,NA,NA,NA,NA,NA,NA,NA,NA,NA,NA,NA,NA,NA,NA,NA,NA,NA
SUPAMT54273,3TDXMTX3CHTK4DXEOC115423TLUI6T,AC8A4D77-3457-40EA-B70E-1FFF57E6474F,2023-09-27_08h10.52.260,WP_VExplicitOC_HL,2022.2.5,Win32,13.07787877,6.510416667,2.7271,2.0846,NA,NA,NA,NA,NA,frustrated,"frustrated, not frustrated","more frustrated, less frustrated",NA,NA,NA,NA,NA,NA,NA,NA,NA,NA,NA,NA,NA,NA,NA,0,0,0,1,1,NA,NA,NA,NA,NA,NA,NA,NA,NA,NA,NA,NA,NA,NA,NA,NA,NA,NA,NA,NA,NA,NA,NA,NA,NA,NA,NA,NA
SUPAMT54273,3TDXMTX3CHTK4DXEOC115423TLUI6T,AC8A4D77-3457-40EA-B70E-1FFF57E6474F,2023-09-27_08h10.52.260,WP_VExplicitOC_HL,2022.2.5,Win32,13.07787877,73.95833333,3.3308,2.0963,NA,NA,NA,NA,NA,bored,"bored, not bored","more bored, less bored",NA,NA,NA,NA,NA,NA,NA,NA,NA,NA,NA,NA,NA,NA,NA,0,1,1,2,1,NA,NA,NA,NA,NA,NA,NA,NA,NA,NA,NA,NA,NA,NA,NA,NA,NA,NA,NA,NA,NA,NA,NA,NA,NA,NA,NA,NA
SUPAMT54273,3TDXMTX3CHTK4DXEOC115423TLUI6T,AC8A4D77-3457-40EA-B70E-1FFF57E6474F,2023-09-27_08h10.52.260,WP_VExplicitOC_HL,2022.2.5,Win32,13.07787877,57.03125,3.4992,2.086,NA,NA,NA,NA,NA,happy,"unhappy, happy","less happy, more happy",NA,NA,NA,NA,NA,NA,NA,NA,NA,NA,NA,NA,NA,NA,NA,0,2,2,0,1,NA,NA,NA,NA,NA,NA,NA,NA,NA,NA,NA,NA,NA,NA,NA,NA,NA,NA,NA,NA,NA,NA,NA,NA,NA,NA,NA,NA
SUPAMT54273,3TDXMTX3CHTK4DXEOC115423TLUI6T,AC8A4D77-3457-40EA-B70E-1FFF57E6474F,2023-09-27_08h10.52.260,WP_VExplicitOC_HL,2022.2.5,Win32,13.07787877,NA,NA,NA,NA,NA,NA,NA,NA,NA,NA,NA,NA,NA,NA,NA,NA,NA,NA,NA,NA,NA,NA,NA,NA,NA,NA,NA,NA,NA,NA,NA,0,0,0,0,1,NA,NA,NA,NA,NA,NA,NA,NA,NA,NA,NA,NA,NA,NA,NA,NA,NA,NA,NA,NA,NA,NA,NA
SUPAMT54273,3TDXMTX3CHTK4DXEOC115423TLUI6T,AC8A4D77-3457-40EA-B70E-1FFF57E6474F,2023-09-27_08h10.52.260,WP_VExplicitOC_HL,2022.2.5,Win32,13.07787877,83.07291667,3.5011,2.0536,NA,NA,NA,NA,NA,bored,"bored, not bored","more bored, less bored",NA,NA,NA,NA,NA,NA,NA,NA,NA,NA,NA,NA,NA,NA,NA,0,0,0,2,1,NA,NA,NA,NA,NA,NA,NA,NA,NA,NA,NA,NA,NA,NA,NA,NA,NA,NA,NA,NA,NA,NA,NA,NA,NA,NA,NA,NA
SUPAMT54273,3TDXMTX3CHTK4DXEOC115423TLUI6T,AC8A4D77-3457-40EA-B70E-1FFF57E6474F,2023-09-27_08h10.52.260,WP_VExplicitOC_HL,2022.2.5,Win32,13.07787877,61.45833333,3.2259,2.0857,NA,NA,NA,NA,NA,happy,"unhappy, happy","less happy, more happy",NA,NA,NA,NA,NA,NA,NA,NA,NA,NA,NA,NA,NA,NA,NA,0,1,1,0,1,NA,NA,NA,NA,NA,NA,NA,NA,NA,NA,NA,NA,NA,NA,NA,NA,NA,NA,NA,NA,NA,NA,NA,NA,NA,NA,NA,NA
SUPAMT54273,3TDXMTX3CHTK4DXEOC115423TLUI6T,AC8A4D77-3457-40EA-B70E-1FFF57E6474F,2023-09-27_08h10.52.260,WP_VExplicitOC_HL,2022.2.5,Win32,13.07787877,60.41666667,3.6052,2.0909,NA,NA,NA,NA,NA,frustrated,"frustrated, not frustrated","more frustrated, less frustrated",NA,NA,NA,NA,NA,NA,NA,NA,NA,NA,NA,NA,NA,NA,NA,0,2,2,1,1,NA,NA,NA,NA,NA,NA,NA,NA,NA,NA,NA,NA,NA,NA,NA,NA,NA,NA,NA,NA,NA,NA,NA,NA,NA,NA,NA,NA
SUPAMT54273,3TDXMTX3CHTK4DXEOC115423TLUI6T,AC8A4D77-3457-40EA-B70E-1FFF57E6474F,2023-09-27_08h10.52.260,WP_VExplicitOC_HL,2022.2.5,Win32,13.07787877,NA,NA,NA,NA,NA,NA,NA,NA,NA,NA,NA,NA,NA,NA,NA,NA,NA,NA,NA,NA,NA,NA,NA,NA,NA,NA,NA,NA,NA,NA,NA,1,0,1,0,1,NA,NA,NA,NA,NA,NA,NA,NA,NA,NA,NA,NA,NA,NA,NA,NA,NA,NA,NA,NA,NA,NA,NA
SUPAMT54273,3TDXMTX3CHTK4DXEOC115423TLUI6T,AC8A4D77-3457-40EA-B70E-1FFF57E6474F,2023-09-27_08h10.52.260,WP_VExplicitOC_HL,2022.2.5,Win32,13.07787877,61.97916667,3.5184,2.025,NA,NA,NA,NA,NA,happy,"unhappy, happy","less happy, more happy",NA,NA,NA,NA,NA,NA,NA,NA,NA,NA,NA,NA,NA,NA,NA,0,0,0,0,1,NA,NA,NA,NA,NA,NA,NA,NA,NA,NA,NA,NA,NA,NA,NA,NA,NA,NA,NA,NA,NA,NA,NA,NA,NA,NA,NA,NA
SUPAMT54273,3TDXMTX3CHTK4DXEOC115423TLUI6T,AC8A4D77-3457-40EA-B70E-1FFF57E6474F,2023-09-27_08h10.52.260,WP_VExplicitOC_HL,2022.2.5,Win32,13.07787877,95.57291667,3.0711,2.0278,NA,NA,NA,NA,NA,bored,"bored, not bored","more bored, less bored",NA,NA,NA,NA,NA,NA,NA,NA,NA,NA,NA,NA,NA,NA,NA,0,1,1,2,1,NA,NA,NA,NA,NA,NA,NA,NA,NA,NA,NA,NA,NA,NA,NA,NA,NA,NA,NA,NA,NA,NA,NA,NA,NA,NA,NA,NA
SUPAMT54273,3TDXMTX3CHTK4DXEOC115423TLUI6T,AC8A4D77-3457-40EA-B70E-1FFF57E6474F,2023-09-27_08h10.52.260,WP_VExplicitOC_HL,2022.2.5,Win32,13.07787877,78.64583333,3.1719,2.0503,NA,NA,NA,NA,NA,frustrated,"frustrated, not frustrated","more frustrated, less frustrated",NA,NA,NA,NA,NA,NA,NA,NA,NA,NA,NA,NA,NA,NA,NA,0,2,2,1,1,NA,NA,NA,NA,NA,NA,NA,NA,NA,NA,NA,NA,NA,NA,NA,NA,NA,NA,NA,NA,NA,NA,NA,NA,NA,NA,NA,NA
SUPAMT54273,3TDXMTX3CHTK4DXEOC115423TLUI6T,AC8A4D77-3457-40EA-B70E-1FFF57E6474F,2023-09-27_08h10.52.260,WP_VExplicitOC_HL,2022.2.5,Win32,13.07787877,NA,NA,NA,NA,NA,NA,NA,NA,NA,NA,NA,NA,NA,NA,NA,NA,NA,NA,NA,NA,NA,NA,NA,NA,NA,NA,NA,NA,NA,NA,NA,2,0,2,0,1,NA,NA,NA,NA,NA,NA,NA,NA,NA,NA,NA,NA,NA,NA,NA,NA,NA,NA,NA,NA,NA,NA,NA
SUPAMT54273,3TDXMTX3CHTK4DXEOC115423TLUI6T,AC8A4D77-3457-40EA-B70E-1FFF57E6474F,2023-09-27_08h10.52.260,WP_VExplicitOC_HL,2022.2.5,Win32,13.07787877,83.59375,4.5397,2.0629,NA,NA,NA,NA,NA,frustrated,"frustrated, not frustrated","more frustrated, less frustrated",NA,NA,NA,NA,NA,NA,NA,NA,NA,NA,NA,NA,NA,NA,NA,0,0,0,1,1,NA,NA,NA,NA,NA,NA,NA,NA,NA,NA,NA,NA,NA,NA,NA,NA,NA,NA,NA,NA,NA,NA,NA,NA,NA,NA,NA,NA
SUPAMT54273,3TDXMTX3CHTK4DXEOC115423TLUI6T,AC8A4D77-3457-40EA-B70E-1FFF57E6474F,2023-09-27_08h10.52.260,WP_VExplicitOC_HL,2022.2.5,Win32,13.07787877,100,3.1349,2.0379,NA,NA,NA,NA,NA,happy,"unhappy, happy","less happy, more happy",NA,NA,NA,NA,NA,NA,NA,NA,NA,NA,NA,NA,NA,NA,NA,0,1,1,0,1,NA,NA,NA,NA,NA,NA,NA,NA,NA,NA,NA,NA,NA,NA,NA,NA,NA,NA,NA,NA,NA,NA,NA,NA,NA,NA,NA,NA
SUPAMT54273,3TDXMTX3CHTK4DXEOC115423TLUI6T,AC8A4D77-3457-40EA-B70E-1FFF57E6474F,2023-09-27_08h10.52.260,WP_VExplicitOC_HL,2022.2.5,Win32,13.07787877,66.40625,3.2977,2.0817,NA,NA,NA,NA,NA,bored,"bored, not bored","more bored, less bored",NA,NA,NA,NA,NA,NA,NA,NA,NA,NA,NA,NA,NA,NA,NA,0,2,2,2,1,NA,NA,NA,NA,NA,NA,NA,NA,NA,NA,NA,NA,NA,NA,NA,NA,NA,NA,NA,NA,NA,NA,NA,NA,NA,NA,NA,NA
SUPAMT54273,3TDXMTX3CHTK4DXEOC115423TLUI6T,AC8A4D77-3457-40EA-B70E-1FFF57E6474F,2023-09-27_08h10.52.260,WP_VExplicitOC_HL,2022.2.5,Win32,13.07787877,NA,NA,NA,NA,NA,NA,NA,NA,NA,NA,NA,NA,NA,NA,NA,NA,NA,NA,NA,NA,NA,NA,NA,NA,NA,NA,NA,NA,NA,NA,NA,3,0,3,0,1,NA,NA,NA,NA,NA,NA,NA,NA,NA,NA,NA,NA,NA,NA,NA,NA,NA,NA,NA,NA,NA,NA,NA
SUPAMT54273,3TDXMTX3CHTK4DXEOC115423TLUI6T,AC8A4D77-3457-40EA-B70E-1FFF57E6474F,2023-09-27_08h10.52.260,WP_VExplicitOC_HL,2022.2.5,Win32,13.07787877,51.04166667,3.3949,2.0274,NA,NA,NA,NA,NA,frustrated,"frustrated, not frustrated","more frustrated, less frustrated",NA,NA,NA,NA,NA,NA,NA,NA,NA,NA,NA,NA,NA,NA,NA,0,0,0,1,1,NA,NA,NA,NA,NA,NA,NA,NA,NA,NA,NA,NA,NA,NA,NA,NA,NA,NA,NA,NA,NA,NA,NA,NA,NA,NA,NA,NA
SUPAMT54273,3TDXMTX3CHTK4DXEOC115423TLUI6T,AC8A4D77-3457-40EA-B70E-1FFF57E6474F,2023-09-27_08h10.52.260,WP_VExplicitOC_HL,2022.2.5,Win32,13.07787877,70.57291667,3.6782,2.0494,NA,NA,NA,NA,NA,happy,"unhappy, happy","less happy, more happy",NA,NA,NA,NA,NA,NA,NA,NA,NA,NA,NA,NA,NA,NA,NA,0,1,1,0,1,NA,NA,NA,NA,NA,NA,NA,NA,NA,NA,NA,NA,NA,NA,NA,NA,NA,NA,NA,NA,NA,NA,NA,NA,NA,NA,NA,NA
SUPAMT54273,3TDXMTX3CHTK4DXEOC115423TLUI6T,AC8A4D77-3457-40EA-B70E-1FFF57E6474F,2023-09-27_08h10.52.260,WP_VExplicitOC_HL,2022.2.5,Win32,13.07787877,79.94791667,3.4098,2.0433,NA,NA,NA,NA,NA,bored,"bored, not bored","more bored, less bored",NA,NA,NA,NA,NA,NA,NA,NA,NA,NA,NA,NA,NA,NA,NA,0,2,2,2,1,NA,NA,NA,NA,NA,NA,NA,NA,NA,NA,NA,NA,NA,NA,NA,NA,NA,NA,NA,NA,NA,NA,NA,NA,NA,NA,NA,NA
SUPAMT54273,3TDXMTX3CHTK4DXEOC115423TLUI6T,AC8A4D77-3457-40EA-B70E-1FFF57E6474F,2023-09-27_08h10.52.260,WP_VExplicitOC_HL,2022.2.5,Win32,13.07787877,NA,NA,NA,NA,NA,NA,NA,NA,NA,NA,NA,NA,NA,NA,NA,NA,NA,NA,NA,NA,NA,NA,NA,NA,NA,NA,NA,NA,NA,NA,NA,4,0,4,0,1,NA,NA,NA,NA,NA,NA,NA,NA,NA,NA,NA,NA,NA,NA,NA,NA,NA,NA,NA,NA,NA,NA,NA
SUPAMT54273,3TDXMTX3CHTK4DXEOC115423TLUI6T,AC8A4D77-3457-40EA-B70E-1FFF57E6474F,2023-09-27_08h10.52.260,WP_VExplicitOC_HL,2022.2.5,Win32,13.07787877,78.64583333,3.4993,2.0451,NA,NA,NA,NA,NA,bored,"bored, not bored","more bored, less bored",NA,NA,NA,NA,NA,NA,NA,NA,NA,NA,NA,NA,NA,NA,NA,0,0,0,2,1,NA,NA,NA,NA,NA,NA,NA,NA,NA,NA,NA,NA,NA,NA,NA,NA,NA,NA,NA,NA,NA,NA,NA,NA,NA,NA,NA,NA
SUPAMT54273,3TDXMTX3CHTK4DXEOC115423TLUI6T,AC8A4D77-3457-40EA-B70E-1FFF57E6474F,2023-09-27_08h10.52.260,WP_VExplicitOC_HL,2022.2.5,Win32,13.07787877,55.46875,3.5241,2.085,NA,NA,NA,NA,NA,frustrated,"frustrated, not frustrated","more frustrated, less frustrated",NA,NA,NA,NA,NA,NA,NA,NA,NA,NA,NA,NA,NA,NA,NA,0,1,1,1,1,NA,NA,NA,NA,NA,NA,NA,NA,NA,NA,NA,NA,NA,NA,NA,NA,NA,NA,NA,NA,NA,NA,NA,NA,NA,NA,NA,NA
SUPAMT54273,3TDXMTX3CHTK4DXEOC115423TLUI6T,AC8A4D77-3457-40EA-B70E-1FFF57E6474F,2023-09-27_08h10.52.260,WP_VExplicitOC_HL,2022.2.5,Win32,13.07787877,53.90625,3.476,2.0848,NA,NA,NA,NA,NA,happy,"unhappy, happy","less happy, more happy",NA,NA,NA,NA,NA,NA,NA,NA,NA,NA,NA,NA,NA,NA,NA,0,2,2,0,1,NA,NA,NA,NA,NA,NA,NA,NA,NA,NA,NA,NA,NA,NA,NA,NA,NA,NA,NA,NA,NA,NA,NA,NA,NA,NA,NA,NA
SUPAMT54273,3TDXMTX3CHTK4DXEOC115423TLUI6T,AC8A4D77-3457-40EA-B70E-1FFF57E6474F,2023-09-27_08h10.52.260,WP_VExplicitOC_HL,2022.2.5,Win32,13.07787877,NA,NA,NA,NA,NA,NA,NA,NA,NA,NA,NA,NA,NA,NA,NA,NA,NA,NA,NA,NA,NA,NA,NA,NA,NA,NA,NA,NA,NA,NA,NA,5,0,5,0,1,NA,NA,NA,NA,NA,NA,NA,NA,NA,NA,NA,NA,NA,NA,NA,NA,NA,NA,NA,NA,NA,NA,NA
SUPAMT54273,3TDXMTX3CHTK4DXEOC115423TLUI6T,AC8A4D77-3457-40EA-B70E-1FFF57E6474F,2023-09-27_08h10.52.260,WP_VExplicitOC_HL,2022.2.5,Win32,13.07787877,85.41666667,3.5928,2.0517,NA,NA,NA,NA,NA,bored,"bored, not bored","more bored, less bored",NA,NA,NA,NA,NA,NA,NA,NA,NA,NA,NA,NA,NA,NA,NA,0,0,0,2,1,NA,NA,NA,NA,NA,NA,NA,NA,NA,NA,NA,NA,NA,NA,NA,NA,NA,NA,NA,NA,NA,NA,NA,NA,NA,NA,NA,NA
SUPAMT54273,3TDXMTX3CHTK4DXEOC115423TLUI6T,AC8A4D77-3457-40EA-B70E-1FFF57E6474F,2023-09-27_08h10.52.260,WP_VExplicitOC_HL,2022.2.5,Win32,13.07787877,74.73958333,3.3568,2.0419,NA,NA,NA,NA,NA,happy,"unhappy, happy","less happy, more happy",NA,NA,NA,NA,NA,NA,NA,NA,NA,NA,NA,NA,NA,NA,NA,0,1,1,0,1,NA,NA,NA,NA,NA,NA,NA,NA,NA,NA,NA,NA,NA,NA,NA,NA,NA,NA,NA,NA,NA,NA,NA,NA,NA,NA,NA,NA
SUPAMT54273,3TDXMTX3CHTK4DXEOC115423TLUI6T,AC8A4D77-3457-40EA-B70E-1FFF57E6474F,2023-09-27_08h10.52.260,WP_VExplicitOC_HL,2022.2.5,Win32,13.07787877,76.5625,3.2477,2.1087,NA,NA,NA,NA,NA,frustrated,"frustrated, not frustrated","more frustrated, less frustrated",NA,NA,NA,NA,NA,NA,NA,NA,NA,NA,NA,NA,NA,NA,NA,0,2,2,1,1,NA,NA,NA,NA,NA,NA,NA,NA,NA,NA,NA,NA,NA,NA,NA,NA,NA,NA,NA,NA,NA,NA,NA,NA,NA,NA,NA,NA
SUPAMT54273,3TDXMTX3CHTK4DXEOC115423TLUI6T,AC8A4D77-3457-40EA-B70E-1FFF57E6474F,2023-09-27_08h10.52.260,WP_VExplicitOC_HL,2022.2.5,Win32,13.07787877,NA,NA,NA,NA,NA,NA,NA,NA,NA,NA,NA,NA,NA,NA,NA,NA,NA,NA,NA,NA,NA,NA,NA,NA,NA,NA,NA,NA,NA,NA,NA,6,0,6,0,1,NA,NA,NA,NA,NA,NA,NA,NA,NA,NA,NA,NA,NA,NA,NA,NA,NA,NA,NA,NA,NA,NA,NA
SUPAMT54273,3TDXMTX3CHTK4DXEOC115423TLUI6T,AC8A4D77-3457-40EA-B70E-1FFF57E6474F,2023-09-27_08h10.52.260,WP_VExplicitOC_HL,2022.2.5,Win32,13.07787877,5.46875,2.4044,2.0966,NA,NA,NA,NA,NA,happy,"unhappy, happy","less happy, more happy",NA,NA,NA,NA,NA,NA,NA,NA,NA,NA,NA,NA,NA,NA,NA,0,0,0,0,1,NA,NA,NA,NA,NA,NA,NA,NA,NA,NA,NA,NA,NA,NA,NA,NA,NA,NA,NA,NA,NA,NA,NA,NA,NA,NA,NA,NA
SUPAMT54273,3TDXMTX3CHTK4DXEOC115423TLUI6T,AC8A4D77-3457-40EA-B70E-1FFF57E6474F,2023-09-27_08h10.52.260,WP_VExplicitOC_HL,2022.2.5,Win32,13.07787877,84.63541667,3.1308,2.035,NA,NA,NA,NA,NA,bored,"bored, not bored","more bored, less bored",NA,NA,NA,NA,NA,NA,NA,NA,NA,NA,NA,NA,NA,NA,NA,0,1,1,2,1,NA,NA,NA,NA,NA,NA,NA,NA,NA,NA,NA,NA,NA,NA,NA,NA,NA,NA,NA,NA,NA,NA,NA,NA,NA,NA,NA,NA
SUPAMT54273,3TDXMTX3CHTK4DXEOC115423TLUI6T,AC8A4D77-3457-40EA-B70E-1FFF57E6474F,2023-09-27_08h10.52.260,WP_VExplicitOC_HL,2022.2.5,Win32,13.07787877,78.125,3.85,2.0925,NA,NA,NA,NA,NA,frustrated,"frustrated, not frustrated","more frustrated, less frustrated",NA,NA,NA,NA,NA,NA,NA,NA,NA,NA,NA,NA,NA,NA,NA,0,2,2,1,1,NA,NA,NA,NA,NA,NA,NA,NA,NA,NA,NA,NA,NA,NA,NA,NA,NA,NA,NA,NA,NA,NA,NA,NA,NA,NA,NA,NA
SUPAMT54273,3TDXMTX3CHTK4DXEOC115423TLUI6T,AC8A4D77-3457-40EA-B70E-1FFF57E6474F,2023-09-27_08h10.52.260,WP_VExplicitOC_HL,2022.2.5,Win32,13.07787877,NA,NA,NA,NA,NA,NA,NA,NA,NA,NA,NA,NA,NA,NA,NA,NA,NA,NA,NA,NA,NA,NA,NA,NA,NA,NA,NA,NA,NA,NA,NA,7,0,7,0,1,NA,NA,NA,NA,NA,NA,NA,NA,NA,NA,NA,NA,NA,NA,NA,NA,NA,NA,NA,NA,NA,NA,NA
SUPAMT54273,3TDXMTX3CHTK4DXEOC115423TLUI6T,AC8A4D77-3457-40EA-B70E-1FFF57E6474F,2023-09-27_08h10.52.260,WP_VExplicitOC_HL,2022.2.5,Win32,13.07787877,54.94791667,3.784,2.0454,NA,NA,NA,NA,NA,happy,"unhappy, happy","less happy, more happy",NA,NA,NA,NA,NA,NA,NA,NA,NA,NA,NA,NA,NA,NA,NA,0,0,0,0,1,NA,NA,NA,NA,NA,NA,NA,NA,NA,NA,NA,NA,NA,NA,NA,NA,NA,NA,NA,NA,NA,NA,NA,NA,NA,NA,NA,NA
SUPAMT54273,3TDXMTX3CHTK4DXEOC115423TLUI6T,AC8A4D77-3457-40EA-B70E-1FFF57E6474F,2023-09-27_08h10.52.260,WP_VExplicitOC_HL,2022.2.5,Win32,13.07787877,48.4375,3.1596,2.0838,NA,NA,NA,NA,NA,bored,"bored, not bored","more bored, less bored",NA,NA,NA,NA,NA,NA,NA,NA,NA,NA,NA,NA,NA,NA,NA,0,1,1,2,1,NA,NA,NA,NA,NA,NA,NA,NA,NA,NA,NA,NA,NA,NA,NA,NA,NA,NA,NA,NA,NA,NA,NA,NA,NA,NA,NA,NA
SUPAMT54273,3TDXMTX3CHTK4DXEOC115423TLUI6T,AC8A4D77-3457-40EA-B70E-1FFF57E6474F,2023-09-27_08h10.52.260,WP_VExplicitOC_HL,2022.2.5,Win32,13.07787877,45.05208333,6.0268,2.0583,NA,NA,NA,NA,NA,frustrated,"frustrated, not frustrated","more frustrated, less frustrated",NA,NA,NA,NA,NA,NA,NA,NA,NA,NA,NA,NA,NA,NA,NA,0,2,2,1,1,NA,NA,NA,NA,NA,NA,NA,NA,NA,NA,NA,NA,NA,NA,NA,NA,NA,NA,NA,NA,NA,NA,NA,NA,NA,NA,NA,NA
SUPAMT54273,3TDXMTX3CHTK4DXEOC115423TLUI6T,AC8A4D77-3457-40EA-B70E-1FFF57E6474F,2023-09-27_08h10.52.260,WP_VExplicitOC_HL,2022.2.5,Win32,13.07787877,NA,NA,NA,NA,NA,NA,NA,NA,NA,NA,NA,NA,NA,NA,NA,NA,NA,NA,NA,NA,NA,NA,NA,NA,NA,NA,NA,NA,NA,NA,NA,8,0,8,0,1,NA,NA,NA,NA,NA,NA,NA,NA,NA,NA,NA,NA,NA,NA,NA,NA,NA,NA,NA,NA,NA,NA,NA
SUPAMT54273,3TDXMTX3CHTK4DXEOC115423TLUI6T,AC8A4D77-3457-40EA-B70E-1FFF57E6474F,2023-09-27_08h10.52.260,WP_VExplicitOC_HL,2022.2.5,Win32,13.07787877,61.45833333,4.5735,2.0038,NA,NA,NA,NA,NA,frustrated,"frustrated, not frustrated","more frustrated, less frustrated",NA,NA,NA,NA,NA,NA,NA,NA,NA,NA,NA,NA,NA,NA,NA,0,0,0,1,1,NA,NA,NA,NA,NA,NA,NA,NA,NA,NA,NA,NA,NA,NA,NA,NA,NA,NA,NA,NA,NA,NA,NA,NA,NA,NA,NA,NA
SUPAMT54273,3TDXMTX3CHTK4DXEOC115423TLUI6T,AC8A4D77-3457-40EA-B70E-1FFF57E6474F,2023-09-27_08h10.52.260,WP_VExplicitOC_HL,2022.2.5,Win32,13.07787877,61.45833333,3.424,2.0724,NA,NA,NA,NA,NA,bored,"bored, not bored","more bored, less bored",NA,NA,NA,NA,NA,NA,NA,NA,NA,NA,NA,NA,NA,NA,NA,0,1,1,2,1,NA,NA,NA,NA,NA,NA,NA,NA,NA,NA,NA,NA,NA,NA,NA,NA,NA,NA,NA,NA,NA,NA,NA,NA,NA,NA,NA,NA
SUPAMT54273,3TDXMTX3CHTK4DXEOC115423TLUI6T,AC8A4D77-3457-40EA-B70E-1FFF57E6474F,2023-09-27_08h10.52.260,WP_VExplicitOC_HL,2022.2.5,Win32,13.07787877,NA,NA,2.0955,NA,NA,NA,NA,NA,happy,"unhappy, happy","less happy, more happy",NA,NA,NA,NA,NA,NA,NA,NA,NA,NA,NA,NA,NA,NA,NA,0,2,2,0,1,NA,NA,NA,NA,NA,NA,NA,NA,NA,NA,NA,NA,NA,NA,NA,NA,NA,NA,NA,NA,NA,NA,NA,NA,NA,NA,NA,NA
SUPAMT54273,3TDXMTX3CHTK4DXEOC115423TLUI6T,AC8A4D77-3457-40EA-B70E-1FFF57E6474F,2023-09-27_08h10.52.260,WP_VExplicitOC_HL,2022.2.5,Win32,13.07787877,NA,NA,NA,NA,NA,NA,NA,NA,NA,NA,NA,NA,NA,NA,NA,NA,NA,NA,NA,NA,NA,NA,NA,NA,NA,NA,NA,NA,NA,NA,NA,9,0,9,0,1,NA,NA,NA,NA,NA,NA,NA,NA,NA,NA,NA,NA,NA,NA,NA,NA,NA,NA,NA,NA,NA,NA,NA
SUPAMT54273,3TDXMTX3CHTK4DXEOC115423TLUI6T,AC8A4D77-3457-40EA-B70E-1FFF57E6474F,2023-09-27_08h10.52.260,WP_VExplicitOC_HL,2022.2.5,Win32,13.07787877,35.41666667,3.5328,2.0632,NA,NA,NA,NA,NA,happy,"unhappy, happy","less happy, more happy",NA,NA,NA,NA,NA,NA,NA,NA,NA,NA,NA,NA,NA,NA,NA,0,0,0,0,1,NA,NA,NA,NA,NA,NA,NA,NA,NA,NA,NA,NA,NA,NA,NA,NA,NA,NA,NA,NA,NA,NA,NA,NA,NA,NA,NA,NA
SUPAMT54273,3TDXMTX3CHTK4DXEOC115423TLUI6T,AC8A4D77-3457-40EA-B70E-1FFF57E6474F,2023-09-27_08h10.52.260,WP_VExplicitOC_HL,2022.2.5,Win32,13.07787877,87.5,3.2535,2.0869,NA,NA,NA,NA,NA,bored,"bored, not bored","more bored, less bored",NA,NA,NA,NA,NA,NA,NA,NA,NA,NA,NA,NA,NA,NA,NA,0,1,1,2,1,NA,NA,NA,NA,NA,NA,NA,NA,NA,NA,NA,NA,NA,NA,NA,NA,NA,NA,NA,NA,NA,NA,NA,NA,NA,NA,NA,NA
SUPAMT54273,3TDXMTX3CHTK4DXEOC115423TLUI6T,AC8A4D77-3457-40EA-B70E-1FFF57E6474F,2023-09-27_08h10.52.260,WP_VExplicitOC_HL,2022.2.5,Win32,13.07787877,49.21875,3.7045,2.0285,NA,NA,NA,NA,NA,frustrated,"frustrated, not frustrated","more frustrated, less frustrated",NA,NA,NA,NA,NA,NA,NA,NA,NA,NA,NA,NA,NA,NA,NA,0,2,2,1,1,NA,NA,NA,NA,NA,NA,NA,NA,NA,NA,NA,NA,NA,NA,NA,NA,NA,NA,NA,NA,NA,NA,NA,NA,NA,NA,NA,NA
SUPAMT54273,3TDXMTX3CHTK4DXEOC115423TLUI6T,AC8A4D77-3457-40EA-B70E-1FFF57E6474F,2023-09-27_08h10.52.260,WP_VExplicitOC_HL,2022.2.5,Win32,13.07787877,NA,NA,NA,NA,NA,NA,NA,NA,NA,NA,NA,NA,NA,NA,NA,NA,NA,NA,NA,NA,NA,NA,NA,NA,NA,NA,NA,NA,NA,NA,NA,10,0,10,0,1,NA,NA,NA,NA,NA,NA,NA,NA,NA,NA,NA,NA,NA,NA,NA,NA,NA,NA,NA,NA,NA,NA,NA
SUPAMT54273,3TDXMTX3CHTK4DXEOC115423TLUI6T,AC8A4D77-3457-40EA-B70E-1FFF57E6474F,2023-09-27_08h10.52.260,WP_VExplicitOC_HL,2022.2.5,Win32,13.07787877,85.15625,4.8221,2.0207,NA,NA,NA,NA,NA,happy,"unhappy, happy","less happy, more happy",NA,NA,NA,NA,NA,NA,NA,NA,NA,NA,NA,NA,NA,NA,NA,0,0,0,0,1,NA,NA,NA,NA,NA,NA,NA,NA,NA,NA,NA,NA,NA,NA,NA,NA,NA,NA,NA,NA,NA,NA,NA,NA,NA,NA,NA,NA
SUPAMT54273,3TDXMTX3CHTK4DXEOC115423TLUI6T,AC8A4D77-3457-40EA-B70E-1FFF57E6474F,2023-09-27_08h10.52.260,WP_VExplicitOC_HL,2022.2.5,Win32,13.07787877,100,3.1296,2.0376,NA,NA,NA,NA,NA,bored,"bored, not bored","more bored, less bored",NA,NA,NA,NA,NA,NA,NA,NA,NA,NA,NA,NA,NA,NA,NA,0,1,1,2,1,NA,NA,NA,NA,NA,NA,NA,NA,NA,NA,NA,NA,NA,NA,NA,NA,NA,NA,NA,NA,NA,NA,NA,NA,NA,NA,NA,NA
SUPAMT54273,3TDXMTX3CHTK4DXEOC115423TLUI6T,AC8A4D77-3457-40EA-B70E-1FFF57E6474F,2023-09-27_08h10.52.260,WP_VExplicitOC_HL,2022.2.5,Win32,13.07787877,70.83333333,3.2779,2.0023,NA,NA,NA,NA,NA,frustrated,"frustrated, not frustrated","more frustrated, less frustrated",NA,NA,NA,NA,NA,NA,NA,NA,NA,NA,NA,NA,NA,NA,NA,0,2,2,1,1,NA,NA,NA,NA,NA,NA,NA,NA,NA,NA,NA,NA,NA,NA,NA,NA,NA,NA,NA,NA,NA,NA,NA,NA,NA,NA,NA,NA
SUPAMT54273,3TDXMTX3CHTK4DXEOC115423TLUI6T,AC8A4D77-3457-40EA-B70E-1FFF57E6474F,2023-09-27_08h10.52.260,WP_VExplicitOC_HL,2022.2.5,Win32,13.07787877,NA,NA,NA,NA,NA,NA,NA,NA,NA,NA,NA,NA,NA,NA,NA,NA,NA,NA,NA,NA,NA,NA,NA,NA,NA,NA,NA,NA,NA,NA,NA,11,0,11,0,1,NA,NA,NA,NA,NA,NA,NA,NA,NA,NA,NA,NA,NA,NA,NA,NA,NA,NA,NA,NA,NA,NA,NA
SUPAMT54273,3TDXMTX3CHTK4DXEOC115423TLUI6T,AC8A4D77-3457-40EA-B70E-1FFF57E6474F,2023-09-27_08h10.52.260,WP_VExplicitOC_HL,2022.2.5,Win32,13.07787877,72.13541667,5.966,2.0182,NA,NA,NA,NA,NA,frustrated,"frustrated, not frustrated","more frustrated, less frustrated",NA,NA,NA,NA,NA,NA,NA,NA,NA,NA,NA,NA,NA,NA,NA,0,0,0,1,1,NA,NA,NA,NA,NA,NA,NA,NA,NA,NA,NA,NA,NA,NA,NA,NA,NA,NA,NA,NA,NA,NA,NA,NA,NA,NA,NA,NA
SUPAMT54273,3TDXMTX3CHTK4DXEOC115423TLUI6T,AC8A4D77-3457-40EA-B70E-1FFF57E6474F,2023-09-27_08h10.52.260,WP_VExplicitOC_HL,2022.2.5,Win32,13.07787877,57.8125,4.2318,2.0504,NA,NA,NA,NA,NA,bored,"bored, not bored","more bored, less bored",NA,NA,NA,NA,NA,NA,NA,NA,NA,NA,NA,NA,NA,NA,NA,0,1,1,2,1,NA,NA,NA,NA,NA,NA,NA,NA,NA,NA,NA,NA,NA,NA,NA,NA,NA,NA,NA,NA,NA,NA,NA,NA,NA,NA,NA,NA
SUPAMT54273,3TDXMTX3CHTK4DXEOC115423TLUI6T,AC8A4D77-3457-40EA-B70E-1FFF57E6474F,2023-09-27_08h10.52.260,WP_VExplicitOC_HL,2022.2.5,Win32,13.07787877,35.15625,4.0067,2.0073,NA,NA,NA,NA,NA,happy,"unhappy, happy","less happy, more happy",NA,NA,NA,NA,NA,NA,NA,NA,NA,NA,NA,NA,NA,NA,NA,0,2,2,0,1,NA,NA,NA,NA,NA,NA,NA,NA,NA,NA,NA,NA,NA,NA,NA,NA,NA,NA,NA,NA,NA,NA,NA,NA,NA,NA,NA,NA
SUPAMT54273,3TDXMTX3CHTK4DXEOC115423TLUI6T,AC8A4D77-3457-40EA-B70E-1FFF57E6474F,2023-09-27_08h10.52.260,WP_VExplicitOC_HL,2022.2.5,Win32,13.07787877,NA,NA,NA,NA,NA,NA,NA,NA,NA,NA,NA,NA,NA,NA,NA,NA,NA,NA,NA,NA,NA,NA,NA,NA,NA,NA,NA,NA,NA,NA,NA,12,0,12,0,1,NA,NA,NA,NA,NA,NA,NA,NA,NA,NA,NA,NA,NA,NA,NA,NA,NA,NA,NA,NA,NA,NA,NA
SUPAMT54273,3TDXMTX3CHTK4DXEOC115423TLUI6T,AC8A4D77-3457-40EA-B70E-1FFF57E6474F,2023-09-27_08h10.52.260,WP_VExplicitOC_HL,2022.2.5,Win32,13.07787877,48.69791667,4.8558,2.1177,NA,NA,NA,NA,NA,frustrated,"frustrated, not frustrated","more frustrated, less frustrated",NA,NA,NA,NA,NA,NA,NA,NA,NA,NA,NA,NA,NA,NA,NA,0,0,0,1,1,NA,NA,NA,NA,NA,NA,NA,NA,NA,NA,NA,NA,NA,NA,NA,NA,NA,NA,NA,NA,NA,NA,NA,NA,NA,NA,NA,NA
SUPAMT54273,3TDXMTX3CHTK4DXEOC115423TLUI6T,AC8A4D77-3457-40EA-B70E-1FFF57E6474F,2023-09-27_08h10.52.260,WP_VExplicitOC_HL,2022.2.5,Win32,13.07787877,67.70833333,3.14,2.0745,NA,NA,NA,NA,NA,bored,"bored, not bored","more bored, less bored",NA,NA,NA,NA,NA,NA,NA,NA,NA,NA,NA,NA,NA,NA,NA,0,1,1,2,1,NA,NA,NA,NA,NA,NA,NA,NA,NA,NA,NA,NA,NA,NA,NA,NA,NA,NA,NA,NA,NA,NA,NA,NA,NA,NA,NA,NA
SUPAMT54273,3TDXMTX3CHTK4DXEOC115423TLUI6T,AC8A4D77-3457-40EA-B70E-1FFF57E6474F,2023-09-27_08h10.52.260,WP_VExplicitOC_HL,2022.2.5,Win32,13.07787877,55.72916667,3.3677,2.0685,NA,NA,NA,NA,NA,happy,"unhappy, happy","less happy, more happy",NA,NA,NA,NA,NA,NA,NA,NA,NA,NA,NA,NA,NA,NA,NA,0,2,2,0,1,NA,NA,NA,NA,NA,NA,NA,NA,NA,NA,NA,NA,NA,NA,NA,NA,NA,NA,NA,NA,NA,NA,NA,NA,NA,NA,NA,NA
SUPAMT54273,3TDXMTX3CHTK4DXEOC115423TLUI6T,AC8A4D77-3457-40EA-B70E-1FFF57E6474F,2023-09-27_08h10.52.260,WP_VExplicitOC_HL,2022.2.5,Win32,13.07787877,NA,NA,NA,NA,NA,NA,NA,NA,NA,NA,NA,NA,NA,NA,NA,NA,NA,NA,NA,NA,NA,NA,NA,NA,NA,NA,NA,NA,NA,NA,NA,13,0,13,0,1,NA,NA,NA,NA,NA,NA,NA,NA,NA,NA,NA,NA,NA,NA,NA,NA,NA,NA,NA,NA,NA,NA,NA
SUPAMT54273,3TDXMTX3CHTK4DXEOC115423TLUI6T,AC8A4D77-3457-40EA-B70E-1FFF57E6474F,2023-09-27_08h10.52.260,WP_VExplicitOC_HL,2022.2.5,Win32,13.07787877,80.98958333,6.0539,2.1012,NA,NA,NA,NA,NA,frustrated,"frustrated, not frustrated","more frustrated, less frustrated",NA,NA,NA,NA,NA,NA,NA,NA,NA,NA,NA,NA,NA,NA,NA,0,0,0,1,1,NA,NA,NA,NA,NA,NA,NA,NA,NA,NA,NA,NA,NA,NA,NA,NA,NA,NA,NA,NA,NA,NA,NA,NA,NA,NA,NA,NA
SUPAMT54273,3TDXMTX3CHTK4DXEOC115423TLUI6T,AC8A4D77-3457-40EA-B70E-1FFF57E6474F,2023-09-27_08h10.52.260,WP_VExplicitOC_HL,2022.2.5,Win32,13.07787877,42.1875,4.0512,2.0008,NA,NA,NA,NA,NA,bored,"bored, not bored","more bored, less bored",NA,NA,NA,NA,NA,NA,NA,NA,NA,NA,NA,NA,NA,NA,NA,0,1,1,2,1,NA,NA,NA,NA,NA,NA,NA,NA,NA,NA,NA,NA,NA,NA,NA,NA,NA,NA,NA,NA,NA,NA,NA,NA,NA,NA,NA,NA
SUPAMT54273,3TDXMTX3CHTK4DXEOC115423TLUI6T,AC8A4D77-3457-40EA-B70E-1FFF57E6474F,2023-09-27_08h10.52.260,WP_VExplicitOC_HL,2022.2.5,Win32,13.07787877,NA,NA,2.0036,NA,NA,NA,NA,NA,happy,"unhappy, happy","less happy, more happy",NA,NA,NA,NA,NA,NA,NA,NA,NA,NA,NA,NA,NA,NA,NA,0,2,2,0,1,NA,NA,NA,NA,NA,NA,NA,NA,NA,NA,NA,NA,NA,NA,NA,NA,NA,NA,NA,NA,NA,NA,NA,NA,NA,NA,NA,NA
SUPAMT54273,3TDXMTX3CHTK4DXEOC115423TLUI6T,AC8A4D77-3457-40EA-B70E-1FFF57E6474F,2023-09-27_08h10.52.260,WP_VExplicitOC_HL,2022.2.5,Win32,13.07787877,NA,NA,NA,NA,NA,NA,NA,NA,NA,NA,NA,NA,NA,NA,NA,NA,NA,NA,NA,NA,NA,NA,NA,NA,NA,NA,NA,NA,NA,NA,NA,14,0,14,0,1,NA,NA,NA,NA,NA,NA,NA,NA,NA,NA,NA,NA,NA,NA,NA,NA,NA,NA,NA,NA,NA,NA,NA
SUPAMT54273,3TDXMTX3CHTK4DXEOC115423TLUI6T,AC8A4D77-3457-40EA-B70E-1FFF57E6474F,2023-09-27_08h10.52.260,WP_VExplicitOC_HL,2022.2.5,Win32,13.07787877,NA,NA,NA,NA,NA,NA,NA,NA,NA,NA,NA,NA,NA,NA,NA,NA,NA,NA,NA,NA,NA,NA,NA,NA,NA,NA,NA,NA,NA,NA,NA,NA,NA,NA,NA,NA,NA,NA,NA,NA,NA,NA,NA,NA,NA,NA,NA,NA,NA,NA,NA,NA,NA,NA,NA,NA,NA,NA,NA
SUPAMT54273,3TDXMTX3CHTK4DXEOC115423TLUI6T,AC8A4D77-3457-40EA-B70E-1FFF57E6474F,2023-09-27_08h10.52.260,WP_VExplicitOC_HL,2022.2.5,Win32,13.07787877,NA,NA,NA,NA,NA,NA,NA,NA,NA,NA,NA,NA,NA,NA,NA,NA,NA,NA,NA,NA,NA,NA,NA,NA,NA,NA,NA,NA,NA,NA,NA,NA,NA,NA,NA,NA,NA,NA,NA,NA,NA,NA,NA,NA,NA,NA,NA,NA,NA,NA,NA,NA,NA,NA,NA,NA,NA,NA,NA
SUPAMT54273,3TDXMTX3CHTK4DXEOC115423TLUI6T,AC8A4D77-3457-40EA-B70E-1FFF57E6474F,2023-09-27_08h10.52.260,WP_VExplicitOC_HL,2022.2.5,Win32,13.07787877,NA,NA,NA,NA,NA,NA,NA,NA,NA,NA,NA,NA,NA,NA,NA,NA,NA,NA,rest (looking at a fixed cross),001.png,NA,NA,NA,NA,NA,NA,NA,NA,NA,NA,NA,NA,NA,NA,NA,NA,40.10416667,6.9265,0,0,0,0,1,NA,NA,NA,NA,NA,NA,NA,NA,NA,NA,NA,NA,NA,NA,NA,NA
SUPAMT54273,3TDXMTX3CHTK4DXEOC115423TLUI6T,AC8A4D77-3457-40EA-B70E-1FFF57E6474F,2023-09-27_08h10.52.260,WP_VExplicitOC_HL,2022.2.5,Win32,13.07787877,NA,NA,NA,NA,NA,NA,NA,NA,NA,NA,NA,NA,NA,NA,NA,NA,NA,NA,stand up,002.png,NA,NA,NA,NA,NA,NA,NA,NA,NA,NA,NA,NA,NA,NA,NA,NA,53.38541667,2.3429,0,1,1,1,1,NA,NA,NA,NA,NA,NA,NA,NA,NA,NA,NA,NA,NA,NA,NA,NA
SUPAMT54273,3TDXMTX3CHTK4DXEOC115423TLUI6T,AC8A4D77-3457-40EA-B70E-1FFF57E6474F,2023-09-27_08h10.52.260,WP_VExplicitOC_HL,2022.2.5,Win32,13.07787877,NA,NA,NA,NA,NA,NA,NA,NA,NA,NA,NA,NA,NA,NA,NA,NA,NA,NA,stretch,003.png,NA,NA,NA,NA,NA,NA,NA,NA,NA,NA,NA,NA,NA,NA,NA,NA,68.48958333,2.9865,0,2,2,2,1,NA,NA,NA,NA,NA,NA,NA,NA,NA,NA,NA,NA,NA,NA,NA,NA
SUPAMT54273,3TDXMTX3CHTK4DXEOC115423TLUI6T,AC8A4D77-3457-40EA-B70E-1FFF57E6474F,2023-09-27_08h10.52.260,WP_VExplicitOC_HL,2022.2.5,Win32,13.07787877,NA,NA,NA,NA,NA,NA,NA,NA,NA,NA,NA,NA,NA,NA,NA,NA,NA,NA,make a drink,004.png,NA,NA,NA,NA,NA,NA,NA,NA,NA,NA,NA,NA,NA,NA,NA,NA,36.19791667,2.5504,0,3,3,3,1,NA,NA,NA,NA,NA,NA,NA,NA,NA,NA,NA,NA,NA,NA,NA,NA
SUPAMT54273,3TDXMTX3CHTK4DXEOC115423TLUI6T,AC8A4D77-3457-40EA-B70E-1FFF57E6474F,2023-09-27_08h10.52.260,WP_VExplicitOC_HL,2022.2.5,Win32,13.07787877,NA,NA,NA,NA,NA,NA,NA,NA,NA,NA,NA,NA,NA,NA,NA,NA,NA,NA,scroll social media,005.png,NA,NA,NA,NA,NA,NA,NA,NA,NA,NA,NA,NA,NA,NA,NA,NA,46.61458333,3.3644,0,4,4,4,1,NA,NA,NA,NA,NA,NA,NA,NA,NA,NA,NA,NA,NA,NA,NA,NA
SUPAMT54273,3TDXMTX3CHTK4DXEOC115423TLUI6T,AC8A4D77-3457-40EA-B70E-1FFF57E6474F,2023-09-27_08h10.52.260,WP_VExplicitOC_HL,2022.2.5,Win32,13.07787877,NA,NA,NA,NA,NA,NA,NA,NA,NA,NA,NA,NA,NA,NA,NA,NA,NA,NA,listen to music,006.png,NA,NA,NA,NA,NA,NA,NA,NA,NA,NA,NA,NA,NA,NA,NA,NA,29.6875,2.71,0,5,5,5,1,NA,NA,NA,NA,NA,NA,NA,NA,NA,NA,NA,NA,NA,NA,NA,NA
SUPAMT54273,3TDXMTX3CHTK4DXEOC115423TLUI6T,AC8A4D77-3457-40EA-B70E-1FFF57E6474F,2023-09-27_08h10.52.260,WP_VExplicitOC_HL,2022.2.5,Win32,13.07787877,NA,NA,NA,NA,NA,NA,NA,NA,NA,NA,NA,NA,NA,NA,NA,NA,NA,NA,daydream,007.png,NA,NA,NA,NA,NA,NA,NA,NA,NA,NA,NA,NA,NA,NA,NA,NA,56.51041667,4.7352,0,6,6,6,1,NA,NA,NA,NA,NA,NA,NA,NA,NA,NA,NA,NA,NA,NA,NA,NA
SUPAMT54273,3TDXMTX3CHTK4DXEOC115423TLUI6T,AC8A4D77-3457-40EA-B70E-1FFF57E6474F,2023-09-27_08h10.52.260,WP_VExplicitOC_HL,2022.2.5,Win32,13.07787877,NA,NA,NA,NA,NA,NA,NA,NA,NA,NA,NA,NA,NA,NA,NA,NA,NA,NA,watch a short animation,008.png,NA,NA,NA,NA,NA,NA,NA,NA,NA,NA,NA,NA,NA,NA,NA,NA,63.54166667,2.3758,0,7,7,7,1,NA,NA,NA,NA,NA,NA,NA,NA,NA,NA,NA,NA,NA,NA,NA,NA
SUPAMT54273,3TDXMTX3CHTK4DXEOC115423TLUI6T,AC8A4D77-3457-40EA-B70E-1FFF57E6474F,2023-09-27_08h10.52.260,WP_VExplicitOC_HL,2022.2.5,Win32,13.07787877,NA,NA,NA,NA,NA,NA,NA,NA,NA,NA,NA,NA,NA,NA,NA,NA,NA,NA,read a novel,009.png,NA,NA,NA,NA,NA,NA,NA,NA,NA,NA,NA,NA,NA,NA,NA,NA,40.625,3.1126,0,8,8,8,1,NA,NA,NA,NA,NA,NA,NA,NA,NA,NA,NA,NA,NA,NA,NA,NA
SUPAMT54273,3TDXMTX3CHTK4DXEOC115423TLUI6T,AC8A4D77-3457-40EA-B70E-1FFF57E6474F,2023-09-27_08h10.52.260,WP_VExplicitOC_HL,2022.2.5,Win32,13.07787877,NA,NA,NA,NA,NA,NA,NA,NA,NA,NA,NA,NA,NA,NA,NA,NA,NA,NA,read the news,010.png,NA,NA,NA,NA,NA,NA,NA,NA,NA,NA,NA,NA,NA,NA,NA,NA,59.11458333,1.2564,0,9,9,9,1,NA,NA,NA,NA,NA,NA,NA,NA,NA,NA,NA,NA,NA,NA,NA,NA
SUPAMT54273,3TDXMTX3CHTK4DXEOC115423TLUI6T,AC8A4D77-3457-40EA-B70E-1FFF57E6474F,2023-09-27_08h10.52.260,WP_VExplicitOC_HL,2022.2.5,Win32,13.07787877,NA,NA,NA,NA,NA,NA,NA,NA,NA,NA,NA,NA,NA,NA,NA,NA,NA,NA,NA,NA,NA,NA,NA,NA,NA,NA,NA,NA,NA,NA,NA,NA,NA,NA,NA,NA,NA,NA,NA,NA,NA,NA,NA,listen to music,NA,NA,NA,NA,NA,NA,NA,NA,NA,NA,NA,NA,NA,NA,NA
SUPAMT54273,3TDXMTX3CHTK4DXEOC115423TLUI6T,AC8A4D77-3457-40EA-B70E-1FFF57E6474F,2023-09-27_08h10.52.260,WP_VExplicitOC_HL,2022.2.5,Win32,13.07787877,44.27083333,7.1752,2.0401,NA,NA,NA,NA,NA,happy,"unhappy, happy","less happy, more happy",NA,NA,NA,NA,NA,NA,NA,NA,NA,NA,NA,NA,NA,NA,NA,NA,NA,NA,NA,NA,NA,NA,NA,NA,NA,NA,NA,NA,NA,NA,NA,NA,NA,0,0,0,0,1,NA,NA,NA,NA,NA,NA,NA,NA,NA,NA
SUPAMT54273,3TDXMTX3CHTK4DXEOC115423TLUI6T,AC8A4D77-3457-40EA-B70E-1FFF57E6474F,2023-09-27_08h10.52.260,WP_VExplicitOC_HL,2022.2.5,Win32,13.07787877,59.63541667,3.4021,2.0961,NA,NA,NA,NA,NA,frustrated,"frustrated, not frustrated","more frustrated, less frustrated",NA,NA,NA,NA,NA,NA,NA,NA,NA,NA,NA,NA,NA,NA,NA,NA,NA,NA,NA,NA,NA,NA,NA,NA,NA,NA,NA,NA,NA,NA,NA,NA,NA,0,1,1,1,1,NA,NA,NA,NA,NA,NA,NA,NA,NA,NA
SUPAMT54273,3TDXMTX3CHTK4DXEOC115423TLUI6T,AC8A4D77-3457-40EA-B70E-1FFF57E6474F,2023-09-27_08h10.52.260,WP_VExplicitOC_HL,2022.2.5,Win32,13.07787877,38.02083333,3.4081,2.0844,NA,NA,NA,NA,NA,bored,"bored, not bored","more bored, less bored",NA,NA,NA,NA,NA,NA,NA,NA,NA,NA,NA,NA,NA,NA,NA,NA,NA,NA,NA,NA,NA,NA,NA,NA,NA,NA,NA,NA,NA,NA,NA,NA,NA,0,2,2,2,1,NA,NA,NA,NA,NA,NA,NA,NA,NA,NA
SUPAMT54273,3TDXMTX3CHTK4DXEOC115423TLUI6T,AC8A4D77-3457-40EA-B70E-1FFF57E6474F,2023-09-27_08h10.52.260,WP_VExplicitOC_HL,2022.2.5,Win32,13.07787877,NA,NA,NA,NA,NA,NA,NA,NA,NA,NA,NA,NA,NA,NA,NA,NA,NA,NA,NA,NA,NA,NA,NA,NA,NA,NA,NA,NA,NA,NA,NA,NA,NA,NA,NA,NA,NA,NA,NA,NA,NA,NA,NA,NA,NA,NA,NA,NA,NA,NA,NA,NA,NA,NA,NA,NA,NA,NA,NA
SUPAMT54273,3TDXMTX3CHTK4DXEOC115423TLUI6T,AC8A4D77-3457-40EA-B70E-1FFF57E6474F,2023-09-27_08h10.52.260,WP_VExplicitOC_HL,2022.2.5,Win32,13.07787877,NA,NA,NA,NA,NA,NA,NA,NA,NA,NA,NA,NA,NA,NA,NA,NA,NA,NA,NA,NA,NA,NA,NA,NA,NA,NA,NA,NA,NA,NA,NA,NA,NA,NA,NA,NA,NA,NA,NA,NA,NA,NA,NA,NA,NA,NA,NA,NA,NA,NA,NA,NA,NA,NA,NA,NA,NA,NA,NA
SUPAMT54273,3TDXMTX3CHTK4DXEOC115423TLUI6T,AC8A4D77-3457-40EA-B70E-1FFF57E6474F,2023-09-27_08h10.52.260,WP_VExplicitOC_HL,2022.2.5,Win32,13.07787877,74.47916667,3.3966,2.0004,NA,NA,NA,NA,NA,frustrated,"frustrated, not frustrated","more frustrated, less frustrated",NA,NA,NA,NA,NA,NA,NA,NA,NA,NA,NA,NA,NA,NA,NA,NA,NA,NA,NA,NA,NA,NA,NA,NA,NA,NA,NA,NA,NA,NA,NA,NA,NA,NA,NA,NA,NA,NA,0,0,0,1,1,NA,NA,NA,NA,NA
SUPAMT54273,3TDXMTX3CHTK4DXEOC115423TLUI6T,AC8A4D77-3457-40EA-B70E-1FFF57E6474F,2023-09-27_08h10.52.260,WP_VExplicitOC_HL,2022.2.5,Win32,13.07787877,30.98958333,3.6258,2.05,NA,NA,NA,NA,NA,bored,"bored, not bored","more bored, less bored",NA,NA,NA,NA,NA,NA,NA,NA,NA,NA,NA,NA,NA,NA,NA,NA,NA,NA,NA,NA,NA,NA,NA,NA,NA,NA,NA,NA,NA,NA,NA,NA,NA,NA,NA,NA,NA,NA,0,1,1,2,1,NA,NA,NA,NA,NA
SUPAMT54273,3TDXMTX3CHTK4DXEOC115423TLUI6T,AC8A4D77-3457-40EA-B70E-1FFF57E6474F,2023-09-27_08h10.52.260,WP_VExplicitOC_HL,2022.2.5,Win32,13.07787877,63.02083333,6.0155,2.0971,NA,NA,NA,NA,NA,happy,"unhappy, happy","less happy, more happy",NA,NA,NA,NA,NA,NA,NA,NA,NA,NA,NA,NA,NA,NA,NA,NA,NA,NA,NA,NA,NA,NA,NA,NA,NA,NA,NA,NA,NA,NA,NA,NA,NA,NA,NA,NA,NA,NA,0,2,2,0,1,NA,NA,NA,NA,NA
SUPAMT54273,3TDXMTX3CHTK4DXEOC115423TLUI6T,AC8A4D77-3457-40EA-B70E-1FFF57E6474F,2023-09-27_08h10.52.260,WP_VExplicitOC_HL,2022.2.5,Win32,13.07787877,NA,NA,NA,NA,NA,NA,NA,NA,NA,NA,NA,NA,NA,NA,NA,NA,NA,NA,NA,NA,NA,NA,NA,NA,NA,NA,NA,NA,NA,NA,NA,NA,NA,NA,NA,NA,NA,NA,NA,NA,NA,NA,NA,NA,NA,NA,NA,NA,NA,NA,NA,NA,NA,NA,0,0,0,0,1
SUPAMT54273,3TDXMTX3CHTK4DXEOC115423TLUI6T,AC8A4D77-3457-40EA-B70E-1FFF57E6474F,2023-09-27_08h10.52.260,WP_VExplicitOC_HL,2022.2.5,Win32,13.07787877,NA,NA,2.0505,NA,NA,NA,NA,NA,bored,"bored, not bored","more bored, less bored",NA,NA,NA,NA,NA,NA,NA,NA,NA,NA,NA,NA,NA,NA,NA,NA,NA,NA,NA,NA,NA,NA,NA,NA,NA,NA,NA,NA,NA,NA,NA,NA,NA,NA,NA,NA,NA,NA,0,0,0,2,1,NA,NA,NA,NA,NA
SUPAMT54273,3TDXMTX3CHTK4DXEOC115423TLUI6T,AC8A4D77-3457-40EA-B70E-1FFF57E6474F,2023-09-27_08h10.52.260,WP_VExplicitOC_HL,2022.2.5,Win32,13.07787877,46.61458333,3.3956,2.1195,NA,NA,NA,NA,NA,frustrated,"frustrated, not frustrated","more frustrated, less frustrated",NA,NA,NA,NA,NA,NA,NA,NA,NA,NA,NA,NA,NA,NA,NA,NA,NA,NA,NA,NA,NA,NA,NA,NA,NA,NA,NA,NA,NA,NA,NA,NA,NA,NA,NA,NA,NA,NA,0,1,1,1,1,NA,NA,NA,NA,NA
SUPAMT54273,3TDXMTX3CHTK4DXEOC115423TLUI6T,AC8A4D77-3457-40EA-B70E-1FFF57E6474F,2023-09-27_08h10.52.260,WP_VExplicitOC_HL,2022.2.5,Win32,13.07787877,63.02083333,2.9744,2.0033,NA,NA,NA,NA,NA,happy,"unhappy, happy","less happy, more happy",NA,NA,NA,NA,NA,NA,NA,NA,NA,NA,NA,NA,NA,NA,NA,NA,NA,NA,NA,NA,NA,NA,NA,NA,NA,NA,NA,NA,NA,NA,NA,NA,NA,NA,NA,NA,NA,NA,0,2,2,0,1,NA,NA,NA,NA,NA
SUPAMT54273,3TDXMTX3CHTK4DXEOC115423TLUI6T,AC8A4D77-3457-40EA-B70E-1FFF57E6474F,2023-09-27_08h10.52.260,WP_VExplicitOC_HL,2022.2.5,Win32,13.07787877,NA,NA,NA,NA,NA,NA,NA,NA,NA,NA,NA,NA,NA,NA,NA,NA,NA,NA,NA,NA,NA,NA,NA,NA,NA,NA,NA,NA,NA,NA,NA,NA,NA,NA,NA,NA,NA,NA,NA,NA,NA,NA,NA,NA,NA,NA,NA,NA,NA,NA,NA,NA,NA,NA,1,0,1,0,1
SUPAMT54273,3TDXMTX3CHTK4DXEOC115423TLUI6T,AC8A4D77-3457-40EA-B70E-1FFF57E6474F,2023-09-27_08h10.52.260,WP_VExplicitOC_HL,2022.2.5,Win32,13.07787877,86.71875,3.2413,2.0435,NA,NA,NA,NA,NA,happy,"unhappy, happy","less happy, more happy",NA,NA,NA,NA,NA,NA,NA,NA,NA,NA,NA,NA,NA,NA,NA,NA,NA,NA,NA,NA,NA,NA,NA,NA,NA,NA,NA,NA,NA,NA,NA,NA,NA,NA,NA,NA,NA,NA,0,0,0,0,1,NA,NA,NA,NA,NA
SUPAMT54273,3TDXMTX3CHTK4DXEOC115423TLUI6T,AC8A4D77-3457-40EA-B70E-1FFF57E6474F,2023-09-27_08h10.52.260,WP_VExplicitOC_HL,2022.2.5,Win32,13.07787877,59.375,3.884,2.0262,NA,NA,NA,NA,NA,frustrated,"frustrated, not frustrated","more frustrated, less frustrated",NA,NA,NA,NA,NA,NA,NA,NA,NA,NA,NA,NA,NA,NA,NA,NA,NA,NA,NA,NA,NA,NA,NA,NA,NA,NA,NA,NA,NA,NA,NA,NA,NA,NA,NA,NA,NA,NA,0,1,1,1,1,NA,NA,NA,NA,NA
SUPAMT54273,3TDXMTX3CHTK4DXEOC115423TLUI6T,AC8A4D77-3457-40EA-B70E-1FFF57E6474F,2023-09-27_08h10.52.260,WP_VExplicitOC_HL,2022.2.5,Win32,13.07787877,84.89583333,3.1843,2.0438,NA,NA,NA,NA,NA,bored,"bored, not bored","more bored, less bored",NA,NA,NA,NA,NA,NA,NA,NA,NA,NA,NA,NA,NA,NA,NA,NA,NA,NA,NA,NA,NA,NA,NA,NA,NA,NA,NA,NA,NA,NA,NA,NA,NA,NA,NA,NA,NA,NA,0,2,2,2,1,NA,NA,NA,NA,NA
SUPAMT54273,3TDXMTX3CHTK4DXEOC115423TLUI6T,AC8A4D77-3457-40EA-B70E-1FFF57E6474F,2023-09-27_08h10.52.260,WP_VExplicitOC_HL,2022.2.5,Win32,13.07787877,NA,NA,NA,NA,NA,NA,NA,NA,NA,NA,NA,NA,NA,NA,NA,NA,NA,NA,NA,NA,NA,NA,NA,NA,NA,NA,NA,NA,NA,NA,NA,NA,NA,NA,NA,NA,NA,NA,NA,NA,NA,NA,NA,NA,NA,NA,NA,NA,NA,NA,NA,NA,NA,NA,2,0,2,0,1
SUPAMT54273,3TDXMTX3CHTK4DXEOC115423TLUI6T,AC8A4D77-3457-40EA-B70E-1FFF57E6474F,2023-09-27_08h10.52.260,WP_VExplicitOC_HL,2022.2.5,Win32,13.07787877,61.71875,3.3762,2.0094,NA,NA,NA,NA,NA,frustrated,"frustrated, not frustrated","more frustrated, less frustrated",NA,NA,NA,NA,NA,NA,NA,NA,NA,NA,NA,NA,NA,NA,NA,NA,NA,NA,NA,NA,NA,NA,NA,NA,NA,NA,NA,NA,NA,NA,NA,NA,NA,NA,NA,NA,NA,NA,0,0,0,1,1,NA,NA,NA,NA,NA
SUPAMT54273,3TDXMTX3CHTK4DXEOC115423TLUI6T,AC8A4D77-3457-40EA-B70E-1FFF57E6474F,2023-09-27_08h10.52.260,WP_VExplicitOC_HL,2022.2.5,Win32,13.07787877,44.53125,4.004,2.0849,NA,NA,NA,NA,NA,bored,"bored, not bored","more bored, less bored",NA,NA,NA,NA,NA,NA,NA,NA,NA,NA,NA,NA,NA,NA,NA,NA,NA,NA,NA,NA,NA,NA,NA,NA,NA,NA,NA,NA,NA,NA,NA,NA,NA,NA,NA,NA,NA,NA,0,1,1,2,1,NA,NA,NA,NA,NA
SUPAMT54273,3TDXMTX3CHTK4DXEOC115423TLUI6T,AC8A4D77-3457-40EA-B70E-1FFF57E6474F,2023-09-27_08h10.52.260,WP_VExplicitOC_HL,2022.2.5,Win32,13.07787877,57.8125,3.9493,2.1375,NA,NA,NA,NA,NA,happy,"unhappy, happy","less happy, more happy",NA,NA,NA,NA,NA,NA,NA,NA,NA,NA,NA,NA,NA,NA,NA,NA,NA,NA,NA,NA,NA,NA,NA,NA,NA,NA,NA,NA,NA,NA,NA,NA,NA,NA,NA,NA,NA,NA,0,2,2,0,1,NA,NA,NA,NA,NA
SUPAMT54273,3TDXMTX3CHTK4DXEOC115423TLUI6T,AC8A4D77-3457-40EA-B70E-1FFF57E6474F,2023-09-27_08h10.52.260,WP_VExplicitOC_HL,2022.2.5,Win32,13.07787877,NA,NA,NA,NA,NA,NA,NA,NA,NA,NA,NA,NA,NA,NA,NA,NA,NA,NA,NA,NA,NA,NA,NA,NA,NA,NA,NA,NA,NA,NA,NA,NA,NA,NA,NA,NA,NA,NA,NA,NA,NA,NA,NA,NA,NA,NA,NA,NA,NA,NA,NA,NA,NA,NA,3,0,3,0,1
SUPAMT54273,3TDXMTX3CHTK4DXEOC115423TLUI6T,AC8A4D77-3457-40EA-B70E-1FFF57E6474F,2023-09-27_08h10.52.260,WP_VExplicitOC_HL,2022.2.5,Win32,13.07787877,NA,NA,2.0169,NA,NA,NA,NA,NA,bored,"bored, not bored","more bored, less bored",NA,NA,NA,NA,NA,NA,NA,NA,NA,NA,NA,NA,NA,NA,NA,NA,NA,NA,NA,NA,NA,NA,NA,NA,NA,NA,NA,NA,NA,NA,NA,NA,NA,NA,NA,NA,NA,NA,0,0,0,2,1,NA,NA,NA,NA,NA
SUPAMT54273,3TDXMTX3CHTK4DXEOC115423TLUI6T,AC8A4D77-3457-40EA-B70E-1FFF57E6474F,2023-09-27_08h10.52.260,WP_VExplicitOC_HL,2022.2.5,Win32,13.07787877,80.46875,3.4544,2.0906,NA,NA,NA,NA,NA,happy,"unhappy, happy","less happy, more happy",NA,NA,NA,NA,NA,NA,NA,NA,NA,NA,NA,NA,NA,NA,NA,NA,NA,NA,NA,NA,NA,NA,NA,NA,NA,NA,NA,NA,NA,NA,NA,NA,NA,NA,NA,NA,NA,NA,0,1,1,0,1,NA,NA,NA,NA,NA
SUPAMT54273,3TDXMTX3CHTK4DXEOC115423TLUI6T,AC8A4D77-3457-40EA-B70E-1FFF57E6474F,2023-09-27_08h10.52.260,WP_VExplicitOC_HL,2022.2.5,Win32,13.07787877,NA,NA,2.0177,NA,NA,NA,NA,NA,frustrated,"frustrated, not frustrated","more frustrated, less frustrated",NA,NA,NA,NA,NA,NA,NA,NA,NA,NA,NA,NA,NA,NA,NA,NA,NA,NA,NA,NA,NA,NA,NA,NA,NA,NA,NA,NA,NA,NA,NA,NA,NA,NA,NA,NA,NA,NA,0,2,2,1,1,NA,NA,NA,NA,NA
SUPAMT54273,3TDXMTX3CHTK4DXEOC115423TLUI6T,AC8A4D77-3457-40EA-B70E-1FFF57E6474F,2023-09-27_08h10.52.260,WP_VExplicitOC_HL,2022.2.5,Win32,13.07787877,NA,NA,NA,NA,NA,NA,NA,NA,NA,NA,NA,NA,NA,NA,NA,NA,NA,NA,NA,NA,NA,NA,NA,NA,NA,NA,NA,NA,NA,NA,NA,NA,NA,NA,NA,NA,NA,NA,NA,NA,NA,NA,NA,NA,NA,NA,NA,NA,NA,NA,NA,NA,NA,NA,4,0,4,0,1
SUPAMT54273,3TDXMTX3CHTK4DXEOC115423TLUI6T,AC8A4D77-3457-40EA-B70E-1FFF57E6474F,2023-09-27_08h10.52.260,WP_VExplicitOC_HL,2022.2.5,Win32,13.07787877,39.32291667,4.2034,2.0201,NA,NA,NA,NA,NA,frustrated,"frustrated, not frustrated","more frustrated, less frustrated",NA,NA,NA,NA,NA,NA,NA,NA,NA,NA,NA,NA,NA,NA,NA,NA,NA,NA,NA,NA,NA,NA,NA,NA,NA,NA,NA,NA,NA,NA,NA,NA,NA,NA,NA,NA,NA,NA,0,0,0,1,1,NA,NA,NA,NA,NA
SUPAMT54273,3TDXMTX3CHTK4DXEOC115423TLUI6T,AC8A4D77-3457-40EA-B70E-1FFF57E6474F,2023-09-27_08h10.52.260,WP_VExplicitOC_HL,2022.2.5,Win32,13.07787877,40.10416667,3.4882,2.0164,NA,NA,NA,NA,NA,bored,"bored, not bored","more bored, less bored",NA,NA,NA,NA,NA,NA,NA,NA,NA,NA,NA,NA,NA,NA,NA,NA,NA,NA,NA,NA,NA,NA,NA,NA,NA,NA,NA,NA,NA,NA,NA,NA,NA,NA,NA,NA,NA,NA,0,1,1,2,1,NA,NA,NA,NA,NA
SUPAMT54273,3TDXMTX3CHTK4DXEOC115423TLUI6T,AC8A4D77-3457-40EA-B70E-1FFF57E6474F,2023-09-27_08h10.52.260,WP_VExplicitOC_HL,2022.2.5,Win32,13.07787877,NA,NA,2.0713,NA,NA,NA,NA,NA,happy,"unhappy, happy","less happy, more happy",NA,NA,NA,NA,NA,NA,NA,NA,NA,NA,NA,NA,NA,NA,NA,NA,NA,NA,NA,NA,NA,NA,NA,NA,NA,NA,NA,NA,NA,NA,NA,NA,NA,NA,NA,NA,NA,NA,0,2,2,0,1,NA,NA,NA,NA,NA
SUPAMT54273,3TDXMTX3CHTK4DXEOC115423TLUI6T,AC8A4D77-3457-40EA-B70E-1FFF57E6474F,2023-09-27_08h10.52.260,WP_VExplicitOC_HL,2022.2.5,Win32,13.07787877,NA,NA,NA,NA,NA,NA,NA,NA,NA,NA,NA,NA,NA,NA,NA,NA,NA,NA,NA,NA,NA,NA,NA,NA,NA,NA,NA,NA,NA,NA,NA,NA,NA,NA,NA,NA,NA,NA,NA,NA,NA,NA,NA,NA,NA,NA,NA,NA,NA,NA,NA,NA,NA,NA,5,0,5,0,1
SUPAMT54273,3TDXMTX3CHTK4DXEOC115423TLUI6T,AC8A4D77-3457-40EA-B70E-1FFF57E6474F,2023-09-27_08h10.52.260,WP_VExplicitOC_HL,2022.2.5,Win32,13.07787877,48.4375,4.7302,2.0258,NA,NA,NA,NA,NA,bored,"bored, not bored","more bored, less bored",NA,NA,NA,NA,NA,NA,NA,NA,NA,NA,NA,NA,NA,NA,NA,NA,NA,NA,NA,NA,NA,NA,NA,NA,NA,NA,NA,NA,NA,NA,NA,NA,NA,NA,NA,NA,NA,NA,0,0,0,2,1,NA,NA,NA,NA,NA
SUPAMT54273,3TDXMTX3CHTK4DXEOC115423TLUI6T,AC8A4D77-3457-40EA-B70E-1FFF57E6474F,2023-09-27_08h10.52.260,WP_VExplicitOC_HL,2022.2.5,Win32,13.07787877,NA,NA,2.0042,NA,NA,NA,NA,NA,happy,"unhappy, happy","less happy, more happy",NA,NA,NA,NA,NA,NA,NA,NA,NA,NA,NA,NA,NA,NA,NA,NA,NA,NA,NA,NA,NA,NA,NA,NA,NA,NA,NA,NA,NA,NA,NA,NA,NA,NA,NA,NA,NA,NA,0,1,1,0,1,NA,NA,NA,NA,NA
SUPAMT54273,3TDXMTX3CHTK4DXEOC115423TLUI6T,AC8A4D77-3457-40EA-B70E-1FFF57E6474F,2023-09-27_08h10.52.260,WP_VExplicitOC_HL,2022.2.5,Win32,13.07787877,51.82291667,3.7424,2.0963,NA,NA,NA,NA,NA,frustrated,"frustrated, not frustrated","more frustrated, less frustrated",NA,NA,NA,NA,NA,NA,NA,NA,NA,NA,NA,NA,NA,NA,NA,NA,NA,NA,NA,NA,NA,NA,NA,NA,NA,NA,NA,NA,NA,NA,NA,NA,NA,NA,NA,NA,NA,NA,0,2,2,1,1,NA,NA,NA,NA,NA
SUPAMT54273,3TDXMTX3CHTK4DXEOC115423TLUI6T,AC8A4D77-3457-40EA-B70E-1FFF57E6474F,2023-09-27_08h10.52.260,WP_VExplicitOC_HL,2022.2.5,Win32,13.07787877,NA,NA,NA,NA,NA,NA,NA,NA,NA,NA,NA,NA,NA,NA,NA,NA,NA,NA,NA,NA,NA,NA,NA,NA,NA,NA,NA,NA,NA,NA,NA,NA,NA,NA,NA,NA,NA,NA,NA,NA,NA,NA,NA,NA,NA,NA,NA,NA,NA,NA,NA,NA,NA,NA,6,0,6,0,1
SUPAMT54273,3TDXMTX3CHTK4DXEOC115423TLUI6T,AC8A4D77-3457-40EA-B70E-1FFF57E6474F,2023-09-27_08h10.52.260,WP_VExplicitOC_HL,2022.2.5,Win32,13.07787877,NA,NA,2.0694,NA,NA,NA,NA,NA,bored,"bored, not bored","more bored, less bored",NA,NA,NA,NA,NA,NA,NA,NA,NA,NA,NA,NA,NA,NA,NA,NA,NA,NA,NA,NA,NA,NA,NA,NA,NA,NA,NA,NA,NA,NA,NA,NA,NA,NA,NA,NA,NA,NA,0,0,0,2,1,NA,NA,NA,NA,NA
SUPAMT54273,3TDXMTX3CHTK4DXEOC115423TLUI6T,AC8A4D77-3457-40EA-B70E-1FFF57E6474F,2023-09-27_08h10.52.260,WP_VExplicitOC_HL,2022.2.5,Win32,13.07787877,64.32291667,4.375,2.1143,NA,NA,NA,NA,NA,frustrated,"frustrated, not frustrated","more frustrated, less frustrated",NA,NA,NA,NA,NA,NA,NA,NA,NA,NA,NA,NA,NA,NA,NA,NA,NA,NA,NA,NA,NA,NA,NA,NA,NA,NA,NA,NA,NA,NA,NA,NA,NA,NA,NA,NA,NA,NA,0,1,1,1,1,NA,NA,NA,NA,NA
SUPAMT54273,3TDXMTX3CHTK4DXEOC115423TLUI6T,AC8A4D77-3457-40EA-B70E-1FFF57E6474F,2023-09-27_08h10.52.260,WP_VExplicitOC_HL,2022.2.5,Win32,13.07787877,48.4375,3.9979,2.0166,NA,NA,NA,NA,NA,happy,"unhappy, happy","less happy, more happy",NA,NA,NA,NA,NA,NA,NA,NA,NA,NA,NA,NA,NA,NA,NA,NA,NA,NA,NA,NA,NA,NA,NA,NA,NA,NA,NA,NA,NA,NA,NA,NA,NA,NA,NA,NA,NA,NA,0,2,2,0,1,NA,NA,NA,NA,NA
SUPAMT54273,3TDXMTX3CHTK4DXEOC115423TLUI6T,AC8A4D77-3457-40EA-B70E-1FFF57E6474F,2023-09-27_08h10.52.260,WP_VExplicitOC_HL,2022.2.5,Win32,13.07787877,NA,NA,NA,NA,NA,NA,NA,NA,NA,NA,NA,NA,NA,NA,NA,NA,NA,NA,NA,NA,NA,NA,NA,NA,NA,NA,NA,NA,NA,NA,NA,NA,NA,NA,NA,NA,NA,NA,NA,NA,NA,NA,NA,NA,NA,NA,NA,NA,NA,NA,NA,NA,NA,NA,7,0,7,0,1
SUPAMT54273,3TDXMTX3CHTK4DXEOC115423TLUI6T,AC8A4D77-3457-40EA-B70E-1FFF57E6474F,2023-09-27_08h10.52.260,WP_VExplicitOC_HL,2022.2.5,Win32,13.07787877,53.38541667,6.3151,2.031,NA,NA,NA,NA,NA,frustrated,"frustrated, not frustrated","more frustrated, less frustrated",NA,NA,NA,NA,NA,NA,NA,NA,NA,NA,NA,NA,NA,NA,NA,NA,NA,NA,NA,NA,NA,NA,NA,NA,NA,NA,NA,NA,NA,NA,NA,NA,NA,NA,NA,NA,NA,NA,0,0,0,1,1,NA,NA,NA,NA,NA
SUPAMT54273,3TDXMTX3CHTK4DXEOC115423TLUI6T,AC8A4D77-3457-40EA-B70E-1FFF57E6474F,2023-09-27_08h10.52.260,WP_VExplicitOC_HL,2022.2.5,Win32,13.07787877,60.41666667,3.3386,2.0805,NA,NA,NA,NA,NA,happy,"unhappy, happy","less happy, more happy",NA,NA,NA,NA,NA,NA,NA,NA,NA,NA,NA,NA,NA,NA,NA,NA,NA,NA,NA,NA,NA,NA,NA,NA,NA,NA,NA,NA,NA,NA,NA,NA,NA,NA,NA,NA,NA,NA,0,1,1,0,1,NA,NA,NA,NA,NA
SUPAMT54273,3TDXMTX3CHTK4DXEOC115423TLUI6T,AC8A4D77-3457-40EA-B70E-1FFF57E6474F,2023-09-27_08h10.52.260,WP_VExplicitOC_HL,2022.2.5,Win32,13.07787877,66.66666667,3.4357,2.0556,NA,NA,NA,NA,NA,bored,"bored, not bored","more bored, less bored",NA,NA,NA,NA,NA,NA,NA,NA,NA,NA,NA,NA,NA,NA,NA,NA,NA,NA,NA,NA,NA,NA,NA,NA,NA,NA,NA,NA,NA,NA,NA,NA,NA,NA,NA,NA,NA,NA,0,2,2,2,1,NA,NA,NA,NA,NA
SUPAMT54273,3TDXMTX3CHTK4DXEOC115423TLUI6T,AC8A4D77-3457-40EA-B70E-1FFF57E6474F,2023-09-27_08h10.52.260,WP_VExplicitOC_HL,2022.2.5,Win32,13.07787877,NA,NA,NA,NA,NA,NA,NA,NA,NA,NA,NA,NA,NA,NA,NA,NA,NA,NA,NA,NA,NA,NA,NA,NA,NA,NA,NA,NA,NA,NA,NA,NA,NA,NA,NA,NA,NA,NA,NA,NA,NA,NA,NA,NA,NA,NA,NA,NA,NA,NA,NA,NA,NA,NA,8,0,8,0,1
SUPAMT54273,3TDXMTX3CHTK4DXEOC115423TLUI6T,AC8A4D77-3457-40EA-B70E-1FFF57E6474F,2023-09-27_08h10.52.260,WP_VExplicitOC_HL,2022.2.5,Win32,13.07787877,100,3.2826,2.0622,NA,NA,NA,NA,NA,frustrated,"frustrated, not frustrated","more frustrated, less frustrated",NA,NA,NA,NA,NA,NA,NA,NA,NA,NA,NA,NA,NA,NA,NA,NA,NA,NA,NA,NA,NA,NA,NA,NA,NA,NA,NA,NA,NA,NA,NA,NA,NA,NA,NA,NA,NA,NA,0,0,0,1,1,NA,NA,NA,NA,NA
SUPAMT54273,3TDXMTX3CHTK4DXEOC115423TLUI6T,AC8A4D77-3457-40EA-B70E-1FFF57E6474F,2023-09-27_08h10.52.260,WP_VExplicitOC_HL,2022.2.5,Win32,13.07787877,36.97916667,3.2934,2.0155,NA,NA,NA,NA,NA,happy,"unhappy, happy","less happy, more happy",NA,NA,NA,NA,NA,NA,NA,NA,NA,NA,NA,NA,NA,NA,NA,NA,NA,NA,NA,NA,NA,NA,NA,NA,NA,NA,NA,NA,NA,NA,NA,NA,NA,NA,NA,NA,NA,NA,0,1,1,0,1,NA,NA,NA,NA,NA
SUPAMT54273,3TDXMTX3CHTK4DXEOC115423TLUI6T,AC8A4D77-3457-40EA-B70E-1FFF57E6474F,2023-09-27_08h10.52.260,WP_VExplicitOC_HL,2022.2.5,Win32,13.07787877,74.73958333,3.263,2.0568,NA,NA,NA,NA,NA,bored,"bored, not bored","more bored, less bored",NA,NA,NA,NA,NA,NA,NA,NA,NA,NA,NA,NA,NA,NA,NA,NA,NA,NA,NA,NA,NA,NA,NA,NA,NA,NA,NA,NA,NA,NA,NA,NA,NA,NA,NA,NA,NA,NA,0,2,2,2,1,NA,NA,NA,NA,NA
SUPAMT54273,3TDXMTX3CHTK4DXEOC115423TLUI6T,AC8A4D77-3457-40EA-B70E-1FFF57E6474F,2023-09-27_08h10.52.260,WP_VExplicitOC_HL,2022.2.5,Win32,13.07787877,NA,NA,NA,NA,NA,NA,NA,NA,NA,NA,NA,NA,NA,NA,NA,NA,NA,NA,NA,NA,NA,NA,NA,NA,NA,NA,NA,NA,NA,NA,NA,NA,NA,NA,NA,NA,NA,NA,NA,NA,NA,NA,NA,NA,NA,NA,NA,NA,NA,NA,NA,NA,NA,NA,9,0,9,0,1
SUPAMT54273,3TDXMTX3CHTK4DXEOC115423TLUI6T,AC8A4D77-3457-40EA-B70E-1FFF57E6474F,2023-09-27_08h10.52.260,WP_VExplicitOC_HL,2022.2.5,Win32,13.07787877,87.5,3.7457,2.0828,NA,NA,NA,NA,NA,bored,"bored, not bored","more bored, less bored",NA,NA,NA,NA,NA,NA,NA,NA,NA,NA,NA,NA,NA,NA,NA,NA,NA,NA,NA,NA,NA,NA,NA,NA,NA,NA,NA,NA,NA,NA,NA,NA,NA,NA,NA,NA,NA,NA,0,0,0,2,1,NA,NA,NA,NA,NA
SUPAMT54273,3TDXMTX3CHTK4DXEOC115423TLUI6T,AC8A4D77-3457-40EA-B70E-1FFF57E6474F,2023-09-27_08h10.52.260,WP_VExplicitOC_HL,2022.2.5,Win32,13.07787877,78.125,6.7699,2.0348,NA,NA,NA,NA,NA,frustrated,"frustrated, not frustrated","more frustrated, less frustrated",NA,NA,NA,NA,NA,NA,NA,NA,NA,NA,NA,NA,NA,NA,NA,NA,NA,NA,NA,NA,NA,NA,NA,NA,NA,NA,NA,NA,NA,NA,NA,NA,NA,NA,NA,NA,NA,NA,0,1,1,1,1,NA,NA,NA,NA,NA
SUPAMT54273,3TDXMTX3CHTK4DXEOC115423TLUI6T,AC8A4D77-3457-40EA-B70E-1FFF57E6474F,2023-09-27_08h10.52.260,WP_VExplicitOC_HL,2022.2.5,Win32,13.07787877,36.71875,7.3418,2.0869,NA,NA,NA,NA,NA,happy,"unhappy, happy","less happy, more happy",NA,NA,NA,NA,NA,NA,NA,NA,NA,NA,NA,NA,NA,NA,NA,NA,NA,NA,NA,NA,NA,NA,NA,NA,NA,NA,NA,NA,NA,NA,NA,NA,NA,NA,NA,NA,NA,NA,0,2,2,0,1,NA,NA,NA,NA,NA
SUPAMT54273,3TDXMTX3CHTK4DXEOC115423TLUI6T,AC8A4D77-3457-40EA-B70E-1FFF57E6474F,2023-09-27_08h10.52.260,WP_VExplicitOC_HL,2022.2.5,Win32,13.07787877,NA,NA,NA,NA,NA,NA,NA,NA,NA,NA,NA,NA,NA,NA,NA,NA,NA,NA,NA,NA,NA,NA,NA,NA,NA,NA,NA,NA,NA,NA,NA,NA,NA,NA,NA,NA,NA,NA,NA,NA,NA,NA,NA,NA,NA,NA,NA,NA,NA,NA,NA,NA,NA,NA,10,0,10,0,1
SUPAMT54273,3TDXMTX3CHTK4DXEOC115423TLUI6T,AC8A4D77-3457-40EA-B70E-1FFF57E6474F,2023-09-27_08h10.52.260,WP_VExplicitOC_HL,2022.2.5,Win32,13.07787877,59.375,4.3193,2.0874,NA,NA,NA,NA,NA,frustrated,"frustrated, not frustrated","more frustrated, less frustrated",NA,NA,NA,NA,NA,NA,NA,NA,NA,NA,NA,NA,NA,NA,NA,NA,NA,NA,NA,NA,NA,NA,NA,NA,NA,NA,NA,NA,NA,NA,NA,NA,NA,NA,NA,NA,NA,NA,0,0,0,1,1,NA,NA,NA,NA,NA
SUPAMT54273,3TDXMTX3CHTK4DXEOC115423TLUI6T,AC8A4D77-3457-40EA-B70E-1FFF57E6474F,2023-09-27_08h10.52.260,WP_VExplicitOC_HL,2022.2.5,Win32,13.07787877,63.28125,3.3317,2.0703,NA,NA,NA,NA,NA,happy,"unhappy, happy","less happy, more happy",NA,NA,NA,NA,NA,NA,NA,NA,NA,NA,NA,NA,NA,NA,NA,NA,NA,NA,NA,NA,NA,NA,NA,NA,NA,NA,NA,NA,NA,NA,NA,NA,NA,NA,NA,NA,NA,NA,0,1,1,0,1,NA,NA,NA,NA,NA
SUPAMT54273,3TDXMTX3CHTK4DXEOC115423TLUI6T,AC8A4D77-3457-40EA-B70E-1FFF57E6474F,2023-09-27_08h10.52.260,WP_VExplicitOC_HL,2022.2.5,Win32,13.07787877,44.27083333,3.4027,2.014,NA,NA,NA,NA,NA,bored,"bored, not bored","more bored, less bored",NA,NA,NA,NA,NA,NA,NA,NA,NA,NA,NA,NA,NA,NA,NA,NA,NA,NA,NA,NA,NA,NA,NA,NA,NA,NA,NA,NA,NA,NA,NA,NA,NA,NA,NA,NA,NA,NA,0,2,2,2,1,NA,NA,NA,NA,NA
SUPAMT54273,3TDXMTX3CHTK4DXEOC115423TLUI6T,AC8A4D77-3457-40EA-B70E-1FFF57E6474F,2023-09-27_08h10.52.260,WP_VExplicitOC_HL,2022.2.5,Win32,13.07787877,NA,NA,NA,NA,NA,NA,NA,NA,NA,NA,NA,NA,NA,NA,NA,NA,NA,NA,NA,NA,NA,NA,NA,NA,NA,NA,NA,NA,NA,NA,NA,NA,NA,NA,NA,NA,NA,NA,NA,NA,NA,NA,NA,NA,NA,NA,NA,NA,NA,NA,NA,NA,NA,NA,11,0,11,0,1
SUPAMT54273,3TDXMTX3CHTK4DXEOC115423TLUI6T,AC8A4D77-3457-40EA-B70E-1FFF57E6474F,2023-09-27_08h10.52.260,WP_VExplicitOC_HL,2022.2.5,Win32,13.07787877,79.16666667,4.64,2.0273,NA,NA,NA,NA,NA,happy,"unhappy, happy","less happy, more happy",NA,NA,NA,NA,NA,NA,NA,NA,NA,NA,NA,NA,NA,NA,NA,NA,NA,NA,NA,NA,NA,NA,NA,NA,NA,NA,NA,NA,NA,NA,NA,NA,NA,NA,NA,NA,NA,NA,0,0,0,0,1,NA,NA,NA,NA,NA
SUPAMT54273,3TDXMTX3CHTK4DXEOC115423TLUI6T,AC8A4D77-3457-40EA-B70E-1FFF57E6474F,2023-09-27_08h10.52.260,WP_VExplicitOC_HL,2022.2.5,Win32,13.07787877,NA,NA,2.0174,NA,NA,NA,NA,NA,frustrated,"frustrated, not frustrated","more frustrated, less frustrated",NA,NA,NA,NA,NA,NA,NA,NA,NA,NA,NA,NA,NA,NA,NA,NA,NA,NA,NA,NA,NA,NA,NA,NA,NA,NA,NA,NA,NA,NA,NA,NA,NA,NA,NA,NA,NA,NA,0,1,1,1,1,NA,NA,NA,NA,NA
SUPAMT54273,3TDXMTX3CHTK4DXEOC115423TLUI6T,AC8A4D77-3457-40EA-B70E-1FFF57E6474F,2023-09-27_08h10.52.260,WP_VExplicitOC_HL,2022.2.5,Win32,13.07787877,51.30208333,3.4073,2.0688,NA,NA,NA,NA,NA,bored,"bored, not bored","more bored, less bored",NA,NA,NA,NA,NA,NA,NA,NA,NA,NA,NA,NA,NA,NA,NA,NA,NA,NA,NA,NA,NA,NA,NA,NA,NA,NA,NA,NA,NA,NA,NA,NA,NA,NA,NA,NA,NA,NA,0,2,2,2,1,NA,NA,NA,NA,NA
SUPAMT54273,3TDXMTX3CHTK4DXEOC115423TLUI6T,AC8A4D77-3457-40EA-B70E-1FFF57E6474F,2023-09-27_08h10.52.260,WP_VExplicitOC_HL,2022.2.5,Win32,13.07787877,NA,NA,NA,NA,NA,NA,NA,NA,NA,NA,NA,NA,NA,NA,NA,NA,NA,NA,NA,NA,NA,NA,NA,NA,NA,NA,NA,NA,NA,NA,NA,NA,NA,NA,NA,NA,NA,NA,NA,NA,NA,NA,NA,NA,NA,NA,NA,NA,NA,NA,NA,NA,NA,NA,12,0,12,0,1
SUPAMT54273,3TDXMTX3CHTK4DXEOC115423TLUI6T,AC8A4D77-3457-40EA-B70E-1FFF57E6474F,2023-09-27_08h10.52.260,WP_VExplicitOC_HL,2022.2.5,Win32,13.07787877,69.53125,3.2294,2.0117,NA,NA,NA,NA,NA,bored,"bored, not bored","more bored, less bored",NA,NA,NA,NA,NA,NA,NA,NA,NA,NA,NA,NA,NA,NA,NA,NA,NA,NA,NA,NA,NA,NA,NA,NA,NA,NA,NA,NA,NA,NA,NA,NA,NA,NA,NA,NA,NA,NA,0,0,0,2,1,NA,NA,NA,NA,NA
SUPAMT54273,3TDXMTX3CHTK4DXEOC115423TLUI6T,AC8A4D77-3457-40EA-B70E-1FFF57E6474F,2023-09-27_08h10.52.260,WP_VExplicitOC_HL,2022.2.5,Win32,13.07787877,67.44791667,3.3542,2.0415,NA,NA,NA,NA,NA,happy,"unhappy, happy","less happy, more happy",NA,NA,NA,NA,NA,NA,NA,NA,NA,NA,NA,NA,NA,NA,NA,NA,NA,NA,NA,NA,NA,NA,NA,NA,NA,NA,NA,NA,NA,NA,NA,NA,NA,NA,NA,NA,NA,NA,0,1,1,0,1,NA,NA,NA,NA,NA
SUPAMT54273,3TDXMTX3CHTK4DXEOC115423TLUI6T,AC8A4D77-3457-40EA-B70E-1FFF57E6474F,2023-09-27_08h10.52.260,WP_VExplicitOC_HL,2022.2.5,Win32,13.07787877,63.80208333,3.6113,2.0188,NA,NA,NA,NA,NA,frustrated,"frustrated, not frustrated","more frustrated, less frustrated",NA,NA,NA,NA,NA,NA,NA,NA,NA,NA,NA,NA,NA,NA,NA,NA,NA,NA,NA,NA,NA,NA,NA,NA,NA,NA,NA,NA,NA,NA,NA,NA,NA,NA,NA,NA,NA,NA,0,2,2,1,1,NA,NA,NA,NA,NA
SUPAMT54273,3TDXMTX3CHTK4DXEOC115423TLUI6T,AC8A4D77-3457-40EA-B70E-1FFF57E6474F,2023-09-27_08h10.52.260,WP_VExplicitOC_HL,2022.2.5,Win32,13.07787877,NA,NA,NA,NA,NA,NA,NA,NA,NA,NA,NA,NA,NA,NA,NA,NA,NA,NA,NA,NA,NA,NA,NA,NA,NA,NA,NA,NA,NA,NA,NA,NA,NA,NA,NA,NA,NA,NA,NA,NA,NA,NA,NA,NA,NA,NA,NA,NA,NA,NA,NA,NA,NA,NA,13,0,13,0,1
SUPAMT54273,3TDXMTX3CHTK4DXEOC115423TLUI6T,AC8A4D77-3457-40EA-B70E-1FFF57E6474F,2023-09-27_08h10.52.260,WP_VExplicitOC_HL,2022.2.5,Win32,13.07787877,33.07291667,4.5907,2.0562,NA,NA,NA,NA,NA,frustrated,"frustrated, not frustrated","more frustrated, less frustrated",NA,NA,NA,NA,NA,NA,NA,NA,NA,NA,NA,NA,NA,NA,NA,NA,NA,NA,NA,NA,NA,NA,NA,NA,NA,NA,NA,NA,NA,NA,NA,NA,NA,NA,NA,NA,NA,NA,0,0,0,1,1,NA,NA,NA,NA,NA
SUPAMT54273,3TDXMTX3CHTK4DXEOC115423TLUI6T,AC8A4D77-3457-40EA-B70E-1FFF57E6474F,2023-09-27_08h10.52.260,WP_VExplicitOC_HL,2022.2.5,Win32,13.07787877,67.70833333,3.5528,2,NA,NA,NA,NA,NA,happy,"unhappy, happy","less happy, more happy",NA,NA,NA,NA,NA,NA,NA,NA,NA,NA,NA,NA,NA,NA,NA,NA,NA,NA,NA,NA,NA,NA,NA,NA,NA,NA,NA,NA,NA,NA,NA,NA,NA,NA,NA,NA,NA,NA,0,1,1,0,1,NA,NA,NA,NA,NA
SUPAMT54273,3TDXMTX3CHTK4DXEOC115423TLUI6T,AC8A4D77-3457-40EA-B70E-1FFF57E6474F,2023-09-27_08h10.52.260,WP_VExplicitOC_HL,2022.2.5,Win32,13.07787877,61.45833333,4.6095,2.0148,NA,NA,NA,NA,NA,bored,"bored, not bored","more bored, less bored",NA,NA,NA,NA,NA,NA,NA,NA,NA,NA,NA,NA,NA,NA,NA,NA,NA,NA,NA,NA,NA,NA,NA,NA,NA,NA,NA,NA,NA,NA,NA,NA,NA,NA,NA,NA,NA,NA,0,2,2,2,1,NA,NA,NA,NA,NA
SUPAMT54273,3TDXMTX3CHTK4DXEOC115423TLUI6T,AC8A4D77-3457-40EA-B70E-1FFF57E6474F,2023-09-27_08h10.52.260,WP_VExplicitOC_HL,2022.2.5,Win32,13.07787877,NA,NA,NA,NA,NA,NA,NA,NA,NA,NA,NA,NA,NA,NA,NA,NA,NA,NA,NA,NA,NA,NA,NA,NA,NA,NA,NA,NA,NA,NA,NA,NA,NA,NA,NA,NA,NA,NA,NA,NA,NA,NA,NA,NA,NA,NA,NA,NA,NA,NA,NA,NA,NA,NA,14,0,14,0,1
SUPAMT54273,3TDXMTX3CHTK4DXEOC115423TLUI6T,AC8A4D77-3457-40EA-B70E-1FFF57E6474F,2023-09-27_08h10.52.260,WP_VExplicitOC_HL,2022.2.5,Win32,13.07787877,NA,NA,NA,NA,NA,NA,NA,NA,NA,NA,NA,NA,NA,NA,NA,NA,NA,NA,NA,NA,NA,NA,NA,NA,NA,NA,NA,NA,NA,NA,NA,NA,NA,NA,NA,NA,NA,NA,NA,NA,NA,NA,NA,NA,NA,NA,NA,NA,NA,NA,NA,NA,NA,NA,NA,NA,NA,NA,NA
