participant,session,completion,date,expName,psychopyVersion,OS,frameRate,rating_all.response,rating_all.rt,rating_all.tStart,rndRat1.thisRepN,rndRat1.thisTrialN,rndRat1.thisN,rndRat1.thisIndex,rndRat1.ran,Emo,Labs,Labs2,rating_alt.response,rating_alt.rt,AltC.thisRepN,AltC.thisTrialN,AltC.thisN,AltC.thisIndex,AltC.ran,alt_choices,pic_choices,BottomAlt_Choice,rndRat2.thisRepN,rndRat2.thisTrialN,rndRat2.thisN,rndRat2.thisIndex,rndRat2.ran,rndRat3.thisRepN,rndRat3.thisTrialN,rndRat3.thisN,rndRat3.thisIndex,rndRat3.ran,trials_FC_L.thisRepN,trials_FC_L.thisTrialN,trials_FC_L.thisN,trials_FC_L.thisIndex,trials_FC_L.ran,rating_alt_2.response,rating_alt_2.rt,AltC2.thisRepN,AltC2.thisTrialN,AltC2.thisN,AltC2.thisIndex,AltC2.ran,TopAlt_Choice,rndRat4.thisRepN,rndRat4.thisTrialN,rndRat4.thisN,rndRat4.thisIndex,rndRat4.ran,rndRat5.thisRepN,rndRat5.thisTrialN,rndRat5.thisN,rndRat5.thisIndex,rndRat5.ran,trials_FC_H.thisRepN,trials_FC_H.thisTrialN,trials_FC_H.thisN,trials_FC_H.thisIndex,trials_FC_H.ran
SUPAMT76549,351SEKWQS6G5L52KJE7733JCRO8DMJ,7EE1AE7D-553B-4AF1-A091-429090313195,2023-09-28_12h43.07.083,WP_VExplicitOC_LH,2022.2.5,Win32,11.76705929,NA,NA,NA,NA,NA,NA,NA,NA,NA,NA,NA,NA,NA,NA,NA,NA,NA,NA,NA,NA,NA,NA,NA,NA,NA,NA,NA,NA,NA,NA,NA,NA,NA,NA,NA,NA,NA,NA,NA,NA,NA,NA,NA,NA,NA,NA,NA,NA,NA,NA,NA,NA,NA,NA,NA,NA,NA,NA,NA
SUPAMT76549,351SEKWQS6G5L52KJE7733JCRO8DMJ,7EE1AE7D-553B-4AF1-A091-429090313195,2023-09-28_12h43.07.083,WP_VExplicitOC_LH,2022.2.5,Win32,11.76705929,NA,NA,NA,NA,NA,NA,NA,NA,NA,NA,NA,NA,NA,NA,NA,NA,NA,NA,NA,NA,NA,NA,NA,NA,NA,NA,NA,NA,NA,NA,NA,NA,NA,NA,NA,NA,NA,NA,NA,NA,NA,NA,NA,NA,NA,NA,NA,NA,NA,NA,NA,NA,NA,NA,NA,NA,NA,NA,NA
SUPAMT76549,351SEKWQS6G5L52KJE7733JCRO8DMJ,7EE1AE7D-553B-4AF1-A091-429090313195,2023-09-28_12h43.07.083,WP_VExplicitOC_LH,2022.2.5,Win32,11.76705929,NA,NA,NA,NA,NA,NA,NA,NA,NA,NA,NA,NA,NA,NA,NA,NA,NA,NA,NA,NA,NA,NA,NA,NA,NA,NA,NA,NA,NA,NA,NA,NA,NA,NA,NA,NA,NA,NA,NA,NA,NA,NA,NA,NA,NA,NA,NA,NA,NA,NA,NA,NA,NA,NA,NA,NA,NA,NA,NA
SUPAMT76549,351SEKWQS6G5L52KJE7733JCRO8DMJ,7EE1AE7D-553B-4AF1-A091-429090313195,2023-09-28_12h43.07.083,WP_VExplicitOC_LH,2022.2.5,Win32,11.76705929,-70.83333333,3.8104,2.0615,0,0,0,2,1,bored,"bored, not bored","more bored, less bored",NA,NA,NA,NA,NA,NA,NA,NA,NA,NA,NA,NA,NA,NA,NA,NA,NA,NA,NA,NA,NA,NA,NA,NA,NA,NA,NA,NA,NA,NA,NA,NA,NA,NA,NA,NA,NA,NA,NA,NA,NA,NA,NA,NA,NA,NA,NA,NA
SUPAMT76549,351SEKWQS6G5L52KJE7733JCRO8DMJ,7EE1AE7D-553B-4AF1-A091-429090313195,2023-09-28_12h43.07.083,WP_VExplicitOC_LH,2022.2.5,Win32,11.76705929,34.02777778,4.2437,2.0346,0,1,1,0,1,happy,"unhappy, happy","less happy, more happy",NA,NA,NA,NA,NA,NA,NA,NA,NA,NA,NA,NA,NA,NA,NA,NA,NA,NA,NA,NA,NA,NA,NA,NA,NA,NA,NA,NA,NA,NA,NA,NA,NA,NA,NA,NA,NA,NA,NA,NA,NA,NA,NA,NA,NA,NA,NA,NA
SUPAMT76549,351SEKWQS6G5L52KJE7733JCRO8DMJ,7EE1AE7D-553B-4AF1-A091-429090313195,2023-09-28_12h43.07.083,WP_VExplicitOC_LH,2022.2.5,Win32,11.76705929,49.58332909,4.1079,2.0948,0,2,2,1,1,frustrated,"frustrated, not frustrated","more frustrated, less frustrated",NA,NA,NA,NA,NA,NA,NA,NA,NA,NA,NA,NA,NA,NA,NA,NA,NA,NA,NA,NA,NA,NA,NA,NA,NA,NA,NA,NA,NA,NA,NA,NA,NA,NA,NA,NA,NA,NA,NA,NA,NA,NA,NA,NA,NA,NA,NA,NA
SUPAMT76549,351SEKWQS6G5L52KJE7733JCRO8DMJ,7EE1AE7D-553B-4AF1-A091-429090313195,2023-09-28_12h43.07.083,WP_VExplicitOC_LH,2022.2.5,Win32,11.76705929,NA,NA,NA,NA,NA,NA,NA,NA,NA,NA,NA,NA,NA,NA,NA,NA,NA,NA,NA,NA,NA,NA,NA,NA,NA,NA,NA,NA,NA,NA,NA,NA,NA,NA,NA,NA,NA,NA,NA,NA,NA,NA,NA,NA,NA,NA,NA,NA,NA,NA,NA,NA,NA,NA,NA,NA,NA,NA,NA
SUPAMT76549,351SEKWQS6G5L52KJE7733JCRO8DMJ,7EE1AE7D-553B-4AF1-A091-429090313195,2023-09-28_12h43.07.083,WP_VExplicitOC_LH,2022.2.5,Win32,11.76705929,NA,NA,NA,NA,NA,NA,NA,NA,NA,NA,NA,NA,NA,NA,NA,NA,NA,NA,NA,NA,NA,NA,NA,NA,NA,NA,NA,NA,NA,NA,NA,NA,NA,NA,NA,NA,NA,NA,NA,NA,NA,NA,NA,NA,NA,NA,NA,NA,NA,NA,NA,NA,NA,NA,NA,NA,NA,NA,NA
SUPAMT76549,351SEKWQS6G5L52KJE7733JCRO8DMJ,7EE1AE7D-553B-4AF1-A091-429090313195,2023-09-28_12h43.07.083,WP_VExplicitOC_LH,2022.2.5,Win32,11.76705929,NA,NA,NA,NA,NA,NA,NA,NA,NA,NA,NA,NA,NA,NA,NA,NA,NA,NA,NA,NA,NA,NA,NA,NA,NA,NA,NA,NA,NA,NA,NA,NA,NA,NA,NA,NA,NA,NA,NA,NA,NA,NA,NA,NA,NA,NA,NA,NA,NA,NA,NA,NA,NA,NA,NA,NA,NA,NA,NA
SUPAMT76549,351SEKWQS6G5L52KJE7733JCRO8DMJ,7EE1AE7D-553B-4AF1-A091-429090313195,2023-09-28_12h43.07.083,WP_VExplicitOC_LH,2022.2.5,Win32,11.76705929,NA,NA,NA,NA,NA,NA,NA,NA,NA,NA,NA,NA,NA,NA,NA,NA,NA,NA,NA,NA,NA,NA,NA,NA,NA,NA,NA,NA,NA,NA,NA,NA,NA,NA,NA,NA,NA,NA,NA,NA,NA,NA,NA,NA,NA,NA,NA,NA,NA,NA,NA,NA,NA,NA,NA,NA,NA,NA,NA
SUPAMT76549,351SEKWQS6G5L52KJE7733JCRO8DMJ,7EE1AE7D-553B-4AF1-A091-429090313195,2023-09-28_12h43.07.083,WP_VExplicitOC_LH,2022.2.5,Win32,11.76705929,NA,NA,NA,NA,NA,NA,NA,NA,NA,NA,NA,36.11111111,4.2345,0,0,0,0,1,rest (looking at a fixed cross),001.png,NA,NA,NA,NA,NA,NA,NA,NA,NA,NA,NA,NA,NA,NA,NA,NA,NA,NA,NA,NA,NA,NA,NA,NA,NA,NA,NA,NA,NA,NA,NA,NA,NA,NA,NA,NA,NA,NA,NA
SUPAMT76549,351SEKWQS6G5L52KJE7733JCRO8DMJ,7EE1AE7D-553B-4AF1-A091-429090313195,2023-09-28_12h43.07.083,WP_VExplicitOC_LH,2022.2.5,Win32,11.76705929,NA,NA,NA,NA,NA,NA,NA,NA,NA,NA,NA,68.47222646,3.4226,0,1,1,1,1,stand up,002.png,NA,NA,NA,NA,NA,NA,NA,NA,NA,NA,NA,NA,NA,NA,NA,NA,NA,NA,NA,NA,NA,NA,NA,NA,NA,NA,NA,NA,NA,NA,NA,NA,NA,NA,NA,NA,NA,NA,NA
SUPAMT76549,351SEKWQS6G5L52KJE7733JCRO8DMJ,7EE1AE7D-553B-4AF1-A091-429090313195,2023-09-28_12h43.07.083,WP_VExplicitOC_LH,2022.2.5,Win32,11.76705929,NA,NA,NA,NA,NA,NA,NA,NA,NA,NA,NA,-42.36111111,1.7631,0,2,2,2,1,stretch,003.png,NA,NA,NA,NA,NA,NA,NA,NA,NA,NA,NA,NA,NA,NA,NA,NA,NA,NA,NA,NA,NA,NA,NA,NA,NA,NA,NA,NA,NA,NA,NA,NA,NA,NA,NA,NA,NA,NA,NA
SUPAMT76549,351SEKWQS6G5L52KJE7733JCRO8DMJ,7EE1AE7D-553B-4AF1-A091-429090313195,2023-09-28_12h43.07.083,WP_VExplicitOC_LH,2022.2.5,Win32,11.76705929,NA,NA,NA,NA,NA,NA,NA,NA,NA,NA,NA,81.66667091,2.3463,0,3,3,3,1,make a drink,004.png,NA,NA,NA,NA,NA,NA,NA,NA,NA,NA,NA,NA,NA,NA,NA,NA,NA,NA,NA,NA,NA,NA,NA,NA,NA,NA,NA,NA,NA,NA,NA,NA,NA,NA,NA,NA,NA,NA,NA
SUPAMT76549,351SEKWQS6G5L52KJE7733JCRO8DMJ,7EE1AE7D-553B-4AF1-A091-429090313195,2023-09-28_12h43.07.083,WP_VExplicitOC_LH,2022.2.5,Win32,11.76705929,NA,NA,NA,NA,NA,NA,NA,NA,NA,NA,NA,36.25000848,1.584,0,4,4,4,1,scroll social media,005.png,NA,NA,NA,NA,NA,NA,NA,NA,NA,NA,NA,NA,NA,NA,NA,NA,NA,NA,NA,NA,NA,NA,NA,NA,NA,NA,NA,NA,NA,NA,NA,NA,NA,NA,NA,NA,NA,NA,NA
SUPAMT76549,351SEKWQS6G5L52KJE7733JCRO8DMJ,7EE1AE7D-553B-4AF1-A091-429090313195,2023-09-28_12h43.07.083,WP_VExplicitOC_LH,2022.2.5,Win32,11.76705929,NA,NA,NA,NA,NA,NA,NA,NA,NA,NA,NA,83.61110687,1.7694,0,5,5,5,1,listen to music,006.png,NA,NA,NA,NA,NA,NA,NA,NA,NA,NA,NA,NA,NA,NA,NA,NA,NA,NA,NA,NA,NA,NA,NA,NA,NA,NA,NA,NA,NA,NA,NA,NA,NA,NA,NA,NA,NA,NA,NA
SUPAMT76549,351SEKWQS6G5L52KJE7733JCRO8DMJ,7EE1AE7D-553B-4AF1-A091-429090313195,2023-09-28_12h43.07.083,WP_VExplicitOC_LH,2022.2.5,Win32,11.76705929,NA,NA,NA,NA,NA,NA,NA,NA,NA,NA,NA,17.36111111,2.2264,0,6,6,6,1,daydream,007.png,NA,NA,NA,NA,NA,NA,NA,NA,NA,NA,NA,NA,NA,NA,NA,NA,NA,NA,NA,NA,NA,NA,NA,NA,NA,NA,NA,NA,NA,NA,NA,NA,NA,NA,NA,NA,NA,NA,NA
SUPAMT76549,351SEKWQS6G5L52KJE7733JCRO8DMJ,7EE1AE7D-553B-4AF1-A091-429090313195,2023-09-28_12h43.07.083,WP_VExplicitOC_LH,2022.2.5,Win32,11.76705929,NA,NA,NA,NA,NA,NA,NA,NA,NA,NA,NA,50,1.9626,0,7,7,7,1,watch a short animation,008.png,NA,NA,NA,NA,NA,NA,NA,NA,NA,NA,NA,NA,NA,NA,NA,NA,NA,NA,NA,NA,NA,NA,NA,NA,NA,NA,NA,NA,NA,NA,NA,NA,NA,NA,NA,NA,NA,NA,NA
SUPAMT76549,351SEKWQS6G5L52KJE7733JCRO8DMJ,7EE1AE7D-553B-4AF1-A091-429090313195,2023-09-28_12h43.07.083,WP_VExplicitOC_LH,2022.2.5,Win32,11.76705929,NA,NA,NA,NA,NA,NA,NA,NA,NA,NA,NA,-32.22221798,1.7377,0,8,8,8,1,read a novel,009.png,NA,NA,NA,NA,NA,NA,NA,NA,NA,NA,NA,NA,NA,NA,NA,NA,NA,NA,NA,NA,NA,NA,NA,NA,NA,NA,NA,NA,NA,NA,NA,NA,NA,NA,NA,NA,NA,NA,NA
SUPAMT76549,351SEKWQS6G5L52KJE7733JCRO8DMJ,7EE1AE7D-553B-4AF1-A091-429090313195,2023-09-28_12h43.07.083,WP_VExplicitOC_LH,2022.2.5,Win32,11.76705929,NA,NA,NA,NA,NA,NA,NA,NA,NA,NA,NA,-80.69444233,1.4442,0,9,9,9,1,read the news,010.png,NA,NA,NA,NA,NA,NA,NA,NA,NA,NA,NA,NA,NA,NA,NA,NA,NA,NA,NA,NA,NA,NA,NA,NA,NA,NA,NA,NA,NA,NA,NA,NA,NA,NA,NA,NA,NA,NA,NA
SUPAMT76549,351SEKWQS6G5L52KJE7733JCRO8DMJ,7EE1AE7D-553B-4AF1-A091-429090313195,2023-09-28_12h43.07.083,WP_VExplicitOC_LH,2022.2.5,Win32,11.76705929,NA,NA,NA,NA,NA,NA,NA,NA,NA,NA,NA,NA,NA,NA,NA,NA,NA,NA,NA,NA,NA,NA,NA,NA,NA,NA,NA,NA,NA,NA,NA,NA,NA,NA,NA,NA,NA,NA,NA,NA,NA,NA,NA,NA,NA,NA,NA,NA,NA,NA,NA,NA,NA,NA,NA,NA,NA,NA,NA
SUPAMT76549,351SEKWQS6G5L52KJE7733JCRO8DMJ,7EE1AE7D-553B-4AF1-A091-429090313195,2023-09-28_12h43.07.083,WP_VExplicitOC_LH,2022.2.5,Win32,11.76705929,NA,NA,NA,NA,NA,NA,NA,NA,NA,NA,NA,NA,NA,NA,NA,NA,NA,NA,NA,NA,read the news,NA,NA,NA,NA,NA,NA,NA,NA,NA,NA,NA,NA,NA,NA,NA,NA,NA,NA,NA,NA,NA,NA,NA,NA,NA,NA,NA,NA,NA,NA,NA,NA,NA,NA,NA,NA,NA,NA
SUPAMT76549,351SEKWQS6G5L52KJE7733JCRO8DMJ,7EE1AE7D-553B-4AF1-A091-429090313195,2023-09-28_12h43.07.083,WP_VExplicitOC_LH,2022.2.5,Win32,11.76705929,35.97223494,5.4186,2.0413,NA,NA,NA,NA,NA,bored,"bored, not bored","more bored, less bored",NA,NA,NA,NA,NA,NA,NA,NA,NA,NA,0,0,0,2,1,NA,NA,NA,NA,NA,NA,NA,NA,NA,NA,NA,NA,NA,NA,NA,NA,NA,NA,NA,NA,NA,NA,NA,NA,NA,NA,NA,NA,NA,NA,NA,NA,NA
SUPAMT76549,351SEKWQS6G5L52KJE7733JCRO8DMJ,7EE1AE7D-553B-4AF1-A091-429090313195,2023-09-28_12h43.07.083,WP_VExplicitOC_LH,2022.2.5,Win32,11.76705929,27.50000424,3.0351,2.0343,NA,NA,NA,NA,NA,happy,"unhappy, happy","less happy, more happy",NA,NA,NA,NA,NA,NA,NA,NA,NA,NA,0,1,1,0,1,NA,NA,NA,NA,NA,NA,NA,NA,NA,NA,NA,NA,NA,NA,NA,NA,NA,NA,NA,NA,NA,NA,NA,NA,NA,NA,NA,NA,NA,NA,NA,NA,NA
SUPAMT76549,351SEKWQS6G5L52KJE7733JCRO8DMJ,7EE1AE7D-553B-4AF1-A091-429090313195,2023-09-28_12h43.07.083,WP_VExplicitOC_LH,2022.2.5,Win32,11.76705929,-30.41666879,3.1245,2.0365,NA,NA,NA,NA,NA,frustrated,"frustrated, not frustrated","more frustrated, less frustrated",NA,NA,NA,NA,NA,NA,NA,NA,NA,NA,0,2,2,1,1,NA,NA,NA,NA,NA,NA,NA,NA,NA,NA,NA,NA,NA,NA,NA,NA,NA,NA,NA,NA,NA,NA,NA,NA,NA,NA,NA,NA,NA,NA,NA,NA,NA
SUPAMT76549,351SEKWQS6G5L52KJE7733JCRO8DMJ,7EE1AE7D-553B-4AF1-A091-429090313195,2023-09-28_12h43.07.083,WP_VExplicitOC_LH,2022.2.5,Win32,11.76705929,NA,NA,NA,NA,NA,NA,NA,NA,NA,NA,NA,NA,NA,NA,NA,NA,NA,NA,NA,NA,NA,NA,NA,NA,NA,NA,NA,NA,NA,NA,NA,NA,NA,NA,NA,NA,NA,NA,NA,NA,NA,NA,NA,NA,NA,NA,NA,NA,NA,NA,NA,NA,NA,NA,NA,NA,NA,NA,NA
SUPAMT76549,351SEKWQS6G5L52KJE7733JCRO8DMJ,7EE1AE7D-553B-4AF1-A091-429090313195,2023-09-28_12h43.07.083,WP_VExplicitOC_LH,2022.2.5,Win32,11.76705929,NA,NA,NA,NA,NA,NA,NA,NA,NA,NA,NA,NA,NA,NA,NA,NA,NA,NA,NA,NA,NA,NA,NA,NA,NA,NA,NA,NA,NA,NA,NA,NA,NA,NA,NA,NA,NA,NA,NA,NA,NA,NA,NA,NA,NA,NA,NA,NA,NA,NA,NA,NA,NA,NA,NA,NA,NA,NA,NA
SUPAMT76549,351SEKWQS6G5L52KJE7733JCRO8DMJ,7EE1AE7D-553B-4AF1-A091-429090313195,2023-09-28_12h43.07.083,WP_VExplicitOC_LH,2022.2.5,Win32,11.76705929,-67.22222434,5.7878,2.0552,NA,NA,NA,NA,NA,bored,"bored, not bored","more bored, less bored",NA,NA,NA,NA,NA,NA,NA,NA,NA,NA,NA,NA,NA,NA,NA,0,0,0,2,1,NA,NA,NA,NA,NA,NA,NA,NA,NA,NA,NA,NA,NA,NA,NA,NA,NA,NA,NA,NA,NA,NA,NA,NA,NA,NA,NA,NA
SUPAMT76549,351SEKWQS6G5L52KJE7733JCRO8DMJ,7EE1AE7D-553B-4AF1-A091-429090313195,2023-09-28_12h43.07.083,WP_VExplicitOC_LH,2022.2.5,Win32,11.76705929,8.472230699,3.6935,2.0531,NA,NA,NA,NA,NA,happy,"unhappy, happy","less happy, more happy",NA,NA,NA,NA,NA,NA,NA,NA,NA,NA,NA,NA,NA,NA,NA,0,1,1,0,1,NA,NA,NA,NA,NA,NA,NA,NA,NA,NA,NA,NA,NA,NA,NA,NA,NA,NA,NA,NA,NA,NA,NA,NA,NA,NA,NA,NA
SUPAMT76549,351SEKWQS6G5L52KJE7733JCRO8DMJ,7EE1AE7D-553B-4AF1-A091-429090313195,2023-09-28_12h43.07.083,WP_VExplicitOC_LH,2022.2.5,Win32,11.76705929,-12.22221586,3.3948,2.0451,NA,NA,NA,NA,NA,frustrated,"frustrated, not frustrated","more frustrated, less frustrated",NA,NA,NA,NA,NA,NA,NA,NA,NA,NA,NA,NA,NA,NA,NA,0,2,2,1,1,NA,NA,NA,NA,NA,NA,NA,NA,NA,NA,NA,NA,NA,NA,NA,NA,NA,NA,NA,NA,NA,NA,NA,NA,NA,NA,NA,NA
SUPAMT76549,351SEKWQS6G5L52KJE7733JCRO8DMJ,7EE1AE7D-553B-4AF1-A091-429090313195,2023-09-28_12h43.07.083,WP_VExplicitOC_LH,2022.2.5,Win32,11.76705929,NA,NA,NA,NA,NA,NA,NA,NA,NA,NA,NA,NA,NA,NA,NA,NA,NA,NA,NA,NA,NA,NA,NA,NA,NA,NA,NA,NA,NA,NA,NA,0,0,0,0,1,NA,NA,NA,NA,NA,NA,NA,NA,NA,NA,NA,NA,NA,NA,NA,NA,NA,NA,NA,NA,NA,NA,NA
SUPAMT76549,351SEKWQS6G5L52KJE7733JCRO8DMJ,7EE1AE7D-553B-4AF1-A091-429090313195,2023-09-28_12h43.07.083,WP_VExplicitOC_LH,2022.2.5,Win32,11.76705929,-50.41666031,7.4636,2.0247,NA,NA,NA,NA,NA,frustrated,"frustrated, not frustrated","more frustrated, less frustrated",NA,NA,NA,NA,NA,NA,NA,NA,NA,NA,NA,NA,NA,NA,NA,0,0,0,1,1,NA,NA,NA,NA,NA,NA,NA,NA,NA,NA,NA,NA,NA,NA,NA,NA,NA,NA,NA,NA,NA,NA,NA,NA,NA,NA,NA,NA
SUPAMT76549,351SEKWQS6G5L52KJE7733JCRO8DMJ,7EE1AE7D-553B-4AF1-A091-429090313195,2023-09-28_12h43.07.083,WP_VExplicitOC_LH,2022.2.5,Win32,11.76705929,-55.83332909,4.6153,2.063,NA,NA,NA,NA,NA,bored,"bored, not bored","more bored, less bored",NA,NA,NA,NA,NA,NA,NA,NA,NA,NA,NA,NA,NA,NA,NA,0,1,1,2,1,NA,NA,NA,NA,NA,NA,NA,NA,NA,NA,NA,NA,NA,NA,NA,NA,NA,NA,NA,NA,NA,NA,NA,NA,NA,NA,NA,NA
SUPAMT76549,351SEKWQS6G5L52KJE7733JCRO8DMJ,7EE1AE7D-553B-4AF1-A091-429090313195,2023-09-28_12h43.07.083,WP_VExplicitOC_LH,2022.2.5,Win32,11.76705929,-18.75,3.8854,2.0533,NA,NA,NA,NA,NA,happy,"unhappy, happy","less happy, more happy",NA,NA,NA,NA,NA,NA,NA,NA,NA,NA,NA,NA,NA,NA,NA,0,2,2,0,1,NA,NA,NA,NA,NA,NA,NA,NA,NA,NA,NA,NA,NA,NA,NA,NA,NA,NA,NA,NA,NA,NA,NA,NA,NA,NA,NA,NA
SUPAMT76549,351SEKWQS6G5L52KJE7733JCRO8DMJ,7EE1AE7D-553B-4AF1-A091-429090313195,2023-09-28_12h43.07.083,WP_VExplicitOC_LH,2022.2.5,Win32,11.76705929,NA,NA,NA,NA,NA,NA,NA,NA,NA,NA,NA,NA,NA,NA,NA,NA,NA,NA,NA,NA,NA,NA,NA,NA,NA,NA,NA,NA,NA,NA,NA,1,0,1,0,1,NA,NA,NA,NA,NA,NA,NA,NA,NA,NA,NA,NA,NA,NA,NA,NA,NA,NA,NA,NA,NA,NA,NA
SUPAMT76549,351SEKWQS6G5L52KJE7733JCRO8DMJ,7EE1AE7D-553B-4AF1-A091-429090313195,2023-09-28_12h43.07.083,WP_VExplicitOC_LH,2022.2.5,Win32,11.76705929,-28.74999576,4.1307,2.0692,NA,NA,NA,NA,NA,happy,"unhappy, happy","less happy, more happy",NA,NA,NA,NA,NA,NA,NA,NA,NA,NA,NA,NA,NA,NA,NA,0,0,0,0,1,NA,NA,NA,NA,NA,NA,NA,NA,NA,NA,NA,NA,NA,NA,NA,NA,NA,NA,NA,NA,NA,NA,NA,NA,NA,NA,NA,NA
SUPAMT76549,351SEKWQS6G5L52KJE7733JCRO8DMJ,7EE1AE7D-553B-4AF1-A091-429090313195,2023-09-28_12h43.07.083,WP_VExplicitOC_LH,2022.2.5,Win32,11.76705929,-53.74999576,5.1261,2.0739,NA,NA,NA,NA,NA,bored,"bored, not bored","more bored, less bored",NA,NA,NA,NA,NA,NA,NA,NA,NA,NA,NA,NA,NA,NA,NA,0,1,1,2,1,NA,NA,NA,NA,NA,NA,NA,NA,NA,NA,NA,NA,NA,NA,NA,NA,NA,NA,NA,NA,NA,NA,NA,NA,NA,NA,NA,NA
SUPAMT76549,351SEKWQS6G5L52KJE7733JCRO8DMJ,7EE1AE7D-553B-4AF1-A091-429090313195,2023-09-28_12h43.07.083,WP_VExplicitOC_LH,2022.2.5,Win32,11.76705929,-31.25,3.5829,2.0463,NA,NA,NA,NA,NA,frustrated,"frustrated, not frustrated","more frustrated, less frustrated",NA,NA,NA,NA,NA,NA,NA,NA,NA,NA,NA,NA,NA,NA,NA,0,2,2,1,1,NA,NA,NA,NA,NA,NA,NA,NA,NA,NA,NA,NA,NA,NA,NA,NA,NA,NA,NA,NA,NA,NA,NA,NA,NA,NA,NA,NA
SUPAMT76549,351SEKWQS6G5L52KJE7733JCRO8DMJ,7EE1AE7D-553B-4AF1-A091-429090313195,2023-09-28_12h43.07.083,WP_VExplicitOC_LH,2022.2.5,Win32,11.76705929,NA,NA,NA,NA,NA,NA,NA,NA,NA,NA,NA,NA,NA,NA,NA,NA,NA,NA,NA,NA,NA,NA,NA,NA,NA,NA,NA,NA,NA,NA,NA,2,0,2,0,1,NA,NA,NA,NA,NA,NA,NA,NA,NA,NA,NA,NA,NA,NA,NA,NA,NA,NA,NA,NA,NA,NA,NA
SUPAMT76549,351SEKWQS6G5L52KJE7733JCRO8DMJ,7EE1AE7D-553B-4AF1-A091-429090313195,2023-09-28_12h43.07.083,WP_VExplicitOC_LH,2022.2.5,Win32,11.76705929,-58.74999364,5.7318,2.0444,NA,NA,NA,NA,NA,bored,"bored, not bored","more bored, less bored",NA,NA,NA,NA,NA,NA,NA,NA,NA,NA,NA,NA,NA,NA,NA,0,0,0,2,1,NA,NA,NA,NA,NA,NA,NA,NA,NA,NA,NA,NA,NA,NA,NA,NA,NA,NA,NA,NA,NA,NA,NA,NA,NA,NA,NA,NA
SUPAMT76549,351SEKWQS6G5L52KJE7733JCRO8DMJ,7EE1AE7D-553B-4AF1-A091-429090313195,2023-09-28_12h43.07.083,WP_VExplicitOC_LH,2022.2.5,Win32,11.76705929,-37.08332909,5.5264,2.0536,NA,NA,NA,NA,NA,happy,"unhappy, happy","less happy, more happy",NA,NA,NA,NA,NA,NA,NA,NA,NA,NA,NA,NA,NA,NA,NA,0,1,1,0,1,NA,NA,NA,NA,NA,NA,NA,NA,NA,NA,NA,NA,NA,NA,NA,NA,NA,NA,NA,NA,NA,NA,NA,NA,NA,NA,NA,NA
SUPAMT76549,351SEKWQS6G5L52KJE7733JCRO8DMJ,7EE1AE7D-553B-4AF1-A091-429090313195,2023-09-28_12h43.07.083,WP_VExplicitOC_LH,2022.2.5,Win32,11.76705929,-50.55555767,4.1266,2.0502,NA,NA,NA,NA,NA,frustrated,"frustrated, not frustrated","more frustrated, less frustrated",NA,NA,NA,NA,NA,NA,NA,NA,NA,NA,NA,NA,NA,NA,NA,0,2,2,1,1,NA,NA,NA,NA,NA,NA,NA,NA,NA,NA,NA,NA,NA,NA,NA,NA,NA,NA,NA,NA,NA,NA,NA,NA,NA,NA,NA,NA
SUPAMT76549,351SEKWQS6G5L52KJE7733JCRO8DMJ,7EE1AE7D-553B-4AF1-A091-429090313195,2023-09-28_12h43.07.083,WP_VExplicitOC_LH,2022.2.5,Win32,11.76705929,NA,NA,NA,NA,NA,NA,NA,NA,NA,NA,NA,NA,NA,NA,NA,NA,NA,NA,NA,NA,NA,NA,NA,NA,NA,NA,NA,NA,NA,NA,NA,3,0,3,0,1,NA,NA,NA,NA,NA,NA,NA,NA,NA,NA,NA,NA,NA,NA,NA,NA,NA,NA,NA,NA,NA,NA,NA
SUPAMT76549,351SEKWQS6G5L52KJE7733JCRO8DMJ,7EE1AE7D-553B-4AF1-A091-429090313195,2023-09-28_12h43.07.083,WP_VExplicitOC_LH,2022.2.5,Win32,11.76705929,NA,NA,2.0375,NA,NA,NA,NA,NA,bored,"bored, not bored","more bored, less bored",NA,NA,NA,NA,NA,NA,NA,NA,NA,NA,NA,NA,NA,NA,NA,0,0,0,2,1,NA,NA,NA,NA,NA,NA,NA,NA,NA,NA,NA,NA,NA,NA,NA,NA,NA,NA,NA,NA,NA,NA,NA,NA,NA,NA,NA,NA
SUPAMT76549,351SEKWQS6G5L52KJE7733JCRO8DMJ,7EE1AE7D-553B-4AF1-A091-429090313195,2023-09-28_12h43.07.083,WP_VExplicitOC_LH,2022.2.5,Win32,11.76705929,-23.88888465,3.4577,2.0257,NA,NA,NA,NA,NA,happy,"unhappy, happy","less happy, more happy",NA,NA,NA,NA,NA,NA,NA,NA,NA,NA,NA,NA,NA,NA,NA,0,1,1,0,1,NA,NA,NA,NA,NA,NA,NA,NA,NA,NA,NA,NA,NA,NA,NA,NA,NA,NA,NA,NA,NA,NA,NA,NA,NA,NA,NA,NA
SUPAMT76549,351SEKWQS6G5L52KJE7733JCRO8DMJ,7EE1AE7D-553B-4AF1-A091-429090313195,2023-09-28_12h43.07.083,WP_VExplicitOC_LH,2022.2.5,Win32,11.76705929,-39.3055492,4.3333,2.0418,NA,NA,NA,NA,NA,frustrated,"frustrated, not frustrated","more frustrated, less frustrated",NA,NA,NA,NA,NA,NA,NA,NA,NA,NA,NA,NA,NA,NA,NA,0,2,2,1,1,NA,NA,NA,NA,NA,NA,NA,NA,NA,NA,NA,NA,NA,NA,NA,NA,NA,NA,NA,NA,NA,NA,NA,NA,NA,NA,NA,NA
SUPAMT76549,351SEKWQS6G5L52KJE7733JCRO8DMJ,7EE1AE7D-553B-4AF1-A091-429090313195,2023-09-28_12h43.07.083,WP_VExplicitOC_LH,2022.2.5,Win32,11.76705929,NA,NA,NA,NA,NA,NA,NA,NA,NA,NA,NA,NA,NA,NA,NA,NA,NA,NA,NA,NA,NA,NA,NA,NA,NA,NA,NA,NA,NA,NA,NA,4,0,4,0,1,NA,NA,NA,NA,NA,NA,NA,NA,NA,NA,NA,NA,NA,NA,NA,NA,NA,NA,NA,NA,NA,NA,NA
SUPAMT76549,351SEKWQS6G5L52KJE7733JCRO8DMJ,7EE1AE7D-553B-4AF1-A091-429090313195,2023-09-28_12h43.07.083,WP_VExplicitOC_LH,2022.2.5,Win32,11.76705929,-47.49999576,3.9463,2.0794,NA,NA,NA,NA,NA,frustrated,"frustrated, not frustrated","more frustrated, less frustrated",NA,NA,NA,NA,NA,NA,NA,NA,NA,NA,NA,NA,NA,NA,NA,0,0,0,1,1,NA,NA,NA,NA,NA,NA,NA,NA,NA,NA,NA,NA,NA,NA,NA,NA,NA,NA,NA,NA,NA,NA,NA,NA,NA,NA,NA,NA
SUPAMT76549,351SEKWQS6G5L52KJE7733JCRO8DMJ,7EE1AE7D-553B-4AF1-A091-429090313195,2023-09-28_12h43.07.083,WP_VExplicitOC_LH,2022.2.5,Win32,11.76705929,-25.97221798,4.6867,2.0258,NA,NA,NA,NA,NA,happy,"unhappy, happy","less happy, more happy",NA,NA,NA,NA,NA,NA,NA,NA,NA,NA,NA,NA,NA,NA,NA,0,1,1,0,1,NA,NA,NA,NA,NA,NA,NA,NA,NA,NA,NA,NA,NA,NA,NA,NA,NA,NA,NA,NA,NA,NA,NA,NA,NA,NA,NA,NA
SUPAMT76549,351SEKWQS6G5L52KJE7733JCRO8DMJ,7EE1AE7D-553B-4AF1-A091-429090313195,2023-09-28_12h43.07.083,WP_VExplicitOC_LH,2022.2.5,Win32,11.76705929,-63.61110475,4.1802,2.0382,NA,NA,NA,NA,NA,bored,"bored, not bored","more bored, less bored",NA,NA,NA,NA,NA,NA,NA,NA,NA,NA,NA,NA,NA,NA,NA,0,2,2,2,1,NA,NA,NA,NA,NA,NA,NA,NA,NA,NA,NA,NA,NA,NA,NA,NA,NA,NA,NA,NA,NA,NA,NA,NA,NA,NA,NA,NA
SUPAMT76549,351SEKWQS6G5L52KJE7733JCRO8DMJ,7EE1AE7D-553B-4AF1-A091-429090313195,2023-09-28_12h43.07.083,WP_VExplicitOC_LH,2022.2.5,Win32,11.76705929,NA,NA,NA,NA,NA,NA,NA,NA,NA,NA,NA,NA,NA,NA,NA,NA,NA,NA,NA,NA,NA,NA,NA,NA,NA,NA,NA,NA,NA,NA,NA,5,0,5,0,1,NA,NA,NA,NA,NA,NA,NA,NA,NA,NA,NA,NA,NA,NA,NA,NA,NA,NA,NA,NA,NA,NA,NA
SUPAMT76549,351SEKWQS6G5L52KJE7733JCRO8DMJ,7EE1AE7D-553B-4AF1-A091-429090313195,2023-09-28_12h43.07.083,WP_VExplicitOC_LH,2022.2.5,Win32,11.76705929,-54.58332698,4.0897,2.0687,NA,NA,NA,NA,NA,bored,"bored, not bored","more bored, less bored",NA,NA,NA,NA,NA,NA,NA,NA,NA,NA,NA,NA,NA,NA,NA,0,0,0,2,1,NA,NA,NA,NA,NA,NA,NA,NA,NA,NA,NA,NA,NA,NA,NA,NA,NA,NA,NA,NA,NA,NA,NA,NA,NA,NA,NA,NA
SUPAMT76549,351SEKWQS6G5L52KJE7733JCRO8DMJ,7EE1AE7D-553B-4AF1-A091-429090313195,2023-09-28_12h43.07.083,WP_VExplicitOC_LH,2022.2.5,Win32,11.76705929,-27.49999364,4.11,2.0046,NA,NA,NA,NA,NA,happy,"unhappy, happy","less happy, more happy",NA,NA,NA,NA,NA,NA,NA,NA,NA,NA,NA,NA,NA,NA,NA,0,1,1,0,1,NA,NA,NA,NA,NA,NA,NA,NA,NA,NA,NA,NA,NA,NA,NA,NA,NA,NA,NA,NA,NA,NA,NA,NA,NA,NA,NA,NA
SUPAMT76549,351SEKWQS6G5L52KJE7733JCRO8DMJ,7EE1AE7D-553B-4AF1-A091-429090313195,2023-09-28_12h43.07.083,WP_VExplicitOC_LH,2022.2.5,Win32,11.76705929,-31.52777354,3.7165,2.085,NA,NA,NA,NA,NA,frustrated,"frustrated, not frustrated","more frustrated, less frustrated",NA,NA,NA,NA,NA,NA,NA,NA,NA,NA,NA,NA,NA,NA,NA,0,2,2,1,1,NA,NA,NA,NA,NA,NA,NA,NA,NA,NA,NA,NA,NA,NA,NA,NA,NA,NA,NA,NA,NA,NA,NA,NA,NA,NA,NA,NA
SUPAMT76549,351SEKWQS6G5L52KJE7733JCRO8DMJ,7EE1AE7D-553B-4AF1-A091-429090313195,2023-09-28_12h43.07.083,WP_VExplicitOC_LH,2022.2.5,Win32,11.76705929,NA,NA,NA,NA,NA,NA,NA,NA,NA,NA,NA,NA,NA,NA,NA,NA,NA,NA,NA,NA,NA,NA,NA,NA,NA,NA,NA,NA,NA,NA,NA,6,0,6,0,1,NA,NA,NA,NA,NA,NA,NA,NA,NA,NA,NA,NA,NA,NA,NA,NA,NA,NA,NA,NA,NA,NA,NA
SUPAMT76549,351SEKWQS6G5L52KJE7733JCRO8DMJ,7EE1AE7D-553B-4AF1-A091-429090313195,2023-09-28_12h43.07.083,WP_VExplicitOC_LH,2022.2.5,Win32,11.76705929,-28.05555132,4.5661,2.0532,NA,NA,NA,NA,NA,happy,"unhappy, happy","less happy, more happy",NA,NA,NA,NA,NA,NA,NA,NA,NA,NA,NA,NA,NA,NA,NA,0,0,0,0,1,NA,NA,NA,NA,NA,NA,NA,NA,NA,NA,NA,NA,NA,NA,NA,NA,NA,NA,NA,NA,NA,NA,NA,NA,NA,NA,NA,NA
SUPAMT76549,351SEKWQS6G5L52KJE7733JCRO8DMJ,7EE1AE7D-553B-4AF1-A091-429090313195,2023-09-28_12h43.07.083,WP_VExplicitOC_LH,2022.2.5,Win32,11.76705929,-67.91666879,4.9827,2.0543,NA,NA,NA,NA,NA,bored,"bored, not bored","more bored, less bored",NA,NA,NA,NA,NA,NA,NA,NA,NA,NA,NA,NA,NA,NA,NA,0,1,1,2,1,NA,NA,NA,NA,NA,NA,NA,NA,NA,NA,NA,NA,NA,NA,NA,NA,NA,NA,NA,NA,NA,NA,NA,NA,NA,NA,NA,NA
SUPAMT76549,351SEKWQS6G5L52KJE7733JCRO8DMJ,7EE1AE7D-553B-4AF1-A091-429090313195,2023-09-28_12h43.07.083,WP_VExplicitOC_LH,2022.2.5,Win32,11.76705929,-52.77777778,4.0852,2.0464,NA,NA,NA,NA,NA,frustrated,"frustrated, not frustrated","more frustrated, less frustrated",NA,NA,NA,NA,NA,NA,NA,NA,NA,NA,NA,NA,NA,NA,NA,0,2,2,1,1,NA,NA,NA,NA,NA,NA,NA,NA,NA,NA,NA,NA,NA,NA,NA,NA,NA,NA,NA,NA,NA,NA,NA,NA,NA,NA,NA,NA
SUPAMT76549,351SEKWQS6G5L52KJE7733JCRO8DMJ,7EE1AE7D-553B-4AF1-A091-429090313195,2023-09-28_12h43.07.083,WP_VExplicitOC_LH,2022.2.5,Win32,11.76705929,NA,NA,NA,NA,NA,NA,NA,NA,NA,NA,NA,NA,NA,NA,NA,NA,NA,NA,NA,NA,NA,NA,NA,NA,NA,NA,NA,NA,NA,NA,NA,7,0,7,0,1,NA,NA,NA,NA,NA,NA,NA,NA,NA,NA,NA,NA,NA,NA,NA,NA,NA,NA,NA,NA,NA,NA,NA
SUPAMT76549,351SEKWQS6G5L52KJE7733JCRO8DMJ,7EE1AE7D-553B-4AF1-A091-429090313195,2023-09-28_12h43.07.083,WP_VExplicitOC_LH,2022.2.5,Win32,11.76705929,-24.16666879,3.805,2.0753,NA,NA,NA,NA,NA,frustrated,"frustrated, not frustrated","more frustrated, less frustrated",NA,NA,NA,NA,NA,NA,NA,NA,NA,NA,NA,NA,NA,NA,NA,0,0,0,1,1,NA,NA,NA,NA,NA,NA,NA,NA,NA,NA,NA,NA,NA,NA,NA,NA,NA,NA,NA,NA,NA,NA,NA,NA,NA,NA,NA,NA
SUPAMT76549,351SEKWQS6G5L52KJE7733JCRO8DMJ,7EE1AE7D-553B-4AF1-A091-429090313195,2023-09-28_12h43.07.083,WP_VExplicitOC_LH,2022.2.5,Win32,11.76705929,-74.58332909,5.3523,2.0141,NA,NA,NA,NA,NA,bored,"bored, not bored","more bored, less bored",NA,NA,NA,NA,NA,NA,NA,NA,NA,NA,NA,NA,NA,NA,NA,0,1,1,2,1,NA,NA,NA,NA,NA,NA,NA,NA,NA,NA,NA,NA,NA,NA,NA,NA,NA,NA,NA,NA,NA,NA,NA,NA,NA,NA,NA,NA
SUPAMT76549,351SEKWQS6G5L52KJE7733JCRO8DMJ,7EE1AE7D-553B-4AF1-A091-429090313195,2023-09-28_12h43.07.083,WP_VExplicitOC_LH,2022.2.5,Win32,11.76705929,-45.13888889,4.8717,2.0606,NA,NA,NA,NA,NA,happy,"unhappy, happy","less happy, more happy",NA,NA,NA,NA,NA,NA,NA,NA,NA,NA,NA,NA,NA,NA,NA,0,2,2,0,1,NA,NA,NA,NA,NA,NA,NA,NA,NA,NA,NA,NA,NA,NA,NA,NA,NA,NA,NA,NA,NA,NA,NA,NA,NA,NA,NA,NA
SUPAMT76549,351SEKWQS6G5L52KJE7733JCRO8DMJ,7EE1AE7D-553B-4AF1-A091-429090313195,2023-09-28_12h43.07.083,WP_VExplicitOC_LH,2022.2.5,Win32,11.76705929,NA,NA,NA,NA,NA,NA,NA,NA,NA,NA,NA,NA,NA,NA,NA,NA,NA,NA,NA,NA,NA,NA,NA,NA,NA,NA,NA,NA,NA,NA,NA,8,0,8,0,1,NA,NA,NA,NA,NA,NA,NA,NA,NA,NA,NA,NA,NA,NA,NA,NA,NA,NA,NA,NA,NA,NA,NA
SUPAMT76549,351SEKWQS6G5L52KJE7733JCRO8DMJ,7EE1AE7D-553B-4AF1-A091-429090313195,2023-09-28_12h43.07.083,WP_VExplicitOC_LH,2022.2.5,Win32,11.76705929,-39.16666243,4.0195,2.0738,NA,NA,NA,NA,NA,happy,"unhappy, happy","less happy, more happy",NA,NA,NA,NA,NA,NA,NA,NA,NA,NA,NA,NA,NA,NA,NA,0,0,0,0,1,NA,NA,NA,NA,NA,NA,NA,NA,NA,NA,NA,NA,NA,NA,NA,NA,NA,NA,NA,NA,NA,NA,NA,NA,NA,NA,NA,NA
SUPAMT76549,351SEKWQS6G5L52KJE7733JCRO8DMJ,7EE1AE7D-553B-4AF1-A091-429090313195,2023-09-28_12h43.07.083,WP_VExplicitOC_LH,2022.2.5,Win32,11.76705929,-72.63888253,6.3795,2.0906,NA,NA,NA,NA,NA,bored,"bored, not bored","more bored, less bored",NA,NA,NA,NA,NA,NA,NA,NA,NA,NA,NA,NA,NA,NA,NA,0,1,1,2,1,NA,NA,NA,NA,NA,NA,NA,NA,NA,NA,NA,NA,NA,NA,NA,NA,NA,NA,NA,NA,NA,NA,NA,NA,NA,NA,NA,NA
SUPAMT76549,351SEKWQS6G5L52KJE7733JCRO8DMJ,7EE1AE7D-553B-4AF1-A091-429090313195,2023-09-28_12h43.07.083,WP_VExplicitOC_LH,2022.2.5,Win32,11.76705929,-42.63888465,4.5619,2.1035,NA,NA,NA,NA,NA,frustrated,"frustrated, not frustrated","more frustrated, less frustrated",NA,NA,NA,NA,NA,NA,NA,NA,NA,NA,NA,NA,NA,NA,NA,0,2,2,1,1,NA,NA,NA,NA,NA,NA,NA,NA,NA,NA,NA,NA,NA,NA,NA,NA,NA,NA,NA,NA,NA,NA,NA,NA,NA,NA,NA,NA
SUPAMT76549,351SEKWQS6G5L52KJE7733JCRO8DMJ,7EE1AE7D-553B-4AF1-A091-429090313195,2023-09-28_12h43.07.083,WP_VExplicitOC_LH,2022.2.5,Win32,11.76705929,NA,NA,NA,NA,NA,NA,NA,NA,NA,NA,NA,NA,NA,NA,NA,NA,NA,NA,NA,NA,NA,NA,NA,NA,NA,NA,NA,NA,NA,NA,NA,9,0,9,0,1,NA,NA,NA,NA,NA,NA,NA,NA,NA,NA,NA,NA,NA,NA,NA,NA,NA,NA,NA,NA,NA,NA,NA
SUPAMT76549,351SEKWQS6G5L52KJE7733JCRO8DMJ,7EE1AE7D-553B-4AF1-A091-429090313195,2023-09-28_12h43.07.083,WP_VExplicitOC_LH,2022.2.5,Win32,11.76705929,-45.83333333,5.7264,2.0263,NA,NA,NA,NA,NA,frustrated,"frustrated, not frustrated","more frustrated, less frustrated",NA,NA,NA,NA,NA,NA,NA,NA,NA,NA,NA,NA,NA,NA,NA,0,0,0,1,1,NA,NA,NA,NA,NA,NA,NA,NA,NA,NA,NA,NA,NA,NA,NA,NA,NA,NA,NA,NA,NA,NA,NA,NA,NA,NA,NA,NA
SUPAMT76549,351SEKWQS6G5L52KJE7733JCRO8DMJ,7EE1AE7D-553B-4AF1-A091-429090313195,2023-09-28_12h43.07.083,WP_VExplicitOC_LH,2022.2.5,Win32,11.76705929,-54.44444021,4.0694,2.0784,NA,NA,NA,NA,NA,happy,"unhappy, happy","less happy, more happy",NA,NA,NA,NA,NA,NA,NA,NA,NA,NA,NA,NA,NA,NA,NA,0,1,1,0,1,NA,NA,NA,NA,NA,NA,NA,NA,NA,NA,NA,NA,NA,NA,NA,NA,NA,NA,NA,NA,NA,NA,NA,NA,NA,NA,NA,NA
SUPAMT76549,351SEKWQS6G5L52KJE7733JCRO8DMJ,7EE1AE7D-553B-4AF1-A091-429090313195,2023-09-28_12h43.07.083,WP_VExplicitOC_LH,2022.2.5,Win32,11.76705929,-100,3.34,2.0705,NA,NA,NA,NA,NA,bored,"bored, not bored","more bored, less bored",NA,NA,NA,NA,NA,NA,NA,NA,NA,NA,NA,NA,NA,NA,NA,0,2,2,2,1,NA,NA,NA,NA,NA,NA,NA,NA,NA,NA,NA,NA,NA,NA,NA,NA,NA,NA,NA,NA,NA,NA,NA,NA,NA,NA,NA,NA
SUPAMT76549,351SEKWQS6G5L52KJE7733JCRO8DMJ,7EE1AE7D-553B-4AF1-A091-429090313195,2023-09-28_12h43.07.083,WP_VExplicitOC_LH,2022.2.5,Win32,11.76705929,NA,NA,NA,NA,NA,NA,NA,NA,NA,NA,NA,NA,NA,NA,NA,NA,NA,NA,NA,NA,NA,NA,NA,NA,NA,NA,NA,NA,NA,NA,NA,10,0,10,0,1,NA,NA,NA,NA,NA,NA,NA,NA,NA,NA,NA,NA,NA,NA,NA,NA,NA,NA,NA,NA,NA,NA,NA
SUPAMT76549,351SEKWQS6G5L52KJE7733JCRO8DMJ,7EE1AE7D-553B-4AF1-A091-429090313195,2023-09-28_12h43.07.083,WP_VExplicitOC_LH,2022.2.5,Win32,11.76705929,-33.33333333,5.4186,2.0438,NA,NA,NA,NA,NA,happy,"unhappy, happy","less happy, more happy",NA,NA,NA,NA,NA,NA,NA,NA,NA,NA,NA,NA,NA,NA,NA,0,0,0,0,1,NA,NA,NA,NA,NA,NA,NA,NA,NA,NA,NA,NA,NA,NA,NA,NA,NA,NA,NA,NA,NA,NA,NA,NA,NA,NA,NA,NA
SUPAMT76549,351SEKWQS6G5L52KJE7733JCRO8DMJ,7EE1AE7D-553B-4AF1-A091-429090313195,2023-09-28_12h43.07.083,WP_VExplicitOC_LH,2022.2.5,Win32,11.76705929,-46.24999364,3.2645,2.0243,NA,NA,NA,NA,NA,frustrated,"frustrated, not frustrated","more frustrated, less frustrated",NA,NA,NA,NA,NA,NA,NA,NA,NA,NA,NA,NA,NA,NA,NA,0,1,1,1,1,NA,NA,NA,NA,NA,NA,NA,NA,NA,NA,NA,NA,NA,NA,NA,NA,NA,NA,NA,NA,NA,NA,NA,NA,NA,NA,NA,NA
SUPAMT76549,351SEKWQS6G5L52KJE7733JCRO8DMJ,7EE1AE7D-553B-4AF1-A091-429090313195,2023-09-28_12h43.07.083,WP_VExplicitOC_LH,2022.2.5,Win32,11.76705929,-73.47222434,3.8347,2.0477,NA,NA,NA,NA,NA,bored,"bored, not bored","more bored, less bored",NA,NA,NA,NA,NA,NA,NA,NA,NA,NA,NA,NA,NA,NA,NA,0,2,2,2,1,NA,NA,NA,NA,NA,NA,NA,NA,NA,NA,NA,NA,NA,NA,NA,NA,NA,NA,NA,NA,NA,NA,NA,NA,NA,NA,NA,NA
SUPAMT76549,351SEKWQS6G5L52KJE7733JCRO8DMJ,7EE1AE7D-553B-4AF1-A091-429090313195,2023-09-28_12h43.07.083,WP_VExplicitOC_LH,2022.2.5,Win32,11.76705929,NA,NA,NA,NA,NA,NA,NA,NA,NA,NA,NA,NA,NA,NA,NA,NA,NA,NA,NA,NA,NA,NA,NA,NA,NA,NA,NA,NA,NA,NA,NA,11,0,11,0,1,NA,NA,NA,NA,NA,NA,NA,NA,NA,NA,NA,NA,NA,NA,NA,NA,NA,NA,NA,NA,NA,NA,NA
SUPAMT76549,351SEKWQS6G5L52KJE7733JCRO8DMJ,7EE1AE7D-553B-4AF1-A091-429090313195,2023-09-28_12h43.07.083,WP_VExplicitOC_LH,2022.2.5,Win32,11.76705929,-30.27777142,3.9521,2.0164,NA,NA,NA,NA,NA,happy,"unhappy, happy","less happy, more happy",NA,NA,NA,NA,NA,NA,NA,NA,NA,NA,NA,NA,NA,NA,NA,0,0,0,0,1,NA,NA,NA,NA,NA,NA,NA,NA,NA,NA,NA,NA,NA,NA,NA,NA,NA,NA,NA,NA,NA,NA,NA,NA,NA,NA,NA,NA
SUPAMT76549,351SEKWQS6G5L52KJE7733JCRO8DMJ,7EE1AE7D-553B-4AF1-A091-429090313195,2023-09-28_12h43.07.083,WP_VExplicitOC_LH,2022.2.5,Win32,11.76705929,-54.58332698,4.3051,2.0153,NA,NA,NA,NA,NA,frustrated,"frustrated, not frustrated","more frustrated, less frustrated",NA,NA,NA,NA,NA,NA,NA,NA,NA,NA,NA,NA,NA,NA,NA,0,1,1,1,1,NA,NA,NA,NA,NA,NA,NA,NA,NA,NA,NA,NA,NA,NA,NA,NA,NA,NA,NA,NA,NA,NA,NA,NA,NA,NA,NA,NA
SUPAMT76549,351SEKWQS6G5L52KJE7733JCRO8DMJ,7EE1AE7D-553B-4AF1-A091-429090313195,2023-09-28_12h43.07.083,WP_VExplicitOC_LH,2022.2.5,Win32,11.76705929,-100,3.8843,2.0221,NA,NA,NA,NA,NA,bored,"bored, not bored","more bored, less bored",NA,NA,NA,NA,NA,NA,NA,NA,NA,NA,NA,NA,NA,NA,NA,0,2,2,2,1,NA,NA,NA,NA,NA,NA,NA,NA,NA,NA,NA,NA,NA,NA,NA,NA,NA,NA,NA,NA,NA,NA,NA,NA,NA,NA,NA,NA
SUPAMT76549,351SEKWQS6G5L52KJE7733JCRO8DMJ,7EE1AE7D-553B-4AF1-A091-429090313195,2023-09-28_12h43.07.083,WP_VExplicitOC_LH,2022.2.5,Win32,11.76705929,NA,NA,NA,NA,NA,NA,NA,NA,NA,NA,NA,NA,NA,NA,NA,NA,NA,NA,NA,NA,NA,NA,NA,NA,NA,NA,NA,NA,NA,NA,NA,12,0,12,0,1,NA,NA,NA,NA,NA,NA,NA,NA,NA,NA,NA,NA,NA,NA,NA,NA,NA,NA,NA,NA,NA,NA,NA
SUPAMT76549,351SEKWQS6G5L52KJE7733JCRO8DMJ,7EE1AE7D-553B-4AF1-A091-429090313195,2023-09-28_12h43.07.083,WP_VExplicitOC_LH,2022.2.5,Win32,11.76705929,-57.08333121,4.9201,2.0587,NA,NA,NA,NA,NA,bored,"bored, not bored","more bored, less bored",NA,NA,NA,NA,NA,NA,NA,NA,NA,NA,NA,NA,NA,NA,NA,0,0,0,2,1,NA,NA,NA,NA,NA,NA,NA,NA,NA,NA,NA,NA,NA,NA,NA,NA,NA,NA,NA,NA,NA,NA,NA,NA,NA,NA,NA,NA
SUPAMT76549,351SEKWQS6G5L52KJE7733JCRO8DMJ,7EE1AE7D-553B-4AF1-A091-429090313195,2023-09-28_12h43.07.083,WP_VExplicitOC_LH,2022.2.5,Win32,11.76705929,-50.97221798,5.8887,2.0414,NA,NA,NA,NA,NA,happy,"unhappy, happy","less happy, more happy",NA,NA,NA,NA,NA,NA,NA,NA,NA,NA,NA,NA,NA,NA,NA,0,1,1,0,1,NA,NA,NA,NA,NA,NA,NA,NA,NA,NA,NA,NA,NA,NA,NA,NA,NA,NA,NA,NA,NA,NA,NA,NA,NA,NA,NA,NA
SUPAMT76549,351SEKWQS6G5L52KJE7733JCRO8DMJ,7EE1AE7D-553B-4AF1-A091-429090313195,2023-09-28_12h43.07.083,WP_VExplicitOC_LH,2022.2.5,Win32,11.76705929,-95.83333333,3.5687,2.1019,NA,NA,NA,NA,NA,frustrated,"frustrated, not frustrated","more frustrated, less frustrated",NA,NA,NA,NA,NA,NA,NA,NA,NA,NA,NA,NA,NA,NA,NA,0,2,2,1,1,NA,NA,NA,NA,NA,NA,NA,NA,NA,NA,NA,NA,NA,NA,NA,NA,NA,NA,NA,NA,NA,NA,NA,NA,NA,NA,NA,NA
SUPAMT76549,351SEKWQS6G5L52KJE7733JCRO8DMJ,7EE1AE7D-553B-4AF1-A091-429090313195,2023-09-28_12h43.07.083,WP_VExplicitOC_LH,2022.2.5,Win32,11.76705929,NA,NA,NA,NA,NA,NA,NA,NA,NA,NA,NA,NA,NA,NA,NA,NA,NA,NA,NA,NA,NA,NA,NA,NA,NA,NA,NA,NA,NA,NA,NA,13,0,13,0,1,NA,NA,NA,NA,NA,NA,NA,NA,NA,NA,NA,NA,NA,NA,NA,NA,NA,NA,NA,NA,NA,NA,NA
SUPAMT76549,351SEKWQS6G5L52KJE7733JCRO8DMJ,7EE1AE7D-553B-4AF1-A091-429090313195,2023-09-28_12h43.07.083,WP_VExplicitOC_LH,2022.2.5,Win32,11.76705929,-50,5.0677,2.0248,NA,NA,NA,NA,NA,happy,"unhappy, happy","less happy, more happy",NA,NA,NA,NA,NA,NA,NA,NA,NA,NA,NA,NA,NA,NA,NA,0,0,0,0,1,NA,NA,NA,NA,NA,NA,NA,NA,NA,NA,NA,NA,NA,NA,NA,NA,NA,NA,NA,NA,NA,NA,NA,NA,NA,NA,NA,NA
SUPAMT76549,351SEKWQS6G5L52KJE7733JCRO8DMJ,7EE1AE7D-553B-4AF1-A091-429090313195,2023-09-28_12h43.07.083,WP_VExplicitOC_LH,2022.2.5,Win32,11.76705929,-100,3.5651,2.0423,NA,NA,NA,NA,NA,bored,"bored, not bored","more bored, less bored",NA,NA,NA,NA,NA,NA,NA,NA,NA,NA,NA,NA,NA,NA,NA,0,1,1,2,1,NA,NA,NA,NA,NA,NA,NA,NA,NA,NA,NA,NA,NA,NA,NA,NA,NA,NA,NA,NA,NA,NA,NA,NA,NA,NA,NA,NA
SUPAMT76549,351SEKWQS6G5L52KJE7733JCRO8DMJ,7EE1AE7D-553B-4AF1-A091-429090313195,2023-09-28_12h43.07.083,WP_VExplicitOC_LH,2022.2.5,Win32,11.76705929,-70.13888889,3.6849,2.0097,NA,NA,NA,NA,NA,frustrated,"frustrated, not frustrated","more frustrated, less frustrated",NA,NA,NA,NA,NA,NA,NA,NA,NA,NA,NA,NA,NA,NA,NA,0,2,2,1,1,NA,NA,NA,NA,NA,NA,NA,NA,NA,NA,NA,NA,NA,NA,NA,NA,NA,NA,NA,NA,NA,NA,NA,NA,NA,NA,NA,NA
SUPAMT76549,351SEKWQS6G5L52KJE7733JCRO8DMJ,7EE1AE7D-553B-4AF1-A091-429090313195,2023-09-28_12h43.07.083,WP_VExplicitOC_LH,2022.2.5,Win32,11.76705929,NA,NA,NA,NA,NA,NA,NA,NA,NA,NA,NA,NA,NA,NA,NA,NA,NA,NA,NA,NA,NA,NA,NA,NA,NA,NA,NA,NA,NA,NA,NA,14,0,14,0,1,NA,NA,NA,NA,NA,NA,NA,NA,NA,NA,NA,NA,NA,NA,NA,NA,NA,NA,NA,NA,NA,NA,NA
SUPAMT76549,351SEKWQS6G5L52KJE7733JCRO8DMJ,7EE1AE7D-553B-4AF1-A091-429090313195,2023-09-28_12h43.07.083,WP_VExplicitOC_LH,2022.2.5,Win32,11.76705929,NA,NA,NA,NA,NA,NA,NA,NA,NA,NA,NA,NA,NA,NA,NA,NA,NA,NA,NA,NA,NA,NA,NA,NA,NA,NA,NA,NA,NA,NA,NA,NA,NA,NA,NA,NA,NA,NA,NA,NA,NA,NA,NA,NA,NA,NA,NA,NA,NA,NA,NA,NA,NA,NA,NA,NA,NA,NA,NA
SUPAMT76549,351SEKWQS6G5L52KJE7733JCRO8DMJ,7EE1AE7D-553B-4AF1-A091-429090313195,2023-09-28_12h43.07.083,WP_VExplicitOC_LH,2022.2.5,Win32,11.76705929,NA,NA,NA,NA,NA,NA,NA,NA,NA,NA,NA,NA,NA,NA,NA,NA,NA,NA,NA,NA,NA,NA,NA,NA,NA,NA,NA,NA,NA,NA,NA,NA,NA,NA,NA,NA,NA,NA,NA,NA,NA,NA,NA,NA,NA,NA,NA,NA,NA,NA,NA,NA,NA,NA,NA,NA,NA,NA,NA
SUPAMT76549,351SEKWQS6G5L52KJE7733JCRO8DMJ,7EE1AE7D-553B-4AF1-A091-429090313195,2023-09-28_12h43.07.083,WP_VExplicitOC_LH,2022.2.5,Win32,11.76705929,NA,NA,NA,NA,NA,NA,NA,NA,NA,NA,NA,NA,NA,NA,NA,NA,NA,NA,rest (looking at a fixed cross),001.png,NA,NA,NA,NA,NA,NA,NA,NA,NA,NA,NA,NA,NA,NA,NA,NA,-21.24999364,6.2164,0,0,0,0,1,NA,NA,NA,NA,NA,NA,NA,NA,NA,NA,NA,NA,NA,NA,NA,NA
SUPAMT76549,351SEKWQS6G5L52KJE7733JCRO8DMJ,7EE1AE7D-553B-4AF1-A091-429090313195,2023-09-28_12h43.07.083,WP_VExplicitOC_LH,2022.2.5,Win32,11.76705929,NA,NA,NA,NA,NA,NA,NA,NA,NA,NA,NA,NA,NA,NA,NA,NA,NA,NA,stand up,002.png,NA,NA,NA,NA,NA,NA,NA,NA,NA,NA,NA,NA,NA,NA,NA,NA,44.58334181,2.3023,0,1,1,1,1,NA,NA,NA,NA,NA,NA,NA,NA,NA,NA,NA,NA,NA,NA,NA,NA
SUPAMT76549,351SEKWQS6G5L52KJE7733JCRO8DMJ,7EE1AE7D-553B-4AF1-A091-429090313195,2023-09-28_12h43.07.083,WP_VExplicitOC_LH,2022.2.5,Win32,11.76705929,NA,NA,NA,NA,NA,NA,NA,NA,NA,NA,NA,NA,NA,NA,NA,NA,NA,NA,stretch,003.png,NA,NA,NA,NA,NA,NA,NA,NA,NA,NA,NA,NA,NA,NA,NA,NA,35.13889313,1.9327,0,2,2,2,1,NA,NA,NA,NA,NA,NA,NA,NA,NA,NA,NA,NA,NA,NA,NA,NA
SUPAMT76549,351SEKWQS6G5L52KJE7733JCRO8DMJ,7EE1AE7D-553B-4AF1-A091-429090313195,2023-09-28_12h43.07.083,WP_VExplicitOC_LH,2022.2.5,Win32,11.76705929,NA,NA,NA,NA,NA,NA,NA,NA,NA,NA,NA,NA,NA,NA,NA,NA,NA,NA,make a drink,004.png,NA,NA,NA,NA,NA,NA,NA,NA,NA,NA,NA,NA,NA,NA,NA,NA,81.80556827,2.8495,0,3,3,3,1,NA,NA,NA,NA,NA,NA,NA,NA,NA,NA,NA,NA,NA,NA,NA,NA
SUPAMT76549,351SEKWQS6G5L52KJE7733JCRO8DMJ,7EE1AE7D-553B-4AF1-A091-429090313195,2023-09-28_12h43.07.083,WP_VExplicitOC_LH,2022.2.5,Win32,11.76705929,NA,NA,NA,NA,NA,NA,NA,NA,NA,NA,NA,NA,NA,NA,NA,NA,NA,NA,scroll social media,005.png,NA,NA,NA,NA,NA,NA,NA,NA,NA,NA,NA,NA,NA,NA,NA,NA,48.05556403,3.6986,0,4,4,4,1,NA,NA,NA,NA,NA,NA,NA,NA,NA,NA,NA,NA,NA,NA,NA,NA
SUPAMT76549,351SEKWQS6G5L52KJE7733JCRO8DMJ,7EE1AE7D-553B-4AF1-A091-429090313195,2023-09-28_12h43.07.083,WP_VExplicitOC_LH,2022.2.5,Win32,11.76705929,NA,NA,NA,NA,NA,NA,NA,NA,NA,NA,NA,NA,NA,NA,NA,NA,NA,NA,listen to music,006.png,NA,NA,NA,NA,NA,NA,NA,NA,NA,NA,NA,NA,NA,NA,NA,NA,84.72222222,2.1935,0,5,5,5,1,NA,NA,NA,NA,NA,NA,NA,NA,NA,NA,NA,NA,NA,NA,NA,NA
SUPAMT76549,351SEKWQS6G5L52KJE7733JCRO8DMJ,7EE1AE7D-553B-4AF1-A091-429090313195,2023-09-28_12h43.07.083,WP_VExplicitOC_LH,2022.2.5,Win32,11.76705929,NA,NA,NA,NA,NA,NA,NA,NA,NA,NA,NA,NA,NA,NA,NA,NA,NA,NA,daydream,007.png,NA,NA,NA,NA,NA,NA,NA,NA,NA,NA,NA,NA,NA,NA,NA,NA,43.19445292,1.5741,0,6,6,6,1,NA,NA,NA,NA,NA,NA,NA,NA,NA,NA,NA,NA,NA,NA,NA,NA
SUPAMT76549,351SEKWQS6G5L52KJE7733JCRO8DMJ,7EE1AE7D-553B-4AF1-A091-429090313195,2023-09-28_12h43.07.083,WP_VExplicitOC_LH,2022.2.5,Win32,11.76705929,NA,NA,NA,NA,NA,NA,NA,NA,NA,NA,NA,NA,NA,NA,NA,NA,NA,NA,watch a short animation,008.png,NA,NA,NA,NA,NA,NA,NA,NA,NA,NA,NA,NA,NA,NA,NA,NA,66.80556403,5.2016,0,7,7,7,1,NA,NA,NA,NA,NA,NA,NA,NA,NA,NA,NA,NA,NA,NA,NA,NA
SUPAMT76549,351SEKWQS6G5L52KJE7733JCRO8DMJ,7EE1AE7D-553B-4AF1-A091-429090313195,2023-09-28_12h43.07.083,WP_VExplicitOC_LH,2022.2.5,Win32,11.76705929,NA,NA,NA,NA,NA,NA,NA,NA,NA,NA,NA,NA,NA,NA,NA,NA,NA,NA,read a novel,009.png,NA,NA,NA,NA,NA,NA,NA,NA,NA,NA,NA,NA,NA,NA,NA,NA,-18.33332909,1.7886,0,8,8,8,1,NA,NA,NA,NA,NA,NA,NA,NA,NA,NA,NA,NA,NA,NA,NA,NA
SUPAMT76549,351SEKWQS6G5L52KJE7733JCRO8DMJ,7EE1AE7D-553B-4AF1-A091-429090313195,2023-09-28_12h43.07.083,WP_VExplicitOC_LH,2022.2.5,Win32,11.76705929,NA,NA,NA,NA,NA,NA,NA,NA,NA,NA,NA,NA,NA,NA,NA,NA,NA,NA,read the news,010.png,NA,NA,NA,NA,NA,NA,NA,NA,NA,NA,NA,NA,NA,NA,NA,NA,-34.30555132,1.445,0,9,9,9,1,NA,NA,NA,NA,NA,NA,NA,NA,NA,NA,NA,NA,NA,NA,NA,NA
SUPAMT76549,351SEKWQS6G5L52KJE7733JCRO8DMJ,7EE1AE7D-553B-4AF1-A091-429090313195,2023-09-28_12h43.07.083,WP_VExplicitOC_LH,2022.2.5,Win32,11.76705929,NA,NA,NA,NA,NA,NA,NA,NA,NA,NA,NA,NA,NA,NA,NA,NA,NA,NA,NA,NA,NA,NA,NA,NA,NA,NA,NA,NA,NA,NA,NA,NA,NA,NA,NA,NA,NA,NA,NA,NA,NA,NA,NA,listen to music,NA,NA,NA,NA,NA,NA,NA,NA,NA,NA,NA,NA,NA,NA,NA
SUPAMT76549,351SEKWQS6G5L52KJE7733JCRO8DMJ,7EE1AE7D-553B-4AF1-A091-429090313195,2023-09-28_12h43.07.083,WP_VExplicitOC_LH,2022.2.5,Win32,11.76705929,-71.24999364,5.1713,2.0613,NA,NA,NA,NA,NA,frustrated,"frustrated, not frustrated","more frustrated, less frustrated",NA,NA,NA,NA,NA,NA,NA,NA,NA,NA,NA,NA,NA,NA,NA,NA,NA,NA,NA,NA,NA,NA,NA,NA,NA,NA,NA,NA,NA,NA,NA,NA,NA,0,0,0,1,1,NA,NA,NA,NA,NA,NA,NA,NA,NA,NA
SUPAMT76549,351SEKWQS6G5L52KJE7733JCRO8DMJ,7EE1AE7D-553B-4AF1-A091-429090313195,2023-09-28_12h43.07.083,WP_VExplicitOC_LH,2022.2.5,Win32,11.76705929,-85.2777799,5.5652,2.0564,NA,NA,NA,NA,NA,bored,"bored, not bored","more bored, less bored",NA,NA,NA,NA,NA,NA,NA,NA,NA,NA,NA,NA,NA,NA,NA,NA,NA,NA,NA,NA,NA,NA,NA,NA,NA,NA,NA,NA,NA,NA,NA,NA,NA,0,1,1,2,1,NA,NA,NA,NA,NA,NA,NA,NA,NA,NA
SUPAMT76549,351SEKWQS6G5L52KJE7733JCRO8DMJ,7EE1AE7D-553B-4AF1-A091-429090313195,2023-09-28_12h43.07.083,WP_VExplicitOC_LH,2022.2.5,Win32,11.76705929,-61.24999788,3.6696,2.0601,NA,NA,NA,NA,NA,happy,"unhappy, happy","less happy, more happy",NA,NA,NA,NA,NA,NA,NA,NA,NA,NA,NA,NA,NA,NA,NA,NA,NA,NA,NA,NA,NA,NA,NA,NA,NA,NA,NA,NA,NA,NA,NA,NA,NA,0,2,2,0,1,NA,NA,NA,NA,NA,NA,NA,NA,NA,NA
SUPAMT76549,351SEKWQS6G5L52KJE7733JCRO8DMJ,7EE1AE7D-553B-4AF1-A091-429090313195,2023-09-28_12h43.07.083,WP_VExplicitOC_LH,2022.2.5,Win32,11.76705929,NA,NA,NA,NA,NA,NA,NA,NA,NA,NA,NA,NA,NA,NA,NA,NA,NA,NA,NA,NA,NA,NA,NA,NA,NA,NA,NA,NA,NA,NA,NA,NA,NA,NA,NA,NA,NA,NA,NA,NA,NA,NA,NA,NA,NA,NA,NA,NA,NA,NA,NA,NA,NA,NA,NA,NA,NA,NA,NA
SUPAMT76549,351SEKWQS6G5L52KJE7733JCRO8DMJ,7EE1AE7D-553B-4AF1-A091-429090313195,2023-09-28_12h43.07.083,WP_VExplicitOC_LH,2022.2.5,Win32,11.76705929,NA,NA,NA,NA,NA,NA,NA,NA,NA,NA,NA,NA,NA,NA,NA,NA,NA,NA,NA,NA,NA,NA,NA,NA,NA,NA,NA,NA,NA,NA,NA,NA,NA,NA,NA,NA,NA,NA,NA,NA,NA,NA,NA,NA,NA,NA,NA,NA,NA,NA,NA,NA,NA,NA,NA,NA,NA,NA,NA
SUPAMT76549,351SEKWQS6G5L52KJE7733JCRO8DMJ,7EE1AE7D-553B-4AF1-A091-429090313195,2023-09-28_12h43.07.083,WP_VExplicitOC_LH,2022.2.5,Win32,11.76705929,-54.58332698,4.3525,2.0337,NA,NA,NA,NA,NA,happy,"unhappy, happy","less happy, more happy",NA,NA,NA,NA,NA,NA,NA,NA,NA,NA,NA,NA,NA,NA,NA,NA,NA,NA,NA,NA,NA,NA,NA,NA,NA,NA,NA,NA,NA,NA,NA,NA,NA,NA,NA,NA,NA,NA,0,0,0,0,1,NA,NA,NA,NA,NA
SUPAMT76549,351SEKWQS6G5L52KJE7733JCRO8DMJ,7EE1AE7D-553B-4AF1-A091-429090313195,2023-09-28_12h43.07.083,WP_VExplicitOC_LH,2022.2.5,Win32,11.76705929,-56.38888677,4.5601,2.0553,NA,NA,NA,NA,NA,frustrated,"frustrated, not frustrated","more frustrated, less frustrated",NA,NA,NA,NA,NA,NA,NA,NA,NA,NA,NA,NA,NA,NA,NA,NA,NA,NA,NA,NA,NA,NA,NA,NA,NA,NA,NA,NA,NA,NA,NA,NA,NA,NA,NA,NA,NA,NA,0,1,1,1,1,NA,NA,NA,NA,NA
SUPAMT76549,351SEKWQS6G5L52KJE7733JCRO8DMJ,7EE1AE7D-553B-4AF1-A091-429090313195,2023-09-28_12h43.07.083,WP_VExplicitOC_LH,2022.2.5,Win32,11.76705929,-80.27777142,5.144,2.0867,NA,NA,NA,NA,NA,bored,"bored, not bored","more bored, less bored",NA,NA,NA,NA,NA,NA,NA,NA,NA,NA,NA,NA,NA,NA,NA,NA,NA,NA,NA,NA,NA,NA,NA,NA,NA,NA,NA,NA,NA,NA,NA,NA,NA,NA,NA,NA,NA,NA,0,2,2,2,1,NA,NA,NA,NA,NA
SUPAMT76549,351SEKWQS6G5L52KJE7733JCRO8DMJ,7EE1AE7D-553B-4AF1-A091-429090313195,2023-09-28_12h43.07.083,WP_VExplicitOC_LH,2022.2.5,Win32,11.76705929,NA,NA,NA,NA,NA,NA,NA,NA,NA,NA,NA,NA,NA,NA,NA,NA,NA,NA,NA,NA,NA,NA,NA,NA,NA,NA,NA,NA,NA,NA,NA,NA,NA,NA,NA,NA,NA,NA,NA,NA,NA,NA,NA,NA,NA,NA,NA,NA,NA,NA,NA,NA,NA,NA,0,0,0,0,1
SUPAMT76549,351SEKWQS6G5L52KJE7733JCRO8DMJ,7EE1AE7D-553B-4AF1-A091-429090313195,2023-09-28_12h43.07.083,WP_VExplicitOC_LH,2022.2.5,Win32,11.76705929,-74.30555556,5.5328,2.0474,NA,NA,NA,NA,NA,frustrated,"frustrated, not frustrated","more frustrated, less frustrated",NA,NA,NA,NA,NA,NA,NA,NA,NA,NA,NA,NA,NA,NA,NA,NA,NA,NA,NA,NA,NA,NA,NA,NA,NA,NA,NA,NA,NA,NA,NA,NA,NA,NA,NA,NA,NA,NA,0,0,0,1,1,NA,NA,NA,NA,NA
SUPAMT76549,351SEKWQS6G5L52KJE7733JCRO8DMJ,7EE1AE7D-553B-4AF1-A091-429090313195,2023-09-28_12h43.07.083,WP_VExplicitOC_LH,2022.2.5,Win32,11.76705929,-100,3.6228,2.0736,NA,NA,NA,NA,NA,bored,"bored, not bored","more bored, less bored",NA,NA,NA,NA,NA,NA,NA,NA,NA,NA,NA,NA,NA,NA,NA,NA,NA,NA,NA,NA,NA,NA,NA,NA,NA,NA,NA,NA,NA,NA,NA,NA,NA,NA,NA,NA,NA,NA,0,1,1,2,1,NA,NA,NA,NA,NA
SUPAMT76549,351SEKWQS6G5L52KJE7733JCRO8DMJ,7EE1AE7D-553B-4AF1-A091-429090313195,2023-09-28_12h43.07.083,WP_VExplicitOC_LH,2022.2.5,Win32,11.76705929,-52.36110687,4.9026,2.0729,NA,NA,NA,NA,NA,happy,"unhappy, happy","less happy, more happy",NA,NA,NA,NA,NA,NA,NA,NA,NA,NA,NA,NA,NA,NA,NA,NA,NA,NA,NA,NA,NA,NA,NA,NA,NA,NA,NA,NA,NA,NA,NA,NA,NA,NA,NA,NA,NA,NA,0,2,2,0,1,NA,NA,NA,NA,NA
SUPAMT76549,351SEKWQS6G5L52KJE7733JCRO8DMJ,7EE1AE7D-553B-4AF1-A091-429090313195,2023-09-28_12h43.07.083,WP_VExplicitOC_LH,2022.2.5,Win32,11.76705929,NA,NA,NA,NA,NA,NA,NA,NA,NA,NA,NA,NA,NA,NA,NA,NA,NA,NA,NA,NA,NA,NA,NA,NA,NA,NA,NA,NA,NA,NA,NA,NA,NA,NA,NA,NA,NA,NA,NA,NA,NA,NA,NA,NA,NA,NA,NA,NA,NA,NA,NA,NA,NA,NA,1,0,1,0,1
SUPAMT76549,351SEKWQS6G5L52KJE7733JCRO8DMJ,7EE1AE7D-553B-4AF1-A091-429090313195,2023-09-28_12h43.07.083,WP_VExplicitOC_LH,2022.2.5,Win32,11.76705929,-90.69444338,4.9783,2.0381,NA,NA,NA,NA,NA,bored,"bored, not bored","more bored, less bored",NA,NA,NA,NA,NA,NA,NA,NA,NA,NA,NA,NA,NA,NA,NA,NA,NA,NA,NA,NA,NA,NA,NA,NA,NA,NA,NA,NA,NA,NA,NA,NA,NA,NA,NA,NA,NA,NA,0,0,0,2,1,NA,NA,NA,NA,NA
SUPAMT76549,351SEKWQS6G5L52KJE7733JCRO8DMJ,7EE1AE7D-553B-4AF1-A091-429090313195,2023-09-28_12h43.07.083,WP_VExplicitOC_LH,2022.2.5,Win32,11.76705929,-63.88888889,5.65,2.0342,NA,NA,NA,NA,NA,frustrated,"frustrated, not frustrated","more frustrated, less frustrated",NA,NA,NA,NA,NA,NA,NA,NA,NA,NA,NA,NA,NA,NA,NA,NA,NA,NA,NA,NA,NA,NA,NA,NA,NA,NA,NA,NA,NA,NA,NA,NA,NA,NA,NA,NA,NA,NA,0,1,1,1,1,NA,NA,NA,NA,NA
SUPAMT76549,351SEKWQS6G5L52KJE7733JCRO8DMJ,7EE1AE7D-553B-4AF1-A091-429090313195,2023-09-28_12h43.07.083,WP_VExplicitOC_LH,2022.2.5,Win32,11.76705929,-47.49999576,5.3365,2.0997,NA,NA,NA,NA,NA,happy,"unhappy, happy","less happy, more happy",NA,NA,NA,NA,NA,NA,NA,NA,NA,NA,NA,NA,NA,NA,NA,NA,NA,NA,NA,NA,NA,NA,NA,NA,NA,NA,NA,NA,NA,NA,NA,NA,NA,NA,NA,NA,NA,NA,0,2,2,0,1,NA,NA,NA,NA,NA
SUPAMT76549,351SEKWQS6G5L52KJE7733JCRO8DMJ,7EE1AE7D-553B-4AF1-A091-429090313195,2023-09-28_12h43.07.083,WP_VExplicitOC_LH,2022.2.5,Win32,11.76705929,NA,NA,NA,NA,NA,NA,NA,NA,NA,NA,NA,NA,NA,NA,NA,NA,NA,NA,NA,NA,NA,NA,NA,NA,NA,NA,NA,NA,NA,NA,NA,NA,NA,NA,NA,NA,NA,NA,NA,NA,NA,NA,NA,NA,NA,NA,NA,NA,NA,NA,NA,NA,NA,NA,2,0,2,0,1
SUPAMT76549,351SEKWQS6G5L52KJE7733JCRO8DMJ,7EE1AE7D-553B-4AF1-A091-429090313195,2023-09-28_12h43.07.083,WP_VExplicitOC_LH,2022.2.5,Win32,11.76705929,-91.11110899,6.7626,2.0911,NA,NA,NA,NA,NA,bored,"bored, not bored","more bored, less bored",NA,NA,NA,NA,NA,NA,NA,NA,NA,NA,NA,NA,NA,NA,NA,NA,NA,NA,NA,NA,NA,NA,NA,NA,NA,NA,NA,NA,NA,NA,NA,NA,NA,NA,NA,NA,NA,NA,0,0,0,2,1,NA,NA,NA,NA,NA
SUPAMT76549,351SEKWQS6G5L52KJE7733JCRO8DMJ,7EE1AE7D-553B-4AF1-A091-429090313195,2023-09-28_12h43.07.083,WP_VExplicitOC_LH,2022.2.5,Win32,11.76705929,-47.22222222,4.7596,2.0599,NA,NA,NA,NA,NA,happy,"unhappy, happy","less happy, more happy",NA,NA,NA,NA,NA,NA,NA,NA,NA,NA,NA,NA,NA,NA,NA,NA,NA,NA,NA,NA,NA,NA,NA,NA,NA,NA,NA,NA,NA,NA,NA,NA,NA,NA,NA,NA,NA,NA,0,1,1,0,1,NA,NA,NA,NA,NA
SUPAMT76549,351SEKWQS6G5L52KJE7733JCRO8DMJ,7EE1AE7D-553B-4AF1-A091-429090313195,2023-09-28_12h43.07.083,WP_VExplicitOC_LH,2022.2.5,Win32,11.76705929,-81.66666031,4.8568,2.072,NA,NA,NA,NA,NA,frustrated,"frustrated, not frustrated","more frustrated, less frustrated",NA,NA,NA,NA,NA,NA,NA,NA,NA,NA,NA,NA,NA,NA,NA,NA,NA,NA,NA,NA,NA,NA,NA,NA,NA,NA,NA,NA,NA,NA,NA,NA,NA,NA,NA,NA,NA,NA,0,2,2,1,1,NA,NA,NA,NA,NA
SUPAMT76549,351SEKWQS6G5L52KJE7733JCRO8DMJ,7EE1AE7D-553B-4AF1-A091-429090313195,2023-09-28_12h43.07.083,WP_VExplicitOC_LH,2022.2.5,Win32,11.76705929,NA,NA,NA,NA,NA,NA,NA,NA,NA,NA,NA,NA,NA,NA,NA,NA,NA,NA,NA,NA,NA,NA,NA,NA,NA,NA,NA,NA,NA,NA,NA,NA,NA,NA,NA,NA,NA,NA,NA,NA,NA,NA,NA,NA,NA,NA,NA,NA,NA,NA,NA,NA,NA,NA,3,0,3,0,1
SUPAMT76549,351SEKWQS6G5L52KJE7733JCRO8DMJ,7EE1AE7D-553B-4AF1-A091-429090313195,2023-09-28_12h43.07.083,WP_VExplicitOC_LH,2022.2.5,Win32,11.76705929,-63.61110475,6.8381,2.0848,NA,NA,NA,NA,NA,frustrated,"frustrated, not frustrated","more frustrated, less frustrated",NA,NA,NA,NA,NA,NA,NA,NA,NA,NA,NA,NA,NA,NA,NA,NA,NA,NA,NA,NA,NA,NA,NA,NA,NA,NA,NA,NA,NA,NA,NA,NA,NA,NA,NA,NA,NA,NA,0,0,0,1,1,NA,NA,NA,NA,NA
SUPAMT76549,351SEKWQS6G5L52KJE7733JCRO8DMJ,7EE1AE7D-553B-4AF1-A091-429090313195,2023-09-28_12h43.07.083,WP_VExplicitOC_LH,2022.2.5,Win32,11.76705929,-28.61110899,3.8954,2.0272,NA,NA,NA,NA,NA,happy,"unhappy, happy","less happy, more happy",NA,NA,NA,NA,NA,NA,NA,NA,NA,NA,NA,NA,NA,NA,NA,NA,NA,NA,NA,NA,NA,NA,NA,NA,NA,NA,NA,NA,NA,NA,NA,NA,NA,NA,NA,NA,NA,NA,0,1,1,0,1,NA,NA,NA,NA,NA
SUPAMT76549,351SEKWQS6G5L52KJE7733JCRO8DMJ,7EE1AE7D-553B-4AF1-A091-429090313195,2023-09-28_12h43.07.083,WP_VExplicitOC_LH,2022.2.5,Win32,11.76705929,-95.83333333,4.4097,2.076,NA,NA,NA,NA,NA,bored,"bored, not bored","more bored, less bored",NA,NA,NA,NA,NA,NA,NA,NA,NA,NA,NA,NA,NA,NA,NA,NA,NA,NA,NA,NA,NA,NA,NA,NA,NA,NA,NA,NA,NA,NA,NA,NA,NA,NA,NA,NA,NA,NA,0,2,2,2,1,NA,NA,NA,NA,NA
SUPAMT76549,351SEKWQS6G5L52KJE7733JCRO8DMJ,7EE1AE7D-553B-4AF1-A091-429090313195,2023-09-28_12h43.07.083,WP_VExplicitOC_LH,2022.2.5,Win32,11.76705929,NA,NA,NA,NA,NA,NA,NA,NA,NA,NA,NA,NA,NA,NA,NA,NA,NA,NA,NA,NA,NA,NA,NA,NA,NA,NA,NA,NA,NA,NA,NA,NA,NA,NA,NA,NA,NA,NA,NA,NA,NA,NA,NA,NA,NA,NA,NA,NA,NA,NA,NA,NA,NA,NA,4,0,4,0,1
SUPAMT76549,351SEKWQS6G5L52KJE7733JCRO8DMJ,7EE1AE7D-553B-4AF1-A091-429090313195,2023-09-28_12h43.07.083,WP_VExplicitOC_LH,2022.2.5,Win32,11.76705929,-92.77777672,5.1296,2.0996,NA,NA,NA,NA,NA,bored,"bored, not bored","more bored, less bored",NA,NA,NA,NA,NA,NA,NA,NA,NA,NA,NA,NA,NA,NA,NA,NA,NA,NA,NA,NA,NA,NA,NA,NA,NA,NA,NA,NA,NA,NA,NA,NA,NA,NA,NA,NA,NA,NA,0,0,0,2,1,NA,NA,NA,NA,NA
SUPAMT76549,351SEKWQS6G5L52KJE7733JCRO8DMJ,7EE1AE7D-553B-4AF1-A091-429090313195,2023-09-28_12h43.07.083,WP_VExplicitOC_LH,2022.2.5,Win32,11.76705929,-59.44443809,4.309,2.0207,NA,NA,NA,NA,NA,frustrated,"frustrated, not frustrated","more frustrated, less frustrated",NA,NA,NA,NA,NA,NA,NA,NA,NA,NA,NA,NA,NA,NA,NA,NA,NA,NA,NA,NA,NA,NA,NA,NA,NA,NA,NA,NA,NA,NA,NA,NA,NA,NA,NA,NA,NA,NA,0,1,1,1,1,NA,NA,NA,NA,NA
SUPAMT76549,351SEKWQS6G5L52KJE7733JCRO8DMJ,7EE1AE7D-553B-4AF1-A091-429090313195,2023-09-28_12h43.07.083,WP_VExplicitOC_LH,2022.2.5,Win32,11.76705929,-53.74999576,3.9149,2.0492,NA,NA,NA,NA,NA,happy,"unhappy, happy","less happy, more happy",NA,NA,NA,NA,NA,NA,NA,NA,NA,NA,NA,NA,NA,NA,NA,NA,NA,NA,NA,NA,NA,NA,NA,NA,NA,NA,NA,NA,NA,NA,NA,NA,NA,NA,NA,NA,NA,NA,0,2,2,0,1,NA,NA,NA,NA,NA
SUPAMT76549,351SEKWQS6G5L52KJE7733JCRO8DMJ,7EE1AE7D-553B-4AF1-A091-429090313195,2023-09-28_12h43.07.083,WP_VExplicitOC_LH,2022.2.5,Win32,11.76705929,NA,NA,NA,NA,NA,NA,NA,NA,NA,NA,NA,NA,NA,NA,NA,NA,NA,NA,NA,NA,NA,NA,NA,NA,NA,NA,NA,NA,NA,NA,NA,NA,NA,NA,NA,NA,NA,NA,NA,NA,NA,NA,NA,NA,NA,NA,NA,NA,NA,NA,NA,NA,NA,NA,5,0,5,0,1
SUPAMT76549,351SEKWQS6G5L52KJE7733JCRO8DMJ,7EE1AE7D-553B-4AF1-A091-429090313195,2023-09-28_12h43.07.083,WP_VExplicitOC_LH,2022.2.5,Win32,11.76705929,-36.24999788,4.8951,2.0247,NA,NA,NA,NA,NA,happy,"unhappy, happy","less happy, more happy",NA,NA,NA,NA,NA,NA,NA,NA,NA,NA,NA,NA,NA,NA,NA,NA,NA,NA,NA,NA,NA,NA,NA,NA,NA,NA,NA,NA,NA,NA,NA,NA,NA,NA,NA,NA,NA,NA,0,0,0,0,1,NA,NA,NA,NA,NA
SUPAMT76549,351SEKWQS6G5L52KJE7733JCRO8DMJ,7EE1AE7D-553B-4AF1-A091-429090313195,2023-09-28_12h43.07.083,WP_VExplicitOC_LH,2022.2.5,Win32,11.76705929,-72.91666667,3.71,2.0997,NA,NA,NA,NA,NA,frustrated,"frustrated, not frustrated","more frustrated, less frustrated",NA,NA,NA,NA,NA,NA,NA,NA,NA,NA,NA,NA,NA,NA,NA,NA,NA,NA,NA,NA,NA,NA,NA,NA,NA,NA,NA,NA,NA,NA,NA,NA,NA,NA,NA,NA,NA,NA,0,1,1,1,1,NA,NA,NA,NA,NA
SUPAMT76549,351SEKWQS6G5L52KJE7733JCRO8DMJ,7EE1AE7D-553B-4AF1-A091-429090313195,2023-09-28_12h43.07.083,WP_VExplicitOC_LH,2022.2.5,Win32,11.76705929,-100,3.231,2.0547,NA,NA,NA,NA,NA,bored,"bored, not bored","more bored, less bored",NA,NA,NA,NA,NA,NA,NA,NA,NA,NA,NA,NA,NA,NA,NA,NA,NA,NA,NA,NA,NA,NA,NA,NA,NA,NA,NA,NA,NA,NA,NA,NA,NA,NA,NA,NA,NA,NA,0,2,2,2,1,NA,NA,NA,NA,NA
SUPAMT76549,351SEKWQS6G5L52KJE7733JCRO8DMJ,7EE1AE7D-553B-4AF1-A091-429090313195,2023-09-28_12h43.07.083,WP_VExplicitOC_LH,2022.2.5,Win32,11.76705929,NA,NA,NA,NA,NA,NA,NA,NA,NA,NA,NA,NA,NA,NA,NA,NA,NA,NA,NA,NA,NA,NA,NA,NA,NA,NA,NA,NA,NA,NA,NA,NA,NA,NA,NA,NA,NA,NA,NA,NA,NA,NA,NA,NA,NA,NA,NA,NA,NA,NA,NA,NA,NA,NA,6,0,6,0,1
SUPAMT76549,351SEKWQS6G5L52KJE7733JCRO8DMJ,7EE1AE7D-553B-4AF1-A091-429090313195,2023-09-28_12h43.07.083,WP_VExplicitOC_LH,2022.2.5,Win32,11.76705929,-48.05555344,3.6239,2.0349,NA,NA,NA,NA,NA,happy,"unhappy, happy","less happy, more happy",NA,NA,NA,NA,NA,NA,NA,NA,NA,NA,NA,NA,NA,NA,NA,NA,NA,NA,NA,NA,NA,NA,NA,NA,NA,NA,NA,NA,NA,NA,NA,NA,NA,NA,NA,NA,NA,NA,0,0,0,0,1,NA,NA,NA,NA,NA
SUPAMT76549,351SEKWQS6G5L52KJE7733JCRO8DMJ,7EE1AE7D-553B-4AF1-A091-429090313195,2023-09-28_12h43.07.083,WP_VExplicitOC_LH,2022.2.5,Win32,11.76705929,-94.30555238,4.5386,2.0744,NA,NA,NA,NA,NA,bored,"bored, not bored","more bored, less bored",NA,NA,NA,NA,NA,NA,NA,NA,NA,NA,NA,NA,NA,NA,NA,NA,NA,NA,NA,NA,NA,NA,NA,NA,NA,NA,NA,NA,NA,NA,NA,NA,NA,NA,NA,NA,NA,NA,0,1,1,2,1,NA,NA,NA,NA,NA
SUPAMT76549,351SEKWQS6G5L52KJE7733JCRO8DMJ,7EE1AE7D-553B-4AF1-A091-429090313195,2023-09-28_12h43.07.083,WP_VExplicitOC_LH,2022.2.5,Win32,11.76705929,-59.16666455,3.9397,2.0548,NA,NA,NA,NA,NA,frustrated,"frustrated, not frustrated","more frustrated, less frustrated",NA,NA,NA,NA,NA,NA,NA,NA,NA,NA,NA,NA,NA,NA,NA,NA,NA,NA,NA,NA,NA,NA,NA,NA,NA,NA,NA,NA,NA,NA,NA,NA,NA,NA,NA,NA,NA,NA,0,2,2,1,1,NA,NA,NA,NA,NA
SUPAMT76549,351SEKWQS6G5L52KJE7733JCRO8DMJ,7EE1AE7D-553B-4AF1-A091-429090313195,2023-09-28_12h43.07.083,WP_VExplicitOC_LH,2022.2.5,Win32,11.76705929,NA,NA,NA,NA,NA,NA,NA,NA,NA,NA,NA,NA,NA,NA,NA,NA,NA,NA,NA,NA,NA,NA,NA,NA,NA,NA,NA,NA,NA,NA,NA,NA,NA,NA,NA,NA,NA,NA,NA,NA,NA,NA,NA,NA,NA,NA,NA,NA,NA,NA,NA,NA,NA,NA,7,0,7,0,1
SUPAMT76549,351SEKWQS6G5L52KJE7733JCRO8DMJ,7EE1AE7D-553B-4AF1-A091-429090313195,2023-09-28_12h43.07.083,WP_VExplicitOC_LH,2022.2.5,Win32,11.76705929,-57.77777566,5.4028,2.0645,NA,NA,NA,NA,NA,frustrated,"frustrated, not frustrated","more frustrated, less frustrated",NA,NA,NA,NA,NA,NA,NA,NA,NA,NA,NA,NA,NA,NA,NA,NA,NA,NA,NA,NA,NA,NA,NA,NA,NA,NA,NA,NA,NA,NA,NA,NA,NA,NA,NA,NA,NA,NA,0,0,0,1,1,NA,NA,NA,NA,NA
SUPAMT76549,351SEKWQS6G5L52KJE7733JCRO8DMJ,7EE1AE7D-553B-4AF1-A091-429090313195,2023-09-28_12h43.07.083,WP_VExplicitOC_LH,2022.2.5,Win32,11.76705929,-100,4.2575,2.0283,NA,NA,NA,NA,NA,bored,"bored, not bored","more bored, less bored",NA,NA,NA,NA,NA,NA,NA,NA,NA,NA,NA,NA,NA,NA,NA,NA,NA,NA,NA,NA,NA,NA,NA,NA,NA,NA,NA,NA,NA,NA,NA,NA,NA,NA,NA,NA,NA,NA,0,1,1,2,1,NA,NA,NA,NA,NA
SUPAMT76549,351SEKWQS6G5L52KJE7733JCRO8DMJ,7EE1AE7D-553B-4AF1-A091-429090313195,2023-09-28_12h43.07.083,WP_VExplicitOC_LH,2022.2.5,Win32,11.76705929,-43.88888677,3.598,2.0603,NA,NA,NA,NA,NA,happy,"unhappy, happy","less happy, more happy",NA,NA,NA,NA,NA,NA,NA,NA,NA,NA,NA,NA,NA,NA,NA,NA,NA,NA,NA,NA,NA,NA,NA,NA,NA,NA,NA,NA,NA,NA,NA,NA,NA,NA,NA,NA,NA,NA,0,2,2,0,1,NA,NA,NA,NA,NA
SUPAMT76549,351SEKWQS6G5L52KJE7733JCRO8DMJ,7EE1AE7D-553B-4AF1-A091-429090313195,2023-09-28_12h43.07.083,WP_VExplicitOC_LH,2022.2.5,Win32,11.76705929,NA,NA,NA,NA,NA,NA,NA,NA,NA,NA,NA,NA,NA,NA,NA,NA,NA,NA,NA,NA,NA,NA,NA,NA,NA,NA,NA,NA,NA,NA,NA,NA,NA,NA,NA,NA,NA,NA,NA,NA,NA,NA,NA,NA,NA,NA,NA,NA,NA,NA,NA,NA,NA,NA,8,0,8,0,1
SUPAMT76549,351SEKWQS6G5L52KJE7733JCRO8DMJ,7EE1AE7D-553B-4AF1-A091-429090313195,2023-09-28_12h43.07.083,WP_VExplicitOC_LH,2022.2.5,Win32,11.76705929,-100,3.811,2.0856,NA,NA,NA,NA,NA,bored,"bored, not bored","more bored, less bored",NA,NA,NA,NA,NA,NA,NA,NA,NA,NA,NA,NA,NA,NA,NA,NA,NA,NA,NA,NA,NA,NA,NA,NA,NA,NA,NA,NA,NA,NA,NA,NA,NA,NA,NA,NA,NA,NA,0,0,0,2,1,NA,NA,NA,NA,NA
SUPAMT76549,351SEKWQS6G5L52KJE7733JCRO8DMJ,7EE1AE7D-553B-4AF1-A091-429090313195,2023-09-28_12h43.07.083,WP_VExplicitOC_LH,2022.2.5,Win32,11.76705929,-37.5,4.5306,2.0994,NA,NA,NA,NA,NA,happy,"unhappy, happy","less happy, more happy",NA,NA,NA,NA,NA,NA,NA,NA,NA,NA,NA,NA,NA,NA,NA,NA,NA,NA,NA,NA,NA,NA,NA,NA,NA,NA,NA,NA,NA,NA,NA,NA,NA,NA,NA,NA,NA,NA,0,1,1,0,1,NA,NA,NA,NA,NA
SUPAMT76549,351SEKWQS6G5L52KJE7733JCRO8DMJ,7EE1AE7D-553B-4AF1-A091-429090313195,2023-09-28_12h43.07.083,WP_VExplicitOC_LH,2022.2.5,Win32,11.76705929,-73.47222434,6.3311,2.0896,NA,NA,NA,NA,NA,frustrated,"frustrated, not frustrated","more frustrated, less frustrated",NA,NA,NA,NA,NA,NA,NA,NA,NA,NA,NA,NA,NA,NA,NA,NA,NA,NA,NA,NA,NA,NA,NA,NA,NA,NA,NA,NA,NA,NA,NA,NA,NA,NA,NA,NA,NA,NA,0,2,2,1,1,NA,NA,NA,NA,NA
SUPAMT76549,351SEKWQS6G5L52KJE7733JCRO8DMJ,7EE1AE7D-553B-4AF1-A091-429090313195,2023-09-28_12h43.07.083,WP_VExplicitOC_LH,2022.2.5,Win32,11.76705929,NA,NA,NA,NA,NA,NA,NA,NA,NA,NA,NA,NA,NA,NA,NA,NA,NA,NA,NA,NA,NA,NA,NA,NA,NA,NA,NA,NA,NA,NA,NA,NA,NA,NA,NA,NA,NA,NA,NA,NA,NA,NA,NA,NA,NA,NA,NA,NA,NA,NA,NA,NA,NA,NA,9,0,9,0,1
SUPAMT76549,351SEKWQS6G5L52KJE7733JCRO8DMJ,7EE1AE7D-553B-4AF1-A091-429090313195,2023-09-28_12h43.07.083,WP_VExplicitOC_LH,2022.2.5,Win32,11.76705929,-68.19444233,3.7942,2.0527,NA,NA,NA,NA,NA,happy,"unhappy, happy","less happy, more happy",NA,NA,NA,NA,NA,NA,NA,NA,NA,NA,NA,NA,NA,NA,NA,NA,NA,NA,NA,NA,NA,NA,NA,NA,NA,NA,NA,NA,NA,NA,NA,NA,NA,NA,NA,NA,NA,NA,0,0,0,0,1,NA,NA,NA,NA,NA
SUPAMT76549,351SEKWQS6G5L52KJE7733JCRO8DMJ,7EE1AE7D-553B-4AF1-A091-429090313195,2023-09-28_12h43.07.083,WP_VExplicitOC_LH,2022.2.5,Win32,11.76705929,-100,4.1575,2.0633,NA,NA,NA,NA,NA,bored,"bored, not bored","more bored, less bored",NA,NA,NA,NA,NA,NA,NA,NA,NA,NA,NA,NA,NA,NA,NA,NA,NA,NA,NA,NA,NA,NA,NA,NA,NA,NA,NA,NA,NA,NA,NA,NA,NA,NA,NA,NA,NA,NA,0,1,1,2,1,NA,NA,NA,NA,NA
SUPAMT76549,351SEKWQS6G5L52KJE7733JCRO8DMJ,7EE1AE7D-553B-4AF1-A091-429090313195,2023-09-28_12h43.07.083,WP_VExplicitOC_LH,2022.2.5,Win32,11.76705929,-82.77777566,4.0585,2.0307,NA,NA,NA,NA,NA,frustrated,"frustrated, not frustrated","more frustrated, less frustrated",NA,NA,NA,NA,NA,NA,NA,NA,NA,NA,NA,NA,NA,NA,NA,NA,NA,NA,NA,NA,NA,NA,NA,NA,NA,NA,NA,NA,NA,NA,NA,NA,NA,NA,NA,NA,NA,NA,0,2,2,1,1,NA,NA,NA,NA,NA
SUPAMT76549,351SEKWQS6G5L52KJE7733JCRO8DMJ,7EE1AE7D-553B-4AF1-A091-429090313195,2023-09-28_12h43.07.083,WP_VExplicitOC_LH,2022.2.5,Win32,11.76705929,NA,NA,NA,NA,NA,NA,NA,NA,NA,NA,NA,NA,NA,NA,NA,NA,NA,NA,NA,NA,NA,NA,NA,NA,NA,NA,NA,NA,NA,NA,NA,NA,NA,NA,NA,NA,NA,NA,NA,NA,NA,NA,NA,NA,NA,NA,NA,NA,NA,NA,NA,NA,NA,NA,10,0,10,0,1
SUPAMT76549,351SEKWQS6G5L52KJE7733JCRO8DMJ,7EE1AE7D-553B-4AF1-A091-429090313195,2023-09-28_12h43.07.083,WP_VExplicitOC_LH,2022.2.5,Win32,11.76705929,-74.72221586,4.2234,2.0067,NA,NA,NA,NA,NA,bored,"bored, not bored","more bored, less bored",NA,NA,NA,NA,NA,NA,NA,NA,NA,NA,NA,NA,NA,NA,NA,NA,NA,NA,NA,NA,NA,NA,NA,NA,NA,NA,NA,NA,NA,NA,NA,NA,NA,NA,NA,NA,NA,NA,0,0,0,2,1,NA,NA,NA,NA,NA
SUPAMT76549,351SEKWQS6G5L52KJE7733JCRO8DMJ,7EE1AE7D-553B-4AF1-A091-429090313195,2023-09-28_12h43.07.083,WP_VExplicitOC_LH,2022.2.5,Win32,11.76705929,-100,3.2541,2.0709,NA,NA,NA,NA,NA,frustrated,"frustrated, not frustrated","more frustrated, less frustrated",NA,NA,NA,NA,NA,NA,NA,NA,NA,NA,NA,NA,NA,NA,NA,NA,NA,NA,NA,NA,NA,NA,NA,NA,NA,NA,NA,NA,NA,NA,NA,NA,NA,NA,NA,NA,NA,NA,0,1,1,1,1,NA,NA,NA,NA,NA
SUPAMT76549,351SEKWQS6G5L52KJE7733JCRO8DMJ,7EE1AE7D-553B-4AF1-A091-429090313195,2023-09-28_12h43.07.083,WP_VExplicitOC_LH,2022.2.5,Win32,11.76705929,-77.91666455,3.0691,2.014,NA,NA,NA,NA,NA,happy,"unhappy, happy","less happy, more happy",NA,NA,NA,NA,NA,NA,NA,NA,NA,NA,NA,NA,NA,NA,NA,NA,NA,NA,NA,NA,NA,NA,NA,NA,NA,NA,NA,NA,NA,NA,NA,NA,NA,NA,NA,NA,NA,NA,0,2,2,0,1,NA,NA,NA,NA,NA
SUPAMT76549,351SEKWQS6G5L52KJE7733JCRO8DMJ,7EE1AE7D-553B-4AF1-A091-429090313195,2023-09-28_12h43.07.083,WP_VExplicitOC_LH,2022.2.5,Win32,11.76705929,NA,NA,NA,NA,NA,NA,NA,NA,NA,NA,NA,NA,NA,NA,NA,NA,NA,NA,NA,NA,NA,NA,NA,NA,NA,NA,NA,NA,NA,NA,NA,NA,NA,NA,NA,NA,NA,NA,NA,NA,NA,NA,NA,NA,NA,NA,NA,NA,NA,NA,NA,NA,NA,NA,11,0,11,0,1
SUPAMT76549,351SEKWQS6G5L52KJE7733JCRO8DMJ,7EE1AE7D-553B-4AF1-A091-429090313195,2023-09-28_12h43.07.083,WP_VExplicitOC_LH,2022.2.5,Win32,11.76705929,-89.02777566,5.1087,2.026,NA,NA,NA,NA,NA,bored,"bored, not bored","more bored, less bored",NA,NA,NA,NA,NA,NA,NA,NA,NA,NA,NA,NA,NA,NA,NA,NA,NA,NA,NA,NA,NA,NA,NA,NA,NA,NA,NA,NA,NA,NA,NA,NA,NA,NA,NA,NA,NA,NA,0,0,0,2,1,NA,NA,NA,NA,NA
SUPAMT76549,351SEKWQS6G5L52KJE7733JCRO8DMJ,7EE1AE7D-553B-4AF1-A091-429090313195,2023-09-28_12h43.07.083,WP_VExplicitOC_LH,2022.2.5,Win32,11.76705929,-91.80555344,3.9241,2.0298,NA,NA,NA,NA,NA,frustrated,"frustrated, not frustrated","more frustrated, less frustrated",NA,NA,NA,NA,NA,NA,NA,NA,NA,NA,NA,NA,NA,NA,NA,NA,NA,NA,NA,NA,NA,NA,NA,NA,NA,NA,NA,NA,NA,NA,NA,NA,NA,NA,NA,NA,NA,NA,0,1,1,1,1,NA,NA,NA,NA,NA
SUPAMT76549,351SEKWQS6G5L52KJE7733JCRO8DMJ,7EE1AE7D-553B-4AF1-A091-429090313195,2023-09-28_12h43.07.083,WP_VExplicitOC_LH,2022.2.5,Win32,11.76705929,-70.27777566,3.8557,2.094,NA,NA,NA,NA,NA,happy,"unhappy, happy","less happy, more happy",NA,NA,NA,NA,NA,NA,NA,NA,NA,NA,NA,NA,NA,NA,NA,NA,NA,NA,NA,NA,NA,NA,NA,NA,NA,NA,NA,NA,NA,NA,NA,NA,NA,NA,NA,NA,NA,NA,0,2,2,0,1,NA,NA,NA,NA,NA
SUPAMT76549,351SEKWQS6G5L52KJE7733JCRO8DMJ,7EE1AE7D-553B-4AF1-A091-429090313195,2023-09-28_12h43.07.083,WP_VExplicitOC_LH,2022.2.5,Win32,11.76705929,NA,NA,NA,NA,NA,NA,NA,NA,NA,NA,NA,NA,NA,NA,NA,NA,NA,NA,NA,NA,NA,NA,NA,NA,NA,NA,NA,NA,NA,NA,NA,NA,NA,NA,NA,NA,NA,NA,NA,NA,NA,NA,NA,NA,NA,NA,NA,NA,NA,NA,NA,NA,NA,NA,12,0,12,0,1
SUPAMT76549,351SEKWQS6G5L52KJE7733JCRO8DMJ,7EE1AE7D-553B-4AF1-A091-429090313195,2023-09-28_12h43.07.083,WP_VExplicitOC_LH,2022.2.5,Win32,11.76705929,-100,3.5905,2.0605,NA,NA,NA,NA,NA,bored,"bored, not bored","more bored, less bored",NA,NA,NA,NA,NA,NA,NA,NA,NA,NA,NA,NA,NA,NA,NA,NA,NA,NA,NA,NA,NA,NA,NA,NA,NA,NA,NA,NA,NA,NA,NA,NA,NA,NA,NA,NA,NA,NA,0,0,0,2,1,NA,NA,NA,NA,NA
SUPAMT76549,351SEKWQS6G5L52KJE7733JCRO8DMJ,7EE1AE7D-553B-4AF1-A091-429090313195,2023-09-28_12h43.07.083,WP_VExplicitOC_LH,2022.2.5,Win32,11.76705929,-78.88888253,4.1215,2.0496,NA,NA,NA,NA,NA,frustrated,"frustrated, not frustrated","more frustrated, less frustrated",NA,NA,NA,NA,NA,NA,NA,NA,NA,NA,NA,NA,NA,NA,NA,NA,NA,NA,NA,NA,NA,NA,NA,NA,NA,NA,NA,NA,NA,NA,NA,NA,NA,NA,NA,NA,NA,NA,0,1,1,1,1,NA,NA,NA,NA,NA
SUPAMT76549,351SEKWQS6G5L52KJE7733JCRO8DMJ,7EE1AE7D-553B-4AF1-A091-429090313195,2023-09-28_12h43.07.083,WP_VExplicitOC_LH,2022.2.5,Win32,11.76705929,-52.08333333,3.4418,2.0334,NA,NA,NA,NA,NA,happy,"unhappy, happy","less happy, more happy",NA,NA,NA,NA,NA,NA,NA,NA,NA,NA,NA,NA,NA,NA,NA,NA,NA,NA,NA,NA,NA,NA,NA,NA,NA,NA,NA,NA,NA,NA,NA,NA,NA,NA,NA,NA,NA,NA,0,2,2,0,1,NA,NA,NA,NA,NA
SUPAMT76549,351SEKWQS6G5L52KJE7733JCRO8DMJ,7EE1AE7D-553B-4AF1-A091-429090313195,2023-09-28_12h43.07.083,WP_VExplicitOC_LH,2022.2.5,Win32,11.76705929,NA,NA,NA,NA,NA,NA,NA,NA,NA,NA,NA,NA,NA,NA,NA,NA,NA,NA,NA,NA,NA,NA,NA,NA,NA,NA,NA,NA,NA,NA,NA,NA,NA,NA,NA,NA,NA,NA,NA,NA,NA,NA,NA,NA,NA,NA,NA,NA,NA,NA,NA,NA,NA,NA,13,0,13,0,1
SUPAMT76549,351SEKWQS6G5L52KJE7733JCRO8DMJ,7EE1AE7D-553B-4AF1-A091-429090313195,2023-09-28_12h43.07.083,WP_VExplicitOC_LH,2022.2.5,Win32,11.76705929,-69.44444444,5.5258,2.0236,NA,NA,NA,NA,NA,happy,"unhappy, happy","less happy, more happy",NA,NA,NA,NA,NA,NA,NA,NA,NA,NA,NA,NA,NA,NA,NA,NA,NA,NA,NA,NA,NA,NA,NA,NA,NA,NA,NA,NA,NA,NA,NA,NA,NA,NA,NA,NA,NA,NA,0,0,0,0,1,NA,NA,NA,NA,NA
SUPAMT76549,351SEKWQS6G5L52KJE7733JCRO8DMJ,7EE1AE7D-553B-4AF1-A091-429090313195,2023-09-28_12h43.07.083,WP_VExplicitOC_LH,2022.2.5,Win32,11.76705929,-96.80555662,4.178,2.0957,NA,NA,NA,NA,NA,frustrated,"frustrated, not frustrated","more frustrated, less frustrated",NA,NA,NA,NA,NA,NA,NA,NA,NA,NA,NA,NA,NA,NA,NA,NA,NA,NA,NA,NA,NA,NA,NA,NA,NA,NA,NA,NA,NA,NA,NA,NA,NA,NA,NA,NA,NA,NA,0,1,1,1,1,NA,NA,NA,NA,NA
SUPAMT76549,351SEKWQS6G5L52KJE7733JCRO8DMJ,7EE1AE7D-553B-4AF1-A091-429090313195,2023-09-28_12h43.07.083,WP_VExplicitOC_LH,2022.2.5,Win32,11.76705929,-100,3.5372,2.0987,NA,NA,NA,NA,NA,bored,"bored, not bored","more bored, less bored",NA,NA,NA,NA,NA,NA,NA,NA,NA,NA,NA,NA,NA,NA,NA,NA,NA,NA,NA,NA,NA,NA,NA,NA,NA,NA,NA,NA,NA,NA,NA,NA,NA,NA,NA,NA,NA,NA,0,2,2,2,1,NA,NA,NA,NA,NA
SUPAMT76549,351SEKWQS6G5L52KJE7733JCRO8DMJ,7EE1AE7D-553B-4AF1-A091-429090313195,2023-09-28_12h43.07.083,WP_VExplicitOC_LH,2022.2.5,Win32,11.76705929,NA,NA,NA,NA,NA,NA,NA,NA,NA,NA,NA,NA,NA,NA,NA,NA,NA,NA,NA,NA,NA,NA,NA,NA,NA,NA,NA,NA,NA,NA,NA,NA,NA,NA,NA,NA,NA,NA,NA,NA,NA,NA,NA,NA,NA,NA,NA,NA,NA,NA,NA,NA,NA,NA,14,0,14,0,1
SUPAMT76549,351SEKWQS6G5L52KJE7733JCRO8DMJ,7EE1AE7D-553B-4AF1-A091-429090313195,2023-09-28_12h43.07.083,WP_VExplicitOC_LH,2022.2.5,Win32,11.76705929,NA,NA,NA,NA,NA,NA,NA,NA,NA,NA,NA,NA,NA,NA,NA,NA,NA,NA,NA,NA,NA,NA,NA,NA,NA,NA,NA,NA,NA,NA,NA,NA,NA,NA,NA,NA,NA,NA,NA,NA,NA,NA,NA,NA,NA,NA,NA,NA,NA,NA,NA,NA,NA,NA,NA,NA,NA,NA,NA
