participant,session,completion,date,expName,psychopyVersion,OS,frameRate,rating_all.response,rating_all.rt,rating_all.tStart,rndRat1.thisRepN,rndRat1.thisTrialN,rndRat1.thisN,rndRat1.thisIndex,rndRat1.ran,Emo,Labs,Labs2,rating_alt.response,rating_alt.rt,AltC.thisRepN,AltC.thisTrialN,AltC.thisN,AltC.thisIndex,AltC.ran,alt_choices,pic_choices,BottomAlt_Choice,rndRat2.thisRepN,rndRat2.thisTrialN,rndRat2.thisN,rndRat2.thisIndex,rndRat2.ran,rndRat3.thisRepN,rndRat3.thisTrialN,rndRat3.thisN,rndRat3.thisIndex,rndRat3.ran,trials_FC_L.thisRepN,trials_FC_L.thisTrialN,trials_FC_L.thisN,trials_FC_L.thisIndex,trials_FC_L.ran,rating_alt_2.response,rating_alt_2.rt,AltC2.thisRepN,AltC2.thisTrialN,AltC2.thisN,AltC2.thisIndex,AltC2.ran,TopAlt_Choice,rndRat4.thisRepN,rndRat4.thisTrialN,rndRat4.thisN,rndRat4.thisIndex,rndRat4.ran,rndRat5.thisRepN,rndRat5.thisTrialN,rndRat5.thisN,rndRat5.thisIndex,rndRat5.ran,trials_FC_H.thisRepN,trials_FC_H.thisTrialN,trials_FC_H.thisN,trials_FC_H.thisIndex,trials_FC_H.ran
SUPAMT52256,3L2IS5HSFGHXKPY6HACWQIC0H02UN6,70A12410-8322-442E-BA8D-8D0D077B215F,2023-09-26_09h15.40.242,WP_VExplicitOC_LH,2022.2.5,Win32,2.96245386,NA,NA,NA,NA,NA,NA,NA,NA,NA,NA,NA,NA,NA,NA,NA,NA,NA,NA,NA,NA,NA,NA,NA,NA,NA,NA,NA,NA,NA,NA,NA,NA,NA,NA,NA,NA,NA,NA,NA,NA,NA,NA,NA,NA,NA,NA,NA,NA,NA,NA,NA,NA,NA,NA,NA,NA,NA,NA,NA
SUPAMT52256,3L2IS5HSFGHXKPY6HACWQIC0H02UN6,70A12410-8322-442E-BA8D-8D0D077B215F,2023-09-26_09h15.40.242,WP_VExplicitOC_LH,2022.2.5,Win32,2.96245386,NA,NA,NA,NA,NA,NA,NA,NA,NA,NA,NA,NA,NA,NA,NA,NA,NA,NA,NA,NA,NA,NA,NA,NA,NA,NA,NA,NA,NA,NA,NA,NA,NA,NA,NA,NA,NA,NA,NA,NA,NA,NA,NA,NA,NA,NA,NA,NA,NA,NA,NA,NA,NA,NA,NA,NA,NA,NA,NA
SUPAMT52256,3L2IS5HSFGHXKPY6HACWQIC0H02UN6,70A12410-8322-442E-BA8D-8D0D077B215F,2023-09-26_09h15.40.242,WP_VExplicitOC_LH,2022.2.5,Win32,2.96245386,NA,NA,NA,NA,NA,NA,NA,NA,NA,NA,NA,NA,NA,NA,NA,NA,NA,NA,NA,NA,NA,NA,NA,NA,NA,NA,NA,NA,NA,NA,NA,NA,NA,NA,NA,NA,NA,NA,NA,NA,NA,NA,NA,NA,NA,NA,NA,NA,NA,NA,NA,NA,NA,NA,NA,NA,NA,NA,NA
SUPAMT52256,3L2IS5HSFGHXKPY6HACWQIC0H02UN6,70A12410-8322-442E-BA8D-8D0D077B215F,2023-09-26_09h15.40.242,WP_VExplicitOC_LH,2022.2.5,Win32,2.96245386,48.66666667,4.1298,2.0074,0,0,0,1,1,frustrated,"frustrated, not frustrated","more frustrated, less frustrated",NA,NA,NA,NA,NA,NA,NA,NA,NA,NA,NA,NA,NA,NA,NA,NA,NA,NA,NA,NA,NA,NA,NA,NA,NA,NA,NA,NA,NA,NA,NA,NA,NA,NA,NA,NA,NA,NA,NA,NA,NA,NA,NA,NA,NA,NA,NA,NA
SUPAMT52256,3L2IS5HSFGHXKPY6HACWQIC0H02UN6,70A12410-8322-442E-BA8D-8D0D077B215F,2023-09-26_09h15.40.242,WP_VExplicitOC_LH,2022.2.5,Win32,2.96245386,NA,NA,2.0715,0,1,1,2,1,bored,"bored, not bored","more bored, less bored",NA,NA,NA,NA,NA,NA,NA,NA,NA,NA,NA,NA,NA,NA,NA,NA,NA,NA,NA,NA,NA,NA,NA,NA,NA,NA,NA,NA,NA,NA,NA,NA,NA,NA,NA,NA,NA,NA,NA,NA,NA,NA,NA,NA,NA,NA,NA,NA
SUPAMT52256,3L2IS5HSFGHXKPY6HACWQIC0H02UN6,70A12410-8322-442E-BA8D-8D0D077B215F,2023-09-26_09h15.40.242,WP_VExplicitOC_LH,2022.2.5,Win32,2.96245386,52.66666667,7.0963,2.1721,0,2,2,0,1,happy,"unhappy, happy","less happy, more happy",NA,NA,NA,NA,NA,NA,NA,NA,NA,NA,NA,NA,NA,NA,NA,NA,NA,NA,NA,NA,NA,NA,NA,NA,NA,NA,NA,NA,NA,NA,NA,NA,NA,NA,NA,NA,NA,NA,NA,NA,NA,NA,NA,NA,NA,NA,NA,NA
SUPAMT52256,3L2IS5HSFGHXKPY6HACWQIC0H02UN6,70A12410-8322-442E-BA8D-8D0D077B215F,2023-09-26_09h15.40.242,WP_VExplicitOC_LH,2022.2.5,Win32,2.96245386,NA,NA,NA,NA,NA,NA,NA,NA,NA,NA,NA,NA,NA,NA,NA,NA,NA,NA,NA,NA,NA,NA,NA,NA,NA,NA,NA,NA,NA,NA,NA,NA,NA,NA,NA,NA,NA,NA,NA,NA,NA,NA,NA,NA,NA,NA,NA,NA,NA,NA,NA,NA,NA,NA,NA,NA,NA,NA,NA
SUPAMT52256,3L2IS5HSFGHXKPY6HACWQIC0H02UN6,70A12410-8322-442E-BA8D-8D0D077B215F,2023-09-26_09h15.40.242,WP_VExplicitOC_LH,2022.2.5,Win32,2.96245386,NA,NA,NA,NA,NA,NA,NA,NA,NA,NA,NA,NA,NA,NA,NA,NA,NA,NA,NA,NA,NA,NA,NA,NA,NA,NA,NA,NA,NA,NA,NA,NA,NA,NA,NA,NA,NA,NA,NA,NA,NA,NA,NA,NA,NA,NA,NA,NA,NA,NA,NA,NA,NA,NA,NA,NA,NA,NA,NA
SUPAMT52256,3L2IS5HSFGHXKPY6HACWQIC0H02UN6,70A12410-8322-442E-BA8D-8D0D077B215F,2023-09-26_09h15.40.242,WP_VExplicitOC_LH,2022.2.5,Win32,2.96245386,NA,NA,NA,NA,NA,NA,NA,NA,NA,NA,NA,NA,NA,NA,NA,NA,NA,NA,NA,NA,NA,NA,NA,NA,NA,NA,NA,NA,NA,NA,NA,NA,NA,NA,NA,NA,NA,NA,NA,NA,NA,NA,NA,NA,NA,NA,NA,NA,NA,NA,NA,NA,NA,NA,NA,NA,NA,NA,NA
SUPAMT52256,3L2IS5HSFGHXKPY6HACWQIC0H02UN6,70A12410-8322-442E-BA8D-8D0D077B215F,2023-09-26_09h15.40.242,WP_VExplicitOC_LH,2022.2.5,Win32,2.96245386,NA,NA,NA,NA,NA,NA,NA,NA,NA,NA,NA,NA,NA,NA,NA,NA,NA,NA,NA,NA,NA,NA,NA,NA,NA,NA,NA,NA,NA,NA,NA,NA,NA,NA,NA,NA,NA,NA,NA,NA,NA,NA,NA,NA,NA,NA,NA,NA,NA,NA,NA,NA,NA,NA,NA,NA,NA,NA,NA
SUPAMT52256,3L2IS5HSFGHXKPY6HACWQIC0H02UN6,70A12410-8322-442E-BA8D-8D0D077B215F,2023-09-26_09h15.40.242,WP_VExplicitOC_LH,2022.2.5,Win32,2.96245386,NA,NA,NA,NA,NA,NA,NA,NA,NA,NA,NA,66,3.8626,0,0,0,0,1,rest (looking at a fixed cross),001.png,NA,NA,NA,NA,NA,NA,NA,NA,NA,NA,NA,NA,NA,NA,NA,NA,NA,NA,NA,NA,NA,NA,NA,NA,NA,NA,NA,NA,NA,NA,NA,NA,NA,NA,NA,NA,NA,NA,NA
SUPAMT52256,3L2IS5HSFGHXKPY6HACWQIC0H02UN6,70A12410-8322-442E-BA8D-8D0D077B215F,2023-09-26_09h15.40.242,WP_VExplicitOC_LH,2022.2.5,Win32,2.96245386,NA,NA,NA,NA,NA,NA,NA,NA,NA,NA,NA,66,0.9844,0,1,1,1,1,stand up,002.png,NA,NA,NA,NA,NA,NA,NA,NA,NA,NA,NA,NA,NA,NA,NA,NA,NA,NA,NA,NA,NA,NA,NA,NA,NA,NA,NA,NA,NA,NA,NA,NA,NA,NA,NA,NA,NA,NA,NA
SUPAMT52256,3L2IS5HSFGHXKPY6HACWQIC0H02UN6,70A12410-8322-442E-BA8D-8D0D077B215F,2023-09-26_09h15.40.242,WP_VExplicitOC_LH,2022.2.5,Win32,2.96245386,NA,NA,NA,NA,NA,NA,NA,NA,NA,NA,NA,66.22222222,0.2735,0,2,2,2,1,stretch,003.png,NA,NA,NA,NA,NA,NA,NA,NA,NA,NA,NA,NA,NA,NA,NA,NA,NA,NA,NA,NA,NA,NA,NA,NA,NA,NA,NA,NA,NA,NA,NA,NA,NA,NA,NA,NA,NA,NA,NA
SUPAMT52256,3L2IS5HSFGHXKPY6HACWQIC0H02UN6,70A12410-8322-442E-BA8D-8D0D077B215F,2023-09-26_09h15.40.242,WP_VExplicitOC_LH,2022.2.5,Win32,2.96245386,NA,NA,NA,NA,NA,NA,NA,NA,NA,NA,NA,66.22222222,1.2605,0,3,3,3,1,make a drink,004.png,NA,NA,NA,NA,NA,NA,NA,NA,NA,NA,NA,NA,NA,NA,NA,NA,NA,NA,NA,NA,NA,NA,NA,NA,NA,NA,NA,NA,NA,NA,NA,NA,NA,NA,NA,NA,NA,NA,NA
SUPAMT52256,3L2IS5HSFGHXKPY6HACWQIC0H02UN6,70A12410-8322-442E-BA8D-8D0D077B215F,2023-09-26_09h15.40.242,WP_VExplicitOC_LH,2022.2.5,Win32,2.96245386,NA,NA,NA,NA,NA,NA,NA,NA,NA,NA,NA,66,0.3462,0,4,4,4,1,scroll social media,005.png,NA,NA,NA,NA,NA,NA,NA,NA,NA,NA,NA,NA,NA,NA,NA,NA,NA,NA,NA,NA,NA,NA,NA,NA,NA,NA,NA,NA,NA,NA,NA,NA,NA,NA,NA,NA,NA,NA,NA
SUPAMT52256,3L2IS5HSFGHXKPY6HACWQIC0H02UN6,70A12410-8322-442E-BA8D-8D0D077B215F,2023-09-26_09h15.40.242,WP_VExplicitOC_LH,2022.2.5,Win32,2.96245386,NA,NA,NA,NA,NA,NA,NA,NA,NA,NA,NA,66.66666667,0.5881,0,5,5,5,1,listen to music,006.png,NA,NA,NA,NA,NA,NA,NA,NA,NA,NA,NA,NA,NA,NA,NA,NA,NA,NA,NA,NA,NA,NA,NA,NA,NA,NA,NA,NA,NA,NA,NA,NA,NA,NA,NA,NA,NA,NA,NA
SUPAMT52256,3L2IS5HSFGHXKPY6HACWQIC0H02UN6,70A12410-8322-442E-BA8D-8D0D077B215F,2023-09-26_09h15.40.242,WP_VExplicitOC_LH,2022.2.5,Win32,2.96245386,NA,NA,NA,NA,NA,NA,NA,NA,NA,NA,NA,66,0.5095,0,6,6,6,1,daydream,007.png,NA,NA,NA,NA,NA,NA,NA,NA,NA,NA,NA,NA,NA,NA,NA,NA,NA,NA,NA,NA,NA,NA,NA,NA,NA,NA,NA,NA,NA,NA,NA,NA,NA,NA,NA,NA,NA,NA,NA
SUPAMT52256,3L2IS5HSFGHXKPY6HACWQIC0H02UN6,70A12410-8322-442E-BA8D-8D0D077B215F,2023-09-26_09h15.40.242,WP_VExplicitOC_LH,2022.2.5,Win32,2.96245386,NA,NA,NA,NA,NA,NA,NA,NA,NA,NA,NA,66,0.4895,0,7,7,7,1,watch a short animation,008.png,NA,NA,NA,NA,NA,NA,NA,NA,NA,NA,NA,NA,NA,NA,NA,NA,NA,NA,NA,NA,NA,NA,NA,NA,NA,NA,NA,NA,NA,NA,NA,NA,NA,NA,NA,NA,NA,NA,NA
SUPAMT52256,3L2IS5HSFGHXKPY6HACWQIC0H02UN6,70A12410-8322-442E-BA8D-8D0D077B215F,2023-09-26_09h15.40.242,WP_VExplicitOC_LH,2022.2.5,Win32,2.96245386,NA,NA,NA,NA,NA,NA,NA,NA,NA,NA,NA,66,0.83,0,8,8,8,1,read a novel,009.png,NA,NA,NA,NA,NA,NA,NA,NA,NA,NA,NA,NA,NA,NA,NA,NA,NA,NA,NA,NA,NA,NA,NA,NA,NA,NA,NA,NA,NA,NA,NA,NA,NA,NA,NA,NA,NA,NA,NA
SUPAMT52256,3L2IS5HSFGHXKPY6HACWQIC0H02UN6,70A12410-8322-442E-BA8D-8D0D077B215F,2023-09-26_09h15.40.242,WP_VExplicitOC_LH,2022.2.5,Win32,2.96245386,NA,NA,NA,NA,NA,NA,NA,NA,NA,NA,NA,66,0.3793,0,9,9,9,1,read the news,010.png,NA,NA,NA,NA,NA,NA,NA,NA,NA,NA,NA,NA,NA,NA,NA,NA,NA,NA,NA,NA,NA,NA,NA,NA,NA,NA,NA,NA,NA,NA,NA,NA,NA,NA,NA,NA,NA,NA,NA
SUPAMT52256,3L2IS5HSFGHXKPY6HACWQIC0H02UN6,70A12410-8322-442E-BA8D-8D0D077B215F,2023-09-26_09h15.40.242,WP_VExplicitOC_LH,2022.2.5,Win32,2.96245386,NA,NA,NA,NA,NA,NA,NA,NA,NA,NA,NA,NA,NA,NA,NA,NA,NA,NA,NA,NA,NA,NA,NA,NA,NA,NA,NA,NA,NA,NA,NA,NA,NA,NA,NA,NA,NA,NA,NA,NA,NA,NA,NA,NA,NA,NA,NA,NA,NA,NA,NA,NA,NA,NA,NA,NA,NA,NA,NA
SUPAMT52256,3L2IS5HSFGHXKPY6HACWQIC0H02UN6,70A12410-8322-442E-BA8D-8D0D077B215F,2023-09-26_09h15.40.242,WP_VExplicitOC_LH,2022.2.5,Win32,2.96245386,NA,NA,NA,NA,NA,NA,NA,NA,NA,NA,NA,NA,NA,NA,NA,NA,NA,NA,NA,NA,stand up,NA,NA,NA,NA,NA,NA,NA,NA,NA,NA,NA,NA,NA,NA,NA,NA,NA,NA,NA,NA,NA,NA,NA,NA,NA,NA,NA,NA,NA,NA,NA,NA,NA,NA,NA,NA,NA,NA
SUPAMT52256,3L2IS5HSFGHXKPY6HACWQIC0H02UN6,70A12410-8322-442E-BA8D-8D0D077B215F,2023-09-26_09h15.40.242,WP_VExplicitOC_LH,2022.2.5,Win32,2.96245386,NA,NA,2.2351,NA,NA,NA,NA,NA,bored,"bored, not bored","more bored, less bored",NA,NA,NA,NA,NA,NA,NA,NA,NA,NA,0,0,0,2,1,NA,NA,NA,NA,NA,NA,NA,NA,NA,NA,NA,NA,NA,NA,NA,NA,NA,NA,NA,NA,NA,NA,NA,NA,NA,NA,NA,NA,NA,NA,NA,NA,NA
SUPAMT52256,3L2IS5HSFGHXKPY6HACWQIC0H02UN6,70A12410-8322-442E-BA8D-8D0D077B215F,2023-09-26_09h15.40.242,WP_VExplicitOC_LH,2022.2.5,Win32,2.96245386,46,6.2653,2.031,NA,NA,NA,NA,NA,frustrated,"frustrated, not frustrated","more frustrated, less frustrated",NA,NA,NA,NA,NA,NA,NA,NA,NA,NA,0,1,1,1,1,NA,NA,NA,NA,NA,NA,NA,NA,NA,NA,NA,NA,NA,NA,NA,NA,NA,NA,NA,NA,NA,NA,NA,NA,NA,NA,NA,NA,NA,NA,NA,NA,NA
SUPAMT52256,3L2IS5HSFGHXKPY6HACWQIC0H02UN6,70A12410-8322-442E-BA8D-8D0D077B215F,2023-09-26_09h15.40.242,WP_VExplicitOC_LH,2022.2.5,Win32,2.96245386,50.22222222,4.5235,2.2217,NA,NA,NA,NA,NA,happy,"unhappy, happy","less happy, more happy",NA,NA,NA,NA,NA,NA,NA,NA,NA,NA,0,2,2,0,1,NA,NA,NA,NA,NA,NA,NA,NA,NA,NA,NA,NA,NA,NA,NA,NA,NA,NA,NA,NA,NA,NA,NA,NA,NA,NA,NA,NA,NA,NA,NA,NA,NA
SUPAMT52256,3L2IS5HSFGHXKPY6HACWQIC0H02UN6,70A12410-8322-442E-BA8D-8D0D077B215F,2023-09-26_09h15.40.242,WP_VExplicitOC_LH,2022.2.5,Win32,2.96245386,NA,NA,NA,NA,NA,NA,NA,NA,NA,NA,NA,NA,NA,NA,NA,NA,NA,NA,NA,NA,NA,NA,NA,NA,NA,NA,NA,NA,NA,NA,NA,NA,NA,NA,NA,NA,NA,NA,NA,NA,NA,NA,NA,NA,NA,NA,NA,NA,NA,NA,NA,NA,NA,NA,NA,NA,NA,NA,NA
SUPAMT52256,3L2IS5HSFGHXKPY6HACWQIC0H02UN6,70A12410-8322-442E-BA8D-8D0D077B215F,2023-09-26_09h15.40.242,WP_VExplicitOC_LH,2022.2.5,Win32,2.96245386,NA,NA,NA,NA,NA,NA,NA,NA,NA,NA,NA,NA,NA,NA,NA,NA,NA,NA,NA,NA,NA,NA,NA,NA,NA,NA,NA,NA,NA,NA,NA,NA,NA,NA,NA,NA,NA,NA,NA,NA,NA,NA,NA,NA,NA,NA,NA,NA,NA,NA,NA,NA,NA,NA,NA,NA,NA,NA,NA
SUPAMT52256,3L2IS5HSFGHXKPY6HACWQIC0H02UN6,70A12410-8322-442E-BA8D-8D0D077B215F,2023-09-26_09h15.40.242,WP_VExplicitOC_LH,2022.2.5,Win32,2.96245386,61.11111111,4.3654,2.0567,NA,NA,NA,NA,NA,frustrated,"frustrated, not frustrated","more frustrated, less frustrated",NA,NA,NA,NA,NA,NA,NA,NA,NA,NA,NA,NA,NA,NA,NA,0,0,0,1,1,NA,NA,NA,NA,NA,NA,NA,NA,NA,NA,NA,NA,NA,NA,NA,NA,NA,NA,NA,NA,NA,NA,NA,NA,NA,NA,NA,NA
SUPAMT52256,3L2IS5HSFGHXKPY6HACWQIC0H02UN6,70A12410-8322-442E-BA8D-8D0D077B215F,2023-09-26_09h15.40.242,WP_VExplicitOC_LH,2022.2.5,Win32,2.96245386,57.11111111,5.1056,2.3088,NA,NA,NA,NA,NA,happy,"unhappy, happy","less happy, more happy",NA,NA,NA,NA,NA,NA,NA,NA,NA,NA,NA,NA,NA,NA,NA,0,1,1,0,1,NA,NA,NA,NA,NA,NA,NA,NA,NA,NA,NA,NA,NA,NA,NA,NA,NA,NA,NA,NA,NA,NA,NA,NA,NA,NA,NA,NA
SUPAMT52256,3L2IS5HSFGHXKPY6HACWQIC0H02UN6,70A12410-8322-442E-BA8D-8D0D077B215F,2023-09-26_09h15.40.242,WP_VExplicitOC_LH,2022.2.5,Win32,2.96245386,51.33333333,4.2937,2.093,NA,NA,NA,NA,NA,bored,"bored, not bored","more bored, less bored",NA,NA,NA,NA,NA,NA,NA,NA,NA,NA,NA,NA,NA,NA,NA,0,2,2,2,1,NA,NA,NA,NA,NA,NA,NA,NA,NA,NA,NA,NA,NA,NA,NA,NA,NA,NA,NA,NA,NA,NA,NA,NA,NA,NA,NA,NA
SUPAMT52256,3L2IS5HSFGHXKPY6HACWQIC0H02UN6,70A12410-8322-442E-BA8D-8D0D077B215F,2023-09-26_09h15.40.242,WP_VExplicitOC_LH,2022.2.5,Win32,2.96245386,NA,NA,NA,NA,NA,NA,NA,NA,NA,NA,NA,NA,NA,NA,NA,NA,NA,NA,NA,NA,NA,NA,NA,NA,NA,NA,NA,NA,NA,NA,NA,0,0,0,0,1,NA,NA,NA,NA,NA,NA,NA,NA,NA,NA,NA,NA,NA,NA,NA,NA,NA,NA,NA,NA,NA,NA,NA
SUPAMT52256,3L2IS5HSFGHXKPY6HACWQIC0H02UN6,70A12410-8322-442E-BA8D-8D0D077B215F,2023-09-26_09h15.40.242,WP_VExplicitOC_LH,2022.2.5,Win32,2.96245386,49.33333333,5.8636,2.1319,NA,NA,NA,NA,NA,happy,"unhappy, happy","less happy, more happy",NA,NA,NA,NA,NA,NA,NA,NA,NA,NA,NA,NA,NA,NA,NA,0,0,0,0,1,NA,NA,NA,NA,NA,NA,NA,NA,NA,NA,NA,NA,NA,NA,NA,NA,NA,NA,NA,NA,NA,NA,NA,NA,NA,NA,NA,NA
SUPAMT52256,3L2IS5HSFGHXKPY6HACWQIC0H02UN6,70A12410-8322-442E-BA8D-8D0D077B215F,2023-09-26_09h15.40.242,WP_VExplicitOC_LH,2022.2.5,Win32,2.96245386,57.77777778,4.8764,2.0312,NA,NA,NA,NA,NA,bored,"bored, not bored","more bored, less bored",NA,NA,NA,NA,NA,NA,NA,NA,NA,NA,NA,NA,NA,NA,NA,0,1,1,2,1,NA,NA,NA,NA,NA,NA,NA,NA,NA,NA,NA,NA,NA,NA,NA,NA,NA,NA,NA,NA,NA,NA,NA,NA,NA,NA,NA,NA
SUPAMT52256,3L2IS5HSFGHXKPY6HACWQIC0H02UN6,70A12410-8322-442E-BA8D-8D0D077B215F,2023-09-26_09h15.40.242,WP_VExplicitOC_LH,2022.2.5,Win32,2.96245386,58.44444444,6.3702,2.232,NA,NA,NA,NA,NA,frustrated,"frustrated, not frustrated","more frustrated, less frustrated",NA,NA,NA,NA,NA,NA,NA,NA,NA,NA,NA,NA,NA,NA,NA,0,2,2,1,1,NA,NA,NA,NA,NA,NA,NA,NA,NA,NA,NA,NA,NA,NA,NA,NA,NA,NA,NA,NA,NA,NA,NA,NA,NA,NA,NA,NA
SUPAMT52256,3L2IS5HSFGHXKPY6HACWQIC0H02UN6,70A12410-8322-442E-BA8D-8D0D077B215F,2023-09-26_09h15.40.242,WP_VExplicitOC_LH,2022.2.5,Win32,2.96245386,NA,NA,NA,NA,NA,NA,NA,NA,NA,NA,NA,NA,NA,NA,NA,NA,NA,NA,NA,NA,NA,NA,NA,NA,NA,NA,NA,NA,NA,NA,NA,1,0,1,0,1,NA,NA,NA,NA,NA,NA,NA,NA,NA,NA,NA,NA,NA,NA,NA,NA,NA,NA,NA,NA,NA,NA,NA
SUPAMT52256,3L2IS5HSFGHXKPY6HACWQIC0H02UN6,70A12410-8322-442E-BA8D-8D0D077B215F,2023-09-26_09h15.40.242,WP_VExplicitOC_LH,2022.2.5,Win32,2.96245386,56.66666667,5.2666,2.0928,NA,NA,NA,NA,NA,happy,"unhappy, happy","less happy, more happy",NA,NA,NA,NA,NA,NA,NA,NA,NA,NA,NA,NA,NA,NA,NA,0,0,0,0,1,NA,NA,NA,NA,NA,NA,NA,NA,NA,NA,NA,NA,NA,NA,NA,NA,NA,NA,NA,NA,NA,NA,NA,NA,NA,NA,NA,NA
SUPAMT52256,3L2IS5HSFGHXKPY6HACWQIC0H02UN6,70A12410-8322-442E-BA8D-8D0D077B215F,2023-09-26_09h15.40.242,WP_VExplicitOC_LH,2022.2.5,Win32,2.96245386,54.66666667,7.0527,2.1513,NA,NA,NA,NA,NA,frustrated,"frustrated, not frustrated","more frustrated, less frustrated",NA,NA,NA,NA,NA,NA,NA,NA,NA,NA,NA,NA,NA,NA,NA,0,1,1,1,1,NA,NA,NA,NA,NA,NA,NA,NA,NA,NA,NA,NA,NA,NA,NA,NA,NA,NA,NA,NA,NA,NA,NA,NA,NA,NA,NA,NA
SUPAMT52256,3L2IS5HSFGHXKPY6HACWQIC0H02UN6,70A12410-8322-442E-BA8D-8D0D077B215F,2023-09-26_09h15.40.242,WP_VExplicitOC_LH,2022.2.5,Win32,2.96245386,59.55555556,4.3386,2.1465,NA,NA,NA,NA,NA,bored,"bored, not bored","more bored, less bored",NA,NA,NA,NA,NA,NA,NA,NA,NA,NA,NA,NA,NA,NA,NA,0,2,2,2,1,NA,NA,NA,NA,NA,NA,NA,NA,NA,NA,NA,NA,NA,NA,NA,NA,NA,NA,NA,NA,NA,NA,NA,NA,NA,NA,NA,NA
SUPAMT52256,3L2IS5HSFGHXKPY6HACWQIC0H02UN6,70A12410-8322-442E-BA8D-8D0D077B215F,2023-09-26_09h15.40.242,WP_VExplicitOC_LH,2022.2.5,Win32,2.96245386,NA,NA,NA,NA,NA,NA,NA,NA,NA,NA,NA,NA,NA,NA,NA,NA,NA,NA,NA,NA,NA,NA,NA,NA,NA,NA,NA,NA,NA,NA,NA,2,0,2,0,1,NA,NA,NA,NA,NA,NA,NA,NA,NA,NA,NA,NA,NA,NA,NA,NA,NA,NA,NA,NA,NA,NA,NA
SUPAMT52256,3L2IS5HSFGHXKPY6HACWQIC0H02UN6,70A12410-8322-442E-BA8D-8D0D077B215F,2023-09-26_09h15.40.242,WP_VExplicitOC_LH,2022.2.5,Win32,2.96245386,54.66666667,4.4276,2.0621,NA,NA,NA,NA,NA,frustrated,"frustrated, not frustrated","more frustrated, less frustrated",NA,NA,NA,NA,NA,NA,NA,NA,NA,NA,NA,NA,NA,NA,NA,0,0,0,1,1,NA,NA,NA,NA,NA,NA,NA,NA,NA,NA,NA,NA,NA,NA,NA,NA,NA,NA,NA,NA,NA,NA,NA,NA,NA,NA,NA,NA
SUPAMT52256,3L2IS5HSFGHXKPY6HACWQIC0H02UN6,70A12410-8322-442E-BA8D-8D0D077B215F,2023-09-26_09h15.40.242,WP_VExplicitOC_LH,2022.2.5,Win32,2.96245386,61.11111111,5.68,2.2587,NA,NA,NA,NA,NA,bored,"bored, not bored","more bored, less bored",NA,NA,NA,NA,NA,NA,NA,NA,NA,NA,NA,NA,NA,NA,NA,0,1,1,2,1,NA,NA,NA,NA,NA,NA,NA,NA,NA,NA,NA,NA,NA,NA,NA,NA,NA,NA,NA,NA,NA,NA,NA,NA,NA,NA,NA,NA
SUPAMT52256,3L2IS5HSFGHXKPY6HACWQIC0H02UN6,70A12410-8322-442E-BA8D-8D0D077B215F,2023-09-26_09h15.40.242,WP_VExplicitOC_LH,2022.2.5,Win32,2.96245386,53.77777778,4.1662,2.2439,NA,NA,NA,NA,NA,happy,"unhappy, happy","less happy, more happy",NA,NA,NA,NA,NA,NA,NA,NA,NA,NA,NA,NA,NA,NA,NA,0,2,2,0,1,NA,NA,NA,NA,NA,NA,NA,NA,NA,NA,NA,NA,NA,NA,NA,NA,NA,NA,NA,NA,NA,NA,NA,NA,NA,NA,NA,NA
SUPAMT52256,3L2IS5HSFGHXKPY6HACWQIC0H02UN6,70A12410-8322-442E-BA8D-8D0D077B215F,2023-09-26_09h15.40.242,WP_VExplicitOC_LH,2022.2.5,Win32,2.96245386,NA,NA,NA,NA,NA,NA,NA,NA,NA,NA,NA,NA,NA,NA,NA,NA,NA,NA,NA,NA,NA,NA,NA,NA,NA,NA,NA,NA,NA,NA,NA,3,0,3,0,1,NA,NA,NA,NA,NA,NA,NA,NA,NA,NA,NA,NA,NA,NA,NA,NA,NA,NA,NA,NA,NA,NA,NA
SUPAMT52256,3L2IS5HSFGHXKPY6HACWQIC0H02UN6,70A12410-8322-442E-BA8D-8D0D077B215F,2023-09-26_09h15.40.242,WP_VExplicitOC_LH,2022.2.5,Win32,2.96245386,57.33333333,4.0015,2.1881,NA,NA,NA,NA,NA,frustrated,"frustrated, not frustrated","more frustrated, less frustrated",NA,NA,NA,NA,NA,NA,NA,NA,NA,NA,NA,NA,NA,NA,NA,0,0,0,1,1,NA,NA,NA,NA,NA,NA,NA,NA,NA,NA,NA,NA,NA,NA,NA,NA,NA,NA,NA,NA,NA,NA,NA,NA,NA,NA,NA,NA
SUPAMT52256,3L2IS5HSFGHXKPY6HACWQIC0H02UN6,70A12410-8322-442E-BA8D-8D0D077B215F,2023-09-26_09h15.40.242,WP_VExplicitOC_LH,2022.2.5,Win32,2.96245386,NA,NA,2.0536,NA,NA,NA,NA,NA,bored,"bored, not bored","more bored, less bored",NA,NA,NA,NA,NA,NA,NA,NA,NA,NA,NA,NA,NA,NA,NA,0,1,1,2,1,NA,NA,NA,NA,NA,NA,NA,NA,NA,NA,NA,NA,NA,NA,NA,NA,NA,NA,NA,NA,NA,NA,NA,NA,NA,NA,NA,NA
SUPAMT52256,3L2IS5HSFGHXKPY6HACWQIC0H02UN6,70A12410-8322-442E-BA8D-8D0D077B215F,2023-09-26_09h15.40.242,WP_VExplicitOC_LH,2022.2.5,Win32,2.96245386,66,5.5508,2.0685,NA,NA,NA,NA,NA,happy,"unhappy, happy","less happy, more happy",NA,NA,NA,NA,NA,NA,NA,NA,NA,NA,NA,NA,NA,NA,NA,0,2,2,0,1,NA,NA,NA,NA,NA,NA,NA,NA,NA,NA,NA,NA,NA,NA,NA,NA,NA,NA,NA,NA,NA,NA,NA,NA,NA,NA,NA,NA
SUPAMT52256,3L2IS5HSFGHXKPY6HACWQIC0H02UN6,70A12410-8322-442E-BA8D-8D0D077B215F,2023-09-26_09h15.40.242,WP_VExplicitOC_LH,2022.2.5,Win32,2.96245386,NA,NA,NA,NA,NA,NA,NA,NA,NA,NA,NA,NA,NA,NA,NA,NA,NA,NA,NA,NA,NA,NA,NA,NA,NA,NA,NA,NA,NA,NA,NA,4,0,4,0,1,NA,NA,NA,NA,NA,NA,NA,NA,NA,NA,NA,NA,NA,NA,NA,NA,NA,NA,NA,NA,NA,NA,NA
SUPAMT52256,3L2IS5HSFGHXKPY6HACWQIC0H02UN6,70A12410-8322-442E-BA8D-8D0D077B215F,2023-09-26_09h15.40.242,WP_VExplicitOC_LH,2022.2.5,Win32,2.96245386,53.77777778,4.4461,2.0991,NA,NA,NA,NA,NA,frustrated,"frustrated, not frustrated","more frustrated, less frustrated",NA,NA,NA,NA,NA,NA,NA,NA,NA,NA,NA,NA,NA,NA,NA,0,0,0,1,1,NA,NA,NA,NA,NA,NA,NA,NA,NA,NA,NA,NA,NA,NA,NA,NA,NA,NA,NA,NA,NA,NA,NA,NA,NA,NA,NA,NA
SUPAMT52256,3L2IS5HSFGHXKPY6HACWQIC0H02UN6,70A12410-8322-442E-BA8D-8D0D077B215F,2023-09-26_09h15.40.242,WP_VExplicitOC_LH,2022.2.5,Win32,2.96245386,61.33333333,3.8621,2.0985,NA,NA,NA,NA,NA,bored,"bored, not bored","more bored, less bored",NA,NA,NA,NA,NA,NA,NA,NA,NA,NA,NA,NA,NA,NA,NA,0,1,1,2,1,NA,NA,NA,NA,NA,NA,NA,NA,NA,NA,NA,NA,NA,NA,NA,NA,NA,NA,NA,NA,NA,NA,NA,NA,NA,NA,NA,NA
SUPAMT52256,3L2IS5HSFGHXKPY6HACWQIC0H02UN6,70A12410-8322-442E-BA8D-8D0D077B215F,2023-09-26_09h15.40.242,WP_VExplicitOC_LH,2022.2.5,Win32,2.96245386,56.88888889,4.7628,2.2206,NA,NA,NA,NA,NA,happy,"unhappy, happy","less happy, more happy",NA,NA,NA,NA,NA,NA,NA,NA,NA,NA,NA,NA,NA,NA,NA,0,2,2,0,1,NA,NA,NA,NA,NA,NA,NA,NA,NA,NA,NA,NA,NA,NA,NA,NA,NA,NA,NA,NA,NA,NA,NA,NA,NA,NA,NA,NA
SUPAMT52256,3L2IS5HSFGHXKPY6HACWQIC0H02UN6,70A12410-8322-442E-BA8D-8D0D077B215F,2023-09-26_09h15.40.242,WP_VExplicitOC_LH,2022.2.5,Win32,2.96245386,NA,NA,NA,NA,NA,NA,NA,NA,NA,NA,NA,NA,NA,NA,NA,NA,NA,NA,NA,NA,NA,NA,NA,NA,NA,NA,NA,NA,NA,NA,NA,5,0,5,0,1,NA,NA,NA,NA,NA,NA,NA,NA,NA,NA,NA,NA,NA,NA,NA,NA,NA,NA,NA,NA,NA,NA,NA
SUPAMT52256,3L2IS5HSFGHXKPY6HACWQIC0H02UN6,70A12410-8322-442E-BA8D-8D0D077B215F,2023-09-26_09h15.40.242,WP_VExplicitOC_LH,2022.2.5,Win32,2.96245386,44.88888889,5.1615,2.0821,NA,NA,NA,NA,NA,bored,"bored, not bored","more bored, less bored",NA,NA,NA,NA,NA,NA,NA,NA,NA,NA,NA,NA,NA,NA,NA,0,0,0,2,1,NA,NA,NA,NA,NA,NA,NA,NA,NA,NA,NA,NA,NA,NA,NA,NA,NA,NA,NA,NA,NA,NA,NA,NA,NA,NA,NA,NA
SUPAMT52256,3L2IS5HSFGHXKPY6HACWQIC0H02UN6,70A12410-8322-442E-BA8D-8D0D077B215F,2023-09-26_09h15.40.242,WP_VExplicitOC_LH,2022.2.5,Win32,2.96245386,59.77777778,4.8683,2.1137,NA,NA,NA,NA,NA,frustrated,"frustrated, not frustrated","more frustrated, less frustrated",NA,NA,NA,NA,NA,NA,NA,NA,NA,NA,NA,NA,NA,NA,NA,0,1,1,1,1,NA,NA,NA,NA,NA,NA,NA,NA,NA,NA,NA,NA,NA,NA,NA,NA,NA,NA,NA,NA,NA,NA,NA,NA,NA,NA,NA,NA
SUPAMT52256,3L2IS5HSFGHXKPY6HACWQIC0H02UN6,70A12410-8322-442E-BA8D-8D0D077B215F,2023-09-26_09h15.40.242,WP_VExplicitOC_LH,2022.2.5,Win32,2.96245386,NA,NA,2.1151,NA,NA,NA,NA,NA,happy,"unhappy, happy","less happy, more happy",NA,NA,NA,NA,NA,NA,NA,NA,NA,NA,NA,NA,NA,NA,NA,0,2,2,0,1,NA,NA,NA,NA,NA,NA,NA,NA,NA,NA,NA,NA,NA,NA,NA,NA,NA,NA,NA,NA,NA,NA,NA,NA,NA,NA,NA,NA
SUPAMT52256,3L2IS5HSFGHXKPY6HACWQIC0H02UN6,70A12410-8322-442E-BA8D-8D0D077B215F,2023-09-26_09h15.40.242,WP_VExplicitOC_LH,2022.2.5,Win32,2.96245386,NA,NA,NA,NA,NA,NA,NA,NA,NA,NA,NA,NA,NA,NA,NA,NA,NA,NA,NA,NA,NA,NA,NA,NA,NA,NA,NA,NA,NA,NA,NA,6,0,6,0,1,NA,NA,NA,NA,NA,NA,NA,NA,NA,NA,NA,NA,NA,NA,NA,NA,NA,NA,NA,NA,NA,NA,NA
SUPAMT52256,3L2IS5HSFGHXKPY6HACWQIC0H02UN6,70A12410-8322-442E-BA8D-8D0D077B215F,2023-09-26_09h15.40.242,WP_VExplicitOC_LH,2022.2.5,Win32,2.96245386,46.66666667,3.9645,2.1523,NA,NA,NA,NA,NA,happy,"unhappy, happy","less happy, more happy",NA,NA,NA,NA,NA,NA,NA,NA,NA,NA,NA,NA,NA,NA,NA,0,0,0,0,1,NA,NA,NA,NA,NA,NA,NA,NA,NA,NA,NA,NA,NA,NA,NA,NA,NA,NA,NA,NA,NA,NA,NA,NA,NA,NA,NA,NA
SUPAMT52256,3L2IS5HSFGHXKPY6HACWQIC0H02UN6,70A12410-8322-442E-BA8D-8D0D077B215F,2023-09-26_09h15.40.242,WP_VExplicitOC_LH,2022.2.5,Win32,2.96245386,54.66666667,3.7684,2.1958,NA,NA,NA,NA,NA,bored,"bored, not bored","more bored, less bored",NA,NA,NA,NA,NA,NA,NA,NA,NA,NA,NA,NA,NA,NA,NA,0,1,1,2,1,NA,NA,NA,NA,NA,NA,NA,NA,NA,NA,NA,NA,NA,NA,NA,NA,NA,NA,NA,NA,NA,NA,NA,NA,NA,NA,NA,NA
SUPAMT52256,3L2IS5HSFGHXKPY6HACWQIC0H02UN6,70A12410-8322-442E-BA8D-8D0D077B215F,2023-09-26_09h15.40.242,WP_VExplicitOC_LH,2022.2.5,Win32,2.96245386,54.66666667,3.5306,2.2905,NA,NA,NA,NA,NA,frustrated,"frustrated, not frustrated","more frustrated, less frustrated",NA,NA,NA,NA,NA,NA,NA,NA,NA,NA,NA,NA,NA,NA,NA,0,2,2,1,1,NA,NA,NA,NA,NA,NA,NA,NA,NA,NA,NA,NA,NA,NA,NA,NA,NA,NA,NA,NA,NA,NA,NA,NA,NA,NA,NA,NA
SUPAMT52256,3L2IS5HSFGHXKPY6HACWQIC0H02UN6,70A12410-8322-442E-BA8D-8D0D077B215F,2023-09-26_09h15.40.242,WP_VExplicitOC_LH,2022.2.5,Win32,2.96245386,NA,NA,NA,NA,NA,NA,NA,NA,NA,NA,NA,NA,NA,NA,NA,NA,NA,NA,NA,NA,NA,NA,NA,NA,NA,NA,NA,NA,NA,NA,NA,7,0,7,0,1,NA,NA,NA,NA,NA,NA,NA,NA,NA,NA,NA,NA,NA,NA,NA,NA,NA,NA,NA,NA,NA,NA,NA
SUPAMT52256,3L2IS5HSFGHXKPY6HACWQIC0H02UN6,70A12410-8322-442E-BA8D-8D0D077B215F,2023-09-26_09h15.40.242,WP_VExplicitOC_LH,2022.2.5,Win32,2.96245386,53.77777778,3.8551,2.1293,NA,NA,NA,NA,NA,happy,"unhappy, happy","less happy, more happy",NA,NA,NA,NA,NA,NA,NA,NA,NA,NA,NA,NA,NA,NA,NA,0,0,0,0,1,NA,NA,NA,NA,NA,NA,NA,NA,NA,NA,NA,NA,NA,NA,NA,NA,NA,NA,NA,NA,NA,NA,NA,NA,NA,NA,NA,NA
SUPAMT52256,3L2IS5HSFGHXKPY6HACWQIC0H02UN6,70A12410-8322-442E-BA8D-8D0D077B215F,2023-09-26_09h15.40.242,WP_VExplicitOC_LH,2022.2.5,Win32,2.96245386,53.77777778,3.3273,2.0553,NA,NA,NA,NA,NA,frustrated,"frustrated, not frustrated","more frustrated, less frustrated",NA,NA,NA,NA,NA,NA,NA,NA,NA,NA,NA,NA,NA,NA,NA,0,1,1,1,1,NA,NA,NA,NA,NA,NA,NA,NA,NA,NA,NA,NA,NA,NA,NA,NA,NA,NA,NA,NA,NA,NA,NA,NA,NA,NA,NA,NA
SUPAMT52256,3L2IS5HSFGHXKPY6HACWQIC0H02UN6,70A12410-8322-442E-BA8D-8D0D077B215F,2023-09-26_09h15.40.242,WP_VExplicitOC_LH,2022.2.5,Win32,2.96245386,57.55555556,3.1953,2.0767,NA,NA,NA,NA,NA,bored,"bored, not bored","more bored, less bored",NA,NA,NA,NA,NA,NA,NA,NA,NA,NA,NA,NA,NA,NA,NA,0,2,2,2,1,NA,NA,NA,NA,NA,NA,NA,NA,NA,NA,NA,NA,NA,NA,NA,NA,NA,NA,NA,NA,NA,NA,NA,NA,NA,NA,NA,NA
SUPAMT52256,3L2IS5HSFGHXKPY6HACWQIC0H02UN6,70A12410-8322-442E-BA8D-8D0D077B215F,2023-09-26_09h15.40.242,WP_VExplicitOC_LH,2022.2.5,Win32,2.96245386,NA,NA,NA,NA,NA,NA,NA,NA,NA,NA,NA,NA,NA,NA,NA,NA,NA,NA,NA,NA,NA,NA,NA,NA,NA,NA,NA,NA,NA,NA,NA,8,0,8,0,1,NA,NA,NA,NA,NA,NA,NA,NA,NA,NA,NA,NA,NA,NA,NA,NA,NA,NA,NA,NA,NA,NA,NA
SUPAMT52256,3L2IS5HSFGHXKPY6HACWQIC0H02UN6,70A12410-8322-442E-BA8D-8D0D077B215F,2023-09-26_09h15.40.242,WP_VExplicitOC_LH,2022.2.5,Win32,2.96245386,71.11111111,4.1983,2.0601,NA,NA,NA,NA,NA,bored,"bored, not bored","more bored, less bored",NA,NA,NA,NA,NA,NA,NA,NA,NA,NA,NA,NA,NA,NA,NA,0,0,0,2,1,NA,NA,NA,NA,NA,NA,NA,NA,NA,NA,NA,NA,NA,NA,NA,NA,NA,NA,NA,NA,NA,NA,NA,NA,NA,NA,NA,NA
SUPAMT52256,3L2IS5HSFGHXKPY6HACWQIC0H02UN6,70A12410-8322-442E-BA8D-8D0D077B215F,2023-09-26_09h15.40.242,WP_VExplicitOC_LH,2022.2.5,Win32,2.96245386,75.33333333,4.1178,2.17,NA,NA,NA,NA,NA,frustrated,"frustrated, not frustrated","more frustrated, less frustrated",NA,NA,NA,NA,NA,NA,NA,NA,NA,NA,NA,NA,NA,NA,NA,0,1,1,1,1,NA,NA,NA,NA,NA,NA,NA,NA,NA,NA,NA,NA,NA,NA,NA,NA,NA,NA,NA,NA,NA,NA,NA,NA,NA,NA,NA,NA
SUPAMT52256,3L2IS5HSFGHXKPY6HACWQIC0H02UN6,70A12410-8322-442E-BA8D-8D0D077B215F,2023-09-26_09h15.40.242,WP_VExplicitOC_LH,2022.2.5,Win32,2.96245386,72.66666667,4.0373,2.0593,NA,NA,NA,NA,NA,happy,"unhappy, happy","less happy, more happy",NA,NA,NA,NA,NA,NA,NA,NA,NA,NA,NA,NA,NA,NA,NA,0,2,2,0,1,NA,NA,NA,NA,NA,NA,NA,NA,NA,NA,NA,NA,NA,NA,NA,NA,NA,NA,NA,NA,NA,NA,NA,NA,NA,NA,NA,NA
SUPAMT52256,3L2IS5HSFGHXKPY6HACWQIC0H02UN6,70A12410-8322-442E-BA8D-8D0D077B215F,2023-09-26_09h15.40.242,WP_VExplicitOC_LH,2022.2.5,Win32,2.96245386,NA,NA,NA,NA,NA,NA,NA,NA,NA,NA,NA,NA,NA,NA,NA,NA,NA,NA,NA,NA,NA,NA,NA,NA,NA,NA,NA,NA,NA,NA,NA,9,0,9,0,1,NA,NA,NA,NA,NA,NA,NA,NA,NA,NA,NA,NA,NA,NA,NA,NA,NA,NA,NA,NA,NA,NA,NA
SUPAMT52256,3L2IS5HSFGHXKPY6HACWQIC0H02UN6,70A12410-8322-442E-BA8D-8D0D077B215F,2023-09-26_09h15.40.242,WP_VExplicitOC_LH,2022.2.5,Win32,2.96245386,54.22222222,4.2748,2.224,NA,NA,NA,NA,NA,happy,"unhappy, happy","less happy, more happy",NA,NA,NA,NA,NA,NA,NA,NA,NA,NA,NA,NA,NA,NA,NA,0,0,0,0,1,NA,NA,NA,NA,NA,NA,NA,NA,NA,NA,NA,NA,NA,NA,NA,NA,NA,NA,NA,NA,NA,NA,NA,NA,NA,NA,NA,NA
SUPAMT52256,3L2IS5HSFGHXKPY6HACWQIC0H02UN6,70A12410-8322-442E-BA8D-8D0D077B215F,2023-09-26_09h15.40.242,WP_VExplicitOC_LH,2022.2.5,Win32,2.96245386,NA,NA,2.2668,NA,NA,NA,NA,NA,bored,"bored, not bored","more bored, less bored",NA,NA,NA,NA,NA,NA,NA,NA,NA,NA,NA,NA,NA,NA,NA,0,1,1,2,1,NA,NA,NA,NA,NA,NA,NA,NA,NA,NA,NA,NA,NA,NA,NA,NA,NA,NA,NA,NA,NA,NA,NA,NA,NA,NA,NA,NA
SUPAMT52256,3L2IS5HSFGHXKPY6HACWQIC0H02UN6,70A12410-8322-442E-BA8D-8D0D077B215F,2023-09-26_09h15.40.242,WP_VExplicitOC_LH,2022.2.5,Win32,2.96245386,51.77777778,4.9889,2.1125,NA,NA,NA,NA,NA,frustrated,"frustrated, not frustrated","more frustrated, less frustrated",NA,NA,NA,NA,NA,NA,NA,NA,NA,NA,NA,NA,NA,NA,NA,0,2,2,1,1,NA,NA,NA,NA,NA,NA,NA,NA,NA,NA,NA,NA,NA,NA,NA,NA,NA,NA,NA,NA,NA,NA,NA,NA,NA,NA,NA,NA
SUPAMT52256,3L2IS5HSFGHXKPY6HACWQIC0H02UN6,70A12410-8322-442E-BA8D-8D0D077B215F,2023-09-26_09h15.40.242,WP_VExplicitOC_LH,2022.2.5,Win32,2.96245386,NA,NA,NA,NA,NA,NA,NA,NA,NA,NA,NA,NA,NA,NA,NA,NA,NA,NA,NA,NA,NA,NA,NA,NA,NA,NA,NA,NA,NA,NA,NA,10,0,10,0,1,NA,NA,NA,NA,NA,NA,NA,NA,NA,NA,NA,NA,NA,NA,NA,NA,NA,NA,NA,NA,NA,NA,NA
SUPAMT52256,3L2IS5HSFGHXKPY6HACWQIC0H02UN6,70A12410-8322-442E-BA8D-8D0D077B215F,2023-09-26_09h15.40.242,WP_VExplicitOC_LH,2022.2.5,Win32,2.96245386,63.77777778,4.0769,2.1062,NA,NA,NA,NA,NA,bored,"bored, not bored","more bored, less bored",NA,NA,NA,NA,NA,NA,NA,NA,NA,NA,NA,NA,NA,NA,NA,0,0,0,2,1,NA,NA,NA,NA,NA,NA,NA,NA,NA,NA,NA,NA,NA,NA,NA,NA,NA,NA,NA,NA,NA,NA,NA,NA,NA,NA,NA,NA
SUPAMT52256,3L2IS5HSFGHXKPY6HACWQIC0H02UN6,70A12410-8322-442E-BA8D-8D0D077B215F,2023-09-26_09h15.40.242,WP_VExplicitOC_LH,2022.2.5,Win32,2.96245386,46,4.2643,2.2098,NA,NA,NA,NA,NA,happy,"unhappy, happy","less happy, more happy",NA,NA,NA,NA,NA,NA,NA,NA,NA,NA,NA,NA,NA,NA,NA,0,1,1,0,1,NA,NA,NA,NA,NA,NA,NA,NA,NA,NA,NA,NA,NA,NA,NA,NA,NA,NA,NA,NA,NA,NA,NA,NA,NA,NA,NA,NA
SUPAMT52256,3L2IS5HSFGHXKPY6HACWQIC0H02UN6,70A12410-8322-442E-BA8D-8D0D077B215F,2023-09-26_09h15.40.242,WP_VExplicitOC_LH,2022.2.5,Win32,2.96245386,54.88888889,4.3791,2.1475,NA,NA,NA,NA,NA,frustrated,"frustrated, not frustrated","more frustrated, less frustrated",NA,NA,NA,NA,NA,NA,NA,NA,NA,NA,NA,NA,NA,NA,NA,0,2,2,1,1,NA,NA,NA,NA,NA,NA,NA,NA,NA,NA,NA,NA,NA,NA,NA,NA,NA,NA,NA,NA,NA,NA,NA,NA,NA,NA,NA,NA
SUPAMT52256,3L2IS5HSFGHXKPY6HACWQIC0H02UN6,70A12410-8322-442E-BA8D-8D0D077B215F,2023-09-26_09h15.40.242,WP_VExplicitOC_LH,2022.2.5,Win32,2.96245386,NA,NA,NA,NA,NA,NA,NA,NA,NA,NA,NA,NA,NA,NA,NA,NA,NA,NA,NA,NA,NA,NA,NA,NA,NA,NA,NA,NA,NA,NA,NA,11,0,11,0,1,NA,NA,NA,NA,NA,NA,NA,NA,NA,NA,NA,NA,NA,NA,NA,NA,NA,NA,NA,NA,NA,NA,NA
SUPAMT52256,3L2IS5HSFGHXKPY6HACWQIC0H02UN6,70A12410-8322-442E-BA8D-8D0D077B215F,2023-09-26_09h15.40.242,WP_VExplicitOC_LH,2022.2.5,Win32,2.96245386,66.44444444,4.0196,2.0876,NA,NA,NA,NA,NA,bored,"bored, not bored","more bored, less bored",NA,NA,NA,NA,NA,NA,NA,NA,NA,NA,NA,NA,NA,NA,NA,0,0,0,2,1,NA,NA,NA,NA,NA,NA,NA,NA,NA,NA,NA,NA,NA,NA,NA,NA,NA,NA,NA,NA,NA,NA,NA,NA,NA,NA,NA,NA
SUPAMT52256,3L2IS5HSFGHXKPY6HACWQIC0H02UN6,70A12410-8322-442E-BA8D-8D0D077B215F,2023-09-26_09h15.40.242,WP_VExplicitOC_LH,2022.2.5,Win32,2.96245386,58.66666667,4.9786,2.096,NA,NA,NA,NA,NA,frustrated,"frustrated, not frustrated","more frustrated, less frustrated",NA,NA,NA,NA,NA,NA,NA,NA,NA,NA,NA,NA,NA,NA,NA,0,1,1,1,1,NA,NA,NA,NA,NA,NA,NA,NA,NA,NA,NA,NA,NA,NA,NA,NA,NA,NA,NA,NA,NA,NA,NA,NA,NA,NA,NA,NA
SUPAMT52256,3L2IS5HSFGHXKPY6HACWQIC0H02UN6,70A12410-8322-442E-BA8D-8D0D077B215F,2023-09-26_09h15.40.242,WP_VExplicitOC_LH,2022.2.5,Win32,2.96245386,70,4.7641,2.0514,NA,NA,NA,NA,NA,happy,"unhappy, happy","less happy, more happy",NA,NA,NA,NA,NA,NA,NA,NA,NA,NA,NA,NA,NA,NA,NA,0,2,2,0,1,NA,NA,NA,NA,NA,NA,NA,NA,NA,NA,NA,NA,NA,NA,NA,NA,NA,NA,NA,NA,NA,NA,NA,NA,NA,NA,NA,NA
SUPAMT52256,3L2IS5HSFGHXKPY6HACWQIC0H02UN6,70A12410-8322-442E-BA8D-8D0D077B215F,2023-09-26_09h15.40.242,WP_VExplicitOC_LH,2022.2.5,Win32,2.96245386,NA,NA,NA,NA,NA,NA,NA,NA,NA,NA,NA,NA,NA,NA,NA,NA,NA,NA,NA,NA,NA,NA,NA,NA,NA,NA,NA,NA,NA,NA,NA,12,0,12,0,1,NA,NA,NA,NA,NA,NA,NA,NA,NA,NA,NA,NA,NA,NA,NA,NA,NA,NA,NA,NA,NA,NA,NA
SUPAMT52256,3L2IS5HSFGHXKPY6HACWQIC0H02UN6,70A12410-8322-442E-BA8D-8D0D077B215F,2023-09-26_09h15.40.242,WP_VExplicitOC_LH,2022.2.5,Win32,2.96245386,65.11111111,4,2.194,NA,NA,NA,NA,NA,bored,"bored, not bored","more bored, less bored",NA,NA,NA,NA,NA,NA,NA,NA,NA,NA,NA,NA,NA,NA,NA,0,0,0,2,1,NA,NA,NA,NA,NA,NA,NA,NA,NA,NA,NA,NA,NA,NA,NA,NA,NA,NA,NA,NA,NA,NA,NA,NA,NA,NA,NA,NA
SUPAMT52256,3L2IS5HSFGHXKPY6HACWQIC0H02UN6,70A12410-8322-442E-BA8D-8D0D077B215F,2023-09-26_09h15.40.242,WP_VExplicitOC_LH,2022.2.5,Win32,2.96245386,54,3.9092,2.1457,NA,NA,NA,NA,NA,happy,"unhappy, happy","less happy, more happy",NA,NA,NA,NA,NA,NA,NA,NA,NA,NA,NA,NA,NA,NA,NA,0,1,1,0,1,NA,NA,NA,NA,NA,NA,NA,NA,NA,NA,NA,NA,NA,NA,NA,NA,NA,NA,NA,NA,NA,NA,NA,NA,NA,NA,NA,NA
SUPAMT52256,3L2IS5HSFGHXKPY6HACWQIC0H02UN6,70A12410-8322-442E-BA8D-8D0D077B215F,2023-09-26_09h15.40.242,WP_VExplicitOC_LH,2022.2.5,Win32,2.96245386,46.44444444,6.638,2.2451,NA,NA,NA,NA,NA,frustrated,"frustrated, not frustrated","more frustrated, less frustrated",NA,NA,NA,NA,NA,NA,NA,NA,NA,NA,NA,NA,NA,NA,NA,0,2,2,1,1,NA,NA,NA,NA,NA,NA,NA,NA,NA,NA,NA,NA,NA,NA,NA,NA,NA,NA,NA,NA,NA,NA,NA,NA,NA,NA,NA,NA
SUPAMT52256,3L2IS5HSFGHXKPY6HACWQIC0H02UN6,70A12410-8322-442E-BA8D-8D0D077B215F,2023-09-26_09h15.40.242,WP_VExplicitOC_LH,2022.2.5,Win32,2.96245386,NA,NA,NA,NA,NA,NA,NA,NA,NA,NA,NA,NA,NA,NA,NA,NA,NA,NA,NA,NA,NA,NA,NA,NA,NA,NA,NA,NA,NA,NA,NA,13,0,13,0,1,NA,NA,NA,NA,NA,NA,NA,NA,NA,NA,NA,NA,NA,NA,NA,NA,NA,NA,NA,NA,NA,NA,NA
SUPAMT52256,3L2IS5HSFGHXKPY6HACWQIC0H02UN6,70A12410-8322-442E-BA8D-8D0D077B215F,2023-09-26_09h15.40.242,WP_VExplicitOC_LH,2022.2.5,Win32,2.96245386,51.33333333,3.7453,2.0066,NA,NA,NA,NA,NA,frustrated,"frustrated, not frustrated","more frustrated, less frustrated",NA,NA,NA,NA,NA,NA,NA,NA,NA,NA,NA,NA,NA,NA,NA,0,0,0,1,1,NA,NA,NA,NA,NA,NA,NA,NA,NA,NA,NA,NA,NA,NA,NA,NA,NA,NA,NA,NA,NA,NA,NA,NA,NA,NA,NA,NA
SUPAMT52256,3L2IS5HSFGHXKPY6HACWQIC0H02UN6,70A12410-8322-442E-BA8D-8D0D077B215F,2023-09-26_09h15.40.242,WP_VExplicitOC_LH,2022.2.5,Win32,2.96245386,56.44444444,4.3659,2.1744,NA,NA,NA,NA,NA,bored,"bored, not bored","more bored, less bored",NA,NA,NA,NA,NA,NA,NA,NA,NA,NA,NA,NA,NA,NA,NA,0,1,1,2,1,NA,NA,NA,NA,NA,NA,NA,NA,NA,NA,NA,NA,NA,NA,NA,NA,NA,NA,NA,NA,NA,NA,NA,NA,NA,NA,NA,NA
SUPAMT52256,3L2IS5HSFGHXKPY6HACWQIC0H02UN6,70A12410-8322-442E-BA8D-8D0D077B215F,2023-09-26_09h15.40.242,WP_VExplicitOC_LH,2022.2.5,Win32,2.96245386,35.55555556,3.5713,2.1002,NA,NA,NA,NA,NA,happy,"unhappy, happy","less happy, more happy",NA,NA,NA,NA,NA,NA,NA,NA,NA,NA,NA,NA,NA,NA,NA,0,2,2,0,1,NA,NA,NA,NA,NA,NA,NA,NA,NA,NA,NA,NA,NA,NA,NA,NA,NA,NA,NA,NA,NA,NA,NA,NA,NA,NA,NA,NA
SUPAMT52256,3L2IS5HSFGHXKPY6HACWQIC0H02UN6,70A12410-8322-442E-BA8D-8D0D077B215F,2023-09-26_09h15.40.242,WP_VExplicitOC_LH,2022.2.5,Win32,2.96245386,NA,NA,NA,NA,NA,NA,NA,NA,NA,NA,NA,NA,NA,NA,NA,NA,NA,NA,NA,NA,NA,NA,NA,NA,NA,NA,NA,NA,NA,NA,NA,14,0,14,0,1,NA,NA,NA,NA,NA,NA,NA,NA,NA,NA,NA,NA,NA,NA,NA,NA,NA,NA,NA,NA,NA,NA,NA
SUPAMT52256,3L2IS5HSFGHXKPY6HACWQIC0H02UN6,70A12410-8322-442E-BA8D-8D0D077B215F,2023-09-26_09h15.40.242,WP_VExplicitOC_LH,2022.2.5,Win32,2.96245386,NA,NA,NA,NA,NA,NA,NA,NA,NA,NA,NA,NA,NA,NA,NA,NA,NA,NA,NA,NA,NA,NA,NA,NA,NA,NA,NA,NA,NA,NA,NA,NA,NA,NA,NA,NA,NA,NA,NA,NA,NA,NA,NA,NA,NA,NA,NA,NA,NA,NA,NA,NA,NA,NA,NA,NA,NA,NA,NA
SUPAMT52256,3L2IS5HSFGHXKPY6HACWQIC0H02UN6,70A12410-8322-442E-BA8D-8D0D077B215F,2023-09-26_09h15.40.242,WP_VExplicitOC_LH,2022.2.5,Win32,2.96245386,NA,NA,NA,NA,NA,NA,NA,NA,NA,NA,NA,NA,NA,NA,NA,NA,NA,NA,NA,NA,NA,NA,NA,NA,NA,NA,NA,NA,NA,NA,NA,NA,NA,NA,NA,NA,NA,NA,NA,NA,NA,NA,NA,NA,NA,NA,NA,NA,NA,NA,NA,NA,NA,NA,NA,NA,NA,NA,NA
SUPAMT52256,3L2IS5HSFGHXKPY6HACWQIC0H02UN6,70A12410-8322-442E-BA8D-8D0D077B215F,2023-09-26_09h15.40.242,WP_VExplicitOC_LH,2022.2.5,Win32,2.96245386,NA,NA,NA,NA,NA,NA,NA,NA,NA,NA,NA,NA,NA,NA,NA,NA,NA,NA,rest (looking at a fixed cross),001.png,NA,NA,NA,NA,NA,NA,NA,NA,NA,NA,NA,NA,NA,NA,NA,NA,49.55555556,3.3883,0,0,0,0,1,NA,NA,NA,NA,NA,NA,NA,NA,NA,NA,NA,NA,NA,NA,NA,NA
SUPAMT52256,3L2IS5HSFGHXKPY6HACWQIC0H02UN6,70A12410-8322-442E-BA8D-8D0D077B215F,2023-09-26_09h15.40.242,WP_VExplicitOC_LH,2022.2.5,Win32,2.96245386,NA,NA,NA,NA,NA,NA,NA,NA,NA,NA,NA,NA,NA,NA,NA,NA,NA,NA,stand up,002.png,NA,NA,NA,NA,NA,NA,NA,NA,NA,NA,NA,NA,NA,NA,NA,NA,49.55555556,0.975,0,1,1,1,1,NA,NA,NA,NA,NA,NA,NA,NA,NA,NA,NA,NA,NA,NA,NA,NA
SUPAMT52256,3L2IS5HSFGHXKPY6HACWQIC0H02UN6,70A12410-8322-442E-BA8D-8D0D077B215F,2023-09-26_09h15.40.242,WP_VExplicitOC_LH,2022.2.5,Win32,2.96245386,NA,NA,NA,NA,NA,NA,NA,NA,NA,NA,NA,NA,NA,NA,NA,NA,NA,NA,stretch,003.png,NA,NA,NA,NA,NA,NA,NA,NA,NA,NA,NA,NA,NA,NA,NA,NA,55.11111111,1.6481,0,2,2,2,1,NA,NA,NA,NA,NA,NA,NA,NA,NA,NA,NA,NA,NA,NA,NA,NA
SUPAMT52256,3L2IS5HSFGHXKPY6HACWQIC0H02UN6,70A12410-8322-442E-BA8D-8D0D077B215F,2023-09-26_09h15.40.242,WP_VExplicitOC_LH,2022.2.5,Win32,2.96245386,NA,NA,NA,NA,NA,NA,NA,NA,NA,NA,NA,NA,NA,NA,NA,NA,NA,NA,make a drink,004.png,NA,NA,NA,NA,NA,NA,NA,NA,NA,NA,NA,NA,NA,NA,NA,NA,55.11111111,0.694,0,3,3,3,1,NA,NA,NA,NA,NA,NA,NA,NA,NA,NA,NA,NA,NA,NA,NA,NA
SUPAMT52256,3L2IS5HSFGHXKPY6HACWQIC0H02UN6,70A12410-8322-442E-BA8D-8D0D077B215F,2023-09-26_09h15.40.242,WP_VExplicitOC_LH,2022.2.5,Win32,2.96245386,NA,NA,NA,NA,NA,NA,NA,NA,NA,NA,NA,NA,NA,NA,NA,NA,NA,NA,scroll social media,005.png,NA,NA,NA,NA,NA,NA,NA,NA,NA,NA,NA,NA,NA,NA,NA,NA,55.11111111,0.2461,0,4,4,4,1,NA,NA,NA,NA,NA,NA,NA,NA,NA,NA,NA,NA,NA,NA,NA,NA
SUPAMT52256,3L2IS5HSFGHXKPY6HACWQIC0H02UN6,70A12410-8322-442E-BA8D-8D0D077B215F,2023-09-26_09h15.40.242,WP_VExplicitOC_LH,2022.2.5,Win32,2.96245386,NA,NA,NA,NA,NA,NA,NA,NA,NA,NA,NA,NA,NA,NA,NA,NA,NA,NA,listen to music,006.png,NA,NA,NA,NA,NA,NA,NA,NA,NA,NA,NA,NA,NA,NA,NA,NA,55.11111111,0.4956,0,5,5,5,1,NA,NA,NA,NA,NA,NA,NA,NA,NA,NA,NA,NA,NA,NA,NA,NA
SUPAMT52256,3L2IS5HSFGHXKPY6HACWQIC0H02UN6,70A12410-8322-442E-BA8D-8D0D077B215F,2023-09-26_09h15.40.242,WP_VExplicitOC_LH,2022.2.5,Win32,2.96245386,NA,NA,NA,NA,NA,NA,NA,NA,NA,NA,NA,NA,NA,NA,NA,NA,NA,NA,daydream,007.png,NA,NA,NA,NA,NA,NA,NA,NA,NA,NA,NA,NA,NA,NA,NA,NA,55.11111111,0.5381,0,6,6,6,1,NA,NA,NA,NA,NA,NA,NA,NA,NA,NA,NA,NA,NA,NA,NA,NA
SUPAMT52256,3L2IS5HSFGHXKPY6HACWQIC0H02UN6,70A12410-8322-442E-BA8D-8D0D077B215F,2023-09-26_09h15.40.242,WP_VExplicitOC_LH,2022.2.5,Win32,2.96245386,NA,NA,NA,NA,NA,NA,NA,NA,NA,NA,NA,NA,NA,NA,NA,NA,NA,NA,watch a short animation,008.png,NA,NA,NA,NA,NA,NA,NA,NA,NA,NA,NA,NA,NA,NA,NA,NA,55.11111111,0.2482,0,7,7,7,1,NA,NA,NA,NA,NA,NA,NA,NA,NA,NA,NA,NA,NA,NA,NA,NA
SUPAMT52256,3L2IS5HSFGHXKPY6HACWQIC0H02UN6,70A12410-8322-442E-BA8D-8D0D077B215F,2023-09-26_09h15.40.242,WP_VExplicitOC_LH,2022.2.5,Win32,2.96245386,NA,NA,NA,NA,NA,NA,NA,NA,NA,NA,NA,NA,NA,NA,NA,NA,NA,NA,read a novel,009.png,NA,NA,NA,NA,NA,NA,NA,NA,NA,NA,NA,NA,NA,NA,NA,NA,55.11111111,0.2748,0,8,8,8,1,NA,NA,NA,NA,NA,NA,NA,NA,NA,NA,NA,NA,NA,NA,NA,NA
SUPAMT52256,3L2IS5HSFGHXKPY6HACWQIC0H02UN6,70A12410-8322-442E-BA8D-8D0D077B215F,2023-09-26_09h15.40.242,WP_VExplicitOC_LH,2022.2.5,Win32,2.96245386,NA,NA,NA,NA,NA,NA,NA,NA,NA,NA,NA,NA,NA,NA,NA,NA,NA,NA,read the news,010.png,NA,NA,NA,NA,NA,NA,NA,NA,NA,NA,NA,NA,NA,NA,NA,NA,55.11111111,0.2128,0,9,9,9,1,NA,NA,NA,NA,NA,NA,NA,NA,NA,NA,NA,NA,NA,NA,NA,NA
SUPAMT52256,3L2IS5HSFGHXKPY6HACWQIC0H02UN6,70A12410-8322-442E-BA8D-8D0D077B215F,2023-09-26_09h15.40.242,WP_VExplicitOC_LH,2022.2.5,Win32,2.96245386,NA,NA,NA,NA,NA,NA,NA,NA,NA,NA,NA,NA,NA,NA,NA,NA,NA,NA,NA,NA,NA,NA,NA,NA,NA,NA,NA,NA,NA,NA,NA,NA,NA,NA,NA,NA,NA,NA,NA,NA,NA,NA,NA,stretch,NA,NA,NA,NA,NA,NA,NA,NA,NA,NA,NA,NA,NA,NA,NA
SUPAMT52256,3L2IS5HSFGHXKPY6HACWQIC0H02UN6,70A12410-8322-442E-BA8D-8D0D077B215F,2023-09-26_09h15.40.242,WP_VExplicitOC_LH,2022.2.5,Win32,2.96245386,NA,NA,2.0198,NA,NA,NA,NA,NA,frustrated,"frustrated, not frustrated","more frustrated, less frustrated",NA,NA,NA,NA,NA,NA,NA,NA,NA,NA,NA,NA,NA,NA,NA,NA,NA,NA,NA,NA,NA,NA,NA,NA,NA,NA,NA,NA,NA,NA,NA,NA,NA,0,0,0,1,1,NA,NA,NA,NA,NA,NA,NA,NA,NA,NA
SUPAMT52256,3L2IS5HSFGHXKPY6HACWQIC0H02UN6,70A12410-8322-442E-BA8D-8D0D077B215F,2023-09-26_09h15.40.242,WP_VExplicitOC_LH,2022.2.5,Win32,2.96245386,NA,NA,2.2924,NA,NA,NA,NA,NA,bored,"bored, not bored","more bored, less bored",NA,NA,NA,NA,NA,NA,NA,NA,NA,NA,NA,NA,NA,NA,NA,NA,NA,NA,NA,NA,NA,NA,NA,NA,NA,NA,NA,NA,NA,NA,NA,NA,NA,0,1,1,2,1,NA,NA,NA,NA,NA,NA,NA,NA,NA,NA
SUPAMT52256,3L2IS5HSFGHXKPY6HACWQIC0H02UN6,70A12410-8322-442E-BA8D-8D0D077B215F,2023-09-26_09h15.40.242,WP_VExplicitOC_LH,2022.2.5,Win32,2.96245386,51.33333333,7.3945,2.0361,NA,NA,NA,NA,NA,happy,"unhappy, happy","less happy, more happy",NA,NA,NA,NA,NA,NA,NA,NA,NA,NA,NA,NA,NA,NA,NA,NA,NA,NA,NA,NA,NA,NA,NA,NA,NA,NA,NA,NA,NA,NA,NA,NA,NA,0,2,2,0,1,NA,NA,NA,NA,NA,NA,NA,NA,NA,NA
SUPAMT52256,3L2IS5HSFGHXKPY6HACWQIC0H02UN6,70A12410-8322-442E-BA8D-8D0D077B215F,2023-09-26_09h15.40.242,WP_VExplicitOC_LH,2022.2.5,Win32,2.96245386,NA,NA,NA,NA,NA,NA,NA,NA,NA,NA,NA,NA,NA,NA,NA,NA,NA,NA,NA,NA,NA,NA,NA,NA,NA,NA,NA,NA,NA,NA,NA,NA,NA,NA,NA,NA,NA,NA,NA,NA,NA,NA,NA,NA,NA,NA,NA,NA,NA,NA,NA,NA,NA,NA,NA,NA,NA,NA,NA
SUPAMT52256,3L2IS5HSFGHXKPY6HACWQIC0H02UN6,70A12410-8322-442E-BA8D-8D0D077B215F,2023-09-26_09h15.40.242,WP_VExplicitOC_LH,2022.2.5,Win32,2.96245386,NA,NA,NA,NA,NA,NA,NA,NA,NA,NA,NA,NA,NA,NA,NA,NA,NA,NA,NA,NA,NA,NA,NA,NA,NA,NA,NA,NA,NA,NA,NA,NA,NA,NA,NA,NA,NA,NA,NA,NA,NA,NA,NA,NA,NA,NA,NA,NA,NA,NA,NA,NA,NA,NA,NA,NA,NA,NA,NA
SUPAMT52256,3L2IS5HSFGHXKPY6HACWQIC0H02UN6,70A12410-8322-442E-BA8D-8D0D077B215F,2023-09-26_09h15.40.242,WP_VExplicitOC_LH,2022.2.5,Win32,2.96245386,51.11111111,4.5008,2.1285,NA,NA,NA,NA,NA,frustrated,"frustrated, not frustrated","more frustrated, less frustrated",NA,NA,NA,NA,NA,NA,NA,NA,NA,NA,NA,NA,NA,NA,NA,NA,NA,NA,NA,NA,NA,NA,NA,NA,NA,NA,NA,NA,NA,NA,NA,NA,NA,NA,NA,NA,NA,NA,0,0,0,1,1,NA,NA,NA,NA,NA
SUPAMT52256,3L2IS5HSFGHXKPY6HACWQIC0H02UN6,70A12410-8322-442E-BA8D-8D0D077B215F,2023-09-26_09h15.40.242,WP_VExplicitOC_LH,2022.2.5,Win32,2.96245386,46.22222222,4.8561,2.2065,NA,NA,NA,NA,NA,bored,"bored, not bored","more bored, less bored",NA,NA,NA,NA,NA,NA,NA,NA,NA,NA,NA,NA,NA,NA,NA,NA,NA,NA,NA,NA,NA,NA,NA,NA,NA,NA,NA,NA,NA,NA,NA,NA,NA,NA,NA,NA,NA,NA,0,1,1,2,1,NA,NA,NA,NA,NA
SUPAMT52256,3L2IS5HSFGHXKPY6HACWQIC0H02UN6,70A12410-8322-442E-BA8D-8D0D077B215F,2023-09-26_09h15.40.242,WP_VExplicitOC_LH,2022.2.5,Win32,2.96245386,38.66666667,3.7532,2.1676,NA,NA,NA,NA,NA,happy,"unhappy, happy","less happy, more happy",NA,NA,NA,NA,NA,NA,NA,NA,NA,NA,NA,NA,NA,NA,NA,NA,NA,NA,NA,NA,NA,NA,NA,NA,NA,NA,NA,NA,NA,NA,NA,NA,NA,NA,NA,NA,NA,NA,0,2,2,0,1,NA,NA,NA,NA,NA
SUPAMT52256,3L2IS5HSFGHXKPY6HACWQIC0H02UN6,70A12410-8322-442E-BA8D-8D0D077B215F,2023-09-26_09h15.40.242,WP_VExplicitOC_LH,2022.2.5,Win32,2.96245386,NA,NA,NA,NA,NA,NA,NA,NA,NA,NA,NA,NA,NA,NA,NA,NA,NA,NA,NA,NA,NA,NA,NA,NA,NA,NA,NA,NA,NA,NA,NA,NA,NA,NA,NA,NA,NA,NA,NA,NA,NA,NA,NA,NA,NA,NA,NA,NA,NA,NA,NA,NA,NA,NA,0,0,0,0,1
SUPAMT52256,3L2IS5HSFGHXKPY6HACWQIC0H02UN6,70A12410-8322-442E-BA8D-8D0D077B215F,2023-09-26_09h15.40.242,WP_VExplicitOC_LH,2022.2.5,Win32,2.96245386,50,4.0335,2.2832,NA,NA,NA,NA,NA,happy,"unhappy, happy","less happy, more happy",NA,NA,NA,NA,NA,NA,NA,NA,NA,NA,NA,NA,NA,NA,NA,NA,NA,NA,NA,NA,NA,NA,NA,NA,NA,NA,NA,NA,NA,NA,NA,NA,NA,NA,NA,NA,NA,NA,0,0,0,0,1,NA,NA,NA,NA,NA
SUPAMT52256,3L2IS5HSFGHXKPY6HACWQIC0H02UN6,70A12410-8322-442E-BA8D-8D0D077B215F,2023-09-26_09h15.40.242,WP_VExplicitOC_LH,2022.2.5,Win32,2.96245386,50.22222222,3.9408,2.0509,NA,NA,NA,NA,NA,bored,"bored, not bored","more bored, less bored",NA,NA,NA,NA,NA,NA,NA,NA,NA,NA,NA,NA,NA,NA,NA,NA,NA,NA,NA,NA,NA,NA,NA,NA,NA,NA,NA,NA,NA,NA,NA,NA,NA,NA,NA,NA,NA,NA,0,1,1,2,1,NA,NA,NA,NA,NA
SUPAMT52256,3L2IS5HSFGHXKPY6HACWQIC0H02UN6,70A12410-8322-442E-BA8D-8D0D077B215F,2023-09-26_09h15.40.242,WP_VExplicitOC_LH,2022.2.5,Win32,2.96245386,50.22222222,3.6571,2.0766,NA,NA,NA,NA,NA,frustrated,"frustrated, not frustrated","more frustrated, less frustrated",NA,NA,NA,NA,NA,NA,NA,NA,NA,NA,NA,NA,NA,NA,NA,NA,NA,NA,NA,NA,NA,NA,NA,NA,NA,NA,NA,NA,NA,NA,NA,NA,NA,NA,NA,NA,NA,NA,0,2,2,1,1,NA,NA,NA,NA,NA
SUPAMT52256,3L2IS5HSFGHXKPY6HACWQIC0H02UN6,70A12410-8322-442E-BA8D-8D0D077B215F,2023-09-26_09h15.40.242,WP_VExplicitOC_LH,2022.2.5,Win32,2.96245386,NA,NA,NA,NA,NA,NA,NA,NA,NA,NA,NA,NA,NA,NA,NA,NA,NA,NA,NA,NA,NA,NA,NA,NA,NA,NA,NA,NA,NA,NA,NA,NA,NA,NA,NA,NA,NA,NA,NA,NA,NA,NA,NA,NA,NA,NA,NA,NA,NA,NA,NA,NA,NA,NA,1,0,1,0,1
SUPAMT52256,3L2IS5HSFGHXKPY6HACWQIC0H02UN6,70A12410-8322-442E-BA8D-8D0D077B215F,2023-09-26_09h15.40.242,WP_VExplicitOC_LH,2022.2.5,Win32,2.96245386,56.22222222,4.535,2.085,NA,NA,NA,NA,NA,frustrated,"frustrated, not frustrated","more frustrated, less frustrated",NA,NA,NA,NA,NA,NA,NA,NA,NA,NA,NA,NA,NA,NA,NA,NA,NA,NA,NA,NA,NA,NA,NA,NA,NA,NA,NA,NA,NA,NA,NA,NA,NA,NA,NA,NA,NA,NA,0,0,0,1,1,NA,NA,NA,NA,NA
SUPAMT52256,3L2IS5HSFGHXKPY6HACWQIC0H02UN6,70A12410-8322-442E-BA8D-8D0D077B215F,2023-09-26_09h15.40.242,WP_VExplicitOC_LH,2022.2.5,Win32,2.96245386,56.22222222,3.7706,2.1477,NA,NA,NA,NA,NA,happy,"unhappy, happy","less happy, more happy",NA,NA,NA,NA,NA,NA,NA,NA,NA,NA,NA,NA,NA,NA,NA,NA,NA,NA,NA,NA,NA,NA,NA,NA,NA,NA,NA,NA,NA,NA,NA,NA,NA,NA,NA,NA,NA,NA,0,1,1,0,1,NA,NA,NA,NA,NA
SUPAMT52256,3L2IS5HSFGHXKPY6HACWQIC0H02UN6,70A12410-8322-442E-BA8D-8D0D077B215F,2023-09-26_09h15.40.242,WP_VExplicitOC_LH,2022.2.5,Win32,2.96245386,56.22222222,4.3057,2.2139,NA,NA,NA,NA,NA,bored,"bored, not bored","more bored, less bored",NA,NA,NA,NA,NA,NA,NA,NA,NA,NA,NA,NA,NA,NA,NA,NA,NA,NA,NA,NA,NA,NA,NA,NA,NA,NA,NA,NA,NA,NA,NA,NA,NA,NA,NA,NA,NA,NA,0,2,2,2,1,NA,NA,NA,NA,NA
SUPAMT52256,3L2IS5HSFGHXKPY6HACWQIC0H02UN6,70A12410-8322-442E-BA8D-8D0D077B215F,2023-09-26_09h15.40.242,WP_VExplicitOC_LH,2022.2.5,Win32,2.96245386,NA,NA,NA,NA,NA,NA,NA,NA,NA,NA,NA,NA,NA,NA,NA,NA,NA,NA,NA,NA,NA,NA,NA,NA,NA,NA,NA,NA,NA,NA,NA,NA,NA,NA,NA,NA,NA,NA,NA,NA,NA,NA,NA,NA,NA,NA,NA,NA,NA,NA,NA,NA,NA,NA,2,0,2,0,1
SUPAMT52256,3L2IS5HSFGHXKPY6HACWQIC0H02UN6,70A12410-8322-442E-BA8D-8D0D077B215F,2023-09-26_09h15.40.242,WP_VExplicitOC_LH,2022.2.5,Win32,2.96245386,49.33333333,6.339,2.0934,NA,NA,NA,NA,NA,happy,"unhappy, happy","less happy, more happy",NA,NA,NA,NA,NA,NA,NA,NA,NA,NA,NA,NA,NA,NA,NA,NA,NA,NA,NA,NA,NA,NA,NA,NA,NA,NA,NA,NA,NA,NA,NA,NA,NA,NA,NA,NA,NA,NA,0,0,0,0,1,NA,NA,NA,NA,NA
SUPAMT52256,3L2IS5HSFGHXKPY6HACWQIC0H02UN6,70A12410-8322-442E-BA8D-8D0D077B215F,2023-09-26_09h15.40.242,WP_VExplicitOC_LH,2022.2.5,Win32,2.96245386,52,3.3785,2.0615,NA,NA,NA,NA,NA,bored,"bored, not bored","more bored, less bored",NA,NA,NA,NA,NA,NA,NA,NA,NA,NA,NA,NA,NA,NA,NA,NA,NA,NA,NA,NA,NA,NA,NA,NA,NA,NA,NA,NA,NA,NA,NA,NA,NA,NA,NA,NA,NA,NA,0,1,1,2,1,NA,NA,NA,NA,NA
SUPAMT52256,3L2IS5HSFGHXKPY6HACWQIC0H02UN6,70A12410-8322-442E-BA8D-8D0D077B215F,2023-09-26_09h15.40.242,WP_VExplicitOC_LH,2022.2.5,Win32,2.96245386,52,4.6901,2.147,NA,NA,NA,NA,NA,frustrated,"frustrated, not frustrated","more frustrated, less frustrated",NA,NA,NA,NA,NA,NA,NA,NA,NA,NA,NA,NA,NA,NA,NA,NA,NA,NA,NA,NA,NA,NA,NA,NA,NA,NA,NA,NA,NA,NA,NA,NA,NA,NA,NA,NA,NA,NA,0,2,2,1,1,NA,NA,NA,NA,NA
SUPAMT52256,3L2IS5HSFGHXKPY6HACWQIC0H02UN6,70A12410-8322-442E-BA8D-8D0D077B215F,2023-09-26_09h15.40.242,WP_VExplicitOC_LH,2022.2.5,Win32,2.96245386,NA,NA,NA,NA,NA,NA,NA,NA,NA,NA,NA,NA,NA,NA,NA,NA,NA,NA,NA,NA,NA,NA,NA,NA,NA,NA,NA,NA,NA,NA,NA,NA,NA,NA,NA,NA,NA,NA,NA,NA,NA,NA,NA,NA,NA,NA,NA,NA,NA,NA,NA,NA,NA,NA,3,0,3,0,1
SUPAMT52256,3L2IS5HSFGHXKPY6HACWQIC0H02UN6,70A12410-8322-442E-BA8D-8D0D077B215F,2023-09-26_09h15.40.242,WP_VExplicitOC_LH,2022.2.5,Win32,2.96245386,69.33333333,4.3034,2.0124,NA,NA,NA,NA,NA,bored,"bored, not bored","more bored, less bored",NA,NA,NA,NA,NA,NA,NA,NA,NA,NA,NA,NA,NA,NA,NA,NA,NA,NA,NA,NA,NA,NA,NA,NA,NA,NA,NA,NA,NA,NA,NA,NA,NA,NA,NA,NA,NA,NA,0,0,0,2,1,NA,NA,NA,NA,NA
SUPAMT52256,3L2IS5HSFGHXKPY6HACWQIC0H02UN6,70A12410-8322-442E-BA8D-8D0D077B215F,2023-09-26_09h15.40.242,WP_VExplicitOC_LH,2022.2.5,Win32,2.96245386,58.66666667,4.0496,2.2072,NA,NA,NA,NA,NA,happy,"unhappy, happy","less happy, more happy",NA,NA,NA,NA,NA,NA,NA,NA,NA,NA,NA,NA,NA,NA,NA,NA,NA,NA,NA,NA,NA,NA,NA,NA,NA,NA,NA,NA,NA,NA,NA,NA,NA,NA,NA,NA,NA,NA,0,1,1,0,1,NA,NA,NA,NA,NA
SUPAMT52256,3L2IS5HSFGHXKPY6HACWQIC0H02UN6,70A12410-8322-442E-BA8D-8D0D077B215F,2023-09-26_09h15.40.242,WP_VExplicitOC_LH,2022.2.5,Win32,2.96245386,58.66666667,3.4741,2.0212,NA,NA,NA,NA,NA,frustrated,"frustrated, not frustrated","more frustrated, less frustrated",NA,NA,NA,NA,NA,NA,NA,NA,NA,NA,NA,NA,NA,NA,NA,NA,NA,NA,NA,NA,NA,NA,NA,NA,NA,NA,NA,NA,NA,NA,NA,NA,NA,NA,NA,NA,NA,NA,0,2,2,1,1,NA,NA,NA,NA,NA
SUPAMT52256,3L2IS5HSFGHXKPY6HACWQIC0H02UN6,70A12410-8322-442E-BA8D-8D0D077B215F,2023-09-26_09h15.40.242,WP_VExplicitOC_LH,2022.2.5,Win32,2.96245386,NA,NA,NA,NA,NA,NA,NA,NA,NA,NA,NA,NA,NA,NA,NA,NA,NA,NA,NA,NA,NA,NA,NA,NA,NA,NA,NA,NA,NA,NA,NA,NA,NA,NA,NA,NA,NA,NA,NA,NA,NA,NA,NA,NA,NA,NA,NA,NA,NA,NA,NA,NA,NA,NA,4,0,4,0,1
SUPAMT52256,3L2IS5HSFGHXKPY6HACWQIC0H02UN6,70A12410-8322-442E-BA8D-8D0D077B215F,2023-09-26_09h15.40.242,WP_VExplicitOC_LH,2022.2.5,Win32,2.96245386,59.55555556,4.2055,2.1466,NA,NA,NA,NA,NA,bored,"bored, not bored","more bored, less bored",NA,NA,NA,NA,NA,NA,NA,NA,NA,NA,NA,NA,NA,NA,NA,NA,NA,NA,NA,NA,NA,NA,NA,NA,NA,NA,NA,NA,NA,NA,NA,NA,NA,NA,NA,NA,NA,NA,0,0,0,2,1,NA,NA,NA,NA,NA
SUPAMT52256,3L2IS5HSFGHXKPY6HACWQIC0H02UN6,70A12410-8322-442E-BA8D-8D0D077B215F,2023-09-26_09h15.40.242,WP_VExplicitOC_LH,2022.2.5,Win32,2.96245386,68.44444444,3.4794,2.1736,NA,NA,NA,NA,NA,frustrated,"frustrated, not frustrated","more frustrated, less frustrated",NA,NA,NA,NA,NA,NA,NA,NA,NA,NA,NA,NA,NA,NA,NA,NA,NA,NA,NA,NA,NA,NA,NA,NA,NA,NA,NA,NA,NA,NA,NA,NA,NA,NA,NA,NA,NA,NA,0,1,1,1,1,NA,NA,NA,NA,NA
SUPAMT52256,3L2IS5HSFGHXKPY6HACWQIC0H02UN6,70A12410-8322-442E-BA8D-8D0D077B215F,2023-09-26_09h15.40.242,WP_VExplicitOC_LH,2022.2.5,Win32,2.96245386,68.44444444,3.6314,2.2205,NA,NA,NA,NA,NA,happy,"unhappy, happy","less happy, more happy",NA,NA,NA,NA,NA,NA,NA,NA,NA,NA,NA,NA,NA,NA,NA,NA,NA,NA,NA,NA,NA,NA,NA,NA,NA,NA,NA,NA,NA,NA,NA,NA,NA,NA,NA,NA,NA,NA,0,2,2,0,1,NA,NA,NA,NA,NA
SUPAMT52256,3L2IS5HSFGHXKPY6HACWQIC0H02UN6,70A12410-8322-442E-BA8D-8D0D077B215F,2023-09-26_09h15.40.242,WP_VExplicitOC_LH,2022.2.5,Win32,2.96245386,NA,NA,NA,NA,NA,NA,NA,NA,NA,NA,NA,NA,NA,NA,NA,NA,NA,NA,NA,NA,NA,NA,NA,NA,NA,NA,NA,NA,NA,NA,NA,NA,NA,NA,NA,NA,NA,NA,NA,NA,NA,NA,NA,NA,NA,NA,NA,NA,NA,NA,NA,NA,NA,NA,5,0,5,0,1
SUPAMT52256,3L2IS5HSFGHXKPY6HACWQIC0H02UN6,70A12410-8322-442E-BA8D-8D0D077B215F,2023-09-26_09h15.40.242,WP_VExplicitOC_LH,2022.2.5,Win32,2.96245386,54,3.8806,2.0153,NA,NA,NA,NA,NA,frustrated,"frustrated, not frustrated","more frustrated, less frustrated",NA,NA,NA,NA,NA,NA,NA,NA,NA,NA,NA,NA,NA,NA,NA,NA,NA,NA,NA,NA,NA,NA,NA,NA,NA,NA,NA,NA,NA,NA,NA,NA,NA,NA,NA,NA,NA,NA,0,0,0,1,1,NA,NA,NA,NA,NA
SUPAMT52256,3L2IS5HSFGHXKPY6HACWQIC0H02UN6,70A12410-8322-442E-BA8D-8D0D077B215F,2023-09-26_09h15.40.242,WP_VExplicitOC_LH,2022.2.5,Win32,2.96245386,54,3.5207,2.2536,NA,NA,NA,NA,NA,bored,"bored, not bored","more bored, less bored",NA,NA,NA,NA,NA,NA,NA,NA,NA,NA,NA,NA,NA,NA,NA,NA,NA,NA,NA,NA,NA,NA,NA,NA,NA,NA,NA,NA,NA,NA,NA,NA,NA,NA,NA,NA,NA,NA,0,1,1,2,1,NA,NA,NA,NA,NA
SUPAMT52256,3L2IS5HSFGHXKPY6HACWQIC0H02UN6,70A12410-8322-442E-BA8D-8D0D077B215F,2023-09-26_09h15.40.242,WP_VExplicitOC_LH,2022.2.5,Win32,2.96245386,54,3.3773,2.1012,NA,NA,NA,NA,NA,happy,"unhappy, happy","less happy, more happy",NA,NA,NA,NA,NA,NA,NA,NA,NA,NA,NA,NA,NA,NA,NA,NA,NA,NA,NA,NA,NA,NA,NA,NA,NA,NA,NA,NA,NA,NA,NA,NA,NA,NA,NA,NA,NA,NA,0,2,2,0,1,NA,NA,NA,NA,NA
SUPAMT52256,3L2IS5HSFGHXKPY6HACWQIC0H02UN6,70A12410-8322-442E-BA8D-8D0D077B215F,2023-09-26_09h15.40.242,WP_VExplicitOC_LH,2022.2.5,Win32,2.96245386,NA,NA,NA,NA,NA,NA,NA,NA,NA,NA,NA,NA,NA,NA,NA,NA,NA,NA,NA,NA,NA,NA,NA,NA,NA,NA,NA,NA,NA,NA,NA,NA,NA,NA,NA,NA,NA,NA,NA,NA,NA,NA,NA,NA,NA,NA,NA,NA,NA,NA,NA,NA,NA,NA,6,0,6,0,1
SUPAMT52256,3L2IS5HSFGHXKPY6HACWQIC0H02UN6,70A12410-8322-442E-BA8D-8D0D077B215F,2023-09-26_09h15.40.242,WP_VExplicitOC_LH,2022.2.5,Win32,2.96245386,NA,NA,2.1259,NA,NA,NA,NA,NA,happy,"unhappy, happy","less happy, more happy",NA,NA,NA,NA,NA,NA,NA,NA,NA,NA,NA,NA,NA,NA,NA,NA,NA,NA,NA,NA,NA,NA,NA,NA,NA,NA,NA,NA,NA,NA,NA,NA,NA,NA,NA,NA,NA,NA,0,0,0,0,1,NA,NA,NA,NA,NA
SUPAMT52256,3L2IS5HSFGHXKPY6HACWQIC0H02UN6,70A12410-8322-442E-BA8D-8D0D077B215F,2023-09-26_09h15.40.242,WP_VExplicitOC_LH,2022.2.5,Win32,2.96245386,NA,NA,2.0497,NA,NA,NA,NA,NA,bored,"bored, not bored","more bored, less bored",NA,NA,NA,NA,NA,NA,NA,NA,NA,NA,NA,NA,NA,NA,NA,NA,NA,NA,NA,NA,NA,NA,NA,NA,NA,NA,NA,NA,NA,NA,NA,NA,NA,NA,NA,NA,NA,NA,0,1,1,2,1,NA,NA,NA,NA,NA
SUPAMT52256,3L2IS5HSFGHXKPY6HACWQIC0H02UN6,70A12410-8322-442E-BA8D-8D0D077B215F,2023-09-26_09h15.40.242,WP_VExplicitOC_LH,2022.2.5,Win32,2.96245386,NA,NA,2.0672,NA,NA,NA,NA,NA,frustrated,"frustrated, not frustrated","more frustrated, less frustrated",NA,NA,NA,NA,NA,NA,NA,NA,NA,NA,NA,NA,NA,NA,NA,NA,NA,NA,NA,NA,NA,NA,NA,NA,NA,NA,NA,NA,NA,NA,NA,NA,NA,NA,NA,NA,NA,NA,0,2,2,1,1,NA,NA,NA,NA,NA
SUPAMT52256,3L2IS5HSFGHXKPY6HACWQIC0H02UN6,70A12410-8322-442E-BA8D-8D0D077B215F,2023-09-26_09h15.40.242,WP_VExplicitOC_LH,2022.2.5,Win32,2.96245386,NA,NA,NA,NA,NA,NA,NA,NA,NA,NA,NA,NA,NA,NA,NA,NA,NA,NA,NA,NA,NA,NA,NA,NA,NA,NA,NA,NA,NA,NA,NA,NA,NA,NA,NA,NA,NA,NA,NA,NA,NA,NA,NA,NA,NA,NA,NA,NA,NA,NA,NA,NA,NA,NA,7,0,7,0,1
SUPAMT52256,3L2IS5HSFGHXKPY6HACWQIC0H02UN6,70A12410-8322-442E-BA8D-8D0D077B215F,2023-09-26_09h15.40.242,WP_VExplicitOC_LH,2022.2.5,Win32,2.96245386,NA,NA,2.2518,NA,NA,NA,NA,NA,frustrated,"frustrated, not frustrated","more frustrated, less frustrated",NA,NA,NA,NA,NA,NA,NA,NA,NA,NA,NA,NA,NA,NA,NA,NA,NA,NA,NA,NA,NA,NA,NA,NA,NA,NA,NA,NA,NA,NA,NA,NA,NA,NA,NA,NA,NA,NA,0,0,0,1,1,NA,NA,NA,NA,NA
SUPAMT52256,3L2IS5HSFGHXKPY6HACWQIC0H02UN6,70A12410-8322-442E-BA8D-8D0D077B215F,2023-09-26_09h15.40.242,WP_VExplicitOC_LH,2022.2.5,Win32,2.96245386,NA,NA,2.1603,NA,NA,NA,NA,NA,happy,"unhappy, happy","less happy, more happy",NA,NA,NA,NA,NA,NA,NA,NA,NA,NA,NA,NA,NA,NA,NA,NA,NA,NA,NA,NA,NA,NA,NA,NA,NA,NA,NA,NA,NA,NA,NA,NA,NA,NA,NA,NA,NA,NA,0,1,1,0,1,NA,NA,NA,NA,NA
SUPAMT52256,3L2IS5HSFGHXKPY6HACWQIC0H02UN6,70A12410-8322-442E-BA8D-8D0D077B215F,2023-09-26_09h15.40.242,WP_VExplicitOC_LH,2022.2.5,Win32,2.96245386,NA,NA,2.0258,NA,NA,NA,NA,NA,bored,"bored, not bored","more bored, less bored",NA,NA,NA,NA,NA,NA,NA,NA,NA,NA,NA,NA,NA,NA,NA,NA,NA,NA,NA,NA,NA,NA,NA,NA,NA,NA,NA,NA,NA,NA,NA,NA,NA,NA,NA,NA,NA,NA,0,2,2,2,1,NA,NA,NA,NA,NA
SUPAMT52256,3L2IS5HSFGHXKPY6HACWQIC0H02UN6,70A12410-8322-442E-BA8D-8D0D077B215F,2023-09-26_09h15.40.242,WP_VExplicitOC_LH,2022.2.5,Win32,2.96245386,NA,NA,NA,NA,NA,NA,NA,NA,NA,NA,NA,NA,NA,NA,NA,NA,NA,NA,NA,NA,NA,NA,NA,NA,NA,NA,NA,NA,NA,NA,NA,NA,NA,NA,NA,NA,NA,NA,NA,NA,NA,NA,NA,NA,NA,NA,NA,NA,NA,NA,NA,NA,NA,NA,8,0,8,0,1
SUPAMT52256,3L2IS5HSFGHXKPY6HACWQIC0H02UN6,70A12410-8322-442E-BA8D-8D0D077B215F,2023-09-26_09h15.40.242,WP_VExplicitOC_LH,2022.2.5,Win32,2.96245386,NA,NA,2.0233,NA,NA,NA,NA,NA,frustrated,"frustrated, not frustrated","more frustrated, less frustrated",NA,NA,NA,NA,NA,NA,NA,NA,NA,NA,NA,NA,NA,NA,NA,NA,NA,NA,NA,NA,NA,NA,NA,NA,NA,NA,NA,NA,NA,NA,NA,NA,NA,NA,NA,NA,NA,NA,0,0,0,1,1,NA,NA,NA,NA,NA
SUPAMT52256,3L2IS5HSFGHXKPY6HACWQIC0H02UN6,70A12410-8322-442E-BA8D-8D0D077B215F,2023-09-26_09h15.40.242,WP_VExplicitOC_LH,2022.2.5,Win32,2.96245386,52.99600533,4.752,2.0109,NA,NA,NA,NA,NA,happy,"unhappy, happy","less happy, more happy",NA,NA,NA,NA,NA,NA,NA,NA,NA,NA,NA,NA,NA,NA,NA,NA,NA,NA,NA,NA,NA,NA,NA,NA,NA,NA,NA,NA,NA,NA,NA,NA,NA,NA,NA,NA,NA,NA,0,1,1,0,1,NA,NA,NA,NA,NA
SUPAMT52256,3L2IS5HSFGHXKPY6HACWQIC0H02UN6,70A12410-8322-442E-BA8D-8D0D077B215F,2023-09-26_09h15.40.242,WP_VExplicitOC_LH,2022.2.5,Win32,2.96245386,48.88888889,6.714,2.1223,NA,NA,NA,NA,NA,bored,"bored, not bored","more bored, less bored",NA,NA,NA,NA,NA,NA,NA,NA,NA,NA,NA,NA,NA,NA,NA,NA,NA,NA,NA,NA,NA,NA,NA,NA,NA,NA,NA,NA,NA,NA,NA,NA,NA,NA,NA,NA,NA,NA,0,2,2,2,1,NA,NA,NA,NA,NA
SUPAMT52256,3L2IS5HSFGHXKPY6HACWQIC0H02UN6,70A12410-8322-442E-BA8D-8D0D077B215F,2023-09-26_09h15.40.242,WP_VExplicitOC_LH,2022.2.5,Win32,2.96245386,NA,NA,NA,NA,NA,NA,NA,NA,NA,NA,NA,NA,NA,NA,NA,NA,NA,NA,NA,NA,NA,NA,NA,NA,NA,NA,NA,NA,NA,NA,NA,NA,NA,NA,NA,NA,NA,NA,NA,NA,NA,NA,NA,NA,NA,NA,NA,NA,NA,NA,NA,NA,NA,NA,9,0,9,0,1
SUPAMT52256,3L2IS5HSFGHXKPY6HACWQIC0H02UN6,70A12410-8322-442E-BA8D-8D0D077B215F,2023-09-26_09h15.40.242,WP_VExplicitOC_LH,2022.2.5,Win32,2.96245386,45.11111111,4.9529,2.0358,NA,NA,NA,NA,NA,happy,"unhappy, happy","less happy, more happy",NA,NA,NA,NA,NA,NA,NA,NA,NA,NA,NA,NA,NA,NA,NA,NA,NA,NA,NA,NA,NA,NA,NA,NA,NA,NA,NA,NA,NA,NA,NA,NA,NA,NA,NA,NA,NA,NA,0,0,0,0,1,NA,NA,NA,NA,NA
SUPAMT52256,3L2IS5HSFGHXKPY6HACWQIC0H02UN6,70A12410-8322-442E-BA8D-8D0D077B215F,2023-09-26_09h15.40.242,WP_VExplicitOC_LH,2022.2.5,Win32,2.96245386,45.11111111,5.1966,2.0228,NA,NA,NA,NA,NA,frustrated,"frustrated, not frustrated","more frustrated, less frustrated",NA,NA,NA,NA,NA,NA,NA,NA,NA,NA,NA,NA,NA,NA,NA,NA,NA,NA,NA,NA,NA,NA,NA,NA,NA,NA,NA,NA,NA,NA,NA,NA,NA,NA,NA,NA,NA,NA,0,1,1,1,1,NA,NA,NA,NA,NA
SUPAMT52256,3L2IS5HSFGHXKPY6HACWQIC0H02UN6,70A12410-8322-442E-BA8D-8D0D077B215F,2023-09-26_09h15.40.242,WP_VExplicitOC_LH,2022.2.5,Win32,2.96245386,61.55555556,3.5396,2.0303,NA,NA,NA,NA,NA,bored,"bored, not bored","more bored, less bored",NA,NA,NA,NA,NA,NA,NA,NA,NA,NA,NA,NA,NA,NA,NA,NA,NA,NA,NA,NA,NA,NA,NA,NA,NA,NA,NA,NA,NA,NA,NA,NA,NA,NA,NA,NA,NA,NA,0,2,2,2,1,NA,NA,NA,NA,NA
SUPAMT52256,3L2IS5HSFGHXKPY6HACWQIC0H02UN6,70A12410-8322-442E-BA8D-8D0D077B215F,2023-09-26_09h15.40.242,WP_VExplicitOC_LH,2022.2.5,Win32,2.96245386,NA,NA,NA,NA,NA,NA,NA,NA,NA,NA,NA,NA,NA,NA,NA,NA,NA,NA,NA,NA,NA,NA,NA,NA,NA,NA,NA,NA,NA,NA,NA,NA,NA,NA,NA,NA,NA,NA,NA,NA,NA,NA,NA,NA,NA,NA,NA,NA,NA,NA,NA,NA,NA,NA,10,0,10,0,1
SUPAMT52256,3L2IS5HSFGHXKPY6HACWQIC0H02UN6,70A12410-8322-442E-BA8D-8D0D077B215F,2023-09-26_09h15.40.242,WP_VExplicitOC_LH,2022.2.5,Win32,2.96245386,62.88888889,4.9834,2.0861,NA,NA,NA,NA,NA,frustrated,"frustrated, not frustrated","more frustrated, less frustrated",NA,NA,NA,NA,NA,NA,NA,NA,NA,NA,NA,NA,NA,NA,NA,NA,NA,NA,NA,NA,NA,NA,NA,NA,NA,NA,NA,NA,NA,NA,NA,NA,NA,NA,NA,NA,NA,NA,0,0,0,1,1,NA,NA,NA,NA,NA
SUPAMT52256,3L2IS5HSFGHXKPY6HACWQIC0H02UN6,70A12410-8322-442E-BA8D-8D0D077B215F,2023-09-26_09h15.40.242,WP_VExplicitOC_LH,2022.2.5,Win32,2.96245386,62.88888889,6.5714,2.0609,NA,NA,NA,NA,NA,happy,"unhappy, happy","less happy, more happy",NA,NA,NA,NA,NA,NA,NA,NA,NA,NA,NA,NA,NA,NA,NA,NA,NA,NA,NA,NA,NA,NA,NA,NA,NA,NA,NA,NA,NA,NA,NA,NA,NA,NA,NA,NA,NA,NA,0,1,1,0,1,NA,NA,NA,NA,NA
SUPAMT52256,3L2IS5HSFGHXKPY6HACWQIC0H02UN6,70A12410-8322-442E-BA8D-8D0D077B215F,2023-09-26_09h15.40.242,WP_VExplicitOC_LH,2022.2.5,Win32,2.96245386,NA,NA,2.1516,NA,NA,NA,NA,NA,bored,"bored, not bored","more bored, less bored",NA,NA,NA,NA,NA,NA,NA,NA,NA,NA,NA,NA,NA,NA,NA,NA,NA,NA,NA,NA,NA,NA,NA,NA,NA,NA,NA,NA,NA,NA,NA,NA,NA,NA,NA,NA,NA,NA,0,2,2,2,1,NA,NA,NA,NA,NA
SUPAMT52256,3L2IS5HSFGHXKPY6HACWQIC0H02UN6,70A12410-8322-442E-BA8D-8D0D077B215F,2023-09-26_09h15.40.242,WP_VExplicitOC_LH,2022.2.5,Win32,2.96245386,NA,NA,NA,NA,NA,NA,NA,NA,NA,NA,NA,NA,NA,NA,NA,NA,NA,NA,NA,NA,NA,NA,NA,NA,NA,NA,NA,NA,NA,NA,NA,NA,NA,NA,NA,NA,NA,NA,NA,NA,NA,NA,NA,NA,NA,NA,NA,NA,NA,NA,NA,NA,NA,NA,11,0,11,0,1
SUPAMT52256,3L2IS5HSFGHXKPY6HACWQIC0H02UN6,70A12410-8322-442E-BA8D-8D0D077B215F,2023-09-26_09h15.40.242,WP_VExplicitOC_LH,2022.2.5,Win32,2.96245386,NA,NA,2.0554,NA,NA,NA,NA,NA,happy,"unhappy, happy","less happy, more happy",NA,NA,NA,NA,NA,NA,NA,NA,NA,NA,NA,NA,NA,NA,NA,NA,NA,NA,NA,NA,NA,NA,NA,NA,NA,NA,NA,NA,NA,NA,NA,NA,NA,NA,NA,NA,NA,NA,0,0,0,0,1,NA,NA,NA,NA,NA
SUPAMT52256,3L2IS5HSFGHXKPY6HACWQIC0H02UN6,70A12410-8322-442E-BA8D-8D0D077B215F,2023-09-26_09h15.40.242,WP_VExplicitOC_LH,2022.2.5,Win32,2.96245386,NA,NA,2.1731,NA,NA,NA,NA,NA,bored,"bored, not bored","more bored, less bored",NA,NA,NA,NA,NA,NA,NA,NA,NA,NA,NA,NA,NA,NA,NA,NA,NA,NA,NA,NA,NA,NA,NA,NA,NA,NA,NA,NA,NA,NA,NA,NA,NA,NA,NA,NA,NA,NA,0,1,1,2,1,NA,NA,NA,NA,NA
SUPAMT52256,3L2IS5HSFGHXKPY6HACWQIC0H02UN6,70A12410-8322-442E-BA8D-8D0D077B215F,2023-09-26_09h15.40.242,WP_VExplicitOC_LH,2022.2.5,Win32,2.96245386,NA,NA,2.0675,NA,NA,NA,NA,NA,frustrated,"frustrated, not frustrated","more frustrated, less frustrated",NA,NA,NA,NA,NA,NA,NA,NA,NA,NA,NA,NA,NA,NA,NA,NA,NA,NA,NA,NA,NA,NA,NA,NA,NA,NA,NA,NA,NA,NA,NA,NA,NA,NA,NA,NA,NA,NA,0,2,2,1,1,NA,NA,NA,NA,NA
SUPAMT52256,3L2IS5HSFGHXKPY6HACWQIC0H02UN6,70A12410-8322-442E-BA8D-8D0D077B215F,2023-09-26_09h15.40.242,WP_VExplicitOC_LH,2022.2.5,Win32,2.96245386,NA,NA,NA,NA,NA,NA,NA,NA,NA,NA,NA,NA,NA,NA,NA,NA,NA,NA,NA,NA,NA,NA,NA,NA,NA,NA,NA,NA,NA,NA,NA,NA,NA,NA,NA,NA,NA,NA,NA,NA,NA,NA,NA,NA,NA,NA,NA,NA,NA,NA,NA,NA,NA,NA,12,0,12,0,1
SUPAMT52256,3L2IS5HSFGHXKPY6HACWQIC0H02UN6,70A12410-8322-442E-BA8D-8D0D077B215F,2023-09-26_09h15.40.242,WP_VExplicitOC_LH,2022.2.5,Win32,2.96245386,50.66666667,3.8559,2.218,NA,NA,NA,NA,NA,happy,"unhappy, happy","less happy, more happy",NA,NA,NA,NA,NA,NA,NA,NA,NA,NA,NA,NA,NA,NA,NA,NA,NA,NA,NA,NA,NA,NA,NA,NA,NA,NA,NA,NA,NA,NA,NA,NA,NA,NA,NA,NA,NA,NA,0,0,0,0,1,NA,NA,NA,NA,NA
SUPAMT52256,3L2IS5HSFGHXKPY6HACWQIC0H02UN6,70A12410-8322-442E-BA8D-8D0D077B215F,2023-09-26_09h15.40.242,WP_VExplicitOC_LH,2022.2.5,Win32,2.96245386,52,3.8936,2.0429,NA,NA,NA,NA,NA,bored,"bored, not bored","more bored, less bored",NA,NA,NA,NA,NA,NA,NA,NA,NA,NA,NA,NA,NA,NA,NA,NA,NA,NA,NA,NA,NA,NA,NA,NA,NA,NA,NA,NA,NA,NA,NA,NA,NA,NA,NA,NA,NA,NA,0,1,1,2,1,NA,NA,NA,NA,NA
SUPAMT52256,3L2IS5HSFGHXKPY6HACWQIC0H02UN6,70A12410-8322-442E-BA8D-8D0D077B215F,2023-09-26_09h15.40.242,WP_VExplicitOC_LH,2022.2.5,Win32,2.96245386,52,3.4795,2.1508,NA,NA,NA,NA,NA,frustrated,"frustrated, not frustrated","more frustrated, less frustrated",NA,NA,NA,NA,NA,NA,NA,NA,NA,NA,NA,NA,NA,NA,NA,NA,NA,NA,NA,NA,NA,NA,NA,NA,NA,NA,NA,NA,NA,NA,NA,NA,NA,NA,NA,NA,NA,NA,0,2,2,1,1,NA,NA,NA,NA,NA
SUPAMT52256,3L2IS5HSFGHXKPY6HACWQIC0H02UN6,70A12410-8322-442E-BA8D-8D0D077B215F,2023-09-26_09h15.40.242,WP_VExplicitOC_LH,2022.2.5,Win32,2.96245386,NA,NA,NA,NA,NA,NA,NA,NA,NA,NA,NA,NA,NA,NA,NA,NA,NA,NA,NA,NA,NA,NA,NA,NA,NA,NA,NA,NA,NA,NA,NA,NA,NA,NA,NA,NA,NA,NA,NA,NA,NA,NA,NA,NA,NA,NA,NA,NA,NA,NA,NA,NA,NA,NA,13,0,13,0,1
SUPAMT52256,3L2IS5HSFGHXKPY6HACWQIC0H02UN6,70A12410-8322-442E-BA8D-8D0D077B215F,2023-09-26_09h15.40.242,WP_VExplicitOC_LH,2022.2.5,Win32,2.96245386,57.11111111,4.4216,2.0845,NA,NA,NA,NA,NA,frustrated,"frustrated, not frustrated","more frustrated, less frustrated",NA,NA,NA,NA,NA,NA,NA,NA,NA,NA,NA,NA,NA,NA,NA,NA,NA,NA,NA,NA,NA,NA,NA,NA,NA,NA,NA,NA,NA,NA,NA,NA,NA,NA,NA,NA,NA,NA,0,0,0,1,1,NA,NA,NA,NA,NA
SUPAMT52256,3L2IS5HSFGHXKPY6HACWQIC0H02UN6,70A12410-8322-442E-BA8D-8D0D077B215F,2023-09-26_09h15.40.242,WP_VExplicitOC_LH,2022.2.5,Win32,2.96245386,57.11111111,4.0093,2.1068,NA,NA,NA,NA,NA,bored,"bored, not bored","more bored, less bored",NA,NA,NA,NA,NA,NA,NA,NA,NA,NA,NA,NA,NA,NA,NA,NA,NA,NA,NA,NA,NA,NA,NA,NA,NA,NA,NA,NA,NA,NA,NA,NA,NA,NA,NA,NA,NA,NA,0,1,1,2,1,NA,NA,NA,NA,NA
SUPAMT52256,3L2IS5HSFGHXKPY6HACWQIC0H02UN6,70A12410-8322-442E-BA8D-8D0D077B215F,2023-09-26_09h15.40.242,WP_VExplicitOC_LH,2022.2.5,Win32,2.96245386,63.77777778,4.3408,2.1688,NA,NA,NA,NA,NA,happy,"unhappy, happy","less happy, more happy",NA,NA,NA,NA,NA,NA,NA,NA,NA,NA,NA,NA,NA,NA,NA,NA,NA,NA,NA,NA,NA,NA,NA,NA,NA,NA,NA,NA,NA,NA,NA,NA,NA,NA,NA,NA,NA,NA,0,2,2,0,1,NA,NA,NA,NA,NA
SUPAMT52256,3L2IS5HSFGHXKPY6HACWQIC0H02UN6,70A12410-8322-442E-BA8D-8D0D077B215F,2023-09-26_09h15.40.242,WP_VExplicitOC_LH,2022.2.5,Win32,2.96245386,NA,NA,NA,NA,NA,NA,NA,NA,NA,NA,NA,NA,NA,NA,NA,NA,NA,NA,NA,NA,NA,NA,NA,NA,NA,NA,NA,NA,NA,NA,NA,NA,NA,NA,NA,NA,NA,NA,NA,NA,NA,NA,NA,NA,NA,NA,NA,NA,NA,NA,NA,NA,NA,NA,14,0,14,0,1
SUPAMT52256,3L2IS5HSFGHXKPY6HACWQIC0H02UN6,70A12410-8322-442E-BA8D-8D0D077B215F,2023-09-26_09h15.40.242,WP_VExplicitOC_LH,2022.2.5,Win32,2.96245386,NA,NA,NA,NA,NA,NA,NA,NA,NA,NA,NA,NA,NA,NA,NA,NA,NA,NA,NA,NA,NA,NA,NA,NA,NA,NA,NA,NA,NA,NA,NA,NA,NA,NA,NA,NA,NA,NA,NA,NA,NA,NA,NA,NA,NA,NA,NA,NA,NA,NA,NA,NA,NA,NA,NA,NA,NA,NA,NA
