"Event.Index","UTC.Timestamp","UTC.Date.and.Time","Local.Timestamp","Local.Timezone","Local.Date.and.Time","Experiment.ID","Experiment.Version","Tree.Node.Key","Repeat.Key","Schedule.ID","Participant.Private.ID","Participant.Starting.Group","Participant.Status","Participant.Completion.Code","Participant.External.Session.ID","Participant.Device.Type","Participant.Device","Participant.OS","Participant.Browser","Participant.Monitor.Size","Participant.Viewport.Size","Checkpoint","Room.ID","Room.Order","Task.Name","Task.Version","branch.hkzp","order.ot79","branch.mcuq","branch.4fv7","Spreadsheet","Current.Spreadsheet","Trial.Number","Display","Screen","Screen.ID","Screen.Counter","Response.Type","Response","Onset.Time","Clock.Time","Reaction.Time","Absolute.Onset.Time","Absolute.Clock.Time","Absolute.Reaction.Time","Correct","Response.Onset","Response.Duration","Proportion","Tag","Component.Name","Object.Name","Object.Number","Object.ID","Spreadsheet..display","Manipulation..Spreadsheet","Random_ID"
"1",1698680711783,"30/10/2023 15:45:11",1698680711783,0,"30/10/2023 15:45:11",149691,4,"questionnaire-uu2n",NA,32578458,9641037,NA,"rejected - manual",NA,"653fcd5bced2790d4ad9aab2","computer","Desktop or Laptop","Windows 10","Edge 116.0.1938.62","1397x786","1389x634",NA,NA,0,"BIQ (Charlotte)",2,"In","ABLCKDJEIFHG",NA,"In","Spreadsheet1","Spreadsheet1",NA,"","","",NA,"5","BEGIN",NA,NA,NA,NA,NA,NA,0,NA,NA,NA,NA,"","",NA,"","",NA,"MDPRF45287"
"2",1698680747658,"30/10/2023 15:45:47",1698680747658,0,"30/10/2023 15:45:47",149691,4,"questionnaire-uu2n",NA,32578458,9641037,NA,"rejected - manual",NA,"653fcd5bced2790d4ad9aab2","computer","Desktop or Laptop","Windows 10","Edge 116.0.1938.62","1397x786","1389x634",NA,NA,0,"BIQ (Charlotte)",2,"In","ABLCKDJEIFHG",NA,"In","Spreadsheet1","Spreadsheet1",1,"BIQ","Screen 1","9dh6eq",1,"continue","",35921.157,35904.52,35921.157,35921.157,35904.52,35921.157,1,35921.157,0,0,NA,"Click To Continue","Continue Button",23,"object-48","BIQ",NA,"MDPRF45287"
"3",1698680747665,"30/10/2023 15:45:47",1698680747665,0,"30/10/2023 15:45:47",149691,4,"questionnaire-uu2n",NA,32578458,9641037,NA,"rejected - manual",NA,"653fcd5bced2790d4ad9aab2","computer","Desktop or Laptop","Windows 10","Edge 116.0.1938.62","1397x786","1389x634",NA,NA,0,"BIQ (Charlotte)",2,"In","ABLCKDJEIFHG",NA,"In","Spreadsheet1","Spreadsheet1",1,"BIQ","Screen 1","9dh6eq",1,"response","5",21492.752,35904.52,35921.157,21492.752,35904.52,35921.157,1,21492.752,14428.405,0,NA,"Rating Scale","Rating Scale",3,"object-5","BIQ",NA,"MDPRF45287"
"4",1698680747667,"30/10/2023 15:45:47",1698680747667,0,"30/10/2023 15:45:47",149691,4,"questionnaire-uu2n",NA,32578458,9641037,NA,"rejected - manual",NA,"653fcd5bced2790d4ad9aab2","computer","Desktop or Laptop","Windows 10","Edge 116.0.1938.62","1397x786","1389x634",NA,NA,0,"BIQ (Charlotte)",2,"In","ABLCKDJEIFHG",NA,"In","Spreadsheet1","Spreadsheet1",1,"BIQ","Screen 1","9dh6eq",1,"response","6",30856.256,35904.52,35921.157,30856.256,35904.52,35921.157,1,30856.256,5064.901,0,NA,"Rating Scale","Rating Scale",10,"object-18","BIQ",NA,"MDPRF45287"
"5",1698680747668,"30/10/2023 15:45:47",1698680747668,0,"30/10/2023 15:45:47",149691,4,"questionnaire-uu2n",NA,32578458,9641037,NA,"rejected - manual",NA,"653fcd5bced2790d4ad9aab2","computer","Desktop or Laptop","Windows 10","Edge 116.0.1938.62","1397x786","1389x634",NA,NA,0,"BIQ (Charlotte)",2,"In","ABLCKDJEIFHG",NA,"In","Spreadsheet1","Spreadsheet1",1,"BIQ","Screen 1","9dh6eq",1,"response","3",35288.056,35904.52,35921.157,35288.056,35904.52,35921.157,1,35288.056,633.101000000002,0,NA,"Rating Scale","Rating Scale",17,"object-80","BIQ",NA,"MDPRF45287"
"6",1698680769120,"30/10/2023 15:46:09",1698680769120,0,"30/10/2023 15:46:09",149691,4,"questionnaire-uu2n",NA,32578458,9641037,NA,"rejected - manual",NA,"653fcd5bced2790d4ad9aab2","computer","Desktop or Laptop","Windows 10","Edge 116.0.1938.62","1397x786","1389x634",NA,NA,0,"BIQ (Charlotte)",2,"In","ABLCKDJEIFHG",NA,"In","Spreadsheet1","Spreadsheet1",1,"BIQ","Screen 2","o21mwi",2,"continue","",21480.7899998093,21476.055,21480.7899998093,21480.7899998093,21476.055,21480.7899998093,1,21480.7899998093,0,0,NA,"Click To Continue","Continue Button",22,"object-50","BIQ",NA,"MDPRF45287"
"7",1698680769133,"30/10/2023 15:46:09",1698680769133,0,"30/10/2023 15:46:09",149691,4,"questionnaire-uu2n",NA,32578458,9641037,NA,"rejected - manual",NA,"653fcd5bced2790d4ad9aab2","computer","Desktop or Laptop","Windows 10","Edge 116.0.1938.62","1397x786","1389x634",NA,NA,0,"BIQ (Charlotte)",2,"In","ABLCKDJEIFHG",NA,"In","Spreadsheet1","Spreadsheet1",1,"BIQ","Screen 2","o21mwi",2,"response","7",7814.017,21476.055,21492.68,7814.017,21476.055,21492.68,1,7814.017,13678.663,0,NA,"Rating Scale","Rating Scale",2,"object-259","BIQ",NA,"MDPRF45287"
"8",1698680769135,"30/10/2023 15:46:09",1698680769135,0,"30/10/2023 15:46:09",149691,4,"questionnaire-uu2n",NA,32578458,9641037,NA,"rejected - manual",NA,"653fcd5bced2790d4ad9aab2","computer","Desktop or Laptop","Windows 10","Edge 116.0.1938.62","1397x786","1389x634",NA,NA,0,"BIQ (Charlotte)",2,"In","ABLCKDJEIFHG",NA,"In","Spreadsheet1","Spreadsheet1",1,"BIQ","Screen 2","o21mwi",2,"response","3",10863.027,21476.055,21492.68,10863.027,21476.055,21492.68,1,10863.027,10629.653,0,NA,"Rating Scale","Rating Scale",9,"object-36","BIQ",NA,"MDPRF45287"
"9",1698680769137,"30/10/2023 15:46:09",1698680769137,0,"30/10/2023 15:46:09",149691,4,"questionnaire-uu2n",NA,32578458,9641037,NA,"rejected - manual",NA,"653fcd5bced2790d4ad9aab2","computer","Desktop or Laptop","Windows 10","Edge 116.0.1938.62","1397x786","1389x634",NA,NA,0,"BIQ (Charlotte)",2,"In","ABLCKDJEIFHG",NA,"In","Spreadsheet1","Spreadsheet1",1,"BIQ","Screen 2","o21mwi",2,"response","4",20043.252,21476.055,21492.68,20043.252,21476.055,21492.68,1,20043.252,1449.428,0,NA,"Rating Scale","Rating Scale",16,"object-86","BIQ",NA,"MDPRF45287"
"10",1698680779380,"30/10/2023 15:46:19",1698680779380,0,"30/10/2023 15:46:19",149691,4,"questionnaire-uu2n",NA,32578458,9641037,NA,"rejected - manual",NA,"653fcd5bced2790d4ad9aab2","computer","Desktop or Laptop","Windows 10","Edge 116.0.1938.62","1397x786","1389x634",NA,NA,0,"BIQ (Charlotte)",2,"In","ABLCKDJEIFHG",NA,"In","Spreadsheet1","Spreadsheet1",1,"BIQ","Screen 3","iz3the",3,"continue","",10263.218,10246.579,10263.218,10263.218,10246.579,10263.218,1,10263.218,0,0,NA,"Click To Continue","Continue Button",22,"object-73","BIQ",NA,"MDPRF45287"
"11",1698680779389,"30/10/2023 15:46:19",1698680779389,0,"30/10/2023 15:46:19",149691,4,"questionnaire-uu2n",NA,32578458,9641037,NA,"rejected - manual",NA,"653fcd5bced2790d4ad9aab2","computer","Desktop or Laptop","Windows 10","Edge 116.0.1938.62","1397x786","1389x634",NA,NA,0,"BIQ (Charlotte)",2,"In","ABLCKDJEIFHG",NA,"In","Spreadsheet1","Spreadsheet1",1,"BIQ","Screen 3","iz3the",3,"response","0",4032.019,10246.579,10263.218,4032.019,10246.579,10263.218,1,4032.019,6231.19899999999,0,NA,"Rating Scale","Rating Scale",2,"object-53","BIQ",NA,"MDPRF45287"
"12",1698680779391,"30/10/2023 15:46:19",1698680779391,0,"30/10/2023 15:46:19",149691,4,"questionnaire-uu2n",NA,32578458,9641037,NA,"rejected - manual",NA,"653fcd5bced2790d4ad9aab2","computer","Desktop or Laptop","Windows 10","Edge 116.0.1938.62","1397x786","1389x634",NA,NA,0,"BIQ (Charlotte)",2,"In","ABLCKDJEIFHG",NA,"In","Spreadsheet1","Spreadsheet1",1,"BIQ","Screen 3","iz3the",3,"response","2",6864.384,10246.579,10263.218,6864.384,10246.579,10263.218,1,6864.384,3398.83399999999,0,NA,"Rating Scale","Rating Scale",9,"object-60","BIQ",NA,"MDPRF45287"
"13",1698680779393,"30/10/2023 15:46:19",1698680779393,0,"30/10/2023 15:46:19",149691,4,"questionnaire-uu2n",NA,32578458,9641037,NA,"rejected - manual",NA,"653fcd5bced2790d4ad9aab2","computer","Desktop or Laptop","Windows 10","Edge 116.0.1938.62","1397x786","1389x634",NA,NA,0,"BIQ (Charlotte)",2,"In","ABLCKDJEIFHG",NA,"In","Spreadsheet1","Spreadsheet1",1,"BIQ","Screen 3","iz3the",3,"response","4",8946.959,10246.579,10263.218,8946.959,10246.579,10263.218,1,8946.959,1316.25899999999,0,NA,"Rating Scale","Rating Scale",16,"object-67","BIQ",NA,"MDPRF45287"
"14",1698680779403,"30/10/2023 15:46:19",1698680779403,0,"30/10/2023 15:46:19",149691,4,"questionnaire-uu2n",NA,32578458,9641037,NA,"rejected - manual",NA,"653fcd5bced2790d4ad9aab2","computer","Desktop or Laptop","Windows 10","Edge 116.0.1938.62","1397x786","1389x634",NA,NA,0,"BIQ (Charlotte)",2,"In","ABLCKDJEIFHG",NA,"In","Spreadsheet1","Spreadsheet1",NA,"","","",NA,"5","END",NA,NA,NA,NA,NA,NA,0,NA,NA,NA,NA,"","",NA,"","",NA,"MDPRF45287"
"1",1698680893616,"30/10/2023 15:48:13",1698680893616,0,"30/10/2023 15:48:13",149691,4,"questionnaire-uu2n",NA,32578525,9641059,NA,"rejected - time limit reached",NA,"653fcdf11650a6b7d05ac7d3","computer","Desktop or Laptop","Mac OS 10.15.7","Chrome 116.0.0.0","1440x900","1023x689",NA,NA,0,"BIQ (Charlotte)",2,"In","CDBEAFLGKHJI",NA,"In","Spreadsheet1","Spreadsheet1",NA,"","","",NA,"5","BEGIN",NA,NA,NA,NA,NA,NA,0,NA,NA,NA,NA,"","",NA,"","",NA,"MDPRF10933"
"2",1698680918434,"30/10/2023 15:48:38",1698680918434,0,"30/10/2023 15:48:38",149691,4,"questionnaire-uu2n",NA,32578525,9641059,NA,"rejected - time limit reached",NA,"653fcdf11650a6b7d05ac7d3","computer","Desktop or Laptop","Mac OS 10.15.7","Chrome 116.0.0.0","1440x900","1023x689",NA,NA,0,"BIQ (Charlotte)",2,"In","CDBEAFLGKHJI",NA,"In","Spreadsheet1","Spreadsheet1",1,"BIQ","Screen 1","9dh6eq",1,"continue","",24825.4620000007,24816.188,24825.4620000007,24825.4620000007,24816.188,24825.4620000007,1,24825.4620000007,0,0,NA,"Click To Continue","Continue Button",23,"object-48","BIQ",NA,"MDPRF10933"
"3",1698680918436,"30/10/2023 15:48:38",1698680918436,0,"30/10/2023 15:48:38",149691,4,"questionnaire-uu2n",NA,32578525,9641059,NA,"rejected - time limit reached",NA,"653fcdf11650a6b7d05ac7d3","computer","Desktop or Laptop","Mac OS 10.15.7","Chrome 116.0.0.0","1440x900","1023x689",NA,NA,0,"BIQ (Charlotte)",2,"In","CDBEAFLGKHJI",NA,"In","Spreadsheet1","Spreadsheet1",1,"BIQ","Screen 1","9dh6eq",1,"response","4",9725.918,24816.188,24832.899,9725.918,24816.188,24832.899,1,9725.918,15106.981,0,NA,"Rating Scale","Rating Scale",3,"object-5","BIQ",NA,"MDPRF10933"
"4",1698680918437,"30/10/2023 15:48:38",1698680918437,0,"30/10/2023 15:48:38",149691,4,"questionnaire-uu2n",NA,32578525,9641059,NA,"rejected - time limit reached",NA,"653fcdf11650a6b7d05ac7d3","computer","Desktop or Laptop","Mac OS 10.15.7","Chrome 116.0.0.0","1440x900","1023x689",NA,NA,0,"BIQ (Charlotte)",2,"In","CDBEAFLGKHJI",NA,"In","Spreadsheet1","Spreadsheet1",1,"BIQ","Screen 1","9dh6eq",1,"response","6",18766.806,24816.188,24832.899,18766.806,24816.188,24832.899,1,18766.806,6066.093,0,NA,"Rating Scale","Rating Scale",10,"object-18","BIQ",NA,"MDPRF10933"
"5",1698680918437,"30/10/2023 15:48:38",1698680918437,0,"30/10/2023 15:48:38",149691,4,"questionnaire-uu2n",NA,32578525,9641059,NA,"rejected - time limit reached",NA,"653fcdf11650a6b7d05ac7d3","computer","Desktop or Laptop","Mac OS 10.15.7","Chrome 116.0.0.0","1440x900","1023x689",NA,NA,0,"BIQ (Charlotte)",2,"In","CDBEAFLGKHJI",NA,"In","Spreadsheet1","Spreadsheet1",1,"BIQ","Screen 1","9dh6eq",1,"response","3",23562.863,24816.188,24832.899,23562.863,24816.188,24832.899,1,23562.863,1270.036,0,NA,"Rating Scale","Rating Scale",17,"object-80","BIQ",NA,"MDPRF10933"
"6",1698680967482,"30/10/2023 15:49:27",1698680967482,0,"30/10/2023 15:49:27",149691,4,"questionnaire-uu2n",NA,32578525,9641059,NA,"rejected - time limit reached",NA,"653fcdf11650a6b7d05ac7d3","computer","Desktop or Laptop","Mac OS 10.15.7","Chrome 116.0.0.0","1440x900","1023x689",NA,NA,0,"BIQ (Charlotte)",2,"In","CDBEAFLGKHJI",NA,"In","Spreadsheet1","Spreadsheet1",1,"BIQ","Screen 2","o21mwi",2,"continue","",49064.393,49047.682,49064.393,49064.393,49047.682,49064.393,1,49064.393,0,0,NA,"Click To Continue","Continue Button",22,"object-50","BIQ",NA,"MDPRF10933"
"7",1698680967488,"30/10/2023 15:49:27",1698680967488,0,"30/10/2023 15:49:27",149691,4,"questionnaire-uu2n",NA,32578525,9641059,NA,"rejected - time limit reached",NA,"653fcdf11650a6b7d05ac7d3","computer","Desktop or Laptop","Mac OS 10.15.7","Chrome 116.0.0.0","1440x900","1023x689",NA,NA,0,"BIQ (Charlotte)",2,"In","CDBEAFLGKHJI",NA,"In","Spreadsheet1","Spreadsheet1",1,"BIQ","Screen 2","o21mwi",2,"response","7",7269.462,49047.682,49064.393,7269.462,49047.682,49064.393,1,7269.462,41794.931,0,NA,"Rating Scale","Rating Scale",2,"object-259","BIQ",NA,"MDPRF10933"
"8",1698680967489,"30/10/2023 15:49:27",1698680967489,0,"30/10/2023 15:49:27",149691,4,"questionnaire-uu2n",NA,32578525,9641059,NA,"rejected - time limit reached",NA,"653fcdf11650a6b7d05ac7d3","computer","Desktop or Laptop","Mac OS 10.15.7","Chrome 116.0.0.0","1440x900","1023x689",NA,NA,0,"BIQ (Charlotte)",2,"In","CDBEAFLGKHJI",NA,"In","Spreadsheet1","Spreadsheet1",1,"BIQ","Screen 2","o21mwi",2,"response","4",24782.951,49047.682,49064.393,24782.951,49047.682,49064.393,1,24782.951,24281.442,0,NA,"Rating Scale","Rating Scale",9,"object-36","BIQ",NA,"MDPRF10933"
"9",1698680967489,"30/10/2023 15:49:27",1698680967489,0,"30/10/2023 15:49:27",149691,4,"questionnaire-uu2n",NA,32578525,9641059,NA,"rejected - time limit reached",NA,"653fcdf11650a6b7d05ac7d3","computer","Desktop or Laptop","Mac OS 10.15.7","Chrome 116.0.0.0","1440x900","1023x689",NA,NA,0,"BIQ (Charlotte)",2,"In","CDBEAFLGKHJI",NA,"In","Spreadsheet1","Spreadsheet1",1,"BIQ","Screen 2","o21mwi",2,"response","4",47460.137,49047.682,49064.393,47460.137,49047.682,49064.393,1,47460.137,1604.25599999999,0,NA,"Rating Scale","Rating Scale",16,"object-86","BIQ",NA,"MDPRF10933"
"10",1698680987891,"30/10/2023 15:49:47",1698680987891,0,"30/10/2023 15:49:47",149691,4,"questionnaire-uu2n",NA,32578525,9641059,NA,"rejected - time limit reached",NA,"653fcdf11650a6b7d05ac7d3","computer","Desktop or Laptop","Mac OS 10.15.7","Chrome 116.0.0.0","1440x900","1023x689",NA,NA,0,"BIQ (Charlotte)",2,"In","CDBEAFLGKHJI",NA,"In","Spreadsheet1","Spreadsheet1",1,"BIQ","Screen 3","iz3the",3,"continue","",20425.5920000007,20421.215,20425.5920000007,20425.5920000007,20421.215,20425.5920000007,1,20425.5920000007,0,0,NA,"Click To Continue","Continue Button",22,"object-73","BIQ",NA,"MDPRF10933"
"11",1698680987896,"30/10/2023 15:49:47",1698680987896,0,"30/10/2023 15:49:47",149691,4,"questionnaire-uu2n",NA,32578525,9641059,NA,"rejected - time limit reached",NA,"653fcdf11650a6b7d05ac7d3","computer","Desktop or Laptop","Mac OS 10.15.7","Chrome 116.0.0.0","1440x900","1023x689",NA,NA,0,"BIQ (Charlotte)",2,"In","CDBEAFLGKHJI",NA,"In","Spreadsheet1","Spreadsheet1",1,"BIQ","Screen 3","iz3the",3,"response","3",10177.185,20421.215,20430.792,10177.185,20421.215,20430.792,1,10177.185,10253.607,0,NA,"Rating Scale","Rating Scale",2,"object-53","BIQ",NA,"MDPRF10933"
"12",1698680987896,"30/10/2023 15:49:47",1698680987896,0,"30/10/2023 15:49:47",149691,4,"questionnaire-uu2n",NA,32578525,9641059,NA,"rejected - time limit reached",NA,"653fcdf11650a6b7d05ac7d3","computer","Desktop or Laptop","Mac OS 10.15.7","Chrome 116.0.0.0","1440x900","1023x689",NA,NA,0,"BIQ (Charlotte)",2,"In","CDBEAFLGKHJI",NA,"In","Spreadsheet1","Spreadsheet1",1,"BIQ","Screen 3","iz3the",3,"response","3",12817.71,20421.215,20431.9919999993,12817.71,20421.215,20431.9919999993,1,12817.71,7614.28199999925,0,NA,"Rating Scale","Rating Scale",9,"object-60","BIQ",NA,"MDPRF10933"
"13",1698680987897,"30/10/2023 15:49:47",1698680987897,0,"30/10/2023 15:49:47",149691,4,"questionnaire-uu2n",NA,32578525,9641059,NA,"rejected - time limit reached",NA,"653fcdf11650a6b7d05ac7d3","computer","Desktop or Laptop","Mac OS 10.15.7","Chrome 116.0.0.0","1440x900","1023x689",NA,NA,0,"BIQ (Charlotte)",2,"In","CDBEAFLGKHJI",NA,"In","Spreadsheet1","Spreadsheet1",1,"BIQ","Screen 3","iz3the",3,"response","3",19635.798,20421.215,20432.4919999993,19635.798,20421.215,20432.4919999993,1,19635.798,796.693999999261,0,NA,"Rating Scale","Rating Scale",16,"object-67","BIQ",NA,"MDPRF10933"
"14",1698680987899,"30/10/2023 15:49:47",1698680987899,0,"30/10/2023 15:49:47",149691,4,"questionnaire-uu2n",NA,32578525,9641059,NA,"rejected - time limit reached",NA,"653fcdf11650a6b7d05ac7d3","computer","Desktop or Laptop","Mac OS 10.15.7","Chrome 116.0.0.0","1440x900","1023x689",NA,NA,0,"BIQ (Charlotte)",2,"In","CDBEAFLGKHJI",NA,"In","Spreadsheet1","Spreadsheet1",NA,"","","",NA,"5","END",NA,NA,NA,NA,NA,NA,0,NA,NA,NA,NA,"","",NA,"","",NA,"MDPRF10933"
"1",1698680610862,"30/10/2023 15:43:30",1698680610862,0,"30/10/2023 15:43:30",149691,4,"questionnaire-uu2n",NA,32578421,9641065,NA,"complete",NA,"653fce302916cc1b2847a58a","computer","Desktop or Laptop","Windows 10","Chrome 118.0.0.0","1920x1080","1920x955",NA,NA,0,"BIQ (Charlotte)",2,"In","FGEHDICJBKAL",NA,"In","Spreadsheet1","Spreadsheet1",NA,"","","",NA,"5","BEGIN",NA,NA,NA,NA,NA,NA,0,NA,NA,NA,NA,"","",NA,"","",NA,"MDPRF96180"
"2",1698681182117,"30/10/2023 15:53:02",1698681182117,0,"30/10/2023 15:53:02",149691,4,"questionnaire-uu2n",NA,32578421,9641065,NA,"complete",NA,"653fce302916cc1b2847a58a","computer","Desktop or Laptop","Windows 10","Chrome 118.0.0.0","1920x1080","1920x955",NA,NA,0,"BIQ (Charlotte)",2,"In","FGEHDICJBKAL",NA,"In","Spreadsheet1","Spreadsheet1",1,"BIQ","Screen 1","9dh6eq",1,"continue","",571259.095,571256.217,571259.095,571259.095,571256.217,571259.095,1,571259.095,0,0,NA,"Click To Continue","Continue Button",23,"object-48","BIQ",NA,"MDPRF96180"
"3",1698681182119,"30/10/2023 15:53:02",1698681182119,0,"30/10/2023 15:53:02",149691,4,"questionnaire-uu2n",NA,32578421,9641065,NA,"complete",NA,"653fce302916cc1b2847a58a","computer","Desktop or Laptop","Windows 10","Chrome 118.0.0.0","1920x1080","1920x955",NA,NA,0,"BIQ (Charlotte)",2,"In","FGEHDICJBKAL",NA,"In","Spreadsheet1","Spreadsheet1",1,"BIQ","Screen 1","9dh6eq",1,"response","5",557177.87,571256.217,571264.095,557177.87,571256.217,571264.095,1,557177.87,14086.225,0,NA,"Rating Scale","Rating Scale",3,"object-5","BIQ",NA,"MDPRF96180"
"4",1698681182119,"30/10/2023 15:53:02",1698681182119,0,"30/10/2023 15:53:02",149691,4,"questionnaire-uu2n",NA,32578421,9641065,NA,"complete",NA,"653fce302916cc1b2847a58a","computer","Desktop or Laptop","Windows 10","Chrome 118.0.0.0","1920x1080","1920x955",NA,NA,0,"BIQ (Charlotte)",2,"In","FGEHDICJBKAL",NA,"In","Spreadsheet1","Spreadsheet1",1,"BIQ","Screen 1","9dh6eq",1,"response","8",561842.85,571256.217,571264.394999952,561842.85,571256.217,571264.394999952,1,561842.85,9421.54499995231,0,NA,"Rating Scale","Rating Scale",10,"object-18","BIQ",NA,"MDPRF96180"
"5",1698681182119,"30/10/2023 15:53:02",1698681182119,0,"30/10/2023 15:53:02",149691,4,"questionnaire-uu2n",NA,32578421,9641065,NA,"complete",NA,"653fce302916cc1b2847a58a","computer","Desktop or Laptop","Windows 10","Chrome 118.0.0.0","1920x1080","1920x955",NA,NA,0,"BIQ (Charlotte)",2,"In","FGEHDICJBKAL",NA,"In","Spreadsheet1","Spreadsheet1",1,"BIQ","Screen 1","9dh6eq",1,"response","1",567007.932,571256.217,571264.695000143,567007.932,571256.217,571264.695000143,1,567007.932,4256.76300014299,0,NA,"Rating Scale","Rating Scale",17,"object-80","BIQ",NA,"MDPRF96180"
"6",1698681202176,"30/10/2023 15:53:22",1698681202176,0,"30/10/2023 15:53:22",149691,4,"questionnaire-uu2n",NA,32578421,9641065,NA,"complete",NA,"653fce302916cc1b2847a58a","computer","Desktop or Laptop","Windows 10","Chrome 118.0.0.0","1920x1080","1920x955",NA,NA,0,"BIQ (Charlotte)",2,"In","FGEHDICJBKAL",NA,"In","Spreadsheet1","Spreadsheet1",1,"BIQ","Screen 2","o21mwi",2,"continue","",20065.0780000477,20060.1240000001,20065.0780000477,20065.0780000477,20060.1240000001,20065.0780000477,1,20065.0780000477,0,0,NA,"Click To Continue","Continue Button",22,"object-50","BIQ",NA,"MDPRF96180"
"7",1698681202178,"30/10/2023 15:53:22",1698681202178,0,"30/10/2023 15:53:22",149691,4,"questionnaire-uu2n",NA,32578421,9641065,NA,"complete",NA,"653fce302916cc1b2847a58a","computer","Desktop or Laptop","Windows 10","Chrome 118.0.0.0","1920x1080","1920x955",NA,NA,0,"BIQ (Charlotte)",2,"In","FGEHDICJBKAL",NA,"In","Spreadsheet1","Spreadsheet1",1,"BIQ","Screen 2","o21mwi",2,"response","8",6464.73200000008,20060.1240000001,20066.7780000954,6464.73200000008,20060.1240000001,20066.7780000954,1,6464.73200000008,13602.0460000953,0,NA,"Rating Scale","Rating Scale",2,"object-259","BIQ",NA,"MDPRF96180"
"8",1698681202178,"30/10/2023 15:53:22",1698681202178,0,"30/10/2023 15:53:22",149691,4,"questionnaire-uu2n",NA,32578421,9641065,NA,"complete",NA,"653fce302916cc1b2847a58a","computer","Desktop or Laptop","Windows 10","Chrome 118.0.0.0","1920x1080","1920x955",NA,NA,0,"BIQ (Charlotte)",2,"In","FGEHDICJBKAL",NA,"In","Spreadsheet1","Spreadsheet1",1,"BIQ","Screen 2","o21mwi",2,"response","1",10679.726,20060.1240000001,20067.0780000477,10679.726,20060.1240000001,20067.0780000477,1,10679.726,9387.35200004769,0,NA,"Rating Scale","Rating Scale",9,"object-36","BIQ",NA,"MDPRF96180"
"9",1698681202178,"30/10/2023 15:53:22",1698681202178,0,"30/10/2023 15:53:22",149691,4,"questionnaire-uu2n",NA,32578421,9641065,NA,"complete",NA,"653fce302916cc1b2847a58a","computer","Desktop or Laptop","Windows 10","Chrome 118.0.0.0","1920x1080","1920x955",NA,NA,0,"BIQ (Charlotte)",2,"In","FGEHDICJBKAL",NA,"In","Spreadsheet1","Spreadsheet1",1,"BIQ","Screen 2","o21mwi",2,"response","0",19060.3350000001,20060.1240000001,20067.2780000954,19060.3350000001,20060.1240000001,20067.2780000954,1,19060.3350000001,1006.94300009531,0,NA,"Rating Scale","Rating Scale",16,"object-86","BIQ",NA,"MDPRF96180"
"10",1698681218183,"30/10/2023 15:53:38",1698681218183,0,"30/10/2023 15:53:38",149691,4,"questionnaire-uu2n",NA,32578421,9641065,NA,"complete",NA,"653fce302916cc1b2847a58a","computer","Desktop or Laptop","Windows 10","Chrome 118.0.0.0","1920x1080","1920x955",NA,NA,0,"BIQ (Charlotte)",2,"In","FGEHDICJBKAL",NA,"In","Spreadsheet1","Spreadsheet1",1,"BIQ","Screen 3","iz3the",3,"continue","",16011.5489999999,15994.6229999999,16011.5489999999,16011.5489999999,15994.6229999999,16011.5489999999,1,16011.5489999999,0,0,NA,"Click To Continue","Continue Button",22,"object-73","BIQ",NA,"MDPRF96180"
"11",1698681218189,"30/10/2023 15:53:38",1698681218189,0,"30/10/2023 15:53:38",149691,4,"questionnaire-uu2n",NA,32578421,9641065,NA,"complete",NA,"653fce302916cc1b2847a58a","computer","Desktop or Laptop","Windows 10","Chrome 118.0.0.0","1920x1080","1920x955",NA,NA,0,"BIQ (Charlotte)",2,"In","FGEHDICJBKAL",NA,"In","Spreadsheet1","Spreadsheet1",1,"BIQ","Screen 3","iz3the",3,"response","0",5597.90999999992,15994.6229999999,16011.5489999999,5597.90999999992,15994.6229999999,16011.5489999999,1,5597.90999999992,10413.639,0,NA,"Rating Scale","Rating Scale",2,"object-53","BIQ",NA,"MDPRF96180"
"12",1698681218190,"30/10/2023 15:53:38",1698681218190,0,"30/10/2023 15:53:38",149691,4,"questionnaire-uu2n",NA,32578421,9641065,NA,"complete",NA,"653fce302916cc1b2847a58a","computer","Desktop or Laptop","Windows 10","Chrome 118.0.0.0","1920x1080","1920x955",NA,NA,0,"BIQ (Charlotte)",2,"In","FGEHDICJBKAL",NA,"In","Spreadsheet1","Spreadsheet1",1,"BIQ","Screen 3","iz3the",3,"response","0",8630.37,15994.6229999999,16011.5489999999,8630.37,15994.6229999999,16011.5489999999,1,8630.37,7381.17899999989,0,NA,"Rating Scale","Rating Scale",9,"object-60","BIQ",NA,"MDPRF96180"
"13",1698681218191,"30/10/2023 15:53:38",1698681218191,0,"30/10/2023 15:53:38",149691,4,"questionnaire-uu2n",NA,32578421,9641065,NA,"complete",NA,"653fce302916cc1b2847a58a","computer","Desktop or Laptop","Windows 10","Chrome 118.0.0.0","1920x1080","1920x955",NA,NA,0,"BIQ (Charlotte)",2,"In","FGEHDICJBKAL",NA,"In","Spreadsheet1","Spreadsheet1",1,"BIQ","Screen 3","iz3the",3,"response","2",12462.179,15994.6229999999,16011.5489999999,12462.179,15994.6229999999,16011.5489999999,1,12462.179,3549.36999999988,0,NA,"Rating Scale","Rating Scale",16,"object-67","BIQ",NA,"MDPRF96180"
"14",1698681218195,"30/10/2023 15:53:38",1698681218195,0,"30/10/2023 15:53:38",149691,4,"questionnaire-uu2n",NA,32578421,9641065,NA,"complete",NA,"653fce302916cc1b2847a58a","computer","Desktop or Laptop","Windows 10","Chrome 118.0.0.0","1920x1080","1920x955",NA,NA,0,"BIQ (Charlotte)",2,"In","FGEHDICJBKAL",NA,"In","Spreadsheet1","Spreadsheet1",NA,"","","",NA,"5","END",NA,NA,NA,NA,NA,NA,0,NA,NA,NA,NA,"","",NA,"","",NA,"MDPRF96180"
"1",1698680637002,"30/10/2023 15:43:57",1698680637002,0,"30/10/2023 15:43:57",149691,4,"questionnaire-uu2n",NA,32578435,9641086,NA,"rejected - time limit reached",NA,"653fcec88c7b4c248d47a53c","computer","Desktop or Laptop","Windows 10","Chrome 118.0.0.0","1366x768","1366x657",NA,NA,0,"BIQ (Charlotte)",2,"In","EFDGCHBIAJLK",NA,"In","Spreadsheet1","Spreadsheet1",NA,"","","",NA,"5","BEGIN",NA,NA,NA,NA,NA,NA,0,NA,NA,NA,NA,"","",NA,"","",NA,"MDPRF73370"
"2",1698680671445,"30/10/2023 15:44:31",1698680671445,0,"30/10/2023 15:44:31",149691,4,"questionnaire-uu2n",NA,32578435,9641086,NA,"rejected - time limit reached",NA,"653fcec88c7b4c248d47a53c","computer","Desktop or Laptop","Windows 10","Chrome 118.0.0.0","1366x768","1366x657",NA,NA,0,"BIQ (Charlotte)",2,"In","EFDGCHBIAJLK",NA,"In","Spreadsheet1","Spreadsheet1",1,"BIQ","Screen 1","9dh6eq",1,"continue","",34449.607,34432.902,34449.607,34449.607,34432.902,34449.607,1,34449.607,0,0,NA,"Click To Continue","Continue Button",23,"object-48","BIQ",NA,"MDPRF73370"
"3",1698680671454,"30/10/2023 15:44:31",1698680671454,0,"30/10/2023 15:44:31",149691,4,"questionnaire-uu2n",NA,32578435,9641086,NA,"rejected - time limit reached",NA,"653fcec88c7b4c248d47a53c","computer","Desktop or Laptop","Windows 10","Chrome 118.0.0.0","1366x768","1366x657",NA,NA,0,"BIQ (Charlotte)",2,"In","EFDGCHBIAJLK",NA,"In","Spreadsheet1","Spreadsheet1",1,"BIQ","Screen 1","9dh6eq",1,"response","7",27073.481,34432.902,34449.607,27073.481,34432.902,34449.607,1,27073.481,7376.126,0,NA,"Rating Scale","Rating Scale",3,"object-5","BIQ",NA,"MDPRF73370"
"4",1698680671457,"30/10/2023 15:44:31",1698680671457,0,"30/10/2023 15:44:31",149691,4,"questionnaire-uu2n",NA,32578435,9641086,NA,"rejected - time limit reached",NA,"653fcec88c7b4c248d47a53c","computer","Desktop or Laptop","Windows 10","Chrome 118.0.0.0","1366x768","1366x657",NA,NA,0,"BIQ (Charlotte)",2,"In","EFDGCHBIAJLK",NA,"In","Spreadsheet1","Spreadsheet1",1,"BIQ","Screen 1","9dh6eq",1,"response","6",31419.105,34432.902,34449.607,31419.105,34432.902,34449.607,1,31419.105,3030.502,0,NA,"Rating Scale","Rating Scale",10,"object-18","BIQ",NA,"MDPRF73370"
"5",1698680671458,"30/10/2023 15:44:31",1698680671458,0,"30/10/2023 15:44:31",149691,4,"questionnaire-uu2n",NA,32578435,9641086,NA,"rejected - time limit reached",NA,"653fcec88c7b4c248d47a53c","computer","Desktop or Laptop","Windows 10","Chrome 118.0.0.0","1366x768","1366x657",NA,NA,0,"BIQ (Charlotte)",2,"In","EFDGCHBIAJLK",NA,"In","Spreadsheet1","Spreadsheet1",1,"BIQ","Screen 1","9dh6eq",1,"response","1",33567.112,34432.902,34449.607,33567.112,34432.902,34449.607,1,33567.112,882.495000000003,0,NA,"Rating Scale","Rating Scale",17,"object-80","BIQ",NA,"MDPRF73370"
"6",1698680693503,"30/10/2023 15:44:53",1698680693503,0,"30/10/2023 15:44:53",149691,4,"questionnaire-uu2n",NA,32578435,9641086,NA,"rejected - time limit reached",NA,"653fcec88c7b4c248d47a53c","computer","Desktop or Laptop","Windows 10","Chrome 118.0.0.0","1366x768","1366x657",NA,NA,0,"BIQ (Charlotte)",2,"In","EFDGCHBIAJLK",NA,"In","Spreadsheet1","Spreadsheet1",1,"BIQ","Screen 2","o21mwi",2,"continue","",22099.7900000022,22094.771,22099.7900000022,22099.7900000022,22094.771,22099.7900000022,1,22099.7900000022,0,0,NA,"Click To Continue","Continue Button",22,"object-50","BIQ",NA,"MDPRF73370"
"7",1698680693513,"30/10/2023 15:44:53",1698680693513,0,"30/10/2023 15:44:53",149691,4,"questionnaire-uu2n",NA,32578435,9641086,NA,"rejected - time limit reached",NA,"653fcec88c7b4c248d47a53c","computer","Desktop or Laptop","Windows 10","Chrome 118.0.0.0","1366x768","1366x657",NA,NA,0,"BIQ (Charlotte)",2,"In","EFDGCHBIAJLK",NA,"In","Spreadsheet1","Spreadsheet1",1,"BIQ","Screen 2","o21mwi",2,"response","8",5860.755,22094.771,22108.89,5860.755,22094.771,22108.89,1,5860.755,16248.135,0,NA,"Rating Scale","Rating Scale",2,"object-259","BIQ",NA,"MDPRF73370"
"8",1698680693516,"30/10/2023 15:44:53",1698680693516,0,"30/10/2023 15:44:53",149691,4,"questionnaire-uu2n",NA,32578435,9641086,NA,"rejected - time limit reached",NA,"653fcec88c7b4c248d47a53c","computer","Desktop or Laptop","Windows 10","Chrome 118.0.0.0","1366x768","1366x657",NA,NA,0,"BIQ (Charlotte)",2,"In","EFDGCHBIAJLK",NA,"In","Spreadsheet1","Spreadsheet1",1,"BIQ","Screen 2","o21mwi",2,"response","1",9990.339,22094.771,22111.085,9990.339,22094.771,22111.085,1,9990.339,12120.746,0,NA,"Rating Scale","Rating Scale",9,"object-36","BIQ",NA,"MDPRF73370"
"9",1698680693519,"30/10/2023 15:44:53",1698680693519,0,"30/10/2023 15:44:53",149691,4,"questionnaire-uu2n",NA,32578435,9641086,NA,"rejected - time limit reached",NA,"653fcec88c7b4c248d47a53c","computer","Desktop or Laptop","Windows 10","Chrome 118.0.0.0","1366x768","1366x657",NA,NA,0,"BIQ (Charlotte)",2,"In","EFDGCHBIAJLK",NA,"In","Spreadsheet1","Spreadsheet1",1,"BIQ","Screen 2","o21mwi",2,"response","0",16350.65,22094.771,22111.085,16350.65,22094.771,22111.085,1,16350.65,5760.435,0,NA,"Rating Scale","Rating Scale",16,"object-86","BIQ",NA,"MDPRF73370"
"10",1698680710528,"30/10/2023 15:45:10",1698680710528,0,"30/10/2023 15:45:10",149691,4,"questionnaire-uu2n",NA,32578435,9641086,NA,"rejected - time limit reached",NA,"653fcec88c7b4c248d47a53c","computer","Desktop or Laptop","Windows 10","Chrome 118.0.0.0","1366x768","1366x657",NA,NA,0,"BIQ (Charlotte)",2,"In","EFDGCHBIAJLK",NA,"In","Spreadsheet1","Spreadsheet1",1,"BIQ","Screen 3","iz3the",3,"continue","",17029.8189999993,17016.744,17029.8189999993,17029.8189999993,17016.744,17029.8189999993,1,17029.8189999993,0,0,NA,"Click To Continue","Continue Button",22,"object-73","BIQ",NA,"MDPRF73370"
"11",1698680710536,"30/10/2023 15:45:10",1698680710536,0,"30/10/2023 15:45:10",149691,4,"questionnaire-uu2n",NA,32578435,9641086,NA,"rejected - time limit reached",NA,"653fcec88c7b4c248d47a53c","computer","Desktop or Laptop","Windows 10","Chrome 118.0.0.0","1366x768","1366x657",NA,NA,0,"BIQ (Charlotte)",2,"In","EFDGCHBIAJLK",NA,"In","Spreadsheet1","Spreadsheet1",1,"BIQ","Screen 3","iz3the",3,"response","0",10489.748,17016.744,17033.454,10489.748,17016.744,17033.454,1,10489.748,6543.706,0,NA,"Rating Scale","Rating Scale",2,"object-53","BIQ",NA,"MDPRF73370"
"12",1698680710538,"30/10/2023 15:45:10",1698680710538,0,"30/10/2023 15:45:10",149691,4,"questionnaire-uu2n",NA,32578435,9641086,NA,"rejected - time limit reached",NA,"653fcec88c7b4c248d47a53c","computer","Desktop or Laptop","Windows 10","Chrome 118.0.0.0","1366x768","1366x657",NA,NA,0,"BIQ (Charlotte)",2,"In","EFDGCHBIAJLK",NA,"In","Spreadsheet1","Spreadsheet1",1,"BIQ","Screen 3","iz3the",3,"response","0",12354.964,17016.744,17033.454,12354.964,17016.744,17033.454,1,12354.964,4678.49,0,NA,"Rating Scale","Rating Scale",9,"object-60","BIQ",NA,"MDPRF73370"
"13",1698680710540,"30/10/2023 15:45:10",1698680710540,0,"30/10/2023 15:45:10",149691,4,"questionnaire-uu2n",NA,32578435,9641086,NA,"rejected - time limit reached",NA,"653fcec88c7b4c248d47a53c","computer","Desktop or Laptop","Windows 10","Chrome 118.0.0.0","1366x768","1366x657",NA,NA,0,"BIQ (Charlotte)",2,"In","EFDGCHBIAJLK",NA,"In","Spreadsheet1","Spreadsheet1",1,"BIQ","Screen 3","iz3the",3,"response","2",14852.373,17016.744,17033.454,14852.373,17016.744,17033.454,1,14852.373,2181.08100000001,0,NA,"Rating Scale","Rating Scale",16,"object-67","BIQ",NA,"MDPRF73370"
"14",1698680710558,"30/10/2023 15:45:10",1698680710558,0,"30/10/2023 15:45:10",149691,4,"questionnaire-uu2n",NA,32578435,9641086,NA,"rejected - time limit reached",NA,"653fcec88c7b4c248d47a53c","computer","Desktop or Laptop","Windows 10","Chrome 118.0.0.0","1366x768","1366x657",NA,NA,0,"BIQ (Charlotte)",2,"In","EFDGCHBIAJLK",NA,"In","Spreadsheet1","Spreadsheet1",NA,"","","",NA,"5","END",NA,NA,NA,NA,NA,NA,0,NA,NA,NA,NA,"","",NA,"","",NA,"MDPRF73370"
"1",1698680735096,"30/10/2023 15:45:35",1698680735096,0,"30/10/2023 15:45:35",149691,4,"questionnaire-uu2n",NA,32578466,9641074,NA,"rejected - time limit reached",NA,"653fce60cd09a4013ad16c4c","computer","Desktop or Laptop","Windows 10","Chrome 118.0.0.0","1280x720","1280x571",NA,NA,0,"BIQ (Charlotte)",2,"In","DECFBGAHLIKJ",NA,"In","Spreadsheet1","Spreadsheet1",NA,"","","",NA,"5","BEGIN",NA,NA,NA,NA,NA,NA,0,NA,NA,NA,NA,"","",NA,"","",NA,"MDPRF03895"
"2",1698680776406,"30/10/2023 15:46:16",1698680776406,0,"30/10/2023 15:46:16",149691,4,"questionnaire-uu2n",NA,32578466,9641074,NA,"rejected - time limit reached",NA,"653fce60cd09a4013ad16c4c","computer","Desktop or Laptop","Windows 10","Chrome 118.0.0.0","1280x720","1280x571",NA,NA,0,"BIQ (Charlotte)",2,"In","DECFBGAHLIKJ",NA,"In","Spreadsheet1","Spreadsheet1",1,"BIQ","Screen 1","9dh6eq",1,"continue","",41299.091,41282.79,41299.091,41299.091,41282.79,41299.091,1,41299.091,0,0,NA,"Click To Continue","Continue Button",23,"object-48","BIQ",NA,"MDPRF03895"
"3",1698680776416,"30/10/2023 15:46:16",1698680776416,0,"30/10/2023 15:46:16",149691,4,"questionnaire-uu2n",NA,32578466,9641074,NA,"rejected - time limit reached",NA,"653fce60cd09a4013ad16c4c","computer","Desktop or Laptop","Windows 10","Chrome 118.0.0.0","1280x720","1280x571",NA,NA,0,"BIQ (Charlotte)",2,"In","DECFBGAHLIKJ",NA,"In","Spreadsheet1","Spreadsheet1",1,"BIQ","Screen 1","9dh6eq",1,"response","4",11957.224,41282.79,41299.091,11957.224,41282.79,41299.091,1,11957.224,29341.867,0,NA,"Rating Scale","Rating Scale",3,"object-5","BIQ",NA,"MDPRF03895"
"4",1698680776418,"30/10/2023 15:46:16",1698680776418,0,"30/10/2023 15:46:16",149691,4,"questionnaire-uu2n",NA,32578466,9641074,NA,"rejected - time limit reached",NA,"653fce60cd09a4013ad16c4c","computer","Desktop or Laptop","Windows 10","Chrome 118.0.0.0","1280x720","1280x571",NA,NA,0,"BIQ (Charlotte)",2,"In","DECFBGAHLIKJ",NA,"In","Spreadsheet1","Spreadsheet1",1,"BIQ","Screen 1","9dh6eq",1,"response","6",33822.206,41282.79,41299.091,33822.206,41282.79,41299.091,1,33822.206,7476.885,0,NA,"Rating Scale","Rating Scale",10,"object-18","BIQ",NA,"MDPRF03895"
"5",1698680776419,"30/10/2023 15:46:16",1698680776419,0,"30/10/2023 15:46:16",149691,4,"questionnaire-uu2n",NA,32578466,9641074,NA,"rejected - time limit reached",NA,"653fce60cd09a4013ad16c4c","computer","Desktop or Laptop","Windows 10","Chrome 118.0.0.0","1280x720","1280x571",NA,NA,0,"BIQ (Charlotte)",2,"In","DECFBGAHLIKJ",NA,"In","Spreadsheet1","Spreadsheet1",1,"BIQ","Screen 1","9dh6eq",1,"response","6",40517.089,41282.79,41299.091,40517.089,41282.79,41299.091,1,40517.089,782.002,0,NA,"Rating Scale","Rating Scale",17,"object-80","BIQ",NA,"MDPRF03895"
"6",1698680793353,"30/10/2023 15:46:33",1698680793353,0,"30/10/2023 15:46:33",149691,4,"questionnaire-uu2n",NA,32578466,9641074,NA,"rejected - time limit reached",NA,"653fce60cd09a4013ad16c4c","computer","Desktop or Laptop","Windows 10","Chrome 118.0.0.0","1280x720","1280x571",NA,NA,0,"BIQ (Charlotte)",2,"In","DECFBGAHLIKJ",NA,"In","Spreadsheet1","Spreadsheet1",1,"BIQ","Screen 2","o21mwi",2,"continue","",16993.5160000477,16986.321,16993.5160000477,16993.5160000477,16986.321,16993.5160000477,1,16993.5160000477,0,0,NA,"Click To Continue","Continue Button",22,"object-50","BIQ",NA,"MDPRF03895"
"7",1698680793358,"30/10/2023 15:46:33",1698680793358,0,"30/10/2023 15:46:33",149691,4,"questionnaire-uu2n",NA,32578466,9641074,NA,"rejected - time limit reached",NA,"653fce60cd09a4013ad16c4c","computer","Desktop or Laptop","Windows 10","Chrome 118.0.0.0","1280x720","1280x571",NA,NA,0,"BIQ (Charlotte)",2,"In","DECFBGAHLIKJ",NA,"In","Spreadsheet1","Spreadsheet1",1,"BIQ","Screen 2","o21mwi",2,"response","8",5395.874,16986.321,16999.1159999523,5395.874,16986.321,16999.1159999523,1,5395.874,11603.2419999523,0,NA,"Rating Scale","Rating Scale",2,"object-259","BIQ",NA,"MDPRF03895"
"8",1698680793360,"30/10/2023 15:46:33",1698680793360,0,"30/10/2023 15:46:33",149691,4,"questionnaire-uu2n",NA,32578466,9641074,NA,"rejected - time limit reached",NA,"653fce60cd09a4013ad16c4c","computer","Desktop or Laptop","Windows 10","Chrome 118.0.0.0","1280x720","1280x571",NA,NA,0,"BIQ (Charlotte)",2,"In","DECFBGAHLIKJ",NA,"In","Spreadsheet1","Spreadsheet1",1,"BIQ","Screen 2","o21mwi",2,"response","4",8409.716,16986.321,17000.6159999523,8409.716,16986.321,17000.6159999523,1,8409.716,8590.89999995231,0,NA,"Rating Scale","Rating Scale",9,"object-36","BIQ",NA,"MDPRF03895"
"9",1698680793362,"30/10/2023 15:46:33",1698680793362,0,"30/10/2023 15:46:33",149691,4,"questionnaire-uu2n",NA,32578466,9641074,NA,"rejected - time limit reached",NA,"653fce60cd09a4013ad16c4c","computer","Desktop or Laptop","Windows 10","Chrome 118.0.0.0","1280x720","1280x571",NA,NA,0,"BIQ (Charlotte)",2,"In","DECFBGAHLIKJ",NA,"In","Spreadsheet1","Spreadsheet1",1,"BIQ","Screen 2","o21mwi",2,"response","0",16253.496,16986.321,17002.5160000477,16253.496,16986.321,17002.5160000477,1,16253.496,749.020000047683,0,NA,"Rating Scale","Rating Scale",16,"object-86","BIQ",NA,"MDPRF03895"
"10",1698680818034,"30/10/2023 15:46:58",1698680818034,0,"30/10/2023 15:46:58",149691,4,"questionnaire-uu2n",NA,32578466,9641074,NA,"rejected - time limit reached",NA,"653fce60cd09a4013ad16c4c","computer","Desktop or Laptop","Windows 10","Chrome 118.0.0.0","1280x720","1280x571",NA,NA,0,"BIQ (Charlotte)",2,"In","DECFBGAHLIKJ",NA,"In","Spreadsheet1","Spreadsheet1",1,"BIQ","Screen 3","iz3the",3,"continue","",24687.7949999523,24679.441,24687.7949999523,24687.7949999523,24679.441,24687.7949999523,1,24687.7949999523,0,0,NA,"Click To Continue","Continue Button",22,"object-73","BIQ",NA,"MDPRF03895"
"11",1698680818044,"30/10/2023 15:46:58",1698680818044,0,"30/10/2023 15:46:58",149691,4,"questionnaire-uu2n",NA,32578466,9641074,NA,"rejected - time limit reached",NA,"653fce60cd09a4013ad16c4c","computer","Desktop or Laptop","Windows 10","Chrome 118.0.0.0","1280x720","1280x571",NA,NA,0,"BIQ (Charlotte)",2,"In","DECFBGAHLIKJ",NA,"In","Spreadsheet1","Spreadsheet1",1,"BIQ","Screen 3","iz3the",3,"response","2",14720.888,24679.441,24696.212,14720.888,24679.441,24696.212,1,14720.888,9975.32399999999,0,NA,"Rating Scale","Rating Scale",2,"object-53","BIQ",NA,"MDPRF03895"
"12",1698680818046,"30/10/2023 15:46:58",1698680818046,0,"30/10/2023 15:46:58",149691,4,"questionnaire-uu2n",NA,32578466,9641074,NA,"rejected - time limit reached",NA,"653fce60cd09a4013ad16c4c","computer","Desktop or Laptop","Windows 10","Chrome 118.0.0.0","1280x720","1280x571",NA,NA,0,"BIQ (Charlotte)",2,"In","DECFBGAHLIKJ",NA,"In","Spreadsheet1","Spreadsheet1",1,"BIQ","Screen 3","iz3the",3,"response","2",17685.231,24679.441,24696.212,17685.231,24679.441,24696.212,1,17685.231,7010.98099999999,0,NA,"Rating Scale","Rating Scale",9,"object-60","BIQ",NA,"MDPRF03895"
"13",1698680818048,"30/10/2023 15:46:58",1698680818048,0,"30/10/2023 15:46:58",149691,4,"questionnaire-uu2n",NA,32578466,9641074,NA,"rejected - time limit reached",NA,"653fce60cd09a4013ad16c4c","computer","Desktop or Laptop","Windows 10","Chrome 118.0.0.0","1280x720","1280x571",NA,NA,0,"BIQ (Charlotte)",2,"In","DECFBGAHLIKJ",NA,"In","Spreadsheet1","Spreadsheet1",1,"BIQ","Screen 3","iz3the",3,"response","2",21432.567,24679.441,24696.212,21432.567,24679.441,24696.212,1,21432.567,3263.64499999999,0,NA,"Rating Scale","Rating Scale",16,"object-67","BIQ",NA,"MDPRF03895"
"14",1698680818063,"30/10/2023 15:46:58",1698680818063,0,"30/10/2023 15:46:58",149691,4,"questionnaire-uu2n",NA,32578466,9641074,NA,"rejected - time limit reached",NA,"653fce60cd09a4013ad16c4c","computer","Desktop or Laptop","Windows 10","Chrome 118.0.0.0","1280x720","1280x571",NA,NA,0,"BIQ (Charlotte)",2,"In","DECFBGAHLIKJ",NA,"In","Spreadsheet1","Spreadsheet1",NA,"","","",NA,"5","END",NA,NA,NA,NA,NA,NA,0,NA,NA,NA,NA,"","",NA,"","",NA,"MDPRF03895"
"1",1698680903499,"30/10/2023 15:48:23",1698680903499,0,"30/10/2023 15:48:23",149691,4,"questionnaire-uu2n",NA,32578534,9641110,NA,"rejected - time limit reached",NA,"653fcfb830b9503ea6848ed6","computer","Desktop or Laptop","Mac OS 10.15.7","Chrome 118.0.0.0","1440x900","1440x783",NA,NA,0,"BIQ (Charlotte)",2,"In","GHFIEJDKCLBA",NA,"In","Spreadsheet1","Spreadsheet1",NA,"","","",NA,"5","BEGIN",NA,NA,NA,NA,NA,NA,0,NA,NA,NA,NA,"","",NA,"","",NA,"MDPRF30844"
"2",1698680938744,"30/10/2023 15:48:58",1698680938744,0,"30/10/2023 15:48:58",149691,4,"questionnaire-uu2n",NA,32578534,9641110,NA,"rejected - time limit reached",NA,"653fcfb830b9503ea6848ed6","computer","Desktop or Laptop","Mac OS 10.15.7","Chrome 118.0.0.0","1440x900","1440x783",NA,NA,0,"BIQ (Charlotte)",2,"In","GHFIEJDKCLBA",NA,"In","Spreadsheet1","Spreadsheet1",1,"BIQ","Screen 1","9dh6eq",1,"continue","",35265.097999994,35250.357,35265.097999994,35265.097999994,35250.357,35265.097999994,1,35265.097999994,0,0,NA,"Click To Continue","Continue Button",23,"object-48","BIQ",NA,"MDPRF30844"
"3",1698680938746,"30/10/2023 15:48:58",1698680938746,0,"30/10/2023 15:48:58",149691,4,"questionnaire-uu2n",NA,32578534,9641110,NA,"rejected - time limit reached",NA,"653fcfb830b9503ea6848ed6","computer","Desktop or Laptop","Mac OS 10.15.7","Chrome 118.0.0.0","1440x900","1440x783",NA,NA,0,"BIQ (Charlotte)",2,"In","GHFIEJDKCLBA",NA,"In","Spreadsheet1","Spreadsheet1",1,"BIQ","Screen 1","9dh6eq",1,"response","5",17950.516,35250.357,35267.023,17950.516,35250.357,35267.023,1,17950.516,17316.507,0,NA,"Rating Scale","Rating Scale",3,"object-5","BIQ",NA,"MDPRF30844"
"4",1698680938747,"30/10/2023 15:48:58",1698680938747,0,"30/10/2023 15:48:58",149691,4,"questionnaire-uu2n",NA,32578534,9641110,NA,"rejected - time limit reached",NA,"653fcfb830b9503ea6848ed6","computer","Desktop or Laptop","Mac OS 10.15.7","Chrome 118.0.0.0","1440x900","1440x783",NA,NA,0,"BIQ (Charlotte)",2,"In","GHFIEJDKCLBA",NA,"In","Spreadsheet1","Spreadsheet1",1,"BIQ","Screen 1","9dh6eq",1,"response","3",26500.707,35250.357,35267.023,26500.707,35250.357,35267.023,1,26500.707,8766.316,0,NA,"Rating Scale","Rating Scale",10,"object-18","BIQ",NA,"MDPRF30844"
"5",1698680938747,"30/10/2023 15:48:58",1698680938747,0,"30/10/2023 15:48:58",149691,4,"questionnaire-uu2n",NA,32578534,9641110,NA,"rejected - time limit reached",NA,"653fcfb830b9503ea6848ed6","computer","Desktop or Laptop","Mac OS 10.15.7","Chrome 118.0.0.0","1440x900","1440x783",NA,NA,0,"BIQ (Charlotte)",2,"In","GHFIEJDKCLBA",NA,"In","Spreadsheet1","Spreadsheet1",1,"BIQ","Screen 1","9dh6eq",1,"response","3",34767.043,35250.357,35267.023,34767.043,35250.357,35267.023,1,34767.043,499.979999999996,0,NA,"Rating Scale","Rating Scale",17,"object-80","BIQ",NA,"MDPRF30844"
"6",1698680988982,"30/10/2023 15:49:48",1698680988982,0,"30/10/2023 15:49:48",149691,4,"questionnaire-uu2n",NA,32578534,9641110,NA,"rejected - time limit reached",NA,"653fcfb830b9503ea6848ed6","computer","Desktop or Laptop","Mac OS 10.15.7","Chrome 118.0.0.0","1440x900","1440x783",NA,NA,0,"BIQ (Charlotte)",2,"In","GHFIEJDKCLBA",NA,"In","Spreadsheet1","Spreadsheet1",1,"BIQ","Screen 2","o21mwi",2,"continue","",50260.041000006,50250.823,50260.041000006,50260.041000006,50250.823,50260.041000006,1,50260.041000006,0,0,NA,"Click To Continue","Continue Button",22,"object-50","BIQ",NA,"MDPRF30844"
"7",1698680988986,"30/10/2023 15:49:48",1698680988986,0,"30/10/2023 15:49:48",149691,4,"questionnaire-uu2n",NA,32578534,9641110,NA,"rejected - time limit reached",NA,"653fcfb830b9503ea6848ed6","computer","Desktop or Laptop","Mac OS 10.15.7","Chrome 118.0.0.0","1440x900","1440x783",NA,NA,0,"BIQ (Charlotte)",2,"In","GHFIEJDKCLBA",NA,"In","Spreadsheet1","Spreadsheet1",1,"BIQ","Screen 2","o21mwi",2,"response","3",20499.989,50250.823,50264.4410000119,20499.989,50250.823,50264.4410000119,1,20499.989,29764.4520000119,0,NA,"Rating Scale","Rating Scale",2,"object-259","BIQ",NA,"MDPRF30844"
"8",1698680988987,"30/10/2023 15:49:48",1698680988987,0,"30/10/2023 15:49:48",149691,4,"questionnaire-uu2n",NA,32578534,9641110,NA,"rejected - time limit reached",NA,"653fcfb830b9503ea6848ed6","computer","Desktop or Laptop","Mac OS 10.15.7","Chrome 118.0.0.0","1440x900","1440x783",NA,NA,0,"BIQ (Charlotte)",2,"In","GHFIEJDKCLBA",NA,"In","Spreadsheet1","Spreadsheet1",1,"BIQ","Screen 2","o21mwi",2,"response","5",33834.255,50250.823,50265.141,33834.255,50250.823,50265.141,1,33834.255,16430.886,0,NA,"Rating Scale","Rating Scale",9,"object-36","BIQ",NA,"MDPRF30844"
"9",1698680988987,"30/10/2023 15:49:48",1698680988987,0,"30/10/2023 15:49:48",149691,4,"questionnaire-uu2n",NA,32578534,9641110,NA,"rejected - time limit reached",NA,"653fcfb830b9503ea6848ed6","computer","Desktop or Laptop","Mac OS 10.15.7","Chrome 118.0.0.0","1440x900","1440x783",NA,NA,0,"BIQ (Charlotte)",2,"In","GHFIEJDKCLBA",NA,"In","Spreadsheet1","Spreadsheet1",1,"BIQ","Screen 2","o21mwi",2,"response","1",48167.573,50250.823,50265.641,48167.573,50250.823,50265.641,1,48167.573,2098.068,0,NA,"Rating Scale","Rating Scale",16,"object-86","BIQ",NA,"MDPRF30844"
"10",1698681029365,"30/10/2023 15:50:29",1698681029365,0,"30/10/2023 15:50:29",149691,4,"questionnaire-uu2n",NA,32578534,9641110,NA,"rejected - time limit reached",NA,"653fcfb830b9503ea6848ed6","computer","Desktop or Laptop","Mac OS 10.15.7","Chrome 118.0.0.0","1440x900","1440x783",NA,NA,0,"BIQ (Charlotte)",2,"In","GHFIEJDKCLBA",NA,"In","Spreadsheet1","Spreadsheet1",1,"BIQ","Screen 3","iz3the",3,"continue","",40393.417999994,40383.655,40393.417999994,40393.417999994,40383.655,40393.417999994,1,40393.417999994,0,0,NA,"Click To Continue","Continue Button",22,"object-73","BIQ",NA,"MDPRF30844"
"11",1698681029369,"30/10/2023 15:50:29",1698681029369,0,"30/10/2023 15:50:29",149691,4,"questionnaire-uu2n",NA,32578534,9641110,NA,"rejected - time limit reached",NA,"653fcfb830b9503ea6848ed6","computer","Desktop or Laptop","Mac OS 10.15.7","Chrome 118.0.0.0","1440x900","1440x783",NA,NA,0,"BIQ (Charlotte)",2,"In","GHFIEJDKCLBA",NA,"In","Spreadsheet1","Spreadsheet1",1,"BIQ","Screen 3","iz3the",3,"response","2",11551.197,40383.655,40397.718000006,11551.197,40383.655,40397.718000006,1,11551.197,28846.521000006,0,NA,"Rating Scale","Rating Scale",2,"object-53","BIQ",NA,"MDPRF30844"
"12",1698681029370,"30/10/2023 15:50:29",1698681029370,0,"30/10/2023 15:50:29",149691,4,"questionnaire-uu2n",NA,32578534,9641110,NA,"rejected - time limit reached",NA,"653fcfb830b9503ea6848ed6","computer","Desktop or Laptop","Mac OS 10.15.7","Chrome 118.0.0.0","1440x900","1440x783",NA,NA,0,"BIQ (Charlotte)",2,"In","GHFIEJDKCLBA",NA,"In","Spreadsheet1","Spreadsheet1",1,"BIQ","Screen 3","iz3the",3,"response","5",32400.641,40383.655,40398.218000006,32400.641,40383.655,40398.218000006,1,32400.641,7997.57700000596,0,NA,"Rating Scale","Rating Scale",9,"object-60","BIQ",NA,"MDPRF30844"
"13",1698681029371,"30/10/2023 15:50:29",1698681029371,0,"30/10/2023 15:50:29",149691,4,"questionnaire-uu2n",NA,32578534,9641110,NA,"rejected - time limit reached",NA,"653fcfb830b9503ea6848ed6","computer","Desktop or Laptop","Mac OS 10.15.7","Chrome 118.0.0.0","1440x900","1440x783",NA,NA,0,"BIQ (Charlotte)",2,"In","GHFIEJDKCLBA",NA,"In","Spreadsheet1","Spreadsheet1",1,"BIQ","Screen 3","iz3the",3,"response","5",39700.349,40383.655,40399.1180000119,39700.349,40383.655,40399.1180000119,1,39700.349,698.769000011918,0,NA,"Rating Scale","Rating Scale",16,"object-67","BIQ",NA,"MDPRF30844"
"14",1698681029378,"30/10/2023 15:50:29",1698681029378,0,"30/10/2023 15:50:29",149691,4,"questionnaire-uu2n",NA,32578534,9641110,NA,"rejected - time limit reached",NA,"653fcfb830b9503ea6848ed6","computer","Desktop or Laptop","Mac OS 10.15.7","Chrome 118.0.0.0","1440x900","1440x783",NA,NA,0,"BIQ (Charlotte)",2,"In","GHFIEJDKCLBA",NA,"In","Spreadsheet1","Spreadsheet1",NA,"","","",NA,"5","END",NA,NA,NA,NA,NA,NA,0,NA,NA,NA,NA,"","",NA,"","",NA,"MDPRF30844"
"1",1698680977794,"30/10/2023 15:49:37",1698680977794,0,"30/10/2023 15:49:37",149691,4,"questionnaire-uu2n",NA,32578572,9641060,NA,"rejected - time limit reached",NA,"653fcd6668bdb96e5e71ff7e","computer","Desktop or Laptop","Windows 10","Chrome 118.0.0.0","1920x1080","1920x955",NA,NA,0,"BIQ (Charlotte)",2,"In","BCADLEKFJGIH",NA,"In","Spreadsheet1","Spreadsheet1",NA,"","","",NA,"5","BEGIN",NA,NA,NA,NA,NA,NA,0,NA,NA,NA,NA,"","",NA,"","",NA,"MDPRF78887"
"2",1698681048879,"30/10/2023 15:50:48",1698681048879,0,"30/10/2023 15:50:48",149691,4,"questionnaire-uu2n",NA,32578572,9641060,NA,"rejected - time limit reached",NA,"653fcd6668bdb96e5e71ff7e","computer","Desktop or Laptop","Windows 10","Chrome 118.0.0.0","1920x1080","1920x955",NA,NA,0,"BIQ (Charlotte)",2,"In","BCADLEKFJGIH",NA,"In","Spreadsheet1","Spreadsheet1",1,"BIQ","Screen 1","9dh6eq",1,"continue","",71088.1060000477,71082.401,71088.1060000477,71088.1060000477,71082.401,71088.1060000477,1,71088.1060000477,0,0,NA,"Click To Continue","Continue Button",23,"object-48","BIQ",NA,"MDPRF78887"
"3",1698681048881,"30/10/2023 15:50:48",1698681048881,0,"30/10/2023 15:50:48",149691,4,"questionnaire-uu2n",NA,32578572,9641060,NA,"rejected - time limit reached",NA,"653fcd6668bdb96e5e71ff7e","computer","Desktop or Laptop","Windows 10","Chrome 118.0.0.0","1920x1080","1920x955",NA,NA,0,"BIQ (Charlotte)",2,"In","BCADLEKFJGIH",NA,"In","Spreadsheet1","Spreadsheet1",1,"BIQ","Screen 1","9dh6eq",1,"response","7",20041.431,71082.401,71089.347,20041.431,71082.401,71089.347,1,20041.431,51047.916,0,NA,"Rating Scale","Rating Scale",3,"object-5","BIQ",NA,"MDPRF78887"
"4",1698681048881,"30/10/2023 15:50:48",1698681048881,0,"30/10/2023 15:50:48",149691,4,"questionnaire-uu2n",NA,32578572,9641060,NA,"rejected - time limit reached",NA,"653fcd6668bdb96e5e71ff7e","computer","Desktop or Laptop","Windows 10","Chrome 118.0.0.0","1920x1080","1920x955",NA,NA,0,"BIQ (Charlotte)",2,"In","BCADLEKFJGIH",NA,"In","Spreadsheet1","Spreadsheet1",1,"BIQ","Screen 1","9dh6eq",1,"response","7",36818.98,71082.401,71089.347,36818.98,71082.401,71089.347,1,36818.98,34270.367,0,NA,"Rating Scale","Rating Scale",10,"object-18","BIQ",NA,"MDPRF78887"
"5",1698681048881,"30/10/2023 15:50:48",1698681048881,0,"30/10/2023 15:50:48",149691,4,"questionnaire-uu2n",NA,32578572,9641060,NA,"rejected - time limit reached",NA,"653fcd6668bdb96e5e71ff7e","computer","Desktop or Laptop","Windows 10","Chrome 118.0.0.0","1920x1080","1920x955",NA,NA,0,"BIQ (Charlotte)",2,"In","BCADLEKFJGIH",NA,"In","Spreadsheet1","Spreadsheet1",1,"BIQ","Screen 1","9dh6eq",1,"response","0",43117.507,71082.401,71089.347,43117.507,71082.401,71089.347,1,43117.507,27971.84,0,NA,"Rating Scale","Rating Scale",17,"object-80","BIQ",NA,"MDPRF78887"
"6",1698681077361,"30/10/2023 15:51:17",1698681077361,0,"30/10/2023 15:51:17",149691,4,"questionnaire-uu2n",NA,32578572,9641060,NA,"rejected - time limit reached",NA,"653fcd6668bdb96e5e71ff7e","computer","Desktop or Laptop","Windows 10","Chrome 118.0.0.0","1920x1080","1920x955",NA,NA,0,"BIQ (Charlotte)",2,"In","BCADLEKFJGIH",NA,"In","Spreadsheet1","Spreadsheet1",1,"BIQ","Screen 2","o21mwi",2,"continue","",28490.505,28485.708,28490.505,28490.505,28485.708,28490.505,1,28490.505,0,0,NA,"Click To Continue","Continue Button",22,"object-50","BIQ",NA,"MDPRF78887"
"7",1698681077363,"30/10/2023 15:51:17",1698681077363,0,"30/10/2023 15:51:17",149691,4,"questionnaire-uu2n",NA,32578572,9641060,NA,"rejected - time limit reached",NA,"653fcd6668bdb96e5e71ff7e","computer","Desktop or Laptop","Windows 10","Chrome 118.0.0.0","1920x1080","1920x955",NA,NA,0,"BIQ (Charlotte)",2,"In","BCADLEKFJGIH",NA,"In","Spreadsheet1","Spreadsheet1",1,"BIQ","Screen 2","o21mwi",2,"response","8",8416.55100000001,28485.708,28492.1050000238,8416.55100000001,28485.708,28492.1050000238,1,8416.55100000001,20075.5540000238,0,NA,"Rating Scale","Rating Scale",2,"object-259","BIQ",NA,"MDPRF78887"
"8",1698681077363,"30/10/2023 15:51:17",1698681077363,0,"30/10/2023 15:51:17",149691,4,"questionnaire-uu2n",NA,32578572,9641060,NA,"rejected - time limit reached",NA,"653fcd6668bdb96e5e71ff7e","computer","Desktop or Laptop","Windows 10","Chrome 118.0.0.0","1920x1080","1920x955",NA,NA,0,"BIQ (Charlotte)",2,"In","BCADLEKFJGIH",NA,"In","Spreadsheet1","Spreadsheet1",1,"BIQ","Screen 2","o21mwi",2,"response","1",16048.396,28485.708,28492.3050000715,16048.396,28485.708,28492.3050000715,1,16048.396,12443.9090000715,0,NA,"Rating Scale","Rating Scale",9,"object-36","BIQ",NA,"MDPRF78887"
"9",1698681077363,"30/10/2023 15:51:17",1698681077363,0,"30/10/2023 15:51:17",149691,4,"questionnaire-uu2n",NA,32578572,9641060,NA,"rejected - time limit reached",NA,"653fcd6668bdb96e5e71ff7e","computer","Desktop or Laptop","Windows 10","Chrome 118.0.0.0","1920x1080","1920x955",NA,NA,0,"BIQ (Charlotte)",2,"In","BCADLEKFJGIH",NA,"In","Spreadsheet1","Spreadsheet1",1,"BIQ","Screen 2","o21mwi",2,"response","0",25978.805,28485.708,28492.505,25978.805,28485.708,28492.505,1,25978.805,2513.7,0,NA,"Rating Scale","Rating Scale",16,"object-86","BIQ",NA,"MDPRF78887"
"10",1698681106181,"30/10/2023 15:51:46",1698681106181,0,"30/10/2023 15:51:46",149691,4,"questionnaire-uu2n",NA,32578572,9641060,NA,"rejected - time limit reached",NA,"653fcd6668bdb96e5e71ff7e","computer","Desktop or Laptop","Windows 10","Chrome 118.0.0.0","1920x1080","1920x955",NA,NA,0,"BIQ (Charlotte)",2,"In","BCADLEKFJGIH",NA,"In","Spreadsheet1","Spreadsheet1",1,"BIQ","Screen 3","iz3the",3,"continue","",28824.3970000238,28819.033,28824.3970000238,28824.3970000238,28819.033,28824.3970000238,1,28824.3970000238,0,0,NA,"Click To Continue","Continue Button",22,"object-73","BIQ",NA,"MDPRF78887"
"11",1698681106182,"30/10/2023 15:51:46",1698681106182,0,"30/10/2023 15:51:46",149691,4,"questionnaire-uu2n",NA,32578572,9641060,NA,"rejected - time limit reached",NA,"653fcd6668bdb96e5e71ff7e","computer","Desktop or Laptop","Windows 10","Chrome 118.0.0.0","1920x1080","1920x955",NA,NA,0,"BIQ (Charlotte)",2,"In","BCADLEKFJGIH",NA,"In","Spreadsheet1","Spreadsheet1",1,"BIQ","Screen 3","iz3the",3,"response","0",5576.311,28819.033,28825.797,5576.311,28819.033,28825.797,1,5576.311,23249.486,0,NA,"Rating Scale","Rating Scale",2,"object-53","BIQ",NA,"MDPRF78887"
"12",1698681106182,"30/10/2023 15:51:46",1698681106182,0,"30/10/2023 15:51:46",149691,4,"questionnaire-uu2n",NA,32578572,9641060,NA,"rejected - time limit reached",NA,"653fcd6668bdb96e5e71ff7e","computer","Desktop or Laptop","Windows 10","Chrome 118.0.0.0","1920x1080","1920x955",NA,NA,0,"BIQ (Charlotte)",2,"In","BCADLEKFJGIH",NA,"In","Spreadsheet1","Spreadsheet1",1,"BIQ","Screen 3","iz3the",3,"response","0",8069.32800000001,28819.033,28825.976,8069.32800000001,28819.033,28825.976,1,8069.32800000001,20756.648,0,NA,"Rating Scale","Rating Scale",9,"object-60","BIQ",NA,"MDPRF78887"
"13",1698681106182,"30/10/2023 15:51:46",1698681106182,0,"30/10/2023 15:51:46",149691,4,"questionnaire-uu2n",NA,32578572,9641060,NA,"rejected - time limit reached",NA,"653fcd6668bdb96e5e71ff7e","computer","Desktop or Laptop","Windows 10","Chrome 118.0.0.0","1920x1080","1920x955",NA,NA,0,"BIQ (Charlotte)",2,"In","BCADLEKFJGIH",NA,"In","Spreadsheet1","Spreadsheet1",1,"BIQ","Screen 3","iz3the",3,"response","2",14978.953,28819.033,28825.976,14978.953,28819.033,28825.976,1,14978.953,13847.023,0,NA,"Rating Scale","Rating Scale",16,"object-67","BIQ",NA,"MDPRF78887"
"14",1698681106185,"30/10/2023 15:51:46",1698681106185,0,"30/10/2023 15:51:46",149691,4,"questionnaire-uu2n",NA,32578572,9641060,NA,"rejected - time limit reached",NA,"653fcd6668bdb96e5e71ff7e","computer","Desktop or Laptop","Windows 10","Chrome 118.0.0.0","1920x1080","1920x955",NA,NA,0,"BIQ (Charlotte)",2,"In","BCADLEKFJGIH",NA,"In","Spreadsheet1","Spreadsheet1",NA,"","","",NA,"5","END",NA,NA,NA,NA,NA,NA,0,NA,NA,NA,NA,"","",NA,"","",NA,"MDPRF78887"
"1",1698681044171,"30/10/2023 15:50:44",1698681044171,0,"30/10/2023 15:50:44",149691,4,"questionnaire-uu2n",NA,32578598,9641117,NA,"rejected - time limit reached",NA,"653fcf2b7bd560dad25174f7","computer","Desktop or Laptop","Windows 10","Chrome 118.0.0.0","1920x1080","1920x963",NA,NA,0,"BIQ (Charlotte)",2,"In","HIGJFKELDACB",NA,"In","Spreadsheet1","Spreadsheet1",NA,"","","",NA,"5","BEGIN",NA,NA,NA,NA,NA,NA,0,NA,NA,NA,NA,"","",NA,"","",NA,"MDPRF06491"
"2",1698681065786,"30/10/2023 15:51:05",1698681065786,0,"30/10/2023 15:51:05",149691,4,"questionnaire-uu2n",NA,32578598,9641117,NA,"rejected - time limit reached",NA,"653fcf2b7bd560dad25174f7","computer","Desktop or Laptop","Windows 10","Chrome 118.0.0.0","1920x1080","1920x963",NA,NA,0,"BIQ (Charlotte)",2,"In","HIGJFKELDACB",NA,"In","Spreadsheet1","Spreadsheet1",1,"BIQ","Screen 1","9dh6eq",1,"continue","",21633.479,21616.809,21633.479,21633.479,21616.809,21633.479,1,21633.479,0,0,NA,"Click To Continue","Continue Button",23,"object-48","BIQ",NA,"MDPRF06491"
"3",1698681065790,"30/10/2023 15:51:05",1698681065790,0,"30/10/2023 15:51:05",149691,4,"questionnaire-uu2n",NA,32578598,9641117,NA,"rejected - time limit reached",NA,"653fcf2b7bd560dad25174f7","computer","Desktop or Laptop","Windows 10","Chrome 118.0.0.0","1920x1080","1920x963",NA,NA,0,"BIQ (Charlotte)",2,"In","HIGJFKELDACB",NA,"In","Spreadsheet1","Spreadsheet1",1,"BIQ","Screen 1","9dh6eq",1,"response","4",10650.057,21616.809,21633.479,10650.057,21616.809,21633.479,1,10650.057,10983.422,0,NA,"Rating Scale","Rating Scale",3,"object-5","BIQ",NA,"MDPRF06491"
"4",1698681065791,"30/10/2023 15:51:05",1698681065791,0,"30/10/2023 15:51:05",149691,4,"questionnaire-uu2n",NA,32578598,9641117,NA,"rejected - time limit reached",NA,"653fcf2b7bd560dad25174f7","computer","Desktop or Laptop","Windows 10","Chrome 118.0.0.0","1920x1080","1920x963",NA,NA,0,"BIQ (Charlotte)",2,"In","HIGJFKELDACB",NA,"In","Spreadsheet1","Spreadsheet1",1,"BIQ","Screen 1","9dh6eq",1,"response","6",14116.747,21616.809,21633.479,14116.747,21616.809,21633.479,1,14116.747,7516.732,0,NA,"Rating Scale","Rating Scale",10,"object-18","BIQ",NA,"MDPRF06491"
"5",1698681065791,"30/10/2023 15:51:05",1698681065791,0,"30/10/2023 15:51:05",149691,4,"questionnaire-uu2n",NA,32578598,9641117,NA,"rejected - time limit reached",NA,"653fcf2b7bd560dad25174f7","computer","Desktop or Laptop","Windows 10","Chrome 118.0.0.0","1920x1080","1920x963",NA,NA,0,"BIQ (Charlotte)",2,"In","HIGJFKELDACB",NA,"In","Spreadsheet1","Spreadsheet1",1,"BIQ","Screen 1","9dh6eq",1,"response","4",20283.476,21616.809,21633.479,20283.476,21616.809,21633.479,1,20283.476,1350.003,0,NA,"Rating Scale","Rating Scale",17,"object-80","BIQ",NA,"MDPRF06491"
"6",1698681098441,"30/10/2023 15:51:38",1698681098441,0,"30/10/2023 15:51:38",149691,4,"questionnaire-uu2n",NA,32578598,9641117,NA,"rejected - time limit reached",NA,"653fcf2b7bd560dad25174f7","computer","Desktop or Laptop","Windows 10","Chrome 118.0.0.0","1920x1080","1920x963",NA,NA,0,"BIQ (Charlotte)",2,"In","HIGJFKELDACB",NA,"In","Spreadsheet1","Spreadsheet1",1,"BIQ","Screen 2","o21mwi",2,"continue","",32678.1610000004,32666.958,32678.1610000004,32678.1610000004,32666.958,32678.1610000004,1,32678.1610000004,0,0,NA,"Click To Continue","Continue Button",22,"object-50","BIQ",NA,"MDPRF06491"
"7",1698681098445,"30/10/2023 15:51:38",1698681098445,0,"30/10/2023 15:51:38",149691,4,"questionnaire-uu2n",NA,32578598,9641117,NA,"rejected - time limit reached",NA,"653fcf2b7bd560dad25174f7","computer","Desktop or Laptop","Windows 10","Chrome 118.0.0.0","1920x1080","1920x963",NA,NA,0,"BIQ (Charlotte)",2,"In","HIGJFKELDACB",NA,"In","Spreadsheet1","Spreadsheet1",1,"BIQ","Screen 2","o21mwi",2,"response","8",8316.75,32666.958,32682.5610000007,8316.75,32666.958,32682.5610000007,1,8316.75,24365.8110000007,0,NA,"Rating Scale","Rating Scale",2,"object-259","BIQ",NA,"MDPRF06491"
"8",1698681098446,"30/10/2023 15:51:38",1698681098446,0,"30/10/2023 15:51:38",149691,4,"questionnaire-uu2n",NA,32578598,9641117,NA,"rejected - time limit reached",NA,"653fcf2b7bd560dad25174f7","computer","Desktop or Laptop","Windows 10","Chrome 118.0.0.0","1920x1080","1920x963",NA,NA,0,"BIQ (Charlotte)",2,"In","HIGJFKELDACB",NA,"In","Spreadsheet1","Spreadsheet1",1,"BIQ","Screen 2","o21mwi",2,"response","2",16333.464,32666.958,32683.3610000015,16333.464,32666.958,32683.3610000015,1,16333.464,16349.8970000015,0,NA,"Rating Scale","Rating Scale",9,"object-36","BIQ",NA,"MDPRF06491"
"9",1698681098448,"30/10/2023 15:51:38",1698681098448,0,"30/10/2023 15:51:38",149691,4,"questionnaire-uu2n",NA,32578598,9641117,NA,"rejected - time limit reached",NA,"653fcf2b7bd560dad25174f7","computer","Desktop or Laptop","Windows 10","Chrome 118.0.0.0","1920x1080","1920x963",NA,NA,0,"BIQ (Charlotte)",2,"In","HIGJFKELDACB",NA,"In","Spreadsheet1","Spreadsheet1",1,"BIQ","Screen 2","o21mwi",2,"response","6",32100.277,32666.958,32683.622,32100.277,32666.958,32683.622,1,32100.277,583.344999999994,0,NA,"Rating Scale","Rating Scale",16,"object-86","BIQ",NA,"MDPRF06491"
"10",1698681185305,"30/10/2023 15:53:05",1698681185305,0,"30/10/2023 15:53:05",149691,4,"questionnaire-uu2n",NA,32578598,9641117,NA,"rejected - time limit reached",NA,"653fcf2b7bd560dad25174f7","computer","Desktop or Laptop","Windows 10","Chrome 118.0.0.0","1920x1080","1920x963",NA,NA,0,"BIQ (Charlotte)",2,"In","HIGJFKELDACB",NA,"In","Spreadsheet1","Spreadsheet1",1,"BIQ","Screen 3","iz3the",3,"continue","",86875.0030000011,86867.405,86875.0030000011,86875.0030000011,86867.405,86875.0030000011,1,86875.0030000011,0,0,NA,"Click To Continue","Continue Button",22,"object-73","BIQ",NA,"MDPRF06491"
"11",1698681185309,"30/10/2023 15:53:05",1698681185309,0,"30/10/2023 15:53:05",149691,4,"questionnaire-uu2n",NA,32578598,9641117,NA,"rejected - time limit reached",NA,"653fcf2b7bd560dad25174f7","computer","Desktop or Laptop","Windows 10","Chrome 118.0.0.0","1920x1080","1920x963",NA,NA,0,"BIQ (Charlotte)",2,"In","HIGJFKELDACB",NA,"In","Spreadsheet1","Spreadsheet1",1,"BIQ","Screen 3","iz3the",3,"response","0",9300.087,86867.405,86879.5030000011,9300.087,86867.405,86879.5030000011,1,9300.087,77579.4160000011,0,NA,"Rating Scale","Rating Scale",2,"object-53","BIQ",NA,"MDPRF06491"
"12",1698681185310,"30/10/2023 15:53:05",1698681185310,0,"30/10/2023 15:53:05",149691,4,"questionnaire-uu2n",NA,32578598,9641117,NA,"rejected - time limit reached",NA,"653fcf2b7bd560dad25174f7","computer","Desktop or Laptop","Windows 10","Chrome 118.0.0.0","1920x1080","1920x963",NA,NA,0,"BIQ (Charlotte)",2,"In","HIGJFKELDACB",NA,"In","Spreadsheet1","Spreadsheet1",1,"BIQ","Screen 3","iz3the",3,"response","4",83450.699,86867.405,86880.303,83450.699,86867.405,86880.303,1,83450.699,3429.60399999999,0,NA,"Rating Scale","Rating Scale",9,"object-60","BIQ",NA,"MDPRF06491"
"13",1698681185311,"30/10/2023 15:53:05",1698681185311,0,"30/10/2023 15:53:05",149691,4,"questionnaire-uu2n",NA,32578598,9641117,NA,"rejected - time limit reached",NA,"653fcf2b7bd560dad25174f7","computer","Desktop or Laptop","Windows 10","Chrome 118.0.0.0","1920x1080","1920x963",NA,NA,0,"BIQ (Charlotte)",2,"In","HIGJFKELDACB",NA,"In","Spreadsheet1","Spreadsheet1",1,"BIQ","Screen 3","iz3the",3,"response","2",86267.419,86867.405,86881.303,86267.419,86867.405,86881.303,1,86267.419,613.883999999991,0,NA,"Rating Scale","Rating Scale",16,"object-67","BIQ",NA,"MDPRF06491"
"14",1698681185321,"30/10/2023 15:53:05",1698681185321,0,"30/10/2023 15:53:05",149691,4,"questionnaire-uu2n",NA,32578598,9641117,NA,"rejected - time limit reached",NA,"653fcf2b7bd560dad25174f7","computer","Desktop or Laptop","Windows 10","Chrome 118.0.0.0","1920x1080","1920x963",NA,NA,0,"BIQ (Charlotte)",2,"In","HIGJFKELDACB",NA,"In","Spreadsheet1","Spreadsheet1",NA,"","","",NA,"5","END",NA,NA,NA,NA,NA,NA,0,NA,NA,NA,NA,"","",NA,"","",NA,"MDPRF06491"
"1",1698681224566,"30/10/2023 15:53:44",1698681224566,0,"30/10/2023 15:53:44",149691,4,"questionnaire-uu2n",NA,32578691,9641138,NA,"rejected - time limit reached",NA,"653fd05aadcae8ca019955ca","computer","Desktop or Laptop","Mac OS 10.15.7","Safari 17.0","1440x900","1263x710",NA,NA,0,"BIQ (Charlotte)",2,"In","IJHKGLFAEBDC",NA,"In","Spreadsheet1","Spreadsheet1",NA,"","","",NA,"5","BEGIN",NA,NA,NA,NA,NA,NA,0,NA,NA,NA,NA,"","",NA,"","",NA,"MDPRF31218"
"2",1698681251003,"30/10/2023 15:54:11",1698681251003,0,"30/10/2023 15:54:11",149691,4,"questionnaire-uu2n",NA,32578691,9641138,NA,"rejected - time limit reached",NA,"653fd05aadcae8ca019955ca","computer","Desktop or Laptop","Mac OS 10.15.7","Safari 17.0","1440x900","1263x710",NA,NA,0,"BIQ (Charlotte)",2,"In","IJHKGLFAEBDC",NA,"In","Spreadsheet1","Spreadsheet1",1,"BIQ","Screen 1","9dh6eq",1,"continue","",27948,27935,27948,27948,27935,27948,1,27948,0,0,NA,"Click To Continue","Continue Button",23,"object-48","BIQ",NA,"MDPRF31218"
"3",1698681251006,"30/10/2023 15:54:11",1698681251006,0,"30/10/2023 15:54:11",149691,4,"questionnaire-uu2n",NA,32578691,9641138,NA,"rejected - time limit reached",NA,"653fd05aadcae8ca019955ca","computer","Desktop or Laptop","Mac OS 10.15.7","Safari 17.0","1440x900","1263x710",NA,NA,0,"BIQ (Charlotte)",2,"In","IJHKGLFAEBDC",NA,"In","Spreadsheet1","Spreadsheet1",1,"BIQ","Screen 1","9dh6eq",1,"response","5",11235,27935,27952,11235,27935,27952,1,11235,16717,0,NA,"Rating Scale","Rating Scale",3,"object-5","BIQ",NA,"MDPRF31218"
"4",1698681251007,"30/10/2023 15:54:11",1698681251007,0,"30/10/2023 15:54:11",149691,4,"questionnaire-uu2n",NA,32578691,9641138,NA,"rejected - time limit reached",NA,"653fd05aadcae8ca019955ca","computer","Desktop or Laptop","Mac OS 10.15.7","Safari 17.0","1440x900","1263x710",NA,NA,0,"BIQ (Charlotte)",2,"In","IJHKGLFAEBDC",NA,"In","Spreadsheet1","Spreadsheet1",1,"BIQ","Screen 1","9dh6eq",1,"response","6",23419,27935,27952,23419,27935,27952,1,23419,4533,0,NA,"Rating Scale","Rating Scale",10,"object-18","BIQ",NA,"MDPRF31218"
"5",1698681251007,"30/10/2023 15:54:11",1698681251007,0,"30/10/2023 15:54:11",149691,4,"questionnaire-uu2n",NA,32578691,9641138,NA,"rejected - time limit reached",NA,"653fd05aadcae8ca019955ca","computer","Desktop or Laptop","Mac OS 10.15.7","Safari 17.0","1440x900","1263x710",NA,NA,0,"BIQ (Charlotte)",2,"In","IJHKGLFAEBDC",NA,"In","Spreadsheet1","Spreadsheet1",1,"BIQ","Screen 1","9dh6eq",1,"response","4",27301,27935,27952,27301,27935,27952,1,27301,651,0,NA,"Rating Scale","Rating Scale",17,"object-80","BIQ",NA,"MDPRF31218"
"6",1698681265126,"30/10/2023 15:54:25",1698681265126,0,"30/10/2023 15:54:25",149691,4,"questionnaire-uu2n",NA,32578691,9641138,NA,"rejected - time limit reached",NA,"653fd05aadcae8ca019955ca","computer","Desktop or Laptop","Mac OS 10.15.7","Safari 17.0","1440x900","1263x710",NA,NA,0,"BIQ (Charlotte)",2,"In","IJHKGLFAEBDC",NA,"In","Spreadsheet1","Spreadsheet1",1,"BIQ","Screen 2","o21mwi",2,"continue","",14138,14134,14138,14138,14134,14138,1,14138,0,0,NA,"Click To Continue","Continue Button",22,"object-50","BIQ",NA,"MDPRF31218"
"7",1698681265131,"30/10/2023 15:54:25",1698681265131,0,"30/10/2023 15:54:25",149691,4,"questionnaire-uu2n",NA,32578691,9641138,NA,"rejected - time limit reached",NA,"653fd05aadcae8ca019955ca","computer","Desktop or Laptop","Mac OS 10.15.7","Safari 17.0","1440x900","1263x710",NA,NA,0,"BIQ (Charlotte)",2,"In","IJHKGLFAEBDC",NA,"In","Spreadsheet1","Spreadsheet1",1,"BIQ","Screen 2","o21mwi",2,"response","6",5084,14134,14143,5084,14134,14143,1,5084,9059,0,NA,"Rating Scale","Rating Scale",2,"object-259","BIQ",NA,"MDPRF31218"
"8",1698681265131,"30/10/2023 15:54:25",1698681265131,0,"30/10/2023 15:54:25",149691,4,"questionnaire-uu2n",NA,32578691,9641138,NA,"rejected - time limit reached",NA,"653fd05aadcae8ca019955ca","computer","Desktop or Laptop","Mac OS 10.15.7","Safari 17.0","1440x900","1263x710",NA,NA,0,"BIQ (Charlotte)",2,"In","IJHKGLFAEBDC",NA,"In","Spreadsheet1","Spreadsheet1",1,"BIQ","Screen 2","o21mwi",2,"response","4",8217,14134,14143,8217,14134,14143,1,8217,5926,0,NA,"Rating Scale","Rating Scale",9,"object-36","BIQ",NA,"MDPRF31218"
"9",1698681265131,"30/10/2023 15:54:25",1698681265131,0,"30/10/2023 15:54:25",149691,4,"questionnaire-uu2n",NA,32578691,9641138,NA,"rejected - time limit reached",NA,"653fd05aadcae8ca019955ca","computer","Desktop or Laptop","Mac OS 10.15.7","Safari 17.0","1440x900","1263x710",NA,NA,0,"BIQ (Charlotte)",2,"In","IJHKGLFAEBDC",NA,"In","Spreadsheet1","Spreadsheet1",1,"BIQ","Screen 2","o21mwi",2,"response","2",13334,14134,14143,13334,14134,14143,1,13334,809,0,NA,"Rating Scale","Rating Scale",16,"object-86","BIQ",NA,"MDPRF31218"
"10",1698681288161,"30/10/2023 15:54:48",1698681288161,0,"30/10/2023 15:54:48",149691,4,"questionnaire-uu2n",NA,32578691,9641138,NA,"rejected - time limit reached",NA,"653fd05aadcae8ca019955ca","computer","Desktop or Laptop","Mac OS 10.15.7","Safari 17.0","1440x900","1263x710",NA,NA,0,"BIQ (Charlotte)",2,"In","IJHKGLFAEBDC",NA,"In","Spreadsheet1","Spreadsheet1",1,"BIQ","Screen 3","iz3the",3,"continue","",23039,23034,23039,23039,23034,23039,1,23039,0,0,NA,"Click To Continue","Continue Button",22,"object-73","BIQ",NA,"MDPRF31218"
"11",1698681288165,"30/10/2023 15:54:48",1698681288165,0,"30/10/2023 15:54:48",149691,4,"questionnaire-uu2n",NA,32578691,9641138,NA,"rejected - time limit reached",NA,"653fd05aadcae8ca019955ca","computer","Desktop or Laptop","Mac OS 10.15.7","Safari 17.0","1440x900","1263x710",NA,NA,0,"BIQ (Charlotte)",2,"In","IJHKGLFAEBDC",NA,"In","Spreadsheet1","Spreadsheet1",1,"BIQ","Screen 3","iz3the",3,"response","2",17851,23034,23044,17851,23034,23044,1,17851,5193,0,NA,"Rating Scale","Rating Scale",2,"object-53","BIQ",NA,"MDPRF31218"
"12",1698681288166,"30/10/2023 15:54:48",1698681288166,0,"30/10/2023 15:54:48",149691,4,"questionnaire-uu2n",NA,32578691,9641138,NA,"rejected - time limit reached",NA,"653fd05aadcae8ca019955ca","computer","Desktop or Laptop","Mac OS 10.15.7","Safari 17.0","1440x900","1263x710",NA,NA,0,"BIQ (Charlotte)",2,"In","IJHKGLFAEBDC",NA,"In","Spreadsheet1","Spreadsheet1",1,"BIQ","Screen 3","iz3the",3,"response","5",19767,23034,23045,19767,23034,23045,1,19767,3278.00000000001,0,NA,"Rating Scale","Rating Scale",9,"object-60","BIQ",NA,"MDPRF31218"
"13",1698681288166,"30/10/2023 15:54:48",1698681288166,0,"30/10/2023 15:54:48",149691,4,"questionnaire-uu2n",NA,32578691,9641138,NA,"rejected - time limit reached",NA,"653fd05aadcae8ca019955ca","computer","Desktop or Laptop","Mac OS 10.15.7","Safari 17.0","1440x900","1263x710",NA,NA,0,"BIQ (Charlotte)",2,"In","IJHKGLFAEBDC",NA,"In","Spreadsheet1","Spreadsheet1",1,"BIQ","Screen 3","iz3the",3,"response","6",22184,23034,23045,22184,23034,23045,1,22184,861.000000000007,0,NA,"Rating Scale","Rating Scale",16,"object-67","BIQ",NA,"MDPRF31218"
"14",1698681288169,"30/10/2023 15:54:48",1698681288169,0,"30/10/2023 15:54:48",149691,4,"questionnaire-uu2n",NA,32578691,9641138,NA,"rejected - time limit reached",NA,"653fd05aadcae8ca019955ca","computer","Desktop or Laptop","Mac OS 10.15.7","Safari 17.0","1440x900","1263x710",NA,NA,0,"BIQ (Charlotte)",2,"In","IJHKGLFAEBDC",NA,"In","Spreadsheet1","Spreadsheet1",NA,"","","",NA,"5","END",NA,NA,NA,NA,NA,NA,0,NA,NA,NA,NA,"","",NA,"","",NA,"MDPRF31218"
"1",1698681580335,"30/10/2023 15:59:40",1698681580335,0,"30/10/2023 15:59:40",149691,4,"questionnaire-uu2n",NA,32578870,9641147,NA,"rejected - time limit reached",NA,"653fd086f182125c80892582","computer","Desktop or Laptop","Windows 10","Edge 117.0.2045.60","1366x768","1358x654",NA,NA,0,"BIQ (Charlotte)",2,"In","JKILHAGBFCED",NA,"In","Spreadsheet1","Spreadsheet1",NA,"","","",NA,"5","BEGIN",NA,NA,NA,NA,NA,NA,0,NA,NA,NA,NA,"","",NA,"","",NA,"MDPRF98849"
"2",1698681631142,"30/10/2023 16:00:31",1698681631142,0,"30/10/2023 16:00:31",149691,4,"questionnaire-uu2n",NA,32578870,9641147,NA,"rejected - time limit reached",NA,"653fd086f182125c80892582","computer","Desktop or Laptop","Windows 10","Edge 117.0.2045.60","1366x768","1358x654",NA,NA,0,"BIQ (Charlotte)",2,"In","JKILHAGBFCED",NA,"In","Spreadsheet1","Spreadsheet1",1,"BIQ","Screen 1","9dh6eq",1,"continue","",50797.593,50781.203,50797.593,50797.593,50781.203,50797.593,1,50797.593,0,0,NA,"Click To Continue","Continue Button",23,"object-48","BIQ",NA,"MDPRF98849"
"3",1698681631152,"30/10/2023 16:00:31",1698681631152,0,"30/10/2023 16:00:31",149691,4,"questionnaire-uu2n",NA,32578870,9641147,NA,"rejected - time limit reached",NA,"653fd086f182125c80892582","computer","Desktop or Laptop","Windows 10","Edge 117.0.2045.60","1366x768","1358x654",NA,NA,0,"BIQ (Charlotte)",2,"In","JKILHAGBFCED",NA,"In","Spreadsheet1","Spreadsheet1",1,"BIQ","Screen 1","9dh6eq",1,"response","6",35775.074,50781.203,50797.593,35775.074,50781.203,50797.593,1,35775.074,15022.519,0,NA,"Rating Scale","Rating Scale",3,"object-5","BIQ",NA,"MDPRF98849"
"4",1698681631155,"30/10/2023 16:00:31",1698681631155,0,"30/10/2023 16:00:31",149691,4,"questionnaire-uu2n",NA,32578870,9641147,NA,"rejected - time limit reached",NA,"653fd086f182125c80892582","computer","Desktop or Laptop","Windows 10","Edge 117.0.2045.60","1366x768","1358x654",NA,NA,0,"BIQ (Charlotte)",2,"In","JKILHAGBFCED",NA,"In","Spreadsheet1","Spreadsheet1",1,"BIQ","Screen 1","9dh6eq",1,"response","5",44235.777,50781.203,50797.593,44235.777,50781.203,50797.593,1,44235.777,6561.816,0,NA,"Rating Scale","Rating Scale",10,"object-18","BIQ",NA,"MDPRF98849"
"5",1698681631156,"30/10/2023 16:00:31",1698681631156,0,"30/10/2023 16:00:31",149691,4,"questionnaire-uu2n",NA,32578870,9641147,NA,"rejected - time limit reached",NA,"653fd086f182125c80892582","computer","Desktop or Laptop","Windows 10","Edge 117.0.2045.60","1366x768","1358x654",NA,NA,0,"BIQ (Charlotte)",2,"In","JKILHAGBFCED",NA,"In","Spreadsheet1","Spreadsheet1",1,"BIQ","Screen 1","9dh6eq",1,"response","2",49232.295,50781.203,50797.593,49232.295,50781.203,50797.593,1,49232.295,1565.298,0,NA,"Rating Scale","Rating Scale",17,"object-80","BIQ",NA,"MDPRF98849"
"6",1698681661115,"30/10/2023 16:01:01",1698681661115,0,"30/10/2023 16:01:01",149691,4,"questionnaire-uu2n",NA,32578870,9641147,NA,"rejected - time limit reached",NA,"653fd086f182125c80892582","computer","Desktop or Laptop","Windows 10","Edge 117.0.2045.60","1366x768","1358x654",NA,NA,0,"BIQ (Charlotte)",2,"In","JKILHAGBFCED",NA,"In","Spreadsheet1","Spreadsheet1",1,"BIQ","Screen 2","o21mwi",2,"continue","",30012.395,29995.77,30012.395,30012.395,29995.77,30012.395,1,30012.395,0,0,NA,"Click To Continue","Continue Button",22,"object-50","BIQ",NA,"MDPRF98849"
"7",1698681661128,"30/10/2023 16:01:01",1698681661128,0,"30/10/2023 16:01:01",149691,4,"questionnaire-uu2n",NA,32578870,9641147,NA,"rejected - time limit reached",NA,"653fd086f182125c80892582","computer","Desktop or Laptop","Windows 10","Edge 117.0.2045.60","1366x768","1358x654",NA,NA,0,"BIQ (Charlotte)",2,"In","JKILHAGBFCED",NA,"In","Spreadsheet1","Spreadsheet1",1,"BIQ","Screen 2","o21mwi",2,"response","6",6362.242,29995.77,30012.395,6362.242,29995.77,30012.395,1,6362.242,23650.153,0,NA,"Rating Scale","Rating Scale",2,"object-259","BIQ",NA,"MDPRF98849"
"8",1698681661130,"30/10/2023 16:01:01",1698681661130,0,"30/10/2023 16:01:01",149691,4,"questionnaire-uu2n",NA,32578870,9641147,NA,"rejected - time limit reached",NA,"653fd086f182125c80892582","computer","Desktop or Laptop","Windows 10","Edge 117.0.2045.60","1366x768","1358x654",NA,NA,0,"BIQ (Charlotte)",2,"In","JKILHAGBFCED",NA,"In","Spreadsheet1","Spreadsheet1",1,"BIQ","Screen 2","o21mwi",2,"response","5",18620.336,29995.77,30012.395,18620.336,29995.77,30012.395,1,18620.336,11392.059,0,NA,"Rating Scale","Rating Scale",9,"object-36","BIQ",NA,"MDPRF98849"
"9",1698681661133,"30/10/2023 16:01:01",1698681661133,0,"30/10/2023 16:01:01",149691,4,"questionnaire-uu2n",NA,32578870,9641147,NA,"rejected - time limit reached",NA,"653fd086f182125c80892582","computer","Desktop or Laptop","Windows 10","Edge 117.0.2045.60","1366x768","1358x654",NA,NA,0,"BIQ (Charlotte)",2,"In","JKILHAGBFCED",NA,"In","Spreadsheet1","Spreadsheet1",1,"BIQ","Screen 2","o21mwi",2,"response","4",29329.444,29995.77,30012.395,29329.444,29995.77,30012.395,1,29329.444,682.951000000001,0,NA,"Rating Scale","Rating Scale",16,"object-86","BIQ",NA,"MDPRF98849"
"10",1698681680292,"30/10/2023 16:01:20",1698681680292,0,"30/10/2023 16:01:20",149691,4,"questionnaire-uu2n",NA,32578870,9641147,NA,"rejected - time limit reached",NA,"653fd086f182125c80892582","computer","Desktop or Laptop","Windows 10","Edge 117.0.2045.60","1366x768","1358x654",NA,NA,0,"BIQ (Charlotte)",2,"In","JKILHAGBFCED",NA,"In","Spreadsheet1","Spreadsheet1",1,"BIQ","Screen 3","iz3the",3,"continue","",19200.3410001907,19186.47,19200.3410001907,19200.3410001907,19186.47,19200.3410001907,1,19200.3410001907,0,0,NA,"Click To Continue","Continue Button",22,"object-73","BIQ",NA,"MDPRF98849"
"11",1698681680307,"30/10/2023 16:01:20",1698681680307,0,"30/10/2023 16:01:20",149691,4,"questionnaire-uu2n",NA,32578870,9641147,NA,"rejected - time limit reached",NA,"653fd086f182125c80892582","computer","Desktop or Laptop","Windows 10","Edge 117.0.2045.60","1366x768","1358x654",NA,NA,0,"BIQ (Charlotte)",2,"In","JKILHAGBFCED",NA,"In","Spreadsheet1","Spreadsheet1",1,"BIQ","Screen 3","iz3the",3,"response","3",7994.387,19186.47,19203.026,7994.387,19186.47,19203.026,1,7994.387,11208.639,0,NA,"Rating Scale","Rating Scale",2,"object-53","BIQ",NA,"MDPRF98849"
"12",1698681680310,"30/10/2023 16:01:20",1698681680310,0,"30/10/2023 16:01:20",149691,4,"questionnaire-uu2n",NA,32578870,9641147,NA,"rejected - time limit reached",NA,"653fd086f182125c80892582","computer","Desktop or Laptop","Windows 10","Edge 117.0.2045.60","1366x768","1358x654",NA,NA,0,"BIQ (Charlotte)",2,"In","JKILHAGBFCED",NA,"In","Spreadsheet1","Spreadsheet1",1,"BIQ","Screen 3","iz3the",3,"response","5",12024.908,19186.47,19203.026,12024.908,19186.47,19203.026,1,12024.908,7178.118,0,NA,"Rating Scale","Rating Scale",9,"object-60","BIQ",NA,"MDPRF98849"
"13",1698681680313,"30/10/2023 16:01:20",1698681680313,0,"30/10/2023 16:01:20",149691,4,"questionnaire-uu2n",NA,32578870,9641147,NA,"rejected - time limit reached",NA,"653fd086f182125c80892582","computer","Desktop or Laptop","Windows 10","Edge 117.0.2045.60","1366x768","1358x654",NA,NA,0,"BIQ (Charlotte)",2,"In","JKILHAGBFCED",NA,"In","Spreadsheet1","Spreadsheet1",1,"BIQ","Screen 3","iz3the",3,"response","4",17371.231,19186.47,19203.026,17371.231,19186.47,19203.026,1,17371.231,1831.795,0,NA,"Rating Scale","Rating Scale",16,"object-67","BIQ",NA,"MDPRF98849"
"14",1698681680322,"30/10/2023 16:01:20",1698681680322,0,"30/10/2023 16:01:20",149691,4,"questionnaire-uu2n",NA,32578870,9641147,NA,"rejected - time limit reached",NA,"653fd086f182125c80892582","computer","Desktop or Laptop","Windows 10","Edge 117.0.2045.60","1366x768","1358x654",NA,NA,0,"BIQ (Charlotte)",2,"In","JKILHAGBFCED",NA,"In","Spreadsheet1","Spreadsheet1",NA,"","","",NA,"5","END",NA,NA,NA,NA,NA,NA,0,NA,NA,NA,NA,"","",NA,"","",NA,"MDPRF98849"
"1",1698681632197,"30/10/2023 16:00:32",1698681632197,0,"30/10/2023 16:00:32",149691,4,"questionnaire-uu2n",NA,32578892,9641206,NA,"complete",NA,"653fd2876df56a75520fc51b","computer","Desktop or Laptop","Windows 10","Chrome 118.0.0.0","2195x1235","2195x1116",NA,NA,0,"BIQ (Charlotte)",2,"In","FGEHDICJBKAL",NA,"In","Spreadsheet1","Spreadsheet1",NA,"","","",NA,"5","BEGIN",NA,NA,NA,NA,NA,NA,0,NA,NA,NA,NA,"","",NA,"","",NA,"MDPRF70826"
"2",1698681777855,"30/10/2023 16:02:57",1698681777855,0,"30/10/2023 16:02:57",149691,4,"questionnaire-uu2n",NA,32578892,9641206,NA,"complete",NA,"653fd2876df56a75520fc51b","computer","Desktop or Laptop","Windows 10","Chrome 118.0.0.0","2195x1235","2195x1116",NA,NA,0,"BIQ (Charlotte)",2,"In","FGEHDICJBKAL",NA,"In","Spreadsheet1","Spreadsheet1",1,"BIQ","Screen 1","9dh6eq",1,"continue","",145663.095,145656.147,145663.095,145663.095,145656.147,145663.095,1,145663.095,0,0,NA,"Click To Continue","Continue Button",23,"object-48","BIQ",NA,"MDPRF70826"
"3",1698681777856,"30/10/2023 16:02:57",1698681777856,0,"30/10/2023 16:02:57",149691,4,"questionnaire-uu2n",NA,32578892,9641206,NA,"complete",NA,"653fd2876df56a75520fc51b","computer","Desktop or Laptop","Windows 10","Chrome 118.0.0.0","2195x1235","2195x1116",NA,NA,0,"BIQ (Charlotte)",2,"In","FGEHDICJBKAL",NA,"In","Spreadsheet1","Spreadsheet1",1,"BIQ","Screen 1","9dh6eq",1,"response","6",19250.391,145656.147,145663.095,19250.391,145656.147,145663.095,1,19250.391,126412.704,0,NA,"Rating Scale","Rating Scale",3,"object-5","BIQ",NA,"MDPRF70826"
"4",1698681777856,"30/10/2023 16:02:57",1698681777856,0,"30/10/2023 16:02:57",149691,4,"questionnaire-uu2n",NA,32578892,9641206,NA,"complete",NA,"653fd2876df56a75520fc51b","computer","Desktop or Laptop","Windows 10","Chrome 118.0.0.0","2195x1235","2195x1116",NA,NA,0,"BIQ (Charlotte)",2,"In","FGEHDICJBKAL",NA,"In","Spreadsheet1","Spreadsheet1",1,"BIQ","Screen 1","9dh6eq",1,"response","7",138434.201,145656.147,145663.095,138434.201,145656.147,145663.095,1,138434.201,7228.894,0,NA,"Rating Scale","Rating Scale",10,"object-18","BIQ",NA,"MDPRF70826"
"5",1698681777856,"30/10/2023 16:02:57",1698681777856,0,"30/10/2023 16:02:57",149691,4,"questionnaire-uu2n",NA,32578892,9641206,NA,"complete",NA,"653fd2876df56a75520fc51b","computer","Desktop or Laptop","Windows 10","Chrome 118.0.0.0","2195x1235","2195x1116",NA,NA,0,"BIQ (Charlotte)",2,"In","FGEHDICJBKAL",NA,"In","Spreadsheet1","Spreadsheet1",1,"BIQ","Screen 1","9dh6eq",1,"response","6",145031.165,145656.147,145663.095,145031.165,145656.147,145663.095,1,145031.165,631.929999999993,0,NA,"Rating Scale","Rating Scale",17,"object-80","BIQ",NA,"MDPRF70826"
"6",1698681815092,"30/10/2023 16:03:35",1698681815092,0,"30/10/2023 16:03:35",149691,4,"questionnaire-uu2n",NA,32578892,9641206,NA,"complete",NA,"653fd2876df56a75520fc51b","computer","Desktop or Laptop","Windows 10","Chrome 118.0.0.0","2195x1235","2195x1116",NA,NA,0,"BIQ (Charlotte)",2,"In","FGEHDICJBKAL",NA,"In","Spreadsheet1","Spreadsheet1",1,"BIQ","Screen 2","o21mwi",2,"continue","",37246.9279999998,37241.87,37246.9279999998,37246.9279999998,37241.87,37246.9279999998,1,37246.9279999998,0,0,NA,"Click To Continue","Continue Button",22,"object-50","BIQ",NA,"MDPRF70826"
"7",1698681815093,"30/10/2023 16:03:35",1698681815093,0,"30/10/2023 16:03:35",149691,4,"questionnaire-uu2n",NA,32578892,9641206,NA,"complete",NA,"653fd2876df56a75520fc51b","computer","Desktop or Laptop","Windows 10","Chrome 118.0.0.0","2195x1235","2195x1116",NA,NA,0,"BIQ (Charlotte)",2,"In","FGEHDICJBKAL",NA,"In","Spreadsheet1","Spreadsheet1",1,"BIQ","Screen 2","o21mwi",2,"response","6",8194.17499999999,37241.87,37248.2280000006,8194.17499999999,37241.87,37248.2280000006,1,8194.17499999999,29054.0530000006,0,NA,"Rating Scale","Rating Scale",2,"object-259","BIQ",NA,"MDPRF70826"
"8",1698681815093,"30/10/2023 16:03:35",1698681815093,0,"30/10/2023 16:03:35",149691,4,"questionnaire-uu2n",NA,32578892,9641206,NA,"complete",NA,"653fd2876df56a75520fc51b","computer","Desktop or Laptop","Windows 10","Chrome 118.0.0.0","2195x1235","2195x1116",NA,NA,0,"BIQ (Charlotte)",2,"In","FGEHDICJBKAL",NA,"In","Spreadsheet1","Spreadsheet1",1,"BIQ","Screen 2","o21mwi",2,"response","3",31207.336,37241.87,37248.4279999998,31207.336,37241.87,37248.4279999998,1,31207.336,6041.0919999998,0,NA,"Rating Scale","Rating Scale",9,"object-36","BIQ",NA,"MDPRF70826"
"9",1698681815093,"30/10/2023 16:03:35",1698681815093,0,"30/10/2023 16:03:35",149691,4,"questionnaire-uu2n",NA,32578892,9641206,NA,"complete",NA,"653fd2876df56a75520fc51b","computer","Desktop or Laptop","Windows 10","Chrome 118.0.0.0","2195x1235","2195x1116",NA,NA,0,"BIQ (Charlotte)",2,"In","FGEHDICJBKAL",NA,"In","Spreadsheet1","Spreadsheet1",1,"BIQ","Screen 2","o21mwi",2,"response","4",36679.401,37241.87,37248.628,36679.401,37241.87,37248.628,1,36679.401,569.227000000014,0,NA,"Rating Scale","Rating Scale",16,"object-86","BIQ",NA,"MDPRF70826"
"10",1698681881909,"30/10/2023 16:04:41",1698681881909,0,"30/10/2023 16:04:41",149691,4,"questionnaire-uu2n",NA,32578892,9641206,NA,"complete",NA,"653fd2876df56a75520fc51b","computer","Desktop or Laptop","Windows 10","Chrome 118.0.0.0","2195x1235","2195x1116",NA,NA,0,"BIQ (Charlotte)",2,"In","FGEHDICJBKAL",NA,"In","Spreadsheet1","Spreadsheet1",1,"BIQ","Screen 3","iz3the",3,"continue","",66822.3580000006,66817.377,66822.3580000006,66822.3580000006,66817.377,66822.3580000006,1,66822.3580000006,0,0,NA,"Click To Continue","Continue Button",22,"object-73","BIQ",NA,"MDPRF70826"
"11",1698681881910,"30/10/2023 16:04:41",1698681881910,0,"30/10/2023 16:04:41",149691,4,"questionnaire-uu2n",NA,32578892,9641206,NA,"complete",NA,"653fd2876df56a75520fc51b","computer","Desktop or Laptop","Windows 10","Chrome 118.0.0.0","2195x1235","2195x1116",NA,NA,0,"BIQ (Charlotte)",2,"In","FGEHDICJBKAL",NA,"In","Spreadsheet1","Spreadsheet1",1,"BIQ","Screen 3","iz3the",3,"response","1",9562.22099999999,66817.377,66823.758,9562.22099999999,66817.377,66823.758,1,9562.22099999999,57261.537,0,NA,"Rating Scale","Rating Scale",2,"object-53","BIQ",NA,"MDPRF70826"
"12",1698681881911,"30/10/2023 16:04:41",1698681881911,0,"30/10/2023 16:04:41",149691,4,"questionnaire-uu2n",NA,32578892,9641206,NA,"complete",NA,"653fd2876df56a75520fc51b","computer","Desktop or Laptop","Windows 10","Chrome 118.0.0.0","2195x1235","2195x1116",NA,NA,0,"BIQ (Charlotte)",2,"In","FGEHDICJBKAL",NA,"In","Spreadsheet1","Spreadsheet1",1,"BIQ","Screen 3","iz3the",3,"response","5",13832.907,66817.377,66824.1580000004,13832.907,66817.377,66824.1580000004,1,13832.907,52991.2510000004,0,NA,"Rating Scale","Rating Scale",9,"object-60","BIQ",NA,"MDPRF70826"
"13",1698681881911,"30/10/2023 16:04:41",1698681881911,0,"30/10/2023 16:04:41",149691,4,"questionnaire-uu2n",NA,32578892,9641206,NA,"complete",NA,"653fd2876df56a75520fc51b","computer","Desktop or Laptop","Windows 10","Chrome 118.0.0.0","2195x1235","2195x1116",NA,NA,0,"BIQ (Charlotte)",2,"In","FGEHDICJBKAL",NA,"In","Spreadsheet1","Spreadsheet1",1,"BIQ","Screen 3","iz3the",3,"response","4",65213.238,66817.377,66824.314,65213.238,66817.377,66824.314,1,65213.238,1611.076,0,NA,"Rating Scale","Rating Scale",16,"object-67","BIQ",NA,"MDPRF70826"
"14",1698681881913,"30/10/2023 16:04:41",1698681881913,0,"30/10/2023 16:04:41",149691,4,"questionnaire-uu2n",NA,32578892,9641206,NA,"complete",NA,"653fd2876df56a75520fc51b","computer","Desktop or Laptop","Windows 10","Chrome 118.0.0.0","2195x1235","2195x1116",NA,NA,0,"BIQ (Charlotte)",2,"In","FGEHDICJBKAL",NA,"In","Spreadsheet1","Spreadsheet1",NA,"","","",NA,"5","END",NA,NA,NA,NA,NA,NA,0,NA,NA,NA,NA,"","",NA,"","",NA,"MDPRF70826"
"1",1698681653527,"30/10/2023 16:00:53",1698681653527,0,"30/10/2023 16:00:53",149691,4,"questionnaire-uu2n",NA,32578900,9641185,NA,"rejected - time limit reached",NA,"653fd0c50e53526368b3a58c","computer","Desktop or Laptop","Windows 10","Chrome 118.0.0.0","1536x960","2304x1250",NA,NA,0,"BIQ (Charlotte)",2,"In","CDBEAFLGKHJI",NA,"In","Spreadsheet1","Spreadsheet1",NA,"","","",NA,"5","BEGIN",NA,NA,NA,NA,NA,NA,0,NA,NA,NA,NA,"","",NA,"","",NA,"MDPRF88491"
"2",1698681664527,"30/10/2023 16:01:04",1698681664527,0,"30/10/2023 16:01:04",149691,4,"questionnaire-uu2n",NA,32578900,9641185,NA,"rejected - time limit reached",NA,"653fd0c50e53526368b3a58c","computer","Desktop or Laptop","Windows 10","Chrome 118.0.0.0","1536x960","2304x1250",NA,NA,0,"BIQ (Charlotte)",2,"In","CDBEAFLGKHJI",NA,"In","Spreadsheet1","Spreadsheet1",1,"BIQ","Screen 1","9dh6eq",1,"continue","",11010.367,10995.607,11010.367,11010.367,10995.607,11010.367,1,11010.367,0,0,NA,"Click To Continue","Continue Button",23,"object-48","BIQ",NA,"MDPRF88491"
"3",1698681664532,"30/10/2023 16:01:04",1698681664532,0,"30/10/2023 16:01:04",149691,4,"questionnaire-uu2n",NA,32578900,9641185,NA,"rejected - time limit reached",NA,"653fd0c50e53526368b3a58c","computer","Desktop or Laptop","Windows 10","Chrome 118.0.0.0","1536x960","2304x1250",NA,NA,0,"BIQ (Charlotte)",2,"In","CDBEAFLGKHJI",NA,"In","Spreadsheet1","Spreadsheet1",1,"BIQ","Screen 1","9dh6eq",1,"response","2",2753.006,10995.607,11012.272,2753.006,10995.607,11012.272,1,2753.006,8259.266,0,NA,"Rating Scale","Rating Scale",3,"object-5","BIQ",NA,"MDPRF88491"
"4",1698681664532,"30/10/2023 16:01:04",1698681664532,0,"30/10/2023 16:01:04",149691,4,"questionnaire-uu2n",NA,32578900,9641185,NA,"rejected - time limit reached",NA,"653fd0c50e53526368b3a58c","computer","Desktop or Laptop","Windows 10","Chrome 118.0.0.0","1536x960","2304x1250",NA,NA,0,"BIQ (Charlotte)",2,"In","CDBEAFLGKHJI",NA,"In","Spreadsheet1","Spreadsheet1",1,"BIQ","Screen 1","9dh6eq",1,"response","5",4805.532,10995.607,11012.272,4805.532,10995.607,11012.272,1,4805.532,6206.74,0,NA,"Rating Scale","Rating Scale",10,"object-18","BIQ",NA,"MDPRF88491"
"5",1698681664533,"30/10/2023 16:01:04",1698681664533,0,"30/10/2023 16:01:04",149691,4,"questionnaire-uu2n",NA,32578900,9641185,NA,"rejected - time limit reached",NA,"653fd0c50e53526368b3a58c","computer","Desktop or Laptop","Windows 10","Chrome 118.0.0.0","1536x960","2304x1250",NA,NA,0,"BIQ (Charlotte)",2,"In","CDBEAFLGKHJI",NA,"In","Spreadsheet1","Spreadsheet1",1,"BIQ","Screen 1","9dh6eq",1,"response","3",6473.801,10995.607,11012.272,6473.801,10995.607,11012.272,1,6473.801,4538.471,0,NA,"Rating Scale","Rating Scale",17,"object-80","BIQ",NA,"MDPRF88491"
"6",1698681670589,"30/10/2023 16:01:10",1698681670589,0,"30/10/2023 16:01:10",149691,4,"questionnaire-uu2n",NA,32578900,9641185,NA,"rejected - time limit reached",NA,"653fd0c50e53526368b3a58c","computer","Desktop or Laptop","Windows 10","Chrome 118.0.0.0","1536x960","2304x1250",NA,NA,0,"BIQ (Charlotte)",2,"In","CDBEAFLGKHJI",NA,"In","Spreadsheet1","Spreadsheet1",1,"BIQ","Screen 2","o21mwi",2,"continue","",6088.96000004768,6073.153,6088.96000004768,6088.96000004768,6073.153,6088.96000004768,1,6088.96000004768,0,0,NA,"Click To Continue","Continue Button",22,"object-50","BIQ",NA,"MDPRF88491"
"7",1698681670590,"30/10/2023 16:01:10",1698681670590,0,"30/10/2023 16:01:10",149691,4,"questionnaire-uu2n",NA,32578900,9641185,NA,"rejected - time limit reached",NA,"653fd0c50e53526368b3a58c","computer","Desktop or Laptop","Windows 10","Chrome 118.0.0.0","1536x960","2304x1250",NA,NA,0,"BIQ (Charlotte)",2,"In","CDBEAFLGKHJI",NA,"In","Spreadsheet1","Spreadsheet1",1,"BIQ","Screen 2","o21mwi",2,"response","6",2552.597,6073.153,6089.46000004768,2552.597,6073.153,6089.46000004768,1,2552.597,3536.86300004768,0,NA,"Rating Scale","Rating Scale",2,"object-259","BIQ",NA,"MDPRF88491"
"8",1698681670590,"30/10/2023 16:01:10",1698681670590,0,"30/10/2023 16:01:10",149691,4,"questionnaire-uu2n",NA,32578900,9641185,NA,"rejected - time limit reached",NA,"653fd0c50e53526368b3a58c","computer","Desktop or Laptop","Windows 10","Chrome 118.0.0.0","1536x960","2304x1250",NA,NA,0,"BIQ (Charlotte)",2,"In","CDBEAFLGKHJI",NA,"In","Spreadsheet1","Spreadsheet1",1,"BIQ","Screen 2","o21mwi",2,"response","6",3921.293,6073.153,6089.615,3921.293,6073.153,6089.615,1,3921.293,2168.322,0,NA,"Rating Scale","Rating Scale",9,"object-36","BIQ",NA,"MDPRF88491"
"9",1698681670590,"30/10/2023 16:01:10",1698681670590,0,"30/10/2023 16:01:10",149691,4,"questionnaire-uu2n",NA,32578900,9641185,NA,"rejected - time limit reached",NA,"653fd0c50e53526368b3a58c","computer","Desktop or Laptop","Windows 10","Chrome 118.0.0.0","1536x960","2304x1250",NA,NA,0,"BIQ (Charlotte)",2,"In","CDBEAFLGKHJI",NA,"In","Spreadsheet1","Spreadsheet1",1,"BIQ","Screen 2","o21mwi",2,"response","5",5322.55,6073.153,6089.615,5322.55,6073.153,6089.615,1,5322.55,767.064999999999,0,NA,"Rating Scale","Rating Scale",16,"object-86","BIQ",NA,"MDPRF88491"
"10",1698681675520,"30/10/2023 16:01:15",1698681675520,0,"30/10/2023 16:01:15",149691,4,"questionnaire-uu2n",NA,32578900,9641185,NA,"rejected - time limit reached",NA,"653fd0c50e53526368b3a58c","computer","Desktop or Laptop","Windows 10","Chrome 118.0.0.0","1536x960","2304x1250",NA,NA,0,"BIQ (Charlotte)",2,"In","CDBEAFLGKHJI",NA,"In","Spreadsheet1","Spreadsheet1",1,"BIQ","Screen 3","iz3the",3,"continue","",4946.30700004768,4938.722,4946.30700004768,4946.30700004768,4938.722,4946.30700004768,1,4946.30700004768,0,0,NA,"Click To Continue","Continue Button",22,"object-73","BIQ",NA,"MDPRF88491"
"11",1698681675528,"30/10/2023 16:01:15",1698681675528,0,"30/10/2023 16:01:15",149691,4,"questionnaire-uu2n",NA,32578900,9641185,NA,"rejected - time limit reached",NA,"653fd0c50e53526368b3a58c","computer","Desktop or Laptop","Windows 10","Chrome 118.0.0.0","1536x960","2304x1250",NA,NA,0,"BIQ (Charlotte)",2,"In","CDBEAFLGKHJI",NA,"In","Spreadsheet1","Spreadsheet1",1,"BIQ","Screen 3","iz3the",3,"response","3",2035.601,4938.722,4954.90699995232,2035.601,4938.722,4954.90699995232,1,2035.601,2919.30599995232,0,NA,"Rating Scale","Rating Scale",2,"object-53","BIQ",NA,"MDPRF88491"
"12",1698681675530,"30/10/2023 16:01:15",1698681675530,0,"30/10/2023 16:01:15",149691,4,"questionnaire-uu2n",NA,32578900,9641185,NA,"rejected - time limit reached",NA,"653fd0c50e53526368b3a58c","computer","Desktop or Laptop","Windows 10","Chrome 118.0.0.0","1536x960","2304x1250",NA,NA,0,"BIQ (Charlotte)",2,"In","CDBEAFLGKHJI",NA,"In","Spreadsheet1","Spreadsheet1",1,"BIQ","Screen 3","iz3the",3,"response","5",3020.194,4938.722,4955.378,3020.194,4938.722,4955.378,1,3020.194,1935.184,0,NA,"Rating Scale","Rating Scale",9,"object-60","BIQ",NA,"MDPRF88491"
"13",1698681675530,"30/10/2023 16:01:15",1698681675530,0,"30/10/2023 16:01:15",149691,4,"questionnaire-uu2n",NA,32578900,9641185,NA,"rejected - time limit reached",NA,"653fd0c50e53526368b3a58c","computer","Desktop or Laptop","Windows 10","Chrome 118.0.0.0","1536x960","2304x1250",NA,NA,0,"BIQ (Charlotte)",2,"In","CDBEAFLGKHJI",NA,"In","Spreadsheet1","Spreadsheet1",1,"BIQ","Screen 3","iz3the",3,"response","3",3987.755,4938.722,4955.378,3987.755,4938.722,4955.378,1,3987.755,967.623000000003,0,NA,"Rating Scale","Rating Scale",16,"object-67","BIQ",NA,"MDPRF88491"
"14",1698681675541,"30/10/2023 16:01:15",1698681675541,0,"30/10/2023 16:01:15",149691,4,"questionnaire-uu2n",NA,32578900,9641185,NA,"rejected - time limit reached",NA,"653fd0c50e53526368b3a58c","computer","Desktop or Laptop","Windows 10","Chrome 118.0.0.0","1536x960","2304x1250",NA,NA,0,"BIQ (Charlotte)",2,"In","CDBEAFLGKHJI",NA,"In","Spreadsheet1","Spreadsheet1",NA,"","","",NA,"5","END",NA,NA,NA,NA,NA,NA,0,NA,NA,NA,NA,"","",NA,"","",NA,"MDPRF88491"
"1",1698681793431,"30/10/2023 16:03:13",1698681793431,0,"30/10/2023 16:03:13",149691,4,"questionnaire-uu2n",NA,32578967,9641183,NA,"rejected - time limit reached",NA,"653fd2112f30f5dd8f7a5bb6","computer","Desktop or Laptop","Mac OS 10.15.7","Chrome 115.0.0.0","1440x900","1440x815",NA,NA,0,"BIQ (Charlotte)",2,"In","BCADLEKFJGIH",NA,"In","Spreadsheet1","Spreadsheet1",NA,"","","",NA,"5","BEGIN",NA,NA,NA,NA,NA,NA,0,NA,NA,NA,NA,"","",NA,"","",NA,"MDPRF11599"
"2",1698681827820,"30/10/2023 16:03:47",1698681827820,0,"30/10/2023 16:03:47",149691,4,"questionnaire-uu2n",NA,32578967,9641183,NA,"rejected - time limit reached",NA,"653fd2112f30f5dd8f7a5bb6","computer","Desktop or Laptop","Mac OS 10.15.7","Chrome 115.0.0.0","1440x900","1440x815",NA,NA,0,"BIQ (Charlotte)",2,"In","BCADLEKFJGIH",NA,"In","Spreadsheet1","Spreadsheet1",1,"BIQ","Screen 1","9dh6eq",1,"continue","",34399.411,34382.745,34399.411,34399.411,34382.745,34399.411,1,34399.411,0,0,NA,"Click To Continue","Continue Button",23,"object-48","BIQ",NA,"MDPRF11599"
"3",1698681827822,"30/10/2023 16:03:47",1698681827822,0,"30/10/2023 16:03:47",149691,4,"questionnaire-uu2n",NA,32578967,9641183,NA,"rejected - time limit reached",NA,"653fd2112f30f5dd8f7a5bb6","computer","Desktop or Laptop","Mac OS 10.15.7","Chrome 115.0.0.0","1440x900","1440x815",NA,NA,0,"BIQ (Charlotte)",2,"In","BCADLEKFJGIH",NA,"In","Spreadsheet1","Spreadsheet1",1,"BIQ","Screen 1","9dh6eq",1,"response","6",18966.432,34382.745,34399.411,18966.432,34382.745,34399.411,1,18966.432,15432.979,0,NA,"Rating Scale","Rating Scale",3,"object-5","BIQ",NA,"MDPRF11599"
"4",1698681827822,"30/10/2023 16:03:47",1698681827822,0,"30/10/2023 16:03:47",149691,4,"questionnaire-uu2n",NA,32578967,9641183,NA,"rejected - time limit reached",NA,"653fd2112f30f5dd8f7a5bb6","computer","Desktop or Laptop","Mac OS 10.15.7","Chrome 115.0.0.0","1440x900","1440x815",NA,NA,0,"BIQ (Charlotte)",2,"In","BCADLEKFJGIH",NA,"In","Spreadsheet1","Spreadsheet1",1,"BIQ","Screen 1","9dh6eq",1,"response","4",26783.049,34382.745,34399.411,26783.049,34382.745,34399.411,1,26783.049,7616.36199999999,0,NA,"Rating Scale","Rating Scale",10,"object-18","BIQ",NA,"MDPRF11599"
"5",1698681827823,"30/10/2023 16:03:47",1698681827823,0,"30/10/2023 16:03:47",149691,4,"questionnaire-uu2n",NA,32578967,9641183,NA,"rejected - time limit reached",NA,"653fd2112f30f5dd8f7a5bb6","computer","Desktop or Laptop","Mac OS 10.15.7","Chrome 115.0.0.0","1440x900","1440x815",NA,NA,0,"BIQ (Charlotte)",2,"In","BCADLEKFJGIH",NA,"In","Spreadsheet1","Spreadsheet1",1,"BIQ","Screen 1","9dh6eq",1,"response","5",31082.877,34382.745,34399.411,31082.877,34382.745,34399.411,1,31082.877,3316.53399999999,0,NA,"Rating Scale","Rating Scale",17,"object-80","BIQ",NA,"MDPRF11599"
"6",1698681855150,"30/10/2023 16:04:15",1698681855150,0,"30/10/2023 16:04:15",149691,4,"questionnaire-uu2n",NA,32578967,9641183,NA,"rejected - time limit reached",NA,"653fd2112f30f5dd8f7a5bb6","computer","Desktop or Laptop","Mac OS 10.15.7","Chrome 115.0.0.0","1440x900","1440x815",NA,NA,0,"BIQ (Charlotte)",2,"In","BCADLEKFJGIH",NA,"In","Spreadsheet1","Spreadsheet1",1,"BIQ","Screen 2","o21mwi",2,"continue","",27359.6409999762,27349.693,27359.6409999762,27359.6409999762,27349.693,27359.6409999762,1,27359.6409999762,0,0,NA,"Click To Continue","Continue Button",22,"object-50","BIQ",NA,"MDPRF11599"
"7",1698681855155,"30/10/2023 16:04:15",1698681855155,0,"30/10/2023 16:04:15",149691,4,"questionnaire-uu2n",NA,32578967,9641183,NA,"rejected - time limit reached",NA,"653fd2112f30f5dd8f7a5bb6","computer","Desktop or Laptop","Mac OS 10.15.7","Chrome 115.0.0.0","1440x900","1440x815",NA,NA,0,"BIQ (Charlotte)",2,"In","BCADLEKFJGIH",NA,"In","Spreadsheet1","Spreadsheet1",1,"BIQ","Screen 2","o21mwi",2,"response","7",9983.196,27349.693,27365.241,9983.196,27349.693,27365.241,1,9983.196,17382.045,0,NA,"Rating Scale","Rating Scale",2,"object-259","BIQ",NA,"MDPRF11599"
"8",1698681855156,"30/10/2023 16:04:15",1698681855156,0,"30/10/2023 16:04:15",149691,4,"questionnaire-uu2n",NA,32578967,9641183,NA,"rejected - time limit reached",NA,"653fd2112f30f5dd8f7a5bb6","computer","Desktop or Laptop","Mac OS 10.15.7","Chrome 115.0.0.0","1440x900","1440x815",NA,NA,0,"BIQ (Charlotte)",2,"In","BCADLEKFJGIH",NA,"In","Spreadsheet1","Spreadsheet1",1,"BIQ","Screen 2","o21mwi",2,"response","2",18383.123,27349.693,27365.741,18383.123,27349.693,27365.741,1,18383.123,8982.618,0,NA,"Rating Scale","Rating Scale",9,"object-36","BIQ",NA,"MDPRF11599"
"9",1698681855156,"30/10/2023 16:04:15",1698681855156,0,"30/10/2023 16:04:15",149691,4,"questionnaire-uu2n",NA,32578967,9641183,NA,"rejected - time limit reached",NA,"653fd2112f30f5dd8f7a5bb6","computer","Desktop or Laptop","Mac OS 10.15.7","Chrome 115.0.0.0","1440x900","1440x815",NA,NA,0,"BIQ (Charlotte)",2,"In","BCADLEKFJGIH",NA,"In","Spreadsheet1","Spreadsheet1",1,"BIQ","Screen 2","o21mwi",2,"response","1",26616.389,27349.693,27366.1409999762,26616.389,27349.693,27366.1409999762,1,26616.389,749.751999976157,0,NA,"Rating Scale","Rating Scale",16,"object-86","BIQ",NA,"MDPRF11599"
"10",1698681869832,"30/10/2023 16:04:29",1698681869832,0,"30/10/2023 16:04:29",149691,4,"questionnaire-uu2n",NA,32578967,9641183,NA,"rejected - time limit reached",NA,"653fd2112f30f5dd8f7a5bb6","computer","Desktop or Laptop","Mac OS 10.15.7","Chrome 115.0.0.0","1440x900","1440x815",NA,NA,0,"BIQ (Charlotte)",2,"In","BCADLEKFJGIH",NA,"In","Spreadsheet1","Spreadsheet1",1,"BIQ","Screen 3","iz3the",3,"continue","",14691.9479999762,14683.271,14691.9479999762,14691.9479999762,14683.271,14691.9479999762,1,14691.9479999762,0,0,NA,"Click To Continue","Continue Button",22,"object-73","BIQ",NA,"MDPRF11599"
"11",1698681869837,"30/10/2023 16:04:29",1698681869837,0,"30/10/2023 16:04:29",149691,4,"questionnaire-uu2n",NA,32578967,9641183,NA,"rejected - time limit reached",NA,"653fd2112f30f5dd8f7a5bb6","computer","Desktop or Laptop","Mac OS 10.15.7","Chrome 115.0.0.0","1440x900","1440x815",NA,NA,0,"BIQ (Charlotte)",2,"In","BCADLEKFJGIH",NA,"In","Spreadsheet1","Spreadsheet1",1,"BIQ","Screen 3","iz3the",3,"response","0",5400.047,14683.271,14696.7479999881,5400.047,14683.271,14696.7479999881,1,5400.047,9296.70099998808,0,NA,"Rating Scale","Rating Scale",2,"object-53","BIQ",NA,"MDPRF11599"
