"Event.Index","UTC.Timestamp","UTC.Date.and.Time","Local.Timestamp","Local.Timezone","Local.Date.and.Time","Experiment.ID","Experiment.Version","Tree.Node.Key","Repeat.Key","Schedule.ID","Participant.Private.ID","Participant.Starting.Group","Participant.Status","Participant.Completion.Code","Participant.External.Session.ID","Participant.Device.Type","Participant.Device","Participant.OS","Participant.Browser","Participant.Monitor.Size","Participant.Viewport.Size","Checkpoint","Room.ID","Room.Order","Task.Name","Task.Version","branch.hkzp","order.ot79","branch.mcuq","branch.4fv7","randomiser.vjic","Spreadsheet","Current.Spreadsheet","Trial.Number","Display","Screen","Screen.ID","Screen.Counter","Response.Type","Response","Onset.Time","Clock.Time","Reaction.Time","Absolute.Onset.Time","Absolute.Clock.Time","Absolute.Reaction.Time","Correct","Response.Onset","Response.Duration","Proportion","Tag","Component.Name","Object.Name","Object.Number","Object.ID","Spreadsheet..display","Manipulation..Spreadsheet","Random_ID"
"1",1707929842680,"14/02/2024 16:57:22",1707929842680,0,"14/02/2024 16:57:22",163173,5,"questionnaire-uu2n",NA,35148385,10387172,NA,"complete",NA,"65ccedc52a3ceca2b3cf12bd","computer","Desktop or Laptop","Windows 10","Chrome 121.0.0.0","1920x1080","1920x911",NA,NA,0,"BIQ (Charlotte)",2,"In","ABLCKDJEIFHG",NA,"In",3,"Spreadsheet1","Spreadsheet1",NA,"","","",NA,"5","BEGIN",NA,NA,NA,NA,NA,NA,0,NA,NA,NA,NA,"","",NA,"","",NA,"MDPRF13138"
"2",1707929874900,"14/02/2024 16:57:54",1707929874900,0,"14/02/2024 16:57:54",163173,5,"questionnaire-uu2n",NA,35148385,10387172,NA,"complete",NA,"65ccedc52a3ceca2b3cf12bd","computer","Desktop or Laptop","Windows 10","Chrome 121.0.0.0","1920x1080","1920x911",NA,NA,0,"BIQ (Charlotte)",2,"In","ABLCKDJEIFHG",NA,"In",3,"Spreadsheet1","Spreadsheet1",1,"BIQ","Screen 1","9dh6eq",1,"continue","",32230.2000000001,32224.2,32230.2000000001,32230.2000000001,32224.2,32230.2000000001,1,32230.2000000001,0,0,NA,"Click To Continue","Continue Button",23,"object-48","BIQ",NA,"MDPRF13138"
"3",1707929874901,"14/02/2024 16:57:54",1707929874901,0,"14/02/2024 16:57:54",163173,5,"questionnaire-uu2n",NA,35148385,10387172,NA,"complete",NA,"65ccedc52a3ceca2b3cf12bd","computer","Desktop or Laptop","Windows 10","Chrome 121.0.0.0","1920x1080","1920x911",NA,NA,0,"BIQ (Charlotte)",2,"In","ABLCKDJEIFHG",NA,"In",3,"Spreadsheet1","Spreadsheet1",1,"BIQ","Screen 1","9dh6eq",1,"response","2",7141.5,32224.2,32231.9999999999,7141.5,32224.2,32231.9999999999,1,7141.5,25090.4999999999,0,NA,"Rating Scale","Rating Scale",3,"object-5","BIQ",NA,"MDPRF13138"
"4",1707929874902,"14/02/2024 16:57:54",1707929874902,0,"14/02/2024 16:57:54",163173,5,"questionnaire-uu2n",NA,35148385,10387172,NA,"complete",NA,"65ccedc52a3ceca2b3cf12bd","computer","Desktop or Laptop","Windows 10","Chrome 121.0.0.0","1920x1080","1920x911",NA,NA,0,"BIQ (Charlotte)",2,"In","ABLCKDJEIFHG",NA,"In",3,"Spreadsheet1","Spreadsheet1",1,"BIQ","Screen 1","9dh6eq",1,"response","6",22999.5,32224.2,32232.3,22999.5,32224.2,32232.3,1,22999.5,9232.79999999995,0,NA,"Rating Scale","Rating Scale",10,"object-18","BIQ",NA,"MDPRF13138"
"5",1707929874902,"14/02/2024 16:57:54",1707929874902,0,"14/02/2024 16:57:54",163173,5,"questionnaire-uu2n",NA,35148385,10387172,NA,"complete",NA,"65ccedc52a3ceca2b3cf12bd","computer","Desktop or Laptop","Windows 10","Chrome 121.0.0.0","1920x1080","1920x911",NA,NA,0,"BIQ (Charlotte)",2,"In","ABLCKDJEIFHG",NA,"In",3,"Spreadsheet1","Spreadsheet1",1,"BIQ","Screen 1","9dh6eq",1,"response","7",24932.8,32224.2,32232.5,24932.8,32224.2,32232.5,1,24932.8,7299.69999999999,0,NA,"Rating Scale","Rating Scale",17,"object-80","BIQ",NA,"MDPRF13138"
"6",1707929939078,"14/02/2024 16:58:59",1707929939078,0,"14/02/2024 16:58:59",163173,5,"questionnaire-uu2n",NA,35148385,10387172,NA,"complete",NA,"65ccedc52a3ceca2b3cf12bd","computer","Desktop or Laptop","Windows 10","Chrome 121.0.0.0","1920x1080","1920x911",NA,NA,0,"BIQ (Charlotte)",2,"In","ABLCKDJEIFHG",NA,"In",3,"Spreadsheet1","Spreadsheet1",1,"BIQ","Screen 2","o21mwi",2,"continue","",64184.2,64182.1,64184.2,64184.2,64182.1,64184.2,1,64184.2,0,0,NA,"Click To Continue","Continue Button",22,"object-50","BIQ",NA,"MDPRF13138"
"7",1707929939081,"14/02/2024 16:58:59",1707929939081,0,"14/02/2024 16:58:59",163173,5,"questionnaire-uu2n",NA,35148385,10387172,NA,"complete",NA,"65ccedc52a3ceca2b3cf12bd","computer","Desktop or Laptop","Windows 10","Chrome 121.0.0.0","1920x1080","1920x911",NA,NA,0,"BIQ (Charlotte)",2,"In","ABLCKDJEIFHG",NA,"In",3,"Spreadsheet1","Spreadsheet1",1,"BIQ","Screen 2","o21mwi",2,"response","2",53048.9,64182.1,64187.7999999999,53048.9,64182.1,64187.7999999999,1,53048.9,11138.8999999999,0,NA,"Rating Scale","Rating Scale",2,"object-259","BIQ",NA,"MDPRF13138"
"8",1707929939081,"14/02/2024 16:58:59",1707929939081,0,"14/02/2024 16:58:59",163173,5,"questionnaire-uu2n",NA,35148385,10387172,NA,"complete",NA,"65ccedc52a3ceca2b3cf12bd","computer","Desktop or Laptop","Windows 10","Chrome 121.0.0.0","1920x1080","1920x911",NA,NA,0,"BIQ (Charlotte)",2,"In","ABLCKDJEIFHG",NA,"In",3,"Spreadsheet1","Spreadsheet1",1,"BIQ","Screen 2","o21mwi",2,"response","2",59507.1,64182.1,64188.0000000001,59507.1,64182.1,64188.0000000001,1,59507.1,4680.9000000001,0,NA,"Rating Scale","Rating Scale",9,"object-36","BIQ",NA,"MDPRF13138"
"9",1707929939082,"14/02/2024 16:58:59",1707929939082,0,"14/02/2024 16:58:59",163173,5,"questionnaire-uu2n",NA,35148385,10387172,NA,"complete",NA,"65ccedc52a3ceca2b3cf12bd","computer","Desktop or Laptop","Windows 10","Chrome 121.0.0.0","1920x1080","1920x911",NA,NA,0,"BIQ (Charlotte)",2,"In","ABLCKDJEIFHG",NA,"In",3,"Spreadsheet1","Spreadsheet1",1,"BIQ","Screen 2","o21mwi",2,"response","6",62723.7,64182.1,64188.2,62723.7,64182.1,64188.2,1,62723.7,1464.50000000004,0,NA,"Rating Scale","Rating Scale",16,"object-86","BIQ",NA,"MDPRF13138"
"10",1707929950098,"14/02/2024 16:59:10",1707929950098,0,"14/02/2024 16:59:10",163173,5,"questionnaire-uu2n",NA,35148385,10387172,NA,"complete",NA,"65ccedc52a3ceca2b3cf12bd","computer","Desktop or Laptop","Windows 10","Chrome 121.0.0.0","1920x1080","1920x911",NA,NA,0,"BIQ (Charlotte)",2,"In","ABLCKDJEIFHG",NA,"In",3,"Spreadsheet1","Spreadsheet1",1,"BIQ","Screen 3","iz3the",3,"continue","",11022,11016.3,11022,11022,11016.3,11022,1,11022,0,0,NA,"Click To Continue","Continue Button",22,"object-73","BIQ",NA,"MDPRF13138"
"11",1707929950099,"14/02/2024 16:59:10",1707929950099,0,"14/02/2024 16:59:10",163173,5,"questionnaire-uu2n",NA,35148385,10387172,NA,"complete",NA,"65ccedc52a3ceca2b3cf12bd","computer","Desktop or Laptop","Windows 10","Chrome 121.0.0.0","1920x1080","1920x911",NA,NA,0,"BIQ (Charlotte)",2,"In","ABLCKDJEIFHG",NA,"In",3,"Spreadsheet1","Spreadsheet1",1,"BIQ","Screen 3","iz3the",3,"response","5",6824.7,11016.3,11024,6824.7,11016.3,11024,1,6824.7,4199.29999999996,0,NA,"Rating Scale","Rating Scale",2,"object-53","BIQ",NA,"MDPRF13138"
"12",1707929950100,"14/02/2024 16:59:10",1707929950100,0,"14/02/2024 16:59:10",163173,5,"questionnaire-uu2n",NA,35148385,10387172,NA,"complete",NA,"65ccedc52a3ceca2b3cf12bd","computer","Desktop or Laptop","Windows 10","Chrome 121.0.0.0","1920x1080","1920x911",NA,NA,0,"BIQ (Charlotte)",2,"In","ABLCKDJEIFHG",NA,"In",3,"Spreadsheet1","Spreadsheet1",1,"BIQ","Screen 3","iz3the",3,"response","5",8849.8,11016.3,11024.4000000001,8849.8,11016.3,11024.4000000001,1,8849.8,2174.60000000009,0,NA,"Rating Scale","Rating Scale",9,"object-60","BIQ",NA,"MDPRF13138"
"13",1707929950100,"14/02/2024 16:59:10",1707929950100,0,"14/02/2024 16:59:10",163173,5,"questionnaire-uu2n",NA,35148385,10387172,NA,"complete",NA,"65ccedc52a3ceca2b3cf12bd","computer","Desktop or Laptop","Windows 10","Chrome 121.0.0.0","1920x1080","1920x911",NA,NA,0,"BIQ (Charlotte)",2,"In","ABLCKDJEIFHG",NA,"In",3,"Spreadsheet1","Spreadsheet1",1,"BIQ","Screen 3","iz3the",3,"response","7",10383,11016.3,11024.5,10383,11016.3,11024.5,1,10383,641.5,0,NA,"Rating Scale","Rating Scale",16,"object-67","BIQ",NA,"MDPRF13138"
"14",1707929950104,"14/02/2024 16:59:10",1707929950104,0,"14/02/2024 16:59:10",163173,5,"questionnaire-uu2n",NA,35148385,10387172,NA,"complete",NA,"65ccedc52a3ceca2b3cf12bd","computer","Desktop or Laptop","Windows 10","Chrome 121.0.0.0","1920x1080","1920x911",NA,NA,0,"BIQ (Charlotte)",2,"In","ABLCKDJEIFHG",NA,"In",3,"Spreadsheet1","Spreadsheet1",NA,"","","",NA,"5","END",NA,NA,NA,NA,NA,NA,0,NA,NA,NA,NA,"","",NA,"","",NA,"MDPRF13138"
"1",1707929764954,"14/02/2024 16:56:04",1707929764954,0,"14/02/2024 16:56:04",163173,5,"questionnaire-uu2n",NA,35148272,10387256,NA,"complete",NA,"65ccef2df33e7edc2ba99fc6","computer","Desktop or Laptop","Mac OS 10.15.7","Chrome 121.0.0.0","1440x900","1440x813",NA,NA,0,"BIQ (Charlotte)",2,"In","BCADLEKFJGIH",NA,"In",2,"Spreadsheet1","Spreadsheet1",NA,"","","",NA,"5","BEGIN",NA,NA,NA,NA,NA,NA,0,NA,NA,NA,NA,"","",NA,"","",NA,"MDPRF63569"
"2",1707929779642,"14/02/2024 16:56:19",1707929779642,0,"14/02/2024 16:56:19",163173,5,"questionnaire-uu2n",NA,35148272,10387256,NA,"complete",NA,"65ccef2df33e7edc2ba99fc6","computer","Desktop or Laptop","Mac OS 10.15.7","Chrome 121.0.0.0","1440x900","1440x813",NA,NA,0,"BIQ (Charlotte)",2,"In","BCADLEKFJGIH",NA,"In",2,"Spreadsheet1","Spreadsheet1",1,"BIQ","Screen 1","9dh6eq",1,"continue","",14698.28,14688.98,14698.28,14698.28,14688.98,14698.28,1,14698.28,0,0,NA,"Click To Continue","Continue Button",23,"object-48","BIQ",NA,"MDPRF63569"
"3",1707929779644,"14/02/2024 16:56:19",1707929779644,0,"14/02/2024 16:56:19",163173,5,"questionnaire-uu2n",NA,35148272,10387256,NA,"complete",NA,"65ccef2df33e7edc2ba99fc6","computer","Desktop or Laptop","Mac OS 10.15.7","Chrome 121.0.0.0","1440x900","1440x813",NA,NA,0,"BIQ (Charlotte)",2,"In","BCADLEKFJGIH",NA,"In",2,"Spreadsheet1","Spreadsheet1",1,"BIQ","Screen 1","9dh6eq",1,"response","7",6568.48,14688.98,14704.58,6568.48,14688.98,14704.58,1,6568.48,8136.1,0,NA,"Rating Scale","Rating Scale",3,"object-5","BIQ",NA,"MDPRF63569"
"4",1707929779644,"14/02/2024 16:56:19",1707929779644,0,"14/02/2024 16:56:19",163173,5,"questionnaire-uu2n",NA,35148272,10387256,NA,"complete",NA,"65ccef2df33e7edc2ba99fc6","computer","Desktop or Laptop","Mac OS 10.15.7","Chrome 121.0.0.0","1440x900","1440x813",NA,NA,0,"BIQ (Charlotte)",2,"In","BCADLEKFJGIH",NA,"In",2,"Spreadsheet1","Spreadsheet1",1,"BIQ","Screen 1","9dh6eq",1,"response","0",8656.88,14688.98,14704.58,8656.88,14688.98,14704.58,1,8656.88,6047.7,0,NA,"Rating Scale","Rating Scale",10,"object-18","BIQ",NA,"MDPRF63569"
"5",1707929779645,"14/02/2024 16:56:19",1707929779645,0,"14/02/2024 16:56:19",163173,5,"questionnaire-uu2n",NA,35148272,10387256,NA,"complete",NA,"65ccef2df33e7edc2ba99fc6","computer","Desktop or Laptop","Mac OS 10.15.7","Chrome 121.0.0.0","1440x900","1440x813",NA,NA,0,"BIQ (Charlotte)",2,"In","BCADLEKFJGIH",NA,"In",2,"Spreadsheet1","Spreadsheet1",1,"BIQ","Screen 1","9dh6eq",1,"response","7",13268.48,14688.98,14704.58,13268.48,14688.98,14704.58,1,13268.48,1436.1,0,NA,"Rating Scale","Rating Scale",17,"object-80","BIQ",NA,"MDPRF63569"
"6",1707929793869,"14/02/2024 16:56:33",1707929793869,0,"14/02/2024 16:56:33",163173,5,"questionnaire-uu2n",NA,35148272,10387256,NA,"complete",NA,"65ccef2df33e7edc2ba99fc6","computer","Desktop or Laptop","Mac OS 10.15.7","Chrome 121.0.0.0","1440x900","1440x813",NA,NA,0,"BIQ (Charlotte)",2,"In","BCADLEKFJGIH",NA,"In",2,"Spreadsheet1","Spreadsheet1",1,"BIQ","Screen 2","o21mwi",2,"continue","",14242.4,14238.5,14242.4,14242.4,14238.5,14242.4,1,14242.4,0,0,NA,"Click To Continue","Continue Button",22,"object-50","BIQ",NA,"MDPRF63569"
"7",1707929793874,"14/02/2024 16:56:33",1707929793874,0,"14/02/2024 16:56:33",163173,5,"questionnaire-uu2n",NA,35148272,10387256,NA,"complete",NA,"65ccef2df33e7edc2ba99fc6","computer","Desktop or Laptop","Mac OS 10.15.7","Chrome 121.0.0.0","1440x900","1440x813",NA,NA,0,"BIQ (Charlotte)",2,"In","BCADLEKFJGIH",NA,"In",2,"Spreadsheet1","Spreadsheet1",1,"BIQ","Screen 2","o21mwi",2,"response","2",4663.5,14238.5,14247.6,4663.5,14238.5,14247.6,1,4663.5,9584.09999999996,0,NA,"Rating Scale","Rating Scale",2,"object-259","BIQ",NA,"MDPRF63569"
"8",1707929793875,"14/02/2024 16:56:33",1707929793875,0,"14/02/2024 16:56:33",163173,5,"questionnaire-uu2n",NA,35148272,10387256,NA,"complete",NA,"65ccef2df33e7edc2ba99fc6","computer","Desktop or Laptop","Mac OS 10.15.7","Chrome 121.0.0.0","1440x900","1440x813",NA,NA,0,"BIQ (Charlotte)",2,"In","BCADLEKFJGIH",NA,"In",2,"Spreadsheet1","Spreadsheet1",1,"BIQ","Screen 2","o21mwi",2,"response","6",8306.6,14238.5,14248.4,8306.6,14238.5,14248.4,1,8306.6,5941.8,0,NA,"Rating Scale","Rating Scale",9,"object-36","BIQ",NA,"MDPRF63569"
"9",1707929793876,"14/02/2024 16:56:33",1707929793876,0,"14/02/2024 16:56:33",163173,5,"questionnaire-uu2n",NA,35148272,10387256,NA,"complete",NA,"65ccef2df33e7edc2ba99fc6","computer","Desktop or Laptop","Mac OS 10.15.7","Chrome 121.0.0.0","1440x900","1440x813",NA,NA,0,"BIQ (Charlotte)",2,"In","BCADLEKFJGIH",NA,"In",2,"Spreadsheet1","Spreadsheet1",1,"BIQ","Screen 2","o21mwi",2,"response","8",12434.2,14238.5,14249.1,12434.2,14238.5,14249.1,1,12434.2,1814.89999999995,0,NA,"Rating Scale","Rating Scale",16,"object-86","BIQ",NA,"MDPRF63569"
"10",1707929811613,"14/02/2024 16:56:51",1707929811613,0,"14/02/2024 16:56:51",163173,5,"questionnaire-uu2n",NA,35148272,10387256,NA,"complete",NA,"65ccef2df33e7edc2ba99fc6","computer","Desktop or Laptop","Mac OS 10.15.7","Chrome 121.0.0.0","1440x900","1440x813",NA,NA,0,"BIQ (Charlotte)",2,"In","BCADLEKFJGIH",NA,"In",2,"Spreadsheet1","Spreadsheet1",1,"BIQ","Screen 3","iz3the",3,"continue","",17747.6,17731.4,17747.6,17747.6,17731.4,17747.6,1,17747.6,0,0,NA,"Click To Continue","Continue Button",22,"object-73","BIQ",NA,"MDPRF63569"
"11",1707929811617,"14/02/2024 16:56:51",1707929811617,0,"14/02/2024 16:56:51",163173,5,"questionnaire-uu2n",NA,35148272,10387256,NA,"complete",NA,"65ccef2df33e7edc2ba99fc6","computer","Desktop or Laptop","Mac OS 10.15.7","Chrome 121.0.0.0","1440x900","1440x813",NA,NA,0,"BIQ (Charlotte)",2,"In","BCADLEKFJGIH",NA,"In",2,"Spreadsheet1","Spreadsheet1",1,"BIQ","Screen 3","iz3the",3,"response","0",9491.6,17731.4,17748.2,9491.6,17731.4,17748.2,1,9491.6,8256.60000000001,0,NA,"Rating Scale","Rating Scale",2,"object-53","BIQ",NA,"MDPRF63569"
"12",1707929811618,"14/02/2024 16:56:51",1707929811618,0,"14/02/2024 16:56:51",163173,5,"questionnaire-uu2n",NA,35148272,10387256,NA,"complete",NA,"65ccef2df33e7edc2ba99fc6","computer","Desktop or Laptop","Mac OS 10.15.7","Chrome 121.0.0.0","1440x900","1440x813",NA,NA,0,"BIQ (Charlotte)",2,"In","BCADLEKFJGIH",NA,"In",2,"Spreadsheet1","Spreadsheet1",1,"BIQ","Screen 3","iz3the",3,"response","2",13937.9,17731.4,17748.2,13937.9,17731.4,17748.2,1,13937.9,3810.3,0,NA,"Rating Scale","Rating Scale",9,"object-60","BIQ",NA,"MDPRF63569"
"13",1707929811619,"14/02/2024 16:56:51",1707929811619,0,"14/02/2024 16:56:51",163173,5,"questionnaire-uu2n",NA,35148272,10387256,NA,"complete",NA,"65ccef2df33e7edc2ba99fc6","computer","Desktop or Laptop","Mac OS 10.15.7","Chrome 121.0.0.0","1440x900","1440x813",NA,NA,0,"BIQ (Charlotte)",2,"In","BCADLEKFJGIH",NA,"In",2,"Spreadsheet1","Spreadsheet1",1,"BIQ","Screen 3","iz3the",3,"response","5",15274.5,17731.4,17748.2,15274.5,17731.4,17748.2,1,15274.5,2473.7,0,NA,"Rating Scale","Rating Scale",16,"object-67","BIQ",NA,"MDPRF63569"
"14",1707929811625,"14/02/2024 16:56:51",1707929811625,0,"14/02/2024 16:56:51",163173,5,"questionnaire-uu2n",NA,35148272,10387256,NA,"complete",NA,"65ccef2df33e7edc2ba99fc6","computer","Desktop or Laptop","Mac OS 10.15.7","Chrome 121.0.0.0","1440x900","1440x813",NA,NA,0,"BIQ (Charlotte)",2,"In","BCADLEKFJGIH",NA,"In",2,"Spreadsheet1","Spreadsheet1",NA,"","","",NA,"5","END",NA,NA,NA,NA,NA,NA,0,NA,NA,NA,NA,"","",NA,"","",NA,"MDPRF63569"
"1",1707930420621,"14/02/2024 17:07:00",1707930420621,0,"14/02/2024 17:07:00",163173,5,"questionnaire-uu2n",NA,35149205,10387326,NA,"complete",NA,"65ccf0a22a3ceca2b3cf1375","computer","Desktop or Laptop","Windows 10","Chrome 121.0.0.0","1536x864","1536x703",NA,NA,0,"BIQ (Charlotte)",2,"In","CDBEAFLGKHJI",NA,"In",4,"Spreadsheet1","Spreadsheet1",NA,"","","",NA,"5","BEGIN",NA,NA,NA,NA,NA,NA,0,NA,NA,NA,NA,"","",NA,"","",NA,"MDPRF73191"
"2",1707930455034,"14/02/2024 17:07:35",1707930455034,0,"14/02/2024 17:07:35",163173,5,"questionnaire-uu2n",NA,35149205,10387326,NA,"complete",NA,"65ccf0a22a3ceca2b3cf1375","computer","Desktop or Laptop","Windows 10","Chrome 121.0.0.0","1536x864","1536x703",NA,NA,0,"BIQ (Charlotte)",2,"In","CDBEAFLGKHJI",NA,"In",4,"Spreadsheet1","Spreadsheet1",1,"BIQ","Screen 1","9dh6eq",1,"continue","",34430.4019999993,34421.502,34430.4019999993,34430.4019999993,34421.502,34430.4019999993,1,34430.4019999993,0,0,NA,"Click To Continue","Continue Button",23,"object-48","BIQ",NA,"MDPRF73191"
"3",1707930455038,"14/02/2024 17:07:35",1707930455038,0,"14/02/2024 17:07:35",163173,5,"questionnaire-uu2n",NA,35149205,10387326,NA,"complete",NA,"65ccf0a22a3ceca2b3cf1375","computer","Desktop or Laptop","Windows 10","Chrome 121.0.0.0","1536x864","1536x703",NA,NA,0,"BIQ (Charlotte)",2,"In","CDBEAFLGKHJI",NA,"In",4,"Spreadsheet1","Spreadsheet1",1,"BIQ","Screen 1","9dh6eq",1,"response","6",21792.502,34421.502,34438.202,21792.502,34421.502,34438.202,1,21792.502,12645.7,0,NA,"Rating Scale","Rating Scale",3,"object-5","BIQ",NA,"MDPRF73191"
"4",1707930455039,"14/02/2024 17:07:35",1707930455039,0,"14/02/2024 17:07:35",163173,5,"questionnaire-uu2n",NA,35149205,10387326,NA,"complete",NA,"65ccf0a22a3ceca2b3cf1375","computer","Desktop or Laptop","Windows 10","Chrome 121.0.0.0","1536x864","1536x703",NA,NA,0,"BIQ (Charlotte)",2,"In","CDBEAFLGKHJI",NA,"In",4,"Spreadsheet1","Spreadsheet1",1,"BIQ","Screen 1","9dh6eq",1,"response","4",29056.602,34421.502,34438.202,29056.602,34421.502,34438.202,1,29056.602,5381.6,0,NA,"Rating Scale","Rating Scale",10,"object-18","BIQ",NA,"MDPRF73191"
"5",1707930455040,"14/02/2024 17:07:35",1707930455040,0,"14/02/2024 17:07:35",163173,5,"questionnaire-uu2n",NA,35149205,10387326,NA,"complete",NA,"65ccf0a22a3ceca2b3cf1375","computer","Desktop or Laptop","Windows 10","Chrome 121.0.0.0","1536x864","1536x703",NA,NA,0,"BIQ (Charlotte)",2,"In","CDBEAFLGKHJI",NA,"In",4,"Spreadsheet1","Spreadsheet1",1,"BIQ","Screen 1","9dh6eq",1,"response","6",33838.502,34421.502,34438.202,33838.502,34421.502,34438.202,1,33838.502,599.700000000004,0,NA,"Rating Scale","Rating Scale",17,"object-80","BIQ",NA,"MDPRF73191"
"6",1707930513768,"14/02/2024 17:08:33",1707930513768,0,"14/02/2024 17:08:33",163173,5,"questionnaire-uu2n",NA,35149205,10387326,NA,"complete",NA,"65ccf0a22a3ceca2b3cf1375","computer","Desktop or Laptop","Windows 10","Chrome 121.0.0.0","1536x864","1536x703",NA,NA,0,"BIQ (Charlotte)",2,"In","CDBEAFLGKHJI",NA,"In",4,"Spreadsheet1","Spreadsheet1",1,"BIQ","Screen 2","o21mwi",2,"continue","",58746.8,58730.1,58746.8,58746.8,58730.1,58746.8,1,58746.8,0,0,NA,"Click To Continue","Continue Button",22,"object-50","BIQ",NA,"MDPRF73191"
"7",1707930513773,"14/02/2024 17:08:33",1707930513773,0,"14/02/2024 17:08:33",163173,5,"questionnaire-uu2n",NA,35149205,10387326,NA,"complete",NA,"65ccf0a22a3ceca2b3cf1375","computer","Desktop or Laptop","Windows 10","Chrome 121.0.0.0","1536x864","1536x703",NA,NA,0,"BIQ (Charlotte)",2,"In","CDBEAFLGKHJI",NA,"In",4,"Spreadsheet1","Spreadsheet1",1,"BIQ","Screen 2","o21mwi",2,"response","4",49666.5,58730.1,58746.8,49666.5,58730.1,58746.8,1,49666.5,9080.29999999999,0,NA,"Rating Scale","Rating Scale",2,"object-259","BIQ",NA,"MDPRF73191"
"8",1707930513774,"14/02/2024 17:08:33",1707930513774,0,"14/02/2024 17:08:33",163173,5,"questionnaire-uu2n",NA,35149205,10387326,NA,"complete",NA,"65ccf0a22a3ceca2b3cf1375","computer","Desktop or Laptop","Windows 10","Chrome 121.0.0.0","1536x864","1536x703",NA,NA,0,"BIQ (Charlotte)",2,"In","CDBEAFLGKHJI",NA,"In",4,"Spreadsheet1","Spreadsheet1",1,"BIQ","Screen 2","o21mwi",2,"response","2",52648.8,58730.1,58746.8,52648.8,58730.1,58746.8,1,52648.8,6097.99999999999,0,NA,"Rating Scale","Rating Scale",9,"object-36","BIQ",NA,"MDPRF73191"
"9",1707930513777,"14/02/2024 17:08:33",1707930513777,0,"14/02/2024 17:08:33",163173,5,"questionnaire-uu2n",NA,35149205,10387326,NA,"complete",NA,"65ccf0a22a3ceca2b3cf1375","computer","Desktop or Laptop","Windows 10","Chrome 121.0.0.0","1536x864","1536x703",NA,NA,0,"BIQ (Charlotte)",2,"In","CDBEAFLGKHJI",NA,"In",4,"Spreadsheet1","Spreadsheet1",1,"BIQ","Screen 2","o21mwi",2,"response","0",57697.1,58730.1,58746.8,57697.1,58730.1,58746.8,1,57697.1,1049.7,0,NA,"Rating Scale","Rating Scale",16,"object-86","BIQ",NA,"MDPRF73191"
"10",1707930524655,"14/02/2024 17:08:44",1707930524655,0,"14/02/2024 17:08:44",163173,5,"questionnaire-uu2n",NA,35149205,10387326,NA,"complete",NA,"65ccf0a22a3ceca2b3cf1375","computer","Desktop or Laptop","Windows 10","Chrome 121.0.0.0","1536x864","1536x703",NA,NA,0,"BIQ (Charlotte)",2,"In","CDBEAFLGKHJI",NA,"In",4,"Spreadsheet1","Spreadsheet1",1,"BIQ","Screen 3","iz3the",3,"continue","",10906.4000000008,10896.2,10906.4000000008,10906.4000000008,10896.2,10906.4000000008,1,10906.4000000008,0,0,NA,"Click To Continue","Continue Button",22,"object-73","BIQ",NA,"MDPRF73191"
"11",1707930524660,"14/02/2024 17:08:44",1707930524660,0,"14/02/2024 17:08:44",163173,5,"questionnaire-uu2n",NA,35149205,10387326,NA,"complete",NA,"65ccf0a22a3ceca2b3cf1375","computer","Desktop or Laptop","Windows 10","Chrome 121.0.0.0","1536x864","1536x703",NA,NA,0,"BIQ (Charlotte)",2,"In","CDBEAFLGKHJI",NA,"In",4,"Spreadsheet1","Spreadsheet1",1,"BIQ","Screen 3","iz3the",3,"response","4",4998.40000000001,10896.2,10911.4000000008,4998.40000000001,10896.2,10911.4000000008,1,4998.40000000001,5913.00000000074,0,NA,"Rating Scale","Rating Scale",2,"object-53","BIQ",NA,"MDPRF73191"
"12",1707930524662,"14/02/2024 17:08:44",1707930524662,0,"14/02/2024 17:08:44",163173,5,"questionnaire-uu2n",NA,35149205,10387326,NA,"complete",NA,"65ccf0a22a3ceca2b3cf1375","computer","Desktop or Laptop","Windows 10","Chrome 121.0.0.0","1536x864","1536x703",NA,NA,0,"BIQ (Charlotte)",2,"In","CDBEAFLGKHJI",NA,"In",4,"Spreadsheet1","Spreadsheet1",1,"BIQ","Screen 3","iz3the",3,"response","4",8813.70000000001,10896.2,10912.6999999978,8813.70000000001,10896.2,10912.6999999978,1,8813.70000000001,2098.99999999776,0,NA,"Rating Scale","Rating Scale",9,"object-60","BIQ",NA,"MDPRF73191"
"13",1707930524664,"14/02/2024 17:08:44",1707930524664,0,"14/02/2024 17:08:44",163173,5,"questionnaire-uu2n",NA,35149205,10387326,NA,"complete",NA,"65ccf0a22a3ceca2b3cf1375","computer","Desktop or Laptop","Windows 10","Chrome 121.0.0.0","1536x864","1536x703",NA,NA,0,"BIQ (Charlotte)",2,"In","CDBEAFLGKHJI",NA,"In",4,"Spreadsheet1","Spreadsheet1",1,"BIQ","Screen 3","iz3the",3,"response","4",10396.5,10896.2,10912.9,10396.5,10896.2,10912.9,1,10396.5,516.400000000023,0,NA,"Rating Scale","Rating Scale",16,"object-67","BIQ",NA,"MDPRF73191"
"14",1707930524674,"14/02/2024 17:08:44",1707930524674,0,"14/02/2024 17:08:44",163173,5,"questionnaire-uu2n",NA,35149205,10387326,NA,"complete",NA,"65ccf0a22a3ceca2b3cf1375","computer","Desktop or Laptop","Windows 10","Chrome 121.0.0.0","1536x864","1536x703",NA,NA,0,"BIQ (Charlotte)",2,"In","CDBEAFLGKHJI",NA,"In",4,"Spreadsheet1","Spreadsheet1",NA,"","","",NA,"5","END",NA,NA,NA,NA,NA,NA,0,NA,NA,NA,NA,"","",NA,"","",NA,"MDPRF73191"
"1",1707930150182,"14/02/2024 17:02:30",1707930150182,0,"14/02/2024 17:02:30",163173,5,"questionnaire-uu2n",NA,35148829,10387373,NA,"complete",NA,"65ccf14d7ceb9cd7d4dfa1ae","computer","Desktop or Laptop","Chromium OS 14816.131.0","Chrome 103.0.0.0","1536x864","1536x714",NA,NA,0,"BIQ (Charlotte)",2,"In","EFDGCHBIAJLK",NA,"In",1,"Spreadsheet1","Spreadsheet1",NA,"","","",NA,"5","BEGIN",NA,NA,NA,NA,NA,NA,0,NA,NA,NA,NA,"","",NA,"","",NA,"MDPRF79833"
"2",1707930177140,"14/02/2024 17:02:57",1707930177140,0,"14/02/2024 17:02:57",163173,5,"questionnaire-uu2n",NA,35148829,10387373,NA,"complete",NA,"65ccf14d7ceb9cd7d4dfa1ae","computer","Desktop or Laptop","Chromium OS 14816.131.0","Chrome 103.0.0.0","1536x864","1536x714",NA,NA,0,"BIQ (Charlotte)",2,"In","EFDGCHBIAJLK",NA,"In",1,"Spreadsheet1","Spreadsheet1",1,"BIQ","Screen 1","9dh6eq",1,"continue","",26979.858,26963.194,26979.858,26979.858,26963.194,26979.858,1,26979.858,0,0,NA,"Click To Continue","Continue Button",23,"object-48","BIQ",NA,"MDPRF79833"
"3",1707930177150,"14/02/2024 17:02:57",1707930177150,0,"14/02/2024 17:02:57",163173,5,"questionnaire-uu2n",NA,35148829,10387373,NA,"complete",NA,"65ccf14d7ceb9cd7d4dfa1ae","computer","Desktop or Laptop","Chromium OS 14816.131.0","Chrome 103.0.0.0","1536x864","1536x714",NA,NA,0,"BIQ (Charlotte)",2,"In","EFDGCHBIAJLK",NA,"In",1,"Spreadsheet1","Spreadsheet1",1,"BIQ","Screen 1","9dh6eq",1,"response","2",9532.027,26963.194,26979.858,9532.027,26963.194,26979.858,1,9532.027,17447.831,0,NA,"Rating Scale","Rating Scale",3,"object-5","BIQ",NA,"MDPRF79833"
"4",1707930177151,"14/02/2024 17:02:57",1707930177151,0,"14/02/2024 17:02:57",163173,5,"questionnaire-uu2n",NA,35148829,10387373,NA,"complete",NA,"65ccf14d7ceb9cd7d4dfa1ae","computer","Desktop or Laptop","Chromium OS 14816.131.0","Chrome 103.0.0.0","1536x864","1536x714",NA,NA,0,"BIQ (Charlotte)",2,"In","EFDGCHBIAJLK",NA,"In",1,"Spreadsheet1","Spreadsheet1",1,"BIQ","Screen 1","9dh6eq",1,"response","6",19697.41,26963.194,26979.858,19697.41,26963.194,26979.858,1,19697.41,7282.448,0,NA,"Rating Scale","Rating Scale",10,"object-18","BIQ",NA,"MDPRF79833"
"5",1707930177153,"14/02/2024 17:02:57",1707930177153,0,"14/02/2024 17:02:57",163173,5,"questionnaire-uu2n",NA,35148829,10387373,NA,"complete",NA,"65ccf14d7ceb9cd7d4dfa1ae","computer","Desktop or Laptop","Chromium OS 14816.131.0","Chrome 103.0.0.0","1536x864","1536x714",NA,NA,0,"BIQ (Charlotte)",2,"In","EFDGCHBIAJLK",NA,"In",1,"Spreadsheet1","Spreadsheet1",1,"BIQ","Screen 1","9dh6eq",1,"response","2",25730.021,26963.194,26979.858,25730.021,26963.194,26979.858,1,25730.021,1249.837,0,NA,"Rating Scale","Rating Scale",17,"object-80","BIQ",NA,"MDPRF79833"
"6",1707930215468,"14/02/2024 17:03:35",1707930215468,0,"14/02/2024 17:03:35",163173,5,"questionnaire-uu2n",NA,35148829,10387373,NA,"complete",NA,"65ccf14d7ceb9cd7d4dfa1ae","computer","Desktop or Laptop","Chromium OS 14816.131.0","Chrome 103.0.0.0","1536x864","1536x714",NA,NA,0,"BIQ (Charlotte)",2,"In","EFDGCHBIAJLK",NA,"In",1,"Spreadsheet1","Spreadsheet1",1,"BIQ","Screen 2","o21mwi",2,"continue","",38356.273999997,38345.088,38356.273999997,38356.273999997,38345.088,38356.273999997,1,38356.273999997,0,0,NA,"Click To Continue","Continue Button",22,"object-50","BIQ",NA,"MDPRF79833"
"7",1707930215477,"14/02/2024 17:03:35",1707930215477,0,"14/02/2024 17:03:35",163173,5,"questionnaire-uu2n",NA,35148829,10387373,NA,"complete",NA,"65ccf14d7ceb9cd7d4dfa1ae","computer","Desktop or Laptop","Chromium OS 14816.131.0","Chrome 103.0.0.0","1536x864","1536x714",NA,NA,0,"BIQ (Charlotte)",2,"In","EFDGCHBIAJLK",NA,"In",1,"Spreadsheet1","Spreadsheet1",1,"BIQ","Screen 2","o21mwi",2,"response","6",9048.84,38345.088,38361.752,9048.84,38345.088,38361.752,1,9048.84,29312.912,0,NA,"Rating Scale","Rating Scale",2,"object-259","BIQ",NA,"MDPRF79833"
"8",1707930215479,"14/02/2024 17:03:35",1707930215479,0,"14/02/2024 17:03:35",163173,5,"questionnaire-uu2n",NA,35148829,10387373,NA,"complete",NA,"65ccf14d7ceb9cd7d4dfa1ae","computer","Desktop or Laptop","Chromium OS 14816.131.0","Chrome 103.0.0.0","1536x864","1536x714",NA,NA,0,"BIQ (Charlotte)",2,"In","EFDGCHBIAJLK",NA,"In",1,"Spreadsheet1","Spreadsheet1",1,"BIQ","Screen 2","o21mwi",2,"response","6",26346.627,38345.088,38361.752,26346.627,38345.088,38361.752,1,26346.627,12015.125,0,NA,"Rating Scale","Rating Scale",9,"object-36","BIQ",NA,"MDPRF79833"
"9",1707930215486,"14/02/2024 17:03:35",1707930215486,0,"14/02/2024 17:03:35",163173,5,"questionnaire-uu2n",NA,35148829,10387373,NA,"complete",NA,"65ccf14d7ceb9cd7d4dfa1ae","computer","Desktop or Laptop","Chromium OS 14816.131.0","Chrome 103.0.0.0","1536x864","1536x714",NA,NA,0,"BIQ (Charlotte)",2,"In","EFDGCHBIAJLK",NA,"In",1,"Spreadsheet1","Spreadsheet1",1,"BIQ","Screen 2","o21mwi",2,"response","3",36845.267,38345.088,38361.752,36845.267,38345.088,38361.752,1,36845.267,1516.485,0,NA,"Rating Scale","Rating Scale",16,"object-86","BIQ",NA,"MDPRF79833"
"10",1707930228821,"14/02/2024 17:03:48",1707930228821,0,"14/02/2024 17:03:48",163173,5,"questionnaire-uu2n",NA,35148829,10387373,NA,"complete",NA,"65ccf14d7ceb9cd7d4dfa1ae","computer","Desktop or Laptop","Chromium OS 14816.131.0","Chrome 103.0.0.0","1536x864","1536x714",NA,NA,0,"BIQ (Charlotte)",2,"In","EFDGCHBIAJLK",NA,"In",1,"Spreadsheet1","Spreadsheet1",1,"BIQ","Screen 3","iz3the",3,"continue","",13364.286000006,13348.289,13364.286000006,13364.286000006,13348.289,13364.286000006,1,13364.286000006,0,0,NA,"Click To Continue","Continue Button",22,"object-73","BIQ",NA,"MDPRF79833"
"11",1707930228833,"14/02/2024 17:03:48",1707930228833,0,"14/02/2024 17:03:48",163173,5,"questionnaire-uu2n",NA,35148829,10387373,NA,"complete",NA,"65ccf14d7ceb9cd7d4dfa1ae","computer","Desktop or Laptop","Chromium OS 14816.131.0","Chrome 103.0.0.0","1536x864","1536x714",NA,NA,0,"BIQ (Charlotte)",2,"In","EFDGCHBIAJLK",NA,"In",1,"Spreadsheet1","Spreadsheet1",1,"BIQ","Screen 3","iz3the",3,"response","1",7782.336,13348.289,13364.953,7782.336,13348.289,13364.953,1,7782.336,5582.61700000001,0,NA,"Rating Scale","Rating Scale",2,"object-53","BIQ",NA,"MDPRF79833"
"12",1707930228835,"14/02/2024 17:03:48",1707930228835,0,"14/02/2024 17:03:48",163173,5,"questionnaire-uu2n",NA,35148829,10387373,NA,"complete",NA,"65ccf14d7ceb9cd7d4dfa1ae","computer","Desktop or Laptop","Chromium OS 14816.131.0","Chrome 103.0.0.0","1536x864","1536x714",NA,NA,0,"BIQ (Charlotte)",2,"In","EFDGCHBIAJLK",NA,"In",1,"Spreadsheet1","Spreadsheet1",1,"BIQ","Screen 3","iz3the",3,"response","1",10498.662,13348.289,13364.953,10498.662,13348.289,13364.953,1,10498.662,2866.29100000001,0,NA,"Rating Scale","Rating Scale",9,"object-60","BIQ",NA,"MDPRF79833"
"13",1707930228837,"14/02/2024 17:03:48",1707930228837,0,"14/02/2024 17:03:48",163173,5,"questionnaire-uu2n",NA,35148829,10387373,NA,"complete",NA,"65ccf14d7ceb9cd7d4dfa1ae","computer","Desktop or Laptop","Chromium OS 14816.131.0","Chrome 103.0.0.0","1536x864","1536x714",NA,NA,0,"BIQ (Charlotte)",2,"In","EFDGCHBIAJLK",NA,"In",1,"Spreadsheet1","Spreadsheet1",1,"BIQ","Screen 3","iz3the",3,"response","6",12465.061,13348.289,13364.953,12465.061,13348.289,13364.953,1,12465.061,899.892000000007,0,NA,"Rating Scale","Rating Scale",16,"object-67","BIQ",NA,"MDPRF79833"
"14",1707930228850,"14/02/2024 17:03:48",1707930228850,0,"14/02/2024 17:03:48",163173,5,"questionnaire-uu2n",NA,35148829,10387373,NA,"complete",NA,"65ccf14d7ceb9cd7d4dfa1ae","computer","Desktop or Laptop","Chromium OS 14816.131.0","Chrome 103.0.0.0","1536x864","1536x714",NA,NA,0,"BIQ (Charlotte)",2,"In","EFDGCHBIAJLK",NA,"In",1,"Spreadsheet1","Spreadsheet1",NA,"","","",NA,"5","END",NA,NA,NA,NA,NA,NA,0,NA,NA,NA,NA,"","",NA,"","",NA,"MDPRF79833"
"1",1707930188878,"14/02/2024 17:03:08",1707930188878,0,"14/02/2024 17:03:08",163173,5,"questionnaire-uu2n",NA,35148884,10387416,NA,"complete",NA,"65ccf21a22345f20629be59e","computer","Desktop or Laptop","Mac OS 10.15.7","Chrome 120.0.0.0","1470x956","1470x765",NA,NA,0,"BIQ (Charlotte)",2,"In","FGEHDICJBKAL",NA,"In",4,"Spreadsheet1","Spreadsheet1",NA,"","","",NA,"5","BEGIN",NA,NA,NA,NA,NA,NA,0,NA,NA,NA,NA,"","",NA,"","",NA,"MDPRF99152"
"2",1707930216562,"14/02/2024 17:03:36",1707930216562,0,"14/02/2024 17:03:36",163173,5,"questionnaire-uu2n",NA,35148884,10387416,NA,"complete",NA,"65ccf21a22345f20629be59e","computer","Desktop or Laptop","Mac OS 10.15.7","Chrome 120.0.0.0","1470x956","1470x765",NA,NA,0,"BIQ (Charlotte)",2,"In","FGEHDICJBKAL",NA,"In",4,"Spreadsheet1","Spreadsheet1",1,"BIQ","Screen 1","9dh6eq",1,"continue","",27692.4000000477,27683.1,27692.4000000477,27692.4000000477,27683.1,27692.4000000477,1,27692.4000000477,0,0,NA,"Click To Continue","Continue Button",23,"object-48","BIQ",NA,"MDPRF99152"
"3",1707930216565,"14/02/2024 17:03:36",1707930216565,0,"14/02/2024 17:03:36",163173,5,"questionnaire-uu2n",NA,35148884,10387416,NA,"complete",NA,"65ccf21a22345f20629be59e","computer","Desktop or Laptop","Mac OS 10.15.7","Chrome 120.0.0.0","1470x956","1470x765",NA,NA,0,"BIQ (Charlotte)",2,"In","FGEHDICJBKAL",NA,"In",4,"Spreadsheet1","Spreadsheet1",1,"BIQ","Screen 1","9dh6eq",1,"response","4",15933.1,27683.1,27699.8,15933.1,27683.1,27699.8,1,15933.1,11766.7,0,NA,"Rating Scale","Rating Scale",3,"object-5","BIQ",NA,"MDPRF99152"
"4",1707930216565,"14/02/2024 17:03:36",1707930216565,0,"14/02/2024 17:03:36",163173,5,"questionnaire-uu2n",NA,35148884,10387416,NA,"complete",NA,"65ccf21a22345f20629be59e","computer","Desktop or Laptop","Mac OS 10.15.7","Chrome 120.0.0.0","1470x956","1470x765",NA,NA,0,"BIQ (Charlotte)",2,"In","FGEHDICJBKAL",NA,"In",4,"Spreadsheet1","Spreadsheet1",1,"BIQ","Screen 1","9dh6eq",1,"response","6",21216.5,27683.1,27699.8,21216.5,27683.1,27699.8,1,21216.5,6483.3,0,NA,"Rating Scale","Rating Scale",10,"object-18","BIQ",NA,"MDPRF99152"
"5",1707930216565,"14/02/2024 17:03:36",1707930216565,0,"14/02/2024 17:03:36",163173,5,"questionnaire-uu2n",NA,35148884,10387416,NA,"complete",NA,"65ccf21a22345f20629be59e","computer","Desktop or Laptop","Mac OS 10.15.7","Chrome 120.0.0.0","1470x956","1470x765",NA,NA,0,"BIQ (Charlotte)",2,"In","FGEHDICJBKAL",NA,"In",4,"Spreadsheet1","Spreadsheet1",1,"BIQ","Screen 1","9dh6eq",1,"response","5",27016.2,27683.1,27699.8,27016.2,27683.1,27699.8,1,27016.2,683.600000000002,0,NA,"Rating Scale","Rating Scale",17,"object-80","BIQ",NA,"MDPRF99152"
"6",1707930240060,"14/02/2024 17:04:00",1707930240060,0,"14/02/2024 17:04:00",163173,5,"questionnaire-uu2n",NA,35148884,10387416,NA,"complete",NA,"65ccf21a22345f20629be59e","computer","Desktop or Laptop","Mac OS 10.15.7","Chrome 120.0.0.0","1470x956","1470x765",NA,NA,0,"BIQ (Charlotte)",2,"In","FGEHDICJBKAL",NA,"In",4,"Spreadsheet1","Spreadsheet1",1,"BIQ","Screen 2","o21mwi",2,"continue","",23512.4000000715,23499.6,23512.4000000715,23512.4000000715,23499.6,23512.4000000715,1,23512.4000000715,0,0,NA,"Click To Continue","Continue Button",22,"object-50","BIQ",NA,"MDPRF99152"
"7",1707930240063,"14/02/2024 17:04:00",1707930240063,0,"14/02/2024 17:04:00",163173,5,"questionnaire-uu2n",NA,35148884,10387416,NA,"complete",NA,"65ccf21a22345f20629be59e","computer","Desktop or Laptop","Mac OS 10.15.7","Chrome 120.0.0.0","1470x956","1470x765",NA,NA,0,"BIQ (Charlotte)",2,"In","FGEHDICJBKAL",NA,"In",4,"Spreadsheet1","Spreadsheet1",1,"BIQ","Screen 2","o21mwi",2,"response","6",9216.3,23499.6,23515.7000000238,9216.3,23499.6,23515.7000000238,1,9216.3,14299.4000000238,0,NA,"Rating Scale","Rating Scale",2,"object-259","BIQ",NA,"MDPRF99152"
"8",1707930240064,"14/02/2024 17:04:00",1707930240064,0,"14/02/2024 17:04:00",163173,5,"questionnaire-uu2n",NA,35148884,10387416,NA,"complete",NA,"65ccf21a22345f20629be59e","computer","Desktop or Laptop","Mac OS 10.15.7","Chrome 120.0.0.0","1470x956","1470x765",NA,NA,0,"BIQ (Charlotte)",2,"In","FGEHDICJBKAL",NA,"In",4,"Spreadsheet1","Spreadsheet1",1,"BIQ","Screen 2","o21mwi",2,"response","5",16516.3,23499.6,23516.3,16516.3,23499.6,23516.3,1,16516.3,7000,0,NA,"Rating Scale","Rating Scale",9,"object-36","BIQ",NA,"MDPRF99152"
"9",1707930240064,"14/02/2024 17:04:00",1707930240064,0,"14/02/2024 17:04:00",163173,5,"questionnaire-uu2n",NA,35148884,10387416,NA,"complete",NA,"65ccf21a22345f20629be59e","computer","Desktop or Laptop","Mac OS 10.15.7","Chrome 120.0.0.0","1470x956","1470x765",NA,NA,0,"BIQ (Charlotte)",2,"In","FGEHDICJBKAL",NA,"In",4,"Spreadsheet1","Spreadsheet1",1,"BIQ","Screen 2","o21mwi",2,"response","0",22333,23499.6,23516.3,22333,23499.6,23516.3,1,22333,1183.3,0,NA,"Rating Scale","Rating Scale",16,"object-86","BIQ",NA,"MDPRF99152"
"10",1707930254546,"14/02/2024 17:04:14",1707930254546,0,"14/02/2024 17:04:14",163173,5,"questionnaire-uu2n",NA,35148884,10387416,NA,"complete",NA,"65ccf21a22345f20629be59e","computer","Desktop or Laptop","Mac OS 10.15.7","Chrome 120.0.0.0","1470x956","1470x765",NA,NA,0,"BIQ (Charlotte)",2,"In","FGEHDICJBKAL",NA,"In",4,"Spreadsheet1","Spreadsheet1",1,"BIQ","Screen 3","iz3the",3,"continue","",14498,14483,14498,14498,14483,14498,1,14498,0,0,NA,"Click To Continue","Continue Button",22,"object-73","BIQ",NA,"MDPRF99152"
"11",1707930254549,"14/02/2024 17:04:14",1707930254549,0,"14/02/2024 17:04:14",163173,5,"questionnaire-uu2n",NA,35148884,10387416,NA,"complete",NA,"65ccf21a22345f20629be59e","computer","Desktop or Laptop","Mac OS 10.15.7","Chrome 120.0.0.0","1470x956","1470x765",NA,NA,0,"BIQ (Charlotte)",2,"In","FGEHDICJBKAL",NA,"In",4,"Spreadsheet1","Spreadsheet1",1,"BIQ","Screen 3","iz3the",3,"response","2",8550,14483,14499.6,8550,14483,14499.6,1,8550,5949.60000000001,0,NA,"Rating Scale","Rating Scale",2,"object-53","BIQ",NA,"MDPRF99152"
"12",1707930254549,"14/02/2024 17:04:14",1707930254549,0,"14/02/2024 17:04:14",163173,5,"questionnaire-uu2n",NA,35148884,10387416,NA,"complete",NA,"65ccf21a22345f20629be59e","computer","Desktop or Laptop","Mac OS 10.15.7","Chrome 120.0.0.0","1470x956","1470x765",NA,NA,0,"BIQ (Charlotte)",2,"In","FGEHDICJBKAL",NA,"In",4,"Spreadsheet1","Spreadsheet1",1,"BIQ","Screen 3","iz3the",3,"response","3",10783.3,14483,14499.6,10783.3,14483,14499.6,1,10783.3,3716.3,0,NA,"Rating Scale","Rating Scale",9,"object-60","BIQ",NA,"MDPRF99152"
"13",1707930254550,"14/02/2024 17:04:14",1707930254550,0,"14/02/2024 17:04:14",163173,5,"questionnaire-uu2n",NA,35148884,10387416,NA,"complete",NA,"65ccf21a22345f20629be59e","computer","Desktop or Laptop","Mac OS 10.15.7","Chrome 120.0.0.0","1470x956","1470x765",NA,NA,0,"BIQ (Charlotte)",2,"In","FGEHDICJBKAL",NA,"In",4,"Spreadsheet1","Spreadsheet1",1,"BIQ","Screen 3","iz3the",3,"response","3",13483.1,14483,14499.6,13483.1,14483,14499.6,1,13483.1,1016.5,0,NA,"Rating Scale","Rating Scale",16,"object-67","BIQ",NA,"MDPRF99152"
"14",1707930254554,"14/02/2024 17:04:14",1707930254554,0,"14/02/2024 17:04:14",163173,5,"questionnaire-uu2n",NA,35148884,10387416,NA,"complete",NA,"65ccf21a22345f20629be59e","computer","Desktop or Laptop","Mac OS 10.15.7","Chrome 120.0.0.0","1470x956","1470x765",NA,NA,0,"BIQ (Charlotte)",2,"In","FGEHDICJBKAL",NA,"In",4,"Spreadsheet1","Spreadsheet1",NA,"","","",NA,"5","END",NA,NA,NA,NA,NA,NA,0,NA,NA,NA,NA,"","",NA,"","",NA,"MDPRF99152"
"1",1707930339024,"14/02/2024 17:05:39",1707930339024,0,"14/02/2024 17:05:39",163173,5,"questionnaire-uu2n",NA,35149096,10387405,NA,"complete",NA,"65ccf1d0bc4382242747e329","computer","Desktop or Laptop","Windows 10","Chrome 121.0.0.0","1366x768","1366x641",NA,NA,0,"BIQ (Charlotte)",2,"In","GHFIEJDKCLBA",NA,"In",1,"Spreadsheet1","Spreadsheet1",NA,"","","",NA,"5","BEGIN",NA,NA,NA,NA,NA,NA,0,NA,NA,NA,NA,"","",NA,"","",NA,"MDPRF47263"
"2",1707930376934,"14/02/2024 17:06:16",1707930376934,0,"14/02/2024 17:06:16",163173,5,"questionnaire-uu2n",NA,35149096,10387405,NA,"complete",NA,"65ccf1d0bc4382242747e329","computer","Desktop or Laptop","Windows 10","Chrome 121.0.0.0","1366x768","1366x641",NA,NA,0,"BIQ (Charlotte)",2,"In","GHFIEJDKCLBA",NA,"In",1,"Spreadsheet1","Spreadsheet1",1,"BIQ","Screen 1","9dh6eq",1,"continue","",37928.202,37911.602,37928.202,37928.202,37911.602,37928.202,1,37928.202,0,0,NA,"Click To Continue","Continue Button",23,"object-48","BIQ",NA,"MDPRF47263"
"3",1707930376939,"14/02/2024 17:06:16",1707930376939,0,"14/02/2024 17:06:16",163173,5,"questionnaire-uu2n",NA,35149096,10387405,NA,"complete",NA,"65ccf1d0bc4382242747e329","computer","Desktop or Laptop","Windows 10","Chrome 121.0.0.0","1366x768","1366x641",NA,NA,0,"BIQ (Charlotte)",2,"In","GHFIEJDKCLBA",NA,"In",1,"Spreadsheet1","Spreadsheet1",1,"BIQ","Screen 1","9dh6eq",1,"response","4",27186.302,37911.602,37928.202,27186.302,37911.602,37928.202,1,27186.302,10741.9,0,NA,"Rating Scale","Rating Scale",3,"object-5","BIQ",NA,"MDPRF47263"
"4",1707930376940,"14/02/2024 17:06:16",1707930376940,0,"14/02/2024 17:06:16",163173,5,"questionnaire-uu2n",NA,35149096,10387405,NA,"complete",NA,"65ccf1d0bc4382242747e329","computer","Desktop or Laptop","Windows 10","Chrome 121.0.0.0","1366x768","1366x641",NA,NA,0,"BIQ (Charlotte)",2,"In","GHFIEJDKCLBA",NA,"In",1,"Spreadsheet1","Spreadsheet1",1,"BIQ","Screen 1","9dh6eq",1,"response","2",33022.902,37911.602,37928.202,33022.902,37911.602,37928.202,1,33022.902,4905.30000000001,0,NA,"Rating Scale","Rating Scale",10,"object-18","BIQ",NA,"MDPRF47263"
"5",1707930376941,"14/02/2024 17:06:16",1707930376941,0,"14/02/2024 17:06:16",163173,5,"questionnaire-uu2n",NA,35149096,10387405,NA,"complete",NA,"65ccf1d0bc4382242747e329","computer","Desktop or Laptop","Windows 10","Chrome 121.0.0.0","1366x768","1366x641",NA,NA,0,"BIQ (Charlotte)",2,"In","GHFIEJDKCLBA",NA,"In",1,"Spreadsheet1","Spreadsheet1",1,"BIQ","Screen 1","9dh6eq",1,"response","6",36980.502,37911.602,37928.202,36980.502,37911.602,37928.202,1,36980.502,947.700000000012,0,NA,"Rating Scale","Rating Scale",17,"object-80","BIQ",NA,"MDPRF47263"
"6",1707930393157,"14/02/2024 17:06:33",1707930393157,0,"14/02/2024 17:06:33",163173,5,"questionnaire-uu2n",NA,35149096,10387405,NA,"complete",NA,"65ccf1d0bc4382242747e329","computer","Desktop or Laptop","Windows 10","Chrome 121.0.0.0","1366x768","1366x641",NA,NA,0,"BIQ (Charlotte)",2,"In","GHFIEJDKCLBA",NA,"In",1,"Spreadsheet1","Spreadsheet1",1,"BIQ","Screen 2","o21mwi",2,"continue","",16261.5000000007,16245.9,16261.5000000007,16261.5000000007,16245.9,16261.5000000007,1,16261.5000000007,0,0,NA,"Click To Continue","Continue Button",22,"object-50","BIQ",NA,"MDPRF47263"
"7",1707930393166,"14/02/2024 17:06:33",1707930393166,0,"14/02/2024 17:06:33",163173,5,"questionnaire-uu2n",NA,35149096,10387405,NA,"complete",NA,"65ccf1d0bc4382242747e329","computer","Desktop or Laptop","Windows 10","Chrome 121.0.0.0","1366x768","1366x641",NA,NA,0,"BIQ (Charlotte)",2,"In","GHFIEJDKCLBA",NA,"In",1,"Spreadsheet1","Spreadsheet1",1,"BIQ","Screen 2","o21mwi",2,"response","4",4772.3,16245.9,16262.4,4772.3,16245.9,16262.4,1,4772.3,11490.1,0,NA,"Rating Scale","Rating Scale",2,"object-259","BIQ",NA,"MDPRF47263"
"8",1707930393168,"14/02/2024 17:06:33",1707930393168,0,"14/02/2024 17:06:33",163173,5,"questionnaire-uu2n",NA,35149096,10387405,NA,"complete",NA,"65ccf1d0bc4382242747e329","computer","Desktop or Laptop","Windows 10","Chrome 121.0.0.0","1366x768","1366x641",NA,NA,0,"BIQ (Charlotte)",2,"In","GHFIEJDKCLBA",NA,"In",1,"Spreadsheet1","Spreadsheet1",1,"BIQ","Screen 2","o21mwi",2,"response","5",9395.1,16245.9,16262.4,9395.1,16245.9,16262.4,1,9395.1,6867.3,0,NA,"Rating Scale","Rating Scale",9,"object-36","BIQ",NA,"MDPRF47263"
"9",1707930393170,"14/02/2024 17:06:33",1707930393170,0,"14/02/2024 17:06:33",163173,5,"questionnaire-uu2n",NA,35149096,10387405,NA,"complete",NA,"65ccf1d0bc4382242747e329","computer","Desktop or Laptop","Windows 10","Chrome 121.0.0.0","1366x768","1366x641",NA,NA,0,"BIQ (Charlotte)",2,"In","GHFIEJDKCLBA",NA,"In",1,"Spreadsheet1","Spreadsheet1",1,"BIQ","Screen 2","o21mwi",2,"response","5",15131.9,16245.9,16262.4,15131.9,16245.9,16262.4,1,15131.9,1130.5,0,NA,"Rating Scale","Rating Scale",16,"object-86","BIQ",NA,"MDPRF47263"
"10",1707930407667,"14/02/2024 17:06:47",1707930407667,0,"14/02/2024 17:06:47",163173,5,"questionnaire-uu2n",NA,35149096,10387405,NA,"complete",NA,"65ccf1d0bc4382242747e329","computer","Desktop or Laptop","Windows 10","Chrome 121.0.0.0","1366x768","1366x641",NA,NA,0,"BIQ (Charlotte)",2,"In","GHFIEJDKCLBA",NA,"In",1,"Spreadsheet1","Spreadsheet1",1,"BIQ","Screen 3","iz3the",3,"continue","",14524.8,14516.7,14524.8,14524.8,14516.7,14524.8,1,14524.8,0,0,NA,"Click To Continue","Continue Button",22,"object-73","BIQ",NA,"MDPRF47263"
"11",1707930407674,"14/02/2024 17:06:47",1707930407674,0,"14/02/2024 17:06:47",163173,5,"questionnaire-uu2n",NA,35149096,10387405,NA,"complete",NA,"65ccf1d0bc4382242747e329","computer","Desktop or Laptop","Windows 10","Chrome 121.0.0.0","1366x768","1366x641",NA,NA,0,"BIQ (Charlotte)",2,"In","GHFIEJDKCLBA",NA,"In",1,"Spreadsheet1","Spreadsheet1",1,"BIQ","Screen 3","iz3the",3,"response","4",7416.4,14516.7,14531.9000000015,7416.4,14516.7,14531.9000000015,1,7416.4,7115.50000000149,0,NA,"Rating Scale","Rating Scale",2,"object-53","BIQ",NA,"MDPRF47263"
"12",1707930407676,"14/02/2024 17:06:47",1707930407676,0,"14/02/2024 17:06:47",163173,5,"questionnaire-uu2n",NA,35149096,10387405,NA,"complete",NA,"65ccf1d0bc4382242747e329","computer","Desktop or Laptop","Windows 10","Chrome 121.0.0.0","1366x768","1366x641",NA,NA,0,"BIQ (Charlotte)",2,"In","GHFIEJDKCLBA",NA,"In",1,"Spreadsheet1","Spreadsheet1",1,"BIQ","Screen 3","iz3the",3,"response","4",10609,14516.7,14533.3,10609,14516.7,14533.3,1,10609,3924.29999999999,0,NA,"Rating Scale","Rating Scale",9,"object-60","BIQ",NA,"MDPRF47263"
"13",1707930407678,"14/02/2024 17:06:47",1707930407678,0,"14/02/2024 17:06:47",163173,5,"questionnaire-uu2n",NA,35149096,10387405,NA,"complete",NA,"65ccf1d0bc4382242747e329","computer","Desktop or Laptop","Windows 10","Chrome 121.0.0.0","1366x768","1366x641",NA,NA,0,"BIQ (Charlotte)",2,"In","GHFIEJDKCLBA",NA,"In",1,"Spreadsheet1","Spreadsheet1",1,"BIQ","Screen 3","iz3the",3,"response","4",13618.7,14516.7,14533.3,13618.7,14516.7,14533.3,1,13618.7,914.599999999991,0,NA,"Rating Scale","Rating Scale",16,"object-67","BIQ",NA,"MDPRF47263"
"14",1707930407692,"14/02/2024 17:06:47",1707930407692,0,"14/02/2024 17:06:47",163173,5,"questionnaire-uu2n",NA,35149096,10387405,NA,"complete",NA,"65ccf1d0bc4382242747e329","computer","Desktop or Laptop","Windows 10","Chrome 121.0.0.0","1366x768","1366x641",NA,NA,0,"BIQ (Charlotte)",2,"In","GHFIEJDKCLBA",NA,"In",1,"Spreadsheet1","Spreadsheet1",NA,"","","",NA,"5","END",NA,NA,NA,NA,NA,NA,0,NA,NA,NA,NA,"","",NA,"","",NA,"MDPRF47263"
"1",1707930437608,"14/02/2024 17:07:17",1707930437608,0,"14/02/2024 17:07:17",163173,5,"questionnaire-uu2n",NA,35149229,10387342,NA,"complete",NA,"65ccf0d7a3af9ad5691c1ee2","computer","Desktop or Laptop","Mac OS 10.15.7","Chrome 121.0.0.0","1440x900","1440x813",NA,NA,0,"BIQ (Charlotte)",2,"In","DECFBGAHLIKJ",NA,"In",2,"Spreadsheet1","Spreadsheet1",NA,"","","",NA,"5","BEGIN",NA,NA,NA,NA,NA,NA,0,NA,NA,NA,NA,"","",NA,"","",NA,"MDPRF12765"
"2",1707930534772,"14/02/2024 17:08:54",1707930534772,0,"14/02/2024 17:08:54",163173,5,"questionnaire-uu2n",NA,35149229,10387342,NA,"complete",NA,"65ccf0d7a3af9ad5691c1ee2","computer","Desktop or Laptop","Mac OS 10.15.7","Chrome 121.0.0.0","1440x900","1440x813",NA,NA,0,"BIQ (Charlotte)",2,"In","DECFBGAHLIKJ",NA,"In",2,"Spreadsheet1","Spreadsheet1",1,"BIQ","Screen 1","9dh6eq",1,"continue","",97170.724,97154.124,97170.724,97170.724,97154.124,97170.724,1,97170.724,0,0,NA,"Click To Continue","Continue Button",23,"object-48","BIQ",NA,"MDPRF12765"
"3",1707930534774,"14/02/2024 17:08:54",1707930534774,0,"14/02/2024 17:08:54",163173,5,"questionnaire-uu2n",NA,35149229,10387342,NA,"complete",NA,"65ccf0d7a3af9ad5691c1ee2","computer","Desktop or Laptop","Mac OS 10.15.7","Chrome 121.0.0.0","1440x900","1440x813",NA,NA,0,"BIQ (Charlotte)",2,"In","DECFBGAHLIKJ",NA,"In",2,"Spreadsheet1","Spreadsheet1",1,"BIQ","Screen 1","9dh6eq",1,"response","6",82820.224,97154.124,97170.724,82820.224,97154.124,97170.724,1,82820.224,14350.5,0,NA,"Rating Scale","Rating Scale",3,"object-5","BIQ",NA,"MDPRF12765"
"4",1707930534774,"14/02/2024 17:08:54",1707930534774,0,"14/02/2024 17:08:54",163173,5,"questionnaire-uu2n",NA,35149229,10387342,NA,"complete",NA,"65ccf0d7a3af9ad5691c1ee2","computer","Desktop or Laptop","Mac OS 10.15.7","Chrome 121.0.0.0","1440x900","1440x813",NA,NA,0,"BIQ (Charlotte)",2,"In","DECFBGAHLIKJ",NA,"In",2,"Spreadsheet1","Spreadsheet1",1,"BIQ","Screen 1","9dh6eq",1,"response","4",88987.124,97154.124,97170.724,88987.124,97154.124,97170.724,1,88987.124,8183.60000000001,0,NA,"Rating Scale","Rating Scale",10,"object-18","BIQ",NA,"MDPRF12765"
"5",1707930534774,"14/02/2024 17:08:54",1707930534774,0,"14/02/2024 17:08:54",163173,5,"questionnaire-uu2n",NA,35149229,10387342,NA,"complete",NA,"65ccf0d7a3af9ad5691c1ee2","computer","Desktop or Laptop","Mac OS 10.15.7","Chrome 121.0.0.0","1440x900","1440x813",NA,NA,0,"BIQ (Charlotte)",2,"In","DECFBGAHLIKJ",NA,"In",2,"Spreadsheet1","Spreadsheet1",1,"BIQ","Screen 1","9dh6eq",1,"response","2",94120.224,97154.124,97170.724,94120.224,97154.124,97170.724,1,94120.224,3050.50000000001,0,NA,"Rating Scale","Rating Scale",17,"object-80","BIQ",NA,"MDPRF12765"
"6",1707930566495,"14/02/2024 17:09:26",1707930566495,0,"14/02/2024 17:09:26",163173,5,"questionnaire-uu2n",NA,35149229,10387342,NA,"complete",NA,"65ccf0d7a3af9ad5691c1ee2","computer","Desktop or Laptop","Mac OS 10.15.7","Chrome 121.0.0.0","1440x900","1440x813",NA,NA,0,"BIQ (Charlotte)",2,"In","DECFBGAHLIKJ",NA,"In",2,"Spreadsheet1","Spreadsheet1",1,"BIQ","Screen 2","o21mwi",2,"continue","",31749.9999999998,31734.8,31749.9999999998,31749.9999999998,31734.8,31749.9999999998,1,31749.9999999998,0,0,NA,"Click To Continue","Continue Button",22,"object-50","BIQ",NA,"MDPRF12765"
"7",1707930566498,"14/02/2024 17:09:26",1707930566498,0,"14/02/2024 17:09:26",163173,5,"questionnaire-uu2n",NA,35149229,10387342,NA,"complete",NA,"65ccf0d7a3af9ad5691c1ee2","computer","Desktop or Laptop","Mac OS 10.15.7","Chrome 121.0.0.0","1440x900","1440x813",NA,NA,0,"BIQ (Charlotte)",2,"In","DECFBGAHLIKJ",NA,"In",2,"Spreadsheet1","Spreadsheet1",1,"BIQ","Screen 2","o21mwi",2,"response","7",7133.8,31734.8,31751.5,7133.8,31734.8,31751.5,1,7133.8,24617.7,0,NA,"Rating Scale","Rating Scale",2,"object-259","BIQ",NA,"MDPRF12765"
"8",1707930566498,"14/02/2024 17:09:26",1707930566498,0,"14/02/2024 17:09:26",163173,5,"questionnaire-uu2n",NA,35149229,10387342,NA,"complete",NA,"65ccf0d7a3af9ad5691c1ee2","computer","Desktop or Laptop","Mac OS 10.15.7","Chrome 121.0.0.0","1440x900","1440x813",NA,NA,0,"BIQ (Charlotte)",2,"In","DECFBGAHLIKJ",NA,"In",2,"Spreadsheet1","Spreadsheet1",1,"BIQ","Screen 2","o21mwi",2,"response","1",13467.3,31734.8,31751.5,13467.3,31734.8,31751.5,1,13467.3,18284.2,0,NA,"Rating Scale","Rating Scale",9,"object-36","BIQ",NA,"MDPRF12765"
"9",1707930566499,"14/02/2024 17:09:26",1707930566499,0,"14/02/2024 17:09:26",163173,5,"questionnaire-uu2n",NA,35149229,10387342,NA,"complete",NA,"65ccf0d7a3af9ad5691c1ee2","computer","Desktop or Laptop","Mac OS 10.15.7","Chrome 121.0.0.0","1440x900","1440x813",NA,NA,0,"BIQ (Charlotte)",2,"In","DECFBGAHLIKJ",NA,"In",2,"Spreadsheet1","Spreadsheet1",1,"BIQ","Screen 2","o21mwi",2,"response","2",24834.5,31734.8,31751.5,24834.5,31734.8,31751.5,1,24834.5,6917.00000000001,0,NA,"Rating Scale","Rating Scale",16,"object-86","BIQ",NA,"MDPRF12765"
"10",1707930582978,"14/02/2024 17:09:42",1707930582978,0,"14/02/2024 17:09:42",163173,5,"questionnaire-uu2n",NA,35149229,10387342,NA,"complete",NA,"65ccf0d7a3af9ad5691c1ee2","computer","Desktop or Laptop","Mac OS 10.15.7","Chrome 121.0.0.0","1440x900","1440x813",NA,NA,0,"BIQ (Charlotte)",2,"In","DECFBGAHLIKJ",NA,"In",2,"Spreadsheet1","Spreadsheet1",1,"BIQ","Screen 3","iz3the",3,"continue","",16498.6999999998,16483.3,16498.6999999998,16498.6999999998,16483.3,16498.6999999998,1,16498.6999999998,0,0,NA,"Click To Continue","Continue Button",22,"object-73","BIQ",NA,"MDPRF12765"
"11",1707930582981,"14/02/2024 17:09:42",1707930582981,0,"14/02/2024 17:09:42",163173,5,"questionnaire-uu2n",NA,35149229,10387342,NA,"complete",NA,"65ccf0d7a3af9ad5691c1ee2","computer","Desktop or Laptop","Mac OS 10.15.7","Chrome 121.0.0.0","1440x900","1440x813",NA,NA,0,"BIQ (Charlotte)",2,"In","DECFBGAHLIKJ",NA,"In",2,"Spreadsheet1","Spreadsheet1",1,"BIQ","Screen 3","iz3the",3,"response","0",5416.10000000001,16483.3,16499.3,5416.10000000001,16483.3,16499.3,1,5416.10000000001,11083.2,0,NA,"Rating Scale","Rating Scale",2,"object-53","BIQ",NA,"MDPRF12765"
"12",1707930582981,"14/02/2024 17:09:42",1707930582981,0,"14/02/2024 17:09:42",163173,5,"questionnaire-uu2n",NA,35149229,10387342,NA,"complete",NA,"65ccf0d7a3af9ad5691c1ee2","computer","Desktop or Laptop","Mac OS 10.15.7","Chrome 121.0.0.0","1440x900","1440x813",NA,NA,0,"BIQ (Charlotte)",2,"In","DECFBGAHLIKJ",NA,"In",2,"Spreadsheet1","Spreadsheet1",1,"BIQ","Screen 3","iz3the",3,"response","1",9517,16483.3,16499.3,9517,16483.3,16499.3,1,9517,6982.29999999999,0,NA,"Rating Scale","Rating Scale",9,"object-60","BIQ",NA,"MDPRF12765"
"13",1707930582982,"14/02/2024 17:09:42",1707930582982,0,"14/02/2024 17:09:42",163173,5,"questionnaire-uu2n",NA,35149229,10387342,NA,"complete",NA,"65ccf0d7a3af9ad5691c1ee2","computer","Desktop or Laptop","Mac OS 10.15.7","Chrome 121.0.0.0","1440x900","1440x813",NA,NA,0,"BIQ (Charlotte)",2,"In","DECFBGAHLIKJ",NA,"In",2,"Spreadsheet1","Spreadsheet1",1,"BIQ","Screen 3","iz3the",3,"response","1",15467.3,16483.3,16499.3,15467.3,16483.3,16499.3,1,15467.3,1032,0,NA,"Rating Scale","Rating Scale",16,"object-67","BIQ",NA,"MDPRF12765"
"14",1707930582988,"14/02/2024 17:09:42",1707930582988,0,"14/02/2024 17:09:42",163173,5,"questionnaire-uu2n",NA,35149229,10387342,NA,"complete",NA,"65ccf0d7a3af9ad5691c1ee2","computer","Desktop or Laptop","Mac OS 10.15.7","Chrome 121.0.0.0","1440x900","1440x813",NA,NA,0,"BIQ (Charlotte)",2,"In","DECFBGAHLIKJ",NA,"In",2,"Spreadsheet1","Spreadsheet1",NA,"","","",NA,"5","END",NA,NA,NA,NA,NA,NA,0,NA,NA,NA,NA,"","",NA,"","",NA,"MDPRF12765"
"1",1707930639133,"14/02/2024 17:10:39",1707930639133,0,"14/02/2024 17:10:39",163173,5,"questionnaire-uu2n",NA,35149460,10387466,NA,"complete",NA,"65ccf2f9b0efb42d0625139b","computer","Desktop or Laptop","Windows 10","Opera 106.0.0.0","1920x1080","1879x970",NA,NA,0,"BIQ (Charlotte)",2,"In","HIGJFKELDACB",NA,"In",3,"Spreadsheet1","Spreadsheet1",NA,"","","",NA,"5","BEGIN",NA,NA,NA,NA,NA,NA,0,NA,NA,NA,NA,"","",NA,"","",NA,"MDPRF09500"
"2",1707930682871,"14/02/2024 17:11:22",1707930682871,0,"14/02/2024 17:11:22",163173,5,"questionnaire-uu2n",NA,35149460,10387466,NA,"complete",NA,"65ccf2f9b0efb42d0625139b","computer","Desktop or Laptop","Windows 10","Opera 106.0.0.0","1920x1080","1879x970",NA,NA,0,"BIQ (Charlotte)",2,"In","HIGJFKELDACB",NA,"In",3,"Spreadsheet1","Spreadsheet1",1,"BIQ","Screen 1","9dh6eq",1,"continue","",43740,43733,43740,43740,43733,43740,1,43740,0,0,NA,"Click To Continue","Continue Button",23,"object-48","BIQ",NA,"MDPRF09500"
"3",1707930682872,"14/02/2024 17:11:22",1707930682872,0,"14/02/2024 17:11:22",163173,5,"questionnaire-uu2n",NA,35149460,10387466,NA,"complete",NA,"65ccf2f9b0efb42d0625139b","computer","Desktop or Laptop","Windows 10","Opera 106.0.0.0","1920x1080","1879x970",NA,NA,0,"BIQ (Charlotte)",2,"In","HIGJFKELDACB",NA,"In",3,"Spreadsheet1","Spreadsheet1",1,"BIQ","Screen 1","9dh6eq",1,"response","8",20963.4,43733,43740,20963.4,43733,43740,1,20963.4,22776.6,0,NA,"Rating Scale","Rating Scale",3,"object-5","BIQ",NA,"MDPRF09500"
"4",1707930682872,"14/02/2024 17:11:22",1707930682872,0,"14/02/2024 17:11:22",163173,5,"questionnaire-uu2n",NA,35149460,10387466,NA,"complete",NA,"65ccf2f9b0efb42d0625139b","computer","Desktop or Laptop","Windows 10","Opera 106.0.0.0","1920x1080","1879x970",NA,NA,0,"BIQ (Charlotte)",2,"In","HIGJFKELDACB",NA,"In",3,"Spreadsheet1","Spreadsheet1",1,"BIQ","Screen 1","9dh6eq",1,"response","0",31341,43733,43740,31341,43733,43740,1,31341,12399,0,NA,"Rating Scale","Rating Scale",10,"object-18","BIQ",NA,"MDPRF09500"
"5",1707930682873,"14/02/2024 17:11:22",1707930682873,0,"14/02/2024 17:11:22",163173,5,"questionnaire-uu2n",NA,35149460,10387466,NA,"complete",NA,"65ccf2f9b0efb42d0625139b","computer","Desktop or Laptop","Windows 10","Opera 106.0.0.0","1920x1080","1879x970",NA,NA,0,"BIQ (Charlotte)",2,"In","HIGJFKELDACB",NA,"In",3,"Spreadsheet1","Spreadsheet1",1,"BIQ","Screen 1","9dh6eq",1,"response","8",38516.3,43733,43740,38516.3,43733,43740,1,38516.3,5223.7,0,NA,"Rating Scale","Rating Scale",17,"object-80","BIQ",NA,"MDPRF09500"
"6",1707930709426,"14/02/2024 17:11:49",1707930709426,0,"14/02/2024 17:11:49",163173,5,"questionnaire-uu2n",NA,35149460,10387466,NA,"complete",NA,"65ccf2f9b0efb42d0625139b","computer","Desktop or Laptop","Windows 10","Opera 106.0.0.0","1920x1080","1879x970",NA,NA,0,"BIQ (Charlotte)",2,"In","HIGJFKELDACB",NA,"In",3,"Spreadsheet1","Spreadsheet1",1,"BIQ","Screen 2","o21mwi",2,"continue","",26564.9999999881,26561.8,26564.9999999881,26564.9999999881,26561.8,26564.9999999881,1,26564.9999999881,0,0,NA,"Click To Continue","Continue Button",22,"object-50","BIQ",NA,"MDPRF09500"
"7",1707930709427,"14/02/2024 17:11:49",1707930709427,0,"14/02/2024 17:11:49",163173,5,"questionnaire-uu2n",NA,35149460,10387466,NA,"complete",NA,"65ccf2f9b0efb42d0625139b","computer","Desktop or Laptop","Windows 10","Opera 106.0.0.0","1920x1080","1879x970",NA,NA,0,"BIQ (Charlotte)",2,"In","HIGJFKELDACB",NA,"In",3,"Spreadsheet1","Spreadsheet1",1,"BIQ","Screen 2","o21mwi",2,"response","0",4688.60000000001,26561.8,26566.4000000238,4688.60000000001,26561.8,26566.4000000238,1,4688.60000000001,21877.8000000238,0,NA,"Rating Scale","Rating Scale",2,"object-259","BIQ",NA,"MDPRF09500"
"8",1707930709428,"14/02/2024 17:11:49",1707930709428,0,"14/02/2024 17:11:49",163173,5,"questionnaire-uu2n",NA,35149460,10387466,NA,"complete",NA,"65ccf2f9b0efb42d0625139b","computer","Desktop or Laptop","Windows 10","Opera 106.0.0.0","1920x1080","1879x970",NA,NA,0,"BIQ (Charlotte)",2,"In","HIGJFKELDACB",NA,"In",3,"Spreadsheet1","Spreadsheet1",1,"BIQ","Screen 2","o21mwi",2,"response","8",13315.7,26561.8,26566.6999999762,13315.7,26561.8,26566.6999999762,1,13315.7,13250.9999999762,0,NA,"Rating Scale","Rating Scale",9,"object-36","BIQ",NA,"MDPRF09500"
"9",1707930709428,"14/02/2024 17:11:49",1707930709428,0,"14/02/2024 17:11:49",163173,5,"questionnaire-uu2n",NA,35149460,10387466,NA,"complete",NA,"65ccf2f9b0efb42d0625139b","computer","Desktop or Laptop","Windows 10","Opera 106.0.0.0","1920x1080","1879x970",NA,NA,0,"BIQ (Charlotte)",2,"In","HIGJFKELDACB",NA,"In",3,"Spreadsheet1","Spreadsheet1",1,"BIQ","Screen 2","o21mwi",2,"response","8",25513,26561.8,26566.8,25513,26561.8,26566.8,1,25513,1053.8,0,NA,"Rating Scale","Rating Scale",16,"object-86","BIQ",NA,"MDPRF09500"
"10",1707930737784,"14/02/2024 17:12:17",1707930737784,0,"14/02/2024 17:12:17",163173,5,"questionnaire-uu2n",NA,35149460,10387466,NA,"complete",NA,"65ccf2f9b0efb42d0625139b","computer","Desktop or Laptop","Windows 10","Opera 106.0.0.0","1920x1080","1879x970",NA,NA,0,"BIQ (Charlotte)",2,"In","HIGJFKELDACB",NA,"In",3,"Spreadsheet1","Spreadsheet1",1,"BIQ","Screen 3","iz3the",3,"continue","",28360.5,28354.3,28360.5,28360.5,28354.3,28360.5,1,28360.5,0,0,NA,"Click To Continue","Continue Button",22,"object-73","BIQ",NA,"MDPRF09500"
"11",1707930737785,"14/02/2024 17:12:17",1707930737785,0,"14/02/2024 17:12:17",163173,5,"questionnaire-uu2n",NA,35149460,10387466,NA,"complete",NA,"65ccf2f9b0efb42d0625139b","computer","Desktop or Laptop","Windows 10","Opera 106.0.0.0","1920x1080","1879x970",NA,NA,0,"BIQ (Charlotte)",2,"In","HIGJFKELDACB",NA,"In",3,"Spreadsheet1","Spreadsheet1",1,"BIQ","Screen 3","iz3the",3,"response","6",15774.7,28354.3,28361.4,15774.7,28354.3,28361.4,1,15774.7,12586.7,0,NA,"Rating Scale","Rating Scale",2,"object-53","BIQ",NA,"MDPRF09500"
"12",1707930737786,"14/02/2024 17:12:17",1707930737786,0,"14/02/2024 17:12:17",163173,5,"questionnaire-uu2n",NA,35149460,10387466,NA,"complete",NA,"65ccf2f9b0efb42d0625139b","computer","Desktop or Laptop","Windows 10","Opera 106.0.0.0","1920x1080","1879x970",NA,NA,0,"BIQ (Charlotte)",2,"In","HIGJFKELDACB",NA,"In",3,"Spreadsheet1","Spreadsheet1",1,"BIQ","Screen 3","iz3the",3,"response","8",23012.4,28354.3,28361.4,23012.4,28354.3,28361.4,1,23012.4,5349.00000000001,0,NA,"Rating Scale","Rating Scale",9,"object-60","BIQ",NA,"MDPRF09500"
"13",1707930737786,"14/02/2024 17:12:17",1707930737786,0,"14/02/2024 17:12:17",163173,5,"questionnaire-uu2n",NA,35149460,10387466,NA,"complete",NA,"65ccf2f9b0efb42d0625139b","computer","Desktop or Laptop","Windows 10","Opera 106.0.0.0","1920x1080","1879x970",NA,NA,0,"BIQ (Charlotte)",2,"In","HIGJFKELDACB",NA,"In",3,"Spreadsheet1","Spreadsheet1",1,"BIQ","Screen 3","iz3the",3,"response","8",27381.6,28354.3,28361.4,27381.6,28354.3,28361.4,1,27381.6,979.800000000003,0,NA,"Rating Scale","Rating Scale",16,"object-67","BIQ",NA,"MDPRF09500"
"14",1707930737789,"14/02/2024 17:12:17",1707930737789,0,"14/02/2024 17:12:17",163173,5,"questionnaire-uu2n",NA,35149460,10387466,NA,"complete",NA,"65ccf2f9b0efb42d0625139b","computer","Desktop or Laptop","Windows 10","Opera 106.0.0.0","1920x1080","1879x970",NA,NA,0,"BIQ (Charlotte)",2,"In","HIGJFKELDACB",NA,"In",3,"Spreadsheet1","Spreadsheet1",NA,"","","",NA,"5","END",NA,NA,NA,NA,NA,NA,0,NA,NA,NA,NA,"","",NA,"","",NA,"MDPRF09500"
"1",1707930790127,"14/02/2024 17:13:10",1707930790127,0,"14/02/2024 17:13:10",163173,5,"questionnaire-uu2n",NA,35149668,10387477,NA,"complete",NA,"65ccf353b2a96acb3c9be840","computer","Desktop or Laptop","Windows 10","Edge 121.0.0.0","1280x720","1272x598",NA,NA,0,"BIQ (Charlotte)",2,"In","IJHKGLFAEBDC",NA,"In",3,"Spreadsheet1","Spreadsheet1",NA,"","","",NA,"5","BEGIN",NA,NA,NA,NA,NA,NA,0,NA,NA,NA,NA,"","",NA,"","",NA,"MDPRF36184"
"2",1707930840240,"14/02/2024 17:14:00",1707930840240,0,"14/02/2024 17:14:00",163173,5,"questionnaire-uu2n",NA,35149668,10387477,NA,"complete",NA,"65ccf353b2a96acb3c9be840","computer","Desktop or Laptop","Windows 10","Edge 121.0.0.0","1280x720","1272x598",NA,NA,0,"BIQ (Charlotte)",2,"In","IJHKGLFAEBDC",NA,"In",3,"Spreadsheet1","Spreadsheet1",1,"BIQ","Screen 1","9dh6eq",1,"continue","",50133.0400001431,50125.24,50133.0400001431,50133.0400001431,50125.24,50133.0400001431,1,50133.0400001431,0,0,NA,"Click To Continue","Continue Button",23,"object-48","BIQ",NA,"MDPRF36184"
"3",1707930840244,"14/02/2024 17:14:00",1707930840244,0,"14/02/2024 17:14:00",163173,5,"questionnaire-uu2n",NA,35149668,10387477,NA,"complete",NA,"65ccf353b2a96acb3c9be840","computer","Desktop or Laptop","Windows 10","Edge 121.0.0.0","1280x720","1272x598",NA,NA,0,"BIQ (Charlotte)",2,"In","IJHKGLFAEBDC",NA,"In",3,"Spreadsheet1","Spreadsheet1",1,"BIQ","Screen 1","9dh6eq",1,"response","5",24246.74,50125.24,50138.1400000477,24246.74,50125.24,50138.1400000477,1,24246.74,25891.4000000477,0,NA,"Rating Scale","Rating Scale",3,"object-5","BIQ",NA,"MDPRF36184"
"4",1707930840245,"14/02/2024 17:14:00",1707930840245,0,"14/02/2024 17:14:00",163173,5,"questionnaire-uu2n",NA,35149668,10387477,NA,"complete",NA,"65ccf353b2a96acb3c9be840","computer","Desktop or Laptop","Windows 10","Edge 121.0.0.0","1280x720","1272x598",NA,NA,0,"BIQ (Charlotte)",2,"In","IJHKGLFAEBDC",NA,"In",3,"Spreadsheet1","Spreadsheet1",1,"BIQ","Screen 1","9dh6eq",1,"response","2",34071.74,50125.24,50138.94,34071.74,50125.24,50138.94,1,34071.74,16067.2,0,NA,"Rating Scale","Rating Scale",10,"object-18","BIQ",NA,"MDPRF36184"
"5",1707930840245,"14/02/2024 17:14:00",1707930840245,0,"14/02/2024 17:14:00",163173,5,"questionnaire-uu2n",NA,35149668,10387477,NA,"complete",NA,"65ccf353b2a96acb3c9be840","computer","Desktop or Laptop","Windows 10","Edge 121.0.0.0","1280x720","1272x598",NA,NA,0,"BIQ (Charlotte)",2,"In","IJHKGLFAEBDC",NA,"In",3,"Spreadsheet1","Spreadsheet1",1,"BIQ","Screen 1","9dh6eq",1,"response","4",49259.44,50125.24,50139.5400001431,49259.44,50125.24,50139.5400001431,1,49259.44,880.100000143051,0,NA,"Rating Scale","Rating Scale",17,"object-80","BIQ",NA,"MDPRF36184"
"6",1707930855924,"14/02/2024 17:14:15",1707930855924,0,"14/02/2024 17:14:15",163173,5,"questionnaire-uu2n",NA,35149668,10387477,NA,"complete",NA,"65ccf353b2a96acb3c9be840","computer","Desktop or Laptop","Windows 10","Edge 121.0.0.0","1280x720","1272x598",NA,NA,0,"BIQ (Charlotte)",2,"In","IJHKGLFAEBDC",NA,"In",3,"Spreadsheet1","Spreadsheet1",1,"BIQ","Screen 2","o21mwi",2,"continue","",15692.800000143,15687.1,15692.800000143,15692.800000143,15687.1,15692.800000143,1,15692.800000143,0,0,NA,"Click To Continue","Continue Button",22,"object-50","BIQ",NA,"MDPRF36184"
"7",1707930855927,"14/02/2024 17:14:15",1707930855927,0,"14/02/2024 17:14:15",163173,5,"questionnaire-uu2n",NA,35149668,10387477,NA,"complete",NA,"65ccf353b2a96acb3c9be840","computer","Desktop or Laptop","Windows 10","Edge 121.0.0.0","1280x720","1272x598",NA,NA,0,"BIQ (Charlotte)",2,"In","IJHKGLFAEBDC",NA,"In",3,"Spreadsheet1","Spreadsheet1",1,"BIQ","Screen 2","o21mwi",2,"response","4",6261.7,15687.1,15696.300000143,6261.7,15687.1,15696.300000143,1,6261.7,9434.60000014305,0,NA,"Rating Scale","Rating Scale",2,"object-259","BIQ",NA,"MDPRF36184"
"8",1707930855928,"14/02/2024 17:14:15",1707930855928,0,"14/02/2024 17:14:15",163173,5,"questionnaire-uu2n",NA,35149668,10387477,NA,"complete",NA,"65ccf353b2a96acb3c9be840","computer","Desktop or Laptop","Windows 10","Edge 121.0.0.0","1280x720","1272x598",NA,NA,0,"BIQ (Charlotte)",2,"In","IJHKGLFAEBDC",NA,"In",3,"Spreadsheet1","Spreadsheet1",1,"BIQ","Screen 2","o21mwi",2,"response","4",11657.3,15687.1,15697.2,11657.3,15687.1,15697.2,1,11657.3,4039.9,0,NA,"Rating Scale","Rating Scale",9,"object-36","BIQ",NA,"MDPRF36184"
"9",1707930855929,"14/02/2024 17:14:15",1707930855929,0,"14/02/2024 17:14:15",163173,5,"questionnaire-uu2n",NA,35149668,10387477,NA,"complete",NA,"65ccf353b2a96acb3c9be840","computer","Desktop or Laptop","Windows 10","Edge 121.0.0.0","1280x720","1272x598",NA,NA,0,"BIQ (Charlotte)",2,"In","IJHKGLFAEBDC",NA,"In",3,"Spreadsheet1","Spreadsheet1",1,"BIQ","Screen 2","o21mwi",2,"response","4",14055,15687.1,15697.9999999523,14055,15687.1,15697.9999999523,1,14055,1642.99999995231,0,NA,"Rating Scale","Rating Scale",16,"object-86","BIQ",NA,"MDPRF36184"
"10",1707930866131,"14/02/2024 17:14:26",1707930866131,0,"14/02/2024 17:14:26",163173,5,"questionnaire-uu2n",NA,35149668,10387477,NA,"complete",NA,"65ccf353b2a96acb3c9be840","computer","Desktop or Laptop","Windows 10","Edge 121.0.0.0","1280x720","1272x598",NA,NA,0,"BIQ (Charlotte)",2,"In","IJHKGLFAEBDC",NA,"In",3,"Spreadsheet1","Spreadsheet1",1,"BIQ","Screen 3","iz3the",3,"continue","",10213.1,10208.5,10213.1,10213.1,10208.5,10213.1,1,10213.1,0,0,NA,"Click To Continue","Continue Button",22,"object-73","BIQ",NA,"MDPRF36184"
"11",1707930866135,"14/02/2024 17:14:26",1707930866135,0,"14/02/2024 17:14:26",163173,5,"questionnaire-uu2n",NA,35149668,10387477,NA,"complete",NA,"65ccf353b2a96acb3c9be840","computer","Desktop or Laptop","Windows 10","Edge 121.0.0.0","1280x720","1272x598",NA,NA,0,"BIQ (Charlotte)",2,"In","IJHKGLFAEBDC",NA,"In",3,"Spreadsheet1","Spreadsheet1",1,"BIQ","Screen 3","iz3the",3,"response","3",1748.70000000001,10208.5,10216.8999999523,1748.70000000001,10208.5,10216.8999999523,1,1748.70000000001,8468.19999995231,0,NA,"Rating Scale","Rating Scale",2,"object-53","BIQ",NA,"MDPRF36184"
"12",1707930866136,"14/02/2024 17:14:26",1707930866136,0,"14/02/2024 17:14:26",163173,5,"questionnaire-uu2n",NA,35149668,10387477,NA,"complete",NA,"65ccf353b2a96acb3c9be840","computer","Desktop or Laptop","Windows 10","Edge 121.0.0.0","1280x720","1272x598",NA,NA,0,"BIQ (Charlotte)",2,"In","IJHKGLFAEBDC",NA,"In",3,"Spreadsheet1","Spreadsheet1",1,"BIQ","Screen 3","iz3the",3,"response","5",3181,10208.5,10217.6,3181,10208.5,10217.6,1,3181,7036.60000000001,0,NA,"Rating Scale","Rating Scale",9,"object-60","BIQ",NA,"MDPRF36184"
"13",1707930866137,"14/02/2024 17:14:26",1707930866137,0,"14/02/2024 17:14:26",163173,5,"questionnaire-uu2n",NA,35149668,10387477,NA,"complete",NA,"65ccf353b2a96acb3c9be840","computer","Desktop or Laptop","Windows 10","Edge 121.0.0.0","1280x720","1272x598",NA,NA,0,"BIQ (Charlotte)",2,"In","IJHKGLFAEBDC",NA,"In",3,"Spreadsheet1","Spreadsheet1",1,"BIQ","Screen 3","iz3the",3,"response","6",4180,10208.5,10218.5000000954,4180,10208.5,10218.5000000954,1,4180,6038.50000009537,0,NA,"Rating Scale","Rating Scale",16,"object-67","BIQ",NA,"MDPRF36184"
"14",1707930866144,"14/02/2024 17:14:26",1707930866144,0,"14/02/2024 17:14:26",163173,5,"questionnaire-uu2n",NA,35149668,10387477,NA,"complete",NA,"65ccf353b2a96acb3c9be840","computer","Desktop or Laptop","Windows 10","Edge 121.0.0.0","1280x720","1272x598",NA,NA,0,"BIQ (Charlotte)",2,"In","IJHKGLFAEBDC",NA,"In",3,"Spreadsheet1","Spreadsheet1",NA,"","","",NA,"5","END",NA,NA,NA,NA,NA,NA,0,NA,NA,NA,NA,"","",NA,"","",NA,"MDPRF36184"
"1",1707930835615,"14/02/2024 17:13:55",1707930835615,0,"14/02/2024 17:13:55",163173,5,"questionnaire-uu2n",NA,35149730,10387564,NA,"complete",NA,"65ccf48b8a8e9c826f9c5ecf","computer","Desktop or Laptop","Windows 10","Chrome 121.0.0.0","1920x1080","1920x929",NA,NA,0,"BIQ (Charlotte)",2,"In","FGEHDICJBKAL",NA,"In",4,"Spreadsheet1","Spreadsheet1",NA,"","","",NA,"5","BEGIN",NA,NA,NA,NA,NA,NA,0,NA,NA,NA,NA,"","",NA,"","",NA,"MDPRF10666"
"2",1707930864964,"14/02/2024 17:14:24",1707930864964,0,"14/02/2024 17:14:24",163173,5,"questionnaire-uu2n",NA,35149730,10387564,NA,"complete",NA,"65ccf48b8a8e9c826f9c5ecf","computer","Desktop or Laptop","Windows 10","Chrome 121.0.0.0","1920x1080","1920x929",NA,NA,0,"BIQ (Charlotte)",2,"In","FGEHDICJBKAL",NA,"In",4,"Spreadsheet1","Spreadsheet1",1,"BIQ","Screen 1","9dh6eq",1,"continue","",30239.3999999762,30227.7,30239.3999999762,30239.3999999762,30227.7,30239.3999999762,1,30239.3999999762,0,0,NA,"Click To Continue","Continue Button",23,"object-48","BIQ",NA,"MDPRF10666"
"3",1707930864966,"14/02/2024 17:14:24",1707930864966,0,"14/02/2024 17:14:24",163173,5,"questionnaire-uu2n",NA,35149730,10387564,NA,"complete",NA,"65ccf48b8a8e9c826f9c5ecf","computer","Desktop or Laptop","Windows 10","Chrome 121.0.0.0","1920x1080","1920x929",NA,NA,0,"BIQ (Charlotte)",2,"In","FGEHDICJBKAL",NA,"In",4,"Spreadsheet1","Spreadsheet1",1,"BIQ","Screen 1","9dh6eq",1,"response","7",13010.5,30227.7,30241.6000000238,13010.5,30227.7,30241.6000000238,1,13010.5,17231.1000000238,0,NA,"Rating Scale","Rating Scale",3,"object-5","BIQ",NA,"MDPRF10666"
"4",1707930864966,"14/02/2024 17:14:24",1707930864966,0,"14/02/2024 17:14:24",163173,5,"questionnaire-uu2n",NA,35149730,10387564,NA,"complete",NA,"65ccf48b8a8e9c826f9c5ecf","computer","Desktop or Laptop","Windows 10","Chrome 121.0.0.0","1920x1080","1920x929",NA,NA,0,"BIQ (Charlotte)",2,"In","FGEHDICJBKAL",NA,"In",4,"Spreadsheet1","Spreadsheet1",1,"BIQ","Screen 1","9dh6eq",1,"response","4",25894.2,30227.7,30242,25894.2,30227.7,30242,1,25894.2,4347.8,0,NA,"Rating Scale","Rating Scale",10,"object-18","BIQ",NA,"MDPRF10666"
"5",1707930864966,"14/02/2024 17:14:24",1707930864966,0,"14/02/2024 17:14:24",163173,5,"questionnaire-uu2n",NA,35149730,10387564,NA,"complete",NA,"65ccf48b8a8e9c826f9c5ecf","computer","Desktop or Laptop","Windows 10","Chrome 121.0.0.0","1920x1080","1920x929",NA,NA,0,"BIQ (Charlotte)",2,"In","FGEHDICJBKAL",NA,"In",4,"Spreadsheet1","Spreadsheet1",1,"BIQ","Screen 1","9dh6eq",1,"response","4",29527.7,30227.7,30242.2999999523,29527.7,30227.7,30242.2999999523,1,29527.7,714.599999952316,0,NA,"Rating Scale","Rating Scale",17,"object-80","BIQ",NA,"MDPRF10666"
"6",1707930891784,"14/02/2024 17:14:51",1707930891784,0,"14/02/2024 17:14:51",163173,5,"questionnaire-uu2n",NA,35149730,10387564,NA,"complete",NA,"65ccf48b8a8e9c826f9c5ecf","computer","Desktop or Laptop","Windows 10","Chrome 121.0.0.0","1920x1080","1920x929",NA,NA,0,"BIQ (Charlotte)",2,"In","FGEHDICJBKAL",NA,"In",4,"Spreadsheet1","Spreadsheet1",1,"BIQ","Screen 2","o21mwi",2,"continue","",26831.9000000238,26817.5,26831.9000000238,26831.9000000238,26817.5,26831.9000000238,1,26831.9000000238,0,0,NA,"Click To Continue","Continue Button",22,"object-50","BIQ",NA,"MDPRF10666"
"7",1707930891785,"14/02/2024 17:14:51",1707930891785,0,"14/02/2024 17:14:51",163173,5,"questionnaire-uu2n",NA,35149730,10387564,NA,"complete",NA,"65ccf48b8a8e9c826f9c5ecf","computer","Desktop or Laptop","Windows 10","Chrome 121.0.0.0","1920x1080","1920x929",NA,NA,0,"BIQ (Charlotte)",2,"In","FGEHDICJBKAL",NA,"In",4,"Spreadsheet1","Spreadsheet1",1,"BIQ","Screen 2","o21mwi",2,"response","7",7150.2,26817.5,26833.5999999523,7150.2,26817.5,26833.5999999523,1,7150.2,19683.3999999523,0,NA,"Rating Scale","Rating Scale",2,"object-259","BIQ",NA,"MDPRF10666"
"8",1707930891787,"14/02/2024 17:14:51",1707930891787,0,"14/02/2024 17:14:51",163173,5,"questionnaire-uu2n",NA,35149730,10387564,NA,"complete",NA,"65ccf48b8a8e9c826f9c5ecf","computer","Desktop or Laptop","Windows 10","Chrome 121.0.0.0","1920x1080","1920x929",NA,NA,0,"BIQ (Charlotte)",2,"In","FGEHDICJBKAL",NA,"In",4,"Spreadsheet1","Spreadsheet1",1,"BIQ","Screen 2","o21mwi",2,"response","2",10833.6,26817.5,26834.2,10833.6,26817.5,26834.2,1,10833.6,16000.6,0,NA,"Rating Scale","Rating Scale",9,"object-36","BIQ",NA,"MDPRF10666"
"9",1707930891788,"14/02/2024 17:14:51",1707930891788,0,"14/02/2024 17:14:51",163173,5,"questionnaire-uu2n",NA,35149730,10387564,NA,"complete",NA,"65ccf48b8a8e9c826f9c5ecf","computer","Desktop or Laptop","Windows 10","Chrome 121.0.0.0","1920x1080","1920x929",NA,NA,0,"BIQ (Charlotte)",2,"In","FGEHDICJBKAL",NA,"In",4,"Spreadsheet1","Spreadsheet1",1,"BIQ","Screen 2","o21mwi",2,"response","8",25417.5,26817.5,26834.2,25417.5,26817.5,26834.2,1,25417.5,1416.7,0,NA,"Rating Scale","Rating Scale",16,"object-86","BIQ",NA,"MDPRF10666"
"10",1707930902105,"14/02/2024 17:15:02",1707930902105,0,"14/02/2024 17:15:02",163173,5,"questionnaire-uu2n",NA,35149730,10387564,NA,"complete",NA,"65ccf48b8a8e9c826f9c5ecf","computer","Desktop or Laptop","Windows 10","Chrome 121.0.0.0","1920x1080","1920x929",NA,NA,0,"BIQ (Charlotte)",2,"In","FGEHDICJBKAL",NA,"In",4,"Spreadsheet1","Spreadsheet1",1,"BIQ","Screen 3","iz3the",3,"continue","",10334.8,10333.5,10334.8,10334.8,10333.5,10334.8,1,10334.8,0,0,NA,"Click To Continue","Continue Button",22,"object-73","BIQ",NA,"MDPRF10666"
"11",1707930902107,"14/02/2024 17:15:02",1707930902107,0,"14/02/2024 17:15:02",163173,5,"questionnaire-uu2n",NA,35149730,10387564,NA,"complete",NA,"65ccf48b8a8e9c826f9c5ecf","computer","Desktop or Laptop","Windows 10","Chrome 121.0.0.0","1920x1080","1920x929",NA,NA,0,"BIQ (Charlotte)",2,"In","FGEHDICJBKAL",NA,"In",4,"Spreadsheet1","Spreadsheet1",1,"BIQ","Screen 3","iz3the",3,"response","0",3850,10333.5,10337.9000000238,3850,10333.5,10337.9000000238,1,3850,6487.90000002384,0,NA,"Rating Scale","Rating Scale",2,"object-53","BIQ",NA,"MDPRF10666"
"12",1707930902108,"14/02/2024 17:15:02",1707930902108,0,"14/02/2024 17:15:02",163173,5,"questionnaire-uu2n",NA,35149730,10387564,NA,"complete",NA,"65ccf48b8a8e9c826f9c5ecf","computer","Desktop or Laptop","Windows 10","Chrome 121.0.0.0","1920x1080","1920x929",NA,NA,0,"BIQ (Charlotte)",2,"In","FGEHDICJBKAL",NA,"In",4,"Spreadsheet1","Spreadsheet1",1,"BIQ","Screen 3","iz3the",3,"response","0",7400.10000000001,10333.5,10338.4000000238,7400.10000000001,10333.5,10338.4000000238,1,7400.10000000001,2938.30000002384,0,NA,"Rating Scale","Rating Scale",9,"object-60","BIQ",NA,"MDPRF10666"
"13",1707930902108,"14/02/2024 17:15:02",1707930902108,0,"14/02/2024 17:15:02",163173,5,"questionnaire-uu2n",NA,35149730,10387564,NA,"complete",NA,"65ccf48b8a8e9c826f9c5ecf","computer","Desktop or Laptop","Windows 10","Chrome 121.0.0.0","1920x1080","1920x929",NA,NA,0,"BIQ (Charlotte)",2,"In","FGEHDICJBKAL",NA,"In",4,"Spreadsheet1","Spreadsheet1",1,"BIQ","Screen 3","iz3the",3,"response","0",9700.2,10333.5,10338.9000000238,9700.2,10333.5,10338.9000000238,1,9700.2,638.700000023848,0,NA,"Rating Scale","Rating Scale",16,"object-67","BIQ",NA,"MDPRF10666"
"14",1707930902112,"14/02/2024 17:15:02",1707930902112,0,"14/02/2024 17:15:02",163173,5,"questionnaire-uu2n",NA,35149730,10387564,NA,"complete",NA,"65ccf48b8a8e9c826f9c5ecf","computer","Desktop or Laptop","Windows 10","Chrome 121.0.0.0","1920x1080","1920x929",NA,NA,0,"BIQ (Charlotte)",2,"In","FGEHDICJBKAL",NA,"In",4,"Spreadsheet1","Spreadsheet1",NA,"","","",NA,"5","END",NA,NA,NA,NA,NA,NA,0,NA,NA,NA,NA,"","",NA,"","",NA,"MDPRF10666"
"1",1707930941751,"14/02/2024 17:15:41",1707930941751,0,"14/02/2024 17:15:41",163173,5,"questionnaire-uu2n",NA,35149845,10387555,NA,"complete",NA,"65ccf482e1bae130ba2a80c2","computer","Desktop or Laptop","Windows 10","Chrome 121.0.0.0","1280x800","1280x673",NA,NA,0,"BIQ (Charlotte)",2,"In","EFDGCHBIAJLK",NA,"In",4,"Spreadsheet1","Spreadsheet1",NA,"","","",NA,"5","BEGIN",NA,NA,NA,NA,NA,NA,0,NA,NA,NA,NA,"","",NA,"","",NA,"MDPRF54374"
"2",1707930989500,"14/02/2024 17:16:29",1707930989500,0,"14/02/2024 17:16:29",163173,5,"questionnaire-uu2n",NA,35149845,10387555,NA,"complete",NA,"65ccf482e1bae130ba2a80c2","computer","Desktop or Laptop","Windows 10","Chrome 121.0.0.0","1280x800","1280x673",NA,NA,0,"BIQ (Charlotte)",2,"In","EFDGCHBIAJLK",NA,"In",4,"Spreadsheet1","Spreadsheet1",1,"BIQ","Screen 1","9dh6eq",1,"continue","",47747.0839999999,47732.284,47747.0839999999,47747.0839999999,47732.284,47747.0839999999,1,47747.0839999999,0,0,NA,"Click To Continue","Continue Button",23,"object-48","BIQ",NA,"MDPRF54374"
"3",1707930989508,"14/02/2024 17:16:29",1707930989508,0,"14/02/2024 17:16:29",163173,5,"questionnaire-uu2n",NA,35149845,10387555,NA,"complete",NA,"65ccf482e1bae130ba2a80c2","computer","Desktop or Laptop","Windows 10","Chrome 121.0.0.0","1280x800","1280x673",NA,NA,0,"BIQ (Charlotte)",2,"In","EFDGCHBIAJLK",NA,"In",4,"Spreadsheet1","Spreadsheet1",1,"BIQ","Screen 1","9dh6eq",1,"response","6",18216.484,47732.284,47748.984,18216.484,47732.284,47748.984,1,18216.484,29532.5,0,NA,"Rating Scale","Rating Scale",3,"object-5","BIQ",NA,"MDPRF54374"
"4",1707930989510,"14/02/2024 17:16:29",1707930989510,0,"14/02/2024 17:16:29",163173,5,"questionnaire-uu2n",NA,35149845,10387555,NA,"complete",NA,"65ccf482e1bae130ba2a80c2","computer","Desktop or Laptop","Windows 10","Chrome 121.0.0.0","1280x800","1280x673",NA,NA,0,"BIQ (Charlotte)",2,"In","EFDGCHBIAJLK",NA,"In",4,"Spreadsheet1","Spreadsheet1",1,"BIQ","Screen 1","9dh6eq",1,"response","7",42782.484,47732.284,47748.984,42782.484,47732.284,47748.984,1,42782.484,4966.49999999999,0,NA,"Rating Scale","Rating Scale",10,"object-18","BIQ",NA,"MDPRF54374"
"5",1707930989512,"14/02/2024 17:16:29",1707930989512,0,"14/02/2024 17:16:29",163173,5,"questionnaire-uu2n",NA,35149845,10387555,NA,"complete",NA,"65ccf482e1bae130ba2a80c2","computer","Desktop or Laptop","Windows 10","Chrome 121.0.0.0","1280x800","1280x673",NA,NA,0,"BIQ (Charlotte)",2,"In","EFDGCHBIAJLK",NA,"In",4,"Spreadsheet1","Spreadsheet1",1,"BIQ","Screen 1","9dh6eq",1,"response","0",46715.684,47732.284,47748.984,46715.684,47732.284,47748.984,1,46715.684,1033.3,0,NA,"Rating Scale","Rating Scale",17,"object-80","BIQ",NA,"MDPRF54374"
"6",1707931082987,"14/02/2024 17:18:02",1707931082987,0,"14/02/2024 17:18:02",163173,5,"questionnaire-uu2n",NA,35149845,10387555,NA,"complete",NA,"65ccf482e1bae130ba2a80c2","computer","Desktop or Laptop","Windows 10","Chrome 121.0.0.0","1280x800","1280x673",NA,NA,0,"BIQ (Charlotte)",2,"In","EFDGCHBIAJLK",NA,"In",4,"Spreadsheet1","Spreadsheet1",1,"BIQ","Screen 2","o21mwi",2,"continue","",93514.7,93497.9,93514.7,93514.7,93497.9,93514.7,1,93514.7,0,0,NA,"Click To Continue","Continue Button",22,"object-50","BIQ",NA,"MDPRF54374"
"7",1707931082993,"14/02/2024 17:18:02",1707931082993,0,"14/02/2024 17:18:02",163173,5,"questionnaire-uu2n",NA,35149845,10387555,NA,"complete",NA,"65ccf482e1bae130ba2a80c2","computer","Desktop or Laptop","Windows 10","Chrome 121.0.0.0","1280x800","1280x673",NA,NA,0,"BIQ (Charlotte)",2,"In","EFDGCHBIAJLK",NA,"In",4,"Spreadsheet1","Spreadsheet1",1,"BIQ","Screen 2","o21mwi",2,"response","8",6083.2,93497.9,93514.7,6083.2,93497.9,93514.7,1,6083.2,87431.5,0,NA,"Rating Scale","Rating Scale",2,"object-259","BIQ",NA,"MDPRF54374"
"8",1707931082995,"14/02/2024 17:18:02",1707931082995,0,"14/02/2024 17:18:02",163173,5,"questionnaire-uu2n",NA,35149845,10387555,NA,"complete",NA,"65ccf482e1bae130ba2a80c2","computer","Desktop or Laptop","Windows 10","Chrome 121.0.0.0","1280x800","1280x673",NA,NA,0,"BIQ (Charlotte)",2,"In","EFDGCHBIAJLK",NA,"In",4,"Spreadsheet1","Spreadsheet1",1,"BIQ","Screen 2","o21mwi",2,"response","0",9933.1,93497.9,93514.7,9933.1,93497.9,93514.7,1,9933.1,83581.6,0,NA,"Rating Scale","Rating Scale",9,"object-36","BIQ",NA,"MDPRF54374"
"9",1707931082996,"14/02/2024 17:18:02",1707931082996,0,"14/02/2024 17:18:02",163173,5,"questionnaire-uu2n",NA,35149845,10387555,NA,"complete",NA,"65ccf482e1bae130ba2a80c2","computer","Desktop or Laptop","Windows 10","Chrome 121.0.0.0","1280x800","1280x673",NA,NA,0,"BIQ (Charlotte)",2,"In","EFDGCHBIAJLK",NA,"In",4,"Spreadsheet1","Spreadsheet1",1,"BIQ","Screen 2","o21mwi",2,"response","0",92331.2,93497.9,93514.7,92331.2,93497.9,93514.7,1,92331.2,1183.5,0,NA,"Rating Scale","Rating Scale",16,"object-86","BIQ",NA,"MDPRF54374"
"10",1707931089510,"14/02/2024 17:18:09",1707931089510,0,"14/02/2024 17:18:09",163173,5,"questionnaire-uu2n",NA,35149845,10387555,NA,"complete",NA,"65ccf482e1bae130ba2a80c2","computer","Desktop or Laptop","Windows 10","Chrome 121.0.0.0","1280x800","1280x673",NA,NA,0,"BIQ (Charlotte)",2,"In","EFDGCHBIAJLK",NA,"In",4,"Spreadsheet1","Spreadsheet1",1,"BIQ","Screen 3","iz3the",3,"continue","",6540.80000000005,6534,6540.80000000005,6540.80000000005,6534,6540.80000000005,1,6540.80000000005,0,0,NA,"Click To Continue","Continue Button",22,"object-73","BIQ",NA,"MDPRF54374"
"11",1707931116914,"14/02/2024 17:18:36",1707931116914,0,"14/02/2024 17:18:36",163173,5,"questionnaire-uu2n",NA,35149845,10387555,NA,"complete",NA,"65ccf482e1bae130ba2a80c2","computer","Desktop or Laptop","Windows 10","Chrome 121.0.0.0","1280x800","1280x673",NA,NA,0,"BIQ (Charlotte)",2,"In","EFDGCHBIAJLK",NA,"In",4,"Spreadsheet1","Spreadsheet1",1,"BIQ","Screen 3","iz3the",3,"continue","",33945.2,33932.5,33945.2,33945.2,33932.5,33945.2,1,33945.2,0,0,NA,"Click To Continue","Continue Button",22,"object-73","BIQ",NA,"MDPRF54374"
"12",1707931116921,"14/02/2024 17:18:36",1707931116921,0,"14/02/2024 17:18:36",163173,5,"questionnaire-uu2n",NA,35149845,10387555,NA,"complete",NA,"65ccf482e1bae130ba2a80c2","computer","Desktop or Laptop","Windows 10","Chrome 121.0.0.0","1280x800","1280x673",NA,NA,0,"BIQ (Charlotte)",2,"In","EFDGCHBIAJLK",NA,"In",4,"Spreadsheet1","Spreadsheet1",1,"BIQ","Screen 3","iz3the",3,"response","0",9649.60000000001,33932.5,33949.2,9649.60000000001,33932.5,33949.2,1,9649.60000000001,24299.6,0,NA,"Rating Scale","Rating Scale",2,"object-53","BIQ",NA,"MDPRF54374"
"13",1707931116923,"14/02/2024 17:18:36",1707931116923,0,"14/02/2024 17:18:36",163173,5,"questionnaire-uu2n",NA,35149845,10387555,NA,"complete",NA,"65ccf482e1bae130ba2a80c2","computer","Desktop or Laptop","Windows 10","Chrome 121.0.0.0","1280x800","1280x673",NA,NA,0,"BIQ (Charlotte)",2,"In","EFDGCHBIAJLK",NA,"In",4,"Spreadsheet1","Spreadsheet1",1,"BIQ","Screen 3","iz3the",3,"response","0",15716.3,33932.5,33949.2,15716.3,33932.5,33949.2,1,15716.3,18232.9,0,NA,"Rating Scale","Rating Scale",9,"object-60","BIQ",NA,"MDPRF54374"
"14",1707931116925,"14/02/2024 17:18:36",1707931116925,0,"14/02/2024 17:18:36",163173,5,"questionnaire-uu2n",NA,35149845,10387555,NA,"complete",NA,"65ccf482e1bae130ba2a80c2","computer","Desktop or Laptop","Windows 10","Chrome 121.0.0.0","1280x800","1280x673",NA,NA,0,"BIQ (Charlotte)",2,"In","EFDGCHBIAJLK",NA,"In",4,"Spreadsheet1","Spreadsheet1",1,"BIQ","Screen 3","iz3the",3,"response","0",32199.2,33932.5,33949.2,32199.2,33932.5,33949.2,1,32199.2,1750,0,NA,"Rating Scale","Rating Scale",16,"object-67","BIQ",NA,"MDPRF54374"
"15",1707931116941,"14/02/2024 17:18:36",1707931116941,0,"14/02/2024 17:18:36",163173,5,"questionnaire-uu2n",NA,35149845,10387555,NA,"complete",NA,"65ccf482e1bae130ba2a80c2","computer","Desktop or Laptop","Windows 10","Chrome 121.0.0.0","1280x800","1280x673",NA,NA,0,"BIQ (Charlotte)",2,"In","EFDGCHBIAJLK",NA,"In",4,"Spreadsheet1","Spreadsheet1",NA,"","","",NA,"5","END",NA,NA,NA,NA,NA,NA,0,NA,NA,NA,NA,"","",NA,"","",NA,"MDPRF54374"
"1",1707931053061,"14/02/2024 17:17:33",1707931053061,0,"14/02/2024 17:17:33",163173,5,"questionnaire-uu2n",NA,35149984,10387526,NA,"complete",NA,"65ccf4349dae843a0d0f9880","computer","Desktop or Laptop","Mac OS 10.15.7","Chrome 121.0.0.0","1920x1080","1703x844",NA,NA,0,"BIQ (Charlotte)",2,"In","DECFBGAHLIKJ",NA,"In",2,"Spreadsheet1","Spreadsheet1",NA,"","","",NA,"5","BEGIN",NA,NA,NA,NA,NA,NA,0,NA,NA,NA,NA,"","",NA,"","",NA,"MDPRF02797"
"2",1707931081387,"14/02/2024 17:18:01",1707931081387,0,"14/02/2024 17:18:01",163173,5,"questionnaire-uu2n",NA,35149984,10387526,NA,"complete",NA,"65ccf4349dae843a0d0f9880","computer","Desktop or Laptop","Mac OS 10.15.7","Chrome 121.0.0.0","1920x1080","1703x844",NA,NA,0,"BIQ (Charlotte)",2,"In","DECFBGAHLIKJ",NA,"In",2,"Spreadsheet1","Spreadsheet1",1,"BIQ","Screen 1","9dh6eq",1,"continue","",28332.068,28314.768,28332.068,28332.068,28314.768,28332.068,1,28332.068,0,0,NA,"Click To Continue","Continue Button",23,"object-48","BIQ",NA,"MDPRF02797"
"3",1707931081389,"14/02/2024 17:18:01",1707931081389,0,"14/02/2024 17:18:01",163173,5,"questionnaire-uu2n",NA,35149984,10387526,NA,"complete",NA,"65ccf4349dae843a0d0f9880","computer","Desktop or Laptop","Mac OS 10.15.7","Chrome 121.0.0.0","1920x1080","1703x844",NA,NA,0,"BIQ (Charlotte)",2,"In","DECFBGAHLIKJ",NA,"In",2,"Spreadsheet1","Spreadsheet1",1,"BIQ","Screen 1","9dh6eq",1,"response","6",11212.268,28314.768,28332.268,11212.268,28314.768,28332.268,1,11212.268,17120,0,NA,"Rating Scale","Rating Scale",3,"object-5","BIQ",NA,"MDPRF02797"
"4",1707931081389,"14/02/2024 17:18:01",1707931081389,0,"14/02/2024 17:18:01",163173,5,"questionnaire-uu2n",NA,35149984,10387526,NA,"complete",NA,"65ccf4349dae843a0d0f9880","computer","Desktop or Laptop","Mac OS 10.15.7","Chrome 121.0.0.0","1920x1080","1703x844",NA,NA,0,"BIQ (Charlotte)",2,"In","DECFBGAHLIKJ",NA,"In",2,"Spreadsheet1","Spreadsheet1",1,"BIQ","Screen 1","9dh6eq",1,"response","6",18987.468,28314.768,28332.268,18987.468,28314.768,28332.268,1,18987.468,9344.8,0,NA,"Rating Scale","Rating Scale",10,"object-18","BIQ",NA,"MDPRF02797"
"5",1707931081389,"14/02/2024 17:18:01",1707931081389,0,"14/02/2024 17:18:01",163173,5,"questionnaire-uu2n",NA,35149984,10387526,NA,"complete",NA,"65ccf4349dae843a0d0f9880","computer","Desktop or Laptop","Mac OS 10.15.7","Chrome 121.0.0.0","1920x1080","1703x844",NA,NA,0,"BIQ (Charlotte)",2,"In","DECFBGAHLIKJ",NA,"In",2,"Spreadsheet1","Spreadsheet1",1,"BIQ","Screen 1","9dh6eq",1,"response","6",25544.568,28314.768,28332.268,25544.568,28314.768,28332.268,1,25544.568,2787.7,0,NA,"Rating Scale","Rating Scale",17,"object-80","BIQ",NA,"MDPRF02797"
"6",1707931099616,"14/02/2024 17:18:19",1707931099616,0,"14/02/2024 17:18:19",163173,5,"questionnaire-uu2n",NA,35149984,10387526,NA,"complete",NA,"65ccf4349dae843a0d0f9880","computer","Desktop or Laptop","Mac OS 10.15.7","Chrome 121.0.0.0","1920x1080","1703x844",NA,NA,0,"BIQ (Charlotte)",2,"In","DECFBGAHLIKJ",NA,"In",2,"Spreadsheet1","Spreadsheet1",1,"BIQ","Screen 2","o21mwi",2,"continue","",18250.6999999985,18236.3,18250.6999999985,18250.6999999985,18236.3,18250.6999999985,1,18250.6999999985,0,0,NA,"Click To Continue","Continue Button",22,"object-50","BIQ",NA,"MDPRF02797"
"7",1707931099618,"14/02/2024 17:18:19",1707931099618,0,"14/02/2024 17:18:19",163173,5,"questionnaire-uu2n",NA,35149984,10387526,NA,"complete",NA,"65ccf4349dae843a0d0f9880","computer","Desktop or Laptop","Mac OS 10.15.7","Chrome 121.0.0.0","1920x1080","1703x844",NA,NA,0,"BIQ (Charlotte)",2,"In","DECFBGAHLIKJ",NA,"In",2,"Spreadsheet1","Spreadsheet1",1,"BIQ","Screen 2","o21mwi",2,"response","7",4354.9,18236.3,18252.6,4354.9,18236.3,18252.6,1,4354.9,13897.7,0,NA,"Rating Scale","Rating Scale",2,"object-259","BIQ",NA,"MDPRF02797"
"8",1707931099618,"14/02/2024 17:18:19",1707931099618,0,"14/02/2024 17:18:19",163173,5,"questionnaire-uu2n",NA,35149984,10387526,NA,"complete",NA,"65ccf4349dae843a0d0f9880","computer","Desktop or Laptop","Mac OS 10.15.7","Chrome 121.0.0.0","1920x1080","1703x844",NA,NA,0,"BIQ (Charlotte)",2,"In","DECFBGAHLIKJ",NA,"In",2,"Spreadsheet1","Spreadsheet1",1,"BIQ","Screen 2","o21mwi",2,"response","7",7023.6,18236.3,18252.6,7023.6,18236.3,18252.6,1,7023.6,11229,0,NA,"Rating Scale","Rating Scale",9,"object-36","BIQ",NA,"MDPRF02797"
"9",1707931099619,"14/02/2024 17:18:19",1707931099619,0,"14/02/2024 17:18:19",163173,5,"questionnaire-uu2n",NA,35149984,10387526,NA,"complete",NA,"65ccf4349dae843a0d0f9880","computer","Desktop or Laptop","Mac OS 10.15.7","Chrome 121.0.0.0","1920x1080","1703x844",NA,NA,0,"BIQ (Charlotte)",2,"In","DECFBGAHLIKJ",NA,"In",2,"Spreadsheet1","Spreadsheet1",1,"BIQ","Screen 2","o21mwi",2,"response","5",14699.2,18236.3,18252.6,14699.2,18236.3,18252.6,1,14699.2,3553.4,0,NA,"Rating Scale","Rating Scale",16,"object-86","BIQ",NA,"MDPRF02797"
"10",1707931116818,"14/02/2024 17:18:36",1707931116818,0,"14/02/2024 17:18:36",163173,5,"questionnaire-uu2n",NA,35149984,10387526,NA,"complete",NA,"65ccf4349dae843a0d0f9880","computer","Desktop or Laptop","Mac OS 10.15.7","Chrome 121.0.0.0","1920x1080","1703x844",NA,NA,0,"BIQ (Charlotte)",2,"In","DECFBGAHLIKJ",NA,"In",2,"Spreadsheet1","Spreadsheet1",1,"BIQ","Screen 3","iz3the",3,"continue","",17216.700000003,17202,17216.700000003,17216.700000003,17202,17216.700000003,1,17216.700000003,0,0,NA,"Click To Continue","Continue Button",22,"object-73","BIQ",NA,"MDPRF02797"
"11",1707931116820,"14/02/2024 17:18:36",1707931116820,0,"14/02/2024 17:18:36",163173,5,"questionnaire-uu2n",NA,35149984,10387526,NA,"complete",NA,"65ccf4349dae843a0d0f9880","computer","Desktop or Laptop","Mac OS 10.15.7","Chrome 121.0.0.0","1920x1080","1703x844",NA,NA,0,"BIQ (Charlotte)",2,"In","DECFBGAHLIKJ",NA,"In",2,"Spreadsheet1","Spreadsheet1",1,"BIQ","Screen 3","iz3the",3,"response","1",8959.7,17202,17218.1,8959.7,17202,17218.1,1,8959.7,8258.4,0,NA,"Rating Scale","Rating Scale",2,"object-53","BIQ",NA,"MDPRF02797"
"12",1707931116820,"14/02/2024 17:18:36",1707931116820,0,"14/02/2024 17:18:36",163173,5,"questionnaire-uu2n",NA,35149984,10387526,NA,"complete",NA,"65ccf4349dae843a0d0f9880","computer","Desktop or Laptop","Mac OS 10.15.7","Chrome 121.0.0.0","1920x1080","1703x844",NA,NA,0,"BIQ (Charlotte)",2,"In","DECFBGAHLIKJ",NA,"In",2,"Spreadsheet1","Spreadsheet1",1,"BIQ","Screen 3","iz3the",3,"response","3",12431,17202,17218.1,12431,17202,17218.1,1,12431,4787.1,0,NA,"Rating Scale","Rating Scale",9,"object-60","BIQ",NA,"MDPRF02797"
"13",1707931116820,"14/02/2024 17:18:36",1707931116820,0,"14/02/2024 17:18:36",163173,5,"questionnaire-uu2n",NA,35149984,10387526,NA,"complete",NA,"65ccf4349dae843a0d0f9880","computer","Desktop or Laptop","Mac OS 10.15.7","Chrome 121.0.0.0","1920x1080","1703x844",NA,NA,0,"BIQ (Charlotte)",2,"In","DECFBGAHLIKJ",NA,"In",2,"Spreadsheet1","Spreadsheet1",1,"BIQ","Screen 3","iz3the",3,"response","1",15567.5,17202,17218.1,15567.5,17202,17218.1,1,15567.5,1650.6,0,NA,"Rating Scale","Rating Scale",16,"object-67","BIQ",NA,"MDPRF02797"
"14",1707931116824,"14/02/2024 17:18:36",1707931116824,0,"14/02/2024 17:18:36",163173,5,"questionnaire-uu2n",NA,35149984,10387526,NA,"complete",NA,"65ccf4349dae843a0d0f9880","computer","Desktop or Laptop","Mac OS 10.15.7","Chrome 121.0.0.0","1920x1080","1703x844",NA,NA,0,"BIQ (Charlotte)",2,"In","DECFBGAHLIKJ",NA,"In",2,"Spreadsheet1","Spreadsheet1",NA,"","","",NA,"5","END",NA,NA,NA,NA,NA,NA,0,NA,NA,NA,NA,"","",NA,"","",NA,"MDPRF02797"
"1",1707931132038,"14/02/2024 17:18:52",1707931132038,0,"14/02/2024 17:18:52",163173,5,"questionnaire-uu2n",NA,35150078,10387499,NA,"complete",NA,"65ccf3430ed0fd86d10054a7","computer","Desktop or Laptop","Windows 10","Chrome 121.0.0.0","1920x1080","958x943",NA,NA,0,"BIQ (Charlotte)",2,"In","JKILHAGBFCED",NA,"In",1,"Spreadsheet1","Spreadsheet1",NA,"","","",NA,"5","BEGIN",NA,NA,NA,NA,NA,NA,0,NA,NA,NA,NA,"","",NA,"","",NA,"MDPRF01065"
"2",1707931151683,"14/02/2024 17:19:11",1707931151683,0,"14/02/2024 17:19:11",163173,5,"questionnaire-uu2n",NA,35150078,10387499,NA,"complete",NA,"65ccf3430ed0fd86d10054a7","computer","Desktop or Laptop","Windows 10","Chrome 121.0.0.0","1920x1080","958x943",NA,NA,0,"BIQ (Charlotte)",2,"In","JKILHAGBFCED",NA,"In",1,"Spreadsheet1","Spreadsheet1",1,"BIQ","Screen 1","9dh6eq",1,"continue","",19648.5,19644.5,19648.5,19648.5,19644.5,19648.5,1,19648.5,0,0,NA,"Click To Continue","Continue Button",23,"object-48","BIQ",NA,"MDPRF01065"
"3",1707931151684,"14/02/2024 17:19:11",1707931151684,0,"14/02/2024 17:19:11",163173,5,"questionnaire-uu2n",NA,35150078,10387499,NA,"complete",NA,"65ccf3430ed0fd86d10054a7","computer","Desktop or Laptop","Windows 10","Chrome 121.0.0.0","1920x1080","958x943",NA,NA,0,"BIQ (Charlotte)",2,"In","JKILHAGBFCED",NA,"In",1,"Spreadsheet1","Spreadsheet1",1,"BIQ","Screen 1","9dh6eq",1,"response","1",9618,19644.5,19648.5,9618,19644.5,19648.5,1,9618,10030.5,0,NA,"Rating Scale","Rating Scale",3,"object-5","BIQ",NA,"MDPRF01065"
"4",1707931151684,"14/02/2024 17:19:11",1707931151684,0,"14/02/2024 17:19:11",163173,5,"questionnaire-uu2n",NA,35150078,10387499,NA,"complete",NA,"65ccf3430ed0fd86d10054a7","computer","Desktop or Laptop","Windows 10","Chrome 121.0.0.0","1920x1080","958x943",NA,NA,0,"BIQ (Charlotte)",2,"In","JKILHAGBFCED",NA,"In",1,"Spreadsheet1","Spreadsheet1",1,"BIQ","Screen 1","9dh6eq",1,"response","0",14768.8,19644.5,19648.5,14768.8,19644.5,19648.5,1,14768.8,4879.7,0,NA,"Rating Scale","Rating Scale",10,"object-18","BIQ",NA,"MDPRF01065"
"5",1707931151684,"14/02/2024 17:19:11",1707931151684,0,"14/02/2024 17:19:11",163173,5,"questionnaire-uu2n",NA,35150078,10387499,NA,"complete",NA,"65ccf3430ed0fd86d10054a7","computer","Desktop or Laptop","Windows 10","Chrome 121.0.0.0","1920x1080","958x943",NA,NA,0,"BIQ (Charlotte)",2,"In","JKILHAGBFCED",NA,"In",1,"Spreadsheet1","Spreadsheet1",1,"BIQ","Screen 1","9dh6eq",1,"response","7",19235.7,19644.5,19648.5,19235.7,19644.5,19648.5,1,19235.7,412.799999999999,0,NA,"Rating Scale","Rating Scale",17,"object-80","BIQ",NA,"MDPRF01065"
"6",1707931167690,"14/02/2024 17:19:27",1707931167690,0,"14/02/2024 17:19:27",163173,5,"questionnaire-uu2n",NA,35150078,10387499,NA,"complete",NA,"65ccf3430ed0fd86d10054a7","computer","Desktop or Laptop","Windows 10","Chrome 121.0.0.0","1920x1080","958x943",NA,NA,0,"BIQ (Charlotte)",2,"In","JKILHAGBFCED",NA,"In",1,"Spreadsheet1","Spreadsheet1",1,"BIQ","Screen 2","o21mwi",2,"continue","",16014.1000000015,16012.2,16014.1000000015,16014.1000000015,16012.2,16014.1000000015,1,16014.1000000015,0,0,NA,"Click To Continue","Continue Button",22,"object-50","BIQ",NA,"MDPRF01065"
"7",1707931167692,"14/02/2024 17:19:27",1707931167692,0,"14/02/2024 17:19:27",163173,5,"questionnaire-uu2n",NA,35150078,10387499,NA,"complete",NA,"65ccf3430ed0fd86d10054a7","computer","Desktop or Laptop","Windows 10","Chrome 121.0.0.0","1920x1080","958x943",NA,NA,0,"BIQ (Charlotte)",2,"In","JKILHAGBFCED",NA,"In",1,"Spreadsheet1","Spreadsheet1",1,"BIQ","Screen 2","o21mwi",2,"response","1",5601.4,16012.2,16015.400000006,5601.4,16012.2,16015.400000006,1,5601.4,10414.000000006,0,NA,"Rating Scale","Rating Scale",2,"object-259","BIQ",NA,"MDPRF01065"
"8",1707931167692,"14/02/2024 17:19:27",1707931167692,0,"14/02/2024 17:19:27",163173,5,"questionnaire-uu2n",NA,35150078,10387499,NA,"complete",NA,"65ccf3430ed0fd86d10054a7","computer","Desktop or Laptop","Windows 10","Chrome 121.0.0.0","1920x1080","958x943",NA,NA,0,"BIQ (Charlotte)",2,"In","JKILHAGBFCED",NA,"In",1,"Spreadsheet1","Spreadsheet1",1,"BIQ","Screen 2","o21mwi",2,"response","1",8112.3,16012.2,16015.700000003,8112.3,16012.2,16015.700000003,1,8112.3,7903.40000000298,0,NA,"Rating Scale","Rating Scale",9,"object-36","BIQ",NA,"MDPRF01065"
"9",1707931167692,"14/02/2024 17:19:27",1707931167692,0,"14/02/2024 17:19:27",163173,5,"questionnaire-uu2n",NA,35150078,10387499,NA,"complete",NA,"65ccf3430ed0fd86d10054a7","computer","Desktop or Laptop","Windows 10","Chrome 121.0.0.0","1920x1080","958x943",NA,NA,0,"BIQ (Charlotte)",2,"In","JKILHAGBFCED",NA,"In",1,"Spreadsheet1","Spreadsheet1",1,"BIQ","Screen 2","o21mwi",2,"response","8",15365.3,16012.2,16015.900000006,15365.3,16012.2,16015.900000006,1,15365.3,650.600000005958,0,NA,"Rating Scale","Rating Scale",16,"object-86","BIQ",NA,"MDPRF01065"
"10",1707931180048,"14/02/2024 17:19:40",1707931180048,0,"14/02/2024 17:19:40",163173,5,"questionnaire-uu2n",NA,35150078,10387499,NA,"complete",NA,"65ccf3430ed0fd86d10054a7","computer","Desktop or Laptop","Windows 10","Chrome 121.0.0.0","1920x1080","958x943",NA,NA,0,"BIQ (Charlotte)",2,"In","JKILHAGBFCED",NA,"In",1,"Spreadsheet1","Spreadsheet1",1,"BIQ","Screen 3","iz3the",3,"continue","",12359.6000000045,12357.6,12359.6000000045,12359.6000000045,12357.6,12359.6000000045,1,12359.6000000045,0,0,NA,"Click To Continue","Continue Button",22,"object-73","BIQ",NA,"MDPRF01065"
"11",1707931180050,"14/02/2024 17:19:40",1707931180050,0,"14/02/2024 17:19:40",163173,5,"questionnaire-uu2n",NA,35150078,10387499,NA,"complete",NA,"65ccf3430ed0fd86d10054a7","computer","Desktop or Laptop","Windows 10","Chrome 121.0.0.0","1920x1080","958x943",NA,NA,0,"BIQ (Charlotte)",2,"In","JKILHAGBFCED",NA,"In",1,"Spreadsheet1","Spreadsheet1",1,"BIQ","Screen 3","iz3the",3,"response","1",6877.3,12357.6,12361.1000000045,6877.3,12357.6,12361.1000000045,1,6877.3,5483.80000000447,0,NA,"Rating Scale","Rating Scale",2,"object-53","BIQ",NA,"MDPRF01065"
"12",1707931180050,"14/02/2024 17:19:40",1707931180050,0,"14/02/2024 17:19:40",163173,5,"questionnaire-uu2n",NA,35150078,10387499,NA,"complete",NA,"65ccf3430ed0fd86d10054a7","computer","Desktop or Laptop","Windows 10","Chrome 121.0.0.0","1920x1080","958x943",NA,NA,0,"BIQ (Charlotte)",2,"In","JKILHAGBFCED",NA,"In",1,"Spreadsheet1","Spreadsheet1",1,"BIQ","Screen 3","iz3the",3,"response","8",8737.4,12357.6,12361.3,8737.4,12357.6,12361.3,1,8737.4,3623.9,0,NA,"Rating Scale","Rating Scale",9,"object-60","BIQ",NA,"MDPRF01065"
"13",1707931180050,"14/02/2024 17:19:40",1707931180050,0,"14/02/2024 17:19:40",163173,5,"questionnaire-uu2n",NA,35150078,10387499,NA,"complete",NA,"65ccf3430ed0fd86d10054a7","computer","Desktop or Laptop","Windows 10","Chrome 121.0.0.0","1920x1080","958x943",NA,NA,0,"BIQ (Charlotte)",2,"In","JKILHAGBFCED",NA,"In",1,"Spreadsheet1","Spreadsheet1",1,"BIQ","Screen 3","iz3the",3,"response","7",11427.6,12357.6,12361.500000003,11427.6,12357.6,12361.500000003,1,11427.6,933.900000002977,0,NA,"Rating Scale","Rating Scale",16,"object-67","BIQ",NA,"MDPRF01065"
"14",1707931180053,"14/02/2024 17:19:40",1707931180053,0,"14/02/2024 17:19:40",163173,5,"questionnaire-uu2n",NA,35150078,10387499,NA,"complete",NA,"65ccf3430ed0fd86d10054a7","computer","Desktop or Laptop","Windows 10","Chrome 121.0.0.0","1920x1080","958x943",NA,NA,0,"BIQ (Charlotte)",2,"In","JKILHAGBFCED",NA,"In",1,"Spreadsheet1","Spreadsheet1",NA,"","","",NA,"5","END",NA,NA,NA,NA,NA,NA,0,NA,NA,NA,NA,"","",NA,"","",NA,"MDPRF01065"
"1",1707931240806,"14/02/2024 17:20:40",1707931240806,0,"14/02/2024 17:20:40",163173,5,"questionnaire-uu2n",NA,35150198,10387501,NA,"complete",NA,"65ccf3b1079131ffd5cbe632","computer","Desktop or Laptop","Mac OS 10.15.7","Chrome 121.0.0.0","1440x900","1440x815",NA,NA,0,"BIQ (Charlotte)",2,"In","KLJAIBHCGDFE",NA,"In",1,"Spreadsheet1","Spreadsheet1",NA,"","","",NA,"5","BEGIN",NA,NA,NA,NA,NA,NA,0,NA,NA,NA,NA,"","",NA,"","",NA,"MDPRF88213"
"2",1707931264533,"14/02/2024 17:21:04",1707931264533,0,"14/02/2024 17:21:04",163173,5,"questionnaire-uu2n",NA,35150198,10387501,NA,"complete",NA,"65ccf3b1079131ffd5cbe632","computer","Desktop or Laptop","Mac OS 10.15.7","Chrome 121.0.0.0","1440x900","1440x815",NA,NA,0,"BIQ (Charlotte)",2,"In","KLJAIBHCGDFE",NA,"In",1,"Spreadsheet1","Spreadsheet1",1,"BIQ","Screen 1","9dh6eq",1,"continue","",23736.2,23702.9,23736.2,23736.2,23702.9,23736.2,1,23736.2,0,0,NA,"Click To Continue","Continue Button",23,"object-48","BIQ",NA,"MDPRF88213"
"3",1707931264535,"14/02/2024 17:21:04",1707931264535,0,"14/02/2024 17:21:04",163173,5,"questionnaire-uu2n",NA,35150198,10387501,NA,"complete",NA,"65ccf3b1079131ffd5cbe632","computer","Desktop or Laptop","Mac OS 10.15.7","Chrome 121.0.0.0","1440x900","1440x815",NA,NA,0,"BIQ (Charlotte)",2,"In","KLJAIBHCGDFE",NA,"In",1,"Spreadsheet1","Spreadsheet1",1,"BIQ","Screen 1","9dh6eq",1,"response","4",7068.3,23702.9,23736.2,7068.3,23702.9,23736.2,1,7068.3,16667.9,0,NA,"Rating Scale","Rating Scale",3,"object-5","BIQ",NA,"MDPRF88213"
