"Event.Index","UTC.Timestamp","UTC.Date.and.Time","Local.Timestamp","Local.Timezone","Local.Date.and.Time","Experiment.ID","Experiment.Version","Tree.Node.Key","Repeat.Key","Schedule.ID","Participant.Private.ID","Participant.Starting.Group","Participant.Status","Participant.Completion.Code","Participant.External.Session.ID","Participant.Device.Type","Participant.Device","Participant.OS","Participant.Browser","Participant.Monitor.Size","Participant.Viewport.Size","Checkpoint","Room.ID","Room.Order","Task.Name","Task.Version","branch.hkzp","order.ot79","branch.mcuq","branch.4fv7","randomiser.k5rb","randomiser.rz7w","Spreadsheet","Current.Spreadsheet","Trial.Number","Display","Screen","Screen.ID","Screen.Counter","Response.Type","Response","Onset.Time","Clock.Time","Reaction.Time","Absolute.Onset.Time","Absolute.Clock.Time","Absolute.Reaction.Time","Correct","Response.Onset","Response.Duration","Proportion","Tag","Component.Name","Object.Name","Object.Number","Object.ID","Spreadsheet..display","Spreadsheet..Emo","Spreadsheet..LHS_Lab","Spreadsheet..RHS_Lab","Spreadsheet..rand_M","Spreadsheet..Answer","Spreadsheet..C_points","Spreadsheet..L_points","Spreadsheet..W_points","Spreadsheet..rand_G","Manipulation..Spreadsheet","Store..Choice","Store..total","Store..total_score","Store..pounds","Store..total_money","Store..partA","Store..MoneyReward","Store..pointsPR","Random_ID"
"1",1727179677990,"24/09/2024 12:07:57",1727183277990,1,"24/09/2024 14:07:57",187387,9,"task-7wst",NA,40225743,11743984,NA,"complete",NA,"66f2a1421a5dd6b70344aa8d","computer","Desktop or Laptop","Windows 10","Chrome 129.0.0.0","1544x872","1536x864",NA,NA,0,"Gambling_GBO",12,"In","ABKCJDIEHFG",NA,"In","HM_OCT","seq1","Gamble_Rand_Seq1","Gamble_Rand_Seq1",NA,"","","",NA,"info","START SUBSYSTEM base.component.fullscreenSubsystem",NA,NA,NA,NA,NA,NA,0,NA,NA,NA,NA,"","",NA,"","","","","",NA,"",NA,NA,NA,NA,NA,"",NA,NA,NA,NA,NA,NA,NA,"MDPRF10753"
"2",1727179677992,"24/09/2024 12:07:57",1727183277992,1,"24/09/2024 14:07:57",187387,9,"task-7wst",NA,40225743,11743984,NA,"complete",NA,"66f2a1421a5dd6b70344aa8d","computer","Desktop or Laptop","Windows 10","Chrome 129.0.0.0","1544x872","1536x864",NA,NA,0,"Gambling_GBO",12,"In","ABKCJDIEHFG",NA,"In","HM_OCT","seq1","Gamble_Rand_Seq1","Gamble_Rand_Seq1",NA,"","","",NA,"info","SUBSYSTEM READY base.component.fullscreenSubsystem",NA,NA,NA,NA,NA,NA,0,NA,NA,NA,NA,"","",NA,"","","","","",NA,"",NA,NA,NA,NA,NA,"",NA,NA,NA,NA,NA,NA,NA,"MDPRF10753"
"3",1727179678011,"24/09/2024 12:07:58",1727183278011,1,"24/09/2024 14:07:58",187387,9,"task-7wst",NA,40225743,11743984,NA,"complete",NA,"66f2a1421a5dd6b70344aa8d","computer","Desktop or Laptop","Windows 10","Chrome 129.0.0.0","1544x872","1536x864",NA,NA,0,"Gambling_GBO",12,"In","ABKCJDIEHFG",NA,"In","HM_OCT","seq1","Gamble_Rand_Seq1","Gamble_Rand_Seq1",NA,"","","",NA,"info","BEGIN",NA,NA,NA,NA,NA,NA,0,NA,NA,NA,NA,"","",NA,"","","","","",NA,"",NA,NA,NA,NA,NA,"",NA,NA,NA,NA,NA,NA,NA,"MDPRF10753"
"4",1727179679188,"24/09/2024 12:07:59",1727183279188,1,"24/09/2024 14:07:59",187387,9,"task-7wst",NA,40225743,11743984,NA,"complete",NA,"66f2a1421a5dd6b70344aa8d","computer","Desktop or Laptop","Windows 10","Chrome 129.0.0.0","1544x872","1536x864",NA,NA,0,"Gambling_GBO",12,"In","ABKCJDIEHFG",NA,"In","HM_OCT","seq1","Gamble_Rand_Seq1","Gamble_Rand_Seq1",1,"Intro","Screen 1","u1aumm",1,"continue","",1208.676,1198.676,1208.676,1208.676,1198.676,1208.676,1,1208.676,0,0,NA,"Click To Continue","Continue Button",2,"object-37171","Intro","","","",NA,"",NA,NA,NA,NA,NA,"",NA,NA,NA,NA,NA,NA,NA,"MDPRF10753"
"5",1727179679838,"24/09/2024 12:07:59",1727183279838,1,"24/09/2024 14:07:59",187387,9,"task-7wst",NA,40225743,11743984,NA,"complete",NA,"66f2a1421a5dd6b70344aa8d","computer","Desktop or Laptop","Windows 10","Chrome 129.0.0.0","1544x872","1536x864",NA,NA,0,"Gambling_GBO",12,"In","ABKCJDIEHFG",NA,"In","HM_OCT","seq1","Gamble_Rand_Seq1","Gamble_Rand_Seq1",1,"Instructions","Screen 1","rfymdc",1,"continue","",660,650,660,660,650,660,1,660,0,0,NA,"Click To Continue","Continue Button",2,"object-3","Instructions","","","",NA,"",NA,NA,NA,NA,NA,"",NA,NA,NA,NA,NA,NA,NA,"MDPRF10753"
"6",1727179689821,"24/09/2024 12:08:09",1727183289821,1,"24/09/2024 14:08:09",187387,9,"task-7wst",NA,40225743,11743984,NA,"complete",NA,"66f2a1421a5dd6b70344aa8d","computer","Desktop or Laptop","Windows 10","Chrome 129.0.0.0","1544x872","1536x864",NA,NA,0,"Gambling_GBO",12,"In","ABKCJDIEHFG",NA,"In","HM_OCT","seq1","Gamble_Rand_Seq1","Gamble_Rand_Seq1",1,"Instructions","Screen 2","x2kpu8",2,"continue","",9994,9990,9994,9994,9990,9994,1,9994,0,0,NA,"Click To Continue","Continue Button",2,"object-22021","Instructions","","","",NA,"",NA,NA,NA,NA,NA,"",NA,NA,NA,NA,NA,NA,NA,"MDPRF10753"
"7",1727179691011,"24/09/2024 12:08:11",1727183291011,1,"24/09/2024 14:08:11",187387,9,"task-7wst",NA,40225743,11743984,NA,"complete",NA,"66f2a1421a5dd6b70344aa8d","computer","Desktop or Laptop","Windows 10","Chrome 129.0.0.0","1544x872","1536x864",NA,NA,0,"Gambling_GBO",12,"In","ABKCJDIEHFG",NA,"In","HM_OCT","seq1","Gamble_Rand_Seq1","Gamble_Rand_Seq1",1,"Instructions","Screen 3","o6zm7t",3,"continue","",1193,1183,1193,1193,1183,1193,1,1193,0,0,NA,"Click To Continue","Continue Button",2,"object-225","Instructions","","","",NA,"",NA,NA,NA,NA,NA,"",NA,NA,NA,NA,NA,NA,NA,"MDPRF10753"
"8",1727179692829,"24/09/2024 12:08:12",1727183292829,1,"24/09/2024 14:08:12",187387,9,"task-7wst",NA,40225743,11743984,NA,"complete",NA,"66f2a1421a5dd6b70344aa8d","computer","Desktop or Laptop","Windows 10","Chrome 129.0.0.0","1544x872","1536x864",NA,NA,0,"Gambling_GBO",12,"In","ABKCJDIEHFG",NA,"In","HM_OCT","seq1","Gamble_Rand_Seq1","Gamble_Rand_Seq1",1,"Instructions","Screen 4","3hq7c2",4,"continue","",1828,1815,1828,1828,1815,1828,1,1828,0,0,NA,"Click To Continue","Continue Button",4,"object-380","Instructions","","","",NA,"",NA,NA,NA,NA,NA,"",NA,NA,NA,NA,NA,NA,NA,"MDPRF10753"
"9",1727179693665,"24/09/2024 12:08:13",1727183293665,1,"24/09/2024 14:08:13",187387,9,"task-7wst",NA,40225743,11743984,NA,"complete",NA,"66f2a1421a5dd6b70344aa8d","computer","Desktop or Laptop","Windows 10","Chrome 129.0.0.0","1544x872","1536x864",NA,NA,0,"Gambling_GBO",12,"In","ABKCJDIEHFG",NA,"In","HM_OCT","seq1","Gamble_Rand_Seq1","Gamble_Rand_Seq1",1,"Instructions","Screen 5","5jisqh",5,"continue","",848,832,848,848,832,848,1,848,0,0,NA,"Click To Continue","Continue Button",2,"object-233","Instructions","","","",NA,"",NA,NA,NA,NA,NA,"",NA,NA,NA,NA,NA,NA,NA,"MDPRF10753"
"10",1727179694312,"24/09/2024 12:08:14",1727183294312,1,"24/09/2024 14:08:14",187387,9,"task-7wst",NA,40225743,11743984,NA,"complete",NA,"66f2a1421a5dd6b70344aa8d","computer","Desktop or Laptop","Windows 10","Chrome 129.0.0.0","1544x872","1536x864",NA,NA,0,"Gambling_GBO",12,"In","ABKCJDIEHFG",NA,"In","HM_OCT","seq1","Gamble_Rand_Seq1","Gamble_Rand_Seq1",1,"Instructions","Screen 6","13xe5l",6,"continue","",665,650,665,665,650,665,1,665,0,0,NA,"Click To Continue","Continue Button",2,"object-237","Instructions","","","",NA,"",NA,NA,NA,NA,NA,"",NA,NA,NA,NA,NA,NA,NA,"MDPRF10753"
"11",1727179694801,"24/09/2024 12:08:14",1727183294801,1,"24/09/2024 14:08:14",187387,9,"task-7wst",NA,40225743,11743984,NA,"complete",NA,"66f2a1421a5dd6b70344aa8d","computer","Desktop or Laptop","Windows 10","Chrome 129.0.0.0","1544x872","1536x864",NA,NA,0,"Gambling_GBO",12,"In","ABKCJDIEHFG",NA,"In","HM_OCT","seq1","Gamble_Rand_Seq1","Gamble_Rand_Seq1",1,"Instructions","Screen 7","re2b58",7,"continue","",504,500,504,504,500,504,1,504,0,0,NA,"Click To Continue","Continue Button",2,"object-241","Instructions","","","",NA,"",NA,NA,NA,NA,NA,"",NA,NA,NA,NA,NA,NA,NA,"MDPRF10753"
"12",1727179694808,"24/09/2024 12:08:14",1727183294808,1,"24/09/2024 14:08:14",187387,9,"task-7wst",NA,40225743,11743984,NA,"complete",NA,"66f2a1421a5dd6b70344aa8d","computer","Desktop or Laptop","Windows 10","Chrome 129.0.0.0","1544x872","1536x864",NA,NA,0,"Gambling_GBO",12,"In","ABKCJDIEHFG",NA,"In","HM_OCT","seq1","Gamble_Rand_Seq1","Gamble_Rand_Seq1",1,"Rating","Screen 1","hx8b5a",1,"info","",11,0,11,11,0,11,1,11,0,0,NA,"Slider","MoodSlider",2,"object-243","Rating","happy","unhappy","happy",1,"",NA,NA,NA,NA,NA,"",NA,NA,NA,NA,NA,NA,NA,"MDPRF10753"
"13",1727179698286,"24/09/2024 12:08:18",1727183298286,1,"24/09/2024 14:08:18",187387,9,"task-7wst",NA,40225743,11743984,NA,"complete",NA,"66f2a1421a5dd6b70344aa8d","computer","Desktop or Laptop","Windows 10","Chrome 129.0.0.0","1544x872","1536x864",NA,NA,0,"Gambling_GBO",12,"In","ABKCJDIEHFG",NA,"In","HM_OCT","seq1","Gamble_Rand_Seq1","Gamble_Rand_Seq1",1,"Rating","Screen 1","hx8b5a",1,"continue","",3489,3480,3489,3489,3480,3489,1,3489,0,0,NA,"Click To Continue","Continue Button",3,"object-25","Rating","happy","unhappy","happy",1,"",NA,NA,NA,NA,NA,"",NA,NA,NA,NA,NA,NA,NA,"MDPRF10753"
"14",1727179698287,"24/09/2024 12:08:18",1727183298287,1,"24/09/2024 14:08:18",187387,9,"task-7wst",NA,40225743,11743984,NA,"complete",NA,"66f2a1421a5dd6b70344aa8d","computer","Desktop or Laptop","Windows 10","Chrome 129.0.0.0","1544x872","1536x864",NA,NA,0,"Gambling_GBO",12,"In","ABKCJDIEHFG",NA,"In","HM_OCT","seq1","Gamble_Rand_Seq1","Gamble_Rand_Seq1",1,"Rating","Screen 1","hx8b5a",1,"response","54",2664,3480,3489,2664,3480,3489,1,2664,825,0,NA,"Slider","MoodSlider",2,"object-243","Rating","happy","unhappy","happy",1,"",NA,NA,NA,NA,NA,"",NA,NA,NA,NA,NA,NA,NA,"MDPRF10753"
"15",1727179698292,"24/09/2024 12:08:18",1727183298292,1,"24/09/2024 14:08:18",187387,9,"task-7wst",NA,40225743,11743984,NA,"complete",NA,"66f2a1421a5dd6b70344aa8d","computer","Desktop or Laptop","Windows 10","Chrome 129.0.0.0","1544x872","1536x864",NA,NA,0,"Gambling_GBO",12,"In","ABKCJDIEHFG",NA,"In","HM_OCT","seq1","Gamble_Rand_Seq1","Gamble_Rand_Seq1",2,"Rating","Screen 1","hx8b5a",1,"info","",15,0,15,15,0,15,1,15,0,0,NA,"Slider","MoodSlider",2,"object-243","Rating","bored","not bored","bored",1,"",NA,NA,NA,NA,NA,"",NA,NA,NA,NA,NA,NA,NA,"MDPRF10753"
"16",1727179698795,"24/09/2024 12:08:18",1727183298795,1,"24/09/2024 14:08:18",187387,9,"task-7wst",NA,40225743,11743984,NA,"complete",NA,"66f2a1421a5dd6b70344aa8d","computer","Desktop or Laptop","Windows 10","Chrome 129.0.0.0","1544x872","1536x864",NA,NA,0,"Gambling_GBO",12,"In","ABKCJDIEHFG",NA,"In","HM_OCT","seq1","Gamble_Rand_Seq1","Gamble_Rand_Seq1",2,"Rating","Screen 1","hx8b5a",1,"continue","",515,499,515,515,499,515,1,515,0,0,NA,"Click To Continue","Continue Button",3,"object-25","Rating","bored","not bored","bored",1,"",NA,NA,NA,NA,NA,"",NA,NA,NA,NA,NA,NA,NA,"MDPRF10753"
"17",1727179703229,"24/09/2024 12:08:23",1727183303229,1,"24/09/2024 14:08:23",187387,9,"task-7wst",NA,40225743,11743984,NA,"complete",NA,"66f2a1421a5dd6b70344aa8d","computer","Desktop or Laptop","Windows 10","Chrome 129.0.0.0","1544x872","1536x864",NA,NA,0,"Gambling_GBO",12,"In","ABKCJDIEHFG",NA,"In","HM_OCT","seq1","Gamble_Rand_Seq1","Gamble_Rand_Seq1",2,"Rating","Screen 1","hx8b5a",1,"continue","",4952,4946,4952,4952,4946,4952,1,4952,0,0,NA,"Click To Continue","Continue Button",3,"object-25","Rating","bored","not bored","bored",1,"",NA,NA,NA,NA,NA,"",NA,NA,NA,NA,NA,NA,NA,"MDPRF10753"
"18",1727179703232,"24/09/2024 12:08:23",1727183303232,1,"24/09/2024 14:08:23",187387,9,"task-7wst",NA,40225743,11743984,NA,"complete",NA,"66f2a1421a5dd6b70344aa8d","computer","Desktop or Laptop","Windows 10","Chrome 129.0.0.0","1544x872","1536x864",NA,NA,0,"Gambling_GBO",12,"In","ABKCJDIEHFG",NA,"In","HM_OCT","seq1","Gamble_Rand_Seq1","Gamble_Rand_Seq1",2,"Rating","Screen 1","hx8b5a",1,"response","46",3964,4946,4955,3964,4946,4955,1,3964,991,0,NA,"Slider","MoodSlider",2,"object-243","Rating","bored","not bored","bored",1,"",NA,NA,NA,NA,NA,"",NA,NA,NA,NA,NA,NA,NA,"MDPRF10753"
"19",1727179703237,"24/09/2024 12:08:23",1727183303237,1,"24/09/2024 14:08:23",187387,9,"task-7wst",NA,40225743,11743984,NA,"complete",NA,"66f2a1421a5dd6b70344aa8d","computer","Desktop or Laptop","Windows 10","Chrome 129.0.0.0","1544x872","1536x864",NA,NA,0,"Gambling_GBO",12,"In","ABKCJDIEHFG",NA,"In","HM_OCT","seq1","Gamble_Rand_Seq1","Gamble_Rand_Seq1",3,"Rating","Screen 1","hx8b5a",1,"info","",14,0,14,14,0,14,1,14,0,0,NA,"Slider","MoodSlider",2,"object-243","Rating","frustrated","not frustrated","frustrated",1,"",NA,NA,NA,NA,NA,"",NA,NA,NA,NA,NA,NA,NA,"MDPRF10753"
"20",1727179705225,"24/09/2024 12:08:25",1727183305225,1,"24/09/2024 14:08:25",187387,9,"task-7wst",NA,40225743,11743984,NA,"complete",NA,"66f2a1421a5dd6b70344aa8d","computer","Desktop or Laptop","Windows 10","Chrome 129.0.0.0","1544x872","1536x864",NA,NA,0,"Gambling_GBO",12,"In","ABKCJDIEHFG",NA,"In","HM_OCT","seq1","Gamble_Rand_Seq1","Gamble_Rand_Seq1",3,"Rating","Screen 1","hx8b5a",1,"continue","",2001,1998,2001,2001,1998,2001,1,2001,0,0,NA,"Click To Continue","Continue Button",3,"object-25","Rating","frustrated","not frustrated","frustrated",1,"",NA,NA,NA,NA,NA,"",NA,NA,NA,NA,NA,NA,NA,"MDPRF10753"
"21",1727179705225,"24/09/2024 12:08:25",1727183305225,1,"24/09/2024 14:08:25",187387,9,"task-7wst",NA,40225743,11743984,NA,"complete",NA,"66f2a1421a5dd6b70344aa8d","computer","Desktop or Laptop","Windows 10","Chrome 129.0.0.0","1544x872","1536x864",NA,NA,0,"Gambling_GBO",12,"In","ABKCJDIEHFG",NA,"In","HM_OCT","seq1","Gamble_Rand_Seq1","Gamble_Rand_Seq1",3,"Rating","Screen 1","hx8b5a",1,"response","53",1349,1998,2001,1349,1998,2001,1,1349,652,0,NA,"Slider","MoodSlider",2,"object-243","Rating","frustrated","not frustrated","frustrated",1,"",NA,NA,NA,NA,NA,"",NA,NA,NA,NA,NA,NA,NA,"MDPRF10753"
"22",1727179707188,"24/09/2024 12:08:27",1727183307188,1,"24/09/2024 14:08:27",187387,9,"task-7wst",NA,40225743,11743984,NA,"complete",NA,"66f2a1421a5dd6b70344aa8d","computer","Desktop or Laptop","Windows 10","Chrome 129.0.0.0","1544x872","1536x864",NA,NA,0,"Gambling_GBO",12,"In","ABKCJDIEHFG",NA,"In","HM_OCT","seq1","Gamble_Rand_Seq1","Gamble_Rand_Seq1",1,"lossB","Screen 1","a4fynh",1,"continue","",1965,1965,1965,1965,1965,1965,1,1965,0,0,NA,"Fixation Timing","Fixation",1,"object-113","lossB","","","",NA,"Right",5.33,4,8,1,NA,"",NA,NA,NA,NA,NA,NA,NA,"MDPRF10753"
"23",1727179709505,"24/09/2024 12:08:29",1727183309505,1,"24/09/2024 14:08:29",187387,9,"task-7wst",NA,40225743,11743984,NA,"complete",NA,"66f2a1421a5dd6b70344aa8d","computer","Desktop or Laptop","Windows 10","Chrome 129.0.0.0","1544x872","1536x864",NA,NA,0,"Gambling_GBO",12,"In","ABKCJDIEHFG",NA,"In","HM_OCT","seq1","Gamble_Rand_Seq1","Gamble_Rand_Seq1",1,"lossB","choice","k9qq8f",2,"response","Left",2318,2314,2318,2318,2314,2318,0,2318,0,0,NA,"Keyboard Response","KeyResponseC",5,"object-199","lossB","","","",NA,"Right",5.33,4,8,1,NA,"Left",NA,5.33,NA,NA,NA,NA,5.33,"MDPRF10753"
"24",1727179714506,"24/09/2024 12:08:34",1727183314506,1,"24/09/2024 14:08:34",187387,9,"task-7wst",NA,40225743,11743984,NA,"complete",NA,"66f2a1421a5dd6b70344aa8d","computer","Desktop or Laptop","Windows 10","Chrome 129.0.0.0","1544x872","1536x864",NA,NA,0,"Gambling_GBO",12,"In","ABKCJDIEHFG",NA,"In","HM_OCT","seq1","Gamble_Rand_Seq1","Gamble_Rand_Seq1",1,"lossB","certain","rptf8c",3,"timedOut","",5005,4997,5005,5005,4997,5005,1,5005,0,0,NA,"Time Limit","screen",0,"screen","lossB","","","",NA,"Right",5.33,4,8,1,NA,"Left",NA,5.33,NA,NA,NA,NA,5.33,"MDPRF10753"
"25",1727179714516,"24/09/2024 12:08:34",1727183314516,1,"24/09/2024 14:08:34",187387,9,"task-7wst",NA,40225743,11743984,NA,"complete",NA,"66f2a1421a5dd6b70344aa8d","computer","Desktop or Laptop","Windows 10","Chrome 129.0.0.0","1544x872","1536x864",NA,NA,0,"Gambling_GBO",12,"In","ABKCJDIEHFG",NA,"In","HM_OCT","seq1","Gamble_Rand_Seq1","Gamble_Rand_Seq1",4,"Rating","Screen 1","hx8b5a",1,"info","",18,0,18,18,0,18,1,18,0,0,NA,"Slider","MoodSlider",2,"object-243","Rating","frustrated","not frustrated","frustrated",2,"",NA,NA,NA,NA,NA,"Left",NA,5.33,NA,NA,NA,NA,5.33,"MDPRF10753"
"26",1727179718689,"24/09/2024 12:08:38",1727183318689,1,"24/09/2024 14:08:38",187387,9,"task-7wst",NA,40225743,11743984,NA,"complete",NA,"66f2a1421a5dd6b70344aa8d","computer","Desktop or Laptop","Windows 10","Chrome 129.0.0.0","1544x872","1536x864",NA,NA,0,"Gambling_GBO",12,"In","ABKCJDIEHFG",NA,"In","HM_OCT","seq1","Gamble_Rand_Seq1","Gamble_Rand_Seq1",4,"Rating","Screen 1","hx8b5a",1,"continue","",4192,4179,4192,4192,4179,4192,1,4192,0,0,NA,"Click To Continue","Continue Button",3,"object-25","Rating","frustrated","not frustrated","frustrated",2,"",NA,NA,NA,NA,NA,"Left",NA,5.33,NA,NA,NA,NA,5.33,"MDPRF10753"
"27",1727179718689,"24/09/2024 12:08:38",1727183318689,1,"24/09/2024 14:08:38",187387,9,"task-7wst",NA,40225743,11743984,NA,"complete",NA,"66f2a1421a5dd6b70344aa8d","computer","Desktop or Laptop","Windows 10","Chrome 129.0.0.0","1544x872","1536x864",NA,NA,0,"Gambling_GBO",12,"In","ABKCJDIEHFG",NA,"In","HM_OCT","seq1","Gamble_Rand_Seq1","Gamble_Rand_Seq1",4,"Rating","Screen 1","hx8b5a",1,"response","18",1897,4179,4192,1897,4179,4192,1,1897,2295,0,NA,"Slider","MoodSlider",2,"object-243","Rating","frustrated","not frustrated","frustrated",2,"",NA,NA,NA,NA,NA,"Left",NA,5.33,NA,NA,NA,NA,5.33,"MDPRF10753"
"28",1727179718695,"24/09/2024 12:08:38",1727183318695,1,"24/09/2024 14:08:38",187387,9,"task-7wst",NA,40225743,11743984,NA,"complete",NA,"66f2a1421a5dd6b70344aa8d","computer","Desktop or Laptop","Windows 10","Chrome 129.0.0.0","1544x872","1536x864",NA,NA,0,"Gambling_GBO",12,"In","ABKCJDIEHFG",NA,"In","HM_OCT","seq1","Gamble_Rand_Seq1","Gamble_Rand_Seq1",5,"Rating","Screen 1","hx8b5a",1,"info","",17,0,17,17,0,17,1,17,0,0,NA,"Slider","MoodSlider",2,"object-243","Rating","bored","not bored","bored",2,"",NA,NA,NA,NA,NA,"Left",NA,5.33,NA,NA,NA,NA,5.33,"MDPRF10753"
"29",1727179721708,"24/09/2024 12:08:41",1727183321708,1,"24/09/2024 14:08:41",187387,9,"task-7wst",NA,40225743,11743984,NA,"complete",NA,"66f2a1421a5dd6b70344aa8d","computer","Desktop or Laptop","Windows 10","Chrome 129.0.0.0","1544x872","1536x864",NA,NA,0,"Gambling_GBO",12,"In","ABKCJDIEHFG",NA,"In","HM_OCT","seq1","Gamble_Rand_Seq1","Gamble_Rand_Seq1",5,"Rating","Screen 1","hx8b5a",1,"continue","",3031,3030,3031,3031,3030,3031,1,3031,0,0,NA,"Click To Continue","Continue Button",3,"object-25","Rating","bored","not bored","bored",2,"",NA,NA,NA,NA,NA,"Left",NA,5.33,NA,NA,NA,NA,5.33,"MDPRF10753"
"30",1727179721708,"24/09/2024 12:08:41",1727183321708,1,"24/09/2024 14:08:41",187387,9,"task-7wst",NA,40225743,11743984,NA,"complete",NA,"66f2a1421a5dd6b70344aa8d","computer","Desktop or Laptop","Windows 10","Chrome 129.0.0.0","1544x872","1536x864",NA,NA,0,"Gambling_GBO",12,"In","ABKCJDIEHFG",NA,"In","HM_OCT","seq1","Gamble_Rand_Seq1","Gamble_Rand_Seq1",5,"Rating","Screen 1","hx8b5a",1,"response","19",1898,3030,3032,1898,3030,3032,1,1898,1134,0,NA,"Slider","MoodSlider",2,"object-243","Rating","bored","not bored","bored",2,"",NA,NA,NA,NA,NA,"Left",NA,5.33,NA,NA,NA,NA,5.33,"MDPRF10753"
"31",1727179721713,"24/09/2024 12:08:41",1727183321713,1,"24/09/2024 14:08:41",187387,9,"task-7wst",NA,40225743,11743984,NA,"complete",NA,"66f2a1421a5dd6b70344aa8d","computer","Desktop or Laptop","Windows 10","Chrome 129.0.0.0","1544x872","1536x864",NA,NA,0,"Gambling_GBO",12,"In","ABKCJDIEHFG",NA,"In","HM_OCT","seq1","Gamble_Rand_Seq1","Gamble_Rand_Seq1",6,"Rating","Screen 1","hx8b5a",1,"info","",7,0,7,7,0,7,1,7,0,0,NA,"Slider","MoodSlider",2,"object-243","Rating","happy","unhappy","happy",2,"",NA,NA,NA,NA,NA,"Left",NA,5.33,NA,NA,NA,NA,5.33,"MDPRF10753"
"32",1727179727670,"24/09/2024 12:08:47",1727183327670,1,"24/09/2024 14:08:47",187387,9,"task-7wst",NA,40225743,11743984,NA,"complete",NA,"66f2a1421a5dd6b70344aa8d","computer","Desktop or Laptop","Windows 10","Chrome 129.0.0.0","1544x872","1536x864",NA,NA,0,"Gambling_GBO",12,"In","ABKCJDIEHFG",NA,"In","HM_OCT","seq1","Gamble_Rand_Seq1","Gamble_Rand_Seq1",6,"Rating","Screen 1","hx8b5a",1,"continue","",5962,5945,5962,5962,5945,5962,1,5962,0,0,NA,"Click To Continue","Continue Button",3,"object-25","Rating","happy","unhappy","happy",2,"",NA,NA,NA,NA,NA,"Left",NA,5.33,NA,NA,NA,NA,5.33,"MDPRF10753"
"33",1727179727672,"24/09/2024 12:08:47",1727183327672,1,"24/09/2024 14:08:47",187387,9,"task-7wst",NA,40225743,11743984,NA,"complete",NA,"66f2a1421a5dd6b70344aa8d","computer","Desktop or Laptop","Windows 10","Chrome 129.0.0.0","1544x872","1536x864",NA,NA,0,"Gambling_GBO",12,"In","ABKCJDIEHFG",NA,"In","HM_OCT","seq1","Gamble_Rand_Seq1","Gamble_Rand_Seq1",6,"Rating","Screen 1","hx8b5a",1,"response","49",4912,5945,5962,4912,5945,5962,1,4912,1050,0,NA,"Slider","MoodSlider",2,"object-243","Rating","happy","unhappy","happy",2,"",NA,NA,NA,NA,NA,"Left",NA,5.33,NA,NA,NA,NA,5.33,"MDPRF10753"
"34",1727179729618,"24/09/2024 12:08:49",1727183329618,1,"24/09/2024 14:08:49",187387,9,"task-7wst",NA,40225743,11743984,NA,"complete",NA,"66f2a1421a5dd6b70344aa8d","computer","Desktop or Laptop","Windows 10","Chrome 129.0.0.0","1544x872","1536x864",NA,NA,0,"Gambling_GBO",12,"In","ABKCJDIEHFG",NA,"In","HM_OCT","seq1","Gamble_Rand_Seq1","Gamble_Rand_Seq1",2,"lossB","Screen 1","a4fynh",1,"continue","",1966,1966,1966,1966,1966,1966,1,1966,0,0,NA,"Fixation Timing","Fixation",1,"object-113","lossB","","","",NA,"Right",-2.67,-4,0,2,NA,"Left",NA,5.33,NA,NA,NA,NA,5.33,"MDPRF10753"
"35",1727179731691,"24/09/2024 12:08:51",1727183331691,1,"24/09/2024 14:08:51",187387,9,"task-7wst",NA,40225743,11743984,NA,"complete",NA,"66f2a1421a5dd6b70344aa8d","computer","Desktop or Laptop","Windows 10","Chrome 129.0.0.0","1544x872","1536x864",NA,NA,0,"Gambling_GBO",12,"In","ABKCJDIEHFG",NA,"In","HM_OCT","seq1","Gamble_Rand_Seq1","Gamble_Rand_Seq1",2,"lossB","choice","k9qq8f",2,"response","Right",2072,2064,2072,2072,2064,2072,1,2072,0,0,NA,"Keyboard Response","KeyResponseG",6,"object-200","lossB","","","",NA,"Right",-2.67,-4,0,2,NA,"Right",NA,1.33,NA,NA,NA,NA,-4,"MDPRF10753"
"36",1727179735680,"24/09/2024 12:08:55",1727183335680,1,"24/09/2024 14:08:55",187387,9,"task-7wst",NA,40225743,11743984,NA,"complete",NA,"66f2a1421a5dd6b70344aa8d","computer","Desktop or Laptop","Windows 10","Chrome 129.0.0.0","1544x872","1536x864",NA,NA,0,"Gambling_GBO",12,"In","ABKCJDIEHFG",NA,"In","HM_OCT","seq1","Gamble_Rand_Seq1","Gamble_Rand_Seq1",2,"lossB","gamble","tpcid5",3,"timedOut","",3998,3997,3998,3998,3997,3998,1,3998,0,0,NA,"Time Limit","screen",0,"screen","lossB","","","",NA,"Right",-2.67,-4,0,2,NA,"Right",NA,1.33,NA,NA,NA,NA,-4,"MDPRF10753"
"37",1727179736678,"24/09/2024 12:08:56",1727183336678,1,"24/09/2024 14:08:56",187387,9,"task-7wst",NA,40225743,11743984,NA,"complete",NA,"66f2a1421a5dd6b70344aa8d","computer","Desktop or Laptop","Windows 10","Chrome 129.0.0.0","1544x872","1536x864",NA,NA,0,"Gambling_GBO",12,"In","ABKCJDIEHFG",NA,"In","HM_OCT","seq1","Gamble_Rand_Seq1","Gamble_Rand_Seq1",2,"lossB","loss","2apfzp",4,"timedOut","",1000,999,1000,1000,999,1000,1,1000,0,0,NA,"Time Limit","screen",0,"screen","lossB","","","",NA,"Right",-2.67,-4,0,2,NA,"Right",NA,1.33,NA,NA,NA,NA,-4,"MDPRF10753"
"38",1727179736686,"24/09/2024 12:08:56",1727183336686,1,"24/09/2024 14:08:56",187387,9,"task-7wst",NA,40225743,11743984,NA,"complete",NA,"66f2a1421a5dd6b70344aa8d","computer","Desktop or Laptop","Windows 10","Chrome 129.0.0.0","1544x872","1536x864",NA,NA,0,"Gambling_GBO",12,"In","ABKCJDIEHFG",NA,"In","HM_OCT","seq1","Gamble_Rand_Seq1","Gamble_Rand_Seq1",7,"Rating","Screen 1","hx8b5a",1,"info","",8,0,8,8,0,8,1,8,0,0,NA,"Slider","MoodSlider",2,"object-243","Rating","bored","not bored","bored",3,"",NA,NA,NA,NA,NA,"Right",NA,1.33,NA,NA,NA,NA,-4,"MDPRF10753"
"39",1727179741098,"24/09/2024 12:09:01",1727183341098,1,"24/09/2024 14:09:01",187387,9,"task-7wst",NA,40225743,11743984,NA,"complete",NA,"66f2a1421a5dd6b70344aa8d","computer","Desktop or Laptop","Windows 10","Chrome 129.0.0.0","1544x872","1536x864",NA,NA,0,"Gambling_GBO",12,"In","ABKCJDIEHFG",NA,"In","HM_OCT","seq1","Gamble_Rand_Seq1","Gamble_Rand_Seq1",7,"Rating","Screen 1","hx8b5a",1,"continue","",4420,4412,4420,4420,4412,4420,1,4420,0,0,NA,"Click To Continue","Continue Button",3,"object-25","Rating","bored","not bored","bored",3,"",NA,NA,NA,NA,NA,"Right",NA,1.33,NA,NA,NA,NA,-4,"MDPRF10753"
"40",1727179741101,"24/09/2024 12:09:01",1727183341101,1,"24/09/2024 14:09:01",187387,9,"task-7wst",NA,40225743,11743984,NA,"complete",NA,"66f2a1421a5dd6b70344aa8d","computer","Desktop or Laptop","Windows 10","Chrome 129.0.0.0","1544x872","1536x864",NA,NA,0,"Gambling_GBO",12,"In","ABKCJDIEHFG",NA,"In","HM_OCT","seq1","Gamble_Rand_Seq1","Gamble_Rand_Seq1",7,"Rating","Screen 1","hx8b5a",1,"response","7",3580,4412,4423,3580,4412,4423,1,3580,843,0,NA,"Slider","MoodSlider",2,"object-243","Rating","bored","not bored","bored",3,"",NA,NA,NA,NA,NA,"Right",NA,1.33,NA,NA,NA,NA,-4,"MDPRF10753"
"41",1727179741106,"24/09/2024 12:09:01",1727183341106,1,"24/09/2024 14:09:01",187387,9,"task-7wst",NA,40225743,11743984,NA,"complete",NA,"66f2a1421a5dd6b70344aa8d","computer","Desktop or Laptop","Windows 10","Chrome 129.0.0.0","1544x872","1536x864",NA,NA,0,"Gambling_GBO",12,"In","ABKCJDIEHFG",NA,"In","HM_OCT","seq1","Gamble_Rand_Seq1","Gamble_Rand_Seq1",8,"Rating","Screen 1","hx8b5a",1,"info","",16,0,16,16,0,16,1,16,0,0,NA,"Slider","MoodSlider",2,"object-243","Rating","frustrated","not frustrated","frustrated",3,"",NA,NA,NA,NA,NA,"Right",NA,1.33,NA,NA,NA,NA,-4,"MDPRF10753"
"42",1727179743812,"24/09/2024 12:09:03",1727183343812,1,"24/09/2024 14:09:03",187387,9,"task-7wst",NA,40225743,11743984,NA,"complete",NA,"66f2a1421a5dd6b70344aa8d","computer","Desktop or Laptop","Windows 10","Chrome 129.0.0.0","1544x872","1536x864",NA,NA,0,"Gambling_GBO",12,"In","ABKCJDIEHFG",NA,"In","HM_OCT","seq1","Gamble_Rand_Seq1","Gamble_Rand_Seq1",8,"Rating","Screen 1","hx8b5a",1,"continue","",2722,2715,2722,2722,2715,2722,1,2722,0,0,NA,"Click To Continue","Continue Button",3,"object-25","Rating","frustrated","not frustrated","frustrated",3,"",NA,NA,NA,NA,NA,"Right",NA,1.33,NA,NA,NA,NA,-4,"MDPRF10753"
"43",1727179743812,"24/09/2024 12:09:03",1727183343812,1,"24/09/2024 14:09:03",187387,9,"task-7wst",NA,40225743,11743984,NA,"complete",NA,"66f2a1421a5dd6b70344aa8d","computer","Desktop or Laptop","Windows 10","Chrome 129.0.0.0","1544x872","1536x864",NA,NA,0,"Gambling_GBO",12,"In","ABKCJDIEHFG",NA,"In","HM_OCT","seq1","Gamble_Rand_Seq1","Gamble_Rand_Seq1",8,"Rating","Screen 1","hx8b5a",1,"response","80",1949,2715,2723,1949,2715,2723,1,1949,774,0,NA,"Slider","MoodSlider",2,"object-243","Rating","frustrated","not frustrated","frustrated",3,"",NA,NA,NA,NA,NA,"Right",NA,1.33,NA,NA,NA,NA,-4,"MDPRF10753"
"44",1727179743818,"24/09/2024 12:09:03",1727183343818,1,"24/09/2024 14:09:03",187387,9,"task-7wst",NA,40225743,11743984,NA,"complete",NA,"66f2a1421a5dd6b70344aa8d","computer","Desktop or Laptop","Windows 10","Chrome 129.0.0.0","1544x872","1536x864",NA,NA,0,"Gambling_GBO",12,"In","ABKCJDIEHFG",NA,"In","HM_OCT","seq1","Gamble_Rand_Seq1","Gamble_Rand_Seq1",9,"Rating","Screen 1","hx8b5a",1,"info","",14,0,14,14,0,14,1,14,0,0,NA,"Slider","MoodSlider",2,"object-243","Rating","happy","unhappy","happy",3,"",NA,NA,NA,NA,NA,"Right",NA,1.33,NA,NA,NA,NA,-4,"MDPRF10753"
"45",1727179746125,"24/09/2024 12:09:06",1727183346125,1,"24/09/2024 14:09:06",187387,9,"task-7wst",NA,40225743,11743984,NA,"complete",NA,"66f2a1421a5dd6b70344aa8d","computer","Desktop or Laptop","Windows 10","Chrome 129.0.0.0","1544x872","1536x864",NA,NA,0,"Gambling_GBO",12,"In","ABKCJDIEHFG",NA,"In","HM_OCT","seq1","Gamble_Rand_Seq1","Gamble_Rand_Seq1",9,"Rating","Screen 1","hx8b5a",1,"continue","",2320,2314,2320,2320,2314,2320,1,2320,0,0,NA,"Click To Continue","Continue Button",3,"object-25","Rating","happy","unhappy","happy",3,"",NA,NA,NA,NA,NA,"Right",NA,1.33,NA,NA,NA,NA,-4,"MDPRF10753"
"46",1727179746125,"24/09/2024 12:09:06",1727183346125,1,"24/09/2024 14:09:06",187387,9,"task-7wst",NA,40225743,11743984,NA,"complete",NA,"66f2a1421a5dd6b70344aa8d","computer","Desktop or Laptop","Windows 10","Chrome 129.0.0.0","1544x872","1536x864",NA,NA,0,"Gambling_GBO",12,"In","ABKCJDIEHFG",NA,"In","HM_OCT","seq1","Gamble_Rand_Seq1","Gamble_Rand_Seq1",9,"Rating","Screen 1","hx8b5a",1,"response","24",1582,2314,2321,1582,2314,2321,1,1582,739,0,NA,"Slider","MoodSlider",2,"object-243","Rating","happy","unhappy","happy",3,"",NA,NA,NA,NA,NA,"Right",NA,1.33,NA,NA,NA,NA,-4,"MDPRF10753"
"47",1727179748086,"24/09/2024 12:09:08",1727183348086,1,"24/09/2024 14:09:08",187387,9,"task-7wst",NA,40225743,11743984,NA,"complete",NA,"66f2a1421a5dd6b70344aa8d","computer","Desktop or Laptop","Windows 10","Chrome 129.0.0.0","1544x872","1536x864",NA,NA,0,"Gambling_GBO",12,"In","ABKCJDIEHFG",NA,"In","HM_OCT","seq1","Gamble_Rand_Seq1","Gamble_Rand_Seq1",1,"winB","Screen 1","pkkyi8",1,"continue","",1966,1966,1966,1966,1966,1966,1,1966,0,0,NA,"Fixation Timing","Fixation",1,"object-246","winB","","","",NA,"Right",0.67,0,2,3,NA,"Right",NA,1.33,NA,NA,NA,NA,-4,"MDPRF10753"
"48",1727179750323,"24/09/2024 12:09:10",1727183350323,1,"24/09/2024 14:09:10",187387,9,"task-7wst",NA,40225743,11743984,NA,"complete",NA,"66f2a1421a5dd6b70344aa8d","computer","Desktop or Laptop","Windows 10","Chrome 129.0.0.0","1544x872","1536x864",NA,NA,0,"Gambling_GBO",12,"In","ABKCJDIEHFG",NA,"In","HM_OCT","seq1","Gamble_Rand_Seq1","Gamble_Rand_Seq1",1,"winB","choice","5lszbx",2,"response","Right",2238,2230,2238,2238,2230,2238,1,2238,0,0,NA,"Keyboard Response","KeyResponseG",6,"object-256","winB","","","",NA,"Right",0.67,0,2,3,NA,"Right",NA,3.33,NA,NA,NA,NA,2,"MDPRF10753"
"49",1727179754313,"24/09/2024 12:09:14",1727183354313,1,"24/09/2024 14:09:14",187387,9,"task-7wst",NA,40225743,11743984,NA,"complete",NA,"66f2a1421a5dd6b70344aa8d","computer","Desktop or Laptop","Windows 10","Chrome 129.0.0.0","1544x872","1536x864",NA,NA,0,"Gambling_GBO",12,"In","ABKCJDIEHFG",NA,"In","HM_OCT","seq1","Gamble_Rand_Seq1","Gamble_Rand_Seq1",1,"winB","gamble","17lgr3",3,"timedOut","",3999,3997,3999,3999,3997,3999,1,3999,0,0,NA,"Time Limit","screen",0,"screen","winB","","","",NA,"Right",0.67,0,2,3,NA,"Right",NA,3.33,NA,NA,NA,NA,2,"MDPRF10753"
"50",1727179755312,"24/09/2024 12:09:15",1727183355312,1,"24/09/2024 14:09:15",187387,9,"task-7wst",NA,40225743,11743984,NA,"complete",NA,"66f2a1421a5dd6b70344aa8d","computer","Desktop or Laptop","Windows 10","Chrome 129.0.0.0","1544x872","1536x864",NA,NA,0,"Gambling_GBO",12,"In","ABKCJDIEHFG",NA,"In","HM_OCT","seq1","Gamble_Rand_Seq1","Gamble_Rand_Seq1",1,"winB","win","dzz5jr",4,"timedOut","",1001,1000,1001,1001,1000,1001,1,1001,0,0,NA,"Time Limit","screen",0,"screen","winB","","","",NA,"Right",0.67,0,2,3,NA,"Right",NA,3.33,NA,NA,NA,NA,2,"MDPRF10753"
"51",1727179755318,"24/09/2024 12:09:15",1727183355318,1,"24/09/2024 14:09:15",187387,9,"task-7wst",NA,40225743,11743984,NA,"complete",NA,"66f2a1421a5dd6b70344aa8d","computer","Desktop or Laptop","Windows 10","Chrome 129.0.0.0","1544x872","1536x864",NA,NA,0,"Gambling_GBO",12,"In","ABKCJDIEHFG",NA,"In","HM_OCT","seq1","Gamble_Rand_Seq1","Gamble_Rand_Seq1",10,"Rating","Screen 1","hx8b5a",1,"info","",6,0,6,6,0,6,1,6,0,0,NA,"Slider","MoodSlider",2,"object-243","Rating","happy","unhappy","happy",4,"",NA,NA,NA,NA,NA,"Right",NA,3.33,NA,NA,NA,NA,2,"MDPRF10753"
"52",1727179766615,"24/09/2024 12:09:26",1727183366615,1,"24/09/2024 14:09:26",187387,9,"task-7wst",NA,40225743,11743984,NA,"complete",NA,"66f2a1421a5dd6b70344aa8d","computer","Desktop or Laptop","Windows 10","Chrome 129.0.0.0","1544x872","1536x864",NA,NA,0,"Gambling_GBO",12,"In","ABKCJDIEHFG",NA,"In","HM_OCT","seq1","Gamble_Rand_Seq1","Gamble_Rand_Seq1",10,"Rating","Screen 1","hx8b5a",1,"continue","",11303,11289,11303,11303,11289,11303,1,11303,0,0,NA,"Click To Continue","Continue Button",3,"object-25","Rating","happy","unhappy","happy",4,"",NA,NA,NA,NA,NA,"Right",NA,3.33,NA,NA,NA,NA,2,"MDPRF10753"
"53",1727179766619,"24/09/2024 12:09:26",1727183366619,1,"24/09/2024 14:09:26",187387,9,"task-7wst",NA,40225743,11743984,NA,"complete",NA,"66f2a1421a5dd6b70344aa8d","computer","Desktop or Laptop","Windows 10","Chrome 129.0.0.0","1544x872","1536x864",NA,NA,0,"Gambling_GBO",12,"In","ABKCJDIEHFG",NA,"In","HM_OCT","seq1","Gamble_Rand_Seq1","Gamble_Rand_Seq1",10,"Rating","Screen 1","hx8b5a",1,"response","57",9575,11289,11305,9575,11289,11305,1,9575,1730,0,NA,"Slider","MoodSlider",2,"object-243","Rating","happy","unhappy","happy",4,"",NA,NA,NA,NA,NA,"Right",NA,3.33,NA,NA,NA,NA,2,"MDPRF10753"
"54",1727179766625,"24/09/2024 12:09:26",1727183366625,1,"24/09/2024 14:09:26",187387,9,"task-7wst",NA,40225743,11743984,NA,"complete",NA,"66f2a1421a5dd6b70344aa8d","computer","Desktop or Laptop","Windows 10","Chrome 129.0.0.0","1544x872","1536x864",NA,NA,0,"Gambling_GBO",12,"In","ABKCJDIEHFG",NA,"In","HM_OCT","seq1","Gamble_Rand_Seq1","Gamble_Rand_Seq1",11,"Rating","Screen 1","hx8b5a",1,"info","",16,0,16,16,0,16,1,16,0,0,NA,"Slider","MoodSlider",2,"object-243","Rating","bored","not bored","bored",4,"",NA,NA,NA,NA,NA,"Right",NA,3.33,NA,NA,NA,NA,2,"MDPRF10753"
"55",1727179775469,"24/09/2024 12:09:35",1727183375469,1,"24/09/2024 14:09:35",187387,9,"task-7wst",NA,40225743,11743984,NA,"complete",NA,"66f2a1421a5dd6b70344aa8d","computer","Desktop or Laptop","Windows 10","Chrome 129.0.0.0","1544x872","1536x864",NA,NA,0,"Gambling_GBO",12,"In","ABKCJDIEHFG",NA,"In","HM_OCT","seq1","Gamble_Rand_Seq1","Gamble_Rand_Seq1",11,"Rating","Screen 1","hx8b5a",1,"continue","",8869,8859,8869,8869,8859,8869,1,8869,0,0,NA,"Click To Continue","Continue Button",3,"object-25","Rating","bored","not bored","bored",4,"",NA,NA,NA,NA,NA,"Right",NA,3.33,NA,NA,NA,NA,2,"MDPRF10753"
"56",1727179775470,"24/09/2024 12:09:35",1727183375470,1,"24/09/2024 14:09:35",187387,9,"task-7wst",NA,40225743,11743984,NA,"complete",NA,"66f2a1421a5dd6b70344aa8d","computer","Desktop or Laptop","Windows 10","Chrome 129.0.0.0","1544x872","1536x864",NA,NA,0,"Gambling_GBO",12,"In","ABKCJDIEHFG",NA,"In","HM_OCT","seq1","Gamble_Rand_Seq1","Gamble_Rand_Seq1",11,"Rating","Screen 1","hx8b5a",1,"response","14",7877,8859,8869,7877,8859,8869,1,7877,992,0,NA,"Slider","MoodSlider",2,"object-243","Rating","bored","not bored","bored",4,"",NA,NA,NA,NA,NA,"Right",NA,3.33,NA,NA,NA,NA,2,"MDPRF10753"
"57",1727179775474,"24/09/2024 12:09:35",1727183375474,1,"24/09/2024 14:09:35",187387,9,"task-7wst",NA,40225743,11743984,NA,"complete",NA,"66f2a1421a5dd6b70344aa8d","computer","Desktop or Laptop","Windows 10","Chrome 129.0.0.0","1544x872","1536x864",NA,NA,0,"Gambling_GBO",12,"In","ABKCJDIEHFG",NA,"In","HM_OCT","seq1","Gamble_Rand_Seq1","Gamble_Rand_Seq1",12,"Rating","Screen 1","hx8b5a",1,"info","",14,0,14,14,0,14,1,14,0,0,NA,"Slider","MoodSlider",2,"object-243","Rating","frustrated","not frustrated","frustrated",4,"",NA,NA,NA,NA,NA,"Right",NA,3.33,NA,NA,NA,NA,2,"MDPRF10753"
"58",1727179779993,"24/09/2024 12:09:39",1727183379993,1,"24/09/2024 14:09:39",187387,9,"task-7wst",NA,40225743,11743984,NA,"complete",NA,"66f2a1421a5dd6b70344aa8d","computer","Desktop or Laptop","Windows 10","Chrome 129.0.0.0","1544x872","1536x864",NA,NA,0,"Gambling_GBO",12,"In","ABKCJDIEHFG",NA,"In","HM_OCT","seq1","Gamble_Rand_Seq1","Gamble_Rand_Seq1",12,"Rating","Screen 1","hx8b5a",1,"continue","",4534,4530,4534,4534,4530,4534,1,4534,0,0,NA,"Click To Continue","Continue Button",3,"object-25","Rating","frustrated","not frustrated","frustrated",4,"",NA,NA,NA,NA,NA,"Right",NA,3.33,NA,NA,NA,NA,2,"MDPRF10753"
"59",1727179779995,"24/09/2024 12:09:39",1727183379995,1,"24/09/2024 14:09:39",187387,9,"task-7wst",NA,40225743,11743984,NA,"complete",NA,"66f2a1421a5dd6b70344aa8d","computer","Desktop or Laptop","Windows 10","Chrome 129.0.0.0","1544x872","1536x864",NA,NA,0,"Gambling_GBO",12,"In","ABKCJDIEHFG",NA,"In","HM_OCT","seq1","Gamble_Rand_Seq1","Gamble_Rand_Seq1",12,"Rating","Screen 1","hx8b5a",1,"response","20",2915,4530,4535,2915,4530,4535,1,2915,1620,0,NA,"Slider","MoodSlider",2,"object-243","Rating","frustrated","not frustrated","frustrated",4,"",NA,NA,NA,NA,NA,"Right",NA,3.33,NA,NA,NA,NA,2,"MDPRF10753"
"60",1727179781956,"24/09/2024 12:09:41",1727183381956,1,"24/09/2024 14:09:41",187387,9,"task-7wst",NA,40225743,11743984,NA,"complete",NA,"66f2a1421a5dd6b70344aa8d","computer","Desktop or Laptop","Windows 10","Chrome 129.0.0.0","1544x872","1536x864",NA,NA,0,"Gambling_GBO",12,"In","ABKCJDIEHFG",NA,"In","HM_OCT","seq1","Gamble_Rand_Seq1","Gamble_Rand_Seq1",2,"winB","Screen 1","pkkyi8",1,"continue","",1964,1964,1964,1964,1964,1964,1,1964,0,0,NA,"Fixation Timing","Fixation",1,"object-246","winB","","","",NA,"Right",2.33,1,5,4,NA,"Right",NA,3.33,NA,NA,NA,NA,2,"MDPRF10753"
"61",1727179784673,"24/09/2024 12:09:44",1727183384673,1,"24/09/2024 14:09:44",187387,9,"task-7wst",NA,40225743,11743984,NA,"complete",NA,"66f2a1421a5dd6b70344aa8d","computer","Desktop or Laptop","Windows 10","Chrome 129.0.0.0","1544x872","1536x864",NA,NA,0,"Gambling_GBO",12,"In","ABKCJDIEHFG",NA,"In","HM_OCT","seq1","Gamble_Rand_Seq1","Gamble_Rand_Seq1",2,"winB","choice","5lszbx",2,"response","Right",2720,2715,2720,2720,2715,2720,1,2720,0,0,NA,"Keyboard Response","KeyResponseG",6,"object-256","winB","","","",NA,"Right",2.33,1,5,4,NA,"Right",NA,8.33,NA,NA,NA,NA,5,"MDPRF10753"
"62",1727179788667,"24/09/2024 12:09:48",1727183388667,1,"24/09/2024 14:09:48",187387,9,"task-7wst",NA,40225743,11743984,NA,"complete",NA,"66f2a1421a5dd6b70344aa8d","computer","Desktop or Laptop","Windows 10","Chrome 129.0.0.0","1544x872","1536x864",NA,NA,0,"Gambling_GBO",12,"In","ABKCJDIEHFG",NA,"In","HM_OCT","seq1","Gamble_Rand_Seq1","Gamble_Rand_Seq1",2,"winB","gamble","17lgr3",3,"timedOut","",3998,3996,3998,3998,3996,3998,1,3998,0,0,NA,"Time Limit","screen",0,"screen","winB","","","",NA,"Right",2.33,1,5,4,NA,"Right",NA,8.33,NA,NA,NA,NA,5,"MDPRF10753"
"63",1727179789665,"24/09/2024 12:09:49",1727183389665,1,"24/09/2024 14:09:49",187387,9,"task-7wst",NA,40225743,11743984,NA,"complete",NA,"66f2a1421a5dd6b70344aa8d","computer","Desktop or Laptop","Windows 10","Chrome 129.0.0.0","1544x872","1536x864",NA,NA,0,"Gambling_GBO",12,"In","ABKCJDIEHFG",NA,"In","HM_OCT","seq1","Gamble_Rand_Seq1","Gamble_Rand_Seq1",2,"winB","win","dzz5jr",4,"timedOut","",1001,1000,1001,1001,1000,1001,1,1001,0,0,NA,"Time Limit","screen",0,"screen","winB","","","",NA,"Right",2.33,1,5,4,NA,"Right",NA,8.33,NA,NA,NA,NA,5,"MDPRF10753"
"64",1727179789670,"24/09/2024 12:09:49",1727183389670,1,"24/09/2024 14:09:49",187387,9,"task-7wst",NA,40225743,11743984,NA,"complete",NA,"66f2a1421a5dd6b70344aa8d","computer","Desktop or Laptop","Windows 10","Chrome 129.0.0.0","1544x872","1536x864",NA,NA,0,"Gambling_GBO",12,"In","ABKCJDIEHFG",NA,"In","HM_OCT","seq1","Gamble_Rand_Seq1","Gamble_Rand_Seq1",13,"Rating","Screen 1","hx8b5a",1,"info","",6,0,6,6,0,6,1,6,0,0,NA,"Slider","MoodSlider",2,"object-243","Rating","bored","not bored","bored",5,"",NA,NA,NA,NA,NA,"Right",NA,8.33,NA,NA,NA,NA,5,"MDPRF10753"
"65",1727179792909,"24/09/2024 12:09:52",1727183392909,1,"24/09/2024 14:09:52",187387,9,"task-7wst",NA,40225743,11743984,NA,"complete",NA,"66f2a1421a5dd6b70344aa8d","computer","Desktop or Laptop","Windows 10","Chrome 129.0.0.0","1544x872","1536x864",NA,NA,0,"Gambling_GBO",12,"In","ABKCJDIEHFG",NA,"In","HM_OCT","seq1","Gamble_Rand_Seq1","Gamble_Rand_Seq1",13,"Rating","Screen 1","hx8b5a",1,"continue","",3245,3230,3245,3245,3230,3245,1,3245,0,0,NA,"Click To Continue","Continue Button",3,"object-25","Rating","bored","not bored","bored",5,"",NA,NA,NA,NA,NA,"Right",NA,8.33,NA,NA,NA,NA,5,"MDPRF10753"
"66",1727179792915,"24/09/2024 12:09:52",1727183392915,1,"24/09/2024 14:09:52",187387,9,"task-7wst",NA,40225743,11743984,NA,"complete",NA,"66f2a1421a5dd6b70344aa8d","computer","Desktop or Laptop","Windows 10","Chrome 129.0.0.0","1544x872","1536x864",NA,NA,0,"Gambling_GBO",12,"In","ABKCJDIEHFG",NA,"In","HM_OCT","seq1","Gamble_Rand_Seq1","Gamble_Rand_Seq1",13,"Rating","Screen 1","hx8b5a",1,"response","5",2248,3230,3247,2248,3230,3247,1,2248,999,0,NA,"Slider","MoodSlider",2,"object-243","Rating","bored","not bored","bored",5,"",NA,NA,NA,NA,NA,"Right",NA,8.33,NA,NA,NA,NA,5,"MDPRF10753"
"67",1727179792921,"24/09/2024 12:09:52",1727183392921,1,"24/09/2024 14:09:52",187387,9,"task-7wst",NA,40225743,11743984,NA,"complete",NA,"66f2a1421a5dd6b70344aa8d","computer","Desktop or Laptop","Windows 10","Chrome 129.0.0.0","1544x872","1536x864",NA,NA,0,"Gambling_GBO",12,"In","ABKCJDIEHFG",NA,"In","HM_OCT","seq1","Gamble_Rand_Seq1","Gamble_Rand_Seq1",14,"Rating","Screen 1","hx8b5a",1,"info","",17,0,17,17,0,17,1,17,0,0,NA,"Slider","MoodSlider",2,"object-243","Rating","frustrated","not frustrated","frustrated",5,"",NA,NA,NA,NA,NA,"Right",NA,8.33,NA,NA,NA,NA,5,"MDPRF10753"
"68",1727179795541,"24/09/2024 12:09:55",1727183395541,1,"24/09/2024 14:09:55",187387,9,"task-7wst",NA,40225743,11743984,NA,"complete",NA,"66f2a1421a5dd6b70344aa8d","computer","Desktop or Laptop","Windows 10","Chrome 129.0.0.0","1544x872","1536x864",NA,NA,0,"Gambling_GBO",12,"In","ABKCJDIEHFG",NA,"In","HM_OCT","seq1","Gamble_Rand_Seq1","Gamble_Rand_Seq1",14,"Rating","Screen 1","hx8b5a",1,"continue","",2647,2631,2647,2647,2631,2647,1,2647,0,0,NA,"Click To Continue","Continue Button",3,"object-25","Rating","frustrated","not frustrated","frustrated",5,"",NA,NA,NA,NA,NA,"Right",NA,8.33,NA,NA,NA,NA,5,"MDPRF10753"
"69",1727179795542,"24/09/2024 12:09:55",1727183395542,1,"24/09/2024 14:09:55",187387,9,"task-7wst",NA,40225743,11743984,NA,"complete",NA,"66f2a1421a5dd6b70344aa8d","computer","Desktop or Laptop","Windows 10","Chrome 129.0.0.0","1544x872","1536x864",NA,NA,0,"Gambling_GBO",12,"In","ABKCJDIEHFG",NA,"In","HM_OCT","seq1","Gamble_Rand_Seq1","Gamble_Rand_Seq1",14,"Rating","Screen 1","hx8b5a",1,"response","5",1583,2631,2647,1583,2631,2647,1,1583,1064,0,NA,"Slider","MoodSlider",2,"object-243","Rating","frustrated","not frustrated","frustrated",5,"",NA,NA,NA,NA,NA,"Right",NA,8.33,NA,NA,NA,NA,5,"MDPRF10753"
"70",1727179795546,"24/09/2024 12:09:55",1727183395546,1,"24/09/2024 14:09:55",187387,9,"task-7wst",NA,40225743,11743984,NA,"complete",NA,"66f2a1421a5dd6b70344aa8d","computer","Desktop or Laptop","Windows 10","Chrome 129.0.0.0","1544x872","1536x864",NA,NA,0,"Gambling_GBO",12,"In","ABKCJDIEHFG",NA,"In","HM_OCT","seq1","Gamble_Rand_Seq1","Gamble_Rand_Seq1",15,"Rating","Screen 1","hx8b5a",1,"info","",16,0,16,16,0,16,1,16,0,0,NA,"Slider","MoodSlider",2,"object-243","Rating","happy","unhappy","happy",5,"",NA,NA,NA,NA,NA,"Right",NA,8.33,NA,NA,NA,NA,5,"MDPRF10753"
"71",1727179797220,"24/09/2024 12:09:57",1727183397220,1,"24/09/2024 14:09:57",187387,9,"task-7wst",NA,40225743,11743984,NA,"complete",NA,"66f2a1421a5dd6b70344aa8d","computer","Desktop or Laptop","Windows 10","Chrome 129.0.0.0","1544x872","1536x864",NA,NA,0,"Gambling_GBO",12,"In","ABKCJDIEHFG",NA,"In","HM_OCT","seq1","Gamble_Rand_Seq1","Gamble_Rand_Seq1",15,"Rating","Screen 1","hx8b5a",1,"continue","",1694,1682,1694,1694,1682,1694,1,1694,0,0,NA,"Click To Continue","Continue Button",3,"object-25","Rating","happy","unhappy","happy",5,"",NA,NA,NA,NA,NA,"Right",NA,8.33,NA,NA,NA,NA,5,"MDPRF10753"
"72",1727179797221,"24/09/2024 12:09:57",1727183397221,1,"24/09/2024 14:09:57",187387,9,"task-7wst",NA,40225743,11743984,NA,"complete",NA,"66f2a1421a5dd6b70344aa8d","computer","Desktop or Laptop","Windows 10","Chrome 129.0.0.0","1544x872","1536x864",NA,NA,0,"Gambling_GBO",12,"In","ABKCJDIEHFG",NA,"In","HM_OCT","seq1","Gamble_Rand_Seq1","Gamble_Rand_Seq1",15,"Rating","Screen 1","hx8b5a",1,"response","89",933,1682,1696,933,1682,1696,1,933,763,0,NA,"Slider","MoodSlider",2,"object-243","Rating","happy","unhappy","happy",5,"",NA,NA,NA,NA,NA,"Right",NA,8.33,NA,NA,NA,NA,5,"MDPRF10753"
"73",1727179799174,"24/09/2024 12:09:59",1727183399174,1,"24/09/2024 14:09:59",187387,9,"task-7wst",NA,40225743,11743984,NA,"complete",NA,"66f2a1421a5dd6b70344aa8d","computer","Desktop or Laptop","Windows 10","Chrome 129.0.0.0","1544x872","1536x864",NA,NA,0,"Gambling_GBO",12,"In","ABKCJDIEHFG",NA,"In","HM_OCT","seq1","Gamble_Rand_Seq1","Gamble_Rand_Seq1",1,"winT","Screen 1","np5pnj",1,"continue","",1965,1965,1965,1965,1965,1965,1,1965,0,0,NA,"Fixation Timing","Fixation",1,"object-304","winT","","","",NA,"Right",2.67,2,4,5,NA,"Right",NA,8.33,NA,NA,NA,NA,5,"MDPRF10753"
"74",1727179803021,"24/09/2024 12:10:03",1727183403021,1,"24/09/2024 14:10:03",187387,9,"task-7wst",NA,40225743,11743984,NA,"complete",NA,"66f2a1421a5dd6b70344aa8d","computer","Desktop or Laptop","Windows 10","Chrome 129.0.0.0","1544x872","1536x864",NA,NA,0,"Gambling_GBO",12,"In","ABKCJDIEHFG",NA,"In","HM_OCT","seq1","Gamble_Rand_Seq1","Gamble_Rand_Seq1",1,"winT","choice","gu8zgx",2,"response","Right",3846,3830,3846,3846,3830,3846,1,3846,0,0,NA,"Keyboard Response","KeyResponseG",6,"object-326","winT","","","",NA,"Right",2.67,2,4,5,NA,"Right",NA,12.33,NA,NA,NA,NA,4,"MDPRF10753"
"75",1727179807000,"24/09/2024 12:10:07",1727183407000,1,"24/09/2024 14:10:07",187387,9,"task-7wst",NA,40225743,11743984,NA,"complete",NA,"66f2a1421a5dd6b70344aa8d","computer","Desktop or Laptop","Windows 10","Chrome 129.0.0.0","1544x872","1536x864",NA,NA,0,"Gambling_GBO",12,"In","ABKCJDIEHFG",NA,"In","HM_OCT","seq1","Gamble_Rand_Seq1","Gamble_Rand_Seq1",1,"winT","gamble","1lb69u",3,"timedOut","",3998,3997,3998,3998,3997,3998,1,3998,0,0,NA,"Time Limit","screen",0,"screen","winT","","","",NA,"Right",2.67,2,4,5,NA,"Right",NA,12.33,NA,NA,NA,NA,4,"MDPRF10753"
"76",1727179807999,"24/09/2024 12:10:07",1727183407999,1,"24/09/2024 14:10:07",187387,9,"task-7wst",NA,40225743,11743984,NA,"complete",NA,"66f2a1421a5dd6b70344aa8d","computer","Desktop or Laptop","Windows 10","Chrome 129.0.0.0","1544x872","1536x864",NA,NA,0,"Gambling_GBO",12,"In","ABKCJDIEHFG",NA,"In","HM_OCT","seq1","Gamble_Rand_Seq1","Gamble_Rand_Seq1",1,"winT","win","dhtsbv",4,"timedOut","",1000,999,1000,1000,999,1000,1,1000,0,0,NA,"Time Limit","screen",0,"screen","winT","","","",NA,"Right",2.67,2,4,5,NA,"Right",NA,12.33,NA,NA,NA,NA,4,"MDPRF10753"
"77",1727179808006,"24/09/2024 12:10:08",1727183408006,1,"24/09/2024 14:10:08",187387,9,"task-7wst",NA,40225743,11743984,NA,"complete",NA,"66f2a1421a5dd6b70344aa8d","computer","Desktop or Laptop","Windows 10","Chrome 129.0.0.0","1544x872","1536x864",NA,NA,0,"Gambling_GBO",12,"In","ABKCJDIEHFG",NA,"In","HM_OCT","seq1","Gamble_Rand_Seq1","Gamble_Rand_Seq1",16,"Rating","Screen 1","hx8b5a",1,"info","",7,0,7,7,0,7,1,7,0,0,NA,"Slider","MoodSlider",2,"object-243","Rating","bored","not bored","bored",6,"",NA,NA,NA,NA,NA,"Right",NA,12.33,NA,NA,NA,NA,4,"MDPRF10753"
"78",1727179816174,"24/09/2024 12:10:16",1727183416174,1,"24/09/2024 14:10:16",187387,9,"task-7wst",NA,40225743,11743984,NA,"complete",NA,"66f2a1421a5dd6b70344aa8d","computer","Desktop or Laptop","Windows 10","Chrome 129.0.0.0","1544x872","1536x864",NA,NA,0,"Gambling_GBO",12,"In","ABKCJDIEHFG",NA,"In","HM_OCT","seq1","Gamble_Rand_Seq1","Gamble_Rand_Seq1",16,"Rating","Screen 1","hx8b5a",1,"continue","",8176,8159,8176,8176,8159,8176,1,8176,0,0,NA,"Click To Continue","Continue Button",3,"object-25","Rating","bored","not bored","bored",6,"",NA,NA,NA,NA,NA,"Right",NA,12.33,NA,NA,NA,NA,4,"MDPRF10753"
"79",1727179816176,"24/09/2024 12:10:16",1727183416176,1,"24/09/2024 14:10:16",187387,9,"task-7wst",NA,40225743,11743984,NA,"complete",NA,"66f2a1421a5dd6b70344aa8d","computer","Desktop or Laptop","Windows 10","Chrome 129.0.0.0","1544x872","1536x864",NA,NA,0,"Gambling_GBO",12,"In","ABKCJDIEHFG",NA,"In","HM_OCT","seq1","Gamble_Rand_Seq1","Gamble_Rand_Seq1",16,"Rating","Screen 1","hx8b5a",1,"response","2",7193,8159,8176,7193,8159,8176,1,7193,983,0,NA,"Slider","MoodSlider",2,"object-243","Rating","bored","not bored","bored",6,"",NA,NA,NA,NA,NA,"Right",NA,12.33,NA,NA,NA,NA,4,"MDPRF10753"
"80",1727179816180,"24/09/2024 12:10:16",1727183416180,1,"24/09/2024 14:10:16",187387,9,"task-7wst",NA,40225743,11743984,NA,"complete",NA,"66f2a1421a5dd6b70344aa8d","computer","Desktop or Laptop","Windows 10","Chrome 129.0.0.0","1544x872","1536x864",NA,NA,0,"Gambling_GBO",12,"In","ABKCJDIEHFG",NA,"In","HM_OCT","seq1","Gamble_Rand_Seq1","Gamble_Rand_Seq1",17,"Rating","Screen 1","hx8b5a",1,"info","",17,0,17,17,0,17,1,17,0,0,NA,"Slider","MoodSlider",2,"object-243","Rating","frustrated","not frustrated","frustrated",6,"",NA,NA,NA,NA,NA,"Right",NA,12.33,NA,NA,NA,NA,4,"MDPRF10753"
"81",1727179820248,"24/09/2024 12:10:20",1727183420248,1,"24/09/2024 14:10:20",187387,9,"task-7wst",NA,40225743,11743984,NA,"complete",NA,"66f2a1421a5dd6b70344aa8d","computer","Desktop or Laptop","Windows 10","Chrome 129.0.0.0","1544x872","1536x864",NA,NA,0,"Gambling_GBO",12,"In","ABKCJDIEHFG",NA,"In","HM_OCT","seq1","Gamble_Rand_Seq1","Gamble_Rand_Seq1",17,"Rating","Screen 1","hx8b5a",1,"continue","",4090,4080,4090,4090,4080,4090,1,4090,0,0,NA,"Click To Continue","Continue Button",3,"object-25","Rating","frustrated","not frustrated","frustrated",6,"",NA,NA,NA,NA,NA,"Right",NA,12.33,NA,NA,NA,NA,4,"MDPRF10753"
"82",1727179820249,"24/09/2024 12:10:20",1727183420249,1,"24/09/2024 14:10:20",187387,9,"task-7wst",NA,40225743,11743984,NA,"complete",NA,"66f2a1421a5dd6b70344aa8d","computer","Desktop or Laptop","Windows 10","Chrome 129.0.0.0","1544x872","1536x864",NA,NA,0,"Gambling_GBO",12,"In","ABKCJDIEHFG",NA,"In","HM_OCT","seq1","Gamble_Rand_Seq1","Gamble_Rand_Seq1",17,"Rating","Screen 1","hx8b5a",1,"response","1",1283,4080,4092,1283,4080,4092,1,1283,2809,0,NA,"Slider","MoodSlider",2,"object-243","Rating","frustrated","not frustrated","frustrated",6,"",NA,NA,NA,NA,NA,"Right",NA,12.33,NA,NA,NA,NA,4,"MDPRF10753"
"83",1727179820255,"24/09/2024 12:10:20",1727183420255,1,"24/09/2024 14:10:20",187387,9,"task-7wst",NA,40225743,11743984,NA,"complete",NA,"66f2a1421a5dd6b70344aa8d","computer","Desktop or Laptop","Windows 10","Chrome 129.0.0.0","1544x872","1536x864",NA,NA,0,"Gambling_GBO",12,"In","ABKCJDIEHFG",NA,"In","HM_OCT","seq1","Gamble_Rand_Seq1","Gamble_Rand_Seq1",18,"Rating","Screen 1","hx8b5a",1,"info","",16,0,16,16,0,16,1,16,0,0,NA,"Slider","MoodSlider",2,"object-243","Rating","happy","unhappy","happy",6,"",NA,NA,NA,NA,NA,"Right",NA,12.33,NA,NA,NA,NA,4,"MDPRF10753"
"84",1727179823356,"24/09/2024 12:10:23",1727183423356,1,"24/09/2024 14:10:23",187387,9,"task-7wst",NA,40225743,11743984,NA,"complete",NA,"66f2a1421a5dd6b70344aa8d","computer","Desktop or Laptop","Windows 10","Chrome 129.0.0.0","1544x872","1536x864",NA,NA,0,"Gambling_GBO",12,"In","ABKCJDIEHFG",NA,"In","HM_OCT","seq1","Gamble_Rand_Seq1","Gamble_Rand_Seq1",18,"Rating","Screen 1","hx8b5a",1,"continue","",3118,3114,3118,3118,3114,3118,1,3118,0,0,NA,"Click To Continue","Continue Button",3,"object-25","Rating","happy","unhappy","happy",6,"",NA,NA,NA,NA,NA,"Right",NA,12.33,NA,NA,NA,NA,4,"MDPRF10753"
"85",1727179823356,"24/09/2024 12:10:23",1727183423356,1,"24/09/2024 14:10:23",187387,9,"task-7wst",NA,40225743,11743984,NA,"complete",NA,"66f2a1421a5dd6b70344aa8d","computer","Desktop or Laptop","Windows 10","Chrome 129.0.0.0","1544x872","1536x864",NA,NA,0,"Gambling_GBO",12,"In","ABKCJDIEHFG",NA,"In","HM_OCT","seq1","Gamble_Rand_Seq1","Gamble_Rand_Seq1",18,"Rating","Screen 1","hx8b5a",1,"response","93",1998,3114,3119,1998,3114,3119,1,1998,1121,0,NA,"Slider","MoodSlider",2,"object-243","Rating","happy","unhappy","happy",6,"",NA,NA,NA,NA,NA,"Right",NA,12.33,NA,NA,NA,NA,4,"MDPRF10753"
"86",1727179825318,"24/09/2024 12:10:25",1727183425318,1,"24/09/2024 14:10:25",187387,9,"task-7wst",NA,40225743,11743984,NA,"complete",NA,"66f2a1421a5dd6b70344aa8d","computer","Desktop or Laptop","Windows 10","Chrome 129.0.0.0","1544x872","1536x864",NA,NA,0,"Gambling_GBO",12,"In","ABKCJDIEHFG",NA,"In","HM_OCT","seq1","Gamble_Rand_Seq1","Gamble_Rand_Seq1",3,"lossB","Screen 1","a4fynh",1,"continue","",1965,1965,1965,1965,1965,1965,1,1965,0,0,NA,"Fixation Timing","Fixation",1,"object-113","lossB","","","",NA,"Right",3.33,2,6,6,NA,"Right",NA,12.33,NA,NA,NA,NA,4,"MDPRF10753"
"87",1727179827400,"24/09/2024 12:10:27",1727183427400,1,"24/09/2024 14:10:27",187387,9,"task-7wst",NA,40225743,11743984,NA,"complete",NA,"66f2a1421a5dd6b70344aa8d","computer","Desktop or Laptop","Windows 10","Chrome 129.0.0.0","1544x872","1536x864",NA,NA,0,"Gambling_GBO",12,"In","ABKCJDIEHFG",NA,"In","HM_OCT","seq1","Gamble_Rand_Seq1","Gamble_Rand_Seq1",3,"lossB","choice","k9qq8f",2,"response","Right",2083,2082,2083,2083,2082,2083,1,2083,0,0,NA,"Keyboard Response","KeyResponseG",6,"object-200","lossB","","","",NA,"Right",3.33,2,6,6,NA,"Right",NA,14.33,NA,NA,NA,NA,2,"MDPRF10753"
"88",1727179831396,"24/09/2024 12:10:31",1727183431396,1,"24/09/2024 14:10:31",187387,9,"task-7wst",NA,40225743,11743984,NA,"complete",NA,"66f2a1421a5dd6b70344aa8d","computer","Desktop or Laptop","Windows 10","Chrome 129.0.0.0","1544x872","1536x864",NA,NA,0,"Gambling_GBO",12,"In","ABKCJDIEHFG",NA,"In","HM_OCT","seq1","Gamble_Rand_Seq1","Gamble_Rand_Seq1",3,"lossB","gamble","tpcid5",3,"timedOut","",3998,3997,3998,3998,3997,3998,1,3998,0,0,NA,"Time Limit","screen",0,"screen","lossB","","","",NA,"Right",3.33,2,6,6,NA,"Right",NA,14.33,NA,NA,NA,NA,2,"MDPRF10753"
"89",1727179832395,"24/09/2024 12:10:32",1727183432395,1,"24/09/2024 14:10:32",187387,9,"task-7wst",NA,40225743,11743984,NA,"complete",NA,"66f2a1421a5dd6b70344aa8d","computer","Desktop or Laptop","Windows 10","Chrome 129.0.0.0","1544x872","1536x864",NA,NA,0,"Gambling_GBO",12,"In","ABKCJDIEHFG",NA,"In","HM_OCT","seq1","Gamble_Rand_Seq1","Gamble_Rand_Seq1",3,"lossB","loss","2apfzp",4,"timedOut","",999,998,999,999,998,999,1,999,0,0,NA,"Time Limit","screen",0,"screen","lossB","","","",NA,"Right",3.33,2,6,6,NA,"Right",NA,14.33,NA,NA,NA,NA,2,"MDPRF10753"
"90",1727179832400,"24/09/2024 12:10:32",1727183432400,1,"24/09/2024 14:10:32",187387,9,"task-7wst",NA,40225743,11743984,NA,"complete",NA,"66f2a1421a5dd6b70344aa8d","computer","Desktop or Laptop","Windows 10","Chrome 129.0.0.0","1544x872","1536x864",NA,NA,0,"Gambling_GBO",12,"In","ABKCJDIEHFG",NA,"In","HM_OCT","seq1","Gamble_Rand_Seq1","Gamble_Rand_Seq1",19,"Rating","Screen 1","hx8b5a",1,"info","",6,0,6,6,0,6,1,6,0,0,NA,"Slider","MoodSlider",2,"object-243","Rating","happy","unhappy","happy",7,"",NA,NA,NA,NA,NA,"Right",NA,14.33,NA,NA,NA,NA,2,"MDPRF10753"
"91",1727179840705,"24/09/2024 12:10:40",1727183440705,1,"24/09/2024 14:10:40",187387,9,"task-7wst",NA,40225743,11743984,NA,"complete",NA,"66f2a1421a5dd6b70344aa8d","computer","Desktop or Laptop","Windows 10","Chrome 129.0.0.0","1544x872","1536x864",NA,NA,0,"Gambling_GBO",12,"In","ABKCJDIEHFG",NA,"In","HM_OCT","seq1","Gamble_Rand_Seq1","Gamble_Rand_Seq1",19,"Rating","Screen 1","hx8b5a",1,"continue","",8312,8310,8312,8312,8310,8312,1,8312,0,0,NA,"Click To Continue","Continue Button",3,"object-25","Rating","happy","unhappy","happy",7,"",NA,NA,NA,NA,NA,"Right",NA,14.33,NA,NA,NA,NA,2,"MDPRF10753"
"92",1727179840707,"24/09/2024 12:10:40",1727183440707,1,"24/09/2024 14:10:40",187387,9,"task-7wst",NA,40225743,11743984,NA,"complete",NA,"66f2a1421a5dd6b70344aa8d","computer","Desktop or Laptop","Windows 10","Chrome 129.0.0.0","1544x872","1536x864",NA,NA,0,"Gambling_GBO",12,"In","ABKCJDIEHFG",NA,"In","HM_OCT","seq1","Gamble_Rand_Seq1","Gamble_Rand_Seq1",19,"Rating","Screen 1","hx8b5a",1,"response","74",7211,8310,8313,7211,8310,8313,1,7211,1102,0,NA,"Slider","MoodSlider",2,"object-243","Rating","happy","unhappy","happy",7,"",NA,NA,NA,NA,NA,"Right",NA,14.33,NA,NA,NA,NA,2,"MDPRF10753"
"93",1727179840711,"24/09/2024 12:10:40",1727183440711,1,"24/09/2024 14:10:40",187387,9,"task-7wst",NA,40225743,11743984,NA,"complete",NA,"66f2a1421a5dd6b70344aa8d","computer","Desktop or Laptop","Windows 10","Chrome 129.0.0.0","1544x872","1536x864",NA,NA,0,"Gambling_GBO",12,"In","ABKCJDIEHFG",NA,"In","HM_OCT","seq1","Gamble_Rand_Seq1","Gamble_Rand_Seq1",20,"Rating","Screen 1","hx8b5a",1,"info","",8,0,8,8,0,8,1,8,0,0,NA,"Slider","MoodSlider",2,"object-243","Rating","bored","not bored","bored",7,"",NA,NA,NA,NA,NA,"Right",NA,14.33,NA,NA,NA,NA,2,"MDPRF10753"
"94",1727179845144,"24/09/2024 12:10:45",1727183445144,1,"24/09/2024 14:10:45",187387,9,"task-7wst",NA,40225743,11743984,NA,"complete",NA,"66f2a1421a5dd6b70344aa8d","computer","Desktop or Laptop","Windows 10","Chrome 129.0.0.0","1544x872","1536x864",NA,NA,0,"Gambling_GBO",12,"In","ABKCJDIEHFG",NA,"In","HM_OCT","seq1","Gamble_Rand_Seq1","Gamble_Rand_Seq1",20,"Rating","Screen 1","hx8b5a",1,"continue","",4440,4429,4440,4440,4429,4440,1,4440,0,0,NA,"Click To Continue","Continue Button",3,"object-25","Rating","bored","not bored","bored",7,"",NA,NA,NA,NA,NA,"Right",NA,14.33,NA,NA,NA,NA,2,"MDPRF10753"
"95",1727179845144,"24/09/2024 12:10:45",1727183445144,1,"24/09/2024 14:10:45",187387,9,"task-7wst",NA,40225743,11743984,NA,"complete",NA,"66f2a1421a5dd6b70344aa8d","computer","Desktop or Laptop","Windows 10","Chrome 129.0.0.0","1544x872","1536x864",NA,NA,0,"Gambling_GBO",12,"In","ABKCJDIEHFG",NA,"In","HM_OCT","seq1","Gamble_Rand_Seq1","Gamble_Rand_Seq1",20,"Rating","Screen 1","hx8b5a",1,"response","1",3330,4429,4440,3330,4429,4440,1,3330,1110,0,NA,"Slider","MoodSlider",2,"object-243","Rating","bored","not bored","bored",7,"",NA,NA,NA,NA,NA,"Right",NA,14.33,NA,NA,NA,NA,2,"MDPRF10753"
"96",1727179845148,"24/09/2024 12:10:45",1727183445148,1,"24/09/2024 14:10:45",187387,9,"task-7wst",NA,40225743,11743984,NA,"complete",NA,"66f2a1421a5dd6b70344aa8d","computer","Desktop or Laptop","Windows 10","Chrome 129.0.0.0","1544x872","1536x864",NA,NA,0,"Gambling_GBO",12,"In","ABKCJDIEHFG",NA,"In","HM_OCT","seq1","Gamble_Rand_Seq1","Gamble_Rand_Seq1",21,"Rating","Screen 1","hx8b5a",1,"info","",16,0,16,16,0,16,1,16,0,0,NA,"Slider","MoodSlider",2,"object-243","Rating","frustrated","not frustrated","frustrated",7,"",NA,NA,NA,NA,NA,"Right",NA,14.33,NA,NA,NA,NA,2,"MDPRF10753"
"97",1727179849741,"24/09/2024 12:10:49",1727183449741,1,"24/09/2024 14:10:49",187387,9,"task-7wst",NA,40225743,11743984,NA,"complete",NA,"66f2a1421a5dd6b70344aa8d","computer","Desktop or Laptop","Windows 10","Chrome 129.0.0.0","1544x872","1536x864",NA,NA,0,"Gambling_GBO",12,"In","ABKCJDIEHFG",NA,"In","HM_OCT","seq1","Gamble_Rand_Seq1","Gamble_Rand_Seq1",21,"Rating","Screen 1","hx8b5a",1,"continue","",4609,4596,4609,4609,4596,4609,1,4609,0,0,NA,"Click To Continue","Continue Button",3,"object-25","Rating","frustrated","not frustrated","frustrated",7,"",NA,NA,NA,NA,NA,"Right",NA,14.33,NA,NA,NA,NA,2,"MDPRF10753"
"98",1727179849741,"24/09/2024 12:10:49",1727183449741,1,"24/09/2024 14:10:49",187387,9,"task-7wst",NA,40225743,11743984,NA,"complete",NA,"66f2a1421a5dd6b70344aa8d","computer","Desktop or Laptop","Windows 10","Chrome 129.0.0.0","1544x872","1536x864",NA,NA,0,"Gambling_GBO",12,"In","ABKCJDIEHFG",NA,"In","HM_OCT","seq1","Gamble_Rand_Seq1","Gamble_Rand_Seq1",21,"Rating","Screen 1","hx8b5a",1,"response","2",3547,4596,4609,3547,4596,4609,1,3547,1062,0,NA,"Slider","MoodSlider",2,"object-243","Rating","frustrated","not frustrated","frustrated",7,"",NA,NA,NA,NA,NA,"Right",NA,14.33,NA,NA,NA,NA,2,"MDPRF10753"
"99",1727179851695,"24/09/2024 12:10:51",1727183451695,1,"24/09/2024 14:10:51",187387,9,"task-7wst",NA,40225743,11743984,NA,"complete",NA,"66f2a1421a5dd6b70344aa8d","computer","Desktop or Laptop","Windows 10","Chrome 129.0.0.0","1544x872","1536x864",NA,NA,0,"Gambling_GBO",12,"In","ABKCJDIEHFG",NA,"In","HM_OCT","seq1","Gamble_Rand_Seq1","Gamble_Rand_Seq1",1,"lossT","Screen 1","2oxi65",1,"continue","",1965,1965,1965,1965,1965,1965,1,1965,0,0,NA,"Fixation Timing","Fixation",1,"object-354","lossT","","","",NA,"Right",0.67,-1,4,7,NA,"Right",NA,14.33,NA,NA,NA,NA,2,"MDPRF10753"
"100",1727179855950,"24/09/2024 12:10:55",1727183455950,1,"24/09/2024 14:10:55",187387,9,"task-7wst",NA,40225743,11743984,NA,"complete",NA,"66f2a1421a5dd6b70344aa8d","computer","Desktop or Laptop","Windows 10","Chrome 129.0.0.0","1544x872","1536x864",NA,NA,0,"Gambling_GBO",12,"In","ABKCJDIEHFG",NA,"In","HM_OCT","seq1","Gamble_Rand_Seq1","Gamble_Rand_Seq1",1,"lossT","choice","zjftf8",2,"response","Right",4256,4246,4256,4256,4246,4256,1,4256,0,0,NA,"Keyboard Response","KeyResponseG",6,"object-352","lossT","","","",NA,"Right",0.67,-1,4,7,NA,"Right",NA,13.33,NA,NA,NA,NA,-1,"MDPRF10753"
"101",1727179859938,"24/09/2024 12:10:59",1727183459938,1,"24/09/2024 14:10:59",187387,9,"task-7wst",NA,40225743,11743984,NA,"complete",NA,"66f2a1421a5dd6b70344aa8d","computer","Desktop or Laptop","Windows 10","Chrome 129.0.0.0","1544x872","1536x864",NA,NA,0,"Gambling_GBO",12,"In","ABKCJDIEHFG",NA,"In","HM_OCT","seq1","Gamble_Rand_Seq1","Gamble_Rand_Seq1",1,"lossT","gamble","h5bf9r",3,"timedOut","",3998,3997,3998,3998,3997,3998,1,3998,0,0,NA,"Time Limit","screen",0,"screen","lossT","","","",NA,"Right",0.67,-1,4,7,NA,"Right",NA,13.33,NA,NA,NA,NA,-1,"MDPRF10753"
"102",1727179860936,"24/09/2024 12:11:00",1727183460936,1,"24/09/2024 14:11:00",187387,9,"task-7wst",NA,40225743,11743984,NA,"complete",NA,"66f2a1421a5dd6b70344aa8d","computer","Desktop or Laptop","Windows 10","Chrome 129.0.0.0","1544x872","1536x864",NA,NA,0,"Gambling_GBO",12,"In","ABKCJDIEHFG",NA,"In","HM_OCT","seq1","Gamble_Rand_Seq1","Gamble_Rand_Seq1",1,"lossT","loss","kmnw8b",4,"timedOut","",1000,998,1000,1000,998,1000,1,1000,0,0,NA,"Time Limit","screen",0,"screen","lossT","","","",NA,"Right",0.67,-1,4,7,NA,"Right",NA,13.33,NA,NA,NA,NA,-1,"MDPRF10753"
"103",1727179860944,"24/09/2024 12:11:00",1727183460944,1,"24/09/2024 14:11:00",187387,9,"task-7wst",NA,40225743,11743984,NA,"complete",NA,"66f2a1421a5dd6b70344aa8d","computer","Desktop or Laptop","Windows 10","Chrome 129.0.0.0","1544x872","1536x864",NA,NA,0,"Gambling_GBO",12,"In","ABKCJDIEHFG",NA,"In","HM_OCT","seq1","Gamble_Rand_Seq1","Gamble_Rand_Seq1",22,"Rating","Screen 1","hx8b5a",1,"info","",10,0,10,10,0,10,1,10,0,0,NA,"Slider","MoodSlider",2,"object-243","Rating","bored","not bored","bored",8,"",NA,NA,NA,NA,NA,"Right",NA,13.33,NA,NA,NA,NA,-1,"MDPRF10753"
"104",1727179877114,"24/09/2024 12:11:17",1727183477114,1,"24/09/2024 14:11:17",187387,9,"task-7wst",NA,40225743,11743984,NA,"complete",NA,"66f2a1421a5dd6b70344aa8d","computer","Desktop or Laptop","Windows 10","Chrome 129.0.0.0","1544x872","1536x864",NA,NA,0,"Gambling_GBO",12,"In","ABKCJDIEHFG",NA,"In","HM_OCT","seq1","Gamble_Rand_Seq1","Gamble_Rand_Seq1",22,"Rating","Screen 1","hx8b5a",1,"continue","",16179,16170,16179,16179,16170,16179,1,16179,0,0,NA,"Click To Continue","Continue Button",3,"object-25","Rating","bored","not bored","bored",8,"",NA,NA,NA,NA,NA,"Right",NA,13.33,NA,NA,NA,NA,-1,"MDPRF10753"
"105",1727179877116,"24/09/2024 12:11:17",1727183477116,1,"24/09/2024 14:11:17",187387,9,"task-7wst",NA,40225743,11743984,NA,"complete",NA,"66f2a1421a5dd6b70344aa8d","computer","Desktop or Laptop","Windows 10","Chrome 129.0.0.0","1544x872","1536x864",NA,NA,0,"Gambling_GBO",12,"In","ABKCJDIEHFG",NA,"In","HM_OCT","seq1","Gamble_Rand_Seq1","Gamble_Rand_Seq1",22,"Rating","Screen 1","hx8b5a",1,"response","8",14788,16170,16181,14788,16170,16181,1,14788,1393,0,NA,"Slider","MoodSlider",2,"object-243","Rating","bored","not bored","bored",8,"",NA,NA,NA,NA,NA,"Right",NA,13.33,NA,NA,NA,NA,-1,"MDPRF10753"
"106",1727179877120,"24/09/2024 12:11:17",1727183477120,1,"24/09/2024 14:11:17",187387,9,"task-7wst",NA,40225743,11743984,NA,"complete",NA,"66f2a1421a5dd6b70344aa8d","computer","Desktop or Laptop","Windows 10","Chrome 129.0.0.0","1544x872","1536x864",NA,NA,0,"Gambling_GBO",12,"In","ABKCJDIEHFG",NA,"In","HM_OCT","seq1","Gamble_Rand_Seq1","Gamble_Rand_Seq1",23,"Rating","Screen 1","hx8b5a",1,"info","",15,0,15,15,0,15,1,15,0,0,NA,"Slider","MoodSlider",2,"object-243","Rating","frustrated","not frustrated","frustrated",8,"",NA,NA,NA,NA,NA,"Right",NA,13.33,NA,NA,NA,NA,-1,"MDPRF10753"
"107",1727179884305,"24/09/2024 12:11:24",1727183484305,1,"24/09/2024 14:11:24",187387,9,"task-7wst",NA,40225743,11743984,NA,"complete",NA,"66f2a1421a5dd6b70344aa8d","computer","Desktop or Laptop","Windows 10","Chrome 129.0.0.0","1544x872","1536x864",NA,NA,0,"Gambling_GBO",12,"In","ABKCJDIEHFG",NA,"In","HM_OCT","seq1","Gamble_Rand_Seq1","Gamble_Rand_Seq1",23,"Rating","Screen 1","hx8b5a",1,"continue","",7200,7194,7200,7200,7194,7200,1,7200,0,0,NA,"Click To Continue","Continue Button",3,"object-25","Rating","frustrated","not frustrated","frustrated",8,"",NA,NA,NA,NA,NA,"Right",NA,13.33,NA,NA,NA,NA,-1,"MDPRF10753"
"108",1727179884305,"24/09/2024 12:11:24",1727183484305,1,"24/09/2024 14:11:24",187387,9,"task-7wst",NA,40225743,11743984,NA,"complete",NA,"66f2a1421a5dd6b70344aa8d","computer","Desktop or Laptop","Windows 10","Chrome 129.0.0.0","1544x872","1536x864",NA,NA,0,"Gambling_GBO",12,"In","ABKCJDIEHFG",NA,"In","HM_OCT","seq1","Gamble_Rand_Seq1","Gamble_Rand_Seq1",23,"Rating","Screen 1","hx8b5a",1,"response","22",4513,7194,7200,4513,7194,7200,1,4513,2687,0,NA,"Slider","MoodSlider",2,"object-243","Rating","frustrated","not frustrated","frustrated",8,"",NA,NA,NA,NA,NA,"Right",NA,13.33,NA,NA,NA,NA,-1,"MDPRF10753"
"109",1727179884309,"24/09/2024 12:11:24",1727183484309,1,"24/09/2024 14:11:24",187387,9,"task-7wst",NA,40225743,11743984,NA,"complete",NA,"66f2a1421a5dd6b70344aa8d","computer","Desktop or Laptop","Windows 10","Chrome 129.0.0.0","1544x872","1536x864",NA,NA,0,"Gambling_GBO",12,"In","ABKCJDIEHFG",NA,"In","HM_OCT","seq1","Gamble_Rand_Seq1","Gamble_Rand_Seq1",24,"Rating","Screen 1","hx8b5a",1,"info","",10,0,10,10,0,10,1,10,0,0,NA,"Slider","MoodSlider",2,"object-243","Rating","happy","unhappy","happy",8,"",NA,NA,NA,NA,NA,"Right",NA,13.33,NA,NA,NA,NA,-1,"MDPRF10753"
"110",1727179888154,"24/09/2024 12:11:28",1727183488154,1,"24/09/2024 14:11:28",187387,9,"task-7wst",NA,40225743,11743984,NA,"complete",NA,"66f2a1421a5dd6b70344aa8d","computer","Desktop or Laptop","Windows 10","Chrome 129.0.0.0","1544x872","1536x864",NA,NA,0,"Gambling_GBO",12,"In","ABKCJDIEHFG",NA,"In","HM_OCT","seq1","Gamble_Rand_Seq1","Gamble_Rand_Seq1",24,"Rating","Screen 1","hx8b5a",1,"continue","",3856,3847,3856,3856,3847,3856,1,3856,0,0,NA,"Click To Continue","Continue Button",3,"object-25","Rating","happy","unhappy","happy",8,"",NA,NA,NA,NA,NA,"Right",NA,13.33,NA,NA,NA,NA,-1,"MDPRF10753"
"111",1727179888157,"24/09/2024 12:11:28",1727183488157,1,"24/09/2024 14:11:28",187387,9,"task-7wst",NA,40225743,11743984,NA,"complete",NA,"66f2a1421a5dd6b70344aa8d","computer","Desktop or Laptop","Windows 10","Chrome 129.0.0.0","1544x872","1536x864",NA,NA,0,"Gambling_GBO",12,"In","ABKCJDIEHFG",NA,"In","HM_OCT","seq1","Gamble_Rand_Seq1","Gamble_Rand_Seq1",24,"Rating","Screen 1","hx8b5a",1,"response","80",2164,3847,3859,2164,3847,3859,1,2164,1695,0,NA,"Slider","MoodSlider",2,"object-243","Rating","happy","unhappy","happy",8,"",NA,NA,NA,NA,NA,"Right",NA,13.33,NA,NA,NA,NA,-1,"MDPRF10753"
"112",1727179890112,"24/09/2024 12:11:30",1727183490112,1,"24/09/2024 14:11:30",187387,9,"task-7wst",NA,40225743,11743984,NA,"complete",NA,"66f2a1421a5dd6b70344aa8d","computer","Desktop or Laptop","Windows 10","Chrome 129.0.0.0","1544x872","1536x864",NA,NA,0,"Gambling_GBO",12,"In","ABKCJDIEHFG",NA,"In","HM_OCT","seq1","Gamble_Rand_Seq1","Gamble_Rand_Seq1",2,"winT","Screen 1","np5pnj",1,"continue","",1964,1964,1964,1964,1964,1964,1,1964,0,0,NA,"Fixation Timing","Fixation",1,"object-304","winT","","","",NA,"Right",3.33,3,4,8,NA,"Right",NA,13.33,NA,NA,NA,NA,-1,"MDPRF10753"
"113",1727179892410,"24/09/2024 12:11:32",1727183492410,1,"24/09/2024 14:11:32",187387,9,"task-7wst",NA,40225743,11743984,NA,"complete",NA,"66f2a1421a5dd6b70344aa8d","computer","Desktop or Laptop","Windows 10","Chrome 129.0.0.0","1544x872","1536x864",NA,NA,0,"Gambling_GBO",12,"In","ABKCJDIEHFG",NA,"In","HM_OCT","seq1","Gamble_Rand_Seq1","Gamble_Rand_Seq1",2,"winT","choice","gu8zgx",2,"response","Right",2297,2281,2297,2297,2281,2297,1,2297,0,0,NA,"Keyboard Response","KeyResponseG",6,"object-326","winT","","","",NA,"Right",3.33,3,4,8,NA,"Right",NA,17.33,NA,NA,NA,NA,4,"MDPRF10753"
"114",1727179896389,"24/09/2024 12:11:36",1727183496389,1,"24/09/2024 14:11:36",187387,9,"task-7wst",NA,40225743,11743984,NA,"complete",NA,"66f2a1421a5dd6b70344aa8d","computer","Desktop or Laptop","Windows 10","Chrome 129.0.0.0","1544x872","1536x864",NA,NA,0,"Gambling_GBO",12,"In","ABKCJDIEHFG",NA,"In","HM_OCT","seq1","Gamble_Rand_Seq1","Gamble_Rand_Seq1",2,"winT","gamble","1lb69u",3,"timedOut","",3997,3997,3997,3997,3997,3997,1,3997,0,0,NA,"Time Limit","screen",0,"screen","winT","","","",NA,"Right",3.33,3,4,8,NA,"Right",NA,17.33,NA,NA,NA,NA,4,"MDPRF10753"
"115",1727179897388,"24/09/2024 12:11:37",1727183497388,1,"24/09/2024 14:11:37",187387,9,"task-7wst",NA,40225743,11743984,NA,"complete",NA,"66f2a1421a5dd6b70344aa8d","computer","Desktop or Laptop","Windows 10","Chrome 129.0.0.0","1544x872","1536x864",NA,NA,0,"Gambling_GBO",12,"In","ABKCJDIEHFG",NA,"In","HM_OCT","seq1","Gamble_Rand_Seq1","Gamble_Rand_Seq1",2,"winT","win","dhtsbv",4,"timedOut","",1000,1000,1000,1000,1000,1000,1,1000,0,0,NA,"Time Limit","screen",0,"screen","winT","","","",NA,"Right",3.33,3,4,8,NA,"Right",NA,17.33,NA,NA,NA,NA,4,"MDPRF10753"
"116",1727179897395,"24/09/2024 12:11:37",1727183497395,1,"24/09/2024 14:11:37",187387,9,"task-7wst",NA,40225743,11743984,NA,"complete",NA,"66f2a1421a5dd6b70344aa8d","computer","Desktop or Laptop","Windows 10","Chrome 129.0.0.0","1544x872","1536x864",NA,NA,0,"Gambling_GBO",12,"In","ABKCJDIEHFG",NA,"In","HM_OCT","seq1","Gamble_Rand_Seq1","Gamble_Rand_Seq1",25,"Rating","Screen 1","hx8b5a",1,"info","",7,0,7,7,0,7,1,7,0,0,NA,"Slider","MoodSlider",2,"object-243","Rating","bored","not bored","bored",9,"",NA,NA,NA,NA,NA,"Right",NA,17.33,NA,NA,NA,NA,4,"MDPRF10753"
"117",1727179904099,"24/09/2024 12:11:44",1727183504099,1,"24/09/2024 14:11:44",187387,9,"task-7wst",NA,40225743,11743984,NA,"complete",NA,"66f2a1421a5dd6b70344aa8d","computer","Desktop or Laptop","Windows 10","Chrome 129.0.0.0","1544x872","1536x864",NA,NA,0,"Gambling_GBO",12,"In","ABKCJDIEHFG",NA,"In","HM_OCT","seq1","Gamble_Rand_Seq1","Gamble_Rand_Seq1",25,"Rating","Screen 1","hx8b5a",1,"continue","",6711,6710,6711,6711,6710,6711,1,6711,0,0,NA,"Click To Continue","Continue Button",3,"object-25","Rating","bored","not bored","bored",9,"",NA,NA,NA,NA,NA,"Right",NA,17.33,NA,NA,NA,NA,4,"MDPRF10753"
"118",1727179904102,"24/09/2024 12:11:44",1727183504102,1,"24/09/2024 14:11:44",187387,9,"task-7wst",NA,40225743,11743984,NA,"complete",NA,"66f2a1421a5dd6b70344aa8d","computer","Desktop or Laptop","Windows 10","Chrome 129.0.0.0","1544x872","1536x864",NA,NA,0,"Gambling_GBO",12,"In","ABKCJDIEHFG",NA,"In","HM_OCT","seq1","Gamble_Rand_Seq1","Gamble_Rand_Seq1",25,"Rating","Screen 1","hx8b5a",1,"response","3",5145,6710,6714,5145,6710,6714,1,5145,1569,0,NA,"Slider","MoodSlider",2,"object-243","Rating","bored","not bored","bored",9,"",NA,NA,NA,NA,NA,"Right",NA,17.33,NA,NA,NA,NA,4,"MDPRF10753"
"119",1727179904107,"24/09/2024 12:11:44",1727183504107,1,"24/09/2024 14:11:44",187387,9,"task-7wst",NA,40225743,11743984,NA,"complete",NA,"66f2a1421a5dd6b70344aa8d","computer","Desktop or Laptop","Windows 10","Chrome 129.0.0.0","1544x872","1536x864",NA,NA,0,"Gambling_GBO",12,"In","ABKCJDIEHFG",NA,"In","HM_OCT","seq1","Gamble_Rand_Seq1","Gamble_Rand_Seq1",26,"Rating","Screen 1","hx8b5a",1,"info","",9,0,9,9,0,9,1,9,0,0,NA,"Slider","MoodSlider",2,"object-243","Rating","happy","unhappy","happy",9,"",NA,NA,NA,NA,NA,"Right",NA,17.33,NA,NA,NA,NA,4,"MDPRF10753"
"120",1727179912214,"24/09/2024 12:11:52",1727183512214,1,"24/09/2024 14:11:52",187387,9,"task-7wst",NA,40225743,11743984,NA,"complete",NA,"66f2a1421a5dd6b70344aa8d","computer","Desktop or Laptop","Windows 10","Chrome 129.0.0.0","1544x872","1536x864",NA,NA,0,"Gambling_GBO",12,"In","ABKCJDIEHFG",NA,"In","HM_OCT","seq1","Gamble_Rand_Seq1","Gamble_Rand_Seq1",26,"Rating","Screen 1","hx8b5a",1,"continue","",8117,8110,8117,8117,8110,8117,1,8117,0,0,NA,"Click To Continue","Continue Button",3,"object-25","Rating","happy","unhappy","happy",9,"",NA,NA,NA,NA,NA,"Right",NA,17.33,NA,NA,NA,NA,4,"MDPRF10753"
"121",1727179912214,"24/09/2024 12:11:52",1727183512214,1,"24/09/2024 14:11:52",187387,9,"task-7wst",NA,40225743,11743984,NA,"complete",NA,"66f2a1421a5dd6b70344aa8d","computer","Desktop or Laptop","Windows 10","Chrome 129.0.0.0","1544x872","1536x864",NA,NA,0,"Gambling_GBO",12,"In","ABKCJDIEHFG",NA,"In","HM_OCT","seq1","Gamble_Rand_Seq1","Gamble_Rand_Seq1",26,"Rating","Screen 1","hx8b5a",1,"response","95",6261,8110,8117,6261,8110,8117,1,6261,1856,0,NA,"Slider","MoodSlider",2,"object-243","Rating","happy","unhappy","happy",9,"",NA,NA,NA,NA,NA,"Right",NA,17.33,NA,NA,NA,NA,4,"MDPRF10753"
"122",1727179912218,"24/09/2024 12:11:52",1727183512218,1,"24/09/2024 14:11:52",187387,9,"task-7wst",NA,40225743,11743984,NA,"complete",NA,"66f2a1421a5dd6b70344aa8d","computer","Desktop or Laptop","Windows 10","Chrome 129.0.0.0","1544x872","1536x864",NA,NA,0,"Gambling_GBO",12,"In","ABKCJDIEHFG",NA,"In","HM_OCT","seq1","Gamble_Rand_Seq1","Gamble_Rand_Seq1",27,"Rating","Screen 1","hx8b5a",1,"info","",11,0,11,11,0,11,1,11,0,0,NA,"Slider","MoodSlider",2,"object-243","Rating","frustrated","not frustrated","frustrated",9,"",NA,NA,NA,NA,NA,"Right",NA,17.33,NA,NA,NA,NA,4,"MDPRF10753"
"123",1727179923309,"24/09/2024 12:12:03",1727183523309,1,"24/09/2024 14:12:03",187387,9,"task-7wst",NA,40225743,11743984,NA,"complete",NA,"66f2a1421a5dd6b70344aa8d","computer","Desktop or Laptop","Windows 10","Chrome 129.0.0.0","1544x872","1536x864",NA,NA,0,"Gambling_GBO",12,"In","ABKCJDIEHFG",NA,"In","HM_OCT","seq1","Gamble_Rand_Seq1","Gamble_Rand_Seq1",27,"Rating","Screen 1","hx8b5a",1,"continue","",11102,11090,11102,11102,11090,11102,1,11102,0,0,NA,"Click To Continue","Continue Button",3,"object-25","Rating","frustrated","not frustrated","frustrated",9,"",NA,NA,NA,NA,NA,"Right",NA,17.33,NA,NA,NA,NA,4,"MDPRF10753"
"124",1727179923311,"24/09/2024 12:12:03",1727183523311,1,"24/09/2024 14:12:03",187387,9,"task-7wst",NA,40225743,11743984,NA,"complete",NA,"66f2a1421a5dd6b70344aa8d","computer","Desktop or Laptop","Windows 10","Chrome 129.0.0.0","1544x872","1536x864",NA,NA,0,"Gambling_GBO",12,"In","ABKCJDIEHFG",NA,"In","HM_OCT","seq1","Gamble_Rand_Seq1","Gamble_Rand_Seq1",27,"Rating","Screen 1","hx8b5a",1,"response","4",8192,11090,11104,8192,11090,11104,1,8192,2912,0,NA,"Slider","MoodSlider",2,"object-243","Rating","frustrated","not frustrated","frustrated",9,"",NA,NA,NA,NA,NA,"Right",NA,17.33,NA,NA,NA,NA,4,"MDPRF10753"
"125",1727179925264,"24/09/2024 12:12:05",1727183525264,1,"24/09/2024 14:12:05",187387,9,"task-7wst",NA,40225743,11743984,NA,"complete",NA,"66f2a1421a5dd6b70344aa8d","computer","Desktop or Laptop","Windows 10","Chrome 129.0.0.0","1544x872","1536x864",NA,NA,0,"Gambling_GBO",12,"In","ABKCJDIEHFG",NA,"In","HM_OCT","seq1","Gamble_Rand_Seq1","Gamble_Rand_Seq1",3,"winT","Screen 1","np5pnj",1,"continue","",1965,1965,1965,1965,1965,1965,1,1965,0,0,NA,"Fixation Timing","Fixation",1,"object-304","winT","","","",NA,"Right",2.33,2,3,9,NA,"Right",NA,17.33,NA,NA,NA,NA,4,"MDPRF10753"
"126",1727179927976,"24/09/2024 12:12:07",1727183527976,1,"24/09/2024 14:12:07",187387,9,"task-7wst",NA,40225743,11743984,NA,"complete",NA,"66f2a1421a5dd6b70344aa8d","computer","Desktop or Laptop","Windows 10","Chrome 129.0.0.0","1544x872","1536x864",NA,NA,0,"Gambling_GBO",12,"In","ABKCJDIEHFG",NA,"In","HM_OCT","seq1","Gamble_Rand_Seq1","Gamble_Rand_Seq1",3,"winT","choice","gu8zgx",2,"response","Right",2713,2698,2713,2713,2698,2713,1,2713,0,0,NA,"Keyboard Response","KeyResponseG",6,"object-326","winT","","","",NA,"Right",2.33,2,3,9,NA,"Right",NA,20.33,NA,NA,NA,NA,3,"MDPRF10753"
"127",1727179931958,"24/09/2024 12:12:11",1727183531958,1,"24/09/2024 14:12:11",187387,9,"task-7wst",NA,40225743,11743984,NA,"complete",NA,"66f2a1421a5dd6b70344aa8d","computer","Desktop or Laptop","Windows 10","Chrome 129.0.0.0","1544x872","1536x864",NA,NA,0,"Gambling_GBO",12,"In","ABKCJDIEHFG",NA,"In","HM_OCT","seq1","Gamble_Rand_Seq1","Gamble_Rand_Seq1",3,"winT","gamble","1lb69u",3,"timedOut","",3997,3996,3997,3997,3996,3997,1,3997,0,0,NA,"Time Limit","screen",0,"screen","winT","","","",NA,"Right",2.33,2,3,9,NA,"Right",NA,20.33,NA,NA,NA,NA,3,"MDPRF10753"
"128",1727179932957,"24/09/2024 12:12:12",1727183532957,1,"24/09/2024 14:12:12",187387,9,"task-7wst",NA,40225743,11743984,NA,"complete",NA,"66f2a1421a5dd6b70344aa8d","computer","Desktop or Laptop","Windows 10","Chrome 129.0.0.0","1544x872","1536x864",NA,NA,0,"Gambling_GBO",12,"In","ABKCJDIEHFG",NA,"In","HM_OCT","seq1","Gamble_Rand_Seq1","Gamble_Rand_Seq1",3,"winT","win","dhtsbv",4,"timedOut","",1000,999,1000,1000,999,1000,1,1000,0,0,NA,"Time Limit","screen",0,"screen","winT","","","",NA,"Right",2.33,2,3,9,NA,"Right",NA,20.33,NA,NA,NA,NA,3,"MDPRF10753"
"129",1727179932970,"24/09/2024 12:12:12",1727183532970,1,"24/09/2024 14:12:12",187387,9,"task-7wst",NA,40225743,11743984,NA,"complete",NA,"66f2a1421a5dd6b70344aa8d","computer","Desktop or Laptop","Windows 10","Chrome 129.0.0.0","1544x872","1536x864",NA,NA,0,"Gambling_GBO",12,"In","ABKCJDIEHFG",NA,"In","HM_OCT","seq1","Gamble_Rand_Seq1","Gamble_Rand_Seq1",28,"Rating","Screen 1","hx8b5a",1,"info","",14,0,14,14,0,14,1,14,0,0,NA,"Slider","MoodSlider",2,"object-243","Rating","frustrated","not frustrated","frustrated",10,"",NA,NA,NA,NA,NA,"Right",NA,20.33,NA,NA,NA,NA,3,"MDPRF10753"
"130",1727179955950,"24/09/2024 12:12:35",1727183555950,1,"24/09/2024 14:12:35",187387,9,"task-7wst",NA,40225743,11743984,NA,"complete",NA,"66f2a1421a5dd6b70344aa8d","computer","Desktop or Laptop","Windows 10","Chrome 129.0.0.0","1544x872","1536x864",NA,NA,0,"Gambling_GBO",12,"In","ABKCJDIEHFG",NA,"In","HM_OCT","seq1","Gamble_Rand_Seq1","Gamble_Rand_Seq1",28,"Rating","Screen 1","hx8b5a",1,"continue","",22994,22980,22994,22994,22980,22994,1,22994,0,0,NA,"Click To Continue","Continue Button",3,"object-25","Rating","frustrated","not frustrated","frustrated",10,"",NA,NA,NA,NA,NA,"Right",NA,20.33,NA,NA,NA,NA,3,"MDPRF10753"
"131",1727179955958,"24/09/2024 12:12:35",1727183555958,1,"24/09/2024 14:12:35",187387,9,"task-7wst",NA,40225743,11743984,NA,"complete",NA,"66f2a1421a5dd6b70344aa8d","computer","Desktop or Laptop","Windows 10","Chrome 129.0.0.0","1544x872","1536x864",NA,NA,0,"Gambling_GBO",12,"In","ABKCJDIEHFG",NA,"In","HM_OCT","seq1","Gamble_Rand_Seq1","Gamble_Rand_Seq1",28,"Rating","Screen 1","hx8b5a",1,"response","11",20166,22980,22997,20166,22980,22997,1,20166,2831,0,NA,"Slider","MoodSlider",2,"object-243","Rating","frustrated","not frustrated","frustrated",10,"",NA,NA,NA,NA,NA,"Right",NA,20.33,NA,NA,NA,NA,3,"MDPRF10753"
"132",1727179955968,"24/09/2024 12:12:35",1727183555968,1,"24/09/2024 14:12:35",187387,9,"task-7wst",NA,40225743,11743984,NA,"complete",NA,"66f2a1421a5dd6b70344aa8d","computer","Desktop or Laptop","Windows 10","Chrome 129.0.0.0","1544x872","1536x864",NA,NA,0,"Gambling_GBO",12,"In","ABKCJDIEHFG",NA,"In","HM_OCT","seq1","Gamble_Rand_Seq1","Gamble_Rand_Seq1",29,"Rating","Screen 1","hx8b5a",1,"info","",17,0,17,17,0,17,1,17,0,0,NA,"Slider","MoodSlider",2,"object-243","Rating","happy","unhappy","happy",10,"",NA,NA,NA,NA,NA,"Right",NA,20.33,NA,NA,NA,NA,3,"MDPRF10753"
"133",1727179962327,"24/09/2024 12:12:42",1727183562327,1,"24/09/2024 14:12:42",187387,9,"task-7wst",NA,40225743,11743984,NA,"complete",NA,"66f2a1421a5dd6b70344aa8d","computer","Desktop or Laptop","Windows 10","Chrome 129.0.0.0","1544x872","1536x864",NA,NA,0,"Gambling_GBO",12,"In","ABKCJDIEHFG",NA,"In","HM_OCT","seq1","Gamble_Rand_Seq1","Gamble_Rand_Seq1",29,"Rating","Screen 1","hx8b5a",1,"continue","",6391,6377,6391,6391,6377,6391,1,6391,0,0,NA,"Click To Continue","Continue Button",3,"object-25","Rating","happy","unhappy","happy",10,"",NA,NA,NA,NA,NA,"Right",NA,20.33,NA,NA,NA,NA,3,"MDPRF10753"
"134",1727179962328,"24/09/2024 12:12:42",1727183562328,1,"24/09/2024 14:12:42",187387,9,"task-7wst",NA,40225743,11743984,NA,"complete",NA,"66f2a1421a5dd6b70344aa8d","computer","Desktop or Laptop","Windows 10","Chrome 129.0.0.0","1544x872","1536x864",NA,NA,0,"Gambling_GBO",12,"In","ABKCJDIEHFG",NA,"In","HM_OCT","seq1","Gamble_Rand_Seq1","Gamble_Rand_Seq1",29,"Rating","Screen 1","hx8b5a",1,"response","84",4313,6377,6391,4313,6377,6391,1,4313,2078,0,NA,"Slider","MoodSlider",2,"object-243","Rating","happy","unhappy","happy",10,"",NA,NA,NA,NA,NA,"Right",NA,20.33,NA,NA,NA,NA,3,"MDPRF10753"
"135",1727179962334,"24/09/2024 12:12:42",1727183562334,1,"24/09/2024 14:12:42",187387,9,"task-7wst",NA,40225743,11743984,NA,"complete",NA,"66f2a1421a5dd6b70344aa8d","computer","Desktop or Laptop","Windows 10","Chrome 129.0.0.0","1544x872","1536x864",NA,NA,0,"Gambling_GBO",12,"In","ABKCJDIEHFG",NA,"In","HM_OCT","seq1","Gamble_Rand_Seq1","Gamble_Rand_Seq1",30,"Rating","Screen 1","hx8b5a",1,"info","",16,0,16,16,0,16,1,16,0,0,NA,"Slider","MoodSlider",2,"object-243","Rating","bored","not bored","bored",10,"",NA,NA,NA,NA,NA,"Right",NA,20.33,NA,NA,NA,NA,3,"MDPRF10753"
"136",1727179968133,"24/09/2024 12:12:48",1727183568133,1,"24/09/2024 14:12:48",187387,9,"task-7wst",NA,40225743,11743984,NA,"complete",NA,"66f2a1421a5dd6b70344aa8d","computer","Desktop or Laptop","Windows 10","Chrome 129.0.0.0","1544x872","1536x864",NA,NA,0,"Gambling_GBO",12,"In","ABKCJDIEHFG",NA,"In","HM_OCT","seq1","Gamble_Rand_Seq1","Gamble_Rand_Seq1",30,"Rating","Screen 1","hx8b5a",1,"continue","",5820,5812,5820,5820,5812,5820,1,5820,0,0,NA,"Click To Continue","Continue Button",3,"object-25","Rating","bored","not bored","bored",10,"",NA,NA,NA,NA,NA,"Right",NA,20.33,NA,NA,NA,NA,3,"MDPRF10753"
"137",1727179968139,"24/09/2024 12:12:48",1727183568139,1,"24/09/2024 14:12:48",187387,9,"task-7wst",NA,40225743,11743984,NA,"complete",NA,"66f2a1421a5dd6b70344aa8d","computer","Desktop or Laptop","Windows 10","Chrome 129.0.0.0","1544x872","1536x864",NA,NA,0,"Gambling_GBO",12,"In","ABKCJDIEHFG",NA,"In","HM_OCT","seq1","Gamble_Rand_Seq1","Gamble_Rand_Seq1",30,"Rating","Screen 1","hx8b5a",1,"response","11",4663,5812,5827,4663,5812,5827,1,4663,1164,0,NA,"Slider","MoodSlider",2,"object-243","Rating","bored","not bored","bored",10,"",NA,NA,NA,NA,NA,"Right",NA,20.33,NA,NA,NA,NA,3,"MDPRF10753"
"138",1727179970091,"24/09/2024 12:12:50",1727183570091,1,"24/09/2024 14:12:50",187387,9,"task-7wst",NA,40225743,11743984,NA,"complete",NA,"66f2a1421a5dd6b70344aa8d","computer","Desktop or Laptop","Windows 10","Chrome 129.0.0.0","1544x872","1536x864",NA,NA,0,"Gambling_GBO",12,"In","ABKCJDIEHFG",NA,"In","HM_OCT","seq1","Gamble_Rand_Seq1","Gamble_Rand_Seq1",3,"winB","Screen 1","pkkyi8",1,"continue","",1966,1966,1966,1966,1966,1966,1,1966,0,0,NA,"Fixation Timing","Fixation",1,"object-246","winB","","","",NA,"Right",-2,-3,0,10,NA,"Right",NA,20.33,NA,NA,NA,NA,3,"MDPRF10753"
"139",1727179974658,"24/09/2024 12:12:54",1727183574658,1,"24/09/2024 14:12:54",187387,9,"task-7wst",NA,40225743,11743984,NA,"complete",NA,"66f2a1421a5dd6b70344aa8d","computer","Desktop or Laptop","Windows 10","Chrome 129.0.0.0","1544x872","1536x864",NA,NA,0,"Gambling_GBO",12,"In","ABKCJDIEHFG",NA,"In","HM_OCT","seq1","Gamble_Rand_Seq1","Gamble_Rand_Seq1",3,"winB","choice","5lszbx",2,"response","Right",4567,4562,4567,4567,4562,4567,1,4567,0,0,NA,"Keyboard Response","KeyResponseG",6,"object-256","winB","","","",NA,"Right",-2,-3,0,10,NA,"Right",NA,20.33,NA,NA,NA,NA,0,"MDPRF10753"
"140",1727179978650,"24/09/2024 12:12:58",1727183578650,1,"24/09/2024 14:12:58",187387,9,"task-7wst",NA,40225743,11743984,NA,"complete",NA,"66f2a1421a5dd6b70344aa8d","computer","Desktop or Laptop","Windows 10","Chrome 129.0.0.0","1544x872","1536x864",NA,NA,0,"Gambling_GBO",12,"In","ABKCJDIEHFG",NA,"In","HM_OCT","seq1","Gamble_Rand_Seq1","Gamble_Rand_Seq1",3,"winB","gamble","17lgr3",3,"timedOut","",3997,3996,3997,3997,3996,3997,1,3997,0,0,NA,"Time Limit","screen",0,"screen","winB","","","",NA,"Right",-2,-3,0,10,NA,"Right",NA,20.33,NA,NA,NA,NA,0,"MDPRF10753"
"141",1727179979650,"24/09/2024 12:12:59",1727183579650,1,"24/09/2024 14:12:59",187387,9,"task-7wst",NA,40225743,11743984,NA,"complete",NA,"66f2a1421a5dd6b70344aa8d","computer","Desktop or Laptop","Windows 10","Chrome 129.0.0.0","1544x872","1536x864",NA,NA,0,"Gambling_GBO",12,"In","ABKCJDIEHFG",NA,"In","HM_OCT","seq1","Gamble_Rand_Seq1","Gamble_Rand_Seq1",3,"winB","win","dzz5jr",4,"timedOut","",1001,1000,1001,1001,1000,1001,1,1001,0,0,NA,"Time Limit","screen",0,"screen","winB","","","",NA,"Right",-2,-3,0,10,NA,"Right",NA,20.33,NA,NA,NA,NA,0,"MDPRF10753"
"142",1727179979657,"24/09/2024 12:12:59",1727183579657,1,"24/09/2024 14:12:59",187387,9,"task-7wst",NA,40225743,11743984,NA,"complete",NA,"66f2a1421a5dd6b70344aa8d","computer","Desktop or Laptop","Windows 10","Chrome 129.0.0.0","1544x872","1536x864",NA,NA,0,"Gambling_GBO",12,"In","ABKCJDIEHFG",NA,"In","HM_OCT","seq1","Gamble_Rand_Seq1","Gamble_Rand_Seq1",31,"Rating","Screen 1","hx8b5a",1,"info","",9,0,9,9,0,9,1,9,0,0,NA,"Slider","MoodSlider",2,"object-243","Rating","bored","not bored","bored",11,"",NA,NA,NA,NA,NA,"Right",NA,20.33,NA,NA,NA,NA,0,"MDPRF10753"
"143",1727179988559,"24/09/2024 12:13:08",1727183588559,1,"24/09/2024 14:13:08",187387,9,"task-7wst",NA,40225743,11743984,NA,"complete",NA,"66f2a1421a5dd6b70344aa8d","computer","Desktop or Laptop","Windows 10","Chrome 129.0.0.0","1544x872","1536x864",NA,NA,0,"Gambling_GBO",12,"In","ABKCJDIEHFG",NA,"In","HM_OCT","seq1","Gamble_Rand_Seq1","Gamble_Rand_Seq1",31,"Rating","Screen 1","hx8b5a",1,"continue","",8909,8892,8909,8909,8892,8909,1,8909,0,0,NA,"Click To Continue","Continue Button",3,"object-25","Rating","bored","not bored","bored",11,"",NA,NA,NA,NA,NA,"Right",NA,20.33,NA,NA,NA,NA,0,"MDPRF10753"
"144",1727179988559,"24/09/2024 12:13:08",1727183588559,1,"24/09/2024 14:13:08",187387,9,"task-7wst",NA,40225743,11743984,NA,"complete",NA,"66f2a1421a5dd6b70344aa8d","computer","Desktop or Laptop","Windows 10","Chrome 129.0.0.0","1544x872","1536x864",NA,NA,0,"Gambling_GBO",12,"In","ABKCJDIEHFG",NA,"In","HM_OCT","seq1","Gamble_Rand_Seq1","Gamble_Rand_Seq1",31,"Rating","Screen 1","hx8b5a",1,"response","10",7210,8892,8909,7210,8892,8909,1,7210,1699,0,NA,"Slider","MoodSlider",2,"object-243","Rating","bored","not bored","bored",11,"",NA,NA,NA,NA,NA,"Right",NA,20.33,NA,NA,NA,NA,0,"MDPRF10753"
"145",1727179988564,"24/09/2024 12:13:08",1727183588564,1,"24/09/2024 14:13:08",187387,9,"task-7wst",NA,40225743,11743984,NA,"complete",NA,"66f2a1421a5dd6b70344aa8d","computer","Desktop or Laptop","Windows 10","Chrome 129.0.0.0","1544x872","1536x864",NA,NA,0,"Gambling_GBO",12,"In","ABKCJDIEHFG",NA,"In","HM_OCT","seq1","Gamble_Rand_Seq1","Gamble_Rand_Seq1",32,"Rating","Screen 1","hx8b5a",1,"info","",17,0,17,17,0,17,1,17,0,0,NA,"Slider","MoodSlider",2,"object-243","Rating","frustrated","not frustrated","frustrated",11,"",NA,NA,NA,NA,NA,"Right",NA,20.33,NA,NA,NA,NA,0,"MDPRF10753"
"146",1727179992479,"24/09/2024 12:13:12",1727183592479,1,"24/09/2024 14:13:12",187387,9,"task-7wst",NA,40225743,11743984,NA,"complete",NA,"66f2a1421a5dd6b70344aa8d","computer","Desktop or Laptop","Windows 10","Chrome 129.0.0.0","1544x872","1536x864",NA,NA,0,"Gambling_GBO",12,"In","ABKCJDIEHFG",NA,"In","HM_OCT","seq1","Gamble_Rand_Seq1","Gamble_Rand_Seq1",32,"Rating","Screen 1","hx8b5a",1,"continue","",3938,3929,3938,3938,3929,3938,1,3938,0,0,NA,"Click To Continue","Continue Button",3,"object-25","Rating","frustrated","not frustrated","frustrated",11,"",NA,NA,NA,NA,NA,"Right",NA,20.33,NA,NA,NA,NA,0,"MDPRF10753"
"147",1727179992481,"24/09/2024 12:13:12",1727183592481,1,"24/09/2024 14:13:12",187387,9,"task-7wst",NA,40225743,11743984,NA,"complete",NA,"66f2a1421a5dd6b70344aa8d","computer","Desktop or Laptop","Windows 10","Chrome 129.0.0.0","1544x872","1536x864",NA,NA,0,"Gambling_GBO",12,"In","ABKCJDIEHFG",NA,"In","HM_OCT","seq1","Gamble_Rand_Seq1","Gamble_Rand_Seq1",32,"Rating","Screen 1","hx8b5a",1,"response","0",2697,3929,3940,2697,3929,3940,1,2697,1243,0,NA,"Slider","MoodSlider",2,"object-243","Rating","frustrated","not frustrated","frustrated",11,"",NA,NA,NA,NA,NA,"Right",NA,20.33,NA,NA,NA,NA,0,"MDPRF10753"
"148",1727179992486,"24/09/2024 12:13:12",1727183592486,1,"24/09/2024 14:13:12",187387,9,"task-7wst",NA,40225743,11743984,NA,"complete",NA,"66f2a1421a5dd6b70344aa8d","computer","Desktop or Laptop","Windows 10","Chrome 129.0.0.0","1544x872","1536x864",NA,NA,0,"Gambling_GBO",12,"In","ABKCJDIEHFG",NA,"In","HM_OCT","seq1","Gamble_Rand_Seq1","Gamble_Rand_Seq1",33,"Rating","Screen 1","hx8b5a",1,"info","",16,0,16,16,0,16,1,16,0,0,NA,"Slider","MoodSlider",2,"object-243","Rating","happy","unhappy","happy",11,"",NA,NA,NA,NA,NA,"Right",NA,20.33,NA,NA,NA,NA,0,"MDPRF10753"
"149",1727179996773,"24/09/2024 12:13:16",1727183596773,1,"24/09/2024 14:13:16",187387,9,"task-7wst",NA,40225743,11743984,NA,"complete",NA,"66f2a1421a5dd6b70344aa8d","computer","Desktop or Laptop","Windows 10","Chrome 129.0.0.0","1544x872","1536x864",NA,NA,0,"Gambling_GBO",12,"In","ABKCJDIEHFG",NA,"In","HM_OCT","seq1","Gamble_Rand_Seq1","Gamble_Rand_Seq1",33,"Rating","Screen 1","hx8b5a",1,"continue","",4302,4297,4302,4302,4297,4302,1,4302,0,0,NA,"Click To Continue","Continue Button",3,"object-25","Rating","happy","unhappy","happy",11,"",NA,NA,NA,NA,NA,"Right",NA,20.33,NA,NA,NA,NA,0,"MDPRF10753"
"150",1727179996773,"24/09/2024 12:13:16",1727183596773,1,"24/09/2024 14:13:16",187387,9,"task-7wst",NA,40225743,11743984,NA,"complete",NA,"66f2a1421a5dd6b70344aa8d","computer","Desktop or Laptop","Windows 10","Chrome 129.0.0.0","1544x872","1536x864",NA,NA,0,"Gambling_GBO",12,"In","ABKCJDIEHFG",NA,"In","HM_OCT","seq1","Gamble_Rand_Seq1","Gamble_Rand_Seq1",33,"Rating","Screen 1","hx8b5a",1,"response","99",1633,4297,4303,1633,4297,4303,1,1633,2670,0,NA,"Slider","MoodSlider",2,"object-243","Rating","happy","unhappy","happy",11,"",NA,NA,NA,NA,NA,"Right",NA,20.33,NA,NA,NA,NA,0,"MDPRF10753"
"151",1727179998733,"24/09/2024 12:13:18",1727183598733,1,"24/09/2024 14:13:18",187387,9,"task-7wst",NA,40225743,11743984,NA,"complete",NA,"66f2a1421a5dd6b70344aa8d","computer","Desktop or Laptop","Windows 10","Chrome 129.0.0.0","1544x872","1536x864",NA,NA,0,"Gambling_GBO",12,"In","ABKCJDIEHFG",NA,"In","HM_OCT","seq1","Gamble_Rand_Seq1","Gamble_Rand_Seq1",4,"lossB","Screen 1","a4fynh",1,"continue","",1965,1965,1965,1965,1965,1965,1,1965,0,0,NA,"Fixation Timing","Fixation",1,"object-113","lossB","","","",NA,"Right",4.67,4,6,11,NA,"Right",NA,20.33,NA,NA,NA,NA,0,"MDPRF10753"
"152",1727180002568,"24/09/2024 12:13:22",1727183602568,1,"24/09/2024 14:13:22",187387,9,"task-7wst",NA,40225743,11743984,NA,"complete",NA,"66f2a1421a5dd6b70344aa8d","computer","Desktop or Laptop","Windows 10","Chrome 129.0.0.0","1544x872","1536x864",NA,NA,0,"Gambling_GBO",12,"In","ABKCJDIEHFG",NA,"In","HM_OCT","seq1","Gamble_Rand_Seq1","Gamble_Rand_Seq1",4,"lossB","choice","k9qq8f",2,"response","Right",3836,3830,3836,3836,3830,3836,1,3836,0,0,NA,"Keyboard Response","KeyResponseG",6,"object-200","lossB","","","",NA,"Right",4.67,4,6,11,NA,"Right",NA,24.33,NA,NA,NA,NA,4,"MDPRF10753"
"153",1727180006559,"24/09/2024 12:13:26",1727183606559,1,"24/09/2024 14:13:26",187387,9,"task-7wst",NA,40225743,11743984,NA,"complete",NA,"66f2a1421a5dd6b70344aa8d","computer","Desktop or Laptop","Windows 10","Chrome 129.0.0.0","1544x872","1536x864",NA,NA,0,"Gambling_GBO",12,"In","ABKCJDIEHFG",NA,"In","HM_OCT","seq1","Gamble_Rand_Seq1","Gamble_Rand_Seq1",4,"lossB","gamble","tpcid5",3,"timedOut","",3998,3996,3998,3998,3996,3998,1,3998,0,0,NA,"Time Limit","screen",0,"screen","lossB","","","",NA,"Right",4.67,4,6,11,NA,"Right",NA,24.33,NA,NA,NA,NA,4,"MDPRF10753"
"154",1727180007558,"24/09/2024 12:13:27",1727183607558,1,"24/09/2024 14:13:27",187387,9,"task-7wst",NA,40225743,11743984,NA,"complete",NA,"66f2a1421a5dd6b70344aa8d","computer","Desktop or Laptop","Windows 10","Chrome 129.0.0.0","1544x872","1536x864",NA,NA,0,"Gambling_GBO",12,"In","ABKCJDIEHFG",NA,"In","HM_OCT","seq1","Gamble_Rand_Seq1","Gamble_Rand_Seq1",4,"lossB","loss","2apfzp",4,"timedOut","",1001,999,1001,1001,999,1001,1,1001,0,0,NA,"Time Limit","screen",0,"screen","lossB","","","",NA,"Right",4.67,4,6,11,NA,"Right",NA,24.33,NA,NA,NA,NA,4,"MDPRF10753"
"155",1727180007563,"24/09/2024 12:13:27",1727183607563,1,"24/09/2024 14:13:27",187387,9,"task-7wst",NA,40225743,11743984,NA,"complete",NA,"66f2a1421a5dd6b70344aa8d","computer","Desktop or Laptop","Windows 10","Chrome 129.0.0.0","1544x872","1536x864",NA,NA,0,"Gambling_GBO",12,"In","ABKCJDIEHFG",NA,"In","HM_OCT","seq1","Gamble_Rand_Seq1","Gamble_Rand_Seq1",34,"Rating","Screen 1","hx8b5a",1,"info","",6,0,6,6,0,6,1,6,0,0,NA,"Slider","MoodSlider",2,"object-243","Rating","bored","not bored","bored",12,"",NA,NA,NA,NA,NA,"Right",NA,24.33,NA,NA,NA,NA,4,"MDPRF10753"
"156",1727180015291,"24/09/2024 12:13:35",1727183615291,1,"24/09/2024 14:13:35",187387,9,"task-7wst",NA,40225743,11743984,NA,"complete",NA,"66f2a1421a5dd6b70344aa8d","computer","Desktop or Laptop","Windows 10","Chrome 129.0.0.0","1544x872","1536x864",NA,NA,0,"Gambling_GBO",12,"In","ABKCJDIEHFG",NA,"In","HM_OCT","seq1","Gamble_Rand_Seq1","Gamble_Rand_Seq1",34,"Rating","Screen 1","hx8b5a",1,"continue","",7734,7727,7734,7734,7727,7734,1,7734,0,0,NA,"Click To Continue","Continue Button",3,"object-25","Rating","bored","not bored","bored",12,"",NA,NA,NA,NA,NA,"Right",NA,24.33,NA,NA,NA,NA,4,"MDPRF10753"
"157",1727180015294,"24/09/2024 12:13:35",1727183615294,1,"24/09/2024 14:13:35",187387,9,"task-7wst",NA,40225743,11743984,NA,"complete",NA,"66f2a1421a5dd6b70344aa8d","computer","Desktop or Laptop","Windows 10","Chrome 129.0.0.0","1544x872","1536x864",NA,NA,0,"Gambling_GBO",12,"In","ABKCJDIEHFG",NA,"In","HM_OCT","seq1","Gamble_Rand_Seq1","Gamble_Rand_Seq1",34,"Rating","Screen 1","hx8b5a",1,"response","5",6445,7727,7737,6445,7727,7737,1,6445,1292,0,NA,"Slider","MoodSlider",2,"object-243","Rating","bored","not bored","bored",12,"",NA,NA,NA,NA,NA,"Right",NA,24.33,NA,NA,NA,NA,4,"MDPRF10753"
"158",1727180015301,"24/09/2024 12:13:35",1727183615301,1,"24/09/2024 14:13:35",187387,9,"task-7wst",NA,40225743,11743984,NA,"complete",NA,"66f2a1421a5dd6b70344aa8d","computer","Desktop or Laptop","Windows 10","Chrome 129.0.0.0","1544x872","1536x864",NA,NA,0,"Gambling_GBO",12,"In","ABKCJDIEHFG",NA,"In","HM_OCT","seq1","Gamble_Rand_Seq1","Gamble_Rand_Seq1",35,"Rating","Screen 1","hx8b5a",1,"info","",17,0,17,17,0,17,1,17,0,0,NA,"Slider","MoodSlider",2,"object-243","Rating","frustrated","not frustrated","frustrated",12,"",NA,NA,NA,NA,NA,"Right",NA,24.33,NA,NA,NA,NA,4,"MDPRF10753"
"159",1727180019099,"24/09/2024 12:13:39",1727183619099,1,"24/09/2024 14:13:39",187387,9,"task-7wst",NA,40225743,11743984,NA,"complete",NA,"66f2a1421a5dd6b70344aa8d","computer","Desktop or Laptop","Windows 10","Chrome 129.0.0.0","1544x872","1536x864",NA,NA,0,"Gambling_GBO",12,"In","ABKCJDIEHFG",NA,"In","HM_OCT","seq1","Gamble_Rand_Seq1","Gamble_Rand_Seq1",35,"Rating","Screen 1","hx8b5a",1,"continue","",3814,3797,3814,3814,3797,3814,1,3814,0,0,NA,"Click To Continue","Continue Button",3,"object-25","Rating","frustrated","not frustrated","frustrated",12,"",NA,NA,NA,NA,NA,"Right",NA,24.33,NA,NA,NA,NA,4,"MDPRF10753"
"160",1727180019099,"24/09/2024 12:13:39",1727183619099,1,"24/09/2024 14:13:39",187387,9,"task-7wst",NA,40225743,11743984,NA,"complete",NA,"66f2a1421a5dd6b70344aa8d","computer","Desktop or Laptop","Windows 10","Chrome 129.0.0.0","1544x872","1536x864",NA,NA,0,"Gambling_GBO",12,"In","ABKCJDIEHFG",NA,"In","HM_OCT","seq1","Gamble_Rand_Seq1","Gamble_Rand_Seq1",35,"Rating","Screen 1","hx8b5a",1,"response","10",2648,3797,3814,2648,3797,3814,1,2648,1166,0,NA,"Slider","MoodSlider",2,"object-243","Rating","frustrated","not frustrated","frustrated",12,"",NA,NA,NA,NA,NA,"Right",NA,24.33,NA,NA,NA,NA,4,"MDPRF10753"
"161",1727180019106,"24/09/2024 12:13:39",1727183619106,1,"24/09/2024 14:13:39",187387,9,"task-7wst",NA,40225743,11743984,NA,"complete",NA,"66f2a1421a5dd6b70344aa8d","computer","Desktop or Laptop","Windows 10","Chrome 129.0.0.0","1544x872","1536x864",NA,NA,0,"Gambling_GBO",12,"In","ABKCJDIEHFG",NA,"In","HM_OCT","seq1","Gamble_Rand_Seq1","Gamble_Rand_Seq1",36,"Rating","Screen 1","hx8b5a",1,"info","",17,0,17,17,0,17,1,17,0,0,NA,"Slider","MoodSlider",2,"object-243","Rating","happy","unhappy","happy",12,"",NA,NA,NA,NA,NA,"Right",NA,24.33,NA,NA,NA,NA,4,"MDPRF10753"
"162",1727180023791,"24/09/2024 12:13:43",1727183623791,1,"24/09/2024 14:13:43",187387,9,"task-7wst",NA,40225743,11743984,NA,"complete",NA,"66f2a1421a5dd6b70344aa8d","computer","Desktop or Laptop","Windows 10","Chrome 129.0.0.0","1544x872","1536x864",NA,NA,0,"Gambling_GBO",12,"In","ABKCJDIEHFG",NA,"In","HM_OCT","seq1","Gamble_Rand_Seq1","Gamble_Rand_Seq1",36,"Rating","Screen 1","hx8b5a",1,"continue","",4711,4696,4711,4711,4696,4711,1,4711,0,0,NA,"Click To Continue","Continue Button",3,"object-25","Rating","happy","unhappy","happy",12,"",NA,NA,NA,NA,NA,"Right",NA,24.33,NA,NA,NA,NA,4,"MDPRF10753"
"163",1727180023791,"24/09/2024 12:13:43",1727183623791,1,"24/09/2024 14:13:43",187387,9,"task-7wst",NA,40225743,11743984,NA,"complete",NA,"66f2a1421a5dd6b70344aa8d","computer","Desktop or Laptop","Windows 10","Chrome 129.0.0.0","1544x872","1536x864",NA,NA,0,"Gambling_GBO",12,"In","ABKCJDIEHFG",NA,"In","HM_OCT","seq1","Gamble_Rand_Seq1","Gamble_Rand_Seq1",36,"Rating","Screen 1","hx8b5a",1,"response","56",1782,4696,4711,1782,4696,4711,1,1782,2929,0,NA,"Slider","MoodSlider",2,"object-243","Rating","happy","unhappy","happy",12,"",NA,NA,NA,NA,NA,"Right",NA,24.33,NA,NA,NA,NA,4,"MDPRF10753"
"164",1727180025742,"24/09/2024 12:13:45",1727183625742,1,"24/09/2024 14:13:45",187387,9,"task-7wst",NA,40225743,11743984,NA,"complete",NA,"66f2a1421a5dd6b70344aa8d","computer","Desktop or Laptop","Windows 10","Chrome 129.0.0.0","1544x872","1536x864",NA,NA,0,"Gambling_GBO",12,"In","ABKCJDIEHFG",NA,"In","HM_OCT","seq1","Gamble_Rand_Seq1","Gamble_Rand_Seq1",5,"lossB","Screen 1","a4fynh",1,"continue","",1964,1964,1964,1964,1964,1964,1,1964,0,0,NA,"Fixation Timing","Fixation",1,"object-113","lossB","","","",NA,"Right",-3.67,-5,-1,12,NA,"Right",NA,24.33,NA,NA,NA,NA,4,"MDPRF10753"
"165",1727180029569,"24/09/2024 12:13:49",1727183629569,1,"24/09/2024 14:13:49",187387,9,"task-7wst",NA,40225743,11743984,NA,"complete",NA,"66f2a1421a5dd6b70344aa8d","computer","Desktop or Laptop","Windows 10","Chrome 129.0.0.0","1544x872","1536x864",NA,NA,0,"Gambling_GBO",12,"In","ABKCJDIEHFG",NA,"In","HM_OCT","seq1","Gamble_Rand_Seq1","Gamble_Rand_Seq1",5,"lossB","choice","k9qq8f",2,"response","Right",3828,3814,3828,3828,3814,3828,1,3828,0,0,NA,"Keyboard Response","KeyResponseG",6,"object-200","lossB","","","",NA,"Right",-3.67,-5,-1,12,NA,"Right",NA,19.33,NA,NA,NA,NA,-5,"MDPRF10753"
"166",1727180033552,"24/09/2024 12:13:53",1727183633552,1,"24/09/2024 14:13:53",187387,9,"task-7wst",NA,40225743,11743984,NA,"complete",NA,"66f2a1421a5dd6b70344aa8d","computer","Desktop or Laptop","Windows 10","Chrome 129.0.0.0","1544x872","1536x864",NA,NA,0,"Gambling_GBO",12,"In","ABKCJDIEHFG",NA,"In","HM_OCT","seq1","Gamble_Rand_Seq1","Gamble_Rand_Seq1",5,"lossB","gamble","tpcid5",3,"timedOut","",3997,3997,3997,3997,3997,3997,1,3997,0,0,NA,"Time Limit","screen",0,"screen","lossB","","","",NA,"Right",-3.67,-5,-1,12,NA,"Right",NA,19.33,NA,NA,NA,NA,-5,"MDPRF10753"
"167",1727180034553,"24/09/2024 12:13:54",1727183634553,1,"24/09/2024 14:13:54",187387,9,"task-7wst",NA,40225743,11743984,NA,"complete",NA,"66f2a1421a5dd6b70344aa8d","computer","Desktop or Laptop","Windows 10","Chrome 129.0.0.0","1544x872","1536x864",NA,NA,0,"Gambling_GBO",12,"In","ABKCJDIEHFG",NA,"In","HM_OCT","seq1","Gamble_Rand_Seq1","Gamble_Rand_Seq1",5,"lossB","loss","2apfzp",4,"timedOut","",1002,999,1002,1002,999,1002,1,1002,0,0,NA,"Time Limit","screen",0,"screen","lossB","","","",NA,"Right",-3.67,-5,-1,12,NA,"Right",NA,19.33,NA,NA,NA,NA,-5,"MDPRF10753"
"168",1727180034561,"24/09/2024 12:13:54",1727183634561,1,"24/09/2024 14:13:54",187387,9,"task-7wst",NA,40225743,11743984,NA,"complete",NA,"66f2a1421a5dd6b70344aa8d","computer","Desktop or Laptop","Windows 10","Chrome 129.0.0.0","1544x872","1536x864",NA,NA,0,"Gambling_GBO",12,"In","ABKCJDIEHFG",NA,"In","HM_OCT","seq1","Gamble_Rand_Seq1","Gamble_Rand_Seq1",37,"Rating","Screen 1","hx8b5a",1,"info","",11,0,11,11,0,11,1,11,0,0,NA,"Slider","MoodSlider",2,"object-243","Rating","happy","unhappy","happy",13,"",NA,NA,NA,NA,NA,"Right",NA,19.33,NA,NA,NA,NA,-5,"MDPRF10753"
