"Event.Index","UTC.Timestamp","UTC.Date.and.Time","Local.Timestamp","Local.Timezone","Local.Date.and.Time","Experiment.ID","Experiment.Version","Tree.Node.Key","Repeat.Key","Schedule.ID","Participant.Private.ID","Participant.Starting.Group","Participant.Status","Participant.Completion.Code","Participant.External.Session.ID","Participant.Device.Type","Participant.Device","Participant.OS","Participant.Browser","Participant.Monitor.Size","Participant.Viewport.Size","Checkpoint","Room.ID","Room.Order","Task.Name","Task.Version","branch.hkzp","order.ot79","branch.mcuq","branch.4fv7","randomiser.k5rb","randomiser.rz7w","Spreadsheet","Current.Spreadsheet","Trial.Number","Display","Screen","Screen.ID","Screen.Counter","Response.Type","Response","Onset.Time","Clock.Time","Reaction.Time","Absolute.Onset.Time","Absolute.Clock.Time","Absolute.Reaction.Time","Correct","Response.Onset","Response.Duration","Proportion","Tag","Component.Name","Object.Name","Object.Number","Object.ID","Spreadsheet..display","Spreadsheet..Emo","Spreadsheet..LHS_Lab","Spreadsheet..RHS_Lab","Spreadsheet..rand_M","Spreadsheet..Answer","Spreadsheet..C_points","Spreadsheet..L_points","Spreadsheet..W_points","Spreadsheet..rand_G","Manipulation..Spreadsheet","Store..Choice","Store..total","Store..total_score","Store..pounds","Store..total_money","Store..partA","Store..MoneyReward","Store..pointsPR","Random_ID"
"1",1727179926206,"24/09/2024 12:12:06",1727183526206,1,"24/09/2024 14:12:06",187387,9,"task-napx",NA,40225947,11744090,NA,"complete",NA,"66f2a595d3f19ce68f46b471","computer","Desktop or Laptop","Windows 10","Chrome 129.0.0.0","2560x1440","2560x1440",NA,NA,0,"Gambling_GBO",12,"In","IJHKGAFBECD",NA,"In","HM_OCT","seq3","Gamble_Rand_Seq3","Gamble_Rand_Seq3",NA,"","","",NA,"info","START SUBSYSTEM base.component.fullscreenSubsystem",NA,NA,NA,NA,NA,NA,0,NA,NA,NA,NA,"","",NA,"","","","","",NA,"",NA,NA,NA,NA,NA,"",NA,NA,NA,NA,NA,NA,NA,"MDPRF03607"
"2",1727179926211,"24/09/2024 12:12:06",1727183526211,1,"24/09/2024 14:12:06",187387,9,"task-napx",NA,40225947,11744090,NA,"complete",NA,"66f2a595d3f19ce68f46b471","computer","Desktop or Laptop","Windows 10","Chrome 129.0.0.0","2560x1440","2560x1440",NA,NA,0,"Gambling_GBO",12,"In","IJHKGAFBECD",NA,"In","HM_OCT","seq3","Gamble_Rand_Seq3","Gamble_Rand_Seq3",NA,"","","",NA,"info","SUBSYSTEM READY base.component.fullscreenSubsystem",NA,NA,NA,NA,NA,NA,0,NA,NA,NA,NA,"","",NA,"","","","","",NA,"",NA,NA,NA,NA,NA,"",NA,NA,NA,NA,NA,NA,NA,"MDPRF03607"
"3",1727179926222,"24/09/2024 12:12:06",1727183526222,1,"24/09/2024 14:12:06",187387,9,"task-napx",NA,40225947,11744090,NA,"complete",NA,"66f2a595d3f19ce68f46b471","computer","Desktop or Laptop","Windows 10","Chrome 129.0.0.0","2560x1440","2560x1440",NA,NA,0,"Gambling_GBO",12,"In","IJHKGAFBECD",NA,"In","HM_OCT","seq3","Gamble_Rand_Seq3","Gamble_Rand_Seq3",NA,"","","",NA,"info","BEGIN",NA,NA,NA,NA,NA,NA,0,NA,NA,NA,NA,"","",NA,"","","","","",NA,"",NA,NA,NA,NA,NA,"",NA,NA,NA,NA,NA,NA,NA,"MDPRF03607"
"4",1727179930136,"24/09/2024 12:12:10",1727183530136,1,"24/09/2024 14:12:10",187387,9,"task-napx",NA,40225947,11744090,NA,"complete",NA,"66f2a595d3f19ce68f46b471","computer","Desktop or Laptop","Windows 10","Chrome 129.0.0.0","2560x1440","2560x1440",NA,NA,0,"Gambling_GBO",12,"In","IJHKGAFBECD",NA,"In","HM_OCT","seq3","Gamble_Rand_Seq3","Gamble_Rand_Seq3",1,"Intro","Screen 1","u1aumm",1,"continue","",3933.29999999963,3929,3933.29999999963,3933.29999999963,3929,3933.29999999963,1,3933.29999999963,0,0,NA,"Click To Continue","Continue Button",2,"object-37171","Intro","","","",NA,"",NA,NA,NA,NA,NA,"",NA,NA,NA,NA,NA,NA,NA,"MDPRF03607"
"5",1727179938814,"24/09/2024 12:12:18",1727183538814,1,"24/09/2024 14:12:18",187387,9,"task-napx",NA,40225947,11744090,NA,"complete",NA,"66f2a595d3f19ce68f46b471","computer","Desktop or Laptop","Windows 10","Chrome 129.0.0.0","2560x1440","2560x1440",NA,NA,0,"Gambling_GBO",12,"In","IJHKGAFBECD",NA,"In","HM_OCT","seq3","Gamble_Rand_Seq3","Gamble_Rand_Seq3",1,"Instructions","Screen 1","rfymdc",1,"continue","",8682.00000000075,8675.5,8682.00000000075,8682.00000000075,8675.5,8682.00000000075,1,8682.00000000075,0,0,NA,"Click To Continue","Continue Button",2,"object-3","Instructions","","","",NA,"",NA,NA,NA,NA,NA,"",NA,NA,NA,NA,NA,NA,NA,"MDPRF03607"
"6",1727179949071,"24/09/2024 12:12:29",1727183549071,1,"24/09/2024 14:12:29",187387,9,"task-napx",NA,40225947,11744090,NA,"complete",NA,"66f2a595d3f19ce68f46b471","computer","Desktop or Laptop","Windows 10","Chrome 129.0.0.0","2560x1440","2560x1440",NA,NA,0,"Gambling_GBO",12,"In","IJHKGAFBECD",NA,"In","HM_OCT","seq3","Gamble_Rand_Seq3","Gamble_Rand_Seq3",1,"Instructions","Screen 2","x2kpu8",2,"continue","",10263.7,10260.5,10263.7,10263.7,10260.5,10263.7,1,10263.7,0,0,NA,"Click To Continue","Continue Button",2,"object-22021","Instructions","","","",NA,"",NA,NA,NA,NA,NA,"",NA,NA,NA,NA,NA,NA,NA,"MDPRF03607"
"7",1727179952569,"24/09/2024 12:12:32",1727183552569,1,"24/09/2024 14:12:32",187387,9,"task-napx",NA,40225947,11744090,NA,"complete",NA,"66f2a595d3f19ce68f46b471","computer","Desktop or Laptop","Windows 10","Chrome 129.0.0.0","2560x1440","2560x1440",NA,NA,0,"Gambling_GBO",12,"In","IJHKGAFBECD",NA,"In","HM_OCT","seq3","Gamble_Rand_Seq3","Gamble_Rand_Seq3",1,"Instructions","Screen 3","o6zm7t",3,"continue","",3501.2,3495.3,3501.2,3501.2,3495.3,3501.2,1,3501.2,0,0,NA,"Click To Continue","Continue Button",2,"object-225","Instructions","","","",NA,"",NA,NA,NA,NA,NA,"",NA,NA,NA,NA,NA,NA,NA,"MDPRF03607"
"8",1727179955135,"24/09/2024 12:12:35",1727183555135,1,"24/09/2024 14:12:35",187387,9,"task-napx",NA,40225947,11744090,NA,"complete",NA,"66f2a595d3f19ce68f46b471","computer","Desktop or Laptop","Windows 10","Chrome 129.0.0.0","2560x1440","2560x1440",NA,NA,0,"Gambling_GBO",12,"In","IJHKGAFBECD",NA,"In","HM_OCT","seq3","Gamble_Rand_Seq3","Gamble_Rand_Seq3",1,"Instructions","Screen 4","3hq7c2",4,"continue","",2571.70000000075,2569.3,2571.70000000075,2571.70000000075,2569.3,2571.70000000075,1,2571.70000000075,0,0,NA,"Click To Continue","Continue Button",4,"object-380","Instructions","","","",NA,"",NA,NA,NA,NA,NA,"",NA,NA,NA,NA,NA,NA,NA,"MDPRF03607"
"9",1727179963086,"24/09/2024 12:12:43",1727183563086,1,"24/09/2024 14:12:43",187387,9,"task-napx",NA,40225947,11744090,NA,"complete",NA,"66f2a595d3f19ce68f46b471","computer","Desktop or Laptop","Windows 10","Chrome 129.0.0.0","2560x1440","2560x1440",NA,NA,0,"Gambling_GBO",12,"In","IJHKGAFBECD",NA,"In","HM_OCT","seq3","Gamble_Rand_Seq3","Gamble_Rand_Seq3",1,"Instructions","Screen 5","5jisqh",5,"continue","",7953.6,7949.8,7953.6,7953.6,7949.8,7953.6,1,7953.6,0,0,NA,"Click To Continue","Continue Button",2,"object-233","Instructions","","","",NA,"",NA,NA,NA,NA,NA,"",NA,NA,NA,NA,NA,NA,NA,"MDPRF03607"
"10",1727179964058,"24/09/2024 12:12:44",1727183564058,1,"24/09/2024 14:12:44",187387,9,"task-napx",NA,40225947,11744090,NA,"complete",NA,"66f2a595d3f19ce68f46b471","computer","Desktop or Laptop","Windows 10","Chrome 129.0.0.0","2560x1440","2560x1440",NA,NA,0,"Gambling_GBO",12,"In","IJHKGAFBECD",NA,"In","HM_OCT","seq3","Gamble_Rand_Seq3","Gamble_Rand_Seq3",1,"Instructions","Screen 6","13xe5l",6,"continue","",975.800000000003,967.600000000006,975.800000000003,975.800000000003,967.600000000006,975.800000000003,1,975.800000000003,0,0,NA,"Click To Continue","Continue Button",2,"object-237","Instructions","","","",NA,"",NA,NA,NA,NA,NA,"",NA,NA,NA,NA,NA,NA,NA,"MDPRF03607"
"11",1727179973971,"24/09/2024 12:12:53",1727183573971,1,"24/09/2024 14:12:53",187387,9,"task-napx",NA,40225947,11744090,NA,"complete",NA,"66f2a595d3f19ce68f46b471","computer","Desktop or Laptop","Windows 10","Chrome 129.0.0.0","2560x1440","2560x1440",NA,NA,0,"Gambling_GBO",12,"In","IJHKGAFBECD",NA,"In","HM_OCT","seq3","Gamble_Rand_Seq3","Gamble_Rand_Seq3",1,"Instructions","Screen 7","re2b58",7,"continue","",9921.40000000112,9918.5,9921.40000000112,9921.40000000112,9918.5,9921.40000000112,1,9921.40000000112,0,0,NA,"Click To Continue","Continue Button",2,"object-241","Instructions","","","",NA,"",NA,NA,NA,NA,NA,"",NA,NA,NA,NA,NA,NA,NA,"MDPRF03607"
"12",1727179973976,"24/09/2024 12:12:53",1727183573976,1,"24/09/2024 14:12:53",187387,9,"task-napx",NA,40225947,11744090,NA,"complete",NA,"66f2a595d3f19ce68f46b471","computer","Desktop or Laptop","Windows 10","Chrome 129.0.0.0","2560x1440","2560x1440",NA,NA,0,"Gambling_GBO",12,"In","IJHKGAFBECD",NA,"In","HM_OCT","seq3","Gamble_Rand_Seq3","Gamble_Rand_Seq3",1,"Rating","Screen 1","hx8b5a",1,"info","",8.00000000074215,0,8.00000000074215,8.00000000074215,0,8.00000000074215,1,8.00000000074215,0,0,NA,"Slider","MoodSlider",2,"object-243","Rating","frustrated","not frustrated","frustrated",1,"",NA,NA,NA,NA,NA,"",NA,NA,NA,NA,NA,NA,NA,"MDPRF03607"
"13",1727179976542,"24/09/2024 12:12:56",1727183576542,1,"24/09/2024 14:12:56",187387,9,"task-napx",NA,40225947,11744090,NA,"complete",NA,"66f2a595d3f19ce68f46b471","computer","Desktop or Laptop","Windows 10","Chrome 129.0.0.0","2560x1440","2560x1440",NA,NA,0,"Gambling_GBO",12,"In","IJHKGAFBECD",NA,"In","HM_OCT","seq3","Gamble_Rand_Seq3","Gamble_Rand_Seq3",1,"Rating","Screen 1","hx8b5a",1,"continue","",2573.29999999963,2569.2,2573.29999999963,2573.29999999963,2569.2,2573.29999999963,1,2573.29999999963,0,0,NA,"Click To Continue","Continue Button",3,"object-25","Rating","frustrated","not frustrated","frustrated",1,"",NA,NA,NA,NA,NA,"",NA,NA,NA,NA,NA,NA,NA,"MDPRF03607"
"14",1727179976542,"24/09/2024 12:12:56",1727183576542,1,"24/09/2024 14:12:56",187387,9,"task-napx",NA,40225947,11744090,NA,"complete",NA,"66f2a595d3f19ce68f46b471","computer","Desktop or Laptop","Windows 10","Chrome 129.0.0.0","2560x1440","2560x1440",NA,NA,0,"Gambling_GBO",12,"In","IJHKGAFBECD",NA,"In","HM_OCT","seq3","Gamble_Rand_Seq3","Gamble_Rand_Seq3",1,"Rating","Screen 1","hx8b5a",1,"response","3",1785.1,2569.2,2573.50000000074,1785.1,2569.2,2573.50000000074,1,1785.1,788.400000000744,0,NA,"Slider","MoodSlider",2,"object-243","Rating","frustrated","not frustrated","frustrated",1,"",NA,NA,NA,NA,NA,"",NA,NA,NA,NA,NA,NA,NA,"MDPRF03607"
"15",1727179976545,"24/09/2024 12:12:56",1727183576545,1,"24/09/2024 14:12:56",187387,9,"task-napx",NA,40225947,11744090,NA,"complete",NA,"66f2a595d3f19ce68f46b471","computer","Desktop or Laptop","Windows 10","Chrome 129.0.0.0","2560x1440","2560x1440",NA,NA,0,"Gambling_GBO",12,"In","IJHKGAFBECD",NA,"In","HM_OCT","seq3","Gamble_Rand_Seq3","Gamble_Rand_Seq3",2,"Rating","Screen 1","hx8b5a",1,"info","",7.5,0,7.5,7.5,0,7.5,1,7.5,0,0,NA,"Slider","MoodSlider",2,"object-243","Rating","happy","unhappy","happy",1,"",NA,NA,NA,NA,NA,"",NA,NA,NA,NA,NA,NA,NA,"MDPRF03607"
"16",1727179978140,"24/09/2024 12:12:58",1727183578140,1,"24/09/2024 14:12:58",187387,9,"task-napx",NA,40225947,11744090,NA,"complete",NA,"66f2a595d3f19ce68f46b471","computer","Desktop or Laptop","Windows 10","Chrome 129.0.0.0","2560x1440","2560x1440",NA,NA,0,"Gambling_GBO",12,"In","IJHKGAFBECD",NA,"In","HM_OCT","seq3","Gamble_Rand_Seq3","Gamble_Rand_Seq3",2,"Rating","Screen 1","hx8b5a",1,"continue","",1602.5,1601.7,1602.5,1602.5,1601.7,1602.5,1,1602.5,0,0,NA,"Click To Continue","Continue Button",3,"object-25","Rating","happy","unhappy","happy",1,"",NA,NA,NA,NA,NA,"",NA,NA,NA,NA,NA,NA,NA,"MDPRF03607"
"17",1727179978140,"24/09/2024 12:12:58",1727183578140,1,"24/09/2024 14:12:58",187387,9,"task-napx",NA,40225947,11744090,NA,"complete",NA,"66f2a595d3f19ce68f46b471","computer","Desktop or Laptop","Windows 10","Chrome 129.0.0.0","2560x1440","2560x1440",NA,NA,0,"Gambling_GBO",12,"In","IJHKGAFBECD",NA,"In","HM_OCT","seq3","Gamble_Rand_Seq3","Gamble_Rand_Seq3",2,"Rating","Screen 1","hx8b5a",1,"response","100",992.800000000003,1601.7,1602.70000000112,992.800000000003,1601.7,1602.70000000112,1,992.800000000003,609.900000001115,0,NA,"Slider","MoodSlider",2,"object-243","Rating","happy","unhappy","happy",1,"",NA,NA,NA,NA,NA,"",NA,NA,NA,NA,NA,NA,NA,"MDPRF03607"
"18",1727179978143,"24/09/2024 12:12:58",1727183578143,1,"24/09/2024 14:12:58",187387,9,"task-napx",NA,40225947,11744090,NA,"complete",NA,"66f2a595d3f19ce68f46b471","computer","Desktop or Laptop","Windows 10","Chrome 129.0.0.0","2560x1440","2560x1440",NA,NA,0,"Gambling_GBO",12,"In","IJHKGAFBECD",NA,"In","HM_OCT","seq3","Gamble_Rand_Seq3","Gamble_Rand_Seq3",3,"Rating","Screen 1","hx8b5a",1,"info","",4.20000000037544,0,4.20000000037544,4.20000000037544,0,4.20000000037544,1,4.20000000037544,0,0,NA,"Slider","MoodSlider",2,"object-243","Rating","bored","not bored","bored",1,"",NA,NA,NA,NA,NA,"",NA,NA,NA,NA,NA,NA,NA,"MDPRF03607"
"19",1727179980879,"24/09/2024 12:13:00",1727183580879,1,"24/09/2024 14:13:00",187387,9,"task-napx",NA,40225947,11744090,NA,"complete",NA,"66f2a595d3f19ce68f46b471","computer","Desktop or Laptop","Windows 10","Chrome 129.0.0.0","2560x1440","2560x1440",NA,NA,0,"Gambling_GBO",12,"In","IJHKGAFBECD",NA,"In","HM_OCT","seq3","Gamble_Rand_Seq3","Gamble_Rand_Seq3",3,"Rating","Screen 1","hx8b5a",1,"continue","",2739.89999999963,2736.2,2739.89999999963,2739.89999999963,2736.2,2739.89999999963,1,2739.89999999963,0,0,NA,"Click To Continue","Continue Button",3,"object-25","Rating","bored","not bored","bored",1,"",NA,NA,NA,NA,NA,"",NA,NA,NA,NA,NA,NA,NA,"MDPRF03607"
"20",1727179980880,"24/09/2024 12:13:00",1727183580880,1,"24/09/2024 14:13:00",187387,9,"task-napx",NA,40225947,11744090,NA,"complete",NA,"66f2a595d3f19ce68f46b471","computer","Desktop or Laptop","Windows 10","Chrome 129.0.0.0","2560x1440","2560x1440",NA,NA,0,"Gambling_GBO",12,"In","IJHKGAFBECD",NA,"In","HM_OCT","seq3","Gamble_Rand_Seq3","Gamble_Rand_Seq3",3,"Rating","Screen 1","hx8b5a",1,"response","2",1484.9,2736.2,2740.3,1484.9,2736.2,2740.3,1,1484.9,1255.4,0,NA,"Slider","MoodSlider",2,"object-243","Rating","bored","not bored","bored",1,"",NA,NA,NA,NA,NA,"",NA,NA,NA,NA,NA,NA,NA,"MDPRF03607"
"21",1727179982861,"24/09/2024 12:13:02",1727183582861,1,"24/09/2024 14:13:02",187387,9,"task-napx",NA,40225947,11744090,NA,"complete",NA,"66f2a595d3f19ce68f46b471","computer","Desktop or Laptop","Windows 10","Chrome 129.0.0.0","2560x1440","2560x1440",NA,NA,0,"Gambling_GBO",12,"In","IJHKGAFBECD",NA,"In","HM_OCT","seq3","Gamble_Rand_Seq3","Gamble_Rand_Seq3",1,"lossB","Screen 1","a4fynh",1,"continue","",1985.3,1985.3,1985.3,1985.3,1985.3,1985.3,1,1985.3,0,0,NA,"Fixation Timing","Fixation",1,"object-113","lossB","","","",NA,"Right",1.33,1,2,1,NA,"",NA,NA,NA,NA,NA,NA,NA,"MDPRF03607"
"22",1727179984462,"24/09/2024 12:13:04",1727183584462,1,"24/09/2024 14:13:04",187387,9,"task-napx",NA,40225947,11744090,NA,"complete",NA,"66f2a595d3f19ce68f46b471","computer","Desktop or Laptop","Windows 10","Chrome 129.0.0.0","2560x1440","2560x1440",NA,NA,0,"Gambling_GBO",12,"In","IJHKGAFBECD",NA,"In","HM_OCT","seq3","Gamble_Rand_Seq3","Gamble_Rand_Seq3",1,"lossB","choice","k9qq8f",2,"response","Right",1600.60000000075,1593.3,1600.60000000075,1600.60000000075,1593.3,1600.60000000075,1,1600.60000000075,0,0,NA,"Keyboard Response","KeyResponseG",6,"object-200","lossB","","","",NA,"Right",1.33,1,2,1,NA,"Right",NA,1,NA,NA,NA,NA,1,"MDPRF03607"
"23",1727179988450,"24/09/2024 12:13:08",1727183588450,1,"24/09/2024 14:13:08",187387,9,"task-napx",NA,40225947,11744090,NA,"complete",NA,"66f2a595d3f19ce68f46b471","computer","Desktop or Laptop","Windows 10","Chrome 129.0.0.0","2560x1440","2560x1440",NA,NA,0,"Gambling_GBO",12,"In","IJHKGAFBECD",NA,"In","HM_OCT","seq3","Gamble_Rand_Seq3","Gamble_Rand_Seq3",1,"lossB","gamble","tpcid5",3,"timedOut","",3998,3995.8,3998,3998,3995.8,3998,1,3998,0,0,NA,"Time Limit","screen",0,"screen","lossB","","","",NA,"Right",1.33,1,2,1,NA,"Right",NA,1,NA,NA,NA,NA,1,"MDPRF03607"
"24",1727179989449,"24/09/2024 12:13:09",1727183589449,1,"24/09/2024 14:13:09",187387,9,"task-napx",NA,40225947,11744090,NA,"complete",NA,"66f2a595d3f19ce68f46b471","computer","Desktop or Laptop","Windows 10","Chrome 129.0.0.0","2560x1440","2560x1440",NA,NA,0,"Gambling_GBO",12,"In","IJHKGAFBECD",NA,"In","HM_OCT","seq3","Gamble_Rand_Seq3","Gamble_Rand_Seq3",1,"lossB","loss","2apfzp",4,"timedOut","",1001.00000000074,1001,1001.00000000074,1001.00000000074,1001,1001.00000000074,1,1001.00000000074,0,0,NA,"Time Limit","screen",0,"screen","lossB","","","",NA,"Right",1.33,1,2,1,NA,"Right",NA,1,NA,NA,NA,NA,1,"MDPRF03607"
"25",1727179989453,"24/09/2024 12:13:09",1727183589453,1,"24/09/2024 14:13:09",187387,9,"task-napx",NA,40225947,11744090,NA,"complete",NA,"66f2a595d3f19ce68f46b471","computer","Desktop or Laptop","Windows 10","Chrome 129.0.0.0","2560x1440","2560x1440",NA,NA,0,"Gambling_GBO",12,"In","IJHKGAFBECD",NA,"In","HM_OCT","seq3","Gamble_Rand_Seq3","Gamble_Rand_Seq3",4,"Rating","Screen 1","hx8b5a",1,"info","",3.90000000111468,0,3.90000000111468,3.90000000111468,0,3.90000000111468,1,3.90000000111468,0,0,NA,"Slider","MoodSlider",2,"object-243","Rating","bored","not bored","bored",2,"",NA,NA,NA,NA,NA,"Right",NA,1,NA,NA,NA,NA,1,"MDPRF03607"
"26",1727179992466,"24/09/2024 12:13:12",1727183592466,1,"24/09/2024 14:13:12",187387,9,"task-napx",NA,40225947,11744090,NA,"complete",NA,"66f2a595d3f19ce68f46b471","computer","Desktop or Laptop","Windows 10","Chrome 129.0.0.0","2560x1440","2560x1440",NA,NA,0,"Gambling_GBO",12,"In","IJHKGAFBECD",NA,"In","HM_OCT","seq3","Gamble_Rand_Seq3","Gamble_Rand_Seq3",4,"Rating","Screen 1","hx8b5a",1,"continue","",3017.2,3011.39999999999,3017.2,3017.2,3011.39999999999,3017.2,1,3017.2,0,0,NA,"Click To Continue","Continue Button",3,"object-25","Rating","bored","not bored","bored",2,"",NA,NA,NA,NA,NA,"Right",NA,1,NA,NA,NA,NA,1,"MDPRF03607"
"27",1727179992467,"24/09/2024 12:13:12",1727183592467,1,"24/09/2024 14:13:12",187387,9,"task-napx",NA,40225947,11744090,NA,"complete",NA,"66f2a595d3f19ce68f46b471","computer","Desktop or Laptop","Windows 10","Chrome 129.0.0.0","2560x1440","2560x1440",NA,NA,0,"Gambling_GBO",12,"In","IJHKGAFBECD",NA,"In","HM_OCT","seq3","Gamble_Rand_Seq3","Gamble_Rand_Seq3",4,"Rating","Screen 1","hx8b5a",1,"response","2",2435.8,3011.39999999999,3017.40000000111,2435.8,3011.39999999999,3017.40000000111,1,2435.8,581.600000001112,0,NA,"Slider","MoodSlider",2,"object-243","Rating","bored","not bored","bored",2,"",NA,NA,NA,NA,NA,"Right",NA,1,NA,NA,NA,NA,1,"MDPRF03607"
"28",1727179992470,"24/09/2024 12:13:12",1727183592470,1,"24/09/2024 14:13:12",187387,9,"task-napx",NA,40225947,11744090,NA,"complete",NA,"66f2a595d3f19ce68f46b471","computer","Desktop or Laptop","Windows 10","Chrome 129.0.0.0","2560x1440","2560x1440",NA,NA,0,"Gambling_GBO",12,"In","IJHKGAFBECD",NA,"In","HM_OCT","seq3","Gamble_Rand_Seq3","Gamble_Rand_Seq3",5,"Rating","Screen 1","hx8b5a",1,"info","",8.39999999999418,0,8.39999999999418,8.39999999999418,0,8.39999999999418,1,8.39999999999418,0,0,NA,"Slider","MoodSlider",2,"object-243","Rating","frustrated","not frustrated","frustrated",2,"",NA,NA,NA,NA,NA,"Right",NA,1,NA,NA,NA,NA,1,"MDPRF03607"
"29",1727179995144,"24/09/2024 12:13:15",1727183595144,1,"24/09/2024 14:13:15",187387,9,"task-napx",NA,40225947,11744090,NA,"complete",NA,"66f2a595d3f19ce68f46b471","computer","Desktop or Laptop","Windows 10","Chrome 129.0.0.0","2560x1440","2560x1440",NA,NA,0,"Gambling_GBO",12,"In","IJHKGAFBECD",NA,"In","HM_OCT","seq3","Gamble_Rand_Seq3","Gamble_Rand_Seq3",5,"Rating","Screen 1","hx8b5a",1,"continue","",2683.20000000038,2679.8,2683.20000000038,2683.20000000038,2679.8,2683.20000000038,1,2683.20000000038,0,0,NA,"Click To Continue","Continue Button",3,"object-25","Rating","frustrated","not frustrated","frustrated",2,"",NA,NA,NA,NA,NA,"Right",NA,1,NA,NA,NA,NA,1,"MDPRF03607"
"30",1727179995145,"24/09/2024 12:13:15",1727183595145,1,"24/09/2024 14:13:15",187387,9,"task-napx",NA,40225947,11744090,NA,"complete",NA,"66f2a595d3f19ce68f46b471","computer","Desktop or Laptop","Windows 10","Chrome 129.0.0.0","2560x1440","2560x1440",NA,NA,0,"Gambling_GBO",12,"In","IJHKGAFBECD",NA,"In","HM_OCT","seq3","Gamble_Rand_Seq3","Gamble_Rand_Seq3",5,"Rating","Screen 1","hx8b5a",1,"response","2",1543.3,2679.8,2684.60000000075,1543.3,2679.8,2684.60000000075,1,1543.3,1141.30000000075,0,NA,"Slider","MoodSlider",2,"object-243","Rating","frustrated","not frustrated","frustrated",2,"",NA,NA,NA,NA,NA,"Right",NA,1,NA,NA,NA,NA,1,"MDPRF03607"
"31",1727179995149,"24/09/2024 12:13:15",1727183595149,1,"24/09/2024 14:13:15",187387,9,"task-napx",NA,40225947,11744090,NA,"complete",NA,"66f2a595d3f19ce68f46b471","computer","Desktop or Laptop","Windows 10","Chrome 129.0.0.0","2560x1440","2560x1440",NA,NA,0,"Gambling_GBO",12,"In","IJHKGAFBECD",NA,"In","HM_OCT","seq3","Gamble_Rand_Seq3","Gamble_Rand_Seq3",6,"Rating","Screen 1","hx8b5a",1,"info","",8.09999999962747,0,8.09999999962747,8.09999999962747,0,8.09999999962747,1,8.09999999962747,0,0,NA,"Slider","MoodSlider",2,"object-243","Rating","happy","unhappy","happy",2,"",NA,NA,NA,NA,NA,"Right",NA,1,NA,NA,NA,NA,1,"MDPRF03607"
"32",1727179997069,"24/09/2024 12:13:17",1727183597069,1,"24/09/2024 14:13:17",187387,9,"task-napx",NA,40225947,11744090,NA,"complete",NA,"66f2a595d3f19ce68f46b471","computer","Desktop or Laptop","Windows 10","Chrome 129.0.0.0","2560x1440","2560x1440",NA,NA,0,"Gambling_GBO",12,"In","IJHKGAFBECD",NA,"In","HM_OCT","seq3","Gamble_Rand_Seq3","Gamble_Rand_Seq3",6,"Rating","Screen 1","hx8b5a",1,"continue","",1928.30000000075,1926.7,1928.30000000075,1928.30000000075,1926.7,1928.30000000075,1,1928.30000000075,0,0,NA,"Click To Continue","Continue Button",3,"object-25","Rating","happy","unhappy","happy",2,"",NA,NA,NA,NA,NA,"Right",NA,1,NA,NA,NA,NA,1,"MDPRF03607"
"33",1727179997069,"24/09/2024 12:13:17",1727183597069,1,"24/09/2024 14:13:17",187387,9,"task-napx",NA,40225947,11744090,NA,"complete",NA,"66f2a595d3f19ce68f46b471","computer","Desktop or Laptop","Windows 10","Chrome 129.0.0.0","2560x1440","2560x1440",NA,NA,0,"Gambling_GBO",12,"In","IJHKGAFBECD",NA,"In","HM_OCT","seq3","Gamble_Rand_Seq3","Gamble_Rand_Seq3",6,"Rating","Screen 1","hx8b5a",1,"response","97",882.100000000006,1926.7,1928.59999999963,882.100000000006,1926.7,1928.59999999963,1,882.100000000006,1046.49999999962,0,NA,"Slider","MoodSlider",2,"object-243","Rating","happy","unhappy","happy",2,"",NA,NA,NA,NA,NA,"Right",NA,1,NA,NA,NA,NA,1,"MDPRF03607"
"34",1727179999051,"24/09/2024 12:13:19",1727183599051,1,"24/09/2024 14:13:19",187387,9,"task-napx",NA,40225947,11744090,NA,"complete",NA,"66f2a595d3f19ce68f46b471","computer","Desktop or Laptop","Windows 10","Chrome 129.0.0.0","2560x1440","2560x1440",NA,NA,0,"Gambling_GBO",12,"In","IJHKGAFBECD",NA,"In","HM_OCT","seq3","Gamble_Rand_Seq3","Gamble_Rand_Seq3",2,"lossB","Screen 1","a4fynh",1,"continue","",1983.5,1983.5,1983.5,1983.5,1983.5,1983.5,1,1983.5,0,0,NA,"Fixation Timing","Fixation",1,"object-113","lossB","","","",NA,"Right",3.33,2,6,2,NA,"Right",NA,1,NA,NA,NA,NA,1,"MDPRF03607"
"35",1727180000326,"24/09/2024 12:13:20",1727183600326,1,"24/09/2024 14:13:20",187387,9,"task-napx",NA,40225947,11744090,NA,"complete",NA,"66f2a595d3f19ce68f46b471","computer","Desktop or Laptop","Windows 10","Chrome 129.0.0.0","2560x1440","2560x1440",NA,NA,0,"Gambling_GBO",12,"In","IJHKGAFBECD",NA,"In","HM_OCT","seq3","Gamble_Rand_Seq3","Gamble_Rand_Seq3",2,"lossB","choice","k9qq8f",2,"response","Right",1274.70000000038,1268,1274.70000000038,1274.70000000038,1268,1274.70000000038,1,1274.70000000038,0,0,NA,"Keyboard Response","KeyResponseG",6,"object-200","lossB","","","",NA,"Right",3.33,2,6,2,NA,"Right",NA,3,NA,NA,NA,NA,2,"MDPRF03607"
"36",1727180004323,"24/09/2024 12:13:24",1727183604323,1,"24/09/2024 14:13:24",187387,9,"task-napx",NA,40225947,11744090,NA,"complete",NA,"66f2a595d3f19ce68f46b471","computer","Desktop or Laptop","Windows 10","Chrome 129.0.0.0","2560x1440","2560x1440",NA,NA,0,"Gambling_GBO",12,"In","IJHKGAFBECD",NA,"In","HM_OCT","seq3","Gamble_Rand_Seq3","Gamble_Rand_Seq3",2,"lossB","gamble","tpcid5",3,"timedOut","",4004.20000000038,4004.10000000001,4004.20000000038,4004.20000000038,4004.10000000001,4004.20000000038,1,4004.20000000038,0,0,NA,"Time Limit","screen",0,"screen","lossB","","","",NA,"Right",3.33,2,6,2,NA,"Right",NA,3,NA,NA,NA,NA,2,"MDPRF03607"
"37",1727180005324,"24/09/2024 12:13:25",1727183605324,1,"24/09/2024 14:13:25",187387,9,"task-napx",NA,40225947,11744090,NA,"complete",NA,"66f2a595d3f19ce68f46b471","computer","Desktop or Laptop","Windows 10","Chrome 129.0.0.0","2560x1440","2560x1440",NA,NA,0,"Gambling_GBO",12,"In","IJHKGAFBECD",NA,"In","HM_OCT","seq3","Gamble_Rand_Seq3","Gamble_Rand_Seq3",2,"lossB","loss","2apfzp",4,"timedOut","",1001.2,1001,1001.2,1001.2,1001,1001.2,1,1001.2,0,0,NA,"Time Limit","screen",0,"screen","lossB","","","",NA,"Right",3.33,2,6,2,NA,"Right",NA,3,NA,NA,NA,NA,2,"MDPRF03607"
"38",1727180005329,"24/09/2024 12:13:25",1727183605329,1,"24/09/2024 14:13:25",187387,9,"task-napx",NA,40225947,11744090,NA,"complete",NA,"66f2a595d3f19ce68f46b471","computer","Desktop or Laptop","Windows 10","Chrome 129.0.0.0","2560x1440","2560x1440",NA,NA,0,"Gambling_GBO",12,"In","IJHKGAFBECD",NA,"In","HM_OCT","seq3","Gamble_Rand_Seq3","Gamble_Rand_Seq3",7,"Rating","Screen 1","hx8b5a",1,"info","",4.90000000111468,0,4.90000000111468,4.90000000111468,0,4.90000000111468,1,4.90000000111468,0,0,NA,"Slider","MoodSlider",2,"object-243","Rating","frustrated","not frustrated","frustrated",3,"",NA,NA,NA,NA,NA,"Right",NA,3,NA,NA,NA,NA,2,"MDPRF03607"
"39",1727180008240,"24/09/2024 12:13:28",1727183608240,1,"24/09/2024 14:13:28",187387,9,"task-napx",NA,40225947,11744090,NA,"complete",NA,"66f2a595d3f19ce68f46b471","computer","Desktop or Laptop","Windows 10","Chrome 129.0.0.0","2560x1440","2560x1440",NA,NA,0,"Gambling_GBO",12,"In","IJHKGAFBECD",NA,"In","HM_OCT","seq3","Gamble_Rand_Seq3","Gamble_Rand_Seq3",7,"Rating","Screen 1","hx8b5a",1,"continue","",2915.79999999963,2911.39999999999,2915.79999999963,2915.79999999963,2911.39999999999,2915.79999999963,1,2915.79999999963,0,0,NA,"Click To Continue","Continue Button",3,"object-25","Rating","frustrated","not frustrated","frustrated",3,"",NA,NA,NA,NA,NA,"Right",NA,3,NA,NA,NA,NA,2,"MDPRF03607"
"40",1727180008240,"24/09/2024 12:13:28",1727183608240,1,"24/09/2024 14:13:28",187387,9,"task-napx",NA,40225947,11744090,NA,"complete",NA,"66f2a595d3f19ce68f46b471","computer","Desktop or Laptop","Windows 10","Chrome 129.0.0.0","2560x1440","2560x1440",NA,NA,0,"Gambling_GBO",12,"In","IJHKGAFBECD",NA,"In","HM_OCT","seq3","Gamble_Rand_Seq3","Gamble_Rand_Seq3",7,"Rating","Screen 1","hx8b5a",1,"response","3",2210.59999999999,2911.39999999999,2916.00000000074,2210.59999999999,2911.39999999999,2916.00000000074,1,2210.59999999999,705.400000000751,0,NA,"Slider","MoodSlider",2,"object-243","Rating","frustrated","not frustrated","frustrated",3,"",NA,NA,NA,NA,NA,"Right",NA,3,NA,NA,NA,NA,2,"MDPRF03607"
"41",1727180008243,"24/09/2024 12:13:28",1727183608243,1,"24/09/2024 14:13:28",187387,9,"task-napx",NA,40225947,11744090,NA,"complete",NA,"66f2a595d3f19ce68f46b471","computer","Desktop or Laptop","Windows 10","Chrome 129.0.0.0","2560x1440","2560x1440",NA,NA,0,"Gambling_GBO",12,"In","IJHKGAFBECD",NA,"In","HM_OCT","seq3","Gamble_Rand_Seq3","Gamble_Rand_Seq3",8,"Rating","Screen 1","hx8b5a",1,"info","",7.5000000011205,0,7.5000000011205,7.5000000011205,0,7.5000000011205,1,7.5000000011205,0,0,NA,"Slider","MoodSlider",2,"object-243","Rating","happy","unhappy","happy",3,"",NA,NA,NA,NA,NA,"Right",NA,3,NA,NA,NA,NA,2,"MDPRF03607"
"42",1727180010321,"24/09/2024 12:13:30",1727183610321,1,"24/09/2024 14:13:30",187387,9,"task-napx",NA,40225947,11744090,NA,"complete",NA,"66f2a595d3f19ce68f46b471","computer","Desktop or Laptop","Windows 10","Chrome 129.0.0.0","2560x1440","2560x1440",NA,NA,0,"Gambling_GBO",12,"In","IJHKGAFBECD",NA,"In","HM_OCT","seq3","Gamble_Rand_Seq3","Gamble_Rand_Seq3",8,"Rating","Screen 1","hx8b5a",1,"continue","",2085.50000000112,2077.8,2085.50000000112,2085.50000000112,2077.8,2085.50000000112,1,2085.50000000112,0,0,NA,"Click To Continue","Continue Button",3,"object-25","Rating","happy","unhappy","happy",3,"",NA,NA,NA,NA,NA,"Right",NA,3,NA,NA,NA,NA,2,"MDPRF03607"
"43",1727180010321,"24/09/2024 12:13:30",1727183610321,1,"24/09/2024 14:13:30",187387,9,"task-napx",NA,40225947,11744090,NA,"complete",NA,"66f2a595d3f19ce68f46b471","computer","Desktop or Laptop","Windows 10","Chrome 129.0.0.0","2560x1440","2560x1440",NA,NA,0,"Gambling_GBO",12,"In","IJHKGAFBECD",NA,"In","HM_OCT","seq3","Gamble_Rand_Seq3","Gamble_Rand_Seq3",8,"Rating","Screen 1","hx8b5a",1,"response","99",1509.8,2077.8,2085.8,1509.8,2077.8,2085.8,1,1509.8,576,0,NA,"Slider","MoodSlider",2,"object-243","Rating","happy","unhappy","happy",3,"",NA,NA,NA,NA,NA,"Right",NA,3,NA,NA,NA,NA,2,"MDPRF03607"
"44",1727180010324,"24/09/2024 12:13:30",1727183610324,1,"24/09/2024 14:13:30",187387,9,"task-napx",NA,40225947,11744090,NA,"complete",NA,"66f2a595d3f19ce68f46b471","computer","Desktop or Laptop","Windows 10","Chrome 129.0.0.0","2560x1440","2560x1440",NA,NA,0,"Gambling_GBO",12,"In","IJHKGAFBECD",NA,"In","HM_OCT","seq3","Gamble_Rand_Seq3","Gamble_Rand_Seq3",9,"Rating","Screen 1","hx8b5a",1,"info","",9.10000000000582,0,9.10000000000582,9.10000000000582,0,9.10000000000582,1,9.10000000000582,0,0,NA,"Slider","MoodSlider",2,"object-243","Rating","bored","not bored","bored",3,"",NA,NA,NA,NA,NA,"Right",NA,3,NA,NA,NA,NA,2,"MDPRF03607"
"45",1727180012247,"24/09/2024 12:13:32",1727183612247,1,"24/09/2024 14:13:32",187387,9,"task-napx",NA,40225947,11744090,NA,"complete",NA,"66f2a595d3f19ce68f46b471","computer","Desktop or Laptop","Windows 10","Chrome 129.0.0.0","2560x1440","2560x1440",NA,NA,0,"Gambling_GBO",12,"In","IJHKGAFBECD",NA,"In","HM_OCT","seq3","Gamble_Rand_Seq3","Gamble_Rand_Seq3",9,"Rating","Screen 1","hx8b5a",1,"continue","",1933.70000000112,1926.2,1933.70000000112,1933.70000000112,1926.2,1933.70000000112,1,1933.70000000112,0,0,NA,"Click To Continue","Continue Button",3,"object-25","Rating","bored","not bored","bored",3,"",NA,NA,NA,NA,NA,"Right",NA,3,NA,NA,NA,NA,2,"MDPRF03607"
"46",1727180012247,"24/09/2024 12:13:32",1727183612247,1,"24/09/2024 14:13:32",187387,9,"task-napx",NA,40225947,11744090,NA,"complete",NA,"66f2a595d3f19ce68f46b471","computer","Desktop or Laptop","Windows 10","Chrome 129.0.0.0","2560x1440","2560x1440",NA,NA,0,"Gambling_GBO",12,"In","IJHKGAFBECD",NA,"In","HM_OCT","seq3","Gamble_Rand_Seq3","Gamble_Rand_Seq3",9,"Rating","Screen 1","hx8b5a",1,"response","0",1233.89999999999,1926.2,1934,1233.89999999999,1926.2,1934,1,1233.89999999999,700.100000000006,0,NA,"Slider","MoodSlider",2,"object-243","Rating","bored","not bored","bored",3,"",NA,NA,NA,NA,NA,"Right",NA,3,NA,NA,NA,NA,2,"MDPRF03607"
"47",1727180014225,"24/09/2024 12:13:34",1727183614225,1,"24/09/2024 14:13:34",187387,9,"task-napx",NA,40225947,11744090,NA,"complete",NA,"66f2a595d3f19ce68f46b471","computer","Desktop or Laptop","Windows 10","Chrome 129.0.0.0","2560x1440","2560x1440",NA,NA,0,"Gambling_GBO",12,"In","IJHKGAFBECD",NA,"In","HM_OCT","seq3","Gamble_Rand_Seq3","Gamble_Rand_Seq3",1,"winB","Screen 1","pkkyi8",1,"continue","",1985.40000000001,1985.40000000001,1985.40000000001,1985.40000000001,1985.40000000001,1985.40000000001,1,1985.40000000001,0,0,NA,"Fixation Timing","Fixation",1,"object-246","winB","","","",NA,"Right",-3.33,-5,0,3,NA,"Right",NA,3,NA,NA,NA,NA,2,"MDPRF03607"
"48",1727180021764,"24/09/2024 12:13:41",1727183621764,1,"24/09/2024 14:13:41",187387,9,"task-napx",NA,40225947,11744090,NA,"complete",NA,"66f2a595d3f19ce68f46b471","computer","Desktop or Laptop","Windows 10","Chrome 129.0.0.0","2560x1440","2560x1440",NA,NA,0,"Gambling_GBO",12,"In","IJHKGAFBECD",NA,"In","HM_OCT","seq3","Gamble_Rand_Seq3","Gamble_Rand_Seq3",1,"winB","choice","5lszbx",2,"response","Left",7538.89999999999,7532.7,7538.89999999999,7538.89999999999,7532.7,7538.89999999999,0,7538.89999999999,0,0,NA,"Keyboard Response","KeyResponseC",5,"object-255","winB","","","",NA,"Right",-3.33,-5,0,3,NA,"Left",NA,-0.33,NA,NA,NA,NA,-3.33,"MDPRF03607"
"49",1727180026754,"24/09/2024 12:13:46",1727183626754,1,"24/09/2024 14:13:46",187387,9,"task-napx",NA,40225947,11744090,NA,"complete",NA,"66f2a595d3f19ce68f46b471","computer","Desktop or Laptop","Windows 10","Chrome 129.0.0.0","2560x1440","2560x1440",NA,NA,0,"Gambling_GBO",12,"In","IJHKGAFBECD",NA,"In","HM_OCT","seq3","Gamble_Rand_Seq3","Gamble_Rand_Seq3",1,"winB","certain","nw4etn",3,"timedOut","",4996.90000000111,4996.7,4996.90000000111,4996.90000000111,4996.7,4996.90000000111,1,4996.90000000111,0,0,NA,"Time Limit","screen",0,"screen","winB","","","",NA,"Right",-3.33,-5,0,3,NA,"Left",NA,-0.33,NA,NA,NA,NA,-3.33,"MDPRF03607"
"50",1727180026757,"24/09/2024 12:13:46",1727183626757,1,"24/09/2024 14:13:46",187387,9,"task-napx",NA,40225947,11744090,NA,"complete",NA,"66f2a595d3f19ce68f46b471","computer","Desktop or Laptop","Windows 10","Chrome 129.0.0.0","2560x1440","2560x1440",NA,NA,0,"Gambling_GBO",12,"In","IJHKGAFBECD",NA,"In","HM_OCT","seq3","Gamble_Rand_Seq3","Gamble_Rand_Seq3",10,"Rating","Screen 1","hx8b5a",1,"info","",3.30000000074506,0,3.30000000074506,3.30000000074506,0,3.30000000074506,1,3.30000000074506,0,0,NA,"Slider","MoodSlider",2,"object-243","Rating","bored","not bored","bored",4,"",NA,NA,NA,NA,NA,"Left",NA,-0.33,NA,NA,NA,NA,-3.33,"MDPRF03607"
"51",1727180029754,"24/09/2024 12:13:49",1727183629754,1,"24/09/2024 14:13:49",187387,9,"task-napx",NA,40225947,11744090,NA,"complete",NA,"66f2a595d3f19ce68f46b471","computer","Desktop or Laptop","Windows 10","Chrome 129.0.0.0","2560x1440","2560x1440",NA,NA,0,"Gambling_GBO",12,"In","IJHKGAFBECD",NA,"In","HM_OCT","seq3","Gamble_Rand_Seq3","Gamble_Rand_Seq3",10,"Rating","Screen 1","hx8b5a",1,"continue","",2999.90000000037,2994.8,2999.90000000037,2999.90000000037,2994.8,2999.90000000037,1,2999.90000000037,0,0,NA,"Click To Continue","Continue Button",3,"object-25","Rating","bored","not bored","bored",4,"",NA,NA,NA,NA,NA,"Left",NA,-0.33,NA,NA,NA,NA,-3.33,"MDPRF03607"
"52",1727180029754,"24/09/2024 12:13:49",1727183629754,1,"24/09/2024 14:13:49",187387,9,"task-napx",NA,40225947,11744090,NA,"complete",NA,"66f2a595d3f19ce68f46b471","computer","Desktop or Laptop","Windows 10","Chrome 129.0.0.0","2560x1440","2560x1440",NA,NA,0,"Gambling_GBO",12,"In","IJHKGAFBECD",NA,"In","HM_OCT","seq3","Gamble_Rand_Seq3","Gamble_Rand_Seq3",10,"Rating","Screen 1","hx8b5a",1,"response","8",2335.8,2994.8,3000.09999999963,2335.8,2994.8,3000.09999999963,1,2335.8,664.299999999625,0,NA,"Slider","MoodSlider",2,"object-243","Rating","bored","not bored","bored",4,"",NA,NA,NA,NA,NA,"Left",NA,-0.33,NA,NA,NA,NA,-3.33,"MDPRF03607"
"53",1727180029757,"24/09/2024 12:13:49",1727183629757,1,"24/09/2024 14:13:49",187387,9,"task-napx",NA,40225947,11744090,NA,"complete",NA,"66f2a595d3f19ce68f46b471","computer","Desktop or Laptop","Windows 10","Chrome 129.0.0.0","2560x1440","2560x1440",NA,NA,0,"Gambling_GBO",12,"In","IJHKGAFBECD",NA,"In","HM_OCT","seq3","Gamble_Rand_Seq3","Gamble_Rand_Seq3",11,"Rating","Screen 1","hx8b5a",1,"info","",8.10000000036962,0,8.10000000036962,8.10000000036962,0,8.10000000036962,1,8.10000000036962,0,0,NA,"Slider","MoodSlider",2,"object-243","Rating","happy","unhappy","happy",4,"",NA,NA,NA,NA,NA,"Left",NA,-0.33,NA,NA,NA,NA,-3.33,"MDPRF03607"
"54",1727180032270,"24/09/2024 12:13:52",1727183632270,1,"24/09/2024 14:13:52",187387,9,"task-napx",NA,40225947,11744090,NA,"complete",NA,"66f2a595d3f19ce68f46b471","computer","Desktop or Laptop","Windows 10","Chrome 129.0.0.0","2560x1440","2560x1440",NA,NA,0,"Gambling_GBO",12,"In","IJHKGAFBECD",NA,"In","HM_OCT","seq3","Gamble_Rand_Seq3","Gamble_Rand_Seq3",11,"Rating","Screen 1","hx8b5a",1,"continue","",2521.2,2519.2,2521.2,2521.2,2519.2,2521.2,1,2521.2,0,0,NA,"Click To Continue","Continue Button",3,"object-25","Rating","happy","unhappy","happy",4,"",NA,NA,NA,NA,NA,"Left",NA,-0.33,NA,NA,NA,NA,-3.33,"MDPRF03607"
"55",1727180032271,"24/09/2024 12:13:52",1727183632271,1,"24/09/2024 14:13:52",187387,9,"task-napx",NA,40225947,11744090,NA,"complete",NA,"66f2a595d3f19ce68f46b471","computer","Desktop or Laptop","Windows 10","Chrome 129.0.0.0","2560x1440","2560x1440",NA,NA,0,"Gambling_GBO",12,"In","IJHKGAFBECD",NA,"In","HM_OCT","seq3","Gamble_Rand_Seq3","Gamble_Rand_Seq3",11,"Rating","Screen 1","hx8b5a",1,"response","80",1785.09999999999,2519.2,2522.60000000037,1785.09999999999,2519.2,2522.60000000037,1,1785.09999999999,737.500000000378,0,NA,"Slider","MoodSlider",2,"object-243","Rating","happy","unhappy","happy",4,"",NA,NA,NA,NA,NA,"Left",NA,-0.33,NA,NA,NA,NA,-3.33,"MDPRF03607"
"56",1727180032275,"24/09/2024 12:13:52",1727183632275,1,"24/09/2024 14:13:52",187387,9,"task-napx",NA,40225947,11744090,NA,"complete",NA,"66f2a595d3f19ce68f46b471","computer","Desktop or Laptop","Windows 10","Chrome 129.0.0.0","2560x1440","2560x1440",NA,NA,0,"Gambling_GBO",12,"In","IJHKGAFBECD",NA,"In","HM_OCT","seq3","Gamble_Rand_Seq3","Gamble_Rand_Seq3",12,"Rating","Screen 1","hx8b5a",1,"info","",6.70000000111759,0,6.70000000111759,6.70000000111759,0,6.70000000111759,1,6.70000000111759,0,0,NA,"Slider","MoodSlider",2,"object-243","Rating","frustrated","not frustrated","frustrated",4,"",NA,NA,NA,NA,NA,"Left",NA,-0.33,NA,NA,NA,NA,-3.33,"MDPRF03607"
"57",1727180036218,"24/09/2024 12:13:56",1727183636218,1,"24/09/2024 14:13:56",187387,9,"task-napx",NA,40225947,11744090,NA,"complete",NA,"66f2a595d3f19ce68f46b471","computer","Desktop or Laptop","Windows 10","Chrome 129.0.0.0","2560x1440","2560x1440",NA,NA,0,"Gambling_GBO",12,"In","IJHKGAFBECD",NA,"In","HM_OCT","seq3","Gamble_Rand_Seq3","Gamble_Rand_Seq3",12,"Rating","Screen 1","hx8b5a",1,"continue","",3950,3945.7,3950,3950,3945.7,3950,1,3950,0,0,NA,"Click To Continue","Continue Button",3,"object-25","Rating","frustrated","not frustrated","frustrated",4,"",NA,NA,NA,NA,NA,"Left",NA,-0.33,NA,NA,NA,NA,-3.33,"MDPRF03607"
"58",1727180036218,"24/09/2024 12:13:56",1727183636218,1,"24/09/2024 14:13:56",187387,9,"task-napx",NA,40225947,11744090,NA,"complete",NA,"66f2a595d3f19ce68f46b471","computer","Desktop or Laptop","Windows 10","Chrome 129.0.0.0","2560x1440","2560x1440",NA,NA,0,"Gambling_GBO",12,"In","IJHKGAFBECD",NA,"In","HM_OCT","seq3","Gamble_Rand_Seq3","Gamble_Rand_Seq3",12,"Rating","Screen 1","hx8b5a",1,"response","17",1493.3,3945.7,3950.20000000112,1493.3,3945.7,3950.20000000112,1,1493.3,2456.90000000111,0,NA,"Slider","MoodSlider",2,"object-243","Rating","frustrated","not frustrated","frustrated",4,"",NA,NA,NA,NA,NA,"Left",NA,-0.33,NA,NA,NA,NA,-3.33,"MDPRF03607"
"59",1727180038199,"24/09/2024 12:13:58",1727183638199,1,"24/09/2024 14:13:58",187387,9,"task-napx",NA,40225947,11744090,NA,"complete",NA,"66f2a595d3f19ce68f46b471","computer","Desktop or Laptop","Windows 10","Chrome 129.0.0.0","2560x1440","2560x1440",NA,NA,0,"Gambling_GBO",12,"In","IJHKGAFBECD",NA,"In","HM_OCT","seq3","Gamble_Rand_Seq3","Gamble_Rand_Seq3",2,"winB","Screen 1","pkkyi8",1,"continue","",1985.40000000001,1985.40000000001,1985.40000000001,1985.40000000001,1985.40000000001,1985.40000000001,1,1985.40000000001,0,0,NA,"Fixation Timing","Fixation",1,"object-246","winB","","","",NA,"Right",2.67,2,4,4,NA,"Left",NA,-0.33,NA,NA,NA,NA,-3.33,"MDPRF03607"
"60",1727180039457,"24/09/2024 12:13:59",1727183639457,1,"24/09/2024 14:13:59",187387,9,"task-napx",NA,40225947,11744090,NA,"complete",NA,"66f2a595d3f19ce68f46b471","computer","Desktop or Laptop","Windows 10","Chrome 129.0.0.0","2560x1440","2560x1440",NA,NA,0,"Gambling_GBO",12,"In","IJHKGAFBECD",NA,"In","HM_OCT","seq3","Gamble_Rand_Seq3","Gamble_Rand_Seq3",2,"winB","choice","5lszbx",2,"response","Right",1257.39999999999,1251.29999999999,1257.39999999999,1257.39999999999,1251.29999999999,1257.39999999999,1,1257.39999999999,0,0,NA,"Keyboard Response","KeyResponseG",6,"object-256","winB","","","",NA,"Right",2.67,2,4,4,NA,"Right",NA,3.67,NA,NA,NA,NA,4,"MDPRF03607"
"61",1727180043455,"24/09/2024 12:14:03",1727183643455,1,"24/09/2024 14:14:03",187387,9,"task-napx",NA,40225947,11744090,NA,"complete",NA,"66f2a595d3f19ce68f46b471","computer","Desktop or Laptop","Windows 10","Chrome 129.0.0.0","2560x1440","2560x1440",NA,NA,0,"Gambling_GBO",12,"In","IJHKGAFBECD",NA,"In","HM_OCT","seq3","Gamble_Rand_Seq3","Gamble_Rand_Seq3",2,"winB","gamble","17lgr3",3,"timedOut","",4004.19999999963,4004,4004.19999999963,4004.19999999963,4004,4004.19999999963,1,4004.19999999963,0,0,NA,"Time Limit","screen",0,"screen","winB","","","",NA,"Right",2.67,2,4,4,NA,"Right",NA,3.67,NA,NA,NA,NA,4,"MDPRF03607"
"62",1727180044457,"24/09/2024 12:14:04",1727183644457,1,"24/09/2024 14:14:04",187387,9,"task-napx",NA,40225947,11744090,NA,"complete",NA,"66f2a595d3f19ce68f46b471","computer","Desktop or Laptop","Windows 10","Chrome 129.0.0.0","2560x1440","2560x1440",NA,NA,0,"Gambling_GBO",12,"In","IJHKGAFBECD",NA,"In","HM_OCT","seq3","Gamble_Rand_Seq3","Gamble_Rand_Seq3",2,"winB","win","dzz5jr",4,"timedOut","",1002.90000000075,1001.10000000001,1002.90000000075,1002.90000000075,1001.10000000001,1002.90000000075,1,1002.90000000075,0,0,NA,"Time Limit","screen",0,"screen","winB","","","",NA,"Right",2.67,2,4,4,NA,"Right",NA,3.67,NA,NA,NA,NA,4,"MDPRF03607"
"63",1727180044460,"24/09/2024 12:14:04",1727183644460,1,"24/09/2024 14:14:04",187387,9,"task-napx",NA,40225947,11744090,NA,"complete",NA,"66f2a595d3f19ce68f46b471","computer","Desktop or Laptop","Windows 10","Chrome 129.0.0.0","2560x1440","2560x1440",NA,NA,0,"Gambling_GBO",12,"In","IJHKGAFBECD",NA,"In","HM_OCT","seq3","Gamble_Rand_Seq3","Gamble_Rand_Seq3",13,"Rating","Screen 1","hx8b5a",1,"info","",4.5,0,4.5,4.5,0,4.5,1,4.5,0,0,NA,"Slider","MoodSlider",2,"object-243","Rating","frustrated","not frustrated","frustrated",5,"",NA,NA,NA,NA,NA,"Right",NA,3.67,NA,NA,NA,NA,4,"MDPRF03607"
"64",1727180048137,"24/09/2024 12:14:08",1727183648137,1,"24/09/2024 14:14:08",187387,9,"task-napx",NA,40225947,11744090,NA,"complete",NA,"66f2a595d3f19ce68f46b471","computer","Desktop or Laptop","Windows 10","Chrome 129.0.0.0","2560x1440","2560x1440",NA,NA,0,"Gambling_GBO",12,"In","IJHKGAFBECD",NA,"In","HM_OCT","seq3","Gamble_Rand_Seq3","Gamble_Rand_Seq3",13,"Rating","Screen 1","hx8b5a",1,"continue","",3683.5,3678.8,3683.5,3683.5,3678.8,3683.5,1,3683.5,0,0,NA,"Click To Continue","Continue Button",3,"object-25","Rating","frustrated","not frustrated","frustrated",5,"",NA,NA,NA,NA,NA,"Right",NA,3.67,NA,NA,NA,NA,4,"MDPRF03607"
"65",1727180048137,"24/09/2024 12:14:08",1727183648137,1,"24/09/2024 14:14:08",187387,9,"task-napx",NA,40225947,11744090,NA,"complete",NA,"66f2a595d3f19ce68f46b471","computer","Desktop or Laptop","Windows 10","Chrome 129.0.0.0","2560x1440","2560x1440",NA,NA,0,"Gambling_GBO",12,"In","IJHKGAFBECD",NA,"In","HM_OCT","seq3","Gamble_Rand_Seq3","Gamble_Rand_Seq3",13,"Rating","Screen 1","hx8b5a",1,"response","1",3044.8,3678.8,3683.70000000112,3044.8,3678.8,3683.70000000112,1,3044.8,638.900000001115,0,NA,"Slider","MoodSlider",2,"object-243","Rating","frustrated","not frustrated","frustrated",5,"",NA,NA,NA,NA,NA,"Right",NA,3.67,NA,NA,NA,NA,4,"MDPRF03607"
"66",1727180048139,"24/09/2024 12:14:08",1727183648139,1,"24/09/2024 14:14:08",187387,9,"task-napx",NA,40225947,11744090,NA,"complete",NA,"66f2a595d3f19ce68f46b471","computer","Desktop or Laptop","Windows 10","Chrome 129.0.0.0","2560x1440","2560x1440",NA,NA,0,"Gambling_GBO",12,"In","IJHKGAFBECD",NA,"In","HM_OCT","seq3","Gamble_Rand_Seq3","Gamble_Rand_Seq3",14,"Rating","Screen 1","hx8b5a",1,"info","",7.60000000036962,0,7.60000000036962,7.60000000036962,0,7.60000000036962,1,7.60000000036962,0,0,NA,"Slider","MoodSlider",2,"object-243","Rating","bored","not bored","bored",5,"",NA,NA,NA,NA,NA,"Right",NA,3.67,NA,NA,NA,NA,4,"MDPRF03607"
"67",1727180049970,"24/09/2024 12:14:09",1727183649970,1,"24/09/2024 14:14:09",187387,9,"task-napx",NA,40225947,11744090,NA,"complete",NA,"66f2a595d3f19ce68f46b471","computer","Desktop or Laptop","Windows 10","Chrome 129.0.0.0","2560x1440","2560x1440",NA,NA,0,"Gambling_GBO",12,"In","IJHKGAFBECD",NA,"In","HM_OCT","seq3","Gamble_Rand_Seq3","Gamble_Rand_Seq3",14,"Rating","Screen 1","hx8b5a",1,"continue","",1837.7,1835.09999999999,1837.7,1837.7,1835.09999999999,1837.7,1,1837.7,0,0,NA,"Click To Continue","Continue Button",3,"object-25","Rating","bored","not bored","bored",5,"",NA,NA,NA,NA,NA,"Right",NA,3.67,NA,NA,NA,NA,4,"MDPRF03607"
"68",1727180049970,"24/09/2024 12:14:09",1727183649970,1,"24/09/2024 14:14:09",187387,9,"task-napx",NA,40225947,11744090,NA,"complete",NA,"66f2a595d3f19ce68f46b471","computer","Desktop or Laptop","Windows 10","Chrome 129.0.0.0","2560x1440","2560x1440",NA,NA,0,"Gambling_GBO",12,"In","IJHKGAFBECD",NA,"In","HM_OCT","seq3","Gamble_Rand_Seq3","Gamble_Rand_Seq3",14,"Rating","Screen 1","hx8b5a",1,"response","1",1192.8,1835.09999999999,1837.90000000111,1192.8,1835.09999999999,1837.90000000111,1,1192.8,645.100000001112,0,NA,"Slider","MoodSlider",2,"object-243","Rating","bored","not bored","bored",5,"",NA,NA,NA,NA,NA,"Right",NA,3.67,NA,NA,NA,NA,4,"MDPRF03607"
"69",1727180049972,"24/09/2024 12:14:09",1727183649972,1,"24/09/2024 14:14:09",187387,9,"task-napx",NA,40225947,11744090,NA,"complete",NA,"66f2a595d3f19ce68f46b471","computer","Desktop or Laptop","Windows 10","Chrome 129.0.0.0","2560x1440","2560x1440",NA,NA,0,"Gambling_GBO",12,"In","IJHKGAFBECD",NA,"In","HM_OCT","seq3","Gamble_Rand_Seq3","Gamble_Rand_Seq3",15,"Rating","Screen 1","hx8b5a",1,"info","",5.40000000075088,0,5.40000000075088,5.40000000075088,0,5.40000000075088,1,5.40000000075088,0,0,NA,"Slider","MoodSlider",2,"object-243","Rating","happy","unhappy","happy",5,"",NA,NA,NA,NA,NA,"Right",NA,3.67,NA,NA,NA,NA,4,"MDPRF03607"
"70",1727180051757,"24/09/2024 12:14:11",1727183651757,1,"24/09/2024 14:14:11",187387,9,"task-napx",NA,40225947,11744090,NA,"complete",NA,"66f2a595d3f19ce68f46b471","computer","Desktop or Laptop","Windows 10","Chrome 129.0.0.0","2560x1440","2560x1440",NA,NA,0,"Gambling_GBO",12,"In","IJHKGAFBECD",NA,"In","HM_OCT","seq3","Gamble_Rand_Seq3","Gamble_Rand_Seq3",15,"Rating","Screen 1","hx8b5a",1,"continue","",1789.60000000001,1785.20000000001,1789.60000000001,1789.60000000001,1785.20000000001,1789.60000000001,1,1789.60000000001,0,0,NA,"Click To Continue","Continue Button",3,"object-25","Rating","happy","unhappy","happy",5,"",NA,NA,NA,NA,NA,"Right",NA,3.67,NA,NA,NA,NA,4,"MDPRF03607"
"71",1727180051757,"24/09/2024 12:14:11",1727183651757,1,"24/09/2024 14:14:11",187387,9,"task-napx",NA,40225947,11744090,NA,"complete",NA,"66f2a595d3f19ce68f46b471","computer","Desktop or Laptop","Windows 10","Chrome 129.0.0.0","2560x1440","2560x1440",NA,NA,0,"Gambling_GBO",12,"In","IJHKGAFBECD",NA,"In","HM_OCT","seq3","Gamble_Rand_Seq3","Gamble_Rand_Seq3",15,"Rating","Screen 1","hx8b5a",1,"response","98",1218,1785.20000000001,1789.80000000112,1218,1785.20000000001,1789.80000000112,1,1218,571.800000001123,0,NA,"Slider","MoodSlider",2,"object-243","Rating","happy","unhappy","happy",5,"",NA,NA,NA,NA,NA,"Right",NA,3.67,NA,NA,NA,NA,4,"MDPRF03607"
"72",1727180053738,"24/09/2024 12:14:13",1727183653738,1,"24/09/2024 14:14:13",187387,9,"task-napx",NA,40225947,11744090,NA,"complete",NA,"66f2a595d3f19ce68f46b471","computer","Desktop or Laptop","Windows 10","Chrome 129.0.0.0","2560x1440","2560x1440",NA,NA,0,"Gambling_GBO",12,"In","IJHKGAFBECD",NA,"In","HM_OCT","seq3","Gamble_Rand_Seq3","Gamble_Rand_Seq3",1,"lossT","Screen 1","2oxi65",1,"continue","",1985.39999999999,1985.39999999999,1985.39999999999,1985.39999999999,1985.39999999999,1985.39999999999,1,1985.39999999999,0,0,NA,"Fixation Timing","Fixation",1,"object-354","lossT","","","",NA,"Right",1.67,0,5,5,NA,"Right",NA,3.67,NA,NA,NA,NA,4,"MDPRF03607"
"73",1727180054906,"24/09/2024 12:14:14",1727183654906,1,"24/09/2024 14:14:14",187387,9,"task-napx",NA,40225947,11744090,NA,"complete",NA,"66f2a595d3f19ce68f46b471","computer","Desktop or Laptop","Windows 10","Chrome 129.0.0.0","2560x1440","2560x1440",NA,NA,0,"Gambling_GBO",12,"In","IJHKGAFBECD",NA,"In","HM_OCT","seq3","Gamble_Rand_Seq3","Gamble_Rand_Seq3",1,"lossT","choice","zjftf8",2,"response","Right",1168.5,1167.8,1168.5,1168.5,1167.8,1168.5,1,1168.5,0,0,NA,"Keyboard Response","KeyResponseG",6,"object-352","lossT","","","",NA,"Right",1.67,0,5,5,NA,"Right",NA,3.67,NA,NA,NA,NA,0,"MDPRF03607"
"74",1727180058910,"24/09/2024 12:14:18",1727183658910,1,"24/09/2024 14:14:18",187387,9,"task-napx",NA,40225947,11744090,NA,"complete",NA,"66f2a595d3f19ce68f46b471","computer","Desktop or Laptop","Windows 10","Chrome 129.0.0.0","2560x1440","2560x1440",NA,NA,0,"Gambling_GBO",12,"In","IJHKGAFBECD",NA,"In","HM_OCT","seq3","Gamble_Rand_Seq3","Gamble_Rand_Seq3",1,"lossT","gamble","h5bf9r",3,"timedOut","",4004.2,4004.2,4004.2,4004.2,4004.2,4004.2,1,4004.2,0,0,NA,"Time Limit","screen",0,"screen","lossT","","","",NA,"Right",1.67,0,5,5,NA,"Right",NA,3.67,NA,NA,NA,NA,0,"MDPRF03607"
"75",1727180059911,"24/09/2024 12:14:19",1727183659911,1,"24/09/2024 14:14:19",187387,9,"task-napx",NA,40225947,11744090,NA,"complete",NA,"66f2a595d3f19ce68f46b471","computer","Desktop or Laptop","Windows 10","Chrome 129.0.0.0","2560x1440","2560x1440",NA,NA,0,"Gambling_GBO",12,"In","IJHKGAFBECD",NA,"In","HM_OCT","seq3","Gamble_Rand_Seq3","Gamble_Rand_Seq3",1,"lossT","loss","kmnw8b",4,"timedOut","",1001,1001,1001,1001,1001,1001,1,1001,0,0,NA,"Time Limit","screen",0,"screen","lossT","","","",NA,"Right",1.67,0,5,5,NA,"Right",NA,3.67,NA,NA,NA,NA,0,"MDPRF03607"
"76",1727180059913,"24/09/2024 12:14:19",1727183659913,1,"24/09/2024 14:14:19",187387,9,"task-napx",NA,40225947,11744090,NA,"complete",NA,"66f2a595d3f19ce68f46b471","computer","Desktop or Laptop","Windows 10","Chrome 129.0.0.0","2560x1440","2560x1440",NA,NA,0,"Gambling_GBO",12,"In","IJHKGAFBECD",NA,"In","HM_OCT","seq3","Gamble_Rand_Seq3","Gamble_Rand_Seq3",16,"Rating","Screen 1","hx8b5a",1,"info","",2.90000000037253,0,2.90000000037253,2.90000000037253,0,2.90000000037253,1,2.90000000037253,0,0,NA,"Slider","MoodSlider",2,"object-243","Rating","happy","unhappy","happy",6,"",NA,NA,NA,NA,NA,"Right",NA,3.67,NA,NA,NA,NA,0,"MDPRF03607"
"77",1727180062516,"24/09/2024 12:14:22",1727183662516,1,"24/09/2024 14:14:22",187387,9,"task-napx",NA,40225947,11744090,NA,"complete",NA,"66f2a595d3f19ce68f46b471","computer","Desktop or Laptop","Windows 10","Chrome 129.0.0.0","2560x1440","2560x1440",NA,NA,0,"Gambling_GBO",12,"In","IJHKGAFBECD",NA,"In","HM_OCT","seq3","Gamble_Rand_Seq3","Gamble_Rand_Seq3",16,"Rating","Screen 1","hx8b5a",1,"continue","",2605.09999999963,2602.60000000001,2605.09999999963,2605.09999999963,2602.60000000001,2605.09999999963,1,2605.09999999963,0,0,NA,"Click To Continue","Continue Button",3,"object-25","Rating","happy","unhappy","happy",6,"",NA,NA,NA,NA,NA,"Right",NA,3.67,NA,NA,NA,NA,0,"MDPRF03607"
"78",1727180062516,"24/09/2024 12:14:22",1727183662516,1,"24/09/2024 14:14:22",187387,9,"task-napx",NA,40225947,11744090,NA,"complete",NA,"66f2a595d3f19ce68f46b471","computer","Desktop or Laptop","Windows 10","Chrome 129.0.0.0","2560x1440","2560x1440",NA,NA,0,"Gambling_GBO",12,"In","IJHKGAFBECD",NA,"In","HM_OCT","seq3","Gamble_Rand_Seq3","Gamble_Rand_Seq3",16,"Rating","Screen 1","hx8b5a",1,"response","100",1910.20000000001,2602.60000000001,2605.30000000075,1910.20000000001,2602.60000000001,2605.30000000075,1,1910.20000000001,695.100000000733,0,NA,"Slider","MoodSlider",2,"object-243","Rating","happy","unhappy","happy",6,"",NA,NA,NA,NA,NA,"Right",NA,3.67,NA,NA,NA,NA,0,"MDPRF03607"
"79",1727180062519,"24/09/2024 12:14:22",1727183662519,1,"24/09/2024 14:14:22",187387,9,"task-napx",NA,40225947,11744090,NA,"complete",NA,"66f2a595d3f19ce68f46b471","computer","Desktop or Laptop","Windows 10","Chrome 129.0.0.0","2560x1440","2560x1440",NA,NA,0,"Gambling_GBO",12,"In","IJHKGAFBECD",NA,"In","HM_OCT","seq3","Gamble_Rand_Seq3","Gamble_Rand_Seq3",17,"Rating","Screen 1","hx8b5a",1,"info","",5.49999999962165,0,5.49999999962165,5.49999999962165,0,5.49999999962165,1,5.49999999962165,0,0,NA,"Slider","MoodSlider",2,"object-243","Rating","bored","not bored","bored",6,"",NA,NA,NA,NA,NA,"Right",NA,3.67,NA,NA,NA,NA,0,"MDPRF03607"
"80",1727180063950,"24/09/2024 12:14:23",1727183663950,1,"24/09/2024 14:14:23",187387,9,"task-napx",NA,40225947,11744090,NA,"complete",NA,"66f2a595d3f19ce68f46b471","computer","Desktop or Laptop","Windows 10","Chrome 129.0.0.0","2560x1440","2560x1440",NA,NA,0,"Gambling_GBO",12,"In","IJHKGAFBECD",NA,"In","HM_OCT","seq3","Gamble_Rand_Seq3","Gamble_Rand_Seq3",17,"Rating","Screen 1","hx8b5a",1,"continue","",1436.39999999999,1434.79999999999,1436.39999999999,1436.39999999999,1434.79999999999,1436.39999999999,1,1436.39999999999,0,0,NA,"Click To Continue","Continue Button",3,"object-25","Rating","bored","not bored","bored",6,"",NA,NA,NA,NA,NA,"Right",NA,3.67,NA,NA,NA,NA,0,"MDPRF03607"
"81",1727180063951,"24/09/2024 12:14:23",1727183663951,1,"24/09/2024 14:14:23",187387,9,"task-napx",NA,40225947,11744090,NA,"complete",NA,"66f2a595d3f19ce68f46b471","computer","Desktop or Laptop","Windows 10","Chrome 129.0.0.0","2560x1440","2560x1440",NA,NA,0,"Gambling_GBO",12,"In","IJHKGAFBECD",NA,"In","HM_OCT","seq3","Gamble_Rand_Seq3","Gamble_Rand_Seq3",17,"Rating","Screen 1","hx8b5a",1,"response","0",867.5,1434.79999999999,1437.99999999962,867.5,1434.79999999999,1437.99999999962,1,867.5,570.499999999622,0,NA,"Slider","MoodSlider",2,"object-243","Rating","bored","not bored","bored",6,"",NA,NA,NA,NA,NA,"Right",NA,3.67,NA,NA,NA,NA,0,"MDPRF03607"
"82",1727180063954,"24/09/2024 12:14:23",1727183663954,1,"24/09/2024 14:14:23",187387,9,"task-napx",NA,40225947,11744090,NA,"complete",NA,"66f2a595d3f19ce68f46b471","computer","Desktop or Laptop","Windows 10","Chrome 129.0.0.0","2560x1440","2560x1440",NA,NA,0,"Gambling_GBO",12,"In","IJHKGAFBECD",NA,"In","HM_OCT","seq3","Gamble_Rand_Seq3","Gamble_Rand_Seq3",18,"Rating","Screen 1","hx8b5a",1,"info","",6.30000000112341,0,6.30000000112341,6.30000000112341,0,6.30000000112341,1,6.30000000112341,0,0,NA,"Slider","MoodSlider",2,"object-243","Rating","frustrated","not frustrated","frustrated",6,"",NA,NA,NA,NA,NA,"Right",NA,3.67,NA,NA,NA,NA,0,"MDPRF03607"
"83",1727180065572,"24/09/2024 12:14:25",1727183665572,1,"24/09/2024 14:14:25",187387,9,"task-napx",NA,40225947,11744090,NA,"complete",NA,"66f2a595d3f19ce68f46b471","computer","Desktop or Laptop","Windows 10","Chrome 129.0.0.0","2560x1440","2560x1440",NA,NA,0,"Gambling_GBO",12,"In","IJHKGAFBECD",NA,"In","HM_OCT","seq3","Gamble_Rand_Seq3","Gamble_Rand_Seq3",18,"Rating","Screen 1","hx8b5a",1,"continue","",1623.80000000112,1618.30000000002,1623.80000000112,1623.80000000112,1618.30000000002,1623.80000000112,1,1623.80000000112,0,0,NA,"Click To Continue","Continue Button",3,"object-25","Rating","frustrated","not frustrated","frustrated",6,"",NA,NA,NA,NA,NA,"Right",NA,3.67,NA,NA,NA,NA,0,"MDPRF03607"
"84",1727180065572,"24/09/2024 12:14:25",1727183665572,1,"24/09/2024 14:14:25",187387,9,"task-napx",NA,40225947,11744090,NA,"complete",NA,"66f2a595d3f19ce68f46b471","computer","Desktop or Laptop","Windows 10","Chrome 129.0.0.0","2560x1440","2560x1440",NA,NA,0,"Gambling_GBO",12,"In","IJHKGAFBECD",NA,"In","HM_OCT","seq3","Gamble_Rand_Seq3","Gamble_Rand_Seq3",18,"Rating","Screen 1","hx8b5a",1,"response","1",1026,1618.30000000002,1624.00000000038,1026,1618.30000000002,1624.00000000038,1,1026,598.000000000378,0,NA,"Slider","MoodSlider",2,"object-243","Rating","frustrated","not frustrated","frustrated",6,"",NA,NA,NA,NA,NA,"Right",NA,3.67,NA,NA,NA,NA,0,"MDPRF03607"
"85",1727180067553,"24/09/2024 12:14:27",1727183667553,1,"24/09/2024 14:14:27",187387,9,"task-napx",NA,40225947,11744090,NA,"complete",NA,"66f2a595d3f19ce68f46b471","computer","Desktop or Laptop","Windows 10","Chrome 129.0.0.0","2560x1440","2560x1440",NA,NA,0,"Gambling_GBO",12,"In","IJHKGAFBECD",NA,"In","HM_OCT","seq3","Gamble_Rand_Seq3","Gamble_Rand_Seq3",3,"winB","Screen 1","pkkyi8",1,"continue","",1985.29999999999,1985.29999999999,1985.29999999999,1985.29999999999,1985.29999999999,1985.29999999999,1,1985.29999999999,0,0,NA,"Fixation Timing","Fixation",1,"object-246","winB","","","",NA,"Right",0.67,0,2,6,NA,"Right",NA,3.67,NA,NA,NA,NA,0,"MDPRF03607"
"86",1727180068634,"24/09/2024 12:14:28",1727183668634,1,"24/09/2024 14:14:28",187387,9,"task-napx",NA,40225947,11744090,NA,"complete",NA,"66f2a595d3f19ce68f46b471","computer","Desktop or Laptop","Windows 10","Chrome 129.0.0.0","2560x1440","2560x1440",NA,NA,0,"Gambling_GBO",12,"In","IJHKGAFBECD",NA,"In","HM_OCT","seq3","Gamble_Rand_Seq3","Gamble_Rand_Seq3",3,"winB","choice","5lszbx",2,"response","Right",1082.5,1076.20000000001,1082.5,1082.5,1076.20000000001,1082.5,1,1082.5,0,0,NA,"Keyboard Response","KeyResponseG",6,"object-256","winB","","","",NA,"Right",0.67,0,2,6,NA,"Right",NA,5.67,NA,NA,NA,NA,2,"MDPRF03607"
"87",1727180072632,"24/09/2024 12:14:32",1727183672632,1,"24/09/2024 14:14:32",187387,9,"task-napx",NA,40225947,11744090,NA,"complete",NA,"66f2a595d3f19ce68f46b471","computer","Desktop or Laptop","Windows 10","Chrome 129.0.0.0","2560x1440","2560x1440",NA,NA,0,"Gambling_GBO",12,"In","IJHKGAFBECD",NA,"In","HM_OCT","seq3","Gamble_Rand_Seq3","Gamble_Rand_Seq3",3,"winB","gamble","17lgr3",3,"timedOut","",4004.20000000036,4004,4004.20000000036,4004.20000000036,4004,4004.20000000036,1,4004.20000000036,0,0,NA,"Time Limit","screen",0,"screen","winB","","","",NA,"Right",0.67,0,2,6,NA,"Right",NA,5.67,NA,NA,NA,NA,2,"MDPRF03607"
"88",1727180073633,"24/09/2024 12:14:33",1727183673633,1,"24/09/2024 14:14:33",187387,9,"task-napx",NA,40225947,11744090,NA,"complete",NA,"66f2a595d3f19ce68f46b471","computer","Desktop or Laptop","Windows 10","Chrome 129.0.0.0","2560x1440","2560x1440",NA,NA,0,"Gambling_GBO",12,"In","IJHKGAFBECD",NA,"In","HM_OCT","seq3","Gamble_Rand_Seq3","Gamble_Rand_Seq3",3,"winB","win","dzz5jr",4,"timedOut","",1001.20000000036,1001,1001.20000000036,1001.20000000036,1001,1001.20000000036,1,1001.20000000036,0,0,NA,"Time Limit","screen",0,"screen","winB","","","",NA,"Right",0.67,0,2,6,NA,"Right",NA,5.67,NA,NA,NA,NA,2,"MDPRF03607"
"89",1727180073636,"24/09/2024 12:14:33",1727183673636,1,"24/09/2024 14:14:33",187387,9,"task-napx",NA,40225947,11744090,NA,"complete",NA,"66f2a595d3f19ce68f46b471","computer","Desktop or Laptop","Windows 10","Chrome 129.0.0.0","2560x1440","2560x1440",NA,NA,0,"Gambling_GBO",12,"In","IJHKGAFBECD",NA,"In","HM_OCT","seq3","Gamble_Rand_Seq3","Gamble_Rand_Seq3",19,"Rating","Screen 1","hx8b5a",1,"info","",2.89999999961583,0,2.89999999961583,2.89999999961583,0,2.89999999961583,1,2.89999999961583,0,0,NA,"Slider","MoodSlider",2,"object-243","Rating","happy","unhappy","happy",7,"",NA,NA,NA,NA,NA,"Right",NA,5.67,NA,NA,NA,NA,2,"MDPRF03607"
"90",1727180075830,"24/09/2024 12:14:35",1727183675830,1,"24/09/2024 14:14:35",187387,9,"task-napx",NA,40225947,11744090,NA,"complete",NA,"66f2a595d3f19ce68f46b471","computer","Desktop or Laptop","Windows 10","Chrome 129.0.0.0","2560x1440","2560x1440",NA,NA,0,"Gambling_GBO",12,"In","IJHKGAFBECD",NA,"In","HM_OCT","seq3","Gamble_Rand_Seq3","Gamble_Rand_Seq3",19,"Rating","Screen 1","hx8b5a",1,"continue","",2197.00000000111,2194,2197.00000000111,2197.00000000111,2194,2197.00000000111,1,2197.00000000111,0,0,NA,"Click To Continue","Continue Button",3,"object-25","Rating","happy","unhappy","happy",7,"",NA,NA,NA,NA,NA,"Right",NA,5.67,NA,NA,NA,NA,2,"MDPRF03607"
"91",1727180075832,"24/09/2024 12:14:35",1727183675832,1,"24/09/2024 14:14:35",187387,9,"task-napx",NA,40225947,11744090,NA,"complete",NA,"66f2a595d3f19ce68f46b471","computer","Desktop or Laptop","Windows 10","Chrome 129.0.0.0","2560x1440","2560x1440",NA,NA,0,"Gambling_GBO",12,"In","IJHKGAFBECD",NA,"In","HM_OCT","seq3","Gamble_Rand_Seq3","Gamble_Rand_Seq3",19,"Rating","Screen 1","hx8b5a",1,"response","97",1618.39999999999,2194,2199.10000000073,1618.39999999999,2194,2199.10000000073,1,1618.39999999999,580.700000000739,0,NA,"Slider","MoodSlider",2,"object-243","Rating","happy","unhappy","happy",7,"",NA,NA,NA,NA,NA,"Right",NA,5.67,NA,NA,NA,NA,2,"MDPRF03607"
"92",1727180075835,"24/09/2024 12:14:35",1727183675835,1,"24/09/2024 14:14:35",187387,9,"task-napx",NA,40225947,11744090,NA,"complete",NA,"66f2a595d3f19ce68f46b471","computer","Desktop or Laptop","Windows 10","Chrome 129.0.0.0","2560x1440","2560x1440",NA,NA,0,"Gambling_GBO",12,"In","IJHKGAFBECD",NA,"In","HM_OCT","seq3","Gamble_Rand_Seq3","Gamble_Rand_Seq3",20,"Rating","Screen 1","hx8b5a",1,"info","",8.20000000036089,0,8.20000000036089,8.20000000036089,0,8.20000000036089,1,8.20000000036089,0,0,NA,"Slider","MoodSlider",2,"object-243","Rating","frustrated","not frustrated","frustrated",7,"",NA,NA,NA,NA,NA,"Right",NA,5.67,NA,NA,NA,NA,2,"MDPRF03607"
"93",1727180077545,"24/09/2024 12:14:37",1727183677545,1,"24/09/2024 14:14:37",187387,9,"task-napx",NA,40225947,11744090,NA,"complete",NA,"66f2a595d3f19ce68f46b471","computer","Desktop or Laptop","Windows 10","Chrome 129.0.0.0","2560x1440","2560x1440",NA,NA,0,"Gambling_GBO",12,"In","IJHKGAFBECD",NA,"In","HM_OCT","seq3","Gamble_Rand_Seq3","Gamble_Rand_Seq3",20,"Rating","Screen 1","hx8b5a",1,"continue","",1718.20000000036,1710.59999999998,1718.20000000036,1718.20000000036,1710.59999999998,1718.20000000036,1,1718.20000000036,0,0,NA,"Click To Continue","Continue Button",3,"object-25","Rating","frustrated","not frustrated","frustrated",7,"",NA,NA,NA,NA,NA,"Right",NA,5.67,NA,NA,NA,NA,2,"MDPRF03607"
"94",1727180077545,"24/09/2024 12:14:37",1727183677545,1,"24/09/2024 14:14:37",187387,9,"task-napx",NA,40225947,11744090,NA,"complete",NA,"66f2a595d3f19ce68f46b471","computer","Desktop or Laptop","Windows 10","Chrome 129.0.0.0","2560x1440","2560x1440",NA,NA,0,"Gambling_GBO",12,"In","IJHKGAFBECD",NA,"In","HM_OCT","seq3","Gamble_Rand_Seq3","Gamble_Rand_Seq3",20,"Rating","Screen 1","hx8b5a",1,"response","3",1134.5,1710.59999999998,1718.39999999962,1134.5,1710.59999999998,1718.39999999962,1,1134.5,583.899999999616,0,NA,"Slider","MoodSlider",2,"object-243","Rating","frustrated","not frustrated","frustrated",7,"",NA,NA,NA,NA,NA,"Right",NA,5.67,NA,NA,NA,NA,2,"MDPRF03607"
"95",1727180077548,"24/09/2024 12:14:37",1727183677548,1,"24/09/2024 14:14:37",187387,9,"task-napx",NA,40225947,11744090,NA,"complete",NA,"66f2a595d3f19ce68f46b471","computer","Desktop or Laptop","Windows 10","Chrome 129.0.0.0","2560x1440","2560x1440",NA,NA,0,"Gambling_GBO",12,"In","IJHKGAFBECD",NA,"In","HM_OCT","seq3","Gamble_Rand_Seq3","Gamble_Rand_Seq3",21,"Rating","Screen 1","hx8b5a",1,"info","",8.89999999999418,0,8.89999999999418,8.89999999999418,0,8.89999999999418,1,8.89999999999418,0,0,NA,"Slider","MoodSlider",2,"object-243","Rating","bored","not bored","bored",7,"",NA,NA,NA,NA,NA,"Right",NA,5.67,NA,NA,NA,NA,2,"MDPRF03607"
"96",1727180078922,"24/09/2024 12:14:38",1727183678922,1,"24/09/2024 14:14:38",187387,9,"task-napx",NA,40225947,11744090,NA,"complete",NA,"66f2a595d3f19ce68f46b471","computer","Desktop or Laptop","Windows 10","Chrome 129.0.0.0","2560x1440","2560x1440",NA,NA,0,"Gambling_GBO",12,"In","IJHKGAFBECD",NA,"In","HM_OCT","seq3","Gamble_Rand_Seq3","Gamble_Rand_Seq3",21,"Rating","Screen 1","hx8b5a",1,"continue","",1384.30000000005,1375.90000000002,1384.30000000005,1384.30000000005,1375.90000000002,1384.30000000005,1,1384.30000000005,0,0,NA,"Click To Continue","Continue Button",3,"object-25","Rating","bored","not bored","bored",7,"",NA,NA,NA,NA,NA,"Right",NA,5.67,NA,NA,NA,NA,2,"MDPRF03607"
"97",1727180078922,"24/09/2024 12:14:38",1727183678922,1,"24/09/2024 14:14:38",187387,9,"task-napx",NA,40225947,11744090,NA,"complete",NA,"66f2a595d3f19ce68f46b471","computer","Desktop or Laptop","Windows 10","Chrome 129.0.0.0","2560x1440","2560x1440",NA,NA,0,"Gambling_GBO",12,"In","IJHKGAFBECD",NA,"In","HM_OCT","seq3","Gamble_Rand_Seq3","Gamble_Rand_Seq3",21,"Rating","Screen 1","hx8b5a",1,"response","7",675.600000000006,1375.90000000002,1384.30000000005,675.600000000006,1375.90000000002,1384.30000000005,1,675.600000000006,708.700000000041,0,NA,"Slider","MoodSlider",2,"object-243","Rating","bored","not bored","bored",7,"",NA,NA,NA,NA,NA,"Right",NA,5.67,NA,NA,NA,NA,2,"MDPRF03607"
"98",1727180080899,"24/09/2024 12:14:40",1727183680899,1,"24/09/2024 14:14:40",187387,9,"task-napx",NA,40225947,11744090,NA,"complete",NA,"66f2a595d3f19ce68f46b471","computer","Desktop or Laptop","Windows 10","Chrome 129.0.0.0","2560x1440","2560x1440",NA,NA,0,"Gambling_GBO",12,"In","IJHKGAFBECD",NA,"In","HM_OCT","seq3","Gamble_Rand_Seq3","Gamble_Rand_Seq3",1,"winT","Screen 1","np5pnj",1,"continue","",1985.39999999999,1985.39999999999,1985.39999999999,1985.39999999999,1985.39999999999,1985.39999999999,1,1985.39999999999,0,0,NA,"Fixation Timing","Fixation",1,"object-304","winT","","","",NA,"Right",-1.67,-2,-1,7,NA,"Right",NA,5.67,NA,NA,NA,NA,2,"MDPRF03607"
"99",1727180084537,"24/09/2024 12:14:44",1727183684537,1,"24/09/2024 14:14:44",187387,9,"task-napx",NA,40225947,11744090,NA,"complete",NA,"66f2a595d3f19ce68f46b471","computer","Desktop or Laptop","Windows 10","Chrome 129.0.0.0","2560x1440","2560x1440",NA,NA,0,"Gambling_GBO",12,"In","IJHKGAFBECD",NA,"In","HM_OCT","seq3","Gamble_Rand_Seq3","Gamble_Rand_Seq3",1,"winT","choice","gu8zgx",2,"response","Left",3638.39999999999,3637,3638.39999999999,3638.39999999999,3637,3638.39999999999,0,3638.39999999999,0,0,NA,"Keyboard Response","KeyResponseC",5,"object-325","winT","","","",NA,"Right",-1.67,-2,-1,7,NA,"Left",NA,4,NA,NA,NA,NA,-1.67,"MDPRF03607"
"100",1727180089533,"24/09/2024 12:14:49",1727183689533,1,"24/09/2024 14:14:49",187387,9,"task-napx",NA,40225947,11744090,NA,"complete",NA,"66f2a595d3f19ce68f46b471","computer","Desktop or Laptop","Windows 10","Chrome 129.0.0.0","2560x1440","2560x1440",NA,NA,0,"Gambling_GBO",12,"In","IJHKGAFBECD",NA,"In","HM_OCT","seq3","Gamble_Rand_Seq3","Gamble_Rand_Seq3",1,"winT","certain","q11kp8",3,"timedOut","",4996.89999999999,4996.79999999999,4996.89999999999,4996.89999999999,4996.79999999999,4996.89999999999,1,4996.89999999999,0,0,NA,"Time Limit","screen",0,"screen","winT","","","",NA,"Right",-1.67,-2,-1,7,NA,"Left",NA,4,NA,NA,NA,NA,-1.67,"MDPRF03607"
"101",1727180089538,"24/09/2024 12:14:49",1727183689538,1,"24/09/2024 14:14:49",187387,9,"task-napx",NA,40225947,11744090,NA,"complete",NA,"66f2a595d3f19ce68f46b471","computer","Desktop or Laptop","Windows 10","Chrome 129.0.0.0","2560x1440","2560x1440",NA,NA,0,"Gambling_GBO",12,"In","IJHKGAFBECD",NA,"In","HM_OCT","seq3","Gamble_Rand_Seq3","Gamble_Rand_Seq3",22,"Rating","Screen 1","hx8b5a",1,"info","",5.40000000075088,0,5.40000000075088,5.40000000075088,0,5.40000000075088,1,5.40000000075088,0,0,NA,"Slider","MoodSlider",2,"object-243","Rating","bored","not bored","bored",8,"",NA,NA,NA,NA,NA,"Left",NA,4,NA,NA,NA,NA,-1.67,"MDPRF03607"
"102",1727180092553,"24/09/2024 12:14:52",1727183692553,1,"24/09/2024 14:14:52",187387,9,"task-napx",NA,40225947,11744090,NA,"complete",NA,"66f2a595d3f19ce68f46b471","computer","Desktop or Laptop","Windows 10","Chrome 129.0.0.0","2560x1440","2560x1440",NA,NA,0,"Gambling_GBO",12,"In","IJHKGAFBECD",NA,"In","HM_OCT","seq3","Gamble_Rand_Seq3","Gamble_Rand_Seq3",22,"Rating","Screen 1","hx8b5a",1,"continue","",3020.40000000075,3019.80000000002,3020.40000000075,3020.40000000075,3019.80000000002,3020.40000000075,1,3020.40000000075,0,0,NA,"Click To Continue","Continue Button",3,"object-25","Rating","bored","not bored","bored",8,"",NA,NA,NA,NA,NA,"Left",NA,4,NA,NA,NA,NA,-1.67,"MDPRF03607"
"103",1727180092553,"24/09/2024 12:14:52",1727183692553,1,"24/09/2024 14:14:52",187387,9,"task-napx",NA,40225947,11744090,NA,"complete",NA,"66f2a595d3f19ce68f46b471","computer","Desktop or Laptop","Windows 10","Chrome 129.0.0.0","2560x1440","2560x1440",NA,NA,0,"Gambling_GBO",12,"In","IJHKGAFBECD",NA,"In","HM_OCT","seq3","Gamble_Rand_Seq3","Gamble_Rand_Seq3",22,"Rating","Screen 1","hx8b5a",1,"response","3",2344.10000000001,3019.80000000002,3020.60000000001,2344.10000000001,3019.80000000002,3020.60000000001,1,2344.10000000001,676.5,0,NA,"Slider","MoodSlider",2,"object-243","Rating","bored","not bored","bored",8,"",NA,NA,NA,NA,NA,"Left",NA,4,NA,NA,NA,NA,-1.67,"MDPRF03607"
"104",1727180092556,"24/09/2024 12:14:52",1727183692556,1,"24/09/2024 14:14:52",187387,9,"task-napx",NA,40225947,11744090,NA,"complete",NA,"66f2a595d3f19ce68f46b471","computer","Desktop or Laptop","Windows 10","Chrome 129.0.0.0","2560x1440","2560x1440",NA,NA,0,"Gambling_GBO",12,"In","IJHKGAFBECD",NA,"In","HM_OCT","seq3","Gamble_Rand_Seq3","Gamble_Rand_Seq3",23,"Rating","Screen 1","hx8b5a",1,"info","",3.60000000073342,0,3.60000000073342,3.60000000073342,0,3.60000000073342,1,3.60000000073342,0,0,NA,"Slider","MoodSlider",2,"object-243","Rating","happy","unhappy","happy",8,"",NA,NA,NA,NA,NA,"Left",NA,4,NA,NA,NA,NA,-1.67,"MDPRF03607"
"105",1727180094547,"24/09/2024 12:14:54",1727183694547,1,"24/09/2024 14:14:54",187387,9,"task-napx",NA,40225947,11744090,NA,"complete",NA,"66f2a595d3f19ce68f46b471","computer","Desktop or Laptop","Windows 10","Chrome 129.0.0.0","2560x1440","2560x1440",NA,NA,0,"Gambling_GBO",12,"In","IJHKGAFBECD",NA,"In","HM_OCT","seq3","Gamble_Rand_Seq3","Gamble_Rand_Seq3",23,"Rating","Screen 1","hx8b5a",1,"continue","",1995.00000000111,1993.69999999998,1995.00000000111,1995.00000000111,1993.69999999998,1995.00000000111,1,1995.00000000111,0,0,NA,"Click To Continue","Continue Button",3,"object-25","Rating","happy","unhappy","happy",8,"",NA,NA,NA,NA,NA,"Left",NA,4,NA,NA,NA,NA,-1.67,"MDPRF03607"
"106",1727180094547,"24/09/2024 12:14:54",1727183694547,1,"24/09/2024 14:14:54",187387,9,"task-napx",NA,40225947,11744090,NA,"complete",NA,"66f2a595d3f19ce68f46b471","computer","Desktop or Laptop","Windows 10","Chrome 129.0.0.0","2560x1440","2560x1440",NA,NA,0,"Gambling_GBO",12,"In","IJHKGAFBECD",NA,"In","HM_OCT","seq3","Gamble_Rand_Seq3","Gamble_Rand_Seq3",23,"Rating","Screen 1","hx8b5a",1,"response","96",1334.59999999998,1993.69999999998,1995.20000000036,1334.59999999998,1993.69999999998,1995.20000000036,1,1334.59999999998,660.600000000384,0,NA,"Slider","MoodSlider",2,"object-243","Rating","happy","unhappy","happy",8,"",NA,NA,NA,NA,NA,"Left",NA,4,NA,NA,NA,NA,-1.67,"MDPRF03607"
"107",1727180094550,"24/09/2024 12:14:54",1727183694550,1,"24/09/2024 14:14:54",187387,9,"task-napx",NA,40225947,11744090,NA,"complete",NA,"66f2a595d3f19ce68f46b471","computer","Desktop or Laptop","Windows 10","Chrome 129.0.0.0","2560x1440","2560x1440",NA,NA,0,"Gambling_GBO",12,"In","IJHKGAFBECD",NA,"In","HM_OCT","seq3","Gamble_Rand_Seq3","Gamble_Rand_Seq3",24,"Rating","Screen 1","hx8b5a",1,"info","",4.30000000112341,0,4.30000000112341,4.30000000112341,0,4.30000000112341,1,4.30000000112341,0,0,NA,"Slider","MoodSlider",2,"object-243","Rating","frustrated","not frustrated","frustrated",8,"",NA,NA,NA,NA,NA,"Left",NA,4,NA,NA,NA,NA,-1.67,"MDPRF03607"
"108",1727180096642,"24/09/2024 12:14:56",1727183696642,1,"24/09/2024 14:14:56",187387,9,"task-napx",NA,40225947,11744090,NA,"complete",NA,"66f2a595d3f19ce68f46b471","computer","Desktop or Laptop","Windows 10","Chrome 129.0.0.0","2560x1440","2560x1440",NA,NA,0,"Gambling_GBO",12,"In","IJHKGAFBECD",NA,"In","HM_OCT","seq3","Gamble_Rand_Seq3","Gamble_Rand_Seq3",24,"Rating","Screen 1","hx8b5a",1,"continue","",2095.90000000075,2093.70000000001,2095.90000000075,2095.90000000075,2093.70000000001,2095.90000000075,1,2095.90000000075,0,0,NA,"Click To Continue","Continue Button",3,"object-25","Rating","frustrated","not frustrated","frustrated",8,"",NA,NA,NA,NA,NA,"Left",NA,4,NA,NA,NA,NA,-1.67,"MDPRF03607"
"109",1727180096642,"24/09/2024 12:14:56",1727183696642,1,"24/09/2024 14:14:56",187387,9,"task-napx",NA,40225947,11744090,NA,"complete",NA,"66f2a595d3f19ce68f46b471","computer","Desktop or Laptop","Windows 10","Chrome 129.0.0.0","2560x1440","2560x1440",NA,NA,0,"Gambling_GBO",12,"In","IJHKGAFBECD",NA,"In","HM_OCT","seq3","Gamble_Rand_Seq3","Gamble_Rand_Seq3",24,"Rating","Screen 1","hx8b5a",1,"response","1",1026,2093.70000000001,2096.19999999963,1026,2093.70000000001,2096.19999999963,1,1026,1070.19999999963,0,NA,"Slider","MoodSlider",2,"object-243","Rating","frustrated","not frustrated","frustrated",8,"",NA,NA,NA,NA,NA,"Left",NA,4,NA,NA,NA,NA,-1.67,"MDPRF03607"
"110",1727180098625,"24/09/2024 12:14:58",1727183698625,1,"24/09/2024 14:14:58",187387,9,"task-napx",NA,40225947,11744090,NA,"complete",NA,"66f2a595d3f19ce68f46b471","computer","Desktop or Laptop","Windows 10","Chrome 129.0.0.0","2560x1440","2560x1440",NA,NA,0,"Gambling_GBO",12,"In","IJHKGAFBECD",NA,"In","HM_OCT","seq3","Gamble_Rand_Seq3","Gamble_Rand_Seq3",2,"lossT","Screen 1","2oxi65",1,"continue","",1985.39999999999,1985.39999999999,1985.39999999999,1985.39999999999,1985.39999999999,1985.39999999999,1,1985.39999999999,0,0,NA,"Fixation Timing","Fixation",1,"object-354","lossT","","","",NA,"Right",-3.67,-5,-1,8,NA,"Left",NA,4,NA,NA,NA,NA,-1.67,"MDPRF03607"
"111",1727180100892,"24/09/2024 12:15:00",1727183700892,1,"24/09/2024 14:15:00",187387,9,"task-napx",NA,40225947,11744090,NA,"complete",NA,"66f2a595d3f19ce68f46b471","computer","Desktop or Laptop","Windows 10","Chrome 129.0.0.0","2560x1440","2560x1440",NA,NA,0,"Gambling_GBO",12,"In","IJHKGAFBECD",NA,"In","HM_OCT","seq3","Gamble_Rand_Seq3","Gamble_Rand_Seq3",2,"lossT","choice","zjftf8",2,"response","Right",2266.90000000037,2260.60000000001,2266.90000000037,2266.90000000037,2260.60000000001,2266.90000000037,1,2266.90000000037,0,0,NA,"Keyboard Response","KeyResponseG",6,"object-352","lossT","","","",NA,"Right",-3.67,-5,-1,8,NA,"Right",NA,-1,NA,NA,NA,NA,-5,"MDPRF03607"
"112",1727180104889,"24/09/2024 12:15:04",1727183704889,1,"24/09/2024 14:15:04",187387,9,"task-napx",NA,40225947,11744090,NA,"complete",NA,"66f2a595d3f19ce68f46b471","computer","Desktop or Laptop","Windows 10","Chrome 129.0.0.0","2560x1440","2560x1440",NA,NA,0,"Gambling_GBO",12,"In","IJHKGAFBECD",NA,"In","HM_OCT","seq3","Gamble_Rand_Seq3","Gamble_Rand_Seq3",2,"lossT","gamble","h5bf9r",3,"timedOut","",4004.20000000074,4004.19999999998,4004.20000000074,4004.20000000074,4004.19999999998,4004.20000000074,1,4004.20000000074,0,0,NA,"Time Limit","screen",0,"screen","lossT","","","",NA,"Right",-3.67,-5,-1,8,NA,"Right",NA,-1,NA,NA,NA,NA,-5,"MDPRF03607"
"113",1727180105890,"24/09/2024 12:15:05",1727183705890,1,"24/09/2024 14:15:05",187387,9,"task-napx",NA,40225947,11744090,NA,"complete",NA,"66f2a595d3f19ce68f46b471","computer","Desktop or Laptop","Windows 10","Chrome 129.0.0.0","2560x1440","2560x1440",NA,NA,0,"Gambling_GBO",12,"In","IJHKGAFBECD",NA,"In","HM_OCT","seq3","Gamble_Rand_Seq3","Gamble_Rand_Seq3",2,"lossT","loss","kmnw8b",4,"timedOut","",1001.00000000076,1000.90000000002,1001.00000000076,1001.00000000076,1000.90000000002,1001.00000000076,1,1001.00000000076,0,0,NA,"Time Limit","screen",0,"screen","lossT","","","",NA,"Right",-3.67,-5,-1,8,NA,"Right",NA,-1,NA,NA,NA,NA,-5,"MDPRF03607"
"114",1727180105894,"24/09/2024 12:15:05",1727183705894,1,"24/09/2024 14:15:05",187387,9,"task-napx",NA,40225947,11744090,NA,"complete",NA,"66f2a595d3f19ce68f46b471","computer","Desktop or Laptop","Windows 10","Chrome 129.0.0.0","2560x1440","2560x1440",NA,NA,0,"Gambling_GBO",12,"In","IJHKGAFBECD",NA,"In","HM_OCT","seq3","Gamble_Rand_Seq3","Gamble_Rand_Seq3",25,"Rating","Screen 1","hx8b5a",1,"info","",3.79999999998836,0,3.79999999998836,3.79999999998836,0,3.79999999998836,1,3.79999999998836,0,0,NA,"Slider","MoodSlider",2,"object-243","Rating","frustrated","not frustrated","frustrated",9,"",NA,NA,NA,NA,NA,"Right",NA,-1,NA,NA,NA,NA,-5,"MDPRF03607"
"115",1727180110068,"24/09/2024 12:15:10",1727183710068,1,"24/09/2024 14:15:10",187387,9,"task-napx",NA,40225947,11744090,NA,"complete",NA,"66f2a595d3f19ce68f46b471","computer","Desktop or Laptop","Windows 10","Chrome 129.0.0.0","2560x1440","2560x1440",NA,NA,0,"Gambling_GBO",12,"In","IJHKGAFBECD",NA,"In","HM_OCT","seq3","Gamble_Rand_Seq3","Gamble_Rand_Seq3",25,"Rating","Screen 1","hx8b5a",1,"continue","",4178.39999999962,4170.89999999999,4178.39999999962,4178.39999999962,4170.89999999999,4178.39999999962,1,4178.39999999962,0,0,NA,"Click To Continue","Continue Button",3,"object-25","Rating","frustrated","not frustrated","frustrated",9,"",NA,NA,NA,NA,NA,"Right",NA,-1,NA,NA,NA,NA,-5,"MDPRF03607"
"116",1727180110069,"24/09/2024 12:15:10",1727183710069,1,"24/09/2024 14:15:10",187387,9,"task-napx",NA,40225947,11744090,NA,"complete",NA,"66f2a595d3f19ce68f46b471","computer","Desktop or Laptop","Windows 10","Chrome 129.0.0.0","2560x1440","2560x1440",NA,NA,0,"Gambling_GBO",12,"In","IJHKGAFBECD",NA,"In","HM_OCT","seq3","Gamble_Rand_Seq3","Gamble_Rand_Seq3",25,"Rating","Screen 1","hx8b5a",1,"response","60",3545.29999999999,4170.89999999999,4178.60000000073,3545.29999999999,4170.89999999999,4178.60000000073,1,3545.29999999999,633.300000000745,0,NA,"Slider","MoodSlider",2,"object-243","Rating","frustrated","not frustrated","frustrated",9,"",NA,NA,NA,NA,NA,"Right",NA,-1,NA,NA,NA,NA,-5,"MDPRF03607"
"117",1727180110071,"24/09/2024 12:15:10",1727183710071,1,"24/09/2024 14:15:10",187387,9,"task-napx",NA,40225947,11744090,NA,"complete",NA,"66f2a595d3f19ce68f46b471","computer","Desktop or Laptop","Windows 10","Chrome 129.0.0.0","2560x1440","2560x1440",NA,NA,0,"Gambling_GBO",12,"In","IJHKGAFBECD",NA,"In","HM_OCT","seq3","Gamble_Rand_Seq3","Gamble_Rand_Seq3",26,"Rating","Screen 1","hx8b5a",1,"info","",8.30000000001746,0,8.30000000001746,8.30000000001746,0,8.30000000001746,1,8.30000000001746,0,0,NA,"Slider","MoodSlider",2,"object-243","Rating","happy","unhappy","happy",9,"",NA,NA,NA,NA,NA,"Right",NA,-1,NA,NA,NA,NA,-5,"MDPRF03607"
"118",1727180112235,"24/09/2024 12:15:12",1727183712235,1,"24/09/2024 14:15:12",187387,9,"task-napx",NA,40225947,11744090,NA,"complete",NA,"66f2a595d3f19ce68f46b471","computer","Desktop or Laptop","Windows 10","Chrome 129.0.0.0","2560x1440","2560x1440",NA,NA,0,"Gambling_GBO",12,"In","IJHKGAFBECD",NA,"In","HM_OCT","seq3","Gamble_Rand_Seq3","Gamble_Rand_Seq3",26,"Rating","Screen 1","hx8b5a",1,"continue","",2173.70000000074,2169,2173.70000000074,2173.70000000074,2169,2173.70000000074,1,2173.70000000074,0,0,NA,"Click To Continue","Continue Button",3,"object-25","Rating","happy","unhappy","happy",9,"",NA,NA,NA,NA,NA,"Right",NA,-1,NA,NA,NA,NA,-5,"MDPRF03607"
"119",1727180112236,"24/09/2024 12:15:12",1727183712236,1,"24/09/2024 14:15:12",187387,9,"task-napx",NA,40225947,11744090,NA,"complete",NA,"66f2a595d3f19ce68f46b471","computer","Desktop or Laptop","Windows 10","Chrome 129.0.0.0","2560x1440","2560x1440",NA,NA,0,"Gambling_GBO",12,"In","IJHKGAFBECD",NA,"In","HM_OCT","seq3","Gamble_Rand_Seq3","Gamble_Rand_Seq3",26,"Rating","Screen 1","hx8b5a",1,"response","84",1619.89999999999,2169,2175.20000000074,1619.89999999999,2169,2175.20000000074,1,1619.89999999999,555.300000000745,0,NA,"Slider","MoodSlider",2,"object-243","Rating","happy","unhappy","happy",9,"",NA,NA,NA,NA,NA,"Right",NA,-1,NA,NA,NA,NA,-5,"MDPRF03607"
"120",1727180112239,"24/09/2024 12:15:12",1727183712239,1,"24/09/2024 14:15:12",187387,9,"task-napx",NA,40225947,11744090,NA,"complete",NA,"66f2a595d3f19ce68f46b471","computer","Desktop or Laptop","Windows 10","Chrome 129.0.0.0","2560x1440","2560x1440",NA,NA,0,"Gambling_GBO",12,"In","IJHKGAFBECD",NA,"In","HM_OCT","seq3","Gamble_Rand_Seq3","Gamble_Rand_Seq3",27,"Rating","Screen 1","hx8b5a",1,"info","",8.30000000001746,0,8.30000000001746,8.30000000001746,0,8.30000000001746,1,8.30000000001746,0,0,NA,"Slider","MoodSlider",2,"object-243","Rating","bored","not bored","bored",9,"",NA,NA,NA,NA,NA,"Right",NA,-1,NA,NA,NA,NA,-5,"MDPRF03607"
"121",1727180114971,"24/09/2024 12:15:14",1727183714971,1,"24/09/2024 14:15:14",187387,9,"task-napx",NA,40225947,11744090,NA,"complete",NA,"66f2a595d3f19ce68f46b471","computer","Desktop or Laptop","Windows 10","Chrome 129.0.0.0","2560x1440","2560x1440",NA,NA,0,"Gambling_GBO",12,"In","IJHKGAFBECD",NA,"In","HM_OCT","seq3","Gamble_Rand_Seq3","Gamble_Rand_Seq3",27,"Rating","Screen 1","hx8b5a",1,"continue","",2741.60000000111,2736.19999999998,2741.60000000111,2741.60000000111,2736.19999999998,2741.60000000111,1,2741.60000000111,0,0,NA,"Click To Continue","Continue Button",3,"object-25","Rating","bored","not bored","bored",9,"",NA,NA,NA,NA,NA,"Right",NA,-1,NA,NA,NA,NA,-5,"MDPRF03607"
"122",1727180114972,"24/09/2024 12:15:14",1727183714972,1,"24/09/2024 14:15:14",187387,9,"task-napx",NA,40225947,11744090,NA,"complete",NA,"66f2a595d3f19ce68f46b471","computer","Desktop or Laptop","Windows 10","Chrome 129.0.0.0","2560x1440","2560x1440",NA,NA,0,"Gambling_GBO",12,"In","IJHKGAFBECD",NA,"In","HM_OCT","seq3","Gamble_Rand_Seq3","Gamble_Rand_Seq3",27,"Rating","Screen 1","hx8b5a",1,"response","4",2143.79999999999,2736.19999999998,2741.80000000037,2143.79999999999,2736.19999999998,2741.80000000037,1,2143.79999999999,598.000000000378,0,NA,"Slider","MoodSlider",2,"object-243","Rating","bored","not bored","bored",9,"",NA,NA,NA,NA,NA,"Right",NA,-1,NA,NA,NA,NA,-5,"MDPRF03607"
"123",1727180116951,"24/09/2024 12:15:16",1727183716951,1,"24/09/2024 14:15:16",187387,9,"task-napx",NA,40225947,11744090,NA,"complete",NA,"66f2a595d3f19ce68f46b471","computer","Desktop or Laptop","Windows 10","Chrome 129.0.0.0","2560x1440","2560x1440",NA,NA,0,"Gambling_GBO",12,"In","IJHKGAFBECD",NA,"In","HM_OCT","seq3","Gamble_Rand_Seq3","Gamble_Rand_Seq3",4,"winB","Screen 1","pkkyi8",1,"continue","",1985.30000000002,1985.30000000002,1985.30000000002,1985.30000000002,1985.30000000002,1985.30000000002,1,1985.30000000002,0,0,NA,"Fixation Timing","Fixation",1,"object-246","winB","","","",NA,"Right",0.67,-1,4,9,NA,"Right",NA,-1,NA,NA,NA,NA,-5,"MDPRF03607"
"124",1727180119257,"24/09/2024 12:15:19",1727183719257,1,"24/09/2024 14:15:19",187387,9,"task-napx",NA,40225947,11744090,NA,"complete",NA,"66f2a595d3f19ce68f46b471","computer","Desktop or Laptop","Windows 10","Chrome 129.0.0.0","2560x1440","2560x1440",NA,NA,0,"Gambling_GBO",12,"In","IJHKGAFBECD",NA,"In","HM_OCT","seq3","Gamble_Rand_Seq3","Gamble_Rand_Seq3",4,"winB","choice","5lszbx",2,"response","Right",2305.80000000037,2302.29999999999,2305.80000000037,2305.80000000037,2302.29999999999,2305.80000000037,1,2305.80000000037,0,0,NA,"Keyboard Response","KeyResponseG",6,"object-256","winB","","","",NA,"Right",0.67,-1,4,9,NA,"Right",NA,3,NA,NA,NA,NA,4,"MDPRF03607"
"125",1727180123250,"24/09/2024 12:15:23",1727183723250,1,"24/09/2024 14:15:23",187387,9,"task-napx",NA,40225947,11744090,NA,"complete",NA,"66f2a595d3f19ce68f46b471","computer","Desktop or Laptop","Windows 10","Chrome 129.0.0.0","2560x1440","2560x1440",NA,NA,0,"Gambling_GBO",12,"In","IJHKGAFBECD",NA,"In","HM_OCT","seq3","Gamble_Rand_Seq3","Gamble_Rand_Seq3",4,"winB","gamble","17lgr3",3,"timedOut","",3995.90000000075,3995.80000000002,3995.90000000075,3995.90000000075,3995.80000000002,3995.90000000075,1,3995.90000000075,0,0,NA,"Time Limit","screen",0,"screen","winB","","","",NA,"Right",0.67,-1,4,9,NA,"Right",NA,3,NA,NA,NA,NA,4,"MDPRF03607"
"126",1727180124251,"24/09/2024 12:15:24",1727183724251,1,"24/09/2024 14:15:24",187387,9,"task-napx",NA,40225947,11744090,NA,"complete",NA,"66f2a595d3f19ce68f46b471","computer","Desktop or Laptop","Windows 10","Chrome 129.0.0.0","2560x1440","2560x1440",NA,NA,0,"Gambling_GBO",12,"In","IJHKGAFBECD",NA,"In","HM_OCT","seq3","Gamble_Rand_Seq3","Gamble_Rand_Seq3",4,"winB","win","dzz5jr",4,"timedOut","",1001.10000000073,1001.09999999998,1001.10000000073,1001.10000000073,1001.09999999998,1001.10000000073,1,1001.10000000073,0,0,NA,"Time Limit","screen",0,"screen","winB","","","",NA,"Right",0.67,-1,4,9,NA,"Right",NA,3,NA,NA,NA,NA,4,"MDPRF03607"
"127",1727180124254,"24/09/2024 12:15:24",1727183724254,1,"24/09/2024 14:15:24",187387,9,"task-napx",NA,40225947,11744090,NA,"complete",NA,"66f2a595d3f19ce68f46b471","computer","Desktop or Laptop","Windows 10","Chrome 129.0.0.0","2560x1440","2560x1440",NA,NA,0,"Gambling_GBO",12,"In","IJHKGAFBECD",NA,"In","HM_OCT","seq3","Gamble_Rand_Seq3","Gamble_Rand_Seq3",28,"Rating","Screen 1","hx8b5a",1,"info","",3.5000000007567,0,3.5000000007567,3.5000000007567,0,3.5000000007567,1,3.5000000007567,0,0,NA,"Slider","MoodSlider",2,"object-243","Rating","happy","unhappy","happy",10,"",NA,NA,NA,NA,NA,"Right",NA,3,NA,NA,NA,NA,4,"MDPRF03607"
"128",1727180126918,"24/09/2024 12:15:26",1727183726918,1,"24/09/2024 14:15:26",187387,9,"task-napx",NA,40225947,11744090,NA,"complete",NA,"66f2a595d3f19ce68f46b471","computer","Desktop or Laptop","Windows 10","Chrome 129.0.0.0","2560x1440","2560x1440",NA,NA,0,"Gambling_GBO",12,"In","IJHKGAFBECD",NA,"In","HM_OCT","seq3","Gamble_Rand_Seq3","Gamble_Rand_Seq3",28,"Rating","Screen 1","hx8b5a",1,"continue","",2667.70000000001,2661,2667.70000000001,2667.70000000001,2661,2667.70000000001,1,2667.70000000001,0,0,NA,"Click To Continue","Continue Button",3,"object-25","Rating","happy","unhappy","happy",10,"",NA,NA,NA,NA,NA,"Right",NA,3,NA,NA,NA,NA,4,"MDPRF03607"
"129",1727180126919,"24/09/2024 12:15:26",1727183726919,1,"24/09/2024 14:15:26",187387,9,"task-napx",NA,40225947,11744090,NA,"complete",NA,"66f2a595d3f19ce68f46b471","computer","Desktop or Laptop","Windows 10","Chrome 129.0.0.0","2560x1440","2560x1440",NA,NA,0,"Gambling_GBO",12,"In","IJHKGAFBECD",NA,"In","HM_OCT","seq3","Gamble_Rand_Seq3","Gamble_Rand_Seq3",28,"Rating","Screen 1","hx8b5a",1,"response","100",2068.70000000001,2661,2667.90000000113,2068.70000000001,2661,2667.90000000113,1,2068.70000000001,599.200000001118,0,NA,"Slider","MoodSlider",2,"object-243","Rating","happy","unhappy","happy",10,"",NA,NA,NA,NA,NA,"Right",NA,3,NA,NA,NA,NA,4,"MDPRF03607"
"130",1727180126921,"24/09/2024 12:15:26",1727183726921,1,"24/09/2024 14:15:26",187387,9,"task-napx",NA,40225947,11744090,NA,"complete",NA,"66f2a595d3f19ce68f46b471","computer","Desktop or Laptop","Windows 10","Chrome 129.0.0.0","2560x1440","2560x1440",NA,NA,0,"Gambling_GBO",12,"In","IJHKGAFBECD",NA,"In","HM_OCT","seq3","Gamble_Rand_Seq3","Gamble_Rand_Seq3",29,"Rating","Screen 1","hx8b5a",1,"info","",8.39999999999418,0,8.39999999999418,8.39999999999418,0,8.39999999999418,1,8.39999999999418,0,0,NA,"Slider","MoodSlider",2,"object-243","Rating","frustrated","not frustrated","frustrated",10,"",NA,NA,NA,NA,NA,"Right",NA,3,NA,NA,NA,NA,4,"MDPRF03607"
"131",1727180129059,"24/09/2024 12:15:29",1727183729059,1,"24/09/2024 14:15:29",187387,9,"task-napx",NA,40225947,11744090,NA,"complete",NA,"66f2a595d3f19ce68f46b471","computer","Desktop or Laptop","Windows 10","Chrome 129.0.0.0","2560x1440","2560x1440",NA,NA,0,"Gambling_GBO",12,"In","IJHKGAFBECD",NA,"In","HM_OCT","seq3","Gamble_Rand_Seq3","Gamble_Rand_Seq3",29,"Rating","Screen 1","hx8b5a",1,"continue","",2147.70000000001,2143.80000000002,2147.70000000001,2147.70000000001,2143.80000000002,2147.70000000001,1,2147.70000000001,0,0,NA,"Click To Continue","Continue Button",3,"object-25","Rating","frustrated","not frustrated","frustrated",10,"",NA,NA,NA,NA,NA,"Right",NA,3,NA,NA,NA,NA,4,"MDPRF03607"
"132",1727180129060,"24/09/2024 12:15:29",1727183729060,1,"24/09/2024 14:15:29",187387,9,"task-napx",NA,40225947,11744090,NA,"complete",NA,"66f2a595d3f19ce68f46b471","computer","Desktop or Laptop","Windows 10","Chrome 129.0.0.0","2560x1440","2560x1440",NA,NA,0,"Gambling_GBO",12,"In","IJHKGAFBECD",NA,"In","HM_OCT","seq3","Gamble_Rand_Seq3","Gamble_Rand_Seq3",29,"Rating","Screen 1","hx8b5a",1,"response","3",1468.10000000001,2143.80000000002,2147.90000000113,1468.10000000001,2143.80000000002,2147.90000000113,1,1468.10000000001,679.800000001123,0,NA,"Slider","MoodSlider",2,"object-243","Rating","frustrated","not frustrated","frustrated",10,"",NA,NA,NA,NA,NA,"Right",NA,3,NA,NA,NA,NA,4,"MDPRF03607"
"133",1727180129062,"24/09/2024 12:15:29",1727183729062,1,"24/09/2024 14:15:29",187387,9,"task-napx",NA,40225947,11744090,NA,"complete",NA,"66f2a595d3f19ce68f46b471","computer","Desktop or Laptop","Windows 10","Chrome 129.0.0.0","2560x1440","2560x1440",NA,NA,0,"Gambling_GBO",12,"In","IJHKGAFBECD",NA,"In","HM_OCT","seq3","Gamble_Rand_Seq3","Gamble_Rand_Seq3",30,"Rating","Screen 1","hx8b5a",1,"info","",6.89999999999418,0,6.89999999999418,6.89999999999418,0,6.89999999999418,1,6.89999999999418,0,0,NA,"Slider","MoodSlider",2,"object-243","Rating","bored","not bored","bored",10,"",NA,NA,NA,NA,NA,"Right",NA,3,NA,NA,NA,NA,4,"MDPRF03607"
"134",1727180131136,"24/09/2024 12:15:31",1727183731136,1,"24/09/2024 14:15:31",187387,9,"task-napx",NA,40225947,11744090,NA,"complete",NA,"66f2a595d3f19ce68f46b471","computer","Desktop or Laptop","Windows 10","Chrome 129.0.0.0","2560x1440","2560x1440",NA,NA,0,"Gambling_GBO",12,"In","IJHKGAFBECD",NA,"In","HM_OCT","seq3","Gamble_Rand_Seq3","Gamble_Rand_Seq3",30,"Rating","Screen 1","hx8b5a",1,"continue","",2079.99999999962,2077.19999999998,2079.99999999962,2079.99999999962,2077.19999999998,2079.99999999962,1,2079.99999999962,0,0,NA,"Click To Continue","Continue Button",3,"object-25","Rating","bored","not bored","bored",10,"",NA,NA,NA,NA,NA,"Right",NA,3,NA,NA,NA,NA,4,"MDPRF03607"
"135",1727180131136,"24/09/2024 12:15:31",1727183731136,1,"24/09/2024 14:15:31",187387,9,"task-napx",NA,40225947,11744090,NA,"complete",NA,"66f2a595d3f19ce68f46b471","computer","Desktop or Laptop","Windows 10","Chrome 129.0.0.0","2560x1440","2560x1440",NA,NA,0,"Gambling_GBO",12,"In","IJHKGAFBECD",NA,"In","HM_OCT","seq3","Gamble_Rand_Seq3","Gamble_Rand_Seq3",30,"Rating","Screen 1","hx8b5a",1,"response","1",1476.60000000001,2077.19999999998,2080.39999999999,1476.60000000001,2077.19999999998,2080.39999999999,1,1476.60000000001,603.799999999988,0,NA,"Slider","MoodSlider",2,"object-243","Rating","bored","not bored","bored",10,"",NA,NA,NA,NA,NA,"Right",NA,3,NA,NA,NA,NA,4,"MDPRF03607"
"136",1727180133118,"24/09/2024 12:15:33",1727183733118,1,"24/09/2024 14:15:33",187387,9,"task-napx",NA,40225947,11744090,NA,"complete",NA,"66f2a595d3f19ce68f46b471","computer","Desktop or Laptop","Windows 10","Chrome 129.0.0.0","2560x1440","2560x1440",NA,NA,0,"Gambling_GBO",12,"In","IJHKGAFBECD",NA,"In","HM_OCT","seq3","Gamble_Rand_Seq3","Gamble_Rand_Seq3",2,"winT","Screen 1","np5pnj",1,"continue","",1985.30000000002,1985.30000000002,1985.30000000002,1985.30000000002,1985.30000000002,1985.30000000002,1,1985.30000000002,0,0,NA,"Fixation Timing","Fixation",1,"object-304","winT","","","",NA,"Right",0.33,-1,3,10,NA,"Right",NA,3,NA,NA,NA,NA,4,"MDPRF03607"
"137",1727180135814,"24/09/2024 12:15:35",1727183735814,1,"24/09/2024 14:15:35",187387,9,"task-napx",NA,40225947,11744090,NA,"complete",NA,"66f2a595d3f19ce68f46b471","computer","Desktop or Laptop","Windows 10","Chrome 129.0.0.0","2560x1440","2560x1440",NA,NA,0,"Gambling_GBO",12,"In","IJHKGAFBECD",NA,"In","HM_OCT","seq3","Gamble_Rand_Seq3","Gamble_Rand_Seq3",2,"winT","choice","gu8zgx",2,"response","Right",2695.39999999999,2694.69999999998,2695.39999999999,2695.39999999999,2694.69999999998,2695.39999999999,1,2695.39999999999,0,0,NA,"Keyboard Response","KeyResponseG",6,"object-326","winT","","","",NA,"Right",0.33,-1,3,10,NA,"Right",NA,6,NA,NA,NA,NA,3,"MDPRF03607"
"138",1727180139817,"24/09/2024 12:15:39",1727183739817,1,"24/09/2024 14:15:39",187387,9,"task-napx",NA,40225947,11744090,NA,"complete",NA,"66f2a595d3f19ce68f46b471","computer","Desktop or Laptop","Windows 10","Chrome 129.0.0.0","2560x1440","2560x1440",NA,NA,0,"Gambling_GBO",12,"In","IJHKGAFBECD",NA,"In","HM_OCT","seq3","Gamble_Rand_Seq3","Gamble_Rand_Seq3",2,"winT","gamble","1lb69u",3,"timedOut","",4003.80000000002,4003.80000000002,4003.80000000002,4003.80000000002,4003.80000000002,4003.80000000002,1,4003.80000000002,0,0,NA,"Time Limit","screen",0,"screen","winT","","","",NA,"Right",0.33,-1,3,10,NA,"Right",NA,6,NA,NA,NA,NA,3,"MDPRF03607"
"139",1727180140818,"24/09/2024 12:15:40",1727183740818,1,"24/09/2024 14:15:40",187387,9,"task-napx",NA,40225947,11744090,NA,"complete",NA,"66f2a595d3f19ce68f46b471","computer","Desktop or Laptop","Windows 10","Chrome 129.0.0.0","2560x1440","2560x1440",NA,NA,0,"Gambling_GBO",12,"In","IJHKGAFBECD",NA,"In","HM_OCT","seq3","Gamble_Rand_Seq3","Gamble_Rand_Seq3",2,"winT","win","dhtsbv",4,"timedOut","",1001.10000000111,1001,1001.10000000111,1001.10000000111,1001,1001.10000000111,1,1001.10000000111,0,0,NA,"Time Limit","screen",0,"screen","winT","","","",NA,"Right",0.33,-1,3,10,NA,"Right",NA,6,NA,NA,NA,NA,3,"MDPRF03607"
"140",1727180140821,"24/09/2024 12:15:40",1727183740821,1,"24/09/2024 14:15:40",187387,9,"task-napx",NA,40225947,11744090,NA,"complete",NA,"66f2a595d3f19ce68f46b471","computer","Desktop or Laptop","Windows 10","Chrome 129.0.0.0","2560x1440","2560x1440",NA,NA,0,"Gambling_GBO",12,"In","IJHKGAFBECD",NA,"In","HM_OCT","seq3","Gamble_Rand_Seq3","Gamble_Rand_Seq3",31,"Rating","Screen 1","hx8b5a",1,"info","",3.60000000111177,0,3.60000000111177,3.60000000111177,0,3.60000000111177,1,3.60000000111177,0,0,NA,"Slider","MoodSlider",2,"object-243","Rating","frustrated","not frustrated","frustrated",11,"",NA,NA,NA,NA,NA,"Right",NA,6,NA,NA,NA,NA,3,"MDPRF03607"
"141",1727180143432,"24/09/2024 12:15:43",1727183743432,1,"24/09/2024 14:15:43",187387,9,"task-napx",NA,40225947,11744090,NA,"complete",NA,"66f2a595d3f19ce68f46b471","computer","Desktop or Laptop","Windows 10","Chrome 129.0.0.0","2560x1440","2560x1440",NA,NA,0,"Gambling_GBO",12,"In","IJHKGAFBECD",NA,"In","HM_OCT","seq3","Gamble_Rand_Seq3","Gamble_Rand_Seq3",31,"Rating","Screen 1","hx8b5a",1,"continue","",2614.10000000111,2611,2614.10000000111,2614.10000000111,2611,2614.10000000111,1,2614.10000000111,0,0,NA,"Click To Continue","Continue Button",3,"object-25","Rating","frustrated","not frustrated","frustrated",11,"",NA,NA,NA,NA,NA,"Right",NA,6,NA,NA,NA,NA,3,"MDPRF03607"
"142",1727180143432,"24/09/2024 12:15:43",1727183743432,1,"24/09/2024 14:15:43",187387,9,"task-napx",NA,40225947,11744090,NA,"complete",NA,"66f2a595d3f19ce68f46b471","computer","Desktop or Laptop","Windows 10","Chrome 129.0.0.0","2560x1440","2560x1440",NA,NA,0,"Gambling_GBO",12,"In","IJHKGAFBECD",NA,"In","HM_OCT","seq3","Gamble_Rand_Seq3","Gamble_Rand_Seq3",31,"Rating","Screen 1","hx8b5a",1,"response","2",2018.69999999998,2611,2614.30000000037,2018.69999999998,2611,2614.30000000037,1,2018.69999999998,595.600000000384,0,NA,"Slider","MoodSlider",2,"object-243","Rating","frustrated","not frustrated","frustrated",11,"",NA,NA,NA,NA,NA,"Right",NA,6,NA,NA,NA,NA,3,"MDPRF03607"
"143",1727180143434,"24/09/2024 12:15:43",1727183743434,1,"24/09/2024 14:15:43",187387,9,"task-napx",NA,40225947,11744090,NA,"complete",NA,"66f2a595d3f19ce68f46b471","computer","Desktop or Laptop","Windows 10","Chrome 129.0.0.0","2560x1440","2560x1440",NA,NA,0,"Gambling_GBO",12,"In","IJHKGAFBECD",NA,"In","HM_OCT","seq3","Gamble_Rand_Seq3","Gamble_Rand_Seq3",32,"Rating","Screen 1","hx8b5a",1,"info","",6.10000000111177,0,6.10000000111177,6.10000000111177,0,6.10000000111177,1,6.10000000111177,0,0,NA,"Slider","MoodSlider",2,"object-243","Rating","bored","not bored","bored",11,"",NA,NA,NA,NA,NA,"Right",NA,6,NA,NA,NA,NA,3,"MDPRF03607"
"144",1727180144695,"24/09/2024 12:15:44",1727183744695,1,"24/09/2024 14:15:44",187387,9,"task-napx",NA,40225947,11744090,NA,"complete",NA,"66f2a595d3f19ce68f46b471","computer","Desktop or Laptop","Windows 10","Chrome 129.0.0.0","2560x1440","2560x1440",NA,NA,0,"Gambling_GBO",12,"In","IJHKGAFBECD",NA,"In","HM_OCT","seq3","Gamble_Rand_Seq3","Gamble_Rand_Seq3",32,"Rating","Screen 1","hx8b5a",1,"continue","",1266.20000000074,1259.69999999998,1266.20000000074,1266.20000000074,1259.69999999998,1266.20000000074,1,1266.20000000074,0,0,NA,"Click To Continue","Continue Button",3,"object-25","Rating","bored","not bored","bored",11,"",NA,NA,NA,NA,NA,"Right",NA,6,NA,NA,NA,NA,3,"MDPRF03607"
"145",1727180144695,"24/09/2024 12:15:44",1727183744695,1,"24/09/2024 14:15:44",187387,9,"task-napx",NA,40225947,11744090,NA,"complete",NA,"66f2a595d3f19ce68f46b471","computer","Desktop or Laptop","Windows 10","Chrome 129.0.0.0","2560x1440","2560x1440",NA,NA,0,"Gambling_GBO",12,"In","IJHKGAFBECD",NA,"In","HM_OCT","seq3","Gamble_Rand_Seq3","Gamble_Rand_Seq3",32,"Rating","Screen 1","hx8b5a",1,"response","2",725.799999999988,1259.69999999998,1266.49999999962,725.799999999988,1259.69999999998,1266.49999999962,1,725.799999999988,540.699999999633,0,NA,"Slider","MoodSlider",2,"object-243","Rating","bored","not bored","bored",11,"",NA,NA,NA,NA,NA,"Right",NA,6,NA,NA,NA,NA,3,"MDPRF03607"
"146",1727180144697,"24/09/2024 12:15:44",1727183744697,1,"24/09/2024 14:15:44",187387,9,"task-napx",NA,40225947,11744090,NA,"complete",NA,"66f2a595d3f19ce68f46b471","computer","Desktop or Laptop","Windows 10","Chrome 129.0.0.0","2560x1440","2560x1440",NA,NA,0,"Gambling_GBO",12,"In","IJHKGAFBECD",NA,"In","HM_OCT","seq3","Gamble_Rand_Seq3","Gamble_Rand_Seq3",33,"Rating","Screen 1","hx8b5a",1,"info","",8.39999999999418,0,8.39999999999418,8.39999999999418,0,8.39999999999418,1,8.39999999999418,0,0,NA,"Slider","MoodSlider",2,"object-243","Rating","happy","unhappy","happy",11,"",NA,NA,NA,NA,NA,"Right",NA,6,NA,NA,NA,NA,3,"MDPRF03607"
"147",1727180146181,"24/09/2024 12:15:46",1727183746181,1,"24/09/2024 14:15:46",187387,9,"task-napx",NA,40225947,11744090,NA,"complete",NA,"66f2a595d3f19ce68f46b471","computer","Desktop or Laptop","Windows 10","Chrome 129.0.0.0","2560x1440","2560x1440",NA,NA,0,"Gambling_GBO",12,"In","IJHKGAFBECD",NA,"In","HM_OCT","seq3","Gamble_Rand_Seq3","Gamble_Rand_Seq3",33,"Rating","Screen 1","hx8b5a",1,"continue","",1492.79999999964,1484.80000000002,1492.79999999964,1492.79999999964,1484.80000000002,1492.79999999964,1,1492.79999999964,0,0,NA,"Click To Continue","Continue Button",3,"object-25","Rating","happy","unhappy","happy",11,"",NA,NA,NA,NA,NA,"Right",NA,6,NA,NA,NA,NA,3,"MDPRF03607"
"148",1727180146182,"24/09/2024 12:15:46",1727183746182,1,"24/09/2024 14:15:46",187387,9,"task-napx",NA,40225947,11744090,NA,"complete",NA,"66f2a595d3f19ce68f46b471","computer","Desktop or Laptop","Windows 10","Chrome 129.0.0.0","2560x1440","2560x1440",NA,NA,0,"Gambling_GBO",12,"In","IJHKGAFBECD",NA,"In","HM_OCT","seq3","Gamble_Rand_Seq3","Gamble_Rand_Seq3",33,"Rating","Screen 1","hx8b5a",1,"response","99",925.900000000023,1484.80000000002,1493.20000000001,925.900000000023,1484.80000000002,1493.20000000001,1,925.900000000023,567.299999999988,0,NA,"Slider","MoodSlider",2,"object-243","Rating","happy","unhappy","happy",11,"",NA,NA,NA,NA,NA,"Right",NA,6,NA,NA,NA,NA,3,"MDPRF03607"
"149",1727180148158,"24/09/2024 12:15:48",1727183748158,1,"24/09/2024 14:15:48",187387,9,"task-napx",NA,40225947,11744090,NA,"complete",NA,"66f2a595d3f19ce68f46b471","computer","Desktop or Laptop","Windows 10","Chrome 129.0.0.0","2560x1440","2560x1440",NA,NA,0,"Gambling_GBO",12,"In","IJHKGAFBECD",NA,"In","HM_OCT","seq3","Gamble_Rand_Seq3","Gamble_Rand_Seq3",5,"winB","Screen 1","pkkyi8",1,"continue","",1985.39999999999,1985.39999999999,1985.39999999999,1985.39999999999,1985.39999999999,1985.39999999999,1,1985.39999999999,0,0,NA,"Fixation Timing","Fixation",1,"object-246","winB","","","",NA,"Right",1.67,0,5,11,NA,"Right",NA,6,NA,NA,NA,NA,3,"MDPRF03607"
"150",1727180150463,"24/09/2024 12:15:50",1727183750463,1,"24/09/2024 14:15:50",187387,9,"task-napx",NA,40225947,11744090,NA,"complete",NA,"66f2a595d3f19ce68f46b471","computer","Desktop or Laptop","Windows 10","Chrome 129.0.0.0","2560x1440","2560x1440",NA,NA,0,"Gambling_GBO",12,"In","IJHKGAFBECD",NA,"In","HM_OCT","seq3","Gamble_Rand_Seq3","Gamble_Rand_Seq3",5,"winB","choice","5lszbx",2,"response","Right",2305,2302.29999999999,2305,2305,2302.29999999999,2305,1,2305,0,0,NA,"Keyboard Response","KeyResponseG",6,"object-256","winB","","","",NA,"Right",1.67,0,5,11,NA,"Right",NA,11,NA,NA,NA,NA,5,"MDPRF03607"
"151",1727180154456,"24/09/2024 12:15:54",1727183754456,1,"24/09/2024 14:15:54",187387,9,"task-napx",NA,40225947,11744090,NA,"complete",NA,"66f2a595d3f19ce68f46b471","computer","Desktop or Laptop","Windows 10","Chrome 129.0.0.0","2560x1440","2560x1440",NA,NA,0,"Gambling_GBO",12,"In","IJHKGAFBECD",NA,"In","HM_OCT","seq3","Gamble_Rand_Seq3","Gamble_Rand_Seq3",5,"winB","gamble","17lgr3",3,"timedOut","",3995.90000000113,3995.80000000002,3995.90000000113,3995.90000000113,3995.80000000002,3995.90000000113,1,3995.90000000113,0,0,NA,"Time Limit","screen",0,"screen","winB","","","",NA,"Right",1.67,0,5,11,NA,"Right",NA,11,NA,NA,NA,NA,5,"MDPRF03607"
"152",1727180155458,"24/09/2024 12:15:55",1727183755458,1,"24/09/2024 14:15:55",187387,9,"task-napx",NA,40225947,11744090,NA,"complete",NA,"66f2a595d3f19ce68f46b471","computer","Desktop or Laptop","Windows 10","Chrome 129.0.0.0","2560x1440","2560x1440",NA,NA,0,"Gambling_GBO",12,"In","IJHKGAFBECD",NA,"In","HM_OCT","seq3","Gamble_Rand_Seq3","Gamble_Rand_Seq3",5,"winB","win","dzz5jr",4,"timedOut","",1001.10000000111,1000.89999999999,1001.10000000111,1001.10000000111,1000.89999999999,1001.10000000111,1,1001.10000000111,0,0,NA,"Time Limit","screen",0,"screen","winB","","","",NA,"Right",1.67,0,5,11,NA,"Right",NA,11,NA,NA,NA,NA,5,"MDPRF03607"
