"Event.Index","UTC.Timestamp","UTC.Date.and.Time","Local.Timestamp","Local.Timezone","Local.Date.and.Time","Experiment.ID","Experiment.Version","Tree.Node.Key","Repeat.Key","Schedule.ID","Participant.Private.ID","Participant.Starting.Group","Participant.Status","Participant.Completion.Code","Participant.External.Session.ID","Participant.Device.Type","Participant.Device","Participant.OS","Participant.Browser","Participant.Monitor.Size","Participant.Viewport.Size","Checkpoint","Room.ID","Room.Order","Task.Name","Task.Version","branch.hkzp","order.ot79","branch.mcuq","branch.4fv7","randomiser.k5rb","randomiser.rz7w","Spreadsheet","Current.Spreadsheet","Trial.Number","Display","Screen","Screen.ID","Screen.Counter","Response.Type","Response","Onset.Time","Clock.Time","Reaction.Time","Absolute.Onset.Time","Absolute.Clock.Time","Absolute.Reaction.Time","Correct","Response.Onset","Response.Duration","Proportion","Tag","Component.Name","Object.Name","Object.Number","Object.ID","Spreadsheet..display","Spreadsheet..Emo","Spreadsheet..LHS_Lab","Spreadsheet..RHS_Lab","Spreadsheet..rand_M","Spreadsheet..Answer","Spreadsheet..C_points","Spreadsheet..L_points","Spreadsheet..W_points","Spreadsheet..rand_G","Manipulation..Spreadsheet","Store..Choice","Store..total","Store..total_score","Store..pounds","Store..total_money","Store..partA","Store..MoneyReward","Store..pointsPR","Random_ID"
"1",1727179781513,"24/09/2024 12:09:41",1727183381513,1,"24/09/2024 14:09:41",187387,9,"task-nkoa",NA,40225832,11744067,NA,"complete",NA,"66f2a50985781d46121ce43d","computer","Desktop or Laptop","Mac OS 10.15.7","Chrome 128.0.0.0","1440x900","1440x812",NA,NA,0,"Gambling_GBO",12,"In","GHFIEJDKCAB",NA,"In","MH_OCT","seq5","Gamble_Rand_Seq5","Gamble_Rand_Seq5",NA,"","","",NA,"info","START SUBSYSTEM base.component.fullscreenSubsystem",NA,NA,NA,NA,NA,NA,0,NA,NA,NA,NA,"","",NA,"","","","","",NA,"",NA,NA,NA,NA,NA,"",NA,NA,NA,NA,NA,NA,NA,"MDPRF01388"
"2",1727179781515,"24/09/2024 12:09:41",1727183381515,1,"24/09/2024 14:09:41",187387,9,"task-nkoa",NA,40225832,11744067,NA,"complete",NA,"66f2a50985781d46121ce43d","computer","Desktop or Laptop","Mac OS 10.15.7","Chrome 128.0.0.0","1440x900","1440x812",NA,NA,0,"Gambling_GBO",12,"In","GHFIEJDKCAB",NA,"In","MH_OCT","seq5","Gamble_Rand_Seq5","Gamble_Rand_Seq5",NA,"","","",NA,"info","SUBSYSTEM READY base.component.fullscreenSubsystem",NA,NA,NA,NA,NA,NA,0,NA,NA,NA,NA,"","",NA,"","","","","",NA,"",NA,NA,NA,NA,NA,"",NA,NA,NA,NA,NA,NA,NA,"MDPRF01388"
"3",1727179781540,"24/09/2024 12:09:41",1727183381540,1,"24/09/2024 14:09:41",187387,9,"task-nkoa",NA,40225832,11744067,NA,"complete",NA,"66f2a50985781d46121ce43d","computer","Desktop or Laptop","Mac OS 10.15.7","Chrome 128.0.0.0","1440x900","1440x812",NA,NA,0,"Gambling_GBO",12,"In","GHFIEJDKCAB",NA,"In","MH_OCT","seq5","Gamble_Rand_Seq5","Gamble_Rand_Seq5",NA,"","","",NA,"info","BEGIN",NA,NA,NA,NA,NA,NA,0,NA,NA,NA,NA,"","",NA,"","","","","",NA,"",NA,NA,NA,NA,NA,"",NA,NA,NA,NA,NA,NA,NA,"MDPRF01388"
"4",1727179784394,"24/09/2024 12:09:44",1727183384394,1,"24/09/2024 14:09:44",187387,9,"task-nkoa",NA,40225832,11744067,NA,"complete",NA,"66f2a50985781d46121ce43d","computer","Desktop or Laptop","Mac OS 10.15.7","Chrome 128.0.0.0","1440x900","1440x812",NA,NA,0,"Gambling_GBO",12,"In","GHFIEJDKCAB",NA,"In","MH_OCT","seq5","Gamble_Rand_Seq5","Gamble_Rand_Seq5",1,"Intro","Screen 1","u1aumm",1,"continue","",2894.99999999851,2882.8,2894.99999999851,2894.99999999851,2882.8,2894.99999999851,1,2894.99999999851,0,0,NA,"Click To Continue","Continue Button",2,"object-37171","Intro","","","",NA,"",NA,NA,NA,NA,NA,"",NA,NA,NA,NA,NA,NA,NA,"MDPRF01388"
"5",1727179790664,"24/09/2024 12:09:50",1727183390664,1,"24/09/2024 14:09:50",187387,9,"task-nkoa",NA,40225832,11744067,NA,"complete",NA,"66f2a50985781d46121ce43d","computer","Desktop or Laptop","Mac OS 10.15.7","Chrome 128.0.0.0","1440x900","1440x812",NA,NA,0,"Gambling_GBO",12,"In","GHFIEJDKCAB",NA,"In","MH_OCT","seq5","Gamble_Rand_Seq5","Gamble_Rand_Seq5",1,"Instructions","Screen 1","rfymdc",1,"continue","",6282.69999999851,6267.5,6282.69999999851,6282.69999999851,6267.5,6282.69999999851,1,6282.69999999851,0,0,NA,"Click To Continue","Continue Button",2,"object-3","Instructions","","","",NA,"",NA,NA,NA,NA,NA,"",NA,NA,NA,NA,NA,NA,NA,"MDPRF01388"
"6",1727179800035,"24/09/2024 12:10:00",1727183400035,1,"24/09/2024 14:10:00",187387,9,"task-nkoa",NA,40225832,11744067,NA,"complete",NA,"66f2a50985781d46121ce43d","computer","Desktop or Laptop","Mac OS 10.15.7","Chrome 128.0.0.0","1440x900","1440x812",NA,NA,0,"Gambling_GBO",12,"In","GHFIEJDKCAB",NA,"In","MH_OCT","seq5","Gamble_Rand_Seq5","Gamble_Rand_Seq5",1,"Instructions","Screen 2","x2kpu8",2,"continue","",9385.49999999925,9382.4,9385.49999999925,9385.49999999925,9382.4,9385.49999999925,1,9385.49999999925,0,0,NA,"Click To Continue","Continue Button",2,"object-22021","Instructions","","","",NA,"",NA,NA,NA,NA,NA,"",NA,NA,NA,NA,NA,NA,NA,"MDPRF01388"
"7",1727179803461,"24/09/2024 12:10:03",1727183403461,1,"24/09/2024 14:10:03",187387,9,"task-nkoa",NA,40225832,11744067,NA,"complete",NA,"66f2a50985781d46121ce43d","computer","Desktop or Laptop","Mac OS 10.15.7","Chrome 128.0.0.0","1440x900","1440x812",NA,NA,0,"Gambling_GBO",12,"In","GHFIEJDKCAB",NA,"In","MH_OCT","seq5","Gamble_Rand_Seq5","Gamble_Rand_Seq5",1,"Instructions","Screen 3","o6zm7t",3,"continue","",3428.9,3416.5,3428.9,3428.9,3416.5,3428.9,1,3428.9,0,0,NA,"Click To Continue","Continue Button",2,"object-225","Instructions","","","",NA,"",NA,NA,NA,NA,NA,"",NA,NA,NA,NA,NA,NA,NA,"MDPRF01388"
"8",1727179805290,"24/09/2024 12:10:05",1727183405290,1,"24/09/2024 14:10:05",187387,9,"task-nkoa",NA,40225832,11744067,NA,"complete",NA,"66f2a50985781d46121ce43d","computer","Desktop or Laptop","Mac OS 10.15.7","Chrome 128.0.0.0","1440x900","1440x812",NA,NA,0,"Gambling_GBO",12,"In","GHFIEJDKCAB",NA,"In","MH_OCT","seq5","Gamble_Rand_Seq5","Gamble_Rand_Seq5",1,"Instructions","Screen 4","3hq7c2",4,"continue","",1841.99999999777,1834,1841.99999999777,1841.99999999777,1834,1841.99999999777,1,1841.99999999777,0,0,NA,"Click To Continue","Continue Button",4,"object-380","Instructions","","","",NA,"",NA,NA,NA,NA,NA,"",NA,NA,NA,NA,NA,NA,NA,"MDPRF01388"
"9",1727179807621,"24/09/2024 12:10:07",1727183407621,1,"24/09/2024 14:10:07",187387,9,"task-nkoa",NA,40225832,11744067,NA,"complete",NA,"66f2a50985781d46121ce43d","computer","Desktop or Laptop","Mac OS 10.15.7","Chrome 128.0.0.0","1440x900","1440x812",NA,NA,0,"Gambling_GBO",12,"In","GHFIEJDKCAB",NA,"In","MH_OCT","seq5","Gamble_Rand_Seq5","Gamble_Rand_Seq5",1,"Instructions","Screen 5","5jisqh",5,"continue","",2338.69999999702,2332.6,2338.69999999702,2338.69999999702,2332.6,2338.69999999702,1,2338.69999999702,0,0,NA,"Click To Continue","Continue Button",2,"object-233","Instructions","","","",NA,"",NA,NA,NA,NA,NA,"",NA,NA,NA,NA,NA,NA,NA,"MDPRF01388"
"10",1727179808530,"24/09/2024 12:10:08",1727183408530,1,"24/09/2024 14:10:08",187387,9,"task-nkoa",NA,40225832,11744067,NA,"complete",NA,"66f2a50985781d46121ce43d","computer","Desktop or Laptop","Mac OS 10.15.7","Chrome 128.0.0.0","1440x900","1440x812",NA,NA,0,"Gambling_GBO",12,"In","GHFIEJDKCAB",NA,"In","MH_OCT","seq5","Gamble_Rand_Seq5","Gamble_Rand_Seq5",1,"Instructions","Screen 6","13xe5l",6,"continue","",915.099999997019,900.799999999999,915.099999997019,915.099999997019,900.799999999999,915.099999997019,1,915.099999997019,0,0,NA,"Click To Continue","Continue Button",2,"object-237","Instructions","","","",NA,"",NA,NA,NA,NA,NA,"",NA,NA,NA,NA,NA,NA,NA,"MDPRF01388"
"11",1727179810078,"24/09/2024 12:10:10",1727183410078,1,"24/09/2024 14:10:10",187387,9,"task-nkoa",NA,40225832,11744067,NA,"complete",NA,"66f2a50985781d46121ce43d","computer","Desktop or Laptop","Mac OS 10.15.7","Chrome 128.0.0.0","1440x900","1440x812",NA,NA,0,"Gambling_GBO",12,"In","GHFIEJDKCAB",NA,"In","MH_OCT","seq5","Gamble_Rand_Seq5","Gamble_Rand_Seq5",1,"Instructions","Screen 7","re2b58",7,"continue","",1561.89999999851,1549.1,1561.89999999851,1561.89999999851,1549.1,1561.89999999851,1,1561.89999999851,0,0,NA,"Click To Continue","Continue Button",2,"object-241","Instructions","","","",NA,"",NA,NA,NA,NA,NA,"",NA,NA,NA,NA,NA,NA,NA,"MDPRF01388"
"12",1727179810095,"24/09/2024 12:10:10",1727183410095,1,"24/09/2024 14:10:10",187387,9,"task-nkoa",NA,40225832,11744067,NA,"complete",NA,"66f2a50985781d46121ce43d","computer","Desktop or Laptop","Mac OS 10.15.7","Chrome 128.0.0.0","1440x900","1440x812",NA,NA,0,"Gambling_GBO",12,"In","GHFIEJDKCAB",NA,"In","MH_OCT","seq5","Gamble_Rand_Seq5","Gamble_Rand_Seq5",1,"Rating","Screen 1","hx8b5a",1,"info","",16.2999999999993,0,16.2999999999993,16.2999999999993,0,16.2999999999993,1,16.2999999999993,0,0,NA,"Slider","MoodSlider",2,"object-243","Rating","bored","not bored","bored",1,"",NA,NA,NA,NA,NA,"",NA,NA,NA,NA,NA,NA,NA,"MDPRF01388"
"13",1727179814266,"24/09/2024 12:10:14",1727183414266,1,"24/09/2024 14:10:14",187387,9,"task-nkoa",NA,40225832,11744067,NA,"complete",NA,"66f2a50985781d46121ce43d","computer","Desktop or Laptop","Mac OS 10.15.7","Chrome 128.0.0.0","1440x900","1440x812",NA,NA,0,"Gambling_GBO",12,"In","GHFIEJDKCAB",NA,"In","MH_OCT","seq5","Gamble_Rand_Seq5","Gamble_Rand_Seq5",1,"Rating","Screen 1","hx8b5a",1,"continue","",4200.50000000001,4183.8,4200.50000000001,4200.50000000001,4183.8,4200.50000000001,1,4200.50000000001,0,0,NA,"Click To Continue","Continue Button",3,"object-25","Rating","bored","not bored","bored",1,"",NA,NA,NA,NA,NA,"",NA,NA,NA,NA,NA,NA,NA,"MDPRF01388"
"14",1727179814267,"24/09/2024 12:10:14",1727183414267,1,"24/09/2024 14:10:14",187387,9,"task-nkoa",NA,40225832,11744067,NA,"complete",NA,"66f2a50985781d46121ce43d","computer","Desktop or Laptop","Mac OS 10.15.7","Chrome 128.0.0.0","1440x900","1440x812",NA,NA,0,"Gambling_GBO",12,"In","GHFIEJDKCAB",NA,"In","MH_OCT","seq5","Gamble_Rand_Seq5","Gamble_Rand_Seq5",1,"Rating","Screen 1","hx8b5a",1,"response","13",3433.8,4183.8,4200.50000000001,3433.8,4183.8,4200.50000000001,1,3433.8,766.700000000004,0,NA,"Slider","MoodSlider",2,"object-243","Rating","bored","not bored","bored",1,"",NA,NA,NA,NA,NA,"",NA,NA,NA,NA,NA,NA,NA,"MDPRF01388"
"15",1727179814283,"24/09/2024 12:10:14",1727183414283,1,"24/09/2024 14:10:14",187387,9,"task-nkoa",NA,40225832,11744067,NA,"complete",NA,"66f2a50985781d46121ce43d","computer","Desktop or Laptop","Mac OS 10.15.7","Chrome 128.0.0.0","1440x900","1440x812",NA,NA,0,"Gambling_GBO",12,"In","GHFIEJDKCAB",NA,"In","MH_OCT","seq5","Gamble_Rand_Seq5","Gamble_Rand_Seq5",2,"Rating","Screen 1","hx8b5a",1,"info","",16.7000000000044,0,16.7000000000044,16.7000000000044,0,16.7000000000044,1,16.7000000000044,0,0,NA,"Slider","MoodSlider",2,"object-243","Rating","happy","unhappy","happy",1,"",NA,NA,NA,NA,NA,"",NA,NA,NA,NA,NA,NA,NA,"MDPRF01388"
"16",1727179816203,"24/09/2024 12:10:16",1727183416203,1,"24/09/2024 14:10:16",187387,9,"task-nkoa",NA,40225832,11744067,NA,"complete",NA,"66f2a50985781d46121ce43d","computer","Desktop or Laptop","Mac OS 10.15.7","Chrome 128.0.0.0","1440x900","1440x812",NA,NA,0,"Gambling_GBO",12,"In","GHFIEJDKCAB",NA,"In","MH_OCT","seq5","Gamble_Rand_Seq5","Gamble_Rand_Seq5",2,"Rating","Screen 1","hx8b5a",1,"continue","",1954.39999999702,1949.6,1954.39999999702,1954.39999999702,1949.6,1954.39999999702,1,1954.39999999702,0,0,NA,"Click To Continue","Continue Button",3,"object-25","Rating","happy","unhappy","happy",1,"",NA,NA,NA,NA,NA,"",NA,NA,NA,NA,NA,NA,NA,"MDPRF01388"
"17",1727179816204,"24/09/2024 12:10:16",1727183416204,1,"24/09/2024 14:10:16",187387,9,"task-nkoa",NA,40225832,11744067,NA,"complete",NA,"66f2a50985781d46121ce43d","computer","Desktop or Laptop","Mac OS 10.15.7","Chrome 128.0.0.0","1440x900","1440x812",NA,NA,0,"Gambling_GBO",12,"In","GHFIEJDKCAB",NA,"In","MH_OCT","seq5","Gamble_Rand_Seq5","Gamble_Rand_Seq5",2,"Rating","Screen 1","hx8b5a",1,"response","67",1399.8,1949.6,1954.79999999925,1399.8,1949.6,1954.79999999925,1,1399.8,554.999999999258,0,NA,"Slider","MoodSlider",2,"object-243","Rating","happy","unhappy","happy",1,"",NA,NA,NA,NA,NA,"",NA,NA,NA,NA,NA,NA,NA,"MDPRF01388"
"18",1727179816214,"24/09/2024 12:10:16",1727183416214,1,"24/09/2024 14:10:16",187387,9,"task-nkoa",NA,40225832,11744067,NA,"complete",NA,"66f2a50985781d46121ce43d","computer","Desktop or Laptop","Mac OS 10.15.7","Chrome 128.0.0.0","1440x900","1440x812",NA,NA,0,"Gambling_GBO",12,"In","GHFIEJDKCAB",NA,"In","MH_OCT","seq5","Gamble_Rand_Seq5","Gamble_Rand_Seq5",3,"Rating","Screen 1","hx8b5a",1,"info","",15.6999999992549,0,15.6999999992549,15.6999999992549,0,15.6999999992549,1,15.6999999992549,0,0,NA,"Slider","MoodSlider",2,"object-243","Rating","frustrated","not frustrated","frustrated",1,"",NA,NA,NA,NA,NA,"",NA,NA,NA,NA,NA,NA,NA,"MDPRF01388"
"19",1727179818946,"24/09/2024 12:10:18",1727183418946,1,"24/09/2024 14:10:18",187387,9,"task-nkoa",NA,40225832,11744067,NA,"complete",NA,"66f2a50985781d46121ce43d","computer","Desktop or Laptop","Mac OS 10.15.7","Chrome 128.0.0.0","1440x900","1440x812",NA,NA,0,"Gambling_GBO",12,"In","GHFIEJDKCAB",NA,"In","MH_OCT","seq5","Gamble_Rand_Seq5","Gamble_Rand_Seq5",3,"Rating","Screen 1","hx8b5a",1,"continue","",2747.09999999776,2733.4,2747.09999999776,2747.09999999776,2733.4,2747.09999999776,1,2747.09999999776,0,0,NA,"Click To Continue","Continue Button",3,"object-25","Rating","frustrated","not frustrated","frustrated",1,"",NA,NA,NA,NA,NA,"",NA,NA,NA,NA,NA,NA,NA,"MDPRF01388"
"20",1727179818946,"24/09/2024 12:10:18",1727183418946,1,"24/09/2024 14:10:18",187387,9,"task-nkoa",NA,40225832,11744067,NA,"complete",NA,"66f2a50985781d46121ce43d","computer","Desktop or Laptop","Mac OS 10.15.7","Chrome 128.0.0.0","1440x900","1440x812",NA,NA,0,"Gambling_GBO",12,"In","GHFIEJDKCAB",NA,"In","MH_OCT","seq5","Gamble_Rand_Seq5","Gamble_Rand_Seq5",3,"Rating","Screen 1","hx8b5a",1,"response","20",1499.9,2733.4,2747.69999999925,1499.9,2733.4,2747.69999999925,1,1499.9,1247.79999999925,0,NA,"Slider","MoodSlider",2,"object-243","Rating","frustrated","not frustrated","frustrated",1,"",NA,NA,NA,NA,NA,"",NA,NA,NA,NA,NA,NA,NA,"MDPRF01388"
"21",1727179820899,"24/09/2024 12:10:20",1727183420899,1,"24/09/2024 14:10:20",187387,9,"task-nkoa",NA,40225832,11744067,NA,"complete",NA,"66f2a50985781d46121ce43d","computer","Desktop or Laptop","Mac OS 10.15.7","Chrome 128.0.0.0","1440x900","1440x812",NA,NA,0,"Gambling_GBO",12,"In","GHFIEJDKCAB",NA,"In","MH_OCT","seq5","Gamble_Rand_Seq5","Gamble_Rand_Seq5",1,"lossB","Screen 1","a4fynh",1,"continue","",1966.9,1966.9,1966.9,1966.9,1966.9,1966.9,1,1966.9,0,0,NA,"Fixation Timing","Fixation",1,"object-113","lossB","","","",NA,"Right",-4.33,-5,-3,1,NA,"",NA,NA,NA,NA,NA,NA,NA,"MDPRF01388"
"22",1727179824554,"24/09/2024 12:10:24",1727183424554,1,"24/09/2024 14:10:24",187387,9,"task-nkoa",NA,40225832,11744067,NA,"complete",NA,"66f2a50985781d46121ce43d","computer","Desktop or Laptop","Mac OS 10.15.7","Chrome 128.0.0.0","1440x900","1440x812",NA,NA,0,"Gambling_GBO",12,"In","GHFIEJDKCAB",NA,"In","MH_OCT","seq5","Gamble_Rand_Seq5","Gamble_Rand_Seq5",1,"lossB","choice","k9qq8f",2,"response","Right",3653.59999999851,3649.89999999999,3653.59999999851,3653.59999999851,3649.89999999999,3653.59999999851,1,3653.59999999851,0,0,NA,"Keyboard Response","KeyResponseG",6,"object-200","lossB","","","",NA,"Right",-4.33,-5,-3,1,NA,"Right",NA,-5,NA,NA,NA,NA,-5,"MDPRF01388"
"23",1727179828558,"24/09/2024 12:10:28",1727183428558,1,"24/09/2024 14:10:28",187387,9,"task-nkoa",NA,40225832,11744067,NA,"complete",NA,"66f2a50985781d46121ce43d","computer","Desktop or Laptop","Mac OS 10.15.7","Chrome 128.0.0.0","1440x900","1440x812",NA,NA,0,"Gambling_GBO",12,"In","GHFIEJDKCAB",NA,"In","MH_OCT","seq5","Gamble_Rand_Seq5","Gamble_Rand_Seq5",1,"lossB","gamble","tpcid5",3,"timedOut","",4009.59999999702,4000,4009.59999999702,4009.59999999702,4000,4009.59999999702,1,4009.59999999702,0,0,NA,"Time Limit","screen",0,"screen","lossB","","","",NA,"Right",-4.33,-5,-3,1,NA,"Right",NA,-5,NA,NA,NA,NA,-5,"MDPRF01388"
"24",1727179829550,"24/09/2024 12:10:29",1727183429550,1,"24/09/2024 14:10:29",187387,9,"task-nkoa",NA,40225832,11744067,NA,"complete",NA,"66f2a50985781d46121ce43d","computer","Desktop or Laptop","Mac OS 10.15.7","Chrome 128.0.0.0","1440x900","1440x812",NA,NA,0,"Gambling_GBO",12,"In","GHFIEJDKCAB",NA,"In","MH_OCT","seq5","Gamble_Rand_Seq5","Gamble_Rand_Seq5",1,"lossB","loss","2apfzp",4,"timedOut","",1000.99999999926,1000.4,1000.99999999926,1000.99999999926,1000.4,1000.99999999926,1,1000.99999999926,0,0,NA,"Time Limit","screen",0,"screen","lossB","","","",NA,"Right",-4.33,-5,-3,1,NA,"Right",NA,-5,NA,NA,NA,NA,-5,"MDPRF01388"
"25",1727179829563,"24/09/2024 12:10:29",1727183429563,1,"24/09/2024 14:10:29",187387,9,"task-nkoa",NA,40225832,11744067,NA,"complete",NA,"66f2a50985781d46121ce43d","computer","Desktop or Laptop","Mac OS 10.15.7","Chrome 128.0.0.0","1440x900","1440x812",NA,NA,0,"Gambling_GBO",12,"In","GHFIEJDKCAB",NA,"In","MH_OCT","seq5","Gamble_Rand_Seq5","Gamble_Rand_Seq5",4,"Rating","Screen 1","hx8b5a",1,"info","",13.4000000000015,0,13.4000000000015,13.4000000000015,0,13.4000000000015,1,13.4000000000015,0,0,NA,"Slider","MoodSlider",2,"object-243","Rating","happy","unhappy","happy",2,"",NA,NA,NA,NA,NA,"Right",NA,-5,NA,NA,NA,NA,-5,"MDPRF01388"
"26",1727179832234,"24/09/2024 12:10:32",1727183432234,1,"24/09/2024 14:10:32",187387,9,"task-nkoa",NA,40225832,11744067,NA,"complete",NA,"66f2a50985781d46121ce43d","computer","Desktop or Laptop","Mac OS 10.15.7","Chrome 128.0.0.0","1440x900","1440x812",NA,NA,0,"Gambling_GBO",12,"In","GHFIEJDKCAB",NA,"In","MH_OCT","seq5","Gamble_Rand_Seq5","Gamble_Rand_Seq5",4,"Rating","Screen 1","hx8b5a",1,"continue","",2684.9,2682.3,2684.9,2684.9,2682.3,2684.9,1,2684.9,0,0,NA,"Click To Continue","Continue Button",3,"object-25","Rating","happy","unhappy","happy",2,"",NA,NA,NA,NA,NA,"Right",NA,-5,NA,NA,NA,NA,-5,"MDPRF01388"
"27",1727179832238,"24/09/2024 12:10:32",1727183432238,1,"24/09/2024 14:10:32",187387,9,"task-nkoa",NA,40225832,11744067,NA,"complete",NA,"66f2a50985781d46121ce43d","computer","Desktop or Laptop","Mac OS 10.15.7","Chrome 128.0.0.0","1440x900","1440x812",NA,NA,0,"Gambling_GBO",12,"In","GHFIEJDKCAB",NA,"In","MH_OCT","seq5","Gamble_Rand_Seq5","Gamble_Rand_Seq5",4,"Rating","Screen 1","hx8b5a",1,"response","14",1982.5,2682.3,2688.49999999777,1982.5,2682.3,2688.49999999777,1,1982.5,705.999999997766,0,NA,"Slider","MoodSlider",2,"object-243","Rating","happy","unhappy","happy",2,"",NA,NA,NA,NA,NA,"Right",NA,-5,NA,NA,NA,NA,-5,"MDPRF01388"
"28",1727179832248,"24/09/2024 12:10:32",1727183432248,1,"24/09/2024 14:10:32",187387,9,"task-nkoa",NA,40225832,11744067,NA,"complete",NA,"66f2a50985781d46121ce43d","computer","Desktop or Laptop","Mac OS 10.15.7","Chrome 128.0.0.0","1440x900","1440x812",NA,NA,0,"Gambling_GBO",12,"In","GHFIEJDKCAB",NA,"In","MH_OCT","seq5","Gamble_Rand_Seq5","Gamble_Rand_Seq5",5,"Rating","Screen 1","hx8b5a",1,"info","",15.7000000000044,0,15.7000000000044,15.7000000000044,0,15.7000000000044,1,15.7000000000044,0,0,NA,"Slider","MoodSlider",2,"object-243","Rating","bored","not bored","bored",2,"",NA,NA,NA,NA,NA,"Right",NA,-5,NA,NA,NA,NA,-5,"MDPRF01388"
"29",1727179836855,"24/09/2024 12:10:36",1727183436855,1,"24/09/2024 14:10:36",187387,9,"task-nkoa",NA,40225832,11744067,NA,"complete",NA,"66f2a50985781d46121ce43d","computer","Desktop or Laptop","Mac OS 10.15.7","Chrome 128.0.0.0","1440x900","1440x812",NA,NA,0,"Gambling_GBO",12,"In","GHFIEJDKCAB",NA,"In","MH_OCT","seq5","Gamble_Rand_Seq5","Gamble_Rand_Seq5",5,"Rating","Screen 1","hx8b5a",1,"continue","",4622.99999999851,4616.7,4622.99999999851,4622.99999999851,4616.7,4622.99999999851,1,4622.99999999851,0,0,NA,"Click To Continue","Continue Button",3,"object-25","Rating","bored","not bored","bored",2,"",NA,NA,NA,NA,NA,"Right",NA,-5,NA,NA,NA,NA,-5,"MDPRF01388"
"30",1727179836855,"24/09/2024 12:10:36",1727183436855,1,"24/09/2024 14:10:36",187387,9,"task-nkoa",NA,40225832,11744067,NA,"complete",NA,"66f2a50985781d46121ce43d","computer","Desktop or Laptop","Mac OS 10.15.7","Chrome 128.0.0.0","1440x900","1440x812",NA,NA,0,"Gambling_GBO",12,"In","GHFIEJDKCAB",NA,"In","MH_OCT","seq5","Gamble_Rand_Seq5","Gamble_Rand_Seq5",5,"Rating","Screen 1","hx8b5a",1,"response","11",3784.2,4616.7,4623.39999999702,3784.2,4616.7,4623.39999999702,1,3784.2,839.199999997021,0,NA,"Slider","MoodSlider",2,"object-243","Rating","bored","not bored","bored",2,"",NA,NA,NA,NA,NA,"Right",NA,-5,NA,NA,NA,NA,-5,"MDPRF01388"
"31",1727179836865,"24/09/2024 12:10:36",1727183436865,1,"24/09/2024 14:10:36",187387,9,"task-nkoa",NA,40225832,11744067,NA,"complete",NA,"66f2a50985781d46121ce43d","computer","Desktop or Laptop","Mac OS 10.15.7","Chrome 128.0.0.0","1440x900","1440x812",NA,NA,0,"Gambling_GBO",12,"In","GHFIEJDKCAB",NA,"In","MH_OCT","seq5","Gamble_Rand_Seq5","Gamble_Rand_Seq5",6,"Rating","Screen 1","hx8b5a",1,"info","",16.5999999992564,0,16.5999999992564,16.5999999992564,0,16.5999999992564,1,16.5999999992564,0,0,NA,"Slider","MoodSlider",2,"object-243","Rating","frustrated","not frustrated","frustrated",2,"",NA,NA,NA,NA,NA,"Right",NA,-5,NA,NA,NA,NA,-5,"MDPRF01388"
"32",1727179840592,"24/09/2024 12:10:40",1727183440592,1,"24/09/2024 14:10:40",187387,9,"task-nkoa",NA,40225832,11744067,NA,"complete",NA,"66f2a50985781d46121ce43d","computer","Desktop or Laptop","Mac OS 10.15.7","Chrome 128.0.0.0","1440x900","1440x812",NA,NA,0,"Gambling_GBO",12,"In","GHFIEJDKCAB",NA,"In","MH_OCT","seq5","Gamble_Rand_Seq5","Gamble_Rand_Seq5",6,"Rating","Screen 1","hx8b5a",1,"continue","",3743.29999999851,3733.3,3743.29999999851,3743.29999999851,3733.3,3743.29999999851,1,3743.29999999851,0,0,NA,"Click To Continue","Continue Button",3,"object-25","Rating","frustrated","not frustrated","frustrated",2,"",NA,NA,NA,NA,NA,"Right",NA,-5,NA,NA,NA,NA,-5,"MDPRF01388"
"33",1727179840592,"24/09/2024 12:10:40",1727183440592,1,"24/09/2024 14:10:40",187387,9,"task-nkoa",NA,40225832,11744067,NA,"complete",NA,"66f2a50985781d46121ce43d","computer","Desktop or Laptop","Mac OS 10.15.7","Chrome 128.0.0.0","1440x900","1440x812",NA,NA,0,"Gambling_GBO",12,"In","GHFIEJDKCAB",NA,"In","MH_OCT","seq5","Gamble_Rand_Seq5","Gamble_Rand_Seq5",6,"Rating","Screen 1","hx8b5a",1,"response","28",2217.6,3733.3,3743.9,2217.6,3733.3,3743.9,1,2217.6,1526.3,0,NA,"Slider","MoodSlider",2,"object-243","Rating","frustrated","not frustrated","frustrated",2,"",NA,NA,NA,NA,NA,"Right",NA,-5,NA,NA,NA,NA,-5,"MDPRF01388"
"34",1727179842550,"24/09/2024 12:10:42",1727183442550,1,"24/09/2024 14:10:42",187387,9,"task-nkoa",NA,40225832,11744067,NA,"complete",NA,"66f2a50985781d46121ce43d","computer","Desktop or Laptop","Mac OS 10.15.7","Chrome 128.0.0.0","1440x900","1440x812",NA,NA,0,"Gambling_GBO",12,"In","GHFIEJDKCAB",NA,"In","MH_OCT","seq5","Gamble_Rand_Seq5","Gamble_Rand_Seq5",2,"lossB","Screen 1","a4fynh",1,"continue","",1966.5,1966.5,1966.5,1966.5,1966.5,1966.5,1,1966.5,0,0,NA,"Fixation Timing","Fixation",1,"object-113","lossB","","","",NA,"Right",2.33,2,3,2,NA,"Right",NA,-5,NA,NA,NA,NA,-5,"MDPRF01388"
"35",1727179845309,"24/09/2024 12:10:45",1727183445309,1,"24/09/2024 14:10:45",187387,9,"task-nkoa",NA,40225832,11744067,NA,"complete",NA,"66f2a50985781d46121ce43d","computer","Desktop or Laptop","Mac OS 10.15.7","Chrome 128.0.0.0","1440x900","1440x812",NA,NA,0,"Gambling_GBO",12,"In","GHFIEJDKCAB",NA,"In","MH_OCT","seq5","Gamble_Rand_Seq5","Gamble_Rand_Seq5",2,"lossB","choice","k9qq8f",2,"response","Right",2759.29999999925,2750.5,2759.29999999925,2759.29999999925,2750.5,2759.29999999925,1,2759.29999999925,0,0,NA,"Keyboard Response","KeyResponseG",6,"object-200","lossB","","","",NA,"Right",2.33,2,3,2,NA,"Right",NA,-3,NA,NA,NA,NA,2,"MDPRF01388"
"36",1727179849300,"24/09/2024 12:10:49",1727183449300,1,"24/09/2024 14:10:49",187387,9,"task-nkoa",NA,40225832,11744067,NA,"complete",NA,"66f2a50985781d46121ce43d","computer","Desktop or Laptop","Mac OS 10.15.7","Chrome 128.0.0.0","1440x900","1440x812",NA,NA,0,"Gambling_GBO",12,"In","GHFIEJDKCAB",NA,"In","MH_OCT","seq5","Gamble_Rand_Seq5","Gamble_Rand_Seq5",2,"lossB","gamble","tpcid5",3,"timedOut","",4001.1,4000.4,4001.1,4001.1,4000.4,4001.1,1,4001.1,0,0,NA,"Time Limit","screen",0,"screen","lossB","","","",NA,"Right",2.33,2,3,2,NA,"Right",NA,-3,NA,NA,NA,NA,2,"MDPRF01388"
"37",1727179850299,"24/09/2024 12:10:50",1727183450299,1,"24/09/2024 14:10:50",187387,9,"task-nkoa",NA,40225832,11744067,NA,"complete",NA,"66f2a50985781d46121ce43d","computer","Desktop or Laptop","Mac OS 10.15.7","Chrome 128.0.0.0","1440x900","1440x812",NA,NA,0,"Gambling_GBO",12,"In","GHFIEJDKCAB",NA,"In","MH_OCT","seq5","Gamble_Rand_Seq5","Gamble_Rand_Seq5",2,"lossB","loss","2apfzp",4,"timedOut","",999.899999999252,999.300000000003,999.899999999252,999.899999999252,999.300000000003,999.899999999252,1,999.899999999252,0,0,NA,"Time Limit","screen",0,"screen","lossB","","","",NA,"Right",2.33,2,3,2,NA,"Right",NA,-3,NA,NA,NA,NA,2,"MDPRF01388"
"38",1727179850314,"24/09/2024 12:10:50",1727183450314,1,"24/09/2024 14:10:50",187387,9,"task-nkoa",NA,40225832,11744067,NA,"complete",NA,"66f2a50985781d46121ce43d","computer","Desktop or Laptop","Mac OS 10.15.7","Chrome 128.0.0.0","1440x900","1440x812",NA,NA,0,"Gambling_GBO",12,"In","GHFIEJDKCAB",NA,"In","MH_OCT","seq5","Gamble_Rand_Seq5","Gamble_Rand_Seq5",7,"Rating","Screen 1","hx8b5a",1,"info","",15.2999999985041,0,15.2999999985041,15.2999999985041,0,15.2999999985041,1,15.2999999985041,0,0,NA,"Slider","MoodSlider",2,"object-243","Rating","bored","not bored","bored",3,"",NA,NA,NA,NA,NA,"Right",NA,-3,NA,NA,NA,NA,2,"MDPRF01388"
"39",1727179855072,"24/09/2024 12:10:55",1727183455072,1,"24/09/2024 14:10:55",187387,9,"task-nkoa",NA,40225832,11744067,NA,"complete",NA,"66f2a50985781d46121ce43d","computer","Desktop or Laptop","Mac OS 10.15.7","Chrome 128.0.0.0","1440x900","1440x812",NA,NA,0,"Gambling_GBO",12,"In","GHFIEJDKCAB",NA,"In","MH_OCT","seq5","Gamble_Rand_Seq5","Gamble_Rand_Seq5",7,"Rating","Screen 1","hx8b5a",1,"continue","",4773.09999999925,4767,4773.09999999925,4773.09999999925,4767,4773.09999999925,1,4773.09999999925,0,0,NA,"Click To Continue","Continue Button",3,"object-25","Rating","bored","not bored","bored",3,"",NA,NA,NA,NA,NA,"Right",NA,-3,NA,NA,NA,NA,2,"MDPRF01388"
"40",1727179855076,"24/09/2024 12:10:55",1727183455076,1,"24/09/2024 14:10:55",187387,9,"task-nkoa",NA,40225832,11744067,NA,"complete",NA,"66f2a50985781d46121ce43d","computer","Desktop or Laptop","Mac OS 10.15.7","Chrome 128.0.0.0","1440x900","1440x812",NA,NA,0,"Gambling_GBO",12,"In","GHFIEJDKCAB",NA,"In","MH_OCT","seq5","Gamble_Rand_Seq5","Gamble_Rand_Seq5",7,"Rating","Screen 1","hx8b5a",1,"response","14",3450.59999999999,4767,4776.7999999985,3450.59999999999,4767,4776.7999999985,1,3450.59999999999,1326.19999999851,0,NA,"Slider","MoodSlider",2,"object-243","Rating","bored","not bored","bored",3,"",NA,NA,NA,NA,NA,"Right",NA,-3,NA,NA,NA,NA,2,"MDPRF01388"
"41",1727179855086,"24/09/2024 12:10:55",1727183455086,1,"24/09/2024 14:10:55",187387,9,"task-nkoa",NA,40225832,11744067,NA,"complete",NA,"66f2a50985781d46121ce43d","computer","Desktop or Laptop","Mac OS 10.15.7","Chrome 128.0.0.0","1440x900","1440x812",NA,NA,0,"Gambling_GBO",12,"In","GHFIEJDKCAB",NA,"In","MH_OCT","seq5","Gamble_Rand_Seq5","Gamble_Rand_Seq5",8,"Rating","Screen 1","hx8b5a",1,"info","",17.1000000000058,0,17.1000000000058,17.1000000000058,0,17.1000000000058,1,17.1000000000058,0,0,NA,"Slider","MoodSlider",2,"object-243","Rating","happy","unhappy","happy",3,"",NA,NA,NA,NA,NA,"Right",NA,-3,NA,NA,NA,NA,2,"MDPRF01388"
"42",1727179855903,"24/09/2024 12:10:55",1727183455903,1,"24/09/2024 14:10:55",187387,9,"task-nkoa",NA,40225832,11744067,NA,"complete",NA,"66f2a50985781d46121ce43d","computer","Desktop or Laptop","Mac OS 10.15.7","Chrome 128.0.0.0","1440x900","1440x812",NA,NA,0,"Gambling_GBO",12,"In","GHFIEJDKCAB",NA,"In","MH_OCT","seq5","Gamble_Rand_Seq5","Gamble_Rand_Seq5",8,"Rating","Screen 1","hx8b5a",1,"continue","",836.699999997014,832.799999999988,836.699999997014,836.699999997014,832.799999999988,836.699999997014,1,836.699999997014,0,0,NA,"Click To Continue","Continue Button",3,"object-25","Rating","happy","unhappy","happy",3,"",NA,NA,NA,NA,NA,"Right",NA,-3,NA,NA,NA,NA,2,"MDPRF01388"
"43",1727179861466,"24/09/2024 12:11:01",1727183461466,1,"24/09/2024 14:11:01",187387,9,"task-nkoa",NA,40225832,11744067,NA,"complete",NA,"66f2a50985781d46121ce43d","computer","Desktop or Laptop","Mac OS 10.15.7","Chrome 128.0.0.0","1440x900","1440x812",NA,NA,0,"Gambling_GBO",12,"In","GHFIEJDKCAB",NA,"In","MH_OCT","seq5","Gamble_Rand_Seq5","Gamble_Rand_Seq5",8,"Rating","Screen 1","hx8b5a",1,"continue","",6398.99999999999,6382.79999999999,6398.99999999999,6398.99999999999,6382.79999999999,6398.99999999999,1,6398.99999999999,0,0,NA,"Click To Continue","Continue Button",3,"object-25","Rating","happy","unhappy","happy",3,"",NA,NA,NA,NA,NA,"Right",NA,-3,NA,NA,NA,NA,2,"MDPRF01388"
"44",1727179861466,"24/09/2024 12:11:01",1727183461466,1,"24/09/2024 14:11:01",187387,9,"task-nkoa",NA,40225832,11744067,NA,"complete",NA,"66f2a50985781d46121ce43d","computer","Desktop or Laptop","Mac OS 10.15.7","Chrome 128.0.0.0","1440x900","1440x812",NA,NA,0,"Gambling_GBO",12,"In","GHFIEJDKCAB",NA,"In","MH_OCT","seq5","Gamble_Rand_Seq5","Gamble_Rand_Seq5",8,"Rating","Screen 1","hx8b5a",1,"response","40",2599.29999999999,6382.79999999999,6398.99999999999,2599.29999999999,6382.79999999999,6398.99999999999,1,2599.29999999999,3799.7,0,NA,"Slider","MoodSlider",2,"object-243","Rating","happy","unhappy","happy",3,"",NA,NA,NA,NA,NA,"Right",NA,-3,NA,NA,NA,NA,2,"MDPRF01388"
"45",1727179861476,"24/09/2024 12:11:01",1727183461476,1,"24/09/2024 14:11:01",187387,9,"task-nkoa",NA,40225832,11744067,NA,"complete",NA,"66f2a50985781d46121ce43d","computer","Desktop or Laptop","Mac OS 10.15.7","Chrome 128.0.0.0","1440x900","1440x812",NA,NA,0,"Gambling_GBO",12,"In","GHFIEJDKCAB",NA,"In","MH_OCT","seq5","Gamble_Rand_Seq5","Gamble_Rand_Seq5",9,"Rating","Screen 1","hx8b5a",1,"info","",16.1999999999971,0,16.1999999999971,16.1999999999971,0,16.1999999999971,1,16.1999999999971,0,0,NA,"Slider","MoodSlider",2,"object-243","Rating","frustrated","not frustrated","frustrated",3,"",NA,NA,NA,NA,NA,"Right",NA,-3,NA,NA,NA,NA,2,"MDPRF01388"
"46",1727179863357,"24/09/2024 12:11:03",1727183463357,1,"24/09/2024 14:11:03",187387,9,"task-nkoa",NA,40225832,11744067,NA,"complete",NA,"66f2a50985781d46121ce43d","computer","Desktop or Laptop","Mac OS 10.15.7","Chrome 128.0.0.0","1440x900","1440x812",NA,NA,0,"Gambling_GBO",12,"In","GHFIEJDKCAB",NA,"In","MH_OCT","seq5","Gamble_Rand_Seq5","Gamble_Rand_Seq5",9,"Rating","Screen 1","hx8b5a",1,"continue","",1907.60000000001,1900.10000000001,1907.60000000001,1907.60000000001,1900.10000000001,1907.60000000001,1,1907.60000000001,0,0,NA,"Click To Continue","Continue Button",3,"object-25","Rating","frustrated","not frustrated","frustrated",3,"",NA,NA,NA,NA,NA,"Right",NA,-3,NA,NA,NA,NA,2,"MDPRF01388"
"47",1727179863357,"24/09/2024 12:11:03",1727183463357,1,"24/09/2024 14:11:03",187387,9,"task-nkoa",NA,40225832,11744067,NA,"complete",NA,"66f2a50985781d46121ce43d","computer","Desktop or Laptop","Mac OS 10.15.7","Chrome 128.0.0.0","1440x900","1440x812",NA,NA,0,"Gambling_GBO",12,"In","GHFIEJDKCAB",NA,"In","MH_OCT","seq5","Gamble_Rand_Seq5","Gamble_Rand_Seq5",9,"Rating","Screen 1","hx8b5a",1,"response","85",1133.5,1900.10000000001,1908.10000000001,1133.5,1900.10000000001,1908.10000000001,1,1133.5,774.600000000006,0,NA,"Slider","MoodSlider",2,"object-243","Rating","frustrated","not frustrated","frustrated",3,"",NA,NA,NA,NA,NA,"Right",NA,-3,NA,NA,NA,NA,2,"MDPRF01388"
"48",1727179865317,"24/09/2024 12:11:05",1727183465317,1,"24/09/2024 14:11:05",187387,9,"task-nkoa",NA,40225832,11744067,NA,"complete",NA,"66f2a50985781d46121ce43d","computer","Desktop or Laptop","Mac OS 10.15.7","Chrome 128.0.0.0","1440x900","1440x812",NA,NA,0,"Gambling_GBO",12,"In","GHFIEJDKCAB",NA,"In","MH_OCT","seq5","Gamble_Rand_Seq5","Gamble_Rand_Seq5",1,"winT","Screen 1","np5pnj",1,"continue","",1967.3,1967.3,1967.3,1967.3,1967.3,1967.3,1,1967.3,0,0,NA,"Fixation Timing","Fixation",1,"object-304","winT","","","",NA,"Right",-5,-6,-3,3,NA,"Right",NA,-3,NA,NA,NA,NA,2,"MDPRF01388"
"49",1727179867567,"24/09/2024 12:11:07",1727183467567,1,"24/09/2024 14:11:07",187387,9,"task-nkoa",NA,40225832,11744067,NA,"complete",NA,"66f2a50985781d46121ce43d","computer","Desktop or Laptop","Mac OS 10.15.7","Chrome 128.0.0.0","1440x900","1440x812",NA,NA,0,"Gambling_GBO",12,"In","GHFIEJDKCAB",NA,"In","MH_OCT","seq5","Gamble_Rand_Seq5","Gamble_Rand_Seq5",1,"winT","choice","gu8zgx",2,"response","Right",2248.59999999999,2232.59999999999,2248.59999999999,2248.59999999999,2232.59999999999,2248.59999999999,1,2248.59999999999,0,0,NA,"Keyboard Response","KeyResponseG",6,"object-326","winT","","","",NA,"Right",-5,-6,-3,3,NA,"Right",NA,-6,NA,NA,NA,NA,-3,"MDPRF01388"
"50",1727179871550,"24/09/2024 12:11:11",1727183471550,1,"24/09/2024 14:11:11",187387,9,"task-nkoa",NA,40225832,11744067,NA,"complete",NA,"66f2a50985781d46121ce43d","computer","Desktop or Laptop","Mac OS 10.15.7","Chrome 128.0.0.0","1440x900","1440x812",NA,NA,0,"Gambling_GBO",12,"In","GHFIEJDKCAB",NA,"In","MH_OCT","seq5","Gamble_Rand_Seq5","Gamble_Rand_Seq5",1,"winT","gamble","1lb69u",3,"timedOut","",4000.69999999777,4000.10000000001,4000.69999999777,4000.69999999777,4000.10000000001,4000.69999999777,1,4000.69999999777,0,0,NA,"Time Limit","screen",0,"screen","winT","","","",NA,"Right",-5,-6,-3,3,NA,"Right",NA,-6,NA,NA,NA,NA,-3,"MDPRF01388"
"51",1727179872551,"24/09/2024 12:11:12",1727183472551,1,"24/09/2024 14:11:12",187387,9,"task-nkoa",NA,40225832,11744067,NA,"complete",NA,"66f2a50985781d46121ce43d","computer","Desktop or Laptop","Mac OS 10.15.7","Chrome 128.0.0.0","1440x900","1440x812",NA,NA,0,"Gambling_GBO",12,"In","GHFIEJDKCAB",NA,"In","MH_OCT","seq5","Gamble_Rand_Seq5","Gamble_Rand_Seq5",1,"winT","win","dhtsbv",4,"timedOut","",1001.79999999702,999.899999999994,1001.79999999702,1001.79999999702,999.899999999994,1001.79999999702,1,1001.79999999702,0,0,NA,"Time Limit","screen",0,"screen","winT","","","",NA,"Right",-5,-6,-3,3,NA,"Right",NA,-6,NA,NA,NA,NA,-3,"MDPRF01388"
"52",1727179872563,"24/09/2024 12:11:12",1727183472563,1,"24/09/2024 14:11:12",187387,9,"task-nkoa",NA,40225832,11744067,NA,"complete",NA,"66f2a50985781d46121ce43d","computer","Desktop or Laptop","Mac OS 10.15.7","Chrome 128.0.0.0","1440x900","1440x812",NA,NA,0,"Gambling_GBO",12,"In","GHFIEJDKCAB",NA,"In","MH_OCT","seq5","Gamble_Rand_Seq5","Gamble_Rand_Seq5",10,"Rating","Screen 1","hx8b5a",1,"info","",13.6999999977706,0,13.6999999977706,13.6999999977706,0,13.6999999977706,1,13.6999999977706,0,0,NA,"Slider","MoodSlider",2,"object-243","Rating","frustrated","not frustrated","frustrated",4,"",NA,NA,NA,NA,NA,"Right",NA,-6,NA,NA,NA,NA,-3,"MDPRF01388"
"53",1727179874925,"24/09/2024 12:11:14",1727183474925,1,"24/09/2024 14:11:14",187387,9,"task-nkoa",NA,40225832,11744067,NA,"complete",NA,"66f2a50985781d46121ce43d","computer","Desktop or Laptop","Mac OS 10.15.7","Chrome 128.0.0.0","1440x900","1440x812",NA,NA,0,"Gambling_GBO",12,"In","GHFIEJDKCAB",NA,"In","MH_OCT","seq5","Gamble_Rand_Seq5","Gamble_Rand_Seq5",10,"Rating","Screen 1","hx8b5a",1,"continue","",2376.10000000001,2367.3,2376.10000000001,2376.10000000001,2367.3,2376.10000000001,1,2376.10000000001,0,0,NA,"Click To Continue","Continue Button",3,"object-25","Rating","frustrated","not frustrated","frustrated",4,"",NA,NA,NA,NA,NA,"Right",NA,-6,NA,NA,NA,NA,-3,"MDPRF01388"
"54",1727179874926,"24/09/2024 12:11:14",1727183474926,1,"24/09/2024 14:11:14",187387,9,"task-nkoa",NA,40225832,11744067,NA,"complete",NA,"66f2a50985781d46121ce43d","computer","Desktop or Laptop","Mac OS 10.15.7","Chrome 128.0.0.0","1440x900","1440x812",NA,NA,0,"Gambling_GBO",12,"In","GHFIEJDKCAB",NA,"In","MH_OCT","seq5","Gamble_Rand_Seq5","Gamble_Rand_Seq5",10,"Rating","Screen 1","hx8b5a",1,"response","11",1600,2367.3,2376.60000000001,1600,2367.3,2376.60000000001,1,1600,776.600000000006,0,NA,"Slider","MoodSlider",2,"object-243","Rating","frustrated","not frustrated","frustrated",4,"",NA,NA,NA,NA,NA,"Right",NA,-6,NA,NA,NA,NA,-3,"MDPRF01388"
"55",1727179874935,"24/09/2024 12:11:14",1727183474935,1,"24/09/2024 14:11:14",187387,9,"task-nkoa",NA,40225832,11744067,NA,"complete",NA,"66f2a50985781d46121ce43d","computer","Desktop or Laptop","Mac OS 10.15.7","Chrome 128.0.0.0","1440x900","1440x812",NA,NA,0,"Gambling_GBO",12,"In","GHFIEJDKCAB",NA,"In","MH_OCT","seq5","Gamble_Rand_Seq5","Gamble_Rand_Seq5",11,"Rating","Screen 1","hx8b5a",1,"info","",17.3000000000029,0,17.3000000000029,17.3000000000029,0,17.3000000000029,1,17.3000000000029,0,0,NA,"Slider","MoodSlider",2,"object-243","Rating","happy","unhappy","happy",4,"",NA,NA,NA,NA,NA,"Right",NA,-6,NA,NA,NA,NA,-3,"MDPRF01388"
"56",1727179876538,"24/09/2024 12:11:16",1727183476538,1,"24/09/2024 14:11:16",187387,9,"task-nkoa",NA,40225832,11744067,NA,"complete",NA,"66f2a50985781d46121ce43d","computer","Desktop or Laptop","Mac OS 10.15.7","Chrome 128.0.0.0","1440x900","1440x812",NA,NA,0,"Gambling_GBO",12,"In","GHFIEJDKCAB",NA,"In","MH_OCT","seq5","Gamble_Rand_Seq5","Gamble_Rand_Seq5",11,"Rating","Screen 1","hx8b5a",1,"continue","",1621.69999999851,1616.3,1621.69999999851,1621.69999999851,1616.3,1621.69999999851,1,1621.69999999851,0,0,NA,"Click To Continue","Continue Button",3,"object-25","Rating","happy","unhappy","happy",4,"",NA,NA,NA,NA,NA,"Right",NA,-6,NA,NA,NA,NA,-3,"MDPRF01388"
"57",1727179876544,"24/09/2024 12:11:16",1727183476544,1,"24/09/2024 14:11:16",187387,9,"task-nkoa",NA,40225832,11744067,NA,"complete",NA,"66f2a50985781d46121ce43d","computer","Desktop or Laptop","Mac OS 10.15.7","Chrome 128.0.0.0","1440x900","1440x812",NA,NA,0,"Gambling_GBO",12,"In","GHFIEJDKCAB",NA,"In","MH_OCT","seq5","Gamble_Rand_Seq5","Gamble_Rand_Seq5",11,"Rating","Screen 1","hx8b5a",1,"response","93",915.800000000003,1616.3,1627.3,915.800000000003,1616.3,1627.3,1,915.800000000003,711.5,0,NA,"Slider","MoodSlider",2,"object-243","Rating","happy","unhappy","happy",4,"",NA,NA,NA,NA,NA,"Right",NA,-6,NA,NA,NA,NA,-3,"MDPRF01388"
"58",1727179876555,"24/09/2024 12:11:16",1727183476555,1,"24/09/2024 14:11:16",187387,9,"task-nkoa",NA,40225832,11744067,NA,"complete",NA,"66f2a50985781d46121ce43d","computer","Desktop or Laptop","Mac OS 10.15.7","Chrome 128.0.0.0","1440x900","1440x812",NA,NA,0,"Gambling_GBO",12,"In","GHFIEJDKCAB",NA,"In","MH_OCT","seq5","Gamble_Rand_Seq5","Gamble_Rand_Seq5",12,"Rating","Screen 1","hx8b5a",1,"info","",16.3999999999942,0,16.3999999999942,16.3999999999942,0,16.3999999999942,1,16.3999999999942,0,0,NA,"Slider","MoodSlider",2,"object-243","Rating","bored","not bored","bored",4,"",NA,NA,NA,NA,NA,"Right",NA,-6,NA,NA,NA,NA,-3,"MDPRF01388"
"59",1727179878742,"24/09/2024 12:11:18",1727183478742,1,"24/09/2024 14:11:18",187387,9,"task-nkoa",NA,40225832,11744067,NA,"complete",NA,"66f2a50985781d46121ce43d","computer","Desktop or Laptop","Mac OS 10.15.7","Chrome 128.0.0.0","1440x900","1440x812",NA,NA,0,"Gambling_GBO",12,"In","GHFIEJDKCAB",NA,"In","MH_OCT","seq5","Gamble_Rand_Seq5","Gamble_Rand_Seq5",12,"Rating","Screen 1","hx8b5a",1,"continue","",2208.89999999851,2199.3,2208.89999999851,2208.89999999851,2199.3,2208.89999999851,1,2208.89999999851,0,0,NA,"Click To Continue","Continue Button",3,"object-25","Rating","bored","not bored","bored",4,"",NA,NA,NA,NA,NA,"Right",NA,-6,NA,NA,NA,NA,-3,"MDPRF01388"
"60",1727179878742,"24/09/2024 12:11:18",1727183478742,1,"24/09/2024 14:11:18",187387,9,"task-nkoa",NA,40225832,11744067,NA,"complete",NA,"66f2a50985781d46121ce43d","computer","Desktop or Laptop","Mac OS 10.15.7","Chrome 128.0.0.0","1440x900","1440x812",NA,NA,0,"Gambling_GBO",12,"In","GHFIEJDKCAB",NA,"In","MH_OCT","seq5","Gamble_Rand_Seq5","Gamble_Rand_Seq5",12,"Rating","Screen 1","hx8b5a",1,"response","6",1449.8,2199.3,2209.39999999851,1449.8,2199.3,2209.39999999851,1,1449.8,759.599999998507,0,NA,"Slider","MoodSlider",2,"object-243","Rating","bored","not bored","bored",4,"",NA,NA,NA,NA,NA,"Right",NA,-6,NA,NA,NA,NA,-3,"MDPRF01388"
"61",1727179880700,"24/09/2024 12:11:20",1727183480700,1,"24/09/2024 14:11:20",187387,9,"task-nkoa",NA,40225832,11744067,NA,"complete",NA,"66f2a50985781d46121ce43d","computer","Desktop or Laptop","Mac OS 10.15.7","Chrome 128.0.0.0","1440x900","1440x812",NA,NA,0,"Gambling_GBO",12,"In","GHFIEJDKCAB",NA,"In","MH_OCT","seq5","Gamble_Rand_Seq5","Gamble_Rand_Seq5",1,"lossT","Screen 1","2oxi65",1,"continue","",1967.39999999999,1967.39999999999,1967.39999999999,1967.39999999999,1967.39999999999,1967.39999999999,1,1967.39999999999,0,0,NA,"Fixation Timing","Fixation",1,"object-354","lossT","","","",NA,"Right",-4.67,-6,-2,4,NA,"Right",NA,-6,NA,NA,NA,NA,-3,"MDPRF01388"
"62",1727179883701,"24/09/2024 12:11:23",1727183483701,1,"24/09/2024 14:11:23",187387,9,"task-nkoa",NA,40225832,11744067,NA,"complete",NA,"66f2a50985781d46121ce43d","computer","Desktop or Laptop","Mac OS 10.15.7","Chrome 128.0.0.0","1440x900","1440x812",NA,NA,0,"Gambling_GBO",12,"In","GHFIEJDKCAB",NA,"In","MH_OCT","seq5","Gamble_Rand_Seq5","Gamble_Rand_Seq5",1,"lossT","choice","zjftf8",2,"response","Left",2999.2,2983,2999.2,2999.2,2983,2999.2,0,2999.2,0,0,NA,"Keyboard Response","KeyResponseC",5,"object-351","lossT","","","",NA,"Right",-4.67,-6,-2,4,NA,"Left",NA,-10.67,NA,NA,NA,NA,-4.67,"MDPRF01388"
"63",1727179888683,"24/09/2024 12:11:28",1727183488683,1,"24/09/2024 14:11:28",187387,9,"task-nkoa",NA,40225832,11744067,NA,"complete",NA,"66f2a50985781d46121ce43d","computer","Desktop or Laptop","Mac OS 10.15.7","Chrome 128.0.0.0","1440x900","1440x812",NA,NA,0,"Gambling_GBO",12,"In","GHFIEJDKCAB",NA,"In","MH_OCT","seq5","Gamble_Rand_Seq5","Gamble_Rand_Seq5",1,"lossT","certain","uaykj9",3,"timedOut","",5000.09999999702,4999.5,5000.09999999702,5000.09999999702,4999.5,5000.09999999702,1,5000.09999999702,0,0,NA,"Time Limit","screen",0,"screen","lossT","","","",NA,"Right",-4.67,-6,-2,4,NA,"Left",NA,-10.67,NA,NA,NA,NA,-4.67,"MDPRF01388"
"64",1727179888696,"24/09/2024 12:11:28",1727183488696,1,"24/09/2024 14:11:28",187387,9,"task-nkoa",NA,40225832,11744067,NA,"complete",NA,"66f2a50985781d46121ce43d","computer","Desktop or Laptop","Mac OS 10.15.7","Chrome 128.0.0.0","1440x900","1440x812",NA,NA,0,"Gambling_GBO",12,"In","GHFIEJDKCAB",NA,"In","MH_OCT","seq5","Gamble_Rand_Seq5","Gamble_Rand_Seq5",13,"Rating","Screen 1","hx8b5a",1,"info","",13.5999999970227,0,13.5999999970227,13.5999999970227,0,13.5999999970227,1,13.5999999970227,0,0,NA,"Slider","MoodSlider",2,"object-243","Rating","bored","not bored","bored",5,"",NA,NA,NA,NA,NA,"Left",NA,-10.67,NA,NA,NA,NA,-4.67,"MDPRF01388"
"65",1727179891713,"24/09/2024 12:11:31",1727183491713,1,"24/09/2024 14:11:31",187387,9,"task-nkoa",NA,40225832,11744067,NA,"complete",NA,"66f2a50985781d46121ce43d","computer","Desktop or Laptop","Mac OS 10.15.7","Chrome 128.0.0.0","1440x900","1440x812",NA,NA,0,"Gambling_GBO",12,"In","GHFIEJDKCAB",NA,"In","MH_OCT","seq5","Gamble_Rand_Seq5","Gamble_Rand_Seq5",13,"Rating","Screen 1","hx8b5a",1,"continue","",3030.59999999702,3017.5,3030.59999999702,3030.59999999702,3017.5,3030.59999999702,1,3030.59999999702,0,0,NA,"Click To Continue","Continue Button",3,"object-25","Rating","bored","not bored","bored",5,"",NA,NA,NA,NA,NA,"Left",NA,-10.67,NA,NA,NA,NA,-4.67,"MDPRF01388"
"66",1727179891713,"24/09/2024 12:11:31",1727183491713,1,"24/09/2024 14:11:31",187387,9,"task-nkoa",NA,40225832,11744067,NA,"complete",NA,"66f2a50985781d46121ce43d","computer","Desktop or Laptop","Mac OS 10.15.7","Chrome 128.0.0.0","1440x900","1440x812",NA,NA,0,"Gambling_GBO",12,"In","GHFIEJDKCAB",NA,"In","MH_OCT","seq5","Gamble_Rand_Seq5","Gamble_Rand_Seq5",13,"Rating","Screen 1","hx8b5a",1,"response","17",2217.2,3017.5,3031.09999999702,2217.2,3017.5,3031.09999999702,1,2217.2,813.899999997026,0,NA,"Slider","MoodSlider",2,"object-243","Rating","bored","not bored","bored",5,"",NA,NA,NA,NA,NA,"Left",NA,-10.67,NA,NA,NA,NA,-4.67,"MDPRF01388"
"67",1727179891723,"24/09/2024 12:11:31",1727183491723,1,"24/09/2024 14:11:31",187387,9,"task-nkoa",NA,40225832,11744067,NA,"complete",NA,"66f2a50985781d46121ce43d","computer","Desktop or Laptop","Mac OS 10.15.7","Chrome 128.0.0.0","1440x900","1440x812",NA,NA,0,"Gambling_GBO",12,"In","GHFIEJDKCAB",NA,"In","MH_OCT","seq5","Gamble_Rand_Seq5","Gamble_Rand_Seq5",14,"Rating","Screen 1","hx8b5a",1,"info","",17.3000000000029,0,17.3000000000029,17.3000000000029,0,17.3000000000029,1,17.3000000000029,0,0,NA,"Slider","MoodSlider",2,"object-243","Rating","happy","unhappy","happy",5,"",NA,NA,NA,NA,NA,"Left",NA,-10.67,NA,NA,NA,NA,-4.67,"MDPRF01388"
"68",1727179893704,"24/09/2024 12:11:33",1727183493704,1,"24/09/2024 14:11:33",187387,9,"task-nkoa",NA,40225832,11744067,NA,"complete",NA,"66f2a50985781d46121ce43d","computer","Desktop or Laptop","Mac OS 10.15.7","Chrome 128.0.0.0","1440x900","1440x812",NA,NA,0,"Gambling_GBO",12,"In","GHFIEJDKCAB",NA,"In","MH_OCT","seq5","Gamble_Rand_Seq5","Gamble_Rand_Seq5",14,"Rating","Screen 1","hx8b5a",1,"continue","",2003.89999999777,1999.7,2003.89999999777,2003.89999999777,1999.7,2003.89999999777,1,2003.89999999777,0,0,NA,"Click To Continue","Continue Button",3,"object-25","Rating","happy","unhappy","happy",5,"",NA,NA,NA,NA,NA,"Left",NA,-10.67,NA,NA,NA,NA,-4.67,"MDPRF01388"
"69",1727179893704,"24/09/2024 12:11:33",1727183493704,1,"24/09/2024 14:11:33",187387,9,"task-nkoa",NA,40225832,11744067,NA,"complete",NA,"66f2a50985781d46121ce43d","computer","Desktop or Laptop","Mac OS 10.15.7","Chrome 128.0.0.0","1440x900","1440x812",NA,NA,0,"Gambling_GBO",12,"In","GHFIEJDKCAB",NA,"In","MH_OCT","seq5","Gamble_Rand_Seq5","Gamble_Rand_Seq5",14,"Rating","Screen 1","hx8b5a",1,"response","72",1282.60000000001,1999.7,2004.3,1282.60000000001,1999.7,2004.3,1,1282.60000000001,721.699999999997,0,NA,"Slider","MoodSlider",2,"object-243","Rating","happy","unhappy","happy",5,"",NA,NA,NA,NA,NA,"Left",NA,-10.67,NA,NA,NA,NA,-4.67,"MDPRF01388"
"70",1727179893713,"24/09/2024 12:11:33",1727183493713,1,"24/09/2024 14:11:33",187387,9,"task-nkoa",NA,40225832,11744067,NA,"complete",NA,"66f2a50985781d46121ce43d","computer","Desktop or Laptop","Mac OS 10.15.7","Chrome 128.0.0.0","1440x900","1440x812",NA,NA,0,"Gambling_GBO",12,"In","GHFIEJDKCAB",NA,"In","MH_OCT","seq5","Gamble_Rand_Seq5","Gamble_Rand_Seq5",15,"Rating","Screen 1","hx8b5a",1,"info","",13.6000000000058,0,13.6000000000058,13.6000000000058,0,13.6000000000058,1,13.6000000000058,0,0,NA,"Slider","MoodSlider",2,"object-243","Rating","frustrated","not frustrated","frustrated",5,"",NA,NA,NA,NA,NA,"Left",NA,-10.67,NA,NA,NA,NA,-4.67,"MDPRF01388"
"71",1727179896571,"24/09/2024 12:11:36",1727183496571,1,"24/09/2024 14:11:36",187387,9,"task-nkoa",NA,40225832,11744067,NA,"complete",NA,"66f2a50985781d46121ce43d","computer","Desktop or Laptop","Mac OS 10.15.7","Chrome 128.0.0.0","1440x900","1440x812",NA,NA,0,"Gambling_GBO",12,"In","GHFIEJDKCAB",NA,"In","MH_OCT","seq5","Gamble_Rand_Seq5","Gamble_Rand_Seq5",15,"Rating","Screen 1","hx8b5a",1,"continue","",2870.69999999777,2866.90000000001,2870.69999999777,2870.69999999777,2866.90000000001,2870.69999999777,1,2870.69999999777,0,0,NA,"Click To Continue","Continue Button",3,"object-25","Rating","frustrated","not frustrated","frustrated",5,"",NA,NA,NA,NA,NA,"Left",NA,-10.67,NA,NA,NA,NA,-4.67,"MDPRF01388"
"72",1727179896571,"24/09/2024 12:11:36",1727183496571,1,"24/09/2024 14:11:36",187387,9,"task-nkoa",NA,40225832,11744067,NA,"complete",NA,"66f2a50985781d46121ce43d","computer","Desktop or Laptop","Mac OS 10.15.7","Chrome 128.0.0.0","1440x900","1440x812",NA,NA,0,"Gambling_GBO",12,"In","GHFIEJDKCAB",NA,"In","MH_OCT","seq5","Gamble_Rand_Seq5","Gamble_Rand_Seq5",15,"Rating","Screen 1","hx8b5a",1,"response","19",2183.60000000001,2866.90000000001,2871.39999999703,2183.60000000001,2866.90000000001,2871.39999999703,1,2183.60000000001,687.79999999702,0,NA,"Slider","MoodSlider",2,"object-243","Rating","frustrated","not frustrated","frustrated",5,"",NA,NA,NA,NA,NA,"Left",NA,-10.67,NA,NA,NA,NA,-4.67,"MDPRF01388"
"73",1727179898535,"24/09/2024 12:11:38",1727183498535,1,"24/09/2024 14:11:38",187387,9,"task-nkoa",NA,40225832,11744067,NA,"complete",NA,"66f2a50985781d46121ce43d","computer","Desktop or Laptop","Mac OS 10.15.7","Chrome 128.0.0.0","1440x900","1440x812",NA,NA,0,"Gambling_GBO",12,"In","GHFIEJDKCAB",NA,"In","MH_OCT","seq5","Gamble_Rand_Seq5","Gamble_Rand_Seq5",2,"lossT","Screen 1","2oxi65",1,"continue","",1966.09999999999,1966.09999999999,1966.09999999999,1966.09999999999,1966.09999999999,1966.09999999999,1,1966.09999999999,0,0,NA,"Fixation Timing","Fixation",1,"object-354","lossT","","","",NA,"Right",-4,-5,-2,5,NA,"Left",NA,-10.67,NA,NA,NA,NA,-4.67,"MDPRF01388"
"74",1727179901370,"24/09/2024 12:11:41",1727183501370,1,"24/09/2024 14:11:41",187387,9,"task-nkoa",NA,40225832,11744067,NA,"complete",NA,"66f2a50985781d46121ce43d","computer","Desktop or Laptop","Mac OS 10.15.7","Chrome 128.0.0.0","1440x900","1440x812",NA,NA,0,"Gambling_GBO",12,"In","GHFIEJDKCAB",NA,"In","MH_OCT","seq5","Gamble_Rand_Seq5","Gamble_Rand_Seq5",2,"lossT","choice","zjftf8",2,"response","Right",2835.99999999852,2833,2835.99999999852,2835.99999999852,2833,2835.99999999852,1,2835.99999999852,0,0,NA,"Keyboard Response","KeyResponseG",6,"object-352","lossT","","","",NA,"Right",-4,-5,-2,5,NA,"Right",NA,-15.67,NA,NA,NA,NA,-5,"MDPRF01388"
"75",1727179905367,"24/09/2024 12:11:45",1727183505367,1,"24/09/2024 14:11:45",187387,9,"task-nkoa",NA,40225832,11744067,NA,"complete",NA,"66f2a50985781d46121ce43d","computer","Desktop or Laptop","Mac OS 10.15.7","Chrome 128.0.0.0","1440x900","1440x812",NA,NA,0,"Gambling_GBO",12,"In","GHFIEJDKCAB",NA,"In","MH_OCT","seq5","Gamble_Rand_Seq5","Gamble_Rand_Seq5",2,"lossT","gamble","h5bf9r",3,"timedOut","",4001.39999999703,4000.8,4001.39999999703,4001.39999999703,4000.8,4001.39999999703,1,4001.39999999703,0,0,NA,"Time Limit","screen",0,"screen","lossT","","","",NA,"Right",-4,-5,-2,5,NA,"Right",NA,-15.67,NA,NA,NA,NA,-5,"MDPRF01388"
"76",1727179906368,"24/09/2024 12:11:46",1727183506368,1,"24/09/2024 14:11:46",187387,9,"task-nkoa",NA,40225832,11744067,NA,"complete",NA,"66f2a50985781d46121ce43d","computer","Desktop or Laptop","Mac OS 10.15.7","Chrome 128.0.0.0","1440x900","1440x812",NA,NA,0,"Gambling_GBO",12,"In","GHFIEJDKCAB",NA,"In","MH_OCT","seq5","Gamble_Rand_Seq5","Gamble_Rand_Seq5",2,"lossT","loss","kmnw8b",4,"timedOut","",1001.3,999.300000000003,1001.3,1001.3,999.300000000003,1001.3,1,1001.3,0,0,NA,"Time Limit","screen",0,"screen","lossT","","","",NA,"Right",-4,-5,-2,5,NA,"Right",NA,-15.67,NA,NA,NA,NA,-5,"MDPRF01388"
"77",1727179906379,"24/09/2024 12:11:46",1727183506379,1,"24/09/2024 14:11:46",187387,9,"task-nkoa",NA,40225832,11744067,NA,"complete",NA,"66f2a50985781d46121ce43d","computer","Desktop or Laptop","Mac OS 10.15.7","Chrome 128.0.0.0","1440x900","1440x812",NA,NA,0,"Gambling_GBO",12,"In","GHFIEJDKCAB",NA,"In","MH_OCT","seq5","Gamble_Rand_Seq5","Gamble_Rand_Seq5",16,"Rating","Screen 1","hx8b5a",1,"info","",13,0,13,13,0,13,1,13,0,0,NA,"Slider","MoodSlider",2,"object-243","Rating","bored","not bored","bored",6,"",NA,NA,NA,NA,NA,"Right",NA,-15.67,NA,NA,NA,NA,-5,"MDPRF01388"
"78",1727179908696,"24/09/2024 12:11:48",1727183508696,1,"24/09/2024 14:11:48",187387,9,"task-nkoa",NA,40225832,11744067,NA,"complete",NA,"66f2a50985781d46121ce43d","computer","Desktop or Laptop","Mac OS 10.15.7","Chrome 128.0.0.0","1440x900","1440x812",NA,NA,0,"Gambling_GBO",12,"In","GHFIEJDKCAB",NA,"In","MH_OCT","seq5","Gamble_Rand_Seq5","Gamble_Rand_Seq5",16,"Rating","Screen 1","hx8b5a",1,"continue","",2329.39999999851,2316.5,2329.39999999851,2329.39999999851,2316.5,2329.39999999851,1,2329.39999999851,0,0,NA,"Click To Continue","Continue Button",3,"object-25","Rating","bored","not bored","bored",6,"",NA,NA,NA,NA,NA,"Right",NA,-15.67,NA,NA,NA,NA,-5,"MDPRF01388"
"79",1727179908696,"24/09/2024 12:11:48",1727183508696,1,"24/09/2024 14:11:48",187387,9,"task-nkoa",NA,40225832,11744067,NA,"complete",NA,"66f2a50985781d46121ce43d","computer","Desktop or Laptop","Mac OS 10.15.7","Chrome 128.0.0.0","1440x900","1440x812",NA,NA,0,"Gambling_GBO",12,"In","GHFIEJDKCAB",NA,"In","MH_OCT","seq5","Gamble_Rand_Seq5","Gamble_Rand_Seq5",16,"Rating","Screen 1","hx8b5a",1,"response","17",1533.60000000001,2316.5,2330.09999999776,1533.60000000001,2316.5,2330.09999999776,1,1533.60000000001,796.499999997759,0,NA,"Slider","MoodSlider",2,"object-243","Rating","bored","not bored","bored",6,"",NA,NA,NA,NA,NA,"Right",NA,-15.67,NA,NA,NA,NA,-5,"MDPRF01388"
"80",1727179908707,"24/09/2024 12:11:48",1727183508707,1,"24/09/2024 14:11:48",187387,9,"task-nkoa",NA,40225832,11744067,NA,"complete",NA,"66f2a50985781d46121ce43d","computer","Desktop or Laptop","Mac OS 10.15.7","Chrome 128.0.0.0","1440x900","1440x812",NA,NA,0,"Gambling_GBO",12,"In","GHFIEJDKCAB",NA,"In","MH_OCT","seq5","Gamble_Rand_Seq5","Gamble_Rand_Seq5",17,"Rating","Screen 1","hx8b5a",1,"info","",15.8000000000029,0,15.8000000000029,15.8000000000029,0,15.8000000000029,1,15.8000000000029,0,0,NA,"Slider","MoodSlider",2,"object-243","Rating","frustrated","not frustrated","frustrated",6,"",NA,NA,NA,NA,NA,"Right",NA,-15.67,NA,NA,NA,NA,-5,"MDPRF01388"
"81",1727179911244,"24/09/2024 12:11:51",1727183511244,1,"24/09/2024 14:11:51",187387,9,"task-nkoa",NA,40225832,11744067,NA,"complete",NA,"66f2a50985781d46121ce43d","computer","Desktop or Laptop","Mac OS 10.15.7","Chrome 128.0.0.0","1440x900","1440x812",NA,NA,0,"Gambling_GBO",12,"In","GHFIEJDKCAB",NA,"In","MH_OCT","seq5","Gamble_Rand_Seq5","Gamble_Rand_Seq5",17,"Rating","Screen 1","hx8b5a",1,"continue","",2561.09999999776,2550.8,2561.09999999776,2561.09999999776,2550.8,2561.09999999776,1,2561.09999999776,0,0,NA,"Click To Continue","Continue Button",3,"object-25","Rating","frustrated","not frustrated","frustrated",6,"",NA,NA,NA,NA,NA,"Right",NA,-15.67,NA,NA,NA,NA,-5,"MDPRF01388"
"82",1727179911244,"24/09/2024 12:11:51",1727183511244,1,"24/09/2024 14:11:51",187387,9,"task-nkoa",NA,40225832,11744067,NA,"complete",NA,"66f2a50985781d46121ce43d","computer","Desktop or Laptop","Mac OS 10.15.7","Chrome 128.0.0.0","1440x900","1440x812",NA,NA,0,"Gambling_GBO",12,"In","GHFIEJDKCAB",NA,"In","MH_OCT","seq5","Gamble_Rand_Seq5","Gamble_Rand_Seq5",17,"Rating","Screen 1","hx8b5a",1,"response","85",1117.39999999999,2550.8,2561.59999999776,1117.39999999999,2550.8,2561.59999999776,1,1117.39999999999,1444.19999999777,0,NA,"Slider","MoodSlider",2,"object-243","Rating","frustrated","not frustrated","frustrated",6,"",NA,NA,NA,NA,NA,"Right",NA,-15.67,NA,NA,NA,NA,-5,"MDPRF01388"
"83",1727179911254,"24/09/2024 12:11:51",1727183511254,1,"24/09/2024 14:11:51",187387,9,"task-nkoa",NA,40225832,11744067,NA,"complete",NA,"66f2a50985781d46121ce43d","computer","Desktop or Laptop","Mac OS 10.15.7","Chrome 128.0.0.0","1440x900","1440x812",NA,NA,0,"Gambling_GBO",12,"In","GHFIEJDKCAB",NA,"In","MH_OCT","seq5","Gamble_Rand_Seq5","Gamble_Rand_Seq5",18,"Rating","Screen 1","hx8b5a",1,"info","",17.6999999999971,0,17.6999999999971,17.6999999999971,0,17.6999999999971,1,17.6999999999971,0,0,NA,"Slider","MoodSlider",2,"object-243","Rating","happy","unhappy","happy",6,"",NA,NA,NA,NA,NA,"Right",NA,-15.67,NA,NA,NA,NA,-5,"MDPRF01388"
"84",1727179913564,"24/09/2024 12:11:53",1727183513564,1,"24/09/2024 14:11:53",187387,9,"task-nkoa",NA,40225832,11744067,NA,"complete",NA,"66f2a50985781d46121ce43d","computer","Desktop or Laptop","Mac OS 10.15.7","Chrome 128.0.0.0","1440x900","1440x812",NA,NA,0,"Gambling_GBO",12,"In","GHFIEJDKCAB",NA,"In","MH_OCT","seq5","Gamble_Rand_Seq5","Gamble_Rand_Seq5",18,"Rating","Screen 1","hx8b5a",1,"continue","",2329.89999999925,2316.7,2329.89999999925,2329.89999999925,2316.7,2329.89999999925,1,2329.89999999925,0,0,NA,"Click To Continue","Continue Button",3,"object-25","Rating","happy","unhappy","happy",6,"",NA,NA,NA,NA,NA,"Right",NA,-15.67,NA,NA,NA,NA,-5,"MDPRF01388"
"85",1727179913571,"24/09/2024 12:11:53",1727183513571,1,"24/09/2024 14:11:53",187387,9,"task-nkoa",NA,40225832,11744067,NA,"complete",NA,"66f2a50985781d46121ce43d","computer","Desktop or Laptop","Mac OS 10.15.7","Chrome 128.0.0.0","1440x900","1440x812",NA,NA,0,"Gambling_GBO",12,"In","GHFIEJDKCAB",NA,"In","MH_OCT","seq5","Gamble_Rand_Seq5","Gamble_Rand_Seq5",18,"Rating","Screen 1","hx8b5a",1,"response","12",1382.8,2316.7,2333.40000000001,1382.8,2316.7,2333.40000000001,1,1382.8,950.600000000006,0,NA,"Slider","MoodSlider",2,"object-243","Rating","happy","unhappy","happy",6,"",NA,NA,NA,NA,NA,"Right",NA,-15.67,NA,NA,NA,NA,-5,"MDPRF01388"
"86",1727179915518,"24/09/2024 12:11:55",1727183515518,1,"24/09/2024 14:11:55",187387,9,"task-nkoa",NA,40225832,11744067,NA,"complete",NA,"66f2a50985781d46121ce43d","computer","Desktop or Laptop","Mac OS 10.15.7","Chrome 128.0.0.0","1440x900","1440x812",NA,NA,0,"Gambling_GBO",12,"In","GHFIEJDKCAB",NA,"In","MH_OCT","seq5","Gamble_Rand_Seq5","Gamble_Rand_Seq5",2,"winT","Screen 1","np5pnj",1,"continue","",1966.29999999999,1966.29999999999,1966.29999999999,1966.29999999999,1966.29999999999,1966.29999999999,1,1966.29999999999,0,0,NA,"Fixation Timing","Fixation",1,"object-304","winT","","","",NA,"Right",2.33,2,3,6,NA,"Right",NA,-15.67,NA,NA,NA,NA,-5,"MDPRF01388"
"87",1727179916968,"24/09/2024 12:11:56",1727183516968,1,"24/09/2024 14:11:56",187387,9,"task-nkoa",NA,40225832,11744067,NA,"complete",NA,"66f2a50985781d46121ce43d","computer","Desktop or Laptop","Mac OS 10.15.7","Chrome 128.0.0.0","1440x900","1440x812",NA,NA,0,"Gambling_GBO",12,"In","GHFIEJDKCAB",NA,"In","MH_OCT","seq5","Gamble_Rand_Seq5","Gamble_Rand_Seq5",2,"winT","choice","gu8zgx",2,"response","Right",1450.79999999778,1449.40000000002,1450.79999999778,1450.79999999778,1449.40000000002,1450.79999999778,1,1450.79999999778,0,0,NA,"Keyboard Response","KeyResponseG",6,"object-326","winT","","","",NA,"Right",2.33,2,3,6,NA,"Right",NA,-12.67,NA,NA,NA,NA,3,"MDPRF01388"
"88",1727179920968,"24/09/2024 12:12:00",1727183520968,1,"24/09/2024 14:12:00",187387,9,"task-nkoa",NA,40225832,11744067,NA,"complete",NA,"66f2a50985781d46121ce43d","computer","Desktop or Laptop","Mac OS 10.15.7","Chrome 128.0.0.0","1440x900","1440x812",NA,NA,0,"Gambling_GBO",12,"In","GHFIEJDKCAB",NA,"In","MH_OCT","seq5","Gamble_Rand_Seq5","Gamble_Rand_Seq5",2,"winT","gamble","1lb69u",3,"timedOut","",4001.49999999924,4000.79999999999,4001.49999999924,4001.49999999924,4000.79999999999,4001.49999999924,1,4001.49999999924,0,0,NA,"Time Limit","screen",0,"screen","winT","","","",NA,"Right",2.33,2,3,6,NA,"Right",NA,-12.67,NA,NA,NA,NA,3,"MDPRF01388"
"89",1727179921967,"24/09/2024 12:12:01",1727183521967,1,"24/09/2024 14:12:01",187387,9,"task-nkoa",NA,40225832,11744067,NA,"complete",NA,"66f2a50985781d46121ce43d","computer","Desktop or Laptop","Mac OS 10.15.7","Chrome 128.0.0.0","1440x900","1440x812",NA,NA,0,"Gambling_GBO",12,"In","GHFIEJDKCAB",NA,"In","MH_OCT","seq5","Gamble_Rand_Seq5","Gamble_Rand_Seq5",2,"winT","win","dhtsbv",4,"timedOut","",1000.39999999851,1000,1000.39999999851,1000.39999999851,1000,1000.39999999851,1,1000.39999999851,0,0,NA,"Time Limit","screen",0,"screen","winT","","","",NA,"Right",2.33,2,3,6,NA,"Right",NA,-12.67,NA,NA,NA,NA,3,"MDPRF01388"
"90",1727179921979,"24/09/2024 12:12:01",1727183521979,1,"24/09/2024 14:12:01",187387,9,"task-nkoa",NA,40225832,11744067,NA,"complete",NA,"66f2a50985781d46121ce43d","computer","Desktop or Laptop","Mac OS 10.15.7","Chrome 128.0.0.0","1440x900","1440x812",NA,NA,0,"Gambling_GBO",12,"In","GHFIEJDKCAB",NA,"In","MH_OCT","seq5","Gamble_Rand_Seq5","Gamble_Rand_Seq5",19,"Rating","Screen 1","hx8b5a",1,"info","",12.0999999977648,0,12.0999999977648,12.0999999977648,0,12.0999999977648,1,12.0999999977648,0,0,NA,"Slider","MoodSlider",2,"object-243","Rating","frustrated","not frustrated","frustrated",7,"",NA,NA,NA,NA,NA,"Right",NA,-12.67,NA,NA,NA,NA,3,"MDPRF01388"
"91",1727179924063,"24/09/2024 12:12:04",1727183524063,1,"24/09/2024 14:12:04",187387,9,"task-nkoa",NA,40225832,11744067,NA,"complete",NA,"66f2a50985781d46121ce43d","computer","Desktop or Laptop","Mac OS 10.15.7","Chrome 128.0.0.0","1440x900","1440x812",NA,NA,0,"Gambling_GBO",12,"In","GHFIEJDKCAB",NA,"In","MH_OCT","seq5","Gamble_Rand_Seq5","Gamble_Rand_Seq5",19,"Rating","Screen 1","hx8b5a",1,"continue","",2096,2082.29999999999,2096,2096,2082.29999999999,2096,1,2096,0,0,NA,"Click To Continue","Continue Button",3,"object-25","Rating","frustrated","not frustrated","frustrated",7,"",NA,NA,NA,NA,NA,"Right",NA,-12.67,NA,NA,NA,NA,3,"MDPRF01388"
"92",1727179924065,"24/09/2024 12:12:04",1727183524065,1,"24/09/2024 14:12:04",187387,9,"task-nkoa",NA,40225832,11744067,NA,"complete",NA,"66f2a50985781d46121ce43d","computer","Desktop or Laptop","Mac OS 10.15.7","Chrome 128.0.0.0","1440x900","1440x812",NA,NA,0,"Gambling_GBO",12,"In","GHFIEJDKCAB",NA,"In","MH_OCT","seq5","Gamble_Rand_Seq5","Gamble_Rand_Seq5",19,"Rating","Screen 1","hx8b5a",1,"response","10",1399.60000000001,2082.29999999999,2098.09999999776,1399.60000000001,2082.29999999999,2098.09999999776,1,1399.60000000001,698.499999997759,0,NA,"Slider","MoodSlider",2,"object-243","Rating","frustrated","not frustrated","frustrated",7,"",NA,NA,NA,NA,NA,"Right",NA,-12.67,NA,NA,NA,NA,3,"MDPRF01388"
"93",1727179924071,"24/09/2024 12:12:04",1727183524071,1,"24/09/2024 14:12:04",187387,9,"task-nkoa",NA,40225832,11744067,NA,"complete",NA,"66f2a50985781d46121ce43d","computer","Desktop or Laptop","Mac OS 10.15.7","Chrome 128.0.0.0","1440x900","1440x812",NA,NA,0,"Gambling_GBO",12,"In","GHFIEJDKCAB",NA,"In","MH_OCT","seq5","Gamble_Rand_Seq5","Gamble_Rand_Seq5",20,"Rating","Screen 1","hx8b5a",1,"info","",15.8999999999942,0,15.8999999999942,15.8999999999942,0,15.8999999999942,1,15.8999999999942,0,0,NA,"Slider","MoodSlider",2,"object-243","Rating","bored","not bored","bored",7,"",NA,NA,NA,NA,NA,"Right",NA,-12.67,NA,NA,NA,NA,3,"MDPRF01388"
"94",1727179926607,"24/09/2024 12:12:06",1727183526607,1,"24/09/2024 14:12:06",187387,9,"task-nkoa",NA,40225832,11744067,NA,"complete",NA,"66f2a50985781d46121ce43d","computer","Desktop or Laptop","Mac OS 10.15.7","Chrome 128.0.0.0","1440x900","1440x812",NA,NA,0,"Gambling_GBO",12,"In","GHFIEJDKCAB",NA,"In","MH_OCT","seq5","Gamble_Rand_Seq5","Gamble_Rand_Seq5",20,"Rating","Screen 1","hx8b5a",1,"continue","",2557.39999999927,2550.20000000001,2557.39999999927,2557.39999999927,2550.20000000001,2557.39999999927,1,2557.39999999927,0,0,NA,"Click To Continue","Continue Button",3,"object-25","Rating","bored","not bored","bored",7,"",NA,NA,NA,NA,NA,"Right",NA,-12.67,NA,NA,NA,NA,3,"MDPRF01388"
"95",1727179926607,"24/09/2024 12:12:06",1727183526607,1,"24/09/2024 14:12:06",187387,9,"task-nkoa",NA,40225832,11744067,NA,"complete",NA,"66f2a50985781d46121ce43d","computer","Desktop or Laptop","Mac OS 10.15.7","Chrome 128.0.0.0","1440x900","1440x812",NA,NA,0,"Gambling_GBO",12,"In","GHFIEJDKCAB",NA,"In","MH_OCT","seq5","Gamble_Rand_Seq5","Gamble_Rand_Seq5",20,"Rating","Screen 1","hx8b5a",1,"response","10",1801,2550.20000000001,2557.89999999927,1801,2550.20000000001,2557.89999999927,1,1801,756.899999999267,0,NA,"Slider","MoodSlider",2,"object-243","Rating","bored","not bored","bored",7,"",NA,NA,NA,NA,NA,"Right",NA,-12.67,NA,NA,NA,NA,3,"MDPRF01388"
"96",1727179926616,"24/09/2024 12:12:06",1727183526616,1,"24/09/2024 14:12:06",187387,9,"task-nkoa",NA,40225832,11744067,NA,"complete",NA,"66f2a50985781d46121ce43d","computer","Desktop or Laptop","Mac OS 10.15.7","Chrome 128.0.0.0","1440x900","1440x812",NA,NA,0,"Gambling_GBO",12,"In","GHFIEJDKCAB",NA,"In","MH_OCT","seq5","Gamble_Rand_Seq5","Gamble_Rand_Seq5",21,"Rating","Screen 1","hx8b5a",1,"info","",16,0,16,16,0,16,1,16,0,0,NA,"Slider","MoodSlider",2,"object-243","Rating","happy","unhappy","happy",7,"",NA,NA,NA,NA,NA,"Right",NA,-12.67,NA,NA,NA,NA,3,"MDPRF01388"
"97",1727179928349,"24/09/2024 12:12:08",1727183528349,1,"24/09/2024 14:12:08",187387,9,"task-nkoa",NA,40225832,11744067,NA,"complete",NA,"66f2a50985781d46121ce43d","computer","Desktop or Laptop","Mac OS 10.15.7","Chrome 128.0.0.0","1440x900","1440x812",NA,NA,0,"Gambling_GBO",12,"In","GHFIEJDKCAB",NA,"In","MH_OCT","seq5","Gamble_Rand_Seq5","Gamble_Rand_Seq5",21,"Rating","Screen 1","hx8b5a",1,"continue","",1749.29999999999,1733.29999999999,1749.29999999999,1749.29999999999,1733.29999999999,1749.29999999999,1,1749.29999999999,0,0,NA,"Click To Continue","Continue Button",3,"object-25","Rating","happy","unhappy","happy",7,"",NA,NA,NA,NA,NA,"Right",NA,-12.67,NA,NA,NA,NA,3,"MDPRF01388"
"98",1727179928350,"24/09/2024 12:12:08",1727183528350,1,"24/09/2024 14:12:08",187387,9,"task-nkoa",NA,40225832,11744067,NA,"complete",NA,"66f2a50985781d46121ce43d","computer","Desktop or Laptop","Mac OS 10.15.7","Chrome 128.0.0.0","1440x900","1440x812",NA,NA,0,"Gambling_GBO",12,"In","GHFIEJDKCAB",NA,"In","MH_OCT","seq5","Gamble_Rand_Seq5","Gamble_Rand_Seq5",21,"Rating","Screen 1","hx8b5a",1,"response","93",983.600000000006,1733.29999999999,1749.29999999999,983.600000000006,1733.29999999999,1749.29999999999,1,983.600000000006,765.699999999983,0,NA,"Slider","MoodSlider",2,"object-243","Rating","happy","unhappy","happy",7,"",NA,NA,NA,NA,NA,"Right",NA,-12.67,NA,NA,NA,NA,3,"MDPRF01388"
"99",1727179930302,"24/09/2024 12:12:10",1727183530302,1,"24/09/2024 14:12:10",187387,9,"task-nkoa",NA,40225832,11744067,NA,"complete",NA,"66f2a50985781d46121ce43d","computer","Desktop or Laptop","Mac OS 10.15.7","Chrome 128.0.0.0","1440x900","1440x812",NA,NA,0,"Gambling_GBO",12,"In","GHFIEJDKCAB",NA,"In","MH_OCT","seq5","Gamble_Rand_Seq5","Gamble_Rand_Seq5",3,"lossB","Screen 1","a4fynh",1,"continue","",1966.70000000001,1966.70000000001,1966.70000000001,1966.70000000001,1966.70000000001,1966.70000000001,1,1966.70000000001,0,0,NA,"Fixation Timing","Fixation",1,"object-113","lossB","","","",NA,"Right",-4.33,-5,-3,7,NA,"Right",NA,-12.67,NA,NA,NA,NA,3,"MDPRF01388"
"100",1727179934327,"24/09/2024 12:12:14",1727183534327,1,"24/09/2024 14:12:14",187387,9,"task-nkoa",NA,40225832,11744067,NA,"complete",NA,"66f2a50985781d46121ce43d","computer","Desktop or Laptop","Mac OS 10.15.7","Chrome 128.0.0.0","1440x900","1440x812",NA,NA,0,"Gambling_GBO",12,"In","GHFIEJDKCAB",NA,"In","MH_OCT","seq5","Gamble_Rand_Seq5","Gamble_Rand_Seq5",3,"lossB","choice","k9qq8f",2,"response","Right",4026.29999999702,4016.5,4026.29999999702,4026.29999999702,4016.5,4026.29999999702,1,4026.29999999702,0,0,NA,"Keyboard Response","KeyResponseG",6,"object-200","lossB","","","",NA,"Right",-4.33,-5,-3,7,NA,"Right",NA,-17.67,NA,NA,NA,NA,-5,"MDPRF01388"
"101",1727179938318,"24/09/2024 12:12:18",1727183538318,1,"24/09/2024 14:12:18",187387,9,"task-nkoa",NA,40225832,11744067,NA,"complete",NA,"66f2a50985781d46121ce43d","computer","Desktop or Laptop","Mac OS 10.15.7","Chrome 128.0.0.0","1440x900","1440x812",NA,NA,0,"Gambling_GBO",12,"In","GHFIEJDKCAB",NA,"In","MH_OCT","seq5","Gamble_Rand_Seq5","Gamble_Rand_Seq5",3,"lossB","gamble","tpcid5",3,"timedOut","",4001.29999999702,4000.70000000001,4001.29999999702,4001.29999999702,4000.70000000001,4001.29999999702,1,4001.29999999702,0,0,NA,"Time Limit","screen",0,"screen","lossB","","","",NA,"Right",-4.33,-5,-3,7,NA,"Right",NA,-17.67,NA,NA,NA,NA,-5,"MDPRF01388"
"102",1727179939318,"24/09/2024 12:12:19",1727183539318,1,"24/09/2024 14:12:19",187387,9,"task-nkoa",NA,40225832,11744067,NA,"complete",NA,"66f2a50985781d46121ce43d","computer","Desktop or Laptop","Mac OS 10.15.7","Chrome 128.0.0.0","1440x900","1440x812",NA,NA,0,"Gambling_GBO",12,"In","GHFIEJDKCAB",NA,"In","MH_OCT","seq5","Gamble_Rand_Seq5","Gamble_Rand_Seq5",3,"lossB","loss","2apfzp",4,"timedOut","",1000.39999999775,999.799999999988,1000.39999999775,1000.39999999775,999.799999999988,1000.39999999775,1,1000.39999999775,0,0,NA,"Time Limit","screen",0,"screen","lossB","","","",NA,"Right",-4.33,-5,-3,7,NA,"Right",NA,-17.67,NA,NA,NA,NA,-5,"MDPRF01388"
"103",1727179939329,"24/09/2024 12:12:19",1727183539329,1,"24/09/2024 14:12:19",187387,9,"task-nkoa",NA,40225832,11744067,NA,"complete",NA,"66f2a50985781d46121ce43d","computer","Desktop or Laptop","Mac OS 10.15.7","Chrome 128.0.0.0","1440x900","1440x812",NA,NA,0,"Gambling_GBO",12,"In","GHFIEJDKCAB",NA,"In","MH_OCT","seq5","Gamble_Rand_Seq5","Gamble_Rand_Seq5",22,"Rating","Screen 1","hx8b5a",1,"info","",12.5,0,12.5,12.5,0,12.5,1,12.5,0,0,NA,"Slider","MoodSlider",2,"object-243","Rating","happy","unhappy","happy",8,"",NA,NA,NA,NA,NA,"Right",NA,-17.67,NA,NA,NA,NA,-5,"MDPRF01388"
"104",1727179941118,"24/09/2024 12:12:21",1727183541118,1,"24/09/2024 14:12:21",187387,9,"task-nkoa",NA,40225832,11744067,NA,"complete",NA,"66f2a50985781d46121ce43d","computer","Desktop or Laptop","Mac OS 10.15.7","Chrome 128.0.0.0","1440x900","1440x812",NA,NA,0,"Gambling_GBO",12,"In","GHFIEJDKCAB",NA,"In","MH_OCT","seq5","Gamble_Rand_Seq5","Gamble_Rand_Seq5",22,"Rating","Screen 1","hx8b5a",1,"continue","",1798.60000000003,1782.70000000001,1798.60000000003,1798.60000000003,1782.70000000001,1798.60000000003,1,1798.60000000003,0,0,NA,"Click To Continue","Continue Button",3,"object-25","Rating","happy","unhappy","happy",8,"",NA,NA,NA,NA,NA,"Right",NA,-17.67,NA,NA,NA,NA,-5,"MDPRF01388"
"105",1727179941118,"24/09/2024 12:12:21",1727183541118,1,"24/09/2024 14:12:21",187387,9,"task-nkoa",NA,40225832,11744067,NA,"complete",NA,"66f2a50985781d46121ce43d","computer","Desktop or Laptop","Mac OS 10.15.7","Chrome 128.0.0.0","1440x900","1440x812",NA,NA,0,"Gambling_GBO",12,"In","GHFIEJDKCAB",NA,"In","MH_OCT","seq5","Gamble_Rand_Seq5","Gamble_Rand_Seq5",22,"Rating","Screen 1","hx8b5a",1,"response","15",1100.29999999999,1782.70000000001,1798.60000000003,1100.29999999999,1782.70000000001,1798.60000000003,1,1100.29999999999,698.300000000047,0,NA,"Slider","MoodSlider",2,"object-243","Rating","happy","unhappy","happy",8,"",NA,NA,NA,NA,NA,"Right",NA,-17.67,NA,NA,NA,NA,-5,"MDPRF01388"
"106",1727179941128,"24/09/2024 12:12:21",1727183541128,1,"24/09/2024 14:12:21",187387,9,"task-nkoa",NA,40225832,11744067,NA,"complete",NA,"66f2a50985781d46121ce43d","computer","Desktop or Laptop","Mac OS 10.15.7","Chrome 128.0.0.0","1440x900","1440x812",NA,NA,0,"Gambling_GBO",12,"In","GHFIEJDKCAB",NA,"In","MH_OCT","seq5","Gamble_Rand_Seq5","Gamble_Rand_Seq5",23,"Rating","Screen 1","hx8b5a",1,"info","",15.9000000000233,0,15.9000000000233,15.9000000000233,0,15.9000000000233,1,15.9000000000233,0,0,NA,"Slider","MoodSlider",2,"object-243","Rating","bored","not bored","bored",8,"",NA,NA,NA,NA,NA,"Right",NA,-17.67,NA,NA,NA,NA,-5,"MDPRF01388"
"107",1727179942967,"24/09/2024 12:12:22",1727183542967,1,"24/09/2024 14:12:22",187387,9,"task-nkoa",NA,40225832,11744067,NA,"complete",NA,"66f2a50985781d46121ce43d","computer","Desktop or Laptop","Mac OS 10.15.7","Chrome 128.0.0.0","1440x900","1440x812",NA,NA,0,"Gambling_GBO",12,"In","GHFIEJDKCAB",NA,"In","MH_OCT","seq5","Gamble_Rand_Seq5","Gamble_Rand_Seq5",23,"Rating","Screen 1","hx8b5a",1,"continue","",1866.39999999999,1850.29999999999,1866.39999999999,1866.39999999999,1850.29999999999,1866.39999999999,1,1866.39999999999,0,0,NA,"Click To Continue","Continue Button",3,"object-25","Rating","bored","not bored","bored",8,"",NA,NA,NA,NA,NA,"Right",NA,-17.67,NA,NA,NA,NA,-5,"MDPRF01388"
"108",1727179942968,"24/09/2024 12:12:22",1727183542968,1,"24/09/2024 14:12:22",187387,9,"task-nkoa",NA,40225832,11744067,NA,"complete",NA,"66f2a50985781d46121ce43d","computer","Desktop or Laptop","Mac OS 10.15.7","Chrome 128.0.0.0","1440x900","1440x812",NA,NA,0,"Gambling_GBO",12,"In","GHFIEJDKCAB",NA,"In","MH_OCT","seq5","Gamble_Rand_Seq5","Gamble_Rand_Seq5",23,"Rating","Screen 1","hx8b5a",1,"response","14",1117.5,1850.29999999999,1866.39999999999,1117.5,1850.29999999999,1866.39999999999,1,1117.5,748.899999999994,0,NA,"Slider","MoodSlider",2,"object-243","Rating","bored","not bored","bored",8,"",NA,NA,NA,NA,NA,"Right",NA,-17.67,NA,NA,NA,NA,-5,"MDPRF01388"
"109",1727179942975,"24/09/2024 12:12:22",1727183542975,1,"24/09/2024 14:12:22",187387,9,"task-nkoa",NA,40225832,11744067,NA,"complete",NA,"66f2a50985781d46121ce43d","computer","Desktop or Laptop","Mac OS 10.15.7","Chrome 128.0.0.0","1440x900","1440x812",NA,NA,0,"Gambling_GBO",12,"In","GHFIEJDKCAB",NA,"In","MH_OCT","seq5","Gamble_Rand_Seq5","Gamble_Rand_Seq5",24,"Rating","Screen 1","hx8b5a",1,"info","",16.1000000000058,0,16.1000000000058,16.1000000000058,0,16.1000000000058,1,16.1000000000058,0,0,NA,"Slider","MoodSlider",2,"object-243","Rating","frustrated","not frustrated","frustrated",8,"",NA,NA,NA,NA,NA,"Right",NA,-17.67,NA,NA,NA,NA,-5,"MDPRF01388"
"110",1727179945128,"24/09/2024 12:12:25",1727183545128,1,"24/09/2024 14:12:25",187387,9,"task-nkoa",NA,40225832,11744067,NA,"complete",NA,"66f2a50985781d46121ce43d","computer","Desktop or Laptop","Mac OS 10.15.7","Chrome 128.0.0.0","1440x900","1440x812",NA,NA,0,"Gambling_GBO",12,"In","GHFIEJDKCAB",NA,"In","MH_OCT","seq5","Gamble_Rand_Seq5","Gamble_Rand_Seq5",24,"Rating","Screen 1","hx8b5a",1,"continue","",2178.09999999776,2166.39999999999,2178.09999999776,2178.09999999776,2166.39999999999,2178.09999999776,1,2178.09999999776,0,0,NA,"Click To Continue","Continue Button",3,"object-25","Rating","frustrated","not frustrated","frustrated",8,"",NA,NA,NA,NA,NA,"Right",NA,-17.67,NA,NA,NA,NA,-5,"MDPRF01388"
"111",1727179945135,"24/09/2024 12:12:25",1727183545135,1,"24/09/2024 14:12:25",187387,9,"task-nkoa",NA,40225832,11744067,NA,"complete",NA,"66f2a50985781d46121ce43d","computer","Desktop or Laptop","Mac OS 10.15.7","Chrome 128.0.0.0","1440x900","1440x812",NA,NA,0,"Gambling_GBO",12,"In","GHFIEJDKCAB",NA,"In","MH_OCT","seq5","Gamble_Rand_Seq5","Gamble_Rand_Seq5",24,"Rating","Screen 1","hx8b5a",1,"response","91",1449.79999999999,2166.39999999999,2183.09999999998,1449.79999999999,2166.39999999999,2183.09999999998,1,1449.79999999999,733.299999999988,0,NA,"Slider","MoodSlider",2,"object-243","Rating","frustrated","not frustrated","frustrated",8,"",NA,NA,NA,NA,NA,"Right",NA,-17.67,NA,NA,NA,NA,-5,"MDPRF01388"
"112",1727179947084,"24/09/2024 12:12:27",1727183547084,1,"24/09/2024 14:12:27",187387,9,"task-nkoa",NA,40225832,11744067,NA,"complete",NA,"66f2a50985781d46121ce43d","computer","Desktop or Laptop","Mac OS 10.15.7","Chrome 128.0.0.0","1440x900","1440x812",NA,NA,0,"Gambling_GBO",12,"In","GHFIEJDKCAB",NA,"In","MH_OCT","seq5","Gamble_Rand_Seq5","Gamble_Rand_Seq5",3,"lossT","Screen 1","2oxi65",1,"continue","",1966.70000000001,1966.70000000001,1966.70000000001,1966.70000000001,1966.70000000001,1966.70000000001,1,1966.70000000001,0,0,NA,"Fixation Timing","Fixation",1,"object-354","lossT","","","",NA,"Right",-2.33,-3,-1,8,NA,"Right",NA,-17.67,NA,NA,NA,NA,-5,"MDPRF01388"
"113",1727179948870,"24/09/2024 12:12:28",1727183548870,1,"24/09/2024 14:12:28",187387,9,"task-nkoa",NA,40225832,11744067,NA,"complete",NA,"66f2a50985781d46121ce43d","computer","Desktop or Laptop","Mac OS 10.15.7","Chrome 128.0.0.0","1440x900","1440x812",NA,NA,0,"Gambling_GBO",12,"In","GHFIEJDKCAB",NA,"In","MH_OCT","seq5","Gamble_Rand_Seq5","Gamble_Rand_Seq5",3,"lossT","choice","zjftf8",2,"response","Right",1785.89999999999,1783.10000000001,1785.89999999999,1785.89999999999,1783.10000000001,1785.89999999999,1,1785.89999999999,0,0,NA,"Keyboard Response","KeyResponseG",6,"object-352","lossT","","","",NA,"Right",-2.33,-3,-1,8,NA,"Right",NA,-20.67,NA,NA,NA,NA,-3,"MDPRF01388"
"114",1727179952868,"24/09/2024 12:12:32",1727183552868,1,"24/09/2024 14:12:32",187387,9,"task-nkoa",NA,40225832,11744067,NA,"complete",NA,"66f2a50985781d46121ce43d","computer","Desktop or Laptop","Mac OS 10.15.7","Chrome 128.0.0.0","1440x900","1440x812",NA,NA,0,"Gambling_GBO",12,"In","GHFIEJDKCAB",NA,"In","MH_OCT","seq5","Gamble_Rand_Seq5","Gamble_Rand_Seq5",3,"lossT","gamble","h5bf9r",3,"timedOut","",4001.39999999775,3999.89999999999,4001.39999999775,4001.39999999775,3999.89999999999,4001.39999999775,1,4001.39999999775,0,0,NA,"Time Limit","screen",0,"screen","lossT","","","",NA,"Right",-2.33,-3,-1,8,NA,"Right",NA,-20.67,NA,NA,NA,NA,-3,"MDPRF01388"
"115",1727179953868,"24/09/2024 12:12:33",1727183553868,1,"24/09/2024 14:12:33",187387,9,"task-nkoa",NA,40225832,11744067,NA,"complete",NA,"66f2a50985781d46121ce43d","computer","Desktop or Laptop","Mac OS 10.15.7","Chrome 128.0.0.0","1440x900","1440x812",NA,NA,0,"Gambling_GBO",12,"In","GHFIEJDKCAB",NA,"In","MH_OCT","seq5","Gamble_Rand_Seq5","Gamble_Rand_Seq5",3,"lossT","loss","kmnw8b",4,"timedOut","",1001.49999999776,1001,1001.49999999776,1001.49999999776,1001,1001.49999999776,1,1001.49999999776,0,0,NA,"Time Limit","screen",0,"screen","lossT","","","",NA,"Right",-2.33,-3,-1,8,NA,"Right",NA,-20.67,NA,NA,NA,NA,-3,"MDPRF01388"
"116",1727179953881,"24/09/2024 12:12:33",1727183553881,1,"24/09/2024 14:12:33",187387,9,"task-nkoa",NA,40225832,11744067,NA,"complete",NA,"66f2a50985781d46121ce43d","computer","Desktop or Laptop","Mac OS 10.15.7","Chrome 128.0.0.0","1440x900","1440x812",NA,NA,0,"Gambling_GBO",12,"In","GHFIEJDKCAB",NA,"In","MH_OCT","seq5","Gamble_Rand_Seq5","Gamble_Rand_Seq5",25,"Rating","Screen 1","hx8b5a",1,"info","",13.999999997759,0,13.999999997759,13.999999997759,0,13.999999997759,1,13.999999997759,0,0,NA,"Slider","MoodSlider",2,"object-243","Rating","frustrated","not frustrated","frustrated",9,"",NA,NA,NA,NA,NA,"Right",NA,-20.67,NA,NA,NA,NA,-3,"MDPRF01388"
"117",1727179956658,"24/09/2024 12:12:36",1727183556658,1,"24/09/2024 14:12:36",187387,9,"task-nkoa",NA,40225832,11744067,NA,"complete",NA,"66f2a50985781d46121ce43d","computer","Desktop or Laptop","Mac OS 10.15.7","Chrome 128.0.0.0","1440x900","1440x812",NA,NA,0,"Gambling_GBO",12,"In","GHFIEJDKCAB",NA,"In","MH_OCT","seq5","Gamble_Rand_Seq5","Gamble_Rand_Seq5",25,"Rating","Screen 1","hx8b5a",1,"continue","",2790.89999999999,2782.39999999999,2790.89999999999,2790.89999999999,2782.39999999999,2790.89999999999,1,2790.89999999999,0,0,NA,"Click To Continue","Continue Button",3,"object-25","Rating","frustrated","not frustrated","frustrated",9,"",NA,NA,NA,NA,NA,"Right",NA,-20.67,NA,NA,NA,NA,-3,"MDPRF01388"
"118",1727179956663,"24/09/2024 12:12:36",1727183556663,1,"24/09/2024 14:12:36",187387,9,"task-nkoa",NA,40225832,11744067,NA,"complete",NA,"66f2a50985781d46121ce43d","computer","Desktop or Laptop","Mac OS 10.15.7","Chrome 128.0.0.0","1440x900","1440x812",NA,NA,0,"Gambling_GBO",12,"In","GHFIEJDKCAB",NA,"In","MH_OCT","seq5","Gamble_Rand_Seq5","Gamble_Rand_Seq5",25,"Rating","Screen 1","hx8b5a",1,"response","84",2065.69999999998,2782.39999999999,2794.99999999776,2065.69999999998,2782.39999999999,2794.99999999776,1,2065.69999999998,729.299999997776,0,NA,"Slider","MoodSlider",2,"object-243","Rating","frustrated","not frustrated","frustrated",9,"",NA,NA,NA,NA,NA,"Right",NA,-20.67,NA,NA,NA,NA,-3,"MDPRF01388"
"119",1727179956672,"24/09/2024 12:12:36",1727183556672,1,"24/09/2024 14:12:36",187387,9,"task-nkoa",NA,40225832,11744067,NA,"complete",NA,"66f2a50985781d46121ce43d","computer","Desktop or Laptop","Mac OS 10.15.7","Chrome 128.0.0.0","1440x900","1440x812",NA,NA,0,"Gambling_GBO",12,"In","GHFIEJDKCAB",NA,"In","MH_OCT","seq5","Gamble_Rand_Seq5","Gamble_Rand_Seq5",26,"Rating","Screen 1","hx8b5a",1,"info","",15.7000000000116,0,15.7000000000116,15.7000000000116,0,15.7000000000116,1,15.7000000000116,0,0,NA,"Slider","MoodSlider",2,"object-243","Rating","happy","unhappy","happy",9,"",NA,NA,NA,NA,NA,"Right",NA,-20.67,NA,NA,NA,NA,-3,"MDPRF01388"
"120",1727179958461,"24/09/2024 12:12:38",1727183558461,1,"24/09/2024 14:12:38",187387,9,"task-nkoa",NA,40225832,11744067,NA,"complete",NA,"66f2a50985781d46121ce43d","computer","Desktop or Laptop","Mac OS 10.15.7","Chrome 128.0.0.0","1440x900","1440x812",NA,NA,0,"Gambling_GBO",12,"In","GHFIEJDKCAB",NA,"In","MH_OCT","seq5","Gamble_Rand_Seq5","Gamble_Rand_Seq5",26,"Rating","Screen 1","hx8b5a",1,"continue","",1810.5,1800.29999999999,1810.5,1810.5,1800.29999999999,1810.5,1,1810.5,0,0,NA,"Click To Continue","Continue Button",3,"object-25","Rating","happy","unhappy","happy",9,"",NA,NA,NA,NA,NA,"Right",NA,-20.67,NA,NA,NA,NA,-3,"MDPRF01388"
"121",1727179958461,"24/09/2024 12:12:38",1727183558461,1,"24/09/2024 14:12:38",187387,9,"task-nkoa",NA,40225832,11744067,NA,"complete",NA,"66f2a50985781d46121ce43d","computer","Desktop or Laptop","Mac OS 10.15.7","Chrome 128.0.0.0","1440x900","1440x812",NA,NA,0,"Gambling_GBO",12,"In","GHFIEJDKCAB",NA,"In","MH_OCT","seq5","Gamble_Rand_Seq5","Gamble_Rand_Seq5",26,"Rating","Screen 1","hx8b5a",1,"response","13",1100.29999999999,1800.29999999999,1810.89999999851,1100.29999999999,1800.29999999999,1810.89999999851,1,1100.29999999999,710.599999998522,0,NA,"Slider","MoodSlider",2,"object-243","Rating","happy","unhappy","happy",9,"",NA,NA,NA,NA,NA,"Right",NA,-20.67,NA,NA,NA,NA,-3,"MDPRF01388"
"122",1727179958470,"24/09/2024 12:12:38",1727183558470,1,"24/09/2024 14:12:38",187387,9,"task-nkoa",NA,40225832,11744067,NA,"complete",NA,"66f2a50985781d46121ce43d","computer","Desktop or Laptop","Mac OS 10.15.7","Chrome 128.0.0.0","1440x900","1440x812",NA,NA,0,"Gambling_GBO",12,"In","GHFIEJDKCAB",NA,"In","MH_OCT","seq5","Gamble_Rand_Seq5","Gamble_Rand_Seq5",27,"Rating","Screen 1","hx8b5a",1,"info","",16.1999999999825,0,16.1999999999825,16.1999999999825,0,16.1999999999825,1,16.1999999999825,0,0,NA,"Slider","MoodSlider",2,"object-243","Rating","bored","not bored","bored",9,"",NA,NA,NA,NA,NA,"Right",NA,-20.67,NA,NA,NA,NA,-3,"MDPRF01388"
"123",1727179961379,"24/09/2024 12:12:41",1727183561379,1,"24/09/2024 14:12:41",187387,9,"task-nkoa",NA,40225832,11744067,NA,"complete",NA,"66f2a50985781d46121ce43d","computer","Desktop or Laptop","Mac OS 10.15.7","Chrome 128.0.0.0","1440x900","1440x812",NA,NA,0,"Gambling_GBO",12,"In","GHFIEJDKCAB",NA,"In","MH_OCT","seq5","Gamble_Rand_Seq5","Gamble_Rand_Seq5",27,"Rating","Screen 1","hx8b5a",1,"continue","",2928.20000000001,2917.20000000001,2928.20000000001,2928.20000000001,2917.20000000001,2928.20000000001,1,2928.20000000001,0,0,NA,"Click To Continue","Continue Button",3,"object-25","Rating","bored","not bored","bored",9,"",NA,NA,NA,NA,NA,"Right",NA,-20.67,NA,NA,NA,NA,-3,"MDPRF01388"
"124",1727179961379,"24/09/2024 12:12:41",1727183561379,1,"24/09/2024 14:12:41",187387,9,"task-nkoa",NA,40225832,11744067,NA,"complete",NA,"66f2a50985781d46121ce43d","computer","Desktop or Laptop","Mac OS 10.15.7","Chrome 128.0.0.0","1440x900","1440x812",NA,NA,0,"Gambling_GBO",12,"In","GHFIEJDKCAB",NA,"In","MH_OCT","seq5","Gamble_Rand_Seq5","Gamble_Rand_Seq5",27,"Rating","Screen 1","hx8b5a",1,"response","14",1300.10000000001,2917.20000000001,2928.70000000001,1300.10000000001,2917.20000000001,2928.70000000001,1,1300.10000000001,1628.60000000001,0,NA,"Slider","MoodSlider",2,"object-243","Rating","bored","not bored","bored",9,"",NA,NA,NA,NA,NA,"Right",NA,-20.67,NA,NA,NA,NA,-3,"MDPRF01388"
"125",1727179963335,"24/09/2024 12:12:43",1727183563335,1,"24/09/2024 14:12:43",187387,9,"task-nkoa",NA,40225832,11744067,NA,"complete",NA,"66f2a50985781d46121ce43d","computer","Desktop or Laptop","Mac OS 10.15.7","Chrome 128.0.0.0","1440x900","1440x812",NA,NA,0,"Gambling_GBO",12,"In","GHFIEJDKCAB",NA,"In","MH_OCT","seq5","Gamble_Rand_Seq5","Gamble_Rand_Seq5",1,"winB","Screen 1","pkkyi8",1,"continue","",1965.60000000001,1965.60000000001,1965.60000000001,1965.60000000001,1965.60000000001,1965.60000000001,1,1965.60000000001,0,0,NA,"Fixation Timing","Fixation",1,"object-246","winB","","","",NA,"Right",5,4,7,9,NA,"Right",NA,-20.67,NA,NA,NA,NA,-3,"MDPRF01388"
"126",1727179966400,"24/09/2024 12:12:46",1727183566400,1,"24/09/2024 14:12:46",187387,9,"task-nkoa",NA,40225832,11744067,NA,"complete",NA,"66f2a50985781d46121ce43d","computer","Desktop or Laptop","Mac OS 10.15.7","Chrome 128.0.0.0","1440x900","1440x812",NA,NA,0,"Gambling_GBO",12,"In","GHFIEJDKCAB",NA,"In","MH_OCT","seq5","Gamble_Rand_Seq5","Gamble_Rand_Seq5",1,"winB","choice","5lszbx",2,"response","Right",3066.09999999925,3050.89999999999,3066.09999999925,3066.09999999925,3050.89999999999,3066.09999999925,1,3066.09999999925,0,0,NA,"Keyboard Response","KeyResponseG",6,"object-256","winB","","","",NA,"Right",5,4,7,9,NA,"Right",NA,-13.67,NA,NA,NA,NA,7,"MDPRF01388"
"127",1727179970385,"24/09/2024 12:12:50",1727183570385,1,"24/09/2024 14:12:50",187387,9,"task-nkoa",NA,40225832,11744067,NA,"complete",NA,"66f2a50985781d46121ce43d","computer","Desktop or Laptop","Mac OS 10.15.7","Chrome 128.0.0.0","1440x900","1440x812",NA,NA,0,"Gambling_GBO",12,"In","GHFIEJDKCAB",NA,"In","MH_OCT","seq5","Gamble_Rand_Seq5","Gamble_Rand_Seq5",1,"winB","gamble","17lgr3",3,"timedOut","",4000.5,4000,4000.5,4000.5,4000,4000.5,1,4000.5,0,0,NA,"Time Limit","screen",0,"screen","winB","","","",NA,"Right",5,4,7,9,NA,"Right",NA,-13.67,NA,NA,NA,NA,7,"MDPRF01388"
"128",1727179971384,"24/09/2024 12:12:51",1727183571384,1,"24/09/2024 14:12:51",187387,9,"task-nkoa",NA,40225832,11744067,NA,"complete",NA,"66f2a50985781d46121ce43d","computer","Desktop or Laptop","Mac OS 10.15.7","Chrome 128.0.0.0","1440x900","1440x812",NA,NA,0,"Gambling_GBO",12,"In","GHFIEJDKCAB",NA,"In","MH_OCT","seq5","Gamble_Rand_Seq5","Gamble_Rand_Seq5",1,"winB","win","dzz5jr",4,"timedOut","",1000.19999999925,999.700000000012,1000.19999999925,1000.19999999925,999.700000000012,1000.19999999925,1,1000.19999999925,0,0,NA,"Time Limit","screen",0,"screen","winB","","","",NA,"Right",5,4,7,9,NA,"Right",NA,-13.67,NA,NA,NA,NA,7,"MDPRF01388"
"129",1727179971395,"24/09/2024 12:12:51",1727183571395,1,"24/09/2024 14:12:51",187387,9,"task-nkoa",NA,40225832,11744067,NA,"complete",NA,"66f2a50985781d46121ce43d","computer","Desktop or Laptop","Mac OS 10.15.7","Chrome 128.0.0.0","1440x900","1440x812",NA,NA,0,"Gambling_GBO",12,"In","GHFIEJDKCAB",NA,"In","MH_OCT","seq5","Gamble_Rand_Seq5","Gamble_Rand_Seq5",28,"Rating","Screen 1","hx8b5a",1,"info","",11.1999999984982,0,11.1999999984982,11.1999999984982,0,11.1999999984982,1,11.1999999984982,0,0,NA,"Slider","MoodSlider",2,"object-243","Rating","bored","not bored","bored",10,"",NA,NA,NA,NA,NA,"Right",NA,-13.67,NA,NA,NA,NA,7,"MDPRF01388"
"130",1727179974520,"24/09/2024 12:12:54",1727183574520,1,"24/09/2024 14:12:54",187387,9,"task-nkoa",NA,40225832,11744067,NA,"complete",NA,"66f2a50985781d46121ce43d","computer","Desktop or Laptop","Mac OS 10.15.7","Chrome 128.0.0.0","1440x900","1440x812",NA,NA,0,"Gambling_GBO",12,"In","GHFIEJDKCAB",NA,"In","MH_OCT","seq5","Gamble_Rand_Seq5","Gamble_Rand_Seq5",28,"Rating","Screen 1","hx8b5a",1,"continue","",3135.6999999985,3132.69999999998,3135.6999999985,3135.6999999985,3132.69999999998,3135.6999999985,1,3135.6999999985,0,0,NA,"Click To Continue","Continue Button",3,"object-25","Rating","bored","not bored","bored",10,"",NA,NA,NA,NA,NA,"Right",NA,-13.67,NA,NA,NA,NA,7,"MDPRF01388"
"131",1727179974520,"24/09/2024 12:12:54",1727183574520,1,"24/09/2024 14:12:54",187387,9,"task-nkoa",NA,40225832,11744067,NA,"complete",NA,"66f2a50985781d46121ce43d","computer","Desktop or Laptop","Mac OS 10.15.7","Chrome 128.0.0.0","1440x900","1440x812",NA,NA,0,"Gambling_GBO",12,"In","GHFIEJDKCAB",NA,"In","MH_OCT","seq5","Gamble_Rand_Seq5","Gamble_Rand_Seq5",28,"Rating","Screen 1","hx8b5a",1,"response","9",2465.89999999999,3132.69999999998,3135.99999999924,2465.89999999999,3132.69999999998,3135.99999999924,1,2465.89999999999,670.099999999249,0,NA,"Slider","MoodSlider",2,"object-243","Rating","bored","not bored","bored",10,"",NA,NA,NA,NA,NA,"Right",NA,-13.67,NA,NA,NA,NA,7,"MDPRF01388"
"132",1727179974525,"24/09/2024 12:12:54",1727183574525,1,"24/09/2024 14:12:54",187387,9,"task-nkoa",NA,40225832,11744067,NA,"complete",NA,"66f2a50985781d46121ce43d","computer","Desktop or Laptop","Mac OS 10.15.7","Chrome 128.0.0.0","1440x900","1440x812",NA,NA,0,"Gambling_GBO",12,"In","GHFIEJDKCAB",NA,"In","MH_OCT","seq5","Gamble_Rand_Seq5","Gamble_Rand_Seq5",29,"Rating","Screen 1","hx8b5a",1,"info","",8.4999999985157,0,8.4999999985157,8.4999999985157,0,8.4999999985157,1,8.4999999985157,0,0,NA,"Slider","MoodSlider",2,"object-243","Rating","frustrated","not frustrated","frustrated",10,"",NA,NA,NA,NA,NA,"Right",NA,-13.67,NA,NA,NA,NA,7,"MDPRF01388"
"133",1727179976937,"24/09/2024 12:12:56",1727183576937,1,"24/09/2024 14:12:56",187387,9,"task-nkoa",NA,40225832,11744067,NA,"complete",NA,"66f2a50985781d46121ce43d","computer","Desktop or Laptop","Mac OS 10.15.7","Chrome 128.0.0.0","1440x900","1440x812",NA,NA,0,"Gambling_GBO",12,"In","GHFIEJDKCAB",NA,"In","MH_OCT","seq5","Gamble_Rand_Seq5","Gamble_Rand_Seq5",29,"Rating","Screen 1","hx8b5a",1,"continue","",2420.29999999926,2416.80000000002,2420.29999999926,2420.29999999926,2416.80000000002,2420.29999999926,1,2420.29999999926,0,0,NA,"Click To Continue","Continue Button",3,"object-25","Rating","frustrated","not frustrated","frustrated",10,"",NA,NA,NA,NA,NA,"Right",NA,-13.67,NA,NA,NA,NA,7,"MDPRF01388"
"134",1727179976938,"24/09/2024 12:12:56",1727183576938,1,"24/09/2024 14:12:56",187387,9,"task-nkoa",NA,40225832,11744067,NA,"complete",NA,"66f2a50985781d46121ce43d","computer","Desktop or Laptop","Mac OS 10.15.7","Chrome 128.0.0.0","1440x900","1440x812",NA,NA,0,"Gambling_GBO",12,"In","GHFIEJDKCAB",NA,"In","MH_OCT","seq5","Gamble_Rand_Seq5","Gamble_Rand_Seq5",29,"Rating","Screen 1","hx8b5a",1,"response","16",1699.89999999999,2416.80000000002,2420.89999999703,1699.89999999999,2416.80000000002,2420.89999999703,1,1699.89999999999,720.999999997031,0,NA,"Slider","MoodSlider",2,"object-243","Rating","frustrated","not frustrated","frustrated",10,"",NA,NA,NA,NA,NA,"Right",NA,-13.67,NA,NA,NA,NA,7,"MDPRF01388"
"135",1727179976947,"24/09/2024 12:12:56",1727183576947,1,"24/09/2024 14:12:56",187387,9,"task-nkoa",NA,40225832,11744067,NA,"complete",NA,"66f2a50985781d46121ce43d","computer","Desktop or Laptop","Mac OS 10.15.7","Chrome 128.0.0.0","1440x900","1440x812",NA,NA,0,"Gambling_GBO",12,"In","GHFIEJDKCAB",NA,"In","MH_OCT","seq5","Gamble_Rand_Seq5","Gamble_Rand_Seq5",30,"Rating","Screen 1","hx8b5a",1,"info","",13.4999999992433,0,13.4999999992433,13.4999999992433,0,13.4999999992433,1,13.4999999992433,0,0,NA,"Slider","MoodSlider",2,"object-243","Rating","happy","unhappy","happy",10,"",NA,NA,NA,NA,NA,"Right",NA,-13.67,NA,NA,NA,NA,7,"MDPRF01388"
"136",1727179980945,"24/09/2024 12:13:00",1727183580945,1,"24/09/2024 14:13:00",187387,9,"task-nkoa",NA,40225832,11744067,NA,"complete",NA,"66f2a50985781d46121ce43d","computer","Desktop or Laptop","Mac OS 10.15.7","Chrome 128.0.0.0","1440x900","1440x812",NA,NA,0,"Gambling_GBO",12,"In","GHFIEJDKCAB",NA,"In","MH_OCT","seq5","Gamble_Rand_Seq5","Gamble_Rand_Seq5",30,"Rating","Screen 1","hx8b5a",1,"continue","",4011.59999999701,3999.59999999998,4011.59999999701,4011.59999999701,3999.59999999998,4011.59999999701,1,4011.59999999701,0,0,NA,"Click To Continue","Continue Button",3,"object-25","Rating","happy","unhappy","happy",10,"",NA,NA,NA,NA,NA,"Right",NA,-13.67,NA,NA,NA,NA,7,"MDPRF01388"
"137",1727179980950,"24/09/2024 12:13:00",1727183580950,1,"24/09/2024 14:13:00",187387,9,"task-nkoa",NA,40225832,11744067,NA,"complete",NA,"66f2a50985781d46121ce43d","computer","Desktop or Laptop","Mac OS 10.15.7","Chrome 128.0.0.0","1440x900","1440x812",NA,NA,0,"Gambling_GBO",12,"In","GHFIEJDKCAB",NA,"In","MH_OCT","seq5","Gamble_Rand_Seq5","Gamble_Rand_Seq5",30,"Rating","Screen 1","hx8b5a",1,"response","71",2983.5,3999.59999999998,4016.29999999996,2983.5,3999.59999999998,4016.29999999996,1,2983.5,1032.79999999996,0,NA,"Slider","MoodSlider",2,"object-243","Rating","happy","unhappy","happy",10,"",NA,NA,NA,NA,NA,"Right",NA,-13.67,NA,NA,NA,NA,7,"MDPRF01388"
"138",1727179982902,"24/09/2024 12:13:02",1727183582902,1,"24/09/2024 14:13:02",187387,9,"task-nkoa",NA,40225832,11744067,NA,"complete",NA,"66f2a50985781d46121ce43d","computer","Desktop or Laptop","Mac OS 10.15.7","Chrome 128.0.0.0","1440x900","1440x812",NA,NA,0,"Gambling_GBO",12,"In","GHFIEJDKCAB",NA,"In","MH_OCT","seq5","Gamble_Rand_Seq5","Gamble_Rand_Seq5",4,"lossT","Screen 1","2oxi65",1,"continue","",1967.10000000001,1967.10000000001,1967.10000000001,1967.10000000001,1967.10000000001,1967.10000000001,1,1967.10000000001,0,0,NA,"Fixation Timing","Fixation",1,"object-354","lossT","","","",NA,"Right",-3.33,-5,0,10,NA,"Right",NA,-13.67,NA,NA,NA,NA,7,"MDPRF01388"
"139",1727179985154,"24/09/2024 12:13:05",1727183585154,1,"24/09/2024 14:13:05",187387,9,"task-nkoa",NA,40225832,11744067,NA,"complete",NA,"66f2a50985781d46121ce43d","computer","Desktop or Laptop","Mac OS 10.15.7","Chrome 128.0.0.0","1440x900","1440x812",NA,NA,0,"Gambling_GBO",12,"In","GHFIEJDKCAB",NA,"In","MH_OCT","seq5","Gamble_Rand_Seq5","Gamble_Rand_Seq5",4,"lossT","choice","zjftf8",2,"response","Right",2253.19999999777,2250,2253.19999999777,2253.19999999777,2250,2253.19999999777,1,2253.19999999777,0,0,NA,"Keyboard Response","KeyResponseG",6,"object-352","lossT","","","",NA,"Right",-3.33,-5,0,10,NA,"Right",NA,-18.67,NA,NA,NA,NA,-5,"MDPRF01388"
"140",1727179989152,"24/09/2024 12:13:09",1727183589152,1,"24/09/2024 14:13:09",187387,9,"task-nkoa",NA,40225832,11744067,NA,"complete",NA,"66f2a50985781d46121ce43d","computer","Desktop or Laptop","Mac OS 10.15.7","Chrome 128.0.0.0","1440x900","1440x812",NA,NA,0,"Gambling_GBO",12,"In","GHFIEJDKCAB",NA,"In","MH_OCT","seq5","Gamble_Rand_Seq5","Gamble_Rand_Seq5",4,"lossT","gamble","h5bf9r",3,"timedOut","",4001.60000000001,3999.70000000001,4001.60000000001,4001.60000000001,3999.70000000001,4001.60000000001,1,4001.60000000001,0,0,NA,"Time Limit","screen",0,"screen","lossT","","","",NA,"Right",-3.33,-5,0,10,NA,"Right",NA,-18.67,NA,NA,NA,NA,-5,"MDPRF01388"
"141",1727179990151,"24/09/2024 12:13:10",1727183590151,1,"24/09/2024 14:13:10",187387,9,"task-nkoa",NA,40225832,11744067,NA,"complete",NA,"66f2a50985781d46121ce43d","computer","Desktop or Laptop","Mac OS 10.15.7","Chrome 128.0.0.0","1440x900","1440x812",NA,NA,0,"Gambling_GBO",12,"In","GHFIEJDKCAB",NA,"In","MH_OCT","seq5","Gamble_Rand_Seq5","Gamble_Rand_Seq5",4,"lossT","loss","kmnw8b",4,"timedOut","",1001.09999999925,1000.5,1001.09999999925,1001.09999999925,1000.5,1001.09999999925,1,1001.09999999925,0,0,NA,"Time Limit","screen",0,"screen","lossT","","","",NA,"Right",-3.33,-5,0,10,NA,"Right",NA,-18.67,NA,NA,NA,NA,-5,"MDPRF01388"
"142",1727179990165,"24/09/2024 12:13:10",1727183590165,1,"24/09/2024 14:13:10",187387,9,"task-nkoa",NA,40225832,11744067,NA,"complete",NA,"66f2a50985781d46121ce43d","computer","Desktop or Laptop","Mac OS 10.15.7","Chrome 128.0.0.0","1440x900","1440x812",NA,NA,0,"Gambling_GBO",12,"In","GHFIEJDKCAB",NA,"In","MH_OCT","seq5","Gamble_Rand_Seq5","Gamble_Rand_Seq5",31,"Rating","Screen 1","hx8b5a",1,"info","",14.0999999992491,0,14.0999999992491,14.0999999992491,0,14.0999999992491,1,14.0999999992491,0,0,NA,"Slider","MoodSlider",2,"object-243","Rating","bored","not bored","bored",11,"",NA,NA,NA,NA,NA,"Right",NA,-18.67,NA,NA,NA,NA,-5,"MDPRF01388"
"143",1727179993979,"24/09/2024 12:13:13",1727183593979,1,"24/09/2024 14:13:13",187387,9,"task-nkoa",NA,40225832,11744067,NA,"complete",NA,"66f2a50985781d46121ce43d","computer","Desktop or Laptop","Mac OS 10.15.7","Chrome 128.0.0.0","1440x900","1440x812",NA,NA,0,"Gambling_GBO",12,"In","GHFIEJDKCAB",NA,"In","MH_OCT","seq5","Gamble_Rand_Seq5","Gamble_Rand_Seq5",31,"Rating","Screen 1","hx8b5a",1,"continue","",3828.49999999776,3816,3828.49999999776,3828.49999999776,3816,3828.49999999776,1,3828.49999999776,0,0,NA,"Click To Continue","Continue Button",3,"object-25","Rating","bored","not bored","bored",11,"",NA,NA,NA,NA,NA,"Right",NA,-18.67,NA,NA,NA,NA,-5,"MDPRF01388"
"144",1727179993984,"24/09/2024 12:13:13",1727183593984,1,"24/09/2024 14:13:13",187387,9,"task-nkoa",NA,40225832,11744067,NA,"complete",NA,"66f2a50985781d46121ce43d","computer","Desktop or Laptop","Mac OS 10.15.7","Chrome 128.0.0.0","1440x900","1440x812",NA,NA,0,"Gambling_GBO",12,"In","GHFIEJDKCAB",NA,"In","MH_OCT","seq5","Gamble_Rand_Seq5","Gamble_Rand_Seq5",31,"Rating","Screen 1","hx8b5a",1,"response","7",3132.69999999998,3816,3832.60000000001,3132.69999999998,3816,3832.60000000001,1,3132.69999999998,699.900000000023,0,NA,"Slider","MoodSlider",2,"object-243","Rating","bored","not bored","bored",11,"",NA,NA,NA,NA,NA,"Right",NA,-18.67,NA,NA,NA,NA,-5,"MDPRF01388"
"145",1727179993993,"24/09/2024 12:13:13",1727183593993,1,"24/09/2024 14:13:13",187387,9,"task-nkoa",NA,40225832,11744067,NA,"complete",NA,"66f2a50985781d46121ce43d","computer","Desktop or Laptop","Mac OS 10.15.7","Chrome 128.0.0.0","1440x900","1440x812",NA,NA,0,"Gambling_GBO",12,"In","GHFIEJDKCAB",NA,"In","MH_OCT","seq5","Gamble_Rand_Seq5","Gamble_Rand_Seq5",32,"Rating","Screen 1","hx8b5a",1,"info","",16.6000000000058,0,16.6000000000058,16.6000000000058,0,16.6000000000058,1,16.6000000000058,0,0,NA,"Slider","MoodSlider",2,"object-243","Rating","frustrated","not frustrated","frustrated",11,"",NA,NA,NA,NA,NA,"Right",NA,-18.67,NA,NA,NA,NA,-5,"MDPRF01388"
"146",1727179995820,"24/09/2024 12:13:15",1727183595820,1,"24/09/2024 14:13:15",187387,9,"task-nkoa",NA,40225832,11744067,NA,"complete",NA,"66f2a50985781d46121ce43d","computer","Desktop or Laptop","Mac OS 10.15.7","Chrome 128.0.0.0","1440x900","1440x812",NA,NA,0,"Gambling_GBO",12,"In","GHFIEJDKCAB",NA,"In","MH_OCT","seq5","Gamble_Rand_Seq5","Gamble_Rand_Seq5",32,"Rating","Screen 1","hx8b5a",1,"continue","",1852.69999999701,1850.79999999999,1852.69999999701,1852.69999999701,1850.79999999999,1852.69999999701,1,1852.69999999701,0,0,NA,"Click To Continue","Continue Button",3,"object-25","Rating","frustrated","not frustrated","frustrated",11,"",NA,NA,NA,NA,NA,"Right",NA,-18.67,NA,NA,NA,NA,-5,"MDPRF01388"
"147",1727179995820,"24/09/2024 12:13:15",1727183595820,1,"24/09/2024 14:13:15",187387,9,"task-nkoa",NA,40225832,11744067,NA,"complete",NA,"66f2a50985781d46121ce43d","computer","Desktop or Laptop","Mac OS 10.15.7","Chrome 128.0.0.0","1440x900","1440x812",NA,NA,0,"Gambling_GBO",12,"In","GHFIEJDKCAB",NA,"In","MH_OCT","seq5","Gamble_Rand_Seq5","Gamble_Rand_Seq5",32,"Rating","Screen 1","hx8b5a",1,"response","96",1084.19999999998,1850.79999999999,1853.09999999925,1084.19999999998,1850.79999999999,1853.09999999925,1,1084.19999999998,768.899999999267,0,NA,"Slider","MoodSlider",2,"object-243","Rating","frustrated","not frustrated","frustrated",11,"",NA,NA,NA,NA,NA,"Right",NA,-18.67,NA,NA,NA,NA,-5,"MDPRF01388"
"148",1727179995829,"24/09/2024 12:13:15",1727183595829,1,"24/09/2024 14:13:15",187387,9,"task-nkoa",NA,40225832,11744067,NA,"complete",NA,"66f2a50985781d46121ce43d","computer","Desktop or Laptop","Mac OS 10.15.7","Chrome 128.0.0.0","1440x900","1440x812",NA,NA,0,"Gambling_GBO",12,"In","GHFIEJDKCAB",NA,"In","MH_OCT","seq5","Gamble_Rand_Seq5","Gamble_Rand_Seq5",33,"Rating","Screen 1","hx8b5a",1,"info","",11.1000000000058,0,11.1000000000058,11.1000000000058,0,11.1000000000058,1,11.1000000000058,0,0,NA,"Slider","MoodSlider",2,"object-243","Rating","happy","unhappy","happy",11,"",NA,NA,NA,NA,NA,"Right",NA,-18.67,NA,NA,NA,NA,-5,"MDPRF01388"
"149",1727179997655,"24/09/2024 12:13:17",1727183597655,1,"24/09/2024 14:13:17",187387,9,"task-nkoa",NA,40225832,11744067,NA,"complete",NA,"66f2a50985781d46121ce43d","computer","Desktop or Laptop","Mac OS 10.15.7","Chrome 128.0.0.0","1440x900","1440x812",NA,NA,0,"Gambling_GBO",12,"In","GHFIEJDKCAB",NA,"In","MH_OCT","seq5","Gamble_Rand_Seq5","Gamble_Rand_Seq5",33,"Rating","Screen 1","hx8b5a",1,"continue","",1836.79999999926,1833.39999999999,1836.79999999926,1836.79999999926,1833.39999999999,1836.79999999926,1,1836.79999999926,0,0,NA,"Click To Continue","Continue Button",3,"object-25","Rating","happy","unhappy","happy",11,"",NA,NA,NA,NA,NA,"Right",NA,-18.67,NA,NA,NA,NA,-5,"MDPRF01388"
"150",1727179997655,"24/09/2024 12:13:17",1727183597655,1,"24/09/2024 14:13:17",187387,9,"task-nkoa",NA,40225832,11744067,NA,"complete",NA,"66f2a50985781d46121ce43d","computer","Desktop or Laptop","Mac OS 10.15.7","Chrome 128.0.0.0","1440x900","1440x812",NA,NA,0,"Gambling_GBO",12,"In","GHFIEJDKCAB",NA,"In","MH_OCT","seq5","Gamble_Rand_Seq5","Gamble_Rand_Seq5",33,"Rating","Screen 1","hx8b5a",1,"response","2",1116.70000000001,1833.39999999999,1837.29999999926,1116.70000000001,1833.39999999999,1837.29999999926,1,1116.70000000001,720.599999999249,0,NA,"Slider","MoodSlider",2,"object-243","Rating","happy","unhappy","happy",11,"",NA,NA,NA,NA,NA,"Right",NA,-18.67,NA,NA,NA,NA,-5,"MDPRF01388"
