"Event.Index","UTC.Timestamp","UTC.Date.and.Time","Local.Timestamp","Local.Timezone","Local.Date.and.Time","Experiment.ID","Experiment.Version","Tree.Node.Key","Repeat.Key","Schedule.ID","Participant.Private.ID","Participant.Starting.Group","Participant.Status","Participant.Completion.Code","Participant.External.Session.ID","Participant.Device.Type","Participant.Device","Participant.OS","Participant.Browser","Participant.Monitor.Size","Participant.Viewport.Size","Checkpoint","Room.ID","Room.Order","Task.Name","Task.Version","branch.hkzp","order.ot79","branch.mcuq","branch.4fv7","randomiser.k5rb","randomiser.rz7w","Spreadsheet","Current.Spreadsheet","Trial.Number","Display","Screen","Screen.ID","Screen.Counter","Response.Type","Response","Onset.Time","Clock.Time","Reaction.Time","Absolute.Onset.Time","Absolute.Clock.Time","Absolute.Reaction.Time","Correct","Response.Onset","Response.Duration","Proportion","Tag","Component.Name","Object.Name","Object.Number","Object.ID","Spreadsheet..display","Spreadsheet..Emo","Spreadsheet..LHS_Lab","Spreadsheet..RHS_Lab","Spreadsheet..rand_M","Spreadsheet..Answer","Spreadsheet..C_points","Spreadsheet..L_points","Spreadsheet..W_points","Spreadsheet..rand_G","Manipulation..Spreadsheet","Store..Choice","Store..total","Store..total_score","Store..pounds","Store..total_money","Store..partA","Store..MoneyReward","Store..pointsPR","Random_ID"
"1",1727179040939,"24/09/2024 11:57:20",1727182640939,1,"24/09/2024 13:57:20",187387,9,"task-nz4r",NA,40225291,11744027,NA,"complete",NA,"66f2a319f730ecf1c5ee26f5","computer","Desktop or Laptop","Mac OS 10.15.7","Chrome 129.0.0.0","1710x1107","1710x947",NA,NA,0,"Gambling_GBO",12,"In","DECFBGAHKIJ",NA,"In","MH_OCT","seq4","Gamble_Rand_Seq4","Gamble_Rand_Seq4",NA,"","","",NA,"info","START SUBSYSTEM base.component.fullscreenSubsystem",NA,NA,NA,NA,NA,NA,0,NA,NA,NA,NA,"","",NA,"","","","","",NA,"",NA,NA,NA,NA,NA,"",NA,NA,NA,NA,NA,NA,NA,"MDPRF67386"
"2",1727179040948,"24/09/2024 11:57:20",1727182640948,1,"24/09/2024 13:57:20",187387,9,"task-nz4r",NA,40225291,11744027,NA,"complete",NA,"66f2a319f730ecf1c5ee26f5","computer","Desktop or Laptop","Mac OS 10.15.7","Chrome 129.0.0.0","1710x1107","1710x947",NA,NA,0,"Gambling_GBO",12,"In","DECFBGAHKIJ",NA,"In","MH_OCT","seq4","Gamble_Rand_Seq4","Gamble_Rand_Seq4",NA,"","","",NA,"info","SUBSYSTEM READY base.component.fullscreenSubsystem",NA,NA,NA,NA,NA,NA,0,NA,NA,NA,NA,"","",NA,"","","","","",NA,"",NA,NA,NA,NA,NA,"",NA,NA,NA,NA,NA,NA,NA,"MDPRF67386"
"3",1727179040964,"24/09/2024 11:57:20",1727182640964,1,"24/09/2024 13:57:20",187387,9,"task-nz4r",NA,40225291,11744027,NA,"complete",NA,"66f2a319f730ecf1c5ee26f5","computer","Desktop or Laptop","Mac OS 10.15.7","Chrome 129.0.0.0","1710x1107","1710x947",NA,NA,0,"Gambling_GBO",12,"In","DECFBGAHKIJ",NA,"In","MH_OCT","seq4","Gamble_Rand_Seq4","Gamble_Rand_Seq4",NA,"","","",NA,"info","BEGIN",NA,NA,NA,NA,NA,NA,0,NA,NA,NA,NA,"","",NA,"","","","","",NA,"",NA,NA,NA,NA,NA,"",NA,NA,NA,NA,NA,NA,NA,"MDPRF67386"
"4",1727179044237,"24/09/2024 11:57:24",1727182644237,1,"24/09/2024 13:57:24",187387,9,"task-nz4r",NA,40225291,11744027,NA,"complete",NA,"66f2a319f730ecf1c5ee26f5","computer","Desktop or Laptop","Mac OS 10.15.7","Chrome 129.0.0.0","1710x1107","1710x947",NA,NA,0,"Gambling_GBO",12,"In","DECFBGAHKIJ",NA,"In","MH_OCT","seq4","Gamble_Rand_Seq4","Gamble_Rand_Seq4",1,"Intro","Screen 1","u1aumm",1,"continue","",3307.20000000037,3300,3307.20000000037,3307.20000000037,3300,3307.20000000037,1,3307.20000000037,0,0,NA,"Click To Continue","Continue Button",2,"object-37171","Intro","","","",NA,"",NA,NA,NA,NA,NA,"",NA,NA,NA,NA,NA,NA,NA,"MDPRF67386"
"5",1727179051542,"24/09/2024 11:57:31",1727182651542,1,"24/09/2024 13:57:31",187387,9,"task-nz4r",NA,40225291,11744027,NA,"complete",NA,"66f2a319f730ecf1c5ee26f5","computer","Desktop or Laptop","Mac OS 10.15.7","Chrome 129.0.0.0","1710x1107","1710x947",NA,NA,0,"Gambling_GBO",12,"In","DECFBGAHKIJ",NA,"In","MH_OCT","seq4","Gamble_Rand_Seq4","Gamble_Rand_Seq4",1,"Instructions","Screen 1","rfymdc",1,"continue","",7312.20000000037,7299.9,7312.20000000037,7312.20000000037,7299.9,7312.20000000037,1,7312.20000000037,0,0,NA,"Click To Continue","Continue Button",2,"object-3","Instructions","","","",NA,"",NA,NA,NA,NA,NA,"",NA,NA,NA,NA,NA,NA,NA,"MDPRF67386"
"6",1727179053567,"24/09/2024 11:57:33",1727182653567,1,"24/09/2024 13:57:33",187387,9,"task-nz4r",NA,40225291,11744027,NA,"complete",NA,"66f2a319f730ecf1c5ee26f5","computer","Desktop or Laptop","Mac OS 10.15.7","Chrome 129.0.0.0","1710x1107","1710x947",NA,NA,0,"Gambling_GBO",12,"In","DECFBGAHKIJ",NA,"In","MH_OCT","seq4","Gamble_Rand_Seq4","Gamble_Rand_Seq4",1,"Instructions","Screen 2","x2kpu8",2,"continue","",2037.30000000037,2033.4,2037.30000000037,2037.30000000037,2033.4,2037.30000000037,1,2037.30000000037,0,0,NA,"Click To Continue","Continue Button",2,"object-22021","Instructions","","","",NA,"",NA,NA,NA,NA,NA,"",NA,NA,NA,NA,NA,NA,NA,"MDPRF67386"
"7",1727179056187,"24/09/2024 11:57:36",1727182656187,1,"24/09/2024 13:57:36",187387,9,"task-nz4r",NA,40225291,11744027,NA,"complete",NA,"66f2a319f730ecf1c5ee26f5","computer","Desktop or Laptop","Mac OS 10.15.7","Chrome 129.0.0.0","1710x1107","1710x947",NA,NA,0,"Gambling_GBO",12,"In","DECFBGAHKIJ",NA,"In","MH_OCT","seq4","Gamble_Rand_Seq4","Gamble_Rand_Seq4",1,"Instructions","Screen 3","o6zm7t",3,"continue","",2624.5,2616.6,2624.5,2624.5,2616.6,2624.5,1,2624.5,0,0,NA,"Click To Continue","Continue Button",2,"object-225","Instructions","","","",NA,"",NA,NA,NA,NA,NA,"",NA,NA,NA,NA,NA,NA,NA,"MDPRF67386"
"8",1727179059021,"24/09/2024 11:57:39",1727182659021,1,"24/09/2024 13:57:39",187387,9,"task-nz4r",NA,40225291,11744027,NA,"complete",NA,"66f2a319f730ecf1c5ee26f5","computer","Desktop or Laptop","Mac OS 10.15.7","Chrome 129.0.0.0","1710x1107","1710x947",NA,NA,0,"Gambling_GBO",12,"In","DECFBGAHKIJ",NA,"In","MH_OCT","seq4","Gamble_Rand_Seq4","Gamble_Rand_Seq4",1,"Instructions","Screen 4","3hq7c2",4,"continue","",2841.80000000037,2833.4,2841.80000000037,2841.80000000037,2833.4,2841.80000000037,1,2841.80000000037,0,0,NA,"Click To Continue","Continue Button",4,"object-380","Instructions","","","",NA,"",NA,NA,NA,NA,NA,"",NA,NA,NA,NA,NA,NA,NA,"MDPRF67386"
"9",1727179067726,"24/09/2024 11:57:47",1727182667726,1,"24/09/2024 13:57:47",187387,9,"task-nz4r",NA,40225291,11744027,NA,"complete",NA,"66f2a319f730ecf1c5ee26f5","computer","Desktop or Laptop","Mac OS 10.15.7","Chrome 129.0.0.0","1710x1107","1710x947",NA,NA,0,"Gambling_GBO",12,"In","DECFBGAHKIJ",NA,"In","MH_OCT","seq4","Gamble_Rand_Seq4","Gamble_Rand_Seq4",1,"Instructions","Screen 5","5jisqh",5,"continue","",8713.30000000075,8700,8713.30000000075,8713.30000000075,8700,8713.30000000075,1,8713.30000000075,0,0,NA,"Click To Continue","Continue Button",2,"object-233","Instructions","","","",NA,"",NA,NA,NA,NA,NA,"",NA,NA,NA,NA,NA,NA,NA,"MDPRF67386"
"10",1727179069482,"24/09/2024 11:57:49",1727182669482,1,"24/09/2024 13:57:49",187387,9,"task-nz4r",NA,40225291,11744027,NA,"complete",NA,"66f2a319f730ecf1c5ee26f5","computer","Desktop or Laptop","Mac OS 10.15.7","Chrome 129.0.0.0","1710x1107","1710x947",NA,NA,0,"Gambling_GBO",12,"In","DECFBGAHKIJ",NA,"In","MH_OCT","seq4","Gamble_Rand_Seq4","Gamble_Rand_Seq4",1,"Instructions","Screen 6","13xe5l",6,"continue","",1769.10000000056,1766.7,1769.10000000056,1769.10000000056,1766.7,1769.10000000056,1,1769.10000000056,0,0,NA,"Click To Continue","Continue Button",2,"object-237","Instructions","","","",NA,"",NA,NA,NA,NA,NA,"",NA,NA,NA,NA,NA,NA,NA,"MDPRF67386"
"11",1727179072337,"24/09/2024 11:57:52",1727182672337,1,"24/09/2024 13:57:52",187387,9,"task-nz4r",NA,40225291,11744027,NA,"complete",NA,"66f2a319f730ecf1c5ee26f5","computer","Desktop or Laptop","Mac OS 10.15.7","Chrome 129.0.0.0","1710x1107","1710x947",NA,NA,0,"Gambling_GBO",12,"In","DECFBGAHKIJ",NA,"In","MH_OCT","seq4","Gamble_Rand_Seq4","Gamble_Rand_Seq4",1,"Instructions","Screen 7","re2b58",7,"continue","",2857.70000000037,2849.9,2857.70000000037,2857.70000000037,2849.9,2857.70000000037,1,2857.70000000037,0,0,NA,"Click To Continue","Continue Button",2,"object-241","Instructions","","","",NA,"",NA,NA,NA,NA,NA,"",NA,NA,NA,NA,NA,NA,NA,"MDPRF67386"
"12",1727179072349,"24/09/2024 11:57:52",1727182672349,1,"24/09/2024 13:57:52",187387,9,"task-nz4r",NA,40225291,11744027,NA,"complete",NA,"66f2a319f730ecf1c5ee26f5","computer","Desktop or Laptop","Mac OS 10.15.7","Chrome 129.0.0.0","1710x1107","1710x947",NA,NA,0,"Gambling_GBO",12,"In","DECFBGAHKIJ",NA,"In","MH_OCT","seq4","Gamble_Rand_Seq4","Gamble_Rand_Seq4",1,"Rating","Screen 1","hx8b5a",1,"info","",16.5999999999985,0,16.5999999999985,16.5999999999985,0,16.5999999999985,1,16.5999999999985,0,0,NA,"Slider","MoodSlider",2,"object-243","Rating","happy","unhappy","happy",1,"",NA,NA,NA,NA,NA,"",NA,NA,NA,NA,NA,NA,NA,"MDPRF67386"
"13",1727179074770,"24/09/2024 11:57:54",1727182674770,1,"24/09/2024 13:57:54",187387,9,"task-nz4r",NA,40225291,11744027,NA,"complete",NA,"66f2a319f730ecf1c5ee26f5","computer","Desktop or Laptop","Mac OS 10.15.7","Chrome 129.0.0.0","1710x1107","1710x947",NA,NA,0,"Gambling_GBO",12,"In","DECFBGAHKIJ",NA,"In","MH_OCT","seq4","Gamble_Rand_Seq4","Gamble_Rand_Seq4",1,"Rating","Screen 1","hx8b5a",1,"continue","",2440.20000000075,2433.1,2440.20000000075,2440.20000000075,2433.1,2440.20000000075,1,2440.20000000075,0,0,NA,"Click To Continue","Continue Button",3,"object-25","Rating","happy","unhappy","happy",1,"",NA,NA,NA,NA,NA,"",NA,NA,NA,NA,NA,NA,NA,"MDPRF67386"
"14",1727179074770,"24/09/2024 11:57:54",1727182674770,1,"24/09/2024 13:57:54",187387,9,"task-nz4r",NA,40225291,11744027,NA,"complete",NA,"66f2a319f730ecf1c5ee26f5","computer","Desktop or Laptop","Mac OS 10.15.7","Chrome 129.0.0.0","1710x1107","1710x947",NA,NA,0,"Gambling_GBO",12,"In","DECFBGAHKIJ",NA,"In","MH_OCT","seq4","Gamble_Rand_Seq4","Gamble_Rand_Seq4",1,"Rating","Screen 1","hx8b5a",1,"response","57",1866.8,2433.1,2441.00000000056,1866.8,2433.1,2441.00000000056,1,1866.8,574.200000000557,0,NA,"Slider","MoodSlider",2,"object-243","Rating","happy","unhappy","happy",1,"",NA,NA,NA,NA,NA,"",NA,NA,NA,NA,NA,NA,NA,"MDPRF67386"
"15",1727179074780,"24/09/2024 11:57:54",1727182674780,1,"24/09/2024 13:57:54",187387,9,"task-nz4r",NA,40225291,11744027,NA,"complete",NA,"66f2a319f730ecf1c5ee26f5","computer","Desktop or Laptop","Mac OS 10.15.7","Chrome 129.0.0.0","1710x1107","1710x947",NA,NA,0,"Gambling_GBO",12,"In","DECFBGAHKIJ",NA,"In","MH_OCT","seq4","Gamble_Rand_Seq4","Gamble_Rand_Seq4",2,"Rating","Screen 1","hx8b5a",1,"info","",16.3999999999942,0,16.3999999999942,16.3999999999942,0,16.3999999999942,1,16.3999999999942,0,0,NA,"Slider","MoodSlider",2,"object-243","Rating","frustrated","not frustrated","frustrated",1,"",NA,NA,NA,NA,NA,"",NA,NA,NA,NA,NA,NA,NA,"MDPRF67386"
"16",1727179076174,"24/09/2024 11:57:56",1727182676174,1,"24/09/2024 13:57:56",187387,9,"task-nz4r",NA,40225291,11744027,NA,"complete",NA,"66f2a319f730ecf1c5ee26f5","computer","Desktop or Laptop","Mac OS 10.15.7","Chrome 129.0.0.0","1710x1107","1710x947",NA,NA,0,"Gambling_GBO",12,"In","DECFBGAHKIJ",NA,"In","MH_OCT","seq4","Gamble_Rand_Seq4","Gamble_Rand_Seq4",2,"Rating","Screen 1","hx8b5a",1,"continue","",1411.90000000056,1400.3,1411.90000000056,1411.90000000056,1400.3,1411.90000000056,1,1411.90000000056,0,0,NA,"Click To Continue","Continue Button",3,"object-25","Rating","frustrated","not frustrated","frustrated",1,"",NA,NA,NA,NA,NA,"",NA,NA,NA,NA,NA,NA,NA,"MDPRF67386"
"17",1727179076175,"24/09/2024 11:57:56",1727182676175,1,"24/09/2024 13:57:56",187387,9,"task-nz4r",NA,40225291,11744027,NA,"complete",NA,"66f2a319f730ecf1c5ee26f5","computer","Desktop or Laptop","Mac OS 10.15.7","Chrome 129.0.0.0","1710x1107","1710x947",NA,NA,0,"Gambling_GBO",12,"In","DECFBGAHKIJ",NA,"In","MH_OCT","seq4","Gamble_Rand_Seq4","Gamble_Rand_Seq4",2,"Rating","Screen 1","hx8b5a",1,"response","55",833.600000000006,1400.3,1412.90000000056,833.600000000006,1400.3,1412.90000000056,1,833.600000000006,579.300000000556,0,NA,"Slider","MoodSlider",2,"object-243","Rating","frustrated","not frustrated","frustrated",1,"",NA,NA,NA,NA,NA,"",NA,NA,NA,NA,NA,NA,NA,"MDPRF67386"
"18",1727179076184,"24/09/2024 11:57:56",1727182676184,1,"24/09/2024 13:57:56",187387,9,"task-nz4r",NA,40225291,11744027,NA,"complete",NA,"66f2a319f730ecf1c5ee26f5","computer","Desktop or Laptop","Mac OS 10.15.7","Chrome 129.0.0.0","1710x1107","1710x947",NA,NA,0,"Gambling_GBO",12,"In","DECFBGAHKIJ",NA,"In","MH_OCT","seq4","Gamble_Rand_Seq4","Gamble_Rand_Seq4",3,"Rating","Screen 1","hx8b5a",1,"info","",16.6999999999971,0,16.6999999999971,16.6999999999971,0,16.6999999999971,1,16.6999999999971,0,0,NA,"Slider","MoodSlider",2,"object-243","Rating","bored","not bored","bored",1,"",NA,NA,NA,NA,NA,"",NA,NA,NA,NA,NA,NA,NA,"MDPRF67386"
"19",1727179077276,"24/09/2024 11:57:57",1727182677276,1,"24/09/2024 13:57:57",187387,9,"task-nz4r",NA,40225291,11744027,NA,"complete",NA,"66f2a319f730ecf1c5ee26f5","computer","Desktop or Laptop","Mac OS 10.15.7","Chrome 129.0.0.0","1710x1107","1710x947",NA,NA,0,"Gambling_GBO",12,"In","DECFBGAHKIJ",NA,"In","MH_OCT","seq4","Gamble_Rand_Seq4","Gamble_Rand_Seq4",3,"Rating","Screen 1","hx8b5a",1,"continue","",1113.5,1100,1113.5,1113.5,1100,1113.5,1,1113.5,0,0,NA,"Click To Continue","Continue Button",3,"object-25","Rating","bored","not bored","bored",1,"",NA,NA,NA,NA,NA,"",NA,NA,NA,NA,NA,NA,NA,"MDPRF67386"
"20",1727179077277,"24/09/2024 11:57:57",1727182677277,1,"24/09/2024 13:57:57",187387,9,"task-nz4r",NA,40225291,11744027,NA,"complete",NA,"66f2a319f730ecf1c5ee26f5","computer","Desktop or Laptop","Mac OS 10.15.7","Chrome 129.0.0.0","1710x1107","1710x947",NA,NA,0,"Gambling_GBO",12,"In","DECFBGAHKIJ",NA,"In","MH_OCT","seq4","Gamble_Rand_Seq4","Gamble_Rand_Seq4",3,"Rating","Screen 1","hx8b5a",1,"response","50",633.300000000003,1100,1114.60000000056,633.300000000003,1100,1114.60000000056,1,633.300000000003,481.300000000556,0,NA,"Slider","MoodSlider",2,"object-243","Rating","bored","not bored","bored",1,"",NA,NA,NA,NA,NA,"",NA,NA,NA,NA,NA,NA,NA,"MDPRF67386"
"21",1727179079230,"24/09/2024 11:57:59",1727182679230,1,"24/09/2024 13:57:59",187387,9,"task-nz4r",NA,40225291,11744027,NA,"complete",NA,"66f2a319f730ecf1c5ee26f5","computer","Desktop or Laptop","Mac OS 10.15.7","Chrome 129.0.0.0","1710x1107","1710x947",NA,NA,0,"Gambling_GBO",12,"In","DECFBGAHKIJ",NA,"In","MH_OCT","seq4","Gamble_Rand_Seq4","Gamble_Rand_Seq4",1,"winB","Screen 1","pkkyi8",1,"continue","",1966.2,1966.2,1966.2,1966.2,1966.2,1966.2,1,1966.2,0,0,NA,"Fixation Timing","Fixation",1,"object-246","winB","","","",NA,"Right",0.33,-1,3,1,NA,"",NA,NA,NA,NA,NA,NA,NA,"MDPRF67386"
"22",1727179082318,"24/09/2024 11:58:02",1727182682318,1,"24/09/2024 13:58:02",187387,9,"task-nz4r",NA,40225291,11744027,NA,"complete",NA,"66f2a319f730ecf1c5ee26f5","computer","Desktop or Laptop","Mac OS 10.15.7","Chrome 129.0.0.0","1710x1107","1710x947",NA,NA,0,"Gambling_GBO",12,"In","DECFBGAHKIJ",NA,"In","MH_OCT","seq4","Gamble_Rand_Seq4","Gamble_Rand_Seq4",1,"winB","choice","5lszbx",2,"response","Left",3088.00000000019,3083.8,3088.00000000019,3088.00000000019,3083.8,3088.00000000019,0,3088.00000000019,0,0,NA,"Keyboard Response","KeyResponseC",5,"object-255","winB","","","",NA,"Right",0.33,-1,3,1,NA,"Left",NA,0.33,NA,NA,NA,NA,0.33,"MDPRF67386"
"23",1727179087313,"24/09/2024 11:58:07",1727182687313,1,"24/09/2024 13:58:07",187387,9,"task-nz4r",NA,40225291,11744027,NA,"complete",NA,"66f2a319f730ecf1c5ee26f5","computer","Desktop or Laptop","Mac OS 10.15.7","Chrome 129.0.0.0","1710x1107","1710x947",NA,NA,0,"Gambling_GBO",12,"In","DECFBGAHKIJ",NA,"In","MH_OCT","seq4","Gamble_Rand_Seq4","Gamble_Rand_Seq4",1,"winB","certain","nw4etn",3,"timedOut","",5000.40000000037,4999.9,5000.40000000037,5000.40000000037,4999.9,5000.40000000037,1,5000.40000000037,0,0,NA,"Time Limit","screen",0,"screen","winB","","","",NA,"Right",0.33,-1,3,1,NA,"Left",NA,0.33,NA,NA,NA,NA,0.33,"MDPRF67386"
"24",1727179087322,"24/09/2024 11:58:07",1727182687322,1,"24/09/2024 13:58:07",187387,9,"task-nz4r",NA,40225291,11744027,NA,"complete",NA,"66f2a319f730ecf1c5ee26f5","computer","Desktop or Laptop","Mac OS 10.15.7","Chrome 129.0.0.0","1710x1107","1710x947",NA,NA,0,"Gambling_GBO",12,"In","DECFBGAHKIJ",NA,"In","MH_OCT","seq4","Gamble_Rand_Seq4","Gamble_Rand_Seq4",4,"Rating","Screen 1","hx8b5a",1,"info","",9.80000000018481,0,9.80000000018481,9.80000000018481,0,9.80000000018481,1,9.80000000018481,0,0,NA,"Slider","MoodSlider",2,"object-243","Rating","happy","unhappy","happy",2,"",NA,NA,NA,NA,NA,"Left",NA,0.33,NA,NA,NA,NA,0.33,"MDPRF67386"
"25",1727179089411,"24/09/2024 11:58:09",1727182689411,1,"24/09/2024 13:58:09",187387,9,"task-nz4r",NA,40225291,11744027,NA,"complete",NA,"66f2a319f730ecf1c5ee26f5","computer","Desktop or Laptop","Mac OS 10.15.7","Chrome 129.0.0.0","1710x1107","1710x947",NA,NA,0,"Gambling_GBO",12,"In","DECFBGAHKIJ",NA,"In","MH_OCT","seq4","Gamble_Rand_Seq4","Gamble_Rand_Seq4",4,"Rating","Screen 1","hx8b5a",1,"continue","",2098.20000000056,2083.4,2098.20000000056,2098.20000000056,2083.4,2098.20000000056,1,2098.20000000056,0,0,NA,"Click To Continue","Continue Button",3,"object-25","Rating","happy","unhappy","happy",2,"",NA,NA,NA,NA,NA,"Left",NA,0.33,NA,NA,NA,NA,0.33,"MDPRF67386"
"26",1727179089414,"24/09/2024 11:58:09",1727182689414,1,"24/09/2024 13:58:09",187387,9,"task-nz4r",NA,40225291,11744027,NA,"complete",NA,"66f2a319f730ecf1c5ee26f5","computer","Desktop or Laptop","Mac OS 10.15.7","Chrome 129.0.0.0","1710x1107","1710x947",NA,NA,0,"Gambling_GBO",12,"In","DECFBGAHKIJ",NA,"In","MH_OCT","seq4","Gamble_Rand_Seq4","Gamble_Rand_Seq4",4,"Rating","Screen 1","hx8b5a",1,"response","50",1233.4,2083.4,2100.10000000001,1233.4,2083.4,2100.10000000001,1,1233.4,866.700000000004,0,NA,"Slider","MoodSlider",2,"object-243","Rating","happy","unhappy","happy",2,"",NA,NA,NA,NA,NA,"Left",NA,0.33,NA,NA,NA,NA,0.33,"MDPRF67386"
"27",1727179089422,"24/09/2024 11:58:09",1727182689422,1,"24/09/2024 13:58:09",187387,9,"task-nz4r",NA,40225291,11744027,NA,"complete",NA,"66f2a319f730ecf1c5ee26f5","computer","Desktop or Laptop","Mac OS 10.15.7","Chrome 129.0.0.0","1710x1107","1710x947",NA,NA,0,"Gambling_GBO",12,"In","DECFBGAHKIJ",NA,"In","MH_OCT","seq4","Gamble_Rand_Seq4","Gamble_Rand_Seq4",5,"Rating","Screen 1","hx8b5a",1,"info","",16.7000000000044,0,16.7000000000044,16.7000000000044,0,16.7000000000044,1,16.7000000000044,0,0,NA,"Slider","MoodSlider",2,"object-243","Rating","bored","not bored","bored",2,"",NA,NA,NA,NA,NA,"Left",NA,0.33,NA,NA,NA,NA,0.33,"MDPRF67386"
"28",1727179091599,"24/09/2024 11:58:11",1727182691599,1,"24/09/2024 13:58:11",187387,9,"task-nz4r",NA,40225291,11744027,NA,"complete",NA,"66f2a319f730ecf1c5ee26f5","computer","Desktop or Laptop","Mac OS 10.15.7","Chrome 129.0.0.0","1710x1107","1710x947",NA,NA,0,"Gambling_GBO",12,"In","DECFBGAHKIJ",NA,"In","MH_OCT","seq4","Gamble_Rand_Seq4","Gamble_Rand_Seq4",5,"Rating","Screen 1","hx8b5a",1,"continue","",2203.40000000018,2200,2203.40000000018,2203.40000000018,2200,2203.40000000018,1,2203.40000000018,0,0,NA,"Click To Continue","Continue Button",3,"object-25","Rating","bored","not bored","bored",2,"",NA,NA,NA,NA,NA,"Left",NA,0.33,NA,NA,NA,NA,0.33,"MDPRF67386"
"29",1727179091600,"24/09/2024 11:58:11",1727182691600,1,"24/09/2024 13:58:11",187387,9,"task-nz4r",NA,40225291,11744027,NA,"complete",NA,"66f2a319f730ecf1c5ee26f5","computer","Desktop or Laptop","Mac OS 10.15.7","Chrome 129.0.0.0","1710x1107","1710x947",NA,NA,0,"Gambling_GBO",12,"In","DECFBGAHKIJ",NA,"In","MH_OCT","seq4","Gamble_Rand_Seq4","Gamble_Rand_Seq4",5,"Rating","Screen 1","hx8b5a",1,"response","50",1516.7,2200,2203.90000000018,1516.7,2200,2203.90000000018,1,1516.7,687.200000000186,0,NA,"Slider","MoodSlider",2,"object-243","Rating","bored","not bored","bored",2,"",NA,NA,NA,NA,NA,"Left",NA,0.33,NA,NA,NA,NA,0.33,"MDPRF67386"
"30",1727179091608,"24/09/2024 11:58:11",1727182691608,1,"24/09/2024 13:58:11",187387,9,"task-nz4r",NA,40225291,11744027,NA,"complete",NA,"66f2a319f730ecf1c5ee26f5","computer","Desktop or Laptop","Mac OS 10.15.7","Chrome 129.0.0.0","1710x1107","1710x947",NA,NA,0,"Gambling_GBO",12,"In","DECFBGAHKIJ",NA,"In","MH_OCT","seq4","Gamble_Rand_Seq4","Gamble_Rand_Seq4",6,"Rating","Screen 1","hx8b5a",1,"info","",12.4000000001834,0,12.4000000001834,12.4000000001834,0,12.4000000001834,1,12.4000000001834,0,0,NA,"Slider","MoodSlider",2,"object-243","Rating","frustrated","not frustrated","frustrated",2,"",NA,NA,NA,NA,NA,"Left",NA,0.33,NA,NA,NA,NA,0.33,"MDPRF67386"
"31",1727179093110,"24/09/2024 11:58:13",1727182693110,1,"24/09/2024 13:58:13",187387,9,"task-nz4r",NA,40225291,11744027,NA,"complete",NA,"66f2a319f730ecf1c5ee26f5","computer","Desktop or Laptop","Mac OS 10.15.7","Chrome 129.0.0.0","1710x1107","1710x947",NA,NA,0,"Gambling_GBO",12,"In","DECFBGAHKIJ",NA,"In","MH_OCT","seq4","Gamble_Rand_Seq4","Gamble_Rand_Seq4",6,"Rating","Screen 1","hx8b5a",1,"continue","",1513.60000000037,1499.89999999999,1513.60000000037,1513.60000000037,1499.89999999999,1513.60000000037,1,1513.60000000037,0,0,NA,"Click To Continue","Continue Button",3,"object-25","Rating","frustrated","not frustrated","frustrated",2,"",NA,NA,NA,NA,NA,"Left",NA,0.33,NA,NA,NA,NA,0.33,"MDPRF67386"
"32",1727179093110,"24/09/2024 11:58:13",1727182693110,1,"24/09/2024 13:58:13",187387,9,"task-nz4r",NA,40225291,11744027,NA,"complete",NA,"66f2a319f730ecf1c5ee26f5","computer","Desktop or Laptop","Mac OS 10.15.7","Chrome 129.0.0.0","1710x1107","1710x947",NA,NA,0,"Gambling_GBO",12,"In","DECFBGAHKIJ",NA,"In","MH_OCT","seq4","Gamble_Rand_Seq4","Gamble_Rand_Seq4",6,"Rating","Screen 1","hx8b5a",1,"response","51",599,1499.89999999999,1514.2,599,1499.89999999999,1514.2,1,599,915.199999999997,0,NA,"Slider","MoodSlider",2,"object-243","Rating","frustrated","not frustrated","frustrated",2,"",NA,NA,NA,NA,NA,"Left",NA,0.33,NA,NA,NA,NA,0.33,"MDPRF67386"
"33",1727179095063,"24/09/2024 11:58:15",1727182695063,1,"24/09/2024 13:58:15",187387,9,"task-nz4r",NA,40225291,11744027,NA,"complete",NA,"66f2a319f730ecf1c5ee26f5","computer","Desktop or Laptop","Mac OS 10.15.7","Chrome 129.0.0.0","1710x1107","1710x947",NA,NA,0,"Gambling_GBO",12,"In","DECFBGAHKIJ",NA,"In","MH_OCT","seq4","Gamble_Rand_Seq4","Gamble_Rand_Seq4",1,"lossB","Screen 1","a4fynh",1,"continue","",1965.7,1965.7,1965.7,1965.7,1965.7,1965.7,1,1965.7,0,0,NA,"Fixation Timing","Fixation",1,"object-113","lossB","","","",NA,"Right",-0.67,-1,0,2,NA,"Left",NA,0.33,NA,NA,NA,NA,0.33,"MDPRF67386"
"34",1727179097704,"24/09/2024 11:58:17",1727182697704,1,"24/09/2024 13:58:17",187387,9,"task-nz4r",NA,40225291,11744027,NA,"complete",NA,"66f2a319f730ecf1c5ee26f5","computer","Desktop or Laptop","Mac OS 10.15.7","Chrome 129.0.0.0","1710x1107","1710x947",NA,NA,0,"Gambling_GBO",12,"In","DECFBGAHKIJ",NA,"In","MH_OCT","seq4","Gamble_Rand_Seq4","Gamble_Rand_Seq4",1,"lossB","choice","k9qq8f",2,"response","Right",2641.00000000037,2634.4,2641.00000000037,2641.00000000037,2634.4,2641.00000000037,1,2641.00000000037,0,0,NA,"Keyboard Response","KeyResponseG",6,"object-200","lossB","","","",NA,"Right",-0.67,-1,0,2,NA,"Right",NA,-0.67,NA,NA,NA,NA,-1,"MDPRF67386"
"35",1727179101696,"24/09/2024 11:58:21",1727182701696,1,"24/09/2024 13:58:21",187387,9,"task-nz4r",NA,40225291,11744027,NA,"complete",NA,"66f2a319f730ecf1c5ee26f5","computer","Desktop or Laptop","Mac OS 10.15.7","Chrome 129.0.0.0","1710x1107","1710x947",NA,NA,0,"Gambling_GBO",12,"In","DECFBGAHKIJ",NA,"In","MH_OCT","seq4","Gamble_Rand_Seq4","Gamble_Rand_Seq4",1,"lossB","gamble","tpcid5",3,"timedOut","",4000.2,3999.89999999999,4000.2,4000.2,3999.89999999999,4000.2,1,4000.2,0,0,NA,"Time Limit","screen",0,"screen","lossB","","","",NA,"Right",-0.67,-1,0,2,NA,"Right",NA,-0.67,NA,NA,NA,NA,-1,"MDPRF67386"
"36",1727179102696,"24/09/2024 11:58:22",1727182702696,1,"24/09/2024 13:58:22",187387,9,"task-nz4r",NA,40225291,11744027,NA,"complete",NA,"66f2a319f730ecf1c5ee26f5","computer","Desktop or Laptop","Mac OS 10.15.7","Chrome 129.0.0.0","1710x1107","1710x947",NA,NA,0,"Gambling_GBO",12,"In","DECFBGAHKIJ",NA,"In","MH_OCT","seq4","Gamble_Rand_Seq4","Gamble_Rand_Seq4",1,"lossB","loss","2apfzp",4,"timedOut","",1000.3,1000.10000000001,1000.3,1000.3,1000.10000000001,1000.3,1,1000.3,0,0,NA,"Time Limit","screen",0,"screen","lossB","","","",NA,"Right",-0.67,-1,0,2,NA,"Right",NA,-0.67,NA,NA,NA,NA,-1,"MDPRF67386"
"37",1727179102705,"24/09/2024 11:58:22",1727182702705,1,"24/09/2024 13:58:22",187387,9,"task-nz4r",NA,40225291,11744027,NA,"complete",NA,"66f2a319f730ecf1c5ee26f5","computer","Desktop or Laptop","Mac OS 10.15.7","Chrome 129.0.0.0","1710x1107","1710x947",NA,NA,0,"Gambling_GBO",12,"In","DECFBGAHKIJ",NA,"In","MH_OCT","seq4","Gamble_Rand_Seq4","Gamble_Rand_Seq4",7,"Rating","Screen 1","hx8b5a",1,"info","",8.90000000018335,0,8.90000000018335,8.90000000018335,0,8.90000000018335,1,8.90000000018335,0,0,NA,"Slider","MoodSlider",2,"object-243","Rating","happy","unhappy","happy",3,"",NA,NA,NA,NA,NA,"Right",NA,-0.67,NA,NA,NA,NA,-1,"MDPRF67386"
"38",1727179104421,"24/09/2024 11:58:24",1727182704421,1,"24/09/2024 13:58:24",187387,9,"task-nz4r",NA,40225291,11744027,NA,"complete",NA,"66f2a319f730ecf1c5ee26f5","computer","Desktop or Laptop","Mac OS 10.15.7","Chrome 129.0.0.0","1710x1107","1710x947",NA,NA,0,"Gambling_GBO",12,"In","DECFBGAHKIJ",NA,"In","MH_OCT","seq4","Gamble_Rand_Seq4","Gamble_Rand_Seq4",7,"Rating","Screen 1","hx8b5a",1,"continue","",1725.00000000074,1715.8,1725.00000000074,1725.00000000074,1715.8,1725.00000000074,1,1725.00000000074,0,0,NA,"Click To Continue","Continue Button",3,"object-25","Rating","happy","unhappy","happy",3,"",NA,NA,NA,NA,NA,"Right",NA,-0.67,NA,NA,NA,NA,-1,"MDPRF67386"
"39",1727179104421,"24/09/2024 11:58:24",1727182704421,1,"24/09/2024 13:58:24",187387,9,"task-nz4r",NA,40225291,11744027,NA,"complete",NA,"66f2a319f730ecf1c5ee26f5","computer","Desktop or Laptop","Mac OS 10.15.7","Chrome 129.0.0.0","1710x1107","1710x947",NA,NA,0,"Gambling_GBO",12,"In","DECFBGAHKIJ",NA,"In","MH_OCT","seq4","Gamble_Rand_Seq4","Gamble_Rand_Seq4",7,"Rating","Screen 1","hx8b5a",1,"response","26",1183.3,1715.8,1725.60000000037,1183.3,1715.8,1725.60000000037,1,1183.3,542.300000000374,0,NA,"Slider","MoodSlider",2,"object-243","Rating","happy","unhappy","happy",3,"",NA,NA,NA,NA,NA,"Right",NA,-0.67,NA,NA,NA,NA,-1,"MDPRF67386"
"40",1727179104430,"24/09/2024 11:58:24",1727182704430,1,"24/09/2024 13:58:24",187387,9,"task-nz4r",NA,40225291,11744027,NA,"complete",NA,"66f2a319f730ecf1c5ee26f5","computer","Desktop or Laptop","Mac OS 10.15.7","Chrome 129.0.0.0","1710x1107","1710x947",NA,NA,0,"Gambling_GBO",12,"In","DECFBGAHKIJ",NA,"In","MH_OCT","seq4","Gamble_Rand_Seq4","Gamble_Rand_Seq4",8,"Rating","Screen 1","hx8b5a",1,"info","",15.7999999999956,0,15.7999999999956,15.7999999999956,0,15.7999999999956,1,15.7999999999956,0,0,NA,"Slider","MoodSlider",2,"object-243","Rating","frustrated","not frustrated","frustrated",3,"",NA,NA,NA,NA,NA,"Right",NA,-0.67,NA,NA,NA,NA,-1,"MDPRF67386"
"41",1727179107426,"24/09/2024 11:58:27",1727182707426,1,"24/09/2024 13:58:27",187387,9,"task-nz4r",NA,40225291,11744027,NA,"complete",NA,"66f2a319f730ecf1c5ee26f5","computer","Desktop or Laptop","Mac OS 10.15.7","Chrome 129.0.0.0","1710x1107","1710x947",NA,NA,0,"Gambling_GBO",12,"In","DECFBGAHKIJ",NA,"In","MH_OCT","seq4","Gamble_Rand_Seq4","Gamble_Rand_Seq4",8,"Rating","Screen 1","hx8b5a",1,"continue","",3013.80000000037,2999.9,3013.80000000037,3013.80000000037,2999.9,3013.80000000037,1,3013.80000000037,0,0,NA,"Click To Continue","Continue Button",3,"object-25","Rating","frustrated","not frustrated","frustrated",3,"",NA,NA,NA,NA,NA,"Right",NA,-0.67,NA,NA,NA,NA,-1,"MDPRF67386"
"42",1727179107426,"24/09/2024 11:58:27",1727182707426,1,"24/09/2024 13:58:27",187387,9,"task-nz4r",NA,40225291,11744027,NA,"complete",NA,"66f2a319f730ecf1c5ee26f5","computer","Desktop or Laptop","Mac OS 10.15.7","Chrome 129.0.0.0","1710x1107","1710x947",NA,NA,0,"Gambling_GBO",12,"In","DECFBGAHKIJ",NA,"In","MH_OCT","seq4","Gamble_Rand_Seq4","Gamble_Rand_Seq4",8,"Rating","Screen 1","hx8b5a",1,"response","63",2067.50000000001,2999.9,3014.60000000019,2067.50000000001,2999.9,3014.60000000019,1,2067.50000000001,947.10000000018,0,NA,"Slider","MoodSlider",2,"object-243","Rating","frustrated","not frustrated","frustrated",3,"",NA,NA,NA,NA,NA,"Right",NA,-0.67,NA,NA,NA,NA,-1,"MDPRF67386"
"43",1727179107436,"24/09/2024 11:58:27",1727182707436,1,"24/09/2024 13:58:27",187387,9,"task-nz4r",NA,40225291,11744027,NA,"complete",NA,"66f2a319f730ecf1c5ee26f5","computer","Desktop or Laptop","Mac OS 10.15.7","Chrome 129.0.0.0","1710x1107","1710x947",NA,NA,0,"Gambling_GBO",12,"In","DECFBGAHKIJ",NA,"In","MH_OCT","seq4","Gamble_Rand_Seq4","Gamble_Rand_Seq4",9,"Rating","Screen 1","hx8b5a",1,"info","",15.6999999999971,0,15.6999999999971,15.6999999999971,0,15.6999999999971,1,15.6999999999971,0,0,NA,"Slider","MoodSlider",2,"object-243","Rating","bored","not bored","bored",3,"",NA,NA,NA,NA,NA,"Right",NA,-0.67,NA,NA,NA,NA,-1,"MDPRF67386"
"44",1727179109141,"24/09/2024 11:58:29",1727182709141,1,"24/09/2024 13:58:29",187387,9,"task-nz4r",NA,40225291,11744027,NA,"complete",NA,"66f2a319f730ecf1c5ee26f5","computer","Desktop or Laptop","Mac OS 10.15.7","Chrome 129.0.0.0","1710x1107","1710x947",NA,NA,0,"Gambling_GBO",12,"In","DECFBGAHKIJ",NA,"In","MH_OCT","seq4","Gamble_Rand_Seq4","Gamble_Rand_Seq4",9,"Rating","Screen 1","hx8b5a",1,"continue","",1729,1716.7,1729,1729,1716.7,1729,1,1729,0,0,NA,"Click To Continue","Continue Button",3,"object-25","Rating","bored","not bored","bored",3,"",NA,NA,NA,NA,NA,"Right",NA,-0.67,NA,NA,NA,NA,-1,"MDPRF67386"
"45",1727179109141,"24/09/2024 11:58:29",1727182709141,1,"24/09/2024 13:58:29",187387,9,"task-nz4r",NA,40225291,11744027,NA,"complete",NA,"66f2a319f730ecf1c5ee26f5","computer","Desktop or Laptop","Mac OS 10.15.7","Chrome 129.0.0.0","1710x1107","1710x947",NA,NA,0,"Gambling_GBO",12,"In","DECFBGAHKIJ",NA,"In","MH_OCT","seq4","Gamble_Rand_Seq4","Gamble_Rand_Seq4",9,"Rating","Screen 1","hx8b5a",1,"response","48",634.199999999997,1716.7,1729.70000000019,634.199999999997,1716.7,1729.70000000019,1,634.199999999997,1095.50000000019,0,NA,"Slider","MoodSlider",2,"object-243","Rating","bored","not bored","bored",3,"",NA,NA,NA,NA,NA,"Right",NA,-0.67,NA,NA,NA,NA,-1,"MDPRF67386"
"46",1727179111096,"24/09/2024 11:58:31",1727182711096,1,"24/09/2024 13:58:31",187387,9,"task-nz4r",NA,40225291,11744027,NA,"complete",NA,"66f2a319f730ecf1c5ee26f5","computer","Desktop or Laptop","Mac OS 10.15.7","Chrome 129.0.0.0","1710x1107","1710x947",NA,NA,0,"Gambling_GBO",12,"In","DECFBGAHKIJ",NA,"In","MH_OCT","seq4","Gamble_Rand_Seq4","Gamble_Rand_Seq4",1,"lossT","Screen 1","2oxi65",1,"continue","",1967.5,1967.5,1967.5,1967.5,1967.5,1967.5,1,1967.5,0,0,NA,"Fixation Timing","Fixation",1,"object-354","lossT","","","",NA,"Right",-0.67,-1,0,3,NA,"Right",NA,-0.67,NA,NA,NA,NA,-1,"MDPRF67386"
"47",1727179113000,"24/09/2024 11:58:33",1727182713000,1,"24/09/2024 13:58:33",187387,9,"task-nz4r",NA,40225291,11744027,NA,"complete",NA,"66f2a319f730ecf1c5ee26f5","computer","Desktop or Laptop","Mac OS 10.15.7","Chrome 129.0.0.0","1710x1107","1710x947",NA,NA,0,"Gambling_GBO",12,"In","DECFBGAHKIJ",NA,"In","MH_OCT","seq4","Gamble_Rand_Seq4","Gamble_Rand_Seq4",1,"lossT","choice","zjftf8",2,"response","Right",1903.10000000075,1900.10000000001,1903.10000000075,1903.10000000075,1900.10000000001,1903.10000000075,1,1903.10000000075,0,0,NA,"Keyboard Response","KeyResponseG",6,"object-352","lossT","","","",NA,"Right",-0.67,-1,0,3,NA,"Right",NA,-1.67,NA,NA,NA,NA,-1,"MDPRF67386"
"48",1727179116996,"24/09/2024 11:58:36",1727182716996,1,"24/09/2024 13:58:36",187387,9,"task-nz4r",NA,40225291,11744027,NA,"complete",NA,"66f2a319f730ecf1c5ee26f5","computer","Desktop or Laptop","Mac OS 10.15.7","Chrome 129.0.0.0","1710x1107","1710x947",NA,NA,0,"Gambling_GBO",12,"In","DECFBGAHKIJ",NA,"In","MH_OCT","seq4","Gamble_Rand_Seq4","Gamble_Rand_Seq4",1,"lossT","gamble","h5bf9r",3,"timedOut","",4000.2,3999.89999999999,4000.2,4000.2,3999.89999999999,4000.2,1,4000.2,0,0,NA,"Time Limit","screen",0,"screen","lossT","","","",NA,"Right",-0.67,-1,0,3,NA,"Right",NA,-1.67,NA,NA,NA,NA,-1,"MDPRF67386"
"49",1727179117996,"24/09/2024 11:58:37",1727182717996,1,"24/09/2024 13:58:37",187387,9,"task-nz4r",NA,40225291,11744027,NA,"complete",NA,"66f2a319f730ecf1c5ee26f5","computer","Desktop or Laptop","Mac OS 10.15.7","Chrome 129.0.0.0","1710x1107","1710x947",NA,NA,0,"Gambling_GBO",12,"In","DECFBGAHKIJ",NA,"In","MH_OCT","seq4","Gamble_Rand_Seq4","Gamble_Rand_Seq4",1,"lossT","loss","kmnw8b",4,"timedOut","",1000.3,1000.10000000001,1000.3,1000.3,1000.10000000001,1000.3,1,1000.3,0,0,NA,"Time Limit","screen",0,"screen","lossT","","","",NA,"Right",-0.67,-1,0,3,NA,"Right",NA,-1.67,NA,NA,NA,NA,-1,"MDPRF67386"
"50",1727179118004,"24/09/2024 11:58:38",1727182718004,1,"24/09/2024 13:58:38",187387,9,"task-nz4r",NA,40225291,11744027,NA,"complete",NA,"66f2a319f730ecf1c5ee26f5","computer","Desktop or Laptop","Mac OS 10.15.7","Chrome 129.0.0.0","1710x1107","1710x947",NA,NA,0,"Gambling_GBO",12,"In","DECFBGAHKIJ",NA,"In","MH_OCT","seq4","Gamble_Rand_Seq4","Gamble_Rand_Seq4",10,"Rating","Screen 1","hx8b5a",1,"info","",8.19999999999709,0,8.19999999999709,8.19999999999709,0,8.19999999999709,1,8.19999999999709,0,0,NA,"Slider","MoodSlider",2,"object-243","Rating","frustrated","not frustrated","frustrated",4,"",NA,NA,NA,NA,NA,"Right",NA,-1.67,NA,NA,NA,NA,-1,"MDPRF67386"
"51",1727179120387,"24/09/2024 11:58:40",1727182720387,1,"24/09/2024 13:58:40",187387,9,"task-nz4r",NA,40225291,11744027,NA,"complete",NA,"66f2a319f730ecf1c5ee26f5","computer","Desktop or Laptop","Mac OS 10.15.7","Chrome 129.0.0.0","1710x1107","1710x947",NA,NA,0,"Gambling_GBO",12,"In","DECFBGAHKIJ",NA,"In","MH_OCT","seq4","Gamble_Rand_Seq4","Gamble_Rand_Seq4",10,"Rating","Screen 1","hx8b5a",1,"continue","",2391.10000000037,2383.3,2391.10000000037,2391.10000000037,2383.3,2391.10000000037,1,2391.10000000037,0,0,NA,"Click To Continue","Continue Button",3,"object-25","Rating","frustrated","not frustrated","frustrated",4,"",NA,NA,NA,NA,NA,"Right",NA,-1.67,NA,NA,NA,NA,-1,"MDPRF67386"
"52",1727179120388,"24/09/2024 11:58:40",1727182720388,1,"24/09/2024 13:58:40",187387,9,"task-nz4r",NA,40225291,11744027,NA,"complete",NA,"66f2a319f730ecf1c5ee26f5","computer","Desktop or Laptop","Mac OS 10.15.7","Chrome 129.0.0.0","1710x1107","1710x947",NA,NA,0,"Gambling_GBO",12,"In","DECFBGAHKIJ",NA,"In","MH_OCT","seq4","Gamble_Rand_Seq4","Gamble_Rand_Seq4",10,"Rating","Screen 1","hx8b5a",1,"response","70",1299.09999999999,2383.3,2391.60000000037,1299.09999999999,2383.3,2391.60000000037,1,1299.09999999999,1092.50000000038,0,NA,"Slider","MoodSlider",2,"object-243","Rating","frustrated","not frustrated","frustrated",4,"",NA,NA,NA,NA,NA,"Right",NA,-1.67,NA,NA,NA,NA,-1,"MDPRF67386"
"53",1727179120395,"24/09/2024 11:58:40",1727182720395,1,"24/09/2024 13:58:40",187387,9,"task-nz4r",NA,40225291,11744027,NA,"complete",NA,"66f2a319f730ecf1c5ee26f5","computer","Desktop or Laptop","Mac OS 10.15.7","Chrome 129.0.0.0","1710x1107","1710x947",NA,NA,0,"Gambling_GBO",12,"In","DECFBGAHKIJ",NA,"In","MH_OCT","seq4","Gamble_Rand_Seq4","Gamble_Rand_Seq4",11,"Rating","Screen 1","hx8b5a",1,"info","",15.6000000001804,0,15.6000000001804,15.6000000001804,0,15.6000000001804,1,15.6000000001804,0,0,NA,"Slider","MoodSlider",2,"object-243","Rating","happy","unhappy","happy",4,"",NA,NA,NA,NA,NA,"Right",NA,-1.67,NA,NA,NA,NA,-1,"MDPRF67386"
"54",1727179122445,"24/09/2024 11:58:42",1727182722445,1,"24/09/2024 13:58:42",187387,9,"task-nz4r",NA,40225291,11744027,NA,"complete",NA,"66f2a319f730ecf1c5ee26f5","computer","Desktop or Laptop","Mac OS 10.15.7","Chrome 129.0.0.0","1710x1107","1710x947",NA,NA,0,"Gambling_GBO",12,"In","DECFBGAHKIJ",NA,"In","MH_OCT","seq4","Gamble_Rand_Seq4","Gamble_Rand_Seq4",11,"Rating","Screen 1","hx8b5a",1,"continue","",2065.50000000055,2050,2065.50000000055,2065.50000000055,2050,2065.50000000055,1,2065.50000000055,0,0,NA,"Click To Continue","Continue Button",3,"object-25","Rating","happy","unhappy","happy",4,"",NA,NA,NA,NA,NA,"Right",NA,-1.67,NA,NA,NA,NA,-1,"MDPRF67386"
"55",1727179122445,"24/09/2024 11:58:42",1727182722445,1,"24/09/2024 13:58:42",187387,9,"task-nz4r",NA,40225291,11744027,NA,"complete",NA,"66f2a319f730ecf1c5ee26f5","computer","Desktop or Laptop","Mac OS 10.15.7","Chrome 129.0.0.0","1710x1107","1710x947",NA,NA,0,"Gambling_GBO",12,"In","DECFBGAHKIJ",NA,"In","MH_OCT","seq4","Gamble_Rand_Seq4","Gamble_Rand_Seq4",11,"Rating","Screen 1","hx8b5a",1,"response","22",1450,2050,2066.20000000074,1450,2050,2066.20000000074,1,1450,616.200000000739,0,NA,"Slider","MoodSlider",2,"object-243","Rating","happy","unhappy","happy",4,"",NA,NA,NA,NA,NA,"Right",NA,-1.67,NA,NA,NA,NA,-1,"MDPRF67386"
"56",1727179122454,"24/09/2024 11:58:42",1727182722454,1,"24/09/2024 13:58:42",187387,9,"task-nz4r",NA,40225291,11744027,NA,"complete",NA,"66f2a319f730ecf1c5ee26f5","computer","Desktop or Laptop","Mac OS 10.15.7","Chrome 129.0.0.0","1710x1107","1710x947",NA,NA,0,"Gambling_GBO",12,"In","DECFBGAHKIJ",NA,"In","MH_OCT","seq4","Gamble_Rand_Seq4","Gamble_Rand_Seq4",12,"Rating","Screen 1","hx8b5a",1,"info","",16.8000000000029,0,16.8000000000029,16.8000000000029,0,16.8000000000029,1,16.8000000000029,0,0,NA,"Slider","MoodSlider",2,"object-243","Rating","bored","not bored","bored",4,"",NA,NA,NA,NA,NA,"Right",NA,-1.67,NA,NA,NA,NA,-1,"MDPRF67386"
"57",1727179123987,"24/09/2024 11:58:43",1727182723987,1,"24/09/2024 13:58:43",187387,9,"task-nz4r",NA,40225291,11744027,NA,"complete",NA,"66f2a319f730ecf1c5ee26f5","computer","Desktop or Laptop","Mac OS 10.15.7","Chrome 129.0.0.0","1710x1107","1710x947",NA,NA,0,"Gambling_GBO",12,"In","DECFBGAHKIJ",NA,"In","MH_OCT","seq4","Gamble_Rand_Seq4","Gamble_Rand_Seq4",12,"Rating","Screen 1","hx8b5a",1,"continue","",1558.00000000055,1550,1558.00000000055,1558.00000000055,1550,1558.00000000055,1,1558.00000000055,0,0,NA,"Click To Continue","Continue Button",3,"object-25","Rating","bored","not bored","bored",4,"",NA,NA,NA,NA,NA,"Right",NA,-1.67,NA,NA,NA,NA,-1,"MDPRF67386"
"58",1727179123991,"24/09/2024 11:58:43",1727182723991,1,"24/09/2024 13:58:43",187387,9,"task-nz4r",NA,40225291,11744027,NA,"complete",NA,"66f2a319f730ecf1c5ee26f5","computer","Desktop or Laptop","Mac OS 10.15.7","Chrome 129.0.0.0","1710x1107","1710x947",NA,NA,0,"Gambling_GBO",12,"In","DECFBGAHKIJ",NA,"In","MH_OCT","seq4","Gamble_Rand_Seq4","Gamble_Rand_Seq4",12,"Rating","Screen 1","hx8b5a",1,"response","37",700,1550,1562.30000000037,700,1550,1562.30000000037,1,700,862.300000000367,0,NA,"Slider","MoodSlider",2,"object-243","Rating","bored","not bored","bored",4,"",NA,NA,NA,NA,NA,"Right",NA,-1.67,NA,NA,NA,NA,-1,"MDPRF67386"
"59",1727179125946,"24/09/2024 11:58:45",1727182725946,1,"24/09/2024 13:58:45",187387,9,"task-nz4r",NA,40225291,11744027,NA,"complete",NA,"66f2a319f730ecf1c5ee26f5","computer","Desktop or Laptop","Mac OS 10.15.7","Chrome 129.0.0.0","1710x1107","1710x947",NA,NA,0,"Gambling_GBO",12,"In","DECFBGAHKIJ",NA,"In","MH_OCT","seq4","Gamble_Rand_Seq4","Gamble_Rand_Seq4",2,"winB","Screen 1","pkkyi8",1,"continue","",1965.7,1965.7,1965.7,1965.7,1965.7,1965.7,1,1965.7,0,0,NA,"Fixation Timing","Fixation",1,"object-246","winB","","","",NA,"Right",2.67,1,6,4,NA,"Right",NA,-1.67,NA,NA,NA,NA,-1,"MDPRF67386"
"60",1727179126729,"24/09/2024 11:58:46",1727182726729,1,"24/09/2024 13:58:46",187387,9,"task-nz4r",NA,40225291,11744027,NA,"complete",NA,"66f2a319f730ecf1c5ee26f5","computer","Desktop or Laptop","Mac OS 10.15.7","Chrome 129.0.0.0","1710x1107","1710x947",NA,NA,0,"Gambling_GBO",12,"In","DECFBGAHKIJ",NA,"In","MH_OCT","seq4","Gamble_Rand_Seq4","Gamble_Rand_Seq4",2,"winB","choice","5lszbx",2,"response","Left",782.60000000037,767.599999999991,782.60000000037,782.60000000037,767.599999999991,782.60000000037,0,782.60000000037,0,0,NA,"Keyboard Response","KeyResponseC",5,"object-255","winB","","","",NA,"Right",2.67,1,6,4,NA,"Left",NA,1,NA,NA,NA,NA,2.67,"MDPRF67386"
"61",1727179131713,"24/09/2024 11:58:51",1727182731713,1,"24/09/2024 13:58:51",187387,9,"task-nz4r",NA,40225291,11744027,NA,"complete",NA,"66f2a319f730ecf1c5ee26f5","computer","Desktop or Laptop","Mac OS 10.15.7","Chrome 129.0.0.0","1710x1107","1710x947",NA,NA,0,"Gambling_GBO",12,"In","DECFBGAHKIJ",NA,"In","MH_OCT","seq4","Gamble_Rand_Seq4","Gamble_Rand_Seq4",2,"winB","certain","nw4etn",3,"timedOut","",5000.20000000056,5000,5000.20000000056,5000.20000000056,5000,5000.20000000056,1,5000.20000000056,0,0,NA,"Time Limit","screen",0,"screen","winB","","","",NA,"Right",2.67,1,6,4,NA,"Left",NA,1,NA,NA,NA,NA,2.67,"MDPRF67386"
"62",1727179131722,"24/09/2024 11:58:51",1727182731722,1,"24/09/2024 13:58:51",187387,9,"task-nz4r",NA,40225291,11744027,NA,"complete",NA,"66f2a319f730ecf1c5ee26f5","computer","Desktop or Laptop","Mac OS 10.15.7","Chrome 129.0.0.0","1710x1107","1710x947",NA,NA,0,"Gambling_GBO",12,"In","DECFBGAHKIJ",NA,"In","MH_OCT","seq4","Gamble_Rand_Seq4","Gamble_Rand_Seq4",13,"Rating","Screen 1","hx8b5a",1,"info","",9.30000000019208,0,9.30000000019208,9.30000000019208,0,9.30000000019208,1,9.30000000019208,0,0,NA,"Slider","MoodSlider",2,"object-243","Rating","happy","unhappy","happy",5,"",NA,NA,NA,NA,NA,"Left",NA,1,NA,NA,NA,NA,2.67,"MDPRF67386"
"63",1727179133375,"24/09/2024 11:58:53",1727182733375,1,"24/09/2024 13:58:53",187387,9,"task-nz4r",NA,40225291,11744027,NA,"complete",NA,"66f2a319f730ecf1c5ee26f5","computer","Desktop or Laptop","Mac OS 10.15.7","Chrome 129.0.0.0","1710x1107","1710x947",NA,NA,0,"Gambling_GBO",12,"In","DECFBGAHKIJ",NA,"In","MH_OCT","seq4","Gamble_Rand_Seq4","Gamble_Rand_Seq4",13,"Rating","Screen 1","hx8b5a",1,"continue","",1662.30000000019,1649.90000000001,1662.30000000019,1662.30000000019,1649.90000000001,1662.30000000019,1,1662.30000000019,0,0,NA,"Click To Continue","Continue Button",3,"object-25","Rating","happy","unhappy","happy",5,"",NA,NA,NA,NA,NA,"Left",NA,1,NA,NA,NA,NA,2.67,"MDPRF67386"
"64",1727179133376,"24/09/2024 11:58:53",1727182733376,1,"24/09/2024 13:58:53",187387,9,"task-nz4r",NA,40225291,11744027,NA,"complete",NA,"66f2a319f730ecf1c5ee26f5","computer","Desktop or Laptop","Mac OS 10.15.7","Chrome 129.0.0.0","1710x1107","1710x947",NA,NA,0,"Gambling_GBO",12,"In","DECFBGAHKIJ",NA,"In","MH_OCT","seq4","Gamble_Rand_Seq4","Gamble_Rand_Seq4",13,"Rating","Screen 1","hx8b5a",1,"response","52",933.300000000003,1649.90000000001,1663.00000000038,933.300000000003,1649.90000000001,1663.00000000038,1,933.300000000003,729.700000000375,0,NA,"Slider","MoodSlider",2,"object-243","Rating","happy","unhappy","happy",5,"",NA,NA,NA,NA,NA,"Left",NA,1,NA,NA,NA,NA,2.67,"MDPRF67386"
"65",1727179133383,"24/09/2024 11:58:53",1727182733383,1,"24/09/2024 13:58:53",187387,9,"task-nz4r",NA,40225291,11744027,NA,"complete",NA,"66f2a319f730ecf1c5ee26f5","computer","Desktop or Laptop","Mac OS 10.15.7","Chrome 129.0.0.0","1710x1107","1710x947",NA,NA,0,"Gambling_GBO",12,"In","DECFBGAHKIJ",NA,"In","MH_OCT","seq4","Gamble_Rand_Seq4","Gamble_Rand_Seq4",14,"Rating","Screen 1","hx8b5a",1,"info","",16.6000000000058,0,16.6000000000058,16.6000000000058,0,16.6000000000058,1,16.6000000000058,0,0,NA,"Slider","MoodSlider",2,"object-243","Rating","frustrated","not frustrated","frustrated",5,"",NA,NA,NA,NA,NA,"Left",NA,1,NA,NA,NA,NA,2.67,"MDPRF67386"
"66",1727179135457,"24/09/2024 11:58:55",1727182735457,1,"24/09/2024 13:58:55",187387,9,"task-nz4r",NA,40225291,11744027,NA,"complete",NA,"66f2a319f730ecf1c5ee26f5","computer","Desktop or Laptop","Mac OS 10.15.7","Chrome 129.0.0.0","1710x1107","1710x947",NA,NA,0,"Gambling_GBO",12,"In","DECFBGAHKIJ",NA,"In","MH_OCT","seq4","Gamble_Rand_Seq4","Gamble_Rand_Seq4",14,"Rating","Screen 1","hx8b5a",1,"continue","",2094.7,2083.39999999999,2094.7,2094.7,2083.39999999999,2094.7,1,2094.7,0,0,NA,"Click To Continue","Continue Button",3,"object-25","Rating","frustrated","not frustrated","frustrated",5,"",NA,NA,NA,NA,NA,"Left",NA,1,NA,NA,NA,NA,2.67,"MDPRF67386"
"67",1727179135462,"24/09/2024 11:58:55",1727182735462,1,"24/09/2024 13:58:55",187387,9,"task-nz4r",NA,40225291,11744027,NA,"complete",NA,"66f2a319f730ecf1c5ee26f5","computer","Desktop or Laptop","Mac OS 10.15.7","Chrome 129.0.0.0","1710x1107","1710x947",NA,NA,0,"Gambling_GBO",12,"In","DECFBGAHKIJ",NA,"In","MH_OCT","seq4","Gamble_Rand_Seq4","Gamble_Rand_Seq4",14,"Rating","Screen 1","hx8b5a",1,"response","49",1483.39999999999,2083.39999999999,2099.40000000018,1483.39999999999,2083.39999999999,2099.40000000018,1,1483.39999999999,616.000000000189,0,NA,"Slider","MoodSlider",2,"object-243","Rating","frustrated","not frustrated","frustrated",5,"",NA,NA,NA,NA,NA,"Left",NA,1,NA,NA,NA,NA,2.67,"MDPRF67386"
"68",1727179135470,"24/09/2024 11:58:55",1727182735470,1,"24/09/2024 13:58:55",187387,9,"task-nz4r",NA,40225291,11744027,NA,"complete",NA,"66f2a319f730ecf1c5ee26f5","computer","Desktop or Laptop","Mac OS 10.15.7","Chrome 129.0.0.0","1710x1107","1710x947",NA,NA,0,"Gambling_GBO",12,"In","DECFBGAHKIJ",NA,"In","MH_OCT","seq4","Gamble_Rand_Seq4","Gamble_Rand_Seq4",15,"Rating","Screen 1","hx8b5a",1,"info","",16.6999999999971,0,16.6999999999971,16.6999999999971,0,16.6999999999971,1,16.6999999999971,0,0,NA,"Slider","MoodSlider",2,"object-243","Rating","bored","not bored","bored",5,"",NA,NA,NA,NA,NA,"Left",NA,1,NA,NA,NA,NA,2.67,"MDPRF67386"
"69",1727179136617,"24/09/2024 11:58:56",1727182736617,1,"24/09/2024 13:58:56",187387,9,"task-nz4r",NA,40225291,11744027,NA,"complete",NA,"66f2a319f730ecf1c5ee26f5","computer","Desktop or Laptop","Mac OS 10.15.7","Chrome 129.0.0.0","1710x1107","1710x947",NA,NA,0,"Gambling_GBO",12,"In","DECFBGAHKIJ",NA,"In","MH_OCT","seq4","Gamble_Rand_Seq4","Gamble_Rand_Seq4",15,"Rating","Screen 1","hx8b5a",1,"continue","",1171.00000000019,1166.60000000001,1171.00000000019,1171.00000000019,1166.60000000001,1171.00000000019,1,1171.00000000019,0,0,NA,"Click To Continue","Continue Button",3,"object-25","Rating","bored","not bored","bored",5,"",NA,NA,NA,NA,NA,"Left",NA,1,NA,NA,NA,NA,2.67,"MDPRF67386"
"70",1727179136618,"24/09/2024 11:58:56",1727182736618,1,"24/09/2024 13:58:56",187387,9,"task-nz4r",NA,40225291,11744027,NA,"complete",NA,"66f2a319f730ecf1c5ee26f5","computer","Desktop or Laptop","Mac OS 10.15.7","Chrome 129.0.0.0","1710x1107","1710x947",NA,NA,0,"Gambling_GBO",12,"In","DECFBGAHKIJ",NA,"In","MH_OCT","seq4","Gamble_Rand_Seq4","Gamble_Rand_Seq4",15,"Rating","Screen 1","hx8b5a",1,"response","48",700,1166.60000000001,1171.70000000038,700,1166.60000000001,1171.70000000038,1,700,471.700000000375,0,NA,"Slider","MoodSlider",2,"object-243","Rating","bored","not bored","bored",5,"",NA,NA,NA,NA,NA,"Left",NA,1,NA,NA,NA,NA,2.67,"MDPRF67386"
"71",1727179138579,"24/09/2024 11:58:58",1727182738579,1,"24/09/2024 13:58:58",187387,9,"task-nz4r",NA,40225291,11744027,NA,"complete",NA,"66f2a319f730ecf1c5ee26f5","computer","Desktop or Laptop","Mac OS 10.15.7","Chrome 129.0.0.0","1710x1107","1710x947",NA,NA,0,"Gambling_GBO",12,"In","DECFBGAHKIJ",NA,"In","MH_OCT","seq4","Gamble_Rand_Seq4","Gamble_Rand_Seq4",2,"lossT","Screen 1","2oxi65",1,"continue","",1966.7,1966.7,1966.7,1966.7,1966.7,1966.7,1,1966.7,0,0,NA,"Fixation Timing","Fixation",1,"object-354","lossT","","","",NA,"Right",-4,-5,-2,5,NA,"Left",NA,1,NA,NA,NA,NA,2.67,"MDPRF67386"
"72",1727179140968,"24/09/2024 11:59:00",1727182740968,1,"24/09/2024 13:59:00",187387,9,"task-nz4r",NA,40225291,11744027,NA,"complete",NA,"66f2a319f730ecf1c5ee26f5","computer","Desktop or Laptop","Mac OS 10.15.7","Chrome 129.0.0.0","1710x1107","1710x947",NA,NA,0,"Gambling_GBO",12,"In","DECFBGAHKIJ",NA,"In","MH_OCT","seq4","Gamble_Rand_Seq4","Gamble_Rand_Seq4",2,"lossT","choice","zjftf8",2,"response","Right",2387.80000000075,2383.39999999999,2387.80000000075,2387.80000000075,2383.39999999999,2387.80000000075,1,2387.80000000075,0,0,NA,"Keyboard Response","KeyResponseG",6,"object-352","lossT","","","",NA,"Right",-4,-5,-2,5,NA,"Right",NA,-4,NA,NA,NA,NA,-5,"MDPRF67386"
"73",1727179144963,"24/09/2024 11:59:04",1727182744963,1,"24/09/2024 13:59:04",187387,9,"task-nz4r",NA,40225291,11744027,NA,"complete",NA,"66f2a319f730ecf1c5ee26f5","computer","Desktop or Laptop","Mac OS 10.15.7","Chrome 129.0.0.0","1710x1107","1710x947",NA,NA,0,"Gambling_GBO",12,"In","DECFBGAHKIJ",NA,"In","MH_OCT","seq4","Gamble_Rand_Seq4","Gamble_Rand_Seq4",2,"lossT","gamble","h5bf9r",3,"timedOut","",4000.30000000019,4000,4000.30000000019,4000.30000000019,4000,4000.30000000019,1,4000.30000000019,0,0,NA,"Time Limit","screen",0,"screen","lossT","","","",NA,"Right",-4,-5,-2,5,NA,"Right",NA,-4,NA,NA,NA,NA,-5,"MDPRF67386"
"74",1727179145963,"24/09/2024 11:59:05",1727182745963,1,"24/09/2024 13:59:05",187387,9,"task-nz4r",NA,40225291,11744027,NA,"complete",NA,"66f2a319f730ecf1c5ee26f5","computer","Desktop or Laptop","Mac OS 10.15.7","Chrome 129.0.0.0","1710x1107","1710x947",NA,NA,0,"Gambling_GBO",12,"In","DECFBGAHKIJ",NA,"In","MH_OCT","seq4","Gamble_Rand_Seq4","Gamble_Rand_Seq4",2,"lossT","loss","kmnw8b",4,"timedOut","",1000.20000000056,1000,1000.20000000056,1000.20000000056,1000,1000.20000000056,1,1000.20000000056,0,0,NA,"Time Limit","screen",0,"screen","lossT","","","",NA,"Right",-4,-5,-2,5,NA,"Right",NA,-4,NA,NA,NA,NA,-5,"MDPRF67386"
"75",1727179145975,"24/09/2024 11:59:05",1727182745975,1,"24/09/2024 13:59:05",187387,9,"task-nz4r",NA,40225291,11744027,NA,"complete",NA,"66f2a319f730ecf1c5ee26f5","computer","Desktop or Laptop","Mac OS 10.15.7","Chrome 129.0.0.0","1710x1107","1710x947",NA,NA,0,"Gambling_GBO",12,"In","DECFBGAHKIJ",NA,"In","MH_OCT","seq4","Gamble_Rand_Seq4","Gamble_Rand_Seq4",16,"Rating","Screen 1","hx8b5a",1,"info","",12.6000000000058,0,12.6000000000058,12.6000000000058,0,12.6000000000058,1,12.6000000000058,0,0,NA,"Slider","MoodSlider",2,"object-243","Rating","happy","unhappy","happy",6,"",NA,NA,NA,NA,NA,"Right",NA,-4,NA,NA,NA,NA,-5,"MDPRF67386"
"76",1727179147977,"24/09/2024 11:59:07",1727182747977,1,"24/09/2024 13:59:07",187387,9,"task-nz4r",NA,40225291,11744027,NA,"complete",NA,"66f2a319f730ecf1c5ee26f5","computer","Desktop or Laptop","Mac OS 10.15.7","Chrome 129.0.0.0","1710x1107","1710x947",NA,NA,0,"Gambling_GBO",12,"In","DECFBGAHKIJ",NA,"In","MH_OCT","seq4","Gamble_Rand_Seq4","Gamble_Rand_Seq4",16,"Rating","Screen 1","hx8b5a",1,"continue","",2013.80000000019,1999.90000000001,2013.80000000019,2013.80000000019,1999.90000000001,2013.80000000019,1,2013.80000000019,0,0,NA,"Click To Continue","Continue Button",3,"object-25","Rating","happy","unhappy","happy",6,"",NA,NA,NA,NA,NA,"Right",NA,-4,NA,NA,NA,NA,-5,"MDPRF67386"
"77",1727179147977,"24/09/2024 11:59:07",1727182747977,1,"24/09/2024 13:59:07",187387,9,"task-nz4r",NA,40225291,11744027,NA,"complete",NA,"66f2a319f730ecf1c5ee26f5","computer","Desktop or Laptop","Mac OS 10.15.7","Chrome 129.0.0.0","1710x1107","1710x947",NA,NA,0,"Gambling_GBO",12,"In","DECFBGAHKIJ",NA,"In","MH_OCT","seq4","Gamble_Rand_Seq4","Gamble_Rand_Seq4",16,"Rating","Screen 1","hx8b5a",1,"response","19",1066.60000000001,1999.90000000001,2014.40000000075,1066.60000000001,1999.90000000001,2014.40000000075,1,1066.60000000001,947.800000000745,0,NA,"Slider","MoodSlider",2,"object-243","Rating","happy","unhappy","happy",6,"",NA,NA,NA,NA,NA,"Right",NA,-4,NA,NA,NA,NA,-5,"MDPRF67386"
"78",1727179147984,"24/09/2024 11:59:07",1727182747984,1,"24/09/2024 13:59:07",187387,9,"task-nz4r",NA,40225291,11744027,NA,"complete",NA,"66f2a319f730ecf1c5ee26f5","computer","Desktop or Laptop","Mac OS 10.15.7","Chrome 129.0.0.0","1710x1107","1710x947",NA,NA,0,"Gambling_GBO",12,"In","DECFBGAHKIJ",NA,"In","MH_OCT","seq4","Gamble_Rand_Seq4","Gamble_Rand_Seq4",17,"Rating","Screen 1","hx8b5a",1,"info","",16.6999999999971,0,16.6999999999971,16.6999999999971,0,16.6999999999971,1,16.6999999999971,0,0,NA,"Slider","MoodSlider",2,"object-243","Rating","frustrated","not frustrated","frustrated",6,"",NA,NA,NA,NA,NA,"Right",NA,-4,NA,NA,NA,NA,-5,"MDPRF67386"
"79",1727179149038,"24/09/2024 11:59:09",1727182749038,1,"24/09/2024 13:59:09",187387,9,"task-nz4r",NA,40225291,11744027,NA,"complete",NA,"66f2a319f730ecf1c5ee26f5","computer","Desktop or Laptop","Mac OS 10.15.7","Chrome 129.0.0.0","1710x1107","1710x947",NA,NA,0,"Gambling_GBO",12,"In","DECFBGAHKIJ",NA,"In","MH_OCT","seq4","Gamble_Rand_Seq4","Gamble_Rand_Seq4",17,"Rating","Screen 1","hx8b5a",1,"continue","",1075.80000000056,1066.8,1075.80000000056,1075.80000000056,1066.8,1075.80000000056,1,1075.80000000056,0,0,NA,"Click To Continue","Continue Button",3,"object-25","Rating","frustrated","not frustrated","frustrated",6,"",NA,NA,NA,NA,NA,"Right",NA,-4,NA,NA,NA,NA,-5,"MDPRF67386"
"80",1727179149039,"24/09/2024 11:59:09",1727182749039,1,"24/09/2024 13:59:09",187387,9,"task-nz4r",NA,40225291,11744027,NA,"complete",NA,"66f2a319f730ecf1c5ee26f5","computer","Desktop or Laptop","Mac OS 10.15.7","Chrome 129.0.0.0","1710x1107","1710x947",NA,NA,0,"Gambling_GBO",12,"In","DECFBGAHKIJ",NA,"In","MH_OCT","seq4","Gamble_Rand_Seq4","Gamble_Rand_Seq4",17,"Rating","Screen 1","hx8b5a",1,"response","73",650.099999999991,1066.8,1076.40000000018,650.099999999991,1066.8,1076.40000000018,1,650.099999999991,426.300000000192,0,NA,"Slider","MoodSlider",2,"object-243","Rating","frustrated","not frustrated","frustrated",6,"",NA,NA,NA,NA,NA,"Right",NA,-4,NA,NA,NA,NA,-5,"MDPRF67386"
"81",1727179149047,"24/09/2024 11:59:09",1727182749047,1,"24/09/2024 13:59:09",187387,9,"task-nz4r",NA,40225291,11744027,NA,"complete",NA,"66f2a319f730ecf1c5ee26f5","computer","Desktop or Laptop","Mac OS 10.15.7","Chrome 129.0.0.0","1710x1107","1710x947",NA,NA,0,"Gambling_GBO",12,"In","DECFBGAHKIJ",NA,"In","MH_OCT","seq4","Gamble_Rand_Seq4","Gamble_Rand_Seq4",18,"Rating","Screen 1","hx8b5a",1,"info","",16.8000000000029,0,16.8000000000029,16.8000000000029,0,16.8000000000029,1,16.8000000000029,0,0,NA,"Slider","MoodSlider",2,"object-243","Rating","bored","not bored","bored",6,"",NA,NA,NA,NA,NA,"Right",NA,-4,NA,NA,NA,NA,-5,"MDPRF67386"
"82",1727179150256,"24/09/2024 11:59:10",1727182750256,1,"24/09/2024 13:59:10",187387,9,"task-nz4r",NA,40225291,11744027,NA,"complete",NA,"66f2a319f730ecf1c5ee26f5","computer","Desktop or Laptop","Mac OS 10.15.7","Chrome 129.0.0.0","1710x1107","1710x947",NA,NA,0,"Gambling_GBO",12,"In","DECFBGAHKIJ",NA,"In","MH_OCT","seq4","Gamble_Rand_Seq4","Gamble_Rand_Seq4",18,"Rating","Screen 1","hx8b5a",1,"continue","",1226.50000000055,1216.59999999999,1226.50000000055,1226.50000000055,1216.59999999999,1226.50000000055,1,1226.50000000055,0,0,NA,"Click To Continue","Continue Button",3,"object-25","Rating","bored","not bored","bored",6,"",NA,NA,NA,NA,NA,"Right",NA,-4,NA,NA,NA,NA,-5,"MDPRF67386"
"83",1727179150257,"24/09/2024 11:59:10",1727182750257,1,"24/09/2024 13:59:10",187387,9,"task-nz4r",NA,40225291,11744027,NA,"complete",NA,"66f2a319f730ecf1c5ee26f5","computer","Desktop or Laptop","Mac OS 10.15.7","Chrome 129.0.0.0","1710x1107","1710x947",NA,NA,0,"Gambling_GBO",12,"In","DECFBGAHKIJ",NA,"In","MH_OCT","seq4","Gamble_Rand_Seq4","Gamble_Rand_Seq4",18,"Rating","Screen 1","hx8b5a",1,"response","56",766.599999999991,1216.59999999999,1227.30000000037,766.599999999991,1216.59999999999,1227.30000000037,1,766.599999999991,460.700000000375,0,NA,"Slider","MoodSlider",2,"object-243","Rating","bored","not bored","bored",6,"",NA,NA,NA,NA,NA,"Right",NA,-4,NA,NA,NA,NA,-5,"MDPRF67386"
"84",1727179152213,"24/09/2024 11:59:12",1727182752213,1,"24/09/2024 13:59:12",187387,9,"task-nz4r",NA,40225291,11744027,NA,"complete",NA,"66f2a319f730ecf1c5ee26f5","computer","Desktop or Laptop","Mac OS 10.15.7","Chrome 129.0.0.0","1710x1107","1710x947",NA,NA,0,"Gambling_GBO",12,"In","DECFBGAHKIJ",NA,"In","MH_OCT","seq4","Gamble_Rand_Seq4","Gamble_Rand_Seq4",1,"winT","Screen 1","np5pnj",1,"continue","",1966.7,1966.7,1966.7,1966.7,1966.7,1966.7,1,1966.7,0,0,NA,"Fixation Timing","Fixation",1,"object-304","winT","","","",NA,"Right",4.33,4,5,6,NA,"Right",NA,-4,NA,NA,NA,NA,-5,"MDPRF67386"
"85",1727179154655,"24/09/2024 11:59:14",1727182754655,1,"24/09/2024 13:59:14",187387,9,"task-nz4r",NA,40225291,11744027,NA,"complete",NA,"66f2a319f730ecf1c5ee26f5","computer","Desktop or Laptop","Mac OS 10.15.7","Chrome 129.0.0.0","1710x1107","1710x947",NA,NA,0,"Gambling_GBO",12,"In","DECFBGAHKIJ",NA,"In","MH_OCT","seq4","Gamble_Rand_Seq4","Gamble_Rand_Seq4",1,"winT","choice","gu8zgx",2,"response","Right",2441.90000000075,2433.20000000001,2441.90000000075,2441.90000000075,2433.20000000001,2441.90000000075,1,2441.90000000075,0,0,NA,"Keyboard Response","KeyResponseG",6,"object-326","winT","","","",NA,"Right",4.33,4,5,6,NA,"Right",NA,1,NA,NA,NA,NA,5,"MDPRF67386"
"86",1727179158646,"24/09/2024 11:59:18",1727182758646,1,"24/09/2024 13:59:18",187387,9,"task-nz4r",NA,40225291,11744027,NA,"complete",NA,"66f2a319f730ecf1c5ee26f5","computer","Desktop or Laptop","Mac OS 10.15.7","Chrome 129.0.0.0","1710x1107","1710x947",NA,NA,0,"Gambling_GBO",12,"In","DECFBGAHKIJ",NA,"In","MH_OCT","seq4","Gamble_Rand_Seq4","Gamble_Rand_Seq4",1,"winT","gamble","1lb69u",3,"timedOut","",4000.39999999999,4000.09999999999,4000.39999999999,4000.39999999999,4000.09999999999,4000.39999999999,1,4000.39999999999,0,0,NA,"Time Limit","screen",0,"screen","winT","","","",NA,"Right",4.33,4,5,6,NA,"Right",NA,1,NA,NA,NA,NA,5,"MDPRF67386"
"87",1727179159646,"24/09/2024 11:59:19",1727182759646,1,"24/09/2024 13:59:19",187387,9,"task-nz4r",NA,40225291,11744027,NA,"complete",NA,"66f2a319f730ecf1c5ee26f5","computer","Desktop or Laptop","Mac OS 10.15.7","Chrome 129.0.0.0","1710x1107","1710x947",NA,NA,0,"Gambling_GBO",12,"In","DECFBGAHKIJ",NA,"In","MH_OCT","seq4","Gamble_Rand_Seq4","Gamble_Rand_Seq4",1,"winT","win","dhtsbv",4,"timedOut","",1000.3,999.900000000009,1000.3,1000.3,999.900000000009,1000.3,1,1000.3,0,0,NA,"Time Limit","screen",0,"screen","winT","","","",NA,"Right",4.33,4,5,6,NA,"Right",NA,1,NA,NA,NA,NA,5,"MDPRF67386"
"88",1727179159654,"24/09/2024 11:59:19",1727182759654,1,"24/09/2024 13:59:19",187387,9,"task-nz4r",NA,40225291,11744027,NA,"complete",NA,"66f2a319f730ecf1c5ee26f5","computer","Desktop or Laptop","Mac OS 10.15.7","Chrome 129.0.0.0","1710x1107","1710x947",NA,NA,0,"Gambling_GBO",12,"In","DECFBGAHKIJ",NA,"In","MH_OCT","seq4","Gamble_Rand_Seq4","Gamble_Rand_Seq4",19,"Rating","Screen 1","hx8b5a",1,"info","",8.00000000055297,0,8.00000000055297,8.00000000055297,0,8.00000000055297,1,8.00000000055297,0,0,NA,"Slider","MoodSlider",2,"object-243","Rating","frustrated","not frustrated","frustrated",7,"",NA,NA,NA,NA,NA,"Right",NA,1,NA,NA,NA,NA,5,"MDPRF67386"
"89",1727179162384,"24/09/2024 11:59:22",1727182762384,1,"24/09/2024 13:59:22",187387,9,"task-nz4r",NA,40225291,11744027,NA,"complete",NA,"66f2a319f730ecf1c5ee26f5","computer","Desktop or Laptop","Mac OS 10.15.7","Chrome 129.0.0.0","1710x1107","1710x947",NA,NA,0,"Gambling_GBO",12,"In","DECFBGAHKIJ",NA,"In","MH_OCT","seq4","Gamble_Rand_Seq4","Gamble_Rand_Seq4",19,"Rating","Screen 1","hx8b5a",1,"continue","",2738.10000000018,2733.39999999999,2738.10000000018,2738.10000000018,2733.39999999999,2738.10000000018,1,2738.10000000018,0,0,NA,"Click To Continue","Continue Button",3,"object-25","Rating","frustrated","not frustrated","frustrated",7,"",NA,NA,NA,NA,NA,"Right",NA,1,NA,NA,NA,NA,5,"MDPRF67386"
"90",1727179162384,"24/09/2024 11:59:22",1727182762384,1,"24/09/2024 13:59:22",187387,9,"task-nz4r",NA,40225291,11744027,NA,"complete",NA,"66f2a319f730ecf1c5ee26f5","computer","Desktop or Laptop","Mac OS 10.15.7","Chrome 129.0.0.0","1710x1107","1710x947",NA,NA,0,"Gambling_GBO",12,"In","DECFBGAHKIJ",NA,"In","MH_OCT","seq4","Gamble_Rand_Seq4","Gamble_Rand_Seq4",19,"Rating","Screen 1","hx8b5a",1,"response","29",2183.39999999999,2733.39999999999,2738.60000000018,2183.39999999999,2733.39999999999,2738.60000000018,1,2183.39999999999,555.200000000186,0,NA,"Slider","MoodSlider",2,"object-243","Rating","frustrated","not frustrated","frustrated",7,"",NA,NA,NA,NA,NA,"Right",NA,1,NA,NA,NA,NA,5,"MDPRF67386"
"91",1727179162392,"24/09/2024 11:59:22",1727182762392,1,"24/09/2024 13:59:22",187387,9,"task-nz4r",NA,40225291,11744027,NA,"complete",NA,"66f2a319f730ecf1c5ee26f5","computer","Desktop or Laptop","Mac OS 10.15.7","Chrome 129.0.0.0","1710x1107","1710x947",NA,NA,0,"Gambling_GBO",12,"In","DECFBGAHKIJ",NA,"In","MH_OCT","seq4","Gamble_Rand_Seq4","Gamble_Rand_Seq4",20,"Rating","Screen 1","hx8b5a",1,"info","",13.2000000001863,0,13.2000000001863,13.2000000001863,0,13.2000000001863,1,13.2000000001863,0,0,NA,"Slider","MoodSlider",2,"object-243","Rating","bored","not bored","bored",7,"",NA,NA,NA,NA,NA,"Right",NA,1,NA,NA,NA,NA,5,"MDPRF67386"
"92",1727179164718,"24/09/2024 11:59:24",1727182764718,1,"24/09/2024 13:59:24",187387,9,"task-nz4r",NA,40225291,11744027,NA,"complete",NA,"66f2a319f730ecf1c5ee26f5","computer","Desktop or Laptop","Mac OS 10.15.7","Chrome 129.0.0.0","1710x1107","1710x947",NA,NA,0,"Gambling_GBO",12,"In","DECFBGAHKIJ",NA,"In","MH_OCT","seq4","Gamble_Rand_Seq4","Gamble_Rand_Seq4",20,"Rating","Screen 1","hx8b5a",1,"continue","",2339.10000000056,2333.39999999999,2339.10000000056,2339.10000000056,2333.39999999999,2339.10000000056,1,2339.10000000056,0,0,NA,"Click To Continue","Continue Button",3,"object-25","Rating","bored","not bored","bored",7,"",NA,NA,NA,NA,NA,"Right",NA,1,NA,NA,NA,NA,5,"MDPRF67386"
"93",1727179164719,"24/09/2024 11:59:24",1727182764719,1,"24/09/2024 13:59:24",187387,9,"task-nz4r",NA,40225291,11744027,NA,"complete",NA,"66f2a319f730ecf1c5ee26f5","computer","Desktop or Laptop","Mac OS 10.15.7","Chrome 129.0.0.0","1710x1107","1710x947",NA,NA,0,"Gambling_GBO",12,"In","DECFBGAHKIJ",NA,"In","MH_OCT","seq4","Gamble_Rand_Seq4","Gamble_Rand_Seq4",20,"Rating","Screen 1","hx8b5a",1,"response","37",1433.3,2333.39999999999,2339.70000000019,1433.3,2333.39999999999,2339.70000000019,1,1433.3,906.400000000183,0,NA,"Slider","MoodSlider",2,"object-243","Rating","bored","not bored","bored",7,"",NA,NA,NA,NA,NA,"Right",NA,1,NA,NA,NA,NA,5,"MDPRF67386"
"94",1727179164727,"24/09/2024 11:59:24",1727182764727,1,"24/09/2024 13:59:24",187387,9,"task-nz4r",NA,40225291,11744027,NA,"complete",NA,"66f2a319f730ecf1c5ee26f5","computer","Desktop or Laptop","Mac OS 10.15.7","Chrome 129.0.0.0","1710x1107","1710x947",NA,NA,0,"Gambling_GBO",12,"In","DECFBGAHKIJ",NA,"In","MH_OCT","seq4","Gamble_Rand_Seq4","Gamble_Rand_Seq4",21,"Rating","Screen 1","hx8b5a",1,"info","",14.6000000000058,0,14.6000000000058,14.6000000000058,0,14.6000000000058,1,14.6000000000058,0,0,NA,"Slider","MoodSlider",2,"object-243","Rating","happy","unhappy","happy",7,"",NA,NA,NA,NA,NA,"Right",NA,1,NA,NA,NA,NA,5,"MDPRF67386"
"95",1727179166058,"24/09/2024 11:59:26",1727182766058,1,"24/09/2024 13:59:26",187387,9,"task-nz4r",NA,40225291,11744027,NA,"complete",NA,"66f2a319f730ecf1c5ee26f5","computer","Desktop or Laptop","Mac OS 10.15.7","Chrome 129.0.0.0","1710x1107","1710x947",NA,NA,0,"Gambling_GBO",12,"In","DECFBGAHKIJ",NA,"In","MH_OCT","seq4","Gamble_Rand_Seq4","Gamble_Rand_Seq4",21,"Rating","Screen 1","hx8b5a",1,"continue","",1345.40000000075,1333.20000000001,1345.40000000075,1345.40000000075,1333.20000000001,1345.40000000075,1,1345.40000000075,0,0,NA,"Click To Continue","Continue Button",3,"object-25","Rating","happy","unhappy","happy",7,"",NA,NA,NA,NA,NA,"Right",NA,1,NA,NA,NA,NA,5,"MDPRF67386"
"96",1727179166059,"24/09/2024 11:59:26",1727182766059,1,"24/09/2024 13:59:26",187387,9,"task-nz4r",NA,40225291,11744027,NA,"complete",NA,"66f2a319f730ecf1c5ee26f5","computer","Desktop or Laptop","Mac OS 10.15.7","Chrome 129.0.0.0","1710x1107","1710x947",NA,NA,0,"Gambling_GBO",12,"In","DECFBGAHKIJ",NA,"In","MH_OCT","seq4","Gamble_Rand_Seq4","Gamble_Rand_Seq4",21,"Rating","Screen 1","hx8b5a",1,"response","66",615.900000000009,1333.20000000001,1346.00000000038,615.900000000009,1333.20000000001,1346.00000000038,1,615.900000000009,730.10000000037,0,NA,"Slider","MoodSlider",2,"object-243","Rating","happy","unhappy","happy",7,"",NA,NA,NA,NA,NA,"Right",NA,1,NA,NA,NA,NA,5,"MDPRF67386"
"97",1727179168013,"24/09/2024 11:59:28",1727182768013,1,"24/09/2024 13:59:28",187387,9,"task-nz4r",NA,40225291,11744027,NA,"complete",NA,"66f2a319f730ecf1c5ee26f5","computer","Desktop or Laptop","Mac OS 10.15.7","Chrome 129.0.0.0","1710x1107","1710x947",NA,NA,0,"Gambling_GBO",12,"In","DECFBGAHKIJ",NA,"In","MH_OCT","seq4","Gamble_Rand_Seq4","Gamble_Rand_Seq4",2,"lossB","Screen 1","a4fynh",1,"continue","",1966.7,1966.7,1966.7,1966.7,1966.7,1966.7,1,1966.7,0,0,NA,"Fixation Timing","Fixation",1,"object-113","lossB","","","",NA,"Right",-2.33,-4,1,7,NA,"Right",NA,1,NA,NA,NA,NA,5,"MDPRF67386"
"98",1727179170631,"24/09/2024 11:59:30",1727182770631,1,"24/09/2024 13:59:30",187387,9,"task-nz4r",NA,40225291,11744027,NA,"complete",NA,"66f2a319f730ecf1c5ee26f5","computer","Desktop or Laptop","Mac OS 10.15.7","Chrome 129.0.0.0","1710x1107","1710x947",NA,NA,0,"Gambling_GBO",12,"In","DECFBGAHKIJ",NA,"In","MH_OCT","seq4","Gamble_Rand_Seq4","Gamble_Rand_Seq4",2,"lossB","choice","k9qq8f",2,"response","Right",2616.60000000001,2600,2616.60000000001,2616.60000000001,2600,2616.60000000001,1,2616.60000000001,0,0,NA,"Keyboard Response","KeyResponseG",6,"object-200","lossB","","","",NA,"Right",-2.33,-4,1,7,NA,"Right",NA,-3,NA,NA,NA,NA,-4,"MDPRF67386"
"99",1727179174613,"24/09/2024 11:59:34",1727182774613,1,"24/09/2024 13:59:34",187387,9,"task-nz4r",NA,40225291,11744027,NA,"complete",NA,"66f2a319f730ecf1c5ee26f5","computer","Desktop or Laptop","Mac OS 10.15.7","Chrome 129.0.0.0","1710x1107","1710x947",NA,NA,0,"Gambling_GBO",12,"In","DECFBGAHKIJ",NA,"In","MH_OCT","seq4","Gamble_Rand_Seq4","Gamble_Rand_Seq4",2,"lossB","gamble","tpcid5",3,"timedOut","",4000.30000000056,3999.99999999999,4000.30000000056,4000.30000000056,3999.99999999999,4000.30000000056,1,4000.30000000056,0,0,NA,"Time Limit","screen",0,"screen","lossB","","","",NA,"Right",-2.33,-4,1,7,NA,"Right",NA,-3,NA,NA,NA,NA,-4,"MDPRF67386"
"100",1727179175613,"24/09/2024 11:59:35",1727182775613,1,"24/09/2024 13:59:35",187387,9,"task-nz4r",NA,40225291,11744027,NA,"complete",NA,"66f2a319f730ecf1c5ee26f5","computer","Desktop or Laptop","Mac OS 10.15.7","Chrome 129.0.0.0","1710x1107","1710x947",NA,NA,0,"Gambling_GBO",12,"In","DECFBGAHKIJ",NA,"In","MH_OCT","seq4","Gamble_Rand_Seq4","Gamble_Rand_Seq4",2,"lossB","loss","2apfzp",4,"timedOut","",1000.30000000057,1000,1000.30000000057,1000.30000000057,1000,1000.30000000057,1,1000.30000000057,0,0,NA,"Time Limit","screen",0,"screen","lossB","","","",NA,"Right",-2.33,-4,1,7,NA,"Right",NA,-3,NA,NA,NA,NA,-4,"MDPRF67386"
"101",1727179175621,"24/09/2024 11:59:35",1727182775621,1,"24/09/2024 13:59:35",187387,9,"task-nz4r",NA,40225291,11744027,NA,"complete",NA,"66f2a319f730ecf1c5ee26f5","computer","Desktop or Laptop","Mac OS 10.15.7","Chrome 129.0.0.0","1710x1107","1710x947",NA,NA,0,"Gambling_GBO",12,"In","DECFBGAHKIJ",NA,"In","MH_OCT","seq4","Gamble_Rand_Seq4","Gamble_Rand_Seq4",22,"Rating","Screen 1","hx8b5a",1,"info","",8.30000000057044,0,8.30000000057044,8.30000000057044,0,8.30000000057044,1,8.30000000057044,0,0,NA,"Slider","MoodSlider",2,"object-243","Rating","frustrated","not frustrated","frustrated",8,"",NA,NA,NA,NA,NA,"Right",NA,-3,NA,NA,NA,NA,-4,"MDPRF67386"
"102",1727179177296,"24/09/2024 11:59:37",1727182777296,1,"24/09/2024 13:59:37",187387,9,"task-nz4r",NA,40225291,11744027,NA,"complete",NA,"66f2a319f730ecf1c5ee26f5","computer","Desktop or Laptop","Mac OS 10.15.7","Chrome 129.0.0.0","1710x1107","1710x947",NA,NA,0,"Gambling_GBO",12,"In","DECFBGAHKIJ",NA,"In","MH_OCT","seq4","Gamble_Rand_Seq4","Gamble_Rand_Seq4",22,"Rating","Screen 1","hx8b5a",1,"continue","",1682.9000000002,1666.60000000001,1682.9000000002,1682.9000000002,1666.60000000001,1682.9000000002,1,1682.9000000002,0,0,NA,"Click To Continue","Continue Button",3,"object-25","Rating","frustrated","not frustrated","frustrated",8,"",NA,NA,NA,NA,NA,"Right",NA,-3,NA,NA,NA,NA,-4,"MDPRF67386"
"103",1727179177296,"24/09/2024 11:59:37",1727182777296,1,"24/09/2024 13:59:37",187387,9,"task-nz4r",NA,40225291,11744027,NA,"complete",NA,"66f2a319f730ecf1c5ee26f5","computer","Desktop or Laptop","Mac OS 10.15.7","Chrome 129.0.0.0","1710x1107","1710x947",NA,NA,0,"Gambling_GBO",12,"In","DECFBGAHKIJ",NA,"In","MH_OCT","seq4","Gamble_Rand_Seq4","Gamble_Rand_Seq4",22,"Rating","Screen 1","hx8b5a",1,"response","84",1083.40000000002,1666.60000000001,1683.20000000001,1083.40000000002,1666.60000000001,1683.20000000001,1,1083.40000000002,599.799999999988,0,NA,"Slider","MoodSlider",2,"object-243","Rating","frustrated","not frustrated","frustrated",8,"",NA,NA,NA,NA,NA,"Right",NA,-3,NA,NA,NA,NA,-4,"MDPRF67386"
"104",1727179177304,"24/09/2024 11:59:37",1727182777304,1,"24/09/2024 13:59:37",187387,9,"task-nz4r",NA,40225291,11744027,NA,"complete",NA,"66f2a319f730ecf1c5ee26f5","computer","Desktop or Laptop","Mac OS 10.15.7","Chrome 129.0.0.0","1710x1107","1710x947",NA,NA,0,"Gambling_GBO",12,"In","DECFBGAHKIJ",NA,"In","MH_OCT","seq4","Gamble_Rand_Seq4","Gamble_Rand_Seq4",23,"Rating","Screen 1","hx8b5a",1,"info","",16.6000000000058,0,16.6000000000058,16.6000000000058,0,16.6000000000058,1,16.6000000000058,0,0,NA,"Slider","MoodSlider",2,"object-243","Rating","bored","not bored","bored",8,"",NA,NA,NA,NA,NA,"Right",NA,-3,NA,NA,NA,NA,-4,"MDPRF67386"
"105",1727179179204,"24/09/2024 11:59:39",1727182779204,1,"24/09/2024 13:59:39",187387,9,"task-nz4r",NA,40225291,11744027,NA,"complete",NA,"66f2a319f730ecf1c5ee26f5","computer","Desktop or Laptop","Mac OS 10.15.7","Chrome 129.0.0.0","1710x1107","1710x947",NA,NA,0,"Gambling_GBO",12,"In","DECFBGAHKIJ",NA,"In","MH_OCT","seq4","Gamble_Rand_Seq4","Gamble_Rand_Seq4",23,"Rating","Screen 1","hx8b5a",1,"continue","",1924.70000000056,1916.80000000002,1924.70000000056,1924.70000000056,1916.80000000002,1924.70000000056,1,1924.70000000056,0,0,NA,"Click To Continue","Continue Button",3,"object-25","Rating","bored","not bored","bored",8,"",NA,NA,NA,NA,NA,"Right",NA,-3,NA,NA,NA,NA,-4,"MDPRF67386"
"106",1727179179204,"24/09/2024 11:59:39",1727182779204,1,"24/09/2024 13:59:39",187387,9,"task-nz4r",NA,40225291,11744027,NA,"complete",NA,"66f2a319f730ecf1c5ee26f5","computer","Desktop or Laptop","Mac OS 10.15.7","Chrome 129.0.0.0","1710x1107","1710x947",NA,NA,0,"Gambling_GBO",12,"In","DECFBGAHKIJ",NA,"In","MH_OCT","seq4","Gamble_Rand_Seq4","Gamble_Rand_Seq4",23,"Rating","Screen 1","hx8b5a",1,"response","43",1433.39999999999,1916.80000000002,1925.20000000056,1433.39999999999,1916.80000000002,1925.20000000056,1,1433.39999999999,491.80000000057,0,NA,"Slider","MoodSlider",2,"object-243","Rating","bored","not bored","bored",8,"",NA,NA,NA,NA,NA,"Right",NA,-3,NA,NA,NA,NA,-4,"MDPRF67386"
"107",1727179179209,"24/09/2024 11:59:39",1727182779209,1,"24/09/2024 13:59:39",187387,9,"task-nz4r",NA,40225291,11744027,NA,"complete",NA,"66f2a319f730ecf1c5ee26f5","computer","Desktop or Laptop","Mac OS 10.15.7","Chrome 129.0.0.0","1710x1107","1710x947",NA,NA,0,"Gambling_GBO",12,"In","DECFBGAHKIJ",NA,"In","MH_OCT","seq4","Gamble_Rand_Seq4","Gamble_Rand_Seq4",24,"Rating","Screen 1","hx8b5a",1,"info","",13.5000000001746,0,13.5000000001746,13.5000000001746,0,13.5000000001746,1,13.5000000001746,0,0,NA,"Slider","MoodSlider",2,"object-243","Rating","happy","unhappy","happy",8,"",NA,NA,NA,NA,NA,"Right",NA,-3,NA,NA,NA,NA,-4,"MDPRF67386"
"108",1727179180773,"24/09/2024 11:59:40",1727182780773,1,"24/09/2024 13:59:40",187387,9,"task-nz4r",NA,40225291,11744027,NA,"complete",NA,"66f2a319f730ecf1c5ee26f5","computer","Desktop or Laptop","Mac OS 10.15.7","Chrome 129.0.0.0","1710x1107","1710x947",NA,NA,0,"Gambling_GBO",12,"In","DECFBGAHKIJ",NA,"In","MH_OCT","seq4","Gamble_Rand_Seq4","Gamble_Rand_Seq4",24,"Rating","Screen 1","hx8b5a",1,"continue","",1577.40000000055,1566.59999999998,1577.40000000055,1577.40000000055,1566.59999999998,1577.40000000055,1,1577.40000000055,0,0,NA,"Click To Continue","Continue Button",3,"object-25","Rating","happy","unhappy","happy",8,"",NA,NA,NA,NA,NA,"Right",NA,-3,NA,NA,NA,NA,-4,"MDPRF67386"
"109",1727179180778,"24/09/2024 11:59:40",1727182780778,1,"24/09/2024 13:59:40",187387,9,"task-nz4r",NA,40225291,11744027,NA,"complete",NA,"66f2a319f730ecf1c5ee26f5","computer","Desktop or Laptop","Mac OS 10.15.7","Chrome 129.0.0.0","1710x1107","1710x947",NA,NA,0,"Gambling_GBO",12,"In","DECFBGAHKIJ",NA,"In","MH_OCT","seq4","Gamble_Rand_Seq4","Gamble_Rand_Seq4",24,"Rating","Screen 1","hx8b5a",1,"response","20",1033.19999999998,1566.59999999998,1582.00000000017,1033.19999999998,1566.59999999998,1582.00000000017,1,1033.19999999998,548.800000000192,0,NA,"Slider","MoodSlider",2,"object-243","Rating","happy","unhappy","happy",8,"",NA,NA,NA,NA,NA,"Right",NA,-3,NA,NA,NA,NA,-4,"MDPRF67386"
"110",1727179182729,"24/09/2024 11:59:42",1727182782729,1,"24/09/2024 13:59:42",187387,9,"task-nz4r",NA,40225291,11744027,NA,"complete",NA,"66f2a319f730ecf1c5ee26f5","computer","Desktop or Laptop","Mac OS 10.15.7","Chrome 129.0.0.0","1710x1107","1710x947",NA,NA,0,"Gambling_GBO",12,"In","DECFBGAHKIJ",NA,"In","MH_OCT","seq4","Gamble_Rand_Seq4","Gamble_Rand_Seq4",3,"lossT","Screen 1","2oxi65",1,"continue","",1966.70000000001,1966.70000000001,1966.70000000001,1966.70000000001,1966.70000000001,1966.70000000001,1,1966.70000000001,0,0,NA,"Fixation Timing","Fixation",1,"object-354","lossT","","","",NA,"Right",-4.33,-5,-3,8,NA,"Right",NA,-3,NA,NA,NA,NA,-4,"MDPRF67386"
"111",1727179185202,"24/09/2024 11:59:45",1727182785202,1,"24/09/2024 13:59:45",187387,9,"task-nz4r",NA,40225291,11744027,NA,"complete",NA,"66f2a319f730ecf1c5ee26f5","computer","Desktop or Laptop","Mac OS 10.15.7","Chrome 129.0.0.0","1710x1107","1710x947",NA,NA,0,"Gambling_GBO",12,"In","DECFBGAHKIJ",NA,"In","MH_OCT","seq4","Gamble_Rand_Seq4","Gamble_Rand_Seq4",3,"lossT","choice","zjftf8",2,"response","Left",2471.60000000056,2466.60000000001,2471.60000000056,2471.60000000056,2466.60000000001,2471.60000000056,0,2471.60000000056,0,0,NA,"Keyboard Response","KeyResponseC",5,"object-351","lossT","","","",NA,"Right",-4.33,-5,-3,8,NA,"Left",NA,-7.33,NA,NA,NA,NA,-4.33,"MDPRF67386"
"112",1727179190197,"24/09/2024 11:59:50",1727182790197,1,"24/09/2024 13:59:50",187387,9,"task-nz4r",NA,40225291,11744027,NA,"complete",NA,"66f2a319f730ecf1c5ee26f5","computer","Desktop or Laptop","Mac OS 10.15.7","Chrome 129.0.0.0","1710x1107","1710x947",NA,NA,0,"Gambling_GBO",12,"In","DECFBGAHKIJ",NA,"In","MH_OCT","seq4","Gamble_Rand_Seq4","Gamble_Rand_Seq4",3,"lossT","certain","uaykj9",3,"timedOut","",5001.30000000037,4999.89999999999,5001.30000000037,5001.30000000037,4999.89999999999,5001.30000000037,1,5001.30000000037,0,0,NA,"Time Limit","screen",0,"screen","lossT","","","",NA,"Right",-4.33,-5,-3,8,NA,"Left",NA,-7.33,NA,NA,NA,NA,-4.33,"MDPRF67386"
"113",1727179190206,"24/09/2024 11:59:50",1727182790206,1,"24/09/2024 13:59:50",187387,9,"task-nz4r",NA,40225291,11744027,NA,"complete",NA,"66f2a319f730ecf1c5ee26f5","computer","Desktop or Laptop","Mac OS 10.15.7","Chrome 129.0.0.0","1710x1107","1710x947",NA,NA,0,"Gambling_GBO",12,"In","DECFBGAHKIJ",NA,"In","MH_OCT","seq4","Gamble_Rand_Seq4","Gamble_Rand_Seq4",25,"Rating","Screen 1","hx8b5a",1,"info","",10.3000000007451,0,10.3000000007451,10.3000000007451,0,10.3000000007451,1,10.3000000007451,0,0,NA,"Slider","MoodSlider",2,"object-243","Rating","happy","unhappy","happy",9,"",NA,NA,NA,NA,NA,"Left",NA,-7.33,NA,NA,NA,NA,-4.33,"MDPRF67386"
"114",1727179192212,"24/09/2024 11:59:52",1727182792212,1,"24/09/2024 13:59:52",187387,9,"task-nz4r",NA,40225291,11744027,NA,"complete",NA,"66f2a319f730ecf1c5ee26f5","computer","Desktop or Laptop","Mac OS 10.15.7","Chrome 129.0.0.0","1710x1107","1710x947",NA,NA,0,"Gambling_GBO",12,"In","DECFBGAHKIJ",NA,"In","MH_OCT","seq4","Gamble_Rand_Seq4","Gamble_Rand_Seq4",25,"Rating","Screen 1","hx8b5a",1,"continue","",2016.40000000037,2000.10000000001,2016.40000000037,2016.40000000037,2000.10000000001,2016.40000000037,1,2016.40000000037,0,0,NA,"Click To Continue","Continue Button",3,"object-25","Rating","happy","unhappy","happy",9,"",NA,NA,NA,NA,NA,"Left",NA,-7.33,NA,NA,NA,NA,-4.33,"MDPRF67386"
"115",1727179192216,"24/09/2024 11:59:52",1727182792216,1,"24/09/2024 13:59:52",187387,9,"task-nz4r",NA,40225291,11744027,NA,"complete",NA,"66f2a319f730ecf1c5ee26f5","computer","Desktop or Laptop","Mac OS 10.15.7","Chrome 129.0.0.0","1710x1107","1710x947",NA,NA,0,"Gambling_GBO",12,"In","DECFBGAHKIJ",NA,"In","MH_OCT","seq4","Gamble_Rand_Seq4","Gamble_Rand_Seq4",25,"Rating","Screen 1","hx8b5a",1,"response","33",1466.70000000001,2000.10000000001,2016.70000000001,1466.70000000001,2000.10000000001,2016.70000000001,1,1466.70000000001,550,0,NA,"Slider","MoodSlider",2,"object-243","Rating","happy","unhappy","happy",9,"",NA,NA,NA,NA,NA,"Left",NA,-7.33,NA,NA,NA,NA,-4.33,"MDPRF67386"
"116",1727179192224,"24/09/2024 11:59:52",1727182792224,1,"24/09/2024 13:59:52",187387,9,"task-nz4r",NA,40225291,11744027,NA,"complete",NA,"66f2a319f730ecf1c5ee26f5","computer","Desktop or Laptop","Mac OS 10.15.7","Chrome 129.0.0.0","1710x1107","1710x947",NA,NA,0,"Gambling_GBO",12,"In","DECFBGAHKIJ",NA,"In","MH_OCT","seq4","Gamble_Rand_Seq4","Gamble_Rand_Seq4",26,"Rating","Screen 1","hx8b5a",1,"info","",16.6000000000058,0,16.6000000000058,16.6000000000058,0,16.6000000000058,1,16.6000000000058,0,0,NA,"Slider","MoodSlider",2,"object-243","Rating","frustrated","not frustrated","frustrated",9,"",NA,NA,NA,NA,NA,"Left",NA,-7.33,NA,NA,NA,NA,-4.33,"MDPRF67386"
"117",1727179194073,"24/09/2024 11:59:54",1727182794073,1,"24/09/2024 13:59:54",187387,9,"task-nz4r",NA,40225291,11744027,NA,"complete",NA,"66f2a319f730ecf1c5ee26f5","computer","Desktop or Laptop","Mac OS 10.15.7","Chrome 129.0.0.0","1710x1107","1710x947",NA,NA,0,"Gambling_GBO",12,"In","DECFBGAHKIJ",NA,"In","MH_OCT","seq4","Gamble_Rand_Seq4","Gamble_Rand_Seq4",26,"Rating","Screen 1","hx8b5a",1,"continue","",1877.60000000018,1866.69999999998,1877.60000000018,1877.60000000018,1866.69999999998,1877.60000000018,1,1877.60000000018,0,0,NA,"Click To Continue","Continue Button",3,"object-25","Rating","frustrated","not frustrated","frustrated",9,"",NA,NA,NA,NA,NA,"Left",NA,-7.33,NA,NA,NA,NA,-4.33,"MDPRF67386"
"118",1727179194074,"24/09/2024 11:59:54",1727182794074,1,"24/09/2024 13:59:54",187387,9,"task-nz4r",NA,40225291,11744027,NA,"complete",NA,"66f2a319f730ecf1c5ee26f5","computer","Desktop or Laptop","Mac OS 10.15.7","Chrome 129.0.0.0","1710x1107","1710x947",NA,NA,0,"Gambling_GBO",12,"In","DECFBGAHKIJ",NA,"In","MH_OCT","seq4","Gamble_Rand_Seq4","Gamble_Rand_Seq4",26,"Rating","Screen 1","hx8b5a",1,"response","77",1366.60000000001,1866.69999999998,1878.20000000074,1366.60000000001,1866.69999999998,1878.20000000074,1,1366.60000000001,511.600000000733,0,NA,"Slider","MoodSlider",2,"object-243","Rating","frustrated","not frustrated","frustrated",9,"",NA,NA,NA,NA,NA,"Left",NA,-7.33,NA,NA,NA,NA,-4.33,"MDPRF67386"
"119",1727179194081,"24/09/2024 11:59:54",1727182794081,1,"24/09/2024 13:59:54",187387,9,"task-nz4r",NA,40225291,11744027,NA,"complete",NA,"66f2a319f730ecf1c5ee26f5","computer","Desktop or Laptop","Mac OS 10.15.7","Chrome 129.0.0.0","1710x1107","1710x947",NA,NA,0,"Gambling_GBO",12,"In","DECFBGAHKIJ",NA,"In","MH_OCT","seq4","Gamble_Rand_Seq4","Gamble_Rand_Seq4",27,"Rating","Screen 1","hx8b5a",1,"info","",16.6999999999825,0,16.6999999999825,16.6999999999825,0,16.6999999999825,1,16.6999999999825,0,0,NA,"Slider","MoodSlider",2,"object-243","Rating","bored","not bored","bored",9,"",NA,NA,NA,NA,NA,"Left",NA,-7.33,NA,NA,NA,NA,-4.33,"MDPRF67386"
"120",1727179195878,"24/09/2024 11:59:55",1727182795878,1,"24/09/2024 13:59:55",187387,9,"task-nz4r",NA,40225291,11744027,NA,"complete",NA,"66f2a319f730ecf1c5ee26f5","computer","Desktop or Laptop","Mac OS 10.15.7","Chrome 129.0.0.0","1710x1107","1710x947",NA,NA,0,"Gambling_GBO",12,"In","DECFBGAHKIJ",NA,"In","MH_OCT","seq4","Gamble_Rand_Seq4","Gamble_Rand_Seq4",27,"Rating","Screen 1","hx8b5a",1,"continue","",1815.10000000038,1800,1815.10000000038,1815.10000000038,1800,1815.10000000038,1,1815.10000000038,0,0,NA,"Click To Continue","Continue Button",3,"object-25","Rating","bored","not bored","bored",9,"",NA,NA,NA,NA,NA,"Left",NA,-7.33,NA,NA,NA,NA,-4.33,"MDPRF67386"
"121",1727179195878,"24/09/2024 11:59:55",1727182795878,1,"24/09/2024 13:59:55",187387,9,"task-nz4r",NA,40225291,11744027,NA,"complete",NA,"66f2a319f730ecf1c5ee26f5","computer","Desktop or Laptop","Mac OS 10.15.7","Chrome 129.0.0.0","1710x1107","1710x947",NA,NA,0,"Gambling_GBO",12,"In","DECFBGAHKIJ",NA,"In","MH_OCT","seq4","Gamble_Rand_Seq4","Gamble_Rand_Seq4",27,"Rating","Screen 1","hx8b5a",1,"response","54",1350,1800,1815.60000000038,1350,1800,1815.60000000038,1,1350,465.600000000384,0,NA,"Slider","MoodSlider",2,"object-243","Rating","bored","not bored","bored",9,"",NA,NA,NA,NA,NA,"Left",NA,-7.33,NA,NA,NA,NA,-4.33,"MDPRF67386"
"122",1727179197830,"24/09/2024 11:59:57",1727182797830,1,"24/09/2024 13:59:57",187387,9,"task-nz4r",NA,40225291,11744027,NA,"complete",NA,"66f2a319f730ecf1c5ee26f5","computer","Desktop or Laptop","Mac OS 10.15.7","Chrome 129.0.0.0","1710x1107","1710x947",NA,NA,0,"Gambling_GBO",12,"In","DECFBGAHKIJ",NA,"In","MH_OCT","seq4","Gamble_Rand_Seq4","Gamble_Rand_Seq4",3,"winB","Screen 1","pkkyi8",1,"continue","",1966.60000000001,1966.60000000001,1966.60000000001,1966.60000000001,1966.60000000001,1966.60000000001,1,1966.60000000001,0,0,NA,"Fixation Timing","Fixation",1,"object-246","winB","","","",NA,"Right",2.67,2,4,9,NA,"Left",NA,-7.33,NA,NA,NA,NA,-4.33,"MDPRF67386"
"123",1727179199048,"24/09/2024 11:59:59",1727182799048,1,"24/09/2024 13:59:59",187387,9,"task-nz4r",NA,40225291,11744027,NA,"complete",NA,"66f2a319f730ecf1c5ee26f5","computer","Desktop or Laptop","Mac OS 10.15.7","Chrome 129.0.0.0","1710x1107","1710x947",NA,NA,0,"Gambling_GBO",12,"In","DECFBGAHKIJ",NA,"In","MH_OCT","seq4","Gamble_Rand_Seq4","Gamble_Rand_Seq4",3,"winB","choice","5lszbx",2,"response","Right",1217.90000000075,1216.70000000001,1217.90000000075,1217.90000000075,1216.70000000001,1217.90000000075,1,1217.90000000075,0,0,NA,"Keyboard Response","KeyResponseG",6,"object-256","winB","","","",NA,"Right",2.67,2,4,9,NA,"Right",NA,-3.33,NA,NA,NA,NA,4,"MDPRF67386"
"124",1727179203046,"24/09/2024 12:00:03",1727182803046,1,"24/09/2024 14:00:03",187387,9,"task-nz4r",NA,40225291,11744027,NA,"complete",NA,"66f2a319f730ecf1c5ee26f5","computer","Desktop or Laptop","Mac OS 10.15.7","Chrome 129.0.0.0","1710x1107","1710x947",NA,NA,0,"Gambling_GBO",12,"In","DECFBGAHKIJ",NA,"In","MH_OCT","seq4","Gamble_Rand_Seq4","Gamble_Rand_Seq4",3,"winB","gamble","17lgr3",3,"timedOut","",4000.20000000074,4000,4000.20000000074,4000.20000000074,4000,4000.20000000074,1,4000.20000000074,0,0,NA,"Time Limit","screen",0,"screen","winB","","","",NA,"Right",2.67,2,4,9,NA,"Right",NA,-3.33,NA,NA,NA,NA,4,"MDPRF67386"
"125",1727179204046,"24/09/2024 12:00:04",1727182804046,1,"24/09/2024 14:00:04",187387,9,"task-nz4r",NA,40225291,11744027,NA,"complete",NA,"66f2a319f730ecf1c5ee26f5","computer","Desktop or Laptop","Mac OS 10.15.7","Chrome 129.0.0.0","1710x1107","1710x947",NA,NA,0,"Gambling_GBO",12,"In","DECFBGAHKIJ",NA,"In","MH_OCT","seq4","Gamble_Rand_Seq4","Gamble_Rand_Seq4",3,"winB","win","dzz5jr",4,"timedOut","",1000.60000000018,1000,1000.60000000018,1000.60000000018,1000,1000.60000000018,1,1000.60000000018,0,0,NA,"Time Limit","screen",0,"screen","winB","","","",NA,"Right",2.67,2,4,9,NA,"Right",NA,-3.33,NA,NA,NA,NA,4,"MDPRF67386"
"126",1727179204054,"24/09/2024 12:00:04",1727182804054,1,"24/09/2024 14:00:04",187387,9,"task-nz4r",NA,40225291,11744027,NA,"complete",NA,"66f2a319f730ecf1c5ee26f5","computer","Desktop or Laptop","Mac OS 10.15.7","Chrome 129.0.0.0","1710x1107","1710x947",NA,NA,0,"Gambling_GBO",12,"In","DECFBGAHKIJ",NA,"In","MH_OCT","seq4","Gamble_Rand_Seq4","Gamble_Rand_Seq4",28,"Rating","Screen 1","hx8b5a",1,"info","",8.30000000036671,0,8.30000000036671,8.30000000036671,0,8.30000000036671,1,8.30000000036671,0,0,NA,"Slider","MoodSlider",2,"object-243","Rating","happy","unhappy","happy",10,"",NA,NA,NA,NA,NA,"Right",NA,-3.33,NA,NA,NA,NA,4,"MDPRF67386"
"127",1727179205661,"24/09/2024 12:00:05",1727182805661,1,"24/09/2024 14:00:05",187387,9,"task-nz4r",NA,40225291,11744027,NA,"complete",NA,"66f2a319f730ecf1c5ee26f5","computer","Desktop or Laptop","Mac OS 10.15.7","Chrome 129.0.0.0","1710x1107","1710x947",NA,NA,0,"Gambling_GBO",12,"In","DECFBGAHKIJ",NA,"In","MH_OCT","seq4","Gamble_Rand_Seq4","Gamble_Rand_Seq4",28,"Rating","Screen 1","hx8b5a",1,"continue","",1615.70000000074,1600,1615.70000000074,1615.70000000074,1600,1615.70000000074,1,1615.70000000074,0,0,NA,"Click To Continue","Continue Button",3,"object-25","Rating","happy","unhappy","happy",10,"",NA,NA,NA,NA,NA,"Right",NA,-3.33,NA,NA,NA,NA,4,"MDPRF67386"
"128",1727179205662,"24/09/2024 12:00:05",1727182805662,1,"24/09/2024 14:00:05",187387,9,"task-nz4r",NA,40225291,11744027,NA,"complete",NA,"66f2a319f730ecf1c5ee26f5","computer","Desktop or Laptop","Mac OS 10.15.7","Chrome 129.0.0.0","1710x1107","1710x947",NA,NA,0,"Gambling_GBO",12,"In","DECFBGAHKIJ",NA,"In","MH_OCT","seq4","Gamble_Rand_Seq4","Gamble_Rand_Seq4",28,"Rating","Screen 1","hx8b5a",1,"response","48",783.399999999994,1600,1616.10000000018,783.399999999994,1600,1616.10000000018,1,783.399999999994,832.700000000186,0,NA,"Slider","MoodSlider",2,"object-243","Rating","happy","unhappy","happy",10,"",NA,NA,NA,NA,NA,"Right",NA,-3.33,NA,NA,NA,NA,4,"MDPRF67386"
"129",1727179205669,"24/09/2024 12:00:05",1727182805669,1,"24/09/2024 14:00:05",187387,9,"task-nz4r",NA,40225291,11744027,NA,"complete",NA,"66f2a319f730ecf1c5ee26f5","computer","Desktop or Laptop","Mac OS 10.15.7","Chrome 129.0.0.0","1710x1107","1710x947",NA,NA,0,"Gambling_GBO",12,"In","DECFBGAHKIJ",NA,"In","MH_OCT","seq4","Gamble_Rand_Seq4","Gamble_Rand_Seq4",29,"Rating","Screen 1","hx8b5a",1,"info","",16.7000000000116,0,16.7000000000116,16.7000000000116,0,16.7000000000116,1,16.7000000000116,0,0,NA,"Slider","MoodSlider",2,"object-243","Rating","frustrated","not frustrated","frustrated",10,"",NA,NA,NA,NA,NA,"Right",NA,-3.33,NA,NA,NA,NA,4,"MDPRF67386"
"130",1727179207118,"24/09/2024 12:00:07",1727182807118,1,"24/09/2024 14:00:07",187387,9,"task-nz4r",NA,40225291,11744027,NA,"complete",NA,"66f2a319f730ecf1c5ee26f5","computer","Desktop or Laptop","Mac OS 10.15.7","Chrome 129.0.0.0","1710x1107","1710x947",NA,NA,0,"Gambling_GBO",12,"In","DECFBGAHKIJ",NA,"In","MH_OCT","seq4","Gamble_Rand_Seq4","Gamble_Rand_Seq4",29,"Rating","Screen 1","hx8b5a",1,"continue","",1472.20000000074,1466.69999999998,1472.20000000074,1472.20000000074,1466.69999999998,1472.20000000074,1,1472.20000000074,0,0,NA,"Click To Continue","Continue Button",3,"object-25","Rating","frustrated","not frustrated","frustrated",10,"",NA,NA,NA,NA,NA,"Right",NA,-3.33,NA,NA,NA,NA,4,"MDPRF67386"
"131",1727179207119,"24/09/2024 12:00:07",1727182807119,1,"24/09/2024 14:00:07",187387,9,"task-nz4r",NA,40225291,11744027,NA,"complete",NA,"66f2a319f730ecf1c5ee26f5","computer","Desktop or Laptop","Mac OS 10.15.7","Chrome 129.0.0.0","1710x1107","1710x947",NA,NA,0,"Gambling_GBO",12,"In","DECFBGAHKIJ",NA,"In","MH_OCT","seq4","Gamble_Rand_Seq4","Gamble_Rand_Seq4",29,"Rating","Screen 1","hx8b5a",1,"response","53",950,1466.69999999998,1472.80000000037,950,1466.69999999998,1472.80000000037,1,950,522.800000000367,0,NA,"Slider","MoodSlider",2,"object-243","Rating","frustrated","not frustrated","frustrated",10,"",NA,NA,NA,NA,NA,"Right",NA,-3.33,NA,NA,NA,NA,4,"MDPRF67386"
"132",1727179207125,"24/09/2024 12:00:07",1727182807125,1,"24/09/2024 14:00:07",187387,9,"task-nz4r",NA,40225291,11744027,NA,"complete",NA,"66f2a319f730ecf1c5ee26f5","computer","Desktop or Laptop","Mac OS 10.15.7","Chrome 129.0.0.0","1710x1107","1710x947",NA,NA,0,"Gambling_GBO",12,"In","DECFBGAHKIJ",NA,"In","MH_OCT","seq4","Gamble_Rand_Seq4","Gamble_Rand_Seq4",30,"Rating","Screen 1","hx8b5a",1,"info","",12.6000000003842,0,12.6000000003842,12.6000000003842,0,12.6000000003842,1,12.6000000003842,0,0,NA,"Slider","MoodSlider",2,"object-243","Rating","bored","not bored","bored",10,"",NA,NA,NA,NA,NA,"Right",NA,-3.33,NA,NA,NA,NA,4,"MDPRF67386"
"133",1727179208351,"24/09/2024 12:00:08",1727182808351,1,"24/09/2024 14:00:08",187387,9,"task-nz4r",NA,40225291,11744027,NA,"complete",NA,"66f2a319f730ecf1c5ee26f5","computer","Desktop or Laptop","Mac OS 10.15.7","Chrome 129.0.0.0","1710x1107","1710x947",NA,NA,0,"Gambling_GBO",12,"In","DECFBGAHKIJ",NA,"In","MH_OCT","seq4","Gamble_Rand_Seq4","Gamble_Rand_Seq4",30,"Rating","Screen 1","hx8b5a",1,"continue","",1238.80000000057,1233.30000000002,1238.80000000057,1238.80000000057,1233.30000000002,1238.80000000057,1,1238.80000000057,0,0,NA,"Click To Continue","Continue Button",3,"object-25","Rating","bored","not bored","bored",10,"",NA,NA,NA,NA,NA,"Right",NA,-3.33,NA,NA,NA,NA,4,"MDPRF67386"
"134",1727179208352,"24/09/2024 12:00:08",1727182808352,1,"24/09/2024 14:00:08",187387,9,"task-nz4r",NA,40225291,11744027,NA,"complete",NA,"66f2a319f730ecf1c5ee26f5","computer","Desktop or Laptop","Mac OS 10.15.7","Chrome 129.0.0.0","1710x1107","1710x947",NA,NA,0,"Gambling_GBO",12,"In","DECFBGAHKIJ",NA,"In","MH_OCT","seq4","Gamble_Rand_Seq4","Gamble_Rand_Seq4",30,"Rating","Screen 1","hx8b5a",1,"response","50",733.300000000017,1233.30000000002,1239.50000000076,733.300000000017,1233.30000000002,1239.50000000076,1,733.300000000017,506.200000000739,0,NA,"Slider","MoodSlider",2,"object-243","Rating","bored","not bored","bored",10,"",NA,NA,NA,NA,NA,"Right",NA,-3.33,NA,NA,NA,NA,4,"MDPRF67386"
"135",1727179210313,"24/09/2024 12:00:10",1727182810313,1,"24/09/2024 14:00:10",187387,9,"task-nz4r",NA,40225291,11744027,NA,"complete",NA,"66f2a319f730ecf1c5ee26f5","computer","Desktop or Laptop","Mac OS 10.15.7","Chrome 129.0.0.0","1710x1107","1710x947",NA,NA,0,"Gambling_GBO",12,"In","DECFBGAHKIJ",NA,"In","MH_OCT","seq4","Gamble_Rand_Seq4","Gamble_Rand_Seq4",2,"winT","Screen 1","np5pnj",1,"continue","",1966.60000000001,1966.60000000001,1966.60000000001,1966.60000000001,1966.60000000001,1966.60000000001,1,1966.60000000001,0,0,NA,"Fixation Timing","Fixation",1,"object-304","winT","","","",NA,"Right",2.67,1,6,10,NA,"Right",NA,-3.33,NA,NA,NA,NA,4,"MDPRF67386"
"136",1727179211324,"24/09/2024 12:00:11",1727182811324,1,"24/09/2024 14:00:11",187387,9,"task-nz4r",NA,40225291,11744027,NA,"complete",NA,"66f2a319f730ecf1c5ee26f5","computer","Desktop or Laptop","Mac OS 10.15.7","Chrome 129.0.0.0","1710x1107","1710x947",NA,NA,0,"Gambling_GBO",12,"In","DECFBGAHKIJ",NA,"In","MH_OCT","seq4","Gamble_Rand_Seq4","Gamble_Rand_Seq4",2,"winT","choice","gu8zgx",2,"response","Right",1010.70000000036,1000,1010.70000000036,1010.70000000036,1000,1010.70000000036,1,1010.70000000036,0,0,NA,"Keyboard Response","KeyResponseG",6,"object-326","winT","","","",NA,"Right",2.67,1,6,10,NA,"Right",NA,2.67,NA,NA,NA,NA,6,"MDPRF67386"
"137",1727179215313,"24/09/2024 12:00:15",1727182815313,1,"24/09/2024 14:00:15",187387,9,"task-nz4r",NA,40225291,11744027,NA,"complete",NA,"66f2a319f730ecf1c5ee26f5","computer","Desktop or Laptop","Mac OS 10.15.7","Chrome 129.0.0.0","1710x1107","1710x947",NA,NA,0,"Gambling_GBO",12,"In","DECFBGAHKIJ",NA,"In","MH_OCT","seq4","Gamble_Rand_Seq4","Gamble_Rand_Seq4",2,"winT","gamble","1lb69u",3,"timedOut","",4000.29999999999,4000,4000.29999999999,4000.29999999999,4000,4000.29999999999,1,4000.29999999999,0,0,NA,"Time Limit","screen",0,"screen","winT","","","",NA,"Right",2.67,1,6,10,NA,"Right",NA,2.67,NA,NA,NA,NA,6,"MDPRF67386"
"138",1727179216313,"24/09/2024 12:00:16",1727182816313,1,"24/09/2024 14:00:16",187387,9,"task-nz4r",NA,40225291,11744027,NA,"complete",NA,"66f2a319f730ecf1c5ee26f5","computer","Desktop or Laptop","Mac OS 10.15.7","Chrome 129.0.0.0","1710x1107","1710x947",NA,NA,0,"Gambling_GBO",12,"In","DECFBGAHKIJ",NA,"In","MH_OCT","seq4","Gamble_Rand_Seq4","Gamble_Rand_Seq4",2,"winT","win","dhtsbv",4,"timedOut","",1000.29999999999,1000.09999999998,1000.29999999999,1000.29999999999,1000.09999999998,1000.29999999999,1,1000.29999999999,0,0,NA,"Time Limit","screen",0,"screen","winT","","","",NA,"Right",2.67,1,6,10,NA,"Right",NA,2.67,NA,NA,NA,NA,6,"MDPRF67386"
"139",1727179216321,"24/09/2024 12:00:16",1727182816321,1,"24/09/2024 14:00:16",187387,9,"task-nz4r",NA,40225291,11744027,NA,"complete",NA,"66f2a319f730ecf1c5ee26f5","computer","Desktop or Laptop","Mac OS 10.15.7","Chrome 129.0.0.0","1710x1107","1710x947",NA,NA,0,"Gambling_GBO",12,"In","DECFBGAHKIJ",NA,"In","MH_OCT","seq4","Gamble_Rand_Seq4","Gamble_Rand_Seq4",31,"Rating","Screen 1","hx8b5a",1,"info","",9.10000000038417,0,9.10000000038417,9.10000000038417,0,9.10000000038417,1,9.10000000038417,0,0,NA,"Slider","MoodSlider",2,"object-243","Rating","happy","unhappy","happy",11,"",NA,NA,NA,NA,NA,"Right",NA,2.67,NA,NA,NA,NA,6,"MDPRF67386"
"140",1727179217755,"24/09/2024 12:00:17",1727182817755,1,"24/09/2024 14:00:17",187387,9,"task-nz4r",NA,40225291,11744027,NA,"complete",NA,"66f2a319f730ecf1c5ee26f5","computer","Desktop or Laptop","Mac OS 10.15.7","Chrome 129.0.0.0","1710x1107","1710x947",NA,NA,0,"Gambling_GBO",12,"In","DECFBGAHKIJ",NA,"In","MH_OCT","seq4","Gamble_Rand_Seq4","Gamble_Rand_Seq4",31,"Rating","Screen 1","hx8b5a",1,"continue","",1442.20000000001,1433.30000000002,1442.20000000001,1442.20000000001,1433.30000000002,1442.20000000001,1,1442.20000000001,0,0,NA,"Click To Continue","Continue Button",3,"object-25","Rating","happy","unhappy","happy",11,"",NA,NA,NA,NA,NA,"Right",NA,2.67,NA,NA,NA,NA,6,"MDPRF67386"
"141",1727179217755,"24/09/2024 12:00:17",1727182817755,1,"24/09/2024 14:00:17",187387,9,"task-nz4r",NA,40225291,11744027,NA,"complete",NA,"66f2a319f730ecf1c5ee26f5","computer","Desktop or Laptop","Mac OS 10.15.7","Chrome 129.0.0.0","1710x1107","1710x947",NA,NA,0,"Gambling_GBO",12,"In","DECFBGAHKIJ",NA,"In","MH_OCT","seq4","Gamble_Rand_Seq4","Gamble_Rand_Seq4",31,"Rating","Screen 1","hx8b5a",1,"response","86",849.900000000023,1433.30000000002,1442.80000000057,849.900000000023,1433.30000000002,1442.80000000057,1,849.900000000023,592.900000000547,0,NA,"Slider","MoodSlider",2,"object-243","Rating","happy","unhappy","happy",11,"",NA,NA,NA,NA,NA,"Right",NA,2.67,NA,NA,NA,NA,6,"MDPRF67386"
"142",1727179217762,"24/09/2024 12:00:17",1727182817762,1,"24/09/2024 14:00:17",187387,9,"task-nz4r",NA,40225291,11744027,NA,"complete",NA,"66f2a319f730ecf1c5ee26f5","computer","Desktop or Laptop","Mac OS 10.15.7","Chrome 129.0.0.0","1710x1107","1710x947",NA,NA,0,"Gambling_GBO",12,"In","DECFBGAHKIJ",NA,"In","MH_OCT","seq4","Gamble_Rand_Seq4","Gamble_Rand_Seq4",32,"Rating","Screen 1","hx8b5a",1,"info","",16.2000000007392,0,16.2000000007392,16.2000000007392,0,16.2000000007392,1,16.2000000007392,0,0,NA,"Slider","MoodSlider",2,"object-243","Rating","frustrated","not frustrated","frustrated",11,"",NA,NA,NA,NA,NA,"Right",NA,2.67,NA,NA,NA,NA,6,"MDPRF67386"
"143",1727179219208,"24/09/2024 12:00:19",1727182819208,1,"24/09/2024 14:00:19",187387,9,"task-nz4r",NA,40225291,11744027,NA,"complete",NA,"66f2a319f730ecf1c5ee26f5","computer","Desktop or Laptop","Mac OS 10.15.7","Chrome 129.0.0.0","1710x1107","1710x947",NA,NA,0,"Gambling_GBO",12,"In","DECFBGAHKIJ",NA,"In","MH_OCT","seq4","Gamble_Rand_Seq4","Gamble_Rand_Seq4",32,"Rating","Screen 1","hx8b5a",1,"continue","",1462.30000000037,1450,1462.30000000037,1462.30000000037,1450,1462.30000000037,1,1462.30000000037,0,0,NA,"Click To Continue","Continue Button",3,"object-25","Rating","frustrated","not frustrated","frustrated",11,"",NA,NA,NA,NA,NA,"Right",NA,2.67,NA,NA,NA,NA,6,"MDPRF67386"
"144",1727179219209,"24/09/2024 12:00:19",1727182819209,1,"24/09/2024 14:00:19",187387,9,"task-nz4r",NA,40225291,11744027,NA,"complete",NA,"66f2a319f730ecf1c5ee26f5","computer","Desktop or Laptop","Mac OS 10.15.7","Chrome 129.0.0.0","1710x1107","1710x947",NA,NA,0,"Gambling_GBO",12,"In","DECFBGAHKIJ",NA,"In","MH_OCT","seq4","Gamble_Rand_Seq4","Gamble_Rand_Seq4",32,"Rating","Screen 1","hx8b5a",1,"response","34",816.699999999983,1450,1462.80000000037,816.699999999983,1450,1462.80000000037,1,816.699999999983,646.100000000384,0,NA,"Slider","MoodSlider",2,"object-243","Rating","frustrated","not frustrated","frustrated",11,"",NA,NA,NA,NA,NA,"Right",NA,2.67,NA,NA,NA,NA,6,"MDPRF67386"
"145",1727179219215,"24/09/2024 12:00:19",1727182819215,1,"24/09/2024 14:00:19",187387,9,"task-nz4r",NA,40225291,11744027,NA,"complete",NA,"66f2a319f730ecf1c5ee26f5","computer","Desktop or Laptop","Mac OS 10.15.7","Chrome 129.0.0.0","1710x1107","1710x947",NA,NA,0,"Gambling_GBO",12,"In","DECFBGAHKIJ",NA,"In","MH_OCT","seq4","Gamble_Rand_Seq4","Gamble_Rand_Seq4",33,"Rating","Screen 1","hx8b5a",1,"info","",16.7000000000116,0,16.7000000000116,16.7000000000116,0,16.7000000000116,1,16.7000000000116,0,0,NA,"Slider","MoodSlider",2,"object-243","Rating","bored","not bored","bored",11,"",NA,NA,NA,NA,NA,"Right",NA,2.67,NA,NA,NA,NA,6,"MDPRF67386"
"146",1727179222253,"24/09/2024 12:00:22",1727182822253,1,"24/09/2024 14:00:22",187387,9,"task-nz4r",NA,40225291,11744027,NA,"complete",NA,"66f2a319f730ecf1c5ee26f5","computer","Desktop or Laptop","Mac OS 10.15.7","Chrome 129.0.0.0","1710x1107","1710x947",NA,NA,0,"Gambling_GBO",12,"In","DECFBGAHKIJ",NA,"In","MH_OCT","seq4","Gamble_Rand_Seq4","Gamble_Rand_Seq4",33,"Rating","Screen 1","hx8b5a",1,"continue","",3057.50000000055,3049.89999999999,3057.50000000055,3057.50000000055,3049.89999999999,3057.50000000055,1,3057.50000000055,0,0,NA,"Click To Continue","Continue Button",3,"object-25","Rating","bored","not bored","bored",11,"",NA,NA,NA,NA,NA,"Right",NA,2.67,NA,NA,NA,NA,6,"MDPRF67386"
"147",1727179222254,"24/09/2024 12:00:22",1727182822254,1,"24/09/2024 14:00:22",187387,9,"task-nz4r",NA,40225291,11744027,NA,"complete",NA,"66f2a319f730ecf1c5ee26f5","computer","Desktop or Laptop","Mac OS 10.15.7","Chrome 129.0.0.0","1710x1107","1710x947",NA,NA,0,"Gambling_GBO",12,"In","DECFBGAHKIJ",NA,"In","MH_OCT","seq4","Gamble_Rand_Seq4","Gamble_Rand_Seq4",33,"Rating","Screen 1","hx8b5a",1,"response","42",850,3049.89999999999,3058.20000000074,850,3049.89999999999,3058.20000000074,1,850,2208.20000000074,0,NA,"Slider","MoodSlider",2,"object-243","Rating","bored","not bored","bored",11,"",NA,NA,NA,NA,NA,"Right",NA,2.67,NA,NA,NA,NA,6,"MDPRF67386"
"148",1727179224213,"24/09/2024 12:00:24",1727182824213,1,"24/09/2024 14:00:24",187387,9,"task-nz4r",NA,40225291,11744027,NA,"complete",NA,"66f2a319f730ecf1c5ee26f5","computer","Desktop or Laptop","Mac OS 10.15.7","Chrome 129.0.0.0","1710x1107","1710x947",NA,NA,0,"Gambling_GBO",12,"In","DECFBGAHKIJ",NA,"In","MH_OCT","seq4","Gamble_Rand_Seq4","Gamble_Rand_Seq4",4,"winB","Screen 1","pkkyi8",1,"continue","",1966.70000000001,1966.70000000001,1966.70000000001,1966.70000000001,1966.70000000001,1966.70000000001,1,1966.70000000001,0,0,NA,"Fixation Timing","Fixation",1,"object-246","winB","","","",NA,"Right",-4.33,-5,-3,11,NA,"Right",NA,2.67,NA,NA,NA,NA,6,"MDPRF67386"
"149",1727179228460,"24/09/2024 12:00:28",1727182828460,1,"24/09/2024 14:00:28",187387,9,"task-nz4r",NA,40225291,11744027,NA,"complete",NA,"66f2a319f730ecf1c5ee26f5","computer","Desktop or Laptop","Mac OS 10.15.7","Chrome 129.0.0.0","1710x1107","1710x947",NA,NA,0,"Gambling_GBO",12,"In","DECFBGAHKIJ",NA,"In","MH_OCT","seq4","Gamble_Rand_Seq4","Gamble_Rand_Seq4",4,"winB","choice","5lszbx",2,"response","Right",4247.20000000036,4233.29999999999,4247.20000000036,4247.20000000036,4233.29999999999,4247.20000000036,1,4247.20000000036,0,0,NA,"Keyboard Response","KeyResponseG",6,"object-256","winB","","","",NA,"Right",-4.33,-5,-3,11,NA,"Right",NA,-0.33,NA,NA,NA,NA,-3,"MDPRF67386"
"150",1727179232446,"24/09/2024 12:00:32",1727182832446,1,"24/09/2024 14:00:32",187387,9,"task-nz4r",NA,40225291,11744027,NA,"complete",NA,"66f2a319f730ecf1c5ee26f5","computer","Desktop or Laptop","Mac OS 10.15.7","Chrome 129.0.0.0","1710x1107","1710x947",NA,NA,0,"Gambling_GBO",12,"In","DECFBGAHKIJ",NA,"In","MH_OCT","seq4","Gamble_Rand_Seq4","Gamble_Rand_Seq4",4,"winB","gamble","17lgr3",3,"timedOut","",4000.40000000037,4000.10000000001,4000.40000000037,4000.40000000037,4000.10000000001,4000.40000000037,1,4000.40000000037,0,0,NA,"Time Limit","screen",0,"screen","winB","","","",NA,"Right",-4.33,-5,-3,11,NA,"Right",NA,-0.33,NA,NA,NA,NA,-3,"MDPRF67386"
