"Event.Index","UTC.Timestamp","UTC.Date.and.Time","Local.Timestamp","Local.Timezone","Local.Date.and.Time","Experiment.ID","Experiment.Version","Tree.Node.Key","Repeat.Key","Schedule.ID","Participant.Private.ID","Participant.Starting.Group","Participant.Status","Participant.Completion.Code","Participant.External.Session.ID","Participant.Device.Type","Participant.Device","Participant.OS","Participant.Browser","Participant.Monitor.Size","Participant.Viewport.Size","Checkpoint","Room.ID","Room.Order","Task.Name","Task.Version","branch.hkzp","order.ot79","branch.mcuq","branch.4fv7","randomiser.k5rb","randomiser.rz7w","Spreadsheet","Current.Spreadsheet","Trial.Number","Display","Screen","Screen.ID","Screen.Counter","Response.Type","Response","Onset.Time","Clock.Time","Reaction.Time","Absolute.Onset.Time","Absolute.Clock.Time","Absolute.Reaction.Time","Correct","Response.Onset","Response.Duration","Proportion","Tag","Component.Name","Object.Name","Object.Number","Object.ID","Spreadsheet..display","Spreadsheet..Emo","Spreadsheet..LHS_Lab","Spreadsheet..RHS_Lab","Spreadsheet..rand_M","Spreadsheet..Answer","Spreadsheet..C_points","Spreadsheet..L_points","Spreadsheet..W_points","Spreadsheet..rand_G","Manipulation..Spreadsheet","Store..Choice","Store..total","Store..total_score","Store..pounds","Store..total_money","Store..partA","Store..MoneyReward","Store..pointsPR","Random_ID"
"1",1727179507314,"24/09/2024 12:05:07",1727183107314,1,"24/09/2024 14:05:07",187387,9,"task-nt36",NA,40225630,11744030,NA,"complete",NA,"66f2a2e28fe4ad12490ea906","computer","Desktop or Laptop","Windows 10","Chrome 129.0.0.0","1504x1003","1504x1003",NA,NA,0,"Gambling_GBO",12,"In","EFDGCHBIAJK",NA,"In","MH_OCT","seq2","Gamble_Rand_Seq2","Gamble_Rand_Seq2",NA,"","","",NA,"info","START SUBSYSTEM base.component.fullscreenSubsystem",NA,NA,NA,NA,NA,NA,0,NA,NA,NA,NA,"","",NA,"","","","","",NA,"",NA,NA,NA,NA,NA,"",NA,NA,NA,NA,NA,NA,NA,"MDPRF51568"
"2",1727179507339,"24/09/2024 12:05:07",1727183107339,1,"24/09/2024 14:05:07",187387,9,"task-nt36",NA,40225630,11744030,NA,"complete",NA,"66f2a2e28fe4ad12490ea906","computer","Desktop or Laptop","Windows 10","Chrome 129.0.0.0","1504x1003","1504x1003",NA,NA,0,"Gambling_GBO",12,"In","EFDGCHBIAJK",NA,"In","MH_OCT","seq2","Gamble_Rand_Seq2","Gamble_Rand_Seq2",NA,"","","",NA,"info","SUBSYSTEM READY base.component.fullscreenSubsystem",NA,NA,NA,NA,NA,NA,0,NA,NA,NA,NA,"","",NA,"","","","","",NA,"",NA,NA,NA,NA,NA,"",NA,NA,NA,NA,NA,NA,NA,"MDPRF51568"
"3",1727179507411,"24/09/2024 12:05:07",1727183107411,1,"24/09/2024 14:05:07",187387,9,"task-nt36",NA,40225630,11744030,NA,"complete",NA,"66f2a2e28fe4ad12490ea906","computer","Desktop or Laptop","Windows 10","Chrome 129.0.0.0","1504x1003","1504x1003",NA,NA,0,"Gambling_GBO",12,"In","EFDGCHBIAJK",NA,"In","MH_OCT","seq2","Gamble_Rand_Seq2","Gamble_Rand_Seq2",NA,"","","",NA,"info","BEGIN",NA,NA,NA,NA,NA,NA,0,NA,NA,NA,NA,"","",NA,"","","","","",NA,"",NA,NA,NA,NA,NA,"",NA,NA,NA,NA,NA,NA,NA,"MDPRF51568"
"4",1727179510024,"24/09/2024 12:05:10",1727183110024,1,"24/09/2024 14:05:10",187387,9,"task-nt36",NA,40225630,11744030,NA,"complete",NA,"66f2a2e28fe4ad12490ea906","computer","Desktop or Laptop","Windows 10","Chrome 129.0.0.0","1504x1003","1504x1003",NA,NA,0,"Gambling_GBO",12,"In","EFDGCHBIAJK",NA,"In","MH_OCT","seq2","Gamble_Rand_Seq2","Gamble_Rand_Seq2",1,"Intro","Screen 1","u1aumm",1,"continue","",2738.59599997616,2731.696,2738.59599997616,2738.59599997616,2731.696,2738.59599997616,1,2738.59599997616,0,0,NA,"Click To Continue","Continue Button",2,"object-37171","Intro","","","",NA,"",NA,NA,NA,NA,NA,"",NA,NA,NA,NA,NA,NA,NA,"MDPRF51568"
"5",1727179515410,"24/09/2024 12:05:15",1727183115410,1,"24/09/2024 14:05:15",187387,9,"task-nt36",NA,40225630,11744030,NA,"complete",NA,"66f2a2e28fe4ad12490ea906","computer","Desktop or Laptop","Windows 10","Chrome 129.0.0.0","1504x1003","1504x1003",NA,NA,0,"Gambling_GBO",12,"In","EFDGCHBIAJK",NA,"In","MH_OCT","seq2","Gamble_Rand_Seq2","Gamble_Rand_Seq2",1,"Instructions","Screen 1","rfymdc",1,"continue","",5393.20000004768,5383.3,5393.20000004768,5393.20000004768,5383.3,5393.20000004768,1,5393.20000004768,0,0,NA,"Click To Continue","Continue Button",2,"object-3","Instructions","","","",NA,"",NA,NA,NA,NA,NA,"",NA,NA,NA,NA,NA,NA,NA,"MDPRF51568"
"6",1727179520735,"24/09/2024 12:05:20",1727183120735,1,"24/09/2024 14:05:20",187387,9,"task-nt36",NA,40225630,11744030,NA,"complete",NA,"66f2a2e28fe4ad12490ea906","computer","Desktop or Laptop","Windows 10","Chrome 129.0.0.0","1504x1003","1504x1003",NA,NA,0,"Gambling_GBO",12,"In","EFDGCHBIAJK",NA,"In","MH_OCT","seq2","Gamble_Rand_Seq2","Gamble_Rand_Seq2",1,"Instructions","Screen 2","x2kpu8",2,"continue","",5335.09999997616,5333.3,5335.09999997616,5335.09999997616,5333.3,5335.09999997616,1,5335.09999997616,0,0,NA,"Click To Continue","Continue Button",2,"object-22021","Instructions","","","",NA,"",NA,NA,NA,NA,NA,"",NA,NA,NA,NA,NA,NA,NA,"MDPRF51568"
"7",1727179521972,"24/09/2024 12:05:21",1727183121972,1,"24/09/2024 14:05:21",187387,9,"task-nt36",NA,40225630,11744030,NA,"complete",NA,"66f2a2e28fe4ad12490ea906","computer","Desktop or Laptop","Windows 10","Chrome 129.0.0.0","1504x1003","1504x1003",NA,NA,0,"Gambling_GBO",12,"In","EFDGCHBIAJK",NA,"In","MH_OCT","seq2","Gamble_Rand_Seq2","Gamble_Rand_Seq2",1,"Instructions","Screen 3","o6zm7t",3,"continue","",1238.70000007153,1233.6,1238.70000007153,1238.70000007153,1233.6,1238.70000007153,1,1238.70000007153,0,0,NA,"Click To Continue","Continue Button",2,"object-225","Instructions","","","",NA,"",NA,NA,NA,NA,NA,"",NA,NA,NA,NA,NA,NA,NA,"MDPRF51568"
"8",1727179523721,"24/09/2024 12:05:23",1727183123721,1,"24/09/2024 14:05:23",187387,9,"task-nt36",NA,40225630,11744030,NA,"complete",NA,"66f2a2e28fe4ad12490ea906","computer","Desktop or Laptop","Windows 10","Chrome 129.0.0.0","1504x1003","1504x1003",NA,NA,0,"Gambling_GBO",12,"In","EFDGCHBIAJK",NA,"In","MH_OCT","seq2","Gamble_Rand_Seq2","Gamble_Rand_Seq2",1,"Instructions","Screen 4","3hq7c2",4,"continue","",1754.50000004768,1749.8,1754.50000004768,1754.50000004768,1749.8,1754.50000004768,1,1754.50000004768,0,0,NA,"Click To Continue","Continue Button",4,"object-380","Instructions","","","",NA,"",NA,NA,NA,NA,NA,"",NA,NA,NA,NA,NA,NA,NA,"MDPRF51568"
"9",1727179525338,"24/09/2024 12:05:25",1727183125338,1,"24/09/2024 14:05:25",187387,9,"task-nt36",NA,40225630,11744030,NA,"complete",NA,"66f2a2e28fe4ad12490ea906","computer","Desktop or Laptop","Windows 10","Chrome 129.0.0.0","1504x1003","1504x1003",NA,NA,0,"Gambling_GBO",12,"In","EFDGCHBIAJK",NA,"In","MH_OCT","seq2","Gamble_Rand_Seq2","Gamble_Rand_Seq2",1,"Instructions","Screen 5","5jisqh",5,"continue","",1621.70000004768,1616.7,1621.70000004768,1621.70000004768,1616.7,1621.70000004768,1,1621.70000004768,0,0,NA,"Click To Continue","Continue Button",2,"object-233","Instructions","","","",NA,"",NA,NA,NA,NA,NA,"",NA,NA,NA,NA,NA,NA,NA,"MDPRF51568"
"10",1727179526168,"24/09/2024 12:05:26",1727183126168,1,"24/09/2024 14:05:26",187387,9,"task-nt36",NA,40225630,11744030,NA,"complete",NA,"66f2a2e28fe4ad12490ea906","computer","Desktop or Laptop","Windows 10","Chrome 129.0.0.0","1504x1003","1504x1003",NA,NA,0,"Gambling_GBO",12,"In","EFDGCHBIAJK",NA,"In","MH_OCT","seq2","Gamble_Rand_Seq2","Gamble_Rand_Seq2",1,"Instructions","Screen 6","13xe5l",6,"continue","",833.300000000003,816.700000000001,833.300000000003,833.300000000003,816.700000000001,833.300000000003,1,833.300000000003,0,0,NA,"Click To Continue","Continue Button",2,"object-237","Instructions","","","",NA,"",NA,NA,NA,NA,NA,"",NA,NA,NA,NA,NA,NA,NA,"MDPRF51568"
"11",1727179529281,"24/09/2024 12:05:29",1727183129281,1,"24/09/2024 14:05:29",187387,9,"task-nt36",NA,40225630,11744030,NA,"complete",NA,"66f2a2e28fe4ad12490ea906","computer","Desktop or Laptop","Windows 10","Chrome 129.0.0.0","1504x1003","1504x1003",NA,NA,0,"Gambling_GBO",12,"In","EFDGCHBIAJK",NA,"In","MH_OCT","seq2","Gamble_Rand_Seq2","Gamble_Rand_Seq2",1,"Instructions","Screen 7","re2b58",7,"continue","",3130.70000002384,3116.7,3130.70000002384,3130.70000002384,3116.7,3130.70000002384,1,3130.70000002384,0,0,NA,"Click To Continue","Continue Button",2,"object-241","Instructions","","","",NA,"",NA,NA,NA,NA,NA,"",NA,NA,NA,NA,NA,NA,NA,"MDPRF51568"
"12",1727179529301,"24/09/2024 12:05:29",1727183129301,1,"24/09/2024 14:05:29",187387,9,"task-nt36",NA,40225630,11744030,NA,"complete",NA,"66f2a2e28fe4ad12490ea906","computer","Desktop or Laptop","Windows 10","Chrome 129.0.0.0","1504x1003","1504x1003",NA,NA,0,"Gambling_GBO",12,"In","EFDGCHBIAJK",NA,"In","MH_OCT","seq2","Gamble_Rand_Seq2","Gamble_Rand_Seq2",1,"Rating","Screen 1","hx8b5a",1,"info","",16.6999999999971,0,16.6999999999971,16.6999999999971,0,16.6999999999971,1,16.6999999999971,0,0,NA,"Slider","MoodSlider",2,"object-243","Rating","frustrated","not frustrated","frustrated",1,"",NA,NA,NA,NA,NA,"",NA,NA,NA,NA,NA,NA,NA,"MDPRF51568"
"13",1727179533205,"24/09/2024 12:05:33",1727183133205,1,"24/09/2024 14:05:33",187387,9,"task-nt36",NA,40225630,11744030,NA,"complete",NA,"66f2a2e28fe4ad12490ea906","computer","Desktop or Laptop","Windows 10","Chrome 129.0.0.0","1504x1003","1504x1003",NA,NA,0,"Gambling_GBO",12,"In","EFDGCHBIAJK",NA,"In","MH_OCT","seq2","Gamble_Rand_Seq2","Gamble_Rand_Seq2",1,"Rating","Screen 1","hx8b5a",1,"continue","",3938.70000007153,3933.1,3938.70000007153,3938.70000007153,3933.1,3938.70000007153,1,3938.70000007153,0,0,NA,"Click To Continue","Continue Button",3,"object-25","Rating","frustrated","not frustrated","frustrated",1,"",NA,NA,NA,NA,NA,"",NA,NA,NA,NA,NA,NA,NA,"MDPRF51568"
"14",1727179533211,"24/09/2024 12:05:33",1727183133211,1,"24/09/2024 14:05:33",187387,9,"task-nt36",NA,40225630,11744030,NA,"complete",NA,"66f2a2e28fe4ad12490ea906","computer","Desktop or Laptop","Windows 10","Chrome 129.0.0.0","1504x1003","1504x1003",NA,NA,0,"Gambling_GBO",12,"In","EFDGCHBIAJK",NA,"In","MH_OCT","seq2","Gamble_Rand_Seq2","Gamble_Rand_Seq2",1,"Rating","Screen 1","hx8b5a",1,"response","70",1683.3,3933.1,3944.10000004769,1683.3,3933.1,3944.10000004769,1,1683.3,2260.80000004768,0,NA,"Slider","MoodSlider",2,"object-243","Rating","frustrated","not frustrated","frustrated",1,"",NA,NA,NA,NA,NA,"",NA,NA,NA,NA,NA,NA,NA,"MDPRF51568"
"15",1727179533227,"24/09/2024 12:05:33",1727183133227,1,"24/09/2024 14:05:33",187387,9,"task-nt36",NA,40225630,11744030,NA,"complete",NA,"66f2a2e28fe4ad12490ea906","computer","Desktop or Laptop","Windows 10","Chrome 129.0.0.0","1504x1003","1504x1003",NA,NA,0,"Gambling_GBO",12,"In","EFDGCHBIAJK",NA,"In","MH_OCT","seq2","Gamble_Rand_Seq2","Gamble_Rand_Seq2",2,"Rating","Screen 1","hx8b5a",1,"info","",16.7000000000007,0,16.7000000000007,16.7000000000007,0,16.7000000000007,1,16.7000000000007,0,0,NA,"Slider","MoodSlider",2,"object-243","Rating","happy","unhappy","happy",1,"",NA,NA,NA,NA,NA,"",NA,NA,NA,NA,NA,NA,NA,"MDPRF51568"
"16",1727179535121,"24/09/2024 12:05:35",1727183135121,1,"24/09/2024 14:05:35",187387,9,"task-nt36",NA,40225630,11744030,NA,"complete",NA,"66f2a2e28fe4ad12490ea906","computer","Desktop or Laptop","Windows 10","Chrome 129.0.0.0","1504x1003","1504x1003",NA,NA,0,"Gambling_GBO",12,"In","EFDGCHBIAJK",NA,"In","MH_OCT","seq2","Gamble_Rand_Seq2","Gamble_Rand_Seq2",2,"Rating","Screen 1","hx8b5a",1,"continue","",1920.60000007152,1916.6,1920.60000007152,1920.60000007152,1916.6,1920.60000007152,1,1920.60000007152,0,0,NA,"Click To Continue","Continue Button",3,"object-25","Rating","happy","unhappy","happy",1,"",NA,NA,NA,NA,NA,"",NA,NA,NA,NA,NA,NA,NA,"MDPRF51568"
"17",1727179535122,"24/09/2024 12:05:35",1727183135122,1,"24/09/2024 14:05:35",187387,9,"task-nt36",NA,40225630,11744030,NA,"complete",NA,"66f2a2e28fe4ad12490ea906","computer","Desktop or Laptop","Windows 10","Chrome 129.0.0.0","1504x1003","1504x1003",NA,NA,0,"Gambling_GBO",12,"In","EFDGCHBIAJK",NA,"In","MH_OCT","seq2","Gamble_Rand_Seq2","Gamble_Rand_Seq2",2,"Rating","Screen 1","hx8b5a",1,"response","41",1266.9,1916.6,1921.90000002384,1266.9,1916.6,1921.90000002384,1,1266.9,655.000000023843,0,NA,"Slider","MoodSlider",2,"object-243","Rating","happy","unhappy","happy",1,"",NA,NA,NA,NA,NA,"",NA,NA,NA,NA,NA,NA,NA,"MDPRF51568"
"18",1727179535146,"24/09/2024 12:05:35",1727183135146,1,"24/09/2024 14:05:35",187387,9,"task-nt36",NA,40225630,11744030,NA,"complete",NA,"66f2a2e28fe4ad12490ea906","computer","Desktop or Laptop","Windows 10","Chrome 129.0.0.0","1504x1003","1504x1003",NA,NA,0,"Gambling_GBO",12,"In","EFDGCHBIAJK",NA,"In","MH_OCT","seq2","Gamble_Rand_Seq2","Gamble_Rand_Seq2",3,"Rating","Screen 1","hx8b5a",1,"info","",16.7000000000007,0,16.7000000000007,16.7000000000007,0,16.7000000000007,1,16.7000000000007,0,0,NA,"Slider","MoodSlider",2,"object-243","Rating","bored","not bored","bored",1,"",NA,NA,NA,NA,NA,"",NA,NA,NA,NA,NA,NA,NA,"MDPRF51568"
"19",1727179537915,"24/09/2024 12:05:37",1727183137915,1,"24/09/2024 14:05:37",187387,9,"task-nt36",NA,40225630,11744030,NA,"complete",NA,"66f2a2e28fe4ad12490ea906","computer","Desktop or Laptop","Windows 10","Chrome 129.0.0.0","1504x1003","1504x1003",NA,NA,0,"Gambling_GBO",12,"In","EFDGCHBIAJK",NA,"In","MH_OCT","seq2","Gamble_Rand_Seq2","Gamble_Rand_Seq2",3,"Rating","Screen 1","hx8b5a",1,"continue","",2798.90000004768,2783.6,2798.90000004768,2798.90000004768,2783.6,2798.90000004768,1,2798.90000004768,0,0,NA,"Click To Continue","Continue Button",3,"object-25","Rating","bored","not bored","bored",1,"",NA,NA,NA,NA,NA,"",NA,NA,NA,NA,NA,NA,NA,"MDPRF51568"
"20",1727179537917,"24/09/2024 12:05:37",1727183137917,1,"24/09/2024 14:05:37",187387,9,"task-nt36",NA,40225630,11744030,NA,"complete",NA,"66f2a2e28fe4ad12490ea906","computer","Desktop or Laptop","Windows 10","Chrome 129.0.0.0","1504x1003","1504x1003",NA,NA,0,"Gambling_GBO",12,"In","EFDGCHBIAJK",NA,"In","MH_OCT","seq2","Gamble_Rand_Seq2","Gamble_Rand_Seq2",3,"Rating","Screen 1","hx8b5a",1,"response","74",2166.8,2783.6,2800.30000002384,2166.8,2783.6,2800.30000002384,1,2166.8,633.500000023843,0,NA,"Slider","MoodSlider",2,"object-243","Rating","bored","not bored","bored",1,"",NA,NA,NA,NA,NA,"",NA,NA,NA,NA,NA,NA,NA,"MDPRF51568"
"21",1727179539867,"24/09/2024 12:05:39",1727183139867,1,"24/09/2024 14:05:39",187387,9,"task-nt36",NA,40225630,11744030,NA,"complete",NA,"66f2a2e28fe4ad12490ea906","computer","Desktop or Laptop","Windows 10","Chrome 129.0.0.0","1504x1003","1504x1003",NA,NA,0,"Gambling_GBO",12,"In","EFDGCHBIAJK",NA,"In","MH_OCT","seq2","Gamble_Rand_Seq2","Gamble_Rand_Seq2",1,"lossB","Screen 1","a4fynh",1,"continue","",1966.5,1966.5,1966.5,1966.5,1966.5,1966.5,1,1966.5,0,0,NA,"Fixation Timing","Fixation",1,"object-113","lossB","","","",NA,"Right",-2.33,-3,-1,1,NA,"",NA,NA,NA,NA,NA,NA,NA,"MDPRF51568"
"22",1727179543215,"24/09/2024 12:05:43",1727183143215,1,"24/09/2024 14:05:43",187387,9,"task-nt36",NA,40225630,11744030,NA,"complete",NA,"66f2a2e28fe4ad12490ea906","computer","Desktop or Laptop","Windows 10","Chrome 129.0.0.0","1504x1003","1504x1003",NA,NA,0,"Gambling_GBO",12,"In","EFDGCHBIAJK",NA,"In","MH_OCT","seq2","Gamble_Rand_Seq2","Gamble_Rand_Seq2",1,"lossB","choice","k9qq8f",2,"response","Right",3346.49999997616,3333.3,3346.49999997616,3346.49999997616,3333.3,3346.49999997616,1,3346.49999997616,0,0,NA,"Keyboard Response","KeyResponseG",6,"object-200","lossB","","","",NA,"Right",-2.33,-3,-1,1,NA,"Right",NA,-3,NA,NA,NA,NA,-3,"MDPRF51568"
"23",1727179547201,"24/09/2024 12:05:47",1727183147201,1,"24/09/2024 14:05:47",187387,9,"task-nt36",NA,40225630,11744030,NA,"complete",NA,"66f2a2e28fe4ad12490ea906","computer","Desktop or Laptop","Windows 10","Chrome 129.0.0.0","1504x1003","1504x1003",NA,NA,0,"Gambling_GBO",12,"In","EFDGCHBIAJK",NA,"In","MH_OCT","seq2","Gamble_Rand_Seq2","Gamble_Rand_Seq2",1,"lossB","gamble","tpcid5",3,"timedOut","",4000.90000002384,4000,4000.90000002384,4000.90000002384,4000,4000.90000002384,1,4000.90000002384,0,0,NA,"Time Limit","screen",0,"screen","lossB","","","",NA,"Right",-2.33,-3,-1,1,NA,"Right",NA,-3,NA,NA,NA,NA,-3,"MDPRF51568"
"24",1727179548200,"24/09/2024 12:05:48",1727183148200,1,"24/09/2024 14:05:48",187387,9,"task-nt36",NA,40225630,11744030,NA,"complete",NA,"66f2a2e28fe4ad12490ea906","computer","Desktop or Laptop","Windows 10","Chrome 129.0.0.0","1504x1003","1504x1003",NA,NA,0,"Gambling_GBO",12,"In","EFDGCHBIAJK",NA,"In","MH_OCT","seq2","Gamble_Rand_Seq2","Gamble_Rand_Seq2",1,"lossB","loss","2apfzp",4,"timedOut","",1000.40000002384,999.800000000003,1000.40000002384,1000.40000002384,999.800000000003,1000.40000002384,1,1000.40000002384,0,0,NA,"Time Limit","screen",0,"screen","lossB","","","",NA,"Right",-2.33,-3,-1,1,NA,"Right",NA,-3,NA,NA,NA,NA,-3,"MDPRF51568"
"25",1727179548216,"24/09/2024 12:05:48",1727183148216,1,"24/09/2024 14:05:48",187387,9,"task-nt36",NA,40225630,11744030,NA,"complete",NA,"66f2a2e28fe4ad12490ea906","computer","Desktop or Laptop","Windows 10","Chrome 129.0.0.0","1504x1003","1504x1003",NA,NA,0,"Gambling_GBO",12,"In","EFDGCHBIAJK",NA,"In","MH_OCT","seq2","Gamble_Rand_Seq2","Gamble_Rand_Seq2",4,"Rating","Screen 1","hx8b5a",1,"info","",16.3999999761581,0,16.3999999761581,16.3999999761581,0,16.3999999761581,1,16.3999999761581,0,0,NA,"Slider","MoodSlider",2,"object-243","Rating","happy","unhappy","happy",2,"",NA,NA,NA,NA,NA,"Right",NA,-3,NA,NA,NA,NA,-3,"MDPRF51568"
"26",1727179551202,"24/09/2024 12:05:51",1727183151202,1,"24/09/2024 14:05:51",187387,9,"task-nt36",NA,40225630,11744030,NA,"complete",NA,"66f2a2e28fe4ad12490ea906","computer","Desktop or Laptop","Windows 10","Chrome 129.0.0.0","1504x1003","1504x1003",NA,NA,0,"Gambling_GBO",12,"In","EFDGCHBIAJK",NA,"In","MH_OCT","seq2","Gamble_Rand_Seq2","Gamble_Rand_Seq2",4,"Rating","Screen 1","hx8b5a",1,"continue","",3002.20000004768,3000.1,3002.20000004768,3002.20000004768,3000.1,3002.20000004768,1,3002.20000004768,0,0,NA,"Click To Continue","Continue Button",3,"object-25","Rating","happy","unhappy","happy",2,"",NA,NA,NA,NA,NA,"Right",NA,-3,NA,NA,NA,NA,-3,"MDPRF51568"
"27",1727179551202,"24/09/2024 12:05:51",1727183151202,1,"24/09/2024 14:05:51",187387,9,"task-nt36",NA,40225630,11744030,NA,"complete",NA,"66f2a2e28fe4ad12490ea906","computer","Desktop or Laptop","Windows 10","Chrome 129.0.0.0","1504x1003","1504x1003",NA,NA,0,"Gambling_GBO",12,"In","EFDGCHBIAJK",NA,"In","MH_OCT","seq2","Gamble_Rand_Seq2","Gamble_Rand_Seq2",4,"Rating","Screen 1","hx8b5a",1,"response","32",1716.8,3000.1,3002.60000002384,1716.8,3000.1,3002.60000002384,1,1716.8,1285.80000002384,0,NA,"Slider","MoodSlider",2,"object-243","Rating","happy","unhappy","happy",2,"",NA,NA,NA,NA,NA,"Right",NA,-3,NA,NA,NA,NA,-3,"MDPRF51568"
"28",1727179551214,"24/09/2024 12:05:51",1727183151214,1,"24/09/2024 14:05:51",187387,9,"task-nt36",NA,40225630,11744030,NA,"complete",NA,"66f2a2e28fe4ad12490ea906","computer","Desktop or Laptop","Windows 10","Chrome 129.0.0.0","1504x1003","1504x1003",NA,NA,0,"Gambling_GBO",12,"In","EFDGCHBIAJK",NA,"In","MH_OCT","seq2","Gamble_Rand_Seq2","Gamble_Rand_Seq2",5,"Rating","Screen 1","hx8b5a",1,"info","",14.4000000000015,0,14.4000000000015,14.4000000000015,0,14.4000000000015,1,14.4000000000015,0,0,NA,"Slider","MoodSlider",2,"object-243","Rating","frustrated","not frustrated","frustrated",2,"",NA,NA,NA,NA,NA,"Right",NA,-3,NA,NA,NA,NA,-3,"MDPRF51568"
"29",1727179556808,"24/09/2024 12:05:56",1727183156808,1,"24/09/2024 14:05:56",187387,9,"task-nt36",NA,40225630,11744030,NA,"complete",NA,"66f2a2e28fe4ad12490ea906","computer","Desktop or Laptop","Windows 10","Chrome 129.0.0.0","1504x1003","1504x1003",NA,NA,0,"Gambling_GBO",12,"In","EFDGCHBIAJK",NA,"In","MH_OCT","seq2","Gamble_Rand_Seq2","Gamble_Rand_Seq2",5,"Rating","Screen 1","hx8b5a",1,"continue","",5608.50000002384,5599.8,5608.50000002384,5608.50000002384,5599.8,5608.50000002384,1,5608.50000002384,0,0,NA,"Click To Continue","Continue Button",3,"object-25","Rating","frustrated","not frustrated","frustrated",2,"",NA,NA,NA,NA,NA,"Right",NA,-3,NA,NA,NA,NA,-3,"MDPRF51568"
"30",1727179556811,"24/09/2024 12:05:56",1727183156811,1,"24/09/2024 14:05:56",187387,9,"task-nt36",NA,40225630,11744030,NA,"complete",NA,"66f2a2e28fe4ad12490ea906","computer","Desktop or Laptop","Windows 10","Chrome 129.0.0.0","1504x1003","1504x1003",NA,NA,0,"Gambling_GBO",12,"In","EFDGCHBIAJK",NA,"In","MH_OCT","seq2","Gamble_Rand_Seq2","Gamble_Rand_Seq2",5,"Rating","Screen 1","hx8b5a",1,"response","78",4666.7,5599.8,5611.79999997616,4666.7,5599.8,5611.79999997616,1,4666.7,945.099999976155,0,NA,"Slider","MoodSlider",2,"object-243","Rating","frustrated","not frustrated","frustrated",2,"",NA,NA,NA,NA,NA,"Right",NA,-3,NA,NA,NA,NA,-3,"MDPRF51568"
"31",1727179556822,"24/09/2024 12:05:56",1727183156822,1,"24/09/2024 14:05:56",187387,9,"task-nt36",NA,40225630,11744030,NA,"complete",NA,"66f2a2e28fe4ad12490ea906","computer","Desktop or Laptop","Windows 10","Chrome 129.0.0.0","1504x1003","1504x1003",NA,NA,0,"Gambling_GBO",12,"In","EFDGCHBIAJK",NA,"In","MH_OCT","seq2","Gamble_Rand_Seq2","Gamble_Rand_Seq2",6,"Rating","Screen 1","hx8b5a",1,"info","",16.5,0,16.5,16.5,0,16.5,1,16.5,0,0,NA,"Slider","MoodSlider",2,"object-243","Rating","bored","not bored","bored",2,"",NA,NA,NA,NA,NA,"Right",NA,-3,NA,NA,NA,NA,-3,"MDPRF51568"
"32",1727179564586,"24/09/2024 12:06:04",1727183164586,1,"24/09/2024 14:06:04",187387,9,"task-nt36",NA,40225630,11744030,NA,"complete",NA,"66f2a2e28fe4ad12490ea906","computer","Desktop or Laptop","Windows 10","Chrome 129.0.0.0","1504x1003","1504x1003",NA,NA,0,"Gambling_GBO",12,"In","EFDGCHBIAJK",NA,"In","MH_OCT","seq2","Gamble_Rand_Seq2","Gamble_Rand_Seq2",6,"Rating","Screen 1","hx8b5a",1,"continue","",7786.70000002384,7783.3,7786.70000002384,7786.70000002384,7783.3,7786.70000002384,1,7786.70000002384,0,0,NA,"Click To Continue","Continue Button",3,"object-25","Rating","bored","not bored","bored",2,"",NA,NA,NA,NA,NA,"Right",NA,-3,NA,NA,NA,NA,-3,"MDPRF51568"
"33",1727179564586,"24/09/2024 12:06:04",1727183164586,1,"24/09/2024 14:06:04",187387,9,"task-nt36",NA,40225630,11744030,NA,"complete",NA,"66f2a2e28fe4ad12490ea906","computer","Desktop or Laptop","Windows 10","Chrome 129.0.0.0","1504x1003","1504x1003",NA,NA,0,"Gambling_GBO",12,"In","EFDGCHBIAJK",NA,"In","MH_OCT","seq2","Gamble_Rand_Seq2","Gamble_Rand_Seq2",6,"Rating","Screen 1","hx8b5a",1,"response","75",6983.3,7783.3,7786.99999997616,6983.3,7783.3,7786.99999997616,1,6983.3,803.699999976161,0,NA,"Slider","MoodSlider",2,"object-243","Rating","bored","not bored","bored",2,"",NA,NA,NA,NA,NA,"Right",NA,-3,NA,NA,NA,NA,-3,"MDPRF51568"
"34",1727179566551,"24/09/2024 12:06:06",1727183166551,1,"24/09/2024 14:06:06",187387,9,"task-nt36",NA,40225630,11744030,NA,"complete",NA,"66f2a2e28fe4ad12490ea906","computer","Desktop or Laptop","Windows 10","Chrome 129.0.0.0","1504x1003","1504x1003",NA,NA,0,"Gambling_GBO",12,"In","EFDGCHBIAJK",NA,"In","MH_OCT","seq2","Gamble_Rand_Seq2","Gamble_Rand_Seq2",1,"winT","Screen 1","np5pnj",1,"continue","",1966.8,1966.8,1966.8,1966.8,1966.8,1966.8,1,1966.8,0,0,NA,"Fixation Timing","Fixation",1,"object-304","winT","","","",NA,"Right",1.67,0,5,2,NA,"Right",NA,-3,NA,NA,NA,NA,-3,"MDPRF51568"
"35",1727179568713,"24/09/2024 12:06:08",1727183168713,1,"24/09/2024 14:06:08",187387,9,"task-nt36",NA,40225630,11744030,NA,"complete",NA,"66f2a2e28fe4ad12490ea906","computer","Desktop or Laptop","Windows 10","Chrome 129.0.0.0","1504x1003","1504x1003",NA,NA,0,"Gambling_GBO",12,"In","EFDGCHBIAJK",NA,"In","MH_OCT","seq2","Gamble_Rand_Seq2","Gamble_Rand_Seq2",1,"winT","choice","gu8zgx",2,"response","Right",2162.20000004768,2149.9,2162.20000004768,2162.20000004768,2149.9,2162.20000004768,1,2162.20000004768,0,0,NA,"Keyboard Response","KeyResponseG",6,"object-326","winT","","","",NA,"Right",1.67,0,5,2,NA,"Right",NA,2,NA,NA,NA,NA,5,"MDPRF51568"
"36",1727179572700,"24/09/2024 12:06:12",1727183172700,1,"24/09/2024 14:06:12",187387,9,"task-nt36",NA,40225630,11744030,NA,"complete",NA,"66f2a2e28fe4ad12490ea906","computer","Desktop or Laptop","Windows 10","Chrome 129.0.0.0","1504x1003","1504x1003",NA,NA,0,"Gambling_GBO",12,"In","EFDGCHBIAJK",NA,"In","MH_OCT","seq2","Gamble_Rand_Seq2","Gamble_Rand_Seq2",1,"winT","gamble","1lb69u",3,"timedOut","",4000.80000004768,3999.99999999999,4000.80000004768,4000.80000004768,3999.99999999999,4000.80000004768,1,4000.80000004768,0,0,NA,"Time Limit","screen",0,"screen","winT","","","",NA,"Right",1.67,0,5,2,NA,"Right",NA,2,NA,NA,NA,NA,5,"MDPRF51568"
"37",1727179573700,"24/09/2024 12:06:13",1727183173700,1,"24/09/2024 14:06:13",187387,9,"task-nt36",NA,40225630,11744030,NA,"complete",NA,"66f2a2e28fe4ad12490ea906","computer","Desktop or Laptop","Windows 10","Chrome 129.0.0.0","1504x1003","1504x1003",NA,NA,0,"Gambling_GBO",12,"In","EFDGCHBIAJK",NA,"In","MH_OCT","seq2","Gamble_Rand_Seq2","Gamble_Rand_Seq2",1,"winT","win","dhtsbv",4,"timedOut","",1000.60000000001,1000,1000.60000000001,1000.60000000001,1000,1000.60000000001,1,1000.60000000001,0,0,NA,"Time Limit","screen",0,"screen","winT","","","",NA,"Right",1.67,0,5,2,NA,"Right",NA,2,NA,NA,NA,NA,5,"MDPRF51568"
"38",1727179573713,"24/09/2024 12:06:13",1727183173713,1,"24/09/2024 14:06:13",187387,9,"task-nt36",NA,40225630,11744030,NA,"complete",NA,"66f2a2e28fe4ad12490ea906","computer","Desktop or Laptop","Windows 10","Chrome 129.0.0.0","1504x1003","1504x1003",NA,NA,0,"Gambling_GBO",12,"In","EFDGCHBIAJK",NA,"In","MH_OCT","seq2","Gamble_Rand_Seq2","Gamble_Rand_Seq2",7,"Rating","Screen 1","hx8b5a",1,"info","",13.2000000238477,0,13.2000000238477,13.2000000238477,0,13.2000000238477,1,13.2000000238477,0,0,NA,"Slider","MoodSlider",2,"object-243","Rating","frustrated","not frustrated","frustrated",3,"",NA,NA,NA,NA,NA,"Right",NA,2,NA,NA,NA,NA,5,"MDPRF51568"
"39",1727179577608,"24/09/2024 12:06:17",1727183177608,1,"24/09/2024 14:06:17",187387,9,"task-nt36",NA,40225630,11744030,NA,"complete",NA,"66f2a2e28fe4ad12490ea906","computer","Desktop or Laptop","Windows 10","Chrome 129.0.0.0","1504x1003","1504x1003",NA,NA,0,"Gambling_GBO",12,"In","EFDGCHBIAJK",NA,"In","MH_OCT","seq2","Gamble_Rand_Seq2","Gamble_Rand_Seq2",7,"Rating","Screen 1","hx8b5a",1,"continue","",3908.40000007153,3900,3908.40000007153,3908.40000007153,3900,3908.40000007153,1,3908.40000007153,0,0,NA,"Click To Continue","Continue Button",3,"object-25","Rating","frustrated","not frustrated","frustrated",3,"",NA,NA,NA,NA,NA,"Right",NA,2,NA,NA,NA,NA,5,"MDPRF51568"
"40",1727179577609,"24/09/2024 12:06:17",1727183177609,1,"24/09/2024 14:06:17",187387,9,"task-nt36",NA,40225630,11744030,NA,"complete",NA,"66f2a2e28fe4ad12490ea906","computer","Desktop or Laptop","Windows 10","Chrome 129.0.0.0","1504x1003","1504x1003",NA,NA,0,"Gambling_GBO",12,"In","EFDGCHBIAJK",NA,"In","MH_OCT","seq2","Gamble_Rand_Seq2","Gamble_Rand_Seq2",7,"Rating","Screen 1","hx8b5a",1,"response","63",3299.90000000001,3900,3909.10000000001,3299.90000000001,3900,3909.10000000001,1,3299.90000000001,609.199999999997,0,NA,"Slider","MoodSlider",2,"object-243","Rating","frustrated","not frustrated","frustrated",3,"",NA,NA,NA,NA,NA,"Right",NA,2,NA,NA,NA,NA,5,"MDPRF51568"
"41",1727179577621,"24/09/2024 12:06:17",1727183177621,1,"24/09/2024 14:06:17",187387,9,"task-nt36",NA,40225630,11744030,NA,"complete",NA,"66f2a2e28fe4ad12490ea906","computer","Desktop or Laptop","Windows 10","Chrome 129.0.0.0","1504x1003","1504x1003",NA,NA,0,"Gambling_GBO",12,"In","EFDGCHBIAJK",NA,"In","MH_OCT","seq2","Gamble_Rand_Seq2","Gamble_Rand_Seq2",8,"Rating","Screen 1","hx8b5a",1,"info","",16.6999999999971,0,16.6999999999971,16.6999999999971,0,16.6999999999971,1,16.6999999999971,0,0,NA,"Slider","MoodSlider",2,"object-243","Rating","happy","unhappy","happy",3,"",NA,NA,NA,NA,NA,"Right",NA,2,NA,NA,NA,NA,5,"MDPRF51568"
"42",1727179579388,"24/09/2024 12:06:19",1727183179388,1,"24/09/2024 14:06:19",187387,9,"task-nt36",NA,40225630,11744030,NA,"complete",NA,"66f2a2e28fe4ad12490ea906","computer","Desktop or Laptop","Windows 10","Chrome 129.0.0.0","1504x1003","1504x1003",NA,NA,0,"Gambling_GBO",12,"In","EFDGCHBIAJK",NA,"In","MH_OCT","seq2","Gamble_Rand_Seq2","Gamble_Rand_Seq2",8,"Rating","Screen 1","hx8b5a",1,"continue","",1788.10000000001,1783.3,1788.10000000001,1788.10000000001,1783.3,1788.10000000001,1,1788.10000000001,0,0,NA,"Click To Continue","Continue Button",3,"object-25","Rating","happy","unhappy","happy",3,"",NA,NA,NA,NA,NA,"Right",NA,2,NA,NA,NA,NA,5,"MDPRF51568"
"43",1727179579393,"24/09/2024 12:06:19",1727183179393,1,"24/09/2024 14:06:19",187387,9,"task-nt36",NA,40225630,11744030,NA,"complete",NA,"66f2a2e28fe4ad12490ea906","computer","Desktop or Laptop","Windows 10","Chrome 129.0.0.0","1504x1003","1504x1003",NA,NA,0,"Gambling_GBO",12,"In","EFDGCHBIAJK",NA,"In","MH_OCT","seq2","Gamble_Rand_Seq2","Gamble_Rand_Seq2",8,"Rating","Screen 1","hx8b5a",1,"response","45",1150,1783.3,1793.10000000001,1150,1783.3,1793.10000000001,1,1150,643.100000000006,0,NA,"Slider","MoodSlider",2,"object-243","Rating","happy","unhappy","happy",3,"",NA,NA,NA,NA,NA,"Right",NA,2,NA,NA,NA,NA,5,"MDPRF51568"
"44",1727179579408,"24/09/2024 12:06:19",1727183179408,1,"24/09/2024 14:06:19",187387,9,"task-nt36",NA,40225630,11744030,NA,"complete",NA,"66f2a2e28fe4ad12490ea906","computer","Desktop or Laptop","Windows 10","Chrome 129.0.0.0","1504x1003","1504x1003",NA,NA,0,"Gambling_GBO",12,"In","EFDGCHBIAJK",NA,"In","MH_OCT","seq2","Gamble_Rand_Seq2","Gamble_Rand_Seq2",9,"Rating","Screen 1","hx8b5a",1,"info","",16.8000000000029,0,16.8000000000029,16.8000000000029,0,16.8000000000029,1,16.8000000000029,0,0,NA,"Slider","MoodSlider",2,"object-243","Rating","bored","not bored","bored",3,"",NA,NA,NA,NA,NA,"Right",NA,2,NA,NA,NA,NA,5,"MDPRF51568"
"45",1727179581000,"24/09/2024 12:06:21",1727183181000,1,"24/09/2024 14:06:21",187387,9,"task-nt36",NA,40225630,11744030,NA,"complete",NA,"66f2a2e28fe4ad12490ea906","computer","Desktop or Laptop","Windows 10","Chrome 129.0.0.0","1504x1003","1504x1003",NA,NA,0,"Gambling_GBO",12,"In","EFDGCHBIAJK",NA,"In","MH_OCT","seq2","Gamble_Rand_Seq2","Gamble_Rand_Seq2",9,"Rating","Screen 1","hx8b5a",1,"continue","",1616.40000002384,1599.90000000001,1616.40000002384,1616.40000002384,1599.90000000001,1616.40000002384,1,1616.40000002384,0,0,NA,"Click To Continue","Continue Button",3,"object-25","Rating","bored","not bored","bored",3,"",NA,NA,NA,NA,NA,"Right",NA,2,NA,NA,NA,NA,5,"MDPRF51568"
"46",1727179581001,"24/09/2024 12:06:21",1727183181001,1,"24/09/2024 14:06:21",187387,9,"task-nt36",NA,40225630,11744030,NA,"complete",NA,"66f2a2e28fe4ad12490ea906","computer","Desktop or Laptop","Windows 10","Chrome 129.0.0.0","1504x1003","1504x1003",NA,NA,0,"Gambling_GBO",12,"In","EFDGCHBIAJK",NA,"In","MH_OCT","seq2","Gamble_Rand_Seq2","Gamble_Rand_Seq2",9,"Rating","Screen 1","hx8b5a",1,"response","70",916.699999999997,1599.90000000001,1616.50000000001,916.699999999997,1599.90000000001,1616.50000000001,1,916.699999999997,699.800000000017,0,NA,"Slider","MoodSlider",2,"object-243","Rating","bored","not bored","bored",3,"",NA,NA,NA,NA,NA,"Right",NA,2,NA,NA,NA,NA,5,"MDPRF51568"
"47",1727179582950,"24/09/2024 12:06:22",1727183182950,1,"24/09/2024 14:06:22",187387,9,"task-nt36",NA,40225630,11744030,NA,"complete",NA,"66f2a2e28fe4ad12490ea906","computer","Desktop or Laptop","Windows 10","Chrome 129.0.0.0","1504x1003","1504x1003",NA,NA,0,"Gambling_GBO",12,"In","EFDGCHBIAJK",NA,"In","MH_OCT","seq2","Gamble_Rand_Seq2","Gamble_Rand_Seq2",2,"lossB","Screen 1","a4fynh",1,"continue","",1966.7,1966.7,1966.7,1966.7,1966.7,1966.7,1,1966.7,0,0,NA,"Fixation Timing","Fixation",1,"object-113","lossB","","","",NA,"Right",0.67,0,2,3,NA,"Right",NA,2,NA,NA,NA,NA,5,"MDPRF51568"
"48",1727179585764,"24/09/2024 12:06:25",1727183185764,1,"24/09/2024 14:06:25",187387,9,"task-nt36",NA,40225630,11744030,NA,"complete",NA,"66f2a2e28fe4ad12490ea906","computer","Desktop or Laptop","Windows 10","Chrome 129.0.0.0","1504x1003","1504x1003",NA,NA,0,"Gambling_GBO",12,"In","EFDGCHBIAJK",NA,"In","MH_OCT","seq2","Gamble_Rand_Seq2","Gamble_Rand_Seq2",2,"lossB","choice","k9qq8f",2,"response","Right",2812.59999997616,2800,2812.59999997616,2812.59999997616,2800,2812.59999997616,1,2812.59999997616,0,0,NA,"Keyboard Response","KeyResponseG",6,"object-200","lossB","","","",NA,"Right",0.67,0,2,3,NA,"Right",NA,2,NA,NA,NA,NA,0,"MDPRF51568"
"49",1727179589750,"24/09/2024 12:06:29",1727183189750,1,"24/09/2024 14:06:29",187387,9,"task-nt36",NA,40225630,11744030,NA,"complete",NA,"66f2a2e28fe4ad12490ea906","computer","Desktop or Laptop","Windows 10","Chrome 129.0.0.0","1504x1003","1504x1003",NA,NA,0,"Gambling_GBO",12,"In","EFDGCHBIAJK",NA,"In","MH_OCT","seq2","Gamble_Rand_Seq2","Gamble_Rand_Seq2",2,"lossB","gamble","tpcid5",3,"timedOut","",4000.59999997616,3999.8,4000.59999997616,4000.59999997616,3999.8,4000.59999997616,1,4000.59999997616,0,0,NA,"Time Limit","screen",0,"screen","lossB","","","",NA,"Right",0.67,0,2,3,NA,"Right",NA,2,NA,NA,NA,NA,0,"MDPRF51568"
"50",1727179590750,"24/09/2024 12:06:30",1727183190750,1,"24/09/2024 14:06:30",187387,9,"task-nt36",NA,40225630,11744030,NA,"complete",NA,"66f2a2e28fe4ad12490ea906","computer","Desktop or Laptop","Windows 10","Chrome 129.0.0.0","1504x1003","1504x1003",NA,NA,0,"Gambling_GBO",12,"In","EFDGCHBIAJK",NA,"In","MH_OCT","seq2","Gamble_Rand_Seq2","Gamble_Rand_Seq2",2,"lossB","loss","2apfzp",4,"timedOut","",1001.00000002384,1000.2,1001.00000002384,1001.00000002384,1000.2,1001.00000002384,1,1001.00000002384,0,0,NA,"Time Limit","screen",0,"screen","lossB","","","",NA,"Right",0.67,0,2,3,NA,"Right",NA,2,NA,NA,NA,NA,0,"MDPRF51568"
"51",1727179590763,"24/09/2024 12:06:30",1727183190763,1,"24/09/2024 14:06:30",187387,9,"task-nt36",NA,40225630,11744030,NA,"complete",NA,"66f2a2e28fe4ad12490ea906","computer","Desktop or Laptop","Windows 10","Chrome 129.0.0.0","1504x1003","1504x1003",NA,NA,0,"Gambling_GBO",12,"In","EFDGCHBIAJK",NA,"In","MH_OCT","seq2","Gamble_Rand_Seq2","Gamble_Rand_Seq2",10,"Rating","Screen 1","hx8b5a",1,"info","",13.9000000476808,0,13.9000000476808,13.9000000476808,0,13.9000000476808,1,13.9000000476808,0,0,NA,"Slider","MoodSlider",2,"object-243","Rating","frustrated","not frustrated","frustrated",4,"",NA,NA,NA,NA,NA,"Right",NA,2,NA,NA,NA,NA,0,"MDPRF51568"
"52",1727179595379,"24/09/2024 12:06:35",1727183195379,1,"24/09/2024 14:06:35",187387,9,"task-nt36",NA,40225630,11744030,NA,"complete",NA,"66f2a2e28fe4ad12490ea906","computer","Desktop or Laptop","Windows 10","Chrome 129.0.0.0","1504x1003","1504x1003",NA,NA,0,"Gambling_GBO",12,"In","EFDGCHBIAJK",NA,"In","MH_OCT","seq2","Gamble_Rand_Seq2","Gamble_Rand_Seq2",10,"Rating","Screen 1","hx8b5a",1,"continue","",4629.09999997616,4616.39999999999,4629.09999997616,4629.09999997616,4616.39999999999,4629.09999997616,1,4629.09999997616,0,0,NA,"Click To Continue","Continue Button",3,"object-25","Rating","frustrated","not frustrated","frustrated",4,"",NA,NA,NA,NA,NA,"Right",NA,2,NA,NA,NA,NA,0,"MDPRF51568"
"53",1727179595379,"24/09/2024 12:06:35",1727183195379,1,"24/09/2024 14:06:35",187387,9,"task-nt36",NA,40225630,11744030,NA,"complete",NA,"66f2a2e28fe4ad12490ea906","computer","Desktop or Laptop","Windows 10","Chrome 129.0.0.0","1504x1003","1504x1003",NA,NA,0,"Gambling_GBO",12,"In","EFDGCHBIAJK",NA,"In","MH_OCT","seq2","Gamble_Rand_Seq2","Gamble_Rand_Seq2",10,"Rating","Screen 1","hx8b5a",1,"response","71",4050,4616.39999999999,4629.90000004768,4050,4616.39999999999,4629.90000004768,1,4050,579.900000047681,0,NA,"Slider","MoodSlider",2,"object-243","Rating","frustrated","not frustrated","frustrated",4,"",NA,NA,NA,NA,NA,"Right",NA,2,NA,NA,NA,NA,0,"MDPRF51568"
"54",1727179595394,"24/09/2024 12:06:35",1727183195394,1,"24/09/2024 14:06:35",187387,9,"task-nt36",NA,40225630,11744030,NA,"complete",NA,"66f2a2e28fe4ad12490ea906","computer","Desktop or Laptop","Windows 10","Chrome 129.0.0.0","1504x1003","1504x1003",NA,NA,0,"Gambling_GBO",12,"In","EFDGCHBIAJK",NA,"In","MH_OCT","seq2","Gamble_Rand_Seq2","Gamble_Rand_Seq2",11,"Rating","Screen 1","hx8b5a",1,"info","",16.5999999999913,0,16.5999999999913,16.5999999999913,0,16.5999999999913,1,16.5999999999913,0,0,NA,"Slider","MoodSlider",2,"object-243","Rating","happy","unhappy","happy",4,"",NA,NA,NA,NA,NA,"Right",NA,2,NA,NA,NA,NA,0,"MDPRF51568"
"55",1727179597332,"24/09/2024 12:06:37",1727183197332,1,"24/09/2024 14:06:37",187387,9,"task-nt36",NA,40225630,11744030,NA,"complete",NA,"66f2a2e28fe4ad12490ea906","computer","Desktop or Laptop","Windows 10","Chrome 129.0.0.0","1504x1003","1504x1003",NA,NA,0,"Gambling_GBO",12,"In","EFDGCHBIAJK",NA,"In","MH_OCT","seq2","Gamble_Rand_Seq2","Gamble_Rand_Seq2",11,"Rating","Screen 1","hx8b5a",1,"continue","",1966.3,1950.2,1966.3,1966.3,1950.2,1966.3,1,1966.3,0,0,NA,"Click To Continue","Continue Button",3,"object-25","Rating","happy","unhappy","happy",4,"",NA,NA,NA,NA,NA,"Right",NA,2,NA,NA,NA,NA,0,"MDPRF51568"
"56",1727179597333,"24/09/2024 12:06:37",1727183197333,1,"24/09/2024 14:06:37",187387,9,"task-nt36",NA,40225630,11744030,NA,"complete",NA,"66f2a2e28fe4ad12490ea906","computer","Desktop or Laptop","Windows 10","Chrome 129.0.0.0","1504x1003","1504x1003",NA,NA,0,"Gambling_GBO",12,"In","EFDGCHBIAJK",NA,"In","MH_OCT","seq2","Gamble_Rand_Seq2","Gamble_Rand_Seq2",11,"Rating","Screen 1","hx8b5a",1,"response","33",1216.60000000001,1950.2,1967.09999999999,1216.60000000001,1950.2,1967.09999999999,1,1216.60000000001,750.499999999985,0,NA,"Slider","MoodSlider",2,"object-243","Rating","happy","unhappy","happy",4,"",NA,NA,NA,NA,NA,"Right",NA,2,NA,NA,NA,NA,0,"MDPRF51568"
"57",1727179597344,"24/09/2024 12:06:37",1727183197344,1,"24/09/2024 14:06:37",187387,9,"task-nt36",NA,40225630,11744030,NA,"complete",NA,"66f2a2e28fe4ad12490ea906","computer","Desktop or Laptop","Windows 10","Chrome 129.0.0.0","1504x1003","1504x1003",NA,NA,0,"Gambling_GBO",12,"In","EFDGCHBIAJK",NA,"In","MH_OCT","seq2","Gamble_Rand_Seq2","Gamble_Rand_Seq2",12,"Rating","Screen 1","hx8b5a",1,"info","",16.8999999999942,0,16.8999999999942,16.8999999999942,0,16.8999999999942,1,16.8999999999942,0,0,NA,"Slider","MoodSlider",2,"object-243","Rating","bored","not bored","bored",4,"",NA,NA,NA,NA,NA,"Right",NA,2,NA,NA,NA,NA,0,"MDPRF51568"
"58",1727179598814,"24/09/2024 12:06:38",1727183198814,1,"24/09/2024 14:06:38",187387,9,"task-nt36",NA,40225630,11744030,NA,"complete",NA,"66f2a2e28fe4ad12490ea906","computer","Desktop or Laptop","Windows 10","Chrome 129.0.0.0","1504x1003","1504x1003",NA,NA,0,"Gambling_GBO",12,"In","EFDGCHBIAJK",NA,"In","MH_OCT","seq2","Gamble_Rand_Seq2","Gamble_Rand_Seq2",12,"Rating","Screen 1","hx8b5a",1,"continue","",1497.80000004769,1483.20000000001,1497.80000004769,1497.80000004769,1483.20000000001,1497.80000004769,1,1497.80000004769,0,0,NA,"Click To Continue","Continue Button",3,"object-25","Rating","bored","not bored","bored",4,"",NA,NA,NA,NA,NA,"Right",NA,2,NA,NA,NA,NA,0,"MDPRF51568"
"59",1727179598815,"24/09/2024 12:06:38",1727183198815,1,"24/09/2024 14:06:38",187387,9,"task-nt36",NA,40225630,11744030,NA,"complete",NA,"66f2a2e28fe4ad12490ea906","computer","Desktop or Laptop","Windows 10","Chrome 129.0.0.0","1504x1003","1504x1003",NA,NA,0,"Gambling_GBO",12,"In","EFDGCHBIAJK",NA,"In","MH_OCT","seq2","Gamble_Rand_Seq2","Gamble_Rand_Seq2",12,"Rating","Screen 1","hx8b5a",1,"response","71",899.800000000003,1483.20000000001,1498.60000000001,899.800000000003,1483.20000000001,1498.60000000001,1,899.800000000003,598.800000000003,0,NA,"Slider","MoodSlider",2,"object-243","Rating","bored","not bored","bored",4,"",NA,NA,NA,NA,NA,"Right",NA,2,NA,NA,NA,NA,0,"MDPRF51568"
"60",1727179600767,"24/09/2024 12:06:40",1727183200767,1,"24/09/2024 14:06:40",187387,9,"task-nt36",NA,40225630,11744030,NA,"complete",NA,"66f2a2e28fe4ad12490ea906","computer","Desktop or Laptop","Windows 10","Chrome 129.0.0.0","1504x1003","1504x1003",NA,NA,0,"Gambling_GBO",12,"In","EFDGCHBIAJK",NA,"In","MH_OCT","seq2","Gamble_Rand_Seq2","Gamble_Rand_Seq2",3,"lossB","Screen 1","a4fynh",1,"continue","",1966.5,1966.5,1966.5,1966.5,1966.5,1966.5,1,1966.5,0,0,NA,"Fixation Timing","Fixation",1,"object-113","lossB","","","",NA,"Right",3.67,3,5,4,NA,"Right",NA,2,NA,NA,NA,NA,0,"MDPRF51568"
"61",1727179603386,"24/09/2024 12:06:43",1727183203386,1,"24/09/2024 14:06:43",187387,9,"task-nt36",NA,40225630,11744030,NA,"complete",NA,"66f2a2e28fe4ad12490ea906","computer","Desktop or Laptop","Windows 10","Chrome 129.0.0.0","1504x1003","1504x1003",NA,NA,0,"Gambling_GBO",12,"In","EFDGCHBIAJK",NA,"In","MH_OCT","seq2","Gamble_Rand_Seq2","Gamble_Rand_Seq2",3,"lossB","choice","k9qq8f",2,"response","Right",2618.89999999999,2616.89999999999,2618.89999999999,2618.89999999999,2616.89999999999,2618.89999999999,1,2618.89999999999,0,0,NA,"Keyboard Response","KeyResponseG",6,"object-200","lossB","","","",NA,"Right",3.67,3,5,4,NA,"Right",NA,5,NA,NA,NA,NA,3,"MDPRF51568"
"62",1727179607383,"24/09/2024 12:06:47",1727183207383,1,"24/09/2024 14:06:47",187387,9,"task-nt36",NA,40225630,11744030,NA,"complete",NA,"66f2a2e28fe4ad12490ea906","computer","Desktop or Laptop","Windows 10","Chrome 129.0.0.0","1504x1003","1504x1003",NA,NA,0,"Gambling_GBO",12,"In","EFDGCHBIAJK",NA,"In","MH_OCT","seq2","Gamble_Rand_Seq2","Gamble_Rand_Seq2",3,"lossB","gamble","tpcid5",3,"timedOut","",4000.70000004768,3999.89999999999,4000.70000004768,4000.70000004768,3999.89999999999,4000.70000004768,1,4000.70000004768,0,0,NA,"Time Limit","screen",0,"screen","lossB","","","",NA,"Right",3.67,3,5,4,NA,"Right",NA,5,NA,NA,NA,NA,3,"MDPRF51568"
"63",1727179608383,"24/09/2024 12:06:48",1727183208383,1,"24/09/2024 14:06:48",187387,9,"task-nt36",NA,40225630,11744030,NA,"complete",NA,"66f2a2e28fe4ad12490ea906","computer","Desktop or Laptop","Windows 10","Chrome 129.0.0.0","1504x1003","1504x1003",NA,NA,0,"Gambling_GBO",12,"In","EFDGCHBIAJK",NA,"In","MH_OCT","seq2","Gamble_Rand_Seq2","Gamble_Rand_Seq2",3,"lossB","loss","2apfzp",4,"timedOut","",1000.80000004769,1000.10000000001,1000.80000004769,1000.80000004769,1000.10000000001,1000.80000004769,1,1000.80000004769,0,0,NA,"Time Limit","screen",0,"screen","lossB","","","",NA,"Right",3.67,3,5,4,NA,"Right",NA,5,NA,NA,NA,NA,3,"MDPRF51568"
"64",1727179608395,"24/09/2024 12:06:48",1727183208395,1,"24/09/2024 14:06:48",187387,9,"task-nt36",NA,40225630,11744030,NA,"complete",NA,"66f2a2e28fe4ad12490ea906","computer","Desktop or Laptop","Windows 10","Chrome 129.0.0.0","1504x1003","1504x1003",NA,NA,0,"Gambling_GBO",12,"In","EFDGCHBIAJK",NA,"In","MH_OCT","seq2","Gamble_Rand_Seq2","Gamble_Rand_Seq2",13,"Rating","Screen 1","hx8b5a",1,"info","",12,0,12,12,0,12,1,12,0,0,NA,"Slider","MoodSlider",2,"object-243","Rating","frustrated","not frustrated","frustrated",5,"",NA,NA,NA,NA,NA,"Right",NA,5,NA,NA,NA,NA,3,"MDPRF51568"
"65",1727179610656,"24/09/2024 12:06:50",1727183210656,1,"24/09/2024 14:06:50",187387,9,"task-nt36",NA,40225630,11744030,NA,"complete",NA,"66f2a2e28fe4ad12490ea906","computer","Desktop or Laptop","Windows 10","Chrome 129.0.0.0","1504x1003","1504x1003",NA,NA,0,"Gambling_GBO",12,"In","EFDGCHBIAJK",NA,"In","MH_OCT","seq2","Gamble_Rand_Seq2","Gamble_Rand_Seq2",13,"Rating","Screen 1","hx8b5a",1,"continue","",2273.39999997616,2266.5,2273.39999997616,2273.39999997616,2266.5,2273.39999997616,1,2273.39999997616,0,0,NA,"Click To Continue","Continue Button",3,"object-25","Rating","frustrated","not frustrated","frustrated",5,"",NA,NA,NA,NA,NA,"Right",NA,5,NA,NA,NA,NA,3,"MDPRF51568"
"66",1727179610657,"24/09/2024 12:06:50",1727183210657,1,"24/09/2024 14:06:50",187387,9,"task-nt36",NA,40225630,11744030,NA,"complete",NA,"66f2a2e28fe4ad12490ea906","computer","Desktop or Laptop","Windows 10","Chrome 129.0.0.0","1504x1003","1504x1003",NA,NA,0,"Gambling_GBO",12,"In","EFDGCHBIAJK",NA,"In","MH_OCT","seq2","Gamble_Rand_Seq2","Gamble_Rand_Seq2",13,"Rating","Screen 1","hx8b5a",1,"response","69",1649.8,2266.5,2274,1649.8,2266.5,2274,1,1649.8,624.199999999997,0,NA,"Slider","MoodSlider",2,"object-243","Rating","frustrated","not frustrated","frustrated",5,"",NA,NA,NA,NA,NA,"Right",NA,5,NA,NA,NA,NA,3,"MDPRF51568"
"67",1727179610669,"24/09/2024 12:06:50",1727183210669,1,"24/09/2024 14:06:50",187387,9,"task-nt36",NA,40225630,11744030,NA,"complete",NA,"66f2a2e28fe4ad12490ea906","computer","Desktop or Laptop","Windows 10","Chrome 129.0.0.0","1504x1003","1504x1003",NA,NA,0,"Gambling_GBO",12,"In","EFDGCHBIAJK",NA,"In","MH_OCT","seq2","Gamble_Rand_Seq2","Gamble_Rand_Seq2",14,"Rating","Screen 1","hx8b5a",1,"info","",16.6000000000058,0,16.6000000000058,16.6000000000058,0,16.6000000000058,1,16.6000000000058,0,0,NA,"Slider","MoodSlider",2,"object-243","Rating","happy","unhappy","happy",5,"",NA,NA,NA,NA,NA,"Right",NA,5,NA,NA,NA,NA,3,"MDPRF51568"
"68",1727179612593,"24/09/2024 12:06:52",1727183212593,1,"24/09/2024 14:06:52",187387,9,"task-nt36",NA,40225630,11744030,NA,"complete",NA,"66f2a2e28fe4ad12490ea906","computer","Desktop or Laptop","Windows 10","Chrome 129.0.0.0","1504x1003","1504x1003",NA,NA,0,"Gambling_GBO",12,"In","EFDGCHBIAJK",NA,"In","MH_OCT","seq2","Gamble_Rand_Seq2","Gamble_Rand_Seq2",14,"Rating","Screen 1","hx8b5a",1,"continue","",1943.70000004768,1933.2,1943.70000004768,1943.70000004768,1933.2,1943.70000004768,1,1943.70000004768,0,0,NA,"Click To Continue","Continue Button",3,"object-25","Rating","happy","unhappy","happy",5,"",NA,NA,NA,NA,NA,"Right",NA,5,NA,NA,NA,NA,3,"MDPRF51568"
"69",1727179612600,"24/09/2024 12:06:52",1727183212600,1,"24/09/2024 14:06:52",187387,9,"task-nt36",NA,40225630,11744030,NA,"complete",NA,"66f2a2e28fe4ad12490ea906","computer","Desktop or Laptop","Windows 10","Chrome 129.0.0.0","1504x1003","1504x1003",NA,NA,0,"Gambling_GBO",12,"In","EFDGCHBIAJK",NA,"In","MH_OCT","seq2","Gamble_Rand_Seq2","Gamble_Rand_Seq2",14,"Rating","Screen 1","hx8b5a",1,"response","44",1216.5,1933.2,1949.89999999999,1216.5,1933.2,1949.89999999999,1,1216.5,733.399999999994,0,NA,"Slider","MoodSlider",2,"object-243","Rating","happy","unhappy","happy",5,"",NA,NA,NA,NA,NA,"Right",NA,5,NA,NA,NA,NA,3,"MDPRF51568"
"70",1727179612618,"24/09/2024 12:06:52",1727183212618,1,"24/09/2024 14:06:52",187387,9,"task-nt36",NA,40225630,11744030,NA,"complete",NA,"66f2a2e28fe4ad12490ea906","computer","Desktop or Laptop","Windows 10","Chrome 129.0.0.0","1504x1003","1504x1003",NA,NA,0,"Gambling_GBO",12,"In","EFDGCHBIAJK",NA,"In","MH_OCT","seq2","Gamble_Rand_Seq2","Gamble_Rand_Seq2",15,"Rating","Screen 1","hx8b5a",1,"info","",16.6999999999971,0,16.6999999999971,16.6999999999971,0,16.6999999999971,1,16.6999999999971,0,0,NA,"Slider","MoodSlider",2,"object-243","Rating","bored","not bored","bored",5,"",NA,NA,NA,NA,NA,"Right",NA,5,NA,NA,NA,NA,3,"MDPRF51568"
"71",1727179614648,"24/09/2024 12:06:54",1727183214648,1,"24/09/2024 14:06:54",187387,9,"task-nt36",NA,40225630,11744030,NA,"complete",NA,"66f2a2e28fe4ad12490ea906","computer","Desktop or Laptop","Windows 10","Chrome 129.0.0.0","1504x1003","1504x1003",NA,NA,0,"Gambling_GBO",12,"In","EFDGCHBIAJK",NA,"In","MH_OCT","seq2","Gamble_Rand_Seq2","Gamble_Rand_Seq2",15,"Rating","Screen 1","hx8b5a",1,"continue","",2065.00000004769,2050.3,2065.00000004769,2065.00000004769,2050.3,2065.00000004769,1,2065.00000004769,0,0,NA,"Click To Continue","Continue Button",3,"object-25","Rating","bored","not bored","bored",5,"",NA,NA,NA,NA,NA,"Right",NA,5,NA,NA,NA,NA,3,"MDPRF51568"
"72",1727179614648,"24/09/2024 12:06:54",1727183214648,1,"24/09/2024 14:06:54",187387,9,"task-nt36",NA,40225630,11744030,NA,"complete",NA,"66f2a2e28fe4ad12490ea906","computer","Desktop or Laptop","Windows 10","Chrome 129.0.0.0","1504x1003","1504x1003",NA,NA,0,"Gambling_GBO",12,"In","EFDGCHBIAJK",NA,"In","MH_OCT","seq2","Gamble_Rand_Seq2","Gamble_Rand_Seq2",15,"Rating","Screen 1","hx8b5a",1,"response","75",1416.8,2050.3,2065.60000007153,1416.8,2050.3,2065.60000007153,1,1416.8,648.800000071526,0,NA,"Slider","MoodSlider",2,"object-243","Rating","bored","not bored","bored",5,"",NA,NA,NA,NA,NA,"Right",NA,5,NA,NA,NA,NA,3,"MDPRF51568"
"73",1727179616600,"24/09/2024 12:06:56",1727183216600,1,"24/09/2024 14:06:56",187387,9,"task-nt36",NA,40225630,11744030,NA,"complete",NA,"66f2a2e28fe4ad12490ea906","computer","Desktop or Laptop","Windows 10","Chrome 129.0.0.0","1504x1003","1504x1003",NA,NA,0,"Gambling_GBO",12,"In","EFDGCHBIAJK",NA,"In","MH_OCT","seq2","Gamble_Rand_Seq2","Gamble_Rand_Seq2",1,"winB","Screen 1","pkkyi8",1,"continue","",1966.5,1966.5,1966.5,1966.5,1966.5,1966.5,1,1966.5,0,0,NA,"Fixation Timing","Fixation",1,"object-246","winB","","","",NA,"Right",2,1,4,5,NA,"Right",NA,5,NA,NA,NA,NA,3,"MDPRF51568"
"74",1727179618503,"24/09/2024 12:06:58",1727183218503,1,"24/09/2024 14:06:58",187387,9,"task-nt36",NA,40225630,11744030,NA,"complete",NA,"66f2a2e28fe4ad12490ea906","computer","Desktop or Laptop","Windows 10","Chrome 129.0.0.0","1504x1003","1504x1003",NA,NA,0,"Gambling_GBO",12,"In","EFDGCHBIAJK",NA,"In","MH_OCT","seq2","Gamble_Rand_Seq2","Gamble_Rand_Seq2",1,"winB","choice","5lszbx",2,"response","Right",1902.30000007153,1900,1902.30000007153,1902.30000007153,1900,1902.30000007153,1,1902.30000007153,0,0,NA,"Keyboard Response","KeyResponseG",6,"object-256","winB","","","",NA,"Right",2,1,4,5,NA,"Right",NA,9,NA,NA,NA,NA,4,"MDPRF51568"
"75",1727179622500,"24/09/2024 12:07:02",1727183222500,1,"24/09/2024 14:07:02",187387,9,"task-nt36",NA,40225630,11744030,NA,"complete",NA,"66f2a2e28fe4ad12490ea906","computer","Desktop or Laptop","Windows 10","Chrome 129.0.0.0","1504x1003","1504x1003",NA,NA,0,"Gambling_GBO",12,"In","EFDGCHBIAJK",NA,"In","MH_OCT","seq2","Gamble_Rand_Seq2","Gamble_Rand_Seq2",1,"winB","gamble","17lgr3",3,"timedOut","",4000.70000004768,3999.89999999999,4000.70000004768,4000.70000004768,3999.89999999999,4000.70000004768,1,4000.70000004768,0,0,NA,"Time Limit","screen",0,"screen","winB","","","",NA,"Right",2,1,4,5,NA,"Right",NA,9,NA,NA,NA,NA,4,"MDPRF51568"
"76",1727179623500,"24/09/2024 12:07:03",1727183223500,1,"24/09/2024 14:07:03",187387,9,"task-nt36",NA,40225630,11744030,NA,"complete",NA,"66f2a2e28fe4ad12490ea906","computer","Desktop or Laptop","Windows 10","Chrome 129.0.0.0","1504x1003","1504x1003",NA,NA,0,"Gambling_GBO",12,"In","EFDGCHBIAJK",NA,"In","MH_OCT","seq2","Gamble_Rand_Seq2","Gamble_Rand_Seq2",1,"winB","win","dzz5jr",4,"timedOut","",1000.90000007153,1000.10000000001,1000.90000007153,1000.90000007153,1000.10000000001,1000.90000007153,1,1000.90000007153,0,0,NA,"Time Limit","screen",0,"screen","winB","","","",NA,"Right",2,1,4,5,NA,"Right",NA,9,NA,NA,NA,NA,4,"MDPRF51568"
"77",1727179623518,"24/09/2024 12:07:03",1727183223518,1,"24/09/2024 14:07:03",187387,9,"task-nt36",NA,40225630,11744030,NA,"complete",NA,"66f2a2e28fe4ad12490ea906","computer","Desktop or Laptop","Windows 10","Chrome 129.0.0.0","1504x1003","1504x1003",NA,NA,0,"Gambling_GBO",12,"In","EFDGCHBIAJK",NA,"In","MH_OCT","seq2","Gamble_Rand_Seq2","Gamble_Rand_Seq2",16,"Rating","Screen 1","hx8b5a",1,"info","",16.6999999999971,0,16.6999999999971,16.6999999999971,0,16.6999999999971,1,16.6999999999971,0,0,NA,"Slider","MoodSlider",2,"object-243","Rating","bored","not bored","bored",6,"",NA,NA,NA,NA,NA,"Right",NA,9,NA,NA,NA,NA,4,"MDPRF51568"
"78",1727179627289,"24/09/2024 12:07:07",1727183227289,1,"24/09/2024 14:07:07",187387,9,"task-nt36",NA,40225630,11744030,NA,"complete",NA,"66f2a2e28fe4ad12490ea906","computer","Desktop or Laptop","Windows 10","Chrome 129.0.0.0","1504x1003","1504x1003",NA,NA,0,"Gambling_GBO",12,"In","EFDGCHBIAJK",NA,"In","MH_OCT","seq2","Gamble_Rand_Seq2","Gamble_Rand_Seq2",16,"Rating","Screen 1","hx8b5a",1,"continue","",3789.70000004768,3783.3,3789.70000004768,3789.70000004768,3783.3,3789.70000004768,1,3789.70000004768,0,0,NA,"Click To Continue","Continue Button",3,"object-25","Rating","bored","not bored","bored",6,"",NA,NA,NA,NA,NA,"Right",NA,9,NA,NA,NA,NA,4,"MDPRF51568"
"79",1727179627289,"24/09/2024 12:07:07",1727183227289,1,"24/09/2024 14:07:07",187387,9,"task-nt36",NA,40225630,11744030,NA,"complete",NA,"66f2a2e28fe4ad12490ea906","computer","Desktop or Laptop","Windows 10","Chrome 129.0.0.0","1504x1003","1504x1003",NA,NA,0,"Gambling_GBO",12,"In","EFDGCHBIAJK",NA,"In","MH_OCT","seq2","Gamble_Rand_Seq2","Gamble_Rand_Seq2",16,"Rating","Screen 1","hx8b5a",1,"response","64",2616.7,3783.3,3790.10000002384,2616.7,3783.3,3790.10000002384,1,2616.7,1173.40000002384,0,NA,"Slider","MoodSlider",2,"object-243","Rating","bored","not bored","bored",6,"",NA,NA,NA,NA,NA,"Right",NA,9,NA,NA,NA,NA,4,"MDPRF51568"
"80",1727179627302,"24/09/2024 12:07:07",1727183227302,1,"24/09/2024 14:07:07",187387,9,"task-nt36",NA,40225630,11744030,NA,"complete",NA,"66f2a2e28fe4ad12490ea906","computer","Desktop or Laptop","Windows 10","Chrome 129.0.0.0","1504x1003","1504x1003",NA,NA,0,"Gambling_GBO",12,"In","EFDGCHBIAJK",NA,"In","MH_OCT","seq2","Gamble_Rand_Seq2","Gamble_Rand_Seq2",17,"Rating","Screen 1","hx8b5a",1,"info","",16.9000000000087,0,16.9000000000087,16.9000000000087,0,16.9000000000087,1,16.9000000000087,0,0,NA,"Slider","MoodSlider",2,"object-243","Rating","frustrated","not frustrated","frustrated",6,"",NA,NA,NA,NA,NA,"Right",NA,9,NA,NA,NA,NA,4,"MDPRF51568"
"81",1727179629142,"24/09/2024 12:07:09",1727183229142,1,"24/09/2024 14:07:09",187387,9,"task-nt36",NA,40225630,11744030,NA,"complete",NA,"66f2a2e28fe4ad12490ea906","computer","Desktop or Laptop","Windows 10","Chrome 129.0.0.0","1504x1003","1504x1003",NA,NA,0,"Gambling_GBO",12,"In","EFDGCHBIAJK",NA,"In","MH_OCT","seq2","Gamble_Rand_Seq2","Gamble_Rand_Seq2",17,"Rating","Screen 1","hx8b5a",1,"continue","",1859.30000002384,1849.8,1859.30000002384,1859.30000002384,1849.8,1859.30000002384,1,1859.30000002384,0,0,NA,"Click To Continue","Continue Button",3,"object-25","Rating","frustrated","not frustrated","frustrated",6,"",NA,NA,NA,NA,NA,"Right",NA,9,NA,NA,NA,NA,4,"MDPRF51568"
"82",1727179629142,"24/09/2024 12:07:09",1727183229142,1,"24/09/2024 14:07:09",187387,9,"task-nt36",NA,40225630,11744030,NA,"complete",NA,"66f2a2e28fe4ad12490ea906","computer","Desktop or Laptop","Windows 10","Chrome 129.0.0.0","1504x1003","1504x1003",NA,NA,0,"Gambling_GBO",12,"In","EFDGCHBIAJK",NA,"In","MH_OCT","seq2","Gamble_Rand_Seq2","Gamble_Rand_Seq2",17,"Rating","Screen 1","hx8b5a",1,"response","62",1266.39999999999,1849.8,1859.90000004768,1266.39999999999,1849.8,1859.90000004768,1,1266.39999999999,593.500000047687,0,NA,"Slider","MoodSlider",2,"object-243","Rating","frustrated","not frustrated","frustrated",6,"",NA,NA,NA,NA,NA,"Right",NA,9,NA,NA,NA,NA,4,"MDPRF51568"
"83",1727179629155,"24/09/2024 12:07:09",1727183229155,1,"24/09/2024 14:07:09",187387,9,"task-nt36",NA,40225630,11744030,NA,"complete",NA,"66f2a2e28fe4ad12490ea906","computer","Desktop or Laptop","Windows 10","Chrome 129.0.0.0","1504x1003","1504x1003",NA,NA,0,"Gambling_GBO",12,"In","EFDGCHBIAJK",NA,"In","MH_OCT","seq2","Gamble_Rand_Seq2","Gamble_Rand_Seq2",18,"Rating","Screen 1","hx8b5a",1,"info","",16.5,0,16.5,16.5,0,16.5,1,16.5,0,0,NA,"Slider","MoodSlider",2,"object-243","Rating","happy","unhappy","happy",6,"",NA,NA,NA,NA,NA,"Right",NA,9,NA,NA,NA,NA,4,"MDPRF51568"
"84",1727179631485,"24/09/2024 12:07:11",1727183231485,1,"24/09/2024 14:07:11",187387,9,"task-nt36",NA,40225630,11744030,NA,"complete",NA,"66f2a2e28fe4ad12490ea906","computer","Desktop or Laptop","Windows 10","Chrome 129.0.0.0","1504x1003","1504x1003",NA,NA,0,"Gambling_GBO",12,"In","EFDGCHBIAJK",NA,"In","MH_OCT","seq2","Gamble_Rand_Seq2","Gamble_Rand_Seq2",18,"Rating","Screen 1","hx8b5a",1,"continue","",2352.39999999999,2349.89999999999,2352.39999999999,2352.39999999999,2349.89999999999,2352.39999999999,1,2352.39999999999,0,0,NA,"Click To Continue","Continue Button",3,"object-25","Rating","happy","unhappy","happy",6,"",NA,NA,NA,NA,NA,"Right",NA,9,NA,NA,NA,NA,4,"MDPRF51568"
"85",1727179631485,"24/09/2024 12:07:11",1727183231485,1,"24/09/2024 14:07:11",187387,9,"task-nt36",NA,40225630,11744030,NA,"complete",NA,"66f2a2e28fe4ad12490ea906","computer","Desktop or Laptop","Windows 10","Chrome 129.0.0.0","1504x1003","1504x1003",NA,NA,0,"Gambling_GBO",12,"In","EFDGCHBIAJK",NA,"In","MH_OCT","seq2","Gamble_Rand_Seq2","Gamble_Rand_Seq2",18,"Rating","Screen 1","hx8b5a",1,"response","41",1033.29999999999,2349.89999999999,2353.00000002384,1033.29999999999,2349.89999999999,2353.00000002384,1,1033.29999999999,1319.70000002385,0,NA,"Slider","MoodSlider",2,"object-243","Rating","happy","unhappy","happy",6,"",NA,NA,NA,NA,NA,"Right",NA,9,NA,NA,NA,NA,4,"MDPRF51568"
"86",1727179633450,"24/09/2024 12:07:13",1727183233450,1,"24/09/2024 14:07:13",187387,9,"task-nt36",NA,40225630,11744030,NA,"complete",NA,"66f2a2e28fe4ad12490ea906","computer","Desktop or Laptop","Windows 10","Chrome 129.0.0.0","1504x1003","1504x1003",NA,NA,0,"Gambling_GBO",12,"In","EFDGCHBIAJK",NA,"In","MH_OCT","seq2","Gamble_Rand_Seq2","Gamble_Rand_Seq2",2,"winT","Screen 1","np5pnj",1,"continue","",1966.8,1966.8,1966.8,1966.8,1966.8,1966.8,1,1966.8,0,0,NA,"Fixation Timing","Fixation",1,"object-304","winT","","","",NA,"Right",-0.67,-1,0,6,NA,"Right",NA,9,NA,NA,NA,NA,4,"MDPRF51568"
"87",1727179636146,"24/09/2024 12:07:16",1727183236146,1,"24/09/2024 14:07:16",187387,9,"task-nt36",NA,40225630,11744030,NA,"complete",NA,"66f2a2e28fe4ad12490ea906","computer","Desktop or Laptop","Windows 10","Chrome 129.0.0.0","1504x1003","1504x1003",NA,NA,0,"Gambling_GBO",12,"In","EFDGCHBIAJK",NA,"In","MH_OCT","seq2","Gamble_Rand_Seq2","Gamble_Rand_Seq2",2,"winT","choice","gu8zgx",2,"response","Right",2695.80000002384,2683.3,2695.80000002384,2695.80000002384,2683.3,2695.80000002384,1,2695.80000002384,0,0,NA,"Keyboard Response","KeyResponseG",6,"object-326","winT","","","",NA,"Right",-0.67,-1,0,6,NA,"Right",NA,9,NA,NA,NA,NA,0,"MDPRF51568"
"88",1727179640133,"24/09/2024 12:07:20",1727183240133,1,"24/09/2024 14:07:20",187387,9,"task-nt36",NA,40225630,11744030,NA,"complete",NA,"66f2a2e28fe4ad12490ea906","computer","Desktop or Laptop","Windows 10","Chrome 129.0.0.0","1504x1003","1504x1003",NA,NA,0,"Gambling_GBO",12,"In","EFDGCHBIAJK",NA,"In","MH_OCT","seq2","Gamble_Rand_Seq2","Gamble_Rand_Seq2",2,"winT","gamble","1lb69u",3,"timedOut","",4000.79999997615,4000,4000.79999997615,4000.79999997615,4000,4000.79999997615,1,4000.79999997615,0,0,NA,"Time Limit","screen",0,"screen","winT","","","",NA,"Right",-0.67,-1,0,6,NA,"Right",NA,9,NA,NA,NA,NA,0,"MDPRF51568"
"89",1727179641133,"24/09/2024 12:07:21",1727183241133,1,"24/09/2024 14:07:21",187387,9,"task-nt36",NA,40225630,11744030,NA,"complete",NA,"66f2a2e28fe4ad12490ea906","computer","Desktop or Laptop","Windows 10","Chrome 129.0.0.0","1504x1003","1504x1003",NA,NA,0,"Gambling_GBO",12,"In","EFDGCHBIAJK",NA,"In","MH_OCT","seq2","Gamble_Rand_Seq2","Gamble_Rand_Seq2",2,"winT","win","dhtsbv",4,"timedOut","",1000.79999997615,1000,1000.79999997615,1000.79999997615,1000,1000.79999997615,1,1000.79999997615,0,0,NA,"Time Limit","screen",0,"screen","winT","","","",NA,"Right",-0.67,-1,0,6,NA,"Right",NA,9,NA,NA,NA,NA,0,"MDPRF51568"
"90",1727179641143,"24/09/2024 12:07:21",1727183241143,1,"24/09/2024 14:07:21",187387,9,"task-nt36",NA,40225630,11744030,NA,"complete",NA,"66f2a2e28fe4ad12490ea906","computer","Desktop or Laptop","Windows 10","Chrome 129.0.0.0","1504x1003","1504x1003",NA,NA,0,"Gambling_GBO",12,"In","EFDGCHBIAJK",NA,"In","MH_OCT","seq2","Gamble_Rand_Seq2","Gamble_Rand_Seq2",19,"Rating","Screen 1","hx8b5a",1,"info","",10.500000023836,0,10.500000023836,10.500000023836,0,10.500000023836,1,10.500000023836,0,0,NA,"Slider","MoodSlider",2,"object-243","Rating","frustrated","not frustrated","frustrated",7,"",NA,NA,NA,NA,NA,"Right",NA,9,NA,NA,NA,NA,0,"MDPRF51568"
"91",1727179645359,"24/09/2024 12:07:25",1727183245359,1,"24/09/2024 14:07:25",187387,9,"task-nt36",NA,40225630,11744030,NA,"complete",NA,"66f2a2e28fe4ad12490ea906","computer","Desktop or Laptop","Windows 10","Chrome 129.0.0.0","1504x1003","1504x1003",NA,NA,0,"Gambling_GBO",12,"In","EFDGCHBIAJK",NA,"In","MH_OCT","seq2","Gamble_Rand_Seq2","Gamble_Rand_Seq2",19,"Rating","Screen 1","hx8b5a",1,"continue","",4226.50000002384,4216.39999999999,4226.50000002384,4226.50000002384,4216.39999999999,4226.50000002384,1,4226.50000002384,0,0,NA,"Click To Continue","Continue Button",3,"object-25","Rating","frustrated","not frustrated","frustrated",7,"",NA,NA,NA,NA,NA,"Right",NA,9,NA,NA,NA,NA,0,"MDPRF51568"
"92",1727179645359,"24/09/2024 12:07:25",1727183245359,1,"24/09/2024 14:07:25",187387,9,"task-nt36",NA,40225630,11744030,NA,"complete",NA,"66f2a2e28fe4ad12490ea906","computer","Desktop or Laptop","Windows 10","Chrome 129.0.0.0","1504x1003","1504x1003",NA,NA,0,"Gambling_GBO",12,"In","EFDGCHBIAJK",NA,"In","MH_OCT","seq2","Gamble_Rand_Seq2","Gamble_Rand_Seq2",19,"Rating","Screen 1","hx8b5a",1,"response","63",2883.39999999999,4216.39999999999,4226.89999999999,2883.39999999999,4216.39999999999,4226.89999999999,1,2883.39999999999,1343.5,0,NA,"Slider","MoodSlider",2,"object-243","Rating","frustrated","not frustrated","frustrated",7,"",NA,NA,NA,NA,NA,"Right",NA,9,NA,NA,NA,NA,0,"MDPRF51568"
"93",1727179645371,"24/09/2024 12:07:25",1727183245371,1,"24/09/2024 14:07:25",187387,9,"task-nt36",NA,40225630,11744030,NA,"complete",NA,"66f2a2e28fe4ad12490ea906","computer","Desktop or Laptop","Windows 10","Chrome 129.0.0.0","1504x1003","1504x1003",NA,NA,0,"Gambling_GBO",12,"In","EFDGCHBIAJK",NA,"In","MH_OCT","seq2","Gamble_Rand_Seq2","Gamble_Rand_Seq2",20,"Rating","Screen 1","hx8b5a",1,"info","",16.5,0,16.5,16.5,0,16.5,1,16.5,0,0,NA,"Slider","MoodSlider",2,"object-243","Rating","bored","not bored","bored",7,"",NA,NA,NA,NA,NA,"Right",NA,9,NA,NA,NA,NA,0,"MDPRF51568"
"94",1727179647517,"24/09/2024 12:07:27",1727183247517,1,"24/09/2024 14:07:27",187387,9,"task-nt36",NA,40225630,11744030,NA,"complete",NA,"66f2a2e28fe4ad12490ea906","computer","Desktop or Laptop","Windows 10","Chrome 129.0.0.0","1504x1003","1504x1003",NA,NA,0,"Gambling_GBO",12,"In","EFDGCHBIAJK",NA,"In","MH_OCT","seq2","Gamble_Rand_Seq2","Gamble_Rand_Seq2",20,"Rating","Screen 1","hx8b5a",1,"continue","",2166.39999999999,2150,2166.39999999999,2166.39999999999,2150,2166.39999999999,1,2166.39999999999,0,0,NA,"Click To Continue","Continue Button",3,"object-25","Rating","bored","not bored","bored",7,"",NA,NA,NA,NA,NA,"Right",NA,9,NA,NA,NA,NA,0,"MDPRF51568"
"95",1727179647522,"24/09/2024 12:07:27",1727183247522,1,"24/09/2024 14:07:27",187387,9,"task-nt36",NA,40225630,11744030,NA,"complete",NA,"66f2a2e28fe4ad12490ea906","computer","Desktop or Laptop","Windows 10","Chrome 129.0.0.0","1504x1003","1504x1003",NA,NA,0,"Gambling_GBO",12,"In","EFDGCHBIAJK",NA,"In","MH_OCT","seq2","Gamble_Rand_Seq2","Gamble_Rand_Seq2",20,"Rating","Screen 1","hx8b5a",1,"response","65",1633.5,2150,2166.39999999999,1633.5,2150,2166.39999999999,1,1633.5,532.899999999994,0,NA,"Slider","MoodSlider",2,"object-243","Rating","bored","not bored","bored",7,"",NA,NA,NA,NA,NA,"Right",NA,9,NA,NA,NA,NA,0,"MDPRF51568"
"96",1727179647535,"24/09/2024 12:07:27",1727183247535,1,"24/09/2024 14:07:27",187387,9,"task-nt36",NA,40225630,11744030,NA,"complete",NA,"66f2a2e28fe4ad12490ea906","computer","Desktop or Laptop","Windows 10","Chrome 129.0.0.0","1504x1003","1504x1003",NA,NA,0,"Gambling_GBO",12,"In","EFDGCHBIAJK",NA,"In","MH_OCT","seq2","Gamble_Rand_Seq2","Gamble_Rand_Seq2",21,"Rating","Screen 1","hx8b5a",1,"info","",16.3999999999942,0,16.3999999999942,16.3999999999942,0,16.3999999999942,1,16.3999999999942,0,0,NA,"Slider","MoodSlider",2,"object-243","Rating","happy","unhappy","happy",7,"",NA,NA,NA,NA,NA,"Right",NA,9,NA,NA,NA,NA,0,"MDPRF51568"
"97",1727179649705,"24/09/2024 12:07:29",1727183249705,1,"24/09/2024 14:07:29",187387,9,"task-nt36",NA,40225630,11744030,NA,"complete",NA,"66f2a2e28fe4ad12490ea906","computer","Desktop or Laptop","Windows 10","Chrome 129.0.0.0","1504x1003","1504x1003",NA,NA,0,"Gambling_GBO",12,"In","EFDGCHBIAJK",NA,"In","MH_OCT","seq2","Gamble_Rand_Seq2","Gamble_Rand_Seq2",21,"Rating","Screen 1","hx8b5a",1,"continue","",2205.80000007153,2200,2205.80000007153,2205.80000007153,2200,2205.80000007153,1,2205.80000007153,0,0,NA,"Click To Continue","Continue Button",3,"object-25","Rating","happy","unhappy","happy",7,"",NA,NA,NA,NA,NA,"Right",NA,9,NA,NA,NA,NA,0,"MDPRF51568"
"98",1727179649705,"24/09/2024 12:07:29",1727183249705,1,"24/09/2024 14:07:29",187387,9,"task-nt36",NA,40225630,11744030,NA,"complete",NA,"66f2a2e28fe4ad12490ea906","computer","Desktop or Laptop","Windows 10","Chrome 129.0.0.0","1504x1003","1504x1003",NA,NA,0,"Gambling_GBO",12,"In","EFDGCHBIAJK",NA,"In","MH_OCT","seq2","Gamble_Rand_Seq2","Gamble_Rand_Seq2",21,"Rating","Screen 1","hx8b5a",1,"response","37",1350,2200,2206.30000007153,1350,2200,2206.30000007153,1,1350,856.300000071526,0,NA,"Slider","MoodSlider",2,"object-243","Rating","happy","unhappy","happy",7,"",NA,NA,NA,NA,NA,"Right",NA,9,NA,NA,NA,NA,0,"MDPRF51568"
"99",1727179651666,"24/09/2024 12:07:31",1727183251666,1,"24/09/2024 14:07:31",187387,9,"task-nt36",NA,40225630,11744030,NA,"complete",NA,"66f2a2e28fe4ad12490ea906","computer","Desktop or Laptop","Windows 10","Chrome 129.0.0.0","1504x1003","1504x1003",NA,NA,0,"Gambling_GBO",12,"In","EFDGCHBIAJK",NA,"In","MH_OCT","seq2","Gamble_Rand_Seq2","Gamble_Rand_Seq2",4,"lossB","Screen 1","a4fynh",1,"continue","",1966.79999999999,1966.79999999999,1966.79999999999,1966.79999999999,1966.79999999999,1966.79999999999,1,1966.79999999999,0,0,NA,"Fixation Timing","Fixation",1,"object-113","lossB","","","",NA,"Right",-1.67,-2,-1,7,NA,"Right",NA,9,NA,NA,NA,NA,0,"MDPRF51568"
"100",1727179654462,"24/09/2024 12:07:34",1727183254462,1,"24/09/2024 14:07:34",187387,9,"task-nt36",NA,40225630,11744030,NA,"complete",NA,"66f2a2e28fe4ad12490ea906","computer","Desktop or Laptop","Windows 10","Chrome 129.0.0.0","1504x1003","1504x1003",NA,NA,0,"Gambling_GBO",12,"In","EFDGCHBIAJK",NA,"In","MH_OCT","seq2","Gamble_Rand_Seq2","Gamble_Rand_Seq2",4,"lossB","choice","k9qq8f",2,"response","Right",2795.20000000001,2783.40000000002,2795.20000000001,2795.20000000001,2783.40000000002,2795.20000000001,1,2795.20000000001,0,0,NA,"Keyboard Response","KeyResponseG",6,"object-200","lossB","","","",NA,"Right",-1.67,-2,-1,7,NA,"Right",NA,7,NA,NA,NA,NA,-2,"MDPRF51568"
"101",1727179658450,"24/09/2024 12:07:38",1727183258450,1,"24/09/2024 14:07:38",187387,9,"task-nt36",NA,40225630,11744030,NA,"complete",NA,"66f2a2e28fe4ad12490ea906","computer","Desktop or Laptop","Windows 10","Chrome 129.0.0.0","1504x1003","1504x1003",NA,NA,0,"Gambling_GBO",12,"In","EFDGCHBIAJK",NA,"In","MH_OCT","seq2","Gamble_Rand_Seq2","Gamble_Rand_Seq2",4,"lossB","gamble","tpcid5",3,"timedOut","",4000.60000007151,3999.89999999999,4000.60000007151,4000.60000007151,3999.89999999999,4000.60000007151,1,4000.60000007151,0,0,NA,"Time Limit","screen",0,"screen","lossB","","","",NA,"Right",-1.67,-2,-1,7,NA,"Right",NA,7,NA,NA,NA,NA,-2,"MDPRF51568"
"102",1727179659450,"24/09/2024 12:07:39",1727183259450,1,"24/09/2024 14:07:39",187387,9,"task-nt36",NA,40225630,11744030,NA,"complete",NA,"66f2a2e28fe4ad12490ea906","computer","Desktop or Laptop","Windows 10","Chrome 129.0.0.0","1504x1003","1504x1003",NA,NA,0,"Gambling_GBO",12,"In","EFDGCHBIAJK",NA,"In","MH_OCT","seq2","Gamble_Rand_Seq2","Gamble_Rand_Seq2",4,"lossB","loss","2apfzp",4,"timedOut","",1000.70000007152,999.899999999994,1000.70000007152,1000.70000007152,999.899999999994,1000.70000007152,1,1000.70000007152,0,0,NA,"Time Limit","screen",0,"screen","lossB","","","",NA,"Right",-1.67,-2,-1,7,NA,"Right",NA,7,NA,NA,NA,NA,-2,"MDPRF51568"
"103",1727179659459,"24/09/2024 12:07:39",1727183259459,1,"24/09/2024 14:07:39",187387,9,"task-nt36",NA,40225630,11744030,NA,"complete",NA,"66f2a2e28fe4ad12490ea906","computer","Desktop or Laptop","Windows 10","Chrome 129.0.0.0","1504x1003","1504x1003",NA,NA,0,"Gambling_GBO",12,"In","EFDGCHBIAJK",NA,"In","MH_OCT","seq2","Gamble_Rand_Seq2","Gamble_Rand_Seq2",22,"Rating","Screen 1","hx8b5a",1,"info","",10.5,0,10.5,10.5,0,10.5,1,10.5,0,0,NA,"Slider","MoodSlider",2,"object-243","Rating","frustrated","not frustrated","frustrated",8,"",NA,NA,NA,NA,NA,"Right",NA,7,NA,NA,NA,NA,-2,"MDPRF51568"
"104",1727179662128,"24/09/2024 12:07:42",1727183262128,1,"24/09/2024 14:07:42",187387,9,"task-nt36",NA,40225630,11744030,NA,"complete",NA,"66f2a2e28fe4ad12490ea906","computer","Desktop or Laptop","Windows 10","Chrome 129.0.0.0","1504x1003","1504x1003",NA,NA,0,"Gambling_GBO",12,"In","EFDGCHBIAJK",NA,"In","MH_OCT","seq2","Gamble_Rand_Seq2","Gamble_Rand_Seq2",22,"Rating","Screen 1","hx8b5a",1,"continue","",2679.5,2666.79999999999,2679.5,2679.5,2666.79999999999,2679.5,1,2679.5,0,0,NA,"Click To Continue","Continue Button",3,"object-25","Rating","frustrated","not frustrated","frustrated",8,"",NA,NA,NA,NA,NA,"Right",NA,7,NA,NA,NA,NA,-2,"MDPRF51568"
"105",1727179662129,"24/09/2024 12:07:42",1727183262129,1,"24/09/2024 14:07:42",187387,9,"task-nt36",NA,40225630,11744030,NA,"complete",NA,"66f2a2e28fe4ad12490ea906","computer","Desktop or Laptop","Windows 10","Chrome 129.0.0.0","1504x1003","1504x1003",NA,NA,0,"Gambling_GBO",12,"In","EFDGCHBIAJK",NA,"In","MH_OCT","seq2","Gamble_Rand_Seq2","Gamble_Rand_Seq2",22,"Rating","Screen 1","hx8b5a",1,"response","72",1933.5,2666.79999999999,2680.10000002384,1933.5,2666.79999999999,2680.10000002384,1,1933.5,746.600000023842,0,NA,"Slider","MoodSlider",2,"object-243","Rating","frustrated","not frustrated","frustrated",8,"",NA,NA,NA,NA,NA,"Right",NA,7,NA,NA,NA,NA,-2,"MDPRF51568"
"106",1727179662141,"24/09/2024 12:07:42",1727183262141,1,"24/09/2024 14:07:42",187387,9,"task-nt36",NA,40225630,11744030,NA,"complete",NA,"66f2a2e28fe4ad12490ea906","computer","Desktop or Laptop","Windows 10","Chrome 129.0.0.0","1504x1003","1504x1003",NA,NA,0,"Gambling_GBO",12,"In","EFDGCHBIAJK",NA,"In","MH_OCT","seq2","Gamble_Rand_Seq2","Gamble_Rand_Seq2",23,"Rating","Screen 1","hx8b5a",1,"info","",16.8999999999942,0,16.8999999999942,16.8999999999942,0,16.8999999999942,1,16.8999999999942,0,0,NA,"Slider","MoodSlider",2,"object-243","Rating","happy","unhappy","happy",8,"",NA,NA,NA,NA,NA,"Right",NA,7,NA,NA,NA,NA,-2,"MDPRF51568"
"107",1727179663905,"24/09/2024 12:07:43",1727183263905,1,"24/09/2024 14:07:43",187387,9,"task-nt36",NA,40225630,11744030,NA,"complete",NA,"66f2a2e28fe4ad12490ea906","computer","Desktop or Laptop","Windows 10","Chrome 129.0.0.0","1504x1003","1504x1003",NA,NA,0,"Gambling_GBO",12,"In","EFDGCHBIAJK",NA,"In","MH_OCT","seq2","Gamble_Rand_Seq2","Gamble_Rand_Seq2",23,"Rating","Screen 1","hx8b5a",1,"continue","",1789.59999997617,1783.20000000001,1789.59999997617,1789.59999997617,1783.20000000001,1789.59999997617,1,1789.59999997617,0,0,NA,"Click To Continue","Continue Button",3,"object-25","Rating","happy","unhappy","happy",8,"",NA,NA,NA,NA,NA,"Right",NA,7,NA,NA,NA,NA,-2,"MDPRF51568"
"108",1727179663906,"24/09/2024 12:07:43",1727183263906,1,"24/09/2024 14:07:43",187387,9,"task-nt36",NA,40225630,11744030,NA,"complete",NA,"66f2a2e28fe4ad12490ea906","computer","Desktop or Laptop","Windows 10","Chrome 129.0.0.0","1504x1003","1504x1003",NA,NA,0,"Gambling_GBO",12,"In","EFDGCHBIAJK",NA,"In","MH_OCT","seq2","Gamble_Rand_Seq2","Gamble_Rand_Seq2",23,"Rating","Screen 1","hx8b5a",1,"response","38",1183.20000000001,1783.20000000001,1790.4000000477,1183.20000000001,1783.20000000001,1790.4000000477,1,1183.20000000001,607.200000047684,0,NA,"Slider","MoodSlider",2,"object-243","Rating","happy","unhappy","happy",8,"",NA,NA,NA,NA,NA,"Right",NA,7,NA,NA,NA,NA,-2,"MDPRF51568"
"109",1727179663918,"24/09/2024 12:07:43",1727183263918,1,"24/09/2024 14:07:43",187387,9,"task-nt36",NA,40225630,11744030,NA,"complete",NA,"66f2a2e28fe4ad12490ea906","computer","Desktop or Laptop","Windows 10","Chrome 129.0.0.0","1504x1003","1504x1003",NA,NA,0,"Gambling_GBO",12,"In","EFDGCHBIAJK",NA,"In","MH_OCT","seq2","Gamble_Rand_Seq2","Gamble_Rand_Seq2",24,"Rating","Screen 1","hx8b5a",1,"info","",16.7000000000116,0,16.7000000000116,16.7000000000116,0,16.7000000000116,1,16.7000000000116,0,0,NA,"Slider","MoodSlider",2,"object-243","Rating","bored","not bored","bored",8,"",NA,NA,NA,NA,NA,"Right",NA,7,NA,NA,NA,NA,-2,"MDPRF51568"
"110",1727179665814,"24/09/2024 12:07:45",1727183265814,1,"24/09/2024 14:07:45",187387,9,"task-nt36",NA,40225630,11744030,NA,"complete",NA,"66f2a2e28fe4ad12490ea906","computer","Desktop or Laptop","Windows 10","Chrome 129.0.0.0","1504x1003","1504x1003",NA,NA,0,"Gambling_GBO",12,"In","EFDGCHBIAJK",NA,"In","MH_OCT","seq2","Gamble_Rand_Seq2","Gamble_Rand_Seq2",24,"Rating","Screen 1","hx8b5a",1,"continue","",1914.80000007153,1899.89999999999,1914.80000007153,1914.80000007153,1899.89999999999,1914.80000007153,1,1914.80000007153,0,0,NA,"Click To Continue","Continue Button",3,"object-25","Rating","bored","not bored","bored",8,"",NA,NA,NA,NA,NA,"Right",NA,7,NA,NA,NA,NA,-2,"MDPRF51568"
"111",1727179665814,"24/09/2024 12:07:45",1727183265814,1,"24/09/2024 14:07:45",187387,9,"task-nt36",NA,40225630,11744030,NA,"complete",NA,"66f2a2e28fe4ad12490ea906","computer","Desktop or Laptop","Windows 10","Chrome 129.0.0.0","1504x1003","1504x1003",NA,NA,0,"Gambling_GBO",12,"In","EFDGCHBIAJK",NA,"In","MH_OCT","seq2","Gamble_Rand_Seq2","Gamble_Rand_Seq2",24,"Rating","Screen 1","hx8b5a",1,"response","68",1199.79999999999,1899.89999999999,1915.70000004768,1199.79999999999,1899.89999999999,1915.70000004768,1,1199.79999999999,715.900000047695,0,NA,"Slider","MoodSlider",2,"object-243","Rating","bored","not bored","bored",8,"",NA,NA,NA,NA,NA,"Right",NA,7,NA,NA,NA,NA,-2,"MDPRF51568"
"112",1727179667766,"24/09/2024 12:07:47",1727183267766,1,"24/09/2024 14:07:47",187387,9,"task-nt36",NA,40225630,11744030,NA,"complete",NA,"66f2a2e28fe4ad12490ea906","computer","Desktop or Laptop","Windows 10","Chrome 129.0.0.0","1504x1003","1504x1003",NA,NA,0,"Gambling_GBO",12,"In","EFDGCHBIAJK",NA,"In","MH_OCT","seq2","Gamble_Rand_Seq2","Gamble_Rand_Seq2",1,"lossT","Screen 1","2oxi65",1,"continue","",1966.70000000001,1966.70000000001,1966.70000000001,1966.70000000001,1966.70000000001,1966.70000000001,1,1966.70000000001,0,0,NA,"Fixation Timing","Fixation",1,"object-354","lossT","","","",NA,"Right",0.67,0,2,8,NA,"Right",NA,7,NA,NA,NA,NA,-2,"MDPRF51568"
"113",1727179669028,"24/09/2024 12:07:49",1727183269028,1,"24/09/2024 14:07:49",187387,9,"task-nt36",NA,40225630,11744030,NA,"complete",NA,"66f2a2e28fe4ad12490ea906","computer","Desktop or Laptop","Windows 10","Chrome 129.0.0.0","1504x1003","1504x1003",NA,NA,0,"Gambling_GBO",12,"In","EFDGCHBIAJK",NA,"In","MH_OCT","seq2","Gamble_Rand_Seq2","Gamble_Rand_Seq2",1,"lossT","choice","zjftf8",2,"response","Right",1262.00000002384,1250,1262.00000002384,1262.00000002384,1250,1262.00000002384,1,1262.00000002384,0,0,NA,"Keyboard Response","KeyResponseG",6,"object-352","lossT","","","",NA,"Right",0.67,0,2,8,NA,"Right",NA,7,NA,NA,NA,NA,0,"MDPRF51568"
"114",1727179673016,"24/09/2024 12:07:53",1727183273016,1,"24/09/2024 14:07:53",187387,9,"task-nt36",NA,40225630,11744030,NA,"complete",NA,"66f2a2e28fe4ad12490ea906","computer","Desktop or Laptop","Windows 10","Chrome 129.0.0.0","1504x1003","1504x1003",NA,NA,0,"Gambling_GBO",12,"In","EFDGCHBIAJK",NA,"In","MH_OCT","seq2","Gamble_Rand_Seq2","Gamble_Rand_Seq2",1,"lossT","gamble","h5bf9r",3,"timedOut","",4001.10000004768,4000.29999999999,4001.10000004768,4001.10000004768,4000.29999999999,4001.10000004768,1,4001.10000004768,0,0,NA,"Time Limit","screen",0,"screen","lossT","","","",NA,"Right",0.67,0,2,8,NA,"Right",NA,7,NA,NA,NA,NA,0,"MDPRF51568"
"115",1727179674016,"24/09/2024 12:07:54",1727183274016,1,"24/09/2024 14:07:54",187387,9,"task-nt36",NA,40225630,11744030,NA,"complete",NA,"66f2a2e28fe4ad12490ea906","computer","Desktop or Laptop","Windows 10","Chrome 129.0.0.0","1504x1003","1504x1003",NA,NA,0,"Gambling_GBO",12,"In","EFDGCHBIAJK",NA,"In","MH_OCT","seq2","Gamble_Rand_Seq2","Gamble_Rand_Seq2",1,"lossT","loss","kmnw8b",4,"timedOut","",1000.40000007153,999.700000000012,1000.40000007153,1000.40000007153,999.700000000012,1000.40000007153,1,1000.40000007153,0,0,NA,"Time Limit","screen",0,"screen","lossT","","","",NA,"Right",0.67,0,2,8,NA,"Right",NA,7,NA,NA,NA,NA,0,"MDPRF51568"
"116",1727179674027,"24/09/2024 12:07:54",1727183274027,1,"24/09/2024 14:07:54",187387,9,"task-nt36",NA,40225630,11744030,NA,"complete",NA,"66f2a2e28fe4ad12490ea906","computer","Desktop or Laptop","Windows 10","Chrome 129.0.0.0","1504x1003","1504x1003",NA,NA,0,"Gambling_GBO",12,"In","EFDGCHBIAJK",NA,"In","MH_OCT","seq2","Gamble_Rand_Seq2","Gamble_Rand_Seq2",25,"Rating","Screen 1","hx8b5a",1,"info","",11.2999999761523,0,11.2999999761523,11.2999999761523,0,11.2999999761523,1,11.2999999761523,0,0,NA,"Slider","MoodSlider",2,"object-243","Rating","frustrated","not frustrated","frustrated",9,"",NA,NA,NA,NA,NA,"Right",NA,7,NA,NA,NA,NA,0,"MDPRF51568"
"117",1727179677399,"24/09/2024 12:07:57",1727183277399,1,"24/09/2024 14:07:57",187387,9,"task-nt36",NA,40225630,11744030,NA,"complete",NA,"66f2a2e28fe4ad12490ea906","computer","Desktop or Laptop","Windows 10","Chrome 129.0.0.0","1504x1003","1504x1003",NA,NA,0,"Gambling_GBO",12,"In","EFDGCHBIAJK",NA,"In","MH_OCT","seq2","Gamble_Rand_Seq2","Gamble_Rand_Seq2",25,"Rating","Screen 1","hx8b5a",1,"continue","",3383.00000002384,3366.60000000001,3383.00000002384,3383.00000002384,3366.60000000001,3383.00000002384,1,3383.00000002384,0,0,NA,"Click To Continue","Continue Button",3,"object-25","Rating","frustrated","not frustrated","frustrated",9,"",NA,NA,NA,NA,NA,"Right",NA,7,NA,NA,NA,NA,0,"MDPRF51568"
"118",1727179677399,"24/09/2024 12:07:57",1727183277399,1,"24/09/2024 14:07:57",187387,9,"task-nt36",NA,40225630,11744030,NA,"complete",NA,"66f2a2e28fe4ad12490ea906","computer","Desktop or Laptop","Windows 10","Chrome 129.0.0.0","1504x1003","1504x1003",NA,NA,0,"Gambling_GBO",12,"In","EFDGCHBIAJK",NA,"In","MH_OCT","seq2","Gamble_Rand_Seq2","Gamble_Rand_Seq2",25,"Rating","Screen 1","hx8b5a",1,"response","59",2166.5,3366.60000000001,3383.30000000002,2166.5,3366.60000000001,3383.30000000002,1,2166.5,1216.80000000002,0,NA,"Slider","MoodSlider",2,"object-243","Rating","frustrated","not frustrated","frustrated",9,"",NA,NA,NA,NA,NA,"Right",NA,7,NA,NA,NA,NA,0,"MDPRF51568"
"119",1727179677409,"24/09/2024 12:07:57",1727183277409,1,"24/09/2024 14:07:57",187387,9,"task-nt36",NA,40225630,11744030,NA,"complete",NA,"66f2a2e28fe4ad12490ea906","computer","Desktop or Laptop","Windows 10","Chrome 129.0.0.0","1504x1003","1504x1003",NA,NA,0,"Gambling_GBO",12,"In","EFDGCHBIAJK",NA,"In","MH_OCT","seq2","Gamble_Rand_Seq2","Gamble_Rand_Seq2",26,"Rating","Screen 1","hx8b5a",1,"info","",16.7000000000116,0,16.7000000000116,16.7000000000116,0,16.7000000000116,1,16.7000000000116,0,0,NA,"Slider","MoodSlider",2,"object-243","Rating","bored","not bored","bored",9,"",NA,NA,NA,NA,NA,"Right",NA,7,NA,NA,NA,NA,0,"MDPRF51568"
"120",1727179679596,"24/09/2024 12:07:59",1727183279596,1,"24/09/2024 14:07:59",187387,9,"task-nt36",NA,40225630,11744030,NA,"complete",NA,"66f2a2e28fe4ad12490ea906","computer","Desktop or Laptop","Windows 10","Chrome 129.0.0.0","1504x1003","1504x1003",NA,NA,0,"Gambling_GBO",12,"In","EFDGCHBIAJK",NA,"In","MH_OCT","seq2","Gamble_Rand_Seq2","Gamble_Rand_Seq2",26,"Rating","Screen 1","hx8b5a",1,"continue","",2214.40000002383,2199.89999999999,2214.40000002383,2214.40000002383,2199.89999999999,2214.40000002383,1,2214.40000002383,0,0,NA,"Click To Continue","Continue Button",3,"object-25","Rating","bored","not bored","bored",9,"",NA,NA,NA,NA,NA,"Right",NA,7,NA,NA,NA,NA,0,"MDPRF51568"
"121",1727179679601,"24/09/2024 12:07:59",1727183279601,1,"24/09/2024 14:07:59",187387,9,"task-nt36",NA,40225630,11744030,NA,"complete",NA,"66f2a2e28fe4ad12490ea906","computer","Desktop or Laptop","Windows 10","Chrome 129.0.0.0","1504x1003","1504x1003",NA,NA,0,"Gambling_GBO",12,"In","EFDGCHBIAJK",NA,"In","MH_OCT","seq2","Gamble_Rand_Seq2","Gamble_Rand_Seq2",26,"Rating","Screen 1","hx8b5a",1,"response","58",1516.59999999998,2199.89999999999,2216.70000000001,1516.59999999998,2199.89999999999,2216.70000000001,1,1516.59999999998,700.100000000035,0,NA,"Slider","MoodSlider",2,"object-243","Rating","bored","not bored","bored",9,"",NA,NA,NA,NA,NA,"Right",NA,7,NA,NA,NA,NA,0,"MDPRF51568"
"122",1727179679613,"24/09/2024 12:07:59",1727183279613,1,"24/09/2024 14:07:59",187387,9,"task-nt36",NA,40225630,11744030,NA,"complete",NA,"66f2a2e28fe4ad12490ea906","computer","Desktop or Laptop","Windows 10","Chrome 129.0.0.0","1504x1003","1504x1003",NA,NA,0,"Gambling_GBO",12,"In","EFDGCHBIAJK",NA,"In","MH_OCT","seq2","Gamble_Rand_Seq2","Gamble_Rand_Seq2",27,"Rating","Screen 1","hx8b5a",1,"info","",16.8000000000175,0,16.8000000000175,16.8000000000175,0,16.8000000000175,1,16.8000000000175,0,0,NA,"Slider","MoodSlider",2,"object-243","Rating","happy","unhappy","happy",9,"",NA,NA,NA,NA,NA,"Right",NA,7,NA,NA,NA,NA,0,"MDPRF51568"
"123",1727179682118,"24/09/2024 12:08:02",1727183282118,1,"24/09/2024 14:08:02",187387,9,"task-nt36",NA,40225630,11744030,NA,"complete",NA,"66f2a2e28fe4ad12490ea906","computer","Desktop or Laptop","Windows 10","Chrome 129.0.0.0","1504x1003","1504x1003",NA,NA,0,"Gambling_GBO",12,"In","EFDGCHBIAJK",NA,"In","MH_OCT","seq2","Gamble_Rand_Seq2","Gamble_Rand_Seq2",27,"Rating","Screen 1","hx8b5a",1,"continue","",2536.00000002384,2533.19999999998,2536.00000002384,2536.00000002384,2533.19999999998,2536.00000002384,1,2536.00000002384,0,0,NA,"Click To Continue","Continue Button",3,"object-25","Rating","happy","unhappy","happy",9,"",NA,NA,NA,NA,NA,"Right",NA,7,NA,NA,NA,NA,0,"MDPRF51568"
"124",1727179682118,"24/09/2024 12:08:02",1727183282118,1,"24/09/2024 14:08:02",187387,9,"task-nt36",NA,40225630,11744030,NA,"complete",NA,"66f2a2e28fe4ad12490ea906","computer","Desktop or Laptop","Windows 10","Chrome 129.0.0.0","1504x1003","1504x1003",NA,NA,0,"Gambling_GBO",12,"In","EFDGCHBIAJK",NA,"In","MH_OCT","seq2","Gamble_Rand_Seq2","Gamble_Rand_Seq2",27,"Rating","Screen 1","hx8b5a",1,"response","40",1716.69999999998,2533.19999999998,2536.50000002384,1716.69999999998,2533.19999999998,2536.50000002384,1,1716.69999999998,819.800000023853,0,NA,"Slider","MoodSlider",2,"object-243","Rating","happy","unhappy","happy",9,"",NA,NA,NA,NA,NA,"Right",NA,7,NA,NA,NA,NA,0,"MDPRF51568"
"125",1727179684083,"24/09/2024 12:08:04",1727183284083,1,"24/09/2024 14:08:04",187387,9,"task-nt36",NA,40225630,11744030,NA,"complete",NA,"66f2a2e28fe4ad12490ea906","computer","Desktop or Laptop","Windows 10","Chrome 129.0.0.0","1504x1003","1504x1003",NA,NA,0,"Gambling_GBO",12,"In","EFDGCHBIAJK",NA,"In","MH_OCT","seq2","Gamble_Rand_Seq2","Gamble_Rand_Seq2",2,"lossT","Screen 1","2oxi65",1,"continue","",1966.90000000002,1966.90000000002,1966.90000000002,1966.90000000002,1966.90000000002,1966.90000000002,1,1966.90000000002,0,0,NA,"Fixation Timing","Fixation",1,"object-354","lossT","","","",NA,"Right",-1,-2,1,9,NA,"Right",NA,7,NA,NA,NA,NA,0,"MDPRF51568"
"126",1727179686552,"24/09/2024 12:08:06",1727183286552,1,"24/09/2024 14:08:06",187387,9,"task-nt36",NA,40225630,11744030,NA,"complete",NA,"66f2a2e28fe4ad12490ea906","computer","Desktop or Laptop","Windows 10","Chrome 129.0.0.0","1504x1003","1504x1003",NA,NA,0,"Gambling_GBO",12,"In","EFDGCHBIAJK",NA,"In","MH_OCT","seq2","Gamble_Rand_Seq2","Gamble_Rand_Seq2",2,"lossT","choice","zjftf8",2,"response","Right",2469.29999999999,2466.59999999998,2469.29999999999,2469.29999999999,2466.59999999998,2469.29999999999,1,2469.29999999999,0,0,NA,"Keyboard Response","KeyResponseG",6,"object-352","lossT","","","",NA,"Right",-1,-2,1,9,NA,"Right",NA,5,NA,NA,NA,NA,-2,"MDPRF51568"
"127",1727179690549,"24/09/2024 12:08:10",1727183290549,1,"24/09/2024 14:08:10",187387,9,"task-nt36",NA,40225630,11744030,NA,"complete",NA,"66f2a2e28fe4ad12490ea906","computer","Desktop or Laptop","Windows 10","Chrome 129.0.0.0","1504x1003","1504x1003",NA,NA,0,"Gambling_GBO",12,"In","EFDGCHBIAJK",NA,"In","MH_OCT","seq2","Gamble_Rand_Seq2","Gamble_Rand_Seq2",2,"lossT","gamble","h5bf9r",3,"timedOut","",4000.70000000001,4000,4000.70000000001,4000.70000000001,4000,4000.70000000001,1,4000.70000000001,0,0,NA,"Time Limit","screen",0,"screen","lossT","","","",NA,"Right",-1,-2,1,9,NA,"Right",NA,5,NA,NA,NA,NA,-2,"MDPRF51568"
"128",1727179691549,"24/09/2024 12:08:11",1727183291549,1,"24/09/2024 14:08:11",187387,9,"task-nt36",NA,40225630,11744030,NA,"complete",NA,"66f2a2e28fe4ad12490ea906","computer","Desktop or Laptop","Windows 10","Chrome 129.0.0.0","1504x1003","1504x1003",NA,NA,0,"Gambling_GBO",12,"In","EFDGCHBIAJK",NA,"In","MH_OCT","seq2","Gamble_Rand_Seq2","Gamble_Rand_Seq2",2,"lossT","loss","kmnw8b",4,"timedOut","",1000.30000002385,999.800000000018,1000.30000002385,1000.30000002385,999.800000000018,1000.30000002385,1,1000.30000002385,0,0,NA,"Time Limit","screen",0,"screen","lossT","","","",NA,"Right",-1,-2,1,9,NA,"Right",NA,5,NA,NA,NA,NA,-2,"MDPRF51568"
"129",1727179691561,"24/09/2024 12:08:11",1727183291561,1,"24/09/2024 14:08:11",187387,9,"task-nt36",NA,40225630,11744030,NA,"complete",NA,"66f2a2e28fe4ad12490ea906","computer","Desktop or Laptop","Windows 10","Chrome 129.0.0.0","1504x1003","1504x1003",NA,NA,0,"Gambling_GBO",12,"In","EFDGCHBIAJK",NA,"In","MH_OCT","seq2","Gamble_Rand_Seq2","Gamble_Rand_Seq2",28,"Rating","Screen 1","hx8b5a",1,"info","",13.1000000476779,0,13.1000000476779,13.1000000476779,0,13.1000000476779,1,13.1000000476779,0,0,NA,"Slider","MoodSlider",2,"object-243","Rating","happy","unhappy","happy",10,"",NA,NA,NA,NA,NA,"Right",NA,5,NA,NA,NA,NA,-2,"MDPRF51568"
"130",1727179693668,"24/09/2024 12:08:13",1727183293668,1,"24/09/2024 14:08:13",187387,9,"task-nt36",NA,40225630,11744030,NA,"complete",NA,"66f2a2e28fe4ad12490ea906","computer","Desktop or Laptop","Windows 10","Chrome 129.0.0.0","1504x1003","1504x1003",NA,NA,0,"Gambling_GBO",12,"In","EFDGCHBIAJK",NA,"In","MH_OCT","seq2","Gamble_Rand_Seq2","Gamble_Rand_Seq2",28,"Rating","Screen 1","hx8b5a",1,"continue","",2119.79999997615,2116.69999999998,2119.79999997615,2119.79999997615,2116.69999999998,2119.79999997615,1,2119.79999997615,0,0,NA,"Click To Continue","Continue Button",3,"object-25","Rating","happy","unhappy","happy",10,"",NA,NA,NA,NA,NA,"Right",NA,5,NA,NA,NA,NA,-2,"MDPRF51568"
"131",1727179693669,"24/09/2024 12:08:13",1727183293669,1,"24/09/2024 14:08:13",187387,9,"task-nt36",NA,40225630,11744030,NA,"complete",NA,"66f2a2e28fe4ad12490ea906","computer","Desktop or Laptop","Windows 10","Chrome 129.0.0.0","1504x1003","1504x1003",NA,NA,0,"Gambling_GBO",12,"In","EFDGCHBIAJK",NA,"In","MH_OCT","seq2","Gamble_Rand_Seq2","Gamble_Rand_Seq2",28,"Rating","Screen 1","hx8b5a",1,"response","38",1450.10000000001,2116.69999999998,2120.39999999999,1450.10000000001,2116.69999999998,2120.39999999999,1,1450.10000000001,670.299999999988,0,NA,"Slider","MoodSlider",2,"object-243","Rating","happy","unhappy","happy",10,"",NA,NA,NA,NA,NA,"Right",NA,5,NA,NA,NA,NA,-2,"MDPRF51568"
"132",1727179693680,"24/09/2024 12:08:13",1727183293680,1,"24/09/2024 14:08:13",187387,9,"task-nt36",NA,40225630,11744030,NA,"complete",NA,"66f2a2e28fe4ad12490ea906","computer","Desktop or Laptop","Windows 10","Chrome 129.0.0.0","1504x1003","1504x1003",NA,NA,0,"Gambling_GBO",12,"In","EFDGCHBIAJK",NA,"In","MH_OCT","seq2","Gamble_Rand_Seq2","Gamble_Rand_Seq2",29,"Rating","Screen 1","hx8b5a",1,"info","",14.5999999761698,0,14.5999999761698,14.5999999761698,0,14.5999999761698,1,14.5999999761698,0,0,NA,"Slider","MoodSlider",2,"object-243","Rating","frustrated","not frustrated","frustrated",10,"",NA,NA,NA,NA,NA,"Right",NA,5,NA,NA,NA,NA,-2,"MDPRF51568"
"133",1727179695238,"24/09/2024 12:08:15",1727183295238,1,"24/09/2024 14:08:15",187387,9,"task-nt36",NA,40225630,11744030,NA,"complete",NA,"66f2a2e28fe4ad12490ea906","computer","Desktop or Laptop","Windows 10","Chrome 129.0.0.0","1504x1003","1504x1003",NA,NA,0,"Gambling_GBO",12,"In","EFDGCHBIAJK",NA,"In","MH_OCT","seq2","Gamble_Rand_Seq2","Gamble_Rand_Seq2",29,"Rating","Screen 1","hx8b5a",1,"continue","",1572.9000000477,1566.70000000001,1572.9000000477,1572.9000000477,1566.70000000001,1572.9000000477,1,1572.9000000477,0,0,NA,"Click To Continue","Continue Button",3,"object-25","Rating","frustrated","not frustrated","frustrated",10,"",NA,NA,NA,NA,NA,"Right",NA,5,NA,NA,NA,NA,-2,"MDPRF51568"
"134",1727179695239,"24/09/2024 12:08:15",1727183295239,1,"24/09/2024 14:08:15",187387,9,"task-nt36",NA,40225630,11744030,NA,"complete",NA,"66f2a2e28fe4ad12490ea906","computer","Desktop or Laptop","Windows 10","Chrome 129.0.0.0","1504x1003","1504x1003",NA,NA,0,"Gambling_GBO",12,"In","EFDGCHBIAJK",NA,"In","MH_OCT","seq2","Gamble_Rand_Seq2","Gamble_Rand_Seq2",29,"Rating","Screen 1","hx8b5a",1,"response","74",983.5,1566.70000000001,1573.9000000477,983.5,1566.70000000001,1573.9000000477,1,983.5,590.400000047695,0,NA,"Slider","MoodSlider",2,"object-243","Rating","frustrated","not frustrated","frustrated",10,"",NA,NA,NA,NA,NA,"Right",NA,5,NA,NA,NA,NA,-2,"MDPRF51568"
"135",1727179695254,"24/09/2024 12:08:15",1727183295254,1,"24/09/2024 14:08:15",187387,9,"task-nt36",NA,40225630,11744030,NA,"complete",NA,"66f2a2e28fe4ad12490ea906","computer","Desktop or Laptop","Windows 10","Chrome 129.0.0.0","1504x1003","1504x1003",NA,NA,0,"Gambling_GBO",12,"In","EFDGCHBIAJK",NA,"In","MH_OCT","seq2","Gamble_Rand_Seq2","Gamble_Rand_Seq2",30,"Rating","Screen 1","hx8b5a",1,"info","",16.7000000000116,0,16.7000000000116,16.7000000000116,0,16.7000000000116,1,16.7000000000116,0,0,NA,"Slider","MoodSlider",2,"object-243","Rating","bored","not bored","bored",10,"",NA,NA,NA,NA,NA,"Right",NA,5,NA,NA,NA,NA,-2,"MDPRF51568"
"136",1727179697102,"24/09/2024 12:08:17",1727183297102,1,"24/09/2024 14:08:17",187387,9,"task-nt36",NA,40225630,11744030,NA,"complete",NA,"66f2a2e28fe4ad12490ea906","computer","Desktop or Laptop","Windows 10","Chrome 129.0.0.0","1504x1003","1504x1003",NA,NA,0,"Gambling_GBO",12,"In","EFDGCHBIAJK",NA,"In","MH_OCT","seq2","Gamble_Rand_Seq2","Gamble_Rand_Seq2",30,"Rating","Screen 1","hx8b5a",1,"continue","",1870,1866.5,1870,1870,1866.5,1870,1,1870,0,0,NA,"Click To Continue","Continue Button",3,"object-25","Rating","bored","not bored","bored",10,"",NA,NA,NA,NA,NA,"Right",NA,5,NA,NA,NA,NA,-2,"MDPRF51568"
"137",1727179697103,"24/09/2024 12:08:17",1727183297103,1,"24/09/2024 14:08:17",187387,9,"task-nt36",NA,40225630,11744030,NA,"complete",NA,"66f2a2e28fe4ad12490ea906","computer","Desktop or Laptop","Windows 10","Chrome 129.0.0.0","1504x1003","1504x1003",NA,NA,0,"Gambling_GBO",12,"In","EFDGCHBIAJK",NA,"In","MH_OCT","seq2","Gamble_Rand_Seq2","Gamble_Rand_Seq2",30,"Rating","Screen 1","hx8b5a",1,"response","60",1233.39999999999,1866.5,1871.30000007153,1233.39999999999,1866.5,1871.30000007153,1,1233.39999999999,637.900000071531,0,NA,"Slider","MoodSlider",2,"object-243","Rating","bored","not bored","bored",10,"",NA,NA,NA,NA,NA,"Right",NA,5,NA,NA,NA,NA,-2,"MDPRF51568"
"138",1727179699066,"24/09/2024 12:08:19",1727183299066,1,"24/09/2024 14:08:19",187387,9,"task-nt36",NA,40225630,11744030,NA,"complete",NA,"66f2a2e28fe4ad12490ea906","computer","Desktop or Laptop","Windows 10","Chrome 129.0.0.0","1504x1003","1504x1003",NA,NA,0,"Gambling_GBO",12,"In","EFDGCHBIAJK",NA,"In","MH_OCT","seq2","Gamble_Rand_Seq2","Gamble_Rand_Seq2",3,"winT","Screen 1","np5pnj",1,"continue","",1966.79999999999,1966.79999999999,1966.79999999999,1966.79999999999,1966.79999999999,1966.79999999999,1,1966.79999999999,0,0,NA,"Fixation Timing","Fixation",1,"object-304","winT","","","",NA,"Right",-3.33,-4,-2,10,NA,"Right",NA,5,NA,NA,NA,NA,-2,"MDPRF51568"
"139",1727179701885,"24/09/2024 12:08:21",1727183301885,1,"24/09/2024 14:08:21",187387,9,"task-nt36",NA,40225630,11744030,NA,"complete",NA,"66f2a2e28fe4ad12490ea906","computer","Desktop or Laptop","Windows 10","Chrome 129.0.0.0","1504x1003","1504x1003",NA,NA,0,"Gambling_GBO",12,"In","EFDGCHBIAJK",NA,"In","MH_OCT","seq2","Gamble_Rand_Seq2","Gamble_Rand_Seq2",3,"winT","choice","gu8zgx",2,"response","Right",2819.20000000001,2816.70000000001,2819.20000000001,2819.20000000001,2816.70000000001,2819.20000000001,1,2819.20000000001,0,0,NA,"Keyboard Response","KeyResponseG",6,"object-326","winT","","","",NA,"Right",-3.33,-4,-2,10,NA,"Right",NA,3,NA,NA,NA,NA,-2,"MDPRF51568"
"140",1727179705882,"24/09/2024 12:08:25",1727183305882,1,"24/09/2024 14:08:25",187387,9,"task-nt36",NA,40225630,11744030,NA,"complete",NA,"66f2a2e28fe4ad12490ea906","computer","Desktop or Laptop","Windows 10","Chrome 129.0.0.0","1504x1003","1504x1003",NA,NA,0,"Gambling_GBO",12,"In","EFDGCHBIAJK",NA,"In","MH_OCT","seq2","Gamble_Rand_Seq2","Gamble_Rand_Seq2",3,"winT","gamble","1lb69u",3,"timedOut","",4000.70000004768,3999.89999999999,4000.70000004768,4000.70000004768,3999.89999999999,4000.70000004768,1,4000.70000004768,0,0,NA,"Time Limit","screen",0,"screen","winT","","","",NA,"Right",-3.33,-4,-2,10,NA,"Right",NA,3,NA,NA,NA,NA,-2,"MDPRF51568"
"141",1727179706883,"24/09/2024 12:08:26",1727183306883,1,"24/09/2024 14:08:26",187387,9,"task-nt36",NA,40225630,11744030,NA,"complete",NA,"66f2a2e28fe4ad12490ea906","computer","Desktop or Laptop","Windows 10","Chrome 129.0.0.0","1504x1003","1504x1003",NA,NA,0,"Gambling_GBO",12,"In","EFDGCHBIAJK",NA,"In","MH_OCT","seq2","Gamble_Rand_Seq2","Gamble_Rand_Seq2",3,"winT","win","dhtsbv",4,"timedOut","",1001.10000000001,1000.39999999999,1001.10000000001,1001.10000000001,1000.39999999999,1001.10000000001,1,1001.10000000001,0,0,NA,"Time Limit","screen",0,"screen","winT","","","",NA,"Right",-3.33,-4,-2,10,NA,"Right",NA,3,NA,NA,NA,NA,-2,"MDPRF51568"
"142",1727179706894,"24/09/2024 12:08:26",1727183306894,1,"24/09/2024 14:08:26",187387,9,"task-nt36",NA,40225630,11744030,NA,"complete",NA,"66f2a2e28fe4ad12490ea906","computer","Desktop or Laptop","Windows 10","Chrome 129.0.0.0","1504x1003","1504x1003",NA,NA,0,"Gambling_GBO",12,"In","EFDGCHBIAJK",NA,"In","MH_OCT","seq2","Gamble_Rand_Seq2","Gamble_Rand_Seq2",31,"Rating","Screen 1","hx8b5a",1,"info","",12.0000000715372,0,12.0000000715372,12.0000000715372,0,12.0000000715372,1,12.0000000715372,0,0,NA,"Slider","MoodSlider",2,"object-243","Rating","happy","unhappy","happy",11,"",NA,NA,NA,NA,NA,"Right",NA,3,NA,NA,NA,NA,-2,"MDPRF51568"
"143",1727179710022,"24/09/2024 12:08:30",1727183310022,1,"24/09/2024 14:08:30",187387,9,"task-nt36",NA,40225630,11744030,NA,"complete",NA,"66f2a2e28fe4ad12490ea906","computer","Desktop or Laptop","Windows 10","Chrome 129.0.0.0","1504x1003","1504x1003",NA,NA,0,"Gambling_GBO",12,"In","EFDGCHBIAJK",NA,"In","MH_OCT","seq2","Gamble_Rand_Seq2","Gamble_Rand_Seq2",31,"Rating","Screen 1","hx8b5a",1,"continue","",3139.70000000001,3133.10000000001,3139.70000000001,3139.70000000001,3133.10000000001,3139.70000000001,1,3139.70000000001,0,0,NA,"Click To Continue","Continue Button",3,"object-25","Rating","happy","unhappy","happy",11,"",NA,NA,NA,NA,NA,"Right",NA,3,NA,NA,NA,NA,-2,"MDPRF51568"
"144",1727179710022,"24/09/2024 12:08:30",1727183310022,1,"24/09/2024 14:08:30",187387,9,"task-nt36",NA,40225630,11744030,NA,"complete",NA,"66f2a2e28fe4ad12490ea906","computer","Desktop or Laptop","Windows 10","Chrome 129.0.0.0","1504x1003","1504x1003",NA,NA,0,"Gambling_GBO",12,"In","EFDGCHBIAJK",NA,"In","MH_OCT","seq2","Gamble_Rand_Seq2","Gamble_Rand_Seq2",31,"Rating","Screen 1","hx8b5a",1,"response","35",2349.70000000001,3133.10000000001,3140.30000002385,2349.70000000001,3133.10000000001,3140.30000002385,1,2349.70000000001,790.600000023842,0,NA,"Slider","MoodSlider",2,"object-243","Rating","happy","unhappy","happy",11,"",NA,NA,NA,NA,NA,"Right",NA,3,NA,NA,NA,NA,-2,"MDPRF51568"
"145",1727179710033,"24/09/2024 12:08:30",1727183310033,1,"24/09/2024 14:08:30",187387,9,"task-nt36",NA,40225630,11744030,NA,"complete",NA,"66f2a2e28fe4ad12490ea906","computer","Desktop or Laptop","Windows 10","Chrome 129.0.0.0","1504x1003","1504x1003",NA,NA,0,"Gambling_GBO",12,"In","EFDGCHBIAJK",NA,"In","MH_OCT","seq2","Gamble_Rand_Seq2","Gamble_Rand_Seq2",32,"Rating","Screen 1","hx8b5a",1,"info","",16.8999999999942,0,16.8999999999942,16.8999999999942,0,16.8999999999942,1,16.8999999999942,0,0,NA,"Slider","MoodSlider",2,"object-243","Rating","bored","not bored","bored",11,"",NA,NA,NA,NA,NA,"Right",NA,3,NA,NA,NA,NA,-2,"MDPRF51568"
"146",1727179711617,"24/09/2024 12:08:31",1727183311617,1,"24/09/2024 14:08:31",187387,9,"task-nt36",NA,40225630,11744030,NA,"complete",NA,"66f2a2e28fe4ad12490ea906","computer","Desktop or Laptop","Windows 10","Chrome 129.0.0.0","1504x1003","1504x1003",NA,NA,0,"Gambling_GBO",12,"In","EFDGCHBIAJK",NA,"In","MH_OCT","seq2","Gamble_Rand_Seq2","Gamble_Rand_Seq2",32,"Rating","Screen 1","hx8b5a",1,"continue","",1601.60000000001,1599.60000000001,1601.60000000001,1601.60000000001,1599.60000000001,1601.60000000001,1,1601.60000000001,0,0,NA,"Click To Continue","Continue Button",3,"object-25","Rating","bored","not bored","bored",11,"",NA,NA,NA,NA,NA,"Right",NA,3,NA,NA,NA,NA,-2,"MDPRF51568"
"147",1727179711617,"24/09/2024 12:08:31",1727183311617,1,"24/09/2024 14:08:31",187387,9,"task-nt36",NA,40225630,11744030,NA,"complete",NA,"66f2a2e28fe4ad12490ea906","computer","Desktop or Laptop","Windows 10","Chrome 129.0.0.0","1504x1003","1504x1003",NA,NA,0,"Gambling_GBO",12,"In","EFDGCHBIAJK",NA,"In","MH_OCT","seq2","Gamble_Rand_Seq2","Gamble_Rand_Seq2",32,"Rating","Screen 1","hx8b5a",1,"response","72",933.300000000018,1599.60000000001,1602.10000000001,933.300000000018,1599.60000000001,1602.10000000001,1,933.300000000018,668.799999999988,0,NA,"Slider","MoodSlider",2,"object-243","Rating","bored","not bored","bored",11,"",NA,NA,NA,NA,NA,"Right",NA,3,NA,NA,NA,NA,-2,"MDPRF51568"
"148",1727179711627,"24/09/2024 12:08:31",1727183311627,1,"24/09/2024 14:08:31",187387,9,"task-nt36",NA,40225630,11744030,NA,"complete",NA,"66f2a2e28fe4ad12490ea906","computer","Desktop or Laptop","Windows 10","Chrome 129.0.0.0","1504x1003","1504x1003",NA,NA,0,"Gambling_GBO",12,"In","EFDGCHBIAJK",NA,"In","MH_OCT","seq2","Gamble_Rand_Seq2","Gamble_Rand_Seq2",33,"Rating","Screen 1","hx8b5a",1,"info","",11.8999999761581,0,11.8999999761581,11.8999999761581,0,11.8999999761581,1,11.8999999761581,0,0,NA,"Slider","MoodSlider",2,"object-243","Rating","frustrated","not frustrated","frustrated",11,"",NA,NA,NA,NA,NA,"Right",NA,3,NA,NA,NA,NA,-2,"MDPRF51568"
"149",1727179713654,"24/09/2024 12:08:33",1727183313654,1,"24/09/2024 14:08:33",187387,9,"task-nt36",NA,40225630,11744030,NA,"complete",NA,"66f2a2e28fe4ad12490ea906","computer","Desktop or Laptop","Windows 10","Chrome 129.0.0.0","1504x1003","1504x1003",NA,NA,0,"Gambling_GBO",12,"In","EFDGCHBIAJK",NA,"In","MH_OCT","seq2","Gamble_Rand_Seq2","Gamble_Rand_Seq2",33,"Rating","Screen 1","hx8b5a",1,"continue","",2039.10000002384,2033.60000000001,2039.10000002384,2039.10000002384,2033.60000000001,2039.10000002384,1,2039.10000002384,0,0,NA,"Click To Continue","Continue Button",3,"object-25","Rating","frustrated","not frustrated","frustrated",11,"",NA,NA,NA,NA,NA,"Right",NA,3,NA,NA,NA,NA,-2,"MDPRF51568"
"150",1727179713661,"24/09/2024 12:08:33",1727183313661,1,"24/09/2024 14:08:33",187387,9,"task-nt36",NA,40225630,11744030,NA,"complete",NA,"66f2a2e28fe4ad12490ea906","computer","Desktop or Laptop","Windows 10","Chrome 129.0.0.0","1504x1003","1504x1003",NA,NA,0,"Gambling_GBO",12,"In","EFDGCHBIAJK",NA,"In","MH_OCT","seq2","Gamble_Rand_Seq2","Gamble_Rand_Seq2",33,"Rating","Screen 1","hx8b5a",1,"response","71",1316.89999999999,2033.60000000001,2046,1316.89999999999,2033.60000000001,2046,1,1316.89999999999,729.100000000006,0,NA,"Slider","MoodSlider",2,"object-243","Rating","frustrated","not frustrated","frustrated",11,"",NA,NA,NA,NA,NA,"Right",NA,3,NA,NA,NA,NA,-2,"MDPRF51568"
"151",1727179715616,"24/09/2024 12:08:35",1727183315616,1,"24/09/2024 14:08:35",187387,9,"task-nt36",NA,40225630,11744030,NA,"complete",NA,"66f2a2e28fe4ad12490ea906","computer","Desktop or Laptop","Windows 10","Chrome 129.0.0.0","1504x1003","1504x1003",NA,NA,0,"Gambling_GBO",12,"In","EFDGCHBIAJK",NA,"In","MH_OCT","seq2","Gamble_Rand_Seq2","Gamble_Rand_Seq2",2,"winB","Screen 1","pkkyi8",1,"continue","",1966.60000000001,1966.60000000001,1966.60000000001,1966.60000000001,1966.60000000001,1966.60000000001,1,1966.60000000001,0,0,NA,"Fixation Timing","Fixation",1,"object-246","winB","","","",NA,"Right",3.33,3,4,11,NA,"Right",NA,3,NA,NA,NA,NA,-2,"MDPRF51568"
"152",1727179716512,"24/09/2024 12:08:36",1727183316512,1,"24/09/2024 14:08:36",187387,9,"task-nt36",NA,40225630,11744030,NA,"complete",NA,"66f2a2e28fe4ad12490ea906","computer","Desktop or Laptop","Windows 10","Chrome 129.0.0.0","1504x1003","1504x1003",NA,NA,0,"Gambling_GBO",12,"In","EFDGCHBIAJK",NA,"In","MH_OCT","seq2","Gamble_Rand_Seq2","Gamble_Rand_Seq2",2,"winB","choice","5lszbx",2,"response","Right",895.699999976147,883.299999999988,895.699999976147,895.699999976147,883.299999999988,895.699999976147,1,895.699999976147,0,0,NA,"Keyboard Response","KeyResponseG",6,"object-256","winB","","","",NA,"Right",3.33,3,4,11,NA,"Right",NA,7,NA,NA,NA,NA,4,"MDPRF51568"
