"Event.Index","UTC.Timestamp","UTC.Date.and.Time","Local.Timestamp","Local.Timezone","Local.Date.and.Time","Experiment.ID","Experiment.Version","Tree.Node.Key","Repeat.Key","Schedule.ID","Participant.Private.ID","Participant.Starting.Group","Participant.Status","Participant.Completion.Code","Participant.External.Session.ID","Participant.Device.Type","Participant.Device","Participant.OS","Participant.Browser","Participant.Monitor.Size","Participant.Viewport.Size","Checkpoint","Room.ID","Room.Order","Task.Name","Task.Version","branch.hkzp","order.ot79","branch.mcuq","branch.4fv7","Spreadsheet","Trial.Number","Display","Screen","Screen.ID","Screen.Counter","Response.Type","Response","Onset.Time","Clock.Time","Reaction.Time","Absolute.Onset.Time","Absolute.Clock.Time","Absolute.Reaction.Time","Correct","Response.Onset","Response.Duration","Proportion","Tag","Component.Name","Object.Name","Object.Number","Object.ID","Spreadsheet..display","Spreadsheet..Emo","Spreadsheet..LHS_Lab","Spreadsheet..RHS_Lab","Spreadsheet..rand_M","Spreadsheet..Answer","Spreadsheet..C_points","Spreadsheet..L_points","Spreadsheet..W_points","Spreadsheet..rand_G","Spreadsheet..rand_B","Manipulation..Spreadsheet","Store..Choice","Store..total","Store..total_score","Store..pounds","Store..total_money","Store..partA","Store..MoneyReward","Random_ID"
"1",1701953074482,"07/12/2023 12:44:34",1701953074482,0,"07/12/2023 12:44:34",152734,16,"task-yf9l",NA,33515719,9922638,NA,"complete",NA,"6571b65c0e93731c3ef24841","computer","Desktop or Laptop","Windows 10","Chrome 120.0.0.0","1920x1080","1920x955",NA,NA,0,"Gambling (Clone)",29,"In","BCADLEKFJGIH",NA,"In","GambleNorm",NA,"","","",NA,"5","BEGIN",NA,NA,NA,NA,NA,NA,0,NA,NA,NA,NA,"","",NA,"","","","","",NA,"",NA,NA,NA,NA,NA,NA,"",NA,NA,NA,NA,NA,NA,"MDPRF71538"
"2",1701953077407,"07/12/2023 12:44:37",1701953077407,0,"07/12/2023 12:44:37",152734,16,"task-yf9l",NA,33515719,9922638,NA,"complete",NA,"6571b65c0e93731c3ef24841","computer","Desktop or Laptop","Windows 10","Chrome 120.0.0.0","1920x1080","1920x955",NA,NA,0,"Gambling (Clone)",29,"In","BCADLEKFJGIH",NA,"In","GambleNorm",1,"Instructions","Screen 1","rfymdc",1,"continue","",2738.19999999404,2732,2738.19999999404,2738.19999999404,2732,2738.19999999404,1,2738.19999999404,0,0,NA,"Click To Continue","Continue Button",2,"object-3","Instructions","","","",NA,"",NA,NA,NA,NA,NA,NA,"",NA,NA,NA,NA,NA,0.2,"MDPRF71538"
"3",1701953080955,"07/12/2023 12:44:40",1701953080955,0,"07/12/2023 12:44:40",152734,16,"task-yf9l",NA,33515719,9922638,NA,"complete",NA,"6571b65c0e93731c3ef24841","computer","Desktop or Laptop","Windows 10","Chrome 120.0.0.0","1920x1080","1920x955",NA,NA,0,"Gambling (Clone)",29,"In","BCADLEKFJGIH",NA,"In","GambleNorm",1,"Instructions","Screen 2","x2kpu8",2,"continue","",3553.79999998808,3552.4,3553.79999998808,3553.79999998808,3552.4,3553.79999998808,1,3553.79999998808,0,0,NA,"Click To Continue","Continue Button",2,"object-22021","Instructions","","","",NA,"",NA,NA,NA,NA,NA,NA,"",NA,NA,NA,NA,NA,0.2,"MDPRF71538"
"4",1701953082056,"07/12/2023 12:44:42",1701953082056,0,"07/12/2023 12:44:42",152734,16,"task-yf9l",NA,33515719,9922638,NA,"complete",NA,"6571b65c0e93731c3ef24841","computer","Desktop or Laptop","Windows 10","Chrome 120.0.0.0","1920x1080","1920x955",NA,NA,0,"Gambling (Clone)",29,"In","BCADLEKFJGIH",NA,"In","GambleNorm",1,"Instructions","Screen 3","o6zm7t",3,"continue","",1102.09999999106,1098.3,1102.09999999106,1102.09999999106,1098.3,1102.09999999106,1,1102.09999999106,0,0,NA,"Click To Continue","Continue Button",2,"object-225","Instructions","","","",NA,"",NA,NA,NA,NA,NA,NA,"",NA,NA,NA,NA,NA,0.2,"MDPRF71538"
"5",1701953082743,"07/12/2023 12:44:42",1701953082743,0,"07/12/2023 12:44:42",152734,16,"task-yf9l",NA,33515719,9922638,NA,"complete",NA,"6571b65c0e93731c3ef24841","computer","Desktop or Laptop","Windows 10","Chrome 120.0.0.0","1920x1080","1920x955",NA,NA,0,"Gambling (Clone)",29,"In","BCADLEKFJGIH",NA,"In","GambleNorm",1,"Instructions","Screen 4","3hq7c2",4,"continue","",691.699999997019,688.299999999999,691.699999997019,691.699999997019,688.299999999999,691.699999997019,1,691.699999997019,0,0,NA,"Click To Continue","Continue Button",2,"object-229","Instructions","","","",NA,"",NA,NA,NA,NA,NA,NA,"",NA,NA,NA,NA,NA,0.2,"MDPRF71538"
"6",1701953083211,"07/12/2023 12:44:43",1701953083211,0,"07/12/2023 12:44:43",152734,16,"task-yf9l",NA,33515719,9922638,NA,"complete",NA,"6571b65c0e93731c3ef24841","computer","Desktop or Laptop","Windows 10","Chrome 120.0.0.0","1920x1080","1920x955",NA,NA,0,"Gambling (Clone)",29,"In","BCADLEKFJGIH",NA,"In","GambleNorm",1,"Instructions","Screen 5","5jisqh",5,"continue","",471.299999988079,465.700000000001,471.299999988079,471.299999988079,465.700000000001,471.299999988079,1,471.299999988079,0,0,NA,"Click To Continue","Continue Button",2,"object-233","Instructions","","","",NA,"",NA,NA,NA,NA,NA,NA,"",NA,NA,NA,NA,NA,0.2,"MDPRF71538"
"7",1701953083584,"07/12/2023 12:44:43",1701953083584,0,"07/12/2023 12:44:43",152734,16,"task-yf9l",NA,33515719,9922638,NA,"complete",NA,"6571b65c0e93731c3ef24841","computer","Desktop or Laptop","Windows 10","Chrome 120.0.0.0","1920x1080","1920x955",NA,NA,0,"Gambling (Clone)",29,"In","BCADLEKFJGIH",NA,"In","GambleNorm",1,"Instructions","Screen 6","13xe5l",6,"continue","",378.099999988079,375.4,378.099999988079,378.099999988079,375.4,378.099999988079,1,378.099999988079,0,0,NA,"Click To Continue","Continue Button",2,"object-237","Instructions","","","",NA,"",NA,NA,NA,NA,NA,NA,"",NA,NA,NA,NA,NA,0.2,"MDPRF71538"
"8",1701953084835,"07/12/2023 12:44:44",1701953084835,0,"07/12/2023 12:44:44",152734,16,"task-yf9l",NA,33515719,9922638,NA,"complete",NA,"6571b65c0e93731c3ef24841","computer","Desktop or Laptop","Windows 10","Chrome 120.0.0.0","1920x1080","1920x955",NA,NA,0,"Gambling (Clone)",29,"In","BCADLEKFJGIH",NA,"In","GambleNorm",1,"Instructions","Screen 7","re2b58",7,"continue","",1254.39999999106,1251.3,1254.39999999106,1254.39999999106,1251.3,1254.39999999106,1,1254.39999999106,0,0,NA,"Click To Continue","Continue Button",2,"object-241","Instructions","","","",NA,"",NA,NA,NA,NA,NA,NA,"",NA,NA,NA,NA,NA,0.2,"MDPRF71538"
"9",1701953087261,"07/12/2023 12:44:47",1701953087261,0,"07/12/2023 12:44:47",152734,16,"task-yf9l",NA,33515719,9922638,NA,"complete",NA,"6571b65c0e93731c3ef24841","computer","Desktop or Laptop","Windows 10","Chrome 120.0.0.0","1920x1080","1920x955",NA,NA,0,"Gambling (Clone)",29,"In","BCADLEKFJGIH",NA,"In","GambleNorm",1,"Rating","Screen 1","hx8b5a",1,"continue","",2428.79999999404,2426.1,2428.79999999404,2428.79999999404,2426.1,2428.79999999404,1,2428.79999999404,0,0,NA,"Click To Continue","Continue Button",3,"object-25","Rating","frustrated","not frustrated","frustrated",1,"",NA,NA,NA,NA,NA,NA,"",NA,NA,NA,NA,NA,0.2,"MDPRF71538"
"10",1701953087262,"07/12/2023 12:44:47",1701953087262,0,"07/12/2023 12:44:47",152734,16,"task-yf9l",NA,33515719,9922638,NA,"complete",NA,"6571b65c0e93731c3ef24841","computer","Desktop or Laptop","Windows 10","Chrome 120.0.0.0","1920x1080","1920x955",NA,NA,0,"Gambling (Clone)",29,"In","BCADLEKFJGIH",NA,"In","GambleNorm",1,"Rating","Screen 1","hx8b5a",1,"response","15",1696.2,2426.1,2429.2,1696.2,2426.1,2429.2,1,1696.2,733,0,NA,"Slider","MoodSlider",2,"object-243","Rating","frustrated","not frustrated","frustrated",1,"",NA,NA,NA,NA,NA,NA,"",NA,NA,NA,NA,NA,0.2,"MDPRF71538"
"11",1701953091185,"07/12/2023 12:44:51",1701953091185,0,"07/12/2023 12:44:51",152734,16,"task-yf9l",NA,33515719,9922638,NA,"complete",NA,"6571b65c0e93731c3ef24841","computer","Desktop or Laptop","Windows 10","Chrome 120.0.0.0","1920x1080","1920x955",NA,NA,0,"Gambling (Clone)",29,"In","BCADLEKFJGIH",NA,"In","GambleNorm",2,"Rating","Screen 1","hx8b5a",1,"continue","",3926.79999998808,3920.8,3926.79999998808,3926.79999998808,3920.8,3926.79999998808,1,3926.79999998808,0,0,NA,"Click To Continue","Continue Button",3,"object-25","Rating","happy","unhappy","happy",1,"",NA,NA,NA,NA,NA,NA,"",NA,NA,NA,NA,NA,0.2,"MDPRF71538"
"12",1701953091185,"07/12/2023 12:44:51",1701953091185,0,"07/12/2023 12:44:51",152734,16,"task-yf9l",NA,33515719,9922638,NA,"complete",NA,"6571b65c0e93731c3ef24841","computer","Desktop or Laptop","Windows 10","Chrome 120.0.0.0","1920x1080","1920x955",NA,NA,0,"Gambling (Clone)",29,"In","BCADLEKFJGIH",NA,"In","GambleNorm",2,"Rating","Screen 1","hx8b5a",1,"response","76",1543.4,3920.8,3926.99999999106,1543.4,3920.8,3926.99999999106,1,1543.4,2383.59999999106,0,NA,"Slider","MoodSlider",2,"object-243","Rating","happy","unhappy","happy",1,"",NA,NA,NA,NA,NA,NA,"",NA,NA,NA,NA,NA,0.2,"MDPRF71538"
"13",1701953093089,"07/12/2023 12:44:53",1701953093089,0,"07/12/2023 12:44:53",152734,16,"task-yf9l",NA,33515719,9922638,NA,"complete",NA,"6571b65c0e93731c3ef24841","computer","Desktop or Laptop","Windows 10","Chrome 120.0.0.0","1920x1080","1920x955",NA,NA,0,"Gambling (Clone)",29,"In","BCADLEKFJGIH",NA,"In","GambleNorm",3,"Rating","Screen 1","hx8b5a",1,"continue","",1910.09999999702,1904.8,1910.09999999702,1910.09999999702,1904.8,1910.09999999702,1,1910.09999999702,0,0,NA,"Click To Continue","Continue Button",3,"object-25","Rating","bored","not bored","bored",1,"",NA,NA,NA,NA,NA,NA,"",NA,NA,NA,NA,NA,0.2,"MDPRF71538"
"14",1701953093090,"07/12/2023 12:44:53",1701953093090,0,"07/12/2023 12:44:53",152734,16,"task-yf9l",NA,33515719,9922638,NA,"complete",NA,"6571b65c0e93731c3ef24841","computer","Desktop or Laptop","Windows 10","Chrome 120.0.0.0","1920x1080","1920x955",NA,NA,0,"Gambling (Clone)",29,"In","BCADLEKFJGIH",NA,"In","GambleNorm",3,"Rating","Screen 1","hx8b5a",1,"response","77",1286.1,1904.8,1910.39999999404,1286.1,1904.8,1910.39999999404,1,1286.1,624.29999999404,0,NA,"Slider","MoodSlider",2,"object-243","Rating","bored","not bored","bored",1,"",NA,NA,NA,NA,NA,NA,"",NA,NA,NA,NA,NA,0.2,"MDPRF71538"
"15",1701953095072,"07/12/2023 12:44:55",1701953095072,0,"07/12/2023 12:44:55",152734,16,"task-yf9l",NA,33515719,9922638,NA,"complete",NA,"6571b65c0e93731c3ef24841","computer","Desktop or Laptop","Windows 10","Chrome 120.0.0.0","1920x1080","1920x955",NA,NA,0,"Gambling (Clone)",29,"In","BCADLEKFJGIH",NA,"In","GambleNorm",1,"winB","Screen 1","pkkyi8",1,"continue","",1988.2,1988.2,1988.2,1988.2,1988.2,1988.2,1,1988.2,0,0,NA,"Fixation Timing","Fixation",1,"object-246","winB","","","",NA,"Right",2,1,3,2,1,NA,"",NA,NA,NA,NA,NA,0.2,"MDPRF71538"
"16",1701953098164,"07/12/2023 12:44:58",1701953098164,0,"07/12/2023 12:44:58",152734,16,"task-yf9l",NA,33515719,9922638,NA,"complete",NA,"6571b65c0e93731c3ef24841","computer","Desktop or Laptop","Windows 10","Chrome 120.0.0.0","1920x1080","1920x955",NA,NA,0,"Gambling (Clone)",29,"In","BCADLEKFJGIH",NA,"In","GambleNorm",1,"winB","choice","5lszbx",2,"response","Right",3091.39999999404,3086.6,3091.39999999404,3091.39999999404,3086.6,3091.39999999404,1,3091.39999999404,0,0,NA,"Keyboard Response","KeyResponseG",6,"object-256","winB","","","",NA,"Right",2,1,3,2,1,NA,"Right",NA,5,NA,NA,NA,0.2,"MDPRF71538"
"17",1701953099160,"07/12/2023 12:44:59",1701953099160,0,"07/12/2023 12:44:59",152734,16,"task-yf9l",NA,33515719,9922638,NA,"complete",NA,"6571b65c0e93731c3ef24841","computer","Desktop or Laptop","Windows 10","Chrome 120.0.0.0","1920x1080","1920x955",NA,NA,0,"Gambling (Clone)",29,"In","BCADLEKFJGIH",NA,"In","GambleNorm",1,"winB","win","dzz5jr",3,"timedOut","",1001.29999999404,1001.1,1001.29999999404,1001.29999999404,1001.1,1001.29999999404,1,1001.29999999404,0,0,NA,"Time Limit","screen",0,"screen","winB","","","",NA,"Right",2,1,3,2,1,NA,"Right",NA,5,NA,NA,NA,0.2,"MDPRF71538"
"18",1701953101802,"07/12/2023 12:45:01",1701953101802,0,"07/12/2023 12:45:01",152734,16,"task-yf9l",NA,33515719,9922638,NA,"complete",NA,"6571b65c0e93731c3ef24841","computer","Desktop or Laptop","Windows 10","Chrome 120.0.0.0","1920x1080","1920x955",NA,NA,0,"Gambling (Clone)",29,"In","BCADLEKFJGIH",NA,"In","GambleNorm",4,"Rating","Screen 1","hx8b5a",1,"continue","",2641.7,2634.7,2641.7,2641.7,2634.7,2641.7,1,2641.7,0,0,NA,"Click To Continue","Continue Button",3,"object-25","Rating","bored","not bored","bored",2,"",NA,NA,NA,NA,NA,NA,"Right",NA,5,NA,NA,NA,0.2,"MDPRF71538"
"19",1701953101802,"07/12/2023 12:45:01",1701953101802,0,"07/12/2023 12:45:01",152734,16,"task-yf9l",NA,33515719,9922638,NA,"complete",NA,"6571b65c0e93731c3ef24841","computer","Desktop or Laptop","Windows 10","Chrome 120.0.0.0","1920x1080","1920x955",NA,NA,0,"Gambling (Clone)",29,"In","BCADLEKFJGIH",NA,"In","GambleNorm",4,"Rating","Screen 1","hx8b5a",1,"response","77",1890.9,2634.7,2641.7,1890.9,2634.7,2641.7,1,1890.9,750.799999999999,0,NA,"Slider","MoodSlider",2,"object-243","Rating","bored","not bored","bored",2,"",NA,NA,NA,NA,NA,NA,"Right",NA,5,NA,NA,NA,0.2,"MDPRF71538"
"20",1701953106425,"07/12/2023 12:45:06",1701953106425,0,"07/12/2023 12:45:06",152734,16,"task-yf9l",NA,33515719,9922638,NA,"complete",NA,"6571b65c0e93731c3ef24841","computer","Desktop or Laptop","Windows 10","Chrome 120.0.0.0","1920x1080","1920x955",NA,NA,0,"Gambling (Clone)",29,"In","BCADLEKFJGIH",NA,"In","GambleNorm",5,"Rating","Screen 1","hx8b5a",1,"continue","",4630.99999999404,4629.8,4630.99999999404,4630.99999999404,4629.8,4630.99999999404,1,4630.99999999404,0,0,NA,"Click To Continue","Continue Button",3,"object-25","Rating","frustrated","not frustrated","frustrated",2,"",NA,NA,NA,NA,NA,NA,"Right",NA,5,NA,NA,NA,0.2,"MDPRF71538"
"21",1701953106427,"07/12/2023 12:45:06",1701953106427,0,"07/12/2023 12:45:06",152734,16,"task-yf9l",NA,33515719,9922638,NA,"complete",NA,"6571b65c0e93731c3ef24841","computer","Desktop or Laptop","Windows 10","Chrome 120.0.0.0","1920x1080","1920x955",NA,NA,0,"Gambling (Clone)",29,"In","BCADLEKFJGIH",NA,"In","GambleNorm",5,"Rating","Screen 1","hx8b5a",1,"response","51",4032,4629.8,4632.49999999404,4032,4629.8,4632.49999999404,1,4032,600.499999994041,0,NA,"Slider","MoodSlider",2,"object-243","Rating","frustrated","not frustrated","frustrated",2,"",NA,NA,NA,NA,NA,NA,"Right",NA,5,NA,NA,NA,0.2,"MDPRF71538"
"22",1701953112757,"07/12/2023 12:45:12",1701953112757,0,"07/12/2023 12:45:12",152734,16,"task-yf9l",NA,33515719,9922638,NA,"complete",NA,"6571b65c0e93731c3ef24841","computer","Desktop or Laptop","Windows 10","Chrome 120.0.0.0","1920x1080","1920x955",NA,NA,0,"Gambling (Clone)",29,"In","BCADLEKFJGIH",NA,"In","GambleNorm",6,"Rating","Screen 1","hx8b5a",1,"continue","",6333.1,6326.1,6333.1,6333.1,6326.1,6333.1,1,6333.1,0,0,NA,"Click To Continue","Continue Button",3,"object-25","Rating","happy","unhappy","happy",2,"",NA,NA,NA,NA,NA,NA,"Right",NA,5,NA,NA,NA,0.2,"MDPRF71538"
"23",1701953112757,"07/12/2023 12:45:12",1701953112757,0,"07/12/2023 12:45:12",152734,16,"task-yf9l",NA,33515719,9922638,NA,"complete",NA,"6571b65c0e93731c3ef24841","computer","Desktop or Laptop","Windows 10","Chrome 120.0.0.0","1920x1080","1920x955",NA,NA,0,"Gambling (Clone)",29,"In","BCADLEKFJGIH",NA,"In","GambleNorm",6,"Rating","Screen 1","hx8b5a",1,"response","50",5797.8,6326.1,6333.1,5797.8,6326.1,6333.1,1,5797.8,535.300000000003,0,NA,"Slider","MoodSlider",2,"object-243","Rating","happy","unhappy","happy",2,"",NA,NA,NA,NA,NA,NA,"Right",NA,5,NA,NA,NA,0.2,"MDPRF71538"
"24",1701953114738,"07/12/2023 12:45:14",1701953114738,0,"07/12/2023 12:45:14",152734,16,"task-yf9l",NA,33515719,9922638,NA,"complete",NA,"6571b65c0e93731c3ef24841","computer","Desktop or Laptop","Windows 10","Chrome 120.0.0.0","1920x1080","1920x955",NA,NA,0,"Gambling (Clone)",29,"In","BCADLEKFJGIH",NA,"In","GambleNorm",1,"lossT","Screen 1","2oxi65",1,"continue","",1988.2,1988.2,1988.2,1988.2,1988.2,1988.2,1,1988.2,0,0,NA,"Fixation Timing","Fixation",1,"object-354","lossT","","","",NA,"Right",-5,-8,2,12,11,NA,"Right",NA,5,NA,NA,NA,0.2,"MDPRF71538"
"25",1701953117771,"07/12/2023 12:45:17",1701953117771,0,"07/12/2023 12:45:17",152734,16,"task-yf9l",NA,33515719,9922638,NA,"complete",NA,"6571b65c0e93731c3ef24841","computer","Desktop or Laptop","Windows 10","Chrome 120.0.0.0","1920x1080","1920x955",NA,NA,0,"Gambling (Clone)",29,"In","BCADLEKFJGIH",NA,"In","GambleNorm",1,"lossT","choice","zjftf8",2,"response","Left",3031.3,3031,3031.3,3031.3,3031,3031.3,0,3031.3,0,0,NA,"Keyboard Response","KeyResponseC",5,"object-351","lossT","","","",NA,"Right",-5,-8,2,12,11,NA,"Left",NA,0,NA,NA,NA,0.2,"MDPRF71538"
"26",1701953122768,"07/12/2023 12:45:22",1701953122768,0,"07/12/2023 12:45:22",152734,16,"task-yf9l",NA,33515719,9922638,NA,"complete",NA,"6571b65c0e93731c3ef24841","computer","Desktop or Laptop","Windows 10","Chrome 120.0.0.0","1920x1080","1920x955",NA,NA,0,"Gambling (Clone)",29,"In","BCADLEKFJGIH",NA,"In","GambleNorm",1,"lossT","certain","uaykj9",3,"timedOut","",4998.3,4998.3,4998.3,4998.3,4998.3,4998.3,1,4998.3,0,0,NA,"Time Limit","screen",0,"screen","lossT","","","",NA,"Right",-5,-8,2,12,11,NA,"Left",NA,0,NA,NA,NA,0.2,"MDPRF71538"
"27",1701953124240,"07/12/2023 12:45:24",1701953124240,0,"07/12/2023 12:45:24",152734,16,"task-yf9l",NA,33515719,9922638,NA,"complete",NA,"6571b65c0e93731c3ef24841","computer","Desktop or Laptop","Windows 10","Chrome 120.0.0.0","1920x1080","1920x955",NA,NA,0,"Gambling (Clone)",29,"In","BCADLEKFJGIH",NA,"In","GambleNorm",7,"Rating","Screen 1","hx8b5a",1,"continue","",1472.09999999404,1466.8,1472.09999999404,1472.09999999404,1466.8,1472.09999999404,1,1472.09999999404,0,0,NA,"Click To Continue","Continue Button",3,"object-25","Rating","happy","unhappy","happy",3,"",NA,NA,NA,NA,NA,NA,"Left",NA,0,NA,NA,NA,0.2,"MDPRF71538"
"28",1701953124240,"07/12/2023 12:45:24",1701953124240,0,"07/12/2023 12:45:24",152734,16,"task-yf9l",NA,33515719,9922638,NA,"complete",NA,"6571b65c0e93731c3ef24841","computer","Desktop or Laptop","Windows 10","Chrome 120.0.0.0","1920x1080","1920x955",NA,NA,0,"Gambling (Clone)",29,"In","BCADLEKFJGIH",NA,"In","GambleNorm",7,"Rating","Screen 1","hx8b5a",1,"response","40",848.099999999999,1466.8,1472.29999999702,848.099999999999,1466.8,1472.29999999702,1,848.099999999999,624.199999997021,0,NA,"Slider","MoodSlider",2,"object-243","Rating","happy","unhappy","happy",3,"",NA,NA,NA,NA,NA,NA,"Left",NA,0,NA,NA,NA,0.2,"MDPRF71538"
"29",1701953125863,"07/12/2023 12:45:25",1701953125863,0,"07/12/2023 12:45:25",152734,16,"task-yf9l",NA,33515719,9922638,NA,"complete",NA,"6571b65c0e93731c3ef24841","computer","Desktop or Laptop","Windows 10","Chrome 120.0.0.0","1920x1080","1920x955",NA,NA,0,"Gambling (Clone)",29,"In","BCADLEKFJGIH",NA,"In","GambleNorm",8,"Rating","Screen 1","hx8b5a",1,"continue","",1628.89999998808,1626.6,1628.89999998808,1628.89999998808,1626.6,1628.89999998808,1,1628.89999998808,0,0,NA,"Click To Continue","Continue Button",3,"object-25","Rating","frustrated","not frustrated","frustrated",3,"",NA,NA,NA,NA,NA,NA,"Left",NA,0,NA,NA,NA,0.2,"MDPRF71538"
"30",1701953125864,"07/12/2023 12:45:25",1701953125864,0,"07/12/2023 12:45:25",152734,16,"task-yf9l",NA,33515719,9922638,NA,"complete",NA,"6571b65c0e93731c3ef24841","computer","Desktop or Laptop","Windows 10","Chrome 120.0.0.0","1920x1080","1920x955",NA,NA,0,"Gambling (Clone)",29,"In","BCADLEKFJGIH",NA,"In","GambleNorm",8,"Rating","Screen 1","hx8b5a",1,"response","49",1202.6,1626.6,1629.09999999106,1202.6,1626.6,1629.09999999106,1,1202.6,426.499999991058,0,NA,"Slider","MoodSlider",2,"object-243","Rating","frustrated","not frustrated","frustrated",3,"",NA,NA,NA,NA,NA,NA,"Left",NA,0,NA,NA,NA,0.2,"MDPRF71538"
"31",1701953129910,"07/12/2023 12:45:29",1701953129910,0,"07/12/2023 12:45:29",152734,16,"task-yf9l",NA,33515719,9922638,NA,"complete",NA,"6571b65c0e93731c3ef24841","computer","Desktop or Laptop","Windows 10","Chrome 120.0.0.0","1920x1080","1920x955",NA,NA,0,"Gambling (Clone)",29,"In","BCADLEKFJGIH",NA,"In","GambleNorm",9,"Rating","Screen 1","hx8b5a",1,"continue","",4048.6,4046,4048.6,4048.6,4046,4048.6,1,4048.6,0,0,NA,"Click To Continue","Continue Button",3,"object-25","Rating","bored","not bored","bored",3,"",NA,NA,NA,NA,NA,NA,"Left",NA,0,NA,NA,NA,0.2,"MDPRF71538"
"32",1701953129911,"07/12/2023 12:45:29",1701953129911,0,"07/12/2023 12:45:29",152734,16,"task-yf9l",NA,33515719,9922638,NA,"complete",NA,"6571b65c0e93731c3ef24841","computer","Desktop or Laptop","Windows 10","Chrome 120.0.0.0","1920x1080","1920x955",NA,NA,0,"Gambling (Clone)",29,"In","BCADLEKFJGIH",NA,"In","GambleNorm",9,"Rating","Screen 1","hx8b5a",1,"response","49",3566.3,4046,4049.99999999106,3566.3,4046,4049.99999999106,1,3566.3,483.699999991062,0,NA,"Slider","MoodSlider",2,"object-243","Rating","bored","not bored","bored",3,"",NA,NA,NA,NA,NA,NA,"Left",NA,0,NA,NA,NA,0.2,"MDPRF71538"
"33",1701953131895,"07/12/2023 12:45:31",1701953131895,0,"07/12/2023 12:45:31",152734,16,"task-yf9l",NA,33515719,9922638,NA,"complete",NA,"6571b65c0e93731c3ef24841","computer","Desktop or Laptop","Windows 10","Chrome 120.0.0.0","1920x1080","1920x955",NA,NA,0,"Gambling (Clone)",29,"In","BCADLEKFJGIH",NA,"In","GambleNorm",2,"winB","Screen 1","pkkyi8",1,"continue","",1988.2,1988.2,1988.2,1988.2,1988.2,1988.2,1,1988.2,0,0,NA,"Fixation Timing","Fixation",1,"object-246","winB","","","",NA,"Right",-3,-5,1,14,13,NA,"Left",NA,0,NA,NA,NA,0.2,"MDPRF71538"
"34",1701953133258,"07/12/2023 12:45:33",1701953133258,0,"07/12/2023 12:45:33",152734,16,"task-yf9l",NA,33515719,9922638,NA,"complete",NA,"6571b65c0e93731c3ef24841","computer","Desktop or Laptop","Windows 10","Chrome 120.0.0.0","1920x1080","1920x955",NA,NA,0,"Gambling (Clone)",29,"In","BCADLEKFJGIH",NA,"In","GambleNorm",2,"winB","choice","5lszbx",2,"response","Right",1362.4,1355.6,1362.4,1362.4,1355.6,1362.4,1,1362.4,0,0,NA,"Keyboard Response","KeyResponseG",6,"object-256","winB","","","",NA,"Right",-3,-5,1,14,13,NA,"Right",NA,-2,NA,NA,NA,0.2,"MDPRF71538"
"35",1701953134252,"07/12/2023 12:45:34",1701953134252,0,"07/12/2023 12:45:34",152734,16,"task-yf9l",NA,33515719,9922638,NA,"complete",NA,"6571b65c0e93731c3ef24841","computer","Desktop or Laptop","Windows 10","Chrome 120.0.0.0","1920x1080","1920x955",NA,NA,0,"Gambling (Clone)",29,"In","BCADLEKFJGIH",NA,"In","GambleNorm",2,"winB","win","dzz5jr",3,"timedOut","",1001.19999999106,1001,1001.19999999106,1001.19999999106,1001,1001.19999999106,1,1001.19999999106,0,0,NA,"Time Limit","screen",0,"screen","winB","","","",NA,"Right",-3,-5,1,14,13,NA,"Right",NA,-2,NA,NA,NA,0.2,"MDPRF71538"
"36",1701953141748,"07/12/2023 12:45:41",1701953141748,0,"07/12/2023 12:45:41",152734,16,"task-yf9l",NA,33515719,9922638,NA,"complete",NA,"6571b65c0e93731c3ef24841","computer","Desktop or Laptop","Windows 10","Chrome 120.0.0.0","1920x1080","1920x955",NA,NA,0,"Gambling (Clone)",29,"In","BCADLEKFJGIH",NA,"In","GambleNorm",10,"Rating","Screen 1","hx8b5a",1,"continue","",7495.99999998808,7494,7495.99999998808,7495.99999998808,7494,7495.99999998808,1,7495.99999998808,0,0,NA,"Click To Continue","Continue Button",3,"object-25","Rating","bored","not bored","bored",4,"",NA,NA,NA,NA,NA,NA,"Right",NA,-2,NA,NA,NA,0.2,"MDPRF71538"
"37",1701953141749,"07/12/2023 12:45:41",1701953141749,0,"07/12/2023 12:45:41",152734,16,"task-yf9l",NA,33515719,9922638,NA,"complete",NA,"6571b65c0e93731c3ef24841","computer","Desktop or Laptop","Windows 10","Chrome 120.0.0.0","1920x1080","1920x955",NA,NA,0,"Gambling (Clone)",29,"In","BCADLEKFJGIH",NA,"In","GambleNorm",10,"Rating","Screen 1","hx8b5a",1,"response","71",4087.60000000001,7494,7497.09999999702,4087.60000000001,7494,7497.09999999702,1,4087.60000000001,3409.49999999702,0,NA,"Slider","MoodSlider",2,"object-243","Rating","bored","not bored","bored",4,"",NA,NA,NA,NA,NA,NA,"Right",NA,-2,NA,NA,NA,0.2,"MDPRF71538"
"38",1701953142852,"07/12/2023 12:45:42",1701953142852,0,"07/12/2023 12:45:42",152734,16,"task-yf9l",NA,33515719,9922638,NA,"complete",NA,"6571b65c0e93731c3ef24841","computer","Desktop or Laptop","Windows 10","Chrome 120.0.0.0","1920x1080","1920x955",NA,NA,0,"Gambling (Clone)",29,"In","BCADLEKFJGIH",NA,"In","GambleNorm",11,"Rating","Screen 1","hx8b5a",1,"continue","",1106.09999999702,1105.3,1106.09999999702,1106.09999999702,1105.3,1106.09999999702,1,1106.09999999702,0,0,NA,"Click To Continue","Continue Button",3,"object-25","Rating","happy","unhappy","happy",4,"",NA,NA,NA,NA,NA,NA,"Right",NA,-2,NA,NA,NA,0.2,"MDPRF71538"
"39",1701953142852,"07/12/2023 12:45:42",1701953142852,0,"07/12/2023 12:45:42",152734,16,"task-yf9l",NA,33515719,9922638,NA,"complete",NA,"6571b65c0e93731c3ef24841","computer","Desktop or Laptop","Windows 10","Chrome 120.0.0.0","1920x1080","1920x955",NA,NA,0,"Gambling (Clone)",29,"In","BCADLEKFJGIH",NA,"In","GambleNorm",11,"Rating","Screen 1","hx8b5a",1,"response","38",549.199999999997,1105.3,1106.3,549.199999999997,1105.3,1106.3,1,549.199999999997,557.100000000006,0,NA,"Slider","MoodSlider",2,"object-243","Rating","happy","unhappy","happy",4,"",NA,NA,NA,NA,NA,NA,"Right",NA,-2,NA,NA,NA,0.2,"MDPRF71538"
"40",1701953144532,"07/12/2023 12:45:44",1701953144532,0,"07/12/2023 12:45:44",152734,16,"task-yf9l",NA,33515719,9922638,NA,"complete",NA,"6571b65c0e93731c3ef24841","computer","Desktop or Laptop","Windows 10","Chrome 120.0.0.0","1920x1080","1920x955",NA,NA,0,"Gambling (Clone)",29,"In","BCADLEKFJGIH",NA,"In","GambleNorm",12,"Rating","Screen 1","hx8b5a",1,"continue","",1680.39999999106,1675.39999999999,1680.39999999106,1680.39999999106,1675.39999999999,1680.39999999106,1,1680.39999999106,0,0,NA,"Click To Continue","Continue Button",3,"object-25","Rating","frustrated","not frustrated","frustrated",4,"",NA,NA,NA,NA,NA,NA,"Right",NA,-2,NA,NA,NA,0.2,"MDPRF71538"
"41",1701953144532,"07/12/2023 12:45:44",1701953144532,0,"07/12/2023 12:45:44",152734,16,"task-yf9l",NA,33515719,9922638,NA,"complete",NA,"6571b65c0e93731c3ef24841","computer","Desktop or Laptop","Windows 10","Chrome 120.0.0.0","1920x1080","1920x955",NA,NA,0,"Gambling (Clone)",29,"In","BCADLEKFJGIH",NA,"In","GambleNorm",12,"Rating","Screen 1","hx8b5a",1,"response","50",868.899999999994,1675.39999999999,1680.59999999404,868.899999999994,1675.39999999999,1680.59999999404,1,868.899999999994,811.699999994045,0,NA,"Slider","MoodSlider",2,"object-243","Rating","frustrated","not frustrated","frustrated",4,"",NA,NA,NA,NA,NA,NA,"Right",NA,-2,NA,NA,NA,0.2,"MDPRF71538"
"42",1701953146515,"07/12/2023 12:45:46",1701953146515,0,"07/12/2023 12:45:46",152734,16,"task-yf9l",NA,33515719,9922638,NA,"complete",NA,"6571b65c0e93731c3ef24841","computer","Desktop or Laptop","Windows 10","Chrome 120.0.0.0","1920x1080","1920x955",NA,NA,0,"Gambling (Clone)",29,"In","BCADLEKFJGIH",NA,"In","GambleNorm",1,"lossB","Screen 1","a4fynh",1,"continue","",1988.20000000001,1988.20000000001,1988.20000000001,1988.20000000001,1988.20000000001,1988.20000000001,1,1988.20000000001,0,0,NA,"Fixation Timing","Fixation",1,"object-113","lossB","","","",NA,"Right",-5,-7,-1,18,17,NA,"Right",NA,-2,NA,NA,NA,0.2,"MDPRF71538"
"43",1701953150426,"07/12/2023 12:45:50",1701953150426,0,"07/12/2023 12:45:50",152734,16,"task-yf9l",NA,33515719,9922638,NA,"complete",NA,"6571b65c0e93731c3ef24841","computer","Desktop or Laptop","Windows 10","Chrome 120.0.0.0","1920x1080","1920x955",NA,NA,0,"Gambling (Clone)",29,"In","BCADLEKFJGIH",NA,"In","GambleNorm",1,"lossB","choice","k9qq8f",2,"response","Left",3910.79999999105,3906.89999999999,3910.79999999105,3910.79999999105,3906.89999999999,3910.79999999105,0,3910.79999999105,0,0,NA,"Keyboard Response","KeyResponseC",5,"object-199","lossB","","","",NA,"Right",-5,-7,-1,18,17,NA,"Left",NA,-7,NA,NA,NA,0.2,"MDPRF71538"
"44",1701953155420,"07/12/2023 12:45:55",1701953155420,0,"07/12/2023 12:45:55",152734,16,"task-yf9l",NA,33515719,9922638,NA,"complete",NA,"6571b65c0e93731c3ef24841","computer","Desktop or Laptop","Windows 10","Chrome 120.0.0.0","1920x1080","1920x955",NA,NA,0,"Gambling (Clone)",29,"In","BCADLEKFJGIH",NA,"In","GambleNorm",1,"lossB","certain","rptf8c",3,"timedOut","",4998.39999999106,4998.3,4998.39999999106,4998.39999999106,4998.3,4998.39999999106,1,4998.39999999106,0,0,NA,"Time Limit","screen",0,"screen","lossB","","","",NA,"Right",-5,-7,-1,18,17,NA,"Left",NA,-7,NA,NA,NA,0.2,"MDPRF71538"
"45",1701953160492,"07/12/2023 12:46:00",1701953160492,0,"07/12/2023 12:46:00",152734,16,"task-yf9l",NA,33515719,9922638,NA,"complete",NA,"6571b65c0e93731c3ef24841","computer","Desktop or Laptop","Windows 10","Chrome 120.0.0.0","1920x1080","1920x955",NA,NA,0,"Gambling (Clone)",29,"In","BCADLEKFJGIH",NA,"In","GambleNorm",13,"Rating","Screen 1","hx8b5a",1,"continue","",5071.99999999702,5067.8,5071.99999999702,5071.99999999702,5067.8,5071.99999999702,1,5071.99999999702,0,0,NA,"Click To Continue","Continue Button",3,"object-25","Rating","bored","not bored","bored",5,"",NA,NA,NA,NA,NA,NA,"Left",NA,-7,NA,NA,NA,0.2,"MDPRF71538"
"46",1701953160492,"07/12/2023 12:46:00",1701953160492,0,"07/12/2023 12:46:00",152734,16,"task-yf9l",NA,33515719,9922638,NA,"complete",NA,"6571b65c0e93731c3ef24841","computer","Desktop or Laptop","Windows 10","Chrome 120.0.0.0","1920x1080","1920x955",NA,NA,0,"Gambling (Clone)",29,"In","BCADLEKFJGIH",NA,"In","GambleNorm",13,"Rating","Screen 1","hx8b5a",1,"response","59",4581.09999999999,5067.8,5072.2,4581.09999999999,5067.8,5072.2,1,4581.09999999999,491.100000000006,0,NA,"Slider","MoodSlider",2,"object-243","Rating","bored","not bored","bored",5,"",NA,NA,NA,NA,NA,NA,"Left",NA,-7,NA,NA,NA,0.2,"MDPRF71538"
"47",1701953163663,"07/12/2023 12:46:03",1701953163663,0,"07/12/2023 12:46:03",152734,16,"task-yf9l",NA,33515719,9922638,NA,"complete",NA,"6571b65c0e93731c3ef24841","computer","Desktop or Laptop","Windows 10","Chrome 120.0.0.0","1920x1080","1920x955",NA,NA,0,"Gambling (Clone)",29,"In","BCADLEKFJGIH",NA,"In","GambleNorm",14,"Rating","Screen 1","hx8b5a",1,"continue","",3174.29999999105,3170,3174.29999999105,3174.29999999105,3170,3174.29999999105,1,3174.29999999105,0,0,NA,"Click To Continue","Continue Button",3,"object-25","Rating","happy","unhappy","happy",5,"",NA,NA,NA,NA,NA,NA,"Left",NA,-7,NA,NA,NA,0.2,"MDPRF71538"
"48",1701953163663,"07/12/2023 12:46:03",1701953163663,0,"07/12/2023 12:46:03",152734,16,"task-yf9l",NA,33515719,9922638,NA,"complete",NA,"6571b65c0e93731c3ef24841","computer","Desktop or Laptop","Windows 10","Chrome 120.0.0.0","1920x1080","1920x955",NA,NA,0,"Gambling (Clone)",29,"In","BCADLEKFJGIH",NA,"In","GambleNorm",14,"Rating","Screen 1","hx8b5a",1,"response","49",2662.5,3170,3174.39999999999,2662.5,3170,3174.39999999999,1,2662.5,511.899999999994,0,NA,"Slider","MoodSlider",2,"object-243","Rating","happy","unhappy","happy",5,"",NA,NA,NA,NA,NA,NA,"Left",NA,-7,NA,NA,NA,0.2,"MDPRF71538"
"49",1701953165099,"07/12/2023 12:46:05",1701953165099,0,"07/12/2023 12:46:05",152734,16,"task-yf9l",NA,33515719,9922638,NA,"complete",NA,"6571b65c0e93731c3ef24841","computer","Desktop or Laptop","Windows 10","Chrome 120.0.0.0","1920x1080","1920x955",NA,NA,0,"Gambling (Clone)",29,"In","BCADLEKFJGIH",NA,"In","GambleNorm",15,"Rating","Screen 1","hx8b5a",1,"continue","",1440.29999999105,1438.89999999999,1440.29999999105,1440.29999999105,1438.89999999999,1440.29999999105,1,1440.29999999105,0,0,NA,"Click To Continue","Continue Button",3,"object-25","Rating","frustrated","not frustrated","frustrated",5,"",NA,NA,NA,NA,NA,NA,"Left",NA,-7,NA,NA,NA,0.2,"MDPRF71538"
"50",1701953165099,"07/12/2023 12:46:05",1701953165099,0,"07/12/2023 12:46:05",152734,16,"task-yf9l",NA,33515719,9922638,NA,"complete",NA,"6571b65c0e93731c3ef24841","computer","Desktop or Laptop","Windows 10","Chrome 120.0.0.0","1920x1080","1920x955",NA,NA,0,"Gambling (Clone)",29,"In","BCADLEKFJGIH",NA,"In","GambleNorm",15,"Rating","Screen 1","hx8b5a",1,"response","34",959.399999999994,1438.89999999999,1440.49999999403,959.399999999994,1438.89999999999,1440.49999999403,1,959.399999999994,481.09999999404,0,NA,"Slider","MoodSlider",2,"object-243","Rating","frustrated","not frustrated","frustrated",5,"",NA,NA,NA,NA,NA,NA,"Left",NA,-7,NA,NA,NA,0.2,"MDPRF71538"
"51",1701953167086,"07/12/2023 12:46:07",1701953167086,0,"07/12/2023 12:46:07",152734,16,"task-yf9l",NA,33515719,9922638,NA,"complete",NA,"6571b65c0e93731c3ef24841","computer","Desktop or Laptop","Windows 10","Chrome 120.0.0.0","1920x1080","1920x955",NA,NA,0,"Gambling (Clone)",29,"In","BCADLEKFJGIH",NA,"In","GambleNorm",2,"lossB","Screen 1","a4fynh",1,"continue","",1988.3,1988.3,1988.3,1988.3,1988.3,1988.3,1,1988.3,0,0,NA,"Fixation Timing","Fixation",1,"object-113","lossB","","","",NA,"Right",1,-2,8,6,5,NA,"Left",NA,-7,NA,NA,NA,0.2,"MDPRF71538"
"52",1701953171531,"07/12/2023 12:46:11",1701953171531,0,"07/12/2023 12:46:11",152734,16,"task-yf9l",NA,33515719,9922638,NA,"complete",NA,"6571b65c0e93731c3ef24841","computer","Desktop or Laptop","Windows 10","Chrome 120.0.0.0","1920x1080","1920x955",NA,NA,0,"Gambling (Clone)",29,"In","BCADLEKFJGIH",NA,"In","GambleNorm",2,"lossB","choice","k9qq8f",2,"response","Left",4445.39999998808,4442.09999999999,4445.39999998808,4445.39999998808,4442.09999999999,4445.39999998808,0,4445.39999998808,0,0,NA,"Keyboard Response","KeyResponseC",5,"object-199","lossB","","","",NA,"Right",1,-2,8,6,5,NA,"Left",NA,-6,NA,NA,NA,0.2,"MDPRF71538"
"53",1701953176526,"07/12/2023 12:46:16",1701953176526,0,"07/12/2023 12:46:16",152734,16,"task-yf9l",NA,33515719,9922638,NA,"complete",NA,"6571b65c0e93731c3ef24841","computer","Desktop or Laptop","Windows 10","Chrome 120.0.0.0","1920x1080","1920x955",NA,NA,0,"Gambling (Clone)",29,"In","BCADLEKFJGIH",NA,"In","GambleNorm",2,"lossB","certain","rptf8c",3,"timedOut","",4998.39999999703,4998.3,4998.39999999703,4998.39999999703,4998.3,4998.39999999703,1,4998.39999999703,0,0,NA,"Time Limit","screen",0,"screen","lossB","","","",NA,"Right",1,-2,8,6,5,NA,"Left",NA,-6,NA,NA,NA,0.2,"MDPRF71538"
"54",1701953191274,"07/12/2023 12:46:31",1701953191274,0,"07/12/2023 12:46:31",152734,16,"task-yf9l",NA,33515719,9922638,NA,"complete",NA,"6571b65c0e93731c3ef24841","computer","Desktop or Laptop","Windows 10","Chrome 120.0.0.0","1920x1080","1920x955",NA,NA,0,"Gambling (Clone)",29,"In","BCADLEKFJGIH",NA,"In","GambleNorm",16,"Rating","Screen 1","hx8b5a",1,"continue","",14747.899999994,14744.6,14747.899999994,14747.899999994,14744.6,14747.899999994,1,14747.899999994,0,0,NA,"Click To Continue","Continue Button",3,"object-25","Rating","frustrated","not frustrated","frustrated",6,"",NA,NA,NA,NA,NA,NA,"Left",NA,-6,NA,NA,NA,0.2,"MDPRF71538"
"55",1701953191275,"07/12/2023 12:46:31",1701953191275,0,"07/12/2023 12:46:31",152734,16,"task-yf9l",NA,33515719,9922638,NA,"complete",NA,"6571b65c0e93731c3ef24841","computer","Desktop or Laptop","Windows 10","Chrome 120.0.0.0","1920x1080","1920x955",NA,NA,0,"Gambling (Clone)",29,"In","BCADLEKFJGIH",NA,"In","GambleNorm",16,"Rating","Screen 1","hx8b5a",1,"response","48",14292.8,14744.6,14748.899999994,14292.8,14744.6,14748.899999994,1,14292.8,456.09999999404,0,NA,"Slider","MoodSlider",2,"object-243","Rating","frustrated","not frustrated","frustrated",6,"",NA,NA,NA,NA,NA,NA,"Left",NA,-6,NA,NA,NA,0.2,"MDPRF71538"
"56",1701953192221,"07/12/2023 12:46:32",1701953192221,0,"07/12/2023 12:46:32",152734,16,"task-yf9l",NA,33515719,9922638,NA,"complete",NA,"6571b65c0e93731c3ef24841","computer","Desktop or Laptop","Windows 10","Chrome 120.0.0.0","1920x1080","1920x955",NA,NA,0,"Gambling (Clone)",29,"In","BCADLEKFJGIH",NA,"In","GambleNorm",17,"Rating","Screen 1","hx8b5a",1,"continue","",950.799999994037,945.5,950.799999994037,950.799999994037,945.5,950.799999994037,1,950.799999994037,0,0,NA,"Click To Continue","Continue Button",3,"object-25","Rating","happy","unhappy","happy",6,"",NA,NA,NA,NA,NA,NA,"Left",NA,-6,NA,NA,NA,0.2,"MDPRF71538"
"57",1701953192222,"07/12/2023 12:46:32",1701953192222,0,"07/12/2023 12:46:32",152734,16,"task-yf9l",NA,33515719,9922638,NA,"complete",NA,"6571b65c0e93731c3ef24841","computer","Desktop or Laptop","Windows 10","Chrome 120.0.0.0","1920x1080","1920x955",NA,NA,0,"Gambling (Clone)",29,"In","BCADLEKFJGIH",NA,"In","GambleNorm",17,"Rating","Screen 1","hx8b5a",1,"response","29",521.399999999994,945.5,950.899999988076,521.399999999994,945.5,950.899999988076,1,521.399999999994,429.499999988082,0,NA,"Slider","MoodSlider",2,"object-243","Rating","happy","unhappy","happy",6,"",NA,NA,NA,NA,NA,NA,"Left",NA,-6,NA,NA,NA,0.2,"MDPRF71538"
"58",1701953194727,"07/12/2023 12:46:34",1701953194727,0,"07/12/2023 12:46:34",152734,16,"task-yf9l",NA,33515719,9922638,NA,"complete",NA,"6571b65c0e93731c3ef24841","computer","Desktop or Laptop","Windows 10","Chrome 120.0.0.0","1920x1080","1920x955",NA,NA,0,"Gambling (Clone)",29,"In","BCADLEKFJGIH",NA,"In","GambleNorm",18,"Rating","Screen 1","hx8b5a",1,"continue","",2511.09999999106,2509.59999999999,2511.09999999106,2511.09999999106,2509.59999999999,2511.09999999106,1,2511.09999999106,0,0,NA,"Click To Continue","Continue Button",3,"object-25","Rating","bored","not bored","bored",6,"",NA,NA,NA,NA,NA,NA,"Left",NA,-6,NA,NA,NA,0.2,"MDPRF71538"
"59",1701953194727,"07/12/2023 12:46:34",1701953194727,0,"07/12/2023 12:46:34",152734,16,"task-yf9l",NA,33515719,9922638,NA,"complete",NA,"6571b65c0e93731c3ef24841","computer","Desktop or Laptop","Windows 10","Chrome 120.0.0.0","1920x1080","1920x955",NA,NA,0,"Gambling (Clone)",29,"In","BCADLEKFJGIH",NA,"In","GambleNorm",18,"Rating","Screen 1","hx8b5a",1,"response","93",1967.3,2509.59999999999,2511.29999999404,1967.3,2509.59999999999,2511.29999999404,1,1967.3,543.999999994034,0,NA,"Slider","MoodSlider",2,"object-243","Rating","bored","not bored","bored",6,"",NA,NA,NA,NA,NA,NA,"Left",NA,-6,NA,NA,NA,0.2,"MDPRF71538"
"60",1701953196714,"07/12/2023 12:46:36",1701953196714,0,"07/12/2023 12:46:36",152734,16,"task-yf9l",NA,33515719,9922638,NA,"complete",NA,"6571b65c0e93731c3ef24841","computer","Desktop or Laptop","Windows 10","Chrome 120.0.0.0","1920x1080","1920x955",NA,NA,0,"Gambling (Clone)",29,"In","BCADLEKFJGIH",NA,"In","GambleNorm",1,"winT","Screen 1","np5pnj",1,"continue","",1988.20000000001,1988.20000000001,1988.20000000001,1988.20000000001,1988.20000000001,1988.20000000001,1,1988.20000000001,0,0,NA,"Fixation Timing","Fixation",1,"object-304","winT","","","",NA,"Right",-3,-5,1,5,4,NA,"Left",NA,-6,NA,NA,NA,0.2,"MDPRF71538"
"61",1701953198388,"07/12/2023 12:46:38",1701953198388,0,"07/12/2023 12:46:38",152734,16,"task-yf9l",NA,33515719,9922638,NA,"complete",NA,"6571b65c0e93731c3ef24841","computer","Desktop or Laptop","Windows 10","Chrome 120.0.0.0","1920x1080","1920x955",NA,NA,0,"Gambling (Clone)",29,"In","BCADLEKFJGIH",NA,"In","GambleNorm",1,"winT","choice","gu8zgx",2,"response","Right",1673.39999999999,1668.39999999999,1673.39999999999,1673.39999999999,1668.39999999999,1673.39999999999,1,1673.39999999999,0,0,NA,"Keyboard Response","KeyResponseG",6,"object-326","winT","","","",NA,"Right",-3,-5,1,5,4,NA,"Right",NA,-5,NA,NA,NA,0.2,"MDPRF71538"
"62",1701953202380,"07/12/2023 12:46:42",1701953202380,0,"07/12/2023 12:46:42",152734,16,"task-yf9l",NA,33515719,9922638,NA,"complete",NA,"6571b65c0e93731c3ef24841","computer","Desktop or Laptop","Windows 10","Chrome 120.0.0.0","1920x1080","1920x955",NA,NA,0,"Gambling (Clone)",29,"In","BCADLEKFJGIH",NA,"In","GambleNorm",1,"winT","gamble","1lb69u",3,"timedOut","",3997.39999999106,3997.20000000001,3997.39999999106,3997.39999999106,3997.20000000001,3997.39999999106,1,3997.39999999106,0,0,NA,"Time Limit","screen",0,"screen","winT","","","",NA,"Right",-3,-5,1,5,4,NA,"Right",NA,-5,NA,NA,NA,0.2,"MDPRF71538"
"63",1701953203381,"07/12/2023 12:46:43",1701953203381,0,"07/12/2023 12:46:43",152734,16,"task-yf9l",NA,33515719,9922638,NA,"complete",NA,"6571b65c0e93731c3ef24841","computer","Desktop or Laptop","Windows 10","Chrome 120.0.0.0","1920x1080","1920x955",NA,NA,0,"Gambling (Clone)",29,"In","BCADLEKFJGIH",NA,"In","GambleNorm",1,"winT","win","dhtsbv",4,"timedOut","",1001.09999999701,1001,1001.09999999701,1001.09999999701,1001,1001.09999999701,1,1001.09999999701,0,0,NA,"Time Limit","screen",0,"screen","winT","","","",NA,"Right",-3,-5,1,5,4,NA,"Right",NA,-5,NA,NA,NA,0.2,"MDPRF71538"
"64",1701953206230,"07/12/2023 12:46:46",1701953206230,0,"07/12/2023 12:46:46",152734,16,"task-yf9l",NA,33515719,9922638,NA,"complete",NA,"6571b65c0e93731c3ef24841","computer","Desktop or Laptop","Windows 10","Chrome 120.0.0.0","1920x1080","1920x955",NA,NA,0,"Gambling (Clone)",29,"In","BCADLEKFJGIH",NA,"In","GambleNorm",19,"Rating","Screen 1","hx8b5a",1,"continue","",2849.69999999105,2843.29999999999,2849.69999999105,2849.69999999105,2843.29999999999,2849.69999999105,1,2849.69999999105,0,0,NA,"Click To Continue","Continue Button",3,"object-25","Rating","bored","not bored","bored",7,"",NA,NA,NA,NA,NA,NA,"Right",NA,-5,NA,NA,NA,0.2,"MDPRF71538"
"65",1701953206230,"07/12/2023 12:46:46",1701953206230,0,"07/12/2023 12:46:46",152734,16,"task-yf9l",NA,33515719,9922638,NA,"complete",NA,"6571b65c0e93731c3ef24841","computer","Desktop or Laptop","Windows 10","Chrome 120.0.0.0","1920x1080","1920x955",NA,NA,0,"Gambling (Clone)",29,"In","BCADLEKFJGIH",NA,"In","GambleNorm",19,"Rating","Screen 1","hx8b5a",1,"response","95",2071.69999999998,2843.29999999999,2849.89999999403,2071.69999999998,2843.29999999999,2849.89999999403,1,2071.69999999998,778.199999994045,0,NA,"Slider","MoodSlider",2,"object-243","Rating","bored","not bored","bored",7,"",NA,NA,NA,NA,NA,NA,"Right",NA,-5,NA,NA,NA,0.2,"MDPRF71538"
"66",1701953208150,"07/12/2023 12:46:48",1701953208150,0,"07/12/2023 12:46:48",152734,16,"task-yf9l",NA,33515719,9922638,NA,"complete",NA,"6571b65c0e93731c3ef24841","computer","Desktop or Laptop","Windows 10","Chrome 120.0.0.0","1920x1080","1920x955",NA,NA,0,"Gambling (Clone)",29,"In","BCADLEKFJGIH",NA,"In","GambleNorm",20,"Rating","Screen 1","hx8b5a",1,"continue","",1925.5,1918.60000000001,1925.5,1925.5,1918.60000000001,1925.5,1,1925.5,0,0,NA,"Click To Continue","Continue Button",3,"object-25","Rating","frustrated","not frustrated","frustrated",7,"",NA,NA,NA,NA,NA,NA,"Right",NA,-5,NA,NA,NA,0.2,"MDPRF71538"
"67",1701953208150,"07/12/2023 12:46:48",1701953208150,0,"07/12/2023 12:46:48",152734,16,"task-yf9l",NA,33515719,9922638,NA,"complete",NA,"6571b65c0e93731c3ef24841","computer","Desktop or Laptop","Windows 10","Chrome 120.0.0.0","1920x1080","1920x955",NA,NA,0,"Gambling (Clone)",29,"In","BCADLEKFJGIH",NA,"In","GambleNorm",20,"Rating","Screen 1","hx8b5a",1,"response","62",1404.29999999999,1918.60000000001,1925.5,1404.29999999999,1918.60000000001,1925.5,1,1404.29999999999,521.200000000012,0,NA,"Slider","MoodSlider",2,"object-243","Rating","frustrated","not frustrated","frustrated",7,"",NA,NA,NA,NA,NA,NA,"Right",NA,-5,NA,NA,NA,0.2,"MDPRF71538"
"68",1701953209694,"07/12/2023 12:46:49",1701953209694,0,"07/12/2023 12:46:49",152734,16,"task-yf9l",NA,33515719,9922638,NA,"complete",NA,"6571b65c0e93731c3ef24841","computer","Desktop or Laptop","Windows 10","Chrome 120.0.0.0","1920x1080","1920x955",NA,NA,0,"Gambling (Clone)",29,"In","BCADLEKFJGIH",NA,"In","GambleNorm",21,"Rating","Screen 1","hx8b5a",1,"continue","",1551.29999999105,1550.29999999999,1551.29999999105,1551.29999999105,1550.29999999999,1551.29999999105,1,1551.29999999105,0,0,NA,"Click To Continue","Continue Button",3,"object-25","Rating","happy","unhappy","happy",7,"",NA,NA,NA,NA,NA,NA,"Right",NA,-5,NA,NA,NA,0.2,"MDPRF71538"
"69",1701953209694,"07/12/2023 12:46:49",1701953209694,0,"07/12/2023 12:46:49",152734,16,"task-yf9l",NA,33515719,9922638,NA,"complete",NA,"6571b65c0e93731c3ef24841","computer","Desktop or Laptop","Windows 10","Chrome 120.0.0.0","1920x1080","1920x955",NA,NA,0,"Gambling (Clone)",29,"In","BCADLEKFJGIH",NA,"In","GambleNorm",21,"Rating","Screen 1","hx8b5a",1,"response","66",980.399999999994,1550.29999999999,1551.49999999403,980.399999999994,1550.29999999999,1551.49999999403,1,980.399999999994,571.09999999404,0,NA,"Slider","MoodSlider",2,"object-243","Rating","happy","unhappy","happy",7,"",NA,NA,NA,NA,NA,NA,"Right",NA,-5,NA,NA,NA,0.2,"MDPRF71538"
"70",1701953211681,"07/12/2023 12:46:51",1701953211681,0,"07/12/2023 12:46:51",152734,16,"task-yf9l",NA,33515719,9922638,NA,"complete",NA,"6571b65c0e93731c3ef24841","computer","Desktop or Laptop","Windows 10","Chrome 120.0.0.0","1920x1080","1920x955",NA,NA,0,"Gambling (Clone)",29,"In","BCADLEKFJGIH",NA,"In","GambleNorm",2,"winT","Screen 1","np5pnj",1,"continue","",1988.30000000002,1988.30000000002,1988.30000000002,1988.30000000002,1988.30000000002,1988.30000000002,1,1988.30000000002,0,0,NA,"Fixation Timing","Fixation",1,"object-304","winT","","","",NA,"Right",-1,-2,0,21,20,NA,"Right",NA,-5,NA,NA,NA,0.2,"MDPRF71538"
"71",1701953216692,"07/12/2023 12:46:56",1701953216692,0,"07/12/2023 12:46:56",152734,16,"task-yf9l",NA,33515719,9922638,NA,"complete",NA,"6571b65c0e93731c3ef24841","computer","Desktop or Laptop","Windows 10","Chrome 120.0.0.0","1920x1080","1920x955",NA,NA,0,"Gambling (Clone)",29,"In","BCADLEKFJGIH",NA,"In","GambleNorm",2,"winT","choice","gu8zgx",2,"response","Right",5010.29999999999,5005.19999999998,5010.29999999999,5010.29999999999,5005.19999999998,5010.29999999999,1,5010.29999999999,0,0,NA,"Keyboard Response","KeyResponseG",6,"object-326","winT","","","",NA,"Right",-1,-2,0,21,20,NA,"Right",NA,-5,NA,NA,NA,0.2,"MDPRF71538"
"72",1701953220684,"07/12/2023 12:47:00",1701953220684,0,"07/12/2023 12:47:00",152734,16,"task-yf9l",NA,33515719,9922638,NA,"complete",NA,"6571b65c0e93731c3ef24841","computer","Desktop or Laptop","Windows 10","Chrome 120.0.0.0","1920x1080","1920x955",NA,NA,0,"Gambling (Clone)",29,"In","BCADLEKFJGIH",NA,"In","GambleNorm",2,"winT","gamble","1lb69u",3,"timedOut","",3997.29999998808,3997.20000000001,3997.29999998808,3997.29999998808,3997.20000000001,3997.29999998808,1,3997.29999998808,0,0,NA,"Time Limit","screen",0,"screen","winT","","","",NA,"Right",-1,-2,0,21,20,NA,"Right",NA,-5,NA,NA,NA,0.2,"MDPRF71538"
"73",1701953221685,"07/12/2023 12:47:01",1701953221685,0,"07/12/2023 12:47:01",152734,16,"task-yf9l",NA,33515719,9922638,NA,"complete",NA,"6571b65c0e93731c3ef24841","computer","Desktop or Laptop","Windows 10","Chrome 120.0.0.0","1920x1080","1920x955",NA,NA,0,"Gambling (Clone)",29,"In","BCADLEKFJGIH",NA,"In","GambleNorm",2,"winT","win","dhtsbv",4,"timedOut","",1001.29999999105,1001.10000000001,1001.29999999105,1001.29999999105,1001.10000000001,1001.29999999105,1,1001.29999999105,0,0,NA,"Time Limit","screen",0,"screen","winT","","","",NA,"Right",-1,-2,0,21,20,NA,"Right",NA,-5,NA,NA,NA,0.2,"MDPRF71538"
"74",1701953225651,"07/12/2023 12:47:05",1701953225651,0,"07/12/2023 12:47:05",152734,16,"task-yf9l",NA,33515719,9922638,NA,"complete",NA,"6571b65c0e93731c3ef24841","computer","Desktop or Laptop","Windows 10","Chrome 120.0.0.0","1920x1080","1920x955",NA,NA,0,"Gambling (Clone)",29,"In","BCADLEKFJGIH",NA,"In","GambleNorm",22,"Rating","Screen 1","hx8b5a",1,"continue","",3966.89999999403,3962.39999999999,3966.89999999403,3966.89999999403,3962.39999999999,3966.89999999403,1,3966.89999999403,0,0,NA,"Click To Continue","Continue Button",3,"object-25","Rating","bored","not bored","bored",8,"",NA,NA,NA,NA,NA,NA,"Right",NA,-5,NA,NA,NA,0.2,"MDPRF71538"
"75",1701953225652,"07/12/2023 12:47:05",1701953225652,0,"07/12/2023 12:47:05",152734,16,"task-yf9l",NA,33515719,9922638,NA,"complete",NA,"6571b65c0e93731c3ef24841","computer","Desktop or Laptop","Windows 10","Chrome 120.0.0.0","1920x1080","1920x955",NA,NA,0,"Gambling (Clone)",29,"In","BCADLEKFJGIH",NA,"In","GambleNorm",22,"Rating","Screen 1","hx8b5a",1,"response","77",3037.79999999999,3962.39999999999,3967.19999999105,3037.79999999999,3962.39999999999,3967.19999999105,1,3037.79999999999,929.399999991059,0,NA,"Slider","MoodSlider",2,"object-243","Rating","bored","not bored","bored",8,"",NA,NA,NA,NA,NA,NA,"Right",NA,-5,NA,NA,NA,0.2,"MDPRF71538"
"76",1701953227600,"07/12/2023 12:47:07",1701953227600,0,"07/12/2023 12:47:07",152734,16,"task-yf9l",NA,33515719,9922638,NA,"complete",NA,"6571b65c0e93731c3ef24841","computer","Desktop or Laptop","Windows 10","Chrome 120.0.0.0","1920x1080","1920x955",NA,NA,0,"Gambling (Clone)",29,"In","BCADLEKFJGIH",NA,"In","GambleNorm",23,"Rating","Screen 1","hx8b5a",1,"continue","",1952.99999999403,1946.60000000001,1952.99999999403,1952.99999999403,1946.60000000001,1952.99999999403,1,1952.99999999403,0,0,NA,"Click To Continue","Continue Button",3,"object-25","Rating","frustrated","not frustrated","frustrated",8,"",NA,NA,NA,NA,NA,NA,"Right",NA,-5,NA,NA,NA,0.2,"MDPRF71538"
"77",1701953227601,"07/12/2023 12:47:07",1701953227601,0,"07/12/2023 12:47:07",152734,16,"task-yf9l",NA,33515719,9922638,NA,"complete",NA,"6571b65c0e93731c3ef24841","computer","Desktop or Laptop","Windows 10","Chrome 120.0.0.0","1920x1080","1920x955",NA,NA,0,"Gambling (Clone)",29,"In","BCADLEKFJGIH",NA,"In","GambleNorm",23,"Rating","Screen 1","hx8b5a",1,"response","73",1237.5,1946.60000000001,1953.60000000001,1237.5,1946.60000000001,1953.60000000001,1,1237.5,716.100000000006,0,NA,"Slider","MoodSlider",2,"object-243","Rating","frustrated","not frustrated","frustrated",8,"",NA,NA,NA,NA,NA,NA,"Right",NA,-5,NA,NA,NA,0.2,"MDPRF71538"
"78",1701953228788,"07/12/2023 12:47:08",1701953228788,0,"07/12/2023 12:47:08",152734,16,"task-yf9l",NA,33515719,9922638,NA,"complete",NA,"6571b65c0e93731c3ef24841","computer","Desktop or Laptop","Windows 10","Chrome 120.0.0.0","1920x1080","1920x955",NA,NA,0,"Gambling (Clone)",29,"In","BCADLEKFJGIH",NA,"In","GambleNorm",24,"Rating","Screen 1","hx8b5a",1,"continue","",1194.49999998807,1188.69999999998,1194.49999998807,1194.49999998807,1188.69999999998,1194.49999998807,1,1194.49999998807,0,0,NA,"Click To Continue","Continue Button",3,"object-25","Rating","happy","unhappy","happy",8,"",NA,NA,NA,NA,NA,NA,"Right",NA,-5,NA,NA,NA,0.2,"MDPRF71538"
"79",1701953228788,"07/12/2023 12:47:08",1701953228788,0,"07/12/2023 12:47:08",152734,16,"task-yf9l",NA,33515719,9922638,NA,"complete",NA,"6571b65c0e93731c3ef24841","computer","Desktop or Laptop","Windows 10","Chrome 120.0.0.0","1920x1080","1920x955",NA,NA,0,"Gambling (Clone)",29,"In","BCADLEKFJGIH",NA,"In","GambleNorm",24,"Rating","Screen 1","hx8b5a",1,"response","70",750.799999999988,1188.69999999998,1194.69999999105,750.799999999988,1188.69999999998,1194.69999999105,1,750.799999999988,443.899999991059,0,NA,"Slider","MoodSlider",2,"object-243","Rating","happy","unhappy","happy",8,"",NA,NA,NA,NA,NA,NA,"Right",NA,-5,NA,NA,NA,0.2,"MDPRF71538"
"80",1701953230770,"07/12/2023 12:47:10",1701953230770,0,"07/12/2023 12:47:10",152734,16,"task-yf9l",NA,33515719,9922638,NA,"complete",NA,"6571b65c0e93731c3ef24841","computer","Desktop or Laptop","Windows 10","Chrome 120.0.0.0","1920x1080","1920x955",NA,NA,0,"Gambling (Clone)",29,"In","BCADLEKFJGIH",NA,"In","GambleNorm",3,"lossB","Screen 1","a4fynh",1,"continue","",1988.30000000002,1988.30000000002,1988.30000000002,1988.30000000002,1988.30000000002,1988.30000000002,1,1988.30000000002,0,0,NA,"Fixation Timing","Fixation",1,"object-113","lossB","","","",NA,"Right",-3,-6,4,16,15,NA,"Right",NA,-5,NA,NA,NA,0.2,"MDPRF71538"
"81",1701953231315,"07/12/2023 12:47:11",1701953231315,0,"07/12/2023 12:47:11",152734,16,"task-yf9l",NA,33515719,9922638,NA,"complete",NA,"6571b65c0e93731c3ef24841","computer","Desktop or Laptop","Windows 10","Chrome 120.0.0.0","1920x1080","1920x955",NA,NA,0,"Gambling (Clone)",29,"In","BCADLEKFJGIH",NA,"In","GambleNorm",3,"lossB","choice","k9qq8f",2,"response","Left",544.899999994028,542.199999999983,544.899999994028,544.899999994028,542.199999999983,544.899999994028,0,544.899999994028,0,0,NA,"Keyboard Response","KeyResponseC",5,"object-199","lossB","","","",NA,"Right",-3,-6,4,16,15,NA,"Left",NA,-8,NA,NA,NA,0.2,"MDPRF71538"
"82",1701953236311,"07/12/2023 12:47:16",1701953236311,0,"07/12/2023 12:47:16",152734,16,"task-yf9l",NA,33515719,9922638,NA,"complete",NA,"6571b65c0e93731c3ef24841","computer","Desktop or Laptop","Windows 10","Chrome 120.0.0.0","1920x1080","1920x955",NA,NA,0,"Gambling (Clone)",29,"In","BCADLEKFJGIH",NA,"In","GambleNorm",3,"lossB","certain","rptf8c",3,"timedOut","",4998.39999999703,4998.20000000001,4998.39999999703,4998.39999999703,4998.20000000001,4998.39999999703,1,4998.39999999703,0,0,NA,"Time Limit","screen",0,"screen","lossB","","","",NA,"Right",-3,-6,4,16,15,NA,"Left",NA,-8,NA,NA,NA,0.2,"MDPRF71538"
"83",1701953238144,"07/12/2023 12:47:18",1701953238144,0,"07/12/2023 12:47:18",152734,16,"task-yf9l",NA,33515719,9922638,NA,"complete",NA,"6571b65c0e93731c3ef24841","computer","Desktop or Laptop","Windows 10","Chrome 120.0.0.0","1920x1080","1920x955",NA,NA,0,"Gambling (Clone)",29,"In","BCADLEKFJGIH",NA,"In","GambleNorm",25,"Rating","Screen 1","hx8b5a",1,"continue","",1833.19999999701,1828.29999999999,1833.19999999701,1833.19999999701,1828.29999999999,1833.19999999701,1,1833.19999999701,0,0,NA,"Click To Continue","Continue Button",3,"object-25","Rating","bored","not bored","bored",9,"",NA,NA,NA,NA,NA,NA,"Left",NA,-8,NA,NA,NA,0.2,"MDPRF71538"
"84",1701953238146,"07/12/2023 12:47:18",1701953238146,0,"07/12/2023 12:47:18",152734,16,"task-yf9l",NA,33515719,9922638,NA,"complete",NA,"6571b65c0e93731c3ef24841","computer","Desktop or Laptop","Windows 10","Chrome 120.0.0.0","1920x1080","1920x955",NA,NA,0,"Gambling (Clone)",29,"In","BCADLEKFJGIH",NA,"In","GambleNorm",25,"Rating","Screen 1","hx8b5a",1,"response","66",1244.39999999999,1828.29999999999,1834.99999999403,1244.39999999999,1828.29999999999,1834.99999999403,1,1244.39999999999,590.59999999404,0,NA,"Slider","MoodSlider",2,"object-243","Rating","bored","not bored","bored",9,"",NA,NA,NA,NA,NA,NA,"Left",NA,-8,NA,NA,NA,0.2,"MDPRF71538"
"85",1701953239176,"07/12/2023 12:47:19",1701953239176,0,"07/12/2023 12:47:19",152734,16,"task-yf9l",NA,33515719,9922638,NA,"complete",NA,"6571b65c0e93731c3ef24841","computer","Desktop or Laptop","Windows 10","Chrome 120.0.0.0","1920x1080","1920x955",NA,NA,0,"Gambling (Clone)",29,"In","BCADLEKFJGIH",NA,"In","GambleNorm",26,"Rating","Screen 1","hx8b5a",1,"continue","",1036.99999999107,1035.89999999999,1036.99999999107,1036.99999999107,1035.89999999999,1036.99999999107,1,1036.99999999107,0,0,NA,"Click To Continue","Continue Button",3,"object-25","Rating","happy","unhappy","happy",9,"",NA,NA,NA,NA,NA,NA,"Left",NA,-8,NA,NA,NA,0.2,"MDPRF71538"
"86",1701953239176,"07/12/2023 12:47:19",1701953239176,0,"07/12/2023 12:47:19",152734,16,"task-yf9l",NA,33515719,9922638,NA,"complete",NA,"6571b65c0e93731c3ef24841","computer","Desktop or Laptop","Windows 10","Chrome 120.0.0.0","1920x1080","1920x955",NA,NA,0,"Gambling (Clone)",29,"In","BCADLEKFJGIH",NA,"In","GambleNorm",26,"Rating","Screen 1","hx8b5a",1,"response","67",549.200000000012,1035.89999999999,1037.29999998808,549.200000000012,1035.89999999999,1037.29999998808,1,549.200000000012,488.099999988073,0,NA,"Slider","MoodSlider",2,"object-243","Rating","happy","unhappy","happy",9,"",NA,NA,NA,NA,NA,NA,"Left",NA,-8,NA,NA,NA,0.2,"MDPRF71538"
"87",1701953240372,"07/12/2023 12:47:20",1701953240372,0,"07/12/2023 12:47:20",152734,16,"task-yf9l",NA,33515719,9922638,NA,"complete",NA,"6571b65c0e93731c3ef24841","computer","Desktop or Laptop","Windows 10","Chrome 120.0.0.0","1920x1080","1920x955",NA,NA,0,"Gambling (Clone)",29,"In","BCADLEKFJGIH",NA,"In","GambleNorm",27,"Rating","Screen 1","hx8b5a",1,"continue","",1197.49999999703,1195.60000000001,1197.49999999703,1197.49999999703,1195.60000000001,1197.49999999703,1,1197.49999999703,0,0,NA,"Click To Continue","Continue Button",3,"object-25","Rating","frustrated","not frustrated","frustrated",9,"",NA,NA,NA,NA,NA,NA,"Left",NA,-8,NA,NA,NA,0.2,"MDPRF71538"
"88",1701953240373,"07/12/2023 12:47:20",1701953240373,0,"07/12/2023 12:47:20",152734,16,"task-yf9l",NA,33515719,9922638,NA,"complete",NA,"6571b65c0e93731c3ef24841","computer","Desktop or Laptop","Windows 10","Chrome 120.0.0.0","1920x1080","1920x955",NA,NA,0,"Gambling (Clone)",29,"In","BCADLEKFJGIH",NA,"In","GambleNorm",27,"Rating","Screen 1","hx8b5a",1,"response","68",709,1195.60000000001,1197.70000000001,709,1195.60000000001,1197.70000000001,1,709,488.700000000012,0,NA,"Slider","MoodSlider",2,"object-243","Rating","frustrated","not frustrated","frustrated",9,"",NA,NA,NA,NA,NA,NA,"Left",NA,-8,NA,NA,NA,0.2,"MDPRF71538"
"89",1701953242359,"07/12/2023 12:47:22",1701953242359,0,"07/12/2023 12:47:22",152734,16,"task-yf9l",NA,33515719,9922638,NA,"complete",NA,"6571b65c0e93731c3ef24841","computer","Desktop or Laptop","Windows 10","Chrome 120.0.0.0","1920x1080","1920x955",NA,NA,0,"Gambling (Clone)",29,"In","BCADLEKFJGIH",NA,"In","GambleNorm",2,"lossT","Screen 1","2oxi65",1,"continue","",1988.30000000002,1988.30000000002,1988.30000000002,1988.30000000002,1988.30000000002,1988.30000000002,1,1988.30000000002,0,0,NA,"Fixation Timing","Fixation",1,"object-354","lossT","","","",NA,"Right",3,2,4,7,6,NA,"Left",NA,-8,NA,NA,NA,0.2,"MDPRF71538"
"90",1701953242412,"07/12/2023 12:47:22",1701953242412,0,"07/12/2023 12:47:22",152734,16,"task-yf9l",NA,33515719,9922638,NA,"complete",NA,"6571b65c0e93731c3ef24841","computer","Desktop or Laptop","Windows 10","Chrome 120.0.0.0","1920x1080","1920x955",NA,NA,0,"Gambling (Clone)",29,"In","BCADLEKFJGIH",NA,"In","GambleNorm",2,"lossT","choice","zjftf8",2,"response","Right",52.6999999910477,48.5999999999767,52.6999999910477,52.6999999910477,48.5999999999767,52.6999999910477,1,52.6999999910477,0,0,NA,"Keyboard Response","KeyResponseG",6,"object-352","lossT","","","",NA,"Right",3,2,4,7,6,NA,"Right",NA,-6,NA,NA,NA,0.2,"MDPRF71538"
"91",1701953243409,"07/12/2023 12:47:23",1701953243409,0,"07/12/2023 12:47:23",152734,16,"task-yf9l",NA,33515719,9922638,NA,"complete",NA,"6571b65c0e93731c3ef24841","computer","Desktop or Laptop","Windows 10","Chrome 120.0.0.0","1920x1080","1920x955",NA,NA,0,"Gambling (Clone)",29,"In","BCADLEKFJGIH",NA,"In","GambleNorm",2,"lossT","loss","kmnw8b",3,"timedOut","",1001.20000000001,1001.10000000001,1001.20000000001,1001.20000000001,1001.10000000001,1001.20000000001,1,1001.20000000001,0,0,NA,"Time Limit","screen",0,"screen","lossT","","","",NA,"Right",3,2,4,7,6,NA,"Right",NA,-6,NA,NA,NA,0.2,"MDPRF71538"
"92",1701953245010,"07/12/2023 12:47:25",1701953245010,0,"07/12/2023 12:47:25",152734,16,"task-yf9l",NA,33515719,9922638,NA,"complete",NA,"6571b65c0e93731c3ef24841","computer","Desktop or Laptop","Windows 10","Chrome 120.0.0.0","1920x1080","1920x955",NA,NA,0,"Gambling (Clone)",29,"In","BCADLEKFJGIH",NA,"In","GambleNorm",28,"Rating","Screen 1","hx8b5a",1,"continue","",1601.49999999107,1598.80000000002,1601.49999999107,1601.49999999107,1598.80000000002,1601.49999999107,1,1601.49999999107,0,0,NA,"Click To Continue","Continue Button",3,"object-25","Rating","happy","unhappy","happy",10,"",NA,NA,NA,NA,NA,NA,"Right",NA,-6,NA,NA,NA,0.2,"MDPRF71538"
"93",1701953245010,"07/12/2023 12:47:25",1701953245010,0,"07/12/2023 12:47:25",152734,16,"task-yf9l",NA,33515719,9922638,NA,"complete",NA,"6571b65c0e93731c3ef24841","computer","Desktop or Laptop","Windows 10","Chrome 120.0.0.0","1920x1080","1920x955",NA,NA,0,"Gambling (Clone)",29,"In","BCADLEKFJGIH",NA,"In","GambleNorm",28,"Rating","Screen 1","hx8b5a",1,"response","68",1105.30000000002,1598.80000000002,1601.89999999703,1105.30000000002,1598.80000000002,1601.89999999703,1,1105.30000000002,496.599999997008,0,NA,"Slider","MoodSlider",2,"object-243","Rating","happy","unhappy","happy",10,"",NA,NA,NA,NA,NA,NA,"Right",NA,-6,NA,NA,NA,0.2,"MDPRF71538"
"94",1701953246618,"07/12/2023 12:47:26",1701953246618,0,"07/12/2023 12:47:26",152734,16,"task-yf9l",NA,33515719,9922638,NA,"complete",NA,"6571b65c0e93731c3ef24841","computer","Desktop or Laptop","Windows 10","Chrome 120.0.0.0","1920x1080","1920x955",NA,NA,0,"Gambling (Clone)",29,"In","BCADLEKFJGIH",NA,"In","GambleNorm",29,"Rating","Screen 1","hx8b5a",1,"continue","",1610.49999998807,1606,1610.49999998807,1610.49999998807,1606,1610.49999998807,1,1610.49999998807,0,0,NA,"Click To Continue","Continue Button",3,"object-25","Rating","bored","not bored","bored",10,"",NA,NA,NA,NA,NA,NA,"Right",NA,-6,NA,NA,NA,0.2,"MDPRF71538"
"95",1701953246618,"07/12/2023 12:47:26",1701953246618,0,"07/12/2023 12:47:26",152734,16,"task-yf9l",NA,33515719,9922638,NA,"complete",NA,"6571b65c0e93731c3ef24841","computer","Desktop or Laptop","Windows 10","Chrome 120.0.0.0","1920x1080","1920x955",NA,NA,0,"Gambling (Clone)",29,"In","BCADLEKFJGIH",NA,"In","GambleNorm",29,"Rating","Screen 1","hx8b5a",1,"response","65",1133.19999999998,1606,1610.89999999403,1133.19999999998,1606,1610.89999999403,1,1133.19999999998,477.699999994045,0,NA,"Slider","MoodSlider",2,"object-243","Rating","bored","not bored","bored",10,"",NA,NA,NA,NA,NA,NA,"Right",NA,-6,NA,NA,NA,0.2,"MDPRF71538"
"96",1701953247524,"07/12/2023 12:47:27",1701953247524,0,"07/12/2023 12:47:27",152734,16,"task-yf9l",NA,33515719,9922638,NA,"complete",NA,"6571b65c0e93731c3ef24841","computer","Desktop or Laptop","Windows 10","Chrome 120.0.0.0","1920x1080","1920x955",NA,NA,0,"Gambling (Clone)",29,"In","BCADLEKFJGIH",NA,"In","GambleNorm",30,"Rating","Screen 1","hx8b5a",1,"continue","",910.499999999971,903.599999999977,910.499999999971,910.499999999971,903.599999999977,910.499999999971,1,910.499999999971,0,0,NA,"Click To Continue","Continue Button",3,"object-25","Rating","frustrated","not frustrated","frustrated",10,"",NA,NA,NA,NA,NA,NA,"Right",NA,-6,NA,NA,NA,0.2,"MDPRF71538"
"97",1701953247525,"07/12/2023 12:47:27",1701953247525,0,"07/12/2023 12:47:27",152734,16,"task-yf9l",NA,33515719,9922638,NA,"complete",NA,"6571b65c0e93731c3ef24841","computer","Desktop or Laptop","Windows 10","Chrome 120.0.0.0","1920x1080","1920x955",NA,NA,0,"Gambling (Clone)",29,"In","BCADLEKFJGIH",NA,"In","GambleNorm",30,"Rating","Screen 1","hx8b5a",1,"response","67",458.699999999983,903.599999999977,910.499999999971,458.699999999983,903.599999999977,910.499999999971,1,458.699999999983,451.799999999988,0,NA,"Slider","MoodSlider",2,"object-243","Rating","frustrated","not frustrated","frustrated",10,"",NA,NA,NA,NA,NA,NA,"Right",NA,-6,NA,NA,NA,0.2,"MDPRF71538"
"98",1701953249505,"07/12/2023 12:47:29",1701953249505,0,"07/12/2023 12:47:29",152734,16,"task-yf9l",NA,33515719,9922638,NA,"complete",NA,"6571b65c0e93731c3ef24841","computer","Desktop or Laptop","Windows 10","Chrome 120.0.0.0","1920x1080","1920x955",NA,NA,0,"Gambling (Clone)",29,"In","BCADLEKFJGIH",NA,"In","GambleNorm",3,"lossT","Screen 1","2oxi65",1,"continue","",1988.20000000001,1988.20000000001,1988.20000000001,1988.20000000001,1988.20000000001,1988.20000000001,1,1988.20000000001,0,0,NA,"Fixation Timing","Fixation",1,"object-354","lossT","","","",NA,"Right",0,-3,7,19,18,NA,"Right",NA,-6,NA,NA,NA,0.2,"MDPRF71538"
"99",1701953249540,"07/12/2023 12:47:29",1701953249540,0,"07/12/2023 12:47:29",152734,16,"task-yf9l",NA,33515719,9922638,NA,"complete",NA,"6571b65c0e93731c3ef24841","computer","Desktop or Laptop","Windows 10","Chrome 120.0.0.0","1920x1080","1920x955",NA,NA,0,"Gambling (Clone)",29,"In","BCADLEKFJGIH",NA,"In","GambleNorm",3,"lossT","choice","zjftf8",2,"response","Right",34.3999999910593,27.8999999999942,34.3999999910593,34.3999999910593,27.8999999999942,34.3999999910593,1,34.3999999910593,0,0,NA,"Keyboard Response","KeyResponseG",6,"object-352","lossT","","","",NA,"Right",0,-3,7,19,18,NA,"Right",NA,-9,NA,NA,NA,0.2,"MDPRF71538"
"100",1701953250534,"07/12/2023 12:47:30",1701953250534,0,"07/12/2023 12:47:30",152734,16,"task-yf9l",NA,33515719,9922638,NA,"complete",NA,"6571b65c0e93731c3ef24841","computer","Desktop or Laptop","Windows 10","Chrome 120.0.0.0","1920x1080","1920x955",NA,NA,0,"Gambling (Clone)",29,"In","BCADLEKFJGIH",NA,"In","GambleNorm",3,"lossT","loss","kmnw8b",3,"timedOut","",1001.10000000001,1001,1001.10000000001,1001.10000000001,1001,1001.10000000001,1,1001.10000000001,0,0,NA,"Time Limit","screen",0,"screen","lossT","","","",NA,"Right",0,-3,7,19,18,NA,"Right",NA,-9,NA,NA,NA,0.2,"MDPRF71538"
"101",1701953251870,"07/12/2023 12:47:31",1701953251870,0,"07/12/2023 12:47:31",152734,16,"task-yf9l",NA,33515719,9922638,NA,"complete",NA,"6571b65c0e93731c3ef24841","computer","Desktop or Laptop","Windows 10","Chrome 120.0.0.0","1920x1080","1920x955",NA,NA,0,"Gambling (Clone)",29,"In","BCADLEKFJGIH",NA,"In","GambleNorm",31,"Rating","Screen 1","hx8b5a",1,"continue","",1336.39999999703,1334.70000000001,1336.39999999703,1336.39999999703,1334.70000000001,1336.39999999703,1,1336.39999999703,0,0,NA,"Click To Continue","Continue Button",3,"object-25","Rating","frustrated","not frustrated","frustrated",11,"",NA,NA,NA,NA,NA,NA,"Right",NA,-9,NA,NA,NA,0.2,"MDPRF71538"
"102",1701953251871,"07/12/2023 12:47:31",1701953251871,0,"07/12/2023 12:47:31",152734,16,"task-yf9l",NA,33515719,9922638,NA,"complete",NA,"6571b65c0e93731c3ef24841","computer","Desktop or Laptop","Windows 10","Chrome 120.0.0.0","1920x1080","1920x955",NA,NA,0,"Gambling (Clone)",29,"In","BCADLEKFJGIH",NA,"In","GambleNorm",31,"Rating","Screen 1","hx8b5a",1,"response","74",820.300000000017,1334.70000000001,1336.60000000001,820.300000000017,1334.70000000001,1336.60000000001,1,820.300000000017,516.299999999988,0,NA,"Slider","MoodSlider",2,"object-243","Rating","frustrated","not frustrated","frustrated",11,"",NA,NA,NA,NA,NA,NA,"Right",NA,-9,NA,NA,NA,0.2,"MDPRF71538"
"103",1701953253458,"07/12/2023 12:47:33",1701953253458,0,"07/12/2023 12:47:33",152734,16,"task-yf9l",NA,33515719,9922638,NA,"complete",NA,"6571b65c0e93731c3ef24841","computer","Desktop or Laptop","Windows 10","Chrome 120.0.0.0","1920x1080","1920x955",NA,NA,0,"Gambling (Clone)",29,"In","BCADLEKFJGIH",NA,"In","GambleNorm",32,"Rating","Screen 1","hx8b5a",1,"continue","",1589.09999998807,1585,1589.09999998807,1589.09999998807,1585,1589.09999998807,1,1589.09999998807,0,0,NA,"Click To Continue","Continue Button",3,"object-25","Rating","bored","not bored","bored",11,"",NA,NA,NA,NA,NA,NA,"Right",NA,-9,NA,NA,NA,0.2,"MDPRF71538"
"104",1701953253458,"07/12/2023 12:47:33",1701953253458,0,"07/12/2023 12:47:33",152734,16,"task-yf9l",NA,33515719,9922638,NA,"complete",NA,"6571b65c0e93731c3ef24841","computer","Desktop or Laptop","Windows 10","Chrome 120.0.0.0","1920x1080","1920x955",NA,NA,0,"Gambling (Clone)",29,"In","BCADLEKFJGIH",NA,"In","GambleNorm",32,"Rating","Screen 1","hx8b5a",1,"response","81",896.699999999983,1585,1589.39999999999,896.699999999983,1585,1589.39999999999,1,896.699999999983,692.700000000012,0,NA,"Slider","MoodSlider",2,"object-243","Rating","bored","not bored","bored",11,"",NA,NA,NA,NA,NA,NA,"Right",NA,-9,NA,NA,NA,0.2,"MDPRF71538"
"105",1701953254708,"07/12/2023 12:47:34",1701953254708,0,"07/12/2023 12:47:34",152734,16,"task-yf9l",NA,33515719,9922638,NA,"complete",NA,"6571b65c0e93731c3ef24841","computer","Desktop or Laptop","Windows 10","Chrome 120.0.0.0","1920x1080","1920x955",NA,NA,0,"Gambling (Clone)",29,"In","BCADLEKFJGIH",NA,"In","GambleNorm",33,"Rating","Screen 1","hx8b5a",1,"continue","",1254.59999998807,1251.29999999999,1254.59999998807,1254.59999998807,1251.29999999999,1254.59999998807,1,1254.59999998807,0,0,NA,"Click To Continue","Continue Button",3,"object-25","Rating","happy","unhappy","happy",11,"",NA,NA,NA,NA,NA,NA,"Right",NA,-9,NA,NA,NA,0.2,"MDPRF71538"
"106",1701953254709,"07/12/2023 12:47:34",1701953254709,0,"07/12/2023 12:47:34",152734,16,"task-yf9l",NA,33515719,9922638,NA,"complete",NA,"6571b65c0e93731c3ef24841","computer","Desktop or Laptop","Windows 10","Chrome 120.0.0.0","1920x1080","1920x955",NA,NA,0,"Gambling (Clone)",29,"In","BCADLEKFJGIH",NA,"In","GambleNorm",33,"Rating","Screen 1","hx8b5a",1,"response","91",688.199999999983,1251.29999999999,1254.89999999999,688.199999999983,1251.29999999999,1254.89999999999,1,688.199999999983,566.700000000012,0,NA,"Slider","MoodSlider",2,"object-243","Rating","happy","unhappy","happy",11,"",NA,NA,NA,NA,NA,NA,"Right",NA,-9,NA,NA,NA,0.2,"MDPRF71538"
"107",1701953256693,"07/12/2023 12:47:36",1701953256693,0,"07/12/2023 12:47:36",152734,16,"task-yf9l",NA,33515719,9922638,NA,"complete",NA,"6571b65c0e93731c3ef24841","computer","Desktop or Laptop","Windows 10","Chrome 120.0.0.0","1920x1080","1920x955",NA,NA,0,"Gambling (Clone)",29,"In","BCADLEKFJGIH",NA,"In","GambleNorm",3,"winT","Screen 1","np5pnj",1,"continue","",1988.20000000001,1988.20000000001,1988.20000000001,1988.20000000001,1988.20000000001,1988.20000000001,1,1988.20000000001,0,0,NA,"Fixation Timing","Fixation",1,"object-304","winT","","","",NA,"Right",0,-3,7,13,12,NA,"Right",NA,-9,NA,NA,NA,0.2,"MDPRF71538"
"108",1701953256716,"07/12/2023 12:47:36",1701953256716,0,"07/12/2023 12:47:36",152734,16,"task-yf9l",NA,33515719,9922638,NA,"complete",NA,"6571b65c0e93731c3ef24841","computer","Desktop or Laptop","Windows 10","Chrome 120.0.0.0","1920x1080","1920x955",NA,NA,0,"Gambling (Clone)",29,"In","BCADLEKFJGIH",NA,"In","GambleNorm",3,"winT","choice","gu8zgx",2,"response","Right",22.4999999940337,20.8999999999942,22.4999999940337,22.4999999940337,20.8999999999942,22.4999999940337,1,22.4999999940337,0,0,NA,"Keyboard Response","KeyResponseG",6,"object-326","winT","","","",NA,"Right",0,-3,7,13,12,NA,"Right",NA,-2,NA,NA,NA,0.2,"MDPRF71538"
"109",1701953260712,"07/12/2023 12:47:40",1701953260712,0,"07/12/2023 12:47:40",152734,16,"task-yf9l",NA,33515719,9922638,NA,"complete",NA,"6571b65c0e93731c3ef24841","computer","Desktop or Laptop","Windows 10","Chrome 120.0.0.0","1920x1080","1920x955",NA,NA,0,"Gambling (Clone)",29,"In","BCADLEKFJGIH",NA,"In","GambleNorm",3,"winT","gamble","1lb69u",3,"timedOut","",3997.39999999106,3997.20000000001,3997.39999999106,3997.39999999106,3997.20000000001,3997.39999999106,1,3997.39999999106,0,0,NA,"Time Limit","screen",0,"screen","winT","","","",NA,"Right",0,-3,7,13,12,NA,"Right",NA,-2,NA,NA,NA,0.2,"MDPRF71538"
"110",1701953261713,"07/12/2023 12:47:41",1701953261713,0,"07/12/2023 12:47:41",152734,16,"task-yf9l",NA,33515719,9922638,NA,"complete",NA,"6571b65c0e93731c3ef24841","computer","Desktop or Laptop","Windows 10","Chrome 120.0.0.0","1920x1080","1920x955",NA,NA,0,"Gambling (Clone)",29,"In","BCADLEKFJGIH",NA,"In","GambleNorm",3,"winT","win","dhtsbv",4,"timedOut","",1001.19999999105,1001.09999999998,1001.19999999105,1001.19999999105,1001.09999999998,1001.19999999105,1,1001.19999999105,0,0,NA,"Time Limit","screen",0,"screen","winT","","","",NA,"Right",0,-3,7,13,12,NA,"Right",NA,-2,NA,NA,NA,0.2,"MDPRF71538"
"111",1701953263970,"07/12/2023 12:47:43",1701953263970,0,"07/12/2023 12:47:43",152734,16,"task-yf9l",NA,33515719,9922638,NA,"complete",NA,"6571b65c0e93731c3ef24841","computer","Desktop or Laptop","Windows 10","Chrome 120.0.0.0","1920x1080","1920x955",NA,NA,0,"Gambling (Clone)",29,"In","BCADLEKFJGIH",NA,"In","GambleNorm",34,"Rating","Screen 1","hx8b5a",1,"continue","",2257.89999998809,2252.40000000002,2257.89999998809,2257.89999998809,2252.40000000002,2257.89999998809,1,2257.89999998809,0,0,NA,"Click To Continue","Continue Button",3,"object-25","Rating","happy","unhappy","happy",12,"",NA,NA,NA,NA,NA,NA,"Right",NA,-2,NA,NA,NA,0.2,"MDPRF71538"
"112",1701953263970,"07/12/2023 12:47:43",1701953263970,0,"07/12/2023 12:47:43",152734,16,"task-yf9l",NA,33515719,9922638,NA,"complete",NA,"6571b65c0e93731c3ef24841","computer","Desktop or Laptop","Windows 10","Chrome 120.0.0.0","1920x1080","1920x955",NA,NA,0,"Gambling (Clone)",29,"In","BCADLEKFJGIH",NA,"In","GambleNorm",34,"Rating","Screen 1","hx8b5a",1,"response","78",1591.90000000002,2252.40000000002,2258.09999999107,1591.90000000002,2252.40000000002,2258.09999999107,1,1591.90000000002,666.199999991048,0,NA,"Slider","MoodSlider",2,"object-243","Rating","happy","unhappy","happy",12,"",NA,NA,NA,NA,NA,NA,"Right",NA,-2,NA,NA,NA,0.2,"MDPRF71538"
"113",1701953265373,"07/12/2023 12:47:45",1701953265373,0,"07/12/2023 12:47:45",152734,16,"task-yf9l",NA,33515719,9922638,NA,"complete",NA,"6571b65c0e93731c3ef24841","computer","Desktop or Laptop","Windows 10","Chrome 120.0.0.0","1920x1080","1920x955",NA,NA,0,"Gambling (Clone)",29,"In","BCADLEKFJGIH",NA,"In","GambleNorm",35,"Rating","Screen 1","hx8b5a",1,"continue","",1407.99999998807,1404.19999999998,1407.99999998807,1407.99999998807,1404.19999999998,1407.99999998807,1,1407.99999998807,0,0,NA,"Click To Continue","Continue Button",3,"object-25","Rating","frustrated","not frustrated","frustrated",12,"",NA,NA,NA,NA,NA,NA,"Right",NA,-2,NA,NA,NA,0.2,"MDPRF71538"
"114",1701953265373,"07/12/2023 12:47:45",1701953265373,0,"07/12/2023 12:47:45",152734,16,"task-yf9l",NA,33515719,9922638,NA,"complete",NA,"6571b65c0e93731c3ef24841","computer","Desktop or Laptop","Windows 10","Chrome 120.0.0.0","1920x1080","1920x955",NA,NA,0,"Gambling (Clone)",29,"In","BCADLEKFJGIH",NA,"In","GambleNorm",35,"Rating","Screen 1","hx8b5a",1,"response","86",736.899999999994,1404.19999999998,1408.09999999701,736.899999999994,1404.19999999998,1408.09999999701,1,736.899999999994,671.199999997014,0,NA,"Slider","MoodSlider",2,"object-243","Rating","frustrated","not frustrated","frustrated",12,"",NA,NA,NA,NA,NA,NA,"Right",NA,-2,NA,NA,NA,0.2,"MDPRF71538"
"115",1701953267414,"07/12/2023 12:47:47",1701953267414,0,"07/12/2023 12:47:47",152734,16,"task-yf9l",NA,33515719,9922638,NA,"complete",NA,"6571b65c0e93731c3ef24841","computer","Desktop or Laptop","Windows 10","Chrome 120.0.0.0","1920x1080","1920x955",NA,NA,0,"Gambling (Clone)",29,"In","BCADLEKFJGIH",NA,"In","GambleNorm",36,"Rating","Screen 1","hx8b5a",1,"continue","",2045.29999998808,2043.80000000002,2045.29999998808,2045.29999998808,2043.80000000002,2045.29999998808,1,2045.29999998808,0,0,NA,"Click To Continue","Continue Button",3,"object-25","Rating","bored","not bored","bored",12,"",NA,NA,NA,NA,NA,NA,"Right",NA,-2,NA,NA,NA,0.2,"MDPRF71538"
"116",1701953267415,"07/12/2023 12:47:47",1701953267415,0,"07/12/2023 12:47:47",152734,16,"task-yf9l",NA,33515719,9922638,NA,"complete",NA,"6571b65c0e93731c3ef24841","computer","Desktop or Laptop","Windows 10","Chrome 120.0.0.0","1920x1080","1920x955",NA,NA,0,"Gambling (Clone)",29,"In","BCADLEKFJGIH",NA,"In","GambleNorm",36,"Rating","Screen 1","hx8b5a",1,"response","78",1390.30000000002,2043.80000000002,2045.60000000001,1390.30000000002,2043.80000000002,2045.60000000001,1,1390.30000000002,655.299999999988,0,NA,"Slider","MoodSlider",2,"object-243","Rating","bored","not bored","bored",12,"",NA,NA,NA,NA,NA,NA,"Right",NA,-2,NA,NA,NA,0.2,"MDPRF71538"
"117",1701953269401,"07/12/2023 12:47:49",1701953269401,0,"07/12/2023 12:47:49",152734,16,"task-yf9l",NA,33515719,9922638,NA,"complete",NA,"6571b65c0e93731c3ef24841","computer","Desktop or Laptop","Windows 10","Chrome 120.0.0.0","1920x1080","1920x955",NA,NA,0,"Gambling (Clone)",29,"In","BCADLEKFJGIH",NA,"In","GambleNorm",4,"lossB","Screen 1","a4fynh",1,"continue","",1988.09999999998,1988.09999999998,1988.09999999998,1988.09999999998,1988.09999999998,1988.09999999998,1,1988.09999999998,0,0,NA,"Fixation Timing","Fixation",1,"object-113","lossB","","","",NA,"Right",-5,-7,-1,10,9,NA,"Right",NA,-2,NA,NA,NA,0.2,"MDPRF71538"
"118",1701953269460,"07/12/2023 12:47:49",1701953269460,0,"07/12/2023 12:47:49",152734,16,"task-yf9l",NA,33515719,9922638,NA,"complete",NA,"6571b65c0e93731c3ef24841","computer","Desktop or Laptop","Windows 10","Chrome 120.0.0.0","1920x1080","1920x955",NA,NA,0,"Gambling (Clone)",29,"In","BCADLEKFJGIH",NA,"In","GambleNorm",4,"lossB","choice","k9qq8f",2,"response","Left",59.099999991071,55.8000000000175,59.099999991071,59.099999991071,55.8000000000175,59.099999991071,0,59.099999991071,0,0,NA,"Keyboard Response","KeyResponseC",5,"object-199","lossB","","","",NA,"Right",-5,-7,-1,10,9,NA,"Left",NA,-7,NA,NA,NA,0.2,"MDPRF71538"
"119",1701953274455,"07/12/2023 12:47:54",1701953274455,0,"07/12/2023 12:47:54",152734,16,"task-yf9l",NA,33515719,9922638,NA,"complete",NA,"6571b65c0e93731c3ef24841","computer","Desktop or Laptop","Windows 10","Chrome 120.0.0.0","1920x1080","1920x955",NA,NA,0,"Gambling (Clone)",29,"In","BCADLEKFJGIH",NA,"In","GambleNorm",4,"lossB","certain","rptf8c",3,"timedOut","",4998.39999999999,4998.19999999998,4998.39999999999,4998.39999999999,4998.19999999998,4998.39999999999,1,4998.39999999999,0,0,NA,"Time Limit","screen",0,"screen","lossB","","","",NA,"Right",-5,-7,-1,10,9,NA,"Left",NA,-7,NA,NA,NA,0.2,"MDPRF71538"
"120",1701953276001,"07/12/2023 12:47:56",1701953276001,0,"07/12/2023 12:47:56",152734,16,"task-yf9l",NA,33515719,9922638,NA,"complete",NA,"6571b65c0e93731c3ef24841","computer","Desktop or Laptop","Windows 10","Chrome 120.0.0.0","1920x1080","1920x955",NA,NA,0,"Gambling (Clone)",29,"In","BCADLEKFJGIH",NA,"In","GambleNorm",37,"Rating","Screen 1","hx8b5a",1,"continue","",1545.99999999703,1543.30000000002,1545.99999999703,1545.99999999703,1543.30000000002,1545.99999999703,1,1545.99999999703,0,0,NA,"Click To Continue","Continue Button",3,"object-25","Rating","bored","not bored","bored",13,"",NA,NA,NA,NA,NA,NA,"Left",NA,-7,NA,NA,NA,0.2,"MDPRF71538"
"121",1701953276001,"07/12/2023 12:47:56",1701953276001,0,"07/12/2023 12:47:56",152734,16,"task-yf9l",NA,33515719,9922638,NA,"complete",NA,"6571b65c0e93731c3ef24841","computer","Desktop or Laptop","Windows 10","Chrome 120.0.0.0","1920x1080","1920x955",NA,NA,0,"Gambling (Clone)",29,"In","BCADLEKFJGIH",NA,"In","GambleNorm",37,"Rating","Screen 1","hx8b5a",1,"response","76",368.400000000023,1543.30000000002,1546.20000000001,368.400000000023,1543.30000000002,1546.20000000001,1,368.400000000023,1177.79999999999,0,NA,"Slider","MoodSlider",2,"object-243","Rating","bored","not bored","bored",13,"",NA,NA,NA,NA,NA,NA,"Left",NA,-7,NA,NA,NA,0.2,"MDPRF71538"
"122",1701953277024,"07/12/2023 12:47:57",1701953277024,0,"07/12/2023 12:47:57",152734,16,"task-yf9l",NA,33515719,9922638,NA,"complete",NA,"6571b65c0e93731c3ef24841","computer","Desktop or Laptop","Windows 10","Chrome 120.0.0.0","1920x1080","1920x955",NA,NA,0,"Gambling (Clone)",29,"In","BCADLEKFJGIH",NA,"In","GambleNorm",38,"Rating","Screen 1","hx8b5a",1,"continue","",1026.19999999701,1021.89999999999,1026.19999999701,1026.19999999701,1021.89999999999,1026.19999999701,1,1026.19999999701,0,0,NA,"Click To Continue","Continue Button",3,"object-25","Rating","happy","unhappy","happy",13,"",NA,NA,NA,NA,NA,NA,"Left",NA,-7,NA,NA,NA,0.2,"MDPRF71538"
"123",1701953277025,"07/12/2023 12:47:57",1701953277025,0,"07/12/2023 12:47:57",152734,16,"task-yf9l",NA,33515719,9922638,NA,"complete",NA,"6571b65c0e93731c3ef24841","computer","Desktop or Laptop","Windows 10","Chrome 120.0.0.0","1920x1080","1920x955",NA,NA,0,"Gambling (Clone)",29,"In","BCADLEKFJGIH",NA,"In","GambleNorm",38,"Rating","Screen 1","hx8b5a",1,"response","75",507.5,1021.89999999999,1026.39999999999,507.5,1021.89999999999,1026.39999999999,1,507.5,518.899999999994,0,NA,"Slider","MoodSlider",2,"object-243","Rating","happy","unhappy","happy",13,"",NA,NA,NA,NA,NA,NA,"Left",NA,-7,NA,NA,NA,0.2,"MDPRF71538"
"124",1701953278411,"07/12/2023 12:47:58",1701953278411,0,"07/12/2023 12:47:58",152734,16,"task-yf9l",NA,33515719,9922638,NA,"complete",NA,"6571b65c0e93731c3ef24841","computer","Desktop or Laptop","Windows 10","Chrome 120.0.0.0","1920x1080","1920x955",NA,NA,0,"Gambling (Clone)",29,"In","BCADLEKFJGIH",NA,"In","GambleNorm",39,"Rating","Screen 1","hx8b5a",1,"continue","",1390.39999999106,1383.39999999999,1390.39999999106,1390.39999999106,1383.39999999999,1390.39999999106,1,1390.39999999106,0,0,NA,"Click To Continue","Continue Button",3,"object-25","Rating","frustrated","not frustrated","frustrated",13,"",NA,NA,NA,NA,NA,NA,"Left",NA,-7,NA,NA,NA,0.2,"MDPRF71538"
"125",1701953278411,"07/12/2023 12:47:58",1701953278411,0,"07/12/2023 12:47:58",152734,16,"task-yf9l",NA,33515719,9922638,NA,"complete",NA,"6571b65c0e93731c3ef24841","computer","Desktop or Laptop","Windows 10","Chrome 120.0.0.0","1920x1080","1920x955",NA,NA,0,"Gambling (Clone)",29,"In","BCADLEKFJGIH",NA,"In","GambleNorm",39,"Rating","Screen 1","hx8b5a",1,"response","44",862.100000000006,1383.39999999999,1390.39999999999,862.100000000006,1383.39999999999,1390.39999999999,1,862.100000000006,528.299999999988,0,NA,"Slider","MoodSlider",2,"object-243","Rating","frustrated","not frustrated","frustrated",13,"",NA,NA,NA,NA,NA,NA,"Left",NA,-7,NA,NA,NA,0.2,"MDPRF71538"
"126",1701953280392,"07/12/2023 12:48:00",1701953280392,0,"07/12/2023 12:48:00",152734,16,"task-yf9l",NA,33515719,9922638,NA,"complete",NA,"6571b65c0e93731c3ef24841","computer","Desktop or Laptop","Windows 10","Chrome 120.0.0.0","1920x1080","1920x955",NA,NA,0,"Gambling (Clone)",29,"In","BCADLEKFJGIH",NA,"In","GambleNorm",3,"winB","Screen 1","pkkyi8",1,"continue","",1988.20000000001,1988.20000000001,1988.20000000001,1988.20000000001,1988.20000000001,1988.20000000001,1,1988.20000000001,0,0,NA,"Fixation Timing","Fixation",1,"object-246","winB","","","",NA,"Right",2,-1,9,23,22,NA,"Left",NA,-7,NA,NA,NA,0.2,"MDPRF71538"
"127",1701953280500,"07/12/2023 12:48:00",1701953280500,0,"07/12/2023 12:48:00",152734,16,"task-yf9l",NA,33515719,9922638,NA,"complete",NA,"6571b65c0e93731c3ef24841","computer","Desktop or Laptop","Windows 10","Chrome 120.0.0.0","1920x1080","1920x955",NA,NA,0,"Gambling (Clone)",29,"In","BCADLEKFJGIH",NA,"In","GambleNorm",3,"winB","choice","5lszbx",2,"response","Left",108.499999994034,104.199999999983,108.499999994034,108.499999994034,104.199999999983,108.499999994034,0,108.499999994034,0,0,NA,"Keyboard Response","KeyResponseC",5,"object-255","winB","","","",NA,"Right",2,-1,9,23,22,NA,"Left",NA,-5,NA,NA,NA,0.2,"MDPRF71538"
"128",1701953285494,"07/12/2023 12:48:05",1701953285494,0,"07/12/2023 12:48:05",152734,16,"task-yf9l",NA,33515719,9922638,NA,"complete",NA,"6571b65c0e93731c3ef24841","computer","Desktop or Laptop","Windows 10","Chrome 120.0.0.0","1920x1080","1920x955",NA,NA,0,"Gambling (Clone)",29,"In","BCADLEKFJGIH",NA,"In","GambleNorm",3,"winB","certain","nw4etn",3,"timedOut","",4998.49999999703,4998.40000000002,4998.49999999703,4998.49999999703,4998.40000000002,4998.49999999703,1,4998.49999999703,0,0,NA,"Time Limit","screen",0,"screen","winB","","","",NA,"Right",2,-1,9,23,22,NA,"Left",NA,-5,NA,NA,NA,0.2,"MDPRF71538"
"129",1701953286990,"07/12/2023 12:48:06",1701953286990,0,"07/12/2023 12:48:06",152734,16,"task-yf9l",NA,33515719,9922638,NA,"complete",NA,"6571b65c0e93731c3ef24841","computer","Desktop or Laptop","Windows 10","Chrome 120.0.0.0","1920x1080","1920x955",NA,NA,0,"Gambling (Clone)",29,"In","BCADLEKFJGIH",NA,"In","GambleNorm",40,"Rating","Screen 1","hx8b5a",1,"continue","",1496.29999999999,1494.59999999998,1496.29999999999,1496.29999999999,1494.59999999998,1496.29999999999,1,1496.29999999999,0,0,NA,"Click To Continue","Continue Button",3,"object-25","Rating","frustrated","not frustrated","frustrated",14,"",NA,NA,NA,NA,NA,NA,"Left",NA,-5,NA,NA,NA,0.2,"MDPRF71538"
"130",1701953286990,"07/12/2023 12:48:06",1701953286990,0,"07/12/2023 12:48:06",152734,16,"task-yf9l",NA,33515719,9922638,NA,"complete",NA,"6571b65c0e93731c3ef24841","computer","Desktop or Laptop","Windows 10","Chrome 120.0.0.0","1920x1080","1920x955",NA,NA,0,"Gambling (Clone)",29,"In","BCADLEKFJGIH",NA,"In","GambleNorm",40,"Rating","Screen 1","hx8b5a",1,"response","72",750.699999999983,1494.59999999998,1496.39999999403,750.699999999983,1494.59999999998,1496.39999999403,1,750.699999999983,745.699999994045,0,NA,"Slider","MoodSlider",2,"object-243","Rating","frustrated","not frustrated","frustrated",14,"",NA,NA,NA,NA,NA,NA,"Left",NA,-5,NA,NA,NA,0.2,"MDPRF71538"
"131",1701953288558,"07/12/2023 12:48:08",1701953288558,0,"07/12/2023 12:48:08",152734,16,"task-yf9l",NA,33515719,9922638,NA,"complete",NA,"6571b65c0e93731c3ef24841","computer","Desktop or Laptop","Windows 10","Chrome 120.0.0.0","1920x1080","1920x955",NA,NA,0,"Gambling (Clone)",29,"In","BCADLEKFJGIH",NA,"In","GambleNorm",41,"Rating","Screen 1","hx8b5a",1,"continue","",1569.59999999107,1564.20000000001,1569.59999999107,1569.59999999107,1564.20000000001,1569.59999999107,1,1569.59999999107,0,0,NA,"Click To Continue","Continue Button",3,"object-25","Rating","happy","unhappy","happy",14,"",NA,NA,NA,NA,NA,NA,"Left",NA,-5,NA,NA,NA,0.2,"MDPRF71538"
"132",1701953288558,"07/12/2023 12:48:08",1701953288558,0,"07/12/2023 12:48:08",152734,16,"task-yf9l",NA,33515719,9922638,NA,"complete",NA,"6571b65c0e93731c3ef24841","computer","Desktop or Laptop","Windows 10","Chrome 120.0.0.0","1920x1080","1920x955",NA,NA,0,"Gambling (Clone)",29,"In","BCADLEKFJGIH",NA,"In","GambleNorm",41,"Rating","Screen 1","hx8b5a",1,"response","48",778.5,1564.20000000001,1569.89999998809,778.5,1564.20000000001,1569.89999998809,1,778.5,791.399999988091,0,NA,"Slider","MoodSlider",2,"object-243","Rating","happy","unhappy","happy",14,"",NA,NA,NA,NA,NA,NA,"Left",NA,-5,NA,NA,NA,0.2,"MDPRF71538"
"133",1701953289686,"07/12/2023 12:48:09",1701953289686,0,"07/12/2023 12:48:09",152734,16,"task-yf9l",NA,33515719,9922638,NA,"complete",NA,"6571b65c0e93731c3ef24841","computer","Desktop or Laptop","Windows 10","Chrome 120.0.0.0","1920x1080","1920x955",NA,NA,0,"Gambling (Clone)",29,"In","BCADLEKFJGIH",NA,"In","GambleNorm",42,"Rating","Screen 1","hx8b5a",1,"continue","",1133.59999999404,1133,1133.59999999404,1133.59999999404,1133,1133.59999999404,1,1133.59999999404,0,0,NA,"Click To Continue","Continue Button",3,"object-25","Rating","bored","not bored","bored",14,"",NA,NA,NA,NA,NA,NA,"Left",NA,-5,NA,NA,NA,0.2,"MDPRF71538"
"134",1701953289686,"07/12/2023 12:48:09",1701953289686,0,"07/12/2023 12:48:09",152734,16,"task-yf9l",NA,33515719,9922638,NA,"complete",NA,"6571b65c0e93731c3ef24841","computer","Desktop or Laptop","Windows 10","Chrome 120.0.0.0","1920x1080","1920x955",NA,NA,0,"Gambling (Clone)",29,"In","BCADLEKFJGIH",NA,"In","GambleNorm",42,"Rating","Screen 1","hx8b5a",1,"response","64",549.200000000012,1133,1133.79999999702,549.200000000012,1133,1133.79999999702,1,549.200000000012,584.599999997008,0,NA,"Slider","MoodSlider",2,"object-243","Rating","bored","not bored","bored",14,"",NA,NA,NA,NA,NA,NA,"Left",NA,-5,NA,NA,NA,0.2,"MDPRF71538"
"135",1701953291674,"07/12/2023 12:48:11",1701953291674,0,"07/12/2023 12:48:11",152734,16,"task-yf9l",NA,33515719,9922638,NA,"complete",NA,"6571b65c0e93731c3ef24841","computer","Desktop or Laptop","Windows 10","Chrome 120.0.0.0","1920x1080","1920x955",NA,NA,0,"Gambling (Clone)",29,"In","BCADLEKFJGIH",NA,"In","GambleNorm",4,"winB","Screen 1","pkkyi8",1,"continue","",1988.20000000001,1988.20000000001,1988.20000000001,1988.20000000001,1988.20000000001,1988.20000000001,1,1988.20000000001,0,0,NA,"Fixation Timing","Fixation",1,"object-246","winB","","","",NA,"Right",-4,-7,3,8,7,NA,"Left",NA,-5,NA,NA,NA,0.2,"MDPRF71538"
"136",1701953291820,"07/12/2023 12:48:11",1701953291820,0,"07/12/2023 12:48:11",152734,16,"task-yf9l",NA,33515719,9922638,NA,"complete",NA,"6571b65c0e93731c3ef24841","computer","Desktop or Laptop","Windows 10","Chrome 120.0.0.0","1920x1080","1920x955",NA,NA,0,"Gambling (Clone)",29,"In","BCADLEKFJGIH",NA,"In","GambleNorm",4,"winB","choice","5lszbx",2,"response","Right",145.999999988067,139.099999999977,145.999999988067,145.999999988067,139.099999999977,145.999999988067,1,145.999999988067,0,0,NA,"Keyboard Response","KeyResponseG",6,"object-256","winB","","","",NA,"Right",-4,-7,3,8,7,NA,"Right",NA,-6,NA,NA,NA,0.2,"MDPRF71538"
"137",1701953292814,"07/12/2023 12:48:12",1701953292814,0,"07/12/2023 12:48:12",152734,16,"task-yf9l",NA,33515719,9922638,NA,"complete",NA,"6571b65c0e93731c3ef24841","computer","Desktop or Laptop","Windows 10","Chrome 120.0.0.0","1920x1080","1920x955",NA,NA,0,"Gambling (Clone)",29,"In","BCADLEKFJGIH",NA,"In","GambleNorm",4,"winB","win","dzz5jr",3,"timedOut","",1001.20000000001,1001,1001.20000000001,1001.20000000001,1001,1001.20000000001,1,1001.20000000001,0,0,NA,"Time Limit","screen",0,"screen","winB","","","",NA,"Right",-4,-7,3,8,7,NA,"Right",NA,-6,NA,NA,NA,0.2,"MDPRF71538"
"138",1701953295088,"07/12/2023 12:48:15",1701953295088,0,"07/12/2023 12:48:15",152734,16,"task-yf9l",NA,33515719,9922638,NA,"complete",NA,"6571b65c0e93731c3ef24841","computer","Desktop or Laptop","Windows 10","Chrome 120.0.0.0","1920x1080","1920x955",NA,NA,0,"Gambling (Clone)",29,"In","BCADLEKFJGIH",NA,"In","GambleNorm",43,"Rating","Screen 1","hx8b5a",1,"continue","",2274.59999999107,2273.20000000001,2274.59999999107,2274.59999999107,2273.20000000001,2274.59999999107,1,2274.59999999107,0,0,NA,"Click To Continue","Continue Button",3,"object-25","Rating","bored","not bored","bored",15,"",NA,NA,NA,NA,NA,NA,"Right",NA,-6,NA,NA,NA,0.2,"MDPRF71538"
"139",1701953295089,"07/12/2023 12:48:15",1701953295089,0,"07/12/2023 12:48:15",152734,16,"task-yf9l",NA,33515719,9922638,NA,"complete",NA,"6571b65c0e93731c3ef24841","computer","Desktop or Laptop","Windows 10","Chrome 120.0.0.0","1920x1080","1920x955",NA,NA,0,"Gambling (Clone)",29,"In","BCADLEKFJGIH",NA,"In","GambleNorm",43,"Rating","Screen 1","hx8b5a",1,"response","62",1744.90000000002,2273.20000000001,2274.89999998809,1744.90000000002,2273.20000000001,2274.89999998809,1,1744.90000000002,529.999999988067,0,NA,"Slider","MoodSlider",2,"object-243","Rating","bored","not bored","bored",15,"",NA,NA,NA,NA,NA,NA,"Right",NA,-6,NA,NA,NA,0.2,"MDPRF71538"
"140",1701953296214,"07/12/2023 12:48:16",1701953296214,0,"07/12/2023 12:48:16",152734,16,"task-yf9l",NA,33515719,9922638,NA,"complete",NA,"6571b65c0e93731c3ef24841","computer","Desktop or Laptop","Windows 10","Chrome 120.0.0.0","1920x1080","1920x955",NA,NA,0,"Gambling (Clone)",29,"In","BCADLEKFJGIH",NA,"In","GambleNorm",44,"Rating","Screen 1","hx8b5a",1,"continue","",1127.09999999404,1126.29999999999,1127.09999999404,1127.09999999404,1126.29999999999,1127.09999999404,1,1127.09999999404,0,0,NA,"Click To Continue","Continue Button",3,"object-25","Rating","happy","unhappy","happy",15,"",NA,NA,NA,NA,NA,NA,"Right",NA,-6,NA,NA,NA,0.2,"MDPRF71538"
"141",1701953296217,"07/12/2023 12:48:16",1701953296217,0,"07/12/2023 12:48:16",152734,16,"task-yf9l",NA,33515719,9922638,NA,"complete",NA,"6571b65c0e93731c3ef24841","computer","Desktop or Laptop","Windows 10","Chrome 120.0.0.0","1920x1080","1920x955",NA,NA,0,"Gambling (Clone)",29,"In","BCADLEKFJGIH",NA,"In","GambleNorm",44,"Rating","Screen 1","hx8b5a",1,"response","66",674.399999999994,1126.29999999999,1129.59999999404,674.399999999994,1126.29999999999,1129.59999999404,1,674.399999999994,455.199999994045,0,NA,"Slider","MoodSlider",2,"object-243","Rating","happy","unhappy","happy",15,"",NA,NA,NA,NA,NA,NA,"Right",NA,-6,NA,NA,NA,0.2,"MDPRF71538"
"142",1701953297292,"07/12/2023 12:48:17",1701953297292,0,"07/12/2023 12:48:17",152734,16,"task-yf9l",NA,33515719,9922638,NA,"complete",NA,"6571b65c0e93731c3ef24841","computer","Desktop or Laptop","Windows 10","Chrome 120.0.0.0","1920x1080","1920x955",NA,NA,0,"Gambling (Clone)",29,"In","BCADLEKFJGIH",NA,"In","GambleNorm",45,"Rating","Screen 1","hx8b5a",1,"continue","",1078.79999999405,1077.40000000002,1078.79999999405,1078.79999999405,1077.40000000002,1078.79999999405,1,1078.79999999405,0,0,NA,"Click To Continue","Continue Button",3,"object-25","Rating","frustrated","not frustrated","frustrated",15,"",NA,NA,NA,NA,NA,NA,"Right",NA,-6,NA,NA,NA,0.2,"MDPRF71538"
"143",1701953297292,"07/12/2023 12:48:17",1701953297292,0,"07/12/2023 12:48:17",152734,16,"task-yf9l",NA,33515719,9922638,NA,"complete",NA,"6571b65c0e93731c3ef24841","computer","Desktop or Laptop","Windows 10","Chrome 120.0.0.0","1920x1080","1920x955",NA,NA,0,"Gambling (Clone)",29,"In","BCADLEKFJGIH",NA,"In","GambleNorm",45,"Rating","Screen 1","hx8b5a",1,"response","43",611.700000000012,1077.40000000002,1078.89999998809,611.700000000012,1077.40000000002,1078.89999998809,1,611.700000000012,467.199999988079,0,NA,"Slider","MoodSlider",2,"object-243","Rating","frustrated","not frustrated","frustrated",15,"",NA,NA,NA,NA,NA,NA,"Right",NA,-6,NA,NA,NA,0.2,"MDPRF71538"
"144",1701953299279,"07/12/2023 12:48:19",1701953299279,0,"07/12/2023 12:48:19",152734,16,"task-yf9l",NA,33515719,9922638,NA,"complete",NA,"6571b65c0e93731c3ef24841","computer","Desktop or Laptop","Windows 10","Chrome 120.0.0.0","1920x1080","1920x955",NA,NA,0,"Gambling (Clone)",29,"In","BCADLEKFJGIH",NA,"In","GambleNorm",4,"winT","Screen 1","np5pnj",1,"continue","",1988.19999999998,1988.19999999998,1988.19999999998,1988.19999999998,1988.19999999998,1988.19999999998,1,1988.19999999998,0,0,NA,"Fixation Timing","Fixation",1,"object-304","winT","","","",NA,"Right",0,-1,1,17,16,NA,"Right",NA,-6,NA,NA,NA,0.2,"MDPRF71538"
"145",1701953299372,"07/12/2023 12:48:19",1701953299372,0,"07/12/2023 12:48:19",152734,16,"task-yf9l",NA,33515719,9922638,NA,"complete",NA,"6571b65c0e93731c3ef24841","computer","Desktop or Laptop","Windows 10","Chrome 120.0.0.0","1920x1080","1920x955",NA,NA,0,"Gambling (Clone)",29,"In","BCADLEKFJGIH",NA,"In","GambleNorm",4,"winT","choice","gu8zgx",2,"response","Right",93.1000000000058,90.3999999999942,93.1000000000058,93.1000000000058,90.3999999999942,93.1000000000058,1,93.1000000000058,0,0,NA,"Keyboard Response","KeyResponseG",6,"object-326","winT","","","",NA,"Right",0,-1,1,17,16,NA,"Right",NA,-5,NA,NA,NA,0.2,"MDPRF71538"
"146",1701953303367,"07/12/2023 12:48:23",1701953303367,0,"07/12/2023 12:48:23",152734,16,"task-yf9l",NA,33515719,9922638,NA,"complete",NA,"6571b65c0e93731c3ef24841","computer","Desktop or Laptop","Windows 10","Chrome 120.0.0.0","1920x1080","1920x955",NA,NA,0,"Gambling (Clone)",29,"In","BCADLEKFJGIH",NA,"In","GambleNorm",4,"winT","gamble","1lb69u",3,"timedOut","",3997.39999998809,3997.30000000002,3997.39999998809,3997.39999998809,3997.30000000002,3997.39999998809,1,3997.39999998809,0,0,NA,"Time Limit","screen",0,"screen","winT","","","",NA,"Right",0,-1,1,17,16,NA,"Right",NA,-5,NA,NA,NA,0.2,"MDPRF71538"
"147",1701953304368,"07/12/2023 12:48:24",1701953304368,0,"07/12/2023 12:48:24",152734,16,"task-yf9l",NA,33515719,9922638,NA,"complete",NA,"6571b65c0e93731c3ef24841","computer","Desktop or Laptop","Windows 10","Chrome 120.0.0.0","1920x1080","1920x955",NA,NA,0,"Gambling (Clone)",29,"In","BCADLEKFJGIH",NA,"In","GambleNorm",4,"winT","win","dhtsbv",4,"timedOut","",1001.09999998807,1001,1001.09999998807,1001.09999998807,1001,1001.09999998807,1,1001.09999998807,0,0,NA,"Time Limit","screen",0,"screen","winT","","","",NA,"Right",0,-1,1,17,16,NA,"Right",NA,-5,NA,NA,NA,0.2,"MDPRF71538"
"148",1701953306645,"07/12/2023 12:48:26",1701953306645,0,"07/12/2023 12:48:26",152734,16,"task-yf9l",NA,33515719,9922638,NA,"complete",NA,"6571b65c0e93731c3ef24841","computer","Desktop or Laptop","Windows 10","Chrome 120.0.0.0","1920x1080","1920x955",NA,NA,0,"Gambling (Clone)",29,"In","BCADLEKFJGIH",NA,"In","GambleNorm",46,"Rating","Screen 1","hx8b5a",1,"continue","",2277.19999999701,2273.19999999998,2277.19999999701,2277.19999999701,2273.19999999998,2277.19999999701,1,2277.19999999701,0,0,NA,"Click To Continue","Continue Button",3,"object-25","Rating","happy","unhappy","happy",16,"",NA,NA,NA,NA,NA,NA,"Right",NA,-5,NA,NA,NA,0.2,"MDPRF71538"
"149",1701953306646,"07/12/2023 12:48:26",1701953306646,0,"07/12/2023 12:48:26",152734,16,"task-yf9l",NA,33515719,9922638,NA,"complete",NA,"6571b65c0e93731c3ef24841","computer","Desktop or Laptop","Windows 10","Chrome 120.0.0.0","1920x1080","1920x955",NA,NA,0,"Gambling (Clone)",29,"In","BCADLEKFJGIH",NA,"In","GambleNorm",46,"Rating","Screen 1","hx8b5a",1,"response","70",1015,2273.19999999998,2278.59999998807,1015,2273.19999999998,2278.59999998807,1,1015,1263.59999998807,0,NA,"Slider","MoodSlider",2,"object-243","Rating","happy","unhappy","happy",16,"",NA,NA,NA,NA,NA,NA,"Right",NA,-5,NA,NA,NA,0.2,"MDPRF71538"
"150",1701953307918,"07/12/2023 12:48:27",1701953307918,0,"07/12/2023 12:48:27",152734,16,"task-yf9l",NA,33515719,9922638,NA,"complete",NA,"6571b65c0e93731c3ef24841","computer","Desktop or Laptop","Windows 10","Chrome 120.0.0.0","1920x1080","1920x955",NA,NA,0,"Gambling (Clone)",29,"In","BCADLEKFJGIH",NA,"In","GambleNorm",47,"Rating","Screen 1","hx8b5a",1,"continue","",1277.39999998809,1272.20000000001,1277.39999998809,1277.39999998809,1272.20000000001,1277.39999998809,1,1277.39999998809,0,0,NA,"Click To Continue","Continue Button",3,"object-25","Rating","frustrated","not frustrated","frustrated",16,"",NA,NA,NA,NA,NA,NA,"Right",NA,-5,NA,NA,NA,0.2,"MDPRF71538"
"151",1701953307918,"07/12/2023 12:48:27",1701953307918,0,"07/12/2023 12:48:27",152734,16,"task-yf9l",NA,33515719,9922638,NA,"complete",NA,"6571b65c0e93731c3ef24841","computer","Desktop or Laptop","Windows 10","Chrome 120.0.0.0","1920x1080","1920x955",NA,NA,0,"Gambling (Clone)",29,"In","BCADLEKFJGIH",NA,"In","GambleNorm",47,"Rating","Screen 1","hx8b5a",1,"response","64",813.400000000023,1272.20000000001,1277.59999999107,813.400000000023,1272.20000000001,1277.59999999107,1,813.400000000023,464.199999991048,0,NA,"Slider","MoodSlider",2,"object-243","Rating","frustrated","not frustrated","frustrated",16,"",NA,NA,NA,NA,NA,NA,"Right",NA,-5,NA,NA,NA,0.2,"MDPRF71538"
"152",1701953309127,"07/12/2023 12:48:29",1701953309127,0,"07/12/2023 12:48:29",152734,16,"task-yf9l",NA,33515719,9922638,NA,"complete",NA,"6571b65c0e93731c3ef24841","computer","Desktop or Laptop","Windows 10","Chrome 120.0.0.0","1920x1080","1920x955",NA,NA,0,"Gambling (Clone)",29,"In","BCADLEKFJGIH",NA,"In","GambleNorm",48,"Rating","Screen 1","hx8b5a",1,"continue","",1213.59999999404,1209.60000000001,1213.59999999404,1213.59999999404,1209.60000000001,1213.59999999404,1,1213.59999999404,0,0,NA,"Click To Continue","Continue Button",3,"object-25","Rating","bored","not bored","bored",16,"",NA,NA,NA,NA,NA,NA,"Right",NA,-5,NA,NA,NA,0.2,"MDPRF71538"
"153",1701953309127,"07/12/2023 12:48:29",1701953309127,0,"07/12/2023 12:48:29",152734,16,"task-yf9l",NA,33515719,9922638,NA,"complete",NA,"6571b65c0e93731c3ef24841","computer","Desktop or Laptop","Windows 10","Chrome 120.0.0.0","1920x1080","1920x955",NA,NA,0,"Gambling (Clone)",29,"In","BCADLEKFJGIH",NA,"In","GambleNorm",48,"Rating","Screen 1","hx8b5a",1,"response","44",667.399999999994,1209.60000000001,1213.79999999702,667.399999999994,1209.60000000001,1213.79999999702,1,667.399999999994,546.399999997026,0,NA,"Slider","MoodSlider",2,"object-243","Rating","bored","not bored","bored",16,"",NA,NA,NA,NA,NA,NA,"Right",NA,-5,NA,NA,NA,0.2,"MDPRF71538"
"154",1701953311111,"07/12/2023 12:48:31",1701953311111,0,"07/12/2023 12:48:31",152734,16,"task-yf9l",NA,33515719,9922638,NA,"complete",NA,"6571b65c0e93731c3ef24841","computer","Desktop or Laptop","Windows 10","Chrome 120.0.0.0","1920x1080","1920x955",NA,NA,0,"Gambling (Clone)",29,"In","BCADLEKFJGIH",NA,"In","GambleNorm",5,"winT","Screen 1","np5pnj",1,"continue","",1988.19999999998,1988.19999999998,1988.19999999998,1988.19999999998,1988.19999999998,1988.19999999998,1,1988.19999999998,0,0,NA,"Fixation Timing","Fixation",1,"object-304","winT","","","",NA,"Right",-2,-5,5,1,0,NA,"Right",NA,-5,NA,NA,NA,0.2,"MDPRF71538"
"155",1701953311180,"07/12/2023 12:48:31",1701953311180,0,"07/12/2023 12:48:31",152734,16,"task-yf9l",NA,33515719,9922638,NA,"complete",NA,"6571b65c0e93731c3ef24841","computer","Desktop or Laptop","Windows 10","Chrome 120.0.0.0","1920x1080","1920x955",NA,NA,0,"Gambling (Clone)",29,"In","BCADLEKFJGIH",NA,"In","GambleNorm",5,"winT","choice","gu8zgx",2,"response","Left",69.099999991071,62.6000000000058,69.099999991071,69.099999991071,62.6000000000058,69.099999991071,0,69.099999991071,0,0,NA,"Keyboard Response","KeyResponseC",5,"object-325","winT","","","",NA,"Right",-2,-5,5,1,0,NA,"Left",NA,-7,NA,NA,NA,0.2,"MDPRF71538"
"156",1701953316172,"07/12/2023 12:48:36",1701953316172,0,"07/12/2023 12:48:36",152734,16,"task-yf9l",NA,33515719,9922638,NA,"complete",NA,"6571b65c0e93731c3ef24841","computer","Desktop or Laptop","Windows 10","Chrome 120.0.0.0","1920x1080","1920x955",NA,NA,0,"Gambling (Clone)",29,"In","BCADLEKFJGIH",NA,"In","GambleNorm",5,"winT","certain","q11kp8",3,"timedOut","",4998.39999999703,4998.30000000002,4998.39999999703,4998.39999999703,4998.30000000002,4998.39999999703,1,4998.39999999703,0,0,NA,"Time Limit","screen",0,"screen","winT","","","",NA,"Right",-2,-5,5,1,0,NA,"Left",NA,-7,NA,NA,NA,0.2,"MDPRF71538"
"157",1701953317912,"07/12/2023 12:48:37",1701953317912,0,"07/12/2023 12:48:37",152734,16,"task-yf9l",NA,33515719,9922638,NA,"complete",NA,"6571b65c0e93731c3ef24841","computer","Desktop or Laptop","Windows 10","Chrome 120.0.0.0","1920x1080","1920x955",NA,NA,0,"Gambling (Clone)",29,"In","BCADLEKFJGIH",NA,"In","GambleNorm",49,"Rating","Screen 1","hx8b5a",1,"continue","",1740.69999999105,1737.89999999999,1740.69999999105,1740.69999999105,1737.89999999999,1740.69999999105,1,1740.69999999105,0,0,NA,"Click To Continue","Continue Button",3,"object-25","Rating","happy","unhappy","happy",17,"",NA,NA,NA,NA,NA,NA,"Left",NA,-7,NA,NA,NA,0.2,"MDPRF71538"
