"Event.Index","UTC.Timestamp","UTC.Date.and.Time","Local.Timestamp","Local.Timezone","Local.Date.and.Time","Experiment.ID","Experiment.Version","Tree.Node.Key","Repeat.Key","Schedule.ID","Participant.Private.ID","Participant.Starting.Group","Participant.Status","Participant.Completion.Code","Participant.External.Session.ID","Participant.Device.Type","Participant.Device","Participant.OS","Participant.Browser","Participant.Monitor.Size","Participant.Viewport.Size","Checkpoint","Room.ID","Room.Order","Task.Name","Task.Version","branch.hkzp","order.ot79","branch.mcuq","branch.4fv7","Spreadsheet","Trial.Number","Display","Screen","Screen.ID","Screen.Counter","Response.Type","Response","Onset.Time","Clock.Time","Reaction.Time","Absolute.Onset.Time","Absolute.Clock.Time","Absolute.Reaction.Time","Correct","Response.Onset","Response.Duration","Proportion","Tag","Component.Name","Object.Name","Object.Number","Object.ID","Spreadsheet..display","Manipulation..Spreadsheet","Random_ID"
"1",1701951393184,"07/12/2023 12:16:33",1701951393184,0,"07/12/2023 12:16:33",152734,16,"questionnaire-uu2n",NA,33514510,9922651,NA,"complete",NA,"6571b69f19e8d207432c1368","computer","Desktop or Laptop","Windows 10","Chrome 120.0.0.0","1536x864","1536x707",NA,NA,0,"BIQ (Charlotte)",2,"In","CDBEAFLGKHJI",NA,"In","Spreadsheet1",NA,"","","",NA,"5","BEGIN",NA,NA,NA,NA,NA,NA,0,NA,NA,NA,NA,"","",NA,"","",NA,"MDPRF12467"
"2",1701951420921,"07/12/2023 12:17:00",1701951420921,0,"07/12/2023 12:17:00",152734,16,"questionnaire-uu2n",NA,33514510,9922651,NA,"complete",NA,"6571b69f19e8d207432c1368","computer","Desktop or Laptop","Windows 10","Chrome 120.0.0.0","1536x864","1536x707",NA,NA,0,"BIQ (Charlotte)",2,"In","CDBEAFLGKHJI",NA,"In","Spreadsheet1",1,"BIQ","Screen 1","9dh6eq",1,"continue","",27756.9,27740.6,27756.9,27756.9,27740.6,27756.9,1,27756.9,0,0,NA,"Click To Continue","Continue Button",23,"object-48","BIQ",NA,"MDPRF12467"
"3",1701951420923,"07/12/2023 12:17:00",1701951420923,0,"07/12/2023 12:17:00",152734,16,"questionnaire-uu2n",NA,33514510,9922651,NA,"complete",NA,"6571b69f19e8d207432c1368","computer","Desktop or Laptop","Windows 10","Chrome 120.0.0.0","1536x864","1536x707",NA,NA,0,"BIQ (Charlotte)",2,"In","CDBEAFLGKHJI",NA,"In","Spreadsheet1",1,"BIQ","Screen 1","9dh6eq",1,"response","3",10723,27740.6,27756.9,10723,27740.6,27756.9,1,10723,17033.9,0,NA,"Rating Scale","Rating Scale",3,"object-5","BIQ",NA,"MDPRF12467"
"4",1701951420924,"07/12/2023 12:17:00",1701951420924,0,"07/12/2023 12:17:00",152734,16,"questionnaire-uu2n",NA,33514510,9922651,NA,"complete",NA,"6571b69f19e8d207432c1368","computer","Desktop or Laptop","Windows 10","Chrome 120.0.0.0","1536x864","1536x707",NA,NA,0,"BIQ (Charlotte)",2,"In","CDBEAFLGKHJI",NA,"In","Spreadsheet1",1,"BIQ","Screen 1","9dh6eq",1,"response","6",22129.1,27740.6,27756.9,22129.1,27740.6,27756.9,1,22129.1,5627.8,0,NA,"Rating Scale","Rating Scale",10,"object-18","BIQ",NA,"MDPRF12467"
"5",1701951420924,"07/12/2023 12:17:00",1701951420924,0,"07/12/2023 12:17:00",152734,16,"questionnaire-uu2n",NA,33514510,9922651,NA,"complete",NA,"6571b69f19e8d207432c1368","computer","Desktop or Laptop","Windows 10","Chrome 120.0.0.0","1536x864","1536x707",NA,NA,0,"BIQ (Charlotte)",2,"In","CDBEAFLGKHJI",NA,"In","Spreadsheet1",1,"BIQ","Screen 1","9dh6eq",1,"response","4",27157.8,27740.6,27756.9,27157.8,27740.6,27756.9,1,27157.8,599.100000000006,0,NA,"Rating Scale","Rating Scale",17,"object-80","BIQ",NA,"MDPRF12467"
"6",1701951437070,"07/12/2023 12:17:17",1701951437070,0,"07/12/2023 12:17:17",152734,16,"questionnaire-uu2n",NA,33514510,9922651,NA,"complete",NA,"6571b69f19e8d207432c1368","computer","Desktop or Laptop","Windows 10","Chrome 120.0.0.0","1536x864","1536x707",NA,NA,0,"BIQ (Charlotte)",2,"In","CDBEAFLGKHJI",NA,"In","Spreadsheet1",1,"BIQ","Screen 2","o21mwi",2,"continue","",16168.199999994,16152.2,16168.199999994,16168.199999994,16152.2,16168.199999994,1,16168.199999994,0,0,NA,"Click To Continue","Continue Button",22,"object-50","BIQ",NA,"MDPRF12467"
"7",1701951437074,"07/12/2023 12:17:17",1701951437074,0,"07/12/2023 12:17:17",152734,16,"questionnaire-uu2n",NA,33514510,9922651,NA,"complete",NA,"6571b69f19e8d207432c1368","computer","Desktop or Laptop","Windows 10","Chrome 120.0.0.0","1536x864","1536x707",NA,NA,0,"BIQ (Charlotte)",2,"In","CDBEAFLGKHJI",NA,"In","Spreadsheet1",1,"BIQ","Screen 2","o21mwi",2,"response","5",4962.1,16152.2,16169,4962.1,16152.2,16169,1,4962.1,11206.9,0,NA,"Rating Scale","Rating Scale",2,"object-259","BIQ",NA,"MDPRF12467"
"8",1701951437075,"07/12/2023 12:17:17",1701951437075,0,"07/12/2023 12:17:17",152734,16,"questionnaire-uu2n",NA,33514510,9922651,NA,"complete",NA,"6571b69f19e8d207432c1368","computer","Desktop or Laptop","Windows 10","Chrome 120.0.0.0","1536x864","1536x707",NA,NA,0,"BIQ (Charlotte)",2,"In","CDBEAFLGKHJI",NA,"In","Spreadsheet1",1,"BIQ","Screen 2","o21mwi",2,"response","6",8458.8,16152.2,16169,8458.8,16152.2,16169,1,8458.8,7710.2,0,NA,"Rating Scale","Rating Scale",9,"object-36","BIQ",NA,"MDPRF12467"
"9",1701951437076,"07/12/2023 12:17:17",1701951437076,0,"07/12/2023 12:17:17",152734,16,"questionnaire-uu2n",NA,33514510,9922651,NA,"complete",NA,"6571b69f19e8d207432c1368","computer","Desktop or Laptop","Windows 10","Chrome 120.0.0.0","1536x864","1536x707",NA,NA,0,"BIQ (Charlotte)",2,"In","CDBEAFLGKHJI",NA,"In","Spreadsheet1",1,"BIQ","Screen 2","o21mwi",2,"response","6",14420.1,16152.2,16169,14420.1,16152.2,16169,1,14420.1,1748.89999999999,0,NA,"Rating Scale","Rating Scale",16,"object-86","BIQ",NA,"MDPRF12467"
"10",1701951446340,"07/12/2023 12:17:26",1701951446340,0,"07/12/2023 12:17:26",152734,16,"questionnaire-uu2n",NA,33514510,9922651,NA,"complete",NA,"6571b69f19e8d207432c1368","computer","Desktop or Laptop","Windows 10","Chrome 120.0.0.0","1536x864","1536x707",NA,NA,0,"BIQ (Charlotte)",2,"In","CDBEAFLGKHJI",NA,"In","Spreadsheet1",1,"BIQ","Screen 3","iz3the",3,"continue","",9286.4,9274.6,9286.4,9286.4,9274.6,9286.4,1,9286.4,0,0,NA,"Click To Continue","Continue Button",22,"object-73","BIQ",NA,"MDPRF12467"
"11",1701951446341,"07/12/2023 12:17:26",1701951446341,0,"07/12/2023 12:17:26",152734,16,"questionnaire-uu2n",NA,33514510,9922651,NA,"complete",NA,"6571b69f19e8d207432c1368","computer","Desktop or Laptop","Windows 10","Chrome 120.0.0.0","1536x864","1536x707",NA,NA,0,"BIQ (Charlotte)",2,"In","CDBEAFLGKHJI",NA,"In","Spreadsheet1",1,"BIQ","Screen 3","iz3the",3,"response","2",4295.6,9274.6,9287.59999998808,4295.6,9274.6,9287.59999998808,1,4295.6,4991.99999998808,0,NA,"Rating Scale","Rating Scale",2,"object-53","BIQ",NA,"MDPRF12467"
"12",1701951446342,"07/12/2023 12:17:26",1701951446342,0,"07/12/2023 12:17:26",152734,16,"questionnaire-uu2n",NA,33514510,9922651,NA,"complete",NA,"6571b69f19e8d207432c1368","computer","Desktop or Laptop","Windows 10","Chrome 120.0.0.0","1536x864","1536x707",NA,NA,0,"BIQ (Charlotte)",2,"In","CDBEAFLGKHJI",NA,"In","Spreadsheet1",1,"BIQ","Screen 3","iz3the",3,"response","6",7193.1,9274.6,9288.30000000596,7193.1,9274.6,9288.30000000596,1,7193.1,2095.20000000596,0,NA,"Rating Scale","Rating Scale",9,"object-60","BIQ",NA,"MDPRF12467"
"13",1701951446343,"07/12/2023 12:17:26",1701951446343,0,"07/12/2023 12:17:26",152734,16,"questionnaire-uu2n",NA,33514510,9922651,NA,"complete",NA,"6571b69f19e8d207432c1368","computer","Desktop or Laptop","Windows 10","Chrome 120.0.0.0","1536x864","1536x707",NA,NA,0,"BIQ (Charlotte)",2,"In","CDBEAFLGKHJI",NA,"In","Spreadsheet1",1,"BIQ","Screen 3","iz3the",3,"response","5",8691.5,9274.6,9289.09999998808,8691.5,9274.6,9289.09999998808,1,8691.5,597.59999998808,0,NA,"Rating Scale","Rating Scale",16,"object-67","BIQ",NA,"MDPRF12467"
"14",1701951446347,"07/12/2023 12:17:26",1701951446347,0,"07/12/2023 12:17:26",152734,16,"questionnaire-uu2n",NA,33514510,9922651,NA,"complete",NA,"6571b69f19e8d207432c1368","computer","Desktop or Laptop","Windows 10","Chrome 120.0.0.0","1536x864","1536x707",NA,NA,0,"BIQ (Charlotte)",2,"In","CDBEAFLGKHJI",NA,"In","Spreadsheet1",NA,"","","",NA,"5","END",NA,NA,NA,NA,NA,NA,0,NA,NA,NA,NA,"","",NA,"","",NA,"MDPRF12467"
"1",1701951430635,"07/12/2023 12:17:10",1701951430635,0,"07/12/2023 12:17:10",152734,16,"questionnaire-uu2n",NA,33514532,9922638,NA,"complete",NA,"6571b65c0e93731c3ef24841","computer","Desktop or Laptop","Windows 10","Chrome 120.0.0.0","1920x1080","1920x955",NA,NA,0,"BIQ (Charlotte)",2,"In","BCADLEKFJGIH",NA,"In","Spreadsheet1",NA,"","","",NA,"5","BEGIN",NA,NA,NA,NA,NA,NA,0,NA,NA,NA,NA,"","",NA,"","",NA,"MDPRF71538"
"2",1701951447035,"07/12/2023 12:17:27",1701951447035,0,"07/12/2023 12:17:27",152734,16,"questionnaire-uu2n",NA,33514532,9922638,NA,"complete",NA,"6571b65c0e93731c3ef24841","computer","Desktop or Laptop","Windows 10","Chrome 120.0.0.0","1920x1080","1920x955",NA,NA,0,"BIQ (Charlotte)",2,"In","BCADLEKFJGIH",NA,"In","Spreadsheet1",1,"BIQ","Screen 1","9dh6eq",1,"continue","",16401,16399.1,16401,16401,16399.1,16401,1,16401,0,0,NA,"Click To Continue","Continue Button",23,"object-48","BIQ",NA,"MDPRF71538"
"3",1701951447036,"07/12/2023 12:17:27",1701951447036,0,"07/12/2023 12:17:27",152734,16,"questionnaire-uu2n",NA,33514532,9922638,NA,"complete",NA,"6571b65c0e93731c3ef24841","computer","Desktop or Laptop","Windows 10","Chrome 120.0.0.0","1920x1080","1920x955",NA,NA,0,"BIQ (Charlotte)",2,"In","BCADLEKFJGIH",NA,"In","Spreadsheet1",1,"BIQ","Screen 1","9dh6eq",1,"response","5",7918,16399.1,16404,7918,16399.1,16404,1,7918,8486,0,NA,"Rating Scale","Rating Scale",3,"object-5","BIQ",NA,"MDPRF71538"
"4",1701951447036,"07/12/2023 12:17:27",1701951447036,0,"07/12/2023 12:17:27",152734,16,"questionnaire-uu2n",NA,33514532,9922638,NA,"complete",NA,"6571b65c0e93731c3ef24841","computer","Desktop or Laptop","Windows 10","Chrome 120.0.0.0","1920x1080","1920x955",NA,NA,0,"BIQ (Charlotte)",2,"In","BCADLEKFJGIH",NA,"In","Spreadsheet1",1,"BIQ","Screen 1","9dh6eq",1,"response","4",12144.7,16399.1,16404.200000003,12144.7,16399.1,16404.200000003,1,12144.7,4259.50000000298,0,NA,"Rating Scale","Rating Scale",10,"object-18","BIQ",NA,"MDPRF71538"
"5",1701951447037,"07/12/2023 12:17:27",1701951447037,0,"07/12/2023 12:17:27",152734,16,"questionnaire-uu2n",NA,33514532,9922638,NA,"complete",NA,"6571b65c0e93731c3ef24841","computer","Desktop or Laptop","Windows 10","Chrome 120.0.0.0","1920x1080","1920x955",NA,NA,0,"BIQ (Charlotte)",2,"In","BCADLEKFJGIH",NA,"In","Spreadsheet1",1,"BIQ","Screen 1","9dh6eq",1,"response","1",14612.5,16399.1,16404.400000006,14612.5,16399.1,16404.400000006,1,14612.5,1791.90000000596,0,NA,"Rating Scale","Rating Scale",17,"object-80","BIQ",NA,"MDPRF71538"
"6",1701951456272,"07/12/2023 12:17:36",1701951456272,0,"07/12/2023 12:17:36",152734,16,"questionnaire-uu2n",NA,33514532,9922638,NA,"complete",NA,"6571b65c0e93731c3ef24841","computer","Desktop or Laptop","Windows 10","Chrome 120.0.0.0","1920x1080","1920x955",NA,NA,0,"BIQ (Charlotte)",2,"In","BCADLEKFJGIH",NA,"In","Spreadsheet1",1,"BIQ","Screen 2","o21mwi",2,"continue","",9240.80000000596,9238.8,9240.80000000596,9240.80000000596,9238.8,9240.80000000596,1,9240.80000000596,0,0,NA,"Click To Continue","Continue Button",22,"object-50","BIQ",NA,"MDPRF71538"
"7",1701951456272,"07/12/2023 12:17:36",1701951456272,0,"07/12/2023 12:17:36",152734,16,"questionnaire-uu2n",NA,33514532,9922638,NA,"complete",NA,"6571b65c0e93731c3ef24841","computer","Desktop or Laptop","Windows 10","Chrome 120.0.0.0","1920x1080","1920x955",NA,NA,0,"BIQ (Charlotte)",2,"In","BCADLEKFJGIH",NA,"In","Spreadsheet1",1,"BIQ","Screen 2","o21mwi",2,"response","1",3267.4,9238.8,9241.10000000298,3267.4,9238.8,9241.10000000298,1,3267.4,5973.70000000298,0,NA,"Rating Scale","Rating Scale",2,"object-259","BIQ",NA,"MDPRF71538"
"8",1701951456273,"07/12/2023 12:17:36",1701951456273,0,"07/12/2023 12:17:36",152734,16,"questionnaire-uu2n",NA,33514532,9922638,NA,"complete",NA,"6571b65c0e93731c3ef24841","computer","Desktop or Laptop","Windows 10","Chrome 120.0.0.0","1920x1080","1920x955",NA,NA,0,"BIQ (Charlotte)",2,"In","BCADLEKFJGIH",NA,"In","Spreadsheet1",1,"BIQ","Screen 2","o21mwi",2,"response","2",3649.6,9238.8,9241.4,3649.6,9238.8,9241.4,1,3649.6,5591.8,0,NA,"Rating Scale","Rating Scale",9,"object-36","BIQ",NA,"MDPRF71538"
"9",1701951456273,"07/12/2023 12:17:36",1701951456273,0,"07/12/2023 12:17:36",152734,16,"questionnaire-uu2n",NA,33514532,9922638,NA,"complete",NA,"6571b65c0e93731c3ef24841","computer","Desktop or Laptop","Windows 10","Chrome 120.0.0.0","1920x1080","1920x955",NA,NA,0,"BIQ (Charlotte)",2,"In","BCADLEKFJGIH",NA,"In","Spreadsheet1",1,"BIQ","Screen 2","o21mwi",2,"response","1",4873.2,9238.8,9241.60000000298,4873.2,9238.8,9241.60000000298,1,4873.2,4368.40000000298,0,NA,"Rating Scale","Rating Scale",16,"object-86","BIQ",NA,"MDPRF71538"
"10",1701951461630,"07/12/2023 12:17:41",1701951461630,0,"07/12/2023 12:17:41",152734,16,"questionnaire-uu2n",NA,33514532,9922638,NA,"complete",NA,"6571b65c0e93731c3ef24841","computer","Desktop or Laptop","Windows 10","Chrome 120.0.0.0","1920x1080","1920x955",NA,NA,0,"BIQ (Charlotte)",2,"In","BCADLEKFJGIH",NA,"In","Spreadsheet1",1,"BIQ","Screen 3","iz3the",3,"continue","",5359.8,5352.9,5359.8,5359.8,5352.9,5359.8,1,5359.8,0,0,NA,"Click To Continue","Continue Button",22,"object-73","BIQ",NA,"MDPRF71538"
"11",1701951461632,"07/12/2023 12:17:41",1701951461632,0,"07/12/2023 12:17:41",152734,16,"questionnaire-uu2n",NA,33514532,9922638,NA,"complete",NA,"6571b65c0e93731c3ef24841","computer","Desktop or Laptop","Windows 10","Chrome 120.0.0.0","1920x1080","1920x955",NA,NA,0,"BIQ (Charlotte)",2,"In","BCADLEKFJGIH",NA,"In","Spreadsheet1",1,"BIQ","Screen 3","iz3the",3,"response","1",1383.5,5352.9,5359.8,1383.5,5352.9,5359.8,1,1383.5,3976.3,0,NA,"Rating Scale","Rating Scale",2,"object-53","BIQ",NA,"MDPRF71538"
"12",1701951461632,"07/12/2023 12:17:41",1701951461632,0,"07/12/2023 12:17:41",152734,16,"questionnaire-uu2n",NA,33514532,9922638,NA,"complete",NA,"6571b65c0e93731c3ef24841","computer","Desktop or Laptop","Windows 10","Chrome 120.0.0.0","1920x1080","1920x955",NA,NA,0,"BIQ (Charlotte)",2,"In","BCADLEKFJGIH",NA,"In","Spreadsheet1",1,"BIQ","Screen 3","iz3the",3,"response","1",2474.9,5352.9,5359.8,2474.9,5352.9,5359.8,1,2474.9,2884.9,0,NA,"Rating Scale","Rating Scale",9,"object-60","BIQ",NA,"MDPRF71538"
"13",1701951461632,"07/12/2023 12:17:41",1701951461632,0,"07/12/2023 12:17:41",152734,16,"questionnaire-uu2n",NA,33514532,9922638,NA,"complete",NA,"6571b65c0e93731c3ef24841","computer","Desktop or Laptop","Windows 10","Chrome 120.0.0.0","1920x1080","1920x955",NA,NA,0,"BIQ (Charlotte)",2,"In","BCADLEKFJGIH",NA,"In","Spreadsheet1",1,"BIQ","Screen 3","iz3the",3,"response","1",3142.3,5352.9,5359.8,3142.3,5352.9,5359.8,1,3142.3,2217.5,0,NA,"Rating Scale","Rating Scale",16,"object-67","BIQ",NA,"MDPRF71538"
"14",1701951461634,"07/12/2023 12:17:41",1701951461634,0,"07/12/2023 12:17:41",152734,16,"questionnaire-uu2n",NA,33514532,9922638,NA,"complete",NA,"6571b65c0e93731c3ef24841","computer","Desktop or Laptop","Windows 10","Chrome 120.0.0.0","1920x1080","1920x955",NA,NA,0,"BIQ (Charlotte)",2,"In","BCADLEKFJGIH",NA,"In","Spreadsheet1",NA,"","","",NA,"5","END",NA,NA,NA,NA,NA,NA,0,NA,NA,NA,NA,"","",NA,"","",NA,"MDPRF71538"
"1",1701951756583,"07/12/2023 12:22:36",1701951756583,0,"07/12/2023 12:22:36",152734,16,"questionnaire-uu2n",NA,33514747,9922687,NA,"complete",NA,"6571b6759ff002b50521cc3b","computer","Desktop or Laptop","Windows 10","Chrome 120.0.0.0","1285x605","1280x605",NA,NA,0,"BIQ (Charlotte)",2,"In","DECFBGAHLIKJ",NA,"In","Spreadsheet1",NA,"","","",NA,"5","BEGIN",NA,NA,NA,NA,NA,NA,0,NA,NA,NA,NA,"","",NA,"","",NA,"MDPRF73934"
"2",1701951780596,"07/12/2023 12:23:00",1701951780596,0,"07/12/2023 12:23:00",152734,16,"questionnaire-uu2n",NA,33514747,9922687,NA,"complete",NA,"6571b6759ff002b50521cc3b","computer","Desktop or Laptop","Windows 10","Chrome 120.0.0.0","1285x605","1280x605",NA,NA,0,"BIQ (Charlotte)",2,"In","DECFBGAHLIKJ",NA,"In","Spreadsheet1",1,"BIQ","Screen 1","9dh6eq",1,"continue","",24025,24011,24025,24025,24011,24025,1,24025,0,0,NA,"Click To Continue","Continue Button",23,"object-48","BIQ",NA,"MDPRF73934"
"3",1701951780598,"07/12/2023 12:23:00",1701951780598,0,"07/12/2023 12:23:00",152734,16,"questionnaire-uu2n",NA,33514747,9922687,NA,"complete",NA,"6571b6759ff002b50521cc3b","computer","Desktop or Laptop","Windows 10","Chrome 120.0.0.0","1285x605","1280x605",NA,NA,0,"BIQ (Charlotte)",2,"In","DECFBGAHLIKJ",NA,"In","Spreadsheet1",1,"BIQ","Screen 1","9dh6eq",1,"response","8",9157,24011,24027,9157,24011,24027,1,9157,14870,0,NA,"Rating Scale","Rating Scale",3,"object-5","BIQ",NA,"MDPRF73934"
"4",1701951780598,"07/12/2023 12:23:00",1701951780598,0,"07/12/2023 12:23:00",152734,16,"questionnaire-uu2n",NA,33514747,9922687,NA,"complete",NA,"6571b6759ff002b50521cc3b","computer","Desktop or Laptop","Windows 10","Chrome 120.0.0.0","1285x605","1280x605",NA,NA,0,"BIQ (Charlotte)",2,"In","DECFBGAHLIKJ",NA,"In","Spreadsheet1",1,"BIQ","Screen 1","9dh6eq",1,"response","6",15751,24011,24027,15751,24011,24027,1,15751,8276,0,NA,"Rating Scale","Rating Scale",10,"object-18","BIQ",NA,"MDPRF73934"
"5",1701951780598,"07/12/2023 12:23:00",1701951780598,0,"07/12/2023 12:23:00",152734,16,"questionnaire-uu2n",NA,33514747,9922687,NA,"complete",NA,"6571b6759ff002b50521cc3b","computer","Desktop or Laptop","Windows 10","Chrome 120.0.0.0","1285x605","1280x605",NA,NA,0,"BIQ (Charlotte)",2,"In","DECFBGAHLIKJ",NA,"In","Spreadsheet1",1,"BIQ","Screen 1","9dh6eq",1,"response","1",21580,24011,24027,21580,24011,24027,1,21580,2447,0,NA,"Rating Scale","Rating Scale",17,"object-80","BIQ",NA,"MDPRF73934"
"6",1701951800793,"07/12/2023 12:23:20",1701951800793,0,"07/12/2023 12:23:20",152734,16,"questionnaire-uu2n",NA,33514747,9922687,NA,"complete",NA,"6571b6759ff002b50521cc3b","computer","Desktop or Laptop","Windows 10","Chrome 120.0.0.0","1285x605","1280x605",NA,NA,0,"BIQ (Charlotte)",2,"In","DECFBGAHLIKJ",NA,"In","Spreadsheet1",1,"BIQ","Screen 2","o21mwi",2,"continue","",20215,20200,20215,20215,20200,20215,1,20215,0,0,NA,"Click To Continue","Continue Button",22,"object-50","BIQ",NA,"MDPRF73934"
"7",1701951800798,"07/12/2023 12:23:20",1701951800798,0,"07/12/2023 12:23:20",152734,16,"questionnaire-uu2n",NA,33514747,9922687,NA,"complete",NA,"6571b6759ff002b50521cc3b","computer","Desktop or Laptop","Windows 10","Chrome 120.0.0.0","1285x605","1280x605",NA,NA,0,"BIQ (Charlotte)",2,"In","DECFBGAHLIKJ",NA,"In","Spreadsheet1",1,"BIQ","Screen 2","o21mwi",2,"response","7",8926,20200,20217,8926,20200,20217,1,8926,11291,0,NA,"Rating Scale","Rating Scale",2,"object-259","BIQ",NA,"MDPRF73934"
"8",1701951800798,"07/12/2023 12:23:20",1701951800798,0,"07/12/2023 12:23:20",152734,16,"questionnaire-uu2n",NA,33514747,9922687,NA,"complete",NA,"6571b6759ff002b50521cc3b","computer","Desktop or Laptop","Windows 10","Chrome 120.0.0.0","1285x605","1280x605",NA,NA,0,"BIQ (Charlotte)",2,"In","DECFBGAHLIKJ",NA,"In","Spreadsheet1",1,"BIQ","Screen 2","o21mwi",2,"response","1",12989,20200,20217,12989,20200,20217,1,12989,7228,0,NA,"Rating Scale","Rating Scale",9,"object-36","BIQ",NA,"MDPRF73934"
"9",1701951800799,"07/12/2023 12:23:20",1701951800799,0,"07/12/2023 12:23:20",152734,16,"questionnaire-uu2n",NA,33514747,9922687,NA,"complete",NA,"6571b6759ff002b50521cc3b","computer","Desktop or Laptop","Windows 10","Chrome 120.0.0.0","1285x605","1280x605",NA,NA,0,"BIQ (Charlotte)",2,"In","DECFBGAHLIKJ",NA,"In","Spreadsheet1",1,"BIQ","Screen 2","o21mwi",2,"response","3",18652,20200,20217,18652,20200,20217,1,18652,1565,0,NA,"Rating Scale","Rating Scale",16,"object-86","BIQ",NA,"MDPRF73934"
"10",1701951816263,"07/12/2023 12:23:36",1701951816263,0,"07/12/2023 12:23:36",152734,16,"questionnaire-uu2n",NA,33514747,9922687,NA,"complete",NA,"6571b6759ff002b50521cc3b","computer","Desktop or Laptop","Windows 10","Chrome 120.0.0.0","1285x605","1280x605",NA,NA,0,"BIQ (Charlotte)",2,"In","DECFBGAHLIKJ",NA,"In","Spreadsheet1",1,"BIQ","Screen 3","iz3the",3,"continue","",15484,15470,15484,15484,15470,15484,1,15484,0,0,NA,"Click To Continue","Continue Button",22,"object-73","BIQ",NA,"MDPRF73934"
"11",1701951816267,"07/12/2023 12:23:36",1701951816267,0,"07/12/2023 12:23:36",152734,16,"questionnaire-uu2n",NA,33514747,9922687,NA,"complete",NA,"6571b6759ff002b50521cc3b","computer","Desktop or Laptop","Windows 10","Chrome 120.0.0.0","1285x605","1280x605",NA,NA,0,"BIQ (Charlotte)",2,"In","DECFBGAHLIKJ",NA,"In","Spreadsheet1",1,"BIQ","Screen 3","iz3the",3,"response","0",5912,15470,15486,5912,15470,15486,1,5912,9574,0,NA,"Rating Scale","Rating Scale",2,"object-53","BIQ",NA,"MDPRF73934"
"12",1701951816267,"07/12/2023 12:23:36",1701951816267,0,"07/12/2023 12:23:36",152734,16,"questionnaire-uu2n",NA,33514747,9922687,NA,"complete",NA,"6571b6759ff002b50521cc3b","computer","Desktop or Laptop","Windows 10","Chrome 120.0.0.0","1285x605","1280x605",NA,NA,0,"BIQ (Charlotte)",2,"In","DECFBGAHLIKJ",NA,"In","Spreadsheet1",1,"BIQ","Screen 3","iz3the",3,"response","0",9359,15470,15486,9359,15470,15486,1,9359,6127,0,NA,"Rating Scale","Rating Scale",9,"object-60","BIQ",NA,"MDPRF73934"
"13",1701951816267,"07/12/2023 12:23:36",1701951816267,0,"07/12/2023 12:23:36",152734,16,"questionnaire-uu2n",NA,33514747,9922687,NA,"complete",NA,"6571b6759ff002b50521cc3b","computer","Desktop or Laptop","Windows 10","Chrome 120.0.0.0","1285x605","1280x605",NA,NA,0,"BIQ (Charlotte)",2,"In","DECFBGAHLIKJ",NA,"In","Spreadsheet1",1,"BIQ","Screen 3","iz3the",3,"response","0",12689,15470,15486,12689,15470,15486,1,12689,2797,0,NA,"Rating Scale","Rating Scale",16,"object-67","BIQ",NA,"MDPRF73934"
"14",1701951816270,"07/12/2023 12:23:36",1701951816270,0,"07/12/2023 12:23:36",152734,16,"questionnaire-uu2n",NA,33514747,9922687,NA,"complete",NA,"6571b6759ff002b50521cc3b","computer","Desktop or Laptop","Windows 10","Chrome 120.0.0.0","1285x605","1280x605",NA,NA,0,"BIQ (Charlotte)",2,"In","DECFBGAHLIKJ",NA,"In","Spreadsheet1",NA,"","","",NA,"5","END",NA,NA,NA,NA,NA,NA,0,NA,NA,NA,NA,"","",NA,"","",NA,"MDPRF73934"
"1",1701951781997,"07/12/2023 12:23:01",1701951781997,0,"07/12/2023 12:23:01",152734,16,"questionnaire-uu2n",NA,33514765,9922727,NA,"complete",NA,"6571b8c68b25e8ab178d995f","computer","Desktop or Laptop","Mac OS 10.15.7","Chrome 119.0.0.0","1440x900","1440x783",NA,NA,0,"BIQ (Charlotte)",2,"In","EFDGCHBIAJLK",NA,"In","Spreadsheet1",NA,"","","",NA,"5","BEGIN",NA,NA,NA,NA,NA,NA,0,NA,NA,NA,NA,"","",NA,"","",NA,"MDPRF44703"
"2",1701951807186,"07/12/2023 12:23:27",1701951807186,0,"07/12/2023 12:23:27",152734,16,"questionnaire-uu2n",NA,33514765,9922727,NA,"complete",NA,"6571b8c68b25e8ab178d995f","computer","Desktop or Laptop","Mac OS 10.15.7","Chrome 119.0.0.0","1440x900","1440x783",NA,NA,0,"BIQ (Charlotte)",2,"In","EFDGCHBIAJLK",NA,"In","Spreadsheet1",1,"BIQ","Screen 1","9dh6eq",1,"continue","",25216.3729996185,25199.767,25216.3729996185,25216.3729996185,25199.767,25216.3729996185,1,25216.3729996185,0,0,NA,"Click To Continue","Continue Button",23,"object-48","BIQ",NA,"MDPRF44703"
"3",1701951807189,"07/12/2023 12:23:27",1701951807189,0,"07/12/2023 12:23:27",152734,16,"questionnaire-uu2n",NA,33514765,9922727,NA,"complete",NA,"6571b8c68b25e8ab178d995f","computer","Desktop or Laptop","Mac OS 10.15.7","Chrome 119.0.0.0","1440x900","1440x783",NA,NA,0,"BIQ (Charlotte)",2,"In","EFDGCHBIAJLK",NA,"In","Spreadsheet1",1,"BIQ","Screen 1","9dh6eq",1,"response","4",10576.301,25199.767,25216.422,10576.301,25199.767,25216.422,1,10576.301,14640.121,0,NA,"Rating Scale","Rating Scale",3,"object-5","BIQ",NA,"MDPRF44703"
"4",1701951807189,"07/12/2023 12:23:27",1701951807189,0,"07/12/2023 12:23:27",152734,16,"questionnaire-uu2n",NA,33514765,9922727,NA,"complete",NA,"6571b8c68b25e8ab178d995f","computer","Desktop or Laptop","Mac OS 10.15.7","Chrome 119.0.0.0","1440x900","1440x783",NA,NA,0,"BIQ (Charlotte)",2,"In","EFDGCHBIAJLK",NA,"In","Spreadsheet1",1,"BIQ","Screen 1","9dh6eq",1,"response","6",17754.606,25199.767,25216.422,17754.606,25199.767,25216.422,1,17754.606,7461.816,0,NA,"Rating Scale","Rating Scale",10,"object-18","BIQ",NA,"MDPRF44703"
"5",1701951807190,"07/12/2023 12:23:27",1701951807190,0,"07/12/2023 12:23:27",152734,16,"questionnaire-uu2n",NA,33514765,9922727,NA,"complete",NA,"6571b8c68b25e8ab178d995f","computer","Desktop or Laptop","Mac OS 10.15.7","Chrome 119.0.0.0","1440x900","1440x783",NA,NA,0,"BIQ (Charlotte)",2,"In","EFDGCHBIAJLK",NA,"In","Spreadsheet1",1,"BIQ","Screen 1","9dh6eq",1,"response","0",24400.327,25199.767,25216.422,24400.327,25199.767,25216.422,1,24400.327,816.095000000005,0,NA,"Rating Scale","Rating Scale",17,"object-80","BIQ",NA,"MDPRF44703"
"6",1701951823778,"07/12/2023 12:23:43",1701951823778,0,"07/12/2023 12:23:43",152734,16,"questionnaire-uu2n",NA,33514765,9922727,NA,"complete",NA,"6571b8c68b25e8ab178d995f","computer","Desktop or Laptop","Mac OS 10.15.7","Chrome 119.0.0.0","1440x900","1440x783",NA,NA,0,"BIQ (Charlotte)",2,"In","EFDGCHBIAJLK",NA,"In","Spreadsheet1",1,"BIQ","Screen 2","o21mwi",2,"continue","",16605.788,16589.133,16605.788,16605.788,16589.133,16605.788,1,16605.788,0,0,NA,"Click To Continue","Continue Button",22,"object-50","BIQ",NA,"MDPRF44703"
"7",1701951823784,"07/12/2023 12:23:43",1701951823784,0,"07/12/2023 12:23:43",152734,16,"questionnaire-uu2n",NA,33514765,9922727,NA,"complete",NA,"6571b8c68b25e8ab178d995f","computer","Desktop or Laptop","Mac OS 10.15.7","Chrome 119.0.0.0","1440x900","1440x783",NA,NA,0,"BIQ (Charlotte)",2,"In","EFDGCHBIAJLK",NA,"In","Spreadsheet1",1,"BIQ","Screen 2","o21mwi",2,"response","8",5096.807,16589.133,16605.788,5096.807,16589.133,16605.788,1,5096.807,11508.981,0,NA,"Rating Scale","Rating Scale",2,"object-259","BIQ",NA,"MDPRF44703"
"8",1701951823785,"07/12/2023 12:23:43",1701951823785,0,"07/12/2023 12:23:43",152734,16,"questionnaire-uu2n",NA,33514765,9922727,NA,"complete",NA,"6571b8c68b25e8ab178d995f","computer","Desktop or Laptop","Mac OS 10.15.7","Chrome 119.0.0.0","1440x900","1440x783",NA,NA,0,"BIQ (Charlotte)",2,"In","EFDGCHBIAJLK",NA,"In","Spreadsheet1",1,"BIQ","Screen 2","o21mwi",2,"response","0",10309.822,16589.133,16605.788,10309.822,16589.133,16605.788,1,10309.822,6295.96600000001,0,NA,"Rating Scale","Rating Scale",9,"object-36","BIQ",NA,"MDPRF44703"
"9",1701951823785,"07/12/2023 12:23:43",1701951823785,0,"07/12/2023 12:23:43",152734,16,"questionnaire-uu2n",NA,33514765,9922727,NA,"complete",NA,"6571b8c68b25e8ab178d995f","computer","Desktop or Laptop","Mac OS 10.15.7","Chrome 119.0.0.0","1440x900","1440x783",NA,NA,0,"BIQ (Charlotte)",2,"In","EFDGCHBIAJLK",NA,"In","Spreadsheet1",1,"BIQ","Screen 2","o21mwi",2,"response","0",15756.383,16589.133,16605.788,15756.383,16589.133,16605.788,1,15756.383,849.405000000006,0,NA,"Rating Scale","Rating Scale",16,"object-86","BIQ",NA,"MDPRF44703"
"10",1701951840420,"07/12/2023 12:24:00",1701951840420,0,"07/12/2023 12:24:00",152734,16,"questionnaire-uu2n",NA,33514765,9922727,NA,"complete",NA,"6571b8c68b25e8ab178d995f","computer","Desktop or Laptop","Mac OS 10.15.7","Chrome 119.0.0.0","1440x900","1440x783",NA,NA,0,"BIQ (Charlotte)",2,"In","EFDGCHBIAJLK",NA,"In","Spreadsheet1",1,"BIQ","Screen 3","iz3the",3,"continue","",16663.6730003815,16655.752,16663.6730003815,16663.6730003815,16655.752,16663.6730003815,1,16663.6730003815,0,0,NA,"Click To Continue","Continue Button",22,"object-73","BIQ",NA,"MDPRF44703"
"11",1701951840425,"07/12/2023 12:24:00",1701951840425,0,"07/12/2023 12:24:00",152734,16,"questionnaire-uu2n",NA,33514765,9922727,NA,"complete",NA,"6571b8c68b25e8ab178d995f","computer","Desktop or Laptop","Mac OS 10.15.7","Chrome 119.0.0.0","1440x900","1440x783",NA,NA,0,"BIQ (Charlotte)",2,"In","EFDGCHBIAJLK",NA,"In","Spreadsheet1",1,"BIQ","Screen 3","iz3the",3,"response","0",8694.286,16655.752,16669.3730011444,8694.286,16655.752,16669.3730011444,1,8694.286,7975.08700114441,0,NA,"Rating Scale","Rating Scale",2,"object-53","BIQ",NA,"MDPRF44703"
"12",1701951840427,"07/12/2023 12:24:00",1701951840427,0,"07/12/2023 12:24:00",152734,16,"questionnaire-uu2n",NA,33514765,9922727,NA,"complete",NA,"6571b8c68b25e8ab178d995f","computer","Desktop or Laptop","Mac OS 10.15.7","Chrome 119.0.0.0","1440x900","1440x783",NA,NA,0,"BIQ (Charlotte)",2,"In","EFDGCHBIAJLK",NA,"In","Spreadsheet1",1,"BIQ","Screen 3","iz3the",3,"response","1",12275.111,16655.752,16670.4729996185,12275.111,16655.752,16670.4729996185,1,12275.111,4395.36199961853,0,NA,"Rating Scale","Rating Scale",9,"object-60","BIQ",NA,"MDPRF44703"
"13",1701951840427,"07/12/2023 12:24:00",1701951840427,0,"07/12/2023 12:24:00",152734,16,"questionnaire-uu2n",NA,33514765,9922727,NA,"complete",NA,"6571b8c68b25e8ab178d995f","computer","Desktop or Laptop","Mac OS 10.15.7","Chrome 119.0.0.0","1440x900","1440x783",NA,NA,0,"BIQ (Charlotte)",2,"In","EFDGCHBIAJLK",NA,"In","Spreadsheet1",1,"BIQ","Screen 3","iz3the",3,"response","0",15939.211,16655.752,16671.4729996185,15939.211,16655.752,16671.4729996185,1,15939.211,732.261999618531,0,NA,"Rating Scale","Rating Scale",16,"object-67","BIQ",NA,"MDPRF44703"
"14",1701951840435,"07/12/2023 12:24:00",1701951840435,0,"07/12/2023 12:24:00",152734,16,"questionnaire-uu2n",NA,33514765,9922727,NA,"complete",NA,"6571b8c68b25e8ab178d995f","computer","Desktop or Laptop","Mac OS 10.15.7","Chrome 119.0.0.0","1440x900","1440x783",NA,NA,0,"BIQ (Charlotte)",2,"In","EFDGCHBIAJLK",NA,"In","Spreadsheet1",NA,"","","",NA,"5","END",NA,NA,NA,NA,NA,NA,0,NA,NA,NA,NA,"","",NA,"","",NA,"MDPRF44703"
"1",1701951836793,"07/12/2023 12:23:56",1701951836793,0,"07/12/2023 12:23:56",152734,16,"questionnaire-uu2n",NA,33514804,9922635,NA,"complete",NA,"6571b64971deefe0f6a6b775","computer","Desktop or Laptop","Windows 10","Chrome 119.0.0.0","1123x632","898x385",NA,NA,0,"BIQ (Charlotte)",2,"In","ABLCKDJEIFHG",NA,"In","Spreadsheet1",NA,"","","",NA,"5","BEGIN",NA,NA,NA,NA,NA,NA,0,NA,NA,NA,NA,"","",NA,"","",NA,"MDPRF46587"
"2",1701951868755,"07/12/2023 12:24:28",1701951868755,0,"07/12/2023 12:24:28",152734,16,"questionnaire-uu2n",NA,33514804,9922635,NA,"complete",NA,"6571b64971deefe0f6a6b775","computer","Desktop or Laptop","Windows 10","Chrome 119.0.0.0","1123x632","1123x481",NA,NA,0,"BIQ (Charlotte)",2,"In","ABLCKDJEIFHG",NA,"In","Spreadsheet1",1,"BIQ","Screen 1","9dh6eq",1,"continue","",31972.054000006,31957.256,31972.054000006,31972.054000006,31957.256,31972.054000006,1,31972.054000006,0,0,NA,"Click To Continue","Continue Button",23,"object-48","BIQ",NA,"MDPRF46587"
"3",1701951868758,"07/12/2023 12:24:28",1701951868758,0,"07/12/2023 12:24:28",152734,16,"questionnaire-uu2n",NA,33514804,9922635,NA,"complete",NA,"6571b64971deefe0f6a6b775","computer","Desktop or Laptop","Windows 10","Chrome 119.0.0.0","1123x632","1123x481",NA,NA,0,"BIQ (Charlotte)",2,"In","ABLCKDJEIFHG",NA,"In","Spreadsheet1",1,"BIQ","Screen 1","9dh6eq",1,"response","6",19577.523,31957.256,31974.004,19577.523,31957.256,31974.004,1,19577.523,12396.481,0,NA,"Rating Scale","Rating Scale",3,"object-5","BIQ",NA,"MDPRF46587"
"4",1701951868758,"07/12/2023 12:24:28",1701951868758,0,"07/12/2023 12:24:28",152734,16,"questionnaire-uu2n",NA,33514804,9922635,NA,"complete",NA,"6571b64971deefe0f6a6b775","computer","Desktop or Laptop","Windows 10","Chrome 119.0.0.0","1123x632","1123x481",NA,NA,0,"BIQ (Charlotte)",2,"In","ABLCKDJEIFHG",NA,"In","Spreadsheet1",1,"BIQ","Screen 1","9dh6eq",1,"response","7",28574.832,31957.256,31974.004,28574.832,31957.256,31974.004,1,28574.832,3399.172,0,NA,"Rating Scale","Rating Scale",10,"object-18","BIQ",NA,"MDPRF46587"
"5",1701951868758,"07/12/2023 12:24:28",1701951868758,0,"07/12/2023 12:24:28",152734,16,"questionnaire-uu2n",NA,33514804,9922635,NA,"complete",NA,"6571b64971deefe0f6a6b775","computer","Desktop or Laptop","Windows 10","Chrome 119.0.0.0","1123x632","1123x481",NA,NA,0,"BIQ (Charlotte)",2,"In","ABLCKDJEIFHG",NA,"In","Spreadsheet1",1,"BIQ","Screen 1","9dh6eq",1,"response","1",31207.38,31957.256,31974.004,31207.38,31957.256,31974.004,1,31207.38,766.624,0,NA,"Rating Scale","Rating Scale",17,"object-80","BIQ",NA,"MDPRF46587"
"6",1701951949519,"07/12/2023 12:25:49",1701951949519,0,"07/12/2023 12:25:49",152734,16,"questionnaire-uu2n",NA,33514804,9922635,NA,"complete",NA,"6571b64971deefe0f6a6b775","computer","Desktop or Laptop","Windows 10","Chrome 119.0.0.0","1123x632","1123x481",NA,NA,0,"BIQ (Charlotte)",2,"In","ABLCKDJEIFHG",NA,"In","Spreadsheet1",1,"BIQ","Screen 2","o21mwi",2,"continue","",80778.798000006,80776.219,80778.798000006,80778.798000006,80776.219,80778.798000006,1,80778.798000006,0,0,NA,"Click To Continue","Continue Button",22,"object-50","BIQ",NA,"MDPRF46587"
"7",1701951949523,"07/12/2023 12:25:49",1701951949523,0,"07/12/2023 12:25:49",152734,16,"questionnaire-uu2n",NA,33514804,9922635,NA,"complete",NA,"6571b64971deefe0f6a6b775","computer","Desktop or Laptop","Windows 10","Chrome 119.0.0.0","1123x632","1123x481",NA,NA,0,"BIQ (Charlotte)",2,"In","ABLCKDJEIFHG",NA,"In","Spreadsheet1",1,"BIQ","Screen 2","o21mwi",2,"response","8",5564.904,80776.219,80782.997999994,5564.904,80776.219,80782.997999994,1,5564.904,75218.093999994,0,NA,"Rating Scale","Rating Scale",2,"object-259","BIQ",NA,"MDPRF46587"
"8",1701951949523,"07/12/2023 12:25:49",1701951949523,0,"07/12/2023 12:25:49",152734,16,"questionnaire-uu2n",NA,33514804,9922635,NA,"complete",NA,"6571b64971deefe0f6a6b775","computer","Desktop or Laptop","Windows 10","Chrome 119.0.0.0","1123x632","1123x481",NA,NA,0,"BIQ (Charlotte)",2,"In","ABLCKDJEIFHG",NA,"In","Spreadsheet1",1,"BIQ","Screen 2","o21mwi",2,"response","3",8264.279,80776.219,80783.398,8264.279,80776.219,80783.398,1,8264.279,72519.119,0,NA,"Rating Scale","Rating Scale",9,"object-36","BIQ",NA,"MDPRF46587"
"9",1701951949524,"07/12/2023 12:25:49",1701951949524,0,"07/12/2023 12:25:49",152734,16,"questionnaire-uu2n",NA,33514804,9922635,NA,"complete",NA,"6571b64971deefe0f6a6b775","computer","Desktop or Laptop","Windows 10","Chrome 119.0.0.0","1123x632","1123x481",NA,NA,0,"BIQ (Charlotte)",2,"In","ABLCKDJEIFHG",NA,"In","Spreadsheet1",1,"BIQ","Screen 2","o21mwi",2,"response","3",78360.187,80776.219,80783.997999994,78360.187,80776.219,80783.997999994,1,78360.187,2423.81099999404,0,NA,"Rating Scale","Rating Scale",16,"object-86","BIQ",NA,"MDPRF46587"
"10",1701951967135,"07/12/2023 12:26:07",1701951967135,0,"07/12/2023 12:26:07",152734,16,"questionnaire-uu2n",NA,33514804,9922635,NA,"complete",NA,"6571b64971deefe0f6a6b775","computer","Desktop or Laptop","Windows 10","Chrome 119.0.0.0","1123x632","1123x481",NA,NA,0,"BIQ (Charlotte)",2,"In","ABLCKDJEIFHG",NA,"In","Spreadsheet1",1,"BIQ","Screen 3","iz3the",3,"continue","",17618.3790000179,17611.51,17618.3790000179,17618.3790000179,17611.51,17618.3790000179,1,17618.3790000179,0,0,NA,"Click To Continue","Continue Button",22,"object-73","BIQ",NA,"MDPRF46587"
"11",1701951967139,"07/12/2023 12:26:07",1701951967139,0,"07/12/2023 12:26:07",152734,16,"questionnaire-uu2n",NA,33514804,9922635,NA,"complete",NA,"6571b64971deefe0f6a6b775","computer","Desktop or Laptop","Windows 10","Chrome 119.0.0.0","1123x632","1123x481",NA,NA,0,"BIQ (Charlotte)",2,"In","ABLCKDJEIFHG",NA,"In","Spreadsheet1",1,"BIQ","Screen 3","iz3the",3,"response","0",7264.545,17611.51,17622.4790000119,7264.545,17611.51,17622.4790000119,1,7264.545,10357.9340000119,0,NA,"Rating Scale","Rating Scale",2,"object-53","BIQ",NA,"MDPRF46587"
"12",1701951967139,"07/12/2023 12:26:07",1701951967139,0,"07/12/2023 12:26:07",152734,16,"questionnaire-uu2n",NA,33514804,9922635,NA,"complete",NA,"6571b64971deefe0f6a6b775","computer","Desktop or Laptop","Windows 10","Chrome 119.0.0.0","1123x632","1123x481",NA,NA,0,"BIQ (Charlotte)",2,"In","ABLCKDJEIFHG",NA,"In","Spreadsheet1",1,"BIQ","Screen 3","iz3the",3,"response","1",11379.972,17611.51,17623.079000006,11379.972,17611.51,17623.079000006,1,11379.972,6243.10700000596,0,NA,"Rating Scale","Rating Scale",9,"object-60","BIQ",NA,"MDPRF46587"
"13",1701951967140,"07/12/2023 12:26:07",1701951967140,0,"07/12/2023 12:26:07",152734,16,"questionnaire-uu2n",NA,33514804,9922635,NA,"complete",NA,"6571b64971deefe0f6a6b775","computer","Desktop or Laptop","Windows 10","Chrome 119.0.0.0","1123x632","1123x481",NA,NA,0,"BIQ (Charlotte)",2,"In","ABLCKDJEIFHG",NA,"In","Spreadsheet1",1,"BIQ","Screen 3","iz3the",3,"response","1",13162.835,17611.51,17623.679,13162.835,17611.51,17623.679,1,13162.835,4460.844,0,NA,"Rating Scale","Rating Scale",16,"object-67","BIQ",NA,"MDPRF46587"
"14",1701951967144,"07/12/2023 12:26:07",1701951967144,0,"07/12/2023 12:26:07",152734,16,"questionnaire-uu2n",NA,33514804,9922635,NA,"complete",NA,"6571b64971deefe0f6a6b775","computer","Desktop or Laptop","Windows 10","Chrome 119.0.0.0","1123x632","1123x481",NA,NA,0,"BIQ (Charlotte)",2,"In","ABLCKDJEIFHG",NA,"In","Spreadsheet1",NA,"","","",NA,"5","END",NA,NA,NA,NA,NA,NA,0,NA,NA,NA,NA,"","",NA,"","",NA,"MDPRF46587"
"1",1701952017163,"07/12/2023 12:26:57",1701952017163,0,"07/12/2023 12:26:57",152734,16,"questionnaire-uu2n",NA,33514957,9922775,NA,"complete",NA,"6571b84619b0d83fd5d24760","computer","Desktop or Laptop","Windows 10","Chrome 120.0.0.0","2560x1440","2560x1313",NA,NA,0,"BIQ (Charlotte)",2,"In","FGEHDICJBKAL",NA,"In","Spreadsheet1",NA,"","","",NA,"5","BEGIN",NA,NA,NA,NA,NA,NA,0,NA,NA,NA,NA,"","",NA,"","",NA,"MDPRF65573"
"2",1701952042905,"07/12/2023 12:27:22",1701952042905,0,"07/12/2023 12:27:22",152734,16,"questionnaire-uu2n",NA,33514957,9922775,NA,"complete",NA,"6571b84619b0d83fd5d24760","computer","Desktop or Laptop","Windows 10","Chrome 120.0.0.0","2560x1440","2560x1313",NA,NA,0,"BIQ (Charlotte)",2,"In","FGEHDICJBKAL",NA,"In","Spreadsheet1",1,"BIQ","Screen 1","9dh6eq",1,"continue","",25742.7999999046,25738.2,25742.7999999046,25742.7999999046,25738.2,25742.7999999046,1,25742.7999999046,0,0,NA,"Click To Continue","Continue Button",23,"object-48","BIQ",NA,"MDPRF65573"
"3",1701952042906,"07/12/2023 12:27:22",1701952042906,0,"07/12/2023 12:27:22",152734,16,"questionnaire-uu2n",NA,33514957,9922775,NA,"complete",NA,"6571b84619b0d83fd5d24760","computer","Desktop or Laptop","Windows 10","Chrome 120.0.0.0","2560x1440","2560x1313",NA,NA,0,"BIQ (Charlotte)",2,"In","FGEHDICJBKAL",NA,"In","Spreadsheet1",1,"BIQ","Screen 1","9dh6eq",1,"response","4",13623.6,25738.2,25744.2,13623.6,25738.2,25744.2,1,13623.6,12120.6,0,NA,"Rating Scale","Rating Scale",3,"object-5","BIQ",NA,"MDPRF65573"
"4",1701952042906,"07/12/2023 12:27:22",1701952042906,0,"07/12/2023 12:27:22",152734,16,"questionnaire-uu2n",NA,33514957,9922775,NA,"complete",NA,"6571b84619b0d83fd5d24760","computer","Desktop or Laptop","Windows 10","Chrome 120.0.0.0","2560x1440","2560x1313",NA,NA,0,"BIQ (Charlotte)",2,"In","FGEHDICJBKAL",NA,"In","Spreadsheet1",1,"BIQ","Screen 1","9dh6eq",1,"response","4",17084.2,25738.2,25744.2,17084.2,25738.2,25744.2,1,17084.2,8660,0,NA,"Rating Scale","Rating Scale",10,"object-18","BIQ",NA,"MDPRF65573"
"5",1701952042907,"07/12/2023 12:27:22",1701952042907,0,"07/12/2023 12:27:22",152734,16,"questionnaire-uu2n",NA,33514957,9922775,NA,"complete",NA,"6571b84619b0d83fd5d24760","computer","Desktop or Laptop","Windows 10","Chrome 120.0.0.0","2560x1440","2560x1313",NA,NA,0,"BIQ (Charlotte)",2,"In","FGEHDICJBKAL",NA,"In","Spreadsheet1",1,"BIQ","Screen 1","9dh6eq",1,"response","5",24926.2,25738.2,25744.2,24926.2,25738.2,25744.2,1,24926.2,818,0,NA,"Rating Scale","Rating Scale",17,"object-80","BIQ",NA,"MDPRF65573"
"6",1701952065770,"07/12/2023 12:27:45",1701952065770,0,"07/12/2023 12:27:45",152734,16,"questionnaire-uu2n",NA,33514957,9922775,NA,"complete",NA,"6571b84619b0d83fd5d24760","computer","Desktop or Laptop","Windows 10","Chrome 120.0.0.0","2560x1440","2560x1313",NA,NA,0,"BIQ (Charlotte)",2,"In","FGEHDICJBKAL",NA,"In","Spreadsheet1",1,"BIQ","Screen 2","o21mwi",2,"continue","",22870.4000000954,22865.7,22870.4000000954,22870.4000000954,22865.7,22870.4000000954,1,22870.4000000954,0,0,NA,"Click To Continue","Continue Button",22,"object-50","BIQ",NA,"MDPRF65573"
"7",1701952065772,"07/12/2023 12:27:45",1701952065772,0,"07/12/2023 12:27:45",152734,16,"questionnaire-uu2n",NA,33514957,9922775,NA,"complete",NA,"6571b84619b0d83fd5d24760","computer","Desktop or Laptop","Windows 10","Chrome 120.0.0.0","2560x1440","2560x1313",NA,NA,0,"BIQ (Charlotte)",2,"In","FGEHDICJBKAL",NA,"In","Spreadsheet1",1,"BIQ","Screen 2","o21mwi",2,"response","7",8684.5,22865.7,22871.8,8684.5,22865.7,22871.8,1,8684.5,14187.3,0,NA,"Rating Scale","Rating Scale",2,"object-259","BIQ",NA,"MDPRF65573"
"8",1701952065772,"07/12/2023 12:27:45",1701952065772,0,"07/12/2023 12:27:45",152734,16,"questionnaire-uu2n",NA,33514957,9922775,NA,"complete",NA,"6571b84619b0d83fd5d24760","computer","Desktop or Laptop","Windows 10","Chrome 120.0.0.0","2560x1440","2560x1313",NA,NA,0,"BIQ (Charlotte)",2,"In","FGEHDICJBKAL",NA,"In","Spreadsheet1",1,"BIQ","Screen 2","o21mwi",2,"response","4",13211.6,22865.7,22871.8,13211.6,22865.7,22871.8,1,13211.6,9660.2,0,NA,"Rating Scale","Rating Scale",9,"object-36","BIQ",NA,"MDPRF65573"
"9",1701952065772,"07/12/2023 12:27:45",1701952065772,0,"07/12/2023 12:27:45",152734,16,"questionnaire-uu2n",NA,33514957,9922775,NA,"complete",NA,"6571b84619b0d83fd5d24760","computer","Desktop or Laptop","Windows 10","Chrome 120.0.0.0","2560x1440","2560x1313",NA,NA,0,"BIQ (Charlotte)",2,"In","FGEHDICJBKAL",NA,"In","Spreadsheet1",1,"BIQ","Screen 2","o21mwi",2,"response","4",22302.2,22865.7,22871.8,22302.2,22865.7,22871.8,1,22302.2,569.599999999999,0,NA,"Rating Scale","Rating Scale",16,"object-86","BIQ",NA,"MDPRF65573"
"10",1701952082083,"07/12/2023 12:28:02",1701952082083,0,"07/12/2023 12:28:02",152734,16,"questionnaire-uu2n",NA,33514957,9922775,NA,"complete",NA,"6571b84619b0d83fd5d24760","computer","Desktop or Laptop","Windows 10","Chrome 120.0.0.0","2560x1440","2560x1313",NA,NA,0,"BIQ (Charlotte)",2,"In","FGEHDICJBKAL",NA,"In","Spreadsheet1",1,"BIQ","Screen 3","iz3the",3,"continue","",16317.8,16314.5,16317.8,16317.8,16314.5,16317.8,1,16317.8,0,0,NA,"Click To Continue","Continue Button",22,"object-73","BIQ",NA,"MDPRF65573"
"11",1701952082085,"07/12/2023 12:28:02",1701952082085,0,"07/12/2023 12:28:02",152734,16,"questionnaire-uu2n",NA,33514957,9922775,NA,"complete",NA,"6571b84619b0d83fd5d24760","computer","Desktop or Laptop","Windows 10","Chrome 120.0.0.0","2560x1440","2560x1313",NA,NA,0,"BIQ (Charlotte)",2,"In","FGEHDICJBKAL",NA,"In","Spreadsheet1",1,"BIQ","Screen 3","iz3the",3,"response","1",7969.4,16314.5,16319.5000000477,7969.4,16314.5,16319.5000000477,1,7969.4,8350.10000004769,0,NA,"Rating Scale","Rating Scale",2,"object-53","BIQ",NA,"MDPRF65573"
"12",1701952082085,"07/12/2023 12:28:02",1701952082085,0,"07/12/2023 12:28:02",152734,16,"questionnaire-uu2n",NA,33514957,9922775,NA,"complete",NA,"6571b84619b0d83fd5d24760","computer","Desktop or Laptop","Windows 10","Chrome 120.0.0.0","2560x1440","2560x1313",NA,NA,0,"BIQ (Charlotte)",2,"In","FGEHDICJBKAL",NA,"In","Spreadsheet1",1,"BIQ","Screen 3","iz3the",3,"response","3",10811.7,16314.5,16319.8999999046,10811.7,16314.5,16319.8999999046,1,10811.7,5508.19999990463,0,NA,"Rating Scale","Rating Scale",9,"object-60","BIQ",NA,"MDPRF65573"
"13",1701952082085,"07/12/2023 12:28:02",1701952082085,0,"07/12/2023 12:28:02",152734,16,"questionnaire-uu2n",NA,33514957,9922775,NA,"complete",NA,"6571b84619b0d83fd5d24760","computer","Desktop or Laptop","Windows 10","Chrome 120.0.0.0","2560x1440","2560x1313",NA,NA,0,"BIQ (Charlotte)",2,"In","FGEHDICJBKAL",NA,"In","Spreadsheet1",1,"BIQ","Screen 3","iz3the",3,"response","4",15799.3,16314.5,16320.2000000954,15799.3,16314.5,16320.2000000954,1,15799.3,520.900000095367,0,NA,"Rating Scale","Rating Scale",16,"object-67","BIQ",NA,"MDPRF65573"
"14",1701952082089,"07/12/2023 12:28:02",1701952082089,0,"07/12/2023 12:28:02",152734,16,"questionnaire-uu2n",NA,33514957,9922775,NA,"complete",NA,"6571b84619b0d83fd5d24760","computer","Desktop or Laptop","Windows 10","Chrome 120.0.0.0","2560x1440","2560x1313",NA,NA,0,"BIQ (Charlotte)",2,"In","FGEHDICJBKAL",NA,"In","Spreadsheet1",NA,"","","",NA,"5","END",NA,NA,NA,NA,NA,NA,0,NA,NA,NA,NA,"","",NA,"","",NA,"MDPRF65573"
"1",1701952543466,"07/12/2023 12:35:43",1701952543466,0,"07/12/2023 12:35:43",152734,16,"questionnaire-uu2n",NA,33515291,9922813,NA,"complete",NA,"6571bae8b39543f9d04ef958","computer","Desktop or Laptop","Chromium OS 14541.0.0","Chrome 118.0.0.0","1366x768","1366x644",NA,NA,0,"BIQ (Charlotte)",2,"In","GHFIEJDKCLBA",NA,"In","Spreadsheet1",NA,"","","",NA,"5","BEGIN",NA,NA,NA,NA,NA,NA,0,NA,NA,NA,NA,"","",NA,"","",NA,"MDPRF72836"
"2",1701952617391,"07/12/2023 12:36:57",1701952617391,0,"07/12/2023 12:36:57",152734,16,"questionnaire-uu2n",NA,33515291,9922813,NA,"complete",NA,"6571bae8b39543f9d04ef958","computer","Desktop or Laptop","Chromium OS 14541.0.0","Chrome 118.0.0.0","1366x768","1366x644",NA,NA,0,"BIQ (Charlotte)",2,"In","GHFIEJDKCLBA",NA,"In","Spreadsheet1",1,"BIQ","Screen 1","9dh6eq",1,"continue","",73927.673,73911.023,73927.673,73927.673,73911.023,73927.673,1,73927.673,0,0,NA,"Click To Continue","Continue Button",23,"object-48","BIQ",NA,"MDPRF72836"
"3",1701952617404,"07/12/2023 12:36:57",1701952617404,0,"07/12/2023 12:36:57",152734,16,"questionnaire-uu2n",NA,33515291,9922813,NA,"complete",NA,"6571bae8b39543f9d04ef958","computer","Desktop or Laptop","Chromium OS 14541.0.0","Chrome 118.0.0.0","1366x768","1366x644",NA,NA,0,"BIQ (Charlotte)",2,"In","GHFIEJDKCLBA",NA,"In","Spreadsheet1",1,"BIQ","Screen 1","9dh6eq",1,"response","8",44223.389,73911.023,73927.673,44223.389,73911.023,73927.673,1,44223.389,29704.284,0,NA,"Rating Scale","Rating Scale",3,"object-5","BIQ",NA,"MDPRF72836"
"4",1701952617406,"07/12/2023 12:36:57",1701952617406,0,"07/12/2023 12:36:57",152734,16,"questionnaire-uu2n",NA,33515291,9922813,NA,"complete",NA,"6571bae8b39543f9d04ef958","computer","Desktop or Laptop","Chromium OS 14541.0.0","Chrome 118.0.0.0","1366x768","1366x644",NA,NA,0,"BIQ (Charlotte)",2,"In","GHFIEJDKCLBA",NA,"In","Spreadsheet1",1,"BIQ","Screen 1","9dh6eq",1,"response","6",63854.124,73911.023,73927.673,63854.124,73911.023,73927.673,1,63854.124,10073.549,0,NA,"Rating Scale","Rating Scale",10,"object-18","BIQ",NA,"MDPRF72836"
"5",1701952617407,"07/12/2023 12:36:57",1701952617407,0,"07/12/2023 12:36:57",152734,16,"questionnaire-uu2n",NA,33515291,9922813,NA,"complete",NA,"6571bae8b39543f9d04ef958","computer","Desktop or Laptop","Chromium OS 14541.0.0","Chrome 118.0.0.0","1366x768","1366x644",NA,NA,0,"BIQ (Charlotte)",2,"In","GHFIEJDKCLBA",NA,"In","Spreadsheet1",1,"BIQ","Screen 1","9dh6eq",1,"response","1",70081.426,73911.023,73927.673,70081.426,73911.023,73927.673,1,70081.426,3846.24699999999,0,NA,"Rating Scale","Rating Scale",17,"object-80","BIQ",NA,"MDPRF72836"
"6",1701952645719,"07/12/2023 12:37:25",1701952645719,0,"07/12/2023 12:37:25",152734,16,"questionnaire-uu2n",NA,33515291,9922813,NA,"complete",NA,"6571bae8b39543f9d04ef958","computer","Desktop or Laptop","Chromium OS 14541.0.0","Chrome 118.0.0.0","1366x768","1366x644",NA,NA,0,"BIQ (Charlotte)",2,"In","GHFIEJDKCLBA",NA,"In","Spreadsheet1",1,"BIQ","Screen 2","o21mwi",2,"continue","",28372.23,28355.58,28372.23,28372.23,28355.58,28372.23,1,28372.23,0,0,NA,"Click To Continue","Continue Button",22,"object-50","BIQ",NA,"MDPRF72836"
"7",1701952645734,"07/12/2023 12:37:25",1701952645734,0,"07/12/2023 12:37:25",152734,16,"questionnaire-uu2n",NA,33515291,9922813,NA,"complete",NA,"6571bae8b39543f9d04ef958","computer","Desktop or Laptop","Chromium OS 14541.0.0","Chrome 118.0.0.0","1366x768","1366x644",NA,NA,0,"BIQ (Charlotte)",2,"In","GHFIEJDKCLBA",NA,"In","Spreadsheet1",1,"BIQ","Screen 2","o21mwi",2,"response","8",8758.096,28355.58,28372.23,8758.096,28355.58,28372.23,1,8758.096,19614.134,0,NA,"Rating Scale","Rating Scale",2,"object-259","BIQ",NA,"MDPRF72836"
"8",1701952645736,"07/12/2023 12:37:25",1701952645736,0,"07/12/2023 12:37:25",152734,16,"questionnaire-uu2n",NA,33515291,9922813,NA,"complete",NA,"6571bae8b39543f9d04ef958","computer","Desktop or Laptop","Chromium OS 14541.0.0","Chrome 118.0.0.0","1366x768","1366x644",NA,NA,0,"BIQ (Charlotte)",2,"In","GHFIEJDKCLBA",NA,"In","Spreadsheet1",1,"BIQ","Screen 2","o21mwi",2,"response","2",21179.281,28355.58,28372.23,21179.281,28355.58,28372.23,1,21179.281,7192.94900000001,0,NA,"Rating Scale","Rating Scale",9,"object-36","BIQ",NA,"MDPRF72836"
"9",1701952645738,"07/12/2023 12:37:25",1701952645738,0,"07/12/2023 12:37:25",152734,16,"questionnaire-uu2n",NA,33515291,9922813,NA,"complete",NA,"6571bae8b39543f9d04ef958","computer","Desktop or Laptop","Chromium OS 14541.0.0","Chrome 118.0.0.0","1366x768","1366x644",NA,NA,0,"BIQ (Charlotte)",2,"In","GHFIEJDKCLBA",NA,"In","Spreadsheet1",1,"BIQ","Screen 2","o21mwi",2,"response","0",27439.82,28355.58,28372.23,27439.82,28355.58,28372.23,1,27439.82,932.410000000004,0,NA,"Rating Scale","Rating Scale",16,"object-86","BIQ",NA,"MDPRF72836"
"10",1701952683891,"07/12/2023 12:38:03",1701952683891,0,"07/12/2023 12:38:03",152734,16,"questionnaire-uu2n",NA,33515291,9922813,NA,"complete",NA,"6571bae8b39543f9d04ef958","computer","Desktop or Laptop","Chromium OS 14541.0.0","Chrome 118.0.0.0","1366x768","1366x644",NA,NA,0,"BIQ (Charlotte)",2,"In","GHFIEJDKCLBA",NA,"In","Spreadsheet1",1,"BIQ","Screen 3","iz3the",3,"continue","",38191.6640000001,38179.32,38191.6640000001,38191.6640000001,38179.32,38191.6640000001,1,38191.6640000001,0,0,NA,"Click To Continue","Continue Button",22,"object-73","BIQ",NA,"MDPRF72836"
"11",1701952683909,"07/12/2023 12:38:03",1701952683909,0,"07/12/2023 12:38:03",152734,16,"questionnaire-uu2n",NA,33515291,9922813,NA,"complete",NA,"6571bae8b39543f9d04ef958","computer","Desktop or Laptop","Chromium OS 14541.0.0","Chrome 118.0.0.0","1366x768","1366x644",NA,NA,0,"BIQ (Charlotte)",2,"In","GHFIEJDKCLBA",NA,"In","Spreadsheet1",1,"BIQ","Screen 3","iz3the",3,"response","1",24093.092,38179.32,38195.97,24093.092,38179.32,38195.97,1,24093.092,14102.878,0,NA,"Rating Scale","Rating Scale",2,"object-53","BIQ",NA,"MDPRF72836"
"12",1701952683912,"07/12/2023 12:38:03",1701952683912,0,"07/12/2023 12:38:03",152734,16,"questionnaire-uu2n",NA,33515291,9922813,NA,"complete",NA,"6571bae8b39543f9d04ef958","computer","Desktop or Laptop","Chromium OS 14541.0.0","Chrome 118.0.0.0","1366x768","1366x644",NA,NA,0,"BIQ (Charlotte)",2,"In","GHFIEJDKCLBA",NA,"In","Spreadsheet1",1,"BIQ","Screen 3","iz3the",3,"response","1",31036.3,38179.32,38195.97,31036.3,38179.32,38195.97,1,31036.3,7159.66999999998,0,NA,"Rating Scale","Rating Scale",9,"object-60","BIQ",NA,"MDPRF72836"
"13",1701952683914,"07/12/2023 12:38:03",1701952683914,0,"07/12/2023 12:38:03",152734,16,"questionnaire-uu2n",NA,33515291,9922813,NA,"complete",NA,"6571bae8b39543f9d04ef958","computer","Desktop or Laptop","Chromium OS 14541.0.0","Chrome 118.0.0.0","1366x768","1366x644",NA,NA,0,"BIQ (Charlotte)",2,"In","GHFIEJDKCLBA",NA,"In","Spreadsheet1",1,"BIQ","Screen 3","iz3the",3,"response","3",36680.767,38179.32,38195.97,36680.767,38179.32,38195.97,1,36680.767,1515.20299999998,0,NA,"Rating Scale","Rating Scale",16,"object-67","BIQ",NA,"MDPRF72836"
"14",1701952683922,"07/12/2023 12:38:03",1701952683922,0,"07/12/2023 12:38:03",152734,16,"questionnaire-uu2n",NA,33515291,9922813,NA,"complete",NA,"6571bae8b39543f9d04ef958","computer","Desktop or Laptop","Chromium OS 14541.0.0","Chrome 118.0.0.0","1366x768","1366x644",NA,NA,0,"BIQ (Charlotte)",2,"In","GHFIEJDKCLBA",NA,"In","Spreadsheet1",NA,"","","",NA,"5","END",NA,NA,NA,NA,NA,NA,0,NA,NA,NA,NA,"","",NA,"","",NA,"MDPRF72836"
"1",1701953121494,"07/12/2023 12:45:21",1701953121494,0,"07/12/2023 12:45:21",152734,16,"questionnaire-uu2n",NA,33515784,9922862,NA,"complete",NA,"6571bc5b6be4a1b0f2c49204","computer","Desktop or Laptop","Chromium OS 14816.131.0","Chrome 103.0.0.0","1366x768","1366x649",NA,NA,0,"BIQ (Charlotte)",2,"In","HIGJFKELDACB",NA,"In","Spreadsheet1",NA,"","","",NA,"5","BEGIN",NA,NA,NA,NA,NA,NA,0,NA,NA,NA,NA,"","",NA,"","",NA,"MDPRF30660"
"2",1701953147445,"07/12/2023 12:45:47",1701953147445,0,"07/12/2023 12:45:47",152734,16,"questionnaire-uu2n",NA,33515784,9922862,NA,"complete",NA,"6571bc5b6be4a1b0f2c49204","computer","Desktop or Laptop","Chromium OS 14816.131.0","Chrome 103.0.0.0","1366x768","1366x649",NA,NA,0,"BIQ (Charlotte)",2,"In","HIGJFKELDACB",NA,"In","Spreadsheet1",1,"BIQ","Screen 1","9dh6eq",1,"continue","",25970.881,25954.231,25970.881,25970.881,25954.231,25970.881,1,25970.881,0,0,NA,"Click To Continue","Continue Button",23,"object-48","BIQ",NA,"MDPRF30660"
"3",1701953147457,"07/12/2023 12:45:47",1701953147457,0,"07/12/2023 12:45:47",152734,16,"questionnaire-uu2n",NA,33515784,9922862,NA,"complete",NA,"6571bc5b6be4a1b0f2c49204","computer","Desktop or Laptop","Chromium OS 14816.131.0","Chrome 103.0.0.0","1366x768","1366x649",NA,NA,0,"BIQ (Charlotte)",2,"In","HIGJFKELDACB",NA,"In","Spreadsheet1",1,"BIQ","Screen 1","9dh6eq",1,"response","2",7196.541,25954.231,25970.881,7196.541,25954.231,25970.881,1,7196.541,18774.34,0,NA,"Rating Scale","Rating Scale",3,"object-5","BIQ",NA,"MDPRF30660"
"4",1701953147459,"07/12/2023 12:45:47",1701953147459,0,"07/12/2023 12:45:47",152734,16,"questionnaire-uu2n",NA,33515784,9922862,NA,"complete",NA,"6571bc5b6be4a1b0f2c49204","computer","Desktop or Laptop","Chromium OS 14816.131.0","Chrome 103.0.0.0","1366x768","1366x649",NA,NA,0,"BIQ (Charlotte)",2,"In","HIGJFKELDACB",NA,"In","Spreadsheet1",1,"BIQ","Screen 1","9dh6eq",1,"response","3",21889.387,25954.231,25970.881,21889.387,25954.231,25970.881,1,21889.387,4081.494,0,NA,"Rating Scale","Rating Scale",10,"object-18","BIQ",NA,"MDPRF30660"
"5",1701953147462,"07/12/2023 12:45:47",1701953147462,0,"07/12/2023 12:45:47",152734,16,"questionnaire-uu2n",NA,33515784,9922862,NA,"complete",NA,"6571bc5b6be4a1b0f2c49204","computer","Desktop or Laptop","Chromium OS 14816.131.0","Chrome 103.0.0.0","1366x768","1366x649",NA,NA,0,"BIQ (Charlotte)",2,"In","HIGJFKELDACB",NA,"In","Spreadsheet1",1,"BIQ","Screen 1","9dh6eq",1,"response","7",24788.146,25954.231,25970.881,24788.146,25954.231,25970.881,1,24788.146,1182.735,0,NA,"Rating Scale","Rating Scale",17,"object-80","BIQ",NA,"MDPRF30660"
"6",1701953163760,"07/12/2023 12:46:03",1701953163760,0,"07/12/2023 12:46:03",152734,16,"questionnaire-uu2n",NA,33515784,9922862,NA,"complete",NA,"6571bc5b6be4a1b0f2c49204","computer","Desktop or Laptop","Chromium OS 14816.131.0","Chrome 103.0.0.0","1366x768","1366x649",NA,NA,0,"BIQ (Charlotte)",2,"In","HIGJFKELDACB",NA,"In","Spreadsheet1",1,"BIQ","Screen 2","o21mwi",2,"continue","",16358.2170000015,16342.302,16358.2170000015,16358.2170000015,16342.302,16358.2170000015,1,16358.2170000015,0,0,NA,"Click To Continue","Continue Button",22,"object-50","BIQ",NA,"MDPRF30660"
"7",1701953163774,"07/12/2023 12:46:03",1701953163774,0,"07/12/2023 12:46:03",152734,16,"questionnaire-uu2n",NA,33515784,9922862,NA,"complete",NA,"6571bc5b6be4a1b0f2c49204","computer","Desktop or Laptop","Chromium OS 14816.131.0","Chrome 103.0.0.0","1366x768","1366x649",NA,NA,0,"BIQ (Charlotte)",2,"In","HIGJFKELDACB",NA,"In","Spreadsheet1",1,"BIQ","Screen 2","o21mwi",2,"response","3",6613.383,16342.302,16358.952,6613.383,16342.302,16358.952,1,6613.383,9745.56899999999,0,NA,"Rating Scale","Rating Scale",2,"object-259","BIQ",NA,"MDPRF30660"
"8",1701953163777,"07/12/2023 12:46:03",1701953163777,0,"07/12/2023 12:46:03",152734,16,"questionnaire-uu2n",NA,33515784,9922862,NA,"complete",NA,"6571bc5b6be4a1b0f2c49204","computer","Desktop or Laptop","Chromium OS 14816.131.0","Chrome 103.0.0.0","1366x768","1366x649",NA,NA,0,"BIQ (Charlotte)",2,"In","HIGJFKELDACB",NA,"In","Spreadsheet1",1,"BIQ","Screen 2","o21mwi",2,"response","6",10361.764,16342.302,16358.952,10361.764,16342.302,16358.952,1,10361.764,5997.188,0,NA,"Rating Scale","Rating Scale",9,"object-36","BIQ",NA,"MDPRF30660"
"9",1701953163779,"07/12/2023 12:46:03",1701953163779,0,"07/12/2023 12:46:03",152734,16,"questionnaire-uu2n",NA,33515784,9922862,NA,"complete",NA,"6571bc5b6be4a1b0f2c49204","computer","Desktop or Laptop","Chromium OS 14816.131.0","Chrome 103.0.0.0","1366x768","1366x649",NA,NA,0,"BIQ (Charlotte)",2,"In","HIGJFKELDACB",NA,"In","Spreadsheet1",1,"BIQ","Screen 2","o21mwi",2,"response","8",14909.609,16342.302,16358.952,14909.609,16342.302,16358.952,1,14909.609,1449.34299999999,0,NA,"Rating Scale","Rating Scale",16,"object-86","BIQ",NA,"MDPRF30660"
"10",1701953176283,"07/12/2023 12:46:16",1701953176283,0,"07/12/2023 12:46:16",152734,16,"questionnaire-uu2n",NA,33515784,9922862,NA,"complete",NA,"6571bc5b6be4a1b0f2c49204","computer","Desktop or Laptop","Chromium OS 14816.131.0","Chrome 103.0.0.0","1366x768","1366x649",NA,NA,0,"BIQ (Charlotte)",2,"In","HIGJFKELDACB",NA,"In","Spreadsheet1",1,"BIQ","Screen 3","iz3the",3,"continue","",12540.9150000015,12527.356,12540.9150000015,12540.9150000015,12527.356,12540.9150000015,1,12540.9150000015,0,0,NA,"Click To Continue","Continue Button",22,"object-73","BIQ",NA,"MDPRF30660"
"11",1701953176298,"07/12/2023 12:46:16",1701953176298,0,"07/12/2023 12:46:16",152734,16,"questionnaire-uu2n",NA,33515784,9922862,NA,"complete",NA,"6571bc5b6be4a1b0f2c49204","computer","Desktop or Laptop","Chromium OS 14816.131.0","Chrome 103.0.0.0","1366x768","1366x649",NA,NA,0,"BIQ (Charlotte)",2,"In","HIGJFKELDACB",NA,"In","Spreadsheet1",1,"BIQ","Screen 3","iz3the",3,"response","4",4864.22,12527.356,12544.006,4864.22,12527.356,12544.006,1,4864.22,7679.78599999999,0,NA,"Rating Scale","Rating Scale",2,"object-53","BIQ",NA,"MDPRF30660"
"12",1701953176300,"07/12/2023 12:46:16",1701953176300,0,"07/12/2023 12:46:16",152734,16,"questionnaire-uu2n",NA,33515784,9922862,NA,"complete",NA,"6571bc5b6be4a1b0f2c49204","computer","Desktop or Laptop","Chromium OS 14816.131.0","Chrome 103.0.0.0","1366x768","1366x649",NA,NA,0,"BIQ (Charlotte)",2,"In","HIGJFKELDACB",NA,"In","Spreadsheet1",1,"BIQ","Screen 3","iz3the",3,"response","7",7779.18,12527.356,12544.006,7779.18,12527.356,12544.006,1,7779.18,4764.82599999999,0,NA,"Rating Scale","Rating Scale",9,"object-60","BIQ",NA,"MDPRF30660"
"13",1701953176301,"07/12/2023 12:46:16",1701953176301,0,"07/12/2023 12:46:16",152734,16,"questionnaire-uu2n",NA,33515784,9922862,NA,"complete",NA,"6571bc5b6be4a1b0f2c49204","computer","Desktop or Laptop","Chromium OS 14816.131.0","Chrome 103.0.0.0","1366x768","1366x649",NA,NA,0,"BIQ (Charlotte)",2,"In","HIGJFKELDACB",NA,"In","Spreadsheet1",1,"BIQ","Screen 3","iz3the",3,"response","7",10477.722,12527.356,12544.006,10477.722,12527.356,12544.006,1,10477.722,2066.28399999999,0,NA,"Rating Scale","Rating Scale",16,"object-67","BIQ",NA,"MDPRF30660"
"14",1701953176314,"07/12/2023 12:46:16",1701953176314,0,"07/12/2023 12:46:16",152734,16,"questionnaire-uu2n",NA,33515784,9922862,NA,"complete",NA,"6571bc5b6be4a1b0f2c49204","computer","Desktop or Laptop","Chromium OS 14816.131.0","Chrome 103.0.0.0","1366x768","1366x649",NA,NA,0,"BIQ (Charlotte)",2,"In","HIGJFKELDACB",NA,"In","Spreadsheet1",NA,"","","",NA,"5","END",NA,NA,NA,NA,NA,NA,0,NA,NA,NA,NA,"","",NA,"","",NA,"MDPRF30660"
"1",1701953175090,"07/12/2023 12:46:15",1701953175090,0,"07/12/2023 12:46:15",152734,16,"questionnaire-uu2n",NA,33515829,9922888,NA,"live",NA,"6571bc9d1ea2dfd675c43a4d","computer","Desktop or Laptop","Chromium OS 14541.0.0","Chrome 118.0.0.0","1536x864","1536x740",NA,NA,0,"BIQ (Charlotte)",2,"In","IJHKGLFAEBDC",NA,"In","Spreadsheet1",NA,"","","",NA,"5","BEGIN",NA,NA,NA,NA,NA,NA,0,NA,NA,NA,NA,"","",NA,"","",NA,"MDPRF80741"
"2",1701953232545,"07/12/2023 12:47:12",1701953232545,0,"07/12/2023 12:47:12",152734,16,"questionnaire-uu2n",NA,33515829,9922888,NA,"live",NA,"6571bc9d1ea2dfd675c43a4d","computer","Desktop or Laptop","Chromium OS 14541.0.0","Chrome 118.0.0.0","1536x864","1536x740",NA,NA,0,"BIQ (Charlotte)",2,"In","IJHKGLFAEBDC",NA,"In","Spreadsheet1",1,"BIQ","Screen 1","9dh6eq",1,"continue","",57469.9180000002,57454.476,57469.9180000002,57469.9180000002,57454.476,57469.9180000002,1,57469.9180000002,0,0,NA,"Click To Continue","Continue Button",23,"object-48","BIQ",NA,"MDPRF80741"
"3",1701953232551,"07/12/2023 12:47:12",1701953232551,0,"07/12/2023 12:47:12",152734,16,"questionnaire-uu2n",NA,33515829,9922888,NA,"live",NA,"6571bc9d1ea2dfd675c43a4d","computer","Desktop or Laptop","Chromium OS 14541.0.0","Chrome 118.0.0.0","1536x864","1536x740",NA,NA,0,"BIQ (Charlotte)",2,"In","IJHKGLFAEBDC",NA,"In","Spreadsheet1",1,"BIQ","Screen 1","9dh6eq",1,"response","7",44957.125,57454.476,57471.139,44957.125,57454.476,57471.139,1,44957.125,12514.014,0,NA,"Rating Scale","Rating Scale",3,"object-5","BIQ",NA,"MDPRF80741"
"4",1701953232552,"07/12/2023 12:47:12",1701953232552,0,"07/12/2023 12:47:12",152734,16,"questionnaire-uu2n",NA,33515829,9922888,NA,"live",NA,"6571bc9d1ea2dfd675c43a4d","computer","Desktop or Laptop","Chromium OS 14541.0.0","Chrome 118.0.0.0","1536x864","1536x740",NA,NA,0,"BIQ (Charlotte)",2,"In","IJHKGLFAEBDC",NA,"In","Spreadsheet1",1,"BIQ","Screen 1","9dh6eq",1,"response","7",49139.571,57454.476,57471.139,49139.571,57454.476,57471.139,1,49139.571,8331.568,0,NA,"Rating Scale","Rating Scale",10,"object-18","BIQ",NA,"MDPRF80741"
"5",1701953232553,"07/12/2023 12:47:12",1701953232553,0,"07/12/2023 12:47:12",152734,16,"questionnaire-uu2n",NA,33515829,9922888,NA,"live",NA,"6571bc9d1ea2dfd675c43a4d","computer","Desktop or Laptop","Chromium OS 14541.0.0","Chrome 118.0.0.0","1536x864","1536x740",NA,NA,0,"BIQ (Charlotte)",2,"In","IJHKGLFAEBDC",NA,"In","Spreadsheet1",1,"BIQ","Screen 1","9dh6eq",1,"response","1",53022.085,57454.476,57471.139,53022.085,57454.476,57471.139,1,53022.085,4449.054,0,NA,"Rating Scale","Rating Scale",17,"object-80","BIQ",NA,"MDPRF80741"
"6",1701953247689,"07/12/2023 12:47:27",1701953247689,0,"07/12/2023 12:47:27",152734,16,"questionnaire-uu2n",NA,33515829,9922888,NA,"live",NA,"6571bc9d1ea2dfd675c43a4d","computer","Desktop or Laptop","Chromium OS 14541.0.0","Chrome 118.0.0.0","1536x864","1536x740",NA,NA,0,"BIQ (Charlotte)",2,"In","IJHKGLFAEBDC",NA,"In","Spreadsheet1",1,"BIQ","Screen 2","o21mwi",2,"continue","",15160.242,15146.789,15160.242,15160.242,15146.789,15160.242,1,15160.242,0,0,NA,"Click To Continue","Continue Button",22,"object-50","BIQ",NA,"MDPRF80741"
"7",1701953247694,"07/12/2023 12:47:27",1701953247694,0,"07/12/2023 12:47:27",152734,16,"questionnaire-uu2n",NA,33515829,9922888,NA,"live",NA,"6571bc9d1ea2dfd675c43a4d","computer","Desktop or Laptop","Chromium OS 14541.0.0","Chrome 118.0.0.0","1536x864","1536x740",NA,NA,0,"BIQ (Charlotte)",2,"In","IJHKGLFAEBDC",NA,"In","Spreadsheet1",1,"BIQ","Screen 2","o21mwi",2,"response","7",4732.332,15146.789,15163.452,4732.332,15146.789,15163.452,1,4732.332,10431.12,0,NA,"Rating Scale","Rating Scale",2,"object-259","BIQ",NA,"MDPRF80741"
"8",1701953247694,"07/12/2023 12:47:27",1701953247694,0,"07/12/2023 12:47:27",152734,16,"questionnaire-uu2n",NA,33515829,9922888,NA,"live",NA,"6571bc9d1ea2dfd675c43a4d","computer","Desktop or Laptop","Chromium OS 14541.0.0","Chrome 118.0.0.0","1536x864","1536x740",NA,NA,0,"BIQ (Charlotte)",2,"In","IJHKGLFAEBDC",NA,"In","Spreadsheet1",1,"BIQ","Screen 2","o21mwi",2,"response","1",9547.97,15146.789,15163.452,9547.97,15146.789,15163.452,1,9547.97,5615.482,0,NA,"Rating Scale","Rating Scale",9,"object-36","BIQ",NA,"MDPRF80741"
"9",1701953247695,"07/12/2023 12:47:27",1701953247695,0,"07/12/2023 12:47:27",152734,16,"questionnaire-uu2n",NA,33515829,9922888,NA,"live",NA,"6571bc9d1ea2dfd675c43a4d","computer","Desktop or Laptop","Chromium OS 14541.0.0","Chrome 118.0.0.0","1536x864","1536x740",NA,NA,0,"BIQ (Charlotte)",2,"In","IJHKGLFAEBDC",NA,"In","Spreadsheet1",1,"BIQ","Screen 2","o21mwi",2,"response","1",14180.319,15146.789,15163.452,14180.319,15146.789,15163.452,1,14180.319,983.133000000002,0,NA,"Rating Scale","Rating Scale",16,"object-86","BIQ",NA,"MDPRF80741"
"10",1701953260635,"07/12/2023 12:47:40",1701953260635,0,"07/12/2023 12:47:40",152734,16,"questionnaire-uu2n",NA,33515829,9922888,NA,"live",NA,"6571bc9d1ea2dfd675c43a4d","computer","Desktop or Laptop","Chromium OS 14541.0.0","Chrome 118.0.0.0","1536x864","1536x740",NA,NA,0,"BIQ (Charlotte)",2,"In","IJHKGLFAEBDC",NA,"In","Spreadsheet1",1,"BIQ","Screen 3","iz3the",3,"continue","",12959.1530000002,12947.25,12959.1530000002,12959.1530000002,12947.25,12959.1530000002,1,12959.1530000002,0,0,NA,"Click To Continue","Continue Button",22,"object-73","BIQ",NA,"MDPRF80741"
"11",1701953260638,"07/12/2023 12:47:40",1701953260638,0,"07/12/2023 12:47:40",152734,16,"questionnaire-uu2n",NA,33515829,9922888,NA,"live",NA,"6571bc9d1ea2dfd675c43a4d","computer","Desktop or Laptop","Chromium OS 14541.0.0","Chrome 118.0.0.0","1536x864","1536x740",NA,NA,0,"BIQ (Charlotte)",2,"In","IJHKGLFAEBDC",NA,"In","Spreadsheet1",1,"BIQ","Screen 3","iz3the",3,"response","1",4649.01299999999,12947.25,12963.0530000001,4649.01299999999,12947.25,12963.0530000001,1,4649.01299999999,8314.0400000001,0,NA,"Rating Scale","Rating Scale",2,"object-53","BIQ",NA,"MDPRF80741"
"12",1701953260639,"07/12/2023 12:47:40",1701953260639,0,"07/12/2023 12:47:40",152734,16,"questionnaire-uu2n",NA,33515829,9922888,NA,"live",NA,"6571bc9d1ea2dfd675c43a4d","computer","Desktop or Laptop","Chromium OS 14541.0.0","Chrome 118.0.0.0","1536x864","1536x740",NA,NA,0,"BIQ (Charlotte)",2,"In","IJHKGLFAEBDC",NA,"In","Spreadsheet1",1,"BIQ","Screen 3","iz3the",3,"response","1",6765.21699999999,12947.25,12963.6530000002,6765.21699999999,12947.25,12963.6530000002,1,6765.21699999999,6198.43600000019,0,NA,"Rating Scale","Rating Scale",9,"object-60","BIQ",NA,"MDPRF80741"
"13",1701953260643,"07/12/2023 12:47:40",1701953260643,0,"07/12/2023 12:47:40",152734,16,"questionnaire-uu2n",NA,33515829,9922888,NA,"live",NA,"6571bc9d1ea2dfd675c43a4d","computer","Desktop or Laptop","Chromium OS 14541.0.0","Chrome 118.0.0.0","1536x864","1536x740",NA,NA,0,"BIQ (Charlotte)",2,"In","IJHKGLFAEBDC",NA,"In","Spreadsheet1",1,"BIQ","Screen 3","iz3the",3,"response","1",11764.161,12947.25,12963.913,11764.161,12947.25,12963.913,1,11764.161,1199.75200000001,0,NA,"Rating Scale","Rating Scale",16,"object-67","BIQ",NA,"MDPRF80741"
"14",1701953260649,"07/12/2023 12:47:40",1701953260649,0,"07/12/2023 12:47:40",152734,16,"questionnaire-uu2n",NA,33515829,9922888,NA,"live",NA,"6571bc9d1ea2dfd675c43a4d","computer","Desktop or Laptop","Chromium OS 14541.0.0","Chrome 118.0.0.0","1536x864","1536x740",NA,NA,0,"BIQ (Charlotte)",2,"In","IJHKGLFAEBDC",NA,"In","Spreadsheet1",NA,"","","",NA,"5","END",NA,NA,NA,NA,NA,NA,0,NA,NA,NA,NA,"","",NA,"","",NA,"MDPRF80741"
"1",1701956791172,"07/12/2023 13:46:31",1701956791172,0,"07/12/2023 13:46:31",152734,16,"questionnaire-uu2n",NA,33517691,9923458,NA,"complete",NA,"6571cb4bdeac88baee068bc7","computer","Desktop or Laptop","Windows 10","Firefox 120.0","1600x900","1600x766",NA,NA,0,"BIQ (Charlotte)",2,"In","JKILHAGBFCED",NA,"In","Spreadsheet1",NA,"","","",NA,"5","BEGIN",NA,NA,NA,NA,NA,NA,0,NA,NA,NA,NA,"","",NA,"","",NA,"MDPRF43489"
"2",1701956817827,"07/12/2023 13:46:57",1701956817827,0,"07/12/2023 13:46:57",152734,16,"questionnaire-uu2n",NA,33517691,9923458,NA,"complete",NA,"6571cb4bdeac88baee068bc7","computer","Desktop or Laptop","Windows 10","Firefox 120.0","1600x900","1600x766",NA,NA,0,"BIQ (Charlotte)",2,"In","JKILHAGBFCED",NA,"In","Spreadsheet1",1,"BIQ","Screen 1","9dh6eq",1,"continue","",26658.64,26645.94,26658.64,26658.64,26645.94,26658.64,1,26658.64,0,0,NA,"Click To Continue","Continue Button",23,"object-48","BIQ",NA,"MDPRF43489"
"3",1701956817829,"07/12/2023 13:46:57",1701956817829,0,"07/12/2023 13:46:57",152734,16,"questionnaire-uu2n",NA,33517691,9923458,NA,"complete",NA,"6571cb4bdeac88baee068bc7","computer","Desktop or Laptop","Windows 10","Firefox 120.0","1600x900","1600x766",NA,NA,0,"BIQ (Charlotte)",2,"In","JKILHAGBFCED",NA,"In","Spreadsheet1",1,"BIQ","Screen 1","9dh6eq",1,"response","6",8829.12,26645.94,26660.64,8829.12,26645.94,26660.64,1,8829.12,17831.52,0,NA,"Rating Scale","Rating Scale",3,"object-5","BIQ",NA,"MDPRF43489"
"4",1701956817829,"07/12/2023 13:46:57",1701956817829,0,"07/12/2023 13:46:57",152734,16,"questionnaire-uu2n",NA,33517691,9923458,NA,"complete",NA,"6571cb4bdeac88baee068bc7","computer","Desktop or Laptop","Windows 10","Firefox 120.0","1600x900","1600x766",NA,NA,0,"BIQ (Charlotte)",2,"In","JKILHAGBFCED",NA,"In","Spreadsheet1",1,"BIQ","Screen 1","9dh6eq",1,"response","5",21962.56,26645.94,26660.64,21962.56,26645.94,26660.64,1,21962.56,4698.08,0,NA,"Rating Scale","Rating Scale",10,"object-18","BIQ",NA,"MDPRF43489"
"5",1701956817829,"07/12/2023 13:46:57",1701956817829,0,"07/12/2023 13:46:57",152734,16,"questionnaire-uu2n",NA,33517691,9923458,NA,"complete",NA,"6571cb4bdeac88baee068bc7","computer","Desktop or Laptop","Windows 10","Firefox 120.0","1600x900","1600x766",NA,NA,0,"BIQ (Charlotte)",2,"In","JKILHAGBFCED",NA,"In","Spreadsheet1",1,"BIQ","Screen 1","9dh6eq",1,"response","1",25812.56,26645.94,26660.64,25812.56,26645.94,26660.64,1,25812.56,848.080000000002,0,NA,"Rating Scale","Rating Scale",17,"object-80","BIQ",NA,"MDPRF43489"
"6",1701956837150,"07/12/2023 13:47:17",1701956837150,0,"07/12/2023 13:47:17",152734,16,"questionnaire-uu2n",NA,33517691,9923458,NA,"complete",NA,"6571cb4bdeac88baee068bc7","computer","Desktop or Laptop","Windows 10","Firefox 120.0","1600x900","1600x766",NA,NA,0,"BIQ (Charlotte)",2,"In","JKILHAGBFCED",NA,"In","Spreadsheet1",1,"BIQ","Screen 2","o21mwi",2,"continue","",19334.7,19333.44,19334.7,19334.7,19333.44,19334.7,1,19334.7,0,0,NA,"Click To Continue","Continue Button",22,"object-50","BIQ",NA,"MDPRF43489"
"7",1701956837151,"07/12/2023 13:47:17",1701956837151,0,"07/12/2023 13:47:17",152734,16,"questionnaire-uu2n",NA,33517691,9923458,NA,"complete",NA,"6571cb4bdeac88baee068bc7","computer","Desktop or Laptop","Windows 10","Firefox 120.0","1600x900","1600x766",NA,NA,0,"BIQ (Charlotte)",2,"In","JKILHAGBFCED",NA,"In","Spreadsheet1",1,"BIQ","Screen 2","o21mwi",2,"response","7",4383.36,19333.44,19335.7,4383.36,19333.44,19335.7,1,4383.36,14952.34,0,NA,"Rating Scale","Rating Scale",2,"object-259","BIQ",NA,"MDPRF43489"
"8",1701956837151,"07/12/2023 13:47:17",1701956837151,0,"07/12/2023 13:47:17",152734,16,"questionnaire-uu2n",NA,33517691,9923458,NA,"complete",NA,"6571cb4bdeac88baee068bc7","computer","Desktop or Laptop","Windows 10","Firefox 120.0","1600x900","1600x766",NA,NA,0,"BIQ (Charlotte)",2,"In","JKILHAGBFCED",NA,"In","Spreadsheet1",1,"BIQ","Screen 2","o21mwi",2,"response","2",9183.36,19333.44,19335.7,9183.36,19333.44,19335.7,1,9183.36,10152.34,0,NA,"Rating Scale","Rating Scale",9,"object-36","BIQ",NA,"MDPRF43489"
"9",1701956837151,"07/12/2023 13:47:17",1701956837151,0,"07/12/2023 13:47:17",152734,16,"questionnaire-uu2n",NA,33517691,9923458,NA,"complete",NA,"6571cb4bdeac88baee068bc7","computer","Desktop or Laptop","Windows 10","Firefox 120.0","1600x900","1600x766",NA,NA,0,"BIQ (Charlotte)",2,"In","JKILHAGBFCED",NA,"In","Spreadsheet1",1,"BIQ","Screen 2","o21mwi",2,"response","0",14033.42,19333.44,19335.7,14033.42,19333.44,19335.7,1,14033.42,5302.28,0,NA,"Rating Scale","Rating Scale",16,"object-86","BIQ",NA,"MDPRF43489"
"10",1701956849338,"07/12/2023 13:47:29",1701956849338,0,"07/12/2023 13:47:29",152734,16,"questionnaire-uu2n",NA,33517691,9923458,NA,"complete",NA,"6571cb4bdeac88baee068bc7","computer","Desktop or Laptop","Windows 10","Firefox 120.0","1600x900","1600x766",NA,NA,0,"BIQ (Charlotte)",2,"In","JKILHAGBFCED",NA,"In","Spreadsheet1",1,"BIQ","Screen 3","iz3the",3,"continue","",12189.26,12183.44,12189.26,12189.26,12183.44,12189.26,1,12189.26,0,0,NA,"Click To Continue","Continue Button",22,"object-73","BIQ",NA,"MDPRF43489"
"11",1701956849340,"07/12/2023 13:47:29",1701956849340,0,"07/12/2023 13:47:29",152734,16,"questionnaire-uu2n",NA,33517691,9923458,NA,"complete",NA,"6571cb4bdeac88baee068bc7","computer","Desktop or Laptop","Windows 10","Firefox 120.0","1600x900","1600x766",NA,NA,0,"BIQ (Charlotte)",2,"In","JKILHAGBFCED",NA,"In","Spreadsheet1",1,"BIQ","Screen 3","iz3the",3,"response","0",4466.7,12183.44,12191.26,4466.7,12183.44,12191.26,1,4466.7,7724.56,0,NA,"Rating Scale","Rating Scale",2,"object-53","BIQ",NA,"MDPRF43489"
"12",1701956849340,"07/12/2023 13:47:29",1701956849340,0,"07/12/2023 13:47:29",152734,16,"questionnaire-uu2n",NA,33517691,9923458,NA,"complete",NA,"6571cb4bdeac88baee068bc7","computer","Desktop or Laptop","Windows 10","Firefox 120.0","1600x900","1600x766",NA,NA,0,"BIQ (Charlotte)",2,"In","JKILHAGBFCED",NA,"In","Spreadsheet1",1,"BIQ","Screen 3","iz3the",3,"response","0",8050.08,12183.44,12191.26,8050.08,12183.44,12191.26,1,8050.08,4141.18,0,NA,"Rating Scale","Rating Scale",9,"object-60","BIQ",NA,"MDPRF43489"
"13",1701956849340,"07/12/2023 13:47:29",1701956849340,0,"07/12/2023 13:47:29",152734,16,"questionnaire-uu2n",NA,33517691,9923458,NA,"complete",NA,"6571cb4bdeac88baee068bc7","computer","Desktop or Laptop","Windows 10","Firefox 120.0","1600x900","1600x766",NA,NA,0,"BIQ (Charlotte)",2,"In","JKILHAGBFCED",NA,"In","Spreadsheet1",1,"BIQ","Screen 3","iz3the",3,"response","1",10666.76,12183.44,12191.26,10666.76,12183.44,12191.26,1,10666.76,1524.5,0,NA,"Rating Scale","Rating Scale",16,"object-67","BIQ",NA,"MDPRF43489"
"14",1701956849341,"07/12/2023 13:47:29",1701956849341,0,"07/12/2023 13:47:29",152734,16,"questionnaire-uu2n",NA,33517691,9923458,NA,"complete",NA,"6571cb4bdeac88baee068bc7","computer","Desktop or Laptop","Windows 10","Firefox 120.0","1600x900","1600x766",NA,NA,0,"BIQ (Charlotte)",2,"In","JKILHAGBFCED",NA,"In","Spreadsheet1",NA,"","","",NA,"5","END",NA,NA,NA,NA,NA,NA,0,NA,NA,NA,NA,"","",NA,"","",NA,"MDPRF43489"
