participant,session,date,expName,psychopyVersion,OS,frameRate,rating_all.response,rating_all.rt,rating_all.tStart,rndRat1.thisRepN,rndRat1.thisTrialN,rndRat1.thisN,rndRat1.thisIndex,rndRat1.ran,Emo,Labs,Labs2,rating_alt.response,rating_alt.rt,AltC.thisRepN,AltC.thisTrialN,AltC.thisN,AltC.thisIndex,AltC.ran,alt_choices,pic_choices,TopAlt_Choice,rndRat2.thisRepN,rndRat2.thisTrialN,rndRat2.thisN,rndRat2.thisIndex,rndRat2.ran,rndRat3.thisRepN,rndRat3.thisTrialN,rndRat3.thisN,rndRat3.thisIndex,rndRat3.ran,trials_FC_H.thisRepN,trials_FC_H.thisTrialN,trials_FC_H.thisN,trials_FC_H.thisIndex,trials_FC_H.ran
MDPRF67596,577F7359-6CCC-4BF8-8E7A-FF90280FF071,2023-10-30_17h37.54.470,VExplicitOC_RO,2022.2.5,MacIntel,30.3030303,NA,NA,NA,NA,NA,NA,NA,NA,NA,NA,NA,NA,NA,NA,NA,NA,NA,NA,NA,NA,NA,NA,NA,NA,NA,NA,NA,NA,NA,NA,NA,NA,NA,NA,NA,NA
MDPRF67596,577F7359-6CCC-4BF8-8E7A-FF90280FF071,2023-10-30_17h37.54.470,VExplicitOC_RO,2022.2.5,MacIntel,30.3030303,NA,NA,NA,NA,NA,NA,NA,NA,NA,NA,NA,NA,NA,NA,NA,NA,NA,NA,NA,NA,NA,NA,NA,NA,NA,NA,NA,NA,NA,NA,NA,NA,NA,NA,NA,NA
MDPRF67596,577F7359-6CCC-4BF8-8E7A-FF90280FF071,2023-10-30_17h37.54.470,VExplicitOC_RO,2022.2.5,MacIntel,30.3030303,NA,NA,NA,NA,NA,NA,NA,NA,NA,NA,NA,NA,NA,NA,NA,NA,NA,NA,NA,NA,NA,NA,NA,NA,NA,NA,NA,NA,NA,NA,NA,NA,NA,NA,NA,NA
MDPRF67596,577F7359-6CCC-4BF8-8E7A-FF90280FF071,2023-10-30_17h37.54.470,VExplicitOC_RO,2022.2.5,MacIntel,30.3030303,44.38095238,4.403,2,0,0,0,1,1,frustrated,"frustrated, not frustrated","more frustrated, less frustrated",NA,NA,NA,NA,NA,NA,NA,NA,NA,NA,NA,NA,NA,NA,NA,NA,NA,NA,NA,NA,NA,NA,NA,NA,NA
MDPRF67596,577F7359-6CCC-4BF8-8E7A-FF90280FF071,2023-10-30_17h37.54.470,VExplicitOC_RO,2022.2.5,MacIntel,30.3030303,39.80952381,3.214,2.03,0,1,1,0,1,happy,"unhappy, happy","less happy, more happy",NA,NA,NA,NA,NA,NA,NA,NA,NA,NA,NA,NA,NA,NA,NA,NA,NA,NA,NA,NA,NA,NA,NA,NA,NA
MDPRF67596,577F7359-6CCC-4BF8-8E7A-FF90280FF071,2023-10-30_17h37.54.470,VExplicitOC_RO,2022.2.5,MacIntel,30.3030303,31.42857143,3.582,2.031,0,2,2,2,1,bored,"bored, not bored","more bored, less bored",NA,NA,NA,NA,NA,NA,NA,NA,NA,NA,NA,NA,NA,NA,NA,NA,NA,NA,NA,NA,NA,NA,NA,NA,NA
MDPRF67596,577F7359-6CCC-4BF8-8E7A-FF90280FF071,2023-10-30_17h37.54.470,VExplicitOC_RO,2022.2.5,MacIntel,30.3030303,NA,NA,NA,NA,NA,NA,NA,NA,NA,NA,NA,NA,NA,NA,NA,NA,NA,NA,NA,NA,NA,NA,NA,NA,NA,NA,NA,NA,NA,NA,NA,NA,NA,NA,NA,NA
MDPRF67596,577F7359-6CCC-4BF8-8E7A-FF90280FF071,2023-10-30_17h37.54.470,VExplicitOC_RO,2022.2.5,MacIntel,30.3030303,NA,NA,NA,NA,NA,NA,NA,NA,NA,NA,NA,NA,NA,NA,NA,NA,NA,NA,NA,NA,NA,NA,NA,NA,NA,NA,NA,NA,NA,NA,NA,NA,NA,NA,NA,NA
MDPRF67596,577F7359-6CCC-4BF8-8E7A-FF90280FF071,2023-10-30_17h37.54.470,VExplicitOC_RO,2022.2.5,MacIntel,30.3030303,NA,NA,NA,NA,NA,NA,NA,NA,NA,NA,NA,NA,NA,NA,NA,NA,NA,NA,NA,NA,NA,NA,NA,NA,NA,NA,NA,NA,NA,NA,NA,NA,NA,NA,NA,NA
MDPRF67596,577F7359-6CCC-4BF8-8E7A-FF90280FF071,2023-10-30_17h37.54.470,VExplicitOC_RO,2022.2.5,MacIntel,30.3030303,NA,NA,NA,NA,NA,NA,NA,NA,NA,NA,NA,NA,NA,NA,NA,NA,NA,NA,NA,NA,NA,NA,NA,NA,NA,NA,NA,NA,NA,NA,NA,NA,NA,NA,NA,NA
MDPRF67596,577F7359-6CCC-4BF8-8E7A-FF90280FF071,2023-10-30_17h37.54.470,VExplicitOC_RO,2022.2.5,MacIntel,30.3030303,NA,NA,NA,NA,NA,NA,NA,NA,NA,NA,NA,35.42857143,2.437,0,0,0,0,1,rest (looking at a fixed cross),001.png,NA,NA,NA,NA,NA,NA,NA,NA,NA,NA,NA,NA,NA,NA,NA,NA
MDPRF67596,577F7359-6CCC-4BF8-8E7A-FF90280FF071,2023-10-30_17h37.54.470,VExplicitOC_RO,2022.2.5,MacIntel,30.3030303,NA,NA,NA,NA,NA,NA,NA,NA,NA,NA,NA,40.57142857,1.384,0,1,1,1,1,stand up,002.png,NA,NA,NA,NA,NA,NA,NA,NA,NA,NA,NA,NA,NA,NA,NA,NA
MDPRF67596,577F7359-6CCC-4BF8-8E7A-FF90280FF071,2023-10-30_17h37.54.470,VExplicitOC_RO,2022.2.5,MacIntel,30.3030303,NA,NA,NA,NA,NA,NA,NA,NA,NA,NA,NA,82.0952381,1.336,0,2,2,2,1,stretch,003.png,NA,NA,NA,NA,NA,NA,NA,NA,NA,NA,NA,NA,NA,NA,NA,NA
MDPRF67596,577F7359-6CCC-4BF8-8E7A-FF90280FF071,2023-10-30_17h37.54.470,VExplicitOC_RO,2022.2.5,MacIntel,30.3030303,NA,NA,NA,NA,NA,NA,NA,NA,NA,NA,NA,88.95238095,1.85,0,3,3,3,1,make a drink,004.png,NA,NA,NA,NA,NA,NA,NA,NA,NA,NA,NA,NA,NA,NA,NA,NA
MDPRF67596,577F7359-6CCC-4BF8-8E7A-FF90280FF071,2023-10-30_17h37.54.470,VExplicitOC_RO,2022.2.5,MacIntel,30.3030303,NA,NA,NA,NA,NA,NA,NA,NA,NA,NA,NA,96,3.001,0,4,4,4,1,scroll social media,005.png,NA,NA,NA,NA,NA,NA,NA,NA,NA,NA,NA,NA,NA,NA,NA,NA
MDPRF67596,577F7359-6CCC-4BF8-8E7A-FF90280FF071,2023-10-30_17h37.54.470,VExplicitOC_RO,2022.2.5,MacIntel,30.3030303,NA,NA,NA,NA,NA,NA,NA,NA,NA,NA,NA,94.66666667,1.471,0,5,5,5,1,listen to music,006.png,NA,NA,NA,NA,NA,NA,NA,NA,NA,NA,NA,NA,NA,NA,NA,NA
MDPRF67596,577F7359-6CCC-4BF8-8E7A-FF90280FF071,2023-10-30_17h37.54.470,VExplicitOC_RO,2022.2.5,MacIntel,30.3030303,NA,NA,NA,NA,NA,NA,NA,NA,NA,NA,NA,96.95238095,1.152,0,6,6,6,1,daydream,007.png,NA,NA,NA,NA,NA,NA,NA,NA,NA,NA,NA,NA,NA,NA,NA,NA
MDPRF67596,577F7359-6CCC-4BF8-8E7A-FF90280FF071,2023-10-30_17h37.54.470,VExplicitOC_RO,2022.2.5,MacIntel,30.3030303,NA,NA,NA,NA,NA,NA,NA,NA,NA,NA,NA,32.57142857,4.386,0,7,7,7,1,watch a short animation,008.png,NA,NA,NA,NA,NA,NA,NA,NA,NA,NA,NA,NA,NA,NA,NA,NA
MDPRF67596,577F7359-6CCC-4BF8-8E7A-FF90280FF071,2023-10-30_17h37.54.470,VExplicitOC_RO,2022.2.5,MacIntel,30.3030303,NA,NA,NA,NA,NA,NA,NA,NA,NA,NA,NA,97.71428571,2.185,0,8,8,8,1,read a novel,009.png,NA,NA,NA,NA,NA,NA,NA,NA,NA,NA,NA,NA,NA,NA,NA,NA
MDPRF67596,577F7359-6CCC-4BF8-8E7A-FF90280FF071,2023-10-30_17h37.54.470,VExplicitOC_RO,2022.2.5,MacIntel,30.3030303,NA,NA,NA,NA,NA,NA,NA,NA,NA,NA,NA,98.0952381,3.02,0,9,9,9,1,read the news,010.png,NA,NA,NA,NA,NA,NA,NA,NA,NA,NA,NA,NA,NA,NA,NA,NA
MDPRF67596,577F7359-6CCC-4BF8-8E7A-FF90280FF071,2023-10-30_17h37.54.470,VExplicitOC_RO,2022.2.5,MacIntel,30.3030303,NA,NA,NA,NA,NA,NA,NA,NA,NA,NA,NA,NA,NA,NA,NA,NA,NA,NA,NA,NA,NA,NA,NA,NA,NA,NA,NA,NA,NA,NA,NA,NA,NA,NA,NA,NA
MDPRF67596,577F7359-6CCC-4BF8-8E7A-FF90280FF071,2023-10-30_17h37.54.470,VExplicitOC_RO,2022.2.5,MacIntel,30.3030303,NA,NA,NA,NA,NA,NA,NA,NA,NA,NA,NA,NA,NA,NA,NA,NA,NA,NA,NA,NA,read the news,NA,NA,NA,NA,NA,NA,NA,NA,NA,NA,NA,NA,NA,NA,NA
MDPRF67596,577F7359-6CCC-4BF8-8E7A-FF90280FF071,2023-10-30_17h37.54.470,VExplicitOC_RO,2022.2.5,MacIntel,30.3030303,33.33333333,3.673,2.02,NA,NA,NA,NA,NA,frustrated,"frustrated, not frustrated","more frustrated, less frustrated",NA,NA,NA,NA,NA,NA,NA,NA,NA,NA,0,0,0,1,1,NA,NA,NA,NA,NA,NA,NA,NA,NA,NA
MDPRF67596,577F7359-6CCC-4BF8-8E7A-FF90280FF071,2023-10-30_17h37.54.470,VExplicitOC_RO,2022.2.5,MacIntel,30.3030303,31.80952381,2.651,2.031,NA,NA,NA,NA,NA,bored,"bored, not bored","more bored, less bored",NA,NA,NA,NA,NA,NA,NA,NA,NA,NA,0,1,1,2,1,NA,NA,NA,NA,NA,NA,NA,NA,NA,NA
MDPRF67596,577F7359-6CCC-4BF8-8E7A-FF90280FF071,2023-10-30_17h37.54.470,VExplicitOC_RO,2022.2.5,MacIntel,30.3030303,57.9047619,2.801,2.032,NA,NA,NA,NA,NA,happy,"unhappy, happy","less happy, more happy",NA,NA,NA,NA,NA,NA,NA,NA,NA,NA,0,2,2,0,1,NA,NA,NA,NA,NA,NA,NA,NA,NA,NA
MDPRF67596,577F7359-6CCC-4BF8-8E7A-FF90280FF071,2023-10-30_17h37.54.470,VExplicitOC_RO,2022.2.5,MacIntel,30.3030303,NA,NA,NA,NA,NA,NA,NA,NA,NA,NA,NA,NA,NA,NA,NA,NA,NA,NA,NA,NA,NA,NA,NA,NA,NA,NA,NA,NA,NA,NA,NA,NA,NA,NA,NA,NA
MDPRF67596,577F7359-6CCC-4BF8-8E7A-FF90280FF071,2023-10-30_17h37.54.470,VExplicitOC_RO,2022.2.5,MacIntel,30.3030303,NA,NA,NA,NA,NA,NA,NA,NA,NA,NA,NA,NA,NA,NA,NA,NA,NA,NA,NA,NA,NA,NA,NA,NA,NA,NA,NA,NA,NA,NA,NA,NA,NA,NA,NA,NA
MDPRF67596,577F7359-6CCC-4BF8-8E7A-FF90280FF071,2023-10-30_17h37.54.470,VExplicitOC_RO,2022.2.5,MacIntel,30.3030303,NA,NA,2.02,NA,NA,NA,NA,NA,happy,"unhappy, happy","less happy, more happy",NA,NA,NA,NA,NA,NA,NA,NA,NA,NA,NA,NA,NA,NA,NA,0,0,0,0,1,NA,NA,NA,NA,NA
MDPRF67596,577F7359-6CCC-4BF8-8E7A-FF90280FF071,2023-10-30_17h37.54.470,VExplicitOC_RO,2022.2.5,MacIntel,30.3030303,NA,NA,2.03,NA,NA,NA,NA,NA,frustrated,"frustrated, not frustrated","more frustrated, less frustrated",NA,NA,NA,NA,NA,NA,NA,NA,NA,NA,NA,NA,NA,NA,NA,0,1,1,1,1,NA,NA,NA,NA,NA
MDPRF67596,577F7359-6CCC-4BF8-8E7A-FF90280FF071,2023-10-30_17h37.54.470,VExplicitOC_RO,2022.2.5,MacIntel,30.3030303,42.28571429,5.299,2.031,NA,NA,NA,NA,NA,bored,"bored, not bored","more bored, less bored",NA,NA,NA,NA,NA,NA,NA,NA,NA,NA,NA,NA,NA,NA,NA,0,2,2,2,1,NA,NA,NA,NA,NA
MDPRF67596,577F7359-6CCC-4BF8-8E7A-FF90280FF071,2023-10-30_17h37.54.470,VExplicitOC_RO,2022.2.5,MacIntel,30.3030303,NA,NA,NA,NA,NA,NA,NA,NA,NA,NA,NA,NA,NA,NA,NA,NA,NA,NA,NA,NA,NA,NA,NA,NA,NA,NA,NA,NA,NA,NA,NA,0,0,0,0,1
MDPRF67596,577F7359-6CCC-4BF8-8E7A-FF90280FF071,2023-10-30_17h37.54.470,VExplicitOC_RO,2022.2.5,MacIntel,30.3030303,-25.9047619,4.071,2.018,NA,NA,NA,NA,NA,bored,"bored, not bored","more bored, less bored",NA,NA,NA,NA,NA,NA,NA,NA,NA,NA,NA,NA,NA,NA,NA,0,0,0,2,1,NA,NA,NA,NA,NA
MDPRF67596,577F7359-6CCC-4BF8-8E7A-FF90280FF071,2023-10-30_17h37.54.470,VExplicitOC_RO,2022.2.5,MacIntel,30.3030303,-32.19047619,5.149,2.032,NA,NA,NA,NA,NA,frustrated,"frustrated, not frustrated","more frustrated, less frustrated",NA,NA,NA,NA,NA,NA,NA,NA,NA,NA,NA,NA,NA,NA,NA,0,1,1,1,1,NA,NA,NA,NA,NA
MDPRF67596,577F7359-6CCC-4BF8-8E7A-FF90280FF071,2023-10-30_17h37.54.470,VExplicitOC_RO,2022.2.5,MacIntel,30.3030303,-21.14285714,6.917,2.032,NA,NA,NA,NA,NA,happy,"unhappy, happy","less happy, more happy",NA,NA,NA,NA,NA,NA,NA,NA,NA,NA,NA,NA,NA,NA,NA,0,2,2,0,1,NA,NA,NA,NA,NA
MDPRF67596,577F7359-6CCC-4BF8-8E7A-FF90280FF071,2023-10-30_17h37.54.470,VExplicitOC_RO,2022.2.5,MacIntel,30.3030303,NA,NA,NA,NA,NA,NA,NA,NA,NA,NA,NA,NA,NA,NA,NA,NA,NA,NA,NA,NA,NA,NA,NA,NA,NA,NA,NA,NA,NA,NA,NA,1,0,1,0,1
MDPRF67596,577F7359-6CCC-4BF8-8E7A-FF90280FF071,2023-10-30_17h37.54.470,VExplicitOC_RO,2022.2.5,MacIntel,30.3030303,-27.23809524,3.458,2.021,NA,NA,NA,NA,NA,frustrated,"frustrated, not frustrated","more frustrated, less frustrated",NA,NA,NA,NA,NA,NA,NA,NA,NA,NA,NA,NA,NA,NA,NA,0,0,0,1,1,NA,NA,NA,NA,NA
MDPRF67596,577F7359-6CCC-4BF8-8E7A-FF90280FF071,2023-10-30_17h37.54.470,VExplicitOC_RO,2022.2.5,MacIntel,30.3030303,-16.38095238,4.133,2.032,NA,NA,NA,NA,NA,happy,"unhappy, happy","less happy, more happy",NA,NA,NA,NA,NA,NA,NA,NA,NA,NA,NA,NA,NA,NA,NA,0,1,1,0,1,NA,NA,NA,NA,NA
MDPRF67596,577F7359-6CCC-4BF8-8E7A-FF90280FF071,2023-10-30_17h37.54.470,VExplicitOC_RO,2022.2.5,MacIntel,30.3030303,-51.04761905,4.101,2.032,NA,NA,NA,NA,NA,bored,"bored, not bored","more bored, less bored",NA,NA,NA,NA,NA,NA,NA,NA,NA,NA,NA,NA,NA,NA,NA,0,2,2,2,1,NA,NA,NA,NA,NA
MDPRF67596,577F7359-6CCC-4BF8-8E7A-FF90280FF071,2023-10-30_17h37.54.470,VExplicitOC_RO,2022.2.5,MacIntel,30.3030303,NA,NA,NA,NA,NA,NA,NA,NA,NA,NA,NA,NA,NA,NA,NA,NA,NA,NA,NA,NA,NA,NA,NA,NA,NA,NA,NA,NA,NA,NA,NA,2,0,2,0,1
MDPRF67596,577F7359-6CCC-4BF8-8E7A-FF90280FF071,2023-10-30_17h37.54.470,VExplicitOC_RO,2022.2.5,MacIntel,30.3030303,-51.61904762,6.676,2.023,NA,NA,NA,NA,NA,bored,"bored, not bored","more bored, less bored",NA,NA,NA,NA,NA,NA,NA,NA,NA,NA,NA,NA,NA,NA,NA,0,0,0,2,1,NA,NA,NA,NA,NA
MDPRF67596,577F7359-6CCC-4BF8-8E7A-FF90280FF071,2023-10-30_17h37.54.470,VExplicitOC_RO,2022.2.5,MacIntel,30.3030303,-45.14285714,4.734,2.033,NA,NA,NA,NA,NA,happy,"unhappy, happy","less happy, more happy",NA,NA,NA,NA,NA,NA,NA,NA,NA,NA,NA,NA,NA,NA,NA,0,1,1,0,1,NA,NA,NA,NA,NA
MDPRF67596,577F7359-6CCC-4BF8-8E7A-FF90280FF071,2023-10-30_17h37.54.470,VExplicitOC_RO,2022.2.5,MacIntel,30.3030303,-36,3.467,2.031,NA,NA,NA,NA,NA,frustrated,"frustrated, not frustrated","more frustrated, less frustrated",NA,NA,NA,NA,NA,NA,NA,NA,NA,NA,NA,NA,NA,NA,NA,0,2,2,1,1,NA,NA,NA,NA,NA
MDPRF67596,577F7359-6CCC-4BF8-8E7A-FF90280FF071,2023-10-30_17h37.54.470,VExplicitOC_RO,2022.2.5,MacIntel,30.3030303,NA,NA,NA,NA,NA,NA,NA,NA,NA,NA,NA,NA,NA,NA,NA,NA,NA,NA,NA,NA,NA,NA,NA,NA,NA,NA,NA,NA,NA,NA,NA,3,0,3,0,1
MDPRF67596,577F7359-6CCC-4BF8-8E7A-FF90280FF071,2023-10-30_17h37.54.470,VExplicitOC_RO,2022.2.5,MacIntel,30.3030303,NA,NA,2.025,NA,NA,NA,NA,NA,frustrated,"frustrated, not frustrated","more frustrated, less frustrated",NA,NA,NA,NA,NA,NA,NA,NA,NA,NA,NA,NA,NA,NA,NA,0,0,0,1,1,NA,NA,NA,NA,NA
MDPRF67596,577F7359-6CCC-4BF8-8E7A-FF90280FF071,2023-10-30_17h37.54.470,VExplicitOC_RO,2022.2.5,MacIntel,30.3030303,-34.28571429,6.734,2.032,NA,NA,NA,NA,NA,bored,"bored, not bored","more bored, less bored",NA,NA,NA,NA,NA,NA,NA,NA,NA,NA,NA,NA,NA,NA,NA,0,1,1,2,1,NA,NA,NA,NA,NA
MDPRF67596,577F7359-6CCC-4BF8-8E7A-FF90280FF071,2023-10-30_17h37.54.470,VExplicitOC_RO,2022.2.5,MacIntel,30.3030303,-37.9047619,4.214,2.032,NA,NA,NA,NA,NA,happy,"unhappy, happy","less happy, more happy",NA,NA,NA,NA,NA,NA,NA,NA,NA,NA,NA,NA,NA,NA,NA,0,2,2,0,1,NA,NA,NA,NA,NA
MDPRF67596,577F7359-6CCC-4BF8-8E7A-FF90280FF071,2023-10-30_17h37.54.470,VExplicitOC_RO,2022.2.5,MacIntel,30.3030303,NA,NA,NA,NA,NA,NA,NA,NA,NA,NA,NA,NA,NA,NA,NA,NA,NA,NA,NA,NA,NA,NA,NA,NA,NA,NA,NA,NA,NA,NA,NA,4,0,4,0,1
MDPRF67596,577F7359-6CCC-4BF8-8E7A-FF90280FF071,2023-10-30_17h37.54.470,VExplicitOC_RO,2022.2.5,MacIntel,30.3030303,-41.33333333,3.744,2.025,NA,NA,NA,NA,NA,frustrated,"frustrated, not frustrated","more frustrated, less frustrated",NA,NA,NA,NA,NA,NA,NA,NA,NA,NA,NA,NA,NA,NA,NA,0,0,0,1,1,NA,NA,NA,NA,NA
MDPRF67596,577F7359-6CCC-4BF8-8E7A-FF90280FF071,2023-10-30_17h37.54.470,VExplicitOC_RO,2022.2.5,MacIntel,30.3030303,-85.33333333,4.301,2.032,NA,NA,NA,NA,NA,bored,"bored, not bored","more bored, less bored",NA,NA,NA,NA,NA,NA,NA,NA,NA,NA,NA,NA,NA,NA,NA,0,1,1,2,1,NA,NA,NA,NA,NA
MDPRF67596,577F7359-6CCC-4BF8-8E7A-FF90280FF071,2023-10-30_17h37.54.470,VExplicitOC_RO,2022.2.5,MacIntel,30.3030303,-79.04761905,2.852,2.033,NA,NA,NA,NA,NA,happy,"unhappy, happy","less happy, more happy",NA,NA,NA,NA,NA,NA,NA,NA,NA,NA,NA,NA,NA,NA,NA,0,2,2,0,1,NA,NA,NA,NA,NA
MDPRF67596,577F7359-6CCC-4BF8-8E7A-FF90280FF071,2023-10-30_17h37.54.470,VExplicitOC_RO,2022.2.5,MacIntel,30.3030303,NA,NA,NA,NA,NA,NA,NA,NA,NA,NA,NA,NA,NA,NA,NA,NA,NA,NA,NA,NA,NA,NA,NA,NA,NA,NA,NA,NA,NA,NA,NA,5,0,5,0,1
MDPRF67596,577F7359-6CCC-4BF8-8E7A-FF90280FF071,2023-10-30_17h37.54.470,VExplicitOC_RO,2022.2.5,MacIntel,30.3030303,-87.42857143,3.06,2.025,NA,NA,NA,NA,NA,frustrated,"frustrated, not frustrated","more frustrated, less frustrated",NA,NA,NA,NA,NA,NA,NA,NA,NA,NA,NA,NA,NA,NA,NA,0,0,0,1,1,NA,NA,NA,NA,NA
MDPRF67596,577F7359-6CCC-4BF8-8E7A-FF90280FF071,2023-10-30_17h37.54.470,VExplicitOC_RO,2022.2.5,MacIntel,30.3030303,-92.76190476,2.653,2,NA,NA,NA,NA,NA,bored,"bored, not bored","more bored, less bored",NA,NA,NA,NA,NA,NA,NA,NA,NA,NA,NA,NA,NA,NA,NA,0,1,1,2,1,NA,NA,NA,NA,NA
MDPRF67596,577F7359-6CCC-4BF8-8E7A-FF90280FF071,2023-10-30_17h37.54.470,VExplicitOC_RO,2022.2.5,MacIntel,30.3030303,-85.9047619,2.832,2.031,NA,NA,NA,NA,NA,happy,"unhappy, happy","less happy, more happy",NA,NA,NA,NA,NA,NA,NA,NA,NA,NA,NA,NA,NA,NA,NA,0,2,2,0,1,NA,NA,NA,NA,NA
MDPRF67596,577F7359-6CCC-4BF8-8E7A-FF90280FF071,2023-10-30_17h37.54.470,VExplicitOC_RO,2022.2.5,MacIntel,30.3030303,NA,NA,NA,NA,NA,NA,NA,NA,NA,NA,NA,NA,NA,NA,NA,NA,NA,NA,NA,NA,NA,NA,NA,NA,NA,NA,NA,NA,NA,NA,NA,6,0,6,0,1
MDPRF67596,577F7359-6CCC-4BF8-8E7A-FF90280FF071,2023-10-30_17h37.54.470,VExplicitOC_RO,2022.2.5,MacIntel,30.3030303,-92.19047619,2.931,2.024,NA,NA,NA,NA,NA,happy,"unhappy, happy","less happy, more happy",NA,NA,NA,NA,NA,NA,NA,NA,NA,NA,NA,NA,NA,NA,NA,0,0,0,0,1,NA,NA,NA,NA,NA
MDPRF67596,577F7359-6CCC-4BF8-8E7A-FF90280FF071,2023-10-30_17h37.54.470,VExplicitOC_RO,2022.2.5,MacIntel,30.3030303,-96.95238095,2.449,2.032,NA,NA,NA,NA,NA,frustrated,"frustrated, not frustrated","more frustrated, less frustrated",NA,NA,NA,NA,NA,NA,NA,NA,NA,NA,NA,NA,NA,NA,NA,0,1,1,1,1,NA,NA,NA,NA,NA
MDPRF67596,577F7359-6CCC-4BF8-8E7A-FF90280FF071,2023-10-30_17h37.54.470,VExplicitOC_RO,2022.2.5,MacIntel,30.3030303,-99.80952381,4.632,2.031,NA,NA,NA,NA,NA,bored,"bored, not bored","more bored, less bored",NA,NA,NA,NA,NA,NA,NA,NA,NA,NA,NA,NA,NA,NA,NA,0,2,2,2,1,NA,NA,NA,NA,NA
MDPRF67596,577F7359-6CCC-4BF8-8E7A-FF90280FF071,2023-10-30_17h37.54.470,VExplicitOC_RO,2022.2.5,MacIntel,30.3030303,NA,NA,NA,NA,NA,NA,NA,NA,NA,NA,NA,NA,NA,NA,NA,NA,NA,NA,NA,NA,NA,NA,NA,NA,NA,NA,NA,NA,NA,NA,NA,7,0,7,0,1
MDPRF67596,577F7359-6CCC-4BF8-8E7A-FF90280FF071,2023-10-30_17h37.54.470,VExplicitOC_RO,2022.2.5,MacIntel,30.3030303,-89.52380952,3.141,2.022,NA,NA,NA,NA,NA,frustrated,"frustrated, not frustrated","more frustrated, less frustrated",NA,NA,NA,NA,NA,NA,NA,NA,NA,NA,NA,NA,NA,NA,NA,0,0,0,1,1,NA,NA,NA,NA,NA
MDPRF67596,577F7359-6CCC-4BF8-8E7A-FF90280FF071,2023-10-30_17h37.54.470,VExplicitOC_RO,2022.2.5,MacIntel,30.3030303,-76.95238095,2.417,2.032,NA,NA,NA,NA,NA,happy,"unhappy, happy","less happy, more happy",NA,NA,NA,NA,NA,NA,NA,NA,NA,NA,NA,NA,NA,NA,NA,0,1,1,0,1,NA,NA,NA,NA,NA
MDPRF67596,577F7359-6CCC-4BF8-8E7A-FF90280FF071,2023-10-30_17h37.54.470,VExplicitOC_RO,2022.2.5,MacIntel,30.3030303,-89.52380952,2.418,2.032,NA,NA,NA,NA,NA,bored,"bored, not bored","more bored, less bored",NA,NA,NA,NA,NA,NA,NA,NA,NA,NA,NA,NA,NA,NA,NA,0,2,2,2,1,NA,NA,NA,NA,NA
MDPRF67596,577F7359-6CCC-4BF8-8E7A-FF90280FF071,2023-10-30_17h37.54.470,VExplicitOC_RO,2022.2.5,MacIntel,30.3030303,NA,NA,NA,NA,NA,NA,NA,NA,NA,NA,NA,NA,NA,NA,NA,NA,NA,NA,NA,NA,NA,NA,NA,NA,NA,NA,NA,NA,NA,NA,NA,8,0,8,0,1
MDPRF67596,577F7359-6CCC-4BF8-8E7A-FF90280FF071,2023-10-30_17h37.54.470,VExplicitOC_RO,2022.2.5,MacIntel,30.3030303,-91.80952381,3.815,2.027,NA,NA,NA,NA,NA,frustrated,"frustrated, not frustrated","more frustrated, less frustrated",NA,NA,NA,NA,NA,NA,NA,NA,NA,NA,NA,NA,NA,NA,NA,0,0,0,1,1,NA,NA,NA,NA,NA
MDPRF67596,577F7359-6CCC-4BF8-8E7A-FF90280FF071,2023-10-30_17h37.54.470,VExplicitOC_RO,2022.2.5,MacIntel,30.3030303,-98.85714286,3.933,2.033,NA,NA,NA,NA,NA,bored,"bored, not bored","more bored, less bored",NA,NA,NA,NA,NA,NA,NA,NA,NA,NA,NA,NA,NA,NA,NA,0,1,1,2,1,NA,NA,NA,NA,NA
MDPRF67596,577F7359-6CCC-4BF8-8E7A-FF90280FF071,2023-10-30_17h37.54.470,VExplicitOC_RO,2022.2.5,MacIntel,30.3030303,-86.28571429,3.65,2.03,NA,NA,NA,NA,NA,happy,"unhappy, happy","less happy, more happy",NA,NA,NA,NA,NA,NA,NA,NA,NA,NA,NA,NA,NA,NA,NA,0,2,2,0,1,NA,NA,NA,NA,NA
MDPRF67596,577F7359-6CCC-4BF8-8E7A-FF90280FF071,2023-10-30_17h37.54.470,VExplicitOC_RO,2022.2.5,MacIntel,30.3030303,NA,NA,NA,NA,NA,NA,NA,NA,NA,NA,NA,NA,NA,NA,NA,NA,NA,NA,NA,NA,NA,NA,NA,NA,NA,NA,NA,NA,NA,NA,NA,9,0,9,0,1
MDPRF67596,577F7359-6CCC-4BF8-8E7A-FF90280FF071,2023-10-30_17h37.54.470,VExplicitOC_RO,2022.2.5,MacIntel,30.3030303,-89.71428571,3.038,2.02,NA,NA,NA,NA,NA,frustrated,"frustrated, not frustrated","more frustrated, less frustrated",NA,NA,NA,NA,NA,NA,NA,NA,NA,NA,NA,NA,NA,NA,NA,0,0,0,1,1,NA,NA,NA,NA,NA
MDPRF67596,577F7359-6CCC-4BF8-8E7A-FF90280FF071,2023-10-30_17h37.54.470,VExplicitOC_RO,2022.2.5,MacIntel,30.3030303,-99.42857143,2.783,2.031,NA,NA,NA,NA,NA,bored,"bored, not bored","more bored, less bored",NA,NA,NA,NA,NA,NA,NA,NA,NA,NA,NA,NA,NA,NA,NA,0,1,1,2,1,NA,NA,NA,NA,NA
MDPRF67596,577F7359-6CCC-4BF8-8E7A-FF90280FF071,2023-10-30_17h37.54.470,VExplicitOC_RO,2022.2.5,MacIntel,30.3030303,-78.85714286,3.3,2.032,NA,NA,NA,NA,NA,happy,"unhappy, happy","less happy, more happy",NA,NA,NA,NA,NA,NA,NA,NA,NA,NA,NA,NA,NA,NA,NA,0,2,2,0,1,NA,NA,NA,NA,NA
MDPRF67596,577F7359-6CCC-4BF8-8E7A-FF90280FF071,2023-10-30_17h37.54.470,VExplicitOC_RO,2022.2.5,MacIntel,30.3030303,NA,NA,NA,NA,NA,NA,NA,NA,NA,NA,NA,NA,NA,NA,NA,NA,NA,NA,NA,NA,NA,NA,NA,NA,NA,NA,NA,NA,NA,NA,NA,10,0,10,0,1
MDPRF67596,577F7359-6CCC-4BF8-8E7A-FF90280FF071,2023-10-30_17h37.54.470,VExplicitOC_RO,2022.2.5,MacIntel,30.3030303,-96.57142857,2.972,2.021,NA,NA,NA,NA,NA,bored,"bored, not bored","more bored, less bored",NA,NA,NA,NA,NA,NA,NA,NA,NA,NA,NA,NA,NA,NA,NA,0,0,0,2,1,NA,NA,NA,NA,NA
MDPRF67596,577F7359-6CCC-4BF8-8E7A-FF90280FF071,2023-10-30_17h37.54.470,VExplicitOC_RO,2022.2.5,MacIntel,30.3030303,-82.0952381,2.368,2,NA,NA,NA,NA,NA,happy,"unhappy, happy","less happy, more happy",NA,NA,NA,NA,NA,NA,NA,NA,NA,NA,NA,NA,NA,NA,NA,0,1,1,0,1,NA,NA,NA,NA,NA
MDPRF67596,577F7359-6CCC-4BF8-8E7A-FF90280FF071,2023-10-30_17h37.54.470,VExplicitOC_RO,2022.2.5,MacIntel,30.3030303,-85.33333333,2.431,2.03,NA,NA,NA,NA,NA,frustrated,"frustrated, not frustrated","more frustrated, less frustrated",NA,NA,NA,NA,NA,NA,NA,NA,NA,NA,NA,NA,NA,NA,NA,0,2,2,1,1,NA,NA,NA,NA,NA
MDPRF67596,577F7359-6CCC-4BF8-8E7A-FF90280FF071,2023-10-30_17h37.54.470,VExplicitOC_RO,2022.2.5,MacIntel,30.3030303,NA,NA,NA,NA,NA,NA,NA,NA,NA,NA,NA,NA,NA,NA,NA,NA,NA,NA,NA,NA,NA,NA,NA,NA,NA,NA,NA,NA,NA,NA,NA,11,0,11,0,1
MDPRF67596,577F7359-6CCC-4BF8-8E7A-FF90280FF071,2023-10-30_17h37.54.470,VExplicitOC_RO,2022.2.5,MacIntel,30.3030303,-72.57142857,3.47,2.017,NA,NA,NA,NA,NA,happy,"unhappy, happy","less happy, more happy",NA,NA,NA,NA,NA,NA,NA,NA,NA,NA,NA,NA,NA,NA,NA,0,0,0,0,1,NA,NA,NA,NA,NA
MDPRF67596,577F7359-6CCC-4BF8-8E7A-FF90280FF071,2023-10-30_17h37.54.470,VExplicitOC_RO,2022.2.5,MacIntel,30.3030303,-99.04761905,3.916,2.033,NA,NA,NA,NA,NA,bored,"bored, not bored","more bored, less bored",NA,NA,NA,NA,NA,NA,NA,NA,NA,NA,NA,NA,NA,NA,NA,0,1,1,2,1,NA,NA,NA,NA,NA
MDPRF67596,577F7359-6CCC-4BF8-8E7A-FF90280FF071,2023-10-30_17h37.54.470,VExplicitOC_RO,2022.2.5,MacIntel,30.3030303,-92.57142857,2.471,2,NA,NA,NA,NA,NA,frustrated,"frustrated, not frustrated","more frustrated, less frustrated",NA,NA,NA,NA,NA,NA,NA,NA,NA,NA,NA,NA,NA,NA,NA,0,2,2,1,1,NA,NA,NA,NA,NA
MDPRF67596,577F7359-6CCC-4BF8-8E7A-FF90280FF071,2023-10-30_17h37.54.470,VExplicitOC_RO,2022.2.5,MacIntel,30.3030303,NA,NA,NA,NA,NA,NA,NA,NA,NA,NA,NA,NA,NA,NA,NA,NA,NA,NA,NA,NA,NA,NA,NA,NA,NA,NA,NA,NA,NA,NA,NA,12,0,12,0,1
MDPRF67596,577F7359-6CCC-4BF8-8E7A-FF90280FF071,2023-10-30_17h37.54.470,VExplicitOC_RO,2022.2.5,MacIntel,30.3030303,-99.42857143,3.387,2.017,NA,NA,NA,NA,NA,bored,"bored, not bored","more bored, less bored",NA,NA,NA,NA,NA,NA,NA,NA,NA,NA,NA,NA,NA,NA,NA,0,0,0,2,1,NA,NA,NA,NA,NA
MDPRF67596,577F7359-6CCC-4BF8-8E7A-FF90280FF071,2023-10-30_17h37.54.470,VExplicitOC_RO,2022.2.5,MacIntel,30.3030303,NA,NA,2.032,NA,NA,NA,NA,NA,happy,"unhappy, happy","less happy, more happy",NA,NA,NA,NA,NA,NA,NA,NA,NA,NA,NA,NA,NA,NA,NA,0,1,1,0,1,NA,NA,NA,NA,NA
MDPRF67596,577F7359-6CCC-4BF8-8E7A-FF90280FF071,2023-10-30_17h37.54.470,VExplicitOC_RO,2022.2.5,MacIntel,30.3030303,-87.42857143,2.548,2.031,NA,NA,NA,NA,NA,frustrated,"frustrated, not frustrated","more frustrated, less frustrated",NA,NA,NA,NA,NA,NA,NA,NA,NA,NA,NA,NA,NA,NA,NA,0,2,2,1,1,NA,NA,NA,NA,NA
MDPRF67596,577F7359-6CCC-4BF8-8E7A-FF90280FF071,2023-10-30_17h37.54.470,VExplicitOC_RO,2022.2.5,MacIntel,30.3030303,NA,NA,NA,NA,NA,NA,NA,NA,NA,NA,NA,NA,NA,NA,NA,NA,NA,NA,NA,NA,NA,NA,NA,NA,NA,NA,NA,NA,NA,NA,NA,13,0,13,0,1
MDPRF67596,577F7359-6CCC-4BF8-8E7A-FF90280FF071,2023-10-30_17h37.54.470,VExplicitOC_RO,2022.2.5,MacIntel,30.3030303,-88.57142857,3.988,2.018,NA,NA,NA,NA,NA,frustrated,"frustrated, not frustrated","more frustrated, less frustrated",NA,NA,NA,NA,NA,NA,NA,NA,NA,NA,NA,NA,NA,NA,NA,0,0,0,1,1,NA,NA,NA,NA,NA
MDPRF67596,577F7359-6CCC-4BF8-8E7A-FF90280FF071,2023-10-30_17h37.54.470,VExplicitOC_RO,2022.2.5,MacIntel,30.3030303,-73.33333333,3.032,2.031,NA,NA,NA,NA,NA,happy,"unhappy, happy","less happy, more happy",NA,NA,NA,NA,NA,NA,NA,NA,NA,NA,NA,NA,NA,NA,NA,0,1,1,0,1,NA,NA,NA,NA,NA
MDPRF67596,577F7359-6CCC-4BF8-8E7A-FF90280FF071,2023-10-30_17h37.54.470,VExplicitOC_RO,2022.2.5,MacIntel,30.3030303,-100,3.001,2.031,NA,NA,NA,NA,NA,bored,"bored, not bored","more bored, less bored",NA,NA,NA,NA,NA,NA,NA,NA,NA,NA,NA,NA,NA,NA,NA,0,2,2,2,1,NA,NA,NA,NA,NA
MDPRF67596,577F7359-6CCC-4BF8-8E7A-FF90280FF071,2023-10-30_17h37.54.470,VExplicitOC_RO,2022.2.5,MacIntel,30.3030303,NA,NA,NA,NA,NA,NA,NA,NA,NA,NA,NA,NA,NA,NA,NA,NA,NA,NA,NA,NA,NA,NA,NA,NA,NA,NA,NA,NA,NA,NA,NA,14,0,14,0,1
MDPRF67596,577F7359-6CCC-4BF8-8E7A-FF90280FF071,2023-10-30_17h37.54.470,VExplicitOC_RO,2022.2.5,MacIntel,30.3030303,NA,NA,NA,NA,NA,NA,NA,NA,NA,NA,NA,NA,NA,NA,NA,NA,NA,NA,NA,NA,NA,NA,NA,NA,NA,NA,NA,NA,NA,NA,NA,NA,NA,NA,NA,NA
MDPRF67596,577F7359-6CCC-4BF8-8E7A-FF90280FF071,2023-10-30_17h37.54.470,VExplicitOC_RO,2022.2.5,MacIntel,30.3030303,NA,NA,NA,NA,NA,NA,NA,NA,NA,NA,NA,NA,NA,NA,NA,NA,NA,NA,NA,NA,NA,NA,NA,NA,NA,NA,NA,NA,NA,NA,NA,NA,NA,NA,NA,NA
