participant,session,date,expName,psychopyVersion,OS,frameRate,rating_all.response,rating_all.rt,rating_all.tStart,rndRat1.thisRepN,rndRat1.thisTrialN,rndRat1.thisN,rndRat1.thisIndex,rndRat1.ran,Emo,Labs,Labs2,rating_alt.response,rating_alt.rt,AltC.thisRepN,AltC.thisTrialN,AltC.thisN,AltC.thisIndex,AltC.ran,alt_choices,pic_choices,TopAlt_Choice,rndRat2.thisRepN,rndRat2.thisTrialN,rndRat2.thisN,rndRat2.thisIndex,rndRat2.ran,rndRat3.thisRepN,rndRat3.thisTrialN,rndRat3.thisN,rndRat3.thisIndex,rndRat3.ran,trials_FC_H.thisRepN,trials_FC_H.thisTrialN,trials_FC_H.thisN,trials_FC_H.thisIndex,trials_FC_H.ran
MDPRF65956,65647784-6990-4F5B-A017-2A77E0F7A153,2023-10-30_17h34.57.302,VExplicitOC_RO,2022.2.5,Linux x86_64,60.01680471,NA,NA,NA,NA,NA,NA,NA,NA,NA,NA,NA,NA,NA,NA,NA,NA,NA,NA,NA,NA,NA,NA,NA,NA,NA,NA,NA,NA,NA,NA,NA,NA,NA,NA,NA,NA
MDPRF65956,65647784-6990-4F5B-A017-2A77E0F7A153,2023-10-30_17h34.57.302,VExplicitOC_RO,2022.2.5,Linux x86_64,60.01680471,NA,NA,NA,NA,NA,NA,NA,NA,NA,NA,NA,NA,NA,NA,NA,NA,NA,NA,NA,NA,NA,NA,NA,NA,NA,NA,NA,NA,NA,NA,NA,NA,NA,NA,NA,NA
MDPRF65956,65647784-6990-4F5B-A017-2A77E0F7A153,2023-10-30_17h34.57.302,VExplicitOC_RO,2022.2.5,Linux x86_64,60.01680471,NA,NA,NA,NA,NA,NA,NA,NA,NA,NA,NA,NA,NA,NA,NA,NA,NA,NA,NA,NA,NA,NA,NA,NA,NA,NA,NA,NA,NA,NA,NA,NA,NA,NA,NA,NA
MDPRF65956,65647784-6990-4F5B-A017-2A77E0F7A153,2023-10-30_17h34.57.302,VExplicitOC_RO,2022.2.5,Linux x86_64,60.01680471,41.35952804,6.5726,2.0154,0,0,0,2,1,bored,"bored, not bored","more bored, less bored",NA,NA,NA,NA,NA,NA,NA,NA,NA,NA,NA,NA,NA,NA,NA,NA,NA,NA,NA,NA,NA,NA,NA,NA,NA
MDPRF65956,65647784-6990-4F5B-A017-2A77E0F7A153,2023-10-30_17h34.57.302,VExplicitOC_RO,2022.2.5,Linux x86_64,60.01680471,-35.5700673,3.3431,2.0066,0,1,1,0,1,happy,"unhappy, happy","less happy, more happy",NA,NA,NA,NA,NA,NA,NA,NA,NA,NA,NA,NA,NA,NA,NA,NA,NA,NA,NA,NA,NA,NA,NA,NA,NA
MDPRF65956,65647784-6990-4F5B-A017-2A77E0F7A153,2023-10-30_17h34.57.302,VExplicitOC_RO,2022.2.5,Linux x86_64,60.01680471,29.78433955,3.1241,2.0115,0,2,2,1,1,frustrated,"frustrated, not frustrated","more frustrated, less frustrated",NA,NA,NA,NA,NA,NA,NA,NA,NA,NA,NA,NA,NA,NA,NA,NA,NA,NA,NA,NA,NA,NA,NA,NA,NA
MDPRF65956,65647784-6990-4F5B-A017-2A77E0F7A153,2023-10-30_17h34.57.302,VExplicitOC_RO,2022.2.5,Linux x86_64,60.01680471,NA,NA,NA,NA,NA,NA,NA,NA,NA,NA,NA,NA,NA,NA,NA,NA,NA,NA,NA,NA,NA,NA,NA,NA,NA,NA,NA,NA,NA,NA,NA,NA,NA,NA,NA,NA
MDPRF65956,65647784-6990-4F5B-A017-2A77E0F7A153,2023-10-30_17h34.57.302,VExplicitOC_RO,2022.2.5,Linux x86_64,60.01680471,NA,NA,NA,NA,NA,NA,NA,NA,NA,NA,NA,NA,NA,NA,NA,NA,NA,NA,NA,NA,NA,NA,NA,NA,NA,NA,NA,NA,NA,NA,NA,NA,NA,NA,NA,NA
MDPRF65956,65647784-6990-4F5B-A017-2A77E0F7A153,2023-10-30_17h34.57.302,VExplicitOC_RO,2022.2.5,Linux x86_64,60.01680471,NA,NA,NA,NA,NA,NA,NA,NA,NA,NA,NA,NA,NA,NA,NA,NA,NA,NA,NA,NA,NA,NA,NA,NA,NA,NA,NA,NA,NA,NA,NA,NA,NA,NA,NA,NA
MDPRF65956,65647784-6990-4F5B-A017-2A77E0F7A153,2023-10-30_17h34.57.302,VExplicitOC_RO,2022.2.5,Linux x86_64,60.01680471,NA,NA,NA,NA,NA,NA,NA,NA,NA,NA,NA,NA,NA,NA,NA,NA,NA,NA,NA,NA,NA,NA,NA,NA,NA,NA,NA,NA,NA,NA,NA,NA,NA,NA,NA,NA
MDPRF65956,65647784-6990-4F5B-A017-2A77E0F7A153,2023-10-30_17h34.57.302,VExplicitOC_RO,2022.2.5,Linux x86_64,60.01680471,NA,NA,NA,NA,NA,NA,NA,NA,NA,NA,NA,-66.90303355,3.7902,0,0,0,0,1,rest (looking at a fixed cross),001.png,NA,NA,NA,NA,NA,NA,NA,NA,NA,NA,NA,NA,NA,NA,NA,NA
MDPRF65956,65647784-6990-4F5B-A017-2A77E0F7A153,2023-10-30_17h34.57.302,VExplicitOC_RO,2022.2.5,Linux x86_64,60.01680471,NA,NA,NA,NA,NA,NA,NA,NA,NA,NA,NA,-48.82079057,1.5708,0,1,1,1,1,stand up,002.png,NA,NA,NA,NA,NA,NA,NA,NA,NA,NA,NA,NA,NA,NA,NA,NA
MDPRF65956,65647784-6990-4F5B-A017-2A77E0F7A153,2023-10-30_17h34.57.302,VExplicitOC_RO,2022.2.5,Linux x86_64,60.01680471,NA,NA,NA,NA,NA,NA,NA,NA,NA,NA,NA,-44.09610268,1.6594,0,2,2,2,1,stretch,003.png,NA,NA,NA,NA,NA,NA,NA,NA,NA,NA,NA,NA,NA,NA,NA,NA
MDPRF65956,65647784-6990-4F5B-A017-2A77E0F7A153,2023-10-30_17h34.57.302,VExplicitOC_RO,2022.2.5,Linux x86_64,60.01680471,NA,NA,NA,NA,NA,NA,NA,NA,NA,NA,NA,36.04388587,1.6581,0,3,3,3,1,make a drink,004.png,NA,NA,NA,NA,NA,NA,NA,NA,NA,NA,NA,NA,NA,NA,NA,NA
MDPRF65956,65647784-6990-4F5B-A017-2A77E0F7A153,2023-10-30_17h34.57.302,VExplicitOC_RO,2022.2.5,Linux x86_64,60.01680471,NA,NA,NA,NA,NA,NA,NA,NA,NA,NA,NA,40.59660589,1.8726,0,4,4,4,1,scroll social media,005.png,NA,NA,NA,NA,NA,NA,NA,NA,NA,NA,NA,NA,NA,NA,NA,NA
MDPRF65956,65647784-6990-4F5B-A017-2A77E0F7A153,2023-10-30_17h34.57.302,VExplicitOC_RO,2022.2.5,Linux x86_64,60.01680471,NA,NA,NA,NA,NA,NA,NA,NA,NA,NA,NA,20.65468114,0.9811,0,5,5,5,1,listen to music,006.png,NA,NA,NA,NA,NA,NA,NA,NA,NA,NA,NA,NA,NA,NA,NA,NA
MDPRF65956,65647784-6990-4F5B-A017-2A77E0F7A153,2023-10-30_17h34.57.302,VExplicitOC_RO,2022.2.5,Linux x86_64,60.01680471,NA,NA,NA,NA,NA,NA,NA,NA,NA,NA,NA,0.39672862,2.7832,0,6,6,6,1,daydream,007.png,NA,NA,NA,NA,NA,NA,NA,NA,NA,NA,NA,NA,NA,NA,NA,NA
MDPRF65956,65647784-6990-4F5B-A017-2A77E0F7A153,2023-10-30_17h34.57.302,VExplicitOC_RO,2022.2.5,Linux x86_64,60.01680471,NA,NA,NA,NA,NA,NA,NA,NA,NA,NA,NA,16.49804065,0.9858,0,7,7,7,1,watch a short animation,008.png,NA,NA,NA,NA,NA,NA,NA,NA,NA,NA,NA,NA,NA,NA,NA,NA
MDPRF65956,65647784-6990-4F5B-A017-2A77E0F7A153,2023-10-30_17h34.57.302,VExplicitOC_RO,2022.2.5,Linux x86_64,60.01680471,NA,NA,NA,NA,NA,NA,NA,NA,NA,NA,NA,-22.1887922,1.8586,0,8,8,8,1,read a novel,009.png,NA,NA,NA,NA,NA,NA,NA,NA,NA,NA,NA,NA,NA,NA,NA,NA
MDPRF65956,65647784-6990-4F5B-A017-2A77E0F7A153,2023-10-30_17h34.57.302,VExplicitOC_RO,2022.2.5,Linux x86_64,60.01680471,NA,NA,NA,NA,NA,NA,NA,NA,NA,NA,NA,-25.14539095,0.902,0,9,9,9,1,read the news,010.png,NA,NA,NA,NA,NA,NA,NA,NA,NA,NA,NA,NA,NA,NA,NA,NA
MDPRF65956,65647784-6990-4F5B-A017-2A77E0F7A153,2023-10-30_17h34.57.302,VExplicitOC_RO,2022.2.5,Linux x86_64,60.01680471,NA,NA,NA,NA,NA,NA,NA,NA,NA,NA,NA,NA,NA,NA,NA,NA,NA,NA,NA,NA,NA,NA,NA,NA,NA,NA,NA,NA,NA,NA,NA,NA,NA,NA,NA,NA
MDPRF65956,65647784-6990-4F5B-A017-2A77E0F7A153,2023-10-30_17h34.57.302,VExplicitOC_RO,2022.2.5,Linux x86_64,60.01680471,NA,NA,NA,NA,NA,NA,NA,NA,NA,NA,NA,NA,NA,NA,NA,NA,NA,NA,NA,NA,scroll social media,NA,NA,NA,NA,NA,NA,NA,NA,NA,NA,NA,NA,NA,NA,NA
MDPRF65956,65647784-6990-4F5B-A017-2A77E0F7A153,2023-10-30_17h34.57.302,VExplicitOC_RO,2022.2.5,Linux x86_64,60.01680471,23.38075954,3.36,2.0033,NA,NA,NA,NA,NA,frustrated,"frustrated, not frustrated","more frustrated, less frustrated",NA,NA,NA,NA,NA,NA,NA,NA,NA,NA,0,0,0,1,1,NA,NA,NA,NA,NA,NA,NA,NA,NA,NA
MDPRF65956,65647784-6990-4F5B-A017-2A77E0F7A153,2023-10-30_17h34.57.302,VExplicitOC_RO,2022.2.5,Linux x86_64,60.01680471,17.1943929,3.9018,2.0108,NA,NA,NA,NA,NA,happy,"unhappy, happy","less happy, more happy",NA,NA,NA,NA,NA,NA,NA,NA,NA,NA,0,1,1,0,1,NA,NA,NA,NA,NA,NA,NA,NA,NA,NA
MDPRF65956,65647784-6990-4F5B-A017-2A77E0F7A153,2023-10-30_17h34.57.302,VExplicitOC_RO,2022.2.5,Linux x86_64,60.01680471,49.2726902,3.7314,2.009,NA,NA,NA,NA,NA,bored,"bored, not bored","more bored, less bored",NA,NA,NA,NA,NA,NA,NA,NA,NA,NA,0,2,2,2,1,NA,NA,NA,NA,NA,NA,NA,NA,NA,NA
MDPRF65956,65647784-6990-4F5B-A017-2A77E0F7A153,2023-10-30_17h34.57.302,VExplicitOC_RO,2022.2.5,Linux x86_64,60.01680471,NA,NA,NA,NA,NA,NA,NA,NA,NA,NA,NA,NA,NA,NA,NA,NA,NA,NA,NA,NA,NA,NA,NA,NA,NA,NA,NA,NA,NA,NA,NA,NA,NA,NA,NA,NA
MDPRF65956,65647784-6990-4F5B-A017-2A77E0F7A153,2023-10-30_17h34.57.302,VExplicitOC_RO,2022.2.5,Linux x86_64,60.01680471,NA,NA,NA,NA,NA,NA,NA,NA,NA,NA,NA,NA,NA,NA,NA,NA,NA,NA,NA,NA,NA,NA,NA,NA,NA,NA,NA,NA,NA,NA,NA,NA,NA,NA,NA,NA
MDPRF65956,65647784-6990-4F5B-A017-2A77E0F7A153,2023-10-30_17h34.57.302,VExplicitOC_RO,2022.2.5,Linux x86_64,60.01680471,93.23856664,3.0241,2.0124,NA,NA,NA,NA,NA,frustrated,"frustrated, not frustrated","more frustrated, less frustrated",NA,NA,NA,NA,NA,NA,NA,NA,NA,NA,NA,NA,NA,NA,NA,0,0,0,1,1,NA,NA,NA,NA,NA
MDPRF65956,65647784-6990-4F5B-A017-2A77E0F7A153,2023-10-30_17h34.57.302,VExplicitOC_RO,2022.2.5,Linux x86_64,60.01680471,65.15937682,2.6709,2.0077,NA,NA,NA,NA,NA,bored,"bored, not bored","more bored, less bored",NA,NA,NA,NA,NA,NA,NA,NA,NA,NA,NA,NA,NA,NA,NA,0,1,1,2,1,NA,NA,NA,NA,NA
MDPRF65956,65647784-6990-4F5B-A017-2A77E0F7A153,2023-10-30_17h34.57.302,VExplicitOC_RO,2022.2.5,Linux x86_64,60.01680471,32.95206647,3.4175,2.0075,NA,NA,NA,NA,NA,happy,"unhappy, happy","less happy, more happy",NA,NA,NA,NA,NA,NA,NA,NA,NA,NA,NA,NA,NA,NA,NA,0,2,2,0,1,NA,NA,NA,NA,NA
MDPRF65956,65647784-6990-4F5B-A017-2A77E0F7A153,2023-10-30_17h34.57.302,VExplicitOC_RO,2022.2.5,Linux x86_64,60.01680471,NA,NA,NA,NA,NA,NA,NA,NA,NA,NA,NA,NA,NA,NA,NA,NA,NA,NA,NA,NA,NA,NA,NA,NA,NA,NA,NA,NA,NA,NA,NA,0,0,0,0,1
MDPRF65956,65647784-6990-4F5B-A017-2A77E0F7A153,2023-10-30_17h34.57.302,VExplicitOC_RO,2022.2.5,Linux x86_64,60.01680471,33.76737722,3.6377,2.0028,NA,NA,NA,NA,NA,happy,"unhappy, happy","less happy, more happy",NA,NA,NA,NA,NA,NA,NA,NA,NA,NA,NA,NA,NA,NA,NA,0,0,0,0,1,NA,NA,NA,NA,NA
MDPRF65956,65647784-6990-4F5B-A017-2A77E0F7A153,2023-10-30_17h34.57.302,VExplicitOC_RO,2022.2.5,Linux x86_64,60.01680471,-24.84849305,4.2864,2.0131,NA,NA,NA,NA,NA,bored,"bored, not bored","more bored, less bored",NA,NA,NA,NA,NA,NA,NA,NA,NA,NA,NA,NA,NA,NA,NA,0,1,1,2,1,NA,NA,NA,NA,NA
MDPRF65956,65647784-6990-4F5B-A017-2A77E0F7A153,2023-10-30_17h34.57.302,VExplicitOC_RO,2022.2.5,Linux x86_64,60.01680471,24.3828577,5.0019,2.009,NA,NA,NA,NA,NA,frustrated,"frustrated, not frustrated","more frustrated, less frustrated",NA,NA,NA,NA,NA,NA,NA,NA,NA,NA,NA,NA,NA,NA,NA,0,2,2,1,1,NA,NA,NA,NA,NA
MDPRF65956,65647784-6990-4F5B-A017-2A77E0F7A153,2023-10-30_17h34.57.302,VExplicitOC_RO,2022.2.5,Linux x86_64,60.01680471,NA,NA,NA,NA,NA,NA,NA,NA,NA,NA,NA,NA,NA,NA,NA,NA,NA,NA,NA,NA,NA,NA,NA,NA,NA,NA,NA,NA,NA,NA,NA,1,0,1,0,1
MDPRF65956,65647784-6990-4F5B-A017-2A77E0F7A153,2023-10-30_17h34.57.302,VExplicitOC_RO,2022.2.5,Linux x86_64,60.01680471,-10.75375546,4.7912,2.0016,NA,NA,NA,NA,NA,frustrated,"frustrated, not frustrated","more frustrated, less frustrated",NA,NA,NA,NA,NA,NA,NA,NA,NA,NA,NA,NA,NA,NA,NA,0,0,0,1,1,NA,NA,NA,NA,NA
MDPRF65956,65647784-6990-4F5B-A017-2A77E0F7A153,2023-10-30_17h34.57.302,VExplicitOC_RO,2022.2.5,Linux x86_64,60.01680471,-47.00144068,3.9485,2.0109,NA,NA,NA,NA,NA,bored,"bored, not bored","more bored, less bored",NA,NA,NA,NA,NA,NA,NA,NA,NA,NA,NA,NA,NA,NA,NA,0,1,1,2,1,NA,NA,NA,NA,NA
MDPRF65956,65647784-6990-4F5B-A017-2A77E0F7A153,2023-10-30_17h34.57.302,VExplicitOC_RO,2022.2.5,Linux x86_64,60.01680471,19.35650694,2.7963,2.0089,NA,NA,NA,NA,NA,happy,"unhappy, happy","less happy, more happy",NA,NA,NA,NA,NA,NA,NA,NA,NA,NA,NA,NA,NA,NA,NA,0,2,2,0,1,NA,NA,NA,NA,NA
MDPRF65956,65647784-6990-4F5B-A017-2A77E0F7A153,2023-10-30_17h34.57.302,VExplicitOC_RO,2022.2.5,Linux x86_64,60.01680471,NA,NA,NA,NA,NA,NA,NA,NA,NA,NA,NA,NA,NA,NA,NA,NA,NA,NA,NA,NA,NA,NA,NA,NA,NA,NA,NA,NA,NA,NA,NA,2,0,2,0,1
MDPRF65956,65647784-6990-4F5B-A017-2A77E0F7A153,2023-10-30_17h34.57.302,VExplicitOC_RO,2022.2.5,Linux x86_64,60.01680471,NA,NA,2.0147,NA,NA,NA,NA,NA,bored,"bored, not bored","more bored, less bored",NA,NA,NA,NA,NA,NA,NA,NA,NA,NA,NA,NA,NA,NA,NA,0,0,0,2,1,NA,NA,NA,NA,NA
MDPRF65956,65647784-6990-4F5B-A017-2A77E0F7A153,2023-10-30_17h34.57.302,VExplicitOC_RO,2022.2.5,Linux x86_64,60.01680471,10.17367305,3.9616,2.0051,NA,NA,NA,NA,NA,happy,"unhappy, happy","less happy, more happy",NA,NA,NA,NA,NA,NA,NA,NA,NA,NA,NA,NA,NA,NA,NA,0,1,1,0,1,NA,NA,NA,NA,NA
MDPRF65956,65647784-6990-4F5B-A017-2A77E0F7A153,2023-10-30_17h34.57.302,VExplicitOC_RO,2022.2.5,Linux x86_64,60.01680471,8.327971492,3.0847,2.0127,NA,NA,NA,NA,NA,frustrated,"frustrated, not frustrated","more frustrated, less frustrated",NA,NA,NA,NA,NA,NA,NA,NA,NA,NA,NA,NA,NA,NA,NA,0,2,2,1,1,NA,NA,NA,NA,NA
MDPRF65956,65647784-6990-4F5B-A017-2A77E0F7A153,2023-10-30_17h34.57.302,VExplicitOC_RO,2022.2.5,Linux x86_64,60.01680471,NA,NA,NA,NA,NA,NA,NA,NA,NA,NA,NA,NA,NA,NA,NA,NA,NA,NA,NA,NA,NA,NA,NA,NA,NA,NA,NA,NA,NA,NA,NA,3,0,3,0,1
MDPRF65956,65647784-6990-4F5B-A017-2A77E0F7A153,2023-10-30_17h34.57.302,VExplicitOC_RO,2022.2.5,Linux x86_64,60.01680471,35.77452871,3.3613,2.0022,NA,NA,NA,NA,NA,happy,"unhappy, happy","less happy, more happy",NA,NA,NA,NA,NA,NA,NA,NA,NA,NA,NA,NA,NA,NA,NA,0,0,0,0,1,NA,NA,NA,NA,NA
MDPRF65956,65647784-6990-4F5B-A017-2A77E0F7A153,2023-10-30_17h34.57.302,VExplicitOC_RO,2022.2.5,Linux x86_64,60.01680471,-8.326620844,3.3149,2.0084,NA,NA,NA,NA,NA,frustrated,"frustrated, not frustrated","more frustrated, less frustrated",NA,NA,NA,NA,NA,NA,NA,NA,NA,NA,NA,NA,NA,NA,NA,0,1,1,1,1,NA,NA,NA,NA,NA
MDPRF65956,65647784-6990-4F5B-A017-2A77E0F7A153,2023-10-30_17h34.57.302,VExplicitOC_RO,2022.2.5,Linux x86_64,60.01680471,-11.0250361,3.0001,2.0108,NA,NA,NA,NA,NA,bored,"bored, not bored","more bored, less bored",NA,NA,NA,NA,NA,NA,NA,NA,NA,NA,NA,NA,NA,NA,NA,0,2,2,2,1,NA,NA,NA,NA,NA
MDPRF65956,65647784-6990-4F5B-A017-2A77E0F7A153,2023-10-30_17h34.57.302,VExplicitOC_RO,2022.2.5,Linux x86_64,60.01680471,NA,NA,NA,NA,NA,NA,NA,NA,NA,NA,NA,NA,NA,NA,NA,NA,NA,NA,NA,NA,NA,NA,NA,NA,NA,NA,NA,NA,NA,NA,NA,4,0,4,0,1
MDPRF65956,65647784-6990-4F5B-A017-2A77E0F7A153,2023-10-30_17h34.57.302,VExplicitOC_RO,2022.2.5,Linux x86_64,60.01680471,-61.99246754,5.6439,2.0027,NA,NA,NA,NA,NA,bored,"bored, not bored","more bored, less bored",NA,NA,NA,NA,NA,NA,NA,NA,NA,NA,NA,NA,NA,NA,NA,0,0,0,2,1,NA,NA,NA,NA,NA
MDPRF65956,65647784-6990-4F5B-A017-2A77E0F7A153,2023-10-30_17h34.57.302,VExplicitOC_RO,2022.2.5,Linux x86_64,60.01680471,6.265476239,4.3433,2.0071,NA,NA,NA,NA,NA,happy,"unhappy, happy","less happy, more happy",NA,NA,NA,NA,NA,NA,NA,NA,NA,NA,NA,NA,NA,NA,NA,0,1,1,0,1,NA,NA,NA,NA,NA
MDPRF65956,65647784-6990-4F5B-A017-2A77E0F7A153,2023-10-30_17h34.57.302,VExplicitOC_RO,2022.2.5,Linux x86_64,60.01680471,-17.16154964,3.6736,2.0131,NA,NA,NA,NA,NA,frustrated,"frustrated, not frustrated","more frustrated, less frustrated",NA,NA,NA,NA,NA,NA,NA,NA,NA,NA,NA,NA,NA,NA,NA,0,2,2,1,1,NA,NA,NA,NA,NA
MDPRF65956,65647784-6990-4F5B-A017-2A77E0F7A153,2023-10-30_17h34.57.302,VExplicitOC_RO,2022.2.5,Linux x86_64,60.01680471,NA,NA,NA,NA,NA,NA,NA,NA,NA,NA,NA,NA,NA,NA,NA,NA,NA,NA,NA,NA,NA,NA,NA,NA,NA,NA,NA,NA,NA,NA,NA,5,0,5,0,1
MDPRF65956,65647784-6990-4F5B-A017-2A77E0F7A153,2023-10-30_17h34.57.302,VExplicitOC_RO,2022.2.5,Linux x86_64,60.01680471,-19.90479947,5.5039,2.0026,NA,NA,NA,NA,NA,happy,"unhappy, happy","less happy, more happy",NA,NA,NA,NA,NA,NA,NA,NA,NA,NA,NA,NA,NA,NA,NA,0,0,0,0,1,NA,NA,NA,NA,NA
MDPRF65956,65647784-6990-4F5B-A017-2A77E0F7A153,2023-10-30_17h34.57.302,VExplicitOC_RO,2022.2.5,Linux x86_64,60.01680471,-77.12309534,4.2676,2.0103,NA,NA,NA,NA,NA,bored,"bored, not bored","more bored, less bored",NA,NA,NA,NA,NA,NA,NA,NA,NA,NA,NA,NA,NA,NA,NA,0,1,1,2,1,NA,NA,NA,NA,NA
MDPRF65956,65647784-6990-4F5B-A017-2A77E0F7A153,2023-10-30_17h34.57.302,VExplicitOC_RO,2022.2.5,Linux x86_64,60.01680471,NA,NA,2.0111,NA,NA,NA,NA,NA,frustrated,"frustrated, not frustrated","more frustrated, less frustrated",NA,NA,NA,NA,NA,NA,NA,NA,NA,NA,NA,NA,NA,NA,NA,0,2,2,1,1,NA,NA,NA,NA,NA
MDPRF65956,65647784-6990-4F5B-A017-2A77E0F7A153,2023-10-30_17h34.57.302,VExplicitOC_RO,2022.2.5,Linux x86_64,60.01680471,NA,NA,NA,NA,NA,NA,NA,NA,NA,NA,NA,NA,NA,NA,NA,NA,NA,NA,NA,NA,NA,NA,NA,NA,NA,NA,NA,NA,NA,NA,NA,6,0,6,0,1
MDPRF65956,65647784-6990-4F5B-A017-2A77E0F7A153,2023-10-30_17h34.57.302,VExplicitOC_RO,2022.2.5,Linux x86_64,60.01680471,-44.24656254,3.9939,2.0163,NA,NA,NA,NA,NA,frustrated,"frustrated, not frustrated","more frustrated, less frustrated",NA,NA,NA,NA,NA,NA,NA,NA,NA,NA,NA,NA,NA,NA,NA,0,0,0,1,1,NA,NA,NA,NA,NA
MDPRF65956,65647784-6990-4F5B-A017-2A77E0F7A153,2023-10-30_17h34.57.302,VExplicitOC_RO,2022.2.5,Linux x86_64,60.01680471,-27.39161352,6.1838,2.0091,NA,NA,NA,NA,NA,happy,"unhappy, happy","less happy, more happy",NA,NA,NA,NA,NA,NA,NA,NA,NA,NA,NA,NA,NA,NA,NA,0,1,1,0,1,NA,NA,NA,NA,NA
MDPRF65956,65647784-6990-4F5B-A017-2A77E0F7A153,2023-10-30_17h34.57.302,VExplicitOC_RO,2022.2.5,Linux x86_64,60.01680471,-82.88522096,5.3609,2.0082,NA,NA,NA,NA,NA,bored,"bored, not bored","more bored, less bored",NA,NA,NA,NA,NA,NA,NA,NA,NA,NA,NA,NA,NA,NA,NA,0,2,2,2,1,NA,NA,NA,NA,NA
MDPRF65956,65647784-6990-4F5B-A017-2A77E0F7A153,2023-10-30_17h34.57.302,VExplicitOC_RO,2022.2.5,Linux x86_64,60.01680471,NA,NA,NA,NA,NA,NA,NA,NA,NA,NA,NA,NA,NA,NA,NA,NA,NA,NA,NA,NA,NA,NA,NA,NA,NA,NA,NA,NA,NA,NA,NA,7,0,7,0,1
MDPRF65956,65647784-6990-4F5B-A017-2A77E0F7A153,2023-10-30_17h34.57.302,VExplicitOC_RO,2022.2.5,Linux x86_64,60.01680471,-17.79696255,3.2432,2.0021,NA,NA,NA,NA,NA,happy,"unhappy, happy","less happy, more happy",NA,NA,NA,NA,NA,NA,NA,NA,NA,NA,NA,NA,NA,NA,NA,0,0,0,0,1,NA,NA,NA,NA,NA
MDPRF65956,65647784-6990-4F5B-A017-2A77E0F7A153,2023-10-30_17h34.57.302,VExplicitOC_RO,2022.2.5,Linux x86_64,60.01680471,-77.26288862,2.9539,2.01,NA,NA,NA,NA,NA,frustrated,"frustrated, not frustrated","more frustrated, less frustrated",NA,NA,NA,NA,NA,NA,NA,NA,NA,NA,NA,NA,NA,NA,NA,0,1,1,1,1,NA,NA,NA,NA,NA
MDPRF65956,65647784-6990-4F5B-A017-2A77E0F7A153,2023-10-30_17h34.57.302,VExplicitOC_RO,2022.2.5,Linux x86_64,60.01680471,-97.09926677,2.8188,2.0043,NA,NA,NA,NA,NA,bored,"bored, not bored","more bored, less bored",NA,NA,NA,NA,NA,NA,NA,NA,NA,NA,NA,NA,NA,NA,NA,0,2,2,2,1,NA,NA,NA,NA,NA
MDPRF65956,65647784-6990-4F5B-A017-2A77E0F7A153,2023-10-30_17h34.57.302,VExplicitOC_RO,2022.2.5,Linux x86_64,60.01680471,NA,NA,NA,NA,NA,NA,NA,NA,NA,NA,NA,NA,NA,NA,NA,NA,NA,NA,NA,NA,NA,NA,NA,NA,NA,NA,NA,NA,NA,NA,NA,8,0,8,0,1
MDPRF65956,65647784-6990-4F5B-A017-2A77E0F7A153,2023-10-30_17h34.57.302,VExplicitOC_RO,2022.2.5,Linux x86_64,60.01680471,-63.61534267,3.8282,2.0147,NA,NA,NA,NA,NA,frustrated,"frustrated, not frustrated","more frustrated, less frustrated",NA,NA,NA,NA,NA,NA,NA,NA,NA,NA,NA,NA,NA,NA,NA,0,0,0,1,1,NA,NA,NA,NA,NA
MDPRF65956,65647784-6990-4F5B-A017-2A77E0F7A153,2023-10-30_17h34.57.302,VExplicitOC_RO,2022.2.5,Linux x86_64,60.01680471,-49.20878273,3.3128,2.0008,NA,NA,NA,NA,NA,happy,"unhappy, happy","less happy, more happy",NA,NA,NA,NA,NA,NA,NA,NA,NA,NA,NA,NA,NA,NA,NA,0,1,1,0,1,NA,NA,NA,NA,NA
MDPRF65956,65647784-6990-4F5B-A017-2A77E0F7A153,2023-10-30_17h34.57.302,VExplicitOC_RO,2022.2.5,Linux x86_64,60.01680471,-62.17138616,3.3838,2.0053,NA,NA,NA,NA,NA,bored,"bored, not bored","more bored, less bored",NA,NA,NA,NA,NA,NA,NA,NA,NA,NA,NA,NA,NA,NA,NA,0,2,2,2,1,NA,NA,NA,NA,NA
MDPRF65956,65647784-6990-4F5B-A017-2A77E0F7A153,2023-10-30_17h34.57.302,VExplicitOC_RO,2022.2.5,Linux x86_64,60.01680471,NA,NA,NA,NA,NA,NA,NA,NA,NA,NA,NA,NA,NA,NA,NA,NA,NA,NA,NA,NA,NA,NA,NA,NA,NA,NA,NA,NA,NA,NA,NA,9,0,9,0,1
MDPRF65956,65647784-6990-4F5B-A017-2A77E0F7A153,2023-10-30_17h34.57.302,VExplicitOC_RO,2022.2.5,Linux x86_64,60.01680471,-37.00267528,2.8585,2.0049,NA,NA,NA,NA,NA,frustrated,"frustrated, not frustrated","more frustrated, less frustrated",NA,NA,NA,NA,NA,NA,NA,NA,NA,NA,NA,NA,NA,NA,NA,0,0,0,1,1,NA,NA,NA,NA,NA
MDPRF65956,65647784-6990-4F5B-A017-2A77E0F7A153,2023-10-30_17h34.57.302,VExplicitOC_RO,2022.2.5,Linux x86_64,60.01680471,28.56960941,3.6064,2.0064,NA,NA,NA,NA,NA,happy,"unhappy, happy","less happy, more happy",NA,NA,NA,NA,NA,NA,NA,NA,NA,NA,NA,NA,NA,NA,NA,0,1,1,0,1,NA,NA,NA,NA,NA
MDPRF65956,65647784-6990-4F5B-A017-2A77E0F7A153,2023-10-30_17h34.57.302,VExplicitOC_RO,2022.2.5,Linux x86_64,60.01680471,-29.66438012,2.761,2.0023,NA,NA,NA,NA,NA,bored,"bored, not bored","more bored, less bored",NA,NA,NA,NA,NA,NA,NA,NA,NA,NA,NA,NA,NA,NA,NA,0,2,2,2,1,NA,NA,NA,NA,NA
MDPRF65956,65647784-6990-4F5B-A017-2A77E0F7A153,2023-10-30_17h34.57.302,VExplicitOC_RO,2022.2.5,Linux x86_64,60.01680471,NA,NA,NA,NA,NA,NA,NA,NA,NA,NA,NA,NA,NA,NA,NA,NA,NA,NA,NA,NA,NA,NA,NA,NA,NA,NA,NA,NA,NA,NA,NA,10,0,10,0,1
MDPRF65956,65647784-6990-4F5B-A017-2A77E0F7A153,2023-10-30_17h34.57.302,VExplicitOC_RO,2022.2.5,Linux x86_64,60.01680471,-45.23753075,2.6152,2.0024,NA,NA,NA,NA,NA,happy,"unhappy, happy","less happy, more happy",NA,NA,NA,NA,NA,NA,NA,NA,NA,NA,NA,NA,NA,NA,NA,0,0,0,0,1,NA,NA,NA,NA,NA
MDPRF65956,65647784-6990-4F5B-A017-2A77E0F7A153,2023-10-30_17h34.57.302,VExplicitOC_RO,2022.2.5,Linux x86_64,60.01680471,-43.71793775,2.6361,2.0098,NA,NA,NA,NA,NA,frustrated,"frustrated, not frustrated","more frustrated, less frustrated",NA,NA,NA,NA,NA,NA,NA,NA,NA,NA,NA,NA,NA,NA,NA,0,1,1,1,1,NA,NA,NA,NA,NA
MDPRF65956,65647784-6990-4F5B-A017-2A77E0F7A153,2023-10-30_17h34.57.302,VExplicitOC_RO,2022.2.5,Linux x86_64,60.01680471,-41.12737727,3.0589,2.014,NA,NA,NA,NA,NA,bored,"bored, not bored","more bored, less bored",NA,NA,NA,NA,NA,NA,NA,NA,NA,NA,NA,NA,NA,NA,NA,0,2,2,2,1,NA,NA,NA,NA,NA
MDPRF65956,65647784-6990-4F5B-A017-2A77E0F7A153,2023-10-30_17h34.57.302,VExplicitOC_RO,2022.2.5,Linux x86_64,60.01680471,NA,NA,NA,NA,NA,NA,NA,NA,NA,NA,NA,NA,NA,NA,NA,NA,NA,NA,NA,NA,NA,NA,NA,NA,NA,NA,NA,NA,NA,NA,NA,11,0,11,0,1
MDPRF65956,65647784-6990-4F5B-A017-2A77E0F7A153,2023-10-30_17h34.57.302,VExplicitOC_RO,2022.2.5,Linux x86_64,60.01680471,-31.91083002,2.9039,2.0138,NA,NA,NA,NA,NA,frustrated,"frustrated, not frustrated","more frustrated, less frustrated",NA,NA,NA,NA,NA,NA,NA,NA,NA,NA,NA,NA,NA,NA,NA,0,0,0,1,1,NA,NA,NA,NA,NA
MDPRF65956,65647784-6990-4F5B-A017-2A77E0F7A153,2023-10-30_17h34.57.302,VExplicitOC_RO,2022.2.5,Linux x86_64,60.01680471,-45.92082956,2.9745,2.0119,NA,NA,NA,NA,NA,happy,"unhappy, happy","less happy, more happy",NA,NA,NA,NA,NA,NA,NA,NA,NA,NA,NA,NA,NA,NA,NA,0,1,1,0,1,NA,NA,NA,NA,NA
MDPRF65956,65647784-6990-4F5B-A017-2A77E0F7A153,2023-10-30_17h34.57.302,VExplicitOC_RO,2022.2.5,Linux x86_64,60.01680471,-78.07923106,2.6958,2.0096,NA,NA,NA,NA,NA,bored,"bored, not bored","more bored, less bored",NA,NA,NA,NA,NA,NA,NA,NA,NA,NA,NA,NA,NA,NA,NA,0,2,2,2,1,NA,NA,NA,NA,NA
MDPRF65956,65647784-6990-4F5B-A017-2A77E0F7A153,2023-10-30_17h34.57.302,VExplicitOC_RO,2022.2.5,Linux x86_64,60.01680471,NA,NA,NA,NA,NA,NA,NA,NA,NA,NA,NA,NA,NA,NA,NA,NA,NA,NA,NA,NA,NA,NA,NA,NA,NA,NA,NA,NA,NA,NA,NA,12,0,12,0,1
MDPRF65956,65647784-6990-4F5B-A017-2A77E0F7A153,2023-10-30_17h34.57.302,VExplicitOC_RO,2022.2.5,Linux x86_64,60.01680471,-65.32048155,3.6865,2.0165,NA,NA,NA,NA,NA,happy,"unhappy, happy","less happy, more happy",NA,NA,NA,NA,NA,NA,NA,NA,NA,NA,NA,NA,NA,NA,NA,0,0,0,0,1,NA,NA,NA,NA,NA
MDPRF65956,65647784-6990-4F5B-A017-2A77E0F7A153,2023-10-30_17h34.57.302,VExplicitOC_RO,2022.2.5,Linux x86_64,60.01680471,-48.32768021,3.9305,2.0145,NA,NA,NA,NA,NA,frustrated,"frustrated, not frustrated","more frustrated, less frustrated",NA,NA,NA,NA,NA,NA,NA,NA,NA,NA,NA,NA,NA,NA,NA,0,1,1,1,1,NA,NA,NA,NA,NA
MDPRF65956,65647784-6990-4F5B-A017-2A77E0F7A153,2023-10-30_17h34.57.302,VExplicitOC_RO,2022.2.5,Linux x86_64,60.01680471,-64.91886765,3.8228,2.0021,NA,NA,NA,NA,NA,bored,"bored, not bored","more bored, less bored",NA,NA,NA,NA,NA,NA,NA,NA,NA,NA,NA,NA,NA,NA,NA,0,2,2,2,1,NA,NA,NA,NA,NA
MDPRF65956,65647784-6990-4F5B-A017-2A77E0F7A153,2023-10-30_17h34.57.302,VExplicitOC_RO,2022.2.5,Linux x86_64,60.01680471,NA,NA,NA,NA,NA,NA,NA,NA,NA,NA,NA,NA,NA,NA,NA,NA,NA,NA,NA,NA,NA,NA,NA,NA,NA,NA,NA,NA,NA,NA,NA,13,0,13,0,1
MDPRF65956,65647784-6990-4F5B-A017-2A77E0F7A153,2023-10-30_17h34.57.302,VExplicitOC_RO,2022.2.5,Linux x86_64,60.01680471,-46.93267627,3.3151,2.01,NA,NA,NA,NA,NA,frustrated,"frustrated, not frustrated","more frustrated, less frustrated",NA,NA,NA,NA,NA,NA,NA,NA,NA,NA,NA,NA,NA,NA,NA,0,0,0,1,1,NA,NA,NA,NA,NA
MDPRF65956,65647784-6990-4F5B-A017-2A77E0F7A153,2023-10-30_17h34.57.302,VExplicitOC_RO,2022.2.5,Linux x86_64,60.01680471,-53.85861227,3.8155,2.0096,NA,NA,NA,NA,NA,happy,"unhappy, happy","less happy, more happy",NA,NA,NA,NA,NA,NA,NA,NA,NA,NA,NA,NA,NA,NA,NA,0,1,1,0,1,NA,NA,NA,NA,NA
MDPRF65956,65647784-6990-4F5B-A017-2A77E0F7A153,2023-10-30_17h34.57.302,VExplicitOC_RO,2022.2.5,Linux x86_64,60.01680471,-49.4923037,3.2646,2.012,NA,NA,NA,NA,NA,bored,"bored, not bored","more bored, less bored",NA,NA,NA,NA,NA,NA,NA,NA,NA,NA,NA,NA,NA,NA,NA,0,2,2,2,1,NA,NA,NA,NA,NA
MDPRF65956,65647784-6990-4F5B-A017-2A77E0F7A153,2023-10-30_17h34.57.302,VExplicitOC_RO,2022.2.5,Linux x86_64,60.01680471,NA,NA,NA,NA,NA,NA,NA,NA,NA,NA,NA,NA,NA,NA,NA,NA,NA,NA,NA,NA,NA,NA,NA,NA,NA,NA,NA,NA,NA,NA,NA,14,0,14,0,1
MDPRF65956,65647784-6990-4F5B-A017-2A77E0F7A153,2023-10-30_17h34.57.302,VExplicitOC_RO,2022.2.5,Linux x86_64,60.01680471,NA,NA,NA,NA,NA,NA,NA,NA,NA,NA,NA,NA,NA,NA,NA,NA,NA,NA,NA,NA,NA,NA,NA,NA,NA,NA,NA,NA,NA,NA,NA,NA,NA,NA,NA,NA
MDPRF65956,65647784-6990-4F5B-A017-2A77E0F7A153,2023-10-30_17h34.57.302,VExplicitOC_RO,2022.2.5,Linux x86_64,60.01680471,NA,NA,NA,NA,NA,NA,NA,NA,NA,NA,NA,NA,NA,NA,NA,NA,NA,NA,NA,NA,NA,NA,NA,NA,NA,NA,NA,NA,NA,NA,NA,NA,NA,NA,NA,NA
