participant,session,date,expName,psychopyVersion,OS,frameRate,rating_all.response,rating_all.rt,rating_all.tStart,rndRat1.thisRepN,rndRat1.thisTrialN,rndRat1.thisN,rndRat1.thisIndex,rndRat1.ran,Emo,Labs,Labs2,rating_alt.response,rating_alt.rt,AltC.thisRepN,AltC.thisTrialN,AltC.thisN,AltC.thisIndex,AltC.ran,alt_choices,pic_choices,TopAlt_Choice,rndRat2.thisRepN,rndRat2.thisTrialN,rndRat2.thisN,rndRat2.thisIndex,rndRat2.ran,rndRat3.thisRepN,rndRat3.thisTrialN,rndRat3.thisN,rndRat3.thisIndex,rndRat3.ran,trials_FC_H.thisRepN,trials_FC_H.thisTrialN,trials_FC_H.thisN,trials_FC_H.thisIndex,trials_FC_H.ran
MDPRF96542,8E77A499-7BC5-40A1-901C-979ED67498E3,2023-10-30_17h52.50.975,VExplicitOC_RO,2022.2.5,MacIntel,58.82352941,NA,NA,NA,NA,NA,NA,NA,NA,NA,NA,NA,NA,NA,NA,NA,NA,NA,NA,NA,NA,NA,NA,NA,NA,NA,NA,NA,NA,NA,NA,NA,NA,NA,NA,NA,NA
MDPRF96542,8E77A499-7BC5-40A1-901C-979ED67498E3,2023-10-30_17h52.50.975,VExplicitOC_RO,2022.2.5,MacIntel,58.82352941,NA,NA,NA,NA,NA,NA,NA,NA,NA,NA,NA,NA,NA,NA,NA,NA,NA,NA,NA,NA,NA,NA,NA,NA,NA,NA,NA,NA,NA,NA,NA,NA,NA,NA,NA,NA
MDPRF96542,8E77A499-7BC5-40A1-901C-979ED67498E3,2023-10-30_17h52.50.975,VExplicitOC_RO,2022.2.5,MacIntel,58.82352941,NA,NA,NA,NA,NA,NA,NA,NA,NA,NA,NA,NA,NA,NA,NA,NA,NA,NA,NA,NA,NA,NA,NA,NA,NA,NA,NA,NA,NA,NA,NA,NA,NA,NA,NA,NA
MDPRF96542,8E77A499-7BC5-40A1-901C-979ED67498E3,2023-10-30_17h52.50.975,VExplicitOC_RO,2022.2.5,MacIntel,58.82352941,-55.65217391,5.712,2.007,0,0,0,2,1,bored,"bored, not bored","more bored, less bored",NA,NA,NA,NA,NA,NA,NA,NA,NA,NA,NA,NA,NA,NA,NA,NA,NA,NA,NA,NA,NA,NA,NA,NA,NA
MDPRF96542,8E77A499-7BC5-40A1-901C-979ED67498E3,2023-10-30_17h52.50.975,VExplicitOC_RO,2022.2.5,MacIntel,58.82352941,28.26086957,5.017,2.015,0,1,1,1,1,frustrated,"frustrated, not frustrated","more frustrated, less frustrated",NA,NA,NA,NA,NA,NA,NA,NA,NA,NA,NA,NA,NA,NA,NA,NA,NA,NA,NA,NA,NA,NA,NA,NA,NA
MDPRF96542,8E77A499-7BC5-40A1-901C-979ED67498E3,2023-10-30_17h52.50.975,VExplicitOC_RO,2022.2.5,MacIntel,58.82352941,67.60869565,4.242,2.016,0,2,2,0,1,happy,"unhappy, happy","less happy, more happy",NA,NA,NA,NA,NA,NA,NA,NA,NA,NA,NA,NA,NA,NA,NA,NA,NA,NA,NA,NA,NA,NA,NA,NA,NA
MDPRF96542,8E77A499-7BC5-40A1-901C-979ED67498E3,2023-10-30_17h52.50.975,VExplicitOC_RO,2022.2.5,MacIntel,58.82352941,NA,NA,NA,NA,NA,NA,NA,NA,NA,NA,NA,NA,NA,NA,NA,NA,NA,NA,NA,NA,NA,NA,NA,NA,NA,NA,NA,NA,NA,NA,NA,NA,NA,NA,NA,NA
MDPRF96542,8E77A499-7BC5-40A1-901C-979ED67498E3,2023-10-30_17h52.50.975,VExplicitOC_RO,2022.2.5,MacIntel,58.82352941,NA,NA,NA,NA,NA,NA,NA,NA,NA,NA,NA,NA,NA,NA,NA,NA,NA,NA,NA,NA,NA,NA,NA,NA,NA,NA,NA,NA,NA,NA,NA,NA,NA,NA,NA,NA
MDPRF96542,8E77A499-7BC5-40A1-901C-979ED67498E3,2023-10-30_17h52.50.975,VExplicitOC_RO,2022.2.5,MacIntel,58.82352941,NA,NA,NA,NA,NA,NA,NA,NA,NA,NA,NA,NA,NA,NA,NA,NA,NA,NA,NA,NA,NA,NA,NA,NA,NA,NA,NA,NA,NA,NA,NA,NA,NA,NA,NA,NA
MDPRF96542,8E77A499-7BC5-40A1-901C-979ED67498E3,2023-10-30_17h52.50.975,VExplicitOC_RO,2022.2.5,MacIntel,58.82352941,NA,NA,NA,NA,NA,NA,NA,NA,NA,NA,NA,NA,NA,NA,NA,NA,NA,NA,NA,NA,NA,NA,NA,NA,NA,NA,NA,NA,NA,NA,NA,NA,NA,NA,NA,NA
MDPRF96542,8E77A499-7BC5-40A1-901C-979ED67498E3,2023-10-30_17h52.50.975,VExplicitOC_RO,2022.2.5,MacIntel,58.82352941,NA,NA,NA,NA,NA,NA,NA,NA,NA,NA,NA,-33.91304348,8.51,0,0,0,0,1,rest (looking at a fixed cross),001.png,NA,NA,NA,NA,NA,NA,NA,NA,NA,NA,NA,NA,NA,NA,NA,NA
MDPRF96542,8E77A499-7BC5-40A1-901C-979ED67498E3,2023-10-30_17h52.50.975,VExplicitOC_RO,2022.2.5,MacIntel,58.82352941,NA,NA,NA,NA,NA,NA,NA,NA,NA,NA,NA,36.73913043,6.669,0,1,1,1,1,stand up,002.png,NA,NA,NA,NA,NA,NA,NA,NA,NA,NA,NA,NA,NA,NA,NA,NA
MDPRF96542,8E77A499-7BC5-40A1-901C-979ED67498E3,2023-10-30_17h52.50.975,VExplicitOC_RO,2022.2.5,MacIntel,58.82352941,NA,NA,NA,NA,NA,NA,NA,NA,NA,NA,NA,-30.86956522,2.621,0,2,2,2,1,stretch,003.png,NA,NA,NA,NA,NA,NA,NA,NA,NA,NA,NA,NA,NA,NA,NA,NA
MDPRF96542,8E77A499-7BC5-40A1-901C-979ED67498E3,2023-10-30_17h52.50.975,VExplicitOC_RO,2022.2.5,MacIntel,58.82352941,NA,NA,NA,NA,NA,NA,NA,NA,NA,NA,NA,86.30434783,3.411,0,3,3,3,1,make a drink,004.png,NA,NA,NA,NA,NA,NA,NA,NA,NA,NA,NA,NA,NA,NA,NA,NA
MDPRF96542,8E77A499-7BC5-40A1-901C-979ED67498E3,2023-10-30_17h52.50.975,VExplicitOC_RO,2022.2.5,MacIntel,58.82352941,NA,NA,NA,NA,NA,NA,NA,NA,NA,NA,NA,100,2.474,0,4,4,4,1,scroll social media,005.png,NA,NA,NA,NA,NA,NA,NA,NA,NA,NA,NA,NA,NA,NA,NA,NA
MDPRF96542,8E77A499-7BC5-40A1-901C-979ED67498E3,2023-10-30_17h52.50.975,VExplicitOC_RO,2022.2.5,MacIntel,58.82352941,NA,NA,NA,NA,NA,NA,NA,NA,NA,NA,NA,100,2.22,0,5,5,5,1,listen to music,006.png,NA,NA,NA,NA,NA,NA,NA,NA,NA,NA,NA,NA,NA,NA,NA,NA
MDPRF96542,8E77A499-7BC5-40A1-901C-979ED67498E3,2023-10-30_17h52.50.975,VExplicitOC_RO,2022.2.5,MacIntel,58.82352941,NA,NA,NA,NA,NA,NA,NA,NA,NA,NA,NA,-50.65217391,2.438,0,6,6,6,1,daydream,007.png,NA,NA,NA,NA,NA,NA,NA,NA,NA,NA,NA,NA,NA,NA,NA,NA
MDPRF96542,8E77A499-7BC5-40A1-901C-979ED67498E3,2023-10-30_17h52.50.975,VExplicitOC_RO,2022.2.5,MacIntel,58.82352941,NA,NA,NA,NA,NA,NA,NA,NA,NA,NA,NA,25.86956522,2.637,0,7,7,7,1,watch a short animation,008.png,NA,NA,NA,NA,NA,NA,NA,NA,NA,NA,NA,NA,NA,NA,NA,NA
MDPRF96542,8E77A499-7BC5-40A1-901C-979ED67498E3,2023-10-30_17h52.50.975,VExplicitOC_RO,2022.2.5,MacIntel,58.82352941,NA,NA,NA,NA,NA,NA,NA,NA,NA,NA,NA,10,2.722,0,8,8,8,1,read a novel,009.png,NA,NA,NA,NA,NA,NA,NA,NA,NA,NA,NA,NA,NA,NA,NA,NA
MDPRF96542,8E77A499-7BC5-40A1-901C-979ED67498E3,2023-10-30_17h52.50.975,VExplicitOC_RO,2022.2.5,MacIntel,58.82352941,NA,NA,NA,NA,NA,NA,NA,NA,NA,NA,NA,-26.52173913,1.743,0,9,9,9,1,read the news,010.png,NA,NA,NA,NA,NA,NA,NA,NA,NA,NA,NA,NA,NA,NA,NA,NA
MDPRF96542,8E77A499-7BC5-40A1-901C-979ED67498E3,2023-10-30_17h52.50.975,VExplicitOC_RO,2022.2.5,MacIntel,58.82352941,NA,NA,NA,NA,NA,NA,NA,NA,NA,NA,NA,NA,NA,NA,NA,NA,NA,NA,NA,NA,NA,NA,NA,NA,NA,NA,NA,NA,NA,NA,NA,NA,NA,NA,NA,NA
MDPRF96542,8E77A499-7BC5-40A1-901C-979ED67498E3,2023-10-30_17h52.50.975,VExplicitOC_RO,2022.2.5,MacIntel,58.82352941,NA,NA,NA,NA,NA,NA,NA,NA,NA,NA,NA,NA,NA,NA,NA,NA,NA,NA,NA,NA,scroll social media,NA,NA,NA,NA,NA,NA,NA,NA,NA,NA,NA,NA,NA,NA,NA
MDPRF96542,8E77A499-7BC5-40A1-901C-979ED67498E3,2023-10-30_17h52.50.975,VExplicitOC_RO,2022.2.5,MacIntel,58.82352941,-26.08695652,5.207,2.004,NA,NA,NA,NA,NA,bored,"bored, not bored","more bored, less bored",NA,NA,NA,NA,NA,NA,NA,NA,NA,NA,0,0,0,2,1,NA,NA,NA,NA,NA,NA,NA,NA,NA,NA
MDPRF96542,8E77A499-7BC5-40A1-901C-979ED67498E3,2023-10-30_17h52.50.975,VExplicitOC_RO,2022.2.5,MacIntel,58.82352941,26.95652174,4.572,2.015,NA,NA,NA,NA,NA,frustrated,"frustrated, not frustrated","more frustrated, less frustrated",NA,NA,NA,NA,NA,NA,NA,NA,NA,NA,0,1,1,1,1,NA,NA,NA,NA,NA,NA,NA,NA,NA,NA
MDPRF96542,8E77A499-7BC5-40A1-901C-979ED67498E3,2023-10-30_17h52.50.975,VExplicitOC_RO,2022.2.5,MacIntel,58.82352941,75,4.768,2.016,NA,NA,NA,NA,NA,happy,"unhappy, happy","less happy, more happy",NA,NA,NA,NA,NA,NA,NA,NA,NA,NA,0,2,2,0,1,NA,NA,NA,NA,NA,NA,NA,NA,NA,NA
MDPRF96542,8E77A499-7BC5-40A1-901C-979ED67498E3,2023-10-30_17h52.50.975,VExplicitOC_RO,2022.2.5,MacIntel,58.82352941,NA,NA,NA,NA,NA,NA,NA,NA,NA,NA,NA,NA,NA,NA,NA,NA,NA,NA,NA,NA,NA,NA,NA,NA,NA,NA,NA,NA,NA,NA,NA,NA,NA,NA,NA,NA
MDPRF96542,8E77A499-7BC5-40A1-901C-979ED67498E3,2023-10-30_17h52.50.975,VExplicitOC_RO,2022.2.5,MacIntel,58.82352941,NA,NA,NA,NA,NA,NA,NA,NA,NA,NA,NA,NA,NA,NA,NA,NA,NA,NA,NA,NA,NA,NA,NA,NA,NA,NA,NA,NA,NA,NA,NA,NA,NA,NA,NA,NA
MDPRF96542,8E77A499-7BC5-40A1-901C-979ED67498E3,2023-10-30_17h52.50.975,VExplicitOC_RO,2022.2.5,MacIntel,58.82352941,NA,NA,2.003,NA,NA,NA,NA,NA,happy,"unhappy, happy","less happy, more happy",NA,NA,NA,NA,NA,NA,NA,NA,NA,NA,NA,NA,NA,NA,NA,0,0,0,0,1,NA,NA,NA,NA,NA
MDPRF96542,8E77A499-7BC5-40A1-901C-979ED67498E3,2023-10-30_17h52.50.975,VExplicitOC_RO,2022.2.5,MacIntel,58.82352941,-33.91304348,5.617,2.015,NA,NA,NA,NA,NA,frustrated,"frustrated, not frustrated","more frustrated, less frustrated",NA,NA,NA,NA,NA,NA,NA,NA,NA,NA,NA,NA,NA,NA,NA,0,1,1,1,1,NA,NA,NA,NA,NA
MDPRF96542,8E77A499-7BC5-40A1-901C-979ED67498E3,2023-10-30_17h52.50.975,VExplicitOC_RO,2022.2.5,MacIntel,58.82352941,-67.82608696,3.989,2.015,NA,NA,NA,NA,NA,bored,"bored, not bored","more bored, less bored",NA,NA,NA,NA,NA,NA,NA,NA,NA,NA,NA,NA,NA,NA,NA,0,2,2,2,1,NA,NA,NA,NA,NA
MDPRF96542,8E77A499-7BC5-40A1-901C-979ED67498E3,2023-10-30_17h52.50.975,VExplicitOC_RO,2022.2.5,MacIntel,58.82352941,NA,NA,NA,NA,NA,NA,NA,NA,NA,NA,NA,NA,NA,NA,NA,NA,NA,NA,NA,NA,NA,NA,NA,NA,NA,NA,NA,NA,NA,NA,NA,0,0,0,0,1
MDPRF96542,8E77A499-7BC5-40A1-901C-979ED67498E3,2023-10-30_17h52.50.975,VExplicitOC_RO,2022.2.5,MacIntel,58.82352941,100,5.522,2.002,NA,NA,NA,NA,NA,happy,"unhappy, happy","less happy, more happy",NA,NA,NA,NA,NA,NA,NA,NA,NA,NA,NA,NA,NA,NA,NA,0,0,0,0,1,NA,NA,NA,NA,NA
MDPRF96542,8E77A499-7BC5-40A1-901C-979ED67498E3,2023-10-30_17h52.50.975,VExplicitOC_RO,2022.2.5,MacIntel,58.82352941,-100,3.9,2.014,NA,NA,NA,NA,NA,frustrated,"frustrated, not frustrated","more frustrated, less frustrated",NA,NA,NA,NA,NA,NA,NA,NA,NA,NA,NA,NA,NA,NA,NA,0,1,1,1,1,NA,NA,NA,NA,NA
MDPRF96542,8E77A499-7BC5-40A1-901C-979ED67498E3,2023-10-30_17h52.50.975,VExplicitOC_RO,2022.2.5,MacIntel,58.82352941,-99.13043478,4.015,2.016,NA,NA,NA,NA,NA,bored,"bored, not bored","more bored, less bored",NA,NA,NA,NA,NA,NA,NA,NA,NA,NA,NA,NA,NA,NA,NA,0,2,2,2,1,NA,NA,NA,NA,NA
MDPRF96542,8E77A499-7BC5-40A1-901C-979ED67498E3,2023-10-30_17h52.50.975,VExplicitOC_RO,2022.2.5,MacIntel,58.82352941,NA,NA,NA,NA,NA,NA,NA,NA,NA,NA,NA,NA,NA,NA,NA,NA,NA,NA,NA,NA,NA,NA,NA,NA,NA,NA,NA,NA,NA,NA,NA,1,0,1,0,1
MDPRF96542,8E77A499-7BC5-40A1-901C-979ED67498E3,2023-10-30_17h52.50.975,VExplicitOC_RO,2022.2.5,MacIntel,58.82352941,100,4.083,2.006,NA,NA,NA,NA,NA,happy,"unhappy, happy","less happy, more happy",NA,NA,NA,NA,NA,NA,NA,NA,NA,NA,NA,NA,NA,NA,NA,0,0,0,0,1,NA,NA,NA,NA,NA
MDPRF96542,8E77A499-7BC5-40A1-901C-979ED67498E3,2023-10-30_17h52.50.975,VExplicitOC_RO,2022.2.5,MacIntel,58.82352941,NA,NA,2.016,NA,NA,NA,NA,NA,frustrated,"frustrated, not frustrated","more frustrated, less frustrated",NA,NA,NA,NA,NA,NA,NA,NA,NA,NA,NA,NA,NA,NA,NA,0,1,1,1,1,NA,NA,NA,NA,NA
MDPRF96542,8E77A499-7BC5-40A1-901C-979ED67498E3,2023-10-30_17h52.50.975,VExplicitOC_RO,2022.2.5,MacIntel,58.82352941,NA,NA,NA,NA,NA,NA,NA,NA,bored,"bored, not bored","more bored, less bored",NA,NA,NA,NA,NA,NA,NA,NA,NA,NA,NA,NA,NA,NA,NA,0,2,2,2,1,NA,NA,NA,NA,NA
MDPRF96542,8E77A499-7BC5-40A1-901C-979ED67498E3,2023-10-30_17h52.50.975,VExplicitOC_RO,2022.2.5,MacIntel,58.82352941,NA,NA,NA,NA,NA,NA,NA,NA,NA,NA,NA,NA,NA,NA,NA,NA,NA,NA,NA,NA,NA,NA,NA,NA,NA,NA,NA,NA,NA,NA,NA,2,0,2,0,1
MDPRF96542,8E77A499-7BC5-40A1-901C-979ED67498E3,2023-10-30_17h52.50.975,VExplicitOC_RO,2022.2.5,MacIntel,58.82352941,100,4.418,2.011,NA,NA,NA,NA,NA,happy,"unhappy, happy","less happy, more happy",NA,NA,NA,NA,NA,NA,NA,NA,NA,NA,NA,NA,NA,NA,NA,0,0,0,0,1,NA,NA,NA,NA,NA
MDPRF96542,8E77A499-7BC5-40A1-901C-979ED67498E3,2023-10-30_17h52.50.975,VExplicitOC_RO,2022.2.5,MacIntel,58.82352941,100,6.135,2.015,NA,NA,NA,NA,NA,frustrated,"frustrated, not frustrated","more frustrated, less frustrated",NA,NA,NA,NA,NA,NA,NA,NA,NA,NA,NA,NA,NA,NA,NA,0,1,1,1,1,NA,NA,NA,NA,NA
MDPRF96542,8E77A499-7BC5-40A1-901C-979ED67498E3,2023-10-30_17h52.50.975,VExplicitOC_RO,2022.2.5,MacIntel,58.82352941,100,3.86,2.015,NA,NA,NA,NA,NA,bored,"bored, not bored","more bored, less bored",NA,NA,NA,NA,NA,NA,NA,NA,NA,NA,NA,NA,NA,NA,NA,0,2,2,2,1,NA,NA,NA,NA,NA
MDPRF96542,8E77A499-7BC5-40A1-901C-979ED67498E3,2023-10-30_17h52.50.975,VExplicitOC_RO,2022.2.5,MacIntel,58.82352941,NA,NA,NA,NA,NA,NA,NA,NA,NA,NA,NA,NA,NA,NA,NA,NA,NA,NA,NA,NA,NA,NA,NA,NA,NA,NA,NA,NA,NA,NA,NA,3,0,3,0,1
MDPRF96542,8E77A499-7BC5-40A1-901C-979ED67498E3,2023-10-30_17h52.50.975,VExplicitOC_RO,2022.2.5,MacIntel,58.82352941,-100,7.164,2.008,NA,NA,NA,NA,NA,happy,"unhappy, happy","less happy, more happy",NA,NA,NA,NA,NA,NA,NA,NA,NA,NA,NA,NA,NA,NA,NA,0,0,0,0,1,NA,NA,NA,NA,NA
MDPRF96542,8E77A499-7BC5-40A1-901C-979ED67498E3,2023-10-30_17h52.50.975,VExplicitOC_RO,2022.2.5,MacIntel,58.82352941,100,4.135,2.016,NA,NA,NA,NA,NA,bored,"bored, not bored","more bored, less bored",NA,NA,NA,NA,NA,NA,NA,NA,NA,NA,NA,NA,NA,NA,NA,0,1,1,2,1,NA,NA,NA,NA,NA
MDPRF96542,8E77A499-7BC5-40A1-901C-979ED67498E3,2023-10-30_17h52.50.975,VExplicitOC_RO,2022.2.5,MacIntel,58.82352941,-100,4.391,2.015,NA,NA,NA,NA,NA,frustrated,"frustrated, not frustrated","more frustrated, less frustrated",NA,NA,NA,NA,NA,NA,NA,NA,NA,NA,NA,NA,NA,NA,NA,0,2,2,1,1,NA,NA,NA,NA,NA
MDPRF96542,8E77A499-7BC5-40A1-901C-979ED67498E3,2023-10-30_17h52.50.975,VExplicitOC_RO,2022.2.5,MacIntel,58.82352941,NA,NA,NA,NA,NA,NA,NA,NA,NA,NA,NA,NA,NA,NA,NA,NA,NA,NA,NA,NA,NA,NA,NA,NA,NA,NA,NA,NA,NA,NA,NA,4,0,4,0,1
MDPRF96542,8E77A499-7BC5-40A1-901C-979ED67498E3,2023-10-30_17h52.50.975,VExplicitOC_RO,2022.2.5,MacIntel,58.82352941,NA,NA,2.002,NA,NA,NA,NA,NA,bored,"bored, not bored","more bored, less bored",NA,NA,NA,NA,NA,NA,NA,NA,NA,NA,NA,NA,NA,NA,NA,0,0,0,2,1,NA,NA,NA,NA,NA
MDPRF96542,8E77A499-7BC5-40A1-901C-979ED67498E3,2023-10-30_17h52.50.975,VExplicitOC_RO,2022.2.5,MacIntel,58.82352941,-12.60869565,3.801,2.016,NA,NA,NA,NA,NA,frustrated,"frustrated, not frustrated","more frustrated, less frustrated",NA,NA,NA,NA,NA,NA,NA,NA,NA,NA,NA,NA,NA,NA,NA,0,1,1,1,1,NA,NA,NA,NA,NA
MDPRF96542,8E77A499-7BC5-40A1-901C-979ED67498E3,2023-10-30_17h52.50.975,VExplicitOC_RO,2022.2.5,MacIntel,58.82352941,10.43478261,3.508,2.015,NA,NA,NA,NA,NA,happy,"unhappy, happy","less happy, more happy",NA,NA,NA,NA,NA,NA,NA,NA,NA,NA,NA,NA,NA,NA,NA,0,2,2,0,1,NA,NA,NA,NA,NA
MDPRF96542,8E77A499-7BC5-40A1-901C-979ED67498E3,2023-10-30_17h52.50.975,VExplicitOC_RO,2022.2.5,MacIntel,58.82352941,NA,NA,NA,NA,NA,NA,NA,NA,NA,NA,NA,NA,NA,NA,NA,NA,NA,NA,NA,NA,NA,NA,NA,NA,NA,NA,NA,NA,NA,NA,NA,5,0,5,0,1
MDPRF96542,8E77A499-7BC5-40A1-901C-979ED67498E3,2023-10-30_17h52.50.975,VExplicitOC_RO,2022.2.5,MacIntel,58.82352941,NA,NA,2.008,NA,NA,NA,NA,NA,frustrated,"frustrated, not frustrated","more frustrated, less frustrated",NA,NA,NA,NA,NA,NA,NA,NA,NA,NA,NA,NA,NA,NA,NA,0,0,0,1,1,NA,NA,NA,NA,NA
MDPRF96542,8E77A499-7BC5-40A1-901C-979ED67498E3,2023-10-30_17h52.50.975,VExplicitOC_RO,2022.2.5,MacIntel,58.82352941,-0.652173913,2.958,2.014,NA,NA,NA,NA,NA,happy,"unhappy, happy","less happy, more happy",NA,NA,NA,NA,NA,NA,NA,NA,NA,NA,NA,NA,NA,NA,NA,0,1,1,0,1,NA,NA,NA,NA,NA
MDPRF96542,8E77A499-7BC5-40A1-901C-979ED67498E3,2023-10-30_17h52.50.975,VExplicitOC_RO,2022.2.5,MacIntel,58.82352941,-0.652173913,2.634,2.015,NA,NA,NA,NA,NA,bored,"bored, not bored","more bored, less bored",NA,NA,NA,NA,NA,NA,NA,NA,NA,NA,NA,NA,NA,NA,NA,0,2,2,2,1,NA,NA,NA,NA,NA
MDPRF96542,8E77A499-7BC5-40A1-901C-979ED67498E3,2023-10-30_17h52.50.975,VExplicitOC_RO,2022.2.5,MacIntel,58.82352941,NA,NA,NA,NA,NA,NA,NA,NA,NA,NA,NA,NA,NA,NA,NA,NA,NA,NA,NA,NA,NA,NA,NA,NA,NA,NA,NA,NA,NA,NA,NA,6,0,6,0,1
MDPRF96542,8E77A499-7BC5-40A1-901C-979ED67498E3,2023-10-30_17h52.50.975,VExplicitOC_RO,2022.2.5,MacIntel,58.82352941,26.08695652,6.312,2.006,NA,NA,NA,NA,NA,happy,"unhappy, happy","less happy, more happy",NA,NA,NA,NA,NA,NA,NA,NA,NA,NA,NA,NA,NA,NA,NA,0,0,0,0,1,NA,NA,NA,NA,NA
MDPRF96542,8E77A499-7BC5-40A1-901C-979ED67498E3,2023-10-30_17h52.50.975,VExplicitOC_RO,2022.2.5,MacIntel,58.82352941,25.86956522,6.751,2.016,NA,NA,NA,NA,NA,bored,"bored, not bored","more bored, less bored",NA,NA,NA,NA,NA,NA,NA,NA,NA,NA,NA,NA,NA,NA,NA,0,1,1,2,1,NA,NA,NA,NA,NA
MDPRF96542,8E77A499-7BC5-40A1-901C-979ED67498E3,2023-10-30_17h52.50.975,VExplicitOC_RO,2022.2.5,MacIntel,58.82352941,-24.34782609,4.569,2.015,NA,NA,NA,NA,NA,frustrated,"frustrated, not frustrated","more frustrated, less frustrated",NA,NA,NA,NA,NA,NA,NA,NA,NA,NA,NA,NA,NA,NA,NA,0,2,2,1,1,NA,NA,NA,NA,NA
MDPRF96542,8E77A499-7BC5-40A1-901C-979ED67498E3,2023-10-30_17h52.50.975,VExplicitOC_RO,2022.2.5,MacIntel,58.82352941,NA,NA,NA,NA,NA,NA,NA,NA,NA,NA,NA,NA,NA,NA,NA,NA,NA,NA,NA,NA,NA,NA,NA,NA,NA,NA,NA,NA,NA,NA,NA,7,0,7,0,1
MDPRF96542,8E77A499-7BC5-40A1-901C-979ED67498E3,2023-10-30_17h52.50.975,VExplicitOC_RO,2022.2.5,MacIntel,58.82352941,NA,NA,2.003,NA,NA,NA,NA,NA,bored,"bored, not bored","more bored, less bored",NA,NA,NA,NA,NA,NA,NA,NA,NA,NA,NA,NA,NA,NA,NA,0,0,0,2,1,NA,NA,NA,NA,NA
MDPRF96542,8E77A499-7BC5-40A1-901C-979ED67498E3,2023-10-30_17h52.50.975,VExplicitOC_RO,2022.2.5,MacIntel,58.82352941,NA,NA,2.015,NA,NA,NA,NA,NA,frustrated,"frustrated, not frustrated","more frustrated, less frustrated",NA,NA,NA,NA,NA,NA,NA,NA,NA,NA,NA,NA,NA,NA,NA,0,1,1,1,1,NA,NA,NA,NA,NA
MDPRF96542,8E77A499-7BC5-40A1-901C-979ED67498E3,2023-10-30_17h52.50.975,VExplicitOC_RO,2022.2.5,MacIntel,58.82352941,NA,NA,2.015,NA,NA,NA,NA,NA,happy,"unhappy, happy","less happy, more happy",NA,NA,NA,NA,NA,NA,NA,NA,NA,NA,NA,NA,NA,NA,NA,0,2,2,0,1,NA,NA,NA,NA,NA
MDPRF96542,8E77A499-7BC5-40A1-901C-979ED67498E3,2023-10-30_17h52.50.975,VExplicitOC_RO,2022.2.5,MacIntel,58.82352941,NA,NA,NA,NA,NA,NA,NA,NA,NA,NA,NA,NA,NA,NA,NA,NA,NA,NA,NA,NA,NA,NA,NA,NA,NA,NA,NA,NA,NA,NA,NA,8,0,8,0,1
MDPRF96542,8E77A499-7BC5-40A1-901C-979ED67498E3,2023-10-30_17h52.50.975,VExplicitOC_RO,2022.2.5,MacIntel,58.82352941,NA,NA,2.001,NA,NA,NA,NA,NA,happy,"unhappy, happy","less happy, more happy",NA,NA,NA,NA,NA,NA,NA,NA,NA,NA,NA,NA,NA,NA,NA,0,0,0,0,1,NA,NA,NA,NA,NA
MDPRF96542,8E77A499-7BC5-40A1-901C-979ED67498E3,2023-10-30_17h52.50.975,VExplicitOC_RO,2022.2.5,MacIntel,58.82352941,NA,NA,2.015,NA,NA,NA,NA,NA,bored,"bored, not bored","more bored, less bored",NA,NA,NA,NA,NA,NA,NA,NA,NA,NA,NA,NA,NA,NA,NA,0,1,1,2,1,NA,NA,NA,NA,NA
MDPRF96542,8E77A499-7BC5-40A1-901C-979ED67498E3,2023-10-30_17h52.50.975,VExplicitOC_RO,2022.2.5,MacIntel,58.82352941,NA,NA,2.015,NA,NA,NA,NA,NA,frustrated,"frustrated, not frustrated","more frustrated, less frustrated",NA,NA,NA,NA,NA,NA,NA,NA,NA,NA,NA,NA,NA,NA,NA,0,2,2,1,1,NA,NA,NA,NA,NA
MDPRF96542,8E77A499-7BC5-40A1-901C-979ED67498E3,2023-10-30_17h52.50.975,VExplicitOC_RO,2022.2.5,MacIntel,58.82352941,NA,NA,NA,NA,NA,NA,NA,NA,NA,NA,NA,NA,NA,NA,NA,NA,NA,NA,NA,NA,NA,NA,NA,NA,NA,NA,NA,NA,NA,NA,NA,9,0,9,0,1
MDPRF96542,8E77A499-7BC5-40A1-901C-979ED67498E3,2023-10-30_17h52.50.975,VExplicitOC_RO,2022.2.5,MacIntel,58.82352941,NA,NA,2.007,NA,NA,NA,NA,NA,bored,"bored, not bored","more bored, less bored",NA,NA,NA,NA,NA,NA,NA,NA,NA,NA,NA,NA,NA,NA,NA,0,0,0,2,1,NA,NA,NA,NA,NA
MDPRF96542,8E77A499-7BC5-40A1-901C-979ED67498E3,2023-10-30_17h52.50.975,VExplicitOC_RO,2022.2.5,MacIntel,58.82352941,NA,NA,2.016,NA,NA,NA,NA,NA,happy,"unhappy, happy","less happy, more happy",NA,NA,NA,NA,NA,NA,NA,NA,NA,NA,NA,NA,NA,NA,NA,0,1,1,0,1,NA,NA,NA,NA,NA
MDPRF96542,8E77A499-7BC5-40A1-901C-979ED67498E3,2023-10-30_17h52.50.975,VExplicitOC_RO,2022.2.5,MacIntel,58.82352941,-37.60869565,5.252,2.016,NA,NA,NA,NA,NA,frustrated,"frustrated, not frustrated","more frustrated, less frustrated",NA,NA,NA,NA,NA,NA,NA,NA,NA,NA,NA,NA,NA,NA,NA,0,2,2,1,1,NA,NA,NA,NA,NA
MDPRF96542,8E77A499-7BC5-40A1-901C-979ED67498E3,2023-10-30_17h52.50.975,VExplicitOC_RO,2022.2.5,MacIntel,58.82352941,NA,NA,NA,NA,NA,NA,NA,NA,NA,NA,NA,NA,NA,NA,NA,NA,NA,NA,NA,NA,NA,NA,NA,NA,NA,NA,NA,NA,NA,NA,NA,10,0,10,0,1
MDPRF96542,8E77A499-7BC5-40A1-901C-979ED67498E3,2023-10-30_17h52.50.975,VExplicitOC_RO,2022.2.5,MacIntel,58.82352941,NA,NA,2.001,NA,NA,NA,NA,NA,bored,"bored, not bored","more bored, less bored",NA,NA,NA,NA,NA,NA,NA,NA,NA,NA,NA,NA,NA,NA,NA,0,0,0,2,1,NA,NA,NA,NA,NA
MDPRF96542,8E77A499-7BC5-40A1-901C-979ED67498E3,2023-10-30_17h52.50.975,VExplicitOC_RO,2022.2.5,MacIntel,58.82352941,100,4.401,2.015,NA,NA,NA,NA,NA,frustrated,"frustrated, not frustrated","more frustrated, less frustrated",NA,NA,NA,NA,NA,NA,NA,NA,NA,NA,NA,NA,NA,NA,NA,0,1,1,1,1,NA,NA,NA,NA,NA
MDPRF96542,8E77A499-7BC5-40A1-901C-979ED67498E3,2023-10-30_17h52.50.975,VExplicitOC_RO,2022.2.5,MacIntel,58.82352941,-100,4.788,2,NA,NA,NA,NA,NA,happy,"unhappy, happy","less happy, more happy",NA,NA,NA,NA,NA,NA,NA,NA,NA,NA,NA,NA,NA,NA,NA,0,2,2,0,1,NA,NA,NA,NA,NA
MDPRF96542,8E77A499-7BC5-40A1-901C-979ED67498E3,2023-10-30_17h52.50.975,VExplicitOC_RO,2022.2.5,MacIntel,58.82352941,NA,NA,NA,NA,NA,NA,NA,NA,NA,NA,NA,NA,NA,NA,NA,NA,NA,NA,NA,NA,NA,NA,NA,NA,NA,NA,NA,NA,NA,NA,NA,11,0,11,0,1
MDPRF96542,8E77A499-7BC5-40A1-901C-979ED67498E3,2023-10-30_17h52.50.975,VExplicitOC_RO,2022.2.5,MacIntel,58.82352941,NA,NA,2.008,NA,NA,NA,NA,NA,happy,"unhappy, happy","less happy, more happy",NA,NA,NA,NA,NA,NA,NA,NA,NA,NA,NA,NA,NA,NA,NA,0,0,0,0,1,NA,NA,NA,NA,NA
MDPRF96542,8E77A499-7BC5-40A1-901C-979ED67498E3,2023-10-30_17h52.50.975,VExplicitOC_RO,2022.2.5,MacIntel,58.82352941,NA,NA,2.016,NA,NA,NA,NA,NA,frustrated,"frustrated, not frustrated","more frustrated, less frustrated",NA,NA,NA,NA,NA,NA,NA,NA,NA,NA,NA,NA,NA,NA,NA,0,1,1,1,1,NA,NA,NA,NA,NA
MDPRF96542,8E77A499-7BC5-40A1-901C-979ED67498E3,2023-10-30_17h52.50.975,VExplicitOC_RO,2022.2.5,MacIntel,58.82352941,NA,NA,2.014,NA,NA,NA,NA,NA,bored,"bored, not bored","more bored, less bored",NA,NA,NA,NA,NA,NA,NA,NA,NA,NA,NA,NA,NA,NA,NA,0,2,2,2,1,NA,NA,NA,NA,NA
MDPRF96542,8E77A499-7BC5-40A1-901C-979ED67498E3,2023-10-30_17h52.50.975,VExplicitOC_RO,2022.2.5,MacIntel,58.82352941,NA,NA,NA,NA,NA,NA,NA,NA,NA,NA,NA,NA,NA,NA,NA,NA,NA,NA,NA,NA,NA,NA,NA,NA,NA,NA,NA,NA,NA,NA,NA,12,0,12,0,1
MDPRF96542,8E77A499-7BC5-40A1-901C-979ED67498E3,2023-10-30_17h52.50.975,VExplicitOC_RO,2022.2.5,MacIntel,58.82352941,NA,NA,2.003,NA,NA,NA,NA,NA,bored,"bored, not bored","more bored, less bored",NA,NA,NA,NA,NA,NA,NA,NA,NA,NA,NA,NA,NA,NA,NA,0,0,0,2,1,NA,NA,NA,NA,NA
MDPRF96542,8E77A499-7BC5-40A1-901C-979ED67498E3,2023-10-30_17h52.50.975,VExplicitOC_RO,2022.2.5,MacIntel,58.82352941,NA,NA,2.016,NA,NA,NA,NA,NA,frustrated,"frustrated, not frustrated","more frustrated, less frustrated",NA,NA,NA,NA,NA,NA,NA,NA,NA,NA,NA,NA,NA,NA,NA,0,1,1,1,1,NA,NA,NA,NA,NA
MDPRF96542,8E77A499-7BC5-40A1-901C-979ED67498E3,2023-10-30_17h52.50.975,VExplicitOC_RO,2022.2.5,MacIntel,58.82352941,NA,NA,2.015,NA,NA,NA,NA,NA,happy,"unhappy, happy","less happy, more happy",NA,NA,NA,NA,NA,NA,NA,NA,NA,NA,NA,NA,NA,NA,NA,0,2,2,0,1,NA,NA,NA,NA,NA
MDPRF96542,8E77A499-7BC5-40A1-901C-979ED67498E3,2023-10-30_17h52.50.975,VExplicitOC_RO,2022.2.5,MacIntel,58.82352941,NA,NA,NA,NA,NA,NA,NA,NA,NA,NA,NA,NA,NA,NA,NA,NA,NA,NA,NA,NA,NA,NA,NA,NA,NA,NA,NA,NA,NA,NA,NA,13,0,13,0,1
MDPRF96542,8E77A499-7BC5-40A1-901C-979ED67498E3,2023-10-30_17h52.50.975,VExplicitOC_RO,2022.2.5,MacIntel,58.82352941,71.73913043,5.184,2.001,NA,NA,NA,NA,NA,frustrated,"frustrated, not frustrated","more frustrated, less frustrated",NA,NA,NA,NA,NA,NA,NA,NA,NA,NA,NA,NA,NA,NA,NA,0,0,0,1,1,NA,NA,NA,NA,NA
MDPRF96542,8E77A499-7BC5-40A1-901C-979ED67498E3,2023-10-30_17h52.50.975,VExplicitOC_RO,2022.2.5,MacIntel,58.82352941,-55.86956522,4.873,2.013,NA,NA,NA,NA,NA,bored,"bored, not bored","more bored, less bored",NA,NA,NA,NA,NA,NA,NA,NA,NA,NA,NA,NA,NA,NA,NA,0,1,1,2,1,NA,NA,NA,NA,NA
MDPRF96542,8E77A499-7BC5-40A1-901C-979ED67498E3,2023-10-30_17h52.50.975,VExplicitOC_RO,2022.2.5,MacIntel,58.82352941,67.60869565,4.085,2.014,NA,NA,NA,NA,NA,happy,"unhappy, happy","less happy, more happy",NA,NA,NA,NA,NA,NA,NA,NA,NA,NA,NA,NA,NA,NA,NA,0,2,2,0,1,NA,NA,NA,NA,NA
MDPRF96542,8E77A499-7BC5-40A1-901C-979ED67498E3,2023-10-30_17h52.50.975,VExplicitOC_RO,2022.2.5,MacIntel,58.82352941,NA,NA,NA,NA,NA,NA,NA,NA,NA,NA,NA,NA,NA,NA,NA,NA,NA,NA,NA,NA,NA,NA,NA,NA,NA,NA,NA,NA,NA,NA,NA,14,0,14,0,1
MDPRF96542,8E77A499-7BC5-40A1-901C-979ED67498E3,2023-10-30_17h52.50.975,VExplicitOC_RO,2022.2.5,MacIntel,58.82352941,NA,NA,NA,NA,NA,NA,NA,NA,NA,NA,NA,NA,NA,NA,NA,NA,NA,NA,NA,NA,NA,NA,NA,NA,NA,NA,NA,NA,NA,NA,NA,NA,NA,NA,NA,NA
MDPRF96542,8E77A499-7BC5-40A1-901C-979ED67498E3,2023-10-30_17h52.50.975,VExplicitOC_RO,2022.2.5,MacIntel,58.82352941,NA,NA,NA,NA,NA,NA,NA,NA,NA,NA,NA,NA,NA,NA,NA,NA,NA,NA,NA,NA,NA,NA,NA,NA,NA,NA,NA,NA,NA,NA,NA,NA,NA,NA,NA,NA
