participant,session,completion,date,expName,psychopyVersion,OS,frameRate,rating_all.response,rating_all.rt,rating_all.tStart,rndRat1.thisRepN,rndRat1.thisTrialN,rndRat1.thisN,rndRat1.thisIndex,rndRat1.ran,Emo,Labs,Labs2,rating_alt.response,rating_alt.rt,AltC.thisRepN,AltC.thisTrialN,AltC.thisN,AltC.thisIndex,AltC.ran,alt_choices,pic_choices,TopAlt_Choice,rndRat2.thisRepN,rndRat2.thisTrialN,rndRat2.thisN,rndRat2.thisIndex,rndRat2.ran,rndRat3.thisRepN,rndRat3.thisTrialN,rndRat3.thisN,rndRat3.thisIndex,rndRat3.ran,trials_FC_H.thisRepN,trials_FC_H.thisTrialN,trials_FC_H.thisN,trials_FC_H.thisIndex,trials_FC_H.ran
MDPRF06491,ABCDB07B-5CB8-4AF3-9861-DAF04031560B,NA,2023-10-30_16h12.39.237,VExplicitOC_RO,2022.2.5,Win32,59.99160118,NA,NA,NA,NA,NA,NA,NA,NA,NA,NA,NA,NA,NA,NA,NA,NA,NA,NA,NA,NA,NA,NA,NA,NA,NA,NA,NA,NA,NA,NA,NA,NA,NA,NA,NA,NA
MDPRF06491,ABCDB07B-5CB8-4AF3-9861-DAF04031560B,NA,2023-10-30_16h12.39.237,VExplicitOC_RO,2022.2.5,Win32,59.99160118,NA,NA,NA,NA,NA,NA,NA,NA,NA,NA,NA,NA,NA,NA,NA,NA,NA,NA,NA,NA,NA,NA,NA,NA,NA,NA,NA,NA,NA,NA,NA,NA,NA,NA,NA,NA
MDPRF06491,ABCDB07B-5CB8-4AF3-9861-DAF04031560B,NA,2023-10-30_16h12.39.237,VExplicitOC_RO,2022.2.5,Win32,59.99160118,NA,NA,NA,NA,NA,NA,NA,NA,NA,NA,NA,NA,NA,NA,NA,NA,NA,NA,NA,NA,NA,NA,NA,NA,NA,NA,NA,NA,NA,NA,NA,NA,NA,NA,NA,NA
MDPRF06491,ABCDB07B-5CB8-4AF3-9861-DAF04031560B,NA,2023-10-30_16h12.39.237,VExplicitOC_RO,2022.2.5,Win32,59.99160118,55.37037037,3.1669,2.0147,0,0,0,0,1,happy,"unhappy, happy","less happy, more happy",NA,NA,NA,NA,NA,NA,NA,NA,NA,NA,NA,NA,NA,NA,NA,NA,NA,NA,NA,NA,NA,NA,NA,NA,NA
MDPRF06491,ABCDB07B-5CB8-4AF3-9861-DAF04031560B,NA,2023-10-30_16h12.39.237,VExplicitOC_RO,2022.2.5,Win32,59.99160118,67.59259259,3.7817,2.0018,0,1,1,1,1,frustrated,"frustrated, not frustrated","more frustrated, less frustrated",NA,NA,NA,NA,NA,NA,NA,NA,NA,NA,NA,NA,NA,NA,NA,NA,NA,NA,NA,NA,NA,NA,NA,NA,NA
MDPRF06491,ABCDB07B-5CB8-4AF3-9861-DAF04031560B,NA,2023-10-30_16h12.39.237,VExplicitOC_RO,2022.2.5,Win32,59.99160118,100,4.7141,2.0133,0,2,2,2,1,bored,"bored, not bored","more bored, less bored",NA,NA,NA,NA,NA,NA,NA,NA,NA,NA,NA,NA,NA,NA,NA,NA,NA,NA,NA,NA,NA,NA,NA,NA,NA
MDPRF06491,ABCDB07B-5CB8-4AF3-9861-DAF04031560B,NA,2023-10-30_16h12.39.237,VExplicitOC_RO,2022.2.5,Win32,59.99160118,NA,NA,NA,NA,NA,NA,NA,NA,NA,NA,NA,NA,NA,NA,NA,NA,NA,NA,NA,NA,NA,NA,NA,NA,NA,NA,NA,NA,NA,NA,NA,NA,NA,NA,NA,NA
MDPRF06491,ABCDB07B-5CB8-4AF3-9861-DAF04031560B,NA,2023-10-30_16h12.39.237,VExplicitOC_RO,2022.2.5,Win32,59.99160118,NA,NA,NA,NA,NA,NA,NA,NA,NA,NA,NA,NA,NA,NA,NA,NA,NA,NA,NA,NA,NA,NA,NA,NA,NA,NA,NA,NA,NA,NA,NA,NA,NA,NA,NA,NA
MDPRF06491,ABCDB07B-5CB8-4AF3-9861-DAF04031560B,NA,2023-10-30_16h12.39.237,VExplicitOC_RO,2022.2.5,Win32,59.99160118,NA,NA,NA,NA,NA,NA,NA,NA,NA,NA,NA,NA,NA,NA,NA,NA,NA,NA,NA,NA,NA,NA,NA,NA,NA,NA,NA,NA,NA,NA,NA,NA,NA,NA,NA,NA
MDPRF06491,ABCDB07B-5CB8-4AF3-9861-DAF04031560B,NA,2023-10-30_16h12.39.237,VExplicitOC_RO,2022.2.5,Win32,59.99160118,NA,NA,NA,NA,NA,NA,NA,NA,NA,NA,NA,NA,NA,NA,NA,NA,NA,NA,NA,NA,NA,NA,NA,NA,NA,NA,NA,NA,NA,NA,NA,NA,NA,NA,NA,NA
MDPRF06491,ABCDB07B-5CB8-4AF3-9861-DAF04031560B,NA,2023-10-30_16h12.39.237,VExplicitOC_RO,2022.2.5,Win32,59.99160118,NA,NA,NA,NA,NA,NA,NA,NA,NA,NA,NA,-27.03703704,4.9957,0,0,0,0,1,rest (looking at a fixed cross),001.png,NA,NA,NA,NA,NA,NA,NA,NA,NA,NA,NA,NA,NA,NA,NA,NA
MDPRF06491,ABCDB07B-5CB8-4AF3-9861-DAF04031560B,NA,2023-10-30_16h12.39.237,VExplicitOC_RO,2022.2.5,Win32,59.99160118,NA,NA,NA,NA,NA,NA,NA,NA,NA,NA,NA,34.25925926,3.2184,0,1,1,1,1,stand up,002.png,NA,NA,NA,NA,NA,NA,NA,NA,NA,NA,NA,NA,NA,NA,NA,NA
MDPRF06491,ABCDB07B-5CB8-4AF3-9861-DAF04031560B,NA,2023-10-30_16h12.39.237,VExplicitOC_RO,2022.2.5,Win32,59.99160118,NA,NA,NA,NA,NA,NA,NA,NA,NA,NA,NA,50.37037037,1.6149,0,2,2,2,1,stretch,003.png,NA,NA,NA,NA,NA,NA,NA,NA,NA,NA,NA,NA,NA,NA,NA,NA
MDPRF06491,ABCDB07B-5CB8-4AF3-9861-DAF04031560B,NA,2023-10-30_16h12.39.237,VExplicitOC_RO,2022.2.5,Win32,59.99160118,NA,NA,NA,NA,NA,NA,NA,NA,NA,NA,NA,67.59259259,1.5672,0,3,3,3,1,make a drink,004.png,NA,NA,NA,NA,NA,NA,NA,NA,NA,NA,NA,NA,NA,NA,NA,NA
MDPRF06491,ABCDB07B-5CB8-4AF3-9861-DAF04031560B,NA,2023-10-30_16h12.39.237,VExplicitOC_RO,2022.2.5,Win32,59.99160118,NA,NA,NA,NA,NA,NA,NA,NA,NA,NA,NA,100,2.4549,0,4,4,4,1,scroll social media,005.png,NA,NA,NA,NA,NA,NA,NA,NA,NA,NA,NA,NA,NA,NA,NA,NA
MDPRF06491,ABCDB07B-5CB8-4AF3-9861-DAF04031560B,NA,2023-10-30_16h12.39.237,VExplicitOC_RO,2022.2.5,Win32,59.99160118,NA,NA,NA,NA,NA,NA,NA,NA,NA,NA,NA,100,1.5727,0,5,5,5,1,listen to music,006.png,NA,NA,NA,NA,NA,NA,NA,NA,NA,NA,NA,NA,NA,NA,NA,NA
MDPRF06491,ABCDB07B-5CB8-4AF3-9861-DAF04031560B,NA,2023-10-30_16h12.39.237,VExplicitOC_RO,2022.2.5,Win32,59.99160118,NA,NA,NA,NA,NA,NA,NA,NA,NA,NA,NA,60,1.237,0,6,6,6,1,daydream,007.png,NA,NA,NA,NA,NA,NA,NA,NA,NA,NA,NA,NA,NA,NA,NA,NA
MDPRF06491,ABCDB07B-5CB8-4AF3-9861-DAF04031560B,NA,2023-10-30_16h12.39.237,VExplicitOC_RO,2022.2.5,Win32,59.99160118,NA,NA,NA,NA,NA,NA,NA,NA,NA,NA,NA,-34.44444444,1.0348,0,7,7,7,1,watch a short animation,008.png,NA,NA,NA,NA,NA,NA,NA,NA,NA,NA,NA,NA,NA,NA,NA,NA
MDPRF06491,ABCDB07B-5CB8-4AF3-9861-DAF04031560B,NA,2023-10-30_16h12.39.237,VExplicitOC_RO,2022.2.5,Win32,59.99160118,NA,NA,NA,NA,NA,NA,NA,NA,NA,NA,NA,-36.48148148,2.1446,0,8,8,8,1,read a novel,009.png,NA,NA,NA,NA,NA,NA,NA,NA,NA,NA,NA,NA,NA,NA,NA,NA
MDPRF06491,ABCDB07B-5CB8-4AF3-9861-DAF04031560B,NA,2023-10-30_16h12.39.237,VExplicitOC_RO,2022.2.5,Win32,59.99160118,NA,NA,NA,NA,NA,NA,NA,NA,NA,NA,NA,-100,0.8354,0,9,9,9,1,read the news,010.png,NA,NA,NA,NA,NA,NA,NA,NA,NA,NA,NA,NA,NA,NA,NA,NA
MDPRF06491,ABCDB07B-5CB8-4AF3-9861-DAF04031560B,NA,2023-10-30_16h12.39.237,VExplicitOC_RO,2022.2.5,Win32,59.99160118,NA,NA,NA,NA,NA,NA,NA,NA,NA,NA,NA,NA,NA,NA,NA,NA,NA,NA,NA,NA,NA,NA,NA,NA,NA,NA,NA,NA,NA,NA,NA,NA,NA,NA,NA,NA
MDPRF06491,ABCDB07B-5CB8-4AF3-9861-DAF04031560B,NA,2023-10-30_16h12.39.237,VExplicitOC_RO,2022.2.5,Win32,59.99160118,NA,NA,NA,NA,NA,NA,NA,NA,NA,NA,NA,NA,NA,NA,NA,NA,NA,NA,NA,NA,scroll social media,NA,NA,NA,NA,NA,NA,NA,NA,NA,NA,NA,NA,NA,NA,NA
MDPRF06491,ABCDB07B-5CB8-4AF3-9861-DAF04031560B,NA,2023-10-30_16h12.39.237,VExplicitOC_RO,2022.2.5,Win32,59.99160118,75.18518519,2.8814,2.0042,NA,NA,NA,NA,NA,frustrated,"frustrated, not frustrated","more frustrated, less frustrated",NA,NA,NA,NA,NA,NA,NA,NA,NA,NA,0,0,0,1,1,NA,NA,NA,NA,NA,NA,NA,NA,NA,NA
MDPRF06491,ABCDB07B-5CB8-4AF3-9861-DAF04031560B,NA,2023-10-30_16h12.39.237,VExplicitOC_RO,2022.2.5,Win32,59.99160118,50.55555556,3.9492,2.0163,NA,NA,NA,NA,NA,bored,"bored, not bored","more bored, less bored",NA,NA,NA,NA,NA,NA,NA,NA,NA,NA,0,1,1,2,1,NA,NA,NA,NA,NA,NA,NA,NA,NA,NA
MDPRF06491,ABCDB07B-5CB8-4AF3-9861-DAF04031560B,NA,2023-10-30_16h12.39.237,VExplicitOC_RO,2022.2.5,Win32,59.99160118,50,3.8858,2.0162,NA,NA,NA,NA,NA,happy,"unhappy, happy","less happy, more happy",NA,NA,NA,NA,NA,NA,NA,NA,NA,NA,0,2,2,0,1,NA,NA,NA,NA,NA,NA,NA,NA,NA,NA
MDPRF06491,ABCDB07B-5CB8-4AF3-9861-DAF04031560B,NA,2023-10-30_16h12.39.237,VExplicitOC_RO,2022.2.5,Win32,59.99160118,NA,NA,NA,NA,NA,NA,NA,NA,NA,NA,NA,NA,NA,NA,NA,NA,NA,NA,NA,NA,NA,NA,NA,NA,NA,NA,NA,NA,NA,NA,NA,NA,NA,NA,NA,NA
MDPRF06491,ABCDB07B-5CB8-4AF3-9861-DAF04031560B,NA,2023-10-30_16h12.39.237,VExplicitOC_RO,2022.2.5,Win32,59.99160118,NA,NA,NA,NA,NA,NA,NA,NA,NA,NA,NA,NA,NA,NA,NA,NA,NA,NA,NA,NA,NA,NA,NA,NA,NA,NA,NA,NA,NA,NA,NA,NA,NA,NA,NA,NA
MDPRF06491,ABCDB07B-5CB8-4AF3-9861-DAF04031560B,NA,2023-10-30_16h12.39.237,VExplicitOC_RO,2022.2.5,Win32,59.99160118,26.85185185,4.4366,2.005,NA,NA,NA,NA,NA,happy,"unhappy, happy","less happy, more happy",NA,NA,NA,NA,NA,NA,NA,NA,NA,NA,NA,NA,NA,NA,NA,0,0,0,0,1,NA,NA,NA,NA,NA
MDPRF06491,ABCDB07B-5CB8-4AF3-9861-DAF04031560B,NA,2023-10-30_16h12.39.237,VExplicitOC_RO,2022.2.5,Win32,59.99160118,7.592592593,3.4776,2.0158,NA,NA,NA,NA,NA,bored,"bored, not bored","more bored, less bored",NA,NA,NA,NA,NA,NA,NA,NA,NA,NA,NA,NA,NA,NA,NA,0,1,1,2,1,NA,NA,NA,NA,NA
MDPRF06491,ABCDB07B-5CB8-4AF3-9861-DAF04031560B,NA,2023-10-30_16h12.39.237,VExplicitOC_RO,2022.2.5,Win32,59.99160118,7.592592593,3.3464,2.0162,NA,NA,NA,NA,NA,frustrated,"frustrated, not frustrated","more frustrated, less frustrated",NA,NA,NA,NA,NA,NA,NA,NA,NA,NA,NA,NA,NA,NA,NA,0,2,2,1,1,NA,NA,NA,NA,NA
MDPRF06491,ABCDB07B-5CB8-4AF3-9861-DAF04031560B,NA,2023-10-30_16h12.39.237,VExplicitOC_RO,2022.2.5,Win32,59.99160118,NA,NA,NA,NA,NA,NA,NA,NA,NA,NA,NA,NA,NA,NA,NA,NA,NA,NA,NA,NA,NA,NA,NA,NA,NA,NA,NA,NA,NA,NA,NA,0,0,0,0,1
MDPRF06491,ABCDB07B-5CB8-4AF3-9861-DAF04031560B,NA,2023-10-30_16h12.39.237,VExplicitOC_RO,2022.2.5,Win32,59.99160118,-13.14814815,3.6502,2.0075,NA,NA,NA,NA,NA,bored,"bored, not bored","more bored, less bored",NA,NA,NA,NA,NA,NA,NA,NA,NA,NA,NA,NA,NA,NA,NA,0,0,0,2,1,NA,NA,NA,NA,NA
MDPRF06491,ABCDB07B-5CB8-4AF3-9861-DAF04031560B,NA,2023-10-30_16h12.39.237,VExplicitOC_RO,2022.2.5,Win32,59.99160118,-23.51851852,3.8559,2.0161,NA,NA,NA,NA,NA,happy,"unhappy, happy","less happy, more happy",NA,NA,NA,NA,NA,NA,NA,NA,NA,NA,NA,NA,NA,NA,NA,0,1,1,0,1,NA,NA,NA,NA,NA
MDPRF06491,ABCDB07B-5CB8-4AF3-9861-DAF04031560B,NA,2023-10-30_16h12.39.237,VExplicitOC_RO,2022.2.5,Win32,59.99160118,-23.51851852,4.1523,2.0163,NA,NA,NA,NA,NA,frustrated,"frustrated, not frustrated","more frustrated, less frustrated",NA,NA,NA,NA,NA,NA,NA,NA,NA,NA,NA,NA,NA,NA,NA,0,2,2,1,1,NA,NA,NA,NA,NA
MDPRF06491,ABCDB07B-5CB8-4AF3-9861-DAF04031560B,NA,2023-10-30_16h12.39.237,VExplicitOC_RO,2022.2.5,Win32,59.99160118,NA,NA,NA,NA,NA,NA,NA,NA,NA,NA,NA,NA,NA,NA,NA,NA,NA,NA,NA,NA,NA,NA,NA,NA,NA,NA,NA,NA,NA,NA,NA,1,0,1,0,1
MDPRF06491,ABCDB07B-5CB8-4AF3-9861-DAF04031560B,NA,2023-10-30_16h12.39.237,VExplicitOC_RO,2022.2.5,Win32,59.99160118,NA,NA,2.0062,NA,NA,NA,NA,NA,happy,"unhappy, happy","less happy, more happy",NA,NA,NA,NA,NA,NA,NA,NA,NA,NA,NA,NA,NA,NA,NA,0,0,0,0,1,NA,NA,NA,NA,NA
MDPRF06491,ABCDB07B-5CB8-4AF3-9861-DAF04031560B,NA,2023-10-30_16h12.39.237,VExplicitOC_RO,2022.2.5,Win32,59.99160118,-43.51851852,2.6017,2.014,NA,NA,NA,NA,NA,frustrated,"frustrated, not frustrated","more frustrated, less frustrated",NA,NA,NA,NA,NA,NA,NA,NA,NA,NA,NA,NA,NA,NA,NA,0,1,1,1,1,NA,NA,NA,NA,NA
MDPRF06491,ABCDB07B-5CB8-4AF3-9861-DAF04031560B,NA,2023-10-30_16h12.39.237,VExplicitOC_RO,2022.2.5,Win32,59.99160118,-43.51851852,2.4911,2.0093,NA,NA,NA,NA,NA,bored,"bored, not bored","more bored, less bored",NA,NA,NA,NA,NA,NA,NA,NA,NA,NA,NA,NA,NA,NA,NA,0,2,2,2,1,NA,NA,NA,NA,NA
MDPRF06491,ABCDB07B-5CB8-4AF3-9861-DAF04031560B,NA,2023-10-30_16h12.39.237,VExplicitOC_RO,2022.2.5,Win32,59.99160118,NA,NA,NA,NA,NA,NA,NA,NA,NA,NA,NA,NA,NA,NA,NA,NA,NA,NA,NA,NA,NA,NA,NA,NA,NA,NA,NA,NA,NA,NA,NA,2,0,2,0,1
MDPRF06491,ABCDB07B-5CB8-4AF3-9861-DAF04031560B,NA,2023-10-30_16h12.39.237,VExplicitOC_RO,2022.2.5,Win32,59.99160118,-66.48148148,2.9966,2.0086,NA,NA,NA,NA,NA,happy,"unhappy, happy","less happy, more happy",NA,NA,NA,NA,NA,NA,NA,NA,NA,NA,NA,NA,NA,NA,NA,0,0,0,0,1,NA,NA,NA,NA,NA
MDPRF06491,ABCDB07B-5CB8-4AF3-9861-DAF04031560B,NA,2023-10-30_16h12.39.237,VExplicitOC_RO,2022.2.5,Win32,59.99160118,-66.48148148,2.5561,2.0161,NA,NA,NA,NA,NA,bored,"bored, not bored","more bored, less bored",NA,NA,NA,NA,NA,NA,NA,NA,NA,NA,NA,NA,NA,NA,NA,0,1,1,2,1,NA,NA,NA,NA,NA
MDPRF06491,ABCDB07B-5CB8-4AF3-9861-DAF04031560B,NA,2023-10-30_16h12.39.237,VExplicitOC_RO,2022.2.5,Win32,59.99160118,-66.48148148,2.4125,2.0164,NA,NA,NA,NA,NA,frustrated,"frustrated, not frustrated","more frustrated, less frustrated",NA,NA,NA,NA,NA,NA,NA,NA,NA,NA,NA,NA,NA,NA,NA,0,2,2,1,1,NA,NA,NA,NA,NA
MDPRF06491,ABCDB07B-5CB8-4AF3-9861-DAF04031560B,NA,2023-10-30_16h12.39.237,VExplicitOC_RO,2022.2.5,Win32,59.99160118,NA,NA,NA,NA,NA,NA,NA,NA,NA,NA,NA,NA,NA,NA,NA,NA,NA,NA,NA,NA,NA,NA,NA,NA,NA,NA,NA,NA,NA,NA,NA,3,0,3,0,1
MDPRF06491,ABCDB07B-5CB8-4AF3-9861-DAF04031560B,NA,2023-10-30_16h12.39.237,VExplicitOC_RO,2022.2.5,Win32,59.99160118,-84.25925926,4.5312,2.0084,NA,NA,NA,NA,NA,happy,"unhappy, happy","less happy, more happy",NA,NA,NA,NA,NA,NA,NA,NA,NA,NA,NA,NA,NA,NA,NA,0,0,0,0,1,NA,NA,NA,NA,NA
MDPRF06491,ABCDB07B-5CB8-4AF3-9861-DAF04031560B,NA,2023-10-30_16h12.39.237,VExplicitOC_RO,2022.2.5,Win32,59.99160118,-84.25925926,2.5527,2.0161,NA,NA,NA,NA,NA,bored,"bored, not bored","more bored, less bored",NA,NA,NA,NA,NA,NA,NA,NA,NA,NA,NA,NA,NA,NA,NA,0,1,1,2,1,NA,NA,NA,NA,NA
MDPRF06491,ABCDB07B-5CB8-4AF3-9861-DAF04031560B,NA,2023-10-30_16h12.39.237,VExplicitOC_RO,2022.2.5,Win32,59.99160118,-84.25925926,2.4633,2.0164,NA,NA,NA,NA,NA,frustrated,"frustrated, not frustrated","more frustrated, less frustrated",NA,NA,NA,NA,NA,NA,NA,NA,NA,NA,NA,NA,NA,NA,NA,0,2,2,1,1,NA,NA,NA,NA,NA
MDPRF06491,ABCDB07B-5CB8-4AF3-9861-DAF04031560B,NA,2023-10-30_16h12.39.237,VExplicitOC_RO,2022.2.5,Win32,59.99160118,NA,NA,NA,NA,NA,NA,NA,NA,NA,NA,NA,NA,NA,NA,NA,NA,NA,NA,NA,NA,NA,NA,NA,NA,NA,NA,NA,NA,NA,NA,NA,4,0,4,0,1
MDPRF06491,ABCDB07B-5CB8-4AF3-9861-DAF04031560B,NA,2023-10-30_16h12.39.237,VExplicitOC_RO,2022.2.5,Win32,59.99160118,-88.14814815,3.5082,2.0066,NA,NA,NA,NA,NA,happy,"unhappy, happy","less happy, more happy",NA,NA,NA,NA,NA,NA,NA,NA,NA,NA,NA,NA,NA,NA,NA,0,0,0,0,1,NA,NA,NA,NA,NA
MDPRF06491,ABCDB07B-5CB8-4AF3-9861-DAF04031560B,NA,2023-10-30_16h12.39.237,VExplicitOC_RO,2022.2.5,Win32,59.99160118,-88.14814815,2.4219,2.0162,NA,NA,NA,NA,NA,bored,"bored, not bored","more bored, less bored",NA,NA,NA,NA,NA,NA,NA,NA,NA,NA,NA,NA,NA,NA,NA,0,1,1,2,1,NA,NA,NA,NA,NA
MDPRF06491,ABCDB07B-5CB8-4AF3-9861-DAF04031560B,NA,2023-10-30_16h12.39.237,VExplicitOC_RO,2022.2.5,Win32,59.99160118,-88.14814815,2.4042,2.0161,NA,NA,NA,NA,NA,frustrated,"frustrated, not frustrated","more frustrated, less frustrated",NA,NA,NA,NA,NA,NA,NA,NA,NA,NA,NA,NA,NA,NA,NA,0,2,2,1,1,NA,NA,NA,NA,NA
MDPRF06491,ABCDB07B-5CB8-4AF3-9861-DAF04031560B,NA,2023-10-30_16h12.39.237,VExplicitOC_RO,2022.2.5,Win32,59.99160118,NA,NA,NA,NA,NA,NA,NA,NA,NA,NA,NA,NA,NA,NA,NA,NA,NA,NA,NA,NA,NA,NA,NA,NA,NA,NA,NA,NA,NA,NA,NA,5,0,5,0,1
MDPRF06491,ABCDB07B-5CB8-4AF3-9861-DAF04031560B,NA,2023-10-30_16h12.39.237,VExplicitOC_RO,2022.2.5,Win32,59.99160118,-91.11111111,3.315,2.0081,NA,NA,NA,NA,NA,frustrated,"frustrated, not frustrated","more frustrated, less frustrated",NA,NA,NA,NA,NA,NA,NA,NA,NA,NA,NA,NA,NA,NA,NA,0,0,0,1,1,NA,NA,NA,NA,NA
MDPRF06491,ABCDB07B-5CB8-4AF3-9861-DAF04031560B,NA,2023-10-30_16h12.39.237,VExplicitOC_RO,2022.2.5,Win32,59.99160118,-93.88888889,2.7415,2.0162,NA,NA,NA,NA,NA,happy,"unhappy, happy","less happy, more happy",NA,NA,NA,NA,NA,NA,NA,NA,NA,NA,NA,NA,NA,NA,NA,0,1,1,0,1,NA,NA,NA,NA,NA
MDPRF06491,ABCDB07B-5CB8-4AF3-9861-DAF04031560B,NA,2023-10-30_16h12.39.237,VExplicitOC_RO,2022.2.5,Win32,59.99160118,-93.88888889,2.6521,2.0162,NA,NA,NA,NA,NA,bored,"bored, not bored","more bored, less bored",NA,NA,NA,NA,NA,NA,NA,NA,NA,NA,NA,NA,NA,NA,NA,0,2,2,2,1,NA,NA,NA,NA,NA
MDPRF06491,ABCDB07B-5CB8-4AF3-9861-DAF04031560B,NA,2023-10-30_16h12.39.237,VExplicitOC_RO,2022.2.5,Win32,59.99160118,NA,NA,NA,NA,NA,NA,NA,NA,NA,NA,NA,NA,NA,NA,NA,NA,NA,NA,NA,NA,NA,NA,NA,NA,NA,NA,NA,NA,NA,NA,NA,6,0,6,0,1
MDPRF06491,ABCDB07B-5CB8-4AF3-9861-DAF04031560B,NA,2023-10-30_16h12.39.237,VExplicitOC_RO,2022.2.5,Win32,59.99160118,-100,2.6343,2.0068,NA,NA,NA,NA,NA,happy,"unhappy, happy","less happy, more happy",NA,NA,NA,NA,NA,NA,NA,NA,NA,NA,NA,NA,NA,NA,NA,0,0,0,0,1,NA,NA,NA,NA,NA
MDPRF06491,ABCDB07B-5CB8-4AF3-9861-DAF04031560B,NA,2023-10-30_16h12.39.237,VExplicitOC_RO,2022.2.5,Win32,59.99160118,-100,2.7868,2.0164,NA,NA,NA,NA,NA,frustrated,"frustrated, not frustrated","more frustrated, less frustrated",NA,NA,NA,NA,NA,NA,NA,NA,NA,NA,NA,NA,NA,NA,NA,0,1,1,1,1,NA,NA,NA,NA,NA
MDPRF06491,ABCDB07B-5CB8-4AF3-9861-DAF04031560B,NA,2023-10-30_16h12.39.237,VExplicitOC_RO,2022.2.5,Win32,59.99160118,-100,3.8679,2.0161,NA,NA,NA,NA,NA,bored,"bored, not bored","more bored, less bored",NA,NA,NA,NA,NA,NA,NA,NA,NA,NA,NA,NA,NA,NA,NA,0,2,2,2,1,NA,NA,NA,NA,NA
MDPRF06491,ABCDB07B-5CB8-4AF3-9861-DAF04031560B,NA,2023-10-30_16h12.39.237,VExplicitOC_RO,2022.2.5,Win32,59.99160118,NA,NA,NA,NA,NA,NA,NA,NA,NA,NA,NA,NA,NA,NA,NA,NA,NA,NA,NA,NA,NA,NA,NA,NA,NA,NA,NA,NA,NA,NA,NA,7,0,7,0,1
MDPRF06491,ABCDB07B-5CB8-4AF3-9861-DAF04031560B,NA,2023-10-30_16h12.39.237,VExplicitOC_RO,2022.2.5,Win32,59.99160118,-100,4.7604,2.009,NA,NA,NA,NA,NA,frustrated,"frustrated, not frustrated","more frustrated, less frustrated",NA,NA,NA,NA,NA,NA,NA,NA,NA,NA,NA,NA,NA,NA,NA,0,0,0,1,1,NA,NA,NA,NA,NA
MDPRF06491,ABCDB07B-5CB8-4AF3-9861-DAF04031560B,NA,2023-10-30_16h12.39.237,VExplicitOC_RO,2022.2.5,Win32,59.99160118,-100,3.0068,2.0163,NA,NA,NA,NA,NA,bored,"bored, not bored","more bored, less bored",NA,NA,NA,NA,NA,NA,NA,NA,NA,NA,NA,NA,NA,NA,NA,0,1,1,2,1,NA,NA,NA,NA,NA
MDPRF06491,ABCDB07B-5CB8-4AF3-9861-DAF04031560B,NA,2023-10-30_16h12.39.237,VExplicitOC_RO,2022.2.5,Win32,59.99160118,-100,2.702,2.016,NA,NA,NA,NA,NA,happy,"unhappy, happy","less happy, more happy",NA,NA,NA,NA,NA,NA,NA,NA,NA,NA,NA,NA,NA,NA,NA,0,2,2,0,1,NA,NA,NA,NA,NA
MDPRF06491,ABCDB07B-5CB8-4AF3-9861-DAF04031560B,NA,2023-10-30_16h12.39.237,VExplicitOC_RO,2022.2.5,Win32,59.99160118,NA,NA,NA,NA,NA,NA,NA,NA,NA,NA,NA,NA,NA,NA,NA,NA,NA,NA,NA,NA,NA,NA,NA,NA,NA,NA,NA,NA,NA,NA,NA,8,0,8,0,1
MDPRF06491,ABCDB07B-5CB8-4AF3-9861-DAF04031560B,NA,2023-10-30_16h12.39.237,VExplicitOC_RO,2022.2.5,Win32,59.99160118,-100,3.5296,2.0093,NA,NA,NA,NA,NA,happy,"unhappy, happy","less happy, more happy",NA,NA,NA,NA,NA,NA,NA,NA,NA,NA,NA,NA,NA,NA,NA,0,0,0,0,1,NA,NA,NA,NA,NA
MDPRF06491,ABCDB07B-5CB8-4AF3-9861-DAF04031560B,NA,2023-10-30_16h12.39.237,VExplicitOC_RO,2022.2.5,Win32,59.99160118,-70.55555556,2.8176,2.0163,NA,NA,NA,NA,NA,frustrated,"frustrated, not frustrated","more frustrated, less frustrated",NA,NA,NA,NA,NA,NA,NA,NA,NA,NA,NA,NA,NA,NA,NA,0,1,1,1,1,NA,NA,NA,NA,NA
MDPRF06491,ABCDB07B-5CB8-4AF3-9861-DAF04031560B,NA,2023-10-30_16h12.39.237,VExplicitOC_RO,2022.2.5,Win32,59.99160118,-100,3.0143,2.0131,NA,NA,NA,NA,NA,bored,"bored, not bored","more bored, less bored",NA,NA,NA,NA,NA,NA,NA,NA,NA,NA,NA,NA,NA,NA,NA,0,2,2,2,1,NA,NA,NA,NA,NA
MDPRF06491,ABCDB07B-5CB8-4AF3-9861-DAF04031560B,NA,2023-10-30_16h12.39.237,VExplicitOC_RO,2022.2.5,Win32,59.99160118,NA,NA,NA,NA,NA,NA,NA,NA,NA,NA,NA,NA,NA,NA,NA,NA,NA,NA,NA,NA,NA,NA,NA,NA,NA,NA,NA,NA,NA,NA,NA,9,0,9,0,1
MDPRF06491,ABCDB07B-5CB8-4AF3-9861-DAF04031560B,NA,2023-10-30_16h12.39.237,VExplicitOC_RO,2022.2.5,Win32,59.99160118,-100,3.0949,2.0078,NA,NA,NA,NA,NA,happy,"unhappy, happy","less happy, more happy",NA,NA,NA,NA,NA,NA,NA,NA,NA,NA,NA,NA,NA,NA,NA,0,0,0,0,1,NA,NA,NA,NA,NA
MDPRF06491,ABCDB07B-5CB8-4AF3-9861-DAF04031560B,NA,2023-10-30_16h12.39.237,VExplicitOC_RO,2022.2.5,Win32,59.99160118,-100,2.9523,2.0162,NA,NA,NA,NA,NA,bored,"bored, not bored","more bored, less bored",NA,NA,NA,NA,NA,NA,NA,NA,NA,NA,NA,NA,NA,NA,NA,0,1,1,2,1,NA,NA,NA,NA,NA
MDPRF06491,ABCDB07B-5CB8-4AF3-9861-DAF04031560B,NA,2023-10-30_16h12.39.237,VExplicitOC_RO,2022.2.5,Win32,59.99160118,-100,3.6408,2.0116,NA,NA,NA,NA,NA,frustrated,"frustrated, not frustrated","more frustrated, less frustrated",NA,NA,NA,NA,NA,NA,NA,NA,NA,NA,NA,NA,NA,NA,NA,0,2,2,1,1,NA,NA,NA,NA,NA
MDPRF06491,ABCDB07B-5CB8-4AF3-9861-DAF04031560B,NA,2023-10-30_16h12.39.237,VExplicitOC_RO,2022.2.5,Win32,59.99160118,NA,NA,NA,NA,NA,NA,NA,NA,NA,NA,NA,NA,NA,NA,NA,NA,NA,NA,NA,NA,NA,NA,NA,NA,NA,NA,NA,NA,NA,NA,NA,10,0,10,0,1
MDPRF06491,ABCDB07B-5CB8-4AF3-9861-DAF04031560B,NA,2023-10-30_16h12.39.237,VExplicitOC_RO,2022.2.5,Win32,59.99160118,-100,3.1702,2.0085,NA,NA,NA,NA,NA,happy,"unhappy, happy","less happy, more happy",NA,NA,NA,NA,NA,NA,NA,NA,NA,NA,NA,NA,NA,NA,NA,0,0,0,0,1,NA,NA,NA,NA,NA
MDPRF06491,ABCDB07B-5CB8-4AF3-9861-DAF04031560B,NA,2023-10-30_16h12.39.237,VExplicitOC_RO,2022.2.5,Win32,59.99160118,-100,2.715,2.0163,NA,NA,NA,NA,NA,bored,"bored, not bored","more bored, less bored",NA,NA,NA,NA,NA,NA,NA,NA,NA,NA,NA,NA,NA,NA,NA,0,1,1,2,1,NA,NA,NA,NA,NA
MDPRF06491,ABCDB07B-5CB8-4AF3-9861-DAF04031560B,NA,2023-10-30_16h12.39.237,VExplicitOC_RO,2022.2.5,Win32,59.99160118,-100,2.718,2.0157,NA,NA,NA,NA,NA,frustrated,"frustrated, not frustrated","more frustrated, less frustrated",NA,NA,NA,NA,NA,NA,NA,NA,NA,NA,NA,NA,NA,NA,NA,0,2,2,1,1,NA,NA,NA,NA,NA
MDPRF06491,ABCDB07B-5CB8-4AF3-9861-DAF04031560B,NA,2023-10-30_16h12.39.237,VExplicitOC_RO,2022.2.5,Win32,59.99160118,NA,NA,NA,NA,NA,NA,NA,NA,NA,NA,NA,NA,NA,NA,NA,NA,NA,NA,NA,NA,NA,NA,NA,NA,NA,NA,NA,NA,NA,NA,NA,11,0,11,0,1
MDPRF06491,ABCDB07B-5CB8-4AF3-9861-DAF04031560B,NA,2023-10-30_16h12.39.237,VExplicitOC_RO,2022.2.5,Win32,59.99160118,-100,2.773,2.0053,NA,NA,NA,NA,NA,bored,"bored, not bored","more bored, less bored",NA,NA,NA,NA,NA,NA,NA,NA,NA,NA,NA,NA,NA,NA,NA,0,0,0,2,1,NA,NA,NA,NA,NA
MDPRF06491,ABCDB07B-5CB8-4AF3-9861-DAF04031560B,NA,2023-10-30_16h12.39.237,VExplicitOC_RO,2022.2.5,Win32,59.99160118,-100,2.8399,2.016,NA,NA,NA,NA,NA,frustrated,"frustrated, not frustrated","more frustrated, less frustrated",NA,NA,NA,NA,NA,NA,NA,NA,NA,NA,NA,NA,NA,NA,NA,0,1,1,1,1,NA,NA,NA,NA,NA
MDPRF06491,ABCDB07B-5CB8-4AF3-9861-DAF04031560B,NA,2023-10-30_16h12.39.237,VExplicitOC_RO,2022.2.5,Win32,59.99160118,-100,2.5838,2.0162,NA,NA,NA,NA,NA,happy,"unhappy, happy","less happy, more happy",NA,NA,NA,NA,NA,NA,NA,NA,NA,NA,NA,NA,NA,NA,NA,0,2,2,0,1,NA,NA,NA,NA,NA
MDPRF06491,ABCDB07B-5CB8-4AF3-9861-DAF04031560B,NA,2023-10-30_16h12.39.237,VExplicitOC_RO,2022.2.5,Win32,59.99160118,NA,NA,NA,NA,NA,NA,NA,NA,NA,NA,NA,NA,NA,NA,NA,NA,NA,NA,NA,NA,NA,NA,NA,NA,NA,NA,NA,NA,NA,NA,NA,12,0,12,0,1
MDPRF06491,ABCDB07B-5CB8-4AF3-9861-DAF04031560B,NA,2023-10-30_16h12.39.237,VExplicitOC_RO,2022.2.5,Win32,59.99160118,-100,4.1475,2.0075,NA,NA,NA,NA,NA,frustrated,"frustrated, not frustrated","more frustrated, less frustrated",NA,NA,NA,NA,NA,NA,NA,NA,NA,NA,NA,NA,NA,NA,NA,0,0,0,1,1,NA,NA,NA,NA,NA
MDPRF06491,ABCDB07B-5CB8-4AF3-9861-DAF04031560B,NA,2023-10-30_16h12.39.237,VExplicitOC_RO,2022.2.5,Win32,59.99160118,-100,2.9901,2.0161,NA,NA,NA,NA,NA,happy,"unhappy, happy","less happy, more happy",NA,NA,NA,NA,NA,NA,NA,NA,NA,NA,NA,NA,NA,NA,NA,0,1,1,0,1,NA,NA,NA,NA,NA
MDPRF06491,ABCDB07B-5CB8-4AF3-9861-DAF04031560B,NA,2023-10-30_16h12.39.237,VExplicitOC_RO,2022.2.5,Win32,59.99160118,-100,3.3019,2.0158,NA,NA,NA,NA,NA,bored,"bored, not bored","more bored, less bored",NA,NA,NA,NA,NA,NA,NA,NA,NA,NA,NA,NA,NA,NA,NA,0,2,2,2,1,NA,NA,NA,NA,NA
MDPRF06491,ABCDB07B-5CB8-4AF3-9861-DAF04031560B,NA,2023-10-30_16h12.39.237,VExplicitOC_RO,2022.2.5,Win32,59.99160118,NA,NA,NA,NA,NA,NA,NA,NA,NA,NA,NA,NA,NA,NA,NA,NA,NA,NA,NA,NA,NA,NA,NA,NA,NA,NA,NA,NA,NA,NA,NA,13,0,13,0,1
MDPRF06491,ABCDB07B-5CB8-4AF3-9861-DAF04031560B,NA,2023-10-30_16h12.39.237,VExplicitOC_RO,2022.2.5,Win32,59.99160118,-100,3.5937,2.0094,NA,NA,NA,NA,NA,happy,"unhappy, happy","less happy, more happy",NA,NA,NA,NA,NA,NA,NA,NA,NA,NA,NA,NA,NA,NA,NA,0,0,0,0,1,NA,NA,NA,NA,NA
MDPRF06491,ABCDB07B-5CB8-4AF3-9861-DAF04031560B,NA,2023-10-30_16h12.39.237,VExplicitOC_RO,2022.2.5,Win32,59.99160118,-100,3.201,2.0159,NA,NA,NA,NA,NA,bored,"bored, not bored","more bored, less bored",NA,NA,NA,NA,NA,NA,NA,NA,NA,NA,NA,NA,NA,NA,NA,0,1,1,2,1,NA,NA,NA,NA,NA
MDPRF06491,ABCDB07B-5CB8-4AF3-9861-DAF04031560B,NA,2023-10-30_16h12.39.237,VExplicitOC_RO,2022.2.5,Win32,59.99160118,-100,3.0872,2.0001,NA,NA,NA,NA,NA,frustrated,"frustrated, not frustrated","more frustrated, less frustrated",NA,NA,NA,NA,NA,NA,NA,NA,NA,NA,NA,NA,NA,NA,NA,0,2,2,1,1,NA,NA,NA,NA,NA
MDPRF06491,ABCDB07B-5CB8-4AF3-9861-DAF04031560B,NA,2023-10-30_16h12.39.237,VExplicitOC_RO,2022.2.5,Win32,59.99160118,NA,NA,NA,NA,NA,NA,NA,NA,NA,NA,NA,NA,NA,NA,NA,NA,NA,NA,NA,NA,NA,NA,NA,NA,NA,NA,NA,NA,NA,NA,NA,14,0,14,0,1
MDPRF06491,ABCDB07B-5CB8-4AF3-9861-DAF04031560B,NA,2023-10-30_16h12.39.237,VExplicitOC_RO,2022.2.5,Win32,59.99160118,NA,NA,NA,NA,NA,NA,NA,NA,NA,NA,NA,NA,NA,NA,NA,NA,NA,NA,NA,NA,NA,NA,NA,NA,NA,NA,NA,NA,NA,NA,NA,NA,NA,NA,NA,NA
MDPRF06491,ABCDB07B-5CB8-4AF3-9861-DAF04031560B,NA,2023-10-30_16h12.39.237,VExplicitOC_RO,2022.2.5,Win32,59.99160118,NA,NA,NA,NA,NA,NA,NA,NA,NA,NA,NA,NA,NA,NA,NA,NA,NA,NA,NA,NA,NA,NA,NA,NA,NA,NA,NA,NA,NA,NA,NA,NA,NA,NA,NA,NA
