participant,session,date,expName,psychopyVersion,OS,frameRate,rating_all.response,rating_all.rt,rating_all.tStart,rndRat1.thisRepN,rndRat1.thisTrialN,rndRat1.thisN,rndRat1.thisIndex,rndRat1.ran,Emo,Labs,Labs2,rating_alt.response,rating_alt.rt,AltC.thisRepN,AltC.thisTrialN,AltC.thisN,AltC.thisIndex,AltC.ran,alt_choices,pic_choices,TopAlt_Choice,rndRat2.thisRepN,rndRat2.thisTrialN,rndRat2.thisN,rndRat2.thisIndex,rndRat2.ran,rndRat3.thisRepN,rndRat3.thisTrialN,rndRat3.thisN,rndRat3.thisIndex,rndRat3.ran,trials_FC_H.thisRepN,trials_FC_H.thisTrialN,trials_FC_H.thisN,trials_FC_H.thisIndex,trials_FC_H.ran
MDPRF89971,BF37A8C1-B44A-4EEC-BB51-16C5F2E510AD,2023-10-30_14h59.50.358,VExplicitOC_RO,2022.2.5,Win32,59.80145916,NA,NA,NA,NA,NA,NA,NA,NA,NA,NA,NA,NA,NA,NA,NA,NA,NA,NA,NA,NA,NA,NA,NA,NA,NA,NA,NA,NA,NA,NA,NA,NA,NA,NA,NA,NA
MDPRF89971,BF37A8C1-B44A-4EEC-BB51-16C5F2E510AD,2023-10-30_14h59.50.358,VExplicitOC_RO,2022.2.5,Win32,59.80145916,NA,NA,NA,NA,NA,NA,NA,NA,NA,NA,NA,NA,NA,NA,NA,NA,NA,NA,NA,NA,NA,NA,NA,NA,NA,NA,NA,NA,NA,NA,NA,NA,NA,NA,NA,NA
MDPRF89971,BF37A8C1-B44A-4EEC-BB51-16C5F2E510AD,2023-10-30_14h59.50.358,VExplicitOC_RO,2022.2.5,Win32,59.80145916,NA,NA,NA,NA,NA,NA,NA,NA,NA,NA,NA,NA,NA,NA,NA,NA,NA,NA,NA,NA,NA,NA,NA,NA,NA,NA,NA,NA,NA,NA,NA,NA,NA,NA,NA,NA
MDPRF89971,BF37A8C1-B44A-4EEC-BB51-16C5F2E510AD,2023-10-30_14h59.50.358,VExplicitOC_RO,2022.2.5,Win32,59.80145916,52.90795095,4.7749,2.0016,0,0,0,2,1,bored,"bored, not bored","more bored, less bored",NA,NA,NA,NA,NA,NA,NA,NA,NA,NA,NA,NA,NA,NA,NA,NA,NA,NA,NA,NA,NA,NA,NA,NA,NA
MDPRF89971,BF37A8C1-B44A-4EEC-BB51-16C5F2E510AD,2023-10-30_14h59.50.358,VExplicitOC_RO,2022.2.5,Win32,59.80145916,NA,NA,2.0151,0,1,1,1,1,frustrated,"frustrated, not frustrated","more frustrated, less frustrated",NA,NA,NA,NA,NA,NA,NA,NA,NA,NA,NA,NA,NA,NA,NA,NA,NA,NA,NA,NA,NA,NA,NA,NA,NA
MDPRF89971,BF37A8C1-B44A-4EEC-BB51-16C5F2E510AD,2023-10-30_14h59.50.358,VExplicitOC_RO,2022.2.5,Win32,59.80145916,78.29845425,6.1649,2.0146,0,2,2,0,1,happy,"unhappy, happy","less happy, more happy",NA,NA,NA,NA,NA,NA,NA,NA,NA,NA,NA,NA,NA,NA,NA,NA,NA,NA,NA,NA,NA,NA,NA,NA,NA
MDPRF89971,BF37A8C1-B44A-4EEC-BB51-16C5F2E510AD,2023-10-30_14h59.50.358,VExplicitOC_RO,2022.2.5,Win32,59.80145916,NA,NA,NA,NA,NA,NA,NA,NA,NA,NA,NA,NA,NA,NA,NA,NA,NA,NA,NA,NA,NA,NA,NA,NA,NA,NA,NA,NA,NA,NA,NA,NA,NA,NA,NA,NA
MDPRF89971,BF37A8C1-B44A-4EEC-BB51-16C5F2E510AD,2023-10-30_14h59.50.358,VExplicitOC_RO,2022.2.5,Win32,59.80145916,NA,NA,NA,NA,NA,NA,NA,NA,NA,NA,NA,NA,NA,NA,NA,NA,NA,NA,NA,NA,NA,NA,NA,NA,NA,NA,NA,NA,NA,NA,NA,NA,NA,NA,NA,NA
MDPRF89971,BF37A8C1-B44A-4EEC-BB51-16C5F2E510AD,2023-10-30_14h59.50.358,VExplicitOC_RO,2022.2.5,Win32,59.80145916,NA,NA,NA,NA,NA,NA,NA,NA,NA,NA,NA,NA,NA,NA,NA,NA,NA,NA,NA,NA,NA,NA,NA,NA,NA,NA,NA,NA,NA,NA,NA,NA,NA,NA,NA,NA
MDPRF89971,BF37A8C1-B44A-4EEC-BB51-16C5F2E510AD,2023-10-30_14h59.50.358,VExplicitOC_RO,2022.2.5,Win32,59.80145916,NA,NA,NA,NA,NA,NA,NA,NA,NA,NA,NA,NA,NA,NA,NA,NA,NA,NA,NA,NA,NA,NA,NA,NA,NA,NA,NA,NA,NA,NA,NA,NA,NA,NA,NA,NA
MDPRF89971,BF37A8C1-B44A-4EEC-BB51-16C5F2E510AD,2023-10-30_14h59.50.358,VExplicitOC_RO,2022.2.5,Win32,59.80145916,NA,NA,NA,NA,NA,NA,NA,NA,NA,NA,NA,-79.89365035,6.6463,0,0,0,0,1,rest (looking at a fixed cross),001.png,NA,NA,NA,NA,NA,NA,NA,NA,NA,NA,NA,NA,NA,NA,NA,NA
MDPRF89971,BF37A8C1-B44A-4EEC-BB51-16C5F2E510AD,2023-10-30_14h59.50.358,VExplicitOC_RO,2022.2.5,Win32,59.80145916,NA,NA,NA,NA,NA,NA,NA,NA,NA,NA,NA,-57.02891326,5.3014,0,1,1,1,1,stand up,002.png,NA,NA,NA,NA,NA,NA,NA,NA,NA,NA,NA,NA,NA,NA,NA,NA
MDPRF89971,BF37A8C1-B44A-4EEC-BB51-16C5F2E510AD,2023-10-30_14h59.50.358,VExplicitOC_RO,2022.2.5,Win32,59.80145916,NA,NA,NA,NA,NA,NA,NA,NA,NA,NA,NA,-32.17015214,2.139,0,2,2,2,1,stretch,003.png,NA,NA,NA,NA,NA,NA,NA,NA,NA,NA,NA,NA,NA,NA,NA,NA
MDPRF89971,BF37A8C1-B44A-4EEC-BB51-16C5F2E510AD,2023-10-30_14h59.50.358,VExplicitOC_RO,2022.2.5,Win32,59.80145916,NA,NA,NA,NA,NA,NA,NA,NA,NA,NA,NA,-91.59188694,2.5689,0,3,3,3,1,make a drink,004.png,NA,NA,NA,NA,NA,NA,NA,NA,NA,NA,NA,NA,NA,NA,NA,NA
MDPRF89971,BF37A8C1-B44A-4EEC-BB51-16C5F2E510AD,2023-10-30_14h59.50.358,VExplicitOC_RO,2022.2.5,Win32,59.80145916,NA,NA,NA,NA,NA,NA,NA,NA,NA,NA,NA,67.39780658,1.833,0,4,4,4,1,scroll social media,005.png,NA,NA,NA,NA,NA,NA,NA,NA,NA,NA,NA,NA,NA,NA,NA,NA
MDPRF89971,BF37A8C1-B44A-4EEC-BB51-16C5F2E510AD,2023-10-30_14h59.50.358,VExplicitOC_RO,2022.2.5,Win32,59.80145916,NA,NA,NA,NA,NA,NA,NA,NA,NA,NA,NA,67.39780658,2.2382,0,5,5,5,1,listen to music,006.png,NA,NA,NA,NA,NA,NA,NA,NA,NA,NA,NA,NA,NA,NA,NA,NA
MDPRF89971,BF37A8C1-B44A-4EEC-BB51-16C5F2E510AD,2023-10-30_14h59.50.358,VExplicitOC_RO,2022.2.5,Win32,59.80145916,NA,NA,NA,NA,NA,NA,NA,NA,NA,NA,NA,53.04087737,2.4072,0,6,6,6,1,daydream,007.png,NA,NA,NA,NA,NA,NA,NA,NA,NA,NA,NA,NA,NA,NA,NA,NA
MDPRF89971,BF37A8C1-B44A-4EEC-BB51-16C5F2E510AD,2023-10-30_14h59.50.358,VExplicitOC_RO,2022.2.5,Win32,59.80145916,NA,NA,NA,NA,NA,NA,NA,NA,NA,NA,NA,-2.924551541,3.3399,0,7,7,7,1,watch a short animation,008.png,NA,NA,NA,NA,NA,NA,NA,NA,NA,NA,NA,NA,NA,NA,NA,NA
MDPRF89971,BF37A8C1-B44A-4EEC-BB51-16C5F2E510AD,2023-10-30_14h59.50.358,VExplicitOC_RO,2022.2.5,Win32,59.80145916,NA,NA,NA,NA,NA,NA,NA,NA,NA,NA,NA,-35.22764227,2.3874,0,8,8,8,1,read a novel,009.png,NA,NA,NA,NA,NA,NA,NA,NA,NA,NA,NA,NA,NA,NA,NA,NA
MDPRF89971,BF37A8C1-B44A-4EEC-BB51-16C5F2E510AD,2023-10-30_14h59.50.358,VExplicitOC_RO,2022.2.5,Win32,59.80145916,NA,NA,NA,NA,NA,NA,NA,NA,NA,NA,NA,43.7354684,2.1063,0,9,9,9,1,read the news,010.png,NA,NA,NA,NA,NA,NA,NA,NA,NA,NA,NA,NA,NA,NA,NA,NA
MDPRF89971,BF37A8C1-B44A-4EEC-BB51-16C5F2E510AD,2023-10-30_14h59.50.358,VExplicitOC_RO,2022.2.5,Win32,59.80145916,NA,NA,NA,NA,NA,NA,NA,NA,NA,NA,NA,NA,NA,NA,NA,NA,NA,NA,NA,NA,NA,NA,NA,NA,NA,NA,NA,NA,NA,NA,NA,NA,NA,NA,NA,NA
MDPRF89971,BF37A8C1-B44A-4EEC-BB51-16C5F2E510AD,2023-10-30_14h59.50.358,VExplicitOC_RO,2022.2.5,Win32,59.80145916,NA,NA,NA,NA,NA,NA,NA,NA,NA,NA,NA,NA,NA,NA,NA,NA,NA,NA,NA,NA,scroll social media,NA,NA,NA,NA,NA,NA,NA,NA,NA,NA,NA,NA,NA,NA,NA
MDPRF89971,BF37A8C1-B44A-4EEC-BB51-16C5F2E510AD,2023-10-30_14h59.50.358,VExplicitOC_RO,2022.2.5,Win32,59.80145916,-94.25057956,3.5211,2.0001,NA,NA,NA,NA,NA,bored,"bored, not bored","more bored, less bored",NA,NA,NA,NA,NA,NA,NA,NA,NA,NA,0,0,0,2,1,NA,NA,NA,NA,NA,NA,NA,NA,NA,NA
MDPRF89971,BF37A8C1-B44A-4EEC-BB51-16C5F2E510AD,2023-10-30_14h59.50.358,VExplicitOC_RO,2022.2.5,Win32,59.80145916,1.86109153,3.173,2.0102,NA,NA,NA,NA,NA,frustrated,"frustrated, not frustrated","more frustrated, less frustrated",NA,NA,NA,NA,NA,NA,NA,NA,NA,NA,0,1,1,1,1,NA,NA,NA,NA,NA,NA,NA,NA,NA,NA
MDPRF89971,BF37A8C1-B44A-4EEC-BB51-16C5F2E510AD,2023-10-30_14h59.50.358,VExplicitOC_RO,2022.2.5,Win32,59.80145916,NA,NA,2.0151,NA,NA,NA,NA,NA,happy,"unhappy, happy","less happy, more happy",NA,NA,NA,NA,NA,NA,NA,NA,NA,NA,0,2,2,0,1,NA,NA,NA,NA,NA,NA,NA,NA,NA,NA
MDPRF89971,BF37A8C1-B44A-4EEC-BB51-16C5F2E510AD,2023-10-30_14h59.50.358,VExplicitOC_RO,2022.2.5,Win32,59.80145916,NA,NA,NA,NA,NA,NA,NA,NA,NA,NA,NA,NA,NA,NA,NA,NA,NA,NA,NA,NA,NA,NA,NA,NA,NA,NA,NA,NA,NA,NA,NA,NA,NA,NA,NA,NA
MDPRF89971,BF37A8C1-B44A-4EEC-BB51-16C5F2E510AD,2023-10-30_14h59.50.358,VExplicitOC_RO,2022.2.5,Win32,59.80145916,NA,NA,NA,NA,NA,NA,NA,NA,NA,NA,NA,NA,NA,NA,NA,NA,NA,NA,NA,NA,NA,NA,NA,NA,NA,NA,NA,NA,NA,NA,NA,NA,NA,NA,NA,NA
MDPRF89971,BF37A8C1-B44A-4EEC-BB51-16C5F2E510AD,2023-10-30_14h59.50.358,VExplicitOC_RO,2022.2.5,Win32,59.80145916,-86.40744028,5.9371,2.015,NA,NA,NA,NA,NA,bored,"bored, not bored","more bored, less bored",NA,NA,NA,NA,NA,NA,NA,NA,NA,NA,NA,NA,NA,NA,NA,0,0,0,2,1,NA,NA,NA,NA,NA
MDPRF89971,BF37A8C1-B44A-4EEC-BB51-16C5F2E510AD,2023-10-30_14h59.50.358,VExplicitOC_RO,2022.2.5,Win32,59.80145916,-43.20371405,4.4855,2.0238,NA,NA,NA,NA,NA,happy,"unhappy, happy","less happy, more happy",NA,NA,NA,NA,NA,NA,NA,NA,NA,NA,NA,NA,NA,NA,NA,0,1,1,0,1,NA,NA,NA,NA,NA
MDPRF89971,BF37A8C1-B44A-4EEC-BB51-16C5F2E510AD,2023-10-30_14h59.50.358,VExplicitOC_RO,2022.2.5,Win32,59.80145916,39.34862892,4.9017,2.0153,NA,NA,NA,NA,NA,frustrated,"frustrated, not frustrated","more frustrated, less frustrated",NA,NA,NA,NA,NA,NA,NA,NA,NA,NA,NA,NA,NA,NA,NA,0,2,2,1,1,NA,NA,NA,NA,NA
MDPRF89971,BF37A8C1-B44A-4EEC-BB51-16C5F2E510AD,2023-10-30_14h59.50.358,VExplicitOC_RO,2022.2.5,Win32,59.80145916,NA,NA,NA,NA,NA,NA,NA,NA,NA,NA,NA,NA,NA,NA,NA,NA,NA,NA,NA,NA,NA,NA,NA,NA,NA,NA,NA,NA,NA,NA,NA,0,0,0,0,1
MDPRF89971,BF37A8C1-B44A-4EEC-BB51-16C5F2E510AD,2023-10-30_14h59.50.358,VExplicitOC_RO,2022.2.5,Win32,59.80145916,-52.1103316,6.9457,2.002,NA,NA,NA,NA,NA,happy,"unhappy, happy","less happy, more happy",NA,NA,NA,NA,NA,NA,NA,NA,NA,NA,NA,NA,NA,NA,NA,0,0,0,0,1,NA,NA,NA,NA,NA
MDPRF89971,BF37A8C1-B44A-4EEC-BB51-16C5F2E510AD,2023-10-30_14h59.50.358,VExplicitOC_RO,2022.2.5,Win32,59.80145916,-85.87570419,3.131,2.0117,NA,NA,NA,NA,NA,bored,"bored, not bored","more bored, less bored",NA,NA,NA,NA,NA,NA,NA,NA,NA,NA,NA,NA,NA,NA,NA,0,1,1,2,1,NA,NA,NA,NA,NA
MDPRF89971,BF37A8C1-B44A-4EEC-BB51-16C5F2E510AD,2023-10-30_14h59.50.358,VExplicitOC_RO,2022.2.5,Win32,59.80145916,NA,NA,2.0064,NA,NA,NA,NA,NA,frustrated,"frustrated, not frustrated","more frustrated, less frustrated",NA,NA,NA,NA,NA,NA,NA,NA,NA,NA,NA,NA,NA,NA,NA,0,2,2,1,1,NA,NA,NA,NA,NA
MDPRF89971,BF37A8C1-B44A-4EEC-BB51-16C5F2E510AD,2023-10-30_14h59.50.358,VExplicitOC_RO,2022.2.5,Win32,59.80145916,NA,NA,NA,NA,NA,NA,NA,NA,NA,NA,NA,NA,NA,NA,NA,NA,NA,NA,NA,NA,NA,NA,NA,NA,NA,NA,NA,NA,NA,NA,NA,1,0,1,0,1
MDPRF89971,BF37A8C1-B44A-4EEC-BB51-16C5F2E510AD,2023-10-30_14h59.50.358,VExplicitOC_RO,2022.2.5,Win32,59.80145916,62.74511427,4.4928,2.0041,NA,NA,NA,NA,NA,frustrated,"frustrated, not frustrated","more frustrated, less frustrated",NA,NA,NA,NA,NA,NA,NA,NA,NA,NA,NA,NA,NA,NA,NA,0,0,0,1,1,NA,NA,NA,NA,NA
MDPRF89971,BF37A8C1-B44A-4EEC-BB51-16C5F2E510AD,2023-10-30_14h59.50.358,VExplicitOC_RO,2022.2.5,Win32,59.80145916,-53.83848455,3.2853,2.0149,NA,NA,NA,NA,NA,happy,"unhappy, happy","less happy, more happy",NA,NA,NA,NA,NA,NA,NA,NA,NA,NA,NA,NA,NA,NA,NA,0,1,1,0,1,NA,NA,NA,NA,NA
MDPRF89971,BF37A8C1-B44A-4EEC-BB51-16C5F2E510AD,2023-10-30_14h59.50.358,VExplicitOC_RO,2022.2.5,Win32,59.80145916,-96.51046859,2.5935,2.0156,NA,NA,NA,NA,NA,bored,"bored, not bored","more bored, less bored",NA,NA,NA,NA,NA,NA,NA,NA,NA,NA,NA,NA,NA,NA,NA,0,2,2,2,1,NA,NA,NA,NA,NA
MDPRF89971,BF37A8C1-B44A-4EEC-BB51-16C5F2E510AD,2023-10-30_14h59.50.358,VExplicitOC_RO,2022.2.5,Win32,59.80145916,NA,NA,NA,NA,NA,NA,NA,NA,NA,NA,NA,NA,NA,NA,NA,NA,NA,NA,NA,NA,NA,NA,NA,NA,NA,NA,NA,NA,NA,NA,NA,2,0,2,0,1
MDPRF89971,BF37A8C1-B44A-4EEC-BB51-16C5F2E510AD,2023-10-30_14h59.50.358,VExplicitOC_RO,2022.2.5,Win32,59.80145916,63.27684427,4.0839,2.0068,NA,NA,NA,NA,NA,frustrated,"frustrated, not frustrated","more frustrated, less frustrated",NA,NA,NA,NA,NA,NA,NA,NA,NA,NA,NA,NA,NA,NA,NA,0,0,0,1,1,NA,NA,NA,NA,NA
MDPRF89971,BF37A8C1-B44A-4EEC-BB51-16C5F2E510AD,2023-10-30_14h59.50.358,VExplicitOC_RO,2022.2.5,Win32,59.80145916,-93.85177597,4.1807,2.0138,NA,NA,NA,NA,NA,bored,"bored, not bored","more bored, less bored",NA,NA,NA,NA,NA,NA,NA,NA,NA,NA,NA,NA,NA,NA,NA,0,1,1,2,1,NA,NA,NA,NA,NA
MDPRF89971,BF37A8C1-B44A-4EEC-BB51-16C5F2E510AD,2023-10-30_14h59.50.358,VExplicitOC_RO,2022.2.5,Win32,59.80145916,11.83118126,4.3689,2.0146,NA,NA,NA,NA,NA,happy,"unhappy, happy","less happy, more happy",NA,NA,NA,NA,NA,NA,NA,NA,NA,NA,NA,NA,NA,NA,NA,0,2,2,0,1,NA,NA,NA,NA,NA
MDPRF89971,BF37A8C1-B44A-4EEC-BB51-16C5F2E510AD,2023-10-30_14h59.50.358,VExplicitOC_RO,2022.2.5,Win32,59.80145916,NA,NA,NA,NA,NA,NA,NA,NA,NA,NA,NA,NA,NA,NA,NA,NA,NA,NA,NA,NA,NA,NA,NA,NA,NA,NA,NA,NA,NA,NA,NA,3,0,3,0,1
MDPRF89971,BF37A8C1-B44A-4EEC-BB51-16C5F2E510AD,2023-10-30_14h59.50.358,VExplicitOC_RO,2022.2.5,Win32,59.80145916,61.94750709,4.01,2.0158,NA,NA,NA,NA,NA,frustrated,"frustrated, not frustrated","more frustrated, less frustrated",NA,NA,NA,NA,NA,NA,NA,NA,NA,NA,NA,NA,NA,NA,NA,0,0,0,1,1,NA,NA,NA,NA,NA
MDPRF89971,BF37A8C1-B44A-4EEC-BB51-16C5F2E510AD,2023-10-30_14h59.50.358,VExplicitOC_RO,2022.2.5,Win32,59.80145916,-2.392821535,3.4883,2.0001,NA,NA,NA,NA,NA,happy,"unhappy, happy","less happy, more happy",NA,NA,NA,NA,NA,NA,NA,NA,NA,NA,NA,NA,NA,NA,NA,0,1,1,0,1,NA,NA,NA,NA,NA
MDPRF89971,BF37A8C1-B44A-4EEC-BB51-16C5F2E510AD,2023-10-30_14h59.50.358,VExplicitOC_RO,2022.2.5,Win32,59.80145916,-95.57992283,5.7028,2.015,NA,NA,NA,NA,NA,bored,"bored, not bored","more bored, less bored",NA,NA,NA,NA,NA,NA,NA,NA,NA,NA,NA,NA,NA,NA,NA,0,2,2,2,1,NA,NA,NA,NA,NA
MDPRF89971,BF37A8C1-B44A-4EEC-BB51-16C5F2E510AD,2023-10-30_14h59.50.358,VExplicitOC_RO,2022.2.5,Win32,59.80145916,NA,NA,NA,NA,NA,NA,NA,NA,NA,NA,NA,NA,NA,NA,NA,NA,NA,NA,NA,NA,NA,NA,NA,NA,NA,NA,NA,NA,NA,NA,NA,4,0,4,0,1
MDPRF89971,BF37A8C1-B44A-4EEC-BB51-16C5F2E510AD,2023-10-30_14h59.50.358,VExplicitOC_RO,2022.2.5,Win32,59.80145916,-51.71152801,7.0296,2.0061,NA,NA,NA,NA,NA,frustrated,"frustrated, not frustrated","more frustrated, less frustrated",NA,NA,NA,NA,NA,NA,NA,NA,NA,NA,NA,NA,NA,NA,NA,0,0,0,1,1,NA,NA,NA,NA,NA
MDPRF89971,BF37A8C1-B44A-4EEC-BB51-16C5F2E510AD,2023-10-30_14h59.50.358,VExplicitOC_RO,2022.2.5,Win32,59.80145916,-74.70920369,3.8433,2.0003,NA,NA,NA,NA,NA,happy,"unhappy, happy","less happy, more happy",NA,NA,NA,NA,NA,NA,NA,NA,NA,NA,NA,NA,NA,NA,NA,0,1,1,0,1,NA,NA,NA,NA,NA
MDPRF89971,BF37A8C1-B44A-4EEC-BB51-16C5F2E510AD,2023-10-30_14h59.50.358,VExplicitOC_RO,2022.2.5,Win32,59.80145916,-95.18111924,3.5898,2.0001,NA,NA,NA,NA,NA,bored,"bored, not bored","more bored, less bored",NA,NA,NA,NA,NA,NA,NA,NA,NA,NA,NA,NA,NA,NA,NA,0,2,2,2,1,NA,NA,NA,NA,NA
MDPRF89971,BF37A8C1-B44A-4EEC-BB51-16C5F2E510AD,2023-10-30_14h59.50.358,VExplicitOC_RO,2022.2.5,Win32,59.80145916,NA,NA,NA,NA,NA,NA,NA,NA,NA,NA,NA,NA,NA,NA,NA,NA,NA,NA,NA,NA,NA,NA,NA,NA,NA,NA,NA,NA,NA,NA,NA,5,0,5,0,1
MDPRF89971,BF37A8C1-B44A-4EEC-BB51-16C5F2E510AD,2023-10-30_14h59.50.358,VExplicitOC_RO,2022.2.5,Win32,59.80145916,NA,NA,2.0165,NA,NA,NA,NA,NA,happy,"unhappy, happy","less happy, more happy",NA,NA,NA,NA,NA,NA,NA,NA,NA,NA,NA,NA,NA,NA,NA,0,0,0,0,1,NA,NA,NA,NA,NA
MDPRF89971,BF37A8C1-B44A-4EEC-BB51-16C5F2E510AD,2023-10-30_14h59.50.358,VExplicitOC_RO,2022.2.5,Win32,59.80145916,-96.24459751,3.7181,2.0135,NA,NA,NA,NA,NA,bored,"bored, not bored","more bored, less bored",NA,NA,NA,NA,NA,NA,NA,NA,NA,NA,NA,NA,NA,NA,NA,0,1,1,2,1,NA,NA,NA,NA,NA
MDPRF89971,BF37A8C1-B44A-4EEC-BB51-16C5F2E510AD,2023-10-30_14h59.50.358,VExplicitOC_RO,2022.2.5,Win32,59.80145916,-78.69723958,2.9032,2.0153,NA,NA,NA,NA,NA,frustrated,"frustrated, not frustrated","more frustrated, less frustrated",NA,NA,NA,NA,NA,NA,NA,NA,NA,NA,NA,NA,NA,NA,NA,0,2,2,1,1,NA,NA,NA,NA,NA
MDPRF89971,BF37A8C1-B44A-4EEC-BB51-16C5F2E510AD,2023-10-30_14h59.50.358,VExplicitOC_RO,2022.2.5,Win32,59.80145916,NA,NA,NA,NA,NA,NA,NA,NA,NA,NA,NA,NA,NA,NA,NA,NA,NA,NA,NA,NA,NA,NA,NA,NA,NA,NA,NA,NA,NA,NA,NA,6,0,6,0,1
MDPRF89971,BF37A8C1-B44A-4EEC-BB51-16C5F2E510AD,2023-10-30_14h59.50.358,VExplicitOC_RO,2022.2.5,Win32,59.80145916,NA,NA,2.0084,NA,NA,NA,NA,NA,happy,"unhappy, happy","less happy, more happy",NA,NA,NA,NA,NA,NA,NA,NA,NA,NA,NA,NA,NA,NA,NA,0,0,0,0,1,NA,NA,NA,NA,NA
MDPRF89971,BF37A8C1-B44A-4EEC-BB51-16C5F2E510AD,2023-10-30_14h59.50.358,VExplicitOC_RO,2022.2.5,Win32,59.80145916,-93.85177597,4.1436,2.0162,NA,NA,NA,NA,NA,frustrated,"frustrated, not frustrated","more frustrated, less frustrated",NA,NA,NA,NA,NA,NA,NA,NA,NA,NA,NA,NA,NA,NA,NA,0,1,1,1,1,NA,NA,NA,NA,NA
MDPRF89971,BF37A8C1-B44A-4EEC-BB51-16C5F2E510AD,2023-10-30_14h59.50.358,VExplicitOC_RO,2022.2.5,Win32,59.80145916,-96.7763336,3.9091,2.015,NA,NA,NA,NA,NA,bored,"bored, not bored","more bored, less bored",NA,NA,NA,NA,NA,NA,NA,NA,NA,NA,NA,NA,NA,NA,NA,0,2,2,2,1,NA,NA,NA,NA,NA
MDPRF89971,BF37A8C1-B44A-4EEC-BB51-16C5F2E510AD,2023-10-30_14h59.50.358,VExplicitOC_RO,2022.2.5,Win32,59.80145916,NA,NA,NA,NA,NA,NA,NA,NA,NA,NA,NA,NA,NA,NA,NA,NA,NA,NA,NA,NA,NA,NA,NA,NA,NA,NA,NA,NA,NA,NA,NA,7,0,7,0,1
MDPRF89971,BF37A8C1-B44A-4EEC-BB51-16C5F2E510AD,2023-10-30_14h59.50.358,VExplicitOC_RO,2022.2.5,Win32,59.80145916,NA,NA,2.0046,NA,NA,NA,NA,NA,bored,"bored, not bored","more bored, less bored",NA,NA,NA,NA,NA,NA,NA,NA,NA,NA,NA,NA,NA,NA,NA,0,0,0,2,1,NA,NA,NA,NA,NA
MDPRF89971,BF37A8C1-B44A-4EEC-BB51-16C5F2E510AD,2023-10-30_14h59.50.358,VExplicitOC_RO,2022.2.5,Win32,59.80145916,-91.72482552,3.1907,2.0031,NA,NA,NA,NA,NA,frustrated,"frustrated, not frustrated","more frustrated, less frustrated",NA,NA,NA,NA,NA,NA,NA,NA,NA,NA,NA,NA,NA,NA,NA,0,1,1,1,1,NA,NA,NA,NA,NA
MDPRF89971,BF37A8C1-B44A-4EEC-BB51-16C5F2E510AD,2023-10-30_14h59.50.358,VExplicitOC_RO,2022.2.5,Win32,59.80145916,-77.36789631,3.1273,2.0159,NA,NA,NA,NA,NA,happy,"unhappy, happy","less happy, more happy",NA,NA,NA,NA,NA,NA,NA,NA,NA,NA,NA,NA,NA,NA,NA,0,2,2,0,1,NA,NA,NA,NA,NA
MDPRF89971,BF37A8C1-B44A-4EEC-BB51-16C5F2E510AD,2023-10-30_14h59.50.358,VExplicitOC_RO,2022.2.5,Win32,59.80145916,NA,NA,NA,NA,NA,NA,NA,NA,NA,NA,NA,NA,NA,NA,NA,NA,NA,NA,NA,NA,NA,NA,NA,NA,NA,NA,NA,NA,NA,NA,NA,8,0,8,0,1
MDPRF89971,BF37A8C1-B44A-4EEC-BB51-16C5F2E510AD,2023-10-30_14h59.50.358,VExplicitOC_RO,2022.2.5,Win32,59.80145916,-73.51279292,3.2618,2.0076,NA,NA,NA,NA,NA,frustrated,"frustrated, not frustrated","more frustrated, less frustrated",NA,NA,NA,NA,NA,NA,NA,NA,NA,NA,NA,NA,NA,NA,NA,0,0,0,1,1,NA,NA,NA,NA,NA
MDPRF89971,BF37A8C1-B44A-4EEC-BB51-16C5F2E510AD,2023-10-30_14h59.50.358,VExplicitOC_RO,2022.2.5,Win32,59.80145916,-74.84213619,3.7631,2.0063,NA,NA,NA,NA,NA,happy,"unhappy, happy","less happy, more happy",NA,NA,NA,NA,NA,NA,NA,NA,NA,NA,NA,NA,NA,NA,NA,0,1,1,0,1,NA,NA,NA,NA,NA
MDPRF89971,BF37A8C1-B44A-4EEC-BB51-16C5F2E510AD,2023-10-30_14h59.50.358,VExplicitOC_RO,2022.2.5,Win32,59.80145916,-72.18344965,4.3174,2.0156,NA,NA,NA,NA,NA,bored,"bored, not bored","more bored, less bored",NA,NA,NA,NA,NA,NA,NA,NA,NA,NA,NA,NA,NA,NA,NA,0,2,2,2,1,NA,NA,NA,NA,NA
MDPRF89971,BF37A8C1-B44A-4EEC-BB51-16C5F2E510AD,2023-10-30_14h59.50.358,VExplicitOC_RO,2022.2.5,Win32,59.80145916,NA,NA,NA,NA,NA,NA,NA,NA,NA,NA,NA,NA,NA,NA,NA,NA,NA,NA,NA,NA,NA,NA,NA,NA,NA,NA,NA,NA,NA,NA,NA,9,0,9,0,1
MDPRF89971,BF37A8C1-B44A-4EEC-BB51-16C5F2E510AD,2023-10-30_14h59.50.358,VExplicitOC_RO,2022.2.5,Win32,59.80145916,-96.111665,7.3773,2.0057,NA,NA,NA,NA,NA,happy,"unhappy, happy","less happy, more happy",NA,NA,NA,NA,NA,NA,NA,NA,NA,NA,NA,NA,NA,NA,NA,0,0,0,0,1,NA,NA,NA,NA,NA
MDPRF89971,BF37A8C1-B44A-4EEC-BB51-16C5F2E510AD,2023-10-30_14h59.50.358,VExplicitOC_RO,2022.2.5,Win32,59.80145916,-86.00863669,5.4855,2.0058,NA,NA,NA,NA,NA,frustrated,"frustrated, not frustrated","more frustrated, less frustrated",NA,NA,NA,NA,NA,NA,NA,NA,NA,NA,NA,NA,NA,NA,NA,0,1,1,1,1,NA,NA,NA,NA,NA
MDPRF89971,BF37A8C1-B44A-4EEC-BB51-16C5F2E510AD,2023-10-30_14h59.50.358,VExplicitOC_RO,2022.2.5,Win32,59.80145916,-99.56796176,3.9019,2.0147,NA,NA,NA,NA,NA,bored,"bored, not bored","more bored, less bored",NA,NA,NA,NA,NA,NA,NA,NA,NA,NA,NA,NA,NA,NA,NA,0,2,2,2,1,NA,NA,NA,NA,NA
MDPRF89971,BF37A8C1-B44A-4EEC-BB51-16C5F2E510AD,2023-10-30_14h59.50.358,VExplicitOC_RO,2022.2.5,Win32,59.80145916,NA,NA,NA,NA,NA,NA,NA,NA,NA,NA,NA,NA,NA,NA,NA,NA,NA,NA,NA,NA,NA,NA,NA,NA,NA,NA,NA,NA,NA,NA,NA,10,0,10,0,1
MDPRF89971,BF37A8C1-B44A-4EEC-BB51-16C5F2E510AD,2023-10-30_14h59.50.358,VExplicitOC_RO,2022.2.5,Win32,59.80145916,-92.5224327,5.1837,2.0091,NA,NA,NA,NA,NA,bored,"bored, not bored","more bored, less bored",NA,NA,NA,NA,NA,NA,NA,NA,NA,NA,NA,NA,NA,NA,NA,0,0,0,2,1,NA,NA,NA,NA,NA
MDPRF89971,BF37A8C1-B44A-4EEC-BB51-16C5F2E510AD,2023-10-30_14h59.50.358,VExplicitOC_RO,2022.2.5,Win32,59.80145916,-65.66965364,5.2052,2.016,NA,NA,NA,NA,NA,happy,"unhappy, happy","less happy, more happy",NA,NA,NA,NA,NA,NA,NA,NA,NA,NA,NA,NA,NA,NA,NA,0,1,1,0,1,NA,NA,NA,NA,NA
MDPRF89971,BF37A8C1-B44A-4EEC-BB51-16C5F2E510AD,2023-10-30_14h59.50.358,VExplicitOC_RO,2022.2.5,Win32,59.80145916,NA,NA,2.0162,NA,NA,NA,NA,NA,frustrated,"frustrated, not frustrated","more frustrated, less frustrated",NA,NA,NA,NA,NA,NA,NA,NA,NA,NA,NA,NA,NA,NA,NA,0,2,2,1,1,NA,NA,NA,NA,NA
MDPRF89971,BF37A8C1-B44A-4EEC-BB51-16C5F2E510AD,2023-10-30_14h59.50.358,VExplicitOC_RO,2022.2.5,Win32,59.80145916,NA,NA,NA,NA,NA,NA,NA,NA,NA,NA,NA,NA,NA,NA,NA,NA,NA,NA,NA,NA,NA,NA,NA,NA,NA,NA,NA,NA,NA,NA,NA,11,0,11,0,1
MDPRF89971,BF37A8C1-B44A-4EEC-BB51-16C5F2E510AD,2023-10-30_14h59.50.358,VExplicitOC_RO,2022.2.5,Win32,59.80145916,-82.68527547,4.6581,2.0052,NA,NA,NA,NA,NA,frustrated,"frustrated, not frustrated","more frustrated, less frustrated",NA,NA,NA,NA,NA,NA,NA,NA,NA,NA,NA,NA,NA,NA,NA,0,0,0,1,1,NA,NA,NA,NA,NA
MDPRF89971,BF37A8C1-B44A-4EEC-BB51-16C5F2E510AD,2023-10-30_14h59.50.358,VExplicitOC_RO,2022.2.5,Win32,59.80145916,-92.6553652,3.2547,2.0025,NA,NA,NA,NA,NA,bored,"bored, not bored","more bored, less bored",NA,NA,NA,NA,NA,NA,NA,NA,NA,NA,NA,NA,NA,NA,NA,0,1,1,2,1,NA,NA,NA,NA,NA
MDPRF89971,BF37A8C1-B44A-4EEC-BB51-16C5F2E510AD,2023-10-30_14h59.50.358,VExplicitOC_RO,2022.2.5,Win32,59.80145916,-93.71884347,2.8572,2.0161,NA,NA,NA,NA,NA,happy,"unhappy, happy","less happy, more happy",NA,NA,NA,NA,NA,NA,NA,NA,NA,NA,NA,NA,NA,NA,NA,0,2,2,0,1,NA,NA,NA,NA,NA
MDPRF89971,BF37A8C1-B44A-4EEC-BB51-16C5F2E510AD,2023-10-30_14h59.50.358,VExplicitOC_RO,2022.2.5,Win32,59.80145916,NA,NA,NA,NA,NA,NA,NA,NA,NA,NA,NA,NA,NA,NA,NA,NA,NA,NA,NA,NA,NA,NA,NA,NA,NA,NA,NA,NA,NA,NA,NA,12,0,12,0,1
MDPRF89971,BF37A8C1-B44A-4EEC-BB51-16C5F2E510AD,2023-10-30_14h59.50.358,VExplicitOC_RO,2022.2.5,Win32,59.80145916,-90.26254367,3.246,2.0096,NA,NA,NA,NA,NA,frustrated,"frustrated, not frustrated","more frustrated, less frustrated",NA,NA,NA,NA,NA,NA,NA,NA,NA,NA,NA,NA,NA,NA,NA,0,0,0,1,1,NA,NA,NA,NA,NA
MDPRF89971,BF37A8C1-B44A-4EEC-BB51-16C5F2E510AD,2023-10-30_14h59.50.358,VExplicitOC_RO,2022.2.5,Win32,59.80145916,-99.83382981,4.079,2.0055,NA,NA,NA,NA,NA,bored,"bored, not bored","more bored, less bored",NA,NA,NA,NA,NA,NA,NA,NA,NA,NA,NA,NA,NA,NA,NA,0,1,1,2,1,NA,NA,NA,NA,NA
MDPRF89971,BF37A8C1-B44A-4EEC-BB51-16C5F2E510AD,2023-10-30_14h59.50.358,VExplicitOC_RO,2022.2.5,Win32,59.80145916,-92.7882977,2.7385,2.0151,NA,NA,NA,NA,NA,happy,"unhappy, happy","less happy, more happy",NA,NA,NA,NA,NA,NA,NA,NA,NA,NA,NA,NA,NA,NA,NA,0,2,2,0,1,NA,NA,NA,NA,NA
MDPRF89971,BF37A8C1-B44A-4EEC-BB51-16C5F2E510AD,2023-10-30_14h59.50.358,VExplicitOC_RO,2022.2.5,Win32,59.80145916,NA,NA,NA,NA,NA,NA,NA,NA,NA,NA,NA,NA,NA,NA,NA,NA,NA,NA,NA,NA,NA,NA,NA,NA,NA,NA,NA,NA,NA,NA,NA,13,0,13,0,1
MDPRF89971,BF37A8C1-B44A-4EEC-BB51-16C5F2E510AD,2023-10-30_14h59.50.358,VExplicitOC_RO,2022.2.5,Win32,59.80145916,-93.98470847,6.108,2.0076,NA,NA,NA,NA,NA,frustrated,"frustrated, not frustrated","more frustrated, less frustrated",NA,NA,NA,NA,NA,NA,NA,NA,NA,NA,NA,NA,NA,NA,NA,0,0,0,1,1,NA,NA,NA,NA,NA
MDPRF89971,BF37A8C1-B44A-4EEC-BB51-16C5F2E510AD,2023-10-30_14h59.50.358,VExplicitOC_RO,2022.2.5,Win32,59.80145916,-97.70687936,3.4021,2.0112,NA,NA,NA,NA,NA,happy,"unhappy, happy","less happy, more happy",NA,NA,NA,NA,NA,NA,NA,NA,NA,NA,NA,NA,NA,NA,NA,0,1,1,0,1,NA,NA,NA,NA,NA
MDPRF89971,BF37A8C1-B44A-4EEC-BB51-16C5F2E510AD,2023-10-30_14h59.50.358,VExplicitOC_RO,2022.2.5,Win32,59.80145916,-95.84579392,4.8978,2.0151,NA,NA,NA,NA,NA,bored,"bored, not bored","more bored, less bored",NA,NA,NA,NA,NA,NA,NA,NA,NA,NA,NA,NA,NA,NA,NA,0,2,2,2,1,NA,NA,NA,NA,NA
MDPRF89971,BF37A8C1-B44A-4EEC-BB51-16C5F2E510AD,2023-10-30_14h59.50.358,VExplicitOC_RO,2022.2.5,Win32,59.80145916,NA,NA,NA,NA,NA,NA,NA,NA,NA,NA,NA,NA,NA,NA,NA,NA,NA,NA,NA,NA,NA,NA,NA,NA,NA,NA,NA,NA,NA,NA,NA,14,0,14,0,1
MDPRF89971,BF37A8C1-B44A-4EEC-BB51-16C5F2E510AD,2023-10-30_14h59.50.358,VExplicitOC_RO,2022.2.5,Win32,59.80145916,NA,NA,NA,NA,NA,NA,NA,NA,NA,NA,NA,NA,NA,NA,NA,NA,NA,NA,NA,NA,NA,NA,NA,NA,NA,NA,NA,NA,NA,NA,NA,NA,NA,NA,NA,NA
MDPRF89971,BF37A8C1-B44A-4EEC-BB51-16C5F2E510AD,2023-10-30_14h59.50.358,VExplicitOC_RO,2022.2.5,Win32,59.80145916,NA,NA,NA,NA,NA,NA,NA,NA,NA,NA,NA,NA,NA,NA,NA,NA,NA,NA,NA,NA,NA,NA,NA,NA,NA,NA,NA,NA,NA,NA,NA,NA,NA,NA,NA,NA
