participant,session,date,expName,psychopyVersion,OS,frameRate,rating_all.response,rating_all.rt,rating_all.tStart,rndRat1.thisRepN,rndRat1.thisTrialN,rndRat1.thisN,rndRat1.thisIndex,rndRat1.ran,Emo,Labs,Labs2,rating_alt.response,rating_alt.rt,AltC.thisRepN,AltC.thisTrialN,AltC.thisN,AltC.thisIndex,AltC.ran,alt_choices,pic_choices,TopAlt_Choice,rndRat2.thisRepN,rndRat2.thisTrialN,rndRat2.thisN,rndRat2.thisIndex,rndRat2.ran,rndRat3.thisRepN,rndRat3.thisTrialN,rndRat3.thisN,rndRat3.thisIndex,rndRat3.ran,trials_FC_H.thisRepN,trials_FC_H.thisTrialN,trials_FC_H.thisN,trials_FC_H.thisIndex,trials_FC_H.ran
MDPRF37698,BA77026F-D714-4104-852F-A1131B64EB6F,2023-10-30_13h59.49.909,VExplicitOC_RO,2022.2.5,Win32,11.95485845,NA,NA,NA,NA,NA,NA,NA,NA,NA,NA,NA,NA,NA,NA,NA,NA,NA,NA,NA,NA,NA,NA,NA,NA,NA,NA,NA,NA,NA,NA,NA,NA,NA,NA,NA,NA
MDPRF37698,BA77026F-D714-4104-852F-A1131B64EB6F,2023-10-30_13h59.49.909,VExplicitOC_RO,2022.2.5,Win32,11.95485845,NA,NA,NA,NA,NA,NA,NA,NA,NA,NA,NA,NA,NA,NA,NA,NA,NA,NA,NA,NA,NA,NA,NA,NA,NA,NA,NA,NA,NA,NA,NA,NA,NA,NA,NA,NA
MDPRF37698,BA77026F-D714-4104-852F-A1131B64EB6F,2023-10-30_13h59.49.909,VExplicitOC_RO,2022.2.5,Win32,11.95485845,NA,NA,NA,NA,NA,NA,NA,NA,NA,NA,NA,NA,NA,NA,NA,NA,NA,NA,NA,NA,NA,NA,NA,NA,NA,NA,NA,NA,NA,NA,NA,NA,NA,NA,NA,NA
MDPRF37698,BA77026F-D714-4104-852F-A1131B64EB6F,2023-10-30_13h59.49.909,VExplicitOC_RO,2022.2.5,Win32,11.95485845,100,6.2063,2.0773,0,0,0,1,1,frustrated,"frustrated, not frustrated","more frustrated, less frustrated",NA,NA,NA,NA,NA,NA,NA,NA,NA,NA,NA,NA,NA,NA,NA,NA,NA,NA,NA,NA,NA,NA,NA,NA,NA
MDPRF37698,BA77026F-D714-4104-852F-A1131B64EB6F,2023-10-30_13h59.49.909,VExplicitOC_RO,2022.2.5,Win32,11.95485845,32.03703704,4.4239,2.0827,0,1,1,2,1,bored,"bored, not bored","more bored, less bored",NA,NA,NA,NA,NA,NA,NA,NA,NA,NA,NA,NA,NA,NA,NA,NA,NA,NA,NA,NA,NA,NA,NA,NA,NA
MDPRF37698,BA77026F-D714-4104-852F-A1131B64EB6F,2023-10-30_13h59.49.909,VExplicitOC_RO,2022.2.5,Win32,11.95485845,75.55555556,5.1426,2.0374,0,2,2,0,1,happy,"unhappy, happy","less happy, more happy",NA,NA,NA,NA,NA,NA,NA,NA,NA,NA,NA,NA,NA,NA,NA,NA,NA,NA,NA,NA,NA,NA,NA,NA,NA
MDPRF37698,BA77026F-D714-4104-852F-A1131B64EB6F,2023-10-30_13h59.49.909,VExplicitOC_RO,2022.2.5,Win32,11.95485845,NA,NA,NA,NA,NA,NA,NA,NA,NA,NA,NA,NA,NA,NA,NA,NA,NA,NA,NA,NA,NA,NA,NA,NA,NA,NA,NA,NA,NA,NA,NA,NA,NA,NA,NA,NA
MDPRF37698,BA77026F-D714-4104-852F-A1131B64EB6F,2023-10-30_13h59.49.909,VExplicitOC_RO,2022.2.5,Win32,11.95485845,NA,NA,NA,NA,NA,NA,NA,NA,NA,NA,NA,NA,NA,NA,NA,NA,NA,NA,NA,NA,NA,NA,NA,NA,NA,NA,NA,NA,NA,NA,NA,NA,NA,NA,NA,NA
MDPRF37698,BA77026F-D714-4104-852F-A1131B64EB6F,2023-10-30_13h59.49.909,VExplicitOC_RO,2022.2.5,Win32,11.95485845,NA,NA,NA,NA,NA,NA,NA,NA,NA,NA,NA,NA,NA,NA,NA,NA,NA,NA,NA,NA,NA,NA,NA,NA,NA,NA,NA,NA,NA,NA,NA,NA,NA,NA,NA,NA
MDPRF37698,BA77026F-D714-4104-852F-A1131B64EB6F,2023-10-30_13h59.49.909,VExplicitOC_RO,2022.2.5,Win32,11.95485845,NA,NA,NA,NA,NA,NA,NA,NA,NA,NA,NA,NA,NA,NA,NA,NA,NA,NA,NA,NA,NA,NA,NA,NA,NA,NA,NA,NA,NA,NA,NA,NA,NA,NA,NA,NA
MDPRF37698,BA77026F-D714-4104-852F-A1131B64EB6F,2023-10-30_13h59.49.909,VExplicitOC_RO,2022.2.5,Win32,11.95485845,NA,NA,NA,NA,NA,NA,NA,NA,NA,NA,NA,9.444444444,7.774,0,0,0,0,1,rest (looking at a fixed cross),001.png,NA,NA,NA,NA,NA,NA,NA,NA,NA,NA,NA,NA,NA,NA,NA,NA
MDPRF37698,BA77026F-D714-4104-852F-A1131B64EB6F,2023-10-30_13h59.49.909,VExplicitOC_RO,2022.2.5,Win32,11.95485845,NA,NA,NA,NA,NA,NA,NA,NA,NA,NA,NA,-38.88888889,2.3908,0,1,1,1,1,stand up,002.png,NA,NA,NA,NA,NA,NA,NA,NA,NA,NA,NA,NA,NA,NA,NA,NA
MDPRF37698,BA77026F-D714-4104-852F-A1131B64EB6F,2023-10-30_13h59.49.909,VExplicitOC_RO,2022.2.5,Win32,11.95485845,NA,NA,NA,NA,NA,NA,NA,NA,NA,NA,NA,-66.85185185,2.0645,0,2,2,2,1,stretch,003.png,NA,NA,NA,NA,NA,NA,NA,NA,NA,NA,NA,NA,NA,NA,NA,NA
MDPRF37698,BA77026F-D714-4104-852F-A1131B64EB6F,2023-10-30_13h59.49.909,VExplicitOC_RO,2022.2.5,Win32,11.95485845,NA,NA,NA,NA,NA,NA,NA,NA,NA,NA,NA,-37.96296296,2.7454,0,3,3,3,1,make a drink,004.png,NA,NA,NA,NA,NA,NA,NA,NA,NA,NA,NA,NA,NA,NA,NA,NA
MDPRF37698,BA77026F-D714-4104-852F-A1131B64EB6F,2023-10-30_13h59.49.909,VExplicitOC_RO,2022.2.5,Win32,11.95485845,NA,NA,NA,NA,NA,NA,NA,NA,NA,NA,NA,-1.481481481,2.0333,0,4,4,4,1,scroll social media,005.png,NA,NA,NA,NA,NA,NA,NA,NA,NA,NA,NA,NA,NA,NA,NA,NA
MDPRF37698,BA77026F-D714-4104-852F-A1131B64EB6F,2023-10-30_13h59.49.909,VExplicitOC_RO,2022.2.5,Win32,11.95485845,NA,NA,NA,NA,NA,NA,NA,NA,NA,NA,NA,77.59259259,2.6613,0,5,5,5,1,listen to music,006.png,NA,NA,NA,NA,NA,NA,NA,NA,NA,NA,NA,NA,NA,NA,NA,NA
MDPRF37698,BA77026F-D714-4104-852F-A1131B64EB6F,2023-10-30_13h59.49.909,VExplicitOC_RO,2022.2.5,Win32,11.95485845,NA,NA,NA,NA,NA,NA,NA,NA,NA,NA,NA,18.33333333,2.5398,0,6,6,6,1,daydream,007.png,NA,NA,NA,NA,NA,NA,NA,NA,NA,NA,NA,NA,NA,NA,NA,NA
MDPRF37698,BA77026F-D714-4104-852F-A1131B64EB6F,2023-10-30_13h59.49.909,VExplicitOC_RO,2022.2.5,Win32,11.95485845,NA,NA,NA,NA,NA,NA,NA,NA,NA,NA,NA,-20,2.5375,0,7,7,7,1,watch a short animation,008.png,NA,NA,NA,NA,NA,NA,NA,NA,NA,NA,NA,NA,NA,NA,NA,NA
MDPRF37698,BA77026F-D714-4104-852F-A1131B64EB6F,2023-10-30_13h59.49.909,VExplicitOC_RO,2022.2.5,Win32,11.95485845,NA,NA,NA,NA,NA,NA,NA,NA,NA,NA,NA,-99.62962963,2.8975,0,8,8,8,1,read a novel,009.png,NA,NA,NA,NA,NA,NA,NA,NA,NA,NA,NA,NA,NA,NA,NA,NA
MDPRF37698,BA77026F-D714-4104-852F-A1131B64EB6F,2023-10-30_13h59.49.909,VExplicitOC_RO,2022.2.5,Win32,11.95485845,NA,NA,NA,NA,NA,NA,NA,NA,NA,NA,NA,-99.62962963,1.372,0,9,9,9,1,read the news,010.png,NA,NA,NA,NA,NA,NA,NA,NA,NA,NA,NA,NA,NA,NA,NA,NA
MDPRF37698,BA77026F-D714-4104-852F-A1131B64EB6F,2023-10-30_13h59.49.909,VExplicitOC_RO,2022.2.5,Win32,11.95485845,NA,NA,NA,NA,NA,NA,NA,NA,NA,NA,NA,NA,NA,NA,NA,NA,NA,NA,NA,NA,NA,NA,NA,NA,NA,NA,NA,NA,NA,NA,NA,NA,NA,NA,NA,NA
MDPRF37698,BA77026F-D714-4104-852F-A1131B64EB6F,2023-10-30_13h59.49.909,VExplicitOC_RO,2022.2.5,Win32,11.95485845,NA,NA,NA,NA,NA,NA,NA,NA,NA,NA,NA,NA,NA,NA,NA,NA,NA,NA,NA,NA,listen to music,NA,NA,NA,NA,NA,NA,NA,NA,NA,NA,NA,NA,NA,NA,NA
MDPRF37698,BA77026F-D714-4104-852F-A1131B64EB6F,2023-10-30_13h59.49.909,VExplicitOC_RO,2022.2.5,Win32,11.95485845,45.74074074,4.2738,2.0521,NA,NA,NA,NA,NA,bored,"bored, not bored","more bored, less bored",NA,NA,NA,NA,NA,NA,NA,NA,NA,NA,0,0,0,2,1,NA,NA,NA,NA,NA,NA,NA,NA,NA,NA
MDPRF37698,BA77026F-D714-4104-852F-A1131B64EB6F,2023-10-30_13h59.49.909,VExplicitOC_RO,2022.2.5,Win32,11.95485845,67.03703704,3.5911,2.11,NA,NA,NA,NA,NA,happy,"unhappy, happy","less happy, more happy",NA,NA,NA,NA,NA,NA,NA,NA,NA,NA,0,1,1,0,1,NA,NA,NA,NA,NA,NA,NA,NA,NA,NA
MDPRF37698,BA77026F-D714-4104-852F-A1131B64EB6F,2023-10-30_13h59.49.909,VExplicitOC_RO,2022.2.5,Win32,11.95485845,99.62962963,4.0338,2.0821,NA,NA,NA,NA,NA,frustrated,"frustrated, not frustrated","more frustrated, less frustrated",NA,NA,NA,NA,NA,NA,NA,NA,NA,NA,0,2,2,1,1,NA,NA,NA,NA,NA,NA,NA,NA,NA,NA
MDPRF37698,BA77026F-D714-4104-852F-A1131B64EB6F,2023-10-30_13h59.49.909,VExplicitOC_RO,2022.2.5,Win32,11.95485845,NA,NA,NA,NA,NA,NA,NA,NA,NA,NA,NA,NA,NA,NA,NA,NA,NA,NA,NA,NA,NA,NA,NA,NA,NA,NA,NA,NA,NA,NA,NA,NA,NA,NA,NA,NA
MDPRF37698,BA77026F-D714-4104-852F-A1131B64EB6F,2023-10-30_13h59.49.909,VExplicitOC_RO,2022.2.5,Win32,11.95485845,NA,NA,NA,NA,NA,NA,NA,NA,NA,NA,NA,NA,NA,NA,NA,NA,NA,NA,NA,NA,NA,NA,NA,NA,NA,NA,NA,NA,NA,NA,NA,NA,NA,NA,NA,NA
MDPRF37698,BA77026F-D714-4104-852F-A1131B64EB6F,2023-10-30_13h59.49.909,VExplicitOC_RO,2022.2.5,Win32,11.95485845,99.07407407,4.8841,2.0834,NA,NA,NA,NA,NA,frustrated,"frustrated, not frustrated","more frustrated, less frustrated",NA,NA,NA,NA,NA,NA,NA,NA,NA,NA,NA,NA,NA,NA,NA,0,0,0,1,1,NA,NA,NA,NA,NA
MDPRF37698,BA77026F-D714-4104-852F-A1131B64EB6F,2023-10-30_13h59.49.909,VExplicitOC_RO,2022.2.5,Win32,11.95485845,99.07407407,3.2412,2.0991,NA,NA,NA,NA,NA,bored,"bored, not bored","more bored, less bored",NA,NA,NA,NA,NA,NA,NA,NA,NA,NA,NA,NA,NA,NA,NA,0,1,1,2,1,NA,NA,NA,NA,NA
MDPRF37698,BA77026F-D714-4104-852F-A1131B64EB6F,2023-10-30_13h59.49.909,VExplicitOC_RO,2022.2.5,Win32,11.95485845,72.77777778,2.9892,2.1077,NA,NA,NA,NA,NA,happy,"unhappy, happy","less happy, more happy",NA,NA,NA,NA,NA,NA,NA,NA,NA,NA,NA,NA,NA,NA,NA,0,2,2,0,1,NA,NA,NA,NA,NA
MDPRF37698,BA77026F-D714-4104-852F-A1131B64EB6F,2023-10-30_13h59.49.909,VExplicitOC_RO,2022.2.5,Win32,11.95485845,NA,NA,NA,NA,NA,NA,NA,NA,NA,NA,NA,NA,NA,NA,NA,NA,NA,NA,NA,NA,NA,NA,NA,NA,NA,NA,NA,NA,NA,NA,NA,0,0,0,0,1
MDPRF37698,BA77026F-D714-4104-852F-A1131B64EB6F,2023-10-30_13h59.49.909,VExplicitOC_RO,2022.2.5,Win32,11.95485845,91.48148148,4.7738,2.0495,NA,NA,NA,NA,NA,happy,"unhappy, happy","less happy, more happy",NA,NA,NA,NA,NA,NA,NA,NA,NA,NA,NA,NA,NA,NA,NA,0,0,0,0,1,NA,NA,NA,NA,NA
MDPRF37698,BA77026F-D714-4104-852F-A1131B64EB6F,2023-10-30_13h59.49.909,VExplicitOC_RO,2022.2.5,Win32,11.95485845,98.14814815,3.9037,2.0923,NA,NA,NA,NA,NA,bored,"bored, not bored","more bored, less bored",NA,NA,NA,NA,NA,NA,NA,NA,NA,NA,NA,NA,NA,NA,NA,0,1,1,2,1,NA,NA,NA,NA,NA
MDPRF37698,BA77026F-D714-4104-852F-A1131B64EB6F,2023-10-30_13h59.49.909,VExplicitOC_RO,2022.2.5,Win32,11.95485845,99.25925926,4.0574,2.0856,NA,NA,NA,NA,NA,frustrated,"frustrated, not frustrated","more frustrated, less frustrated",NA,NA,NA,NA,NA,NA,NA,NA,NA,NA,NA,NA,NA,NA,NA,0,2,2,1,1,NA,NA,NA,NA,NA
MDPRF37698,BA77026F-D714-4104-852F-A1131B64EB6F,2023-10-30_13h59.49.909,VExplicitOC_RO,2022.2.5,Win32,11.95485845,NA,NA,NA,NA,NA,NA,NA,NA,NA,NA,NA,NA,NA,NA,NA,NA,NA,NA,NA,NA,NA,NA,NA,NA,NA,NA,NA,NA,NA,NA,NA,1,0,1,0,1
MDPRF37698,BA77026F-D714-4104-852F-A1131B64EB6F,2023-10-30_13h59.49.909,VExplicitOC_RO,2022.2.5,Win32,11.95485845,99.25925926,3.647,2.085,NA,NA,NA,NA,NA,happy,"unhappy, happy","less happy, more happy",NA,NA,NA,NA,NA,NA,NA,NA,NA,NA,NA,NA,NA,NA,NA,0,0,0,0,1,NA,NA,NA,NA,NA
MDPRF37698,BA77026F-D714-4104-852F-A1131B64EB6F,2023-10-30_13h59.49.909,VExplicitOC_RO,2022.2.5,Win32,11.95485845,99.25925926,2.8965,2.1097,NA,NA,NA,NA,NA,frustrated,"frustrated, not frustrated","more frustrated, less frustrated",NA,NA,NA,NA,NA,NA,NA,NA,NA,NA,NA,NA,NA,NA,NA,0,1,1,1,1,NA,NA,NA,NA,NA
MDPRF37698,BA77026F-D714-4104-852F-A1131B64EB6F,2023-10-30_13h59.49.909,VExplicitOC_RO,2022.2.5,Win32,11.95485845,99.25925926,2.9825,2.0874,NA,NA,NA,NA,NA,bored,"bored, not bored","more bored, less bored",NA,NA,NA,NA,NA,NA,NA,NA,NA,NA,NA,NA,NA,NA,NA,0,2,2,2,1,NA,NA,NA,NA,NA
MDPRF37698,BA77026F-D714-4104-852F-A1131B64EB6F,2023-10-30_13h59.49.909,VExplicitOC_RO,2022.2.5,Win32,11.95485845,NA,NA,NA,NA,NA,NA,NA,NA,NA,NA,NA,NA,NA,NA,NA,NA,NA,NA,NA,NA,NA,NA,NA,NA,NA,NA,NA,NA,NA,NA,NA,2,0,2,0,1
MDPRF37698,BA77026F-D714-4104-852F-A1131B64EB6F,2023-10-30_13h59.49.909,VExplicitOC_RO,2022.2.5,Win32,11.95485845,99.25925926,4.0446,2.033,NA,NA,NA,NA,NA,frustrated,"frustrated, not frustrated","more frustrated, less frustrated",NA,NA,NA,NA,NA,NA,NA,NA,NA,NA,NA,NA,NA,NA,NA,0,0,0,1,1,NA,NA,NA,NA,NA
MDPRF37698,BA77026F-D714-4104-852F-A1131B64EB6F,2023-10-30_13h59.49.909,VExplicitOC_RO,2022.2.5,Win32,11.95485845,71.48148148,3.4426,2.0984,NA,NA,NA,NA,NA,happy,"unhappy, happy","less happy, more happy",NA,NA,NA,NA,NA,NA,NA,NA,NA,NA,NA,NA,NA,NA,NA,0,1,1,0,1,NA,NA,NA,NA,NA
MDPRF37698,BA77026F-D714-4104-852F-A1131B64EB6F,2023-10-30_13h59.49.909,VExplicitOC_RO,2022.2.5,Win32,11.95485845,98.51851852,3.9986,2.079,NA,NA,NA,NA,NA,bored,"bored, not bored","more bored, less bored",NA,NA,NA,NA,NA,NA,NA,NA,NA,NA,NA,NA,NA,NA,NA,0,2,2,2,1,NA,NA,NA,NA,NA
MDPRF37698,BA77026F-D714-4104-852F-A1131B64EB6F,2023-10-30_13h59.49.909,VExplicitOC_RO,2022.2.5,Win32,11.95485845,NA,NA,NA,NA,NA,NA,NA,NA,NA,NA,NA,NA,NA,NA,NA,NA,NA,NA,NA,NA,NA,NA,NA,NA,NA,NA,NA,NA,NA,NA,NA,3,0,3,0,1
MDPRF37698,BA77026F-D714-4104-852F-A1131B64EB6F,2023-10-30_13h59.49.909,VExplicitOC_RO,2022.2.5,Win32,11.95485845,NA,NA,2.0168,NA,NA,NA,NA,NA,frustrated,"frustrated, not frustrated","more frustrated, less frustrated",NA,NA,NA,NA,NA,NA,NA,NA,NA,NA,NA,NA,NA,NA,NA,0,0,0,1,1,NA,NA,NA,NA,NA
MDPRF37698,BA77026F-D714-4104-852F-A1131B64EB6F,2023-10-30_13h59.49.909,VExplicitOC_RO,2022.2.5,Win32,11.95485845,64.81481481,3.9954,2.0921,NA,NA,NA,NA,NA,happy,"unhappy, happy","less happy, more happy",NA,NA,NA,NA,NA,NA,NA,NA,NA,NA,NA,NA,NA,NA,NA,0,1,1,0,1,NA,NA,NA,NA,NA
MDPRF37698,BA77026F-D714-4104-852F-A1131B64EB6F,2023-10-30_13h59.49.909,VExplicitOC_RO,2022.2.5,Win32,11.95485845,28.7037037,3.1004,2.1048,NA,NA,NA,NA,NA,bored,"bored, not bored","more bored, less bored",NA,NA,NA,NA,NA,NA,NA,NA,NA,NA,NA,NA,NA,NA,NA,0,2,2,2,1,NA,NA,NA,NA,NA
MDPRF37698,BA77026F-D714-4104-852F-A1131B64EB6F,2023-10-30_13h59.49.909,VExplicitOC_RO,2022.2.5,Win32,11.95485845,NA,NA,NA,NA,NA,NA,NA,NA,NA,NA,NA,NA,NA,NA,NA,NA,NA,NA,NA,NA,NA,NA,NA,NA,NA,NA,NA,NA,NA,NA,NA,4,0,4,0,1
MDPRF37698,BA77026F-D714-4104-852F-A1131B64EB6F,2023-10-30_13h59.49.909,VExplicitOC_RO,2022.2.5,Win32,11.95485845,-34.81481481,3.4658,2.0765,NA,NA,NA,NA,NA,bored,"bored, not bored","more bored, less bored",NA,NA,NA,NA,NA,NA,NA,NA,NA,NA,NA,NA,NA,NA,NA,0,0,0,2,1,NA,NA,NA,NA,NA
MDPRF37698,BA77026F-D714-4104-852F-A1131B64EB6F,2023-10-30_13h59.49.909,VExplicitOC_RO,2022.2.5,Win32,11.95485845,35.92592593,3.4421,2.0988,NA,NA,NA,NA,NA,happy,"unhappy, happy","less happy, more happy",NA,NA,NA,NA,NA,NA,NA,NA,NA,NA,NA,NA,NA,NA,NA,0,1,1,0,1,NA,NA,NA,NA,NA
MDPRF37698,BA77026F-D714-4104-852F-A1131B64EB6F,2023-10-30_13h59.49.909,VExplicitOC_RO,2022.2.5,Win32,11.95485845,99.81481481,3.5901,2.099,NA,NA,NA,NA,NA,frustrated,"frustrated, not frustrated","more frustrated, less frustrated",NA,NA,NA,NA,NA,NA,NA,NA,NA,NA,NA,NA,NA,NA,NA,0,2,2,1,1,NA,NA,NA,NA,NA
MDPRF37698,BA77026F-D714-4104-852F-A1131B64EB6F,2023-10-30_13h59.49.909,VExplicitOC_RO,2022.2.5,Win32,11.95485845,NA,NA,NA,NA,NA,NA,NA,NA,NA,NA,NA,NA,NA,NA,NA,NA,NA,NA,NA,NA,NA,NA,NA,NA,NA,NA,NA,NA,NA,NA,NA,5,0,5,0,1
MDPRF37698,BA77026F-D714-4104-852F-A1131B64EB6F,2023-10-30_13h59.49.909,VExplicitOC_RO,2022.2.5,Win32,11.95485845,NA,NA,2.08,NA,NA,NA,NA,NA,bored,"bored, not bored","more bored, less bored",NA,NA,NA,NA,NA,NA,NA,NA,NA,NA,NA,NA,NA,NA,NA,0,0,0,2,1,NA,NA,NA,NA,NA
MDPRF37698,BA77026F-D714-4104-852F-A1131B64EB6F,2023-10-30_13h59.49.909,VExplicitOC_RO,2022.2.5,Win32,11.95485845,NA,NA,2.0842,NA,NA,NA,NA,NA,frustrated,"frustrated, not frustrated","more frustrated, less frustrated",NA,NA,NA,NA,NA,NA,NA,NA,NA,NA,NA,NA,NA,NA,NA,0,1,1,1,1,NA,NA,NA,NA,NA
MDPRF37698,BA77026F-D714-4104-852F-A1131B64EB6F,2023-10-30_13h59.49.909,VExplicitOC_RO,2022.2.5,Win32,11.95485845,NA,NA,2.0665,NA,NA,NA,NA,NA,happy,"unhappy, happy","less happy, more happy",NA,NA,NA,NA,NA,NA,NA,NA,NA,NA,NA,NA,NA,NA,NA,0,2,2,0,1,NA,NA,NA,NA,NA
MDPRF37698,BA77026F-D714-4104-852F-A1131B64EB6F,2023-10-30_13h59.49.909,VExplicitOC_RO,2022.2.5,Win32,11.95485845,NA,NA,NA,NA,NA,NA,NA,NA,NA,NA,NA,NA,NA,NA,NA,NA,NA,NA,NA,NA,NA,NA,NA,NA,NA,NA,NA,NA,NA,NA,NA,6,0,6,0,1
MDPRF37698,BA77026F-D714-4104-852F-A1131B64EB6F,2023-10-30_13h59.49.909,VExplicitOC_RO,2022.2.5,Win32,11.95485845,10.18518519,4.6831,2.0809,NA,NA,NA,NA,NA,happy,"unhappy, happy","less happy, more happy",NA,NA,NA,NA,NA,NA,NA,NA,NA,NA,NA,NA,NA,NA,NA,0,0,0,0,1,NA,NA,NA,NA,NA
MDPRF37698,BA77026F-D714-4104-852F-A1131B64EB6F,2023-10-30_13h59.49.909,VExplicitOC_RO,2022.2.5,Win32,11.95485845,72.59259259,3.6102,2.1035,NA,NA,NA,NA,NA,frustrated,"frustrated, not frustrated","more frustrated, less frustrated",NA,NA,NA,NA,NA,NA,NA,NA,NA,NA,NA,NA,NA,NA,NA,0,1,1,1,1,NA,NA,NA,NA,NA
MDPRF37698,BA77026F-D714-4104-852F-A1131B64EB6F,2023-10-30_13h59.49.909,VExplicitOC_RO,2022.2.5,Win32,11.95485845,81.48148148,2.732,2.0699,NA,NA,NA,NA,NA,bored,"bored, not bored","more bored, less bored",NA,NA,NA,NA,NA,NA,NA,NA,NA,NA,NA,NA,NA,NA,NA,0,2,2,2,1,NA,NA,NA,NA,NA
MDPRF37698,BA77026F-D714-4104-852F-A1131B64EB6F,2023-10-30_13h59.49.909,VExplicitOC_RO,2022.2.5,Win32,11.95485845,NA,NA,NA,NA,NA,NA,NA,NA,NA,NA,NA,NA,NA,NA,NA,NA,NA,NA,NA,NA,NA,NA,NA,NA,NA,NA,NA,NA,NA,NA,NA,7,0,7,0,1
MDPRF37698,BA77026F-D714-4104-852F-A1131B64EB6F,2023-10-30_13h59.49.909,VExplicitOC_RO,2022.2.5,Win32,11.95485845,NA,NA,2.0736,NA,NA,NA,NA,NA,bored,"bored, not bored","more bored, less bored",NA,NA,NA,NA,NA,NA,NA,NA,NA,NA,NA,NA,NA,NA,NA,0,0,0,2,1,NA,NA,NA,NA,NA
MDPRF37698,BA77026F-D714-4104-852F-A1131B64EB6F,2023-10-30_13h59.49.909,VExplicitOC_RO,2022.2.5,Win32,11.95485845,85.55555556,3.4052,2.0794,NA,NA,NA,NA,NA,happy,"unhappy, happy","less happy, more happy",NA,NA,NA,NA,NA,NA,NA,NA,NA,NA,NA,NA,NA,NA,NA,0,1,1,0,1,NA,NA,NA,NA,NA
MDPRF37698,BA77026F-D714-4104-852F-A1131B64EB6F,2023-10-30_13h59.49.909,VExplicitOC_RO,2022.2.5,Win32,11.95485845,85.92592593,3.191,2.0829,NA,NA,NA,NA,NA,frustrated,"frustrated, not frustrated","more frustrated, less frustrated",NA,NA,NA,NA,NA,NA,NA,NA,NA,NA,NA,NA,NA,NA,NA,0,2,2,1,1,NA,NA,NA,NA,NA
MDPRF37698,BA77026F-D714-4104-852F-A1131B64EB6F,2023-10-30_13h59.49.909,VExplicitOC_RO,2022.2.5,Win32,11.95485845,NA,NA,NA,NA,NA,NA,NA,NA,NA,NA,NA,NA,NA,NA,NA,NA,NA,NA,NA,NA,NA,NA,NA,NA,NA,NA,NA,NA,NA,NA,NA,8,0,8,0,1
MDPRF37698,BA77026F-D714-4104-852F-A1131B64EB6F,2023-10-30_13h59.49.909,VExplicitOC_RO,2022.2.5,Win32,11.95485845,94.44444444,3.5462,2.0897,NA,NA,NA,NA,NA,frustrated,"frustrated, not frustrated","more frustrated, less frustrated",NA,NA,NA,NA,NA,NA,NA,NA,NA,NA,NA,NA,NA,NA,NA,0,0,0,1,1,NA,NA,NA,NA,NA
MDPRF37698,BA77026F-D714-4104-852F-A1131B64EB6F,2023-10-30_13h59.49.909,VExplicitOC_RO,2022.2.5,Win32,11.95485845,84.44444444,3.6149,2.069,NA,NA,NA,NA,NA,bored,"bored, not bored","more bored, less bored",NA,NA,NA,NA,NA,NA,NA,NA,NA,NA,NA,NA,NA,NA,NA,0,1,1,2,1,NA,NA,NA,NA,NA
MDPRF37698,BA77026F-D714-4104-852F-A1131B64EB6F,2023-10-30_13h59.49.909,VExplicitOC_RO,2022.2.5,Win32,11.95485845,NA,NA,2.0659,NA,NA,NA,NA,NA,happy,"unhappy, happy","less happy, more happy",NA,NA,NA,NA,NA,NA,NA,NA,NA,NA,NA,NA,NA,NA,NA,0,2,2,0,1,NA,NA,NA,NA,NA
MDPRF37698,BA77026F-D714-4104-852F-A1131B64EB6F,2023-10-30_13h59.49.909,VExplicitOC_RO,2022.2.5,Win32,11.95485845,NA,NA,NA,NA,NA,NA,NA,NA,NA,NA,NA,NA,NA,NA,NA,NA,NA,NA,NA,NA,NA,NA,NA,NA,NA,NA,NA,NA,NA,NA,NA,9,0,9,0,1
MDPRF37698,BA77026F-D714-4104-852F-A1131B64EB6F,2023-10-30_13h59.49.909,VExplicitOC_RO,2022.2.5,Win32,11.95485845,79.81481481,4.4552,2.1026,NA,NA,NA,NA,NA,frustrated,"frustrated, not frustrated","more frustrated, less frustrated",NA,NA,NA,NA,NA,NA,NA,NA,NA,NA,NA,NA,NA,NA,NA,0,0,0,1,1,NA,NA,NA,NA,NA
MDPRF37698,BA77026F-D714-4104-852F-A1131B64EB6F,2023-10-30_13h59.49.909,VExplicitOC_RO,2022.2.5,Win32,11.95485845,-7.962962963,3.6652,2.0777,NA,NA,NA,NA,NA,bored,"bored, not bored","more bored, less bored",NA,NA,NA,NA,NA,NA,NA,NA,NA,NA,NA,NA,NA,NA,NA,0,1,1,2,1,NA,NA,NA,NA,NA
MDPRF37698,BA77026F-D714-4104-852F-A1131B64EB6F,2023-10-30_13h59.49.909,VExplicitOC_RO,2022.2.5,Win32,11.95485845,78.7037037,3.6423,2.0934,NA,NA,NA,NA,NA,happy,"unhappy, happy","less happy, more happy",NA,NA,NA,NA,NA,NA,NA,NA,NA,NA,NA,NA,NA,NA,NA,0,2,2,0,1,NA,NA,NA,NA,NA
MDPRF37698,BA77026F-D714-4104-852F-A1131B64EB6F,2023-10-30_13h59.49.909,VExplicitOC_RO,2022.2.5,Win32,11.95485845,NA,NA,NA,NA,NA,NA,NA,NA,NA,NA,NA,NA,NA,NA,NA,NA,NA,NA,NA,NA,NA,NA,NA,NA,NA,NA,NA,NA,NA,NA,NA,10,0,10,0,1
MDPRF37698,BA77026F-D714-4104-852F-A1131B64EB6F,2023-10-30_13h59.49.909,VExplicitOC_RO,2022.2.5,Win32,11.95485845,NA,NA,2.086,NA,NA,NA,NA,NA,frustrated,"frustrated, not frustrated","more frustrated, less frustrated",NA,NA,NA,NA,NA,NA,NA,NA,NA,NA,NA,NA,NA,NA,NA,0,0,0,1,1,NA,NA,NA,NA,NA
MDPRF37698,BA77026F-D714-4104-852F-A1131B64EB6F,2023-10-30_13h59.49.909,VExplicitOC_RO,2022.2.5,Win32,11.95485845,71.2962963,3.9818,2.0767,NA,NA,NA,NA,NA,happy,"unhappy, happy","less happy, more happy",NA,NA,NA,NA,NA,NA,NA,NA,NA,NA,NA,NA,NA,NA,NA,0,1,1,0,1,NA,NA,NA,NA,NA
MDPRF37698,BA77026F-D714-4104-852F-A1131B64EB6F,2023-10-30_13h59.49.909,VExplicitOC_RO,2022.2.5,Win32,11.95485845,83.88888889,3.0974,2.1065,NA,NA,NA,NA,NA,bored,"bored, not bored","more bored, less bored",NA,NA,NA,NA,NA,NA,NA,NA,NA,NA,NA,NA,NA,NA,NA,0,2,2,2,1,NA,NA,NA,NA,NA
MDPRF37698,BA77026F-D714-4104-852F-A1131B64EB6F,2023-10-30_13h59.49.909,VExplicitOC_RO,2022.2.5,Win32,11.95485845,NA,NA,NA,NA,NA,NA,NA,NA,NA,NA,NA,NA,NA,NA,NA,NA,NA,NA,NA,NA,NA,NA,NA,NA,NA,NA,NA,NA,NA,NA,NA,11,0,11,0,1
MDPRF37698,BA77026F-D714-4104-852F-A1131B64EB6F,2023-10-30_13h59.49.909,VExplicitOC_RO,2022.2.5,Win32,11.95485845,17.96296296,5.0725,2.0644,NA,NA,NA,NA,NA,bored,"bored, not bored","more bored, less bored",NA,NA,NA,NA,NA,NA,NA,NA,NA,NA,NA,NA,NA,NA,NA,0,0,0,2,1,NA,NA,NA,NA,NA
MDPRF37698,BA77026F-D714-4104-852F-A1131B64EB6F,2023-10-30_13h59.49.909,VExplicitOC_RO,2022.2.5,Win32,11.95485845,98.7037037,3.2215,2.0995,NA,NA,NA,NA,NA,frustrated,"frustrated, not frustrated","more frustrated, less frustrated",NA,NA,NA,NA,NA,NA,NA,NA,NA,NA,NA,NA,NA,NA,NA,0,1,1,1,1,NA,NA,NA,NA,NA
MDPRF37698,BA77026F-D714-4104-852F-A1131B64EB6F,2023-10-30_13h59.49.909,VExplicitOC_RO,2022.2.5,Win32,11.95485845,52.96296296,3.6628,2.109,NA,NA,NA,NA,NA,happy,"unhappy, happy","less happy, more happy",NA,NA,NA,NA,NA,NA,NA,NA,NA,NA,NA,NA,NA,NA,NA,0,2,2,0,1,NA,NA,NA,NA,NA
MDPRF37698,BA77026F-D714-4104-852F-A1131B64EB6F,2023-10-30_13h59.49.909,VExplicitOC_RO,2022.2.5,Win32,11.95485845,NA,NA,NA,NA,NA,NA,NA,NA,NA,NA,NA,NA,NA,NA,NA,NA,NA,NA,NA,NA,NA,NA,NA,NA,NA,NA,NA,NA,NA,NA,NA,12,0,12,0,1
MDPRF37698,BA77026F-D714-4104-852F-A1131B64EB6F,2023-10-30_13h59.49.909,VExplicitOC_RO,2022.2.5,Win32,11.95485845,NA,NA,2.0729,NA,NA,NA,NA,NA,bored,"bored, not bored","more bored, less bored",NA,NA,NA,NA,NA,NA,NA,NA,NA,NA,NA,NA,NA,NA,NA,0,0,0,2,1,NA,NA,NA,NA,NA
MDPRF37698,BA77026F-D714-4104-852F-A1131B64EB6F,2023-10-30_13h59.49.909,VExplicitOC_RO,2022.2.5,Win32,11.95485845,87.59259259,4.3468,2.0991,NA,NA,NA,NA,NA,frustrated,"frustrated, not frustrated","more frustrated, less frustrated",NA,NA,NA,NA,NA,NA,NA,NA,NA,NA,NA,NA,NA,NA,NA,0,1,1,1,1,NA,NA,NA,NA,NA
MDPRF37698,BA77026F-D714-4104-852F-A1131B64EB6F,2023-10-30_13h59.49.909,VExplicitOC_RO,2022.2.5,Win32,11.95485845,94.07407407,3.327,2.0991,NA,NA,NA,NA,NA,happy,"unhappy, happy","less happy, more happy",NA,NA,NA,NA,NA,NA,NA,NA,NA,NA,NA,NA,NA,NA,NA,0,2,2,0,1,NA,NA,NA,NA,NA
MDPRF37698,BA77026F-D714-4104-852F-A1131B64EB6F,2023-10-30_13h59.49.909,VExplicitOC_RO,2022.2.5,Win32,11.95485845,NA,NA,NA,NA,NA,NA,NA,NA,NA,NA,NA,NA,NA,NA,NA,NA,NA,NA,NA,NA,NA,NA,NA,NA,NA,NA,NA,NA,NA,NA,NA,13,0,13,0,1
MDPRF37698,BA77026F-D714-4104-852F-A1131B64EB6F,2023-10-30_13h59.49.909,VExplicitOC_RO,2022.2.5,Win32,11.95485845,85,3.5432,2.0971,NA,NA,NA,NA,NA,happy,"unhappy, happy","less happy, more happy",NA,NA,NA,NA,NA,NA,NA,NA,NA,NA,NA,NA,NA,NA,NA,0,0,0,0,1,NA,NA,NA,NA,NA
MDPRF37698,BA77026F-D714-4104-852F-A1131B64EB6F,2023-10-30_13h59.49.909,VExplicitOC_RO,2022.2.5,Win32,11.95485845,97.59259259,3.097,2.0927,NA,NA,NA,NA,NA,frustrated,"frustrated, not frustrated","more frustrated, less frustrated",NA,NA,NA,NA,NA,NA,NA,NA,NA,NA,NA,NA,NA,NA,NA,0,1,1,1,1,NA,NA,NA,NA,NA
MDPRF37698,BA77026F-D714-4104-852F-A1131B64EB6F,2023-10-30_13h59.49.909,VExplicitOC_RO,2022.2.5,Win32,11.95485845,82.22222222,3.899,2.0899,NA,NA,NA,NA,NA,bored,"bored, not bored","more bored, less bored",NA,NA,NA,NA,NA,NA,NA,NA,NA,NA,NA,NA,NA,NA,NA,0,2,2,2,1,NA,NA,NA,NA,NA
MDPRF37698,BA77026F-D714-4104-852F-A1131B64EB6F,2023-10-30_13h59.49.909,VExplicitOC_RO,2022.2.5,Win32,11.95485845,NA,NA,NA,NA,NA,NA,NA,NA,NA,NA,NA,NA,NA,NA,NA,NA,NA,NA,NA,NA,NA,NA,NA,NA,NA,NA,NA,NA,NA,NA,NA,14,0,14,0,1
MDPRF37698,BA77026F-D714-4104-852F-A1131B64EB6F,2023-10-30_13h59.49.909,VExplicitOC_RO,2022.2.5,Win32,11.95485845,NA,NA,NA,NA,NA,NA,NA,NA,NA,NA,NA,NA,NA,NA,NA,NA,NA,NA,NA,NA,NA,NA,NA,NA,NA,NA,NA,NA,NA,NA,NA,NA,NA,NA,NA,NA
MDPRF37698,BA77026F-D714-4104-852F-A1131B64EB6F,2023-10-30_13h59.49.909,VExplicitOC_RO,2022.2.5,Win32,11.95485845,NA,NA,NA,NA,NA,NA,NA,NA,NA,NA,NA,NA,NA,NA,NA,NA,NA,NA,NA,NA,NA,NA,NA,NA,NA,NA,NA,NA,NA,NA,NA,NA,NA,NA,NA,NA
