participant,session,date,expName,psychopyVersion,OS,frameRate,rating_all.response,rating_all.rt,rating_all.tStart,rndRat1.thisRepN,rndRat1.thisTrialN,rndRat1.thisN,rndRat1.thisIndex,rndRat1.ran,Emo,Labs,Labs2,rating_alt.response,rating_alt.rt,AltC.thisRepN,AltC.thisTrialN,AltC.thisN,AltC.thisIndex,AltC.ran,alt_choices,pic_choices,TopAlt_Choice,rndRat2.thisRepN,rndRat2.thisTrialN,rndRat2.thisN,rndRat2.thisIndex,rndRat2.ran,rndRat3.thisRepN,rndRat3.thisTrialN,rndRat3.thisN,rndRat3.thisIndex,rndRat3.ran,trials_FC_H.thisRepN,trials_FC_H.thisTrialN,trials_FC_H.thisN,trials_FC_H.thisIndex,trials_FC_H.ran
MDPRF82251,77143AC9-8E97-4107-9418-6F97B8B2D089,2023-10-30_18h11.20.787,VExplicitOC_RO,2022.2.5,Win32,59.15059742,NA,NA,NA,NA,NA,NA,NA,NA,NA,NA,NA,NA,NA,NA,NA,NA,NA,NA,NA,NA,NA,NA,NA,NA,NA,NA,NA,NA,NA,NA,NA,NA,NA,NA,NA,NA
MDPRF82251,77143AC9-8E97-4107-9418-6F97B8B2D089,2023-10-30_18h11.20.787,VExplicitOC_RO,2022.2.5,Win32,59.15059742,NA,NA,NA,NA,NA,NA,NA,NA,NA,NA,NA,NA,NA,NA,NA,NA,NA,NA,NA,NA,NA,NA,NA,NA,NA,NA,NA,NA,NA,NA,NA,NA,NA,NA,NA,NA
MDPRF82251,77143AC9-8E97-4107-9418-6F97B8B2D089,2023-10-30_18h11.20.787,VExplicitOC_RO,2022.2.5,Win32,59.15059742,NA,NA,NA,NA,NA,NA,NA,NA,NA,NA,NA,NA,NA,NA,NA,NA,NA,NA,NA,NA,NA,NA,NA,NA,NA,NA,NA,NA,NA,NA,NA,NA,NA,NA,NA,NA
MDPRF82251,77143AC9-8E97-4107-9418-6F97B8B2D089,2023-10-30_18h11.20.787,VExplicitOC_RO,2022.2.5,Win32,59.15059742,-59.16666412,3.7641,2.0083,0,0,0,0,1,happy,"unhappy, happy","less happy, more happy",NA,NA,NA,NA,NA,NA,NA,NA,NA,NA,NA,NA,NA,NA,NA,NA,NA,NA,NA,NA,NA,NA,NA,NA,NA
MDPRF82251,77143AC9-8E97-4107-9418-6F97B8B2D089,2023-10-30_18h11.20.787,VExplicitOC_RO,2022.2.5,Win32,59.15059742,-75.5,3.7718,2.0162,0,1,1,2,1,bored,"bored, not bored","more bored, less bored",NA,NA,NA,NA,NA,NA,NA,NA,NA,NA,NA,NA,NA,NA,NA,NA,NA,NA,NA,NA,NA,NA,NA,NA,NA
MDPRF82251,77143AC9-8E97-4107-9418-6F97B8B2D089,2023-10-30_18h11.20.787,VExplicitOC_RO,2022.2.5,Win32,59.15059742,-27,4.1536,2.0008,0,2,2,1,1,frustrated,"frustrated, not frustrated","more frustrated, less frustrated",NA,NA,NA,NA,NA,NA,NA,NA,NA,NA,NA,NA,NA,NA,NA,NA,NA,NA,NA,NA,NA,NA,NA,NA,NA
MDPRF82251,77143AC9-8E97-4107-9418-6F97B8B2D089,2023-10-30_18h11.20.787,VExplicitOC_RO,2022.2.5,Win32,59.15059742,NA,NA,NA,NA,NA,NA,NA,NA,NA,NA,NA,NA,NA,NA,NA,NA,NA,NA,NA,NA,NA,NA,NA,NA,NA,NA,NA,NA,NA,NA,NA,NA,NA,NA,NA,NA
MDPRF82251,77143AC9-8E97-4107-9418-6F97B8B2D089,2023-10-30_18h11.20.787,VExplicitOC_RO,2022.2.5,Win32,59.15059742,NA,NA,NA,NA,NA,NA,NA,NA,NA,NA,NA,NA,NA,NA,NA,NA,NA,NA,NA,NA,NA,NA,NA,NA,NA,NA,NA,NA,NA,NA,NA,NA,NA,NA,NA,NA
MDPRF82251,77143AC9-8E97-4107-9418-6F97B8B2D089,2023-10-30_18h11.20.787,VExplicitOC_RO,2022.2.5,Win32,59.15059742,NA,NA,NA,NA,NA,NA,NA,NA,NA,NA,NA,NA,NA,NA,NA,NA,NA,NA,NA,NA,NA,NA,NA,NA,NA,NA,NA,NA,NA,NA,NA,NA,NA,NA,NA,NA
MDPRF82251,77143AC9-8E97-4107-9418-6F97B8B2D089,2023-10-30_18h11.20.787,VExplicitOC_RO,2022.2.5,Win32,59.15059742,NA,NA,NA,NA,NA,NA,NA,NA,NA,NA,NA,NA,NA,NA,NA,NA,NA,NA,NA,NA,NA,NA,NA,NA,NA,NA,NA,NA,NA,NA,NA,NA,NA,NA,NA,NA
MDPRF82251,77143AC9-8E97-4107-9418-6F97B8B2D089,2023-10-30_18h11.20.787,VExplicitOC_RO,2022.2.5,Win32,59.15059742,NA,NA,NA,NA,NA,NA,NA,NA,NA,NA,NA,39.33334351,5.5955,0,0,0,0,1,rest (looking at a fixed cross),001.png,NA,NA,NA,NA,NA,NA,NA,NA,NA,NA,NA,NA,NA,NA,NA,NA
MDPRF82251,77143AC9-8E97-4107-9418-6F97B8B2D089,2023-10-30_18h11.20.787,VExplicitOC_RO,2022.2.5,Win32,59.15059742,NA,NA,NA,NA,NA,NA,NA,NA,NA,NA,NA,-42.66666412,2.886,0,1,1,1,1,stand up,002.png,NA,NA,NA,NA,NA,NA,NA,NA,NA,NA,NA,NA,NA,NA,NA,NA
MDPRF82251,77143AC9-8E97-4107-9418-6F97B8B2D089,2023-10-30_18h11.20.787,VExplicitOC_RO,2022.2.5,Win32,59.15059742,NA,NA,NA,NA,NA,NA,NA,NA,NA,NA,NA,56.33334351,1.4705,0,2,2,2,1,stretch,003.png,NA,NA,NA,NA,NA,NA,NA,NA,NA,NA,NA,NA,NA,NA,NA,NA
MDPRF82251,77143AC9-8E97-4107-9418-6F97B8B2D089,2023-10-30_18h11.20.787,VExplicitOC_RO,2022.2.5,Win32,59.15059742,NA,NA,NA,NA,NA,NA,NA,NA,NA,NA,NA,57.83334351,1.4647,0,3,3,3,1,make a drink,004.png,NA,NA,NA,NA,NA,NA,NA,NA,NA,NA,NA,NA,NA,NA,NA,NA
MDPRF82251,77143AC9-8E97-4107-9418-6F97B8B2D089,2023-10-30_18h11.20.787,VExplicitOC_RO,2022.2.5,Win32,59.15059742,NA,NA,NA,NA,NA,NA,NA,NA,NA,NA,NA,76.66667175,1.5829,0,4,4,4,1,scroll social media,005.png,NA,NA,NA,NA,NA,NA,NA,NA,NA,NA,NA,NA,NA,NA,NA,NA
MDPRF82251,77143AC9-8E97-4107-9418-6F97B8B2D089,2023-10-30_18h11.20.787,VExplicitOC_RO,2022.2.5,Win32,59.15059742,NA,NA,NA,NA,NA,NA,NA,NA,NA,NA,NA,22.83334351,1.7503,0,5,5,5,1,listen to music,006.png,NA,NA,NA,NA,NA,NA,NA,NA,NA,NA,NA,NA,NA,NA,NA,NA
MDPRF82251,77143AC9-8E97-4107-9418-6F97B8B2D089,2023-10-30_18h11.20.787,VExplicitOC_RO,2022.2.5,Win32,59.15059742,NA,NA,NA,NA,NA,NA,NA,NA,NA,NA,NA,-54.16666412,1.6948,0,6,6,6,1,daydream,007.png,NA,NA,NA,NA,NA,NA,NA,NA,NA,NA,NA,NA,NA,NA,NA,NA
MDPRF82251,77143AC9-8E97-4107-9418-6F97B8B2D089,2023-10-30_18h11.20.787,VExplicitOC_RO,2022.2.5,Win32,59.15059742,NA,NA,NA,NA,NA,NA,NA,NA,NA,NA,NA,-39.16666412,1.7075,0,7,7,7,1,watch a short animation,008.png,NA,NA,NA,NA,NA,NA,NA,NA,NA,NA,NA,NA,NA,NA,NA,NA
MDPRF82251,77143AC9-8E97-4107-9418-6F97B8B2D089,2023-10-30_18h11.20.787,VExplicitOC_RO,2022.2.5,Win32,59.15059742,NA,NA,NA,NA,NA,NA,NA,NA,NA,NA,NA,-42.33332825,3.1722,0,8,8,8,1,read a novel,009.png,NA,NA,NA,NA,NA,NA,NA,NA,NA,NA,NA,NA,NA,NA,NA,NA
MDPRF82251,77143AC9-8E97-4107-9418-6F97B8B2D089,2023-10-30_18h11.20.787,VExplicitOC_RO,2022.2.5,Win32,59.15059742,NA,NA,NA,NA,NA,NA,NA,NA,NA,NA,NA,-35.66666412,2.7546,0,9,9,9,1,read the news,010.png,NA,NA,NA,NA,NA,NA,NA,NA,NA,NA,NA,NA,NA,NA,NA,NA
MDPRF82251,77143AC9-8E97-4107-9418-6F97B8B2D089,2023-10-30_18h11.20.787,VExplicitOC_RO,2022.2.5,Win32,59.15059742,NA,NA,NA,NA,NA,NA,NA,NA,NA,NA,NA,NA,NA,NA,NA,NA,NA,NA,NA,NA,NA,NA,NA,NA,NA,NA,NA,NA,NA,NA,NA,NA,NA,NA,NA,NA
MDPRF82251,77143AC9-8E97-4107-9418-6F97B8B2D089,2023-10-30_18h11.20.787,VExplicitOC_RO,2022.2.5,Win32,59.15059742,NA,NA,NA,NA,NA,NA,NA,NA,NA,NA,NA,NA,NA,NA,NA,NA,NA,NA,NA,NA,scroll social media,NA,NA,NA,NA,NA,NA,NA,NA,NA,NA,NA,NA,NA,NA,NA
MDPRF82251,77143AC9-8E97-4107-9418-6F97B8B2D089,2023-10-30_18h11.20.787,VExplicitOC_RO,2022.2.5,Win32,59.15059742,-63.33332825,3.9036,2.0065,NA,NA,NA,NA,NA,bored,"bored, not bored","more bored, less bored",NA,NA,NA,NA,NA,NA,NA,NA,NA,NA,0,0,0,2,1,NA,NA,NA,NA,NA,NA,NA,NA,NA,NA
MDPRF82251,77143AC9-8E97-4107-9418-6F97B8B2D089,2023-10-30_18h11.20.787,VExplicitOC_RO,2022.2.5,Win32,59.15059742,-18.33332825,3.3543,2.0069,NA,NA,NA,NA,NA,happy,"unhappy, happy","less happy, more happy",NA,NA,NA,NA,NA,NA,NA,NA,NA,NA,0,1,1,0,1,NA,NA,NA,NA,NA,NA,NA,NA,NA,NA
MDPRF82251,77143AC9-8E97-4107-9418-6F97B8B2D089,2023-10-30_18h11.20.787,VExplicitOC_RO,2022.2.5,Win32,59.15059742,-44.5,3.0564,2.0113,NA,NA,NA,NA,NA,frustrated,"frustrated, not frustrated","more frustrated, less frustrated",NA,NA,NA,NA,NA,NA,NA,NA,NA,NA,0,2,2,1,1,NA,NA,NA,NA,NA,NA,NA,NA,NA,NA
MDPRF82251,77143AC9-8E97-4107-9418-6F97B8B2D089,2023-10-30_18h11.20.787,VExplicitOC_RO,2022.2.5,Win32,59.15059742,NA,NA,NA,NA,NA,NA,NA,NA,NA,NA,NA,NA,NA,NA,NA,NA,NA,NA,NA,NA,NA,NA,NA,NA,NA,NA,NA,NA,NA,NA,NA,NA,NA,NA,NA,NA
MDPRF82251,77143AC9-8E97-4107-9418-6F97B8B2D089,2023-10-30_18h11.20.787,VExplicitOC_RO,2022.2.5,Win32,59.15059742,NA,NA,NA,NA,NA,NA,NA,NA,NA,NA,NA,NA,NA,NA,NA,NA,NA,NA,NA,NA,NA,NA,NA,NA,NA,NA,NA,NA,NA,NA,NA,NA,NA,NA,NA,NA
MDPRF82251,77143AC9-8E97-4107-9418-6F97B8B2D089,2023-10-30_18h11.20.787,VExplicitOC_RO,2022.2.5,Win32,59.15059742,-74.5,3.6282,2.005,NA,NA,NA,NA,NA,bored,"bored, not bored","more bored, less bored",NA,NA,NA,NA,NA,NA,NA,NA,NA,NA,NA,NA,NA,NA,NA,0,0,0,2,1,NA,NA,NA,NA,NA
MDPRF82251,77143AC9-8E97-4107-9418-6F97B8B2D089,2023-10-30_18h11.20.787,VExplicitOC_RO,2022.2.5,Win32,59.15059742,-37.33332825,2.7071,2.0011,NA,NA,NA,NA,NA,frustrated,"frustrated, not frustrated","more frustrated, less frustrated",NA,NA,NA,NA,NA,NA,NA,NA,NA,NA,NA,NA,NA,NA,NA,0,1,1,1,1,NA,NA,NA,NA,NA
MDPRF82251,77143AC9-8E97-4107-9418-6F97B8B2D089,2023-10-30_18h11.20.787,VExplicitOC_RO,2022.2.5,Win32,59.15059742,-37.16666412,3.0439,2.0005,NA,NA,NA,NA,NA,happy,"unhappy, happy","less happy, more happy",NA,NA,NA,NA,NA,NA,NA,NA,NA,NA,NA,NA,NA,NA,NA,0,2,2,0,1,NA,NA,NA,NA,NA
MDPRF82251,77143AC9-8E97-4107-9418-6F97B8B2D089,2023-10-30_18h11.20.787,VExplicitOC_RO,2022.2.5,Win32,59.15059742,NA,NA,NA,NA,NA,NA,NA,NA,NA,NA,NA,NA,NA,NA,NA,NA,NA,NA,NA,NA,NA,NA,NA,NA,NA,NA,NA,NA,NA,NA,NA,0,0,0,0,1
MDPRF82251,77143AC9-8E97-4107-9418-6F97B8B2D089,2023-10-30_18h11.20.787,VExplicitOC_RO,2022.2.5,Win32,59.15059742,NA,NA,2.0176,NA,NA,NA,NA,NA,happy,"unhappy, happy","less happy, more happy",NA,NA,NA,NA,NA,NA,NA,NA,NA,NA,NA,NA,NA,NA,NA,0,0,0,0,1,NA,NA,NA,NA,NA
MDPRF82251,77143AC9-8E97-4107-9418-6F97B8B2D089,2023-10-30_18h11.20.787,VExplicitOC_RO,2022.2.5,Win32,59.15059742,-63.16666412,3.1404,2.0035,NA,NA,NA,NA,NA,bored,"bored, not bored","more bored, less bored",NA,NA,NA,NA,NA,NA,NA,NA,NA,NA,NA,NA,NA,NA,NA,0,1,1,2,1,NA,NA,NA,NA,NA
MDPRF82251,77143AC9-8E97-4107-9418-6F97B8B2D089,2023-10-30_18h11.20.787,VExplicitOC_RO,2022.2.5,Win32,59.15059742,-22.16665649,2.7194,2.0173,NA,NA,NA,NA,NA,frustrated,"frustrated, not frustrated","more frustrated, less frustrated",NA,NA,NA,NA,NA,NA,NA,NA,NA,NA,NA,NA,NA,NA,NA,0,2,2,1,1,NA,NA,NA,NA,NA
MDPRF82251,77143AC9-8E97-4107-9418-6F97B8B2D089,2023-10-30_18h11.20.787,VExplicitOC_RO,2022.2.5,Win32,59.15059742,NA,NA,NA,NA,NA,NA,NA,NA,NA,NA,NA,NA,NA,NA,NA,NA,NA,NA,NA,NA,NA,NA,NA,NA,NA,NA,NA,NA,NA,NA,NA,1,0,1,0,1
MDPRF82251,77143AC9-8E97-4107-9418-6F97B8B2D089,2023-10-30_18h11.20.787,VExplicitOC_RO,2022.2.5,Win32,59.15059742,-61.5,3.96,2.0032,NA,NA,NA,NA,NA,bored,"bored, not bored","more bored, less bored",NA,NA,NA,NA,NA,NA,NA,NA,NA,NA,NA,NA,NA,NA,NA,0,0,0,2,1,NA,NA,NA,NA,NA
MDPRF82251,77143AC9-8E97-4107-9418-6F97B8B2D089,2023-10-30_18h11.20.787,VExplicitOC_RO,2022.2.5,Win32,59.15059742,-18.5,2.814,2.001,NA,NA,NA,NA,NA,happy,"unhappy, happy","less happy, more happy",NA,NA,NA,NA,NA,NA,NA,NA,NA,NA,NA,NA,NA,NA,NA,0,1,1,0,1,NA,NA,NA,NA,NA
MDPRF82251,77143AC9-8E97-4107-9418-6F97B8B2D089,2023-10-30_18h11.20.787,VExplicitOC_RO,2022.2.5,Win32,59.15059742,-22.83332825,2.8048,2.0007,NA,NA,NA,NA,NA,frustrated,"frustrated, not frustrated","more frustrated, less frustrated",NA,NA,NA,NA,NA,NA,NA,NA,NA,NA,NA,NA,NA,NA,NA,0,2,2,1,1,NA,NA,NA,NA,NA
MDPRF82251,77143AC9-8E97-4107-9418-6F97B8B2D089,2023-10-30_18h11.20.787,VExplicitOC_RO,2022.2.5,Win32,59.15059742,NA,NA,NA,NA,NA,NA,NA,NA,NA,NA,NA,NA,NA,NA,NA,NA,NA,NA,NA,NA,NA,NA,NA,NA,NA,NA,NA,NA,NA,NA,NA,2,0,2,0,1
MDPRF82251,77143AC9-8E97-4107-9418-6F97B8B2D089,2023-10-30_18h11.20.787,VExplicitOC_RO,2022.2.5,Win32,59.15059742,-99.5,2.6454,2,NA,NA,NA,NA,NA,bored,"bored, not bored","more bored, less bored",NA,NA,NA,NA,NA,NA,NA,NA,NA,NA,NA,NA,NA,NA,NA,0,0,0,2,1,NA,NA,NA,NA,NA
MDPRF82251,77143AC9-8E97-4107-9418-6F97B8B2D089,2023-10-30_18h11.20.787,VExplicitOC_RO,2022.2.5,Win32,59.15059742,-77.33332825,2.675,2.0064,NA,NA,NA,NA,NA,happy,"unhappy, happy","less happy, more happy",NA,NA,NA,NA,NA,NA,NA,NA,NA,NA,NA,NA,NA,NA,NA,0,1,1,0,1,NA,NA,NA,NA,NA
MDPRF82251,77143AC9-8E97-4107-9418-6F97B8B2D089,2023-10-30_18h11.20.787,VExplicitOC_RO,2022.2.5,Win32,59.15059742,-28,2.7601,2.0074,NA,NA,NA,NA,NA,frustrated,"frustrated, not frustrated","more frustrated, less frustrated",NA,NA,NA,NA,NA,NA,NA,NA,NA,NA,NA,NA,NA,NA,NA,0,2,2,1,1,NA,NA,NA,NA,NA
MDPRF82251,77143AC9-8E97-4107-9418-6F97B8B2D089,2023-10-30_18h11.20.787,VExplicitOC_RO,2022.2.5,Win32,59.15059742,NA,NA,NA,NA,NA,NA,NA,NA,NA,NA,NA,NA,NA,NA,NA,NA,NA,NA,NA,NA,NA,NA,NA,NA,NA,NA,NA,NA,NA,NA,NA,3,0,3,0,1
MDPRF82251,77143AC9-8E97-4107-9418-6F97B8B2D089,2023-10-30_18h11.20.787,VExplicitOC_RO,2022.2.5,Win32,59.15059742,-68.66666412,3.944,2.0004,NA,NA,NA,NA,NA,happy,"unhappy, happy","less happy, more happy",NA,NA,NA,NA,NA,NA,NA,NA,NA,NA,NA,NA,NA,NA,NA,0,0,0,0,1,NA,NA,NA,NA,NA
MDPRF82251,77143AC9-8E97-4107-9418-6F97B8B2D089,2023-10-30_18h11.20.787,VExplicitOC_RO,2022.2.5,Win32,59.15059742,-99,2.7866,2.0076,NA,NA,NA,NA,NA,bored,"bored, not bored","more bored, less bored",NA,NA,NA,NA,NA,NA,NA,NA,NA,NA,NA,NA,NA,NA,NA,0,1,1,2,1,NA,NA,NA,NA,NA
MDPRF82251,77143AC9-8E97-4107-9418-6F97B8B2D089,2023-10-30_18h11.20.787,VExplicitOC_RO,2022.2.5,Win32,59.15059742,-48.33332825,2.9853,2.0115,NA,NA,NA,NA,NA,frustrated,"frustrated, not frustrated","more frustrated, less frustrated",NA,NA,NA,NA,NA,NA,NA,NA,NA,NA,NA,NA,NA,NA,NA,0,2,2,1,1,NA,NA,NA,NA,NA
MDPRF82251,77143AC9-8E97-4107-9418-6F97B8B2D089,2023-10-30_18h11.20.787,VExplicitOC_RO,2022.2.5,Win32,59.15059742,NA,NA,NA,NA,NA,NA,NA,NA,NA,NA,NA,NA,NA,NA,NA,NA,NA,NA,NA,NA,NA,NA,NA,NA,NA,NA,NA,NA,NA,NA,NA,4,0,4,0,1
MDPRF82251,77143AC9-8E97-4107-9418-6F97B8B2D089,2023-10-30_18h11.20.787,VExplicitOC_RO,2022.2.5,Win32,59.15059742,-99,5.9196,2.014,NA,NA,NA,NA,NA,bored,"bored, not bored","more bored, less bored",NA,NA,NA,NA,NA,NA,NA,NA,NA,NA,NA,NA,NA,NA,NA,0,0,0,2,1,NA,NA,NA,NA,NA
MDPRF82251,77143AC9-8E97-4107-9418-6F97B8B2D089,2023-10-30_18h11.20.787,VExplicitOC_RO,2022.2.5,Win32,59.15059742,-99,2.3349,2.0152,NA,NA,NA,NA,NA,frustrated,"frustrated, not frustrated","more frustrated, less frustrated",NA,NA,NA,NA,NA,NA,NA,NA,NA,NA,NA,NA,NA,NA,NA,0,1,1,1,1,NA,NA,NA,NA,NA
MDPRF82251,77143AC9-8E97-4107-9418-6F97B8B2D089,2023-10-30_18h11.20.787,VExplicitOC_RO,2022.2.5,Win32,59.15059742,-76,2.6588,2.0002,NA,NA,NA,NA,NA,happy,"unhappy, happy","less happy, more happy",NA,NA,NA,NA,NA,NA,NA,NA,NA,NA,NA,NA,NA,NA,NA,0,2,2,0,1,NA,NA,NA,NA,NA
MDPRF82251,77143AC9-8E97-4107-9418-6F97B8B2D089,2023-10-30_18h11.20.787,VExplicitOC_RO,2022.2.5,Win32,59.15059742,NA,NA,NA,NA,NA,NA,NA,NA,NA,NA,NA,NA,NA,NA,NA,NA,NA,NA,NA,NA,NA,NA,NA,NA,NA,NA,NA,NA,NA,NA,NA,5,0,5,0,1
MDPRF82251,77143AC9-8E97-4107-9418-6F97B8B2D089,2023-10-30_18h11.20.787,VExplicitOC_RO,2022.2.5,Win32,59.15059742,-99,4.1888,2.0009,NA,NA,NA,NA,NA,happy,"unhappy, happy","less happy, more happy",NA,NA,NA,NA,NA,NA,NA,NA,NA,NA,NA,NA,NA,NA,NA,0,0,0,0,1,NA,NA,NA,NA,NA
MDPRF82251,77143AC9-8E97-4107-9418-6F97B8B2D089,2023-10-30_18h11.20.787,VExplicitOC_RO,2022.2.5,Win32,59.15059742,-96.83333206,3.5073,2.0003,NA,NA,NA,NA,NA,bored,"bored, not bored","more bored, less bored",NA,NA,NA,NA,NA,NA,NA,NA,NA,NA,NA,NA,NA,NA,NA,0,1,1,2,1,NA,NA,NA,NA,NA
MDPRF82251,77143AC9-8E97-4107-9418-6F97B8B2D089,2023-10-30_18h11.20.787,VExplicitOC_RO,2022.2.5,Win32,59.15059742,-77,2.8176,2,NA,NA,NA,NA,NA,frustrated,"frustrated, not frustrated","more frustrated, less frustrated",NA,NA,NA,NA,NA,NA,NA,NA,NA,NA,NA,NA,NA,NA,NA,0,2,2,1,1,NA,NA,NA,NA,NA
MDPRF82251,77143AC9-8E97-4107-9418-6F97B8B2D089,2023-10-30_18h11.20.787,VExplicitOC_RO,2022.2.5,Win32,59.15059742,NA,NA,NA,NA,NA,NA,NA,NA,NA,NA,NA,NA,NA,NA,NA,NA,NA,NA,NA,NA,NA,NA,NA,NA,NA,NA,NA,NA,NA,NA,NA,6,0,6,0,1
MDPRF82251,77143AC9-8E97-4107-9418-6F97B8B2D089,2023-10-30_18h11.20.787,VExplicitOC_RO,2022.2.5,Win32,59.15059742,-77,5.6329,2.0119,NA,NA,NA,NA,NA,bored,"bored, not bored","more bored, less bored",NA,NA,NA,NA,NA,NA,NA,NA,NA,NA,NA,NA,NA,NA,NA,0,0,0,2,1,NA,NA,NA,NA,NA
MDPRF82251,77143AC9-8E97-4107-9418-6F97B8B2D089,2023-10-30_18h11.20.787,VExplicitOC_RO,2022.2.5,Win32,59.15059742,-89.5,2.7659,2.0008,NA,NA,NA,NA,NA,frustrated,"frustrated, not frustrated","more frustrated, less frustrated",NA,NA,NA,NA,NA,NA,NA,NA,NA,NA,NA,NA,NA,NA,NA,0,1,1,1,1,NA,NA,NA,NA,NA
MDPRF82251,77143AC9-8E97-4107-9418-6F97B8B2D089,2023-10-30_18h11.20.787,VExplicitOC_RO,2022.2.5,Win32,59.15059742,-89.5,2.7392,2.0012,NA,NA,NA,NA,NA,happy,"unhappy, happy","less happy, more happy",NA,NA,NA,NA,NA,NA,NA,NA,NA,NA,NA,NA,NA,NA,NA,0,2,2,0,1,NA,NA,NA,NA,NA
MDPRF82251,77143AC9-8E97-4107-9418-6F97B8B2D089,2023-10-30_18h11.20.787,VExplicitOC_RO,2022.2.5,Win32,59.15059742,NA,NA,NA,NA,NA,NA,NA,NA,NA,NA,NA,NA,NA,NA,NA,NA,NA,NA,NA,NA,NA,NA,NA,NA,NA,NA,NA,NA,NA,NA,NA,7,0,7,0,1
MDPRF82251,77143AC9-8E97-4107-9418-6F97B8B2D089,2023-10-30_18h11.20.787,VExplicitOC_RO,2022.2.5,Win32,59.15059742,-98.83333206,4.8088,2.0091,NA,NA,NA,NA,NA,bored,"bored, not bored","more bored, less bored",NA,NA,NA,NA,NA,NA,NA,NA,NA,NA,NA,NA,NA,NA,NA,0,0,0,2,1,NA,NA,NA,NA,NA
MDPRF82251,77143AC9-8E97-4107-9418-6F97B8B2D089,2023-10-30_18h11.20.787,VExplicitOC_RO,2022.2.5,Win32,59.15059742,-98.83333206,2.3716,2,NA,NA,NA,NA,NA,frustrated,"frustrated, not frustrated","more frustrated, less frustrated",NA,NA,NA,NA,NA,NA,NA,NA,NA,NA,NA,NA,NA,NA,NA,0,1,1,1,1,NA,NA,NA,NA,NA
MDPRF82251,77143AC9-8E97-4107-9418-6F97B8B2D089,2023-10-30_18h11.20.787,VExplicitOC_RO,2022.2.5,Win32,59.15059742,-98.83333206,2.4628,2.0006,NA,NA,NA,NA,NA,happy,"unhappy, happy","less happy, more happy",NA,NA,NA,NA,NA,NA,NA,NA,NA,NA,NA,NA,NA,NA,NA,0,2,2,0,1,NA,NA,NA,NA,NA
MDPRF82251,77143AC9-8E97-4107-9418-6F97B8B2D089,2023-10-30_18h11.20.787,VExplicitOC_RO,2022.2.5,Win32,59.15059742,NA,NA,NA,NA,NA,NA,NA,NA,NA,NA,NA,NA,NA,NA,NA,NA,NA,NA,NA,NA,NA,NA,NA,NA,NA,NA,NA,NA,NA,NA,NA,8,0,8,0,1
MDPRF82251,77143AC9-8E97-4107-9418-6F97B8B2D089,2023-10-30_18h11.20.787,VExplicitOC_RO,2022.2.5,Win32,59.15059742,-99.5,2.6842,2.0049,NA,NA,NA,NA,NA,bored,"bored, not bored","more bored, less bored",NA,NA,NA,NA,NA,NA,NA,NA,NA,NA,NA,NA,NA,NA,NA,0,0,0,2,1,NA,NA,NA,NA,NA
MDPRF82251,77143AC9-8E97-4107-9418-6F97B8B2D089,2023-10-30_18h11.20.787,VExplicitOC_RO,2022.2.5,Win32,59.15059742,-99.5,2.5262,2.0115,NA,NA,NA,NA,NA,happy,"unhappy, happy","less happy, more happy",NA,NA,NA,NA,NA,NA,NA,NA,NA,NA,NA,NA,NA,NA,NA,0,1,1,0,1,NA,NA,NA,NA,NA
MDPRF82251,77143AC9-8E97-4107-9418-6F97B8B2D089,2023-10-30_18h11.20.787,VExplicitOC_RO,2022.2.5,Win32,59.15059742,-99.5,2.5382,2.0046,NA,NA,NA,NA,NA,frustrated,"frustrated, not frustrated","more frustrated, less frustrated",NA,NA,NA,NA,NA,NA,NA,NA,NA,NA,NA,NA,NA,NA,NA,0,2,2,1,1,NA,NA,NA,NA,NA
MDPRF82251,77143AC9-8E97-4107-9418-6F97B8B2D089,2023-10-30_18h11.20.787,VExplicitOC_RO,2022.2.5,Win32,59.15059742,NA,NA,NA,NA,NA,NA,NA,NA,NA,NA,NA,NA,NA,NA,NA,NA,NA,NA,NA,NA,NA,NA,NA,NA,NA,NA,NA,NA,NA,NA,NA,9,0,9,0,1
MDPRF82251,77143AC9-8E97-4107-9418-6F97B8B2D089,2023-10-30_18h11.20.787,VExplicitOC_RO,2022.2.5,Win32,59.15059742,-99.5,2.6645,2.0079,NA,NA,NA,NA,NA,happy,"unhappy, happy","less happy, more happy",NA,NA,NA,NA,NA,NA,NA,NA,NA,NA,NA,NA,NA,NA,NA,0,0,0,0,1,NA,NA,NA,NA,NA
MDPRF82251,77143AC9-8E97-4107-9418-6F97B8B2D089,2023-10-30_18h11.20.787,VExplicitOC_RO,2022.2.5,Win32,59.15059742,-99.5,2.6603,2.0018,NA,NA,NA,NA,NA,bored,"bored, not bored","more bored, less bored",NA,NA,NA,NA,NA,NA,NA,NA,NA,NA,NA,NA,NA,NA,NA,0,1,1,2,1,NA,NA,NA,NA,NA
MDPRF82251,77143AC9-8E97-4107-9418-6F97B8B2D089,2023-10-30_18h11.20.787,VExplicitOC_RO,2022.2.5,Win32,59.15059742,-96.16666412,4.0632,2.0018,NA,NA,NA,NA,NA,frustrated,"frustrated, not frustrated","more frustrated, less frustrated",NA,NA,NA,NA,NA,NA,NA,NA,NA,NA,NA,NA,NA,NA,NA,0,2,2,1,1,NA,NA,NA,NA,NA
MDPRF82251,77143AC9-8E97-4107-9418-6F97B8B2D089,2023-10-30_18h11.20.787,VExplicitOC_RO,2022.2.5,Win32,59.15059742,NA,NA,NA,NA,NA,NA,NA,NA,NA,NA,NA,NA,NA,NA,NA,NA,NA,NA,NA,NA,NA,NA,NA,NA,NA,NA,NA,NA,NA,NA,NA,10,0,10,0,1
MDPRF82251,77143AC9-8E97-4107-9418-6F97B8B2D089,2023-10-30_18h11.20.787,VExplicitOC_RO,2022.2.5,Win32,59.15059742,-100,3.5175,2.0124,NA,NA,NA,NA,NA,happy,"unhappy, happy","less happy, more happy",NA,NA,NA,NA,NA,NA,NA,NA,NA,NA,NA,NA,NA,NA,NA,0,0,0,0,1,NA,NA,NA,NA,NA
MDPRF82251,77143AC9-8E97-4107-9418-6F97B8B2D089,2023-10-30_18h11.20.787,VExplicitOC_RO,2022.2.5,Win32,59.15059742,-100,3.3567,2.0014,NA,NA,NA,NA,NA,bored,"bored, not bored","more bored, less bored",NA,NA,NA,NA,NA,NA,NA,NA,NA,NA,NA,NA,NA,NA,NA,0,1,1,2,1,NA,NA,NA,NA,NA
MDPRF82251,77143AC9-8E97-4107-9418-6F97B8B2D089,2023-10-30_18h11.20.787,VExplicitOC_RO,2022.2.5,Win32,59.15059742,-100,2.5925,2.0015,NA,NA,NA,NA,NA,frustrated,"frustrated, not frustrated","more frustrated, less frustrated",NA,NA,NA,NA,NA,NA,NA,NA,NA,NA,NA,NA,NA,NA,NA,0,2,2,1,1,NA,NA,NA,NA,NA
MDPRF82251,77143AC9-8E97-4107-9418-6F97B8B2D089,2023-10-30_18h11.20.787,VExplicitOC_RO,2022.2.5,Win32,59.15059742,NA,NA,NA,NA,NA,NA,NA,NA,NA,NA,NA,NA,NA,NA,NA,NA,NA,NA,NA,NA,NA,NA,NA,NA,NA,NA,NA,NA,NA,NA,NA,11,0,11,0,1
MDPRF82251,77143AC9-8E97-4107-9418-6F97B8B2D089,2023-10-30_18h11.20.787,VExplicitOC_RO,2022.2.5,Win32,59.15059742,-100,2.7798,2.0093,NA,NA,NA,NA,NA,frustrated,"frustrated, not frustrated","more frustrated, less frustrated",NA,NA,NA,NA,NA,NA,NA,NA,NA,NA,NA,NA,NA,NA,NA,0,0,0,1,1,NA,NA,NA,NA,NA
MDPRF82251,77143AC9-8E97-4107-9418-6F97B8B2D089,2023-10-30_18h11.20.787,VExplicitOC_RO,2022.2.5,Win32,59.15059742,-100,2.4979,2.0113,NA,NA,NA,NA,NA,bored,"bored, not bored","more bored, less bored",NA,NA,NA,NA,NA,NA,NA,NA,NA,NA,NA,NA,NA,NA,NA,0,1,1,2,1,NA,NA,NA,NA,NA
MDPRF82251,77143AC9-8E97-4107-9418-6F97B8B2D089,2023-10-30_18h11.20.787,VExplicitOC_RO,2022.2.5,Win32,59.15059742,-100,2.4815,2.0171,NA,NA,NA,NA,NA,happy,"unhappy, happy","less happy, more happy",NA,NA,NA,NA,NA,NA,NA,NA,NA,NA,NA,NA,NA,NA,NA,0,2,2,0,1,NA,NA,NA,NA,NA
MDPRF82251,77143AC9-8E97-4107-9418-6F97B8B2D089,2023-10-30_18h11.20.787,VExplicitOC_RO,2022.2.5,Win32,59.15059742,NA,NA,NA,NA,NA,NA,NA,NA,NA,NA,NA,NA,NA,NA,NA,NA,NA,NA,NA,NA,NA,NA,NA,NA,NA,NA,NA,NA,NA,NA,NA,12,0,12,0,1
MDPRF82251,77143AC9-8E97-4107-9418-6F97B8B2D089,2023-10-30_18h11.20.787,VExplicitOC_RO,2022.2.5,Win32,59.15059742,-100,3.9727,2.0108,NA,NA,NA,NA,NA,happy,"unhappy, happy","less happy, more happy",NA,NA,NA,NA,NA,NA,NA,NA,NA,NA,NA,NA,NA,NA,NA,0,0,0,0,1,NA,NA,NA,NA,NA
MDPRF82251,77143AC9-8E97-4107-9418-6F97B8B2D089,2023-10-30_18h11.20.787,VExplicitOC_RO,2022.2.5,Win32,59.15059742,-100,3.0573,2.002,NA,NA,NA,NA,NA,bored,"bored, not bored","more bored, less bored",NA,NA,NA,NA,NA,NA,NA,NA,NA,NA,NA,NA,NA,NA,NA,0,1,1,2,1,NA,NA,NA,NA,NA
MDPRF82251,77143AC9-8E97-4107-9418-6F97B8B2D089,2023-10-30_18h11.20.787,VExplicitOC_RO,2022.2.5,Win32,59.15059742,-100,2.8914,2.0008,NA,NA,NA,NA,NA,frustrated,"frustrated, not frustrated","more frustrated, less frustrated",NA,NA,NA,NA,NA,NA,NA,NA,NA,NA,NA,NA,NA,NA,NA,0,2,2,1,1,NA,NA,NA,NA,NA
MDPRF82251,77143AC9-8E97-4107-9418-6F97B8B2D089,2023-10-30_18h11.20.787,VExplicitOC_RO,2022.2.5,Win32,59.15059742,NA,NA,NA,NA,NA,NA,NA,NA,NA,NA,NA,NA,NA,NA,NA,NA,NA,NA,NA,NA,NA,NA,NA,NA,NA,NA,NA,NA,NA,NA,NA,13,0,13,0,1
MDPRF82251,77143AC9-8E97-4107-9418-6F97B8B2D089,2023-10-30_18h11.20.787,VExplicitOC_RO,2022.2.5,Win32,59.15059742,-94.33332825,3.9596,2.011,NA,NA,NA,NA,NA,bored,"bored, not bored","more bored, less bored",NA,NA,NA,NA,NA,NA,NA,NA,NA,NA,NA,NA,NA,NA,NA,0,0,0,2,1,NA,NA,NA,NA,NA
MDPRF82251,77143AC9-8E97-4107-9418-6F97B8B2D089,2023-10-30_18h11.20.787,VExplicitOC_RO,2022.2.5,Win32,59.15059742,-99.66666412,3.8073,2.0116,NA,NA,NA,NA,NA,happy,"unhappy, happy","less happy, more happy",NA,NA,NA,NA,NA,NA,NA,NA,NA,NA,NA,NA,NA,NA,NA,0,1,1,0,1,NA,NA,NA,NA,NA
MDPRF82251,77143AC9-8E97-4107-9418-6F97B8B2D089,2023-10-30_18h11.20.787,VExplicitOC_RO,2022.2.5,Win32,59.15059742,-79.16666412,2.7659,2.0114,NA,NA,NA,NA,NA,frustrated,"frustrated, not frustrated","more frustrated, less frustrated",NA,NA,NA,NA,NA,NA,NA,NA,NA,NA,NA,NA,NA,NA,NA,0,2,2,1,1,NA,NA,NA,NA,NA
MDPRF82251,77143AC9-8E97-4107-9418-6F97B8B2D089,2023-10-30_18h11.20.787,VExplicitOC_RO,2022.2.5,Win32,59.15059742,NA,NA,NA,NA,NA,NA,NA,NA,NA,NA,NA,NA,NA,NA,NA,NA,NA,NA,NA,NA,NA,NA,NA,NA,NA,NA,NA,NA,NA,NA,NA,14,0,14,0,1
MDPRF82251,77143AC9-8E97-4107-9418-6F97B8B2D089,2023-10-30_18h11.20.787,VExplicitOC_RO,2022.2.5,Win32,59.15059742,NA,NA,NA,NA,NA,NA,NA,NA,NA,NA,NA,NA,NA,NA,NA,NA,NA,NA,NA,NA,NA,NA,NA,NA,NA,NA,NA,NA,NA,NA,NA,NA,NA,NA,NA,NA
MDPRF82251,77143AC9-8E97-4107-9418-6F97B8B2D089,2023-10-30_18h11.20.787,VExplicitOC_RO,2022.2.5,Win32,59.15059742,NA,NA,NA,NA,NA,NA,NA,NA,NA,NA,NA,NA,NA,NA,NA,NA,NA,NA,NA,NA,NA,NA,NA,NA,NA,NA,NA,NA,NA,NA,NA,NA,NA,NA,NA,NA
