participant,session,date,expName,psychopyVersion,OS,frameRate,rating_all.response,rating_all.rt,rating_all.tStart,rndRat1.thisRepN,rndRat1.thisTrialN,rndRat1.thisN,rndRat1.thisIndex,rndRat1.ran,Emo,Labs,Labs2,rating_alt.response,rating_alt.rt,AltC.thisRepN,AltC.thisTrialN,AltC.thisN,AltC.thisIndex,AltC.ran,alt_choices,pic_choices,TopAlt_Choice,rndRat2.thisRepN,rndRat2.thisTrialN,rndRat2.thisN,rndRat2.thisIndex,rndRat2.ran,rndRat3.thisRepN,rndRat3.thisTrialN,rndRat3.thisN,rndRat3.thisIndex,rndRat3.ran,trials_FC_H.thisRepN,trials_FC_H.thisTrialN,trials_FC_H.thisN,trials_FC_H.thisIndex,trials_FC_H.ran
MDPRF96315,5E63569C-7182-47D0-8443-4FE46224CBE8,2023-10-30_17h43.41.121,VExplicitOC_RO,2022.2.5,Win32,60.05645307,NA,NA,NA,NA,NA,NA,NA,NA,NA,NA,NA,NA,NA,NA,NA,NA,NA,NA,NA,NA,NA,NA,NA,NA,NA,NA,NA,NA,NA,NA,NA,NA,NA,NA,NA,NA
MDPRF96315,5E63569C-7182-47D0-8443-4FE46224CBE8,2023-10-30_17h43.41.121,VExplicitOC_RO,2022.2.5,Win32,60.05645307,NA,NA,NA,NA,NA,NA,NA,NA,NA,NA,NA,NA,NA,NA,NA,NA,NA,NA,NA,NA,NA,NA,NA,NA,NA,NA,NA,NA,NA,NA,NA,NA,NA,NA,NA,NA
MDPRF96315,5E63569C-7182-47D0-8443-4FE46224CBE8,2023-10-30_17h43.41.121,VExplicitOC_RO,2022.2.5,Win32,60.05645307,NA,NA,NA,NA,NA,NA,NA,NA,NA,NA,NA,NA,NA,NA,NA,NA,NA,NA,NA,NA,NA,NA,NA,NA,NA,NA,NA,NA,NA,NA,NA,NA,NA,NA,NA,NA
MDPRF96315,5E63569C-7182-47D0-8443-4FE46224CBE8,2023-10-30_17h43.41.121,VExplicitOC_RO,2022.2.5,Win32,60.05645307,100,4.3093,2.0052,0,0,0,1,1,frustrated,"frustrated, not frustrated","more frustrated, less frustrated",NA,NA,NA,NA,NA,NA,NA,NA,NA,NA,NA,NA,NA,NA,NA,NA,NA,NA,NA,NA,NA,NA,NA,NA,NA
MDPRF96315,5E63569C-7182-47D0-8443-4FE46224CBE8,2023-10-30_17h43.41.121,VExplicitOC_RO,2022.2.5,Win32,60.05645307,-25.74074074,3.6987,2.0011,0,1,1,2,1,bored,"bored, not bored","more bored, less bored",NA,NA,NA,NA,NA,NA,NA,NA,NA,NA,NA,NA,NA,NA,NA,NA,NA,NA,NA,NA,NA,NA,NA,NA,NA
MDPRF96315,5E63569C-7182-47D0-8443-4FE46224CBE8,2023-10-30_17h43.41.121,VExplicitOC_RO,2022.2.5,Win32,60.05645307,38.7037037,3.2946,2.0017,0,2,2,0,1,happy,"unhappy, happy","less happy, more happy",NA,NA,NA,NA,NA,NA,NA,NA,NA,NA,NA,NA,NA,NA,NA,NA,NA,NA,NA,NA,NA,NA,NA,NA,NA
MDPRF96315,5E63569C-7182-47D0-8443-4FE46224CBE8,2023-10-30_17h43.41.121,VExplicitOC_RO,2022.2.5,Win32,60.05645307,NA,NA,NA,NA,NA,NA,NA,NA,NA,NA,NA,NA,NA,NA,NA,NA,NA,NA,NA,NA,NA,NA,NA,NA,NA,NA,NA,NA,NA,NA,NA,NA,NA,NA,NA,NA
MDPRF96315,5E63569C-7182-47D0-8443-4FE46224CBE8,2023-10-30_17h43.41.121,VExplicitOC_RO,2022.2.5,Win32,60.05645307,NA,NA,NA,NA,NA,NA,NA,NA,NA,NA,NA,NA,NA,NA,NA,NA,NA,NA,NA,NA,NA,NA,NA,NA,NA,NA,NA,NA,NA,NA,NA,NA,NA,NA,NA,NA
MDPRF96315,5E63569C-7182-47D0-8443-4FE46224CBE8,2023-10-30_17h43.41.121,VExplicitOC_RO,2022.2.5,Win32,60.05645307,NA,NA,NA,NA,NA,NA,NA,NA,NA,NA,NA,NA,NA,NA,NA,NA,NA,NA,NA,NA,NA,NA,NA,NA,NA,NA,NA,NA,NA,NA,NA,NA,NA,NA,NA,NA
MDPRF96315,5E63569C-7182-47D0-8443-4FE46224CBE8,2023-10-30_17h43.41.121,VExplicitOC_RO,2022.2.5,Win32,60.05645307,NA,NA,NA,NA,NA,NA,NA,NA,NA,NA,NA,NA,NA,NA,NA,NA,NA,NA,NA,NA,NA,NA,NA,NA,NA,NA,NA,NA,NA,NA,NA,NA,NA,NA,NA,NA
MDPRF96315,5E63569C-7182-47D0-8443-4FE46224CBE8,2023-10-30_17h43.41.121,VExplicitOC_RO,2022.2.5,Win32,60.05645307,NA,NA,NA,NA,NA,NA,NA,NA,NA,NA,NA,-24.44444444,5.092,0,0,0,0,1,rest (looking at a fixed cross),001.png,NA,NA,NA,NA,NA,NA,NA,NA,NA,NA,NA,NA,NA,NA,NA,NA
MDPRF96315,5E63569C-7182-47D0-8443-4FE46224CBE8,2023-10-30_17h43.41.121,VExplicitOC_RO,2022.2.5,Win32,60.05645307,NA,NA,NA,NA,NA,NA,NA,NA,NA,NA,NA,23.14814815,2.1828,0,1,1,1,1,stand up,002.png,NA,NA,NA,NA,NA,NA,NA,NA,NA,NA,NA,NA,NA,NA,NA,NA
MDPRF96315,5E63569C-7182-47D0-8443-4FE46224CBE8,2023-10-30_17h43.41.121,VExplicitOC_RO,2022.2.5,Win32,60.05645307,NA,NA,NA,NA,NA,NA,NA,NA,NA,NA,NA,46.66666667,1.3468,0,2,2,2,1,stretch,003.png,NA,NA,NA,NA,NA,NA,NA,NA,NA,NA,NA,NA,NA,NA,NA,NA
MDPRF96315,5E63569C-7182-47D0-8443-4FE46224CBE8,2023-10-30_17h43.41.121,VExplicitOC_RO,2022.2.5,Win32,60.05645307,NA,NA,NA,NA,NA,NA,NA,NA,NA,NA,NA,86.2962963,1.6631,0,3,3,3,1,make a drink,004.png,NA,NA,NA,NA,NA,NA,NA,NA,NA,NA,NA,NA,NA,NA,NA,NA
MDPRF96315,5E63569C-7182-47D0-8443-4FE46224CBE8,2023-10-30_17h43.41.121,VExplicitOC_RO,2022.2.5,Win32,60.05645307,NA,NA,NA,NA,NA,NA,NA,NA,NA,NA,NA,64.25925926,1.6976,0,4,4,4,1,scroll social media,005.png,NA,NA,NA,NA,NA,NA,NA,NA,NA,NA,NA,NA,NA,NA,NA,NA
MDPRF96315,5E63569C-7182-47D0-8443-4FE46224CBE8,2023-10-30_17h43.41.121,VExplicitOC_RO,2022.2.5,Win32,60.05645307,NA,NA,NA,NA,NA,NA,NA,NA,NA,NA,NA,60,1.7493,0,5,5,5,1,listen to music,006.png,NA,NA,NA,NA,NA,NA,NA,NA,NA,NA,NA,NA,NA,NA,NA,NA
MDPRF96315,5E63569C-7182-47D0-8443-4FE46224CBE8,2023-10-30_17h43.41.121,VExplicitOC_RO,2022.2.5,Win32,60.05645307,NA,NA,NA,NA,NA,NA,NA,NA,NA,NA,NA,-24.074074070000002,1.5975,0,6,6,6,1,daydream,007.png,NA,NA,NA,NA,NA,NA,NA,NA,NA,NA,NA,NA,NA,NA,NA,NA
MDPRF96315,5E63569C-7182-47D0-8443-4FE46224CBE8,2023-10-30_17h43.41.121,VExplicitOC_RO,2022.2.5,Win32,60.05645307,NA,NA,NA,NA,NA,NA,NA,NA,NA,NA,NA,-49.07407407,1.4481,0,7,7,7,1,watch a short animation,008.png,NA,NA,NA,NA,NA,NA,NA,NA,NA,NA,NA,NA,NA,NA,NA,NA
MDPRF96315,5E63569C-7182-47D0-8443-4FE46224CBE8,2023-10-30_17h43.41.121,VExplicitOC_RO,2022.2.5,Win32,60.05645307,NA,NA,NA,NA,NA,NA,NA,NA,NA,NA,NA,-42.59259259,1.5125,0,8,8,8,1,read a novel,009.png,NA,NA,NA,NA,NA,NA,NA,NA,NA,NA,NA,NA,NA,NA,NA,NA
MDPRF96315,5E63569C-7182-47D0-8443-4FE46224CBE8,2023-10-30_17h43.41.121,VExplicitOC_RO,2022.2.5,Win32,60.05645307,NA,NA,NA,NA,NA,NA,NA,NA,NA,NA,NA,-80.74074074,1.4496,0,9,9,9,1,read the news,010.png,NA,NA,NA,NA,NA,NA,NA,NA,NA,NA,NA,NA,NA,NA,NA,NA
MDPRF96315,5E63569C-7182-47D0-8443-4FE46224CBE8,2023-10-30_17h43.41.121,VExplicitOC_RO,2022.2.5,Win32,60.05645307,NA,NA,NA,NA,NA,NA,NA,NA,NA,NA,NA,NA,NA,NA,NA,NA,NA,NA,NA,NA,NA,NA,NA,NA,NA,NA,NA,NA,NA,NA,NA,NA,NA,NA,NA,NA
MDPRF96315,5E63569C-7182-47D0-8443-4FE46224CBE8,2023-10-30_17h43.41.121,VExplicitOC_RO,2022.2.5,Win32,60.05645307,NA,NA,NA,NA,NA,NA,NA,NA,NA,NA,NA,NA,NA,NA,NA,NA,NA,NA,NA,NA,make a drink,NA,NA,NA,NA,NA,NA,NA,NA,NA,NA,NA,NA,NA,NA,NA
MDPRF96315,5E63569C-7182-47D0-8443-4FE46224CBE8,2023-10-30_17h43.41.121,VExplicitOC_RO,2022.2.5,Win32,60.05645307,-54.07407407,4.0366,2.0079,NA,NA,NA,NA,NA,bored,"bored, not bored","more bored, less bored",NA,NA,NA,NA,NA,NA,NA,NA,NA,NA,0,0,0,2,1,NA,NA,NA,NA,NA,NA,NA,NA,NA,NA
MDPRF96315,5E63569C-7182-47D0-8443-4FE46224CBE8,2023-10-30_17h43.41.121,VExplicitOC_RO,2022.2.5,Win32,60.05645307,54.07407407,3.4459,2.0011,NA,NA,NA,NA,NA,happy,"unhappy, happy","less happy, more happy",NA,NA,NA,NA,NA,NA,NA,NA,NA,NA,0,1,1,0,1,NA,NA,NA,NA,NA,NA,NA,NA,NA,NA
MDPRF96315,5E63569C-7182-47D0-8443-4FE46224CBE8,2023-10-30_17h43.41.121,VExplicitOC_RO,2022.2.5,Win32,60.05645307,53.51851852,3.2791,2.0017,NA,NA,NA,NA,NA,frustrated,"frustrated, not frustrated","more frustrated, less frustrated",NA,NA,NA,NA,NA,NA,NA,NA,NA,NA,0,2,2,1,1,NA,NA,NA,NA,NA,NA,NA,NA,NA,NA
MDPRF96315,5E63569C-7182-47D0-8443-4FE46224CBE8,2023-10-30_17h43.41.121,VExplicitOC_RO,2022.2.5,Win32,60.05645307,NA,NA,NA,NA,NA,NA,NA,NA,NA,NA,NA,NA,NA,NA,NA,NA,NA,NA,NA,NA,NA,NA,NA,NA,NA,NA,NA,NA,NA,NA,NA,NA,NA,NA,NA,NA
MDPRF96315,5E63569C-7182-47D0-8443-4FE46224CBE8,2023-10-30_17h43.41.121,VExplicitOC_RO,2022.2.5,Win32,60.05645307,NA,NA,NA,NA,NA,NA,NA,NA,NA,NA,NA,NA,NA,NA,NA,NA,NA,NA,NA,NA,NA,NA,NA,NA,NA,NA,NA,NA,NA,NA,NA,NA,NA,NA,NA,NA
MDPRF96315,5E63569C-7182-47D0-8443-4FE46224CBE8,2023-10-30_17h43.41.121,VExplicitOC_RO,2022.2.5,Win32,60.05645307,NA,NA,2.0072,NA,NA,NA,NA,NA,happy,"unhappy, happy","less happy, more happy",NA,NA,NA,NA,NA,NA,NA,NA,NA,NA,NA,NA,NA,NA,NA,0,0,0,0,1,NA,NA,NA,NA,NA
MDPRF96315,5E63569C-7182-47D0-8443-4FE46224CBE8,2023-10-30_17h43.41.121,VExplicitOC_RO,2022.2.5,Win32,60.05645307,-63.7037037,3.5456,2.0011,NA,NA,NA,NA,NA,bored,"bored, not bored","more bored, less bored",NA,NA,NA,NA,NA,NA,NA,NA,NA,NA,NA,NA,NA,NA,NA,0,1,1,2,1,NA,NA,NA,NA,NA
MDPRF96315,5E63569C-7182-47D0-8443-4FE46224CBE8,2023-10-30_17h43.41.121,VExplicitOC_RO,2022.2.5,Win32,60.05645307,61.11111111,3.0311,2.0019,NA,NA,NA,NA,NA,frustrated,"frustrated, not frustrated","more frustrated, less frustrated",NA,NA,NA,NA,NA,NA,NA,NA,NA,NA,NA,NA,NA,NA,NA,0,2,2,1,1,NA,NA,NA,NA,NA
MDPRF96315,5E63569C-7182-47D0-8443-4FE46224CBE8,2023-10-30_17h43.41.121,VExplicitOC_RO,2022.2.5,Win32,60.05645307,NA,NA,NA,NA,NA,NA,NA,NA,NA,NA,NA,NA,NA,NA,NA,NA,NA,NA,NA,NA,NA,NA,NA,NA,NA,NA,NA,NA,NA,NA,NA,0,0,0,0,1
MDPRF96315,5E63569C-7182-47D0-8443-4FE46224CBE8,2023-10-30_17h43.41.121,VExplicitOC_RO,2022.2.5,Win32,60.05645307,21.2962963,3.2679,2.0078,NA,NA,NA,NA,NA,happy,"unhappy, happy","less happy, more happy",NA,NA,NA,NA,NA,NA,NA,NA,NA,NA,NA,NA,NA,NA,NA,0,0,0,0,1,NA,NA,NA,NA,NA
MDPRF96315,5E63569C-7182-47D0-8443-4FE46224CBE8,2023-10-30_17h43.41.121,VExplicitOC_RO,2022.2.5,Win32,60.05645307,-78.14814815,3.3503,2.0019,NA,NA,NA,NA,NA,bored,"bored, not bored","more bored, less bored",NA,NA,NA,NA,NA,NA,NA,NA,NA,NA,NA,NA,NA,NA,NA,0,1,1,2,1,NA,NA,NA,NA,NA
MDPRF96315,5E63569C-7182-47D0-8443-4FE46224CBE8,2023-10-30_17h43.41.121,VExplicitOC_RO,2022.2.5,Win32,60.05645307,33.14814815,3.8847,2.0019,NA,NA,NA,NA,NA,frustrated,"frustrated, not frustrated","more frustrated, less frustrated",NA,NA,NA,NA,NA,NA,NA,NA,NA,NA,NA,NA,NA,NA,NA,0,2,2,1,1,NA,NA,NA,NA,NA
MDPRF96315,5E63569C-7182-47D0-8443-4FE46224CBE8,2023-10-30_17h43.41.121,VExplicitOC_RO,2022.2.5,Win32,60.05645307,NA,NA,NA,NA,NA,NA,NA,NA,NA,NA,NA,NA,NA,NA,NA,NA,NA,NA,NA,NA,NA,NA,NA,NA,NA,NA,NA,NA,NA,NA,NA,1,0,1,0,1
MDPRF96315,5E63569C-7182-47D0-8443-4FE46224CBE8,2023-10-30_17h43.41.121,VExplicitOC_RO,2022.2.5,Win32,60.05645307,41.85185185,5.1251,2.0087,NA,NA,NA,NA,NA,happy,"unhappy, happy","less happy, more happy",NA,NA,NA,NA,NA,NA,NA,NA,NA,NA,NA,NA,NA,NA,NA,0,0,0,0,1,NA,NA,NA,NA,NA
MDPRF96315,5E63569C-7182-47D0-8443-4FE46224CBE8,2023-10-30_17h43.41.121,VExplicitOC_RO,2022.2.5,Win32,60.05645307,3.518518519,3.3798,2.0022,NA,NA,NA,NA,NA,frustrated,"frustrated, not frustrated","more frustrated, less frustrated",NA,NA,NA,NA,NA,NA,NA,NA,NA,NA,NA,NA,NA,NA,NA,0,1,1,1,1,NA,NA,NA,NA,NA
MDPRF96315,5E63569C-7182-47D0-8443-4FE46224CBE8,2023-10-30_17h43.41.121,VExplicitOC_RO,2022.2.5,Win32,60.05645307,-81.11111111,4.2999,2.0018,NA,NA,NA,NA,NA,bored,"bored, not bored","more bored, less bored",NA,NA,NA,NA,NA,NA,NA,NA,NA,NA,NA,NA,NA,NA,NA,0,2,2,2,1,NA,NA,NA,NA,NA
MDPRF96315,5E63569C-7182-47D0-8443-4FE46224CBE8,2023-10-30_17h43.41.121,VExplicitOC_RO,2022.2.5,Win32,60.05645307,NA,NA,NA,NA,NA,NA,NA,NA,NA,NA,NA,NA,NA,NA,NA,NA,NA,NA,NA,NA,NA,NA,NA,NA,NA,NA,NA,NA,NA,NA,NA,2,0,2,0,1
MDPRF96315,5E63569C-7182-47D0-8443-4FE46224CBE8,2023-10-30_17h43.41.121,VExplicitOC_RO,2022.2.5,Win32,60.05645307,NA,NA,2.0078,NA,NA,NA,NA,NA,happy,"unhappy, happy","less happy, more happy",NA,NA,NA,NA,NA,NA,NA,NA,NA,NA,NA,NA,NA,NA,NA,0,0,0,0,1,NA,NA,NA,NA,NA
MDPRF96315,5E63569C-7182-47D0-8443-4FE46224CBE8,2023-10-30_17h43.41.121,VExplicitOC_RO,2022.2.5,Win32,60.05645307,-40.18518519,3.3402,2.0126,NA,NA,NA,NA,NA,frustrated,"frustrated, not frustrated","more frustrated, less frustrated",NA,NA,NA,NA,NA,NA,NA,NA,NA,NA,NA,NA,NA,NA,NA,0,1,1,1,1,NA,NA,NA,NA,NA
MDPRF96315,5E63569C-7182-47D0-8443-4FE46224CBE8,2023-10-30_17h43.41.121,VExplicitOC_RO,2022.2.5,Win32,60.05645307,-84.44444444,3.0295,2.0016,NA,NA,NA,NA,NA,bored,"bored, not bored","more bored, less bored",NA,NA,NA,NA,NA,NA,NA,NA,NA,NA,NA,NA,NA,NA,NA,0,2,2,2,1,NA,NA,NA,NA,NA
MDPRF96315,5E63569C-7182-47D0-8443-4FE46224CBE8,2023-10-30_17h43.41.121,VExplicitOC_RO,2022.2.5,Win32,60.05645307,NA,NA,NA,NA,NA,NA,NA,NA,NA,NA,NA,NA,NA,NA,NA,NA,NA,NA,NA,NA,NA,NA,NA,NA,NA,NA,NA,NA,NA,NA,NA,3,0,3,0,1
MDPRF96315,5E63569C-7182-47D0-8443-4FE46224CBE8,2023-10-30_17h43.41.121,VExplicitOC_RO,2022.2.5,Win32,60.05645307,32.22222222,3.0522,2.009,NA,NA,NA,NA,NA,happy,"unhappy, happy","less happy, more happy",NA,NA,NA,NA,NA,NA,NA,NA,NA,NA,NA,NA,NA,NA,NA,0,0,0,0,1,NA,NA,NA,NA,NA
MDPRF96315,5E63569C-7182-47D0-8443-4FE46224CBE8,2023-10-30_17h43.41.121,VExplicitOC_RO,2022.2.5,Win32,60.05645307,-14.81481481,2.8649,2.0018,NA,NA,NA,NA,NA,frustrated,"frustrated, not frustrated","more frustrated, less frustrated",NA,NA,NA,NA,NA,NA,NA,NA,NA,NA,NA,NA,NA,NA,NA,0,1,1,1,1,NA,NA,NA,NA,NA
MDPRF96315,5E63569C-7182-47D0-8443-4FE46224CBE8,2023-10-30_17h43.41.121,VExplicitOC_RO,2022.2.5,Win32,60.05645307,-100,2.9979,2.0019,NA,NA,NA,NA,NA,bored,"bored, not bored","more bored, less bored",NA,NA,NA,NA,NA,NA,NA,NA,NA,NA,NA,NA,NA,NA,NA,0,2,2,2,1,NA,NA,NA,NA,NA
MDPRF96315,5E63569C-7182-47D0-8443-4FE46224CBE8,2023-10-30_17h43.41.121,VExplicitOC_RO,2022.2.5,Win32,60.05645307,NA,NA,NA,NA,NA,NA,NA,NA,NA,NA,NA,NA,NA,NA,NA,NA,NA,NA,NA,NA,NA,NA,NA,NA,NA,NA,NA,NA,NA,NA,NA,4,0,4,0,1
MDPRF96315,5E63569C-7182-47D0-8443-4FE46224CBE8,2023-10-30_17h43.41.121,VExplicitOC_RO,2022.2.5,Win32,60.05645307,-23.51851852,3.1698,2.0081,NA,NA,NA,NA,NA,frustrated,"frustrated, not frustrated","more frustrated, less frustrated",NA,NA,NA,NA,NA,NA,NA,NA,NA,NA,NA,NA,NA,NA,NA,0,0,0,1,1,NA,NA,NA,NA,NA
MDPRF96315,5E63569C-7182-47D0-8443-4FE46224CBE8,2023-10-30_17h43.41.121,VExplicitOC_RO,2022.2.5,Win32,60.05645307,36.48148148,3.0339,2.0018,NA,NA,NA,NA,NA,happy,"unhappy, happy","less happy, more happy",NA,NA,NA,NA,NA,NA,NA,NA,NA,NA,NA,NA,NA,NA,NA,0,1,1,0,1,NA,NA,NA,NA,NA
MDPRF96315,5E63569C-7182-47D0-8443-4FE46224CBE8,2023-10-30_17h43.41.121,VExplicitOC_RO,2022.2.5,Win32,60.05645307,-100,2.965,2.0018,NA,NA,NA,NA,NA,bored,"bored, not bored","more bored, less bored",NA,NA,NA,NA,NA,NA,NA,NA,NA,NA,NA,NA,NA,NA,NA,0,2,2,2,1,NA,NA,NA,NA,NA
MDPRF96315,5E63569C-7182-47D0-8443-4FE46224CBE8,2023-10-30_17h43.41.121,VExplicitOC_RO,2022.2.5,Win32,60.05645307,NA,NA,NA,NA,NA,NA,NA,NA,NA,NA,NA,NA,NA,NA,NA,NA,NA,NA,NA,NA,NA,NA,NA,NA,NA,NA,NA,NA,NA,NA,NA,5,0,5,0,1
MDPRF96315,5E63569C-7182-47D0-8443-4FE46224CBE8,2023-10-30_17h43.41.121,VExplicitOC_RO,2022.2.5,Win32,60.05645307,-100,3.2905,2.0085,NA,NA,NA,NA,NA,bored,"bored, not bored","more bored, less bored",NA,NA,NA,NA,NA,NA,NA,NA,NA,NA,NA,NA,NA,NA,NA,0,0,0,2,1,NA,NA,NA,NA,NA
MDPRF96315,5E63569C-7182-47D0-8443-4FE46224CBE8,2023-10-30_17h43.41.121,VExplicitOC_RO,2022.2.5,Win32,60.05645307,23.7037037,2.926,2.0017,NA,NA,NA,NA,NA,happy,"unhappy, happy","less happy, more happy",NA,NA,NA,NA,NA,NA,NA,NA,NA,NA,NA,NA,NA,NA,NA,0,1,1,0,1,NA,NA,NA,NA,NA
MDPRF96315,5E63569C-7182-47D0-8443-4FE46224CBE8,2023-10-30_17h43.41.121,VExplicitOC_RO,2022.2.5,Win32,60.05645307,-23.14814815,2.9433,2.0018,NA,NA,NA,NA,NA,frustrated,"frustrated, not frustrated","more frustrated, less frustrated",NA,NA,NA,NA,NA,NA,NA,NA,NA,NA,NA,NA,NA,NA,NA,0,2,2,1,1,NA,NA,NA,NA,NA
MDPRF96315,5E63569C-7182-47D0-8443-4FE46224CBE8,2023-10-30_17h43.41.121,VExplicitOC_RO,2022.2.5,Win32,60.05645307,NA,NA,NA,NA,NA,NA,NA,NA,NA,NA,NA,NA,NA,NA,NA,NA,NA,NA,NA,NA,NA,NA,NA,NA,NA,NA,NA,NA,NA,NA,NA,6,0,6,0,1
MDPRF96315,5E63569C-7182-47D0-8443-4FE46224CBE8,2023-10-30_17h43.41.121,VExplicitOC_RO,2022.2.5,Win32,60.05645307,-100,3.053,2.0096,NA,NA,NA,NA,NA,bored,"bored, not bored","more bored, less bored",NA,NA,NA,NA,NA,NA,NA,NA,NA,NA,NA,NA,NA,NA,NA,0,0,0,2,1,NA,NA,NA,NA,NA
MDPRF96315,5E63569C-7182-47D0-8443-4FE46224CBE8,2023-10-30_17h43.41.121,VExplicitOC_RO,2022.2.5,Win32,60.05645307,37.40740741,3.2283,2.0019,NA,NA,NA,NA,NA,happy,"unhappy, happy","less happy, more happy",NA,NA,NA,NA,NA,NA,NA,NA,NA,NA,NA,NA,NA,NA,NA,0,1,1,0,1,NA,NA,NA,NA,NA
MDPRF96315,5E63569C-7182-47D0-8443-4FE46224CBE8,2023-10-30_17h43.41.121,VExplicitOC_RO,2022.2.5,Win32,60.05645307,-19.44444444,2.6111,2.0017,NA,NA,NA,NA,NA,frustrated,"frustrated, not frustrated","more frustrated, less frustrated",NA,NA,NA,NA,NA,NA,NA,NA,NA,NA,NA,NA,NA,NA,NA,0,2,2,1,1,NA,NA,NA,NA,NA
MDPRF96315,5E63569C-7182-47D0-8443-4FE46224CBE8,2023-10-30_17h43.41.121,VExplicitOC_RO,2022.2.5,Win32,60.05645307,NA,NA,NA,NA,NA,NA,NA,NA,NA,NA,NA,NA,NA,NA,NA,NA,NA,NA,NA,NA,NA,NA,NA,NA,NA,NA,NA,NA,NA,NA,NA,7,0,7,0,1
MDPRF96315,5E63569C-7182-47D0-8443-4FE46224CBE8,2023-10-30_17h43.41.121,VExplicitOC_RO,2022.2.5,Win32,60.05645307,28.33333333,2.7704,2.0098,NA,NA,NA,NA,NA,happy,"unhappy, happy","less happy, more happy",NA,NA,NA,NA,NA,NA,NA,NA,NA,NA,NA,NA,NA,NA,NA,0,0,0,0,1,NA,NA,NA,NA,NA
MDPRF96315,5E63569C-7182-47D0-8443-4FE46224CBE8,2023-10-30_17h43.41.121,VExplicitOC_RO,2022.2.5,Win32,60.05645307,-27.22222222,2.8949,2.0016,NA,NA,NA,NA,NA,frustrated,"frustrated, not frustrated","more frustrated, less frustrated",NA,NA,NA,NA,NA,NA,NA,NA,NA,NA,NA,NA,NA,NA,NA,0,1,1,1,1,NA,NA,NA,NA,NA
MDPRF96315,5E63569C-7182-47D0-8443-4FE46224CBE8,2023-10-30_17h43.41.121,VExplicitOC_RO,2022.2.5,Win32,60.05645307,-100,3.6802,2.0016,NA,NA,NA,NA,NA,bored,"bored, not bored","more bored, less bored",NA,NA,NA,NA,NA,NA,NA,NA,NA,NA,NA,NA,NA,NA,NA,0,2,2,2,1,NA,NA,NA,NA,NA
MDPRF96315,5E63569C-7182-47D0-8443-4FE46224CBE8,2023-10-30_17h43.41.121,VExplicitOC_RO,2022.2.5,Win32,60.05645307,NA,NA,NA,NA,NA,NA,NA,NA,NA,NA,NA,NA,NA,NA,NA,NA,NA,NA,NA,NA,NA,NA,NA,NA,NA,NA,NA,NA,NA,NA,NA,8,0,8,0,1
MDPRF96315,5E63569C-7182-47D0-8443-4FE46224CBE8,2023-10-30_17h43.41.121,VExplicitOC_RO,2022.2.5,Win32,60.05645307,25.74074074,2.8058,2.0114,NA,NA,NA,NA,NA,happy,"unhappy, happy","less happy, more happy",NA,NA,NA,NA,NA,NA,NA,NA,NA,NA,NA,NA,NA,NA,NA,0,0,0,0,1,NA,NA,NA,NA,NA
MDPRF96315,5E63569C-7182-47D0-8443-4FE46224CBE8,2023-10-30_17h43.41.121,VExplicitOC_RO,2022.2.5,Win32,60.05645307,-89.25925926,2.8957,2.0016,NA,NA,NA,NA,NA,bored,"bored, not bored","more bored, less bored",NA,NA,NA,NA,NA,NA,NA,NA,NA,NA,NA,NA,NA,NA,NA,0,1,1,2,1,NA,NA,NA,NA,NA
MDPRF96315,5E63569C-7182-47D0-8443-4FE46224CBE8,2023-10-30_17h43.41.121,VExplicitOC_RO,2022.2.5,Win32,60.05645307,-18.7037037,2.9463,2.0018,NA,NA,NA,NA,NA,frustrated,"frustrated, not frustrated","more frustrated, less frustrated",NA,NA,NA,NA,NA,NA,NA,NA,NA,NA,NA,NA,NA,NA,NA,0,2,2,1,1,NA,NA,NA,NA,NA
MDPRF96315,5E63569C-7182-47D0-8443-4FE46224CBE8,2023-10-30_17h43.41.121,VExplicitOC_RO,2022.2.5,Win32,60.05645307,NA,NA,NA,NA,NA,NA,NA,NA,NA,NA,NA,NA,NA,NA,NA,NA,NA,NA,NA,NA,NA,NA,NA,NA,NA,NA,NA,NA,NA,NA,NA,9,0,9,0,1
MDPRF96315,5E63569C-7182-47D0-8443-4FE46224CBE8,2023-10-30_17h43.41.121,VExplicitOC_RO,2022.2.5,Win32,60.05645307,-99.81481481,3.4852,2.0079,NA,NA,NA,NA,NA,bored,"bored, not bored","more bored, less bored",NA,NA,NA,NA,NA,NA,NA,NA,NA,NA,NA,NA,NA,NA,NA,0,0,0,2,1,NA,NA,NA,NA,NA
MDPRF96315,5E63569C-7182-47D0-8443-4FE46224CBE8,2023-10-30_17h43.41.121,VExplicitOC_RO,2022.2.5,Win32,60.05645307,33.51851852,2.8933,2.0015,NA,NA,NA,NA,NA,happy,"unhappy, happy","less happy, more happy",NA,NA,NA,NA,NA,NA,NA,NA,NA,NA,NA,NA,NA,NA,NA,0,1,1,0,1,NA,NA,NA,NA,NA
MDPRF96315,5E63569C-7182-47D0-8443-4FE46224CBE8,2023-10-30_17h43.41.121,VExplicitOC_RO,2022.2.5,Win32,60.05645307,-14.07407407,2.5123,2.0018,NA,NA,NA,NA,NA,frustrated,"frustrated, not frustrated","more frustrated, less frustrated",NA,NA,NA,NA,NA,NA,NA,NA,NA,NA,NA,NA,NA,NA,NA,0,2,2,1,1,NA,NA,NA,NA,NA
MDPRF96315,5E63569C-7182-47D0-8443-4FE46224CBE8,2023-10-30_17h43.41.121,VExplicitOC_RO,2022.2.5,Win32,60.05645307,NA,NA,NA,NA,NA,NA,NA,NA,NA,NA,NA,NA,NA,NA,NA,NA,NA,NA,NA,NA,NA,NA,NA,NA,NA,NA,NA,NA,NA,NA,NA,10,0,10,0,1
MDPRF96315,5E63569C-7182-47D0-8443-4FE46224CBE8,2023-10-30_17h43.41.121,VExplicitOC_RO,2022.2.5,Win32,60.05645307,-100,2.7529,2.0085,NA,NA,NA,NA,NA,bored,"bored, not bored","more bored, less bored",NA,NA,NA,NA,NA,NA,NA,NA,NA,NA,NA,NA,NA,NA,NA,0,0,0,2,1,NA,NA,NA,NA,NA
MDPRF96315,5E63569C-7182-47D0-8443-4FE46224CBE8,2023-10-30_17h43.41.121,VExplicitOC_RO,2022.2.5,Win32,60.05645307,35.18518519,2.8643,2.0019,NA,NA,NA,NA,NA,happy,"unhappy, happy","less happy, more happy",NA,NA,NA,NA,NA,NA,NA,NA,NA,NA,NA,NA,NA,NA,NA,0,1,1,0,1,NA,NA,NA,NA,NA
MDPRF96315,5E63569C-7182-47D0-8443-4FE46224CBE8,2023-10-30_17h43.41.121,VExplicitOC_RO,2022.2.5,Win32,60.05645307,-24.074074070000002,3.1661,2.002,NA,NA,NA,NA,NA,frustrated,"frustrated, not frustrated","more frustrated, less frustrated",NA,NA,NA,NA,NA,NA,NA,NA,NA,NA,NA,NA,NA,NA,NA,0,2,2,1,1,NA,NA,NA,NA,NA
MDPRF96315,5E63569C-7182-47D0-8443-4FE46224CBE8,2023-10-30_17h43.41.121,VExplicitOC_RO,2022.2.5,Win32,60.05645307,NA,NA,NA,NA,NA,NA,NA,NA,NA,NA,NA,NA,NA,NA,NA,NA,NA,NA,NA,NA,NA,NA,NA,NA,NA,NA,NA,NA,NA,NA,NA,11,0,11,0,1
MDPRF96315,5E63569C-7182-47D0-8443-4FE46224CBE8,2023-10-30_17h43.41.121,VExplicitOC_RO,2022.2.5,Win32,60.05645307,-100,4.2068,2.0085,NA,NA,NA,NA,NA,bored,"bored, not bored","more bored, less bored",NA,NA,NA,NA,NA,NA,NA,NA,NA,NA,NA,NA,NA,NA,NA,0,0,0,2,1,NA,NA,NA,NA,NA
MDPRF96315,5E63569C-7182-47D0-8443-4FE46224CBE8,2023-10-30_17h43.41.121,VExplicitOC_RO,2022.2.5,Win32,60.05645307,29.81481481,2.7662,2.002,NA,NA,NA,NA,NA,happy,"unhappy, happy","less happy, more happy",NA,NA,NA,NA,NA,NA,NA,NA,NA,NA,NA,NA,NA,NA,NA,0,1,1,0,1,NA,NA,NA,NA,NA
MDPRF96315,5E63569C-7182-47D0-8443-4FE46224CBE8,2023-10-30_17h43.41.121,VExplicitOC_RO,2022.2.5,Win32,60.05645307,-42.40740741,2.6789,2.0017,NA,NA,NA,NA,NA,frustrated,"frustrated, not frustrated","more frustrated, less frustrated",NA,NA,NA,NA,NA,NA,NA,NA,NA,NA,NA,NA,NA,NA,NA,0,2,2,1,1,NA,NA,NA,NA,NA
MDPRF96315,5E63569C-7182-47D0-8443-4FE46224CBE8,2023-10-30_17h43.41.121,VExplicitOC_RO,2022.2.5,Win32,60.05645307,NA,NA,NA,NA,NA,NA,NA,NA,NA,NA,NA,NA,NA,NA,NA,NA,NA,NA,NA,NA,NA,NA,NA,NA,NA,NA,NA,NA,NA,NA,NA,12,0,12,0,1
MDPRF96315,5E63569C-7182-47D0-8443-4FE46224CBE8,2023-10-30_17h43.41.121,VExplicitOC_RO,2022.2.5,Win32,60.05645307,40.37037037,2.9575,2.0091,NA,NA,NA,NA,NA,happy,"unhappy, happy","less happy, more happy",NA,NA,NA,NA,NA,NA,NA,NA,NA,NA,NA,NA,NA,NA,NA,0,0,0,0,1,NA,NA,NA,NA,NA
MDPRF96315,5E63569C-7182-47D0-8443-4FE46224CBE8,2023-10-30_17h43.41.121,VExplicitOC_RO,2022.2.5,Win32,60.05645307,-45.37037037,2.8293,2.002,NA,NA,NA,NA,NA,frustrated,"frustrated, not frustrated","more frustrated, less frustrated",NA,NA,NA,NA,NA,NA,NA,NA,NA,NA,NA,NA,NA,NA,NA,0,1,1,1,1,NA,NA,NA,NA,NA
MDPRF96315,5E63569C-7182-47D0-8443-4FE46224CBE8,2023-10-30_17h43.41.121,VExplicitOC_RO,2022.2.5,Win32,60.05645307,-100,2.5992,2.0017,NA,NA,NA,NA,NA,bored,"bored, not bored","more bored, less bored",NA,NA,NA,NA,NA,NA,NA,NA,NA,NA,NA,NA,NA,NA,NA,0,2,2,2,1,NA,NA,NA,NA,NA
MDPRF96315,5E63569C-7182-47D0-8443-4FE46224CBE8,2023-10-30_17h43.41.121,VExplicitOC_RO,2022.2.5,Win32,60.05645307,NA,NA,NA,NA,NA,NA,NA,NA,NA,NA,NA,NA,NA,NA,NA,NA,NA,NA,NA,NA,NA,NA,NA,NA,NA,NA,NA,NA,NA,NA,NA,13,0,13,0,1
MDPRF96315,5E63569C-7182-47D0-8443-4FE46224CBE8,2023-10-30_17h43.41.121,VExplicitOC_RO,2022.2.5,Win32,60.05645307,-42.59259259,3.2519,2.0079,NA,NA,NA,NA,NA,frustrated,"frustrated, not frustrated","more frustrated, less frustrated",NA,NA,NA,NA,NA,NA,NA,NA,NA,NA,NA,NA,NA,NA,NA,0,0,0,1,1,NA,NA,NA,NA,NA
MDPRF96315,5E63569C-7182-47D0-8443-4FE46224CBE8,2023-10-30_17h43.41.121,VExplicitOC_RO,2022.2.5,Win32,60.05645307,46.2962963,2.8995,2.0017,NA,NA,NA,NA,NA,happy,"unhappy, happy","less happy, more happy",NA,NA,NA,NA,NA,NA,NA,NA,NA,NA,NA,NA,NA,NA,NA,0,1,1,0,1,NA,NA,NA,NA,NA
MDPRF96315,5E63569C-7182-47D0-8443-4FE46224CBE8,2023-10-30_17h43.41.121,VExplicitOC_RO,2022.2.5,Win32,60.05645307,-100,2.785,2.0018,NA,NA,NA,NA,NA,bored,"bored, not bored","more bored, less bored",NA,NA,NA,NA,NA,NA,NA,NA,NA,NA,NA,NA,NA,NA,NA,0,2,2,2,1,NA,NA,NA,NA,NA
MDPRF96315,5E63569C-7182-47D0-8443-4FE46224CBE8,2023-10-30_17h43.41.121,VExplicitOC_RO,2022.2.5,Win32,60.05645307,NA,NA,NA,NA,NA,NA,NA,NA,NA,NA,NA,NA,NA,NA,NA,NA,NA,NA,NA,NA,NA,NA,NA,NA,NA,NA,NA,NA,NA,NA,NA,14,0,14,0,1
MDPRF96315,5E63569C-7182-47D0-8443-4FE46224CBE8,2023-10-30_17h43.41.121,VExplicitOC_RO,2022.2.5,Win32,60.05645307,NA,NA,NA,NA,NA,NA,NA,NA,NA,NA,NA,NA,NA,NA,NA,NA,NA,NA,NA,NA,NA,NA,NA,NA,NA,NA,NA,NA,NA,NA,NA,NA,NA,NA,NA,NA
MDPRF96315,5E63569C-7182-47D0-8443-4FE46224CBE8,2023-10-30_17h43.41.121,VExplicitOC_RO,2022.2.5,Win32,60.05645307,NA,NA,NA,NA,NA,NA,NA,NA,NA,NA,NA,NA,NA,NA,NA,NA,NA,NA,NA,NA,NA,NA,NA,NA,NA,NA,NA,NA,NA,NA,NA,NA,NA,NA,NA,NA
