participant,session,date,expName,psychopyVersion,OS,frameRate,rating_all.response,rating_all.rt,rating_all.tStart,rndRat1.thisRepN,rndRat1.thisTrialN,rndRat1.thisN,rndRat1.thisIndex,rndRat1.ran,Emo,Labs,Labs2,rating_alt.response,rating_alt.rt,AltC.thisRepN,AltC.thisTrialN,AltC.thisN,AltC.thisIndex,AltC.ran,alt_choices,pic_choices,TopAlt_Choice,rndRat2.thisRepN,rndRat2.thisTrialN,rndRat2.thisN,rndRat2.thisIndex,rndRat2.ran,rndRat3.thisRepN,rndRat3.thisTrialN,rndRat3.thisN,rndRat3.thisIndex,rndRat3.ran,trials_FC_H.thisRepN,trials_FC_H.thisTrialN,trials_FC_H.thisN,trials_FC_H.thisIndex,trials_FC_H.ran
MDPRF85380,ED926905-839F-40C6-A989-FAF0E1E5838C,2023-10-30_17h34.34.336,VExplicitOC_RO,2022.2.5,MacIntel,60.0024001,NA,NA,NA,NA,NA,NA,NA,NA,NA,NA,NA,NA,NA,NA,NA,NA,NA,NA,NA,NA,NA,NA,NA,NA,NA,NA,NA,NA,NA,NA,NA,NA,NA,NA,NA,NA
MDPRF85380,ED926905-839F-40C6-A989-FAF0E1E5838C,2023-10-30_17h34.34.336,VExplicitOC_RO,2022.2.5,MacIntel,60.0024001,NA,NA,NA,NA,NA,NA,NA,NA,NA,NA,NA,NA,NA,NA,NA,NA,NA,NA,NA,NA,NA,NA,NA,NA,NA,NA,NA,NA,NA,NA,NA,NA,NA,NA,NA,NA
MDPRF85380,ED926905-839F-40C6-A989-FAF0E1E5838C,2023-10-30_17h34.34.336,VExplicitOC_RO,2022.2.5,MacIntel,60.0024001,NA,NA,NA,NA,NA,NA,NA,NA,NA,NA,NA,NA,NA,NA,NA,NA,NA,NA,NA,NA,NA,NA,NA,NA,NA,NA,NA,NA,NA,NA,NA,NA,NA,NA,NA,NA
MDPRF85380,ED926905-839F-40C6-A989-FAF0E1E5838C,2023-10-30_17h34.34.336,VExplicitOC_RO,2022.2.5,MacIntel,60.0024001,-57.78277853,3.93,2.0125,0,0,0,2,1,bored,"bored, not bored","more bored, less bored",NA,NA,NA,NA,NA,NA,NA,NA,NA,NA,NA,NA,NA,NA,NA,NA,NA,NA,NA,NA,NA,NA,NA,NA,NA
MDPRF85380,ED926905-839F-40C6-A989-FAF0E1E5838C,2023-10-30_17h34.34.336,VExplicitOC_RO,2022.2.5,MacIntel,60.0024001,84.18817935,3.3465,2.0158,0,1,1,1,1,frustrated,"frustrated, not frustrated","more frustrated, less frustrated",NA,NA,NA,NA,NA,NA,NA,NA,NA,NA,NA,NA,NA,NA,NA,NA,NA,NA,NA,NA,NA,NA,NA,NA,NA
MDPRF85380,ED926905-839F-40C6-A989-FAF0E1E5838C,2023-10-30_17h34.34.336,VExplicitOC_RO,2022.2.5,MacIntel,60.0024001,39.69769022,2.8576,2.016,0,2,2,0,1,happy,"unhappy, happy","less happy, more happy",NA,NA,NA,NA,NA,NA,NA,NA,NA,NA,NA,NA,NA,NA,NA,NA,NA,NA,NA,NA,NA,NA,NA,NA,NA
MDPRF85380,ED926905-839F-40C6-A989-FAF0E1E5838C,2023-10-30_17h34.34.336,VExplicitOC_RO,2022.2.5,MacIntel,60.0024001,NA,NA,NA,NA,NA,NA,NA,NA,NA,NA,NA,NA,NA,NA,NA,NA,NA,NA,NA,NA,NA,NA,NA,NA,NA,NA,NA,NA,NA,NA,NA,NA,NA,NA,NA,NA
MDPRF85380,ED926905-839F-40C6-A989-FAF0E1E5838C,2023-10-30_17h34.34.336,VExplicitOC_RO,2022.2.5,MacIntel,60.0024001,NA,NA,NA,NA,NA,NA,NA,NA,NA,NA,NA,NA,NA,NA,NA,NA,NA,NA,NA,NA,NA,NA,NA,NA,NA,NA,NA,NA,NA,NA,NA,NA,NA,NA,NA,NA
MDPRF85380,ED926905-839F-40C6-A989-FAF0E1E5838C,2023-10-30_17h34.34.336,VExplicitOC_RO,2022.2.5,MacIntel,60.0024001,NA,NA,NA,NA,NA,NA,NA,NA,NA,NA,NA,NA,NA,NA,NA,NA,NA,NA,NA,NA,NA,NA,NA,NA,NA,NA,NA,NA,NA,NA,NA,NA,NA,NA,NA,NA
MDPRF85380,ED926905-839F-40C6-A989-FAF0E1E5838C,2023-10-30_17h34.34.336,VExplicitOC_RO,2022.2.5,MacIntel,60.0024001,NA,NA,NA,NA,NA,NA,NA,NA,NA,NA,NA,NA,NA,NA,NA,NA,NA,NA,NA,NA,NA,NA,NA,NA,NA,NA,NA,NA,NA,NA,NA,NA,NA,NA,NA,NA
MDPRF85380,ED926905-839F-40C6-A989-FAF0E1E5838C,2023-10-30_17h34.34.336,VExplicitOC_RO,2022.2.5,MacIntel,60.0024001,NA,NA,NA,NA,NA,NA,NA,NA,NA,NA,NA,42.21382473,5.5498,0,0,0,0,1,rest (looking at a fixed cross),001.png,NA,NA,NA,NA,NA,NA,NA,NA,NA,NA,NA,NA,NA,NA,NA,NA
MDPRF85380,ED926905-839F-40C6-A989-FAF0E1E5838C,2023-10-30_17h34.34.336,VExplicitOC_RO,2022.2.5,MacIntel,60.0024001,NA,NA,NA,NA,NA,NA,NA,NA,NA,NA,NA,14.51002038,2.4953,0,1,1,1,1,stand up,002.png,NA,NA,NA,NA,NA,NA,NA,NA,NA,NA,NA,NA,NA,NA,NA,NA
MDPRF85380,ED926905-839F-40C6-A989-FAF0E1E5838C,2023-10-30_17h34.34.336,VExplicitOC_RO,2022.2.5,MacIntel,60.0024001,NA,NA,NA,NA,NA,NA,NA,NA,NA,NA,NA,-25.02887228,1.9259,0,2,2,2,1,stretch,003.png,NA,NA,NA,NA,NA,NA,NA,NA,NA,NA,NA,NA,NA,NA,NA,NA
MDPRF85380,ED926905-839F-40C6-A989-FAF0E1E5838C,2023-10-30_17h34.34.336,VExplicitOC_RO,2022.2.5,MacIntel,60.0024001,NA,NA,NA,NA,NA,NA,NA,NA,NA,NA,NA,32.58576766,1.9703,0,3,3,3,1,make a drink,004.png,NA,NA,NA,NA,NA,NA,NA,NA,NA,NA,NA,NA,NA,NA,NA,NA
MDPRF85380,ED926905-839F-40C6-A989-FAF0E1E5838C,2023-10-30_17h34.34.336,VExplicitOC_RO,2022.2.5,MacIntel,60.0024001,NA,NA,NA,NA,NA,NA,NA,NA,NA,NA,NA,60.47129755,1.5765,0,4,4,4,1,scroll social media,005.png,NA,NA,NA,NA,NA,NA,NA,NA,NA,NA,NA,NA,NA,NA,NA,NA
MDPRF85380,ED926905-839F-40C6-A989-FAF0E1E5838C,2023-10-30_17h34.34.336,VExplicitOC_RO,2022.2.5,MacIntel,60.0024001,NA,NA,NA,NA,NA,NA,NA,NA,NA,NA,NA,93.42136549,1.6192,0,5,5,5,1,listen to music,006.png,NA,NA,NA,NA,NA,NA,NA,NA,NA,NA,NA,NA,NA,NA,NA,NA
MDPRF85380,ED926905-839F-40C6-A989-FAF0E1E5838C,2023-10-30_17h34.34.336,VExplicitOC_RO,2022.2.5,MacIntel,60.0024001,NA,NA,NA,NA,NA,NA,NA,NA,NA,NA,NA,26.58542799,1.559,0,6,6,6,1,daydream,007.png,NA,NA,NA,NA,NA,NA,NA,NA,NA,NA,NA,NA,NA,NA,NA,NA
MDPRF85380,ED926905-839F-40C6-A989-FAF0E1E5838C,2023-10-30_17h34.34.336,VExplicitOC_RO,2022.2.5,MacIntel,60.0024001,NA,NA,NA,NA,NA,NA,NA,NA,NA,NA,NA,-41.34850543,1.869,0,7,7,7,1,watch a short animation,008.png,NA,NA,NA,NA,NA,NA,NA,NA,NA,NA,NA,NA,NA,NA,NA,NA
MDPRF85380,ED926905-839F-40C6-A989-FAF0E1E5838C,2023-10-30_17h34.34.336,VExplicitOC_RO,2022.2.5,MacIntel,60.0024001,NA,NA,NA,NA,NA,NA,NA,NA,NA,NA,NA,-50.86277174,2.336,0,8,8,8,1,read a novel,009.png,NA,NA,NA,NA,NA,NA,NA,NA,NA,NA,NA,NA,NA,NA,NA,NA
MDPRF85380,ED926905-839F-40C6-A989-FAF0E1E5838C,2023-10-30_17h34.34.336,VExplicitOC_RO,2022.2.5,MacIntel,60.0024001,NA,NA,NA,NA,NA,NA,NA,NA,NA,NA,NA,-47.69361413,1.6415,0,9,9,9,1,read the news,010.png,NA,NA,NA,NA,NA,NA,NA,NA,NA,NA,NA,NA,NA,NA,NA,NA
MDPRF85380,ED926905-839F-40C6-A989-FAF0E1E5838C,2023-10-30_17h34.34.336,VExplicitOC_RO,2022.2.5,MacIntel,60.0024001,NA,NA,NA,NA,NA,NA,NA,NA,NA,NA,NA,NA,NA,NA,NA,NA,NA,NA,NA,NA,NA,NA,NA,NA,NA,NA,NA,NA,NA,NA,NA,NA,NA,NA,NA,NA
MDPRF85380,ED926905-839F-40C6-A989-FAF0E1E5838C,2023-10-30_17h34.34.336,VExplicitOC_RO,2022.2.5,MacIntel,60.0024001,NA,NA,NA,NA,NA,NA,NA,NA,NA,NA,NA,NA,NA,NA,NA,NA,NA,NA,NA,NA,listen to music,NA,NA,NA,NA,NA,NA,NA,NA,NA,NA,NA,NA,NA,NA,NA
MDPRF85380,ED926905-839F-40C6-A989-FAF0E1E5838C,2023-10-30_17h34.34.336,VExplicitOC_RO,2022.2.5,MacIntel,60.0024001,45.00339674,4.3632,2.0076,NA,NA,NA,NA,NA,frustrated,"frustrated, not frustrated","more frustrated, less frustrated",NA,NA,NA,NA,NA,NA,NA,NA,NA,NA,0,0,0,1,1,NA,NA,NA,NA,NA,NA,NA,NA,NA,NA
MDPRF85380,ED926905-839F-40C6-A989-FAF0E1E5838C,2023-10-30_17h34.34.336,VExplicitOC_RO,2022.2.5,MacIntel,60.0024001,-41.46993886,3.1925,2.0186,NA,NA,NA,NA,NA,bored,"bored, not bored","more bored, less bored",NA,NA,NA,NA,NA,NA,NA,NA,NA,NA,0,1,1,2,1,NA,NA,NA,NA,NA,NA,NA,NA,NA,NA
MDPRF85380,ED926905-839F-40C6-A989-FAF0E1E5838C,2023-10-30_17h34.34.336,VExplicitOC_RO,2022.2.5,MacIntel,60.0024001,57.52122962,2.9091,2.0171,NA,NA,NA,NA,NA,happy,"unhappy, happy","less happy, more happy",NA,NA,NA,NA,NA,NA,NA,NA,NA,NA,0,2,2,0,1,NA,NA,NA,NA,NA,NA,NA,NA,NA,NA
MDPRF85380,ED926905-839F-40C6-A989-FAF0E1E5838C,2023-10-30_17h34.34.336,VExplicitOC_RO,2022.2.5,MacIntel,60.0024001,NA,NA,NA,NA,NA,NA,NA,NA,NA,NA,NA,NA,NA,NA,NA,NA,NA,NA,NA,NA,NA,NA,NA,NA,NA,NA,NA,NA,NA,NA,NA,NA,NA,NA,NA,NA
MDPRF85380,ED926905-839F-40C6-A989-FAF0E1E5838C,2023-10-30_17h34.34.336,VExplicitOC_RO,2022.2.5,MacIntel,60.0024001,NA,NA,NA,NA,NA,NA,NA,NA,NA,NA,NA,NA,NA,NA,NA,NA,NA,NA,NA,NA,NA,NA,NA,NA,NA,NA,NA,NA,NA,NA,NA,NA,NA,NA,NA,NA
MDPRF85380,ED926905-839F-40C6-A989-FAF0E1E5838C,2023-10-30_17h34.34.336,VExplicitOC_RO,2022.2.5,MacIntel,60.0024001,-36.41644022,3.7279,2.0072,NA,NA,NA,NA,NA,bored,"bored, not bored","more bored, less bored",NA,NA,NA,NA,NA,NA,NA,NA,NA,NA,NA,NA,NA,NA,NA,0,0,0,2,1,NA,NA,NA,NA,NA
MDPRF85380,ED926905-839F-40C6-A989-FAF0E1E5838C,2023-10-30_17h34.34.336,VExplicitOC_RO,2022.2.5,MacIntel,60.0024001,15.38892663,3.5373,2.0171,NA,NA,NA,NA,NA,happy,"unhappy, happy","less happy, more happy",NA,NA,NA,NA,NA,NA,NA,NA,NA,NA,NA,NA,NA,NA,NA,0,1,1,0,1,NA,NA,NA,NA,NA
MDPRF85380,ED926905-839F-40C6-A989-FAF0E1E5838C,2023-10-30_17h34.34.336,VExplicitOC_RO,2022.2.5,MacIntel,60.0024001,-40.10360054,2.9452,2.0003,NA,NA,NA,NA,NA,frustrated,"frustrated, not frustrated","more frustrated, less frustrated",NA,NA,NA,NA,NA,NA,NA,NA,NA,NA,NA,NA,NA,NA,NA,0,2,2,1,1,NA,NA,NA,NA,NA
MDPRF85380,ED926905-839F-40C6-A989-FAF0E1E5838C,2023-10-30_17h34.34.336,VExplicitOC_RO,2022.2.5,MacIntel,60.0024001,NA,NA,NA,NA,NA,NA,NA,NA,NA,NA,NA,NA,NA,NA,NA,NA,NA,NA,NA,NA,NA,NA,NA,NA,NA,NA,NA,NA,NA,NA,NA,0,0,0,0,1
MDPRF85380,ED926905-839F-40C6-A989-FAF0E1E5838C,2023-10-30_17h34.34.336,VExplicitOC_RO,2022.2.5,MacIntel,60.0024001,-27.83033288,2.8391,2.008,NA,NA,NA,NA,NA,bored,"bored, not bored","more bored, less bored",NA,NA,NA,NA,NA,NA,NA,NA,NA,NA,NA,NA,NA,NA,NA,0,0,0,2,1,NA,NA,NA,NA,NA
MDPRF85380,ED926905-839F-40C6-A989-FAF0E1E5838C,2023-10-30_17h34.34.336,VExplicitOC_RO,2022.2.5,MacIntel,60.0024001,53.96654212,2.7705,2.0168,NA,NA,NA,NA,NA,happy,"unhappy, happy","less happy, more happy",NA,NA,NA,NA,NA,NA,NA,NA,NA,NA,NA,NA,NA,NA,NA,0,1,1,0,1,NA,NA,NA,NA,NA
MDPRF85380,ED926905-839F-40C6-A989-FAF0E1E5838C,2023-10-30_17h34.34.336,VExplicitOC_RO,2022.2.5,MacIntel,60.0024001,-6.691576087,2.5196,2.0169,NA,NA,NA,NA,NA,frustrated,"frustrated, not frustrated","more frustrated, less frustrated",NA,NA,NA,NA,NA,NA,NA,NA,NA,NA,NA,NA,NA,NA,NA,0,2,2,1,1,NA,NA,NA,NA,NA
MDPRF85380,ED926905-839F-40C6-A989-FAF0E1E5838C,2023-10-30_17h34.34.336,VExplicitOC_RO,2022.2.5,MacIntel,60.0024001,NA,NA,NA,NA,NA,NA,NA,NA,NA,NA,NA,NA,NA,NA,NA,NA,NA,NA,NA,NA,NA,NA,NA,NA,NA,NA,NA,NA,NA,NA,NA,1,0,1,0,1
MDPRF85380,ED926905-839F-40C6-A989-FAF0E1E5838C,2023-10-30_17h34.34.336,VExplicitOC_RO,2022.2.5,MacIntel,60.0024001,-60.45855978,2.8941,2.0073,NA,NA,NA,NA,NA,bored,"bored, not bored","more bored, less bored",NA,NA,NA,NA,NA,NA,NA,NA,NA,NA,NA,NA,NA,NA,NA,0,0,0,2,1,NA,NA,NA,NA,NA
MDPRF85380,ED926905-839F-40C6-A989-FAF0E1E5838C,2023-10-30_17h34.34.336,VExplicitOC_RO,2022.2.5,MacIntel,60.0024001,-14.6204144,2.905,2.0002,NA,NA,NA,NA,NA,frustrated,"frustrated, not frustrated","more frustrated, less frustrated",NA,NA,NA,NA,NA,NA,NA,NA,NA,NA,NA,NA,NA,NA,NA,0,1,1,1,1,NA,NA,NA,NA,NA
MDPRF85380,ED926905-839F-40C6-A989-FAF0E1E5838C,2023-10-30_17h34.34.336,VExplicitOC_RO,2022.2.5,MacIntel,60.0024001,29.21195652,3.2593,2.0004,NA,NA,NA,NA,NA,happy,"unhappy, happy","less happy, more happy",NA,NA,NA,NA,NA,NA,NA,NA,NA,NA,NA,NA,NA,NA,NA,0,2,2,0,1,NA,NA,NA,NA,NA
MDPRF85380,ED926905-839F-40C6-A989-FAF0E1E5838C,2023-10-30_17h34.34.336,VExplicitOC_RO,2022.2.5,MacIntel,60.0024001,NA,NA,NA,NA,NA,NA,NA,NA,NA,NA,NA,NA,NA,NA,NA,NA,NA,NA,NA,NA,NA,NA,NA,NA,NA,NA,NA,NA,NA,NA,NA,2,0,2,0,1
MDPRF85380,ED926905-839F-40C6-A989-FAF0E1E5838C,2023-10-30_17h34.34.336,VExplicitOC_RO,2022.2.5,MacIntel,60.0024001,NA,NA,2.013,NA,NA,NA,NA,NA,happy,"unhappy, happy","less happy, more happy",NA,NA,NA,NA,NA,NA,NA,NA,NA,NA,NA,NA,NA,NA,NA,0,0,0,0,1,NA,NA,NA,NA,NA
MDPRF85380,ED926905-839F-40C6-A989-FAF0E1E5838C,2023-10-30_17h34.34.336,VExplicitOC_RO,2022.2.5,MacIntel,60.0024001,-62.0422894,3.5303,2.0151,NA,NA,NA,NA,NA,frustrated,"frustrated, not frustrated","more frustrated, less frustrated",NA,NA,NA,NA,NA,NA,NA,NA,NA,NA,NA,NA,NA,NA,NA,0,1,1,1,1,NA,NA,NA,NA,NA
MDPRF85380,ED926905-839F-40C6-A989-FAF0E1E5838C,2023-10-30_17h34.34.336,VExplicitOC_RO,2022.2.5,MacIntel,60.0024001,-23.55383832,2.9431,2.0175,NA,NA,NA,NA,NA,bored,"bored, not bored","more bored, less bored",NA,NA,NA,NA,NA,NA,NA,NA,NA,NA,NA,NA,NA,NA,NA,0,2,2,2,1,NA,NA,NA,NA,NA
MDPRF85380,ED926905-839F-40C6-A989-FAF0E1E5838C,2023-10-30_17h34.34.336,VExplicitOC_RO,2022.2.5,MacIntel,60.0024001,NA,NA,NA,NA,NA,NA,NA,NA,NA,NA,NA,NA,NA,NA,NA,NA,NA,NA,NA,NA,NA,NA,NA,NA,NA,NA,NA,NA,NA,NA,NA,3,0,3,0,1
MDPRF85380,ED926905-839F-40C6-A989-FAF0E1E5838C,2023-10-30_17h34.34.336,VExplicitOC_RO,2022.2.5,MacIntel,60.0024001,-51.05298913,2.6764,2.0111,NA,NA,NA,NA,NA,frustrated,"frustrated, not frustrated","more frustrated, less frustrated",NA,NA,NA,NA,NA,NA,NA,NA,NA,NA,NA,NA,NA,NA,NA,0,0,0,1,1,NA,NA,NA,NA,NA
MDPRF85380,ED926905-839F-40C6-A989-FAF0E1E5838C,2023-10-30_17h34.34.336,VExplicitOC_RO,2022.2.5,MacIntel,60.0024001,-61.89028533,3.1793,2.0157,NA,NA,NA,NA,NA,bored,"bored, not bored","more bored, less bored",NA,NA,NA,NA,NA,NA,NA,NA,NA,NA,NA,NA,NA,NA,NA,0,1,1,2,1,NA,NA,NA,NA,NA
MDPRF85380,ED926905-839F-40C6-A989-FAF0E1E5838C,2023-10-30_17h34.34.336,VExplicitOC_RO,2022.2.5,MacIntel,60.0024001,2.338654891,2.5771,2.015,NA,NA,NA,NA,NA,happy,"unhappy, happy","less happy, more happy",NA,NA,NA,NA,NA,NA,NA,NA,NA,NA,NA,NA,NA,NA,NA,0,2,2,0,1,NA,NA,NA,NA,NA
MDPRF85380,ED926905-839F-40C6-A989-FAF0E1E5838C,2023-10-30_17h34.34.336,VExplicitOC_RO,2022.2.5,MacIntel,60.0024001,NA,NA,NA,NA,NA,NA,NA,NA,NA,NA,NA,NA,NA,NA,NA,NA,NA,NA,NA,NA,NA,NA,NA,NA,NA,NA,NA,NA,NA,NA,NA,4,0,4,0,1
MDPRF85380,ED926905-839F-40C6-A989-FAF0E1E5838C,2023-10-30_17h34.34.336,VExplicitOC_RO,2022.2.5,MacIntel,60.0024001,-16.05298913,3.1391,2.0119,NA,NA,NA,NA,NA,happy,"unhappy, happy","less happy, more happy",NA,NA,NA,NA,NA,NA,NA,NA,NA,NA,NA,NA,NA,NA,NA,0,0,0,0,1,NA,NA,NA,NA,NA
MDPRF85380,ED926905-839F-40C6-A989-FAF0E1E5838C,2023-10-30_17h34.34.336,VExplicitOC_RO,2022.2.5,MacIntel,60.0024001,-53.38569973,2.4956,2.0183,NA,NA,NA,NA,NA,frustrated,"frustrated, not frustrated","more frustrated, less frustrated",NA,NA,NA,NA,NA,NA,NA,NA,NA,NA,NA,NA,NA,NA,NA,0,1,1,1,1,NA,NA,NA,NA,NA
MDPRF85380,ED926905-839F-40C6-A989-FAF0E1E5838C,2023-10-30_17h34.34.336,VExplicitOC_RO,2022.2.5,MacIntel,60.0024001,-75.9655231,2.7348,2.0163,NA,NA,NA,NA,NA,bored,"bored, not bored","more bored, less bored",NA,NA,NA,NA,NA,NA,NA,NA,NA,NA,NA,NA,NA,NA,NA,0,2,2,2,1,NA,NA,NA,NA,NA
MDPRF85380,ED926905-839F-40C6-A989-FAF0E1E5838C,2023-10-30_17h34.34.336,VExplicitOC_RO,2022.2.5,MacIntel,60.0024001,NA,NA,NA,NA,NA,NA,NA,NA,NA,NA,NA,NA,NA,NA,NA,NA,NA,NA,NA,NA,NA,NA,NA,NA,NA,NA,NA,NA,NA,NA,NA,5,0,5,0,1
MDPRF85380,ED926905-839F-40C6-A989-FAF0E1E5838C,2023-10-30_17h34.34.336,VExplicitOC_RO,2022.2.5,MacIntel,60.0024001,-36.81810462,2.9821,2.0089,NA,NA,NA,NA,NA,bored,"bored, not bored","more bored, less bored",NA,NA,NA,NA,NA,NA,NA,NA,NA,NA,NA,NA,NA,NA,NA,0,0,0,2,1,NA,NA,NA,NA,NA
MDPRF85380,ED926905-839F-40C6-A989-FAF0E1E5838C,2023-10-30_17h34.34.336,VExplicitOC_RO,2022.2.5,MacIntel,60.0024001,-34.04806386,5.0931,2.0012,NA,NA,NA,NA,NA,frustrated,"frustrated, not frustrated","more frustrated, less frustrated",NA,NA,NA,NA,NA,NA,NA,NA,NA,NA,NA,NA,NA,NA,NA,0,1,1,1,1,NA,NA,NA,NA,NA
MDPRF85380,ED926905-839F-40C6-A989-FAF0E1E5838C,2023-10-30_17h34.34.336,VExplicitOC_RO,2022.2.5,MacIntel,60.0024001,-26.01307745,2.5031,2.016,NA,NA,NA,NA,NA,happy,"unhappy, happy","less happy, more happy",NA,NA,NA,NA,NA,NA,NA,NA,NA,NA,NA,NA,NA,NA,NA,0,2,2,0,1,NA,NA,NA,NA,NA
MDPRF85380,ED926905-839F-40C6-A989-FAF0E1E5838C,2023-10-30_17h34.34.336,VExplicitOC_RO,2022.2.5,MacIntel,60.0024001,NA,NA,NA,NA,NA,NA,NA,NA,NA,NA,NA,NA,NA,NA,NA,NA,NA,NA,NA,NA,NA,NA,NA,NA,NA,NA,NA,NA,NA,NA,NA,6,0,6,0,1
MDPRF85380,ED926905-839F-40C6-A989-FAF0E1E5838C,2023-10-30_17h34.34.336,VExplicitOC_RO,2022.2.5,MacIntel,60.0024001,-27.55859375,4.5172,2.0126,NA,NA,NA,NA,NA,happy,"unhappy, happy","less happy, more happy",NA,NA,NA,NA,NA,NA,NA,NA,NA,NA,NA,NA,NA,NA,NA,0,0,0,0,1,NA,NA,NA,NA,NA
MDPRF85380,ED926905-839F-40C6-A989-FAF0E1E5838C,2023-10-30_17h34.34.336,VExplicitOC_RO,2022.2.5,MacIntel,60.0024001,-20.61650815,3.2365,2.0173,NA,NA,NA,NA,NA,frustrated,"frustrated, not frustrated","more frustrated, less frustrated",NA,NA,NA,NA,NA,NA,NA,NA,NA,NA,NA,NA,NA,NA,NA,0,1,1,1,1,NA,NA,NA,NA,NA
MDPRF85380,ED926905-839F-40C6-A989-FAF0E1E5838C,2023-10-30_17h34.34.336,VExplicitOC_RO,2022.2.5,MacIntel,60.0024001,-42.48811141,3.0637,2.0003,NA,NA,NA,NA,NA,bored,"bored, not bored","more bored, less bored",NA,NA,NA,NA,NA,NA,NA,NA,NA,NA,NA,NA,NA,NA,NA,0,2,2,2,1,NA,NA,NA,NA,NA
MDPRF85380,ED926905-839F-40C6-A989-FAF0E1E5838C,2023-10-30_17h34.34.336,VExplicitOC_RO,2022.2.5,MacIntel,60.0024001,NA,NA,NA,NA,NA,NA,NA,NA,NA,NA,NA,NA,NA,NA,NA,NA,NA,NA,NA,NA,NA,NA,NA,NA,NA,NA,NA,NA,NA,NA,NA,7,0,7,0,1
MDPRF85380,ED926905-839F-40C6-A989-FAF0E1E5838C,2023-10-30_17h34.34.336,VExplicitOC_RO,2022.2.5,MacIntel,60.0024001,-36.55825408,4.1226,2.0091,NA,NA,NA,NA,NA,happy,"unhappy, happy","less happy, more happy",NA,NA,NA,NA,NA,NA,NA,NA,NA,NA,NA,NA,NA,NA,NA,0,0,0,0,1,NA,NA,NA,NA,NA
MDPRF85380,ED926905-839F-40C6-A989-FAF0E1E5838C,2023-10-30_17h34.34.336,VExplicitOC_RO,2022.2.5,MacIntel,60.0024001,-35.10784647,6.7614,2.0166,NA,NA,NA,NA,NA,frustrated,"frustrated, not frustrated","more frustrated, less frustrated",NA,NA,NA,NA,NA,NA,NA,NA,NA,NA,NA,NA,NA,NA,NA,0,1,1,1,1,NA,NA,NA,NA,NA
MDPRF85380,ED926905-839F-40C6-A989-FAF0E1E5838C,2023-10-30_17h34.34.336,VExplicitOC_RO,2022.2.5,MacIntel,60.0024001,-49.49558424,2.4203,2.0135,NA,NA,NA,NA,NA,bored,"bored, not bored","more bored, less bored",NA,NA,NA,NA,NA,NA,NA,NA,NA,NA,NA,NA,NA,NA,NA,0,2,2,2,1,NA,NA,NA,NA,NA
MDPRF85380,ED926905-839F-40C6-A989-FAF0E1E5838C,2023-10-30_17h34.34.336,VExplicitOC_RO,2022.2.5,MacIntel,60.0024001,NA,NA,NA,NA,NA,NA,NA,NA,NA,NA,NA,NA,NA,NA,NA,NA,NA,NA,NA,NA,NA,NA,NA,NA,NA,NA,NA,NA,NA,NA,NA,8,0,8,0,1
MDPRF85380,ED926905-839F-40C6-A989-FAF0E1E5838C,2023-10-30_17h34.34.336,VExplicitOC_RO,2022.2.5,MacIntel,60.0024001,-79.62550951,2.6304,2.0098,NA,NA,NA,NA,NA,bored,"bored, not bored","more bored, less bored",NA,NA,NA,NA,NA,NA,NA,NA,NA,NA,NA,NA,NA,NA,NA,0,0,0,2,1,NA,NA,NA,NA,NA
MDPRF85380,ED926905-839F-40C6-A989-FAF0E1E5838C,2023-10-30_17h34.34.336,VExplicitOC_RO,2022.2.5,MacIntel,60.0024001,-79.62550951,2.7281,2.0003,NA,NA,NA,NA,NA,happy,"unhappy, happy","less happy, more happy",NA,NA,NA,NA,NA,NA,NA,NA,NA,NA,NA,NA,NA,NA,NA,0,1,1,0,1,NA,NA,NA,NA,NA
MDPRF85380,ED926905-839F-40C6-A989-FAF0E1E5838C,2023-10-30_17h34.34.336,VExplicitOC_RO,2022.2.5,MacIntel,60.0024001,-41.88094429,2.389,2.0161,NA,NA,NA,NA,NA,frustrated,"frustrated, not frustrated","more frustrated, less frustrated",NA,NA,NA,NA,NA,NA,NA,NA,NA,NA,NA,NA,NA,NA,NA,0,2,2,1,1,NA,NA,NA,NA,NA
MDPRF85380,ED926905-839F-40C6-A989-FAF0E1E5838C,2023-10-30_17h34.34.336,VExplicitOC_RO,2022.2.5,MacIntel,60.0024001,NA,NA,NA,NA,NA,NA,NA,NA,NA,NA,NA,NA,NA,NA,NA,NA,NA,NA,NA,NA,NA,NA,NA,NA,NA,NA,NA,NA,NA,NA,NA,9,0,9,0,1
MDPRF85380,ED926905-839F-40C6-A989-FAF0E1E5838C,2023-10-30_17h34.34.336,VExplicitOC_RO,2022.2.5,MacIntel,60.0024001,-38.64045516,4.9847,2.0121000000000002,NA,NA,NA,NA,NA,frustrated,"frustrated, not frustrated","more frustrated, less frustrated",NA,NA,NA,NA,NA,NA,NA,NA,NA,NA,NA,NA,NA,NA,NA,0,0,0,1,1,NA,NA,NA,NA,NA
MDPRF85380,ED926905-839F-40C6-A989-FAF0E1E5838C,2023-10-30_17h34.34.336,VExplicitOC_RO,2022.2.5,MacIntel,60.0024001,-80.0560462,2.9537,2.0175,NA,NA,NA,NA,NA,bored,"bored, not bored","more bored, less bored",NA,NA,NA,NA,NA,NA,NA,NA,NA,NA,NA,NA,NA,NA,NA,0,1,1,2,1,NA,NA,NA,NA,NA
MDPRF85380,ED926905-839F-40C6-A989-FAF0E1E5838C,2023-10-30_17h34.34.336,VExplicitOC_RO,2022.2.5,MacIntel,60.0024001,-41.3060462,2.4909,2.001,NA,NA,NA,NA,NA,happy,"unhappy, happy","less happy, more happy",NA,NA,NA,NA,NA,NA,NA,NA,NA,NA,NA,NA,NA,NA,NA,0,2,2,0,1,NA,NA,NA,NA,NA
MDPRF85380,ED926905-839F-40C6-A989-FAF0E1E5838C,2023-10-30_17h34.34.336,VExplicitOC_RO,2022.2.5,MacIntel,60.0024001,NA,NA,NA,NA,NA,NA,NA,NA,NA,NA,NA,NA,NA,NA,NA,NA,NA,NA,NA,NA,NA,NA,NA,NA,NA,NA,NA,NA,NA,NA,NA,10,0,10,0,1
MDPRF85380,ED926905-839F-40C6-A989-FAF0E1E5838C,2023-10-30_17h34.34.336,VExplicitOC_RO,2022.2.5,MacIntel,60.0024001,-57.73352582,3.149,2.0116,NA,NA,NA,NA,NA,happy,"unhappy, happy","less happy, more happy",NA,NA,NA,NA,NA,NA,NA,NA,NA,NA,NA,NA,NA,NA,NA,0,0,0,0,1,NA,NA,NA,NA,NA
MDPRF85380,ED926905-839F-40C6-A989-FAF0E1E5838C,2023-10-30_17h34.34.336,VExplicitOC_RO,2022.2.5,MacIntel,60.0024001,-42.76154891,2.4088,2.0021,NA,NA,NA,NA,NA,frustrated,"frustrated, not frustrated","more frustrated, less frustrated",NA,NA,NA,NA,NA,NA,NA,NA,NA,NA,NA,NA,NA,NA,NA,0,1,1,1,1,NA,NA,NA,NA,NA
MDPRF85380,ED926905-839F-40C6-A989-FAF0E1E5838C,2023-10-30_17h34.34.336,VExplicitOC_RO,2022.2.5,MacIntel,60.0024001,-94.44378397,2.4529,2.0006,NA,NA,NA,NA,NA,bored,"bored, not bored","more bored, less bored",NA,NA,NA,NA,NA,NA,NA,NA,NA,NA,NA,NA,NA,NA,NA,0,2,2,2,1,NA,NA,NA,NA,NA
MDPRF85380,ED926905-839F-40C6-A989-FAF0E1E5838C,2023-10-30_17h34.34.336,VExplicitOC_RO,2022.2.5,MacIntel,60.0024001,NA,NA,NA,NA,NA,NA,NA,NA,NA,NA,NA,NA,NA,NA,NA,NA,NA,NA,NA,NA,NA,NA,NA,NA,NA,NA,NA,NA,NA,NA,NA,11,0,11,0,1
MDPRF85380,ED926905-839F-40C6-A989-FAF0E1E5838C,2023-10-30_17h34.34.336,VExplicitOC_RO,2022.2.5,MacIntel,60.0024001,NA,NA,2.0097,NA,NA,NA,NA,NA,frustrated,"frustrated, not frustrated","more frustrated, less frustrated",NA,NA,NA,NA,NA,NA,NA,NA,NA,NA,NA,NA,NA,NA,NA,0,0,0,1,1,NA,NA,NA,NA,NA
MDPRF85380,ED926905-839F-40C6-A989-FAF0E1E5838C,2023-10-30_17h34.34.336,VExplicitOC_RO,2022.2.5,MacIntel,60.0024001,-69.79025136,4.9708,2.0144,NA,NA,NA,NA,NA,bored,"bored, not bored","more bored, less bored",NA,NA,NA,NA,NA,NA,NA,NA,NA,NA,NA,NA,NA,NA,NA,0,1,1,2,1,NA,NA,NA,NA,NA
MDPRF85380,ED926905-839F-40C6-A989-FAF0E1E5838C,2023-10-30_17h34.34.336,VExplicitOC_RO,2022.2.5,MacIntel,60.0024001,-53.91813859,2.5658,2.0202,NA,NA,NA,NA,NA,happy,"unhappy, happy","less happy, more happy",NA,NA,NA,NA,NA,NA,NA,NA,NA,NA,NA,NA,NA,NA,NA,0,2,2,0,1,NA,NA,NA,NA,NA
MDPRF85380,ED926905-839F-40C6-A989-FAF0E1E5838C,2023-10-30_17h34.34.336,VExplicitOC_RO,2022.2.5,MacIntel,60.0024001,NA,NA,NA,NA,NA,NA,NA,NA,NA,NA,NA,NA,NA,NA,NA,NA,NA,NA,NA,NA,NA,NA,NA,NA,NA,NA,NA,NA,NA,NA,NA,12,0,12,0,1
MDPRF85380,ED926905-839F-40C6-A989-FAF0E1E5838C,2023-10-30_17h34.34.336,VExplicitOC_RO,2022.2.5,MacIntel,60.0024001,-52.34035326,3.3804,2.0119,NA,NA,NA,NA,NA,bored,"bored, not bored","more bored, less bored",NA,NA,NA,NA,NA,NA,NA,NA,NA,NA,NA,NA,NA,NA,NA,0,0,0,2,1,NA,NA,NA,NA,NA
MDPRF85380,ED926905-839F-40C6-A989-FAF0E1E5838C,2023-10-30_17h34.34.336,VExplicitOC_RO,2022.2.5,MacIntel,60.0024001,-80.34476902,3.9898,2.0038,NA,NA,NA,NA,NA,frustrated,"frustrated, not frustrated","more frustrated, less frustrated",NA,NA,NA,NA,NA,NA,NA,NA,NA,NA,NA,NA,NA,NA,NA,0,1,1,1,1,NA,NA,NA,NA,NA
MDPRF85380,ED926905-839F-40C6-A989-FAF0E1E5838C,2023-10-30_17h34.34.336,VExplicitOC_RO,2022.2.5,MacIntel,60.0024001,-53.7219769,3.2363,2.0171,NA,NA,NA,NA,NA,happy,"unhappy, happy","less happy, more happy",NA,NA,NA,NA,NA,NA,NA,NA,NA,NA,NA,NA,NA,NA,NA,0,2,2,0,1,NA,NA,NA,NA,NA
MDPRF85380,ED926905-839F-40C6-A989-FAF0E1E5838C,2023-10-30_17h34.34.336,VExplicitOC_RO,2022.2.5,MacIntel,60.0024001,NA,NA,NA,NA,NA,NA,NA,NA,NA,NA,NA,NA,NA,NA,NA,NA,NA,NA,NA,NA,NA,NA,NA,NA,NA,NA,NA,NA,NA,NA,NA,13,0,13,0,1
MDPRF85380,ED926905-839F-40C6-A989-FAF0E1E5838C,2023-10-30_17h34.34.336,VExplicitOC_RO,2022.2.5,MacIntel,60.0024001,-25.1282269,3.4233,2.0094,NA,NA,NA,NA,NA,bored,"bored, not bored","more bored, less bored",NA,NA,NA,NA,NA,NA,NA,NA,NA,NA,NA,NA,NA,NA,NA,0,0,0,2,1,NA,NA,NA,NA,NA
MDPRF85380,ED926905-839F-40C6-A989-FAF0E1E5838C,2023-10-30_17h34.34.336,VExplicitOC_RO,2022.2.5,MacIntel,60.0024001,-53.58610734,2.376,2.0004,NA,NA,NA,NA,NA,happy,"unhappy, happy","less happy, more happy",NA,NA,NA,NA,NA,NA,NA,NA,NA,NA,NA,NA,NA,NA,NA,0,1,1,0,1,NA,NA,NA,NA,NA
MDPRF85380,ED926905-839F-40C6-A989-FAF0E1E5838C,2023-10-30_17h34.34.336,VExplicitOC_RO,2022.2.5,MacIntel,60.0024001,-48.52921196,2.9755,2.0172,NA,NA,NA,NA,NA,frustrated,"frustrated, not frustrated","more frustrated, less frustrated",NA,NA,NA,NA,NA,NA,NA,NA,NA,NA,NA,NA,NA,NA,NA,0,2,2,1,1,NA,NA,NA,NA,NA
MDPRF85380,ED926905-839F-40C6-A989-FAF0E1E5838C,2023-10-30_17h34.34.336,VExplicitOC_RO,2022.2.5,MacIntel,60.0024001,NA,NA,NA,NA,NA,NA,NA,NA,NA,NA,NA,NA,NA,NA,NA,NA,NA,NA,NA,NA,NA,NA,NA,NA,NA,NA,NA,NA,NA,NA,NA,14,0,14,0,1
MDPRF85380,ED926905-839F-40C6-A989-FAF0E1E5838C,2023-10-30_17h34.34.336,VExplicitOC_RO,2022.2.5,MacIntel,60.0024001,NA,NA,NA,NA,NA,NA,NA,NA,NA,NA,NA,NA,NA,NA,NA,NA,NA,NA,NA,NA,NA,NA,NA,NA,NA,NA,NA,NA,NA,NA,NA,NA,NA,NA,NA,NA
MDPRF85380,ED926905-839F-40C6-A989-FAF0E1E5838C,2023-10-30_17h34.34.336,VExplicitOC_RO,2022.2.5,MacIntel,60.0024001,NA,NA,NA,NA,NA,NA,NA,NA,NA,NA,NA,NA,NA,NA,NA,NA,NA,NA,NA,NA,NA,NA,NA,NA,NA,NA,NA,NA,NA,NA,NA,NA,NA,NA,NA,NA
