participant,session,date,expName,psychopyVersion,OS,frameRate,rating_all.response,rating_all.rt,rating_all.tStart,rndRat1.thisRepN,rndRat1.thisTrialN,rndRat1.thisN,rndRat1.thisIndex,rndRat1.ran,Emo,Labs,Labs2,rating_alt.response,rating_alt.rt,AltC.thisRepN,AltC.thisTrialN,AltC.thisN,AltC.thisIndex,AltC.ran,alt_choices,pic_choices,TopAlt_Choice,rndRat2.thisRepN,rndRat2.thisTrialN,rndRat2.thisN,rndRat2.thisIndex,rndRat2.ran,rndRat3.thisRepN,rndRat3.thisTrialN,rndRat3.thisN,rndRat3.thisIndex,rndRat3.ran,trials_FC_H.thisRepN,trials_FC_H.thisTrialN,trials_FC_H.thisN,trials_FC_H.thisIndex,trials_FC_H.ran
MDPRF47325,389F8019-F4FB-42E3-9BF2-1A2797124EFB,2023-10-30_17h33.33.199,VExplicitOC_RO,2022.2.5,MacIntel,1.714354288,NA,NA,NA,NA,NA,NA,NA,NA,NA,NA,NA,NA,NA,NA,NA,NA,NA,NA,NA,NA,NA,NA,NA,NA,NA,NA,NA,NA,NA,NA,NA,NA,NA,NA,NA,NA
MDPRF47325,389F8019-F4FB-42E3-9BF2-1A2797124EFB,2023-10-30_17h33.33.199,VExplicitOC_RO,2022.2.5,MacIntel,1.714354288,NA,NA,NA,NA,NA,NA,NA,NA,NA,NA,NA,NA,NA,NA,NA,NA,NA,NA,NA,NA,NA,NA,NA,NA,NA,NA,NA,NA,NA,NA,NA,NA,NA,NA,NA,NA
MDPRF47325,389F8019-F4FB-42E3-9BF2-1A2797124EFB,2023-10-30_17h33.33.199,VExplicitOC_RO,2022.2.5,MacIntel,1.714354288,NA,NA,NA,NA,NA,NA,NA,NA,NA,NA,NA,NA,NA,NA,NA,NA,NA,NA,NA,NA,NA,NA,NA,NA,NA,NA,NA,NA,NA,NA,NA,NA,NA,NA,NA,NA
MDPRF47325,389F8019-F4FB-42E3-9BF2-1A2797124EFB,2023-10-30_17h33.33.199,VExplicitOC_RO,2022.2.5,MacIntel,1.714354288,-5.879543728,5.1609,2.0938,0,0,0,2,1,bored,"bored, not bored","more bored, less bored",NA,NA,NA,NA,NA,NA,NA,NA,NA,NA,NA,NA,NA,NA,NA,NA,NA,NA,NA,NA,NA,NA,NA,NA,NA
MDPRF47325,389F8019-F4FB-42E3-9BF2-1A2797124EFB,2023-10-30_17h33.33.199,VExplicitOC_RO,2022.2.5,MacIntel,1.714354288,NA,NA,2.0342,0,1,1,0,1,happy,"unhappy, happy","less happy, more happy",NA,NA,NA,NA,NA,NA,NA,NA,NA,NA,NA,NA,NA,NA,NA,NA,NA,NA,NA,NA,NA,NA,NA,NA,NA
MDPRF47325,389F8019-F4FB-42E3-9BF2-1A2797124EFB,2023-10-30_17h33.33.199,VExplicitOC_RO,2022.2.5,MacIntel,1.714354288,11.84894477,6.526,2.1144,0,2,2,1,1,frustrated,"frustrated, not frustrated","more frustrated, less frustrated",NA,NA,NA,NA,NA,NA,NA,NA,NA,NA,NA,NA,NA,NA,NA,NA,NA,NA,NA,NA,NA,NA,NA,NA,NA
MDPRF47325,389F8019-F4FB-42E3-9BF2-1A2797124EFB,2023-10-30_17h33.33.199,VExplicitOC_RO,2022.2.5,MacIntel,1.714354288,NA,NA,NA,NA,NA,NA,NA,NA,NA,NA,NA,NA,NA,NA,NA,NA,NA,NA,NA,NA,NA,NA,NA,NA,NA,NA,NA,NA,NA,NA,NA,NA,NA,NA,NA,NA
MDPRF47325,389F8019-F4FB-42E3-9BF2-1A2797124EFB,2023-10-30_17h33.33.199,VExplicitOC_RO,2022.2.5,MacIntel,1.714354288,NA,NA,NA,NA,NA,NA,NA,NA,NA,NA,NA,NA,NA,NA,NA,NA,NA,NA,NA,NA,NA,NA,NA,NA,NA,NA,NA,NA,NA,NA,NA,NA,NA,NA,NA,NA
MDPRF47325,389F8019-F4FB-42E3-9BF2-1A2797124EFB,2023-10-30_17h33.33.199,VExplicitOC_RO,2022.2.5,MacIntel,1.714354288,NA,NA,NA,NA,NA,NA,NA,NA,NA,NA,NA,NA,NA,NA,NA,NA,NA,NA,NA,NA,NA,NA,NA,NA,NA,NA,NA,NA,NA,NA,NA,NA,NA,NA,NA,NA
MDPRF47325,389F8019-F4FB-42E3-9BF2-1A2797124EFB,2023-10-30_17h33.33.199,VExplicitOC_RO,2022.2.5,MacIntel,1.714354288,NA,NA,NA,NA,NA,NA,NA,NA,NA,NA,NA,NA,NA,NA,NA,NA,NA,NA,NA,NA,NA,NA,NA,NA,NA,NA,NA,NA,NA,NA,NA,NA,NA,NA,NA,NA
MDPRF47325,389F8019-F4FB-42E3-9BF2-1A2797124EFB,2023-10-30_17h33.33.199,VExplicitOC_RO,2022.2.5,MacIntel,1.714354288,NA,NA,NA,NA,NA,NA,NA,NA,NA,NA,NA,-75.01776123,6.8138,0,0,0,0,1,rest (looking at a fixed cross),001.png,NA,NA,NA,NA,NA,NA,NA,NA,NA,NA,NA,NA,NA,NA,NA,NA
MDPRF47325,389F8019-F4FB-42E3-9BF2-1A2797124EFB,2023-10-30_17h33.33.199,VExplicitOC_RO,2022.2.5,MacIntel,1.714354288,NA,NA,NA,NA,NA,NA,NA,NA,NA,NA,NA,-25.26460775,4.6409,0,1,1,1,1,stand up,002.png,NA,NA,NA,NA,NA,NA,NA,NA,NA,NA,NA,NA,NA,NA,NA,NA
MDPRF47325,389F8019-F4FB-42E3-9BF2-1A2797124EFB,2023-10-30_17h33.33.199,VExplicitOC_RO,2022.2.5,MacIntel,1.714354288,NA,NA,NA,NA,NA,NA,NA,NA,NA,NA,NA,18.14831543,2.1145,0,2,2,2,1,stretch,003.png,NA,NA,NA,NA,NA,NA,NA,NA,NA,NA,NA,NA,NA,NA,NA,NA
MDPRF47325,389F8019-F4FB-42E3-9BF2-1A2797124EFB,2023-10-30_17h33.33.199,VExplicitOC_RO,2022.2.5,MacIntel,1.714354288,NA,NA,NA,NA,NA,NA,NA,NA,NA,NA,NA,-38.11990017,4.1051,0,3,3,3,1,make a drink,004.png,NA,NA,NA,NA,NA,NA,NA,NA,NA,NA,NA,NA,NA,NA,NA,NA
MDPRF47325,389F8019-F4FB-42E3-9BF2-1A2797124EFB,2023-10-30_17h33.33.199,VExplicitOC_RO,2022.2.5,MacIntel,1.714354288,NA,NA,NA,NA,NA,NA,NA,NA,NA,NA,NA,63.68296984,2.4026,0,4,4,4,1,scroll social media,005.png,NA,NA,NA,NA,NA,NA,NA,NA,NA,NA,NA,NA,NA,NA,NA,NA
MDPRF47325,389F8019-F4FB-42E3-9BF2-1A2797124EFB,2023-10-30_17h33.33.199,VExplicitOC_RO,2022.2.5,MacIntel,1.714354288,NA,NA,NA,NA,NA,NA,NA,NA,NA,NA,NA,52.11610243,3.4305,0,5,5,5,1,listen to music,006.png,NA,NA,NA,NA,NA,NA,NA,NA,NA,NA,NA,NA,NA,NA,NA,NA
MDPRF47325,389F8019-F4FB-42E3-9BF2-1A2797124EFB,2023-10-30_17h33.33.199,VExplicitOC_RO,2022.2.5,MacIntel,1.714354288,NA,NA,NA,NA,NA,NA,NA,NA,NA,NA,NA,30.59918891,2.82,0,6,6,6,1,daydream,007.png,NA,NA,NA,NA,NA,NA,NA,NA,NA,NA,NA,NA,NA,NA,NA,NA
MDPRF47325,389F8019-F4FB-42E3-9BF2-1A2797124EFB,2023-10-30_17h33.33.199,VExplicitOC_RO,2022.2.5,MacIntel,1.714354288,NA,NA,NA,NA,NA,NA,NA,NA,NA,NA,NA,-53.14852566,3.1577,0,7,7,7,1,watch a short animation,008.png,NA,NA,NA,NA,NA,NA,NA,NA,NA,NA,NA,NA,NA,NA,NA,NA
MDPRF47325,389F8019-F4FB-42E3-9BF2-1A2797124EFB,2023-10-30_17h33.33.199,VExplicitOC_RO,2022.2.5,MacIntel,1.714354288,NA,NA,NA,NA,NA,NA,NA,NA,NA,NA,NA,-77.40593126,2.6693,0,8,8,8,1,read a novel,009.png,NA,NA,NA,NA,NA,NA,NA,NA,NA,NA,NA,NA,NA,NA,NA,NA
MDPRF47325,389F8019-F4FB-42E3-9BF2-1A2797124EFB,2023-10-30_17h33.33.199,VExplicitOC_RO,2022.2.5,MacIntel,1.714354288,NA,NA,NA,NA,NA,NA,NA,NA,NA,NA,NA,-21.93522135,3.4657,0,9,9,9,1,read the news,010.png,NA,NA,NA,NA,NA,NA,NA,NA,NA,NA,NA,NA,NA,NA,NA,NA
MDPRF47325,389F8019-F4FB-42E3-9BF2-1A2797124EFB,2023-10-30_17h33.33.199,VExplicitOC_RO,2022.2.5,MacIntel,1.714354288,NA,NA,NA,NA,NA,NA,NA,NA,NA,NA,NA,NA,NA,NA,NA,NA,NA,NA,NA,NA,NA,NA,NA,NA,NA,NA,NA,NA,NA,NA,NA,NA,NA,NA,NA,NA
MDPRF47325,389F8019-F4FB-42E3-9BF2-1A2797124EFB,2023-10-30_17h33.33.199,VExplicitOC_RO,2022.2.5,MacIntel,1.714354288,NA,NA,NA,NA,NA,NA,NA,NA,NA,NA,NA,NA,NA,NA,NA,NA,NA,NA,NA,NA,scroll social media,NA,NA,NA,NA,NA,NA,NA,NA,NA,NA,NA,NA,NA,NA,NA
MDPRF47325,389F8019-F4FB-42E3-9BF2-1A2797124EFB,2023-10-30_17h33.33.199,VExplicitOC_RO,2022.2.5,MacIntel,1.714354288,4.209147135,6.1436,2.1722,NA,NA,NA,NA,NA,bored,"bored, not bored","more bored, less bored",NA,NA,NA,NA,NA,NA,NA,NA,NA,NA,0,0,0,2,1,NA,NA,NA,NA,NA,NA,NA,NA,NA,NA
MDPRF47325,389F8019-F4FB-42E3-9BF2-1A2797124EFB,2023-10-30_17h33.33.199,VExplicitOC_RO,2022.2.5,MacIntel,1.714354288,-22.77208116,5.0995,2.4182,NA,NA,NA,NA,NA,frustrated,"frustrated, not frustrated","more frustrated, less frustrated",NA,NA,NA,NA,NA,NA,NA,NA,NA,NA,0,1,1,1,1,NA,NA,NA,NA,NA,NA,NA,NA,NA,NA
MDPRF47325,389F8019-F4FB-42E3-9BF2-1A2797124EFB,2023-10-30_17h33.33.199,VExplicitOC_RO,2022.2.5,MacIntel,1.714354288,8.844211155,4.2254,2.1012,NA,NA,NA,NA,NA,happy,"unhappy, happy","less happy, more happy",NA,NA,NA,NA,NA,NA,NA,NA,NA,NA,0,2,2,0,1,NA,NA,NA,NA,NA,NA,NA,NA,NA,NA
MDPRF47325,389F8019-F4FB-42E3-9BF2-1A2797124EFB,2023-10-30_17h33.33.199,VExplicitOC_RO,2022.2.5,MacIntel,1.714354288,NA,NA,NA,NA,NA,NA,NA,NA,NA,NA,NA,NA,NA,NA,NA,NA,NA,NA,NA,NA,NA,NA,NA,NA,NA,NA,NA,NA,NA,NA,NA,NA,NA,NA,NA,NA
MDPRF47325,389F8019-F4FB-42E3-9BF2-1A2797124EFB,2023-10-30_17h33.33.199,VExplicitOC_RO,2022.2.5,MacIntel,1.714354288,NA,NA,NA,NA,NA,NA,NA,NA,NA,NA,NA,NA,NA,NA,NA,NA,NA,NA,NA,NA,NA,NA,NA,NA,NA,NA,NA,NA,NA,NA,NA,NA,NA,NA,NA,NA
MDPRF47325,389F8019-F4FB-42E3-9BF2-1A2797124EFB,2023-10-30_17h33.33.199,VExplicitOC_RO,2022.2.5,MacIntel,1.714354288,16.39538574,6.2566,2.4283,NA,NA,NA,NA,NA,happy,"unhappy, happy","less happy, more happy",NA,NA,NA,NA,NA,NA,NA,NA,NA,NA,NA,NA,NA,NA,NA,0,0,0,0,1,NA,NA,NA,NA,NA
MDPRF47325,389F8019-F4FB-42E3-9BF2-1A2797124EFB,2023-10-30_17h33.33.199,VExplicitOC_RO,2022.2.5,MacIntel,1.714354288,-36.76912435,4.8269,2.6546,NA,NA,NA,NA,NA,frustrated,"frustrated, not frustrated","more frustrated, less frustrated",NA,NA,NA,NA,NA,NA,NA,NA,NA,NA,NA,NA,NA,NA,NA,0,1,1,1,1,NA,NA,NA,NA,NA
MDPRF47325,389F8019-F4FB-42E3-9BF2-1A2797124EFB,2023-10-30_17h33.33.199,VExplicitOC_RO,2022.2.5,MacIntel,1.714354288,-43.26345486,4.0949,2.468,NA,NA,NA,NA,NA,bored,"bored, not bored","more bored, less bored",NA,NA,NA,NA,NA,NA,NA,NA,NA,NA,NA,NA,NA,NA,NA,0,2,2,2,1,NA,NA,NA,NA,NA
MDPRF47325,389F8019-F4FB-42E3-9BF2-1A2797124EFB,2023-10-30_17h33.33.199,VExplicitOC_RO,2022.2.5,MacIntel,1.714354288,NA,NA,NA,NA,NA,NA,NA,NA,NA,NA,NA,NA,NA,NA,NA,NA,NA,NA,NA,NA,NA,NA,NA,NA,NA,NA,NA,NA,NA,NA,NA,0,0,0,0,1
MDPRF47325,389F8019-F4FB-42E3-9BF2-1A2797124EFB,2023-10-30_17h33.33.199,VExplicitOC_RO,2022.2.5,MacIntel,1.714354288,-2.087090386,4.6806,2.6168,NA,NA,NA,NA,NA,happy,"unhappy, happy","less happy, more happy",NA,NA,NA,NA,NA,NA,NA,NA,NA,NA,NA,NA,NA,NA,NA,0,0,0,0,1,NA,NA,NA,NA,NA
MDPRF47325,389F8019-F4FB-42E3-9BF2-1A2797124EFB,2023-10-30_17h33.33.199,VExplicitOC_RO,2022.2.5,MacIntel,1.714354288,-73.54911296,4.6732,2.328,NA,NA,NA,NA,NA,bored,"bored, not bored","more bored, less bored",NA,NA,NA,NA,NA,NA,NA,NA,NA,NA,NA,NA,NA,NA,NA,0,1,1,2,1,NA,NA,NA,NA,NA
MDPRF47325,389F8019-F4FB-42E3-9BF2-1A2797124EFB,2023-10-30_17h33.33.199,VExplicitOC_RO,2022.2.5,MacIntel,1.714354288,-69.22606744,3.8602,2.3004,NA,NA,NA,NA,NA,frustrated,"frustrated, not frustrated","more frustrated, less frustrated",NA,NA,NA,NA,NA,NA,NA,NA,NA,NA,NA,NA,NA,NA,NA,0,2,2,1,1,NA,NA,NA,NA,NA
MDPRF47325,389F8019-F4FB-42E3-9BF2-1A2797124EFB,2023-10-30_17h33.33.199,VExplicitOC_RO,2022.2.5,MacIntel,1.714354288,NA,NA,NA,NA,NA,NA,NA,NA,NA,NA,NA,NA,NA,NA,NA,NA,NA,NA,NA,NA,NA,NA,NA,NA,NA,NA,NA,NA,NA,NA,NA,1,0,1,0,1
MDPRF47325,389F8019-F4FB-42E3-9BF2-1A2797124EFB,2023-10-30_17h33.33.199,VExplicitOC_RO,2022.2.5,MacIntel,1.714354288,-86.55360921,5.9052,2.4807,NA,NA,NA,NA,NA,bored,"bored, not bored","more bored, less bored",NA,NA,NA,NA,NA,NA,NA,NA,NA,NA,NA,NA,NA,NA,NA,0,0,0,2,1,NA,NA,NA,NA,NA
MDPRF47325,389F8019-F4FB-42E3-9BF2-1A2797124EFB,2023-10-30_17h33.33.199,VExplicitOC_RO,2022.2.5,MacIntel,1.714354288,-61.87553575,3.5302,2.025,NA,NA,NA,NA,NA,frustrated,"frustrated, not frustrated","more frustrated, less frustrated",NA,NA,NA,NA,NA,NA,NA,NA,NA,NA,NA,NA,NA,NA,NA,0,1,1,1,1,NA,NA,NA,NA,NA
MDPRF47325,389F8019-F4FB-42E3-9BF2-1A2797124EFB,2023-10-30_17h33.33.199,VExplicitOC_RO,2022.2.5,MacIntel,1.714354288,11.94650608,4.422,2.2747,NA,NA,NA,NA,NA,happy,"unhappy, happy","less happy, more happy",NA,NA,NA,NA,NA,NA,NA,NA,NA,NA,NA,NA,NA,NA,NA,0,2,2,0,1,NA,NA,NA,NA,NA
MDPRF47325,389F8019-F4FB-42E3-9BF2-1A2797124EFB,2023-10-30_17h33.33.199,VExplicitOC_RO,2022.2.5,MacIntel,1.714354288,NA,NA,NA,NA,NA,NA,NA,NA,NA,NA,NA,NA,NA,NA,NA,NA,NA,NA,NA,NA,NA,NA,NA,NA,NA,NA,NA,NA,NA,NA,NA,2,0,2,0,1
MDPRF47325,389F8019-F4FB-42E3-9BF2-1A2797124EFB,2023-10-30_17h33.33.199,VExplicitOC_RO,2022.2.5,MacIntel,1.714354288,-64.50268555,6.3437,2.0828,NA,NA,NA,NA,NA,frustrated,"frustrated, not frustrated","more frustrated, less frustrated",NA,NA,NA,NA,NA,NA,NA,NA,NA,NA,NA,NA,NA,NA,NA,0,0,0,1,1,NA,NA,NA,NA,NA
MDPRF47325,389F8019-F4FB-42E3-9BF2-1A2797124EFB,2023-10-30_17h33.33.199,VExplicitOC_RO,2022.2.5,MacIntel,1.714354288,13.358412,4.0844,2.1866,NA,NA,NA,NA,NA,happy,"unhappy, happy","less happy, more happy",NA,NA,NA,NA,NA,NA,NA,NA,NA,NA,NA,NA,NA,NA,NA,0,1,1,0,1,NA,NA,NA,NA,NA
MDPRF47325,389F8019-F4FB-42E3-9BF2-1A2797124EFB,2023-10-30_17h33.33.199,VExplicitOC_RO,2022.2.5,MacIntel,1.714354288,-87.33192952,4.0493,2.0124,NA,NA,NA,NA,NA,bored,"bored, not bored","more bored, less bored",NA,NA,NA,NA,NA,NA,NA,NA,NA,NA,NA,NA,NA,NA,NA,0,2,2,2,1,NA,NA,NA,NA,NA
MDPRF47325,389F8019-F4FB-42E3-9BF2-1A2797124EFB,2023-10-30_17h33.33.199,VExplicitOC_RO,2022.2.5,MacIntel,1.714354288,NA,NA,NA,NA,NA,NA,NA,NA,NA,NA,NA,NA,NA,NA,NA,NA,NA,NA,NA,NA,NA,NA,NA,NA,NA,NA,NA,NA,NA,NA,NA,3,0,3,0,1
MDPRF47325,389F8019-F4FB-42E3-9BF2-1A2797124EFB,2023-10-30_17h33.33.199,VExplicitOC_RO,2022.2.5,MacIntel,1.714354288,NA,NA,2.3121,NA,NA,NA,NA,NA,bored,"bored, not bored","more bored, less bored",NA,NA,NA,NA,NA,NA,NA,NA,NA,NA,NA,NA,NA,NA,NA,0,0,0,2,1,NA,NA,NA,NA,NA
MDPRF47325,389F8019-F4FB-42E3-9BF2-1A2797124EFB,2023-10-30_17h33.33.199,VExplicitOC_RO,2022.2.5,MacIntel,1.714354288,NA,NA,2.3871000000000002,NA,NA,NA,NA,NA,frustrated,"frustrated, not frustrated","more frustrated, less frustrated",NA,NA,NA,NA,NA,NA,NA,NA,NA,NA,NA,NA,NA,NA,NA,0,1,1,1,1,NA,NA,NA,NA,NA
MDPRF47325,389F8019-F4FB-42E3-9BF2-1A2797124EFB,2023-10-30_17h33.33.199,VExplicitOC_RO,2022.2.5,MacIntel,1.714354288,NA,NA,2.4066,NA,NA,NA,NA,NA,happy,"unhappy, happy","less happy, more happy",NA,NA,NA,NA,NA,NA,NA,NA,NA,NA,NA,NA,NA,NA,NA,0,2,2,0,1,NA,NA,NA,NA,NA
MDPRF47325,389F8019-F4FB-42E3-9BF2-1A2797124EFB,2023-10-30_17h33.33.199,VExplicitOC_RO,2022.2.5,MacIntel,1.714354288,NA,NA,NA,NA,NA,NA,NA,NA,NA,NA,NA,NA,NA,NA,NA,NA,NA,NA,NA,NA,NA,NA,NA,NA,NA,NA,NA,NA,NA,NA,NA,4,0,4,0,1
MDPRF47325,389F8019-F4FB-42E3-9BF2-1A2797124EFB,2023-10-30_17h33.33.199,VExplicitOC_RO,2022.2.5,MacIntel,1.714354288,-86.67022027,5.515,2.498,NA,NA,NA,NA,NA,frustrated,"frustrated, not frustrated","more frustrated, less frustrated",NA,NA,NA,NA,NA,NA,NA,NA,NA,NA,NA,NA,NA,NA,NA,0,0,0,1,1,NA,NA,NA,NA,NA
MDPRF47325,389F8019-F4FB-42E3-9BF2-1A2797124EFB,2023-10-30_17h33.33.199,VExplicitOC_RO,2022.2.5,MacIntel,1.714354288,-17.00035265,5.0516,2.7412,NA,NA,NA,NA,NA,happy,"unhappy, happy","less happy, more happy",NA,NA,NA,NA,NA,NA,NA,NA,NA,NA,NA,NA,NA,NA,NA,0,1,1,0,1,NA,NA,NA,NA,NA
MDPRF47325,389F8019-F4FB-42E3-9BF2-1A2797124EFB,2023-10-30_17h33.33.199,VExplicitOC_RO,2022.2.5,MacIntel,1.714354288,-97.09128825,3.9655,2.1022,NA,NA,NA,NA,NA,bored,"bored, not bored","more bored, less bored",NA,NA,NA,NA,NA,NA,NA,NA,NA,NA,NA,NA,NA,NA,NA,0,2,2,2,1,NA,NA,NA,NA,NA
MDPRF47325,389F8019-F4FB-42E3-9BF2-1A2797124EFB,2023-10-30_17h33.33.199,VExplicitOC_RO,2022.2.5,MacIntel,1.714354288,NA,NA,NA,NA,NA,NA,NA,NA,NA,NA,NA,NA,NA,NA,NA,NA,NA,NA,NA,NA,NA,NA,NA,NA,NA,NA,NA,NA,NA,NA,NA,5,0,5,0,1
MDPRF47325,389F8019-F4FB-42E3-9BF2-1A2797124EFB,2023-10-30_17h33.33.199,VExplicitOC_RO,2022.2.5,MacIntel,1.714354288,NA,NA,2.2279,NA,NA,NA,NA,NA,frustrated,"frustrated, not frustrated","more frustrated, less frustrated",NA,NA,NA,NA,NA,NA,NA,NA,NA,NA,NA,NA,NA,NA,NA,0,0,0,1,1,NA,NA,NA,NA,NA
MDPRF47325,389F8019-F4FB-42E3-9BF2-1A2797124EFB,2023-10-30_17h33.33.199,VExplicitOC_RO,2022.2.5,MacIntel,1.714354288,-98.52250841,3.6989,2.109,NA,NA,NA,NA,NA,bored,"bored, not bored","more bored, less bored",NA,NA,NA,NA,NA,NA,NA,NA,NA,NA,NA,NA,NA,NA,NA,0,1,1,2,1,NA,NA,NA,NA,NA
MDPRF47325,389F8019-F4FB-42E3-9BF2-1A2797124EFB,2023-10-30_17h33.33.199,VExplicitOC_RO,2022.2.5,MacIntel,1.714354288,-42.66524251,3.8616,2.0022,NA,NA,NA,NA,NA,happy,"unhappy, happy","less happy, more happy",NA,NA,NA,NA,NA,NA,NA,NA,NA,NA,NA,NA,NA,NA,NA,0,2,2,0,1,NA,NA,NA,NA,NA
MDPRF47325,389F8019-F4FB-42E3-9BF2-1A2797124EFB,2023-10-30_17h33.33.199,VExplicitOC_RO,2022.2.5,MacIntel,1.714354288,NA,NA,NA,NA,NA,NA,NA,NA,NA,NA,NA,NA,NA,NA,NA,NA,NA,NA,NA,NA,NA,NA,NA,NA,NA,NA,NA,NA,NA,NA,NA,6,0,6,0,1
MDPRF47325,389F8019-F4FB-42E3-9BF2-1A2797124EFB,2023-10-30_17h33.33.199,VExplicitOC_RO,2022.2.5,MacIntel,1.714354288,-88.10628933,5.3505,2.743,NA,NA,NA,NA,NA,frustrated,"frustrated, not frustrated","more frustrated, less frustrated",NA,NA,NA,NA,NA,NA,NA,NA,NA,NA,NA,NA,NA,NA,NA,0,0,0,1,1,NA,NA,NA,NA,NA
MDPRF47325,389F8019-F4FB-42E3-9BF2-1A2797124EFB,2023-10-30_17h33.33.199,VExplicitOC_RO,2022.2.5,MacIntel,1.714354288,-42.76592339,4.3062,2.1341,NA,NA,NA,NA,NA,happy,"unhappy, happy","less happy, more happy",NA,NA,NA,NA,NA,NA,NA,NA,NA,NA,NA,NA,NA,NA,NA,0,1,1,0,1,NA,NA,NA,NA,NA
MDPRF47325,389F8019-F4FB-42E3-9BF2-1A2797124EFB,2023-10-30_17h33.33.199,VExplicitOC_RO,2022.2.5,MacIntel,1.714354288,-95.10229492,3.9217,2.1302,NA,NA,NA,NA,NA,bored,"bored, not bored","more bored, less bored",NA,NA,NA,NA,NA,NA,NA,NA,NA,NA,NA,NA,NA,NA,NA,0,2,2,2,1,NA,NA,NA,NA,NA
MDPRF47325,389F8019-F4FB-42E3-9BF2-1A2797124EFB,2023-10-30_17h33.33.199,VExplicitOC_RO,2022.2.5,MacIntel,1.714354288,NA,NA,NA,NA,NA,NA,NA,NA,NA,NA,NA,NA,NA,NA,NA,NA,NA,NA,NA,NA,NA,NA,NA,NA,NA,NA,NA,NA,NA,NA,NA,7,0,7,0,1
MDPRF47325,389F8019-F4FB-42E3-9BF2-1A2797124EFB,2023-10-30_17h33.33.199,VExplicitOC_RO,2022.2.5,MacIntel,1.714354288,-97.37703451,4.5272,2.0182,NA,NA,NA,NA,NA,bored,"bored, not bored","more bored, less bored",NA,NA,NA,NA,NA,NA,NA,NA,NA,NA,NA,NA,NA,NA,NA,0,0,0,2,1,NA,NA,NA,NA,NA
MDPRF47325,389F8019-F4FB-42E3-9BF2-1A2797124EFB,2023-10-30_17h33.33.199,VExplicitOC_RO,2022.2.5,MacIntel,1.714354288,-63.85116238,3.345,2.2016,NA,NA,NA,NA,NA,happy,"unhappy, happy","less happy, more happy",NA,NA,NA,NA,NA,NA,NA,NA,NA,NA,NA,NA,NA,NA,NA,0,1,1,0,1,NA,NA,NA,NA,NA
MDPRF47325,389F8019-F4FB-42E3-9BF2-1A2797124EFB,2023-10-30_17h33.33.199,VExplicitOC_RO,2022.2.5,MacIntel,1.714354288,-96.00793457,3.9237,2.374,NA,NA,NA,NA,NA,frustrated,"frustrated, not frustrated","more frustrated, less frustrated",NA,NA,NA,NA,NA,NA,NA,NA,NA,NA,NA,NA,NA,NA,NA,0,2,2,1,1,NA,NA,NA,NA,NA
MDPRF47325,389F8019-F4FB-42E3-9BF2-1A2797124EFB,2023-10-30_17h33.33.199,VExplicitOC_RO,2022.2.5,MacIntel,1.714354288,NA,NA,NA,NA,NA,NA,NA,NA,NA,NA,NA,NA,NA,NA,NA,NA,NA,NA,NA,NA,NA,NA,NA,NA,NA,NA,NA,NA,NA,NA,NA,8,0,8,0,1
MDPRF47325,389F8019-F4FB-42E3-9BF2-1A2797124EFB,2023-10-30_17h33.33.199,VExplicitOC_RO,2022.2.5,MacIntel,1.714354288,-96.55217828,7.1844,2.353,NA,NA,NA,NA,NA,frustrated,"frustrated, not frustrated","more frustrated, less frustrated",NA,NA,NA,NA,NA,NA,NA,NA,NA,NA,NA,NA,NA,NA,NA,0,0,0,1,1,NA,NA,NA,NA,NA
MDPRF47325,389F8019-F4FB-42E3-9BF2-1A2797124EFB,2023-10-30_17h33.33.199,VExplicitOC_RO,2022.2.5,MacIntel,1.714354288,-98.60359701,5.4614,2.2331,NA,NA,NA,NA,NA,bored,"bored, not bored","more bored, less bored",NA,NA,NA,NA,NA,NA,NA,NA,NA,NA,NA,NA,NA,NA,NA,0,1,1,2,1,NA,NA,NA,NA,NA
MDPRF47325,389F8019-F4FB-42E3-9BF2-1A2797124EFB,2023-10-30_17h33.33.199,VExplicitOC_RO,2022.2.5,MacIntel,1.714354288,-81.7234158,4.1772,2.5529,NA,NA,NA,NA,NA,happy,"unhappy, happy","less happy, more happy",NA,NA,NA,NA,NA,NA,NA,NA,NA,NA,NA,NA,NA,NA,NA,0,2,2,0,1,NA,NA,NA,NA,NA
MDPRF47325,389F8019-F4FB-42E3-9BF2-1A2797124EFB,2023-10-30_17h33.33.199,VExplicitOC_RO,2022.2.5,MacIntel,1.714354288,NA,NA,NA,NA,NA,NA,NA,NA,NA,NA,NA,NA,NA,NA,NA,NA,NA,NA,NA,NA,NA,NA,NA,NA,NA,NA,NA,NA,NA,NA,NA,9,0,9,0,1
MDPRF47325,389F8019-F4FB-42E3-9BF2-1A2797124EFB,2023-10-30_17h33.33.199,VExplicitOC_RO,2022.2.5,MacIntel,1.714354288,-98.72175429,3.9471,2.1292,NA,NA,NA,NA,NA,bored,"bored, not bored","more bored, less bored",NA,NA,NA,NA,NA,NA,NA,NA,NA,NA,NA,NA,NA,NA,NA,0,0,0,2,1,NA,NA,NA,NA,NA
MDPRF47325,389F8019-F4FB-42E3-9BF2-1A2797124EFB,2023-10-30_17h33.33.199,VExplicitOC_RO,2022.2.5,MacIntel,1.714354288,NA,NA,2.4366,NA,NA,NA,NA,NA,happy,"unhappy, happy","less happy, more happy",NA,NA,NA,NA,NA,NA,NA,NA,NA,NA,NA,NA,NA,NA,NA,0,1,1,0,1,NA,NA,NA,NA,NA
MDPRF47325,389F8019-F4FB-42E3-9BF2-1A2797124EFB,2023-10-30_17h33.33.199,VExplicitOC_RO,2022.2.5,MacIntel,1.714354288,-97.15837945,6.2207,2.4855,NA,NA,NA,NA,NA,frustrated,"frustrated, not frustrated","more frustrated, less frustrated",NA,NA,NA,NA,NA,NA,NA,NA,NA,NA,NA,NA,NA,NA,NA,0,2,2,1,1,NA,NA,NA,NA,NA
MDPRF47325,389F8019-F4FB-42E3-9BF2-1A2797124EFB,2023-10-30_17h33.33.199,VExplicitOC_RO,2022.2.5,MacIntel,1.714354288,NA,NA,NA,NA,NA,NA,NA,NA,NA,NA,NA,NA,NA,NA,NA,NA,NA,NA,NA,NA,NA,NA,NA,NA,NA,NA,NA,NA,NA,NA,NA,10,0,10,0,1
MDPRF47325,389F8019-F4FB-42E3-9BF2-1A2797124EFB,2023-10-30_17h33.33.199,VExplicitOC_RO,2022.2.5,MacIntel,1.714354288,-62.50377062,6.3577,2.2202,NA,NA,NA,NA,NA,happy,"unhappy, happy","less happy, more happy",NA,NA,NA,NA,NA,NA,NA,NA,NA,NA,NA,NA,NA,NA,NA,0,0,0,0,1,NA,NA,NA,NA,NA
MDPRF47325,389F8019-F4FB-42E3-9BF2-1A2797124EFB,2023-10-30_17h33.33.199,VExplicitOC_RO,2022.2.5,MacIntel,1.714354288,-83.18913439,5.6288,2.0471,NA,NA,NA,NA,NA,frustrated,"frustrated, not frustrated","more frustrated, less frustrated",NA,NA,NA,NA,NA,NA,NA,NA,NA,NA,NA,NA,NA,NA,NA,0,1,1,1,1,NA,NA,NA,NA,NA
MDPRF47325,389F8019-F4FB-42E3-9BF2-1A2797124EFB,2023-10-30_17h33.33.199,VExplicitOC_RO,2022.2.5,MacIntel,1.714354288,-95.88884142,6.3098,2.598,NA,NA,NA,NA,NA,bored,"bored, not bored","more bored, less bored",NA,NA,NA,NA,NA,NA,NA,NA,NA,NA,NA,NA,NA,NA,NA,0,2,2,2,1,NA,NA,NA,NA,NA
MDPRF47325,389F8019-F4FB-42E3-9BF2-1A2797124EFB,2023-10-30_17h33.33.199,VExplicitOC_RO,2022.2.5,MacIntel,1.714354288,NA,NA,NA,NA,NA,NA,NA,NA,NA,NA,NA,NA,NA,NA,NA,NA,NA,NA,NA,NA,NA,NA,NA,NA,NA,NA,NA,NA,NA,NA,NA,11,0,11,0,1
MDPRF47325,389F8019-F4FB-42E3-9BF2-1A2797124EFB,2023-10-30_17h33.33.199,VExplicitOC_RO,2022.2.5,MacIntel,1.714354288,-96.39664714,5.4602,2.2012,NA,NA,NA,NA,NA,bored,"bored, not bored","more bored, less bored",NA,NA,NA,NA,NA,NA,NA,NA,NA,NA,NA,NA,NA,NA,NA,0,0,0,2,1,NA,NA,NA,NA,NA
MDPRF47325,389F8019-F4FB-42E3-9BF2-1A2797124EFB,2023-10-30_17h33.33.199,VExplicitOC_RO,2022.2.5,MacIntel,1.714354288,-53.2421129,5.5169,2.064,NA,NA,NA,NA,NA,happy,"unhappy, happy","less happy, more happy",NA,NA,NA,NA,NA,NA,NA,NA,NA,NA,NA,NA,NA,NA,NA,0,1,1,0,1,NA,NA,NA,NA,NA
MDPRF47325,389F8019-F4FB-42E3-9BF2-1A2797124EFB,2023-10-30_17h33.33.199,VExplicitOC_RO,2022.2.5,MacIntel,1.714354288,-85.70404053,5.8342,2.4298,NA,NA,NA,NA,NA,frustrated,"frustrated, not frustrated","more frustrated, less frustrated",NA,NA,NA,NA,NA,NA,NA,NA,NA,NA,NA,NA,NA,NA,NA,0,2,2,1,1,NA,NA,NA,NA,NA
MDPRF47325,389F8019-F4FB-42E3-9BF2-1A2797124EFB,2023-10-30_17h33.33.199,VExplicitOC_RO,2022.2.5,MacIntel,1.714354288,NA,NA,NA,NA,NA,NA,NA,NA,NA,NA,NA,NA,NA,NA,NA,NA,NA,NA,NA,NA,NA,NA,NA,NA,NA,NA,NA,NA,NA,NA,NA,12,0,12,0,1
MDPRF47325,389F8019-F4FB-42E3-9BF2-1A2797124EFB,2023-10-30_17h33.33.199,VExplicitOC_RO,2022.2.5,MacIntel,1.714354288,-96.50230577,6.7332,2.3631,NA,NA,NA,NA,NA,bored,"bored, not bored","more bored, less bored",NA,NA,NA,NA,NA,NA,NA,NA,NA,NA,NA,NA,NA,NA,NA,0,0,0,2,1,NA,NA,NA,NA,NA
MDPRF47325,389F8019-F4FB-42E3-9BF2-1A2797124EFB,2023-10-30_17h33.33.199,VExplicitOC_RO,2022.2.5,MacIntel,1.714354288,-89.94321696,5.2923,2.0207,NA,NA,NA,NA,NA,frustrated,"frustrated, not frustrated","more frustrated, less frustrated",NA,NA,NA,NA,NA,NA,NA,NA,NA,NA,NA,NA,NA,NA,NA,0,1,1,1,1,NA,NA,NA,NA,NA
MDPRF47325,389F8019-F4FB-42E3-9BF2-1A2797124EFB,2023-10-30_17h33.33.199,VExplicitOC_RO,2022.2.5,MacIntel,1.714354288,-79.14043511,4.7686,2.0662,NA,NA,NA,NA,NA,happy,"unhappy, happy","less happy, more happy",NA,NA,NA,NA,NA,NA,NA,NA,NA,NA,NA,NA,NA,NA,NA,0,2,2,0,1,NA,NA,NA,NA,NA
MDPRF47325,389F8019-F4FB-42E3-9BF2-1A2797124EFB,2023-10-30_17h33.33.199,VExplicitOC_RO,2022.2.5,MacIntel,1.714354288,NA,NA,NA,NA,NA,NA,NA,NA,NA,NA,NA,NA,NA,NA,NA,NA,NA,NA,NA,NA,NA,NA,NA,NA,NA,NA,NA,NA,NA,NA,NA,13,0,13,0,1
MDPRF47325,389F8019-F4FB-42E3-9BF2-1A2797124EFB,2023-10-30_17h33.33.199,VExplicitOC_RO,2022.2.5,MacIntel,1.714354288,-79.14043511,2.7496,2.1006,NA,NA,NA,NA,NA,happy,"unhappy, happy","less happy, more happy",NA,NA,NA,NA,NA,NA,NA,NA,NA,NA,NA,NA,NA,NA,NA,0,0,0,0,1,NA,NA,NA,NA,NA
MDPRF47325,389F8019-F4FB-42E3-9BF2-1A2797124EFB,2023-10-30_17h33.33.199,VExplicitOC_RO,2022.2.5,MacIntel,1.714354288,-86.21448432,4.9782,2.1134,NA,NA,NA,NA,NA,frustrated,"frustrated, not frustrated","more frustrated, less frustrated",NA,NA,NA,NA,NA,NA,NA,NA,NA,NA,NA,NA,NA,NA,NA,0,1,1,1,1,NA,NA,NA,NA,NA
MDPRF47325,389F8019-F4FB-42E3-9BF2-1A2797124EFB,2023-10-30_17h33.33.199,VExplicitOC_RO,2022.2.5,MacIntel,1.714354288,-96.25847032,4.7701,2.0265,NA,NA,NA,NA,NA,bored,"bored, not bored","more bored, less bored",NA,NA,NA,NA,NA,NA,NA,NA,NA,NA,NA,NA,NA,NA,NA,0,2,2,2,1,NA,NA,NA,NA,NA
MDPRF47325,389F8019-F4FB-42E3-9BF2-1A2797124EFB,2023-10-30_17h33.33.199,VExplicitOC_RO,2022.2.5,MacIntel,1.714354288,NA,NA,NA,NA,NA,NA,NA,NA,NA,NA,NA,NA,NA,NA,NA,NA,NA,NA,NA,NA,NA,NA,NA,NA,NA,NA,NA,NA,NA,NA,NA,14,0,14,0,1
MDPRF47325,389F8019-F4FB-42E3-9BF2-1A2797124EFB,2023-10-30_17h33.33.199,VExplicitOC_RO,2022.2.5,MacIntel,1.714354288,NA,NA,NA,NA,NA,NA,NA,NA,NA,NA,NA,NA,NA,NA,NA,NA,NA,NA,NA,NA,NA,NA,NA,NA,NA,NA,NA,NA,NA,NA,NA,NA,NA,NA,NA,NA
MDPRF47325,389F8019-F4FB-42E3-9BF2-1A2797124EFB,2023-10-30_17h33.33.199,VExplicitOC_RO,2022.2.5,MacIntel,1.714354288,NA,NA,NA,NA,NA,NA,NA,NA,NA,NA,NA,NA,NA,NA,NA,NA,NA,NA,NA,NA,NA,NA,NA,NA,NA,NA,NA,NA,NA,NA,NA,NA,NA,NA,NA,NA
