participant,session,date,expName,psychopyVersion,OS,frameRate,rating_all.response,rating_all.rt,rating_all.tStart,rndRat1.thisRepN,rndRat1.thisTrialN,rndRat1.thisN,rndRat1.thisIndex,rndRat1.ran,Emo,Labs,Labs2,rating_alt.response,rating_alt.rt,AltC.thisRepN,AltC.thisTrialN,AltC.thisN,AltC.thisIndex,AltC.ran,alt_choices,pic_choices,TopAlt_Choice,rndRat2.thisRepN,rndRat2.thisTrialN,rndRat2.thisN,rndRat2.thisIndex,rndRat2.ran,rndRat3.thisRepN,rndRat3.thisTrialN,rndRat3.thisN,rndRat3.thisIndex,rndRat3.ran,trials_FC_H.thisRepN,trials_FC_H.thisTrialN,trials_FC_H.thisN,trials_FC_H.thisIndex,trials_FC_H.ran
MDPRF72499,5A499805-611F-4246-8A41-0AAB6ECABE88,2023-10-30_19h23.41.825,VExplicitOC_RO,2022.2.5,Win32,60.08532116,NA,NA,NA,NA,NA,NA,NA,NA,NA,NA,NA,NA,NA,NA,NA,NA,NA,NA,NA,NA,NA,NA,NA,NA,NA,NA,NA,NA,NA,NA,NA,NA,NA,NA,NA,NA
MDPRF72499,5A499805-611F-4246-8A41-0AAB6ECABE88,2023-10-30_19h23.41.825,VExplicitOC_RO,2022.2.5,Win32,60.08532116,NA,NA,NA,NA,NA,NA,NA,NA,NA,NA,NA,NA,NA,NA,NA,NA,NA,NA,NA,NA,NA,NA,NA,NA,NA,NA,NA,NA,NA,NA,NA,NA,NA,NA,NA,NA
MDPRF72499,5A499805-611F-4246-8A41-0AAB6ECABE88,2023-10-30_19h23.41.825,VExplicitOC_RO,2022.2.5,Win32,60.08532116,NA,NA,NA,NA,NA,NA,NA,NA,NA,NA,NA,NA,NA,NA,NA,NA,NA,NA,NA,NA,NA,NA,NA,NA,NA,NA,NA,NA,NA,NA,NA,NA,NA,NA,NA,NA
MDPRF72499,5A499805-611F-4246-8A41-0AAB6ECABE88,2023-10-30_19h23.41.825,VExplicitOC_RO,2022.2.5,Win32,60.08532116,98.333344640000007,4.7602,2.0117,0,0,0,2,1,bored,"bored, not bored","more bored, less bored",NA,NA,NA,NA,NA,NA,NA,NA,NA,NA,NA,NA,NA,NA,NA,NA,NA,NA,NA,NA,NA,NA,NA,NA,NA
MDPRF72499,5A499805-611F-4246-8A41-0AAB6ECABE88,2023-10-30_19h23.41.825,VExplicitOC_RO,2022.2.5,Win32,60.08532116,99.25927056,5.014,2.0138,0,1,1,0,1,happy,"unhappy, happy","less happy, more happy",NA,NA,NA,NA,NA,NA,NA,NA,NA,NA,NA,NA,NA,NA,NA,NA,NA,NA,NA,NA,NA,NA,NA,NA,NA
MDPRF72499,5A499805-611F-4246-8A41-0AAB6ECABE88,2023-10-30_19h23.41.825,VExplicitOC_RO,2022.2.5,Win32,60.08532116,98.51851287,4.8836,2.0145,0,2,2,1,1,frustrated,"frustrated, not frustrated","more frustrated, less frustrated",NA,NA,NA,NA,NA,NA,NA,NA,NA,NA,NA,NA,NA,NA,NA,NA,NA,NA,NA,NA,NA,NA,NA,NA,NA
MDPRF72499,5A499805-611F-4246-8A41-0AAB6ECABE88,2023-10-30_19h23.41.825,VExplicitOC_RO,2022.2.5,Win32,60.08532116,NA,NA,NA,NA,NA,NA,NA,NA,NA,NA,NA,NA,NA,NA,NA,NA,NA,NA,NA,NA,NA,NA,NA,NA,NA,NA,NA,NA,NA,NA,NA,NA,NA,NA,NA,NA
MDPRF72499,5A499805-611F-4246-8A41-0AAB6ECABE88,2023-10-30_19h23.41.825,VExplicitOC_RO,2022.2.5,Win32,60.08532116,NA,NA,NA,NA,NA,NA,NA,NA,NA,NA,NA,NA,NA,NA,NA,NA,NA,NA,NA,NA,NA,NA,NA,NA,NA,NA,NA,NA,NA,NA,NA,NA,NA,NA,NA,NA
MDPRF72499,5A499805-611F-4246-8A41-0AAB6ECABE88,2023-10-30_19h23.41.825,VExplicitOC_RO,2022.2.5,Win32,60.08532116,NA,NA,NA,NA,NA,NA,NA,NA,NA,NA,NA,NA,NA,NA,NA,NA,NA,NA,NA,NA,NA,NA,NA,NA,NA,NA,NA,NA,NA,NA,NA,NA,NA,NA,NA,NA
MDPRF72499,5A499805-611F-4246-8A41-0AAB6ECABE88,2023-10-30_19h23.41.825,VExplicitOC_RO,2022.2.5,Win32,60.08532116,NA,NA,NA,NA,NA,NA,NA,NA,NA,NA,NA,NA,NA,NA,NA,NA,NA,NA,NA,NA,NA,NA,NA,NA,NA,NA,NA,NA,NA,NA,NA,NA,NA,NA,NA,NA
MDPRF72499,5A499805-611F-4246-8A41-0AAB6ECABE88,2023-10-30_19h23.41.825,VExplicitOC_RO,2022.2.5,Win32,60.08532116,NA,NA,NA,NA,NA,NA,NA,NA,NA,NA,NA,-98.88888465,7.1427,0,0,0,0,1,rest (looking at a fixed cross),001.png,NA,NA,NA,NA,NA,NA,NA,NA,NA,NA,NA,NA,NA,NA,NA,NA
MDPRF72499,5A499805-611F-4246-8A41-0AAB6ECABE88,2023-10-30_19h23.41.825,VExplicitOC_RO,2022.2.5,Win32,60.08532116,NA,NA,NA,NA,NA,NA,NA,NA,NA,NA,NA,-97.77777636,2.9387,0,1,1,1,1,stand up,002.png,NA,NA,NA,NA,NA,NA,NA,NA,NA,NA,NA,NA,NA,NA,NA,NA
MDPRF72499,5A499805-611F-4246-8A41-0AAB6ECABE88,2023-10-30_19h23.41.825,VExplicitOC_RO,2022.2.5,Win32,60.08532116,NA,NA,NA,NA,NA,NA,NA,NA,NA,NA,NA,34.62963811,1.8262,0,2,2,2,1,stretch,003.png,NA,NA,NA,NA,NA,NA,NA,NA,NA,NA,NA,NA,NA,NA,NA,NA
MDPRF72499,5A499805-611F-4246-8A41-0AAB6ECABE88,2023-10-30_19h23.41.825,VExplicitOC_RO,2022.2.5,Win32,60.08532116,NA,NA,NA,NA,NA,NA,NA,NA,NA,NA,NA,-67.03703845,2.8231,0,3,3,3,1,make a drink,004.png,NA,NA,NA,NA,NA,NA,NA,NA,NA,NA,NA,NA,NA,NA,NA,NA
MDPRF72499,5A499805-611F-4246-8A41-0AAB6ECABE88,2023-10-30_19h23.41.825,VExplicitOC_RO,2022.2.5,Win32,60.08532116,NA,NA,NA,NA,NA,NA,NA,NA,NA,NA,NA,59.25925926,2.3226,0,4,4,4,1,scroll social media,005.png,NA,NA,NA,NA,NA,NA,NA,NA,NA,NA,NA,NA,NA,NA,NA,NA
MDPRF72499,5A499805-611F-4246-8A41-0AAB6ECABE88,2023-10-30_19h23.41.825,VExplicitOC_RO,2022.2.5,Win32,60.08532116,NA,NA,NA,NA,NA,NA,NA,NA,NA,NA,NA,84.62962398,1.741,0,5,5,5,1,listen to music,006.png,NA,NA,NA,NA,NA,NA,NA,NA,NA,NA,NA,NA,NA,NA,NA,NA
MDPRF72499,5A499805-611F-4246-8A41-0AAB6ECABE88,2023-10-30_19h23.41.825,VExplicitOC_RO,2022.2.5,Win32,60.08532116,NA,NA,NA,NA,NA,NA,NA,NA,NA,NA,NA,25.74074357,1.8896,0,6,6,6,1,daydream,007.png,NA,NA,NA,NA,NA,NA,NA,NA,NA,NA,NA,NA,NA,NA,NA,NA
MDPRF72499,5A499805-611F-4246-8A41-0AAB6ECABE88,2023-10-30_19h23.41.825,VExplicitOC_RO,2022.2.5,Win32,60.08532116,NA,NA,NA,NA,NA,NA,NA,NA,NA,NA,NA,61.85186881,2.1121,0,7,7,7,1,watch a short animation,008.png,NA,NA,NA,NA,NA,NA,NA,NA,NA,NA,NA,NA,NA,NA,NA,NA
MDPRF72499,5A499805-611F-4246-8A41-0AAB6ECABE88,2023-10-30_19h23.41.825,VExplicitOC_RO,2022.2.5,Win32,60.08532116,NA,NA,NA,NA,NA,NA,NA,NA,NA,NA,NA,97.03705399,1.9854,0,8,8,8,1,read a novel,009.png,NA,NA,NA,NA,NA,NA,NA,NA,NA,NA,NA,NA,NA,NA,NA,NA
MDPRF72499,5A499805-611F-4246-8A41-0AAB6ECABE88,2023-10-30_19h23.41.825,VExplicitOC_RO,2022.2.5,Win32,60.08532116,NA,NA,NA,NA,NA,NA,NA,NA,NA,NA,NA,-99.44444586,2.37,0,9,9,9,1,read the news,010.png,NA,NA,NA,NA,NA,NA,NA,NA,NA,NA,NA,NA,NA,NA,NA,NA
MDPRF72499,5A499805-611F-4246-8A41-0AAB6ECABE88,2023-10-30_19h23.41.825,VExplicitOC_RO,2022.2.5,Win32,60.08532116,NA,NA,NA,NA,NA,NA,NA,NA,NA,NA,NA,NA,NA,NA,NA,NA,NA,NA,NA,NA,NA,NA,NA,NA,NA,NA,NA,NA,NA,NA,NA,NA,NA,NA,NA,NA
MDPRF72499,5A499805-611F-4246-8A41-0AAB6ECABE88,2023-10-30_19h23.41.825,VExplicitOC_RO,2022.2.5,Win32,60.08532116,NA,NA,NA,NA,NA,NA,NA,NA,NA,NA,NA,NA,NA,NA,NA,NA,NA,NA,NA,NA,read a novel,NA,NA,NA,NA,NA,NA,NA,NA,NA,NA,NA,NA,NA,NA,NA
MDPRF72499,5A499805-611F-4246-8A41-0AAB6ECABE88,2023-10-30_19h23.41.825,VExplicitOC_RO,2022.2.5,Win32,60.08532116,-68.33332909,3.9131,2.004,NA,NA,NA,NA,NA,frustrated,"frustrated, not frustrated","more frustrated, less frustrated",NA,NA,NA,NA,NA,NA,NA,NA,NA,NA,0,0,0,1,1,NA,NA,NA,NA,NA,NA,NA,NA,NA,NA
MDPRF72499,5A499805-611F-4246-8A41-0AAB6ECABE88,2023-10-30_19h23.41.825,VExplicitOC_RO,2022.2.5,Win32,60.08532116,-53.1481425,3.7144,2.0136,NA,NA,NA,NA,NA,happy,"unhappy, happy","less happy, more happy",NA,NA,NA,NA,NA,NA,NA,NA,NA,NA,0,1,1,0,1,NA,NA,NA,NA,NA,NA,NA,NA,NA,NA
MDPRF72499,5A499805-611F-4246-8A41-0AAB6ECABE88,2023-10-30_19h23.41.825,VExplicitOC_RO,2022.2.5,Win32,60.08532116,-40.74074074,3.576,2.0144,NA,NA,NA,NA,NA,bored,"bored, not bored","more bored, less bored",NA,NA,NA,NA,NA,NA,NA,NA,NA,NA,0,2,2,2,1,NA,NA,NA,NA,NA,NA,NA,NA,NA,NA
MDPRF72499,5A499805-611F-4246-8A41-0AAB6ECABE88,2023-10-30_19h23.41.825,VExplicitOC_RO,2022.2.5,Win32,60.08532116,NA,NA,NA,NA,NA,NA,NA,NA,NA,NA,NA,NA,NA,NA,NA,NA,NA,NA,NA,NA,NA,NA,NA,NA,NA,NA,NA,NA,NA,NA,NA,NA,NA,NA,NA,NA
MDPRF72499,5A499805-611F-4246-8A41-0AAB6ECABE88,2023-10-30_19h23.41.825,VExplicitOC_RO,2022.2.5,Win32,60.08532116,NA,NA,NA,NA,NA,NA,NA,NA,NA,NA,NA,NA,NA,NA,NA,NA,NA,NA,NA,NA,NA,NA,NA,NA,NA,NA,NA,NA,NA,NA,NA,NA,NA,NA,NA,NA
MDPRF72499,5A499805-611F-4246-8A41-0AAB6ECABE88,2023-10-30_19h23.41.825,VExplicitOC_RO,2022.2.5,Win32,60.08532116,-99.44444586,5.6537,2.0016,NA,NA,NA,NA,NA,bored,"bored, not bored","more bored, less bored",NA,NA,NA,NA,NA,NA,NA,NA,NA,NA,NA,NA,NA,NA,NA,0,0,0,2,1,NA,NA,NA,NA,NA
MDPRF72499,5A499805-611F-4246-8A41-0AAB6ECABE88,2023-10-30_19h23.41.825,VExplicitOC_RO,2022.2.5,Win32,60.08532116,-98.33333051,3.6487,2.0137,NA,NA,NA,NA,NA,happy,"unhappy, happy","less happy, more happy",NA,NA,NA,NA,NA,NA,NA,NA,NA,NA,NA,NA,NA,NA,NA,0,1,1,0,1,NA,NA,NA,NA,NA
MDPRF72499,5A499805-611F-4246-8A41-0AAB6ECABE88,2023-10-30_19h23.41.825,VExplicitOC_RO,2022.2.5,Win32,60.08532116,-59.0740769,2.9856,2.014,NA,NA,NA,NA,NA,frustrated,"frustrated, not frustrated","more frustrated, less frustrated",NA,NA,NA,NA,NA,NA,NA,NA,NA,NA,NA,NA,NA,NA,NA,0,2,2,1,1,NA,NA,NA,NA,NA
MDPRF72499,5A499805-611F-4246-8A41-0AAB6ECABE88,2023-10-30_19h23.41.825,VExplicitOC_RO,2022.2.5,Win32,60.08532116,NA,NA,NA,NA,NA,NA,NA,NA,NA,NA,NA,NA,NA,NA,NA,NA,NA,NA,NA,NA,NA,NA,NA,NA,NA,NA,NA,NA,NA,NA,NA,0,0,0,0,1
MDPRF72499,5A499805-611F-4246-8A41-0AAB6ECABE88,2023-10-30_19h23.41.825,VExplicitOC_RO,2022.2.5,Win32,60.08532116,-98.14814815,3.657,2.0046,NA,NA,NA,NA,NA,frustrated,"frustrated, not frustrated","more frustrated, less frustrated",NA,NA,NA,NA,NA,NA,NA,NA,NA,NA,NA,NA,NA,NA,NA,0,0,0,1,1,NA,NA,NA,NA,NA
MDPRF72499,5A499805-611F-4246-8A41-0AAB6ECABE88,2023-10-30_19h23.41.825,VExplicitOC_RO,2022.2.5,Win32,60.08532116,-99.07407407,2.9259,2.0141,NA,NA,NA,NA,NA,bored,"bored, not bored","more bored, less bored",NA,NA,NA,NA,NA,NA,NA,NA,NA,NA,NA,NA,NA,NA,NA,0,1,1,2,1,NA,NA,NA,NA,NA
MDPRF72499,5A499805-611F-4246-8A41-0AAB6ECABE88,2023-10-30_19h23.41.825,VExplicitOC_RO,2022.2.5,Win32,60.08532116,-99.25925643,4.4741,2.0148,NA,NA,NA,NA,NA,happy,"unhappy, happy","less happy, more happy",NA,NA,NA,NA,NA,NA,NA,NA,NA,NA,NA,NA,NA,NA,NA,0,2,2,0,1,NA,NA,NA,NA,NA
MDPRF72499,5A499805-611F-4246-8A41-0AAB6ECABE88,2023-10-30_19h23.41.825,VExplicitOC_RO,2022.2.5,Win32,60.08532116,NA,NA,NA,NA,NA,NA,NA,NA,NA,NA,NA,NA,NA,NA,NA,NA,NA,NA,NA,NA,NA,NA,NA,NA,NA,NA,NA,NA,NA,NA,NA,1,0,1,0,1
MDPRF72499,5A499805-611F-4246-8A41-0AAB6ECABE88,2023-10-30_19h23.41.825,VExplicitOC_RO,2022.2.5,Win32,60.08532116,-100,3.5602,2.0048,NA,NA,NA,NA,NA,bored,"bored, not bored","more bored, less bored",NA,NA,NA,NA,NA,NA,NA,NA,NA,NA,NA,NA,NA,NA,NA,0,0,0,2,1,NA,NA,NA,NA,NA
MDPRF72499,5A499805-611F-4246-8A41-0AAB6ECABE88,2023-10-30_19h23.41.825,VExplicitOC_RO,2022.2.5,Win32,60.08532116,-100,2.8174,2.0148,NA,NA,NA,NA,NA,happy,"unhappy, happy","less happy, more happy",NA,NA,NA,NA,NA,NA,NA,NA,NA,NA,NA,NA,NA,NA,NA,0,1,1,0,1,NA,NA,NA,NA,NA
MDPRF72499,5A499805-611F-4246-8A41-0AAB6ECABE88,2023-10-30_19h23.41.825,VExplicitOC_RO,2022.2.5,Win32,60.08532116,-99.07407407,3.2478,2.014,NA,NA,NA,NA,NA,frustrated,"frustrated, not frustrated","more frustrated, less frustrated",NA,NA,NA,NA,NA,NA,NA,NA,NA,NA,NA,NA,NA,NA,NA,0,2,2,1,1,NA,NA,NA,NA,NA
MDPRF72499,5A499805-611F-4246-8A41-0AAB6ECABE88,2023-10-30_19h23.41.825,VExplicitOC_RO,2022.2.5,Win32,60.08532116,NA,NA,NA,NA,NA,NA,NA,NA,NA,NA,NA,NA,NA,NA,NA,NA,NA,NA,NA,NA,NA,NA,NA,NA,NA,NA,NA,NA,NA,NA,NA,2,0,2,0,1
MDPRF72499,5A499805-611F-4246-8A41-0AAB6ECABE88,2023-10-30_19h23.41.825,VExplicitOC_RO,2022.2.5,Win32,60.08532116,-99.81481058,2.8935,2.005,NA,NA,NA,NA,NA,bored,"bored, not bored","more bored, less bored",NA,NA,NA,NA,NA,NA,NA,NA,NA,NA,NA,NA,NA,NA,NA,0,0,0,2,1,NA,NA,NA,NA,NA
MDPRF72499,5A499805-611F-4246-8A41-0AAB6ECABE88,2023-10-30_19h23.41.825,VExplicitOC_RO,2022.2.5,Win32,60.08532116,-98.51851993,2.8838,2.0142,NA,NA,NA,NA,NA,frustrated,"frustrated, not frustrated","more frustrated, less frustrated",NA,NA,NA,NA,NA,NA,NA,NA,NA,NA,NA,NA,NA,NA,NA,0,1,1,1,1,NA,NA,NA,NA,NA
MDPRF72499,5A499805-611F-4246-8A41-0AAB6ECABE88,2023-10-30_19h23.41.825,VExplicitOC_RO,2022.2.5,Win32,60.08532116,-98.88888465,3.0667,2.014,NA,NA,NA,NA,NA,happy,"unhappy, happy","less happy, more happy",NA,NA,NA,NA,NA,NA,NA,NA,NA,NA,NA,NA,NA,NA,NA,0,2,2,0,1,NA,NA,NA,NA,NA
MDPRF72499,5A499805-611F-4246-8A41-0AAB6ECABE88,2023-10-30_19h23.41.825,VExplicitOC_RO,2022.2.5,Win32,60.08532116,NA,NA,NA,NA,NA,NA,NA,NA,NA,NA,NA,NA,NA,NA,NA,NA,NA,NA,NA,NA,NA,NA,NA,NA,NA,NA,NA,NA,NA,NA,NA,3,0,3,0,1
MDPRF72499,5A499805-611F-4246-8A41-0AAB6ECABE88,2023-10-30_19h23.41.825,VExplicitOC_RO,2022.2.5,Win32,60.08532116,-98.51851993,3.3931,2.0046,NA,NA,NA,NA,NA,bored,"bored, not bored","more bored, less bored",NA,NA,NA,NA,NA,NA,NA,NA,NA,NA,NA,NA,NA,NA,NA,0,0,0,2,1,NA,NA,NA,NA,NA
MDPRF72499,5A499805-611F-4246-8A41-0AAB6ECABE88,2023-10-30_19h23.41.825,VExplicitOC_RO,2022.2.5,Win32,60.08532116,-97.96295872,3.5652,2.0144,NA,NA,NA,NA,NA,frustrated,"frustrated, not frustrated","more frustrated, less frustrated",NA,NA,NA,NA,NA,NA,NA,NA,NA,NA,NA,NA,NA,NA,NA,0,1,1,1,1,NA,NA,NA,NA,NA
MDPRF72499,5A499805-611F-4246-8A41-0AAB6ECABE88,2023-10-30_19h23.41.825,VExplicitOC_RO,2022.2.5,Win32,60.08532116,-97.96295872,2.7682,2.0142,NA,NA,NA,NA,NA,happy,"unhappy, happy","less happy, more happy",NA,NA,NA,NA,NA,NA,NA,NA,NA,NA,NA,NA,NA,NA,NA,0,2,2,0,1,NA,NA,NA,NA,NA
MDPRF72499,5A499805-611F-4246-8A41-0AAB6ECABE88,2023-10-30_19h23.41.825,VExplicitOC_RO,2022.2.5,Win32,60.08532116,NA,NA,NA,NA,NA,NA,NA,NA,NA,NA,NA,NA,NA,NA,NA,NA,NA,NA,NA,NA,NA,NA,NA,NA,NA,NA,NA,NA,NA,NA,NA,4,0,4,0,1
MDPRF72499,5A499805-611F-4246-8A41-0AAB6ECABE88,2023-10-30_19h23.41.825,VExplicitOC_RO,2022.2.5,Win32,60.08532116,-99.81481058,3.5341,2.004,NA,NA,NA,NA,NA,happy,"unhappy, happy","less happy, more happy",NA,NA,NA,NA,NA,NA,NA,NA,NA,NA,NA,NA,NA,NA,NA,0,0,0,0,1,NA,NA,NA,NA,NA
MDPRF72499,5A499805-611F-4246-8A41-0AAB6ECABE88,2023-10-30_19h23.41.825,VExplicitOC_RO,2022.2.5,Win32,60.08532116,-99.07407407,7.1613,2.0149,NA,NA,NA,NA,NA,frustrated,"frustrated, not frustrated","more frustrated, less frustrated",NA,NA,NA,NA,NA,NA,NA,NA,NA,NA,NA,NA,NA,NA,NA,0,1,1,1,1,NA,NA,NA,NA,NA
MDPRF72499,5A499805-611F-4246-8A41-0AAB6ECABE88,2023-10-30_19h23.41.825,VExplicitOC_RO,2022.2.5,Win32,60.08532116,-98.70370229,2.9222,2.0144,NA,NA,NA,NA,NA,bored,"bored, not bored","more bored, less bored",NA,NA,NA,NA,NA,NA,NA,NA,NA,NA,NA,NA,NA,NA,NA,0,2,2,2,1,NA,NA,NA,NA,NA
MDPRF72499,5A499805-611F-4246-8A41-0AAB6ECABE88,2023-10-30_19h23.41.825,VExplicitOC_RO,2022.2.5,Win32,60.08532116,NA,NA,NA,NA,NA,NA,NA,NA,NA,NA,NA,NA,NA,NA,NA,NA,NA,NA,NA,NA,NA,NA,NA,NA,NA,NA,NA,NA,NA,NA,NA,5,0,5,0,1
MDPRF72499,5A499805-611F-4246-8A41-0AAB6ECABE88,2023-10-30_19h23.41.825,VExplicitOC_RO,2022.2.5,Win32,60.08532116,-98.51851993,4.2425,2.0042,NA,NA,NA,NA,NA,bored,"bored, not bored","more bored, less bored",NA,NA,NA,NA,NA,NA,NA,NA,NA,NA,NA,NA,NA,NA,NA,0,0,0,2,1,NA,NA,NA,NA,NA
MDPRF72499,5A499805-611F-4246-8A41-0AAB6ECABE88,2023-10-30_19h23.41.825,VExplicitOC_RO,2022.2.5,Win32,60.08532116,-98.51851993,2.7565,2.0143,NA,NA,NA,NA,NA,frustrated,"frustrated, not frustrated","more frustrated, less frustrated",NA,NA,NA,NA,NA,NA,NA,NA,NA,NA,NA,NA,NA,NA,NA,0,1,1,1,1,NA,NA,NA,NA,NA
MDPRF72499,5A499805-611F-4246-8A41-0AAB6ECABE88,2023-10-30_19h23.41.825,VExplicitOC_RO,2022.2.5,Win32,60.08532116,-98.51851993,2.5927,2.0143,NA,NA,NA,NA,NA,happy,"unhappy, happy","less happy, more happy",NA,NA,NA,NA,NA,NA,NA,NA,NA,NA,NA,NA,NA,NA,NA,0,2,2,0,1,NA,NA,NA,NA,NA
MDPRF72499,5A499805-611F-4246-8A41-0AAB6ECABE88,2023-10-30_19h23.41.825,VExplicitOC_RO,2022.2.5,Win32,60.08532116,NA,NA,NA,NA,NA,NA,NA,NA,NA,NA,NA,NA,NA,NA,NA,NA,NA,NA,NA,NA,NA,NA,NA,NA,NA,NA,NA,NA,NA,NA,NA,6,0,6,0,1
MDPRF72499,5A499805-611F-4246-8A41-0AAB6ECABE88,2023-10-30_19h23.41.825,VExplicitOC_RO,2022.2.5,Win32,60.08532116,-99.81481058,5.3253,2.0049,NA,NA,NA,NA,NA,bored,"bored, not bored","more bored, less bored",NA,NA,NA,NA,NA,NA,NA,NA,NA,NA,NA,NA,NA,NA,NA,0,0,0,2,1,NA,NA,NA,NA,NA
MDPRF72499,5A499805-611F-4246-8A41-0AAB6ECABE88,2023-10-30_19h23.41.825,VExplicitOC_RO,2022.2.5,Win32,60.08532116,-99.81481058,2.6346,2.0145,NA,NA,NA,NA,NA,frustrated,"frustrated, not frustrated","more frustrated, less frustrated",NA,NA,NA,NA,NA,NA,NA,NA,NA,NA,NA,NA,NA,NA,NA,0,1,1,1,1,NA,NA,NA,NA,NA
MDPRF72499,5A499805-611F-4246-8A41-0AAB6ECABE88,2023-10-30_19h23.41.825,VExplicitOC_RO,2022.2.5,Win32,60.08532116,-99.62962822,2.6256,2.0143,NA,NA,NA,NA,NA,happy,"unhappy, happy","less happy, more happy",NA,NA,NA,NA,NA,NA,NA,NA,NA,NA,NA,NA,NA,NA,NA,0,2,2,0,1,NA,NA,NA,NA,NA
MDPRF72499,5A499805-611F-4246-8A41-0AAB6ECABE88,2023-10-30_19h23.41.825,VExplicitOC_RO,2022.2.5,Win32,60.08532116,NA,NA,NA,NA,NA,NA,NA,NA,NA,NA,NA,NA,NA,NA,NA,NA,NA,NA,NA,NA,NA,NA,NA,NA,NA,NA,NA,NA,NA,NA,NA,7,0,7,0,1
MDPRF72499,5A499805-611F-4246-8A41-0AAB6ECABE88,2023-10-30_19h23.41.825,VExplicitOC_RO,2022.2.5,Win32,60.08532116,-98.33333051,3.4134,2.0044,NA,NA,NA,NA,NA,bored,"bored, not bored","more bored, less bored",NA,NA,NA,NA,NA,NA,NA,NA,NA,NA,NA,NA,NA,NA,NA,0,0,0,2,1,NA,NA,NA,NA,NA
MDPRF72499,5A499805-611F-4246-8A41-0AAB6ECABE88,2023-10-30_19h23.41.825,VExplicitOC_RO,2022.2.5,Win32,60.08532116,-98.33333051,2.6264,2.0143,NA,NA,NA,NA,NA,happy,"unhappy, happy","less happy, more happy",NA,NA,NA,NA,NA,NA,NA,NA,NA,NA,NA,NA,NA,NA,NA,0,1,1,0,1,NA,NA,NA,NA,NA
MDPRF72499,5A499805-611F-4246-8A41-0AAB6ECABE88,2023-10-30_19h23.41.825,VExplicitOC_RO,2022.2.5,Win32,60.08532116,-98.33333051,2.7019,2.0148,NA,NA,NA,NA,NA,frustrated,"frustrated, not frustrated","more frustrated, less frustrated",NA,NA,NA,NA,NA,NA,NA,NA,NA,NA,NA,NA,NA,NA,NA,0,2,2,1,1,NA,NA,NA,NA,NA
MDPRF72499,5A499805-611F-4246-8A41-0AAB6ECABE88,2023-10-30_19h23.41.825,VExplicitOC_RO,2022.2.5,Win32,60.08532116,NA,NA,NA,NA,NA,NA,NA,NA,NA,NA,NA,NA,NA,NA,NA,NA,NA,NA,NA,NA,NA,NA,NA,NA,NA,NA,NA,NA,NA,NA,NA,8,0,8,0,1
MDPRF72499,5A499805-611F-4246-8A41-0AAB6ECABE88,2023-10-30_19h23.41.825,VExplicitOC_RO,2022.2.5,Win32,60.08532116,-97.96295872,3.2428,2.004,NA,NA,NA,NA,NA,frustrated,"frustrated, not frustrated","more frustrated, less frustrated",NA,NA,NA,NA,NA,NA,NA,NA,NA,NA,NA,NA,NA,NA,NA,0,0,0,1,1,NA,NA,NA,NA,NA
MDPRF72499,5A499805-611F-4246-8A41-0AAB6ECABE88,2023-10-30_19h23.41.825,VExplicitOC_RO,2022.2.5,Win32,60.08532116,-96.11110687,2.6725,2.0143,NA,NA,NA,NA,NA,bored,"bored, not bored","more bored, less bored",NA,NA,NA,NA,NA,NA,NA,NA,NA,NA,NA,NA,NA,NA,NA,0,1,1,2,1,NA,NA,NA,NA,NA
MDPRF72499,5A499805-611F-4246-8A41-0AAB6ECABE88,2023-10-30_19h23.41.825,VExplicitOC_RO,2022.2.5,Win32,60.08532116,-98.70370229,2.6358,2.0143,NA,NA,NA,NA,NA,happy,"unhappy, happy","less happy, more happy",NA,NA,NA,NA,NA,NA,NA,NA,NA,NA,NA,NA,NA,NA,NA,0,2,2,0,1,NA,NA,NA,NA,NA
MDPRF72499,5A499805-611F-4246-8A41-0AAB6ECABE88,2023-10-30_19h23.41.825,VExplicitOC_RO,2022.2.5,Win32,60.08532116,NA,NA,NA,NA,NA,NA,NA,NA,NA,NA,NA,NA,NA,NA,NA,NA,NA,NA,NA,NA,NA,NA,NA,NA,NA,NA,NA,NA,NA,NA,NA,9,0,9,0,1
MDPRF72499,5A499805-611F-4246-8A41-0AAB6ECABE88,2023-10-30_19h23.41.825,VExplicitOC_RO,2022.2.5,Win32,60.08532116,-99.44444586,2.686,2.0055,NA,NA,NA,NA,NA,happy,"unhappy, happy","less happy, more happy",NA,NA,NA,NA,NA,NA,NA,NA,NA,NA,NA,NA,NA,NA,NA,0,0,0,0,1,NA,NA,NA,NA,NA
MDPRF72499,5A499805-611F-4246-8A41-0AAB6ECABE88,2023-10-30_19h23.41.825,VExplicitOC_RO,2022.2.5,Win32,60.08532116,-99.44444586,2.6109,2.0144,NA,NA,NA,NA,NA,frustrated,"frustrated, not frustrated","more frustrated, less frustrated",NA,NA,NA,NA,NA,NA,NA,NA,NA,NA,NA,NA,NA,NA,NA,0,1,1,1,1,NA,NA,NA,NA,NA
MDPRF72499,5A499805-611F-4246-8A41-0AAB6ECABE88,2023-10-30_19h23.41.825,VExplicitOC_RO,2022.2.5,Win32,60.08532116,-99.44444586,2.5844,2.0142,NA,NA,NA,NA,NA,bored,"bored, not bored","more bored, less bored",NA,NA,NA,NA,NA,NA,NA,NA,NA,NA,NA,NA,NA,NA,NA,0,2,2,2,1,NA,NA,NA,NA,NA
MDPRF72499,5A499805-611F-4246-8A41-0AAB6ECABE88,2023-10-30_19h23.41.825,VExplicitOC_RO,2022.2.5,Win32,60.08532116,NA,NA,NA,NA,NA,NA,NA,NA,NA,NA,NA,NA,NA,NA,NA,NA,NA,NA,NA,NA,NA,NA,NA,NA,NA,NA,NA,NA,NA,NA,NA,10,0,10,0,1
MDPRF72499,5A499805-611F-4246-8A41-0AAB6ECABE88,2023-10-30_19h23.41.825,VExplicitOC_RO,2022.2.5,Win32,60.08532116,-99.44444586,2.7333,2.004,NA,NA,NA,NA,NA,frustrated,"frustrated, not frustrated","more frustrated, less frustrated",NA,NA,NA,NA,NA,NA,NA,NA,NA,NA,NA,NA,NA,NA,NA,0,0,0,1,1,NA,NA,NA,NA,NA
MDPRF72499,5A499805-611F-4246-8A41-0AAB6ECABE88,2023-10-30_19h23.41.825,VExplicitOC_RO,2022.2.5,Win32,60.08532116,-99.44444586,2.6384,2.0143,NA,NA,NA,NA,NA,bored,"bored, not bored","more bored, less bored",NA,NA,NA,NA,NA,NA,NA,NA,NA,NA,NA,NA,NA,NA,NA,0,1,1,2,1,NA,NA,NA,NA,NA
MDPRF72499,5A499805-611F-4246-8A41-0AAB6ECABE88,2023-10-30_19h23.41.825,VExplicitOC_RO,2022.2.5,Win32,60.08532116,-99.44444586,2.6036,2.0144,NA,NA,NA,NA,NA,happy,"unhappy, happy","less happy, more happy",NA,NA,NA,NA,NA,NA,NA,NA,NA,NA,NA,NA,NA,NA,NA,0,2,2,0,1,NA,NA,NA,NA,NA
MDPRF72499,5A499805-611F-4246-8A41-0AAB6ECABE88,2023-10-30_19h23.41.825,VExplicitOC_RO,2022.2.5,Win32,60.08532116,NA,NA,NA,NA,NA,NA,NA,NA,NA,NA,NA,NA,NA,NA,NA,NA,NA,NA,NA,NA,NA,NA,NA,NA,NA,NA,NA,NA,NA,NA,NA,11,0,11,0,1
MDPRF72499,5A499805-611F-4246-8A41-0AAB6ECABE88,2023-10-30_19h23.41.825,VExplicitOC_RO,2022.2.5,Win32,60.08532116,-99.44444586,2.6963,2.0053,NA,NA,NA,NA,NA,frustrated,"frustrated, not frustrated","more frustrated, less frustrated",NA,NA,NA,NA,NA,NA,NA,NA,NA,NA,NA,NA,NA,NA,NA,0,0,0,1,1,NA,NA,NA,NA,NA
MDPRF72499,5A499805-611F-4246-8A41-0AAB6ECABE88,2023-10-30_19h23.41.825,VExplicitOC_RO,2022.2.5,Win32,60.08532116,-99.44444586,2.6153,2.0143,NA,NA,NA,NA,NA,bored,"bored, not bored","more bored, less bored",NA,NA,NA,NA,NA,NA,NA,NA,NA,NA,NA,NA,NA,NA,NA,0,1,1,2,1,NA,NA,NA,NA,NA
MDPRF72499,5A499805-611F-4246-8A41-0AAB6ECABE88,2023-10-30_19h23.41.825,VExplicitOC_RO,2022.2.5,Win32,60.08532116,-99.44444586,2.5983,2.0142,NA,NA,NA,NA,NA,happy,"unhappy, happy","less happy, more happy",NA,NA,NA,NA,NA,NA,NA,NA,NA,NA,NA,NA,NA,NA,NA,0,2,2,0,1,NA,NA,NA,NA,NA
MDPRF72499,5A499805-611F-4246-8A41-0AAB6ECABE88,2023-10-30_19h23.41.825,VExplicitOC_RO,2022.2.5,Win32,60.08532116,NA,NA,NA,NA,NA,NA,NA,NA,NA,NA,NA,NA,NA,NA,NA,NA,NA,NA,NA,NA,NA,NA,NA,NA,NA,NA,NA,NA,NA,NA,NA,12,0,12,0,1
MDPRF72499,5A499805-611F-4246-8A41-0AAB6ECABE88,2023-10-30_19h23.41.825,VExplicitOC_RO,2022.2.5,Win32,60.08532116,-98.70370229,3.6487,2.0053,NA,NA,NA,NA,NA,frustrated,"frustrated, not frustrated","more frustrated, less frustrated",NA,NA,NA,NA,NA,NA,NA,NA,NA,NA,NA,NA,NA,NA,NA,0,0,0,1,1,NA,NA,NA,NA,NA
MDPRF72499,5A499805-611F-4246-8A41-0AAB6ECABE88,2023-10-30_19h23.41.825,VExplicitOC_RO,2022.2.5,Win32,60.08532116,-98.70370229,2.6484,2.0142,NA,NA,NA,NA,NA,happy,"unhappy, happy","less happy, more happy",NA,NA,NA,NA,NA,NA,NA,NA,NA,NA,NA,NA,NA,NA,NA,0,1,1,0,1,NA,NA,NA,NA,NA
MDPRF72499,5A499805-611F-4246-8A41-0AAB6ECABE88,2023-10-30_19h23.41.825,VExplicitOC_RO,2022.2.5,Win32,60.08532116,-98.70370229,2.6008,2.0142,NA,NA,NA,NA,NA,bored,"bored, not bored","more bored, less bored",NA,NA,NA,NA,NA,NA,NA,NA,NA,NA,NA,NA,NA,NA,NA,0,2,2,2,1,NA,NA,NA,NA,NA
MDPRF72499,5A499805-611F-4246-8A41-0AAB6ECABE88,2023-10-30_19h23.41.825,VExplicitOC_RO,2022.2.5,Win32,60.08532116,NA,NA,NA,NA,NA,NA,NA,NA,NA,NA,NA,NA,NA,NA,NA,NA,NA,NA,NA,NA,NA,NA,NA,NA,NA,NA,NA,NA,NA,NA,NA,13,0,13,0,1
MDPRF72499,5A499805-611F-4246-8A41-0AAB6ECABE88,2023-10-30_19h23.41.825,VExplicitOC_RO,2022.2.5,Win32,60.08532116,-98.70370229,2.6502,2.0039,NA,NA,NA,NA,NA,bored,"bored, not bored","more bored, less bored",NA,NA,NA,NA,NA,NA,NA,NA,NA,NA,NA,NA,NA,NA,NA,0,0,0,2,1,NA,NA,NA,NA,NA
MDPRF72499,5A499805-611F-4246-8A41-0AAB6ECABE88,2023-10-30_19h23.41.825,VExplicitOC_RO,2022.2.5,Win32,60.08532116,-98.70370229,2.6042,2.0143,NA,NA,NA,NA,NA,happy,"unhappy, happy","less happy, more happy",NA,NA,NA,NA,NA,NA,NA,NA,NA,NA,NA,NA,NA,NA,NA,0,1,1,0,1,NA,NA,NA,NA,NA
MDPRF72499,5A499805-611F-4246-8A41-0AAB6ECABE88,2023-10-30_19h23.41.825,VExplicitOC_RO,2022.2.5,Win32,60.08532116,-98.70370229,2.6058,2.0145,NA,NA,NA,NA,NA,frustrated,"frustrated, not frustrated","more frustrated, less frustrated",NA,NA,NA,NA,NA,NA,NA,NA,NA,NA,NA,NA,NA,NA,NA,0,2,2,1,1,NA,NA,NA,NA,NA
MDPRF72499,5A499805-611F-4246-8A41-0AAB6ECABE88,2023-10-30_19h23.41.825,VExplicitOC_RO,2022.2.5,Win32,60.08532116,NA,NA,NA,NA,NA,NA,NA,NA,NA,NA,NA,NA,NA,NA,NA,NA,NA,NA,NA,NA,NA,NA,NA,NA,NA,NA,NA,NA,NA,NA,NA,14,0,14,0,1
MDPRF72499,5A499805-611F-4246-8A41-0AAB6ECABE88,2023-10-30_19h23.41.825,VExplicitOC_RO,2022.2.5,Win32,60.08532116,NA,NA,NA,NA,NA,NA,NA,NA,NA,NA,NA,NA,NA,NA,NA,NA,NA,NA,NA,NA,NA,NA,NA,NA,NA,NA,NA,NA,NA,NA,NA,NA,NA,NA,NA,NA
MDPRF72499,5A499805-611F-4246-8A41-0AAB6ECABE88,2023-10-30_19h23.41.825,VExplicitOC_RO,2022.2.5,Win32,60.08532116,NA,NA,NA,NA,NA,NA,NA,NA,NA,NA,NA,NA,NA,NA,NA,NA,NA,NA,NA,NA,NA,NA,NA,NA,NA,NA,NA,NA,NA,NA,NA,NA,NA,NA,NA,NA
