"Event.Index","UTC.Timestamp","UTC.Date.and.Time","Local.Timestamp","Local.Timezone","Local.Date.and.Time","Experiment.ID","Experiment.Version","Tree.Node.Key","Repeat.Key","Schedule.ID","Participant.Private.ID","Participant.Starting.Group","Participant.Status","Participant.Completion.Code","Participant.External.Session.ID","Participant.Device.Type","Participant.Device","Participant.OS","Participant.Browser","Participant.Monitor.Size","Participant.Viewport.Size","Checkpoint","Room.ID","Room.Order","Task.Name","Task.Version","branch.hkzp","order.ot79","branch.mcuq","branch.4fv7","randomiser.rr6o","Spreadsheet","Trial.Number","Display","Screen","Screen.ID","Screen.Counter","Response.Type","Response","Onset.Time","Clock.Time","Reaction.Time","Absolute.Onset.Time","Absolute.Clock.Time","Absolute.Reaction.Time","Correct","Response.Onset","Response.Duration","Proportion","Tag","Component.Name","Object.Name","Object.Number","Object.ID","Spreadsheet..display","Manipulation..Spreadsheet","Random_ID"
"1",1700755188166,"23/11/2023 15:59:48",1700755188166,0,"23/11/2023 15:59:48",152734,7,"questionnaire-uu2n",NA,33166223,9820294,NA,"rejected - time limit reached",NA,"655f7538c10c0e2709fa6d00","computer","Desktop or Laptop","Windows 10","Chrome 119.0.0.0","1920x1200","842x1082",NA,NA,0,"BIQ (Charlotte)",2,"In","ABLCKDJEIFHG",NA,"In",3,"Spreadsheet1",NA,"","","",NA,"5","BEGIN",NA,NA,NA,NA,NA,NA,0,NA,NA,NA,NA,"","",NA,"","",NA,"MDPRF11898"
"2",1700755225596,"23/11/2023 16:00:25",1700755225596,0,"23/11/2023 16:00:25",152734,7,"questionnaire-uu2n",NA,33166223,9820294,NA,"rejected - time limit reached",NA,"655f7538c10c0e2709fa6d00","computer","Desktop or Laptop","Windows 10","Chrome 119.0.0.0","1920x1200","842x1082",NA,NA,0,"BIQ (Charlotte)",2,"In","ABLCKDJEIFHG",NA,"In",3,"Spreadsheet1",1,"BIQ","Screen 1","9dh6eq",1,"continue","",37431.278,37414.559,37431.278,37431.278,37414.559,37431.278,1,37431.278,0,0,NA,"Click To Continue","Continue Button",23,"object-48","BIQ",NA,"MDPRF11898"
"3",1700755225600,"23/11/2023 16:00:25",1700755225600,0,"23/11/2023 16:00:25",152734,7,"questionnaire-uu2n",NA,33166223,9820294,NA,"rejected - time limit reached",NA,"655f7538c10c0e2709fa6d00","computer","Desktop or Laptop","Windows 10","Chrome 119.0.0.0","1920x1200","842x1082",NA,NA,0,"BIQ (Charlotte)",2,"In","ABLCKDJEIFHG",NA,"In",3,"Spreadsheet1",1,"BIQ","Screen 1","9dh6eq",1,"response","4",20300.275,37414.559,37431.278,20300.275,37414.559,37431.278,1,20300.275,17131.003,0,NA,"Rating Scale","Rating Scale",3,"object-5","BIQ",NA,"MDPRF11898"
"4",1700755225601,"23/11/2023 16:00:25",1700755225601,0,"23/11/2023 16:00:25",152734,7,"questionnaire-uu2n",NA,33166223,9820294,NA,"rejected - time limit reached",NA,"655f7538c10c0e2709fa6d00","computer","Desktop or Laptop","Windows 10","Chrome 119.0.0.0","1920x1200","842x1082",NA,NA,0,"BIQ (Charlotte)",2,"In","ABLCKDJEIFHG",NA,"In",3,"Spreadsheet1",1,"BIQ","Screen 1","9dh6eq",1,"response","6",30091.655,37414.559,37431.278,30091.655,37414.559,37431.278,1,30091.655,7339.623,0,NA,"Rating Scale","Rating Scale",10,"object-18","BIQ",NA,"MDPRF11898"
"5",1700755225602,"23/11/2023 16:00:25",1700755225602,0,"23/11/2023 16:00:25",152734,7,"questionnaire-uu2n",NA,33166223,9820294,NA,"rejected - time limit reached",NA,"655f7538c10c0e2709fa6d00","computer","Desktop or Laptop","Windows 10","Chrome 119.0.0.0","1920x1200","842x1082",NA,NA,0,"BIQ (Charlotte)",2,"In","ABLCKDJEIFHG",NA,"In",3,"Spreadsheet1",1,"BIQ","Screen 1","9dh6eq",1,"response","3",34361.926,37414.559,37431.278,34361.926,37414.559,37431.278,1,34361.926,3069.352,0,NA,"Rating Scale","Rating Scale",17,"object-80","BIQ",NA,"MDPRF11898"
"6",1700755243343,"23/11/2023 16:00:43",1700755243343,0,"23/11/2023 16:00:43",152734,7,"questionnaire-uu2n",NA,33166223,9820294,NA,"rejected - time limit reached",NA,"655f7538c10c0e2709fa6d00","computer","Desktop or Laptop","Windows 10","Chrome 119.0.0.0","1920x1200","842x1082",NA,NA,0,"BIQ (Charlotte)",2,"In","ABLCKDJEIFHG",NA,"In",3,"Spreadsheet1",1,"BIQ","Screen 2","o21mwi",2,"continue","",17777.136000003,17764.681,17777.136000003,17777.136000003,17764.681,17777.136000003,1,17777.136000003,0,0,NA,"Click To Continue","Continue Button",22,"object-50","BIQ",NA,"MDPRF11898"
"7",1700755243349,"23/11/2023 16:00:43",1700755243349,0,"23/11/2023 16:00:43",152734,7,"questionnaire-uu2n",NA,33166223,9820294,NA,"rejected - time limit reached",NA,"655f7538c10c0e2709fa6d00","computer","Desktop or Laptop","Windows 10","Chrome 119.0.0.0","1920x1200","842x1082",NA,NA,0,"BIQ (Charlotte)",2,"In","ABLCKDJEIFHG",NA,"In",3,"Spreadsheet1",1,"BIQ","Screen 2","o21mwi",2,"response","3",6655.353,17764.681,17781.366,6655.353,17764.681,17781.366,1,6655.353,11126.013,0,NA,"Rating Scale","Rating Scale",2,"object-259","BIQ",NA,"MDPRF11898"
"8",1700755243350,"23/11/2023 16:00:43",1700755243350,0,"23/11/2023 16:00:43",152734,7,"questionnaire-uu2n",NA,33166223,9820294,NA,"rejected - time limit reached",NA,"655f7538c10c0e2709fa6d00","computer","Desktop or Laptop","Windows 10","Chrome 119.0.0.0","1920x1200","842x1082",NA,NA,0,"BIQ (Charlotte)",2,"In","ABLCKDJEIFHG",NA,"In",3,"Spreadsheet1",1,"BIQ","Screen 2","o21mwi",2,"response","2",12560.396,17764.681,17781.366,12560.396,17764.681,17781.366,1,12560.396,5220.97000000001,0,NA,"Rating Scale","Rating Scale",9,"object-36","BIQ",NA,"MDPRF11898"
"9",1700755243351,"23/11/2023 16:00:43",1700755243351,0,"23/11/2023 16:00:43",152734,7,"questionnaire-uu2n",NA,33166223,9820294,NA,"rejected - time limit reached",NA,"655f7538c10c0e2709fa6d00","computer","Desktop or Laptop","Windows 10","Chrome 119.0.0.0","1920x1200","842x1082",NA,NA,0,"BIQ (Charlotte)",2,"In","ABLCKDJEIFHG",NA,"In",3,"Spreadsheet1",1,"BIQ","Screen 2","o21mwi",2,"response","5",17364.295,17764.681,17781.366,17364.295,17764.681,17781.366,1,17364.295,417.071000000011,0,NA,"Rating Scale","Rating Scale",16,"object-86","BIQ",NA,"MDPRF11898"
"10",1700755268148,"23/11/2023 16:01:08",1700755268148,0,"23/11/2023 16:01:08",152734,7,"questionnaire-uu2n",NA,33166223,9820294,NA,"rejected - time limit reached",NA,"655f7538c10c0e2709fa6d00","computer","Desktop or Laptop","Windows 10","Chrome 119.0.0.0","1920x1200","842x1082",NA,NA,0,"BIQ (Charlotte)",2,"In","ABLCKDJEIFHG",NA,"In",3,"Spreadsheet1",1,"BIQ","Screen 3","iz3the",3,"continue","",24817.0550000007,24803.946,24817.0550000007,24817.0550000007,24803.946,24817.0550000007,1,24817.0550000007,0,0,NA,"Click To Continue","Continue Button",22,"object-73","BIQ",NA,"MDPRF11898"
"11",1700755268149,"23/11/2023 16:01:08",1700755268149,0,"23/11/2023 16:01:08",152734,7,"questionnaire-uu2n",NA,33166223,9820294,NA,"rejected - time limit reached",NA,"655f7538c10c0e2709fa6d00","computer","Desktop or Laptop","Windows 10","Chrome 119.0.0.0","1920x1200","842x1082",NA,NA,0,"BIQ (Charlotte)",2,"In","ABLCKDJEIFHG",NA,"In",3,"Spreadsheet1",1,"BIQ","Screen 3","iz3the",3,"response","1",5270.967,24803.946,24818.955000003,5270.967,24803.946,24818.955000003,1,5270.967,19547.988000003,0,NA,"Rating Scale","Rating Scale",2,"object-53","BIQ",NA,"MDPRF11898"
"12",1700755268150,"23/11/2023 16:01:08",1700755268150,0,"23/11/2023 16:01:08",152734,7,"questionnaire-uu2n",NA,33166223,9820294,NA,"rejected - time limit reached",NA,"655f7538c10c0e2709fa6d00","computer","Desktop or Laptop","Windows 10","Chrome 119.0.0.0","1920x1200","842x1082",NA,NA,0,"BIQ (Charlotte)",2,"In","ABLCKDJEIFHG",NA,"In",3,"Spreadsheet1",1,"BIQ","Screen 3","iz3the",3,"response","0",19633.014,24803.946,24819.255,19633.014,24803.946,24819.255,1,19633.014,5186.24099999999,0,NA,"Rating Scale","Rating Scale",9,"object-60","BIQ",NA,"MDPRF11898"
"13",1700755268150,"23/11/2023 16:01:08",1700755268150,0,"23/11/2023 16:01:08",152734,7,"questionnaire-uu2n",NA,33166223,9820294,NA,"rejected - time limit reached",NA,"655f7538c10c0e2709fa6d00","computer","Desktop or Laptop","Windows 10","Chrome 119.0.0.0","1920x1200","842x1082",NA,NA,0,"BIQ (Charlotte)",2,"In","ABLCKDJEIFHG",NA,"In",3,"Spreadsheet1",1,"BIQ","Screen 3","iz3the",3,"response","5",23853.219,24803.946,24819.6550000022,23853.219,24803.946,24819.6550000022,1,23853.219,966.436000002228,0,NA,"Rating Scale","Rating Scale",16,"object-67","BIQ",NA,"MDPRF11898"
"14",1700755268153,"23/11/2023 16:01:08",1700755268153,0,"23/11/2023 16:01:08",152734,7,"questionnaire-uu2n",NA,33166223,9820294,NA,"rejected - time limit reached",NA,"655f7538c10c0e2709fa6d00","computer","Desktop or Laptop","Windows 10","Chrome 119.0.0.0","1920x1200","842x1082",NA,NA,0,"BIQ (Charlotte)",2,"In","ABLCKDJEIFHG",NA,"In",3,"Spreadsheet1",NA,"","","",NA,"5","END",NA,NA,NA,NA,NA,NA,0,NA,NA,NA,NA,"","",NA,"","",NA,"MDPRF11898"
"1",1700755881251,"23/11/2023 16:11:21",1700755881251,0,"23/11/2023 16:11:21",152734,7,"questionnaire-uu2n",NA,33166510,9820339,NA,"rejected - time limit reached",NA,"655f75bfa480aa0149f7bb90","computer","Desktop or Laptop","Windows 10","Edge 118.0.2088.69","1280x720","1232x594",NA,NA,0,"BIQ (Charlotte)",2,"In","BCADLEKFJGIH",NA,"In",4,"Spreadsheet1",NA,"","","",NA,"5","BEGIN",NA,NA,NA,NA,NA,NA,0,NA,NA,NA,NA,"","",NA,"","",NA,"MDPRF16716"
"2",1700755925699,"23/11/2023 16:12:05",1700755925699,0,"23/11/2023 16:12:05",152734,7,"questionnaire-uu2n",NA,33166510,9820339,NA,"rejected - time limit reached",NA,"655f75bfa480aa0149f7bb90","computer","Desktop or Laptop","Windows 10","Edge 118.0.2088.69","1280x720","1232x594",NA,NA,0,"BIQ (Charlotte)",2,"In","BCADLEKFJGIH",NA,"In",4,"Spreadsheet1",1,"BIQ","Screen 1","9dh6eq",1,"continue","",44455.7449997139,44443.192,44455.7449997139,44455.7449997139,44443.192,44455.7449997139,1,44455.7449997139,0,0,NA,"Click To Continue","Continue Button",23,"object-48","BIQ",NA,"MDPRF16716"
"3",1700755925704,"23/11/2023 16:12:05",1700755925704,0,"23/11/2023 16:12:05",152734,7,"questionnaire-uu2n",NA,33166510,9820339,NA,"rejected - time limit reached",NA,"655f75bfa480aa0149f7bb90","computer","Desktop or Laptop","Windows 10","Edge 118.0.2088.69","1280x720","1232x594",NA,NA,0,"BIQ (Charlotte)",2,"In","BCADLEKFJGIH",NA,"In",4,"Spreadsheet1",1,"BIQ","Screen 1","9dh6eq",1,"response","6",18836.097,44443.192,44459.872,18836.097,44443.192,44459.872,1,18836.097,25623.775,0,NA,"Rating Scale","Rating Scale",3,"object-5","BIQ",NA,"MDPRF16716"
"4",1700755925705,"23/11/2023 16:12:05",1700755925705,0,"23/11/2023 16:12:05",152734,7,"questionnaire-uu2n",NA,33166510,9820339,NA,"rejected - time limit reached",NA,"655f75bfa480aa0149f7bb90","computer","Desktop or Laptop","Windows 10","Edge 118.0.2088.69","1280x720","1232x594",NA,NA,0,"BIQ (Charlotte)",2,"In","BCADLEKFJGIH",NA,"In",4,"Spreadsheet1",1,"BIQ","Screen 1","9dh6eq",1,"response","5",31061.434,44443.192,44459.872,31061.434,44443.192,44459.872,1,31061.434,13398.438,0,NA,"Rating Scale","Rating Scale",10,"object-18","BIQ",NA,"MDPRF16716"
"5",1700755925706,"23/11/2023 16:12:05",1700755925706,0,"23/11/2023 16:12:05",152734,7,"questionnaire-uu2n",NA,33166510,9820339,NA,"rejected - time limit reached",NA,"655f75bfa480aa0149f7bb90","computer","Desktop or Laptop","Windows 10","Edge 118.0.2088.69","1280x720","1232x594",NA,NA,0,"BIQ (Charlotte)",2,"In","BCADLEKFJGIH",NA,"In",4,"Spreadsheet1",1,"BIQ","Screen 1","9dh6eq",1,"response","3",38197.264,44443.192,44459.872,38197.264,44443.192,44459.872,1,38197.264,6262.608,0,NA,"Rating Scale","Rating Scale",17,"object-80","BIQ",NA,"MDPRF16716"
"6",1700755950563,"23/11/2023 16:12:30",1700755950563,0,"23/11/2023 16:12:30",152734,7,"questionnaire-uu2n",NA,33166510,9820339,NA,"rejected - time limit reached",NA,"655f75bfa480aa0149f7bb90","computer","Desktop or Laptop","Windows 10","Edge 118.0.2088.69","1280x720","1232x594",NA,NA,0,"BIQ (Charlotte)",2,"In","BCADLEKFJGIH",NA,"In",4,"Spreadsheet1",1,"BIQ","Screen 2","o21mwi",2,"continue","",24877.465,24860.778,24877.465,24877.465,24860.778,24877.465,1,24877.465,0,0,NA,"Click To Continue","Continue Button",22,"object-50","BIQ",NA,"MDPRF16716"
"7",1700755950568,"23/11/2023 16:12:30",1700755950568,0,"23/11/2023 16:12:30",152734,7,"questionnaire-uu2n",NA,33166510,9820339,NA,"rejected - time limit reached",NA,"655f75bfa480aa0149f7bb90","computer","Desktop or Laptop","Windows 10","Edge 118.0.2088.69","1280x720","1232x594",NA,NA,0,"BIQ (Charlotte)",2,"In","BCADLEKFJGIH",NA,"In",4,"Spreadsheet1",1,"BIQ","Screen 2","o21mwi",2,"response","8",6910.079,24860.778,24877.465,6910.079,24860.778,24877.465,1,6910.079,17967.386,0,NA,"Rating Scale","Rating Scale",2,"object-259","BIQ",NA,"MDPRF16716"
"8",1700755950569,"23/11/2023 16:12:30",1700755950569,0,"23/11/2023 16:12:30",152734,7,"questionnaire-uu2n",NA,33166510,9820339,NA,"rejected - time limit reached",NA,"655f75bfa480aa0149f7bb90","computer","Desktop or Laptop","Windows 10","Edge 118.0.2088.69","1280x720","1232x594",NA,NA,0,"BIQ (Charlotte)",2,"In","BCADLEKFJGIH",NA,"In",4,"Spreadsheet1",1,"BIQ","Screen 2","o21mwi",2,"response","0",16187.311,24860.778,24877.465,16187.311,24860.778,24877.465,1,16187.311,8690.15399999999,0,NA,"Rating Scale","Rating Scale",9,"object-36","BIQ",NA,"MDPRF16716"
"9",1700755950570,"23/11/2023 16:12:30",1700755950570,0,"23/11/2023 16:12:30",152734,7,"questionnaire-uu2n",NA,33166510,9820339,NA,"rejected - time limit reached",NA,"655f75bfa480aa0149f7bb90","computer","Desktop or Laptop","Windows 10","Edge 118.0.2088.69","1280x720","1232x594",NA,NA,0,"BIQ (Charlotte)",2,"In","BCADLEKFJGIH",NA,"In",4,"Spreadsheet1",1,"BIQ","Screen 2","o21mwi",2,"response","0",23997.665,24860.778,24877.465,23997.665,24860.778,24877.465,1,23997.665,879.799999999988,0,NA,"Rating Scale","Rating Scale",16,"object-86","BIQ",NA,"MDPRF16716"
"10",1700755967404,"23/11/2023 16:12:47",1700755967404,0,"23/11/2023 16:12:47",152734,7,"questionnaire-uu2n",NA,33166510,9820339,NA,"rejected - time limit reached",NA,"655f75bfa480aa0149f7bb90","computer","Desktop or Laptop","Windows 10","Edge 118.0.2088.69","1280x720","1232x594",NA,NA,0,"BIQ (Charlotte)",2,"In","BCADLEKFJGIH",NA,"In",4,"Spreadsheet1",1,"BIQ","Screen 3","iz3the",3,"continue","",16865.6749998093,16855.262,16865.6749998093,16865.6749998093,16855.262,16865.6749998093,1,16865.6749998093,0,0,NA,"Click To Continue","Continue Button",22,"object-73","BIQ",NA,"MDPRF16716"
"11",1700755967409,"23/11/2023 16:12:47",1700755967409,0,"23/11/2023 16:12:47",152734,7,"questionnaire-uu2n",NA,33166510,9820339,NA,"rejected - time limit reached",NA,"655f75bfa480aa0149f7bb90","computer","Desktop or Laptop","Windows 10","Edge 118.0.2088.69","1280x720","1232x594",NA,NA,0,"BIQ (Charlotte)",2,"In","BCADLEKFJGIH",NA,"In",4,"Spreadsheet1",1,"BIQ","Screen 3","iz3the",3,"response","0",8394.71400000001,16855.262,16870.2749997139,8394.71400000001,16855.262,16870.2749997139,1,8394.71400000001,8475.5609997139,0,NA,"Rating Scale","Rating Scale",2,"object-53","BIQ",NA,"MDPRF16716"
"12",1700755967410,"23/11/2023 16:12:47",1700755967410,0,"23/11/2023 16:12:47",152734,7,"questionnaire-uu2n",NA,33166510,9820339,NA,"rejected - time limit reached",NA,"655f75bfa480aa0149f7bb90","computer","Desktop or Laptop","Windows 10","Edge 118.0.2088.69","1280x720","1232x594",NA,NA,0,"BIQ (Charlotte)",2,"In","BCADLEKFJGIH",NA,"In",4,"Spreadsheet1",1,"BIQ","Screen 3","iz3the",3,"response","0",12075.156,16855.262,16871.3750000954,12075.156,16855.262,16871.3750000954,1,12075.156,4796.21900009537,0,NA,"Rating Scale","Rating Scale",9,"object-60","BIQ",NA,"MDPRF16716"
"13",1700755967411,"23/11/2023 16:12:47",1700755967411,0,"23/11/2023 16:12:47",152734,7,"questionnaire-uu2n",NA,33166510,9820339,NA,"rejected - time limit reached",NA,"655f75bfa480aa0149f7bb90","computer","Desktop or Laptop","Windows 10","Edge 118.0.2088.69","1280x720","1232x594",NA,NA,0,"BIQ (Charlotte)",2,"In","BCADLEKFJGIH",NA,"In",4,"Spreadsheet1",1,"BIQ","Screen 3","iz3the",3,"response","0",15425.855,16855.262,16872.258,15425.855,16855.262,16872.258,1,15425.855,1446.40299999999,0,NA,"Rating Scale","Rating Scale",16,"object-67","BIQ",NA,"MDPRF16716"
"14",1700755967419,"23/11/2023 16:12:47",1700755967419,0,"23/11/2023 16:12:47",152734,7,"questionnaire-uu2n",NA,33166510,9820339,NA,"rejected - time limit reached",NA,"655f75bfa480aa0149f7bb90","computer","Desktop or Laptop","Windows 10","Edge 118.0.2088.69","1280x720","1232x594",NA,NA,0,"BIQ (Charlotte)",2,"In","BCADLEKFJGIH",NA,"In",4,"Spreadsheet1",NA,"","","",NA,"5","END",NA,NA,NA,NA,NA,NA,0,NA,NA,NA,NA,"","",NA,"","",NA,"MDPRF16716"
"1",1700756268384,"23/11/2023 16:17:48",1700756268384,0,"23/11/2023 16:17:48",152734,7,"questionnaire-uu2n",NA,33166665,9820530,NA,"rejected - time limit reached",NA,"655f7accd0f835342f1bfbaf","computer","Desktop or Laptop","Windows 10","Chrome 119.0.0.0","1920x1080","1920x955",NA,NA,0,"BIQ (Charlotte)",2,"In","EFDGCHBIAJLK",NA,"In",2,"Spreadsheet1",NA,"","","",NA,"5","BEGIN",NA,NA,NA,NA,NA,NA,0,NA,NA,NA,NA,"","",NA,"","",NA,"MDPRF51004"
"2",1700756342043,"23/11/2023 16:19:02",1700756342043,0,"23/11/2023 16:19:02",152734,7,"questionnaire-uu2n",NA,33166665,9820530,NA,"rejected - time limit reached",NA,"655f7accd0f835342f1bfbaf","computer","Desktop or Laptop","Windows 10","Chrome 119.0.0.0","1920x1080","1920x955",NA,NA,0,"BIQ (Charlotte)",2,"In","EFDGCHBIAJLK",NA,"In",2,"Spreadsheet1",1,"BIQ","Screen 1","9dh6eq",1,"continue","",73663.1119999762,73659.097,73663.1119999762,73663.1119999762,73659.097,73663.1119999762,1,73663.1119999762,0,0,NA,"Click To Continue","Continue Button",23,"object-48","BIQ",NA,"MDPRF51004"
"3",1700756342044,"23/11/2023 16:19:02",1700756342044,0,"23/11/2023 16:19:02",152734,7,"questionnaire-uu2n",NA,33166665,9820530,NA,"rejected - time limit reached",NA,"655f7accd0f835342f1bfbaf","computer","Desktop or Laptop","Windows 10","Chrome 119.0.0.0","1920x1080","1920x955",NA,NA,0,"BIQ (Charlotte)",2,"In","EFDGCHBIAJLK",NA,"In",2,"Spreadsheet1",1,"BIQ","Screen 1","9dh6eq",1,"response","3",52134.003,73659.097,73663.271,52134.003,73659.097,73663.271,1,52134.003,21529.268,0,NA,"Rating Scale","Rating Scale",3,"object-5","BIQ",NA,"MDPRF51004"
"4",1700756342045,"23/11/2023 16:19:02",1700756342045,0,"23/11/2023 16:19:02",152734,7,"questionnaire-uu2n",NA,33166665,9820530,NA,"rejected - time limit reached",NA,"655f7accd0f835342f1bfbaf","computer","Desktop or Laptop","Windows 10","Chrome 119.0.0.0","1920x1080","1920x955",NA,NA,0,"BIQ (Charlotte)",2,"In","EFDGCHBIAJLK",NA,"In",2,"Spreadsheet1",1,"BIQ","Screen 1","9dh6eq",1,"response","7",64779.624,73659.097,73663.271,64779.624,73659.097,73663.271,1,64779.624,8883.647,0,NA,"Rating Scale","Rating Scale",10,"object-18","BIQ",NA,"MDPRF51004"
"5",1700756342045,"23/11/2023 16:19:02",1700756342045,0,"23/11/2023 16:19:02",152734,7,"questionnaire-uu2n",NA,33166665,9820530,NA,"rejected - time limit reached",NA,"655f7accd0f835342f1bfbaf","computer","Desktop or Laptop","Windows 10","Chrome 119.0.0.0","1920x1080","1920x955",NA,NA,0,"BIQ (Charlotte)",2,"In","EFDGCHBIAJLK",NA,"In",2,"Spreadsheet1",1,"BIQ","Screen 1","9dh6eq",1,"response","1",71198.373,73659.097,73663.271,71198.373,73659.097,73663.271,1,71198.373,2464.898,0,NA,"Rating Scale","Rating Scale",17,"object-80","BIQ",NA,"MDPRF51004"
"6",1700756367235,"23/11/2023 16:19:27",1700756367235,0,"23/11/2023 16:19:27",152734,7,"questionnaire-uu2n",NA,33166665,9820530,NA,"rejected - time limit reached",NA,"655f7accd0f835342f1bfbaf","computer","Desktop or Laptop","Windows 10","Chrome 119.0.0.0","1920x1080","1920x955",NA,NA,0,"BIQ (Charlotte)",2,"In","EFDGCHBIAJLK",NA,"In",2,"Spreadsheet1",1,"BIQ","Screen 2","o21mwi",2,"continue","",25199.115,25195.336,25199.115,25199.115,25195.336,25199.115,1,25199.115,0,0,NA,"Click To Continue","Continue Button",22,"object-50","BIQ",NA,"MDPRF51004"
"7",1700756367237,"23/11/2023 16:19:27",1700756367237,0,"23/11/2023 16:19:27",152734,7,"questionnaire-uu2n",NA,33166665,9820530,NA,"rejected - time limit reached",NA,"655f7accd0f835342f1bfbaf","computer","Desktop or Laptop","Windows 10","Chrome 119.0.0.0","1920x1080","1920x955",NA,NA,0,"BIQ (Charlotte)",2,"In","EFDGCHBIAJLK",NA,"In",2,"Spreadsheet1",1,"BIQ","Screen 2","o21mwi",2,"response","8",4863.07100000001,25195.336,25199.52,4863.07100000001,25195.336,25199.52,1,4863.07100000001,20336.449,0,NA,"Rating Scale","Rating Scale",2,"object-259","BIQ",NA,"MDPRF51004"
"8",1700756367237,"23/11/2023 16:19:27",1700756367237,0,"23/11/2023 16:19:27",152734,7,"questionnaire-uu2n",NA,33166665,9820530,NA,"rejected - time limit reached",NA,"655f7accd0f835342f1bfbaf","computer","Desktop or Laptop","Windows 10","Chrome 119.0.0.0","1920x1080","1920x955",NA,NA,0,"BIQ (Charlotte)",2,"In","EFDGCHBIAJLK",NA,"In",2,"Spreadsheet1",1,"BIQ","Screen 2","o21mwi",2,"response","1",13408.876,25195.336,25199.52,13408.876,25195.336,25199.52,1,13408.876,11790.644,0,NA,"Rating Scale","Rating Scale",9,"object-36","BIQ",NA,"MDPRF51004"
"9",1700756367237,"23/11/2023 16:19:27",1700756367237,0,"23/11/2023 16:19:27",152734,7,"questionnaire-uu2n",NA,33166665,9820530,NA,"rejected - time limit reached",NA,"655f7accd0f835342f1bfbaf","computer","Desktop or Laptop","Windows 10","Chrome 119.0.0.0","1920x1080","1920x955",NA,NA,0,"BIQ (Charlotte)",2,"In","EFDGCHBIAJLK",NA,"In",2,"Spreadsheet1",1,"BIQ","Screen 2","o21mwi",2,"response","1",24156.821,25195.336,25199.52,24156.821,25195.336,25199.52,1,24156.821,1042.69900000001,0,NA,"Rating Scale","Rating Scale",16,"object-86","BIQ",NA,"MDPRF51004"
"10",1700756386789,"23/11/2023 16:19:46",1700756386789,0,"23/11/2023 16:19:46",152734,7,"questionnaire-uu2n",NA,33166665,9820530,NA,"rejected - time limit reached",NA,"655f7accd0f835342f1bfbaf","computer","Desktop or Laptop","Windows 10","Chrome 119.0.0.0","1920x1080","1920x955",NA,NA,0,"BIQ (Charlotte)",2,"In","EFDGCHBIAJLK",NA,"In",2,"Spreadsheet1",1,"BIQ","Screen 3","iz3the",3,"continue","",19556.462,19552.297,19556.462,19556.462,19552.297,19556.462,1,19556.462,0,0,NA,"Click To Continue","Continue Button",22,"object-73","BIQ",NA,"MDPRF51004"
"11",1700756386790,"23/11/2023 16:19:46",1700756386790,0,"23/11/2023 16:19:46",152734,7,"questionnaire-uu2n",NA,33166665,9820530,NA,"rejected - time limit reached",NA,"655f7accd0f835342f1bfbaf","computer","Desktop or Laptop","Windows 10","Chrome 119.0.0.0","1920x1080","1920x955",NA,NA,0,"BIQ (Charlotte)",2,"In","EFDGCHBIAJLK",NA,"In",2,"Spreadsheet1",1,"BIQ","Screen 3","iz3the",3,"response","0",12491.309,19552.297,19556.462,12491.309,19552.297,19556.462,1,12491.309,7065.15299999999,0,NA,"Rating Scale","Rating Scale",2,"object-53","BIQ",NA,"MDPRF51004"
"12",1700756386791,"23/11/2023 16:19:46",1700756386791,0,"23/11/2023 16:19:46",152734,7,"questionnaire-uu2n",NA,33166665,9820530,NA,"rejected - time limit reached",NA,"655f7accd0f835342f1bfbaf","computer","Desktop or Laptop","Windows 10","Chrome 119.0.0.0","1920x1080","1920x955",NA,NA,0,"BIQ (Charlotte)",2,"In","EFDGCHBIAJLK",NA,"In",2,"Spreadsheet1",1,"BIQ","Screen 3","iz3the",3,"response","0",16290.835,19552.297,19556.462,16290.835,19552.297,19556.462,1,16290.835,3265.62699999999,0,NA,"Rating Scale","Rating Scale",9,"object-60","BIQ",NA,"MDPRF51004"
"13",1700756386791,"23/11/2023 16:19:46",1700756386791,0,"23/11/2023 16:19:46",152734,7,"questionnaire-uu2n",NA,33166665,9820530,NA,"rejected - time limit reached",NA,"655f7accd0f835342f1bfbaf","computer","Desktop or Laptop","Windows 10","Chrome 119.0.0.0","1920x1080","1920x955",NA,NA,0,"BIQ (Charlotte)",2,"In","EFDGCHBIAJLK",NA,"In",2,"Spreadsheet1",1,"BIQ","Screen 3","iz3the",3,"response","0",19022.65,19552.297,19556.462,19022.65,19552.297,19556.462,1,19022.65,533.811999999991,0,NA,"Rating Scale","Rating Scale",16,"object-67","BIQ",NA,"MDPRF51004"
"14",1700756386794,"23/11/2023 16:19:46",1700756386794,0,"23/11/2023 16:19:46",152734,7,"questionnaire-uu2n",NA,33166665,9820530,NA,"rejected - time limit reached",NA,"655f7accd0f835342f1bfbaf","computer","Desktop or Laptop","Windows 10","Chrome 119.0.0.0","1920x1080","1920x955",NA,NA,0,"BIQ (Charlotte)",2,"In","EFDGCHBIAJLK",NA,"In",2,"Spreadsheet1",NA,"","","",NA,"5","END",NA,NA,NA,NA,NA,NA,0,NA,NA,NA,NA,"","",NA,"","",NA,"MDPRF51004"
"1",1700756297659,"23/11/2023 16:18:17",1700756297659,0,"23/11/2023 16:18:17",152734,7,"questionnaire-uu2n",NA,33166674,9820453,NA,"rejected - time limit reached",NA,"655f78fa490309aa27ba14b4","computer","Desktop or Laptop","Windows 10","Chrome 119.0.0.0","1280x720","1280x593",NA,NA,0,"BIQ (Charlotte)",2,"In","CDBEAFLGKHJI",NA,"In",1,"Spreadsheet1",NA,"","","",NA,"5","BEGIN",NA,NA,NA,NA,NA,NA,0,NA,NA,NA,NA,"","",NA,"","",NA,"MDPRF19699"
"2",1700756328573,"23/11/2023 16:18:48",1700756328573,0,"23/11/2023 16:18:48",152734,7,"questionnaire-uu2n",NA,33166674,9820453,NA,"rejected - time limit reached",NA,"655f78fa490309aa27ba14b4","computer","Desktop or Laptop","Windows 10","Chrome 119.0.0.0","1280x720","1280x593",NA,NA,0,"BIQ (Charlotte)",2,"In","CDBEAFLGKHJI",NA,"In",1,"Spreadsheet1",1,"BIQ","Screen 1","9dh6eq",1,"continue","",30937.205,30920.662,30937.205,30937.205,30920.662,30937.205,1,30937.205,0,0,NA,"Click To Continue","Continue Button",23,"object-48","BIQ",NA,"MDPRF19699"
"3",1700756328578,"23/11/2023 16:18:48",1700756328578,0,"23/11/2023 16:18:48",152734,7,"questionnaire-uu2n",NA,33166674,9820453,NA,"rejected - time limit reached",NA,"655f78fa490309aa27ba14b4","computer","Desktop or Laptop","Windows 10","Chrome 119.0.0.0","1280x720","1280x593",NA,NA,0,"BIQ (Charlotte)",2,"In","CDBEAFLGKHJI",NA,"In",1,"Spreadsheet1",1,"BIQ","Screen 1","9dh6eq",1,"response","1",21013.808,30920.662,30937.205,21013.808,30920.662,30937.205,1,21013.808,9923.397,0,NA,"Rating Scale","Rating Scale",3,"object-5","BIQ",NA,"MDPRF19699"
"4",1700756328579,"23/11/2023 16:18:48",1700756328579,0,"23/11/2023 16:18:48",152734,7,"questionnaire-uu2n",NA,33166674,9820453,NA,"rejected - time limit reached",NA,"655f78fa490309aa27ba14b4","computer","Desktop or Laptop","Windows 10","Chrome 119.0.0.0","1280x720","1280x593",NA,NA,0,"BIQ (Charlotte)",2,"In","CDBEAFLGKHJI",NA,"In",1,"Spreadsheet1",1,"BIQ","Screen 1","9dh6eq",1,"response","3",26824.771,30920.662,30937.205,26824.771,30920.662,30937.205,1,26824.771,4112.434,0,NA,"Rating Scale","Rating Scale",10,"object-18","BIQ",NA,"MDPRF19699"
"5",1700756328581,"23/11/2023 16:18:48",1700756328581,0,"23/11/2023 16:18:48",152734,7,"questionnaire-uu2n",NA,33166674,9820453,NA,"rejected - time limit reached",NA,"655f78fa490309aa27ba14b4","computer","Desktop or Laptop","Windows 10","Chrome 119.0.0.0","1280x720","1280x593",NA,NA,0,"BIQ (Charlotte)",2,"In","CDBEAFLGKHJI",NA,"In",1,"Spreadsheet1",1,"BIQ","Screen 1","9dh6eq",1,"response","4",28756.257,30920.662,30937.205,28756.257,30920.662,30937.205,1,28756.257,2180.948,0,NA,"Rating Scale","Rating Scale",17,"object-80","BIQ",NA,"MDPRF19699"
"6",1700756344395,"23/11/2023 16:19:04",1700756344395,0,"23/11/2023 16:19:04",152734,7,"questionnaire-uu2n",NA,33166674,9820453,NA,"rejected - time limit reached",NA,"655f78fa490309aa27ba14b4","computer","Desktop or Laptop","Windows 10","Chrome 119.0.0.0","1280x720","1280x593",NA,NA,0,"BIQ (Charlotte)",2,"In","CDBEAFLGKHJI",NA,"In",1,"Spreadsheet1",1,"BIQ","Screen 2","o21mwi",2,"continue","",15847.8750015259,15835.22,15847.8750015259,15847.8750015259,15835.22,15847.8750015259,1,15847.8750015259,0,0,NA,"Click To Continue","Continue Button",22,"object-50","BIQ",NA,"MDPRF19699"
"7",1700756344401,"23/11/2023 16:19:04",1700756344401,0,"23/11/2023 16:19:04",152734,7,"questionnaire-uu2n",NA,33166674,9820453,NA,"rejected - time limit reached",NA,"655f78fa490309aa27ba14b4","computer","Desktop or Laptop","Windows 10","Chrome 119.0.0.0","1280x720","1280x593",NA,NA,0,"BIQ (Charlotte)",2,"In","CDBEAFLGKHJI",NA,"In",1,"Spreadsheet1",1,"BIQ","Screen 2","o21mwi",2,"response","7",4212.763,15835.22,15852.43,4212.763,15835.22,15852.43,1,4212.763,11639.667,0,NA,"Rating Scale","Rating Scale",2,"object-259","BIQ",NA,"MDPRF19699"
"8",1700756344402,"23/11/2023 16:19:04",1700756344402,0,"23/11/2023 16:19:04",152734,7,"questionnaire-uu2n",NA,33166674,9820453,NA,"rejected - time limit reached",NA,"655f78fa490309aa27ba14b4","computer","Desktop or Laptop","Windows 10","Chrome 119.0.0.0","1280x720","1280x593",NA,NA,0,"BIQ (Charlotte)",2,"In","CDBEAFLGKHJI",NA,"In",1,"Spreadsheet1",1,"BIQ","Screen 2","o21mwi",2,"response","6",8092.572,15835.22,15852.43,8092.572,15835.22,15852.43,1,8092.572,7759.858,0,NA,"Rating Scale","Rating Scale",9,"object-36","BIQ",NA,"MDPRF19699"
"9",1700756344404,"23/11/2023 16:19:04",1700756344404,0,"23/11/2023 16:19:04",152734,7,"questionnaire-uu2n",NA,33166674,9820453,NA,"rejected - time limit reached",NA,"655f78fa490309aa27ba14b4","computer","Desktop or Laptop","Windows 10","Chrome 119.0.0.0","1280x720","1280x593",NA,NA,0,"BIQ (Charlotte)",2,"In","CDBEAFLGKHJI",NA,"In",1,"Spreadsheet1",1,"BIQ","Screen 2","o21mwi",2,"response","2",14669.661,15835.22,15852.43,14669.661,15835.22,15852.43,1,14669.661,1182.769,0,NA,"Rating Scale","Rating Scale",16,"object-86","BIQ",NA,"MDPRF19699"
"10",1700756353835,"23/11/2023 16:19:13",1700756353835,0,"23/11/2023 16:19:13",152734,7,"questionnaire-uu2n",NA,33166674,9820453,NA,"rejected - time limit reached",NA,"655f78fa490309aa27ba14b4","computer","Desktop or Laptop","Windows 10","Chrome 119.0.0.0","1280x720","1280x593",NA,NA,0,"BIQ (Charlotte)",2,"In","CDBEAFLGKHJI",NA,"In",1,"Spreadsheet1",1,"BIQ","Screen 3","iz3the",3,"continue","",9452.255,9440.594,9452.255,9452.255,9440.594,9452.255,1,9452.255,0,0,NA,"Click To Continue","Continue Button",22,"object-73","BIQ",NA,"MDPRF19699"
"11",1700756353835,"23/11/2023 16:19:13",1700756353835,0,"23/11/2023 16:19:13",152734,7,"questionnaire-uu2n",NA,33166674,9820453,NA,"rejected - time limit reached",NA,"655f78fa490309aa27ba14b4","computer","Desktop or Laptop","Windows 10","Chrome 119.0.0.0","1280x720","1280x593",NA,NA,0,"BIQ (Charlotte)",2,"In","CDBEAFLGKHJI",NA,"In",1,"Spreadsheet1",1,"BIQ","Screen 3","iz3the",3,"response","1",4029.035,9440.594,9453.255,4029.035,9440.594,9453.255,1,4029.035,5424.22,0,NA,"Rating Scale","Rating Scale",2,"object-53","BIQ",NA,"MDPRF19699"
"12",1700756353836,"23/11/2023 16:19:13",1700756353836,0,"23/11/2023 16:19:13",152734,7,"questionnaire-uu2n",NA,33166674,9820453,NA,"rejected - time limit reached",NA,"655f78fa490309aa27ba14b4","computer","Desktop or Laptop","Windows 10","Chrome 119.0.0.0","1280x720","1280x593",NA,NA,0,"BIQ (Charlotte)",2,"In","CDBEAFLGKHJI",NA,"In",1,"Spreadsheet1",1,"BIQ","Screen 3","iz3the",3,"response","6",6743.745,9440.594,9453.85500228882,6743.745,9440.594,9453.85500228882,1,6743.745,2710.11000228882,0,NA,"Rating Scale","Rating Scale",9,"object-60","BIQ",NA,"MDPRF19699"
"13",1700756353837,"23/11/2023 16:19:13",1700756353837,0,"23/11/2023 16:19:13",152734,7,"questionnaire-uu2n",NA,33166674,9820453,NA,"rejected - time limit reached",NA,"655f78fa490309aa27ba14b4","computer","Desktop or Laptop","Windows 10","Chrome 119.0.0.0","1280x720","1280x593",NA,NA,0,"BIQ (Charlotte)",2,"In","CDBEAFLGKHJI",NA,"In",1,"Spreadsheet1",1,"BIQ","Screen 3","iz3the",3,"response","6",8408.478,9440.594,9454.65500152588,8408.478,9440.594,9454.65500152588,1,8408.478,1046.17700152588,0,NA,"Rating Scale","Rating Scale",16,"object-67","BIQ",NA,"MDPRF19699"
"14",1700756353845,"23/11/2023 16:19:13",1700756353845,0,"23/11/2023 16:19:13",152734,7,"questionnaire-uu2n",NA,33166674,9820453,NA,"rejected - time limit reached",NA,"655f78fa490309aa27ba14b4","computer","Desktop or Laptop","Windows 10","Chrome 119.0.0.0","1280x720","1280x593",NA,NA,0,"BIQ (Charlotte)",2,"In","CDBEAFLGKHJI",NA,"In",1,"Spreadsheet1",NA,"","","",NA,"5","END",NA,NA,NA,NA,NA,NA,0,NA,NA,NA,NA,"","",NA,"","",NA,"MDPRF19699"
"1",1700756404438,"23/11/2023 16:20:04",1700756404438,0,"23/11/2023 16:20:04",152734,7,"questionnaire-uu2n",NA,33166719,9820544,NA,"rejected - time limit reached",NA,"655f7b5c9d2a85b02c5642bf","computer","Desktop or Laptop","Windows 10","Chrome 119.0.0.0","1920x1080","1920x923",NA,NA,0,"BIQ (Charlotte)",2,"In","FGEHDICJBKAL",NA,"In",5,"Spreadsheet1",NA,"","","",NA,"5","BEGIN",NA,NA,NA,NA,NA,NA,0,NA,NA,NA,NA,"","",NA,"","",NA,"MDPRF45887"
"2",1700756464132,"23/11/2023 16:21:04",1700756464132,0,"23/11/2023 16:21:04",152734,7,"questionnaire-uu2n",NA,33166719,9820544,NA,"rejected - time limit reached",NA,"655f7b5c9d2a85b02c5642bf","computer","Desktop or Laptop","Windows 10","Chrome 119.0.0.0","1920x1080","1920x923",NA,NA,0,"BIQ (Charlotte)",2,"In","FGEHDICJBKAL",NA,"In",5,"Spreadsheet1",1,"BIQ","Screen 1","9dh6eq",1,"continue","",59695.149,59690.978,59695.149,59695.149,59690.978,59695.149,1,59695.149,0,0,NA,"Click To Continue","Continue Button",23,"object-48","BIQ",NA,"MDPRF45887"
"3",1700756464134,"23/11/2023 16:21:04",1700756464134,0,"23/11/2023 16:21:04",152734,7,"questionnaire-uu2n",NA,33166719,9820544,NA,"rejected - time limit reached",NA,"655f7b5c9d2a85b02c5642bf","computer","Desktop or Laptop","Windows 10","Chrome 119.0.0.0","1920x1080","1920x923",NA,NA,0,"BIQ (Charlotte)",2,"In","FGEHDICJBKAL",NA,"In",5,"Spreadsheet1",1,"BIQ","Screen 1","9dh6eq",1,"response","6",23265.503,59690.978,59695.149,23265.503,59690.978,59695.149,1,23265.503,36429.646,0,NA,"Rating Scale","Rating Scale",3,"object-5","BIQ",NA,"MDPRF45887"
"4",1700756464134,"23/11/2023 16:21:04",1700756464134,0,"23/11/2023 16:21:04",152734,7,"questionnaire-uu2n",NA,33166719,9820544,NA,"rejected - time limit reached",NA,"655f7b5c9d2a85b02c5642bf","computer","Desktop or Laptop","Windows 10","Chrome 119.0.0.0","1920x1080","1920x923",NA,NA,0,"BIQ (Charlotte)",2,"In","FGEHDICJBKAL",NA,"In",5,"Spreadsheet1",1,"BIQ","Screen 1","9dh6eq",1,"response","7",38079.193,59690.978,59695.149,38079.193,59690.978,59695.149,1,38079.193,21615.956,0,NA,"Rating Scale","Rating Scale",10,"object-18","BIQ",NA,"MDPRF45887"
"5",1700756464134,"23/11/2023 16:21:04",1700756464134,0,"23/11/2023 16:21:04",152734,7,"questionnaire-uu2n",NA,33166719,9820544,NA,"rejected - time limit reached",NA,"655f7b5c9d2a85b02c5642bf","computer","Desktop or Laptop","Windows 10","Chrome 119.0.0.0","1920x1080","1920x923",NA,NA,0,"BIQ (Charlotte)",2,"In","FGEHDICJBKAL",NA,"In",5,"Spreadsheet1",1,"BIQ","Screen 1","9dh6eq",1,"response","2",54677.114,59690.978,59695.149,54677.114,59690.978,59695.149,1,54677.114,5018.035,0,NA,"Rating Scale","Rating Scale",17,"object-80","BIQ",NA,"MDPRF45887"
"6",1700756492411,"23/11/2023 16:21:32",1700756492411,0,"23/11/2023 16:21:32",152734,7,"questionnaire-uu2n",NA,33166719,9820544,NA,"rejected - time limit reached",NA,"655f7b5c9d2a85b02c5642bf","computer","Desktop or Laptop","Windows 10","Chrome 119.0.0.0","1920x1080","1920x923",NA,NA,0,"BIQ (Charlotte)",2,"In","FGEHDICJBKAL",NA,"In",5,"Spreadsheet1",1,"BIQ","Screen 2","o21mwi",2,"continue","",28285.9879999989,28283.307,28285.9879999989,28285.9879999989,28283.307,28285.9879999989,1,28285.9879999989,0,0,NA,"Click To Continue","Continue Button",22,"object-50","BIQ",NA,"MDPRF45887"
"7",1700756492412,"23/11/2023 16:21:32",1700756492412,0,"23/11/2023 16:21:32",152734,7,"questionnaire-uu2n",NA,33166719,9820544,NA,"rejected - time limit reached",NA,"655f7b5c9d2a85b02c5642bf","computer","Desktop or Laptop","Windows 10","Chrome 119.0.0.0","1920x1080","1920x923",NA,NA,0,"BIQ (Charlotte)",2,"In","FGEHDICJBKAL",NA,"In",5,"Spreadsheet1",1,"BIQ","Screen 2","o21mwi",2,"response","8",7654.499,28283.307,28287.478,7654.499,28283.307,28287.478,1,7654.499,20632.979,0,NA,"Rating Scale","Rating Scale",2,"object-259","BIQ",NA,"MDPRF45887"
"8",1700756492412,"23/11/2023 16:21:32",1700756492412,0,"23/11/2023 16:21:32",152734,7,"questionnaire-uu2n",NA,33166719,9820544,NA,"rejected - time limit reached",NA,"655f7b5c9d2a85b02c5642bf","computer","Desktop or Laptop","Windows 10","Chrome 119.0.0.0","1920x1080","1920x923",NA,NA,0,"BIQ (Charlotte)",2,"In","FGEHDICJBKAL",NA,"In",5,"Spreadsheet1",1,"BIQ","Screen 2","o21mwi",2,"response","0",16023.659,28283.307,28287.478,16023.659,28283.307,28287.478,1,16023.659,12263.819,0,NA,"Rating Scale","Rating Scale",9,"object-36","BIQ",NA,"MDPRF45887"
"9",1700756492412,"23/11/2023 16:21:32",1700756492412,0,"23/11/2023 16:21:32",152734,7,"questionnaire-uu2n",NA,33166719,9820544,NA,"rejected - time limit reached",NA,"655f7b5c9d2a85b02c5642bf","computer","Desktop or Laptop","Windows 10","Chrome 119.0.0.0","1920x1080","1920x923",NA,NA,0,"BIQ (Charlotte)",2,"In","FGEHDICJBKAL",NA,"In",5,"Spreadsheet1",1,"BIQ","Screen 2","o21mwi",2,"response","0",20610.499,28283.307,28287.478,20610.499,28283.307,28287.478,1,20610.499,7676.97900000001,0,NA,"Rating Scale","Rating Scale",16,"object-86","BIQ",NA,"MDPRF45887"
"10",1700756504570,"23/11/2023 16:21:44",1700756504570,0,"23/11/2023 16:21:44",152734,7,"questionnaire-uu2n",NA,33166719,9820544,NA,"rejected - time limit reached",NA,"655f7b5c9d2a85b02c5642bf","computer","Desktop or Laptop","Windows 10","Chrome 119.0.0.0","1920x1080","1920x923",NA,NA,0,"BIQ (Charlotte)",2,"In","FGEHDICJBKAL",NA,"In",5,"Spreadsheet1",1,"BIQ","Screen 3","iz3the",3,"continue","",12161.102,12156.932,12161.102,12161.102,12156.932,12161.102,1,12161.102,0,0,NA,"Click To Continue","Continue Button",22,"object-73","BIQ",NA,"MDPRF45887"
"11",1700756504572,"23/11/2023 16:21:44",1700756504572,0,"23/11/2023 16:21:44",152734,7,"questionnaire-uu2n",NA,33166719,9820544,NA,"rejected - time limit reached",NA,"655f7b5c9d2a85b02c5642bf","computer","Desktop or Laptop","Windows 10","Chrome 119.0.0.0","1920x1080","1920x923",NA,NA,0,"BIQ (Charlotte)",2,"In","FGEHDICJBKAL",NA,"In",5,"Spreadsheet1",1,"BIQ","Screen 3","iz3the",3,"response","0",5746.007,12156.932,12161.102,5746.007,12156.932,12161.102,1,5746.007,6415.09500000002,0,NA,"Rating Scale","Rating Scale",2,"object-53","BIQ",NA,"MDPRF45887"
"12",1700756504572,"23/11/2023 16:21:44",1700756504572,0,"23/11/2023 16:21:44",152734,7,"questionnaire-uu2n",NA,33166719,9820544,NA,"rejected - time limit reached",NA,"655f7b5c9d2a85b02c5642bf","computer","Desktop or Laptop","Windows 10","Chrome 119.0.0.0","1920x1080","1920x923",NA,NA,0,"BIQ (Charlotte)",2,"In","FGEHDICJBKAL",NA,"In",5,"Spreadsheet1",1,"BIQ","Screen 3","iz3the",3,"response","0",8630.53999999999,12156.932,12161.102,8630.53999999999,12156.932,12161.102,1,8630.53999999999,3530.56200000002,0,NA,"Rating Scale","Rating Scale",9,"object-60","BIQ",NA,"MDPRF45887"
"13",1700756504572,"23/11/2023 16:21:44",1700756504572,0,"23/11/2023 16:21:44",152734,7,"questionnaire-uu2n",NA,33166719,9820544,NA,"rejected - time limit reached",NA,"655f7b5c9d2a85b02c5642bf","computer","Desktop or Laptop","Windows 10","Chrome 119.0.0.0","1920x1080","1920x923",NA,NA,0,"BIQ (Charlotte)",2,"In","FGEHDICJBKAL",NA,"In",5,"Spreadsheet1",1,"BIQ","Screen 3","iz3the",3,"response","0",11376.448,12156.932,12161.102,11376.448,12156.932,12161.102,1,11376.448,784.654000000024,0,NA,"Rating Scale","Rating Scale",16,"object-67","BIQ",NA,"MDPRF45887"
"14",1700756504574,"23/11/2023 16:21:44",1700756504574,0,"23/11/2023 16:21:44",152734,7,"questionnaire-uu2n",NA,33166719,9820544,NA,"rejected - time limit reached",NA,"655f7b5c9d2a85b02c5642bf","computer","Desktop or Laptop","Windows 10","Chrome 119.0.0.0","1920x1080","1920x923",NA,NA,0,"BIQ (Charlotte)",2,"In","FGEHDICJBKAL",NA,"In",5,"Spreadsheet1",NA,"","","",NA,"5","END",NA,NA,NA,NA,NA,NA,0,NA,NA,NA,NA,"","",NA,"","",NA,"MDPRF45887"
"1",1700756503599,"23/11/2023 16:21:43",1700756503599,0,"23/11/2023 16:21:43",152734,7,"questionnaire-uu2n",NA,33166774,9820558,NA,"rejected - time limit reached",NA,"655f7baa175f84ab15d9de27","computer","Desktop or Laptop","Windows 10","Edge 119.0.0.0","1536x864","1528x750",NA,NA,0,"BIQ (Charlotte)",2,"In","GHFIEJDKCLBA",NA,"In",6,"Spreadsheet1",NA,"","","",NA,"5","BEGIN",NA,NA,NA,NA,NA,NA,0,NA,NA,NA,NA,"","",NA,"","",NA,"MDPRF13926"
"2",1700756533616,"23/11/2023 16:22:13",1700756533616,0,"23/11/2023 16:22:13",152734,7,"questionnaire-uu2n",NA,33166774,9820558,NA,"rejected - time limit reached",NA,"655f7baa175f84ab15d9de27","computer","Desktop or Laptop","Windows 10","Edge 119.0.0.0","1536x864","1528x750",NA,NA,0,"BIQ (Charlotte)",2,"In","GHFIEJDKCLBA",NA,"In",6,"Spreadsheet1",1,"BIQ","Screen 1","9dh6eq",1,"continue","",30705.8000000007,30697.096,30705.8000000007,30705.8000000007,30697.096,30705.8000000007,1,30705.8000000007,0,0,NA,"Click To Continue","Continue Button",23,"object-48","BIQ",NA,"MDPRF13926"
"3",1700756533617,"23/11/2023 16:22:13",1700756533617,0,"23/11/2023 16:22:13",152734,7,"questionnaire-uu2n",NA,33166774,9820558,NA,"rejected - time limit reached",NA,"655f7baa175f84ab15d9de27","computer","Desktop or Laptop","Windows 10","Edge 119.0.0.0","1536x864","1528x750",NA,NA,0,"BIQ (Charlotte)",2,"In","GHFIEJDKCLBA",NA,"In",6,"Spreadsheet1",1,"BIQ","Screen 1","9dh6eq",1,"response","7",10881.53,30697.096,30710.1999999993,10881.53,30697.096,30710.1999999993,1,10881.53,19828.6699999993,0,NA,"Rating Scale","Rating Scale",3,"object-5","BIQ",NA,"MDPRF13926"
"4",1700756533618,"23/11/2023 16:22:13",1700756533618,0,"23/11/2023 16:22:13",152734,7,"questionnaire-uu2n",NA,33166774,9820558,NA,"rejected - time limit reached",NA,"655f7baa175f84ab15d9de27","computer","Desktop or Laptop","Windows 10","Edge 119.0.0.0","1536x864","1528x750",NA,NA,0,"BIQ (Charlotte)",2,"In","GHFIEJDKCLBA",NA,"In",6,"Spreadsheet1",1,"BIQ","Screen 1","9dh6eq",1,"response","3",17131.165,30697.096,30710.5,17131.165,30697.096,30710.5,1,17131.165,13579.335,0,NA,"Rating Scale","Rating Scale",10,"object-18","BIQ",NA,"MDPRF13926"
"5",1700756533618,"23/11/2023 16:22:13",1700756533618,0,"23/11/2023 16:22:13",152734,7,"questionnaire-uu2n",NA,33166774,9820558,NA,"rejected - time limit reached",NA,"655f7baa175f84ab15d9de27","computer","Desktop or Laptop","Windows 10","Edge 119.0.0.0","1536x864","1528x750",NA,NA,0,"BIQ (Charlotte)",2,"In","GHFIEJDKCLBA",NA,"In",6,"Spreadsheet1",1,"BIQ","Screen 1","9dh6eq",1,"response","5",29113.918,30697.096,30710.6999999993,29113.918,30697.096,30710.6999999993,1,29113.918,1596.78199999925,0,NA,"Rating Scale","Rating Scale",17,"object-80","BIQ",NA,"MDPRF13926"
"6",1700756552865,"23/11/2023 16:22:32",1700756552865,0,"23/11/2023 16:22:32",152734,7,"questionnaire-uu2n",NA,33166774,9820558,NA,"rejected - time limit reached",NA,"655f7baa175f84ab15d9de27","computer","Desktop or Laptop","Windows 10","Edge 119.0.0.0","1536x864","1528x750",NA,NA,0,"BIQ (Charlotte)",2,"In","GHFIEJDKCLBA",NA,"In",6,"Spreadsheet1",1,"BIQ","Screen 2","o21mwi",2,"continue","",19260.5040000015,19249.455,19260.5040000015,19260.5040000015,19249.455,19260.5040000015,1,19260.5040000015,0,0,NA,"Click To Continue","Continue Button",22,"object-50","BIQ",NA,"MDPRF13926"
"7",1700756552867,"23/11/2023 16:22:32",1700756552867,0,"23/11/2023 16:22:32",152734,7,"questionnaire-uu2n",NA,33166774,9820558,NA,"rejected - time limit reached",NA,"655f7baa175f84ab15d9de27","computer","Desktop or Laptop","Windows 10","Edge 119.0.0.0","1536x864","1528x750",NA,NA,0,"BIQ (Charlotte)",2,"In","GHFIEJDKCLBA",NA,"In",6,"Spreadsheet1",1,"BIQ","Screen 2","o21mwi",2,"response","7",7816.494,19249.455,19263.0040000015,7816.494,19249.455,19263.0040000015,1,7816.494,11446.5100000015,0,NA,"Rating Scale","Rating Scale",2,"object-259","BIQ",NA,"MDPRF13926"
"8",1700756552868,"23/11/2023 16:22:32",1700756552868,0,"23/11/2023 16:22:32",152734,7,"questionnaire-uu2n",NA,33166774,9820558,NA,"rejected - time limit reached",NA,"655f7baa175f84ab15d9de27","computer","Desktop or Laptop","Windows 10","Edge 119.0.0.0","1536x864","1528x750",NA,NA,0,"BIQ (Charlotte)",2,"In","GHFIEJDKCLBA",NA,"In",6,"Spreadsheet1",1,"BIQ","Screen 2","o21mwi",2,"response","2",12066.355,19249.455,19263.3039999985,12066.355,19249.455,19263.3039999985,1,12066.355,7196.94899999851,0,NA,"Rating Scale","Rating Scale",9,"object-36","BIQ",NA,"MDPRF13926"
"9",1700756552868,"23/11/2023 16:22:32",1700756552868,0,"23/11/2023 16:22:32",152734,7,"questionnaire-uu2n",NA,33166774,9820558,NA,"rejected - time limit reached",NA,"655f7baa175f84ab15d9de27","computer","Desktop or Laptop","Windows 10","Edge 119.0.0.0","1536x864","1528x750",NA,NA,0,"BIQ (Charlotte)",2,"In","GHFIEJDKCLBA",NA,"In",6,"Spreadsheet1",1,"BIQ","Screen 2","o21mwi",2,"response","1",18549.253,19249.455,19263.6039999993,18549.253,19249.455,19263.6039999993,1,18549.253,714.350999999253,0,NA,"Rating Scale","Rating Scale",16,"object-86","BIQ",NA,"MDPRF13926"
"10",1700756563942,"23/11/2023 16:22:43",1700756563942,0,"23/11/2023 16:22:43",152734,7,"questionnaire-uu2n",NA,33166774,9820558,NA,"rejected - time limit reached",NA,"655f7baa175f84ab15d9de27","computer","Desktop or Laptop","Windows 10","Edge 119.0.0.0","1536x864","1528x750",NA,NA,0,"BIQ (Charlotte)",2,"In","GHFIEJDKCLBA",NA,"In",6,"Spreadsheet1",1,"BIQ","Screen 3","iz3the",3,"continue","",11088.3489999985,11082.882,11088.3489999985,11088.3489999985,11082.882,11088.3489999985,1,11088.3489999985,0,0,NA,"Click To Continue","Continue Button",22,"object-73","BIQ",NA,"MDPRF13926"
"11",1700756563945,"23/11/2023 16:22:43",1700756563945,0,"23/11/2023 16:22:43",152734,7,"questionnaire-uu2n",NA,33166774,9820558,NA,"rejected - time limit reached",NA,"655f7baa175f84ab15d9de27","computer","Desktop or Laptop","Windows 10","Edge 119.0.0.0","1536x864","1528x750",NA,NA,0,"BIQ (Charlotte)",2,"In","GHFIEJDKCLBA",NA,"In",6,"Spreadsheet1",1,"BIQ","Screen 3","iz3the",3,"response","1",4049.638,11082.882,11091.7490000007,4049.638,11082.882,11091.7490000007,1,4049.638,7042.11100000075,0,NA,"Rating Scale","Rating Scale",2,"object-53","BIQ",NA,"MDPRF13926"
"12",1700756563946,"23/11/2023 16:22:43",1700756563946,0,"23/11/2023 16:22:43",152734,7,"questionnaire-uu2n",NA,33166774,9820558,NA,"rejected - time limit reached",NA,"655f7baa175f84ab15d9de27","computer","Desktop or Laptop","Windows 10","Edge 119.0.0.0","1536x864","1528x750",NA,NA,0,"BIQ (Charlotte)",2,"In","GHFIEJDKCLBA",NA,"In",6,"Spreadsheet1",1,"BIQ","Screen 3","iz3the",3,"response","2",7499.707,11082.882,11092.0490000015,7499.707,11082.882,11092.0490000015,1,7499.707,3592.34200000149,0,NA,"Rating Scale","Rating Scale",9,"object-60","BIQ",NA,"MDPRF13926"
"13",1700756563946,"23/11/2023 16:22:43",1700756563946,0,"23/11/2023 16:22:43",152734,7,"questionnaire-uu2n",NA,33166774,9820558,NA,"rejected - time limit reached",NA,"655f7baa175f84ab15d9de27","computer","Desktop or Laptop","Windows 10","Edge 119.0.0.0","1536x864","1528x750",NA,NA,0,"BIQ (Charlotte)",2,"In","GHFIEJDKCLBA",NA,"In",6,"Spreadsheet1",1,"BIQ","Screen 3","iz3the",3,"response","1",10199.519,11082.882,11092.7490000007,10199.519,11082.882,11092.7490000007,1,10199.519,893.230000000745,0,NA,"Rating Scale","Rating Scale",16,"object-67","BIQ",NA,"MDPRF13926"
"14",1700756563949,"23/11/2023 16:22:43",1700756563949,0,"23/11/2023 16:22:43",152734,7,"questionnaire-uu2n",NA,33166774,9820558,NA,"rejected - time limit reached",NA,"655f7baa175f84ab15d9de27","computer","Desktop or Laptop","Windows 10","Edge 119.0.0.0","1536x864","1528x750",NA,NA,0,"BIQ (Charlotte)",2,"In","GHFIEJDKCLBA",NA,"In",6,"Spreadsheet1",NA,"","","",NA,"5","END",NA,NA,NA,NA,NA,NA,0,NA,NA,NA,NA,"","",NA,"","",NA,"MDPRF13926"
"1",1700756586301,"23/11/2023 16:23:06",1700756586301,0,"23/11/2023 16:23:06",152734,7,"questionnaire-uu2n",NA,33166814,9820513,NA,"rejected - time limit reached",NA,"655f7a7011ced56ce4d7f520","computer","Desktop or Laptop","Windows 10","Firefox 119.0","1920x1080","1920x955",NA,NA,0,"BIQ (Charlotte)",2,"In","HIGJFKELDACB",NA,"In",4,"Spreadsheet1",NA,"","","",NA,"5","BEGIN",NA,NA,NA,NA,NA,NA,0,NA,NA,NA,NA,"","",NA,"","",NA,"MDPRF93300"
"2",1700756609029,"23/11/2023 16:23:29",1700756609029,0,"23/11/2023 16:23:29",152734,7,"questionnaire-uu2n",NA,33166814,9820513,NA,"rejected - time limit reached",NA,"655f7a7011ced56ce4d7f520","computer","Desktop or Laptop","Windows 10","Firefox 119.0","1920x1080","1920x955",NA,NA,0,"BIQ (Charlotte)",2,"In","HIGJFKELDACB",NA,"In",4,"Spreadsheet1",1,"BIQ","Screen 1","9dh6eq",1,"continue","",22732.5,22726.44,22732.5,22732.5,22726.44,22732.5,1,22732.5,0,0,NA,"Click To Continue","Continue Button",23,"object-48","BIQ",NA,"MDPRF93300"
"3",1700756609033,"23/11/2023 16:23:29",1700756609033,0,"23/11/2023 16:23:29",152734,7,"questionnaire-uu2n",NA,33166814,9820513,NA,"rejected - time limit reached",NA,"655f7a7011ced56ce4d7f520","computer","Desktop or Laptop","Windows 10","Firefox 119.0","1920x1080","1920x955",NA,NA,0,"BIQ (Charlotte)",2,"In","HIGJFKELDACB",NA,"In",4,"Spreadsheet1",1,"BIQ","Screen 1","9dh6eq",1,"response","6",2590.88,22726.44,22734.78,2590.88,22726.44,22734.78,1,2590.88,20143.9,0,NA,"Rating Scale","Rating Scale",3,"object-5","BIQ",NA,"MDPRF93300"
"4",1700756609034,"23/11/2023 16:23:29",1700756609034,0,"23/11/2023 16:23:29",152734,7,"questionnaire-uu2n",NA,33166814,9820513,NA,"rejected - time limit reached",NA,"655f7a7011ced56ce4d7f520","computer","Desktop or Laptop","Windows 10","Firefox 119.0","1920x1080","1920x955",NA,NA,0,"BIQ (Charlotte)",2,"In","HIGJFKELDACB",NA,"In",4,"Spreadsheet1",1,"BIQ","Screen 1","9dh6eq",1,"response","2",3682.26,22726.44,22734.78,3682.26,22726.44,22734.78,1,3682.26,19052.52,0,NA,"Rating Scale","Rating Scale",10,"object-18","BIQ",NA,"MDPRF93300"
"5",1700756609034,"23/11/2023 16:23:29",1700756609034,0,"23/11/2023 16:23:29",152734,7,"questionnaire-uu2n",NA,33166814,9820513,NA,"rejected - time limit reached",NA,"655f7a7011ced56ce4d7f520","computer","Desktop or Laptop","Windows 10","Firefox 119.0","1920x1080","1920x955",NA,NA,0,"BIQ (Charlotte)",2,"In","HIGJFKELDACB",NA,"In",4,"Spreadsheet1",1,"BIQ","Screen 1","9dh6eq",1,"response","4",4723.56,22726.44,22734.78,4723.56,22726.44,22734.78,1,4723.56,18011.22,0,NA,"Rating Scale","Rating Scale",17,"object-80","BIQ",NA,"MDPRF93300"
"6",1700756627021,"23/11/2023 16:23:47",1700756627021,0,"23/11/2023 16:23:47",152734,7,"questionnaire-uu2n",NA,33166814,9820513,NA,"rejected - time limit reached",NA,"655f7a7011ced56ce4d7f520","computer","Desktop or Laptop","Windows 10","Firefox 119.0","1920x1080","1920x955",NA,NA,0,"BIQ (Charlotte)",2,"In","HIGJFKELDACB",NA,"In",4,"Spreadsheet1",1,"BIQ","Screen 2","o21mwi",2,"continue","",17999.06,17994.52,17999.06,17999.06,17994.52,17999.06,1,17999.06,0,0,NA,"Click To Continue","Continue Button",22,"object-50","BIQ",NA,"MDPRF93300"
"7",1700756627024,"23/11/2023 16:23:47",1700756627024,0,"23/11/2023 16:23:47",152734,7,"questionnaire-uu2n",NA,33166814,9820513,NA,"rejected - time limit reached",NA,"655f7a7011ced56ce4d7f520","computer","Desktop or Laptop","Windows 10","Firefox 119.0","1920x1080","1920x955",NA,NA,0,"BIQ (Charlotte)",2,"In","HIGJFKELDACB",NA,"In",4,"Spreadsheet1",1,"BIQ","Screen 2","o21mwi",2,"response","3",1949.4,17994.52,18002.06,1949.4,17994.52,18002.06,1,1949.4,16052.66,0,NA,"Rating Scale","Rating Scale",2,"object-259","BIQ",NA,"MDPRF93300"
"8",1700756627025,"23/11/2023 16:23:47",1700756627025,0,"23/11/2023 16:23:47",152734,7,"questionnaire-uu2n",NA,33166814,9820513,NA,"rejected - time limit reached",NA,"655f7a7011ced56ce4d7f520","computer","Desktop or Laptop","Windows 10","Firefox 119.0","1920x1080","1920x955",NA,NA,0,"BIQ (Charlotte)",2,"In","HIGJFKELDACB",NA,"In",4,"Spreadsheet1",1,"BIQ","Screen 2","o21mwi",2,"response","6",2574.2,17994.52,18002.06,2574.2,17994.52,18002.06,1,2574.2,15427.86,0,NA,"Rating Scale","Rating Scale",9,"object-36","BIQ",NA,"MDPRF93300"
"9",1700756627025,"23/11/2023 16:23:47",1700756627025,0,"23/11/2023 16:23:47",152734,7,"questionnaire-uu2n",NA,33166814,9820513,NA,"rejected - time limit reached",NA,"655f7a7011ced56ce4d7f520","computer","Desktop or Laptop","Windows 10","Firefox 119.0","1920x1080","1920x955",NA,NA,0,"BIQ (Charlotte)",2,"In","HIGJFKELDACB",NA,"In",4,"Spreadsheet1",1,"BIQ","Screen 2","o21mwi",2,"response","4",3107.38,17994.52,18002.86,3107.38,17994.52,18002.86,1,3107.38,14895.48,0,NA,"Rating Scale","Rating Scale",16,"object-86","BIQ",NA,"MDPRF93300"
"10",1700756636277,"23/11/2023 16:23:56",1700756636277,0,"23/11/2023 16:23:56",152734,7,"questionnaire-uu2n",NA,33166814,9820513,NA,"rejected - time limit reached",NA,"655f7a7011ced56ce4d7f520","computer","Desktop or Laptop","Windows 10","Firefox 119.0","1920x1080","1920x955",NA,NA,0,"BIQ (Charlotte)",2,"In","HIGJFKELDACB",NA,"In",4,"Spreadsheet1",1,"BIQ","Screen 3","iz3the",3,"continue","",9260.54,9255.52,9260.54,9260.54,9255.52,9260.54,1,9260.54,0,0,NA,"Click To Continue","Continue Button",22,"object-73","BIQ",NA,"MDPRF93300"
"11",1700756636277,"23/11/2023 16:23:56",1700756636277,0,"23/11/2023 16:23:56",152734,7,"questionnaire-uu2n",NA,33166814,9820513,NA,"rejected - time limit reached",NA,"655f7a7011ced56ce4d7f520","computer","Desktop or Laptop","Windows 10","Firefox 119.0","1920x1080","1920x955",NA,NA,0,"BIQ (Charlotte)",2,"In","HIGJFKELDACB",NA,"In",4,"Spreadsheet1",1,"BIQ","Screen 3","iz3the",3,"response","3",3823.84,9255.52,9261.54,3823.84,9255.52,9261.54,1,3823.84,5437.7,0,NA,"Rating Scale","Rating Scale",2,"object-53","BIQ",NA,"MDPRF93300"
"12",1700756636278,"23/11/2023 16:23:56",1700756636278,0,"23/11/2023 16:23:56",152734,7,"questionnaire-uu2n",NA,33166814,9820513,NA,"rejected - time limit reached",NA,"655f7a7011ced56ce4d7f520","computer","Desktop or Laptop","Windows 10","Firefox 119.0","1920x1080","1920x955",NA,NA,0,"BIQ (Charlotte)",2,"In","HIGJFKELDACB",NA,"In",4,"Spreadsheet1",1,"BIQ","Screen 3","iz3the",3,"response","3",5373.38,9255.52,9262.54,5373.38,9255.52,9262.54,1,5373.38,3889.16,0,NA,"Rating Scale","Rating Scale",9,"object-60","BIQ",NA,"MDPRF93300"
"13",1700756636279,"23/11/2023 16:23:56",1700756636279,0,"23/11/2023 16:23:56",152734,7,"questionnaire-uu2n",NA,33166814,9820513,NA,"rejected - time limit reached",NA,"655f7a7011ced56ce4d7f520","computer","Desktop or Laptop","Windows 10","Firefox 119.0","1920x1080","1920x955",NA,NA,0,"BIQ (Charlotte)",2,"In","HIGJFKELDACB",NA,"In",4,"Spreadsheet1",1,"BIQ","Screen 3","iz3the",3,"response","2",6023.18,9255.52,9262.54,6023.18,9255.52,9262.54,1,6023.18,3239.36,0,NA,"Rating Scale","Rating Scale",16,"object-67","BIQ",NA,"MDPRF93300"
"14",1700756636279,"23/11/2023 16:23:56",1700756636279,0,"23/11/2023 16:23:56",152734,7,"questionnaire-uu2n",NA,33166814,9820513,NA,"rejected - time limit reached",NA,"655f7a7011ced56ce4d7f520","computer","Desktop or Laptop","Windows 10","Firefox 119.0","1920x1080","1920x955",NA,NA,0,"BIQ (Charlotte)",2,"In","HIGJFKELDACB",NA,"In",4,"Spreadsheet1",NA,"","","",NA,"5","END",NA,NA,NA,NA,NA,NA,0,NA,NA,NA,NA,"","",NA,"","",NA,"MDPRF93300"
"1",1700756784207,"23/11/2023 16:26:24",1700735184207,-6,"23/11/2023 04:26:24",152734,7,"questionnaire-uu2n",NA,33166960,9820562,NA,"rejected - time limit reached",NA,"655f7bc4df8a36494422cf56","computer","Desktop or Laptop","Mac OS 10.15.7","Chrome 119.0.0.0","1440x900","1440x713",NA,NA,0,"BIQ (Charlotte)",2,"In","IJHKGLFAEBDC",NA,"In",6,"Spreadsheet1",NA,"","","",NA,"5","BEGIN",NA,NA,NA,NA,NA,NA,0,NA,NA,NA,NA,"","",NA,"","",NA,"MDPRF64809"
"2",1700756822966,"23/11/2023 16:27:02",1700735222966,-6,"23/11/2023 04:27:02",152734,7,"questionnaire-uu2n",NA,33166960,9820562,NA,"rejected - time limit reached",NA,"655f7bc4df8a36494422cf56","computer","Desktop or Laptop","Mac OS 10.15.7","Chrome 119.0.0.0","1440x900","1440x713",NA,NA,0,"BIQ (Charlotte)",2,"In","IJHKGLFAEBDC",NA,"In",6,"Spreadsheet1",1,"BIQ","Screen 1","9dh6eq",1,"continue","",38767.037,38750.371,38767.037,38767.037,38750.371,38767.037,1,38767.037,0,0,NA,"Click To Continue","Continue Button",23,"object-48","BIQ",NA,"MDPRF64809"
"3",1700756822969,"23/11/2023 16:27:02",1700735222969,-6,"23/11/2023 04:27:02",152734,7,"questionnaire-uu2n",NA,33166960,9820562,NA,"rejected - time limit reached",NA,"655f7bc4df8a36494422cf56","computer","Desktop or Laptop","Mac OS 10.15.7","Chrome 119.0.0.0","1440x900","1440x713",NA,NA,0,"BIQ (Charlotte)",2,"In","IJHKGLFAEBDC",NA,"In",6,"Spreadsheet1",1,"BIQ","Screen 1","9dh6eq",1,"response","6",16533.596,38750.371,38767.037,16533.596,38750.371,38767.037,1,16533.596,22233.441,0,NA,"Rating Scale","Rating Scale",3,"object-5","BIQ",NA,"MDPRF64809"
"4",1700756822969,"23/11/2023 16:27:02",1700735222969,-6,"23/11/2023 04:27:02",152734,7,"questionnaire-uu2n",NA,33166960,9820562,NA,"rejected - time limit reached",NA,"655f7bc4df8a36494422cf56","computer","Desktop or Laptop","Mac OS 10.15.7","Chrome 119.0.0.0","1440x900","1440x713",NA,NA,0,"BIQ (Charlotte)",2,"In","IJHKGLFAEBDC",NA,"In",6,"Spreadsheet1",1,"BIQ","Screen 1","9dh6eq",1,"response","6",31667.321,38750.371,38767.037,31667.321,38750.371,38767.037,1,31667.321,7099.716,0,NA,"Rating Scale","Rating Scale",10,"object-18","BIQ",NA,"MDPRF64809"
"5",1700756822969,"23/11/2023 16:27:02",1700735222969,-6,"23/11/2023 04:27:02",152734,7,"questionnaire-uu2n",NA,33166960,9820562,NA,"rejected - time limit reached",NA,"655f7bc4df8a36494422cf56","computer","Desktop or Laptop","Mac OS 10.15.7","Chrome 119.0.0.0","1440x900","1440x713",NA,NA,0,"BIQ (Charlotte)",2,"In","IJHKGLFAEBDC",NA,"In",6,"Spreadsheet1",1,"BIQ","Screen 1","9dh6eq",1,"response","1",38050.399,38750.371,38767.037,38050.399,38750.371,38767.037,1,38050.399,716.637999999999,0,NA,"Rating Scale","Rating Scale",17,"object-80","BIQ",NA,"MDPRF64809"
"6",1700756857710,"23/11/2023 16:27:37",1700735257710,-6,"23/11/2023 04:27:37",152734,7,"questionnaire-uu2n",NA,33166960,9820562,NA,"rejected - time limit reached",NA,"655f7bc4df8a36494422cf56","computer","Desktop or Laptop","Mac OS 10.15.7","Chrome 119.0.0.0","1440x900","1440x713",NA,NA,0,"BIQ (Charlotte)",2,"In","IJHKGLFAEBDC",NA,"In",6,"Spreadsheet1",1,"BIQ","Screen 2","o21mwi",2,"continue","",34767.029,34750.363,34767.029,34767.029,34750.363,34767.029,1,34767.029,0,0,NA,"Click To Continue","Continue Button",22,"object-50","BIQ",NA,"MDPRF64809"
"7",1700756857714,"23/11/2023 16:27:37",1700735257714,-6,"23/11/2023 04:27:37",152734,7,"questionnaire-uu2n",NA,33166960,9820562,NA,"rejected - time limit reached",NA,"655f7bc4df8a36494422cf56","computer","Desktop or Laptop","Mac OS 10.15.7","Chrome 119.0.0.0","1440x900","1440x713",NA,NA,0,"BIQ (Charlotte)",2,"In","IJHKGLFAEBDC",NA,"In",6,"Spreadsheet1",1,"BIQ","Screen 2","o21mwi",2,"response","7",14333.598,34750.363,34767.029,14333.598,34750.363,34767.029,1,14333.598,20433.431,0,NA,"Rating Scale","Rating Scale",2,"object-259","BIQ",NA,"MDPRF64809"
"8",1700756857714,"23/11/2023 16:27:37",1700735257714,-6,"23/11/2023 04:27:37",152734,7,"questionnaire-uu2n",NA,33166960,9820562,NA,"rejected - time limit reached",NA,"655f7bc4df8a36494422cf56","computer","Desktop or Laptop","Mac OS 10.15.7","Chrome 119.0.0.0","1440x900","1440x713",NA,NA,0,"BIQ (Charlotte)",2,"In","IJHKGLFAEBDC",NA,"In",6,"Spreadsheet1",1,"BIQ","Screen 2","o21mwi",2,"response","2",23100.444,34750.363,34767.029,23100.444,34750.363,34767.029,1,23100.444,11666.585,0,NA,"Rating Scale","Rating Scale",9,"object-36","BIQ",NA,"MDPRF64809"
"9",1700756857715,"23/11/2023 16:27:37",1700735257715,-6,"23/11/2023 04:27:37",152734,7,"questionnaire-uu2n",NA,33166960,9820562,NA,"rejected - time limit reached",NA,"655f7bc4df8a36494422cf56","computer","Desktop or Laptop","Mac OS 10.15.7","Chrome 119.0.0.0","1440x900","1440x713",NA,NA,0,"BIQ (Charlotte)",2,"In","IJHKGLFAEBDC",NA,"In",6,"Spreadsheet1",1,"BIQ","Screen 2","o21mwi",2,"response","1",29583.518,34750.363,34767.029,29583.518,34750.363,34767.029,1,29583.518,5183.511,0,NA,"Rating Scale","Rating Scale",16,"object-86","BIQ",NA,"MDPRF64809"
"10",1700756876502,"23/11/2023 16:27:56",1700735276502,-6,"23/11/2023 04:27:56",152734,7,"questionnaire-uu2n",NA,33166960,9820562,NA,"rejected - time limit reached",NA,"655f7bc4df8a36494422cf56","computer","Desktop or Laptop","Mac OS 10.15.7","Chrome 119.0.0.0","1440x900","1440x713",NA,NA,0,"BIQ (Charlotte)",2,"In","IJHKGLFAEBDC",NA,"In",6,"Spreadsheet1",1,"BIQ","Screen 3","iz3the",3,"continue","",18810.1119999046,18800.089,18810.1119999046,18810.1119999046,18800.089,18810.1119999046,1,18810.1119999046,0,0,NA,"Click To Continue","Continue Button",22,"object-73","BIQ",NA,"MDPRF64809"
"11",1700756876506,"23/11/2023 16:27:56",1700735276506,-6,"23/11/2023 04:27:56",152734,7,"questionnaire-uu2n",NA,33166960,9820562,NA,"rejected - time limit reached",NA,"655f7bc4df8a36494422cf56","computer","Desktop or Laptop","Mac OS 10.15.7","Chrome 119.0.0.0","1440x900","1440x713",NA,NA,0,"BIQ (Charlotte)",2,"In","IJHKGLFAEBDC",NA,"In",6,"Spreadsheet1",1,"BIQ","Screen 3","iz3the",3,"response","0",6466.408,18800.089,18814.3119999523,6466.408,18800.089,18814.3119999523,1,6466.408,12347.9039999523,0,NA,"Rating Scale","Rating Scale",2,"object-53","BIQ",NA,"MDPRF64809"
"12",1700756876506,"23/11/2023 16:27:56",1700735276506,-6,"23/11/2023 04:27:56",152734,7,"questionnaire-uu2n",NA,33166960,9820562,NA,"rejected - time limit reached",NA,"655f7bc4df8a36494422cf56","computer","Desktop or Laptop","Mac OS 10.15.7","Chrome 119.0.0.0","1440x900","1440x713",NA,NA,0,"BIQ (Charlotte)",2,"In","IJHKGLFAEBDC",NA,"In",6,"Spreadsheet1",1,"BIQ","Screen 3","iz3the",3,"response","1",13349.971,18800.089,18814.8119999523,13349.971,18800.089,18814.8119999523,1,13349.971,5464.84099995231,0,NA,"Rating Scale","Rating Scale",9,"object-60","BIQ",NA,"MDPRF64809"
"13",1700756876506,"23/11/2023 16:27:56",1700735276506,-6,"23/11/2023 04:27:56",152734,7,"questionnaire-uu2n",NA,33166960,9820562,NA,"rejected - time limit reached",NA,"655f7bc4df8a36494422cf56","computer","Desktop or Laptop","Mac OS 10.15.7","Chrome 119.0.0.0","1440x900","1440x713",NA,NA,0,"BIQ (Charlotte)",2,"In","IJHKGLFAEBDC",NA,"In",6,"Spreadsheet1",1,"BIQ","Screen 3","iz3the",3,"response","2",17716.799,18800.089,18815.1119999046,17716.799,18800.089,18815.1119999046,1,17716.799,1098.31299990464,0,NA,"Rating Scale","Rating Scale",16,"object-67","BIQ",NA,"MDPRF64809"
"14",1700756876512,"23/11/2023 16:27:56",1700735276512,-6,"23/11/2023 04:27:56",152734,7,"questionnaire-uu2n",NA,33166960,9820562,NA,"rejected - time limit reached",NA,"655f7bc4df8a36494422cf56","computer","Desktop or Laptop","Mac OS 10.15.7","Chrome 119.0.0.0","1440x900","1440x713",NA,NA,0,"BIQ (Charlotte)",2,"In","IJHKGLFAEBDC",NA,"In",6,"Spreadsheet1",NA,"","","",NA,"5","END",NA,NA,NA,NA,NA,NA,0,NA,NA,NA,NA,"","",NA,"","",NA,"MDPRF64809"
"1",1700757092474,"23/11/2023 16:31:32",1700757092474,0,"23/11/2023 16:31:32",152734,7,"questionnaire-uu2n",NA,33167134,9820664,NA,"rejected - time limit reached",NA,"655f7d4c53bc8bdaae61f03d","computer","Desktop or Laptop","Chromium OS 14541.0.0","Chrome 118.0.0.0","1920x1080","1280x637",NA,NA,0,"BIQ (Charlotte)",2,"In","FGEHDICJBKAL",NA,"In",5,"Spreadsheet1",NA,"","","",NA,"5","BEGIN",NA,NA,NA,NA,NA,NA,0,NA,NA,NA,NA,"","",NA,"","",NA,"MDPRF51524"
"2",1700757115456,"23/11/2023 16:31:55",1700757115456,0,"23/11/2023 16:31:55",152734,7,"questionnaire-uu2n",NA,33167134,9820664,NA,"rejected - time limit reached",NA,"655f7d4c53bc8bdaae61f03d","computer","Desktop or Laptop","Chromium OS 14541.0.0","Chrome 118.0.0.0","1920x1080","1280x637",NA,NA,0,"BIQ (Charlotte)",2,"In","FGEHDICJBKAL",NA,"In",5,"Spreadsheet1",1,"BIQ","Screen 1","9dh6eq",1,"continue","",23013.101,22996.624,23013.101,23013.101,22996.624,23013.101,1,23013.101,0,0,NA,"Click To Continue","Continue Button",23,"object-48","BIQ",NA,"MDPRF51524"
"3",1700757115460,"23/11/2023 16:31:55",1700757115460,0,"23/11/2023 16:31:55",152734,7,"questionnaire-uu2n",NA,33167134,9820664,NA,"rejected - time limit reached",NA,"655f7d4c53bc8bdaae61f03d","computer","Desktop or Laptop","Chromium OS 14541.0.0","Chrome 118.0.0.0","1920x1080","1280x637",NA,NA,0,"BIQ (Charlotte)",2,"In","FGEHDICJBKAL",NA,"In",5,"Spreadsheet1",1,"BIQ","Screen 1","9dh6eq",1,"response","4",12189.374,22996.624,23013.276,12189.374,22996.624,23013.276,1,12189.374,10823.902,0,NA,"Rating Scale","Rating Scale",3,"object-5","BIQ",NA,"MDPRF51524"
"4",1700757115470,"23/11/2023 16:31:55",1700757115470,0,"23/11/2023 16:31:55",152734,7,"questionnaire-uu2n",NA,33167134,9820664,NA,"rejected - time limit reached",NA,"655f7d4c53bc8bdaae61f03d","computer","Desktop or Laptop","Chromium OS 14541.0.0","Chrome 118.0.0.0","1920x1080","1280x637",NA,NA,0,"BIQ (Charlotte)",2,"In","FGEHDICJBKAL",NA,"In",5,"Spreadsheet1",1,"BIQ","Screen 1","9dh6eq",1,"response","1",17501.414,22996.624,23013.276,17501.414,22996.624,23013.276,1,17501.414,5511.862,0,NA,"Rating Scale","Rating Scale",10,"object-18","BIQ",NA,"MDPRF51524"
"5",1700757115471,"23/11/2023 16:31:55",1700757115471,0,"23/11/2023 16:31:55",152734,7,"questionnaire-uu2n",NA,33167134,9820664,NA,"rejected - time limit reached",NA,"655f7d4c53bc8bdaae61f03d","computer","Desktop or Laptop","Chromium OS 14541.0.0","Chrome 118.0.0.0","1920x1080","1280x637",NA,NA,0,"BIQ (Charlotte)",2,"In","FGEHDICJBKAL",NA,"In",5,"Spreadsheet1",1,"BIQ","Screen 1","9dh6eq",1,"response","6",22280.577,22996.624,23013.276,22280.577,22996.624,23013.276,1,22280.577,732.699,0,NA,"Rating Scale","Rating Scale",17,"object-80","BIQ",NA,"MDPRF51524"
"6",1700757133587,"23/11/2023 16:32:13",1700757133587,0,"23/11/2023 16:32:13",152734,7,"questionnaire-uu2n",NA,33167134,9820664,NA,"rejected - time limit reached",NA,"655f7d4c53bc8bdaae61f03d","computer","Desktop or Laptop","Chromium OS 14541.0.0","Chrome 118.0.0.0","1920x1080","1280x637",NA,NA,0,"BIQ (Charlotte)",2,"In","FGEHDICJBKAL",NA,"In",5,"Spreadsheet1",1,"BIQ","Screen 2","o21mwi",2,"continue","",18147.977,18134.198,18147.977,18147.977,18134.198,18147.977,1,18147.977,0,0,NA,"Click To Continue","Continue Button",22,"object-50","BIQ",NA,"MDPRF51524"
"7",1700757133592,"23/11/2023 16:32:13",1700757133592,0,"23/11/2023 16:32:13",152734,7,"questionnaire-uu2n",NA,33167134,9820664,NA,"rejected - time limit reached",NA,"655f7d4c53bc8bdaae61f03d","computer","Desktop or Laptop","Chromium OS 14541.0.0","Chrome 118.0.0.0","1920x1080","1280x637",NA,NA,0,"BIQ (Charlotte)",2,"In","FGEHDICJBKAL",NA,"In",5,"Spreadsheet1",1,"BIQ","Screen 2","o21mwi",2,"response","4",7060.518,18134.198,18150.85,7060.518,18134.198,18150.85,1,7060.518,11090.332,0,NA,"Rating Scale","Rating Scale",2,"object-259","BIQ",NA,"MDPRF51524"
"8",1700757133593,"23/11/2023 16:32:13",1700757133593,0,"23/11/2023 16:32:13",152734,7,"questionnaire-uu2n",NA,33167134,9820664,NA,"rejected - time limit reached",NA,"655f7d4c53bc8bdaae61f03d","computer","Desktop or Laptop","Chromium OS 14541.0.0","Chrome 118.0.0.0","1920x1080","1280x637",NA,NA,0,"BIQ (Charlotte)",2,"In","FGEHDICJBKAL",NA,"In",5,"Spreadsheet1",1,"BIQ","Screen 2","o21mwi",2,"response","4",10624.077,18134.198,18150.85,10624.077,18134.198,18150.85,1,10624.077,7526.773,0,NA,"Rating Scale","Rating Scale",9,"object-36","BIQ",NA,"MDPRF51524"
"9",1700757133595,"23/11/2023 16:32:13",1700757133595,0,"23/11/2023 16:32:13",152734,7,"questionnaire-uu2n",NA,33167134,9820664,NA,"rejected - time limit reached",NA,"655f7d4c53bc8bdaae61f03d","computer","Desktop or Laptop","Chromium OS 14541.0.0","Chrome 118.0.0.0","1920x1080","1280x637",NA,NA,0,"BIQ (Charlotte)",2,"In","FGEHDICJBKAL",NA,"In",5,"Spreadsheet1",1,"BIQ","Screen 2","o21mwi",2,"response","8",17068.46,18134.198,18150.85,17068.46,18134.198,18150.85,1,17068.46,1082.39,0,NA,"Rating Scale","Rating Scale",16,"object-86","BIQ",NA,"MDPRF51524"
"10",1700757150364,"23/11/2023 16:32:30",1700757150364,0,"23/11/2023 16:32:30",152734,7,"questionnaire-uu2n",NA,33167134,9820664,NA,"rejected - time limit reached",NA,"655f7d4c53bc8bdaae61f03d","computer","Desktop or Laptop","Chromium OS 14541.0.0","Chrome 118.0.0.0","1920x1080","1280x637",NA,NA,0,"BIQ (Charlotte)",2,"In","FGEHDICJBKAL",NA,"In",5,"Spreadsheet1",1,"BIQ","Screen 3","iz3the",3,"continue","",16790.779,16785.382,16790.779,16790.779,16785.382,16790.779,1,16790.779,0,0,NA,"Click To Continue","Continue Button",22,"object-73","BIQ",NA,"MDPRF51524"
"11",1700757150371,"23/11/2023 16:32:30",1700757150371,0,"23/11/2023 16:32:30",152734,7,"questionnaire-uu2n",NA,33167134,9820664,NA,"rejected - time limit reached",NA,"655f7d4c53bc8bdaae61f03d","computer","Desktop or Laptop","Chromium OS 14541.0.0","Chrome 118.0.0.0","1920x1080","1280x637",NA,NA,0,"BIQ (Charlotte)",2,"In","FGEHDICJBKAL",NA,"In",5,"Spreadsheet1",1,"BIQ","Screen 3","iz3the",3,"response","2",7043.846,16785.382,16798.279,7043.846,16785.382,16798.279,1,7043.846,9754.43299999999,0,NA,"Rating Scale","Rating Scale",2,"object-53","BIQ",NA,"MDPRF51524"
"12",1700757150375,"23/11/2023 16:32:30",1700757150375,0,"23/11/2023 16:32:30",152734,7,"questionnaire-uu2n",NA,33167134,9820664,NA,"rejected - time limit reached",NA,"655f7d4c53bc8bdaae61f03d","computer","Desktop or Laptop","Chromium OS 14541.0.0","Chrome 118.0.0.0","1920x1080","1280x637",NA,NA,0,"BIQ (Charlotte)",2,"In","FGEHDICJBKAL",NA,"In",5,"Spreadsheet1",1,"BIQ","Screen 3","iz3the",3,"response","7",10224.423,16785.382,16802.034,10224.423,16785.382,16802.034,1,10224.423,6577.611,0,NA,"Rating Scale","Rating Scale",9,"object-60","BIQ",NA,"MDPRF51524"
"13",1700757150377,"23/11/2023 16:32:30",1700757150377,0,"23/11/2023 16:32:30",152734,7,"questionnaire-uu2n",NA,33167134,9820664,NA,"rejected - time limit reached",NA,"655f7d4c53bc8bdaae61f03d","computer","Desktop or Laptop","Chromium OS 14541.0.0","Chrome 118.0.0.0","1920x1080","1280x637",NA,NA,0,"BIQ (Charlotte)",2,"In","FGEHDICJBKAL",NA,"In",5,"Spreadsheet1",1,"BIQ","Screen 3","iz3the",3,"response","4",15353.283,16785.382,16802.034,15353.283,16785.382,16802.034,1,15353.283,1448.751,0,NA,"Rating Scale","Rating Scale",16,"object-67","BIQ",NA,"MDPRF51524"
"14",1700757150390,"23/11/2023 16:32:30",1700757150390,0,"23/11/2023 16:32:30",152734,7,"questionnaire-uu2n",NA,33167134,9820664,NA,"rejected - time limit reached",NA,"655f7d4c53bc8bdaae61f03d","computer","Desktop or Laptop","Chromium OS 14541.0.0","Chrome 118.0.0.0","1920x1080","1280x637",NA,NA,0,"BIQ (Charlotte)",2,"In","FGEHDICJBKAL",NA,"In",5,"Spreadsheet1",NA,"","","",NA,"5","END",NA,NA,NA,NA,NA,NA,0,NA,NA,NA,NA,"","",NA,"","",NA,"MDPRF51524"
"1",1700757095553,"23/11/2023 16:31:35",1700757095553,0,"23/11/2023 16:31:35",152734,7,"questionnaire-uu2n",NA,33167137,9820629,NA,"rejected - time limit reached",NA,"655f7d434e594145ce7d6d24","computer","Desktop or Laptop","Mac OS 10.15.7","Chrome 119.0.0.0","1280x832","1280x715",NA,NA,0,"BIQ (Charlotte)",2,"In","CDBEAFLGKHJI",NA,"In",5,"Spreadsheet1",NA,"","","",NA,"5","BEGIN",NA,NA,NA,NA,NA,NA,0,NA,NA,NA,NA,"","",NA,"","",NA,"MDPRF91873"
"2",1700757108959,"23/11/2023 16:31:48",1700757108959,0,"23/11/2023 16:31:48",152734,7,"questionnaire-uu2n",NA,33167137,9820629,NA,"rejected - time limit reached",NA,"655f7d434e594145ce7d6d24","computer","Desktop or Laptop","Mac OS 10.15.7","Chrome 119.0.0.0","1280x832","1280x715",NA,NA,0,"BIQ (Charlotte)",2,"In","CDBEAFLGKHJI",NA,"In",5,"Spreadsheet1",1,"BIQ","Screen 1","9dh6eq",1,"continue","",13416.508,13399.842,13416.508,13416.508,13399.842,13416.508,1,13416.508,0,0,NA,"Click To Continue","Continue Button",23,"object-48","BIQ",NA,"MDPRF91873"
"3",1700757108961,"23/11/2023 16:31:48",1700757108961,0,"23/11/2023 16:31:48",152734,7,"questionnaire-uu2n",NA,33167137,9820629,NA,"rejected - time limit reached",NA,"655f7d434e594145ce7d6d24","computer","Desktop or Laptop","Mac OS 10.15.7","Chrome 119.0.0.0","1280x832","1280x715",NA,NA,0,"BIQ (Charlotte)",2,"In","CDBEAFLGKHJI",NA,"In",5,"Spreadsheet1",1,"BIQ","Screen 1","9dh6eq",1,"response","0",5183.504,13399.842,13416.508,5183.504,13399.842,13416.508,1,5183.504,8233.004,0,NA,"Rating Scale","Rating Scale",3,"object-5","BIQ",NA,"MDPRF91873"
"4",1700757108961,"23/11/2023 16:31:48",1700757108961,0,"23/11/2023 16:31:48",152734,7,"questionnaire-uu2n",NA,33167137,9820629,NA,"rejected - time limit reached",NA,"655f7d434e594145ce7d6d24","computer","Desktop or Laptop","Mac OS 10.15.7","Chrome 119.0.0.0","1280x832","1280x715",NA,NA,0,"BIQ (Charlotte)",2,"In","CDBEAFLGKHJI",NA,"In",5,"Spreadsheet1",1,"BIQ","Screen 1","9dh6eq",1,"response","5",8300.046,13399.842,13416.508,8300.046,13399.842,13416.508,1,8300.046,5116.462,0,NA,"Rating Scale","Rating Scale",10,"object-18","BIQ",NA,"MDPRF91873"
"5",1700757108962,"23/11/2023 16:31:48",1700757108962,0,"23/11/2023 16:31:48",152734,7,"questionnaire-uu2n",NA,33167137,9820629,NA,"rejected - time limit reached",NA,"655f7d434e594145ce7d6d24","computer","Desktop or Laptop","Mac OS 10.15.7","Chrome 119.0.0.0","1280x832","1280x715",NA,NA,0,"BIQ (Charlotte)",2,"In","CDBEAFLGKHJI",NA,"In",5,"Spreadsheet1",1,"BIQ","Screen 1","9dh6eq",1,"response","2",12299.886,13399.842,13416.508,12299.886,13399.842,13416.508,1,12299.886,1116.622,0,NA,"Rating Scale","Rating Scale",17,"object-80","BIQ",NA,"MDPRF91873"
"6",1700757119548,"23/11/2023 16:31:59",1700757119548,0,"23/11/2023 16:31:59",152734,7,"questionnaire-uu2n",NA,33167137,9820629,NA,"rejected - time limit reached",NA,"655f7d434e594145ce7d6d24","computer","Desktop or Laptop","Mac OS 10.15.7","Chrome 119.0.0.0","1280x832","1280x715",NA,NA,0,"BIQ (Charlotte)",2,"In","CDBEAFLGKHJI",NA,"In",5,"Spreadsheet1",1,"BIQ","Screen 2","o21mwi",2,"continue","",10617,10600.334,10617,10617,10600.334,10617,1,10617,0,0,NA,"Click To Continue","Continue Button",22,"object-50","BIQ",NA,"MDPRF91873"
"7",1700757119550,"23/11/2023 16:31:59",1700757119550,0,"23/11/2023 16:31:59",152734,7,"questionnaire-uu2n",NA,33167137,9820629,NA,"rejected - time limit reached",NA,"655f7d434e594145ce7d6d24","computer","Desktop or Laptop","Mac OS 10.15.7","Chrome 119.0.0.0","1280x832","1280x715",NA,NA,0,"BIQ (Charlotte)",2,"In","CDBEAFLGKHJI",NA,"In",5,"Spreadsheet1",1,"BIQ","Screen 2","o21mwi",2,"response","1",1950.301,10600.334,10617,1950.301,10600.334,10617,1,1950.301,8666.699,0,NA,"Rating Scale","Rating Scale",2,"object-259","BIQ",NA,"MDPRF91873"
"8",1700757119551,"23/11/2023 16:31:59",1700757119551,0,"23/11/2023 16:31:59",152734,7,"questionnaire-uu2n",NA,33167137,9820629,NA,"rejected - time limit reached",NA,"655f7d434e594145ce7d6d24","computer","Desktop or Laptop","Mac OS 10.15.7","Chrome 119.0.0.0","1280x832","1280x715",NA,NA,0,"BIQ (Charlotte)",2,"In","CDBEAFLGKHJI",NA,"In",5,"Spreadsheet1",1,"BIQ","Screen 2","o21mwi",2,"response","1",4250.209,10600.334,10617,4250.209,10600.334,10617,1,4250.209,6366.791,0,NA,"Rating Scale","Rating Scale",9,"object-36","BIQ",NA,"MDPRF91873"
"9",1700757119551,"23/11/2023 16:31:59",1700757119551,0,"23/11/2023 16:31:59",152734,7,"questionnaire-uu2n",NA,33167137,9820629,NA,"rejected - time limit reached",NA,"655f7d434e594145ce7d6d24","computer","Desktop or Laptop","Mac OS 10.15.7","Chrome 119.0.0.0","1280x832","1280x715",NA,NA,0,"BIQ (Charlotte)",2,"In","CDBEAFLGKHJI",NA,"In",5,"Spreadsheet1",1,"BIQ","Screen 2","o21mwi",2,"response","1",8900.023,10600.334,10617,8900.023,10600.334,10617,1,8900.023,1716.977,0,NA,"Rating Scale","Rating Scale",16,"object-86","BIQ",NA,"MDPRF91873"
"10",1700757130764,"23/11/2023 16:32:10",1700757130764,0,"23/11/2023 16:32:10",152734,7,"questionnaire-uu2n",NA,33167137,9820629,NA,"rejected - time limit reached",NA,"655f7d434e594145ce7d6d24","computer","Desktop or Laptop","Mac OS 10.15.7","Chrome 119.0.0.0","1280x832","1280x715",NA,NA,0,"BIQ (Charlotte)",2,"In","CDBEAFLGKHJI",NA,"In",5,"Spreadsheet1",1,"BIQ","Screen 3","iz3the",3,"continue","",11233.242,11216.576,11233.242,11233.242,11216.576,11233.242,1,11233.242,0,0,NA,"Click To Continue","Continue Button",22,"object-73","BIQ",NA,"MDPRF91873"
"11",1700757130767,"23/11/2023 16:32:10",1700757130767,0,"23/11/2023 16:32:10",152734,7,"questionnaire-uu2n",NA,33167137,9820629,NA,"rejected - time limit reached",NA,"655f7d434e594145ce7d6d24","computer","Desktop or Laptop","Mac OS 10.15.7","Chrome 119.0.0.0","1280x832","1280x715",NA,NA,0,"BIQ (Charlotte)",2,"In","CDBEAFLGKHJI",NA,"In",5,"Spreadsheet1",1,"BIQ","Screen 3","iz3the",3,"response","0",5016.466,11216.576,11233.242,5016.466,11216.576,11233.242,1,5016.466,6216.77600000001,0,NA,"Rating Scale","Rating Scale",2,"object-53","BIQ",NA,"MDPRF91873"
"12",1700757130767,"23/11/2023 16:32:10",1700757130767,0,"23/11/2023 16:32:10",152734,7,"questionnaire-uu2n",NA,33167137,9820629,NA,"rejected - time limit reached",NA,"655f7d434e594145ce7d6d24","computer","Desktop or Laptop","Mac OS 10.15.7","Chrome 119.0.0.0","1280x832","1280x715",NA,NA,0,"BIQ (Charlotte)",2,"In","CDBEAFLGKHJI",NA,"In",5,"Spreadsheet1",1,"BIQ","Screen 3","iz3the",3,"response","0",9066.304,11216.576,11233.242,9066.304,11216.576,11233.242,1,9066.304,2166.93800000001,0,NA,"Rating Scale","Rating Scale",9,"object-60","BIQ",NA,"MDPRF91873"
"13",1700757130767,"23/11/2023 16:32:10",1700757130767,0,"23/11/2023 16:32:10",152734,7,"questionnaire-uu2n",NA,33167137,9820629,NA,"rejected - time limit reached",NA,"655f7d434e594145ce7d6d24","computer","Desktop or Laptop","Mac OS 10.15.7","Chrome 119.0.0.0","1280x832","1280x715",NA,NA,0,"BIQ (Charlotte)",2,"In","CDBEAFLGKHJI",NA,"In",5,"Spreadsheet1",1,"BIQ","Screen 3","iz3the",3,"response","0",10133.286,11216.576,11233.242,10133.286,11216.576,11233.242,1,10133.286,1099.95600000001,0,NA,"Rating Scale","Rating Scale",16,"object-67","BIQ",NA,"MDPRF91873"
"14",1700757130772,"23/11/2023 16:32:10",1700757130772,0,"23/11/2023 16:32:10",152734,7,"questionnaire-uu2n",NA,33167137,9820629,NA,"rejected - time limit reached",NA,"655f7d434e594145ce7d6d24","computer","Desktop or Laptop","Mac OS 10.15.7","Chrome 119.0.0.0","1280x832","1280x715",NA,NA,0,"BIQ (Charlotte)",2,"In","CDBEAFLGKHJI",NA,"In",5,"Spreadsheet1",NA,"","","",NA,"5","END",NA,NA,NA,NA,NA,NA,0,NA,NA,NA,NA,"","",NA,"","",NA,"MDPRF91873"
"1",1700757101233,"23/11/2023 16:31:41",1700757101233,0,"23/11/2023 16:31:41",152734,7,"questionnaire-uu2n",NA,33167144,9820649,NA,"rejected - time limit reached",NA,"655f7dddb006d3ba2d365e63","computer","Desktop or Laptop","Windows 10","Chrome 119.0.0.0","1366x768","1363x609",NA,NA,0,"BIQ (Charlotte)",2,"In","EFDGCHBIAJLK",NA,"In",4,"Spreadsheet1",NA,"","","",NA,"5","BEGIN",NA,NA,NA,NA,NA,NA,0,NA,NA,NA,NA,"","",NA,"","",NA,"MDPRF38237"
"2",1700757129111,"23/11/2023 16:32:09",1700757129111,0,"23/11/2023 16:32:09",152734,7,"questionnaire-uu2n",NA,33167144,9820649,NA,"rejected - time limit reached",NA,"655f7dddb006d3ba2d365e63","computer","Desktop or Laptop","Windows 10","Chrome 119.0.0.0","1366x768","1363x609",NA,NA,0,"BIQ (Charlotte)",2,"In","EFDGCHBIAJLK",NA,"In",4,"Spreadsheet1",1,"BIQ","Screen 1","9dh6eq",1,"continue","",29105.8000000715,29094.939,29105.8000000715,29105.8000000715,29094.939,29105.8000000715,1,29105.8000000715,0,0,NA,"Click To Continue","Continue Button",23,"object-48","BIQ",NA,"MDPRF38237"
"3",1700757129116,"23/11/2023 16:32:09",1700757129116,0,"23/11/2023 16:32:09",152734,7,"questionnaire-uu2n",NA,33167144,9820649,NA,"rejected - time limit reached",NA,"655f7dddb006d3ba2d365e63","computer","Desktop or Laptop","Windows 10","Chrome 119.0.0.0","1366x768","1363x609",NA,NA,0,"BIQ (Charlotte)",2,"In","EFDGCHBIAJLK",NA,"In",4,"Spreadsheet1",1,"BIQ","Screen 1","9dh6eq",1,"response","6",10297.213,29094.939,29111.5,10297.213,29094.939,29111.5,1,10297.213,18814.287,0,NA,"Rating Scale","Rating Scale",3,"object-5","BIQ",NA,"MDPRF38237"
"4",1700757129118,"23/11/2023 16:32:09",1700757129118,0,"23/11/2023 16:32:09",152734,7,"questionnaire-uu2n",NA,33167144,9820649,NA,"rejected - time limit reached",NA,"655f7dddb006d3ba2d365e63","computer","Desktop or Laptop","Windows 10","Chrome 119.0.0.0","1366x768","1363x609",NA,NA,0,"BIQ (Charlotte)",2,"In","EFDGCHBIAJLK",NA,"In",4,"Spreadsheet1",1,"BIQ","Screen 1","9dh6eq",1,"response","5",21262.549,29094.939,29111.728,21262.549,29094.939,29111.728,1,21262.549,7849.179,0,NA,"Rating Scale","Rating Scale",10,"object-18","BIQ",NA,"MDPRF38237"
"5",1700757129119,"23/11/2023 16:32:09",1700757129119,0,"23/11/2023 16:32:09",152734,7,"questionnaire-uu2n",NA,33167144,9820649,NA,"rejected - time limit reached",NA,"655f7dddb006d3ba2d365e63","computer","Desktop or Laptop","Windows 10","Chrome 119.0.0.0","1366x768","1363x609",NA,NA,0,"BIQ (Charlotte)",2,"In","EFDGCHBIAJLK",NA,"In",4,"Spreadsheet1",1,"BIQ","Screen 1","9dh6eq",1,"response","4",26845.129,29094.939,29111.728,26845.129,29094.939,29111.728,1,26845.129,2266.59899999999,0,NA,"Rating Scale","Rating Scale",17,"object-80","BIQ",NA,"MDPRF38237"
"6",1700757168592,"23/11/2023 16:32:48",1700757168592,0,"23/11/2023 16:32:48",152734,7,"questionnaire-uu2n",NA,33167144,9820649,NA,"rejected - time limit reached",NA,"655f7dddb006d3ba2d365e63","computer","Desktop or Laptop","Windows 10","Chrome 119.0.0.0","1366x768","1363x609",NA,NA,0,"BIQ (Charlotte)",2,"In","EFDGCHBIAJLK",NA,"In",4,"Spreadsheet1",1,"BIQ","Screen 2","o21mwi",2,"continue","",39492.7610000477,39478.304,39492.7610000477,39492.7610000477,39478.304,39492.7610000477,1,39492.7610000477,0,0,NA,"Click To Continue","Continue Button",22,"object-50","BIQ",NA,"MDPRF38237"
"7",1700757168599,"23/11/2023 16:32:48",1700757168599,0,"23/11/2023 16:32:48",152734,7,"questionnaire-uu2n",NA,33167144,9820649,NA,"rejected - time limit reached",NA,"655f7dddb006d3ba2d365e63","computer","Desktop or Laptop","Windows 10","Chrome 119.0.0.0","1366x768","1363x609",NA,NA,0,"BIQ (Charlotte)",2,"In","EFDGCHBIAJLK",NA,"In",4,"Spreadsheet1",1,"BIQ","Screen 2","o21mwi",2,"response","5",8282.161,39478.304,39495.039,8282.161,39478.304,39495.039,1,8282.161,31212.878,0,NA,"Rating Scale","Rating Scale",2,"object-259","BIQ",NA,"MDPRF38237"
"8",1700757168601,"23/11/2023 16:32:48",1700757168601,0,"23/11/2023 16:32:48",152734,7,"questionnaire-uu2n",NA,33167144,9820649,NA,"rejected - time limit reached",NA,"655f7dddb006d3ba2d365e63","computer","Desktop or Laptop","Windows 10","Chrome 119.0.0.0","1366x768","1363x609",NA,NA,0,"BIQ (Charlotte)",2,"In","EFDGCHBIAJLK",NA,"In",4,"Spreadsheet1",1,"BIQ","Screen 2","o21mwi",2,"response","5",14148.078,39478.304,39495.039,14148.078,39478.304,39495.039,1,14148.078,25346.961,0,NA,"Rating Scale","Rating Scale",9,"object-36","BIQ",NA,"MDPRF38237"
"9",1700757168602,"23/11/2023 16:32:48",1700757168602,0,"23/11/2023 16:32:48",152734,7,"questionnaire-uu2n",NA,33167144,9820649,NA,"rejected - time limit reached",NA,"655f7dddb006d3ba2d365e63","computer","Desktop or Laptop","Windows 10","Chrome 119.0.0.0","1366x768","1363x609",NA,NA,0,"BIQ (Charlotte)",2,"In","EFDGCHBIAJLK",NA,"In",4,"Spreadsheet1",1,"BIQ","Screen 2","o21mwi",2,"response","4",38795.013,39478.304,39495.039,38795.013,39478.304,39495.039,1,38795.013,700.025999999998,0,NA,"Rating Scale","Rating Scale",16,"object-86","BIQ",NA,"MDPRF38237"
"10",1700757209014,"23/11/2023 16:33:29",1700757209014,0,"23/11/2023 16:33:29",152734,7,"questionnaire-uu2n",NA,33167144,9820649,NA,"rejected - time limit reached",NA,"655f7dddb006d3ba2d365e63","computer","Desktop or Laptop","Windows 10","Chrome 119.0.0.0","1366x768","1363x609",NA,NA,0,"BIQ (Charlotte)",2,"In","EFDGCHBIAJLK",NA,"In",4,"Spreadsheet1",1,"BIQ","Screen 3","iz3the",3,"continue","",40436.4570000477,40428.131,40436.4570000477,40436.4570000477,40428.131,40436.4570000477,1,40436.4570000477,0,0,NA,"Click To Continue","Continue Button",22,"object-73","BIQ",NA,"MDPRF38237"
"11",1700757209021,"23/11/2023 16:33:29",1700757209021,0,"23/11/2023 16:33:29",152734,7,"questionnaire-uu2n",NA,33167144,9820649,NA,"rejected - time limit reached",NA,"655f7dddb006d3ba2d365e63","computer","Desktop or Laptop","Windows 10","Chrome 119.0.0.0","1366x768","1363x609",NA,NA,0,"BIQ (Charlotte)",2,"In","EFDGCHBIAJLK",NA,"In",4,"Spreadsheet1",1,"BIQ","Screen 3","iz3the",3,"response","1",27946.41,40428.131,40443.3570000238,27946.41,40428.131,40443.3570000238,1,27946.41,12496.9470000238,0,NA,"Rating Scale","Rating Scale",2,"object-53","BIQ",NA,"MDPRF38237"
"12",1700757209024,"23/11/2023 16:33:29",1700757209024,0,"23/11/2023 16:33:29",152734,7,"questionnaire-uu2n",NA,33167144,9820649,NA,"rejected - time limit reached",NA,"655f7dddb006d3ba2d365e63","computer","Desktop or Laptop","Windows 10","Chrome 119.0.0.0","1366x768","1363x609",NA,NA,0,"BIQ (Charlotte)",2,"In","EFDGCHBIAJLK",NA,"In",4,"Spreadsheet1",1,"BIQ","Screen 3","iz3the",3,"response","3",33845.622,40428.131,40444.711,33845.622,40428.131,40444.711,1,33845.622,6599.08899999999,0,NA,"Rating Scale","Rating Scale",9,"object-60","BIQ",NA,"MDPRF38237"
"13",1700757209026,"23/11/2023 16:33:29",1700757209026,0,"23/11/2023 16:33:29",152734,7,"questionnaire-uu2n",NA,33167144,9820649,NA,"rejected - time limit reached",NA,"655f7dddb006d3ba2d365e63","computer","Desktop or Laptop","Windows 10","Chrome 119.0.0.0","1366x768","1363x609",NA,NA,0,"BIQ (Charlotte)",2,"In","EFDGCHBIAJLK",NA,"In",4,"Spreadsheet1",1,"BIQ","Screen 3","iz3the",3,"response","3",38961.758,40428.131,40444.711,38961.758,40428.131,40444.711,1,38961.758,1482.95299999999,0,NA,"Rating Scale","Rating Scale",16,"object-67","BIQ",NA,"MDPRF38237"
"14",1700757209040,"23/11/2023 16:33:29",1700757209040,0,"23/11/2023 16:33:29",152734,7,"questionnaire-uu2n",NA,33167144,9820649,NA,"rejected - time limit reached",NA,"655f7dddb006d3ba2d365e63","computer","Desktop or Laptop","Windows 10","Chrome 119.0.0.0","1366x768","1363x609",NA,NA,0,"BIQ (Charlotte)",2,"In","EFDGCHBIAJLK",NA,"In",4,"Spreadsheet1",NA,"","","",NA,"5","END",NA,NA,NA,NA,NA,NA,0,NA,NA,NA,NA,"","",NA,"","",NA,"MDPRF38237"
"1",1700757146149,"23/11/2023 16:32:26",1700757146149,0,"23/11/2023 16:32:26",152734,7,"questionnaire-uu2n",NA,33167177,9820575,NA,"rejected - time limit reached",NA,"655f7c166e5a84d3091d233c","computer","Desktop or Laptop","Windows 10","Chrome 119.0.0.0","1920x1080","1675x820",NA,NA,0,"BIQ (Charlotte)",2,"In","KLJAIBHCGDFE",NA,"In",2,"Spreadsheet1",NA,"","","",NA,"5","BEGIN",NA,NA,NA,NA,NA,NA,0,NA,NA,NA,NA,"","",NA,"","",NA,"MDPRF47708"
"2",1700757182506,"23/11/2023 16:33:02",1700757182506,0,"23/11/2023 16:33:02",152734,7,"questionnaire-uu2n",NA,33167177,9820575,NA,"rejected - time limit reached",NA,"655f7c166e5a84d3091d233c","computer","Desktop or Laptop","Windows 10","Chrome 119.0.0.0","1920x1080","1675x820",NA,NA,0,"BIQ (Charlotte)",2,"In","KLJAIBHCGDFE",NA,"In",2,"Spreadsheet1",1,"BIQ","Screen 1","9dh6eq",1,"continue","",36360.9919999523,36349.329,36360.9919999523,36360.9919999523,36349.329,36360.9919999523,1,36360.9919999523,0,0,NA,"Click To Continue","Continue Button",23,"object-48","BIQ",NA,"MDPRF47708"
"3",1700757182509,"23/11/2023 16:33:02",1700757182509,0,"23/11/2023 16:33:02",152734,7,"questionnaire-uu2n",NA,33167177,9820575,NA,"rejected - time limit reached",NA,"655f7c166e5a84d3091d233c","computer","Desktop or Laptop","Windows 10","Chrome 119.0.0.0","1920x1080","1675x820",NA,NA,0,"BIQ (Charlotte)",2,"In","KLJAIBHCGDFE",NA,"In",2,"Spreadsheet1",1,"BIQ","Screen 1","9dh6eq",1,"response","7",17182.578,36349.329,36364.2919999046,17182.578,36349.329,36364.2919999046,1,17182.578,19181.7139999046,0,NA,"Rating Scale","Rating Scale",3,"object-5","BIQ",NA,"MDPRF47708"
"4",1700757182509,"23/11/2023 16:33:02",1700757182509,0,"23/11/2023 16:33:02",152734,7,"questionnaire-uu2n",NA,33167177,9820575,NA,"rejected - time limit reached",NA,"655f7c166e5a84d3091d233c","computer","Desktop or Laptop","Windows 10","Chrome 119.0.0.0","1920x1080","1675x820",NA,NA,0,"BIQ (Charlotte)",2,"In","KLJAIBHCGDFE",NA,"In",2,"Spreadsheet1",1,"BIQ","Screen 1","9dh6eq",1,"response","7",23598.991,36349.329,36364.5919999762,23598.991,36349.329,36364.5919999762,1,23598.991,12765.6009999762,0,NA,"Rating Scale","Rating Scale",10,"object-18","BIQ",NA,"MDPRF47708"
"5",1700757182509,"23/11/2023 16:33:02",1700757182509,0,"23/11/2023 16:33:02",152734,7,"questionnaire-uu2n",NA,33167177,9820575,NA,"rejected - time limit reached",NA,"655f7c166e5a84d3091d233c","computer","Desktop or Laptop","Windows 10","Chrome 119.0.0.0","1920x1080","1675x820",NA,NA,0,"BIQ (Charlotte)",2,"In","KLJAIBHCGDFE",NA,"In",2,"Spreadsheet1",1,"BIQ","Screen 1","9dh6eq",1,"response","7",35431.843,36349.329,36365.0919999762,35431.843,36349.329,36365.0919999762,1,35431.843,933.24899997616,0,NA,"Rating Scale","Rating Scale",17,"object-80","BIQ",NA,"MDPRF47708"
"6",1700757199383,"23/11/2023 16:33:19",1700757199383,0,"23/11/2023 16:33:19",152734,7,"questionnaire-uu2n",NA,33167177,9820575,NA,"rejected - time limit reached",NA,"655f7c166e5a84d3091d233c","computer","Desktop or Laptop","Windows 10","Chrome 119.0.0.0","1920x1080","1675x820",NA,NA,0,"BIQ (Charlotte)",2,"In","KLJAIBHCGDFE",NA,"In",2,"Spreadsheet1",1,"BIQ","Screen 2","o21mwi",2,"continue","",16888.863,16881.763,16888.863,16888.863,16881.763,16888.863,1,16888.863,0,0,NA,"Click To Continue","Continue Button",22,"object-50","BIQ",NA,"MDPRF47708"
"7",1700757199386,"23/11/2023 16:33:19",1700757199386,0,"23/11/2023 16:33:19",152734,7,"questionnaire-uu2n",NA,33167177,9820575,NA,"rejected - time limit reached",NA,"655f7c166e5a84d3091d233c","computer","Desktop or Laptop","Windows 10","Chrome 119.0.0.0","1920x1080","1675x820",NA,NA,0,"BIQ (Charlotte)",2,"In","KLJAIBHCGDFE",NA,"In",2,"Spreadsheet1",1,"BIQ","Screen 2","o21mwi",2,"response","7",4282.35,16881.763,16891.863,4282.35,16881.763,16891.863,1,4282.35,12609.513,0,NA,"Rating Scale","Rating Scale",2,"object-259","BIQ",NA,"MDPRF47708"
"8",1700757199386,"23/11/2023 16:33:19",1700757199386,0,"23/11/2023 16:33:19",152734,7,"questionnaire-uu2n",NA,33167177,9820575,NA,"rejected - time limit reached",NA,"655f7c166e5a84d3091d233c","computer","Desktop or Laptop","Windows 10","Chrome 119.0.0.0","1920x1080","1675x820",NA,NA,0,"BIQ (Charlotte)",2,"In","KLJAIBHCGDFE",NA,"In",2,"Spreadsheet1",1,"BIQ","Screen 2","o21mwi",2,"response","5",9532.099,16881.763,16892.2629999762,9532.099,16881.763,16892.2629999762,1,9532.099,7360.16399997616,0,NA,"Rating Scale","Rating Scale",9,"object-36","BIQ",NA,"MDPRF47708"
"9",1700757199387,"23/11/2023 16:33:19",1700757199387,0,"23/11/2023 16:33:19",152734,7,"questionnaire-uu2n",NA,33167177,9820575,NA,"rejected - time limit reached",NA,"655f7c166e5a84d3091d233c","computer","Desktop or Laptop","Windows 10","Chrome 119.0.0.0","1920x1080","1675x820",NA,NA,0,"BIQ (Charlotte)",2,"In","KLJAIBHCGDFE",NA,"In",2,"Spreadsheet1",1,"BIQ","Screen 2","o21mwi",2,"response","1",15765.178,16881.763,16892.7629999762,15765.178,16881.763,16892.7629999762,1,15765.178,1127.58499997616,0,NA,"Rating Scale","Rating Scale",16,"object-86","BIQ",NA,"MDPRF47708"
"10",1700757217374,"23/11/2023 16:33:37",1700757217374,0,"23/11/2023 16:33:37",152734,7,"questionnaire-uu2n",NA,33167177,9820575,NA,"rejected - time limit reached",NA,"655f7c166e5a84d3091d233c","computer","Desktop or Laptop","Windows 10","Chrome 119.0.0.0","1920x1080","1675x820",NA,NA,0,"BIQ (Charlotte)",2,"In","KLJAIBHCGDFE",NA,"In",2,"Spreadsheet1",1,"BIQ","Screen 3","iz3the",3,"continue","",17997.6999999046,17982.596,17997.6999999046,17997.6999999046,17982.596,17997.6999999046,1,17997.6999999046,0,0,NA,"Click To Continue","Continue Button",22,"object-73","BIQ",NA,"MDPRF47708"
"11",1700757217377,"23/11/2023 16:33:37",1700757217377,0,"23/11/2023 16:33:37",152734,7,"questionnaire-uu2n",NA,33167177,9820575,NA,"rejected - time limit reached",NA,"655f7c166e5a84d3091d233c","computer","Desktop or Laptop","Windows 10","Chrome 119.0.0.0","1920x1080","1675x820",NA,NA,0,"BIQ (Charlotte)",2,"In","KLJAIBHCGDFE",NA,"In",2,"Spreadsheet1",1,"BIQ","Screen 3","iz3the",3,"response","4",4999.796,17982.596,17999.253,4999.796,17982.596,17999.253,1,4999.796,12999.457,0,NA,"Rating Scale","Rating Scale",2,"object-53","BIQ",NA,"MDPRF47708"
"12",1700757217377,"23/11/2023 16:33:37",1700757217377,0,"23/11/2023 16:33:37",152734,7,"questionnaire-uu2n",NA,33167177,9820575,NA,"rejected - time limit reached",NA,"655f7c166e5a84d3091d233c","computer","Desktop or Laptop","Windows 10","Chrome 119.0.0.0","1920x1080","1675x820",NA,NA,0,"BIQ (Charlotte)",2,"In","KLJAIBHCGDFE",NA,"In",2,"Spreadsheet1",1,"BIQ","Screen 3","iz3the",3,"response","7",10749.578,17982.596,17999.253,10749.578,17982.596,17999.253,1,10749.578,7249.67499999999,0,NA,"Rating Scale","Rating Scale",9,"object-60","BIQ",NA,"MDPRF47708"
"13",1700757217377,"23/11/2023 16:33:37",1700757217377,0,"23/11/2023 16:33:37",152734,7,"questionnaire-uu2n",NA,33167177,9820575,NA,"rejected - time limit reached",NA,"655f7c166e5a84d3091d233c","computer","Desktop or Laptop","Windows 10","Chrome 119.0.0.0","1920x1080","1675x820",NA,NA,0,"BIQ (Charlotte)",2,"In","KLJAIBHCGDFE",NA,"In",2,"Spreadsheet1",1,"BIQ","Screen 3","iz3the",3,"response","7",17382.684,17982.596,17999.253,17382.684,17982.596,17999.253,1,17382.684,616.568999999989,0,NA,"Rating Scale","Rating Scale",16,"object-67","BIQ",NA,"MDPRF47708"
"14",1700757217382,"23/11/2023 16:33:37",1700757217382,0,"23/11/2023 16:33:37",152734,7,"questionnaire-uu2n",NA,33167177,9820575,NA,"rejected - time limit reached",NA,"655f7c166e5a84d3091d233c","computer","Desktop or Laptop","Windows 10","Chrome 119.0.0.0","1920x1080","1675x820",NA,NA,0,"BIQ (Charlotte)",2,"In","KLJAIBHCGDFE",NA,"In",2,"Spreadsheet1",NA,"","","",NA,"5","END",NA,NA,NA,NA,NA,NA,0,NA,NA,NA,NA,"","",NA,"","",NA,"MDPRF47708"
"1",1700757186824,"23/11/2023 16:33:06",1700757186824,0,"23/11/2023 16:33:06",152734,7,"questionnaire-uu2n",NA,33167214,9820605,NA,"rejected - time limit reached",NA,"655f7c21ffed10f65ad158f8","computer","Desktop or Laptop","Windows 10","Chrome 119.0.0.0","1280x720","1280x603",NA,NA,0,"BIQ (Charlotte)",2,"In","ABLCKDJEIFHG",NA,"In",3,"Spreadsheet1",NA,"","","",NA,"5","BEGIN",NA,NA,NA,NA,NA,NA,0,NA,NA,NA,NA,"","",NA,"","",NA,"MDPRF14182"
"2",1700757223723,"23/11/2023 16:33:43",1700757223723,0,"23/11/2023 16:33:43",152734,7,"questionnaire-uu2n",NA,33167214,9820605,NA,"rejected - time limit reached",NA,"655f7c21ffed10f65ad158f8","computer","Desktop or Laptop","Windows 10","Chrome 119.0.0.0","1280x720","1280x603",NA,NA,0,"BIQ (Charlotte)",2,"In","ABLCKDJEIFHG",NA,"In",3,"Spreadsheet1",1,"BIQ","Screen 1","9dh6eq",1,"continue","",36900.637,36883.97,36900.637,36900.637,36883.97,36900.637,1,36900.637,0,0,NA,"Click To Continue","Continue Button",23,"object-48","BIQ",NA,"MDPRF14182"
"3",1700757223730,"23/11/2023 16:33:43",1700757223730,0,"23/11/2023 16:33:43",152734,7,"questionnaire-uu2n",NA,33167214,9820605,NA,"rejected - time limit reached",NA,"655f7c21ffed10f65ad158f8","computer","Desktop or Laptop","Windows 10","Chrome 119.0.0.0","1280x720","1280x603",NA,NA,0,"BIQ (Charlotte)",2,"In","ABLCKDJEIFHG",NA,"In",3,"Spreadsheet1",1,"BIQ","Screen 1","9dh6eq",1,"response","6",27450.636,36883.97,36900.637,27450.636,36883.97,36900.637,1,27450.636,9450.001,0,NA,"Rating Scale","Rating Scale",3,"object-5","BIQ",NA,"MDPRF14182"
"4",1700757223731,"23/11/2023 16:33:43",1700757223731,0,"23/11/2023 16:33:43",152734,7,"questionnaire-uu2n",NA,33167214,9820605,NA,"rejected - time limit reached",NA,"655f7c21ffed10f65ad158f8","computer","Desktop or Laptop","Windows 10","Chrome 119.0.0.0","1280x720","1280x603",NA,NA,0,"BIQ (Charlotte)",2,"In","ABLCKDJEIFHG",NA,"In",3,"Spreadsheet1",1,"BIQ","Screen 1","9dh6eq",1,"response","6",33100.241,36883.97,36900.637,33100.241,36883.97,36900.637,1,33100.241,3800.396,0,NA,"Rating Scale","Rating Scale",10,"object-18","BIQ",NA,"MDPRF14182"
"5",1700757223732,"23/11/2023 16:33:43",1700757223732,0,"23/11/2023 16:33:43",152734,7,"questionnaire-uu2n",NA,33167214,9820605,NA,"rejected - time limit reached",NA,"655f7c21ffed10f65ad158f8","computer","Desktop or Laptop","Windows 10","Chrome 119.0.0.0","1280x720","1280x603",NA,NA,0,"BIQ (Charlotte)",2,"In","ABLCKDJEIFHG",NA,"In",3,"Spreadsheet1",1,"BIQ","Screen 1","9dh6eq",1,"response","2",36134.033,36883.97,36900.637,36134.033,36883.97,36900.637,1,36134.033,766.603999999999,0,NA,"Rating Scale","Rating Scale",17,"object-80","BIQ",NA,"MDPRF14182"
"6",1700757226158,"23/11/2023 16:33:46",1700757226158,0,"23/11/2023 16:33:46",152734,7,"questionnaire-uu2n",NA,33167214,9820605,NA,"rejected - time limit reached",NA,"655f7c21ffed10f65ad158f8","computer","Desktop or Laptop","Windows 10","Chrome 119.0.0.0","1280x720","1280x603",NA,NA,0,"BIQ (Charlotte)",2,"In","ABLCKDJEIFHG",NA,"In",3,"Spreadsheet1",1,"BIQ","Screen 2","o21mwi",2,"continue","",2476.83100000149,2466.583,2476.83100000149,2476.83100000149,2466.583,2476.83100000149,1,2476.83100000149,0,0,NA,"Click To Continue","Continue Button",22,"object-50","BIQ",NA,"MDPRF14182"
"7",1700757244430,"23/11/2023 16:34:04",1700757244430,0,"23/11/2023 16:34:04",152734,7,"questionnaire-uu2n",NA,33167214,9820605,NA,"rejected - time limit reached",NA,"655f7c21ffed10f65ad158f8","computer","Desktop or Laptop","Windows 10","Chrome 119.0.0.0","1280x720","1280x603",NA,NA,0,"BIQ (Charlotte)",2,"In","ABLCKDJEIFHG",NA,"In",3,"Spreadsheet1",1,"BIQ","Screen 2","o21mwi",2,"continue","",20748.4309999993,20733.512,20748.4309999993,20748.4309999993,20733.512,20748.4309999993,1,20748.4309999993,0,0,NA,"Click To Continue","Continue Button",22,"object-50","BIQ",NA,"MDPRF14182"
"8",1700757244446,"23/11/2023 16:34:04",1700757244446,0,"23/11/2023 16:34:04",152734,7,"questionnaire-uu2n",NA,33167214,9820605,NA,"rejected - time limit reached",NA,"655f7c21ffed10f65ad158f8","computer","Desktop or Laptop","Windows 10","Chrome 119.0.0.0","1280x720","1280x603",NA,NA,0,"BIQ (Charlotte)",2,"In","ABLCKDJEIFHG",NA,"In",3,"Spreadsheet1",1,"BIQ","Screen 2","o21mwi",2,"response","7",9983.566,20733.512,20749.987,9983.566,20733.512,20749.987,1,9983.566,10766.421,0,NA,"Rating Scale","Rating Scale",2,"object-259","BIQ",NA,"MDPRF14182"
"9",1700757244450,"23/11/2023 16:34:04",1700757244450,0,"23/11/2023 16:34:04",152734,7,"questionnaire-uu2n",NA,33167214,9820605,NA,"rejected - time limit reached",NA,"655f7c21ffed10f65ad158f8","computer","Desktop or Laptop","Windows 10","Chrome 119.0.0.0","1280x720","1280x603",NA,NA,0,"BIQ (Charlotte)",2,"In","ABLCKDJEIFHG",NA,"In",3,"Spreadsheet1",1,"BIQ","Screen 2","o21mwi",2,"response","1",12983.611,20733.512,20749.987,12983.611,20733.512,20749.987,1,12983.611,7766.37600000001,0,NA,"Rating Scale","Rating Scale",9,"object-36","BIQ",NA,"MDPRF14182"
"10",1700757244454,"23/11/2023 16:34:04",1700757244454,0,"23/11/2023 16:34:04",152734,7,"questionnaire-uu2n",NA,33167214,9820605,NA,"rejected - time limit reached",NA,"655f7c21ffed10f65ad158f8","computer","Desktop or Laptop","Windows 10","Chrome 119.0.0.0","1280x720","1280x603",NA,NA,0,"BIQ (Charlotte)",2,"In","ABLCKDJEIFHG",NA,"In",3,"Spreadsheet1",1,"BIQ","Screen 2","o21mwi",2,"response","0",19350.372,20733.512,20749.987,19350.372,20733.512,20749.987,1,19350.372,1399.61500000001,0,NA,"Rating Scale","Rating Scale",16,"object-86","BIQ",NA,"MDPRF14182"
"11",1700757255016,"23/11/2023 16:34:15",1700757255016,0,"23/11/2023 16:34:15",152734,7,"questionnaire-uu2n",NA,33167214,9820605,NA,"rejected - time limit reached",NA,"655f7c21ffed10f65ad158f8","computer","Desktop or Laptop","Windows 10","Chrome 119.0.0.0","1280x720","1280x603",NA,NA,0,"BIQ (Charlotte)",2,"In","ABLCKDJEIFHG",NA,"In",3,"Spreadsheet1",1,"BIQ","Screen 3","iz3the",3,"continue","",10600.03,10583.567,10600.03,10600.03,10583.567,10600.03,1,10600.03,0,0,NA,"Click To Continue","Continue Button",22,"object-73","BIQ",NA,"MDPRF14182"
"12",1700757255030,"23/11/2023 16:34:15",1700757255030,0,"23/11/2023 16:34:15",152734,7,"questionnaire-uu2n",NA,33167214,9820605,NA,"rejected - time limit reached",NA,"655f7c21ffed10f65ad158f8","computer","Desktop or Laptop","Windows 10","Chrome 119.0.0.0","1280x720","1280x603",NA,NA,0,"BIQ (Charlotte)",2,"In","ABLCKDJEIFHG",NA,"In",3,"Spreadsheet1",1,"BIQ","Screen 3","iz3the",3,"response","1",4750.29399999999,10583.567,10600.03,4750.29399999999,10583.567,10600.03,1,4750.29399999999,5849.736,0,NA,"Rating Scale","Rating Scale",2,"object-53","BIQ",NA,"MDPRF14182"
"13",1700757255033,"23/11/2023 16:34:15",1700757255033,0,"23/11/2023 16:34:15",152734,7,"questionnaire-uu2n",NA,33167214,9820605,NA,"rejected - time limit reached",NA,"655f7c21ffed10f65ad158f8","computer","Desktop or Laptop","Windows 10","Chrome 119.0.0.0","1280x720","1280x603",NA,NA,0,"BIQ (Charlotte)",2,"In","ABLCKDJEIFHG",NA,"In",3,"Spreadsheet1",1,"BIQ","Screen 3","iz3the",3,"response","1",7066.969,10583.567,10600.03,7066.969,10583.567,10600.03,1,7066.969,3533.061,0,NA,"Rating Scale","Rating Scale",9,"object-60","BIQ",NA,"MDPRF14182"
"14",1700757255035,"23/11/2023 16:34:15",1700757255035,0,"23/11/2023 16:34:15",152734,7,"questionnaire-uu2n",NA,33167214,9820605,NA,"rejected - time limit reached",NA,"655f7c21ffed10f65ad158f8","computer","Desktop or Laptop","Windows 10","Chrome 119.0.0.0","1280x720","1280x603",NA,NA,0,"BIQ (Charlotte)",2,"In","ABLCKDJEIFHG",NA,"In",3,"Spreadsheet1",1,"BIQ","Screen 3","iz3the",3,"response","2",9450.194,10583.567,10600.03,9450.194,10583.567,10600.03,1,9450.194,1149.836,0,NA,"Rating Scale","Rating Scale",16,"object-67","BIQ",NA,"MDPRF14182"
