getAnswerDur,showChoiceDur,showResultDur,isiDur,itiDur,iriDur,rpeHighMax,rpeLowMax,pCongruent,maxIncongInARow,blockCond,participant,session,completion,condition,date,expName,psychopyVersion,OS,frameRate,key_resp_2.keys,key_resp_2.rt,key_resp_10.keys,key_resp_10.rt,key_resp_8.keys,key_resp_8.rt,rating_all_t.response,rating_all_t.rt,rating_all_t.tStart,rndRatTrial.thisRepN,rndRatTrial.thisTrialN,rndRatTrial.thisN,rndRatTrial.thisIndex,rndRatTrial.ran,Emo,Labs,Labs2,key_resp_9.keys,key_resp_9.rt,rating_all.response,rating_all.rt,rating_all.tStart,rndRat1.thisRepN,rndRat1.thisTrialN,rndRat1.thisN,rndRat1.thisIndex,rndRat1.ran,key_resp_3.keys,key_resp_3.rt,key_resp_4.keys,key_resp_4.rt,rating_alt.response,rating_alt.rt,AltC.thisRepN,AltC.thisTrialN,AltC.thisN,AltC.thisIndex,AltC.ran,alt_choices,pic_choices,TopAlt_Choice,rndRat2.thisRepN,rndRat2.thisTrialN,rndRat2.thisN,rndRat2.thisIndex,rndRat2.ran,key_resp_5.keys,key_resp_5.rt,rndRat3.thisRepN,rndRat3.thisTrialN,rndRat3.thisN,rndRat3.thisIndex,rndRat3.ran,key_resp_6.keys,key_resp_6.rt,rating_alt_2.response,rating_alt_2.rt,AltC2.thisRepN,AltC2.thisTrialN,AltC2.thisN,AltC2.thisIndex,AltC2.ran,alt_choices2,pic_choices2,TopAlt_Choice2,rndRat4.thisRepN,rndRat4.thisTrialN,rndRat4.thisN,rndRat4.thisIndex,rndRat4.ran,key_resp_7.keys,key_resp_7.rt,instrLoop.thisRepN,instrLoop.thisTrialN,instrLoop.thisN,instrLoop.thisIndex,instrLoop.ran,currSlide,currImage,currText,OC2Loop.thisRepN,OC2Loop.thisTrialN,OC2Loop.thisN,OC2Loop.thisIndex,OC2Loop.ran,targetHappiness,isHappyBlock,isCongruent,isWinOnTop,lastHappyRating,diff,sumDiff,RPE,winAmount,loseAmount,certainAmount,choice,outcome,outcomeAmount,currentWinnings,choiceKey.keys,choiceKey.rt,rndRat5.thisRepN,rndRat5.thisTrialN,rndRat5.thisN,rndRat5.thisIndex,rndRat5.ran,trialLoop.thisRepN,trialLoop.thisTrialN,trialLoop.thisN,trialLoop.thisIndex,trialLoop.ran,highAmount,finalWinnings,cashBonus,logWinningsLoop.thisRepN,logWinningsLoop.thisTrialN,logWinningsLoop.thisN,logWinningsLoop.thisIndex,logWinningsLoop.ran
3,4,1,1,2,30,5,0.03,0.7,3,Blocks_RestRandom.xlsx,SUPAMT10666,33LK57MYLZ4BM1KLVTSQ641L5CNSZS,FCACD793-2AEF-4C53-99D5-C7ADA7435FE1,0,2023-09-18_11h54.57.397,Pilot_VExplicitOC_RG_AMT,2022.2.5,Win32,22.1479037,NA,NA,NA,NA,NA,NA,NA,NA,NA,NA,NA,NA,NA,NA,NA,NA,NA,NA,NA,NA,NA,NA,NA,NA,NA,NA,NA,NA,NA,NA,NA,NA,NA,NA,NA,NA,NA,NA,NA,NA,NA,NA,NA,NA,NA,NA,NA,NA,NA,NA,NA,NA,NA,NA,NA,NA,NA,NA,NA,NA,NA,NA,NA,NA,NA,NA,NA,NA,NA,NA,NA,NA,NA,NA,NA,NA,NA,NA,NA,NA,NA,NA,NA,NA,NA,NA,NA,NA,NA,NA,NA,NA,NA,NA,NA,NA,NA,NA,NA,NA,NA,NA,NA,NA,NA,NA,NA,NA,NA,NA,NA,NA,NA,NA,NA,NA,NA,NA,NA,NA
NA,NA,NA,NA,NA,NA,NA,NA,NA,NA,NA,SUPAMT10666,33LK57MYLZ4BM1KLVTSQ641L5CNSZS,FCACD793-2AEF-4C53-99D5-C7ADA7435FE1,0,2023-09-18_11h54.57.397,Pilot_VExplicitOC_RG_AMT,2022.2.5,Win32,22.1479037,space,5.051,NA,NA,NA,NA,NA,NA,NA,NA,NA,NA,NA,NA,NA,NA,NA,NA,NA,NA,NA,NA,NA,NA,NA,NA,NA,NA,NA,NA,NA,NA,NA,NA,NA,NA,NA,NA,NA,NA,NA,NA,NA,NA,NA,NA,NA,NA,NA,NA,NA,NA,NA,NA,NA,NA,NA,NA,NA,NA,NA,NA,NA,NA,NA,NA,NA,NA,NA,NA,NA,NA,NA,NA,NA,NA,NA,NA,NA,NA,NA,NA,NA,NA,NA,NA,NA,NA,NA,NA,NA,NA,NA,NA,NA,NA,NA,NA,NA,NA,NA,NA,NA,NA,NA,NA,NA,NA,NA,NA,NA,NA,NA,NA,NA,NA,NA,NA,NA,NA
NA,NA,NA,NA,NA,NA,NA,NA,NA,NA,NA,SUPAMT10666,33LK57MYLZ4BM1KLVTSQ641L5CNSZS,FCACD793-2AEF-4C53-99D5-C7ADA7435FE1,0,2023-09-18_11h54.57.397,Pilot_VExplicitOC_RG_AMT,2022.2.5,Win32,22.1479037,NA,NA,space,1.1709,NA,NA,NA,NA,NA,NA,NA,NA,NA,NA,NA,NA,NA,NA,NA,NA,NA,NA,NA,NA,NA,NA,NA,NA,NA,NA,NA,NA,NA,NA,NA,NA,NA,NA,NA,NA,NA,NA,NA,NA,NA,NA,NA,NA,NA,NA,NA,NA,NA,NA,NA,NA,NA,NA,NA,NA,NA,NA,NA,NA,NA,NA,NA,NA,NA,NA,NA,NA,NA,NA,NA,NA,NA,NA,NA,NA,NA,NA,NA,NA,NA,NA,NA,NA,NA,NA,NA,NA,NA,NA,NA,NA,NA,NA,NA,NA,NA,NA,NA,NA,NA,NA,NA,NA,NA,NA,NA,NA,NA,NA,NA,NA,NA,NA,NA,NA
NA,NA,NA,NA,NA,NA,NA,NA,NA,NA,NA,SUPAMT10666,33LK57MYLZ4BM1KLVTSQ641L5CNSZS,FCACD793-2AEF-4C53-99D5-C7ADA7435FE1,0,2023-09-18_11h54.57.397,Pilot_VExplicitOC_RG_AMT,2022.2.5,Win32,22.1479037,NA,NA,NA,NA,space,21.6342,NA,NA,NA,NA,NA,NA,NA,NA,NA,NA,NA,NA,NA,NA,NA,NA,NA,NA,NA,NA,NA,NA,NA,NA,NA,NA,NA,NA,NA,NA,NA,NA,NA,NA,NA,NA,NA,NA,NA,NA,NA,NA,NA,NA,NA,NA,NA,NA,NA,NA,NA,NA,NA,NA,NA,NA,NA,NA,NA,NA,NA,NA,NA,NA,NA,NA,NA,NA,NA,NA,NA,NA,NA,NA,NA,NA,NA,NA,NA,NA,NA,NA,NA,NA,NA,NA,NA,NA,NA,NA,NA,NA,NA,NA,NA,NA,NA,NA,NA,NA,NA,NA,NA,NA,NA,NA,NA,NA,NA,NA,NA,NA,NA,NA
NA,NA,NA,NA,NA,NA,NA,NA,NA,NA,NA,SUPAMT10666,33LK57MYLZ4BM1KLVTSQ641L5CNSZS,FCACD793-2AEF-4C53-99D5-C7ADA7435FE1,0,2023-09-18_11h54.57.397,Pilot_VExplicitOC_RG_AMT,2022.2.5,Win32,22.1479037,NA,NA,NA,NA,NA,NA,73.95833333,4.3802,2.0243,0,0,0,2,1,bored,"bored, not bored","more bored, less bored",NA,NA,NA,NA,NA,NA,NA,NA,NA,NA,NA,NA,NA,NA,NA,NA,NA,NA,NA,NA,NA,NA,NA,NA,NA,NA,NA,NA,NA,NA,NA,NA,NA,NA,NA,NA,NA,NA,NA,NA,NA,NA,NA,NA,NA,NA,NA,NA,NA,NA,NA,NA,NA,NA,NA,NA,NA,NA,NA,NA,NA,NA,NA,NA,NA,NA,NA,NA,NA,NA,NA,NA,NA,NA,NA,NA,NA,NA,NA,NA,NA,NA,NA,NA,NA,NA,NA,NA,NA,NA,NA,NA,NA,NA,NA,NA,NA,NA,NA,NA,NA,NA,NA
NA,NA,NA,NA,NA,NA,NA,NA,NA,NA,NA,SUPAMT10666,33LK57MYLZ4BM1KLVTSQ641L5CNSZS,FCACD793-2AEF-4C53-99D5-C7ADA7435FE1,0,2023-09-18_11h54.57.397,Pilot_VExplicitOC_RG_AMT,2022.2.5,Win32,22.1479037,NA,NA,NA,NA,NA,NA,73.17708333,3.9759,2.0315,0,1,1,1,1,frustrated,"frustrated, not frustrated","more frustrated, less frustrated",NA,NA,NA,NA,NA,NA,NA,NA,NA,NA,NA,NA,NA,NA,NA,NA,NA,NA,NA,NA,NA,NA,NA,NA,NA,NA,NA,NA,NA,NA,NA,NA,NA,NA,NA,NA,NA,NA,NA,NA,NA,NA,NA,NA,NA,NA,NA,NA,NA,NA,NA,NA,NA,NA,NA,NA,NA,NA,NA,NA,NA,NA,NA,NA,NA,NA,NA,NA,NA,NA,NA,NA,NA,NA,NA,NA,NA,NA,NA,NA,NA,NA,NA,NA,NA,NA,NA,NA,NA,NA,NA,NA,NA,NA,NA,NA,NA,NA,NA,NA,NA,NA,NA
NA,NA,NA,NA,NA,NA,NA,NA,NA,NA,NA,SUPAMT10666,33LK57MYLZ4BM1KLVTSQ641L5CNSZS,FCACD793-2AEF-4C53-99D5-C7ADA7435FE1,0,2023-09-18_11h54.57.397,Pilot_VExplicitOC_RG_AMT,2022.2.5,Win32,22.1479037,NA,NA,NA,NA,NA,NA,73.17708333,3.7954,2.0799,0,2,2,0,1,happy,"unhappy, happy","less happy, more happy",NA,NA,NA,NA,NA,NA,NA,NA,NA,NA,NA,NA,NA,NA,NA,NA,NA,NA,NA,NA,NA,NA,NA,NA,NA,NA,NA,NA,NA,NA,NA,NA,NA,NA,NA,NA,NA,NA,NA,NA,NA,NA,NA,NA,NA,NA,NA,NA,NA,NA,NA,NA,NA,NA,NA,NA,NA,NA,NA,NA,NA,NA,NA,NA,NA,NA,NA,NA,NA,NA,NA,NA,NA,NA,NA,NA,NA,NA,NA,NA,NA,NA,NA,NA,NA,NA,NA,NA,NA,NA,NA,NA,NA,NA,NA,NA,NA,NA,NA,NA,NA,NA,NA
NA,NA,NA,NA,NA,NA,NA,NA,NA,NA,NA,SUPAMT10666,33LK57MYLZ4BM1KLVTSQ641L5CNSZS,FCACD793-2AEF-4C53-99D5-C7ADA7435FE1,0,2023-09-18_11h54.57.397,Pilot_VExplicitOC_RG_AMT,2022.2.5,Win32,22.1479037,NA,NA,NA,NA,NA,NA,NA,NA,NA,NA,NA,NA,NA,NA,NA,NA,NA,space,1.3001,NA,NA,NA,NA,NA,NA,NA,NA,NA,NA,NA,NA,NA,NA,NA,NA,NA,NA,NA,NA,NA,NA,NA,NA,NA,NA,NA,NA,NA,NA,NA,NA,NA,NA,NA,NA,NA,NA,NA,NA,NA,NA,NA,NA,NA,NA,NA,NA,NA,NA,NA,NA,NA,NA,NA,NA,NA,NA,NA,NA,NA,NA,NA,NA,NA,NA,NA,NA,NA,NA,NA,NA,NA,NA,NA,NA,NA,NA,NA,NA,NA,NA,NA,NA,NA,NA,NA,NA,NA,NA,NA,NA,NA,NA,NA,NA,NA,NA,NA,NA,NA
NA,NA,NA,NA,NA,NA,NA,NA,NA,NA,NA,SUPAMT10666,33LK57MYLZ4BM1KLVTSQ641L5CNSZS,FCACD793-2AEF-4C53-99D5-C7ADA7435FE1,0,2023-09-18_11h54.57.397,Pilot_VExplicitOC_RG_AMT,2022.2.5,Win32,22.1479037,NA,NA,NA,NA,NA,NA,NA,NA,NA,NA,NA,NA,NA,NA,happy,"unhappy, happy","less happy, more happy",NA,NA,73.17708333,3.1536,2.046,0,0,0,0,1,NA,NA,NA,NA,NA,NA,NA,NA,NA,NA,NA,NA,NA,NA,NA,NA,NA,NA,NA,NA,NA,NA,NA,NA,NA,NA,NA,NA,NA,NA,NA,NA,NA,NA,NA,NA,NA,NA,NA,NA,NA,NA,NA,NA,NA,NA,NA,NA,NA,NA,NA,NA,NA,NA,NA,NA,NA,NA,NA,NA,NA,NA,NA,NA,NA,NA,NA,NA,NA,NA,NA,NA,NA,NA,NA,NA,NA,NA,NA,NA,NA,NA,NA,NA,NA,NA,NA,NA,NA,NA,NA,NA,NA
NA,NA,NA,NA,NA,NA,NA,NA,NA,NA,NA,SUPAMT10666,33LK57MYLZ4BM1KLVTSQ641L5CNSZS,FCACD793-2AEF-4C53-99D5-C7ADA7435FE1,0,2023-09-18_11h54.57.397,Pilot_VExplicitOC_RG_AMT,2022.2.5,Win32,22.1479037,NA,NA,NA,NA,NA,NA,NA,NA,NA,NA,NA,NA,NA,NA,frustrated,"frustrated, not frustrated","more frustrated, less frustrated",NA,NA,73.17708333,4.8214,2.0339,0,1,1,1,1,NA,NA,NA,NA,NA,NA,NA,NA,NA,NA,NA,NA,NA,NA,NA,NA,NA,NA,NA,NA,NA,NA,NA,NA,NA,NA,NA,NA,NA,NA,NA,NA,NA,NA,NA,NA,NA,NA,NA,NA,NA,NA,NA,NA,NA,NA,NA,NA,NA,NA,NA,NA,NA,NA,NA,NA,NA,NA,NA,NA,NA,NA,NA,NA,NA,NA,NA,NA,NA,NA,NA,NA,NA,NA,NA,NA,NA,NA,NA,NA,NA,NA,NA,NA,NA,NA,NA,NA,NA,NA,NA,NA,NA
NA,NA,NA,NA,NA,NA,NA,NA,NA,NA,NA,SUPAMT10666,33LK57MYLZ4BM1KLVTSQ641L5CNSZS,FCACD793-2AEF-4C53-99D5-C7ADA7435FE1,0,2023-09-18_11h54.57.397,Pilot_VExplicitOC_RG_AMT,2022.2.5,Win32,22.1479037,NA,NA,NA,NA,NA,NA,NA,NA,NA,NA,NA,NA,NA,NA,bored,"bored, not bored","more bored, less bored",NA,NA,66.66666667,3.5932,2.0562,0,2,2,2,1,NA,NA,NA,NA,NA,NA,NA,NA,NA,NA,NA,NA,NA,NA,NA,NA,NA,NA,NA,NA,NA,NA,NA,NA,NA,NA,NA,NA,NA,NA,NA,NA,NA,NA,NA,NA,NA,NA,NA,NA,NA,NA,NA,NA,NA,NA,NA,NA,NA,NA,NA,NA,NA,NA,NA,NA,NA,NA,NA,NA,NA,NA,NA,NA,NA,NA,NA,NA,NA,NA,NA,NA,NA,NA,NA,NA,NA,NA,NA,NA,NA,NA,NA,NA,NA,NA,NA,NA,NA,NA,NA,NA,NA
NA,NA,NA,NA,NA,NA,NA,NA,NA,NA,NA,SUPAMT10666,33LK57MYLZ4BM1KLVTSQ641L5CNSZS,FCACD793-2AEF-4C53-99D5-C7ADA7435FE1,0,2023-09-18_11h54.57.397,Pilot_VExplicitOC_RG_AMT,2022.2.5,Win32,22.1479037,NA,NA,NA,NA,NA,NA,NA,NA,NA,NA,NA,NA,NA,NA,NA,NA,NA,NA,NA,NA,NA,NA,NA,NA,NA,NA,NA,space,3.9878,space,1.9851,57.8125,2.5064,0,0,0,0,1,rest (looking at a fixed cross),001.png,NA,NA,NA,NA,NA,NA,NA,NA,NA,NA,NA,NA,NA,NA,NA,NA,NA,NA,NA,NA,NA,NA,NA,NA,NA,NA,NA,NA,NA,NA,NA,NA,NA,NA,NA,NA,NA,NA,NA,NA,NA,NA,NA,NA,NA,NA,NA,NA,NA,NA,NA,NA,NA,NA,NA,NA,NA,NA,NA,NA,NA,NA,NA,NA,NA,NA,NA,NA,NA,NA,NA,NA,NA,NA,NA,NA,NA,NA,NA,NA
NA,NA,NA,NA,NA,NA,NA,NA,NA,NA,NA,SUPAMT10666,33LK57MYLZ4BM1KLVTSQ641L5CNSZS,FCACD793-2AEF-4C53-99D5-C7ADA7435FE1,0,2023-09-18_11h54.57.397,Pilot_VExplicitOC_RG_AMT,2022.2.5,Win32,22.1479037,NA,NA,NA,NA,NA,NA,NA,NA,NA,NA,NA,NA,NA,NA,NA,NA,NA,NA,NA,NA,NA,NA,NA,NA,NA,NA,NA,NA,NA,NA,NA,59.63541667,1.5602,0,1,1,1,1,stand up,002.png,NA,NA,NA,NA,NA,NA,NA,NA,NA,NA,NA,NA,NA,NA,NA,NA,NA,NA,NA,NA,NA,NA,NA,NA,NA,NA,NA,NA,NA,NA,NA,NA,NA,NA,NA,NA,NA,NA,NA,NA,NA,NA,NA,NA,NA,NA,NA,NA,NA,NA,NA,NA,NA,NA,NA,NA,NA,NA,NA,NA,NA,NA,NA,NA,NA,NA,NA,NA,NA,NA,NA,NA,NA,NA,NA,NA,NA,NA,NA,NA
NA,NA,NA,NA,NA,NA,NA,NA,NA,NA,NA,SUPAMT10666,33LK57MYLZ4BM1KLVTSQ641L5CNSZS,FCACD793-2AEF-4C53-99D5-C7ADA7435FE1,0,2023-09-18_11h54.57.397,Pilot_VExplicitOC_RG_AMT,2022.2.5,Win32,22.1479037,NA,NA,NA,NA,NA,NA,NA,NA,NA,NA,NA,NA,NA,NA,NA,NA,NA,NA,NA,NA,NA,NA,NA,NA,NA,NA,NA,NA,NA,NA,NA,59.63541667,1.0988,0,2,2,2,1,stretch,003.png,NA,NA,NA,NA,NA,NA,NA,NA,NA,NA,NA,NA,NA,NA,NA,NA,NA,NA,NA,NA,NA,NA,NA,NA,NA,NA,NA,NA,NA,NA,NA,NA,NA,NA,NA,NA,NA,NA,NA,NA,NA,NA,NA,NA,NA,NA,NA,NA,NA,NA,NA,NA,NA,NA,NA,NA,NA,NA,NA,NA,NA,NA,NA,NA,NA,NA,NA,NA,NA,NA,NA,NA,NA,NA,NA,NA,NA,NA,NA,NA
NA,NA,NA,NA,NA,NA,NA,NA,NA,NA,NA,SUPAMT10666,33LK57MYLZ4BM1KLVTSQ641L5CNSZS,FCACD793-2AEF-4C53-99D5-C7ADA7435FE1,0,2023-09-18_11h54.57.397,Pilot_VExplicitOC_RG_AMT,2022.2.5,Win32,22.1479037,NA,NA,NA,NA,NA,NA,NA,NA,NA,NA,NA,NA,NA,NA,NA,NA,NA,NA,NA,NA,NA,NA,NA,NA,NA,NA,NA,NA,NA,NA,NA,59.63541667,1.2096,0,3,3,3,1,make a drink,004.png,NA,NA,NA,NA,NA,NA,NA,NA,NA,NA,NA,NA,NA,NA,NA,NA,NA,NA,NA,NA,NA,NA,NA,NA,NA,NA,NA,NA,NA,NA,NA,NA,NA,NA,NA,NA,NA,NA,NA,NA,NA,NA,NA,NA,NA,NA,NA,NA,NA,NA,NA,NA,NA,NA,NA,NA,NA,NA,NA,NA,NA,NA,NA,NA,NA,NA,NA,NA,NA,NA,NA,NA,NA,NA,NA,NA,NA,NA,NA,NA
NA,NA,NA,NA,NA,NA,NA,NA,NA,NA,NA,SUPAMT10666,33LK57MYLZ4BM1KLVTSQ641L5CNSZS,FCACD793-2AEF-4C53-99D5-C7ADA7435FE1,0,2023-09-18_11h54.57.397,Pilot_VExplicitOC_RG_AMT,2022.2.5,Win32,22.1479037,NA,NA,NA,NA,NA,NA,NA,NA,NA,NA,NA,NA,NA,NA,NA,NA,NA,NA,NA,NA,NA,NA,NA,NA,NA,NA,NA,NA,NA,NA,NA,59.63541667,1.3343,0,4,4,4,1,scroll social media,005.png,NA,NA,NA,NA,NA,NA,NA,NA,NA,NA,NA,NA,NA,NA,NA,NA,NA,NA,NA,NA,NA,NA,NA,NA,NA,NA,NA,NA,NA,NA,NA,NA,NA,NA,NA,NA,NA,NA,NA,NA,NA,NA,NA,NA,NA,NA,NA,NA,NA,NA,NA,NA,NA,NA,NA,NA,NA,NA,NA,NA,NA,NA,NA,NA,NA,NA,NA,NA,NA,NA,NA,NA,NA,NA,NA,NA,NA,NA,NA,NA
NA,NA,NA,NA,NA,NA,NA,NA,NA,NA,NA,SUPAMT10666,33LK57MYLZ4BM1KLVTSQ641L5CNSZS,FCACD793-2AEF-4C53-99D5-C7ADA7435FE1,0,2023-09-18_11h54.57.397,Pilot_VExplicitOC_RG_AMT,2022.2.5,Win32,22.1479037,NA,NA,NA,NA,NA,NA,NA,NA,NA,NA,NA,NA,NA,NA,NA,NA,NA,NA,NA,NA,NA,NA,NA,NA,NA,NA,NA,NA,NA,NA,NA,59.63541667,1.0808,0,5,5,5,1,listen to music,006.png,NA,NA,NA,NA,NA,NA,NA,NA,NA,NA,NA,NA,NA,NA,NA,NA,NA,NA,NA,NA,NA,NA,NA,NA,NA,NA,NA,NA,NA,NA,NA,NA,NA,NA,NA,NA,NA,NA,NA,NA,NA,NA,NA,NA,NA,NA,NA,NA,NA,NA,NA,NA,NA,NA,NA,NA,NA,NA,NA,NA,NA,NA,NA,NA,NA,NA,NA,NA,NA,NA,NA,NA,NA,NA,NA,NA,NA,NA,NA,NA
NA,NA,NA,NA,NA,NA,NA,NA,NA,NA,NA,SUPAMT10666,33LK57MYLZ4BM1KLVTSQ641L5CNSZS,FCACD793-2AEF-4C53-99D5-C7ADA7435FE1,0,2023-09-18_11h54.57.397,Pilot_VExplicitOC_RG_AMT,2022.2.5,Win32,22.1479037,NA,NA,NA,NA,NA,NA,NA,NA,NA,NA,NA,NA,NA,NA,NA,NA,NA,NA,NA,NA,NA,NA,NA,NA,NA,NA,NA,NA,NA,NA,NA,59.63541667,1.4437,0,6,6,6,1,daydream,007.png,NA,NA,NA,NA,NA,NA,NA,NA,NA,NA,NA,NA,NA,NA,NA,NA,NA,NA,NA,NA,NA,NA,NA,NA,NA,NA,NA,NA,NA,NA,NA,NA,NA,NA,NA,NA,NA,NA,NA,NA,NA,NA,NA,NA,NA,NA,NA,NA,NA,NA,NA,NA,NA,NA,NA,NA,NA,NA,NA,NA,NA,NA,NA,NA,NA,NA,NA,NA,NA,NA,NA,NA,NA,NA,NA,NA,NA,NA,NA,NA
NA,NA,NA,NA,NA,NA,NA,NA,NA,NA,NA,SUPAMT10666,33LK57MYLZ4BM1KLVTSQ641L5CNSZS,FCACD793-2AEF-4C53-99D5-C7ADA7435FE1,0,2023-09-18_11h54.57.397,Pilot_VExplicitOC_RG_AMT,2022.2.5,Win32,22.1479037,NA,NA,NA,NA,NA,NA,NA,NA,NA,NA,NA,NA,NA,NA,NA,NA,NA,NA,NA,NA,NA,NA,NA,NA,NA,NA,NA,NA,NA,NA,NA,59.63541667,1.9186,0,7,7,7,1,watch a short animation,008.png,NA,NA,NA,NA,NA,NA,NA,NA,NA,NA,NA,NA,NA,NA,NA,NA,NA,NA,NA,NA,NA,NA,NA,NA,NA,NA,NA,NA,NA,NA,NA,NA,NA,NA,NA,NA,NA,NA,NA,NA,NA,NA,NA,NA,NA,NA,NA,NA,NA,NA,NA,NA,NA,NA,NA,NA,NA,NA,NA,NA,NA,NA,NA,NA,NA,NA,NA,NA,NA,NA,NA,NA,NA,NA,NA,NA,NA,NA,NA,NA
NA,NA,NA,NA,NA,NA,NA,NA,NA,NA,NA,SUPAMT10666,33LK57MYLZ4BM1KLVTSQ641L5CNSZS,FCACD793-2AEF-4C53-99D5-C7ADA7435FE1,0,2023-09-18_11h54.57.397,Pilot_VExplicitOC_RG_AMT,2022.2.5,Win32,22.1479037,NA,NA,NA,NA,NA,NA,NA,NA,NA,NA,NA,NA,NA,NA,NA,NA,NA,NA,NA,NA,NA,NA,NA,NA,NA,NA,NA,NA,NA,NA,NA,59.63541667,0.927,0,8,8,8,1,read a novel,009.png,NA,NA,NA,NA,NA,NA,NA,NA,NA,NA,NA,NA,NA,NA,NA,NA,NA,NA,NA,NA,NA,NA,NA,NA,NA,NA,NA,NA,NA,NA,NA,NA,NA,NA,NA,NA,NA,NA,NA,NA,NA,NA,NA,NA,NA,NA,NA,NA,NA,NA,NA,NA,NA,NA,NA,NA,NA,NA,NA,NA,NA,NA,NA,NA,NA,NA,NA,NA,NA,NA,NA,NA,NA,NA,NA,NA,NA,NA,NA,NA
NA,NA,NA,NA,NA,NA,NA,NA,NA,NA,NA,SUPAMT10666,33LK57MYLZ4BM1KLVTSQ641L5CNSZS,FCACD793-2AEF-4C53-99D5-C7ADA7435FE1,0,2023-09-18_11h54.57.397,Pilot_VExplicitOC_RG_AMT,2022.2.5,Win32,22.1479037,NA,NA,NA,NA,NA,NA,NA,NA,NA,NA,NA,NA,NA,NA,NA,NA,NA,NA,NA,NA,NA,NA,NA,NA,NA,NA,NA,NA,NA,NA,NA,59.63541667,1.1013,0,9,9,9,1,read the news,010.png,NA,NA,NA,NA,NA,NA,NA,NA,NA,NA,NA,NA,NA,NA,NA,NA,NA,NA,NA,NA,NA,NA,NA,NA,NA,NA,NA,NA,NA,NA,NA,NA,NA,NA,NA,NA,NA,NA,NA,NA,NA,NA,NA,NA,NA,NA,NA,NA,NA,NA,NA,NA,NA,NA,NA,NA,NA,NA,NA,NA,NA,NA,NA,NA,NA,NA,NA,NA,NA,NA,NA,NA,NA,NA,NA,NA,NA,NA,NA,NA
NA,NA,NA,NA,NA,NA,NA,NA,NA,NA,NA,SUPAMT10666,33LK57MYLZ4BM1KLVTSQ641L5CNSZS,FCACD793-2AEF-4C53-99D5-C7ADA7435FE1,0,2023-09-18_11h54.57.397,Pilot_VExplicitOC_RG_AMT,2022.2.5,Win32,22.1479037,NA,NA,NA,NA,NA,NA,NA,NA,NA,NA,NA,NA,NA,NA,NA,NA,NA,NA,NA,NA,NA,NA,NA,NA,NA,NA,NA,NA,NA,NA,NA,59.63541667,0.8692,0,10,10,10,1,gambling game,011.png,NA,NA,NA,NA,NA,NA,NA,NA,NA,NA,NA,NA,NA,NA,NA,NA,NA,NA,NA,NA,NA,NA,NA,NA,NA,NA,NA,NA,NA,NA,NA,NA,NA,NA,NA,NA,NA,NA,NA,NA,NA,NA,NA,NA,NA,NA,NA,NA,NA,NA,NA,NA,NA,NA,NA,NA,NA,NA,NA,NA,NA,NA,NA,NA,NA,NA,NA,NA,NA,NA,NA,NA,NA,NA,NA,NA,NA,NA,NA,NA
NA,NA,NA,NA,NA,NA,NA,NA,NA,NA,NA,SUPAMT10666,33LK57MYLZ4BM1KLVTSQ641L5CNSZS,FCACD793-2AEF-4C53-99D5-C7ADA7435FE1,0,2023-09-18_11h54.57.397,Pilot_VExplicitOC_RG_AMT,2022.2.5,Win32,22.1479037,NA,NA,NA,NA,NA,NA,NA,NA,NA,NA,NA,NA,NA,NA,happy,"unhappy, happy","less happy, more happy",NA,NA,69.53125,4.3375,2.053,NA,NA,NA,NA,NA,NA,NA,NA,NA,NA,NA,NA,NA,NA,NA,NA,NA,NA,stand up,0,0,0,0,1,NA,NA,NA,NA,NA,NA,NA,NA,NA,NA,NA,NA,NA,NA,NA,NA,NA,NA,NA,NA,NA,NA,NA,NA,NA,NA,NA,NA,NA,NA,NA,NA,NA,NA,NA,NA,NA,NA,NA,NA,NA,NA,NA,NA,NA,NA,NA,NA,NA,NA,NA,NA,NA,NA,NA,NA,NA,NA,NA,NA,NA,NA,NA,NA,NA,NA,NA,NA,NA,NA,NA,NA,NA,NA
NA,NA,NA,NA,NA,NA,NA,NA,NA,NA,NA,SUPAMT10666,33LK57MYLZ4BM1KLVTSQ641L5CNSZS,FCACD793-2AEF-4C53-99D5-C7ADA7435FE1,0,2023-09-18_11h54.57.397,Pilot_VExplicitOC_RG_AMT,2022.2.5,Win32,22.1479037,NA,NA,NA,NA,NA,NA,NA,NA,NA,NA,NA,NA,NA,NA,frustrated,"frustrated, not frustrated","more frustrated, less frustrated",NA,NA,71.09375,3.5337,2.048,NA,NA,NA,NA,NA,NA,NA,NA,NA,NA,NA,NA,NA,NA,NA,NA,NA,NA,NA,0,1,1,1,1,NA,NA,NA,NA,NA,NA,NA,NA,NA,NA,NA,NA,NA,NA,NA,NA,NA,NA,NA,NA,NA,NA,NA,NA,NA,NA,NA,NA,NA,NA,NA,NA,NA,NA,NA,NA,NA,NA,NA,NA,NA,NA,NA,NA,NA,NA,NA,NA,NA,NA,NA,NA,NA,NA,NA,NA,NA,NA,NA,NA,NA,NA,NA,NA,NA,NA,NA,NA,NA,NA,NA,NA,NA,NA
NA,NA,NA,NA,NA,NA,NA,NA,NA,NA,NA,SUPAMT10666,33LK57MYLZ4BM1KLVTSQ641L5CNSZS,FCACD793-2AEF-4C53-99D5-C7ADA7435FE1,0,2023-09-18_11h54.57.397,Pilot_VExplicitOC_RG_AMT,2022.2.5,Win32,22.1479037,NA,NA,NA,NA,NA,NA,NA,NA,NA,NA,NA,NA,NA,NA,bored,"bored, not bored","more bored, less bored",NA,NA,NA,NA,2.0397,NA,NA,NA,NA,NA,NA,NA,NA,NA,NA,NA,NA,NA,NA,NA,NA,NA,NA,NA,0,2,2,2,1,NA,NA,NA,NA,NA,NA,NA,NA,NA,NA,NA,NA,NA,NA,NA,NA,NA,NA,NA,NA,NA,NA,NA,NA,NA,NA,NA,NA,NA,NA,NA,NA,NA,NA,NA,NA,NA,NA,NA,NA,NA,NA,NA,NA,NA,NA,NA,NA,NA,NA,NA,NA,NA,NA,NA,NA,NA,NA,NA,NA,NA,NA,NA,NA,NA,NA,NA,NA,NA,NA,NA,NA,NA,NA
NA,NA,NA,NA,NA,NA,NA,NA,NA,NA,NA,SUPAMT10666,33LK57MYLZ4BM1KLVTSQ641L5CNSZS,FCACD793-2AEF-4C53-99D5-C7ADA7435FE1,0,2023-09-18_11h54.57.397,Pilot_VExplicitOC_RG_AMT,2022.2.5,Win32,22.1479037,NA,NA,NA,NA,NA,NA,NA,NA,NA,NA,NA,NA,NA,NA,frustrated,"frustrated, not frustrated","more frustrated, less frustrated",NA,NA,68.75,3.2148,2.0123,NA,NA,NA,NA,NA,NA,NA,NA,NA,NA,NA,NA,NA,NA,NA,NA,NA,NA,NA,NA,NA,NA,NA,NA,space,24.9833,0,0,0,1,1,NA,NA,NA,NA,NA,NA,NA,NA,NA,NA,NA,NA,NA,NA,NA,NA,NA,NA,NA,NA,NA,NA,NA,NA,NA,NA,NA,NA,NA,NA,NA,NA,NA,NA,NA,NA,NA,NA,NA,NA,NA,NA,NA,NA,NA,NA,NA,NA,NA,NA,NA,NA,NA,NA,NA,NA,NA,NA,NA,NA,NA,NA,NA,NA,NA,NA,NA
NA,NA,NA,NA,NA,NA,NA,NA,NA,NA,NA,SUPAMT10666,33LK57MYLZ4BM1KLVTSQ641L5CNSZS,FCACD793-2AEF-4C53-99D5-C7ADA7435FE1,0,2023-09-18_11h54.57.397,Pilot_VExplicitOC_RG_AMT,2022.2.5,Win32,22.1479037,NA,NA,NA,NA,NA,NA,NA,NA,NA,NA,NA,NA,NA,NA,bored,"bored, not bored","more bored, less bored",NA,NA,67.70833333,3.141,2.0341,NA,NA,NA,NA,NA,NA,NA,NA,NA,NA,NA,NA,NA,NA,NA,NA,NA,NA,NA,NA,NA,NA,NA,NA,NA,NA,0,1,1,2,1,NA,NA,NA,NA,NA,NA,NA,NA,NA,NA,NA,NA,NA,NA,NA,NA,NA,NA,NA,NA,NA,NA,NA,NA,NA,NA,NA,NA,NA,NA,NA,NA,NA,NA,NA,NA,NA,NA,NA,NA,NA,NA,NA,NA,NA,NA,NA,NA,NA,NA,NA,NA,NA,NA,NA,NA,NA,NA,NA,NA,NA,NA,NA,NA,NA,NA,NA
NA,NA,NA,NA,NA,NA,NA,NA,NA,NA,NA,SUPAMT10666,33LK57MYLZ4BM1KLVTSQ641L5CNSZS,FCACD793-2AEF-4C53-99D5-C7ADA7435FE1,0,2023-09-18_11h54.57.397,Pilot_VExplicitOC_RG_AMT,2022.2.5,Win32,22.1479037,NA,NA,NA,NA,NA,NA,NA,NA,NA,NA,NA,NA,NA,NA,happy,"unhappy, happy","less happy, more happy",NA,NA,67.70833333,3.7773,2.0186,NA,NA,NA,NA,NA,NA,NA,NA,NA,NA,NA,NA,NA,NA,NA,NA,NA,NA,NA,NA,NA,NA,NA,NA,NA,NA,0,2,2,0,1,NA,NA,NA,NA,NA,NA,NA,NA,NA,NA,NA,NA,NA,NA,NA,NA,NA,NA,NA,NA,NA,NA,NA,NA,NA,NA,NA,NA,NA,NA,NA,NA,NA,NA,NA,NA,NA,NA,NA,NA,NA,NA,NA,NA,NA,NA,NA,NA,NA,NA,NA,NA,NA,NA,NA,NA,NA,NA,NA,NA,NA,NA,NA,NA,NA,NA,NA
NA,NA,NA,NA,NA,NA,NA,NA,NA,NA,NA,SUPAMT10666,33LK57MYLZ4BM1KLVTSQ641L5CNSZS,FCACD793-2AEF-4C53-99D5-C7ADA7435FE1,0,2023-09-18_11h54.57.397,Pilot_VExplicitOC_RG_AMT,2022.2.5,Win32,22.1479037,NA,NA,NA,NA,NA,NA,NA,NA,NA,NA,NA,NA,NA,NA,bored,"bored, not bored","more bored, less bored",NA,NA,62.5,2.9622,2.0363,NA,NA,NA,NA,NA,NA,NA,NA,NA,NA,NA,NA,NA,NA,NA,NA,NA,NA,NA,NA,NA,NA,NA,NA,NA,NA,0,0,0,2,1,NA,NA,NA,NA,NA,NA,NA,NA,NA,NA,NA,NA,NA,NA,NA,NA,NA,NA,NA,NA,NA,NA,NA,NA,NA,NA,NA,NA,NA,NA,NA,NA,NA,NA,NA,NA,NA,NA,NA,NA,NA,NA,NA,NA,NA,NA,NA,NA,NA,NA,NA,NA,NA,NA,NA,NA,NA,NA,NA,NA,NA,NA,NA,NA,NA,NA,NA
NA,NA,NA,NA,NA,NA,NA,NA,NA,NA,NA,SUPAMT10666,33LK57MYLZ4BM1KLVTSQ641L5CNSZS,FCACD793-2AEF-4C53-99D5-C7ADA7435FE1,0,2023-09-18_11h54.57.397,Pilot_VExplicitOC_RG_AMT,2022.2.5,Win32,22.1479037,NA,NA,NA,NA,NA,NA,NA,NA,NA,NA,NA,NA,NA,NA,happy,"unhappy, happy","less happy, more happy",NA,NA,62.5,3.1451,2.1217,NA,NA,NA,NA,NA,NA,NA,NA,NA,NA,NA,NA,NA,NA,NA,NA,NA,NA,NA,NA,NA,NA,NA,NA,NA,NA,0,1,1,0,1,NA,NA,NA,NA,NA,NA,NA,NA,NA,NA,NA,NA,NA,NA,NA,NA,NA,NA,NA,NA,NA,NA,NA,NA,NA,NA,NA,NA,NA,NA,NA,NA,NA,NA,NA,NA,NA,NA,NA,NA,NA,NA,NA,NA,NA,NA,NA,NA,NA,NA,NA,NA,NA,NA,NA,NA,NA,NA,NA,NA,NA,NA,NA,NA,NA,NA,NA
NA,NA,NA,NA,NA,NA,NA,NA,NA,NA,NA,SUPAMT10666,33LK57MYLZ4BM1KLVTSQ641L5CNSZS,FCACD793-2AEF-4C53-99D5-C7ADA7435FE1,0,2023-09-18_11h54.57.397,Pilot_VExplicitOC_RG_AMT,2022.2.5,Win32,22.1479037,NA,NA,NA,NA,NA,NA,NA,NA,NA,NA,NA,NA,NA,NA,frustrated,"frustrated, not frustrated","more frustrated, less frustrated",NA,NA,62.5,3.3404,2.0989,NA,NA,NA,NA,NA,NA,NA,NA,NA,NA,NA,NA,NA,NA,NA,NA,NA,NA,NA,NA,NA,NA,NA,NA,NA,NA,0,2,2,1,1,NA,NA,NA,NA,NA,NA,NA,NA,NA,NA,NA,NA,NA,NA,NA,NA,NA,NA,NA,NA,NA,NA,NA,NA,NA,NA,NA,NA,NA,NA,NA,NA,NA,NA,NA,NA,NA,NA,NA,NA,NA,NA,NA,NA,NA,NA,NA,NA,NA,NA,NA,NA,NA,NA,NA,NA,NA,NA,NA,NA,NA,NA,NA,NA,NA,NA,NA
NA,NA,NA,NA,NA,NA,NA,NA,NA,NA,NA,SUPAMT10666,33LK57MYLZ4BM1KLVTSQ641L5CNSZS,FCACD793-2AEF-4C53-99D5-C7ADA7435FE1,0,2023-09-18_11h54.57.397,Pilot_VExplicitOC_RG_AMT,2022.2.5,Win32,22.1479037,NA,NA,NA,NA,NA,NA,NA,NA,NA,NA,NA,NA,NA,NA,happy,"unhappy, happy","less happy, more happy",NA,NA,58.33333333,3.369,2.0942,NA,NA,NA,NA,NA,NA,NA,NA,NA,NA,NA,NA,NA,NA,NA,NA,NA,NA,NA,NA,NA,NA,NA,NA,NA,NA,0,0,0,0,1,NA,NA,NA,NA,NA,NA,NA,NA,NA,NA,NA,NA,NA,NA,NA,NA,NA,NA,NA,NA,NA,NA,NA,NA,NA,NA,NA,NA,NA,NA,NA,NA,NA,NA,NA,NA,NA,NA,NA,NA,NA,NA,NA,NA,NA,NA,NA,NA,NA,NA,NA,NA,NA,NA,NA,NA,NA,NA,NA,NA,NA,NA,NA,NA,NA,NA,NA
NA,NA,NA,NA,NA,NA,NA,NA,NA,NA,NA,SUPAMT10666,33LK57MYLZ4BM1KLVTSQ641L5CNSZS,FCACD793-2AEF-4C53-99D5-C7ADA7435FE1,0,2023-09-18_11h54.57.397,Pilot_VExplicitOC_RG_AMT,2022.2.5,Win32,22.1479037,NA,NA,NA,NA,NA,NA,NA,NA,NA,NA,NA,NA,NA,NA,bored,"bored, not bored","more bored, less bored",NA,NA,66.92708333,3.3127,2.0487,NA,NA,NA,NA,NA,NA,NA,NA,NA,NA,NA,NA,NA,NA,NA,NA,NA,NA,NA,NA,NA,NA,NA,NA,NA,NA,0,1,1,2,1,NA,NA,NA,NA,NA,NA,NA,NA,NA,NA,NA,NA,NA,NA,NA,NA,NA,NA,NA,NA,NA,NA,NA,NA,NA,NA,NA,NA,NA,NA,NA,NA,NA,NA,NA,NA,NA,NA,NA,NA,NA,NA,NA,NA,NA,NA,NA,NA,NA,NA,NA,NA,NA,NA,NA,NA,NA,NA,NA,NA,NA,NA,NA,NA,NA,NA,NA
NA,NA,NA,NA,NA,NA,NA,NA,NA,NA,NA,SUPAMT10666,33LK57MYLZ4BM1KLVTSQ641L5CNSZS,FCACD793-2AEF-4C53-99D5-C7ADA7435FE1,0,2023-09-18_11h54.57.397,Pilot_VExplicitOC_RG_AMT,2022.2.5,Win32,22.1479037,NA,NA,NA,NA,NA,NA,NA,NA,NA,NA,NA,NA,NA,NA,frustrated,"frustrated, not frustrated","more frustrated, less frustrated",NA,NA,66.92708333,3.173,2.0114,NA,NA,NA,NA,NA,NA,NA,NA,NA,NA,NA,NA,NA,NA,NA,NA,NA,NA,NA,NA,NA,NA,NA,NA,NA,NA,0,2,2,1,1,NA,NA,NA,NA,NA,NA,NA,NA,NA,NA,NA,NA,NA,NA,NA,NA,NA,NA,NA,NA,NA,NA,NA,NA,NA,NA,NA,NA,NA,NA,NA,NA,NA,NA,NA,NA,NA,NA,NA,NA,NA,NA,NA,NA,NA,NA,NA,NA,NA,NA,NA,NA,NA,NA,NA,NA,NA,NA,NA,NA,NA,NA,NA,NA,NA,NA,NA
NA,NA,NA,NA,NA,NA,NA,NA,NA,NA,NA,SUPAMT10666,33LK57MYLZ4BM1KLVTSQ641L5CNSZS,FCACD793-2AEF-4C53-99D5-C7ADA7435FE1,0,2023-09-18_11h54.57.397,Pilot_VExplicitOC_RG_AMT,2022.2.5,Win32,22.1479037,NA,NA,NA,NA,NA,NA,NA,NA,NA,NA,NA,NA,NA,NA,happy,"unhappy, happy","less happy, more happy",NA,NA,NA,NA,2.0012,NA,NA,NA,NA,NA,NA,NA,NA,NA,NA,NA,NA,NA,NA,NA,NA,NA,NA,NA,NA,NA,NA,NA,NA,NA,NA,0,0,0,0,1,NA,NA,NA,NA,NA,NA,NA,NA,NA,NA,NA,NA,NA,NA,NA,NA,NA,NA,NA,NA,NA,NA,NA,NA,NA,NA,NA,NA,NA,NA,NA,NA,NA,NA,NA,NA,NA,NA,NA,NA,NA,NA,NA,NA,NA,NA,NA,NA,NA,NA,NA,NA,NA,NA,NA,NA,NA,NA,NA,NA,NA,NA,NA,NA,NA,NA,NA
NA,NA,NA,NA,NA,NA,NA,NA,NA,NA,NA,SUPAMT10666,33LK57MYLZ4BM1KLVTSQ641L5CNSZS,FCACD793-2AEF-4C53-99D5-C7ADA7435FE1,0,2023-09-18_11h54.57.397,Pilot_VExplicitOC_RG_AMT,2022.2.5,Win32,22.1479037,NA,NA,NA,NA,NA,NA,NA,NA,NA,NA,NA,NA,NA,NA,frustrated,"frustrated, not frustrated","more frustrated, less frustrated",NA,NA,58.85416667,6.0708,2.1361,NA,NA,NA,NA,NA,NA,NA,NA,NA,NA,NA,NA,NA,NA,NA,NA,NA,NA,NA,NA,NA,NA,NA,NA,NA,NA,0,1,1,1,1,NA,NA,NA,NA,NA,NA,NA,NA,NA,NA,NA,NA,NA,NA,NA,NA,NA,NA,NA,NA,NA,NA,NA,NA,NA,NA,NA,NA,NA,NA,NA,NA,NA,NA,NA,NA,NA,NA,NA,NA,NA,NA,NA,NA,NA,NA,NA,NA,NA,NA,NA,NA,NA,NA,NA,NA,NA,NA,NA,NA,NA,NA,NA,NA,NA,NA,NA
NA,NA,NA,NA,NA,NA,NA,NA,NA,NA,NA,SUPAMT10666,33LK57MYLZ4BM1KLVTSQ641L5CNSZS,FCACD793-2AEF-4C53-99D5-C7ADA7435FE1,0,2023-09-18_11h54.57.397,Pilot_VExplicitOC_RG_AMT,2022.2.5,Win32,22.1479037,NA,NA,NA,NA,NA,NA,NA,NA,NA,NA,NA,NA,NA,NA,bored,"bored, not bored","more bored, less bored",NA,NA,56.77083333,3.4765,2.1205,NA,NA,NA,NA,NA,NA,NA,NA,NA,NA,NA,NA,NA,NA,NA,NA,NA,NA,NA,NA,NA,NA,NA,NA,NA,NA,0,2,2,2,1,NA,NA,NA,NA,NA,NA,NA,NA,NA,NA,NA,NA,NA,NA,NA,NA,NA,NA,NA,NA,NA,NA,NA,NA,NA,NA,NA,NA,NA,NA,NA,NA,NA,NA,NA,NA,NA,NA,NA,NA,NA,NA,NA,NA,NA,NA,NA,NA,NA,NA,NA,NA,NA,NA,NA,NA,NA,NA,NA,NA,NA,NA,NA,NA,NA,NA,NA
NA,NA,NA,NA,NA,NA,NA,NA,NA,NA,NA,SUPAMT10666,33LK57MYLZ4BM1KLVTSQ641L5CNSZS,FCACD793-2AEF-4C53-99D5-C7ADA7435FE1,0,2023-09-18_11h54.57.397,Pilot_VExplicitOC_RG_AMT,2022.2.5,Win32,22.1479037,NA,NA,NA,NA,NA,NA,NA,NA,NA,NA,NA,NA,NA,NA,bored,"bored, not bored","more bored, less bored",NA,NA,64.84375,3.3375,2.0576,NA,NA,NA,NA,NA,NA,NA,NA,NA,NA,NA,NA,NA,NA,NA,NA,NA,NA,NA,NA,NA,NA,NA,NA,NA,NA,0,0,0,2,1,NA,NA,NA,NA,NA,NA,NA,NA,NA,NA,NA,NA,NA,NA,NA,NA,NA,NA,NA,NA,NA,NA,NA,NA,NA,NA,NA,NA,NA,NA,NA,NA,NA,NA,NA,NA,NA,NA,NA,NA,NA,NA,NA,NA,NA,NA,NA,NA,NA,NA,NA,NA,NA,NA,NA,NA,NA,NA,NA,NA,NA,NA,NA,NA,NA,NA,NA
NA,NA,NA,NA,NA,NA,NA,NA,NA,NA,NA,SUPAMT10666,33LK57MYLZ4BM1KLVTSQ641L5CNSZS,FCACD793-2AEF-4C53-99D5-C7ADA7435FE1,0,2023-09-18_11h54.57.397,Pilot_VExplicitOC_RG_AMT,2022.2.5,Win32,22.1479037,NA,NA,NA,NA,NA,NA,NA,NA,NA,NA,NA,NA,NA,NA,happy,"unhappy, happy","less happy, more happy",NA,NA,64.84375,3.2794,2.1278,NA,NA,NA,NA,NA,NA,NA,NA,NA,NA,NA,NA,NA,NA,NA,NA,NA,NA,NA,NA,NA,NA,NA,NA,NA,NA,0,1,1,0,1,NA,NA,NA,NA,NA,NA,NA,NA,NA,NA,NA,NA,NA,NA,NA,NA,NA,NA,NA,NA,NA,NA,NA,NA,NA,NA,NA,NA,NA,NA,NA,NA,NA,NA,NA,NA,NA,NA,NA,NA,NA,NA,NA,NA,NA,NA,NA,NA,NA,NA,NA,NA,NA,NA,NA,NA,NA,NA,NA,NA,NA,NA,NA,NA,NA,NA,NA
NA,NA,NA,NA,NA,NA,NA,NA,NA,NA,NA,SUPAMT10666,33LK57MYLZ4BM1KLVTSQ641L5CNSZS,FCACD793-2AEF-4C53-99D5-C7ADA7435FE1,0,2023-09-18_11h54.57.397,Pilot_VExplicitOC_RG_AMT,2022.2.5,Win32,22.1479037,NA,NA,NA,NA,NA,NA,NA,NA,NA,NA,NA,NA,NA,NA,frustrated,"frustrated, not frustrated","more frustrated, less frustrated",NA,NA,64.84375,3.1461,2.1207,NA,NA,NA,NA,NA,NA,NA,NA,NA,NA,NA,NA,NA,NA,NA,NA,NA,NA,NA,NA,NA,NA,NA,NA,NA,NA,0,2,2,1,1,NA,NA,NA,NA,NA,NA,NA,NA,NA,NA,NA,NA,NA,NA,NA,NA,NA,NA,NA,NA,NA,NA,NA,NA,NA,NA,NA,NA,NA,NA,NA,NA,NA,NA,NA,NA,NA,NA,NA,NA,NA,NA,NA,NA,NA,NA,NA,NA,NA,NA,NA,NA,NA,NA,NA,NA,NA,NA,NA,NA,NA,NA,NA,NA,NA,NA,NA
NA,NA,NA,NA,NA,NA,NA,NA,NA,NA,NA,SUPAMT10666,33LK57MYLZ4BM1KLVTSQ641L5CNSZS,FCACD793-2AEF-4C53-99D5-C7ADA7435FE1,0,2023-09-18_11h54.57.397,Pilot_VExplicitOC_RG_AMT,2022.2.5,Win32,22.1479037,NA,NA,NA,NA,NA,NA,NA,NA,NA,NA,NA,NA,NA,NA,happy,"unhappy, happy","less happy, more happy",NA,NA,64.58333333,4.0402,2.0247,NA,NA,NA,NA,NA,NA,NA,NA,NA,NA,NA,NA,NA,NA,NA,NA,NA,NA,NA,NA,NA,NA,NA,NA,NA,NA,0,0,0,0,1,NA,NA,NA,NA,NA,NA,NA,NA,NA,NA,NA,NA,NA,NA,NA,NA,NA,NA,NA,NA,NA,NA,NA,NA,NA,NA,NA,NA,NA,NA,NA,NA,NA,NA,NA,NA,NA,NA,NA,NA,NA,NA,NA,NA,NA,NA,NA,NA,NA,NA,NA,NA,NA,NA,NA,NA,NA,NA,NA,NA,NA,NA,NA,NA,NA,NA,NA
NA,NA,NA,NA,NA,NA,NA,NA,NA,NA,NA,SUPAMT10666,33LK57MYLZ4BM1KLVTSQ641L5CNSZS,FCACD793-2AEF-4C53-99D5-C7ADA7435FE1,0,2023-09-18_11h54.57.397,Pilot_VExplicitOC_RG_AMT,2022.2.5,Win32,22.1479037,NA,NA,NA,NA,NA,NA,NA,NA,NA,NA,NA,NA,NA,NA,frustrated,"frustrated, not frustrated","more frustrated, less frustrated",NA,NA,75,3.5216,2.0349,NA,NA,NA,NA,NA,NA,NA,NA,NA,NA,NA,NA,NA,NA,NA,NA,NA,NA,NA,NA,NA,NA,NA,NA,NA,NA,0,1,1,1,1,NA,NA,NA,NA,NA,NA,NA,NA,NA,NA,NA,NA,NA,NA,NA,NA,NA,NA,NA,NA,NA,NA,NA,NA,NA,NA,NA,NA,NA,NA,NA,NA,NA,NA,NA,NA,NA,NA,NA,NA,NA,NA,NA,NA,NA,NA,NA,NA,NA,NA,NA,NA,NA,NA,NA,NA,NA,NA,NA,NA,NA,NA,NA,NA,NA,NA,NA
NA,NA,NA,NA,NA,NA,NA,NA,NA,NA,NA,SUPAMT10666,33LK57MYLZ4BM1KLVTSQ641L5CNSZS,FCACD793-2AEF-4C53-99D5-C7ADA7435FE1,0,2023-09-18_11h54.57.397,Pilot_VExplicitOC_RG_AMT,2022.2.5,Win32,22.1479037,NA,NA,NA,NA,NA,NA,NA,NA,NA,NA,NA,NA,NA,NA,bored,"bored, not bored","more bored, less bored",NA,NA,65.88541667,3.5303,2.1246,NA,NA,NA,NA,NA,NA,NA,NA,NA,NA,NA,NA,NA,NA,NA,NA,NA,NA,NA,NA,NA,NA,NA,NA,NA,NA,0,2,2,2,1,NA,NA,NA,NA,NA,NA,NA,NA,NA,NA,NA,NA,NA,NA,NA,NA,NA,NA,NA,NA,NA,NA,NA,NA,NA,NA,NA,NA,NA,NA,NA,NA,NA,NA,NA,NA,NA,NA,NA,NA,NA,NA,NA,NA,NA,NA,NA,NA,NA,NA,NA,NA,NA,NA,NA,NA,NA,NA,NA,NA,NA,NA,NA,NA,NA,NA,NA
NA,NA,NA,NA,NA,NA,NA,NA,NA,NA,NA,SUPAMT10666,33LK57MYLZ4BM1KLVTSQ641L5CNSZS,FCACD793-2AEF-4C53-99D5-C7ADA7435FE1,0,2023-09-18_11h54.57.397,Pilot_VExplicitOC_RG_AMT,2022.2.5,Win32,22.1479037,NA,NA,NA,NA,NA,NA,NA,NA,NA,NA,NA,NA,NA,NA,happy,"unhappy, happy","less happy, more happy",NA,NA,68.75,3.3609,2.1025,NA,NA,NA,NA,NA,NA,NA,NA,NA,NA,NA,NA,NA,NA,NA,NA,NA,NA,NA,NA,NA,NA,NA,NA,NA,NA,0,0,0,0,1,NA,NA,NA,NA,NA,NA,NA,NA,NA,NA,NA,NA,NA,NA,NA,NA,NA,NA,NA,NA,NA,NA,NA,NA,NA,NA,NA,NA,NA,NA,NA,NA,NA,NA,NA,NA,NA,NA,NA,NA,NA,NA,NA,NA,NA,NA,NA,NA,NA,NA,NA,NA,NA,NA,NA,NA,NA,NA,NA,NA,NA,NA,NA,NA,NA,NA,NA
NA,NA,NA,NA,NA,NA,NA,NA,NA,NA,NA,SUPAMT10666,33LK57MYLZ4BM1KLVTSQ641L5CNSZS,FCACD793-2AEF-4C53-99D5-C7ADA7435FE1,0,2023-09-18_11h54.57.397,Pilot_VExplicitOC_RG_AMT,2022.2.5,Win32,22.1479037,NA,NA,NA,NA,NA,NA,NA,NA,NA,NA,NA,NA,NA,NA,bored,"bored, not bored","more bored, less bored",NA,NA,68.75,3.0617,2.0475,NA,NA,NA,NA,NA,NA,NA,NA,NA,NA,NA,NA,NA,NA,NA,NA,NA,NA,NA,NA,NA,NA,NA,NA,NA,NA,0,1,1,2,1,NA,NA,NA,NA,NA,NA,NA,NA,NA,NA,NA,NA,NA,NA,NA,NA,NA,NA,NA,NA,NA,NA,NA,NA,NA,NA,NA,NA,NA,NA,NA,NA,NA,NA,NA,NA,NA,NA,NA,NA,NA,NA,NA,NA,NA,NA,NA,NA,NA,NA,NA,NA,NA,NA,NA,NA,NA,NA,NA,NA,NA,NA,NA,NA,NA,NA,NA
NA,NA,NA,NA,NA,NA,NA,NA,NA,NA,NA,SUPAMT10666,33LK57MYLZ4BM1KLVTSQ641L5CNSZS,FCACD793-2AEF-4C53-99D5-C7ADA7435FE1,0,2023-09-18_11h54.57.397,Pilot_VExplicitOC_RG_AMT,2022.2.5,Win32,22.1479037,NA,NA,NA,NA,NA,NA,NA,NA,NA,NA,NA,NA,NA,NA,frustrated,"frustrated, not frustrated","more frustrated, less frustrated",NA,NA,68.75,3.0887,2.0142,NA,NA,NA,NA,NA,NA,NA,NA,NA,NA,NA,NA,NA,NA,NA,NA,NA,NA,NA,NA,NA,NA,NA,NA,NA,NA,0,2,2,1,1,NA,NA,NA,NA,NA,NA,NA,NA,NA,NA,NA,NA,NA,NA,NA,NA,NA,NA,NA,NA,NA,NA,NA,NA,NA,NA,NA,NA,NA,NA,NA,NA,NA,NA,NA,NA,NA,NA,NA,NA,NA,NA,NA,NA,NA,NA,NA,NA,NA,NA,NA,NA,NA,NA,NA,NA,NA,NA,NA,NA,NA,NA,NA,NA,NA,NA,NA
NA,NA,NA,NA,NA,NA,NA,NA,NA,NA,NA,SUPAMT10666,33LK57MYLZ4BM1KLVTSQ641L5CNSZS,FCACD793-2AEF-4C53-99D5-C7ADA7435FE1,0,2023-09-18_11h54.57.397,Pilot_VExplicitOC_RG_AMT,2022.2.5,Win32,22.1479037,NA,NA,NA,NA,NA,NA,NA,NA,NA,NA,NA,NA,NA,NA,happy,"unhappy, happy","less happy, more happy",NA,NA,66.66666667,3.2986,2.0494,NA,NA,NA,NA,NA,NA,NA,NA,NA,NA,NA,NA,NA,NA,NA,NA,NA,NA,NA,NA,NA,NA,NA,NA,NA,NA,0,0,0,0,1,NA,NA,NA,NA,NA,NA,NA,NA,NA,NA,NA,NA,NA,NA,NA,NA,NA,NA,NA,NA,NA,NA,NA,NA,NA,NA,NA,NA,NA,NA,NA,NA,NA,NA,NA,NA,NA,NA,NA,NA,NA,NA,NA,NA,NA,NA,NA,NA,NA,NA,NA,NA,NA,NA,NA,NA,NA,NA,NA,NA,NA,NA,NA,NA,NA,NA,NA
NA,NA,NA,NA,NA,NA,NA,NA,NA,NA,NA,SUPAMT10666,33LK57MYLZ4BM1KLVTSQ641L5CNSZS,FCACD793-2AEF-4C53-99D5-C7ADA7435FE1,0,2023-09-18_11h54.57.397,Pilot_VExplicitOC_RG_AMT,2022.2.5,Win32,22.1479037,NA,NA,NA,NA,NA,NA,NA,NA,NA,NA,NA,NA,NA,NA,bored,"bored, not bored","more bored, less bored",NA,NA,66.66666667,3.4815,2.1229,NA,NA,NA,NA,NA,NA,NA,NA,NA,NA,NA,NA,NA,NA,NA,NA,NA,NA,NA,NA,NA,NA,NA,NA,NA,NA,0,1,1,2,1,NA,NA,NA,NA,NA,NA,NA,NA,NA,NA,NA,NA,NA,NA,NA,NA,NA,NA,NA,NA,NA,NA,NA,NA,NA,NA,NA,NA,NA,NA,NA,NA,NA,NA,NA,NA,NA,NA,NA,NA,NA,NA,NA,NA,NA,NA,NA,NA,NA,NA,NA,NA,NA,NA,NA,NA,NA,NA,NA,NA,NA,NA,NA,NA,NA,NA,NA
NA,NA,NA,NA,NA,NA,NA,NA,NA,NA,NA,SUPAMT10666,33LK57MYLZ4BM1KLVTSQ641L5CNSZS,FCACD793-2AEF-4C53-99D5-C7ADA7435FE1,0,2023-09-18_11h54.57.397,Pilot_VExplicitOC_RG_AMT,2022.2.5,Win32,22.1479037,NA,NA,NA,NA,NA,NA,NA,NA,NA,NA,NA,NA,NA,NA,frustrated,"frustrated, not frustrated","more frustrated, less frustrated",NA,NA,66.66666667,2.9743,2.0516,NA,NA,NA,NA,NA,NA,NA,NA,NA,NA,NA,NA,NA,NA,NA,NA,NA,NA,NA,NA,NA,NA,NA,NA,NA,NA,0,2,2,1,1,NA,NA,NA,NA,NA,NA,NA,NA,NA,NA,NA,NA,NA,NA,NA,NA,NA,NA,NA,NA,NA,NA,NA,NA,NA,NA,NA,NA,NA,NA,NA,NA,NA,NA,NA,NA,NA,NA,NA,NA,NA,NA,NA,NA,NA,NA,NA,NA,NA,NA,NA,NA,NA,NA,NA,NA,NA,NA,NA,NA,NA,NA,NA,NA,NA,NA,NA
NA,NA,NA,NA,NA,NA,NA,NA,NA,NA,NA,SUPAMT10666,33LK57MYLZ4BM1KLVTSQ641L5CNSZS,FCACD793-2AEF-4C53-99D5-C7ADA7435FE1,0,2023-09-18_11h54.57.397,Pilot_VExplicitOC_RG_AMT,2022.2.5,Win32,22.1479037,NA,NA,NA,NA,NA,NA,NA,NA,NA,NA,NA,NA,NA,NA,bored,"bored, not bored","more bored, less bored",NA,NA,68.75,3.4532,2.0591,NA,NA,NA,NA,NA,NA,NA,NA,NA,NA,NA,NA,NA,NA,NA,NA,NA,NA,NA,NA,NA,NA,NA,NA,NA,NA,0,0,0,2,1,NA,NA,NA,NA,NA,NA,NA,NA,NA,NA,NA,NA,NA,NA,NA,NA,NA,NA,NA,NA,NA,NA,NA,NA,NA,NA,NA,NA,NA,NA,NA,NA,NA,NA,NA,NA,NA,NA,NA,NA,NA,NA,NA,NA,NA,NA,NA,NA,NA,NA,NA,NA,NA,NA,NA,NA,NA,NA,NA,NA,NA,NA,NA,NA,NA,NA,NA
NA,NA,NA,NA,NA,NA,NA,NA,NA,NA,NA,SUPAMT10666,33LK57MYLZ4BM1KLVTSQ641L5CNSZS,FCACD793-2AEF-4C53-99D5-C7ADA7435FE1,0,2023-09-18_11h54.57.397,Pilot_VExplicitOC_RG_AMT,2022.2.5,Win32,22.1479037,NA,NA,NA,NA,NA,NA,NA,NA,NA,NA,NA,NA,NA,NA,frustrated,"frustrated, not frustrated","more frustrated, less frustrated",NA,NA,64.32291667,3.318,2.0174,NA,NA,NA,NA,NA,NA,NA,NA,NA,NA,NA,NA,NA,NA,NA,NA,NA,NA,NA,NA,NA,NA,NA,NA,NA,NA,0,1,1,1,1,NA,NA,NA,NA,NA,NA,NA,NA,NA,NA,NA,NA,NA,NA,NA,NA,NA,NA,NA,NA,NA,NA,NA,NA,NA,NA,NA,NA,NA,NA,NA,NA,NA,NA,NA,NA,NA,NA,NA,NA,NA,NA,NA,NA,NA,NA,NA,NA,NA,NA,NA,NA,NA,NA,NA,NA,NA,NA,NA,NA,NA,NA,NA,NA,NA,NA,NA
NA,NA,NA,NA,NA,NA,NA,NA,NA,NA,NA,SUPAMT10666,33LK57MYLZ4BM1KLVTSQ641L5CNSZS,FCACD793-2AEF-4C53-99D5-C7ADA7435FE1,0,2023-09-18_11h54.57.397,Pilot_VExplicitOC_RG_AMT,2022.2.5,Win32,22.1479037,NA,NA,NA,NA,NA,NA,NA,NA,NA,NA,NA,NA,NA,NA,happy,"unhappy, happy","less happy, more happy",NA,NA,64.32291667,3.2218,2.082,NA,NA,NA,NA,NA,NA,NA,NA,NA,NA,NA,NA,NA,NA,NA,NA,NA,NA,NA,NA,NA,NA,NA,NA,NA,NA,0,2,2,0,1,NA,NA,NA,NA,NA,NA,NA,NA,NA,NA,NA,NA,NA,NA,NA,NA,NA,NA,NA,NA,NA,NA,NA,NA,NA,NA,NA,NA,NA,NA,NA,NA,NA,NA,NA,NA,NA,NA,NA,NA,NA,NA,NA,NA,NA,NA,NA,NA,NA,NA,NA,NA,NA,NA,NA,NA,NA,NA,NA,NA,NA,NA,NA,NA,NA,NA,NA
NA,NA,NA,NA,NA,NA,NA,NA,NA,NA,NA,SUPAMT10666,33LK57MYLZ4BM1KLVTSQ641L5CNSZS,FCACD793-2AEF-4C53-99D5-C7ADA7435FE1,0,2023-09-18_11h54.57.397,Pilot_VExplicitOC_RG_AMT,2022.2.5,Win32,22.1479037,NA,NA,NA,NA,NA,NA,NA,NA,NA,NA,NA,NA,NA,NA,happy,"unhappy, happy","less happy, more happy",NA,NA,69.01041667,3.5129,2.0319,NA,NA,NA,NA,NA,NA,NA,NA,NA,NA,NA,NA,NA,NA,NA,NA,NA,NA,NA,NA,NA,NA,NA,NA,NA,NA,0,0,0,0,1,NA,NA,NA,NA,NA,NA,NA,NA,NA,NA,NA,NA,NA,NA,NA,NA,NA,NA,NA,NA,NA,NA,NA,NA,NA,NA,NA,NA,NA,NA,NA,NA,NA,NA,NA,NA,NA,NA,NA,NA,NA,NA,NA,NA,NA,NA,NA,NA,NA,NA,NA,NA,NA,NA,NA,NA,NA,NA,NA,NA,NA,NA,NA,NA,NA,NA,NA
NA,NA,NA,NA,NA,NA,NA,NA,NA,NA,NA,SUPAMT10666,33LK57MYLZ4BM1KLVTSQ641L5CNSZS,FCACD793-2AEF-4C53-99D5-C7ADA7435FE1,0,2023-09-18_11h54.57.397,Pilot_VExplicitOC_RG_AMT,2022.2.5,Win32,22.1479037,NA,NA,NA,NA,NA,NA,NA,NA,NA,NA,NA,NA,NA,NA,bored,"bored, not bored","more bored, less bored",NA,NA,63.54166667,3.2452,2.1892,NA,NA,NA,NA,NA,NA,NA,NA,NA,NA,NA,NA,NA,NA,NA,NA,NA,NA,NA,NA,NA,NA,NA,NA,NA,NA,0,1,1,2,1,NA,NA,NA,NA,NA,NA,NA,NA,NA,NA,NA,NA,NA,NA,NA,NA,NA,NA,NA,NA,NA,NA,NA,NA,NA,NA,NA,NA,NA,NA,NA,NA,NA,NA,NA,NA,NA,NA,NA,NA,NA,NA,NA,NA,NA,NA,NA,NA,NA,NA,NA,NA,NA,NA,NA,NA,NA,NA,NA,NA,NA,NA,NA,NA,NA,NA,NA
NA,NA,NA,NA,NA,NA,NA,NA,NA,NA,NA,SUPAMT10666,33LK57MYLZ4BM1KLVTSQ641L5CNSZS,FCACD793-2AEF-4C53-99D5-C7ADA7435FE1,0,2023-09-18_11h54.57.397,Pilot_VExplicitOC_RG_AMT,2022.2.5,Win32,22.1479037,NA,NA,NA,NA,NA,NA,NA,NA,NA,NA,NA,NA,NA,NA,frustrated,"frustrated, not frustrated","more frustrated, less frustrated",NA,NA,65.10416667,3.0624,2.0417,NA,NA,NA,NA,NA,NA,NA,NA,NA,NA,NA,NA,NA,NA,NA,NA,NA,NA,NA,NA,NA,NA,NA,NA,NA,NA,0,2,2,1,1,NA,NA,NA,NA,NA,NA,NA,NA,NA,NA,NA,NA,NA,NA,NA,NA,NA,NA,NA,NA,NA,NA,NA,NA,NA,NA,NA,NA,NA,NA,NA,NA,NA,NA,NA,NA,NA,NA,NA,NA,NA,NA,NA,NA,NA,NA,NA,NA,NA,NA,NA,NA,NA,NA,NA,NA,NA,NA,NA,NA,NA,NA,NA,NA,NA,NA,NA
NA,NA,NA,NA,NA,NA,NA,NA,NA,NA,NA,SUPAMT10666,33LK57MYLZ4BM1KLVTSQ641L5CNSZS,FCACD793-2AEF-4C53-99D5-C7ADA7435FE1,0,2023-09-18_11h54.57.397,Pilot_VExplicitOC_RG_AMT,2022.2.5,Win32,22.1479037,NA,NA,NA,NA,NA,NA,NA,NA,NA,NA,NA,NA,NA,NA,bored,"bored, not bored","more bored, less bored",NA,NA,61.45833333,3.4252,2.1304,NA,NA,NA,NA,NA,NA,NA,NA,NA,NA,NA,NA,NA,NA,NA,NA,NA,NA,NA,NA,NA,NA,NA,NA,NA,NA,0,0,0,2,1,NA,NA,NA,NA,NA,NA,NA,NA,NA,NA,NA,NA,NA,NA,NA,NA,NA,NA,NA,NA,NA,NA,NA,NA,NA,NA,NA,NA,NA,NA,NA,NA,NA,NA,NA,NA,NA,NA,NA,NA,NA,NA,NA,NA,NA,NA,NA,NA,NA,NA,NA,NA,NA,NA,NA,NA,NA,NA,NA,NA,NA,NA,NA,NA,NA,NA,NA
NA,NA,NA,NA,NA,NA,NA,NA,NA,NA,NA,SUPAMT10666,33LK57MYLZ4BM1KLVTSQ641L5CNSZS,FCACD793-2AEF-4C53-99D5-C7ADA7435FE1,0,2023-09-18_11h54.57.397,Pilot_VExplicitOC_RG_AMT,2022.2.5,Win32,22.1479037,NA,NA,NA,NA,NA,NA,NA,NA,NA,NA,NA,NA,NA,NA,happy,"unhappy, happy","less happy, more happy",NA,NA,61.45833333,3.1176,2.0774,NA,NA,NA,NA,NA,NA,NA,NA,NA,NA,NA,NA,NA,NA,NA,NA,NA,NA,NA,NA,NA,NA,NA,NA,NA,NA,0,1,1,0,1,NA,NA,NA,NA,NA,NA,NA,NA,NA,NA,NA,NA,NA,NA,NA,NA,NA,NA,NA,NA,NA,NA,NA,NA,NA,NA,NA,NA,NA,NA,NA,NA,NA,NA,NA,NA,NA,NA,NA,NA,NA,NA,NA,NA,NA,NA,NA,NA,NA,NA,NA,NA,NA,NA,NA,NA,NA,NA,NA,NA,NA,NA,NA,NA,NA,NA,NA
NA,NA,NA,NA,NA,NA,NA,NA,NA,NA,NA,SUPAMT10666,33LK57MYLZ4BM1KLVTSQ641L5CNSZS,FCACD793-2AEF-4C53-99D5-C7ADA7435FE1,0,2023-09-18_11h54.57.397,Pilot_VExplicitOC_RG_AMT,2022.2.5,Win32,22.1479037,NA,NA,NA,NA,NA,NA,NA,NA,NA,NA,NA,NA,NA,NA,frustrated,"frustrated, not frustrated","more frustrated, less frustrated",NA,NA,61.45833333,3.1923,2.1224,NA,NA,NA,NA,NA,NA,NA,NA,NA,NA,NA,NA,NA,NA,NA,NA,NA,NA,NA,NA,NA,NA,NA,NA,NA,NA,0,2,2,1,1,NA,NA,NA,NA,NA,NA,NA,NA,NA,NA,NA,NA,NA,NA,NA,NA,NA,NA,NA,NA,NA,NA,NA,NA,NA,NA,NA,NA,NA,NA,NA,NA,NA,NA,NA,NA,NA,NA,NA,NA,NA,NA,NA,NA,NA,NA,NA,NA,NA,NA,NA,NA,NA,NA,NA,NA,NA,NA,NA,NA,NA,NA,NA,NA,NA,NA,NA
NA,NA,NA,NA,NA,NA,NA,NA,NA,NA,NA,SUPAMT10666,33LK57MYLZ4BM1KLVTSQ641L5CNSZS,FCACD793-2AEF-4C53-99D5-C7ADA7435FE1,0,2023-09-18_11h54.57.397,Pilot_VExplicitOC_RG_AMT,2022.2.5,Win32,22.1479037,NA,NA,NA,NA,NA,NA,NA,NA,NA,NA,NA,NA,NA,NA,happy,"unhappy, happy","less happy, more happy",NA,NA,60.15625,3.3512,2.0587,NA,NA,NA,NA,NA,NA,NA,NA,NA,NA,NA,NA,NA,NA,NA,NA,NA,NA,NA,NA,NA,NA,NA,NA,NA,NA,0,0,0,0,1,NA,NA,NA,NA,NA,NA,NA,NA,NA,NA,NA,NA,NA,NA,NA,NA,NA,NA,NA,NA,NA,NA,NA,NA,NA,NA,NA,NA,NA,NA,NA,NA,NA,NA,NA,NA,NA,NA,NA,NA,NA,NA,NA,NA,NA,NA,NA,NA,NA,NA,NA,NA,NA,NA,NA,NA,NA,NA,NA,NA,NA,NA,NA,NA,NA,NA,NA
NA,NA,NA,NA,NA,NA,NA,NA,NA,NA,NA,SUPAMT10666,33LK57MYLZ4BM1KLVTSQ641L5CNSZS,FCACD793-2AEF-4C53-99D5-C7ADA7435FE1,0,2023-09-18_11h54.57.397,Pilot_VExplicitOC_RG_AMT,2022.2.5,Win32,22.1479037,NA,NA,NA,NA,NA,NA,NA,NA,NA,NA,NA,NA,NA,NA,bored,"bored, not bored","more bored, less bored",NA,NA,60.15625,3.1096,2.0386,NA,NA,NA,NA,NA,NA,NA,NA,NA,NA,NA,NA,NA,NA,NA,NA,NA,NA,NA,NA,NA,NA,NA,NA,NA,NA,0,1,1,2,1,NA,NA,NA,NA,NA,NA,NA,NA,NA,NA,NA,NA,NA,NA,NA,NA,NA,NA,NA,NA,NA,NA,NA,NA,NA,NA,NA,NA,NA,NA,NA,NA,NA,NA,NA,NA,NA,NA,NA,NA,NA,NA,NA,NA,NA,NA,NA,NA,NA,NA,NA,NA,NA,NA,NA,NA,NA,NA,NA,NA,NA,NA,NA,NA,NA,NA,NA
NA,NA,NA,NA,NA,NA,NA,NA,NA,NA,NA,SUPAMT10666,33LK57MYLZ4BM1KLVTSQ641L5CNSZS,FCACD793-2AEF-4C53-99D5-C7ADA7435FE1,0,2023-09-18_11h54.57.397,Pilot_VExplicitOC_RG_AMT,2022.2.5,Win32,22.1479037,NA,NA,NA,NA,NA,NA,NA,NA,NA,NA,NA,NA,NA,NA,frustrated,"frustrated, not frustrated","more frustrated, less frustrated",NA,NA,60.15625,3.2273,2.0412,NA,NA,NA,NA,NA,NA,NA,NA,NA,NA,NA,NA,NA,NA,NA,NA,NA,NA,NA,NA,NA,NA,NA,NA,NA,NA,0,2,2,1,1,NA,NA,NA,NA,NA,NA,NA,NA,NA,NA,NA,NA,NA,NA,NA,NA,NA,NA,NA,NA,NA,NA,NA,NA,NA,NA,NA,NA,NA,NA,NA,NA,NA,NA,NA,NA,NA,NA,NA,NA,NA,NA,NA,NA,NA,NA,NA,NA,NA,NA,NA,NA,NA,NA,NA,NA,NA,NA,NA,NA,NA,NA,NA,NA,NA,NA,NA
NA,NA,NA,NA,NA,NA,NA,NA,NA,NA,NA,SUPAMT10666,33LK57MYLZ4BM1KLVTSQ641L5CNSZS,FCACD793-2AEF-4C53-99D5-C7ADA7435FE1,0,2023-09-18_11h54.57.397,Pilot_VExplicitOC_RG_AMT,2022.2.5,Win32,22.1479037,NA,NA,NA,NA,NA,NA,NA,NA,NA,NA,NA,NA,NA,NA,bored,"bored, not bored","more bored, less bored",NA,NA,64.58333333,3.4888,2.0289,NA,NA,NA,NA,NA,NA,NA,NA,NA,NA,NA,NA,NA,NA,NA,NA,NA,NA,NA,NA,NA,NA,NA,NA,NA,NA,0,0,0,2,1,NA,NA,NA,NA,NA,NA,NA,NA,NA,NA,NA,NA,NA,NA,NA,NA,NA,NA,NA,NA,NA,NA,NA,NA,NA,NA,NA,NA,NA,NA,NA,NA,NA,NA,NA,NA,NA,NA,NA,NA,NA,NA,NA,NA,NA,NA,NA,NA,NA,NA,NA,NA,NA,NA,NA,NA,NA,NA,NA,NA,NA,NA,NA,NA,NA,NA,NA
NA,NA,NA,NA,NA,NA,NA,NA,NA,NA,NA,SUPAMT10666,33LK57MYLZ4BM1KLVTSQ641L5CNSZS,FCACD793-2AEF-4C53-99D5-C7ADA7435FE1,0,2023-09-18_11h54.57.397,Pilot_VExplicitOC_RG_AMT,2022.2.5,Win32,22.1479037,NA,NA,NA,NA,NA,NA,NA,NA,NA,NA,NA,NA,NA,NA,frustrated,"frustrated, not frustrated","more frustrated, less frustrated",NA,NA,64.58333333,2.9525,2.021,NA,NA,NA,NA,NA,NA,NA,NA,NA,NA,NA,NA,NA,NA,NA,NA,NA,NA,NA,NA,NA,NA,NA,NA,NA,NA,0,1,1,1,1,NA,NA,NA,NA,NA,NA,NA,NA,NA,NA,NA,NA,NA,NA,NA,NA,NA,NA,NA,NA,NA,NA,NA,NA,NA,NA,NA,NA,NA,NA,NA,NA,NA,NA,NA,NA,NA,NA,NA,NA,NA,NA,NA,NA,NA,NA,NA,NA,NA,NA,NA,NA,NA,NA,NA,NA,NA,NA,NA,NA,NA,NA,NA,NA,NA,NA,NA
NA,NA,NA,NA,NA,NA,NA,NA,NA,NA,NA,SUPAMT10666,33LK57MYLZ4BM1KLVTSQ641L5CNSZS,FCACD793-2AEF-4C53-99D5-C7ADA7435FE1,0,2023-09-18_11h54.57.397,Pilot_VExplicitOC_RG_AMT,2022.2.5,Win32,22.1479037,NA,NA,NA,NA,NA,NA,NA,NA,NA,NA,NA,NA,NA,NA,happy,"unhappy, happy","less happy, more happy",NA,NA,64.58333333,3.0704,2.0173,NA,NA,NA,NA,NA,NA,NA,NA,NA,NA,NA,NA,NA,NA,NA,NA,NA,NA,NA,NA,NA,NA,NA,NA,NA,NA,0,2,2,0,1,NA,NA,NA,NA,NA,NA,NA,NA,NA,NA,NA,NA,NA,NA,NA,NA,NA,NA,NA,NA,NA,NA,NA,NA,NA,NA,NA,NA,NA,NA,NA,NA,NA,NA,NA,NA,NA,NA,NA,NA,NA,NA,NA,NA,NA,NA,NA,NA,NA,NA,NA,NA,NA,NA,NA,NA,NA,NA,NA,NA,NA,NA,NA,NA,NA,NA,NA
NA,NA,NA,NA,NA,NA,NA,NA,NA,NA,NA,SUPAMT10666,33LK57MYLZ4BM1KLVTSQ641L5CNSZS,FCACD793-2AEF-4C53-99D5-C7ADA7435FE1,0,2023-09-18_11h54.57.397,Pilot_VExplicitOC_RG_AMT,2022.2.5,Win32,22.1479037,NA,NA,NA,NA,NA,NA,NA,NA,NA,NA,NA,NA,NA,NA,bored,"bored, not bored","more bored, less bored",NA,NA,61.97916667,3.2736,2.0679,NA,NA,NA,NA,NA,NA,NA,NA,NA,NA,NA,NA,NA,NA,NA,NA,NA,NA,NA,NA,NA,NA,NA,NA,NA,NA,0,0,0,2,1,NA,NA,NA,NA,NA,NA,NA,NA,NA,NA,NA,NA,NA,NA,NA,NA,NA,NA,NA,NA,NA,NA,NA,NA,NA,NA,NA,NA,NA,NA,NA,NA,NA,NA,NA,NA,NA,NA,NA,NA,NA,NA,NA,NA,NA,NA,NA,NA,NA,NA,NA,NA,NA,NA,NA,NA,NA,NA,NA,NA,NA,NA,NA,NA,NA,NA,NA
NA,NA,NA,NA,NA,NA,NA,NA,NA,NA,NA,SUPAMT10666,33LK57MYLZ4BM1KLVTSQ641L5CNSZS,FCACD793-2AEF-4C53-99D5-C7ADA7435FE1,0,2023-09-18_11h54.57.397,Pilot_VExplicitOC_RG_AMT,2022.2.5,Win32,22.1479037,NA,NA,NA,NA,NA,NA,NA,NA,NA,NA,NA,NA,NA,NA,happy,"unhappy, happy","less happy, more happy",NA,NA,61.97916667,4.0722,2.0424,NA,NA,NA,NA,NA,NA,NA,NA,NA,NA,NA,NA,NA,NA,NA,NA,NA,NA,NA,NA,NA,NA,NA,NA,NA,NA,0,1,1,0,1,NA,NA,NA,NA,NA,NA,NA,NA,NA,NA,NA,NA,NA,NA,NA,NA,NA,NA,NA,NA,NA,NA,NA,NA,NA,NA,NA,NA,NA,NA,NA,NA,NA,NA,NA,NA,NA,NA,NA,NA,NA,NA,NA,NA,NA,NA,NA,NA,NA,NA,NA,NA,NA,NA,NA,NA,NA,NA,NA,NA,NA,NA,NA,NA,NA,NA,NA
NA,NA,NA,NA,NA,NA,NA,NA,NA,NA,NA,SUPAMT10666,33LK57MYLZ4BM1KLVTSQ641L5CNSZS,FCACD793-2AEF-4C53-99D5-C7ADA7435FE1,0,2023-09-18_11h54.57.397,Pilot_VExplicitOC_RG_AMT,2022.2.5,Win32,22.1479037,NA,NA,NA,NA,NA,NA,NA,NA,NA,NA,NA,NA,NA,NA,frustrated,"frustrated, not frustrated","more frustrated, less frustrated",NA,NA,61.97916667,3.0622,2.1358,NA,NA,NA,NA,NA,NA,NA,NA,NA,NA,NA,NA,NA,NA,NA,NA,NA,NA,NA,NA,NA,NA,NA,NA,NA,NA,0,2,2,1,1,NA,NA,NA,NA,NA,NA,NA,NA,NA,NA,NA,NA,NA,NA,NA,NA,NA,NA,NA,NA,NA,NA,NA,NA,NA,NA,NA,NA,NA,NA,NA,NA,NA,NA,NA,NA,NA,NA,NA,NA,NA,NA,NA,NA,NA,NA,NA,NA,NA,NA,NA,NA,NA,NA,NA,NA,NA,NA,NA,NA,NA,NA,NA,NA,NA,NA,NA
NA,NA,NA,NA,NA,NA,NA,NA,NA,NA,NA,SUPAMT10666,33LK57MYLZ4BM1KLVTSQ641L5CNSZS,FCACD793-2AEF-4C53-99D5-C7ADA7435FE1,0,2023-09-18_11h54.57.397,Pilot_VExplicitOC_RG_AMT,2022.2.5,Win32,22.1479037,NA,NA,NA,NA,NA,NA,NA,NA,NA,NA,NA,NA,NA,NA,bored,"bored, not bored","more bored, less bored",NA,NA,59.11458333,3.2816,2.0132,NA,NA,NA,NA,NA,NA,NA,NA,NA,NA,NA,NA,NA,NA,NA,NA,NA,NA,NA,NA,NA,NA,NA,NA,NA,NA,0,0,0,2,1,NA,NA,NA,NA,NA,NA,NA,NA,NA,NA,NA,NA,NA,NA,NA,NA,NA,NA,NA,NA,NA,NA,NA,NA,NA,NA,NA,NA,NA,NA,NA,NA,NA,NA,NA,NA,NA,NA,NA,NA,NA,NA,NA,NA,NA,NA,NA,NA,NA,NA,NA,NA,NA,NA,NA,NA,NA,NA,NA,NA,NA,NA,NA,NA,NA,NA,NA
NA,NA,NA,NA,NA,NA,NA,NA,NA,NA,NA,SUPAMT10666,33LK57MYLZ4BM1KLVTSQ641L5CNSZS,FCACD793-2AEF-4C53-99D5-C7ADA7435FE1,0,2023-09-18_11h54.57.397,Pilot_VExplicitOC_RG_AMT,2022.2.5,Win32,22.1479037,NA,NA,NA,NA,NA,NA,NA,NA,NA,NA,NA,NA,NA,NA,frustrated,"frustrated, not frustrated","more frustrated, less frustrated",NA,NA,59.11458333,3.3211,2.0626,NA,NA,NA,NA,NA,NA,NA,NA,NA,NA,NA,NA,NA,NA,NA,NA,NA,NA,NA,NA,NA,NA,NA,NA,NA,NA,0,1,1,1,1,NA,NA,NA,NA,NA,NA,NA,NA,NA,NA,NA,NA,NA,NA,NA,NA,NA,NA,NA,NA,NA,NA,NA,NA,NA,NA,NA,NA,NA,NA,NA,NA,NA,NA,NA,NA,NA,NA,NA,NA,NA,NA,NA,NA,NA,NA,NA,NA,NA,NA,NA,NA,NA,NA,NA,NA,NA,NA,NA,NA,NA,NA,NA,NA,NA,NA,NA
NA,NA,NA,NA,NA,NA,NA,NA,NA,NA,NA,SUPAMT10666,33LK57MYLZ4BM1KLVTSQ641L5CNSZS,FCACD793-2AEF-4C53-99D5-C7ADA7435FE1,0,2023-09-18_11h54.57.397,Pilot_VExplicitOC_RG_AMT,2022.2.5,Win32,22.1479037,NA,NA,NA,NA,NA,NA,NA,NA,NA,NA,NA,NA,NA,NA,happy,"unhappy, happy","less happy, more happy",NA,NA,59.11458333,3.0075,2.1036,NA,NA,NA,NA,NA,NA,NA,NA,NA,NA,NA,NA,NA,NA,NA,NA,NA,NA,NA,NA,NA,NA,NA,NA,NA,NA,0,2,2,0,1,NA,NA,NA,NA,NA,NA,NA,NA,NA,NA,NA,NA,NA,NA,NA,NA,NA,NA,NA,NA,NA,NA,NA,NA,NA,NA,NA,NA,NA,NA,NA,NA,NA,NA,NA,NA,NA,NA,NA,NA,NA,NA,NA,NA,NA,NA,NA,NA,NA,NA,NA,NA,NA,NA,NA,NA,NA,NA,NA,NA,NA,NA,NA,NA,NA,NA,NA
NA,NA,NA,NA,NA,NA,NA,NA,NA,NA,NA,SUPAMT10666,33LK57MYLZ4BM1KLVTSQ641L5CNSZS,FCACD793-2AEF-4C53-99D5-C7ADA7435FE1,0,2023-09-18_11h54.57.397,Pilot_VExplicitOC_RG_AMT,2022.2.5,Win32,22.1479037,NA,NA,NA,NA,NA,NA,NA,NA,NA,NA,NA,NA,NA,NA,frustrated,"frustrated, not frustrated","more frustrated, less frustrated",NA,NA,59.11458333,3.2332,2.1011,0,0,0,1,1,NA,NA,NA,NA,NA,NA,NA,NA,NA,NA,NA,NA,NA,NA,NA,NA,NA,NA,NA,NA,NA,NA,NA,NA,NA,NA,NA,NA,NA,NA,NA,NA,NA,NA,NA,NA,NA,NA,NA,NA,NA,NA,NA,NA,NA,NA,NA,NA,NA,NA,NA,NA,NA,NA,NA,NA,NA,NA,NA,NA,NA,NA,NA,NA,NA,NA,NA,NA,NA,NA,NA,NA,NA,NA,NA,NA,NA,NA,NA,NA,NA,NA,NA,NA,NA,NA,NA,NA,NA,NA,NA,NA,NA
NA,NA,NA,NA,NA,NA,NA,NA,NA,NA,NA,SUPAMT10666,33LK57MYLZ4BM1KLVTSQ641L5CNSZS,FCACD793-2AEF-4C53-99D5-C7ADA7435FE1,0,2023-09-18_11h54.57.397,Pilot_VExplicitOC_RG_AMT,2022.2.5,Win32,22.1479037,NA,NA,NA,NA,NA,NA,NA,NA,NA,NA,NA,NA,NA,NA,happy,"unhappy, happy","less happy, more happy",NA,NA,59.11458333,3.3657,2.0812,0,1,1,0,1,NA,NA,NA,NA,NA,NA,NA,NA,NA,NA,NA,NA,NA,NA,NA,NA,NA,NA,NA,NA,NA,NA,NA,NA,NA,NA,NA,NA,NA,NA,NA,NA,NA,NA,NA,NA,NA,NA,NA,NA,NA,NA,NA,NA,NA,NA,NA,NA,NA,NA,NA,NA,NA,NA,NA,NA,NA,NA,NA,NA,NA,NA,NA,NA,NA,NA,NA,NA,NA,NA,NA,NA,NA,NA,NA,NA,NA,NA,NA,NA,NA,NA,NA,NA,NA,NA,NA,NA,NA,NA,NA,NA,NA
NA,NA,NA,NA,NA,NA,NA,NA,NA,NA,NA,SUPAMT10666,33LK57MYLZ4BM1KLVTSQ641L5CNSZS,FCACD793-2AEF-4C53-99D5-C7ADA7435FE1,0,2023-09-18_11h54.57.397,Pilot_VExplicitOC_RG_AMT,2022.2.5,Win32,22.1479037,NA,NA,NA,NA,NA,NA,NA,NA,NA,NA,NA,NA,NA,NA,bored,"bored, not bored","more bored, less bored",NA,NA,59.11458333,3.2036,2.111,0,2,2,2,1,NA,NA,NA,NA,NA,NA,NA,NA,NA,NA,NA,NA,NA,NA,NA,NA,NA,NA,NA,NA,NA,NA,NA,NA,NA,NA,NA,NA,NA,NA,NA,NA,NA,NA,NA,NA,NA,NA,NA,NA,NA,NA,NA,NA,NA,NA,NA,NA,NA,NA,NA,NA,NA,NA,NA,NA,NA,NA,NA,NA,NA,NA,NA,NA,NA,NA,NA,NA,NA,NA,NA,NA,NA,NA,NA,NA,NA,NA,NA,NA,NA,NA,NA,NA,NA,NA,NA,NA,NA,NA,NA,NA,NA
NA,NA,NA,NA,NA,NA,NA,NA,NA,NA,NA,SUPAMT10666,33LK57MYLZ4BM1KLVTSQ641L5CNSZS,FCACD793-2AEF-4C53-99D5-C7ADA7435FE1,0,2023-09-18_11h54.57.397,Pilot_VExplicitOC_RG_AMT,2022.2.5,Win32,22.1479037,NA,NA,NA,NA,NA,NA,NA,NA,NA,NA,NA,NA,NA,NA,NA,NA,NA,NA,NA,NA,NA,NA,NA,NA,NA,NA,NA,NA,NA,NA,NA,NA,NA,NA,NA,NA,NA,NA,NA,NA,NA,NA,NA,NA,NA,NA,NA,NA,NA,NA,NA,NA,NA,space,340.3036,70.05208333,2.2949,0,0,0,0,1,gambling game,011.png,NA,NA,NA,NA,NA,NA,NA,NA,NA,NA,NA,NA,NA,NA,NA,NA,NA,NA,NA,NA,NA,NA,NA,NA,NA,NA,NA,NA,NA,NA,NA,NA,NA,NA,NA,NA,NA,NA,NA,NA,NA,NA,NA,NA,NA,NA,NA,NA,NA,NA,NA,NA,NA,NA,NA,NA
NA,NA,NA,NA,NA,NA,NA,NA,NA,NA,NA,SUPAMT10666,33LK57MYLZ4BM1KLVTSQ641L5CNSZS,FCACD793-2AEF-4C53-99D5-C7ADA7435FE1,0,2023-09-18_11h54.57.397,Pilot_VExplicitOC_RG_AMT,2022.2.5,Win32,22.1479037,NA,NA,NA,NA,NA,NA,NA,NA,NA,NA,NA,NA,NA,NA,NA,NA,NA,NA,NA,NA,NA,NA,NA,NA,NA,NA,NA,NA,NA,NA,NA,NA,NA,NA,NA,NA,NA,NA,NA,NA,NA,NA,NA,NA,NA,NA,NA,NA,NA,NA,NA,NA,NA,NA,NA,59.89583333,1.0897,0,1,1,1,1,stand up,002.png,NA,NA,NA,NA,NA,NA,NA,NA,NA,NA,NA,NA,NA,NA,NA,NA,NA,NA,NA,NA,NA,NA,NA,NA,NA,NA,NA,NA,NA,NA,NA,NA,NA,NA,NA,NA,NA,NA,NA,NA,NA,NA,NA,NA,NA,NA,NA,NA,NA,NA,NA,NA,NA,NA,NA,NA
NA,NA,NA,NA,NA,NA,NA,NA,NA,NA,NA,SUPAMT10666,33LK57MYLZ4BM1KLVTSQ641L5CNSZS,FCACD793-2AEF-4C53-99D5-C7ADA7435FE1,0,2023-09-18_11h54.57.397,Pilot_VExplicitOC_RG_AMT,2022.2.5,Win32,22.1479037,NA,NA,NA,NA,NA,NA,NA,NA,NA,NA,NA,NA,NA,NA,NA,NA,NA,NA,NA,NA,NA,NA,NA,NA,NA,NA,NA,NA,NA,NA,NA,NA,NA,NA,NA,NA,NA,NA,NA,NA,NA,NA,NA,NA,NA,NA,NA,NA,NA,NA,NA,NA,NA,NA,NA,59.89583333,0.9233,0,2,2,2,1,stretch,003.png,NA,NA,NA,NA,NA,NA,NA,NA,NA,NA,NA,NA,NA,NA,NA,NA,NA,NA,NA,NA,NA,NA,NA,NA,NA,NA,NA,NA,NA,NA,NA,NA,NA,NA,NA,NA,NA,NA,NA,NA,NA,NA,NA,NA,NA,NA,NA,NA,NA,NA,NA,NA,NA,NA,NA,NA
NA,NA,NA,NA,NA,NA,NA,NA,NA,NA,NA,SUPAMT10666,33LK57MYLZ4BM1KLVTSQ641L5CNSZS,FCACD793-2AEF-4C53-99D5-C7ADA7435FE1,0,2023-09-18_11h54.57.397,Pilot_VExplicitOC_RG_AMT,2022.2.5,Win32,22.1479037,NA,NA,NA,NA,NA,NA,NA,NA,NA,NA,NA,NA,NA,NA,NA,NA,NA,NA,NA,NA,NA,NA,NA,NA,NA,NA,NA,NA,NA,NA,NA,NA,NA,NA,NA,NA,NA,NA,NA,NA,NA,NA,NA,NA,NA,NA,NA,NA,NA,NA,NA,NA,NA,NA,NA,59.89583333,0.6391,0,3,3,3,1,make a drink,004.png,NA,NA,NA,NA,NA,NA,NA,NA,NA,NA,NA,NA,NA,NA,NA,NA,NA,NA,NA,NA,NA,NA,NA,NA,NA,NA,NA,NA,NA,NA,NA,NA,NA,NA,NA,NA,NA,NA,NA,NA,NA,NA,NA,NA,NA,NA,NA,NA,NA,NA,NA,NA,NA,NA,NA,NA
NA,NA,NA,NA,NA,NA,NA,NA,NA,NA,NA,SUPAMT10666,33LK57MYLZ4BM1KLVTSQ641L5CNSZS,FCACD793-2AEF-4C53-99D5-C7ADA7435FE1,0,2023-09-18_11h54.57.397,Pilot_VExplicitOC_RG_AMT,2022.2.5,Win32,22.1479037,NA,NA,NA,NA,NA,NA,NA,NA,NA,NA,NA,NA,NA,NA,NA,NA,NA,NA,NA,NA,NA,NA,NA,NA,NA,NA,NA,NA,NA,NA,NA,NA,NA,NA,NA,NA,NA,NA,NA,NA,NA,NA,NA,NA,NA,NA,NA,NA,NA,NA,NA,NA,NA,NA,NA,59.89583333,0.6905,0,4,4,4,1,scroll social media,005.png,NA,NA,NA,NA,NA,NA,NA,NA,NA,NA,NA,NA,NA,NA,NA,NA,NA,NA,NA,NA,NA,NA,NA,NA,NA,NA,NA,NA,NA,NA,NA,NA,NA,NA,NA,NA,NA,NA,NA,NA,NA,NA,NA,NA,NA,NA,NA,NA,NA,NA,NA,NA,NA,NA,NA,NA
NA,NA,NA,NA,NA,NA,NA,NA,NA,NA,NA,SUPAMT10666,33LK57MYLZ4BM1KLVTSQ641L5CNSZS,FCACD793-2AEF-4C53-99D5-C7ADA7435FE1,0,2023-09-18_11h54.57.397,Pilot_VExplicitOC_RG_AMT,2022.2.5,Win32,22.1479037,NA,NA,NA,NA,NA,NA,NA,NA,NA,NA,NA,NA,NA,NA,NA,NA,NA,NA,NA,NA,NA,NA,NA,NA,NA,NA,NA,NA,NA,NA,NA,NA,NA,NA,NA,NA,NA,NA,NA,NA,NA,NA,NA,NA,NA,NA,NA,NA,NA,NA,NA,NA,NA,NA,NA,59.89583333,1.2583,0,5,5,5,1,listen to music,006.png,NA,NA,NA,NA,NA,NA,NA,NA,NA,NA,NA,NA,NA,NA,NA,NA,NA,NA,NA,NA,NA,NA,NA,NA,NA,NA,NA,NA,NA,NA,NA,NA,NA,NA,NA,NA,NA,NA,NA,NA,NA,NA,NA,NA,NA,NA,NA,NA,NA,NA,NA,NA,NA,NA,NA,NA
NA,NA,NA,NA,NA,NA,NA,NA,NA,NA,NA,SUPAMT10666,33LK57MYLZ4BM1KLVTSQ641L5CNSZS,FCACD793-2AEF-4C53-99D5-C7ADA7435FE1,0,2023-09-18_11h54.57.397,Pilot_VExplicitOC_RG_AMT,2022.2.5,Win32,22.1479037,NA,NA,NA,NA,NA,NA,NA,NA,NA,NA,NA,NA,NA,NA,NA,NA,NA,NA,NA,NA,NA,NA,NA,NA,NA,NA,NA,NA,NA,NA,NA,NA,NA,NA,NA,NA,NA,NA,NA,NA,NA,NA,NA,NA,NA,NA,NA,NA,NA,NA,NA,NA,NA,NA,NA,59.89583333,0.9634,0,6,6,6,1,daydream,007.png,NA,NA,NA,NA,NA,NA,NA,NA,NA,NA,NA,NA,NA,NA,NA,NA,NA,NA,NA,NA,NA,NA,NA,NA,NA,NA,NA,NA,NA,NA,NA,NA,NA,NA,NA,NA,NA,NA,NA,NA,NA,NA,NA,NA,NA,NA,NA,NA,NA,NA,NA,NA,NA,NA,NA,NA
NA,NA,NA,NA,NA,NA,NA,NA,NA,NA,NA,SUPAMT10666,33LK57MYLZ4BM1KLVTSQ641L5CNSZS,FCACD793-2AEF-4C53-99D5-C7ADA7435FE1,0,2023-09-18_11h54.57.397,Pilot_VExplicitOC_RG_AMT,2022.2.5,Win32,22.1479037,NA,NA,NA,NA,NA,NA,NA,NA,NA,NA,NA,NA,NA,NA,NA,NA,NA,NA,NA,NA,NA,NA,NA,NA,NA,NA,NA,NA,NA,NA,NA,NA,NA,NA,NA,NA,NA,NA,NA,NA,NA,NA,NA,NA,NA,NA,NA,NA,NA,NA,NA,NA,NA,NA,NA,59.89583333,1.2902,0,7,7,7,1,watch a short animation,008.png,NA,NA,NA,NA,NA,NA,NA,NA,NA,NA,NA,NA,NA,NA,NA,NA,NA,NA,NA,NA,NA,NA,NA,NA,NA,NA,NA,NA,NA,NA,NA,NA,NA,NA,NA,NA,NA,NA,NA,NA,NA,NA,NA,NA,NA,NA,NA,NA,NA,NA,NA,NA,NA,NA,NA,NA
NA,NA,NA,NA,NA,NA,NA,NA,NA,NA,NA,SUPAMT10666,33LK57MYLZ4BM1KLVTSQ641L5CNSZS,FCACD793-2AEF-4C53-99D5-C7ADA7435FE1,0,2023-09-18_11h54.57.397,Pilot_VExplicitOC_RG_AMT,2022.2.5,Win32,22.1479037,NA,NA,NA,NA,NA,NA,NA,NA,NA,NA,NA,NA,NA,NA,NA,NA,NA,NA,NA,NA,NA,NA,NA,NA,NA,NA,NA,NA,NA,NA,NA,NA,NA,NA,NA,NA,NA,NA,NA,NA,NA,NA,NA,NA,NA,NA,NA,NA,NA,NA,NA,NA,NA,NA,NA,59.89583333,1.0834,0,8,8,8,1,read a novel,009.png,NA,NA,NA,NA,NA,NA,NA,NA,NA,NA,NA,NA,NA,NA,NA,NA,NA,NA,NA,NA,NA,NA,NA,NA,NA,NA,NA,NA,NA,NA,NA,NA,NA,NA,NA,NA,NA,NA,NA,NA,NA,NA,NA,NA,NA,NA,NA,NA,NA,NA,NA,NA,NA,NA,NA,NA
NA,NA,NA,NA,NA,NA,NA,NA,NA,NA,NA,SUPAMT10666,33LK57MYLZ4BM1KLVTSQ641L5CNSZS,FCACD793-2AEF-4C53-99D5-C7ADA7435FE1,0,2023-09-18_11h54.57.397,Pilot_VExplicitOC_RG_AMT,2022.2.5,Win32,22.1479037,NA,NA,NA,NA,NA,NA,NA,NA,NA,NA,NA,NA,NA,NA,NA,NA,NA,NA,NA,NA,NA,NA,NA,NA,NA,NA,NA,NA,NA,NA,NA,NA,NA,NA,NA,NA,NA,NA,NA,NA,NA,NA,NA,NA,NA,NA,NA,NA,NA,NA,NA,NA,NA,NA,NA,59.89583333,1.1302,0,9,9,9,1,read the news,010.png,NA,NA,NA,NA,NA,NA,NA,NA,NA,NA,NA,NA,NA,NA,NA,NA,NA,NA,NA,NA,NA,NA,NA,NA,NA,NA,NA,NA,NA,NA,NA,NA,NA,NA,NA,NA,NA,NA,NA,NA,NA,NA,NA,NA,NA,NA,NA,NA,NA,NA,NA,NA,NA,NA,NA,NA
NA,NA,NA,NA,NA,NA,NA,NA,NA,NA,NA,SUPAMT10666,33LK57MYLZ4BM1KLVTSQ641L5CNSZS,FCACD793-2AEF-4C53-99D5-C7ADA7435FE1,0,2023-09-18_11h54.57.397,Pilot_VExplicitOC_RG_AMT,2022.2.5,Win32,22.1479037,NA,NA,NA,NA,NA,NA,NA,NA,NA,NA,NA,NA,NA,NA,NA,NA,NA,NA,NA,NA,NA,NA,NA,NA,NA,NA,NA,NA,NA,NA,NA,NA,NA,NA,NA,NA,NA,NA,NA,NA,NA,NA,NA,NA,NA,NA,NA,NA,NA,NA,NA,NA,NA,NA,NA,59.89583333,1.1103,0,10,10,10,1,rest (looking at a fixed cross),001.png,NA,NA,NA,NA,NA,NA,NA,NA,NA,NA,NA,NA,NA,NA,NA,NA,NA,NA,NA,NA,NA,NA,NA,NA,NA,NA,NA,NA,NA,NA,NA,NA,NA,NA,NA,NA,NA,NA,NA,NA,NA,NA,NA,NA,NA,NA,NA,NA,NA,NA,NA,NA,NA,NA,NA,NA
NA,NA,NA,NA,NA,NA,NA,NA,NA,NA,NA,SUPAMT10666,33LK57MYLZ4BM1KLVTSQ641L5CNSZS,FCACD793-2AEF-4C53-99D5-C7ADA7435FE1,0,2023-09-18_11h54.57.397,Pilot_VExplicitOC_RG_AMT,2022.2.5,Win32,22.1479037,NA,NA,NA,NA,NA,NA,NA,NA,NA,NA,NA,NA,NA,NA,bored,"bored, not bored","more bored, less bored",NA,NA,69.53125,3.8425,2.0452,NA,NA,NA,NA,NA,NA,NA,NA,NA,NA,NA,NA,NA,NA,NA,NA,NA,NA,NA,NA,NA,NA,NA,NA,NA,NA,NA,NA,NA,NA,NA,NA,NA,NA,NA,NA,NA,NA,NA,NA,NA,NA,stand up,0,0,0,2,1,NA,NA,NA,NA,NA,NA,NA,NA,NA,NA,NA,NA,NA,NA,NA,NA,NA,NA,NA,NA,NA,NA,NA,NA,NA,NA,NA,NA,NA,NA,NA,NA,NA,NA,NA,NA,NA,NA,NA,NA,NA,NA,NA,NA,NA,NA,NA,NA,NA,NA
NA,NA,NA,NA,NA,NA,NA,NA,NA,NA,NA,SUPAMT10666,33LK57MYLZ4BM1KLVTSQ641L5CNSZS,FCACD793-2AEF-4C53-99D5-C7ADA7435FE1,0,2023-09-18_11h54.57.397,Pilot_VExplicitOC_RG_AMT,2022.2.5,Win32,22.1479037,NA,NA,NA,NA,NA,NA,NA,NA,NA,NA,NA,NA,NA,NA,frustrated,"frustrated, not frustrated","more frustrated, less frustrated",NA,NA,69.27083333,3.2137,2.0339,NA,NA,NA,NA,NA,NA,NA,NA,NA,NA,NA,NA,NA,NA,NA,NA,NA,NA,NA,NA,NA,NA,NA,NA,NA,NA,NA,NA,NA,NA,NA,NA,NA,NA,NA,NA,NA,NA,NA,NA,NA,NA,NA,0,1,1,1,1,NA,NA,NA,NA,NA,NA,NA,NA,NA,NA,NA,NA,NA,NA,NA,NA,NA,NA,NA,NA,NA,NA,NA,NA,NA,NA,NA,NA,NA,NA,NA,NA,NA,NA,NA,NA,NA,NA,NA,NA,NA,NA,NA,NA,NA,NA,NA,NA,NA,NA
NA,NA,NA,NA,NA,NA,NA,NA,NA,NA,NA,SUPAMT10666,33LK57MYLZ4BM1KLVTSQ641L5CNSZS,FCACD793-2AEF-4C53-99D5-C7ADA7435FE1,0,2023-09-18_11h54.57.397,Pilot_VExplicitOC_RG_AMT,2022.2.5,Win32,22.1479037,NA,NA,NA,NA,NA,NA,NA,NA,NA,NA,NA,NA,NA,NA,happy,"unhappy, happy","less happy, more happy",NA,NA,70.3125,3.9954,2.0546,NA,NA,NA,NA,NA,NA,NA,NA,NA,NA,NA,NA,NA,NA,NA,NA,NA,NA,NA,NA,NA,NA,NA,NA,NA,NA,NA,NA,NA,NA,NA,NA,NA,NA,NA,NA,NA,NA,NA,NA,NA,NA,NA,0,2,2,0,1,NA,NA,NA,NA,NA,NA,NA,NA,NA,NA,NA,NA,NA,NA,NA,NA,NA,NA,NA,NA,NA,NA,NA,NA,NA,NA,NA,NA,NA,NA,NA,NA,NA,NA,NA,NA,NA,NA,NA,NA,NA,NA,NA,NA,NA,NA,NA,NA,NA,NA
NA,NA,NA,NA,NA,NA,NA,NA,NA,NA,NA,SUPAMT10666,33LK57MYLZ4BM1KLVTSQ641L5CNSZS,FCACD793-2AEF-4C53-99D5-C7ADA7435FE1,0,2023-09-18_11h54.57.397,Pilot_VExplicitOC_RG_AMT,2022.2.5,Win32,22.1479037,NA,NA,NA,NA,NA,NA,NA,NA,NA,NA,NA,NA,NA,NA,NA,NA,NA,NA,NA,NA,NA,NA,NA,NA,NA,NA,NA,NA,NA,NA,NA,NA,NA,NA,NA,NA,NA,NA,NA,NA,NA,NA,NA,NA,NA,NA,NA,NA,NA,NA,NA,NA,NA,NA,NA,NA,NA,NA,NA,NA,NA,NA,NA,NA,NA,NA,NA,NA,NA,NA,space,6.3623,0,0,0,0,1,7,black.png,"In the next part of the task, you will play a gambling game where you can win money by earning points according to your choices. You will decide whether to gamble a number of points or stick with a guaranteed number of points. 
Make your choice by pressing the left or right arrow key once. An example of one trial is shown on the next screen.",NA,NA,NA,NA,NA,NA,NA,NA,NA,NA,NA,NA,NA,NA,NA,NA,NA,NA,NA,NA,NA,NA,NA,NA,NA,NA,NA,NA,NA,NA,NA,NA,NA,NA,NA,NA,NA,NA,NA,NA
NA,NA,NA,NA,NA,NA,NA,NA,NA,NA,NA,SUPAMT10666,33LK57MYLZ4BM1KLVTSQ641L5CNSZS,FCACD793-2AEF-4C53-99D5-C7ADA7435FE1,0,2023-09-18_11h54.57.397,Pilot_VExplicitOC_RG_AMT,2022.2.5,Win32,22.1479037,NA,NA,NA,NA,NA,NA,NA,NA,NA,NA,NA,NA,NA,NA,NA,NA,NA,NA,NA,NA,NA,NA,NA,NA,NA,NA,NA,NA,NA,NA,NA,NA,NA,NA,NA,NA,NA,NA,NA,NA,NA,NA,NA,NA,NA,NA,NA,NA,NA,NA,NA,NA,NA,NA,NA,NA,NA,NA,NA,NA,NA,NA,NA,NA,NA,NA,NA,NA,NA,NA,space,82.7372,0,1,1,1,1,8,example_start.png,"The GAMBLING OPTION will be shown on the RIGHT SIDE. 
Select this option using the RIGHT ARROW KEY on your keyboard.",NA,NA,NA,NA,NA,NA,NA,NA,NA,NA,NA,NA,NA,NA,NA,NA,NA,NA,NA,NA,NA,NA,NA,NA,NA,NA,NA,NA,NA,NA,NA,NA,NA,NA,NA,NA,NA,NA,NA,NA
NA,NA,NA,NA,NA,NA,NA,NA,NA,NA,NA,SUPAMT10666,33LK57MYLZ4BM1KLVTSQ641L5CNSZS,FCACD793-2AEF-4C53-99D5-C7ADA7435FE1,0,2023-09-18_11h54.57.397,Pilot_VExplicitOC_RG_AMT,2022.2.5,Win32,22.1479037,NA,NA,NA,NA,NA,NA,NA,NA,NA,NA,NA,NA,NA,NA,NA,NA,NA,NA,NA,NA,NA,NA,NA,NA,NA,NA,NA,NA,NA,NA,NA,NA,NA,NA,NA,NA,NA,NA,NA,NA,NA,NA,NA,NA,NA,NA,NA,NA,NA,NA,NA,NA,NA,NA,NA,NA,NA,NA,NA,NA,NA,NA,NA,NA,NA,NA,NA,NA,NA,NA,space,2.8876,0,2,2,2,1,9,example_gamble.png,"Once you select the gambling choice, the choice you made will remain on the screen.",NA,NA,NA,NA,NA,NA,NA,NA,NA,NA,NA,NA,NA,NA,NA,NA,NA,NA,NA,NA,NA,NA,NA,NA,NA,NA,NA,NA,NA,NA,NA,NA,NA,NA,NA,NA,NA,NA,NA,NA
NA,NA,NA,NA,NA,NA,NA,NA,NA,NA,NA,SUPAMT10666,33LK57MYLZ4BM1KLVTSQ641L5CNSZS,FCACD793-2AEF-4C53-99D5-C7ADA7435FE1,0,2023-09-18_11h54.57.397,Pilot_VExplicitOC_RG_AMT,2022.2.5,Win32,22.1479037,NA,NA,NA,NA,NA,NA,NA,NA,NA,NA,NA,NA,NA,NA,NA,NA,NA,NA,NA,NA,NA,NA,NA,NA,NA,NA,NA,NA,NA,NA,NA,NA,NA,NA,NA,NA,NA,NA,NA,NA,NA,NA,NA,NA,NA,NA,NA,NA,NA,NA,NA,NA,NA,NA,NA,NA,NA,NA,NA,NA,NA,NA,NA,NA,NA,NA,NA,NA,NA,NA,space,1.9395,0,3,3,3,1,10,example_win.png,"The outcome you received will then be shown on the screen. In this example , you WON 10 points.",NA,NA,NA,NA,NA,NA,NA,NA,NA,NA,NA,NA,NA,NA,NA,NA,NA,NA,NA,NA,NA,NA,NA,NA,NA,NA,NA,NA,NA,NA,NA,NA,NA,NA,NA,NA,NA,NA,NA,NA
NA,NA,NA,NA,NA,NA,NA,NA,NA,NA,NA,SUPAMT10666,33LK57MYLZ4BM1KLVTSQ641L5CNSZS,FCACD793-2AEF-4C53-99D5-C7ADA7435FE1,0,2023-09-18_11h54.57.397,Pilot_VExplicitOC_RG_AMT,2022.2.5,Win32,22.1479037,NA,NA,NA,NA,NA,NA,NA,NA,NA,NA,NA,NA,NA,NA,NA,NA,NA,NA,NA,NA,NA,NA,NA,NA,NA,NA,NA,NA,NA,NA,NA,NA,NA,NA,NA,NA,NA,NA,NA,NA,NA,NA,NA,NA,NA,NA,NA,NA,NA,NA,NA,NA,NA,NA,NA,NA,NA,NA,NA,NA,NA,NA,NA,NA,NA,NA,NA,NA,NA,NA,space,3.9497,0,4,4,4,1,11,example_start.png,"The GUARANTEED OPTION will be shown on the LEFT SIDE. You are 100% guaranteed to gain or lose this amount. In this example, you have a 100% chance of winning 1 point. Select this option using the LEFT ARROW KEY on your keyboard.",NA,NA,NA,NA,NA,NA,NA,NA,NA,NA,NA,NA,NA,NA,NA,NA,NA,NA,NA,NA,NA,NA,NA,NA,NA,NA,NA,NA,NA,NA,NA,NA,NA,NA,NA,NA,NA,NA,NA,NA
NA,NA,NA,NA,NA,NA,NA,NA,NA,NA,NA,SUPAMT10666,33LK57MYLZ4BM1KLVTSQ641L5CNSZS,FCACD793-2AEF-4C53-99D5-C7ADA7435FE1,0,2023-09-18_11h54.57.397,Pilot_VExplicitOC_RG_AMT,2022.2.5,Win32,22.1479037,NA,NA,NA,NA,NA,NA,NA,NA,NA,NA,NA,NA,NA,NA,NA,NA,NA,NA,NA,NA,NA,NA,NA,NA,NA,NA,NA,NA,NA,NA,NA,NA,NA,NA,NA,NA,NA,NA,NA,NA,NA,NA,NA,NA,NA,NA,NA,NA,NA,NA,NA,NA,NA,NA,NA,NA,NA,NA,NA,NA,NA,NA,NA,NA,NA,NA,NA,NA,NA,NA,space,0.9855,0,5,5,5,1,12,example_certain.png,"Once you select the guaranteed choice, your selection will remain on the screen.",NA,NA,NA,NA,NA,NA,NA,NA,NA,NA,NA,NA,NA,NA,NA,NA,NA,NA,NA,NA,NA,NA,NA,NA,NA,NA,NA,NA,NA,NA,NA,NA,NA,NA,NA,NA,NA,NA,NA,NA
NA,NA,NA,NA,NA,NA,NA,NA,NA,NA,NA,SUPAMT10666,33LK57MYLZ4BM1KLVTSQ641L5CNSZS,FCACD793-2AEF-4C53-99D5-C7ADA7435FE1,0,2023-09-18_11h54.57.397,Pilot_VExplicitOC_RG_AMT,2022.2.5,Win32,22.1479037,NA,NA,NA,NA,NA,NA,NA,NA,NA,NA,NA,NA,NA,NA,NA,NA,NA,NA,NA,NA,NA,NA,NA,NA,NA,NA,NA,NA,NA,NA,NA,NA,NA,NA,NA,NA,NA,NA,NA,NA,NA,NA,NA,NA,NA,NA,NA,NA,NA,NA,NA,NA,NA,NA,NA,NA,NA,NA,NA,NA,NA,NA,NA,NA,NA,NA,NA,NA,NA,NA,space,2.4026,0,6,6,6,1,13,black.png,Please make your choices as fast as possible.,NA,NA,NA,NA,NA,NA,NA,NA,NA,NA,NA,NA,NA,NA,NA,NA,NA,NA,NA,NA,NA,NA,NA,NA,NA,NA,NA,NA,NA,NA,NA,NA,NA,NA,NA,NA,NA,NA,NA,NA
NA,NA,NA,NA,NA,NA,NA,NA,NA,NA,NA,SUPAMT10666,33LK57MYLZ4BM1KLVTSQ641L5CNSZS,FCACD793-2AEF-4C53-99D5-C7ADA7435FE1,0,2023-09-18_11h54.57.397,Pilot_VExplicitOC_RG_AMT,2022.2.5,Win32,22.1479037,NA,NA,NA,NA,NA,NA,NA,NA,NA,NA,NA,NA,NA,NA,NA,NA,NA,NA,NA,NA,NA,NA,NA,NA,NA,NA,NA,NA,NA,NA,NA,NA,NA,NA,NA,NA,NA,NA,NA,NA,NA,NA,NA,NA,NA,NA,NA,NA,NA,NA,NA,NA,NA,NA,NA,NA,NA,NA,NA,NA,NA,NA,NA,NA,NA,NA,NA,NA,NA,NA,space,3.8861,0,7,7,7,1,14,black.png,"You will again be asked to rate your mood *at that moment* once in a while. 
Use your mouse to move the slider dot to the position that represents how you are feeling.
Let's play!",NA,NA,NA,NA,NA,NA,NA,NA,NA,NA,NA,NA,NA,NA,NA,NA,NA,NA,NA,NA,NA,NA,NA,NA,NA,NA,NA,NA,NA,NA,NA,NA,NA,NA,NA,NA,NA,NA,NA,NA
NA,NA,NA,NA,NA,NA,NA,NA,NA,NA,NA,SUPAMT10666,33LK57MYLZ4BM1KLVTSQ641L5CNSZS,FCACD793-2AEF-4C53-99D5-C7ADA7435FE1,0,2023-09-18_11h54.57.397,Pilot_VExplicitOC_RG_AMT,2022.2.5,Win32,22.1479037,NA,NA,NA,NA,NA,NA,NA,NA,NA,NA,NA,NA,NA,NA,NA,NA,NA,NA,NA,NA,NA,NA,NA,NA,NA,NA,NA,NA,NA,NA,NA,NA,NA,NA,NA,NA,NA,NA,NA,NA,NA,NA,NA,NA,NA,NA,NA,NA,NA,NA,NA,NA,NA,NA,NA,NA,NA,NA,NA,NA,NA,NA,NA,NA,NA,NA,NA,NA,NA,NA,NA,NA,NA,NA,NA,NA,NA,NA,NA,NA,0,0,0,0,1,NA,NA,NA,NA,NA,NA,NA,NA,NA,NA,NA,NA,NA,NA,NA,NA,NA,NA,NA,NA,NA,NA,NA,NA,NA,NA,NA,NA,NA,NA,NA,NA,NA,NA,NA
NA,NA,NA,NA,NA,NA,NA,NA,NA,NA,NA,SUPAMT10666,33LK57MYLZ4BM1KLVTSQ641L5CNSZS,FCACD793-2AEF-4C53-99D5-C7ADA7435FE1,0,2023-09-18_11h54.57.397,Pilot_VExplicitOC_RG_AMT,2022.2.5,Win32,22.1479037,NA,NA,NA,NA,NA,NA,NA,NA,NA,NA,NA,NA,NA,NA,frustrated,"frustrated, not frustrated","more frustrated, less frustrated",NA,NA,60.41666667,3.6649,2.028,NA,NA,NA,NA,NA,NA,NA,NA,NA,NA,NA,NA,NA,NA,NA,NA,NA,NA,NA,NA,NA,NA,NA,NA,NA,NA,NA,NA,NA,NA,NA,NA,NA,NA,NA,NA,NA,NA,NA,NA,NA,NA,NA,NA,NA,NA,NA,NA,NA,NA,NA,NA,NA,NA,NA,NA,NA,NA,NA,NA,NA,NA,NA,random,FALSE,FALSE,FALSE,0.5,0,0,-2.257871668,1.9,-0.357871668,0.394752221,gamble,lose,-0.357871668,-0.357871668,right,1.5754,0,0,0,1,1,NA,NA,NA,NA,NA,NA,NA,NA,NA,NA,NA,NA,NA
NA,NA,NA,NA,NA,NA,NA,NA,NA,NA,NA,SUPAMT10666,33LK57MYLZ4BM1KLVTSQ641L5CNSZS,FCACD793-2AEF-4C53-99D5-C7ADA7435FE1,0,2023-09-18_11h54.57.397,Pilot_VExplicitOC_RG_AMT,2022.2.5,Win32,22.1479037,NA,NA,NA,NA,NA,NA,NA,NA,NA,NA,NA,NA,NA,NA,happy,"unhappy, happy","less happy, more happy",NA,NA,61.71875,3.2185,2.0638,NA,NA,NA,NA,NA,NA,NA,NA,NA,NA,NA,NA,NA,NA,NA,NA,NA,NA,NA,NA,NA,NA,NA,NA,NA,NA,NA,NA,NA,NA,NA,NA,NA,NA,NA,NA,NA,NA,NA,NA,NA,NA,NA,NA,NA,NA,NA,NA,NA,NA,NA,NA,NA,NA,NA,NA,NA,NA,NA,NA,NA,NA,NA,NA,NA,NA,NA,NA,NA,NA,NA,NA,NA,NA,NA,NA,NA,NA,NA,NA,0,1,1,0,1,NA,NA,NA,NA,NA,NA,NA,NA,NA,NA,NA,NA,NA
NA,NA,NA,NA,NA,NA,NA,NA,NA,NA,NA,SUPAMT10666,33LK57MYLZ4BM1KLVTSQ641L5CNSZS,FCACD793-2AEF-4C53-99D5-C7ADA7435FE1,0,2023-09-18_11h54.57.397,Pilot_VExplicitOC_RG_AMT,2022.2.5,Win32,22.1479037,NA,NA,NA,NA,NA,NA,NA,NA,NA,NA,NA,NA,NA,NA,bored,"bored, not bored","more bored, less bored",NA,NA,64.58333333,3.1201,2.0695,NA,NA,NA,NA,NA,NA,NA,NA,NA,NA,NA,NA,NA,NA,NA,NA,NA,NA,NA,NA,NA,NA,NA,NA,NA,NA,NA,NA,NA,NA,NA,NA,NA,NA,NA,NA,NA,NA,NA,NA,NA,NA,NA,NA,NA,NA,NA,NA,NA,NA,NA,NA,NA,NA,NA,NA,NA,NA,NA,NA,NA,NA,NA,NA,NA,NA,NA,NA,NA,NA,NA,NA,NA,NA,NA,NA,NA,NA,NA,NA,0,2,2,2,1,NA,NA,NA,NA,NA,NA,NA,NA,NA,NA,NA,NA,NA
NA,NA,NA,NA,NA,NA,NA,NA,NA,NA,NA,SUPAMT10666,33LK57MYLZ4BM1KLVTSQ641L5CNSZS,FCACD793-2AEF-4C53-99D5-C7ADA7435FE1,0,2023-09-18_11h54.57.397,Pilot_VExplicitOC_RG_AMT,2022.2.5,Win32,22.1479037,NA,NA,NA,NA,NA,NA,NA,NA,NA,NA,NA,NA,NA,NA,NA,NA,NA,NA,NA,NA,NA,NA,NA,NA,NA,NA,NA,NA,NA,NA,NA,NA,NA,NA,NA,NA,NA,NA,NA,NA,NA,NA,NA,NA,NA,NA,NA,NA,NA,NA,NA,NA,NA,NA,NA,NA,NA,NA,NA,NA,NA,NA,NA,NA,NA,NA,NA,NA,NA,NA,NA,NA,NA,NA,NA,NA,NA,NA,NA,NA,NA,NA,NA,NA,NA,NA,NA,NA,NA,NA,NA,NA,NA,NA,NA,NA,NA,NA,NA,NA,NA,NA,NA,NA,NA,NA,NA,0,0,0,24,1,1.9,NA,NA,NA,NA,NA,NA,NA
NA,NA,NA,NA,NA,NA,NA,NA,NA,NA,NA,SUPAMT10666,33LK57MYLZ4BM1KLVTSQ641L5CNSZS,FCACD793-2AEF-4C53-99D5-C7ADA7435FE1,0,2023-09-18_11h54.57.397,Pilot_VExplicitOC_RG_AMT,2022.2.5,Win32,22.1479037,NA,NA,NA,NA,NA,NA,NA,NA,NA,NA,NA,NA,NA,NA,NA,NA,NA,NA,NA,NA,NA,NA,NA,NA,NA,NA,NA,NA,NA,NA,NA,NA,NA,NA,NA,NA,NA,NA,NA,NA,NA,NA,NA,NA,NA,NA,NA,NA,NA,NA,NA,NA,NA,NA,NA,NA,NA,NA,NA,NA,NA,NA,NA,NA,NA,NA,NA,NA,NA,NA,NA,NA,NA,NA,NA,NA,NA,NA,NA,NA,NA,NA,NA,NA,NA,random,FALSE,FALSE,FALSE,0.5,0,0,2.629762106,1.829762106,-0.8,0.076587369,gamble,win,1.829762106,1.471890438,right,1.2878,NA,NA,NA,NA,NA,0,1,1,5,1,-0.8,NA,NA,NA,NA,NA,NA,NA
NA,NA,NA,NA,NA,NA,NA,NA,NA,NA,NA,SUPAMT10666,33LK57MYLZ4BM1KLVTSQ641L5CNSZS,FCACD793-2AEF-4C53-99D5-C7ADA7435FE1,0,2023-09-18_11h54.57.397,Pilot_VExplicitOC_RG_AMT,2022.2.5,Win32,22.1479037,NA,NA,NA,NA,NA,NA,NA,NA,NA,NA,NA,NA,NA,NA,frustrated,"frustrated, not frustrated","more frustrated, less frustrated",NA,NA,61.97916667,3.6749,2.0389,NA,NA,NA,NA,NA,NA,NA,NA,NA,NA,NA,NA,NA,NA,NA,NA,NA,NA,NA,NA,NA,NA,NA,NA,NA,NA,NA,NA,NA,NA,NA,NA,NA,NA,NA,NA,NA,NA,NA,NA,NA,NA,NA,NA,NA,NA,NA,NA,NA,NA,NA,NA,NA,NA,NA,NA,NA,NA,NA,NA,NA,NA,NA,random,FALSE,FALSE,FALSE,0.5,0,0,1.4243842,1.6243842,0.2,0.674794733,gamble,win,1.6243842,3.096274638,right,1.3046,0,0,0,1,1,NA,NA,NA,NA,NA,NA,NA,NA,NA,NA,NA,NA,NA
NA,NA,NA,NA,NA,NA,NA,NA,NA,NA,NA,SUPAMT10666,33LK57MYLZ4BM1KLVTSQ641L5CNSZS,FCACD793-2AEF-4C53-99D5-C7ADA7435FE1,0,2023-09-18_11h54.57.397,Pilot_VExplicitOC_RG_AMT,2022.2.5,Win32,22.1479037,NA,NA,NA,NA,NA,NA,NA,NA,NA,NA,NA,NA,NA,NA,bored,"bored, not bored","more bored, less bored",NA,NA,61.97916667,3.1183,2.042,NA,NA,NA,NA,NA,NA,NA,NA,NA,NA,NA,NA,NA,NA,NA,NA,NA,NA,NA,NA,NA,NA,NA,NA,NA,NA,NA,NA,NA,NA,NA,NA,NA,NA,NA,NA,NA,NA,NA,NA,NA,NA,NA,NA,NA,NA,NA,NA,NA,NA,NA,NA,NA,NA,NA,NA,NA,NA,NA,NA,NA,NA,NA,NA,NA,NA,NA,NA,NA,NA,NA,NA,NA,NA,NA,NA,NA,NA,NA,NA,0,1,1,2,1,NA,NA,NA,NA,NA,NA,NA,NA,NA,NA,NA,NA,NA
NA,NA,NA,NA,NA,NA,NA,NA,NA,NA,NA,SUPAMT10666,33LK57MYLZ4BM1KLVTSQ641L5CNSZS,FCACD793-2AEF-4C53-99D5-C7ADA7435FE1,0,2023-09-18_11h54.57.397,Pilot_VExplicitOC_RG_AMT,2022.2.5,Win32,22.1479037,NA,NA,NA,NA,NA,NA,NA,NA,NA,NA,NA,NA,NA,NA,happy,"unhappy, happy","less happy, more happy",NA,NA,61.97916667,3.0707,2.0171,NA,NA,NA,NA,NA,NA,NA,NA,NA,NA,NA,NA,NA,NA,NA,NA,NA,NA,NA,NA,NA,NA,NA,NA,NA,NA,NA,NA,NA,NA,NA,NA,NA,NA,NA,NA,NA,NA,NA,NA,NA,NA,NA,NA,NA,NA,NA,NA,NA,NA,NA,NA,NA,NA,NA,NA,NA,NA,NA,NA,NA,NA,NA,NA,NA,NA,NA,NA,NA,NA,NA,NA,NA,NA,NA,NA,NA,NA,NA,NA,0,2,2,0,1,NA,NA,NA,NA,NA,NA,NA,NA,NA,NA,NA,NA,NA
NA,NA,NA,NA,NA,NA,NA,NA,NA,NA,NA,SUPAMT10666,33LK57MYLZ4BM1KLVTSQ641L5CNSZS,FCACD793-2AEF-4C53-99D5-C7ADA7435FE1,0,2023-09-18_11h54.57.397,Pilot_VExplicitOC_RG_AMT,2022.2.5,Win32,22.1479037,NA,NA,NA,NA,NA,NA,NA,NA,NA,NA,NA,NA,NA,NA,NA,NA,NA,NA,NA,NA,NA,NA,NA,NA,NA,NA,NA,NA,NA,NA,NA,NA,NA,NA,NA,NA,NA,NA,NA,NA,NA,NA,NA,NA,NA,NA,NA,NA,NA,NA,NA,NA,NA,NA,NA,NA,NA,NA,NA,NA,NA,NA,NA,NA,NA,NA,NA,NA,NA,NA,NA,NA,NA,NA,NA,NA,NA,NA,NA,NA,NA,NA,NA,NA,NA,NA,NA,NA,NA,NA,NA,NA,NA,NA,NA,NA,NA,NA,NA,NA,NA,NA,NA,NA,NA,NA,NA,0,2,2,8,1,0.2,NA,NA,NA,NA,NA,NA,NA
NA,NA,NA,NA,NA,NA,NA,NA,NA,NA,NA,SUPAMT10666,33LK57MYLZ4BM1KLVTSQ641L5CNSZS,FCACD793-2AEF-4C53-99D5-C7ADA7435FE1,0,2023-09-18_11h54.57.397,Pilot_VExplicitOC_RG_AMT,2022.2.5,Win32,22.1479037,NA,NA,NA,NA,NA,NA,NA,NA,NA,NA,NA,NA,NA,NA,NA,NA,NA,NA,NA,NA,NA,NA,NA,NA,NA,NA,NA,NA,NA,NA,NA,NA,NA,NA,NA,NA,NA,NA,NA,NA,NA,NA,NA,NA,NA,NA,NA,NA,NA,NA,NA,NA,NA,NA,NA,NA,NA,NA,NA,NA,NA,NA,NA,NA,NA,NA,NA,NA,NA,NA,NA,NA,NA,NA,NA,NA,NA,NA,NA,NA,NA,NA,NA,NA,NA,random,FALSE,FALSE,FALSE,0.5,0,0,2.64029303,3.74029303,1.1,1.980097677,gamble,win,3.74029303,6.836567668,right,1.1713,NA,NA,NA,NA,NA,0,3,3,2,1,1.1,NA,NA,NA,NA,NA,NA,NA
NA,NA,NA,NA,NA,NA,NA,NA,NA,NA,NA,SUPAMT10666,33LK57MYLZ4BM1KLVTSQ641L5CNSZS,FCACD793-2AEF-4C53-99D5-C7ADA7435FE1,0,2023-09-18_11h54.57.397,Pilot_VExplicitOC_RG_AMT,2022.2.5,Win32,22.1479037,NA,NA,NA,NA,NA,NA,NA,NA,NA,NA,NA,NA,NA,NA,frustrated,"frustrated, not frustrated","more frustrated, less frustrated",NA,NA,72.91666667,3.8463,2.0483,NA,NA,NA,NA,NA,NA,NA,NA,NA,NA,NA,NA,NA,NA,NA,NA,NA,NA,NA,NA,NA,NA,NA,NA,NA,NA,NA,NA,NA,NA,NA,NA,NA,NA,NA,NA,NA,NA,NA,NA,NA,NA,NA,NA,NA,NA,NA,NA,NA,NA,NA,NA,NA,NA,NA,NA,NA,NA,NA,NA,NA,NA,NA,random,FALSE,FALSE,FALSE,0.5,0,0,-3.665427964,-0.2,-3.865427964,-2.643618643,gamble,lose,-3.865427964,2.971139704,right,1.9968,0,0,0,1,1,NA,NA,NA,NA,NA,NA,NA,NA,NA,NA,NA,NA,NA
NA,NA,NA,NA,NA,NA,NA,NA,NA,NA,NA,SUPAMT10666,33LK57MYLZ4BM1KLVTSQ641L5CNSZS,FCACD793-2AEF-4C53-99D5-C7ADA7435FE1,0,2023-09-18_11h54.57.397,Pilot_VExplicitOC_RG_AMT,2022.2.5,Win32,22.1479037,NA,NA,NA,NA,NA,NA,NA,NA,NA,NA,NA,NA,NA,NA,happy,"unhappy, happy","less happy, more happy",NA,NA,72.39583333,3.0139,2.113,NA,NA,NA,NA,NA,NA,NA,NA,NA,NA,NA,NA,NA,NA,NA,NA,NA,NA,NA,NA,NA,NA,NA,NA,NA,NA,NA,NA,NA,NA,NA,NA,NA,NA,NA,NA,NA,NA,NA,NA,NA,NA,NA,NA,NA,NA,NA,NA,NA,NA,NA,NA,NA,NA,NA,NA,NA,NA,NA,NA,NA,NA,NA,NA,NA,NA,NA,NA,NA,NA,NA,NA,NA,NA,NA,NA,NA,NA,NA,NA,0,1,1,0,1,NA,NA,NA,NA,NA,NA,NA,NA,NA,NA,NA,NA,NA
NA,NA,NA,NA,NA,NA,NA,NA,NA,NA,NA,SUPAMT10666,33LK57MYLZ4BM1KLVTSQ641L5CNSZS,FCACD793-2AEF-4C53-99D5-C7ADA7435FE1,0,2023-09-18_11h54.57.397,Pilot_VExplicitOC_RG_AMT,2022.2.5,Win32,22.1479037,NA,NA,NA,NA,NA,NA,NA,NA,NA,NA,NA,NA,NA,NA,bored,"bored, not bored","more bored, less bored",NA,NA,72.39583333,3.1785,2.1347,NA,NA,NA,NA,NA,NA,NA,NA,NA,NA,NA,NA,NA,NA,NA,NA,NA,NA,NA,NA,NA,NA,NA,NA,NA,NA,NA,NA,NA,NA,NA,NA,NA,NA,NA,NA,NA,NA,NA,NA,NA,NA,NA,NA,NA,NA,NA,NA,NA,NA,NA,NA,NA,NA,NA,NA,NA,NA,NA,NA,NA,NA,NA,NA,NA,NA,NA,NA,NA,NA,NA,NA,NA,NA,NA,NA,NA,NA,NA,NA,0,2,2,2,1,NA,NA,NA,NA,NA,NA,NA,NA,NA,NA,NA,NA,NA
NA,NA,NA,NA,NA,NA,NA,NA,NA,NA,NA,SUPAMT10666,33LK57MYLZ4BM1KLVTSQ641L5CNSZS,FCACD793-2AEF-4C53-99D5-C7ADA7435FE1,0,2023-09-18_11h54.57.397,Pilot_VExplicitOC_RG_AMT,2022.2.5,Win32,22.1479037,NA,NA,NA,NA,NA,NA,NA,NA,NA,NA,NA,NA,NA,NA,NA,NA,NA,NA,NA,NA,NA,NA,NA,NA,NA,NA,NA,NA,NA,NA,NA,NA,NA,NA,NA,NA,NA,NA,NA,NA,NA,NA,NA,NA,NA,NA,NA,NA,NA,NA,NA,NA,NA,NA,NA,NA,NA,NA,NA,NA,NA,NA,NA,NA,NA,NA,NA,NA,NA,NA,NA,NA,NA,NA,NA,NA,NA,NA,NA,NA,NA,NA,NA,NA,NA,NA,NA,NA,NA,NA,NA,NA,NA,NA,NA,NA,NA,NA,NA,NA,NA,NA,NA,NA,NA,NA,NA,0,4,4,21,1,-0.2,NA,NA,NA,NA,NA,NA,NA
NA,NA,NA,NA,NA,NA,NA,NA,NA,NA,NA,SUPAMT10666,33LK57MYLZ4BM1KLVTSQ641L5CNSZS,FCACD793-2AEF-4C53-99D5-C7ADA7435FE1,0,2023-09-18_11h54.57.397,Pilot_VExplicitOC_RG_AMT,2022.2.5,Win32,22.1479037,NA,NA,NA,NA,NA,NA,NA,NA,NA,NA,NA,NA,NA,NA,NA,NA,NA,NA,NA,NA,NA,NA,NA,NA,NA,NA,NA,NA,NA,NA,NA,NA,NA,NA,NA,NA,NA,NA,NA,NA,NA,NA,NA,NA,NA,NA,NA,NA,NA,NA,NA,NA,NA,NA,NA,NA,NA,NA,NA,NA,NA,NA,NA,NA,NA,NA,NA,NA,NA,NA,NA,NA,NA,NA,NA,NA,NA,NA,NA,NA,NA,NA,NA,NA,NA,random,FALSE,FALSE,TRUE,0.5,0,0,-3.376937122,3.3,-0.076937122,1.048708585,gamble,lose,-0.076937122,2.894202581,right,1.1331,NA,NA,NA,NA,NA,0,5,5,25,1,3.3,NA,NA,NA,NA,NA,NA,NA
NA,NA,NA,NA,NA,NA,NA,NA,NA,NA,NA,SUPAMT10666,33LK57MYLZ4BM1KLVTSQ641L5CNSZS,FCACD793-2AEF-4C53-99D5-C7ADA7435FE1,0,2023-09-18_11h54.57.397,Pilot_VExplicitOC_RG_AMT,2022.2.5,Win32,22.1479037,NA,NA,NA,NA,NA,NA,NA,NA,NA,NA,NA,NA,NA,NA,NA,NA,NA,NA,NA,NA,NA,NA,NA,NA,NA,NA,NA,NA,NA,NA,NA,NA,NA,NA,NA,NA,NA,NA,NA,NA,NA,NA,NA,NA,NA,NA,NA,NA,NA,NA,NA,NA,NA,NA,NA,NA,NA,NA,NA,NA,NA,NA,NA,NA,NA,NA,NA,NA,NA,NA,NA,NA,NA,NA,NA,NA,NA,NA,NA,NA,NA,NA,NA,NA,NA,random,FALSE,FALSE,FALSE,0.5,0,0,-4.307237684,-0.9,-5.207237684,-3.771491789,gamble,lose,-5.207237684,-2.313035103,NA,NA,NA,NA,NA,NA,NA,0,6,6,6,1,-0.9,NA,NA,NA,NA,NA,NA,NA
NA,NA,NA,NA,NA,NA,NA,NA,NA,NA,NA,SUPAMT10666,33LK57MYLZ4BM1KLVTSQ641L5CNSZS,FCACD793-2AEF-4C53-99D5-C7ADA7435FE1,0,2023-09-18_11h54.57.397,Pilot_VExplicitOC_RG_AMT,2022.2.5,Win32,22.1479037,NA,NA,NA,NA,NA,NA,NA,NA,NA,NA,NA,NA,NA,NA,happy,"unhappy, happy","less happy, more happy",NA,NA,57.03125,3.38,2.0729,NA,NA,NA,NA,NA,NA,NA,NA,NA,NA,NA,NA,NA,NA,NA,NA,NA,NA,NA,NA,NA,NA,NA,NA,NA,NA,NA,NA,NA,NA,NA,NA,NA,NA,NA,NA,NA,NA,NA,NA,NA,NA,NA,NA,NA,NA,NA,NA,NA,NA,NA,NA,NA,NA,NA,NA,NA,NA,NA,NA,NA,NA,NA,random,FALSE,FALSE,TRUE,0.5,0,0,1.513485175,-1.486514825,-3,-2.495504942,gamble,win,-1.486514825,-3.799549927,right,1.7536,0,0,0,0,1,NA,NA,NA,NA,NA,NA,NA,NA,NA,NA,NA,NA,NA
NA,NA,NA,NA,NA,NA,NA,NA,NA,NA,NA,SUPAMT10666,33LK57MYLZ4BM1KLVTSQ641L5CNSZS,FCACD793-2AEF-4C53-99D5-C7ADA7435FE1,0,2023-09-18_11h54.57.397,Pilot_VExplicitOC_RG_AMT,2022.2.5,Win32,22.1479037,NA,NA,NA,NA,NA,NA,NA,NA,NA,NA,NA,NA,NA,NA,frustrated,"frustrated, not frustrated","more frustrated, less frustrated",NA,NA,64.32291667,2.9996,2.0609,NA,NA,NA,NA,NA,NA,NA,NA,NA,NA,NA,NA,NA,NA,NA,NA,NA,NA,NA,NA,NA,NA,NA,NA,NA,NA,NA,NA,NA,NA,NA,NA,NA,NA,NA,NA,NA,NA,NA,NA,NA,NA,NA,NA,NA,NA,NA,NA,NA,NA,NA,NA,NA,NA,NA,NA,NA,NA,NA,NA,NA,NA,NA,NA,NA,NA,NA,NA,NA,NA,NA,NA,NA,NA,NA,NA,NA,NA,NA,NA,0,1,1,1,1,NA,NA,NA,NA,NA,NA,NA,NA,NA,NA,NA,NA,NA
NA,NA,NA,NA,NA,NA,NA,NA,NA,NA,NA,SUPAMT10666,33LK57MYLZ4BM1KLVTSQ641L5CNSZS,FCACD793-2AEF-4C53-99D5-C7ADA7435FE1,0,2023-09-18_11h54.57.397,Pilot_VExplicitOC_RG_AMT,2022.2.5,Win32,22.1479037,NA,NA,NA,NA,NA,NA,NA,NA,NA,NA,NA,NA,NA,NA,bored,"bored, not bored","more bored, less bored",NA,NA,64.32291667,3.1756,2.0956,NA,NA,NA,NA,NA,NA,NA,NA,NA,NA,NA,NA,NA,NA,NA,NA,NA,NA,NA,NA,NA,NA,NA,NA,NA,NA,NA,NA,NA,NA,NA,NA,NA,NA,NA,NA,NA,NA,NA,NA,NA,NA,NA,NA,NA,NA,NA,NA,NA,NA,NA,NA,NA,NA,NA,NA,NA,NA,NA,NA,NA,NA,NA,NA,NA,NA,NA,NA,NA,NA,NA,NA,NA,NA,NA,NA,NA,NA,NA,NA,0,2,2,2,1,NA,NA,NA,NA,NA,NA,NA,NA,NA,NA,NA,NA,NA
NA,NA,NA,NA,NA,NA,NA,NA,NA,NA,NA,SUPAMT10666,33LK57MYLZ4BM1KLVTSQ641L5CNSZS,FCACD793-2AEF-4C53-99D5-C7ADA7435FE1,0,2023-09-18_11h54.57.397,Pilot_VExplicitOC_RG_AMT,2022.2.5,Win32,22.1479037,NA,NA,NA,NA,NA,NA,NA,NA,NA,NA,NA,NA,NA,NA,NA,NA,NA,NA,NA,NA,NA,NA,NA,NA,NA,NA,NA,NA,NA,NA,NA,NA,NA,NA,NA,NA,NA,NA,NA,NA,NA,NA,NA,NA,NA,NA,NA,NA,NA,NA,NA,NA,NA,NA,NA,NA,NA,NA,NA,NA,NA,NA,NA,NA,NA,NA,NA,NA,NA,NA,NA,NA,NA,NA,NA,NA,NA,NA,NA,NA,NA,NA,NA,NA,NA,NA,NA,NA,NA,NA,NA,NA,NA,NA,NA,NA,NA,NA,NA,NA,NA,NA,NA,NA,NA,NA,NA,0,7,7,26,1,-3,NA,NA,NA,NA,NA,NA,NA
NA,NA,NA,NA,NA,NA,NA,NA,NA,NA,NA,SUPAMT10666,33LK57MYLZ4BM1KLVTSQ641L5CNSZS,FCACD793-2AEF-4C53-99D5-C7ADA7435FE1,0,2023-09-18_11h54.57.397,Pilot_VExplicitOC_RG_AMT,2022.2.5,Win32,22.1479037,NA,NA,NA,NA,NA,NA,NA,NA,NA,NA,NA,NA,NA,NA,NA,NA,NA,NA,NA,NA,NA,NA,NA,NA,NA,NA,NA,NA,NA,NA,NA,NA,NA,NA,NA,NA,NA,NA,NA,NA,NA,NA,NA,NA,NA,NA,NA,NA,NA,NA,NA,NA,NA,NA,NA,NA,NA,NA,NA,NA,NA,NA,NA,NA,NA,NA,NA,NA,NA,NA,NA,NA,NA,NA,NA,NA,NA,NA,NA,NA,NA,NA,NA,NA,NA,random,FALSE,FALSE,FALSE,0.5,0,0,1.603987531,1.003987531,-0.6,-0.06533749,gamble,win,1.003987531,-2.795562397,right,1.8441,NA,NA,NA,NA,NA,0,8,8,20,1,-0.6,NA,NA,NA,NA,NA,NA,NA
NA,NA,NA,NA,NA,NA,NA,NA,NA,NA,NA,SUPAMT10666,33LK57MYLZ4BM1KLVTSQ641L5CNSZS,FCACD793-2AEF-4C53-99D5-C7ADA7435FE1,0,2023-09-18_11h54.57.397,Pilot_VExplicitOC_RG_AMT,2022.2.5,Win32,22.1479037,NA,NA,NA,NA,NA,NA,NA,NA,NA,NA,NA,NA,NA,NA,frustrated,"frustrated, not frustrated","more frustrated, less frustrated",NA,NA,69.27083333,3.4195,2.1302,NA,NA,NA,NA,NA,NA,NA,NA,NA,NA,NA,NA,NA,NA,NA,NA,NA,NA,NA,NA,NA,NA,NA,NA,NA,NA,NA,NA,NA,NA,NA,NA,NA,NA,NA,NA,NA,NA,NA,NA,NA,NA,NA,NA,NA,NA,NA,NA,NA,NA,NA,NA,NA,NA,NA,NA,NA,NA,NA,NA,NA,NA,NA,random,FALSE,FALSE,FALSE,0.5,0,0,-2.547053993,2.9,0.352946007,1.201964005,gamble,lose,0.352946007,-2.442616389,right,1.3909,0,0,0,1,1,NA,NA,NA,NA,NA,NA,NA,NA,NA,NA,NA,NA,NA
NA,NA,NA,NA,NA,NA,NA,NA,NA,NA,NA,SUPAMT10666,33LK57MYLZ4BM1KLVTSQ641L5CNSZS,FCACD793-2AEF-4C53-99D5-C7ADA7435FE1,0,2023-09-18_11h54.57.397,Pilot_VExplicitOC_RG_AMT,2022.2.5,Win32,22.1479037,NA,NA,NA,NA,NA,NA,NA,NA,NA,NA,NA,NA,NA,NA,happy,"unhappy, happy","less happy, more happy",NA,NA,69.27083333,3.3076,2.0436,NA,NA,NA,NA,NA,NA,NA,NA,NA,NA,NA,NA,NA,NA,NA,NA,NA,NA,NA,NA,NA,NA,NA,NA,NA,NA,NA,NA,NA,NA,NA,NA,NA,NA,NA,NA,NA,NA,NA,NA,NA,NA,NA,NA,NA,NA,NA,NA,NA,NA,NA,NA,NA,NA,NA,NA,NA,NA,NA,NA,NA,NA,NA,NA,NA,NA,NA,NA,NA,NA,NA,NA,NA,NA,NA,NA,NA,NA,NA,NA,0,1,1,0,1,NA,NA,NA,NA,NA,NA,NA,NA,NA,NA,NA,NA,NA
NA,NA,NA,NA,NA,NA,NA,NA,NA,NA,NA,SUPAMT10666,33LK57MYLZ4BM1KLVTSQ641L5CNSZS,FCACD793-2AEF-4C53-99D5-C7ADA7435FE1,0,2023-09-18_11h54.57.397,Pilot_VExplicitOC_RG_AMT,2022.2.5,Win32,22.1479037,NA,NA,NA,NA,NA,NA,NA,NA,NA,NA,NA,NA,NA,NA,bored,"bored, not bored","more bored, less bored",NA,NA,69.27083333,3.0602,2.0997,NA,NA,NA,NA,NA,NA,NA,NA,NA,NA,NA,NA,NA,NA,NA,NA,NA,NA,NA,NA,NA,NA,NA,NA,NA,NA,NA,NA,NA,NA,NA,NA,NA,NA,NA,NA,NA,NA,NA,NA,NA,NA,NA,NA,NA,NA,NA,NA,NA,NA,NA,NA,NA,NA,NA,NA,NA,NA,NA,NA,NA,NA,NA,NA,NA,NA,NA,NA,NA,NA,NA,NA,NA,NA,NA,NA,NA,NA,NA,NA,0,2,2,2,1,NA,NA,NA,NA,NA,NA,NA,NA,NA,NA,NA,NA,NA
NA,NA,NA,NA,NA,NA,NA,NA,NA,NA,NA,SUPAMT10666,33LK57MYLZ4BM1KLVTSQ641L5CNSZS,FCACD793-2AEF-4C53-99D5-C7ADA7435FE1,0,2023-09-18_11h54.57.397,Pilot_VExplicitOC_RG_AMT,2022.2.5,Win32,22.1479037,NA,NA,NA,NA,NA,NA,NA,NA,NA,NA,NA,NA,NA,NA,NA,NA,NA,NA,NA,NA,NA,NA,NA,NA,NA,NA,NA,NA,NA,NA,NA,NA,NA,NA,NA,NA,NA,NA,NA,NA,NA,NA,NA,NA,NA,NA,NA,NA,NA,NA,NA,NA,NA,NA,NA,NA,NA,NA,NA,NA,NA,NA,NA,NA,NA,NA,NA,NA,NA,NA,NA,NA,NA,NA,NA,NA,NA,NA,NA,NA,NA,NA,NA,NA,NA,NA,NA,NA,NA,NA,NA,NA,NA,NA,NA,NA,NA,NA,NA,NA,NA,NA,NA,NA,NA,NA,NA,0,9,9,7,1,2.9,NA,NA,NA,NA,NA,NA,NA
NA,NA,NA,NA,NA,NA,NA,NA,NA,NA,NA,SUPAMT10666,33LK57MYLZ4BM1KLVTSQ641L5CNSZS,FCACD793-2AEF-4C53-99D5-C7ADA7435FE1,0,2023-09-18_11h54.57.397,Pilot_VExplicitOC_RG_AMT,2022.2.5,Win32,22.1479037,NA,NA,NA,NA,NA,NA,NA,NA,NA,NA,NA,NA,NA,NA,NA,NA,NA,NA,NA,NA,NA,NA,NA,NA,NA,NA,NA,NA,NA,NA,NA,NA,NA,NA,NA,NA,NA,NA,NA,NA,NA,NA,NA,NA,NA,NA,NA,NA,NA,NA,NA,NA,NA,NA,NA,NA,NA,NA,NA,NA,NA,NA,NA,NA,NA,NA,NA,NA,NA,NA,NA,NA,NA,NA,NA,NA,NA,NA,NA,NA,NA,NA,NA,NA,NA,random,FALSE,FALSE,FALSE,0.5,0,0,2.070941479,-0.229058521,-2.3,-1.609686174,gamble,win,-0.229058521,-2.671674911,right,1.5052,NA,NA,NA,NA,NA,0,10,10,22,1,-2.3,NA,NA,NA,NA,NA,NA,NA
NA,NA,NA,NA,NA,NA,NA,NA,NA,NA,NA,SUPAMT10666,33LK57MYLZ4BM1KLVTSQ641L5CNSZS,FCACD793-2AEF-4C53-99D5-C7ADA7435FE1,0,2023-09-18_11h54.57.397,Pilot_VExplicitOC_RG_AMT,2022.2.5,Win32,22.1479037,NA,NA,NA,NA,NA,NA,NA,NA,NA,NA,NA,NA,NA,NA,happy,"unhappy, happy","less happy, more happy",NA,NA,65.88541667,3.5108,2.0328,NA,NA,NA,NA,NA,NA,NA,NA,NA,NA,NA,NA,NA,NA,NA,NA,NA,NA,NA,NA,NA,NA,NA,NA,NA,NA,NA,NA,NA,NA,NA,NA,NA,NA,NA,NA,NA,NA,NA,NA,NA,NA,NA,NA,NA,NA,NA,NA,NA,NA,NA,NA,NA,NA,NA,NA,NA,NA,NA,NA,NA,NA,NA,random,FALSE,FALSE,TRUE,0.5,0,0,0.842622019,2.042622019,1.2,1.480874006,gamble,win,2.042622019,-0.629052891,right,1.1211,0,0,0,0,1,NA,NA,NA,NA,NA,NA,NA,NA,NA,NA,NA,NA,NA
NA,NA,NA,NA,NA,NA,NA,NA,NA,NA,NA,SUPAMT10666,33LK57MYLZ4BM1KLVTSQ641L5CNSZS,FCACD793-2AEF-4C53-99D5-C7ADA7435FE1,0,2023-09-18_11h54.57.397,Pilot_VExplicitOC_RG_AMT,2022.2.5,Win32,22.1479037,NA,NA,NA,NA,NA,NA,NA,NA,NA,NA,NA,NA,NA,NA,frustrated,"frustrated, not frustrated","more frustrated, less frustrated",NA,NA,65.88541667,3.0936,2.05,NA,NA,NA,NA,NA,NA,NA,NA,NA,NA,NA,NA,NA,NA,NA,NA,NA,NA,NA,NA,NA,NA,NA,NA,NA,NA,NA,NA,NA,NA,NA,NA,NA,NA,NA,NA,NA,NA,NA,NA,NA,NA,NA,NA,NA,NA,NA,NA,NA,NA,NA,NA,NA,NA,NA,NA,NA,NA,NA,NA,NA,NA,NA,NA,NA,NA,NA,NA,NA,NA,NA,NA,NA,NA,NA,NA,NA,NA,NA,NA,0,1,1,1,1,NA,NA,NA,NA,NA,NA,NA,NA,NA,NA,NA,NA,NA
NA,NA,NA,NA,NA,NA,NA,NA,NA,NA,NA,SUPAMT10666,33LK57MYLZ4BM1KLVTSQ641L5CNSZS,FCACD793-2AEF-4C53-99D5-C7ADA7435FE1,0,2023-09-18_11h54.57.397,Pilot_VExplicitOC_RG_AMT,2022.2.5,Win32,22.1479037,NA,NA,NA,NA,NA,NA,NA,NA,NA,NA,NA,NA,NA,NA,bored,"bored, not bored","more bored, less bored",NA,NA,65.88541667,3.0679,2.0345,NA,NA,NA,NA,NA,NA,NA,NA,NA,NA,NA,NA,NA,NA,NA,NA,NA,NA,NA,NA,NA,NA,NA,NA,NA,NA,NA,NA,NA,NA,NA,NA,NA,NA,NA,NA,NA,NA,NA,NA,NA,NA,NA,NA,NA,NA,NA,NA,NA,NA,NA,NA,NA,NA,NA,NA,NA,NA,NA,NA,NA,NA,NA,NA,NA,NA,NA,NA,NA,NA,NA,NA,NA,NA,NA,NA,NA,NA,NA,NA,0,2,2,2,1,NA,NA,NA,NA,NA,NA,NA,NA,NA,NA,NA,NA,NA
NA,NA,NA,NA,NA,NA,NA,NA,NA,NA,NA,SUPAMT10666,33LK57MYLZ4BM1KLVTSQ641L5CNSZS,FCACD793-2AEF-4C53-99D5-C7ADA7435FE1,0,2023-09-18_11h54.57.397,Pilot_VExplicitOC_RG_AMT,2022.2.5,Win32,22.1479037,NA,NA,NA,NA,NA,NA,NA,NA,NA,NA,NA,NA,NA,NA,NA,NA,NA,NA,NA,NA,NA,NA,NA,NA,NA,NA,NA,NA,NA,NA,NA,NA,NA,NA,NA,NA,NA,NA,NA,NA,NA,NA,NA,NA,NA,NA,NA,NA,NA,NA,NA,NA,NA,NA,NA,NA,NA,NA,NA,NA,NA,NA,NA,NA,NA,NA,NA,NA,NA,NA,NA,NA,NA,NA,NA,NA,NA,NA,NA,NA,NA,NA,NA,NA,NA,NA,NA,NA,NA,NA,NA,NA,NA,NA,NA,NA,NA,NA,NA,NA,NA,NA,NA,NA,NA,NA,NA,0,11,11,14,1,1.2,NA,NA,NA,NA,NA,NA,NA
NA,NA,NA,NA,NA,NA,NA,NA,NA,NA,NA,SUPAMT10666,33LK57MYLZ4BM1KLVTSQ641L5CNSZS,FCACD793-2AEF-4C53-99D5-C7ADA7435FE1,0,2023-09-18_11h54.57.397,Pilot_VExplicitOC_RG_AMT,2022.2.5,Win32,22.1479037,NA,NA,NA,NA,NA,NA,NA,NA,NA,NA,NA,NA,NA,NA,NA,NA,NA,NA,NA,NA,NA,NA,NA,NA,NA,NA,NA,NA,NA,NA,NA,NA,NA,NA,NA,NA,NA,NA,NA,NA,NA,NA,NA,NA,NA,NA,NA,NA,NA,NA,NA,NA,NA,NA,NA,NA,NA,NA,NA,NA,NA,NA,NA,NA,NA,NA,NA,NA,NA,NA,NA,NA,NA,NA,NA,NA,NA,NA,NA,NA,NA,NA,NA,NA,NA,random,FALSE,FALSE,FALSE,0.5,0,0,1.31890649,-1.78109351,-3.1,-2.660364503,gamble,win,-1.78109351,-2.410146401,right,0.99,NA,NA,NA,NA,NA,0,12,12,27,1,-3.1,NA,NA,NA,NA,NA,NA,NA
NA,NA,NA,NA,NA,NA,NA,NA,NA,NA,NA,SUPAMT10666,33LK57MYLZ4BM1KLVTSQ641L5CNSZS,FCACD793-2AEF-4C53-99D5-C7ADA7435FE1,0,2023-09-18_11h54.57.397,Pilot_VExplicitOC_RG_AMT,2022.2.5,Win32,22.1479037,NA,NA,NA,NA,NA,NA,NA,NA,NA,NA,NA,NA,NA,NA,NA,NA,NA,NA,NA,NA,NA,NA,NA,NA,NA,NA,NA,NA,NA,NA,NA,NA,NA,NA,NA,NA,NA,NA,NA,NA,NA,NA,NA,NA,NA,NA,NA,NA,NA,NA,NA,NA,NA,NA,NA,NA,NA,NA,NA,NA,NA,NA,NA,NA,NA,NA,NA,NA,NA,NA,NA,NA,NA,NA,NA,NA,NA,NA,NA,NA,NA,NA,NA,NA,NA,random,FALSE,FALSE,FALSE,0.5,0,0,-3.127068523,-1.5,-4.627068523,-3.584712349,gamble,lose,-4.627068523,-7.037214925,right,1.497,NA,NA,NA,NA,NA,0,13,13,0,1,-1.5,NA,NA,NA,NA,NA,NA,NA
NA,NA,NA,NA,NA,NA,NA,NA,NA,NA,NA,SUPAMT10666,33LK57MYLZ4BM1KLVTSQ641L5CNSZS,FCACD793-2AEF-4C53-99D5-C7ADA7435FE1,0,2023-09-18_11h54.57.397,Pilot_VExplicitOC_RG_AMT,2022.2.5,Win32,22.1479037,NA,NA,NA,NA,NA,NA,NA,NA,NA,NA,NA,NA,NA,NA,bored,"bored, not bored","more bored, less bored",NA,NA,73.17708333,3.2747,2.0947,NA,NA,NA,NA,NA,NA,NA,NA,NA,NA,NA,NA,NA,NA,NA,NA,NA,NA,NA,NA,NA,NA,NA,NA,NA,NA,NA,NA,NA,NA,NA,NA,NA,NA,NA,NA,NA,NA,NA,NA,NA,NA,NA,NA,NA,NA,NA,NA,NA,NA,NA,NA,NA,NA,NA,NA,NA,NA,NA,NA,NA,NA,NA,random,FALSE,FALSE,TRUE,0.5,0,0,-0.429033626,3.8,3.370966374,3.513977583,gamble,lose,3.370966374,-3.666248551,right,1.7174,0,0,0,2,1,NA,NA,NA,NA,NA,NA,NA,NA,NA,NA,NA,NA,NA
NA,NA,NA,NA,NA,NA,NA,NA,NA,NA,NA,SUPAMT10666,33LK57MYLZ4BM1KLVTSQ641L5CNSZS,FCACD793-2AEF-4C53-99D5-C7ADA7435FE1,0,2023-09-18_11h54.57.397,Pilot_VExplicitOC_RG_AMT,2022.2.5,Win32,22.1479037,NA,NA,NA,NA,NA,NA,NA,NA,NA,NA,NA,NA,NA,NA,happy,"unhappy, happy","less happy, more happy",NA,NA,70.57291667,3.1379,2.0128,NA,NA,NA,NA,NA,NA,NA,NA,NA,NA,NA,NA,NA,NA,NA,NA,NA,NA,NA,NA,NA,NA,NA,NA,NA,NA,NA,NA,NA,NA,NA,NA,NA,NA,NA,NA,NA,NA,NA,NA,NA,NA,NA,NA,NA,NA,NA,NA,NA,NA,NA,NA,NA,NA,NA,NA,NA,NA,NA,NA,NA,NA,NA,NA,NA,NA,NA,NA,NA,NA,NA,NA,NA,NA,NA,NA,NA,NA,NA,NA,0,1,1,0,1,NA,NA,NA,NA,NA,NA,NA,NA,NA,NA,NA,NA,NA
NA,NA,NA,NA,NA,NA,NA,NA,NA,NA,NA,SUPAMT10666,33LK57MYLZ4BM1KLVTSQ641L5CNSZS,FCACD793-2AEF-4C53-99D5-C7ADA7435FE1,0,2023-09-18_11h54.57.397,Pilot_VExplicitOC_RG_AMT,2022.2.5,Win32,22.1479037,NA,NA,NA,NA,NA,NA,NA,NA,NA,NA,NA,NA,NA,NA,frustrated,"frustrated, not frustrated","more frustrated, less frustrated",NA,NA,70.57291667,3.3778,2.1026,NA,NA,NA,NA,NA,NA,NA,NA,NA,NA,NA,NA,NA,NA,NA,NA,NA,NA,NA,NA,NA,NA,NA,NA,NA,NA,NA,NA,NA,NA,NA,NA,NA,NA,NA,NA,NA,NA,NA,NA,NA,NA,NA,NA,NA,NA,NA,NA,NA,NA,NA,NA,NA,NA,NA,NA,NA,NA,NA,NA,NA,NA,NA,NA,NA,NA,NA,NA,NA,NA,NA,NA,NA,NA,NA,NA,NA,NA,NA,NA,0,2,2,1,1,NA,NA,NA,NA,NA,NA,NA,NA,NA,NA,NA,NA,NA
NA,NA,NA,NA,NA,NA,NA,NA,NA,NA,NA,SUPAMT10666,33LK57MYLZ4BM1KLVTSQ641L5CNSZS,FCACD793-2AEF-4C53-99D5-C7ADA7435FE1,0,2023-09-18_11h54.57.397,Pilot_VExplicitOC_RG_AMT,2022.2.5,Win32,22.1479037,NA,NA,NA,NA,NA,NA,NA,NA,NA,NA,NA,NA,NA,NA,NA,NA,NA,NA,NA,NA,NA,NA,NA,NA,NA,NA,NA,NA,NA,NA,NA,NA,NA,NA,NA,NA,NA,NA,NA,NA,NA,NA,NA,NA,NA,NA,NA,NA,NA,NA,NA,NA,NA,NA,NA,NA,NA,NA,NA,NA,NA,NA,NA,NA,NA,NA,NA,NA,NA,NA,NA,NA,NA,NA,NA,NA,NA,NA,NA,NA,NA,NA,NA,NA,NA,NA,NA,NA,NA,NA,NA,NA,NA,NA,NA,NA,NA,NA,NA,NA,NA,NA,NA,NA,NA,NA,NA,0,14,14,31,1,3.8,NA,NA,NA,NA,NA,NA,NA
NA,NA,NA,NA,NA,NA,NA,NA,NA,NA,NA,SUPAMT10666,33LK57MYLZ4BM1KLVTSQ641L5CNSZS,FCACD793-2AEF-4C53-99D5-C7ADA7435FE1,0,2023-09-18_11h54.57.397,Pilot_VExplicitOC_RG_AMT,2022.2.5,Win32,22.1479037,NA,NA,NA,NA,NA,NA,NA,NA,NA,NA,NA,NA,NA,NA,NA,NA,NA,NA,NA,NA,NA,NA,NA,NA,NA,NA,NA,NA,NA,NA,NA,NA,NA,NA,NA,NA,NA,NA,NA,NA,NA,NA,NA,NA,NA,NA,NA,NA,NA,NA,NA,NA,NA,NA,NA,NA,NA,NA,NA,NA,NA,NA,NA,NA,NA,NA,NA,NA,NA,NA,NA,NA,NA,NA,NA,NA,NA,NA,NA,NA,NA,NA,NA,NA,NA,random,FALSE,FALSE,TRUE,0.5,0,0,2.566999298,3.866999298,1.3,2.155666433,gamble,win,3.866999298,0.200750747,right,1.61,NA,NA,NA,NA,NA,0,15,15,11,1,1.3,NA,NA,NA,NA,NA,NA,NA
NA,NA,NA,NA,NA,NA,NA,NA,NA,NA,NA,SUPAMT10666,33LK57MYLZ4BM1KLVTSQ641L5CNSZS,FCACD793-2AEF-4C53-99D5-C7ADA7435FE1,0,2023-09-18_11h54.57.397,Pilot_VExplicitOC_RG_AMT,2022.2.5,Win32,22.1479037,NA,NA,NA,NA,NA,NA,NA,NA,NA,NA,NA,NA,NA,NA,bored,"bored, not bored","more bored, less bored",NA,NA,70.57291667,3.695,2.0993,NA,NA,NA,NA,NA,NA,NA,NA,NA,NA,NA,NA,NA,NA,NA,NA,NA,NA,NA,NA,NA,NA,NA,NA,NA,NA,NA,NA,NA,NA,NA,NA,NA,NA,NA,NA,NA,NA,NA,NA,NA,NA,NA,NA,NA,NA,NA,NA,NA,NA,NA,NA,NA,NA,NA,NA,NA,NA,NA,NA,NA,NA,NA,random,FALSE,FALSE,TRUE,0.5,0,0,2.735790853,5.235790853,2.5,3.411930284,gamble,win,5.235790853,5.4365416,right,0.8467,0,0,0,2,1,NA,NA,NA,NA,NA,NA,NA,NA,NA,NA,NA,NA,NA
NA,NA,NA,NA,NA,NA,NA,NA,NA,NA,NA,SUPAMT10666,33LK57MYLZ4BM1KLVTSQ641L5CNSZS,FCACD793-2AEF-4C53-99D5-C7ADA7435FE1,0,2023-09-18_11h54.57.397,Pilot_VExplicitOC_RG_AMT,2022.2.5,Win32,22.1479037,NA,NA,NA,NA,NA,NA,NA,NA,NA,NA,NA,NA,NA,NA,frustrated,"frustrated, not frustrated","more frustrated, less frustrated",NA,NA,65.88541667,3.3801,2.0533,NA,NA,NA,NA,NA,NA,NA,NA,NA,NA,NA,NA,NA,NA,NA,NA,NA,NA,NA,NA,NA,NA,NA,NA,NA,NA,NA,NA,NA,NA,NA,NA,NA,NA,NA,NA,NA,NA,NA,NA,NA,NA,NA,NA,NA,NA,NA,NA,NA,NA,NA,NA,NA,NA,NA,NA,NA,NA,NA,NA,NA,NA,NA,NA,NA,NA,NA,NA,NA,NA,NA,NA,NA,NA,NA,NA,NA,NA,NA,NA,0,1,1,1,1,NA,NA,NA,NA,NA,NA,NA,NA,NA,NA,NA,NA,NA
NA,NA,NA,NA,NA,NA,NA,NA,NA,NA,NA,SUPAMT10666,33LK57MYLZ4BM1KLVTSQ641L5CNSZS,FCACD793-2AEF-4C53-99D5-C7ADA7435FE1,0,2023-09-18_11h54.57.397,Pilot_VExplicitOC_RG_AMT,2022.2.5,Win32,22.1479037,NA,NA,NA,NA,NA,NA,NA,NA,NA,NA,NA,NA,NA,NA,happy,"unhappy, happy","less happy, more happy",NA,NA,65.88541667,3.2325,2.0823,NA,NA,NA,NA,NA,NA,NA,NA,NA,NA,NA,NA,NA,NA,NA,NA,NA,NA,NA,NA,NA,NA,NA,NA,NA,NA,NA,NA,NA,NA,NA,NA,NA,NA,NA,NA,NA,NA,NA,NA,NA,NA,NA,NA,NA,NA,NA,NA,NA,NA,NA,NA,NA,NA,NA,NA,NA,NA,NA,NA,NA,NA,NA,NA,NA,NA,NA,NA,NA,NA,NA,NA,NA,NA,NA,NA,NA,NA,NA,NA,0,2,2,0,1,NA,NA,NA,NA,NA,NA,NA,NA,NA,NA,NA,NA,NA
NA,NA,NA,NA,NA,NA,NA,NA,NA,NA,NA,SUPAMT10666,33LK57MYLZ4BM1KLVTSQ641L5CNSZS,FCACD793-2AEF-4C53-99D5-C7ADA7435FE1,0,2023-09-18_11h54.57.397,Pilot_VExplicitOC_RG_AMT,2022.2.5,Win32,22.1479037,NA,NA,NA,NA,NA,NA,NA,NA,NA,NA,NA,NA,NA,NA,NA,NA,NA,NA,NA,NA,NA,NA,NA,NA,NA,NA,NA,NA,NA,NA,NA,NA,NA,NA,NA,NA,NA,NA,NA,NA,NA,NA,NA,NA,NA,NA,NA,NA,NA,NA,NA,NA,NA,NA,NA,NA,NA,NA,NA,NA,NA,NA,NA,NA,NA,NA,NA,NA,NA,NA,NA,NA,NA,NA,NA,NA,NA,NA,NA,NA,NA,NA,NA,NA,NA,NA,NA,NA,NA,NA,NA,NA,NA,NA,NA,NA,NA,NA,NA,NA,NA,NA,NA,NA,NA,NA,NA,0,16,16,30,1,2.5,NA,NA,NA,NA,NA,NA,NA
NA,NA,NA,NA,NA,NA,NA,NA,NA,NA,NA,SUPAMT10666,33LK57MYLZ4BM1KLVTSQ641L5CNSZS,FCACD793-2AEF-4C53-99D5-C7ADA7435FE1,0,2023-09-18_11h54.57.397,Pilot_VExplicitOC_RG_AMT,2022.2.5,Win32,22.1479037,NA,NA,NA,NA,NA,NA,NA,NA,NA,NA,NA,NA,NA,NA,NA,NA,NA,NA,NA,NA,NA,NA,NA,NA,NA,NA,NA,NA,NA,NA,NA,NA,NA,NA,NA,NA,NA,NA,NA,NA,NA,NA,NA,NA,NA,NA,NA,NA,NA,NA,NA,NA,NA,NA,NA,NA,NA,NA,NA,NA,NA,NA,NA,NA,NA,NA,NA,NA,NA,NA,NA,NA,NA,NA,NA,NA,NA,NA,NA,NA,NA,NA,NA,NA,NA,random,FALSE,FALSE,FALSE,0.5,0,0,-4.212364405,3.7,-0.512364405,0.891757064,gamble,lose,-0.512364405,4.924177196,right,0.9893,NA,NA,NA,NA,NA,0,17,17,13,1,3.7,NA,NA,NA,NA,NA,NA,NA
NA,NA,NA,NA,NA,NA,NA,NA,NA,NA,NA,SUPAMT10666,33LK57MYLZ4BM1KLVTSQ641L5CNSZS,FCACD793-2AEF-4C53-99D5-C7ADA7435FE1,0,2023-09-18_11h54.57.397,Pilot_VExplicitOC_RG_AMT,2022.2.5,Win32,22.1479037,NA,NA,NA,NA,NA,NA,NA,NA,NA,NA,NA,NA,NA,NA,NA,NA,NA,NA,NA,NA,NA,NA,NA,NA,NA,NA,NA,NA,NA,NA,NA,NA,NA,NA,NA,NA,NA,NA,NA,NA,NA,NA,NA,NA,NA,NA,NA,NA,NA,NA,NA,NA,NA,NA,NA,NA,NA,NA,NA,NA,NA,NA,NA,NA,NA,NA,NA,NA,NA,NA,NA,NA,NA,NA,NA,NA,NA,NA,NA,NA,NA,NA,NA,NA,NA,random,FALSE,FALSE,TRUE,0.5,0,0,-2.999629983,3.6,0.600370017,1.600246678,gamble,lose,0.600370017,5.524547213,right,0.9041,NA,NA,NA,NA,NA,0,18,18,23,1,3.6,NA,NA,NA,NA,NA,NA,NA
NA,NA,NA,NA,NA,NA,NA,NA,NA,NA,NA,SUPAMT10666,33LK57MYLZ4BM1KLVTSQ641L5CNSZS,FCACD793-2AEF-4C53-99D5-C7ADA7435FE1,0,2023-09-18_11h54.57.397,Pilot_VExplicitOC_RG_AMT,2022.2.5,Win32,22.1479037,NA,NA,NA,NA,NA,NA,NA,NA,NA,NA,NA,NA,NA,NA,bored,"bored, not bored","more bored, less bored",NA,NA,65.88541667,4.5027,2.1223,NA,NA,NA,NA,NA,NA,NA,NA,NA,NA,NA,NA,NA,NA,NA,NA,NA,NA,NA,NA,NA,NA,NA,NA,NA,NA,NA,NA,NA,NA,NA,NA,NA,NA,NA,NA,NA,NA,NA,NA,NA,NA,NA,NA,NA,NA,NA,NA,NA,NA,NA,NA,NA,NA,NA,NA,NA,NA,NA,NA,NA,NA,NA,random,FALSE,FALSE,FALSE,0.5,0,0,0.341961704,2.541961704,2.2,2.313987235,gamble,win,2.541961704,8.066508917,right,1.4279,0,0,0,2,1,NA,NA,NA,NA,NA,NA,NA,NA,NA,NA,NA,NA,NA
NA,NA,NA,NA,NA,NA,NA,NA,NA,NA,NA,SUPAMT10666,33LK57MYLZ4BM1KLVTSQ641L5CNSZS,FCACD793-2AEF-4C53-99D5-C7ADA7435FE1,0,2023-09-18_11h54.57.397,Pilot_VExplicitOC_RG_AMT,2022.2.5,Win32,22.1479037,NA,NA,NA,NA,NA,NA,NA,NA,NA,NA,NA,NA,NA,NA,frustrated,"frustrated, not frustrated","more frustrated, less frustrated",NA,NA,67.96875,3.0735,2.0147,NA,NA,NA,NA,NA,NA,NA,NA,NA,NA,NA,NA,NA,NA,NA,NA,NA,NA,NA,NA,NA,NA,NA,NA,NA,NA,NA,NA,NA,NA,NA,NA,NA,NA,NA,NA,NA,NA,NA,NA,NA,NA,NA,NA,NA,NA,NA,NA,NA,NA,NA,NA,NA,NA,NA,NA,NA,NA,NA,NA,NA,NA,NA,NA,NA,NA,NA,NA,NA,NA,NA,NA,NA,NA,NA,NA,NA,NA,NA,NA,0,1,1,1,1,NA,NA,NA,NA,NA,NA,NA,NA,NA,NA,NA,NA,NA
NA,NA,NA,NA,NA,NA,NA,NA,NA,NA,NA,SUPAMT10666,33LK57MYLZ4BM1KLVTSQ641L5CNSZS,FCACD793-2AEF-4C53-99D5-C7ADA7435FE1,0,2023-09-18_11h54.57.397,Pilot_VExplicitOC_RG_AMT,2022.2.5,Win32,22.1479037,NA,NA,NA,NA,NA,NA,NA,NA,NA,NA,NA,NA,NA,NA,happy,"unhappy, happy","less happy, more happy",NA,NA,67.96875,3.0316,2.0272,NA,NA,NA,NA,NA,NA,NA,NA,NA,NA,NA,NA,NA,NA,NA,NA,NA,NA,NA,NA,NA,NA,NA,NA,NA,NA,NA,NA,NA,NA,NA,NA,NA,NA,NA,NA,NA,NA,NA,NA,NA,NA,NA,NA,NA,NA,NA,NA,NA,NA,NA,NA,NA,NA,NA,NA,NA,NA,NA,NA,NA,NA,NA,NA,NA,NA,NA,NA,NA,NA,NA,NA,NA,NA,NA,NA,NA,NA,NA,NA,0,2,2,0,1,NA,NA,NA,NA,NA,NA,NA,NA,NA,NA,NA,NA,NA
NA,NA,NA,NA,NA,NA,NA,NA,NA,NA,NA,SUPAMT10666,33LK57MYLZ4BM1KLVTSQ641L5CNSZS,FCACD793-2AEF-4C53-99D5-C7ADA7435FE1,0,2023-09-18_11h54.57.397,Pilot_VExplicitOC_RG_AMT,2022.2.5,Win32,22.1479037,NA,NA,NA,NA,NA,NA,NA,NA,NA,NA,NA,NA,NA,NA,NA,NA,NA,NA,NA,NA,NA,NA,NA,NA,NA,NA,NA,NA,NA,NA,NA,NA,NA,NA,NA,NA,NA,NA,NA,NA,NA,NA,NA,NA,NA,NA,NA,NA,NA,NA,NA,NA,NA,NA,NA,NA,NA,NA,NA,NA,NA,NA,NA,NA,NA,NA,NA,NA,NA,NA,NA,NA,NA,NA,NA,NA,NA,NA,NA,NA,NA,NA,NA,NA,NA,NA,NA,NA,NA,NA,NA,NA,NA,NA,NA,NA,NA,NA,NA,NA,NA,NA,NA,NA,NA,NA,NA,0,19,19,15,1,2.2,NA,NA,NA,NA,NA,NA,NA
NA,NA,NA,NA,NA,NA,NA,NA,NA,NA,NA,SUPAMT10666,33LK57MYLZ4BM1KLVTSQ641L5CNSZS,FCACD793-2AEF-4C53-99D5-C7ADA7435FE1,0,2023-09-18_11h54.57.397,Pilot_VExplicitOC_RG_AMT,2022.2.5,Win32,22.1479037,NA,NA,NA,NA,NA,NA,NA,NA,NA,NA,NA,NA,NA,NA,NA,NA,NA,NA,NA,NA,NA,NA,NA,NA,NA,NA,NA,NA,NA,NA,NA,NA,NA,NA,NA,NA,NA,NA,NA,NA,NA,NA,NA,NA,NA,NA,NA,NA,NA,NA,NA,NA,NA,NA,NA,NA,NA,NA,NA,NA,NA,NA,NA,NA,NA,NA,NA,NA,NA,NA,NA,NA,NA,NA,NA,NA,NA,NA,NA,NA,NA,NA,NA,NA,NA,random,FALSE,FALSE,TRUE,0.5,0,0,2.442776224,5.542776224,3.1,3.914258741,gamble,win,5.542776224,13.60928514,right,1.2272,NA,NA,NA,NA,NA,0,20,20,9,1,3.1,NA,NA,NA,NA,NA,NA,NA
NA,NA,NA,NA,NA,NA,NA,NA,NA,NA,NA,SUPAMT10666,33LK57MYLZ4BM1KLVTSQ641L5CNSZS,FCACD793-2AEF-4C53-99D5-C7ADA7435FE1,0,2023-09-18_11h54.57.397,Pilot_VExplicitOC_RG_AMT,2022.2.5,Win32,22.1479037,NA,NA,NA,NA,NA,NA,NA,NA,NA,NA,NA,NA,NA,NA,bored,"bored, not bored","more bored, less bored",NA,NA,74.47916667,3.9638,2.0985,NA,NA,NA,NA,NA,NA,NA,NA,NA,NA,NA,NA,NA,NA,NA,NA,NA,NA,NA,NA,NA,NA,NA,NA,NA,NA,NA,NA,NA,NA,NA,NA,NA,NA,NA,NA,NA,NA,NA,NA,NA,NA,NA,NA,NA,NA,NA,NA,NA,NA,NA,NA,NA,NA,NA,NA,NA,NA,NA,NA,NA,NA,NA,random,FALSE,FALSE,FALSE,0.5,0,0,-2.137174619,1.4,-0.737174619,-0.024783079,gamble,lose,-0.737174619,12.87211052,right,0.9911,0,0,0,2,1,NA,NA,NA,NA,NA,NA,NA,NA,NA,NA,NA,NA,NA
NA,NA,NA,NA,NA,NA,NA,NA,NA,NA,NA,SUPAMT10666,33LK57MYLZ4BM1KLVTSQ641L5CNSZS,FCACD793-2AEF-4C53-99D5-C7ADA7435FE1,0,2023-09-18_11h54.57.397,Pilot_VExplicitOC_RG_AMT,2022.2.5,Win32,22.1479037,NA,NA,NA,NA,NA,NA,NA,NA,NA,NA,NA,NA,NA,NA,happy,"unhappy, happy","less happy, more happy",NA,NA,74.47916667,3.3014,2.1408,NA,NA,NA,NA,NA,NA,NA,NA,NA,NA,NA,NA,NA,NA,NA,NA,NA,NA,NA,NA,NA,NA,NA,NA,NA,NA,NA,NA,NA,NA,NA,NA,NA,NA,NA,NA,NA,NA,NA,NA,NA,NA,NA,NA,NA,NA,NA,NA,NA,NA,NA,NA,NA,NA,NA,NA,NA,NA,NA,NA,NA,NA,NA,NA,NA,NA,NA,NA,NA,NA,NA,NA,NA,NA,NA,NA,NA,NA,NA,NA,0,1,1,0,1,NA,NA,NA,NA,NA,NA,NA,NA,NA,NA,NA,NA,NA
NA,NA,NA,NA,NA,NA,NA,NA,NA,NA,NA,SUPAMT10666,33LK57MYLZ4BM1KLVTSQ641L5CNSZS,FCACD793-2AEF-4C53-99D5-C7ADA7435FE1,0,2023-09-18_11h54.57.397,Pilot_VExplicitOC_RG_AMT,2022.2.5,Win32,22.1479037,NA,NA,NA,NA,NA,NA,NA,NA,NA,NA,NA,NA,NA,NA,frustrated,"frustrated, not frustrated","more frustrated, less frustrated",NA,NA,74.47916667,2.9867,2.0684,NA,NA,NA,NA,NA,NA,NA,NA,NA,NA,NA,NA,NA,NA,NA,NA,NA,NA,NA,NA,NA,NA,NA,NA,NA,NA,NA,NA,NA,NA,NA,NA,NA,NA,NA,NA,NA,NA,NA,NA,NA,NA,NA,NA,NA,NA,NA,NA,NA,NA,NA,NA,NA,NA,NA,NA,NA,NA,NA,NA,NA,NA,NA,NA,NA,NA,NA,NA,NA,NA,NA,NA,NA,NA,NA,NA,NA,NA,NA,NA,0,2,2,1,1,NA,NA,NA,NA,NA,NA,NA,NA,NA,NA,NA,NA,NA
NA,NA,NA,NA,NA,NA,NA,NA,NA,NA,NA,SUPAMT10666,33LK57MYLZ4BM1KLVTSQ641L5CNSZS,FCACD793-2AEF-4C53-99D5-C7ADA7435FE1,0,2023-09-18_11h54.57.397,Pilot_VExplicitOC_RG_AMT,2022.2.5,Win32,22.1479037,NA,NA,NA,NA,NA,NA,NA,NA,NA,NA,NA,NA,NA,NA,NA,NA,NA,NA,NA,NA,NA,NA,NA,NA,NA,NA,NA,NA,NA,NA,NA,NA,NA,NA,NA,NA,NA,NA,NA,NA,NA,NA,NA,NA,NA,NA,NA,NA,NA,NA,NA,NA,NA,NA,NA,NA,NA,NA,NA,NA,NA,NA,NA,NA,NA,NA,NA,NA,NA,NA,NA,NA,NA,NA,NA,NA,NA,NA,NA,NA,NA,NA,NA,NA,NA,NA,NA,NA,NA,NA,NA,NA,NA,NA,NA,NA,NA,NA,NA,NA,NA,NA,NA,NA,NA,NA,NA,0,21,21,16,1,1.4,NA,NA,NA,NA,NA,NA,NA
NA,NA,NA,NA,NA,NA,NA,NA,NA,NA,NA,SUPAMT10666,33LK57MYLZ4BM1KLVTSQ641L5CNSZS,FCACD793-2AEF-4C53-99D5-C7ADA7435FE1,0,2023-09-18_11h54.57.397,Pilot_VExplicitOC_RG_AMT,2022.2.5,Win32,22.1479037,NA,NA,NA,NA,NA,NA,NA,NA,NA,NA,NA,NA,NA,NA,NA,NA,NA,NA,NA,NA,NA,NA,NA,NA,NA,NA,NA,NA,NA,NA,NA,NA,NA,NA,NA,NA,NA,NA,NA,NA,NA,NA,NA,NA,NA,NA,NA,NA,NA,NA,NA,NA,NA,NA,NA,NA,NA,NA,NA,NA,NA,NA,NA,NA,NA,NA,NA,NA,NA,NA,NA,NA,NA,NA,NA,NA,NA,NA,NA,NA,NA,NA,NA,NA,NA,random,FALSE,FALSE,TRUE,0.5,0,0,2.894819849,0.694819849,-2.2,-1.23506005,gamble,win,0.694819849,13.56693037,right,0.9206,NA,NA,NA,NA,NA,0,22,22,29,1,-2.2,NA,NA,NA,NA,NA,NA,NA
NA,NA,NA,NA,NA,NA,NA,NA,NA,NA,NA,SUPAMT10666,33LK57MYLZ4BM1KLVTSQ641L5CNSZS,FCACD793-2AEF-4C53-99D5-C7ADA7435FE1,0,2023-09-18_11h54.57.397,Pilot_VExplicitOC_RG_AMT,2022.2.5,Win32,22.1479037,NA,NA,NA,NA,NA,NA,NA,NA,NA,NA,NA,NA,NA,NA,frustrated,"frustrated, not frustrated","more frustrated, less frustrated",NA,NA,72.91666667,4.4928,2.0969,NA,NA,NA,NA,NA,NA,NA,NA,NA,NA,NA,NA,NA,NA,NA,NA,NA,NA,NA,NA,NA,NA,NA,NA,NA,NA,NA,NA,NA,NA,NA,NA,NA,NA,NA,NA,NA,NA,NA,NA,NA,NA,NA,NA,NA,NA,NA,NA,NA,NA,NA,NA,NA,NA,NA,NA,NA,NA,NA,NA,NA,NA,NA,random,FALSE,FALSE,TRUE,0.5,0,0,2.075883024,0.175883024,-1.9,-1.208038992,gamble,win,0.175883024,13.7428134,right,1.0314,0,0,0,1,1,NA,NA,NA,NA,NA,NA,NA,NA,NA,NA,NA,NA,NA
NA,NA,NA,NA,NA,NA,NA,NA,NA,NA,NA,SUPAMT10666,33LK57MYLZ4BM1KLVTSQ641L5CNSZS,FCACD793-2AEF-4C53-99D5-C7ADA7435FE1,0,2023-09-18_11h54.57.397,Pilot_VExplicitOC_RG_AMT,2022.2.5,Win32,22.1479037,NA,NA,NA,NA,NA,NA,NA,NA,NA,NA,NA,NA,NA,NA,happy,"unhappy, happy","less happy, more happy",NA,NA,72.91666667,3.5445,2.0697,NA,NA,NA,NA,NA,NA,NA,NA,NA,NA,NA,NA,NA,NA,NA,NA,NA,NA,NA,NA,NA,NA,NA,NA,NA,NA,NA,NA,NA,NA,NA,NA,NA,NA,NA,NA,NA,NA,NA,NA,NA,NA,NA,NA,NA,NA,NA,NA,NA,NA,NA,NA,NA,NA,NA,NA,NA,NA,NA,NA,NA,NA,NA,NA,NA,NA,NA,NA,NA,NA,NA,NA,NA,NA,NA,NA,NA,NA,NA,NA,0,1,1,0,1,NA,NA,NA,NA,NA,NA,NA,NA,NA,NA,NA,NA,NA
NA,NA,NA,NA,NA,NA,NA,NA,NA,NA,NA,SUPAMT10666,33LK57MYLZ4BM1KLVTSQ641L5CNSZS,FCACD793-2AEF-4C53-99D5-C7ADA7435FE1,0,2023-09-18_11h54.57.397,Pilot_VExplicitOC_RG_AMT,2022.2.5,Win32,22.1479037,NA,NA,NA,NA,NA,NA,NA,NA,NA,NA,NA,NA,NA,NA,bored,"bored, not bored","more bored, less bored",NA,NA,72.91666667,3.0928,2.1143,NA,NA,NA,NA,NA,NA,NA,NA,NA,NA,NA,NA,NA,NA,NA,NA,NA,NA,NA,NA,NA,NA,NA,NA,NA,NA,NA,NA,NA,NA,NA,NA,NA,NA,NA,NA,NA,NA,NA,NA,NA,NA,NA,NA,NA,NA,NA,NA,NA,NA,NA,NA,NA,NA,NA,NA,NA,NA,NA,NA,NA,NA,NA,NA,NA,NA,NA,NA,NA,NA,NA,NA,NA,NA,NA,NA,NA,NA,NA,NA,0,2,2,2,1,NA,NA,NA,NA,NA,NA,NA,NA,NA,NA,NA,NA,NA
NA,NA,NA,NA,NA,NA,NA,NA,NA,NA,NA,SUPAMT10666,33LK57MYLZ4BM1KLVTSQ641L5CNSZS,FCACD793-2AEF-4C53-99D5-C7ADA7435FE1,0,2023-09-18_11h54.57.397,Pilot_VExplicitOC_RG_AMT,2022.2.5,Win32,22.1479037,NA,NA,NA,NA,NA,NA,NA,NA,NA,NA,NA,NA,NA,NA,NA,NA,NA,NA,NA,NA,NA,NA,NA,NA,NA,NA,NA,NA,NA,NA,NA,NA,NA,NA,NA,NA,NA,NA,NA,NA,NA,NA,NA,NA,NA,NA,NA,NA,NA,NA,NA,NA,NA,NA,NA,NA,NA,NA,NA,NA,NA,NA,NA,NA,NA,NA,NA,NA,NA,NA,NA,NA,NA,NA,NA,NA,NA,NA,NA,NA,NA,NA,NA,NA,NA,NA,NA,NA,NA,NA,NA,NA,NA,NA,NA,NA,NA,NA,NA,NA,NA,NA,NA,NA,NA,NA,NA,0,23,23,10,1,-1.9,NA,NA,NA,NA,NA,NA,NA
NA,NA,NA,NA,NA,NA,NA,NA,NA,NA,NA,SUPAMT10666,33LK57MYLZ4BM1KLVTSQ641L5CNSZS,FCACD793-2AEF-4C53-99D5-C7ADA7435FE1,0,2023-09-18_11h54.57.397,Pilot_VExplicitOC_RG_AMT,2022.2.5,Win32,22.1479037,NA,NA,NA,NA,NA,NA,NA,NA,NA,NA,NA,NA,NA,NA,NA,NA,NA,NA,NA,NA,NA,NA,NA,NA,NA,NA,NA,NA,NA,NA,NA,NA,NA,NA,NA,NA,NA,NA,NA,NA,NA,NA,NA,NA,NA,NA,NA,NA,NA,NA,NA,NA,NA,NA,NA,NA,NA,NA,NA,NA,NA,NA,NA,NA,NA,NA,NA,NA,NA,NA,NA,NA,NA,NA,NA,NA,NA,NA,NA,NA,NA,NA,NA,NA,NA,random,FALSE,FALSE,FALSE,0.5,0,0,-0.928467723,2.8,1.871532277,2.181021518,gamble,lose,1.871532277,15.61434567,right,1.5472,NA,NA,NA,NA,NA,0,24,24,4,1,2.8,NA,NA,NA,NA,NA,NA,NA
NA,NA,NA,NA,NA,NA,NA,NA,NA,NA,NA,SUPAMT10666,33LK57MYLZ4BM1KLVTSQ641L5CNSZS,FCACD793-2AEF-4C53-99D5-C7ADA7435FE1,0,2023-09-18_11h54.57.397,Pilot_VExplicitOC_RG_AMT,2022.2.5,Win32,22.1479037,NA,NA,NA,NA,NA,NA,NA,NA,NA,NA,NA,NA,NA,NA,NA,NA,NA,NA,NA,NA,NA,NA,NA,NA,NA,NA,NA,NA,NA,NA,NA,NA,NA,NA,NA,NA,NA,NA,NA,NA,NA,NA,NA,NA,NA,NA,NA,NA,NA,NA,NA,NA,NA,NA,NA,NA,NA,NA,NA,NA,NA,NA,NA,NA,NA,NA,NA,NA,NA,NA,NA,NA,NA,NA,NA,NA,NA,NA,NA,NA,NA,NA,NA,NA,NA,random,FALSE,FALSE,FALSE,0.5,0,0,-3.679722172,-1.7,-5.379722172,-4.153148115,gamble,lose,-5.379722172,10.2346235,right,0.8311,NA,NA,NA,NA,NA,0,25,25,12,1,-1.7,NA,NA,NA,NA,NA,NA,NA
NA,NA,NA,NA,NA,NA,NA,NA,NA,NA,NA,SUPAMT10666,33LK57MYLZ4BM1KLVTSQ641L5CNSZS,FCACD793-2AEF-4C53-99D5-C7ADA7435FE1,0,2023-09-18_11h54.57.397,Pilot_VExplicitOC_RG_AMT,2022.2.5,Win32,22.1479037,NA,NA,NA,NA,NA,NA,NA,NA,NA,NA,NA,NA,NA,NA,bored,"bored, not bored","more bored, less bored",NA,NA,68.75,3.2588,2.0352,NA,NA,NA,NA,NA,NA,NA,NA,NA,NA,NA,NA,NA,NA,NA,NA,NA,NA,NA,NA,NA,NA,NA,NA,NA,NA,NA,NA,NA,NA,NA,NA,NA,NA,NA,NA,NA,NA,NA,NA,NA,NA,NA,NA,NA,NA,NA,NA,NA,NA,NA,NA,NA,NA,NA,NA,NA,NA,NA,NA,NA,NA,NA,random,FALSE,FALSE,TRUE,0.5,0,0,-4.966526643,0.1,-4.866526643,-3.211017762,gamble,lose,-4.866526643,5.3680968590000004,right,2.3006,0,0,0,2,1,NA,NA,NA,NA,NA,NA,NA,NA,NA,NA,NA,NA,NA
NA,NA,NA,NA,NA,NA,NA,NA,NA,NA,NA,SUPAMT10666,33LK57MYLZ4BM1KLVTSQ641L5CNSZS,FCACD793-2AEF-4C53-99D5-C7ADA7435FE1,0,2023-09-18_11h54.57.397,Pilot_VExplicitOC_RG_AMT,2022.2.5,Win32,22.1479037,NA,NA,NA,NA,NA,NA,NA,NA,NA,NA,NA,NA,NA,NA,frustrated,"frustrated, not frustrated","more frustrated, less frustrated",NA,NA,68.75,2.9095,2.0483,NA,NA,NA,NA,NA,NA,NA,NA,NA,NA,NA,NA,NA,NA,NA,NA,NA,NA,NA,NA,NA,NA,NA,NA,NA,NA,NA,NA,NA,NA,NA,NA,NA,NA,NA,NA,NA,NA,NA,NA,NA,NA,NA,NA,NA,NA,NA,NA,NA,NA,NA,NA,NA,NA,NA,NA,NA,NA,NA,NA,NA,NA,NA,NA,NA,NA,NA,NA,NA,NA,NA,NA,NA,NA,NA,NA,NA,NA,NA,NA,0,1,1,1,1,NA,NA,NA,NA,NA,NA,NA,NA,NA,NA,NA,NA,NA
NA,NA,NA,NA,NA,NA,NA,NA,NA,NA,NA,SUPAMT10666,33LK57MYLZ4BM1KLVTSQ641L5CNSZS,FCACD793-2AEF-4C53-99D5-C7ADA7435FE1,0,2023-09-18_11h54.57.397,Pilot_VExplicitOC_RG_AMT,2022.2.5,Win32,22.1479037,NA,NA,NA,NA,NA,NA,NA,NA,NA,NA,NA,NA,NA,NA,happy,"unhappy, happy","less happy, more happy",NA,NA,69.53125,2.9369,2.065,NA,NA,NA,NA,NA,NA,NA,NA,NA,NA,NA,NA,NA,NA,NA,NA,NA,NA,NA,NA,NA,NA,NA,NA,NA,NA,NA,NA,NA,NA,NA,NA,NA,NA,NA,NA,NA,NA,NA,NA,NA,NA,NA,NA,NA,NA,NA,NA,NA,NA,NA,NA,NA,NA,NA,NA,NA,NA,NA,NA,NA,NA,NA,NA,NA,NA,NA,NA,NA,NA,NA,NA,NA,NA,NA,NA,NA,NA,NA,NA,0,2,2,0,1,NA,NA,NA,NA,NA,NA,NA,NA,NA,NA,NA,NA,NA
NA,NA,NA,NA,NA,NA,NA,NA,NA,NA,NA,SUPAMT10666,33LK57MYLZ4BM1KLVTSQ641L5CNSZS,FCACD793-2AEF-4C53-99D5-C7ADA7435FE1,0,2023-09-18_11h54.57.397,Pilot_VExplicitOC_RG_AMT,2022.2.5,Win32,22.1479037,NA,NA,NA,NA,NA,NA,NA,NA,NA,NA,NA,NA,NA,NA,NA,NA,NA,NA,NA,NA,NA,NA,NA,NA,NA,NA,NA,NA,NA,NA,NA,NA,NA,NA,NA,NA,NA,NA,NA,NA,NA,NA,NA,NA,NA,NA,NA,NA,NA,NA,NA,NA,NA,NA,NA,NA,NA,NA,NA,NA,NA,NA,NA,NA,NA,NA,NA,NA,NA,NA,NA,NA,NA,NA,NA,NA,NA,NA,NA,NA,NA,NA,NA,NA,NA,NA,NA,NA,NA,NA,NA,NA,NA,NA,NA,NA,NA,NA,NA,NA,NA,NA,NA,NA,NA,NA,NA,0,26,26,18,1,0.1,NA,NA,NA,NA,NA,NA,NA
NA,NA,NA,NA,NA,NA,NA,NA,NA,NA,NA,SUPAMT10666,33LK57MYLZ4BM1KLVTSQ641L5CNSZS,FCACD793-2AEF-4C53-99D5-C7ADA7435FE1,0,2023-09-18_11h54.57.397,Pilot_VExplicitOC_RG_AMT,2022.2.5,Win32,22.1479037,NA,NA,NA,NA,NA,NA,NA,NA,NA,NA,NA,NA,NA,NA,NA,NA,NA,NA,NA,NA,NA,NA,NA,NA,NA,NA,NA,NA,NA,NA,NA,NA,NA,NA,NA,NA,NA,NA,NA,NA,NA,NA,NA,NA,NA,NA,NA,NA,NA,NA,NA,NA,NA,NA,NA,NA,NA,NA,NA,NA,NA,NA,NA,NA,NA,NA,NA,NA,NA,NA,NA,NA,NA,NA,NA,NA,NA,NA,NA,NA,NA,NA,NA,NA,NA,random,FALSE,FALSE,TRUE,0.5,0,0,2.7222396,2.4222396,-0.3,0.6074132,gamble,win,2.4222396,7.79033646,right,2.3173,NA,NA,NA,NA,NA,0,27,27,19,1,-0.3,NA,NA,NA,NA,NA,NA,NA
