getAnswerDur,showChoiceDur,showResultDur,isiDur,itiDur,iriDur,rpeHighMax,rpeLowMax,pCongruent,maxIncongInARow,blockCond,participant,session,completion,condition,date,expName,psychopyVersion,OS,frameRate,key_resp_2.keys,key_resp_2.rt,key_resp_10.keys,key_resp_10.rt,key_resp_8.keys,key_resp_8.rt,rating_all_t.response,rating_all_t.rt,rating_all_t.tStart,rndRatTrial.thisRepN,rndRatTrial.thisTrialN,rndRatTrial.thisN,rndRatTrial.thisIndex,rndRatTrial.ran,Emo,Labs,Labs2,key_resp_9.keys,key_resp_9.rt,rating_all.response,rating_all.rt,rating_all.tStart,rndRat1.thisRepN,rndRat1.thisTrialN,rndRat1.thisN,rndRat1.thisIndex,rndRat1.ran,key_resp_3.keys,key_resp_3.rt,key_resp_4.keys,key_resp_4.rt,rating_alt.response,rating_alt.rt,AltC.thisRepN,AltC.thisTrialN,AltC.thisN,AltC.thisIndex,AltC.ran,alt_choices,pic_choices,TopAlt_Choice,rndRat2.thisRepN,rndRat2.thisTrialN,rndRat2.thisN,rndRat2.thisIndex,rndRat2.ran,key_resp_5.keys,key_resp_5.rt,rndRat3.thisRepN,rndRat3.thisTrialN,rndRat3.thisN,rndRat3.thisIndex,rndRat3.ran,key_resp_6.keys,key_resp_6.rt,rating_alt_2.response,rating_alt_2.rt,AltC2.thisRepN,AltC2.thisTrialN,AltC2.thisN,AltC2.thisIndex,AltC2.ran,alt_choices2,pic_choices2,TopAlt_Choice2,rndRat4.thisRepN,rndRat4.thisTrialN,rndRat4.thisN,rndRat4.thisIndex,rndRat4.ran,key_resp_7.keys,key_resp_7.rt,instrLoop.thisRepN,instrLoop.thisTrialN,instrLoop.thisN,instrLoop.thisIndex,instrLoop.ran,currSlide,currImage,currText,OC2Loop.thisRepN,OC2Loop.thisTrialN,OC2Loop.thisN,OC2Loop.thisIndex,OC2Loop.ran,targetHappiness,isHappyBlock,isCongruent,isWinOnTop,lastHappyRating,diff,sumDiff,RPE,winAmount,loseAmount,certainAmount,choice,outcome,outcomeAmount,currentWinnings,choiceKey.keys,choiceKey.rt,rndRat5.thisRepN,rndRat5.thisTrialN,rndRat5.thisN,rndRat5.thisIndex,rndRat5.ran,trialLoop.thisRepN,trialLoop.thisTrialN,trialLoop.thisN,trialLoop.thisIndex,trialLoop.ran,highAmount,finalWinnings,cashBonus,key_resp_11.keys,key_resp_11.rt,logWinningsLoop.thisRepN,logWinningsLoop.thisTrialN,logWinningsLoop.thisN,logWinningsLoop.thisIndex,logWinningsLoop.ran
3,4,1,1,2,30,5,0.03,0.7,3,Blocks_RestRandom.xlsx,SUPAMT61006,32Z9ZLUT1RJAXOSYIQ5AMSNFDIZOH4,420E951D-E36C-4FFA-B8DE-91DFD1B1EF42,0,2023-09-22_08h32.03.176,Pilot_VExplicitOC_RG_AMT,2022.2.5,Win32,16.50246712,NA,NA,NA,NA,NA,NA,NA,NA,NA,NA,NA,NA,NA,NA,NA,NA,NA,NA,NA,NA,NA,NA,NA,NA,NA,NA,NA,NA,NA,NA,NA,NA,NA,NA,NA,NA,NA,NA,NA,NA,NA,NA,NA,NA,NA,NA,NA,NA,NA,NA,NA,NA,NA,NA,NA,NA,NA,NA,NA,NA,NA,NA,NA,NA,NA,NA,NA,NA,NA,NA,NA,NA,NA,NA,NA,NA,NA,NA,NA,NA,NA,NA,NA,NA,NA,NA,NA,NA,NA,NA,NA,NA,NA,NA,NA,NA,NA,NA,NA,NA,NA,NA,NA,NA,NA,NA,NA,NA,NA,NA,NA,NA,NA,NA,NA,NA,NA,NA,NA,NA,NA,NA
NA,NA,NA,NA,NA,NA,NA,NA,NA,NA,NA,SUPAMT61006,32Z9ZLUT1RJAXOSYIQ5AMSNFDIZOH4,420E951D-E36C-4FFA-B8DE-91DFD1B1EF42,0,2023-09-22_08h32.03.176,Pilot_VExplicitOC_RG_AMT,2022.2.5,Win32,16.50246712,space,5.187599999,NA,NA,NA,NA,NA,NA,NA,NA,NA,NA,NA,NA,NA,NA,NA,NA,NA,NA,NA,NA,NA,NA,NA,NA,NA,NA,NA,NA,NA,NA,NA,NA,NA,NA,NA,NA,NA,NA,NA,NA,NA,NA,NA,NA,NA,NA,NA,NA,NA,NA,NA,NA,NA,NA,NA,NA,NA,NA,NA,NA,NA,NA,NA,NA,NA,NA,NA,NA,NA,NA,NA,NA,NA,NA,NA,NA,NA,NA,NA,NA,NA,NA,NA,NA,NA,NA,NA,NA,NA,NA,NA,NA,NA,NA,NA,NA,NA,NA,NA,NA,NA,NA,NA,NA,NA,NA,NA,NA,NA,NA,NA,NA,NA,NA,NA,NA,NA,NA,NA,NA
NA,NA,NA,NA,NA,NA,NA,NA,NA,NA,NA,SUPAMT61006,32Z9ZLUT1RJAXOSYIQ5AMSNFDIZOH4,420E951D-E36C-4FFA-B8DE-91DFD1B1EF42,0,2023-09-22_08h32.03.176,Pilot_VExplicitOC_RG_AMT,2022.2.5,Win32,16.50246712,NA,NA,space,6.0245,NA,NA,NA,NA,NA,NA,NA,NA,NA,NA,NA,NA,NA,NA,NA,NA,NA,NA,NA,NA,NA,NA,NA,NA,NA,NA,NA,NA,NA,NA,NA,NA,NA,NA,NA,NA,NA,NA,NA,NA,NA,NA,NA,NA,NA,NA,NA,NA,NA,NA,NA,NA,NA,NA,NA,NA,NA,NA,NA,NA,NA,NA,NA,NA,NA,NA,NA,NA,NA,NA,NA,NA,NA,NA,NA,NA,NA,NA,NA,NA,NA,NA,NA,NA,NA,NA,NA,NA,NA,NA,NA,NA,NA,NA,NA,NA,NA,NA,NA,NA,NA,NA,NA,NA,NA,NA,NA,NA,NA,NA,NA,NA,NA,NA,NA,NA,NA,NA
NA,NA,NA,NA,NA,NA,NA,NA,NA,NA,NA,SUPAMT61006,32Z9ZLUT1RJAXOSYIQ5AMSNFDIZOH4,420E951D-E36C-4FFA-B8DE-91DFD1B1EF42,0,2023-09-22_08h32.03.176,Pilot_VExplicitOC_RG_AMT,2022.2.5,Win32,16.50246712,NA,NA,NA,NA,space,3.5054,NA,NA,NA,NA,NA,NA,NA,NA,NA,NA,NA,NA,NA,NA,NA,NA,NA,NA,NA,NA,NA,NA,NA,NA,NA,NA,NA,NA,NA,NA,NA,NA,NA,NA,NA,NA,NA,NA,NA,NA,NA,NA,NA,NA,NA,NA,NA,NA,NA,NA,NA,NA,NA,NA,NA,NA,NA,NA,NA,NA,NA,NA,NA,NA,NA,NA,NA,NA,NA,NA,NA,NA,NA,NA,NA,NA,NA,NA,NA,NA,NA,NA,NA,NA,NA,NA,NA,NA,NA,NA,NA,NA,NA,NA,NA,NA,NA,NA,NA,NA,NA,NA,NA,NA,NA,NA,NA,NA,NA,NA,NA,NA,NA,NA,NA,NA
NA,NA,NA,NA,NA,NA,NA,NA,NA,NA,NA,SUPAMT61006,32Z9ZLUT1RJAXOSYIQ5AMSNFDIZOH4,420E951D-E36C-4FFA-B8DE-91DFD1B1EF42,0,2023-09-22_08h32.03.176,Pilot_VExplicitOC_RG_AMT,2022.2.5,Win32,16.50246712,NA,NA,NA,NA,NA,NA,59.11458333,4.7329,2.0245,0,0,0,2,1,bored,"bored, not bored","more bored, less bored",NA,NA,NA,NA,NA,NA,NA,NA,NA,NA,NA,NA,NA,NA,NA,NA,NA,NA,NA,NA,NA,NA,NA,NA,NA,NA,NA,NA,NA,NA,NA,NA,NA,NA,NA,NA,NA,NA,NA,NA,NA,NA,NA,NA,NA,NA,NA,NA,NA,NA,NA,NA,NA,NA,NA,NA,NA,NA,NA,NA,NA,NA,NA,NA,NA,NA,NA,NA,NA,NA,NA,NA,NA,NA,NA,NA,NA,NA,NA,NA,NA,NA,NA,NA,NA,NA,NA,NA,NA,NA,NA,NA,NA,NA,NA,NA,NA,NA,NA,NA,NA,NA,NA,NA,NA
NA,NA,NA,NA,NA,NA,NA,NA,NA,NA,NA,SUPAMT61006,32Z9ZLUT1RJAXOSYIQ5AMSNFDIZOH4,420E951D-E36C-4FFA-B8DE-91DFD1B1EF42,0,2023-09-22_08h32.03.176,Pilot_VExplicitOC_RG_AMT,2022.2.5,Win32,16.50246712,NA,NA,NA,NA,NA,NA,52.34375,4.0285,2.018900001,0,1,1,0,1,happy,"unhappy, happy","less happy, more happy",NA,NA,NA,NA,NA,NA,NA,NA,NA,NA,NA,NA,NA,NA,NA,NA,NA,NA,NA,NA,NA,NA,NA,NA,NA,NA,NA,NA,NA,NA,NA,NA,NA,NA,NA,NA,NA,NA,NA,NA,NA,NA,NA,NA,NA,NA,NA,NA,NA,NA,NA,NA,NA,NA,NA,NA,NA,NA,NA,NA,NA,NA,NA,NA,NA,NA,NA,NA,NA,NA,NA,NA,NA,NA,NA,NA,NA,NA,NA,NA,NA,NA,NA,NA,NA,NA,NA,NA,NA,NA,NA,NA,NA,NA,NA,NA,NA,NA,NA,NA,NA,NA,NA,NA,NA
NA,NA,NA,NA,NA,NA,NA,NA,NA,NA,NA,SUPAMT61006,32Z9ZLUT1RJAXOSYIQ5AMSNFDIZOH4,420E951D-E36C-4FFA-B8DE-91DFD1B1EF42,0,2023-09-22_08h32.03.176,Pilot_VExplicitOC_RG_AMT,2022.2.5,Win32,16.50246712,NA,NA,NA,NA,NA,NA,54.94791667,4.6781,2.0239,0,2,2,1,1,frustrated,"frustrated, not frustrated","more frustrated, less frustrated",NA,NA,NA,NA,NA,NA,NA,NA,NA,NA,NA,NA,NA,NA,NA,NA,NA,NA,NA,NA,NA,NA,NA,NA,NA,NA,NA,NA,NA,NA,NA,NA,NA,NA,NA,NA,NA,NA,NA,NA,NA,NA,NA,NA,NA,NA,NA,NA,NA,NA,NA,NA,NA,NA,NA,NA,NA,NA,NA,NA,NA,NA,NA,NA,NA,NA,NA,NA,NA,NA,NA,NA,NA,NA,NA,NA,NA,NA,NA,NA,NA,NA,NA,NA,NA,NA,NA,NA,NA,NA,NA,NA,NA,NA,NA,NA,NA,NA,NA,NA,NA,NA,NA,NA,NA
NA,NA,NA,NA,NA,NA,NA,NA,NA,NA,NA,SUPAMT61006,32Z9ZLUT1RJAXOSYIQ5AMSNFDIZOH4,420E951D-E36C-4FFA-B8DE-91DFD1B1EF42,0,2023-09-22_08h32.03.176,Pilot_VExplicitOC_RG_AMT,2022.2.5,Win32,16.50246712,NA,NA,NA,NA,NA,NA,NA,NA,NA,NA,NA,NA,NA,NA,NA,NA,NA,space,2.3718,NA,NA,NA,NA,NA,NA,NA,NA,NA,NA,NA,NA,NA,NA,NA,NA,NA,NA,NA,NA,NA,NA,NA,NA,NA,NA,NA,NA,NA,NA,NA,NA,NA,NA,NA,NA,NA,NA,NA,NA,NA,NA,NA,NA,NA,NA,NA,NA,NA,NA,NA,NA,NA,NA,NA,NA,NA,NA,NA,NA,NA,NA,NA,NA,NA,NA,NA,NA,NA,NA,NA,NA,NA,NA,NA,NA,NA,NA,NA,NA,NA,NA,NA,NA,NA,NA,NA,NA,NA,NA,NA,NA,NA,NA,NA,NA,NA,NA,NA,NA,NA,NA,NA
NA,NA,NA,NA,NA,NA,NA,NA,NA,NA,NA,SUPAMT61006,32Z9ZLUT1RJAXOSYIQ5AMSNFDIZOH4,420E951D-E36C-4FFA-B8DE-91DFD1B1EF42,0,2023-09-22_08h32.03.176,Pilot_VExplicitOC_RG_AMT,2022.2.5,Win32,16.50246712,NA,NA,NA,NA,NA,NA,NA,NA,NA,NA,NA,NA,NA,NA,happy,"unhappy, happy","less happy, more happy",NA,NA,41.66666667,5.238,2.0373,0,0,0,0,1,NA,NA,NA,NA,NA,NA,NA,NA,NA,NA,NA,NA,NA,NA,NA,NA,NA,NA,NA,NA,NA,NA,NA,NA,NA,NA,NA,NA,NA,NA,NA,NA,NA,NA,NA,NA,NA,NA,NA,NA,NA,NA,NA,NA,NA,NA,NA,NA,NA,NA,NA,NA,NA,NA,NA,NA,NA,NA,NA,NA,NA,NA,NA,NA,NA,NA,NA,NA,NA,NA,NA,NA,NA,NA,NA,NA,NA,NA,NA,NA,NA,NA,NA,NA,NA,NA,NA,NA,NA,NA,NA,NA,NA,NA,NA
NA,NA,NA,NA,NA,NA,NA,NA,NA,NA,NA,SUPAMT61006,32Z9ZLUT1RJAXOSYIQ5AMSNFDIZOH4,420E951D-E36C-4FFA-B8DE-91DFD1B1EF42,0,2023-09-22_08h32.03.176,Pilot_VExplicitOC_RG_AMT,2022.2.5,Win32,16.50246712,NA,NA,NA,NA,NA,NA,NA,NA,NA,NA,NA,NA,NA,NA,frustrated,"frustrated, not frustrated","more frustrated, less frustrated",NA,NA,46.35416667,3.7538,2.000200001,0,1,1,1,1,NA,NA,NA,NA,NA,NA,NA,NA,NA,NA,NA,NA,NA,NA,NA,NA,NA,NA,NA,NA,NA,NA,NA,NA,NA,NA,NA,NA,NA,NA,NA,NA,NA,NA,NA,NA,NA,NA,NA,NA,NA,NA,NA,NA,NA,NA,NA,NA,NA,NA,NA,NA,NA,NA,NA,NA,NA,NA,NA,NA,NA,NA,NA,NA,NA,NA,NA,NA,NA,NA,NA,NA,NA,NA,NA,NA,NA,NA,NA,NA,NA,NA,NA,NA,NA,NA,NA,NA,NA,NA,NA,NA,NA,NA,NA
NA,NA,NA,NA,NA,NA,NA,NA,NA,NA,NA,SUPAMT61006,32Z9ZLUT1RJAXOSYIQ5AMSNFDIZOH4,420E951D-E36C-4FFA-B8DE-91DFD1B1EF42,0,2023-09-22_08h32.03.176,Pilot_VExplicitOC_RG_AMT,2022.2.5,Win32,16.50246712,NA,NA,NA,NA,NA,NA,NA,NA,NA,NA,NA,NA,NA,NA,bored,"bored, not bored","more bored, less bored",NA,NA,82.8125,3.564799999,2.0471,0,2,2,2,1,NA,NA,NA,NA,NA,NA,NA,NA,NA,NA,NA,NA,NA,NA,NA,NA,NA,NA,NA,NA,NA,NA,NA,NA,NA,NA,NA,NA,NA,NA,NA,NA,NA,NA,NA,NA,NA,NA,NA,NA,NA,NA,NA,NA,NA,NA,NA,NA,NA,NA,NA,NA,NA,NA,NA,NA,NA,NA,NA,NA,NA,NA,NA,NA,NA,NA,NA,NA,NA,NA,NA,NA,NA,NA,NA,NA,NA,NA,NA,NA,NA,NA,NA,NA,NA,NA,NA,NA,NA,NA,NA,NA,NA,NA,NA
NA,NA,NA,NA,NA,NA,NA,NA,NA,NA,NA,SUPAMT61006,32Z9ZLUT1RJAXOSYIQ5AMSNFDIZOH4,420E951D-E36C-4FFA-B8DE-91DFD1B1EF42,0,2023-09-22_08h32.03.176,Pilot_VExplicitOC_RG_AMT,2022.2.5,Win32,16.50246712,NA,NA,NA,NA,NA,NA,NA,NA,NA,NA,NA,NA,NA,NA,NA,NA,NA,NA,NA,NA,NA,NA,NA,NA,NA,NA,NA,space,2.4308,space,1.3977,54.6875,2.6082,0,0,0,0,1,rest (looking at a fixed cross),001.png,NA,NA,NA,NA,NA,NA,NA,NA,NA,NA,NA,NA,NA,NA,NA,NA,NA,NA,NA,NA,NA,NA,NA,NA,NA,NA,NA,NA,NA,NA,NA,NA,NA,NA,NA,NA,NA,NA,NA,NA,NA,NA,NA,NA,NA,NA,NA,NA,NA,NA,NA,NA,NA,NA,NA,NA,NA,NA,NA,NA,NA,NA,NA,NA,NA,NA,NA,NA,NA,NA,NA,NA,NA,NA,NA,NA,NA,NA,NA,NA,NA,NA
NA,NA,NA,NA,NA,NA,NA,NA,NA,NA,NA,SUPAMT61006,32Z9ZLUT1RJAXOSYIQ5AMSNFDIZOH4,420E951D-E36C-4FFA-B8DE-91DFD1B1EF42,0,2023-09-22_08h32.03.176,Pilot_VExplicitOC_RG_AMT,2022.2.5,Win32,16.50246712,NA,NA,NA,NA,NA,NA,NA,NA,NA,NA,NA,NA,NA,NA,NA,NA,NA,NA,NA,NA,NA,NA,NA,NA,NA,NA,NA,NA,NA,NA,NA,38.02083333,3.8316,0,1,1,1,1,stand up,002.png,NA,NA,NA,NA,NA,NA,NA,NA,NA,NA,NA,NA,NA,NA,NA,NA,NA,NA,NA,NA,NA,NA,NA,NA,NA,NA,NA,NA,NA,NA,NA,NA,NA,NA,NA,NA,NA,NA,NA,NA,NA,NA,NA,NA,NA,NA,NA,NA,NA,NA,NA,NA,NA,NA,NA,NA,NA,NA,NA,NA,NA,NA,NA,NA,NA,NA,NA,NA,NA,NA,NA,NA,NA,NA,NA,NA,NA,NA,NA,NA,NA,NA
NA,NA,NA,NA,NA,NA,NA,NA,NA,NA,NA,SUPAMT61006,32Z9ZLUT1RJAXOSYIQ5AMSNFDIZOH4,420E951D-E36C-4FFA-B8DE-91DFD1B1EF42,0,2023-09-22_08h32.03.176,Pilot_VExplicitOC_RG_AMT,2022.2.5,Win32,16.50246712,NA,NA,NA,NA,NA,NA,NA,NA,NA,NA,NA,NA,NA,NA,NA,NA,NA,NA,NA,NA,NA,NA,NA,NA,NA,NA,NA,NA,NA,NA,NA,31.25,1.9368,0,2,2,2,1,stretch,003.png,NA,NA,NA,NA,NA,NA,NA,NA,NA,NA,NA,NA,NA,NA,NA,NA,NA,NA,NA,NA,NA,NA,NA,NA,NA,NA,NA,NA,NA,NA,NA,NA,NA,NA,NA,NA,NA,NA,NA,NA,NA,NA,NA,NA,NA,NA,NA,NA,NA,NA,NA,NA,NA,NA,NA,NA,NA,NA,NA,NA,NA,NA,NA,NA,NA,NA,NA,NA,NA,NA,NA,NA,NA,NA,NA,NA,NA,NA,NA,NA,NA,NA
NA,NA,NA,NA,NA,NA,NA,NA,NA,NA,NA,SUPAMT61006,32Z9ZLUT1RJAXOSYIQ5AMSNFDIZOH4,420E951D-E36C-4FFA-B8DE-91DFD1B1EF42,0,2023-09-22_08h32.03.176,Pilot_VExplicitOC_RG_AMT,2022.2.5,Win32,16.50246712,NA,NA,NA,NA,NA,NA,NA,NA,NA,NA,NA,NA,NA,NA,NA,NA,NA,NA,NA,NA,NA,NA,NA,NA,NA,NA,NA,NA,NA,NA,NA,34.11458333,3.2184,0,3,3,3,1,make a drink,004.png,NA,NA,NA,NA,NA,NA,NA,NA,NA,NA,NA,NA,NA,NA,NA,NA,NA,NA,NA,NA,NA,NA,NA,NA,NA,NA,NA,NA,NA,NA,NA,NA,NA,NA,NA,NA,NA,NA,NA,NA,NA,NA,NA,NA,NA,NA,NA,NA,NA,NA,NA,NA,NA,NA,NA,NA,NA,NA,NA,NA,NA,NA,NA,NA,NA,NA,NA,NA,NA,NA,NA,NA,NA,NA,NA,NA,NA,NA,NA,NA,NA,NA
NA,NA,NA,NA,NA,NA,NA,NA,NA,NA,NA,SUPAMT61006,32Z9ZLUT1RJAXOSYIQ5AMSNFDIZOH4,420E951D-E36C-4FFA-B8DE-91DFD1B1EF42,0,2023-09-22_08h32.03.176,Pilot_VExplicitOC_RG_AMT,2022.2.5,Win32,16.50246712,NA,NA,NA,NA,NA,NA,NA,NA,NA,NA,NA,NA,NA,NA,NA,NA,NA,NA,NA,NA,NA,NA,NA,NA,NA,NA,NA,NA,NA,NA,NA,60.67708333,2.112900001,0,4,4,4,1,scroll social media,005.png,NA,NA,NA,NA,NA,NA,NA,NA,NA,NA,NA,NA,NA,NA,NA,NA,NA,NA,NA,NA,NA,NA,NA,NA,NA,NA,NA,NA,NA,NA,NA,NA,NA,NA,NA,NA,NA,NA,NA,NA,NA,NA,NA,NA,NA,NA,NA,NA,NA,NA,NA,NA,NA,NA,NA,NA,NA,NA,NA,NA,NA,NA,NA,NA,NA,NA,NA,NA,NA,NA,NA,NA,NA,NA,NA,NA,NA,NA,NA,NA,NA,NA
NA,NA,NA,NA,NA,NA,NA,NA,NA,NA,NA,SUPAMT61006,32Z9ZLUT1RJAXOSYIQ5AMSNFDIZOH4,420E951D-E36C-4FFA-B8DE-91DFD1B1EF42,0,2023-09-22_08h32.03.176,Pilot_VExplicitOC_RG_AMT,2022.2.5,Win32,16.50246712,NA,NA,NA,NA,NA,NA,NA,NA,NA,NA,NA,NA,NA,NA,NA,NA,NA,NA,NA,NA,NA,NA,NA,NA,NA,NA,NA,NA,NA,NA,NA,-17.44791667,2.0415,0,5,5,5,1,listen to music,006.png,NA,NA,NA,NA,NA,NA,NA,NA,NA,NA,NA,NA,NA,NA,NA,NA,NA,NA,NA,NA,NA,NA,NA,NA,NA,NA,NA,NA,NA,NA,NA,NA,NA,NA,NA,NA,NA,NA,NA,NA,NA,NA,NA,NA,NA,NA,NA,NA,NA,NA,NA,NA,NA,NA,NA,NA,NA,NA,NA,NA,NA,NA,NA,NA,NA,NA,NA,NA,NA,NA,NA,NA,NA,NA,NA,NA,NA,NA,NA,NA,NA,NA
NA,NA,NA,NA,NA,NA,NA,NA,NA,NA,NA,SUPAMT61006,32Z9ZLUT1RJAXOSYIQ5AMSNFDIZOH4,420E951D-E36C-4FFA-B8DE-91DFD1B1EF42,0,2023-09-22_08h32.03.176,Pilot_VExplicitOC_RG_AMT,2022.2.5,Win32,16.50246712,NA,NA,NA,NA,NA,NA,NA,NA,NA,NA,NA,NA,NA,NA,NA,NA,NA,NA,NA,NA,NA,NA,NA,NA,NA,NA,NA,NA,NA,NA,NA,-30.98958333,1.9368,0,6,6,6,1,daydream,007.png,NA,NA,NA,NA,NA,NA,NA,NA,NA,NA,NA,NA,NA,NA,NA,NA,NA,NA,NA,NA,NA,NA,NA,NA,NA,NA,NA,NA,NA,NA,NA,NA,NA,NA,NA,NA,NA,NA,NA,NA,NA,NA,NA,NA,NA,NA,NA,NA,NA,NA,NA,NA,NA,NA,NA,NA,NA,NA,NA,NA,NA,NA,NA,NA,NA,NA,NA,NA,NA,NA,NA,NA,NA,NA,NA,NA,NA,NA,NA,NA,NA,NA
NA,NA,NA,NA,NA,NA,NA,NA,NA,NA,NA,SUPAMT61006,32Z9ZLUT1RJAXOSYIQ5AMSNFDIZOH4,420E951D-E36C-4FFA-B8DE-91DFD1B1EF42,0,2023-09-22_08h32.03.176,Pilot_VExplicitOC_RG_AMT,2022.2.5,Win32,16.50246712,NA,NA,NA,NA,NA,NA,NA,NA,NA,NA,NA,NA,NA,NA,NA,NA,NA,NA,NA,NA,NA,NA,NA,NA,NA,NA,NA,NA,NA,NA,NA,29.94791667,2.0327,0,7,7,7,1,watch a short animation,008.png,NA,NA,NA,NA,NA,NA,NA,NA,NA,NA,NA,NA,NA,NA,NA,NA,NA,NA,NA,NA,NA,NA,NA,NA,NA,NA,NA,NA,NA,NA,NA,NA,NA,NA,NA,NA,NA,NA,NA,NA,NA,NA,NA,NA,NA,NA,NA,NA,NA,NA,NA,NA,NA,NA,NA,NA,NA,NA,NA,NA,NA,NA,NA,NA,NA,NA,NA,NA,NA,NA,NA,NA,NA,NA,NA,NA,NA,NA,NA,NA,NA,NA
NA,NA,NA,NA,NA,NA,NA,NA,NA,NA,NA,SUPAMT61006,32Z9ZLUT1RJAXOSYIQ5AMSNFDIZOH4,420E951D-E36C-4FFA-B8DE-91DFD1B1EF42,0,2023-09-22_08h32.03.176,Pilot_VExplicitOC_RG_AMT,2022.2.5,Win32,16.50246712,NA,NA,NA,NA,NA,NA,NA,NA,NA,NA,NA,NA,NA,NA,NA,NA,NA,NA,NA,NA,NA,NA,NA,NA,NA,NA,NA,NA,NA,NA,NA,60.15625,1.9565,0,8,8,8,1,read a novel,009.png,NA,NA,NA,NA,NA,NA,NA,NA,NA,NA,NA,NA,NA,NA,NA,NA,NA,NA,NA,NA,NA,NA,NA,NA,NA,NA,NA,NA,NA,NA,NA,NA,NA,NA,NA,NA,NA,NA,NA,NA,NA,NA,NA,NA,NA,NA,NA,NA,NA,NA,NA,NA,NA,NA,NA,NA,NA,NA,NA,NA,NA,NA,NA,NA,NA,NA,NA,NA,NA,NA,NA,NA,NA,NA,NA,NA,NA,NA,NA,NA,NA,NA
NA,NA,NA,NA,NA,NA,NA,NA,NA,NA,NA,SUPAMT61006,32Z9ZLUT1RJAXOSYIQ5AMSNFDIZOH4,420E951D-E36C-4FFA-B8DE-91DFD1B1EF42,0,2023-09-22_08h32.03.176,Pilot_VExplicitOC_RG_AMT,2022.2.5,Win32,16.50246712,NA,NA,NA,NA,NA,NA,NA,NA,NA,NA,NA,NA,NA,NA,NA,NA,NA,NA,NA,NA,NA,NA,NA,NA,NA,NA,NA,NA,NA,NA,NA,-11.71875,1.5679,0,9,9,9,1,read the news,010.png,NA,NA,NA,NA,NA,NA,NA,NA,NA,NA,NA,NA,NA,NA,NA,NA,NA,NA,NA,NA,NA,NA,NA,NA,NA,NA,NA,NA,NA,NA,NA,NA,NA,NA,NA,NA,NA,NA,NA,NA,NA,NA,NA,NA,NA,NA,NA,NA,NA,NA,NA,NA,NA,NA,NA,NA,NA,NA,NA,NA,NA,NA,NA,NA,NA,NA,NA,NA,NA,NA,NA,NA,NA,NA,NA,NA,NA,NA,NA,NA,NA,NA
NA,NA,NA,NA,NA,NA,NA,NA,NA,NA,NA,SUPAMT61006,32Z9ZLUT1RJAXOSYIQ5AMSNFDIZOH4,420E951D-E36C-4FFA-B8DE-91DFD1B1EF42,0,2023-09-22_08h32.03.176,Pilot_VExplicitOC_RG_AMT,2022.2.5,Win32,16.50246712,NA,NA,NA,NA,NA,NA,NA,NA,NA,NA,NA,NA,NA,NA,NA,NA,NA,NA,NA,NA,NA,NA,NA,NA,NA,NA,NA,NA,NA,NA,NA,52.34375,0.909400001,0,10,10,10,1,gambling game,011.png,NA,NA,NA,NA,NA,NA,NA,NA,NA,NA,NA,NA,NA,NA,NA,NA,NA,NA,NA,NA,NA,NA,NA,NA,NA,NA,NA,NA,NA,NA,NA,NA,NA,NA,NA,NA,NA,NA,NA,NA,NA,NA,NA,NA,NA,NA,NA,NA,NA,NA,NA,NA,NA,NA,NA,NA,NA,NA,NA,NA,NA,NA,NA,NA,NA,NA,NA,NA,NA,NA,NA,NA,NA,NA,NA,NA,NA,NA,NA,NA,NA,NA
NA,NA,NA,NA,NA,NA,NA,NA,NA,NA,NA,SUPAMT61006,32Z9ZLUT1RJAXOSYIQ5AMSNFDIZOH4,420E951D-E36C-4FFA-B8DE-91DFD1B1EF42,0,2023-09-22_08h32.03.176,Pilot_VExplicitOC_RG_AMT,2022.2.5,Win32,16.50246712,NA,NA,NA,NA,NA,NA,NA,NA,NA,NA,NA,NA,NA,NA,bored,"bored, not bored","more bored, less bored",NA,NA,30.98958333,4.017,2.067099999,NA,NA,NA,NA,NA,NA,NA,NA,NA,NA,NA,NA,NA,NA,NA,NA,NA,NA,scroll social media,0,0,0,2,1,NA,NA,NA,NA,NA,NA,NA,NA,NA,NA,NA,NA,NA,NA,NA,NA,NA,NA,NA,NA,NA,NA,NA,NA,NA,NA,NA,NA,NA,NA,NA,NA,NA,NA,NA,NA,NA,NA,NA,NA,NA,NA,NA,NA,NA,NA,NA,NA,NA,NA,NA,NA,NA,NA,NA,NA,NA,NA,NA,NA,NA,NA,NA,NA,NA,NA,NA,NA,NA,NA,NA,NA,NA,NA,NA,NA
NA,NA,NA,NA,NA,NA,NA,NA,NA,NA,NA,SUPAMT61006,32Z9ZLUT1RJAXOSYIQ5AMSNFDIZOH4,420E951D-E36C-4FFA-B8DE-91DFD1B1EF42,0,2023-09-22_08h32.03.176,Pilot_VExplicitOC_RG_AMT,2022.2.5,Win32,16.50246712,NA,NA,NA,NA,NA,NA,NA,NA,NA,NA,NA,NA,NA,NA,frustrated,"frustrated, not frustrated","more frustrated, less frustrated",NA,NA,58.59375,3.5299,2.0646,NA,NA,NA,NA,NA,NA,NA,NA,NA,NA,NA,NA,NA,NA,NA,NA,NA,NA,NA,0,1,1,1,1,NA,NA,NA,NA,NA,NA,NA,NA,NA,NA,NA,NA,NA,NA,NA,NA,NA,NA,NA,NA,NA,NA,NA,NA,NA,NA,NA,NA,NA,NA,NA,NA,NA,NA,NA,NA,NA,NA,NA,NA,NA,NA,NA,NA,NA,NA,NA,NA,NA,NA,NA,NA,NA,NA,NA,NA,NA,NA,NA,NA,NA,NA,NA,NA,NA,NA,NA,NA,NA,NA,NA,NA,NA,NA,NA,NA
NA,NA,NA,NA,NA,NA,NA,NA,NA,NA,NA,SUPAMT61006,32Z9ZLUT1RJAXOSYIQ5AMSNFDIZOH4,420E951D-E36C-4FFA-B8DE-91DFD1B1EF42,0,2023-09-22_08h32.03.176,Pilot_VExplicitOC_RG_AMT,2022.2.5,Win32,16.50246712,NA,NA,NA,NA,NA,NA,NA,NA,NA,NA,NA,NA,NA,NA,happy,"unhappy, happy","less happy, more happy",NA,NA,7.552083333,3.153400001,2.0398,NA,NA,NA,NA,NA,NA,NA,NA,NA,NA,NA,NA,NA,NA,NA,NA,NA,NA,NA,0,2,2,0,1,NA,NA,NA,NA,NA,NA,NA,NA,NA,NA,NA,NA,NA,NA,NA,NA,NA,NA,NA,NA,NA,NA,NA,NA,NA,NA,NA,NA,NA,NA,NA,NA,NA,NA,NA,NA,NA,NA,NA,NA,NA,NA,NA,NA,NA,NA,NA,NA,NA,NA,NA,NA,NA,NA,NA,NA,NA,NA,NA,NA,NA,NA,NA,NA,NA,NA,NA,NA,NA,NA,NA,NA,NA,NA,NA,NA
NA,NA,NA,NA,NA,NA,NA,NA,NA,NA,NA,SUPAMT61006,32Z9ZLUT1RJAXOSYIQ5AMSNFDIZOH4,420E951D-E36C-4FFA-B8DE-91DFD1B1EF42,0,2023-09-22_08h32.03.176,Pilot_VExplicitOC_RG_AMT,2022.2.5,Win32,16.50246712,NA,NA,NA,NA,NA,NA,NA,NA,NA,NA,NA,NA,NA,NA,bored,"bored, not bored","more bored, less bored",NA,NA,58.07291667,6.2956,2.0394,NA,NA,NA,NA,NA,NA,NA,NA,NA,NA,NA,NA,NA,NA,NA,NA,NA,NA,NA,NA,NA,NA,NA,NA,space,31.2829,0,0,0,2,1,NA,NA,NA,NA,NA,NA,NA,NA,NA,NA,NA,NA,NA,NA,NA,NA,NA,NA,NA,NA,NA,NA,NA,NA,NA,NA,NA,NA,NA,NA,NA,NA,NA,NA,NA,NA,NA,NA,NA,NA,NA,NA,NA,NA,NA,NA,NA,NA,NA,NA,NA,NA,NA,NA,NA,NA,NA,NA,NA,NA,NA,NA,NA,NA,NA,NA,NA,NA,NA
NA,NA,NA,NA,NA,NA,NA,NA,NA,NA,NA,SUPAMT61006,32Z9ZLUT1RJAXOSYIQ5AMSNFDIZOH4,420E951D-E36C-4FFA-B8DE-91DFD1B1EF42,0,2023-09-22_08h32.03.176,Pilot_VExplicitOC_RG_AMT,2022.2.5,Win32,16.50246712,NA,NA,NA,NA,NA,NA,NA,NA,NA,NA,NA,NA,NA,NA,frustrated,"frustrated, not frustrated","more frustrated, less frustrated",NA,NA,NA,NA,2.0649,NA,NA,NA,NA,NA,NA,NA,NA,NA,NA,NA,NA,NA,NA,NA,NA,NA,NA,NA,NA,NA,NA,NA,NA,NA,NA,0,1,1,1,1,NA,NA,NA,NA,NA,NA,NA,NA,NA,NA,NA,NA,NA,NA,NA,NA,NA,NA,NA,NA,NA,NA,NA,NA,NA,NA,NA,NA,NA,NA,NA,NA,NA,NA,NA,NA,NA,NA,NA,NA,NA,NA,NA,NA,NA,NA,NA,NA,NA,NA,NA,NA,NA,NA,NA,NA,NA,NA,NA,NA,NA,NA,NA,NA,NA,NA,NA,NA,NA
NA,NA,NA,NA,NA,NA,NA,NA,NA,NA,NA,SUPAMT61006,32Z9ZLUT1RJAXOSYIQ5AMSNFDIZOH4,420E951D-E36C-4FFA-B8DE-91DFD1B1EF42,0,2023-09-22_08h32.03.176,Pilot_VExplicitOC_RG_AMT,2022.2.5,Win32,16.50246712,NA,NA,NA,NA,NA,NA,NA,NA,NA,NA,NA,NA,NA,NA,happy,"unhappy, happy","less happy, more happy",NA,NA,64.0625,3.9127,2.011099999,NA,NA,NA,NA,NA,NA,NA,NA,NA,NA,NA,NA,NA,NA,NA,NA,NA,NA,NA,NA,NA,NA,NA,NA,NA,NA,0,2,2,0,1,NA,NA,NA,NA,NA,NA,NA,NA,NA,NA,NA,NA,NA,NA,NA,NA,NA,NA,NA,NA,NA,NA,NA,NA,NA,NA,NA,NA,NA,NA,NA,NA,NA,NA,NA,NA,NA,NA,NA,NA,NA,NA,NA,NA,NA,NA,NA,NA,NA,NA,NA,NA,NA,NA,NA,NA,NA,NA,NA,NA,NA,NA,NA,NA,NA,NA,NA,NA,NA
NA,NA,NA,NA,NA,NA,NA,NA,NA,NA,NA,SUPAMT61006,32Z9ZLUT1RJAXOSYIQ5AMSNFDIZOH4,420E951D-E36C-4FFA-B8DE-91DFD1B1EF42,0,2023-09-22_08h32.03.176,Pilot_VExplicitOC_RG_AMT,2022.2.5,Win32,16.50246712,NA,NA,NA,NA,NA,NA,NA,NA,NA,NA,NA,NA,NA,NA,happy,"unhappy, happy","less happy, more happy",NA,NA,42.44791667,5.5173,2.0235,NA,NA,NA,NA,NA,NA,NA,NA,NA,NA,NA,NA,NA,NA,NA,NA,NA,NA,NA,NA,NA,NA,NA,NA,NA,NA,0,0,0,0,1,NA,NA,NA,NA,NA,NA,NA,NA,NA,NA,NA,NA,NA,NA,NA,NA,NA,NA,NA,NA,NA,NA,NA,NA,NA,NA,NA,NA,NA,NA,NA,NA,NA,NA,NA,NA,NA,NA,NA,NA,NA,NA,NA,NA,NA,NA,NA,NA,NA,NA,NA,NA,NA,NA,NA,NA,NA,NA,NA,NA,NA,NA,NA,NA,NA,NA,NA,NA,NA
NA,NA,NA,NA,NA,NA,NA,NA,NA,NA,NA,SUPAMT61006,32Z9ZLUT1RJAXOSYIQ5AMSNFDIZOH4,420E951D-E36C-4FFA-B8DE-91DFD1B1EF42,0,2023-09-22_08h32.03.176,Pilot_VExplicitOC_RG_AMT,2022.2.5,Win32,16.50246712,NA,NA,NA,NA,NA,NA,NA,NA,NA,NA,NA,NA,NA,NA,bored,"bored, not bored","more bored, less bored",NA,NA,-6.510416667,5.9326,2.043,NA,NA,NA,NA,NA,NA,NA,NA,NA,NA,NA,NA,NA,NA,NA,NA,NA,NA,NA,NA,NA,NA,NA,NA,NA,NA,0,1,1,2,1,NA,NA,NA,NA,NA,NA,NA,NA,NA,NA,NA,NA,NA,NA,NA,NA,NA,NA,NA,NA,NA,NA,NA,NA,NA,NA,NA,NA,NA,NA,NA,NA,NA,NA,NA,NA,NA,NA,NA,NA,NA,NA,NA,NA,NA,NA,NA,NA,NA,NA,NA,NA,NA,NA,NA,NA,NA,NA,NA,NA,NA,NA,NA,NA,NA,NA,NA,NA,NA
NA,NA,NA,NA,NA,NA,NA,NA,NA,NA,NA,SUPAMT61006,32Z9ZLUT1RJAXOSYIQ5AMSNFDIZOH4,420E951D-E36C-4FFA-B8DE-91DFD1B1EF42,0,2023-09-22_08h32.03.176,Pilot_VExplicitOC_RG_AMT,2022.2.5,Win32,16.50246712,NA,NA,NA,NA,NA,NA,NA,NA,NA,NA,NA,NA,NA,NA,frustrated,"frustrated, not frustrated","more frustrated, less frustrated",NA,NA,47.91666667,3.4583,2.0392,NA,NA,NA,NA,NA,NA,NA,NA,NA,NA,NA,NA,NA,NA,NA,NA,NA,NA,NA,NA,NA,NA,NA,NA,NA,NA,0,2,2,1,1,NA,NA,NA,NA,NA,NA,NA,NA,NA,NA,NA,NA,NA,NA,NA,NA,NA,NA,NA,NA,NA,NA,NA,NA,NA,NA,NA,NA,NA,NA,NA,NA,NA,NA,NA,NA,NA,NA,NA,NA,NA,NA,NA,NA,NA,NA,NA,NA,NA,NA,NA,NA,NA,NA,NA,NA,NA,NA,NA,NA,NA,NA,NA,NA,NA,NA,NA,NA,NA
NA,NA,NA,NA,NA,NA,NA,NA,NA,NA,NA,SUPAMT61006,32Z9ZLUT1RJAXOSYIQ5AMSNFDIZOH4,420E951D-E36C-4FFA-B8DE-91DFD1B1EF42,0,2023-09-22_08h32.03.176,Pilot_VExplicitOC_RG_AMT,2022.2.5,Win32,16.50246712,NA,NA,NA,NA,NA,NA,NA,NA,NA,NA,NA,NA,NA,NA,bored,"bored, not bored","more bored, less bored",NA,NA,56.25,3.694,2.0648,NA,NA,NA,NA,NA,NA,NA,NA,NA,NA,NA,NA,NA,NA,NA,NA,NA,NA,NA,NA,NA,NA,NA,NA,NA,NA,0,0,0,2,1,NA,NA,NA,NA,NA,NA,NA,NA,NA,NA,NA,NA,NA,NA,NA,NA,NA,NA,NA,NA,NA,NA,NA,NA,NA,NA,NA,NA,NA,NA,NA,NA,NA,NA,NA,NA,NA,NA,NA,NA,NA,NA,NA,NA,NA,NA,NA,NA,NA,NA,NA,NA,NA,NA,NA,NA,NA,NA,NA,NA,NA,NA,NA,NA,NA,NA,NA,NA,NA
NA,NA,NA,NA,NA,NA,NA,NA,NA,NA,NA,SUPAMT61006,32Z9ZLUT1RJAXOSYIQ5AMSNFDIZOH4,420E951D-E36C-4FFA-B8DE-91DFD1B1EF42,0,2023-09-22_08h32.03.176,Pilot_VExplicitOC_RG_AMT,2022.2.5,Win32,16.50246712,NA,NA,NA,NA,NA,NA,NA,NA,NA,NA,NA,NA,NA,NA,happy,"unhappy, happy","less happy, more happy",NA,NA,42.70833333,4.003400001,2.006,NA,NA,NA,NA,NA,NA,NA,NA,NA,NA,NA,NA,NA,NA,NA,NA,NA,NA,NA,NA,NA,NA,NA,NA,NA,NA,0,1,1,0,1,NA,NA,NA,NA,NA,NA,NA,NA,NA,NA,NA,NA,NA,NA,NA,NA,NA,NA,NA,NA,NA,NA,NA,NA,NA,NA,NA,NA,NA,NA,NA,NA,NA,NA,NA,NA,NA,NA,NA,NA,NA,NA,NA,NA,NA,NA,NA,NA,NA,NA,NA,NA,NA,NA,NA,NA,NA,NA,NA,NA,NA,NA,NA,NA,NA,NA,NA,NA,NA
NA,NA,NA,NA,NA,NA,NA,NA,NA,NA,NA,SUPAMT61006,32Z9ZLUT1RJAXOSYIQ5AMSNFDIZOH4,420E951D-E36C-4FFA-B8DE-91DFD1B1EF42,0,2023-09-22_08h32.03.176,Pilot_VExplicitOC_RG_AMT,2022.2.5,Win32,16.50246712,NA,NA,NA,NA,NA,NA,NA,NA,NA,NA,NA,NA,NA,NA,frustrated,"frustrated, not frustrated","more frustrated, less frustrated",NA,NA,22.91666667,4.4937,2.0511,NA,NA,NA,NA,NA,NA,NA,NA,NA,NA,NA,NA,NA,NA,NA,NA,NA,NA,NA,NA,NA,NA,NA,NA,NA,NA,0,2,2,1,1,NA,NA,NA,NA,NA,NA,NA,NA,NA,NA,NA,NA,NA,NA,NA,NA,NA,NA,NA,NA,NA,NA,NA,NA,NA,NA,NA,NA,NA,NA,NA,NA,NA,NA,NA,NA,NA,NA,NA,NA,NA,NA,NA,NA,NA,NA,NA,NA,NA,NA,NA,NA,NA,NA,NA,NA,NA,NA,NA,NA,NA,NA,NA,NA,NA,NA,NA,NA,NA
NA,NA,NA,NA,NA,NA,NA,NA,NA,NA,NA,SUPAMT61006,32Z9ZLUT1RJAXOSYIQ5AMSNFDIZOH4,420E951D-E36C-4FFA-B8DE-91DFD1B1EF42,0,2023-09-22_08h32.03.176,Pilot_VExplicitOC_RG_AMT,2022.2.5,Win32,16.50246712,NA,NA,NA,NA,NA,NA,NA,NA,NA,NA,NA,NA,NA,NA,happy,"unhappy, happy","less happy, more happy",NA,NA,63.28125,3.904,2.0387,NA,NA,NA,NA,NA,NA,NA,NA,NA,NA,NA,NA,NA,NA,NA,NA,NA,NA,NA,NA,NA,NA,NA,NA,NA,NA,0,0,0,0,1,NA,NA,NA,NA,NA,NA,NA,NA,NA,NA,NA,NA,NA,NA,NA,NA,NA,NA,NA,NA,NA,NA,NA,NA,NA,NA,NA,NA,NA,NA,NA,NA,NA,NA,NA,NA,NA,NA,NA,NA,NA,NA,NA,NA,NA,NA,NA,NA,NA,NA,NA,NA,NA,NA,NA,NA,NA,NA,NA,NA,NA,NA,NA,NA,NA,NA,NA,NA,NA
NA,NA,NA,NA,NA,NA,NA,NA,NA,NA,NA,SUPAMT61006,32Z9ZLUT1RJAXOSYIQ5AMSNFDIZOH4,420E951D-E36C-4FFA-B8DE-91DFD1B1EF42,0,2023-09-22_08h32.03.176,Pilot_VExplicitOC_RG_AMT,2022.2.5,Win32,16.50246712,NA,NA,NA,NA,NA,NA,NA,NA,NA,NA,NA,NA,NA,NA,bored,"bored, not bored","more bored, less bored",NA,NA,-33.59375,3.8455,2.0568,NA,NA,NA,NA,NA,NA,NA,NA,NA,NA,NA,NA,NA,NA,NA,NA,NA,NA,NA,NA,NA,NA,NA,NA,NA,NA,0,1,1,2,1,NA,NA,NA,NA,NA,NA,NA,NA,NA,NA,NA,NA,NA,NA,NA,NA,NA,NA,NA,NA,NA,NA,NA,NA,NA,NA,NA,NA,NA,NA,NA,NA,NA,NA,NA,NA,NA,NA,NA,NA,NA,NA,NA,NA,NA,NA,NA,NA,NA,NA,NA,NA,NA,NA,NA,NA,NA,NA,NA,NA,NA,NA,NA,NA,NA,NA,NA,NA,NA
NA,NA,NA,NA,NA,NA,NA,NA,NA,NA,NA,SUPAMT61006,32Z9ZLUT1RJAXOSYIQ5AMSNFDIZOH4,420E951D-E36C-4FFA-B8DE-91DFD1B1EF42,0,2023-09-22_08h32.03.176,Pilot_VExplicitOC_RG_AMT,2022.2.5,Win32,16.50246712,NA,NA,NA,NA,NA,NA,NA,NA,NA,NA,NA,NA,NA,NA,frustrated,"frustrated, not frustrated","more frustrated, less frustrated",NA,NA,46.875,4.1963,2.0252,NA,NA,NA,NA,NA,NA,NA,NA,NA,NA,NA,NA,NA,NA,NA,NA,NA,NA,NA,NA,NA,NA,NA,NA,NA,NA,0,2,2,1,1,NA,NA,NA,NA,NA,NA,NA,NA,NA,NA,NA,NA,NA,NA,NA,NA,NA,NA,NA,NA,NA,NA,NA,NA,NA,NA,NA,NA,NA,NA,NA,NA,NA,NA,NA,NA,NA,NA,NA,NA,NA,NA,NA,NA,NA,NA,NA,NA,NA,NA,NA,NA,NA,NA,NA,NA,NA,NA,NA,NA,NA,NA,NA,NA,NA,NA,NA,NA,NA
NA,NA,NA,NA,NA,NA,NA,NA,NA,NA,NA,SUPAMT61006,32Z9ZLUT1RJAXOSYIQ5AMSNFDIZOH4,420E951D-E36C-4FFA-B8DE-91DFD1B1EF42,0,2023-09-22_08h32.03.176,Pilot_VExplicitOC_RG_AMT,2022.2.5,Win32,16.50246712,NA,NA,NA,NA,NA,NA,NA,NA,NA,NA,NA,NA,NA,NA,bored,"bored, not bored","more bored, less bored",NA,NA,41.40625,4.085900001,2.0001,NA,NA,NA,NA,NA,NA,NA,NA,NA,NA,NA,NA,NA,NA,NA,NA,NA,NA,NA,NA,NA,NA,NA,NA,NA,NA,0,0,0,2,1,NA,NA,NA,NA,NA,NA,NA,NA,NA,NA,NA,NA,NA,NA,NA,NA,NA,NA,NA,NA,NA,NA,NA,NA,NA,NA,NA,NA,NA,NA,NA,NA,NA,NA,NA,NA,NA,NA,NA,NA,NA,NA,NA,NA,NA,NA,NA,NA,NA,NA,NA,NA,NA,NA,NA,NA,NA,NA,NA,NA,NA,NA,NA,NA,NA,NA,NA,NA,NA
NA,NA,NA,NA,NA,NA,NA,NA,NA,NA,NA,SUPAMT61006,32Z9ZLUT1RJAXOSYIQ5AMSNFDIZOH4,420E951D-E36C-4FFA-B8DE-91DFD1B1EF42,0,2023-09-22_08h32.03.176,Pilot_VExplicitOC_RG_AMT,2022.2.5,Win32,16.50246712,NA,NA,NA,NA,NA,NA,NA,NA,NA,NA,NA,NA,NA,NA,happy,"unhappy, happy","less happy, more happy",NA,NA,39.58333333,3.9742,2.0027,NA,NA,NA,NA,NA,NA,NA,NA,NA,NA,NA,NA,NA,NA,NA,NA,NA,NA,NA,NA,NA,NA,NA,NA,NA,NA,0,1,1,0,1,NA,NA,NA,NA,NA,NA,NA,NA,NA,NA,NA,NA,NA,NA,NA,NA,NA,NA,NA,NA,NA,NA,NA,NA,NA,NA,NA,NA,NA,NA,NA,NA,NA,NA,NA,NA,NA,NA,NA,NA,NA,NA,NA,NA,NA,NA,NA,NA,NA,NA,NA,NA,NA,NA,NA,NA,NA,NA,NA,NA,NA,NA,NA,NA,NA,NA,NA,NA,NA
NA,NA,NA,NA,NA,NA,NA,NA,NA,NA,NA,SUPAMT61006,32Z9ZLUT1RJAXOSYIQ5AMSNFDIZOH4,420E951D-E36C-4FFA-B8DE-91DFD1B1EF42,0,2023-09-22_08h32.03.176,Pilot_VExplicitOC_RG_AMT,2022.2.5,Win32,16.50246712,NA,NA,NA,NA,NA,NA,NA,NA,NA,NA,NA,NA,NA,NA,frustrated,"frustrated, not frustrated","more frustrated, less frustrated",NA,NA,44.01041667,3.751,2.0159,NA,NA,NA,NA,NA,NA,NA,NA,NA,NA,NA,NA,NA,NA,NA,NA,NA,NA,NA,NA,NA,NA,NA,NA,NA,NA,0,2,2,1,1,NA,NA,NA,NA,NA,NA,NA,NA,NA,NA,NA,NA,NA,NA,NA,NA,NA,NA,NA,NA,NA,NA,NA,NA,NA,NA,NA,NA,NA,NA,NA,NA,NA,NA,NA,NA,NA,NA,NA,NA,NA,NA,NA,NA,NA,NA,NA,NA,NA,NA,NA,NA,NA,NA,NA,NA,NA,NA,NA,NA,NA,NA,NA,NA,NA,NA,NA,NA,NA
NA,NA,NA,NA,NA,NA,NA,NA,NA,NA,NA,SUPAMT61006,32Z9ZLUT1RJAXOSYIQ5AMSNFDIZOH4,420E951D-E36C-4FFA-B8DE-91DFD1B1EF42,0,2023-09-22_08h32.03.176,Pilot_VExplicitOC_RG_AMT,2022.2.5,Win32,16.50246712,NA,NA,NA,NA,NA,NA,NA,NA,NA,NA,NA,NA,NA,NA,bored,"bored, not bored","more bored, less bored",NA,NA,41.40625,3.706799999,2.0562,NA,NA,NA,NA,NA,NA,NA,NA,NA,NA,NA,NA,NA,NA,NA,NA,NA,NA,NA,NA,NA,NA,NA,NA,NA,NA,0,0,0,2,1,NA,NA,NA,NA,NA,NA,NA,NA,NA,NA,NA,NA,NA,NA,NA,NA,NA,NA,NA,NA,NA,NA,NA,NA,NA,NA,NA,NA,NA,NA,NA,NA,NA,NA,NA,NA,NA,NA,NA,NA,NA,NA,NA,NA,NA,NA,NA,NA,NA,NA,NA,NA,NA,NA,NA,NA,NA,NA,NA,NA,NA,NA,NA,NA,NA,NA,NA,NA,NA
NA,NA,NA,NA,NA,NA,NA,NA,NA,NA,NA,SUPAMT61006,32Z9ZLUT1RJAXOSYIQ5AMSNFDIZOH4,420E951D-E36C-4FFA-B8DE-91DFD1B1EF42,0,2023-09-22_08h32.03.176,Pilot_VExplicitOC_RG_AMT,2022.2.5,Win32,16.50246712,NA,NA,NA,NA,NA,NA,NA,NA,NA,NA,NA,NA,NA,NA,frustrated,"frustrated, not frustrated","more frustrated, less frustrated",NA,NA,46.09375,5.1942,2.0063,NA,NA,NA,NA,NA,NA,NA,NA,NA,NA,NA,NA,NA,NA,NA,NA,NA,NA,NA,NA,NA,NA,NA,NA,NA,NA,0,1,1,1,1,NA,NA,NA,NA,NA,NA,NA,NA,NA,NA,NA,NA,NA,NA,NA,NA,NA,NA,NA,NA,NA,NA,NA,NA,NA,NA,NA,NA,NA,NA,NA,NA,NA,NA,NA,NA,NA,NA,NA,NA,NA,NA,NA,NA,NA,NA,NA,NA,NA,NA,NA,NA,NA,NA,NA,NA,NA,NA,NA,NA,NA,NA,NA,NA,NA,NA,NA,NA,NA
NA,NA,NA,NA,NA,NA,NA,NA,NA,NA,NA,SUPAMT61006,32Z9ZLUT1RJAXOSYIQ5AMSNFDIZOH4,420E951D-E36C-4FFA-B8DE-91DFD1B1EF42,0,2023-09-22_08h32.03.176,Pilot_VExplicitOC_RG_AMT,2022.2.5,Win32,16.50246712,NA,NA,NA,NA,NA,NA,NA,NA,NA,NA,NA,NA,NA,NA,happy,"unhappy, happy","less happy, more happy",NA,NA,65.10416667,5.8633,2.0681,NA,NA,NA,NA,NA,NA,NA,NA,NA,NA,NA,NA,NA,NA,NA,NA,NA,NA,NA,NA,NA,NA,NA,NA,NA,NA,0,2,2,0,1,NA,NA,NA,NA,NA,NA,NA,NA,NA,NA,NA,NA,NA,NA,NA,NA,NA,NA,NA,NA,NA,NA,NA,NA,NA,NA,NA,NA,NA,NA,NA,NA,NA,NA,NA,NA,NA,NA,NA,NA,NA,NA,NA,NA,NA,NA,NA,NA,NA,NA,NA,NA,NA,NA,NA,NA,NA,NA,NA,NA,NA,NA,NA,NA,NA,NA,NA,NA,NA
NA,NA,NA,NA,NA,NA,NA,NA,NA,NA,NA,SUPAMT61006,32Z9ZLUT1RJAXOSYIQ5AMSNFDIZOH4,420E951D-E36C-4FFA-B8DE-91DFD1B1EF42,0,2023-09-22_08h32.03.176,Pilot_VExplicitOC_RG_AMT,2022.2.5,Win32,16.50246712,NA,NA,NA,NA,NA,NA,NA,NA,NA,NA,NA,NA,NA,NA,frustrated,"frustrated, not frustrated","more frustrated, less frustrated",NA,NA,63.80208333,5.6581,2.0521,NA,NA,NA,NA,NA,NA,NA,NA,NA,NA,NA,NA,NA,NA,NA,NA,NA,NA,NA,NA,NA,NA,NA,NA,NA,NA,0,0,0,1,1,NA,NA,NA,NA,NA,NA,NA,NA,NA,NA,NA,NA,NA,NA,NA,NA,NA,NA,NA,NA,NA,NA,NA,NA,NA,NA,NA,NA,NA,NA,NA,NA,NA,NA,NA,NA,NA,NA,NA,NA,NA,NA,NA,NA,NA,NA,NA,NA,NA,NA,NA,NA,NA,NA,NA,NA,NA,NA,NA,NA,NA,NA,NA,NA,NA,NA,NA,NA,NA
NA,NA,NA,NA,NA,NA,NA,NA,NA,NA,NA,SUPAMT61006,32Z9ZLUT1RJAXOSYIQ5AMSNFDIZOH4,420E951D-E36C-4FFA-B8DE-91DFD1B1EF42,0,2023-09-22_08h32.03.176,Pilot_VExplicitOC_RG_AMT,2022.2.5,Win32,16.50246712,NA,NA,NA,NA,NA,NA,NA,NA,NA,NA,NA,NA,NA,NA,happy,"unhappy, happy","less happy, more happy",NA,NA,55.98958333,3.3247,2.0583,NA,NA,NA,NA,NA,NA,NA,NA,NA,NA,NA,NA,NA,NA,NA,NA,NA,NA,NA,NA,NA,NA,NA,NA,NA,NA,0,1,1,0,1,NA,NA,NA,NA,NA,NA,NA,NA,NA,NA,NA,NA,NA,NA,NA,NA,NA,NA,NA,NA,NA,NA,NA,NA,NA,NA,NA,NA,NA,NA,NA,NA,NA,NA,NA,NA,NA,NA,NA,NA,NA,NA,NA,NA,NA,NA,NA,NA,NA,NA,NA,NA,NA,NA,NA,NA,NA,NA,NA,NA,NA,NA,NA,NA,NA,NA,NA,NA,NA
NA,NA,NA,NA,NA,NA,NA,NA,NA,NA,NA,SUPAMT61006,32Z9ZLUT1RJAXOSYIQ5AMSNFDIZOH4,420E951D-E36C-4FFA-B8DE-91DFD1B1EF42,0,2023-09-22_08h32.03.176,Pilot_VExplicitOC_RG_AMT,2022.2.5,Win32,16.50246712,NA,NA,NA,NA,NA,NA,NA,NA,NA,NA,NA,NA,NA,NA,bored,"bored, not bored","more bored, less bored",NA,NA,52.86458333,3.8833,2.070400001,NA,NA,NA,NA,NA,NA,NA,NA,NA,NA,NA,NA,NA,NA,NA,NA,NA,NA,NA,NA,NA,NA,NA,NA,NA,NA,0,2,2,2,1,NA,NA,NA,NA,NA,NA,NA,NA,NA,NA,NA,NA,NA,NA,NA,NA,NA,NA,NA,NA,NA,NA,NA,NA,NA,NA,NA,NA,NA,NA,NA,NA,NA,NA,NA,NA,NA,NA,NA,NA,NA,NA,NA,NA,NA,NA,NA,NA,NA,NA,NA,NA,NA,NA,NA,NA,NA,NA,NA,NA,NA,NA,NA,NA,NA,NA,NA,NA,NA
NA,NA,NA,NA,NA,NA,NA,NA,NA,NA,NA,SUPAMT61006,32Z9ZLUT1RJAXOSYIQ5AMSNFDIZOH4,420E951D-E36C-4FFA-B8DE-91DFD1B1EF42,0,2023-09-22_08h32.03.176,Pilot_VExplicitOC_RG_AMT,2022.2.5,Win32,16.50246712,NA,NA,NA,NA,NA,NA,NA,NA,NA,NA,NA,NA,NA,NA,happy,"unhappy, happy","less happy, more happy",NA,NA,73.95833333,4.7962,2.0035,NA,NA,NA,NA,NA,NA,NA,NA,NA,NA,NA,NA,NA,NA,NA,NA,NA,NA,NA,NA,NA,NA,NA,NA,NA,NA,0,0,0,0,1,NA,NA,NA,NA,NA,NA,NA,NA,NA,NA,NA,NA,NA,NA,NA,NA,NA,NA,NA,NA,NA,NA,NA,NA,NA,NA,NA,NA,NA,NA,NA,NA,NA,NA,NA,NA,NA,NA,NA,NA,NA,NA,NA,NA,NA,NA,NA,NA,NA,NA,NA,NA,NA,NA,NA,NA,NA,NA,NA,NA,NA,NA,NA,NA,NA,NA,NA,NA,NA
NA,NA,NA,NA,NA,NA,NA,NA,NA,NA,NA,SUPAMT61006,32Z9ZLUT1RJAXOSYIQ5AMSNFDIZOH4,420E951D-E36C-4FFA-B8DE-91DFD1B1EF42,0,2023-09-22_08h32.03.176,Pilot_VExplicitOC_RG_AMT,2022.2.5,Win32,16.50246712,NA,NA,NA,NA,NA,NA,NA,NA,NA,NA,NA,NA,NA,NA,frustrated,"frustrated, not frustrated","more frustrated, less frustrated",NA,NA,67.44791667,3.6943,2.0165,NA,NA,NA,NA,NA,NA,NA,NA,NA,NA,NA,NA,NA,NA,NA,NA,NA,NA,NA,NA,NA,NA,NA,NA,NA,NA,0,1,1,1,1,NA,NA,NA,NA,NA,NA,NA,NA,NA,NA,NA,NA,NA,NA,NA,NA,NA,NA,NA,NA,NA,NA,NA,NA,NA,NA,NA,NA,NA,NA,NA,NA,NA,NA,NA,NA,NA,NA,NA,NA,NA,NA,NA,NA,NA,NA,NA,NA,NA,NA,NA,NA,NA,NA,NA,NA,NA,NA,NA,NA,NA,NA,NA,NA,NA,NA,NA,NA,NA
NA,NA,NA,NA,NA,NA,NA,NA,NA,NA,NA,SUPAMT61006,32Z9ZLUT1RJAXOSYIQ5AMSNFDIZOH4,420E951D-E36C-4FFA-B8DE-91DFD1B1EF42,0,2023-09-22_08h32.03.176,Pilot_VExplicitOC_RG_AMT,2022.2.5,Win32,16.50246712,NA,NA,NA,NA,NA,NA,NA,NA,NA,NA,NA,NA,NA,NA,bored,"bored, not bored","more bored, less bored",NA,NA,53.90625,5.2469,2.0108,NA,NA,NA,NA,NA,NA,NA,NA,NA,NA,NA,NA,NA,NA,NA,NA,NA,NA,NA,NA,NA,NA,NA,NA,NA,NA,0,2,2,2,1,NA,NA,NA,NA,NA,NA,NA,NA,NA,NA,NA,NA,NA,NA,NA,NA,NA,NA,NA,NA,NA,NA,NA,NA,NA,NA,NA,NA,NA,NA,NA,NA,NA,NA,NA,NA,NA,NA,NA,NA,NA,NA,NA,NA,NA,NA,NA,NA,NA,NA,NA,NA,NA,NA,NA,NA,NA,NA,NA,NA,NA,NA,NA,NA,NA,NA,NA,NA,NA
NA,NA,NA,NA,NA,NA,NA,NA,NA,NA,NA,SUPAMT61006,32Z9ZLUT1RJAXOSYIQ5AMSNFDIZOH4,420E951D-E36C-4FFA-B8DE-91DFD1B1EF42,0,2023-09-22_08h32.03.176,Pilot_VExplicitOC_RG_AMT,2022.2.5,Win32,16.50246712,NA,NA,NA,NA,NA,NA,NA,NA,NA,NA,NA,NA,NA,NA,happy,"unhappy, happy","less happy, more happy",NA,NA,43.48958333,3.4896,2.0231,NA,NA,NA,NA,NA,NA,NA,NA,NA,NA,NA,NA,NA,NA,NA,NA,NA,NA,NA,NA,NA,NA,NA,NA,NA,NA,0,0,0,0,1,NA,NA,NA,NA,NA,NA,NA,NA,NA,NA,NA,NA,NA,NA,NA,NA,NA,NA,NA,NA,NA,NA,NA,NA,NA,NA,NA,NA,NA,NA,NA,NA,NA,NA,NA,NA,NA,NA,NA,NA,NA,NA,NA,NA,NA,NA,NA,NA,NA,NA,NA,NA,NA,NA,NA,NA,NA,NA,NA,NA,NA,NA,NA,NA,NA,NA,NA,NA,NA
NA,NA,NA,NA,NA,NA,NA,NA,NA,NA,NA,SUPAMT61006,32Z9ZLUT1RJAXOSYIQ5AMSNFDIZOH4,420E951D-E36C-4FFA-B8DE-91DFD1B1EF42,0,2023-09-22_08h32.03.176,Pilot_VExplicitOC_RG_AMT,2022.2.5,Win32,16.50246712,NA,NA,NA,NA,NA,NA,NA,NA,NA,NA,NA,NA,NA,NA,frustrated,"frustrated, not frustrated","more frustrated, less frustrated",NA,NA,52.08333333,4.1039,2.058700001,NA,NA,NA,NA,NA,NA,NA,NA,NA,NA,NA,NA,NA,NA,NA,NA,NA,NA,NA,NA,NA,NA,NA,NA,NA,NA,0,1,1,1,1,NA,NA,NA,NA,NA,NA,NA,NA,NA,NA,NA,NA,NA,NA,NA,NA,NA,NA,NA,NA,NA,NA,NA,NA,NA,NA,NA,NA,NA,NA,NA,NA,NA,NA,NA,NA,NA,NA,NA,NA,NA,NA,NA,NA,NA,NA,NA,NA,NA,NA,NA,NA,NA,NA,NA,NA,NA,NA,NA,NA,NA,NA,NA,NA,NA,NA,NA,NA,NA
NA,NA,NA,NA,NA,NA,NA,NA,NA,NA,NA,SUPAMT61006,32Z9ZLUT1RJAXOSYIQ5AMSNFDIZOH4,420E951D-E36C-4FFA-B8DE-91DFD1B1EF42,0,2023-09-22_08h32.03.176,Pilot_VExplicitOC_RG_AMT,2022.2.5,Win32,16.50246712,NA,NA,NA,NA,NA,NA,NA,NA,NA,NA,NA,NA,NA,NA,bored,"bored, not bored","more bored, less bored",NA,NA,79.94791667,3.8882,2.0071,NA,NA,NA,NA,NA,NA,NA,NA,NA,NA,NA,NA,NA,NA,NA,NA,NA,NA,NA,NA,NA,NA,NA,NA,NA,NA,0,2,2,2,1,NA,NA,NA,NA,NA,NA,NA,NA,NA,NA,NA,NA,NA,NA,NA,NA,NA,NA,NA,NA,NA,NA,NA,NA,NA,NA,NA,NA,NA,NA,NA,NA,NA,NA,NA,NA,NA,NA,NA,NA,NA,NA,NA,NA,NA,NA,NA,NA,NA,NA,NA,NA,NA,NA,NA,NA,NA,NA,NA,NA,NA,NA,NA,NA,NA,NA,NA,NA,NA
NA,NA,NA,NA,NA,NA,NA,NA,NA,NA,NA,SUPAMT61006,32Z9ZLUT1RJAXOSYIQ5AMSNFDIZOH4,420E951D-E36C-4FFA-B8DE-91DFD1B1EF42,0,2023-09-22_08h32.03.176,Pilot_VExplicitOC_RG_AMT,2022.2.5,Win32,16.50246712,NA,NA,NA,NA,NA,NA,NA,NA,NA,NA,NA,NA,NA,NA,bored,"bored, not bored","more bored, less bored",NA,NA,46.09375,4.1275,2.0246,NA,NA,NA,NA,NA,NA,NA,NA,NA,NA,NA,NA,NA,NA,NA,NA,NA,NA,NA,NA,NA,NA,NA,NA,NA,NA,0,0,0,2,1,NA,NA,NA,NA,NA,NA,NA,NA,NA,NA,NA,NA,NA,NA,NA,NA,NA,NA,NA,NA,NA,NA,NA,NA,NA,NA,NA,NA,NA,NA,NA,NA,NA,NA,NA,NA,NA,NA,NA,NA,NA,NA,NA,NA,NA,NA,NA,NA,NA,NA,NA,NA,NA,NA,NA,NA,NA,NA,NA,NA,NA,NA,NA,NA,NA,NA,NA,NA,NA
NA,NA,NA,NA,NA,NA,NA,NA,NA,NA,NA,SUPAMT61006,32Z9ZLUT1RJAXOSYIQ5AMSNFDIZOH4,420E951D-E36C-4FFA-B8DE-91DFD1B1EF42,0,2023-09-22_08h32.03.176,Pilot_VExplicitOC_RG_AMT,2022.2.5,Win32,16.50246712,NA,NA,NA,NA,NA,NA,NA,NA,NA,NA,NA,NA,NA,NA,frustrated,"frustrated, not frustrated","more frustrated, less frustrated",NA,NA,45.57291667,4.2779,2.0025,NA,NA,NA,NA,NA,NA,NA,NA,NA,NA,NA,NA,NA,NA,NA,NA,NA,NA,NA,NA,NA,NA,NA,NA,NA,NA,0,1,1,1,1,NA,NA,NA,NA,NA,NA,NA,NA,NA,NA,NA,NA,NA,NA,NA,NA,NA,NA,NA,NA,NA,NA,NA,NA,NA,NA,NA,NA,NA,NA,NA,NA,NA,NA,NA,NA,NA,NA,NA,NA,NA,NA,NA,NA,NA,NA,NA,NA,NA,NA,NA,NA,NA,NA,NA,NA,NA,NA,NA,NA,NA,NA,NA,NA,NA,NA,NA,NA,NA
NA,NA,NA,NA,NA,NA,NA,NA,NA,NA,NA,SUPAMT61006,32Z9ZLUT1RJAXOSYIQ5AMSNFDIZOH4,420E951D-E36C-4FFA-B8DE-91DFD1B1EF42,0,2023-09-22_08h32.03.176,Pilot_VExplicitOC_RG_AMT,2022.2.5,Win32,16.50246712,NA,NA,NA,NA,NA,NA,NA,NA,NA,NA,NA,NA,NA,NA,happy,"unhappy, happy","less happy, more happy",NA,NA,45.05208333,4.1317,2.0538,NA,NA,NA,NA,NA,NA,NA,NA,NA,NA,NA,NA,NA,NA,NA,NA,NA,NA,NA,NA,NA,NA,NA,NA,NA,NA,0,2,2,0,1,NA,NA,NA,NA,NA,NA,NA,NA,NA,NA,NA,NA,NA,NA,NA,NA,NA,NA,NA,NA,NA,NA,NA,NA,NA,NA,NA,NA,NA,NA,NA,NA,NA,NA,NA,NA,NA,NA,NA,NA,NA,NA,NA,NA,NA,NA,NA,NA,NA,NA,NA,NA,NA,NA,NA,NA,NA,NA,NA,NA,NA,NA,NA,NA,NA,NA,NA,NA,NA
NA,NA,NA,NA,NA,NA,NA,NA,NA,NA,NA,SUPAMT61006,32Z9ZLUT1RJAXOSYIQ5AMSNFDIZOH4,420E951D-E36C-4FFA-B8DE-91DFD1B1EF42,0,2023-09-22_08h32.03.176,Pilot_VExplicitOC_RG_AMT,2022.2.5,Win32,16.50246712,NA,NA,NA,NA,NA,NA,NA,NA,NA,NA,NA,NA,NA,NA,happy,"unhappy, happy","less happy, more happy",NA,NA,46.61458333,3.5817,2.0394,NA,NA,NA,NA,NA,NA,NA,NA,NA,NA,NA,NA,NA,NA,NA,NA,NA,NA,NA,NA,NA,NA,NA,NA,NA,NA,0,0,0,0,1,NA,NA,NA,NA,NA,NA,NA,NA,NA,NA,NA,NA,NA,NA,NA,NA,NA,NA,NA,NA,NA,NA,NA,NA,NA,NA,NA,NA,NA,NA,NA,NA,NA,NA,NA,NA,NA,NA,NA,NA,NA,NA,NA,NA,NA,NA,NA,NA,NA,NA,NA,NA,NA,NA,NA,NA,NA,NA,NA,NA,NA,NA,NA,NA,NA,NA,NA,NA,NA
NA,NA,NA,NA,NA,NA,NA,NA,NA,NA,NA,SUPAMT61006,32Z9ZLUT1RJAXOSYIQ5AMSNFDIZOH4,420E951D-E36C-4FFA-B8DE-91DFD1B1EF42,0,2023-09-22_08h32.03.176,Pilot_VExplicitOC_RG_AMT,2022.2.5,Win32,16.50246712,NA,NA,NA,NA,NA,NA,NA,NA,NA,NA,NA,NA,NA,NA,frustrated,"frustrated, not frustrated","more frustrated, less frustrated",NA,NA,NA,NA,2.0345,NA,NA,NA,NA,NA,NA,NA,NA,NA,NA,NA,NA,NA,NA,NA,NA,NA,NA,NA,NA,NA,NA,NA,NA,NA,NA,0,1,1,1,1,NA,NA,NA,NA,NA,NA,NA,NA,NA,NA,NA,NA,NA,NA,NA,NA,NA,NA,NA,NA,NA,NA,NA,NA,NA,NA,NA,NA,NA,NA,NA,NA,NA,NA,NA,NA,NA,NA,NA,NA,NA,NA,NA,NA,NA,NA,NA,NA,NA,NA,NA,NA,NA,NA,NA,NA,NA,NA,NA,NA,NA,NA,NA,NA,NA,NA,NA,NA,NA
NA,NA,NA,NA,NA,NA,NA,NA,NA,NA,NA,SUPAMT61006,32Z9ZLUT1RJAXOSYIQ5AMSNFDIZOH4,420E951D-E36C-4FFA-B8DE-91DFD1B1EF42,0,2023-09-22_08h32.03.176,Pilot_VExplicitOC_RG_AMT,2022.2.5,Win32,16.50246712,NA,NA,NA,NA,NA,NA,NA,NA,NA,NA,NA,NA,NA,NA,bored,"bored, not bored","more bored, less bored",NA,NA,56.25,3.4863,2.036400001,NA,NA,NA,NA,NA,NA,NA,NA,NA,NA,NA,NA,NA,NA,NA,NA,NA,NA,NA,NA,NA,NA,NA,NA,NA,NA,0,2,2,2,1,NA,NA,NA,NA,NA,NA,NA,NA,NA,NA,NA,NA,NA,NA,NA,NA,NA,NA,NA,NA,NA,NA,NA,NA,NA,NA,NA,NA,NA,NA,NA,NA,NA,NA,NA,NA,NA,NA,NA,NA,NA,NA,NA,NA,NA,NA,NA,NA,NA,NA,NA,NA,NA,NA,NA,NA,NA,NA,NA,NA,NA,NA,NA,NA,NA,NA,NA,NA,NA
NA,NA,NA,NA,NA,NA,NA,NA,NA,NA,NA,SUPAMT61006,32Z9ZLUT1RJAXOSYIQ5AMSNFDIZOH4,420E951D-E36C-4FFA-B8DE-91DFD1B1EF42,0,2023-09-22_08h32.03.176,Pilot_VExplicitOC_RG_AMT,2022.2.5,Win32,16.50246712,NA,NA,NA,NA,NA,NA,NA,NA,NA,NA,NA,NA,NA,NA,frustrated,"frustrated, not frustrated","more frustrated, less frustrated",NA,NA,57.03125,3.843,2.064400001,NA,NA,NA,NA,NA,NA,NA,NA,NA,NA,NA,NA,NA,NA,NA,NA,NA,NA,NA,NA,NA,NA,NA,NA,NA,NA,0,0,0,1,1,NA,NA,NA,NA,NA,NA,NA,NA,NA,NA,NA,NA,NA,NA,NA,NA,NA,NA,NA,NA,NA,NA,NA,NA,NA,NA,NA,NA,NA,NA,NA,NA,NA,NA,NA,NA,NA,NA,NA,NA,NA,NA,NA,NA,NA,NA,NA,NA,NA,NA,NA,NA,NA,NA,NA,NA,NA,NA,NA,NA,NA,NA,NA,NA,NA,NA,NA,NA,NA
NA,NA,NA,NA,NA,NA,NA,NA,NA,NA,NA,SUPAMT61006,32Z9ZLUT1RJAXOSYIQ5AMSNFDIZOH4,420E951D-E36C-4FFA-B8DE-91DFD1B1EF42,0,2023-09-22_08h32.03.176,Pilot_VExplicitOC_RG_AMT,2022.2.5,Win32,16.50246712,NA,NA,NA,NA,NA,NA,NA,NA,NA,NA,NA,NA,NA,NA,happy,"unhappy, happy","less happy, more happy",NA,NA,46.875,4.9362,2.0063,NA,NA,NA,NA,NA,NA,NA,NA,NA,NA,NA,NA,NA,NA,NA,NA,NA,NA,NA,NA,NA,NA,NA,NA,NA,NA,0,1,1,0,1,NA,NA,NA,NA,NA,NA,NA,NA,NA,NA,NA,NA,NA,NA,NA,NA,NA,NA,NA,NA,NA,NA,NA,NA,NA,NA,NA,NA,NA,NA,NA,NA,NA,NA,NA,NA,NA,NA,NA,NA,NA,NA,NA,NA,NA,NA,NA,NA,NA,NA,NA,NA,NA,NA,NA,NA,NA,NA,NA,NA,NA,NA,NA,NA,NA,NA,NA,NA,NA
NA,NA,NA,NA,NA,NA,NA,NA,NA,NA,NA,SUPAMT61006,32Z9ZLUT1RJAXOSYIQ5AMSNFDIZOH4,420E951D-E36C-4FFA-B8DE-91DFD1B1EF42,0,2023-09-22_08h32.03.176,Pilot_VExplicitOC_RG_AMT,2022.2.5,Win32,16.50246712,NA,NA,NA,NA,NA,NA,NA,NA,NA,NA,NA,NA,NA,NA,bored,"bored, not bored","more bored, less bored",NA,NA,67.1875,3.265200001,2.0511,NA,NA,NA,NA,NA,NA,NA,NA,NA,NA,NA,NA,NA,NA,NA,NA,NA,NA,NA,NA,NA,NA,NA,NA,NA,NA,0,2,2,2,1,NA,NA,NA,NA,NA,NA,NA,NA,NA,NA,NA,NA,NA,NA,NA,NA,NA,NA,NA,NA,NA,NA,NA,NA,NA,NA,NA,NA,NA,NA,NA,NA,NA,NA,NA,NA,NA,NA,NA,NA,NA,NA,NA,NA,NA,NA,NA,NA,NA,NA,NA,NA,NA,NA,NA,NA,NA,NA,NA,NA,NA,NA,NA,NA,NA,NA,NA,NA,NA
NA,NA,NA,NA,NA,NA,NA,NA,NA,NA,NA,SUPAMT61006,32Z9ZLUT1RJAXOSYIQ5AMSNFDIZOH4,420E951D-E36C-4FFA-B8DE-91DFD1B1EF42,0,2023-09-22_08h32.03.176,Pilot_VExplicitOC_RG_AMT,2022.2.5,Win32,16.50246712,NA,NA,NA,NA,NA,NA,NA,NA,NA,NA,NA,NA,NA,NA,frustrated,"frustrated, not frustrated","more frustrated, less frustrated",NA,NA,-15.36458333,3.0518,2.0459,NA,NA,NA,NA,NA,NA,NA,NA,NA,NA,NA,NA,NA,NA,NA,NA,NA,NA,NA,NA,NA,NA,NA,NA,NA,NA,0,0,0,1,1,NA,NA,NA,NA,NA,NA,NA,NA,NA,NA,NA,NA,NA,NA,NA,NA,NA,NA,NA,NA,NA,NA,NA,NA,NA,NA,NA,NA,NA,NA,NA,NA,NA,NA,NA,NA,NA,NA,NA,NA,NA,NA,NA,NA,NA,NA,NA,NA,NA,NA,NA,NA,NA,NA,NA,NA,NA,NA,NA,NA,NA,NA,NA,NA,NA,NA,NA,NA,NA
NA,NA,NA,NA,NA,NA,NA,NA,NA,NA,NA,SUPAMT61006,32Z9ZLUT1RJAXOSYIQ5AMSNFDIZOH4,420E951D-E36C-4FFA-B8DE-91DFD1B1EF42,0,2023-09-22_08h32.03.176,Pilot_VExplicitOC_RG_AMT,2022.2.5,Win32,16.50246712,NA,NA,NA,NA,NA,NA,NA,NA,NA,NA,NA,NA,NA,NA,bored,"bored, not bored","more bored, less bored",NA,NA,37.76041667,3.3353,2.0652,NA,NA,NA,NA,NA,NA,NA,NA,NA,NA,NA,NA,NA,NA,NA,NA,NA,NA,NA,NA,NA,NA,NA,NA,NA,NA,0,1,1,2,1,NA,NA,NA,NA,NA,NA,NA,NA,NA,NA,NA,NA,NA,NA,NA,NA,NA,NA,NA,NA,NA,NA,NA,NA,NA,NA,NA,NA,NA,NA,NA,NA,NA,NA,NA,NA,NA,NA,NA,NA,NA,NA,NA,NA,NA,NA,NA,NA,NA,NA,NA,NA,NA,NA,NA,NA,NA,NA,NA,NA,NA,NA,NA,NA,NA,NA,NA,NA,NA
NA,NA,NA,NA,NA,NA,NA,NA,NA,NA,NA,SUPAMT61006,32Z9ZLUT1RJAXOSYIQ5AMSNFDIZOH4,420E951D-E36C-4FFA-B8DE-91DFD1B1EF42,0,2023-09-22_08h32.03.176,Pilot_VExplicitOC_RG_AMT,2022.2.5,Win32,16.50246712,NA,NA,NA,NA,NA,NA,NA,NA,NA,NA,NA,NA,NA,NA,happy,"unhappy, happy","less happy, more happy",NA,NA,71.09375,4.0617,2.0345,NA,NA,NA,NA,NA,NA,NA,NA,NA,NA,NA,NA,NA,NA,NA,NA,NA,NA,NA,NA,NA,NA,NA,NA,NA,NA,0,2,2,0,1,NA,NA,NA,NA,NA,NA,NA,NA,NA,NA,NA,NA,NA,NA,NA,NA,NA,NA,NA,NA,NA,NA,NA,NA,NA,NA,NA,NA,NA,NA,NA,NA,NA,NA,NA,NA,NA,NA,NA,NA,NA,NA,NA,NA,NA,NA,NA,NA,NA,NA,NA,NA,NA,NA,NA,NA,NA,NA,NA,NA,NA,NA,NA,NA,NA,NA,NA,NA,NA
NA,NA,NA,NA,NA,NA,NA,NA,NA,NA,NA,SUPAMT61006,32Z9ZLUT1RJAXOSYIQ5AMSNFDIZOH4,420E951D-E36C-4FFA-B8DE-91DFD1B1EF42,0,2023-09-22_08h32.03.176,Pilot_VExplicitOC_RG_AMT,2022.2.5,Win32,16.50246712,NA,NA,NA,NA,NA,NA,NA,NA,NA,NA,NA,NA,NA,NA,frustrated,"frustrated, not frustrated","more frustrated, less frustrated",NA,NA,53.64583333,3.645,2.0102,NA,NA,NA,NA,NA,NA,NA,NA,NA,NA,NA,NA,NA,NA,NA,NA,NA,NA,NA,NA,NA,NA,NA,NA,NA,NA,0,0,0,1,1,NA,NA,NA,NA,NA,NA,NA,NA,NA,NA,NA,NA,NA,NA,NA,NA,NA,NA,NA,NA,NA,NA,NA,NA,NA,NA,NA,NA,NA,NA,NA,NA,NA,NA,NA,NA,NA,NA,NA,NA,NA,NA,NA,NA,NA,NA,NA,NA,NA,NA,NA,NA,NA,NA,NA,NA,NA,NA,NA,NA,NA,NA,NA,NA,NA,NA,NA,NA,NA
NA,NA,NA,NA,NA,NA,NA,NA,NA,NA,NA,SUPAMT61006,32Z9ZLUT1RJAXOSYIQ5AMSNFDIZOH4,420E951D-E36C-4FFA-B8DE-91DFD1B1EF42,0,2023-09-22_08h32.03.176,Pilot_VExplicitOC_RG_AMT,2022.2.5,Win32,16.50246712,NA,NA,NA,NA,NA,NA,NA,NA,NA,NA,NA,NA,NA,NA,bored,"bored, not bored","more bored, less bored",NA,NA,84.11458333,5.2747,2.0392,NA,NA,NA,NA,NA,NA,NA,NA,NA,NA,NA,NA,NA,NA,NA,NA,NA,NA,NA,NA,NA,NA,NA,NA,NA,NA,0,1,1,2,1,NA,NA,NA,NA,NA,NA,NA,NA,NA,NA,NA,NA,NA,NA,NA,NA,NA,NA,NA,NA,NA,NA,NA,NA,NA,NA,NA,NA,NA,NA,NA,NA,NA,NA,NA,NA,NA,NA,NA,NA,NA,NA,NA,NA,NA,NA,NA,NA,NA,NA,NA,NA,NA,NA,NA,NA,NA,NA,NA,NA,NA,NA,NA,NA,NA,NA,NA,NA,NA
NA,NA,NA,NA,NA,NA,NA,NA,NA,NA,NA,SUPAMT61006,32Z9ZLUT1RJAXOSYIQ5AMSNFDIZOH4,420E951D-E36C-4FFA-B8DE-91DFD1B1EF42,0,2023-09-22_08h32.03.176,Pilot_VExplicitOC_RG_AMT,2022.2.5,Win32,16.50246712,NA,NA,NA,NA,NA,NA,NA,NA,NA,NA,NA,NA,NA,NA,happy,"unhappy, happy","less happy, more happy",NA,NA,39.58333333,3.578,2.0566,NA,NA,NA,NA,NA,NA,NA,NA,NA,NA,NA,NA,NA,NA,NA,NA,NA,NA,NA,NA,NA,NA,NA,NA,NA,NA,0,2,2,0,1,NA,NA,NA,NA,NA,NA,NA,NA,NA,NA,NA,NA,NA,NA,NA,NA,NA,NA,NA,NA,NA,NA,NA,NA,NA,NA,NA,NA,NA,NA,NA,NA,NA,NA,NA,NA,NA,NA,NA,NA,NA,NA,NA,NA,NA,NA,NA,NA,NA,NA,NA,NA,NA,NA,NA,NA,NA,NA,NA,NA,NA,NA,NA,NA,NA,NA,NA,NA,NA
NA,NA,NA,NA,NA,NA,NA,NA,NA,NA,NA,SUPAMT61006,32Z9ZLUT1RJAXOSYIQ5AMSNFDIZOH4,420E951D-E36C-4FFA-B8DE-91DFD1B1EF42,0,2023-09-22_08h32.03.176,Pilot_VExplicitOC_RG_AMT,2022.2.5,Win32,16.50246712,NA,NA,NA,NA,NA,NA,NA,NA,NA,NA,NA,NA,NA,NA,bored,"bored, not bored","more bored, less bored",NA,NA,55.72916667,4.6923,2.0465,NA,NA,NA,NA,NA,NA,NA,NA,NA,NA,NA,NA,NA,NA,NA,NA,NA,NA,NA,NA,NA,NA,NA,NA,NA,NA,0,0,0,2,1,NA,NA,NA,NA,NA,NA,NA,NA,NA,NA,NA,NA,NA,NA,NA,NA,NA,NA,NA,NA,NA,NA,NA,NA,NA,NA,NA,NA,NA,NA,NA,NA,NA,NA,NA,NA,NA,NA,NA,NA,NA,NA,NA,NA,NA,NA,NA,NA,NA,NA,NA,NA,NA,NA,NA,NA,NA,NA,NA,NA,NA,NA,NA,NA,NA,NA,NA,NA,NA
NA,NA,NA,NA,NA,NA,NA,NA,NA,NA,NA,SUPAMT61006,32Z9ZLUT1RJAXOSYIQ5AMSNFDIZOH4,420E951D-E36C-4FFA-B8DE-91DFD1B1EF42,0,2023-09-22_08h32.03.176,Pilot_VExplicitOC_RG_AMT,2022.2.5,Win32,16.50246712,NA,NA,NA,NA,NA,NA,NA,NA,NA,NA,NA,NA,NA,NA,frustrated,"frustrated, not frustrated","more frustrated, less frustrated",NA,NA,48.17708333,5.0873,2.014299999,NA,NA,NA,NA,NA,NA,NA,NA,NA,NA,NA,NA,NA,NA,NA,NA,NA,NA,NA,NA,NA,NA,NA,NA,NA,NA,0,1,1,1,1,NA,NA,NA,NA,NA,NA,NA,NA,NA,NA,NA,NA,NA,NA,NA,NA,NA,NA,NA,NA,NA,NA,NA,NA,NA,NA,NA,NA,NA,NA,NA,NA,NA,NA,NA,NA,NA,NA,NA,NA,NA,NA,NA,NA,NA,NA,NA,NA,NA,NA,NA,NA,NA,NA,NA,NA,NA,NA,NA,NA,NA,NA,NA,NA,NA,NA,NA,NA,NA
NA,NA,NA,NA,NA,NA,NA,NA,NA,NA,NA,SUPAMT61006,32Z9ZLUT1RJAXOSYIQ5AMSNFDIZOH4,420E951D-E36C-4FFA-B8DE-91DFD1B1EF42,0,2023-09-22_08h32.03.176,Pilot_VExplicitOC_RG_AMT,2022.2.5,Win32,16.50246712,NA,NA,NA,NA,NA,NA,NA,NA,NA,NA,NA,NA,NA,NA,happy,"unhappy, happy","less happy, more happy",NA,NA,-20.83333333,3.773799999,2.032799999,NA,NA,NA,NA,NA,NA,NA,NA,NA,NA,NA,NA,NA,NA,NA,NA,NA,NA,NA,NA,NA,NA,NA,NA,NA,NA,0,2,2,0,1,NA,NA,NA,NA,NA,NA,NA,NA,NA,NA,NA,NA,NA,NA,NA,NA,NA,NA,NA,NA,NA,NA,NA,NA,NA,NA,NA,NA,NA,NA,NA,NA,NA,NA,NA,NA,NA,NA,NA,NA,NA,NA,NA,NA,NA,NA,NA,NA,NA,NA,NA,NA,NA,NA,NA,NA,NA,NA,NA,NA,NA,NA,NA,NA,NA,NA,NA,NA,NA
NA,NA,NA,NA,NA,NA,NA,NA,NA,NA,NA,SUPAMT61006,32Z9ZLUT1RJAXOSYIQ5AMSNFDIZOH4,420E951D-E36C-4FFA-B8DE-91DFD1B1EF42,0,2023-09-22_08h32.03.176,Pilot_VExplicitOC_RG_AMT,2022.2.5,Win32,16.50246712,NA,NA,NA,NA,NA,NA,NA,NA,NA,NA,NA,NA,NA,NA,bored,"bored, not bored","more bored, less bored",NA,NA,27.86458333,3.660700001,2.0265,0,0,0,2,1,NA,NA,NA,NA,NA,NA,NA,NA,NA,NA,NA,NA,NA,NA,NA,NA,NA,NA,NA,NA,NA,NA,NA,NA,NA,NA,NA,NA,NA,NA,NA,NA,NA,NA,NA,NA,NA,NA,NA,NA,NA,NA,NA,NA,NA,NA,NA,NA,NA,NA,NA,NA,NA,NA,NA,NA,NA,NA,NA,NA,NA,NA,NA,NA,NA,NA,NA,NA,NA,NA,NA,NA,NA,NA,NA,NA,NA,NA,NA,NA,NA,NA,NA,NA,NA,NA,NA,NA,NA,NA,NA,NA,NA,NA,NA
NA,NA,NA,NA,NA,NA,NA,NA,NA,NA,NA,SUPAMT61006,32Z9ZLUT1RJAXOSYIQ5AMSNFDIZOH4,420E951D-E36C-4FFA-B8DE-91DFD1B1EF42,0,2023-09-22_08h32.03.176,Pilot_VExplicitOC_RG_AMT,2022.2.5,Win32,16.50246712,NA,NA,NA,NA,NA,NA,NA,NA,NA,NA,NA,NA,NA,NA,frustrated,"frustrated, not frustrated","more frustrated, less frustrated",NA,NA,41.66666667,3.898400001,2.0406,0,1,1,1,1,NA,NA,NA,NA,NA,NA,NA,NA,NA,NA,NA,NA,NA,NA,NA,NA,NA,NA,NA,NA,NA,NA,NA,NA,NA,NA,NA,NA,NA,NA,NA,NA,NA,NA,NA,NA,NA,NA,NA,NA,NA,NA,NA,NA,NA,NA,NA,NA,NA,NA,NA,NA,NA,NA,NA,NA,NA,NA,NA,NA,NA,NA,NA,NA,NA,NA,NA,NA,NA,NA,NA,NA,NA,NA,NA,NA,NA,NA,NA,NA,NA,NA,NA,NA,NA,NA,NA,NA,NA,NA,NA,NA,NA,NA,NA
NA,NA,NA,NA,NA,NA,NA,NA,NA,NA,NA,SUPAMT61006,32Z9ZLUT1RJAXOSYIQ5AMSNFDIZOH4,420E951D-E36C-4FFA-B8DE-91DFD1B1EF42,0,2023-09-22_08h32.03.176,Pilot_VExplicitOC_RG_AMT,2022.2.5,Win32,16.50246712,NA,NA,NA,NA,NA,NA,NA,NA,NA,NA,NA,NA,NA,NA,happy,"unhappy, happy","less happy, more happy",NA,NA,42.70833333,4.4401,2.024099999,0,2,2,0,1,NA,NA,NA,NA,NA,NA,NA,NA,NA,NA,NA,NA,NA,NA,NA,NA,NA,NA,NA,NA,NA,NA,NA,NA,NA,NA,NA,NA,NA,NA,NA,NA,NA,NA,NA,NA,NA,NA,NA,NA,NA,NA,NA,NA,NA,NA,NA,NA,NA,NA,NA,NA,NA,NA,NA,NA,NA,NA,NA,NA,NA,NA,NA,NA,NA,NA,NA,NA,NA,NA,NA,NA,NA,NA,NA,NA,NA,NA,NA,NA,NA,NA,NA,NA,NA,NA,NA,NA,NA,NA,NA,NA,NA,NA,NA
NA,NA,NA,NA,NA,NA,NA,NA,NA,NA,NA,SUPAMT61006,32Z9ZLUT1RJAXOSYIQ5AMSNFDIZOH4,420E951D-E36C-4FFA-B8DE-91DFD1B1EF42,0,2023-09-22_08h32.03.176,Pilot_VExplicitOC_RG_AMT,2022.2.5,Win32,16.50246712,NA,NA,NA,NA,NA,NA,NA,NA,NA,NA,NA,NA,NA,NA,NA,NA,NA,NA,NA,NA,NA,NA,NA,NA,NA,NA,NA,NA,NA,NA,NA,NA,NA,NA,NA,NA,NA,NA,NA,NA,NA,NA,NA,NA,NA,NA,NA,NA,NA,NA,NA,NA,NA,space,9.9641,55.98958333,2.3224,0,0,0,0,1,gambling game,011.png,NA,NA,NA,NA,NA,NA,NA,NA,NA,NA,NA,NA,NA,NA,NA,NA,NA,NA,NA,NA,NA,NA,NA,NA,NA,NA,NA,NA,NA,NA,NA,NA,NA,NA,NA,NA,NA,NA,NA,NA,NA,NA,NA,NA,NA,NA,NA,NA,NA,NA,NA,NA,NA,NA,NA,NA,NA,NA
NA,NA,NA,NA,NA,NA,NA,NA,NA,NA,NA,SUPAMT61006,32Z9ZLUT1RJAXOSYIQ5AMSNFDIZOH4,420E951D-E36C-4FFA-B8DE-91DFD1B1EF42,0,2023-09-22_08h32.03.176,Pilot_VExplicitOC_RG_AMT,2022.2.5,Win32,16.50246712,NA,NA,NA,NA,NA,NA,NA,NA,NA,NA,NA,NA,NA,NA,NA,NA,NA,NA,NA,NA,NA,NA,NA,NA,NA,NA,NA,NA,NA,NA,NA,NA,NA,NA,NA,NA,NA,NA,NA,NA,NA,NA,NA,NA,NA,NA,NA,NA,NA,NA,NA,NA,NA,NA,NA,89.0625,1.7198,0,1,1,1,1,stand up,002.png,NA,NA,NA,NA,NA,NA,NA,NA,NA,NA,NA,NA,NA,NA,NA,NA,NA,NA,NA,NA,NA,NA,NA,NA,NA,NA,NA,NA,NA,NA,NA,NA,NA,NA,NA,NA,NA,NA,NA,NA,NA,NA,NA,NA,NA,NA,NA,NA,NA,NA,NA,NA,NA,NA,NA,NA,NA,NA
NA,NA,NA,NA,NA,NA,NA,NA,NA,NA,NA,SUPAMT61006,32Z9ZLUT1RJAXOSYIQ5AMSNFDIZOH4,420E951D-E36C-4FFA-B8DE-91DFD1B1EF42,0,2023-09-22_08h32.03.176,Pilot_VExplicitOC_RG_AMT,2022.2.5,Win32,16.50246712,NA,NA,NA,NA,NA,NA,NA,NA,NA,NA,NA,NA,NA,NA,NA,NA,NA,NA,NA,NA,NA,NA,NA,NA,NA,NA,NA,NA,NA,NA,NA,NA,NA,NA,NA,NA,NA,NA,NA,NA,NA,NA,NA,NA,NA,NA,NA,NA,NA,NA,NA,NA,NA,NA,NA,32.55208333,2.1717,0,2,2,2,1,stretch,003.png,NA,NA,NA,NA,NA,NA,NA,NA,NA,NA,NA,NA,NA,NA,NA,NA,NA,NA,NA,NA,NA,NA,NA,NA,NA,NA,NA,NA,NA,NA,NA,NA,NA,NA,NA,NA,NA,NA,NA,NA,NA,NA,NA,NA,NA,NA,NA,NA,NA,NA,NA,NA,NA,NA,NA,NA,NA,NA
NA,NA,NA,NA,NA,NA,NA,NA,NA,NA,NA,SUPAMT61006,32Z9ZLUT1RJAXOSYIQ5AMSNFDIZOH4,420E951D-E36C-4FFA-B8DE-91DFD1B1EF42,0,2023-09-22_08h32.03.176,Pilot_VExplicitOC_RG_AMT,2022.2.5,Win32,16.50246712,NA,NA,NA,NA,NA,NA,NA,NA,NA,NA,NA,NA,NA,NA,NA,NA,NA,NA,NA,NA,NA,NA,NA,NA,NA,NA,NA,NA,NA,NA,NA,NA,NA,NA,NA,NA,NA,NA,NA,NA,NA,NA,NA,NA,NA,NA,NA,NA,NA,NA,NA,NA,NA,NA,NA,50.78125,5.911099999,0,3,3,3,1,make a drink,004.png,NA,NA,NA,NA,NA,NA,NA,NA,NA,NA,NA,NA,NA,NA,NA,NA,NA,NA,NA,NA,NA,NA,NA,NA,NA,NA,NA,NA,NA,NA,NA,NA,NA,NA,NA,NA,NA,NA,NA,NA,NA,NA,NA,NA,NA,NA,NA,NA,NA,NA,NA,NA,NA,NA,NA,NA,NA,NA
NA,NA,NA,NA,NA,NA,NA,NA,NA,NA,NA,SUPAMT61006,32Z9ZLUT1RJAXOSYIQ5AMSNFDIZOH4,420E951D-E36C-4FFA-B8DE-91DFD1B1EF42,0,2023-09-22_08h32.03.176,Pilot_VExplicitOC_RG_AMT,2022.2.5,Win32,16.50246712,NA,NA,NA,NA,NA,NA,NA,NA,NA,NA,NA,NA,NA,NA,NA,NA,NA,NA,NA,NA,NA,NA,NA,NA,NA,NA,NA,NA,NA,NA,NA,NA,NA,NA,NA,NA,NA,NA,NA,NA,NA,NA,NA,NA,NA,NA,NA,NA,NA,NA,NA,NA,NA,NA,NA,47.39583333,5.3709,0,4,4,4,1,scroll social media,005.png,NA,NA,NA,NA,NA,NA,NA,NA,NA,NA,NA,NA,NA,NA,NA,NA,NA,NA,NA,NA,NA,NA,NA,NA,NA,NA,NA,NA,NA,NA,NA,NA,NA,NA,NA,NA,NA,NA,NA,NA,NA,NA,NA,NA,NA,NA,NA,NA,NA,NA,NA,NA,NA,NA,NA,NA,NA,NA
NA,NA,NA,NA,NA,NA,NA,NA,NA,NA,NA,SUPAMT61006,32Z9ZLUT1RJAXOSYIQ5AMSNFDIZOH4,420E951D-E36C-4FFA-B8DE-91DFD1B1EF42,0,2023-09-22_08h32.03.176,Pilot_VExplicitOC_RG_AMT,2022.2.5,Win32,16.50246712,NA,NA,NA,NA,NA,NA,NA,NA,NA,NA,NA,NA,NA,NA,NA,NA,NA,NA,NA,NA,NA,NA,NA,NA,NA,NA,NA,NA,NA,NA,NA,NA,NA,NA,NA,NA,NA,NA,NA,NA,NA,NA,NA,NA,NA,NA,NA,NA,NA,NA,NA,NA,NA,NA,NA,61.19791667,1.9455,0,5,5,5,1,listen to music,006.png,NA,NA,NA,NA,NA,NA,NA,NA,NA,NA,NA,NA,NA,NA,NA,NA,NA,NA,NA,NA,NA,NA,NA,NA,NA,NA,NA,NA,NA,NA,NA,NA,NA,NA,NA,NA,NA,NA,NA,NA,NA,NA,NA,NA,NA,NA,NA,NA,NA,NA,NA,NA,NA,NA,NA,NA,NA,NA
NA,NA,NA,NA,NA,NA,NA,NA,NA,NA,NA,SUPAMT61006,32Z9ZLUT1RJAXOSYIQ5AMSNFDIZOH4,420E951D-E36C-4FFA-B8DE-91DFD1B1EF42,0,2023-09-22_08h32.03.176,Pilot_VExplicitOC_RG_AMT,2022.2.5,Win32,16.50246712,NA,NA,NA,NA,NA,NA,NA,NA,NA,NA,NA,NA,NA,NA,NA,NA,NA,NA,NA,NA,NA,NA,NA,NA,NA,NA,NA,NA,NA,NA,NA,NA,NA,NA,NA,NA,NA,NA,NA,NA,NA,NA,NA,NA,NA,NA,NA,NA,NA,NA,NA,NA,NA,NA,NA,79.94791667,2.3294,0,6,6,6,1,daydream,007.png,NA,NA,NA,NA,NA,NA,NA,NA,NA,NA,NA,NA,NA,NA,NA,NA,NA,NA,NA,NA,NA,NA,NA,NA,NA,NA,NA,NA,NA,NA,NA,NA,NA,NA,NA,NA,NA,NA,NA,NA,NA,NA,NA,NA,NA,NA,NA,NA,NA,NA,NA,NA,NA,NA,NA,NA,NA,NA
NA,NA,NA,NA,NA,NA,NA,NA,NA,NA,NA,SUPAMT61006,32Z9ZLUT1RJAXOSYIQ5AMSNFDIZOH4,420E951D-E36C-4FFA-B8DE-91DFD1B1EF42,0,2023-09-22_08h32.03.176,Pilot_VExplicitOC_RG_AMT,2022.2.5,Win32,16.50246712,NA,NA,NA,NA,NA,NA,NA,NA,NA,NA,NA,NA,NA,NA,NA,NA,NA,NA,NA,NA,NA,NA,NA,NA,NA,NA,NA,NA,NA,NA,NA,NA,NA,NA,NA,NA,NA,NA,NA,NA,NA,NA,NA,NA,NA,NA,NA,NA,NA,NA,NA,NA,NA,NA,NA,-30.46875,1.6165,0,7,7,7,1,watch a short animation,008.png,NA,NA,NA,NA,NA,NA,NA,NA,NA,NA,NA,NA,NA,NA,NA,NA,NA,NA,NA,NA,NA,NA,NA,NA,NA,NA,NA,NA,NA,NA,NA,NA,NA,NA,NA,NA,NA,NA,NA,NA,NA,NA,NA,NA,NA,NA,NA,NA,NA,NA,NA,NA,NA,NA,NA,NA,NA,NA
NA,NA,NA,NA,NA,NA,NA,NA,NA,NA,NA,SUPAMT61006,32Z9ZLUT1RJAXOSYIQ5AMSNFDIZOH4,420E951D-E36C-4FFA-B8DE-91DFD1B1EF42,0,2023-09-22_08h32.03.176,Pilot_VExplicitOC_RG_AMT,2022.2.5,Win32,16.50246712,NA,NA,NA,NA,NA,NA,NA,NA,NA,NA,NA,NA,NA,NA,NA,NA,NA,NA,NA,NA,NA,NA,NA,NA,NA,NA,NA,NA,NA,NA,NA,NA,NA,NA,NA,NA,NA,NA,NA,NA,NA,NA,NA,NA,NA,NA,NA,NA,NA,NA,NA,NA,NA,NA,NA,29.6875,1.5565,0,8,8,8,1,read a novel,009.png,NA,NA,NA,NA,NA,NA,NA,NA,NA,NA,NA,NA,NA,NA,NA,NA,NA,NA,NA,NA,NA,NA,NA,NA,NA,NA,NA,NA,NA,NA,NA,NA,NA,NA,NA,NA,NA,NA,NA,NA,NA,NA,NA,NA,NA,NA,NA,NA,NA,NA,NA,NA,NA,NA,NA,NA,NA,NA
NA,NA,NA,NA,NA,NA,NA,NA,NA,NA,NA,SUPAMT61006,32Z9ZLUT1RJAXOSYIQ5AMSNFDIZOH4,420E951D-E36C-4FFA-B8DE-91DFD1B1EF42,0,2023-09-22_08h32.03.176,Pilot_VExplicitOC_RG_AMT,2022.2.5,Win32,16.50246712,NA,NA,NA,NA,NA,NA,NA,NA,NA,NA,NA,NA,NA,NA,NA,NA,NA,NA,NA,NA,NA,NA,NA,NA,NA,NA,NA,NA,NA,NA,NA,NA,NA,NA,NA,NA,NA,NA,NA,NA,NA,NA,NA,NA,NA,NA,NA,NA,NA,NA,NA,NA,NA,NA,NA,93.22916667,1.6032,0,9,9,9,1,read the news,010.png,NA,NA,NA,NA,NA,NA,NA,NA,NA,NA,NA,NA,NA,NA,NA,NA,NA,NA,NA,NA,NA,NA,NA,NA,NA,NA,NA,NA,NA,NA,NA,NA,NA,NA,NA,NA,NA,NA,NA,NA,NA,NA,NA,NA,NA,NA,NA,NA,NA,NA,NA,NA,NA,NA,NA,NA,NA,NA
NA,NA,NA,NA,NA,NA,NA,NA,NA,NA,NA,SUPAMT61006,32Z9ZLUT1RJAXOSYIQ5AMSNFDIZOH4,420E951D-E36C-4FFA-B8DE-91DFD1B1EF42,0,2023-09-22_08h32.03.176,Pilot_VExplicitOC_RG_AMT,2022.2.5,Win32,16.50246712,NA,NA,NA,NA,NA,NA,NA,NA,NA,NA,NA,NA,NA,NA,NA,NA,NA,NA,NA,NA,NA,NA,NA,NA,NA,NA,NA,NA,NA,NA,NA,NA,NA,NA,NA,NA,NA,NA,NA,NA,NA,NA,NA,NA,NA,NA,NA,NA,NA,NA,NA,NA,NA,NA,NA,-13.02083333,1.8796,0,10,10,10,1,rest (looking at a fixed cross),001.png,NA,NA,NA,NA,NA,NA,NA,NA,NA,NA,NA,NA,NA,NA,NA,NA,NA,NA,NA,NA,NA,NA,NA,NA,NA,NA,NA,NA,NA,NA,NA,NA,NA,NA,NA,NA,NA,NA,NA,NA,NA,NA,NA,NA,NA,NA,NA,NA,NA,NA,NA,NA,NA,NA,NA,NA,NA,NA
NA,NA,NA,NA,NA,NA,NA,NA,NA,NA,NA,SUPAMT61006,32Z9ZLUT1RJAXOSYIQ5AMSNFDIZOH4,420E951D-E36C-4FFA-B8DE-91DFD1B1EF42,0,2023-09-22_08h32.03.176,Pilot_VExplicitOC_RG_AMT,2022.2.5,Win32,16.50246712,NA,NA,NA,NA,NA,NA,NA,NA,NA,NA,NA,NA,NA,NA,happy,"unhappy, happy","less happy, more happy",NA,NA,30.72916667,6.3208,2.012,NA,NA,NA,NA,NA,NA,NA,NA,NA,NA,NA,NA,NA,NA,NA,NA,NA,NA,NA,NA,NA,NA,NA,NA,NA,NA,NA,NA,NA,NA,NA,NA,NA,NA,NA,NA,NA,NA,NA,NA,NA,NA,read the news,0,0,0,0,1,NA,NA,NA,NA,NA,NA,NA,NA,NA,NA,NA,NA,NA,NA,NA,NA,NA,NA,NA,NA,NA,NA,NA,NA,NA,NA,NA,NA,NA,NA,NA,NA,NA,NA,NA,NA,NA,NA,NA,NA,NA,NA,NA,NA,NA,NA,NA,NA,NA,NA,NA,NA
NA,NA,NA,NA,NA,NA,NA,NA,NA,NA,NA,SUPAMT61006,32Z9ZLUT1RJAXOSYIQ5AMSNFDIZOH4,420E951D-E36C-4FFA-B8DE-91DFD1B1EF42,0,2023-09-22_08h32.03.176,Pilot_VExplicitOC_RG_AMT,2022.2.5,Win32,16.50246712,NA,NA,NA,NA,NA,NA,NA,NA,NA,NA,NA,NA,NA,NA,frustrated,"frustrated, not frustrated","more frustrated, less frustrated",NA,NA,72.13541667,3.5048,2.0167,NA,NA,NA,NA,NA,NA,NA,NA,NA,NA,NA,NA,NA,NA,NA,NA,NA,NA,NA,NA,NA,NA,NA,NA,NA,NA,NA,NA,NA,NA,NA,NA,NA,NA,NA,NA,NA,NA,NA,NA,NA,NA,NA,0,1,1,1,1,NA,NA,NA,NA,NA,NA,NA,NA,NA,NA,NA,NA,NA,NA,NA,NA,NA,NA,NA,NA,NA,NA,NA,NA,NA,NA,NA,NA,NA,NA,NA,NA,NA,NA,NA,NA,NA,NA,NA,NA,NA,NA,NA,NA,NA,NA,NA,NA,NA,NA,NA,NA
NA,NA,NA,NA,NA,NA,NA,NA,NA,NA,NA,SUPAMT61006,32Z9ZLUT1RJAXOSYIQ5AMSNFDIZOH4,420E951D-E36C-4FFA-B8DE-91DFD1B1EF42,0,2023-09-22_08h32.03.176,Pilot_VExplicitOC_RG_AMT,2022.2.5,Win32,16.50246712,NA,NA,NA,NA,NA,NA,NA,NA,NA,NA,NA,NA,NA,NA,bored,"bored, not bored","more bored, less bored",NA,NA,-3.90625,4.1295,2.0125,NA,NA,NA,NA,NA,NA,NA,NA,NA,NA,NA,NA,NA,NA,NA,NA,NA,NA,NA,NA,NA,NA,NA,NA,NA,NA,NA,NA,NA,NA,NA,NA,NA,NA,NA,NA,NA,NA,NA,NA,NA,NA,NA,0,2,2,2,1,NA,NA,NA,NA,NA,NA,NA,NA,NA,NA,NA,NA,NA,NA,NA,NA,NA,NA,NA,NA,NA,NA,NA,NA,NA,NA,NA,NA,NA,NA,NA,NA,NA,NA,NA,NA,NA,NA,NA,NA,NA,NA,NA,NA,NA,NA,NA,NA,NA,NA,NA,NA
NA,NA,NA,NA,NA,NA,NA,NA,NA,NA,NA,SUPAMT61006,32Z9ZLUT1RJAXOSYIQ5AMSNFDIZOH4,420E951D-E36C-4FFA-B8DE-91DFD1B1EF42,0,2023-09-22_08h32.03.176,Pilot_VExplicitOC_RG_AMT,2022.2.5,Win32,16.50246712,NA,NA,NA,NA,NA,NA,NA,NA,NA,NA,NA,NA,NA,NA,NA,NA,NA,NA,NA,NA,NA,NA,NA,NA,NA,NA,NA,NA,NA,NA,NA,NA,NA,NA,NA,NA,NA,NA,NA,NA,NA,NA,NA,NA,NA,NA,NA,NA,NA,NA,NA,NA,NA,NA,NA,NA,NA,NA,NA,NA,NA,NA,NA,NA,NA,NA,NA,NA,NA,NA,space,2.5917,0,0,0,0,1,7,black.png,"In the next part of the task, you will play a gambling game where you can win money by earning points according to your choices. You will decide whether to gamble a number of points or stick with a guaranteed number of points. 
Make your choice by pressing the left or right arrow key once. An example of one trial is shown on the next screen.",NA,NA,NA,NA,NA,NA,NA,NA,NA,NA,NA,NA,NA,NA,NA,NA,NA,NA,NA,NA,NA,NA,NA,NA,NA,NA,NA,NA,NA,NA,NA,NA,NA,NA,NA,NA,NA,NA,NA,NA,NA,NA
NA,NA,NA,NA,NA,NA,NA,NA,NA,NA,NA,SUPAMT61006,32Z9ZLUT1RJAXOSYIQ5AMSNFDIZOH4,420E951D-E36C-4FFA-B8DE-91DFD1B1EF42,0,2023-09-22_08h32.03.176,Pilot_VExplicitOC_RG_AMT,2022.2.5,Win32,16.50246712,NA,NA,NA,NA,NA,NA,NA,NA,NA,NA,NA,NA,NA,NA,NA,NA,NA,NA,NA,NA,NA,NA,NA,NA,NA,NA,NA,NA,NA,NA,NA,NA,NA,NA,NA,NA,NA,NA,NA,NA,NA,NA,NA,NA,NA,NA,NA,NA,NA,NA,NA,NA,NA,NA,NA,NA,NA,NA,NA,NA,NA,NA,NA,NA,NA,NA,NA,NA,NA,NA,space,28.3242,0,1,1,1,1,8,example_start.png,"The GAMBLING OPTION will be shown on the RIGHT SIDE. 
Select this option using the RIGHT ARROW KEY on your keyboard.",NA,NA,NA,NA,NA,NA,NA,NA,NA,NA,NA,NA,NA,NA,NA,NA,NA,NA,NA,NA,NA,NA,NA,NA,NA,NA,NA,NA,NA,NA,NA,NA,NA,NA,NA,NA,NA,NA,NA,NA,NA,NA
NA,NA,NA,NA,NA,NA,NA,NA,NA,NA,NA,SUPAMT61006,32Z9ZLUT1RJAXOSYIQ5AMSNFDIZOH4,420E951D-E36C-4FFA-B8DE-91DFD1B1EF42,0,2023-09-22_08h32.03.176,Pilot_VExplicitOC_RG_AMT,2022.2.5,Win32,16.50246712,NA,NA,NA,NA,NA,NA,NA,NA,NA,NA,NA,NA,NA,NA,NA,NA,NA,NA,NA,NA,NA,NA,NA,NA,NA,NA,NA,NA,NA,NA,NA,NA,NA,NA,NA,NA,NA,NA,NA,NA,NA,NA,NA,NA,NA,NA,NA,NA,NA,NA,NA,NA,NA,NA,NA,NA,NA,NA,NA,NA,NA,NA,NA,NA,NA,NA,NA,NA,NA,NA,space,2.1456,0,2,2,2,1,9,example_gamble.png,"Once you select the gambling choice, the choice you made will remain on the screen.",NA,NA,NA,NA,NA,NA,NA,NA,NA,NA,NA,NA,NA,NA,NA,NA,NA,NA,NA,NA,NA,NA,NA,NA,NA,NA,NA,NA,NA,NA,NA,NA,NA,NA,NA,NA,NA,NA,NA,NA,NA,NA
NA,NA,NA,NA,NA,NA,NA,NA,NA,NA,NA,SUPAMT61006,32Z9ZLUT1RJAXOSYIQ5AMSNFDIZOH4,420E951D-E36C-4FFA-B8DE-91DFD1B1EF42,0,2023-09-22_08h32.03.176,Pilot_VExplicitOC_RG_AMT,2022.2.5,Win32,16.50246712,NA,NA,NA,NA,NA,NA,NA,NA,NA,NA,NA,NA,NA,NA,NA,NA,NA,NA,NA,NA,NA,NA,NA,NA,NA,NA,NA,NA,NA,NA,NA,NA,NA,NA,NA,NA,NA,NA,NA,NA,NA,NA,NA,NA,NA,NA,NA,NA,NA,NA,NA,NA,NA,NA,NA,NA,NA,NA,NA,NA,NA,NA,NA,NA,NA,NA,NA,NA,NA,NA,space,1.3619,0,3,3,3,1,10,example_win.png,"The outcome you received will then be shown on the screen. In this example , you WON 10 points.",NA,NA,NA,NA,NA,NA,NA,NA,NA,NA,NA,NA,NA,NA,NA,NA,NA,NA,NA,NA,NA,NA,NA,NA,NA,NA,NA,NA,NA,NA,NA,NA,NA,NA,NA,NA,NA,NA,NA,NA,NA,NA
NA,NA,NA,NA,NA,NA,NA,NA,NA,NA,NA,SUPAMT61006,32Z9ZLUT1RJAXOSYIQ5AMSNFDIZOH4,420E951D-E36C-4FFA-B8DE-91DFD1B1EF42,0,2023-09-22_08h32.03.176,Pilot_VExplicitOC_RG_AMT,2022.2.5,Win32,16.50246712,NA,NA,NA,NA,NA,NA,NA,NA,NA,NA,NA,NA,NA,NA,NA,NA,NA,NA,NA,NA,NA,NA,NA,NA,NA,NA,NA,NA,NA,NA,NA,NA,NA,NA,NA,NA,NA,NA,NA,NA,NA,NA,NA,NA,NA,NA,NA,NA,NA,NA,NA,NA,NA,NA,NA,NA,NA,NA,NA,NA,NA,NA,NA,NA,NA,NA,NA,NA,NA,NA,space,1.670400001,0,4,4,4,1,11,example_start.png,"The GUARANTEED OPTION will be shown on the LEFT SIDE. You are 100% guaranteed to gain or lose this amount. In this example, you have a 100% chance of winning 1 point. Select this option using the LEFT ARROW KEY on your keyboard.",NA,NA,NA,NA,NA,NA,NA,NA,NA,NA,NA,NA,NA,NA,NA,NA,NA,NA,NA,NA,NA,NA,NA,NA,NA,NA,NA,NA,NA,NA,NA,NA,NA,NA,NA,NA,NA,NA,NA,NA,NA,NA
NA,NA,NA,NA,NA,NA,NA,NA,NA,NA,NA,SUPAMT61006,32Z9ZLUT1RJAXOSYIQ5AMSNFDIZOH4,420E951D-E36C-4FFA-B8DE-91DFD1B1EF42,0,2023-09-22_08h32.03.176,Pilot_VExplicitOC_RG_AMT,2022.2.5,Win32,16.50246712,NA,NA,NA,NA,NA,NA,NA,NA,NA,NA,NA,NA,NA,NA,NA,NA,NA,NA,NA,NA,NA,NA,NA,NA,NA,NA,NA,NA,NA,NA,NA,NA,NA,NA,NA,NA,NA,NA,NA,NA,NA,NA,NA,NA,NA,NA,NA,NA,NA,NA,NA,NA,NA,NA,NA,NA,NA,NA,NA,NA,NA,NA,NA,NA,NA,NA,NA,NA,NA,NA,space,2.801099999,0,5,5,5,1,12,example_certain.png,"Once you select the guaranteed choice, your selection will remain on the screen.",NA,NA,NA,NA,NA,NA,NA,NA,NA,NA,NA,NA,NA,NA,NA,NA,NA,NA,NA,NA,NA,NA,NA,NA,NA,NA,NA,NA,NA,NA,NA,NA,NA,NA,NA,NA,NA,NA,NA,NA,NA,NA
NA,NA,NA,NA,NA,NA,NA,NA,NA,NA,NA,SUPAMT61006,32Z9ZLUT1RJAXOSYIQ5AMSNFDIZOH4,420E951D-E36C-4FFA-B8DE-91DFD1B1EF42,0,2023-09-22_08h32.03.176,Pilot_VExplicitOC_RG_AMT,2022.2.5,Win32,16.50246712,NA,NA,NA,NA,NA,NA,NA,NA,NA,NA,NA,NA,NA,NA,NA,NA,NA,NA,NA,NA,NA,NA,NA,NA,NA,NA,NA,NA,NA,NA,NA,NA,NA,NA,NA,NA,NA,NA,NA,NA,NA,NA,NA,NA,NA,NA,NA,NA,NA,NA,NA,NA,NA,NA,NA,NA,NA,NA,NA,NA,NA,NA,NA,NA,NA,NA,NA,NA,NA,NA,space,7.7814,0,6,6,6,1,13,black.png,Please make your choices as fast as possible.,NA,NA,NA,NA,NA,NA,NA,NA,NA,NA,NA,NA,NA,NA,NA,NA,NA,NA,NA,NA,NA,NA,NA,NA,NA,NA,NA,NA,NA,NA,NA,NA,NA,NA,NA,NA,NA,NA,NA,NA,NA,NA
NA,NA,NA,NA,NA,NA,NA,NA,NA,NA,NA,SUPAMT61006,32Z9ZLUT1RJAXOSYIQ5AMSNFDIZOH4,420E951D-E36C-4FFA-B8DE-91DFD1B1EF42,0,2023-09-22_08h32.03.176,Pilot_VExplicitOC_RG_AMT,2022.2.5,Win32,16.50246712,NA,NA,NA,NA,NA,NA,NA,NA,NA,NA,NA,NA,NA,NA,NA,NA,NA,NA,NA,NA,NA,NA,NA,NA,NA,NA,NA,NA,NA,NA,NA,NA,NA,NA,NA,NA,NA,NA,NA,NA,NA,NA,NA,NA,NA,NA,NA,NA,NA,NA,NA,NA,NA,NA,NA,NA,NA,NA,NA,NA,NA,NA,NA,NA,NA,NA,NA,NA,NA,NA,space,1.2268,0,7,7,7,1,14,black.png,"You will again be asked to rate your mood *at that moment* once in a while. 
Use your mouse to move the slider dot to the position that represents how you are feeling.
Let's play!",NA,NA,NA,NA,NA,NA,NA,NA,NA,NA,NA,NA,NA,NA,NA,NA,NA,NA,NA,NA,NA,NA,NA,NA,NA,NA,NA,NA,NA,NA,NA,NA,NA,NA,NA,NA,NA,NA,NA,NA,NA,NA
NA,NA,NA,NA,NA,NA,NA,NA,NA,NA,NA,SUPAMT61006,32Z9ZLUT1RJAXOSYIQ5AMSNFDIZOH4,420E951D-E36C-4FFA-B8DE-91DFD1B1EF42,0,2023-09-22_08h32.03.176,Pilot_VExplicitOC_RG_AMT,2022.2.5,Win32,16.50246712,NA,NA,NA,NA,NA,NA,NA,NA,NA,NA,NA,NA,NA,NA,NA,NA,NA,NA,NA,NA,NA,NA,NA,NA,NA,NA,NA,NA,NA,NA,NA,NA,NA,NA,NA,NA,NA,NA,NA,NA,NA,NA,NA,NA,NA,NA,NA,NA,NA,NA,NA,NA,NA,NA,NA,NA,NA,NA,NA,NA,NA,NA,NA,NA,NA,NA,NA,NA,NA,NA,NA,NA,NA,NA,NA,NA,NA,NA,NA,NA,0,0,0,0,1,NA,NA,NA,NA,NA,NA,NA,NA,NA,NA,NA,NA,NA,NA,NA,NA,NA,NA,NA,NA,NA,NA,NA,NA,NA,NA,NA,NA,NA,NA,NA,NA,NA,NA,NA,NA,NA
NA,NA,NA,NA,NA,NA,NA,NA,NA,NA,NA,SUPAMT61006,32Z9ZLUT1RJAXOSYIQ5AMSNFDIZOH4,420E951D-E36C-4FFA-B8DE-91DFD1B1EF42,0,2023-09-22_08h32.03.176,Pilot_VExplicitOC_RG_AMT,2022.2.5,Win32,16.50246712,NA,NA,NA,NA,NA,NA,NA,NA,NA,NA,NA,NA,NA,NA,frustrated,"frustrated, not frustrated","more frustrated, less frustrated",NA,NA,50,5.0385,2.055,NA,NA,NA,NA,NA,NA,NA,NA,NA,NA,NA,NA,NA,NA,NA,NA,NA,NA,NA,NA,NA,NA,NA,NA,NA,NA,NA,NA,NA,NA,NA,NA,NA,NA,NA,NA,NA,NA,NA,NA,NA,NA,NA,NA,NA,NA,NA,NA,NA,NA,NA,NA,NA,NA,NA,NA,NA,NA,NA,NA,NA,NA,NA,random,FALSE,FALSE,TRUE,0.5,0,0,-0.068365982,-1.5,-1.568365982,-1.545577321,gamble,lose,-1.568365982,-1.568365982,right,1.777099999,0,0,0,1,1,NA,NA,NA,NA,NA,NA,NA,NA,NA,NA,NA,NA,NA,NA,NA
NA,NA,NA,NA,NA,NA,NA,NA,NA,NA,NA,SUPAMT61006,32Z9ZLUT1RJAXOSYIQ5AMSNFDIZOH4,420E951D-E36C-4FFA-B8DE-91DFD1B1EF42,0,2023-09-22_08h32.03.176,Pilot_VExplicitOC_RG_AMT,2022.2.5,Win32,16.50246712,NA,NA,NA,NA,NA,NA,NA,NA,NA,NA,NA,NA,NA,NA,happy,"unhappy, happy","less happy, more happy",NA,NA,50.52083333,4.0836,2.063,NA,NA,NA,NA,NA,NA,NA,NA,NA,NA,NA,NA,NA,NA,NA,NA,NA,NA,NA,NA,NA,NA,NA,NA,NA,NA,NA,NA,NA,NA,NA,NA,NA,NA,NA,NA,NA,NA,NA,NA,NA,NA,NA,NA,NA,NA,NA,NA,NA,NA,NA,NA,NA,NA,NA,NA,NA,NA,NA,NA,NA,NA,NA,NA,NA,NA,NA,NA,NA,NA,NA,NA,NA,NA,NA,NA,NA,NA,NA,NA,0,1,1,0,1,NA,NA,NA,NA,NA,NA,NA,NA,NA,NA,NA,NA,NA,NA,NA
NA,NA,NA,NA,NA,NA,NA,NA,NA,NA,NA,SUPAMT61006,32Z9ZLUT1RJAXOSYIQ5AMSNFDIZOH4,420E951D-E36C-4FFA-B8DE-91DFD1B1EF42,0,2023-09-22_08h32.03.176,Pilot_VExplicitOC_RG_AMT,2022.2.5,Win32,16.50246712,NA,NA,NA,NA,NA,NA,NA,NA,NA,NA,NA,NA,NA,NA,bored,"bored, not bored","more bored, less bored",NA,NA,31.25,4.209200001,2.059900001,NA,NA,NA,NA,NA,NA,NA,NA,NA,NA,NA,NA,NA,NA,NA,NA,NA,NA,NA,NA,NA,NA,NA,NA,NA,NA,NA,NA,NA,NA,NA,NA,NA,NA,NA,NA,NA,NA,NA,NA,NA,NA,NA,NA,NA,NA,NA,NA,NA,NA,NA,NA,NA,NA,NA,NA,NA,NA,NA,NA,NA,NA,NA,NA,NA,NA,NA,NA,NA,NA,NA,NA,NA,NA,NA,NA,NA,NA,NA,NA,0,2,2,2,1,NA,NA,NA,NA,NA,NA,NA,NA,NA,NA,NA,NA,NA,NA,NA
NA,NA,NA,NA,NA,NA,NA,NA,NA,NA,NA,SUPAMT61006,32Z9ZLUT1RJAXOSYIQ5AMSNFDIZOH4,420E951D-E36C-4FFA-B8DE-91DFD1B1EF42,0,2023-09-22_08h32.03.176,Pilot_VExplicitOC_RG_AMT,2022.2.5,Win32,16.50246712,NA,NA,NA,NA,NA,NA,NA,NA,NA,NA,NA,NA,NA,NA,NA,NA,NA,NA,NA,NA,NA,NA,NA,NA,NA,NA,NA,NA,NA,NA,NA,NA,NA,NA,NA,NA,NA,NA,NA,NA,NA,NA,NA,NA,NA,NA,NA,NA,NA,NA,NA,NA,NA,NA,NA,NA,NA,NA,NA,NA,NA,NA,NA,NA,NA,NA,NA,NA,NA,NA,NA,NA,NA,NA,NA,NA,NA,NA,NA,NA,NA,NA,NA,NA,NA,NA,NA,NA,NA,NA,NA,NA,NA,NA,NA,NA,NA,NA,NA,NA,NA,NA,NA,NA,NA,NA,NA,0,0,0,21,1,-1.5,NA,NA,NA,NA,NA,NA,NA,NA,NA
NA,NA,NA,NA,NA,NA,NA,NA,NA,NA,NA,SUPAMT61006,32Z9ZLUT1RJAXOSYIQ5AMSNFDIZOH4,420E951D-E36C-4FFA-B8DE-91DFD1B1EF42,0,2023-09-22_08h32.03.176,Pilot_VExplicitOC_RG_AMT,2022.2.5,Win32,16.50246712,NA,NA,NA,NA,NA,NA,NA,NA,NA,NA,NA,NA,NA,NA,NA,NA,NA,NA,NA,NA,NA,NA,NA,NA,NA,NA,NA,NA,NA,NA,NA,NA,NA,NA,NA,NA,NA,NA,NA,NA,NA,NA,NA,NA,NA,NA,NA,NA,NA,NA,NA,NA,NA,NA,NA,NA,NA,NA,NA,NA,NA,NA,NA,NA,NA,NA,NA,NA,NA,NA,NA,NA,NA,NA,NA,NA,NA,NA,NA,NA,NA,NA,NA,NA,NA,random,FALSE,FALSE,FALSE,0.5,0,0,1.85460148,2.05460148,0.2,0.818200493,gamble,win,2.05460148,0.486235498,right,1.1255,NA,NA,NA,NA,NA,0,1,1,2,1,0.2,NA,NA,NA,NA,NA,NA,NA,NA,NA
NA,NA,NA,NA,NA,NA,NA,NA,NA,NA,NA,SUPAMT61006,32Z9ZLUT1RJAXOSYIQ5AMSNFDIZOH4,420E951D-E36C-4FFA-B8DE-91DFD1B1EF42,0,2023-09-22_08h32.03.176,Pilot_VExplicitOC_RG_AMT,2022.2.5,Win32,16.50246712,NA,NA,NA,NA,NA,NA,NA,NA,NA,NA,NA,NA,NA,NA,bored,"bored, not bored","more bored, less bored",NA,NA,92.96875,4.1783,2.0333,NA,NA,NA,NA,NA,NA,NA,NA,NA,NA,NA,NA,NA,NA,NA,NA,NA,NA,NA,NA,NA,NA,NA,NA,NA,NA,NA,NA,NA,NA,NA,NA,NA,NA,NA,NA,NA,NA,NA,NA,NA,NA,NA,NA,NA,NA,NA,NA,NA,NA,NA,NA,NA,NA,NA,NA,NA,NA,NA,NA,NA,NA,NA,random,FALSE,FALSE,TRUE,0.5,0,0,4.156234821,0.656234821,-3.5,-2.114588393,certain,certain,-2.114588393,-1.628352895,left,1.4025,0,0,0,2,1,NA,NA,NA,NA,NA,NA,NA,NA,NA,NA,NA,NA,NA,NA,NA
NA,NA,NA,NA,NA,NA,NA,NA,NA,NA,NA,SUPAMT61006,32Z9ZLUT1RJAXOSYIQ5AMSNFDIZOH4,420E951D-E36C-4FFA-B8DE-91DFD1B1EF42,0,2023-09-22_08h32.03.176,Pilot_VExplicitOC_RG_AMT,2022.2.5,Win32,16.50246712,NA,NA,NA,NA,NA,NA,NA,NA,NA,NA,NA,NA,NA,NA,happy,"unhappy, happy","less happy, more happy",NA,NA,40.625,3.7909,2.0407,NA,NA,NA,NA,NA,NA,NA,NA,NA,NA,NA,NA,NA,NA,NA,NA,NA,NA,NA,NA,NA,NA,NA,NA,NA,NA,NA,NA,NA,NA,NA,NA,NA,NA,NA,NA,NA,NA,NA,NA,NA,NA,NA,NA,NA,NA,NA,NA,NA,NA,NA,NA,NA,NA,NA,NA,NA,NA,NA,NA,NA,NA,NA,NA,NA,NA,NA,NA,NA,NA,NA,NA,NA,NA,NA,NA,NA,NA,NA,NA,0,1,1,0,1,NA,NA,NA,NA,NA,NA,NA,NA,NA,NA,NA,NA,NA,NA,NA
NA,NA,NA,NA,NA,NA,NA,NA,NA,NA,NA,SUPAMT61006,32Z9ZLUT1RJAXOSYIQ5AMSNFDIZOH4,420E951D-E36C-4FFA-B8DE-91DFD1B1EF42,0,2023-09-22_08h32.03.176,Pilot_VExplicitOC_RG_AMT,2022.2.5,Win32,16.50246712,NA,NA,NA,NA,NA,NA,NA,NA,NA,NA,NA,NA,NA,NA,frustrated,"frustrated, not frustrated","more frustrated, less frustrated",NA,NA,41.40625,4.4538,2.0315,NA,NA,NA,NA,NA,NA,NA,NA,NA,NA,NA,NA,NA,NA,NA,NA,NA,NA,NA,NA,NA,NA,NA,NA,NA,NA,NA,NA,NA,NA,NA,NA,NA,NA,NA,NA,NA,NA,NA,NA,NA,NA,NA,NA,NA,NA,NA,NA,NA,NA,NA,NA,NA,NA,NA,NA,NA,NA,NA,NA,NA,NA,NA,NA,NA,NA,NA,NA,NA,NA,NA,NA,NA,NA,NA,NA,NA,NA,NA,NA,0,2,2,1,1,NA,NA,NA,NA,NA,NA,NA,NA,NA,NA,NA,NA,NA,NA,NA
NA,NA,NA,NA,NA,NA,NA,NA,NA,NA,NA,SUPAMT61006,32Z9ZLUT1RJAXOSYIQ5AMSNFDIZOH4,420E951D-E36C-4FFA-B8DE-91DFD1B1EF42,0,2023-09-22_08h32.03.176,Pilot_VExplicitOC_RG_AMT,2022.2.5,Win32,16.50246712,NA,NA,NA,NA,NA,NA,NA,NA,NA,NA,NA,NA,NA,NA,NA,NA,NA,NA,NA,NA,NA,NA,NA,NA,NA,NA,NA,NA,NA,NA,NA,NA,NA,NA,NA,NA,NA,NA,NA,NA,NA,NA,NA,NA,NA,NA,NA,NA,NA,NA,NA,NA,NA,NA,NA,NA,NA,NA,NA,NA,NA,NA,NA,NA,NA,NA,NA,NA,NA,NA,NA,NA,NA,NA,NA,NA,NA,NA,NA,NA,NA,NA,NA,NA,NA,NA,NA,NA,NA,NA,NA,NA,NA,NA,NA,NA,NA,NA,NA,NA,NA,NA,NA,NA,NA,NA,NA,0,2,2,26,1,-3.5,NA,NA,NA,NA,NA,NA,NA,NA,NA
NA,NA,NA,NA,NA,NA,NA,NA,NA,NA,NA,SUPAMT61006,32Z9ZLUT1RJAXOSYIQ5AMSNFDIZOH4,420E951D-E36C-4FFA-B8DE-91DFD1B1EF42,0,2023-09-22_08h32.03.176,Pilot_VExplicitOC_RG_AMT,2022.2.5,Win32,16.50246712,NA,NA,NA,NA,NA,NA,NA,NA,NA,NA,NA,NA,NA,NA,NA,NA,NA,NA,NA,NA,NA,NA,NA,NA,NA,NA,NA,NA,NA,NA,NA,NA,NA,NA,NA,NA,NA,NA,NA,NA,NA,NA,NA,NA,NA,NA,NA,NA,NA,NA,NA,NA,NA,NA,NA,NA,NA,NA,NA,NA,NA,NA,NA,NA,NA,NA,NA,NA,NA,NA,NA,NA,NA,NA,NA,NA,NA,NA,NA,NA,NA,NA,NA,NA,NA,random,FALSE,FALSE,TRUE,0.5,0,0,-2.410374412,0.3,-2.110374412,-1.306916275,certain,certain,-1.306916275,-2.93526917,left,1.5367,NA,NA,NA,NA,NA,0,3,3,31,1,0.3,NA,NA,NA,NA,NA,NA,NA,NA,NA
NA,NA,NA,NA,NA,NA,NA,NA,NA,NA,NA,SUPAMT61006,32Z9ZLUT1RJAXOSYIQ5AMSNFDIZOH4,420E951D-E36C-4FFA-B8DE-91DFD1B1EF42,0,2023-09-22_08h32.03.176,Pilot_VExplicitOC_RG_AMT,2022.2.5,Win32,16.50246712,NA,NA,NA,NA,NA,NA,NA,NA,NA,NA,NA,NA,NA,NA,frustrated,"frustrated, not frustrated","more frustrated, less frustrated",NA,NA,50.78125,3.8865,2.0428,NA,NA,NA,NA,NA,NA,NA,NA,NA,NA,NA,NA,NA,NA,NA,NA,NA,NA,NA,NA,NA,NA,NA,NA,NA,NA,NA,NA,NA,NA,NA,NA,NA,NA,NA,NA,NA,NA,NA,NA,NA,NA,NA,NA,NA,NA,NA,NA,NA,NA,NA,NA,NA,NA,NA,NA,NA,NA,NA,NA,NA,NA,NA,random,FALSE,FALSE,TRUE,0.5,0,0,-0.044157106,-0.8,-0.844157106,-0.82943807,gamble,lose,-0.844157106,-3.779426275,right,1.2422,0,0,0,1,1,NA,NA,NA,NA,NA,NA,NA,NA,NA,NA,NA,NA,NA,NA,NA
NA,NA,NA,NA,NA,NA,NA,NA,NA,NA,NA,SUPAMT61006,32Z9ZLUT1RJAXOSYIQ5AMSNFDIZOH4,420E951D-E36C-4FFA-B8DE-91DFD1B1EF42,0,2023-09-22_08h32.03.176,Pilot_VExplicitOC_RG_AMT,2022.2.5,Win32,16.50246712,NA,NA,NA,NA,NA,NA,NA,NA,NA,NA,NA,NA,NA,NA,bored,"bored, not bored","more bored, less bored",NA,NA,54.6875,3.9616,2.0522,NA,NA,NA,NA,NA,NA,NA,NA,NA,NA,NA,NA,NA,NA,NA,NA,NA,NA,NA,NA,NA,NA,NA,NA,NA,NA,NA,NA,NA,NA,NA,NA,NA,NA,NA,NA,NA,NA,NA,NA,NA,NA,NA,NA,NA,NA,NA,NA,NA,NA,NA,NA,NA,NA,NA,NA,NA,NA,NA,NA,NA,NA,NA,NA,NA,NA,NA,NA,NA,NA,NA,NA,NA,NA,NA,NA,NA,NA,NA,NA,0,1,1,2,1,NA,NA,NA,NA,NA,NA,NA,NA,NA,NA,NA,NA,NA,NA,NA
NA,NA,NA,NA,NA,NA,NA,NA,NA,NA,NA,SUPAMT61006,32Z9ZLUT1RJAXOSYIQ5AMSNFDIZOH4,420E951D-E36C-4FFA-B8DE-91DFD1B1EF42,0,2023-09-22_08h32.03.176,Pilot_VExplicitOC_RG_AMT,2022.2.5,Win32,16.50246712,NA,NA,NA,NA,NA,NA,NA,NA,NA,NA,NA,NA,NA,NA,happy,"unhappy, happy","less happy, more happy",NA,NA,79.94791667,3.537,2.0353,NA,NA,NA,NA,NA,NA,NA,NA,NA,NA,NA,NA,NA,NA,NA,NA,NA,NA,NA,NA,NA,NA,NA,NA,NA,NA,NA,NA,NA,NA,NA,NA,NA,NA,NA,NA,NA,NA,NA,NA,NA,NA,NA,NA,NA,NA,NA,NA,NA,NA,NA,NA,NA,NA,NA,NA,NA,NA,NA,NA,NA,NA,NA,NA,NA,NA,NA,NA,NA,NA,NA,NA,NA,NA,NA,NA,NA,NA,NA,NA,0,2,2,0,1,NA,NA,NA,NA,NA,NA,NA,NA,NA,NA,NA,NA,NA,NA,NA
NA,NA,NA,NA,NA,NA,NA,NA,NA,NA,NA,SUPAMT61006,32Z9ZLUT1RJAXOSYIQ5AMSNFDIZOH4,420E951D-E36C-4FFA-B8DE-91DFD1B1EF42,0,2023-09-22_08h32.03.176,Pilot_VExplicitOC_RG_AMT,2022.2.5,Win32,16.50246712,NA,NA,NA,NA,NA,NA,NA,NA,NA,NA,NA,NA,NA,NA,NA,NA,NA,NA,NA,NA,NA,NA,NA,NA,NA,NA,NA,NA,NA,NA,NA,NA,NA,NA,NA,NA,NA,NA,NA,NA,NA,NA,NA,NA,NA,NA,NA,NA,NA,NA,NA,NA,NA,NA,NA,NA,NA,NA,NA,NA,NA,NA,NA,NA,NA,NA,NA,NA,NA,NA,NA,NA,NA,NA,NA,NA,NA,NA,NA,NA,NA,NA,NA,NA,NA,NA,NA,NA,NA,NA,NA,NA,NA,NA,NA,NA,NA,NA,NA,NA,NA,NA,NA,NA,NA,NA,NA,0,4,4,4,1,-0.8,NA,NA,NA,NA,NA,NA,NA,NA,NA
NA,NA,NA,NA,NA,NA,NA,NA,NA,NA,NA,SUPAMT61006,32Z9ZLUT1RJAXOSYIQ5AMSNFDIZOH4,420E951D-E36C-4FFA-B8DE-91DFD1B1EF42,0,2023-09-22_08h32.03.176,Pilot_VExplicitOC_RG_AMT,2022.2.5,Win32,16.50246712,NA,NA,NA,NA,NA,NA,NA,NA,NA,NA,NA,NA,NA,NA,NA,NA,NA,NA,NA,NA,NA,NA,NA,NA,NA,NA,NA,NA,NA,NA,NA,NA,NA,NA,NA,NA,NA,NA,NA,NA,NA,NA,NA,NA,NA,NA,NA,NA,NA,NA,NA,NA,NA,NA,NA,NA,NA,NA,NA,NA,NA,NA,NA,NA,NA,NA,NA,NA,NA,NA,NA,NA,NA,NA,NA,NA,NA,NA,NA,NA,NA,NA,NA,NA,NA,random,FALSE,FALSE,TRUE,0.5,0,0,-2.225556377,2.6,0.374443623,1.116295749,gamble,lose,0.374443623,-3.404982652,right,1.465200001,NA,NA,NA,NA,NA,0,5,5,13,1,2.6,NA,NA,NA,NA,NA,NA,NA,NA,NA
NA,NA,NA,NA,NA,NA,NA,NA,NA,NA,NA,SUPAMT61006,32Z9ZLUT1RJAXOSYIQ5AMSNFDIZOH4,420E951D-E36C-4FFA-B8DE-91DFD1B1EF42,0,2023-09-22_08h32.03.176,Pilot_VExplicitOC_RG_AMT,2022.2.5,Win32,16.50246712,NA,NA,NA,NA,NA,NA,NA,NA,NA,NA,NA,NA,NA,NA,NA,NA,NA,NA,NA,NA,NA,NA,NA,NA,NA,NA,NA,NA,NA,NA,NA,NA,NA,NA,NA,NA,NA,NA,NA,NA,NA,NA,NA,NA,NA,NA,NA,NA,NA,NA,NA,NA,NA,NA,NA,NA,NA,NA,NA,NA,NA,NA,NA,NA,NA,NA,NA,NA,NA,NA,NA,NA,NA,NA,NA,NA,NA,NA,NA,NA,NA,NA,NA,NA,NA,random,FALSE,FALSE,FALSE,0.5,0,0,3.58514701,5.08514701,1.5,2.695049003,certain,certain,2.695049003,-0.709933649,left,1.065799999,NA,NA,NA,NA,NA,0,6,6,6,1,1.5,NA,NA,NA,NA,NA,NA,NA,NA,NA
NA,NA,NA,NA,NA,NA,NA,NA,NA,NA,NA,SUPAMT61006,32Z9ZLUT1RJAXOSYIQ5AMSNFDIZOH4,420E951D-E36C-4FFA-B8DE-91DFD1B1EF42,0,2023-09-22_08h32.03.176,Pilot_VExplicitOC_RG_AMT,2022.2.5,Win32,16.50246712,NA,NA,NA,NA,NA,NA,NA,NA,NA,NA,NA,NA,NA,NA,bored,"bored, not bored","more bored, less bored",NA,NA,73.4375,3.8612,2.068400001,NA,NA,NA,NA,NA,NA,NA,NA,NA,NA,NA,NA,NA,NA,NA,NA,NA,NA,NA,NA,NA,NA,NA,NA,NA,NA,NA,NA,NA,NA,NA,NA,NA,NA,NA,NA,NA,NA,NA,NA,NA,NA,NA,NA,NA,NA,NA,NA,NA,NA,NA,NA,NA,NA,NA,NA,NA,NA,NA,NA,NA,NA,NA,random,FALSE,FALSE,TRUE,0.5,0,0,-1.527819419,-2.1,-3.627819419,-3.118546279,certain,certain,-3.118546279,-3.828479928,left,1.148,0,0,0,2,1,NA,NA,NA,NA,NA,NA,NA,NA,NA,NA,NA,NA,NA,NA,NA
NA,NA,NA,NA,NA,NA,NA,NA,NA,NA,NA,SUPAMT61006,32Z9ZLUT1RJAXOSYIQ5AMSNFDIZOH4,420E951D-E36C-4FFA-B8DE-91DFD1B1EF42,0,2023-09-22_08h32.03.176,Pilot_VExplicitOC_RG_AMT,2022.2.5,Win32,16.50246712,NA,NA,NA,NA,NA,NA,NA,NA,NA,NA,NA,NA,NA,NA,happy,"unhappy, happy","less happy, more happy",NA,NA,40.36458333,3.7195,2.0245,NA,NA,NA,NA,NA,NA,NA,NA,NA,NA,NA,NA,NA,NA,NA,NA,NA,NA,NA,NA,NA,NA,NA,NA,NA,NA,NA,NA,NA,NA,NA,NA,NA,NA,NA,NA,NA,NA,NA,NA,NA,NA,NA,NA,NA,NA,NA,NA,NA,NA,NA,NA,NA,NA,NA,NA,NA,NA,NA,NA,NA,NA,NA,NA,NA,NA,NA,NA,NA,NA,NA,NA,NA,NA,NA,NA,NA,NA,NA,NA,0,1,1,0,1,NA,NA,NA,NA,NA,NA,NA,NA,NA,NA,NA,NA,NA,NA,NA
NA,NA,NA,NA,NA,NA,NA,NA,NA,NA,NA,SUPAMT61006,32Z9ZLUT1RJAXOSYIQ5AMSNFDIZOH4,420E951D-E36C-4FFA-B8DE-91DFD1B1EF42,0,2023-09-22_08h32.03.176,Pilot_VExplicitOC_RG_AMT,2022.2.5,Win32,16.50246712,NA,NA,NA,NA,NA,NA,NA,NA,NA,NA,NA,NA,NA,NA,frustrated,"frustrated, not frustrated","more frustrated, less frustrated",NA,NA,52.86458333,3.6855,2.055099999,NA,NA,NA,NA,NA,NA,NA,NA,NA,NA,NA,NA,NA,NA,NA,NA,NA,NA,NA,NA,NA,NA,NA,NA,NA,NA,NA,NA,NA,NA,NA,NA,NA,NA,NA,NA,NA,NA,NA,NA,NA,NA,NA,NA,NA,NA,NA,NA,NA,NA,NA,NA,NA,NA,NA,NA,NA,NA,NA,NA,NA,NA,NA,NA,NA,NA,NA,NA,NA,NA,NA,NA,NA,NA,NA,NA,NA,NA,NA,NA,0,2,2,1,1,NA,NA,NA,NA,NA,NA,NA,NA,NA,NA,NA,NA,NA,NA,NA
NA,NA,NA,NA,NA,NA,NA,NA,NA,NA,NA,SUPAMT61006,32Z9ZLUT1RJAXOSYIQ5AMSNFDIZOH4,420E951D-E36C-4FFA-B8DE-91DFD1B1EF42,0,2023-09-22_08h32.03.176,Pilot_VExplicitOC_RG_AMT,2022.2.5,Win32,16.50246712,NA,NA,NA,NA,NA,NA,NA,NA,NA,NA,NA,NA,NA,NA,NA,NA,NA,NA,NA,NA,NA,NA,NA,NA,NA,NA,NA,NA,NA,NA,NA,NA,NA,NA,NA,NA,NA,NA,NA,NA,NA,NA,NA,NA,NA,NA,NA,NA,NA,NA,NA,NA,NA,NA,NA,NA,NA,NA,NA,NA,NA,NA,NA,NA,NA,NA,NA,NA,NA,NA,NA,NA,NA,NA,NA,NA,NA,NA,NA,NA,NA,NA,NA,NA,NA,NA,NA,NA,NA,NA,NA,NA,NA,NA,NA,NA,NA,NA,NA,NA,NA,NA,NA,NA,NA,NA,NA,0,7,7,19,1,-2.1,NA,NA,NA,NA,NA,NA,NA,NA,NA
NA,NA,NA,NA,NA,NA,NA,NA,NA,NA,NA,SUPAMT61006,32Z9ZLUT1RJAXOSYIQ5AMSNFDIZOH4,420E951D-E36C-4FFA-B8DE-91DFD1B1EF42,0,2023-09-22_08h32.03.176,Pilot_VExplicitOC_RG_AMT,2022.2.5,Win32,16.50246712,NA,NA,NA,NA,NA,NA,NA,NA,NA,NA,NA,NA,NA,NA,NA,NA,NA,NA,NA,NA,NA,NA,NA,NA,NA,NA,NA,NA,NA,NA,NA,NA,NA,NA,NA,NA,NA,NA,NA,NA,NA,NA,NA,NA,NA,NA,NA,NA,NA,NA,NA,NA,NA,NA,NA,NA,NA,NA,NA,NA,NA,NA,NA,NA,NA,NA,NA,NA,NA,NA,NA,NA,NA,NA,NA,NA,NA,NA,NA,NA,NA,NA,NA,NA,NA,random,FALSE,FALSE,TRUE,0.5,0,0,1.543654578,1.043654578,-0.5,0.014551526,certain,certain,0.014551526,-3.813928402,left,0.9895,NA,NA,NA,NA,NA,0,8,8,9,1,-0.5,NA,NA,NA,NA,NA,NA,NA,NA,NA
NA,NA,NA,NA,NA,NA,NA,NA,NA,NA,NA,SUPAMT61006,32Z9ZLUT1RJAXOSYIQ5AMSNFDIZOH4,420E951D-E36C-4FFA-B8DE-91DFD1B1EF42,0,2023-09-22_08h32.03.176,Pilot_VExplicitOC_RG_AMT,2022.2.5,Win32,16.50246712,NA,NA,NA,NA,NA,NA,NA,NA,NA,NA,NA,NA,NA,NA,bored,"bored, not bored","more bored, less bored",NA,NA,39.0625,3.9838,2.0017,NA,NA,NA,NA,NA,NA,NA,NA,NA,NA,NA,NA,NA,NA,NA,NA,NA,NA,NA,NA,NA,NA,NA,NA,NA,NA,NA,NA,NA,NA,NA,NA,NA,NA,NA,NA,NA,NA,NA,NA,NA,NA,NA,NA,NA,NA,NA,NA,NA,NA,NA,NA,NA,NA,NA,NA,NA,NA,NA,NA,NA,NA,NA,random,FALSE,FALSE,TRUE,0.5,0,0,0.68638856,-0.61361144,-1.3,-1.071203813,certain,certain,-1.071203813,-4.885132216,left,1.1431,0,0,0,2,1,NA,NA,NA,NA,NA,NA,NA,NA,NA,NA,NA,NA,NA,NA,NA
NA,NA,NA,NA,NA,NA,NA,NA,NA,NA,NA,SUPAMT61006,32Z9ZLUT1RJAXOSYIQ5AMSNFDIZOH4,420E951D-E36C-4FFA-B8DE-91DFD1B1EF42,0,2023-09-22_08h32.03.176,Pilot_VExplicitOC_RG_AMT,2022.2.5,Win32,16.50246712,NA,NA,NA,NA,NA,NA,NA,NA,NA,NA,NA,NA,NA,NA,frustrated,"frustrated, not frustrated","more frustrated, less frustrated",NA,NA,29.16666667,3.6801,2.036099999,NA,NA,NA,NA,NA,NA,NA,NA,NA,NA,NA,NA,NA,NA,NA,NA,NA,NA,NA,NA,NA,NA,NA,NA,NA,NA,NA,NA,NA,NA,NA,NA,NA,NA,NA,NA,NA,NA,NA,NA,NA,NA,NA,NA,NA,NA,NA,NA,NA,NA,NA,NA,NA,NA,NA,NA,NA,NA,NA,NA,NA,NA,NA,NA,NA,NA,NA,NA,NA,NA,NA,NA,NA,NA,NA,NA,NA,NA,NA,NA,0,1,1,1,1,NA,NA,NA,NA,NA,NA,NA,NA,NA,NA,NA,NA,NA,NA,NA
NA,NA,NA,NA,NA,NA,NA,NA,NA,NA,NA,SUPAMT61006,32Z9ZLUT1RJAXOSYIQ5AMSNFDIZOH4,420E951D-E36C-4FFA-B8DE-91DFD1B1EF42,0,2023-09-22_08h32.03.176,Pilot_VExplicitOC_RG_AMT,2022.2.5,Win32,16.50246712,NA,NA,NA,NA,NA,NA,NA,NA,NA,NA,NA,NA,NA,NA,happy,"unhappy, happy","less happy, more happy",NA,NA,86.71875,4.8374,2.003,NA,NA,NA,NA,NA,NA,NA,NA,NA,NA,NA,NA,NA,NA,NA,NA,NA,NA,NA,NA,NA,NA,NA,NA,NA,NA,NA,NA,NA,NA,NA,NA,NA,NA,NA,NA,NA,NA,NA,NA,NA,NA,NA,NA,NA,NA,NA,NA,NA,NA,NA,NA,NA,NA,NA,NA,NA,NA,NA,NA,NA,NA,NA,NA,NA,NA,NA,NA,NA,NA,NA,NA,NA,NA,NA,NA,NA,NA,NA,NA,0,2,2,0,1,NA,NA,NA,NA,NA,NA,NA,NA,NA,NA,NA,NA,NA,NA,NA
NA,NA,NA,NA,NA,NA,NA,NA,NA,NA,NA,SUPAMT61006,32Z9ZLUT1RJAXOSYIQ5AMSNFDIZOH4,420E951D-E36C-4FFA-B8DE-91DFD1B1EF42,0,2023-09-22_08h32.03.176,Pilot_VExplicitOC_RG_AMT,2022.2.5,Win32,16.50246712,NA,NA,NA,NA,NA,NA,NA,NA,NA,NA,NA,NA,NA,NA,NA,NA,NA,NA,NA,NA,NA,NA,NA,NA,NA,NA,NA,NA,NA,NA,NA,NA,NA,NA,NA,NA,NA,NA,NA,NA,NA,NA,NA,NA,NA,NA,NA,NA,NA,NA,NA,NA,NA,NA,NA,NA,NA,NA,NA,NA,NA,NA,NA,NA,NA,NA,NA,NA,NA,NA,NA,NA,NA,NA,NA,NA,NA,NA,NA,NA,NA,NA,NA,NA,NA,NA,NA,NA,NA,NA,NA,NA,NA,NA,NA,NA,NA,NA,NA,NA,NA,NA,NA,NA,NA,NA,NA,0,9,9,28,1,-1.3,NA,NA,NA,NA,NA,NA,NA,NA,NA
NA,NA,NA,NA,NA,NA,NA,NA,NA,NA,NA,SUPAMT61006,32Z9ZLUT1RJAXOSYIQ5AMSNFDIZOH4,420E951D-E36C-4FFA-B8DE-91DFD1B1EF42,0,2023-09-22_08h32.03.176,Pilot_VExplicitOC_RG_AMT,2022.2.5,Win32,16.50246712,NA,NA,NA,NA,NA,NA,NA,NA,NA,NA,NA,NA,NA,NA,NA,NA,NA,NA,NA,NA,NA,NA,NA,NA,NA,NA,NA,NA,NA,NA,NA,NA,NA,NA,NA,NA,NA,NA,NA,NA,NA,NA,NA,NA,NA,NA,NA,NA,NA,NA,NA,NA,NA,NA,NA,NA,NA,NA,NA,NA,NA,NA,NA,NA,NA,NA,NA,NA,NA,NA,NA,NA,NA,NA,NA,NA,NA,NA,NA,NA,NA,NA,NA,NA,NA,random,FALSE,FALSE,FALSE,0.5,0,0,-2.765171818,-3.9,-6.665171818,-5.743447879,certain,certain,-5.743447879,-10.62858009,left,1.3808,NA,NA,NA,NA,NA,0,10,10,7,1,-3.9,NA,NA,NA,NA,NA,NA,NA,NA,NA
NA,NA,NA,NA,NA,NA,NA,NA,NA,NA,NA,SUPAMT61006,32Z9ZLUT1RJAXOSYIQ5AMSNFDIZOH4,420E951D-E36C-4FFA-B8DE-91DFD1B1EF42,0,2023-09-22_08h32.03.176,Pilot_VExplicitOC_RG_AMT,2022.2.5,Win32,16.50246712,NA,NA,NA,NA,NA,NA,NA,NA,NA,NA,NA,NA,NA,NA,happy,"unhappy, happy","less happy, more happy",NA,NA,33.33333333,4.1259,2.0235,NA,NA,NA,NA,NA,NA,NA,NA,NA,NA,NA,NA,NA,NA,NA,NA,NA,NA,NA,NA,NA,NA,NA,NA,NA,NA,NA,NA,NA,NA,NA,NA,NA,NA,NA,NA,NA,NA,NA,NA,NA,NA,NA,NA,NA,NA,NA,NA,NA,NA,NA,NA,NA,NA,NA,NA,NA,NA,NA,NA,NA,NA,NA,random,FALSE,FALSE,TRUE,0.5,0,0,-4.674149937,2.8,-1.874149937,-0.316099958,gamble,lose,-1.874149937,-12.50273003,right,1.4325,0,0,0,0,1,NA,NA,NA,NA,NA,NA,NA,NA,NA,NA,NA,NA,NA,NA,NA
NA,NA,NA,NA,NA,NA,NA,NA,NA,NA,NA,SUPAMT61006,32Z9ZLUT1RJAXOSYIQ5AMSNFDIZOH4,420E951D-E36C-4FFA-B8DE-91DFD1B1EF42,0,2023-09-22_08h32.03.176,Pilot_VExplicitOC_RG_AMT,2022.2.5,Win32,16.50246712,NA,NA,NA,NA,NA,NA,NA,NA,NA,NA,NA,NA,NA,NA,frustrated,"frustrated, not frustrated","more frustrated, less frustrated",NA,NA,30.20833333,3.7712,2.066900001,NA,NA,NA,NA,NA,NA,NA,NA,NA,NA,NA,NA,NA,NA,NA,NA,NA,NA,NA,NA,NA,NA,NA,NA,NA,NA,NA,NA,NA,NA,NA,NA,NA,NA,NA,NA,NA,NA,NA,NA,NA,NA,NA,NA,NA,NA,NA,NA,NA,NA,NA,NA,NA,NA,NA,NA,NA,NA,NA,NA,NA,NA,NA,NA,NA,NA,NA,NA,NA,NA,NA,NA,NA,NA,NA,NA,NA,NA,NA,NA,0,1,1,1,1,NA,NA,NA,NA,NA,NA,NA,NA,NA,NA,NA,NA,NA,NA,NA
NA,NA,NA,NA,NA,NA,NA,NA,NA,NA,NA,SUPAMT61006,32Z9ZLUT1RJAXOSYIQ5AMSNFDIZOH4,420E951D-E36C-4FFA-B8DE-91DFD1B1EF42,0,2023-09-22_08h32.03.176,Pilot_VExplicitOC_RG_AMT,2022.2.5,Win32,16.50246712,NA,NA,NA,NA,NA,NA,NA,NA,NA,NA,NA,NA,NA,NA,bored,"bored, not bored","more bored, less bored",NA,NA,27.86458333,3.9777,2.0524,NA,NA,NA,NA,NA,NA,NA,NA,NA,NA,NA,NA,NA,NA,NA,NA,NA,NA,NA,NA,NA,NA,NA,NA,NA,NA,NA,NA,NA,NA,NA,NA,NA,NA,NA,NA,NA,NA,NA,NA,NA,NA,NA,NA,NA,NA,NA,NA,NA,NA,NA,NA,NA,NA,NA,NA,NA,NA,NA,NA,NA,NA,NA,NA,NA,NA,NA,NA,NA,NA,NA,NA,NA,NA,NA,NA,NA,NA,NA,NA,0,2,2,2,1,NA,NA,NA,NA,NA,NA,NA,NA,NA,NA,NA,NA,NA,NA,NA
NA,NA,NA,NA,NA,NA,NA,NA,NA,NA,NA,SUPAMT61006,32Z9ZLUT1RJAXOSYIQ5AMSNFDIZOH4,420E951D-E36C-4FFA-B8DE-91DFD1B1EF42,0,2023-09-22_08h32.03.176,Pilot_VExplicitOC_RG_AMT,2022.2.5,Win32,16.50246712,NA,NA,NA,NA,NA,NA,NA,NA,NA,NA,NA,NA,NA,NA,NA,NA,NA,NA,NA,NA,NA,NA,NA,NA,NA,NA,NA,NA,NA,NA,NA,NA,NA,NA,NA,NA,NA,NA,NA,NA,NA,NA,NA,NA,NA,NA,NA,NA,NA,NA,NA,NA,NA,NA,NA,NA,NA,NA,NA,NA,NA,NA,NA,NA,NA,NA,NA,NA,NA,NA,NA,NA,NA,NA,NA,NA,NA,NA,NA,NA,NA,NA,NA,NA,NA,NA,NA,NA,NA,NA,NA,NA,NA,NA,NA,NA,NA,NA,NA,NA,NA,NA,NA,NA,NA,NA,NA,0,11,11,17,1,2.8,NA,NA,NA,NA,NA,NA,NA,NA,NA
NA,NA,NA,NA,NA,NA,NA,NA,NA,NA,NA,SUPAMT61006,32Z9ZLUT1RJAXOSYIQ5AMSNFDIZOH4,420E951D-E36C-4FFA-B8DE-91DFD1B1EF42,0,2023-09-22_08h32.03.176,Pilot_VExplicitOC_RG_AMT,2022.2.5,Win32,16.50246712,NA,NA,NA,NA,NA,NA,NA,NA,NA,NA,NA,NA,NA,NA,NA,NA,NA,NA,NA,NA,NA,NA,NA,NA,NA,NA,NA,NA,NA,NA,NA,NA,NA,NA,NA,NA,NA,NA,NA,NA,NA,NA,NA,NA,NA,NA,NA,NA,NA,NA,NA,NA,NA,NA,NA,NA,NA,NA,NA,NA,NA,NA,NA,NA,NA,NA,NA,NA,NA,NA,NA,NA,NA,NA,NA,NA,NA,NA,NA,NA,NA,NA,NA,NA,NA,random,FALSE,FALSE,TRUE,0.5,0,0,-3.800081338,-1.4,-5.200081338,-3.933387559,certain,certain,-3.933387559,-16.43611759,left,1.4549,NA,NA,NA,NA,NA,0,12,12,25,1,-1.4,NA,NA,NA,NA,NA,NA,NA,NA,NA
NA,NA,NA,NA,NA,NA,NA,NA,NA,NA,NA,SUPAMT61006,32Z9ZLUT1RJAXOSYIQ5AMSNFDIZOH4,420E951D-E36C-4FFA-B8DE-91DFD1B1EF42,0,2023-09-22_08h32.03.176,Pilot_VExplicitOC_RG_AMT,2022.2.5,Win32,16.50246712,NA,NA,NA,NA,NA,NA,NA,NA,NA,NA,NA,NA,NA,NA,NA,NA,NA,NA,NA,NA,NA,NA,NA,NA,NA,NA,NA,NA,NA,NA,NA,NA,NA,NA,NA,NA,NA,NA,NA,NA,NA,NA,NA,NA,NA,NA,NA,NA,NA,NA,NA,NA,NA,NA,NA,NA,NA,NA,NA,NA,NA,NA,NA,NA,NA,NA,NA,NA,NA,NA,NA,NA,NA,NA,NA,NA,NA,NA,NA,NA,NA,NA,NA,NA,NA,random,FALSE,FALSE,TRUE,0.5,0,0,4.999214867,6.199214867,1.2,2.866404956,gamble,win,6.199214867,-10.23690272,right,1.1963,NA,NA,NA,NA,NA,0,13,13,18,1,1.2,NA,NA,NA,NA,NA,NA,NA,NA,NA
NA,NA,NA,NA,NA,NA,NA,NA,NA,NA,NA,SUPAMT61006,32Z9ZLUT1RJAXOSYIQ5AMSNFDIZOH4,420E951D-E36C-4FFA-B8DE-91DFD1B1EF42,0,2023-09-22_08h32.03.176,Pilot_VExplicitOC_RG_AMT,2022.2.5,Win32,16.50246712,NA,NA,NA,NA,NA,NA,NA,NA,NA,NA,NA,NA,NA,NA,happy,"unhappy, happy","less happy, more happy",NA,NA,52.34375,3.6168,2.0414,NA,NA,NA,NA,NA,NA,NA,NA,NA,NA,NA,NA,NA,NA,NA,NA,NA,NA,NA,NA,NA,NA,NA,NA,NA,NA,NA,NA,NA,NA,NA,NA,NA,NA,NA,NA,NA,NA,NA,NA,NA,NA,NA,NA,NA,NA,NA,NA,NA,NA,NA,NA,NA,NA,NA,NA,NA,NA,NA,NA,NA,NA,NA,random,FALSE,FALSE,TRUE,0.5,0,0,4.509037399,5.609037399,1.1,2.603012466,certain,certain,2.603012466,-7.633890257,left,1.3023,0,0,0,0,1,NA,NA,NA,NA,NA,NA,NA,NA,NA,NA,NA,NA,NA,NA,NA
NA,NA,NA,NA,NA,NA,NA,NA,NA,NA,NA,SUPAMT61006,32Z9ZLUT1RJAXOSYIQ5AMSNFDIZOH4,420E951D-E36C-4FFA-B8DE-91DFD1B1EF42,0,2023-09-22_08h32.03.176,Pilot_VExplicitOC_RG_AMT,2022.2.5,Win32,16.50246712,NA,NA,NA,NA,NA,NA,NA,NA,NA,NA,NA,NA,NA,NA,bored,"bored, not bored","more bored, less bored",NA,NA,28.90625,4.220400001,2.0263,NA,NA,NA,NA,NA,NA,NA,NA,NA,NA,NA,NA,NA,NA,NA,NA,NA,NA,NA,NA,NA,NA,NA,NA,NA,NA,NA,NA,NA,NA,NA,NA,NA,NA,NA,NA,NA,NA,NA,NA,NA,NA,NA,NA,NA,NA,NA,NA,NA,NA,NA,NA,NA,NA,NA,NA,NA,NA,NA,NA,NA,NA,NA,NA,NA,NA,NA,NA,NA,NA,NA,NA,NA,NA,NA,NA,NA,NA,NA,NA,0,1,1,2,1,NA,NA,NA,NA,NA,NA,NA,NA,NA,NA,NA,NA,NA,NA,NA
NA,NA,NA,NA,NA,NA,NA,NA,NA,NA,NA,SUPAMT61006,32Z9ZLUT1RJAXOSYIQ5AMSNFDIZOH4,420E951D-E36C-4FFA-B8DE-91DFD1B1EF42,0,2023-09-22_08h32.03.176,Pilot_VExplicitOC_RG_AMT,2022.2.5,Win32,16.50246712,NA,NA,NA,NA,NA,NA,NA,NA,NA,NA,NA,NA,NA,NA,frustrated,"frustrated, not frustrated","more frustrated, less frustrated",NA,NA,8.072916667,3.028,2.0324,NA,NA,NA,NA,NA,NA,NA,NA,NA,NA,NA,NA,NA,NA,NA,NA,NA,NA,NA,NA,NA,NA,NA,NA,NA,NA,NA,NA,NA,NA,NA,NA,NA,NA,NA,NA,NA,NA,NA,NA,NA,NA,NA,NA,NA,NA,NA,NA,NA,NA,NA,NA,NA,NA,NA,NA,NA,NA,NA,NA,NA,NA,NA,NA,NA,NA,NA,NA,NA,NA,NA,NA,NA,NA,NA,NA,NA,NA,NA,NA,0,2,2,1,1,NA,NA,NA,NA,NA,NA,NA,NA,NA,NA,NA,NA,NA,NA,NA
NA,NA,NA,NA,NA,NA,NA,NA,NA,NA,NA,SUPAMT61006,32Z9ZLUT1RJAXOSYIQ5AMSNFDIZOH4,420E951D-E36C-4FFA-B8DE-91DFD1B1EF42,0,2023-09-22_08h32.03.176,Pilot_VExplicitOC_RG_AMT,2022.2.5,Win32,16.50246712,NA,NA,NA,NA,NA,NA,NA,NA,NA,NA,NA,NA,NA,NA,NA,NA,NA,NA,NA,NA,NA,NA,NA,NA,NA,NA,NA,NA,NA,NA,NA,NA,NA,NA,NA,NA,NA,NA,NA,NA,NA,NA,NA,NA,NA,NA,NA,NA,NA,NA,NA,NA,NA,NA,NA,NA,NA,NA,NA,NA,NA,NA,NA,NA,NA,NA,NA,NA,NA,NA,NA,NA,NA,NA,NA,NA,NA,NA,NA,NA,NA,NA,NA,NA,NA,NA,NA,NA,NA,NA,NA,NA,NA,NA,NA,NA,NA,NA,NA,NA,NA,NA,NA,NA,NA,NA,NA,0,14,14,22,1,1.1,NA,NA,NA,NA,NA,NA,NA,NA,NA
NA,NA,NA,NA,NA,NA,NA,NA,NA,NA,NA,SUPAMT61006,32Z9ZLUT1RJAXOSYIQ5AMSNFDIZOH4,420E951D-E36C-4FFA-B8DE-91DFD1B1EF42,0,2023-09-22_08h32.03.176,Pilot_VExplicitOC_RG_AMT,2022.2.5,Win32,16.50246712,NA,NA,NA,NA,NA,NA,NA,NA,NA,NA,NA,NA,NA,NA,NA,NA,NA,NA,NA,NA,NA,NA,NA,NA,NA,NA,NA,NA,NA,NA,NA,NA,NA,NA,NA,NA,NA,NA,NA,NA,NA,NA,NA,NA,NA,NA,NA,NA,NA,NA,NA,NA,NA,NA,NA,NA,NA,NA,NA,NA,NA,NA,NA,NA,NA,NA,NA,NA,NA,NA,NA,NA,NA,NA,NA,NA,NA,NA,NA,NA,NA,NA,NA,NA,NA,random,FALSE,FALSE,TRUE,0.5,0,0,-1.372263033,-3.6,-4.972263033,-4.514842022,certain,certain,-4.514842022,-12.14873228,left,1.5342,NA,NA,NA,NA,NA,0,15,15,14,1,-3.6,NA,NA,NA,NA,NA,NA,NA,NA,NA
NA,NA,NA,NA,NA,NA,NA,NA,NA,NA,NA,SUPAMT61006,32Z9ZLUT1RJAXOSYIQ5AMSNFDIZOH4,420E951D-E36C-4FFA-B8DE-91DFD1B1EF42,0,2023-09-22_08h32.03.176,Pilot_VExplicitOC_RG_AMT,2022.2.5,Win32,16.50246712,NA,NA,NA,NA,NA,NA,NA,NA,NA,NA,NA,NA,NA,NA,bored,"bored, not bored","more bored, less bored",NA,NA,49.21875,3.220700001,2.0245,NA,NA,NA,NA,NA,NA,NA,NA,NA,NA,NA,NA,NA,NA,NA,NA,NA,NA,NA,NA,NA,NA,NA,NA,NA,NA,NA,NA,NA,NA,NA,NA,NA,NA,NA,NA,NA,NA,NA,NA,NA,NA,NA,NA,NA,NA,NA,NA,NA,NA,NA,NA,NA,NA,NA,NA,NA,NA,NA,NA,NA,NA,NA,random,FALSE,FALSE,TRUE,0.5,0,0,3.55658008,6.55658008,3,4.185526693,certain,certain,4.185526693,-7.963205585,left,1.6217,0,0,0,2,1,NA,NA,NA,NA,NA,NA,NA,NA,NA,NA,NA,NA,NA,NA,NA
NA,NA,NA,NA,NA,NA,NA,NA,NA,NA,NA,SUPAMT61006,32Z9ZLUT1RJAXOSYIQ5AMSNFDIZOH4,420E951D-E36C-4FFA-B8DE-91DFD1B1EF42,0,2023-09-22_08h32.03.176,Pilot_VExplicitOC_RG_AMT,2022.2.5,Win32,16.50246712,NA,NA,NA,NA,NA,NA,NA,NA,NA,NA,NA,NA,NA,NA,frustrated,"frustrated, not frustrated","more frustrated, less frustrated",NA,NA,35.9375,4.196099999,2.038299999,NA,NA,NA,NA,NA,NA,NA,NA,NA,NA,NA,NA,NA,NA,NA,NA,NA,NA,NA,NA,NA,NA,NA,NA,NA,NA,NA,NA,NA,NA,NA,NA,NA,NA,NA,NA,NA,NA,NA,NA,NA,NA,NA,NA,NA,NA,NA,NA,NA,NA,NA,NA,NA,NA,NA,NA,NA,NA,NA,NA,NA,NA,NA,NA,NA,NA,NA,NA,NA,NA,NA,NA,NA,NA,NA,NA,NA,NA,NA,NA,0,1,1,1,1,NA,NA,NA,NA,NA,NA,NA,NA,NA,NA,NA,NA,NA,NA,NA
NA,NA,NA,NA,NA,NA,NA,NA,NA,NA,NA,SUPAMT61006,32Z9ZLUT1RJAXOSYIQ5AMSNFDIZOH4,420E951D-E36C-4FFA-B8DE-91DFD1B1EF42,0,2023-09-22_08h32.03.176,Pilot_VExplicitOC_RG_AMT,2022.2.5,Win32,16.50246712,NA,NA,NA,NA,NA,NA,NA,NA,NA,NA,NA,NA,NA,NA,happy,"unhappy, happy","less happy, more happy",NA,NA,47.65625,3.685099999,2.0295,NA,NA,NA,NA,NA,NA,NA,NA,NA,NA,NA,NA,NA,NA,NA,NA,NA,NA,NA,NA,NA,NA,NA,NA,NA,NA,NA,NA,NA,NA,NA,NA,NA,NA,NA,NA,NA,NA,NA,NA,NA,NA,NA,NA,NA,NA,NA,NA,NA,NA,NA,NA,NA,NA,NA,NA,NA,NA,NA,NA,NA,NA,NA,NA,NA,NA,NA,NA,NA,NA,NA,NA,NA,NA,NA,NA,NA,NA,NA,NA,0,2,2,0,1,NA,NA,NA,NA,NA,NA,NA,NA,NA,NA,NA,NA,NA,NA,NA
NA,NA,NA,NA,NA,NA,NA,NA,NA,NA,NA,SUPAMT61006,32Z9ZLUT1RJAXOSYIQ5AMSNFDIZOH4,420E951D-E36C-4FFA-B8DE-91DFD1B1EF42,0,2023-09-22_08h32.03.176,Pilot_VExplicitOC_RG_AMT,2022.2.5,Win32,16.50246712,NA,NA,NA,NA,NA,NA,NA,NA,NA,NA,NA,NA,NA,NA,NA,NA,NA,NA,NA,NA,NA,NA,NA,NA,NA,NA,NA,NA,NA,NA,NA,NA,NA,NA,NA,NA,NA,NA,NA,NA,NA,NA,NA,NA,NA,NA,NA,NA,NA,NA,NA,NA,NA,NA,NA,NA,NA,NA,NA,NA,NA,NA,NA,NA,NA,NA,NA,NA,NA,NA,NA,NA,NA,NA,NA,NA,NA,NA,NA,NA,NA,NA,NA,NA,NA,NA,NA,NA,NA,NA,NA,NA,NA,NA,NA,NA,NA,NA,NA,NA,NA,NA,NA,NA,NA,NA,NA,0,16,16,5,1,3,NA,NA,NA,NA,NA,NA,NA,NA,NA
NA,NA,NA,NA,NA,NA,NA,NA,NA,NA,NA,SUPAMT61006,32Z9ZLUT1RJAXOSYIQ5AMSNFDIZOH4,420E951D-E36C-4FFA-B8DE-91DFD1B1EF42,0,2023-09-22_08h32.03.176,Pilot_VExplicitOC_RG_AMT,2022.2.5,Win32,16.50246712,NA,NA,NA,NA,NA,NA,NA,NA,NA,NA,NA,NA,NA,NA,NA,NA,NA,NA,NA,NA,NA,NA,NA,NA,NA,NA,NA,NA,NA,NA,NA,NA,NA,NA,NA,NA,NA,NA,NA,NA,NA,NA,NA,NA,NA,NA,NA,NA,NA,NA,NA,NA,NA,NA,NA,NA,NA,NA,NA,NA,NA,NA,NA,NA,NA,NA,NA,NA,NA,NA,NA,NA,NA,NA,NA,NA,NA,NA,NA,NA,NA,NA,NA,NA,NA,random,FALSE,FALSE,FALSE,0.5,0,0,2.659596218,4.759596218,2.1,2.986532073,gamble,win,4.759596218,-3.203609368,right,2.16,NA,NA,NA,NA,NA,0,17,17,24,1,2.1,NA,NA,NA,NA,NA,NA,NA,NA,NA
NA,NA,NA,NA,NA,NA,NA,NA,NA,NA,NA,SUPAMT61006,32Z9ZLUT1RJAXOSYIQ5AMSNFDIZOH4,420E951D-E36C-4FFA-B8DE-91DFD1B1EF42,0,2023-09-22_08h32.03.176,Pilot_VExplicitOC_RG_AMT,2022.2.5,Win32,16.50246712,NA,NA,NA,NA,NA,NA,NA,NA,NA,NA,NA,NA,NA,NA,NA,NA,NA,NA,NA,NA,NA,NA,NA,NA,NA,NA,NA,NA,NA,NA,NA,NA,NA,NA,NA,NA,NA,NA,NA,NA,NA,NA,NA,NA,NA,NA,NA,NA,NA,NA,NA,NA,NA,NA,NA,NA,NA,NA,NA,NA,NA,NA,NA,NA,NA,NA,NA,NA,NA,NA,NA,NA,NA,NA,NA,NA,NA,NA,NA,NA,NA,NA,NA,NA,NA,random,FALSE,FALSE,FALSE,0.5,0,0,1.429223012,5.229223012,3.8,4.276407671,certain,certain,4.276407671,1.072798303,left,1.7027,NA,NA,NA,NA,NA,0,18,18,11,1,3.8,NA,NA,NA,NA,NA,NA,NA,NA,NA
NA,NA,NA,NA,NA,NA,NA,NA,NA,NA,NA,SUPAMT61006,32Z9ZLUT1RJAXOSYIQ5AMSNFDIZOH4,420E951D-E36C-4FFA-B8DE-91DFD1B1EF42,0,2023-09-22_08h32.03.176,Pilot_VExplicitOC_RG_AMT,2022.2.5,Win32,16.50246712,NA,NA,NA,NA,NA,NA,NA,NA,NA,NA,NA,NA,NA,NA,bored,"bored, not bored","more bored, less bored",NA,NA,44.01041667,4.5945,2.003,NA,NA,NA,NA,NA,NA,NA,NA,NA,NA,NA,NA,NA,NA,NA,NA,NA,NA,NA,NA,NA,NA,NA,NA,NA,NA,NA,NA,NA,NA,NA,NA,NA,NA,NA,NA,NA,NA,NA,NA,NA,NA,NA,NA,NA,NA,NA,NA,NA,NA,NA,NA,NA,NA,NA,NA,NA,NA,NA,NA,NA,NA,NA,random,FALSE,FALSE,FALSE,0.5,0,0,-3.835749935,0.7,-3.135749935,-1.857166623,gamble,lose,-3.135749935,-2.062951632,right,1.277,0,0,0,2,1,NA,NA,NA,NA,NA,NA,NA,NA,NA,NA,NA,NA,NA,NA,NA
NA,NA,NA,NA,NA,NA,NA,NA,NA,NA,NA,SUPAMT61006,32Z9ZLUT1RJAXOSYIQ5AMSNFDIZOH4,420E951D-E36C-4FFA-B8DE-91DFD1B1EF42,0,2023-09-22_08h32.03.176,Pilot_VExplicitOC_RG_AMT,2022.2.5,Win32,16.50246712,NA,NA,NA,NA,NA,NA,NA,NA,NA,NA,NA,NA,NA,NA,frustrated,"frustrated, not frustrated","more frustrated, less frustrated",NA,NA,56.51041667,3.2865,2.0482,NA,NA,NA,NA,NA,NA,NA,NA,NA,NA,NA,NA,NA,NA,NA,NA,NA,NA,NA,NA,NA,NA,NA,NA,NA,NA,NA,NA,NA,NA,NA,NA,NA,NA,NA,NA,NA,NA,NA,NA,NA,NA,NA,NA,NA,NA,NA,NA,NA,NA,NA,NA,NA,NA,NA,NA,NA,NA,NA,NA,NA,NA,NA,NA,NA,NA,NA,NA,NA,NA,NA,NA,NA,NA,NA,NA,NA,NA,NA,NA,0,1,1,1,1,NA,NA,NA,NA,NA,NA,NA,NA,NA,NA,NA,NA,NA,NA,NA
NA,NA,NA,NA,NA,NA,NA,NA,NA,NA,NA,SUPAMT61006,32Z9ZLUT1RJAXOSYIQ5AMSNFDIZOH4,420E951D-E36C-4FFA-B8DE-91DFD1B1EF42,0,2023-09-22_08h32.03.176,Pilot_VExplicitOC_RG_AMT,2022.2.5,Win32,16.50246712,NA,NA,NA,NA,NA,NA,NA,NA,NA,NA,NA,NA,NA,NA,happy,"unhappy, happy","less happy, more happy",NA,NA,28.64583333,3.7425,2.036,NA,NA,NA,NA,NA,NA,NA,NA,NA,NA,NA,NA,NA,NA,NA,NA,NA,NA,NA,NA,NA,NA,NA,NA,NA,NA,NA,NA,NA,NA,NA,NA,NA,NA,NA,NA,NA,NA,NA,NA,NA,NA,NA,NA,NA,NA,NA,NA,NA,NA,NA,NA,NA,NA,NA,NA,NA,NA,NA,NA,NA,NA,NA,NA,NA,NA,NA,NA,NA,NA,NA,NA,NA,NA,NA,NA,NA,NA,NA,NA,0,2,2,0,1,NA,NA,NA,NA,NA,NA,NA,NA,NA,NA,NA,NA,NA,NA,NA
NA,NA,NA,NA,NA,NA,NA,NA,NA,NA,NA,SUPAMT61006,32Z9ZLUT1RJAXOSYIQ5AMSNFDIZOH4,420E951D-E36C-4FFA-B8DE-91DFD1B1EF42,0,2023-09-22_08h32.03.176,Pilot_VExplicitOC_RG_AMT,2022.2.5,Win32,16.50246712,NA,NA,NA,NA,NA,NA,NA,NA,NA,NA,NA,NA,NA,NA,NA,NA,NA,NA,NA,NA,NA,NA,NA,NA,NA,NA,NA,NA,NA,NA,NA,NA,NA,NA,NA,NA,NA,NA,NA,NA,NA,NA,NA,NA,NA,NA,NA,NA,NA,NA,NA,NA,NA,NA,NA,NA,NA,NA,NA,NA,NA,NA,NA,NA,NA,NA,NA,NA,NA,NA,NA,NA,NA,NA,NA,NA,NA,NA,NA,NA,NA,NA,NA,NA,NA,NA,NA,NA,NA,NA,NA,NA,NA,NA,NA,NA,NA,NA,NA,NA,NA,NA,NA,NA,NA,NA,NA,0,19,19,29,1,0.7,NA,NA,NA,NA,NA,NA,NA,NA,NA
NA,NA,NA,NA,NA,NA,NA,NA,NA,NA,NA,SUPAMT61006,32Z9ZLUT1RJAXOSYIQ5AMSNFDIZOH4,420E951D-E36C-4FFA-B8DE-91DFD1B1EF42,0,2023-09-22_08h32.03.176,Pilot_VExplicitOC_RG_AMT,2022.2.5,Win32,16.50246712,NA,NA,NA,NA,NA,NA,NA,NA,NA,NA,NA,NA,NA,NA,NA,NA,NA,NA,NA,NA,NA,NA,NA,NA,NA,NA,NA,NA,NA,NA,NA,NA,NA,NA,NA,NA,NA,NA,NA,NA,NA,NA,NA,NA,NA,NA,NA,NA,NA,NA,NA,NA,NA,NA,NA,NA,NA,NA,NA,NA,NA,NA,NA,NA,NA,NA,NA,NA,NA,NA,NA,NA,NA,NA,NA,NA,NA,NA,NA,NA,NA,NA,NA,NA,NA,random,FALSE,FALSE,TRUE,0.5,0,0,-1.461112316,-2.9,-4.361112316,-3.874074877,certain,certain,-3.874074877,-5.937026509,left,1.5227,NA,NA,NA,NA,NA,0,20,20,23,1,-2.9,NA,NA,NA,NA,NA,NA,NA,NA,NA
NA,NA,NA,NA,NA,NA,NA,NA,NA,NA,NA,SUPAMT61006,32Z9ZLUT1RJAXOSYIQ5AMSNFDIZOH4,420E951D-E36C-4FFA-B8DE-91DFD1B1EF42,0,2023-09-22_08h32.03.176,Pilot_VExplicitOC_RG_AMT,2022.2.5,Win32,16.50246712,NA,NA,NA,NA,NA,NA,NA,NA,NA,NA,NA,NA,NA,NA,bored,"bored, not bored","more bored, less bored",NA,NA,50.52083333,3.5795,2.0291,NA,NA,NA,NA,NA,NA,NA,NA,NA,NA,NA,NA,NA,NA,NA,NA,NA,NA,NA,NA,NA,NA,NA,NA,NA,NA,NA,NA,NA,NA,NA,NA,NA,NA,NA,NA,NA,NA,NA,NA,NA,NA,NA,NA,NA,NA,NA,NA,NA,NA,NA,NA,NA,NA,NA,NA,NA,NA,NA,NA,NA,NA,NA,random,FALSE,FALSE,FALSE,0.5,0,0,3.959105088,7.959105088,4,5.319701696,certain,certain,5.319701696,-0.617324813,left,2.657599999,0,0,0,2,1,NA,NA,NA,NA,NA,NA,NA,NA,NA,NA,NA,NA,NA,NA,NA
NA,NA,NA,NA,NA,NA,NA,NA,NA,NA,NA,SUPAMT61006,32Z9ZLUT1RJAXOSYIQ5AMSNFDIZOH4,420E951D-E36C-4FFA-B8DE-91DFD1B1EF42,0,2023-09-22_08h32.03.176,Pilot_VExplicitOC_RG_AMT,2022.2.5,Win32,16.50246712,NA,NA,NA,NA,NA,NA,NA,NA,NA,NA,NA,NA,NA,NA,happy,"unhappy, happy","less happy, more happy",NA,NA,32.8125,3.704200001,2.001700001,NA,NA,NA,NA,NA,NA,NA,NA,NA,NA,NA,NA,NA,NA,NA,NA,NA,NA,NA,NA,NA,NA,NA,NA,NA,NA,NA,NA,NA,NA,NA,NA,NA,NA,NA,NA,NA,NA,NA,NA,NA,NA,NA,NA,NA,NA,NA,NA,NA,NA,NA,NA,NA,NA,NA,NA,NA,NA,NA,NA,NA,NA,NA,NA,NA,NA,NA,NA,NA,NA,NA,NA,NA,NA,NA,NA,NA,NA,NA,NA,0,1,1,0,1,NA,NA,NA,NA,NA,NA,NA,NA,NA,NA,NA,NA,NA,NA,NA
NA,NA,NA,NA,NA,NA,NA,NA,NA,NA,NA,SUPAMT61006,32Z9ZLUT1RJAXOSYIQ5AMSNFDIZOH4,420E951D-E36C-4FFA-B8DE-91DFD1B1EF42,0,2023-09-22_08h32.03.176,Pilot_VExplicitOC_RG_AMT,2022.2.5,Win32,16.50246712,NA,NA,NA,NA,NA,NA,NA,NA,NA,NA,NA,NA,NA,NA,frustrated,"frustrated, not frustrated","more frustrated, less frustrated",NA,NA,-28.90625,5.2207,2.054,NA,NA,NA,NA,NA,NA,NA,NA,NA,NA,NA,NA,NA,NA,NA,NA,NA,NA,NA,NA,NA,NA,NA,NA,NA,NA,NA,NA,NA,NA,NA,NA,NA,NA,NA,NA,NA,NA,NA,NA,NA,NA,NA,NA,NA,NA,NA,NA,NA,NA,NA,NA,NA,NA,NA,NA,NA,NA,NA,NA,NA,NA,NA,NA,NA,NA,NA,NA,NA,NA,NA,NA,NA,NA,NA,NA,NA,NA,NA,NA,0,2,2,1,1,NA,NA,NA,NA,NA,NA,NA,NA,NA,NA,NA,NA,NA,NA,NA
NA,NA,NA,NA,NA,NA,NA,NA,NA,NA,NA,SUPAMT61006,32Z9ZLUT1RJAXOSYIQ5AMSNFDIZOH4,420E951D-E36C-4FFA-B8DE-91DFD1B1EF42,0,2023-09-22_08h32.03.176,Pilot_VExplicitOC_RG_AMT,2022.2.5,Win32,16.50246712,NA,NA,NA,NA,NA,NA,NA,NA,NA,NA,NA,NA,NA,NA,NA,NA,NA,NA,NA,NA,NA,NA,NA,NA,NA,NA,NA,NA,NA,NA,NA,NA,NA,NA,NA,NA,NA,NA,NA,NA,NA,NA,NA,NA,NA,NA,NA,NA,NA,NA,NA,NA,NA,NA,NA,NA,NA,NA,NA,NA,NA,NA,NA,NA,NA,NA,NA,NA,NA,NA,NA,NA,NA,NA,NA,NA,NA,NA,NA,NA,NA,NA,NA,NA,NA,NA,NA,NA,NA,NA,NA,NA,NA,NA,NA,NA,NA,NA,NA,NA,NA,NA,NA,NA,NA,NA,NA,0,21,21,20,1,4,NA,NA,NA,NA,NA,NA,NA,NA,NA
NA,NA,NA,NA,NA,NA,NA,NA,NA,NA,NA,SUPAMT61006,32Z9ZLUT1RJAXOSYIQ5AMSNFDIZOH4,420E951D-E36C-4FFA-B8DE-91DFD1B1EF42,0,2023-09-22_08h32.03.176,Pilot_VExplicitOC_RG_AMT,2022.2.5,Win32,16.50246712,NA,NA,NA,NA,NA,NA,NA,NA,NA,NA,NA,NA,NA,NA,NA,NA,NA,NA,NA,NA,NA,NA,NA,NA,NA,NA,NA,NA,NA,NA,NA,NA,NA,NA,NA,NA,NA,NA,NA,NA,NA,NA,NA,NA,NA,NA,NA,NA,NA,NA,NA,NA,NA,NA,NA,NA,NA,NA,NA,NA,NA,NA,NA,NA,NA,NA,NA,NA,NA,NA,NA,NA,NA,NA,NA,NA,NA,NA,NA,NA,NA,NA,NA,NA,NA,random,FALSE,FALSE,FALSE,0.5,0,0,-1.649939879,1.3,-0.349939879,0.20004008,gamble,lose,-0.349939879,-0.967264693,NA,NA,NA,NA,NA,NA,NA,0,22,22,1,1,1.3,NA,NA,NA,NA,NA,NA,NA,NA,NA
NA,NA,NA,NA,NA,NA,NA,NA,NA,NA,NA,SUPAMT61006,32Z9ZLUT1RJAXOSYIQ5AMSNFDIZOH4,420E951D-E36C-4FFA-B8DE-91DFD1B1EF42,0,2023-09-22_08h32.03.176,Pilot_VExplicitOC_RG_AMT,2022.2.5,Win32,16.50246712,NA,NA,NA,NA,NA,NA,NA,NA,NA,NA,NA,NA,NA,NA,bored,"bored, not bored","more bored, less bored",NA,NA,54.16666667,3.6306,2.0675,NA,NA,NA,NA,NA,NA,NA,NA,NA,NA,NA,NA,NA,NA,NA,NA,NA,NA,NA,NA,NA,NA,NA,NA,NA,NA,NA,NA,NA,NA,NA,NA,NA,NA,NA,NA,NA,NA,NA,NA,NA,NA,NA,NA,NA,NA,NA,NA,NA,NA,NA,NA,NA,NA,NA,NA,NA,NA,NA,NA,NA,NA,NA,random,FALSE,FALSE,TRUE,0.5,0,0,0.581698701,-1.418301299,-2,-1.806100433,certain,certain,-1.806100433,-2.773365126,left,0.973799999,0,0,0,2,1,NA,NA,NA,NA,NA,NA,NA,NA,NA,NA,NA,NA,NA,NA,NA
NA,NA,NA,NA,NA,NA,NA,NA,NA,NA,NA,SUPAMT61006,32Z9ZLUT1RJAXOSYIQ5AMSNFDIZOH4,420E951D-E36C-4FFA-B8DE-91DFD1B1EF42,0,2023-09-22_08h32.03.176,Pilot_VExplicitOC_RG_AMT,2022.2.5,Win32,16.50246712,NA,NA,NA,NA,NA,NA,NA,NA,NA,NA,NA,NA,NA,NA,frustrated,"frustrated, not frustrated","more frustrated, less frustrated",NA,NA,45.05208333,4.3872,2.0595,NA,NA,NA,NA,NA,NA,NA,NA,NA,NA,NA,NA,NA,NA,NA,NA,NA,NA,NA,NA,NA,NA,NA,NA,NA,NA,NA,NA,NA,NA,NA,NA,NA,NA,NA,NA,NA,NA,NA,NA,NA,NA,NA,NA,NA,NA,NA,NA,NA,NA,NA,NA,NA,NA,NA,NA,NA,NA,NA,NA,NA,NA,NA,NA,NA,NA,NA,NA,NA,NA,NA,NA,NA,NA,NA,NA,NA,NA,NA,NA,0,1,1,1,1,NA,NA,NA,NA,NA,NA,NA,NA,NA,NA,NA,NA,NA,NA,NA
NA,NA,NA,NA,NA,NA,NA,NA,NA,NA,NA,SUPAMT61006,32Z9ZLUT1RJAXOSYIQ5AMSNFDIZOH4,420E951D-E36C-4FFA-B8DE-91DFD1B1EF42,0,2023-09-22_08h32.03.176,Pilot_VExplicitOC_RG_AMT,2022.2.5,Win32,16.50246712,NA,NA,NA,NA,NA,NA,NA,NA,NA,NA,NA,NA,NA,NA,happy,"unhappy, happy","less happy, more happy",NA,NA,45.57291667,3.3765,2.0198,NA,NA,NA,NA,NA,NA,NA,NA,NA,NA,NA,NA,NA,NA,NA,NA,NA,NA,NA,NA,NA,NA,NA,NA,NA,NA,NA,NA,NA,NA,NA,NA,NA,NA,NA,NA,NA,NA,NA,NA,NA,NA,NA,NA,NA,NA,NA,NA,NA,NA,NA,NA,NA,NA,NA,NA,NA,NA,NA,NA,NA,NA,NA,NA,NA,NA,NA,NA,NA,NA,NA,NA,NA,NA,NA,NA,NA,NA,NA,NA,0,2,2,0,1,NA,NA,NA,NA,NA,NA,NA,NA,NA,NA,NA,NA,NA,NA,NA
NA,NA,NA,NA,NA,NA,NA,NA,NA,NA,NA,SUPAMT61006,32Z9ZLUT1RJAXOSYIQ5AMSNFDIZOH4,420E951D-E36C-4FFA-B8DE-91DFD1B1EF42,0,2023-09-22_08h32.03.176,Pilot_VExplicitOC_RG_AMT,2022.2.5,Win32,16.50246712,NA,NA,NA,NA,NA,NA,NA,NA,NA,NA,NA,NA,NA,NA,NA,NA,NA,NA,NA,NA,NA,NA,NA,NA,NA,NA,NA,NA,NA,NA,NA,NA,NA,NA,NA,NA,NA,NA,NA,NA,NA,NA,NA,NA,NA,NA,NA,NA,NA,NA,NA,NA,NA,NA,NA,NA,NA,NA,NA,NA,NA,NA,NA,NA,NA,NA,NA,NA,NA,NA,NA,NA,NA,NA,NA,NA,NA,NA,NA,NA,NA,NA,NA,NA,NA,NA,NA,NA,NA,NA,NA,NA,NA,NA,NA,NA,NA,NA,NA,NA,NA,NA,NA,NA,NA,NA,NA,0,23,23,8,1,-2,NA,NA,NA,NA,NA,NA,NA,NA,NA
NA,NA,NA,NA,NA,NA,NA,NA,NA,NA,NA,SUPAMT61006,32Z9ZLUT1RJAXOSYIQ5AMSNFDIZOH4,420E951D-E36C-4FFA-B8DE-91DFD1B1EF42,0,2023-09-22_08h32.03.176,Pilot_VExplicitOC_RG_AMT,2022.2.5,Win32,16.50246712,NA,NA,NA,NA,NA,NA,NA,NA,NA,NA,NA,NA,NA,NA,NA,NA,NA,NA,NA,NA,NA,NA,NA,NA,NA,NA,NA,NA,NA,NA,NA,NA,NA,NA,NA,NA,NA,NA,NA,NA,NA,NA,NA,NA,NA,NA,NA,NA,NA,NA,NA,NA,NA,NA,NA,NA,NA,NA,NA,NA,NA,NA,NA,NA,NA,NA,NA,NA,NA,NA,NA,NA,NA,NA,NA,NA,NA,NA,NA,NA,NA,NA,NA,NA,NA,random,FALSE,FALSE,FALSE,0.5,0,0,-4.066651784,1.9,-2.166651784,-0.811101189,certain,certain,-0.811101189,-3.584466315,left,1.2288,NA,NA,NA,NA,NA,0,24,24,30,1,1.9,NA,NA,NA,NA,NA,NA,NA,NA,NA
NA,NA,NA,NA,NA,NA,NA,NA,NA,NA,NA,SUPAMT61006,32Z9ZLUT1RJAXOSYIQ5AMSNFDIZOH4,420E951D-E36C-4FFA-B8DE-91DFD1B1EF42,0,2023-09-22_08h32.03.176,Pilot_VExplicitOC_RG_AMT,2022.2.5,Win32,16.50246712,NA,NA,NA,NA,NA,NA,NA,NA,NA,NA,NA,NA,NA,NA,NA,NA,NA,NA,NA,NA,NA,NA,NA,NA,NA,NA,NA,NA,NA,NA,NA,NA,NA,NA,NA,NA,NA,NA,NA,NA,NA,NA,NA,NA,NA,NA,NA,NA,NA,NA,NA,NA,NA,NA,NA,NA,NA,NA,NA,NA,NA,NA,NA,NA,NA,NA,NA,NA,NA,NA,NA,NA,NA,NA,NA,NA,NA,NA,NA,NA,NA,NA,NA,NA,NA,random,FALSE,FALSE,TRUE,0.5,0,0,-3.045311779,-2.8,-5.845311779,-4.830207853,certain,certain,-4.830207853,-8.414674168,left,1.0578,NA,NA,NA,NA,NA,0,25,25,27,1,-2.8,NA,NA,NA,NA,NA,NA,NA,NA,NA
NA,NA,NA,NA,NA,NA,NA,NA,NA,NA,NA,SUPAMT61006,32Z9ZLUT1RJAXOSYIQ5AMSNFDIZOH4,420E951D-E36C-4FFA-B8DE-91DFD1B1EF42,0,2023-09-22_08h32.03.176,Pilot_VExplicitOC_RG_AMT,2022.2.5,Win32,16.50246712,NA,NA,NA,NA,NA,NA,NA,NA,NA,NA,NA,NA,NA,NA,happy,"unhappy, happy","less happy, more happy",NA,NA,53.90625,5.6479,2.0197,NA,NA,NA,NA,NA,NA,NA,NA,NA,NA,NA,NA,NA,NA,NA,NA,NA,NA,NA,NA,NA,NA,NA,NA,NA,NA,NA,NA,NA,NA,NA,NA,NA,NA,NA,NA,NA,NA,NA,NA,NA,NA,NA,NA,NA,NA,NA,NA,NA,NA,NA,NA,NA,NA,NA,NA,NA,NA,NA,NA,NA,NA,NA,random,FALSE,FALSE,FALSE,0.5,0,0,1.043070921,4.143070921,3.1,3.447690307,certain,certain,3.447690307,-4.966983861,left,1.06,0,0,0,0,1,NA,NA,NA,NA,NA,NA,NA,NA,NA,NA,NA,NA,NA,NA,NA
NA,NA,NA,NA,NA,NA,NA,NA,NA,NA,NA,SUPAMT61006,32Z9ZLUT1RJAXOSYIQ5AMSNFDIZOH4,420E951D-E36C-4FFA-B8DE-91DFD1B1EF42,0,2023-09-22_08h32.03.176,Pilot_VExplicitOC_RG_AMT,2022.2.5,Win32,16.50246712,NA,NA,NA,NA,NA,NA,NA,NA,NA,NA,NA,NA,NA,NA,bored,"bored, not bored","more bored, less bored",NA,NA,36.97916667,3.489400001,2.0141,NA,NA,NA,NA,NA,NA,NA,NA,NA,NA,NA,NA,NA,NA,NA,NA,NA,NA,NA,NA,NA,NA,NA,NA,NA,NA,NA,NA,NA,NA,NA,NA,NA,NA,NA,NA,NA,NA,NA,NA,NA,NA,NA,NA,NA,NA,NA,NA,NA,NA,NA,NA,NA,NA,NA,NA,NA,NA,NA,NA,NA,NA,NA,NA,NA,NA,NA,NA,NA,NA,NA,NA,NA,NA,NA,NA,NA,NA,NA,NA,0,1,1,2,1,NA,NA,NA,NA,NA,NA,NA,NA,NA,NA,NA,NA,NA,NA,NA
NA,NA,NA,NA,NA,NA,NA,NA,NA,NA,NA,SUPAMT61006,32Z9ZLUT1RJAXOSYIQ5AMSNFDIZOH4,420E951D-E36C-4FFA-B8DE-91DFD1B1EF42,0,2023-09-22_08h32.03.176,Pilot_VExplicitOC_RG_AMT,2022.2.5,Win32,16.50246712,NA,NA,NA,NA,NA,NA,NA,NA,NA,NA,NA,NA,NA,NA,frustrated,"frustrated, not frustrated","more frustrated, less frustrated",NA,NA,-26.5625,3.8698,2.0264,NA,NA,NA,NA,NA,NA,NA,NA,NA,NA,NA,NA,NA,NA,NA,NA,NA,NA,NA,NA,NA,NA,NA,NA,NA,NA,NA,NA,NA,NA,NA,NA,NA,NA,NA,NA,NA,NA,NA,NA,NA,NA,NA,NA,NA,NA,NA,NA,NA,NA,NA,NA,NA,NA,NA,NA,NA,NA,NA,NA,NA,NA,NA,NA,NA,NA,NA,NA,NA,NA,NA,NA,NA,NA,NA,NA,NA,NA,NA,NA,0,2,2,1,1,NA,NA,NA,NA,NA,NA,NA,NA,NA,NA,NA,NA,NA,NA,NA
