"Event.Index","UTC.Timestamp","UTC.Date.and.Time","Local.Timestamp","Local.Timezone","Local.Date.and.Time","Experiment.ID","Experiment.Version","Tree.Node.Key","Repeat.Key","Schedule.ID","Participant.Private.ID","Participant.Starting.Group","Participant.Status","Participant.Completion.Code","Participant.External.Session.ID","Participant.Device.Type","Participant.Device","Participant.OS","Participant.Browser","Participant.Monitor.Size","Participant.Viewport.Size","Checkpoint","Room.ID","Room.Order","Task.Name","Task.Version","branch.hkzp","order.ot79","branch.mcuq","branch.4fv7","randomiser.rr6o","Spreadsheet","Trial.Number","Display","Screen","Screen.ID","Screen.Counter","Response.Type","Response","Onset.Time","Clock.Time","Reaction.Time","Absolute.Onset.Time","Absolute.Clock.Time","Absolute.Reaction.Time","Correct","Response.Onset","Response.Duration","Proportion","Tag","Component.Name","Object.Name","Object.Number","Object.ID","Spreadsheet..display","Manipulation..Spreadsheet","Random_ID"
"1",1701885127511,"06/12/2023 17:52:07",1701885127511,0,"06/12/2023 17:52:07",152734,15,"questionnaire-uu2n",NA,33496223,9909115,NA,"complete",NA,"6570b28ad89c24d6e0e1b333","computer","Desktop or Laptop","Windows 10","Chrome 119.0.0.0","1504x1003","750x836",NA,NA,0,"BIQ (Charlotte)",2,"In","BCADLEKFJGIH",NA,"In",2,"Spreadsheet1",NA,"","","",NA,"5","BEGIN",NA,NA,NA,NA,NA,NA,0,NA,NA,NA,NA,"","",NA,"","",NA,"MDPRF55461"
"2",1701885151807,"06/12/2023 17:52:31",1701885151807,0,"06/12/2023 17:52:31",152734,15,"questionnaire-uu2n",NA,33496223,9909115,NA,"complete",NA,"6570b28ad89c24d6e0e1b333","computer","Desktop or Laptop","Windows 10","Chrome 119.0.0.0","1504x1003","750x836",NA,NA,0,"BIQ (Charlotte)",2,"In","BCADLEKFJGIH",NA,"In",2,"Spreadsheet1",1,"BIQ","Screen 1","9dh6eq",1,"continue","",24310.5389998569,24301.681,24310.5389998569,24310.5389998569,24301.681,24310.5389998569,1,24310.5389998569,0,0,NA,"Click To Continue","Continue Button",23,"object-48","BIQ",NA,"MDPRF55461"
"3",1701885151812,"06/12/2023 17:52:31",1701885151812,0,"06/12/2023 17:52:31",152734,15,"questionnaire-uu2n",NA,33496223,9909115,NA,"complete",NA,"6570b28ad89c24d6e0e1b333","computer","Desktop or Laptop","Windows 10","Chrome 119.0.0.0","1504x1003","750x836",NA,NA,0,"BIQ (Charlotte)",2,"In","BCADLEKFJGIH",NA,"In",2,"Spreadsheet1",1,"BIQ","Screen 1","9dh6eq",1,"response","2",14917.674,24301.681,24318.414,14917.674,24301.681,24318.414,1,14917.674,9400.74,0,NA,"Rating Scale","Rating Scale",3,"object-5","BIQ",NA,"MDPRF55461"
"4",1701885151812,"06/12/2023 17:52:31",1701885151812,0,"06/12/2023 17:52:31",152734,15,"questionnaire-uu2n",NA,33496223,9909115,NA,"complete",NA,"6570b28ad89c24d6e0e1b333","computer","Desktop or Laptop","Windows 10","Chrome 119.0.0.0","1504x1003","750x836",NA,NA,0,"BIQ (Charlotte)",2,"In","BCADLEKFJGIH",NA,"In",2,"Spreadsheet1",1,"BIQ","Screen 1","9dh6eq",1,"response","2",20834.746,24301.681,24318.414,20834.746,24301.681,24318.414,1,20834.746,3483.668,0,NA,"Rating Scale","Rating Scale",10,"object-18","BIQ",NA,"MDPRF55461"
"5",1701885151813,"06/12/2023 17:52:31",1701885151813,0,"06/12/2023 17:52:31",152734,15,"questionnaire-uu2n",NA,33496223,9909115,NA,"complete",NA,"6570b28ad89c24d6e0e1b333","computer","Desktop or Laptop","Windows 10","Chrome 119.0.0.0","1504x1003","750x836",NA,NA,0,"BIQ (Charlotte)",2,"In","BCADLEKFJGIH",NA,"In",2,"Spreadsheet1",1,"BIQ","Screen 1","9dh6eq",1,"response","6",23684.85,24301.681,24318.414,23684.85,24301.681,24318.414,1,23684.85,633.564000000002,0,NA,"Rating Scale","Rating Scale",17,"object-80","BIQ",NA,"MDPRF55461"
"6",1701885166425,"06/12/2023 17:52:46",1701885166425,0,"06/12/2023 17:52:46",152734,15,"questionnaire-uu2n",NA,33496223,9909115,NA,"complete",NA,"6570b28ad89c24d6e0e1b333","computer","Desktop or Laptop","Windows 10","Chrome 119.0.0.0","1504x1003","750x836",NA,NA,0,"BIQ (Charlotte)",2,"In","BCADLEKFJGIH",NA,"In",2,"Spreadsheet1",1,"BIQ","Screen 2","o21mwi",2,"continue","",14634.1579998093,14617.733,14634.1579998093,14634.1579998093,14617.733,14634.1579998093,1,14634.1579998093,0,0,NA,"Click To Continue","Continue Button",22,"object-50","BIQ",NA,"MDPRF55461"
"7",1701885166431,"06/12/2023 17:52:46",1701885166431,0,"06/12/2023 17:52:46",152734,15,"questionnaire-uu2n",NA,33496223,9909115,NA,"complete",NA,"6570b28ad89c24d6e0e1b333","computer","Desktop or Laptop","Windows 10","Chrome 119.0.0.0","1504x1003","750x836",NA,NA,0,"BIQ (Charlotte)",2,"In","BCADLEKFJGIH",NA,"In",2,"Spreadsheet1",1,"BIQ","Screen 2","o21mwi",2,"response","5",4167.164,14617.733,14634.442,4167.164,14617.733,14634.442,1,4167.164,10467.278,0,NA,"Rating Scale","Rating Scale",2,"object-259","BIQ",NA,"MDPRF55461"
"8",1701885166432,"06/12/2023 17:52:46",1701885166432,0,"06/12/2023 17:52:46",152734,15,"questionnaire-uu2n",NA,33496223,9909115,NA,"complete",NA,"6570b28ad89c24d6e0e1b333","computer","Desktop or Laptop","Windows 10","Chrome 119.0.0.0","1504x1003","750x836",NA,NA,0,"BIQ (Charlotte)",2,"In","BCADLEKFJGIH",NA,"In",2,"Spreadsheet1",1,"BIQ","Screen 2","o21mwi",2,"response","4",5850.368,14617.733,14634.442,5850.368,14617.733,14634.442,1,5850.368,8784.074,0,NA,"Rating Scale","Rating Scale",9,"object-36","BIQ",NA,"MDPRF55461"
"9",1701885166433,"06/12/2023 17:52:46",1701885166433,0,"06/12/2023 17:52:46",152734,15,"questionnaire-uu2n",NA,33496223,9909115,NA,"complete",NA,"6570b28ad89c24d6e0e1b333","computer","Desktop or Laptop","Windows 10","Chrome 119.0.0.0","1504x1003","750x836",NA,NA,0,"BIQ (Charlotte)",2,"In","BCADLEKFJGIH",NA,"In",2,"Spreadsheet1",1,"BIQ","Screen 2","o21mwi",2,"response","6",12584.156,14617.733,14634.442,12584.156,14617.733,14634.442,1,12584.156,2050.28600000001,0,NA,"Rating Scale","Rating Scale",16,"object-86","BIQ",NA,"MDPRF55461"
"10",1701885225283,"06/12/2023 17:53:45",1701885225283,0,"06/12/2023 17:53:45",152734,15,"questionnaire-uu2n",NA,33496223,9909115,NA,"complete",NA,"6570b28ad89c24d6e0e1b333","computer","Desktop or Laptop","Windows 10","Chrome 119.0.0.0","1504x1003","750x836",NA,NA,0,"BIQ (Charlotte)",2,"In","BCADLEKFJGIH",NA,"In",2,"Spreadsheet1",1,"BIQ","Screen 3","iz3the",3,"continue","",58870.692,58854.018,58870.692,58870.692,58854.018,58870.692,1,58870.692,0,0,NA,"Click To Continue","Continue Button",22,"object-73","BIQ",NA,"MDPRF55461"
"11",1701885225288,"06/12/2023 17:53:45",1701885225288,0,"06/12/2023 17:53:45",152734,15,"questionnaire-uu2n",NA,33496223,9909115,NA,"complete",NA,"6570b28ad89c24d6e0e1b333","computer","Desktop or Laptop","Windows 10","Chrome 119.0.0.0","1504x1003","750x836",NA,NA,0,"BIQ (Charlotte)",2,"In","BCADLEKFJGIH",NA,"In",2,"Spreadsheet1",1,"BIQ","Screen 3","iz3the",3,"response","0",54203.717,58854.018,58870.692,54203.717,58854.018,58870.692,1,54203.717,4666.97500000001,0,NA,"Rating Scale","Rating Scale",2,"object-53","BIQ",NA,"MDPRF55461"
"12",1701885225288,"06/12/2023 17:53:45",1701885225288,0,"06/12/2023 17:53:45",152734,15,"questionnaire-uu2n",NA,33496223,9909115,NA,"complete",NA,"6570b28ad89c24d6e0e1b333","computer","Desktop or Laptop","Windows 10","Chrome 119.0.0.0","1504x1003","750x836",NA,NA,0,"BIQ (Charlotte)",2,"In","BCADLEKFJGIH",NA,"In",2,"Spreadsheet1",1,"BIQ","Screen 3","iz3the",3,"response","3",55486.946,58854.018,58870.692,55486.946,58854.018,58870.692,1,55486.946,3383.746,0,NA,"Rating Scale","Rating Scale",9,"object-60","BIQ",NA,"MDPRF55461"
"13",1701885225289,"06/12/2023 17:53:45",1701885225289,0,"06/12/2023 17:53:45",152734,15,"questionnaire-uu2n",NA,33496223,9909115,NA,"complete",NA,"6570b28ad89c24d6e0e1b333","computer","Desktop or Laptop","Windows 10","Chrome 119.0.0.0","1504x1003","750x836",NA,NA,0,"BIQ (Charlotte)",2,"In","BCADLEKFJGIH",NA,"In",2,"Spreadsheet1",1,"BIQ","Screen 3","iz3the",3,"response","5",57537.39,58854.018,58870.692,57537.39,58854.018,58870.692,1,57537.39,1333.30200000001,0,NA,"Rating Scale","Rating Scale",16,"object-67","BIQ",NA,"MDPRF55461"
"14",1701885225296,"06/12/2023 17:53:45",1701885225296,0,"06/12/2023 17:53:45",152734,15,"questionnaire-uu2n",NA,33496223,9909115,NA,"complete",NA,"6570b28ad89c24d6e0e1b333","computer","Desktop or Laptop","Windows 10","Chrome 119.0.0.0","1504x1003","750x836",NA,NA,0,"BIQ (Charlotte)",2,"In","BCADLEKFJGIH",NA,"In",2,"Spreadsheet1",NA,"","","",NA,"5","END",NA,NA,NA,NA,NA,NA,0,NA,NA,NA,NA,"","",NA,"","",NA,"MDPRF55461"
"1",1701885213613,"06/12/2023 17:53:33",1701885213613,0,"06/12/2023 17:53:33",152734,15,"questionnaire-uu2n",NA,33496296,9908979,NA,"complete",NA,"6570b052226bc4134f504bf1","computer","Desktop or Laptop","Mac OS 10.15.6","Safari 14.0.1","1440x900","1440x820",NA,NA,0,"BIQ (Charlotte)",2,"In","ABLCKDJEIFHG",NA,"In",4,"Spreadsheet1",NA,"","","",NA,"5","BEGIN",NA,NA,NA,NA,NA,NA,0,NA,NA,NA,NA,"","",NA,"","",NA,"MDPRF73724"
"2",1701885233286,"06/12/2023 17:53:53",1701885233286,0,"06/12/2023 17:53:53",152734,15,"questionnaire-uu2n",NA,33496296,9908979,NA,"complete",NA,"6570b052226bc4134f504bf1","computer","Desktop or Laptop","Mac OS 10.15.6","Safari 14.0.1","1440x900","1440x820",NA,NA,0,"BIQ (Charlotte)",2,"In","ABLCKDJEIFHG",NA,"In",4,"Spreadsheet1",1,"BIQ","Screen 1","9dh6eq",1,"continue","",20591,20577,20591,20591,20577,20591,1,20591,0,0,NA,"Click To Continue","Continue Button",23,"object-48","BIQ",NA,"MDPRF73724"
"3",1701885233290,"06/12/2023 17:53:53",1701885233290,0,"06/12/2023 17:53:53",152734,15,"questionnaire-uu2n",NA,33496296,9908979,NA,"complete",NA,"6570b052226bc4134f504bf1","computer","Desktop or Laptop","Mac OS 10.15.6","Safari 14.0.1","1440x900","1440x820",NA,NA,0,"BIQ (Charlotte)",2,"In","ABLCKDJEIFHG",NA,"In",4,"Spreadsheet1",1,"BIQ","Screen 1","9dh6eq",1,"response","6",9976,20577,20594,9976,20577,20594,1,9976,10618,0,NA,"Rating Scale","Rating Scale",3,"object-5","BIQ",NA,"MDPRF73724"
"4",1701885233290,"06/12/2023 17:53:53",1701885233290,0,"06/12/2023 17:53:53",152734,15,"questionnaire-uu2n",NA,33496296,9908979,NA,"complete",NA,"6570b052226bc4134f504bf1","computer","Desktop or Laptop","Mac OS 10.15.6","Safari 14.0.1","1440x900","1440x820",NA,NA,0,"BIQ (Charlotte)",2,"In","ABLCKDJEIFHG",NA,"In",4,"Spreadsheet1",1,"BIQ","Screen 1","9dh6eq",1,"response","7",12793,20577,20594,12793,20577,20594,1,12793,7801,0,NA,"Rating Scale","Rating Scale",10,"object-18","BIQ",NA,"MDPRF73724"
"5",1701885233291,"06/12/2023 17:53:53",1701885233291,0,"06/12/2023 17:53:53",152734,15,"questionnaire-uu2n",NA,33496296,9908979,NA,"complete",NA,"6570b052226bc4134f504bf1","computer","Desktop or Laptop","Mac OS 10.15.6","Safari 14.0.1","1440x900","1440x820",NA,NA,0,"BIQ (Charlotte)",2,"In","ABLCKDJEIFHG",NA,"In",4,"Spreadsheet1",1,"BIQ","Screen 1","9dh6eq",1,"response","0",16243,20577,20594,16243,20577,20594,1,16243,4351,0,NA,"Rating Scale","Rating Scale",17,"object-80","BIQ",NA,"MDPRF73724"
"6",1701885288170,"06/12/2023 17:54:48",1701885288170,0,"06/12/2023 17:54:48",152734,15,"questionnaire-uu2n",NA,33496296,9908979,NA,"complete",NA,"6570b052226bc4134f504bf1","computer","Desktop or Laptop","Mac OS 10.15.6","Safari 14.0.1","1440x900","1440x820",NA,NA,0,"BIQ (Charlotte)",2,"In","ABLCKDJEIFHG",NA,"In",4,"Spreadsheet1",1,"BIQ","Screen 2","o21mwi",2,"continue","",54900,54885,54900,54900,54885,54900,1,54900,0,0,NA,"Click To Continue","Continue Button",22,"object-50","BIQ",NA,"MDPRF73724"
"7",1701885288173,"06/12/2023 17:54:48",1701885288173,0,"06/12/2023 17:54:48",152734,15,"questionnaire-uu2n",NA,33496296,9908979,NA,"complete",NA,"6570b052226bc4134f504bf1","computer","Desktop or Laptop","Mac OS 10.15.6","Safari 14.0.1","1440x900","1440x820",NA,NA,0,"BIQ (Charlotte)",2,"In","ABLCKDJEIFHG",NA,"In",4,"Spreadsheet1",1,"BIQ","Screen 2","o21mwi",2,"response","7",4533,54885,54901,4533,54885,54901,1,4533,50368,0,NA,"Rating Scale","Rating Scale",2,"object-259","BIQ",NA,"MDPRF73724"
"8",1701885288173,"06/12/2023 17:54:48",1701885288173,0,"06/12/2023 17:54:48",152734,15,"questionnaire-uu2n",NA,33496296,9908979,NA,"complete",NA,"6570b052226bc4134f504bf1","computer","Desktop or Laptop","Mac OS 10.15.6","Safari 14.0.1","1440x900","1440x820",NA,NA,0,"BIQ (Charlotte)",2,"In","ABLCKDJEIFHG",NA,"In",4,"Spreadsheet1",1,"BIQ","Screen 2","o21mwi",2,"response","7",23384,54885,54901,23384,54885,54901,1,23384,31517,0,NA,"Rating Scale","Rating Scale",9,"object-36","BIQ",NA,"MDPRF73724"
"9",1701885288173,"06/12/2023 17:54:48",1701885288173,0,"06/12/2023 17:54:48",152734,15,"questionnaire-uu2n",NA,33496296,9908979,NA,"complete",NA,"6570b052226bc4134f504bf1","computer","Desktop or Laptop","Mac OS 10.15.6","Safari 14.0.1","1440x900","1440x820",NA,NA,0,"BIQ (Charlotte)",2,"In","ABLCKDJEIFHG",NA,"In",4,"Spreadsheet1",1,"BIQ","Screen 2","o21mwi",2,"response","7",47335,54885,54901,47335,54885,54901,1,47335,7566,0,NA,"Rating Scale","Rating Scale",16,"object-86","BIQ",NA,"MDPRF73724"
"10",1701885343657,"06/12/2023 17:55:43",1701885343657,0,"06/12/2023 17:55:43",152734,15,"questionnaire-uu2n",NA,33496296,9908979,NA,"complete",NA,"6570b052226bc4134f504bf1","computer","Desktop or Laptop","Mac OS 10.15.6","Safari 14.0.1","1440x900","1440x820",NA,NA,0,"BIQ (Charlotte)",2,"In","ABLCKDJEIFHG",NA,"In",4,"Spreadsheet1",1,"BIQ","Screen 3","iz3the",3,"continue","",55503,55486,55503,55503,55486,55503,1,55503,0,0,NA,"Click To Continue","Continue Button",22,"object-73","BIQ",NA,"MDPRF73724"
"11",1701885343660,"06/12/2023 17:55:43",1701885343660,0,"06/12/2023 17:55:43",152734,15,"questionnaire-uu2n",NA,33496296,9908979,NA,"complete",NA,"6570b052226bc4134f504bf1","computer","Desktop or Laptop","Mac OS 10.15.6","Safari 14.0.1","1440x900","1440x820",NA,NA,0,"BIQ (Charlotte)",2,"In","ABLCKDJEIFHG",NA,"In",4,"Spreadsheet1",1,"BIQ","Screen 3","iz3the",3,"response","7",2234,55486,55503,2234,55486,55503,1,2234,53269,0,NA,"Rating Scale","Rating Scale",2,"object-53","BIQ",NA,"MDPRF73724"
"12",1701885343660,"06/12/2023 17:55:43",1701885343660,0,"06/12/2023 17:55:43",152734,15,"questionnaire-uu2n",NA,33496296,9908979,NA,"complete",NA,"6570b052226bc4134f504bf1","computer","Desktop or Laptop","Mac OS 10.15.6","Safari 14.0.1","1440x900","1440x820",NA,NA,0,"BIQ (Charlotte)",2,"In","ABLCKDJEIFHG",NA,"In",4,"Spreadsheet1",1,"BIQ","Screen 3","iz3the",3,"response","4",3000,55486,55503,3000,55486,55503,1,3000,52503,0,NA,"Rating Scale","Rating Scale",9,"object-60","BIQ",NA,"MDPRF73724"
"13",1701885343661,"06/12/2023 17:55:43",1701885343661,0,"06/12/2023 17:55:43",152734,15,"questionnaire-uu2n",NA,33496296,9908979,NA,"complete",NA,"6570b052226bc4134f504bf1","computer","Desktop or Laptop","Mac OS 10.15.6","Safari 14.0.1","1440x900","1440x820",NA,NA,0,"BIQ (Charlotte)",2,"In","ABLCKDJEIFHG",NA,"In",4,"Spreadsheet1",1,"BIQ","Screen 3","iz3the",3,"response","7",3750,55486,55503,3750,55486,55503,1,3750,51753,0,NA,"Rating Scale","Rating Scale",16,"object-67","BIQ",NA,"MDPRF73724"
"14",1701885343663,"06/12/2023 17:55:43",1701885343663,0,"06/12/2023 17:55:43",152734,15,"questionnaire-uu2n",NA,33496296,9908979,NA,"complete",NA,"6570b052226bc4134f504bf1","computer","Desktop or Laptop","Mac OS 10.15.6","Safari 14.0.1","1440x900","1440x820",NA,NA,0,"BIQ (Charlotte)",2,"In","ABLCKDJEIFHG",NA,"In",4,"Spreadsheet1",NA,"","","",NA,"5","END",NA,NA,NA,NA,NA,NA,0,NA,NA,NA,NA,"","",NA,"","",NA,"MDPRF73724"
"1",1701885218757,"06/12/2023 17:53:38",1701885218757,0,"06/12/2023 17:53:38",152734,15,"questionnaire-uu2n",NA,33496300,9909178,NA,"complete",NA,"6570b44377cbe451a261f3d3","computer","Desktop or Laptop","Mac OS 10.15.7","Chrome 119.0.0.0","1440x900","1440x708",NA,NA,0,"BIQ (Charlotte)",2,"In","DECFBGAHLIKJ",NA,"In",5,"Spreadsheet1",NA,"","","",NA,"5","BEGIN",NA,NA,NA,NA,NA,NA,0,NA,NA,NA,NA,"","",NA,"","",NA,"MDPRF82002"
"2",1701885239765,"06/12/2023 17:53:59",1701885239765,0,"06/12/2023 17:53:59",152734,15,"questionnaire-uu2n",NA,33496300,9909178,NA,"complete",NA,"6570b44377cbe451a261f3d3","computer","Desktop or Laptop","Mac OS 10.15.7","Chrome 119.0.0.0","1440x900","1440x708",NA,NA,0,"BIQ (Charlotte)",2,"In","DECFBGAHLIKJ",NA,"In",5,"Spreadsheet1",1,"BIQ","Screen 1","9dh6eq",1,"continue","",21012.2329999821,20999.685,21012.2329999821,21012.2329999821,20999.685,21012.2329999821,1,21012.2329999821,0,0,NA,"Click To Continue","Continue Button",23,"object-48","BIQ",NA,"MDPRF82002"
"3",1701885239768,"06/12/2023 17:53:59",1701885239768,0,"06/12/2023 17:53:59",152734,15,"questionnaire-uu2n",NA,33496300,9909178,NA,"complete",NA,"6570b44377cbe451a261f3d3","computer","Desktop or Laptop","Mac OS 10.15.7","Chrome 119.0.0.0","1440x900","1440x708",NA,NA,0,"BIQ (Charlotte)",2,"In","DECFBGAHLIKJ",NA,"In",5,"Spreadsheet1",1,"BIQ","Screen 1","9dh6eq",1,"response","7",8899.907,20999.685,21016.351,8899.907,20999.685,21016.351,1,8899.907,12116.444,0,NA,"Rating Scale","Rating Scale",3,"object-5","BIQ",NA,"MDPRF82002"
"4",1701885239769,"06/12/2023 17:53:59",1701885239769,0,"06/12/2023 17:53:59",152734,15,"questionnaire-uu2n",NA,33496300,9909178,NA,"complete",NA,"6570b44377cbe451a261f3d3","computer","Desktop or Laptop","Mac OS 10.15.7","Chrome 119.0.0.0","1440x900","1440x708",NA,NA,0,"BIQ (Charlotte)",2,"In","DECFBGAHLIKJ",NA,"In",5,"Spreadsheet1",1,"BIQ","Screen 1","9dh6eq",1,"response","3",15666.565,20999.685,21016.351,15666.565,20999.685,21016.351,1,15666.565,5349.786,0,NA,"Rating Scale","Rating Scale",10,"object-18","BIQ",NA,"MDPRF82002"
"5",1701885239769,"06/12/2023 17:53:59",1701885239769,0,"06/12/2023 17:53:59",152734,15,"questionnaire-uu2n",NA,33496300,9909178,NA,"complete",NA,"6570b44377cbe451a261f3d3","computer","Desktop or Laptop","Mac OS 10.15.7","Chrome 119.0.0.0","1440x900","1440x708",NA,NA,0,"BIQ (Charlotte)",2,"In","DECFBGAHLIKJ",NA,"In",5,"Spreadsheet1",1,"BIQ","Screen 1","9dh6eq",1,"response","4",18883.103,20999.685,21016.351,18883.103,20999.685,21016.351,1,18883.103,2133.248,0,NA,"Rating Scale","Rating Scale",17,"object-80","BIQ",NA,"MDPRF82002"
"6",1701885252082,"06/12/2023 17:54:12",1701885252082,0,"06/12/2023 17:54:12",152734,15,"questionnaire-uu2n",NA,33496300,9909178,NA,"complete",NA,"6570b44377cbe451a261f3d3","computer","Desktop or Laptop","Mac OS 10.15.7","Chrome 119.0.0.0","1440x900","1440x708",NA,NA,0,"BIQ (Charlotte)",2,"In","DECFBGAHLIKJ",NA,"In",5,"Spreadsheet1",1,"BIQ","Screen 2","o21mwi",2,"continue","",12333.102,12316.436,12333.102,12333.102,12316.436,12333.102,1,12333.102,0,0,NA,"Click To Continue","Continue Button",22,"object-50","BIQ",NA,"MDPRF82002"
"7",1701885252086,"06/12/2023 17:54:12",1701885252086,0,"06/12/2023 17:54:12",152734,15,"questionnaire-uu2n",NA,33496300,9909178,NA,"complete",NA,"6570b44377cbe451a261f3d3","computer","Desktop or Laptop","Mac OS 10.15.7","Chrome 119.0.0.0","1440x900","1440x708",NA,NA,0,"BIQ (Charlotte)",2,"In","DECFBGAHLIKJ",NA,"In",5,"Spreadsheet1",1,"BIQ","Screen 2","o21mwi",2,"response","7",4800.07,12316.436,12333.102,4800.07,12316.436,12333.102,1,4800.07,7533.03200000001,0,NA,"Rating Scale","Rating Scale",2,"object-259","BIQ",NA,"MDPRF82002"
"8",1701885252086,"06/12/2023 17:54:12",1701885252086,0,"06/12/2023 17:54:12",152734,15,"questionnaire-uu2n",NA,33496300,9909178,NA,"complete",NA,"6570b44377cbe451a261f3d3","computer","Desktop or Laptop","Mac OS 10.15.7","Chrome 119.0.0.0","1440x900","1440x708",NA,NA,0,"BIQ (Charlotte)",2,"In","DECFBGAHLIKJ",NA,"In",5,"Spreadsheet1",1,"BIQ","Screen 2","o21mwi",2,"response","4",7616.624,12316.436,12333.102,7616.624,12316.436,12333.102,1,7616.624,4716.47800000001,0,NA,"Rating Scale","Rating Scale",9,"object-36","BIQ",NA,"MDPRF82002"
"9",1701885252087,"06/12/2023 17:54:12",1701885252087,0,"06/12/2023 17:54:12",152734,15,"questionnaire-uu2n",NA,33496300,9909178,NA,"complete",NA,"6570b44377cbe451a261f3d3","computer","Desktop or Laptop","Mac OS 10.15.7","Chrome 119.0.0.0","1440x900","1440x708",NA,NA,0,"BIQ (Charlotte)",2,"In","DECFBGAHLIKJ",NA,"In",5,"Spreadsheet1",1,"BIQ","Screen 2","o21mwi",2,"response","0",11616.464,12316.436,12333.102,11616.464,12316.436,12333.102,1,11616.464,716.638000000006,0,NA,"Rating Scale","Rating Scale",16,"object-86","BIQ",NA,"MDPRF82002"
"10",1701885261852,"06/12/2023 17:54:21",1701885261852,0,"06/12/2023 17:54:21",152734,15,"questionnaire-uu2n",NA,33496300,9909178,NA,"complete",NA,"6570b44377cbe451a261f3d3","computer","Desktop or Laptop","Mac OS 10.15.7","Chrome 119.0.0.0","1440x900","1440x708",NA,NA,0,"BIQ (Charlotte)",2,"In","DECFBGAHLIKJ",NA,"In",5,"Spreadsheet1",1,"BIQ","Screen 3","iz3the",3,"continue","",9783.205,9766.539,9783.205,9783.205,9766.539,9783.205,1,9783.205,0,0,NA,"Click To Continue","Continue Button",22,"object-73","BIQ",NA,"MDPRF82002"
"11",1701885261853,"06/12/2023 17:54:21",1701885261853,0,"06/12/2023 17:54:21",152734,15,"questionnaire-uu2n",NA,33496300,9909178,NA,"complete",NA,"6570b44377cbe451a261f3d3","computer","Desktop or Laptop","Mac OS 10.15.7","Chrome 119.0.0.0","1440x900","1440x708",NA,NA,0,"BIQ (Charlotte)",2,"In","DECFBGAHLIKJ",NA,"In",5,"Spreadsheet1",1,"BIQ","Screen 3","iz3the",3,"response","0",2950.145,9766.539,9783.205,2950.145,9766.539,9783.205,1,2950.145,6833.06,0,NA,"Rating Scale","Rating Scale",2,"object-53","BIQ",NA,"MDPRF82002"
"12",1701885261854,"06/12/2023 17:54:21",1701885261854,0,"06/12/2023 17:54:21",152734,15,"questionnaire-uu2n",NA,33496300,9909178,NA,"complete",NA,"6570b44377cbe451a261f3d3","computer","Desktop or Laptop","Mac OS 10.15.7","Chrome 119.0.0.0","1440x900","1440x708",NA,NA,0,"BIQ (Charlotte)",2,"In","DECFBGAHLIKJ",NA,"In",5,"Spreadsheet1",1,"BIQ","Screen 3","iz3the",3,"response","2",4200.095,9766.539,9783.205,4200.095,9766.539,9783.205,1,4200.095,5583.10999999999,0,NA,"Rating Scale","Rating Scale",9,"object-60","BIQ",NA,"MDPRF82002"
"13",1701885261854,"06/12/2023 17:54:21",1701885261854,0,"06/12/2023 17:54:21",152734,15,"questionnaire-uu2n",NA,33496300,9909178,NA,"complete",NA,"6570b44377cbe451a261f3d3","computer","Desktop or Laptop","Mac OS 10.15.7","Chrome 119.0.0.0","1440x900","1440x708",NA,NA,0,"BIQ (Charlotte)",2,"In","DECFBGAHLIKJ",NA,"In",5,"Spreadsheet1",1,"BIQ","Screen 3","iz3the",3,"response","4",8616.585,9766.539,9783.205,8616.585,9766.539,9783.205,1,8616.585,1166.62,0,NA,"Rating Scale","Rating Scale",16,"object-67","BIQ",NA,"MDPRF82002"
"14",1701885261859,"06/12/2023 17:54:21",1701885261859,0,"06/12/2023 17:54:21",152734,15,"questionnaire-uu2n",NA,33496300,9909178,NA,"complete",NA,"6570b44377cbe451a261f3d3","computer","Desktop or Laptop","Mac OS 10.15.7","Chrome 119.0.0.0","1440x900","1440x708",NA,NA,0,"BIQ (Charlotte)",2,"In","DECFBGAHLIKJ",NA,"In",5,"Spreadsheet1",NA,"","","",NA,"5","END",NA,NA,NA,NA,NA,NA,0,NA,NA,NA,NA,"","",NA,"","",NA,"MDPRF82002"
"1",1701885246135,"06/12/2023 17:54:06",1701885246135,0,"06/12/2023 17:54:06",152734,15,"questionnaire-uu2n",NA,33496312,9909113,NA,"complete",NA,"6570b276b0270d43e0a78002","computer","Desktop or Laptop","Windows 10","Chrome 119.0.0.0","1920x1080","1920x919",NA,NA,0,"BIQ (Charlotte)",2,"In","CDBEAFLGKHJI",NA,"In",6,"Spreadsheet1",NA,"","","",NA,"5","BEGIN",NA,NA,NA,NA,NA,NA,0,NA,NA,NA,NA,"","",NA,"","",NA,"MDPRF62430"
"2",1701885260802,"06/12/2023 17:54:20",1701885260802,0,"06/12/2023 17:54:20",152734,15,"questionnaire-uu2n",NA,33496312,9909113,NA,"complete",NA,"6570b276b0270d43e0a78002","computer","Desktop or Laptop","Windows 10","Chrome 119.0.0.0","1920x1080","1920x919",NA,NA,0,"BIQ (Charlotte)",2,"In","CDBEAFLGKHJI",NA,"In",6,"Spreadsheet1",1,"BIQ","Screen 1","9dh6eq",1,"continue","",14666.346,14659.402,14666.346,14666.346,14659.402,14666.346,1,14666.346,0,0,NA,"Click To Continue","Continue Button",23,"object-48","BIQ",NA,"MDPRF62430"
"3",1701885260803,"06/12/2023 17:54:20",1701885260803,0,"06/12/2023 17:54:20",152734,15,"questionnaire-uu2n",NA,33496312,9909113,NA,"complete",NA,"6570b276b0270d43e0a78002","computer","Desktop or Laptop","Windows 10","Chrome 119.0.0.0","1920x1080","1920x919",NA,NA,0,"BIQ (Charlotte)",2,"In","CDBEAFLGKHJI",NA,"In",6,"Spreadsheet1",1,"BIQ","Screen 1","9dh6eq",1,"response","4",8958.128,14659.402,14666.346,8958.128,14659.402,14666.346,1,8958.128,5708.218,0,NA,"Rating Scale","Rating Scale",3,"object-5","BIQ",NA,"MDPRF62430"
"4",1701885260803,"06/12/2023 17:54:20",1701885260803,0,"06/12/2023 17:54:20",152734,15,"questionnaire-uu2n",NA,33496312,9909113,NA,"complete",NA,"6570b276b0270d43e0a78002","computer","Desktop or Laptop","Windows 10","Chrome 119.0.0.0","1920x1080","1920x919",NA,NA,0,"BIQ (Charlotte)",2,"In","CDBEAFLGKHJI",NA,"In",6,"Spreadsheet1",1,"BIQ","Screen 1","9dh6eq",1,"response","2",4749.903,14659.402,14666.346,4749.903,14659.402,14666.346,1,4749.903,9916.443,0,NA,"Rating Scale","Rating Scale",10,"object-18","BIQ",NA,"MDPRF62430"
"5",1701885260804,"06/12/2023 17:54:20",1701885260804,0,"06/12/2023 17:54:20",152734,15,"questionnaire-uu2n",NA,33496312,9909113,NA,"complete",NA,"6570b276b0270d43e0a78002","computer","Desktop or Laptop","Windows 10","Chrome 119.0.0.0","1920x1080","1920x919",NA,NA,0,"BIQ (Charlotte)",2,"In","CDBEAFLGKHJI",NA,"In",6,"Spreadsheet1",1,"BIQ","Screen 1","9dh6eq",1,"response","6",11937.215,14659.402,14666.346,11937.215,14659.402,14666.346,1,11937.215,2729.131,0,NA,"Rating Scale","Rating Scale",17,"object-80","BIQ",NA,"MDPRF62430"
"6",1701885275415,"06/12/2023 17:54:35",1701885275415,0,"06/12/2023 17:54:35",152734,15,"questionnaire-uu2n",NA,33496312,9909113,NA,"complete",NA,"6570b276b0270d43e0a78002","computer","Desktop or Laptop","Windows 10","Chrome 119.0.0.0","1920x1080","1920x919",NA,NA,0,"BIQ (Charlotte)",2,"In","CDBEAFLGKHJI",NA,"In",6,"Spreadsheet1",1,"BIQ","Screen 2","o21mwi",2,"continue","",14624.653,14617.709,14624.653,14624.653,14617.709,14624.653,1,14624.653,0,0,NA,"Click To Continue","Continue Button",22,"object-50","BIQ",NA,"MDPRF62430"
"7",1701885275416,"06/12/2023 17:54:35",1701885275416,0,"06/12/2023 17:54:35",152734,15,"questionnaire-uu2n",NA,33496312,9909113,NA,"complete",NA,"6570b276b0270d43e0a78002","computer","Desktop or Laptop","Windows 10","Chrome 119.0.0.0","1920x1080","1920x919",NA,NA,0,"BIQ (Charlotte)",2,"In","CDBEAFLGKHJI",NA,"In",6,"Spreadsheet1",1,"BIQ","Screen 2","o21mwi",2,"response","2",3013.806,14617.709,14624.653,3013.806,14617.709,14624.653,1,3013.806,11610.847,0,NA,"Rating Scale","Rating Scale",2,"object-259","BIQ",NA,"MDPRF62430"
"8",1701885275416,"06/12/2023 17:54:35",1701885275416,0,"06/12/2023 17:54:35",152734,15,"questionnaire-uu2n",NA,33496312,9909113,NA,"complete",NA,"6570b276b0270d43e0a78002","computer","Desktop or Laptop","Windows 10","Chrome 119.0.0.0","1920x1080","1920x919",NA,NA,0,"BIQ (Charlotte)",2,"In","CDBEAFLGKHJI",NA,"In",6,"Spreadsheet1",1,"BIQ","Screen 2","o21mwi",2,"response","7",6694.297,14617.709,14624.653,6694.297,14617.709,14624.653,1,6694.297,7930.356,0,NA,"Rating Scale","Rating Scale",9,"object-36","BIQ",NA,"MDPRF62430"
"9",1701885275417,"06/12/2023 17:54:35",1701885275417,0,"06/12/2023 17:54:35",152734,15,"questionnaire-uu2n",NA,33496312,9909113,NA,"complete",NA,"6570b276b0270d43e0a78002","computer","Desktop or Laptop","Windows 10","Chrome 119.0.0.0","1920x1080","1920x919",NA,NA,0,"BIQ (Charlotte)",2,"In","CDBEAFLGKHJI",NA,"In",6,"Spreadsheet1",1,"BIQ","Screen 2","o21mwi",2,"response","4",13909.391,14617.709,14624.653,13909.391,14617.709,14624.653,1,13909.391,715.261999999999,0,NA,"Rating Scale","Rating Scale",16,"object-86","BIQ",NA,"MDPRF62430"
"10",1701885276922,"06/12/2023 17:54:36",1701885276922,0,"06/12/2023 17:54:36",152734,15,"questionnaire-uu2n",NA,33496312,9909113,NA,"complete",NA,"6570b276b0270d43e0a78002","computer","Desktop or Laptop","Windows 10","Chrome 119.0.0.0","1920x1080","1920x919",NA,NA,0,"BIQ (Charlotte)",2,"In","CDBEAFLGKHJI",NA,"In",6,"Spreadsheet1",1,"BIQ","Screen 3","iz3the",3,"continue","",1513.855,1506.911,1513.855,1513.855,1506.911,1513.855,1,1513.855,0,0,NA,"Click To Continue","Continue Button",22,"object-73","BIQ",NA,"MDPRF62430"
"11",1701885285288,"06/12/2023 17:54:45",1701885285288,0,"06/12/2023 17:54:45",152734,15,"questionnaire-uu2n",NA,33496312,9909113,NA,"complete",NA,"6570b276b0270d43e0a78002","computer","Desktop or Laptop","Windows 10","Chrome 119.0.0.0","1920x1080","1920x919",NA,NA,0,"BIQ (Charlotte)",2,"In","CDBEAFLGKHJI",NA,"In",6,"Spreadsheet1",1,"BIQ","Screen 3","iz3the",3,"continue","",9880.06500002384,9874.785,9880.06500002384,9880.06500002384,9874.785,9880.06500002384,1,9880.06500002384,0,0,NA,"Click To Continue","Continue Button",22,"object-73","BIQ",NA,"MDPRF62430"
"12",1701885285289,"06/12/2023 17:54:45",1701885285289,0,"06/12/2023 17:54:45",152734,15,"questionnaire-uu2n",NA,33496312,9909113,NA,"complete",NA,"6570b276b0270d43e0a78002","computer","Desktop or Laptop","Windows 10","Chrome 119.0.0.0","1920x1080","1920x919",NA,NA,0,"BIQ (Charlotte)",2,"In","CDBEAFLGKHJI",NA,"In",6,"Spreadsheet1",1,"BIQ","Screen 3","iz3the",3,"response","0",5333.269,9874.785,9880.56500002384,5333.269,9874.785,9880.56500002384,1,5333.269,4547.29600002385,0,NA,"Rating Scale","Rating Scale",2,"object-53","BIQ",NA,"MDPRF62430"
"13",1701885285289,"06/12/2023 17:54:45",1701885285289,0,"06/12/2023 17:54:45",152734,15,"questionnaire-uu2n",NA,33496312,9909113,NA,"complete",NA,"6570b276b0270d43e0a78002","computer","Desktop or Laptop","Windows 10","Chrome 119.0.0.0","1920x1080","1920x919",NA,NA,0,"BIQ (Charlotte)",2,"In","CDBEAFLGKHJI",NA,"In",6,"Spreadsheet1",1,"BIQ","Screen 3","iz3the",3,"response","8",7402.615,9874.785,9880.86500009537,7402.615,9874.785,9880.86500009537,1,7402.615,2478.25000009537,0,NA,"Rating Scale","Rating Scale",9,"object-60","BIQ",NA,"MDPRF62430"
"14",1701885285289,"06/12/2023 17:54:45",1701885285289,0,"06/12/2023 17:54:45",152734,15,"questionnaire-uu2n",NA,33496312,9909113,NA,"complete",NA,"6570b276b0270d43e0a78002","computer","Desktop or Laptop","Windows 10","Chrome 119.0.0.0","1920x1080","1920x919",NA,NA,0,"BIQ (Charlotte)",2,"In","CDBEAFLGKHJI",NA,"In",6,"Spreadsheet1",1,"BIQ","Screen 3","iz3the",3,"response","6",9312.292,9874.785,9880.965,9312.292,9874.785,9880.965,1,9312.292,568.673000000003,0,NA,"Rating Scale","Rating Scale",16,"object-67","BIQ",NA,"MDPRF62430"
"15",1701885285292,"06/12/2023 17:54:45",1701885285292,0,"06/12/2023 17:54:45",152734,15,"questionnaire-uu2n",NA,33496312,9909113,NA,"complete",NA,"6570b276b0270d43e0a78002","computer","Desktop or Laptop","Windows 10","Chrome 119.0.0.0","1920x1080","1920x919",NA,NA,0,"BIQ (Charlotte)",2,"In","CDBEAFLGKHJI",NA,"In",6,"Spreadsheet1",NA,"","","",NA,"5","END",NA,NA,NA,NA,NA,NA,0,NA,NA,NA,NA,"","",NA,"","",NA,"MDPRF62430"
"1",1701885424328,"06/12/2023 17:57:04",1701885424328,0,"06/12/2023 17:57:04",152734,15,"questionnaire-uu2n",NA,33496462,9909224,NA,"complete",NA,"6570b480798caed9bcc7dd50","computer","Desktop or Laptop","Windows 10","Chrome 119.0.0.0","1536x864","1707x821",NA,NA,0,"BIQ (Charlotte)",2,"In","EFDGCHBIAJLK",NA,"In",1,"Spreadsheet1",NA,"","","",NA,"5","BEGIN",NA,NA,NA,NA,NA,NA,0,NA,NA,NA,NA,"","",NA,"","",NA,"MDPRF02309"
"2",1701885446601,"06/12/2023 17:57:26",1701885446601,0,"06/12/2023 17:57:26",152734,15,"questionnaire-uu2n",NA,33496462,9909224,NA,"complete",NA,"6570b480798caed9bcc7dd50","computer","Desktop or Laptop","Windows 10","Chrome 119.0.0.0","1536x864","1707x821",NA,NA,0,"BIQ (Charlotte)",2,"In","EFDGCHBIAJLK",NA,"In",1,"Spreadsheet1",1,"BIQ","Screen 1","9dh6eq",1,"continue","",22875.2000000477,22864.645,22875.2000000477,22875.2000000477,22864.645,22875.2000000477,1,22875.2000000477,0,0,NA,"Click To Continue","Continue Button",23,"object-48","BIQ",NA,"MDPRF02309"
"3",1701885446602,"06/12/2023 17:57:26",1701885446602,0,"06/12/2023 17:57:26",152734,15,"questionnaire-uu2n",NA,33496462,9909224,NA,"complete",NA,"6570b480798caed9bcc7dd50","computer","Desktop or Laptop","Windows 10","Chrome 119.0.0.0","1536x864","1707x821",NA,NA,0,"BIQ (Charlotte)",2,"In","EFDGCHBIAJLK",NA,"In",1,"Spreadsheet1",1,"BIQ","Screen 1","9dh6eq",1,"response","1",13297.502,22864.645,22879.2999999523,13297.502,22864.645,22879.2999999523,1,13297.502,9581.79799995232,0,NA,"Rating Scale","Rating Scale",3,"object-5","BIQ",NA,"MDPRF02309"
"4",1701885446602,"06/12/2023 17:57:26",1701885446602,0,"06/12/2023 17:57:26",152734,15,"questionnaire-uu2n",NA,33496462,9909224,NA,"complete",NA,"6570b480798caed9bcc7dd50","computer","Desktop or Laptop","Windows 10","Chrome 119.0.0.0","1536x864","1707x821",NA,NA,0,"BIQ (Charlotte)",2,"In","EFDGCHBIAJLK",NA,"In",1,"Spreadsheet1",1,"BIQ","Screen 1","9dh6eq",1,"response","2",16830.923,22864.645,22879.5,16830.923,22864.645,22879.5,1,16830.923,6048.577,0,NA,"Rating Scale","Rating Scale",10,"object-18","BIQ",NA,"MDPRF02309"
"5",1701885446602,"06/12/2023 17:57:26",1701885446602,0,"06/12/2023 17:57:26",152734,15,"questionnaire-uu2n",NA,33496462,9909224,NA,"complete",NA,"6570b480798caed9bcc7dd50","computer","Desktop or Laptop","Windows 10","Chrome 119.0.0.0","1536x864","1707x821",NA,NA,0,"BIQ (Charlotte)",2,"In","EFDGCHBIAJLK",NA,"In",1,"Spreadsheet1",1,"BIQ","Screen 1","9dh6eq",1,"response","6",20631.119,22864.645,22879.5999999046,20631.119,22864.645,22879.5999999046,1,20631.119,2248.48099990463,0,NA,"Rating Scale","Rating Scale",17,"object-80","BIQ",NA,"MDPRF02309"
"6",1701885462106,"06/12/2023 17:57:42",1701885462106,0,"06/12/2023 17:57:42",152734,15,"questionnaire-uu2n",NA,33496462,9909224,NA,"complete",NA,"6570b480798caed9bcc7dd50","computer","Desktop or Laptop","Windows 10","Chrome 119.0.0.0","1536x864","1707x821",NA,NA,0,"BIQ (Charlotte)",2,"In","EFDGCHBIAJLK",NA,"In",1,"Spreadsheet1",1,"BIQ","Screen 2","o21mwi",2,"continue","",15517.148,15500.487,15517.148,15517.148,15500.487,15517.148,1,15517.148,0,0,NA,"Click To Continue","Continue Button",22,"object-50","BIQ",NA,"MDPRF02309"
"7",1701885462108,"06/12/2023 17:57:42",1701885462108,0,"06/12/2023 17:57:42",152734,15,"questionnaire-uu2n",NA,33496462,9909224,NA,"complete",NA,"6570b480798caed9bcc7dd50","computer","Desktop or Laptop","Windows 10","Chrome 119.0.0.0","1536x864","1707x821",NA,NA,0,"BIQ (Charlotte)",2,"In","EFDGCHBIAJLK",NA,"In",1,"Spreadsheet1",1,"BIQ","Screen 2","o21mwi",2,"response","3",4200.324,15500.487,15517.148,4200.324,15500.487,15517.148,1,4200.324,11316.824,0,NA,"Rating Scale","Rating Scale",2,"object-259","BIQ",NA,"MDPRF02309"
"8",1701885462108,"06/12/2023 17:57:42",1701885462108,0,"06/12/2023 17:57:42",152734,15,"questionnaire-uu2n",NA,33496462,9909224,NA,"complete",NA,"6570b480798caed9bcc7dd50","computer","Desktop or Laptop","Windows 10","Chrome 119.0.0.0","1536x864","1707x821",NA,NA,0,"BIQ (Charlotte)",2,"In","EFDGCHBIAJLK",NA,"In",1,"Spreadsheet1",1,"BIQ","Screen 2","o21mwi",2,"response","5",9517.055,15500.487,15517.148,9517.055,15500.487,15517.148,1,9517.055,6000.093,0,NA,"Rating Scale","Rating Scale",9,"object-36","BIQ",NA,"MDPRF02309"
"9",1701885462108,"06/12/2023 17:57:42",1701885462108,0,"06/12/2023 17:57:42",152734,15,"questionnaire-uu2n",NA,33496462,9909224,NA,"complete",NA,"6570b480798caed9bcc7dd50","computer","Desktop or Laptop","Windows 10","Chrome 119.0.0.0","1536x864","1707x821",NA,NA,0,"BIQ (Charlotte)",2,"In","EFDGCHBIAJLK",NA,"In",1,"Spreadsheet1",1,"BIQ","Screen 2","o21mwi",2,"response","3",14567.392,15500.487,15517.148,14567.392,15500.487,15517.148,1,14567.392,949.756000000001,0,NA,"Rating Scale","Rating Scale",16,"object-86","BIQ",NA,"MDPRF02309"
"10",1701885475020,"06/12/2023 17:57:55",1701885475020,0,"06/12/2023 17:57:55",152734,15,"questionnaire-uu2n",NA,33496462,9909224,NA,"complete",NA,"6570b480798caed9bcc7dd50","computer","Desktop or Laptop","Windows 10","Chrome 119.0.0.0","1536x864","1707x821",NA,NA,0,"BIQ (Charlotte)",2,"In","EFDGCHBIAJLK",NA,"In",1,"Spreadsheet1",1,"BIQ","Screen 3","iz3the",3,"continue","",12932.368,12917.635,12932.368,12932.368,12917.635,12932.368,1,12932.368,0,0,NA,"Click To Continue","Continue Button",22,"object-73","BIQ",NA,"MDPRF02309"
"11",1701885475022,"06/12/2023 17:57:55",1701885475022,0,"06/12/2023 17:57:55",152734,15,"questionnaire-uu2n",NA,33496462,9909224,NA,"complete",NA,"6570b480798caed9bcc7dd50","computer","Desktop or Laptop","Windows 10","Chrome 119.0.0.0","1536x864","1707x821",NA,NA,0,"BIQ (Charlotte)",2,"In","EFDGCHBIAJLK",NA,"In",1,"Spreadsheet1",1,"BIQ","Screen 3","iz3the",3,"response","1",6450.756,12917.635,12934.0680000477,6450.756,12917.635,12934.0680000477,1,6450.756,6483.31200004768,0,NA,"Rating Scale","Rating Scale",2,"object-53","BIQ",NA,"MDPRF02309"
"12",1701885475022,"06/12/2023 17:57:55",1701885475022,0,"06/12/2023 17:57:55",152734,15,"questionnaire-uu2n",NA,33496462,9909224,NA,"complete",NA,"6570b480798caed9bcc7dd50","computer","Desktop or Laptop","Windows 10","Chrome 119.0.0.0","1536x864","1707x821",NA,NA,0,"BIQ (Charlotte)",2,"In","EFDGCHBIAJLK",NA,"In",1,"Spreadsheet1",1,"BIQ","Screen 3","iz3the",3,"response","0",10067.445,12917.635,12934.1679999523,10067.445,12917.635,12934.1679999523,1,10067.445,2866.72299995232,0,NA,"Rating Scale","Rating Scale",9,"object-60","BIQ",NA,"MDPRF02309"
"13",1701885475022,"06/12/2023 17:57:55",1701885475022,0,"06/12/2023 17:57:55",152734,15,"questionnaire-uu2n",NA,33496462,9909224,NA,"complete",NA,"6570b480798caed9bcc7dd50","computer","Desktop or Laptop","Windows 10","Chrome 119.0.0.0","1536x864","1707x821",NA,NA,0,"BIQ (Charlotte)",2,"In","EFDGCHBIAJLK",NA,"In",1,"Spreadsheet1",1,"BIQ","Screen 3","iz3the",3,"response","8",12300.936,12917.635,12934.3,12300.936,12917.635,12934.3,1,12300.936,633.364000000001,0,NA,"Rating Scale","Rating Scale",16,"object-67","BIQ",NA,"MDPRF02309"
"14",1701885475025,"06/12/2023 17:57:55",1701885475025,0,"06/12/2023 17:57:55",152734,15,"questionnaire-uu2n",NA,33496462,9909224,NA,"complete",NA,"6570b480798caed9bcc7dd50","computer","Desktop or Laptop","Windows 10","Chrome 119.0.0.0","1536x864","1707x821",NA,NA,0,"BIQ (Charlotte)",2,"In","EFDGCHBIAJLK",NA,"In",1,"Spreadsheet1",NA,"","","",NA,"5","END",NA,NA,NA,NA,NA,NA,0,NA,NA,NA,NA,"","",NA,"","",NA,"MDPRF02309"
"1",1701885625497,"06/12/2023 18:00:25",1701885625497,0,"06/12/2023 18:00:25",152734,15,"questionnaire-uu2n",NA,33496583,9909247,NA,"complete",NA,"6570b6680ea19e92901e5180","computer","Desktop or Laptop","Mac OS 10.15.7","Chrome 116.0.0.0","1440x900","1068x602",NA,NA,0,"BIQ (Charlotte)",2,"In","FGEHDICJBKAL",NA,"In",2,"Spreadsheet1",NA,"","","",NA,"5","BEGIN",NA,NA,NA,NA,NA,NA,0,NA,NA,NA,NA,"","",NA,"","",NA,"MDPRF27041"
"2",1701885684262,"06/12/2023 18:01:24",1701885684262,0,"06/12/2023 18:01:24",152734,15,"questionnaire-uu2n",NA,33496583,9909247,NA,"complete",NA,"6570b6680ea19e92901e5180","computer","Desktop or Laptop","Mac OS 10.15.7","Chrome 116.0.0.0","1440x900","1198x723",NA,NA,0,"BIQ (Charlotte)",2,"In","FGEHDICJBKAL",NA,"In",2,"Spreadsheet1",1,"BIQ","Screen 1","9dh6eq",1,"continue","",58787.667,58776.427,58787.667,58787.667,58776.427,58787.667,1,58787.667,0,0,NA,"Click To Continue","Continue Button",23,"object-48","BIQ",NA,"MDPRF27041"
"3",1701885684267,"06/12/2023 18:01:24",1701885684267,0,"06/12/2023 18:01:24",152734,15,"questionnaire-uu2n",NA,33496583,9909247,NA,"complete",NA,"6570b6680ea19e92901e5180","computer","Desktop or Laptop","Mac OS 10.15.7","Chrome 116.0.0.0","1440x900","1198x723",NA,NA,0,"BIQ (Charlotte)",2,"In","FGEHDICJBKAL",NA,"In",2,"Spreadsheet1",1,"BIQ","Screen 1","9dh6eq",1,"response","7",23030.847,58776.427,58793.093,23030.847,58776.427,58793.093,1,23030.847,35762.246,0,NA,"Rating Scale","Rating Scale",3,"object-5","BIQ",NA,"MDPRF27041"
"4",1701885684268,"06/12/2023 18:01:24",1701885684268,0,"06/12/2023 18:01:24",152734,15,"questionnaire-uu2n",NA,33496583,9909247,NA,"complete",NA,"6570b6680ea19e92901e5180","computer","Desktop or Laptop","Mac OS 10.15.7","Chrome 116.0.0.0","1440x900","1198x723",NA,NA,0,"BIQ (Charlotte)",2,"In","FGEHDICJBKAL",NA,"In",2,"Spreadsheet1",1,"BIQ","Screen 1","9dh6eq",1,"response","4",42769.942,58776.427,58793.093,42769.942,58776.427,58793.093,1,42769.942,16023.151,0,NA,"Rating Scale","Rating Scale",10,"object-18","BIQ",NA,"MDPRF27041"
"5",1701885684269,"06/12/2023 18:01:24",1701885684269,0,"06/12/2023 18:01:24",152734,15,"questionnaire-uu2n",NA,33496583,9909247,NA,"complete",NA,"6570b6680ea19e92901e5180","computer","Desktop or Laptop","Mac OS 10.15.7","Chrome 116.0.0.0","1440x900","1198x723",NA,NA,0,"BIQ (Charlotte)",2,"In","FGEHDICJBKAL",NA,"In",2,"Spreadsheet1",1,"BIQ","Screen 1","9dh6eq",1,"response","1",48755.823,58776.427,58793.093,48755.823,58776.427,58793.093,1,48755.823,10037.27,0,NA,"Rating Scale","Rating Scale",17,"object-80","BIQ",NA,"MDPRF27041"
"6",1701885720015,"06/12/2023 18:02:00",1701885720015,0,"06/12/2023 18:02:00",152734,15,"questionnaire-uu2n",NA,33496583,9909247,NA,"complete",NA,"6570b6680ea19e92901e5180","computer","Desktop or Laptop","Mac OS 10.15.7","Chrome 116.0.0.0","1440x900","1198x723",NA,NA,0,"BIQ (Charlotte)",2,"In","FGEHDICJBKAL",NA,"In",2,"Spreadsheet1",1,"BIQ","Screen 2","o21mwi",2,"continue","",35762.713,35746.047,35762.713,35762.713,35746.047,35762.713,1,35762.713,0,0,NA,"Click To Continue","Continue Button",22,"object-50","BIQ",NA,"MDPRF27041"
"7",1701885720022,"06/12/2023 18:02:00",1701885720022,0,"06/12/2023 18:02:00",152734,15,"questionnaire-uu2n",NA,33496583,9909247,NA,"complete",NA,"6570b6680ea19e92901e5180","computer","Desktop or Laptop","Mac OS 10.15.7","Chrome 116.0.0.0","1440x900","1198x723",NA,NA,0,"BIQ (Charlotte)",2,"In","FGEHDICJBKAL",NA,"In",2,"Spreadsheet1",1,"BIQ","Screen 2","o21mwi",2,"response","7",7349.706,35746.047,35762.713,7349.706,35746.047,35762.713,1,7349.706,28413.007,0,NA,"Rating Scale","Rating Scale",2,"object-259","BIQ",NA,"MDPRF27041"
"8",1701885720023,"06/12/2023 18:02:00",1701885720023,0,"06/12/2023 18:02:00",152734,15,"questionnaire-uu2n",NA,33496583,9909247,NA,"complete",NA,"6570b6680ea19e92901e5180","computer","Desktop or Laptop","Mac OS 10.15.7","Chrome 116.0.0.0","1440x900","1198x723",NA,NA,0,"BIQ (Charlotte)",2,"In","FGEHDICJBKAL",NA,"In",2,"Spreadsheet1",1,"BIQ","Screen 2","o21mwi",2,"response","1",22727.343,35746.047,35762.713,22727.343,35746.047,35762.713,1,22727.343,13035.37,0,NA,"Rating Scale","Rating Scale",9,"object-36","BIQ",NA,"MDPRF27041"
"9",1701885720023,"06/12/2023 18:02:00",1701885720023,0,"06/12/2023 18:02:00",152734,15,"questionnaire-uu2n",NA,33496583,9909247,NA,"complete",NA,"6570b6680ea19e92901e5180","computer","Desktop or Laptop","Mac OS 10.15.7","Chrome 116.0.0.0","1440x900","1198x723",NA,NA,0,"BIQ (Charlotte)",2,"In","FGEHDICJBKAL",NA,"In",2,"Spreadsheet1",1,"BIQ","Screen 2","o21mwi",2,"response","0",34379.435,35746.047,35762.713,34379.435,35746.047,35762.713,1,34379.435,1383.27799999999,0,NA,"Rating Scale","Rating Scale",16,"object-86","BIQ",NA,"MDPRF27041"
"10",1701885741229,"06/12/2023 18:02:21",1701885741229,0,"06/12/2023 18:02:21",152734,15,"questionnaire-uu2n",NA,33496583,9909247,NA,"complete",NA,"6570b6680ea19e92901e5180","computer","Desktop or Laptop","Mac OS 10.15.7","Chrome 116.0.0.0","1440x900","1198x723",NA,NA,0,"BIQ (Charlotte)",2,"In","FGEHDICJBKAL",NA,"In",2,"Spreadsheet1",1,"BIQ","Screen 3","iz3the",3,"continue","",21230.751,21214.085,21230.751,21230.751,21214.085,21230.751,1,21230.751,0,0,NA,"Click To Continue","Continue Button",22,"object-73","BIQ",NA,"MDPRF27041"
"11",1701885741233,"06/12/2023 18:02:21",1701885741233,0,"06/12/2023 18:02:21",152734,15,"questionnaire-uu2n",NA,33496583,9909247,NA,"complete",NA,"6570b6680ea19e92901e5180","computer","Desktop or Laptop","Mac OS 10.15.7","Chrome 116.0.0.0","1440x900","1198x723",NA,NA,0,"BIQ (Charlotte)",2,"In","FGEHDICJBKAL",NA,"In",2,"Spreadsheet1",1,"BIQ","Screen 3","iz3the",3,"response","0",7057.658,21214.085,21230.751,7057.658,21214.085,21230.751,1,7057.658,14173.093,0,NA,"Rating Scale","Rating Scale",2,"object-53","BIQ",NA,"MDPRF27041"
"12",1701885741233,"06/12/2023 18:02:21",1701885741233,0,"06/12/2023 18:02:21",152734,15,"questionnaire-uu2n",NA,33496583,9909247,NA,"complete",NA,"6570b6680ea19e92901e5180","computer","Desktop or Laptop","Mac OS 10.15.7","Chrome 116.0.0.0","1440x900","1198x723",NA,NA,0,"BIQ (Charlotte)",2,"In","FGEHDICJBKAL",NA,"In",2,"Spreadsheet1",1,"BIQ","Screen 3","iz3the",3,"response","2",11990.794,21214.085,21230.751,11990.794,21214.085,21230.751,1,11990.794,9239.95700000002,0,NA,"Rating Scale","Rating Scale",9,"object-60","BIQ",NA,"MDPRF27041"
"13",1701885741234,"06/12/2023 18:02:21",1701885741234,0,"06/12/2023 18:02:21",152734,15,"questionnaire-uu2n",NA,33496583,9909247,NA,"complete",NA,"6570b6680ea19e92901e5180","computer","Desktop or Laptop","Mac OS 10.15.7","Chrome 116.0.0.0","1440x900","1198x723",NA,NA,0,"BIQ (Charlotte)",2,"In","FGEHDICJBKAL",NA,"In",2,"Spreadsheet1",1,"BIQ","Screen 3","iz3the",3,"response","3",16797.595,21214.085,21230.751,16797.595,21214.085,21230.751,1,16797.595,4433.15600000002,0,NA,"Rating Scale","Rating Scale",16,"object-67","BIQ",NA,"MDPRF27041"
"14",1701885741236,"06/12/2023 18:02:21",1701885741236,0,"06/12/2023 18:02:21",152734,15,"questionnaire-uu2n",NA,33496583,9909247,NA,"complete",NA,"6570b6680ea19e92901e5180","computer","Desktop or Laptop","Mac OS 10.15.7","Chrome 116.0.0.0","1440x900","1198x723",NA,NA,0,"BIQ (Charlotte)",2,"In","FGEHDICJBKAL",NA,"In",2,"Spreadsheet1",NA,"","","",NA,"5","END",NA,NA,NA,NA,NA,NA,0,NA,NA,NA,NA,"","",NA,"","",NA,"MDPRF27041"
"1",1701885701366,"06/12/2023 18:01:41",1701885701366,0,"06/12/2023 18:01:41",152734,15,"questionnaire-uu2n",NA,33496637,9909253,NA,"complete",NA,"6570b6970a4f152cb5538b7c","computer","Desktop or Laptop","Windows 10","Chrome 119.0.0.0","1920x1080","1920x923",NA,NA,0,"BIQ (Charlotte)",2,"In","GHFIEJDKCLBA",NA,"In",3,"Spreadsheet1",NA,"","","",NA,"5","BEGIN",NA,NA,NA,NA,NA,NA,0,NA,NA,NA,NA,"","",NA,"","",NA,"MDPRF69845"
"2",1701885738509,"06/12/2023 18:02:18",1701885738509,0,"06/12/2023 18:02:18",152734,15,"questionnaire-uu2n",NA,33496637,9909253,NA,"complete",NA,"6570b6970a4f152cb5538b7c","computer","Desktop or Laptop","Windows 10","Chrome 119.0.0.0","1920x1080","1920x923",NA,NA,0,"BIQ (Charlotte)",2,"In","GHFIEJDKCLBA",NA,"In",3,"Spreadsheet1",1,"BIQ","Screen 1","9dh6eq",1,"continue","",37164.8409999046,37150.621,37164.8409999046,37164.8409999046,37150.621,37164.8409999046,1,37164.8409999046,0,0,NA,"Click To Continue","Continue Button",23,"object-48","BIQ",NA,"MDPRF69845"
"3",1701885738512,"06/12/2023 18:02:18",1701885738512,0,"06/12/2023 18:02:18",152734,15,"questionnaire-uu2n",NA,33496637,9909253,NA,"complete",NA,"6570b6970a4f152cb5538b7c","computer","Desktop or Laptop","Windows 10","Chrome 119.0.0.0","1920x1080","1920x923",NA,NA,0,"BIQ (Charlotte)",2,"In","GHFIEJDKCLBA",NA,"In",3,"Spreadsheet1",1,"BIQ","Screen 1","9dh6eq",1,"response","4",9550.392,37150.621,37167.356,9550.392,37150.621,37167.356,1,9550.392,27616.964,0,NA,"Rating Scale","Rating Scale",3,"object-5","BIQ",NA,"MDPRF69845"
"4",1701885738512,"06/12/2023 18:02:18",1701885738512,0,"06/12/2023 18:02:18",152734,15,"questionnaire-uu2n",NA,33496637,9909253,NA,"complete",NA,"6570b6970a4f152cb5538b7c","computer","Desktop or Laptop","Windows 10","Chrome 119.0.0.0","1920x1080","1920x923",NA,NA,0,"BIQ (Charlotte)",2,"In","GHFIEJDKCLBA",NA,"In",3,"Spreadsheet1",1,"BIQ","Screen 1","9dh6eq",1,"response","6",15183.8,37150.621,37167.356,15183.8,37150.621,37167.356,1,15183.8,21983.556,0,NA,"Rating Scale","Rating Scale",10,"object-18","BIQ",NA,"MDPRF69845"
"5",1701885738513,"06/12/2023 18:02:18",1701885738513,0,"06/12/2023 18:02:18",152734,15,"questionnaire-uu2n",NA,33496637,9909253,NA,"complete",NA,"6570b6970a4f152cb5538b7c","computer","Desktop or Laptop","Windows 10","Chrome 119.0.0.0","1920x1080","1920x923",NA,NA,0,"BIQ (Charlotte)",2,"In","GHFIEJDKCLBA",NA,"In",3,"Spreadsheet1",1,"BIQ","Screen 1","9dh6eq",1,"response","2",30967.295,37150.621,37167.356,30967.295,37150.621,37167.356,1,30967.295,6200.061,0,NA,"Rating Scale","Rating Scale",17,"object-80","BIQ",NA,"MDPRF69845"
"6",1701885753088,"06/12/2023 18:02:33",1701885753088,0,"06/12/2023 18:02:33",152734,15,"questionnaire-uu2n",NA,33496637,9909253,NA,"complete",NA,"6570b6970a4f152cb5538b7c","computer","Desktop or Laptop","Windows 10","Chrome 119.0.0.0","1920x1080","1920x923",NA,NA,0,"BIQ (Charlotte)",2,"In","GHFIEJDKCLBA",NA,"In",3,"Spreadsheet1",1,"BIQ","Screen 2","o21mwi",2,"continue","",14602.4199999523,14600.244,14602.4199999523,14602.4199999523,14600.244,14602.4199999523,1,14602.4199999523,0,0,NA,"Click To Continue","Continue Button",22,"object-50","BIQ",NA,"MDPRF69845"
"7",1701885753095,"06/12/2023 18:02:33",1701885753095,0,"06/12/2023 18:02:33",152734,15,"questionnaire-uu2n",NA,33496637,9909253,NA,"complete",NA,"6570b6970a4f152cb5538b7c","computer","Desktop or Laptop","Windows 10","Chrome 119.0.0.0","1920x1080","1920x923",NA,NA,0,"BIQ (Charlotte)",2,"In","GHFIEJDKCLBA",NA,"In",3,"Spreadsheet1",1,"BIQ","Screen 2","o21mwi",2,"response","8",4283.506,14600.244,14608.5200000954,4283.506,14600.244,14608.5200000954,1,4283.506,10325.0140000954,0,NA,"Rating Scale","Rating Scale",2,"object-259","BIQ",NA,"MDPRF69845"
"8",1701885753096,"06/12/2023 18:02:33",1701885753096,0,"06/12/2023 18:02:33",152734,15,"questionnaire-uu2n",NA,33496637,9909253,NA,"complete",NA,"6570b6970a4f152cb5538b7c","computer","Desktop or Laptop","Windows 10","Chrome 119.0.0.0","1920x1080","1920x923",NA,NA,0,"BIQ (Charlotte)",2,"In","GHFIEJDKCLBA",NA,"In",3,"Spreadsheet1",1,"BIQ","Screen 2","o21mwi",2,"response","2",7700.34,14600.244,14610.12,7700.34,14600.244,14610.12,1,7700.34,6909.78,0,NA,"Rating Scale","Rating Scale",9,"object-36","BIQ",NA,"MDPRF69845"
"9",1701885753098,"06/12/2023 18:02:33",1701885753098,0,"06/12/2023 18:02:33",152734,15,"questionnaire-uu2n",NA,33496637,9909253,NA,"complete",NA,"6570b6970a4f152cb5538b7c","computer","Desktop or Laptop","Windows 10","Chrome 119.0.0.0","1920x1080","1920x923",NA,NA,0,"BIQ (Charlotte)",2,"In","GHFIEJDKCLBA",NA,"In",3,"Spreadsheet1",1,"BIQ","Screen 2","o21mwi",2,"response","0",13233.794,14600.244,14611.4199999523,13233.794,14600.244,14611.4199999523,1,13233.794,1377.62599995232,0,NA,"Rating Scale","Rating Scale",16,"object-86","BIQ",NA,"MDPRF69845"
"10",1701885765818,"06/12/2023 18:02:45",1701885765818,0,"06/12/2023 18:02:45",152734,15,"questionnaire-uu2n",NA,33496637,9909253,NA,"complete",NA,"6570b6970a4f152cb5538b7c","computer","Desktop or Laptop","Windows 10","Chrome 119.0.0.0","1920x1080","1920x923",NA,NA,0,"BIQ (Charlotte)",2,"In","GHFIEJDKCLBA",NA,"In",3,"Spreadsheet1",1,"BIQ","Screen 3","iz3the",3,"continue","",12731.1759999523,12716.799,12731.1759999523,12731.1759999523,12716.799,12731.1759999523,1,12731.1759999523,0,0,NA,"Click To Continue","Continue Button",22,"object-73","BIQ",NA,"MDPRF69845"
"11",1701885765825,"06/12/2023 18:02:45",1701885765825,0,"06/12/2023 18:02:45",152734,15,"questionnaire-uu2n",NA,33496637,9909253,NA,"complete",NA,"6570b6970a4f152cb5538b7c","computer","Desktop or Laptop","Windows 10","Chrome 119.0.0.0","1920x1080","1920x923",NA,NA,0,"BIQ (Charlotte)",2,"In","GHFIEJDKCLBA",NA,"In",3,"Spreadsheet1",1,"BIQ","Screen 3","iz3the",3,"response","0",3283.473,12716.799,12733.196,3283.473,12716.799,12733.196,1,3283.473,9449.723,0,NA,"Rating Scale","Rating Scale",2,"object-53","BIQ",NA,"MDPRF69845"
"12",1701885765826,"06/12/2023 18:02:45",1701885765826,0,"06/12/2023 18:02:45",152734,15,"questionnaire-uu2n",NA,33496637,9909253,NA,"complete",NA,"6570b6970a4f152cb5538b7c","computer","Desktop or Laptop","Windows 10","Chrome 119.0.0.0","1920x1080","1920x923",NA,NA,0,"BIQ (Charlotte)",2,"In","GHFIEJDKCLBA",NA,"In",3,"Spreadsheet1",1,"BIQ","Screen 3","iz3the",3,"response","1",7833.437,12716.799,12733.196,7833.437,12716.799,12733.196,1,7833.437,4899.75900000001,0,NA,"Rating Scale","Rating Scale",9,"object-60","BIQ",NA,"MDPRF69845"
"13",1701885765827,"06/12/2023 18:02:45",1701885765827,0,"06/12/2023 18:02:45",152734,15,"questionnaire-uu2n",NA,33496637,9909253,NA,"complete",NA,"6570b6970a4f152cb5538b7c","computer","Desktop or Laptop","Windows 10","Chrome 119.0.0.0","1920x1080","1920x923",NA,NA,0,"BIQ (Charlotte)",2,"In","GHFIEJDKCLBA",NA,"In",3,"Spreadsheet1",1,"BIQ","Screen 3","iz3the",3,"response","2",11600.189,12716.799,12733.196,11600.189,12716.799,12733.196,1,11600.189,1133.007,0,NA,"Rating Scale","Rating Scale",16,"object-67","BIQ",NA,"MDPRF69845"
"14",1701885765838,"06/12/2023 18:02:45",1701885765838,0,"06/12/2023 18:02:45",152734,15,"questionnaire-uu2n",NA,33496637,9909253,NA,"complete",NA,"6570b6970a4f152cb5538b7c","computer","Desktop or Laptop","Windows 10","Chrome 119.0.0.0","1920x1080","1920x923",NA,NA,0,"BIQ (Charlotte)",2,"In","GHFIEJDKCLBA",NA,"In",3,"Spreadsheet1",NA,"","","",NA,"5","END",NA,NA,NA,NA,NA,NA,0,NA,NA,NA,NA,"","",NA,"","",NA,"MDPRF69845"
"1",1701885916094,"06/12/2023 18:05:16",1701885916094,0,"06/12/2023 18:05:16",152734,15,"questionnaire-uu2n",NA,33496798,9909256,NA,"complete",NA,"6570b672a5ca4229dd5ea889","computer","Desktop or Laptop","Windows 10","Chrome 119.0.0.0","1368x912","1368x755",NA,NA,0,"BIQ (Charlotte)",2,"In","HIGJFKELDACB",NA,"In",5,"Spreadsheet1",NA,"","","",NA,"5","BEGIN",NA,NA,NA,NA,NA,NA,0,NA,NA,NA,NA,"","",NA,"","",NA,"MDPRF86222"
"2",1701885972454,"06/12/2023 18:06:12",1701885972454,0,"06/12/2023 18:06:12",152734,15,"questionnaire-uu2n",NA,33496798,9909256,NA,"complete",NA,"6570b672a5ca4229dd5ea889","computer","Desktop or Laptop","Windows 10","Chrome 119.0.0.0","1368x912","1368x755",NA,NA,0,"BIQ (Charlotte)",2,"In","HIGJFKELDACB",NA,"In",5,"Spreadsheet1",1,"BIQ","Screen 1","9dh6eq",1,"continue","",56380.836,56364.03,56380.836,56380.836,56364.03,56380.836,1,56380.836,0,0,NA,"Click To Continue","Continue Button",23,"object-48","BIQ",NA,"MDPRF86222"
"3",1701885972459,"06/12/2023 18:06:12",1701885972459,0,"06/12/2023 18:06:12",152734,15,"questionnaire-uu2n",NA,33496798,9909256,NA,"complete",NA,"6570b672a5ca4229dd5ea889","computer","Desktop or Laptop","Windows 10","Chrome 119.0.0.0","1368x912","1368x755",NA,NA,0,"BIQ (Charlotte)",2,"In","HIGJFKELDACB",NA,"In",5,"Spreadsheet1",1,"BIQ","Screen 1","9dh6eq",1,"response","5",28277.646,56364.03,56380.836,28277.646,56364.03,56380.836,1,28277.646,28103.19,0,NA,"Rating Scale","Rating Scale",3,"object-5","BIQ",NA,"MDPRF86222"
"4",1701885972460,"06/12/2023 18:06:12",1701885972460,0,"06/12/2023 18:06:12",152734,15,"questionnaire-uu2n",NA,33496798,9909256,NA,"complete",NA,"6570b672a5ca4229dd5ea889","computer","Desktop or Laptop","Windows 10","Chrome 119.0.0.0","1368x912","1368x755",NA,NA,0,"BIQ (Charlotte)",2,"In","HIGJFKELDACB",NA,"In",5,"Spreadsheet1",1,"BIQ","Screen 1","9dh6eq",1,"response","3",36716.865,56364.03,56380.836,36716.865,56364.03,56380.836,1,36716.865,19663.971,0,NA,"Rating Scale","Rating Scale",10,"object-18","BIQ",NA,"MDPRF86222"
"5",1701885972460,"06/12/2023 18:06:12",1701885972460,0,"06/12/2023 18:06:12",152734,15,"questionnaire-uu2n",NA,33496798,9909256,NA,"complete",NA,"6570b672a5ca4229dd5ea889","computer","Desktop or Laptop","Windows 10","Chrome 119.0.0.0","1368x912","1368x755",NA,NA,0,"BIQ (Charlotte)",2,"In","HIGJFKELDACB",NA,"In",5,"Spreadsheet1",1,"BIQ","Screen 1","9dh6eq",1,"response","4",53078.074,56364.03,56380.836,53078.074,56364.03,56380.836,1,53078.074,3302.76200000001,0,NA,"Rating Scale","Rating Scale",17,"object-80","BIQ",NA,"MDPRF86222"
"6",1701886008931,"06/12/2023 18:06:48",1701886008931,0,"06/12/2023 18:06:48",152734,15,"questionnaire-uu2n",NA,33496798,9909256,NA,"complete",NA,"6570b672a5ca4229dd5ea889","computer","Desktop or Laptop","Windows 10","Chrome 119.0.0.0","1368x912","1368x755",NA,NA,0,"BIQ (Charlotte)",2,"In","HIGJFKELDACB",NA,"In",5,"Spreadsheet1",1,"BIQ","Screen 2","o21mwi",2,"continue","",36504.8260001907,36491.62,36504.8260001907,36504.8260001907,36491.62,36504.8260001907,1,36504.8260001907,0,0,NA,"Click To Continue","Continue Button",22,"object-50","BIQ",NA,"MDPRF86222"
"7",1701886008937,"06/12/2023 18:06:48",1701886008937,0,"06/12/2023 18:06:48",152734,15,"questionnaire-uu2n",NA,33496798,9909256,NA,"complete",NA,"6570b672a5ca4229dd5ea889","computer","Desktop or Laptop","Windows 10","Chrome 119.0.0.0","1368x912","1368x755",NA,NA,0,"BIQ (Charlotte)",2,"In","HIGJFKELDACB",NA,"In",5,"Spreadsheet1",1,"BIQ","Screen 2","o21mwi",2,"response","6",6454.164,36491.62,36507.961,6454.164,36491.62,36507.961,1,6454.164,30053.797,0,NA,"Rating Scale","Rating Scale",2,"object-259","BIQ",NA,"MDPRF86222"
"8",1701886008938,"06/12/2023 18:06:48",1701886008938,0,"06/12/2023 18:06:48",152734,15,"questionnaire-uu2n",NA,33496798,9909256,NA,"complete",NA,"6570b672a5ca4229dd5ea889","computer","Desktop or Laptop","Windows 10","Chrome 119.0.0.0","1368x912","1368x755",NA,NA,0,"BIQ (Charlotte)",2,"In","HIGJFKELDACB",NA,"In",5,"Spreadsheet1",1,"BIQ","Screen 2","o21mwi",2,"response","3",17778.994,36491.62,36507.961,17778.994,36491.62,36507.961,1,17778.994,18728.967,0,NA,"Rating Scale","Rating Scale",9,"object-36","BIQ",NA,"MDPRF86222"
"9",1701886008939,"06/12/2023 18:06:48",1701886008939,0,"06/12/2023 18:06:48",152734,15,"questionnaire-uu2n",NA,33496798,9909256,NA,"complete",NA,"6570b672a5ca4229dd5ea889","computer","Desktop or Laptop","Windows 10","Chrome 119.0.0.0","1368x912","1368x755",NA,NA,0,"BIQ (Charlotte)",2,"In","HIGJFKELDACB",NA,"In",5,"Spreadsheet1",1,"BIQ","Screen 2","o21mwi",2,"response","4",34340.169,36491.62,36507.961,34340.169,36491.62,36507.961,1,34340.169,2167.792,0,NA,"Rating Scale","Rating Scale",16,"object-86","BIQ",NA,"MDPRF86222"
"10",1701886029483,"06/12/2023 18:07:09",1701886029483,0,"06/12/2023 18:07:09",152734,15,"questionnaire-uu2n",NA,33496798,9909256,NA,"complete",NA,"6570b672a5ca4229dd5ea889","computer","Desktop or Laptop","Windows 10","Chrome 119.0.0.0","1368x912","1368x755",NA,NA,0,"BIQ (Charlotte)",2,"In","HIGJFKELDACB",NA,"In",5,"Spreadsheet1",1,"BIQ","Screen 3","iz3the",3,"continue","",20564.375,20547.73,20564.375,20564.375,20547.73,20564.375,1,20564.375,0,0,NA,"Click To Continue","Continue Button",22,"object-73","BIQ",NA,"MDPRF86222"
"11",1701886029487,"06/12/2023 18:07:09",1701886029487,0,"06/12/2023 18:07:09",152734,15,"questionnaire-uu2n",NA,33496798,9909256,NA,"complete",NA,"6570b672a5ca4229dd5ea889","computer","Desktop or Laptop","Windows 10","Chrome 119.0.0.0","1368x912","1368x755",NA,NA,0,"BIQ (Charlotte)",2,"In","HIGJFKELDACB",NA,"In",5,"Spreadsheet1",1,"BIQ","Screen 3","iz3the",3,"response","0",6304.32800000001,20547.73,20564.375,6304.32800000001,20547.73,20564.375,1,6304.32800000001,14260.047,0,NA,"Rating Scale","Rating Scale",2,"object-53","BIQ",NA,"MDPRF86222"
"12",1701886029488,"06/12/2023 18:07:09",1701886029488,0,"06/12/2023 18:07:09",152734,15,"questionnaire-uu2n",NA,33496798,9909256,NA,"complete",NA,"6570b672a5ca4229dd5ea889","computer","Desktop or Laptop","Windows 10","Chrome 119.0.0.0","1368x912","1368x755",NA,NA,0,"BIQ (Charlotte)",2,"In","HIGJFKELDACB",NA,"In",5,"Spreadsheet1",1,"BIQ","Screen 3","iz3the",3,"response","3",14776.787,20547.73,20564.375,14776.787,20547.73,20564.375,1,14776.787,5787.58799999999,0,NA,"Rating Scale","Rating Scale",9,"object-60","BIQ",NA,"MDPRF86222"
"13",1701886029490,"06/12/2023 18:07:09",1701886029490,0,"06/12/2023 18:07:09",152734,15,"questionnaire-uu2n",NA,33496798,9909256,NA,"complete",NA,"6570b672a5ca4229dd5ea889","computer","Desktop or Laptop","Windows 10","Chrome 119.0.0.0","1368x912","1368x755",NA,NA,0,"BIQ (Charlotte)",2,"In","HIGJFKELDACB",NA,"In",5,"Spreadsheet1",1,"BIQ","Screen 3","iz3the",3,"response","1",17979.39,20547.73,20564.375,17979.39,20547.73,20564.375,1,17979.39,2584.98499999999,0,NA,"Rating Scale","Rating Scale",16,"object-67","BIQ",NA,"MDPRF86222"
"14",1701886029501,"06/12/2023 18:07:09",1701886029501,0,"06/12/2023 18:07:09",152734,15,"questionnaire-uu2n",NA,33496798,9909256,NA,"complete",NA,"6570b672a5ca4229dd5ea889","computer","Desktop or Laptop","Windows 10","Chrome 119.0.0.0","1368x912","1368x755",NA,NA,0,"BIQ (Charlotte)",2,"In","HIGJFKELDACB",NA,"In",5,"Spreadsheet1",NA,"","","",NA,"5","END",NA,NA,NA,NA,NA,NA,0,NA,NA,NA,NA,"","",NA,"","",NA,"MDPRF86222"
"1",1701886288861,"06/12/2023 18:11:28",1701886288861,0,"06/12/2023 18:11:28",152734,15,"questionnaire-uu2n",NA,33497140,9909345,NA,"complete",NA,"6570b901f4750c58dffb72a5","computer","Desktop or Laptop","Windows 10","Chrome 119.0.0.0","1920x1080","1920x911",NA,NA,0,"BIQ (Charlotte)",2,"In","EFDGCHBIAJLK",NA,"In",5,"Spreadsheet1",NA,"","","",NA,"5","BEGIN",NA,NA,NA,NA,NA,NA,0,NA,NA,NA,NA,"","",NA,"","",NA,"MDPRF42986"
"2",1701886316201,"06/12/2023 18:11:56",1701886316201,0,"06/12/2023 18:11:56",152734,15,"questionnaire-uu2n",NA,33497140,9909345,NA,"complete",NA,"6570b901f4750c58dffb72a5","computer","Desktop or Laptop","Windows 10","Chrome 119.0.0.0","1920x1080","1920x911",NA,NA,0,"BIQ (Charlotte)",2,"In","EFDGCHBIAJLK",NA,"In",5,"Spreadsheet1",1,"BIQ","Screen 1","9dh6eq",1,"continue","",27349.5200000015,27345.814,27349.5200000015,27349.5200000015,27345.814,27349.5200000015,1,27349.5200000015,0,0,NA,"Click To Continue","Continue Button",23,"object-48","BIQ",NA,"MDPRF42986"
"3",1701886316203,"06/12/2023 18:11:56",1701886316203,0,"06/12/2023 18:11:56",152734,15,"questionnaire-uu2n",NA,33497140,9909345,NA,"complete",NA,"6570b901f4750c58dffb72a5","computer","Desktop or Laptop","Windows 10","Chrome 119.0.0.0","1920x1080","1920x911",NA,NA,0,"BIQ (Charlotte)",2,"In","EFDGCHBIAJLK",NA,"In",5,"Spreadsheet1",1,"BIQ","Screen 1","9dh6eq",1,"response","4",16922.33,27345.814,27351.120000003,16922.33,27345.814,27351.120000003,1,16922.33,10428.790000003,0,NA,"Rating Scale","Rating Scale",3,"object-5","BIQ",NA,"MDPRF42986"
"4",1701886316203,"06/12/2023 18:11:56",1701886316203,0,"06/12/2023 18:11:56",152734,15,"questionnaire-uu2n",NA,33497140,9909345,NA,"complete",NA,"6570b901f4750c58dffb72a5","computer","Desktop or Laptop","Windows 10","Chrome 119.0.0.0","1920x1080","1920x911",NA,NA,0,"BIQ (Charlotte)",2,"In","EFDGCHBIAJLK",NA,"In",5,"Spreadsheet1",1,"BIQ","Screen 1","9dh6eq",1,"response","1",23727.874,27345.814,27351.320000006,23727.874,27345.814,27351.320000006,1,23727.874,3623.44600000596,0,NA,"Rating Scale","Rating Scale",10,"object-18","BIQ",NA,"MDPRF42986"
"5",1701886316203,"06/12/2023 18:11:56",1701886316203,0,"06/12/2023 18:11:56",152734,15,"questionnaire-uu2n",NA,33497140,9909345,NA,"complete",NA,"6570b901f4750c58dffb72a5","computer","Desktop or Laptop","Windows 10","Chrome 119.0.0.0","1920x1080","1920x911",NA,NA,0,"BIQ (Charlotte)",2,"In","EFDGCHBIAJLK",NA,"In",5,"Spreadsheet1",1,"BIQ","Screen 1","9dh6eq",1,"response","2",26331.861,27345.814,27351.5200000015,26331.861,27345.814,27351.5200000015,1,26331.861,1019.65900000149,0,NA,"Rating Scale","Rating Scale",17,"object-80","BIQ",NA,"MDPRF42986"
"6",1701886339204,"06/12/2023 18:12:19",1701886339204,0,"06/12/2023 18:12:19",152734,15,"questionnaire-uu2n",NA,33497140,9909345,NA,"complete",NA,"6570b901f4750c58dffb72a5","computer","Desktop or Laptop","Windows 10","Chrome 119.0.0.0","1920x1080","1920x911",NA,NA,0,"BIQ (Charlotte)",2,"In","EFDGCHBIAJLK",NA,"In",5,"Spreadsheet1",1,"BIQ","Screen 2","o21mwi",2,"continue","",23007.006000006,23000.28,23007.006000006,23007.006000006,23000.28,23007.006000006,1,23007.006000006,0,0,NA,"Click To Continue","Continue Button",22,"object-50","BIQ",NA,"MDPRF42986"
"7",1701886339206,"06/12/2023 18:12:19",1701886339206,0,"06/12/2023 18:12:19",152734,15,"questionnaire-uu2n",NA,33497140,9909345,NA,"complete",NA,"6570b901f4750c58dffb72a5","computer","Desktop or Laptop","Windows 10","Chrome 119.0.0.0","1920x1080","1920x911",NA,NA,0,"BIQ (Charlotte)",2,"In","EFDGCHBIAJLK",NA,"In",5,"Spreadsheet1",1,"BIQ","Screen 2","o21mwi",2,"response","4",6409.673,23000.28,23007.189,6409.673,23000.28,23007.189,1,6409.673,16597.516,0,NA,"Rating Scale","Rating Scale",2,"object-259","BIQ",NA,"MDPRF42986"
"8",1701886339206,"06/12/2023 18:12:19",1701886339206,0,"06/12/2023 18:12:19",152734,15,"questionnaire-uu2n",NA,33497140,9909345,NA,"complete",NA,"6570b901f4750c58dffb72a5","computer","Desktop or Laptop","Windows 10","Chrome 119.0.0.0","1920x1080","1920x911",NA,NA,0,"BIQ (Charlotte)",2,"In","EFDGCHBIAJLK",NA,"In",5,"Spreadsheet1",1,"BIQ","Screen 2","o21mwi",2,"response","4",12381.723,23000.28,23007.189,12381.723,23000.28,23007.189,1,12381.723,10625.466,0,NA,"Rating Scale","Rating Scale",9,"object-36","BIQ",NA,"MDPRF42986"
"9",1701886339207,"06/12/2023 18:12:19",1701886339207,0,"06/12/2023 18:12:19",152734,15,"questionnaire-uu2n",NA,33497140,9909345,NA,"complete",NA,"6570b901f4750c58dffb72a5","computer","Desktop or Laptop","Windows 10","Chrome 119.0.0.0","1920x1080","1920x911",NA,NA,0,"BIQ (Charlotte)",2,"In","EFDGCHBIAJLK",NA,"In",5,"Spreadsheet1",1,"BIQ","Screen 2","o21mwi",2,"response","5",21528.232,23000.28,23007.189,21528.232,23000.28,23007.189,1,21528.232,1478.957,0,NA,"Rating Scale","Rating Scale",16,"object-86","BIQ",NA,"MDPRF42986"
"10",1701886355431,"06/12/2023 18:12:35",1701886355431,0,"06/12/2023 18:12:35",152734,15,"questionnaire-uu2n",NA,33497140,9909345,NA,"complete",NA,"6570b901f4750c58dffb72a5","computer","Desktop or Laptop","Windows 10","Chrome 119.0.0.0","1920x1080","1920x911",NA,NA,0,"BIQ (Charlotte)",2,"In","EFDGCHBIAJLK",NA,"In",5,"Spreadsheet1",1,"BIQ","Screen 3","iz3the",3,"continue","",16233.026000003,16229.547,16233.026000003,16233.026000003,16229.547,16233.026000003,1,16233.026000003,0,0,NA,"Click To Continue","Continue Button",22,"object-73","BIQ",NA,"MDPRF42986"
"11",1701886355433,"06/12/2023 18:12:35",1701886355433,0,"06/12/2023 18:12:35",152734,15,"questionnaire-uu2n",NA,33497140,9909345,NA,"complete",NA,"6570b901f4750c58dffb72a5","computer","Desktop or Laptop","Windows 10","Chrome 119.0.0.0","1920x1080","1920x911",NA,NA,0,"BIQ (Charlotte)",2,"In","EFDGCHBIAJLK",NA,"In",5,"Spreadsheet1",1,"BIQ","Screen 3","iz3the",3,"response","3",6409.426,16229.547,16235.1260000045,6409.426,16229.547,16235.1260000045,1,6409.426,9825.70000000447,0,NA,"Rating Scale","Rating Scale",2,"object-53","BIQ",NA,"MDPRF42986"
"12",1701886355433,"06/12/2023 18:12:35",1701886355433,0,"06/12/2023 18:12:35",152734,15,"questionnaire-uu2n",NA,33497140,9909345,NA,"complete",NA,"6570b901f4750c58dffb72a5","computer","Desktop or Laptop","Windows 10","Chrome 119.0.0.0","1920x1080","1920x911",NA,NA,0,"BIQ (Charlotte)",2,"In","EFDGCHBIAJLK",NA,"In",5,"Spreadsheet1",1,"BIQ","Screen 3","iz3the",3,"response","4",10576.857,16229.547,16235.4260000015,10576.857,16229.547,16235.4260000015,1,10576.857,5658.56900000149,0,NA,"Rating Scale","Rating Scale",9,"object-60","BIQ",NA,"MDPRF42986"
"13",1701886355433,"06/12/2023 18:12:35",1701886355433,0,"06/12/2023 18:12:35",152734,15,"questionnaire-uu2n",NA,33497140,9909345,NA,"complete",NA,"6570b901f4750c58dffb72a5","computer","Desktop or Laptop","Windows 10","Chrome 119.0.0.0","1920x1080","1920x911",NA,NA,0,"BIQ (Charlotte)",2,"In","EFDGCHBIAJLK",NA,"In",5,"Spreadsheet1",1,"BIQ","Screen 3","iz3the",3,"response","3",15160.04,16229.547,16235.726000006,15160.04,16229.547,16235.726000006,1,15160.04,1075.68600000595,0,NA,"Rating Scale","Rating Scale",16,"object-67","BIQ",NA,"MDPRF42986"
"14",1701886355436,"06/12/2023 18:12:35",1701886355436,0,"06/12/2023 18:12:35",152734,15,"questionnaire-uu2n",NA,33497140,9909345,NA,"complete",NA,"6570b901f4750c58dffb72a5","computer","Desktop or Laptop","Windows 10","Chrome 119.0.0.0","1920x1080","1920x911",NA,NA,0,"BIQ (Charlotte)",2,"In","EFDGCHBIAJLK",NA,"In",5,"Spreadsheet1",NA,"","","",NA,"5","END",NA,NA,NA,NA,NA,NA,0,NA,NA,NA,NA,"","",NA,"","",NA,"MDPRF42986"
"1",1701886398086,"06/12/2023 18:13:18",1701886398086,0,"06/12/2023 18:13:18",152734,15,"questionnaire-uu2n",NA,33497258,9909228,NA,"complete",NA,"6570b5cb9df66f11ec0691fd","computer","Desktop or Laptop","Windows 10","Chrome 119.0.0.0","1280x720","1422x670",NA,NA,0,"BIQ (Charlotte)",2,"In","IJHKGLFAEBDC",NA,"In",4,"Spreadsheet1",NA,"","","",NA,"5","BEGIN",NA,NA,NA,NA,NA,NA,0,NA,NA,NA,NA,"","",NA,"","",NA,"MDPRF89096"
"2",1701886417223,"06/12/2023 18:13:37",1701886417223,0,"06/12/2023 18:13:37",152734,15,"questionnaire-uu2n",NA,33497258,9909228,NA,"complete",NA,"6570b5cb9df66f11ec0691fd","computer","Desktop or Laptop","Windows 10","Chrome 119.0.0.0","1280x720","1422x670",NA,NA,0,"BIQ (Charlotte)",2,"In","IJHKGLFAEBDC",NA,"In",4,"Spreadsheet1",1,"BIQ","Screen 1","9dh6eq",1,"continue","",19147.533,19130.967,19147.533,19147.533,19130.967,19147.533,1,19147.533,0,0,NA,"Click To Continue","Continue Button",23,"object-48","BIQ",NA,"MDPRF89096"
"3",1701886417229,"06/12/2023 18:13:37",1701886417229,0,"06/12/2023 18:13:37",152734,15,"questionnaire-uu2n",NA,33497258,9909228,NA,"complete",NA,"6570b5cb9df66f11ec0691fd","computer","Desktop or Laptop","Windows 10","Chrome 119.0.0.0","1280x720","1422x670",NA,NA,0,"BIQ (Charlotte)",2,"In","IJHKGLFAEBDC",NA,"In",4,"Spreadsheet1",1,"BIQ","Screen 1","9dh6eq",1,"response","7",7282.578,19130.967,19147.533,7282.578,19130.967,19147.533,1,7282.578,11864.955,0,NA,"Rating Scale","Rating Scale",3,"object-5","BIQ",NA,"MDPRF89096"
"4",1701886417231,"06/12/2023 18:13:37",1701886417231,0,"06/12/2023 18:13:37",152734,15,"questionnaire-uu2n",NA,33497258,9909228,NA,"complete",NA,"6570b5cb9df66f11ec0691fd","computer","Desktop or Laptop","Windows 10","Chrome 119.0.0.0","1280x720","1422x670",NA,NA,0,"BIQ (Charlotte)",2,"In","IJHKGLFAEBDC",NA,"In",4,"Spreadsheet1",1,"BIQ","Screen 1","9dh6eq",1,"response","7",13015.177,19130.967,19147.533,13015.177,19130.967,19147.533,1,13015.177,6132.356,0,NA,"Rating Scale","Rating Scale",10,"object-18","BIQ",NA,"MDPRF89096"
"5",1701886417233,"06/12/2023 18:13:37",1701886417233,0,"06/12/2023 18:13:37",152734,15,"questionnaire-uu2n",NA,33497258,9909228,NA,"complete",NA,"6570b5cb9df66f11ec0691fd","computer","Desktop or Laptop","Windows 10","Chrome 119.0.0.0","1280x720","1422x670",NA,NA,0,"BIQ (Charlotte)",2,"In","IJHKGLFAEBDC",NA,"In",4,"Spreadsheet1",1,"BIQ","Screen 1","9dh6eq",1,"response","7",16248.089,19130.967,19147.533,16248.089,19130.967,19147.533,1,16248.089,2899.444,0,NA,"Rating Scale","Rating Scale",17,"object-80","BIQ",NA,"MDPRF89096"
"6",1701886431746,"06/12/2023 18:13:51",1701886431746,0,"06/12/2023 18:13:51",152734,15,"questionnaire-uu2n",NA,33497258,9909228,NA,"complete",NA,"6570b5cb9df66f11ec0691fd","computer","Desktop or Laptop","Windows 10","Chrome 119.0.0.0","1280x720","1422x670",NA,NA,0,"BIQ (Charlotte)",2,"In","IJHKGLFAEBDC",NA,"In",4,"Spreadsheet1",1,"BIQ","Screen 2","o21mwi",2,"continue","",14542.8359999523,14531.542,14542.8359999523,14542.8359999523,14531.542,14542.8359999523,1,14542.8359999523,0,0,NA,"Click To Continue","Continue Button",22,"object-50","BIQ",NA,"MDPRF89096"
"7",1701886431755,"06/12/2023 18:13:51",1701886431755,0,"06/12/2023 18:13:51",152734,15,"questionnaire-uu2n",NA,33497258,9909228,NA,"complete",NA,"6570b5cb9df66f11ec0691fd","computer","Desktop or Laptop","Windows 10","Chrome 119.0.0.0","1280x720","1422x670",NA,NA,0,"BIQ (Charlotte)",2,"In","IJHKGLFAEBDC",NA,"In",4,"Spreadsheet1",1,"BIQ","Screen 2","o21mwi",2,"response","8",7432.457,14531.542,14548.301,7432.457,14531.542,14548.301,1,7432.457,7115.844,0,NA,"Rating Scale","Rating Scale",2,"object-259","BIQ",NA,"MDPRF89096"
"8",1701886431757,"06/12/2023 18:13:51",1701886431757,0,"06/12/2023 18:13:51",152734,15,"questionnaire-uu2n",NA,33497258,9909228,NA,"complete",NA,"6570b5cb9df66f11ec0691fd","computer","Desktop or Laptop","Windows 10","Chrome 119.0.0.0","1280x720","1422x670",NA,NA,0,"BIQ (Charlotte)",2,"In","IJHKGLFAEBDC",NA,"In",4,"Spreadsheet1",1,"BIQ","Screen 2","o21mwi",2,"response","0",10048.778,14531.542,14548.301,10048.778,14531.542,14548.301,1,10048.778,4499.523,0,NA,"Rating Scale","Rating Scale",9,"object-36","BIQ",NA,"MDPRF89096"
"9",1701886431759,"06/12/2023 18:13:51",1701886431759,0,"06/12/2023 18:13:51",152734,15,"questionnaire-uu2n",NA,33497258,9909228,NA,"complete",NA,"6570b5cb9df66f11ec0691fd","computer","Desktop or Laptop","Windows 10","Chrome 119.0.0.0","1280x720","1422x670",NA,NA,0,"BIQ (Charlotte)",2,"In","IJHKGLFAEBDC",NA,"In",4,"Spreadsheet1",1,"BIQ","Screen 2","o21mwi",2,"response","0",13714.816,14531.542,14548.301,13714.816,14531.542,14548.301,1,13714.816,833.485000000001,0,NA,"Rating Scale","Rating Scale",16,"object-86","BIQ",NA,"MDPRF89096"
"10",1701886440069,"06/12/2023 18:14:00",1701886440069,0,"06/12/2023 18:14:00",152734,15,"questionnaire-uu2n",NA,33497258,9909228,NA,"complete",NA,"6570b5cb9df66f11ec0691fd","computer","Desktop or Laptop","Windows 10","Chrome 119.0.0.0","1280x720","1422x670",NA,NA,0,"BIQ (Charlotte)",2,"In","IJHKGLFAEBDC",NA,"In",4,"Spreadsheet1",1,"BIQ","Screen 3","iz3the",3,"continue","",8334.09400002384,8332.195,8334.09400002384,8334.09400002384,8332.195,8334.09400002384,1,8334.09400002384,0,0,NA,"Click To Continue","Continue Button",22,"object-73","BIQ",NA,"MDPRF89096"
"11",1701886440069,"06/12/2023 18:14:00",1701886440069,0,"06/12/2023 18:14:00",152734,15,"questionnaire-uu2n",NA,33497258,9909228,NA,"complete",NA,"6570b5cb9df66f11ec0691fd","computer","Desktop or Laptop","Windows 10","Chrome 119.0.0.0","1280x720","1422x670",NA,NA,0,"BIQ (Charlotte)",2,"In","IJHKGLFAEBDC",NA,"In",4,"Spreadsheet1",1,"BIQ","Screen 3","iz3the",3,"response","0",3366.157,8332.195,8334.79399995232,3366.157,8332.195,8334.79399995232,1,3366.157,4968.63699995232,0,NA,"Rating Scale","Rating Scale",2,"object-53","BIQ",NA,"MDPRF89096"
"12",1701886440070,"06/12/2023 18:14:00",1701886440070,0,"06/12/2023 18:14:00",152734,15,"questionnaire-uu2n",NA,33497258,9909228,NA,"complete",NA,"6570b5cb9df66f11ec0691fd","computer","Desktop or Laptop","Windows 10","Chrome 119.0.0.0","1280x720","1422x670",NA,NA,0,"BIQ (Charlotte)",2,"In","IJHKGLFAEBDC",NA,"In",4,"Spreadsheet1",1,"BIQ","Screen 3","iz3the",3,"response","0",4649.267,8332.195,8335.494,4649.267,8332.195,8335.494,1,4649.267,3686.227,0,NA,"Rating Scale","Rating Scale",9,"object-60","BIQ",NA,"MDPRF89096"
"13",1701886440071,"06/12/2023 18:14:00",1701886440071,0,"06/12/2023 18:14:00",152734,15,"questionnaire-uu2n",NA,33497258,9909228,NA,"complete",NA,"6570b5cb9df66f11ec0691fd","computer","Desktop or Laptop","Windows 10","Chrome 119.0.0.0","1280x720","1422x670",NA,NA,0,"BIQ (Charlotte)",2,"In","IJHKGLFAEBDC",NA,"In",4,"Spreadsheet1",1,"BIQ","Screen 3","iz3the",3,"response","4",7549.023,8332.195,8336.09400002384,7549.023,8332.195,8336.09400002384,1,7549.023,787.07100002384,0,NA,"Rating Scale","Rating Scale",16,"object-67","BIQ",NA,"MDPRF89096"
"14",1701886440076,"06/12/2023 18:14:00",1701886440076,0,"06/12/2023 18:14:00",152734,15,"questionnaire-uu2n",NA,33497258,9909228,NA,"complete",NA,"6570b5cb9df66f11ec0691fd","computer","Desktop or Laptop","Windows 10","Chrome 119.0.0.0","1280x720","1422x670",NA,NA,0,"BIQ (Charlotte)",2,"In","IJHKGLFAEBDC",NA,"In",4,"Spreadsheet1",NA,"","","",NA,"5","END",NA,NA,NA,NA,NA,NA,0,NA,NA,NA,NA,"","",NA,"","",NA,"MDPRF89096"
"1",1701886400138,"06/12/2023 18:13:20",1701886400138,0,"06/12/2023 18:13:20",152734,15,"questionnaire-uu2n",NA,33497262,9909303,NA,"complete",NA,"6570b78f324aed2935065a2b","computer","Desktop or Laptop","Windows 10","Chrome 118.0.0.0","1280x720","1280x601",NA,NA,0,"BIQ (Charlotte)",2,"In","CDBEAFLGKHJI",NA,"In",6,"Spreadsheet1",NA,"","","",NA,"5","BEGIN",NA,NA,NA,NA,NA,NA,0,NA,NA,NA,NA,"","",NA,"","",NA,"MDPRF45811"
"2",1701886420584,"06/12/2023 18:13:40",1701886420584,0,"06/12/2023 18:13:40",152734,15,"questionnaire-uu2n",NA,33497262,9909303,NA,"complete",NA,"6570b78f324aed2935065a2b","computer","Desktop or Laptop","Windows 10","Chrome 118.0.0.0","1280x720","1280x601",NA,NA,0,"BIQ (Charlotte)",2,"In","CDBEAFLGKHJI",NA,"In",6,"Spreadsheet1",1,"BIQ","Screen 1","9dh6eq",1,"continue","",20450.221,20433.457,20450.221,20450.221,20433.457,20450.221,1,20450.221,0,0,NA,"Click To Continue","Continue Button",23,"object-48","BIQ",NA,"MDPRF45811"
"3",1701886420590,"06/12/2023 18:13:40",1701886420590,0,"06/12/2023 18:13:40",152734,15,"questionnaire-uu2n",NA,33497262,9909303,NA,"complete",NA,"6570b78f324aed2935065a2b","computer","Desktop or Laptop","Windows 10","Chrome 118.0.0.0","1280x720","1280x601",NA,NA,0,"BIQ (Charlotte)",2,"In","CDBEAFLGKHJI",NA,"In",6,"Spreadsheet1",1,"BIQ","Screen 1","9dh6eq",1,"response","6",6278.377,20433.457,20450.221,6278.377,20433.457,20450.221,1,6278.377,14171.844,0,NA,"Rating Scale","Rating Scale",3,"object-5","BIQ",NA,"MDPRF45811"
"4",1701886420590,"06/12/2023 18:13:40",1701886420590,0,"06/12/2023 18:13:40",152734,15,"questionnaire-uu2n",NA,33497262,9909303,NA,"complete",NA,"6570b78f324aed2935065a2b","computer","Desktop or Laptop","Windows 10","Chrome 118.0.0.0","1280x720","1280x601",NA,NA,0,"BIQ (Charlotte)",2,"In","CDBEAFLGKHJI",NA,"In",6,"Spreadsheet1",1,"BIQ","Screen 1","9dh6eq",1,"response","5",11773.848,20433.457,20450.221,11773.848,20433.457,20450.221,1,11773.848,8676.373,0,NA,"Rating Scale","Rating Scale",10,"object-18","BIQ",NA,"MDPRF45811"
"5",1701886420591,"06/12/2023 18:13:40",1701886420591,0,"06/12/2023 18:13:40",152734,15,"questionnaire-uu2n",NA,33497262,9909303,NA,"complete",NA,"6570b78f324aed2935065a2b","computer","Desktop or Laptop","Windows 10","Chrome 118.0.0.0","1280x720","1280x601",NA,NA,0,"BIQ (Charlotte)",2,"In","CDBEAFLGKHJI",NA,"In",6,"Spreadsheet1",1,"BIQ","Screen 1","9dh6eq",1,"response","6",17818.753,20433.457,20450.221,17818.753,20433.457,20450.221,1,17818.753,2631.468,0,NA,"Rating Scale","Rating Scale",17,"object-80","BIQ",NA,"MDPRF45811"
"6",1701886444356,"06/12/2023 18:14:04",1701886444356,0,"06/12/2023 18:14:04",152734,15,"questionnaire-uu2n",NA,33497262,9909303,NA,"complete",NA,"6570b78f324aed2935065a2b","computer","Desktop or Laptop","Windows 10","Chrome 118.0.0.0","1280x720","1280x601",NA,NA,0,"BIQ (Charlotte)",2,"In","CDBEAFLGKHJI",NA,"In",6,"Spreadsheet1",1,"BIQ","Screen 2","o21mwi",2,"continue","",23803.2700001907,23797.004,23803.2700001907,23803.2700001907,23797.004,23803.2700001907,1,23803.2700001907,0,0,NA,"Click To Continue","Continue Button",22,"object-50","BIQ",NA,"MDPRF45811"
"7",1701886444358,"06/12/2023 18:14:04",1701886444358,0,"06/12/2023 18:14:04",152734,15,"questionnaire-uu2n",NA,33497262,9909303,NA,"complete",NA,"6570b78f324aed2935065a2b","computer","Desktop or Laptop","Windows 10","Chrome 118.0.0.0","1280x720","1280x601",NA,NA,0,"BIQ (Charlotte)",2,"In","CDBEAFLGKHJI",NA,"In",6,"Spreadsheet1",1,"BIQ","Screen 2","o21mwi",2,"response","6",3813.428,23797.004,23805.5699999046,3813.428,23797.004,23805.5699999046,1,3813.428,19992.1419999046,0,NA,"Rating Scale","Rating Scale",2,"object-259","BIQ",NA,"MDPRF45811"
"8",1701886444358,"06/12/2023 18:14:04",1701886444358,0,"06/12/2023 18:14:04",152734,15,"questionnaire-uu2n",NA,33497262,9909303,NA,"complete",NA,"6570b78f324aed2935065a2b","computer","Desktop or Laptop","Windows 10","Chrome 118.0.0.0","1280x720","1280x601",NA,NA,0,"BIQ (Charlotte)",2,"In","CDBEAFLGKHJI",NA,"In",6,"Spreadsheet1",1,"BIQ","Screen 2","o21mwi",2,"response","5",11956.694,23797.004,23806.0699999046,11956.694,23797.004,23806.0699999046,1,11956.694,11849.3759999046,0,NA,"Rating Scale","Rating Scale",9,"object-36","BIQ",NA,"MDPRF45811"
"9",1701886444359,"06/12/2023 18:14:04",1701886444359,0,"06/12/2023 18:14:04",152734,15,"questionnaire-uu2n",NA,33497262,9909303,NA,"complete",NA,"6570b78f324aed2935065a2b","computer","Desktop or Laptop","Windows 10","Chrome 118.0.0.0","1280x720","1280x601",NA,NA,0,"BIQ (Charlotte)",2,"In","CDBEAFLGKHJI",NA,"In",6,"Spreadsheet1",1,"BIQ","Screen 2","o21mwi",2,"response","3",22714.475,23797.004,23806.3700000954,22714.475,23797.004,23806.3700000954,1,22714.475,1091.89500009537,0,NA,"Rating Scale","Rating Scale",16,"object-86","BIQ",NA,"MDPRF45811"
"10",1701886453386,"06/12/2023 18:14:13",1701886453386,0,"06/12/2023 18:14:13",152734,15,"questionnaire-uu2n",NA,33497262,9909303,NA,"complete",NA,"6570b78f324aed2935065a2b","computer","Desktop or Laptop","Windows 10","Chrome 118.0.0.0","1280x720","1280x601",NA,NA,0,"BIQ (Charlotte)",2,"In","CDBEAFLGKHJI",NA,"In",6,"Spreadsheet1",1,"BIQ","Screen 3","iz3the",3,"continue","",9036.56599990463,9026.173,9036.56599990463,9036.56599990463,9026.173,9036.56599990463,1,9036.56599990463,0,0,NA,"Click To Continue","Continue Button",22,"object-73","BIQ",NA,"MDPRF45811"
"11",1701886453387,"06/12/2023 18:14:13",1701886453387,0,"06/12/2023 18:14:13",152734,15,"questionnaire-uu2n",NA,33497262,9909303,NA,"complete",NA,"6570b78f324aed2935065a2b","computer","Desktop or Laptop","Windows 10","Chrome 118.0.0.0","1280x720","1280x601",NA,NA,0,"BIQ (Charlotte)",2,"In","CDBEAFLGKHJI",NA,"In",6,"Spreadsheet1",1,"BIQ","Screen 3","iz3the",3,"response","1",3680.267,9026.173,9038.06599990463,3680.267,9026.173,9038.06599990463,1,3680.267,5357.79899990463,0,NA,"Rating Scale","Rating Scale",2,"object-53","BIQ",NA,"MDPRF45811"
"12",1701886453388,"06/12/2023 18:14:13",1701886453388,0,"06/12/2023 18:14:13",152734,15,"questionnaire-uu2n",NA,33497262,9909303,NA,"complete",NA,"6570b78f324aed2935065a2b","computer","Desktop or Laptop","Windows 10","Chrome 118.0.0.0","1280x720","1280x601",NA,NA,0,"BIQ (Charlotte)",2,"In","CDBEAFLGKHJI",NA,"In",6,"Spreadsheet1",1,"BIQ","Screen 3","iz3the",3,"response","3",6444.687,9026.173,9038.86600009537,6444.687,9026.173,9038.86600009537,1,6444.687,2594.17900009537,0,NA,"Rating Scale","Rating Scale",9,"object-60","BIQ",NA,"MDPRF45811"
"13",1701886453389,"06/12/2023 18:14:13",1701886453389,0,"06/12/2023 18:14:13",152734,15,"questionnaire-uu2n",NA,33497262,9909303,NA,"complete",NA,"6570b78f324aed2935065a2b","computer","Desktop or Laptop","Windows 10","Chrome 118.0.0.0","1280x720","1280x601",NA,NA,0,"BIQ (Charlotte)",2,"In","CDBEAFLGKHJI",NA,"In",6,"Spreadsheet1",1,"BIQ","Screen 3","iz3the",3,"response","4",8309.826,9026.173,9039.66599980926,8309.826,9026.173,9039.66599980926,1,8309.826,729.839999809265,0,NA,"Rating Scale","Rating Scale",16,"object-67","BIQ",NA,"MDPRF45811"
"14",1701886453398,"06/12/2023 18:14:13",1701886453398,0,"06/12/2023 18:14:13",152734,15,"questionnaire-uu2n",NA,33497262,9909303,NA,"complete",NA,"6570b78f324aed2935065a2b","computer","Desktop or Laptop","Windows 10","Chrome 118.0.0.0","1280x720","1280x601",NA,NA,0,"BIQ (Charlotte)",2,"In","CDBEAFLGKHJI",NA,"In",6,"Spreadsheet1",NA,"","","",NA,"5","END",NA,NA,NA,NA,NA,NA,0,NA,NA,NA,NA,"","",NA,"","",NA,"MDPRF45811"
"1",1701886456269,"06/12/2023 18:14:16",1701886456269,0,"06/12/2023 18:14:16",152734,15,"questionnaire-uu2n",NA,33497326,9909372,NA,"complete",NA,"6570b8f71a9a7ef8f0eedc0f","computer","Desktop or Laptop","Windows 10","Edge 119.0.0.0","1280x720","1280x569",NA,NA,0,"BIQ (Charlotte)",2,"In","FGEHDICJBKAL",NA,"In",3,"Spreadsheet1",NA,"","","",NA,"5","BEGIN",NA,NA,NA,NA,NA,NA,0,NA,NA,NA,NA,"","",NA,"","",NA,"MDPRF46330"
"2",1701886474240,"06/12/2023 18:14:34",1701886474240,0,"06/12/2023 18:14:34",152734,15,"questionnaire-uu2n",NA,33497326,9909372,NA,"complete",NA,"6570b8f71a9a7ef8f0eedc0f","computer","Desktop or Laptop","Windows 10","Edge 119.0.0.0","1280x720","1280x569",NA,NA,0,"BIQ (Charlotte)",2,"In","FGEHDICJBKAL",NA,"In",3,"Spreadsheet1",1,"BIQ","Screen 1","9dh6eq",1,"continue","",17976.829,17960.317,17976.829,17976.829,17960.317,17976.829,1,17976.829,0,0,NA,"Click To Continue","Continue Button",23,"object-48","BIQ",NA,"MDPRF46330"
"3",1701886474245,"06/12/2023 18:14:34",1701886474245,0,"06/12/2023 18:14:34",152734,15,"questionnaire-uu2n",NA,33497326,9909372,NA,"complete",NA,"6570b8f71a9a7ef8f0eedc0f","computer","Desktop or Laptop","Windows 10","Edge 119.0.0.0","1280x720","1280x569",NA,NA,0,"BIQ (Charlotte)",2,"In","FGEHDICJBKAL",NA,"In",3,"Spreadsheet1",1,"BIQ","Screen 1","9dh6eq",1,"response","6",10013.219,17960.317,17976.829,10013.219,17960.317,17976.829,1,10013.219,7963.61000000001,0,NA,"Rating Scale","Rating Scale",3,"object-5","BIQ",NA,"MDPRF46330"
"4",1701886474246,"06/12/2023 18:14:34",1701886474246,0,"06/12/2023 18:14:34",152734,15,"questionnaire-uu2n",NA,33497326,9909372,NA,"complete",NA,"6570b8f71a9a7ef8f0eedc0f","computer","Desktop or Laptop","Windows 10","Edge 119.0.0.0","1280x720","1280x569",NA,NA,0,"BIQ (Charlotte)",2,"In","FGEHDICJBKAL",NA,"In",3,"Spreadsheet1",1,"BIQ","Screen 1","9dh6eq",1,"response","8",13444.999,17960.317,17976.829,13444.999,17960.317,17976.829,1,13444.999,4531.83000000001,0,NA,"Rating Scale","Rating Scale",10,"object-18","BIQ",NA,"MDPRF46330"
"5",1701886474247,"06/12/2023 18:14:34",1701886474247,0,"06/12/2023 18:14:34",152734,15,"questionnaire-uu2n",NA,33497326,9909372,NA,"complete",NA,"6570b8f71a9a7ef8f0eedc0f","computer","Desktop or Laptop","Windows 10","Edge 119.0.0.0","1280x720","1280x569",NA,NA,0,"BIQ (Charlotte)",2,"In","FGEHDICJBKAL",NA,"In",3,"Spreadsheet1",1,"BIQ","Screen 1","9dh6eq",1,"response","0",16794.28,17960.317,17976.829,16794.28,17960.317,17976.829,1,16794.28,1182.54900000001,0,NA,"Rating Scale","Rating Scale",17,"object-80","BIQ",NA,"MDPRF46330"
"6",1701886489328,"06/12/2023 18:14:49",1701886489328,0,"06/12/2023 18:14:49",152734,15,"questionnaire-uu2n",NA,33497326,9909372,NA,"complete",NA,"6570b8f71a9a7ef8f0eedc0f","computer","Desktop or Laptop","Windows 10","Edge 119.0.0.0","1280x720","1280x569",NA,NA,0,"BIQ (Charlotte)",2,"In","FGEHDICJBKAL",NA,"In",3,"Spreadsheet1",1,"BIQ","Screen 2","o21mwi",2,"continue","",15111.634,15094.852,15111.634,15111.634,15094.852,15111.634,1,15111.634,0,0,NA,"Click To Continue","Continue Button",22,"object-50","BIQ",NA,"MDPRF46330"
"7",1701886489334,"06/12/2023 18:14:49",1701886489334,0,"06/12/2023 18:14:49",152734,15,"questionnaire-uu2n",NA,33497326,9909372,NA,"complete",NA,"6570b8f71a9a7ef8f0eedc0f","computer","Desktop or Laptop","Windows 10","Edge 119.0.0.0","1280x720","1280x569",NA,NA,0,"BIQ (Charlotte)",2,"In","FGEHDICJBKAL",NA,"In",3,"Spreadsheet1",1,"BIQ","Screen 2","o21mwi",2,"response","8",4848.58,15094.852,15111.634,4848.58,15094.852,15111.634,1,4848.58,10263.054,0,NA,"Rating Scale","Rating Scale",2,"object-259","BIQ",NA,"MDPRF46330"
"8",1701886489335,"06/12/2023 18:14:49",1701886489335,0,"06/12/2023 18:14:49",152734,15,"questionnaire-uu2n",NA,33497326,9909372,NA,"complete",NA,"6570b8f71a9a7ef8f0eedc0f","computer","Desktop or Laptop","Windows 10","Edge 119.0.0.0","1280x720","1280x569",NA,NA,0,"BIQ (Charlotte)",2,"In","FGEHDICJBKAL",NA,"In",3,"Spreadsheet1",1,"BIQ","Screen 2","o21mwi",2,"response","0",12062.967,15094.852,15111.634,12062.967,15094.852,15111.634,1,12062.967,3048.667,0,NA,"Rating Scale","Rating Scale",9,"object-36","BIQ",NA,"MDPRF46330"
"9",1701886489337,"06/12/2023 18:14:49",1701886489337,0,"06/12/2023 18:14:49",152734,15,"questionnaire-uu2n",NA,33497326,9909372,NA,"complete",NA,"6570b8f71a9a7ef8f0eedc0f","computer","Desktop or Laptop","Windows 10","Edge 119.0.0.0","1280x720","1280x569",NA,NA,0,"BIQ (Charlotte)",2,"In","FGEHDICJBKAL",NA,"In",3,"Spreadsheet1",1,"BIQ","Screen 2","o21mwi",2,"response","0",13495.71,15094.852,15111.634,13495.71,15094.852,15111.634,1,13495.71,1615.924,0,NA,"Rating Scale","Rating Scale",16,"object-86","BIQ",NA,"MDPRF46330"
"10",1701886502032,"06/12/2023 18:15:02",1701886502032,0,"06/12/2023 18:15:02",152734,15,"questionnaire-uu2n",NA,33497326,9909372,NA,"complete",NA,"6570b8f71a9a7ef8f0eedc0f","computer","Desktop or Laptop","Windows 10","Edge 119.0.0.0","1280x720","1280x569",NA,NA,0,"BIQ (Charlotte)",2,"In","FGEHDICJBKAL",NA,"In",3,"Spreadsheet1",1,"BIQ","Screen 3","iz3the",3,"continue","",12722.483,12712.622,12722.483,12722.483,12712.622,12722.483,1,12722.483,0,0,NA,"Click To Continue","Continue Button",22,"object-73","BIQ",NA,"MDPRF46330"
"11",1701886502039,"06/12/2023 18:15:02",1701886502039,0,"06/12/2023 18:15:02",152734,15,"questionnaire-uu2n",NA,33497326,9909372,NA,"complete",NA,"6570b8f71a9a7ef8f0eedc0f","computer","Desktop or Laptop","Windows 10","Edge 119.0.0.0","1280x720","1280x569",NA,NA,0,"BIQ (Charlotte)",2,"In","FGEHDICJBKAL",NA,"In",3,"Spreadsheet1",1,"BIQ","Screen 3","iz3the",3,"response","0",4732.148,12712.622,12729.483,4732.148,12712.622,12729.483,1,4732.148,7997.335,0,NA,"Rating Scale","Rating Scale",2,"object-53","BIQ",NA,"MDPRF46330"
"12",1701886502040,"06/12/2023 18:15:02",1701886502040,0,"06/12/2023 18:15:02",152734,15,"questionnaire-uu2n",NA,33497326,9909372,NA,"complete",NA,"6570b8f71a9a7ef8f0eedc0f","computer","Desktop or Laptop","Windows 10","Edge 119.0.0.0","1280x720","1280x569",NA,NA,0,"BIQ (Charlotte)",2,"In","FGEHDICJBKAL",NA,"In",3,"Spreadsheet1",1,"BIQ","Screen 3","iz3the",3,"response","0",5398.08,12712.622,12729.687,5398.08,12712.622,12729.687,1,5398.08,7331.607,0,NA,"Rating Scale","Rating Scale",9,"object-60","BIQ",NA,"MDPRF46330"
"13",1701886502042,"06/12/2023 18:15:02",1701886502042,0,"06/12/2023 18:15:02",152734,15,"questionnaire-uu2n",NA,33497326,9909372,NA,"complete",NA,"6570b8f71a9a7ef8f0eedc0f","computer","Desktop or Laptop","Windows 10","Edge 119.0.0.0","1280x720","1280x569",NA,NA,0,"BIQ (Charlotte)",2,"In","FGEHDICJBKAL",NA,"In",3,"Spreadsheet1",1,"BIQ","Screen 3","iz3the",3,"response","2",6697.877,12712.622,12729.687,6697.877,12712.622,12729.687,1,6697.877,6031.81,0,NA,"Rating Scale","Rating Scale",16,"object-67","BIQ",NA,"MDPRF46330"
"14",1701886502053,"06/12/2023 18:15:02",1701886502053,0,"06/12/2023 18:15:02",152734,15,"questionnaire-uu2n",NA,33497326,9909372,NA,"complete",NA,"6570b8f71a9a7ef8f0eedc0f","computer","Desktop or Laptop","Windows 10","Edge 119.0.0.0","1280x720","1280x569",NA,NA,0,"BIQ (Charlotte)",2,"In","FGEHDICJBKAL",NA,"In",3,"Spreadsheet1",NA,"","","",NA,"5","END",NA,NA,NA,NA,NA,NA,0,NA,NA,NA,NA,"","",NA,"","",NA,"MDPRF46330"
"1",1701886472099,"06/12/2023 18:14:32",1701886472099,0,"06/12/2023 18:14:32",152734,15,"questionnaire-uu2n",NA,33497341,9909327,NA,"complete",NA,"6570b891def6aeab21672509","computer","Desktop or Laptop","Chromium OS 14541.0.0","Chrome 118.0.0.0","1536x864","1536x756",NA,NA,0,"BIQ (Charlotte)",2,"In","BCADLEKFJGIH",NA,"In",4,"Spreadsheet1",NA,"","","",NA,"5","BEGIN",NA,NA,NA,NA,NA,NA,0,NA,NA,NA,NA,"","",NA,"","",NA,"MDPRF66053"
"2",1701886496203,"06/12/2023 18:14:56",1701886496203,0,"06/12/2023 18:14:56",152734,15,"questionnaire-uu2n",NA,33497341,9909327,NA,"complete",NA,"6570b891def6aeab21672509","computer","Desktop or Laptop","Chromium OS 14541.0.0","Chrome 118.0.0.0","1536x864","1536x756",NA,NA,0,"BIQ (Charlotte)",2,"In","BCADLEKFJGIH",NA,"In",4,"Spreadsheet1",1,"BIQ","Screen 1","9dh6eq",1,"continue","",24119.502,24102.836,24119.502,24119.502,24102.836,24119.502,1,24119.502,0,0,NA,"Click To Continue","Continue Button",23,"object-48","BIQ",NA,"MDPRF66053"
"3",1701886496213,"06/12/2023 18:14:56",1701886496213,0,"06/12/2023 18:14:56",152734,15,"questionnaire-uu2n",NA,33497341,9909327,NA,"complete",NA,"6570b891def6aeab21672509","computer","Desktop or Laptop","Chromium OS 14541.0.0","Chrome 118.0.0.0","1536x864","1536x756",NA,NA,0,"BIQ (Charlotte)",2,"In","BCADLEKFJGIH",NA,"In",4,"Spreadsheet1",1,"BIQ","Screen 1","9dh6eq",1,"response","4",8761.279,24102.836,24119.502,8761.279,24102.836,24119.502,1,8761.279,15358.223,0,NA,"Rating Scale","Rating Scale",3,"object-5","BIQ",NA,"MDPRF66053"
"4",1701886496215,"06/12/2023 18:14:56",1701886496215,0,"06/12/2023 18:14:56",152734,15,"questionnaire-uu2n",NA,33497341,9909327,NA,"complete",NA,"6570b891def6aeab21672509","computer","Desktop or Laptop","Chromium OS 14541.0.0","Chrome 118.0.0.0","1536x864","1536x756",NA,NA,0,"BIQ (Charlotte)",2,"In","BCADLEKFJGIH",NA,"In",4,"Spreadsheet1",1,"BIQ","Screen 1","9dh6eq",1,"response","7",11726.219,24102.836,24119.502,11726.219,24102.836,24119.502,1,11726.219,12393.283,0,NA,"Rating Scale","Rating Scale",10,"object-18","BIQ",NA,"MDPRF66053"
"5",1701886496217,"06/12/2023 18:14:56",1701886496217,0,"06/12/2023 18:14:56",152734,15,"questionnaire-uu2n",NA,33497341,9909327,NA,"complete",NA,"6570b891def6aeab21672509","computer","Desktop or Laptop","Chromium OS 14541.0.0","Chrome 118.0.0.0","1536x864","1536x756",NA,NA,0,"BIQ (Charlotte)",2,"In","BCADLEKFJGIH",NA,"In",4,"Spreadsheet1",1,"BIQ","Screen 1","9dh6eq",1,"response","1",16173.484,24102.836,24119.502,16173.484,24102.836,24119.502,1,16173.484,7946.018,0,NA,"Rating Scale","Rating Scale",17,"object-80","BIQ",NA,"MDPRF66053"
"6",1701886517700,"06/12/2023 18:15:17",1701886517700,0,"06/12/2023 18:15:17",152734,15,"questionnaire-uu2n",NA,33497341,9909327,NA,"complete",NA,"6570b891def6aeab21672509","computer","Desktop or Laptop","Chromium OS 14541.0.0","Chrome 118.0.0.0","1536x864","1536x756",NA,NA,0,"BIQ (Charlotte)",2,"In","BCADLEKFJGIH",NA,"In",4,"Spreadsheet1",1,"BIQ","Screen 2","o21mwi",2,"continue","",21535.106999994,21519.989,21535.106999994,21535.106999994,21519.989,21535.106999994,1,21535.106999994,0,0,NA,"Click To Continue","Continue Button",22,"object-50","BIQ",NA,"MDPRF66053"
"7",1701886517711,"06/12/2023 18:15:17",1701886517711,0,"06/12/2023 18:15:17",152734,15,"questionnaire-uu2n",NA,33497341,9909327,NA,"complete",NA,"6570b891def6aeab21672509","computer","Desktop or Laptop","Chromium OS 14541.0.0","Chrome 118.0.0.0","1536x864","1536x756",NA,NA,0,"BIQ (Charlotte)",2,"In","BCADLEKFJGIH",NA,"In",4,"Spreadsheet1",1,"BIQ","Screen 2","o21mwi",2,"response","8",3297.529,21519.989,21536.655,3297.529,21519.989,21536.655,1,3297.529,18239.126,0,NA,"Rating Scale","Rating Scale",2,"object-259","BIQ",NA,"MDPRF66053"
"8",1701886517713,"06/12/2023 18:15:17",1701886517713,0,"06/12/2023 18:15:17",152734,15,"questionnaire-uu2n",NA,33497341,9909327,NA,"complete",NA,"6570b891def6aeab21672509","computer","Desktop or Laptop","Chromium OS 14541.0.0","Chrome 118.0.0.0","1536x864","1536x756",NA,NA,0,"BIQ (Charlotte)",2,"In","BCADLEKFJGIH",NA,"In",4,"Spreadsheet1",1,"BIQ","Screen 2","o21mwi",2,"response","4",8544.272,21519.989,21536.655,8544.272,21519.989,21536.655,1,8544.272,12992.383,0,NA,"Rating Scale","Rating Scale",9,"object-36","BIQ",NA,"MDPRF66053"
"9",1701886517714,"06/12/2023 18:15:17",1701886517714,0,"06/12/2023 18:15:17",152734,15,"questionnaire-uu2n",NA,33497341,9909327,NA,"complete",NA,"6570b891def6aeab21672509","computer","Desktop or Laptop","Chromium OS 14541.0.0","Chrome 118.0.0.0","1536x864","1536x756",NA,NA,0,"BIQ (Charlotte)",2,"In","BCADLEKFJGIH",NA,"In",4,"Spreadsheet1",1,"BIQ","Screen 2","o21mwi",2,"response","4",13291.732,21519.989,21536.655,13291.732,21519.989,21536.655,1,13291.732,8244.92300000001,0,NA,"Rating Scale","Rating Scale",16,"object-86","BIQ",NA,"MDPRF66053"
"10",1701886529618,"06/12/2023 18:15:29",1701886529618,0,"06/12/2023 18:15:29",152734,15,"questionnaire-uu2n",NA,33497341,9909327,NA,"complete",NA,"6570b891def6aeab21672509","computer","Desktop or Laptop","Chromium OS 14541.0.0","Chrome 118.0.0.0","1536x864","1536x756",NA,NA,0,"BIQ (Charlotte)",2,"In","BCADLEKFJGIH",NA,"In",4,"Spreadsheet1",1,"BIQ","Screen 3","iz3the",3,"continue","",11933.9179999911,11926.318,11933.9179999911,11933.9179999911,11926.318,11933.9179999911,1,11933.9179999911,0,0,NA,"Click To Continue","Continue Button",22,"object-73","BIQ",NA,"MDPRF66053"
"11",1701886529626,"06/12/2023 18:15:29",1701886529626,0,"06/12/2023 18:15:29",152734,15,"questionnaire-uu2n",NA,33497341,9909327,NA,"complete",NA,"6570b891def6aeab21672509","computer","Desktop or Laptop","Chromium OS 14541.0.0","Chrome 118.0.0.0","1536x864","1536x756",NA,NA,0,"BIQ (Charlotte)",2,"In","BCADLEKFJGIH",NA,"In",4,"Spreadsheet1",1,"BIQ","Screen 3","iz3the",3,"response","0",5080.564,11926.318,11942.018,5080.564,11926.318,11942.018,1,5080.564,6861.454,0,NA,"Rating Scale","Rating Scale",2,"object-53","BIQ",NA,"MDPRF66053"
"12",1701886529627,"06/12/2023 18:15:29",1701886529627,0,"06/12/2023 18:15:29",152734,15,"questionnaire-uu2n",NA,33497341,9909327,NA,"complete",NA,"6570b891def6aeab21672509","computer","Desktop or Laptop","Chromium OS 14541.0.0","Chrome 118.0.0.0","1536x864","1536x756",NA,NA,0,"BIQ (Charlotte)",2,"In","BCADLEKFJGIH",NA,"In",4,"Spreadsheet1",1,"BIQ","Screen 3","iz3the",3,"response","0",6646.211,11926.318,11942.984,6646.211,11926.318,11942.984,1,6646.211,5296.77300000001,0,NA,"Rating Scale","Rating Scale",9,"object-60","BIQ",NA,"MDPRF66053"
"13",1701886529629,"06/12/2023 18:15:29",1701886529629,0,"06/12/2023 18:15:29",152734,15,"questionnaire-uu2n",NA,33497341,9909327,NA,"complete",NA,"6570b891def6aeab21672509","computer","Desktop or Laptop","Chromium OS 14541.0.0","Chrome 118.0.0.0","1536x864","1536x756",NA,NA,0,"BIQ (Charlotte)",2,"In","BCADLEKFJGIH",NA,"In",4,"Spreadsheet1",1,"BIQ","Screen 3","iz3the",3,"response","6",10577.051,11926.318,11942.984,10577.051,11926.318,11942.984,1,10577.051,1365.933,0,NA,"Rating Scale","Rating Scale",16,"object-67","BIQ",NA,"MDPRF66053"
"14",1701886529638,"06/12/2023 18:15:29",1701886529638,0,"06/12/2023 18:15:29",152734,15,"questionnaire-uu2n",NA,33497341,9909327,NA,"complete",NA,"6570b891def6aeab21672509","computer","Desktop or Laptop","Chromium OS 14541.0.0","Chrome 118.0.0.0","1536x864","1536x756",NA,NA,0,"BIQ (Charlotte)",2,"In","BCADLEKFJGIH",NA,"In",4,"Spreadsheet1",NA,"","","",NA,"5","END",NA,NA,NA,NA,NA,NA,0,NA,NA,NA,NA,"","",NA,"","",NA,"MDPRF66053"
"1",1701886492873,"06/12/2023 18:14:52",1701886492873,0,"06/12/2023 18:14:52",152734,15,"questionnaire-uu2n",NA,33497506,9909391,NA,"complete",NA,"6570b93d9e438e9c5de027a1","computer","Desktop or Laptop","Windows 10","Chrome 119.0.0.0","1280x720","1280x571",NA,NA,0,"BIQ (Charlotte)",2,"In","GHFIEJDKCLBA",NA,"In",2,"Spreadsheet1",NA,"","","",NA,"5","BEGIN",NA,NA,NA,NA,NA,NA,0,NA,NA,NA,NA,"","",NA,"","",NA,"MDPRF42158"
"2",1701886520020,"06/12/2023 18:15:20",1701886520020,0,"06/12/2023 18:15:20",152734,15,"questionnaire-uu2n",NA,33497506,9909391,NA,"complete",NA,"6570b93d9e438e9c5de027a1","computer","Desktop or Laptop","Windows 10","Chrome 119.0.0.0","1280x720","1280x571",NA,NA,0,"BIQ (Charlotte)",2,"In","GHFIEJDKCLBA",NA,"In",2,"Spreadsheet1",1,"BIQ","Screen 1","9dh6eq",1,"continue","",27159.925,27143.268,27159.925,27159.925,27143.268,27159.925,1,27159.925,0,0,NA,"Click To Continue","Continue Button",23,"object-48","BIQ",NA,"MDPRF42158"
"3",1701886520023,"06/12/2023 18:15:20",1701886520023,0,"06/12/2023 18:15:20",152734,15,"questionnaire-uu2n",NA,33497506,9909391,NA,"complete",NA,"6570b93d9e438e9c5de027a1","computer","Desktop or Laptop","Windows 10","Chrome 119.0.0.0","1280x720","1280x571",NA,NA,0,"BIQ (Charlotte)",2,"In","GHFIEJDKCLBA",NA,"In",2,"Spreadsheet1",1,"BIQ","Screen 1","9dh6eq",1,"response","4",10863.947,27143.268,27159.925,10863.947,27143.268,27159.925,1,10863.947,16295.978,0,NA,"Rating Scale","Rating Scale",3,"object-5","BIQ",NA,"MDPRF42158"
"4",1701886520023,"06/12/2023 18:15:20",1701886520023,0,"06/12/2023 18:15:20",152734,15,"questionnaire-uu2n",NA,33497506,9909391,NA,"complete",NA,"6570b93d9e438e9c5de027a1","computer","Desktop or Laptop","Windows 10","Chrome 119.0.0.0","1280x720","1280x571",NA,NA,0,"BIQ (Charlotte)",2,"In","GHFIEJDKCLBA",NA,"In",2,"Spreadsheet1",1,"BIQ","Screen 1","9dh6eq",1,"response","7",19311.854,27143.268,27159.925,19311.854,27143.268,27159.925,1,19311.854,7848.071,0,NA,"Rating Scale","Rating Scale",10,"object-18","BIQ",NA,"MDPRF42158"
"5",1701886520024,"06/12/2023 18:15:20",1701886520024,0,"06/12/2023 18:15:20",152734,15,"questionnaire-uu2n",NA,33497506,9909391,NA,"complete",NA,"6570b93d9e438e9c5de027a1","computer","Desktop or Laptop","Windows 10","Chrome 119.0.0.0","1280x720","1280x571",NA,NA,0,"BIQ (Charlotte)",2,"In","GHFIEJDKCLBA",NA,"In",2,"Spreadsheet1",1,"BIQ","Screen 1","9dh6eq",1,"response","1",26643.382,27143.268,27159.925,26643.382,27143.268,27159.925,1,26643.382,516.543000000001,0,NA,"Rating Scale","Rating Scale",17,"object-80","BIQ",NA,"MDPRF42158"
"6",1701886543155,"06/12/2023 18:15:43",1701886543155,0,"06/12/2023 18:15:43",152734,15,"questionnaire-uu2n",NA,33497506,9909391,NA,"complete",NA,"6570b93d9e438e9c5de027a1","computer","Desktop or Laptop","Windows 10","Chrome 119.0.0.0","1280x720","1280x571",NA,NA,0,"BIQ (Charlotte)",2,"In","GHFIEJDKCLBA",NA,"In",2,"Spreadsheet1",1,"BIQ","Screen 2","o21mwi",2,"continue","",23161.122,23144.399,23161.122,23161.122,23144.399,23161.122,1,23161.122,0,0,NA,"Click To Continue","Continue Button",22,"object-50","BIQ",NA,"MDPRF42158"
"7",1701886543159,"06/12/2023 18:15:43",1701886543159,0,"06/12/2023 18:15:43",152734,15,"questionnaire-uu2n",NA,33497506,9909391,NA,"complete",NA,"6570b93d9e438e9c5de027a1","computer","Desktop or Laptop","Windows 10","Chrome 119.0.0.0","1280x720","1280x571",NA,NA,0,"BIQ (Charlotte)",2,"In","GHFIEJDKCLBA",NA,"In",2,"Spreadsheet1",1,"BIQ","Screen 2","o21mwi",2,"response","8",4748.856,23144.399,23161.122,4748.856,23144.399,23161.122,1,4748.856,18412.266,0,NA,"Rating Scale","Rating Scale",2,"object-259","BIQ",NA,"MDPRF42158"
